,success,ttype,start_time,trial_type,trial_index,time_elapsed,internal_node_id,warning,missed_checkup,PID,view_history,rt,responses,repeat_instructions,key_press,index,trial_num,block,condition,iti,isi,high_group_on_left,left_group_value,right_group_value,left_item_value,right_item_value,left_img,right_img,left_img_path,right_img_path,left_chosen,chosen_group_value,unchosen_group_value,chosen_item_value,unchosen_item_value,chosen_img,unchosen_img,onset,duration,no_response,total_bonus_tally
0,True,full_screen,d06032022hr1630,fullscreen,0,5146,0.0-0.0,0,0,27789,,,,,,,,,,,,,,,,,,,,,,,,,,,,,,,
1,,size_instructions,,instructions,1,65333,0.0-1.0-0.0-0.0,0,0,27789,"[{""page_index"":0,""viewing_time"":7574},{""page_index"":1,""viewing_time"":19129},{""page_index"":2,""viewing_time"":19156},{""page_index"":3,""viewing_time"":5255},{""page_index"":4,""viewing_time"":6418},{""page_index"":5,""viewing_time"":2652}]",60185.0,,,,,,,,,,,,,,,,,,,,,,,,,,,,,
2,,rl_comprehension_check,,survey-multi-choice,2,79987,0.0-1.0-0.0-1.0,0,0,27789,,14648.0,"{""Q0"":""True"",""Q1"":""True"",""Q2"":""D for left and K for right""}",0.0,,,,,,,,,,,,,,,,,,,,,,,,,,,
3,,,,html-keyboard-response,3,83727,0.0-1.0-1.0,0,0,27789,,3734.0,,,68.0,,,,,,,,,,,,,,,,,,,,,,,,,,
4,,rl_choice,,html-keyboard-response,4,84576,0.0-1.0-2.0,0,0,27789,,845.0,,,75.0,0.0,0.0,1.0,hard,3500.0,2000.0,1.0,60.0,40.0,80.0,40.0,A,B,/static/Simple_RL/Stimuli/Fractals_stims/A.jpg,/static/Simple_RL/Stimuli/Fractals_stims/B.jpg,0.0,40.0,60.0,40.0,80.0,B,A,0.845,0.845,0.0,
5,,rl_choice_confirmation,,html-keyboard-response,5,85237,0.0-1.0-3.0-0.0,0,0,27789,,,,,,0.0,,,,,,,,,,,,,,,,,,,,,,1.5,0.655,,
6,,isi,,html-keyboard-response,6,87239,0.0-1.0-5.0,0,0,27789,,,,,,,,,,,,,,,,,,,,,,,,,,,,3.5,2.0,,
7,,feedback,,html-keyboard-response,7,88244,0.0-1.0-6.0-0.0,0,0,27789,,,,,,0.0,,,,,,,,,,,,,,,,,,,,,,4.5,1.0,,
8,,iti,,html-keyboard-response,8,91747,0.0-1.0-7.0,0,0,27789,,,,,,,,,,,,,,,,,,,,,,,,,,,,8.0,3.5,,
9,,rl_choice,,html-keyboard-response,9,92382,0.0-1.0-9.0,0,0,27789,,631.0,,,68.0,1.0,1.0,1.0,hard,1000.0,2000.0,1.0,60.0,40.0,80.0,20.0,A,B,/static/Simple_RL/Stimuli/Fractals_stims/A.jpg,/static/Simple_RL/Stimuli/Fractals_stims/B.jpg,1.0,60.0,40.0,80.0,20.0,A,B,8.631,0.631,0.0,
10,,rl_choice_confirmation,,html-keyboard-response,10,93256,0.0-1.0-10.0-0.0,0,0,27789,,,,,,1.0,,,,,,,,,,,,,,,,,,,,,,9.5,0.869,,
11,,isi,,html-keyboard-response,11,95259,0.0-1.0-12.0,0,0,27789,,,,,,,,,,,,,,,,,,,,,,,,,,,,11.5,2.0,,
12,,feedback,,html-keyboard-response,12,96263,0.0-1.0-13.0-0.0,0,0,27789,,,,,,1.0,,,,,,,,,,,,,,,,,,,,,,12.5,1.0,,
13,,iti,,html-keyboard-response,13,97266,0.0-1.0-14.0,0,0,27789,,,,,,,,,,,,,,,,,,,,,,,,,,,,13.5,1.0,,
14,,rl_choice,,html-keyboard-response,14,97741,0.0-1.0-16.0,0,0,27789,,472.0,,,75.0,2.0,2.0,1.0,easy,2000.0,2000.0,0.0,20.0,80.0,40.0,100.0,D,C,/static/Simple_RL/Stimuli/Fractals_stims/D.jpg,/static/Simple_RL/Stimuli/Fractals_stims/C.jpg,0.0,80.0,20.0,100.0,40.0,C,D,13.972,0.472,0.0,
15,,rl_choice_confirmation,,html-keyboard-response,15,98773,0.0-1.0-17.0-0.0,0,0,27789,,,,,,2.0,,,,,,,,,,,,,,,,,,,,,,15.0,1.028,,
16,,isi,,html-keyboard-response,16,100776,0.0-1.0-19.0,0,0,27789,,,,,,,,,,,,,,,,,,,,,,,,,,,,17.0,2.0,,
17,,feedback,,html-keyboard-response,17,101780,0.0-1.0-20.0-0.0,0,0,27789,,,,,,2.0,,,,,,,,,,,,,,,,,,,,,,18.0,1.0,,
18,,iti,,html-keyboard-response,18,103783,0.0-1.0-21.0,0,0,27789,,,,,,,,,,,,,,,,,,,,,,,,,,,,20.0,2.0,,
19,,rl_choice,,html-keyboard-response,19,104543,0.0-1.0-23.0,0,0,27789,,757.0,,,68.0,3.0,3.0,1.0,hard,1500.0,1000.0,0.0,40.0,60.0,20.0,60.0,B,A,/static/Simple_RL/Stimuli/Fractals_stims/B.jpg,/static/Simple_RL/Stimuli/Fractals_stims/A.jpg,1.0,40.0,60.0,20.0,60.0,B,A,20.757,0.757,0.0,
20,,rl_choice_confirmation,,html-keyboard-response,20,105289,0.0-1.0-24.0-0.0,0,0,27789,,,,,,3.0,,,,,,,,,,,,,,,,,,,,,,21.5,0.743,,
21,,isi,,html-keyboard-response,21,106292,0.0-1.0-26.0,0,0,27789,,,,,,,,,,,,,,,,,,,,,,,,,,,,22.5,1.0,,
22,,feedback,,html-keyboard-response,22,107296,0.0-1.0-27.0-0.0,0,0,27789,,,,,,3.0,,,,,,,,,,,,,,,,,,,,,,23.5,1.0,,
23,,iti,,html-keyboard-response,23,108799,0.0-1.0-28.0,0,0,27789,,,,,,,,,,,,,,,,,,,,,,,,,,,,25.0,1.5,,
24,,rl_choice,,html-keyboard-response,24,109377,0.0-1.0-30.0,0,0,27789,,575.0,,,75.0,4.0,4.0,1.0,hard,1500.0,3000.0,0.0,40.0,60.0,40.0,60.0,B,A,/static/Simple_RL/Stimuli/Fractals_stims/B.jpg,/static/Simple_RL/Stimuli/Fractals_stims/A.jpg,0.0,60.0,40.0,60.0,40.0,A,B,25.575,0.575,0.0,
25,,rl_choice_confirmation,,html-keyboard-response,25,110306,0.0-1.0-31.0-0.0,0,0,27789,,,,,,4.0,,,,,,,,,,,,,,,,,,,,,,26.5,0.925,,
26,,isi,,html-keyboard-response,26,113308,0.0-1.0-33.0,0,0,27789,,,,,,,,,,,,,,,,,,,,,,,,,,,,29.5,3.0,,
27,,feedback,,html-keyboard-response,27,114311,0.0-1.0-34.0-0.0,0,0,27789,,,,,,4.0,,,,,,,,,,,,,,,,,,,,,,30.5,1.0,,
28,,iti,,html-keyboard-response,28,115814,0.0-1.0-35.0,0,0,27789,,,,,,,,,,,,,,,,,,,,,,,,,,,,32.0,1.5,,
29,,rl_choice,,html-keyboard-response,29,116698,0.0-1.0-37.0,0,0,27789,,881.0,,,75.0,5.0,5.0,1.0,easy,1500.0,1500.0,1.0,80.0,20.0,80.0,0.0,C,D,/static/Simple_RL/Stimuli/Fractals_stims/C.jpg,/static/Simple_RL/Stimuli/Fractals_stims/D.jpg,0.0,20.0,80.0,0.0,80.0,D,C,32.881,0.881,0.0,
30,,rl_choice_confirmation,,html-keyboard-response,30,117321,0.0-1.0-38.0-0.0,0,0,27789,,,,,,5.0,,,,,,,,,,,,,,,,,,,,,,33.5,0.619,,
31,,isi,,html-keyboard-response,31,118825,0.0-1.0-40.0,0,0,27789,,,,,,,,,,,,,,,,,,,,,,,,,,,,35.0,1.5,,
32,,feedback,,html-keyboard-response,32,119829,0.0-1.0-41.0-0.0,0,0,27789,,,,,,5.0,,,,,,,,,,,,,,,,,,,,,,36.0,1.0,,
33,,iti,,html-keyboard-response,33,121332,0.0-1.0-42.0,0,0,27789,,,,,,,,,,,,,,,,,,,,,,,,,,,,37.5,1.5,,
34,,rl_choice,,html-keyboard-response,34,121940,0.0-1.0-44.0,0,0,27789,,605.0,,,68.0,6.0,6.0,1.0,easy,1000.0,1000.0,1.0,80.0,20.0,60.0,40.0,C,D,/static/Simple_RL/Stimuli/Fractals_stims/C.jpg,/static/Simple_RL/Stimuli/Fractals_stims/D.jpg,1.0,80.0,20.0,60.0,40.0,C,D,38.105,0.605,0.0,
35,,rl_choice_confirmation,,html-keyboard-response,35,122839,0.0-1.0-45.0-0.0,0,0,27789,,,,,,6.0,,,,,,,,,,,,,,,,,,,,,,39.0,0.895,,
36,,isi,,html-keyboard-response,36,123841,0.0-1.0-47.0,0,0,27789,,,,,,,,,,,,,,,,,,,,,,,,,,,,40.0,1.0,,
37,,feedback,,html-keyboard-response,37,124846,0.0-1.0-48.0-0.0,0,0,27789,,,,,,6.0,,,,,,,,,,,,,,,,,,,,,,41.0,1.0,,
38,,iti,,html-keyboard-response,38,125849,0.0-1.0-49.0,0,0,27789,,,,,,,,,,,,,,,,,,,,,,,,,,,,42.0,1.0,,
39,,rl_choice,,html-keyboard-response,39,126476,0.0-1.0-51.0,0,0,27789,,624.0,,,68.0,7.0,7.0,1.0,easy,3000.0,2000.0,0.0,20.0,80.0,0.0,80.0,D,C,/static/Simple_RL/Stimuli/Fractals_stims/D.jpg,/static/Simple_RL/Stimuli/Fractals_stims/C.jpg,1.0,20.0,80.0,0.0,80.0,D,C,42.624,0.624,0.0,
40,,rl_choice_confirmation,,html-keyboard-response,40,127357,0.0-1.0-52.0-0.0,0,0,27789,,,,,,7.0,,,,,,,,,,,,,,,,,,,,,,43.5,0.876,,
41,,isi,,html-keyboard-response,41,129360,0.0-1.0-54.0,0,0,27789,,,,,,,,,,,,,,,,,,,,,,,,,,,,45.5,2.0,,
42,,feedback,,html-keyboard-response,42,130364,0.0-1.0-55.0-0.0,0,0,27789,,,,,,7.0,,,,,,,,,,,,,,,,,,,,,,46.5,1.0,,
43,,iti,,html-keyboard-response,43,133367,0.0-1.0-56.0,0,0,27789,,,,,,,,,,,,,,,,,,,,,,,,,,,,49.5,3.0,,
44,,rl_choice,,html-keyboard-response,44,134235,0.0-1.0-58.0,0,0,27789,,865.0,,,75.0,8.0,8.0,1.0,hard,2000.0,3500.0,0.0,40.0,60.0,40.0,60.0,B,A,/static/Simple_RL/Stimuli/Fractals_stims/B.jpg,/static/Simple_RL/Stimuli/Fractals_stims/A.jpg,0.0,60.0,40.0,60.0,40.0,A,B,50.365,0.865,0.0,
45,,rl_choice_confirmation,,html-keyboard-response,45,134875,0.0-1.0-59.0-0.0,0,0,27789,,,,,,8.0,,,,,,,,,,,,,,,,,,,,,,51.0,0.635,,
46,,isi,,html-keyboard-response,46,138386,0.0-1.0-61.0,0,0,27789,,,,,,,,,,,,,,,,,,,,,,,,,,,,54.5,3.5,,
47,,feedback,,html-keyboard-response,47,139390,0.0-1.0-62.0-0.0,0,0,27789,,,,,,8.0,,,,,,,,,,,,,,,,,,,,,,55.5,1.0,,
48,,iti,,html-keyboard-response,48,141393,0.0-1.0-63.0,0,0,27789,,,,,,,,,,,,,,,,,,,,,,,,,,,,57.5,2.0,,
49,,rl_choice,,html-keyboard-response,49,142014,0.0-1.0-65.0,0,0,27789,,618.0,,,68.0,9.0,9.0,1.0,hard,2000.0,1000.0,1.0,60.0,40.0,60.0,20.0,A,B,/static/Simple_RL/Stimuli/Fractals_stims/A.jpg,/static/Simple_RL/Stimuli/Fractals_stims/B.jpg,1.0,60.0,40.0,60.0,20.0,A,B,58.118,0.618,0.0,
50,,rl_choice_confirmation,,html-keyboard-response,50,142900,0.0-1.0-66.0-0.0,0,0,27789,,,,,,9.0,,,,,,,,,,,,,,,,,,,,,,59.0,0.882,,
51,,isi,,html-keyboard-response,51,143902,0.0-1.0-68.0,0,0,27789,,,,,,,,,,,,,,,,,,,,,,,,,,,,60.0,1.0,,
52,,feedback,,html-keyboard-response,52,144906,0.0-1.0-69.0-0.0,0,0,27789,,,,,,9.0,,,,,,,,,,,,,,,,,,,,,,61.0,1.0,,
53,,iti,,html-keyboard-response,53,146916,0.0-1.0-70.0,0,0,27789,,,,,,,,,,,,,,,,,,,,,,,,,,,,63.0,2.0,,
54,,rl_choice,,html-keyboard-response,54,147934,0.0-1.0-72.0,0,0,27789,,1015.0,,,75.0,10.0,10.0,1.0,easy,1000.0,1000.0,0.0,20.0,80.0,0.0,80.0,D,C,/static/Simple_RL/Stimuli/Fractals_stims/D.jpg,/static/Simple_RL/Stimuli/Fractals_stims/C.jpg,0.0,80.0,20.0,80.0,0.0,C,D,64.015,1.015,0.0,
55,,rl_choice_confirmation,,html-keyboard-response,55,148422,0.0-1.0-73.0-0.0,0,0,27789,,,,,,10.0,,,,,,,,,,,,,,,,,,,,,,64.5,0.485,,
56,,isi,,html-keyboard-response,56,149426,0.0-1.0-75.0,0,0,27789,,,,,,,,,,,,,,,,,,,,,,,,,,,,65.5,1.0,,
57,,feedback,,html-keyboard-response,57,150430,0.0-1.0-76.0-0.0,0,0,27789,,,,,,10.0,,,,,,,,,,,,,,,,,,,,,,66.5,1.0,,
58,,iti,,html-keyboard-response,58,151433,0.0-1.0-77.0,0,0,27789,,,,,,,,,,,,,,,,,,,,,,,,,,,,67.5,1.0,,
59,,rl_choice,,html-keyboard-response,59,152277,0.0-1.0-79.0,0,0,27789,,841.0,,,75.0,11.0,11.0,1.0,hard,1000.0,2000.0,0.0,40.0,60.0,40.0,60.0,B,A,/static/Simple_RL/Stimuli/Fractals_stims/B.jpg,/static/Simple_RL/Stimuli/Fractals_stims/A.jpg,0.0,60.0,40.0,60.0,40.0,A,B,68.341,0.841,0.0,
60,,rl_choice_confirmation,,html-keyboard-response,60,152940,0.0-1.0-80.0-0.0,0,0,27789,,,,,,11.0,,,,,,,,,,,,,,,,,,,,,,69.0,0.659,,
61,,isi,,html-keyboard-response,61,154944,0.0-1.0-82.0,0,0,27789,,,,,,,,,,,,,,,,,,,,,,,,,,,,71.0,2.0,,
62,,feedback,,html-keyboard-response,62,155948,0.0-1.0-83.0-0.0,0,0,27789,,,,,,11.0,,,,,,,,,,,,,,,,,,,,,,72.0,1.0,,
63,,iti,,html-keyboard-response,63,156957,0.0-1.0-84.0,0,0,27789,,,,,,,,,,,,,,,,,,,,,,,,,,,,73.0,1.0,,
64,,rl_choice,,html-keyboard-response,64,157637,0.0-1.0-86.0,0,0,27789,,677.0,,,75.0,12.0,12.0,1.0,hard,1000.0,1000.0,0.0,40.0,60.0,60.0,80.0,B,A,/static/Simple_RL/Stimuli/Fractals_stims/B.jpg,/static/Simple_RL/Stimuli/Fractals_stims/A.jpg,0.0,60.0,40.0,80.0,60.0,A,B,73.677,0.677,0.0,
65,,rl_choice_confirmation,,html-keyboard-response,65,158466,0.0-1.0-87.0-0.0,0,0,27789,,,,,,12.0,,,,,,,,,,,,,,,,,,,,,,74.5,0.823,,
66,,isi,,html-keyboard-response,66,159468,0.0-1.0-89.0,0,0,27789,,,,,,,,,,,,,,,,,,,,,,,,,,,,75.5,1.0,,
67,,feedback,,html-keyboard-response,67,160473,0.0-1.0-90.0-0.0,0,0,27789,,,,,,12.0,,,,,,,,,,,,,,,,,,,,,,76.5,1.0,,
68,,iti,,html-keyboard-response,68,161476,0.0-1.0-91.0,0,0,27789,,,,,,,,,,,,,,,,,,,,,,,,,,,,77.5,1.0,,
69,,rl_choice,,html-keyboard-response,69,162173,0.0-1.0-93.0,0,0,27789,,694.0,,,68.0,13.0,13.0,1.0,hard,3000.0,1500.0,1.0,60.0,40.0,40.0,60.0,A,B,/static/Simple_RL/Stimuli/Fractals_stims/A.jpg,/static/Simple_RL/Stimuli/Fractals_stims/B.jpg,1.0,60.0,40.0,40.0,60.0,A,B,78.194,0.694,0.0,
70,,rl_choice_confirmation,,html-keyboard-response,70,162984,0.0-1.0-94.0-0.0,0,0,27789,,,,,,13.0,,,,,,,,,,,,,,,,,,,,,,79.0,0.806,,
71,,isi,,html-keyboard-response,71,164487,0.0-1.0-96.0,0,0,27789,,,,,,,,,,,,,,,,,,,,,,,,,,,,80.5,1.5,,
72,,feedback,,html-keyboard-response,72,165491,0.0-1.0-97.0-0.0,0,0,27789,,,,,,13.0,,,,,,,,,,,,,,,,,,,,,,81.5,1.0,,
73,,iti,,html-keyboard-response,73,168494,0.0-1.0-98.0,0,0,27789,,,,,,,,,,,,,,,,,,,,,,,,,,,,84.5,3.0,,
74,,rl_choice,,html-keyboard-response,74,169233,0.0-1.0-100.0,0,0,27789,,735.0,,,68.0,14.0,14.0,1.0,easy,1500.0,1000.0,1.0,80.0,20.0,100.0,40.0,C,D,/static/Simple_RL/Stimuli/Fractals_stims/C.jpg,/static/Simple_RL/Stimuli/Fractals_stims/D.jpg,1.0,80.0,20.0,100.0,40.0,C,D,85.235,0.735,0.0,
75,,rl_choice_confirmation,,html-keyboard-response,75,170002,0.0-1.0-101.0-0.0,0,0,27789,,,,,,14.0,,,,,,,,,,,,,,,,,,,,,,86.0,0.765,,
76,,isi,,html-keyboard-response,76,171005,0.0-1.0-103.0,0,0,27789,,,,,,,,,,,,,,,,,,,,,,,,,,,,87.0,1.0,,
77,,feedback,,html-keyboard-response,77,172011,0.0-1.0-104.0-0.0,0,0,27789,,,,,,14.0,,,,,,,,,,,,,,,,,,,,,,88.0,1.0,,
78,,iti,,html-keyboard-response,78,173513,0.0-1.0-105.0,0,0,27789,,,,,,,,,,,,,,,,,,,,,,,,,,,,89.5,1.5,,
79,,rl_choice,,html-keyboard-response,79,174404,0.0-1.0-107.0,0,0,27789,,888.0,,,75.0,15.0,15.0,1.0,hard,1000.0,3000.0,1.0,60.0,40.0,60.0,60.0,A,B,/static/Simple_RL/Stimuli/Fractals_stims/A.jpg,/static/Simple_RL/Stimuli/Fractals_stims/B.jpg,0.0,40.0,60.0,60.0,60.0,B,A,90.388,0.888,0.0,
80,,rl_choice_confirmation,,html-keyboard-response,80,175020,0.0-1.0-108.0-0.0,0,0,27789,,,,,,15.0,,,,,,,,,,,,,,,,,,,,,,91.0,0.612,,
81,,isi,,html-keyboard-response,81,178022,0.0-1.0-110.0,0,0,27789,,,,,,,,,,,,,,,,,,,,,,,,,,,,94.0,3.0,,
82,,feedback,,html-keyboard-response,82,179027,0.0-1.0-111.0-0.0,0,0,27789,,,,,,15.0,,,,,,,,,,,,,,,,,,,,,,95.0,1.0,,
83,,iti,,html-keyboard-response,83,180030,0.0-1.0-112.0,0,0,27789,,,,,,,,,,,,,,,,,,,,,,,,,,,,96.0,1.0,,
84,,rl_choice,,html-keyboard-response,84,180825,0.0-1.0-114.0,0,0,27789,,792.0,,,75.0,16.0,16.0,1.0,hard,1500.0,1000.0,1.0,60.0,40.0,60.0,40.0,A,B,/static/Simple_RL/Stimuli/Fractals_stims/A.jpg,/static/Simple_RL/Stimuli/Fractals_stims/B.jpg,0.0,40.0,60.0,40.0,60.0,B,A,96.792,0.792,0.0,
85,,rl_choice_confirmation,,html-keyboard-response,85,181538,0.0-1.0-115.0-0.0,0,0,27789,,,,,,16.0,,,,,,,,,,,,,,,,,,,,,,97.5,0.708,,
86,,isi,,html-keyboard-response,86,182540,0.0-1.0-117.0,0,0,27789,,,,,,,,,,,,,,,,,,,,,,,,,,,,98.5,1.0,,
87,,feedback,,html-keyboard-response,87,183544,0.0-1.0-118.0-0.0,0,0,27789,,,,,,16.0,,,,,,,,,,,,,,,,,,,,,,99.5,1.0,,
88,,iti,,html-keyboard-response,88,185047,0.0-1.0-119.0,0,0,27789,,,,,,,,,,,,,,,,,,,,,,,,,,,,101.0,1.5,,
89,,rl_choice,,html-keyboard-response,89,186035,0.0-1.0-121.0,0,0,27789,,985.0,,,68.0,17.0,17.0,1.0,easy,2000.0,2000.0,1.0,80.0,20.0,100.0,40.0,C,D,/static/Simple_RL/Stimuli/Fractals_stims/C.jpg,/static/Simple_RL/Stimuli/Fractals_stims/D.jpg,1.0,80.0,20.0,100.0,40.0,C,D,101.985,0.985,0.0,
90,,rl_choice_confirmation,,html-keyboard-response,90,186555,0.0-1.0-122.0-0.0,0,0,27789,,,,,,17.0,,,,,,,,,,,,,,,,,,,,,,102.5,0.515,,
91,,isi,,html-keyboard-response,91,188558,0.0-1.0-124.0,0,0,27789,,,,,,,,,,,,,,,,,,,,,,,,,,,,104.5,2.0,,
92,,feedback,,html-keyboard-response,92,189563,0.0-1.0-125.0-0.0,0,0,27789,,,,,,17.0,,,,,,,,,,,,,,,,,,,,,,105.5,1.0,,
93,,iti,,html-keyboard-response,93,191566,0.0-1.0-126.0,0,0,27789,,,,,,,,,,,,,,,,,,,,,,,,,,,,107.5,2.0,,
94,,rl_choice,,html-keyboard-response,94,192369,0.0-1.0-128.0,0,0,27789,,800.0,,,68.0,18.0,18.0,1.0,hard,1000.0,1500.0,1.0,60.0,40.0,80.0,60.0,A,B,/static/Simple_RL/Stimuli/Fractals_stims/A.jpg,/static/Simple_RL/Stimuli/Fractals_stims/B.jpg,1.0,60.0,40.0,80.0,60.0,A,B,108.3,0.8,0.0,
95,,rl_choice_confirmation,,html-keyboard-response,95,193073,0.0-1.0-129.0-0.0,0,0,27789,,,,,,18.0,,,,,,,,,,,,,,,,,,,,,,109.0,0.7,,
96,,isi,,html-keyboard-response,96,194576,0.0-1.0-131.0,0,0,27789,,,,,,,,,,,,,,,,,,,,,,,,,,,,110.5,1.5,,
97,,feedback,,html-keyboard-response,97,195581,0.0-1.0-132.0-0.0,0,0,27789,,,,,,18.0,,,,,,,,,,,,,,,,,,,,,,111.5,1.0,,
98,,iti,,html-keyboard-response,98,196583,0.0-1.0-133.0,0,0,27789,,,,,,,,,,,,,,,,,,,,,,,,,,,,112.5,1.0,,
99,,rl_choice,,html-keyboard-response,99,197305,0.0-1.0-135.0,0,0,27789,,719.0,,,75.0,19.0,19.0,1.0,hard,1000.0,1000.0,1.0,60.0,40.0,60.0,20.0,A,B,/static/Simple_RL/Stimuli/Fractals_stims/A.jpg,/static/Simple_RL/Stimuli/Fractals_stims/B.jpg,0.0,40.0,60.0,20.0,60.0,B,A,113.219,0.719,0.0,
100,,rl_choice_confirmation,,html-keyboard-response,100,198090,0.0-1.0-136.0-0.0,0,0,27789,,,,,,19.0,,,,,,,,,,,,,,,,,,,,,,114.0,0.781,,
101,,isi,,html-keyboard-response,101,199093,0.0-1.0-138.0,0,0,27789,,,,,,,,,,,,,,,,,,,,,,,,,,,,115.0,1.0,,
102,,feedback,,html-keyboard-response,102,200097,0.0-1.0-139.0-0.0,0,0,27789,,,,,,19.0,,,,,,,,,,,,,,,,,,,,,,116.0,1.0,,
103,,iti,,html-keyboard-response,103,201100,0.0-1.0-140.0,0,0,27789,,,,,,,,,,,,,,,,,,,,,,,,,,,,117.0,1.0,,
104,,rl_choice,,html-keyboard-response,104,201752,0.0-1.0-142.0,0,0,27789,,649.0,,,75.0,20.0,20.0,1.0,easy,1000.0,1000.0,0.0,20.0,80.0,0.0,60.0,D,C,/static/Simple_RL/Stimuli/Fractals_stims/D.jpg,/static/Simple_RL/Stimuli/Fractals_stims/C.jpg,0.0,80.0,20.0,60.0,0.0,C,D,117.649,0.649,0.0,
105,,rl_choice_confirmation,,html-keyboard-response,105,202608,0.0-1.0-143.0-0.0,0,0,27789,,,,,,20.0,,,,,,,,,,,,,,,,,,,,,,118.5,0.851,,
106,,isi,,html-keyboard-response,106,203610,0.0-1.0-145.0,0,0,27789,,,,,,,,,,,,,,,,,,,,,,,,,,,,119.5,1.0,,
107,,feedback,,html-keyboard-response,107,204613,0.0-1.0-146.0-0.0,0,0,27789,,,,,,20.0,,,,,,,,,,,,,,,,,,,,,,120.5,1.0,,
108,,iti,,html-keyboard-response,108,205616,0.0-1.0-147.0,0,0,27789,,,,,,,,,,,,,,,,,,,,,,,,,,,,121.5,1.0,,
109,,rl_choice,,html-keyboard-response,109,206284,0.0-1.0-149.0,0,0,27789,,665.0,,,68.0,21.0,21.0,1.0,easy,2000.0,1500.0,1.0,80.0,20.0,60.0,20.0,C,D,/static/Simple_RL/Stimuli/Fractals_stims/C.jpg,/static/Simple_RL/Stimuli/Fractals_stims/D.jpg,1.0,80.0,20.0,60.0,20.0,C,D,122.165,0.665,0.0,
110,,rl_choice_confirmation,,html-keyboard-response,110,207122,0.0-1.0-150.0-0.0,0,0,27789,,,,,,21.0,,,,,,,,,,,,,,,,,,,,,,123.0,0.835,,
111,,isi,,html-keyboard-response,111,208626,0.0-1.0-152.0,0,0,27789,,,,,,,,,,,,,,,,,,,,,,,,,,,,124.5,1.5,,
112,,feedback,,html-keyboard-response,112,209629,0.0-1.0-153.0-0.0,0,0,27789,,,,,,21.0,,,,,,,,,,,,,,,,,,,,,,125.5,1.0,,
113,,iti,,html-keyboard-response,113,211632,0.0-1.0-154.0,0,0,27789,,,,,,,,,,,,,,,,,,,,,,,,,,,,127.5,2.0,,
114,,rl_choice,,html-keyboard-response,114,212752,0.0-1.0-156.0,0,0,27789,,1116.0,,,68.0,22.0,22.0,1.0,easy,1000.0,1000.0,1.0,80.0,20.0,100.0,0.0,C,D,/static/Simple_RL/Stimuli/Fractals_stims/C.jpg,/static/Simple_RL/Stimuli/Fractals_stims/D.jpg,1.0,80.0,20.0,100.0,0.0,C,D,128.616,1.116,0.0,
115,,rl_choice_confirmation,,html-keyboard-response,115,213140,0.0-1.0-157.0-0.0,0,0,27789,,,,,,22.0,,,,,,,,,,,,,,,,,,,,,,129.0,0.384,,
116,,isi,,html-keyboard-response,116,214143,0.0-1.0-159.0,0,0,27789,,,,,,,,,,,,,,,,,,,,,,,,,,,,130.0,1.0,,
117,,feedback,,html-keyboard-response,117,215146,0.0-1.0-160.0-0.0,0,0,27789,,,,,,22.0,,,,,,,,,,,,,,,,,,,,,,131.0,1.0,,
118,,iti,,html-keyboard-response,118,216149,0.0-1.0-161.0,0,0,27789,,,,,,,,,,,,,,,,,,,,,,,,,,,,132.0,1.0,,
119,,rl_choice,,html-keyboard-response,119,217038,0.0-1.0-163.0,0,0,27789,,886.0,,,68.0,23.0,23.0,1.0,easy,1500.0,3000.0,1.0,80.0,20.0,80.0,20.0,C,D,/static/Simple_RL/Stimuli/Fractals_stims/C.jpg,/static/Simple_RL/Stimuli/Fractals_stims/D.jpg,1.0,80.0,20.0,80.0,20.0,C,D,132.886,0.886,0.0,
120,,rl_choice_confirmation,,html-keyboard-response,120,217655,0.0-1.0-164.0-0.0,0,0,27789,,,,,,23.0,,,,,,,,,,,,,,,,,,,,,,133.5,0.614,,
121,,isi,,html-keyboard-response,121,220658,0.0-1.0-166.0,0,0,27789,,,,,,,,,,,,,,,,,,,,,,,,,,,,136.5,3.0,,
122,,feedback,,html-keyboard-response,122,221662,0.0-1.0-167.0-0.0,0,0,27789,,,,,,23.0,,,,,,,,,,,,,,,,,,,,,,137.5,1.0,,
123,,iti,,html-keyboard-response,123,223165,0.0-1.0-168.0,0,0,27789,,,,,,,,,,,,,,,,,,,,,,,,,,,,139.0,1.5,,
124,,rl_choice,,html-keyboard-response,124,223911,0.0-1.0-170.0,0,0,27789,,743.0,,,68.0,24.0,24.0,1.0,hard,2000.0,1500.0,0.0,40.0,60.0,40.0,60.0,B,A,/static/Simple_RL/Stimuli/Fractals_stims/B.jpg,/static/Simple_RL/Stimuli/Fractals_stims/A.jpg,1.0,40.0,60.0,40.0,60.0,B,A,139.743,0.743,0.0,
125,,rl_choice_confirmation,,html-keyboard-response,125,224679,0.0-1.0-171.0-0.0,0,0,27789,,,,,,24.0,,,,,,,,,,,,,,,,,,,,,,140.5,0.757,,
126,,isi,,html-keyboard-response,126,226182,0.0-1.0-173.0,0,0,27789,,,,,,,,,,,,,,,,,,,,,,,,,,,,142.0,1.5,,
127,,feedback,,html-keyboard-response,127,227185,0.0-1.0-174.0-0.0,0,0,27789,,,,,,24.0,,,,,,,,,,,,,,,,,,,,,,143.0,1.0,,
128,,iti,,html-keyboard-response,128,229189,0.0-1.0-175.0,0,0,27789,,,,,,,,,,,,,,,,,,,,,,,,,,,,145.0,2.0,,
129,,rl_choice,,html-keyboard-response,129,229885,0.0-1.0-177.0,0,0,27789,,693.0,,,68.0,25.0,25.0,1.0,hard,3000.0,1500.0,1.0,60.0,40.0,40.0,40.0,A,B,/static/Simple_RL/Stimuli/Fractals_stims/A.jpg,/static/Simple_RL/Stimuli/Fractals_stims/B.jpg,1.0,60.0,40.0,40.0,40.0,A,B,145.693,0.693,0.0,
130,,rl_choice_confirmation,,html-keyboard-response,130,230696,0.0-1.0-178.0-0.0,0,0,27789,,,,,,25.0,,,,,,,,,,,,,,,,,,,,,,146.5,0.807,,
131,,isi,,html-keyboard-response,131,232198,0.0-1.0-180.0,0,0,27789,,,,,,,,,,,,,,,,,,,,,,,,,,,,148.0,1.5,,
132,,feedback,,html-keyboard-response,132,233211,0.0-1.0-181.0-0.0,0,0,27789,,,,,,25.0,,,,,,,,,,,,,,,,,,,,,,149.0,1.0,,
133,,iti,,html-keyboard-response,133,236213,0.0-1.0-182.0,0,0,27789,,,,,,,,,,,,,,,,,,,,,,,,,,,,152.0,3.0,,
134,,rl_choice,,html-keyboard-response,134,236866,0.0-1.0-184.0,0,0,27789,,649.0,,,68.0,26.0,26.0,1.0,hard,1000.0,2000.0,0.0,40.0,60.0,40.0,80.0,B,A,/static/Simple_RL/Stimuli/Fractals_stims/B.jpg,/static/Simple_RL/Stimuli/Fractals_stims/A.jpg,1.0,40.0,60.0,40.0,80.0,B,A,152.649,0.649,0.0,
135,,rl_choice_confirmation,,html-keyboard-response,135,237721,0.0-1.0-185.0-0.0,0,0,27789,,,,,,26.0,,,,,,,,,,,,,,,,,,,,,,153.5,0.851,,
136,,isi,,html-keyboard-response,136,239725,0.0-1.0-187.0,0,0,27789,,,,,,,,,,,,,,,,,,,,,,,,,,,,155.5,2.0,,
137,,feedback,,html-keyboard-response,137,240729,0.0-1.0-188.0-0.0,0,0,27789,,,,,,26.0,,,,,,,,,,,,,,,,,,,,,,156.5,1.0,,
138,,iti,,html-keyboard-response,138,241733,0.0-1.0-189.0,0,0,27789,,,,,,,,,,,,,,,,,,,,,,,,,,,,157.5,1.0,,
139,,rl_choice,,html-keyboard-response,139,242402,0.0-1.0-191.0,0,0,27789,,666.0,,,68.0,27.0,27.0,1.0,easy,3000.0,1000.0,1.0,80.0,20.0,80.0,40.0,C,D,/static/Simple_RL/Stimuli/Fractals_stims/C.jpg,/static/Simple_RL/Stimuli/Fractals_stims/D.jpg,1.0,80.0,20.0,80.0,40.0,C,D,158.166,0.666,0.0,
140,,rl_choice_confirmation,,html-keyboard-response,140,243239,0.0-1.0-192.0-0.0,0,0,27789,,,,,,27.0,,,,,,,,,,,,,,,,,,,,,,159.0,0.834,,
141,,isi,,html-keyboard-response,141,244242,0.0-1.0-194.0,0,0,27789,,,,,,,,,,,,,,,,,,,,,,,,,,,,160.0,1.0,,
142,,feedback,,html-keyboard-response,142,245246,0.0-1.0-195.0-0.0,0,0,27789,,,,,,27.0,,,,,,,,,,,,,,,,,,,,,,161.0,1.0,,
143,,iti,,html-keyboard-response,143,248249,0.0-1.0-196.0,0,0,27789,,,,,,,,,,,,,,,,,,,,,,,,,,,,164.0,3.0,,
144,,rl_choice,,html-keyboard-response,144,248911,0.0-1.0-198.0,0,0,27789,,658.0,,,68.0,28.0,28.0,1.0,easy,1000.0,3500.0,1.0,80.0,20.0,60.0,20.0,C,D,/static/Simple_RL/Stimuli/Fractals_stims/C.jpg,/static/Simple_RL/Stimuli/Fractals_stims/D.jpg,1.0,80.0,20.0,60.0,20.0,C,D,164.658,0.658,0.0,
145,,rl_choice_confirmation,,html-keyboard-response,145,249757,0.0-1.0-199.0-0.0,0,0,27789,,,,,,28.0,,,,,,,,,,,,,,,,,,,,,,165.5,0.842,,
146,,isi,,html-keyboard-response,146,253260,0.0-1.0-201.0,0,0,27789,,,,,,,,,,,,,,,,,,,,,,,,,,,,169.0,3.5,,
147,,feedback,,html-keyboard-response,147,254265,0.0-1.0-202.0-0.0,0,0,27789,,,,,,28.0,,,,,,,,,,,,,,,,,,,,,,170.0,1.0,,
148,,iti,,html-keyboard-response,148,255268,0.0-1.0-203.0,0,0,27789,,,,,,,,,,,,,,,,,,,,,,,,,,,,171.0,1.0,,
149,,rl_choice,,html-keyboard-response,149,256016,0.0-1.0-205.0,0,0,27789,,744.0,,,75.0,29.0,29.0,1.0,hard,1500.0,1000.0,0.0,40.0,60.0,60.0,40.0,B,A,/static/Simple_RL/Stimuli/Fractals_stims/B.jpg,/static/Simple_RL/Stimuli/Fractals_stims/A.jpg,0.0,60.0,40.0,40.0,60.0,A,B,171.744,0.744,0.0,
150,,rl_choice_confirmation,,html-keyboard-response,150,256776,0.0-1.0-206.0-0.0,0,0,27789,,,,,,29.0,,,,,,,,,,,,,,,,,,,,,,172.5,0.756,,
151,,isi,,html-keyboard-response,151,257779,0.0-1.0-208.0,0,0,27789,,,,,,,,,,,,,,,,,,,,,,,,,,,,173.5,1.0,,
152,,feedback,,html-keyboard-response,152,258784,0.0-1.0-209.0-0.0,0,0,27789,,,,,,29.0,,,,,,,,,,,,,,,,,,,,,,174.5,1.0,,
153,,iti,,html-keyboard-response,153,260288,0.0-1.0-210.0,0,0,27789,,,,,,,,,,,,,,,,,,,,,,,,,,,,176.0,1.5,,
154,,rl_choice,,html-keyboard-response,154,261096,0.0-1.0-212.0,0,0,27789,,805.0,,,68.0,30.0,30.0,1.0,easy,1000.0,1500.0,1.0,80.0,20.0,100.0,20.0,C,D,/static/Simple_RL/Stimuli/Fractals_stims/C.jpg,/static/Simple_RL/Stimuli/Fractals_stims/D.jpg,1.0,80.0,20.0,100.0,20.0,C,D,176.805,0.805,0.0,
155,,rl_choice_confirmation,,html-keyboard-response,155,261796,0.0-1.0-213.0-0.0,0,0,27789,,,,,,30.0,,,,,,,,,,,,,,,,,,,,,,177.5,0.695,,
156,,isi,,html-keyboard-response,156,263299,0.0-1.0-215.0,0,0,27789,,,,,,,,,,,,,,,,,,,,,,,,,,,,179.0,1.5,,
157,,feedback,,html-keyboard-response,157,264303,0.0-1.0-216.0-0.0,0,0,27789,,,,,,30.0,,,,,,,,,,,,,,,,,,,,,,180.0,1.0,,
158,,iti,,html-keyboard-response,158,265306,0.0-1.0-217.0,0,0,27789,,,,,,,,,,,,,,,,,,,,,,,,,,,,181.0,1.0,,
159,,rl_choice,,html-keyboard-response,159,265981,0.0-1.0-219.0,0,0,27789,,672.0,,,68.0,31.0,31.0,1.0,easy,2000.0,1500.0,0.0,20.0,80.0,40.0,100.0,D,C,/static/Simple_RL/Stimuli/Fractals_stims/D.jpg,/static/Simple_RL/Stimuli/Fractals_stims/C.jpg,1.0,20.0,80.0,40.0,100.0,D,C,181.672,0.672,0.0,
160,,rl_choice_confirmation,,html-keyboard-response,160,266813,0.0-1.0-220.0-0.0,0,0,27789,,,,,,31.0,,,,,,,,,,,,,,,,,,,,,,182.5,0.828,,
161,,isi,,html-keyboard-response,161,268316,0.0-1.0-222.0,0,0,27789,,,,,,,,,,,,,,,,,,,,,,,,,,,,184.0,1.5,,
162,,feedback,,html-keyboard-response,162,269319,0.0-1.0-223.0-0.0,0,0,27789,,,,,,31.0,,,,,,,,,,,,,,,,,,,,,,185.0,1.0,,
163,,iti,,html-keyboard-response,163,271322,0.0-1.0-224.0,0,0,27789,,,,,,,,,,,,,,,,,,,,,,,,,,,,187.0,2.0,,
164,,rl_choice,,html-keyboard-response,164,271949,0.0-1.0-226.0,0,0,27789,,624.0,,,75.0,32.0,32.0,1.0,hard,1500.0,1000.0,0.0,40.0,60.0,40.0,80.0,B,A,/static/Simple_RL/Stimuli/Fractals_stims/B.jpg,/static/Simple_RL/Stimuli/Fractals_stims/A.jpg,0.0,60.0,40.0,80.0,40.0,A,B,187.624,0.624,0.0,
165,,rl_choice_confirmation,,html-keyboard-response,165,272829,0.0-1.0-227.0-0.0,0,0,27789,,,,,,32.0,,,,,,,,,,,,,,,,,,,,,,188.5,0.876,,
166,,isi,,html-keyboard-response,166,273831,0.0-1.0-229.0,0,0,27789,,,,,,,,,,,,,,,,,,,,,,,,,,,,189.5,1.0,,
167,,feedback,,html-keyboard-response,167,274836,0.0-1.0-230.0-0.0,0,0,27789,,,,,,32.0,,,,,,,,,,,,,,,,,,,,,,190.5,1.0,,
168,,iti,,html-keyboard-response,168,276340,0.0-1.0-231.0,0,0,27789,,,,,,,,,,,,,,,,,,,,,,,,,,,,192.0,1.5,,
169,,rl_choice,,html-keyboard-response,169,277656,0.0-1.0-233.0,0,0,27789,,1313.0,,,75.0,33.0,33.0,1.0,easy,1000.0,1000.0,0.0,20.0,80.0,40.0,100.0,D,C,/static/Simple_RL/Stimuli/Fractals_stims/D.jpg,/static/Simple_RL/Stimuli/Fractals_stims/C.jpg,0.0,80.0,20.0,100.0,40.0,C,D,193.313,1.313,0.0,
170,,rl_choice_confirmation,,html-keyboard-response,170,277847,0.0-1.0-234.0-0.0,0,0,27789,,,,,,33.0,,,,,,,,,,,,,,,,,,,,,,193.5,0.187,,
171,,isi,,html-keyboard-response,171,278858,0.0-1.0-236.0,0,0,27789,,,,,,,,,,,,,,,,,,,,,,,,,,,,194.5,1.0,,
172,,feedback,,html-keyboard-response,172,279862,0.0-1.0-237.0-0.0,0,0,27789,,,,,,33.0,,,,,,,,,,,,,,,,,,,,,,195.5,1.0,,
173,,iti,,html-keyboard-response,173,280865,0.0-1.0-238.0,0,0,27789,,,,,,,,,,,,,,,,,,,,,,,,,,,,196.5,1.0,,
174,,rl_choice,,html-keyboard-response,174,281860,0.0-1.0-240.0,0,0,27789,,992.0,,,68.0,34.0,34.0,1.0,easy,3500.0,3000.0,1.0,80.0,20.0,80.0,40.0,C,D,/static/Simple_RL/Stimuli/Fractals_stims/C.jpg,/static/Simple_RL/Stimuli/Fractals_stims/D.jpg,1.0,80.0,20.0,80.0,40.0,C,D,197.492,0.992,0.0,
175,,rl_choice_confirmation,,html-keyboard-response,175,282373,0.0-1.0-241.0-0.0,0,0,27789,,,,,,34.0,,,,,,,,,,,,,,,,,,,,,,198.0,0.508,,
176,,isi,,html-keyboard-response,176,285375,0.0-1.0-243.0,0,0,27789,,,,,,,,,,,,,,,,,,,,,,,,,,,,201.0,3.0,,
177,,feedback,,html-keyboard-response,177,286380,0.0-1.0-244.0-0.0,0,0,27789,,,,,,34.0,,,,,,,,,,,,,,,,,,,,,,202.0,1.0,,
178,,iti,,html-keyboard-response,178,289882,0.0-1.0-245.0,0,0,27789,,,,,,,,,,,,,,,,,,,,,,,,,,,,205.5,3.5,,
179,,rl_choice,,html-keyboard-response,179,290754,0.0-1.0-247.0,0,0,27789,,869.0,,,68.0,35.0,35.0,1.0,easy,1500.0,2000.0,1.0,80.0,20.0,60.0,40.0,C,D,/static/Simple_RL/Stimuli/Fractals_stims/C.jpg,/static/Simple_RL/Stimuli/Fractals_stims/D.jpg,1.0,80.0,20.0,60.0,40.0,C,D,206.369,0.869,0.0,
180,,rl_choice_confirmation,,html-keyboard-response,180,291389,0.0-1.0-248.0-0.0,0,0,27789,,,,,,35.0,,,,,,,,,,,,,,,,,,,,,,207.0,0.631,,
181,,isi,,html-keyboard-response,181,293391,0.0-1.0-250.0,0,0,27789,,,,,,,,,,,,,,,,,,,,,,,,,,,,209.0,2.0,,
182,,feedback,,html-keyboard-response,182,294395,0.0-1.0-251.0-0.0,0,0,27789,,,,,,35.0,,,,,,,,,,,,,,,,,,,,,,210.0,1.0,,
183,,iti,,html-keyboard-response,183,295898,0.0-1.0-252.0,0,0,27789,,,,,,,,,,,,,,,,,,,,,,,,,,,,211.5,1.5,,
184,,rl_choice,,html-keyboard-response,184,296861,0.0-1.0-254.0,0,0,27789,,960.0,,,75.0,36.0,36.0,1.0,easy,1500.0,1500.0,0.0,20.0,80.0,20.0,100.0,D,C,/static/Simple_RL/Stimuli/Fractals_stims/D.jpg,/static/Simple_RL/Stimuli/Fractals_stims/C.jpg,0.0,80.0,20.0,100.0,20.0,C,D,212.46,0.96,0.0,
185,,rl_choice_confirmation,,html-keyboard-response,185,297406,0.0-1.0-255.0-0.0,0,0,27789,,,,,,36.0,,,,,,,,,,,,,,,,,,,,,,213.0,0.54,,
186,,isi,,html-keyboard-response,186,298922,0.0-1.0-257.0,0,0,27789,,,,,,,,,,,,,,,,,,,,,,,,,,,,214.5,1.5,,
187,,feedback,,html-keyboard-response,187,299927,0.0-1.0-258.0-0.0,0,0,27789,,,,,,36.0,,,,,,,,,,,,,,,,,,,,,,215.5,1.0,,
188,,iti,,html-keyboard-response,188,301430,0.0-1.0-259.0,0,0,27789,,,,,,,,,,,,,,,,,,,,,,,,,,,,217.0,1.5,,
189,,rl_choice,,html-keyboard-response,189,302384,0.0-1.0-261.0,0,0,27789,,950.0,,,75.0,37.0,37.0,1.0,hard,2000.0,1000.0,1.0,60.0,40.0,60.0,40.0,A,B,/static/Simple_RL/Stimuli/Fractals_stims/A.jpg,/static/Simple_RL/Stimuli/Fractals_stims/B.jpg,0.0,40.0,60.0,40.0,60.0,B,A,217.95,0.95,0.0,
190,,rl_choice_confirmation,,html-keyboard-response,190,302938,0.0-1.0-262.0-0.0,0,0,27789,,,,,,37.0,,,,,,,,,,,,,,,,,,,,,,218.5,0.55,,
191,,isi,,html-keyboard-response,191,303941,0.0-1.0-264.0,0,0,27789,,,,,,,,,,,,,,,,,,,,,,,,,,,,219.5,1.0,,
192,,feedback,,html-keyboard-response,192,304947,0.0-1.0-265.0-0.0,0,0,27789,,,,,,37.0,,,,,,,,,,,,,,,,,,,,,,220.5,1.0,,
193,,iti,,html-keyboard-response,193,306950,0.0-1.0-266.0,0,0,27789,,,,,,,,,,,,,,,,,,,,,,,,,,,,222.5,2.0,,
194,,rl_choice,,html-keyboard-response,194,307943,0.0-1.0-268.0,0,0,27789,,989.0,,,68.0,38.0,38.0,1.0,hard,1000.0,1500.0,0.0,40.0,60.0,20.0,40.0,B,A,/static/Simple_RL/Stimuli/Fractals_stims/B.jpg,/static/Simple_RL/Stimuli/Fractals_stims/A.jpg,1.0,40.0,60.0,20.0,40.0,B,A,223.489,0.989,0.0,
195,,rl_choice_confirmation,,html-keyboard-response,195,308457,0.0-1.0-269.0-0.0,0,0,27789,,,,,,38.0,,,,,,,,,,,,,,,,,,,,,,224.0,0.511,,
196,,isi,,html-keyboard-response,196,309960,0.0-1.0-271.0,0,0,27789,,,,,,,,,,,,,,,,,,,,,,,,,,,,225.5,1.5,,
197,,feedback,,html-keyboard-response,197,310964,0.0-1.0-272.0-0.0,0,0,27789,,,,,,38.0,,,,,,,,,,,,,,,,,,,,,,226.5,1.0,,
198,,iti,,html-keyboard-response,198,311968,0.0-1.0-273.0,0,0,27789,,,,,,,,,,,,,,,,,,,,,,,,,,,,227.5,1.0,,
199,,rl_choice,,html-keyboard-response,199,312846,0.0-1.0-275.0,0,0,27789,,875.0,,,75.0,39.0,39.0,1.0,easy,1000.0,1000.0,0.0,20.0,80.0,0.0,60.0,D,C,/static/Simple_RL/Stimuli/Fractals_stims/D.jpg,/static/Simple_RL/Stimuli/Fractals_stims/C.jpg,0.0,80.0,20.0,60.0,0.0,C,D,228.375,0.875,0.0,
200,,rl_choice_confirmation,,html-keyboard-response,200,313475,0.0-1.0-276.0-0.0,0,0,27789,,,,,,39.0,,,,,,,,,,,,,,,,,,,,,,229.0,0.625,,
201,,isi,,html-keyboard-response,201,314478,0.0-1.0-278.0,0,0,27789,,,,,,,,,,,,,,,,,,,,,,,,,,,,230.0,1.0,,
202,,feedback,,html-keyboard-response,202,315482,0.0-1.0-279.0-0.0,0,0,27789,,,,,,39.0,,,,,,,,,,,,,,,,,,,,,,231.0,1.0,,
203,,iti,,html-keyboard-response,203,316485,0.0-1.0-280.0,0,0,27789,,,,,,,,,,,,,,,,,,,,,,,,,,,,232.0,1.0,,
204,,block_over,,html-keyboard-response,204,329784,0.0-1.0-281.0-0.0,0,0,27789,,13296.0,,,68.0,39.0,,,,,,,,,,,,,,,,,,,,,,,,,
205,,start_run,,html-keyboard-response,205,333031,0.0-1.0-281.0-1.0,0,0,27789,,3244.0,,,84.0,,,,,,,,,,,,,,,,,,,,,,,,,,
206,,rl_choice,,html-keyboard-response,206,334222,0.0-1.0-282.0,0,0,27789,,1188.0,,,68.0,40.0,40.0,2.0,easy,1500.0,2000.0,1.0,80.0,20.0,60.0,20.0,C,D,/static/Simple_RL/Stimuli/Fractals_stims/C.jpg,/static/Simple_RL/Stimuli/Fractals_stims/D.jpg,1.0,80.0,20.0,60.0,20.0,C,D,1.188,1.188,0.0,
207,,rl_choice_confirmation,,html-keyboard-response,207,334538,0.0-1.0-283.0-0.0,0,0,27789,,,,,,40.0,,,,,,,,,,,,,,,,,,,,,,1.5,0.312,,
208,,isi,,html-keyboard-response,208,336542,0.0-1.0-285.0,0,0,27789,,,,,,,,,,,,,,,,,,,,,,,,,,,,3.5,2.0,,
209,,feedback,,html-keyboard-response,209,337546,0.0-1.0-286.0-0.0,0,0,27789,,,,,,40.0,,,,,,,,,,,,,,,,,,,,,,4.5,1.0,,
210,,iti,,html-keyboard-response,210,339049,0.0-1.0-287.0,0,0,27789,,,,,,,,,,,,,,,,,,,,,,,,,,,,6.0,1.5,,
211,,rl_choice,,html-keyboard-response,211,340250,0.0-1.0-289.0,0,0,27789,,1197.0,,,68.0,41.0,41.0,2.0,hard,1000.0,2000.0,0.0,40.0,60.0,60.0,60.0,B,A,/static/Simple_RL/Stimuli/Fractals_stims/B.jpg,/static/Simple_RL/Stimuli/Fractals_stims/A.jpg,1.0,40.0,60.0,60.0,60.0,B,A,7.197,1.197,0.0,
212,,rl_choice_confirmation,,html-keyboard-response,212,340557,0.0-1.0-290.0-0.0,0,0,27789,,,,,,41.0,,,,,,,,,,,,,,,,,,,,,,7.5,0.303,,
213,,isi,,html-keyboard-response,213,342560,0.0-1.0-292.0,0,0,27789,,,,,,,,,,,,,,,,,,,,,,,,,,,,9.5,2.0,,
214,,feedback,,html-keyboard-response,214,343565,0.0-1.0-293.0-0.0,0,0,27789,,,,,,41.0,,,,,,,,,,,,,,,,,,,,,,10.5,1.0,,
215,,iti,,html-keyboard-response,215,344569,0.0-1.0-294.0,0,0,27789,,,,,,,,,,,,,,,,,,,,,,,,,,,,11.5,1.0,,
216,,rl_choice,,html-keyboard-response,216,345131,0.0-1.0-296.0,0,0,27789,,559.0,,,68.0,42.0,42.0,2.0,hard,1500.0,1000.0,0.0,40.0,60.0,20.0,80.0,B,A,/static/Simple_RL/Stimuli/Fractals_stims/B.jpg,/static/Simple_RL/Stimuli/Fractals_stims/A.jpg,1.0,40.0,60.0,20.0,80.0,B,A,12.059,0.559,0.0,
217,,rl_choice_confirmation,,html-keyboard-response,217,346076,0.0-1.0-297.0-0.0,0,0,27789,,,,,,42.0,,,,,,,,,,,,,,,,,,,,,,13.0,0.941,,
218,,isi,,html-keyboard-response,218,347079,0.0-1.0-299.0,0,0,27789,,,,,,,,,,,,,,,,,,,,,,,,,,,,14.0,1.0,,
219,,feedback,,html-keyboard-response,219,348083,0.0-1.0-300.0-0.0,0,0,27789,,,,,,42.0,,,,,,,,,,,,,,,,,,,,,,15.0,1.0,,
220,,iti,,html-keyboard-response,220,349586,0.0-1.0-301.0,0,0,27789,,,,,,,,,,,,,,,,,,,,,,,,,,,,16.5,1.5,,
221,,rl_choice,,html-keyboard-response,221,350055,0.0-1.0-303.0,0,0,27789,,466.0,,,75.0,43.0,43.0,2.0,hard,1000.0,2000.0,0.0,40.0,60.0,20.0,80.0,B,A,/static/Simple_RL/Stimuli/Fractals_stims/B.jpg,/static/Simple_RL/Stimuli/Fractals_stims/A.jpg,0.0,60.0,40.0,80.0,20.0,A,B,16.966,0.466,0.0,
222,,rl_choice_confirmation,,html-keyboard-response,222,351093,0.0-1.0-304.0-0.0,0,0,27789,,,,,,43.0,,,,,,,,,,,,,,,,,,,,,,18.0,1.034,,
223,,isi,,html-keyboard-response,223,353097,0.0-1.0-306.0,0,0,27789,,,,,,,,,,,,,,,,,,,,,,,,,,,,20.0,2.0,,
224,,feedback,,html-keyboard-response,224,354100,0.0-1.0-307.0-0.0,0,0,27789,,,,,,43.0,,,,,,,,,,,,,,,,,,,,,,21.0,1.0,,
225,,iti,,html-keyboard-response,225,355105,0.0-1.0-308.0,0,0,27789,,,,,,,,,,,,,,,,,,,,,,,,,,,,22.0,1.0,,
226,,rl_choice,,html-keyboard-response,226,355543,0.0-1.0-310.0,0,0,27789,,435.0,,,75.0,44.0,44.0,2.0,hard,1000.0,1000.0,0.0,40.0,60.0,40.0,40.0,B,A,/static/Simple_RL/Stimuli/Fractals_stims/B.jpg,/static/Simple_RL/Stimuli/Fractals_stims/A.jpg,0.0,60.0,40.0,40.0,40.0,A,B,22.435,0.435,0.0,
227,,rl_choice_confirmation,,html-keyboard-response,227,356612,0.0-1.0-311.0-0.0,0,0,27789,,,,,,44.0,,,,,,,,,,,,,,,,,,,,,,23.5,1.065,,
228,,isi,,html-keyboard-response,228,357615,0.0-1.0-313.0,0,0,27789,,,,,,,,,,,,,,,,,,,,,,,,,,,,24.5,1.0,,
229,,feedback,,html-keyboard-response,229,358620,0.0-1.0-314.0-0.0,0,0,27789,,,,,,44.0,,,,,,,,,,,,,,,,,,,,,,25.5,1.0,,
230,,iti,,html-keyboard-response,230,359625,0.0-1.0-315.0,0,0,27789,,,,,,,,,,,,,,,,,,,,,,,,,,,,26.5,1.0,,
231,,rl_choice,,html-keyboard-response,231,360145,0.0-1.0-317.0,0,0,27789,,516.0,,,68.0,45.0,45.0,2.0,hard,2000.0,1500.0,0.0,40.0,60.0,20.0,40.0,B,A,/static/Simple_RL/Stimuli/Fractals_stims/B.jpg,/static/Simple_RL/Stimuli/Fractals_stims/A.jpg,1.0,40.0,60.0,20.0,40.0,B,A,27.016,0.516,0.0,
232,,rl_choice_confirmation,,html-keyboard-response,232,361133,0.0-1.0-318.0-0.0,0,0,27789,,,,,,45.0,,,,,,,,,,,,,,,,,,,,,,28.0,0.984,,
233,,isi,,html-keyboard-response,233,362636,0.0-1.0-320.0,0,0,27789,,,,,,,,,,,,,,,,,,,,,,,,,,,,29.5,1.5,,
234,,feedback,,html-keyboard-response,234,363640,0.0-1.0-321.0-0.0,0,0,27789,,,,,,45.0,,,,,,,,,,,,,,,,,,,,,,30.5,1.0,,
235,,iti,,html-keyboard-response,235,365643,0.0-1.0-322.0,0,0,27789,,,,,,,,,,,,,,,,,,,,,,,,,,,,32.5,2.0,,
236,,rl_choice,,html-keyboard-response,236,366397,0.0-1.0-324.0,0,0,27789,,751.0,,,75.0,46.0,46.0,2.0,easy,1500.0,3000.0,0.0,20.0,80.0,0.0,80.0,D,C,/static/Simple_RL/Stimuli/Fractals_stims/D.jpg,/static/Simple_RL/Stimuli/Fractals_stims/C.jpg,0.0,80.0,20.0,80.0,0.0,C,D,33.251,0.751,0.0,
237,,rl_choice_confirmation,,html-keyboard-response,237,367151,0.0-1.0-325.0-0.0,0,0,27789,,,,,,46.0,,,,,,,,,,,,,,,,,,,,,,34.0,0.749,,
238,,isi,,html-keyboard-response,238,370155,0.0-1.0-327.0,0,0,27789,,,,,,,,,,,,,,,,,,,,,,,,,,,,37.0,3.0,,
239,,feedback,,html-keyboard-response,239,371160,0.0-1.0-328.0-0.0,0,0,27789,,,,,,46.0,,,,,,,,,,,,,,,,,,,,,,38.0,1.0,,
240,,iti,,html-keyboard-response,240,372663,0.0-1.0-329.0,0,0,27789,,,,,,,,,,,,,,,,,,,,,,,,,,,,39.5,1.5,,
241,,rl_choice,,html-keyboard-response,241,373316,0.0-1.0-331.0,0,0,27789,,650.0,,,75.0,47.0,47.0,2.0,easy,1500.0,1000.0,0.0,20.0,80.0,20.0,80.0,D,C,/static/Simple_RL/Stimuli/Fractals_stims/D.jpg,/static/Simple_RL/Stimuli/Fractals_stims/C.jpg,0.0,80.0,20.0,80.0,20.0,C,D,40.15,0.65,0.0,
242,,rl_choice_confirmation,,html-keyboard-response,242,374171,0.0-1.0-332.0-0.0,0,0,27789,,,,,,47.0,,,,,,,,,,,,,,,,,,,,,,41.0,0.85,,
243,,isi,,html-keyboard-response,243,375174,0.0-1.0-334.0,0,0,27789,,,,,,,,,,,,,,,,,,,,,,,,,,,,42.0,1.0,,
244,,feedback,,html-keyboard-response,244,376178,0.0-1.0-335.0-0.0,0,0,27789,,,,,,47.0,,,,,,,,,,,,,,,,,,,,,,43.0,1.0,,
245,,iti,,html-keyboard-response,245,377681,0.0-1.0-336.0,0,0,27789,,,,,,,,,,,,,,,,,,,,,,,,,,,,44.5,1.5,,
246,,rl_choice,,html-keyboard-response,246,378200,0.0-1.0-338.0,0,0,27789,,516.0,,,75.0,48.0,48.0,2.0,easy,2000.0,1000.0,1.0,80.0,20.0,80.0,20.0,C,D,/static/Simple_RL/Stimuli/Fractals_stims/C.jpg,/static/Simple_RL/Stimuli/Fractals_stims/D.jpg,0.0,20.0,80.0,20.0,80.0,D,C,45.016,0.516,0.0,
247,,rl_choice_confirmation,,html-keyboard-response,247,379189,0.0-1.0-339.0-0.0,0,0,27789,,,,,,48.0,,,,,,,,,,,,,,,,,,,,,,46.0,0.984,,
248,,isi,,html-keyboard-response,248,380193,0.0-1.0-341.0,0,0,27789,,,,,,,,,,,,,,,,,,,,,,,,,,,,47.0,1.0,,
249,,feedback,,html-keyboard-response,249,381197,0.0-1.0-342.0-0.0,0,0,27789,,,,,,48.0,,,,,,,,,,,,,,,,,,,,,,48.0,1.0,,
250,,iti,,html-keyboard-response,250,383200,0.0-1.0-343.0,0,0,27789,,,,,,,,,,,,,,,,,,,,,,,,,,,,50.0,2.0,,
251,,rl_choice,,html-keyboard-response,251,384306,0.0-1.0-345.0,0,0,27789,,1102.0,,,75.0,49.0,49.0,2.0,hard,1500.0,2000.0,0.0,40.0,60.0,60.0,60.0,B,A,/static/Simple_RL/Stimuli/Fractals_stims/B.jpg,/static/Simple_RL/Stimuli/Fractals_stims/A.jpg,0.0,60.0,40.0,60.0,60.0,A,B,51.102,1.102,0.0,
252,,rl_choice_confirmation,,html-keyboard-response,252,384709,0.0-1.0-346.0-0.0,0,0,27789,,,,,,49.0,,,,,,,,,,,,,,,,,,,,,,51.5,0.398,,
253,,isi,,html-keyboard-response,253,386711,0.0-1.0-348.0,0,0,27789,,,,,,,,,,,,,,,,,,,,,,,,,,,,53.5,2.0,,
254,,feedback,,html-keyboard-response,254,387715,0.0-1.0-349.0-0.0,0,0,27789,,,,,,49.0,,,,,,,,,,,,,,,,,,,,,,54.5,1.0,,
255,,iti,,html-keyboard-response,255,389227,0.0-1.0-350.0,0,0,27789,,,,,,,,,,,,,,,,,,,,,,,,,,,,56.0,1.5,,
256,,rl_choice,,html-keyboard-response,256,390257,0.0-1.0-352.0,0,0,27789,,1027.0,,,75.0,50.0,50.0,2.0,easy,1000.0,3500.0,0.0,20.0,80.0,0.0,100.0,D,C,/static/Simple_RL/Stimuli/Fractals_stims/D.jpg,/static/Simple_RL/Stimuli/Fractals_stims/C.jpg,0.0,80.0,20.0,100.0,0.0,C,D,57.027,1.027,0.0,
257,,rl_choice_confirmation,,html-keyboard-response,257,390734,0.0-1.0-353.0-0.0,0,0,27789,,,,,,50.0,,,,,,,,,,,,,,,,,,,,,,57.5,0.473,,
258,,isi,,html-keyboard-response,258,394237,0.0-1.0-355.0,0,0,27789,,,,,,,,,,,,,,,,,,,,,,,,,,,,61.0,3.5,,
259,,feedback,,html-keyboard-response,259,395242,0.0-1.0-356.0-0.0,0,0,27789,,,,,,50.0,,,,,,,,,,,,,,,,,,,,,,62.0,1.0,,
260,,iti,,html-keyboard-response,260,396245,0.0-1.0-357.0,0,0,27789,,,,,,,,,,,,,,,,,,,,,,,,,,,,63.0,1.0,,
261,,rl_choice,,html-keyboard-response,261,397125,0.0-1.0-359.0,0,0,27789,,877.0,,,68.0,51.0,51.0,2.0,easy,1500.0,1000.0,1.0,80.0,20.0,60.0,20.0,C,D,/static/Simple_RL/Stimuli/Fractals_stims/C.jpg,/static/Simple_RL/Stimuli/Fractals_stims/D.jpg,1.0,80.0,20.0,60.0,20.0,C,D,63.877,0.877,0.0,
262,,rl_choice_confirmation,,html-keyboard-response,262,397752,0.0-1.0-360.0-0.0,0,0,27789,,,,,,51.0,,,,,,,,,,,,,,,,,,,,,,64.5,0.623,,
263,,isi,,html-keyboard-response,263,398755,0.0-1.0-362.0,0,0,27789,,,,,,,,,,,,,,,,,,,,,,,,,,,,65.5,1.0,,
264,,feedback,,html-keyboard-response,264,399759,0.0-1.0-363.0-0.0,0,0,27789,,,,,,51.0,,,,,,,,,,,,,,,,,,,,,,66.5,1.0,,
265,,iti,,html-keyboard-response,265,401263,0.0-1.0-364.0,0,0,27789,,,,,,,,,,,,,,,,,,,,,,,,,,,,68.0,1.5,,
266,,rl_choice,,html-keyboard-response,266,401950,0.0-1.0-366.0,0,0,27789,,684.0,,,75.0,52.0,52.0,2.0,hard,2000.0,1500.0,0.0,40.0,60.0,20.0,80.0,B,A,/static/Simple_RL/Stimuli/Fractals_stims/B.jpg,/static/Simple_RL/Stimuli/Fractals_stims/A.jpg,0.0,60.0,40.0,80.0,20.0,A,B,68.684,0.684,0.0,
267,,rl_choice_confirmation,,html-keyboard-response,267,402770,0.0-1.0-367.0-0.0,0,0,27789,,,,,,52.0,,,,,,,,,,,,,,,,,,,,,,69.5,0.816,,
268,,isi,,html-keyboard-response,268,404274,0.0-1.0-369.0,0,0,27789,,,,,,,,,,,,,,,,,,,,,,,,,,,,71.0,1.5,,
269,,feedback,,html-keyboard-response,269,405278,0.0-1.0-370.0-0.0,0,0,27789,,,,,,52.0,,,,,,,,,,,,,,,,,,,,,,72.0,1.0,,
270,,iti,,html-keyboard-response,270,407281,0.0-1.0-371.0,0,0,27789,,,,,,,,,,,,,,,,,,,,,,,,,,,,74.0,2.0,,
271,,rl_choice,,html-keyboard-response,271,408060,0.0-1.0-373.0,0,0,27789,,777.0,,,68.0,53.0,53.0,2.0,hard,3000.0,1500.0,0.0,40.0,60.0,20.0,40.0,B,A,/static/Simple_RL/Stimuli/Fractals_stims/B.jpg,/static/Simple_RL/Stimuli/Fractals_stims/A.jpg,1.0,40.0,60.0,20.0,40.0,B,A,74.777,0.777,0.0,
272,,rl_choice_confirmation,,html-keyboard-response,272,408787,0.0-1.0-374.0-0.0,0,0,27789,,,,,,53.0,,,,,,,,,,,,,,,,,,,,,,75.5,0.723,,
273,,isi,,html-keyboard-response,273,410290,0.0-1.0-376.0,0,0,27789,,,,,,,,,,,,,,,,,,,,,,,,,,,,77.0,1.5,,
274,,feedback,,html-keyboard-response,274,411295,0.0-1.0-377.0-0.0,0,0,27789,,,,,,53.0,,,,,,,,,,,,,,,,,,,,,,78.0,1.0,,
275,,iti,,html-keyboard-response,275,414298,0.0-1.0-378.0,0,0,27789,,,,,,,,,,,,,,,,,,,,,,,,,,,,81.0,3.0,,
276,,rl_choice,,html-keyboard-response,276,415165,0.0-1.0-380.0,0,0,27789,,864.0,,,75.0,54.0,54.0,2.0,easy,3000.0,1500.0,0.0,20.0,80.0,20.0,100.0,D,C,/static/Simple_RL/Stimuli/Fractals_stims/D.jpg,/static/Simple_RL/Stimuli/Fractals_stims/C.jpg,0.0,80.0,20.0,100.0,20.0,C,D,81.864,0.864,0.0,
277,,rl_choice_confirmation,,html-keyboard-response,277,415807,0.0-1.0-381.0-0.0,0,0,27789,,,,,,54.0,,,,,,,,,,,,,,,,,,,,,,82.5,0.636,,
278,,isi,,html-keyboard-response,278,417310,0.0-1.0-383.0,0,0,27789,,,,,,,,,,,,,,,,,,,,,,,,,,,,84.0,1.5,,
279,,feedback,,html-keyboard-response,279,418315,0.0-1.0-384.0-0.0,0,0,27789,,,,,,54.0,,,,,,,,,,,,,,,,,,,,,,85.0,1.0,,
280,,iti,,html-keyboard-response,280,421319,0.0-1.0-385.0,0,0,27789,,,,,,,,,,,,,,,,,,,,,,,,,,,,88.0,3.0,,
281,,rl_choice,,html-keyboard-response,281,422237,0.0-1.0-387.0,0,0,27789,,915.0,,,75.0,55.0,55.0,2.0,easy,1500.0,1500.0,1.0,80.0,20.0,80.0,20.0,C,D,/static/Simple_RL/Stimuli/Fractals_stims/C.jpg,/static/Simple_RL/Stimuli/Fractals_stims/D.jpg,0.0,20.0,80.0,20.0,80.0,D,C,88.915,0.915,0.0,
282,,rl_choice_confirmation,,html-keyboard-response,282,422826,0.0-1.0-388.0-0.0,0,0,27789,,,,,,55.0,,,,,,,,,,,,,,,,,,,,,,89.5,0.585,,
283,,isi,,html-keyboard-response,283,424330,0.0-1.0-390.0,0,0,27789,,,,,,,,,,,,,,,,,,,,,,,,,,,,91.0,1.5,,
284,,feedback,,html-keyboard-response,284,425334,0.0-1.0-391.0-0.0,0,0,27789,,,,,,55.0,,,,,,,,,,,,,,,,,,,,,,92.0,1.0,,
285,,iti,,html-keyboard-response,285,426837,0.0-1.0-392.0,0,0,27789,,,,,,,,,,,,,,,,,,,,,,,,,,,,93.5,1.5,,
286,,rl_choice,,html-keyboard-response,286,428006,0.0-1.0-394.0,0,0,27789,,1166.0,,,75.0,56.0,56.0,2.0,easy,2000.0,2000.0,0.0,20.0,80.0,40.0,80.0,D,C,/static/Simple_RL/Stimuli/Fractals_stims/D.jpg,/static/Simple_RL/Stimuli/Fractals_stims/C.jpg,0.0,80.0,20.0,80.0,40.0,C,D,94.666,1.166,0.0,
287,,rl_choice_confirmation,,html-keyboard-response,287,428344,0.0-1.0-395.0-0.0,0,0,27789,,,,,,56.0,,,,,,,,,,,,,,,,,,,,,,95.0,0.334,,
288,,isi,,html-keyboard-response,288,430347,0.0-1.0-397.0,0,0,27789,,,,,,,,,,,,,,,,,,,,,,,,,,,,97.0,2.0,,
289,,feedback,,html-keyboard-response,289,431351,0.0-1.0-398.0-0.0,0,0,27789,,,,,,56.0,,,,,,,,,,,,,,,,,,,,,,98.0,1.0,,
290,,iti,,html-keyboard-response,290,433354,0.0-1.0-399.0,0,0,27789,,,,,,,,,,,,,,,,,,,,,,,,,,,,100.0,2.0,,
291,,rl_choice,,html-keyboard-response,291,434367,0.0-1.0-401.0,0,0,27789,,1010.0,,,75.0,57.0,57.0,2.0,easy,1000.0,1000.0,0.0,20.0,80.0,20.0,80.0,D,C,/static/Simple_RL/Stimuli/Fractals_stims/D.jpg,/static/Simple_RL/Stimuli/Fractals_stims/C.jpg,0.0,80.0,20.0,80.0,20.0,C,D,101.01,1.01,0.0,
292,,rl_choice_confirmation,,html-keyboard-response,292,434861,0.0-1.0-402.0-0.0,0,0,27789,,,,,,57.0,,,,,,,,,,,,,,,,,,,,,,101.5,0.49,,
293,,isi,,html-keyboard-response,293,435865,0.0-1.0-404.0,0,0,27789,,,,,,,,,,,,,,,,,,,,,,,,,,,,102.5,1.0,,
294,,feedback,,html-keyboard-response,294,436869,0.0-1.0-405.0-0.0,0,0,27789,,,,,,57.0,,,,,,,,,,,,,,,,,,,,,,103.5,1.0,,
295,,iti,,html-keyboard-response,295,437873,0.0-1.0-406.0,0,0,27789,,,,,,,,,,,,,,,,,,,,,,,,,,,,104.5,1.0,,
296,,rl_choice,,html-keyboard-response,296,438714,0.0-1.0-408.0,0,0,27789,,838.0,,,75.0,58.0,58.0,2.0,easy,1000.0,1000.0,0.0,20.0,80.0,20.0,60.0,D,C,/static/Simple_RL/Stimuli/Fractals_stims/D.jpg,/static/Simple_RL/Stimuli/Fractals_stims/C.jpg,0.0,80.0,20.0,60.0,20.0,C,D,105.338,0.838,0.0,
297,,rl_choice_confirmation,,html-keyboard-response,297,439380,0.0-1.0-409.0-0.0,0,0,27789,,,,,,58.0,,,,,,,,,,,,,,,,,,,,,,106.0,0.662,,
298,,isi,,html-keyboard-response,298,440383,0.0-1.0-411.0,0,0,27789,,,,,,,,,,,,,,,,,,,,,,,,,,,,107.0,1.0,,
299,,feedback,,html-keyboard-response,299,441388,0.0-1.0-412.0-0.0,0,0,27789,,,,,,58.0,,,,,,,,,,,,,,,,,,,,,,108.0,1.0,,
300,,iti,,html-keyboard-response,300,442391,0.0-1.0-413.0,0,0,27789,,,,,,,,,,,,,,,,,,,,,,,,,,,,109.0,1.0,,
301,,rl_choice,,html-keyboard-response,301,443347,0.0-1.0-415.0,0,0,27789,,952.0,,,75.0,59.0,59.0,2.0,hard,1500.0,1000.0,1.0,60.0,40.0,80.0,40.0,A,B,/static/Simple_RL/Stimuli/Fractals_stims/A.jpg,/static/Simple_RL/Stimuli/Fractals_stims/B.jpg,0.0,40.0,60.0,40.0,80.0,B,A,109.952,0.952,0.0,
302,,rl_choice_confirmation,,html-keyboard-response,302,443900,0.0-1.0-416.0-0.0,0,0,27789,,,,,,59.0,,,,,,,,,,,,,,,,,,,,,,110.5,0.548,,
303,,isi,,html-keyboard-response,303,444903,0.0-1.0-418.0,0,0,27789,,,,,,,,,,,,,,,,,,,,,,,,,,,,111.5,1.0,,
304,,feedback,,html-keyboard-response,304,445907,0.0-1.0-419.0-0.0,0,0,27789,,,,,,59.0,,,,,,,,,,,,,,,,,,,,,,112.5,1.0,,
305,,iti,,html-keyboard-response,305,447411,0.0-1.0-420.0,0,0,27789,,,,,,,,,,,,,,,,,,,,,,,,,,,,114.0,1.5,,
306,,rl_choice,,html-keyboard-response,306,447985,0.0-1.0-422.0,0,0,27789,,570.0,,,68.0,60.0,60.0,2.0,hard,1500.0,1000.0,1.0,60.0,40.0,40.0,40.0,A,B,/static/Simple_RL/Stimuli/Fractals_stims/A.jpg,/static/Simple_RL/Stimuli/Fractals_stims/B.jpg,1.0,60.0,40.0,40.0,40.0,A,B,114.57,0.57,0.0,
307,,rl_choice_confirmation,,html-keyboard-response,307,448920,0.0-1.0-423.0-0.0,0,0,27789,,,,,,60.0,,,,,,,,,,,,,,,,,,,,,,115.5,0.93,,
308,,isi,,html-keyboard-response,308,449923,0.0-1.0-425.0,0,0,27789,,,,,,,,,,,,,,,,,,,,,,,,,,,,116.5,1.0,,
309,,feedback,,html-keyboard-response,309,450928,0.0-1.0-426.0-0.0,0,0,27789,,,,,,60.0,,,,,,,,,,,,,,,,,,,,,,117.5,1.0,,
310,,iti,,html-keyboard-response,310,452431,0.0-1.0-427.0,0,0,27789,,,,,,,,,,,,,,,,,,,,,,,,,,,,119.0,1.5,,
311,,rl_choice,,html-keyboard-response,311,452858,0.0-1.0-429.0,0,0,27789,,424.0,,,68.0,61.0,61.0,2.0,hard,1000.0,1000.0,1.0,60.0,40.0,40.0,60.0,A,B,/static/Simple_RL/Stimuli/Fractals_stims/A.jpg,/static/Simple_RL/Stimuli/Fractals_stims/B.jpg,1.0,60.0,40.0,40.0,60.0,A,B,119.424,0.424,0.0,
312,,rl_choice_confirmation,,html-keyboard-response,312,453939,0.0-1.0-430.0-0.0,0,0,27789,,,,,,61.0,,,,,,,,,,,,,,,,,,,,,,120.5,1.076,,
313,,isi,,html-keyboard-response,313,454942,0.0-1.0-432.0,0,0,27789,,,,,,,,,,,,,,,,,,,,,,,,,,,,121.5,1.0,,
314,,feedback,,html-keyboard-response,314,455946,0.0-1.0-433.0-0.0,0,0,27789,,,,,,61.0,,,,,,,,,,,,,,,,,,,,,,122.5,1.0,,
315,,iti,,html-keyboard-response,315,456949,0.0-1.0-434.0,0,0,27789,,,,,,,,,,,,,,,,,,,,,,,,,,,,123.5,1.0,,
316,,rl_choice,,html-keyboard-response,316,457698,0.0-1.0-436.0,0,0,27789,,746.0,,,68.0,62.0,62.0,2.0,hard,1000.0,3000.0,1.0,60.0,40.0,60.0,20.0,A,B,/static/Simple_RL/Stimuli/Fractals_stims/A.jpg,/static/Simple_RL/Stimuli/Fractals_stims/B.jpg,1.0,60.0,40.0,60.0,20.0,A,B,124.246,0.746,0.0,
317,,rl_choice_confirmation,,html-keyboard-response,317,458457,0.0-1.0-437.0-0.0,0,0,27789,,,,,,62.0,,,,,,,,,,,,,,,,,,,,,,125.0,0.754,,
318,,isi,,html-keyboard-response,318,461460,0.0-1.0-439.0,0,0,27789,,,,,,,,,,,,,,,,,,,,,,,,,,,,128.0,3.0,,
319,,feedback,,html-keyboard-response,319,462464,0.0-1.0-440.0-0.0,0,0,27789,,,,,,62.0,,,,,,,,,,,,,,,,,,,,,,129.0,1.0,,
320,,iti,,html-keyboard-response,320,463467,0.0-1.0-441.0,0,0,27789,,,,,,,,,,,,,,,,,,,,,,,,,,,,130.0,1.0,,
321,,rl_choice,,html-keyboard-response,321,464461,0.0-1.0-443.0,0,0,27789,,991.0,,,75.0,63.0,63.0,2.0,easy,2000.0,1500.0,0.0,20.0,80.0,20.0,60.0,D,C,/static/Simple_RL/Stimuli/Fractals_stims/D.jpg,/static/Simple_RL/Stimuli/Fractals_stims/C.jpg,0.0,80.0,20.0,60.0,20.0,C,D,130.991,0.991,0.0,
322,,rl_choice_confirmation,,html-keyboard-response,322,464974,0.0-1.0-444.0-0.0,0,0,27789,,,,,,63.0,,,,,,,,,,,,,,,,,,,,,,131.5,0.509,,
323,,isi,,html-keyboard-response,323,466476,0.0-1.0-446.0,0,0,27789,,,,,,,,,,,,,,,,,,,,,,,,,,,,133.0,1.5,,
324,,feedback,,html-keyboard-response,324,467479,0.0-1.0-447.0-0.0,0,0,27789,,,,,,63.0,,,,,,,,,,,,,,,,,,,,,,134.0,1.0,,
325,,iti,,html-keyboard-response,325,469482,0.0-1.0-448.0,0,0,27789,,,,,,,,,,,,,,,,,,,,,,,,,,,,136.0,2.0,,
326,,rl_choice,,html-keyboard-response,326,470232,0.0-1.0-450.0,0,0,27789,,747.0,,,75.0,64.0,64.0,2.0,easy,2000.0,1000.0,1.0,80.0,20.0,100.0,20.0,C,D,/static/Simple_RL/Stimuli/Fractals_stims/C.jpg,/static/Simple_RL/Stimuli/Fractals_stims/D.jpg,0.0,20.0,80.0,20.0,100.0,D,C,136.747,0.747,0.0,
327,,rl_choice_confirmation,,html-keyboard-response,327,470990,0.0-1.0-451.0-0.0,0,0,27789,,,,,,64.0,,,,,,,,,,,,,,,,,,,,,,137.5,0.753,,
328,,isi,,html-keyboard-response,328,471993,0.0-1.0-453.0,0,0,27789,,,,,,,,,,,,,,,,,,,,,,,,,,,,138.5,1.0,,
329,,feedback,,html-keyboard-response,329,472996,0.0-1.0-454.0-0.0,0,0,27789,,,,,,64.0,,,,,,,,,,,,,,,,,,,,,,139.5,1.0,,
330,,iti,,html-keyboard-response,330,475000,0.0-1.0-455.0,0,0,27789,,,,,,,,,,,,,,,,,,,,,,,,,,,,141.5,2.0,,
331,,rl_choice,,html-keyboard-response,331,475882,0.0-1.0-457.0,0,0,27789,,879.0,,,68.0,65.0,65.0,2.0,hard,2000.0,1500.0,1.0,60.0,40.0,60.0,40.0,A,B,/static/Simple_RL/Stimuli/Fractals_stims/A.jpg,/static/Simple_RL/Stimuli/Fractals_stims/B.jpg,1.0,60.0,40.0,60.0,40.0,A,B,142.379,0.879,0.0,
332,,rl_choice_confirmation,,html-keyboard-response,332,476508,0.0-1.0-458.0-0.0,0,0,27789,,,,,,65.0,,,,,,,,,,,,,,,,,,,,,,143.0,0.621,,
333,,isi,,html-keyboard-response,333,478011,0.0-1.0-460.0,0,0,27789,,,,,,,,,,,,,,,,,,,,,,,,,,,,144.5,1.5,,
334,,feedback,,html-keyboard-response,334,479015,0.0-1.0-461.0-0.0,0,0,27789,,,,,,65.0,,,,,,,,,,,,,,,,,,,,,,145.5,1.0,,
335,,iti,,html-keyboard-response,335,481018,0.0-1.0-462.0,0,0,27789,,,,,,,,,,,,,,,,,,,,,,,,,,,,147.5,2.0,,
336,,rl_choice,,html-keyboard-response,336,481788,0.0-1.0-464.0,0,0,27789,,768.0,,,68.0,66.0,66.0,2.0,hard,3000.0,1000.0,1.0,60.0,40.0,60.0,20.0,A,B,/static/Simple_RL/Stimuli/Fractals_stims/A.jpg,/static/Simple_RL/Stimuli/Fractals_stims/B.jpg,1.0,60.0,40.0,60.0,20.0,A,B,148.268,0.768,0.0,
337,,rl_choice_confirmation,,html-keyboard-response,337,482523,0.0-1.0-465.0-0.0,0,0,27789,,,,,,66.0,,,,,,,,,,,,,,,,,,,,,,149.0,0.732,,
338,,isi,,html-keyboard-response,338,483538,0.0-1.0-467.0,0,0,27789,,,,,,,,,,,,,,,,,,,,,,,,,,,,150.0,1.0,,
339,,feedback,,html-keyboard-response,339,484541,0.0-1.0-468.0-0.0,0,0,27789,,,,,,66.0,,,,,,,,,,,,,,,,,,,,,,151.0,1.0,,
340,,iti,,html-keyboard-response,340,487544,0.0-1.0-469.0,0,0,27789,,,,,,,,,,,,,,,,,,,,,,,,,,,,154.0,3.0,,
341,,rl_choice,,html-keyboard-response,341,488426,0.0-1.0-471.0,0,0,27789,,879.0,,,68.0,67.0,67.0,2.0,easy,3500.0,2000.0,1.0,80.0,20.0,60.0,40.0,C,D,/static/Simple_RL/Stimuli/Fractals_stims/C.jpg,/static/Simple_RL/Stimuli/Fractals_stims/D.jpg,1.0,80.0,20.0,60.0,40.0,C,D,154.879,0.879,0.0,
342,,rl_choice_confirmation,,html-keyboard-response,342,489052,0.0-1.0-472.0-0.0,0,0,27789,,,,,,67.0,,,,,,,,,,,,,,,,,,,,,,155.5,0.621,,
343,,isi,,html-keyboard-response,343,491055,0.0-1.0-474.0,0,0,27789,,,,,,,,,,,,,,,,,,,,,,,,,,,,157.5,2.0,,
344,,feedback,,html-keyboard-response,344,492059,0.0-1.0-475.0-0.0,0,0,27789,,,,,,67.0,,,,,,,,,,,,,,,,,,,,,,158.5,1.0,,
345,,iti,,html-keyboard-response,345,495563,0.0-1.0-476.0,0,0,27789,,,,,,,,,,,,,,,,,,,,,,,,,,,,162.0,3.5,,
346,,rl_choice,,html-keyboard-response,346,496737,0.0-1.0-478.0,0,0,27789,,1170.0,,,68.0,68.0,68.0,2.0,easy,3000.0,2000.0,0.0,20.0,80.0,40.0,80.0,D,C,/static/Simple_RL/Stimuli/Fractals_stims/D.jpg,/static/Simple_RL/Stimuli/Fractals_stims/C.jpg,1.0,20.0,80.0,40.0,80.0,D,C,163.17,1.17,0.0,
347,,rl_choice_confirmation,,html-keyboard-response,347,497080,0.0-1.0-479.0-0.0,0,0,27789,,,,,,68.0,,,,,,,,,,,,,,,,,,,,,,163.5,0.33,,
348,,isi,,html-keyboard-response,348,499083,0.0-1.0-481.0,0,0,27789,,,,,,,,,,,,,,,,,,,,,,,,,,,,165.5,2.0,,
349,,feedback,,html-keyboard-response,349,500087,0.0-1.0-482.0-0.0,0,0,27789,,,,,,68.0,,,,,,,,,,,,,,,,,,,,,,166.5,1.0,,
350,,iti,,html-keyboard-response,350,503090,0.0-1.0-483.0,0,0,27789,,,,,,,,,,,,,,,,,,,,,,,,,,,,169.5,3.0,,
351,,rl_choice,,html-keyboard-response,351,503994,0.0-1.0-485.0,0,0,27789,,901.0,,,68.0,69.0,69.0,2.0,hard,2000.0,1000.0,1.0,60.0,40.0,40.0,60.0,A,B,/static/Simple_RL/Stimuli/Fractals_stims/A.jpg,/static/Simple_RL/Stimuli/Fractals_stims/B.jpg,1.0,60.0,40.0,40.0,60.0,A,B,170.401,0.901,0.0,
352,,rl_choice_confirmation,,html-keyboard-response,352,504598,0.0-1.0-486.0-0.0,0,0,27789,,,,,,69.0,,,,,,,,,,,,,,,,,,,,,,171.0,0.599,,
353,,isi,,html-keyboard-response,353,505601,0.0-1.0-488.0,0,0,27789,,,,,,,,,,,,,,,,,,,,,,,,,,,,172.0,1.0,,
354,,feedback,,html-keyboard-response,354,506605,0.0-1.0-489.0-0.0,0,0,27789,,,,,,69.0,,,,,,,,,,,,,,,,,,,,,,173.0,1.0,,
355,,iti,,html-keyboard-response,355,508610,0.0-1.0-490.0,0,0,27789,,,,,,,,,,,,,,,,,,,,,,,,,,,,175.0,2.0,,
356,,rl_choice,,html-keyboard-response,356,509086,0.0-1.0-492.0,0,0,27789,,473.0,,,75.0,70.0,70.0,2.0,hard,1000.0,3500.0,1.0,60.0,40.0,80.0,40.0,A,B,/static/Simple_RL/Stimuli/Fractals_stims/A.jpg,/static/Simple_RL/Stimuli/Fractals_stims/B.jpg,0.0,40.0,60.0,40.0,80.0,B,A,175.473,0.473,0.0,
357,,rl_choice_confirmation,,html-keyboard-response,357,510117,0.0-1.0-493.0-0.0,0,0,27789,,,,,,70.0,,,,,,,,,,,,,,,,,,,,,,176.5,1.027,,
358,,isi,,html-keyboard-response,358,513620,0.0-1.0-495.0,0,0,27789,,,,,,,,,,,,,,,,,,,,,,,,,,,,180.0,3.5,,
359,,feedback,,html-keyboard-response,359,514625,0.0-1.0-496.0-0.0,0,0,27789,,,,,,70.0,,,,,,,,,,,,,,,,,,,,,,181.0,1.0,,
360,,iti,,html-keyboard-response,360,515627,0.0-1.0-497.0,0,0,27789,,,,,,,,,,,,,,,,,,,,,,,,,,,,182.0,1.0,,
361,,rl_choice,,html-keyboard-response,361,516488,0.0-1.0-499.0,0,0,27789,,857.0,,,68.0,71.0,71.0,2.0,hard,1000.0,1500.0,1.0,60.0,40.0,40.0,40.0,A,B,/static/Simple_RL/Stimuli/Fractals_stims/A.jpg,/static/Simple_RL/Stimuli/Fractals_stims/B.jpg,1.0,60.0,40.0,40.0,40.0,A,B,182.857,0.857,0.0,
362,,rl_choice_confirmation,,html-keyboard-response,362,517136,0.0-1.0-500.0-0.0,0,0,27789,,,,,,71.0,,,,,,,,,,,,,,,,,,,,,,183.5,0.643,,
363,,isi,,html-keyboard-response,363,518639,0.0-1.0-502.0,0,0,27789,,,,,,,,,,,,,,,,,,,,,,,,,,,,185.0,1.5,,
364,,feedback,,html-keyboard-response,364,519642,0.0-1.0-503.0-0.0,0,0,27789,,,,,,71.0,,,,,,,,,,,,,,,,,,,,,,186.0,1.0,,
365,,iti,,html-keyboard-response,365,520646,0.0-1.0-504.0,0,0,27789,,,,,,,,,,,,,,,,,,,,,,,,,,,,187.0,1.0,,
366,,rl_choice,,html-keyboard-response,366,521421,0.0-1.0-506.0,0,0,27789,,772.0,,,75.0,72.0,72.0,2.0,easy,1000.0,1500.0,0.0,20.0,80.0,0.0,80.0,D,C,/static/Simple_RL/Stimuli/Fractals_stims/D.jpg,/static/Simple_RL/Stimuli/Fractals_stims/C.jpg,0.0,80.0,20.0,80.0,0.0,C,D,187.772,0.772,0.0,
367,,rl_choice_confirmation,,html-keyboard-response,367,522154,0.0-1.0-507.0-0.0,0,0,27789,,,,,,72.0,,,,,,,,,,,,,,,,,,,,,,188.5,0.728,,
368,,isi,,html-keyboard-response,368,523656,0.0-1.0-509.0,0,0,27789,,,,,,,,,,,,,,,,,,,,,,,,,,,,190.0,1.5,,
369,,feedback,,html-keyboard-response,369,524659,0.0-1.0-510.0-0.0,0,0,27789,,,,,,72.0,,,,,,,,,,,,,,,,,,,,,,191.0,1.0,,
370,,iti,,html-keyboard-response,370,525670,0.0-1.0-511.0,0,0,27789,,,,,,,,,,,,,,,,,,,,,,,,,,,,192.0,1.0,,
371,,rl_choice,,html-keyboard-response,371,526535,0.0-1.0-513.0,0,0,27789,,862.0,,,68.0,73.0,73.0,2.0,easy,1000.0,3000.0,1.0,80.0,20.0,60.0,0.0,C,D,/static/Simple_RL/Stimuli/Fractals_stims/C.jpg,/static/Simple_RL/Stimuli/Fractals_stims/D.jpg,1.0,80.0,20.0,60.0,0.0,C,D,192.862,0.862,0.0,
372,,rl_choice_confirmation,,html-keyboard-response,372,527177,0.0-1.0-514.0-0.0,0,0,27789,,,,,,73.0,,,,,,,,,,,,,,,,,,,,,,193.5,0.638,,
373,,isi,,html-keyboard-response,373,530180,0.0-1.0-516.0,0,0,27789,,,,,,,,,,,,,,,,,,,,,,,,,,,,196.5,3.0,,
374,,feedback,,html-keyboard-response,374,531194,0.0-1.0-517.0-0.0,0,0,27789,,,,,,73.0,,,,,,,,,,,,,,,,,,,,,,197.5,1.0,,
375,,iti,,html-keyboard-response,375,532199,0.0-1.0-518.0,0,0,27789,,,,,,,,,,,,,,,,,,,,,,,,,,,,198.5,1.0,,
376,,rl_choice,,html-keyboard-response,376,533424,0.0-1.0-520.0,0,0,27789,,1223.0,,,68.0,74.0,74.0,2.0,hard,3500.0,2000.0,1.0,60.0,40.0,60.0,60.0,A,B,/static/Simple_RL/Stimuli/Fractals_stims/A.jpg,/static/Simple_RL/Stimuli/Fractals_stims/B.jpg,1.0,60.0,40.0,60.0,60.0,A,B,199.723,1.223,0.0,
377,,rl_choice_confirmation,,html-keyboard-response,377,533705,0.0-1.0-521.0-0.0,0,0,27789,,,,,,74.0,,,,,,,,,,,,,,,,,,,,,,200.0,0.277,,
378,,isi,,html-keyboard-response,378,535708,0.0-1.0-523.0,0,0,27789,,,,,,,,,,,,,,,,,,,,,,,,,,,,202.0,2.0,,
379,,feedback,,html-keyboard-response,379,536712,0.0-1.0-524.0-0.0,0,0,27789,,,,,,74.0,,,,,,,,,,,,,,,,,,,,,,203.0,1.0,,
380,,iti,,html-keyboard-response,380,540215,0.0-1.0-525.0,0,0,27789,,,,,,,,,,,,,,,,,,,,,,,,,,,,206.5,3.5,,
381,,rl_choice,,html-keyboard-response,381,540895,0.0-1.0-527.0,0,0,27789,,677.0,,,75.0,75.0,75.0,2.0,hard,1500.0,3000.0,0.0,40.0,60.0,60.0,80.0,B,A,/static/Simple_RL/Stimuli/Fractals_stims/B.jpg,/static/Simple_RL/Stimuli/Fractals_stims/A.jpg,0.0,60.0,40.0,80.0,60.0,A,B,207.177,0.677,0.0,
382,,rl_choice_confirmation,,html-keyboard-response,382,541724,0.0-1.0-528.0-0.0,0,0,27789,,,,,,75.0,,,,,,,,,,,,,,,,,,,,,,208.0,0.823,,
383,,isi,,html-keyboard-response,383,544727,0.0-1.0-530.0,0,0,27789,,,,,,,,,,,,,,,,,,,,,,,,,,,,211.0,3.0,,
384,,feedback,,html-keyboard-response,384,545731,0.0-1.0-531.0-0.0,0,0,27789,,,,,,75.0,,,,,,,,,,,,,,,,,,,,,,212.0,1.0,,
385,,iti,,html-keyboard-response,385,547234,0.0-1.0-532.0,0,0,27789,,,,,,,,,,,,,,,,,,,,,,,,,,,,213.5,1.5,,
386,,rl_choice,,html-keyboard-response,386,548214,0.0-1.0-534.0,0,0,27789,,978.0,,,75.0,76.0,76.0,2.0,easy,1000.0,1000.0,0.0,20.0,80.0,20.0,80.0,D,C,/static/Simple_RL/Stimuli/Fractals_stims/D.jpg,/static/Simple_RL/Stimuli/Fractals_stims/C.jpg,0.0,80.0,20.0,80.0,20.0,C,D,214.478,0.978,0.0,
387,,rl_choice_confirmation,,html-keyboard-response,387,548741,0.0-1.0-535.0-0.0,0,0,27789,,,,,,76.0,,,,,,,,,,,,,,,,,,,,,,215.0,0.522,,
388,,isi,,html-keyboard-response,388,549745,0.0-1.0-537.0,0,0,27789,,,,,,,,,,,,,,,,,,,,,,,,,,,,216.0,1.0,,
389,,feedback,,html-keyboard-response,389,550750,0.0-1.0-538.0-0.0,0,0,27789,,,,,,76.0,,,,,,,,,,,,,,,,,,,,,,217.0,1.0,,
390,,iti,,html-keyboard-response,390,551753,0.0-1.0-539.0,0,0,27789,,,,,,,,,,,,,,,,,,,,,,,,,,,,218.0,1.0,,
391,,rl_choice,,html-keyboard-response,391,552727,0.0-1.0-541.0,0,0,27789,,971.0,,,68.0,77.0,77.0,2.0,hard,1000.0,1000.0,0.0,40.0,60.0,60.0,40.0,B,A,/static/Simple_RL/Stimuli/Fractals_stims/B.jpg,/static/Simple_RL/Stimuli/Fractals_stims/A.jpg,1.0,40.0,60.0,60.0,40.0,B,A,218.971,0.971,0.0,
392,,rl_choice_confirmation,,html-keyboard-response,392,553260,0.0-1.0-542.0-0.0,0,0,27789,,,,,,77.0,,,,,,,,,,,,,,,,,,,,,,219.5,0.529,,
393,,isi,,html-keyboard-response,393,554264,0.0-1.0-544.0,0,0,27789,,,,,,,,,,,,,,,,,,,,,,,,,,,,220.5,1.0,,
394,,feedback,,html-keyboard-response,394,555271,0.0-1.0-545.0-0.0,0,0,27789,,,,,,77.0,,,,,,,,,,,,,,,,,,,,,,221.5,1.0,,
395,,iti,,html-keyboard-response,395,556275,0.0-1.0-546.0,0,0,27789,,,,,,,,,,,,,,,,,,,,,,,,,,,,222.5,1.0,,
396,,rl_choice,,html-keyboard-response,396,557335,0.0-1.0-548.0,0,0,27789,,1057.0,,,68.0,78.0,78.0,2.0,easy,1000.0,1500.0,1.0,80.0,20.0,80.0,0.0,C,D,/static/Simple_RL/Stimuli/Fractals_stims/C.jpg,/static/Simple_RL/Stimuli/Fractals_stims/D.jpg,1.0,80.0,20.0,80.0,0.0,C,D,223.557,1.057,0.0,
397,,rl_choice_confirmation,,html-keyboard-response,397,557781,0.0-1.0-549.0-0.0,0,0,27789,,,,,,78.0,,,,,,,,,,,,,,,,,,,,,,224.0,0.443,,
398,,isi,,html-keyboard-response,398,559285,0.0-1.0-551.0,0,0,27789,,,,,,,,,,,,,,,,,,,,,,,,,,,,225.5,1.5,,
399,,feedback,,html-keyboard-response,399,560289,0.0-1.0-552.0-0.0,0,0,27789,,,,,,78.0,,,,,,,,,,,,,,,,,,,,,,226.5,1.0,,
400,,iti,,html-keyboard-response,400,561293,0.0-1.0-553.0,0,0,27789,,,,,,,,,,,,,,,,,,,,,,,,,,,,227.5,1.0,,
401,,rl_choice,,html-keyboard-response,401,561980,0.0-1.0-555.0,0,0,27789,,684.0,,,75.0,79.0,79.0,2.0,easy,1000.0,1000.0,0.0,20.0,80.0,0.0,100.0,D,C,/static/Simple_RL/Stimuli/Fractals_stims/D.jpg,/static/Simple_RL/Stimuli/Fractals_stims/C.jpg,0.0,80.0,20.0,100.0,0.0,C,D,228.184,0.684,0.0,
402,,rl_choice_confirmation,,html-keyboard-response,402,562801,0.0-1.0-556.0-0.0,0,0,27789,,,,,,79.0,,,,,,,,,,,,,,,,,,,,,,229.0,0.816,,
403,,isi,,html-keyboard-response,403,563804,0.0-1.0-558.0,0,0,27789,,,,,,,,,,,,,,,,,,,,,,,,,,,,230.0,1.0,,
404,,feedback,,html-keyboard-response,404,564809,0.0-1.0-559.0-0.0,0,0,27789,,,,,,79.0,,,,,,,,,,,,,,,,,,,,,,231.0,1.0,,
405,,iti,,html-keyboard-response,405,565812,0.0-1.0-560.0,0,0,27789,,,,,,,,,,,,,,,,,,,,,,,,,,,,232.0,1.0,,0.95
406,,final_tally,,html-keyboard-response,406,574374,0.0-2.0,0,0,27789,,8558.0,,,68.0,,,,,,,,,,,,,,,,,,,,,,,,,,
