,success,ttype,start_time,trial_type,trial_index,time_elapsed,internal_node_id,warning,missed_checkup,PID,view_history,rt,responses,repeat_instructions,key_press,index,trial_num,block,condition,iti,isi,high_group_on_left,left_group_value,right_group_value,left_item_value,right_item_value,left_img,right_img,left_img_path,right_img_path,onset,duration,no_response,left_chosen,chosen_group_value,unchosen_group_value,chosen_item_value,unchosen_item_value,chosen_img,unchosen_img,total_bonus_tally
0,True,full_screen,d06032022hr1650,fullscreen,0,4655,0.0-0.0,0,0,64747,,,,,,,,,,,,,,,,,,,,,,,,,,,,,,,
1,,size_instructions,,instructions,1,125727,0.0-1.0-0.0-0.0,0,0,64747,"[{""page_index"":0,""viewing_time"":5540},{""page_index"":1,""viewing_time"":6186},{""page_index"":2,""viewing_time"":5826},{""page_index"":3,""viewing_time"":2962},{""page_index"":4,""viewing_time"":97117},{""page_index"":5,""viewing_time"":3436}]",121069.0,,,,,,,,,,,,,,,,,,,,,,,,,,,,,
2,,rl_comprehension_check,,survey-multi-choice,2,142912,0.0-1.0-0.0-1.0,0,0,64747,,17172.0,"{""Q0"":""False"",""Q1"":""True"",""Q2"":""D for left and K for right""}",1.0,,,,,,,,,,,,,,,,,,,,,,,,,,,
3,,missed_instruction_checkup,,html-keyboard-response,3,146073,0.0-1.0-0.0-2.0-0.0,0,0,64747,,3150.0,,,68.0,,,,,,,,,,,,,,,,,,,,,,,,,,
4,,size_instructions,,instructions,4,189551,0.0-1.0-0.1-0.1,0,0,64747,"[{""page_index"":0,""viewing_time"":3792},{""page_index"":1,""viewing_time"":23109},{""page_index"":2,""viewing_time"":11387},{""page_index"":3,""viewing_time"":1870},{""page_index"":4,""viewing_time"":1219},{""page_index"":5,""viewing_time"":2097}]",43474.0,,,,,,,,,,,,,,,,,,,,,,,,,,,,,
5,,rl_comprehension_check,,survey-multi-choice,5,197631,0.0-1.0-0.1-1.1,0,0,64747,,8065.0,"{""Q0"":""True"",""Q1"":""True"",""Q2"":""D for left and K for right""}",0.0,,,,,,,,,,,,,,,,,,,,,,,,,,,
6,,,,html-keyboard-response,6,199485,0.0-1.0-1.0,0,0,64747,,1850.0,,,68.0,,,,,,,,,,,,,,,,,,,,,,,,,,
7,,rl_choice,,html-keyboard-response,7,200991,0.0-1.0-2.0,0,0,64747,,,,,,0.0,0.0,1.0,hard,2000.0,1000.0,0.0,40.0,60.0,60.0,40.0,D,C,/static/Simple_RL/Stimuli/Fractals_stims/D.jpg,/static/Simple_RL/Stimuli/Fractals_stims/C.jpg,1.5,1.5,1.0,,,,,,,,
8,,rl_choice_warning,,html-keyboard-response,8,201999,0.0-1.0-4.0-0.0,0,0,64747,,,,,,,,,,,,,,,,,,,,,2.5,1.0,,,,,,,,,
9,,isi,,html-keyboard-response,9,203006,0.0-1.0-5.0,0,0,64747,,,,,,,,,,,,,,,,,,,,,3.5,1.0,,,,,,,,,
10,,iti,,html-keyboard-response,10,205011,0.0-1.0-7.0,0,0,64747,,,,,,,,,,,,,,,,,,,,,5.5,2.0,,,,,,,,,
11,,rl_choice,,html-keyboard-response,11,205360,0.0-1.0-9.0,0,0,64747,,345.0,,,75.0,1.0,1.0,1.0,hard,1000.0,1000.0,0.0,40.0,60.0,20.0,40.0,D,C,/static/Simple_RL/Stimuli/Fractals_stims/D.jpg,/static/Simple_RL/Stimuli/Fractals_stims/C.jpg,5.845,0.345,0.0,0.0,60.0,40.0,40.0,20.0,C,D,
12,,rl_choice_confirmation,,html-keyboard-response,12,206527,0.0-1.0-10.0-0.0,0,0,64747,,,,,,1.0,,,,,,,,,,,,,,,7.0,1.155,,,,,,,,,
13,,isi,,html-keyboard-response,13,207543,0.0-1.0-12.0,0,0,64747,,,,,,,,,,,,,,,,,,,,,8.0,1.0,,,,,,,,,
14,,feedback,,html-keyboard-response,14,208554,0.0-1.0-13.0-0.0,0,0,64747,,,,,,1.0,,,,,,,,,,,,,,,9.0,1.0,,,,,,,,,
15,,iti,,html-keyboard-response,15,209570,0.0-1.0-14.0,0,0,64747,,,,,,,,,,,,,,,,,,,,,10.0,1.0,,,,,,,,,
16,,rl_choice,,html-keyboard-response,16,210070,0.0-1.0-16.0,0,0,64747,,495.0,,,68.0,2.0,2.0,1.0,easy,1000.0,1000.0,0.0,20.0,80.0,40.0,60.0,B,A,/static/Simple_RL/Stimuli/Fractals_stims/B.jpg,/static/Simple_RL/Stimuli/Fractals_stims/A.jpg,10.495,0.495,0.0,1.0,20.0,80.0,40.0,60.0,B,A,
17,,rl_choice_confirmation,,html-keyboard-response,17,211085,0.0-1.0-17.0-0.0,0,0,64747,,,,,,2.0,,,,,,,,,,,,,,,11.5,1.005,,,,,,,,,
18,,isi,,html-keyboard-response,18,212096,0.0-1.0-19.0,0,0,64747,,,,,,,,,,,,,,,,,,,,,12.5,1.0,,,,,,,,,
19,,feedback,,html-keyboard-response,19,213101,0.0-1.0-20.0-0.0,0,0,64747,,,,,,2.0,,,,,,,,,,,,,,,13.5,1.0,,,,,,,,,
20,,iti,,html-keyboard-response,20,214108,0.0-1.0-21.0,0,0,64747,,,,,,,,,,,,,,,,,,,,,14.5,1.0,,,,,,,,,
21,,rl_choice,,html-keyboard-response,21,214448,0.0-1.0-23.0,0,0,64747,,337.0,,,75.0,3.0,3.0,1.0,easy,3000.0,3000.0,1.0,80.0,20.0,100.0,40.0,A,B,/static/Simple_RL/Stimuli/Fractals_stims/A.jpg,/static/Simple_RL/Stimuli/Fractals_stims/B.jpg,14.837,0.337,0.0,0.0,20.0,80.0,40.0,100.0,B,A,
22,,rl_choice_confirmation,,html-keyboard-response,22,215623,0.0-1.0-24.0-0.0,0,0,64747,,,,,,3.0,,,,,,,,,,,,,,,16.0,1.163,,,,,,,,,
23,,isi,,html-keyboard-response,23,218629,0.0-1.0-26.0,0,0,64747,,,,,,,,,,,,,,,,,,,,,19.0,3.0,,,,,,,,,
24,,feedback,,html-keyboard-response,24,219634,0.0-1.0-27.0-0.0,0,0,64747,,,,,,3.0,,,,,,,,,,,,,,,20.0,1.0,,,,,,,,,
25,,iti,,html-keyboard-response,25,222646,0.0-1.0-28.0,0,0,64747,,,,,,,,,,,,,,,,,,,,,23.0,3.0,,,,,,,,,
26,,rl_choice,,html-keyboard-response,26,223022,0.0-1.0-30.0,0,0,64747,,373.0,,,68.0,4.0,4.0,1.0,hard,1000.0,1000.0,0.0,40.0,60.0,40.0,80.0,D,C,/static/Simple_RL/Stimuli/Fractals_stims/D.jpg,/static/Simple_RL/Stimuli/Fractals_stims/C.jpg,23.373,0.373,0.0,1.0,40.0,60.0,40.0,80.0,D,C,
27,,rl_choice_confirmation,,html-keyboard-response,27,224157,0.0-1.0-31.0-0.0,0,0,64747,,,,,,4.0,,,,,,,,,,,,,,,24.5,1.127,,,,,,,,,
28,,isi,,html-keyboard-response,28,225164,0.0-1.0-33.0,0,0,64747,,,,,,,,,,,,,,,,,,,,,25.5,1.0,,,,,,,,,
29,,feedback,,html-keyboard-response,29,226174,0.0-1.0-34.0-0.0,0,0,64747,,,,,,4.0,,,,,,,,,,,,,,,26.5,1.0,,,,,,,,,
30,,iti,,html-keyboard-response,30,227179,0.0-1.0-35.0,0,0,64747,,,,,,,,,,,,,,,,,,,,,27.5,1.0,,,,,,,,,
31,,rl_choice,,html-keyboard-response,31,227707,0.0-1.0-37.0,0,0,64747,,524.0,,,75.0,5.0,5.0,1.0,hard,3000.0,1000.0,1.0,60.0,40.0,60.0,60.0,C,D,/static/Simple_RL/Stimuli/Fractals_stims/C.jpg,/static/Simple_RL/Stimuli/Fractals_stims/D.jpg,28.024,0.524,0.0,0.0,40.0,60.0,60.0,60.0,D,C,
32,,rl_choice_confirmation,,html-keyboard-response,32,228696,0.0-1.0-38.0-0.0,0,0,64747,,,,,,5.0,,,,,,,,,,,,,,,29.0,0.976,,,,,,,,,
33,,isi,,html-keyboard-response,33,229705,0.0-1.0-40.0,0,0,64747,,,,,,,,,,,,,,,,,,,,,30.0,1.0,,,,,,,,,
34,,feedback,,html-keyboard-response,34,230711,0.0-1.0-41.0-0.0,0,0,64747,,,,,,5.0,,,,,,,,,,,,,,,31.0,1.0,,,,,,,,,
35,,iti,,html-keyboard-response,35,233722,0.0-1.0-42.0,0,0,64747,,,,,,,,,,,,,,,,,,,,,34.0,3.0,,,,,,,,,
36,,rl_choice,,html-keyboard-response,36,234134,0.0-1.0-44.0,0,0,64747,,408.0,,,68.0,6.0,6.0,1.0,easy,1000.0,2000.0,0.0,20.0,80.0,40.0,100.0,B,A,/static/Simple_RL/Stimuli/Fractals_stims/B.jpg,/static/Simple_RL/Stimuli/Fractals_stims/A.jpg,34.408,0.408,0.0,1.0,20.0,80.0,40.0,100.0,B,A,
37,,rl_choice_confirmation,,html-keyboard-response,37,235233,0.0-1.0-45.0-0.0,0,0,64747,,,,,,6.0,,,,,,,,,,,,,,,35.5,1.092,,,,,,,,,
38,,isi,,html-keyboard-response,38,237242,0.0-1.0-47.0,0,0,64747,,,,,,,,,,,,,,,,,,,,,37.5,2.0,,,,,,,,,
39,,feedback,,html-keyboard-response,39,238252,0.0-1.0-48.0-0.0,0,0,64747,,,,,,6.0,,,,,,,,,,,,,,,38.5,1.0,,,,,,,,,
40,,iti,,html-keyboard-response,40,239256,0.0-1.0-49.0,0,0,64747,,,,,,,,,,,,,,,,,,,,,39.5,1.0,,,,,,,,,
41,,rl_choice,,html-keyboard-response,41,239683,0.0-1.0-51.0,0,0,64747,,422.0,,,75.0,7.0,7.0,1.0,hard,3000.0,1500.0,0.0,40.0,60.0,20.0,80.0,D,C,/static/Simple_RL/Stimuli/Fractals_stims/D.jpg,/static/Simple_RL/Stimuli/Fractals_stims/C.jpg,39.922,0.422,0.0,0.0,60.0,40.0,80.0,20.0,C,D,
42,,rl_choice_confirmation,,html-keyboard-response,42,240769,0.0-1.0-52.0-0.0,0,0,64747,,,,,,7.0,,,,,,,,,,,,,,,41.0,1.078,,,,,,,,,
43,,isi,,html-keyboard-response,43,242285,0.0-1.0-54.0,0,0,64747,,,,,,,,,,,,,,,,,,,,,42.5,1.5,,,,,,,,,
44,,feedback,,html-keyboard-response,44,243296,0.0-1.0-55.0-0.0,0,0,64747,,,,,,7.0,,,,,,,,,,,,,,,43.5,1.0,,,,,,,,,
45,,iti,,html-keyboard-response,45,246305,0.0-1.0-56.0,0,0,64747,,,,,,,,,,,,,,,,,,,,,46.5,3.0,,,,,,,,,
46,,rl_choice,,html-keyboard-response,46,246705,0.0-1.0-58.0,0,0,64747,,397.0,,,68.0,8.0,8.0,1.0,easy,1000.0,1000.0,0.0,20.0,80.0,0.0,100.0,B,A,/static/Simple_RL/Stimuli/Fractals_stims/B.jpg,/static/Simple_RL/Stimuli/Fractals_stims/A.jpg,46.897,0.397,0.0,1.0,20.0,80.0,0.0,100.0,B,A,
47,,rl_choice_confirmation,,html-keyboard-response,47,247816,0.0-1.0-59.0-0.0,0,0,64747,,,,,,8.0,,,,,,,,,,,,,,,48.0,1.103,,,,,,,,,
48,,isi,,html-keyboard-response,48,248827,0.0-1.0-61.0,0,0,64747,,,,,,,,,,,,,,,,,,,,,49.0,1.0,,,,,,,,,
49,,feedback,,html-keyboard-response,49,249842,0.0-1.0-62.0-0.0,0,0,64747,,,,,,8.0,,,,,,,,,,,,,,,50.0,1.0,,,,,,,,,
50,,iti,,html-keyboard-response,50,250845,0.0-1.0-63.0,0,0,64747,,,,,,,,,,,,,,,,,,,,,51.0,1.0,,,,,,,,,
51,,rl_choice,,html-keyboard-response,51,251562,0.0-1.0-65.0,0,0,64747,,714.0,,,75.0,9.0,9.0,1.0,hard,1500.0,2000.0,1.0,60.0,40.0,60.0,40.0,C,D,/static/Simple_RL/Stimuli/Fractals_stims/C.jpg,/static/Simple_RL/Stimuli/Fractals_stims/D.jpg,51.714,0.714,0.0,0.0,40.0,60.0,40.0,60.0,D,C,
52,,rl_choice_confirmation,,html-keyboard-response,52,252355,0.0-1.0-66.0-0.0,0,0,64747,,,,,,9.0,,,,,,,,,,,,,,,52.5,0.786,,,,,,,,,
53,,isi,,html-keyboard-response,53,254358,0.0-1.0-68.0,0,0,64747,,,,,,,,,,,,,,,,,,,,,54.5,2.0,,,,,,,,,
54,,feedback,,html-keyboard-response,54,255364,0.0-1.0-69.0-0.0,0,0,64747,,,,,,9.0,,,,,,,,,,,,,,,55.5,1.0,,,,,,,,,
55,,iti,,html-keyboard-response,55,256874,0.0-1.0-70.0,0,0,64747,,,,,,,,,,,,,,,,,,,,,57.0,1.5,,,,,,,,,
56,,rl_choice,,html-keyboard-response,56,258383,0.0-1.0-72.0,0,0,64747,,,,,,10.0,10.0,1.0,easy,1000.0,1000.0,1.0,80.0,20.0,60.0,0.0,A,B,/static/Simple_RL/Stimuli/Fractals_stims/A.jpg,/static/Simple_RL/Stimuli/Fractals_stims/B.jpg,58.5,1.5,1.0,,,,,,,,
57,,rl_choice_warning,,html-keyboard-response,57,259388,0.0-1.0-74.0-0.0,0,0,64747,,,,,,,,,,,,,,,,,,,,,59.5,1.0,,,,,,,,,
58,,isi,,html-keyboard-response,58,260398,0.0-1.0-75.0,0,0,64747,,,,,,,,,,,,,,,,,,,,,60.5,1.0,,,,,,,,,
59,,iti,,html-keyboard-response,59,261403,0.0-1.0-77.0,0,0,64747,,,,,,,,,,,,,,,,,,,,,61.5,1.0,,,,,,,,,
60,,rl_choice,,html-keyboard-response,60,262348,0.0-1.0-79.0,0,0,64747,,941.0,,,68.0,11.0,11.0,1.0,hard,3500.0,1000.0,0.0,40.0,60.0,20.0,60.0,D,C,/static/Simple_RL/Stimuli/Fractals_stims/D.jpg,/static/Simple_RL/Stimuli/Fractals_stims/C.jpg,62.441,0.941,0.0,1.0,40.0,60.0,20.0,60.0,D,C,
61,,rl_choice_confirmation,,html-keyboard-response,61,262913,0.0-1.0-80.0-0.0,0,0,64747,,,,,,11.0,,,,,,,,,,,,,,,63.0,0.559,,,,,,,,,
62,,isi,,html-keyboard-response,62,263922,0.0-1.0-82.0,0,0,64747,,,,,,,,,,,,,,,,,,,,,64.0,1.0,,,,,,,,,
63,,feedback,,html-keyboard-response,63,264927,0.0-1.0-83.0-0.0,0,0,64747,,,,,,11.0,,,,,,,,,,,,,,,65.0,1.0,,,,,,,,,
64,,iti,,html-keyboard-response,64,268434,0.0-1.0-84.0,0,0,64747,,,,,,,,,,,,,,,,,,,,,68.5,3.5,,,,,,,,,
65,,rl_choice,,html-keyboard-response,65,268824,0.0-1.0-86.0,0,0,64747,,385.0,,,75.0,12.0,12.0,1.0,hard,1000.0,1000.0,1.0,60.0,40.0,80.0,20.0,C,D,/static/Simple_RL/Stimuli/Fractals_stims/C.jpg,/static/Simple_RL/Stimuli/Fractals_stims/D.jpg,68.885,0.385,0.0,0.0,40.0,60.0,20.0,80.0,D,C,
66,,rl_choice_confirmation,,html-keyboard-response,66,269947,0.0-1.0-87.0-0.0,0,0,64747,,,,,,12.0,,,,,,,,,,,,,,,70.0,1.115,,,,,,,,,
67,,isi,,html-keyboard-response,67,270957,0.0-1.0-89.0,0,0,64747,,,,,,,,,,,,,,,,,,,,,71.0,1.0,,,,,,,,,
68,,feedback,,html-keyboard-response,68,271968,0.0-1.0-90.0-0.0,0,0,64747,,,,,,12.0,,,,,,,,,,,,,,,72.0,1.0,,,,,,,,,
69,,iti,,html-keyboard-response,69,272979,0.0-1.0-91.0,0,0,64747,,,,,,,,,,,,,,,,,,,,,73.0,1.0,,,,,,,,,
70,,rl_choice,,html-keyboard-response,70,273969,0.0-1.0-93.0,0,0,64747,,986.0,,,75.0,13.0,13.0,1.0,hard,2000.0,2000.0,1.0,60.0,40.0,40.0,40.0,C,D,/static/Simple_RL/Stimuli/Fractals_stims/C.jpg,/static/Simple_RL/Stimuli/Fractals_stims/D.jpg,73.986,0.986,0.0,0.0,40.0,60.0,40.0,40.0,D,C,
71,,rl_choice_confirmation,,html-keyboard-response,71,274498,0.0-1.0-94.0-0.0,0,0,64747,,,,,,13.0,,,,,,,,,,,,,,,74.5,0.514,,,,,,,,,
72,,isi,,html-keyboard-response,72,276504,0.0-1.0-96.0,0,0,64747,,,,,,,,,,,,,,,,,,,,,76.5,2.0,,,,,,,,,
73,,feedback,,html-keyboard-response,73,277516,0.0-1.0-97.0-0.0,0,0,64747,,,,,,13.0,,,,,,,,,,,,,,,77.5,1.0,,,,,,,,,
74,,iti,,html-keyboard-response,74,279524,0.0-1.0-98.0,0,0,64747,,,,,,,,,,,,,,,,,,,,,79.5,2.0,,,,,,,,,
75,,rl_choice,,html-keyboard-response,75,280119,0.0-1.0-100.0,0,0,64747,,592.0,,,68.0,14.0,14.0,1.0,easy,1000.0,3500.0,1.0,80.0,20.0,80.0,20.0,A,B,/static/Simple_RL/Stimuli/Fractals_stims/A.jpg,/static/Simple_RL/Stimuli/Fractals_stims/B.jpg,80.092,0.592,0.0,1.0,80.0,20.0,80.0,20.0,A,B,
76,,rl_choice_confirmation,,html-keyboard-response,76,281039,0.0-1.0-101.0-0.0,0,0,64747,,,,,,14.0,,,,,,,,,,,,,,,81.0,0.908,,,,,,,,,
77,,isi,,html-keyboard-response,77,284544,0.0-1.0-103.0,0,0,64747,,,,,,,,,,,,,,,,,,,,,84.5,3.5,,,,,,,,,
78,,feedback,,html-keyboard-response,78,285549,0.0-1.0-104.0-0.0,0,0,64747,,,,,,14.0,,,,,,,,,,,,,,,85.5,1.0,,,,,,,,,
79,,iti,,html-keyboard-response,79,286559,0.0-1.0-105.0,0,0,64747,,,,,,,,,,,,,,,,,,,,,86.5,1.0,,,,,,,,,
80,,rl_choice,,html-keyboard-response,80,287194,0.0-1.0-107.0,0,0,64747,,631.0,,,75.0,15.0,15.0,1.0,easy,2000.0,2000.0,0.0,20.0,80.0,20.0,60.0,B,A,/static/Simple_RL/Stimuli/Fractals_stims/B.jpg,/static/Simple_RL/Stimuli/Fractals_stims/A.jpg,87.131,0.631,0.0,0.0,80.0,20.0,60.0,20.0,A,B,
81,,rl_choice_confirmation,,html-keyboard-response,81,288068,0.0-1.0-108.0-0.0,0,0,64747,,,,,,15.0,,,,,,,,,,,,,,,88.0,0.869,,,,,,,,,
82,,isi,,html-keyboard-response,82,290072,0.0-1.0-110.0,0,0,64747,,,,,,,,,,,,,,,,,,,,,90.0,2.0,,,,,,,,,
83,,feedback,,html-keyboard-response,83,291083,0.0-1.0-111.0-0.0,0,0,64747,,,,,,15.0,,,,,,,,,,,,,,,91.0,1.0,,,,,,,,,
84,,iti,,html-keyboard-response,84,293089,0.0-1.0-112.0,0,0,64747,,,,,,,,,,,,,,,,,,,,,93.0,2.0,,,,,,,,,
85,,rl_choice,,html-keyboard-response,85,293665,0.0-1.0-114.0,0,0,64747,,572.0,,,68.0,16.0,16.0,1.0,hard,1000.0,1500.0,0.0,40.0,60.0,20.0,80.0,D,C,/static/Simple_RL/Stimuli/Fractals_stims/D.jpg,/static/Simple_RL/Stimuli/Fractals_stims/C.jpg,93.572,0.572,0.0,1.0,40.0,60.0,20.0,80.0,D,C,
86,,rl_choice_confirmation,,html-keyboard-response,86,294607,0.0-1.0-115.0-0.0,0,0,64747,,,,,,16.0,,,,,,,,,,,,,,,94.5,0.928,,,,,,,,,
87,,isi,,html-keyboard-response,87,296111,0.0-1.0-117.0,0,0,64747,,,,,,,,,,,,,,,,,,,,,96.0,1.5,,,,,,,,,
88,,feedback,,html-keyboard-response,88,297120,0.0-1.0-118.0-0.0,0,0,64747,,,,,,16.0,,,,,,,,,,,,,,,97.0,1.0,,,,,,,,,
89,,iti,,html-keyboard-response,89,298126,0.0-1.0-119.0,0,0,64747,,,,,,,,,,,,,,,,,,,,,98.0,1.0,,,,,,,,,
90,,rl_choice,,html-keyboard-response,90,298641,0.0-1.0-121.0,0,0,64747,,510.0,,,75.0,17.0,17.0,1.0,hard,1000.0,1500.0,1.0,60.0,40.0,60.0,20.0,C,D,/static/Simple_RL/Stimuli/Fractals_stims/C.jpg,/static/Simple_RL/Stimuli/Fractals_stims/D.jpg,98.51,0.51,0.0,0.0,40.0,60.0,20.0,60.0,D,C,
91,,rl_choice_confirmation,,html-keyboard-response,91,299635,0.0-1.0-122.0-0.0,0,0,64747,,,,,,17.0,,,,,,,,,,,,,,,99.5,0.99,,,,,,,,,
92,,isi,,html-keyboard-response,92,301145,0.0-1.0-124.0,0,0,64747,,,,,,,,,,,,,,,,,,,,,101.0,1.5,,,,,,,,,
93,,feedback,,html-keyboard-response,93,302155,0.0-1.0-125.0-0.0,0,0,64747,,,,,,17.0,,,,,,,,,,,,,,,102.0,1.0,,,,,,,,,
94,,iti,,html-keyboard-response,94,303160,0.0-1.0-126.0,0,0,64747,,,,,,,,,,,,,,,,,,,,,103.0,1.0,,,,,,,,,
95,,rl_choice,,html-keyboard-response,95,303456,0.0-1.0-128.0,0,0,64747,,293.0,,,75.0,18.0,18.0,1.0,easy,1500.0,1500.0,0.0,20.0,80.0,40.0,80.0,B,A,/static/Simple_RL/Stimuli/Fractals_stims/B.jpg,/static/Simple_RL/Stimuli/Fractals_stims/A.jpg,103.293,0.293,0.0,0.0,80.0,20.0,80.0,40.0,A,B,
96,,rl_choice_confirmation,,html-keyboard-response,96,304671,0.0-1.0-129.0-0.0,0,0,64747,,,,,,18.0,,,,,,,,,,,,,,,104.5,1.207,,,,,,,,,
97,,isi,,html-keyboard-response,97,306182,0.0-1.0-131.0,0,0,64747,,,,,,,,,,,,,,,,,,,,,106.0,1.5,,,,,,,,,
98,,feedback,,html-keyboard-response,98,307190,0.0-1.0-132.0-0.0,0,0,64747,,,,,,18.0,,,,,,,,,,,,,,,107.0,1.0,,,,,,,,,
99,,iti,,html-keyboard-response,99,308695,0.0-1.0-133.0,0,0,64747,,,,,,,,,,,,,,,,,,,,,108.5,1.5,,,,,,,,,
100,,rl_choice,,html-keyboard-response,100,309071,0.0-1.0-135.0,0,0,64747,,373.0,,,75.0,19.0,19.0,1.0,hard,2000.0,3000.0,1.0,60.0,40.0,60.0,40.0,C,D,/static/Simple_RL/Stimuli/Fractals_stims/C.jpg,/static/Simple_RL/Stimuli/Fractals_stims/D.jpg,108.873,0.373,0.0,0.0,40.0,60.0,40.0,60.0,D,C,
101,,rl_choice_confirmation,,html-keyboard-response,101,310206,0.0-1.0-136.0-0.0,0,0,64747,,,,,,19.0,,,,,,,,,,,,,,,110.0,1.127,,,,,,,,,
102,,isi,,html-keyboard-response,102,313214,0.0-1.0-138.0,0,0,64747,,,,,,,,,,,,,,,,,,,,,113.0,3.0,,,,,,,,,
103,,feedback,,html-keyboard-response,103,314222,0.0-1.0-139.0-0.0,0,0,64747,,,,,,19.0,,,,,,,,,,,,,,,114.0,1.0,,,,,,,,,
104,,iti,,html-keyboard-response,104,316229,0.0-1.0-140.0,0,0,64747,,,,,,,,,,,,,,,,,,,,,116.0,2.0,,,,,,,,,
105,,rl_choice,,html-keyboard-response,105,316631,0.0-1.0-142.0,0,0,64747,,399.0,,,75.0,20.0,20.0,1.0,easy,1500.0,1000.0,1.0,80.0,20.0,80.0,40.0,A,B,/static/Simple_RL/Stimuli/Fractals_stims/A.jpg,/static/Simple_RL/Stimuli/Fractals_stims/B.jpg,116.399,0.399,0.0,0.0,20.0,80.0,40.0,80.0,B,A,
106,,rl_choice_confirmation,,html-keyboard-response,106,317736,0.0-1.0-143.0-0.0,0,0,64747,,,,,,20.0,,,,,,,,,,,,,,,117.5,1.101,,,,,,,,,
107,,isi,,html-keyboard-response,107,318744,0.0-1.0-145.0,0,0,64747,,,,,,,,,,,,,,,,,,,,,118.5,1.0,,,,,,,,,
108,,feedback,,html-keyboard-response,108,319753,0.0-1.0-146.0-0.0,0,0,64747,,,,,,20.0,,,,,,,,,,,,,,,119.5,1.0,,,,,,,,,
109,,iti,,html-keyboard-response,109,321260,0.0-1.0-147.0,0,0,64747,,,,,,,,,,,,,,,,,,,,,121.0,1.5,,,,,,,,,
110,,rl_choice,,html-keyboard-response,110,322658,0.0-1.0-149.0,0,0,64747,,1394.0,,,68.0,21.0,21.0,1.0,easy,3000.0,1500.0,1.0,80.0,20.0,80.0,20.0,A,B,/static/Simple_RL/Stimuli/Fractals_stims/A.jpg,/static/Simple_RL/Stimuli/Fractals_stims/B.jpg,122.394,1.394,0.0,1.0,80.0,20.0,80.0,20.0,A,B,
111,,rl_choice_confirmation,,html-keyboard-response,111,322775,0.0-1.0-150.0-0.0,0,0,64747,,,,,,21.0,,,,,,,,,,,,,,,122.5,0.106,,,,,,,,,
112,,isi,,html-keyboard-response,112,324284,0.0-1.0-152.0,0,0,64747,,,,,,,,,,,,,,,,,,,,,124.0,1.5,,,,,,,,,
113,,feedback,,html-keyboard-response,113,325291,0.0-1.0-153.0-0.0,0,0,64747,,,,,,21.0,,,,,,,,,,,,,,,125.0,1.0,,,,,,,,,
114,,iti,,html-keyboard-response,114,328301,0.0-1.0-154.0,0,0,64747,,,,,,,,,,,,,,,,,,,,,128.0,3.0,,,,,,,,,
115,,rl_choice,,html-keyboard-response,115,329367,0.0-1.0-156.0,0,0,64747,,1063.0,,,68.0,22.0,22.0,1.0,easy,1000.0,2000.0,1.0,80.0,20.0,100.0,20.0,A,B,/static/Simple_RL/Stimuli/Fractals_stims/A.jpg,/static/Simple_RL/Stimuli/Fractals_stims/B.jpg,129.063,1.063,0.0,1.0,80.0,20.0,100.0,20.0,A,B,
116,,rl_choice_confirmation,,html-keyboard-response,116,329808,0.0-1.0-157.0-0.0,0,0,64747,,,,,,22.0,,,,,,,,,,,,,,,129.5,0.437,,,,,,,,,
117,,isi,,html-keyboard-response,117,331813,0.0-1.0-159.0,0,0,64747,,,,,,,,,,,,,,,,,,,,,131.5,2.0,,,,,,,,,
118,,feedback,,html-keyboard-response,118,332817,0.0-1.0-160.0-0.0,0,0,64747,,,,,,22.0,,,,,,,,,,,,,,,132.5,1.0,,,,,,,,,
119,,iti,,html-keyboard-response,119,333824,0.0-1.0-161.0,0,0,64747,,,,,,,,,,,,,,,,,,,,,133.5,1.0,,,,,,,,,
120,,rl_choice,,html-keyboard-response,120,335332,0.0-1.0-163.0,0,0,64747,,,,,,23.0,23.0,1.0,easy,2000.0,1500.0,1.0,80.0,20.0,80.0,0.0,A,B,/static/Simple_RL/Stimuli/Fractals_stims/A.jpg,/static/Simple_RL/Stimuli/Fractals_stims/B.jpg,135.0,1.5,1.0,,,,,,,,
121,,rl_choice_warning,,html-keyboard-response,121,336346,0.0-1.0-165.0-0.0,0,0,64747,,,,,,,,,,,,,,,,,,,,,136.0,1.0,,,,,,,,,
122,,isi,,html-keyboard-response,122,337850,0.0-1.0-166.0,0,0,64747,,,,,,,,,,,,,,,,,,,,,137.5,1.5,,,,,,,,,
123,,iti,,html-keyboard-response,123,339855,0.0-1.0-168.0,0,0,64747,,,,,,,,,,,,,,,,,,,,,139.5,2.0,,,,,,,,,
124,,rl_choice,,html-keyboard-response,124,340635,0.0-1.0-170.0,0,0,64747,,776.0,,,68.0,24.0,24.0,1.0,easy,1500.0,1500.0,0.0,20.0,80.0,40.0,80.0,B,A,/static/Simple_RL/Stimuli/Fractals_stims/B.jpg,/static/Simple_RL/Stimuli/Fractals_stims/A.jpg,140.276,0.776,0.0,1.0,20.0,80.0,40.0,80.0,B,A,
125,,rl_choice_confirmation,,html-keyboard-response,125,341368,0.0-1.0-171.0-0.0,0,0,64747,,,,,,24.0,,,,,,,,,,,,,,,141.0,0.724,,,,,,,,,
126,,isi,,html-keyboard-response,126,342874,0.0-1.0-173.0,0,0,64747,,,,,,,,,,,,,,,,,,,,,142.5,1.5,,,,,,,,,
127,,feedback,,html-keyboard-response,127,343885,0.0-1.0-174.0-0.0,0,0,64747,,,,,,24.0,,,,,,,,,,,,,,,143.5,1.0,,,,,,,,,
128,,iti,,html-keyboard-response,128,345396,0.0-1.0-175.0,0,0,64747,,,,,,,,,,,,,,,,,,,,,145.0,1.5,,,,,,,,,
129,,rl_choice,,html-keyboard-response,129,346452,0.0-1.0-177.0,0,0,64747,,1052.0,,,68.0,25.0,25.0,1.0,easy,2000.0,3000.0,1.0,80.0,20.0,100.0,40.0,A,B,/static/Simple_RL/Stimuli/Fractals_stims/A.jpg,/static/Simple_RL/Stimuli/Fractals_stims/B.jpg,146.052,1.052,0.0,1.0,80.0,20.0,100.0,40.0,A,B,
130,,rl_choice_confirmation,,html-keyboard-response,130,346907,0.0-1.0-178.0-0.0,0,0,64747,,,,,,25.0,,,,,,,,,,,,,,,146.5,0.448,,,,,,,,,
131,,isi,,html-keyboard-response,131,349909,0.0-1.0-180.0,0,0,64747,,,,,,,,,,,,,,,,,,,,,149.5,3.0,,,,,,,,,
132,,feedback,,html-keyboard-response,132,350915,0.0-1.0-181.0-0.0,0,0,64747,,,,,,25.0,,,,,,,,,,,,,,,150.5,1.0,,,,,,,,,
133,,iti,,html-keyboard-response,133,352926,0.0-1.0-182.0,0,0,64747,,,,,,,,,,,,,,,,,,,,,152.5,2.0,,,,,,,,,
134,,rl_choice,,html-keyboard-response,134,353553,0.0-1.0-184.0,0,0,64747,,622.0,,,68.0,26.0,26.0,1.0,hard,1000.0,2000.0,0.0,40.0,60.0,60.0,80.0,D,C,/static/Simple_RL/Stimuli/Fractals_stims/D.jpg,/static/Simple_RL/Stimuli/Fractals_stims/C.jpg,153.122,0.622,0.0,1.0,40.0,60.0,60.0,80.0,D,C,
135,,rl_choice_confirmation,,html-keyboard-response,135,354441,0.0-1.0-185.0-0.0,0,0,64747,,,,,,26.0,,,,,,,,,,,,,,,154.0,0.878,,,,,,,,,
136,,isi,,html-keyboard-response,136,356448,0.0-1.0-187.0,0,0,64747,,,,,,,,,,,,,,,,,,,,,156.0,2.0,,,,,,,,,
137,,feedback,,html-keyboard-response,137,357454,0.0-1.0-188.0-0.0,0,0,64747,,,,,,26.0,,,,,,,,,,,,,,,157.0,1.0,,,,,,,,,
138,,iti,,html-keyboard-response,138,358464,0.0-1.0-189.0,0,0,64747,,,,,,,,,,,,,,,,,,,,,158.0,1.0,,,,,,,,,
139,,rl_choice,,html-keyboard-response,139,359631,0.0-1.0-191.0,0,0,64747,,1164.0,,,75.0,27.0,27.0,1.0,easy,1500.0,1500.0,0.0,20.0,80.0,20.0,80.0,B,A,/static/Simple_RL/Stimuli/Fractals_stims/B.jpg,/static/Simple_RL/Stimuli/Fractals_stims/A.jpg,159.164,1.164,0.0,0.0,80.0,20.0,80.0,20.0,A,B,
140,,rl_choice_confirmation,,html-keyboard-response,140,359976,0.0-1.0-192.0-0.0,0,0,64747,,,,,,27.0,,,,,,,,,,,,,,,159.5,0.336,,,,,,,,,
141,,isi,,html-keyboard-response,141,361483,0.0-1.0-194.0,0,0,64747,,,,,,,,,,,,,,,,,,,,,161.0,1.5,,,,,,,,,
142,,feedback,,html-keyboard-response,142,362494,0.0-1.0-195.0-0.0,0,0,64747,,,,,,27.0,,,,,,,,,,,,,,,162.0,1.0,,,,,,,,,
143,,iti,,html-keyboard-response,143,364004,0.0-1.0-196.0,0,0,64747,,,,,,,,,,,,,,,,,,,,,163.5,1.5,,,,,,,,,
144,,rl_choice,,html-keyboard-response,144,364958,0.0-1.0-198.0,0,0,64747,,950.0,,,68.0,28.0,28.0,1.0,easy,2000.0,1000.0,1.0,80.0,20.0,100.0,20.0,A,B,/static/Simple_RL/Stimuli/Fractals_stims/A.jpg,/static/Simple_RL/Stimuli/Fractals_stims/B.jpg,164.45,0.95,0.0,1.0,80.0,20.0,100.0,20.0,A,B,
145,,rl_choice_confirmation,,html-keyboard-response,145,365513,0.0-1.0-199.0-0.0,0,0,64747,,,,,,28.0,,,,,,,,,,,,,,,165.0,0.55,,,,,,,,,
146,,isi,,html-keyboard-response,146,366520,0.0-1.0-201.0,0,0,64747,,,,,,,,,,,,,,,,,,,,,166.0,1.0,,,,,,,,,
147,,feedback,,html-keyboard-response,147,367531,0.0-1.0-202.0-0.0,0,0,64747,,,,,,28.0,,,,,,,,,,,,,,,167.0,1.0,,,,,,,,,
148,,iti,,html-keyboard-response,148,369542,0.0-1.0-203.0,0,0,64747,,,,,,,,,,,,,,,,,,,,,169.0,2.0,,,,,,,,,
149,,rl_choice,,html-keyboard-response,149,370521,0.0-1.0-205.0,0,0,64747,,974.0,,,75.0,29.0,29.0,1.0,hard,1000.0,1500.0,1.0,60.0,40.0,60.0,20.0,C,D,/static/Simple_RL/Stimuli/Fractals_stims/C.jpg,/static/Simple_RL/Stimuli/Fractals_stims/D.jpg,169.974,0.974,0.0,0.0,40.0,60.0,20.0,60.0,D,C,
150,,rl_choice_confirmation,,html-keyboard-response,150,371056,0.0-1.0-206.0-0.0,0,0,64747,,,,,,29.0,,,,,,,,,,,,,,,170.5,0.526,,,,,,,,,
151,,isi,,html-keyboard-response,151,372567,0.0-1.0-208.0,0,0,64747,,,,,,,,,,,,,,,,,,,,,172.0,1.5,,,,,,,,,
152,,feedback,,html-keyboard-response,152,373595,0.0-1.0-209.0-0.0,0,0,64747,,,,,,29.0,,,,,,,,,,,,,,,173.0,1.0,,,,,,,,,
153,,iti,,html-keyboard-response,153,374604,0.0-1.0-210.0,0,0,64747,,,,,,,,,,,,,,,,,,,,,174.0,1.0,,,,,,,,,
154,,rl_choice,,html-keyboard-response,154,374987,0.0-1.0-212.0,0,0,64747,,379.0,,,68.0,30.0,30.0,1.0,easy,1500.0,2000.0,1.0,80.0,20.0,60.0,20.0,A,B,/static/Simple_RL/Stimuli/Fractals_stims/A.jpg,/static/Simple_RL/Stimuli/Fractals_stims/B.jpg,174.379,0.379,0.0,1.0,80.0,20.0,60.0,20.0,A,B,
155,,rl_choice_confirmation,,html-keyboard-response,155,376115,0.0-1.0-213.0-0.0,0,0,64747,,,,,,30.0,,,,,,,,,,,,,,,175.5,1.121,,,,,,,,,
156,,isi,,html-keyboard-response,156,378122,0.0-1.0-215.0,0,0,64747,,,,,,,,,,,,,,,,,,,,,177.5,2.0,,,,,,,,,
157,,feedback,,html-keyboard-response,157,379129,0.0-1.0-216.0-0.0,0,0,64747,,,,,,30.0,,,,,,,,,,,,,,,178.5,1.0,,,,,,,,,
158,,iti,,html-keyboard-response,158,380638,0.0-1.0-217.0,0,0,64747,,,,,,,,,,,,,,,,,,,,,180.0,1.5,,,,,,,,,
159,,rl_choice,,html-keyboard-response,159,381082,0.0-1.0-219.0,0,0,64747,,441.0,,,68.0,31.0,31.0,1.0,hard,1500.0,2000.0,0.0,40.0,60.0,40.0,80.0,D,C,/static/Simple_RL/Stimuli/Fractals_stims/D.jpg,/static/Simple_RL/Stimuli/Fractals_stims/C.jpg,180.441,0.441,0.0,1.0,40.0,60.0,40.0,80.0,D,C,
160,,rl_choice_confirmation,,html-keyboard-response,160,382151,0.0-1.0-220.0-0.0,0,0,64747,,,,,,31.0,,,,,,,,,,,,,,,181.5,1.059,,,,,,,,,
161,,isi,,html-keyboard-response,161,384157,0.0-1.0-222.0,0,0,64747,,,,,,,,,,,,,,,,,,,,,183.5,2.0,,,,,,,,,
162,,feedback,,html-keyboard-response,162,385166,0.0-1.0-223.0-0.0,0,0,64747,,,,,,31.0,,,,,,,,,,,,,,,184.5,1.0,,,,,,,,,
163,,iti,,html-keyboard-response,163,386669,0.0-1.0-224.0,0,0,64747,,,,,,,,,,,,,,,,,,,,,186.0,1.5,,,,,,,,,
164,,rl_choice,,html-keyboard-response,164,387161,0.0-1.0-226.0,0,0,64747,,488.0,,,75.0,32.0,32.0,1.0,easy,1000.0,1000.0,0.0,20.0,80.0,20.0,80.0,B,A,/static/Simple_RL/Stimuli/Fractals_stims/B.jpg,/static/Simple_RL/Stimuli/Fractals_stims/A.jpg,186.488,0.488,0.0,0.0,80.0,20.0,80.0,20.0,A,B,
165,,rl_choice_confirmation,,html-keyboard-response,165,388180,0.0-1.0-227.0-0.0,0,0,64747,,,,,,32.0,,,,,,,,,,,,,,,187.5,1.012,,,,,,,,,
166,,isi,,html-keyboard-response,166,389186,0.0-1.0-229.0,0,0,64747,,,,,,,,,,,,,,,,,,,,,188.5,1.0,,,,,,,,,
167,,feedback,,html-keyboard-response,167,390195,0.0-1.0-230.0-0.0,0,0,64747,,,,,,32.0,,,,,,,,,,,,,,,189.5,1.0,,,,,,,,,
168,,iti,,html-keyboard-response,168,391207,0.0-1.0-231.0,0,0,64747,,,,,,,,,,,,,,,,,,,,,190.5,1.0,,,,,,,,,
169,,rl_choice,,html-keyboard-response,169,391774,0.0-1.0-233.0,0,0,64747,,564.0,,,68.0,33.0,33.0,1.0,easy,3500.0,1000.0,1.0,80.0,20.0,80.0,40.0,A,B,/static/Simple_RL/Stimuli/Fractals_stims/A.jpg,/static/Simple_RL/Stimuli/Fractals_stims/B.jpg,191.064,0.564,0.0,1.0,80.0,20.0,80.0,40.0,A,B,
170,,rl_choice_confirmation,,html-keyboard-response,170,392714,0.0-1.0-234.0-0.0,0,0,64747,,,,,,33.0,,,,,,,,,,,,,,,192.0,0.936,,,,,,,,,
171,,isi,,html-keyboard-response,171,393722,0.0-1.0-236.0,0,0,64747,,,,,,,,,,,,,,,,,,,,,193.0,1.0,,,,,,,,,
172,,feedback,,html-keyboard-response,172,394733,0.0-1.0-237.0-0.0,0,0,64747,,,,,,33.0,,,,,,,,,,,,,,,194.0,1.0,,,,,,,,,
173,,iti,,html-keyboard-response,173,398238,0.0-1.0-238.0,0,0,64747,,,,,,,,,,,,,,,,,,,,,197.5,3.5,,,,,,,,,
174,,rl_choice,,html-keyboard-response,174,398753,0.0-1.0-240.0,0,0,64747,,510.0,,,68.0,34.0,34.0,1.0,hard,2000.0,1500.0,1.0,60.0,40.0,60.0,20.0,C,D,/static/Simple_RL/Stimuli/Fractals_stims/C.jpg,/static/Simple_RL/Stimuli/Fractals_stims/D.jpg,198.01,0.51,0.0,1.0,60.0,40.0,60.0,20.0,C,D,
175,,rl_choice_confirmation,,html-keyboard-response,175,399749,0.0-1.0-241.0-0.0,0,0,64747,,,,,,34.0,,,,,,,,,,,,,,,199.0,0.99,,,,,,,,,
176,,isi,,html-keyboard-response,176,401261,0.0-1.0-243.0,0,0,64747,,,,,,,,,,,,,,,,,,,,,200.5,1.5,,,,,,,,,
177,,feedback,,html-keyboard-response,177,402274,0.0-1.0-244.0-0.0,0,0,64747,,,,,,34.0,,,,,,,,,,,,,,,201.5,1.0,,,,,,,,,
178,,iti,,html-keyboard-response,178,404281,0.0-1.0-245.0,0,0,64747,,,,,,,,,,,,,,,,,,,,,203.5,2.0,,,,,,,,,
179,,rl_choice,,html-keyboard-response,179,404882,0.0-1.0-247.0,0,0,64747,,597.0,,,68.0,35.0,35.0,1.0,hard,1000.0,3500.0,0.0,40.0,60.0,60.0,80.0,D,C,/static/Simple_RL/Stimuli/Fractals_stims/D.jpg,/static/Simple_RL/Stimuli/Fractals_stims/C.jpg,204.097,0.597,0.0,1.0,40.0,60.0,60.0,80.0,D,C,
180,,rl_choice_confirmation,,html-keyboard-response,180,405791,0.0-1.0-248.0-0.0,0,0,64747,,,,,,35.0,,,,,,,,,,,,,,,205.0,0.903,,,,,,,,,
181,,isi,,html-keyboard-response,181,409302,0.0-1.0-250.0,0,0,64747,,,,,,,,,,,,,,,,,,,,,208.5,3.5,,,,,,,,,
182,,feedback,,html-keyboard-response,182,410314,0.0-1.0-251.0-0.0,0,0,64747,,,,,,35.0,,,,,,,,,,,,,,,209.5,1.0,,,,,,,,,
183,,iti,,html-keyboard-response,183,411320,0.0-1.0-252.0,0,0,64747,,,,,,,,,,,,,,,,,,,,,210.5,1.0,,,,,,,,,
184,,rl_choice,,html-keyboard-response,184,411789,0.0-1.0-254.0,0,0,64747,,466.0,,,75.0,36.0,36.0,1.0,hard,1500.0,1000.0,1.0,60.0,40.0,40.0,40.0,C,D,/static/Simple_RL/Stimuli/Fractals_stims/C.jpg,/static/Simple_RL/Stimuli/Fractals_stims/D.jpg,210.966,0.466,0.0,0.0,40.0,60.0,40.0,40.0,D,C,
185,,rl_choice_confirmation,,html-keyboard-response,185,412835,0.0-1.0-255.0-0.0,0,0,64747,,,,,,36.0,,,,,,,,,,,,,,,212.0,1.034,,,,,,,,,
186,,isi,,html-keyboard-response,186,413843,0.0-1.0-257.0,0,0,64747,,,,,,,,,,,,,,,,,,,,,213.0,1.0,,,,,,,,,
187,,feedback,,html-keyboard-response,187,414854,0.0-1.0-258.0-0.0,0,0,64747,,,,,,36.0,,,,,,,,,,,,,,,214.0,1.0,,,,,,,,,
188,,iti,,html-keyboard-response,188,416360,0.0-1.0-259.0,0,0,64747,,,,,,,,,,,,,,,,,,,,,215.5,1.5,,,,,,,,,
189,,rl_choice,,html-keyboard-response,189,416881,0.0-1.0-261.0,0,0,64747,,518.0,,,75.0,37.0,37.0,1.0,easy,1000.0,1000.0,0.0,20.0,80.0,0.0,100.0,B,A,/static/Simple_RL/Stimuli/Fractals_stims/B.jpg,/static/Simple_RL/Stimuli/Fractals_stims/A.jpg,216.018,0.518,0.0,0.0,80.0,20.0,100.0,0.0,A,B,
190,,rl_choice_confirmation,,html-keyboard-response,190,417873,0.0-1.0-262.0-0.0,0,0,64747,,,,,,37.0,,,,,,,,,,,,,,,217.0,0.982,,,,,,,,,
191,,isi,,html-keyboard-response,191,418878,0.0-1.0-264.0,0,0,64747,,,,,,,,,,,,,,,,,,,,,218.0,1.0,,,,,,,,,
192,,feedback,,html-keyboard-response,192,419889,0.0-1.0-265.0-0.0,0,0,64747,,,,,,37.0,,,,,,,,,,,,,,,219.0,1.0,,,,,,,,,
193,,iti,,html-keyboard-response,193,420897,0.0-1.0-266.0,0,0,64747,,,,,,,,,,,,,,,,,,,,,220.0,1.0,,,,,,,,,
194,,rl_choice,,html-keyboard-response,194,421531,0.0-1.0-268.0,0,0,64747,,629.0,,,68.0,38.0,38.0,1.0,hard,1500.0,1000.0,0.0,40.0,60.0,40.0,60.0,D,C,/static/Simple_RL/Stimuli/Fractals_stims/D.jpg,/static/Simple_RL/Stimuli/Fractals_stims/C.jpg,220.629,0.629,0.0,1.0,40.0,60.0,40.0,60.0,D,C,
195,,rl_choice_confirmation,,html-keyboard-response,195,422419,0.0-1.0-269.0-0.0,0,0,64747,,,,,,38.0,,,,,,,,,,,,,,,221.5,0.871,,,,,,,,,
196,,isi,,html-keyboard-response,196,423423,0.0-1.0-271.0,0,0,64747,,,,,,,,,,,,,,,,,,,,,222.5,1.0,,,,,,,,,
197,,feedback,,html-keyboard-response,197,424427,0.0-1.0-272.0-0.0,0,0,64747,,,,,,38.0,,,,,,,,,,,,,,,223.5,1.0,,,,,,,,,
198,,iti,,html-keyboard-response,198,425935,0.0-1.0-273.0,0,0,64747,,,,,,,,,,,,,,,,,,,,,225.0,1.5,,,,,,,,,
199,,rl_choice,,html-keyboard-response,199,426416,0.0-1.0-275.0,0,0,64747,,477.0,,,68.0,39.0,39.0,1.0,hard,1500.0,3000.0,0.0,40.0,60.0,60.0,60.0,D,C,/static/Simple_RL/Stimuli/Fractals_stims/D.jpg,/static/Simple_RL/Stimuli/Fractals_stims/C.jpg,225.477,0.477,0.0,1.0,40.0,60.0,60.0,60.0,D,C,
200,,rl_choice_confirmation,,html-keyboard-response,200,427451,0.0-1.0-276.0-0.0,0,0,64747,,,,,,39.0,,,,,,,,,,,,,,,226.5,1.023,,,,,,,,,
201,,isi,,html-keyboard-response,201,430457,0.0-1.0-278.0,0,0,64747,,,,,,,,,,,,,,,,,,,,,229.5,3.0,,,,,,,,,
202,,feedback,,html-keyboard-response,202,431466,0.0-1.0-279.0-0.0,0,0,64747,,,,,,39.0,,,,,,,,,,,,,,,230.5,1.0,,,,,,,,,
203,,iti,,html-keyboard-response,203,432978,0.0-1.0-280.0,0,0,64747,,,,,,,,,,,,,,,,,,,,,232.0,1.5,,,,,,,,,
204,,block_over,,html-keyboard-response,204,450120,0.0-1.0-281.0-0.0,0,0,64747,,17138.0,,,68.0,39.0,,,,,,,,,,,,,,,,,,,,,,,,,
205,,start_run,,html-keyboard-response,205,450780,0.0-1.0-281.0-1.0,0,0,64747,,658.0,,,84.0,,,,,,,,,,,,,,,,,,,,,,,,,,
206,,rl_choice,,html-keyboard-response,206,451526,0.0-1.0-282.0,0,0,64747,,742.0,,,68.0,40.0,40.0,2.0,easy,3000.0,1000.0,1.0,80.0,20.0,80.0,40.0,A,B,/static/Simple_RL/Stimuli/Fractals_stims/A.jpg,/static/Simple_RL/Stimuli/Fractals_stims/B.jpg,0.742,0.742,0.0,1.0,80.0,20.0,80.0,40.0,A,B,
207,,rl_choice_confirmation,,html-keyboard-response,207,452295,0.0-1.0-283.0-0.0,0,0,64747,,,,,,40.0,,,,,,,,,,,,,,,1.5,0.758,,,,,,,,,
208,,isi,,html-keyboard-response,208,453303,0.0-1.0-285.0,0,0,64747,,,,,,,,,,,,,,,,,,,,,2.5,1.0,,,,,,,,,
209,,feedback,,html-keyboard-response,209,454311,0.0-1.0-286.0-0.0,0,0,64747,,,,,,40.0,,,,,,,,,,,,,,,3.5,1.0,,,,,,,,,
210,,iti,,html-keyboard-response,210,457316,0.0-1.0-287.0,0,0,64747,,,,,,,,,,,,,,,,,,,,,6.5,3.0,,,,,,,,,
211,,rl_choice,,html-keyboard-response,211,458080,0.0-1.0-289.0,0,0,64747,,760.0,,,68.0,41.0,41.0,2.0,hard,1500.0,1000.0,1.0,60.0,40.0,60.0,40.0,C,D,/static/Simple_RL/Stimuli/Fractals_stims/C.jpg,/static/Simple_RL/Stimuli/Fractals_stims/D.jpg,7.26,0.76,0.0,1.0,60.0,40.0,60.0,40.0,C,D,
212,,rl_choice_confirmation,,html-keyboard-response,212,458825,0.0-1.0-290.0-0.0,0,0,64747,,,,,,41.0,,,,,,,,,,,,,,,8.0,0.74,,,,,,,,,
213,,isi,,html-keyboard-response,213,459828,0.0-1.0-292.0,0,0,64747,,,,,,,,,,,,,,,,,,,,,9.0,1.0,,,,,,,,,
214,,feedback,,html-keyboard-response,214,460834,0.0-1.0-293.0-0.0,0,0,64747,,,,,,41.0,,,,,,,,,,,,,,,10.0,1.0,,,,,,,,,
215,,iti,,html-keyboard-response,215,462339,0.0-1.0-294.0,0,0,64747,,,,,,,,,,,,,,,,,,,,,11.5,1.5,,,,,,,,,
216,,rl_choice,,html-keyboard-response,216,463001,0.0-1.0-296.0,0,0,64747,,658.0,,,75.0,42.0,42.0,2.0,easy,1000.0,2000.0,0.0,20.0,80.0,20.0,60.0,B,A,/static/Simple_RL/Stimuli/Fractals_stims/B.jpg,/static/Simple_RL/Stimuli/Fractals_stims/A.jpg,12.158,0.658,0.0,0.0,80.0,20.0,60.0,20.0,A,B,
217,,rl_choice_confirmation,,html-keyboard-response,217,463855,0.0-1.0-297.0-0.0,0,0,64747,,,,,,42.0,,,,,,,,,,,,,,,13.0,0.842,,,,,,,,,
218,,isi,,html-keyboard-response,218,465864,0.0-1.0-299.0,0,0,64747,,,,,,,,,,,,,,,,,,,,,15.0,2.0,,,,,,,,,
219,,feedback,,html-keyboard-response,219,466873,0.0-1.0-300.0-0.0,0,0,64747,,,,,,42.0,,,,,,,,,,,,,,,16.0,1.0,,,,,,,,,
220,,iti,,html-keyboard-response,220,467878,0.0-1.0-301.0,0,0,64747,,,,,,,,,,,,,,,,,,,,,17.0,1.0,,,,,,,,,
221,,rl_choice,,html-keyboard-response,221,468511,0.0-1.0-303.0,0,0,64747,,629.0,,,75.0,43.0,43.0,2.0,hard,1000.0,1000.0,0.0,40.0,60.0,60.0,40.0,D,C,/static/Simple_RL/Stimuli/Fractals_stims/D.jpg,/static/Simple_RL/Stimuli/Fractals_stims/C.jpg,17.629,0.629,0.0,0.0,60.0,40.0,40.0,60.0,C,D,
222,,rl_choice_confirmation,,html-keyboard-response,222,469390,0.0-1.0-304.0-0.0,0,0,64747,,,,,,43.0,,,,,,,,,,,,,,,18.5,0.871,,,,,,,,,
223,,isi,,html-keyboard-response,223,470396,0.0-1.0-306.0,0,0,64747,,,,,,,,,,,,,,,,,,,,,19.5,1.0,,,,,,,,,
224,,feedback,,html-keyboard-response,224,471402,0.0-1.0-307.0-0.0,0,0,64747,,,,,,43.0,,,,,,,,,,,,,,,20.5,1.0,,,,,,,,,
225,,iti,,html-keyboard-response,225,472412,0.0-1.0-308.0,0,0,64747,,,,,,,,,,,,,,,,,,,,,21.5,1.0,,,,,,,,,
226,,rl_choice,,html-keyboard-response,226,473142,0.0-1.0-310.0,0,0,64747,,725.0,,,68.0,44.0,44.0,2.0,hard,2000.0,3000.0,0.0,40.0,60.0,20.0,40.0,D,C,/static/Simple_RL/Stimuli/Fractals_stims/D.jpg,/static/Simple_RL/Stimuli/Fractals_stims/C.jpg,22.225,0.725,0.0,1.0,40.0,60.0,20.0,40.0,D,C,
227,,rl_choice_confirmation,,html-keyboard-response,227,473929,0.0-1.0-311.0-0.0,0,0,64747,,,,,,44.0,,,,,,,,,,,,,,,23.0,0.775,,,,,,,,,
228,,isi,,html-keyboard-response,228,476940,0.0-1.0-313.0,0,0,64747,,,,,,,,,,,,,,,,,,,,,26.0,3.0,,,,,,,,,
229,,feedback,,html-keyboard-response,229,477947,0.0-1.0-314.0-0.0,0,0,64747,,,,,,44.0,,,,,,,,,,,,,,,27.0,1.0,,,,,,,,,
230,,iti,,html-keyboard-response,230,479954,0.0-1.0-315.0,0,0,64747,,,,,,,,,,,,,,,,,,,,,29.0,2.0,,,,,,,,,
231,,rl_choice,,html-keyboard-response,231,480658,0.0-1.0-317.0,0,0,64747,,699.0,,,75.0,45.0,45.0,2.0,hard,1500.0,3500.0,0.0,40.0,60.0,20.0,80.0,D,C,/static/Simple_RL/Stimuli/Fractals_stims/D.jpg,/static/Simple_RL/Stimuli/Fractals_stims/C.jpg,29.699,0.699,0.0,0.0,60.0,40.0,80.0,20.0,C,D,
232,,rl_choice_confirmation,,html-keyboard-response,232,481473,0.0-1.0-318.0-0.0,0,0,64747,,,,,,45.0,,,,,,,,,,,,,,,30.5,0.801,,,,,,,,,
233,,isi,,html-keyboard-response,233,484984,0.0-1.0-320.0,0,0,64747,,,,,,,,,,,,,,,,,,,,,34.0,3.5,,,,,,,,,
234,,feedback,,html-keyboard-response,234,485992,0.0-1.0-321.0-0.0,0,0,64747,,,,,,45.0,,,,,,,,,,,,,,,35.0,1.0,,,,,,,,,
235,,iti,,html-keyboard-response,235,487498,0.0-1.0-322.0,0,0,64747,,,,,,,,,,,,,,,,,,,,,36.5,1.5,,,,,,,,,
236,,rl_choice,,html-keyboard-response,236,488082,0.0-1.0-324.0,0,0,64747,,580.0,,,68.0,46.0,46.0,2.0,hard,1000.0,1000.0,1.0,60.0,40.0,80.0,60.0,C,D,/static/Simple_RL/Stimuli/Fractals_stims/C.jpg,/static/Simple_RL/Stimuli/Fractals_stims/D.jpg,37.08,0.58,0.0,1.0,60.0,40.0,80.0,60.0,C,D,
237,,rl_choice_confirmation,,html-keyboard-response,237,489009,0.0-1.0-325.0-0.0,0,0,64747,,,,,,46.0,,,,,,,,,,,,,,,38.0,0.92,,,,,,,,,
238,,isi,,html-keyboard-response,238,490020,0.0-1.0-327.0,0,0,64747,,,,,,,,,,,,,,,,,,,,,39.0,1.0,,,,,,,,,
239,,feedback,,html-keyboard-response,239,491033,0.0-1.0-328.0-0.0,0,0,64747,,,,,,46.0,,,,,,,,,,,,,,,40.0,1.0,,,,,,,,,
240,,iti,,html-keyboard-response,240,492043,0.0-1.0-329.0,0,0,64747,,,,,,,,,,,,,,,,,,,,,41.0,1.0,,,,,,,,,
241,,rl_choice,,html-keyboard-response,241,493384,0.0-1.0-331.0,0,0,64747,,1337.0,,,68.0,47.0,47.0,2.0,hard,1500.0,2000.0,0.0,40.0,60.0,40.0,60.0,D,C,/static/Simple_RL/Stimuli/Fractals_stims/D.jpg,/static/Simple_RL/Stimuli/Fractals_stims/C.jpg,42.337,1.337,0.0,1.0,40.0,60.0,40.0,60.0,D,C,
242,,rl_choice_confirmation,,html-keyboard-response,242,493552,0.0-1.0-332.0-0.0,0,0,64747,,,,,,47.0,,,,,,,,,,,,,,,42.5,0.163,,,,,,,,,
243,,isi,,html-keyboard-response,243,495561,0.0-1.0-334.0,0,0,64747,,,,,,,,,,,,,,,,,,,,,44.5,2.0,,,,,,,,,
244,,feedback,,html-keyboard-response,244,496571,0.0-1.0-335.0-0.0,0,0,64747,,,,,,47.0,,,,,,,,,,,,,,,45.5,1.0,,,,,,,,,
245,,iti,,html-keyboard-response,245,498081,0.0-1.0-336.0,0,0,64747,,,,,,,,,,,,,,,,,,,,,47.0,1.5,,,,,,,,,
246,,rl_choice,,html-keyboard-response,246,498685,0.0-1.0-338.0,0,0,64747,,601.0,,,68.0,48.0,48.0,2.0,easy,3500.0,1500.0,1.0,80.0,20.0,100.0,20.0,A,B,/static/Simple_RL/Stimuli/Fractals_stims/A.jpg,/static/Simple_RL/Stimuli/Fractals_stims/B.jpg,47.601,0.601,0.0,1.0,80.0,20.0,100.0,20.0,A,B,
247,,rl_choice_confirmation,,html-keyboard-response,247,499606,0.0-1.0-339.0-0.0,0,0,64747,,,,,,48.0,,,,,,,,,,,,,,,48.5,0.899,,,,,,,,,
248,,isi,,html-keyboard-response,248,501132,0.0-1.0-341.0,0,0,64747,,,,,,,,,,,,,,,,,,,,,50.0,1.5,,,,,,,,,
249,,feedback,,html-keyboard-response,249,502144,0.0-1.0-342.0-0.0,0,0,64747,,,,,,48.0,,,,,,,,,,,,,,,51.0,1.0,,,,,,,,,
250,,iti,,html-keyboard-response,250,505649,0.0-1.0-343.0,0,0,64747,,,,,,,,,,,,,,,,,,,,,54.5,3.5,,,,,,,,,
251,,rl_choice,,html-keyboard-response,251,506319,0.0-1.0-345.0,0,0,64747,,665.0,,,75.0,49.0,49.0,2.0,hard,2000.0,2000.0,1.0,60.0,40.0,80.0,40.0,C,D,/static/Simple_RL/Stimuli/Fractals_stims/C.jpg,/static/Simple_RL/Stimuli/Fractals_stims/D.jpg,55.165,0.665,0.0,0.0,40.0,60.0,40.0,80.0,D,C,
252,,rl_choice_confirmation,,html-keyboard-response,252,507164,0.0-1.0-346.0-0.0,0,0,64747,,,,,,49.0,,,,,,,,,,,,,,,56.0,0.835,,,,,,,,,
253,,isi,,html-keyboard-response,253,509169,0.0-1.0-348.0,0,0,64747,,,,,,,,,,,,,,,,,,,,,58.0,2.0,,,,,,,,,
254,,feedback,,html-keyboard-response,254,510181,0.0-1.0-349.0-0.0,0,0,64747,,,,,,49.0,,,,,,,,,,,,,,,59.0,1.0,,,,,,,,,
255,,iti,,html-keyboard-response,255,512192,0.0-1.0-350.0,0,0,64747,,,,,,,,,,,,,,,,,,,,,61.0,2.0,,,,,,,,,
256,,rl_choice,,html-keyboard-response,256,512791,0.0-1.0-352.0,0,0,64747,,595.0,,,68.0,50.0,50.0,2.0,easy,1500.0,2000.0,1.0,80.0,20.0,100.0,0.0,A,B,/static/Simple_RL/Stimuli/Fractals_stims/A.jpg,/static/Simple_RL/Stimuli/Fractals_stims/B.jpg,61.595,0.595,0.0,1.0,80.0,20.0,100.0,0.0,A,B,
257,,rl_choice_confirmation,,html-keyboard-response,257,513701,0.0-1.0-353.0-0.0,0,0,64747,,,,,,50.0,,,,,,,,,,,,,,,62.5,0.905,,,,,,,,,
258,,isi,,html-keyboard-response,258,515707,0.0-1.0-355.0,0,0,64747,,,,,,,,,,,,,,,,,,,,,64.5,2.0,,,,,,,,,
259,,feedback,,html-keyboard-response,259,516719,0.0-1.0-356.0-0.0,0,0,64747,,,,,,50.0,,,,,,,,,,,,,,,65.5,1.0,,,,,,,,,
260,,iti,,html-keyboard-response,260,518224,0.0-1.0-357.0,0,0,64747,,,,,,,,,,,,,,,,,,,,,67.0,1.5,,,,,,,,,
261,,rl_choice,,html-keyboard-response,261,518727,0.0-1.0-359.0,0,0,64747,,498.0,,,75.0,51.0,51.0,2.0,easy,1500.0,3000.0,0.0,20.0,80.0,20.0,60.0,B,A,/static/Simple_RL/Stimuli/Fractals_stims/B.jpg,/static/Simple_RL/Stimuli/Fractals_stims/A.jpg,67.498,0.498,0.0,0.0,80.0,20.0,60.0,20.0,A,B,
262,,rl_choice_confirmation,,html-keyboard-response,262,519735,0.0-1.0-360.0-0.0,0,0,64747,,,,,,51.0,,,,,,,,,,,,,,,68.5,1.002,,,,,,,,,
263,,isi,,html-keyboard-response,263,522746,0.0-1.0-362.0,0,0,64747,,,,,,,,,,,,,,,,,,,,,71.5,3.0,,,,,,,,,
264,,feedback,,html-keyboard-response,264,523755,0.0-1.0-363.0-0.0,0,0,64747,,,,,,51.0,,,,,,,,,,,,,,,72.5,1.0,,,,,,,,,
265,,iti,,html-keyboard-response,265,525265,0.0-1.0-364.0,0,0,64747,,,,,,,,,,,,,,,,,,,,,74.0,1.5,,,,,,,,,
266,,rl_choice,,html-keyboard-response,266,525853,0.0-1.0-366.0,0,0,64747,,584.0,,,75.0,52.0,52.0,2.0,hard,3500.0,2000.0,0.0,40.0,60.0,60.0,40.0,D,C,/static/Simple_RL/Stimuli/Fractals_stims/D.jpg,/static/Simple_RL/Stimuli/Fractals_stims/C.jpg,74.584,0.584,0.0,0.0,60.0,40.0,40.0,60.0,C,D,
267,,rl_choice_confirmation,,html-keyboard-response,267,526780,0.0-1.0-367.0-0.0,0,0,64747,,,,,,52.0,,,,,,,,,,,,,,,75.5,0.916,,,,,,,,,
268,,isi,,html-keyboard-response,268,528790,0.0-1.0-369.0,0,0,64747,,,,,,,,,,,,,,,,,,,,,77.5,2.0,,,,,,,,,
269,,feedback,,html-keyboard-response,269,529803,0.0-1.0-370.0-0.0,0,0,64747,,,,,,52.0,,,,,,,,,,,,,,,78.5,1.0,,,,,,,,,
270,,iti,,html-keyboard-response,270,533308,0.0-1.0-371.0,0,0,64747,,,,,,,,,,,,,,,,,,,,,82.0,3.5,,,,,,,,,
271,,rl_choice,,html-keyboard-response,271,533881,0.0-1.0-373.0,0,0,64747,,570.0,,,75.0,53.0,53.0,2.0,easy,1500.0,2000.0,0.0,20.0,80.0,0.0,60.0,B,A,/static/Simple_RL/Stimuli/Fractals_stims/B.jpg,/static/Simple_RL/Stimuli/Fractals_stims/A.jpg,82.57,0.57,0.0,0.0,80.0,20.0,60.0,0.0,A,B,
272,,rl_choice_confirmation,,html-keyboard-response,272,534818,0.0-1.0-374.0-0.0,0,0,64747,,,,,,53.0,,,,,,,,,,,,,,,83.5,0.93,,,,,,,,,
273,,isi,,html-keyboard-response,273,536823,0.0-1.0-376.0,0,0,64747,,,,,,,,,,,,,,,,,,,,,85.5,2.0,,,,,,,,,
274,,feedback,,html-keyboard-response,274,537830,0.0-1.0-377.0-0.0,0,0,64747,,,,,,53.0,,,,,,,,,,,,,,,86.5,1.0,,,,,,,,,
275,,iti,,html-keyboard-response,275,539336,0.0-1.0-378.0,0,0,64747,,,,,,,,,,,,,,,,,,,,,88.0,1.5,,,,,,,,,
276,,rl_choice,,html-keyboard-response,276,539959,0.0-1.0-380.0,0,0,64747,,620.0,,,68.0,54.0,54.0,2.0,easy,1000.0,1000.0,0.0,20.0,80.0,20.0,60.0,B,A,/static/Simple_RL/Stimuli/Fractals_stims/B.jpg,/static/Simple_RL/Stimuli/Fractals_stims/A.jpg,88.62,0.62,0.0,1.0,20.0,80.0,20.0,60.0,B,A,
277,,rl_choice_confirmation,,html-keyboard-response,277,540851,0.0-1.0-381.0-0.0,0,0,64747,,,,,,54.0,,,,,,,,,,,,,,,89.5,0.88,,,,,,,,,
278,,isi,,html-keyboard-response,278,541855,0.0-1.0-383.0,0,0,64747,,,,,,,,,,,,,,,,,,,,,90.5,1.0,,,,,,,,,
279,,feedback,,html-keyboard-response,279,542865,0.0-1.0-384.0-0.0,0,0,64747,,,,,,54.0,,,,,,,,,,,,,,,91.5,1.0,,,,,,,,,
280,,iti,,html-keyboard-response,280,543870,0.0-1.0-385.0,0,0,64747,,,,,,,,,,,,,,,,,,,,,92.5,1.0,,,,,,,,,
281,,rl_choice,,html-keyboard-response,281,544589,0.0-1.0-387.0,0,0,64747,,715.0,,,68.0,55.0,55.0,2.0,hard,1500.0,2000.0,1.0,60.0,40.0,80.0,40.0,C,D,/static/Simple_RL/Stimuli/Fractals_stims/C.jpg,/static/Simple_RL/Stimuli/Fractals_stims/D.jpg,93.215,0.715,0.0,1.0,60.0,40.0,80.0,40.0,C,D,
282,,rl_choice_confirmation,,html-keyboard-response,282,545382,0.0-1.0-388.0-0.0,0,0,64747,,,,,,55.0,,,,,,,,,,,,,,,94.0,0.785,,,,,,,,,
283,,isi,,html-keyboard-response,283,547394,0.0-1.0-390.0,0,0,64747,,,,,,,,,,,,,,,,,,,,,96.0,2.0,,,,,,,,,
284,,feedback,,html-keyboard-response,284,548403,0.0-1.0-391.0-0.0,0,0,64747,,,,,,55.0,,,,,,,,,,,,,,,97.0,1.0,,,,,,,,,
285,,iti,,html-keyboard-response,285,549912,0.0-1.0-392.0,0,0,64747,,,,,,,,,,,,,,,,,,,,,98.5,1.5,,,,,,,,,
286,,rl_choice,,html-keyboard-response,286,550444,0.0-1.0-394.0,0,0,64747,,527.0,,,68.0,56.0,56.0,2.0,easy,1000.0,1000.0,1.0,80.0,20.0,80.0,40.0,A,B,/static/Simple_RL/Stimuli/Fractals_stims/A.jpg,/static/Simple_RL/Stimuli/Fractals_stims/B.jpg,99.027,0.527,0.0,1.0,80.0,20.0,80.0,40.0,A,B,
287,,rl_choice_confirmation,,html-keyboard-response,287,551427,0.0-1.0-395.0-0.0,0,0,64747,,,,,,56.0,,,,,,,,,,,,,,,100.0,0.973,,,,,,,,,
288,,isi,,html-keyboard-response,288,552440,0.0-1.0-397.0,0,0,64747,,,,,,,,,,,,,,,,,,,,,101.0,1.0,,,,,,,,,
289,,feedback,,html-keyboard-response,289,553446,0.0-1.0-398.0-0.0,0,0,64747,,,,,,56.0,,,,,,,,,,,,,,,102.0,1.0,,,,,,,,,
290,,iti,,html-keyboard-response,290,554453,0.0-1.0-399.0,0,0,64747,,,,,,,,,,,,,,,,,,,,,103.0,1.0,,,,,,,,,
291,,rl_choice,,html-keyboard-response,291,555082,0.0-1.0-401.0,0,0,64747,,625.0,,,68.0,57.0,57.0,2.0,easy,2000.0,3000.0,1.0,80.0,20.0,60.0,0.0,A,B,/static/Simple_RL/Stimuli/Fractals_stims/A.jpg,/static/Simple_RL/Stimuli/Fractals_stims/B.jpg,103.625,0.625,0.0,1.0,80.0,20.0,60.0,0.0,A,B,
292,,rl_choice_confirmation,,html-keyboard-response,292,555965,0.0-1.0-402.0-0.0,0,0,64747,,,,,,57.0,,,,,,,,,,,,,,,104.5,0.875,,,,,,,,,
293,,isi,,html-keyboard-response,293,558971,0.0-1.0-404.0,0,0,64747,,,,,,,,,,,,,,,,,,,,,107.5,3.0,,,,,,,,,
294,,feedback,,html-keyboard-response,294,559983,0.0-1.0-405.0-0.0,0,0,64747,,,,,,57.0,,,,,,,,,,,,,,,108.5,1.0,,,,,,,,,
295,,iti,,html-keyboard-response,295,561993,0.0-1.0-406.0,0,0,64747,,,,,,,,,,,,,,,,,,,,,110.5,2.0,,,,,,,,,
296,,rl_choice,,html-keyboard-response,296,562706,0.0-1.0-408.0,0,0,64747,,708.0,,,75.0,58.0,58.0,2.0,hard,2000.0,1000.0,1.0,60.0,40.0,40.0,40.0,C,D,/static/Simple_RL/Stimuli/Fractals_stims/C.jpg,/static/Simple_RL/Stimuli/Fractals_stims/D.jpg,111.208,0.708,0.0,0.0,40.0,60.0,40.0,40.0,D,C,
297,,rl_choice_confirmation,,html-keyboard-response,297,563507,0.0-1.0-409.0-0.0,0,0,64747,,,,,,58.0,,,,,,,,,,,,,,,112.0,0.792,,,,,,,,,
298,,isi,,html-keyboard-response,298,564511,0.0-1.0-411.0,0,0,64747,,,,,,,,,,,,,,,,,,,,,113.0,1.0,,,,,,,,,
299,,feedback,,html-keyboard-response,299,565529,0.0-1.0-412.0-0.0,0,0,64747,,,,,,58.0,,,,,,,,,,,,,,,114.0,1.0,,,,,,,,,
300,,iti,,html-keyboard-response,300,567532,0.0-1.0-413.0,0,0,64747,,,,,,,,,,,,,,,,,,,,,116.0,2.0,,,,,,,,,
301,,rl_choice,,html-keyboard-response,301,568130,0.0-1.0-415.0,0,0,64747,,594.0,,,68.0,59.0,59.0,2.0,easy,1000.0,1500.0,1.0,80.0,20.0,80.0,0.0,A,B,/static/Simple_RL/Stimuli/Fractals_stims/A.jpg,/static/Simple_RL/Stimuli/Fractals_stims/B.jpg,116.594,0.594,0.0,1.0,80.0,20.0,80.0,0.0,A,B,
302,,rl_choice_confirmation,,html-keyboard-response,302,569043,0.0-1.0-416.0-0.0,0,0,64747,,,,,,59.0,,,,,,,,,,,,,,,117.5,0.906,,,,,,,,,
303,,isi,,html-keyboard-response,303,570552,0.0-1.0-418.0,0,0,64747,,,,,,,,,,,,,,,,,,,,,119.0,1.5,,,,,,,,,
304,,feedback,,html-keyboard-response,304,571561,0.0-1.0-419.0-0.0,0,0,64747,,,,,,59.0,,,,,,,,,,,,,,,120.0,1.0,,,,,,,,,
305,,iti,,html-keyboard-response,305,572571,0.0-1.0-420.0,0,0,64747,,,,,,,,,,,,,,,,,,,,,121.0,1.0,,,,,,,,,
306,,rl_choice,,html-keyboard-response,306,573180,0.0-1.0-422.0,0,0,64747,,605.0,,,68.0,60.0,60.0,2.0,easy,1000.0,3500.0,1.0,80.0,20.0,80.0,0.0,A,B,/static/Simple_RL/Stimuli/Fractals_stims/A.jpg,/static/Simple_RL/Stimuli/Fractals_stims/B.jpg,121.605,0.605,0.0,1.0,80.0,20.0,80.0,0.0,A,B,
307,,rl_choice_confirmation,,html-keyboard-response,307,574099,0.0-1.0-423.0-0.0,0,0,64747,,,,,,60.0,,,,,,,,,,,,,,,122.5,0.895,,,,,,,,,
308,,isi,,html-keyboard-response,308,577608,0.0-1.0-425.0,0,0,64747,,,,,,,,,,,,,,,,,,,,,126.0,3.5,,,,,,,,,
309,,feedback,,html-keyboard-response,309,578627,0.0-1.0-426.0-0.0,0,0,64747,,,,,,60.0,,,,,,,,,,,,,,,127.0,1.0,,,,,,,,,
310,,iti,,html-keyboard-response,310,579634,0.0-1.0-427.0,0,0,64747,,,,,,,,,,,,,,,,,,,,,128.0,1.0,,,,,,,,,
311,,rl_choice,,html-keyboard-response,311,580530,0.0-1.0-429.0,0,0,64747,,892.0,,,75.0,61.0,61.0,2.0,hard,3000.0,1500.0,0.0,40.0,60.0,40.0,60.0,D,C,/static/Simple_RL/Stimuli/Fractals_stims/D.jpg,/static/Simple_RL/Stimuli/Fractals_stims/C.jpg,128.892,0.892,0.0,0.0,60.0,40.0,60.0,40.0,C,D,
312,,rl_choice_confirmation,,html-keyboard-response,312,581145,0.0-1.0-430.0-0.0,0,0,64747,,,,,,61.0,,,,,,,,,,,,,,,129.5,0.608,,,,,,,,,
313,,isi,,html-keyboard-response,313,582653,0.0-1.0-432.0,0,0,64747,,,,,,,,,,,,,,,,,,,,,131.0,1.5,,,,,,,,,
314,,feedback,,html-keyboard-response,314,583659,0.0-1.0-433.0-0.0,0,0,64747,,,,,,61.0,,,,,,,,,,,,,,,132.0,1.0,,,,,,,,,
315,,iti,,html-keyboard-response,315,586671,0.0-1.0-434.0,0,0,64747,,,,,,,,,,,,,,,,,,,,,135.0,3.0,,,,,,,,,
316,,rl_choice,,html-keyboard-response,316,587367,0.0-1.0-436.0,0,0,64747,,691.0,,,75.0,62.0,62.0,2.0,easy,1000.0,1500.0,0.0,20.0,80.0,40.0,100.0,B,A,/static/Simple_RL/Stimuli/Fractals_stims/B.jpg,/static/Simple_RL/Stimuli/Fractals_stims/A.jpg,135.691,0.691,0.0,0.0,80.0,20.0,100.0,40.0,A,B,
317,,rl_choice_confirmation,,html-keyboard-response,317,588184,0.0-1.0-437.0-0.0,0,0,64747,,,,,,62.0,,,,,,,,,,,,,,,136.5,0.809,,,,,,,,,
318,,isi,,html-keyboard-response,318,589691,0.0-1.0-439.0,0,0,64747,,,,,,,,,,,,,,,,,,,,,138.0,1.5,,,,,,,,,
319,,feedback,,html-keyboard-response,319,590697,0.0-1.0-440.0-0.0,0,0,64747,,,,,,62.0,,,,,,,,,,,,,,,139.0,1.0,,,,,,,,,
320,,iti,,html-keyboard-response,320,591702,0.0-1.0-441.0,0,0,64747,,,,,,,,,,,,,,,,,,,,,140.0,1.0,,,,,,,,,
321,,rl_choice,,html-keyboard-response,321,592331,0.0-1.0-443.0,0,0,64747,,624.0,,,68.0,63.0,63.0,2.0,easy,2000.0,1500.0,1.0,80.0,20.0,60.0,0.0,A,B,/static/Simple_RL/Stimuli/Fractals_stims/A.jpg,/static/Simple_RL/Stimuli/Fractals_stims/B.jpg,140.624,0.624,0.0,1.0,80.0,20.0,60.0,0.0,A,B,
322,,rl_choice_confirmation,,html-keyboard-response,322,593218,0.0-1.0-444.0-0.0,0,0,64747,,,,,,63.0,,,,,,,,,,,,,,,141.5,0.876,,,,,,,,,
323,,isi,,html-keyboard-response,323,594721,0.0-1.0-446.0,0,0,64747,,,,,,,,,,,,,,,,,,,,,143.0,1.5,,,,,,,,,
324,,feedback,,html-keyboard-response,324,595728,0.0-1.0-447.0-0.0,0,0,64747,,,,,,63.0,,,,,,,,,,,,,,,144.0,1.0,,,,,,,,,
325,,iti,,html-keyboard-response,325,597740,0.0-1.0-448.0,0,0,64747,,,,,,,,,,,,,,,,,,,,,146.0,2.0,,,,,,,,,
326,,rl_choice,,html-keyboard-response,326,598607,0.0-1.0-450.0,0,0,64747,,863.0,,,75.0,64.0,64.0,2.0,hard,1500.0,1000.0,0.0,40.0,60.0,40.0,60.0,D,C,/static/Simple_RL/Stimuli/Fractals_stims/D.jpg,/static/Simple_RL/Stimuli/Fractals_stims/C.jpg,146.863,0.863,0.0,0.0,60.0,40.0,60.0,40.0,C,D,
327,,rl_choice_confirmation,,html-keyboard-response,327,599252,0.0-1.0-451.0-0.0,0,0,64747,,,,,,64.0,,,,,,,,,,,,,,,147.5,0.637,,,,,,,,,
328,,isi,,html-keyboard-response,328,600264,0.0-1.0-453.0,0,0,64747,,,,,,,,,,,,,,,,,,,,,148.5,1.0,,,,,,,,,
329,,feedback,,html-keyboard-response,329,601282,0.0-1.0-454.0-0.0,0,0,64747,,,,,,64.0,,,,,,,,,,,,,,,149.5,1.0,,,,,,,,,
330,,iti,,html-keyboard-response,330,602791,0.0-1.0-455.0,0,0,64747,,,,,,,,,,,,,,,,,,,,,151.0,1.5,,,,,,,,,
331,,rl_choice,,html-keyboard-response,331,603676,0.0-1.0-457.0,0,0,64747,,880.0,,,75.0,65.0,65.0,2.0,hard,1000.0,1000.0,0.0,40.0,60.0,60.0,80.0,D,C,/static/Simple_RL/Stimuli/Fractals_stims/D.jpg,/static/Simple_RL/Stimuli/Fractals_stims/C.jpg,151.88,0.88,0.0,0.0,60.0,40.0,80.0,60.0,C,D,
332,,rl_choice_confirmation,,html-keyboard-response,332,604308,0.0-1.0-458.0-0.0,0,0,64747,,,,,,65.0,,,,,,,,,,,,,,,152.5,0.62,,,,,,,,,
333,,isi,,html-keyboard-response,333,605316,0.0-1.0-460.0,0,0,64747,,,,,,,,,,,,,,,,,,,,,153.5,1.0,,,,,,,,,
334,,feedback,,html-keyboard-response,334,606337,0.0-1.0-461.0-0.0,0,0,64747,,,,,,65.0,,,,,,,,,,,,,,,154.5,1.0,,,,,,,,,
335,,iti,,html-keyboard-response,335,607345,0.0-1.0-462.0,0,0,64747,,,,,,,,,,,,,,,,,,,,,155.5,1.0,,,,,,,,,
336,,rl_choice,,html-keyboard-response,336,607961,0.0-1.0-464.0,0,0,64747,,612.0,,,68.0,66.0,66.0,2.0,easy,2000.0,1500.0,1.0,80.0,20.0,80.0,0.0,A,B,/static/Simple_RL/Stimuli/Fractals_stims/A.jpg,/static/Simple_RL/Stimuli/Fractals_stims/B.jpg,156.112,0.612,0.0,1.0,80.0,20.0,80.0,0.0,A,B,
337,,rl_choice_confirmation,,html-keyboard-response,337,608868,0.0-1.0-465.0-0.0,0,0,64747,,,,,,66.0,,,,,,,,,,,,,,,157.0,0.888,,,,,,,,,
338,,isi,,html-keyboard-response,338,610376,0.0-1.0-467.0,0,0,64747,,,,,,,,,,,,,,,,,,,,,158.5,1.5,,,,,,,,,
339,,feedback,,html-keyboard-response,339,611380,0.0-1.0-468.0-0.0,0,0,64747,,,,,,66.0,,,,,,,,,,,,,,,159.5,1.0,,,,,,,,,
340,,iti,,html-keyboard-response,340,613389,0.0-1.0-469.0,0,0,64747,,,,,,,,,,,,,,,,,,,,,161.5,2.0,,,,,,,,,
341,,rl_choice,,html-keyboard-response,341,613987,0.0-1.0-471.0,0,0,64747,,594.0,,,75.0,67.0,67.0,2.0,easy,1000.0,1000.0,0.0,20.0,80.0,40.0,80.0,B,A,/static/Simple_RL/Stimuli/Fractals_stims/B.jpg,/static/Simple_RL/Stimuli/Fractals_stims/A.jpg,162.094,0.594,0.0,0.0,80.0,20.0,80.0,40.0,A,B,
342,,rl_choice_confirmation,,html-keyboard-response,342,614904,0.0-1.0-472.0-0.0,0,0,64747,,,,,,67.0,,,,,,,,,,,,,,,163.0,0.906,,,,,,,,,
343,,isi,,html-keyboard-response,343,615916,0.0-1.0-474.0,0,0,64747,,,,,,,,,,,,,,,,,,,,,164.0,1.0,,,,,,,,,
344,,feedback,,html-keyboard-response,344,616928,0.0-1.0-475.0-0.0,0,0,64747,,,,,,67.0,,,,,,,,,,,,,,,165.0,1.0,,,,,,,,,
345,,iti,,html-keyboard-response,345,617932,0.0-1.0-476.0,0,0,64747,,,,,,,,,,,,,,,,,,,,,166.0,1.0,,,,,,,,,
346,,rl_choice,,html-keyboard-response,346,618851,0.0-1.0-478.0,0,0,64747,,914.0,,,68.0,68.0,68.0,2.0,hard,1000.0,1500.0,1.0,60.0,40.0,40.0,60.0,C,D,/static/Simple_RL/Stimuli/Fractals_stims/C.jpg,/static/Simple_RL/Stimuli/Fractals_stims/D.jpg,166.914,0.914,0.0,1.0,60.0,40.0,40.0,60.0,C,D,
347,,rl_choice_confirmation,,html-keyboard-response,347,619441,0.0-1.0-479.0-0.0,0,0,64747,,,,,,68.0,,,,,,,,,,,,,,,167.5,0.586,,,,,,,,,
348,,isi,,html-keyboard-response,348,620951,0.0-1.0-481.0,0,0,64747,,,,,,,,,,,,,,,,,,,,,169.0,1.5,,,,,,,,,
349,,feedback,,html-keyboard-response,349,621965,0.0-1.0-482.0-0.0,0,0,64747,,,,,,68.0,,,,,,,,,,,,,,,170.0,1.0,,,,,,,,,
350,,iti,,html-keyboard-response,350,622975,0.0-1.0-483.0,0,0,64747,,,,,,,,,,,,,,,,,,,,,171.0,1.0,,,,,,,,,
351,,rl_choice,,html-keyboard-response,351,624258,0.0-1.0-485.0,0,0,64747,,1278.0,,,68.0,69.0,69.0,2.0,hard,1000.0,3000.0,1.0,60.0,40.0,40.0,20.0,C,D,/static/Simple_RL/Stimuli/Fractals_stims/C.jpg,/static/Simple_RL/Stimuli/Fractals_stims/D.jpg,172.278,1.278,0.0,1.0,60.0,40.0,40.0,20.0,C,D,
352,,rl_choice_confirmation,,html-keyboard-response,352,624485,0.0-1.0-486.0-0.0,0,0,64747,,,,,,69.0,,,,,,,,,,,,,,,172.5,0.222,,,,,,,,,
353,,isi,,html-keyboard-response,353,627494,0.0-1.0-488.0,0,0,64747,,,,,,,,,,,,,,,,,,,,,175.5,3.0,,,,,,,,,
354,,feedback,,html-keyboard-response,354,628502,0.0-1.0-489.0-0.0,0,0,64747,,,,,,69.0,,,,,,,,,,,,,,,176.5,1.0,,,,,,,,,
355,,iti,,html-keyboard-response,355,629511,0.0-1.0-490.0,0,0,64747,,,,,,,,,,,,,,,,,,,,,177.5,1.0,,,,,,,,,
356,,rl_choice,,html-keyboard-response,356,630201,0.0-1.0-492.0,0,0,64747,,687.0,,,75.0,70.0,70.0,2.0,hard,1000.0,1000.0,0.0,40.0,60.0,40.0,60.0,D,C,/static/Simple_RL/Stimuli/Fractals_stims/D.jpg,/static/Simple_RL/Stimuli/Fractals_stims/C.jpg,178.187,0.687,0.0,0.0,60.0,40.0,60.0,40.0,C,D,
357,,rl_choice_confirmation,,html-keyboard-response,357,631024,0.0-1.0-493.0-0.0,0,0,64747,,,,,,70.0,,,,,,,,,,,,,,,179.0,0.813,,,,,,,,,
358,,isi,,html-keyboard-response,358,632032,0.0-1.0-495.0,0,0,64747,,,,,,,,,,,,,,,,,,,,,180.0,1.0,,,,,,,,,
359,,feedback,,html-keyboard-response,359,633047,0.0-1.0-496.0-0.0,0,0,64747,,,,,,70.0,,,,,,,,,,,,,,,181.0,1.0,,,,,,,,,
360,,iti,,html-keyboard-response,360,634052,0.0-1.0-497.0,0,0,64747,,,,,,,,,,,,,,,,,,,,,182.0,1.0,,,,,,,,,
361,,rl_choice,,html-keyboard-response,361,634578,0.0-1.0-499.0,0,0,64747,,522.0,,,75.0,71.0,71.0,2.0,easy,2000.0,1000.0,0.0,20.0,80.0,20.0,100.0,B,A,/static/Simple_RL/Stimuli/Fractals_stims/B.jpg,/static/Simple_RL/Stimuli/Fractals_stims/A.jpg,182.522,0.522,0.0,0.0,80.0,20.0,100.0,20.0,A,B,
362,,rl_choice_confirmation,,html-keyboard-response,362,635580,0.0-1.0-500.0-0.0,0,0,64747,,,,,,71.0,,,,,,,,,,,,,,,183.5,0.978,,,,,,,,,
363,,isi,,html-keyboard-response,363,636590,0.0-1.0-502.0,0,0,64747,,,,,,,,,,,,,,,,,,,,,184.5,1.0,,,,,,,,,
364,,feedback,,html-keyboard-response,364,637601,0.0-1.0-503.0-0.0,0,0,64747,,,,,,71.0,,,,,,,,,,,,,,,185.5,1.0,,,,,,,,,
365,,iti,,html-keyboard-response,365,639604,0.0-1.0-504.0,0,0,64747,,,,,,,,,,,,,,,,,,,,,187.5,2.0,,,,,,,,,
366,,rl_choice,,html-keyboard-response,366,640284,0.0-1.0-506.0,0,0,64747,,676.0,,,75.0,72.0,72.0,2.0,easy,1500.0,1000.0,0.0,20.0,80.0,20.0,60.0,B,A,/static/Simple_RL/Stimuli/Fractals_stims/B.jpg,/static/Simple_RL/Stimuli/Fractals_stims/A.jpg,188.176,0.676,0.0,0.0,80.0,20.0,60.0,20.0,A,B,
367,,rl_choice_confirmation,,html-keyboard-response,367,641120,0.0-1.0-507.0-0.0,0,0,64747,,,,,,72.0,,,,,,,,,,,,,,,189.0,0.824,,,,,,,,,
368,,isi,,html-keyboard-response,368,642124,0.0-1.0-509.0,0,0,64747,,,,,,,,,,,,,,,,,,,,,190.0,1.0,,,,,,,,,
369,,feedback,,html-keyboard-response,369,643131,0.0-1.0-510.0-0.0,0,0,64747,,,,,,72.0,,,,,,,,,,,,,,,191.0,1.0,,,,,,,,,
370,,iti,,html-keyboard-response,370,644642,0.0-1.0-511.0,0,0,64747,,,,,,,,,,,,,,,,,,,,,192.5,1.5,,,,,,,,,
371,,rl_choice,,html-keyboard-response,371,645511,0.0-1.0-513.0,0,0,64747,,865.0,,,75.0,73.0,73.0,2.0,easy,1500.0,2000.0,0.0,20.0,80.0,20.0,80.0,B,A,/static/Simple_RL/Stimuli/Fractals_stims/B.jpg,/static/Simple_RL/Stimuli/Fractals_stims/A.jpg,193.365,0.865,0.0,0.0,80.0,20.0,80.0,20.0,A,B,
372,,rl_choice_confirmation,,html-keyboard-response,372,646153,0.0-1.0-514.0-0.0,0,0,64747,,,,,,73.0,,,,,,,,,,,,,,,194.0,0.635,,,,,,,,,
373,,isi,,html-keyboard-response,373,648166,0.0-1.0-516.0,0,0,64747,,,,,,,,,,,,,,,,,,,,,196.0,2.0,,,,,,,,,
374,,feedback,,html-keyboard-response,374,649174,0.0-1.0-517.0-0.0,0,0,64747,,,,,,73.0,,,,,,,,,,,,,,,197.0,1.0,,,,,,,,,
375,,iti,,html-keyboard-response,375,650681,0.0-1.0-518.0,0,0,64747,,,,,,,,,,,,,,,,,,,,,198.5,1.5,,,,,,,,,
376,,rl_choice,,html-keyboard-response,376,651414,0.0-1.0-520.0,0,0,64747,,728.0,,,68.0,74.0,74.0,2.0,hard,1000.0,1500.0,1.0,60.0,40.0,40.0,60.0,C,D,/static/Simple_RL/Stimuli/Fractals_stims/C.jpg,/static/Simple_RL/Stimuli/Fractals_stims/D.jpg,199.228,0.728,0.0,1.0,60.0,40.0,40.0,60.0,C,D,
377,,rl_choice_confirmation,,html-keyboard-response,377,652192,0.0-1.0-521.0-0.0,0,0,64747,,,,,,74.0,,,,,,,,,,,,,,,200.0,0.772,,,,,,,,,
378,,isi,,html-keyboard-response,378,653704,0.0-1.0-523.0,0,0,64747,,,,,,,,,,,,,,,,,,,,,201.5,1.5,,,,,,,,,
379,,feedback,,html-keyboard-response,379,654715,0.0-1.0-524.0-0.0,0,0,64747,,,,,,74.0,,,,,,,,,,,,,,,202.5,1.0,,,,,,,,,
380,,iti,,html-keyboard-response,380,655724,0.0-1.0-525.0,0,0,64747,,,,,,,,,,,,,,,,,,,,,203.5,1.0,,,,,,,,,
381,,rl_choice,,html-keyboard-response,381,656469,0.0-1.0-527.0,0,0,64747,,740.0,,,68.0,75.0,75.0,2.0,hard,1000.0,1500.0,1.0,60.0,40.0,60.0,20.0,C,D,/static/Simple_RL/Stimuli/Fractals_stims/C.jpg,/static/Simple_RL/Stimuli/Fractals_stims/D.jpg,204.24,0.74,0.0,1.0,60.0,40.0,60.0,20.0,C,D,
382,,rl_choice_confirmation,,html-keyboard-response,382,657235,0.0-1.0-528.0-0.0,0,0,64747,,,,,,75.0,,,,,,,,,,,,,,,205.0,0.76,,,,,,,,,
383,,isi,,html-keyboard-response,383,658743,0.0-1.0-530.0,0,0,64747,,,,,,,,,,,,,,,,,,,,,206.5,1.5,,,,,,,,,
384,,feedback,,html-keyboard-response,384,659752,0.0-1.0-531.0-0.0,0,0,64747,,,,,,75.0,,,,,,,,,,,,,,,207.5,1.0,,,,,,,,,
385,,iti,,html-keyboard-response,385,660761,0.0-1.0-532.0,0,0,64747,,,,,,,,,,,,,,,,,,,,,208.5,1.0,,,,,,,,,
386,,rl_choice,,html-keyboard-response,386,661381,0.0-1.0-534.0,0,0,64747,,616.0,,,68.0,76.0,76.0,2.0,hard,3000.0,1000.0,1.0,60.0,40.0,40.0,60.0,C,D,/static/Simple_RL/Stimuli/Fractals_stims/C.jpg,/static/Simple_RL/Stimuli/Fractals_stims/D.jpg,209.116,0.616,0.0,1.0,60.0,40.0,40.0,60.0,C,D,
387,,rl_choice_confirmation,,html-keyboard-response,387,662278,0.0-1.0-535.0-0.0,0,0,64747,,,,,,76.0,,,,,,,,,,,,,,,210.0,0.884,,,,,,,,,
388,,isi,,html-keyboard-response,388,663284,0.0-1.0-537.0,0,0,64747,,,,,,,,,,,,,,,,,,,,,211.0,1.0,,,,,,,,,
389,,feedback,,html-keyboard-response,389,664298,0.0-1.0-538.0-0.0,0,0,64747,,,,,,76.0,,,,,,,,,,,,,,,212.0,1.0,,,,,,,,,
390,,iti,,html-keyboard-response,390,667312,0.0-1.0-539.0,0,0,64747,,,,,,,,,,,,,,,,,,,,,215.0,3.0,,,,,,,,,
391,,rl_choice,,html-keyboard-response,391,668265,0.0-1.0-541.0,0,0,64747,,948.0,,,75.0,77.0,77.0,2.0,easy,1000.0,1000.0,0.0,20.0,80.0,20.0,60.0,B,A,/static/Simple_RL/Stimuli/Fractals_stims/B.jpg,/static/Simple_RL/Stimuli/Fractals_stims/A.jpg,215.948,0.948,0.0,0.0,80.0,20.0,60.0,20.0,A,B,
392,,rl_choice_confirmation,,html-keyboard-response,392,668828,0.0-1.0-542.0-0.0,0,0,64747,,,,,,77.0,,,,,,,,,,,,,,,216.5,0.552,,,,,,,,,
393,,isi,,html-keyboard-response,393,669835,0.0-1.0-544.0,0,0,64747,,,,,,,,,,,,,,,,,,,,,217.5,1.0,,,,,,,,,
394,,feedback,,html-keyboard-response,394,670840,0.0-1.0-545.0-0.0,0,0,64747,,,,,,77.0,,,,,,,,,,,,,,,218.5,1.0,,,,,,,,,
395,,iti,,html-keyboard-response,395,671849,0.0-1.0-546.0,0,0,64747,,,,,,,,,,,,,,,,,,,,,219.5,1.0,,,,,,,,,
396,,rl_choice,,html-keyboard-response,396,672508,0.0-1.0-548.0,0,0,64747,,654.0,,,75.0,78.0,78.0,2.0,easy,3000.0,1000.0,0.0,20.0,80.0,0.0,100.0,B,A,/static/Simple_RL/Stimuli/Fractals_stims/B.jpg,/static/Simple_RL/Stimuli/Fractals_stims/A.jpg,220.154,0.654,0.0,0.0,80.0,20.0,100.0,0.0,A,B,
397,,rl_choice_confirmation,,html-keyboard-response,397,673364,0.0-1.0-549.0-0.0,0,0,64747,,,,,,78.0,,,,,,,,,,,,,,,221.0,0.846,,,,,,,,,
398,,isi,,html-keyboard-response,398,674368,0.0-1.0-551.0,0,0,64747,,,,,,,,,,,,,,,,,,,,,222.0,1.0,,,,,,,,,
399,,feedback,,html-keyboard-response,399,675394,0.0-1.0-552.0-0.0,0,0,64747,,,,,,78.0,,,,,,,,,,,,,,,223.0,1.0,,,,,,,,,
400,,iti,,html-keyboard-response,400,678399,0.0-1.0-553.0,0,0,64747,,,,,,,,,,,,,,,,,,,,,226.0,3.0,,,,,,,,,
401,,rl_choice,,html-keyboard-response,401,679136,0.0-1.0-555.0,0,0,64747,,734.0,,,68.0,79.0,79.0,2.0,hard,2000.0,1500.0,1.0,60.0,40.0,60.0,40.0,C,D,/static/Simple_RL/Stimuli/Fractals_stims/C.jpg,/static/Simple_RL/Stimuli/Fractals_stims/D.jpg,226.734,0.734,0.0,1.0,60.0,40.0,60.0,40.0,C,D,
402,,rl_choice_confirmation,,html-keyboard-response,402,679914,0.0-1.0-556.0-0.0,0,0,64747,,,,,,79.0,,,,,,,,,,,,,,,227.5,0.766,,,,,,,,,
403,,isi,,html-keyboard-response,403,681422,0.0-1.0-558.0,0,0,64747,,,,,,,,,,,,,,,,,,,,,229.0,1.5,,,,,,,,,
404,,feedback,,html-keyboard-response,404,682431,0.0-1.0-559.0-0.0,0,0,64747,,,,,,79.0,,,,,,,,,,,,,,,230.0,1.0,,,,,,,,,
405,,iti,,html-keyboard-response,405,684438,0.0-1.0-560.0,0,0,64747,,,,,,,,,,,,,,,,,,,,,232.0,2.0,,,,,,,,,0.91
406,,final_tally,,html-keyboard-response,406,689263,0.0-2.0,0,0,64747,,4818.0,,,68.0,,,,,,,,,,,,,,,,,,,,,,,,,,
