,success,ttype,start_time,trial_type,trial_index,time_elapsed,internal_node_id,warning,missed_checkup,PID,view_history,rt,responses,repeat_instructions,key_press,index,trial_num,block,condition,iti,isi,high_group_on_left,left_group_value,right_group_value,left_item_value,right_item_value,left_img,right_img,left_img_path,right_img_path,left_chosen,chosen_group_value,unchosen_group_value,chosen_item_value,unchosen_item_value,chosen_img,unchosen_img,onset,duration,no_response,total_bonus_tally
0,True,full_screen,d06032022hr1820,fullscreen,0,4760,0.0-0.0,0,0,47956,,,,,,,,,,,,,,,,,,,,,,,,,,,,,,,
1,,size_instructions,,instructions,1,47733,0.0-1.0-0.0-0.0,0,0,47956,"[{""page_index"":0,""viewing_time"":2510},{""page_index"":1,""viewing_time"":17164},{""page_index"":2,""viewing_time"":16011},{""page_index"":3,""viewing_time"":2122},{""page_index"":4,""viewing_time"":3002},{""page_index"":5,""viewing_time"":2160}]",42971.0,,,,,,,,,,,,,,,,,,,,,,,,,,,,,
2,,rl_comprehension_check,,survey-multi-choice,2,59750,0.0-1.0-0.0-1.0,0,0,47956,,12009.0,"{""Q0"":""True"",""Q1"":""True"",""Q2"":""D for left and K for right""}",0.0,,,,,,,,,,,,,,,,,,,,,,,,,,,
3,,,,html-keyboard-response,3,61939,0.0-1.0-1.0,0,0,47956,,2180.0,,,68.0,,,,,,,,,,,,,,,,,,,,,,,,,,
4,,rl_choice,,html-keyboard-response,4,62955,0.0-1.0-2.0,0,0,47956,,1010.0,,,68.0,0.0,0.0,1.0,hard,1000.0,2000.0,0.0,40.0,60.0,20.0,60.0,C,D,/static/Simple_RL/Stimuli/Fractals_stims/C.jpg,/static/Simple_RL/Stimuli/Fractals_stims/D.jpg,1.0,40.0,60.0,20.0,60.0,C,D,1.01,1.01,0.0,
5,,rl_choice_confirmation,,html-keyboard-response,5,63450,0.0-1.0-3.0-0.0,0,0,47956,,,,,,0.0,,,,,,,,,,,,,,,,,,,,,,1.5,0.49,,
6,,isi,,html-keyboard-response,6,65453,0.0-1.0-5.0,0,0,47956,,,,,,,,,,,,,,,,,,,,,,,,,,,,3.5,2.0,,
7,,feedback,,html-keyboard-response,7,66457,0.0-1.0-6.0-0.0,0,0,47956,,,,,,0.0,,,,,,,,,,,,,,,,,,,,,,4.5,1.0,,
8,,iti,,html-keyboard-response,8,67459,0.0-1.0-7.0,0,0,47956,,,,,,,,,,,,,,,,,,,,,,,,,,,,5.5,1.0,,
9,,rl_choice,,html-keyboard-response,9,68122,0.0-1.0-9.0,0,0,47956,,659.0,,,68.0,1.0,1.0,1.0,easy,1000.0,3000.0,1.0,80.0,20.0,100.0,40.0,B,A,/static/Simple_RL/Stimuli/Fractals_stims/B.jpg,/static/Simple_RL/Stimuli/Fractals_stims/A.jpg,1.0,80.0,20.0,100.0,40.0,B,A,6.159,0.659,0.0,
10,,rl_choice_confirmation,,html-keyboard-response,10,68966,0.0-1.0-10.0-0.0,0,0,47956,,,,,,1.0,,,,,,,,,,,,,,,,,,,,,,7.0,0.841,,
11,,isi,,html-keyboard-response,11,71969,0.0-1.0-12.0,0,0,47956,,,,,,,,,,,,,,,,,,,,,,,,,,,,10.0,3.0,,
12,,feedback,,html-keyboard-response,12,72973,0.0-1.0-13.0-0.0,0,0,47956,,,,,,1.0,,,,,,,,,,,,,,,,,,,,,,11.0,1.0,,
13,,iti,,html-keyboard-response,13,73975,0.0-1.0-14.0,0,0,47956,,,,,,,,,,,,,,,,,,,,,,,,,,,,12.0,1.0,,
14,,rl_choice,,html-keyboard-response,14,74403,0.0-1.0-16.0,0,0,47956,,424.0,,,75.0,2.0,2.0,1.0,hard,3000.0,1000.0,0.0,40.0,60.0,20.0,80.0,C,D,/static/Simple_RL/Stimuli/Fractals_stims/C.jpg,/static/Simple_RL/Stimuli/Fractals_stims/D.jpg,0.0,60.0,40.0,80.0,20.0,D,C,12.424,0.424,0.0,
15,,rl_choice_confirmation,,html-keyboard-response,15,75482,0.0-1.0-17.0-0.0,0,0,47956,,,,,,2.0,,,,,,,,,,,,,,,,,,,,,,13.5,1.076,,
16,,isi,,html-keyboard-response,16,76485,0.0-1.0-19.0,0,0,47956,,,,,,,,,,,,,,,,,,,,,,,,,,,,14.5,1.0,,
17,,feedback,,html-keyboard-response,17,77489,0.0-1.0-20.0-0.0,0,0,47956,,,,,,2.0,,,,,,,,,,,,,,,,,,,,,,15.5,1.0,,
18,,iti,,html-keyboard-response,18,80491,0.0-1.0-21.0,0,0,47956,,,,,,,,,,,,,,,,,,,,,,,,,,,,18.5,3.0,,
19,,rl_choice,,html-keyboard-response,19,81099,0.0-1.0-23.0,0,0,47956,,604.0,,,75.0,3.0,3.0,1.0,hard,1000.0,3500.0,0.0,40.0,60.0,60.0,60.0,C,D,/static/Simple_RL/Stimuli/Fractals_stims/C.jpg,/static/Simple_RL/Stimuli/Fractals_stims/D.jpg,0.0,60.0,40.0,60.0,60.0,D,C,19.104,0.604,0.0,
20,,rl_choice_confirmation,,html-keyboard-response,20,81998,0.0-1.0-24.0-0.0,0,0,47956,,,,,,3.0,,,,,,,,,,,,,,,,,,,,,,20.0,0.896,,
21,,isi,,html-keyboard-response,21,85501,0.0-1.0-26.0,0,0,47956,,,,,,,,,,,,,,,,,,,,,,,,,,,,23.5,3.5,,
22,,feedback,,html-keyboard-response,22,86505,0.0-1.0-27.0-0.0,0,0,47956,,,,,,3.0,,,,,,,,,,,,,,,,,,,,,,24.5,1.0,,
23,,iti,,html-keyboard-response,23,87508,0.0-1.0-28.0,0,0,47956,,,,,,,,,,,,,,,,,,,,,,,,,,,,25.5,1.0,,
24,,rl_choice,,html-keyboard-response,24,88049,0.0-1.0-30.0,0,0,47956,,538.0,,,68.0,4.0,4.0,1.0,hard,1500.0,3000.0,0.0,40.0,60.0,20.0,60.0,C,D,/static/Simple_RL/Stimuli/Fractals_stims/C.jpg,/static/Simple_RL/Stimuli/Fractals_stims/D.jpg,1.0,40.0,60.0,20.0,60.0,C,D,26.038,0.538,0.0,
25,,rl_choice_confirmation,,html-keyboard-response,25,89014,0.0-1.0-31.0-0.0,0,0,47956,,,,,,4.0,,,,,,,,,,,,,,,,,,,,,,27.0,0.962,,
26,,isi,,html-keyboard-response,26,92017,0.0-1.0-33.0,0,0,47956,,,,,,,,,,,,,,,,,,,,,,,,,,,,30.0,3.0,,
27,,feedback,,html-keyboard-response,27,93021,0.0-1.0-34.0-0.0,0,0,47956,,,,,,4.0,,,,,,,,,,,,,,,,,,,,,,31.0,1.0,,
28,,iti,,html-keyboard-response,28,94523,0.0-1.0-35.0,0,0,47956,,,,,,,,,,,,,,,,,,,,,,,,,,,,32.5,1.5,,
29,,rl_choice,,html-keyboard-response,29,94907,0.0-1.0-37.0,0,0,47956,,381.0,,,75.0,5.0,5.0,1.0,easy,2000.0,2000.0,0.0,20.0,80.0,20.0,100.0,A,B,/static/Simple_RL/Stimuli/Fractals_stims/A.jpg,/static/Simple_RL/Stimuli/Fractals_stims/B.jpg,0.0,80.0,20.0,100.0,20.0,B,A,32.881,0.381,0.0,
30,,rl_choice_confirmation,,html-keyboard-response,30,96030,0.0-1.0-38.0-0.0,0,0,47956,,,,,,5.0,,,,,,,,,,,,,,,,,,,,,,34.0,1.119,,
31,,isi,,html-keyboard-response,31,98033,0.0-1.0-40.0,0,0,47956,,,,,,,,,,,,,,,,,,,,,,,,,,,,36.0,2.0,,
32,,feedback,,html-keyboard-response,32,99037,0.0-1.0-41.0-0.0,0,0,47956,,,,,,5.0,,,,,,,,,,,,,,,,,,,,,,37.0,1.0,,
33,,iti,,html-keyboard-response,33,101040,0.0-1.0-42.0,0,0,47956,,,,,,,,,,,,,,,,,,,,,,,,,,,,39.0,2.0,,
34,,rl_choice,,html-keyboard-response,34,101883,0.0-1.0-44.0,0,0,47956,,839.0,,,75.0,6.0,6.0,1.0,hard,1000.0,1000.0,0.0,40.0,60.0,40.0,80.0,C,D,/static/Simple_RL/Stimuli/Fractals_stims/C.jpg,/static/Simple_RL/Stimuli/Fractals_stims/D.jpg,0.0,60.0,40.0,80.0,40.0,D,C,39.839,0.839,0.0,
35,,rl_choice_confirmation,,html-keyboard-response,35,102548,0.0-1.0-45.0-0.0,0,0,47956,,,,,,6.0,,,,,,,,,,,,,,,,,,,,,,40.5,0.661,,
36,,isi,,html-keyboard-response,36,103551,0.0-1.0-47.0,0,0,47956,,,,,,,,,,,,,,,,,,,,,,,,,,,,41.5,1.0,,
37,,feedback,,html-keyboard-response,37,104555,0.0-1.0-48.0-0.0,0,0,47956,,,,,,6.0,,,,,,,,,,,,,,,,,,,,,,42.5,1.0,,
38,,iti,,html-keyboard-response,38,105557,0.0-1.0-49.0,0,0,47956,,,,,,,,,,,,,,,,,,,,,,,,,,,,43.5,1.0,,
39,,rl_choice,,html-keyboard-response,39,106171,0.0-1.0-51.0,0,0,47956,,609.0,,,68.0,7.0,7.0,1.0,hard,1500.0,1000.0,0.0,40.0,60.0,60.0,80.0,C,D,/static/Simple_RL/Stimuli/Fractals_stims/C.jpg,/static/Simple_RL/Stimuli/Fractals_stims/D.jpg,1.0,40.0,60.0,60.0,80.0,C,D,44.109,0.609,0.0,
40,,rl_choice_confirmation,,html-keyboard-response,40,107066,0.0-1.0-52.0-0.0,0,0,47956,,,,,,7.0,,,,,,,,,,,,,,,,,,,,,,45.0,0.891,,
41,,isi,,html-keyboard-response,41,108069,0.0-1.0-54.0,0,0,47956,,,,,,,,,,,,,,,,,,,,,,,,,,,,46.0,1.0,,
42,,feedback,,html-keyboard-response,42,109073,0.0-1.0-55.0-0.0,0,0,47956,,,,,,7.0,,,,,,,,,,,,,,,,,,,,,,47.0,1.0,,
43,,iti,,html-keyboard-response,43,110575,0.0-1.0-56.0,0,0,47956,,,,,,,,,,,,,,,,,,,,,,,,,,,,48.5,1.5,,
44,,rl_choice,,html-keyboard-response,44,111058,0.0-1.0-58.0,0,0,47956,,479.0,,,75.0,8.0,8.0,1.0,easy,1500.0,2000.0,0.0,20.0,80.0,0.0,100.0,A,B,/static/Simple_RL/Stimuli/Fractals_stims/A.jpg,/static/Simple_RL/Stimuli/Fractals_stims/B.jpg,0.0,80.0,20.0,100.0,0.0,B,A,48.979,0.479,0.0,
45,,rl_choice_confirmation,,html-keyboard-response,45,112083,0.0-1.0-59.0-0.0,0,0,47956,,,,,,8.0,,,,,,,,,,,,,,,,,,,,,,50.0,1.021,,
46,,isi,,html-keyboard-response,46,114085,0.0-1.0-61.0,0,0,47956,,,,,,,,,,,,,,,,,,,,,,,,,,,,52.0,2.0,,
47,,feedback,,html-keyboard-response,47,115090,0.0-1.0-62.0-0.0,0,0,47956,,,,,,8.0,,,,,,,,,,,,,,,,,,,,,,53.0,1.0,,
48,,iti,,html-keyboard-response,48,116592,0.0-1.0-63.0,0,0,47956,,,,,,,,,,,,,,,,,,,,,,,,,,,,54.5,1.5,,
49,,rl_choice,,html-keyboard-response,49,117339,0.0-1.0-65.0,0,0,47956,,742.0,,,75.0,9.0,9.0,1.0,easy,2000.0,1000.0,1.0,80.0,20.0,60.0,0.0,B,A,/static/Simple_RL/Stimuli/Fractals_stims/B.jpg,/static/Simple_RL/Stimuli/Fractals_stims/A.jpg,0.0,20.0,80.0,0.0,60.0,A,B,55.242,0.742,0.0,
50,,rl_choice_confirmation,,html-keyboard-response,50,118102,0.0-1.0-66.0-0.0,0,0,47956,,,,,,9.0,,,,,,,,,,,,,,,,,,,,,,56.0,0.758,,
51,,isi,,html-keyboard-response,51,119105,0.0-1.0-68.0,0,0,47956,,,,,,,,,,,,,,,,,,,,,,,,,,,,57.0,1.0,,
52,,feedback,,html-keyboard-response,52,120109,0.0-1.0-69.0-0.0,0,0,47956,,,,,,9.0,,,,,,,,,,,,,,,,,,,,,,58.0,1.0,,
53,,iti,,html-keyboard-response,53,122112,0.0-1.0-70.0,0,0,47956,,,,,,,,,,,,,,,,,,,,,,,,,,,,60.0,2.0,,
54,,rl_choice,,html-keyboard-response,54,122682,0.0-1.0-72.0,0,0,47956,,567.0,,,68.0,10.0,10.0,1.0,hard,1000.0,1000.0,1.0,60.0,40.0,40.0,40.0,D,C,/static/Simple_RL/Stimuli/Fractals_stims/D.jpg,/static/Simple_RL/Stimuli/Fractals_stims/C.jpg,1.0,60.0,40.0,40.0,40.0,D,C,60.567,0.567,0.0,
55,,rl_choice_confirmation,,html-keyboard-response,55,123619,0.0-1.0-73.0-0.0,0,0,47956,,,,,,10.0,,,,,,,,,,,,,,,,,,,,,,61.5,0.933,,
56,,isi,,html-keyboard-response,56,124622,0.0-1.0-75.0,0,0,47956,,,,,,,,,,,,,,,,,,,,,,,,,,,,62.5,1.0,,
57,,feedback,,html-keyboard-response,57,125625,0.0-1.0-76.0-0.0,0,0,47956,,,,,,10.0,,,,,,,,,,,,,,,,,,,,,,63.5,1.0,,
58,,iti,,html-keyboard-response,58,126627,0.0-1.0-77.0,0,0,47956,,,,,,,,,,,,,,,,,,,,,,,,,,,,64.5,1.0,,
59,,rl_choice,,html-keyboard-response,59,127242,0.0-1.0-79.0,0,0,47956,,613.0,,,75.0,11.0,11.0,1.0,easy,1000.0,3000.0,0.0,20.0,80.0,20.0,60.0,A,B,/static/Simple_RL/Stimuli/Fractals_stims/A.jpg,/static/Simple_RL/Stimuli/Fractals_stims/B.jpg,0.0,80.0,20.0,60.0,20.0,B,A,65.113,0.613,0.0,
60,,rl_choice_confirmation,,html-keyboard-response,60,128133,0.0-1.0-80.0-0.0,0,0,47956,,,,,,11.0,,,,,,,,,,,,,,,,,,,,,,66.0,0.887,,
61,,isi,,html-keyboard-response,61,131135,0.0-1.0-82.0,0,0,47956,,,,,,,,,,,,,,,,,,,,,,,,,,,,69.0,3.0,,
62,,feedback,,html-keyboard-response,62,132139,0.0-1.0-83.0-0.0,0,0,47956,,,,,,11.0,,,,,,,,,,,,,,,,,,,,,,70.0,1.0,,
63,,iti,,html-keyboard-response,63,133142,0.0-1.0-84.0,0,0,47956,,,,,,,,,,,,,,,,,,,,,,,,,,,,71.0,1.0,,
64,,rl_choice,,html-keyboard-response,64,133691,0.0-1.0-86.0,0,0,47956,,545.0,,,68.0,12.0,12.0,1.0,easy,3000.0,1500.0,0.0,20.0,80.0,20.0,80.0,A,B,/static/Simple_RL/Stimuli/Fractals_stims/A.jpg,/static/Simple_RL/Stimuli/Fractals_stims/B.jpg,1.0,20.0,80.0,20.0,80.0,A,B,71.545,0.545,0.0,
65,,rl_choice_confirmation,,html-keyboard-response,65,134650,0.0-1.0-87.0-0.0,0,0,47956,,,,,,12.0,,,,,,,,,,,,,,,,,,,,,,72.5,0.955,,
66,,isi,,html-keyboard-response,66,136152,0.0-1.0-89.0,0,0,47956,,,,,,,,,,,,,,,,,,,,,,,,,,,,74.0,1.5,,
67,,feedback,,html-keyboard-response,67,137156,0.0-1.0-90.0-0.0,0,0,47956,,,,,,12.0,,,,,,,,,,,,,,,,,,,,,,75.0,1.0,,
68,,iti,,html-keyboard-response,68,140158,0.0-1.0-91.0,0,0,47956,,,,,,,,,,,,,,,,,,,,,,,,,,,,78.0,3.0,,
69,,rl_choice,,html-keyboard-response,69,140674,0.0-1.0-93.0,0,0,47956,,512.0,,,75.0,13.0,13.0,1.0,hard,1000.0,2000.0,0.0,40.0,60.0,40.0,80.0,C,D,/static/Simple_RL/Stimuli/Fractals_stims/C.jpg,/static/Simple_RL/Stimuli/Fractals_stims/D.jpg,0.0,60.0,40.0,80.0,40.0,D,C,78.512,0.512,0.0,
70,,rl_choice_confirmation,,html-keyboard-response,70,141666,0.0-1.0-94.0-0.0,0,0,47956,,,,,,13.0,,,,,,,,,,,,,,,,,,,,,,79.5,0.988,,
71,,isi,,html-keyboard-response,71,143669,0.0-1.0-96.0,0,0,47956,,,,,,,,,,,,,,,,,,,,,,,,,,,,81.5,2.0,,
72,,feedback,,html-keyboard-response,72,144673,0.0-1.0-97.0-0.0,0,0,47956,,,,,,13.0,,,,,,,,,,,,,,,,,,,,,,82.5,1.0,,
73,,iti,,html-keyboard-response,73,145675,0.0-1.0-98.0,0,0,47956,,,,,,,,,,,,,,,,,,,,,,,,,,,,83.5,1.0,,
74,,rl_choice,,html-keyboard-response,74,146241,0.0-1.0-100.0,0,0,47956,,563.0,,,68.0,14.0,14.0,1.0,easy,1500.0,1500.0,0.0,20.0,80.0,20.0,80.0,A,B,/static/Simple_RL/Stimuli/Fractals_stims/A.jpg,/static/Simple_RL/Stimuli/Fractals_stims/B.jpg,1.0,20.0,80.0,20.0,80.0,A,B,84.063,0.563,0.0,
75,,rl_choice_confirmation,,html-keyboard-response,75,147181,0.0-1.0-101.0-0.0,0,0,47956,,,,,,14.0,,,,,,,,,,,,,,,,,,,,,,85.0,0.937,,
76,,isi,,html-keyboard-response,76,148684,0.0-1.0-103.0,0,0,47956,,,,,,,,,,,,,,,,,,,,,,,,,,,,86.5,1.5,,
77,,feedback,,html-keyboard-response,77,149688,0.0-1.0-104.0-0.0,0,0,47956,,,,,,14.0,,,,,,,,,,,,,,,,,,,,,,87.5,1.0,,
78,,iti,,html-keyboard-response,78,151190,0.0-1.0-105.0,0,0,47956,,,,,,,,,,,,,,,,,,,,,,,,,,,,89.0,1.5,,
79,,rl_choice,,html-keyboard-response,79,151897,0.0-1.0-107.0,0,0,47956,,704.0,,,75.0,15.0,15.0,1.0,hard,1500.0,2000.0,1.0,60.0,40.0,40.0,60.0,D,C,/static/Simple_RL/Stimuli/Fractals_stims/D.jpg,/static/Simple_RL/Stimuli/Fractals_stims/C.jpg,0.0,40.0,60.0,60.0,40.0,C,D,89.704,0.704,0.0,
80,,rl_choice_confirmation,,html-keyboard-response,80,152696,0.0-1.0-108.0-0.0,0,0,47956,,,,,,15.0,,,,,,,,,,,,,,,,,,,,,,90.5,0.796,,
81,,isi,,html-keyboard-response,81,154698,0.0-1.0-110.0,0,0,47956,,,,,,,,,,,,,,,,,,,,,,,,,,,,92.5,2.0,,
82,,feedback,,html-keyboard-response,82,155702,0.0-1.0-111.0-0.0,0,0,47956,,,,,,15.0,,,,,,,,,,,,,,,,,,,,,,93.5,1.0,,
83,,iti,,html-keyboard-response,83,157204,0.0-1.0-112.0,0,0,47956,,,,,,,,,,,,,,,,,,,,,,,,,,,,95.0,1.5,,
84,,rl_choice,,html-keyboard-response,84,157731,0.0-1.0-114.0,0,0,47956,,522.0,,,68.0,16.0,16.0,1.0,hard,1000.0,1000.0,1.0,60.0,40.0,60.0,60.0,D,C,/static/Simple_RL/Stimuli/Fractals_stims/D.jpg,/static/Simple_RL/Stimuli/Fractals_stims/C.jpg,1.0,60.0,40.0,60.0,60.0,D,C,95.522,0.522,0.0,
85,,rl_choice_confirmation,,html-keyboard-response,85,158713,0.0-1.0-115.0-0.0,0,0,47956,,,,,,16.0,,,,,,,,,,,,,,,,,,,,,,96.5,0.978,,
86,,isi,,html-keyboard-response,86,159716,0.0-1.0-117.0,0,0,47956,,,,,,,,,,,,,,,,,,,,,,,,,,,,97.5,1.0,,
87,,feedback,,html-keyboard-response,87,160719,0.0-1.0-118.0-0.0,0,0,47956,,,,,,16.0,,,,,,,,,,,,,,,,,,,,,,98.5,1.0,,
88,,iti,,html-keyboard-response,88,161724,0.0-1.0-119.0,0,0,47956,,,,,,,,,,,,,,,,,,,,,,,,,,,,99.5,1.0,,
89,,rl_choice,,html-keyboard-response,89,162410,0.0-1.0-121.0,0,0,47956,,683.0,,,75.0,17.0,17.0,1.0,easy,3000.0,1500.0,1.0,80.0,20.0,60.0,20.0,B,A,/static/Simple_RL/Stimuli/Fractals_stims/B.jpg,/static/Simple_RL/Stimuli/Fractals_stims/A.jpg,0.0,20.0,80.0,20.0,60.0,A,B,100.183,0.683,0.0,
90,,rl_choice_confirmation,,html-keyboard-response,90,163232,0.0-1.0-122.0-0.0,0,0,47956,,,,,,17.0,,,,,,,,,,,,,,,,,,,,,,101.0,0.817,,
91,,isi,,html-keyboard-response,91,164735,0.0-1.0-124.0,0,0,47956,,,,,,,,,,,,,,,,,,,,,,,,,,,,102.5,1.5,,
92,,feedback,,html-keyboard-response,92,165739,0.0-1.0-125.0-0.0,0,0,47956,,,,,,17.0,,,,,,,,,,,,,,,,,,,,,,103.5,1.0,,
93,,iti,,html-keyboard-response,93,168742,0.0-1.0-126.0,0,0,47956,,,,,,,,,,,,,,,,,,,,,,,,,,,,106.5,3.0,,
94,,rl_choice,,html-keyboard-response,94,170245,0.0-1.0-128.0,0,0,47956,,,,,,18.0,18.0,1.0,hard,3500.0,1500.0,1.0,60.0,40.0,60.0,60.0,D,C,/static/Simple_RL/Stimuli/Fractals_stims/D.jpg,/static/Simple_RL/Stimuli/Fractals_stims/C.jpg,,,,,,,,108.0,1.5,1.0,
95,,rl_choice_warning,,html-keyboard-response,95,171249,0.0-1.0-130.0-0.0,0,0,47956,,,,,,,,,,,,,,,,,,,,,,,,,,,,109.0,1.0,,
96,,isi,,html-keyboard-response,96,172752,0.0-1.0-131.0,0,0,47956,,,,,,,,,,,,,,,,,,,,,,,,,,,,110.5,1.5,,
97,,iti,,html-keyboard-response,97,176255,0.0-1.0-133.0,0,0,47956,,,,,,,,,,,,,,,,,,,,,,,,,,,,114.0,3.5,,
98,,rl_choice,,html-keyboard-response,98,176498,0.0-1.0-135.0,0,0,47956,,241.0,,,68.0,19.0,19.0,1.0,hard,2000.0,1500.0,1.0,60.0,40.0,60.0,20.0,D,C,/static/Simple_RL/Stimuli/Fractals_stims/D.jpg,/static/Simple_RL/Stimuli/Fractals_stims/C.jpg,1.0,60.0,40.0,60.0,20.0,D,C,114.241,0.241,0.0,
99,,rl_choice_confirmation,,html-keyboard-response,99,177762,0.0-1.0-136.0-0.0,0,0,47956,,,,,,19.0,,,,,,,,,,,,,,,,,,,,,,115.5,1.259,,
100,,isi,,html-keyboard-response,100,179265,0.0-1.0-138.0,0,0,47956,,,,,,,,,,,,,,,,,,,,,,,,,,,,117.0,1.5,,
101,,feedback,,html-keyboard-response,101,180269,0.0-1.0-139.0-0.0,0,0,47956,,,,,,19.0,,,,,,,,,,,,,,,,,,,,,,118.0,1.0,,
102,,iti,,html-keyboard-response,102,182272,0.0-1.0-140.0,0,0,47956,,,,,,,,,,,,,,,,,,,,,,,,,,,,120.0,2.0,,
103,,rl_choice,,html-keyboard-response,103,182833,0.0-1.0-142.0,0,0,47956,,558.0,,,75.0,20.0,20.0,1.0,easy,2000.0,1000.0,1.0,80.0,20.0,80.0,20.0,B,A,/static/Simple_RL/Stimuli/Fractals_stims/B.jpg,/static/Simple_RL/Stimuli/Fractals_stims/A.jpg,0.0,20.0,80.0,20.0,80.0,A,B,120.558,0.558,0.0,
104,,rl_choice_confirmation,,html-keyboard-response,104,183779,0.0-1.0-143.0-0.0,0,0,47956,,,,,,20.0,,,,,,,,,,,,,,,,,,,,,,121.5,0.942,,
105,,isi,,html-keyboard-response,105,184784,0.0-1.0-145.0,0,0,47956,,,,,,,,,,,,,,,,,,,,,,,,,,,,122.5,1.0,,
106,,feedback,,html-keyboard-response,106,185789,0.0-1.0-146.0-0.0,0,0,47956,,,,,,20.0,,,,,,,,,,,,,,,,,,,,,,123.5,1.0,,
107,,iti,,html-keyboard-response,107,187792,0.0-1.0-147.0,0,0,47956,,,,,,,,,,,,,,,,,,,,,,,,,,,,125.5,2.0,,
108,,rl_choice,,html-keyboard-response,108,188417,0.0-1.0-149.0,0,0,47956,,622.0,,,68.0,21.0,21.0,1.0,easy,1500.0,2000.0,1.0,80.0,20.0,80.0,20.0,B,A,/static/Simple_RL/Stimuli/Fractals_stims/B.jpg,/static/Simple_RL/Stimuli/Fractals_stims/A.jpg,1.0,80.0,20.0,80.0,20.0,B,A,126.122,0.622,0.0,
109,,rl_choice_confirmation,,html-keyboard-response,109,189297,0.0-1.0-150.0-0.0,0,0,47956,,,,,,21.0,,,,,,,,,,,,,,,,,,,,,,127.0,0.878,,
110,,isi,,html-keyboard-response,110,191301,0.0-1.0-152.0,0,0,47956,,,,,,,,,,,,,,,,,,,,,,,,,,,,129.0,2.0,,
111,,feedback,,html-keyboard-response,111,192304,0.0-1.0-153.0-0.0,0,0,47956,,,,,,21.0,,,,,,,,,,,,,,,,,,,,,,130.0,1.0,,
112,,iti,,html-keyboard-response,112,193806,0.0-1.0-154.0,0,0,47956,,,,,,,,,,,,,,,,,,,,,,,,,,,,131.5,1.5,,
113,,rl_choice,,html-keyboard-response,113,194355,0.0-1.0-156.0,0,0,47956,,544.0,,,75.0,22.0,22.0,1.0,easy,1000.0,1000.0,0.0,20.0,80.0,0.0,100.0,A,B,/static/Simple_RL/Stimuli/Fractals_stims/A.jpg,/static/Simple_RL/Stimuli/Fractals_stims/B.jpg,0.0,80.0,20.0,100.0,0.0,B,A,132.044,0.544,0.0,
114,,rl_choice_confirmation,,html-keyboard-response,114,195316,0.0-1.0-157.0-0.0,0,0,47956,,,,,,22.0,,,,,,,,,,,,,,,,,,,,,,133.0,0.956,,
115,,isi,,html-keyboard-response,115,196319,0.0-1.0-159.0,0,0,47956,,,,,,,,,,,,,,,,,,,,,,,,,,,,134.0,1.0,,
116,,feedback,,html-keyboard-response,116,197323,0.0-1.0-160.0-0.0,0,0,47956,,,,,,22.0,,,,,,,,,,,,,,,,,,,,,,135.0,1.0,,
117,,iti,,html-keyboard-response,117,198325,0.0-1.0-161.0,0,0,47956,,,,,,,,,,,,,,,,,,,,,,,,,,,,136.0,1.0,,
118,,rl_choice,,html-keyboard-response,118,198906,0.0-1.0-163.0,0,0,47956,,579.0,,,68.0,23.0,23.0,1.0,hard,2000.0,1000.0,1.0,60.0,40.0,80.0,60.0,D,C,/static/Simple_RL/Stimuli/Fractals_stims/D.jpg,/static/Simple_RL/Stimuli/Fractals_stims/C.jpg,1.0,60.0,40.0,80.0,60.0,D,C,136.579,0.579,0.0,
119,,rl_choice_confirmation,,html-keyboard-response,119,199832,0.0-1.0-164.0-0.0,0,0,47956,,,,,,23.0,,,,,,,,,,,,,,,,,,,,,,137.5,0.921,,
120,,isi,,html-keyboard-response,120,200834,0.0-1.0-166.0,0,0,47956,,,,,,,,,,,,,,,,,,,,,,,,,,,,138.5,1.0,,
121,,feedback,,html-keyboard-response,121,201838,0.0-1.0-167.0-0.0,0,0,47956,,,,,,23.0,,,,,,,,,,,,,,,,,,,,,,139.5,1.0,,
122,,iti,,html-keyboard-response,122,203841,0.0-1.0-168.0,0,0,47956,,,,,,,,,,,,,,,,,,,,,,,,,,,,141.5,2.0,,
123,,rl_choice,,html-keyboard-response,123,204571,0.0-1.0-170.0,0,0,47956,,727.0,,,68.0,24.0,24.0,1.0,hard,1000.0,3000.0,1.0,60.0,40.0,40.0,60.0,D,C,/static/Simple_RL/Stimuli/Fractals_stims/D.jpg,/static/Simple_RL/Stimuli/Fractals_stims/C.jpg,1.0,60.0,40.0,40.0,60.0,D,C,142.227,0.727,0.0,
124,,rl_choice_confirmation,,html-keyboard-response,124,205348,0.0-1.0-171.0-0.0,0,0,47956,,,,,,24.0,,,,,,,,,,,,,,,,,,,,,,143.0,0.773,,
125,,isi,,html-keyboard-response,125,208351,0.0-1.0-173.0,0,0,47956,,,,,,,,,,,,,,,,,,,,,,,,,,,,146.0,3.0,,
126,,feedback,,html-keyboard-response,126,209354,0.0-1.0-174.0-0.0,0,0,47956,,,,,,24.0,,,,,,,,,,,,,,,,,,,,,,147.0,1.0,,
127,,iti,,html-keyboard-response,127,210356,0.0-1.0-175.0,0,0,47956,,,,,,,,,,,,,,,,,,,,,,,,,,,,148.0,1.0,,
128,,rl_choice,,html-keyboard-response,128,211010,0.0-1.0-177.0,0,0,47956,,650.0,,,68.0,25.0,25.0,1.0,hard,2000.0,1000.0,1.0,60.0,40.0,40.0,40.0,D,C,/static/Simple_RL/Stimuli/Fractals_stims/D.jpg,/static/Simple_RL/Stimuli/Fractals_stims/C.jpg,1.0,60.0,40.0,40.0,40.0,D,C,148.65,0.65,0.0,
129,,rl_choice_confirmation,,html-keyboard-response,129,211865,0.0-1.0-178.0-0.0,0,0,47956,,,,,,25.0,,,,,,,,,,,,,,,,,,,,,,149.5,0.85,,
130,,isi,,html-keyboard-response,130,212867,0.0-1.0-180.0,0,0,47956,,,,,,,,,,,,,,,,,,,,,,,,,,,,150.5,1.0,,
131,,feedback,,html-keyboard-response,131,213871,0.0-1.0-181.0-0.0,0,0,47956,,,,,,25.0,,,,,,,,,,,,,,,,,,,,,,151.5,1.0,,
132,,iti,,html-keyboard-response,132,215874,0.0-1.0-182.0,0,0,47956,,,,,,,,,,,,,,,,,,,,,,,,,,,,153.5,2.0,,
133,,rl_choice,,html-keyboard-response,133,216627,0.0-1.0-184.0,0,0,47956,,749.0,,,75.0,26.0,26.0,1.0,easy,1000.0,1000.0,1.0,80.0,20.0,100.0,20.0,B,A,/static/Simple_RL/Stimuli/Fractals_stims/B.jpg,/static/Simple_RL/Stimuli/Fractals_stims/A.jpg,0.0,20.0,80.0,20.0,100.0,A,B,154.249,0.749,0.0,
134,,rl_choice_confirmation,,html-keyboard-response,134,217382,0.0-1.0-185.0-0.0,0,0,47956,,,,,,26.0,,,,,,,,,,,,,,,,,,,,,,155.0,0.751,,
135,,isi,,html-keyboard-response,135,218385,0.0-1.0-187.0,0,0,47956,,,,,,,,,,,,,,,,,,,,,,,,,,,,156.0,1.0,,
136,,feedback,,html-keyboard-response,136,219390,0.0-1.0-188.0-0.0,0,0,47956,,,,,,26.0,,,,,,,,,,,,,,,,,,,,,,157.0,1.0,,
137,,iti,,html-keyboard-response,137,220392,0.0-1.0-189.0,0,0,47956,,,,,,,,,,,,,,,,,,,,,,,,,,,,158.0,1.0,,
138,,rl_choice,,html-keyboard-response,138,221042,0.0-1.0-191.0,0,0,47956,,648.0,,,75.0,27.0,27.0,1.0,hard,1000.0,1500.0,0.0,40.0,60.0,20.0,80.0,C,D,/static/Simple_RL/Stimuli/Fractals_stims/C.jpg,/static/Simple_RL/Stimuli/Fractals_stims/D.jpg,0.0,60.0,40.0,80.0,20.0,D,C,158.648,0.648,0.0,
139,,rl_choice_confirmation,,html-keyboard-response,139,221898,0.0-1.0-192.0-0.0,0,0,47956,,,,,,27.0,,,,,,,,,,,,,,,,,,,,,,159.5,0.852,,
140,,isi,,html-keyboard-response,140,223400,0.0-1.0-194.0,0,0,47956,,,,,,,,,,,,,,,,,,,,,,,,,,,,161.0,1.5,,
141,,feedback,,html-keyboard-response,141,224405,0.0-1.0-195.0-0.0,0,0,47956,,,,,,27.0,,,,,,,,,,,,,,,,,,,,,,162.0,1.0,,
142,,iti,,html-keyboard-response,142,225407,0.0-1.0-196.0,0,0,47956,,,,,,,,,,,,,,,,,,,,,,,,,,,,163.0,1.0,,
143,,rl_choice,,html-keyboard-response,143,225969,0.0-1.0-198.0,0,0,47956,,559.0,,,75.0,28.0,28.0,1.0,hard,1500.0,1500.0,0.0,40.0,60.0,40.0,40.0,C,D,/static/Simple_RL/Stimuli/Fractals_stims/C.jpg,/static/Simple_RL/Stimuli/Fractals_stims/D.jpg,0.0,60.0,40.0,40.0,40.0,D,C,163.559,0.559,0.0,
144,,rl_choice_confirmation,,html-keyboard-response,144,226914,0.0-1.0-199.0-0.0,0,0,47956,,,,,,28.0,,,,,,,,,,,,,,,,,,,,,,164.5,0.941,,
145,,isi,,html-keyboard-response,145,228417,0.0-1.0-201.0,0,0,47956,,,,,,,,,,,,,,,,,,,,,,,,,,,,166.0,1.5,,
146,,feedback,,html-keyboard-response,146,229422,0.0-1.0-202.0-0.0,0,0,47956,,,,,,28.0,,,,,,,,,,,,,,,,,,,,,,167.0,1.0,,
147,,iti,,html-keyboard-response,147,230924,0.0-1.0-203.0,0,0,47956,,,,,,,,,,,,,,,,,,,,,,,,,,,,168.5,1.5,,
148,,rl_choice,,html-keyboard-response,148,231523,0.0-1.0-205.0,0,0,47956,,595.0,,,68.0,29.0,29.0,1.0,easy,1000.0,1000.0,0.0,20.0,80.0,20.0,80.0,A,B,/static/Simple_RL/Stimuli/Fractals_stims/A.jpg,/static/Simple_RL/Stimuli/Fractals_stims/B.jpg,1.0,20.0,80.0,20.0,80.0,A,B,169.095,0.595,0.0,
149,,rl_choice_confirmation,,html-keyboard-response,149,232434,0.0-1.0-206.0-0.0,0,0,47956,,,,,,29.0,,,,,,,,,,,,,,,,,,,,,,170.0,0.905,,
150,,isi,,html-keyboard-response,150,233438,0.0-1.0-208.0,0,0,47956,,,,,,,,,,,,,,,,,,,,,,,,,,,,171.0,1.0,,
151,,feedback,,html-keyboard-response,151,234441,0.0-1.0-209.0-0.0,0,0,47956,,,,,,29.0,,,,,,,,,,,,,,,,,,,,,,172.0,1.0,,
152,,iti,,html-keyboard-response,152,235444,0.0-1.0-210.0,0,0,47956,,,,,,,,,,,,,,,,,,,,,,,,,,,,173.0,1.0,,
153,,rl_choice,,html-keyboard-response,153,236170,0.0-1.0-212.0,0,0,47956,,723.0,,,68.0,30.0,30.0,1.0,hard,1500.0,2000.0,1.0,60.0,40.0,80.0,60.0,D,C,/static/Simple_RL/Stimuli/Fractals_stims/D.jpg,/static/Simple_RL/Stimuli/Fractals_stims/C.jpg,1.0,60.0,40.0,80.0,60.0,D,C,173.723,0.723,0.0,
154,,rl_choice_confirmation,,html-keyboard-response,154,236952,0.0-1.0-213.0-0.0,0,0,47956,,,,,,30.0,,,,,,,,,,,,,,,,,,,,,,174.5,0.777,,
155,,isi,,html-keyboard-response,155,238955,0.0-1.0-215.0,0,0,47956,,,,,,,,,,,,,,,,,,,,,,,,,,,,176.5,2.0,,
156,,feedback,,html-keyboard-response,156,239959,0.0-1.0-216.0-0.0,0,0,47956,,,,,,30.0,,,,,,,,,,,,,,,,,,,,,,177.5,1.0,,
157,,iti,,html-keyboard-response,157,241463,0.0-1.0-217.0,0,0,47956,,,,,,,,,,,,,,,,,,,,,,,,,,,,179.0,1.5,,
158,,rl_choice,,html-keyboard-response,158,242331,0.0-1.0-219.0,0,0,47956,,864.0,,,75.0,31.0,31.0,1.0,easy,1000.0,1500.0,1.0,80.0,20.0,80.0,0.0,B,A,/static/Simple_RL/Stimuli/Fractals_stims/B.jpg,/static/Simple_RL/Stimuli/Fractals_stims/A.jpg,0.0,20.0,80.0,0.0,80.0,A,B,179.864,0.864,0.0,
159,,rl_choice_confirmation,,html-keyboard-response,159,242972,0.0-1.0-220.0-0.0,0,0,47956,,,,,,31.0,,,,,,,,,,,,,,,,,,,,,,180.5,0.636,,
160,,isi,,html-keyboard-response,160,244475,0.0-1.0-222.0,0,0,47956,,,,,,,,,,,,,,,,,,,,,,,,,,,,182.0,1.5,,
161,,feedback,,html-keyboard-response,161,245479,0.0-1.0-223.0-0.0,0,0,47956,,,,,,31.0,,,,,,,,,,,,,,,,,,,,,,183.0,1.0,,
162,,iti,,html-keyboard-response,162,246481,0.0-1.0-224.0,0,0,47956,,,,,,,,,,,,,,,,,,,,,,,,,,,,184.0,1.0,,
163,,rl_choice,,html-keyboard-response,163,247698,0.0-1.0-226.0,0,0,47956,,1214.0,,,75.0,32.0,32.0,1.0,easy,1000.0,3500.0,1.0,80.0,20.0,60.0,20.0,B,A,/static/Simple_RL/Stimuli/Fractals_stims/B.jpg,/static/Simple_RL/Stimuli/Fractals_stims/A.jpg,0.0,20.0,80.0,20.0,60.0,A,B,185.214,1.214,0.0,
164,,rl_choice_confirmation,,html-keyboard-response,164,247989,0.0-1.0-227.0-0.0,0,0,47956,,,,,,32.0,,,,,,,,,,,,,,,,,,,,,,185.5,0.286,,
165,,isi,,html-keyboard-response,165,251491,0.0-1.0-229.0,0,0,47956,,,,,,,,,,,,,,,,,,,,,,,,,,,,189.0,3.5,,
166,,feedback,,html-keyboard-response,166,252495,0.0-1.0-230.0-0.0,0,0,47956,,,,,,32.0,,,,,,,,,,,,,,,,,,,,,,190.0,1.0,,
167,,iti,,html-keyboard-response,167,253499,0.0-1.0-231.0,0,0,47956,,,,,,,,,,,,,,,,,,,,,,,,,,,,191.0,1.0,,
168,,rl_choice,,html-keyboard-response,168,254275,0.0-1.0-233.0,0,0,47956,,771.0,,,68.0,33.0,33.0,1.0,hard,2000.0,1500.0,1.0,60.0,40.0,40.0,20.0,D,C,/static/Simple_RL/Stimuli/Fractals_stims/D.jpg,/static/Simple_RL/Stimuli/Fractals_stims/C.jpg,1.0,60.0,40.0,40.0,20.0,D,C,191.771,0.771,0.0,
169,,rl_choice_confirmation,,html-keyboard-response,169,255008,0.0-1.0-234.0-0.0,0,0,47956,,,,,,33.0,,,,,,,,,,,,,,,,,,,,,,192.5,0.729,,
170,,isi,,html-keyboard-response,170,256511,0.0-1.0-236.0,0,0,47956,,,,,,,,,,,,,,,,,,,,,,,,,,,,194.0,1.5,,
171,,feedback,,html-keyboard-response,171,257515,0.0-1.0-237.0-0.0,0,0,47956,,,,,,33.0,,,,,,,,,,,,,,,,,,,,,,195.0,1.0,,
172,,iti,,html-keyboard-response,172,259517,0.0-1.0-238.0,0,0,47956,,,,,,,,,,,,,,,,,,,,,,,,,,,,197.0,2.0,,
173,,rl_choice,,html-keyboard-response,173,260106,0.0-1.0-240.0,0,0,47956,,587.0,,,75.0,34.0,34.0,1.0,hard,3000.0,1000.0,0.0,40.0,60.0,20.0,60.0,C,D,/static/Simple_RL/Stimuli/Fractals_stims/C.jpg,/static/Simple_RL/Stimuli/Fractals_stims/D.jpg,0.0,60.0,40.0,60.0,20.0,D,C,197.587,0.587,0.0,
174,,rl_choice_confirmation,,html-keyboard-response,174,261024,0.0-1.0-241.0-0.0,0,0,47956,,,,,,34.0,,,,,,,,,,,,,,,,,,,,,,198.5,0.913,,
175,,isi,,html-keyboard-response,175,262027,0.0-1.0-243.0,0,0,47956,,,,,,,,,,,,,,,,,,,,,,,,,,,,199.5,1.0,,
176,,feedback,,html-keyboard-response,176,263036,0.0-1.0-244.0-0.0,0,0,47956,,,,,,34.0,,,,,,,,,,,,,,,,,,,,,,200.5,1.0,,
177,,iti,,html-keyboard-response,177,266038,0.0-1.0-245.0,0,0,47956,,,,,,,,,,,,,,,,,,,,,,,,,,,,203.5,3.0,,
178,,rl_choice,,html-keyboard-response,178,266931,0.0-1.0-247.0,0,0,47956,,888.0,,,68.0,35.0,35.0,1.0,easy,1500.0,1000.0,1.0,80.0,20.0,80.0,20.0,B,A,/static/Simple_RL/Stimuli/Fractals_stims/B.jpg,/static/Simple_RL/Stimuli/Fractals_stims/A.jpg,1.0,80.0,20.0,80.0,20.0,B,A,204.388,0.888,0.0,
179,,rl_choice_confirmation,,html-keyboard-response,179,267546,0.0-1.0-248.0-0.0,0,0,47956,,,,,,35.0,,,,,,,,,,,,,,,,,,,,,,205.0,0.612,,
180,,isi,,html-keyboard-response,180,268549,0.0-1.0-250.0,0,0,47956,,,,,,,,,,,,,,,,,,,,,,,,,,,,206.0,1.0,,
181,,feedback,,html-keyboard-response,181,269555,0.0-1.0-251.0-0.0,0,0,47956,,,,,,35.0,,,,,,,,,,,,,,,,,,,,,,207.0,1.0,,
182,,iti,,html-keyboard-response,182,271058,0.0-1.0-252.0,0,0,47956,,,,,,,,,,,,,,,,,,,,,,,,,,,,208.5,1.5,,
183,,rl_choice,,html-keyboard-response,183,271721,0.0-1.0-254.0,0,0,47956,,660.0,,,75.0,36.0,36.0,1.0,easy,1500.0,2000.0,1.0,80.0,20.0,80.0,40.0,B,A,/static/Simple_RL/Stimuli/Fractals_stims/B.jpg,/static/Simple_RL/Stimuli/Fractals_stims/A.jpg,0.0,20.0,80.0,40.0,80.0,A,B,209.16,0.66,0.0,
184,,rl_choice_confirmation,,html-keyboard-response,184,272566,0.0-1.0-255.0-0.0,0,0,47956,,,,,,36.0,,,,,,,,,,,,,,,,,,,,,,210.0,0.84,,
185,,isi,,html-keyboard-response,185,274568,0.0-1.0-257.0,0,0,47956,,,,,,,,,,,,,,,,,,,,,,,,,,,,212.0,2.0,,
186,,feedback,,html-keyboard-response,186,275572,0.0-1.0-258.0-0.0,0,0,47956,,,,,,36.0,,,,,,,,,,,,,,,,,,,,,,213.0,1.0,,
187,,iti,,html-keyboard-response,187,277075,0.0-1.0-259.0,0,0,47956,,,,,,,,,,,,,,,,,,,,,,,,,,,,214.5,1.5,,
188,,rl_choice,,html-keyboard-response,188,277666,0.0-1.0-261.0,0,0,47956,,588.0,,,75.0,37.0,37.0,1.0,easy,2000.0,1000.0,1.0,80.0,20.0,60.0,40.0,B,A,/static/Simple_RL/Stimuli/Fractals_stims/B.jpg,/static/Simple_RL/Stimuli/Fractals_stims/A.jpg,0.0,20.0,80.0,40.0,60.0,A,B,215.088,0.588,0.0,
189,,rl_choice_confirmation,,html-keyboard-response,189,278582,0.0-1.0-262.0-0.0,0,0,47956,,,,,,37.0,,,,,,,,,,,,,,,,,,,,,,216.0,0.912,,
190,,isi,,html-keyboard-response,190,279586,0.0-1.0-264.0,0,0,47956,,,,,,,,,,,,,,,,,,,,,,,,,,,,217.0,1.0,,
191,,feedback,,html-keyboard-response,191,280590,0.0-1.0-265.0-0.0,0,0,47956,,,,,,37.0,,,,,,,,,,,,,,,,,,,,,,218.0,1.0,,
192,,iti,,html-keyboard-response,192,282593,0.0-1.0-266.0,0,0,47956,,,,,,,,,,,,,,,,,,,,,,,,,,,,220.0,2.0,,
193,,rl_choice,,html-keyboard-response,193,283147,0.0-1.0-268.0,0,0,47956,,550.0,,,68.0,38.0,38.0,1.0,easy,3500.0,1500.0,0.0,20.0,80.0,40.0,60.0,A,B,/static/Simple_RL/Stimuli/Fractals_stims/A.jpg,/static/Simple_RL/Stimuli/Fractals_stims/B.jpg,1.0,20.0,80.0,40.0,60.0,A,B,220.55,0.55,0.0,
194,,rl_choice_confirmation,,html-keyboard-response,194,284100,0.0-1.0-269.0-0.0,0,0,47956,,,,,,38.0,,,,,,,,,,,,,,,,,,,,,,221.5,0.95,,
195,,isi,,html-keyboard-response,195,285603,0.0-1.0-271.0,0,0,47956,,,,,,,,,,,,,,,,,,,,,,,,,,,,223.0,1.5,,
196,,feedback,,html-keyboard-response,196,286607,0.0-1.0-272.0-0.0,0,0,47956,,,,,,38.0,,,,,,,,,,,,,,,,,,,,,,224.0,1.0,,
197,,iti,,html-keyboard-response,197,290109,0.0-1.0-273.0,0,0,47956,,,,,,,,,,,,,,,,,,,,,,,,,,,,227.5,3.5,,
198,,rl_choice,,html-keyboard-response,198,290811,0.0-1.0-275.0,0,0,47956,,699.0,,,75.0,39.0,39.0,1.0,easy,1000.0,1000.0,1.0,80.0,20.0,60.0,20.0,B,A,/static/Simple_RL/Stimuli/Fractals_stims/B.jpg,/static/Simple_RL/Stimuli/Fractals_stims/A.jpg,0.0,20.0,80.0,20.0,60.0,A,B,228.199,0.699,0.0,
199,,rl_choice_confirmation,,html-keyboard-response,199,291616,0.0-1.0-276.0-0.0,0,0,47956,,,,,,39.0,,,,,,,,,,,,,,,,,,,,,,229.0,0.801,,
200,,isi,,html-keyboard-response,200,292620,0.0-1.0-278.0,0,0,47956,,,,,,,,,,,,,,,,,,,,,,,,,,,,230.0,1.0,,
201,,feedback,,html-keyboard-response,201,293624,0.0-1.0-279.0-0.0,0,0,47956,,,,,,39.0,,,,,,,,,,,,,,,,,,,,,,231.0,1.0,,
202,,iti,,html-keyboard-response,202,294627,0.0-1.0-280.0,0,0,47956,,,,,,,,,,,,,,,,,,,,,,,,,,,,232.0,1.0,,
203,,block_over,,html-keyboard-response,203,297817,0.0-1.0-281.0-0.0,0,0,47956,,3187.0,,,68.0,39.0,,,,,,,,,,,,,,,,,,,,,,,,,
204,,start_run,,html-keyboard-response,204,300314,0.0-1.0-281.0-1.0,0,0,47956,,2494.0,,,84.0,,,,,,,,,,,,,,,,,,,,,,,,,,
205,,rl_choice,,html-keyboard-response,205,301066,0.0-1.0-282.0,0,0,47956,,750.0,,,75.0,40.0,40.0,2.0,hard,1000.0,2000.0,0.0,40.0,60.0,40.0,40.0,C,D,/static/Simple_RL/Stimuli/Fractals_stims/C.jpg,/static/Simple_RL/Stimuli/Fractals_stims/D.jpg,0.0,60.0,40.0,40.0,40.0,D,C,0.75,0.75,0.0,
206,,rl_choice_confirmation,,html-keyboard-response,206,301821,0.0-1.0-283.0-0.0,0,0,47956,,,,,,40.0,,,,,,,,,,,,,,,,,,,,,,1.5,0.75,,
207,,isi,,html-keyboard-response,207,303824,0.0-1.0-285.0,0,0,47956,,,,,,,,,,,,,,,,,,,,,,,,,,,,3.5,2.0,,
208,,feedback,,html-keyboard-response,208,304828,0.0-1.0-286.0-0.0,0,0,47956,,,,,,40.0,,,,,,,,,,,,,,,,,,,,,,4.5,1.0,,
209,,iti,,html-keyboard-response,209,305830,0.0-1.0-287.0,0,0,47956,,,,,,,,,,,,,,,,,,,,,,,,,,,,5.5,1.0,,
210,,rl_choice,,html-keyboard-response,210,306515,0.0-1.0-289.0,0,0,47956,,681.0,,,68.0,41.0,41.0,2.0,hard,1000.0,3000.0,1.0,60.0,40.0,40.0,60.0,D,C,/static/Simple_RL/Stimuli/Fractals_stims/D.jpg,/static/Simple_RL/Stimuli/Fractals_stims/C.jpg,1.0,60.0,40.0,40.0,60.0,D,C,6.181,0.681,0.0,
211,,rl_choice_confirmation,,html-keyboard-response,211,307339,0.0-1.0-290.0-0.0,0,0,47956,,,,,,41.0,,,,,,,,,,,,,,,,,,,,,,7.0,0.819,,
212,,isi,,html-keyboard-response,212,310342,0.0-1.0-292.0,0,0,47956,,,,,,,,,,,,,,,,,,,,,,,,,,,,10.0,3.0,,
213,,feedback,,html-keyboard-response,213,311346,0.0-1.0-293.0-0.0,0,0,47956,,,,,,41.0,,,,,,,,,,,,,,,,,,,,,,11.0,1.0,,
214,,iti,,html-keyboard-response,214,312349,0.0-1.0-294.0,0,0,47956,,,,,,,,,,,,,,,,,,,,,,,,,,,,12.0,1.0,,
215,,rl_choice,,html-keyboard-response,215,312842,0.0-1.0-296.0,0,0,47956,,491.0,,,75.0,42.0,42.0,2.0,hard,1000.0,1000.0,0.0,40.0,60.0,40.0,40.0,C,D,/static/Simple_RL/Stimuli/Fractals_stims/C.jpg,/static/Simple_RL/Stimuli/Fractals_stims/D.jpg,0.0,60.0,40.0,40.0,40.0,D,C,12.491,0.491,0.0,
216,,rl_choice_confirmation,,html-keyboard-response,216,313854,0.0-1.0-297.0-0.0,0,0,47956,,,,,,42.0,,,,,,,,,,,,,,,,,,,,,,13.5,1.009,,
217,,isi,,html-keyboard-response,217,314857,0.0-1.0-299.0,0,0,47956,,,,,,,,,,,,,,,,,,,,,,,,,,,,14.5,1.0,,
218,,feedback,,html-keyboard-response,218,315860,0.0-1.0-300.0-0.0,0,0,47956,,,,,,42.0,,,,,,,,,,,,,,,,,,,,,,15.5,1.0,,
219,,iti,,html-keyboard-response,219,316863,0.0-1.0-301.0,0,0,47956,,,,,,,,,,,,,,,,,,,,,,,,,,,,16.5,1.0,,
220,,rl_choice,,html-keyboard-response,220,317571,0.0-1.0-303.0,0,0,47956,,704.0,,,68.0,43.0,43.0,2.0,easy,1500.0,2000.0,0.0,20.0,80.0,0.0,60.0,A,B,/static/Simple_RL/Stimuli/Fractals_stims/A.jpg,/static/Simple_RL/Stimuli/Fractals_stims/B.jpg,1.0,20.0,80.0,0.0,60.0,A,B,17.204,0.704,0.0,
221,,rl_choice_confirmation,,html-keyboard-response,221,318372,0.0-1.0-304.0-0.0,0,0,47956,,,,,,43.0,,,,,,,,,,,,,,,,,,,,,,18.0,0.796,,
222,,isi,,html-keyboard-response,222,320375,0.0-1.0-306.0,0,0,47956,,,,,,,,,,,,,,,,,,,,,,,,,,,,20.0,2.0,,
223,,feedback,,html-keyboard-response,223,321378,0.0-1.0-307.0-0.0,0,0,47956,,,,,,43.0,,,,,,,,,,,,,,,,,,,,,,21.0,1.0,,
224,,iti,,html-keyboard-response,224,322881,0.0-1.0-308.0,0,0,47956,,,,,,,,,,,,,,,,,,,,,,,,,,,,22.5,1.5,,
225,,rl_choice,,html-keyboard-response,225,323363,0.0-1.0-310.0,0,0,47956,,480.0,,,68.0,44.0,44.0,2.0,hard,1000.0,1500.0,0.0,40.0,60.0,60.0,60.0,C,D,/static/Simple_RL/Stimuli/Fractals_stims/C.jpg,/static/Simple_RL/Stimuli/Fractals_stims/D.jpg,1.0,40.0,60.0,60.0,60.0,C,D,22.98,0.48,0.0,
226,,rl_choice_confirmation,,html-keyboard-response,226,324387,0.0-1.0-311.0-0.0,0,0,47956,,,,,,44.0,,,,,,,,,,,,,,,,,,,,,,24.0,1.02,,
227,,isi,,html-keyboard-response,227,325890,0.0-1.0-313.0,0,0,47956,,,,,,,,,,,,,,,,,,,,,,,,,,,,25.5,1.5,,
228,,feedback,,html-keyboard-response,228,326894,0.0-1.0-314.0-0.0,0,0,47956,,,,,,44.0,,,,,,,,,,,,,,,,,,,,,,26.5,1.0,,
229,,iti,,html-keyboard-response,229,327897,0.0-1.0-315.0,0,0,47956,,,,,,,,,,,,,,,,,,,,,,,,,,,,27.5,1.0,,
230,,rl_choice,,html-keyboard-response,230,328331,0.0-1.0-317.0,0,0,47956,,429.0,,,75.0,45.0,45.0,2.0,hard,2000.0,2000.0,0.0,40.0,60.0,40.0,60.0,C,D,/static/Simple_RL/Stimuli/Fractals_stims/C.jpg,/static/Simple_RL/Stimuli/Fractals_stims/D.jpg,0.0,60.0,40.0,60.0,40.0,D,C,27.929,0.429,0.0,
231,,rl_choice_confirmation,,html-keyboard-response,231,329407,0.0-1.0-318.0-0.0,0,0,47956,,,,,,45.0,,,,,,,,,,,,,,,,,,,,,,29.0,1.071,,
232,,isi,,html-keyboard-response,232,331411,0.0-1.0-320.0,0,0,47956,,,,,,,,,,,,,,,,,,,,,,,,,,,,31.0,2.0,,
233,,feedback,,html-keyboard-response,233,332415,0.0-1.0-321.0-0.0,0,0,47956,,,,,,45.0,,,,,,,,,,,,,,,,,,,,,,32.0,1.0,,
234,,iti,,html-keyboard-response,234,334416,0.0-1.0-322.0,0,0,47956,,,,,,,,,,,,,,,,,,,,,,,,,,,,34.0,2.0,,
235,,rl_choice,,html-keyboard-response,235,334987,0.0-1.0-324.0,0,0,47956,,567.0,,,75.0,46.0,46.0,2.0,hard,2000.0,2000.0,0.0,40.0,60.0,40.0,40.0,C,D,/static/Simple_RL/Stimuli/Fractals_stims/C.jpg,/static/Simple_RL/Stimuli/Fractals_stims/D.jpg,0.0,60.0,40.0,40.0,40.0,D,C,34.567,0.567,0.0,
236,,rl_choice_confirmation,,html-keyboard-response,236,335925,0.0-1.0-325.0-0.0,0,0,47956,,,,,,46.0,,,,,,,,,,,,,,,,,,,,,,35.5,0.933,,
237,,isi,,html-keyboard-response,237,337927,0.0-1.0-327.0,0,0,47956,,,,,,,,,,,,,,,,,,,,,,,,,,,,37.5,2.0,,
238,,feedback,,html-keyboard-response,238,338930,0.0-1.0-328.0-0.0,0,0,47956,,,,,,46.0,,,,,,,,,,,,,,,,,,,,,,38.5,1.0,,
239,,iti,,html-keyboard-response,239,340933,0.0-1.0-329.0,0,0,47956,,,,,,,,,,,,,,,,,,,,,,,,,,,,40.5,2.0,,
240,,rl_choice,,html-keyboard-response,240,341482,0.0-1.0-331.0,0,0,47956,,545.0,,,68.0,47.0,47.0,2.0,hard,1500.0,1500.0,1.0,60.0,40.0,80.0,20.0,D,C,/static/Simple_RL/Stimuli/Fractals_stims/D.jpg,/static/Simple_RL/Stimuli/Fractals_stims/C.jpg,1.0,60.0,40.0,80.0,20.0,D,C,41.045,0.545,0.0,
241,,rl_choice_confirmation,,html-keyboard-response,241,342445,0.0-1.0-332.0-0.0,0,0,47956,,,,,,47.0,,,,,,,,,,,,,,,,,,,,,,42.0,0.955,,
242,,isi,,html-keyboard-response,242,343947,0.0-1.0-334.0,0,0,47956,,,,,,,,,,,,,,,,,,,,,,,,,,,,43.5,1.5,,
243,,feedback,,html-keyboard-response,243,344952,0.0-1.0-335.0-0.0,0,0,47956,,,,,,47.0,,,,,,,,,,,,,,,,,,,,,,44.5,1.0,,
244,,iti,,html-keyboard-response,244,346456,0.0-1.0-336.0,0,0,47956,,,,,,,,,,,,,,,,,,,,,,,,,,,,46.0,1.5,,
245,,rl_choice,,html-keyboard-response,245,347394,0.0-1.0-338.0,0,0,47956,,934.0,,,75.0,48.0,48.0,2.0,easy,3500.0,1000.0,1.0,80.0,20.0,60.0,0.0,B,A,/static/Simple_RL/Stimuli/Fractals_stims/B.jpg,/static/Simple_RL/Stimuli/Fractals_stims/A.jpg,0.0,20.0,80.0,0.0,60.0,A,B,46.934,0.934,0.0,
246,,rl_choice_confirmation,,html-keyboard-response,246,347963,0.0-1.0-339.0-0.0,0,0,47956,,,,,,48.0,,,,,,,,,,,,,,,,,,,,,,47.5,0.566,,
247,,isi,,html-keyboard-response,247,348967,0.0-1.0-341.0,0,0,47956,,,,,,,,,,,,,,,,,,,,,,,,,,,,48.5,1.0,,
248,,feedback,,html-keyboard-response,248,349972,0.0-1.0-342.0-0.0,0,0,47956,,,,,,48.0,,,,,,,,,,,,,,,,,,,,,,49.5,1.0,,
249,,iti,,html-keyboard-response,249,353500,0.0-1.0-343.0,0,0,47956,,,,,,,,,,,,,,,,,,,,,,,,,,,,53.0,3.5,,
250,,rl_choice,,html-keyboard-response,250,354041,0.0-1.0-345.0,0,0,47956,,538.0,,,68.0,49.0,49.0,2.0,hard,1000.0,3500.0,1.0,60.0,40.0,80.0,20.0,D,C,/static/Simple_RL/Stimuli/Fractals_stims/D.jpg,/static/Simple_RL/Stimuli/Fractals_stims/C.jpg,1.0,60.0,40.0,80.0,20.0,D,C,53.538,0.538,0.0,
251,,rl_choice_confirmation,,html-keyboard-response,251,355007,0.0-1.0-346.0-0.0,0,0,47956,,,,,,49.0,,,,,,,,,,,,,,,,,,,,,,54.5,0.962,,
252,,isi,,html-keyboard-response,252,358510,0.0-1.0-348.0,0,0,47956,,,,,,,,,,,,,,,,,,,,,,,,,,,,58.0,3.5,,
253,,feedback,,html-keyboard-response,253,359514,0.0-1.0-349.0-0.0,0,0,47956,,,,,,49.0,,,,,,,,,,,,,,,,,,,,,,59.0,1.0,,
254,,iti,,html-keyboard-response,254,360517,0.0-1.0-350.0,0,0,47956,,,,,,,,,,,,,,,,,,,,,,,,,,,,60.0,1.0,,
255,,rl_choice,,html-keyboard-response,255,361267,0.0-1.0-352.0,0,0,47956,,746.0,,,75.0,50.0,50.0,2.0,easy,1000.0,1500.0,1.0,80.0,20.0,80.0,40.0,B,A,/static/Simple_RL/Stimuli/Fractals_stims/B.jpg,/static/Simple_RL/Stimuli/Fractals_stims/A.jpg,0.0,20.0,80.0,40.0,80.0,A,B,60.746,0.746,0.0,
256,,rl_choice_confirmation,,html-keyboard-response,256,362025,0.0-1.0-353.0-0.0,0,0,47956,,,,,,50.0,,,,,,,,,,,,,,,,,,,,,,61.5,0.754,,
257,,isi,,html-keyboard-response,257,363528,0.0-1.0-355.0,0,0,47956,,,,,,,,,,,,,,,,,,,,,,,,,,,,63.0,1.5,,
258,,feedback,,html-keyboard-response,258,364535,0.0-1.0-356.0-0.0,0,0,47956,,,,,,50.0,,,,,,,,,,,,,,,,,,,,,,64.0,1.0,,
259,,iti,,html-keyboard-response,259,365537,0.0-1.0-357.0,0,0,47956,,,,,,,,,,,,,,,,,,,,,,,,,,,,65.0,1.0,,
260,,rl_choice,,html-keyboard-response,260,366115,0.0-1.0-359.0,0,0,47956,,574.0,,,68.0,51.0,51.0,2.0,easy,1000.0,2000.0,0.0,20.0,80.0,0.0,100.0,A,B,/static/Simple_RL/Stimuli/Fractals_stims/A.jpg,/static/Simple_RL/Stimuli/Fractals_stims/B.jpg,1.0,20.0,80.0,0.0,100.0,A,B,65.574,0.574,0.0,
261,,rl_choice_confirmation,,html-keyboard-response,261,367045,0.0-1.0-360.0-0.0,0,0,47956,,,,,,51.0,,,,,,,,,,,,,,,,,,,,,,66.5,0.926,,
262,,isi,,html-keyboard-response,262,369049,0.0-1.0-362.0,0,0,47956,,,,,,,,,,,,,,,,,,,,,,,,,,,,68.5,2.0,,
263,,feedback,,html-keyboard-response,263,370053,0.0-1.0-363.0-0.0,0,0,47956,,,,,,51.0,,,,,,,,,,,,,,,,,,,,,,69.5,1.0,,
264,,iti,,html-keyboard-response,264,371056,0.0-1.0-364.0,0,0,47956,,,,,,,,,,,,,,,,,,,,,,,,,,,,70.5,1.0,,
265,,rl_choice,,html-keyboard-response,265,371921,0.0-1.0-366.0,0,0,47956,,862.0,,,75.0,52.0,52.0,2.0,easy,3000.0,1500.0,0.0,20.0,80.0,40.0,80.0,A,B,/static/Simple_RL/Stimuli/Fractals_stims/A.jpg,/static/Simple_RL/Stimuli/Fractals_stims/B.jpg,0.0,80.0,20.0,80.0,40.0,B,A,71.362,0.862,0.0,
266,,rl_choice_confirmation,,html-keyboard-response,266,372563,0.0-1.0-367.0-0.0,0,0,47956,,,,,,52.0,,,,,,,,,,,,,,,,,,,,,,72.0,0.638,,
267,,isi,,html-keyboard-response,267,374066,0.0-1.0-369.0,0,0,47956,,,,,,,,,,,,,,,,,,,,,,,,,,,,73.5,1.5,,
268,,feedback,,html-keyboard-response,268,375068,0.0-1.0-370.0-0.0,0,0,47956,,,,,,52.0,,,,,,,,,,,,,,,,,,,,,,74.5,1.0,,
269,,iti,,html-keyboard-response,269,378072,0.0-1.0-371.0,0,0,47956,,,,,,,,,,,,,,,,,,,,,,,,,,,,77.5,3.0,,
270,,rl_choice,,html-keyboard-response,270,378618,0.0-1.0-373.0,0,0,47956,,543.0,,,68.0,53.0,53.0,2.0,hard,2000.0,1000.0,1.0,60.0,40.0,60.0,40.0,D,C,/static/Simple_RL/Stimuli/Fractals_stims/D.jpg,/static/Simple_RL/Stimuli/Fractals_stims/C.jpg,1.0,60.0,40.0,60.0,40.0,D,C,78.043,0.543,0.0,
271,,rl_choice_confirmation,,html-keyboard-response,271,379580,0.0-1.0-374.0-0.0,0,0,47956,,,,,,53.0,,,,,,,,,,,,,,,,,,,,,,79.0,0.957,,
272,,isi,,html-keyboard-response,272,380584,0.0-1.0-376.0,0,0,47956,,,,,,,,,,,,,,,,,,,,,,,,,,,,80.0,1.0,,
273,,feedback,,html-keyboard-response,273,381588,0.0-1.0-377.0-0.0,0,0,47956,,,,,,53.0,,,,,,,,,,,,,,,,,,,,,,81.0,1.0,,
274,,iti,,html-keyboard-response,274,383591,0.0-1.0-378.0,0,0,47956,,,,,,,,,,,,,,,,,,,,,,,,,,,,83.0,2.0,,
275,,rl_choice,,html-keyboard-response,275,384291,0.0-1.0-380.0,0,0,47956,,696.0,,,68.0,54.0,54.0,2.0,easy,2000.0,1500.0,0.0,20.0,80.0,0.0,100.0,A,B,/static/Simple_RL/Stimuli/Fractals_stims/A.jpg,/static/Simple_RL/Stimuli/Fractals_stims/B.jpg,1.0,20.0,80.0,0.0,100.0,A,B,83.696,0.696,0.0,
276,,rl_choice_confirmation,,html-keyboard-response,276,385101,0.0-1.0-381.0-0.0,0,0,47956,,,,,,54.0,,,,,,,,,,,,,,,,,,,,,,84.5,0.804,,
277,,isi,,html-keyboard-response,277,386602,0.0-1.0-383.0,0,0,47956,,,,,,,,,,,,,,,,,,,,,,,,,,,,86.0,1.5,,
278,,feedback,,html-keyboard-response,278,387607,0.0-1.0-384.0-0.0,0,0,47956,,,,,,54.0,,,,,,,,,,,,,,,,,,,,,,87.0,1.0,,
279,,iti,,html-keyboard-response,279,389610,0.0-1.0-385.0,0,0,47956,,,,,,,,,,,,,,,,,,,,,,,,,,,,89.0,2.0,,
280,,rl_choice,,html-keyboard-response,280,390522,0.0-1.0-387.0,0,0,47956,,909.0,,,68.0,55.0,55.0,2.0,easy,1000.0,1000.0,0.0,20.0,80.0,40.0,100.0,A,B,/static/Simple_RL/Stimuli/Fractals_stims/A.jpg,/static/Simple_RL/Stimuli/Fractals_stims/B.jpg,1.0,20.0,80.0,40.0,100.0,A,B,89.909,0.909,0.0,
281,,rl_choice_confirmation,,html-keyboard-response,281,391117,0.0-1.0-388.0-0.0,0,0,47956,,,,,,55.0,,,,,,,,,,,,,,,,,,,,,,90.5,0.591,,
282,,isi,,html-keyboard-response,282,392120,0.0-1.0-390.0,0,0,47956,,,,,,,,,,,,,,,,,,,,,,,,,,,,91.5,1.0,,
283,,feedback,,html-keyboard-response,283,393123,0.0-1.0-391.0-0.0,0,0,47956,,,,,,55.0,,,,,,,,,,,,,,,,,,,,,,92.5,1.0,,
284,,iti,,html-keyboard-response,284,394125,0.0-1.0-392.0,0,0,47956,,,,,,,,,,,,,,,,,,,,,,,,,,,,93.5,1.0,,
285,,rl_choice,,html-keyboard-response,285,394722,0.0-1.0-394.0,0,0,47956,,593.0,,,68.0,56.0,56.0,2.0,hard,2000.0,1000.0,1.0,60.0,40.0,60.0,20.0,D,C,/static/Simple_RL/Stimuli/Fractals_stims/D.jpg,/static/Simple_RL/Stimuli/Fractals_stims/C.jpg,1.0,60.0,40.0,60.0,20.0,D,C,94.093,0.593,0.0,
286,,rl_choice_confirmation,,html-keyboard-response,286,395632,0.0-1.0-395.0-0.0,0,0,47956,,,,,,56.0,,,,,,,,,,,,,,,,,,,,,,95.0,0.907,,
287,,isi,,html-keyboard-response,287,396635,0.0-1.0-397.0,0,0,47956,,,,,,,,,,,,,,,,,,,,,,,,,,,,96.0,1.0,,
288,,feedback,,html-keyboard-response,288,397638,0.0-1.0-398.0-0.0,0,0,47956,,,,,,56.0,,,,,,,,,,,,,,,,,,,,,,97.0,1.0,,
289,,iti,,html-keyboard-response,289,399644,0.0-1.0-399.0,0,0,47956,,,,,,,,,,,,,,,,,,,,,,,,,,,,99.0,2.0,,
290,,rl_choice,,html-keyboard-response,290,400060,0.0-1.0-401.0,0,0,47956,,411.0,,,68.0,57.0,57.0,2.0,easy,1000.0,2000.0,1.0,80.0,20.0,80.0,0.0,B,A,/static/Simple_RL/Stimuli/Fractals_stims/B.jpg,/static/Simple_RL/Stimuli/Fractals_stims/A.jpg,1.0,80.0,20.0,80.0,0.0,B,A,99.411,0.411,0.0,
291,,rl_choice_confirmation,,html-keyboard-response,291,401154,0.0-1.0-402.0-0.0,0,0,47956,,,,,,57.0,,,,,,,,,,,,,,,,,,,,,,100.5,1.089,,
292,,isi,,html-keyboard-response,292,403156,0.0-1.0-404.0,0,0,47956,,,,,,,,,,,,,,,,,,,,,,,,,,,,102.5,2.0,,
293,,feedback,,html-keyboard-response,293,404160,0.0-1.0-405.0-0.0,0,0,47956,,,,,,57.0,,,,,,,,,,,,,,,,,,,,,,103.5,1.0,,
294,,iti,,html-keyboard-response,294,405163,0.0-1.0-406.0,0,0,47956,,,,,,,,,,,,,,,,,,,,,,,,,,,,104.5,1.0,,
295,,rl_choice,,html-keyboard-response,295,405899,0.0-1.0-408.0,0,0,47956,,731.0,,,68.0,58.0,58.0,2.0,hard,1000.0,1500.0,1.0,60.0,40.0,60.0,60.0,D,C,/static/Simple_RL/Stimuli/Fractals_stims/D.jpg,/static/Simple_RL/Stimuli/Fractals_stims/C.jpg,1.0,60.0,40.0,60.0,60.0,D,C,105.231,0.731,0.0,
296,,rl_choice_confirmation,,html-keyboard-response,296,406673,0.0-1.0-409.0-0.0,0,0,47956,,,,,,58.0,,,,,,,,,,,,,,,,,,,,,,106.0,0.769,,
297,,isi,,html-keyboard-response,297,408176,0.0-1.0-411.0,0,0,47956,,,,,,,,,,,,,,,,,,,,,,,,,,,,107.5,1.5,,
298,,feedback,,html-keyboard-response,298,409181,0.0-1.0-412.0-0.0,0,0,47956,,,,,,58.0,,,,,,,,,,,,,,,,,,,,,,108.5,1.0,,
299,,iti,,html-keyboard-response,299,410184,0.0-1.0-413.0,0,0,47956,,,,,,,,,,,,,,,,,,,,,,,,,,,,109.5,1.0,,
300,,rl_choice,,html-keyboard-response,300,410875,0.0-1.0-415.0,0,0,47956,,687.0,,,75.0,59.0,59.0,2.0,easy,1500.0,3000.0,1.0,80.0,20.0,80.0,40.0,B,A,/static/Simple_RL/Stimuli/Fractals_stims/B.jpg,/static/Simple_RL/Stimuli/Fractals_stims/A.jpg,0.0,20.0,80.0,40.0,80.0,A,B,110.187,0.687,0.0,
301,,rl_choice_confirmation,,html-keyboard-response,301,411693,0.0-1.0-416.0-0.0,0,0,47956,,,,,,59.0,,,,,,,,,,,,,,,,,,,,,,111.0,0.813,,
302,,isi,,html-keyboard-response,302,414695,0.0-1.0-418.0,0,0,47956,,,,,,,,,,,,,,,,,,,,,,,,,,,,114.0,3.0,,
303,,feedback,,html-keyboard-response,303,415699,0.0-1.0-419.0-0.0,0,0,47956,,,,,,59.0,,,,,,,,,,,,,,,,,,,,,,115.0,1.0,,
304,,iti,,html-keyboard-response,304,417202,0.0-1.0-420.0,0,0,47956,,,,,,,,,,,,,,,,,,,,,,,,,,,,116.5,1.5,,
305,,rl_choice,,html-keyboard-response,305,417850,0.0-1.0-422.0,0,0,47956,,646.0,,,75.0,60.0,60.0,2.0,hard,1500.0,2000.0,0.0,40.0,60.0,40.0,80.0,C,D,/static/Simple_RL/Stimuli/Fractals_stims/C.jpg,/static/Simple_RL/Stimuli/Fractals_stims/D.jpg,0.0,60.0,40.0,80.0,40.0,D,C,117.146,0.646,0.0,
306,,rl_choice_confirmation,,html-keyboard-response,306,418709,0.0-1.0-423.0-0.0,0,0,47956,,,,,,60.0,,,,,,,,,,,,,,,,,,,,,,118.0,0.854,,
307,,isi,,html-keyboard-response,307,420712,0.0-1.0-425.0,0,0,47956,,,,,,,,,,,,,,,,,,,,,,,,,,,,120.0,2.0,,
308,,feedback,,html-keyboard-response,308,421716,0.0-1.0-426.0-0.0,0,0,47956,,,,,,60.0,,,,,,,,,,,,,,,,,,,,,,121.0,1.0,,
309,,iti,,html-keyboard-response,309,423219,0.0-1.0-427.0,0,0,47956,,,,,,,,,,,,,,,,,,,,,,,,,,,,122.5,1.5,,
310,,rl_choice,,html-keyboard-response,310,423691,0.0-1.0-429.0,0,0,47956,,467.0,,,68.0,61.0,61.0,2.0,hard,1000.0,1000.0,1.0,60.0,40.0,40.0,40.0,D,C,/static/Simple_RL/Stimuli/Fractals_stims/D.jpg,/static/Simple_RL/Stimuli/Fractals_stims/C.jpg,1.0,60.0,40.0,40.0,40.0,D,C,122.967,0.467,0.0,
311,,rl_choice_confirmation,,html-keyboard-response,311,424730,0.0-1.0-430.0-0.0,0,0,47956,,,,,,61.0,,,,,,,,,,,,,,,,,,,,,,124.0,1.033,,
312,,isi,,html-keyboard-response,312,425733,0.0-1.0-432.0,0,0,47956,,,,,,,,,,,,,,,,,,,,,,,,,,,,125.0,1.0,,
313,,feedback,,html-keyboard-response,313,426737,0.0-1.0-433.0-0.0,0,0,47956,,,,,,61.0,,,,,,,,,,,,,,,,,,,,,,126.0,1.0,,
314,,iti,,html-keyboard-response,314,427741,0.0-1.0-434.0,0,0,47956,,,,,,,,,,,,,,,,,,,,,,,,,,,,127.0,1.0,,
315,,rl_choice,,html-keyboard-response,315,428675,0.0-1.0-436.0,0,0,47956,,929.0,,,75.0,62.0,62.0,2.0,easy,3000.0,1500.0,0.0,20.0,80.0,20.0,80.0,A,B,/static/Simple_RL/Stimuli/Fractals_stims/A.jpg,/static/Simple_RL/Stimuli/Fractals_stims/B.jpg,0.0,80.0,20.0,80.0,20.0,B,A,127.929,0.929,0.0,
316,,rl_choice_confirmation,,html-keyboard-response,316,429251,0.0-1.0-437.0-0.0,0,0,47956,,,,,,62.0,,,,,,,,,,,,,,,,,,,,,,128.5,0.571,,
317,,isi,,html-keyboard-response,317,430753,0.0-1.0-439.0,0,0,47956,,,,,,,,,,,,,,,,,,,,,,,,,,,,130.0,1.5,,
318,,feedback,,html-keyboard-response,318,431757,0.0-1.0-440.0-0.0,0,0,47956,,,,,,62.0,,,,,,,,,,,,,,,,,,,,,,131.0,1.0,,
319,,iti,,html-keyboard-response,319,434761,0.0-1.0-441.0,0,0,47956,,,,,,,,,,,,,,,,,,,,,,,,,,,,134.0,3.0,,
320,,rl_choice,,html-keyboard-response,320,435507,0.0-1.0-443.0,0,0,47956,,742.0,,,68.0,63.0,63.0,2.0,hard,1000.0,1500.0,1.0,60.0,40.0,60.0,40.0,D,C,/static/Simple_RL/Stimuli/Fractals_stims/D.jpg,/static/Simple_RL/Stimuli/Fractals_stims/C.jpg,1.0,60.0,40.0,60.0,40.0,D,C,134.742,0.742,0.0,
321,,rl_choice_confirmation,,html-keyboard-response,321,436269,0.0-1.0-444.0-0.0,0,0,47956,,,,,,63.0,,,,,,,,,,,,,,,,,,,,,,135.5,0.758,,
322,,isi,,html-keyboard-response,322,437773,0.0-1.0-446.0,0,0,47956,,,,,,,,,,,,,,,,,,,,,,,,,,,,137.0,1.5,,
323,,feedback,,html-keyboard-response,323,438778,0.0-1.0-447.0-0.0,0,0,47956,,,,,,63.0,,,,,,,,,,,,,,,,,,,,,,138.0,1.0,,
324,,iti,,html-keyboard-response,324,439783,0.0-1.0-448.0,0,0,47956,,,,,,,,,,,,,,,,,,,,,,,,,,,,139.0,1.0,,
325,,rl_choice,,html-keyboard-response,325,440427,0.0-1.0-450.0,0,0,47956,,640.0,,,75.0,64.0,64.0,2.0,hard,3500.0,1000.0,0.0,40.0,60.0,60.0,80.0,C,D,/static/Simple_RL/Stimuli/Fractals_stims/C.jpg,/static/Simple_RL/Stimuli/Fractals_stims/D.jpg,0.0,60.0,40.0,80.0,60.0,D,C,139.64,0.64,0.0,
326,,rl_choice_confirmation,,html-keyboard-response,326,441292,0.0-1.0-451.0-0.0,0,0,47956,,,,,,64.0,,,,,,,,,,,,,,,,,,,,,,140.5,0.86,,
327,,isi,,html-keyboard-response,327,442296,0.0-1.0-453.0,0,0,47956,,,,,,,,,,,,,,,,,,,,,,,,,,,,141.5,1.0,,
328,,feedback,,html-keyboard-response,328,443300,0.0-1.0-454.0-0.0,0,0,47956,,,,,,64.0,,,,,,,,,,,,,,,,,,,,,,142.5,1.0,,
329,,iti,,html-keyboard-response,329,446803,0.0-1.0-455.0,0,0,47956,,,,,,,,,,,,,,,,,,,,,,,,,,,,146.0,3.5,,
330,,rl_choice,,html-keyboard-response,330,447562,0.0-1.0-457.0,0,0,47956,,757.0,,,75.0,65.0,65.0,2.0,easy,1500.0,1000.0,1.0,80.0,20.0,100.0,40.0,B,A,/static/Simple_RL/Stimuli/Fractals_stims/B.jpg,/static/Simple_RL/Stimuli/Fractals_stims/A.jpg,0.0,20.0,80.0,40.0,100.0,A,B,146.757,0.757,0.0,
331,,rl_choice_confirmation,,html-keyboard-response,331,448310,0.0-1.0-458.0-0.0,0,0,47956,,,,,,65.0,,,,,,,,,,,,,,,,,,,,,,147.5,0.743,,
332,,isi,,html-keyboard-response,332,449314,0.0-1.0-460.0,0,0,47956,,,,,,,,,,,,,,,,,,,,,,,,,,,,148.5,1.0,,
333,,feedback,,html-keyboard-response,333,450320,0.0-1.0-461.0-0.0,0,0,47956,,,,,,65.0,,,,,,,,,,,,,,,,,,,,,,149.5,1.0,,
334,,iti,,html-keyboard-response,334,451823,0.0-1.0-462.0,0,0,47956,,,,,,,,,,,,,,,,,,,,,,,,,,,,151.0,1.5,,
335,,rl_choice,,html-keyboard-response,335,452403,0.0-1.0-464.0,0,0,47956,,576.0,,,68.0,66.0,66.0,2.0,hard,1500.0,3000.0,1.0,60.0,40.0,60.0,40.0,D,C,/static/Simple_RL/Stimuli/Fractals_stims/D.jpg,/static/Simple_RL/Stimuli/Fractals_stims/C.jpg,1.0,60.0,40.0,60.0,40.0,D,C,151.576,0.576,0.0,
336,,rl_choice_confirmation,,html-keyboard-response,336,453332,0.0-1.0-465.0-0.0,0,0,47956,,,,,,66.0,,,,,,,,,,,,,,,,,,,,,,152.5,0.924,,
337,,isi,,html-keyboard-response,337,456335,0.0-1.0-467.0,0,0,47956,,,,,,,,,,,,,,,,,,,,,,,,,,,,155.5,3.0,,
338,,feedback,,html-keyboard-response,338,457339,0.0-1.0-468.0-0.0,0,0,47956,,,,,,66.0,,,,,,,,,,,,,,,,,,,,,,156.5,1.0,,
339,,iti,,html-keyboard-response,339,458842,0.0-1.0-469.0,0,0,47956,,,,,,,,,,,,,,,,,,,,,,,,,,,,158.0,1.5,,
340,,rl_choice,,html-keyboard-response,340,459523,0.0-1.0-471.0,0,0,47956,,676.0,,,75.0,67.0,67.0,2.0,hard,1500.0,1500.0,0.0,40.0,60.0,20.0,80.0,C,D,/static/Simple_RL/Stimuli/Fractals_stims/C.jpg,/static/Simple_RL/Stimuli/Fractals_stims/D.jpg,0.0,60.0,40.0,80.0,20.0,D,C,158.676,0.676,0.0,
341,,rl_choice_confirmation,,html-keyboard-response,341,460352,0.0-1.0-472.0-0.0,0,0,47956,,,,,,67.0,,,,,,,,,,,,,,,,,,,,,,159.5,0.824,,
342,,isi,,html-keyboard-response,342,461855,0.0-1.0-474.0,0,0,47956,,,,,,,,,,,,,,,,,,,,,,,,,,,,161.0,1.5,,
343,,feedback,,html-keyboard-response,343,462861,0.0-1.0-475.0-0.0,0,0,47956,,,,,,67.0,,,,,,,,,,,,,,,,,,,,,,162.0,1.0,,
344,,iti,,html-keyboard-response,344,464364,0.0-1.0-476.0,0,0,47956,,,,,,,,,,,,,,,,,,,,,,,,,,,,163.5,1.5,,
345,,rl_choice,,html-keyboard-response,345,464924,0.0-1.0-478.0,0,0,47956,,555.0,,,68.0,68.0,68.0,2.0,hard,3000.0,1000.0,1.0,60.0,40.0,60.0,40.0,D,C,/static/Simple_RL/Stimuli/Fractals_stims/D.jpg,/static/Simple_RL/Stimuli/Fractals_stims/C.jpg,1.0,60.0,40.0,60.0,40.0,D,C,164.055,0.555,0.0,
346,,rl_choice_confirmation,,html-keyboard-response,346,465876,0.0-1.0-479.0-0.0,0,0,47956,,,,,,68.0,,,,,,,,,,,,,,,,,,,,,,165.0,0.945,,
347,,isi,,html-keyboard-response,347,466878,0.0-1.0-481.0,0,0,47956,,,,,,,,,,,,,,,,,,,,,,,,,,,,166.0,1.0,,
348,,feedback,,html-keyboard-response,348,467882,0.0-1.0-482.0-0.0,0,0,47956,,,,,,68.0,,,,,,,,,,,,,,,,,,,,,,167.0,1.0,,
349,,iti,,html-keyboard-response,349,470886,0.0-1.0-483.0,0,0,47956,,,,,,,,,,,,,,,,,,,,,,,,,,,,170.0,3.0,,
350,,rl_choice,,html-keyboard-response,350,471466,0.0-1.0-485.0,0,0,47956,,576.0,,,68.0,69.0,69.0,2.0,easy,1000.0,1000.0,0.0,20.0,80.0,40.0,80.0,A,B,/static/Simple_RL/Stimuli/Fractals_stims/A.jpg,/static/Simple_RL/Stimuli/Fractals_stims/B.jpg,1.0,20.0,80.0,40.0,80.0,A,B,170.576,0.576,0.0,
351,,rl_choice_confirmation,,html-keyboard-response,351,472392,0.0-1.0-486.0-0.0,0,0,47956,,,,,,69.0,,,,,,,,,,,,,,,,,,,,,,171.5,0.924,,
352,,isi,,html-keyboard-response,352,473395,0.0-1.0-488.0,0,0,47956,,,,,,,,,,,,,,,,,,,,,,,,,,,,172.5,1.0,,
353,,feedback,,html-keyboard-response,353,474399,0.0-1.0-489.0-0.0,0,0,47956,,,,,,69.0,,,,,,,,,,,,,,,,,,,,,,173.5,1.0,,
354,,iti,,html-keyboard-response,354,475401,0.0-1.0-490.0,0,0,47956,,,,,,,,,,,,,,,,,,,,,,,,,,,,174.5,1.0,,
355,,rl_choice,,html-keyboard-response,355,476083,0.0-1.0-492.0,0,0,47956,,678.0,,,75.0,70.0,70.0,2.0,easy,1500.0,1000.0,1.0,80.0,20.0,80.0,20.0,B,A,/static/Simple_RL/Stimuli/Fractals_stims/B.jpg,/static/Simple_RL/Stimuli/Fractals_stims/A.jpg,0.0,20.0,80.0,20.0,80.0,A,B,175.178,0.678,0.0,
356,,rl_choice_confirmation,,html-keyboard-response,356,476911,0.0-1.0-493.0-0.0,0,0,47956,,,,,,70.0,,,,,,,,,,,,,,,,,,,,,,176.0,0.822,,
357,,isi,,html-keyboard-response,357,477914,0.0-1.0-495.0,0,0,47956,,,,,,,,,,,,,,,,,,,,,,,,,,,,177.0,1.0,,
358,,feedback,,html-keyboard-response,358,478917,0.0-1.0-496.0-0.0,0,0,47956,,,,,,70.0,,,,,,,,,,,,,,,,,,,,,,178.0,1.0,,
359,,iti,,html-keyboard-response,359,480420,0.0-1.0-497.0,0,0,47956,,,,,,,,,,,,,,,,,,,,,,,,,,,,179.5,1.5,,
360,,rl_choice,,html-keyboard-response,360,480971,0.0-1.0-499.0,0,0,47956,,547.0,,,68.0,71.0,71.0,2.0,easy,1500.0,1000.0,0.0,20.0,80.0,40.0,60.0,A,B,/static/Simple_RL/Stimuli/Fractals_stims/A.jpg,/static/Simple_RL/Stimuli/Fractals_stims/B.jpg,1.0,20.0,80.0,40.0,60.0,A,B,180.047,0.547,0.0,
361,,rl_choice_confirmation,,html-keyboard-response,361,481928,0.0-1.0-500.0-0.0,0,0,47956,,,,,,71.0,,,,,,,,,,,,,,,,,,,,,,181.0,0.953,,
362,,isi,,html-keyboard-response,362,482932,0.0-1.0-502.0,0,0,47956,,,,,,,,,,,,,,,,,,,,,,,,,,,,182.0,1.0,,
363,,feedback,,html-keyboard-response,363,483938,0.0-1.0-503.0-0.0,0,0,47956,,,,,,71.0,,,,,,,,,,,,,,,,,,,,,,183.0,1.0,,
364,,iti,,html-keyboard-response,364,485442,0.0-1.0-504.0,0,0,47956,,,,,,,,,,,,,,,,,,,,,,,,,,,,184.5,1.5,,
365,,rl_choice,,html-keyboard-response,365,486010,0.0-1.0-506.0,0,0,47956,,565.0,,,75.0,72.0,72.0,2.0,easy,2000.0,3000.0,0.0,20.0,80.0,20.0,100.0,A,B,/static/Simple_RL/Stimuli/Fractals_stims/A.jpg,/static/Simple_RL/Stimuli/Fractals_stims/B.jpg,0.0,80.0,20.0,100.0,20.0,B,A,185.065,0.565,0.0,
366,,rl_choice_confirmation,,html-keyboard-response,366,486951,0.0-1.0-507.0-0.0,0,0,47956,,,,,,72.0,,,,,,,,,,,,,,,,,,,,,,186.0,0.935,,
367,,isi,,html-keyboard-response,367,489954,0.0-1.0-509.0,0,0,47956,,,,,,,,,,,,,,,,,,,,,,,,,,,,189.0,3.0,,
368,,feedback,,html-keyboard-response,368,490959,0.0-1.0-510.0-0.0,0,0,47956,,,,,,72.0,,,,,,,,,,,,,,,,,,,,,,190.0,1.0,,
369,,iti,,html-keyboard-response,369,492962,0.0-1.0-511.0,0,0,47956,,,,,,,,,,,,,,,,,,,,,,,,,,,,192.0,2.0,,
370,,rl_choice,,html-keyboard-response,370,493499,0.0-1.0-513.0,0,0,47956,,533.0,,,68.0,73.0,73.0,2.0,easy,1000.0,3500.0,0.0,20.0,80.0,40.0,60.0,A,B,/static/Simple_RL/Stimuli/Fractals_stims/A.jpg,/static/Simple_RL/Stimuli/Fractals_stims/B.jpg,1.0,20.0,80.0,40.0,60.0,A,B,192.533,0.533,0.0,
371,,rl_choice_confirmation,,html-keyboard-response,371,494470,0.0-1.0-514.0-0.0,0,0,47956,,,,,,73.0,,,,,,,,,,,,,,,,,,,,,,193.5,0.967,,
372,,isi,,html-keyboard-response,372,497973,0.0-1.0-516.0,0,0,47956,,,,,,,,,,,,,,,,,,,,,,,,,,,,197.0,3.5,,
373,,feedback,,html-keyboard-response,373,498978,0.0-1.0-517.0-0.0,0,0,47956,,,,,,73.0,,,,,,,,,,,,,,,,,,,,,,198.0,1.0,,
374,,iti,,html-keyboard-response,374,499980,0.0-1.0-518.0,0,0,47956,,,,,,,,,,,,,,,,,,,,,,,,,,,,199.0,1.0,,
375,,rl_choice,,html-keyboard-response,375,500642,0.0-1.0-520.0,0,0,47956,,660.0,,,75.0,74.0,74.0,2.0,hard,3000.0,1000.0,0.0,40.0,60.0,40.0,40.0,C,D,/static/Simple_RL/Stimuli/Fractals_stims/C.jpg,/static/Simple_RL/Stimuli/Fractals_stims/D.jpg,0.0,60.0,40.0,40.0,40.0,D,C,199.66,0.66,0.0,
376,,rl_choice_confirmation,,html-keyboard-response,376,501487,0.0-1.0-521.0-0.0,0,0,47956,,,,,,74.0,,,,,,,,,,,,,,,,,,,,,,200.5,0.84,,
377,,isi,,html-keyboard-response,377,502489,0.0-1.0-523.0,0,0,47956,,,,,,,,,,,,,,,,,,,,,,,,,,,,201.5,1.0,,
378,,feedback,,html-keyboard-response,378,503497,0.0-1.0-524.0-0.0,0,0,47956,,,,,,74.0,,,,,,,,,,,,,,,,,,,,,,202.5,1.0,,
379,,iti,,html-keyboard-response,379,506500,0.0-1.0-525.0,0,0,47956,,,,,,,,,,,,,,,,,,,,,,,,,,,,205.5,3.0,,
380,,rl_choice,,html-keyboard-response,380,507098,0.0-1.0-527.0,0,0,47956,,595.0,,,68.0,75.0,75.0,2.0,easy,1000.0,1000.0,0.0,20.0,80.0,0.0,60.0,A,B,/static/Simple_RL/Stimuli/Fractals_stims/A.jpg,/static/Simple_RL/Stimuli/Fractals_stims/B.jpg,1.0,20.0,80.0,0.0,60.0,A,B,206.095,0.595,0.0,
381,,rl_choice_confirmation,,html-keyboard-response,381,508006,0.0-1.0-528.0-0.0,0,0,47956,,,,,,75.0,,,,,,,,,,,,,,,,,,,,,,207.0,0.905,,
382,,isi,,html-keyboard-response,382,509009,0.0-1.0-530.0,0,0,47956,,,,,,,,,,,,,,,,,,,,,,,,,,,,208.0,1.0,,
383,,feedback,,html-keyboard-response,383,510013,0.0-1.0-531.0-0.0,0,0,47956,,,,,,75.0,,,,,,,,,,,,,,,,,,,,,,209.0,1.0,,
384,,iti,,html-keyboard-response,384,511014,0.0-1.0-532.0,0,0,47956,,,,,,,,,,,,,,,,,,,,,,,,,,,,210.0,1.0,,
385,,rl_choice,,html-keyboard-response,385,511578,0.0-1.0-534.0,0,0,47956,,562.0,,,75.0,76.0,76.0,2.0,easy,2000.0,1500.0,1.0,80.0,20.0,100.0,20.0,B,A,/static/Simple_RL/Stimuli/Fractals_stims/B.jpg,/static/Simple_RL/Stimuli/Fractals_stims/A.jpg,0.0,20.0,80.0,20.0,100.0,A,B,210.562,0.562,0.0,
386,,rl_choice_confirmation,,html-keyboard-response,386,512521,0.0-1.0-535.0-0.0,0,0,47956,,,,,,76.0,,,,,,,,,,,,,,,,,,,,,,211.5,0.938,,
387,,isi,,html-keyboard-response,387,514024,0.0-1.0-537.0,0,0,47956,,,,,,,,,,,,,,,,,,,,,,,,,,,,213.0,1.5,,
388,,feedback,,html-keyboard-response,388,515029,0.0-1.0-538.0-0.0,0,0,47956,,,,,,76.0,,,,,,,,,,,,,,,,,,,,,,214.0,1.0,,
389,,iti,,html-keyboard-response,389,517033,0.0-1.0-539.0,0,0,47956,,,,,,,,,,,,,,,,,,,,,,,,,,,,216.0,2.0,,
390,,rl_choice,,html-keyboard-response,390,517539,0.0-1.0-541.0,0,0,47956,,503.0,,,68.0,77.0,77.0,2.0,easy,1000.0,1000.0,0.0,20.0,80.0,0.0,80.0,A,B,/static/Simple_RL/Stimuli/Fractals_stims/A.jpg,/static/Simple_RL/Stimuli/Fractals_stims/B.jpg,1.0,20.0,80.0,0.0,80.0,A,B,216.503,0.503,0.0,
391,,rl_choice_confirmation,,html-keyboard-response,391,518539,0.0-1.0-542.0-0.0,0,0,47956,,,,,,77.0,,,,,,,,,,,,,,,,,,,,,,217.5,0.997,,
392,,isi,,html-keyboard-response,392,519544,0.0-1.0-544.0,0,0,47956,,,,,,,,,,,,,,,,,,,,,,,,,,,,218.5,1.0,,
393,,feedback,,html-keyboard-response,393,520553,0.0-1.0-545.0-0.0,0,0,47956,,,,,,77.0,,,,,,,,,,,,,,,,,,,,,,219.5,1.0,,
394,,iti,,html-keyboard-response,394,521556,0.0-1.0-546.0,0,0,47956,,,,,,,,,,,,,,,,,,,,,,,,,,,,220.5,1.0,,
395,,rl_choice,,html-keyboard-response,395,522056,0.0-1.0-548.0,0,0,47956,,497.0,,,75.0,78.0,78.0,2.0,hard,1500.0,1000.0,0.0,40.0,60.0,20.0,60.0,C,D,/static/Simple_RL/Stimuli/Fractals_stims/C.jpg,/static/Simple_RL/Stimuli/Fractals_stims/D.jpg,0.0,60.0,40.0,60.0,20.0,D,C,220.997,0.497,0.0,
396,,rl_choice_confirmation,,html-keyboard-response,396,523063,0.0-1.0-549.0-0.0,0,0,47956,,,,,,78.0,,,,,,,,,,,,,,,,,,,,,,222.0,1.003,,
397,,isi,,html-keyboard-response,397,524067,0.0-1.0-551.0,0,0,47956,,,,,,,,,,,,,,,,,,,,,,,,,,,,223.0,1.0,,
398,,feedback,,html-keyboard-response,398,525072,0.0-1.0-552.0-0.0,0,0,47956,,,,,,78.0,,,,,,,,,,,,,,,,,,,,,,224.0,1.0,,
399,,iti,,html-keyboard-response,399,526576,0.0-1.0-553.0,0,0,47956,,,,,,,,,,,,,,,,,,,,,,,,,,,,225.5,1.5,,
400,,rl_choice,,html-keyboard-response,400,527280,0.0-1.0-555.0,0,0,47956,,701.0,,,68.0,79.0,79.0,2.0,easy,2000.0,2000.0,1.0,80.0,20.0,100.0,0.0,B,A,/static/Simple_RL/Stimuli/Fractals_stims/B.jpg,/static/Simple_RL/Stimuli/Fractals_stims/A.jpg,1.0,80.0,20.0,100.0,0.0,B,A,226.201,0.701,0.0,
401,,rl_choice_confirmation,,html-keyboard-response,401,528082,0.0-1.0-556.0-0.0,0,0,47956,,,,,,79.0,,,,,,,,,,,,,,,,,,,,,,227.0,0.799,,
402,,isi,,html-keyboard-response,402,530084,0.0-1.0-558.0,0,0,47956,,,,,,,,,,,,,,,,,,,,,,,,,,,,229.0,2.0,,
403,,feedback,,html-keyboard-response,403,531088,0.0-1.0-559.0-0.0,0,0,47956,,,,,,79.0,,,,,,,,,,,,,,,,,,,,,,230.0,1.0,,
404,,iti,,html-keyboard-response,404,533092,0.0-1.0-560.0,0,0,47956,,,,,,,,,,,,,,,,,,,,,,,,,,,,232.0,2.0,,0.78
405,,final_tally,,html-keyboard-response,405,536546,0.0-2.0,0,0,47956,,3448.0,,,68.0,,,,,,,,,,,,,,,,,,,,,,,,,,
406,,debreif_intro,,html-keyboard-response,406,544298,0.0-3.0,0,0,47956,,7695.0,,,68.0,,,,,,,,,,,,,,,,,,,,,,,,,,
407,,debreif_age,,survey-text,407,557074,0.0-4.0,0,0,47956,,12774.0,"{""Q0"":""31""}",,,,,,,,,,,,,,,,,,,,,,,,,,,,
408,,debreif_gender,,survey-multi-choice,408,559723,0.0-5.0,0,0,47956,,2628.0,"{""Q0"":""Male""}",,,,,,,,,,,,,,,,,,,,,,,,,,,,
409,,debreif_dominant_hand,,survey-multi-choice,409,563035,0.0-6.0,0,0,47956,,3304.0,"{""Q0"":""Right""}",,,,,,,,,,,,,,,,,,,,,,,,,,,,
410,,debreif_native_language,,survey-multi-choice,410,565667,0.0-7.0,0,0,47956,,2624.0,"{""Q0"":""Yes""}",,,,,,,,,,,,,,,,,,,,,,,,,,,,
411,,debreif_fluency,,survey-likert,411,570779,0.0-8.0,0,0,47956,,5104.0,"{""Q0"":5}",,,,,,,,,,,,,,,,,,,,,,,,,,,,
412,,debreif_strategy_category_learning,,survey-text,412,635865,0.0-9.0,0,0,47956,,65077.0,"{""Q0"":""I tried to memorize the ones with higher rewards and see when they repeat themselves""}",,,,,,,,,,,,,,,,,,,,,,,,,,,,
413,,debreif_strategy_old_trials,,survey-text,413,707405,0.0-10.0,0,0,47956,,71539.0,"{""Q0"":""I chose to use my gut feelings or the object that I liked more.""}",,,,,,,,,,,,,,,,,,,,,,,,,,,,
414,,debreif_strategy_category_memory,,survey-text,414,783200,0.0-11.0,0,0,47956,,75792.0,"{""Q0"":""I tried to recall the rewards and for the ones, I couldn't remember I just guessed.""}",,,,,,,,,,,,,,,,,,,,,,,,,,,,
415,,debreif_strategy_size,,survey-text,415,834590,0.0-12.0,0,0,47956,,51388.0,"{""Q0"":""I pictured the two objects as they would be viewed in real-world scenario""}",,,,,,,,,,,,,,,,,,,,,,,,,,,,
416,,debreif_strategy_rl,,survey-text,416,863712,0.0-13.0,0,0,47956,,29120.0,"{""Q0"":""I chose to use my gut feelings""}",,,,,,,,,,,,,,,,,,,,,,,,,,,,
417,,debreif_clear_instructions,,survey-text,417,882216,0.0-14.0,0,0,47956,,18502.0,"{""Q0"":""Not at all, all was good""}",,,,,,,,,,,,,,,,,,,,,,,,,,,,
418,,debreif_end,,html-keyboard-response,418,921704,0.0-15.0,0,0,47956,,39486.0,,,32.0,,,,,,,,,,,,,,,,,,,,,,,,,,
