,success,ttype,start_time,trial_type,trial_index,time_elapsed,internal_node_id,warning,missed_checkup,PID,view_history,rt,responses,repeat_instructions,key_press,index,trial_num,block,condition,iti,isi,high_group_on_left,left_group_value,right_group_value,left_item_value,right_item_value,left_img,right_img,left_img_path,right_img_path,left_chosen,chosen_group_value,unchosen_group_value,chosen_item_value,unchosen_item_value,chosen_img,unchosen_img,onset,duration,no_response,total_bonus_tally
0,True,full_screen,d06072022hr1204,fullscreen,0,3683,0.0-0.0,0,0,44248,,,,,,,,,,,,,,,,,,,,,,,,,,,,,,,
1,,size_instructions,,instructions,1,23575,0.0-1.0-0.0-0.0,0,0,44248,"[{""page_index"":0,""viewing_time"":5189},{""page_index"":1,""viewing_time"":4991},{""page_index"":2,""viewing_time"":5196},{""page_index"":3,""viewing_time"":2042},{""page_index"":4,""viewing_time"":1030},{""page_index"":5,""viewing_time"":1442}]",19890.0,,,,,,,,,,,,,,,,,,,,,,,,,,,,,
2,,rl_comprehension_check,,survey-multi-choice,2,31108,0.0-1.0-0.0-1.0,0,0,44248,,7531.0,"{""Q0"":""True"",""Q1"":""True"",""Q2"":""D for left and K for right""}",0.0,,,,,,,,,,,,,,,,,,,,,,,,,,,
3,,,,html-keyboard-response,3,32208,0.0-1.0-1.0,0,0,44248,,1099.0,,,68.0,,,,,,,,,,,,,,,,,,,,,,,,,,
4,,rl_choice,,html-keyboard-response,4,33024,0.0-1.0-2.0,0,0,44248,,815.0,,,68.0,0.0,0.0,1.0,hard,1000.0,2000.0,0.0,40.0,60.0,20.0,60.0,C,D,/static/Simple_RL/Stimuli/Fractals_stims/C.jpg,/static/Simple_RL/Stimuli/Fractals_stims/D.jpg,1.0,40.0,60.0,20.0,60.0,C,D,0.815,0.815,0.0,
5,,rl_choice_confirmation,,html-keyboard-response,5,33711,0.0-1.0-3.0-0.0,0,0,44248,,,,,,0.0,,1.0,,,,,,,,,,,,,,,,,,,,1.5,0.685,,
6,,isi,,html-keyboard-response,6,35713,0.0-1.0-5.0,0,0,44248,,,,,,0.0,,1.0,,,,,,,,,,,,,,,,,,,,3.5,2.0,,
7,,feedback,,html-keyboard-response,7,36715,0.0-1.0-6.0-0.0,0,0,44248,,,,,,0.0,,1.0,,,,,,,,,,,,,,,,,,,,4.5,1.0,,
8,,iti,,html-keyboard-response,8,37717,0.0-1.0-7.0,0,0,44248,,,,,,0.0,,1.0,,,,,,,,,,,,,,,,,,,,5.5,1.0,,
9,,rl_choice,,html-keyboard-response,9,38008,0.0-1.0-9.0,0,0,44248,,291.0,,,75.0,1.0,1.0,1.0,easy,1000.0,3000.0,1.0,80.0,20.0,100.0,40.0,B,A,/static/Simple_RL/Stimuli/Fractals_stims/B.jpg,/static/Simple_RL/Stimuli/Fractals_stims/A.jpg,0.0,20.0,80.0,40.0,100.0,A,B,5.791,0.291,0.0,
10,,rl_choice_confirmation,,html-keyboard-response,10,39219,0.0-1.0-10.0-0.0,0,0,44248,,,,,,1.0,,1.0,,,,,,,,,,,,,,,,,,,,7.0,1.209,,
11,,isi,,html-keyboard-response,11,42220,0.0-1.0-12.0,0,0,44248,,,,,,1.0,,1.0,,,,,,,,,,,,,,,,,,,,10.0,3.0,,
12,,feedback,,html-keyboard-response,12,43221,0.0-1.0-13.0-0.0,0,0,44248,,,,,,1.0,,1.0,,,,,,,,,,,,,,,,,,,,11.0,1.0,,
13,,iti,,html-keyboard-response,13,44223,0.0-1.0-14.0,0,0,44248,,,,,,1.0,,1.0,,,,,,,,,,,,,,,,,,,,12.0,1.0,,
14,,rl_choice,,html-keyboard-response,14,44536,0.0-1.0-16.0,0,0,44248,,312.0,,,75.0,2.0,2.0,1.0,hard,3000.0,1000.0,0.0,40.0,60.0,20.0,80.0,C,D,/static/Simple_RL/Stimuli/Fractals_stims/C.jpg,/static/Simple_RL/Stimuli/Fractals_stims/D.jpg,0.0,60.0,40.0,80.0,20.0,D,C,12.312,0.312,0.0,
15,,rl_choice_confirmation,,html-keyboard-response,15,45725,0.0-1.0-17.0-0.0,0,0,44248,,,,,,2.0,,1.0,,,,,,,,,,,,,,,,,,,,13.5,1.188,,
16,,isi,,html-keyboard-response,16,46726,0.0-1.0-19.0,0,0,44248,,,,,,2.0,,1.0,,,,,,,,,,,,,,,,,,,,14.5,1.0,,
17,,feedback,,html-keyboard-response,17,47728,0.0-1.0-20.0-0.0,0,0,44248,,,,,,2.0,,1.0,,,,,,,,,,,,,,,,,,,,15.5,1.0,,
18,,iti,,html-keyboard-response,18,50729,0.0-1.0-21.0,0,0,44248,,,,,,2.0,,1.0,,,,,,,,,,,,,,,,,,,,18.5,3.0,,
19,,rl_choice,,html-keyboard-response,19,51400,0.0-1.0-23.0,0,0,44248,,670.0,,,75.0,3.0,3.0,1.0,hard,1000.0,3500.0,0.0,40.0,60.0,60.0,60.0,C,D,/static/Simple_RL/Stimuli/Fractals_stims/C.jpg,/static/Simple_RL/Stimuli/Fractals_stims/D.jpg,0.0,60.0,40.0,60.0,60.0,D,C,19.17,0.67,0.0,
20,,rl_choice_confirmation,,html-keyboard-response,20,52232,0.0-1.0-24.0-0.0,0,0,44248,,,,,,3.0,,1.0,,,,,,,,,,,,,,,,,,,,20.0,0.83,,
21,,isi,,html-keyboard-response,21,55733,0.0-1.0-26.0,0,0,44248,,,,,,3.0,,1.0,,,,,,,,,,,,,,,,,,,,23.5,3.5,,
22,,feedback,,html-keyboard-response,22,56735,0.0-1.0-27.0-0.0,0,0,44248,,,,,,3.0,,1.0,,,,,,,,,,,,,,,,,,,,24.5,1.0,,
23,,iti,,html-keyboard-response,23,57736,0.0-1.0-28.0,0,0,44248,,,,,,3.0,,1.0,,,,,,,,,,,,,,,,,,,,25.5,1.0,,
24,,rl_choice,,html-keyboard-response,24,58064,0.0-1.0-30.0,0,0,44248,,326.0,,,68.0,4.0,4.0,1.0,hard,1500.0,3000.0,0.0,40.0,60.0,20.0,60.0,C,D,/static/Simple_RL/Stimuli/Fractals_stims/C.jpg,/static/Simple_RL/Stimuli/Fractals_stims/D.jpg,1.0,40.0,60.0,20.0,60.0,C,D,25.826,0.326,0.0,
25,,rl_choice_confirmation,,html-keyboard-response,25,59239,0.0-1.0-31.0-0.0,0,0,44248,,,,,,4.0,,1.0,,,,,,,,,,,,,,,,,,,,27.0,1.174,,
26,,isi,,html-keyboard-response,26,62240,0.0-1.0-33.0,0,0,44248,,,,,,4.0,,1.0,,,,,,,,,,,,,,,,,,,,30.0,3.0,,
27,,feedback,,html-keyboard-response,27,63242,0.0-1.0-34.0-0.0,0,0,44248,,,,,,4.0,,1.0,,,,,,,,,,,,,,,,,,,,31.0,1.0,,
28,,iti,,html-keyboard-response,28,64743,0.0-1.0-35.0,0,0,44248,,,,,,4.0,,1.0,,,,,,,,,,,,,,,,,,,,32.5,1.5,,
29,,rl_choice,,html-keyboard-response,29,65032,0.0-1.0-37.0,0,0,44248,,288.0,,,75.0,5.0,5.0,1.0,easy,2000.0,2000.0,0.0,20.0,80.0,20.0,100.0,A,B,/static/Simple_RL/Stimuli/Fractals_stims/A.jpg,/static/Simple_RL/Stimuli/Fractals_stims/B.jpg,0.0,80.0,20.0,100.0,20.0,B,A,32.788,0.288,0.0,
30,,rl_choice_confirmation,,html-keyboard-response,30,66246,0.0-1.0-38.0-0.0,0,0,44248,,,,,,5.0,,1.0,,,,,,,,,,,,,,,,,,,,34.0,1.212,,
31,,isi,,html-keyboard-response,31,68247,0.0-1.0-40.0,0,0,44248,,,,,,5.0,,1.0,,,,,,,,,,,,,,,,,,,,36.0,2.0,,
32,,feedback,,html-keyboard-response,32,69249,0.0-1.0-41.0-0.0,0,0,44248,,,,,,5.0,,1.0,,,,,,,,,,,,,,,,,,,,37.0,1.0,,
33,,iti,,html-keyboard-response,33,71252,0.0-1.0-42.0,0,0,44248,,,,,,5.0,,1.0,,,,,,,,,,,,,,,,,,,,39.0,2.0,,
34,,rl_choice,,html-keyboard-response,34,71760,0.0-1.0-44.0,0,0,44248,,508.0,,,75.0,6.0,6.0,1.0,hard,1000.0,1000.0,0.0,40.0,60.0,40.0,80.0,C,D,/static/Simple_RL/Stimuli/Fractals_stims/C.jpg,/static/Simple_RL/Stimuli/Fractals_stims/D.jpg,0.0,60.0,40.0,80.0,40.0,D,C,39.508,0.508,0.0,
35,,rl_choice_confirmation,,html-keyboard-response,35,72754,0.0-1.0-45.0-0.0,0,0,44248,,,,,,6.0,,1.0,,,,,,,,,,,,,,,,,,,,40.5,0.992,,
36,,isi,,html-keyboard-response,36,73755,0.0-1.0-47.0,0,0,44248,,,,,,6.0,,1.0,,,,,,,,,,,,,,,,,,,,41.5,1.0,,
37,,feedback,,html-keyboard-response,37,74757,0.0-1.0-48.0-0.0,0,0,44248,,,,,,6.0,,1.0,,,,,,,,,,,,,,,,,,,,42.5,1.0,,
38,,iti,,html-keyboard-response,38,75758,0.0-1.0-49.0,0,0,44248,,,,,,6.0,,1.0,,,,,,,,,,,,,,,,,,,,43.5,1.0,,
39,,rl_choice,,html-keyboard-response,39,76207,0.0-1.0-51.0,0,0,44248,,448.0,,,75.0,7.0,7.0,1.0,hard,1500.0,1000.0,0.0,40.0,60.0,60.0,80.0,C,D,/static/Simple_RL/Stimuli/Fractals_stims/C.jpg,/static/Simple_RL/Stimuli/Fractals_stims/D.jpg,0.0,60.0,40.0,80.0,60.0,D,C,43.948,0.448,0.0,
40,,rl_choice_confirmation,,html-keyboard-response,40,77262,0.0-1.0-52.0-0.0,0,0,44248,,,,,,7.0,,1.0,,,,,,,,,,,,,,,,,,,,45.0,1.052,,
41,,isi,,html-keyboard-response,41,78263,0.0-1.0-54.0,0,0,44248,,,,,,7.0,,1.0,,,,,,,,,,,,,,,,,,,,46.0,1.0,,
42,,feedback,,html-keyboard-response,42,79264,0.0-1.0-55.0-0.0,0,0,44248,,,,,,7.0,,1.0,,,,,,,,,,,,,,,,,,,,47.0,1.0,,
43,,iti,,html-keyboard-response,43,80766,0.0-1.0-56.0,0,0,44248,,,,,,7.0,,1.0,,,,,,,,,,,,,,,,,,,,48.5,1.5,,
44,,rl_choice,,html-keyboard-response,44,81200,0.0-1.0-58.0,0,0,44248,,432.0,,,75.0,8.0,8.0,1.0,easy,1500.0,2000.0,0.0,20.0,80.0,0.0,100.0,A,B,/static/Simple_RL/Stimuli/Fractals_stims/A.jpg,/static/Simple_RL/Stimuli/Fractals_stims/B.jpg,0.0,80.0,20.0,100.0,0.0,B,A,48.932,0.432,0.0,
45,,rl_choice_confirmation,,html-keyboard-response,45,82270,0.0-1.0-59.0-0.0,0,0,44248,,,,,,8.0,,1.0,,,,,,,,,,,,,,,,,,,,50.0,1.068,,
46,,isi,,html-keyboard-response,46,84272,0.0-1.0-61.0,0,0,44248,,,,,,8.0,,1.0,,,,,,,,,,,,,,,,,,,,52.0,2.0,,
47,,feedback,,html-keyboard-response,47,85274,0.0-1.0-62.0-0.0,0,0,44248,,,,,,8.0,,1.0,,,,,,,,,,,,,,,,,,,,53.0,1.0,,
48,,iti,,html-keyboard-response,48,86775,0.0-1.0-63.0,0,0,44248,,,,,,8.0,,1.0,,,,,,,,,,,,,,,,,,,,54.5,1.5,,
49,,rl_choice,,html-keyboard-response,49,87320,0.0-1.0-65.0,0,0,44248,,544.0,,,68.0,9.0,9.0,1.0,easy,2000.0,1000.0,1.0,80.0,20.0,60.0,0.0,B,A,/static/Simple_RL/Stimuli/Fractals_stims/B.jpg,/static/Simple_RL/Stimuli/Fractals_stims/A.jpg,1.0,80.0,20.0,60.0,0.0,B,A,55.044,0.544,0.0,
50,,rl_choice_confirmation,,html-keyboard-response,50,88277,0.0-1.0-66.0-0.0,0,0,44248,,,,,,9.0,,1.0,,,,,,,,,,,,,,,,,,,,56.0,0.956,,
51,,isi,,html-keyboard-response,51,89279,0.0-1.0-68.0,0,0,44248,,,,,,9.0,,1.0,,,,,,,,,,,,,,,,,,,,57.0,1.0,,
52,,feedback,,html-keyboard-response,52,90280,0.0-1.0-69.0-0.0,0,0,44248,,,,,,9.0,,1.0,,,,,,,,,,,,,,,,,,,,58.0,1.0,,
53,,iti,,html-keyboard-response,53,92281,0.0-1.0-70.0,0,0,44248,,,,,,9.0,,1.0,,,,,,,,,,,,,,,,,,,,60.0,2.0,,
54,,rl_choice,,html-keyboard-response,54,92696,0.0-1.0-72.0,0,0,44248,,413.0,,,75.0,10.0,10.0,1.0,hard,1000.0,1000.0,1.0,60.0,40.0,40.0,40.0,D,C,/static/Simple_RL/Stimuli/Fractals_stims/D.jpg,/static/Simple_RL/Stimuli/Fractals_stims/C.jpg,0.0,40.0,60.0,40.0,40.0,C,D,60.413,0.413,0.0,
55,,rl_choice_confirmation,,html-keyboard-response,55,93784,0.0-1.0-73.0-0.0,0,0,44248,,,,,,10.0,,1.0,,,,,,,,,,,,,,,,,,,,61.5,1.087,,
56,,isi,,html-keyboard-response,56,94785,0.0-1.0-75.0,0,0,44248,,,,,,10.0,,1.0,,,,,,,,,,,,,,,,,,,,62.5,1.0,,
57,,feedback,,html-keyboard-response,57,95786,0.0-1.0-76.0-0.0,0,0,44248,,,,,,10.0,,1.0,,,,,,,,,,,,,,,,,,,,63.5,1.0,,
58,,iti,,html-keyboard-response,58,96788,0.0-1.0-77.0,0,0,44248,,,,,,10.0,,1.0,,,,,,,,,,,,,,,,,,,,64.5,1.0,,
59,,rl_choice,,html-keyboard-response,59,97199,0.0-1.0-79.0,0,0,44248,,410.0,,,75.0,11.0,11.0,1.0,easy,1000.0,3000.0,0.0,20.0,80.0,20.0,60.0,A,B,/static/Simple_RL/Stimuli/Fractals_stims/A.jpg,/static/Simple_RL/Stimuli/Fractals_stims/B.jpg,0.0,80.0,20.0,60.0,20.0,B,A,64.91,0.41,0.0,
60,,rl_choice_confirmation,,html-keyboard-response,60,98292,0.0-1.0-80.0-0.0,0,0,44248,,,,,,11.0,,1.0,,,,,,,,,,,,,,,,,,,,66.0,1.09,,
61,,isi,,html-keyboard-response,61,101294,0.0-1.0-82.0,0,0,44248,,,,,,11.0,,1.0,,,,,,,,,,,,,,,,,,,,69.0,3.0,,
62,,feedback,,html-keyboard-response,62,102296,0.0-1.0-83.0-0.0,0,0,44248,,,,,,11.0,,1.0,,,,,,,,,,,,,,,,,,,,70.0,1.0,,
63,,iti,,html-keyboard-response,63,103297,0.0-1.0-84.0,0,0,44248,,,,,,11.0,,1.0,,,,,,,,,,,,,,,,,,,,71.0,1.0,,
64,,rl_choice,,html-keyboard-response,64,103752,0.0-1.0-86.0,0,0,44248,,453.0,,,75.0,12.0,12.0,1.0,easy,3000.0,1500.0,0.0,20.0,80.0,20.0,80.0,A,B,/static/Simple_RL/Stimuli/Fractals_stims/A.jpg,/static/Simple_RL/Stimuli/Fractals_stims/B.jpg,0.0,80.0,20.0,80.0,20.0,B,A,71.453,0.453,0.0,
65,,rl_choice_confirmation,,html-keyboard-response,65,104800,0.0-1.0-87.0-0.0,0,0,44248,,,,,,12.0,,1.0,,,,,,,,,,,,,,,,,,,,72.5,1.047,,
66,,isi,,html-keyboard-response,66,106302,0.0-1.0-89.0,0,0,44248,,,,,,12.0,,1.0,,,,,,,,,,,,,,,,,,,,74.0,1.5,,
67,,feedback,,html-keyboard-response,67,107303,0.0-1.0-90.0-0.0,0,0,44248,,,,,,12.0,,1.0,,,,,,,,,,,,,,,,,,,,75.0,1.0,,
68,,iti,,html-keyboard-response,68,110305,0.0-1.0-91.0,0,0,44248,,,,,,12.0,,1.0,,,,,,,,,,,,,,,,,,,,78.0,3.0,,
69,,rl_choice,,html-keyboard-response,69,110775,0.0-1.0-93.0,0,0,44248,,469.0,,,75.0,13.0,13.0,1.0,hard,1000.0,2000.0,0.0,40.0,60.0,40.0,80.0,C,D,/static/Simple_RL/Stimuli/Fractals_stims/C.jpg,/static/Simple_RL/Stimuli/Fractals_stims/D.jpg,0.0,60.0,40.0,80.0,40.0,D,C,78.469,0.469,0.0,
70,,rl_choice_confirmation,,html-keyboard-response,70,111808,0.0-1.0-94.0-0.0,0,0,44248,,,,,,13.0,,1.0,,,,,,,,,,,,,,,,,,,,79.5,1.031,,
71,,isi,,html-keyboard-response,71,113809,0.0-1.0-96.0,0,0,44248,,,,,,13.0,,1.0,,,,,,,,,,,,,,,,,,,,81.5,2.0,,
72,,feedback,,html-keyboard-response,72,114811,0.0-1.0-97.0-0.0,0,0,44248,,,,,,13.0,,1.0,,,,,,,,,,,,,,,,,,,,82.5,1.0,,
73,,iti,,html-keyboard-response,73,115814,0.0-1.0-98.0,0,0,44248,,,,,,13.0,,1.0,,,,,,,,,,,,,,,,,,,,83.5,1.0,,
74,,rl_choice,,html-keyboard-response,74,116152,0.0-1.0-100.0,0,0,44248,,337.0,,,75.0,14.0,14.0,1.0,easy,1500.0,1500.0,0.0,20.0,80.0,20.0,80.0,A,B,/static/Simple_RL/Stimuli/Fractals_stims/A.jpg,/static/Simple_RL/Stimuli/Fractals_stims/B.jpg,0.0,80.0,20.0,80.0,20.0,B,A,83.837,0.337,0.0,
75,,rl_choice_confirmation,,html-keyboard-response,75,117317,0.0-1.0-101.0-0.0,0,0,44248,,,,,,14.0,,1.0,,,,,,,,,,,,,,,,,,,,85.0,1.163,,
76,,isi,,html-keyboard-response,76,118818,0.0-1.0-103.0,0,0,44248,,,,,,14.0,,1.0,,,,,,,,,,,,,,,,,,,,86.5,1.5,,
77,,feedback,,html-keyboard-response,77,119819,0.0-1.0-104.0-0.0,0,0,44248,,,,,,14.0,,1.0,,,,,,,,,,,,,,,,,,,,87.5,1.0,,
78,,iti,,html-keyboard-response,78,121321,0.0-1.0-105.0,0,0,44248,,,,,,14.0,,1.0,,,,,,,,,,,,,,,,,,,,89.0,1.5,,
79,,rl_choice,,html-keyboard-response,79,121816,0.0-1.0-107.0,0,0,44248,,494.0,,,68.0,15.0,15.0,1.0,hard,1500.0,2000.0,1.0,60.0,40.0,40.0,60.0,D,C,/static/Simple_RL/Stimuli/Fractals_stims/D.jpg,/static/Simple_RL/Stimuli/Fractals_stims/C.jpg,1.0,60.0,40.0,40.0,60.0,D,C,89.494,0.494,0.0,
80,,rl_choice_confirmation,,html-keyboard-response,80,122823,0.0-1.0-108.0-0.0,0,0,44248,,,,,,15.0,,1.0,,,,,,,,,,,,,,,,,,,,90.5,1.006,,
81,,isi,,html-keyboard-response,81,124825,0.0-1.0-110.0,0,0,44248,,,,,,15.0,,1.0,,,,,,,,,,,,,,,,,,,,92.5,2.0,,
82,,feedback,,html-keyboard-response,82,125828,0.0-1.0-111.0-0.0,0,0,44248,,,,,,15.0,,1.0,,,,,,,,,,,,,,,,,,,,93.5,1.0,,
83,,iti,,html-keyboard-response,83,127329,0.0-1.0-112.0,0,0,44248,,,,,,15.0,,1.0,,,,,,,,,,,,,,,,,,,,95.0,1.5,,
84,,rl_choice,,html-keyboard-response,84,127767,0.0-1.0-114.0,0,0,44248,,437.0,,,68.0,16.0,16.0,1.0,hard,1000.0,1000.0,1.0,60.0,40.0,60.0,60.0,D,C,/static/Simple_RL/Stimuli/Fractals_stims/D.jpg,/static/Simple_RL/Stimuli/Fractals_stims/C.jpg,1.0,60.0,40.0,60.0,60.0,D,C,95.437,0.437,0.0,
85,,rl_choice_confirmation,,html-keyboard-response,85,128833,0.0-1.0-115.0-0.0,0,0,44248,,,,,,16.0,,1.0,,,,,,,,,,,,,,,,,,,,96.5,1.063,,
86,,isi,,html-keyboard-response,86,129834,0.0-1.0-117.0,0,0,44248,,,,,,16.0,,1.0,,,,,,,,,,,,,,,,,,,,97.5,1.0,,
87,,feedback,,html-keyboard-response,87,130836,0.0-1.0-118.0-0.0,0,0,44248,,,,,,16.0,,1.0,,,,,,,,,,,,,,,,,,,,98.5,1.0,,
88,,iti,,html-keyboard-response,88,131838,0.0-1.0-119.0,0,0,44248,,,,,,16.0,,1.0,,,,,,,,,,,,,,,,,,,,99.5,1.0,,
89,,rl_choice,,html-keyboard-response,89,132279,0.0-1.0-121.0,0,0,44248,,440.0,,,68.0,17.0,17.0,1.0,easy,3000.0,1500.0,1.0,80.0,20.0,60.0,20.0,B,A,/static/Simple_RL/Stimuli/Fractals_stims/B.jpg,/static/Simple_RL/Stimuli/Fractals_stims/A.jpg,1.0,80.0,20.0,60.0,20.0,B,A,99.94,0.44,0.0,
90,,rl_choice_confirmation,,html-keyboard-response,90,133341,0.0-1.0-122.0-0.0,0,0,44248,,,,,,17.0,,1.0,,,,,,,,,,,,,,,,,,,,101.0,1.06,,
91,,isi,,html-keyboard-response,91,134842,0.0-1.0-124.0,0,0,44248,,,,,,17.0,,1.0,,,,,,,,,,,,,,,,,,,,102.5,1.5,,
92,,feedback,,html-keyboard-response,92,135843,0.0-1.0-125.0-0.0,0,0,44248,,,,,,17.0,,1.0,,,,,,,,,,,,,,,,,,,,103.5,1.0,,
93,,iti,,html-keyboard-response,93,138845,0.0-1.0-126.0,0,0,44248,,,,,,17.0,,1.0,,,,,,,,,,,,,,,,,,,,106.5,3.0,,
94,,rl_choice,,html-keyboard-response,94,139407,0.0-1.0-128.0,0,0,44248,,561.0,,,68.0,18.0,18.0,1.0,hard,3500.0,1500.0,1.0,60.0,40.0,60.0,60.0,D,C,/static/Simple_RL/Stimuli/Fractals_stims/D.jpg,/static/Simple_RL/Stimuli/Fractals_stims/C.jpg,1.0,60.0,40.0,60.0,60.0,D,C,107.061,0.561,0.0,
95,,rl_choice_confirmation,,html-keyboard-response,95,140347,0.0-1.0-129.0-0.0,0,0,44248,,,,,,18.0,,1.0,,,,,,,,,,,,,,,,,,,,108.0,0.939,,
96,,isi,,html-keyboard-response,96,141850,0.0-1.0-131.0,0,0,44248,,,,,,18.0,,1.0,,,,,,,,,,,,,,,,,,,,109.5,1.5,,
97,,feedback,,html-keyboard-response,97,142851,0.0-1.0-132.0-0.0,0,0,44248,,,,,,18.0,,1.0,,,,,,,,,,,,,,,,,,,,110.5,1.0,,
98,,iti,,html-keyboard-response,98,146352,0.0-1.0-133.0,0,0,44248,,,,,,18.0,,1.0,,,,,,,,,,,,,,,,,,,,114.0,3.5,,
99,,rl_choice,,html-keyboard-response,99,146919,0.0-1.0-135.0,0,0,44248,,566.0,,,68.0,19.0,19.0,1.0,hard,2000.0,1500.0,1.0,60.0,40.0,60.0,20.0,D,C,/static/Simple_RL/Stimuli/Fractals_stims/D.jpg,/static/Simple_RL/Stimuli/Fractals_stims/C.jpg,1.0,60.0,40.0,60.0,20.0,D,C,114.566,0.566,0.0,
100,,rl_choice_confirmation,,html-keyboard-response,100,147855,0.0-1.0-136.0-0.0,0,0,44248,,,,,,19.0,,1.0,,,,,,,,,,,,,,,,,,,,115.5,0.934,,
101,,isi,,html-keyboard-response,101,149357,0.0-1.0-138.0,0,0,44248,,,,,,19.0,,1.0,,,,,,,,,,,,,,,,,,,,117.0,1.5,,
102,,feedback,,html-keyboard-response,102,150358,0.0-1.0-139.0-0.0,0,0,44248,,,,,,19.0,,1.0,,,,,,,,,,,,,,,,,,,,118.0,1.0,,
103,,iti,,html-keyboard-response,103,152359,0.0-1.0-140.0,0,0,44248,,,,,,19.0,,1.0,,,,,,,,,,,,,,,,,,,,120.0,2.0,,
104,,rl_choice,,html-keyboard-response,104,152807,0.0-1.0-142.0,0,0,44248,,446.0,,,68.0,20.0,20.0,1.0,easy,2000.0,1000.0,1.0,80.0,20.0,80.0,20.0,B,A,/static/Simple_RL/Stimuli/Fractals_stims/B.jpg,/static/Simple_RL/Stimuli/Fractals_stims/A.jpg,1.0,80.0,20.0,80.0,20.0,B,A,120.446,0.446,0.0,
105,,rl_choice_confirmation,,html-keyboard-response,105,153863,0.0-1.0-143.0-0.0,0,0,44248,,,,,,20.0,,1.0,,,,,,,,,,,,,,,,,,,,121.5,1.054,,
106,,isi,,html-keyboard-response,106,154863,0.0-1.0-145.0,0,0,44248,,,,,,20.0,,1.0,,,,,,,,,,,,,,,,,,,,122.5,1.0,,
107,,feedback,,html-keyboard-response,107,155865,0.0-1.0-146.0-0.0,0,0,44248,,,,,,20.0,,1.0,,,,,,,,,,,,,,,,,,,,123.5,1.0,,
108,,iti,,html-keyboard-response,108,157866,0.0-1.0-147.0,0,0,44248,,,,,,20.0,,1.0,,,,,,,,,,,,,,,,,,,,125.5,2.0,,
109,,rl_choice,,html-keyboard-response,109,158271,0.0-1.0-149.0,0,0,44248,,403.0,,,75.0,21.0,21.0,1.0,easy,1500.0,2000.0,1.0,80.0,20.0,80.0,20.0,B,A,/static/Simple_RL/Stimuli/Fractals_stims/B.jpg,/static/Simple_RL/Stimuli/Fractals_stims/A.jpg,0.0,20.0,80.0,20.0,80.0,A,B,125.903,0.403,0.0,
110,,rl_choice_confirmation,,html-keyboard-response,110,159369,0.0-1.0-150.0-0.0,0,0,44248,,,,,,21.0,,1.0,,,,,,,,,,,,,,,,,,,,127.0,1.097,,
111,,isi,,html-keyboard-response,111,161370,0.0-1.0-152.0,0,0,44248,,,,,,21.0,,1.0,,,,,,,,,,,,,,,,,,,,129.0,2.0,,
112,,feedback,,html-keyboard-response,112,162372,0.0-1.0-153.0-0.0,0,0,44248,,,,,,21.0,,1.0,,,,,,,,,,,,,,,,,,,,130.0,1.0,,
113,,iti,,html-keyboard-response,113,163873,0.0-1.0-154.0,0,0,44248,,,,,,21.0,,1.0,,,,,,,,,,,,,,,,,,,,131.5,1.5,,
114,,rl_choice,,html-keyboard-response,114,164311,0.0-1.0-156.0,0,0,44248,,438.0,,,75.0,22.0,22.0,1.0,easy,1000.0,1000.0,0.0,20.0,80.0,0.0,100.0,A,B,/static/Simple_RL/Stimuli/Fractals_stims/A.jpg,/static/Simple_RL/Stimuli/Fractals_stims/B.jpg,0.0,80.0,20.0,100.0,0.0,B,A,131.938,0.438,0.0,
115,,rl_choice_confirmation,,html-keyboard-response,115,165376,0.0-1.0-157.0-0.0,0,0,44248,,,,,,22.0,,1.0,,,,,,,,,,,,,,,,,,,,133.0,1.062,,
116,,isi,,html-keyboard-response,116,166377,0.0-1.0-159.0,0,0,44248,,,,,,22.0,,1.0,,,,,,,,,,,,,,,,,,,,134.0,1.0,,
117,,feedback,,html-keyboard-response,117,167379,0.0-1.0-160.0-0.0,0,0,44248,,,,,,22.0,,1.0,,,,,,,,,,,,,,,,,,,,135.0,1.0,,
118,,iti,,html-keyboard-response,118,168380,0.0-1.0-161.0,0,0,44248,,,,,,22.0,,1.0,,,,,,,,,,,,,,,,,,,,136.0,1.0,,
119,,rl_choice,,html-keyboard-response,119,169023,0.0-1.0-163.0,0,0,44248,,641.0,,,68.0,23.0,23.0,1.0,hard,2000.0,1000.0,1.0,60.0,40.0,80.0,60.0,D,C,/static/Simple_RL/Stimuli/Fractals_stims/D.jpg,/static/Simple_RL/Stimuli/Fractals_stims/C.jpg,1.0,60.0,40.0,80.0,60.0,D,C,136.641,0.641,0.0,
120,,rl_choice_confirmation,,html-keyboard-response,120,169883,0.0-1.0-164.0-0.0,0,0,44248,,,,,,23.0,,1.0,,,,,,,,,,,,,,,,,,,,137.5,0.859,,
121,,isi,,html-keyboard-response,121,170884,0.0-1.0-166.0,0,0,44248,,,,,,23.0,,1.0,,,,,,,,,,,,,,,,,,,,138.5,1.0,,
122,,feedback,,html-keyboard-response,122,171886,0.0-1.0-167.0-0.0,0,0,44248,,,,,,23.0,,1.0,,,,,,,,,,,,,,,,,,,,139.5,1.0,,
123,,iti,,html-keyboard-response,123,173888,0.0-1.0-168.0,0,0,44248,,,,,,23.0,,1.0,,,,,,,,,,,,,,,,,,,,141.5,2.0,,
124,,rl_choice,,html-keyboard-response,124,174431,0.0-1.0-170.0,0,0,44248,,542.0,,,68.0,24.0,24.0,1.0,hard,1000.0,3000.0,1.0,60.0,40.0,40.0,60.0,D,C,/static/Simple_RL/Stimuli/Fractals_stims/D.jpg,/static/Simple_RL/Stimuli/Fractals_stims/C.jpg,1.0,60.0,40.0,40.0,60.0,D,C,142.042,0.542,0.0,
125,,rl_choice_confirmation,,html-keyboard-response,125,175392,0.0-1.0-171.0-0.0,0,0,44248,,,,,,24.0,,1.0,,,,,,,,,,,,,,,,,,,,143.0,0.958,,
126,,isi,,html-keyboard-response,126,178394,0.0-1.0-173.0,0,0,44248,,,,,,24.0,,1.0,,,,,,,,,,,,,,,,,,,,146.0,3.0,,
127,,feedback,,html-keyboard-response,127,179395,0.0-1.0-174.0-0.0,0,0,44248,,,,,,24.0,,1.0,,,,,,,,,,,,,,,,,,,,147.0,1.0,,
128,,iti,,html-keyboard-response,128,180397,0.0-1.0-175.0,0,0,44248,,,,,,24.0,,1.0,,,,,,,,,,,,,,,,,,,,148.0,1.0,,
129,,rl_choice,,html-keyboard-response,129,180919,0.0-1.0-177.0,0,0,44248,,521.0,,,68.0,25.0,25.0,1.0,hard,2000.0,1000.0,1.0,60.0,40.0,40.0,40.0,D,C,/static/Simple_RL/Stimuli/Fractals_stims/D.jpg,/static/Simple_RL/Stimuli/Fractals_stims/C.jpg,1.0,60.0,40.0,40.0,40.0,D,C,148.521,0.521,0.0,
130,,rl_choice_confirmation,,html-keyboard-response,130,181900,0.0-1.0-178.0-0.0,0,0,44248,,,,,,25.0,,1.0,,,,,,,,,,,,,,,,,,,,149.5,0.979,,
131,,isi,,html-keyboard-response,131,182902,0.0-1.0-180.0,0,0,44248,,,,,,25.0,,1.0,,,,,,,,,,,,,,,,,,,,150.5,1.0,,
132,,feedback,,html-keyboard-response,132,183903,0.0-1.0-181.0-0.0,0,0,44248,,,,,,25.0,,1.0,,,,,,,,,,,,,,,,,,,,151.5,1.0,,
133,,iti,,html-keyboard-response,133,185904,0.0-1.0-182.0,0,0,44248,,,,,,25.0,,1.0,,,,,,,,,,,,,,,,,,,,153.5,2.0,,
134,,rl_choice,,html-keyboard-response,134,186423,0.0-1.0-184.0,0,0,44248,,518.0,,,68.0,26.0,26.0,1.0,easy,1000.0,1000.0,1.0,80.0,20.0,100.0,20.0,B,A,/static/Simple_RL/Stimuli/Fractals_stims/B.jpg,/static/Simple_RL/Stimuli/Fractals_stims/A.jpg,1.0,80.0,20.0,100.0,20.0,B,A,154.018,0.518,0.0,
135,,rl_choice_confirmation,,html-keyboard-response,135,187407,0.0-1.0-185.0-0.0,0,0,44248,,,,,,26.0,,1.0,,,,,,,,,,,,,,,,,,,,155.0,0.982,,
136,,isi,,html-keyboard-response,136,188410,0.0-1.0-187.0,0,0,44248,,,,,,26.0,,1.0,,,,,,,,,,,,,,,,,,,,156.0,1.0,,
137,,feedback,,html-keyboard-response,137,189411,0.0-1.0-188.0-0.0,0,0,44248,,,,,,26.0,,1.0,,,,,,,,,,,,,,,,,,,,157.0,1.0,,
138,,iti,,html-keyboard-response,138,190413,0.0-1.0-189.0,0,0,44248,,,,,,26.0,,1.0,,,,,,,,,,,,,,,,,,,,158.0,1.0,,
139,,rl_choice,,html-keyboard-response,139,191151,0.0-1.0-191.0,0,0,44248,,738.0,,,75.0,27.0,27.0,1.0,hard,1000.0,1500.0,0.0,40.0,60.0,20.0,80.0,C,D,/static/Simple_RL/Stimuli/Fractals_stims/C.jpg,/static/Simple_RL/Stimuli/Fractals_stims/D.jpg,0.0,60.0,40.0,80.0,20.0,D,C,158.738,0.738,0.0,
140,,rl_choice_confirmation,,html-keyboard-response,140,191915,0.0-1.0-192.0-0.0,0,0,44248,,,,,,27.0,,1.0,,,,,,,,,,,,,,,,,,,,159.5,0.762,,
141,,isi,,html-keyboard-response,141,193418,0.0-1.0-194.0,0,0,44248,,,,,,27.0,,1.0,,,,,,,,,,,,,,,,,,,,161.0,1.5,,
142,,feedback,,html-keyboard-response,142,194419,0.0-1.0-195.0-0.0,0,0,44248,,,,,,27.0,,1.0,,,,,,,,,,,,,,,,,,,,162.0,1.0,,
143,,iti,,html-keyboard-response,143,195420,0.0-1.0-196.0,0,0,44248,,,,,,27.0,,1.0,,,,,,,,,,,,,,,,,,,,163.0,1.0,,
144,,rl_choice,,html-keyboard-response,144,196047,0.0-1.0-198.0,0,0,44248,,625.0,,,75.0,28.0,28.0,1.0,hard,1500.0,1500.0,0.0,40.0,60.0,40.0,40.0,C,D,/static/Simple_RL/Stimuli/Fractals_stims/C.jpg,/static/Simple_RL/Stimuli/Fractals_stims/D.jpg,0.0,60.0,40.0,40.0,40.0,D,C,163.625,0.625,0.0,
145,,rl_choice_confirmation,,html-keyboard-response,145,196924,0.0-1.0-199.0-0.0,0,0,44248,,,,,,28.0,,1.0,,,,,,,,,,,,,,,,,,,,164.5,0.875,,
146,,isi,,html-keyboard-response,146,198425,0.0-1.0-201.0,0,0,44248,,,,,,28.0,,1.0,,,,,,,,,,,,,,,,,,,,166.0,1.5,,
147,,feedback,,html-keyboard-response,147,199427,0.0-1.0-202.0-0.0,0,0,44248,,,,,,28.0,,1.0,,,,,,,,,,,,,,,,,,,,167.0,1.0,,
148,,iti,,html-keyboard-response,148,200928,0.0-1.0-203.0,0,0,44248,,,,,,28.0,,1.0,,,,,,,,,,,,,,,,,,,,168.5,1.5,,
149,,rl_choice,,html-keyboard-response,149,201535,0.0-1.0-205.0,0,0,44248,,606.0,,,75.0,29.0,29.0,1.0,easy,1000.0,1000.0,0.0,20.0,80.0,20.0,80.0,A,B,/static/Simple_RL/Stimuli/Fractals_stims/A.jpg,/static/Simple_RL/Stimuli/Fractals_stims/B.jpg,0.0,80.0,20.0,80.0,20.0,B,A,169.106,0.606,0.0,
150,,rl_choice_confirmation,,html-keyboard-response,150,202431,0.0-1.0-206.0-0.0,0,0,44248,,,,,,29.0,,1.0,,,,,,,,,,,,,,,,,,,,170.0,0.894,,
151,,isi,,html-keyboard-response,151,203432,0.0-1.0-208.0,0,0,44248,,,,,,29.0,,1.0,,,,,,,,,,,,,,,,,,,,171.0,1.0,,
152,,feedback,,html-keyboard-response,152,204434,0.0-1.0-209.0-0.0,0,0,44248,,,,,,29.0,,1.0,,,,,,,,,,,,,,,,,,,,172.0,1.0,,
153,,iti,,html-keyboard-response,153,205436,0.0-1.0-210.0,0,0,44248,,,,,,29.0,,1.0,,,,,,,,,,,,,,,,,,,,173.0,1.0,,
154,,rl_choice,,html-keyboard-response,154,205975,0.0-1.0-212.0,0,0,44248,,539.0,,,68.0,30.0,30.0,1.0,hard,1500.0,2000.0,1.0,60.0,40.0,80.0,60.0,D,C,/static/Simple_RL/Stimuli/Fractals_stims/D.jpg,/static/Simple_RL/Stimuli/Fractals_stims/C.jpg,1.0,60.0,40.0,80.0,60.0,D,C,173.539,0.539,0.0,
155,,rl_choice_confirmation,,html-keyboard-response,155,206937,0.0-1.0-213.0-0.0,0,0,44248,,,,,,30.0,,1.0,,,,,,,,,,,,,,,,,,,,174.5,0.961,,
156,,isi,,html-keyboard-response,156,208938,0.0-1.0-215.0,0,0,44248,,,,,,30.0,,1.0,,,,,,,,,,,,,,,,,,,,176.5,2.0,,
157,,feedback,,html-keyboard-response,157,209940,0.0-1.0-216.0-0.0,0,0,44248,,,,,,30.0,,1.0,,,,,,,,,,,,,,,,,,,,177.5,1.0,,
158,,iti,,html-keyboard-response,158,211441,0.0-1.0-217.0,0,0,44248,,,,,,30.0,,1.0,,,,,,,,,,,,,,,,,,,,179.0,1.5,,
159,,rl_choice,,html-keyboard-response,159,212087,0.0-1.0-219.0,0,0,44248,,646.0,,,68.0,31.0,31.0,1.0,easy,1000.0,1500.0,1.0,80.0,20.0,80.0,0.0,B,A,/static/Simple_RL/Stimuli/Fractals_stims/B.jpg,/static/Simple_RL/Stimuli/Fractals_stims/A.jpg,1.0,80.0,20.0,80.0,0.0,B,A,179.646,0.646,0.0,
160,,rl_choice_confirmation,,html-keyboard-response,160,212943,0.0-1.0-220.0-0.0,0,0,44248,,,,,,31.0,,1.0,,,,,,,,,,,,,,,,,,,,180.5,0.854,,
161,,isi,,html-keyboard-response,161,214445,0.0-1.0-222.0,0,0,44248,,,,,,31.0,,1.0,,,,,,,,,,,,,,,,,,,,182.0,1.5,,
162,,feedback,,html-keyboard-response,162,215446,0.0-1.0-223.0-0.0,0,0,44248,,,,,,31.0,,1.0,,,,,,,,,,,,,,,,,,,,183.0,1.0,,
163,,iti,,html-keyboard-response,163,216448,0.0-1.0-224.0,0,0,44248,,,,,,31.0,,1.0,,,,,,,,,,,,,,,,,,,,184.0,1.0,,
164,,rl_choice,,html-keyboard-response,164,216927,0.0-1.0-226.0,0,0,44248,,479.0,,,68.0,32.0,32.0,1.0,easy,1000.0,3500.0,1.0,80.0,20.0,60.0,20.0,B,A,/static/Simple_RL/Stimuli/Fractals_stims/B.jpg,/static/Simple_RL/Stimuli/Fractals_stims/A.jpg,1.0,80.0,20.0,60.0,20.0,B,A,184.479,0.479,0.0,
165,,rl_choice_confirmation,,html-keyboard-response,165,217949,0.0-1.0-227.0-0.0,0,0,44248,,,,,,32.0,,1.0,,,,,,,,,,,,,,,,,,,,185.5,1.021,,
166,,isi,,html-keyboard-response,166,221451,0.0-1.0-229.0,0,0,44248,,,,,,32.0,,1.0,,,,,,,,,,,,,,,,,,,,189.0,3.5,,
167,,feedback,,html-keyboard-response,167,222452,0.0-1.0-230.0-0.0,0,0,44248,,,,,,32.0,,1.0,,,,,,,,,,,,,,,,,,,,190.0,1.0,,
168,,iti,,html-keyboard-response,168,223454,0.0-1.0-231.0,0,0,44248,,,,,,32.0,,1.0,,,,,,,,,,,,,,,,,,,,191.0,1.0,,
169,,rl_choice,,html-keyboard-response,169,224055,0.0-1.0-233.0,0,0,44248,,600.0,,,68.0,33.0,33.0,1.0,hard,2000.0,1500.0,1.0,60.0,40.0,40.0,20.0,D,C,/static/Simple_RL/Stimuli/Fractals_stims/D.jpg,/static/Simple_RL/Stimuli/Fractals_stims/C.jpg,1.0,60.0,40.0,40.0,20.0,D,C,191.6,0.6,0.0,
170,,rl_choice_confirmation,,html-keyboard-response,170,224957,0.0-1.0-234.0-0.0,0,0,44248,,,,,,33.0,,1.0,,,,,,,,,,,,,,,,,,,,192.5,0.9,,
171,,isi,,html-keyboard-response,171,226458,0.0-1.0-236.0,0,0,44248,,,,,,33.0,,1.0,,,,,,,,,,,,,,,,,,,,194.0,1.5,,
172,,feedback,,html-keyboard-response,172,227459,0.0-1.0-237.0-0.0,0,0,44248,,,,,,33.0,,1.0,,,,,,,,,,,,,,,,,,,,195.0,1.0,,
173,,iti,,html-keyboard-response,173,229461,0.0-1.0-238.0,0,0,44248,,,,,,33.0,,1.0,,,,,,,,,,,,,,,,,,,,197.0,2.0,,
174,,rl_choice,,html-keyboard-response,174,230087,0.0-1.0-240.0,0,0,44248,,624.0,,,75.0,34.0,34.0,1.0,hard,3000.0,1000.0,0.0,40.0,60.0,20.0,60.0,C,D,/static/Simple_RL/Stimuli/Fractals_stims/C.jpg,/static/Simple_RL/Stimuli/Fractals_stims/D.jpg,0.0,60.0,40.0,60.0,20.0,D,C,197.624,0.624,0.0,
175,,rl_choice_confirmation,,html-keyboard-response,175,230965,0.0-1.0-241.0-0.0,0,0,44248,,,,,,34.0,,1.0,,,,,,,,,,,,,,,,,,,,198.5,0.876,,
176,,isi,,html-keyboard-response,176,231966,0.0-1.0-243.0,0,0,44248,,,,,,34.0,,1.0,,,,,,,,,,,,,,,,,,,,199.5,1.0,,
177,,feedback,,html-keyboard-response,177,232967,0.0-1.0-244.0-0.0,0,0,44248,,,,,,34.0,,1.0,,,,,,,,,,,,,,,,,,,,200.5,1.0,,
178,,iti,,html-keyboard-response,178,235969,0.0-1.0-245.0,0,0,44248,,,,,,34.0,,1.0,,,,,,,,,,,,,,,,,,,,203.5,3.0,,
179,,rl_choice,,html-keyboard-response,179,236535,0.0-1.0-247.0,0,0,44248,,565.0,,,68.0,35.0,35.0,1.0,easy,1500.0,1000.0,1.0,80.0,20.0,80.0,20.0,B,A,/static/Simple_RL/Stimuli/Fractals_stims/B.jpg,/static/Simple_RL/Stimuli/Fractals_stims/A.jpg,1.0,80.0,20.0,80.0,20.0,B,A,204.065,0.565,0.0,
180,,rl_choice_confirmation,,html-keyboard-response,180,237482,0.0-1.0-248.0-0.0,0,0,44248,,,,,,35.0,,1.0,,,,,,,,,,,,,,,,,,,,205.0,0.935,,
181,,isi,,html-keyboard-response,181,238483,0.0-1.0-250.0,0,0,44248,,,,,,35.0,,1.0,,,,,,,,,,,,,,,,,,,,206.0,1.0,,
182,,feedback,,html-keyboard-response,182,239485,0.0-1.0-251.0-0.0,0,0,44248,,,,,,35.0,,1.0,,,,,,,,,,,,,,,,,,,,207.0,1.0,,
183,,iti,,html-keyboard-response,183,240986,0.0-1.0-252.0,0,0,44248,,,,,,35.0,,1.0,,,,,,,,,,,,,,,,,,,,208.5,1.5,,
184,,rl_choice,,html-keyboard-response,184,241551,0.0-1.0-254.0,0,0,44248,,564.0,,,68.0,36.0,36.0,1.0,easy,1500.0,2000.0,1.0,80.0,20.0,80.0,40.0,B,A,/static/Simple_RL/Stimuli/Fractals_stims/B.jpg,/static/Simple_RL/Stimuli/Fractals_stims/A.jpg,1.0,80.0,20.0,80.0,40.0,B,A,209.064,0.564,0.0,
185,,rl_choice_confirmation,,html-keyboard-response,185,242489,0.0-1.0-255.0-0.0,0,0,44248,,,,,,36.0,,1.0,,,,,,,,,,,,,,,,,,,,210.0,0.936,,
186,,isi,,html-keyboard-response,186,244490,0.0-1.0-257.0,0,0,44248,,,,,,36.0,,1.0,,,,,,,,,,,,,,,,,,,,212.0,2.0,,
187,,feedback,,html-keyboard-response,187,245492,0.0-1.0-258.0-0.0,0,0,44248,,,,,,36.0,,1.0,,,,,,,,,,,,,,,,,,,,213.0,1.0,,
188,,iti,,html-keyboard-response,188,246993,0.0-1.0-259.0,0,0,44248,,,,,,36.0,,1.0,,,,,,,,,,,,,,,,,,,,214.5,1.5,,
189,,rl_choice,,html-keyboard-response,189,247471,0.0-1.0-261.0,0,0,44248,,477.0,,,68.0,37.0,37.0,1.0,easy,2000.0,1000.0,1.0,80.0,20.0,60.0,40.0,B,A,/static/Simple_RL/Stimuli/Fractals_stims/B.jpg,/static/Simple_RL/Stimuli/Fractals_stims/A.jpg,1.0,80.0,20.0,60.0,40.0,B,A,214.977,0.477,0.0,
190,,rl_choice_confirmation,,html-keyboard-response,190,248496,0.0-1.0-262.0-0.0,0,0,44248,,,,,,37.0,,1.0,,,,,,,,,,,,,,,,,,,,216.0,1.023,,
191,,isi,,html-keyboard-response,191,249498,0.0-1.0-264.0,0,0,44248,,,,,,37.0,,1.0,,,,,,,,,,,,,,,,,,,,217.0,1.0,,
192,,feedback,,html-keyboard-response,192,250500,0.0-1.0-265.0-0.0,0,0,44248,,,,,,37.0,,1.0,,,,,,,,,,,,,,,,,,,,218.0,1.0,,
193,,iti,,html-keyboard-response,193,252501,0.0-1.0-266.0,0,0,44248,,,,,,37.0,,1.0,,,,,,,,,,,,,,,,,,,,220.0,2.0,,
194,,rl_choice,,html-keyboard-response,194,252927,0.0-1.0-268.0,0,0,44248,,425.0,,,75.0,38.0,38.0,1.0,easy,3500.0,1500.0,0.0,20.0,80.0,40.0,60.0,A,B,/static/Simple_RL/Stimuli/Fractals_stims/A.jpg,/static/Simple_RL/Stimuli/Fractals_stims/B.jpg,0.0,80.0,20.0,60.0,40.0,B,A,220.425,0.425,0.0,
195,,rl_choice_confirmation,,html-keyboard-response,195,254003,0.0-1.0-269.0-0.0,0,0,44248,,,,,,38.0,,1.0,,,,,,,,,,,,,,,,,,,,221.5,1.075,,
196,,isi,,html-keyboard-response,196,255504,0.0-1.0-271.0,0,0,44248,,,,,,38.0,,1.0,,,,,,,,,,,,,,,,,,,,223.0,1.5,,
197,,feedback,,html-keyboard-response,197,256507,0.0-1.0-272.0-0.0,0,0,44248,,,,,,38.0,,1.0,,,,,,,,,,,,,,,,,,,,224.0,1.0,,
198,,iti,,html-keyboard-response,198,260009,0.0-1.0-273.0,0,0,44248,,,,,,38.0,,1.0,,,,,,,,,,,,,,,,,,,,227.5,3.5,,
199,,rl_choice,,html-keyboard-response,199,260519,0.0-1.0-275.0,0,0,44248,,510.0,,,68.0,39.0,39.0,1.0,easy,1000.0,1000.0,1.0,80.0,20.0,60.0,20.0,B,A,/static/Simple_RL/Stimuli/Fractals_stims/B.jpg,/static/Simple_RL/Stimuli/Fractals_stims/A.jpg,1.0,80.0,20.0,60.0,20.0,B,A,228.01,0.51,0.0,
200,,rl_choice_confirmation,,html-keyboard-response,200,261511,0.0-1.0-276.0-0.0,0,0,44248,,,,,,39.0,,1.0,,,,,,,,,,,,,,,,,,,,229.0,0.99,,
201,,isi,,html-keyboard-response,201,262513,0.0-1.0-278.0,0,0,44248,,,,,,39.0,,1.0,,,,,,,,,,,,,,,,,,,,230.0,1.0,,
202,,feedback,,html-keyboard-response,202,263515,0.0-1.0-279.0-0.0,0,0,44248,,,,,,39.0,,1.0,,,,,,,,,,,,,,,,,,,,231.0,1.0,,
203,,iti,,html-keyboard-response,203,264517,0.0-1.0-280.0,0,0,44248,,,,,,39.0,,1.0,,,,,,,,,,,,,,,,,,,,232.0,1.0,,
204,,block_over,,html-keyboard-response,204,267127,0.0-1.0-281.0-0.0,0,0,44248,,2609.0,,,68.0,39.0,,,,,,,,,,,,,,,,,,,,,,,,,
205,,start_run,,html-keyboard-response,205,269535,0.0-1.0-281.0-1.0,0,0,44248,,2408.0,,,84.0,,,,,,,,,,,,,,,,,,,,,,,,,,
206,,rl_choice,,html-keyboard-response,206,270231,0.0-1.0-282.0,0,0,44248,,694.0,,,75.0,40.0,40.0,2.0,hard,1000.0,2000.0,0.0,40.0,60.0,40.0,40.0,C,D,/static/Simple_RL/Stimuli/Fractals_stims/C.jpg,/static/Simple_RL/Stimuli/Fractals_stims/D.jpg,0.0,60.0,40.0,40.0,40.0,D,C,0.694,0.694,0.0,
207,,rl_choice_confirmation,,html-keyboard-response,207,271039,0.0-1.0-283.0-0.0,0,0,44248,,,,,,40.0,,2.0,,,,,,,,,,,,,,,,,,,,1.5,0.806,,
208,,isi,,html-keyboard-response,208,273040,0.0-1.0-285.0,0,0,44248,,,,,,40.0,,2.0,,,,,,,,,,,,,,,,,,,,3.5,2.0,,
209,,feedback,,html-keyboard-response,209,274041,0.0-1.0-286.0-0.0,0,0,44248,,,,,,40.0,,2.0,,,,,,,,,,,,,,,,,,,,4.5,1.0,,
210,,iti,,html-keyboard-response,210,275043,0.0-1.0-287.0,0,0,44248,,,,,,40.0,,2.0,,,,,,,,,,,,,,,,,,,,5.5,1.0,,
211,,rl_choice,,html-keyboard-response,211,275518,0.0-1.0-289.0,0,0,44248,,474.0,,,75.0,41.0,41.0,2.0,hard,1000.0,3000.0,1.0,60.0,40.0,40.0,60.0,D,C,/static/Simple_RL/Stimuli/Fractals_stims/D.jpg,/static/Simple_RL/Stimuli/Fractals_stims/C.jpg,0.0,40.0,60.0,60.0,40.0,C,D,5.974,0.474,0.0,
212,,rl_choice_confirmation,,html-keyboard-response,212,276546,0.0-1.0-290.0-0.0,0,0,44248,,,,,,41.0,,2.0,,,,,,,,,,,,,,,,,,,,7.0,1.026,,
213,,isi,,html-keyboard-response,213,279547,0.0-1.0-292.0,0,0,44248,,,,,,41.0,,2.0,,,,,,,,,,,,,,,,,,,,10.0,3.0,,
214,,feedback,,html-keyboard-response,214,280549,0.0-1.0-293.0-0.0,0,0,44248,,,,,,41.0,,2.0,,,,,,,,,,,,,,,,,,,,11.0,1.0,,
215,,iti,,html-keyboard-response,215,281550,0.0-1.0-294.0,0,0,44248,,,,,,41.0,,2.0,,,,,,,,,,,,,,,,,,,,12.0,1.0,,
216,,rl_choice,,html-keyboard-response,216,282191,0.0-1.0-296.0,0,0,44248,,639.0,,,68.0,42.0,42.0,2.0,hard,1000.0,1000.0,0.0,40.0,60.0,40.0,40.0,C,D,/static/Simple_RL/Stimuli/Fractals_stims/C.jpg,/static/Simple_RL/Stimuli/Fractals_stims/D.jpg,1.0,40.0,60.0,40.0,40.0,C,D,12.639,0.639,0.0,
217,,rl_choice_confirmation,,html-keyboard-response,217,283054,0.0-1.0-297.0-0.0,0,0,44248,,,,,,42.0,,2.0,,,,,,,,,,,,,,,,,,,,13.5,0.861,,
218,,isi,,html-keyboard-response,218,284056,0.0-1.0-299.0,0,0,44248,,,,,,42.0,,2.0,,,,,,,,,,,,,,,,,,,,14.5,1.0,,
219,,feedback,,html-keyboard-response,219,285057,0.0-1.0-300.0-0.0,0,0,44248,,,,,,42.0,,2.0,,,,,,,,,,,,,,,,,,,,15.5,1.0,,
220,,iti,,html-keyboard-response,220,286058,0.0-1.0-301.0,0,0,44248,,,,,,42.0,,2.0,,,,,,,,,,,,,,,,,,,,16.5,1.0,,
221,,rl_choice,,html-keyboard-response,221,286735,0.0-1.0-303.0,0,0,44248,,676.0,,,68.0,43.0,43.0,2.0,easy,1500.0,2000.0,0.0,20.0,80.0,0.0,60.0,A,B,/static/Simple_RL/Stimuli/Fractals_stims/A.jpg,/static/Simple_RL/Stimuli/Fractals_stims/B.jpg,1.0,20.0,80.0,0.0,60.0,A,B,17.176,0.676,0.0,
222,,rl_choice_confirmation,,html-keyboard-response,222,287561,0.0-1.0-304.0-0.0,0,0,44248,,,,,,43.0,,2.0,,,,,,,,,,,,,,,,,,,,18.0,0.824,,
223,,isi,,html-keyboard-response,223,289561,0.0-1.0-306.0,0,0,44248,,,,,,43.0,,2.0,,,,,,,,,,,,,,,,,,,,20.0,2.0,,
224,,feedback,,html-keyboard-response,224,290562,0.0-1.0-307.0-0.0,0,0,44248,,,,,,43.0,,2.0,,,,,,,,,,,,,,,,,,,,21.0,1.0,,
225,,iti,,html-keyboard-response,225,292063,0.0-1.0-308.0,0,0,44248,,,,,,43.0,,2.0,,,,,,,,,,,,,,,,,,,,22.5,1.5,,
226,,rl_choice,,html-keyboard-response,226,292695,0.0-1.0-310.0,0,0,44248,,630.0,,,75.0,44.0,44.0,2.0,hard,1000.0,1500.0,0.0,40.0,60.0,60.0,60.0,C,D,/static/Simple_RL/Stimuli/Fractals_stims/C.jpg,/static/Simple_RL/Stimuli/Fractals_stims/D.jpg,0.0,60.0,40.0,60.0,60.0,D,C,23.13,0.63,0.0,
227,,rl_choice_confirmation,,html-keyboard-response,227,293567,0.0-1.0-311.0-0.0,0,0,44248,,,,,,44.0,,2.0,,,,,,,,,,,,,,,,,,,,24.0,0.87,,
228,,isi,,html-keyboard-response,228,295068,0.0-1.0-313.0,0,0,44248,,,,,,44.0,,2.0,,,,,,,,,,,,,,,,,,,,25.5,1.5,,
229,,feedback,,html-keyboard-response,229,296084,0.0-1.0-314.0-0.0,0,0,44248,,,,,,44.0,,2.0,,,,,,,,,,,,,,,,,,,,26.5,1.0,,
230,,iti,,html-keyboard-response,230,297086,0.0-1.0-315.0,0,0,44248,,,,,,44.0,,2.0,,,,,,,,,,,,,,,,,,,,27.5,1.0,,
231,,rl_choice,,html-keyboard-response,231,297463,0.0-1.0-317.0,0,0,44248,,375.0,,,75.0,45.0,45.0,2.0,hard,2000.0,2000.0,0.0,40.0,60.0,40.0,60.0,C,D,/static/Simple_RL/Stimuli/Fractals_stims/C.jpg,/static/Simple_RL/Stimuli/Fractals_stims/D.jpg,0.0,60.0,40.0,60.0,40.0,D,C,27.875,0.375,0.0,
232,,rl_choice_confirmation,,html-keyboard-response,232,298589,0.0-1.0-318.0-0.0,0,0,44248,,,,,,45.0,,2.0,,,,,,,,,,,,,,,,,,,,29.0,1.125,,
233,,isi,,html-keyboard-response,233,300597,0.0-1.0-320.0,0,0,44248,,,,,,45.0,,2.0,,,,,,,,,,,,,,,,,,,,31.0,2.0,,
234,,feedback,,html-keyboard-response,234,301600,0.0-1.0-321.0-0.0,0,0,44248,,,,,,45.0,,2.0,,,,,,,,,,,,,,,,,,,,32.0,1.0,,
235,,iti,,html-keyboard-response,235,303602,0.0-1.0-322.0,0,0,44248,,,,,,45.0,,2.0,,,,,,,,,,,,,,,,,,,,34.0,2.0,,
236,,rl_choice,,html-keyboard-response,236,304070,0.0-1.0-324.0,0,0,44248,,467.0,,,75.0,46.0,46.0,2.0,hard,2000.0,2000.0,0.0,40.0,60.0,40.0,40.0,C,D,/static/Simple_RL/Stimuli/Fractals_stims/C.jpg,/static/Simple_RL/Stimuli/Fractals_stims/D.jpg,0.0,60.0,40.0,40.0,40.0,D,C,34.467,0.467,0.0,
237,,rl_choice_confirmation,,html-keyboard-response,237,305106,0.0-1.0-325.0-0.0,0,0,44248,,,,,,46.0,,2.0,,,,,,,,,,,,,,,,,,,,35.5,1.033,,
238,,isi,,html-keyboard-response,238,307107,0.0-1.0-327.0,0,0,44248,,,,,,46.0,,2.0,,,,,,,,,,,,,,,,,,,,37.5,2.0,,
239,,feedback,,html-keyboard-response,239,308109,0.0-1.0-328.0-0.0,0,0,44248,,,,,,46.0,,2.0,,,,,,,,,,,,,,,,,,,,38.5,1.0,,
240,,iti,,html-keyboard-response,240,310112,0.0-1.0-329.0,0,0,44248,,,,,,46.0,,2.0,,,,,,,,,,,,,,,,,,,,40.5,2.0,,
241,,rl_choice,,html-keyboard-response,241,310575,0.0-1.0-331.0,0,0,44248,,463.0,,,68.0,47.0,47.0,2.0,hard,1500.0,1500.0,1.0,60.0,40.0,80.0,20.0,D,C,/static/Simple_RL/Stimuli/Fractals_stims/D.jpg,/static/Simple_RL/Stimuli/Fractals_stims/C.jpg,1.0,60.0,40.0,80.0,20.0,D,C,40.963,0.463,0.0,
242,,rl_choice_confirmation,,html-keyboard-response,242,311613,0.0-1.0-332.0-0.0,0,0,44248,,,,,,47.0,,2.0,,,,,,,,,,,,,,,,,,,,42.0,1.037,,
243,,isi,,html-keyboard-response,243,313119,0.0-1.0-334.0,0,0,44248,,,,,,47.0,,2.0,,,,,,,,,,,,,,,,,,,,43.5,1.5,,
244,,feedback,,html-keyboard-response,244,314121,0.0-1.0-335.0-0.0,0,0,44248,,,,,,47.0,,2.0,,,,,,,,,,,,,,,,,,,,44.5,1.0,,
245,,iti,,html-keyboard-response,245,315623,0.0-1.0-336.0,0,0,44248,,,,,,47.0,,2.0,,,,,,,,,,,,,,,,,,,,46.0,1.5,,
246,,rl_choice,,html-keyboard-response,246,316063,0.0-1.0-338.0,0,0,44248,,438.0,,,68.0,48.0,48.0,2.0,easy,3500.0,1000.0,1.0,80.0,20.0,60.0,0.0,B,A,/static/Simple_RL/Stimuli/Fractals_stims/B.jpg,/static/Simple_RL/Stimuli/Fractals_stims/A.jpg,1.0,80.0,20.0,60.0,0.0,B,A,46.438,0.438,0.0,
247,,rl_choice_confirmation,,html-keyboard-response,247,317127,0.0-1.0-339.0-0.0,0,0,44248,,,,,,48.0,,2.0,,,,,,,,,,,,,,,,,,,,47.5,1.062,,
248,,isi,,html-keyboard-response,248,318128,0.0-1.0-341.0,0,0,44248,,,,,,48.0,,2.0,,,,,,,,,,,,,,,,,,,,48.5,1.0,,
249,,feedback,,html-keyboard-response,249,319130,0.0-1.0-342.0-0.0,0,0,44248,,,,,,48.0,,2.0,,,,,,,,,,,,,,,,,,,,49.5,1.0,,
250,,iti,,html-keyboard-response,250,322631,0.0-1.0-343.0,0,0,44248,,,,,,48.0,,2.0,,,,,,,,,,,,,,,,,,,,53.0,3.5,,
251,,rl_choice,,html-keyboard-response,251,323119,0.0-1.0-345.0,0,0,44248,,487.0,,,68.0,49.0,49.0,2.0,hard,1000.0,3500.0,1.0,60.0,40.0,80.0,20.0,D,C,/static/Simple_RL/Stimuli/Fractals_stims/D.jpg,/static/Simple_RL/Stimuli/Fractals_stims/C.jpg,1.0,60.0,40.0,80.0,20.0,D,C,53.487,0.487,0.0,
252,,rl_choice_confirmation,,html-keyboard-response,252,324134,0.0-1.0-346.0-0.0,0,0,44248,,,,,,49.0,,2.0,,,,,,,,,,,,,,,,,,,,54.5,1.013,,
253,,isi,,html-keyboard-response,253,327635,0.0-1.0-348.0,0,0,44248,,,,,,49.0,,2.0,,,,,,,,,,,,,,,,,,,,58.0,3.5,,
254,,feedback,,html-keyboard-response,254,328638,0.0-1.0-349.0-0.0,0,0,44248,,,,,,49.0,,2.0,,,,,,,,,,,,,,,,,,,,59.0,1.0,,
255,,iti,,html-keyboard-response,255,329639,0.0-1.0-350.0,0,0,44248,,,,,,49.0,,2.0,,,,,,,,,,,,,,,,,,,,60.0,1.0,,
256,,rl_choice,,html-keyboard-response,256,330079,0.0-1.0-352.0,0,0,44248,,439.0,,,68.0,50.0,50.0,2.0,easy,1000.0,1500.0,1.0,80.0,20.0,80.0,40.0,B,A,/static/Simple_RL/Stimuli/Fractals_stims/B.jpg,/static/Simple_RL/Stimuli/Fractals_stims/A.jpg,1.0,80.0,20.0,80.0,40.0,B,A,60.439,0.439,0.0,
257,,rl_choice_confirmation,,html-keyboard-response,257,331142,0.0-1.0-353.0-0.0,0,0,44248,,,,,,50.0,,2.0,,,,,,,,,,,,,,,,,,,,61.5,1.061,,
258,,isi,,html-keyboard-response,258,332643,0.0-1.0-355.0,0,0,44248,,,,,,50.0,,2.0,,,,,,,,,,,,,,,,,,,,63.0,1.5,,
259,,feedback,,html-keyboard-response,259,333645,0.0-1.0-356.0-0.0,0,0,44248,,,,,,50.0,,2.0,,,,,,,,,,,,,,,,,,,,64.0,1.0,,
260,,iti,,html-keyboard-response,260,334654,0.0-1.0-357.0,0,0,44248,,,,,,50.0,,2.0,,,,,,,,,,,,,,,,,,,,65.0,1.0,,
261,,rl_choice,,html-keyboard-response,261,335423,0.0-1.0-359.0,0,0,44248,,767.0,,,75.0,51.0,51.0,2.0,easy,1000.0,2000.0,0.0,20.0,80.0,0.0,100.0,A,B,/static/Simple_RL/Stimuli/Fractals_stims/A.jpg,/static/Simple_RL/Stimuli/Fractals_stims/B.jpg,0.0,80.0,20.0,100.0,0.0,B,A,65.767,0.767,0.0,
262,,rl_choice_confirmation,,html-keyboard-response,262,336158,0.0-1.0-360.0-0.0,0,0,44248,,,,,,51.0,,2.0,,,,,,,,,,,,,,,,,,,,66.5,0.733,,
263,,isi,,html-keyboard-response,263,338160,0.0-1.0-362.0,0,0,44248,,,,,,51.0,,2.0,,,,,,,,,,,,,,,,,,,,68.5,2.0,,
264,,feedback,,html-keyboard-response,264,339163,0.0-1.0-363.0-0.0,0,0,44248,,,,,,51.0,,2.0,,,,,,,,,,,,,,,,,,,,69.5,1.0,,
265,,iti,,html-keyboard-response,265,340163,0.0-1.0-364.0,0,0,44248,,,,,,51.0,,2.0,,,,,,,,,,,,,,,,,,,,70.5,1.0,,
266,,rl_choice,,html-keyboard-response,266,340591,0.0-1.0-366.0,0,0,44248,,426.0,,,75.0,52.0,52.0,2.0,easy,3000.0,1500.0,0.0,20.0,80.0,40.0,80.0,A,B,/static/Simple_RL/Stimuli/Fractals_stims/A.jpg,/static/Simple_RL/Stimuli/Fractals_stims/B.jpg,0.0,80.0,20.0,80.0,40.0,B,A,70.926,0.426,0.0,
267,,rl_choice_confirmation,,html-keyboard-response,267,341666,0.0-1.0-367.0-0.0,0,0,44248,,,,,,52.0,,2.0,,,,,,,,,,,,,,,,,,,,72.0,1.074,,
268,,isi,,html-keyboard-response,268,343167,0.0-1.0-369.0,0,0,44248,,,,,,52.0,,2.0,,,,,,,,,,,,,,,,,,,,73.5,1.5,,
269,,feedback,,html-keyboard-response,269,344170,0.0-1.0-370.0-0.0,0,0,44248,,,,,,52.0,,2.0,,,,,,,,,,,,,,,,,,,,74.5,1.0,,
270,,iti,,html-keyboard-response,270,347171,0.0-1.0-371.0,0,0,44248,,,,,,52.0,,2.0,,,,,,,,,,,,,,,,,,,,77.5,3.0,,
271,,rl_choice,,html-keyboard-response,271,348015,0.0-1.0-373.0,0,0,44248,,842.0,,,68.0,53.0,53.0,2.0,hard,2000.0,1000.0,1.0,60.0,40.0,60.0,40.0,D,C,/static/Simple_RL/Stimuli/Fractals_stims/D.jpg,/static/Simple_RL/Stimuli/Fractals_stims/C.jpg,1.0,60.0,40.0,60.0,40.0,D,C,78.342,0.842,0.0,
272,,rl_choice_confirmation,,html-keyboard-response,272,348685,0.0-1.0-374.0-0.0,0,0,44248,,,,,,53.0,,2.0,,,,,,,,,,,,,,,,,,,,79.0,0.658,,
273,,isi,,html-keyboard-response,273,349687,0.0-1.0-376.0,0,0,44248,,,,,,53.0,,2.0,,,,,,,,,,,,,,,,,,,,80.0,1.0,,
274,,feedback,,html-keyboard-response,274,350689,0.0-1.0-377.0-0.0,0,0,44248,,,,,,53.0,,2.0,,,,,,,,,,,,,,,,,,,,81.0,1.0,,
275,,iti,,html-keyboard-response,275,352691,0.0-1.0-378.0,0,0,44248,,,,,,53.0,,2.0,,,,,,,,,,,,,,,,,,,,83.0,2.0,,
276,,rl_choice,,html-keyboard-response,276,353495,0.0-1.0-380.0,0,0,44248,,803.0,,,75.0,54.0,54.0,2.0,easy,2000.0,1500.0,0.0,20.0,80.0,0.0,100.0,A,B,/static/Simple_RL/Stimuli/Fractals_stims/A.jpg,/static/Simple_RL/Stimuli/Fractals_stims/B.jpg,0.0,80.0,20.0,100.0,0.0,B,A,83.803,0.803,0.0,
277,,rl_choice_confirmation,,html-keyboard-response,277,354194,0.0-1.0-381.0-0.0,0,0,44248,,,,,,54.0,,2.0,,,,,,,,,,,,,,,,,,,,84.5,0.697,,
278,,isi,,html-keyboard-response,278,355695,0.0-1.0-383.0,0,0,44248,,,,,,54.0,,2.0,,,,,,,,,,,,,,,,,,,,86.0,1.5,,
279,,feedback,,html-keyboard-response,279,356697,0.0-1.0-384.0-0.0,0,0,44248,,,,,,54.0,,2.0,,,,,,,,,,,,,,,,,,,,87.0,1.0,,
280,,iti,,html-keyboard-response,280,358710,0.0-1.0-385.0,0,0,44248,,,,,,54.0,,2.0,,,,,,,,,,,,,,,,,,,,89.0,2.0,,
281,,rl_choice,,html-keyboard-response,281,359239,0.0-1.0-387.0,0,0,44248,,528.0,,,75.0,55.0,55.0,2.0,easy,1000.0,1000.0,0.0,20.0,80.0,40.0,100.0,A,B,/static/Simple_RL/Stimuli/Fractals_stims/A.jpg,/static/Simple_RL/Stimuli/Fractals_stims/B.jpg,0.0,80.0,20.0,100.0,40.0,B,A,89.528,0.528,0.0,
282,,rl_choice_confirmation,,html-keyboard-response,282,360213,0.0-1.0-388.0-0.0,0,0,44248,,,,,,55.0,,2.0,,,,,,,,,,,,,,,,,,,,90.5,0.972,,
283,,isi,,html-keyboard-response,283,361214,0.0-1.0-390.0,0,0,44248,,,,,,55.0,,2.0,,,,,,,,,,,,,,,,,,,,91.5,1.0,,
284,,feedback,,html-keyboard-response,284,362215,0.0-1.0-391.0-0.0,0,0,44248,,,,,,55.0,,2.0,,,,,,,,,,,,,,,,,,,,92.5,1.0,,
285,,iti,,html-keyboard-response,285,363216,0.0-1.0-392.0,0,0,44248,,,,,,55.0,,2.0,,,,,,,,,,,,,,,,,,,,93.5,1.0,,
286,,rl_choice,,html-keyboard-response,286,364006,0.0-1.0-394.0,0,0,44248,,789.0,,,68.0,56.0,56.0,2.0,hard,2000.0,1000.0,1.0,60.0,40.0,60.0,20.0,D,C,/static/Simple_RL/Stimuli/Fractals_stims/D.jpg,/static/Simple_RL/Stimuli/Fractals_stims/C.jpg,1.0,60.0,40.0,60.0,20.0,D,C,94.289,0.789,0.0,
287,,rl_choice_confirmation,,html-keyboard-response,287,364731,0.0-1.0-395.0-0.0,0,0,44248,,,,,,56.0,,2.0,,,,,,,,,,,,,,,,,,,,95.0,0.711,,
288,,isi,,html-keyboard-response,288,365732,0.0-1.0-397.0,0,0,44248,,,,,,56.0,,2.0,,,,,,,,,,,,,,,,,,,,96.0,1.0,,
289,,feedback,,html-keyboard-response,289,366734,0.0-1.0-398.0-0.0,0,0,44248,,,,,,56.0,,2.0,,,,,,,,,,,,,,,,,,,,97.0,1.0,,
290,,iti,,html-keyboard-response,290,368735,0.0-1.0-399.0,0,0,44248,,,,,,56.0,,2.0,,,,,,,,,,,,,,,,,,,,99.0,2.0,,
291,,rl_choice,,html-keyboard-response,291,369318,0.0-1.0-401.0,0,0,44248,,582.0,,,68.0,57.0,57.0,2.0,easy,1000.0,2000.0,1.0,80.0,20.0,80.0,0.0,B,A,/static/Simple_RL/Stimuli/Fractals_stims/B.jpg,/static/Simple_RL/Stimuli/Fractals_stims/A.jpg,1.0,80.0,20.0,80.0,0.0,B,A,99.582,0.582,0.0,
292,,rl_choice_confirmation,,html-keyboard-response,292,370238,0.0-1.0-402.0-0.0,0,0,44248,,,,,,57.0,,2.0,,,,,,,,,,,,,,,,,,,,100.5,0.918,,
293,,isi,,html-keyboard-response,293,372240,0.0-1.0-404.0,0,0,44248,,,,,,57.0,,2.0,,,,,,,,,,,,,,,,,,,,102.5,2.0,,
294,,feedback,,html-keyboard-response,294,373242,0.0-1.0-405.0-0.0,0,0,44248,,,,,,57.0,,2.0,,,,,,,,,,,,,,,,,,,,103.5,1.0,,
295,,iti,,html-keyboard-response,295,374244,0.0-1.0-406.0,0,0,44248,,,,,,57.0,,2.0,,,,,,,,,,,,,,,,,,,,104.5,1.0,,
296,,rl_choice,,html-keyboard-response,296,375366,0.0-1.0-408.0,0,0,44248,,1122.0,,,68.0,58.0,58.0,2.0,hard,1000.0,1500.0,1.0,60.0,40.0,60.0,60.0,D,C,/static/Simple_RL/Stimuli/Fractals_stims/D.jpg,/static/Simple_RL/Stimuli/Fractals_stims/C.jpg,1.0,60.0,40.0,60.0,60.0,D,C,105.622,1.122,0.0,
297,,rl_choice_confirmation,,html-keyboard-response,297,375759,0.0-1.0-409.0-0.0,0,0,44248,,,,,,58.0,,2.0,,,,,,,,,,,,,,,,,,,,106.0,0.378,,
298,,isi,,html-keyboard-response,298,377260,0.0-1.0-411.0,0,0,44248,,,,,,58.0,,2.0,,,,,,,,,,,,,,,,,,,,107.5,1.5,,
299,,feedback,,html-keyboard-response,299,378261,0.0-1.0-412.0-0.0,0,0,44248,,,,,,58.0,,2.0,,,,,,,,,,,,,,,,,,,,108.5,1.0,,
300,,iti,,html-keyboard-response,300,379262,0.0-1.0-413.0,0,0,44248,,,,,,58.0,,2.0,,,,,,,,,,,,,,,,,,,,109.5,1.0,,
301,,rl_choice,,html-keyboard-response,301,379846,0.0-1.0-415.0,0,0,44248,,583.0,,,68.0,59.0,59.0,2.0,easy,1500.0,3000.0,1.0,80.0,20.0,80.0,40.0,B,A,/static/Simple_RL/Stimuli/Fractals_stims/B.jpg,/static/Simple_RL/Stimuli/Fractals_stims/A.jpg,1.0,80.0,20.0,80.0,40.0,B,A,110.083,0.583,0.0,
302,,rl_choice_confirmation,,html-keyboard-response,302,380765,0.0-1.0-416.0-0.0,0,0,44248,,,,,,59.0,,2.0,,,,,,,,,,,,,,,,,,,,111.0,0.917,,
303,,isi,,html-keyboard-response,303,383767,0.0-1.0-418.0,0,0,44248,,,,,,59.0,,2.0,,,,,,,,,,,,,,,,,,,,114.0,3.0,,
304,,feedback,,html-keyboard-response,304,384769,0.0-1.0-419.0-0.0,0,0,44248,,,,,,59.0,,2.0,,,,,,,,,,,,,,,,,,,,115.0,1.0,,
305,,iti,,html-keyboard-response,305,386271,0.0-1.0-420.0,0,0,44248,,,,,,59.0,,2.0,,,,,,,,,,,,,,,,,,,,116.5,1.5,,
306,,rl_choice,,html-keyboard-response,306,386966,0.0-1.0-422.0,0,0,44248,,695.0,,,75.0,60.0,60.0,2.0,hard,1500.0,2000.0,0.0,40.0,60.0,40.0,80.0,C,D,/static/Simple_RL/Stimuli/Fractals_stims/C.jpg,/static/Simple_RL/Stimuli/Fractals_stims/D.jpg,0.0,60.0,40.0,80.0,40.0,D,C,117.195,0.695,0.0,
307,,rl_choice_confirmation,,html-keyboard-response,307,387772,0.0-1.0-423.0-0.0,0,0,44248,,,,,,60.0,,2.0,,,,,,,,,,,,,,,,,,,,118.0,0.805,,
308,,isi,,html-keyboard-response,308,389773,0.0-1.0-425.0,0,0,44248,,,,,,60.0,,2.0,,,,,,,,,,,,,,,,,,,,120.0,2.0,,
309,,feedback,,html-keyboard-response,309,390775,0.0-1.0-426.0-0.0,0,0,44248,,,,,,60.0,,2.0,,,,,,,,,,,,,,,,,,,,121.0,1.0,,
310,,iti,,html-keyboard-response,310,392276,0.0-1.0-427.0,0,0,44248,,,,,,60.0,,2.0,,,,,,,,,,,,,,,,,,,,122.5,1.5,,
311,,rl_choice,,html-keyboard-response,311,393166,0.0-1.0-429.0,0,0,44248,,889.0,,,68.0,61.0,61.0,2.0,hard,1000.0,1000.0,1.0,60.0,40.0,40.0,40.0,D,C,/static/Simple_RL/Stimuli/Fractals_stims/D.jpg,/static/Simple_RL/Stimuli/Fractals_stims/C.jpg,1.0,60.0,40.0,40.0,40.0,D,C,123.389,0.889,0.0,
312,,rl_choice_confirmation,,html-keyboard-response,312,393779,0.0-1.0-430.0-0.0,0,0,44248,,,,,,61.0,,2.0,,,,,,,,,,,,,,,,,,,,124.0,0.611,,
313,,isi,,html-keyboard-response,313,394781,0.0-1.0-432.0,0,0,44248,,,,,,61.0,,2.0,,,,,,,,,,,,,,,,,,,,125.0,1.0,,
314,,feedback,,html-keyboard-response,314,395783,0.0-1.0-433.0-0.0,0,0,44248,,,,,,61.0,,2.0,,,,,,,,,,,,,,,,,,,,126.0,1.0,,
315,,iti,,html-keyboard-response,315,396784,0.0-1.0-434.0,0,0,44248,,,,,,61.0,,2.0,,,,,,,,,,,,,,,,,,,,127.0,1.0,,
316,,rl_choice,,html-keyboard-response,316,397414,0.0-1.0-436.0,0,0,44248,,630.0,,,75.0,62.0,62.0,2.0,easy,3000.0,1500.0,0.0,20.0,80.0,20.0,80.0,A,B,/static/Simple_RL/Stimuli/Fractals_stims/A.jpg,/static/Simple_RL/Stimuli/Fractals_stims/B.jpg,0.0,80.0,20.0,80.0,20.0,B,A,127.63,0.63,0.0,
317,,rl_choice_confirmation,,html-keyboard-response,317,398286,0.0-1.0-437.0-0.0,0,0,44248,,,,,,62.0,,2.0,,,,,,,,,,,,,,,,,,,,128.5,0.87,,
318,,isi,,html-keyboard-response,318,399787,0.0-1.0-439.0,0,0,44248,,,,,,62.0,,2.0,,,,,,,,,,,,,,,,,,,,130.0,1.5,,
319,,feedback,,html-keyboard-response,319,400789,0.0-1.0-440.0-0.0,0,0,44248,,,,,,62.0,,2.0,,,,,,,,,,,,,,,,,,,,131.0,1.0,,
320,,iti,,html-keyboard-response,320,403791,0.0-1.0-441.0,0,0,44248,,,,,,62.0,,2.0,,,,,,,,,,,,,,,,,,,,134.0,3.0,,
321,,rl_choice,,html-keyboard-response,321,404758,0.0-1.0-443.0,0,0,44248,,966.0,,,75.0,63.0,63.0,2.0,hard,1000.0,1500.0,1.0,60.0,40.0,60.0,40.0,D,C,/static/Simple_RL/Stimuli/Fractals_stims/D.jpg,/static/Simple_RL/Stimuli/Fractals_stims/C.jpg,0.0,40.0,60.0,40.0,60.0,C,D,134.966,0.966,0.0,
322,,rl_choice_confirmation,,html-keyboard-response,322,405294,0.0-1.0-444.0-0.0,0,0,44248,,,,,,63.0,,2.0,,,,,,,,,,,,,,,,,,,,135.5,0.534,,
323,,isi,,html-keyboard-response,323,406796,0.0-1.0-446.0,0,0,44248,,,,,,63.0,,2.0,,,,,,,,,,,,,,,,,,,,137.0,1.5,,
324,,feedback,,html-keyboard-response,324,407797,0.0-1.0-447.0-0.0,0,0,44248,,,,,,63.0,,2.0,,,,,,,,,,,,,,,,,,,,138.0,1.0,,
325,,iti,,html-keyboard-response,325,408800,0.0-1.0-448.0,0,0,44248,,,,,,63.0,,2.0,,,,,,,,,,,,,,,,,,,,139.0,1.0,,
326,,rl_choice,,html-keyboard-response,326,409446,0.0-1.0-450.0,0,0,44248,,645.0,,,75.0,64.0,64.0,2.0,hard,3500.0,1000.0,0.0,40.0,60.0,60.0,80.0,C,D,/static/Simple_RL/Stimuli/Fractals_stims/C.jpg,/static/Simple_RL/Stimuli/Fractals_stims/D.jpg,0.0,60.0,40.0,80.0,60.0,D,C,139.645,0.645,0.0,
327,,rl_choice_confirmation,,html-keyboard-response,327,410303,0.0-1.0-451.0-0.0,0,0,44248,,,,,,64.0,,2.0,,,,,,,,,,,,,,,,,,,,140.5,0.855,,
328,,isi,,html-keyboard-response,328,411306,0.0-1.0-453.0,0,0,44248,,,,,,64.0,,2.0,,,,,,,,,,,,,,,,,,,,141.5,1.0,,
329,,feedback,,html-keyboard-response,329,412308,0.0-1.0-454.0-0.0,0,0,44248,,,,,,64.0,,2.0,,,,,,,,,,,,,,,,,,,,142.5,1.0,,
330,,iti,,html-keyboard-response,330,415810,0.0-1.0-455.0,0,0,44248,,,,,,64.0,,2.0,,,,,,,,,,,,,,,,,,,,146.0,3.5,,
331,,rl_choice,,html-keyboard-response,331,416366,0.0-1.0-457.0,0,0,44248,,556.0,,,68.0,65.0,65.0,2.0,easy,1500.0,1000.0,1.0,80.0,20.0,100.0,40.0,B,A,/static/Simple_RL/Stimuli/Fractals_stims/B.jpg,/static/Simple_RL/Stimuli/Fractals_stims/A.jpg,1.0,80.0,20.0,100.0,40.0,B,A,146.556,0.556,0.0,
332,,rl_choice_confirmation,,html-keyboard-response,332,417312,0.0-1.0-458.0-0.0,0,0,44248,,,,,,65.0,,2.0,,,,,,,,,,,,,,,,,,,,147.5,0.944,,
333,,isi,,html-keyboard-response,333,418314,0.0-1.0-460.0,0,0,44248,,,,,,65.0,,2.0,,,,,,,,,,,,,,,,,,,,148.5,1.0,,
334,,feedback,,html-keyboard-response,334,419316,0.0-1.0-461.0-0.0,0,0,44248,,,,,,65.0,,2.0,,,,,,,,,,,,,,,,,,,,149.5,1.0,,
335,,iti,,html-keyboard-response,335,420817,0.0-1.0-462.0,0,0,44248,,,,,,65.0,,2.0,,,,,,,,,,,,,,,,,,,,151.0,1.5,,
336,,rl_choice,,html-keyboard-response,336,421726,0.0-1.0-464.0,0,0,44248,,908.0,,,75.0,66.0,66.0,2.0,hard,1500.0,3000.0,1.0,60.0,40.0,60.0,40.0,D,C,/static/Simple_RL/Stimuli/Fractals_stims/D.jpg,/static/Simple_RL/Stimuli/Fractals_stims/C.jpg,0.0,40.0,60.0,40.0,60.0,C,D,151.908,0.908,0.0,
337,,rl_choice_confirmation,,html-keyboard-response,337,422320,0.0-1.0-465.0-0.0,0,0,44248,,,,,,66.0,,2.0,,,,,,,,,,,,,,,,,,,,152.5,0.592,,
338,,isi,,html-keyboard-response,338,425322,0.0-1.0-467.0,0,0,44248,,,,,,66.0,,2.0,,,,,,,,,,,,,,,,,,,,155.5,3.0,,
339,,feedback,,html-keyboard-response,339,426324,0.0-1.0-468.0-0.0,0,0,44248,,,,,,66.0,,2.0,,,,,,,,,,,,,,,,,,,,156.5,1.0,,
340,,iti,,html-keyboard-response,340,427825,0.0-1.0-469.0,0,0,44248,,,,,,66.0,,2.0,,,,,,,,,,,,,,,,,,,,158.0,1.5,,
341,,rl_choice,,html-keyboard-response,341,428702,0.0-1.0-471.0,0,0,44248,,876.0,,,75.0,67.0,67.0,2.0,hard,1500.0,1500.0,0.0,40.0,60.0,20.0,80.0,C,D,/static/Simple_RL/Stimuli/Fractals_stims/C.jpg,/static/Simple_RL/Stimuli/Fractals_stims/D.jpg,0.0,60.0,40.0,80.0,20.0,D,C,158.876,0.876,0.0,
342,,rl_choice_confirmation,,html-keyboard-response,342,429328,0.0-1.0-472.0-0.0,0,0,44248,,,,,,67.0,,2.0,,,,,,,,,,,,,,,,,,,,159.5,0.624,,
343,,isi,,html-keyboard-response,343,430829,0.0-1.0-474.0,0,0,44248,,,,,,67.0,,2.0,,,,,,,,,,,,,,,,,,,,161.0,1.5,,
344,,feedback,,html-keyboard-response,344,431831,0.0-1.0-475.0-0.0,0,0,44248,,,,,,67.0,,2.0,,,,,,,,,,,,,,,,,,,,162.0,1.0,,
345,,iti,,html-keyboard-response,345,433333,0.0-1.0-476.0,0,0,44248,,,,,,67.0,,2.0,,,,,,,,,,,,,,,,,,,,163.5,1.5,,
346,,rl_choice,,html-keyboard-response,346,433998,0.0-1.0-478.0,0,0,44248,,665.0,,,68.0,68.0,68.0,2.0,hard,3000.0,1000.0,1.0,60.0,40.0,60.0,40.0,D,C,/static/Simple_RL/Stimuli/Fractals_stims/D.jpg,/static/Simple_RL/Stimuli/Fractals_stims/C.jpg,1.0,60.0,40.0,60.0,40.0,D,C,164.165,0.665,0.0,
347,,rl_choice_confirmation,,html-keyboard-response,347,434834,0.0-1.0-479.0-0.0,0,0,44248,,,,,,68.0,,2.0,,,,,,,,,,,,,,,,,,,,165.0,0.835,,
348,,isi,,html-keyboard-response,348,435837,0.0-1.0-481.0,0,0,44248,,,,,,68.0,,2.0,,,,,,,,,,,,,,,,,,,,166.0,1.0,,
349,,feedback,,html-keyboard-response,349,436839,0.0-1.0-482.0-0.0,0,0,44248,,,,,,68.0,,2.0,,,,,,,,,,,,,,,,,,,,167.0,1.0,,
350,,iti,,html-keyboard-response,350,439840,0.0-1.0-483.0,0,0,44248,,,,,,68.0,,2.0,,,,,,,,,,,,,,,,,,,,170.0,3.0,,
351,,rl_choice,,html-keyboard-response,351,440454,0.0-1.0-485.0,0,0,44248,,613.0,,,75.0,69.0,69.0,2.0,easy,1000.0,1000.0,0.0,20.0,80.0,40.0,80.0,A,B,/static/Simple_RL/Stimuli/Fractals_stims/A.jpg,/static/Simple_RL/Stimuli/Fractals_stims/B.jpg,0.0,80.0,20.0,80.0,40.0,B,A,170.613,0.613,0.0,
352,,rl_choice_confirmation,,html-keyboard-response,352,441343,0.0-1.0-486.0-0.0,0,0,44248,,,,,,69.0,,2.0,,,,,,,,,,,,,,,,,,,,171.5,0.887,,
353,,isi,,html-keyboard-response,353,442345,0.0-1.0-488.0,0,0,44248,,,,,,69.0,,2.0,,,,,,,,,,,,,,,,,,,,172.5,1.0,,
354,,feedback,,html-keyboard-response,354,443357,0.0-1.0-489.0-0.0,0,0,44248,,,,,,69.0,,2.0,,,,,,,,,,,,,,,,,,,,173.5,1.0,,
355,,iti,,html-keyboard-response,355,444358,0.0-1.0-490.0,0,0,44248,,,,,,69.0,,2.0,,,,,,,,,,,,,,,,,,,,174.5,1.0,,
356,,rl_choice,,html-keyboard-response,356,444782,0.0-1.0-492.0,0,0,44248,,423.0,,,68.0,70.0,70.0,2.0,easy,1500.0,1000.0,1.0,80.0,20.0,80.0,20.0,B,A,/static/Simple_RL/Stimuli/Fractals_stims/B.jpg,/static/Simple_RL/Stimuli/Fractals_stims/A.jpg,1.0,80.0,20.0,80.0,20.0,B,A,174.923,0.423,0.0,
357,,rl_choice_confirmation,,html-keyboard-response,357,445861,0.0-1.0-493.0-0.0,0,0,44248,,,,,,70.0,,2.0,,,,,,,,,,,,,,,,,,,,176.0,1.077,,
358,,isi,,html-keyboard-response,358,446863,0.0-1.0-495.0,0,0,44248,,,,,,70.0,,2.0,,,,,,,,,,,,,,,,,,,,177.0,1.0,,
359,,feedback,,html-keyboard-response,359,447864,0.0-1.0-496.0-0.0,0,0,44248,,,,,,70.0,,2.0,,,,,,,,,,,,,,,,,,,,178.0,1.0,,
360,,iti,,html-keyboard-response,360,449365,0.0-1.0-497.0,0,0,44248,,,,,,70.0,,2.0,,,,,,,,,,,,,,,,,,,,179.5,1.5,,
361,,rl_choice,,html-keyboard-response,361,449790,0.0-1.0-499.0,0,0,44248,,424.0,,,75.0,71.0,71.0,2.0,easy,1500.0,1000.0,0.0,20.0,80.0,40.0,60.0,A,B,/static/Simple_RL/Stimuli/Fractals_stims/A.jpg,/static/Simple_RL/Stimuli/Fractals_stims/B.jpg,0.0,80.0,20.0,60.0,40.0,B,A,179.924,0.424,0.0,
362,,rl_choice_confirmation,,html-keyboard-response,362,450867,0.0-1.0-500.0-0.0,0,0,44248,,,,,,71.0,,2.0,,,,,,,,,,,,,,,,,,,,181.0,1.076,,
363,,isi,,html-keyboard-response,363,451869,0.0-1.0-502.0,0,0,44248,,,,,,71.0,,2.0,,,,,,,,,,,,,,,,,,,,182.0,1.0,,
364,,feedback,,html-keyboard-response,364,452871,0.0-1.0-503.0-0.0,0,0,44248,,,,,,71.0,,2.0,,,,,,,,,,,,,,,,,,,,183.0,1.0,,
365,,iti,,html-keyboard-response,365,454373,0.0-1.0-504.0,0,0,44248,,,,,,71.0,,2.0,,,,,,,,,,,,,,,,,,,,184.5,1.5,,
366,,rl_choice,,html-keyboard-response,366,454814,0.0-1.0-506.0,0,0,44248,,440.0,,,75.0,72.0,72.0,2.0,easy,2000.0,3000.0,0.0,20.0,80.0,20.0,100.0,A,B,/static/Simple_RL/Stimuli/Fractals_stims/A.jpg,/static/Simple_RL/Stimuli/Fractals_stims/B.jpg,0.0,80.0,20.0,100.0,20.0,B,A,184.94,0.44,0.0,
367,,rl_choice_confirmation,,html-keyboard-response,367,455876,0.0-1.0-507.0-0.0,0,0,44248,,,,,,72.0,,2.0,,,,,,,,,,,,,,,,,,,,186.0,1.06,,
368,,isi,,html-keyboard-response,368,458878,0.0-1.0-509.0,0,0,44248,,,,,,72.0,,2.0,,,,,,,,,,,,,,,,,,,,189.0,3.0,,
369,,feedback,,html-keyboard-response,369,459881,0.0-1.0-510.0-0.0,0,0,44248,,,,,,72.0,,2.0,,,,,,,,,,,,,,,,,,,,190.0,1.0,,
370,,iti,,html-keyboard-response,370,461882,0.0-1.0-511.0,0,0,44248,,,,,,72.0,,2.0,,,,,,,,,,,,,,,,,,,,192.0,2.0,,
371,,rl_choice,,html-keyboard-response,371,462382,0.0-1.0-513.0,0,0,44248,,499.0,,,75.0,73.0,73.0,2.0,easy,1000.0,3500.0,0.0,20.0,80.0,40.0,60.0,A,B,/static/Simple_RL/Stimuli/Fractals_stims/A.jpg,/static/Simple_RL/Stimuli/Fractals_stims/B.jpg,0.0,80.0,20.0,60.0,40.0,B,A,192.499,0.499,0.0,
372,,rl_choice_confirmation,,html-keyboard-response,372,463385,0.0-1.0-514.0-0.0,0,0,44248,,,,,,73.0,,2.0,,,,,,,,,,,,,,,,,,,,193.5,1.001,,
373,,isi,,html-keyboard-response,373,466895,0.0-1.0-516.0,0,0,44248,,,,,,73.0,,2.0,,,,,,,,,,,,,,,,,,,,197.0,3.5,,
374,,feedback,,html-keyboard-response,374,467896,0.0-1.0-517.0-0.0,0,0,44248,,,,,,73.0,,2.0,,,,,,,,,,,,,,,,,,,,198.0,1.0,,
375,,iti,,html-keyboard-response,375,468898,0.0-1.0-518.0,0,0,44248,,,,,,73.0,,2.0,,,,,,,,,,,,,,,,,,,,199.0,1.0,,
376,,rl_choice,,html-keyboard-response,376,469622,0.0-1.0-520.0,0,0,44248,,723.0,,,75.0,74.0,74.0,2.0,hard,3000.0,1000.0,0.0,40.0,60.0,40.0,40.0,C,D,/static/Simple_RL/Stimuli/Fractals_stims/C.jpg,/static/Simple_RL/Stimuli/Fractals_stims/D.jpg,0.0,60.0,40.0,40.0,40.0,D,C,199.723,0.723,0.0,
377,,rl_choice_confirmation,,html-keyboard-response,377,470401,0.0-1.0-521.0-0.0,0,0,44248,,,,,,74.0,,2.0,,,,,,,,,,,,,,,,,,,,200.5,0.777,,
378,,isi,,html-keyboard-response,378,471403,0.0-1.0-523.0,0,0,44248,,,,,,74.0,,2.0,,,,,,,,,,,,,,,,,,,,201.5,1.0,,
379,,feedback,,html-keyboard-response,379,472405,0.0-1.0-524.0-0.0,0,0,44248,,,,,,74.0,,2.0,,,,,,,,,,,,,,,,,,,,202.5,1.0,,
380,,iti,,html-keyboard-response,380,475406,0.0-1.0-525.0,0,0,44248,,,,,,74.0,,2.0,,,,,,,,,,,,,,,,,,,,205.5,3.0,,
381,,rl_choice,,html-keyboard-response,381,475885,0.0-1.0-527.0,0,0,44248,,478.0,,,75.0,75.0,75.0,2.0,easy,1000.0,1000.0,0.0,20.0,80.0,0.0,60.0,A,B,/static/Simple_RL/Stimuli/Fractals_stims/A.jpg,/static/Simple_RL/Stimuli/Fractals_stims/B.jpg,0.0,80.0,20.0,60.0,0.0,B,A,205.978,0.478,0.0,
382,,rl_choice_confirmation,,html-keyboard-response,382,476910,0.0-1.0-528.0-0.0,0,0,44248,,,,,,75.0,,2.0,,,,,,,,,,,,,,,,,,,,207.0,1.022,,
383,,isi,,html-keyboard-response,383,477911,0.0-1.0-530.0,0,0,44248,,,,,,75.0,,2.0,,,,,,,,,,,,,,,,,,,,208.0,1.0,,
384,,feedback,,html-keyboard-response,384,478913,0.0-1.0-531.0-0.0,0,0,44248,,,,,,75.0,,2.0,,,,,,,,,,,,,,,,,,,,209.0,1.0,,
385,,iti,,html-keyboard-response,385,479915,0.0-1.0-532.0,0,0,44248,,,,,,75.0,,2.0,,,,,,,,,,,,,,,,,,,,210.0,1.0,,
386,,rl_choice,,html-keyboard-response,386,480510,0.0-1.0-534.0,0,0,44248,,594.0,,,68.0,76.0,76.0,2.0,easy,2000.0,1500.0,1.0,80.0,20.0,100.0,20.0,B,A,/static/Simple_RL/Stimuli/Fractals_stims/B.jpg,/static/Simple_RL/Stimuli/Fractals_stims/A.jpg,1.0,80.0,20.0,100.0,20.0,B,A,210.594,0.594,0.0,
387,,rl_choice_confirmation,,html-keyboard-response,387,481417,0.0-1.0-535.0-0.0,0,0,44248,,,,,,76.0,,2.0,,,,,,,,,,,,,,,,,,,,211.5,0.906,,
388,,isi,,html-keyboard-response,388,482919,0.0-1.0-537.0,0,0,44248,,,,,,76.0,,2.0,,,,,,,,,,,,,,,,,,,,213.0,1.5,,
389,,feedback,,html-keyboard-response,389,483920,0.0-1.0-538.0-0.0,0,0,44248,,,,,,76.0,,2.0,,,,,,,,,,,,,,,,,,,,214.0,1.0,,
390,,iti,,html-keyboard-response,390,485921,0.0-1.0-539.0,0,0,44248,,,,,,76.0,,2.0,,,,,,,,,,,,,,,,,,,,216.0,2.0,,
391,,rl_choice,,html-keyboard-response,391,486486,0.0-1.0-541.0,0,0,44248,,563.0,,,75.0,77.0,77.0,2.0,easy,1000.0,1000.0,0.0,20.0,80.0,0.0,80.0,A,B,/static/Simple_RL/Stimuli/Fractals_stims/A.jpg,/static/Simple_RL/Stimuli/Fractals_stims/B.jpg,0.0,80.0,20.0,80.0,0.0,B,A,216.563,0.563,0.0,
392,,rl_choice_confirmation,,html-keyboard-response,392,487424,0.0-1.0-542.0-0.0,0,0,44248,,,,,,77.0,,2.0,,,,,,,,,,,,,,,,,,,,217.5,0.937,,
393,,isi,,html-keyboard-response,393,488425,0.0-1.0-544.0,0,0,44248,,,,,,77.0,,2.0,,,,,,,,,,,,,,,,,,,,218.5,1.0,,
394,,feedback,,html-keyboard-response,394,489427,0.0-1.0-545.0-0.0,0,0,44248,,,,,,77.0,,2.0,,,,,,,,,,,,,,,,,,,,219.5,1.0,,
395,,iti,,html-keyboard-response,395,490430,0.0-1.0-546.0,0,0,44248,,,,,,77.0,,2.0,,,,,,,,,,,,,,,,,,,,220.5,1.0,,
396,,rl_choice,,html-keyboard-response,396,491142,0.0-1.0-548.0,0,0,44248,,711.0,,,75.0,78.0,78.0,2.0,hard,1500.0,1000.0,0.0,40.0,60.0,20.0,60.0,C,D,/static/Simple_RL/Stimuli/Fractals_stims/C.jpg,/static/Simple_RL/Stimuli/Fractals_stims/D.jpg,0.0,60.0,40.0,60.0,20.0,D,C,221.211,0.711,0.0,
397,,rl_choice_confirmation,,html-keyboard-response,397,491933,0.0-1.0-549.0-0.0,0,0,44248,,,,,,78.0,,2.0,,,,,,,,,,,,,,,,,,,,222.0,0.789,,
398,,isi,,html-keyboard-response,398,492936,0.0-1.0-551.0,0,0,44248,,,,,,78.0,,2.0,,,,,,,,,,,,,,,,,,,,223.0,1.0,,
399,,feedback,,html-keyboard-response,399,493938,0.0-1.0-552.0-0.0,0,0,44248,,,,,,78.0,,2.0,,,,,,,,,,,,,,,,,,,,224.0,1.0,,
400,,iti,,html-keyboard-response,400,495440,0.0-1.0-553.0,0,0,44248,,,,,,78.0,,2.0,,,,,,,,,,,,,,,,,,,,225.5,1.5,,
401,,rl_choice,,html-keyboard-response,401,495990,0.0-1.0-555.0,0,0,44248,,548.0,,,68.0,79.0,79.0,2.0,easy,2000.0,2000.0,1.0,80.0,20.0,100.0,0.0,B,A,/static/Simple_RL/Stimuli/Fractals_stims/B.jpg,/static/Simple_RL/Stimuli/Fractals_stims/A.jpg,1.0,80.0,20.0,100.0,0.0,B,A,226.048,0.548,0.0,
402,,rl_choice_confirmation,,html-keyboard-response,402,496943,0.0-1.0-556.0-0.0,0,0,44248,,,,,,79.0,,2.0,,,,,,,,,,,,,,,,,,,,227.0,0.952,,
403,,isi,,html-keyboard-response,403,498945,0.0-1.0-558.0,0,0,44248,,,,,,79.0,,2.0,,,,,,,,,,,,,,,,,,,,229.0,2.0,,
404,,feedback,,html-keyboard-response,404,499947,0.0-1.0-559.0-0.0,0,0,44248,,,,,,79.0,,2.0,,,,,,,,,,,,,,,,,,,,230.0,1.0,,
405,,iti,,html-keyboard-response,405,501948,0.0-1.0-560.0,0,0,44248,,,,,,79.0,,2.0,,,,,,,,,,,,,,,,,,,,232.0,2.0,,1.0
406,,final_tally,,html-keyboard-response,406,504261,0.0-2.0,0,0,44248,,2312.0,,,68.0,,,,,,,,,,,,,,,,,,,,,,,,,,
407,,debreif_intro,,html-keyboard-response,407,507254,0.0-3.0,0,0,44248,,2973.0,,,68.0,,,,,,,,,,,,,,,,,,,,,,,,,,
408,,debreif_age,,survey-text,408,517309,0.0-4.0,0,0,44248,,10055.0,"{""Q0"":""25""}",,,,,,,,,,,,,,,,,,,,,,,,,,,,
409,,debreif_gender,,survey-multi-choice,409,522136,0.0-5.0,0,0,44248,,4824.0,"{""Q0"":""Female""}",,,,,,,,,,,,,,,,,,,,,,,,,,,,
410,,debreif_dominant_hand,,survey-multi-choice,410,525776,0.0-6.0,0,0,44248,,3638.0,"{""Q0"":""Left""}",,,,,,,,,,,,,,,,,,,,,,,,,,,,
411,,debreif_native_language,,survey-multi-choice,411,527924,0.0-7.0,0,0,44248,,2146.0,"{""Q0"":""Yes""}",,,,,,,,,,,,,,,,,,,,,,,,,,,,
412,,debreif_fluency,,survey-likert,412,531868,0.0-8.0,0,0,44248,,3942.0,"{""Q0"":5}",,,,,,,,,,,,,,,,,,,,,,,,,,,,
413,,debreif_strategy_category_learning,,survey-text,413,564745,0.0-9.0,0,0,44248,,32876.0,"{""Q0"":""I just picked randomly until I got an idea if value and then I tried to go for the most valuable. ""}",,,,,,,,,,,,,,,,,,,,,,,,,,,,
414,,debreif_strategy_old_trials,,survey-text,414,581707,0.0-10.0,0,0,44248,,16960.0,"{""Q0"":""I remembered which ones were more valuable. ""}",,,,,,,,,,,,,,,,,,,,,,,,,,,,
415,,debreif_strategy_category_memory,,survey-text,415,595609,0.0-11.0,0,0,44248,,13901.0,"{""Q0"":""From what I remembered it being about""}",,,,,,,,,,,,,,,,,,,,,,,,,,,,
416,,debreif_strategy_size,,survey-text,416,608099,0.0-12.0,0,0,44248,,12489.0,"{""Q0"":""Which one was bigger in real life""}",,,,,,,,,,,,,,,,,,,,,,,,,,,,
417,,debreif_strategy_rl,,survey-text,417,624093,0.0-13.0,0,0,44248,,15993.0,"{""Q0"":""I tried out them all until I saw which made me more money. ""}",,,,,,,,,,,,,,,,,,,,,,,,,,,,
418,,debreif_clear_instructions,,survey-text,418,627841,0.0-14.0,0,0,44248,,3747.0,"{""Q0"":""No""}",,,,,,,,,,,,,,,,,,,,,,,,,,,,
419,,debreif_end,,html-keyboard-response,419,631445,0.0-15.0,0,0,44248,,3603.0,,,32.0,,,,,,,,,,,,,,,,,,,,,,,,,,
