,success,ttype,start_time,trial_type,trial_index,time_elapsed,internal_node_id,warning,missed_checkup,PID,view_history,rt,responses,repeat_instructions,key_press,index,trial_num,block,condition,iti,isi,high_group_on_left,left_group_value,right_group_value,left_item_value,right_item_value,left_img,right_img,left_img_path,right_img_path,left_chosen,chosen_group_value,unchosen_group_value,chosen_item_value,unchosen_item_value,chosen_img,unchosen_img,onset,duration,no_response,total_bonus_tally
0,True,full_screen,d06032022hr1618,fullscreen,0,2872,0.0-0.0,0,0,58537,,,,,,,,,,,,,,,,,,,,,,,,,,,,,,,
1,,size_instructions,,instructions,1,12583,0.0-1.0-0.0-0.0,0,0,58537,"[{""page_index"":0,""viewing_time"":1882},{""page_index"":1,""viewing_time"":1151},{""page_index"":2,""viewing_time"":856},{""page_index"":3,""viewing_time"":865},{""page_index"":4,""viewing_time"":4064},{""page_index"":5,""viewing_time"":888}]",9708.0,,,,,,,,,,,,,,,,,,,,,,,,,,,,,
2,,rl_comprehension_check,,survey-multi-choice,2,19939,0.0-1.0-0.0-1.0,0,0,58537,,7348.0,"{""Q0"":""False"",""Q1"":""True"",""Q2"":""D for left and K for right""}",1.0,,,,,,,,,,,,,,,,,,,,,,,,,,,
3,,missed_instruction_checkup,,html-keyboard-response,3,22351,0.0-1.0-0.0-2.0-0.0,0,0,58537,,2407.0,,,68.0,,,,,,,,,,,,,,,,,,,,,,,,,,
4,,size_instructions,,instructions,4,39542,0.0-1.0-0.1-0.1,0,0,58537,"[{""page_index"":0,""viewing_time"":6563},{""page_index"":1,""viewing_time"":4689},{""page_index"":2,""viewing_time"":2105},{""page_index"":3,""viewing_time"":2390},{""page_index"":4,""viewing_time"":818},{""page_index"":5,""viewing_time"":623}]",17189.0,,,,,,,,,,,,,,,,,,,,,,,,,,,,,
5,,rl_comprehension_check,,survey-multi-choice,5,46424,0.0-1.0-0.1-1.1,0,0,58537,,6878.0,"{""Q0"":""True"",""Q1"":""False"",""Q2"":""D for left and K for right""}",1.0,,,,,,,,,,,,,,,,,,,,,,,,,,,
6,,missed_instruction_checkup,,html-keyboard-response,6,50921,0.0-1.0-0.1-2.1-0.1,0,0,58537,,4494.0,,,68.0,,,,,,,,,,,,,,,,,,,,,,,,,,
7,,size_instructions,,instructions,7,55551,0.0-1.0-0.2-0.2,0,0,58537,"[{""page_index"":0,""viewing_time"":2836},{""page_index"":1,""viewing_time"":382},{""page_index"":2,""viewing_time"":437},{""page_index"":3,""viewing_time"":221},{""page_index"":4,""viewing_time"":162},{""page_index"":5,""viewing_time"":590}]",4629.0,,,,,,,,,,,,,,,,,,,,,,,,,,,,,
8,,rl_comprehension_check,,survey-multi-choice,8,59618,0.0-1.0-0.2-1.2,0,0,58537,,4060.0,"{""Q0"":""False"",""Q1"":""True"",""Q2"":""D for left and K for right""}",1.0,,,,,,,,,,,,,,,,,,,,,,,,,,,
9,,missed_instruction_checkup,,html-keyboard-response,9,61152,0.0-1.0-0.2-2.2-0.2,0,0,58537,,1531.0,,,68.0,,,,,,,,,,,,,,,,,,,,,,,,,,
10,,size_instructions,,instructions,10,65967,0.0-1.0-0.3-0.3,0,0,58537,"[{""page_index"":0,""viewing_time"":2718},{""page_index"":1,""viewing_time"":999},{""page_index"":2,""viewing_time"":287},{""page_index"":3,""viewing_time"":250},{""page_index"":4,""viewing_time"":256},{""page_index"":5,""viewing_time"":302}]",4813.0,,,,,,,,,,,,,,,,,,,,,,,,,,,,,
11,,rl_comprehension_check,,survey-multi-choice,11,70721,0.0-1.0-0.3-1.3,0,0,58537,,4747.0,"{""Q0"":""True"",""Q1"":""True"",""Q2"":""""}",1.0,,,,,,,,,,,,,,,,,,,,,,,,,,,
12,,missed_instruction_checkup,,html-keyboard-response,12,72471,0.0-1.0-0.3-2.3-0.3,0,0,58537,,1748.0,,,68.0,,,,,,,,,,,,,,,,,,,,,,,,,,
13,,size_instructions,,instructions,13,76614,0.0-1.0-0.4-0.4,0,0,58537,"[{""page_index"":0,""viewing_time"":2320},{""page_index"":1,""viewing_time"":263},{""page_index"":2,""viewing_time"":456},{""page_index"":3,""viewing_time"":200},{""page_index"":4,""viewing_time"":271},{""page_index"":5,""viewing_time"":631}]",4142.0,,,,,,,,,,,,,,,,,,,,,,,,,,,,,
14,,rl_comprehension_check,,survey-multi-choice,14,82091,0.0-1.0-0.4-1.4,0,0,58537,,5471.0,"{""Q0"":""True"",""Q1"":""True"",""Q2"":""D for left and K for right""}",0.0,,,,,,,,,,,,,,,,,,,,,,,,,,,
15,,,,html-keyboard-response,15,83442,0.0-1.0-1.0,0,0,58537,,1347.0,,,68.0,,,,,,,,,,,,,,,,,,,,,,,,,,
16,,rl_choice,,html-keyboard-response,16,84686,0.0-1.0-2.0,0,0,58537,,1241.0,,,68.0,0.0,0.0,1.0,hard,3500.0,2000.0,1.0,60.0,40.0,80.0,40.0,A,B,/static/Simple_RL/Stimuli/Fractals_stims/A.jpg,/static/Simple_RL/Stimuli/Fractals_stims/B.jpg,1.0,60.0,40.0,80.0,40.0,A,B,1.241,1.241,0.0,
17,,rl_choice_confirmation,,html-keyboard-response,17,84949,0.0-1.0-3.0-0.0,0,0,58537,,,,,,0.0,,,,,,,,,,,,,,,,,,,,,,1.5,0.259,,
18,,isi,,html-keyboard-response,18,86960,0.0-1.0-5.0,0,0,58537,,,,,,,,,,,,,,,,,,,,,,,,,,,,3.5,2.0,,
19,,feedback,,html-keyboard-response,19,87965,0.0-1.0-6.0-0.0,0,0,58537,,,,,,0.0,,,,,,,,,,,,,,,,,,,,,,4.5,1.0,,
20,,iti,,html-keyboard-response,20,91477,0.0-1.0-7.0,0,0,58537,,,,,,,,,,,,,,,,,,,,,,,,,,,,8.0,3.5,,
21,,rl_choice,,html-keyboard-response,21,92980,0.0-1.0-9.0,0,0,58537,,,,,,1.0,1.0,1.0,hard,1000.0,2000.0,1.0,60.0,40.0,80.0,20.0,A,B,/static/Simple_RL/Stimuli/Fractals_stims/A.jpg,/static/Simple_RL/Stimuli/Fractals_stims/B.jpg,,,,,,,,9.5,1.5,1.0,
22,,rl_choice_warning,,html-keyboard-response,22,93985,0.0-1.0-11.0-0.0,0,0,58537,,,,,,,,,,,,,,,,,,,,,,,,,,,,10.5,1.0,,
23,,isi,,html-keyboard-response,23,95988,0.0-1.0-12.0,0,0,58537,,,,,,,,,,,,,,,,,,,,,,,,,,,,12.5,2.0,,
24,,iti,,html-keyboard-response,24,96991,0.0-1.0-14.0,0,0,58537,,,,,,,,,,,,,,,,,,,,,,,,,,,,13.5,1.0,,
25,,rl_choice,,html-keyboard-response,25,98494,0.0-1.0-16.0,0,0,58537,,,,,,2.0,2.0,1.0,easy,2000.0,2000.0,0.0,20.0,80.0,40.0,100.0,D,C,/static/Simple_RL/Stimuli/Fractals_stims/D.jpg,/static/Simple_RL/Stimuli/Fractals_stims/C.jpg,,,,,,,,15.0,1.5,1.0,
26,,rl_choice_warning,,html-keyboard-response,26,99496,0.0-1.0-18.0-0.0,0,0,58537,,,,,,,,,,,,,,,,,,,,,,,,,,,,16.0,1.0,,
27,,isi,,html-keyboard-response,27,101499,0.0-1.0-19.0,0,0,58537,,,,,,,,,,,,,,,,,,,,,,,,,,,,18.0,2.0,,
28,,iti,,html-keyboard-response,28,103503,0.0-1.0-21.0,0,0,58537,,,,,,,,,,,,,,,,,,,,,,,,,,,,20.0,2.0,,
29,,rl_choice,,html-keyboard-response,29,104813,0.0-1.0-23.0,0,0,58537,,1307.0,,,68.0,3.0,3.0,1.0,hard,1500.0,1000.0,0.0,40.0,60.0,20.0,60.0,B,A,/static/Simple_RL/Stimuli/Fractals_stims/B.jpg,/static/Simple_RL/Stimuli/Fractals_stims/A.jpg,1.0,40.0,60.0,20.0,60.0,B,A,21.307,1.307,0.0,
30,,rl_choice_confirmation,,html-keyboard-response,30,105011,0.0-1.0-24.0-0.0,0,0,58537,,,,,,3.0,,,,,,,,,,,,,,,,,,,,,,21.5,0.193,,
31,,isi,,html-keyboard-response,31,106014,0.0-1.0-26.0,0,0,58537,,,,,,,,,,,,,,,,,,,,,,,,,,,,22.5,1.0,,
32,,feedback,,html-keyboard-response,32,107019,0.0-1.0-27.0-0.0,0,0,58537,,,,,,3.0,,,,,,,,,,,,,,,,,,,,,,23.5,1.0,,
33,,iti,,html-keyboard-response,33,108522,0.0-1.0-28.0,0,0,58537,,,,,,,,,,,,,,,,,,,,,,,,,,,,25.0,1.5,,
34,,rl_choice,,html-keyboard-response,34,110026,0.0-1.0-30.0,0,0,58537,,,,,,4.0,4.0,1.0,hard,1500.0,3000.0,0.0,40.0,60.0,40.0,60.0,B,A,/static/Simple_RL/Stimuli/Fractals_stims/B.jpg,/static/Simple_RL/Stimuli/Fractals_stims/A.jpg,,,,,,,,26.5,1.5,1.0,
35,,rl_choice_warning,,html-keyboard-response,35,111028,0.0-1.0-32.0-0.0,0,0,58537,,,,,,,,,,,,,,,,,,,,,,,,,,,,27.5,1.0,,
36,,isi,,html-keyboard-response,36,114030,0.0-1.0-33.0,0,0,58537,,,,,,,,,,,,,,,,,,,,,,,,,,,,30.5,3.0,,
37,,iti,,html-keyboard-response,37,115535,0.0-1.0-35.0,0,0,58537,,,,,,,,,,,,,,,,,,,,,,,,,,,,32.0,1.5,,
38,,rl_choice,,html-keyboard-response,38,117002,0.0-1.0-37.0,0,0,58537,,1464.0,,,68.0,5.0,5.0,1.0,easy,1500.0,1500.0,1.0,80.0,20.0,80.0,0.0,C,D,/static/Simple_RL/Stimuli/Fractals_stims/C.jpg,/static/Simple_RL/Stimuli/Fractals_stims/D.jpg,1.0,80.0,20.0,80.0,0.0,C,D,33.464,1.464,0.0,
39,,rl_choice_confirmation,,html-keyboard-response,39,117041,0.0-1.0-38.0-0.0,0,0,58537,,,,,,5.0,,,,,,,,,,,,,,,,,,,,,,33.5,0.036,,
40,,isi,,html-keyboard-response,40,118546,0.0-1.0-40.0,0,0,58537,,,,,,,,,,,,,,,,,,,,,,,,,,,,35.0,1.5,,
41,,feedback,,html-keyboard-response,41,119550,0.0-1.0-41.0-0.0,0,0,58537,,,,,,5.0,,,,,,,,,,,,,,,,,,,,,,36.0,1.0,,
42,,iti,,html-keyboard-response,42,121054,0.0-1.0-42.0,0,0,58537,,,,,,,,,,,,,,,,,,,,,,,,,,,,37.5,1.5,,
43,,rl_choice,,html-keyboard-response,43,122557,0.0-1.0-44.0,0,0,58537,,,,,,6.0,6.0,1.0,easy,1000.0,1000.0,1.0,80.0,20.0,60.0,40.0,C,D,/static/Simple_RL/Stimuli/Fractals_stims/C.jpg,/static/Simple_RL/Stimuli/Fractals_stims/D.jpg,,,,,,,,39.0,1.5,1.0,
44,,rl_choice_warning,,html-keyboard-response,44,123560,0.0-1.0-46.0-0.0,0,0,58537,,,,,,,,,,,,,,,,,,,,,,,,,,,,40.0,1.0,,
45,,isi,,html-keyboard-response,45,124621,0.0-1.0-47.0,0,0,58537,,,,,,,,,,,,,,,,,,,,,,,,,,,,41.0,1.0,,
46,,iti,,html-keyboard-response,46,125624,0.0-1.0-49.0,0,0,58537,,,,,,,,,,,,,,,,,,,,,,,,,,,,42.0,1.0,,
47,,rl_choice,,html-keyboard-response,47,125716,0.0-1.0-51.0,0,0,58537,,89.0,,,68.0,7.0,7.0,1.0,easy,3000.0,2000.0,0.0,20.0,80.0,0.0,80.0,D,C,/static/Simple_RL/Stimuli/Fractals_stims/D.jpg,/static/Simple_RL/Stimuli/Fractals_stims/C.jpg,1.0,20.0,80.0,0.0,80.0,D,C,42.089,0.089,0.0,
48,,rl_choice_confirmation,,html-keyboard-response,48,127131,0.0-1.0-52.0-0.0,0,0,58537,,,,,,7.0,,,,,,,,,,,,,,,,,,,,,,43.5,1.411,,
49,,isi,,html-keyboard-response,49,129133,0.0-1.0-54.0,0,0,58537,,,,,,,,,,,,,,,,,,,,,,,,,,,,45.5,2.0,,
50,,feedback,,html-keyboard-response,50,130141,0.0-1.0-55.0-0.0,0,0,58537,,,,,,7.0,,,,,,,,,,,,,,,,,,,,,,46.5,1.0,,
51,,iti,,html-keyboard-response,51,133147,0.0-1.0-56.0,0,0,58537,,,,,,,,,,,,,,,,,,,,,,,,,,,,49.5,3.0,,
52,,rl_choice,,html-keyboard-response,52,133856,0.0-1.0-58.0,0,0,58537,,706.0,,,68.0,8.0,8.0,1.0,hard,2000.0,3500.0,0.0,40.0,60.0,40.0,60.0,B,A,/static/Simple_RL/Stimuli/Fractals_stims/B.jpg,/static/Simple_RL/Stimuli/Fractals_stims/A.jpg,1.0,40.0,60.0,40.0,60.0,B,A,50.206,0.706,0.0,
53,,rl_choice_confirmation,,html-keyboard-response,53,134655,0.0-1.0-59.0-0.0,0,0,58537,,,,,,8.0,,,,,,,,,,,,,,,,,,,,,,51.0,0.794,,
54,,isi,,html-keyboard-response,54,138158,0.0-1.0-61.0,0,0,58537,,,,,,,,,,,,,,,,,,,,,,,,,,,,54.5,3.5,,
55,,feedback,,html-keyboard-response,55,139162,0.0-1.0-62.0-0.0,0,0,58537,,,,,,8.0,,,,,,,,,,,,,,,,,,,,,,55.5,1.0,,
56,,iti,,html-keyboard-response,56,141165,0.0-1.0-63.0,0,0,58537,,,,,,,,,,,,,,,,,,,,,,,,,,,,57.5,2.0,,
57,,rl_choice,,html-keyboard-response,57,142670,0.0-1.0-65.0,0,0,58537,,,,,,9.0,9.0,1.0,hard,2000.0,1000.0,1.0,60.0,40.0,60.0,20.0,A,B,/static/Simple_RL/Stimuli/Fractals_stims/A.jpg,/static/Simple_RL/Stimuli/Fractals_stims/B.jpg,,,,,,,,59.0,1.5,1.0,
58,,rl_choice_warning,,html-keyboard-response,58,143673,0.0-1.0-67.0-0.0,0,0,58537,,,,,,,,,,,,,,,,,,,,,,,,,,,,60.0,1.0,,
59,,isi,,html-keyboard-response,59,144675,0.0-1.0-68.0,0,0,58537,,,,,,,,,,,,,,,,,,,,,,,,,,,,61.0,1.0,,
60,,iti,,html-keyboard-response,60,146679,0.0-1.0-70.0,0,0,58537,,,,,,,,,,,,,,,,,,,,,,,,,,,,63.0,2.0,,
61,,rl_choice,,html-keyboard-response,61,148182,0.0-1.0-72.0,0,0,58537,,,,,,10.0,10.0,1.0,easy,1000.0,1000.0,0.0,20.0,80.0,0.0,80.0,D,C,/static/Simple_RL/Stimuli/Fractals_stims/D.jpg,/static/Simple_RL/Stimuli/Fractals_stims/C.jpg,,,,,,,,64.5,1.5,1.0,
62,,rl_choice_warning,,html-keyboard-response,62,149185,0.0-1.0-74.0-0.0,0,0,58537,,,,,,,,,,,,,,,,,,,,,,,,,,,,65.5,1.0,,
63,,isi,,html-keyboard-response,63,150188,0.0-1.0-75.0,0,0,58537,,,,,,,,,,,,,,,,,,,,,,,,,,,,66.5,1.0,,
64,,iti,,html-keyboard-response,64,151191,0.0-1.0-77.0,0,0,58537,,,,,,,,,,,,,,,,,,,,,,,,,,,,67.5,1.0,,
65,,rl_choice,,html-keyboard-response,65,152693,0.0-1.0-79.0,0,0,58537,,,,,,11.0,11.0,1.0,hard,1000.0,2000.0,0.0,40.0,60.0,40.0,60.0,B,A,/static/Simple_RL/Stimuli/Fractals_stims/B.jpg,/static/Simple_RL/Stimuli/Fractals_stims/A.jpg,,,,,,,,69.0,1.5,1.0,
66,,rl_choice_warning,,html-keyboard-response,66,153696,0.0-1.0-81.0-0.0,0,0,58537,,,,,,,,,,,,,,,,,,,,,,,,,,,,70.0,1.0,,
67,,isi,,html-keyboard-response,67,155699,0.0-1.0-82.0,0,0,58537,,,,,,,,,,,,,,,,,,,,,,,,,,,,72.0,2.0,,
68,,iti,,html-keyboard-response,68,156702,0.0-1.0-84.0,0,0,58537,,,,,,,,,,,,,,,,,,,,,,,,,,,,73.0,1.0,,
69,,rl_choice,,html-keyboard-response,69,158206,0.0-1.0-86.0,0,0,58537,,,,,,12.0,12.0,1.0,hard,1000.0,1000.0,0.0,40.0,60.0,60.0,80.0,B,A,/static/Simple_RL/Stimuli/Fractals_stims/B.jpg,/static/Simple_RL/Stimuli/Fractals_stims/A.jpg,,,,,,,,74.5,1.5,1.0,
70,,rl_choice_warning,,html-keyboard-response,70,159210,0.0-1.0-88.0-0.0,0,0,58537,,,,,,,,,,,,,,,,,,,,,,,,,,,,75.5,1.0,,
71,,isi,,html-keyboard-response,71,160213,0.0-1.0-89.0,0,0,58537,,,,,,,,,,,,,,,,,,,,,,,,,,,,76.5,1.0,,
72,,iti,,html-keyboard-response,72,161216,0.0-1.0-91.0,0,0,58537,,,,,,,,,,,,,,,,,,,,,,,,,,,,77.5,1.0,,
73,,rl_choice,,html-keyboard-response,73,162726,0.0-1.0-93.0,0,0,58537,,,,,,13.0,13.0,1.0,hard,3000.0,1500.0,1.0,60.0,40.0,40.0,60.0,A,B,/static/Simple_RL/Stimuli/Fractals_stims/A.jpg,/static/Simple_RL/Stimuli/Fractals_stims/B.jpg,,,,,,,,79.0,1.5,1.0,
74,,rl_choice_warning,,html-keyboard-response,74,163731,0.0-1.0-95.0-0.0,0,0,58537,,,,,,,,,,,,,,,,,,,,,,,,,,,,80.0,1.0,,
75,,isi,,html-keyboard-response,75,165235,0.0-1.0-96.0,0,0,58537,,,,,,,,,,,,,,,,,,,,,,,,,,,,81.5,1.5,,
76,,iti,,html-keyboard-response,76,168238,0.0-1.0-98.0,0,0,58537,,,,,,,,,,,,,,,,,,,,,,,,,,,,84.5,3.0,,
77,,rl_choice,,html-keyboard-response,77,169742,0.0-1.0-100.0,0,0,58537,,,,,,14.0,14.0,1.0,easy,1500.0,1000.0,1.0,80.0,20.0,100.0,40.0,C,D,/static/Simple_RL/Stimuli/Fractals_stims/C.jpg,/static/Simple_RL/Stimuli/Fractals_stims/D.jpg,,,,,,,,86.0,1.5,1.0,
78,,rl_choice_warning,,html-keyboard-response,78,170745,0.0-1.0-102.0-0.0,0,0,58537,,,,,,,,,,,,,,,,,,,,,,,,,,,,87.0,1.0,,
79,,isi,,html-keyboard-response,79,171748,0.0-1.0-103.0,0,0,58537,,,,,,,,,,,,,,,,,,,,,,,,,,,,88.0,1.0,,
80,,iti,,html-keyboard-response,80,173251,0.0-1.0-105.0,0,0,58537,,,,,,,,,,,,,,,,,,,,,,,,,,,,89.5,1.5,,
81,,rl_choice,,html-keyboard-response,81,174755,0.0-1.0-107.0,0,0,58537,,,,,,15.0,15.0,1.0,hard,1000.0,3000.0,1.0,60.0,40.0,60.0,60.0,A,B,/static/Simple_RL/Stimuli/Fractals_stims/A.jpg,/static/Simple_RL/Stimuli/Fractals_stims/B.jpg,,,,,,,,91.0,1.5,1.0,
82,,rl_choice_warning,,html-keyboard-response,82,175759,0.0-1.0-109.0-0.0,0,0,58537,,,,,,,,,,,,,,,,,,,,,,,,,,,,92.0,1.0,,
83,,isi,,html-keyboard-response,83,178762,0.0-1.0-110.0,0,0,58537,,,,,,,,,,,,,,,,,,,,,,,,,,,,95.0,3.0,,
84,,iti,,html-keyboard-response,84,179765,0.0-1.0-112.0,0,0,58537,,,,,,,,,,,,,,,,,,,,,,,,,,,,96.0,1.0,,
85,,rl_choice,,html-keyboard-response,85,181270,0.0-1.0-114.0,0,0,58537,,,,,,16.0,16.0,1.0,hard,1500.0,1000.0,1.0,60.0,40.0,60.0,40.0,A,B,/static/Simple_RL/Stimuli/Fractals_stims/A.jpg,/static/Simple_RL/Stimuli/Fractals_stims/B.jpg,,,,,,,,97.5,1.5,1.0,
86,,rl_choice_warning,,html-keyboard-response,86,182273,0.0-1.0-116.0-0.0,0,0,58537,,,,,,,,,,,,,,,,,,,,,,,,,,,,98.5,1.0,,
87,,isi,,html-keyboard-response,87,183276,0.0-1.0-117.0,0,0,58537,,,,,,,,,,,,,,,,,,,,,,,,,,,,99.5,1.0,,
88,,iti,,html-keyboard-response,88,184780,0.0-1.0-119.0,0,0,58537,,,,,,,,,,,,,,,,,,,,,,,,,,,,101.0,1.5,,
89,,rl_choice,,html-keyboard-response,89,186284,0.0-1.0-121.0,0,0,58537,,,,,,17.0,17.0,1.0,easy,2000.0,2000.0,1.0,80.0,20.0,100.0,40.0,C,D,/static/Simple_RL/Stimuli/Fractals_stims/C.jpg,/static/Simple_RL/Stimuli/Fractals_stims/D.jpg,,,,,,,,102.5,1.5,1.0,
90,,rl_choice_warning,,html-keyboard-response,90,187288,0.0-1.0-123.0-0.0,0,0,58537,,,,,,,,,,,,,,,,,,,,,,,,,,,,103.5,1.0,,
91,,isi,,html-keyboard-response,91,189291,0.0-1.0-124.0,0,0,58537,,,,,,,,,,,,,,,,,,,,,,,,,,,,105.5,2.0,,
92,,iti,,html-keyboard-response,92,191295,0.0-1.0-126.0,0,0,58537,,,,,,,,,,,,,,,,,,,,,,,,,,,,107.5,2.0,,
93,,rl_choice,,html-keyboard-response,93,192798,0.0-1.0-128.0,0,0,58537,,,,,,18.0,18.0,1.0,hard,1000.0,1500.0,1.0,60.0,40.0,80.0,60.0,A,B,/static/Simple_RL/Stimuli/Fractals_stims/A.jpg,/static/Simple_RL/Stimuli/Fractals_stims/B.jpg,,,,,,,,109.0,1.5,1.0,
94,,rl_choice_warning,,html-keyboard-response,94,193801,0.0-1.0-130.0-0.0,0,0,58537,,,,,,,,,,,,,,,,,,,,,,,,,,,,110.0,1.0,,
95,,isi,,html-keyboard-response,95,195304,0.0-1.0-131.0,0,0,58537,,,,,,,,,,,,,,,,,,,,,,,,,,,,111.5,1.5,,
96,,iti,,html-keyboard-response,96,196309,0.0-1.0-133.0,0,0,58537,,,,,,,,,,,,,,,,,,,,,,,,,,,,112.5,1.0,,
97,,rl_choice,,html-keyboard-response,97,197814,0.0-1.0-135.0,0,0,58537,,,,,,19.0,19.0,1.0,hard,1000.0,1000.0,1.0,60.0,40.0,60.0,20.0,A,B,/static/Simple_RL/Stimuli/Fractals_stims/A.jpg,/static/Simple_RL/Stimuli/Fractals_stims/B.jpg,,,,,,,,114.0,1.5,1.0,
98,,rl_choice_warning,,html-keyboard-response,98,198817,0.0-1.0-137.0-0.0,0,0,58537,,,,,,,,,,,,,,,,,,,,,,,,,,,,115.0,1.0,,
99,,isi,,html-keyboard-response,99,199820,0.0-1.0-138.0,0,0,58537,,,,,,,,,,,,,,,,,,,,,,,,,,,,116.0,1.0,,
100,,iti,,html-keyboard-response,100,200822,0.0-1.0-140.0,0,0,58537,,,,,,,,,,,,,,,,,,,,,,,,,,,,117.0,1.0,,
101,,rl_choice,,html-keyboard-response,101,202328,0.0-1.0-142.0,0,0,58537,,,,,,20.0,20.0,1.0,easy,1000.0,1000.0,0.0,20.0,80.0,0.0,60.0,D,C,/static/Simple_RL/Stimuli/Fractals_stims/D.jpg,/static/Simple_RL/Stimuli/Fractals_stims/C.jpg,,,,,,,,118.5,1.5,1.0,
102,,rl_choice_warning,,html-keyboard-response,102,203330,0.0-1.0-144.0-0.0,0,0,58537,,,,,,,,,,,,,,,,,,,,,,,,,,,,119.5,1.0,,
103,,isi,,html-keyboard-response,103,204336,0.0-1.0-145.0,0,0,58537,,,,,,,,,,,,,,,,,,,,,,,,,,,,120.5,1.0,,
104,,iti,,html-keyboard-response,104,205338,0.0-1.0-147.0,0,0,58537,,,,,,,,,,,,,,,,,,,,,,,,,,,,121.5,1.0,,
105,,rl_choice,,html-keyboard-response,105,206842,0.0-1.0-149.0,0,0,58537,,,,,,21.0,21.0,1.0,easy,2000.0,1500.0,1.0,80.0,20.0,60.0,20.0,C,D,/static/Simple_RL/Stimuli/Fractals_stims/C.jpg,/static/Simple_RL/Stimuli/Fractals_stims/D.jpg,,,,,,,,123.0,1.5,1.0,
106,,rl_choice_warning,,html-keyboard-response,106,207846,0.0-1.0-151.0-0.0,0,0,58537,,,,,,,,,,,,,,,,,,,,,,,,,,,,124.0,1.0,,
107,,isi,,html-keyboard-response,107,209349,0.0-1.0-152.0,0,0,58537,,,,,,,,,,,,,,,,,,,,,,,,,,,,125.5,1.5,,
108,,iti,,html-keyboard-response,108,211352,0.0-1.0-154.0,0,0,58537,,,,,,,,,,,,,,,,,,,,,,,,,,,,127.5,2.0,,
109,,rl_choice,,html-keyboard-response,109,212856,0.0-1.0-156.0,0,0,58537,,,,,,22.0,22.0,1.0,easy,1000.0,1000.0,1.0,80.0,20.0,100.0,0.0,C,D,/static/Simple_RL/Stimuli/Fractals_stims/C.jpg,/static/Simple_RL/Stimuli/Fractals_stims/D.jpg,,,,,,,,129.0,1.5,1.0,
110,,rl_choice_warning,,html-keyboard-response,110,213859,0.0-1.0-158.0-0.0,0,0,58537,,,,,,,,,,,,,,,,,,,,,,,,,,,,130.0,1.0,,
111,,isi,,html-keyboard-response,111,214862,0.0-1.0-159.0,0,0,58537,,,,,,,,,,,,,,,,,,,,,,,,,,,,131.0,1.0,,
112,,iti,,html-keyboard-response,112,215866,0.0-1.0-161.0,0,0,58537,,,,,,,,,,,,,,,,,,,,,,,,,,,,132.0,1.0,,
113,,rl_choice,,html-keyboard-response,113,217370,0.0-1.0-163.0,0,0,58537,,,,,,23.0,23.0,1.0,easy,1500.0,3000.0,1.0,80.0,20.0,80.0,20.0,C,D,/static/Simple_RL/Stimuli/Fractals_stims/C.jpg,/static/Simple_RL/Stimuli/Fractals_stims/D.jpg,,,,,,,,133.5,1.5,1.0,
114,,rl_choice_warning,,html-keyboard-response,114,218374,0.0-1.0-165.0-0.0,0,0,58537,,,,,,,,,,,,,,,,,,,,,,,,,,,,134.5,1.0,,
115,,isi,,html-keyboard-response,115,221377,0.0-1.0-166.0,0,0,58537,,,,,,,,,,,,,,,,,,,,,,,,,,,,137.5,3.0,,
116,,iti,,html-keyboard-response,116,222884,0.0-1.0-168.0,0,0,58537,,,,,,,,,,,,,,,,,,,,,,,,,,,,139.0,1.5,,
117,,rl_choice,,html-keyboard-response,117,224391,0.0-1.0-170.0,0,0,58537,,,,,,24.0,24.0,1.0,hard,2000.0,1500.0,0.0,40.0,60.0,40.0,60.0,B,A,/static/Simple_RL/Stimuli/Fractals_stims/B.jpg,/static/Simple_RL/Stimuli/Fractals_stims/A.jpg,,,,,,,,140.5,1.5,1.0,
118,,rl_choice_warning,,html-keyboard-response,118,225401,0.0-1.0-172.0-0.0,0,0,58537,,,,,,,,,,,,,,,,,,,,,,,,,,,,141.5,1.0,,
119,,isi,,html-keyboard-response,119,226962,0.0-1.0-173.0,0,0,58537,,,,,,,,,,,,,,,,,,,,,,,,,,,,143.0,1.5,,
120,,iti,,html-keyboard-response,120,228965,0.0-1.0-175.0,0,0,58537,,,,,,,,,,,,,,,,,,,,,,,,,,,,145.0,2.0,,
121,,rl_choice,,html-keyboard-response,121,230468,0.0-1.0-177.0,0,0,58537,,,,,,25.0,25.0,1.0,hard,3000.0,1500.0,1.0,60.0,40.0,40.0,40.0,A,B,/static/Simple_RL/Stimuli/Fractals_stims/A.jpg,/static/Simple_RL/Stimuli/Fractals_stims/B.jpg,,,,,,,,146.5,1.5,1.0,
122,,rl_choice_warning,,html-keyboard-response,122,231471,0.0-1.0-179.0-0.0,0,0,58537,,,,,,,,,,,,,,,,,,,,,,,,,,,,147.5,1.0,,
123,,isi,,html-keyboard-response,123,232975,0.0-1.0-180.0,0,0,58537,,,,,,,,,,,,,,,,,,,,,,,,,,,,149.0,1.5,,
124,,iti,,html-keyboard-response,124,235980,0.0-1.0-182.0,0,0,58537,,,,,,,,,,,,,,,,,,,,,,,,,,,,152.0,3.0,,
125,,rl_choice,,html-keyboard-response,125,237484,0.0-1.0-184.0,0,0,58537,,,,,,26.0,26.0,1.0,hard,1000.0,2000.0,0.0,40.0,60.0,40.0,80.0,B,A,/static/Simple_RL/Stimuli/Fractals_stims/B.jpg,/static/Simple_RL/Stimuli/Fractals_stims/A.jpg,,,,,,,,153.5,1.5,1.0,
126,,rl_choice_warning,,html-keyboard-response,126,238500,0.0-1.0-186.0-0.0,0,0,58537,,,,,,,,,,,,,,,,,,,,,,,,,,,,154.5,1.0,,
127,,isi,,html-keyboard-response,127,240503,0.0-1.0-187.0,0,0,58537,,,,,,,,,,,,,,,,,,,,,,,,,,,,156.5,2.0,,
128,,iti,,html-keyboard-response,128,241506,0.0-1.0-189.0,0,0,58537,,,,,,,,,,,,,,,,,,,,,,,,,,,,157.5,1.0,,
129,,rl_choice,,html-keyboard-response,129,243015,0.0-1.0-191.0,0,0,58537,,,,,,27.0,27.0,1.0,easy,3000.0,1000.0,1.0,80.0,20.0,80.0,40.0,C,D,/static/Simple_RL/Stimuli/Fractals_stims/C.jpg,/static/Simple_RL/Stimuli/Fractals_stims/D.jpg,,,,,,,,159.0,1.5,1.0,
130,,rl_choice_warning,,html-keyboard-response,130,244023,0.0-1.0-193.0-0.0,0,0,58537,,,,,,,,,,,,,,,,,,,,,,,,,,,,160.0,1.0,,
131,,isi,,html-keyboard-response,131,245026,0.0-1.0-194.0,0,0,58537,,,,,,,,,,,,,,,,,,,,,,,,,,,,161.0,1.0,,
132,,iti,,html-keyboard-response,132,248028,0.0-1.0-196.0,0,0,58537,,,,,,,,,,,,,,,,,,,,,,,,,,,,164.0,3.0,,
133,,rl_choice,,html-keyboard-response,133,249535,0.0-1.0-198.0,0,0,58537,,,,,,28.0,28.0,1.0,easy,1000.0,3500.0,1.0,80.0,20.0,60.0,20.0,C,D,/static/Simple_RL/Stimuli/Fractals_stims/C.jpg,/static/Simple_RL/Stimuli/Fractals_stims/D.jpg,,,,,,,,165.5,1.5,1.0,
134,,rl_choice_warning,,html-keyboard-response,134,250537,0.0-1.0-200.0-0.0,0,0,58537,,,,,,,,,,,,,,,,,,,,,,,,,,,,166.5,1.0,,
135,,isi,,html-keyboard-response,135,254042,0.0-1.0-201.0,0,0,58537,,,,,,,,,,,,,,,,,,,,,,,,,,,,170.0,3.5,,
136,,iti,,html-keyboard-response,136,255044,0.0-1.0-203.0,0,0,58537,,,,,,,,,,,,,,,,,,,,,,,,,,,,171.0,1.0,,
137,,rl_choice,,html-keyboard-response,137,256548,0.0-1.0-205.0,0,0,58537,,,,,,29.0,29.0,1.0,hard,1500.0,1000.0,0.0,40.0,60.0,60.0,40.0,B,A,/static/Simple_RL/Stimuli/Fractals_stims/B.jpg,/static/Simple_RL/Stimuli/Fractals_stims/A.jpg,,,,,,,,172.5,1.5,1.0,
138,,rl_choice_warning,,html-keyboard-response,138,257552,0.0-1.0-207.0-0.0,0,0,58537,,,,,,,,,,,,,,,,,,,,,,,,,,,,173.5,1.0,,
139,,isi,,html-keyboard-response,139,258554,0.0-1.0-208.0,0,0,58537,,,,,,,,,,,,,,,,,,,,,,,,,,,,174.5,1.0,,
140,,iti,,html-keyboard-response,140,260057,0.0-1.0-210.0,0,0,58537,,,,,,,,,,,,,,,,,,,,,,,,,,,,176.0,1.5,,
141,,rl_choice,,html-keyboard-response,141,261560,0.0-1.0-212.0,0,0,58537,,,,,,30.0,30.0,1.0,easy,1000.0,1500.0,1.0,80.0,20.0,100.0,20.0,C,D,/static/Simple_RL/Stimuli/Fractals_stims/C.jpg,/static/Simple_RL/Stimuli/Fractals_stims/D.jpg,,,,,,,,177.5,1.5,1.0,
142,,rl_choice_warning,,html-keyboard-response,142,262562,0.0-1.0-214.0-0.0,0,0,58537,,,,,,,,,,,,,,,,,,,,,,,,,,,,178.5,1.0,,
143,,isi,,html-keyboard-response,143,264066,0.0-1.0-215.0,0,0,58537,,,,,,,,,,,,,,,,,,,,,,,,,,,,180.0,1.5,,
144,,iti,,html-keyboard-response,144,265070,0.0-1.0-217.0,0,0,58537,,,,,,,,,,,,,,,,,,,,,,,,,,,,181.0,1.0,,
145,,rl_choice,,html-keyboard-response,145,266573,0.0-1.0-219.0,0,0,58537,,,,,,31.0,31.0,1.0,easy,2000.0,1500.0,0.0,20.0,80.0,40.0,100.0,D,C,/static/Simple_RL/Stimuli/Fractals_stims/D.jpg,/static/Simple_RL/Stimuli/Fractals_stims/C.jpg,,,,,,,,182.5,1.5,1.0,
146,,rl_choice_warning,,html-keyboard-response,146,267579,0.0-1.0-221.0-0.0,0,0,58537,,,,,,,,,,,,,,,,,,,,,,,,,,,,183.5,1.0,,
147,,isi,,html-keyboard-response,147,269082,0.0-1.0-222.0,0,0,58537,,,,,,,,,,,,,,,,,,,,,,,,,,,,185.0,1.5,,
148,,iti,,html-keyboard-response,148,271084,0.0-1.0-224.0,0,0,58537,,,,,,,,,,,,,,,,,,,,,,,,,,,,187.0,2.0,,
149,,rl_choice,,html-keyboard-response,149,272587,0.0-1.0-226.0,0,0,58537,,,,,,32.0,32.0,1.0,hard,1500.0,1000.0,0.0,40.0,60.0,40.0,80.0,B,A,/static/Simple_RL/Stimuli/Fractals_stims/B.jpg,/static/Simple_RL/Stimuli/Fractals_stims/A.jpg,,,,,,,,188.5,1.5,1.0,
150,,rl_choice_warning,,html-keyboard-response,150,273590,0.0-1.0-228.0-0.0,0,0,58537,,,,,,,,,,,,,,,,,,,,,,,,,,,,189.5,1.0,,
151,,isi,,html-keyboard-response,151,274593,0.0-1.0-229.0,0,0,58537,,,,,,,,,,,,,,,,,,,,,,,,,,,,190.5,1.0,,
152,,iti,,html-keyboard-response,152,276095,0.0-1.0-231.0,0,0,58537,,,,,,,,,,,,,,,,,,,,,,,,,,,,192.0,1.5,,
153,,rl_choice,,html-keyboard-response,153,277600,0.0-1.0-233.0,0,0,58537,,,,,,33.0,33.0,1.0,easy,1000.0,1000.0,0.0,20.0,80.0,40.0,100.0,D,C,/static/Simple_RL/Stimuli/Fractals_stims/D.jpg,/static/Simple_RL/Stimuli/Fractals_stims/C.jpg,,,,,,,,193.5,1.5,1.0,
154,,rl_choice_warning,,html-keyboard-response,154,278609,0.0-1.0-235.0-0.0,0,0,58537,,,,,,,,,,,,,,,,,,,,,,,,,,,,194.5,1.0,,
155,,isi,,html-keyboard-response,155,279612,0.0-1.0-236.0,0,0,58537,,,,,,,,,,,,,,,,,,,,,,,,,,,,195.5,1.0,,
156,,iti,,html-keyboard-response,156,280615,0.0-1.0-238.0,0,0,58537,,,,,,,,,,,,,,,,,,,,,,,,,,,,196.5,1.0,,
157,,rl_choice,,html-keyboard-response,157,282121,0.0-1.0-240.0,0,0,58537,,,,,,34.0,34.0,1.0,easy,3500.0,3000.0,1.0,80.0,20.0,80.0,40.0,C,D,/static/Simple_RL/Stimuli/Fractals_stims/C.jpg,/static/Simple_RL/Stimuli/Fractals_stims/D.jpg,,,,,,,,198.0,1.5,1.0,
158,,rl_choice_warning,,html-keyboard-response,158,283125,0.0-1.0-242.0-0.0,0,0,58537,,,,,,,,,,,,,,,,,,,,,,,,,,,,199.0,1.0,,
159,,isi,,html-keyboard-response,159,286129,0.0-1.0-243.0,0,0,58537,,,,,,,,,,,,,,,,,,,,,,,,,,,,202.0,3.0,,
160,,iti,,html-keyboard-response,160,289632,0.0-1.0-245.0,0,0,58537,,,,,,,,,,,,,,,,,,,,,,,,,,,,205.5,3.5,,
161,,rl_choice,,html-keyboard-response,161,291137,0.0-1.0-247.0,0,0,58537,,,,,,35.0,35.0,1.0,easy,1500.0,2000.0,1.0,80.0,20.0,60.0,40.0,C,D,/static/Simple_RL/Stimuli/Fractals_stims/C.jpg,/static/Simple_RL/Stimuli/Fractals_stims/D.jpg,,,,,,,,207.0,1.5,1.0,
162,,rl_choice_warning,,html-keyboard-response,162,292148,0.0-1.0-249.0-0.0,0,0,58537,,,,,,,,,,,,,,,,,,,,,,,,,,,,208.0,1.0,,
163,,isi,,html-keyboard-response,163,294151,0.0-1.0-250.0,0,0,58537,,,,,,,,,,,,,,,,,,,,,,,,,,,,210.0,2.0,,
164,,iti,,html-keyboard-response,164,295656,0.0-1.0-252.0,0,0,58537,,,,,,,,,,,,,,,,,,,,,,,,,,,,211.5,1.5,,
165,,rl_choice,,html-keyboard-response,165,297159,0.0-1.0-254.0,0,0,58537,,,,,,36.0,36.0,1.0,easy,1500.0,1500.0,0.0,20.0,80.0,20.0,100.0,D,C,/static/Simple_RL/Stimuli/Fractals_stims/D.jpg,/static/Simple_RL/Stimuli/Fractals_stims/C.jpg,,,,,,,,213.0,1.5,1.0,
166,,rl_choice_warning,,html-keyboard-response,166,298161,0.0-1.0-256.0-0.0,0,0,58537,,,,,,,,,,,,,,,,,,,,,,,,,,,,214.0,1.0,,
167,,isi,,html-keyboard-response,167,299665,0.0-1.0-257.0,0,0,58537,,,,,,,,,,,,,,,,,,,,,,,,,,,,215.5,1.5,,
168,,iti,,html-keyboard-response,168,301169,0.0-1.0-259.0,0,0,58537,,,,,,,,,,,,,,,,,,,,,,,,,,,,217.0,1.5,,
169,,rl_choice,,html-keyboard-response,169,302674,0.0-1.0-261.0,0,0,58537,,,,,,37.0,37.0,1.0,hard,2000.0,1000.0,1.0,60.0,40.0,60.0,40.0,A,B,/static/Simple_RL/Stimuli/Fractals_stims/A.jpg,/static/Simple_RL/Stimuli/Fractals_stims/B.jpg,,,,,,,,218.5,1.5,1.0,
170,,rl_choice_warning,,html-keyboard-response,170,303677,0.0-1.0-263.0-0.0,0,0,58537,,,,,,,,,,,,,,,,,,,,,,,,,,,,219.5,1.0,,
171,,isi,,html-keyboard-response,171,304681,0.0-1.0-264.0,0,0,58537,,,,,,,,,,,,,,,,,,,,,,,,,,,,220.5,1.0,,
172,,iti,,html-keyboard-response,172,306684,0.0-1.0-266.0,0,0,58537,,,,,,,,,,,,,,,,,,,,,,,,,,,,222.5,2.0,,
173,,rl_choice,,html-keyboard-response,173,308188,0.0-1.0-268.0,0,0,58537,,,,,,38.0,38.0,1.0,hard,1000.0,1500.0,0.0,40.0,60.0,20.0,40.0,B,A,/static/Simple_RL/Stimuli/Fractals_stims/B.jpg,/static/Simple_RL/Stimuli/Fractals_stims/A.jpg,,,,,,,,224.0,1.5,1.0,
174,,rl_choice_warning,,html-keyboard-response,174,309192,0.0-1.0-270.0-0.0,0,0,58537,,,,,,,,,,,,,,,,,,,,,,,,,,,,225.0,1.0,,
175,,isi,,html-keyboard-response,175,310694,0.0-1.0-271.0,0,0,58537,,,,,,,,,,,,,,,,,,,,,,,,,,,,226.5,1.5,,
176,,iti,,html-keyboard-response,176,311697,0.0-1.0-273.0,0,0,58537,,,,,,,,,,,,,,,,,,,,,,,,,,,,227.5,1.0,,
177,,rl_choice,,html-keyboard-response,177,313200,0.0-1.0-275.0,0,0,58537,,,,,,39.0,39.0,1.0,easy,1000.0,1000.0,0.0,20.0,80.0,0.0,60.0,D,C,/static/Simple_RL/Stimuli/Fractals_stims/D.jpg,/static/Simple_RL/Stimuli/Fractals_stims/C.jpg,,,,,,,,229.0,1.5,1.0,
178,,rl_choice_warning,,html-keyboard-response,178,314202,0.0-1.0-277.0-0.0,0,0,58537,,,,,,,,,,,,,,,,,,,,,,,,,,,,230.0,1.0,,
179,,isi,,html-keyboard-response,179,315204,0.0-1.0-278.0,0,0,58537,,,,,,,,,,,,,,,,,,,,,,,,,,,,231.0,1.0,,
180,,iti,,html-keyboard-response,180,316209,0.0-1.0-280.0,0,0,58537,,,,,,,,,,,,,,,,,,,,,,,,,,,,232.0,1.0,,
181,,block_over,,html-keyboard-response,181,341939,0.0-1.0-281.0-0.0,0,0,58537,,25728.0,,,68.0,39.0,,,,,,,,,,,,,,,,,,,,,,,,,
182,,start_run,,html-keyboard-response,182,343498,0.0-1.0-281.0-1.0,0,0,58537,,1557.0,,,84.0,,,,,,,,,,,,,,,,,,,,,,,,,,
183,,rl_choice,,html-keyboard-response,183,344812,0.0-1.0-282.0,0,0,58537,,1309.0,,,68.0,40.0,40.0,2.0,easy,1500.0,2000.0,1.0,80.0,20.0,60.0,20.0,C,D,/static/Simple_RL/Stimuli/Fractals_stims/C.jpg,/static/Simple_RL/Stimuli/Fractals_stims/D.jpg,1.0,80.0,20.0,60.0,20.0,C,D,1.309,1.309,0.0,
184,,rl_choice_confirmation,,html-keyboard-response,184,345006,0.0-1.0-283.0-0.0,0,0,58537,,,,,,40.0,,,,,,,,,,,,,,,,,,,,,,1.5,0.191,,
185,,isi,,html-keyboard-response,185,347011,0.0-1.0-285.0,0,0,58537,,,,,,,,,,,,,,,,,,,,,,,,,,,,3.5,2.0,,
186,,feedback,,html-keyboard-response,186,348015,0.0-1.0-286.0-0.0,0,0,58537,,,,,,40.0,,,,,,,,,,,,,,,,,,,,,,4.5,1.0,,
187,,iti,,html-keyboard-response,187,349517,0.0-1.0-287.0,0,0,58537,,,,,,,,,,,,,,,,,,,,,,,,,,,,6.0,1.5,,
188,,rl_choice,,html-keyboard-response,188,351022,0.0-1.0-289.0,0,0,58537,,,,,,41.0,41.0,2.0,hard,1000.0,2000.0,0.0,40.0,60.0,60.0,60.0,B,A,/static/Simple_RL/Stimuli/Fractals_stims/B.jpg,/static/Simple_RL/Stimuli/Fractals_stims/A.jpg,,,,,,,,7.5,1.5,1.0,
189,,rl_choice_warning,,html-keyboard-response,189,352025,0.0-1.0-291.0-0.0,1,0,58537,,,,,,,,,,,,,,,,,,,,,,,,,,,,8.5,1.0,,
190,,isi,,html-keyboard-response,190,354027,0.0-1.0-292.0,0,0,58537,,,,,,,,,,,,,,,,,,,,,,,,,,,,10.5,2.0,,
191,,iti,,html-keyboard-response,191,355029,0.0-1.0-294.0,0,0,58537,,,,,,,,,,,,,,,,,,,,,,,,,,,,11.5,1.0,,
192,,rl_choice,,html-keyboard-response,192,356533,0.0-1.0-296.0,0,0,58537,,,,,,42.0,42.0,2.0,hard,1500.0,1000.0,0.0,40.0,60.0,20.0,80.0,B,A,/static/Simple_RL/Stimuli/Fractals_stims/B.jpg,/static/Simple_RL/Stimuli/Fractals_stims/A.jpg,,,,,,,,13.0,1.5,1.0,
193,,rl_choice_warning,,html-keyboard-response,193,357536,0.0-1.0-298.0-0.0,1,0,58537,,,,,,,,,,,,,,,,,,,,,,,,,,,,14.0,1.0,,
194,,isi,,html-keyboard-response,194,358540,0.0-1.0-299.0,0,0,58537,,,,,,,,,,,,,,,,,,,,,,,,,,,,15.0,1.0,,
195,,iti,,html-keyboard-response,195,360045,0.0-1.0-301.0,0,0,58537,,,,,,,,,,,,,,,,,,,,,,,,,,,,16.5,1.5,,
196,,rl_choice,,html-keyboard-response,196,361548,0.0-1.0-303.0,0,0,58537,,,,,,43.0,43.0,2.0,hard,1000.0,2000.0,0.0,40.0,60.0,20.0,80.0,B,A,/static/Simple_RL/Stimuli/Fractals_stims/B.jpg,/static/Simple_RL/Stimuli/Fractals_stims/A.jpg,,,,,,,,18.0,1.5,1.0,
197,,rl_choice_warning,,html-keyboard-response,197,362553,0.0-1.0-305.0-0.0,1,0,58537,,,,,,,,,,,,,,,,,,,,,,,,,,,,19.0,1.0,,
198,,isi,,html-keyboard-response,198,364556,0.0-1.0-306.0,0,0,58537,,,,,,,,,,,,,,,,,,,,,,,,,,,,21.0,2.0,,
199,,iti,,html-keyboard-response,199,365559,0.0-1.0-308.0,0,0,58537,,,,,,,,,,,,,,,,,,,,,,,,,,,,22.0,1.0,,
200,,rl_choice,,html-keyboard-response,200,367063,0.0-1.0-310.0,0,0,58537,,,,,,44.0,44.0,2.0,hard,1000.0,1000.0,0.0,40.0,60.0,40.0,40.0,B,A,/static/Simple_RL/Stimuli/Fractals_stims/B.jpg,/static/Simple_RL/Stimuli/Fractals_stims/A.jpg,,,,,,,,23.5,1.5,1.0,
201,,rl_choice_warning,,html-keyboard-response,201,368066,0.0-1.0-312.0-0.0,1,0,58537,,,,,,,,,,,,,,,,,,,,,,,,,,,,24.5,1.0,,
202,,isi,,html-keyboard-response,202,369068,0.0-1.0-313.0,0,0,58537,,,,,,,,,,,,,,,,,,,,,,,,,,,,25.5,1.0,,
203,,iti,,html-keyboard-response,203,370077,0.0-1.0-315.0,0,0,58537,,,,,,,,,,,,,,,,,,,,,,,,,,,,26.5,1.0,,
204,,rl_choice,,html-keyboard-response,204,371582,0.0-1.0-317.0,0,0,58537,,,,,,45.0,45.0,2.0,hard,2000.0,1500.0,0.0,40.0,60.0,20.0,40.0,B,A,/static/Simple_RL/Stimuli/Fractals_stims/B.jpg,/static/Simple_RL/Stimuli/Fractals_stims/A.jpg,,,,,,,,28.0,1.5,1.0,
205,,rl_choice_warning,,html-keyboard-response,205,372600,0.0-1.0-319.0-0.0,1,0,58537,,,,,,,,,,,,,,,,,,,,,,,,,,,,29.0,1.0,,
206,,isi,,html-keyboard-response,206,374104,0.0-1.0-320.0,0,0,58537,,,,,,,,,,,,,,,,,,,,,,,,,,,,30.5,1.5,,
207,,iti,,html-keyboard-response,207,376122,0.0-1.0-322.0,0,0,58537,,,,,,,,,,,,,,,,,,,,,,,,,,,,32.5,2.0,,
208,,rl_choice,,html-keyboard-response,208,377625,0.0-1.0-324.0,0,0,58537,,,,,,46.0,46.0,2.0,easy,1500.0,3000.0,0.0,20.0,80.0,0.0,80.0,D,C,/static/Simple_RL/Stimuli/Fractals_stims/D.jpg,/static/Simple_RL/Stimuli/Fractals_stims/C.jpg,,,,,,,,34.0,1.5,1.0,
209,,rl_choice_warning,,html-keyboard-response,209,378629,0.0-1.0-326.0-0.0,1,0,58537,,,,,,,,,,,,,,,,,,,,,,,,,,,,35.0,1.0,,
210,,isi,,html-keyboard-response,210,381631,0.0-1.0-327.0,0,0,58537,,,,,,,,,,,,,,,,,,,,,,,,,,,,38.0,3.0,,
211,,iti,,html-keyboard-response,211,383133,0.0-1.0-329.0,0,0,58537,,,,,,,,,,,,,,,,,,,,,,,,,,,,39.5,1.5,,
212,,rl_choice,,html-keyboard-response,212,384636,0.0-1.0-331.0,0,0,58537,,,,,,47.0,47.0,2.0,easy,1500.0,1000.0,0.0,20.0,80.0,20.0,80.0,D,C,/static/Simple_RL/Stimuli/Fractals_stims/D.jpg,/static/Simple_RL/Stimuli/Fractals_stims/C.jpg,,,,,,,,41.0,1.5,1.0,
213,,rl_choice_warning,,html-keyboard-response,213,385640,0.0-1.0-333.0-0.0,1,0,58537,,,,,,,,,,,,,,,,,,,,,,,,,,,,42.0,1.0,,
214,,isi,,html-keyboard-response,214,386643,0.0-1.0-334.0,0,0,58537,,,,,,,,,,,,,,,,,,,,,,,,,,,,43.0,1.0,,
215,,iti,,html-keyboard-response,215,388146,0.0-1.0-336.0,0,0,58537,,,,,,,,,,,,,,,,,,,,,,,,,,,,44.5,1.5,,
216,,rl_choice,,html-keyboard-response,216,389649,0.0-1.0-338.0,0,0,58537,,,,,,48.0,48.0,2.0,easy,2000.0,1000.0,1.0,80.0,20.0,80.0,20.0,C,D,/static/Simple_RL/Stimuli/Fractals_stims/C.jpg,/static/Simple_RL/Stimuli/Fractals_stims/D.jpg,,,,,,,,46.0,1.5,1.0,
217,,rl_choice_warning,,html-keyboard-response,217,390652,0.0-1.0-340.0-0.0,1,0,58537,,,,,,,,,,,,,,,,,,,,,,,,,,,,47.0,1.0,,
218,,isi,,html-keyboard-response,218,391655,0.0-1.0-341.0,0,0,58537,,,,,,,,,,,,,,,,,,,,,,,,,,,,48.0,1.0,,
219,,iti,,html-keyboard-response,219,393658,0.0-1.0-343.0,0,0,58537,,,,,,,,,,,,,,,,,,,,,,,,,,,,50.0,2.0,,
220,,rl_choice,,html-keyboard-response,220,395161,0.0-1.0-345.0,0,0,58537,,,,,,49.0,49.0,2.0,hard,1500.0,2000.0,0.0,40.0,60.0,60.0,60.0,B,A,/static/Simple_RL/Stimuli/Fractals_stims/B.jpg,/static/Simple_RL/Stimuli/Fractals_stims/A.jpg,,,,,,,,51.5,1.5,1.0,
221,,rl_choice_warning,,html-keyboard-response,221,396163,0.0-1.0-347.0-0.0,1,0,58537,,,,,,,,,,,,,,,,,,,,,,,,,,,,52.5,1.0,,
222,,isi,,html-keyboard-response,222,398166,0.0-1.0-348.0,0,0,58537,,,,,,,,,,,,,,,,,,,,,,,,,,,,54.5,2.0,,
223,,iti,,html-keyboard-response,223,399668,0.0-1.0-350.0,0,0,58537,,,,,,,,,,,,,,,,,,,,,,,,,,,,56.0,1.5,,
224,,rl_choice,,html-keyboard-response,224,401172,0.0-1.0-352.0,0,0,58537,,,,,,50.0,50.0,2.0,easy,1000.0,3500.0,0.0,20.0,80.0,0.0,100.0,D,C,/static/Simple_RL/Stimuli/Fractals_stims/D.jpg,/static/Simple_RL/Stimuli/Fractals_stims/C.jpg,,,,,,,,57.5,1.5,1.0,
225,,rl_choice_warning,,html-keyboard-response,225,402175,0.0-1.0-354.0-0.0,1,0,58537,,,,,,,,,,,,,,,,,,,,,,,,,,,,58.5,1.0,,
226,,isi,,html-keyboard-response,226,405679,0.0-1.0-355.0,0,0,58537,,,,,,,,,,,,,,,,,,,,,,,,,,,,62.0,3.5,,
227,,iti,,html-keyboard-response,227,406682,0.0-1.0-357.0,0,0,58537,,,,,,,,,,,,,,,,,,,,,,,,,,,,63.0,1.0,,
228,,rl_choice,,html-keyboard-response,228,408186,0.0-1.0-359.0,0,0,58537,,,,,,51.0,51.0,2.0,easy,1500.0,1000.0,1.0,80.0,20.0,60.0,20.0,C,D,/static/Simple_RL/Stimuli/Fractals_stims/C.jpg,/static/Simple_RL/Stimuli/Fractals_stims/D.jpg,,,,,,,,64.5,1.5,1.0,
229,,rl_choice_warning,,html-keyboard-response,229,409188,0.0-1.0-361.0-0.0,1,0,58537,,,,,,,,,,,,,,,,,,,,,,,,,,,,65.5,1.0,,
230,,isi,,html-keyboard-response,230,410191,0.0-1.0-362.0,0,0,58537,,,,,,,,,,,,,,,,,,,,,,,,,,,,66.5,1.0,,
231,,iti,,html-keyboard-response,231,411694,0.0-1.0-364.0,0,0,58537,,,,,,,,,,,,,,,,,,,,,,,,,,,,68.0,1.5,,
232,,rl_choice,,html-keyboard-response,232,413197,0.0-1.0-366.0,0,0,58537,,,,,,52.0,52.0,2.0,hard,2000.0,1500.0,0.0,40.0,60.0,20.0,80.0,B,A,/static/Simple_RL/Stimuli/Fractals_stims/B.jpg,/static/Simple_RL/Stimuli/Fractals_stims/A.jpg,,,,,,,,69.5,1.5,1.0,
233,,rl_choice_warning,,html-keyboard-response,233,414199,0.0-1.0-368.0-0.0,1,0,58537,,,,,,,,,,,,,,,,,,,,,,,,,,,,70.5,1.0,,
234,,isi,,html-keyboard-response,234,415703,0.0-1.0-369.0,0,0,58537,,,,,,,,,,,,,,,,,,,,,,,,,,,,72.0,1.5,,
235,,iti,,html-keyboard-response,235,417707,0.0-1.0-371.0,0,0,58537,,,,,,,,,,,,,,,,,,,,,,,,,,,,74.0,2.0,,
236,,rl_choice,,html-keyboard-response,236,419210,0.0-1.0-373.0,0,0,58537,,,,,,53.0,53.0,2.0,hard,3000.0,1500.0,0.0,40.0,60.0,20.0,40.0,B,A,/static/Simple_RL/Stimuli/Fractals_stims/B.jpg,/static/Simple_RL/Stimuli/Fractals_stims/A.jpg,,,,,,,,75.5,1.5,1.0,
237,,rl_choice_warning,,html-keyboard-response,237,420213,0.0-1.0-375.0-0.0,1,0,58537,,,,,,,,,,,,,,,,,,,,,,,,,,,,76.5,1.0,,
238,,isi,,html-keyboard-response,238,421717,0.0-1.0-376.0,0,0,58537,,,,,,,,,,,,,,,,,,,,,,,,,,,,78.0,1.5,,
239,,iti,,html-keyboard-response,239,424720,0.0-1.0-378.0,0,0,58537,,,,,,,,,,,,,,,,,,,,,,,,,,,,81.0,3.0,,
240,,rl_choice,,html-keyboard-response,240,426224,0.0-1.0-380.0,0,0,58537,,,,,,54.0,54.0,2.0,easy,3000.0,1500.0,0.0,20.0,80.0,20.0,100.0,D,C,/static/Simple_RL/Stimuli/Fractals_stims/D.jpg,/static/Simple_RL/Stimuli/Fractals_stims/C.jpg,,,,,,,,82.5,1.5,1.0,
241,,rl_choice_warning,,html-keyboard-response,241,427226,0.0-1.0-382.0-0.0,1,0,58537,,,,,,,,,,,,,,,,,,,,,,,,,,,,83.5,1.0,,
242,,isi,,html-keyboard-response,242,428730,0.0-1.0-383.0,0,0,58537,,,,,,,,,,,,,,,,,,,,,,,,,,,,85.0,1.5,,
243,,iti,,html-keyboard-response,243,431734,0.0-1.0-385.0,0,0,58537,,,,,,,,,,,,,,,,,,,,,,,,,,,,88.0,3.0,,
244,,rl_choice,,html-keyboard-response,244,433240,0.0-1.0-387.0,0,0,58537,,,,,,55.0,55.0,2.0,easy,1500.0,1500.0,1.0,80.0,20.0,80.0,20.0,C,D,/static/Simple_RL/Stimuli/Fractals_stims/C.jpg,/static/Simple_RL/Stimuli/Fractals_stims/D.jpg,,,,,,,,89.5,1.5,1.0,
245,,rl_choice_warning,,html-keyboard-response,245,434243,0.0-1.0-389.0-0.0,1,0,58537,,,,,,,,,,,,,,,,,,,,,,,,,,,,90.5,1.0,,
246,,isi,,html-keyboard-response,246,435747,0.0-1.0-390.0,0,0,58537,,,,,,,,,,,,,,,,,,,,,,,,,,,,92.0,1.5,,
247,,iti,,html-keyboard-response,247,437250,0.0-1.0-392.0,0,0,58537,,,,,,,,,,,,,,,,,,,,,,,,,,,,93.5,1.5,,
248,,rl_choice,,html-keyboard-response,248,438755,0.0-1.0-394.0,0,0,58537,,,,,,56.0,56.0,2.0,easy,2000.0,2000.0,0.0,20.0,80.0,40.0,80.0,D,C,/static/Simple_RL/Stimuli/Fractals_stims/D.jpg,/static/Simple_RL/Stimuli/Fractals_stims/C.jpg,,,,,,,,95.0,1.5,1.0,
249,,rl_choice_warning,,html-keyboard-response,249,439758,0.0-1.0-396.0-0.0,1,0,58537,,,,,,,,,,,,,,,,,,,,,,,,,,,,96.0,1.0,,
250,,isi,,html-keyboard-response,250,441763,0.0-1.0-397.0,0,0,58537,,,,,,,,,,,,,,,,,,,,,,,,,,,,98.0,2.0,,
251,,iti,,html-keyboard-response,251,443767,0.0-1.0-399.0,0,0,58537,,,,,,,,,,,,,,,,,,,,,,,,,,,,100.0,2.0,,
252,,rl_choice,,html-keyboard-response,252,445270,0.0-1.0-401.0,0,0,58537,,,,,,57.0,57.0,2.0,easy,1000.0,1000.0,0.0,20.0,80.0,20.0,80.0,D,C,/static/Simple_RL/Stimuli/Fractals_stims/D.jpg,/static/Simple_RL/Stimuli/Fractals_stims/C.jpg,,,,,,,,101.5,1.5,1.0,
253,,rl_choice_warning,,html-keyboard-response,253,446272,0.0-1.0-403.0-0.0,1,0,58537,,,,,,,,,,,,,,,,,,,,,,,,,,,,102.5,1.0,,
254,,isi,,html-keyboard-response,254,447275,0.0-1.0-404.0,0,0,58537,,,,,,,,,,,,,,,,,,,,,,,,,,,,103.5,1.0,,
255,,iti,,html-keyboard-response,255,448277,0.0-1.0-406.0,0,0,58537,,,,,,,,,,,,,,,,,,,,,,,,,,,,104.5,1.0,,
256,,rl_choice,,html-keyboard-response,256,449781,0.0-1.0-408.0,0,0,58537,,,,,,58.0,58.0,2.0,easy,1000.0,1000.0,0.0,20.0,80.0,20.0,60.0,D,C,/static/Simple_RL/Stimuli/Fractals_stims/D.jpg,/static/Simple_RL/Stimuli/Fractals_stims/C.jpg,,,,,,,,106.0,1.5,1.0,
257,,rl_choice_warning,,html-keyboard-response,257,450785,0.0-1.0-410.0-0.0,1,0,58537,,,,,,,,,,,,,,,,,,,,,,,,,,,,107.0,1.0,,
258,,isi,,html-keyboard-response,258,451788,0.0-1.0-411.0,0,0,58537,,,,,,,,,,,,,,,,,,,,,,,,,,,,108.0,1.0,,
259,,iti,,html-keyboard-response,259,452790,0.0-1.0-413.0,0,0,58537,,,,,,,,,,,,,,,,,,,,,,,,,,,,109.0,1.0,,
260,,rl_choice,,html-keyboard-response,260,454294,0.0-1.0-415.0,0,0,58537,,,,,,59.0,59.0,2.0,hard,1500.0,1000.0,1.0,60.0,40.0,80.0,40.0,A,B,/static/Simple_RL/Stimuli/Fractals_stims/A.jpg,/static/Simple_RL/Stimuli/Fractals_stims/B.jpg,,,,,,,,110.5,1.5,1.0,
261,,rl_choice_warning,,html-keyboard-response,261,455297,0.0-1.0-417.0-0.0,1,0,58537,,,,,,,,,,,,,,,,,,,,,,,,,,,,111.5,1.0,,
262,,isi,,html-keyboard-response,262,456300,0.0-1.0-418.0,0,0,58537,,,,,,,,,,,,,,,,,,,,,,,,,,,,112.5,1.0,,
263,,iti,,html-keyboard-response,263,457805,0.0-1.0-420.0,0,0,58537,,,,,,,,,,,,,,,,,,,,,,,,,,,,114.0,1.5,,
264,,rl_choice,,html-keyboard-response,264,459307,0.0-1.0-422.0,0,0,58537,,,,,,60.0,60.0,2.0,hard,1500.0,1000.0,1.0,60.0,40.0,40.0,40.0,A,B,/static/Simple_RL/Stimuli/Fractals_stims/A.jpg,/static/Simple_RL/Stimuli/Fractals_stims/B.jpg,,,,,,,,115.5,1.5,1.0,
265,,rl_choice_warning,,html-keyboard-response,265,460310,0.0-1.0-424.0-0.0,1,0,58537,,,,,,,,,,,,,,,,,,,,,,,,,,,,116.5,1.0,,
266,,isi,,html-keyboard-response,266,461313,0.0-1.0-425.0,0,0,58537,,,,,,,,,,,,,,,,,,,,,,,,,,,,117.5,1.0,,
267,,iti,,html-keyboard-response,267,462817,0.0-1.0-427.0,0,0,58537,,,,,,,,,,,,,,,,,,,,,,,,,,,,119.0,1.5,,
268,,rl_choice,,html-keyboard-response,268,464321,0.0-1.0-429.0,0,0,58537,,,,,,61.0,61.0,2.0,hard,1000.0,1000.0,1.0,60.0,40.0,40.0,60.0,A,B,/static/Simple_RL/Stimuli/Fractals_stims/A.jpg,/static/Simple_RL/Stimuli/Fractals_stims/B.jpg,,,,,,,,120.5,1.5,1.0,
269,,rl_choice_warning,,html-keyboard-response,269,465324,0.0-1.0-431.0-0.0,1,0,58537,,,,,,,,,,,,,,,,,,,,,,,,,,,,121.5,1.0,,
270,,isi,,html-keyboard-response,270,466326,0.0-1.0-432.0,0,0,58537,,,,,,,,,,,,,,,,,,,,,,,,,,,,122.5,1.0,,
271,,iti,,html-keyboard-response,271,467330,0.0-1.0-434.0,0,0,58537,,,,,,,,,,,,,,,,,,,,,,,,,,,,123.5,1.0,,
272,,rl_choice,,html-keyboard-response,272,468834,0.0-1.0-436.0,0,0,58537,,,,,,62.0,62.0,2.0,hard,1000.0,3000.0,1.0,60.0,40.0,60.0,20.0,A,B,/static/Simple_RL/Stimuli/Fractals_stims/A.jpg,/static/Simple_RL/Stimuli/Fractals_stims/B.jpg,,,,,,,,125.0,1.5,1.0,
273,,rl_choice_warning,,html-keyboard-response,273,469838,0.0-1.0-438.0-0.0,1,0,58537,,,,,,,,,,,,,,,,,,,,,,,,,,,,126.0,1.0,,
274,,isi,,html-keyboard-response,274,472840,0.0-1.0-439.0,0,0,58537,,,,,,,,,,,,,,,,,,,,,,,,,,,,129.0,3.0,,
275,,iti,,html-keyboard-response,275,473843,0.0-1.0-441.0,0,0,58537,,,,,,,,,,,,,,,,,,,,,,,,,,,,130.0,1.0,,
276,,rl_choice,,html-keyboard-response,276,475346,0.0-1.0-443.0,0,0,58537,,,,,,63.0,63.0,2.0,easy,2000.0,1500.0,0.0,20.0,80.0,20.0,60.0,D,C,/static/Simple_RL/Stimuli/Fractals_stims/D.jpg,/static/Simple_RL/Stimuli/Fractals_stims/C.jpg,,,,,,,,131.5,1.5,1.0,
277,,rl_choice_warning,,html-keyboard-response,277,476349,0.0-1.0-445.0-0.0,1,0,58537,,,,,,,,,,,,,,,,,,,,,,,,,,,,132.5,1.0,,
278,,isi,,html-keyboard-response,278,477852,0.0-1.0-446.0,0,0,58537,,,,,,,,,,,,,,,,,,,,,,,,,,,,134.0,1.5,,
279,,iti,,html-keyboard-response,279,479854,0.0-1.0-448.0,0,0,58537,,,,,,,,,,,,,,,,,,,,,,,,,,,,136.0,2.0,,
280,,rl_choice,,html-keyboard-response,280,481358,0.0-1.0-450.0,0,0,58537,,,,,,64.0,64.0,2.0,easy,2000.0,1000.0,1.0,80.0,20.0,100.0,20.0,C,D,/static/Simple_RL/Stimuli/Fractals_stims/C.jpg,/static/Simple_RL/Stimuli/Fractals_stims/D.jpg,,,,,,,,137.5,1.5,1.0,
281,,rl_choice_warning,,html-keyboard-response,281,482360,0.0-1.0-452.0-0.0,1,0,58537,,,,,,,,,,,,,,,,,,,,,,,,,,,,138.5,1.0,,
282,,isi,,html-keyboard-response,282,483363,0.0-1.0-453.0,0,0,58537,,,,,,,,,,,,,,,,,,,,,,,,,,,,139.5,1.0,,
283,,iti,,html-keyboard-response,283,485366,0.0-1.0-455.0,0,0,58537,,,,,,,,,,,,,,,,,,,,,,,,,,,,141.5,2.0,,
284,,rl_choice,,html-keyboard-response,284,486869,0.0-1.0-457.0,0,0,58537,,,,,,65.0,65.0,2.0,hard,2000.0,1500.0,1.0,60.0,40.0,60.0,40.0,A,B,/static/Simple_RL/Stimuli/Fractals_stims/A.jpg,/static/Simple_RL/Stimuli/Fractals_stims/B.jpg,,,,,,,,143.0,1.5,1.0,
285,,rl_choice_warning,,html-keyboard-response,285,487872,0.0-1.0-459.0-0.0,1,0,58537,,,,,,,,,,,,,,,,,,,,,,,,,,,,144.0,1.0,,
286,,isi,,html-keyboard-response,286,489375,0.0-1.0-460.0,0,0,58537,,,,,,,,,,,,,,,,,,,,,,,,,,,,145.5,1.5,,
287,,iti,,html-keyboard-response,287,491379,0.0-1.0-462.0,0,0,58537,,,,,,,,,,,,,,,,,,,,,,,,,,,,147.5,2.0,,
288,,rl_choice,,html-keyboard-response,288,492883,0.0-1.0-464.0,0,0,58537,,,,,,66.0,66.0,2.0,hard,3000.0,1000.0,1.0,60.0,40.0,60.0,20.0,A,B,/static/Simple_RL/Stimuli/Fractals_stims/A.jpg,/static/Simple_RL/Stimuli/Fractals_stims/B.jpg,,,,,,,,149.0,1.5,1.0,
289,,rl_choice_warning,,html-keyboard-response,289,493886,0.0-1.0-466.0-0.0,1,0,58537,,,,,,,,,,,,,,,,,,,,,,,,,,,,150.0,1.0,,
290,,isi,,html-keyboard-response,290,494890,0.0-1.0-467.0,0,0,58537,,,,,,,,,,,,,,,,,,,,,,,,,,,,151.0,1.0,,
291,,iti,,html-keyboard-response,291,497893,0.0-1.0-469.0,0,0,58537,,,,,,,,,,,,,,,,,,,,,,,,,,,,154.0,3.0,,
292,,rl_choice,,html-keyboard-response,292,499396,0.0-1.0-471.0,0,0,58537,,,,,,67.0,67.0,2.0,easy,3500.0,2000.0,1.0,80.0,20.0,60.0,40.0,C,D,/static/Simple_RL/Stimuli/Fractals_stims/C.jpg,/static/Simple_RL/Stimuli/Fractals_stims/D.jpg,,,,,,,,155.5,1.5,1.0,
293,,rl_choice_warning,,html-keyboard-response,293,500399,0.0-1.0-473.0-0.0,1,0,58537,,,,,,,,,,,,,,,,,,,,,,,,,,,,156.5,1.0,,
294,,isi,,html-keyboard-response,294,502403,0.0-1.0-474.0,0,0,58537,,,,,,,,,,,,,,,,,,,,,,,,,,,,158.5,2.0,,
295,,iti,,html-keyboard-response,295,505906,0.0-1.0-476.0,0,0,58537,,,,,,,,,,,,,,,,,,,,,,,,,,,,162.0,3.5,,
296,,rl_choice,,html-keyboard-response,296,507410,0.0-1.0-478.0,0,0,58537,,,,,,68.0,68.0,2.0,easy,3000.0,2000.0,0.0,20.0,80.0,40.0,80.0,D,C,/static/Simple_RL/Stimuli/Fractals_stims/D.jpg,/static/Simple_RL/Stimuli/Fractals_stims/C.jpg,,,,,,,,163.5,1.5,1.0,
297,,rl_choice_warning,,html-keyboard-response,297,508414,0.0-1.0-480.0-0.0,1,0,58537,,,,,,,,,,,,,,,,,,,,,,,,,,,,164.5,1.0,,
298,,isi,,html-keyboard-response,298,510417,0.0-1.0-481.0,0,0,58537,,,,,,,,,,,,,,,,,,,,,,,,,,,,166.5,2.0,,
299,,iti,,html-keyboard-response,299,513421,0.0-1.0-483.0,0,0,58537,,,,,,,,,,,,,,,,,,,,,,,,,,,,169.5,3.0,,
300,,rl_choice,,html-keyboard-response,300,514925,0.0-1.0-485.0,0,0,58537,,,,,,69.0,69.0,2.0,hard,2000.0,1000.0,1.0,60.0,40.0,40.0,60.0,A,B,/static/Simple_RL/Stimuli/Fractals_stims/A.jpg,/static/Simple_RL/Stimuli/Fractals_stims/B.jpg,,,,,,,,171.0,1.5,1.0,
301,,rl_choice_warning,,html-keyboard-response,301,515928,0.0-1.0-487.0-0.0,1,0,58537,,,,,,,,,,,,,,,,,,,,,,,,,,,,172.0,1.0,,
302,,isi,,html-keyboard-response,302,516931,0.0-1.0-488.0,0,0,58537,,,,,,,,,,,,,,,,,,,,,,,,,,,,173.0,1.0,,
303,,iti,,html-keyboard-response,303,518936,0.0-1.0-490.0,0,0,58537,,,,,,,,,,,,,,,,,,,,,,,,,,,,175.0,2.0,,
304,,rl_choice,,html-keyboard-response,304,520439,0.0-1.0-492.0,0,0,58537,,,,,,70.0,70.0,2.0,hard,1000.0,3500.0,1.0,60.0,40.0,80.0,40.0,A,B,/static/Simple_RL/Stimuli/Fractals_stims/A.jpg,/static/Simple_RL/Stimuli/Fractals_stims/B.jpg,,,,,,,,176.5,1.5,1.0,
305,,rl_choice_warning,,html-keyboard-response,305,521442,0.0-1.0-494.0-0.0,1,0,58537,,,,,,,,,,,,,,,,,,,,,,,,,,,,177.5,1.0,,
306,,isi,,html-keyboard-response,306,524944,0.0-1.0-495.0,0,0,58537,,,,,,,,,,,,,,,,,,,,,,,,,,,,181.0,3.5,,
307,,iti,,html-keyboard-response,307,525948,0.0-1.0-497.0,0,0,58537,,,,,,,,,,,,,,,,,,,,,,,,,,,,182.0,1.0,,
308,,rl_choice,,html-keyboard-response,308,527452,0.0-1.0-499.0,0,0,58537,,,,,,71.0,71.0,2.0,hard,1000.0,1500.0,1.0,60.0,40.0,40.0,40.0,A,B,/static/Simple_RL/Stimuli/Fractals_stims/A.jpg,/static/Simple_RL/Stimuli/Fractals_stims/B.jpg,,,,,,,,183.5,1.5,1.0,
309,,rl_choice_warning,,html-keyboard-response,309,528454,0.0-1.0-501.0-0.0,1,0,58537,,,,,,,,,,,,,,,,,,,,,,,,,,,,184.5,1.0,,
310,,isi,,html-keyboard-response,310,529958,0.0-1.0-502.0,0,0,58537,,,,,,,,,,,,,,,,,,,,,,,,,,,,186.0,1.5,,
311,,iti,,html-keyboard-response,311,530960,0.0-1.0-504.0,0,0,58537,,,,,,,,,,,,,,,,,,,,,,,,,,,,187.0,1.0,,
312,,rl_choice,,html-keyboard-response,312,532464,0.0-1.0-506.0,0,0,58537,,,,,,72.0,72.0,2.0,easy,1000.0,1500.0,0.0,20.0,80.0,0.0,80.0,D,C,/static/Simple_RL/Stimuli/Fractals_stims/D.jpg,/static/Simple_RL/Stimuli/Fractals_stims/C.jpg,,,,,,,,188.5,1.5,1.0,
313,,rl_choice_warning,,html-keyboard-response,313,533468,0.0-1.0-508.0-0.0,1,0,58537,,,,,,,,,,,,,,,,,,,,,,,,,,,,189.5,1.0,,
314,,isi,,html-keyboard-response,314,534971,0.0-1.0-509.0,0,0,58537,,,,,,,,,,,,,,,,,,,,,,,,,,,,191.0,1.5,,
315,,iti,,html-keyboard-response,315,535973,0.0-1.0-511.0,0,0,58537,,,,,,,,,,,,,,,,,,,,,,,,,,,,192.0,1.0,,
316,,rl_choice,,html-keyboard-response,316,537476,0.0-1.0-513.0,0,0,58537,,,,,,73.0,73.0,2.0,easy,1000.0,3000.0,1.0,80.0,20.0,60.0,0.0,C,D,/static/Simple_RL/Stimuli/Fractals_stims/C.jpg,/static/Simple_RL/Stimuli/Fractals_stims/D.jpg,,,,,,,,193.5,1.5,1.0,
317,,rl_choice_warning,,html-keyboard-response,317,538479,0.0-1.0-515.0-0.0,1,0,58537,,,,,,,,,,,,,,,,,,,,,,,,,,,,194.5,1.0,,
318,,isi,,html-keyboard-response,318,541482,0.0-1.0-516.0,0,0,58537,,,,,,,,,,,,,,,,,,,,,,,,,,,,197.5,3.0,,
319,,iti,,html-keyboard-response,319,542484,0.0-1.0-518.0,0,0,58537,,,,,,,,,,,,,,,,,,,,,,,,,,,,198.5,1.0,,
320,,rl_choice,,html-keyboard-response,320,543988,0.0-1.0-520.0,0,0,58537,,,,,,74.0,74.0,2.0,hard,3500.0,2000.0,1.0,60.0,40.0,60.0,60.0,A,B,/static/Simple_RL/Stimuli/Fractals_stims/A.jpg,/static/Simple_RL/Stimuli/Fractals_stims/B.jpg,,,,,,,,200.0,1.5,1.0,
321,,rl_choice_warning,,html-keyboard-response,321,544991,0.0-1.0-522.0-0.0,1,0,58537,,,,,,,,,,,,,,,,,,,,,,,,,,,,201.0,1.0,,
322,,isi,,html-keyboard-response,322,546994,0.0-1.0-523.0,0,0,58537,,,,,,,,,,,,,,,,,,,,,,,,,,,,203.0,2.0,,
323,,iti,,html-keyboard-response,323,550496,0.0-1.0-525.0,0,0,58537,,,,,,,,,,,,,,,,,,,,,,,,,,,,206.5,3.5,,
324,,rl_choice,,html-keyboard-response,324,552000,0.0-1.0-527.0,0,0,58537,,,,,,75.0,75.0,2.0,hard,1500.0,3000.0,0.0,40.0,60.0,60.0,80.0,B,A,/static/Simple_RL/Stimuli/Fractals_stims/B.jpg,/static/Simple_RL/Stimuli/Fractals_stims/A.jpg,,,,,,,,208.0,1.5,1.0,
325,,rl_choice_warning,,html-keyboard-response,325,553003,0.0-1.0-529.0-0.0,1,0,58537,,,,,,,,,,,,,,,,,,,,,,,,,,,,209.0,1.0,,
326,,isi,,html-keyboard-response,326,556006,0.0-1.0-530.0,0,0,58537,,,,,,,,,,,,,,,,,,,,,,,,,,,,212.0,3.0,,
327,,iti,,html-keyboard-response,327,557509,0.0-1.0-532.0,0,0,58537,,,,,,,,,,,,,,,,,,,,,,,,,,,,213.5,1.5,,
328,,rl_choice,,html-keyboard-response,328,559015,0.0-1.0-534.0,0,0,58537,,,,,,76.0,76.0,2.0,easy,1000.0,1000.0,0.0,20.0,80.0,20.0,80.0,D,C,/static/Simple_RL/Stimuli/Fractals_stims/D.jpg,/static/Simple_RL/Stimuli/Fractals_stims/C.jpg,,,,,,,,215.0,1.5,1.0,
329,,rl_choice_warning,,html-keyboard-response,329,560017,0.0-1.0-536.0-0.0,1,0,58537,,,,,,,,,,,,,,,,,,,,,,,,,,,,216.0,1.0,,
330,,isi,,html-keyboard-response,330,561021,0.0-1.0-537.0,0,0,58537,,,,,,,,,,,,,,,,,,,,,,,,,,,,217.0,1.0,,
331,,iti,,html-keyboard-response,331,562024,0.0-1.0-539.0,0,0,58537,,,,,,,,,,,,,,,,,,,,,,,,,,,,218.0,1.0,,
332,,rl_choice,,html-keyboard-response,332,563527,0.0-1.0-541.0,0,0,58537,,,,,,77.0,77.0,2.0,hard,1000.0,1000.0,0.0,40.0,60.0,60.0,40.0,B,A,/static/Simple_RL/Stimuli/Fractals_stims/B.jpg,/static/Simple_RL/Stimuli/Fractals_stims/A.jpg,,,,,,,,219.5,1.5,1.0,
333,,rl_choice_warning,,html-keyboard-response,333,564530,0.0-1.0-543.0-0.0,1,0,58537,,,,,,,,,,,,,,,,,,,,,,,,,,,,220.5,1.0,,
334,,isi,,html-keyboard-response,334,565532,0.0-1.0-544.0,0,0,58537,,,,,,,,,,,,,,,,,,,,,,,,,,,,221.5,1.0,,
335,,iti,,html-keyboard-response,335,566535,0.0-1.0-546.0,0,0,58537,,,,,,,,,,,,,,,,,,,,,,,,,,,,222.5,1.0,,
336,,rl_choice,,html-keyboard-response,336,568037,0.0-1.0-548.0,0,0,58537,,,,,,78.0,78.0,2.0,easy,1000.0,1500.0,1.0,80.0,20.0,80.0,0.0,C,D,/static/Simple_RL/Stimuli/Fractals_stims/C.jpg,/static/Simple_RL/Stimuli/Fractals_stims/D.jpg,,,,,,,,224.0,1.5,1.0,
337,,rl_choice_warning,,html-keyboard-response,337,569041,0.0-1.0-550.0-0.0,1,0,58537,,,,,,,,,,,,,,,,,,,,,,,,,,,,225.0,1.0,,
338,,isi,,html-keyboard-response,338,570543,0.0-1.0-551.0,0,0,58537,,,,,,,,,,,,,,,,,,,,,,,,,,,,226.5,1.5,,
339,,iti,,html-keyboard-response,339,571546,0.0-1.0-553.0,0,0,58537,,,,,,,,,,,,,,,,,,,,,,,,,,,,227.5,1.0,,
340,,rl_choice,,html-keyboard-response,340,573050,0.0-1.0-555.0,0,0,58537,,,,,,79.0,79.0,2.0,easy,1000.0,1000.0,0.0,20.0,80.0,0.0,100.0,D,C,/static/Simple_RL/Stimuli/Fractals_stims/D.jpg,/static/Simple_RL/Stimuli/Fractals_stims/C.jpg,,,,,,,,229.0,1.5,1.0,
341,,rl_choice_warning,,html-keyboard-response,341,574053,0.0-1.0-557.0-0.0,1,0,58537,,,,,,,,,,,,,,,,,,,,,,,,,,,,230.0,1.0,,
342,,isi,,html-keyboard-response,342,575056,0.0-1.0-558.0,0,0,58537,,,,,,,,,,,,,,,,,,,,,,,,,,,,231.0,1.0,,
343,,iti,,html-keyboard-response,343,576059,0.0-1.0-560.0,0,0,58537,,,,,,,,,,,,,,,,,,,,,,,,,,,,232.0,1.0,,0.06
344,,final_tally,,html-keyboard-response,344,594872,0.0-2.0,0,0,58537,,18805.0,,,68.0,,,,,,,,,,,,,,,,,,,,,,,,,,
