,success,ttype,start_time,trial_type,trial_index,time_elapsed,internal_node_id,warning,missed_checkup,PID,view_history,rt,responses,repeat_instructions,key_press,index,trial_num,block,condition,iti,isi,high_group_on_left,left_group_value,right_group_value,left_item_value,right_item_value,left_img,right_img,left_img_path,right_img_path,left_chosen,chosen_group_value,unchosen_group_value,chosen_item_value,unchosen_item_value,chosen_img,unchosen_img,onset,duration,no_response,total_bonus_tally
0,True,full_screen,d06032022hr1717,fullscreen,0,3867,0.0-0.0,0,0,23720,,,,,,,,,,,,,,,,,,,,,,,,,,,,,,,
1,,size_instructions,,instructions,1,33166,0.0-1.0-0.0-0.0,0,0,23720,"[{""page_index"":0,""viewing_time"":4267},{""page_index"":1,""viewing_time"":8303},{""page_index"":2,""viewing_time"":11132},{""page_index"":3,""viewing_time"":1942},{""page_index"":4,""viewing_time"":1561},{""page_index"":5,""viewing_time"":2093}]",29298.0,,,,,,,,,,,,,,,,,,,,,,,,,,,,,
2,,rl_comprehension_check,,survey-multi-choice,2,39106,0.0-1.0-0.0-1.0,0,0,23720,,5938.0,"{""Q0"":""True"",""Q1"":""True"",""Q2"":""D for left and K for right""}",0.0,,,,,,,,,,,,,,,,,,,,,,,,,,,
3,,,,html-keyboard-response,3,40282,0.0-1.0-1.0,0,0,23720,,1174.0,,,68.0,,,,,,,,,,,,,,,,,,,,,,,,,,
4,,rl_choice,,html-keyboard-response,4,41146,0.0-1.0-2.0,0,0,23720,,864.0,,,68.0,0.0,0.0,1.0,hard,1000.0,2000.0,0.0,40.0,60.0,20.0,60.0,C,D,/static/Simple_RL/Stimuli/Fractals_stims/C.jpg,/static/Simple_RL/Stimuli/Fractals_stims/D.jpg,1.0,40.0,60.0,20.0,60.0,C,D,0.864,0.864,0.0,
5,,rl_choice_confirmation,,html-keyboard-response,5,41785,0.0-1.0-3.0-0.0,0,0,23720,,,,,,0.0,,,,,,,,,,,,,,,,,,,,,,1.5,0.636,,
6,,isi,,html-keyboard-response,6,43787,0.0-1.0-5.0,0,0,23720,,,,,,,,,,,,,,,,,,,,,,,,,,,,3.5,2.0,,
7,,feedback,,html-keyboard-response,7,44789,0.0-1.0-6.0-0.0,0,0,23720,,,,,,0.0,,,,,,,,,,,,,,,,,,,,,,4.5,1.0,,
8,,iti,,html-keyboard-response,8,45790,0.0-1.0-7.0,0,0,23720,,,,,,,,,,,,,,,,,,,,,,,,,,,,5.5,1.0,,
9,,rl_choice,,html-keyboard-response,9,46363,0.0-1.0-9.0,0,0,23720,,572.0,,,75.0,1.0,1.0,1.0,easy,1000.0,3000.0,1.0,80.0,20.0,100.0,40.0,B,A,/static/Simple_RL/Stimuli/Fractals_stims/B.jpg,/static/Simple_RL/Stimuli/Fractals_stims/A.jpg,0.0,20.0,80.0,40.0,100.0,A,B,6.072,0.572,0.0,
10,,rl_choice_confirmation,,html-keyboard-response,10,47293,0.0-1.0-10.0-0.0,0,0,23720,,,,,,1.0,,,,,,,,,,,,,,,,,,,,,,7.0,0.928,,
11,,isi,,html-keyboard-response,11,50294,0.0-1.0-12.0,0,0,23720,,,,,,,,,,,,,,,,,,,,,,,,,,,,10.0,3.0,,
12,,feedback,,html-keyboard-response,12,51296,0.0-1.0-13.0-0.0,0,0,23720,,,,,,1.0,,,,,,,,,,,,,,,,,,,,,,11.0,1.0,,
13,,iti,,html-keyboard-response,13,52297,0.0-1.0-14.0,0,0,23720,,,,,,,,,,,,,,,,,,,,,,,,,,,,12.0,1.0,,
14,,rl_choice,,html-keyboard-response,14,52823,0.0-1.0-16.0,0,0,23720,,524.0,,,75.0,2.0,2.0,1.0,hard,3000.0,1000.0,0.0,40.0,60.0,20.0,80.0,C,D,/static/Simple_RL/Stimuli/Fractals_stims/C.jpg,/static/Simple_RL/Stimuli/Fractals_stims/D.jpg,0.0,60.0,40.0,80.0,20.0,D,C,12.524,0.524,0.0,
15,,rl_choice_confirmation,,html-keyboard-response,15,53800,0.0-1.0-17.0-0.0,0,0,23720,,,,,,2.0,,,,,,,,,,,,,,,,,,,,,,13.5,0.976,,
16,,isi,,html-keyboard-response,16,54802,0.0-1.0-19.0,0,0,23720,,,,,,,,,,,,,,,,,,,,,,,,,,,,14.5,1.0,,
17,,feedback,,html-keyboard-response,17,55803,0.0-1.0-20.0-0.0,0,0,23720,,,,,,2.0,,,,,,,,,,,,,,,,,,,,,,15.5,1.0,,
18,,iti,,html-keyboard-response,18,58804,0.0-1.0-21.0,0,0,23720,,,,,,,,,,,,,,,,,,,,,,,,,,,,18.5,3.0,,
19,,rl_choice,,html-keyboard-response,19,59097,0.0-1.0-23.0,0,0,23720,,292.0,,,75.0,3.0,3.0,1.0,hard,1000.0,3500.0,0.0,40.0,60.0,60.0,60.0,C,D,/static/Simple_RL/Stimuli/Fractals_stims/C.jpg,/static/Simple_RL/Stimuli/Fractals_stims/D.jpg,0.0,60.0,40.0,60.0,60.0,D,C,18.792,0.292,0.0,
20,,rl_choice_confirmation,,html-keyboard-response,20,60307,0.0-1.0-24.0-0.0,0,0,23720,,,,,,3.0,,,,,,,,,,,,,,,,,,,,,,20.0,1.208,,
21,,isi,,html-keyboard-response,21,63809,0.0-1.0-26.0,0,0,23720,,,,,,,,,,,,,,,,,,,,,,,,,,,,23.5,3.5,,
22,,feedback,,html-keyboard-response,22,64810,0.0-1.0-27.0-0.0,0,0,23720,,,,,,3.0,,,,,,,,,,,,,,,,,,,,,,24.5,1.0,,
23,,iti,,html-keyboard-response,23,65812,0.0-1.0-28.0,0,0,23720,,,,,,,,,,,,,,,,,,,,,,,,,,,,25.5,1.0,,
24,,rl_choice,,html-keyboard-response,24,66132,0.0-1.0-30.0,0,0,23720,,319.0,,,75.0,4.0,4.0,1.0,hard,1500.0,3000.0,0.0,40.0,60.0,20.0,60.0,C,D,/static/Simple_RL/Stimuli/Fractals_stims/C.jpg,/static/Simple_RL/Stimuli/Fractals_stims/D.jpg,0.0,60.0,40.0,60.0,20.0,D,C,25.819,0.319,0.0,
25,,rl_choice_confirmation,,html-keyboard-response,25,67315,0.0-1.0-31.0-0.0,0,0,23720,,,,,,4.0,,,,,,,,,,,,,,,,,,,,,,27.0,1.181,,
26,,isi,,html-keyboard-response,26,70317,0.0-1.0-33.0,0,0,23720,,,,,,,,,,,,,,,,,,,,,,,,,,,,30.0,3.0,,
27,,feedback,,html-keyboard-response,27,71318,0.0-1.0-34.0-0.0,0,0,23720,,,,,,4.0,,,,,,,,,,,,,,,,,,,,,,31.0,1.0,,
28,,iti,,html-keyboard-response,28,72820,0.0-1.0-35.0,0,0,23720,,,,,,,,,,,,,,,,,,,,,,,,,,,,32.5,1.5,,
29,,rl_choice,,html-keyboard-response,29,73279,0.0-1.0-37.0,0,0,23720,,458.0,,,75.0,5.0,5.0,1.0,easy,2000.0,2000.0,0.0,20.0,80.0,20.0,100.0,A,B,/static/Simple_RL/Stimuli/Fractals_stims/A.jpg,/static/Simple_RL/Stimuli/Fractals_stims/B.jpg,0.0,80.0,20.0,100.0,20.0,B,A,32.958,0.458,0.0,
30,,rl_choice_confirmation,,html-keyboard-response,30,74323,0.0-1.0-38.0-0.0,0,0,23720,,,,,,5.0,,,,,,,,,,,,,,,,,,,,,,34.0,1.042,,
31,,isi,,html-keyboard-response,31,76325,0.0-1.0-40.0,0,0,23720,,,,,,,,,,,,,,,,,,,,,,,,,,,,36.0,2.0,,
32,,feedback,,html-keyboard-response,32,77327,0.0-1.0-41.0-0.0,0,0,23720,,,,,,5.0,,,,,,,,,,,,,,,,,,,,,,37.0,1.0,,
33,,iti,,html-keyboard-response,33,79328,0.0-1.0-42.0,0,0,23720,,,,,,,,,,,,,,,,,,,,,,,,,,,,39.0,2.0,,
34,,rl_choice,,html-keyboard-response,34,79919,0.0-1.0-44.0,0,0,23720,,590.0,,,75.0,6.0,6.0,1.0,hard,1000.0,1000.0,0.0,40.0,60.0,40.0,80.0,C,D,/static/Simple_RL/Stimuli/Fractals_stims/C.jpg,/static/Simple_RL/Stimuli/Fractals_stims/D.jpg,0.0,60.0,40.0,80.0,40.0,D,C,39.59,0.59,0.0,
35,,rl_choice_confirmation,,html-keyboard-response,35,80830,0.0-1.0-45.0-0.0,0,0,23720,,,,,,6.0,,,,,,,,,,,,,,,,,,,,,,40.5,0.91,,
36,,isi,,html-keyboard-response,36,81832,0.0-1.0-47.0,0,0,23720,,,,,,,,,,,,,,,,,,,,,,,,,,,,41.5,1.0,,
37,,feedback,,html-keyboard-response,37,82833,0.0-1.0-48.0-0.0,0,0,23720,,,,,,6.0,,,,,,,,,,,,,,,,,,,,,,42.5,1.0,,
38,,iti,,html-keyboard-response,38,83834,0.0-1.0-49.0,0,0,23720,,,,,,,,,,,,,,,,,,,,,,,,,,,,43.5,1.0,,
39,,rl_choice,,html-keyboard-response,39,84340,0.0-1.0-51.0,0,0,23720,,504.0,,,75.0,7.0,7.0,1.0,hard,1500.0,1000.0,0.0,40.0,60.0,60.0,80.0,C,D,/static/Simple_RL/Stimuli/Fractals_stims/C.jpg,/static/Simple_RL/Stimuli/Fractals_stims/D.jpg,0.0,60.0,40.0,80.0,60.0,D,C,44.004,0.504,0.0,
40,,rl_choice_confirmation,,html-keyboard-response,40,85338,0.0-1.0-52.0-0.0,0,0,23720,,,,,,7.0,,,,,,,,,,,,,,,,,,,,,,45.0,0.996,,
41,,isi,,html-keyboard-response,41,86338,0.0-1.0-54.0,0,0,23720,,,,,,,,,,,,,,,,,,,,,,,,,,,,46.0,1.0,,
42,,feedback,,html-keyboard-response,42,87347,0.0-1.0-55.0-0.0,0,0,23720,,,,,,7.0,,,,,,,,,,,,,,,,,,,,,,47.0,1.0,,
43,,iti,,html-keyboard-response,43,88849,0.0-1.0-56.0,0,0,23720,,,,,,,,,,,,,,,,,,,,,,,,,,,,48.5,1.5,,
44,,rl_choice,,html-keyboard-response,44,89560,0.0-1.0-58.0,0,0,23720,,711.0,,,75.0,8.0,8.0,1.0,easy,1500.0,2000.0,0.0,20.0,80.0,0.0,100.0,A,B,/static/Simple_RL/Stimuli/Fractals_stims/A.jpg,/static/Simple_RL/Stimuli/Fractals_stims/B.jpg,0.0,80.0,20.0,100.0,0.0,B,A,49.211,0.711,0.0,
45,,rl_choice_confirmation,,html-keyboard-response,45,90362,0.0-1.0-59.0-0.0,0,0,23720,,,,,,8.0,,,,,,,,,,,,,,,,,,,,,,50.0,0.789,,
46,,isi,,html-keyboard-response,46,92363,0.0-1.0-61.0,0,0,23720,,,,,,,,,,,,,,,,,,,,,,,,,,,,52.0,2.0,,
47,,feedback,,html-keyboard-response,47,93365,0.0-1.0-62.0-0.0,0,0,23720,,,,,,8.0,,,,,,,,,,,,,,,,,,,,,,53.0,1.0,,
48,,iti,,html-keyboard-response,48,94867,0.0-1.0-63.0,0,0,23720,,,,,,,,,,,,,,,,,,,,,,,,,,,,54.5,1.5,,
49,,rl_choice,,html-keyboard-response,49,95300,0.0-1.0-65.0,0,0,23720,,433.0,,,75.0,9.0,9.0,1.0,easy,2000.0,1000.0,1.0,80.0,20.0,60.0,0.0,B,A,/static/Simple_RL/Stimuli/Fractals_stims/B.jpg,/static/Simple_RL/Stimuli/Fractals_stims/A.jpg,0.0,20.0,80.0,0.0,60.0,A,B,54.933,0.433,0.0,
50,,rl_choice_confirmation,,html-keyboard-response,50,96369,0.0-1.0-66.0-0.0,0,0,23720,,,,,,9.0,,,,,,,,,,,,,,,,,,,,,,56.0,1.067,,
51,,isi,,html-keyboard-response,51,97370,0.0-1.0-68.0,0,0,23720,,,,,,,,,,,,,,,,,,,,,,,,,,,,57.0,1.0,,
52,,feedback,,html-keyboard-response,52,98372,0.0-1.0-69.0-0.0,0,0,23720,,,,,,9.0,,,,,,,,,,,,,,,,,,,,,,58.0,1.0,,
53,,iti,,html-keyboard-response,53,100374,0.0-1.0-70.0,0,0,23720,,,,,,,,,,,,,,,,,,,,,,,,,,,,60.0,2.0,,
54,,rl_choice,,html-keyboard-response,54,100789,0.0-1.0-72.0,0,0,23720,,415.0,,,75.0,10.0,10.0,1.0,hard,1000.0,1000.0,1.0,60.0,40.0,40.0,40.0,D,C,/static/Simple_RL/Stimuli/Fractals_stims/D.jpg,/static/Simple_RL/Stimuli/Fractals_stims/C.jpg,0.0,40.0,60.0,40.0,40.0,C,D,60.415,0.415,0.0,
55,,rl_choice_confirmation,,html-keyboard-response,55,101876,0.0-1.0-73.0-0.0,0,0,23720,,,,,,10.0,,,,,,,,,,,,,,,,,,,,,,61.5,1.085,,
56,,isi,,html-keyboard-response,56,102877,0.0-1.0-75.0,0,0,23720,,,,,,,,,,,,,,,,,,,,,,,,,,,,62.5,1.0,,
57,,feedback,,html-keyboard-response,57,103878,0.0-1.0-76.0-0.0,0,0,23720,,,,,,10.0,,,,,,,,,,,,,,,,,,,,,,63.5,1.0,,
58,,iti,,html-keyboard-response,58,104880,0.0-1.0-77.0,0,0,23720,,,,,,,,,,,,,,,,,,,,,,,,,,,,64.5,1.0,,
59,,rl_choice,,html-keyboard-response,59,105804,0.0-1.0-79.0,0,0,23720,,924.0,,,75.0,11.0,11.0,1.0,easy,1000.0,3000.0,0.0,20.0,80.0,20.0,60.0,A,B,/static/Simple_RL/Stimuli/Fractals_stims/A.jpg,/static/Simple_RL/Stimuli/Fractals_stims/B.jpg,0.0,80.0,20.0,60.0,20.0,B,A,65.424,0.924,0.0,
60,,rl_choice_confirmation,,html-keyboard-response,60,106382,0.0-1.0-80.0-0.0,0,0,23720,,,,,,11.0,,,,,,,,,,,,,,,,,,,,,,66.0,0.576,,
61,,isi,,html-keyboard-response,61,109384,0.0-1.0-82.0,0,0,23720,,,,,,,,,,,,,,,,,,,,,,,,,,,,69.0,3.0,,
62,,feedback,,html-keyboard-response,62,110386,0.0-1.0-83.0-0.0,0,0,23720,,,,,,11.0,,,,,,,,,,,,,,,,,,,,,,70.0,1.0,,
63,,iti,,html-keyboard-response,63,111387,0.0-1.0-84.0,0,0,23720,,,,,,,,,,,,,,,,,,,,,,,,,,,,71.0,1.0,,
64,,rl_choice,,html-keyboard-response,64,112227,0.0-1.0-86.0,0,0,23720,,839.0,,,75.0,12.0,12.0,1.0,easy,3000.0,1500.0,0.0,20.0,80.0,20.0,80.0,A,B,/static/Simple_RL/Stimuli/Fractals_stims/A.jpg,/static/Simple_RL/Stimuli/Fractals_stims/B.jpg,0.0,80.0,20.0,80.0,20.0,B,A,71.839,0.839,0.0,
65,,rl_choice_confirmation,,html-keyboard-response,65,112890,0.0-1.0-87.0-0.0,0,0,23720,,,,,,12.0,,,,,,,,,,,,,,,,,,,,,,72.5,0.661,,
66,,isi,,html-keyboard-response,66,114392,0.0-1.0-89.0,0,0,23720,,,,,,,,,,,,,,,,,,,,,,,,,,,,74.0,1.5,,
67,,feedback,,html-keyboard-response,67,115393,0.0-1.0-90.0-0.0,0,0,23720,,,,,,12.0,,,,,,,,,,,,,,,,,,,,,,75.0,1.0,,
68,,iti,,html-keyboard-response,68,118394,0.0-1.0-91.0,0,0,23720,,,,,,,,,,,,,,,,,,,,,,,,,,,,78.0,3.0,,
69,,rl_choice,,html-keyboard-response,69,118764,0.0-1.0-93.0,0,0,23720,,369.0,,,75.0,13.0,13.0,1.0,hard,1000.0,2000.0,0.0,40.0,60.0,40.0,80.0,C,D,/static/Simple_RL/Stimuli/Fractals_stims/C.jpg,/static/Simple_RL/Stimuli/Fractals_stims/D.jpg,0.0,60.0,40.0,80.0,40.0,D,C,78.369,0.369,0.0,
70,,rl_choice_confirmation,,html-keyboard-response,70,119896,0.0-1.0-94.0-0.0,0,0,23720,,,,,,13.0,,,,,,,,,,,,,,,,,,,,,,79.5,1.131,,
71,,isi,,html-keyboard-response,71,121898,0.0-1.0-96.0,0,0,23720,,,,,,,,,,,,,,,,,,,,,,,,,,,,81.5,2.0,,
72,,feedback,,html-keyboard-response,72,122899,0.0-1.0-97.0-0.0,0,0,23720,,,,,,13.0,,,,,,,,,,,,,,,,,,,,,,82.5,1.0,,
73,,iti,,html-keyboard-response,73,123901,0.0-1.0-98.0,0,0,23720,,,,,,,,,,,,,,,,,,,,,,,,,,,,83.5,1.0,,
74,,rl_choice,,html-keyboard-response,74,124394,0.0-1.0-100.0,0,0,23720,,493.0,,,75.0,14.0,14.0,1.0,easy,1500.0,1500.0,0.0,20.0,80.0,20.0,80.0,A,B,/static/Simple_RL/Stimuli/Fractals_stims/A.jpg,/static/Simple_RL/Stimuli/Fractals_stims/B.jpg,0.0,80.0,20.0,80.0,20.0,B,A,83.993,0.493,0.0,
75,,rl_choice_confirmation,,html-keyboard-response,75,125402,0.0-1.0-101.0-0.0,0,0,23720,,,,,,14.0,,,,,,,,,,,,,,,,,,,,,,85.0,1.007,,
76,,isi,,html-keyboard-response,76,126905,0.0-1.0-103.0,0,0,23720,,,,,,,,,,,,,,,,,,,,,,,,,,,,86.5,1.5,,
77,,feedback,,html-keyboard-response,77,127907,0.0-1.0-104.0-0.0,0,0,23720,,,,,,14.0,,,,,,,,,,,,,,,,,,,,,,87.5,1.0,,
78,,iti,,html-keyboard-response,78,129409,0.0-1.0-105.0,0,0,23720,,,,,,,,,,,,,,,,,,,,,,,,,,,,89.0,1.5,,
79,,rl_choice,,html-keyboard-response,79,129700,0.0-1.0-107.0,0,0,23720,,291.0,,,75.0,15.0,15.0,1.0,hard,1500.0,2000.0,1.0,60.0,40.0,40.0,60.0,D,C,/static/Simple_RL/Stimuli/Fractals_stims/D.jpg,/static/Simple_RL/Stimuli/Fractals_stims/C.jpg,0.0,40.0,60.0,60.0,40.0,C,D,89.291,0.291,0.0,
80,,rl_choice_confirmation,,html-keyboard-response,80,130910,0.0-1.0-108.0-0.0,0,0,23720,,,,,,15.0,,,,,,,,,,,,,,,,,,,,,,90.5,1.209,,
81,,isi,,html-keyboard-response,81,132911,0.0-1.0-110.0,0,0,23720,,,,,,,,,,,,,,,,,,,,,,,,,,,,92.5,2.0,,
82,,feedback,,html-keyboard-response,82,133914,0.0-1.0-111.0-0.0,0,0,23720,,,,,,15.0,,,,,,,,,,,,,,,,,,,,,,93.5,1.0,,
83,,iti,,html-keyboard-response,83,135416,0.0-1.0-112.0,0,0,23720,,,,,,,,,,,,,,,,,,,,,,,,,,,,95.0,1.5,,
84,,rl_choice,,html-keyboard-response,84,135654,0.0-1.0-114.0,0,0,23720,,238.0,,,75.0,16.0,16.0,1.0,hard,1000.0,1000.0,1.0,60.0,40.0,60.0,60.0,D,C,/static/Simple_RL/Stimuli/Fractals_stims/D.jpg,/static/Simple_RL/Stimuli/Fractals_stims/C.jpg,0.0,40.0,60.0,60.0,60.0,C,D,95.238,0.238,0.0,
85,,rl_choice_confirmation,,html-keyboard-response,85,136918,0.0-1.0-115.0-0.0,0,0,23720,,,,,,16.0,,,,,,,,,,,,,,,,,,,,,,96.5,1.262,,
86,,isi,,html-keyboard-response,86,137921,0.0-1.0-117.0,0,0,23720,,,,,,,,,,,,,,,,,,,,,,,,,,,,97.5,1.0,,
87,,feedback,,html-keyboard-response,87,138923,0.0-1.0-118.0-0.0,0,0,23720,,,,,,16.0,,,,,,,,,,,,,,,,,,,,,,98.5,1.0,,
88,,iti,,html-keyboard-response,88,139926,0.0-1.0-119.0,0,0,23720,,,,,,,,,,,,,,,,,,,,,,,,,,,,99.5,1.0,,
89,,rl_choice,,html-keyboard-response,89,140438,0.0-1.0-121.0,0,0,23720,,512.0,,,75.0,17.0,17.0,1.0,easy,3000.0,1500.0,1.0,80.0,20.0,60.0,20.0,B,A,/static/Simple_RL/Stimuli/Fractals_stims/B.jpg,/static/Simple_RL/Stimuli/Fractals_stims/A.jpg,0.0,20.0,80.0,20.0,60.0,A,B,100.012,0.512,0.0,
90,,rl_choice_confirmation,,html-keyboard-response,90,141428,0.0-1.0-122.0-0.0,0,0,23720,,,,,,17.0,,,,,,,,,,,,,,,,,,,,,,101.0,0.988,,
91,,isi,,html-keyboard-response,91,142930,0.0-1.0-124.0,0,0,23720,,,,,,,,,,,,,,,,,,,,,,,,,,,,102.5,1.5,,
92,,feedback,,html-keyboard-response,92,143932,0.0-1.0-125.0-0.0,0,0,23720,,,,,,17.0,,,,,,,,,,,,,,,,,,,,,,103.5,1.0,,
93,,iti,,html-keyboard-response,93,146934,0.0-1.0-126.0,0,0,23720,,,,,,,,,,,,,,,,,,,,,,,,,,,,106.5,3.0,,
94,,rl_choice,,html-keyboard-response,94,147023,0.0-1.0-128.0,0,0,23720,,88.0,,,75.0,18.0,18.0,1.0,hard,3500.0,1500.0,1.0,60.0,40.0,60.0,60.0,D,C,/static/Simple_RL/Stimuli/Fractals_stims/D.jpg,/static/Simple_RL/Stimuli/Fractals_stims/C.jpg,0.0,40.0,60.0,60.0,60.0,C,D,106.588,0.088,0.0,
95,,rl_choice_confirmation,,html-keyboard-response,95,148437,0.0-1.0-129.0-0.0,0,0,23720,,,,,,18.0,,,,,,,,,,,,,,,,,,,,,,108.0,1.412,,
96,,isi,,html-keyboard-response,96,149939,0.0-1.0-131.0,0,0,23720,,,,,,,,,,,,,,,,,,,,,,,,,,,,109.5,1.5,,
97,,feedback,,html-keyboard-response,97,150942,0.0-1.0-132.0-0.0,0,0,23720,,,,,,18.0,,,,,,,,,,,,,,,,,,,,,,110.5,1.0,,
98,,iti,,html-keyboard-response,98,154443,0.0-1.0-133.0,0,0,23720,,,,,,,,,,,,,,,,,,,,,,,,,,,,114.0,3.5,,
99,,rl_choice,,html-keyboard-response,99,154947,0.0-1.0-135.0,0,0,23720,,503.0,,,75.0,19.0,19.0,1.0,hard,2000.0,1500.0,1.0,60.0,40.0,60.0,20.0,D,C,/static/Simple_RL/Stimuli/Fractals_stims/D.jpg,/static/Simple_RL/Stimuli/Fractals_stims/C.jpg,0.0,40.0,60.0,20.0,60.0,C,D,114.503,0.503,0.0,
100,,rl_choice_confirmation,,html-keyboard-response,100,155946,0.0-1.0-136.0-0.0,0,0,23720,,,,,,19.0,,,,,,,,,,,,,,,,,,,,,,115.5,0.997,,
101,,isi,,html-keyboard-response,101,157447,0.0-1.0-138.0,0,0,23720,,,,,,,,,,,,,,,,,,,,,,,,,,,,117.0,1.5,,
102,,feedback,,html-keyboard-response,102,158448,0.0-1.0-139.0-0.0,0,0,23720,,,,,,19.0,,,,,,,,,,,,,,,,,,,,,,118.0,1.0,,
103,,iti,,html-keyboard-response,103,160450,0.0-1.0-140.0,0,0,23720,,,,,,,,,,,,,,,,,,,,,,,,,,,,120.0,2.0,,
104,,rl_choice,,html-keyboard-response,104,160965,0.0-1.0-142.0,0,0,23720,,515.0,,,75.0,20.0,20.0,1.0,easy,2000.0,1000.0,1.0,80.0,20.0,80.0,20.0,B,A,/static/Simple_RL/Stimuli/Fractals_stims/B.jpg,/static/Simple_RL/Stimuli/Fractals_stims/A.jpg,0.0,20.0,80.0,20.0,80.0,A,B,120.515,0.515,0.0,
105,,rl_choice_confirmation,,html-keyboard-response,105,161952,0.0-1.0-143.0-0.0,0,0,23720,,,,,,20.0,,,,,,,,,,,,,,,,,,,,,,121.5,0.985,,
106,,isi,,html-keyboard-response,106,162953,0.0-1.0-145.0,0,0,23720,,,,,,,,,,,,,,,,,,,,,,,,,,,,122.5,1.0,,
107,,feedback,,html-keyboard-response,107,163955,0.0-1.0-146.0-0.0,0,0,23720,,,,,,20.0,,,,,,,,,,,,,,,,,,,,,,123.5,1.0,,
108,,iti,,html-keyboard-response,108,165957,0.0-1.0-147.0,0,0,23720,,,,,,,,,,,,,,,,,,,,,,,,,,,,125.5,2.0,,
109,,rl_choice,,html-keyboard-response,109,167459,0.0-1.0-149.0,0,0,23720,,,,,,21.0,21.0,1.0,easy,1500.0,2000.0,1.0,80.0,20.0,80.0,20.0,B,A,/static/Simple_RL/Stimuli/Fractals_stims/B.jpg,/static/Simple_RL/Stimuli/Fractals_stims/A.jpg,,,,,,,,127.0,1.5,1.0,
110,,rl_choice_warning,,html-keyboard-response,110,168475,0.0-1.0-151.0-0.0,0,0,23720,,,,,,,,,,,,,,,,,,,,,,,,,,,,128.0,1.0,,
111,,isi,,html-keyboard-response,111,170477,0.0-1.0-152.0,0,0,23720,,,,,,,,,,,,,,,,,,,,,,,,,,,,130.0,2.0,,
112,,iti,,html-keyboard-response,112,171979,0.0-1.0-154.0,0,0,23720,,,,,,,,,,,,,,,,,,,,,,,,,,,,131.5,1.5,,
113,,rl_choice,,html-keyboard-response,113,172366,0.0-1.0-156.0,0,0,23720,,386.0,,,75.0,22.0,22.0,1.0,easy,1000.0,1000.0,0.0,20.0,80.0,0.0,100.0,A,B,/static/Simple_RL/Stimuli/Fractals_stims/A.jpg,/static/Simple_RL/Stimuli/Fractals_stims/B.jpg,0.0,80.0,20.0,100.0,0.0,B,A,131.886,0.386,0.0,
114,,rl_choice_confirmation,,html-keyboard-response,114,173481,0.0-1.0-157.0-0.0,0,0,23720,,,,,,22.0,,,,,,,,,,,,,,,,,,,,,,133.0,1.114,,
115,,isi,,html-keyboard-response,115,174482,0.0-1.0-159.0,0,0,23720,,,,,,,,,,,,,,,,,,,,,,,,,,,,134.0,1.0,,
116,,feedback,,html-keyboard-response,116,175484,0.0-1.0-160.0-0.0,0,0,23720,,,,,,22.0,,,,,,,,,,,,,,,,,,,,,,135.0,1.0,,
117,,iti,,html-keyboard-response,117,176485,0.0-1.0-161.0,0,0,23720,,,,,,,,,,,,,,,,,,,,,,,,,,,,136.0,1.0,,
118,,rl_choice,,html-keyboard-response,118,177987,0.0-1.0-163.0,0,0,23720,,,,,,23.0,23.0,1.0,hard,2000.0,1000.0,1.0,60.0,40.0,80.0,60.0,D,C,/static/Simple_RL/Stimuli/Fractals_stims/D.jpg,/static/Simple_RL/Stimuli/Fractals_stims/C.jpg,,,,,,,,137.5,1.5,1.0,
119,,rl_choice_warning,,html-keyboard-response,119,178989,0.0-1.0-165.0-0.0,0,0,23720,,,,,,,,,,,,,,,,,,,,,,,,,,,,138.5,1.0,,
120,,isi,,html-keyboard-response,120,179991,0.0-1.0-166.0,0,0,23720,,,,,,,,,,,,,,,,,,,,,,,,,,,,139.5,1.0,,
121,,iti,,html-keyboard-response,121,181993,0.0-1.0-168.0,0,0,23720,,,,,,,,,,,,,,,,,,,,,,,,,,,,141.5,2.0,,
122,,rl_choice,,html-keyboard-response,122,182296,0.0-1.0-170.0,0,0,23720,,303.0,,,75.0,24.0,24.0,1.0,hard,1000.0,3000.0,1.0,60.0,40.0,40.0,60.0,D,C,/static/Simple_RL/Stimuli/Fractals_stims/D.jpg,/static/Simple_RL/Stimuli/Fractals_stims/C.jpg,0.0,40.0,60.0,60.0,40.0,C,D,141.803,0.303,0.0,
123,,rl_choice_confirmation,,html-keyboard-response,123,183495,0.0-1.0-171.0-0.0,0,0,23720,,,,,,24.0,,,,,,,,,,,,,,,,,,,,,,143.0,1.197,,
124,,isi,,html-keyboard-response,124,186496,0.0-1.0-173.0,0,0,23720,,,,,,,,,,,,,,,,,,,,,,,,,,,,146.0,3.0,,
125,,feedback,,html-keyboard-response,125,187497,0.0-1.0-174.0-0.0,0,0,23720,,,,,,24.0,,,,,,,,,,,,,,,,,,,,,,147.0,1.0,,
126,,iti,,html-keyboard-response,126,188498,0.0-1.0-175.0,0,0,23720,,,,,,,,,,,,,,,,,,,,,,,,,,,,148.0,1.0,,
127,,rl_choice,,html-keyboard-response,127,188760,0.0-1.0-177.0,0,0,23720,,261.0,,,75.0,25.0,25.0,1.0,hard,2000.0,1000.0,1.0,60.0,40.0,40.0,40.0,D,C,/static/Simple_RL/Stimuli/Fractals_stims/D.jpg,/static/Simple_RL/Stimuli/Fractals_stims/C.jpg,0.0,40.0,60.0,40.0,40.0,C,D,148.261,0.261,0.0,
128,,rl_choice_confirmation,,html-keyboard-response,128,190001,0.0-1.0-178.0-0.0,0,0,23720,,,,,,25.0,,,,,,,,,,,,,,,,,,,,,,149.5,1.239,,
129,,isi,,html-keyboard-response,129,191002,0.0-1.0-180.0,0,0,23720,,,,,,,,,,,,,,,,,,,,,,,,,,,,150.5,1.0,,
130,,feedback,,html-keyboard-response,130,192004,0.0-1.0-181.0-0.0,0,0,23720,,,,,,25.0,,,,,,,,,,,,,,,,,,,,,,151.5,1.0,,
131,,iti,,html-keyboard-response,131,194006,0.0-1.0-182.0,0,0,23720,,,,,,,,,,,,,,,,,,,,,,,,,,,,153.5,2.0,,
132,,rl_choice,,html-keyboard-response,132,194596,0.0-1.0-184.0,0,0,23720,,589.0,,,75.0,26.0,26.0,1.0,easy,1000.0,1000.0,1.0,80.0,20.0,100.0,20.0,B,A,/static/Simple_RL/Stimuli/Fractals_stims/B.jpg,/static/Simple_RL/Stimuli/Fractals_stims/A.jpg,0.0,20.0,80.0,20.0,100.0,A,B,154.089,0.589,0.0,
133,,rl_choice_confirmation,,html-keyboard-response,133,195508,0.0-1.0-185.0-0.0,0,0,23720,,,,,,26.0,,,,,,,,,,,,,,,,,,,,,,155.0,0.911,,
134,,isi,,html-keyboard-response,134,196510,0.0-1.0-187.0,0,0,23720,,,,,,,,,,,,,,,,,,,,,,,,,,,,156.0,1.0,,
135,,feedback,,html-keyboard-response,135,197511,0.0-1.0-188.0-0.0,0,0,23720,,,,,,26.0,,,,,,,,,,,,,,,,,,,,,,157.0,1.0,,
136,,iti,,html-keyboard-response,136,198512,0.0-1.0-189.0,0,0,23720,,,,,,,,,,,,,,,,,,,,,,,,,,,,158.0,1.0,,
137,,rl_choice,,html-keyboard-response,137,198779,0.0-1.0-191.0,0,0,23720,,266.0,,,75.0,27.0,27.0,1.0,hard,1000.0,1500.0,0.0,40.0,60.0,20.0,80.0,C,D,/static/Simple_RL/Stimuli/Fractals_stims/C.jpg,/static/Simple_RL/Stimuli/Fractals_stims/D.jpg,0.0,60.0,40.0,80.0,20.0,D,C,158.266,0.266,0.0,
138,,rl_choice_confirmation,,html-keyboard-response,138,200015,0.0-1.0-192.0-0.0,0,0,23720,,,,,,27.0,,,,,,,,,,,,,,,,,,,,,,159.5,1.234,,
139,,isi,,html-keyboard-response,139,201516,0.0-1.0-194.0,0,0,23720,,,,,,,,,,,,,,,,,,,,,,,,,,,,161.0,1.5,,
140,,feedback,,html-keyboard-response,140,202518,0.0-1.0-195.0-0.0,0,0,23720,,,,,,27.0,,,,,,,,,,,,,,,,,,,,,,162.0,1.0,,
141,,iti,,html-keyboard-response,141,203519,0.0-1.0-196.0,0,0,23720,,,,,,,,,,,,,,,,,,,,,,,,,,,,163.0,1.0,,
142,,rl_choice,,html-keyboard-response,142,203990,0.0-1.0-198.0,0,0,23720,,471.0,,,75.0,28.0,28.0,1.0,hard,1500.0,1500.0,0.0,40.0,60.0,40.0,40.0,C,D,/static/Simple_RL/Stimuli/Fractals_stims/C.jpg,/static/Simple_RL/Stimuli/Fractals_stims/D.jpg,0.0,60.0,40.0,40.0,40.0,D,C,163.471,0.471,0.0,
143,,rl_choice_confirmation,,html-keyboard-response,143,205021,0.0-1.0-199.0-0.0,0,0,23720,,,,,,28.0,,,,,,,,,,,,,,,,,,,,,,164.5,1.029,,
144,,isi,,html-keyboard-response,144,206523,0.0-1.0-201.0,0,0,23720,,,,,,,,,,,,,,,,,,,,,,,,,,,,166.0,1.5,,
145,,feedback,,html-keyboard-response,145,207524,0.0-1.0-202.0-0.0,0,0,23720,,,,,,28.0,,,,,,,,,,,,,,,,,,,,,,167.0,1.0,,
146,,iti,,html-keyboard-response,146,209026,0.0-1.0-203.0,0,0,23720,,,,,,,,,,,,,,,,,,,,,,,,,,,,168.5,1.5,,
147,,rl_choice,,html-keyboard-response,147,209652,0.0-1.0-205.0,0,0,23720,,626.0,,,75.0,29.0,29.0,1.0,easy,1000.0,1000.0,0.0,20.0,80.0,20.0,80.0,A,B,/static/Simple_RL/Stimuli/Fractals_stims/A.jpg,/static/Simple_RL/Stimuli/Fractals_stims/B.jpg,0.0,80.0,20.0,80.0,20.0,B,A,169.126,0.626,0.0,
148,,rl_choice_confirmation,,html-keyboard-response,148,210528,0.0-1.0-206.0-0.0,0,0,23720,,,,,,29.0,,,,,,,,,,,,,,,,,,,,,,170.0,0.874,,
149,,isi,,html-keyboard-response,149,211529,0.0-1.0-208.0,0,0,23720,,,,,,,,,,,,,,,,,,,,,,,,,,,,171.0,1.0,,
150,,feedback,,html-keyboard-response,150,212531,0.0-1.0-209.0-0.0,0,0,23720,,,,,,29.0,,,,,,,,,,,,,,,,,,,,,,172.0,1.0,,
151,,iti,,html-keyboard-response,151,213532,0.0-1.0-210.0,0,0,23720,,,,,,,,,,,,,,,,,,,,,,,,,,,,173.0,1.0,,
152,,rl_choice,,html-keyboard-response,152,214447,0.0-1.0-212.0,0,0,23720,,915.0,,,75.0,30.0,30.0,1.0,hard,1500.0,2000.0,1.0,60.0,40.0,80.0,60.0,D,C,/static/Simple_RL/Stimuli/Fractals_stims/D.jpg,/static/Simple_RL/Stimuli/Fractals_stims/C.jpg,0.0,40.0,60.0,60.0,80.0,C,D,173.915,0.915,0.0,
153,,rl_choice_confirmation,,html-keyboard-response,153,215034,0.0-1.0-213.0-0.0,0,0,23720,,,,,,30.0,,,,,,,,,,,,,,,,,,,,,,174.5,0.585,,
154,,isi,,html-keyboard-response,154,217036,0.0-1.0-215.0,0,0,23720,,,,,,,,,,,,,,,,,,,,,,,,,,,,176.5,2.0,,
155,,feedback,,html-keyboard-response,155,218038,0.0-1.0-216.0-0.0,0,0,23720,,,,,,30.0,,,,,,,,,,,,,,,,,,,,,,177.5,1.0,,
156,,iti,,html-keyboard-response,156,219539,0.0-1.0-217.0,0,0,23720,,,,,,,,,,,,,,,,,,,,,,,,,,,,179.0,1.5,,
157,,rl_choice,,html-keyboard-response,157,219986,0.0-1.0-219.0,0,0,23720,,447.0,,,75.0,31.0,31.0,1.0,easy,1000.0,1500.0,1.0,80.0,20.0,80.0,0.0,B,A,/static/Simple_RL/Stimuli/Fractals_stims/B.jpg,/static/Simple_RL/Stimuli/Fractals_stims/A.jpg,0.0,20.0,80.0,0.0,80.0,A,B,179.447,0.447,0.0,
158,,rl_choice_confirmation,,html-keyboard-response,158,221041,0.0-1.0-220.0-0.0,0,0,23720,,,,,,31.0,,,,,,,,,,,,,,,,,,,,,,180.5,1.053,,
159,,isi,,html-keyboard-response,159,222543,0.0-1.0-222.0,0,0,23720,,,,,,,,,,,,,,,,,,,,,,,,,,,,182.0,1.5,,
160,,feedback,,html-keyboard-response,160,223557,0.0-1.0-223.0-0.0,0,0,23720,,,,,,31.0,,,,,,,,,,,,,,,,,,,,,,183.0,1.0,,
161,,iti,,html-keyboard-response,161,224558,0.0-1.0-224.0,0,0,23720,,,,,,,,,,,,,,,,,,,,,,,,,,,,184.0,1.0,,
162,,rl_choice,,html-keyboard-response,162,225065,0.0-1.0-226.0,0,0,23720,,507.0,,,75.0,32.0,32.0,1.0,easy,1000.0,3500.0,1.0,80.0,20.0,60.0,20.0,B,A,/static/Simple_RL/Stimuli/Fractals_stims/B.jpg,/static/Simple_RL/Stimuli/Fractals_stims/A.jpg,0.0,20.0,80.0,20.0,60.0,A,B,184.507,0.507,0.0,
163,,rl_choice_confirmation,,html-keyboard-response,163,226061,0.0-1.0-227.0-0.0,0,0,23720,,,,,,32.0,,,,,,,,,,,,,,,,,,,,,,185.5,0.993,,
164,,isi,,html-keyboard-response,164,229562,0.0-1.0-229.0,0,0,23720,,,,,,,,,,,,,,,,,,,,,,,,,,,,189.0,3.5,,
165,,feedback,,html-keyboard-response,165,230563,0.0-1.0-230.0-0.0,0,0,23720,,,,,,32.0,,,,,,,,,,,,,,,,,,,,,,190.0,1.0,,
166,,iti,,html-keyboard-response,166,231565,0.0-1.0-231.0,0,0,23720,,,,,,,,,,,,,,,,,,,,,,,,,,,,191.0,1.0,,
167,,rl_choice,,html-keyboard-response,167,232152,0.0-1.0-233.0,0,0,23720,,587.0,,,75.0,33.0,33.0,1.0,hard,2000.0,1500.0,1.0,60.0,40.0,40.0,20.0,D,C,/static/Simple_RL/Stimuli/Fractals_stims/D.jpg,/static/Simple_RL/Stimuli/Fractals_stims/C.jpg,0.0,40.0,60.0,20.0,40.0,C,D,191.587,0.587,0.0,
168,,rl_choice_confirmation,,html-keyboard-response,168,233067,0.0-1.0-234.0-0.0,0,0,23720,,,,,,33.0,,,,,,,,,,,,,,,,,,,,,,192.5,0.913,,
169,,isi,,html-keyboard-response,169,234568,0.0-1.0-236.0,0,0,23720,,,,,,,,,,,,,,,,,,,,,,,,,,,,194.0,1.5,,
170,,feedback,,html-keyboard-response,170,235569,0.0-1.0-237.0-0.0,0,0,23720,,,,,,33.0,,,,,,,,,,,,,,,,,,,,,,195.0,1.0,,
171,,iti,,html-keyboard-response,171,237570,0.0-1.0-238.0,0,0,23720,,,,,,,,,,,,,,,,,,,,,,,,,,,,197.0,2.0,,
172,,rl_choice,,html-keyboard-response,172,237942,0.0-1.0-240.0,0,0,23720,,372.0,,,75.0,34.0,34.0,1.0,hard,3000.0,1000.0,0.0,40.0,60.0,20.0,60.0,C,D,/static/Simple_RL/Stimuli/Fractals_stims/C.jpg,/static/Simple_RL/Stimuli/Fractals_stims/D.jpg,0.0,60.0,40.0,60.0,20.0,D,C,197.372,0.372,0.0,
173,,rl_choice_confirmation,,html-keyboard-response,173,239072,0.0-1.0-241.0-0.0,0,0,23720,,,,,,34.0,,,,,,,,,,,,,,,,,,,,,,198.5,1.128,,
174,,isi,,html-keyboard-response,174,240073,0.0-1.0-243.0,0,0,23720,,,,,,,,,,,,,,,,,,,,,,,,,,,,199.5,1.0,,
175,,feedback,,html-keyboard-response,175,241075,0.0-1.0-244.0-0.0,0,0,23720,,,,,,34.0,,,,,,,,,,,,,,,,,,,,,,200.5,1.0,,
176,,iti,,html-keyboard-response,176,244076,0.0-1.0-245.0,0,0,23720,,,,,,,,,,,,,,,,,,,,,,,,,,,,203.5,3.0,,
177,,rl_choice,,html-keyboard-response,177,244440,0.0-1.0-247.0,0,0,23720,,362.0,,,75.0,35.0,35.0,1.0,easy,1500.0,1000.0,1.0,80.0,20.0,80.0,20.0,B,A,/static/Simple_RL/Stimuli/Fractals_stims/B.jpg,/static/Simple_RL/Stimuli/Fractals_stims/A.jpg,0.0,20.0,80.0,20.0,80.0,A,B,203.862,0.362,0.0,
178,,rl_choice_confirmation,,html-keyboard-response,178,245579,0.0-1.0-248.0-0.0,0,0,23720,,,,,,35.0,,,,,,,,,,,,,,,,,,,,,,205.0,1.138,,
179,,isi,,html-keyboard-response,179,246581,0.0-1.0-250.0,0,0,23720,,,,,,,,,,,,,,,,,,,,,,,,,,,,206.0,1.0,,
180,,feedback,,html-keyboard-response,180,247582,0.0-1.0-251.0-0.0,0,0,23720,,,,,,35.0,,,,,,,,,,,,,,,,,,,,,,207.0,1.0,,
181,,iti,,html-keyboard-response,181,249083,0.0-1.0-252.0,0,0,23720,,,,,,,,,,,,,,,,,,,,,,,,,,,,208.5,1.5,,
182,,rl_choice,,html-keyboard-response,182,249735,0.0-1.0-254.0,0,0,23720,,651.0,,,75.0,36.0,36.0,1.0,easy,1500.0,2000.0,1.0,80.0,20.0,80.0,40.0,B,A,/static/Simple_RL/Stimuli/Fractals_stims/B.jpg,/static/Simple_RL/Stimuli/Fractals_stims/A.jpg,0.0,20.0,80.0,40.0,80.0,A,B,209.151,0.651,0.0,
183,,rl_choice_confirmation,,html-keyboard-response,183,250586,0.0-1.0-255.0-0.0,0,0,23720,,,,,,36.0,,,,,,,,,,,,,,,,,,,,,,210.0,0.849,,
184,,isi,,html-keyboard-response,184,252588,0.0-1.0-257.0,0,0,23720,,,,,,,,,,,,,,,,,,,,,,,,,,,,212.0,2.0,,
185,,feedback,,html-keyboard-response,185,253589,0.0-1.0-258.0-0.0,0,0,23720,,,,,,36.0,,,,,,,,,,,,,,,,,,,,,,213.0,1.0,,
186,,iti,,html-keyboard-response,186,255090,0.0-1.0-259.0,0,0,23720,,,,,,,,,,,,,,,,,,,,,,,,,,,,214.5,1.5,,
187,,rl_choice,,html-keyboard-response,187,255501,0.0-1.0-261.0,0,0,23720,,410.0,,,75.0,37.0,37.0,1.0,easy,2000.0,1000.0,1.0,80.0,20.0,60.0,40.0,B,A,/static/Simple_RL/Stimuli/Fractals_stims/B.jpg,/static/Simple_RL/Stimuli/Fractals_stims/A.jpg,0.0,20.0,80.0,40.0,60.0,A,B,214.91,0.41,0.0,
188,,rl_choice_confirmation,,html-keyboard-response,188,256592,0.0-1.0-262.0-0.0,0,0,23720,,,,,,37.0,,,,,,,,,,,,,,,,,,,,,,216.0,1.09,,
189,,isi,,html-keyboard-response,189,257594,0.0-1.0-264.0,0,0,23720,,,,,,,,,,,,,,,,,,,,,,,,,,,,217.0,1.0,,
190,,feedback,,html-keyboard-response,190,258595,0.0-1.0-265.0-0.0,0,0,23720,,,,,,37.0,,,,,,,,,,,,,,,,,,,,,,218.0,1.0,,
191,,iti,,html-keyboard-response,191,260596,0.0-1.0-266.0,0,0,23720,,,,,,,,,,,,,,,,,,,,,,,,,,,,220.0,2.0,,
192,,rl_choice,,html-keyboard-response,192,261045,0.0-1.0-268.0,0,0,23720,,447.0,,,75.0,38.0,38.0,1.0,easy,3500.0,1500.0,0.0,20.0,80.0,40.0,60.0,A,B,/static/Simple_RL/Stimuli/Fractals_stims/A.jpg,/static/Simple_RL/Stimuli/Fractals_stims/B.jpg,0.0,80.0,20.0,60.0,40.0,B,A,220.447,0.447,0.0,
193,,rl_choice_confirmation,,html-keyboard-response,193,262099,0.0-1.0-269.0-0.0,0,0,23720,,,,,,38.0,,,,,,,,,,,,,,,,,,,,,,221.5,1.053,,
194,,isi,,html-keyboard-response,194,263600,0.0-1.0-271.0,0,0,23720,,,,,,,,,,,,,,,,,,,,,,,,,,,,223.0,1.5,,
195,,feedback,,html-keyboard-response,195,264601,0.0-1.0-272.0-0.0,0,0,23720,,,,,,38.0,,,,,,,,,,,,,,,,,,,,,,224.0,1.0,,
196,,iti,,html-keyboard-response,196,268102,0.0-1.0-273.0,0,0,23720,,,,,,,,,,,,,,,,,,,,,,,,,,,,227.5,3.5,,
197,,rl_choice,,html-keyboard-response,197,268514,0.0-1.0-275.0,0,0,23720,,411.0,,,75.0,39.0,39.0,1.0,easy,1000.0,1000.0,1.0,80.0,20.0,60.0,20.0,B,A,/static/Simple_RL/Stimuli/Fractals_stims/B.jpg,/static/Simple_RL/Stimuli/Fractals_stims/A.jpg,0.0,20.0,80.0,20.0,60.0,A,B,227.911,0.411,0.0,
198,,rl_choice_confirmation,,html-keyboard-response,198,269604,0.0-1.0-276.0-0.0,0,0,23720,,,,,,39.0,,,,,,,,,,,,,,,,,,,,,,229.0,1.089,,
199,,isi,,html-keyboard-response,199,270606,0.0-1.0-278.0,0,0,23720,,,,,,,,,,,,,,,,,,,,,,,,,,,,230.0,1.0,,
200,,feedback,,html-keyboard-response,200,271608,0.0-1.0-279.0-0.0,0,0,23720,,,,,,39.0,,,,,,,,,,,,,,,,,,,,,,231.0,1.0,,
201,,iti,,html-keyboard-response,201,272609,0.0-1.0-280.0,0,0,23720,,,,,,,,,,,,,,,,,,,,,,,,,,,,232.0,1.0,,
202,,block_over,,html-keyboard-response,202,274566,0.0-1.0-281.0-0.0,0,0,23720,,1956.0,,,68.0,39.0,,,,,,,,,,,,,,,,,,,,,,,,,
203,,start_run,,html-keyboard-response,203,276747,0.0-1.0-281.0-1.0,0,0,23720,,2181.0,,,84.0,,,,,,,,,,,,,,,,,,,,,,,,,,
204,,rl_choice,,html-keyboard-response,204,277371,0.0-1.0-282.0,0,0,23720,,623.0,,,75.0,40.0,40.0,2.0,hard,1000.0,2000.0,0.0,40.0,60.0,40.0,40.0,C,D,/static/Simple_RL/Stimuli/Fractals_stims/C.jpg,/static/Simple_RL/Stimuli/Fractals_stims/D.jpg,0.0,60.0,40.0,40.0,40.0,D,C,0.623,0.623,0.0,
205,,rl_choice_confirmation,,html-keyboard-response,205,278250,0.0-1.0-283.0-0.0,0,0,23720,,,,,,40.0,,,,,,,,,,,,,,,,,,,,,,1.5,0.877,,
206,,isi,,html-keyboard-response,206,280252,0.0-1.0-285.0,0,0,23720,,,,,,,,,,,,,,,,,,,,,,,,,,,,3.5,2.0,,
207,,feedback,,html-keyboard-response,207,281253,0.0-1.0-286.0-0.0,0,0,23720,,,,,,40.0,,,,,,,,,,,,,,,,,,,,,,4.5,1.0,,
208,,iti,,html-keyboard-response,208,282255,0.0-1.0-287.0,0,0,23720,,,,,,,,,,,,,,,,,,,,,,,,,,,,5.5,1.0,,
209,,rl_choice,,html-keyboard-response,209,282552,0.0-1.0-289.0,0,0,23720,,297.0,,,68.0,41.0,41.0,2.0,hard,1000.0,3000.0,1.0,60.0,40.0,40.0,60.0,D,C,/static/Simple_RL/Stimuli/Fractals_stims/D.jpg,/static/Simple_RL/Stimuli/Fractals_stims/C.jpg,1.0,60.0,40.0,40.0,60.0,D,C,5.797,0.297,0.0,
210,,rl_choice_confirmation,,html-keyboard-response,210,283757,0.0-1.0-290.0-0.0,0,0,23720,,,,,,41.0,,,,,,,,,,,,,,,,,,,,,,7.0,1.203,,
211,,isi,,html-keyboard-response,211,286759,0.0-1.0-292.0,0,0,23720,,,,,,,,,,,,,,,,,,,,,,,,,,,,10.0,3.0,,
212,,feedback,,html-keyboard-response,212,287760,0.0-1.0-293.0-0.0,0,0,23720,,,,,,41.0,,,,,,,,,,,,,,,,,,,,,,11.0,1.0,,
213,,iti,,html-keyboard-response,213,288761,0.0-1.0-294.0,0,0,23720,,,,,,,,,,,,,,,,,,,,,,,,,,,,12.0,1.0,,
214,,rl_choice,,html-keyboard-response,214,289222,0.0-1.0-296.0,0,0,23720,,460.0,,,75.0,42.0,42.0,2.0,hard,1000.0,1000.0,0.0,40.0,60.0,40.0,40.0,C,D,/static/Simple_RL/Stimuli/Fractals_stims/C.jpg,/static/Simple_RL/Stimuli/Fractals_stims/D.jpg,0.0,60.0,40.0,40.0,40.0,D,C,12.46,0.46,0.0,
215,,rl_choice_confirmation,,html-keyboard-response,215,290264,0.0-1.0-297.0-0.0,0,0,23720,,,,,,42.0,,,,,,,,,,,,,,,,,,,,,,13.5,1.04,,
216,,isi,,html-keyboard-response,216,291265,0.0-1.0-299.0,0,0,23720,,,,,,,,,,,,,,,,,,,,,,,,,,,,14.5,1.0,,
217,,feedback,,html-keyboard-response,217,292266,0.0-1.0-300.0-0.0,0,0,23720,,,,,,42.0,,,,,,,,,,,,,,,,,,,,,,15.5,1.0,,
218,,iti,,html-keyboard-response,218,293268,0.0-1.0-301.0,0,0,23720,,,,,,,,,,,,,,,,,,,,,,,,,,,,16.5,1.0,,
219,,rl_choice,,html-keyboard-response,219,293822,0.0-1.0-303.0,0,0,23720,,554.0,,,68.0,43.0,43.0,2.0,easy,1500.0,2000.0,0.0,20.0,80.0,0.0,60.0,A,B,/static/Simple_RL/Stimuli/Fractals_stims/A.jpg,/static/Simple_RL/Stimuli/Fractals_stims/B.jpg,1.0,20.0,80.0,0.0,60.0,A,B,17.054,0.554,0.0,
220,,rl_choice_confirmation,,html-keyboard-response,220,294770,0.0-1.0-304.0-0.0,0,0,23720,,,,,,43.0,,,,,,,,,,,,,,,,,,,,,,18.0,0.946,,
221,,isi,,html-keyboard-response,221,296772,0.0-1.0-306.0,0,0,23720,,,,,,,,,,,,,,,,,,,,,,,,,,,,20.0,2.0,,
222,,feedback,,html-keyboard-response,222,297773,0.0-1.0-307.0-0.0,0,0,23720,,,,,,43.0,,,,,,,,,,,,,,,,,,,,,,21.0,1.0,,
223,,iti,,html-keyboard-response,223,299274,0.0-1.0-308.0,0,0,23720,,,,,,,,,,,,,,,,,,,,,,,,,,,,22.5,1.5,,
224,,rl_choice,,html-keyboard-response,224,299665,0.0-1.0-310.0,0,0,23720,,391.0,,,75.0,44.0,44.0,2.0,hard,1000.0,1500.0,0.0,40.0,60.0,60.0,60.0,C,D,/static/Simple_RL/Stimuli/Fractals_stims/C.jpg,/static/Simple_RL/Stimuli/Fractals_stims/D.jpg,0.0,60.0,40.0,60.0,60.0,D,C,22.891,0.391,0.0,
225,,rl_choice_confirmation,,html-keyboard-response,225,300777,0.0-1.0-311.0-0.0,0,0,23720,,,,,,44.0,,,,,,,,,,,,,,,,,,,,,,24.0,1.109,,
226,,isi,,html-keyboard-response,226,302278,0.0-1.0-313.0,0,0,23720,,,,,,,,,,,,,,,,,,,,,,,,,,,,25.5,1.5,,
227,,feedback,,html-keyboard-response,227,303280,0.0-1.0-314.0-0.0,0,0,23720,,,,,,44.0,,,,,,,,,,,,,,,,,,,,,,26.5,1.0,,
228,,iti,,html-keyboard-response,228,304281,0.0-1.0-315.0,0,0,23720,,,,,,,,,,,,,,,,,,,,,,,,,,,,27.5,1.0,,
229,,rl_choice,,html-keyboard-response,229,304783,0.0-1.0-317.0,0,0,23720,,502.0,,,75.0,45.0,45.0,2.0,hard,2000.0,2000.0,0.0,40.0,60.0,40.0,60.0,C,D,/static/Simple_RL/Stimuli/Fractals_stims/C.jpg,/static/Simple_RL/Stimuli/Fractals_stims/D.jpg,0.0,60.0,40.0,60.0,40.0,D,C,28.002,0.502,0.0,
230,,rl_choice_confirmation,,html-keyboard-response,230,305783,0.0-1.0-318.0-0.0,0,0,23720,,,,,,45.0,,,,,,,,,,,,,,,,,,,,,,29.0,0.998,,
231,,isi,,html-keyboard-response,231,307784,0.0-1.0-320.0,0,0,23720,,,,,,,,,,,,,,,,,,,,,,,,,,,,31.0,2.0,,
232,,feedback,,html-keyboard-response,232,308786,0.0-1.0-321.0-0.0,0,0,23720,,,,,,45.0,,,,,,,,,,,,,,,,,,,,,,32.0,1.0,,
233,,iti,,html-keyboard-response,233,310788,0.0-1.0-322.0,0,0,23720,,,,,,,,,,,,,,,,,,,,,,,,,,,,34.0,2.0,,
234,,rl_choice,,html-keyboard-response,234,311127,0.0-1.0-324.0,0,0,23720,,339.0,,,75.0,46.0,46.0,2.0,hard,2000.0,2000.0,0.0,40.0,60.0,40.0,40.0,C,D,/static/Simple_RL/Stimuli/Fractals_stims/C.jpg,/static/Simple_RL/Stimuli/Fractals_stims/D.jpg,0.0,60.0,40.0,40.0,40.0,D,C,34.339,0.339,0.0,
235,,rl_choice_confirmation,,html-keyboard-response,235,312290,0.0-1.0-325.0-0.0,0,0,23720,,,,,,46.0,,,,,,,,,,,,,,,,,,,,,,35.5,1.161,,
236,,isi,,html-keyboard-response,236,314292,0.0-1.0-327.0,0,0,23720,,,,,,,,,,,,,,,,,,,,,,,,,,,,37.5,2.0,,
237,,feedback,,html-keyboard-response,237,315293,0.0-1.0-328.0-0.0,0,0,23720,,,,,,46.0,,,,,,,,,,,,,,,,,,,,,,38.5,1.0,,
238,,iti,,html-keyboard-response,238,317295,0.0-1.0-329.0,0,0,23720,,,,,,,,,,,,,,,,,,,,,,,,,,,,40.5,2.0,,
239,,rl_choice,,html-keyboard-response,239,317744,0.0-1.0-331.0,0,0,23720,,448.0,,,75.0,47.0,47.0,2.0,hard,1500.0,1500.0,1.0,60.0,40.0,80.0,20.0,D,C,/static/Simple_RL/Stimuli/Fractals_stims/D.jpg,/static/Simple_RL/Stimuli/Fractals_stims/C.jpg,0.0,40.0,60.0,20.0,80.0,C,D,40.948,0.448,0.0,
240,,rl_choice_confirmation,,html-keyboard-response,240,318797,0.0-1.0-332.0-0.0,0,0,23720,,,,,,47.0,,,,,,,,,,,,,,,,,,,,,,42.0,1.052,,
241,,isi,,html-keyboard-response,241,320298,0.0-1.0-334.0,0,0,23720,,,,,,,,,,,,,,,,,,,,,,,,,,,,43.5,1.5,,
242,,feedback,,html-keyboard-response,242,321300,0.0-1.0-335.0-0.0,0,0,23720,,,,,,47.0,,,,,,,,,,,,,,,,,,,,,,44.5,1.0,,
243,,iti,,html-keyboard-response,243,322802,0.0-1.0-336.0,0,0,23720,,,,,,,,,,,,,,,,,,,,,,,,,,,,46.0,1.5,,
244,,rl_choice,,html-keyboard-response,244,323571,0.0-1.0-338.0,0,0,23720,,769.0,,,75.0,48.0,48.0,2.0,easy,3500.0,1000.0,1.0,80.0,20.0,60.0,0.0,B,A,/static/Simple_RL/Stimuli/Fractals_stims/B.jpg,/static/Simple_RL/Stimuli/Fractals_stims/A.jpg,0.0,20.0,80.0,0.0,60.0,A,B,46.769,0.769,0.0,
245,,rl_choice_confirmation,,html-keyboard-response,245,324304,0.0-1.0-339.0-0.0,0,0,23720,,,,,,48.0,,,,,,,,,,,,,,,,,,,,,,47.5,0.731,,
246,,isi,,html-keyboard-response,246,325306,0.0-1.0-341.0,0,0,23720,,,,,,,,,,,,,,,,,,,,,,,,,,,,48.5,1.0,,
247,,feedback,,html-keyboard-response,247,326308,0.0-1.0-342.0-0.0,0,0,23720,,,,,,48.0,,,,,,,,,,,,,,,,,,,,,,49.5,1.0,,
248,,iti,,html-keyboard-response,248,329810,0.0-1.0-343.0,0,0,23720,,,,,,,,,,,,,,,,,,,,,,,,,,,,53.0,3.5,,
249,,rl_choice,,html-keyboard-response,249,330115,0.0-1.0-345.0,0,0,23720,,304.0,,,75.0,49.0,49.0,2.0,hard,1000.0,3500.0,1.0,60.0,40.0,80.0,20.0,D,C,/static/Simple_RL/Stimuli/Fractals_stims/D.jpg,/static/Simple_RL/Stimuli/Fractals_stims/C.jpg,0.0,40.0,60.0,20.0,80.0,C,D,53.304,0.304,0.0,
250,,rl_choice_confirmation,,html-keyboard-response,250,331314,0.0-1.0-346.0-0.0,0,0,23720,,,,,,49.0,,,,,,,,,,,,,,,,,,,,,,54.5,1.196,,
251,,isi,,html-keyboard-response,251,334816,0.0-1.0-348.0,0,0,23720,,,,,,,,,,,,,,,,,,,,,,,,,,,,58.0,3.5,,
252,,feedback,,html-keyboard-response,252,335818,0.0-1.0-349.0-0.0,0,0,23720,,,,,,49.0,,,,,,,,,,,,,,,,,,,,,,59.0,1.0,,
253,,iti,,html-keyboard-response,253,336819,0.0-1.0-350.0,0,0,23720,,,,,,,,,,,,,,,,,,,,,,,,,,,,60.0,1.0,,
254,,rl_choice,,html-keyboard-response,254,337243,0.0-1.0-352.0,0,0,23720,,423.0,,,75.0,50.0,50.0,2.0,easy,1000.0,1500.0,1.0,80.0,20.0,80.0,40.0,B,A,/static/Simple_RL/Stimuli/Fractals_stims/B.jpg,/static/Simple_RL/Stimuli/Fractals_stims/A.jpg,0.0,20.0,80.0,40.0,80.0,A,B,60.423,0.423,0.0,
255,,rl_choice_confirmation,,html-keyboard-response,255,338322,0.0-1.0-353.0-0.0,0,0,23720,,,,,,50.0,,,,,,,,,,,,,,,,,,,,,,61.5,1.077,,
256,,isi,,html-keyboard-response,256,339824,0.0-1.0-355.0,0,0,23720,,,,,,,,,,,,,,,,,,,,,,,,,,,,63.0,1.5,,
257,,feedback,,html-keyboard-response,257,340826,0.0-1.0-356.0-0.0,0,0,23720,,,,,,50.0,,,,,,,,,,,,,,,,,,,,,,64.0,1.0,,
258,,iti,,html-keyboard-response,258,341827,0.0-1.0-357.0,0,0,23720,,,,,,,,,,,,,,,,,,,,,,,,,,,,65.0,1.0,,
259,,rl_choice,,html-keyboard-response,259,342678,0.0-1.0-359.0,0,0,23720,,850.0,,,75.0,51.0,51.0,2.0,easy,1000.0,2000.0,0.0,20.0,80.0,0.0,100.0,A,B,/static/Simple_RL/Stimuli/Fractals_stims/A.jpg,/static/Simple_RL/Stimuli/Fractals_stims/B.jpg,0.0,80.0,20.0,100.0,0.0,B,A,65.85,0.85,0.0,
260,,rl_choice_confirmation,,html-keyboard-response,260,343330,0.0-1.0-360.0-0.0,0,0,23720,,,,,,51.0,,,,,,,,,,,,,,,,,,,,,,66.5,0.65,,
261,,isi,,html-keyboard-response,261,345332,0.0-1.0-362.0,0,0,23720,,,,,,,,,,,,,,,,,,,,,,,,,,,,68.5,2.0,,
262,,feedback,,html-keyboard-response,262,346333,0.0-1.0-363.0-0.0,0,0,23720,,,,,,51.0,,,,,,,,,,,,,,,,,,,,,,69.5,1.0,,
263,,iti,,html-keyboard-response,263,347335,0.0-1.0-364.0,0,0,23720,,,,,,,,,,,,,,,,,,,,,,,,,,,,70.5,1.0,,
264,,rl_choice,,html-keyboard-response,264,347784,0.0-1.0-366.0,0,0,23720,,449.0,,,75.0,52.0,52.0,2.0,easy,3000.0,1500.0,0.0,20.0,80.0,40.0,80.0,A,B,/static/Simple_RL/Stimuli/Fractals_stims/A.jpg,/static/Simple_RL/Stimuli/Fractals_stims/B.jpg,0.0,80.0,20.0,80.0,40.0,B,A,70.949,0.449,0.0,
265,,rl_choice_confirmation,,html-keyboard-response,265,348836,0.0-1.0-367.0-0.0,0,0,23720,,,,,,52.0,,,,,,,,,,,,,,,,,,,,,,72.0,1.051,,
266,,isi,,html-keyboard-response,266,350338,0.0-1.0-369.0,0,0,23720,,,,,,,,,,,,,,,,,,,,,,,,,,,,73.5,1.5,,
267,,feedback,,html-keyboard-response,267,351339,0.0-1.0-370.0-0.0,0,0,23720,,,,,,52.0,,,,,,,,,,,,,,,,,,,,,,74.5,1.0,,
268,,iti,,html-keyboard-response,268,354341,0.0-1.0-371.0,0,0,23720,,,,,,,,,,,,,,,,,,,,,,,,,,,,77.5,3.0,,
269,,rl_choice,,html-keyboard-response,269,354892,0.0-1.0-373.0,0,0,23720,,550.0,,,75.0,53.0,53.0,2.0,hard,2000.0,1000.0,1.0,60.0,40.0,60.0,40.0,D,C,/static/Simple_RL/Stimuli/Fractals_stims/D.jpg,/static/Simple_RL/Stimuli/Fractals_stims/C.jpg,0.0,40.0,60.0,40.0,60.0,C,D,78.05,0.55,0.0,
270,,rl_choice_confirmation,,html-keyboard-response,270,355844,0.0-1.0-374.0-0.0,0,0,23720,,,,,,53.0,,,,,,,,,,,,,,,,,,,,,,79.0,0.95,,
271,,isi,,html-keyboard-response,271,356845,0.0-1.0-376.0,0,0,23720,,,,,,,,,,,,,,,,,,,,,,,,,,,,80.0,1.0,,
272,,feedback,,html-keyboard-response,272,357847,0.0-1.0-377.0-0.0,0,0,23720,,,,,,53.0,,,,,,,,,,,,,,,,,,,,,,81.0,1.0,,
273,,iti,,html-keyboard-response,273,359849,0.0-1.0-378.0,0,0,23720,,,,,,,,,,,,,,,,,,,,,,,,,,,,83.0,2.0,,
274,,rl_choice,,html-keyboard-response,274,360285,0.0-1.0-380.0,0,0,23720,,436.0,,,75.0,54.0,54.0,2.0,easy,2000.0,1500.0,0.0,20.0,80.0,0.0,100.0,A,B,/static/Simple_RL/Stimuli/Fractals_stims/A.jpg,/static/Simple_RL/Stimuli/Fractals_stims/B.jpg,0.0,80.0,20.0,100.0,0.0,B,A,83.436,0.436,0.0,
275,,rl_choice_confirmation,,html-keyboard-response,275,361351,0.0-1.0-381.0-0.0,0,0,23720,,,,,,54.0,,,,,,,,,,,,,,,,,,,,,,84.5,1.064,,
276,,isi,,html-keyboard-response,276,362853,0.0-1.0-383.0,0,0,23720,,,,,,,,,,,,,,,,,,,,,,,,,,,,86.0,1.5,,
277,,feedback,,html-keyboard-response,277,363854,0.0-1.0-384.0-0.0,0,0,23720,,,,,,54.0,,,,,,,,,,,,,,,,,,,,,,87.0,1.0,,
278,,iti,,html-keyboard-response,278,365856,0.0-1.0-385.0,0,0,23720,,,,,,,,,,,,,,,,,,,,,,,,,,,,89.0,2.0,,
279,,rl_choice,,html-keyboard-response,279,366270,0.0-1.0-387.0,0,0,23720,,414.0,,,75.0,55.0,55.0,2.0,easy,1000.0,1000.0,0.0,20.0,80.0,40.0,100.0,A,B,/static/Simple_RL/Stimuli/Fractals_stims/A.jpg,/static/Simple_RL/Stimuli/Fractals_stims/B.jpg,0.0,80.0,20.0,100.0,40.0,B,A,89.414,0.414,0.0,
280,,rl_choice_confirmation,,html-keyboard-response,280,367358,0.0-1.0-388.0-0.0,0,0,23720,,,,,,55.0,,,,,,,,,,,,,,,,,,,,,,90.5,1.086,,
281,,isi,,html-keyboard-response,281,368359,0.0-1.0-390.0,0,0,23720,,,,,,,,,,,,,,,,,,,,,,,,,,,,91.5,1.0,,
282,,feedback,,html-keyboard-response,282,369361,0.0-1.0-391.0-0.0,0,0,23720,,,,,,55.0,,,,,,,,,,,,,,,,,,,,,,92.5,1.0,,
283,,iti,,html-keyboard-response,283,370363,0.0-1.0-392.0,0,0,23720,,,,,,,,,,,,,,,,,,,,,,,,,,,,93.5,1.0,,
284,,rl_choice,,html-keyboard-response,284,371229,0.0-1.0-394.0,0,0,23720,,866.0,,,75.0,56.0,56.0,2.0,hard,2000.0,1000.0,1.0,60.0,40.0,60.0,20.0,D,C,/static/Simple_RL/Stimuli/Fractals_stims/D.jpg,/static/Simple_RL/Stimuli/Fractals_stims/C.jpg,0.0,40.0,60.0,20.0,60.0,C,D,94.366,0.866,0.0,
285,,rl_choice_confirmation,,html-keyboard-response,285,371865,0.0-1.0-395.0-0.0,0,0,23720,,,,,,56.0,,,,,,,,,,,,,,,,,,,,,,95.0,0.634,,
286,,isi,,html-keyboard-response,286,372866,0.0-1.0-397.0,0,0,23720,,,,,,,,,,,,,,,,,,,,,,,,,,,,96.0,1.0,,
287,,feedback,,html-keyboard-response,287,373867,0.0-1.0-398.0-0.0,0,0,23720,,,,,,56.0,,,,,,,,,,,,,,,,,,,,,,97.0,1.0,,
288,,iti,,html-keyboard-response,288,375869,0.0-1.0-399.0,0,0,23720,,,,,,,,,,,,,,,,,,,,,,,,,,,,99.0,2.0,,
289,,rl_choice,,html-keyboard-response,289,376345,0.0-1.0-401.0,0,0,23720,,476.0,,,75.0,57.0,57.0,2.0,easy,1000.0,2000.0,1.0,80.0,20.0,80.0,0.0,B,A,/static/Simple_RL/Stimuli/Fractals_stims/B.jpg,/static/Simple_RL/Stimuli/Fractals_stims/A.jpg,0.0,20.0,80.0,0.0,80.0,A,B,99.476,0.476,0.0,
290,,rl_choice_confirmation,,html-keyboard-response,290,377371,0.0-1.0-402.0-0.0,0,0,23720,,,,,,57.0,,,,,,,,,,,,,,,,,,,,,,100.5,1.024,,
291,,isi,,html-keyboard-response,291,379373,0.0-1.0-404.0,0,0,23720,,,,,,,,,,,,,,,,,,,,,,,,,,,,102.5,2.0,,
292,,feedback,,html-keyboard-response,292,380375,0.0-1.0-405.0-0.0,0,0,23720,,,,,,57.0,,,,,,,,,,,,,,,,,,,,,,103.5,1.0,,
293,,iti,,html-keyboard-response,293,381377,0.0-1.0-406.0,0,0,23720,,,,,,,,,,,,,,,,,,,,,,,,,,,,104.5,1.0,,
294,,rl_choice,,html-keyboard-response,294,381789,0.0-1.0-408.0,0,0,23720,,411.0,,,75.0,58.0,58.0,2.0,hard,1000.0,1500.0,1.0,60.0,40.0,60.0,60.0,D,C,/static/Simple_RL/Stimuli/Fractals_stims/D.jpg,/static/Simple_RL/Stimuli/Fractals_stims/C.jpg,0.0,40.0,60.0,60.0,60.0,C,D,104.911,0.411,0.0,
295,,rl_choice_confirmation,,html-keyboard-response,295,382880,0.0-1.0-409.0-0.0,0,0,23720,,,,,,58.0,,,,,,,,,,,,,,,,,,,,,,106.0,1.089,,
296,,isi,,html-keyboard-response,296,384382,0.0-1.0-411.0,0,0,23720,,,,,,,,,,,,,,,,,,,,,,,,,,,,107.5,1.5,,
297,,feedback,,html-keyboard-response,297,385383,0.0-1.0-412.0-0.0,0,0,23720,,,,,,58.0,,,,,,,,,,,,,,,,,,,,,,108.5,1.0,,
298,,iti,,html-keyboard-response,298,386384,0.0-1.0-413.0,0,0,23720,,,,,,,,,,,,,,,,,,,,,,,,,,,,109.5,1.0,,
299,,rl_choice,,html-keyboard-response,299,387113,0.0-1.0-415.0,0,0,23720,,727.0,,,75.0,59.0,59.0,2.0,easy,1500.0,3000.0,1.0,80.0,20.0,80.0,40.0,B,A,/static/Simple_RL/Stimuli/Fractals_stims/B.jpg,/static/Simple_RL/Stimuli/Fractals_stims/A.jpg,0.0,20.0,80.0,40.0,80.0,A,B,110.227,0.727,0.0,
300,,rl_choice_confirmation,,html-keyboard-response,300,387887,0.0-1.0-416.0-0.0,0,0,23720,,,,,,59.0,,,,,,,,,,,,,,,,,,,,,,111.0,0.773,,
301,,isi,,html-keyboard-response,301,390887,0.0-1.0-418.0,0,0,23720,,,,,,,,,,,,,,,,,,,,,,,,,,,,114.0,3.0,,
302,,feedback,,html-keyboard-response,302,391889,0.0-1.0-419.0-0.0,0,0,23720,,,,,,59.0,,,,,,,,,,,,,,,,,,,,,,115.0,1.0,,
303,,iti,,html-keyboard-response,303,393390,0.0-1.0-420.0,0,0,23720,,,,,,,,,,,,,,,,,,,,,,,,,,,,116.5,1.5,,
304,,rl_choice,,html-keyboard-response,304,393919,0.0-1.0-422.0,0,0,23720,,529.0,,,75.0,60.0,60.0,2.0,hard,1500.0,2000.0,0.0,40.0,60.0,40.0,80.0,C,D,/static/Simple_RL/Stimuli/Fractals_stims/C.jpg,/static/Simple_RL/Stimuli/Fractals_stims/D.jpg,0.0,60.0,40.0,80.0,40.0,D,C,117.029,0.529,0.0,
305,,rl_choice_confirmation,,html-keyboard-response,305,394891,0.0-1.0-423.0-0.0,0,0,23720,,,,,,60.0,,,,,,,,,,,,,,,,,,,,,,118.0,0.971,,
306,,isi,,html-keyboard-response,306,396893,0.0-1.0-425.0,0,0,23720,,,,,,,,,,,,,,,,,,,,,,,,,,,,120.0,2.0,,
307,,feedback,,html-keyboard-response,307,397894,0.0-1.0-426.0-0.0,0,0,23720,,,,,,60.0,,,,,,,,,,,,,,,,,,,,,,121.0,1.0,,
308,,iti,,html-keyboard-response,308,399404,0.0-1.0-427.0,0,0,23720,,,,,,,,,,,,,,,,,,,,,,,,,,,,122.5,1.5,,
309,,rl_choice,,html-keyboard-response,309,400148,0.0-1.0-429.0,0,0,23720,,743.0,,,75.0,61.0,61.0,2.0,hard,1000.0,1000.0,1.0,60.0,40.0,40.0,40.0,D,C,/static/Simple_RL/Stimuli/Fractals_stims/D.jpg,/static/Simple_RL/Stimuli/Fractals_stims/C.jpg,0.0,40.0,60.0,40.0,40.0,C,D,123.243,0.743,0.0,
310,,rl_choice_confirmation,,html-keyboard-response,310,400907,0.0-1.0-430.0-0.0,0,0,23720,,,,,,61.0,,,,,,,,,,,,,,,,,,,,,,124.0,0.757,,
311,,isi,,html-keyboard-response,311,401908,0.0-1.0-432.0,0,0,23720,,,,,,,,,,,,,,,,,,,,,,,,,,,,125.0,1.0,,
312,,feedback,,html-keyboard-response,312,402915,0.0-1.0-433.0-0.0,0,0,23720,,,,,,61.0,,,,,,,,,,,,,,,,,,,,,,126.0,1.0,,
313,,iti,,html-keyboard-response,313,403917,0.0-1.0-434.0,0,0,23720,,,,,,,,,,,,,,,,,,,,,,,,,,,,127.0,1.0,,
314,,rl_choice,,html-keyboard-response,314,404780,0.0-1.0-436.0,0,0,23720,,862.0,,,75.0,62.0,62.0,2.0,easy,3000.0,1500.0,0.0,20.0,80.0,20.0,80.0,A,B,/static/Simple_RL/Stimuli/Fractals_stims/A.jpg,/static/Simple_RL/Stimuli/Fractals_stims/B.jpg,0.0,80.0,20.0,80.0,20.0,B,A,127.862,0.862,0.0,
315,,rl_choice_confirmation,,html-keyboard-response,315,405420,0.0-1.0-437.0-0.0,0,0,23720,,,,,,62.0,,,,,,,,,,,,,,,,,,,,,,128.5,0.638,,
316,,isi,,html-keyboard-response,316,406922,0.0-1.0-439.0,0,0,23720,,,,,,,,,,,,,,,,,,,,,,,,,,,,130.0,1.5,,
317,,feedback,,html-keyboard-response,317,407924,0.0-1.0-440.0-0.0,0,0,23720,,,,,,62.0,,,,,,,,,,,,,,,,,,,,,,131.0,1.0,,
318,,iti,,html-keyboard-response,318,410926,0.0-1.0-441.0,0,0,23720,,,,,,,,,,,,,,,,,,,,,,,,,,,,134.0,3.0,,
319,,rl_choice,,html-keyboard-response,319,411899,0.0-1.0-443.0,0,0,23720,,972.0,,,75.0,63.0,63.0,2.0,hard,1000.0,1500.0,1.0,60.0,40.0,60.0,40.0,D,C,/static/Simple_RL/Stimuli/Fractals_stims/D.jpg,/static/Simple_RL/Stimuli/Fractals_stims/C.jpg,0.0,40.0,60.0,40.0,60.0,C,D,134.972,0.972,0.0,
320,,rl_choice_confirmation,,html-keyboard-response,320,412429,0.0-1.0-444.0-0.0,0,0,23720,,,,,,63.0,,,,,,,,,,,,,,,,,,,,,,135.5,0.528,,
321,,isi,,html-keyboard-response,321,413931,0.0-1.0-446.0,0,0,23720,,,,,,,,,,,,,,,,,,,,,,,,,,,,137.0,1.5,,
322,,feedback,,html-keyboard-response,322,414934,0.0-1.0-447.0-0.0,0,0,23720,,,,,,63.0,,,,,,,,,,,,,,,,,,,,,,138.0,1.0,,
323,,iti,,html-keyboard-response,323,415936,0.0-1.0-448.0,0,0,23720,,,,,,,,,,,,,,,,,,,,,,,,,,,,139.0,1.0,,
324,,rl_choice,,html-keyboard-response,324,416479,0.0-1.0-450.0,0,0,23720,,542.0,,,75.0,64.0,64.0,2.0,hard,3500.0,1000.0,0.0,40.0,60.0,60.0,80.0,C,D,/static/Simple_RL/Stimuli/Fractals_stims/C.jpg,/static/Simple_RL/Stimuli/Fractals_stims/D.jpg,0.0,60.0,40.0,80.0,60.0,D,C,139.542,0.542,0.0,
325,,rl_choice_confirmation,,html-keyboard-response,325,417439,0.0-1.0-451.0-0.0,0,0,23720,,,,,,64.0,,,,,,,,,,,,,,,,,,,,,,140.5,0.958,,
326,,isi,,html-keyboard-response,326,418441,0.0-1.0-453.0,0,0,23720,,,,,,,,,,,,,,,,,,,,,,,,,,,,141.5,1.0,,
327,,feedback,,html-keyboard-response,327,419443,0.0-1.0-454.0-0.0,0,0,23720,,,,,,64.0,,,,,,,,,,,,,,,,,,,,,,142.5,1.0,,
328,,iti,,html-keyboard-response,328,422945,0.0-1.0-455.0,0,0,23720,,,,,,,,,,,,,,,,,,,,,,,,,,,,146.0,3.5,,
329,,rl_choice,,html-keyboard-response,329,424447,0.0-1.0-457.0,0,0,23720,,,,,,65.0,65.0,2.0,easy,1500.0,1000.0,1.0,80.0,20.0,100.0,40.0,B,A,/static/Simple_RL/Stimuli/Fractals_stims/B.jpg,/static/Simple_RL/Stimuli/Fractals_stims/A.jpg,,,,,,,,147.5,1.5,1.0,
330,,rl_choice_warning,,html-keyboard-response,330,425449,0.0-1.0-459.0-0.0,1,0,23720,,,,,,,,,,,,,,,,,,,,,,,,,,,,148.5,1.0,,
331,,isi,,html-keyboard-response,331,426451,0.0-1.0-460.0,0,0,23720,,,,,,,,,,,,,,,,,,,,,,,,,,,,149.5,1.0,,
332,,iti,,html-keyboard-response,332,427953,0.0-1.0-462.0,0,0,23720,,,,,,,,,,,,,,,,,,,,,,,,,,,,151.0,1.5,,
333,,rl_choice,,html-keyboard-response,333,428820,0.0-1.0-464.0,0,0,23720,,866.0,,,75.0,66.0,66.0,2.0,hard,1500.0,3000.0,1.0,60.0,40.0,60.0,40.0,D,C,/static/Simple_RL/Stimuli/Fractals_stims/D.jpg,/static/Simple_RL/Stimuli/Fractals_stims/C.jpg,0.0,40.0,60.0,40.0,60.0,C,D,151.866,0.866,0.0,
334,,rl_choice_confirmation,,html-keyboard-response,334,429456,0.0-1.0-465.0-0.0,0,0,23720,,,,,,66.0,,,,,,,,,,,,,,,,,,,,,,152.5,0.634,,
335,,isi,,html-keyboard-response,335,432457,0.0-1.0-467.0,0,0,23720,,,,,,,,,,,,,,,,,,,,,,,,,,,,155.5,3.0,,
336,,feedback,,html-keyboard-response,336,433460,0.0-1.0-468.0-0.0,0,0,23720,,,,,,66.0,,,,,,,,,,,,,,,,,,,,,,156.5,1.0,,
337,,iti,,html-keyboard-response,337,434962,0.0-1.0-469.0,0,0,23720,,,,,,,,,,,,,,,,,,,,,,,,,,,,158.0,1.5,,
338,,rl_choice,,html-keyboard-response,338,435227,0.0-1.0-471.0,0,0,23720,,265.0,,,75.0,67.0,67.0,2.0,hard,1500.0,1500.0,0.0,40.0,60.0,20.0,80.0,C,D,/static/Simple_RL/Stimuli/Fractals_stims/C.jpg,/static/Simple_RL/Stimuli/Fractals_stims/D.jpg,0.0,60.0,40.0,80.0,20.0,D,C,158.265,0.265,0.0,
339,,rl_choice_confirmation,,html-keyboard-response,339,436464,0.0-1.0-472.0-0.0,0,0,23720,,,,,,67.0,,,,,,,,,,,,,,,,,,,,,,159.5,1.235,,
340,,isi,,html-keyboard-response,340,437966,0.0-1.0-474.0,0,0,23720,,,,,,,,,,,,,,,,,,,,,,,,,,,,161.0,1.5,,
341,,feedback,,html-keyboard-response,341,438968,0.0-1.0-475.0-0.0,0,0,23720,,,,,,67.0,,,,,,,,,,,,,,,,,,,,,,162.0,1.0,,
342,,iti,,html-keyboard-response,342,440469,0.0-1.0-476.0,0,0,23720,,,,,,,,,,,,,,,,,,,,,,,,,,,,163.5,1.5,,
343,,rl_choice,,html-keyboard-response,343,441226,0.0-1.0-478.0,0,0,23720,,756.0,,,75.0,68.0,68.0,2.0,hard,3000.0,1000.0,1.0,60.0,40.0,60.0,40.0,D,C,/static/Simple_RL/Stimuli/Fractals_stims/D.jpg,/static/Simple_RL/Stimuli/Fractals_stims/C.jpg,0.0,40.0,60.0,40.0,60.0,C,D,164.256,0.756,0.0,
344,,rl_choice_confirmation,,html-keyboard-response,344,441972,0.0-1.0-479.0-0.0,0,0,23720,,,,,,68.0,,,,,,,,,,,,,,,,,,,,,,165.0,0.744,,
345,,isi,,html-keyboard-response,345,442974,0.0-1.0-481.0,0,0,23720,,,,,,,,,,,,,,,,,,,,,,,,,,,,166.0,1.0,,
346,,feedback,,html-keyboard-response,346,443976,0.0-1.0-482.0-0.0,0,0,23720,,,,,,68.0,,,,,,,,,,,,,,,,,,,,,,167.0,1.0,,
347,,iti,,html-keyboard-response,347,446978,0.0-1.0-483.0,0,0,23720,,,,,,,,,,,,,,,,,,,,,,,,,,,,170.0,3.0,,
348,,rl_choice,,html-keyboard-response,348,448484,0.0-1.0-485.0,0,0,23720,,,,,,69.0,69.0,2.0,easy,1000.0,1000.0,0.0,20.0,80.0,40.0,80.0,A,B,/static/Simple_RL/Stimuli/Fractals_stims/A.jpg,/static/Simple_RL/Stimuli/Fractals_stims/B.jpg,,,,,,,,171.5,1.5,1.0,
349,,rl_choice_warning,,html-keyboard-response,349,449486,0.0-1.0-487.0-0.0,1,0,23720,,,,,,,,,,,,,,,,,,,,,,,,,,,,172.5,1.0,,
350,,isi,,html-keyboard-response,350,450501,0.0-1.0-488.0,0,0,23720,,,,,,,,,,,,,,,,,,,,,,,,,,,,173.5,1.0,,
351,,iti,,html-keyboard-response,351,451502,0.0-1.0-490.0,0,0,23720,,,,,,,,,,,,,,,,,,,,,,,,,,,,174.5,1.0,,
352,,rl_choice,,html-keyboard-response,352,451583,0.0-1.0-492.0,0,0,23720,,81.0,,,75.0,70.0,70.0,2.0,easy,1500.0,1000.0,1.0,80.0,20.0,80.0,20.0,B,A,/static/Simple_RL/Stimuli/Fractals_stims/B.jpg,/static/Simple_RL/Stimuli/Fractals_stims/A.jpg,0.0,20.0,80.0,20.0,80.0,A,B,174.581,0.081,0.0,
353,,rl_choice_confirmation,,html-keyboard-response,353,453004,0.0-1.0-493.0-0.0,0,0,23720,,,,,,70.0,,,,,,,,,,,,,,,,,,,,,,176.0,1.419,,
354,,isi,,html-keyboard-response,354,454005,0.0-1.0-495.0,0,0,23720,,,,,,,,,,,,,,,,,,,,,,,,,,,,177.0,1.0,,
355,,feedback,,html-keyboard-response,355,455007,0.0-1.0-496.0-0.0,0,0,23720,,,,,,70.0,,,,,,,,,,,,,,,,,,,,,,178.0,1.0,,
356,,iti,,html-keyboard-response,356,456509,0.0-1.0-497.0,0,0,23720,,,,,,,,,,,,,,,,,,,,,,,,,,,,179.5,1.5,,
357,,rl_choice,,html-keyboard-response,357,457893,0.0-1.0-499.0,0,0,23720,,1384.0,,,75.0,71.0,71.0,2.0,easy,1500.0,1000.0,0.0,20.0,80.0,40.0,60.0,A,B,/static/Simple_RL/Stimuli/Fractals_stims/A.jpg,/static/Simple_RL/Stimuli/Fractals_stims/B.jpg,0.0,80.0,20.0,60.0,40.0,B,A,180.884,1.384,0.0,
358,,rl_choice_confirmation,,html-keyboard-response,358,458011,0.0-1.0-500.0-0.0,0,0,23720,,,,,,71.0,,,,,,,,,,,,,,,,,,,,,,181.0,0.116,,
359,,isi,,html-keyboard-response,359,459012,0.0-1.0-502.0,0,0,23720,,,,,,,,,,,,,,,,,,,,,,,,,,,,182.0,1.0,,
360,,feedback,,html-keyboard-response,360,460015,0.0-1.0-503.0-0.0,0,0,23720,,,,,,71.0,,,,,,,,,,,,,,,,,,,,,,183.0,1.0,,
361,,iti,,html-keyboard-response,361,461517,0.0-1.0-504.0,0,0,23720,,,,,,,,,,,,,,,,,,,,,,,,,,,,184.5,1.5,,
362,,rl_choice,,html-keyboard-response,362,462417,0.0-1.0-506.0,0,0,23720,,900.0,,,75.0,72.0,72.0,2.0,easy,2000.0,3000.0,0.0,20.0,80.0,20.0,100.0,A,B,/static/Simple_RL/Stimuli/Fractals_stims/A.jpg,/static/Simple_RL/Stimuli/Fractals_stims/B.jpg,0.0,80.0,20.0,100.0,20.0,B,A,185.4,0.9,0.0,
363,,rl_choice_confirmation,,html-keyboard-response,363,463019,0.0-1.0-507.0-0.0,0,0,23720,,,,,,72.0,,,,,,,,,,,,,,,,,,,,,,186.0,0.6,,
364,,isi,,html-keyboard-response,364,466021,0.0-1.0-509.0,0,0,23720,,,,,,,,,,,,,,,,,,,,,,,,,,,,189.0,3.0,,
365,,feedback,,html-keyboard-response,365,467031,0.0-1.0-510.0-0.0,0,0,23720,,,,,,72.0,,,,,,,,,,,,,,,,,,,,,,190.0,1.0,,
366,,iti,,html-keyboard-response,366,469033,0.0-1.0-511.0,0,0,23720,,,,,,,,,,,,,,,,,,,,,,,,,,,,192.0,2.0,,
367,,rl_choice,,html-keyboard-response,367,470534,0.0-1.0-513.0,0,0,23720,,,,,,73.0,73.0,2.0,easy,1000.0,3500.0,0.0,20.0,80.0,40.0,60.0,A,B,/static/Simple_RL/Stimuli/Fractals_stims/A.jpg,/static/Simple_RL/Stimuli/Fractals_stims/B.jpg,,,,,,,,193.5,1.5,1.0,
368,,rl_choice_warning,,html-keyboard-response,368,471537,0.0-1.0-515.0-0.0,1,0,23720,,,,,,,,,,,,,,,,,,,,,,,,,,,,194.5,1.0,,
369,,isi,,html-keyboard-response,369,475039,0.0-1.0-516.0,0,0,23720,,,,,,,,,,,,,,,,,,,,,,,,,,,,198.0,3.5,,
370,,iti,,html-keyboard-response,370,476040,0.0-1.0-518.0,0,0,23720,,,,,,,,,,,,,,,,,,,,,,,,,,,,199.0,1.0,,
371,,rl_choice,,html-keyboard-response,371,477003,0.0-1.0-520.0,0,0,23720,,962.0,,,75.0,74.0,74.0,2.0,hard,3000.0,1000.0,0.0,40.0,60.0,40.0,40.0,C,D,/static/Simple_RL/Stimuli/Fractals_stims/C.jpg,/static/Simple_RL/Stimuli/Fractals_stims/D.jpg,0.0,60.0,40.0,40.0,40.0,D,C,199.962,0.962,0.0,
372,,rl_choice_confirmation,,html-keyboard-response,372,477544,0.0-1.0-521.0-0.0,0,0,23720,,,,,,74.0,,,,,,,,,,,,,,,,,,,,,,200.5,0.538,,
373,,isi,,html-keyboard-response,373,478546,0.0-1.0-523.0,0,0,23720,,,,,,,,,,,,,,,,,,,,,,,,,,,,201.5,1.0,,
374,,feedback,,html-keyboard-response,374,479548,0.0-1.0-524.0-0.0,0,0,23720,,,,,,74.0,,,,,,,,,,,,,,,,,,,,,,202.5,1.0,,
375,,iti,,html-keyboard-response,375,482550,0.0-1.0-525.0,0,0,23720,,,,,,,,,,,,,,,,,,,,,,,,,,,,205.5,3.0,,
376,,rl_choice,,html-keyboard-response,376,482576,0.0-1.0-527.0,0,0,23720,,26.0,,,75.0,75.0,75.0,2.0,easy,1000.0,1000.0,0.0,20.0,80.0,0.0,60.0,A,B,/static/Simple_RL/Stimuli/Fractals_stims/A.jpg,/static/Simple_RL/Stimuli/Fractals_stims/B.jpg,0.0,80.0,20.0,60.0,0.0,B,A,205.526,0.026,0.0,
377,,rl_choice_confirmation,,html-keyboard-response,377,484052,0.0-1.0-528.0-0.0,0,0,23720,,,,,,75.0,,,,,,,,,,,,,,,,,,,,,,207.0,1.474,,
378,,isi,,html-keyboard-response,378,485054,0.0-1.0-530.0,0,0,23720,,,,,,,,,,,,,,,,,,,,,,,,,,,,208.0,1.0,,
379,,feedback,,html-keyboard-response,379,486056,0.0-1.0-531.0-0.0,0,0,23720,,,,,,75.0,,,,,,,,,,,,,,,,,,,,,,209.0,1.0,,
380,,iti,,html-keyboard-response,380,487057,0.0-1.0-532.0,0,0,23720,,,,,,,,,,,,,,,,,,,,,,,,,,,,210.0,1.0,,
381,,rl_choice,,html-keyboard-response,381,487618,0.0-1.0-534.0,0,0,23720,,561.0,,,75.0,76.0,76.0,2.0,easy,2000.0,1500.0,1.0,80.0,20.0,100.0,20.0,B,A,/static/Simple_RL/Stimuli/Fractals_stims/B.jpg,/static/Simple_RL/Stimuli/Fractals_stims/A.jpg,0.0,20.0,80.0,20.0,100.0,A,B,210.561,0.561,0.0,
382,,rl_choice_confirmation,,html-keyboard-response,382,488559,0.0-1.0-535.0-0.0,0,0,23720,,,,,,76.0,,,,,,,,,,,,,,,,,,,,,,211.5,0.939,,
383,,isi,,html-keyboard-response,383,490062,0.0-1.0-537.0,0,0,23720,,,,,,,,,,,,,,,,,,,,,,,,,,,,213.0,1.5,,
384,,feedback,,html-keyboard-response,384,491064,0.0-1.0-538.0-0.0,0,0,23720,,,,,,76.0,,,,,,,,,,,,,,,,,,,,,,214.0,1.0,,
385,,iti,,html-keyboard-response,385,493065,0.0-1.0-539.0,0,0,23720,,,,,,,,,,,,,,,,,,,,,,,,,,,,216.0,2.0,,
386,,rl_choice,,html-keyboard-response,386,493119,0.0-1.0-541.0,0,0,23720,,54.0,,,75.0,77.0,77.0,2.0,easy,1000.0,1000.0,0.0,20.0,80.0,0.0,80.0,A,B,/static/Simple_RL/Stimuli/Fractals_stims/A.jpg,/static/Simple_RL/Stimuli/Fractals_stims/B.jpg,0.0,80.0,20.0,80.0,0.0,B,A,216.054,0.054,0.0,
387,,rl_choice_confirmation,,html-keyboard-response,387,494568,0.0-1.0-542.0-0.0,0,0,23720,,,,,,77.0,,,,,,,,,,,,,,,,,,,,,,217.5,1.446,,
388,,isi,,html-keyboard-response,388,495569,0.0-1.0-544.0,0,0,23720,,,,,,,,,,,,,,,,,,,,,,,,,,,,218.5,1.0,,
389,,feedback,,html-keyboard-response,389,496570,0.0-1.0-545.0-0.0,0,0,23720,,,,,,77.0,,,,,,,,,,,,,,,,,,,,,,219.5,1.0,,
390,,iti,,html-keyboard-response,390,497572,0.0-1.0-546.0,0,0,23720,,,,,,,,,,,,,,,,,,,,,,,,,,,,220.5,1.0,,
391,,rl_choice,,html-keyboard-response,391,499074,0.0-1.0-548.0,0,0,23720,,,,,,78.0,78.0,2.0,hard,1500.0,1000.0,0.0,40.0,60.0,20.0,60.0,C,D,/static/Simple_RL/Stimuli/Fractals_stims/C.jpg,/static/Simple_RL/Stimuli/Fractals_stims/D.jpg,,,,,,,,222.0,1.5,1.0,
392,,rl_choice_warning,,html-keyboard-response,392,500075,0.0-1.0-550.0-0.0,1,0,23720,,,,,,,,,,,,,,,,,,,,,,,,,,,,223.0,1.0,,
393,,isi,,html-keyboard-response,393,501077,0.0-1.0-551.0,0,0,23720,,,,,,,,,,,,,,,,,,,,,,,,,,,,224.0,1.0,,
394,,iti,,html-keyboard-response,394,502579,0.0-1.0-553.0,0,0,23720,,,,,,,,,,,,,,,,,,,,,,,,,,,,225.5,1.5,,
395,,rl_choice,,html-keyboard-response,395,503533,0.0-1.0-555.0,0,0,23720,,954.0,,,75.0,79.0,79.0,2.0,easy,2000.0,2000.0,1.0,80.0,20.0,100.0,0.0,B,A,/static/Simple_RL/Stimuli/Fractals_stims/B.jpg,/static/Simple_RL/Stimuli/Fractals_stims/A.jpg,0.0,20.0,80.0,0.0,100.0,A,B,226.454,0.954,0.0,
396,,rl_choice_confirmation,,html-keyboard-response,396,504081,0.0-1.0-556.0-0.0,0,0,23720,,,,,,79.0,,,,,,,,,,,,,,,,,,,,,,227.0,0.546,,
397,,isi,,html-keyboard-response,397,506083,0.0-1.0-558.0,0,0,23720,,,,,,,,,,,,,,,,,,,,,,,,,,,,229.0,2.0,,
398,,feedback,,html-keyboard-response,398,507084,0.0-1.0-559.0-0.0,0,0,23720,,,,,,79.0,,,,,,,,,,,,,,,,,,,,,,230.0,1.0,,
399,,iti,,html-keyboard-response,399,509086,0.0-1.0-560.0,0,0,23720,,,,,,,,,,,,,,,,,,,,,,,,,,,,232.0,2.0,,0.74
400,,final_tally,,html-keyboard-response,400,513075,0.0-2.0,0,0,23720,,3989.0,,,68.0,,,,,,,,,,,,,,,,,,,,,,,,,,
401,,debreif_intro,,html-keyboard-response,401,515882,0.0-3.0,0,0,23720,,2796.0,,,68.0,,,,,,,,,,,,,,,,,,,,,,,,,,
402,,debreif_age,,survey-text,402,521645,0.0-4.0,0,0,23720,,5762.0,"{""Q0"":""31""}",,,,,,,,,,,,,,,,,,,,,,,,,,,,
403,,debreif_gender,,survey-multi-choice,403,522929,0.0-5.0,0,0,23720,,1282.0,"{""Q0"":""Female""}",,,,,,,,,,,,,,,,,,,,,,,,,,,,
404,,debreif_dominant_hand,,survey-multi-choice,404,525375,0.0-6.0,0,0,23720,,2445.0,"{""Q0"":""Right""}",,,,,,,,,,,,,,,,,,,,,,,,,,,,
405,,debreif_native_language,,survey-multi-choice,405,527603,0.0-7.0,0,0,23720,,2227.0,"{""Q0"":""Yes""}",,,,,,,,,,,,,,,,,,,,,,,,,,,,
406,,debreif_fluency,,survey-likert,406,530067,0.0-8.0,0,0,23720,,2463.0,"{""Q0"":5}",,,,,,,,,,,,,,,,,,,,,,,,,,,,
407,,debreif_strategy_category_learning,,survey-text,407,575943,0.0-9.0,0,0,23720,,45875.0,"{""Q0"":""I picked the one that gave the most, then created a category based on payout. Everything that fell into a particular category is what I would choose. For example, I knew most watches payed out alot.""}",,,,,,,,,,,,,,,,,,,,,,,,,,,,
408,,debreif_strategy_old_trials,,survey-text,408,614497,0.0-10.0,0,0,23720,,38553.0,"{""Q0"":""If the objects were in the same category, I would try to remember which one specifically paid out more. Most of the items in the same category were repeated.""}",,,,,,,,,,,,,,,,,,,,,,,,,,,,
409,,debreif_strategy_category_memory,,survey-text,409,633020,0.0-11.0,0,0,23720,,18523.0,"{""Q0"":""I tried to recall what the average of the items was.""}",,,,,,,,,,,,,,,,,,,,,,,,,,,,
410,,debreif_strategy_size,,survey-text,410,672295,0.0-12.0,0,0,23720,,39273.0,"{""Q0"":""I picked which one was actually big in real life. However, sometimes my brain stumbled because some items looked bigger in the picture.""}",,,,,,,,,,,,,,,,,,,,,,,,,,,,
411,,debreif_strategy_rl,,survey-text,411,682769,0.0-13.0,0,0,23720,,10473.0,"{""Q0"":""I picked one side and stuck with it mostly.""}",,,,,,,,,,,,,,,,,,,,,,,,,,,,
412,,debreif_clear_instructions,,survey-text,412,692183,0.0-14.0,0,0,23720,,9413.0,"{""Q0"":""No, all the instructions were clear.""}",,,,,,,,,,,,,,,,,,,,,,,,,,,,
413,,debreif_end,,html-keyboard-response,413,711675,0.0-15.0,0,0,23720,,19491.0,,,32.0,,,,,,,,,,,,,,,,,,,,,,,,,,
