,success,ttype,start_time,trial_type,trial_index,time_elapsed,internal_node_id,warning,missed_checkup,PID,view_history,rt,responses,repeat_instructions,key_press,index,trial_num,block,condition,iti,isi,high_group_on_left,left_group_value,right_group_value,left_item_value,right_item_value,left_img,right_img,left_img_path,right_img_path,left_chosen,chosen_group_value,unchosen_group_value,chosen_item_value,unchosen_item_value,chosen_img,unchosen_img,onset,duration,no_response,total_bonus_tally
0,True,full_screen,d06032022hr2350,fullscreen,0,3885,0.0-0.0,0,0,27712,,,,,,,,,,,,,,,,,,,,,,,,,,,,,,,
1,,size_instructions,,instructions,1,17524,0.0-1.0-0.0-0.0,0,0,27712,"[{""page_index"":0,""viewing_time"":4278},{""page_index"":1,""viewing_time"":3450},{""page_index"":2,""viewing_time"":1743},{""page_index"":3,""viewing_time"":1119},{""page_index"":4,""viewing_time"":1289},{""page_index"":5,""viewing_time"":1754}]",13635.0,,,,,,,,,,,,,,,,,,,,,,,,,,,,,
2,,rl_comprehension_check,,survey-multi-choice,2,27162,0.0-1.0-0.0-1.0,0,0,27712,,9634.0,"{""Q0"":""True"",""Q1"":""True"",""Q2"":""D for left and K for right""}",0.0,,,,,,,,,,,,,,,,,,,,,,,,,,,
3,,,,html-keyboard-response,3,28669,0.0-1.0-1.0,0,0,27712,,1502.0,,,68.0,,,,,,,,,,,,,,,,,,,,,,,,,,
4,,rl_choice,,html-keyboard-response,4,29609,0.0-1.0-2.0,0,0,27712,,937.0,,,68.0,0.0,0.0,1.0,hard,1000.0,2000.0,0.0,40.0,60.0,20.0,60.0,C,D,/static/Simple_RL/Stimuli/Fractals_stims/C.jpg,/static/Simple_RL/Stimuli/Fractals_stims/D.jpg,1.0,40.0,60.0,20.0,60.0,C,D,0.937,0.937,0.0,
5,,rl_choice_confirmation,,html-keyboard-response,5,30175,0.0-1.0-3.0-0.0,0,0,27712,,,,,,0.0,,,,,,,,,,,,,,,,,,,,,,1.5,0.563,,
6,,isi,,html-keyboard-response,6,32180,0.0-1.0-5.0,0,0,27712,,,,,,,,,,,,,,,,,,,,,,,,,,,,3.5,2.0,,
7,,feedback,,html-keyboard-response,7,33187,0.0-1.0-6.0-0.0,0,0,27712,,,,,,0.0,,,,,,,,,,,,,,,,,,,,,,4.5,1.0,,
8,,iti,,html-keyboard-response,8,34191,0.0-1.0-7.0,0,0,27712,,,,,,,,,,,,,,,,,,,,,,,,,,,,5.5,1.0,,
9,,rl_choice,,html-keyboard-response,9,35608,0.0-1.0-9.0,0,0,27712,,1415.0,,,75.0,1.0,1.0,1.0,easy,1000.0,3000.0,1.0,80.0,20.0,100.0,40.0,B,A,/static/Simple_RL/Stimuli/Fractals_stims/B.jpg,/static/Simple_RL/Stimuli/Fractals_stims/A.jpg,0.0,20.0,80.0,40.0,100.0,A,B,6.915,1.415,0.0,
10,,rl_choice_confirmation,,html-keyboard-response,10,35696,0.0-1.0-10.0-0.0,0,0,27712,,,,,,1.0,,,,,,,,,,,,,,,,,,,,,,7.0,0.085,,
11,,isi,,html-keyboard-response,11,38700,0.0-1.0-12.0,0,0,27712,,,,,,,,,,,,,,,,,,,,,,,,,,,,10.0,3.0,,
12,,feedback,,html-keyboard-response,12,39705,0.0-1.0-13.0-0.0,0,0,27712,,,,,,1.0,,,,,,,,,,,,,,,,,,,,,,11.0,1.0,,
13,,iti,,html-keyboard-response,13,40708,0.0-1.0-14.0,0,0,27712,,,,,,,,,,,,,,,,,,,,,,,,,,,,12.0,1.0,,
14,,rl_choice,,html-keyboard-response,14,41928,0.0-1.0-16.0,0,0,27712,,1219.0,,,75.0,2.0,2.0,1.0,hard,3000.0,1000.0,0.0,40.0,60.0,20.0,80.0,C,D,/static/Simple_RL/Stimuli/Fractals_stims/C.jpg,/static/Simple_RL/Stimuli/Fractals_stims/D.jpg,0.0,60.0,40.0,80.0,20.0,D,C,13.219,1.219,0.0,
15,,rl_choice_confirmation,,html-keyboard-response,15,42212,0.0-1.0-17.0-0.0,0,0,27712,,,,,,2.0,,,,,,,,,,,,,,,,,,,,,,13.5,0.281,,
16,,isi,,html-keyboard-response,16,43214,0.0-1.0-19.0,0,0,27712,,,,,,,,,,,,,,,,,,,,,,,,,,,,14.5,1.0,,
17,,feedback,,html-keyboard-response,17,44220,0.0-1.0-20.0-0.0,0,0,27712,,,,,,2.0,,,,,,,,,,,,,,,,,,,,,,15.5,1.0,,
18,,iti,,html-keyboard-response,18,47227,0.0-1.0-21.0,0,0,27712,,,,,,,,,,,,,,,,,,,,,,,,,,,,18.5,3.0,,
19,,rl_choice,,html-keyboard-response,19,47890,0.0-1.0-23.0,0,0,27712,,661.0,,,75.0,3.0,3.0,1.0,hard,1000.0,3500.0,0.0,40.0,60.0,60.0,60.0,C,D,/static/Simple_RL/Stimuli/Fractals_stims/C.jpg,/static/Simple_RL/Stimuli/Fractals_stims/D.jpg,0.0,60.0,40.0,60.0,60.0,D,C,19.161,0.661,0.0,
20,,rl_choice_confirmation,,html-keyboard-response,20,48734,0.0-1.0-24.0-0.0,0,0,27712,,,,,,3.0,,,,,,,,,,,,,,,,,,,,,,20.0,0.839,,
21,,isi,,html-keyboard-response,21,52238,0.0-1.0-26.0,0,0,27712,,,,,,,,,,,,,,,,,,,,,,,,,,,,23.5,3.5,,
22,,feedback,,html-keyboard-response,22,53245,0.0-1.0-27.0-0.0,0,0,27712,,,,,,3.0,,,,,,,,,,,,,,,,,,,,,,24.5,1.0,,
23,,iti,,html-keyboard-response,23,54250,0.0-1.0-28.0,0,0,27712,,,,,,,,,,,,,,,,,,,,,,,,,,,,25.5,1.0,,
24,,rl_choice,,html-keyboard-response,24,54896,0.0-1.0-30.0,0,0,27712,,643.0,,,75.0,4.0,4.0,1.0,hard,1500.0,3000.0,0.0,40.0,60.0,20.0,60.0,C,D,/static/Simple_RL/Stimuli/Fractals_stims/C.jpg,/static/Simple_RL/Stimuli/Fractals_stims/D.jpg,0.0,60.0,40.0,60.0,20.0,D,C,26.143,0.643,0.0,
25,,rl_choice_confirmation,,html-keyboard-response,25,55758,0.0-1.0-31.0-0.0,0,0,27712,,,,,,4.0,,,,,,,,,,,,,,,,,,,,,,27.0,0.857,,
26,,isi,,html-keyboard-response,26,58760,0.0-1.0-33.0,0,0,27712,,,,,,,,,,,,,,,,,,,,,,,,,,,,30.0,3.0,,
27,,feedback,,html-keyboard-response,27,59762,0.0-1.0-34.0-0.0,0,0,27712,,,,,,4.0,,,,,,,,,,,,,,,,,,,,,,31.0,1.0,,
28,,iti,,html-keyboard-response,28,61269,0.0-1.0-35.0,0,0,27712,,,,,,,,,,,,,,,,,,,,,,,,,,,,32.5,1.5,,
29,,rl_choice,,html-keyboard-response,29,62297,0.0-1.0-37.0,0,0,27712,,1026.0,,,68.0,5.0,5.0,1.0,easy,2000.0,2000.0,0.0,20.0,80.0,20.0,100.0,A,B,/static/Simple_RL/Stimuli/Fractals_stims/A.jpg,/static/Simple_RL/Stimuli/Fractals_stims/B.jpg,1.0,20.0,80.0,20.0,100.0,A,B,33.526,1.026,0.0,
30,,rl_choice_confirmation,,html-keyboard-response,30,62776,0.0-1.0-38.0-0.0,0,0,27712,,,,,,5.0,,,,,,,,,,,,,,,,,,,,,,34.0,0.474,,
31,,isi,,html-keyboard-response,31,64778,0.0-1.0-40.0,0,0,27712,,,,,,,,,,,,,,,,,,,,,,,,,,,,36.0,2.0,,
32,,feedback,,html-keyboard-response,32,65780,0.0-1.0-41.0-0.0,0,0,27712,,,,,,5.0,,,,,,,,,,,,,,,,,,,,,,37.0,1.0,,
33,,iti,,html-keyboard-response,33,67783,0.0-1.0-42.0,0,0,27712,,,,,,,,,,,,,,,,,,,,,,,,,,,,39.0,2.0,,
34,,rl_choice,,html-keyboard-response,34,68784,0.0-1.0-44.0,0,0,27712,,1000.0,,,75.0,6.0,6.0,1.0,hard,1000.0,1000.0,0.0,40.0,60.0,40.0,80.0,C,D,/static/Simple_RL/Stimuli/Fractals_stims/C.jpg,/static/Simple_RL/Stimuli/Fractals_stims/D.jpg,0.0,60.0,40.0,80.0,40.0,D,C,40.0,1.0,0.0,
35,,rl_choice_confirmation,,html-keyboard-response,35,69287,0.0-1.0-45.0-0.0,0,0,27712,,,,,,6.0,,,,,,,,,,,,,,,,,,,,,,40.5,0.5,,
36,,isi,,html-keyboard-response,36,70290,0.0-1.0-47.0,0,0,27712,,,,,,,,,,,,,,,,,,,,,,,,,,,,41.5,1.0,,
37,,feedback,,html-keyboard-response,37,71293,0.0-1.0-48.0-0.0,0,0,27712,,,,,,6.0,,,,,,,,,,,,,,,,,,,,,,42.5,1.0,,
38,,iti,,html-keyboard-response,38,72299,0.0-1.0-49.0,0,0,27712,,,,,,,,,,,,,,,,,,,,,,,,,,,,43.5,1.0,,
39,,rl_choice,,html-keyboard-response,39,72967,0.0-1.0-51.0,0,0,27712,,666.0,,,75.0,7.0,7.0,1.0,hard,1500.0,1000.0,0.0,40.0,60.0,60.0,80.0,C,D,/static/Simple_RL/Stimuli/Fractals_stims/C.jpg,/static/Simple_RL/Stimuli/Fractals_stims/D.jpg,0.0,60.0,40.0,80.0,60.0,D,C,44.166,0.666,0.0,
40,,rl_choice_confirmation,,html-keyboard-response,40,73804,0.0-1.0-52.0-0.0,0,0,27712,,,,,,7.0,,,,,,,,,,,,,,,,,,,,,,45.0,0.834,,
41,,isi,,html-keyboard-response,41,74807,0.0-1.0-54.0,0,0,27712,,,,,,,,,,,,,,,,,,,,,,,,,,,,46.0,1.0,,
42,,feedback,,html-keyboard-response,42,75810,0.0-1.0-55.0-0.0,0,0,27712,,,,,,7.0,,,,,,,,,,,,,,,,,,,,,,47.0,1.0,,
43,,iti,,html-keyboard-response,43,77313,0.0-1.0-56.0,0,0,27712,,,,,,,,,,,,,,,,,,,,,,,,,,,,48.5,1.5,,
44,,rl_choice,,html-keyboard-response,44,78067,0.0-1.0-58.0,0,0,27712,,751.0,,,75.0,8.0,8.0,1.0,easy,1500.0,2000.0,0.0,20.0,80.0,0.0,100.0,A,B,/static/Simple_RL/Stimuli/Fractals_stims/A.jpg,/static/Simple_RL/Stimuli/Fractals_stims/B.jpg,0.0,80.0,20.0,100.0,0.0,B,A,49.251,0.751,0.0,
45,,rl_choice_confirmation,,html-keyboard-response,45,78818,0.0-1.0-59.0-0.0,0,0,27712,,,,,,8.0,,,,,,,,,,,,,,,,,,,,,,50.0,0.749,,
46,,isi,,html-keyboard-response,46,80822,0.0-1.0-61.0,0,0,27712,,,,,,,,,,,,,,,,,,,,,,,,,,,,52.0,2.0,,
47,,feedback,,html-keyboard-response,47,81825,0.0-1.0-62.0-0.0,0,0,27712,,,,,,8.0,,,,,,,,,,,,,,,,,,,,,,53.0,1.0,,
48,,iti,,html-keyboard-response,48,83329,0.0-1.0-63.0,0,0,27712,,,,,,,,,,,,,,,,,,,,,,,,,,,,54.5,1.5,,
49,,rl_choice,,html-keyboard-response,49,84312,0.0-1.0-65.0,0,0,27712,,980.0,,,68.0,9.0,9.0,1.0,easy,2000.0,1000.0,1.0,80.0,20.0,60.0,0.0,B,A,/static/Simple_RL/Stimuli/Fractals_stims/B.jpg,/static/Simple_RL/Stimuli/Fractals_stims/A.jpg,1.0,80.0,20.0,60.0,0.0,B,A,55.48,0.98,0.0,
50,,rl_choice_confirmation,,html-keyboard-response,50,84834,0.0-1.0-66.0-0.0,0,0,27712,,,,,,9.0,,,,,,,,,,,,,,,,,,,,,,56.0,0.52,,
51,,isi,,html-keyboard-response,51,85835,0.0-1.0-68.0,0,0,27712,,,,,,,,,,,,,,,,,,,,,,,,,,,,57.0,1.0,,
52,,feedback,,html-keyboard-response,52,86838,0.0-1.0-69.0-0.0,0,0,27712,,,,,,9.0,,,,,,,,,,,,,,,,,,,,,,58.0,1.0,,
53,,iti,,html-keyboard-response,53,88844,0.0-1.0-70.0,0,0,27712,,,,,,,,,,,,,,,,,,,,,,,,,,,,60.0,2.0,,
54,,rl_choice,,html-keyboard-response,54,89965,0.0-1.0-72.0,0,0,27712,,1119.0,,,68.0,10.0,10.0,1.0,hard,1000.0,1000.0,1.0,60.0,40.0,40.0,40.0,D,C,/static/Simple_RL/Stimuli/Fractals_stims/D.jpg,/static/Simple_RL/Stimuli/Fractals_stims/C.jpg,1.0,60.0,40.0,40.0,40.0,D,C,61.119,1.119,0.0,
55,,rl_choice_confirmation,,html-keyboard-response,55,90348,0.0-1.0-73.0-0.0,0,0,27712,,,,,,10.0,,,,,,,,,,,,,,,,,,,,,,61.5,0.381,,
56,,isi,,html-keyboard-response,56,91350,0.0-1.0-75.0,0,0,27712,,,,,,,,,,,,,,,,,,,,,,,,,,,,62.5,1.0,,
57,,feedback,,html-keyboard-response,57,92355,0.0-1.0-76.0-0.0,0,0,27712,,,,,,10.0,,,,,,,,,,,,,,,,,,,,,,63.5,1.0,,
58,,iti,,html-keyboard-response,58,93357,0.0-1.0-77.0,0,0,27712,,,,,,,,,,,,,,,,,,,,,,,,,,,,64.5,1.0,,
59,,rl_choice,,html-keyboard-response,59,94268,0.0-1.0-79.0,0,0,27712,,909.0,,,75.0,11.0,11.0,1.0,easy,1000.0,3000.0,0.0,20.0,80.0,20.0,60.0,A,B,/static/Simple_RL/Stimuli/Fractals_stims/A.jpg,/static/Simple_RL/Stimuli/Fractals_stims/B.jpg,0.0,80.0,20.0,60.0,20.0,B,A,65.409,0.909,0.0,
60,,rl_choice_confirmation,,html-keyboard-response,60,94865,0.0-1.0-80.0-0.0,0,0,27712,,,,,,11.0,,,,,,,,,,,,,,,,,,,,,,66.0,0.591,,
61,,isi,,html-keyboard-response,61,97867,0.0-1.0-82.0,0,0,27712,,,,,,,,,,,,,,,,,,,,,,,,,,,,69.0,3.0,,
62,,feedback,,html-keyboard-response,62,98870,0.0-1.0-83.0-0.0,0,0,27712,,,,,,11.0,,,,,,,,,,,,,,,,,,,,,,70.0,1.0,,
63,,iti,,html-keyboard-response,63,99872,0.0-1.0-84.0,0,0,27712,,,,,,,,,,,,,,,,,,,,,,,,,,,,71.0,1.0,,
64,,rl_choice,,html-keyboard-response,64,101351,0.0-1.0-86.0,0,0,27712,,1476.0,,,68.0,12.0,12.0,1.0,easy,3000.0,1500.0,0.0,20.0,80.0,20.0,80.0,A,B,/static/Simple_RL/Stimuli/Fractals_stims/A.jpg,/static/Simple_RL/Stimuli/Fractals_stims/B.jpg,1.0,20.0,80.0,20.0,80.0,A,B,72.476,1.476,0.0,
65,,rl_choice_confirmation,,html-keyboard-response,65,101377,0.0-1.0-87.0-0.0,0,0,27712,,,,,,12.0,,,,,,,,,,,,,,,,,,,,,,72.5,0.024,,
66,,isi,,html-keyboard-response,66,102882,0.0-1.0-89.0,0,0,27712,,,,,,,,,,,,,,,,,,,,,,,,,,,,74.0,1.5,,
67,,feedback,,html-keyboard-response,67,103885,0.0-1.0-90.0-0.0,0,0,27712,,,,,,12.0,,,,,,,,,,,,,,,,,,,,,,75.0,1.0,,
68,,iti,,html-keyboard-response,68,106890,0.0-1.0-91.0,0,0,27712,,,,,,,,,,,,,,,,,,,,,,,,,,,,78.0,3.0,,
69,,rl_choice,,html-keyboard-response,69,107746,0.0-1.0-93.0,0,0,27712,,853.0,,,75.0,13.0,13.0,1.0,hard,1000.0,2000.0,0.0,40.0,60.0,40.0,80.0,C,D,/static/Simple_RL/Stimuli/Fractals_stims/C.jpg,/static/Simple_RL/Stimuli/Fractals_stims/D.jpg,0.0,60.0,40.0,80.0,40.0,D,C,78.853,0.853,0.0,
70,,rl_choice_confirmation,,html-keyboard-response,70,108395,0.0-1.0-94.0-0.0,0,0,27712,,,,,,13.0,,,,,,,,,,,,,,,,,,,,,,79.5,0.647,,
71,,isi,,html-keyboard-response,71,110399,0.0-1.0-96.0,0,0,27712,,,,,,,,,,,,,,,,,,,,,,,,,,,,81.5,2.0,,
72,,feedback,,html-keyboard-response,72,111404,0.0-1.0-97.0-0.0,0,0,27712,,,,,,13.0,,,,,,,,,,,,,,,,,,,,,,82.5,1.0,,
73,,iti,,html-keyboard-response,73,112410,0.0-1.0-98.0,0,0,27712,,,,,,,,,,,,,,,,,,,,,,,,,,,,83.5,1.0,,
74,,rl_choice,,html-keyboard-response,74,113076,0.0-1.0-100.0,0,0,27712,,663.0,,,75.0,14.0,14.0,1.0,easy,1500.0,1500.0,0.0,20.0,80.0,20.0,80.0,A,B,/static/Simple_RL/Stimuli/Fractals_stims/A.jpg,/static/Simple_RL/Stimuli/Fractals_stims/B.jpg,0.0,80.0,20.0,80.0,20.0,B,A,84.163,0.663,0.0,
75,,rl_choice_confirmation,,html-keyboard-response,75,113915,0.0-1.0-101.0-0.0,0,0,27712,,,,,,14.0,,,,,,,,,,,,,,,,,,,,,,85.0,0.837,,
76,,isi,,html-keyboard-response,76,115418,0.0-1.0-103.0,0,0,27712,,,,,,,,,,,,,,,,,,,,,,,,,,,,86.5,1.5,,
77,,feedback,,html-keyboard-response,77,116423,0.0-1.0-104.0-0.0,0,0,27712,,,,,,14.0,,,,,,,,,,,,,,,,,,,,,,87.5,1.0,,
78,,iti,,html-keyboard-response,78,117925,0.0-1.0-105.0,0,0,27712,,,,,,,,,,,,,,,,,,,,,,,,,,,,89.0,1.5,,
79,,rl_choice,,html-keyboard-response,79,118689,0.0-1.0-107.0,0,0,27712,,763.0,,,68.0,15.0,15.0,1.0,hard,1500.0,2000.0,1.0,60.0,40.0,40.0,60.0,D,C,/static/Simple_RL/Stimuli/Fractals_stims/D.jpg,/static/Simple_RL/Stimuli/Fractals_stims/C.jpg,1.0,60.0,40.0,40.0,60.0,D,C,89.763,0.763,0.0,
80,,rl_choice_confirmation,,html-keyboard-response,80,119428,0.0-1.0-108.0-0.0,0,0,27712,,,,,,15.0,,,,,,,,,,,,,,,,,,,,,,90.5,0.737,,
81,,isi,,html-keyboard-response,81,121434,0.0-1.0-110.0,0,0,27712,,,,,,,,,,,,,,,,,,,,,,,,,,,,92.5,2.0,,
82,,feedback,,html-keyboard-response,82,122436,0.0-1.0-111.0-0.0,0,0,27712,,,,,,15.0,,,,,,,,,,,,,,,,,,,,,,93.5,1.0,,
83,,iti,,html-keyboard-response,83,123942,0.0-1.0-112.0,0,0,27712,,,,,,,,,,,,,,,,,,,,,,,,,,,,95.0,1.5,,
84,,rl_choice,,html-keyboard-response,84,124785,0.0-1.0-114.0,0,0,27712,,841.0,,,68.0,16.0,16.0,1.0,hard,1000.0,1000.0,1.0,60.0,40.0,60.0,60.0,D,C,/static/Simple_RL/Stimuli/Fractals_stims/D.jpg,/static/Simple_RL/Stimuli/Fractals_stims/C.jpg,1.0,60.0,40.0,60.0,60.0,D,C,95.841,0.841,0.0,
85,,rl_choice_confirmation,,html-keyboard-response,85,125449,0.0-1.0-115.0-0.0,0,0,27712,,,,,,16.0,,,,,,,,,,,,,,,,,,,,,,96.5,0.659,,
86,,isi,,html-keyboard-response,86,126452,0.0-1.0-117.0,0,0,27712,,,,,,,,,,,,,,,,,,,,,,,,,,,,97.5,1.0,,
87,,feedback,,html-keyboard-response,87,127457,0.0-1.0-118.0-0.0,0,0,27712,,,,,,16.0,,,,,,,,,,,,,,,,,,,,,,98.5,1.0,,
88,,iti,,html-keyboard-response,88,128465,0.0-1.0-119.0,0,0,27712,,,,,,,,,,,,,,,,,,,,,,,,,,,,99.5,1.0,,
89,,rl_choice,,html-keyboard-response,89,129643,0.0-1.0-121.0,0,0,27712,,1176.0,,,68.0,17.0,17.0,1.0,easy,3000.0,1500.0,1.0,80.0,20.0,60.0,20.0,B,A,/static/Simple_RL/Stimuli/Fractals_stims/B.jpg,/static/Simple_RL/Stimuli/Fractals_stims/A.jpg,1.0,80.0,20.0,60.0,20.0,B,A,100.676,1.176,0.0,
90,,rl_choice_confirmation,,html-keyboard-response,90,129969,0.0-1.0-122.0-0.0,0,0,27712,,,,,,17.0,,,,,,,,,,,,,,,,,,,,,,101.0,0.324,,
91,,isi,,html-keyboard-response,91,131472,0.0-1.0-124.0,0,0,27712,,,,,,,,,,,,,,,,,,,,,,,,,,,,102.5,1.5,,
92,,feedback,,html-keyboard-response,92,132475,0.0-1.0-125.0-0.0,0,0,27712,,,,,,17.0,,,,,,,,,,,,,,,,,,,,,,103.5,1.0,,
93,,iti,,html-keyboard-response,93,135478,0.0-1.0-126.0,0,0,27712,,,,,,,,,,,,,,,,,,,,,,,,,,,,106.5,3.0,,
94,,rl_choice,,html-keyboard-response,94,136749,0.0-1.0-128.0,0,0,27712,,1268.0,,,68.0,18.0,18.0,1.0,hard,3500.0,1500.0,1.0,60.0,40.0,60.0,60.0,D,C,/static/Simple_RL/Stimuli/Fractals_stims/D.jpg,/static/Simple_RL/Stimuli/Fractals_stims/C.jpg,1.0,60.0,40.0,60.0,60.0,D,C,107.768,1.268,0.0,
95,,rl_choice_confirmation,,html-keyboard-response,95,136984,0.0-1.0-129.0-0.0,0,0,27712,,,,,,18.0,,,,,,,,,,,,,,,,,,,,,,108.0,0.232,,
96,,isi,,html-keyboard-response,96,138486,0.0-1.0-131.0,0,0,27712,,,,,,,,,,,,,,,,,,,,,,,,,,,,109.5,1.5,,
97,,feedback,,html-keyboard-response,97,139489,0.0-1.0-132.0-0.0,0,0,27712,,,,,,18.0,,,,,,,,,,,,,,,,,,,,,,110.5,1.0,,
98,,iti,,html-keyboard-response,98,142993,0.0-1.0-133.0,0,0,27712,,,,,,,,,,,,,,,,,,,,,,,,,,,,114.0,3.5,,
99,,rl_choice,,html-keyboard-response,99,144204,0.0-1.0-135.0,0,0,27712,,1209.0,,,68.0,19.0,19.0,1.0,hard,2000.0,1500.0,1.0,60.0,40.0,60.0,20.0,D,C,/static/Simple_RL/Stimuli/Fractals_stims/D.jpg,/static/Simple_RL/Stimuli/Fractals_stims/C.jpg,1.0,60.0,40.0,60.0,20.0,D,C,115.209,1.209,0.0,
100,,rl_choice_confirmation,,html-keyboard-response,100,144498,0.0-1.0-136.0-0.0,0,0,27712,,,,,,19.0,,,,,,,,,,,,,,,,,,,,,,115.5,0.291,,
101,,isi,,html-keyboard-response,101,146001,0.0-1.0-138.0,0,0,27712,,,,,,,,,,,,,,,,,,,,,,,,,,,,117.0,1.5,,
102,,feedback,,html-keyboard-response,102,147003,0.0-1.0-139.0-0.0,0,0,27712,,,,,,19.0,,,,,,,,,,,,,,,,,,,,,,118.0,1.0,,
103,,iti,,html-keyboard-response,103,149009,0.0-1.0-140.0,0,0,27712,,,,,,,,,,,,,,,,,,,,,,,,,,,,120.0,2.0,,
104,,rl_choice,,html-keyboard-response,104,150317,0.0-1.0-142.0,0,0,27712,,1305.0,,,68.0,20.0,20.0,1.0,easy,2000.0,1000.0,1.0,80.0,20.0,80.0,20.0,B,A,/static/Simple_RL/Stimuli/Fractals_stims/B.jpg,/static/Simple_RL/Stimuli/Fractals_stims/A.jpg,1.0,80.0,20.0,80.0,20.0,B,A,121.305,1.305,0.0,
105,,rl_choice_confirmation,,html-keyboard-response,105,150514,0.0-1.0-143.0-0.0,0,0,27712,,,,,,20.0,,,,,,,,,,,,,,,,,,,,,,121.5,0.195,,
106,,isi,,html-keyboard-response,106,151521,0.0-1.0-145.0,0,0,27712,,,,,,,,,,,,,,,,,,,,,,,,,,,,122.5,1.0,,
107,,feedback,,html-keyboard-response,107,152528,0.0-1.0-146.0-0.0,0,0,27712,,,,,,20.0,,,,,,,,,,,,,,,,,,,,,,123.5,1.0,,
108,,iti,,html-keyboard-response,108,154531,0.0-1.0-147.0,0,0,27712,,,,,,,,,,,,,,,,,,,,,,,,,,,,125.5,2.0,,
109,,rl_choice,,html-keyboard-response,109,155907,0.0-1.0-149.0,0,0,27712,,1374.0,,,68.0,21.0,21.0,1.0,easy,1500.0,2000.0,1.0,80.0,20.0,80.0,20.0,B,A,/static/Simple_RL/Stimuli/Fractals_stims/B.jpg,/static/Simple_RL/Stimuli/Fractals_stims/A.jpg,1.0,80.0,20.0,80.0,20.0,B,A,126.874,1.374,0.0,
110,,rl_choice_confirmation,,html-keyboard-response,110,156038,0.0-1.0-150.0-0.0,0,0,27712,,,,,,21.0,,,,,,,,,,,,,,,,,,,,,,127.0,0.126,,
111,,isi,,html-keyboard-response,111,158044,0.0-1.0-152.0,0,0,27712,,,,,,,,,,,,,,,,,,,,,,,,,,,,129.0,2.0,,
112,,feedback,,html-keyboard-response,112,159046,0.0-1.0-153.0-0.0,0,0,27712,,,,,,21.0,,,,,,,,,,,,,,,,,,,,,,130.0,1.0,,
113,,iti,,html-keyboard-response,113,160550,0.0-1.0-154.0,0,0,27712,,,,,,,,,,,,,,,,,,,,,,,,,,,,131.5,1.5,,
114,,rl_choice,,html-keyboard-response,114,162026,0.0-1.0-156.0,0,0,27712,,1472.0,,,75.0,22.0,22.0,1.0,easy,1000.0,1000.0,0.0,20.0,80.0,0.0,100.0,A,B,/static/Simple_RL/Stimuli/Fractals_stims/A.jpg,/static/Simple_RL/Stimuli/Fractals_stims/B.jpg,0.0,80.0,20.0,100.0,0.0,B,A,132.972,1.472,0.0,
115,,rl_choice_confirmation,,html-keyboard-response,115,162057,0.0-1.0-157.0-0.0,0,0,27712,,,,,,22.0,,,,,,,,,,,,,,,,,,,,,,133.0,0.028,,
116,,isi,,html-keyboard-response,116,163063,0.0-1.0-159.0,0,0,27712,,,,,,,,,,,,,,,,,,,,,,,,,,,,134.0,1.0,,
117,,feedback,,html-keyboard-response,117,164070,0.0-1.0-160.0-0.0,0,0,27712,,,,,,22.0,,,,,,,,,,,,,,,,,,,,,,135.0,1.0,,
118,,iti,,html-keyboard-response,118,165073,0.0-1.0-161.0,0,0,27712,,,,,,,,,,,,,,,,,,,,,,,,,,,,136.0,1.0,,
119,,rl_choice,,html-keyboard-response,119,166360,0.0-1.0-163.0,0,0,27712,,1285.0,,,68.0,23.0,23.0,1.0,hard,2000.0,1000.0,1.0,60.0,40.0,80.0,60.0,D,C,/static/Simple_RL/Stimuli/Fractals_stims/D.jpg,/static/Simple_RL/Stimuli/Fractals_stims/C.jpg,1.0,60.0,40.0,80.0,60.0,D,C,137.285,1.285,0.0,
120,,rl_choice_confirmation,,html-keyboard-response,120,166578,0.0-1.0-164.0-0.0,0,0,27712,,,,,,23.0,,,,,,,,,,,,,,,,,,,,,,137.5,0.215,,
121,,isi,,html-keyboard-response,121,167580,0.0-1.0-166.0,0,0,27712,,,,,,,,,,,,,,,,,,,,,,,,,,,,138.5,1.0,,
122,,feedback,,html-keyboard-response,122,168583,0.0-1.0-167.0-0.0,0,0,27712,,,,,,23.0,,,,,,,,,,,,,,,,,,,,,,139.5,1.0,,
123,,iti,,html-keyboard-response,123,170588,0.0-1.0-168.0,0,0,27712,,,,,,,,,,,,,,,,,,,,,,,,,,,,141.5,2.0,,
124,,rl_choice,,html-keyboard-response,124,171879,0.0-1.0-170.0,0,0,27712,,1290.0,,,68.0,24.0,24.0,1.0,hard,1000.0,3000.0,1.0,60.0,40.0,40.0,60.0,D,C,/static/Simple_RL/Stimuli/Fractals_stims/D.jpg,/static/Simple_RL/Stimuli/Fractals_stims/C.jpg,1.0,60.0,40.0,40.0,60.0,D,C,142.79,1.29,0.0,
125,,rl_choice_confirmation,,html-keyboard-response,125,172092,0.0-1.0-171.0-0.0,0,0,27712,,,,,,24.0,,,,,,,,,,,,,,,,,,,,,,143.0,0.21,,
126,,isi,,html-keyboard-response,126,175095,0.0-1.0-173.0,0,0,27712,,,,,,,,,,,,,,,,,,,,,,,,,,,,146.0,3.0,,
127,,feedback,,html-keyboard-response,127,176097,0.0-1.0-174.0-0.0,0,0,27712,,,,,,24.0,,,,,,,,,,,,,,,,,,,,,,147.0,1.0,,
128,,iti,,html-keyboard-response,128,177100,0.0-1.0-175.0,0,0,27712,,,,,,,,,,,,,,,,,,,,,,,,,,,,148.0,1.0,,
129,,rl_choice,,html-keyboard-response,129,178125,0.0-1.0-177.0,0,0,27712,,1022.0,,,68.0,25.0,25.0,1.0,hard,2000.0,1000.0,1.0,60.0,40.0,40.0,40.0,D,C,/static/Simple_RL/Stimuli/Fractals_stims/D.jpg,/static/Simple_RL/Stimuli/Fractals_stims/C.jpg,1.0,60.0,40.0,40.0,40.0,D,C,149.022,1.022,0.0,
130,,rl_choice_confirmation,,html-keyboard-response,130,178605,0.0-1.0-178.0-0.0,0,0,27712,,,,,,25.0,,,,,,,,,,,,,,,,,,,,,,149.5,0.478,,
131,,isi,,html-keyboard-response,131,179607,0.0-1.0-180.0,0,0,27712,,,,,,,,,,,,,,,,,,,,,,,,,,,,150.5,1.0,,
132,,feedback,,html-keyboard-response,132,180614,0.0-1.0-181.0-0.0,0,0,27712,,,,,,25.0,,,,,,,,,,,,,,,,,,,,,,151.5,1.0,,
133,,iti,,html-keyboard-response,133,182620,0.0-1.0-182.0,0,0,27712,,,,,,,,,,,,,,,,,,,,,,,,,,,,153.5,2.0,,
134,,rl_choice,,html-keyboard-response,134,183791,0.0-1.0-184.0,0,0,27712,,1168.0,,,68.0,26.0,26.0,1.0,easy,1000.0,1000.0,1.0,80.0,20.0,100.0,20.0,B,A,/static/Simple_RL/Stimuli/Fractals_stims/B.jpg,/static/Simple_RL/Stimuli/Fractals_stims/A.jpg,1.0,80.0,20.0,100.0,20.0,B,A,154.668,1.168,0.0,
135,,rl_choice_confirmation,,html-keyboard-response,135,184126,0.0-1.0-185.0-0.0,0,0,27712,,,,,,26.0,,,,,,,,,,,,,,,,,,,,,,155.0,0.332,,
136,,isi,,html-keyboard-response,136,185132,0.0-1.0-187.0,0,0,27712,,,,,,,,,,,,,,,,,,,,,,,,,,,,156.0,1.0,,
137,,feedback,,html-keyboard-response,137,186140,0.0-1.0-188.0-0.0,0,0,27712,,,,,,26.0,,,,,,,,,,,,,,,,,,,,,,157.0,1.0,,
138,,iti,,html-keyboard-response,138,187143,0.0-1.0-189.0,0,0,27712,,,,,,,,,,,,,,,,,,,,,,,,,,,,158.0,1.0,,
139,,rl_choice,,html-keyboard-response,139,188452,0.0-1.0-191.0,0,0,27712,,1307.0,,,75.0,27.0,27.0,1.0,hard,1000.0,1500.0,0.0,40.0,60.0,20.0,80.0,C,D,/static/Simple_RL/Stimuli/Fractals_stims/C.jpg,/static/Simple_RL/Stimuli/Fractals_stims/D.jpg,0.0,60.0,40.0,80.0,20.0,D,C,159.307,1.307,0.0,
140,,rl_choice_confirmation,,html-keyboard-response,140,188648,0.0-1.0-192.0-0.0,0,0,27712,,,,,,27.0,,,,,,,,,,,,,,,,,,,,,,159.5,0.193,,
141,,isi,,html-keyboard-response,141,190151,0.0-1.0-194.0,0,0,27712,,,,,,,,,,,,,,,,,,,,,,,,,,,,161.0,1.5,,
142,,feedback,,html-keyboard-response,142,191159,0.0-1.0-195.0-0.0,0,0,27712,,,,,,27.0,,,,,,,,,,,,,,,,,,,,,,162.0,1.0,,
143,,iti,,html-keyboard-response,143,192161,0.0-1.0-196.0,0,0,27712,,,,,,,,,,,,,,,,,,,,,,,,,,,,163.0,1.0,,
144,,rl_choice,,html-keyboard-response,144,193533,0.0-1.0-198.0,0,0,27712,,1370.0,,,75.0,28.0,28.0,1.0,hard,1500.0,1500.0,0.0,40.0,60.0,40.0,40.0,C,D,/static/Simple_RL/Stimuli/Fractals_stims/C.jpg,/static/Simple_RL/Stimuli/Fractals_stims/D.jpg,0.0,60.0,40.0,40.0,40.0,D,C,164.37,1.37,0.0,
145,,rl_choice_confirmation,,html-keyboard-response,145,193665,0.0-1.0-199.0-0.0,0,0,27712,,,,,,28.0,,,,,,,,,,,,,,,,,,,,,,164.5,0.13,,
146,,isi,,html-keyboard-response,146,195169,0.0-1.0-201.0,0,0,27712,,,,,,,,,,,,,,,,,,,,,,,,,,,,166.0,1.5,,
147,,feedback,,html-keyboard-response,147,196176,0.0-1.0-202.0-0.0,0,0,27712,,,,,,28.0,,,,,,,,,,,,,,,,,,,,,,167.0,1.0,,
148,,iti,,html-keyboard-response,148,197679,0.0-1.0-203.0,0,0,27712,,,,,,,,,,,,,,,,,,,,,,,,,,,,168.5,1.5,,
149,,rl_choice,,html-keyboard-response,149,198949,0.0-1.0-205.0,0,0,27712,,1267.0,,,75.0,29.0,29.0,1.0,easy,1000.0,1000.0,0.0,20.0,80.0,20.0,80.0,A,B,/static/Simple_RL/Stimuli/Fractals_stims/A.jpg,/static/Simple_RL/Stimuli/Fractals_stims/B.jpg,0.0,80.0,20.0,80.0,20.0,B,A,169.767,1.267,0.0,
150,,rl_choice_confirmation,,html-keyboard-response,150,199186,0.0-1.0-206.0-0.0,0,0,27712,,,,,,29.0,,,,,,,,,,,,,,,,,,,,,,170.0,0.233,,
151,,isi,,html-keyboard-response,151,200188,0.0-1.0-208.0,0,0,27712,,,,,,,,,,,,,,,,,,,,,,,,,,,,171.0,1.0,,
152,,feedback,,html-keyboard-response,152,201225,0.0-1.0-209.0-0.0,0,0,27712,,,,,,29.0,,,,,,,,,,,,,,,,,,,,,,172.0,1.0,,
153,,iti,,html-keyboard-response,153,202838,0.0-1.0-210.0,0,0,27712,,,,,,,,,,,,,,,,,,,,,,,,,,,,173.0,1.0,,
154,,rl_choice,,html-keyboard-response,154,204342,0.0-1.0-212.0,0,0,27712,,,,,,30.0,30.0,1.0,hard,1500.0,2000.0,1.0,60.0,40.0,80.0,60.0,D,C,/static/Simple_RL/Stimuli/Fractals_stims/D.jpg,/static/Simple_RL/Stimuli/Fractals_stims/C.jpg,,,,,,,,174.5,1.5,1.0,
155,,rl_choice_warning,,html-keyboard-response,155,205345,0.0-1.0-214.0-0.0,0,0,27712,,,,,,,,,,,,,,,,,,,,,,,,,,,,175.5,1.0,,
156,,isi,,html-keyboard-response,156,207351,0.0-1.0-215.0,0,0,27712,,,,,,,,,,,,,,,,,,,,,,,,,,,,177.5,2.0,,
157,,iti,,html-keyboard-response,157,208855,0.0-1.0-217.0,0,0,27712,,,,,,,,,,,,,,,,,,,,,,,,,,,,179.0,1.5,,
158,,rl_choice,,html-keyboard-response,158,210359,0.0-1.0-219.0,0,0,27712,,,,,,31.0,31.0,1.0,easy,1000.0,1500.0,1.0,80.0,20.0,80.0,0.0,B,A,/static/Simple_RL/Stimuli/Fractals_stims/B.jpg,/static/Simple_RL/Stimuli/Fractals_stims/A.jpg,,,,,,,,180.5,1.5,1.0,
159,,rl_choice_warning,,html-keyboard-response,159,211361,0.0-1.0-221.0-0.0,0,0,27712,,,,,,,,,,,,,,,,,,,,,,,,,,,,181.5,1.0,,
160,,isi,,html-keyboard-response,160,212865,0.0-1.0-222.0,0,0,27712,,,,,,,,,,,,,,,,,,,,,,,,,,,,183.0,1.5,,
161,,iti,,html-keyboard-response,161,213868,0.0-1.0-224.0,0,0,27712,,,,,,,,,,,,,,,,,,,,,,,,,,,,184.0,1.0,,
162,,rl_choice,,html-keyboard-response,162,214353,0.0-1.0-226.0,0,0,27712,,483.0,,,68.0,32.0,32.0,1.0,easy,1000.0,3500.0,1.0,80.0,20.0,60.0,20.0,B,A,/static/Simple_RL/Stimuli/Fractals_stims/B.jpg,/static/Simple_RL/Stimuli/Fractals_stims/A.jpg,1.0,80.0,20.0,60.0,20.0,B,A,184.483,0.483,0.0,
163,,rl_choice_confirmation,,html-keyboard-response,163,215373,0.0-1.0-227.0-0.0,0,0,27712,,,,,,32.0,,,,,,,,,,,,,,,,,,,,,,185.5,1.017,,
164,,isi,,html-keyboard-response,164,218876,0.0-1.0-229.0,0,0,27712,,,,,,,,,,,,,,,,,,,,,,,,,,,,189.0,3.5,,
165,,feedback,,html-keyboard-response,165,219883,0.0-1.0-230.0-0.0,0,0,27712,,,,,,32.0,,,,,,,,,,,,,,,,,,,,,,190.0,1.0,,
166,,iti,,html-keyboard-response,166,220886,0.0-1.0-231.0,0,0,27712,,,,,,,,,,,,,,,,,,,,,,,,,,,,191.0,1.0,,
167,,rl_choice,,html-keyboard-response,167,222367,0.0-1.0-233.0,0,0,27712,,1477.0,,,68.0,33.0,33.0,1.0,hard,2000.0,1500.0,1.0,60.0,40.0,40.0,20.0,D,C,/static/Simple_RL/Stimuli/Fractals_stims/D.jpg,/static/Simple_RL/Stimuli/Fractals_stims/C.jpg,1.0,60.0,40.0,40.0,20.0,D,C,192.477,1.477,0.0,
168,,rl_choice_confirmation,,html-keyboard-response,168,222393,0.0-1.0-234.0-0.0,0,0,27712,,,,,,33.0,,,,,,,,,,,,,,,,,,,,,,192.5,0.023,,
169,,isi,,html-keyboard-response,169,223895,0.0-1.0-236.0,0,0,27712,,,,,,,,,,,,,,,,,,,,,,,,,,,,194.0,1.5,,
170,,feedback,,html-keyboard-response,170,224898,0.0-1.0-237.0-0.0,0,0,27712,,,,,,33.0,,,,,,,,,,,,,,,,,,,,,,195.0,1.0,,
171,,iti,,html-keyboard-response,171,226903,0.0-1.0-238.0,0,0,27712,,,,,,,,,,,,,,,,,,,,,,,,,,,,197.0,2.0,,
172,,rl_choice,,html-keyboard-response,172,228407,0.0-1.0-240.0,0,0,27712,,,,,,34.0,34.0,1.0,hard,3000.0,1000.0,0.0,40.0,60.0,20.0,60.0,C,D,/static/Simple_RL/Stimuli/Fractals_stims/C.jpg,/static/Simple_RL/Stimuli/Fractals_stims/D.jpg,,,,,,,,198.5,1.5,1.0,
173,,rl_choice_warning,,html-keyboard-response,173,229410,0.0-1.0-242.0-0.0,0,0,27712,,,,,,,,,,,,,,,,,,,,,,,,,,,,199.5,1.0,,
174,,isi,,html-keyboard-response,174,230412,0.0-1.0-243.0,0,0,27712,,,,,,,,,,,,,,,,,,,,,,,,,,,,200.5,1.0,,
175,,iti,,html-keyboard-response,175,233415,0.0-1.0-245.0,0,0,27712,,,,,,,,,,,,,,,,,,,,,,,,,,,,203.5,3.0,,
176,,rl_choice,,html-keyboard-response,176,234484,0.0-1.0-247.0,0,0,27712,,1067.0,,,68.0,35.0,35.0,1.0,easy,1500.0,1000.0,1.0,80.0,20.0,80.0,20.0,B,A,/static/Simple_RL/Stimuli/Fractals_stims/B.jpg,/static/Simple_RL/Stimuli/Fractals_stims/A.jpg,1.0,80.0,20.0,80.0,20.0,B,A,204.567,1.067,0.0,
177,,rl_choice_confirmation,,html-keyboard-response,177,234919,0.0-1.0-248.0-0.0,0,0,27712,,,,,,35.0,,,,,,,,,,,,,,,,,,,,,,205.0,0.433,,
178,,isi,,html-keyboard-response,178,235922,0.0-1.0-250.0,0,0,27712,,,,,,,,,,,,,,,,,,,,,,,,,,,,206.0,1.0,,
179,,feedback,,html-keyboard-response,179,236924,0.0-1.0-251.0-0.0,0,0,27712,,,,,,35.0,,,,,,,,,,,,,,,,,,,,,,207.0,1.0,,
180,,iti,,html-keyboard-response,180,238428,0.0-1.0-252.0,0,0,27712,,,,,,,,,,,,,,,,,,,,,,,,,,,,208.5,1.5,,
181,,rl_choice,,html-keyboard-response,181,239573,0.0-1.0-254.0,0,0,27712,,1142.0,,,68.0,36.0,36.0,1.0,easy,1500.0,2000.0,1.0,80.0,20.0,80.0,40.0,B,A,/static/Simple_RL/Stimuli/Fractals_stims/B.jpg,/static/Simple_RL/Stimuli/Fractals_stims/A.jpg,1.0,80.0,20.0,80.0,40.0,B,A,209.642,1.142,0.0,
182,,rl_choice_confirmation,,html-keyboard-response,182,239933,0.0-1.0-255.0-0.0,0,0,27712,,,,,,36.0,,,,,,,,,,,,,,,,,,,,,,210.0,0.358,,
183,,isi,,html-keyboard-response,183,241938,0.0-1.0-257.0,0,0,27712,,,,,,,,,,,,,,,,,,,,,,,,,,,,212.0,2.0,,
184,,feedback,,html-keyboard-response,184,242940,0.0-1.0-258.0-0.0,0,0,27712,,,,,,36.0,,,,,,,,,,,,,,,,,,,,,,213.0,1.0,,
185,,iti,,html-keyboard-response,185,244444,0.0-1.0-259.0,0,0,27712,,,,,,,,,,,,,,,,,,,,,,,,,,,,214.5,1.5,,
186,,rl_choice,,html-keyboard-response,186,245768,0.0-1.0-261.0,0,0,27712,,1321.0,,,68.0,37.0,37.0,1.0,easy,2000.0,1000.0,1.0,80.0,20.0,60.0,40.0,B,A,/static/Simple_RL/Stimuli/Fractals_stims/B.jpg,/static/Simple_RL/Stimuli/Fractals_stims/A.jpg,1.0,80.0,20.0,60.0,40.0,B,A,215.821,1.321,0.0,
187,,rl_choice_confirmation,,html-keyboard-response,187,245949,0.0-1.0-262.0-0.0,0,0,27712,,,,,,37.0,,,,,,,,,,,,,,,,,,,,,,216.0,0.179,,
188,,isi,,html-keyboard-response,188,246952,0.0-1.0-264.0,0,0,27712,,,,,,,,,,,,,,,,,,,,,,,,,,,,217.0,1.0,,
189,,feedback,,html-keyboard-response,189,247959,0.0-1.0-265.0-0.0,0,0,27712,,,,,,37.0,,,,,,,,,,,,,,,,,,,,,,218.0,1.0,,
190,,iti,,html-keyboard-response,190,249965,0.0-1.0-266.0,0,0,27712,,,,,,,,,,,,,,,,,,,,,,,,,,,,220.0,2.0,,
191,,rl_choice,,html-keyboard-response,191,251412,0.0-1.0-268.0,0,0,27712,,1445.0,,,75.0,38.0,38.0,1.0,easy,3500.0,1500.0,0.0,20.0,80.0,40.0,60.0,A,B,/static/Simple_RL/Stimuli/Fractals_stims/A.jpg,/static/Simple_RL/Stimuli/Fractals_stims/B.jpg,0.0,80.0,20.0,60.0,40.0,B,A,221.445,1.445,0.0,
192,,rl_choice_confirmation,,html-keyboard-response,192,251470,0.0-1.0-269.0-0.0,0,0,27712,,,,,,38.0,,,,,,,,,,,,,,,,,,,,,,221.5,0.055,,
193,,isi,,html-keyboard-response,193,252973,0.0-1.0-271.0,0,0,27712,,,,,,,,,,,,,,,,,,,,,,,,,,,,223.0,1.5,,
194,,feedback,,html-keyboard-response,194,253975,0.0-1.0-272.0-0.0,0,0,27712,,,,,,38.0,,,,,,,,,,,,,,,,,,,,,,224.0,1.0,,
195,,iti,,html-keyboard-response,195,257479,0.0-1.0-273.0,0,0,27712,,,,,,,,,,,,,,,,,,,,,,,,,,,,227.5,3.5,,
196,,rl_choice,,html-keyboard-response,196,258942,0.0-1.0-275.0,0,0,27712,,1460.0,,,68.0,39.0,39.0,1.0,easy,1000.0,1000.0,1.0,80.0,20.0,60.0,20.0,B,A,/static/Simple_RL/Stimuli/Fractals_stims/B.jpg,/static/Simple_RL/Stimuli/Fractals_stims/A.jpg,1.0,80.0,20.0,60.0,20.0,B,A,228.96,1.46,0.0,
197,,rl_choice_confirmation,,html-keyboard-response,197,258984,0.0-1.0-276.0-0.0,0,0,27712,,,,,,39.0,,,,,,,,,,,,,,,,,,,,,,229.0,0.04,,
198,,isi,,html-keyboard-response,198,259986,0.0-1.0-278.0,0,0,27712,,,,,,,,,,,,,,,,,,,,,,,,,,,,230.0,1.0,,
199,,feedback,,html-keyboard-response,199,260989,0.0-1.0-279.0-0.0,0,0,27712,,,,,,39.0,,,,,,,,,,,,,,,,,,,,,,231.0,1.0,,
200,,iti,,html-keyboard-response,200,261994,0.0-1.0-280.0,0,0,27712,,,,,,,,,,,,,,,,,,,,,,,,,,,,232.0,1.0,,
201,,block_over,,html-keyboard-response,201,264316,0.0-1.0-281.0-0.0,0,0,27712,,2321.0,,,68.0,39.0,,,,,,,,,,,,,,,,,,,,,,,,,
202,,start_run,,html-keyboard-response,202,268875,0.0-1.0-281.0-1.0,0,0,27712,,4558.0,,,84.0,,,,,,,,,,,,,,,,,,,,,,,,,,
203,,rl_choice,,html-keyboard-response,203,269946,0.0-1.0-282.0,0,0,27712,,1069.0,,,75.0,40.0,40.0,2.0,hard,1000.0,2000.0,0.0,40.0,60.0,40.0,40.0,C,D,/static/Simple_RL/Stimuli/Fractals_stims/C.jpg,/static/Simple_RL/Stimuli/Fractals_stims/D.jpg,0.0,60.0,40.0,40.0,40.0,D,C,1.069,1.069,0.0,
204,,rl_choice_confirmation,,html-keyboard-response,204,270381,0.0-1.0-283.0-0.0,0,0,27712,,,,,,40.0,,,,,,,,,,,,,,,,,,,,,,1.5,0.431,,
205,,isi,,html-keyboard-response,205,272386,0.0-1.0-285.0,0,0,27712,,,,,,,,,,,,,,,,,,,,,,,,,,,,3.5,2.0,,
206,,feedback,,html-keyboard-response,206,273389,0.0-1.0-286.0-0.0,0,0,27712,,,,,,40.0,,,,,,,,,,,,,,,,,,,,,,4.5,1.0,,
207,,iti,,html-keyboard-response,207,274392,0.0-1.0-287.0,0,0,27712,,,,,,,,,,,,,,,,,,,,,,,,,,,,5.5,1.0,,
208,,rl_choice,,html-keyboard-response,208,275617,0.0-1.0-289.0,0,0,27712,,1223.0,,,68.0,41.0,41.0,2.0,hard,1000.0,3000.0,1.0,60.0,40.0,40.0,60.0,D,C,/static/Simple_RL/Stimuli/Fractals_stims/D.jpg,/static/Simple_RL/Stimuli/Fractals_stims/C.jpg,1.0,60.0,40.0,40.0,60.0,D,C,6.723,1.223,0.0,
209,,rl_choice_confirmation,,html-keyboard-response,209,275896,0.0-1.0-290.0-0.0,0,0,27712,,,,,,41.0,,,,,,,,,,,,,,,,,,,,,,7.0,0.277,,
210,,isi,,html-keyboard-response,210,278898,0.0-1.0-292.0,0,0,27712,,,,,,,,,,,,,,,,,,,,,,,,,,,,10.0,3.0,,
211,,feedback,,html-keyboard-response,211,279901,0.0-1.0-293.0-0.0,0,0,27712,,,,,,41.0,,,,,,,,,,,,,,,,,,,,,,11.0,1.0,,
212,,iti,,html-keyboard-response,212,280904,0.0-1.0-294.0,0,0,27712,,,,,,,,,,,,,,,,,,,,,,,,,,,,12.0,1.0,,
213,,rl_choice,,html-keyboard-response,213,282049,0.0-1.0-296.0,0,0,27712,,1143.0,,,75.0,42.0,42.0,2.0,hard,1000.0,1000.0,0.0,40.0,60.0,40.0,40.0,C,D,/static/Simple_RL/Stimuli/Fractals_stims/C.jpg,/static/Simple_RL/Stimuli/Fractals_stims/D.jpg,0.0,60.0,40.0,40.0,40.0,D,C,13.143,1.143,0.0,
214,,rl_choice_confirmation,,html-keyboard-response,214,282409,0.0-1.0-297.0-0.0,0,0,27712,,,,,,42.0,,,,,,,,,,,,,,,,,,,,,,13.5,0.357,,
215,,isi,,html-keyboard-response,215,283412,0.0-1.0-299.0,0,0,27712,,,,,,,,,,,,,,,,,,,,,,,,,,,,14.5,1.0,,
216,,feedback,,html-keyboard-response,216,284421,0.0-1.0-300.0-0.0,0,0,27712,,,,,,42.0,,,,,,,,,,,,,,,,,,,,,,15.5,1.0,,
217,,iti,,html-keyboard-response,217,285426,0.0-1.0-301.0,0,0,27712,,,,,,,,,,,,,,,,,,,,,,,,,,,,16.5,1.0,,
218,,rl_choice,,html-keyboard-response,218,286581,0.0-1.0-303.0,0,0,27712,,1153.0,,,68.0,43.0,43.0,2.0,easy,1500.0,2000.0,0.0,20.0,80.0,0.0,60.0,A,B,/static/Simple_RL/Stimuli/Fractals_stims/A.jpg,/static/Simple_RL/Stimuli/Fractals_stims/B.jpg,1.0,20.0,80.0,0.0,60.0,A,B,17.653,1.153,0.0,
219,,rl_choice_confirmation,,html-keyboard-response,219,286930,0.0-1.0-304.0-0.0,0,0,27712,,,,,,43.0,,,,,,,,,,,,,,,,,,,,,,18.0,0.347,,
220,,isi,,html-keyboard-response,220,288932,0.0-1.0-306.0,0,0,27712,,,,,,,,,,,,,,,,,,,,,,,,,,,,20.0,2.0,,
221,,feedback,,html-keyboard-response,221,289939,0.0-1.0-307.0-0.0,0,0,27712,,,,,,43.0,,,,,,,,,,,,,,,,,,,,,,21.0,1.0,,
222,,iti,,html-keyboard-response,222,291442,0.0-1.0-308.0,0,0,27712,,,,,,,,,,,,,,,,,,,,,,,,,,,,22.5,1.5,,
223,,rl_choice,,html-keyboard-response,223,292352,0.0-1.0-310.0,0,0,27712,,907.0,,,75.0,44.0,44.0,2.0,hard,1000.0,1500.0,0.0,40.0,60.0,60.0,60.0,C,D,/static/Simple_RL/Stimuli/Fractals_stims/C.jpg,/static/Simple_RL/Stimuli/Fractals_stims/D.jpg,0.0,60.0,40.0,60.0,60.0,D,C,23.407,0.907,0.0,
224,,rl_choice_confirmation,,html-keyboard-response,224,292949,0.0-1.0-311.0-0.0,0,0,27712,,,,,,44.0,,,,,,,,,,,,,,,,,,,,,,24.0,0.593,,
225,,isi,,html-keyboard-response,225,294451,0.0-1.0-313.0,0,0,27712,,,,,,,,,,,,,,,,,,,,,,,,,,,,25.5,1.5,,
226,,feedback,,html-keyboard-response,226,295458,0.0-1.0-314.0-0.0,0,0,27712,,,,,,44.0,,,,,,,,,,,,,,,,,,,,,,26.5,1.0,,
227,,iti,,html-keyboard-response,227,296461,0.0-1.0-315.0,0,0,27712,,,,,,,,,,,,,,,,,,,,,,,,,,,,27.5,1.0,,
228,,rl_choice,,html-keyboard-response,228,297773,0.0-1.0-317.0,0,0,27712,,1310.0,,,75.0,45.0,45.0,2.0,hard,2000.0,2000.0,0.0,40.0,60.0,40.0,60.0,C,D,/static/Simple_RL/Stimuli/Fractals_stims/C.jpg,/static/Simple_RL/Stimuli/Fractals_stims/D.jpg,0.0,60.0,40.0,60.0,40.0,D,C,28.81,1.31,0.0,
229,,rl_choice_confirmation,,html-keyboard-response,229,297965,0.0-1.0-318.0-0.0,0,0,27712,,,,,,45.0,,,,,,,,,,,,,,,,,,,,,,29.0,0.19,,
230,,isi,,html-keyboard-response,230,299970,0.0-1.0-320.0,0,0,27712,,,,,,,,,,,,,,,,,,,,,,,,,,,,31.0,2.0,,
231,,feedback,,html-keyboard-response,231,300976,0.0-1.0-321.0-0.0,0,0,27712,,,,,,45.0,,,,,,,,,,,,,,,,,,,,,,32.0,1.0,,
232,,iti,,html-keyboard-response,232,302982,0.0-1.0-322.0,0,0,27712,,,,,,,,,,,,,,,,,,,,,,,,,,,,34.0,2.0,,
233,,rl_choice,,html-keyboard-response,233,304246,0.0-1.0-324.0,0,0,27712,,1262.0,,,75.0,46.0,46.0,2.0,hard,2000.0,2000.0,0.0,40.0,60.0,40.0,40.0,C,D,/static/Simple_RL/Stimuli/Fractals_stims/C.jpg,/static/Simple_RL/Stimuli/Fractals_stims/D.jpg,0.0,60.0,40.0,40.0,40.0,D,C,35.262,1.262,0.0,
234,,rl_choice_confirmation,,html-keyboard-response,234,304489,0.0-1.0-325.0-0.0,0,0,27712,,,,,,46.0,,,,,,,,,,,,,,,,,,,,,,35.5,0.238,,
235,,isi,,html-keyboard-response,235,306493,0.0-1.0-327.0,0,0,27712,,,,,,,,,,,,,,,,,,,,,,,,,,,,37.5,2.0,,
236,,feedback,,html-keyboard-response,236,307496,0.0-1.0-328.0-0.0,0,0,27712,,,,,,46.0,,,,,,,,,,,,,,,,,,,,,,38.5,1.0,,
237,,iti,,html-keyboard-response,237,309501,0.0-1.0-329.0,0,0,27712,,,,,,,,,,,,,,,,,,,,,,,,,,,,40.5,2.0,,
238,,rl_choice,,html-keyboard-response,238,310709,0.0-1.0-331.0,0,0,27712,,1206.0,,,68.0,47.0,47.0,2.0,hard,1500.0,1500.0,1.0,60.0,40.0,80.0,20.0,D,C,/static/Simple_RL/Stimuli/Fractals_stims/D.jpg,/static/Simple_RL/Stimuli/Fractals_stims/C.jpg,1.0,60.0,40.0,80.0,20.0,D,C,41.706,1.206,0.0,
239,,rl_choice_confirmation,,html-keyboard-response,239,311005,0.0-1.0-332.0-0.0,0,0,27712,,,,,,47.0,,,,,,,,,,,,,,,,,,,,,,42.0,0.294,,
240,,isi,,html-keyboard-response,240,312509,0.0-1.0-334.0,0,0,27712,,,,,,,,,,,,,,,,,,,,,,,,,,,,43.5,1.5,,
241,,feedback,,html-keyboard-response,241,313515,0.0-1.0-335.0-0.0,0,0,27712,,,,,,47.0,,,,,,,,,,,,,,,,,,,,,,44.5,1.0,,
242,,iti,,html-keyboard-response,242,315021,0.0-1.0-336.0,0,0,27712,,,,,,,,,,,,,,,,,,,,,,,,,,,,46.0,1.5,,
243,,rl_choice,,html-keyboard-response,243,316284,0.0-1.0-338.0,0,0,27712,,1260.0,,,68.0,48.0,48.0,2.0,easy,3500.0,1000.0,1.0,80.0,20.0,60.0,0.0,B,A,/static/Simple_RL/Stimuli/Fractals_stims/B.jpg,/static/Simple_RL/Stimuli/Fractals_stims/A.jpg,1.0,80.0,20.0,60.0,0.0,B,A,47.26,1.26,0.0,
244,,rl_choice_confirmation,,html-keyboard-response,244,316525,0.0-1.0-339.0-0.0,0,0,27712,,,,,,48.0,,,,,,,,,,,,,,,,,,,,,,47.5,0.24,,
245,,isi,,html-keyboard-response,245,317527,0.0-1.0-341.0,0,0,27712,,,,,,,,,,,,,,,,,,,,,,,,,,,,48.5,1.0,,
246,,feedback,,html-keyboard-response,246,318531,0.0-1.0-342.0-0.0,0,0,27712,,,,,,48.0,,,,,,,,,,,,,,,,,,,,,,49.5,1.0,,
247,,iti,,html-keyboard-response,247,322034,0.0-1.0-343.0,0,0,27712,,,,,,,,,,,,,,,,,,,,,,,,,,,,53.0,3.5,,
248,,rl_choice,,html-keyboard-response,248,322929,0.0-1.0-345.0,0,0,27712,,894.0,,,68.0,49.0,49.0,2.0,hard,1000.0,3500.0,1.0,60.0,40.0,80.0,20.0,D,C,/static/Simple_RL/Stimuli/Fractals_stims/D.jpg,/static/Simple_RL/Stimuli/Fractals_stims/C.jpg,1.0,60.0,40.0,80.0,20.0,D,C,53.894,0.894,0.0,
249,,rl_choice_confirmation,,html-keyboard-response,249,323542,0.0-1.0-346.0-0.0,0,0,27712,,,,,,49.0,,,,,,,,,,,,,,,,,,,,,,54.5,0.606,,
250,,isi,,html-keyboard-response,250,327043,0.0-1.0-348.0,0,0,27712,,,,,,,,,,,,,,,,,,,,,,,,,,,,58.0,3.5,,
251,,feedback,,html-keyboard-response,251,328051,0.0-1.0-349.0-0.0,0,0,27712,,,,,,49.0,,,,,,,,,,,,,,,,,,,,,,59.0,1.0,,
252,,iti,,html-keyboard-response,252,329053,0.0-1.0-350.0,0,0,27712,,,,,,,,,,,,,,,,,,,,,,,,,,,,60.0,1.0,,
253,,rl_choice,,html-keyboard-response,253,330346,0.0-1.0-352.0,0,0,27712,,1290.0,,,68.0,50.0,50.0,2.0,easy,1000.0,1500.0,1.0,80.0,20.0,80.0,40.0,B,A,/static/Simple_RL/Stimuli/Fractals_stims/B.jpg,/static/Simple_RL/Stimuli/Fractals_stims/A.jpg,1.0,80.0,20.0,80.0,40.0,B,A,61.29,1.29,0.0,
254,,rl_choice_confirmation,,html-keyboard-response,254,330558,0.0-1.0-353.0-0.0,0,0,27712,,,,,,50.0,,,,,,,,,,,,,,,,,,,,,,61.5,0.21,,
255,,isi,,html-keyboard-response,255,332061,0.0-1.0-355.0,0,0,27712,,,,,,,,,,,,,,,,,,,,,,,,,,,,63.0,1.5,,
256,,feedback,,html-keyboard-response,256,333072,0.0-1.0-356.0-0.0,0,0,27712,,,,,,50.0,,,,,,,,,,,,,,,,,,,,,,64.0,1.0,,
257,,iti,,html-keyboard-response,257,334077,0.0-1.0-357.0,0,0,27712,,,,,,,,,,,,,,,,,,,,,,,,,,,,65.0,1.0,,
258,,rl_choice,,html-keyboard-response,258,335570,0.0-1.0-359.0,0,0,27712,,1491.0,,,75.0,51.0,51.0,2.0,easy,1000.0,2000.0,0.0,20.0,80.0,0.0,100.0,A,B,/static/Simple_RL/Stimuli/Fractals_stims/A.jpg,/static/Simple_RL/Stimuli/Fractals_stims/B.jpg,0.0,80.0,20.0,100.0,0.0,B,A,66.491,1.491,0.0,
259,,rl_choice_confirmation,,html-keyboard-response,259,335581,0.0-1.0-360.0-0.0,0,0,27712,,,,,,51.0,,,,,,,,,,,,,,,,,,,,,,66.5,0.009,,
260,,isi,,html-keyboard-response,260,337583,0.0-1.0-362.0,0,0,27712,,,,,,,,,,,,,,,,,,,,,,,,,,,,68.5,2.0,,
261,,feedback,,html-keyboard-response,261,338589,0.0-1.0-363.0-0.0,0,0,27712,,,,,,51.0,,,,,,,,,,,,,,,,,,,,,,69.5,1.0,,
262,,iti,,html-keyboard-response,262,339592,0.0-1.0-364.0,0,0,27712,,,,,,,,,,,,,,,,,,,,,,,,,,,,70.5,1.0,,
263,,rl_choice,,html-keyboard-response,263,340684,0.0-1.0-366.0,0,0,27712,,1090.0,,,75.0,52.0,52.0,2.0,easy,3000.0,1500.0,0.0,20.0,80.0,40.0,80.0,A,B,/static/Simple_RL/Stimuli/Fractals_stims/A.jpg,/static/Simple_RL/Stimuli/Fractals_stims/B.jpg,0.0,80.0,20.0,80.0,40.0,B,A,71.59,1.09,0.0,
264,,rl_choice_confirmation,,html-keyboard-response,264,341097,0.0-1.0-367.0-0.0,0,0,27712,,,,,,52.0,,,,,,,,,,,,,,,,,,,,,,72.0,0.41,,
265,,isi,,html-keyboard-response,265,342600,0.0-1.0-369.0,0,0,27712,,,,,,,,,,,,,,,,,,,,,,,,,,,,73.5,1.5,,
266,,feedback,,html-keyboard-response,266,343608,0.0-1.0-370.0-0.0,0,0,27712,,,,,,52.0,,,,,,,,,,,,,,,,,,,,,,74.5,1.0,,
267,,iti,,html-keyboard-response,267,346613,0.0-1.0-371.0,0,0,27712,,,,,,,,,,,,,,,,,,,,,,,,,,,,77.5,3.0,,
268,,rl_choice,,html-keyboard-response,268,347734,0.0-1.0-373.0,0,0,27712,,1119.0,,,68.0,53.0,53.0,2.0,hard,2000.0,1000.0,1.0,60.0,40.0,60.0,40.0,D,C,/static/Simple_RL/Stimuli/Fractals_stims/D.jpg,/static/Simple_RL/Stimuli/Fractals_stims/C.jpg,1.0,60.0,40.0,60.0,40.0,D,C,78.619,1.119,0.0,
269,,rl_choice_confirmation,,html-keyboard-response,269,348122,0.0-1.0-374.0-0.0,0,0,27712,,,,,,53.0,,,,,,,,,,,,,,,,,,,,,,79.0,0.381,,
270,,isi,,html-keyboard-response,270,349128,0.0-1.0-376.0,0,0,27712,,,,,,,,,,,,,,,,,,,,,,,,,,,,80.0,1.0,,
271,,feedback,,html-keyboard-response,271,350138,0.0-1.0-377.0-0.0,0,0,27712,,,,,,53.0,,,,,,,,,,,,,,,,,,,,,,81.0,1.0,,
272,,iti,,html-keyboard-response,272,352143,0.0-1.0-378.0,0,0,27712,,,,,,,,,,,,,,,,,,,,,,,,,,,,83.0,2.0,,
273,,rl_choice,,html-keyboard-response,273,353354,0.0-1.0-380.0,0,0,27712,,1208.0,,,75.0,54.0,54.0,2.0,easy,2000.0,1500.0,0.0,20.0,80.0,0.0,100.0,A,B,/static/Simple_RL/Stimuli/Fractals_stims/A.jpg,/static/Simple_RL/Stimuli/Fractals_stims/B.jpg,0.0,80.0,20.0,100.0,0.0,B,A,84.208,1.208,0.0,
274,,rl_choice_confirmation,,html-keyboard-response,274,353648,0.0-1.0-381.0-0.0,0,0,27712,,,,,,54.0,,,,,,,,,,,,,,,,,,,,,,84.5,0.292,,
275,,isi,,html-keyboard-response,275,355152,0.0-1.0-383.0,0,0,27712,,,,,,,,,,,,,,,,,,,,,,,,,,,,86.0,1.5,,
276,,feedback,,html-keyboard-response,276,356158,0.0-1.0-384.0-0.0,0,0,27712,,,,,,54.0,,,,,,,,,,,,,,,,,,,,,,87.0,1.0,,
277,,iti,,html-keyboard-response,277,358163,0.0-1.0-385.0,0,0,27712,,,,,,,,,,,,,,,,,,,,,,,,,,,,89.0,2.0,,
278,,rl_choice,,html-keyboard-response,278,359340,0.0-1.0-387.0,0,0,27712,,1174.0,,,75.0,55.0,55.0,2.0,easy,1000.0,1000.0,0.0,20.0,80.0,40.0,100.0,A,B,/static/Simple_RL/Stimuli/Fractals_stims/A.jpg,/static/Simple_RL/Stimuli/Fractals_stims/B.jpg,0.0,80.0,20.0,100.0,40.0,B,A,90.174,1.174,0.0,
279,,rl_choice_confirmation,,html-keyboard-response,279,359669,0.0-1.0-388.0-0.0,0,0,27712,,,,,,55.0,,,,,,,,,,,,,,,,,,,,,,90.5,0.326,,
280,,isi,,html-keyboard-response,280,360672,0.0-1.0-390.0,0,0,27712,,,,,,,,,,,,,,,,,,,,,,,,,,,,91.5,1.0,,
281,,feedback,,html-keyboard-response,281,361678,0.0-1.0-391.0-0.0,0,0,27712,,,,,,55.0,,,,,,,,,,,,,,,,,,,,,,92.5,1.0,,
282,,iti,,html-keyboard-response,282,362683,0.0-1.0-392.0,0,0,27712,,,,,,,,,,,,,,,,,,,,,,,,,,,,93.5,1.0,,
283,,rl_choice,,html-keyboard-response,283,364061,0.0-1.0-394.0,0,0,27712,,1377.0,,,68.0,56.0,56.0,2.0,hard,2000.0,1000.0,1.0,60.0,40.0,60.0,20.0,D,C,/static/Simple_RL/Stimuli/Fractals_stims/D.jpg,/static/Simple_RL/Stimuli/Fractals_stims/C.jpg,1.0,60.0,40.0,60.0,20.0,D,C,94.877,1.377,0.0,
284,,rl_choice_confirmation,,html-keyboard-response,284,364187,0.0-1.0-395.0-0.0,0,0,27712,,,,,,56.0,,,,,,,,,,,,,,,,,,,,,,95.0,0.123,,
285,,isi,,html-keyboard-response,285,365188,0.0-1.0-397.0,0,0,27712,,,,,,,,,,,,,,,,,,,,,,,,,,,,96.0,1.0,,
286,,feedback,,html-keyboard-response,286,366191,0.0-1.0-398.0-0.0,0,0,27712,,,,,,56.0,,,,,,,,,,,,,,,,,,,,,,97.0,1.0,,
287,,iti,,html-keyboard-response,287,368195,0.0-1.0-399.0,0,0,27712,,,,,,,,,,,,,,,,,,,,,,,,,,,,99.0,2.0,,
288,,rl_choice,,html-keyboard-response,288,369683,0.0-1.0-401.0,0,0,27712,,1485.0,,,68.0,57.0,57.0,2.0,easy,1000.0,2000.0,1.0,80.0,20.0,80.0,0.0,B,A,/static/Simple_RL/Stimuli/Fractals_stims/B.jpg,/static/Simple_RL/Stimuli/Fractals_stims/A.jpg,1.0,80.0,20.0,80.0,0.0,B,A,100.485,1.485,0.0,
289,,rl_choice_confirmation,,html-keyboard-response,289,369700,0.0-1.0-402.0-0.0,0,0,27712,,,,,,57.0,,,,,,,,,,,,,,,,,,,,,,100.5,0.015,,
290,,isi,,html-keyboard-response,290,371704,0.0-1.0-404.0,0,0,27712,,,,,,,,,,,,,,,,,,,,,,,,,,,,102.5,2.0,,
291,,feedback,,html-keyboard-response,291,372707,0.0-1.0-405.0-0.0,0,0,27712,,,,,,57.0,,,,,,,,,,,,,,,,,,,,,,103.5,1.0,,
292,,iti,,html-keyboard-response,292,373710,0.0-1.0-406.0,0,0,27712,,,,,,,,,,,,,,,,,,,,,,,,,,,,104.5,1.0,,
293,,rl_choice,,html-keyboard-response,293,374741,0.0-1.0-408.0,0,0,27712,,1028.0,,,68.0,58.0,58.0,2.0,hard,1000.0,1500.0,1.0,60.0,40.0,60.0,60.0,D,C,/static/Simple_RL/Stimuli/Fractals_stims/D.jpg,/static/Simple_RL/Stimuli/Fractals_stims/C.jpg,1.0,60.0,40.0,60.0,60.0,D,C,105.528,1.028,0.0,
294,,rl_choice_confirmation,,html-keyboard-response,294,375215,0.0-1.0-409.0-0.0,0,0,27712,,,,,,58.0,,,,,,,,,,,,,,,,,,,,,,106.0,0.472,,
295,,isi,,html-keyboard-response,295,376718,0.0-1.0-411.0,0,0,27712,,,,,,,,,,,,,,,,,,,,,,,,,,,,107.5,1.5,,
296,,feedback,,html-keyboard-response,296,377723,0.0-1.0-412.0-0.0,0,0,27712,,,,,,58.0,,,,,,,,,,,,,,,,,,,,,,108.5,1.0,,
297,,iti,,html-keyboard-response,297,378725,0.0-1.0-413.0,0,0,27712,,,,,,,,,,,,,,,,,,,,,,,,,,,,109.5,1.0,,
298,,rl_choice,,html-keyboard-response,298,379884,0.0-1.0-415.0,0,0,27712,,1157.0,,,68.0,59.0,59.0,2.0,easy,1500.0,3000.0,1.0,80.0,20.0,80.0,40.0,B,A,/static/Simple_RL/Stimuli/Fractals_stims/B.jpg,/static/Simple_RL/Stimuli/Fractals_stims/A.jpg,1.0,80.0,20.0,80.0,40.0,B,A,110.657,1.157,0.0,
299,,rl_choice_confirmation,,html-keyboard-response,299,380235,0.0-1.0-416.0-0.0,0,0,27712,,,,,,59.0,,,,,,,,,,,,,,,,,,,,,,111.0,0.343,,
300,,isi,,html-keyboard-response,300,383241,0.0-1.0-418.0,0,0,27712,,,,,,,,,,,,,,,,,,,,,,,,,,,,114.0,3.0,,
301,,feedback,,html-keyboard-response,301,384245,0.0-1.0-419.0-0.0,0,0,27712,,,,,,59.0,,,,,,,,,,,,,,,,,,,,,,115.0,1.0,,
302,,iti,,html-keyboard-response,302,385747,0.0-1.0-420.0,0,0,27712,,,,,,,,,,,,,,,,,,,,,,,,,,,,116.5,1.5,,
303,,rl_choice,,html-keyboard-response,303,386815,0.0-1.0-422.0,0,0,27712,,1065.0,,,75.0,60.0,60.0,2.0,hard,1500.0,2000.0,0.0,40.0,60.0,40.0,80.0,C,D,/static/Simple_RL/Stimuli/Fractals_stims/C.jpg,/static/Simple_RL/Stimuli/Fractals_stims/D.jpg,0.0,60.0,40.0,80.0,40.0,D,C,117.565,1.065,0.0,
304,,rl_choice_confirmation,,html-keyboard-response,304,387252,0.0-1.0-423.0-0.0,0,0,27712,,,,,,60.0,,,,,,,,,,,,,,,,,,,,,,118.0,0.435,,
305,,isi,,html-keyboard-response,305,389259,0.0-1.0-425.0,0,0,27712,,,,,,,,,,,,,,,,,,,,,,,,,,,,120.0,2.0,,
306,,feedback,,html-keyboard-response,306,390265,0.0-1.0-426.0-0.0,0,0,27712,,,,,,60.0,,,,,,,,,,,,,,,,,,,,,,121.0,1.0,,
307,,iti,,html-keyboard-response,307,391769,0.0-1.0-427.0,0,0,27712,,,,,,,,,,,,,,,,,,,,,,,,,,,,122.5,1.5,,
308,,rl_choice,,html-keyboard-response,308,392845,0.0-1.0-429.0,0,0,27712,,1074.0,,,68.0,61.0,61.0,2.0,hard,1000.0,1000.0,1.0,60.0,40.0,40.0,40.0,D,C,/static/Simple_RL/Stimuli/Fractals_stims/D.jpg,/static/Simple_RL/Stimuli/Fractals_stims/C.jpg,1.0,60.0,40.0,40.0,40.0,D,C,123.574,1.074,0.0,
309,,rl_choice_confirmation,,html-keyboard-response,309,393275,0.0-1.0-430.0-0.0,0,0,27712,,,,,,61.0,,,,,,,,,,,,,,,,,,,,,,124.0,0.426,,
310,,isi,,html-keyboard-response,310,394281,0.0-1.0-432.0,0,0,27712,,,,,,,,,,,,,,,,,,,,,,,,,,,,125.0,1.0,,
311,,feedback,,html-keyboard-response,311,395288,0.0-1.0-433.0-0.0,0,0,27712,,,,,,61.0,,,,,,,,,,,,,,,,,,,,,,126.0,1.0,,
312,,iti,,html-keyboard-response,312,396293,0.0-1.0-434.0,0,0,27712,,,,,,,,,,,,,,,,,,,,,,,,,,,,127.0,1.0,,
313,,rl_choice,,html-keyboard-response,313,397679,0.0-1.0-436.0,0,0,27712,,1384.0,,,75.0,62.0,62.0,2.0,easy,3000.0,1500.0,0.0,20.0,80.0,20.0,80.0,A,B,/static/Simple_RL/Stimuli/Fractals_stims/A.jpg,/static/Simple_RL/Stimuli/Fractals_stims/B.jpg,0.0,80.0,20.0,80.0,20.0,B,A,128.384,1.384,0.0,
314,,rl_choice_confirmation,,html-keyboard-response,314,397799,0.0-1.0-437.0-0.0,0,0,27712,,,,,,62.0,,,,,,,,,,,,,,,,,,,,,,128.5,0.116,,
315,,isi,,html-keyboard-response,315,399305,0.0-1.0-439.0,0,0,27712,,,,,,,,,,,,,,,,,,,,,,,,,,,,130.0,1.5,,
316,,feedback,,html-keyboard-response,316,400310,0.0-1.0-440.0-0.0,0,0,27712,,,,,,62.0,,,,,,,,,,,,,,,,,,,,,,131.0,1.0,,
317,,iti,,html-keyboard-response,317,403315,0.0-1.0-441.0,0,0,27712,,,,,,,,,,,,,,,,,,,,,,,,,,,,134.0,3.0,,
318,,rl_choice,,html-keyboard-response,318,404549,0.0-1.0-443.0,0,0,27712,,1232.0,,,68.0,63.0,63.0,2.0,hard,1000.0,1500.0,1.0,60.0,40.0,60.0,40.0,D,C,/static/Simple_RL/Stimuli/Fractals_stims/D.jpg,/static/Simple_RL/Stimuli/Fractals_stims/C.jpg,1.0,60.0,40.0,60.0,40.0,D,C,135.232,1.232,0.0,
319,,rl_choice_confirmation,,html-keyboard-response,319,404822,0.0-1.0-444.0-0.0,0,0,27712,,,,,,63.0,,,,,,,,,,,,,,,,,,,,,,135.5,0.268,,
320,,isi,,html-keyboard-response,320,406324,0.0-1.0-446.0,0,0,27712,,,,,,,,,,,,,,,,,,,,,,,,,,,,137.0,1.5,,
321,,feedback,,html-keyboard-response,321,407334,0.0-1.0-447.0-0.0,0,0,27712,,,,,,63.0,,,,,,,,,,,,,,,,,,,,,,138.0,1.0,,
322,,iti,,html-keyboard-response,322,408336,0.0-1.0-448.0,0,0,27712,,,,,,,,,,,,,,,,,,,,,,,,,,,,139.0,1.0,,
323,,rl_choice,,html-keyboard-response,323,409417,0.0-1.0-450.0,0,0,27712,,1079.0,,,68.0,64.0,64.0,2.0,hard,3500.0,1000.0,0.0,40.0,60.0,60.0,80.0,C,D,/static/Simple_RL/Stimuli/Fractals_stims/C.jpg,/static/Simple_RL/Stimuli/Fractals_stims/D.jpg,1.0,40.0,60.0,60.0,80.0,C,D,140.079,1.079,0.0,
324,,rl_choice_confirmation,,html-keyboard-response,324,409844,0.0-1.0-451.0-0.0,0,0,27712,,,,,,64.0,,,,,,,,,,,,,,,,,,,,,,140.5,0.421,,
325,,isi,,html-keyboard-response,325,410846,0.0-1.0-453.0,0,0,27712,,,,,,,,,,,,,,,,,,,,,,,,,,,,141.5,1.0,,
326,,feedback,,html-keyboard-response,326,411851,0.0-1.0-454.0-0.0,0,0,27712,,,,,,64.0,,,,,,,,,,,,,,,,,,,,,,142.5,1.0,,
327,,iti,,html-keyboard-response,327,415353,0.0-1.0-455.0,0,0,27712,,,,,,,,,,,,,,,,,,,,,,,,,,,,146.0,3.5,,
328,,rl_choice,,html-keyboard-response,328,416234,0.0-1.0-457.0,0,0,27712,,878.0,,,68.0,65.0,65.0,2.0,easy,1500.0,1000.0,1.0,80.0,20.0,100.0,40.0,B,A,/static/Simple_RL/Stimuli/Fractals_stims/B.jpg,/static/Simple_RL/Stimuli/Fractals_stims/A.jpg,1.0,80.0,20.0,100.0,40.0,B,A,146.878,0.878,0.0,
329,,rl_choice_confirmation,,html-keyboard-response,329,416858,0.0-1.0-458.0-0.0,0,0,27712,,,,,,65.0,,,,,,,,,,,,,,,,,,,,,,147.5,0.622,,
330,,isi,,html-keyboard-response,330,417865,0.0-1.0-460.0,0,0,27712,,,,,,,,,,,,,,,,,,,,,,,,,,,,148.5,1.0,,
331,,feedback,,html-keyboard-response,331,418873,0.0-1.0-461.0-0.0,0,0,27712,,,,,,65.0,,,,,,,,,,,,,,,,,,,,,,149.5,1.0,,
332,,iti,,html-keyboard-response,332,420375,0.0-1.0-462.0,0,0,27712,,,,,,,,,,,,,,,,,,,,,,,,,,,,151.0,1.5,,
333,,rl_choice,,html-keyboard-response,333,421696,0.0-1.0-464.0,0,0,27712,,1318.0,,,68.0,66.0,66.0,2.0,hard,1500.0,3000.0,1.0,60.0,40.0,60.0,40.0,D,C,/static/Simple_RL/Stimuli/Fractals_stims/D.jpg,/static/Simple_RL/Stimuli/Fractals_stims/C.jpg,1.0,60.0,40.0,60.0,40.0,D,C,152.318,1.318,0.0,
334,,rl_choice_confirmation,,html-keyboard-response,334,421883,0.0-1.0-465.0-0.0,0,0,27712,,,,,,66.0,,,,,,,,,,,,,,,,,,,,,,152.5,0.182,,
335,,isi,,html-keyboard-response,335,424889,0.0-1.0-467.0,0,0,27712,,,,,,,,,,,,,,,,,,,,,,,,,,,,155.5,3.0,,
336,,feedback,,html-keyboard-response,336,425892,0.0-1.0-468.0-0.0,0,0,27712,,,,,,66.0,,,,,,,,,,,,,,,,,,,,,,156.5,1.0,,
337,,iti,,html-keyboard-response,337,427396,0.0-1.0-469.0,0,0,27712,,,,,,,,,,,,,,,,,,,,,,,,,,,,158.0,1.5,,
338,,rl_choice,,html-keyboard-response,338,428582,0.0-1.0-471.0,0,0,27712,,1184.0,,,75.0,67.0,67.0,2.0,hard,1500.0,1500.0,0.0,40.0,60.0,20.0,80.0,C,D,/static/Simple_RL/Stimuli/Fractals_stims/C.jpg,/static/Simple_RL/Stimuli/Fractals_stims/D.jpg,0.0,60.0,40.0,80.0,20.0,D,C,159.184,1.184,0.0,
339,,rl_choice_confirmation,,html-keyboard-response,339,428900,0.0-1.0-472.0-0.0,0,0,27712,,,,,,67.0,,,,,,,,,,,,,,,,,,,,,,159.5,0.316,,
340,,isi,,html-keyboard-response,340,430404,0.0-1.0-474.0,0,0,27712,,,,,,,,,,,,,,,,,,,,,,,,,,,,161.0,1.5,,
341,,feedback,,html-keyboard-response,341,431407,0.0-1.0-475.0-0.0,0,0,27712,,,,,,67.0,,,,,,,,,,,,,,,,,,,,,,162.0,1.0,,
342,,iti,,html-keyboard-response,342,432910,0.0-1.0-476.0,0,0,27712,,,,,,,,,,,,,,,,,,,,,,,,,,,,163.5,1.5,,
343,,rl_choice,,html-keyboard-response,343,433926,0.0-1.0-478.0,0,0,27712,,1013.0,,,68.0,68.0,68.0,2.0,hard,3000.0,1000.0,1.0,60.0,40.0,60.0,40.0,D,C,/static/Simple_RL/Stimuli/Fractals_stims/D.jpg,/static/Simple_RL/Stimuli/Fractals_stims/C.jpg,1.0,60.0,40.0,60.0,40.0,D,C,164.513,1.013,0.0,
344,,rl_choice_confirmation,,html-keyboard-response,344,434420,0.0-1.0-479.0-0.0,0,0,27712,,,,,,68.0,,,,,,,,,,,,,,,,,,,,,,165.0,0.487,,
345,,isi,,html-keyboard-response,345,435422,0.0-1.0-481.0,0,0,27712,,,,,,,,,,,,,,,,,,,,,,,,,,,,166.0,1.0,,
346,,feedback,,html-keyboard-response,346,436428,0.0-1.0-482.0-0.0,0,0,27712,,,,,,68.0,,,,,,,,,,,,,,,,,,,,,,167.0,1.0,,
347,,iti,,html-keyboard-response,347,439434,0.0-1.0-483.0,0,0,27712,,,,,,,,,,,,,,,,,,,,,,,,,,,,170.0,3.0,,
348,,rl_choice,,html-keyboard-response,348,440512,0.0-1.0-485.0,0,0,27712,,1077.0,,,75.0,69.0,69.0,2.0,easy,1000.0,1000.0,0.0,20.0,80.0,40.0,80.0,A,B,/static/Simple_RL/Stimuli/Fractals_stims/A.jpg,/static/Simple_RL/Stimuli/Fractals_stims/B.jpg,0.0,80.0,20.0,80.0,40.0,B,A,171.077,1.077,0.0,
349,,rl_choice_confirmation,,html-keyboard-response,349,440937,0.0-1.0-486.0-0.0,0,0,27712,,,,,,69.0,,,,,,,,,,,,,,,,,,,,,,171.5,0.423,,
350,,isi,,html-keyboard-response,350,441942,0.0-1.0-488.0,0,0,27712,,,,,,,,,,,,,,,,,,,,,,,,,,,,172.5,1.0,,
351,,feedback,,html-keyboard-response,351,442948,0.0-1.0-489.0-0.0,0,0,27712,,,,,,69.0,,,,,,,,,,,,,,,,,,,,,,173.5,1.0,,
352,,iti,,html-keyboard-response,352,443950,0.0-1.0-490.0,0,0,27712,,,,,,,,,,,,,,,,,,,,,,,,,,,,174.5,1.0,,
353,,rl_choice,,html-keyboard-response,353,444999,0.0-1.0-492.0,0,0,27712,,1047.0,,,68.0,70.0,70.0,2.0,easy,1500.0,1000.0,1.0,80.0,20.0,80.0,20.0,B,A,/static/Simple_RL/Stimuli/Fractals_stims/B.jpg,/static/Simple_RL/Stimuli/Fractals_stims/A.jpg,1.0,80.0,20.0,80.0,20.0,B,A,175.547,1.047,0.0,
354,,rl_choice_confirmation,,html-keyboard-response,354,445454,0.0-1.0-493.0-0.0,0,0,27712,,,,,,70.0,,,,,,,,,,,,,,,,,,,,,,176.0,0.453,,
355,,isi,,html-keyboard-response,355,446457,0.0-1.0-495.0,0,0,27712,,,,,,,,,,,,,,,,,,,,,,,,,,,,177.0,1.0,,
356,,feedback,,html-keyboard-response,356,447460,0.0-1.0-496.0-0.0,0,0,27712,,,,,,70.0,,,,,,,,,,,,,,,,,,,,,,178.0,1.0,,
357,,iti,,html-keyboard-response,357,448964,0.0-1.0-497.0,0,0,27712,,,,,,,,,,,,,,,,,,,,,,,,,,,,179.5,1.5,,
358,,rl_choice,,html-keyboard-response,358,450152,0.0-1.0-499.0,0,0,27712,,1187.0,,,75.0,71.0,71.0,2.0,easy,1500.0,1000.0,0.0,20.0,80.0,40.0,60.0,A,B,/static/Simple_RL/Stimuli/Fractals_stims/A.jpg,/static/Simple_RL/Stimuli/Fractals_stims/B.jpg,0.0,80.0,20.0,60.0,40.0,B,A,180.687,1.187,0.0,
359,,rl_choice_confirmation,,html-keyboard-response,359,450468,0.0-1.0-500.0-0.0,0,0,27712,,,,,,71.0,,,,,,,,,,,,,,,,,,,,,,181.0,0.313,,
360,,isi,,html-keyboard-response,360,451471,0.0-1.0-502.0,0,0,27712,,,,,,,,,,,,,,,,,,,,,,,,,,,,182.0,1.0,,
361,,feedback,,html-keyboard-response,361,452473,0.0-1.0-503.0-0.0,0,0,27712,,,,,,71.0,,,,,,,,,,,,,,,,,,,,,,183.0,1.0,,
362,,iti,,html-keyboard-response,362,453977,0.0-1.0-504.0,0,0,27712,,,,,,,,,,,,,,,,,,,,,,,,,,,,184.5,1.5,,
363,,rl_choice,,html-keyboard-response,363,455111,0.0-1.0-506.0,0,0,27712,,1132.0,,,68.0,72.0,72.0,2.0,easy,2000.0,3000.0,0.0,20.0,80.0,20.0,100.0,A,B,/static/Simple_RL/Stimuli/Fractals_stims/A.jpg,/static/Simple_RL/Stimuli/Fractals_stims/B.jpg,1.0,20.0,80.0,20.0,100.0,A,B,185.632,1.132,0.0,
364,,rl_choice_confirmation,,html-keyboard-response,364,455482,0.0-1.0-507.0-0.0,0,0,27712,,,,,,72.0,,,,,,,,,,,,,,,,,,,,,,186.0,0.368,,
365,,isi,,html-keyboard-response,365,458484,0.0-1.0-509.0,0,0,27712,,,,,,,,,,,,,,,,,,,,,,,,,,,,189.0,3.0,,
366,,feedback,,html-keyboard-response,366,459487,0.0-1.0-510.0-0.0,0,0,27712,,,,,,72.0,,,,,,,,,,,,,,,,,,,,,,190.0,1.0,,
367,,iti,,html-keyboard-response,367,461489,0.0-1.0-511.0,0,0,27712,,,,,,,,,,,,,,,,,,,,,,,,,,,,192.0,2.0,,
368,,rl_choice,,html-keyboard-response,368,462672,0.0-1.0-513.0,0,0,27712,,1181.0,,,75.0,73.0,73.0,2.0,easy,1000.0,3500.0,0.0,20.0,80.0,40.0,60.0,A,B,/static/Simple_RL/Stimuli/Fractals_stims/A.jpg,/static/Simple_RL/Stimuli/Fractals_stims/B.jpg,0.0,80.0,20.0,60.0,40.0,B,A,193.181,1.181,0.0,
369,,rl_choice_confirmation,,html-keyboard-response,369,462996,0.0-1.0-514.0-0.0,0,0,27712,,,,,,73.0,,,,,,,,,,,,,,,,,,,,,,193.5,0.319,,
370,,isi,,html-keyboard-response,370,466500,0.0-1.0-516.0,0,0,27712,,,,,,,,,,,,,,,,,,,,,,,,,,,,197.0,3.5,,
371,,feedback,,html-keyboard-response,371,467508,0.0-1.0-517.0-0.0,0,0,27712,,,,,,73.0,,,,,,,,,,,,,,,,,,,,,,198.0,1.0,,
372,,iti,,html-keyboard-response,372,468511,0.0-1.0-518.0,0,0,27712,,,,,,,,,,,,,,,,,,,,,,,,,,,,199.0,1.0,,
373,,rl_choice,,html-keyboard-response,373,469313,0.0-1.0-520.0,0,0,27712,,801.0,,,68.0,74.0,74.0,2.0,hard,3000.0,1000.0,0.0,40.0,60.0,40.0,40.0,C,D,/static/Simple_RL/Stimuli/Fractals_stims/C.jpg,/static/Simple_RL/Stimuli/Fractals_stims/D.jpg,1.0,40.0,60.0,40.0,40.0,C,D,199.801,0.801,0.0,
374,,rl_choice_confirmation,,html-keyboard-response,374,470015,0.0-1.0-521.0-0.0,0,0,27712,,,,,,74.0,,,,,,,,,,,,,,,,,,,,,,200.5,0.699,,
375,,isi,,html-keyboard-response,375,471017,0.0-1.0-523.0,0,0,27712,,,,,,,,,,,,,,,,,,,,,,,,,,,,201.5,1.0,,
376,,feedback,,html-keyboard-response,376,472024,0.0-1.0-524.0-0.0,0,0,27712,,,,,,74.0,,,,,,,,,,,,,,,,,,,,,,202.5,1.0,,
377,,iti,,html-keyboard-response,377,475029,0.0-1.0-525.0,0,0,27712,,,,,,,,,,,,,,,,,,,,,,,,,,,,205.5,3.0,,
378,,rl_choice,,html-keyboard-response,378,475567,0.0-1.0-527.0,0,0,27712,,535.0,,,75.0,75.0,75.0,2.0,easy,1000.0,1000.0,0.0,20.0,80.0,0.0,60.0,A,B,/static/Simple_RL/Stimuli/Fractals_stims/A.jpg,/static/Simple_RL/Stimuli/Fractals_stims/B.jpg,0.0,80.0,20.0,60.0,0.0,B,A,206.035,0.535,0.0,
379,,rl_choice_confirmation,,html-keyboard-response,379,476534,0.0-1.0-528.0-0.0,0,0,27712,,,,,,75.0,,,,,,,,,,,,,,,,,,,,,,207.0,0.965,,
380,,isi,,html-keyboard-response,380,477542,0.0-1.0-530.0,0,0,27712,,,,,,,,,,,,,,,,,,,,,,,,,,,,208.0,1.0,,
381,,feedback,,html-keyboard-response,381,478548,0.0-1.0-531.0-0.0,0,0,27712,,,,,,75.0,,,,,,,,,,,,,,,,,,,,,,209.0,1.0,,
382,,iti,,html-keyboard-response,382,479551,0.0-1.0-532.0,0,0,27712,,,,,,,,,,,,,,,,,,,,,,,,,,,,210.0,1.0,,
383,,rl_choice,,html-keyboard-response,383,480284,0.0-1.0-534.0,0,0,27712,,731.0,,,68.0,76.0,76.0,2.0,easy,2000.0,1500.0,1.0,80.0,20.0,100.0,20.0,B,A,/static/Simple_RL/Stimuli/Fractals_stims/B.jpg,/static/Simple_RL/Stimuli/Fractals_stims/A.jpg,1.0,80.0,20.0,100.0,20.0,B,A,210.731,0.731,0.0,
384,,rl_choice_confirmation,,html-keyboard-response,384,481056,0.0-1.0-535.0-0.0,0,0,27712,,,,,,76.0,,,,,,,,,,,,,,,,,,,,,,211.5,0.769,,
385,,isi,,html-keyboard-response,385,482561,0.0-1.0-537.0,0,0,27712,,,,,,,,,,,,,,,,,,,,,,,,,,,,213.0,1.5,,
386,,feedback,,html-keyboard-response,386,483567,0.0-1.0-538.0-0.0,0,0,27712,,,,,,76.0,,,,,,,,,,,,,,,,,,,,,,214.0,1.0,,
387,,iti,,html-keyboard-response,387,485572,0.0-1.0-539.0,0,0,27712,,,,,,,,,,,,,,,,,,,,,,,,,,,,216.0,2.0,,
388,,rl_choice,,html-keyboard-response,388,486244,0.0-1.0-541.0,0,0,27712,,669.0,,,75.0,77.0,77.0,2.0,easy,1000.0,1000.0,0.0,20.0,80.0,0.0,80.0,A,B,/static/Simple_RL/Stimuli/Fractals_stims/A.jpg,/static/Simple_RL/Stimuli/Fractals_stims/B.jpg,0.0,80.0,20.0,80.0,0.0,B,A,216.669,0.669,0.0,
389,,rl_choice_confirmation,,html-keyboard-response,389,487077,0.0-1.0-542.0-0.0,0,0,27712,,,,,,77.0,,,,,,,,,,,,,,,,,,,,,,217.5,0.831,,
390,,isi,,html-keyboard-response,390,488079,0.0-1.0-544.0,0,0,27712,,,,,,,,,,,,,,,,,,,,,,,,,,,,218.5,1.0,,
391,,feedback,,html-keyboard-response,391,489082,0.0-1.0-545.0-0.0,0,0,27712,,,,,,77.0,,,,,,,,,,,,,,,,,,,,,,219.5,1.0,,
392,,iti,,html-keyboard-response,392,490084,0.0-1.0-546.0,0,0,27712,,,,,,,,,,,,,,,,,,,,,,,,,,,,220.5,1.0,,
393,,rl_choice,,html-keyboard-response,393,490604,0.0-1.0-548.0,0,0,27712,,518.0,,,68.0,78.0,78.0,2.0,hard,1500.0,1000.0,0.0,40.0,60.0,20.0,60.0,C,D,/static/Simple_RL/Stimuli/Fractals_stims/C.jpg,/static/Simple_RL/Stimuli/Fractals_stims/D.jpg,1.0,40.0,60.0,20.0,60.0,C,D,221.018,0.518,0.0,
394,,rl_choice_confirmation,,html-keyboard-response,394,491590,0.0-1.0-549.0-0.0,0,0,27712,,,,,,78.0,,,,,,,,,,,,,,,,,,,,,,222.0,0.982,,
395,,isi,,html-keyboard-response,395,492596,0.0-1.0-551.0,0,0,27712,,,,,,,,,,,,,,,,,,,,,,,,,,,,223.0,1.0,,
396,,feedback,,html-keyboard-response,396,493604,0.0-1.0-552.0-0.0,0,0,27712,,,,,,78.0,,,,,,,,,,,,,,,,,,,,,,224.0,1.0,,
397,,iti,,html-keyboard-response,397,495108,0.0-1.0-553.0,0,0,27712,,,,,,,,,,,,,,,,,,,,,,,,,,,,225.5,1.5,,
398,,rl_choice,,html-keyboard-response,398,495686,0.0-1.0-555.0,0,0,27712,,575.0,,,68.0,79.0,79.0,2.0,easy,2000.0,2000.0,1.0,80.0,20.0,100.0,0.0,B,A,/static/Simple_RL/Stimuli/Fractals_stims/B.jpg,/static/Simple_RL/Stimuli/Fractals_stims/A.jpg,1.0,80.0,20.0,100.0,0.0,B,A,226.075,0.575,0.0,
399,,rl_choice_confirmation,,html-keyboard-response,399,496614,0.0-1.0-556.0-0.0,0,0,27712,,,,,,79.0,,,,,,,,,,,,,,,,,,,,,,227.0,0.925,,
400,,isi,,html-keyboard-response,400,498618,0.0-1.0-558.0,0,0,27712,,,,,,,,,,,,,,,,,,,,,,,,,,,,229.0,2.0,,
401,,feedback,,html-keyboard-response,401,499621,0.0-1.0-559.0-0.0,0,0,27712,,,,,,79.0,,,,,,,,,,,,,,,,,,,,,,230.0,1.0,,
402,,iti,,html-keyboard-response,402,501628,0.0-1.0-560.0,0,0,27712,,,,,,,,,,,,,,,,,,,,,,,,,,,,232.0,2.0,,0.99
403,,final_tally,,html-keyboard-response,403,503091,0.0-2.0,0,0,27712,,1459.0,,,68.0,,,,,,,,,,,,,,,,,,,,,,,,,,
404,,debreif_intro,,html-keyboard-response,404,505740,0.0-3.0,0,0,27712,,2622.0,,,68.0,,,,,,,,,,,,,,,,,,,,,,,,,,
405,,debreif_age,,survey-text,405,510392,0.0-4.0,0,0,27712,,4651.0,"{""Q0"":""20""}",,,,,,,,,,,,,,,,,,,,,,,,,,,,
406,,debreif_gender,,survey-multi-choice,406,512291,0.0-5.0,0,0,27712,,1895.0,"{""Q0"":""Male""}",,,,,,,,,,,,,,,,,,,,,,,,,,,,
407,,debreif_dominant_hand,,survey-multi-choice,407,513920,0.0-6.0,0,0,27712,,1625.0,"{""Q0"":""Right""}",,,,,,,,,,,,,,,,,,,,,,,,,,,,
408,,debreif_native_language,,survey-multi-choice,408,515951,0.0-7.0,0,0,27712,,2028.0,"{""Q0"":""Yes""}",,,,,,,,,,,,,,,,,,,,,,,,,,,,
409,,debreif_fluency,,survey-likert,409,519843,0.0-8.0,0,0,27712,,3888.0,"{""Q0"":5}",,,,,,,,,,,,,,,,,,,,,,,,,,,,
410,,debreif_strategy_category_learning,,survey-text,410,553442,0.0-9.0,0,0,27712,,33596.0,"{""Q0"":""Used the value for the first few trials to base most of decision on the type of object relationship to its value""}",,,,,,,,,,,,,,,,,,,,,,,,,,,,
411,,debreif_strategy_old_trials,,survey-text,411,566621,0.0-10.0,0,0,27712,,13177.0,"{""Q0"":""Guesswork, or the one most familiar""}",,,,,,,,,,,,,,,,,,,,,,,,,,,,
412,,debreif_strategy_category_memory,,survey-text,412,586902,0.0-11.0,0,0,27712,,20279.0,"{""Q0"":""Uusally the price I felt I saw more often in relation to that object""}",,,,,,,,,,,,,,,,,,,,,,,,,,,,
413,,debreif_strategy_size,,survey-text,413,594272,0.0-12.0,0,0,27712,,7367.0,"{""Q0"":""Based off actual memory""}",,,,,,,,,,,,,,,,,,,,,,,,,,,,
414,,debreif_strategy_rl,,survey-text,414,608976,0.0-13.0,0,0,27712,,14702.0,"{""Q0"":""Noticed a pattern after the first few tries""}",,,,,,,,,,,,,,,,,,,,,,,,,,,,
415,,debreif_clear_instructions,,survey-text,415,613462,0.0-14.0,0,0,27712,,4484.0,"{""Q0"":""No""}",,,,,,,,,,,,,,,,,,,,,,,,,,,,
416,,debreif_end,,html-keyboard-response,416,629318,0.0-15.0,0,0,27712,,15855.0,,,32.0,,,,,,,,,,,,,,,,,,,,,,,,,,
