,success,ttype,start_time,trial_type,trial_index,time_elapsed,internal_node_id,warning,missed_checkup,PID,view_history,rt,responses,repeat_instructions,key_press,index,trial_num,block,condition,iti,isi,high_group_on_left,left_group_value,right_group_value,left_item_value,right_item_value,left_img,right_img,left_img_path,right_img_path,left_chosen,chosen_group_value,unchosen_group_value,chosen_item_value,unchosen_item_value,chosen_img,unchosen_img,onset,duration,no_response,total_bonus_tally
0,True,full_screen,d06072022hr1929,fullscreen,0,3454,0.0-0.0,0,0,18170,,,,,,,,,,,,,,,,,,,,,,,,,,,,,,,
1,,size_instructions,,instructions,1,18298,0.0-1.0-0.0-0.0,0,0,18170,"[{""page_index"":0,""viewing_time"":2212},{""page_index"":1,""viewing_time"":5611},{""page_index"":2,""viewing_time"":2751},{""page_index"":3,""viewing_time"":1815},{""page_index"":4,""viewing_time"":1155},{""page_index"":5,""viewing_time"":1298}]",14842.0,,,,,,,,,,,,,,,,,,,,,,,,,,,,,
2,,rl_comprehension_check,,survey-multi-choice,2,24118,0.0-1.0-0.0-1.0,0,0,18170,,5817.0,"{""Q0"":""True"",""Q1"":""False"",""Q2"":""D for left and K for right""}",1.0,,,,,,,,,,,,,,,,,,,,,,,,,,,
3,,missed_instruction_checkup,,html-keyboard-response,3,25525,0.0-1.0-0.0-2.0-0.0,0,0,18170,,1406.0,,,68.0,,,,,,,,,,,,,,,,,,,,,,,,,,
4,,size_instructions,,instructions,4,39012,0.0-1.0-0.1-0.1,0,0,18170,"[{""page_index"":0,""viewing_time"":1959},{""page_index"":1,""viewing_time"":3368},{""page_index"":2,""viewing_time"":4237},{""page_index"":3,""viewing_time"":1237},{""page_index"":4,""viewing_time"":1200},{""page_index"":5,""viewing_time"":1484}]",13486.0,,,,,,,,,,,,,,,,,,,,,,,,,,,,,
5,,rl_comprehension_check,,survey-multi-choice,5,45111,0.0-1.0-0.1-1.1,0,0,18170,,6096.0,"{""Q0"":""True"",""Q1"":""True"",""Q2"":""D for left and K for right""}",0.0,,,,,,,,,,,,,,,,,,,,,,,,,,,
6,,,,html-keyboard-response,6,45967,0.0-1.0-1.0,0,0,18170,,855.0,,,68.0,,,,,,,,,,,,,,,,,,,,,,,,,,
7,,rl_choice,,html-keyboard-response,7,46705,0.0-1.0-2.0,0,0,18170,,737.0,,,75.0,0.0,0.0,1.0,hard,1500.0,2000.0,1.0,60.0,40.0,80.0,20.0,B,A,/static/Simple_RL/Stimuli/Fractals_stims/B.jpg,/static/Simple_RL/Stimuli/Fractals_stims/A.jpg,0.0,40.0,60.0,20.0,80.0,A,B,0.737,0.737,0.0,
8,,rl_choice_confirmation,,html-keyboard-response,8,47470,0.0-1.0-3.0-0.0,0,0,18170,,,,,,0.0,,1.0,,,,,,,,,,,,,,,,,,,,1.5,0.763,,
9,,isi,,html-keyboard-response,9,49473,0.0-1.0-5.0,0,0,18170,,,,,,0.0,,1.0,,,,,,,,,,,,,,,,,,,,3.5,2.0,,
10,,feedback,,html-keyboard-response,10,50476,0.0-1.0-6.0-0.0,0,0,18170,,,,,,0.0,,1.0,,,,,,,,,,,,,,,,,,,,4.5,1.0,,
11,,iti,,html-keyboard-response,11,51978,0.0-1.0-7.0,0,0,18170,,,,,,0.0,,1.0,,,,,,,,,,,,,,,,,,,,6.0,1.5,,
12,,rl_choice,,html-keyboard-response,12,52150,0.0-1.0-9.0,0,0,18170,,171.0,,,68.0,1.0,1.0,1.0,easy,1500.0,3000.0,1.0,80.0,20.0,60.0,40.0,D,C,/static/Simple_RL/Stimuli/Fractals_stims/D.jpg,/static/Simple_RL/Stimuli/Fractals_stims/C.jpg,1.0,80.0,20.0,60.0,40.0,D,C,6.171,0.171,0.0,
13,,rl_choice_confirmation,,html-keyboard-response,13,53481,0.0-1.0-10.0-0.0,0,0,18170,,,,,,1.0,,1.0,,,,,,,,,,,,,,,,,,,,7.5,1.329,,
14,,isi,,html-keyboard-response,14,56483,0.0-1.0-12.0,0,0,18170,,,,,,1.0,,1.0,,,,,,,,,,,,,,,,,,,,10.5,3.0,,
15,,feedback,,html-keyboard-response,15,57484,0.0-1.0-13.0-0.0,0,0,18170,,,,,,1.0,,1.0,,,,,,,,,,,,,,,,,,,,11.5,1.0,,
16,,iti,,html-keyboard-response,16,58987,0.0-1.0-14.0,0,0,18170,,,,,,1.0,,1.0,,,,,,,,,,,,,,,,,,,,13.0,1.5,,
17,,rl_choice,,html-keyboard-response,17,58999,0.0-1.0-16.0,0,0,18170,,11.0,,,68.0,2.0,2.0,1.0,hard,2000.0,3000.0,0.0,40.0,60.0,40.0,40.0,A,B,/static/Simple_RL/Stimuli/Fractals_stims/A.jpg,/static/Simple_RL/Stimuli/Fractals_stims/B.jpg,1.0,40.0,60.0,40.0,40.0,A,B,13.011,0.011,0.0,
18,,rl_choice_confirmation,,html-keyboard-response,18,60491,0.0-1.0-17.0-0.0,0,0,18170,,,,,,2.0,,1.0,,,,,,,,,,,,,,,,,,,,14.5,1.489,,
19,,isi,,html-keyboard-response,19,63492,0.0-1.0-19.0,0,0,18170,,,,,,2.0,,1.0,,,,,,,,,,,,,,,,,,,,17.5,3.0,,
20,,feedback,,html-keyboard-response,20,64493,0.0-1.0-20.0-0.0,0,0,18170,,,,,,2.0,,1.0,,,,,,,,,,,,,,,,,,,,18.5,1.0,,
21,,iti,,html-keyboard-response,21,66496,0.0-1.0-21.0,0,0,18170,,,,,,2.0,,1.0,,,,,,,,,,,,,,,,,,,,20.5,2.0,,
22,,rl_choice,,html-keyboard-response,22,66603,0.0-1.0-23.0,0,0,18170,,106.0,,,68.0,3.0,3.0,1.0,hard,1000.0,1000.0,0.0,40.0,60.0,40.0,40.0,A,B,/static/Simple_RL/Stimuli/Fractals_stims/A.jpg,/static/Simple_RL/Stimuli/Fractals_stims/B.jpg,1.0,40.0,60.0,40.0,40.0,A,B,20.606,0.106,0.0,
23,,rl_choice_confirmation,,html-keyboard-response,23,67999,0.0-1.0-24.0-0.0,0,0,18170,,,,,,3.0,,1.0,,,,,,,,,,,,,,,,,,,,22.0,1.394,,
24,,isi,,html-keyboard-response,24,69001,0.0-1.0-26.0,0,0,18170,,,,,,3.0,,1.0,,,,,,,,,,,,,,,,,,,,23.0,1.0,,
25,,feedback,,html-keyboard-response,25,70003,0.0-1.0-27.0-0.0,0,0,18170,,,,,,3.0,,1.0,,,,,,,,,,,,,,,,,,,,24.0,1.0,,
26,,iti,,html-keyboard-response,26,71006,0.0-1.0-28.0,0,0,18170,,,,,,3.0,,1.0,,,,,,,,,,,,,,,,,,,,25.0,1.0,,
27,,rl_choice,,html-keyboard-response,27,71022,0.0-1.0-30.0,0,0,18170,,16.0,,,68.0,4.0,4.0,1.0,hard,3500.0,3500.0,1.0,60.0,40.0,60.0,20.0,B,A,/static/Simple_RL/Stimuli/Fractals_stims/B.jpg,/static/Simple_RL/Stimuli/Fractals_stims/A.jpg,1.0,60.0,40.0,60.0,20.0,B,A,25.016,0.016,0.0,
28,,rl_choice_confirmation,,html-keyboard-response,28,72509,0.0-1.0-31.0-0.0,0,0,18170,,,,,,4.0,,1.0,,,,,,,,,,,,,,,,,,,,26.5,1.484,,
29,,isi,,html-keyboard-response,29,76011,0.0-1.0-33.0,0,0,18170,,,,,,4.0,,1.0,,,,,,,,,,,,,,,,,,,,30.0,3.5,,
30,,feedback,,html-keyboard-response,30,77013,0.0-1.0-34.0-0.0,0,0,18170,,,,,,4.0,,1.0,,,,,,,,,,,,,,,,,,,,31.0,1.0,,
31,,iti,,html-keyboard-response,31,80514,0.0-1.0-35.0,0,0,18170,,,,,,4.0,,1.0,,,,,,,,,,,,,,,,,,,,34.5,3.5,,
32,,rl_choice,,html-keyboard-response,32,80544,0.0-1.0-37.0,0,0,18170,,29.0,,,75.0,5.0,5.0,1.0,hard,1500.0,1000.0,0.0,40.0,60.0,20.0,60.0,A,B,/static/Simple_RL/Stimuli/Fractals_stims/A.jpg,/static/Simple_RL/Stimuli/Fractals_stims/B.jpg,0.0,60.0,40.0,60.0,20.0,B,A,34.529,0.029,0.0,
33,,rl_choice_confirmation,,html-keyboard-response,33,82017,0.0-1.0-38.0-0.0,0,0,18170,,,,,,5.0,,1.0,,,,,,,,,,,,,,,,,,,,36.0,1.471,,
34,,isi,,html-keyboard-response,34,83019,0.0-1.0-40.0,0,0,18170,,,,,,5.0,,1.0,,,,,,,,,,,,,,,,,,,,37.0,1.0,,
35,,feedback,,html-keyboard-response,35,84021,0.0-1.0-41.0-0.0,0,0,18170,,,,,,5.0,,1.0,,,,,,,,,,,,,,,,,,,,38.0,1.0,,
36,,iti,,html-keyboard-response,36,85522,0.0-1.0-42.0,0,0,18170,,,,,,5.0,,1.0,,,,,,,,,,,,,,,,,,,,39.5,1.5,,
37,,rl_choice,,html-keyboard-response,37,85541,0.0-1.0-44.0,0,0,18170,,18.0,,,75.0,6.0,6.0,1.0,hard,1000.0,1000.0,0.0,40.0,60.0,40.0,60.0,A,B,/static/Simple_RL/Stimuli/Fractals_stims/A.jpg,/static/Simple_RL/Stimuli/Fractals_stims/B.jpg,0.0,60.0,40.0,60.0,40.0,B,A,39.518,0.018,0.0,
38,,rl_choice_confirmation,,html-keyboard-response,38,87025,0.0-1.0-45.0-0.0,0,0,18170,,,,,,6.0,,1.0,,,,,,,,,,,,,,,,,,,,41.0,1.482,,
39,,isi,,html-keyboard-response,39,88027,0.0-1.0-47.0,0,0,18170,,,,,,6.0,,1.0,,,,,,,,,,,,,,,,,,,,42.0,1.0,,
40,,feedback,,html-keyboard-response,40,89028,0.0-1.0-48.0-0.0,0,0,18170,,,,,,6.0,,1.0,,,,,,,,,,,,,,,,,,,,43.0,1.0,,
41,,iti,,html-keyboard-response,41,90030,0.0-1.0-49.0,0,0,18170,,,,,,6.0,,1.0,,,,,,,,,,,,,,,,,,,,44.0,1.0,,
42,,rl_choice,,html-keyboard-response,42,90039,0.0-1.0-51.0,0,0,18170,,8.0,,,68.0,7.0,7.0,1.0,hard,3000.0,1500.0,0.0,40.0,60.0,20.0,40.0,A,B,/static/Simple_RL/Stimuli/Fractals_stims/A.jpg,/static/Simple_RL/Stimuli/Fractals_stims/B.jpg,1.0,40.0,60.0,20.0,40.0,A,B,44.008,0.008,0.0,
43,,rl_choice_confirmation,,html-keyboard-response,43,91533,0.0-1.0-52.0-0.0,0,0,18170,,,,,,7.0,,1.0,,,,,,,,,,,,,,,,,,,,45.5,1.492,,
44,,isi,,html-keyboard-response,44,93034,0.0-1.0-54.0,0,0,18170,,,,,,7.0,,1.0,,,,,,,,,,,,,,,,,,,,47.0,1.5,,
45,,feedback,,html-keyboard-response,45,94036,0.0-1.0-55.0-0.0,0,0,18170,,,,,,7.0,,1.0,,,,,,,,,,,,,,,,,,,,48.0,1.0,,
46,,iti,,html-keyboard-response,46,97038,0.0-1.0-56.0,0,0,18170,,,,,,7.0,,1.0,,,,,,,,,,,,,,,,,,,,51.0,3.0,,
47,,rl_choice,,html-keyboard-response,47,97084,0.0-1.0-58.0,0,0,18170,,45.0,,,75.0,8.0,8.0,1.0,hard,1000.0,2000.0,1.0,60.0,40.0,60.0,60.0,B,A,/static/Simple_RL/Stimuli/Fractals_stims/B.jpg,/static/Simple_RL/Stimuli/Fractals_stims/A.jpg,0.0,40.0,60.0,60.0,60.0,A,B,51.045,0.045,0.0,
48,,rl_choice_confirmation,,html-keyboard-response,48,98541,0.0-1.0-59.0-0.0,0,0,18170,,,,,,8.0,,1.0,,,,,,,,,,,,,,,,,,,,52.5,1.455,,
49,,isi,,html-keyboard-response,49,100542,0.0-1.0-61.0,0,0,18170,,,,,,8.0,,1.0,,,,,,,,,,,,,,,,,,,,54.5,2.0,,
50,,feedback,,html-keyboard-response,50,101544,0.0-1.0-62.0-0.0,0,0,18170,,,,,,8.0,,1.0,,,,,,,,,,,,,,,,,,,,55.5,1.0,,
51,,iti,,html-keyboard-response,51,102546,0.0-1.0-63.0,0,0,18170,,,,,,8.0,,1.0,,,,,,,,,,,,,,,,,,,,56.5,1.0,,
52,,rl_choice,,html-keyboard-response,52,102584,0.0-1.0-65.0,0,0,18170,,37.0,,,68.0,9.0,9.0,1.0,hard,2000.0,2000.0,1.0,60.0,40.0,80.0,60.0,B,A,/static/Simple_RL/Stimuli/Fractals_stims/B.jpg,/static/Simple_RL/Stimuli/Fractals_stims/A.jpg,1.0,60.0,40.0,80.0,60.0,B,A,56.537,0.037,0.0,
53,,rl_choice_confirmation,,html-keyboard-response,53,104049,0.0-1.0-66.0-0.0,0,0,18170,,,,,,9.0,,1.0,,,,,,,,,,,,,,,,,,,,58.0,1.463,,
54,,isi,,html-keyboard-response,54,106050,0.0-1.0-68.0,0,0,18170,,,,,,9.0,,1.0,,,,,,,,,,,,,,,,,,,,60.0,2.0,,
55,,feedback,,html-keyboard-response,55,107052,0.0-1.0-69.0-0.0,0,0,18170,,,,,,9.0,,1.0,,,,,,,,,,,,,,,,,,,,61.0,1.0,,
56,,iti,,html-keyboard-response,56,109055,0.0-1.0-70.0,0,0,18170,,,,,,9.0,,1.0,,,,,,,,,,,,,,,,,,,,63.0,2.0,,
57,,rl_choice,,html-keyboard-response,57,109056,0.0-1.0-72.0,0,0,18170,,1.0,,,68.0,10.0,10.0,1.0,hard,2000.0,2000.0,0.0,40.0,60.0,20.0,60.0,A,B,/static/Simple_RL/Stimuli/Fractals_stims/A.jpg,/static/Simple_RL/Stimuli/Fractals_stims/B.jpg,1.0,40.0,60.0,20.0,60.0,A,B,63.001,0.001,0.0,
58,,rl_choice_confirmation,,html-keyboard-response,58,110557,0.0-1.0-73.0-0.0,0,0,18170,,,,,,10.0,,1.0,,,,,,,,,,,,,,,,,,,,64.5,1.499,,
59,,isi,,html-keyboard-response,59,112564,0.0-1.0-75.0,0,0,18170,,,,,,10.0,,1.0,,,,,,,,,,,,,,,,,,,,66.5,2.0,,
60,,feedback,,html-keyboard-response,60,113567,0.0-1.0-76.0-0.0,0,0,18170,,,,,,10.0,,1.0,,,,,,,,,,,,,,,,,,,,67.5,1.0,,
61,,iti,,html-keyboard-response,61,115570,0.0-1.0-77.0,0,0,18170,,,,,,10.0,,1.0,,,,,,,,,,,,,,,,,,,,69.5,2.0,,
62,,rl_choice,,html-keyboard-response,62,115632,0.0-1.0-79.0,0,0,18170,,61.0,,,75.0,11.0,11.0,1.0,easy,1500.0,2000.0,1.0,80.0,20.0,100.0,20.0,D,C,/static/Simple_RL/Stimuli/Fractals_stims/D.jpg,/static/Simple_RL/Stimuli/Fractals_stims/C.jpg,0.0,20.0,80.0,20.0,100.0,C,D,69.561,0.061,0.0,
63,,rl_choice_confirmation,,html-keyboard-response,63,117073,0.0-1.0-80.0-0.0,0,0,18170,,,,,,11.0,,1.0,,,,,,,,,,,,,,,,,,,,71.0,1.439,,
64,,isi,,html-keyboard-response,64,119075,0.0-1.0-82.0,0,0,18170,,,,,,11.0,,1.0,,,,,,,,,,,,,,,,,,,,73.0,2.0,,
65,,feedback,,html-keyboard-response,65,120077,0.0-1.0-83.0-0.0,0,0,18170,,,,,,11.0,,1.0,,,,,,,,,,,,,,,,,,,,74.0,1.0,,
66,,iti,,html-keyboard-response,66,121578,0.0-1.0-84.0,0,0,18170,,,,,,11.0,,1.0,,,,,,,,,,,,,,,,,,,,75.5,1.5,,
67,,rl_choice,,html-keyboard-response,67,121595,0.0-1.0-86.0,0,0,18170,,16.0,,,68.0,12.0,12.0,1.0,hard,1000.0,1500.0,1.0,60.0,40.0,40.0,20.0,B,A,/static/Simple_RL/Stimuli/Fractals_stims/B.jpg,/static/Simple_RL/Stimuli/Fractals_stims/A.jpg,1.0,60.0,40.0,40.0,20.0,B,A,75.516,0.016,0.0,
68,,rl_choice_confirmation,,html-keyboard-response,68,123082,0.0-1.0-87.0-0.0,0,0,18170,,,,,,12.0,,1.0,,,,,,,,,,,,,,,,,,,,77.0,1.484,,
69,,isi,,html-keyboard-response,69,124583,0.0-1.0-89.0,0,0,18170,,,,,,12.0,,1.0,,,,,,,,,,,,,,,,,,,,78.5,1.5,,
70,,feedback,,html-keyboard-response,70,125585,0.0-1.0-90.0-0.0,0,0,18170,,,,,,12.0,,1.0,,,,,,,,,,,,,,,,,,,,79.5,1.0,,
71,,iti,,html-keyboard-response,71,126587,0.0-1.0-91.0,0,0,18170,,,,,,12.0,,1.0,,,,,,,,,,,,,,,,,,,,80.5,1.0,,
72,,rl_choice,,html-keyboard-response,72,126623,0.0-1.0-93.0,0,0,18170,,34.0,,,68.0,13.0,13.0,1.0,easy,1500.0,1500.0,1.0,80.0,20.0,100.0,40.0,D,C,/static/Simple_RL/Stimuli/Fractals_stims/D.jpg,/static/Simple_RL/Stimuli/Fractals_stims/C.jpg,1.0,80.0,20.0,100.0,40.0,D,C,80.534,0.034,0.0,
73,,rl_choice_confirmation,,html-keyboard-response,73,128090,0.0-1.0-94.0-0.0,0,0,18170,,,,,,13.0,,1.0,,,,,,,,,,,,,,,,,,,,82.0,1.466,,
74,,isi,,html-keyboard-response,74,129592,0.0-1.0-96.0,0,0,18170,,,,,,13.0,,1.0,,,,,,,,,,,,,,,,,,,,83.5,1.5,,
75,,feedback,,html-keyboard-response,75,130594,0.0-1.0-97.0-0.0,0,0,18170,,,,,,13.0,,1.0,,,,,,,,,,,,,,,,,,,,84.5,1.0,,
76,,iti,,html-keyboard-response,76,132095,0.0-1.0-98.0,0,0,18170,,,,,,13.0,,1.0,,,,,,,,,,,,,,,,,,,,86.0,1.5,,
77,,rl_choice,,html-keyboard-response,77,132157,0.0-1.0-100.0,0,0,18170,,61.0,,,68.0,14.0,14.0,1.0,easy,1000.0,1000.0,0.0,20.0,80.0,0.0,60.0,C,D,/static/Simple_RL/Stimuli/Fractals_stims/C.jpg,/static/Simple_RL/Stimuli/Fractals_stims/D.jpg,1.0,20.0,80.0,0.0,60.0,C,D,86.061,0.061,0.0,
78,,rl_choice_confirmation,,html-keyboard-response,78,133598,0.0-1.0-101.0-0.0,0,0,18170,,,,,,14.0,,1.0,,,,,,,,,,,,,,,,,,,,87.5,1.439,,
79,,isi,,html-keyboard-response,79,134599,0.0-1.0-103.0,0,0,18170,,,,,,14.0,,1.0,,,,,,,,,,,,,,,,,,,,88.5,1.0,,
80,,feedback,,html-keyboard-response,80,135602,0.0-1.0-104.0-0.0,0,0,18170,,,,,,14.0,,1.0,,,,,,,,,,,,,,,,,,,,89.5,1.0,,
81,,iti,,html-keyboard-response,81,136604,0.0-1.0-105.0,0,0,18170,,,,,,14.0,,1.0,,,,,,,,,,,,,,,,,,,,90.5,1.0,,
82,,rl_choice,,html-keyboard-response,82,136871,0.0-1.0-107.0,0,0,18170,,265.0,,,68.0,15.0,15.0,1.0,easy,1000.0,2000.0,0.0,20.0,80.0,20.0,100.0,C,D,/static/Simple_RL/Stimuli/Fractals_stims/C.jpg,/static/Simple_RL/Stimuli/Fractals_stims/D.jpg,1.0,20.0,80.0,20.0,100.0,C,D,90.765,0.265,0.0,
83,,rl_choice_confirmation,,html-keyboard-response,83,138108,0.0-1.0-108.0-0.0,0,0,18170,,,,,,15.0,,1.0,,,,,,,,,,,,,,,,,,,,92.0,1.235,,
84,,isi,,html-keyboard-response,84,140109,0.0-1.0-110.0,0,0,18170,,,,,,15.0,,1.0,,,,,,,,,,,,,,,,,,,,94.0,2.0,,
85,,feedback,,html-keyboard-response,85,141111,0.0-1.0-111.0-0.0,0,0,18170,,,,,,15.0,,1.0,,,,,,,,,,,,,,,,,,,,95.0,1.0,,
86,,iti,,html-keyboard-response,86,142113,0.0-1.0-112.0,0,0,18170,,,,,,15.0,,1.0,,,,,,,,,,,,,,,,,,,,96.0,1.0,,
87,,rl_choice,,html-keyboard-response,87,142589,0.0-1.0-114.0,0,0,18170,,475.0,,,68.0,16.0,16.0,1.0,hard,1000.0,1000.0,1.0,60.0,40.0,60.0,20.0,B,A,/static/Simple_RL/Stimuli/Fractals_stims/B.jpg,/static/Simple_RL/Stimuli/Fractals_stims/A.jpg,1.0,60.0,40.0,60.0,20.0,B,A,96.475,0.475,0.0,
88,,rl_choice_confirmation,,html-keyboard-response,88,143617,0.0-1.0-115.0-0.0,0,0,18170,,,,,,16.0,,1.0,,,,,,,,,,,,,,,,,,,,97.5,1.025,,
89,,isi,,html-keyboard-response,89,144619,0.0-1.0-117.0,0,0,18170,,,,,,16.0,,1.0,,,,,,,,,,,,,,,,,,,,98.5,1.0,,
90,,feedback,,html-keyboard-response,90,145621,0.0-1.0-118.0-0.0,0,0,18170,,,,,,16.0,,1.0,,,,,,,,,,,,,,,,,,,,99.5,1.0,,
91,,iti,,html-keyboard-response,91,146623,0.0-1.0-119.0,0,0,18170,,,,,,16.0,,1.0,,,,,,,,,,,,,,,,,,,,100.5,1.0,,
92,,rl_choice,,html-keyboard-response,92,146879,0.0-1.0-121.0,0,0,18170,,254.0,,,75.0,17.0,17.0,1.0,easy,1000.0,2000.0,0.0,20.0,80.0,40.0,100.0,C,D,/static/Simple_RL/Stimuli/Fractals_stims/C.jpg,/static/Simple_RL/Stimuli/Fractals_stims/D.jpg,0.0,80.0,20.0,100.0,40.0,D,C,100.754,0.254,0.0,
93,,rl_choice_confirmation,,html-keyboard-response,93,148127,0.0-1.0-122.0-0.0,0,0,18170,,,,,,17.0,,1.0,,,,,,,,,,,,,,,,,,,,102.0,1.246,,
94,,isi,,html-keyboard-response,94,150129,0.0-1.0-124.0,0,0,18170,,,,,,17.0,,1.0,,,,,,,,,,,,,,,,,,,,104.0,2.0,,
95,,feedback,,html-keyboard-response,95,151138,0.0-1.0-125.0-0.0,0,0,18170,,,,,,17.0,,1.0,,,,,,,,,,,,,,,,,,,,105.0,1.0,,
96,,iti,,html-keyboard-response,96,152141,0.0-1.0-126.0,0,0,18170,,,,,,17.0,,1.0,,,,,,,,,,,,,,,,,,,,106.0,1.0,,
97,,rl_choice,,html-keyboard-response,97,152433,0.0-1.0-128.0,0,0,18170,,290.0,,,75.0,18.0,18.0,1.0,easy,2000.0,1000.0,0.0,20.0,80.0,0.0,100.0,C,D,/static/Simple_RL/Stimuli/Fractals_stims/C.jpg,/static/Simple_RL/Stimuli/Fractals_stims/D.jpg,0.0,80.0,20.0,100.0,0.0,D,C,106.29,0.29,0.0,
98,,rl_choice_confirmation,,html-keyboard-response,98,153644,0.0-1.0-129.0-0.0,0,0,18170,,,,,,18.0,,1.0,,,,,,,,,,,,,,,,,,,,107.5,1.21,,
99,,isi,,html-keyboard-response,99,154646,0.0-1.0-131.0,0,0,18170,,,,,,18.0,,1.0,,,,,,,,,,,,,,,,,,,,108.5,1.0,,
100,,feedback,,html-keyboard-response,100,155649,0.0-1.0-132.0-0.0,0,0,18170,,,,,,18.0,,1.0,,,,,,,,,,,,,,,,,,,,109.5,1.0,,
101,,iti,,html-keyboard-response,101,157651,0.0-1.0-133.0,0,0,18170,,,,,,18.0,,1.0,,,,,,,,,,,,,,,,,,,,111.5,2.0,,
102,,rl_choice,,html-keyboard-response,102,158128,0.0-1.0-135.0,0,0,18170,,477.0,,,68.0,19.0,19.0,1.0,hard,1500.0,1500.0,0.0,40.0,60.0,60.0,60.0,A,B,/static/Simple_RL/Stimuli/Fractals_stims/A.jpg,/static/Simple_RL/Stimuli/Fractals_stims/B.jpg,1.0,40.0,60.0,60.0,60.0,A,B,111.977,0.477,0.0,
103,,rl_choice_confirmation,,html-keyboard-response,103,159153,0.0-1.0-136.0-0.0,0,0,18170,,,,,,19.0,,1.0,,,,,,,,,,,,,,,,,,,,113.0,1.023,,
104,,isi,,html-keyboard-response,104,160655,0.0-1.0-138.0,0,0,18170,,,,,,19.0,,1.0,,,,,,,,,,,,,,,,,,,,114.5,1.5,,
105,,feedback,,html-keyboard-response,105,161658,0.0-1.0-139.0-0.0,0,0,18170,,,,,,19.0,,1.0,,,,,,,,,,,,,,,,,,,,115.5,1.0,,
106,,iti,,html-keyboard-response,106,163159,0.0-1.0-140.0,0,0,18170,,,,,,19.0,,1.0,,,,,,,,,,,,,,,,,,,,117.0,1.5,,
107,,rl_choice,,html-keyboard-response,107,163199,0.0-1.0-142.0,0,0,18170,,39.0,,,75.0,20.0,20.0,1.0,easy,1000.0,1000.0,1.0,80.0,20.0,60.0,40.0,D,C,/static/Simple_RL/Stimuli/Fractals_stims/D.jpg,/static/Simple_RL/Stimuli/Fractals_stims/C.jpg,0.0,20.0,80.0,40.0,60.0,C,D,117.039,0.039,0.0,
108,,rl_choice_confirmation,,html-keyboard-response,108,164672,0.0-1.0-143.0-0.0,0,0,18170,,,,,,20.0,,1.0,,,,,,,,,,,,,,,,,,,,118.5,1.461,,
109,,isi,,html-keyboard-response,109,165673,0.0-1.0-145.0,0,0,18170,,,,,,20.0,,1.0,,,,,,,,,,,,,,,,,,,,119.5,1.0,,
110,,feedback,,html-keyboard-response,110,166675,0.0-1.0-146.0-0.0,0,0,18170,,,,,,20.0,,1.0,,,,,,,,,,,,,,,,,,,,120.5,1.0,,
111,,iti,,html-keyboard-response,111,167684,0.0-1.0-147.0,0,0,18170,,,,,,20.0,,1.0,,,,,,,,,,,,,,,,,,,,121.5,1.0,,
112,,rl_choice,,html-keyboard-response,112,168051,0.0-1.0-149.0,0,0,18170,,366.0,,,68.0,21.0,21.0,1.0,easy,3500.0,1000.0,1.0,80.0,20.0,60.0,20.0,D,C,/static/Simple_RL/Stimuli/Fractals_stims/D.jpg,/static/Simple_RL/Stimuli/Fractals_stims/C.jpg,1.0,80.0,20.0,60.0,20.0,D,C,121.866,0.366,0.0,
113,,rl_choice_confirmation,,html-keyboard-response,113,169192,0.0-1.0-150.0-0.0,0,0,18170,,,,,,21.0,,1.0,,,,,,,,,,,,,,,,,,,,123.0,1.134,,
114,,isi,,html-keyboard-response,114,170194,0.0-1.0-152.0,0,0,18170,,,,,,21.0,,1.0,,,,,,,,,,,,,,,,,,,,124.0,1.0,,
115,,feedback,,html-keyboard-response,115,171197,0.0-1.0-153.0-0.0,0,0,18170,,,,,,21.0,,1.0,,,,,,,,,,,,,,,,,,,,125.0,1.0,,
116,,iti,,html-keyboard-response,116,174699,0.0-1.0-154.0,0,0,18170,,,,,,21.0,,1.0,,,,,,,,,,,,,,,,,,,,128.5,3.5,,
117,,rl_choice,,html-keyboard-response,117,175121,0.0-1.0-156.0,0,0,18170,,420.0,,,68.0,22.0,22.0,1.0,easy,1500.0,1500.0,1.0,80.0,20.0,80.0,20.0,D,C,/static/Simple_RL/Stimuli/Fractals_stims/D.jpg,/static/Simple_RL/Stimuli/Fractals_stims/C.jpg,1.0,80.0,20.0,80.0,20.0,D,C,128.92,0.42,0.0,
118,,rl_choice_confirmation,,html-keyboard-response,118,176202,0.0-1.0-157.0-0.0,0,0,18170,,,,,,22.0,,1.0,,,,,,,,,,,,,,,,,,,,130.0,1.08,,
119,,isi,,html-keyboard-response,119,177704,0.0-1.0-159.0,0,0,18170,,,,,,22.0,,1.0,,,,,,,,,,,,,,,,,,,,131.5,1.5,,
120,,feedback,,html-keyboard-response,120,178706,0.0-1.0-160.0-0.0,0,0,18170,,,,,,22.0,,1.0,,,,,,,,,,,,,,,,,,,,132.5,1.0,,
121,,iti,,html-keyboard-response,121,180207,0.0-1.0-161.0,0,0,18170,,,,,,22.0,,1.0,,,,,,,,,,,,,,,,,,,,134.0,1.5,,
122,,rl_choice,,html-keyboard-response,122,180636,0.0-1.0-163.0,0,0,18170,,427.0,,,75.0,23.0,23.0,1.0,easy,2000.0,1500.0,0.0,20.0,80.0,20.0,60.0,C,D,/static/Simple_RL/Stimuli/Fractals_stims/C.jpg,/static/Simple_RL/Stimuli/Fractals_stims/D.jpg,0.0,80.0,20.0,60.0,20.0,D,C,134.427,0.427,0.0,
123,,rl_choice_confirmation,,html-keyboard-response,123,181711,0.0-1.0-164.0-0.0,0,0,18170,,,,,,23.0,,1.0,,,,,,,,,,,,,,,,,,,,135.5,1.073,,
124,,isi,,html-keyboard-response,124,183212,0.0-1.0-166.0,0,0,18170,,,,,,23.0,,1.0,,,,,,,,,,,,,,,,,,,,137.0,1.5,,
125,,feedback,,html-keyboard-response,125,184215,0.0-1.0-167.0-0.0,0,0,18170,,,,,,23.0,,1.0,,,,,,,,,,,,,,,,,,,,138.0,1.0,,
126,,iti,,html-keyboard-response,126,186216,0.0-1.0-168.0,0,0,18170,,,,,,23.0,,1.0,,,,,,,,,,,,,,,,,,,,140.0,2.0,,
127,,rl_choice,,html-keyboard-response,127,186749,0.0-1.0-170.0,0,0,18170,,530.0,,,68.0,24.0,24.0,1.0,hard,1000.0,1000.0,0.0,40.0,60.0,60.0,80.0,A,B,/static/Simple_RL/Stimuli/Fractals_stims/A.jpg,/static/Simple_RL/Stimuli/Fractals_stims/B.jpg,1.0,40.0,60.0,60.0,80.0,A,B,140.53,0.53,0.0,
128,,rl_choice_confirmation,,html-keyboard-response,128,187721,0.0-1.0-171.0-0.0,0,0,18170,,,,,,24.0,,1.0,,,,,,,,,,,,,,,,,,,,141.5,0.97,,
129,,isi,,html-keyboard-response,129,188722,0.0-1.0-173.0,0,0,18170,,,,,,24.0,,1.0,,,,,,,,,,,,,,,,,,,,142.5,1.0,,
130,,feedback,,html-keyboard-response,130,189727,0.0-1.0-174.0-0.0,0,0,18170,,,,,,24.0,,1.0,,,,,,,,,,,,,,,,,,,,143.5,1.0,,
131,,iti,,html-keyboard-response,131,190729,0.0-1.0-175.0,0,0,18170,,,,,,24.0,,1.0,,,,,,,,,,,,,,,,,,,,144.5,1.0,,
132,,rl_choice,,html-keyboard-response,132,191109,0.0-1.0-177.0,0,0,18170,,380.0,,,75.0,25.0,25.0,1.0,easy,1000.0,1500.0,0.0,20.0,80.0,20.0,60.0,C,D,/static/Simple_RL/Stimuli/Fractals_stims/C.jpg,/static/Simple_RL/Stimuli/Fractals_stims/D.jpg,0.0,80.0,20.0,60.0,20.0,D,C,144.88,0.38,0.0,
133,,rl_choice_confirmation,,html-keyboard-response,133,192231,0.0-1.0-178.0-0.0,0,0,18170,,,,,,25.0,,1.0,,,,,,,,,,,,,,,,,,,,146.0,1.12,,
134,,isi,,html-keyboard-response,134,193733,0.0-1.0-180.0,0,0,18170,,,,,,25.0,,1.0,,,,,,,,,,,,,,,,,,,,147.5,1.5,,
135,,feedback,,html-keyboard-response,135,194735,0.0-1.0-181.0-0.0,0,0,18170,,,,,,25.0,,1.0,,,,,,,,,,,,,,,,,,,,148.5,1.0,,
136,,iti,,html-keyboard-response,136,195736,0.0-1.0-182.0,0,0,18170,,,,,,25.0,,1.0,,,,,,,,,,,,,,,,,,,,149.5,1.0,,
137,,rl_choice,,html-keyboard-response,137,195770,0.0-1.0-184.0,0,0,18170,,32.0,,,75.0,26.0,26.0,1.0,easy,2000.0,1000.0,0.0,20.0,80.0,40.0,100.0,C,D,/static/Simple_RL/Stimuli/Fractals_stims/C.jpg,/static/Simple_RL/Stimuli/Fractals_stims/D.jpg,0.0,80.0,20.0,100.0,40.0,D,C,149.532,0.032,0.0,
138,,rl_choice_confirmation,,html-keyboard-response,138,197253,0.0-1.0-185.0-0.0,0,0,18170,,,,,,26.0,,1.0,,,,,,,,,,,,,,,,,,,,151.0,1.468,,
139,,isi,,html-keyboard-response,139,198256,0.0-1.0-187.0,0,0,18170,,,,,,26.0,,1.0,,,,,,,,,,,,,,,,,,,,152.0,1.0,,
140,,feedback,,html-keyboard-response,140,199258,0.0-1.0-188.0-0.0,0,0,18170,,,,,,26.0,,1.0,,,,,,,,,,,,,,,,,,,,153.0,1.0,,
141,,iti,,html-keyboard-response,141,201260,0.0-1.0-189.0,0,0,18170,,,,,,26.0,,1.0,,,,,,,,,,,,,,,,,,,,155.0,2.0,,
142,,rl_choice,,html-keyboard-response,142,201465,0.0-1.0-191.0,0,0,18170,,203.0,,,75.0,27.0,27.0,1.0,hard,1000.0,1000.0,1.0,60.0,40.0,60.0,20.0,B,A,/static/Simple_RL/Stimuli/Fractals_stims/B.jpg,/static/Simple_RL/Stimuli/Fractals_stims/A.jpg,0.0,40.0,60.0,20.0,60.0,A,B,155.203,0.203,0.0,
143,,rl_choice_confirmation,,html-keyboard-response,143,202764,0.0-1.0-192.0-0.0,0,0,18170,,,,,,27.0,,1.0,,,,,,,,,,,,,,,,,,,,156.5,1.297,,
144,,isi,,html-keyboard-response,144,203766,0.0-1.0-194.0,0,0,18170,,,,,,27.0,,1.0,,,,,,,,,,,,,,,,,,,,157.5,1.0,,
145,,feedback,,html-keyboard-response,145,204768,0.0-1.0-195.0-0.0,0,0,18170,,,,,,27.0,,1.0,,,,,,,,,,,,,,,,,,,,158.5,1.0,,
146,,iti,,html-keyboard-response,146,205770,0.0-1.0-196.0,0,0,18170,,,,,,27.0,,1.0,,,,,,,,,,,,,,,,,,,,159.5,1.0,,
147,,rl_choice,,html-keyboard-response,147,205903,0.0-1.0-198.0,0,0,18170,,132.0,,,68.0,28.0,28.0,1.0,easy,1500.0,1500.0,1.0,80.0,20.0,80.0,0.0,D,C,/static/Simple_RL/Stimuli/Fractals_stims/D.jpg,/static/Simple_RL/Stimuli/Fractals_stims/C.jpg,1.0,80.0,20.0,80.0,0.0,D,C,159.632,0.132,0.0,
148,,rl_choice_confirmation,,html-keyboard-response,148,207273,0.0-1.0-199.0-0.0,0,0,18170,,,,,,28.0,,1.0,,,,,,,,,,,,,,,,,,,,161.0,1.368,,
149,,isi,,html-keyboard-response,149,208774,0.0-1.0-201.0,0,0,18170,,,,,,28.0,,1.0,,,,,,,,,,,,,,,,,,,,162.5,1.5,,
150,,feedback,,html-keyboard-response,150,209776,0.0-1.0-202.0-0.0,0,0,18170,,,,,,28.0,,1.0,,,,,,,,,,,,,,,,,,,,163.5,1.0,,
151,,iti,,html-keyboard-response,151,211278,0.0-1.0-203.0,0,0,18170,,,,,,28.0,,1.0,,,,,,,,,,,,,,,,,,,,165.0,1.5,,
152,,rl_choice,,html-keyboard-response,152,211449,0.0-1.0-205.0,0,0,18170,,169.0,,,75.0,29.0,29.0,1.0,easy,2000.0,2000.0,0.0,20.0,80.0,20.0,80.0,C,D,/static/Simple_RL/Stimuli/Fractals_stims/C.jpg,/static/Simple_RL/Stimuli/Fractals_stims/D.jpg,0.0,80.0,20.0,80.0,20.0,D,C,165.169,0.169,0.0,
153,,rl_choice_confirmation,,html-keyboard-response,153,212781,0.0-1.0-206.0-0.0,0,0,18170,,,,,,29.0,,1.0,,,,,,,,,,,,,,,,,,,,166.5,1.331,,
154,,isi,,html-keyboard-response,154,214784,0.0-1.0-208.0,0,0,18170,,,,,,29.0,,1.0,,,,,,,,,,,,,,,,,,,,168.5,2.0,,
155,,feedback,,html-keyboard-response,155,215786,0.0-1.0-209.0-0.0,0,0,18170,,,,,,29.0,,1.0,,,,,,,,,,,,,,,,,,,,169.5,1.0,,
156,,iti,,html-keyboard-response,156,217788,0.0-1.0-210.0,0,0,18170,,,,,,29.0,,1.0,,,,,,,,,,,,,,,,,,,,171.5,2.0,,
157,,rl_choice,,html-keyboard-response,157,218164,0.0-1.0-212.0,0,0,18170,,376.0,,,75.0,30.0,30.0,1.0,hard,1500.0,1500.0,1.0,60.0,40.0,60.0,60.0,B,A,/static/Simple_RL/Stimuli/Fractals_stims/B.jpg,/static/Simple_RL/Stimuli/Fractals_stims/A.jpg,0.0,40.0,60.0,60.0,60.0,A,B,171.876,0.376,0.0,
158,,rl_choice_confirmation,,html-keyboard-response,158,219291,0.0-1.0-213.0-0.0,0,0,18170,,,,,,30.0,,1.0,,,,,,,,,,,,,,,,,,,,173.0,1.124,,
159,,isi,,html-keyboard-response,159,220792,0.0-1.0-215.0,0,0,18170,,,,,,30.0,,1.0,,,,,,,,,,,,,,,,,,,,174.5,1.5,,
160,,feedback,,html-keyboard-response,160,221794,0.0-1.0-216.0-0.0,0,0,18170,,,,,,30.0,,1.0,,,,,,,,,,,,,,,,,,,,175.5,1.0,,
161,,iti,,html-keyboard-response,161,223297,0.0-1.0-217.0,0,0,18170,,,,,,30.0,,1.0,,,,,,,,,,,,,,,,,,,,177.0,1.5,,
162,,rl_choice,,html-keyboard-response,162,223310,0.0-1.0-219.0,0,0,18170,,12.0,,,75.0,31.0,31.0,1.0,easy,3000.0,1000.0,0.0,20.0,80.0,40.0,80.0,C,D,/static/Simple_RL/Stimuli/Fractals_stims/C.jpg,/static/Simple_RL/Stimuli/Fractals_stims/D.jpg,0.0,80.0,20.0,80.0,40.0,D,C,177.012,0.012,0.0,
163,,rl_choice_confirmation,,html-keyboard-response,163,224800,0.0-1.0-220.0-0.0,0,0,18170,,,,,,31.0,,1.0,,,,,,,,,,,,,,,,,,,,178.5,1.488,,
164,,isi,,html-keyboard-response,164,225801,0.0-1.0-222.0,0,0,18170,,,,,,31.0,,1.0,,,,,,,,,,,,,,,,,,,,179.5,1.0,,
165,,feedback,,html-keyboard-response,165,226803,0.0-1.0-223.0-0.0,0,0,18170,,,,,,31.0,,1.0,,,,,,,,,,,,,,,,,,,,180.5,1.0,,
166,,iti,,html-keyboard-response,166,229805,0.0-1.0-224.0,0,0,18170,,,,,,31.0,,1.0,,,,,,,,,,,,,,,,,,,,183.5,3.0,,
167,,rl_choice,,html-keyboard-response,167,229861,0.0-1.0-226.0,0,0,18170,,55.0,,,75.0,32.0,32.0,1.0,easy,1000.0,1000.0,1.0,80.0,20.0,80.0,20.0,D,C,/static/Simple_RL/Stimuli/Fractals_stims/D.jpg,/static/Simple_RL/Stimuli/Fractals_stims/C.jpg,0.0,20.0,80.0,20.0,80.0,C,D,183.555,0.055,0.0,
168,,rl_choice_confirmation,,html-keyboard-response,168,231308,0.0-1.0-227.0-0.0,0,0,18170,,,,,,32.0,,1.0,,,,,,,,,,,,,,,,,,,,185.0,1.445,,
169,,isi,,html-keyboard-response,169,232310,0.0-1.0-229.0,0,0,18170,,,,,,32.0,,1.0,,,,,,,,,,,,,,,,,,,,186.0,1.0,,
170,,feedback,,html-keyboard-response,170,233312,0.0-1.0-230.0-0.0,0,0,18170,,,,,,32.0,,1.0,,,,,,,,,,,,,,,,,,,,187.0,1.0,,
171,,iti,,html-keyboard-response,171,234314,0.0-1.0-231.0,0,0,18170,,,,,,32.0,,1.0,,,,,,,,,,,,,,,,,,,,188.0,1.0,,
172,,rl_choice,,html-keyboard-response,172,234390,0.0-1.0-233.0,0,0,18170,,74.0,,,68.0,33.0,33.0,1.0,easy,1000.0,1000.0,0.0,20.0,80.0,40.0,60.0,C,D,/static/Simple_RL/Stimuli/Fractals_stims/C.jpg,/static/Simple_RL/Stimuli/Fractals_stims/D.jpg,1.0,20.0,80.0,40.0,60.0,C,D,188.074,0.074,0.0,
173,,rl_choice_confirmation,,html-keyboard-response,173,235819,0.0-1.0-234.0-0.0,0,0,18170,,,,,,33.0,,1.0,,,,,,,,,,,,,,,,,,,,189.5,1.426,,
174,,isi,,html-keyboard-response,174,236820,0.0-1.0-236.0,0,0,18170,,,,,,33.0,,1.0,,,,,,,,,,,,,,,,,,,,190.5,1.0,,
175,,feedback,,html-keyboard-response,175,237822,0.0-1.0-237.0-0.0,0,0,18170,,,,,,33.0,,1.0,,,,,,,,,,,,,,,,,,,,191.5,1.0,,
176,,iti,,html-keyboard-response,176,238825,0.0-1.0-238.0,0,0,18170,,,,,,33.0,,1.0,,,,,,,,,,,,,,,,,,,,192.5,1.0,,
177,,rl_choice,,html-keyboard-response,177,238884,0.0-1.0-240.0,0,0,18170,,57.0,,,68.0,34.0,34.0,1.0,hard,1500.0,1000.0,0.0,40.0,60.0,40.0,40.0,A,B,/static/Simple_RL/Stimuli/Fractals_stims/A.jpg,/static/Simple_RL/Stimuli/Fractals_stims/B.jpg,1.0,40.0,60.0,40.0,40.0,A,B,192.557,0.057,0.0,
178,,rl_choice_confirmation,,html-keyboard-response,178,240329,0.0-1.0-241.0-0.0,0,0,18170,,,,,,34.0,,1.0,,,,,,,,,,,,,,,,,,,,194.0,1.443,,
179,,isi,,html-keyboard-response,179,241332,0.0-1.0-243.0,0,0,18170,,,,,,34.0,,1.0,,,,,,,,,,,,,,,,,,,,195.0,1.0,,
180,,feedback,,html-keyboard-response,180,242334,0.0-1.0-244.0-0.0,0,0,18170,,,,,,34.0,,1.0,,,,,,,,,,,,,,,,,,,,196.0,1.0,,
181,,iti,,html-keyboard-response,181,243835,0.0-1.0-245.0,0,0,18170,,,,,,34.0,,1.0,,,,,,,,,,,,,,,,,,,,197.5,1.5,,
182,,rl_choice,,html-keyboard-response,182,244195,0.0-1.0-247.0,0,0,18170,,358.0,,,75.0,35.0,35.0,1.0,hard,1000.0,3000.0,0.0,40.0,60.0,40.0,40.0,A,B,/static/Simple_RL/Stimuli/Fractals_stims/A.jpg,/static/Simple_RL/Stimuli/Fractals_stims/B.jpg,0.0,60.0,40.0,40.0,40.0,B,A,197.858,0.358,0.0,
183,,rl_choice_confirmation,,html-keyboard-response,183,245338,0.0-1.0-248.0-0.0,0,0,18170,,,,,,35.0,,1.0,,,,,,,,,,,,,,,,,,,,199.0,1.142,,
184,,isi,,html-keyboard-response,184,248340,0.0-1.0-250.0,0,0,18170,,,,,,35.0,,1.0,,,,,,,,,,,,,,,,,,,,202.0,3.0,,
185,,feedback,,html-keyboard-response,185,249343,0.0-1.0-251.0-0.0,0,0,18170,,,,,,35.0,,1.0,,,,,,,,,,,,,,,,,,,,203.0,1.0,,
186,,iti,,html-keyboard-response,186,250345,0.0-1.0-252.0,0,0,18170,,,,,,35.0,,1.0,,,,,,,,,,,,,,,,,,,,204.0,1.0,,
187,,rl_choice,,html-keyboard-response,187,250373,0.0-1.0-254.0,0,0,18170,,26.0,,,75.0,36.0,36.0,1.0,easy,1000.0,3500.0,0.0,20.0,80.0,0.0,80.0,C,D,/static/Simple_RL/Stimuli/Fractals_stims/C.jpg,/static/Simple_RL/Stimuli/Fractals_stims/D.jpg,0.0,80.0,20.0,80.0,0.0,D,C,204.026,0.026,0.0,
188,,rl_choice_confirmation,,html-keyboard-response,188,251849,0.0-1.0-255.0-0.0,0,0,18170,,,,,,36.0,,1.0,,,,,,,,,,,,,,,,,,,,205.5,1.474,,
189,,isi,,html-keyboard-response,189,255350,0.0-1.0-257.0,0,0,18170,,,,,,36.0,,1.0,,,,,,,,,,,,,,,,,,,,209.0,3.5,,
190,,feedback,,html-keyboard-response,190,256352,0.0-1.0-258.0-0.0,0,0,18170,,,,,,36.0,,1.0,,,,,,,,,,,,,,,,,,,,210.0,1.0,,
191,,iti,,html-keyboard-response,191,257353,0.0-1.0-259.0,0,0,18170,,,,,,36.0,,1.0,,,,,,,,,,,,,,,,,,,,211.0,1.0,,
192,,rl_choice,,html-keyboard-response,192,257357,0.0-1.0-261.0,0,0,18170,,3.0,,,68.0,37.0,37.0,1.0,hard,2000.0,1500.0,1.0,60.0,40.0,40.0,20.0,B,A,/static/Simple_RL/Stimuli/Fractals_stims/B.jpg,/static/Simple_RL/Stimuli/Fractals_stims/A.jpg,1.0,60.0,40.0,40.0,20.0,B,A,211.003,0.003,0.0,
193,,rl_choice_confirmation,,html-keyboard-response,193,258856,0.0-1.0-262.0-0.0,0,0,18170,,,,,,37.0,,1.0,,,,,,,,,,,,,,,,,,,,212.5,1.497,,
194,,isi,,html-keyboard-response,194,260362,0.0-1.0-264.0,0,0,18170,,,,,,37.0,,1.0,,,,,,,,,,,,,,,,,,,,214.0,1.5,,
195,,feedback,,html-keyboard-response,195,261366,0.0-1.0-265.0-0.0,0,0,18170,,,,,,37.0,,1.0,,,,,,,,,,,,,,,,,,,,215.0,1.0,,
196,,iti,,html-keyboard-response,196,263368,0.0-1.0-266.0,0,0,18170,,,,,,37.0,,1.0,,,,,,,,,,,,,,,,,,,,217.0,2.0,,
197,,rl_choice,,html-keyboard-response,197,263436,0.0-1.0-268.0,0,0,18170,,67.0,,,75.0,38.0,38.0,1.0,hard,3000.0,1000.0,1.0,60.0,40.0,40.0,40.0,B,A,/static/Simple_RL/Stimuli/Fractals_stims/B.jpg,/static/Simple_RL/Stimuli/Fractals_stims/A.jpg,0.0,40.0,60.0,40.0,40.0,A,B,217.067,0.067,0.0,
198,,rl_choice_confirmation,,html-keyboard-response,198,264871,0.0-1.0-269.0-0.0,0,0,18170,,,,,,38.0,,1.0,,,,,,,,,,,,,,,,,,,,218.5,1.433,,
199,,isi,,html-keyboard-response,199,265872,0.0-1.0-271.0,0,0,18170,,,,,,38.0,,1.0,,,,,,,,,,,,,,,,,,,,219.5,1.0,,
200,,feedback,,html-keyboard-response,200,266876,0.0-1.0-272.0-0.0,0,0,18170,,,,,,38.0,,1.0,,,,,,,,,,,,,,,,,,,,220.5,1.0,,
201,,iti,,html-keyboard-response,201,269877,0.0-1.0-273.0,0,0,18170,,,,,,38.0,,1.0,,,,,,,,,,,,,,,,,,,,223.5,3.0,,
202,,rl_choice,,html-keyboard-response,202,269933,0.0-1.0-275.0,0,0,18170,,54.0,,,68.0,39.0,39.0,1.0,easy,3000.0,3000.0,1.0,80.0,20.0,100.0,0.0,D,C,/static/Simple_RL/Stimuli/Fractals_stims/D.jpg,/static/Simple_RL/Stimuli/Fractals_stims/C.jpg,1.0,80.0,20.0,100.0,0.0,D,C,223.554,0.054,0.0,
203,,rl_choice_confirmation,,html-keyboard-response,203,271380,0.0-1.0-276.0-0.0,0,0,18170,,,,,,39.0,,1.0,,,,,,,,,,,,,,,,,,,,225.0,1.446,,
204,,isi,,html-keyboard-response,204,274383,0.0-1.0-278.0,0,0,18170,,,,,,39.0,,1.0,,,,,,,,,,,,,,,,,,,,228.0,3.0,,
205,,feedback,,html-keyboard-response,205,275385,0.0-1.0-279.0-0.0,0,0,18170,,,,,,39.0,,1.0,,,,,,,,,,,,,,,,,,,,229.0,1.0,,
206,,iti,,html-keyboard-response,206,278387,0.0-1.0-280.0,0,0,18170,,,,,,39.0,,1.0,,,,,,,,,,,,,,,,,,,,232.0,3.0,,
207,,block_over,,html-keyboard-response,207,278397,0.0-1.0-281.0-0.0,0,0,18170,,9.0,,,68.0,39.0,,,,,,,,,,,,,,,,,,,,,,,,,
208,,start_run,,html-keyboard-response,208,279673,0.0-1.0-281.0-1.0,0,0,18170,,1274.0,,,84.0,,,,,,,,,,,,,,,,,,,,,,,,,,
209,,rl_choice,,html-keyboard-response,209,279902,0.0-1.0-282.0,0,0,18170,,228.0,,,68.0,40.0,40.0,2.0,hard,2000.0,1000.0,1.0,60.0,40.0,80.0,40.0,B,A,/static/Simple_RL/Stimuli/Fractals_stims/B.jpg,/static/Simple_RL/Stimuli/Fractals_stims/A.jpg,1.0,60.0,40.0,80.0,40.0,B,A,0.228,0.228,0.0,
210,,rl_choice_confirmation,,html-keyboard-response,210,281176,0.0-1.0-283.0-0.0,0,0,18170,,,,,,40.0,,2.0,,,,,,,,,,,,,,,,,,,,1.5,1.272,,
211,,isi,,html-keyboard-response,211,282179,0.0-1.0-285.0,0,0,18170,,,,,,40.0,,2.0,,,,,,,,,,,,,,,,,,,,2.5,1.0,,
212,,feedback,,html-keyboard-response,212,283182,0.0-1.0-286.0-0.0,0,0,18170,,,,,,40.0,,2.0,,,,,,,,,,,,,,,,,,,,3.5,1.0,,
213,,iti,,html-keyboard-response,213,285185,0.0-1.0-287.0,0,0,18170,,,,,,40.0,,2.0,,,,,,,,,,,,,,,,,,,,5.5,2.0,,
214,,rl_choice,,html-keyboard-response,214,285213,0.0-1.0-289.0,0,0,18170,,28.0,,,75.0,41.0,41.0,2.0,easy,1000.0,2000.0,0.0,20.0,80.0,20.0,80.0,C,D,/static/Simple_RL/Stimuli/Fractals_stims/C.jpg,/static/Simple_RL/Stimuli/Fractals_stims/D.jpg,0.0,80.0,20.0,80.0,20.0,D,C,5.528,0.028,0.0,
215,,rl_choice_confirmation,,html-keyboard-response,215,286688,0.0-1.0-290.0-0.0,0,0,18170,,,,,,41.0,,2.0,,,,,,,,,,,,,,,,,,,,7.0,1.472,,
216,,isi,,html-keyboard-response,216,288689,0.0-1.0-292.0,0,0,18170,,,,,,41.0,,2.0,,,,,,,,,,,,,,,,,,,,9.0,2.0,,
217,,feedback,,html-keyboard-response,217,289691,0.0-1.0-293.0-0.0,0,0,18170,,,,,,41.0,,2.0,,,,,,,,,,,,,,,,,,,,10.0,1.0,,
218,,iti,,html-keyboard-response,218,290693,0.0-1.0-294.0,0,0,18170,,,,,,41.0,,2.0,,,,,,,,,,,,,,,,,,,,11.0,1.0,,
219,,rl_choice,,html-keyboard-response,219,290764,0.0-1.0-296.0,0,0,18170,,69.0,,,68.0,42.0,42.0,2.0,easy,3500.0,2000.0,1.0,80.0,20.0,100.0,20.0,D,C,/static/Simple_RL/Stimuli/Fractals_stims/D.jpg,/static/Simple_RL/Stimuli/Fractals_stims/C.jpg,1.0,80.0,20.0,100.0,20.0,D,C,11.069,0.069,0.0,
220,,rl_choice_confirmation,,html-keyboard-response,220,292196,0.0-1.0-297.0-0.0,0,0,18170,,,,,,42.0,,2.0,,,,,,,,,,,,,,,,,,,,12.5,1.431,,
221,,isi,,html-keyboard-response,221,294198,0.0-1.0-299.0,0,0,18170,,,,,,42.0,,2.0,,,,,,,,,,,,,,,,,,,,14.5,2.0,,
222,,feedback,,html-keyboard-response,222,295200,0.0-1.0-300.0-0.0,0,0,18170,,,,,,42.0,,2.0,,,,,,,,,,,,,,,,,,,,15.5,1.0,,
223,,iti,,html-keyboard-response,223,298702,0.0-1.0-301.0,0,0,18170,,,,,,42.0,,2.0,,,,,,,,,,,,,,,,,,,,19.0,3.5,,
224,,rl_choice,,html-keyboard-response,224,298785,0.0-1.0-303.0,0,0,18170,,82.0,,,75.0,43.0,43.0,2.0,easy,2000.0,1000.0,0.0,20.0,80.0,20.0,80.0,C,D,/static/Simple_RL/Stimuli/Fractals_stims/C.jpg,/static/Simple_RL/Stimuli/Fractals_stims/D.jpg,0.0,80.0,20.0,80.0,20.0,D,C,19.082,0.082,0.0,
225,,rl_choice_confirmation,,html-keyboard-response,225,300205,0.0-1.0-304.0-0.0,0,0,18170,,,,,,43.0,,2.0,,,,,,,,,,,,,,,,,,,,20.5,1.418,,
226,,isi,,html-keyboard-response,226,301207,0.0-1.0-306.0,0,0,18170,,,,,,43.0,,2.0,,,,,,,,,,,,,,,,,,,,21.5,1.0,,
227,,feedback,,html-keyboard-response,227,302209,0.0-1.0-307.0-0.0,0,0,18170,,,,,,43.0,,2.0,,,,,,,,,,,,,,,,,,,,22.5,1.0,,
228,,iti,,html-keyboard-response,228,304212,0.0-1.0-308.0,0,0,18170,,,,,,43.0,,2.0,,,,,,,,,,,,,,,,,,,,24.5,2.0,,
229,,rl_choice,,html-keyboard-response,229,304225,0.0-1.0-310.0,0,0,18170,,10.0,,,75.0,44.0,44.0,2.0,easy,2000.0,1000.0,0.0,20.0,80.0,40.0,80.0,C,D,/static/Simple_RL/Stimuli/Fractals_stims/C.jpg,/static/Simple_RL/Stimuli/Fractals_stims/D.jpg,0.0,80.0,20.0,80.0,40.0,D,C,24.51,0.01,0.0,
230,,rl_choice_confirmation,,html-keyboard-response,230,305720,0.0-1.0-311.0-0.0,0,0,18170,,,,,,44.0,,2.0,,,,,,,,,,,,,,,,,,,,26.0,1.49,,
231,,isi,,html-keyboard-response,231,306721,0.0-1.0-313.0,0,0,18170,,,,,,44.0,,2.0,,,,,,,,,,,,,,,,,,,,27.0,1.0,,
232,,feedback,,html-keyboard-response,232,307723,0.0-1.0-314.0-0.0,0,0,18170,,,,,,44.0,,2.0,,,,,,,,,,,,,,,,,,,,28.0,1.0,,
233,,iti,,html-keyboard-response,233,309725,0.0-1.0-315.0,0,0,18170,,,,,,44.0,,2.0,,,,,,,,,,,,,,,,,,,,30.0,2.0,,
234,,rl_choice,,html-keyboard-response,234,309835,0.0-1.0-317.0,0,0,18170,,109.0,,,75.0,45.0,45.0,2.0,easy,1000.0,1000.0,1.0,80.0,20.0,100.0,20.0,D,C,/static/Simple_RL/Stimuli/Fractals_stims/D.jpg,/static/Simple_RL/Stimuli/Fractals_stims/C.jpg,0.0,20.0,80.0,20.0,100.0,C,D,30.109,0.109,0.0,
235,,rl_choice_confirmation,,html-keyboard-response,235,311229,0.0-1.0-318.0-0.0,0,0,18170,,,,,,45.0,,2.0,,,,,,,,,,,,,,,,,,,,31.5,1.391,,
236,,isi,,html-keyboard-response,236,312231,0.0-1.0-320.0,0,0,18170,,,,,,45.0,,2.0,,,,,,,,,,,,,,,,,,,,32.5,1.0,,
237,,feedback,,html-keyboard-response,237,313234,0.0-1.0-321.0-0.0,0,0,18170,,,,,,45.0,,2.0,,,,,,,,,,,,,,,,,,,,33.5,1.0,,
238,,iti,,html-keyboard-response,238,314235,0.0-1.0-322.0,0,0,18170,,,,,,45.0,,2.0,,,,,,,,,,,,,,,,,,,,34.5,1.0,,
239,,rl_choice,,html-keyboard-response,239,314274,0.0-1.0-324.0,0,0,18170,,37.0,,,68.0,46.0,46.0,2.0,easy,1000.0,1500.0,0.0,20.0,80.0,40.0,80.0,C,D,/static/Simple_RL/Stimuli/Fractals_stims/C.jpg,/static/Simple_RL/Stimuli/Fractals_stims/D.jpg,1.0,20.0,80.0,40.0,80.0,C,D,34.537,0.037,0.0,
240,,rl_choice_confirmation,,html-keyboard-response,240,315740,0.0-1.0-325.0-0.0,0,0,18170,,,,,,46.0,,2.0,,,,,,,,,,,,,,,,,,,,36.0,1.463,,
241,,isi,,html-keyboard-response,241,317242,0.0-1.0-327.0,0,0,18170,,,,,,46.0,,2.0,,,,,,,,,,,,,,,,,,,,37.5,1.5,,
242,,feedback,,html-keyboard-response,242,318244,0.0-1.0-328.0-0.0,0,0,18170,,,,,,46.0,,2.0,,,,,,,,,,,,,,,,,,,,38.5,1.0,,
243,,iti,,html-keyboard-response,243,319247,0.0-1.0-329.0,0,0,18170,,,,,,46.0,,2.0,,,,,,,,,,,,,,,,,,,,39.5,1.0,,
244,,rl_choice,,html-keyboard-response,244,319291,0.0-1.0-331.0,0,0,18170,,44.0,,,68.0,47.0,47.0,2.0,easy,1000.0,3000.0,0.0,20.0,80.0,0.0,100.0,C,D,/static/Simple_RL/Stimuli/Fractals_stims/C.jpg,/static/Simple_RL/Stimuli/Fractals_stims/D.jpg,1.0,20.0,80.0,0.0,100.0,C,D,39.544,0.044,0.0,
245,,rl_choice_confirmation,,html-keyboard-response,245,320749,0.0-1.0-332.0-0.0,0,0,18170,,,,,,47.0,,2.0,,,,,,,,,,,,,,,,,,,,41.0,1.456,,
246,,isi,,html-keyboard-response,246,323751,0.0-1.0-334.0,0,0,18170,,,,,,47.0,,2.0,,,,,,,,,,,,,,,,,,,,44.0,3.0,,
247,,feedback,,html-keyboard-response,247,324753,0.0-1.0-335.0-0.0,0,0,18170,,,,,,47.0,,2.0,,,,,,,,,,,,,,,,,,,,45.0,1.0,,
248,,iti,,html-keyboard-response,248,325769,0.0-1.0-336.0,0,0,18170,,,,,,47.0,,2.0,,,,,,,,,,,,,,,,,,,,46.0,1.0,,
249,,rl_choice,,html-keyboard-response,249,326043,0.0-1.0-338.0,0,0,18170,,272.0,,,75.0,48.0,48.0,2.0,hard,1000.0,1000.0,0.0,40.0,60.0,60.0,60.0,A,B,/static/Simple_RL/Stimuli/Fractals_stims/A.jpg,/static/Simple_RL/Stimuli/Fractals_stims/B.jpg,0.0,60.0,40.0,60.0,60.0,B,A,46.272,0.272,0.0,
250,,rl_choice_confirmation,,html-keyboard-response,250,327272,0.0-1.0-339.0-0.0,0,0,18170,,,,,,48.0,,2.0,,,,,,,,,,,,,,,,,,,,47.5,1.228,,
251,,isi,,html-keyboard-response,251,328274,0.0-1.0-341.0,0,0,18170,,,,,,48.0,,2.0,,,,,,,,,,,,,,,,,,,,48.5,1.0,,
252,,feedback,,html-keyboard-response,252,329276,0.0-1.0-342.0-0.0,0,0,18170,,,,,,48.0,,2.0,,,,,,,,,,,,,,,,,,,,49.5,1.0,,
253,,iti,,html-keyboard-response,253,330278,0.0-1.0-343.0,0,0,18170,,,,,,48.0,,2.0,,,,,,,,,,,,,,,,,,,,50.5,1.0,,
254,,rl_choice,,html-keyboard-response,254,330338,0.0-1.0-345.0,0,0,18170,,59.0,,,75.0,49.0,49.0,2.0,easy,1500.0,2000.0,0.0,20.0,80.0,40.0,60.0,C,D,/static/Simple_RL/Stimuli/Fractals_stims/C.jpg,/static/Simple_RL/Stimuli/Fractals_stims/D.jpg,0.0,80.0,20.0,60.0,40.0,D,C,50.559,0.059,0.0,
255,,rl_choice_confirmation,,html-keyboard-response,255,331783,0.0-1.0-346.0-0.0,0,0,18170,,,,,,49.0,,2.0,,,,,,,,,,,,,,,,,,,,52.0,1.441,,
256,,isi,,html-keyboard-response,256,333785,0.0-1.0-348.0,0,0,18170,,,,,,49.0,,2.0,,,,,,,,,,,,,,,,,,,,54.0,2.0,,
257,,feedback,,html-keyboard-response,257,334787,0.0-1.0-349.0-0.0,0,0,18170,,,,,,49.0,,2.0,,,,,,,,,,,,,,,,,,,,55.0,1.0,,
258,,iti,,html-keyboard-response,258,336291,0.0-1.0-350.0,0,0,18170,,,,,,49.0,,2.0,,,,,,,,,,,,,,,,,,,,56.5,1.5,,
259,,rl_choice,,html-keyboard-response,259,336431,0.0-1.0-352.0,0,0,18170,,139.0,,,68.0,50.0,50.0,2.0,easy,1000.0,1000.0,1.0,80.0,20.0,80.0,0.0,D,C,/static/Simple_RL/Stimuli/Fractals_stims/D.jpg,/static/Simple_RL/Stimuli/Fractals_stims/C.jpg,1.0,80.0,20.0,80.0,0.0,D,C,56.639,0.139,0.0,
260,,rl_choice_confirmation,,html-keyboard-response,260,337794,0.0-1.0-353.0-0.0,0,0,18170,,,,,,50.0,,2.0,,,,,,,,,,,,,,,,,,,,58.0,1.361,,
261,,isi,,html-keyboard-response,261,338795,0.0-1.0-355.0,0,0,18170,,,,,,50.0,,2.0,,,,,,,,,,,,,,,,,,,,59.0,1.0,,
262,,feedback,,html-keyboard-response,262,339798,0.0-1.0-356.0-0.0,0,0,18170,,,,,,50.0,,2.0,,,,,,,,,,,,,,,,,,,,60.0,1.0,,
263,,iti,,html-keyboard-response,263,340799,0.0-1.0-357.0,0,0,18170,,,,,,50.0,,2.0,,,,,,,,,,,,,,,,,,,,61.0,1.0,,
264,,rl_choice,,html-keyboard-response,264,340995,0.0-1.0-359.0,0,0,18170,,195.0,,,75.0,51.0,51.0,2.0,easy,3000.0,1500.0,0.0,20.0,80.0,20.0,80.0,C,D,/static/Simple_RL/Stimuli/Fractals_stims/C.jpg,/static/Simple_RL/Stimuli/Fractals_stims/D.jpg,0.0,80.0,20.0,80.0,20.0,D,C,61.195,0.195,0.0,
265,,rl_choice_confirmation,,html-keyboard-response,265,342302,0.0-1.0-360.0-0.0,0,0,18170,,,,,,51.0,,2.0,,,,,,,,,,,,,,,,,,,,62.5,1.305,,
266,,isi,,html-keyboard-response,266,343803,0.0-1.0-362.0,0,0,18170,,,,,,51.0,,2.0,,,,,,,,,,,,,,,,,,,,64.0,1.5,,
267,,feedback,,html-keyboard-response,267,344805,0.0-1.0-363.0-0.0,0,0,18170,,,,,,51.0,,2.0,,,,,,,,,,,,,,,,,,,,65.0,1.0,,
268,,iti,,html-keyboard-response,268,347807,0.0-1.0-364.0,0,0,18170,,,,,,51.0,,2.0,,,,,,,,,,,,,,,,,,,,68.0,3.0,,
269,,rl_choice,,html-keyboard-response,269,347815,0.0-1.0-366.0,0,0,18170,,6.0,,,75.0,52.0,52.0,2.0,hard,1000.0,1000.0,0.0,40.0,60.0,40.0,40.0,A,B,/static/Simple_RL/Stimuli/Fractals_stims/A.jpg,/static/Simple_RL/Stimuli/Fractals_stims/B.jpg,0.0,60.0,40.0,40.0,40.0,B,A,68.006,0.006,0.0,
270,,rl_choice_confirmation,,html-keyboard-response,270,349311,0.0-1.0-367.0-0.0,0,0,18170,,,,,,52.0,,2.0,,,,,,,,,,,,,,,,,,,,69.5,1.494,,
271,,isi,,html-keyboard-response,271,350311,0.0-1.0-369.0,0,0,18170,,,,,,52.0,,2.0,,,,,,,,,,,,,,,,,,,,70.5,1.0,,
272,,feedback,,html-keyboard-response,272,351313,0.0-1.0-370.0-0.0,0,0,18170,,,,,,52.0,,2.0,,,,,,,,,,,,,,,,,,,,71.5,1.0,,
273,,iti,,html-keyboard-response,273,352315,0.0-1.0-371.0,0,0,18170,,,,,,52.0,,2.0,,,,,,,,,,,,,,,,,,,,72.5,1.0,,
274,,rl_choice,,html-keyboard-response,274,352369,0.0-1.0-373.0,0,0,18170,,53.0,,,68.0,53.0,53.0,2.0,hard,3000.0,1500.0,0.0,40.0,60.0,40.0,40.0,A,B,/static/Simple_RL/Stimuli/Fractals_stims/A.jpg,/static/Simple_RL/Stimuli/Fractals_stims/B.jpg,1.0,40.0,60.0,40.0,40.0,A,B,72.553,0.053,0.0,
275,,rl_choice_confirmation,,html-keyboard-response,275,353819,0.0-1.0-374.0-0.0,0,0,18170,,,,,,53.0,,2.0,,,,,,,,,,,,,,,,,,,,74.0,1.447,,
276,,isi,,html-keyboard-response,276,355321,0.0-1.0-376.0,0,0,18170,,,,,,53.0,,2.0,,,,,,,,,,,,,,,,,,,,75.5,1.5,,
277,,feedback,,html-keyboard-response,277,356322,0.0-1.0-377.0-0.0,0,0,18170,,,,,,53.0,,2.0,,,,,,,,,,,,,,,,,,,,76.5,1.0,,
278,,iti,,html-keyboard-response,278,359324,0.0-1.0-378.0,0,0,18170,,,,,,53.0,,2.0,,,,,,,,,,,,,,,,,,,,79.5,3.0,,
279,,rl_choice,,html-keyboard-response,279,359479,0.0-1.0-380.0,0,0,18170,,153.0,,,75.0,54.0,54.0,2.0,hard,1500.0,1500.0,0.0,40.0,60.0,20.0,80.0,A,B,/static/Simple_RL/Stimuli/Fractals_stims/A.jpg,/static/Simple_RL/Stimuli/Fractals_stims/B.jpg,0.0,60.0,40.0,80.0,20.0,B,A,79.653,0.153,0.0,
280,,rl_choice_confirmation,,html-keyboard-response,280,360828,0.0-1.0-381.0-0.0,0,0,18170,,,,,,54.0,,2.0,,,,,,,,,,,,,,,,,,,,81.0,1.347,,
281,,isi,,html-keyboard-response,281,362330,0.0-1.0-383.0,0,0,18170,,,,,,54.0,,2.0,,,,,,,,,,,,,,,,,,,,82.5,1.5,,
282,,feedback,,html-keyboard-response,282,363331,0.0-1.0-384.0-0.0,0,0,18170,,,,,,54.0,,2.0,,,,,,,,,,,,,,,,,,,,83.5,1.0,,
283,,iti,,html-keyboard-response,283,364833,0.0-1.0-385.0,0,0,18170,,,,,,54.0,,2.0,,,,,,,,,,,,,,,,,,,,85.0,1.5,,
284,,rl_choice,,html-keyboard-response,284,364870,0.0-1.0-387.0,0,0,18170,,35.0,,,68.0,55.0,55.0,2.0,easy,1500.0,1500.0,1.0,80.0,20.0,80.0,0.0,D,C,/static/Simple_RL/Stimuli/Fractals_stims/D.jpg,/static/Simple_RL/Stimuli/Fractals_stims/C.jpg,1.0,80.0,20.0,80.0,0.0,D,C,85.035,0.035,0.0,
285,,rl_choice_confirmation,,html-keyboard-response,285,366336,0.0-1.0-388.0-0.0,0,0,18170,,,,,,55.0,,2.0,,,,,,,,,,,,,,,,,,,,86.5,1.465,,
286,,isi,,html-keyboard-response,286,367838,0.0-1.0-390.0,0,0,18170,,,,,,55.0,,2.0,,,,,,,,,,,,,,,,,,,,88.0,1.5,,
287,,feedback,,html-keyboard-response,287,368839,0.0-1.0-391.0-0.0,0,0,18170,,,,,,55.0,,2.0,,,,,,,,,,,,,,,,,,,,89.0,1.0,,
288,,iti,,html-keyboard-response,288,370341,0.0-1.0-392.0,0,0,18170,,,,,,55.0,,2.0,,,,,,,,,,,,,,,,,,,,90.5,1.5,,
289,,rl_choice,,html-keyboard-response,289,370350,0.0-1.0-394.0,0,0,18170,,8.0,,,68.0,56.0,56.0,2.0,hard,1500.0,2000.0,1.0,60.0,40.0,60.0,60.0,B,A,/static/Simple_RL/Stimuli/Fractals_stims/B.jpg,/static/Simple_RL/Stimuli/Fractals_stims/A.jpg,1.0,60.0,40.0,60.0,60.0,B,A,90.508,0.008,0.0,
290,,rl_choice_confirmation,,html-keyboard-response,290,371843,0.0-1.0-395.0-0.0,0,0,18170,,,,,,56.0,,2.0,,,,,,,,,,,,,,,,,,,,92.0,1.492,,
291,,isi,,html-keyboard-response,291,373845,0.0-1.0-397.0,0,0,18170,,,,,,56.0,,2.0,,,,,,,,,,,,,,,,,,,,94.0,2.0,,
292,,feedback,,html-keyboard-response,292,374847,0.0-1.0-398.0-0.0,0,0,18170,,,,,,56.0,,2.0,,,,,,,,,,,,,,,,,,,,95.0,1.0,,
293,,iti,,html-keyboard-response,293,376349,0.0-1.0-399.0,0,0,18170,,,,,,56.0,,2.0,,,,,,,,,,,,,,,,,,,,96.5,1.5,,
294,,rl_choice,,html-keyboard-response,294,376373,0.0-1.0-401.0,0,0,18170,,23.0,,,68.0,57.0,57.0,2.0,hard,1500.0,2000.0,1.0,60.0,40.0,60.0,60.0,B,A,/static/Simple_RL/Stimuli/Fractals_stims/B.jpg,/static/Simple_RL/Stimuli/Fractals_stims/A.jpg,1.0,60.0,40.0,60.0,60.0,B,A,96.523,0.023,0.0,
295,,rl_choice_confirmation,,html-keyboard-response,295,377852,0.0-1.0-402.0-0.0,0,0,18170,,,,,,57.0,,2.0,,,,,,,,,,,,,,,,,,,,98.0,1.477,,
296,,isi,,html-keyboard-response,296,379855,0.0-1.0-404.0,0,0,18170,,,,,,57.0,,2.0,,,,,,,,,,,,,,,,,,,,100.0,2.0,,
297,,feedback,,html-keyboard-response,297,380858,0.0-1.0-405.0-0.0,0,0,18170,,,,,,57.0,,2.0,,,,,,,,,,,,,,,,,,,,101.0,1.0,,
298,,iti,,html-keyboard-response,298,382360,0.0-1.0-406.0,0,0,18170,,,,,,57.0,,2.0,,,,,,,,,,,,,,,,,,,,102.5,1.5,,
299,,rl_choice,,html-keyboard-response,299,382417,0.0-1.0-408.0,0,0,18170,,57.0,,,68.0,58.0,58.0,2.0,easy,1000.0,2000.0,0.0,20.0,80.0,0.0,60.0,C,D,/static/Simple_RL/Stimuli/Fractals_stims/C.jpg,/static/Simple_RL/Stimuli/Fractals_stims/D.jpg,1.0,20.0,80.0,0.0,60.0,C,D,102.557,0.057,0.0,
300,,rl_choice_confirmation,,html-keyboard-response,300,383863,0.0-1.0-409.0-0.0,0,0,18170,,,,,,58.0,,2.0,,,,,,,,,,,,,,,,,,,,104.0,1.443,,
301,,isi,,html-keyboard-response,301,385865,0.0-1.0-411.0,0,0,18170,,,,,,58.0,,2.0,,,,,,,,,,,,,,,,,,,,106.0,2.0,,
302,,feedback,,html-keyboard-response,302,386867,0.0-1.0-412.0-0.0,0,0,18170,,,,,,58.0,,2.0,,,,,,,,,,,,,,,,,,,,107.0,1.0,,
303,,iti,,html-keyboard-response,303,387869,0.0-1.0-413.0,0,0,18170,,,,,,58.0,,2.0,,,,,,,,,,,,,,,,,,,,108.0,1.0,,
304,,rl_choice,,html-keyboard-response,304,387877,0.0-1.0-415.0,0,0,18170,,7.0,,,75.0,59.0,59.0,2.0,easy,1000.0,1000.0,1.0,80.0,20.0,80.0,0.0,D,C,/static/Simple_RL/Stimuli/Fractals_stims/D.jpg,/static/Simple_RL/Stimuli/Fractals_stims/C.jpg,0.0,20.0,80.0,0.0,80.0,C,D,108.007,0.007,0.0,
305,,rl_choice_confirmation,,html-keyboard-response,305,389372,0.0-1.0-416.0-0.0,0,0,18170,,,,,,59.0,,2.0,,,,,,,,,,,,,,,,,,,,109.5,1.493,,
306,,isi,,html-keyboard-response,306,390374,0.0-1.0-418.0,0,0,18170,,,,,,59.0,,2.0,,,,,,,,,,,,,,,,,,,,110.5,1.0,,
307,,feedback,,html-keyboard-response,307,391376,0.0-1.0-419.0-0.0,0,0,18170,,,,,,59.0,,2.0,,,,,,,,,,,,,,,,,,,,111.5,1.0,,
308,,iti,,html-keyboard-response,308,392377,0.0-1.0-420.0,0,0,18170,,,,,,59.0,,2.0,,,,,,,,,,,,,,,,,,,,112.5,1.0,,
309,,rl_choice,,html-keyboard-response,309,392451,0.0-1.0-422.0,0,0,18170,,73.0,,,75.0,60.0,60.0,2.0,easy,3000.0,1500.0,1.0,80.0,20.0,80.0,20.0,D,C,/static/Simple_RL/Stimuli/Fractals_stims/D.jpg,/static/Simple_RL/Stimuli/Fractals_stims/C.jpg,0.0,20.0,80.0,20.0,80.0,C,D,112.573,0.073,0.0,
310,,rl_choice_confirmation,,html-keyboard-response,310,393880,0.0-1.0-423.0-0.0,0,0,18170,,,,,,60.0,,2.0,,,,,,,,,,,,,,,,,,,,114.0,1.427,,
311,,isi,,html-keyboard-response,311,395382,0.0-1.0-425.0,0,0,18170,,,,,,60.0,,2.0,,,,,,,,,,,,,,,,,,,,115.5,1.5,,
312,,feedback,,html-keyboard-response,312,396384,0.0-1.0-426.0-0.0,0,0,18170,,,,,,60.0,,2.0,,,,,,,,,,,,,,,,,,,,116.5,1.0,,
313,,iti,,html-keyboard-response,313,399386,0.0-1.0-427.0,0,0,18170,,,,,,60.0,,2.0,,,,,,,,,,,,,,,,,,,,119.5,3.0,,
314,,rl_choice,,html-keyboard-response,314,399521,0.0-1.0-429.0,0,0,18170,,133.0,,,68.0,61.0,61.0,2.0,hard,2000.0,1500.0,1.0,60.0,40.0,60.0,40.0,B,A,/static/Simple_RL/Stimuli/Fractals_stims/B.jpg,/static/Simple_RL/Stimuli/Fractals_stims/A.jpg,1.0,60.0,40.0,60.0,40.0,B,A,119.633,0.133,0.0,
315,,rl_choice_confirmation,,html-keyboard-response,315,400890,0.0-1.0-430.0-0.0,0,0,18170,,,,,,61.0,,2.0,,,,,,,,,,,,,,,,,,,,121.0,1.367,,
316,,isi,,html-keyboard-response,316,402391,0.0-1.0-432.0,0,0,18170,,,,,,61.0,,2.0,,,,,,,,,,,,,,,,,,,,122.5,1.5,,
317,,feedback,,html-keyboard-response,317,403394,0.0-1.0-433.0-0.0,0,0,18170,,,,,,61.0,,2.0,,,,,,,,,,,,,,,,,,,,123.5,1.0,,
318,,iti,,html-keyboard-response,318,405396,0.0-1.0-434.0,0,0,18170,,,,,,61.0,,2.0,,,,,,,,,,,,,,,,,,,,125.5,2.0,,
319,,rl_choice,,html-keyboard-response,319,405445,0.0-1.0-436.0,0,0,18170,,47.0,,,75.0,62.0,62.0,2.0,easy,1500.0,3000.0,1.0,80.0,20.0,60.0,40.0,D,C,/static/Simple_RL/Stimuli/Fractals_stims/D.jpg,/static/Simple_RL/Stimuli/Fractals_stims/C.jpg,0.0,20.0,80.0,40.0,60.0,C,D,125.547,0.047,0.0,
320,,rl_choice_confirmation,,html-keyboard-response,320,406900,0.0-1.0-437.0-0.0,0,0,18170,,,,,,62.0,,2.0,,,,,,,,,,,,,,,,,,,,127.0,1.453,,
321,,isi,,html-keyboard-response,321,409901,0.0-1.0-439.0,0,0,18170,,,,,,62.0,,2.0,,,,,,,,,,,,,,,,,,,,130.0,3.0,,
322,,feedback,,html-keyboard-response,322,410903,0.0-1.0-440.0-0.0,0,0,18170,,,,,,62.0,,2.0,,,,,,,,,,,,,,,,,,,,131.0,1.0,,
323,,iti,,html-keyboard-response,323,412406,0.0-1.0-441.0,0,0,18170,,,,,,62.0,,2.0,,,,,,,,,,,,,,,,,,,,132.5,1.5,,
324,,rl_choice,,html-keyboard-response,324,412588,0.0-1.0-443.0,0,0,18170,,181.0,,,68.0,63.0,63.0,2.0,hard,3000.0,3000.0,0.0,40.0,60.0,60.0,80.0,A,B,/static/Simple_RL/Stimuli/Fractals_stims/A.jpg,/static/Simple_RL/Stimuli/Fractals_stims/B.jpg,1.0,40.0,60.0,60.0,80.0,A,B,132.681,0.181,0.0,
325,,rl_choice_confirmation,,html-keyboard-response,325,413909,0.0-1.0-444.0-0.0,0,0,18170,,,,,,63.0,,2.0,,,,,,,,,,,,,,,,,,,,134.0,1.319,,
326,,isi,,html-keyboard-response,326,416911,0.0-1.0-446.0,0,0,18170,,,,,,63.0,,2.0,,,,,,,,,,,,,,,,,,,,137.0,3.0,,
327,,feedback,,html-keyboard-response,327,417914,0.0-1.0-447.0-0.0,0,0,18170,,,,,,63.0,,2.0,,,,,,,,,,,,,,,,,,,,138.0,1.0,,
328,,iti,,html-keyboard-response,328,420915,0.0-1.0-448.0,0,0,18170,,,,,,63.0,,2.0,,,,,,,,,,,,,,,,,,,,141.0,3.0,,
329,,rl_choice,,html-keyboard-response,329,421109,0.0-1.0-450.0,0,0,18170,,193.0,,,75.0,64.0,64.0,2.0,easy,2000.0,3500.0,1.0,80.0,20.0,60.0,0.0,D,C,/static/Simple_RL/Stimuli/Fractals_stims/D.jpg,/static/Simple_RL/Stimuli/Fractals_stims/C.jpg,0.0,20.0,80.0,0.0,60.0,C,D,141.193,0.193,0.0,
330,,rl_choice_confirmation,,html-keyboard-response,330,422419,0.0-1.0-451.0-0.0,0,0,18170,,,,,,64.0,,2.0,,,,,,,,,,,,,,,,,,,,142.5,1.307,,
331,,isi,,html-keyboard-response,331,425921,0.0-1.0-453.0,0,0,18170,,,,,,64.0,,2.0,,,,,,,,,,,,,,,,,,,,146.0,3.5,,
332,,feedback,,html-keyboard-response,332,426924,0.0-1.0-454.0-0.0,0,0,18170,,,,,,64.0,,2.0,,,,,,,,,,,,,,,,,,,,147.0,1.0,,
333,,iti,,html-keyboard-response,333,428926,0.0-1.0-455.0,0,0,18170,,,,,,64.0,,2.0,,,,,,,,,,,,,,,,,,,,149.0,2.0,,
334,,rl_choice,,html-keyboard-response,334,428946,0.0-1.0-457.0,0,0,18170,,18.0,,,68.0,65.0,65.0,2.0,hard,1000.0,3000.0,0.0,40.0,60.0,40.0,40.0,A,B,/static/Simple_RL/Stimuli/Fractals_stims/A.jpg,/static/Simple_RL/Stimuli/Fractals_stims/B.jpg,1.0,40.0,60.0,40.0,40.0,A,B,149.018,0.018,0.0,
335,,rl_choice_confirmation,,html-keyboard-response,335,430430,0.0-1.0-458.0-0.0,0,0,18170,,,,,,65.0,,2.0,,,,,,,,,,,,,,,,,,,,150.5,1.482,,
336,,isi,,html-keyboard-response,336,433433,0.0-1.0-460.0,0,0,18170,,,,,,65.0,,2.0,,,,,,,,,,,,,,,,,,,,153.5,3.0,,
337,,feedback,,html-keyboard-response,337,434435,0.0-1.0-461.0-0.0,0,0,18170,,,,,,65.0,,2.0,,,,,,,,,,,,,,,,,,,,154.5,1.0,,
338,,iti,,html-keyboard-response,338,435437,0.0-1.0-462.0,0,0,18170,,,,,,65.0,,2.0,,,,,,,,,,,,,,,,,,,,155.5,1.0,,
339,,rl_choice,,html-keyboard-response,339,435637,0.0-1.0-464.0,0,0,18170,,198.0,,,75.0,66.0,66.0,2.0,hard,1000.0,1000.0,1.0,60.0,40.0,80.0,60.0,B,A,/static/Simple_RL/Stimuli/Fractals_stims/B.jpg,/static/Simple_RL/Stimuli/Fractals_stims/A.jpg,0.0,40.0,60.0,60.0,80.0,A,B,155.698,0.198,0.0,
340,,rl_choice_confirmation,,html-keyboard-response,340,436940,0.0-1.0-465.0-0.0,0,0,18170,,,,,,66.0,,2.0,,,,,,,,,,,,,,,,,,,,157.0,1.302,,
341,,isi,,html-keyboard-response,341,437942,0.0-1.0-467.0,0,0,18170,,,,,,66.0,,2.0,,,,,,,,,,,,,,,,,,,,158.0,1.0,,
342,,feedback,,html-keyboard-response,342,438944,0.0-1.0-468.0-0.0,0,0,18170,,,,,,66.0,,2.0,,,,,,,,,,,,,,,,,,,,159.0,1.0,,
343,,iti,,html-keyboard-response,343,439947,0.0-1.0-469.0,0,0,18170,,,,,,66.0,,2.0,,,,,,,,,,,,,,,,,,,,160.0,1.0,,
344,,rl_choice,,html-keyboard-response,344,440354,0.0-1.0-471.0,0,0,18170,,406.0,,,75.0,67.0,67.0,2.0,hard,1000.0,1000.0,0.0,40.0,60.0,40.0,80.0,A,B,/static/Simple_RL/Stimuli/Fractals_stims/A.jpg,/static/Simple_RL/Stimuli/Fractals_stims/B.jpg,0.0,60.0,40.0,80.0,40.0,B,A,160.406,0.406,0.0,
345,,rl_choice_confirmation,,html-keyboard-response,345,441450,0.0-1.0-472.0-0.0,0,0,18170,,,,,,67.0,,2.0,,,,,,,,,,,,,,,,,,,,161.5,1.094,,
346,,isi,,html-keyboard-response,346,442451,0.0-1.0-474.0,0,0,18170,,,,,,67.0,,2.0,,,,,,,,,,,,,,,,,,,,162.5,1.0,,
347,,feedback,,html-keyboard-response,347,443453,0.0-1.0-475.0-0.0,0,0,18170,,,,,,67.0,,2.0,,,,,,,,,,,,,,,,,,,,163.5,1.0,,
348,,iti,,html-keyboard-response,348,444455,0.0-1.0-476.0,0,0,18170,,,,,,67.0,,2.0,,,,,,,,,,,,,,,,,,,,164.5,1.0,,
349,,rl_choice,,html-keyboard-response,349,444878,0.0-1.0-478.0,0,0,18170,,422.0,,,68.0,68.0,68.0,2.0,easy,1500.0,1500.0,1.0,80.0,20.0,100.0,40.0,D,C,/static/Simple_RL/Stimuli/Fractals_stims/D.jpg,/static/Simple_RL/Stimuli/Fractals_stims/C.jpg,1.0,80.0,20.0,100.0,40.0,D,C,164.922,0.422,0.0,
350,,rl_choice_confirmation,,html-keyboard-response,350,445958,0.0-1.0-479.0-0.0,0,0,18170,,,,,,68.0,,2.0,,,,,,,,,,,,,,,,,,,,166.0,1.078,,
351,,isi,,html-keyboard-response,351,447460,0.0-1.0-481.0,0,0,18170,,,,,,68.0,,2.0,,,,,,,,,,,,,,,,,,,,167.5,1.5,,
352,,feedback,,html-keyboard-response,352,448462,0.0-1.0-482.0-0.0,0,0,18170,,,,,,68.0,,2.0,,,,,,,,,,,,,,,,,,,,168.5,1.0,,
353,,iti,,html-keyboard-response,353,449965,0.0-1.0-483.0,0,0,18170,,,,,,68.0,,2.0,,,,,,,,,,,,,,,,,,,,170.0,1.5,,
354,,rl_choice,,html-keyboard-response,354,450493,0.0-1.0-485.0,0,0,18170,,526.0,,,75.0,69.0,69.0,2.0,hard,2000.0,1000.0,0.0,40.0,60.0,60.0,60.0,A,B,/static/Simple_RL/Stimuli/Fractals_stims/A.jpg,/static/Simple_RL/Stimuli/Fractals_stims/B.jpg,0.0,60.0,40.0,60.0,60.0,B,A,170.526,0.526,0.0,
355,,rl_choice_confirmation,,html-keyboard-response,355,451469,0.0-1.0-486.0-0.0,0,0,18170,,,,,,69.0,,2.0,,,,,,,,,,,,,,,,,,,,171.5,0.974,,
356,,isi,,html-keyboard-response,356,452470,0.0-1.0-488.0,0,0,18170,,,,,,69.0,,2.0,,,,,,,,,,,,,,,,,,,,172.5,1.0,,
357,,feedback,,html-keyboard-response,357,453473,0.0-1.0-489.0-0.0,0,0,18170,,,,,,69.0,,2.0,,,,,,,,,,,,,,,,,,,,173.5,1.0,,
358,,iti,,html-keyboard-response,358,455474,0.0-1.0-490.0,0,0,18170,,,,,,69.0,,2.0,,,,,,,,,,,,,,,,,,,,175.5,2.0,,
359,,rl_choice,,html-keyboard-response,359,455868,0.0-1.0-492.0,0,0,18170,,392.0,,,68.0,70.0,70.0,2.0,hard,1000.0,3500.0,1.0,60.0,40.0,80.0,20.0,B,A,/static/Simple_RL/Stimuli/Fractals_stims/B.jpg,/static/Simple_RL/Stimuli/Fractals_stims/A.jpg,1.0,60.0,40.0,80.0,20.0,B,A,175.892,0.392,0.0,
360,,rl_choice_confirmation,,html-keyboard-response,360,456978,0.0-1.0-493.0-0.0,0,0,18170,,,,,,70.0,,2.0,,,,,,,,,,,,,,,,,,,,177.0,1.108,,
361,,isi,,html-keyboard-response,361,460480,0.0-1.0-495.0,0,0,18170,,,,,,70.0,,2.0,,,,,,,,,,,,,,,,,,,,180.5,3.5,,
362,,feedback,,html-keyboard-response,362,461482,0.0-1.0-496.0-0.0,0,0,18170,,,,,,70.0,,2.0,,,,,,,,,,,,,,,,,,,,181.5,1.0,,
363,,iti,,html-keyboard-response,363,462485,0.0-1.0-497.0,0,0,18170,,,,,,70.0,,2.0,,,,,,,,,,,,,,,,,,,,182.5,1.0,,
364,,rl_choice,,html-keyboard-response,364,462923,0.0-1.0-499.0,0,0,18170,,437.0,,,68.0,71.0,71.0,2.0,easy,2000.0,1000.0,1.0,80.0,20.0,100.0,20.0,D,C,/static/Simple_RL/Stimuli/Fractals_stims/D.jpg,/static/Simple_RL/Stimuli/Fractals_stims/C.jpg,1.0,80.0,20.0,100.0,20.0,D,C,182.937,0.437,0.0,
365,,rl_choice_confirmation,,html-keyboard-response,365,463988,0.0-1.0-500.0-0.0,0,0,18170,,,,,,71.0,,2.0,,,,,,,,,,,,,,,,,,,,184.0,1.063,,
366,,isi,,html-keyboard-response,366,464989,0.0-1.0-502.0,0,0,18170,,,,,,71.0,,2.0,,,,,,,,,,,,,,,,,,,,185.0,1.0,,
367,,feedback,,html-keyboard-response,367,465992,0.0-1.0-503.0-0.0,0,0,18170,,,,,,71.0,,2.0,,,,,,,,,,,,,,,,,,,,186.0,1.0,,
368,,iti,,html-keyboard-response,368,467993,0.0-1.0-504.0,0,0,18170,,,,,,71.0,,2.0,,,,,,,,,,,,,,,,,,,,188.0,2.0,,
369,,rl_choice,,html-keyboard-response,369,468333,0.0-1.0-506.0,0,0,18170,,339.0,,,75.0,72.0,72.0,2.0,easy,1500.0,1000.0,0.0,20.0,80.0,20.0,80.0,C,D,/static/Simple_RL/Stimuli/Fractals_stims/C.jpg,/static/Simple_RL/Stimuli/Fractals_stims/D.jpg,0.0,80.0,20.0,80.0,20.0,D,C,188.339,0.339,0.0,
370,,rl_choice_confirmation,,html-keyboard-response,370,469496,0.0-1.0-507.0-0.0,0,0,18170,,,,,,72.0,,2.0,,,,,,,,,,,,,,,,,,,,189.5,1.161,,
371,,isi,,html-keyboard-response,371,470498,0.0-1.0-509.0,0,0,18170,,,,,,72.0,,2.0,,,,,,,,,,,,,,,,,,,,190.5,1.0,,
372,,feedback,,html-keyboard-response,372,471501,0.0-1.0-510.0-0.0,0,0,18170,,,,,,72.0,,2.0,,,,,,,,,,,,,,,,,,,,191.5,1.0,,
373,,iti,,html-keyboard-response,373,473003,0.0-1.0-511.0,0,0,18170,,,,,,72.0,,2.0,,,,,,,,,,,,,,,,,,,,193.0,1.5,,
374,,rl_choice,,html-keyboard-response,374,473549,0.0-1.0-513.0,0,0,18170,,545.0,,,75.0,73.0,73.0,2.0,hard,1500.0,1500.0,0.0,40.0,60.0,40.0,80.0,A,B,/static/Simple_RL/Stimuli/Fractals_stims/A.jpg,/static/Simple_RL/Stimuli/Fractals_stims/B.jpg,0.0,60.0,40.0,80.0,40.0,B,A,193.545,0.545,0.0,
375,,rl_choice_confirmation,,html-keyboard-response,375,474508,0.0-1.0-514.0-0.0,0,0,18170,,,,,,73.0,,2.0,,,,,,,,,,,,,,,,,,,,194.5,0.955,,
376,,isi,,html-keyboard-response,376,476010,0.0-1.0-516.0,0,0,18170,,,,,,73.0,,2.0,,,,,,,,,,,,,,,,,,,,196.0,1.5,,
377,,feedback,,html-keyboard-response,377,477011,0.0-1.0-517.0-0.0,0,0,18170,,,,,,73.0,,2.0,,,,,,,,,,,,,,,,,,,,197.0,1.0,,
378,,iti,,html-keyboard-response,378,478513,0.0-1.0-518.0,0,0,18170,,,,,,73.0,,2.0,,,,,,,,,,,,,,,,,,,,198.5,1.5,,
379,,rl_choice,,html-keyboard-response,379,479050,0.0-1.0-520.0,0,0,18170,,536.0,,,75.0,74.0,74.0,2.0,hard,2000.0,1000.0,1.0,60.0,40.0,80.0,40.0,B,A,/static/Simple_RL/Stimuli/Fractals_stims/B.jpg,/static/Simple_RL/Stimuli/Fractals_stims/A.jpg,0.0,40.0,60.0,40.0,80.0,A,B,199.036,0.536,0.0,
380,,rl_choice_confirmation,,html-keyboard-response,380,480017,0.0-1.0-521.0-0.0,0,0,18170,,,,,,74.0,,2.0,,,,,,,,,,,,,,,,,,,,200.0,0.964,,
381,,isi,,html-keyboard-response,381,481020,0.0-1.0-523.0,0,0,18170,,,,,,74.0,,2.0,,,,,,,,,,,,,,,,,,,,201.0,1.0,,
382,,feedback,,html-keyboard-response,382,482022,0.0-1.0-524.0-0.0,0,0,18170,,,,,,74.0,,2.0,,,,,,,,,,,,,,,,,,,,202.0,1.0,,
383,,iti,,html-keyboard-response,383,484024,0.0-1.0-525.0,0,0,18170,,,,,,74.0,,2.0,,,,,,,,,,,,,,,,,,,,204.0,2.0,,
384,,rl_choice,,html-keyboard-response,384,484326,0.0-1.0-527.0,0,0,18170,,300.0,,,68.0,75.0,75.0,2.0,hard,1000.0,1500.0,1.0,60.0,40.0,80.0,40.0,B,A,/static/Simple_RL/Stimuli/Fractals_stims/B.jpg,/static/Simple_RL/Stimuli/Fractals_stims/A.jpg,1.0,60.0,40.0,80.0,40.0,B,A,204.3,0.3,0.0,
385,,rl_choice_confirmation,,html-keyboard-response,385,485528,0.0-1.0-528.0-0.0,0,0,18170,,,,,,75.0,,2.0,,,,,,,,,,,,,,,,,,,,205.5,1.2,,
386,,isi,,html-keyboard-response,386,487031,0.0-1.0-530.0,0,0,18170,,,,,,75.0,,2.0,,,,,,,,,,,,,,,,,,,,207.0,1.5,,
387,,feedback,,html-keyboard-response,387,488032,0.0-1.0-531.0-0.0,0,0,18170,,,,,,75.0,,2.0,,,,,,,,,,,,,,,,,,,,208.0,1.0,,
388,,iti,,html-keyboard-response,388,489034,0.0-1.0-532.0,0,0,18170,,,,,,75.0,,2.0,,,,,,,,,,,,,,,,,,,,209.0,1.0,,
389,,rl_choice,,html-keyboard-response,389,489259,0.0-1.0-534.0,0,0,18170,,224.0,,,68.0,76.0,76.0,2.0,hard,3500.0,1000.0,0.0,40.0,60.0,40.0,60.0,A,B,/static/Simple_RL/Stimuli/Fractals_stims/A.jpg,/static/Simple_RL/Stimuli/Fractals_stims/B.jpg,1.0,40.0,60.0,40.0,60.0,A,B,209.224,0.224,0.0,
390,,rl_choice_confirmation,,html-keyboard-response,390,490537,0.0-1.0-535.0-0.0,0,0,18170,,,,,,76.0,,2.0,,,,,,,,,,,,,,,,,,,,210.5,1.276,,
391,,isi,,html-keyboard-response,391,491539,0.0-1.0-537.0,0,0,18170,,,,,,76.0,,2.0,,,,,,,,,,,,,,,,,,,,211.5,1.0,,
392,,feedback,,html-keyboard-response,392,492541,0.0-1.0-538.0-0.0,0,0,18170,,,,,,76.0,,2.0,,,,,,,,,,,,,,,,,,,,212.5,1.0,,
393,,iti,,html-keyboard-response,393,496043,0.0-1.0-539.0,0,0,18170,,,,,,76.0,,2.0,,,,,,,,,,,,,,,,,,,,216.0,3.5,,
394,,rl_choice,,html-keyboard-response,394,496289,0.0-1.0-541.0,0,0,18170,,243.0,,,68.0,77.0,77.0,2.0,easy,1000.0,1000.0,1.0,80.0,20.0,60.0,0.0,D,C,/static/Simple_RL/Stimuli/Fractals_stims/D.jpg,/static/Simple_RL/Stimuli/Fractals_stims/C.jpg,1.0,80.0,20.0,60.0,0.0,D,C,216.243,0.243,0.0,
395,,rl_choice_confirmation,,html-keyboard-response,395,497550,0.0-1.0-542.0-0.0,0,0,18170,,,,,,77.0,,2.0,,,,,,,,,,,,,,,,,,,,217.5,1.257,,
396,,isi,,html-keyboard-response,396,498552,0.0-1.0-544.0,0,0,18170,,,,,,77.0,,2.0,,,,,,,,,,,,,,,,,,,,218.5,1.0,,
397,,feedback,,html-keyboard-response,397,499554,0.0-1.0-545.0-0.0,0,0,18170,,,,,,77.0,,2.0,,,,,,,,,,,,,,,,,,,,219.5,1.0,,
398,,iti,,html-keyboard-response,398,500556,0.0-1.0-546.0,0,0,18170,,,,,,77.0,,2.0,,,,,,,,,,,,,,,,,,,,220.5,1.0,,
399,,rl_choice,,html-keyboard-response,399,500988,0.0-1.0-548.0,0,0,18170,,430.0,,,75.0,78.0,78.0,2.0,hard,1500.0,2000.0,1.0,60.0,40.0,60.0,20.0,B,A,/static/Simple_RL/Stimuli/Fractals_stims/B.jpg,/static/Simple_RL/Stimuli/Fractals_stims/A.jpg,0.0,40.0,60.0,20.0,60.0,A,B,220.93,0.43,0.0,
400,,rl_choice_confirmation,,html-keyboard-response,400,502060,0.0-1.0-549.0-0.0,0,0,18170,,,,,,78.0,,2.0,,,,,,,,,,,,,,,,,,,,222.0,1.07,,
401,,isi,,html-keyboard-response,401,504062,0.0-1.0-551.0,0,0,18170,,,,,,78.0,,2.0,,,,,,,,,,,,,,,,,,,,224.0,2.0,,
402,,feedback,,html-keyboard-response,402,505065,0.0-1.0-552.0-0.0,0,0,18170,,,,,,78.0,,2.0,,,,,,,,,,,,,,,,,,,,225.0,1.0,,
403,,iti,,html-keyboard-response,403,506566,0.0-1.0-553.0,0,0,18170,,,,,,78.0,,2.0,,,,,,,,,,,,,,,,,,,,226.5,1.5,,
404,,rl_choice,,html-keyboard-response,404,506937,0.0-1.0-555.0,0,0,18170,,369.0,,,68.0,79.0,79.0,2.0,hard,1000.0,2000.0,1.0,60.0,40.0,40.0,60.0,B,A,/static/Simple_RL/Stimuli/Fractals_stims/B.jpg,/static/Simple_RL/Stimuli/Fractals_stims/A.jpg,1.0,60.0,40.0,40.0,60.0,B,A,226.869,0.369,0.0,
405,,rl_choice_confirmation,,html-keyboard-response,405,508070,0.0-1.0-556.0-0.0,0,0,18170,,,,,,79.0,,2.0,,,,,,,,,,,,,,,,,,,,228.0,1.131,,
406,,isi,,html-keyboard-response,406,510073,0.0-1.0-558.0,0,0,18170,,,,,,79.0,,2.0,,,,,,,,,,,,,,,,,,,,230.0,2.0,,
407,,feedback,,html-keyboard-response,407,511075,0.0-1.0-559.0-0.0,0,0,18170,,,,,,79.0,,2.0,,,,,,,,,,,,,,,,,,,,231.0,1.0,,
408,,iti,,html-keyboard-response,408,512077,0.0-1.0-560.0,0,0,18170,,,,,,79.0,,2.0,,,,,,,,,,,,,,,,,,,,232.0,1.0,,0.89
409,,final_tally,,html-keyboard-response,409,515457,0.0-2.0,0,0,18170,,3377.0,,,68.0,,,,,,,,,,,,,,,,,,,,,,,,,,
410,,debreif_intro,,html-keyboard-response,410,518486,0.0-3.0,0,0,18170,,3010.0,,,68.0,,,,,,,,,,,,,,,,,,,,,,,,,,
411,,debreif_age,,survey-text,411,522309,0.0-4.0,0,0,18170,,3823.0,"{""Q0"":""36""}",,,,,,,,,,,,,,,,,,,,,,,,,,,,
412,,debreif_gender,,survey-multi-choice,412,524012,0.0-5.0,0,0,18170,,1701.0,"{""Q0"":""Male""}",,,,,,,,,,,,,,,,,,,,,,,,,,,,
413,,debreif_dominant_hand,,survey-multi-choice,413,525482,0.0-6.0,0,0,18170,,1469.0,"{""Q0"":""Right""}",,,,,,,,,,,,,,,,,,,,,,,,,,,,
414,,debreif_native_language,,survey-multi-choice,414,527537,0.0-7.0,0,0,18170,,2053.0,"{""Q0"":""Yes""}",,,,,,,,,,,,,,,,,,,,,,,,,,,,
415,,debreif_fluency,,survey-likert,415,529930,0.0-8.0,0,0,18170,,2391.0,"{""Q0"":5}",,,,,,,,,,,,,,,,,,,,,,,,,,,,
416,,debreif_strategy_category_learning,,survey-text,416,537743,0.0-9.0,0,0,18170,,7812.0,"{""Q0"":""By their value.""}",,,,,,,,,,,,,,,,,,,,,,,,,,,,
417,,debreif_strategy_old_trials,,survey-text,417,553539,0.0-10.0,0,0,18170,,15794.0,"{""Q0"":""I tried to remember their values. Otherwise, I guessed.""}",,,,,,,,,,,,,,,,,,,,,,,,,,,,
418,,debreif_strategy_category_memory,,survey-text,418,561924,0.0-11.0,0,0,18170,,8384.0,"{""Q0"":""I tried to remember the values.""}",,,,,,,,,,,,,,,,,,,,,,,,,,,,
419,,debreif_strategy_size,,survey-text,419,577674,0.0-12.0,0,0,18170,,15749.0,"{""Q0"":""What? By the size. Like it said.""}",,,,,,,,,,,,,,,,,,,,,,,,,,,,
420,,debreif_strategy_rl,,survey-text,420,584972,0.0-13.0,0,0,18170,,7296.0,"{""Q0"":""I tried to remember the values.""}",,,,,,,,,,,,,,,,,,,,,,,,,,,,
421,,debreif_clear_instructions,,survey-text,421,587922,0.0-14.0,0,0,18170,,2949.0,"{""Q0"":""No.""}",,,,,,,,,,,,,,,,,,,,,,,,,,,,
422,,debreif_end,,html-keyboard-response,422,597725,0.0-15.0,0,0,18170,,9801.0,,,32.0,,,,,,,,,,,,,,,,,,,,,,,,,,
