,success,ttype,start_time,trial_type,trial_index,time_elapsed,internal_node_id,warning,missed_checkup,PID,view_history,rt,responses,repeat_instructions,key_press,index,trial_num,block,condition,iti,isi,high_group_on_left,left_group_value,right_group_value,left_item_value,right_item_value,left_img,right_img,left_img_path,right_img_path,onset,duration,no_response,left_chosen,chosen_group_value,unchosen_group_value,chosen_item_value,unchosen_item_value,chosen_img,unchosen_img,total_bonus_tally
0,True,full_screen,d06032022hr1612,fullscreen,0,3217,0.0-0.0,0,0,59346,,,,,,,,,,,,,,,,,,,,,,,,,,,,,,,
1,,size_instructions,,instructions,1,32684,0.0-1.0-0.0-0.0,0,0,59346,"[{""page_index"":0,""viewing_time"":6784},{""page_index"":1,""viewing_time"":5521},{""page_index"":2,""viewing_time"":3892},{""page_index"":3,""viewing_time"":1998},{""page_index"":2,""viewing_time"":7854},{""page_index"":3,""viewing_time"":1184},{""page_index"":4,""viewing_time"":941},{""page_index"":5,""viewing_time"":1290}]",29465.0,,,,,,,,,,,,,,,,,,,,,,,,,,,,,
2,,rl_comprehension_check,,survey-multi-choice,2,43008,0.0-1.0-0.0-1.0,0,0,59346,,10312.0,"{""Q0"":""True"",""Q1"":""True"",""Q2"":""D for left and K for right""}",0.0,,,,,,,,,,,,,,,,,,,,,,,,,,,
3,,,,html-keyboard-response,3,44509,0.0-1.0-1.0,0,0,59346,,1483.0,,,68.0,,,,,,,,,,,,,,,,,,,,,,,,,,
4,,rl_choice,,html-keyboard-response,4,46014,0.0-1.0-2.0,0,0,59346,,,,,,0.0,0.0,1.0,hard,1500.0,2000.0,1.0,60.0,40.0,80.0,20.0,B,A,/static/Simple_RL/Stimuli/Fractals_stims/B.jpg,/static/Simple_RL/Stimuli/Fractals_stims/A.jpg,1.5,1.5,1.0,,,,,,,,
5,,rl_choice_warning,,html-keyboard-response,5,47019,0.0-1.0-4.0-0.0,0,0,59346,,,,,,,,,,,,,,,,,,,,,2.5,1.0,,,,,,,,,
6,,isi,,html-keyboard-response,6,49023,0.0-1.0-5.0,0,0,59346,,,,,,,,,,,,,,,,,,,,,4.5,2.0,,,,,,,,,
7,,iti,,html-keyboard-response,7,50527,0.0-1.0-7.0,0,0,59346,,,,,,,,,,,,,,,,,,,,,6.0,1.5,,,,,,,,,
8,,rl_choice,,html-keyboard-response,8,51320,0.0-1.0-9.0,0,0,59346,,790.0,,,75.0,1.0,1.0,1.0,easy,1500.0,3000.0,1.0,80.0,20.0,60.0,40.0,D,C,/static/Simple_RL/Stimuli/Fractals_stims/D.jpg,/static/Simple_RL/Stimuli/Fractals_stims/C.jpg,6.79,0.79,0.0,0.0,20.0,80.0,40.0,60.0,C,D,
9,,rl_choice_confirmation,,html-keyboard-response,9,52034,0.0-1.0-10.0-0.0,0,0,59346,,,,,,1.0,,,,,,,,,,,,,,,7.5,0.71,,,,,,,,,
10,,isi,,html-keyboard-response,10,55036,0.0-1.0-12.0,0,0,59346,,,,,,,,,,,,,,,,,,,,,10.5,3.0,,,,,,,,,
11,,feedback,,html-keyboard-response,11,56042,0.0-1.0-13.0-0.0,0,0,59346,,,,,,1.0,,,,,,,,,,,,,,,11.5,1.0,,,,,,,,,
12,,iti,,html-keyboard-response,12,57545,0.0-1.0-14.0,0,0,59346,,,,,,,,,,,,,,,,,,,,,13.0,1.5,,,,,,,,,
13,,rl_choice,,html-keyboard-response,13,57865,0.0-1.0-16.0,0,0,59346,,317.0,,,68.0,2.0,2.0,1.0,hard,2000.0,3000.0,0.0,40.0,60.0,40.0,40.0,A,B,/static/Simple_RL/Stimuli/Fractals_stims/A.jpg,/static/Simple_RL/Stimuli/Fractals_stims/B.jpg,13.317,0.317,0.0,1.0,40.0,60.0,40.0,40.0,A,B,
14,,rl_choice_confirmation,,html-keyboard-response,14,59052,0.0-1.0-17.0-0.0,0,0,59346,,,,,,2.0,,,,,,,,,,,,,,,14.5,1.183,,,,,,,,,
15,,isi,,html-keyboard-response,15,62057,0.0-1.0-19.0,0,0,59346,,,,,,,,,,,,,,,,,,,,,17.5,3.0,,,,,,,,,
16,,feedback,,html-keyboard-response,16,63062,0.0-1.0-20.0-0.0,0,0,59346,,,,,,2.0,,,,,,,,,,,,,,,18.5,1.0,,,,,,,,,
17,,iti,,html-keyboard-response,17,65065,0.0-1.0-21.0,0,0,59346,,,,,,,,,,,,,,,,,,,,,20.5,2.0,,,,,,,,,
18,,rl_choice,,html-keyboard-response,18,65518,0.0-1.0-23.0,0,0,59346,,450.0,,,75.0,3.0,3.0,1.0,hard,1000.0,1000.0,0.0,40.0,60.0,40.0,40.0,A,B,/static/Simple_RL/Stimuli/Fractals_stims/A.jpg,/static/Simple_RL/Stimuli/Fractals_stims/B.jpg,20.95,0.45,0.0,0.0,60.0,40.0,40.0,40.0,B,A,
19,,rl_choice_confirmation,,html-keyboard-response,19,66571,0.0-1.0-24.0-0.0,0,0,59346,,,,,,3.0,,,,,,,,,,,,,,,22.0,1.05,,,,,,,,,
20,,isi,,html-keyboard-response,20,67574,0.0-1.0-26.0,0,0,59346,,,,,,,,,,,,,,,,,,,,,23.0,1.0,,,,,,,,,
21,,feedback,,html-keyboard-response,21,68577,0.0-1.0-27.0-0.0,0,0,59346,,,,,,3.0,,,,,,,,,,,,,,,24.0,1.0,,,,,,,,,
22,,iti,,html-keyboard-response,22,69581,0.0-1.0-28.0,0,0,59346,,,,,,,,,,,,,,,,,,,,,25.0,1.0,,,,,,,,,
23,,rl_choice,,html-keyboard-response,23,70083,0.0-1.0-30.0,0,0,59346,,500.0,,,68.0,4.0,4.0,1.0,hard,3500.0,3500.0,1.0,60.0,40.0,60.0,20.0,B,A,/static/Simple_RL/Stimuli/Fractals_stims/B.jpg,/static/Simple_RL/Stimuli/Fractals_stims/A.jpg,25.5,0.5,0.0,1.0,60.0,40.0,60.0,20.0,B,A,
24,,rl_choice_confirmation,,html-keyboard-response,24,71088,0.0-1.0-31.0-0.0,0,0,59346,,,,,,4.0,,,,,,,,,,,,,,,26.5,1.0,,,,,,,,,
25,,isi,,html-keyboard-response,25,74595,0.0-1.0-33.0,0,0,59346,,,,,,,,,,,,,,,,,,,,,30.0,3.5,,,,,,,,,
26,,feedback,,html-keyboard-response,26,75598,0.0-1.0-34.0-0.0,0,0,59346,,,,,,4.0,,,,,,,,,,,,,,,31.0,1.0,,,,,,,,,
27,,iti,,html-keyboard-response,27,79102,0.0-1.0-35.0,0,0,59346,,,,,,,,,,,,,,,,,,,,,34.5,3.5,,,,,,,,,
28,,rl_choice,,html-keyboard-response,28,79396,0.0-1.0-37.0,0,0,59346,,291.0,,,75.0,5.0,5.0,1.0,hard,1500.0,1000.0,0.0,40.0,60.0,20.0,60.0,A,B,/static/Simple_RL/Stimuli/Fractals_stims/A.jpg,/static/Simple_RL/Stimuli/Fractals_stims/B.jpg,34.791,0.291,0.0,0.0,60.0,40.0,60.0,20.0,B,A,
29,,rl_choice_confirmation,,html-keyboard-response,29,80609,0.0-1.0-38.0-0.0,0,0,59346,,,,,,5.0,,,,,,,,,,,,,,,36.0,1.209,,,,,,,,,
30,,isi,,html-keyboard-response,30,81612,0.0-1.0-40.0,0,0,59346,,,,,,,,,,,,,,,,,,,,,37.0,1.0,,,,,,,,,
31,,feedback,,html-keyboard-response,31,82615,0.0-1.0-41.0-0.0,0,0,59346,,,,,,5.0,,,,,,,,,,,,,,,38.0,1.0,,,,,,,,,
32,,iti,,html-keyboard-response,32,84117,0.0-1.0-42.0,0,0,59346,,,,,,,,,,,,,,,,,,,,,39.5,1.5,,,,,,,,,
33,,rl_choice,,html-keyboard-response,33,84615,0.0-1.0-44.0,0,0,59346,,495.0,,,68.0,6.0,6.0,1.0,hard,1000.0,1000.0,0.0,40.0,60.0,40.0,60.0,A,B,/static/Simple_RL/Stimuli/Fractals_stims/A.jpg,/static/Simple_RL/Stimuli/Fractals_stims/B.jpg,39.995,0.495,0.0,1.0,40.0,60.0,40.0,60.0,A,B,
34,,rl_choice_confirmation,,html-keyboard-response,34,85624,0.0-1.0-45.0-0.0,0,0,59346,,,,,,6.0,,,,,,,,,,,,,,,41.0,1.005,,,,,,,,,
35,,isi,,html-keyboard-response,35,86627,0.0-1.0-47.0,0,0,59346,,,,,,,,,,,,,,,,,,,,,42.0,1.0,,,,,,,,,
36,,feedback,,html-keyboard-response,36,87631,0.0-1.0-48.0-0.0,0,0,59346,,,,,,6.0,,,,,,,,,,,,,,,43.0,1.0,,,,,,,,,
37,,iti,,html-keyboard-response,37,88633,0.0-1.0-49.0,0,0,59346,,,,,,,,,,,,,,,,,,,,,44.0,1.0,,,,,,,,,
38,,rl_choice,,html-keyboard-response,38,89206,0.0-1.0-51.0,0,0,59346,,570.0,,,68.0,7.0,7.0,1.0,hard,3000.0,1500.0,0.0,40.0,60.0,20.0,40.0,A,B,/static/Simple_RL/Stimuli/Fractals_stims/A.jpg,/static/Simple_RL/Stimuli/Fractals_stims/B.jpg,44.57,0.57,0.0,1.0,40.0,60.0,20.0,40.0,A,B,
39,,rl_choice_confirmation,,html-keyboard-response,39,90141,0.0-1.0-52.0-0.0,0,0,59346,,,,,,7.0,,,,,,,,,,,,,,,45.5,0.93,,,,,,,,,
40,,isi,,html-keyboard-response,40,91644,0.0-1.0-54.0,0,0,59346,,,,,,,,,,,,,,,,,,,,,47.0,1.5,,,,,,,,,
41,,feedback,,html-keyboard-response,41,92647,0.0-1.0-55.0-0.0,0,0,59346,,,,,,7.0,,,,,,,,,,,,,,,48.0,1.0,,,,,,,,,
42,,iti,,html-keyboard-response,42,95649,0.0-1.0-56.0,0,0,59346,,,,,,,,,,,,,,,,,,,,,51.0,3.0,,,,,,,,,
43,,rl_choice,,html-keyboard-response,43,96095,0.0-1.0-58.0,0,0,59346,,443.0,,,75.0,8.0,8.0,1.0,hard,1000.0,2000.0,1.0,60.0,40.0,60.0,60.0,B,A,/static/Simple_RL/Stimuli/Fractals_stims/B.jpg,/static/Simple_RL/Stimuli/Fractals_stims/A.jpg,51.443,0.443,0.0,0.0,40.0,60.0,60.0,60.0,A,B,
44,,rl_choice_confirmation,,html-keyboard-response,44,97155,0.0-1.0-59.0-0.0,0,0,59346,,,,,,8.0,,,,,,,,,,,,,,,52.5,1.057,,,,,,,,,
45,,isi,,html-keyboard-response,45,99171,0.0-1.0-61.0,0,0,59346,,,,,,,,,,,,,,,,,,,,,54.5,2.0,,,,,,,,,
46,,feedback,,html-keyboard-response,46,100176,0.0-1.0-62.0-0.0,0,0,59346,,,,,,8.0,,,,,,,,,,,,,,,55.5,1.0,,,,,,,,,
47,,iti,,html-keyboard-response,47,101179,0.0-1.0-63.0,0,0,59346,,,,,,,,,,,,,,,,,,,,,56.5,1.0,,,,,,,,,
48,,rl_choice,,html-keyboard-response,48,101640,0.0-1.0-65.0,0,0,59346,,456.0,,,68.0,9.0,9.0,1.0,hard,2000.0,2000.0,1.0,60.0,40.0,80.0,60.0,B,A,/static/Simple_RL/Stimuli/Fractals_stims/B.jpg,/static/Simple_RL/Stimuli/Fractals_stims/A.jpg,56.956,0.456,0.0,1.0,60.0,40.0,80.0,60.0,B,A,
49,,rl_choice_confirmation,,html-keyboard-response,49,102687,0.0-1.0-66.0-0.0,0,0,59346,,,,,,9.0,,,,,,,,,,,,,,,58.0,1.044,,,,,,,,,
50,,isi,,html-keyboard-response,50,104689,0.0-1.0-68.0,0,0,59346,,,,,,,,,,,,,,,,,,,,,60.0,2.0,,,,,,,,,
51,,feedback,,html-keyboard-response,51,105693,0.0-1.0-69.0-0.0,0,0,59346,,,,,,9.0,,,,,,,,,,,,,,,61.0,1.0,,,,,,,,,
52,,iti,,html-keyboard-response,52,107697,0.0-1.0-70.0,0,0,59346,,,,,,,,,,,,,,,,,,,,,63.0,2.0,,,,,,,,,
53,,rl_choice,,html-keyboard-response,53,108100,0.0-1.0-72.0,0,0,59346,,401.0,,,75.0,10.0,10.0,1.0,hard,2000.0,2000.0,0.0,40.0,60.0,20.0,60.0,A,B,/static/Simple_RL/Stimuli/Fractals_stims/A.jpg,/static/Simple_RL/Stimuli/Fractals_stims/B.jpg,63.401,0.401,0.0,0.0,60.0,40.0,60.0,20.0,B,A,
54,,rl_choice_confirmation,,html-keyboard-response,54,109201,0.0-1.0-73.0-0.0,0,0,59346,,,,,,10.0,,,,,,,,,,,,,,,64.5,1.099,,,,,,,,,
55,,isi,,html-keyboard-response,55,111204,0.0-1.0-75.0,0,0,59346,,,,,,,,,,,,,,,,,,,,,66.5,2.0,,,,,,,,,
56,,feedback,,html-keyboard-response,56,112207,0.0-1.0-76.0-0.0,0,0,59346,,,,,,10.0,,,,,,,,,,,,,,,67.5,1.0,,,,,,,,,
57,,iti,,html-keyboard-response,57,114211,0.0-1.0-77.0,0,0,59346,,,,,,,,,,,,,,,,,,,,,69.5,2.0,,,,,,,,,
58,,rl_choice,,html-keyboard-response,58,114607,0.0-1.0-79.0,0,0,59346,,393.0,,,68.0,11.0,11.0,1.0,easy,1500.0,2000.0,1.0,80.0,20.0,100.0,20.0,D,C,/static/Simple_RL/Stimuli/Fractals_stims/D.jpg,/static/Simple_RL/Stimuli/Fractals_stims/C.jpg,69.893,0.393,0.0,1.0,80.0,20.0,100.0,20.0,D,C,
59,,rl_choice_confirmation,,html-keyboard-response,59,115718,0.0-1.0-80.0-0.0,0,0,59346,,,,,,11.0,,,,,,,,,,,,,,,71.0,1.107,,,,,,,,,
60,,isi,,html-keyboard-response,60,117720,0.0-1.0-82.0,0,0,59346,,,,,,,,,,,,,,,,,,,,,73.0,2.0,,,,,,,,,
61,,feedback,,html-keyboard-response,61,118723,0.0-1.0-83.0-0.0,0,0,59346,,,,,,11.0,,,,,,,,,,,,,,,74.0,1.0,,,,,,,,,
62,,iti,,html-keyboard-response,62,120227,0.0-1.0-84.0,0,0,59346,,,,,,,,,,,,,,,,,,,,,75.5,1.5,,,,,,,,,
63,,rl_choice,,html-keyboard-response,63,120578,0.0-1.0-86.0,0,0,59346,,350.0,,,75.0,12.0,12.0,1.0,hard,1000.0,1500.0,1.0,60.0,40.0,40.0,20.0,B,A,/static/Simple_RL/Stimuli/Fractals_stims/B.jpg,/static/Simple_RL/Stimuli/Fractals_stims/A.jpg,75.85,0.35,0.0,0.0,40.0,60.0,20.0,40.0,A,B,
64,,rl_choice_confirmation,,html-keyboard-response,64,121732,0.0-1.0-87.0-0.0,0,0,59346,,,,,,12.0,,,,,,,,,,,,,,,77.0,1.15,,,,,,,,,
65,,isi,,html-keyboard-response,65,123235,0.0-1.0-89.0,0,0,59346,,,,,,,,,,,,,,,,,,,,,78.5,1.5,,,,,,,,,
66,,feedback,,html-keyboard-response,66,124238,0.0-1.0-90.0-0.0,0,0,59346,,,,,,12.0,,,,,,,,,,,,,,,79.5,1.0,,,,,,,,,
67,,iti,,html-keyboard-response,67,125241,0.0-1.0-91.0,0,0,59346,,,,,,,,,,,,,,,,,,,,,80.5,1.0,,,,,,,,,
68,,rl_choice,,html-keyboard-response,68,125530,0.0-1.0-93.0,0,0,59346,,286.0,,,68.0,13.0,13.0,1.0,easy,1500.0,1500.0,1.0,80.0,20.0,100.0,40.0,D,C,/static/Simple_RL/Stimuli/Fractals_stims/D.jpg,/static/Simple_RL/Stimuli/Fractals_stims/C.jpg,80.786,0.286,0.0,1.0,80.0,20.0,100.0,40.0,D,C,
69,,rl_choice_confirmation,,html-keyboard-response,69,126749,0.0-1.0-94.0-0.0,0,0,59346,,,,,,13.0,,,,,,,,,,,,,,,82.0,1.214,,,,,,,,,
70,,isi,,html-keyboard-response,70,128252,0.0-1.0-96.0,0,0,59346,,,,,,,,,,,,,,,,,,,,,83.5,1.5,,,,,,,,,
71,,feedback,,html-keyboard-response,71,129255,0.0-1.0-97.0-0.0,0,0,59346,,,,,,13.0,,,,,,,,,,,,,,,84.5,1.0,,,,,,,,,
72,,iti,,html-keyboard-response,72,130757,0.0-1.0-98.0,0,0,59346,,,,,,,,,,,,,,,,,,,,,86.0,1.5,,,,,,,,,
73,,rl_choice,,html-keyboard-response,73,131077,0.0-1.0-100.0,0,0,59346,,316.0,,,68.0,14.0,14.0,1.0,easy,1000.0,1000.0,0.0,20.0,80.0,0.0,60.0,C,D,/static/Simple_RL/Stimuli/Fractals_stims/C.jpg,/static/Simple_RL/Stimuli/Fractals_stims/D.jpg,86.316,0.316,0.0,1.0,20.0,80.0,0.0,60.0,C,D,
74,,rl_choice_confirmation,,html-keyboard-response,74,132267,0.0-1.0-101.0-0.0,0,0,59346,,,,,,14.0,,,,,,,,,,,,,,,87.5,1.184,,,,,,,,,
75,,isi,,html-keyboard-response,75,133270,0.0-1.0-103.0,0,0,59346,,,,,,,,,,,,,,,,,,,,,88.5,1.0,,,,,,,,,
76,,feedback,,html-keyboard-response,76,134274,0.0-1.0-104.0-0.0,0,0,59346,,,,,,14.0,,,,,,,,,,,,,,,89.5,1.0,,,,,,,,,
77,,iti,,html-keyboard-response,77,135277,0.0-1.0-105.0,0,0,59346,,,,,,,,,,,,,,,,,,,,,90.5,1.0,,,,,,,,,
78,,rl_choice,,html-keyboard-response,78,135585,0.0-1.0-107.0,0,0,59346,,306.0,,,75.0,15.0,15.0,1.0,easy,1000.0,2000.0,0.0,20.0,80.0,20.0,100.0,C,D,/static/Simple_RL/Stimuli/Fractals_stims/C.jpg,/static/Simple_RL/Stimuli/Fractals_stims/D.jpg,90.806,0.306,0.0,0.0,80.0,20.0,100.0,20.0,D,C,
79,,rl_choice_confirmation,,html-keyboard-response,79,136783,0.0-1.0-108.0-0.0,0,0,59346,,,,,,15.0,,,,,,,,,,,,,,,92.0,1.194,,,,,,,,,
80,,isi,,html-keyboard-response,80,138786,0.0-1.0-110.0,0,0,59346,,,,,,,,,,,,,,,,,,,,,94.0,2.0,,,,,,,,,
81,,feedback,,html-keyboard-response,81,139792,0.0-1.0-111.0-0.0,0,0,59346,,,,,,15.0,,,,,,,,,,,,,,,95.0,1.0,,,,,,,,,
82,,iti,,html-keyboard-response,82,140795,0.0-1.0-112.0,0,0,59346,,,,,,,,,,,,,,,,,,,,,96.0,1.0,,,,,,,,,
83,,rl_choice,,html-keyboard-response,83,141176,0.0-1.0-114.0,0,0,59346,,379.0,,,68.0,16.0,16.0,1.0,hard,1000.0,1000.0,1.0,60.0,40.0,60.0,20.0,B,A,/static/Simple_RL/Stimuli/Fractals_stims/B.jpg,/static/Simple_RL/Stimuli/Fractals_stims/A.jpg,96.379,0.379,0.0,1.0,60.0,40.0,60.0,20.0,B,A,
84,,rl_choice_confirmation,,html-keyboard-response,84,142301,0.0-1.0-115.0-0.0,0,0,59346,,,,,,16.0,,,,,,,,,,,,,,,97.5,1.121,,,,,,,,,
85,,isi,,html-keyboard-response,85,143304,0.0-1.0-117.0,0,0,59346,,,,,,,,,,,,,,,,,,,,,98.5,1.0,,,,,,,,,
86,,feedback,,html-keyboard-response,86,144308,0.0-1.0-118.0-0.0,0,0,59346,,,,,,16.0,,,,,,,,,,,,,,,99.5,1.0,,,,,,,,,
87,,iti,,html-keyboard-response,87,145311,0.0-1.0-119.0,0,0,59346,,,,,,,,,,,,,,,,,,,,,100.5,1.0,,,,,,,,,
88,,rl_choice,,html-keyboard-response,88,145859,0.0-1.0-121.0,0,0,59346,,545.0,,,68.0,17.0,17.0,1.0,easy,1000.0,2000.0,0.0,20.0,80.0,40.0,100.0,C,D,/static/Simple_RL/Stimuli/Fractals_stims/C.jpg,/static/Simple_RL/Stimuli/Fractals_stims/D.jpg,101.045,0.545,0.0,1.0,20.0,80.0,40.0,100.0,C,D,
89,,rl_choice_confirmation,,html-keyboard-response,89,146818,0.0-1.0-122.0-0.0,0,0,59346,,,,,,17.0,,,,,,,,,,,,,,,102.0,0.955,,,,,,,,,
90,,isi,,html-keyboard-response,90,148822,0.0-1.0-124.0,0,0,59346,,,,,,,,,,,,,,,,,,,,,104.0,2.0,,,,,,,,,
91,,feedback,,html-keyboard-response,91,149826,0.0-1.0-125.0-0.0,0,0,59346,,,,,,17.0,,,,,,,,,,,,,,,105.0,1.0,,,,,,,,,
92,,iti,,html-keyboard-response,92,150829,0.0-1.0-126.0,0,0,59346,,,,,,,,,,,,,,,,,,,,,106.0,1.0,,,,,,,,,
93,,rl_choice,,html-keyboard-response,93,151505,0.0-1.0-128.0,0,0,59346,,673.0,,,75.0,18.0,18.0,1.0,easy,2000.0,1000.0,0.0,20.0,80.0,0.0,100.0,C,D,/static/Simple_RL/Stimuli/Fractals_stims/C.jpg,/static/Simple_RL/Stimuli/Fractals_stims/D.jpg,106.673,0.673,0.0,0.0,80.0,20.0,100.0,0.0,D,C,
94,,rl_choice_confirmation,,html-keyboard-response,94,152336,0.0-1.0-129.0-0.0,0,0,59346,,,,,,18.0,,,,,,,,,,,,,,,107.5,0.827,,,,,,,,,
95,,isi,,html-keyboard-response,95,153337,0.0-1.0-131.0,0,0,59346,,,,,,,,,,,,,,,,,,,,,108.5,1.0,,,,,,,,,
96,,feedback,,html-keyboard-response,96,154342,0.0-1.0-132.0-0.0,0,0,59346,,,,,,18.0,,,,,,,,,,,,,,,109.5,1.0,,,,,,,,,
97,,iti,,html-keyboard-response,97,156344,0.0-1.0-133.0,0,0,59346,,,,,,,,,,,,,,,,,,,,,111.5,2.0,,,,,,,,,
98,,rl_choice,,html-keyboard-response,98,156867,0.0-1.0-135.0,0,0,59346,,521.0,,,68.0,19.0,19.0,1.0,hard,1500.0,1500.0,0.0,40.0,60.0,60.0,60.0,A,B,/static/Simple_RL/Stimuli/Fractals_stims/A.jpg,/static/Simple_RL/Stimuli/Fractals_stims/B.jpg,112.021,0.521,0.0,1.0,40.0,60.0,60.0,60.0,A,B,
99,,rl_choice_confirmation,,html-keyboard-response,99,157851,0.0-1.0-136.0-0.0,0,0,59346,,,,,,19.0,,,,,,,,,,,,,,,113.0,0.979,,,,,,,,,
100,,isi,,html-keyboard-response,100,159353,0.0-1.0-138.0,0,0,59346,,,,,,,,,,,,,,,,,,,,,114.5,1.5,,,,,,,,,
101,,feedback,,html-keyboard-response,101,160358,0.0-1.0-139.0-0.0,0,0,59346,,,,,,19.0,,,,,,,,,,,,,,,115.5,1.0,,,,,,,,,
102,,iti,,html-keyboard-response,102,161861,0.0-1.0-140.0,0,0,59346,,,,,,,,,,,,,,,,,,,,,117.0,1.5,,,,,,,,,
103,,rl_choice,,html-keyboard-response,103,162260,0.0-1.0-142.0,0,0,59346,,396.0,,,75.0,20.0,20.0,1.0,easy,1000.0,1000.0,1.0,80.0,20.0,60.0,40.0,D,C,/static/Simple_RL/Stimuli/Fractals_stims/D.jpg,/static/Simple_RL/Stimuli/Fractals_stims/C.jpg,117.396,0.396,0.0,0.0,20.0,80.0,40.0,60.0,C,D,
104,,rl_choice_confirmation,,html-keyboard-response,104,163367,0.0-1.0-143.0-0.0,0,0,59346,,,,,,20.0,,,,,,,,,,,,,,,118.5,1.104,,,,,,,,,
105,,isi,,html-keyboard-response,105,164369,0.0-1.0-145.0,0,0,59346,,,,,,,,,,,,,,,,,,,,,119.5,1.0,,,,,,,,,
106,,feedback,,html-keyboard-response,106,165373,0.0-1.0-146.0-0.0,0,0,59346,,,,,,20.0,,,,,,,,,,,,,,,120.5,1.0,,,,,,,,,
107,,iti,,html-keyboard-response,107,166376,0.0-1.0-147.0,0,0,59346,,,,,,,,,,,,,,,,,,,,,121.5,1.0,,,,,,,,,
108,,rl_choice,,html-keyboard-response,108,166732,0.0-1.0-149.0,0,0,59346,,353.0,,,68.0,21.0,21.0,1.0,easy,3500.0,1000.0,1.0,80.0,20.0,60.0,20.0,D,C,/static/Simple_RL/Stimuli/Fractals_stims/D.jpg,/static/Simple_RL/Stimuli/Fractals_stims/C.jpg,121.853,0.353,0.0,1.0,80.0,20.0,60.0,20.0,D,C,
109,,rl_choice_confirmation,,html-keyboard-response,109,167883,0.0-1.0-150.0-0.0,0,0,59346,,,,,,21.0,,,,,,,,,,,,,,,123.0,1.147,,,,,,,,,
110,,isi,,html-keyboard-response,110,168885,0.0-1.0-152.0,0,0,59346,,,,,,,,,,,,,,,,,,,,,124.0,1.0,,,,,,,,,
111,,feedback,,html-keyboard-response,111,169888,0.0-1.0-153.0-0.0,0,0,59346,,,,,,21.0,,,,,,,,,,,,,,,125.0,1.0,,,,,,,,,
112,,iti,,html-keyboard-response,112,173395,0.0-1.0-154.0,0,0,59346,,,,,,,,,,,,,,,,,,,,,128.5,3.5,,,,,,,,,
113,,rl_choice,,html-keyboard-response,113,173771,0.0-1.0-156.0,0,0,59346,,373.0,,,68.0,22.0,22.0,1.0,easy,1500.0,1500.0,1.0,80.0,20.0,80.0,20.0,D,C,/static/Simple_RL/Stimuli/Fractals_stims/D.jpg,/static/Simple_RL/Stimuli/Fractals_stims/C.jpg,128.873,0.373,0.0,1.0,80.0,20.0,80.0,20.0,D,C,
114,,rl_choice_confirmation,,html-keyboard-response,114,174902,0.0-1.0-157.0-0.0,0,0,59346,,,,,,22.0,,,,,,,,,,,,,,,130.0,1.127,,,,,,,,,
115,,isi,,html-keyboard-response,115,176405,0.0-1.0-159.0,0,0,59346,,,,,,,,,,,,,,,,,,,,,131.5,1.5,,,,,,,,,
116,,feedback,,html-keyboard-response,116,177409,0.0-1.0-160.0-0.0,0,0,59346,,,,,,22.0,,,,,,,,,,,,,,,132.5,1.0,,,,,,,,,
117,,iti,,html-keyboard-response,117,178912,0.0-1.0-161.0,0,0,59346,,,,,,,,,,,,,,,,,,,,,134.0,1.5,,,,,,,,,
118,,rl_choice,,html-keyboard-response,118,179332,0.0-1.0-163.0,0,0,59346,,417.0,,,75.0,23.0,23.0,1.0,easy,2000.0,1500.0,0.0,20.0,80.0,20.0,60.0,C,D,/static/Simple_RL/Stimuli/Fractals_stims/C.jpg,/static/Simple_RL/Stimuli/Fractals_stims/D.jpg,134.417,0.417,0.0,0.0,80.0,20.0,60.0,20.0,D,C,
119,,rl_choice_confirmation,,html-keyboard-response,119,180419,0.0-1.0-164.0-0.0,0,0,59346,,,,,,23.0,,,,,,,,,,,,,,,135.5,1.083,,,,,,,,,
120,,isi,,html-keyboard-response,120,181925,0.0-1.0-166.0,0,0,59346,,,,,,,,,,,,,,,,,,,,,137.0,1.5,,,,,,,,,
121,,feedback,,html-keyboard-response,121,182930,0.0-1.0-167.0-0.0,0,0,59346,,,,,,23.0,,,,,,,,,,,,,,,138.0,1.0,,,,,,,,,
122,,iti,,html-keyboard-response,122,184933,0.0-1.0-168.0,0,0,59346,,,,,,,,,,,,,,,,,,,,,140.0,2.0,,,,,,,,,
123,,rl_choice,,html-keyboard-response,123,185331,0.0-1.0-170.0,0,0,59346,,396.0,,,68.0,24.0,24.0,1.0,hard,1000.0,1000.0,0.0,40.0,60.0,60.0,80.0,A,B,/static/Simple_RL/Stimuli/Fractals_stims/A.jpg,/static/Simple_RL/Stimuli/Fractals_stims/B.jpg,140.396,0.396,0.0,1.0,40.0,60.0,60.0,80.0,A,B,
124,,rl_choice_confirmation,,html-keyboard-response,124,186438,0.0-1.0-171.0-0.0,0,0,59346,,,,,,24.0,,,,,,,,,,,,,,,141.5,1.104,,,,,,,,,
125,,isi,,html-keyboard-response,125,187442,0.0-1.0-173.0,0,0,59346,,,,,,,,,,,,,,,,,,,,,142.5,1.0,,,,,,,,,
126,,feedback,,html-keyboard-response,126,188445,0.0-1.0-174.0-0.0,0,0,59346,,,,,,24.0,,,,,,,,,,,,,,,143.5,1.0,,,,,,,,,
127,,iti,,html-keyboard-response,127,189448,0.0-1.0-175.0,0,0,59346,,,,,,,,,,,,,,,,,,,,,144.5,1.0,,,,,,,,,
128,,rl_choice,,html-keyboard-response,128,190180,0.0-1.0-177.0,0,0,59346,,730.0,,,68.0,25.0,25.0,1.0,easy,1000.0,1500.0,0.0,20.0,80.0,20.0,60.0,C,D,/static/Simple_RL/Stimuli/Fractals_stims/C.jpg,/static/Simple_RL/Stimuli/Fractals_stims/D.jpg,145.23,0.73,0.0,1.0,20.0,80.0,20.0,60.0,C,D,
129,,rl_choice_confirmation,,html-keyboard-response,129,190954,0.0-1.0-178.0-0.0,0,0,59346,,,,,,25.0,,,,,,,,,,,,,,,146.0,0.77,,,,,,,,,
130,,isi,,html-keyboard-response,130,192457,0.0-1.0-180.0,0,0,59346,,,,,,,,,,,,,,,,,,,,,147.5,1.5,,,,,,,,,
131,,feedback,,html-keyboard-response,131,193462,0.0-1.0-181.0-0.0,0,0,59346,,,,,,25.0,,,,,,,,,,,,,,,148.5,1.0,,,,,,,,,
132,,iti,,html-keyboard-response,132,194465,0.0-1.0-182.0,0,0,59346,,,,,,,,,,,,,,,,,,,,,149.5,1.0,,,,,,,,,
133,,rl_choice,,html-keyboard-response,133,194978,0.0-1.0-184.0,0,0,59346,,510.0,,,68.0,26.0,26.0,1.0,easy,2000.0,1000.0,0.0,20.0,80.0,40.0,100.0,C,D,/static/Simple_RL/Stimuli/Fractals_stims/C.jpg,/static/Simple_RL/Stimuli/Fractals_stims/D.jpg,150.01,0.51,0.0,1.0,20.0,80.0,40.0,100.0,C,D,
134,,rl_choice_confirmation,,html-keyboard-response,134,195972,0.0-1.0-185.0-0.0,0,0,59346,,,,,,26.0,,,,,,,,,,,,,,,151.0,0.99,,,,,,,,,
135,,isi,,html-keyboard-response,135,196975,0.0-1.0-187.0,0,0,59346,,,,,,,,,,,,,,,,,,,,,152.0,1.0,,,,,,,,,
136,,feedback,,html-keyboard-response,136,197980,0.0-1.0-188.0-0.0,0,0,59346,,,,,,26.0,,,,,,,,,,,,,,,153.0,1.0,,,,,,,,,
137,,iti,,html-keyboard-response,137,199982,0.0-1.0-189.0,0,0,59346,,,,,,,,,,,,,,,,,,,,,155.0,2.0,,,,,,,,,
138,,rl_choice,,html-keyboard-response,138,200625,0.0-1.0-191.0,0,0,59346,,640.0,,,75.0,27.0,27.0,1.0,hard,1000.0,1000.0,1.0,60.0,40.0,60.0,20.0,B,A,/static/Simple_RL/Stimuli/Fractals_stims/B.jpg,/static/Simple_RL/Stimuli/Fractals_stims/A.jpg,155.64,0.64,0.0,0.0,40.0,60.0,20.0,60.0,A,B,
139,,rl_choice_confirmation,,html-keyboard-response,139,201488,0.0-1.0-192.0-0.0,0,0,59346,,,,,,27.0,,,,,,,,,,,,,,,156.5,0.86,,,,,,,,,
140,,isi,,html-keyboard-response,140,202491,0.0-1.0-194.0,0,0,59346,,,,,,,,,,,,,,,,,,,,,157.5,1.0,,,,,,,,,
141,,feedback,,html-keyboard-response,141,203494,0.0-1.0-195.0-0.0,0,0,59346,,,,,,27.0,,,,,,,,,,,,,,,158.5,1.0,,,,,,,,,
142,,iti,,html-keyboard-response,142,204497,0.0-1.0-196.0,0,0,59346,,,,,,,,,,,,,,,,,,,,,159.5,1.0,,,,,,,,,
143,,rl_choice,,html-keyboard-response,143,204585,0.0-1.0-198.0,0,0,59346,,85.0,,,68.0,28.0,28.0,1.0,easy,1500.0,1500.0,1.0,80.0,20.0,80.0,0.0,D,C,/static/Simple_RL/Stimuli/Fractals_stims/D.jpg,/static/Simple_RL/Stimuli/Fractals_stims/C.jpg,159.585,0.085,0.0,1.0,80.0,20.0,80.0,0.0,D,C,
144,,rl_choice_confirmation,,html-keyboard-response,144,206004,0.0-1.0-199.0-0.0,0,0,59346,,,,,,28.0,,,,,,,,,,,,,,,161.0,1.415,,,,,,,,,
145,,isi,,html-keyboard-response,145,207507,0.0-1.0-201.0,0,0,59346,,,,,,,,,,,,,,,,,,,,,162.5,1.5,,,,,,,,,
146,,feedback,,html-keyboard-response,146,208511,0.0-1.0-202.0-0.0,0,0,59346,,,,,,28.0,,,,,,,,,,,,,,,163.5,1.0,,,,,,,,,
147,,iti,,html-keyboard-response,147,210014,0.0-1.0-203.0,0,0,59346,,,,,,,,,,,,,,,,,,,,,165.0,1.5,,,,,,,,,
148,,rl_choice,,html-keyboard-response,148,210420,0.0-1.0-205.0,0,0,59346,,403.0,,,68.0,29.0,29.0,1.0,easy,2000.0,2000.0,0.0,20.0,80.0,20.0,80.0,C,D,/static/Simple_RL/Stimuli/Fractals_stims/C.jpg,/static/Simple_RL/Stimuli/Fractals_stims/D.jpg,165.403,0.403,0.0,1.0,20.0,80.0,20.0,80.0,C,D,
149,,rl_choice_confirmation,,html-keyboard-response,149,211522,0.0-1.0-206.0-0.0,0,0,59346,,,,,,29.0,,,,,,,,,,,,,,,166.5,1.097,,,,,,,,,
150,,isi,,html-keyboard-response,150,213526,0.0-1.0-208.0,0,0,59346,,,,,,,,,,,,,,,,,,,,,168.5,2.0,,,,,,,,,
151,,feedback,,html-keyboard-response,151,214530,0.0-1.0-209.0-0.0,0,0,59346,,,,,,29.0,,,,,,,,,,,,,,,169.5,1.0,,,,,,,,,
152,,iti,,html-keyboard-response,152,216532,0.0-1.0-210.0,0,0,59346,,,,,,,,,,,,,,,,,,,,,171.5,2.0,,,,,,,,,
153,,rl_choice,,html-keyboard-response,153,216978,0.0-1.0-212.0,0,0,59346,,442.0,,,75.0,30.0,30.0,1.0,hard,1500.0,1500.0,1.0,60.0,40.0,60.0,60.0,B,A,/static/Simple_RL/Stimuli/Fractals_stims/B.jpg,/static/Simple_RL/Stimuli/Fractals_stims/A.jpg,171.942,0.442,0.0,0.0,40.0,60.0,60.0,60.0,A,B,
154,,rl_choice_confirmation,,html-keyboard-response,154,218041,0.0-1.0-213.0-0.0,0,0,59346,,,,,,30.0,,,,,,,,,,,,,,,173.0,1.058,,,,,,,,,
155,,isi,,html-keyboard-response,155,219544,0.0-1.0-215.0,0,0,59346,,,,,,,,,,,,,,,,,,,,,174.5,1.5,,,,,,,,,
156,,feedback,,html-keyboard-response,156,220547,0.0-1.0-216.0-0.0,0,0,59346,,,,,,30.0,,,,,,,,,,,,,,,175.5,1.0,,,,,,,,,
157,,iti,,html-keyboard-response,157,222050,0.0-1.0-217.0,0,0,59346,,,,,,,,,,,,,,,,,,,,,177.0,1.5,,,,,,,,,
158,,rl_choice,,html-keyboard-response,158,222763,0.0-1.0-219.0,0,0,59346,,710.0,,,68.0,31.0,31.0,1.0,easy,3000.0,1000.0,0.0,20.0,80.0,40.0,80.0,C,D,/static/Simple_RL/Stimuli/Fractals_stims/C.jpg,/static/Simple_RL/Stimuli/Fractals_stims/D.jpg,177.71,0.71,0.0,1.0,20.0,80.0,40.0,80.0,C,D,
159,,rl_choice_confirmation,,html-keyboard-response,159,223556,0.0-1.0-220.0-0.0,0,0,59346,,,,,,31.0,,,,,,,,,,,,,,,178.5,0.79,,,,,,,,,
160,,isi,,html-keyboard-response,160,224559,0.0-1.0-222.0,0,0,59346,,,,,,,,,,,,,,,,,,,,,179.5,1.0,,,,,,,,,
161,,feedback,,html-keyboard-response,161,225563,0.0-1.0-223.0-0.0,0,0,59346,,,,,,31.0,,,,,,,,,,,,,,,180.5,1.0,,,,,,,,,
162,,iti,,html-keyboard-response,162,228565,0.0-1.0-224.0,0,0,59346,,,,,,,,,,,,,,,,,,,,,183.5,3.0,,,,,,,,,
163,,rl_choice,,html-keyboard-response,163,229141,0.0-1.0-226.0,0,0,59346,,573.0,,,68.0,32.0,32.0,1.0,easy,1000.0,1000.0,1.0,80.0,20.0,80.0,20.0,D,C,/static/Simple_RL/Stimuli/Fractals_stims/D.jpg,/static/Simple_RL/Stimuli/Fractals_stims/C.jpg,184.073,0.573,0.0,1.0,80.0,20.0,80.0,20.0,D,C,
164,,rl_choice_confirmation,,html-keyboard-response,164,230072,0.0-1.0-227.0-0.0,0,0,59346,,,,,,32.0,,,,,,,,,,,,,,,185.0,0.927,,,,,,,,,
165,,isi,,html-keyboard-response,165,231074,0.0-1.0-229.0,0,0,59346,,,,,,,,,,,,,,,,,,,,,186.0,1.0,,,,,,,,,
166,,feedback,,html-keyboard-response,166,232078,0.0-1.0-230.0-0.0,0,0,59346,,,,,,32.0,,,,,,,,,,,,,,,187.0,1.0,,,,,,,,,
167,,iti,,html-keyboard-response,167,233080,0.0-1.0-231.0,0,0,59346,,,,,,,,,,,,,,,,,,,,,188.0,1.0,,,,,,,,,
168,,rl_choice,,html-keyboard-response,168,233946,0.0-1.0-233.0,0,0,59346,,863.0,,,68.0,33.0,33.0,1.0,easy,1000.0,1000.0,0.0,20.0,80.0,40.0,60.0,C,D,/static/Simple_RL/Stimuli/Fractals_stims/C.jpg,/static/Simple_RL/Stimuli/Fractals_stims/D.jpg,188.863,0.863,0.0,1.0,20.0,80.0,40.0,60.0,C,D,
169,,rl_choice_confirmation,,html-keyboard-response,169,234586,0.0-1.0-234.0-0.0,0,0,59346,,,,,,33.0,,,,,,,,,,,,,,,189.5,0.637,,,,,,,,,
170,,isi,,html-keyboard-response,170,235589,0.0-1.0-236.0,0,0,59346,,,,,,,,,,,,,,,,,,,,,190.5,1.0,,,,,,,,,
171,,feedback,,html-keyboard-response,171,236593,0.0-1.0-237.0-0.0,0,0,59346,,,,,,33.0,,,,,,,,,,,,,,,191.5,1.0,,,,,,,,,
172,,iti,,html-keyboard-response,172,237596,0.0-1.0-238.0,0,0,59346,,,,,,,,,,,,,,,,,,,,,192.5,1.0,,,,,,,,,
173,,rl_choice,,html-keyboard-response,173,239098,0.0-1.0-240.0,0,0,59346,,,,,,34.0,34.0,1.0,hard,1500.0,1000.0,0.0,40.0,60.0,40.0,40.0,A,B,/static/Simple_RL/Stimuli/Fractals_stims/A.jpg,/static/Simple_RL/Stimuli/Fractals_stims/B.jpg,194.0,1.5,1.0,,,,,,,,
174,,rl_choice_warning,,html-keyboard-response,174,240101,0.0-1.0-242.0-0.0,0,0,59346,,,,,,,,,,,,,,,,,,,,,195.0,1.0,,,,,,,,,
175,,isi,,html-keyboard-response,175,241104,0.0-1.0-243.0,0,0,59346,,,,,,,,,,,,,,,,,,,,,196.0,1.0,,,,,,,,,
176,,iti,,html-keyboard-response,176,242606,0.0-1.0-245.0,0,0,59346,,,,,,,,,,,,,,,,,,,,,197.5,1.5,,,,,,,,,
177,,rl_choice,,html-keyboard-response,177,243246,0.0-1.0-247.0,0,0,59346,,637.0,,,75.0,35.0,35.0,1.0,hard,1000.0,3000.0,0.0,40.0,60.0,40.0,40.0,A,B,/static/Simple_RL/Stimuli/Fractals_stims/A.jpg,/static/Simple_RL/Stimuli/Fractals_stims/B.jpg,198.137,0.637,0.0,0.0,60.0,40.0,40.0,40.0,B,A,
178,,rl_choice_confirmation,,html-keyboard-response,178,244113,0.0-1.0-248.0-0.0,0,0,59346,,,,,,35.0,,,,,,,,,,,,,,,199.0,0.863,,,,,,,,,
179,,isi,,html-keyboard-response,179,247115,0.0-1.0-250.0,0,0,59346,,,,,,,,,,,,,,,,,,,,,202.0,3.0,,,,,,,,,
180,,feedback,,html-keyboard-response,180,248120,0.0-1.0-251.0-0.0,0,0,59346,,,,,,35.0,,,,,,,,,,,,,,,203.0,1.0,,,,,,,,,
181,,iti,,html-keyboard-response,181,249122,0.0-1.0-252.0,0,0,59346,,,,,,,,,,,,,,,,,,,,,204.0,1.0,,,,,,,,,
182,,rl_choice,,html-keyboard-response,182,249946,0.0-1.0-254.0,0,0,59346,,821.0,,,75.0,36.0,36.0,1.0,easy,1000.0,3500.0,0.0,20.0,80.0,0.0,80.0,C,D,/static/Simple_RL/Stimuli/Fractals_stims/C.jpg,/static/Simple_RL/Stimuli/Fractals_stims/D.jpg,204.821,0.821,0.0,0.0,80.0,20.0,80.0,0.0,D,C,
183,,rl_choice_confirmation,,html-keyboard-response,183,250629,0.0-1.0-255.0-0.0,0,0,59346,,,,,,36.0,,,,,,,,,,,,,,,205.5,0.679,,,,,,,,,
184,,isi,,html-keyboard-response,184,254131,0.0-1.0-257.0,0,0,59346,,,,,,,,,,,,,,,,,,,,,209.0,3.5,,,,,,,,,
185,,feedback,,html-keyboard-response,185,255135,0.0-1.0-258.0-0.0,0,0,59346,,,,,,36.0,,,,,,,,,,,,,,,210.0,1.0,,,,,,,,,
186,,iti,,html-keyboard-response,186,256138,0.0-1.0-259.0,0,0,59346,,,,,,,,,,,,,,,,,,,,,211.0,1.0,,,,,,,,,
187,,rl_choice,,html-keyboard-response,187,257282,0.0-1.0-261.0,0,0,59346,,1140.0,,,68.0,37.0,37.0,1.0,hard,2000.0,1500.0,1.0,60.0,40.0,40.0,20.0,B,A,/static/Simple_RL/Stimuli/Fractals_stims/B.jpg,/static/Simple_RL/Stimuli/Fractals_stims/A.jpg,212.14,1.14,0.0,1.0,60.0,40.0,40.0,20.0,B,A,
188,,rl_choice_confirmation,,html-keyboard-response,188,257645,0.0-1.0-262.0-0.0,0,0,59346,,,,,,37.0,,,,,,,,,,,,,,,212.5,0.36,,,,,,,,,
189,,isi,,html-keyboard-response,189,259148,0.0-1.0-264.0,0,0,59346,,,,,,,,,,,,,,,,,,,,,214.0,1.5,,,,,,,,,
190,,feedback,,html-keyboard-response,190,260152,0.0-1.0-265.0-0.0,0,0,59346,,,,,,37.0,,,,,,,,,,,,,,,215.0,1.0,,,,,,,,,
191,,iti,,html-keyboard-response,191,262154,0.0-1.0-266.0,0,0,59346,,,,,,,,,,,,,,,,,,,,,217.0,2.0,,,,,,,,,
192,,rl_choice,,html-keyboard-response,192,262203,0.0-1.0-268.0,0,0,59346,,47.0,,,75.0,38.0,38.0,1.0,hard,3000.0,1000.0,1.0,60.0,40.0,40.0,40.0,B,A,/static/Simple_RL/Stimuli/Fractals_stims/B.jpg,/static/Simple_RL/Stimuli/Fractals_stims/A.jpg,217.047,0.047,0.0,0.0,40.0,60.0,40.0,40.0,A,B,
193,,rl_choice_confirmation,,html-keyboard-response,193,263660,0.0-1.0-269.0-0.0,0,0,59346,,,,,,38.0,,,,,,,,,,,,,,,218.5,1.453,,,,,,,,,
194,,isi,,html-keyboard-response,194,264664,0.0-1.0-271.0,0,0,59346,,,,,,,,,,,,,,,,,,,,,219.5,1.0,,,,,,,,,
195,,feedback,,html-keyboard-response,195,265667,0.0-1.0-272.0-0.0,0,0,59346,,,,,,38.0,,,,,,,,,,,,,,,220.5,1.0,,,,,,,,,
196,,iti,,html-keyboard-response,196,268670,0.0-1.0-273.0,0,0,59346,,,,,,,,,,,,,,,,,,,,,223.5,3.0,,,,,,,,,
197,,rl_choice,,html-keyboard-response,197,269152,0.0-1.0-275.0,0,0,59346,,480.0,,,68.0,39.0,39.0,1.0,easy,3000.0,3000.0,1.0,80.0,20.0,100.0,0.0,D,C,/static/Simple_RL/Stimuli/Fractals_stims/D.jpg,/static/Simple_RL/Stimuli/Fractals_stims/C.jpg,223.98,0.48,0.0,1.0,80.0,20.0,100.0,0.0,D,C,
198,,rl_choice_confirmation,,html-keyboard-response,198,270176,0.0-1.0-276.0-0.0,0,0,59346,,,,,,39.0,,,,,,,,,,,,,,,225.0,1.02,,,,,,,,,
199,,isi,,html-keyboard-response,199,273179,0.0-1.0-278.0,0,0,59346,,,,,,,,,,,,,,,,,,,,,228.0,3.0,,,,,,,,,
200,,feedback,,html-keyboard-response,200,274182,0.0-1.0-279.0-0.0,0,0,59346,,,,,,39.0,,,,,,,,,,,,,,,229.0,1.0,,,,,,,,,
201,,iti,,html-keyboard-response,201,277186,0.0-1.0-280.0,0,0,59346,,,,,,,,,,,,,,,,,,,,,232.0,3.0,,,,,,,,,
202,,block_over,,html-keyboard-response,202,279949,0.0-1.0-281.0-0.0,0,0,59346,,2758.0,,,68.0,39.0,,,,,,,,,,,,,,,,,,,,,,,,,
203,,start_run,,html-keyboard-response,203,282170,0.0-1.0-281.0-1.0,0,0,59346,,2219.0,,,84.0,,,,,,,,,,,,,,,,,,,,,,,,,,
204,,rl_choice,,html-keyboard-response,204,282788,0.0-1.0-282.0,0,0,59346,,615.0,,,75.0,40.0,40.0,2.0,hard,2000.0,1000.0,1.0,60.0,40.0,80.0,40.0,B,A,/static/Simple_RL/Stimuli/Fractals_stims/B.jpg,/static/Simple_RL/Stimuli/Fractals_stims/A.jpg,0.615,0.615,0.0,0.0,40.0,60.0,40.0,80.0,A,B,
205,,rl_choice_confirmation,,html-keyboard-response,205,283677,0.0-1.0-283.0-0.0,0,0,59346,,,,,,40.0,,,,,,,,,,,,,,,1.5,0.885,,,,,,,,,
206,,isi,,html-keyboard-response,206,284680,0.0-1.0-285.0,0,0,59346,,,,,,,,,,,,,,,,,,,,,2.5,1.0,,,,,,,,,
207,,feedback,,html-keyboard-response,207,285684,0.0-1.0-286.0-0.0,0,0,59346,,,,,,40.0,,,,,,,,,,,,,,,3.5,1.0,,,,,,,,,
208,,iti,,html-keyboard-response,208,287686,0.0-1.0-287.0,0,0,59346,,,,,,,,,,,,,,,,,,,,,5.5,2.0,,,,,,,,,
209,,rl_choice,,html-keyboard-response,209,288087,0.0-1.0-289.0,0,0,59346,,398.0,,,68.0,41.0,41.0,2.0,easy,1000.0,2000.0,0.0,20.0,80.0,20.0,80.0,C,D,/static/Simple_RL/Stimuli/Fractals_stims/C.jpg,/static/Simple_RL/Stimuli/Fractals_stims/D.jpg,5.898,0.398,0.0,1.0,20.0,80.0,20.0,80.0,C,D,
210,,rl_choice_confirmation,,html-keyboard-response,210,289193,0.0-1.0-290.0-0.0,0,0,59346,,,,,,41.0,,,,,,,,,,,,,,,7.0,1.102,,,,,,,,,
211,,isi,,html-keyboard-response,211,291196,0.0-1.0-292.0,0,0,59346,,,,,,,,,,,,,,,,,,,,,9.0,2.0,,,,,,,,,
212,,feedback,,html-keyboard-response,212,292213,0.0-1.0-293.0-0.0,0,0,59346,,,,,,41.0,,,,,,,,,,,,,,,10.0,1.0,,,,,,,,,
213,,iti,,html-keyboard-response,213,293231,0.0-1.0-294.0,0,0,59346,,,,,,,,,,,,,,,,,,,,,11.0,1.0,,,,,,,,,
214,,rl_choice,,html-keyboard-response,214,293574,0.0-1.0-296.0,0,0,59346,,340.0,,,68.0,42.0,42.0,2.0,easy,3500.0,2000.0,1.0,80.0,20.0,100.0,20.0,D,C,/static/Simple_RL/Stimuli/Fractals_stims/D.jpg,/static/Simple_RL/Stimuli/Fractals_stims/C.jpg,11.34,0.34,0.0,1.0,80.0,20.0,100.0,20.0,D,C,
215,,rl_choice_confirmation,,html-keyboard-response,215,294738,0.0-1.0-297.0-0.0,0,0,59346,,,,,,42.0,,,,,,,,,,,,,,,12.5,1.16,,,,,,,,,
216,,isi,,html-keyboard-response,216,296740,0.0-1.0-299.0,0,0,59346,,,,,,,,,,,,,,,,,,,,,14.5,2.0,,,,,,,,,
217,,feedback,,html-keyboard-response,217,297745,0.0-1.0-300.0-0.0,0,0,59346,,,,,,42.0,,,,,,,,,,,,,,,15.5,1.0,,,,,,,,,
218,,iti,,html-keyboard-response,218,301248,0.0-1.0-301.0,0,0,59346,,,,,,,,,,,,,,,,,,,,,19.0,3.5,,,,,,,,,
219,,rl_choice,,html-keyboard-response,219,301978,0.0-1.0-303.0,0,0,59346,,728.0,,,75.0,43.0,43.0,2.0,easy,2000.0,1000.0,0.0,20.0,80.0,20.0,80.0,C,D,/static/Simple_RL/Stimuli/Fractals_stims/C.jpg,/static/Simple_RL/Stimuli/Fractals_stims/D.jpg,19.728,0.728,0.0,0.0,80.0,20.0,80.0,20.0,D,C,
220,,rl_choice_confirmation,,html-keyboard-response,220,302753,0.0-1.0-304.0-0.0,0,0,59346,,,,,,43.0,,,,,,,,,,,,,,,20.5,0.772,,,,,,,,,
221,,isi,,html-keyboard-response,221,303756,0.0-1.0-306.0,0,0,59346,,,,,,,,,,,,,,,,,,,,,21.5,1.0,,,,,,,,,
222,,feedback,,html-keyboard-response,222,304760,0.0-1.0-307.0-0.0,0,0,59346,,,,,,43.0,,,,,,,,,,,,,,,22.5,1.0,,,,,,,,,
223,,iti,,html-keyboard-response,223,306766,0.0-1.0-308.0,0,0,59346,,,,,,,,,,,,,,,,,,,,,24.5,2.0,,,,,,,,,
224,,rl_choice,,html-keyboard-response,224,307091,0.0-1.0-310.0,0,0,59346,,322.0,,,68.0,44.0,44.0,2.0,easy,2000.0,1000.0,0.0,20.0,80.0,40.0,80.0,C,D,/static/Simple_RL/Stimuli/Fractals_stims/C.jpg,/static/Simple_RL/Stimuli/Fractals_stims/D.jpg,24.822,0.322,0.0,1.0,20.0,80.0,40.0,80.0,C,D,
225,,rl_choice_confirmation,,html-keyboard-response,225,308283,0.0-1.0-311.0-0.0,0,0,59346,,,,,,44.0,,,,,,,,,,,,,,,26.0,1.178,,,,,,,,,
226,,isi,,html-keyboard-response,226,309286,0.0-1.0-313.0,0,0,59346,,,,,,,,,,,,,,,,,,,,,27.0,1.0,,,,,,,,,
227,,feedback,,html-keyboard-response,227,310290,0.0-1.0-314.0-0.0,0,0,59346,,,,,,44.0,,,,,,,,,,,,,,,28.0,1.0,,,,,,,,,
228,,iti,,html-keyboard-response,228,312293,0.0-1.0-315.0,0,0,59346,,,,,,,,,,,,,,,,,,,,,30.0,2.0,,,,,,,,,
229,,rl_choice,,html-keyboard-response,229,312571,0.0-1.0-317.0,0,0,59346,,275.0,,,68.0,45.0,45.0,2.0,easy,1000.0,1000.0,1.0,80.0,20.0,100.0,20.0,D,C,/static/Simple_RL/Stimuli/Fractals_stims/D.jpg,/static/Simple_RL/Stimuli/Fractals_stims/C.jpg,30.275,0.275,0.0,1.0,80.0,20.0,100.0,20.0,D,C,
230,,rl_choice_confirmation,,html-keyboard-response,230,313801,0.0-1.0-318.0-0.0,0,0,59346,,,,,,45.0,,,,,,,,,,,,,,,31.5,1.225,,,,,,,,,
231,,isi,,html-keyboard-response,231,314805,0.0-1.0-320.0,0,0,59346,,,,,,,,,,,,,,,,,,,,,32.5,1.0,,,,,,,,,
232,,feedback,,html-keyboard-response,232,315810,0.0-1.0-321.0-0.0,0,0,59346,,,,,,45.0,,,,,,,,,,,,,,,33.5,1.0,,,,,,,,,
233,,iti,,html-keyboard-response,233,316813,0.0-1.0-322.0,0,0,59346,,,,,,,,,,,,,,,,,,,,,34.5,1.0,,,,,,,,,
234,,rl_choice,,html-keyboard-response,234,317485,0.0-1.0-324.0,0,0,59346,,669.0,,,75.0,46.0,46.0,2.0,easy,1000.0,1500.0,0.0,20.0,80.0,40.0,80.0,C,D,/static/Simple_RL/Stimuli/Fractals_stims/C.jpg,/static/Simple_RL/Stimuli/Fractals_stims/D.jpg,35.169,0.669,0.0,0.0,80.0,20.0,80.0,40.0,D,C,
235,,rl_choice_confirmation,,html-keyboard-response,235,318321,0.0-1.0-325.0-0.0,0,0,59346,,,,,,46.0,,,,,,,,,,,,,,,36.0,0.831,,,,,,,,,
236,,isi,,html-keyboard-response,236,319823,0.0-1.0-327.0,0,0,59346,,,,,,,,,,,,,,,,,,,,,37.5,1.5,,,,,,,,,
237,,feedback,,html-keyboard-response,237,320828,0.0-1.0-328.0-0.0,0,0,59346,,,,,,46.0,,,,,,,,,,,,,,,38.5,1.0,,,,,,,,,
238,,iti,,html-keyboard-response,238,321833,0.0-1.0-329.0,0,0,59346,,,,,,,,,,,,,,,,,,,,,39.5,1.0,,,,,,,,,
239,,rl_choice,,html-keyboard-response,239,322573,0.0-1.0-331.0,0,0,59346,,737.0,,,68.0,47.0,47.0,2.0,easy,1000.0,3000.0,0.0,20.0,80.0,0.0,100.0,C,D,/static/Simple_RL/Stimuli/Fractals_stims/C.jpg,/static/Simple_RL/Stimuli/Fractals_stims/D.jpg,40.237,0.737,0.0,1.0,20.0,80.0,0.0,100.0,C,D,
240,,rl_choice_confirmation,,html-keyboard-response,240,323340,0.0-1.0-332.0-0.0,0,0,59346,,,,,,47.0,,,,,,,,,,,,,,,41.0,0.763,,,,,,,,,
241,,isi,,html-keyboard-response,241,326343,0.0-1.0-334.0,0,0,59346,,,,,,,,,,,,,,,,,,,,,44.0,3.0,,,,,,,,,
242,,feedback,,html-keyboard-response,242,327345,0.0-1.0-335.0-0.0,0,0,59346,,,,,,47.0,,,,,,,,,,,,,,,45.0,1.0,,,,,,,,,
243,,iti,,html-keyboard-response,243,328348,0.0-1.0-336.0,0,0,59346,,,,,,,,,,,,,,,,,,,,,46.0,1.0,,,,,,,,,
244,,rl_choice,,html-keyboard-response,244,328819,0.0-1.0-338.0,0,0,59346,,468.0,,,68.0,48.0,48.0,2.0,hard,1000.0,1000.0,0.0,40.0,60.0,60.0,60.0,A,B,/static/Simple_RL/Stimuli/Fractals_stims/A.jpg,/static/Simple_RL/Stimuli/Fractals_stims/B.jpg,46.468,0.468,0.0,1.0,40.0,60.0,60.0,60.0,A,B,
245,,rl_choice_confirmation,,html-keyboard-response,245,329856,0.0-1.0-339.0-0.0,0,0,59346,,,,,,48.0,,,,,,,,,,,,,,,47.5,1.032,,,,,,,,,
246,,isi,,html-keyboard-response,246,330859,0.0-1.0-341.0,0,0,59346,,,,,,,,,,,,,,,,,,,,,48.5,1.0,,,,,,,,,
247,,feedback,,html-keyboard-response,247,331864,0.0-1.0-342.0-0.0,0,0,59346,,,,,,48.0,,,,,,,,,,,,,,,49.5,1.0,,,,,,,,,
248,,iti,,html-keyboard-response,248,332868,0.0-1.0-343.0,0,0,59346,,,,,,,,,,,,,,,,,,,,,50.5,1.0,,,,,,,,,
249,,rl_choice,,html-keyboard-response,249,333472,0.0-1.0-345.0,0,0,59346,,602.0,,,68.0,49.0,49.0,2.0,easy,1500.0,2000.0,0.0,20.0,80.0,40.0,60.0,C,D,/static/Simple_RL/Stimuli/Fractals_stims/C.jpg,/static/Simple_RL/Stimuli/Fractals_stims/D.jpg,51.102,0.602,0.0,1.0,20.0,80.0,40.0,60.0,C,D,
250,,rl_choice_confirmation,,html-keyboard-response,250,334375,0.0-1.0-346.0-0.0,0,0,59346,,,,,,49.0,,,,,,,,,,,,,,,52.0,0.898,,,,,,,,,
251,,isi,,html-keyboard-response,251,336379,0.0-1.0-348.0,0,0,59346,,,,,,,,,,,,,,,,,,,,,54.0,2.0,,,,,,,,,
252,,feedback,,html-keyboard-response,252,337383,0.0-1.0-349.0-0.0,0,0,59346,,,,,,49.0,,,,,,,,,,,,,,,55.0,1.0,,,,,,,,,
253,,iti,,html-keyboard-response,253,338885,0.0-1.0-350.0,0,0,59346,,,,,,,,,,,,,,,,,,,,,56.5,1.5,,,,,,,,,
254,,rl_choice,,html-keyboard-response,254,339321,0.0-1.0-352.0,0,0,59346,,433.0,,,68.0,50.0,50.0,2.0,easy,1000.0,1000.0,1.0,80.0,20.0,80.0,0.0,D,C,/static/Simple_RL/Stimuli/Fractals_stims/D.jpg,/static/Simple_RL/Stimuli/Fractals_stims/C.jpg,56.933,0.433,0.0,1.0,80.0,20.0,80.0,0.0,D,C,
255,,rl_choice_confirmation,,html-keyboard-response,255,340391,0.0-1.0-353.0-0.0,0,0,59346,,,,,,50.0,,,,,,,,,,,,,,,58.0,1.067,,,,,,,,,
256,,isi,,html-keyboard-response,256,341395,0.0-1.0-355.0,0,0,59346,,,,,,,,,,,,,,,,,,,,,59.0,1.0,,,,,,,,,
257,,feedback,,html-keyboard-response,257,342399,0.0-1.0-356.0-0.0,0,0,59346,,,,,,50.0,,,,,,,,,,,,,,,60.0,1.0,,,,,,,,,
258,,iti,,html-keyboard-response,258,343402,0.0-1.0-357.0,0,0,59346,,,,,,,,,,,,,,,,,,,,,61.0,1.0,,,,,,,,,
259,,rl_choice,,html-keyboard-response,259,343844,0.0-1.0-359.0,0,0,59346,,439.0,,,75.0,51.0,51.0,2.0,easy,3000.0,1500.0,0.0,20.0,80.0,20.0,80.0,C,D,/static/Simple_RL/Stimuli/Fractals_stims/C.jpg,/static/Simple_RL/Stimuli/Fractals_stims/D.jpg,61.439,0.439,0.0,0.0,80.0,20.0,80.0,20.0,D,C,
260,,rl_choice_confirmation,,html-keyboard-response,260,344909,0.0-1.0-360.0-0.0,0,0,59346,,,,,,51.0,,,,,,,,,,,,,,,62.5,1.061,,,,,,,,,
261,,isi,,html-keyboard-response,261,346412,0.0-1.0-362.0,0,0,59346,,,,,,,,,,,,,,,,,,,,,64.0,1.5,,,,,,,,,
262,,feedback,,html-keyboard-response,262,347416,0.0-1.0-363.0-0.0,0,0,59346,,,,,,51.0,,,,,,,,,,,,,,,65.0,1.0,,,,,,,,,
263,,iti,,html-keyboard-response,263,350418,0.0-1.0-364.0,0,0,59346,,,,,,,,,,,,,,,,,,,,,68.0,3.0,,,,,,,,,
264,,rl_choice,,html-keyboard-response,264,350786,0.0-1.0-366.0,0,0,59346,,366.0,,,68.0,52.0,52.0,2.0,hard,1000.0,1000.0,0.0,40.0,60.0,40.0,40.0,A,B,/static/Simple_RL/Stimuli/Fractals_stims/A.jpg,/static/Simple_RL/Stimuli/Fractals_stims/B.jpg,68.366,0.366,0.0,1.0,40.0,60.0,40.0,40.0,A,B,
265,,rl_choice_confirmation,,html-keyboard-response,265,351924,0.0-1.0-367.0-0.0,0,0,59346,,,,,,52.0,,,,,,,,,,,,,,,69.5,1.134,,,,,,,,,
266,,isi,,html-keyboard-response,266,352928,0.0-1.0-369.0,0,0,59346,,,,,,,,,,,,,,,,,,,,,70.5,1.0,,,,,,,,,
267,,feedback,,html-keyboard-response,267,353933,0.0-1.0-370.0-0.0,0,0,59346,,,,,,52.0,,,,,,,,,,,,,,,71.5,1.0,,,,,,,,,
268,,iti,,html-keyboard-response,268,354935,0.0-1.0-371.0,0,0,59346,,,,,,,,,,,,,,,,,,,,,72.5,1.0,,,,,,,,,
269,,rl_choice,,html-keyboard-response,269,355417,0.0-1.0-373.0,0,0,59346,,479.0,,,68.0,53.0,53.0,2.0,hard,3000.0,1500.0,0.0,40.0,60.0,40.0,40.0,A,B,/static/Simple_RL/Stimuli/Fractals_stims/A.jpg,/static/Simple_RL/Stimuli/Fractals_stims/B.jpg,72.979,0.479,0.0,1.0,40.0,60.0,40.0,40.0,A,B,
270,,rl_choice_confirmation,,html-keyboard-response,270,356443,0.0-1.0-374.0-0.0,0,0,59346,,,,,,53.0,,,,,,,,,,,,,,,74.0,1.021,,,,,,,,,
271,,isi,,html-keyboard-response,271,357945,0.0-1.0-376.0,0,0,59346,,,,,,,,,,,,,,,,,,,,,75.5,1.5,,,,,,,,,
272,,feedback,,html-keyboard-response,272,358949,0.0-1.0-377.0-0.0,0,0,59346,,,,,,53.0,,,,,,,,,,,,,,,76.5,1.0,,,,,,,,,
273,,iti,,html-keyboard-response,273,361951,0.0-1.0-378.0,0,0,59346,,,,,,,,,,,,,,,,,,,,,79.5,3.0,,,,,,,,,
274,,rl_choice,,html-keyboard-response,274,362136,0.0-1.0-380.0,0,0,59346,,182.0,,,75.0,54.0,54.0,2.0,hard,1500.0,1500.0,0.0,40.0,60.0,20.0,80.0,A,B,/static/Simple_RL/Stimuli/Fractals_stims/A.jpg,/static/Simple_RL/Stimuli/Fractals_stims/B.jpg,79.682,0.182,0.0,0.0,60.0,40.0,80.0,20.0,B,A,
275,,rl_choice_confirmation,,html-keyboard-response,275,363457,0.0-1.0-381.0-0.0,0,0,59346,,,,,,54.0,,,,,,,,,,,,,,,81.0,1.318,,,,,,,,,
276,,isi,,html-keyboard-response,276,364960,0.0-1.0-383.0,0,0,59346,,,,,,,,,,,,,,,,,,,,,82.5,1.5,,,,,,,,,
277,,feedback,,html-keyboard-response,277,365964,0.0-1.0-384.0-0.0,0,0,59346,,,,,,54.0,,,,,,,,,,,,,,,83.5,1.0,,,,,,,,,
278,,iti,,html-keyboard-response,278,367466,0.0-1.0-385.0,0,0,59346,,,,,,,,,,,,,,,,,,,,,85.0,1.5,,,,,,,,,
279,,rl_choice,,html-keyboard-response,279,368401,0.0-1.0-387.0,0,0,59346,,932.0,,,68.0,55.0,55.0,2.0,easy,1500.0,1500.0,1.0,80.0,20.0,80.0,0.0,D,C,/static/Simple_RL/Stimuli/Fractals_stims/D.jpg,/static/Simple_RL/Stimuli/Fractals_stims/C.jpg,85.932,0.932,0.0,1.0,80.0,20.0,80.0,0.0,D,C,
280,,rl_choice_confirmation,,html-keyboard-response,280,368974,0.0-1.0-388.0-0.0,0,0,59346,,,,,,55.0,,,,,,,,,,,,,,,86.5,0.568,,,,,,,,,
281,,isi,,html-keyboard-response,281,370477,0.0-1.0-390.0,0,0,59346,,,,,,,,,,,,,,,,,,,,,88.0,1.5,,,,,,,,,
282,,feedback,,html-keyboard-response,282,371480,0.0-1.0-391.0-0.0,0,0,59346,,,,,,55.0,,,,,,,,,,,,,,,89.0,1.0,,,,,,,,,
283,,iti,,html-keyboard-response,283,372984,0.0-1.0-392.0,0,0,59346,,,,,,,,,,,,,,,,,,,,,90.5,1.5,,,,,,,,,
284,,rl_choice,,html-keyboard-response,284,373549,0.0-1.0-394.0,0,0,59346,,562.0,,,68.0,56.0,56.0,2.0,hard,1500.0,2000.0,1.0,60.0,40.0,60.0,60.0,B,A,/static/Simple_RL/Stimuli/Fractals_stims/B.jpg,/static/Simple_RL/Stimuli/Fractals_stims/A.jpg,91.062,0.562,0.0,1.0,60.0,40.0,60.0,60.0,B,A,
285,,rl_choice_confirmation,,html-keyboard-response,285,374491,0.0-1.0-395.0-0.0,0,0,59346,,,,,,56.0,,,,,,,,,,,,,,,92.0,0.938,,,,,,,,,
286,,isi,,html-keyboard-response,286,376494,0.0-1.0-397.0,0,0,59346,,,,,,,,,,,,,,,,,,,,,94.0,2.0,,,,,,,,,
287,,feedback,,html-keyboard-response,287,377497,0.0-1.0-398.0-0.0,0,0,59346,,,,,,56.0,,,,,,,,,,,,,,,95.0,1.0,,,,,,,,,
288,,iti,,html-keyboard-response,288,378999,0.0-1.0-399.0,0,0,59346,,,,,,,,,,,,,,,,,,,,,96.5,1.5,,,,,,,,,
289,,rl_choice,,html-keyboard-response,289,379454,0.0-1.0-401.0,0,0,59346,,452.0,,,75.0,57.0,57.0,2.0,hard,1500.0,2000.0,1.0,60.0,40.0,60.0,60.0,B,A,/static/Simple_RL/Stimuli/Fractals_stims/B.jpg,/static/Simple_RL/Stimuli/Fractals_stims/A.jpg,96.952,0.452,0.0,0.0,40.0,60.0,60.0,60.0,A,B,
290,,rl_choice_confirmation,,html-keyboard-response,290,380508,0.0-1.0-402.0-0.0,0,0,59346,,,,,,57.0,,,,,,,,,,,,,,,98.0,1.048,,,,,,,,,
291,,isi,,html-keyboard-response,291,382510,0.0-1.0-404.0,0,0,59346,,,,,,,,,,,,,,,,,,,,,100.0,2.0,,,,,,,,,
292,,feedback,,html-keyboard-response,292,383513,0.0-1.0-405.0-0.0,0,0,59346,,,,,,57.0,,,,,,,,,,,,,,,101.0,1.0,,,,,,,,,
293,,iti,,html-keyboard-response,293,385016,0.0-1.0-406.0,0,0,59346,,,,,,,,,,,,,,,,,,,,,102.5,1.5,,,,,,,,,
294,,rl_choice,,html-keyboard-response,294,385328,0.0-1.0-408.0,0,0,59346,,310.0,,,75.0,58.0,58.0,2.0,easy,1000.0,2000.0,0.0,20.0,80.0,0.0,60.0,C,D,/static/Simple_RL/Stimuli/Fractals_stims/C.jpg,/static/Simple_RL/Stimuli/Fractals_stims/D.jpg,102.81,0.31,0.0,0.0,80.0,20.0,60.0,0.0,D,C,
295,,rl_choice_confirmation,,html-keyboard-response,295,386522,0.0-1.0-409.0-0.0,0,0,59346,,,,,,58.0,,,,,,,,,,,,,,,104.0,1.19,,,,,,,,,
296,,isi,,html-keyboard-response,296,388526,0.0-1.0-411.0,0,0,59346,,,,,,,,,,,,,,,,,,,,,106.0,2.0,,,,,,,,,
297,,feedback,,html-keyboard-response,297,389531,0.0-1.0-412.0-0.0,0,0,59346,,,,,,58.0,,,,,,,,,,,,,,,107.0,1.0,,,,,,,,,
298,,iti,,html-keyboard-response,298,390534,0.0-1.0-413.0,0,0,59346,,,,,,,,,,,,,,,,,,,,,108.0,1.0,,,,,,,,,
299,,rl_choice,,html-keyboard-response,299,391275,0.0-1.0-415.0,0,0,59346,,738.0,,,75.0,59.0,59.0,2.0,easy,1000.0,1000.0,1.0,80.0,20.0,80.0,0.0,D,C,/static/Simple_RL/Stimuli/Fractals_stims/D.jpg,/static/Simple_RL/Stimuli/Fractals_stims/C.jpg,108.738,0.738,0.0,0.0,20.0,80.0,0.0,80.0,C,D,
300,,rl_choice_confirmation,,html-keyboard-response,300,392041,0.0-1.0-416.0-0.0,0,0,59346,,,,,,59.0,,,,,,,,,,,,,,,109.5,0.762,,,,,,,,,
301,,isi,,html-keyboard-response,301,393044,0.0-1.0-418.0,0,0,59346,,,,,,,,,,,,,,,,,,,,,110.5,1.0,,,,,,,,,
302,,feedback,,html-keyboard-response,302,394047,0.0-1.0-419.0-0.0,0,0,59346,,,,,,59.0,,,,,,,,,,,,,,,111.5,1.0,,,,,,,,,
303,,iti,,html-keyboard-response,303,395049,0.0-1.0-420.0,0,0,59346,,,,,,,,,,,,,,,,,,,,,112.5,1.0,,,,,,,,,
304,,rl_choice,,html-keyboard-response,304,395653,0.0-1.0-422.0,0,0,59346,,601.0,,,68.0,60.0,60.0,2.0,easy,3000.0,1500.0,1.0,80.0,20.0,80.0,20.0,D,C,/static/Simple_RL/Stimuli/Fractals_stims/D.jpg,/static/Simple_RL/Stimuli/Fractals_stims/C.jpg,113.101,0.601,0.0,1.0,80.0,20.0,80.0,20.0,D,C,
305,,rl_choice_confirmation,,html-keyboard-response,305,396557,0.0-1.0-423.0-0.0,0,0,59346,,,,,,60.0,,,,,,,,,,,,,,,114.0,0.899,,,,,,,,,
306,,isi,,html-keyboard-response,306,398061,0.0-1.0-425.0,0,0,59346,,,,,,,,,,,,,,,,,,,,,115.5,1.5,,,,,,,,,
307,,feedback,,html-keyboard-response,307,399064,0.0-1.0-426.0-0.0,0,0,59346,,,,,,60.0,,,,,,,,,,,,,,,116.5,1.0,,,,,,,,,
308,,iti,,html-keyboard-response,308,402067,0.0-1.0-427.0,0,0,59346,,,,,,,,,,,,,,,,,,,,,119.5,3.0,,,,,,,,,
309,,rl_choice,,html-keyboard-response,309,402612,0.0-1.0-429.0,0,0,59346,,541.0,,,68.0,61.0,61.0,2.0,hard,2000.0,1500.0,1.0,60.0,40.0,60.0,40.0,B,A,/static/Simple_RL/Stimuli/Fractals_stims/B.jpg,/static/Simple_RL/Stimuli/Fractals_stims/A.jpg,120.041,0.541,0.0,1.0,60.0,40.0,60.0,40.0,B,A,
310,,rl_choice_confirmation,,html-keyboard-response,310,403578,0.0-1.0-430.0-0.0,0,0,59346,,,,,,61.0,,,,,,,,,,,,,,,121.0,0.959,,,,,,,,,
311,,isi,,html-keyboard-response,311,405080,0.0-1.0-432.0,0,0,59346,,,,,,,,,,,,,,,,,,,,,122.5,1.5,,,,,,,,,
312,,feedback,,html-keyboard-response,312,406083,0.0-1.0-433.0-0.0,0,0,59346,,,,,,61.0,,,,,,,,,,,,,,,123.5,1.0,,,,,,,,,
313,,iti,,html-keyboard-response,313,408087,0.0-1.0-434.0,0,0,59346,,,,,,,,,,,,,,,,,,,,,125.5,2.0,,,,,,,,,
314,,rl_choice,,html-keyboard-response,314,408691,0.0-1.0-436.0,0,0,59346,,601.0,,,68.0,62.0,62.0,2.0,easy,1500.0,3000.0,1.0,80.0,20.0,60.0,40.0,D,C,/static/Simple_RL/Stimuli/Fractals_stims/D.jpg,/static/Simple_RL/Stimuli/Fractals_stims/C.jpg,126.101,0.601,0.0,1.0,80.0,20.0,60.0,40.0,D,C,
315,,rl_choice_confirmation,,html-keyboard-response,315,409598,0.0-1.0-437.0-0.0,0,0,59346,,,,,,62.0,,,,,,,,,,,,,,,127.0,0.899,,,,,,,,,
316,,isi,,html-keyboard-response,316,412601,0.0-1.0-439.0,0,0,59346,,,,,,,,,,,,,,,,,,,,,130.0,3.0,,,,,,,,,
317,,feedback,,html-keyboard-response,317,413604,0.0-1.0-440.0-0.0,0,0,59346,,,,,,62.0,,,,,,,,,,,,,,,131.0,1.0,,,,,,,,,
318,,iti,,html-keyboard-response,318,415108,0.0-1.0-441.0,0,0,59346,,,,,,,,,,,,,,,,,,,,,132.5,1.5,,,,,,,,,
319,,rl_choice,,html-keyboard-response,319,415722,0.0-1.0-443.0,0,0,59346,,612.0,,,75.0,63.0,63.0,2.0,hard,3000.0,3000.0,0.0,40.0,60.0,60.0,80.0,A,B,/static/Simple_RL/Stimuli/Fractals_stims/A.jpg,/static/Simple_RL/Stimuli/Fractals_stims/B.jpg,133.112,0.612,0.0,0.0,60.0,40.0,80.0,60.0,B,A,
320,,rl_choice_confirmation,,html-keyboard-response,320,416615,0.0-1.0-444.0-0.0,0,0,59346,,,,,,63.0,,,,,,,,,,,,,,,134.0,0.888,,,,,,,,,
321,,isi,,html-keyboard-response,321,419618,0.0-1.0-446.0,0,0,59346,,,,,,,,,,,,,,,,,,,,,137.0,3.0,,,,,,,,,
322,,feedback,,html-keyboard-response,322,420623,0.0-1.0-447.0-0.0,0,0,59346,,,,,,63.0,,,,,,,,,,,,,,,138.0,1.0,,,,,,,,,
323,,iti,,html-keyboard-response,323,423626,0.0-1.0-448.0,0,0,59346,,,,,,,,,,,,,,,,,,,,,141.0,3.0,,,,,,,,,
324,,rl_choice,,html-keyboard-response,324,424137,0.0-1.0-450.0,0,0,59346,,508.0,,,68.0,64.0,64.0,2.0,easy,2000.0,3500.0,1.0,80.0,20.0,60.0,0.0,D,C,/static/Simple_RL/Stimuli/Fractals_stims/D.jpg,/static/Simple_RL/Stimuli/Fractals_stims/C.jpg,141.508,0.508,0.0,1.0,80.0,20.0,60.0,0.0,D,C,
325,,rl_choice_confirmation,,html-keyboard-response,325,425134,0.0-1.0-451.0-0.0,0,0,59346,,,,,,64.0,,,,,,,,,,,,,,,142.5,0.992,,,,,,,,,
326,,isi,,html-keyboard-response,326,428637,0.0-1.0-453.0,0,0,59346,,,,,,,,,,,,,,,,,,,,,146.0,3.5,,,,,,,,,
327,,feedback,,html-keyboard-response,327,429641,0.0-1.0-454.0-0.0,0,0,59346,,,,,,64.0,,,,,,,,,,,,,,,147.0,1.0,,,,,,,,,
328,,iti,,html-keyboard-response,328,431648,0.0-1.0-455.0,0,0,59346,,,,,,,,,,,,,,,,,,,,,149.0,2.0,,,,,,,,,
329,,rl_choice,,html-keyboard-response,329,432143,0.0-1.0-457.0,0,0,59346,,490.0,,,68.0,65.0,65.0,2.0,hard,1000.0,3000.0,0.0,40.0,60.0,40.0,40.0,A,B,/static/Simple_RL/Stimuli/Fractals_stims/A.jpg,/static/Simple_RL/Stimuli/Fractals_stims/B.jpg,149.49,0.49,0.0,1.0,40.0,60.0,40.0,40.0,A,B,
330,,rl_choice_confirmation,,html-keyboard-response,330,433161,0.0-1.0-458.0-0.0,0,0,59346,,,,,,65.0,,,,,,,,,,,,,,,150.5,1.01,,,,,,,,,
331,,isi,,html-keyboard-response,331,436163,0.0-1.0-460.0,0,0,59346,,,,,,,,,,,,,,,,,,,,,153.5,3.0,,,,,,,,,
332,,feedback,,html-keyboard-response,332,437166,0.0-1.0-461.0-0.0,0,0,59346,,,,,,65.0,,,,,,,,,,,,,,,154.5,1.0,,,,,,,,,
333,,iti,,html-keyboard-response,333,438171,0.0-1.0-462.0,0,0,59346,,,,,,,,,,,,,,,,,,,,,155.5,1.0,,,,,,,,,
334,,rl_choice,,html-keyboard-response,334,438224,0.0-1.0-464.0,0,0,59346,,47.0,,,68.0,66.0,66.0,2.0,hard,1000.0,1000.0,1.0,60.0,40.0,80.0,60.0,B,A,/static/Simple_RL/Stimuli/Fractals_stims/B.jpg,/static/Simple_RL/Stimuli/Fractals_stims/A.jpg,155.547,0.047,0.0,1.0,60.0,40.0,80.0,60.0,B,A,
335,,rl_choice_confirmation,,html-keyboard-response,335,439681,0.0-1.0-465.0-0.0,0,0,59346,,,,,,66.0,,,,,,,,,,,,,,,157.0,1.453,,,,,,,,,
336,,isi,,html-keyboard-response,336,440684,0.0-1.0-467.0,0,0,59346,,,,,,,,,,,,,,,,,,,,,158.0,1.0,,,,,,,,,
337,,feedback,,html-keyboard-response,337,441693,0.0-1.0-468.0-0.0,0,0,59346,,,,,,66.0,,,,,,,,,,,,,,,159.0,1.0,,,,,,,,,
338,,iti,,html-keyboard-response,338,442696,0.0-1.0-469.0,0,0,59346,,,,,,,,,,,,,,,,,,,,,160.0,1.0,,,,,,,,,
339,,rl_choice,,html-keyboard-response,339,443660,0.0-1.0-471.0,0,0,59346,,962.0,,,75.0,67.0,67.0,2.0,hard,1000.0,1000.0,0.0,40.0,60.0,40.0,80.0,A,B,/static/Simple_RL/Stimuli/Fractals_stims/A.jpg,/static/Simple_RL/Stimuli/Fractals_stims/B.jpg,160.962,0.962,0.0,0.0,60.0,40.0,80.0,40.0,B,A,
340,,rl_choice_confirmation,,html-keyboard-response,340,444202,0.0-1.0-472.0-0.0,0,0,59346,,,,,,67.0,,,,,,,,,,,,,,,161.5,0.538,,,,,,,,,
341,,isi,,html-keyboard-response,341,445206,0.0-1.0-474.0,0,0,59346,,,,,,,,,,,,,,,,,,,,,162.5,1.0,,,,,,,,,
342,,feedback,,html-keyboard-response,342,446210,0.0-1.0-475.0-0.0,0,0,59346,,,,,,67.0,,,,,,,,,,,,,,,163.5,1.0,,,,,,,,,
343,,iti,,html-keyboard-response,343,447212,0.0-1.0-476.0,0,0,59346,,,,,,,,,,,,,,,,,,,,,164.5,1.0,,,,,,,,,
344,,rl_choice,,html-keyboard-response,344,447325,0.0-1.0-478.0,0,0,59346,,110.0,,,68.0,68.0,68.0,2.0,easy,1500.0,1500.0,1.0,80.0,20.0,100.0,40.0,D,C,/static/Simple_RL/Stimuli/Fractals_stims/D.jpg,/static/Simple_RL/Stimuli/Fractals_stims/C.jpg,164.61,0.11,0.0,1.0,80.0,20.0,100.0,40.0,D,C,
345,,rl_choice_confirmation,,html-keyboard-response,345,448719,0.0-1.0-479.0-0.0,0,0,59346,,,,,,68.0,,,,,,,,,,,,,,,166.0,1.39,,,,,,,,,
346,,isi,,html-keyboard-response,346,450221,0.0-1.0-481.0,0,0,59346,,,,,,,,,,,,,,,,,,,,,167.5,1.5,,,,,,,,,
347,,feedback,,html-keyboard-response,347,451226,0.0-1.0-482.0-0.0,0,0,59346,,,,,,68.0,,,,,,,,,,,,,,,168.5,1.0,,,,,,,,,
348,,iti,,html-keyboard-response,348,452728,0.0-1.0-483.0,0,0,59346,,,,,,,,,,,,,,,,,,,,,170.0,1.5,,,,,,,,,
349,,rl_choice,,html-keyboard-response,349,453262,0.0-1.0-485.0,0,0,59346,,531.0,,,75.0,69.0,69.0,2.0,hard,2000.0,1000.0,0.0,40.0,60.0,60.0,60.0,A,B,/static/Simple_RL/Stimuli/Fractals_stims/A.jpg,/static/Simple_RL/Stimuli/Fractals_stims/B.jpg,170.531,0.531,0.0,0.0,60.0,40.0,60.0,60.0,B,A,
350,,rl_choice_confirmation,,html-keyboard-response,350,454237,0.0-1.0-486.0-0.0,0,0,59346,,,,,,69.0,,,,,,,,,,,,,,,171.5,0.969,,,,,,,,,
351,,isi,,html-keyboard-response,351,455240,0.0-1.0-488.0,0,0,59346,,,,,,,,,,,,,,,,,,,,,172.5,1.0,,,,,,,,,
352,,feedback,,html-keyboard-response,352,456245,0.0-1.0-489.0-0.0,0,0,59346,,,,,,69.0,,,,,,,,,,,,,,,173.5,1.0,,,,,,,,,
353,,iti,,html-keyboard-response,353,458248,0.0-1.0-490.0,0,0,59346,,,,,,,,,,,,,,,,,,,,,175.5,2.0,,,,,,,,,
354,,rl_choice,,html-keyboard-response,354,458769,0.0-1.0-492.0,0,0,59346,,518.0,,,68.0,70.0,70.0,2.0,hard,1000.0,3500.0,1.0,60.0,40.0,80.0,20.0,B,A,/static/Simple_RL/Stimuli/Fractals_stims/B.jpg,/static/Simple_RL/Stimuli/Fractals_stims/A.jpg,176.018,0.518,0.0,1.0,60.0,40.0,80.0,20.0,B,A,
355,,rl_choice_confirmation,,html-keyboard-response,355,459757,0.0-1.0-493.0-0.0,0,0,59346,,,,,,70.0,,,,,,,,,,,,,,,177.0,0.982,,,,,,,,,
356,,isi,,html-keyboard-response,356,463261,0.0-1.0-495.0,0,0,59346,,,,,,,,,,,,,,,,,,,,,180.5,3.5,,,,,,,,,
357,,feedback,,html-keyboard-response,357,464265,0.0-1.0-496.0-0.0,0,0,59346,,,,,,70.0,,,,,,,,,,,,,,,181.5,1.0,,,,,,,,,
358,,iti,,html-keyboard-response,358,465267,0.0-1.0-497.0,0,0,59346,,,,,,,,,,,,,,,,,,,,,182.5,1.0,,,,,,,,,
359,,rl_choice,,html-keyboard-response,359,465913,0.0-1.0-499.0,0,0,59346,,643.0,,,75.0,71.0,71.0,2.0,easy,2000.0,1000.0,1.0,80.0,20.0,100.0,20.0,D,C,/static/Simple_RL/Stimuli/Fractals_stims/D.jpg,/static/Simple_RL/Stimuli/Fractals_stims/C.jpg,183.143,0.643,0.0,0.0,20.0,80.0,20.0,100.0,C,D,
360,,rl_choice_confirmation,,html-keyboard-response,360,466774,0.0-1.0-500.0-0.0,0,0,59346,,,,,,71.0,,,,,,,,,,,,,,,184.0,0.857,,,,,,,,,
361,,isi,,html-keyboard-response,361,467776,0.0-1.0-502.0,0,0,59346,,,,,,,,,,,,,,,,,,,,,185.0,1.0,,,,,,,,,
362,,feedback,,html-keyboard-response,362,468780,0.0-1.0-503.0-0.0,0,0,59346,,,,,,71.0,,,,,,,,,,,,,,,186.0,1.0,,,,,,,,,
363,,iti,,html-keyboard-response,363,470783,0.0-1.0-504.0,0,0,59346,,,,,,,,,,,,,,,,,,,,,188.0,2.0,,,,,,,,,
364,,rl_choice,,html-keyboard-response,364,472286,0.0-1.0-506.0,0,0,59346,,,,,,72.0,72.0,2.0,easy,1500.0,1000.0,0.0,20.0,80.0,20.0,80.0,C,D,/static/Simple_RL/Stimuli/Fractals_stims/C.jpg,/static/Simple_RL/Stimuli/Fractals_stims/D.jpg,189.5,1.5,1.0,,,,,,,,
365,,rl_choice_warning,,html-keyboard-response,365,473290,0.0-1.0-508.0-0.0,1,0,59346,,,,,,,,,,,,,,,,,,,,,190.5,1.0,,,,,,,,,
366,,isi,,html-keyboard-response,366,474293,0.0-1.0-509.0,0,0,59346,,,,,,,,,,,,,,,,,,,,,191.5,1.0,,,,,,,,,
367,,iti,,html-keyboard-response,367,475796,0.0-1.0-511.0,0,0,59346,,,,,,,,,,,,,,,,,,,,,193.0,1.5,,,,,,,,,
368,,rl_choice,,html-keyboard-response,368,476303,0.0-1.0-513.0,0,0,59346,,504.0,,,68.0,73.0,73.0,2.0,hard,1500.0,1500.0,0.0,40.0,60.0,40.0,80.0,A,B,/static/Simple_RL/Stimuli/Fractals_stims/A.jpg,/static/Simple_RL/Stimuli/Fractals_stims/B.jpg,193.504,0.504,0.0,1.0,40.0,60.0,40.0,80.0,A,B,
369,,rl_choice_confirmation,,html-keyboard-response,369,477302,0.0-1.0-514.0-0.0,0,0,59346,,,,,,73.0,,,,,,,,,,,,,,,194.5,0.996,,,,,,,,,
370,,isi,,html-keyboard-response,370,478805,0.0-1.0-516.0,0,0,59346,,,,,,,,,,,,,,,,,,,,,196.0,1.5,,,,,,,,,
371,,feedback,,html-keyboard-response,371,479812,0.0-1.0-517.0-0.0,0,0,59346,,,,,,73.0,,,,,,,,,,,,,,,197.0,1.0,,,,,,,,,
372,,iti,,html-keyboard-response,372,481314,0.0-1.0-518.0,0,0,59346,,,,,,,,,,,,,,,,,,,,,198.5,1.5,,,,,,,,,
373,,rl_choice,,html-keyboard-response,373,482818,0.0-1.0-520.0,0,0,59346,,,,,,74.0,74.0,2.0,hard,2000.0,1000.0,1.0,60.0,40.0,80.0,40.0,B,A,/static/Simple_RL/Stimuli/Fractals_stims/B.jpg,/static/Simple_RL/Stimuli/Fractals_stims/A.jpg,200.0,1.5,1.0,,,,,,,,
374,,rl_choice_warning,,html-keyboard-response,374,483820,0.0-1.0-522.0-0.0,1,0,59346,,,,,,,,,,,,,,,,,,,,,201.0,1.0,,,,,,,,,
375,,isi,,html-keyboard-response,375,484824,0.0-1.0-523.0,0,0,59346,,,,,,,,,,,,,,,,,,,,,202.0,1.0,,,,,,,,,
376,,iti,,html-keyboard-response,376,486827,0.0-1.0-525.0,0,0,59346,,,,,,,,,,,,,,,,,,,,,204.0,2.0,,,,,,,,,
377,,rl_choice,,html-keyboard-response,377,487677,0.0-1.0-527.0,0,0,59346,,847.0,,,68.0,75.0,75.0,2.0,hard,1000.0,1500.0,1.0,60.0,40.0,80.0,40.0,B,A,/static/Simple_RL/Stimuli/Fractals_stims/B.jpg,/static/Simple_RL/Stimuli/Fractals_stims/A.jpg,204.847,0.847,0.0,1.0,60.0,40.0,80.0,40.0,B,A,
378,,rl_choice_confirmation,,html-keyboard-response,378,488335,0.0-1.0-528.0-0.0,0,0,59346,,,,,,75.0,,,,,,,,,,,,,,,205.5,0.653,,,,,,,,,
379,,isi,,html-keyboard-response,379,489837,0.0-1.0-530.0,0,0,59346,,,,,,,,,,,,,,,,,,,,,207.0,1.5,,,,,,,,,
380,,feedback,,html-keyboard-response,380,490845,0.0-1.0-531.0-0.0,0,0,59346,,,,,,75.0,,,,,,,,,,,,,,,208.0,1.0,,,,,,,,,
381,,iti,,html-keyboard-response,381,491851,0.0-1.0-532.0,0,0,59346,,,,,,,,,,,,,,,,,,,,,209.0,1.0,,,,,,,,,
382,,rl_choice,,html-keyboard-response,382,493354,0.0-1.0-534.0,0,0,59346,,,,,,76.0,76.0,2.0,hard,3500.0,1000.0,0.0,40.0,60.0,40.0,60.0,A,B,/static/Simple_RL/Stimuli/Fractals_stims/A.jpg,/static/Simple_RL/Stimuli/Fractals_stims/B.jpg,210.5,1.5,1.0,,,,,,,,
383,,rl_choice_warning,,html-keyboard-response,383,494357,0.0-1.0-536.0-0.0,1,0,59346,,,,,,,,,,,,,,,,,,,,,211.5,1.0,,,,,,,,,
384,,isi,,html-keyboard-response,384,495366,0.0-1.0-537.0,0,0,59346,,,,,,,,,,,,,,,,,,,,,212.5,1.0,,,,,,,,,
385,,iti,,html-keyboard-response,385,498869,0.0-1.0-539.0,0,0,59346,,,,,,,,,,,,,,,,,,,,,216.0,3.5,,,,,,,,,
386,,rl_choice,,html-keyboard-response,386,499655,0.0-1.0-541.0,0,0,59346,,783.0,,,75.0,77.0,77.0,2.0,easy,1000.0,1000.0,1.0,80.0,20.0,60.0,0.0,D,C,/static/Simple_RL/Stimuli/Fractals_stims/D.jpg,/static/Simple_RL/Stimuli/Fractals_stims/C.jpg,216.783,0.783,0.0,0.0,20.0,80.0,0.0,60.0,C,D,
387,,rl_choice_confirmation,,html-keyboard-response,387,500376,0.0-1.0-542.0-0.0,0,0,59346,,,,,,77.0,,,,,,,,,,,,,,,217.5,0.717,,,,,,,,,
388,,isi,,html-keyboard-response,388,501378,0.0-1.0-544.0,0,0,59346,,,,,,,,,,,,,,,,,,,,,218.5,1.0,,,,,,,,,
389,,feedback,,html-keyboard-response,389,502383,0.0-1.0-545.0-0.0,0,0,59346,,,,,,77.0,,,,,,,,,,,,,,,219.5,1.0,,,,,,,,,
390,,iti,,html-keyboard-response,390,503386,0.0-1.0-546.0,0,0,59346,,,,,,,,,,,,,,,,,,,,,220.5,1.0,,,,,,,,,
391,,rl_choice,,html-keyboard-response,391,504890,0.0-1.0-548.0,0,0,59346,,,,,,78.0,78.0,2.0,hard,1500.0,2000.0,1.0,60.0,40.0,60.0,20.0,B,A,/static/Simple_RL/Stimuli/Fractals_stims/B.jpg,/static/Simple_RL/Stimuli/Fractals_stims/A.jpg,222.0,1.5,1.0,,,,,,,,
392,,rl_choice_warning,,html-keyboard-response,392,505893,0.0-1.0-550.0-0.0,1,0,59346,,,,,,,,,,,,,,,,,,,,,223.0,1.0,,,,,,,,,
393,,isi,,html-keyboard-response,393,507896,0.0-1.0-551.0,0,0,59346,,,,,,,,,,,,,,,,,,,,,225.0,2.0,,,,,,,,,
394,,iti,,html-keyboard-response,394,509398,0.0-1.0-553.0,0,0,59346,,,,,,,,,,,,,,,,,,,,,226.5,1.5,,,,,,,,,
395,,rl_choice,,html-keyboard-response,395,509599,0.0-1.0-555.0,0,0,59346,,198.0,,,75.0,79.0,79.0,2.0,hard,1000.0,2000.0,1.0,60.0,40.0,40.0,60.0,B,A,/static/Simple_RL/Stimuli/Fractals_stims/B.jpg,/static/Simple_RL/Stimuli/Fractals_stims/A.jpg,226.698,0.198,0.0,0.0,40.0,60.0,60.0,40.0,A,B,
396,,rl_choice_confirmation,,html-keyboard-response,396,510905,0.0-1.0-556.0-0.0,0,0,59346,,,,,,79.0,,,,,,,,,,,,,,,228.0,1.302,,,,,,,,,
397,,isi,,html-keyboard-response,397,512908,0.0-1.0-558.0,0,0,59346,,,,,,,,,,,,,,,,,,,,,230.0,2.0,,,,,,,,,
398,,feedback,,html-keyboard-response,398,513912,0.0-1.0-559.0-0.0,0,0,59346,,,,,,79.0,,,,,,,,,,,,,,,231.0,1.0,,,,,,,,,
399,,iti,,html-keyboard-response,399,514916,0.0-1.0-560.0,0,0,59346,,,,,,,,,,,,,,,,,,,,,232.0,1.0,,,,,,,,,0.84
400,,final_tally,,html-keyboard-response,400,517898,0.0-2.0,0,0,59346,,2978.0,,,68.0,,,,,,,,,,,,,,,,,,,,,,,,,,
401,,debreif_intro,,html-keyboard-response,401,523301,0.0-3.0,0,0,59346,,5347.0,,,68.0,,,,,,,,,,,,,,,,,,,,,,,,,,
402,,debreif_age,,survey-text,402,528910,0.0-4.0,0,0,59346,,5605.0,"{""Q0"":""37""}",,,,,,,,,,,,,,,,,,,,,,,,,,,,
403,,debreif_gender,,survey-multi-choice,403,531520,0.0-5.0,0,0,59346,,2605.0,"{""Q0"":""Male""}",,,,,,,,,,,,,,,,,,,,,,,,,,,,
404,,debreif_dominant_hand,,survey-multi-choice,404,534100,0.0-6.0,0,0,59346,,2566.0,"{""Q0"":""Right""}",,,,,,,,,,,,,,,,,,,,,,,,,,,,
405,,debreif_native_language,,survey-multi-choice,405,537196,0.0-7.0,0,0,59346,,3078.0,"{""Q0"":""Yes""}",,,,,,,,,,,,,,,,,,,,,,,,,,,,
406,,debreif_fluency,,survey-likert,406,542193,0.0-8.0,0,0,59346,,4984.0,"{""Q0"":5}",,,,,,,,,,,,,,,,,,,,,,,,,,,,
407,,debreif_strategy_category_learning,,survey-text,407,562490,0.0-9.0,0,0,59346,,20278.0,"{""Q0"":""I thought about the value of each object""}",,,,,,,,,,,,,,,,,,,,,,,,,,,,
408,,debreif_strategy_old_trials,,survey-text,408,589891,0.0-10.0,0,0,59346,,27398.0,"{""Q0"":""I decided upon the looks of each object.""}",,,,,,,,,,,,,,,,,,,,,,,,,,,,
409,,debreif_strategy_category_memory,,survey-text,409,606874,0.0-11.0,0,0,59346,,16980.0,"{""Q0"":""The perceived value of each one.""}",,,,,,,,,,,,,,,,,,,,,,,,,,,,
410,,debreif_strategy_size,,survey-text,410,632192,0.0-12.0,0,0,59346,,25315.0,"{""Q0"":""I decided the real life size of each object.""}",,,,,,,,,,,,,,,,,,,,,,,,,,,,
411,,debreif_strategy_rl,,survey-text,411,647649,0.0-13.0,0,0,59346,,15454.0,"{""Q0"":""The physical appearance.""}",,,,,,,,,,,,,,,,,,,,,,,,,,,,
412,,debreif_clear_instructions,,survey-text,412,651528,0.0-14.0,0,0,59346,,3877.0,"{""Q0"":""No""}",,,,,,,,,,,,,,,,,,,,,,,,,,,,
413,,debreif_end,,html-keyboard-response,413,713028,0.0-15.0,0,0,59346,,61496.0,,,32.0,,,,,,,,,,,,,,,,,,,,,,,,,,
