,success,ttype,start_time,trial_type,trial_index,time_elapsed,internal_node_id,warning,missed_checkup,PID,view_history,rt,responses,repeat_instructions,key_press,index,trial_num,block,iti,pair_type,high_size_on_left,left_size_group,right_size_group,left_size_num,right_size_num,left_category,right_category,left_exemplar,right_exemplar,left_index,right_index,left_img_path,right_img_path,accuracy,onset,duration,no_response,left_chosen,chosen_category,unchosen_category,chosen_size_group,unchosen_size_group,chosen_size_num,unchosen_size_num,chosen_exemplar,unchosen_exemplar,size_final_tally
0,True,full_screen,d06032022hr2344,fullscreen,0,3023,0.0-0.0,0,0,27712,,,,,,,,,,,,,,,,,,,,,,,,,,,,,,,,,,,,,
1,,size_instructions,,instructions,1,26324,0.0-1.0-0.0-0.0,0,0,27712,"[{""page_index"":0,""viewing_time"":5961},{""page_index"":1,""viewing_time"":4441},{""page_index"":2,""viewing_time"":3819},{""page_index"":3,""viewing_time"":2549},{""page_index"":4,""viewing_time"":5407},{""page_index"":5,""viewing_time"":1119}]",23299.0,,,,,,,,,,,,,,,,,,,,,,,,,,,,,,,,,,,
2,,size_comprehension_check,,survey-multi-choice,2,35930,0.0-1.0-0.0-1.0,0,0,27712,,9600.0,"{""Q0"":""True"",""Q1"":""Size in the real world"",""Q2"":""True"",""Q3"":""D for left and K for right""}",0.0,,,,,,,,,,,,,,,,,,,,,,,,,,,,,,,,,
3,,,,html-keyboard-response,3,39704,0.0-1.0-1.0,0,0,27712,,3770.0,,,68.0,,,,,,,,,,,,,,,,,,,,,,,,,,,,,,,,
4,,size_choice,,html-keyboard-response,4,41208,0.0-1.0-2.0,0,0,27712,,,,,,0.0,0.0,1.0,2000.0,L-L,,L,L,3.0,3.0,deskchair,mailbox,deskchair10,mailbox3,19.0,42.0,/static/Size_judgement/Stimuli/Size_stims/L/deskchair/deskchair2.jpg,/static/Size_judgement/Stimuli/Size_stims/L/mailbox/mailbox1.jpg,,1.5,1.5,1.0,,,,,,,,,,
5,,iti,,html-keyboard-response,5,43213,0.0-1.0-4.0,0,0,27712,,,,,,,,,,,,,,,,,,,,,,,,,3.5,2.0,,,,,,,,,,,
6,,size_choice,,html-keyboard-response,6,44488,0.0-1.0-6.0,0,0,27712,,1273.0,,,68.0,1.0,1.0,1.0,1000.0,S-XL,1.0,XL,S,4.0,1.0,dumptruck,teabag,dumptruck9,teabag3,178.0,132.0,/static/Size_judgement/Stimuli/Size_stims/XL/dumptruck/dumptruck5.jpg,/static/Size_judgement/Stimuli/Size_stims/S/teabag/teabag1.jpg,1.0,4.773,1.273,0.0,1.0,dumptruck,teabag,XL,S,4.0,1.0,dumptruck9,teabag3,
7,,size_choice_confirmation,,html-keyboard-response,7,44717,0.0-1.0-7.0-0.0,0,0,27712,,,,,,1.0,,,,,,,,,,,,,,,,,,,5.0,0.227,,,,,,,,,,,
8,,iti,,html-keyboard-response,8,45719,0.0-1.0-8.0,0,0,27712,,,,,,,,,,,,,,,,,,,,,,,,,6.0,1.0,,,,,,,,,,,
9,,size_choice,,html-keyboard-response,9,46668,0.0-1.0-10.0,0,0,27712,,947.0,,,68.0,2.0,2.0,1.0,1000.0,M-L,1.0,L,M,3.0,2.0,mailbox,ketchup,mailbox9,ketchup7,48.0,96.0,/static/Size_judgement/Stimuli/Size_stims/L/mailbox/mailbox9.jpg,/static/Size_judgement/Stimuli/Size_stims/M/ketchup/ketchup4.jpg,1.0,6.947,0.947,0.0,1.0,mailbox,ketchup,L,M,3.0,2.0,mailbox9,ketchup7,
10,,size_choice_confirmation,,html-keyboard-response,10,47224,0.0-1.0-11.0-0.0,0,0,27712,,,,,,2.0,,,,,,,,,,,,,,,,,,,7.5,0.553,,,,,,,,,,,
11,,iti,,html-keyboard-response,11,48226,0.0-1.0-12.0,0,0,27712,,,,,,,,,,,,,,,,,,,,,,,,,8.5,1.0,,,,,,,,,,,
12,,size_choice,,html-keyboard-response,12,48963,0.0-1.0-14.0,0,0,27712,,735.0,,,68.0,3.0,3.0,1.0,2000.0,M-XL,1.0,XL,M,4.0,2.0,dumptruck,ketchup,dumptruck4,ketchup2,173.0,91.0,/static/Size_judgement/Stimuli/Size_stims/XL/dumptruck/dumptruck1.jpg,/static/Size_judgement/Stimuli/Size_stims/M/ketchup/ketchup9.jpg,1.0,9.235,0.735,0.0,1.0,dumptruck,ketchup,XL,M,4.0,2.0,dumptruck4,ketchup2,
13,,size_choice_confirmation,,html-keyboard-response,13,49730,0.0-1.0-15.0-0.0,0,0,27712,,,,,,3.0,,,,,,,,,,,,,,,,,,,10.0,0.765,,,,,,,,,,,
14,,iti,,html-keyboard-response,14,51735,0.0-1.0-16.0,0,0,27712,,,,,,,,,,,,,,,,,,,,,,,,,12.0,2.0,,,,,,,,,,,
15,,size_choice,,html-keyboard-response,15,52591,0.0-1.0-18.0,0,0,27712,,854.0,,,75.0,4.0,4.0,1.0,1000.0,L-XL,0.0,L,XL,3.0,4.0,garbagecan,dumptruck,garbagecan9,dumptruck7,38.0,176.0,/static/Size_judgement/Stimuli/Size_stims/L/garbagecan/garbagecan12.jpg,/static/Size_judgement/Stimuli/Size_stims/XL/dumptruck/dumptruck6.jpg,1.0,12.854,0.854,0.0,0.0,dumptruck,garbagecan,XL,L,4.0,3.0,dumptruck7,garbagecan9,
16,,size_choice_confirmation,,html-keyboard-response,16,53239,0.0-1.0-19.0-0.0,0,0,27712,,,,,,4.0,,,,,,,,,,,,,,,,,,,13.5,0.646,,,,,,,,,,,
17,,iti,,html-keyboard-response,17,54242,0.0-1.0-20.0,0,0,27712,,,,,,,,,,,,,,,,,,,,,,,,,14.5,1.0,,,,,,,,,,,
18,,size_choice,,html-keyboard-response,18,54849,0.0-1.0-22.0,0,0,27712,,605.0,,,68.0,5.0,5.0,1.0,1500.0,S-L,1.0,L,S,3.0,1.0,mailbox,thread,mailbox8,thread8,47.0,147.0,/static/Size_judgement/Stimuli/Size_stims/L/mailbox/mailbox10.jpg,/static/Size_judgement/Stimuli/Size_stims/S/thread/thread10.jpg,1.0,15.105,0.605,0.0,1.0,mailbox,thread,L,S,3.0,1.0,mailbox8,thread8,
19,,size_choice_confirmation,,html-keyboard-response,19,55746,0.0-1.0-23.0-0.0,0,0,27712,,,,,,5.0,,,,,,,,,,,,,,,,,,,16.0,0.895,,,,,,,,,,,
20,,iti,,html-keyboard-response,20,57250,0.0-1.0-24.0,0,0,27712,,,,,,,,,,,,,,,,,,,,,,,,,17.5,1.5,,,,,,,,,,,
21,,size_choice,,html-keyboard-response,21,57932,0.0-1.0-26.0,0,0,27712,,679.0,,,68.0,6.0,6.0,1.0,2000.0,S-L,1.0,L,S,3.0,1.0,garbagecan,teabag,garbagecan6,teabag10,35.0,139.0,/static/Size_judgement/Stimuli/Size_stims/L/garbagecan/garbagecan14.jpg,/static/Size_judgement/Stimuli/Size_stims/S/teabag/teabag4.jpg,1.0,18.179,0.679,0.0,1.0,garbagecan,teabag,L,S,3.0,1.0,garbagecan6,teabag10,
22,,size_choice_confirmation,,html-keyboard-response,22,58756,0.0-1.0-27.0-0.0,0,0,27712,,,,,,6.0,,,,,,,,,,,,,,,,,,,19.0,0.821,,,,,,,,,,,
23,,iti,,html-keyboard-response,23,60761,0.0-1.0-28.0,0,0,27712,,,,,,,,,,,,,,,,,,,,,,,,,21.0,2.0,,,,,,,,,,,
24,,size_choice,,html-keyboard-response,24,61290,0.0-1.0-30.0,0,0,27712,,527.0,,,68.0,7.0,7.0,1.0,1000.0,M-XL,1.0,XL,M,4.0,2.0,car,ketchup,car2,ketchup5,151.0,94.0,/static/Size_judgement/Stimuli/Size_stims/XL/car/car3.jpg,/static/Size_judgement/Stimuli/Size_stims/M/ketchup/ketchup3.jpg,1.0,21.527,0.527,0.0,1.0,car,ketchup,XL,M,4.0,2.0,car2,ketchup5,
25,,size_choice_confirmation,,html-keyboard-response,25,62266,0.0-1.0-31.0-0.0,0,0,27712,,,,,,7.0,,,,,,,,,,,,,,,,,,,22.5,0.973,,,,,,,,,,,
26,,iti,,html-keyboard-response,26,63270,0.0-1.0-32.0,0,0,27712,,,,,,,,,,,,,,,,,,,,,,,,,23.5,1.0,,,,,,,,,,,
27,,size_choice,,html-keyboard-response,27,63868,0.0-1.0-34.0,0,0,27712,,596.0,,,68.0,8.0,8.0,1.0,1000.0,XL-XL,,XL,XL,4.0,4.0,van,car,van3,car4,192.0,153.0,/static/Size_judgement/Stimuli/Size_stims/XL/van/van6.jpg,/static/Size_judgement/Stimuli/Size_stims/XL/car/car6.jpg,,24.096,0.596,0.0,1.0,van,car,XL,XL,4.0,4.0,van3,car4,
28,,size_choice_confirmation,,html-keyboard-response,28,64774,0.0-1.0-35.0-0.0,0,0,27712,,,,,,8.0,,,,,,,,,,,,,,,,,,,25.0,0.904,,,,,,,,,,,
29,,iti,,html-keyboard-response,29,65779,0.0-1.0-36.0,0,0,27712,,,,,,,,,,,,,,,,,,,,,,,,,26.0,1.0,,,,,,,,,,,
30,,size_choice,,html-keyboard-response,30,66325,0.0-1.0-38.0,0,0,27712,,543.0,,,75.0,9.0,9.0,1.0,1500.0,S-XL,0.0,S,XL,1.0,4.0,teabag,dumptruck,teabag8,dumptruck8,137.0,177.0,/static/Size_judgement/Stimuli/Size_stims/S/teabag/teabag7.jpg,/static/Size_judgement/Stimuli/Size_stims/XL/dumptruck/dumptruck7.jpg,1.0,26.543,0.543,0.0,0.0,dumptruck,teabag,XL,S,4.0,1.0,dumptruck8,teabag8,
31,,size_choice_confirmation,,html-keyboard-response,31,67284,0.0-1.0-39.0-0.0,0,0,27712,,,,,,9.0,,,,,,,,,,,,,,,,,,,27.5,0.957,,,,,,,,,,,
32,,iti,,html-keyboard-response,32,68790,0.0-1.0-40.0,0,0,27712,,,,,,,,,,,,,,,,,,,,,,,,,29.0,1.5,,,,,,,,,,,
33,,size_choice,,html-keyboard-response,33,69663,0.0-1.0-42.0,0,0,27712,,871.0,,,68.0,10.0,10.0,1.0,1000.0,M-M,,M,M,2.0,2.0,handsaw,ketchup,handsaw4,ketchup9,83.0,98.0,/static/Size_judgement/Stimuli/Size_stims/M/handsaw/handsaw3.jpg,/static/Size_judgement/Stimuli/Size_stims/M/ketchup/ketchup7.jpg,,29.871,0.871,0.0,1.0,handsaw,ketchup,M,M,2.0,2.0,handsaw4,ketchup9,
34,,size_choice_confirmation,,html-keyboard-response,34,70296,0.0-1.0-43.0-0.0,0,0,27712,,,,,,10.0,,,,,,,,,,,,,,,,,,,30.5,0.629,,,,,,,,,,,
35,,iti,,html-keyboard-response,35,71302,0.0-1.0-44.0,0,0,27712,,,,,,,,,,,,,,,,,,,,,,,,,31.5,1.0,,,,,,,,,,,
36,,size_choice,,html-keyboard-response,36,72177,0.0-1.0-46.0,0,0,27712,,872.0,,,68.0,11.0,11.0,1.0,1000.0,M-L,0.0,M,L,2.0,3.0,hairdryer,garbagecan,hairdryer6,garbagecan3,75.0,32.0,/static/Size_judgement/Stimuli/Size_stims/M/hairdryer/hairdryer8.jpg,/static/Size_judgement/Stimuli/Size_stims/L/garbagecan/garbagecan7.jpg,0.0,32.372,0.872,0.0,1.0,hairdryer,garbagecan,M,L,2.0,3.0,hairdryer6,garbagecan3,
37,,size_choice_confirmation,,html-keyboard-response,37,72807,0.0-1.0-47.0-0.0,0,0,27712,,,,,,11.0,,,,,,,,,,,,,,,,,,,33.0,0.628,,,,,,,,,,,
38,,iti,,html-keyboard-response,38,73808,0.0-1.0-48.0,0,0,27712,,,,,,,,,,,,,,,,,,,,,,,,,34.0,1.0,,,,,,,,,,,
39,,size_choice,,html-keyboard-response,39,74975,0.0-1.0-50.0,0,0,27712,,1165.0,,,75.0,12.0,12.0,1.0,2000.0,M-L,0.0,M,L,2.0,3.0,coffeemaker,garbagecan,coffeemaker5,garbagecan4,64.0,33.0,/static/Size_judgement/Stimuli/Size_stims/M/coffeemaker/coffeemaker10.jpg,/static/Size_judgement/Stimuli/Size_stims/L/garbagecan/garbagecan6.jpg,1.0,35.165,1.165,0.0,0.0,garbagecan,coffeemaker,L,M,3.0,2.0,garbagecan4,coffeemaker5,
40,,size_choice_confirmation,,html-keyboard-response,40,75312,0.0-1.0-51.0-0.0,0,0,27712,,,,,,12.0,,,,,,,,,,,,,,,,,,,35.5,0.335,,,,,,,,,,,
41,,iti,,html-keyboard-response,41,77317,0.0-1.0-52.0,0,0,27712,,,,,,,,,,,,,,,,,,,,,,,,,37.5,2.0,,,,,,,,,,,
42,,size_choice,,html-keyboard-response,42,77995,0.0-1.0-54.0,0,0,27712,,675.0,,,75.0,13.0,13.0,1.0,1000.0,S-L,0.0,S,L,1.0,3.0,screws,garbagecan,screws10,garbagecan2,129.0,31.0,/static/Size_judgement/Stimuli/Size_stims/S/screws/screws9.jpg,/static/Size_judgement/Stimuli/Size_stims/L/garbagecan/garbagecan5.jpg,1.0,38.175,0.675,0.0,0.0,garbagecan,screws,L,S,3.0,1.0,garbagecan2,screws10,
43,,size_choice_confirmation,,html-keyboard-response,43,78822,0.0-1.0-55.0-0.0,0,0,27712,,,,,,13.0,,,,,,,,,,,,,,,,,,,39.0,0.825,,,,,,,,,,,
44,,iti,,html-keyboard-response,44,79824,0.0-1.0-56.0,0,0,27712,,,,,,,,,,,,,,,,,,,,,,,,,40.0,1.0,,,,,,,,,,,
45,,size_choice,,html-keyboard-response,45,80464,0.0-1.0-58.0,0,0,27712,,638.0,,,68.0,14.0,14.0,1.0,1000.0,M-XL,1.0,XL,M,4.0,2.0,dumptruck,hairdryer,dumptruck5,hairdryer4,174.0,73.0,/static/Size_judgement/Stimuli/Size_stims/XL/dumptruck/dumptruck3.jpg,/static/Size_judgement/Stimuli/Size_stims/M/hairdryer/hairdryer16.jpg,1.0,40.638,0.638,0.0,1.0,dumptruck,hairdryer,XL,M,4.0,2.0,dumptruck5,hairdryer4,
46,,size_choice_confirmation,,html-keyboard-response,46,81330,0.0-1.0-59.0-0.0,0,0,27712,,,,,,14.0,,,,,,,,,,,,,,,,,,,41.5,0.862,,,,,,,,,,,
47,,iti,,html-keyboard-response,47,82338,0.0-1.0-60.0,0,0,27712,,,,,,,,,,,,,,,,,,,,,,,,,42.5,1.0,,,,,,,,,,,
48,,size_choice,,html-keyboard-response,48,83487,0.0-1.0-62.0,0,0,27712,,1147.0,,,68.0,15.0,15.0,1.0,1000.0,S-XL,1.0,XL,S,4.0,1.0,van,screws,van5,screws1,194.0,120.0,/static/Size_judgement/Stimuli/Size_stims/XL/van/van3.jpg,/static/Size_judgement/Stimuli/Size_stims/S/screws/screws4.jpg,1.0,43.647,1.147,0.0,1.0,van,screws,XL,S,4.0,1.0,van5,screws1,
49,,size_choice_confirmation,,html-keyboard-response,49,83842,0.0-1.0-63.0-0.0,0,0,27712,,,,,,15.0,,,,,,,,,,,,,,,,,,,44.0,0.353,,,,,,,,,,,
50,,iti,,html-keyboard-response,50,84848,0.0-1.0-64.0,0,0,27712,,,,,,,,,,,,,,,,,,,,,,,,,45.0,1.0,,,,,,,,,,,
51,,size_choice,,html-keyboard-response,51,86230,0.0-1.0-66.0,0,0,27712,,1380.0,,,75.0,16.0,16.0,1.0,3000.0,S-M,0.0,S,M,1.0,2.0,teabag,coffeemaker,teabag9,coffeemaker8,138.0,67.0,/static/Size_judgement/Stimuli/Size_stims/S/teabag/teabag5.jpg,/static/Size_judgement/Stimuli/Size_stims/M/coffeemaker/coffeemaker5.jpg,1.0,46.38,1.38,0.0,0.0,coffeemaker,teabag,M,S,2.0,1.0,coffeemaker8,teabag9,
52,,size_choice_confirmation,,html-keyboard-response,52,86352,0.0-1.0-67.0-0.0,0,0,27712,,,,,,16.0,,,,,,,,,,,,,,,,,,,46.5,0.12,,,,,,,,,,,
53,,iti,,html-keyboard-response,53,89354,0.0-1.0-68.0,0,0,27712,,,,,,,,,,,,,,,,,,,,,,,,,49.5,3.0,,,,,,,,,,,
54,,size_choice,,html-keyboard-response,54,89962,0.0-1.0-70.0,0,0,27712,,606.0,,,68.0,17.0,17.0,1.0,1000.0,M-XL,1.0,XL,M,4.0,2.0,dumptruck,hairdryer,dumptruck10,hairdryer8,179.0,77.0,/static/Size_judgement/Stimuli/Size_stims/XL/dumptruck/dumptruck4.jpg,/static/Size_judgement/Stimuli/Size_stims/M/hairdryer/hairdryer1.jpg,1.0,50.106,0.606,0.0,1.0,dumptruck,hairdryer,XL,M,4.0,2.0,dumptruck10,hairdryer8,
55,,size_choice_confirmation,,html-keyboard-response,55,90861,0.0-1.0-71.0-0.0,0,0,27712,,,,,,17.0,,,,,,,,,,,,,,,,,,,51.0,0.894,,,,,,,,,,,
56,,iti,,html-keyboard-response,56,91863,0.0-1.0-72.0,0,0,27712,,,,,,,,,,,,,,,,,,,,,,,,,52.0,1.0,,,,,,,,,,,
57,,size_choice,,html-keyboard-response,57,92408,0.0-1.0-74.0,0,0,27712,,543.0,,,75.0,18.0,18.0,1.0,1500.0,S-L,0.0,S,L,1.0,3.0,die,mailbox,die10,mailbox10,109.0,49.0,/static/Size_judgement/Stimuli/Size_stims/S/die/die6.jpg,/static/Size_judgement/Stimuli/Size_stims/L/mailbox/mailbox8.jpg,1.0,52.543,0.543,0.0,0.0,mailbox,die,L,S,3.0,1.0,mailbox10,die10,
58,,size_choice_confirmation,,html-keyboard-response,58,93369,0.0-1.0-75.0-0.0,0,0,27712,,,,,,18.0,,,,,,,,,,,,,,,,,,,53.5,0.957,,,,,,,,,,,
59,,iti,,html-keyboard-response,59,94874,0.0-1.0-76.0,0,0,27712,,,,,,,,,,,,,,,,,,,,,,,,,55.0,1.5,,,,,,,,,,,
60,,size_choice,,html-keyboard-response,60,95452,0.0-1.0-78.0,0,0,27712,,576.0,,,68.0,19.0,19.0,1.0,1000.0,S-XL,1.0,XL,S,4.0,1.0,dumptruck,die,dumptruck1,die6,170.0,105.0,/static/Size_judgement/Stimuli/Size_stims/XL/dumptruck/dumptruck9.jpg,/static/Size_judgement/Stimuli/Size_stims/S/die/die1.jpg,1.0,55.576,0.576,0.0,1.0,dumptruck,die,XL,S,4.0,1.0,dumptruck1,die6,
61,,size_choice_confirmation,,html-keyboard-response,61,96380,0.0-1.0-79.0-0.0,0,0,27712,,,,,,19.0,,,,,,,,,,,,,,,,,,,56.5,0.924,,,,,,,,,,,
62,,iti,,html-keyboard-response,62,97381,0.0-1.0-80.0,0,0,27712,,,,,,,,,,,,,,,,,,,,,,,,,57.5,1.0,,,,,,,,,,,
63,,size_choice,,html-keyboard-response,63,98633,0.0-1.0-82.0,0,0,27712,,1250.0,,,75.0,20.0,20.0,1.0,1500.0,M-XL,0.0,M,XL,2.0,4.0,basketball,tractor,basketball7,tractor6,56.0,185.0,/static/Size_judgement/Stimuli/Size_stims/M/basketball/basketball6.jpg,/static/Size_judgement/Stimuli/Size_stims/XL/tractor/tractor3.jpg,1.0,58.75,1.25,0.0,0.0,tractor,basketball,XL,M,4.0,2.0,tractor6,basketball7,
64,,size_choice_confirmation,,html-keyboard-response,64,98886,0.0-1.0-83.0-0.0,0,0,27712,,,,,,20.0,,,,,,,,,,,,,,,,,,,59.0,0.25,,,,,,,,,,,
65,,iti,,html-keyboard-response,65,100389,0.0-1.0-84.0,0,0,27712,,,,,,,,,,,,,,,,,,,,,,,,,60.5,1.5,,,,,,,,,,,
66,,size_choice,,html-keyboard-response,66,101199,0.0-1.0-86.0,0,0,27712,,809.0,,,68.0,21.0,21.0,1.0,3000.0,M-M,,M,M,2.0,2.0,handsaw,ketchup,handsaw10,ketchup8,89.0,97.0,/static/Size_judgement/Stimuli/Size_stims/M/handsaw/handsaw10.jpg,/static/Size_judgement/Stimuli/Size_stims/M/ketchup/ketchup5.jpg,,61.309,0.809,0.0,1.0,handsaw,ketchup,M,M,2.0,2.0,handsaw10,ketchup8,
67,,size_choice_confirmation,,html-keyboard-response,67,101892,0.0-1.0-87.0-0.0,0,0,27712,,,,,,21.0,,,,,,,,,,,,,,,,,,,62.0,0.691,,,,,,,,,,,
68,,iti,,html-keyboard-response,68,104895,0.0-1.0-88.0,0,0,27712,,,,,,,,,,,,,,,,,,,,,,,,,65.0,3.0,,,,,,,,,,,
69,,size_choice,,html-keyboard-response,69,105619,0.0-1.0-90.0,0,0,27712,,722.0,,,68.0,22.0,22.0,1.0,1000.0,S-S,,S,S,1.0,1.0,thread,paperclip,thread7,paperclip1,146.0,110.0,/static/Size_judgement/Stimuli/Size_stims/S/thread/thread3.jpg,/static/Size_judgement/Stimuli/Size_stims/S/paperclip/paperclip9.jpg,,65.722,0.722,0.0,1.0,thread,paperclip,S,S,1.0,1.0,thread7,paperclip1,
70,,size_choice_confirmation,,html-keyboard-response,70,106399,0.0-1.0-91.0-0.0,0,0,27712,,,,,,22.0,,,,,,,,,,,,,,,,,,,66.5,0.778,,,,,,,,,,,
71,,iti,,html-keyboard-response,71,107401,0.0-1.0-92.0,0,0,27712,,,,,,,,,,,,,,,,,,,,,,,,,67.5,1.0,,,,,,,,,,,
72,,size_choice,,html-keyboard-response,72,108024,0.0-1.0-94.0,0,0,27712,,620.0,,,68.0,23.0,23.0,1.0,1500.0,M-XL,1.0,XL,M,4.0,2.0,car,handsaw,car6,handsaw2,155.0,81.0,/static/Size_judgement/Stimuli/Size_stims/XL/car/car12.jpg,/static/Size_judgement/Stimuli/Size_stims/M/handsaw/handsaw9.jpg,1.0,68.12,0.62,0.0,1.0,car,handsaw,XL,M,4.0,2.0,car6,handsaw2,
73,,size_choice_confirmation,,html-keyboard-response,73,108907,0.0-1.0-95.0-0.0,0,0,27712,,,,,,23.0,,,,,,,,,,,,,,,,,,,69.0,0.88,,,,,,,,,,,
74,,iti,,html-keyboard-response,74,110409,0.0-1.0-96.0,0,0,27712,,,,,,,,,,,,,,,,,,,,,,,,,70.5,1.5,,,,,,,,,,,
75,,size_choice,,html-keyboard-response,75,111257,0.0-1.0-98.0,0,0,27712,,846.0,,,75.0,24.0,24.0,1.0,1500.0,S-L,0.0,S,L,1.0,3.0,die,deskchair,die3,deskchair6,102.0,15.0,/static/Size_judgement/Stimuli/Size_stims/S/die/die10.jpg,/static/Size_judgement/Stimuli/Size_stims/L/deskchair/deskchair5.jpg,1.0,71.346,0.846,0.0,0.0,deskchair,die,L,S,3.0,1.0,deskchair6,die3,
76,,size_choice_confirmation,,html-keyboard-response,76,111913,0.0-1.0-99.0-0.0,0,0,27712,,,,,,24.0,,,,,,,,,,,,,,,,,,,72.0,0.654,,,,,,,,,,,
77,,iti,,html-keyboard-response,77,113416,0.0-1.0-100.0,0,0,27712,,,,,,,,,,,,,,,,,,,,,,,,,73.5,1.5,,,,,,,,,,,
78,,size_choice,,html-keyboard-response,78,114307,0.0-1.0-102.0,0,0,27712,,889.0,,,75.0,25.0,25.0,1.0,1500.0,S-S,,S,S,1.0,1.0,paperclip,die,paperclip9,die1,118.0,100.0,/static/Size_judgement/Stimuli/Size_stims/S/paperclip/paperclip4.jpg,/static/Size_judgement/Stimuli/Size_stims/S/die/die8.jpg,,74.389,0.889,0.0,0.0,die,paperclip,S,S,1.0,1.0,die1,paperclip9,
79,,size_choice_confirmation,,html-keyboard-response,79,114923,0.0-1.0-103.0-0.0,0,0,27712,,,,,,25.0,,,,,,,,,,,,,,,,,,,75.0,0.611,,,,,,,,,,,
80,,iti,,html-keyboard-response,80,116425,0.0-1.0-104.0,0,0,27712,,,,,,,,,,,,,,,,,,,,,,,,,76.5,1.5,,,,,,,,,,,
81,,size_choice,,html-keyboard-response,81,117266,0.0-1.0-106.0,0,0,27712,,839.0,,,75.0,26.0,26.0,1.0,2000.0,M-L,0.0,M,L,2.0,3.0,basketball,deskchair,basketball4,deskchair9,53.0,18.0,/static/Size_judgement/Stimuli/Size_stims/M/basketball/basketball1.jpg,/static/Size_judgement/Stimuli/Size_stims/L/deskchair/deskchair3.jpg,1.0,77.339,0.839,0.0,0.0,deskchair,basketball,L,M,3.0,2.0,deskchair9,basketball4,
82,,size_choice_confirmation,,html-keyboard-response,82,117931,0.0-1.0-107.0-0.0,0,0,27712,,,,,,26.0,,,,,,,,,,,,,,,,,,,78.0,0.661,,,,,,,,,,,
83,,iti,,html-keyboard-response,83,119936,0.0-1.0-108.0,0,0,27712,,,,,,,,,,,,,,,,,,,,,,,,,80.0,2.0,,,,,,,,,,,
84,,size_choice,,html-keyboard-response,84,120632,0.0-1.0-110.0,0,0,27712,,693.0,,,75.0,27.0,27.0,1.0,1500.0,S-XL,0.0,S,XL,1.0,4.0,screws,crane,screws6,crane6,125.0,165.0,/static/Size_judgement/Stimuli/Size_stims/S/screws/screws3.jpg,/static/Size_judgement/Stimuli/Size_stims/XL/crane/crane2.jpg,1.0,80.693,0.693,0.0,0.0,crane,screws,XL,S,4.0,1.0,crane6,screws6,
85,,size_choice_confirmation,,html-keyboard-response,85,121443,0.0-1.0-111.0-0.0,0,0,27712,,,,,,27.0,,,,,,,,,,,,,,,,,,,81.5,0.807,,,,,,,,,,,
86,,iti,,html-keyboard-response,86,122947,0.0-1.0-112.0,0,0,27712,,,,,,,,,,,,,,,,,,,,,,,,,83.0,1.5,,,,,,,,,,,
87,,size_choice,,html-keyboard-response,87,124033,0.0-1.0-114.0,0,0,27712,,1084.0,,,75.0,28.0,28.0,1.0,3000.0,M-L,0.0,M,L,2.0,3.0,coffeemaker,dishwasher,coffeemaker1,dishwasher7,60.0,26.0,/static/Size_judgement/Stimuli/Size_stims/M/coffeemaker/coffeemaker14.jpg,/static/Size_judgement/Stimuli/Size_stims/L/dishwasher/dishwasher7.jpg,1.0,84.084,1.084,0.0,0.0,dishwasher,coffeemaker,L,M,3.0,2.0,dishwasher7,coffeemaker1,
88,,size_choice_confirmation,,html-keyboard-response,88,124451,0.0-1.0-115.0-0.0,0,0,27712,,,,,,28.0,,,,,,,,,,,,,,,,,,,84.5,0.416,,,,,,,,,,,
89,,iti,,html-keyboard-response,89,127453,0.0-1.0-116.0,0,0,27712,,,,,,,,,,,,,,,,,,,,,,,,,87.5,3.0,,,,,,,,,,,
90,,size_choice,,html-keyboard-response,90,128056,0.0-1.0-118.0,0,0,27712,,601.0,,,75.0,29.0,29.0,1.0,2000.0,L-XL,0.0,L,XL,3.0,4.0,mailbox,tractor,mailbox6,tractor2,45.0,181.0,/static/Size_judgement/Stimuli/Size_stims/L/mailbox/mailbox6.jpg,/static/Size_judgement/Stimuli/Size_stims/XL/tractor/tractor7.jpg,1.0,88.101,0.601,0.0,0.0,tractor,mailbox,XL,L,4.0,3.0,tractor2,mailbox6,
91,,size_choice_confirmation,,html-keyboard-response,91,128957,0.0-1.0-119.0-0.0,0,0,27712,,,,,,29.0,,,,,,,,,,,,,,,,,,,89.0,0.899,,,,,,,,,,,
92,,iti,,html-keyboard-response,92,130962,0.0-1.0-120.0,0,0,27712,,,,,,,,,,,,,,,,,,,,,,,,,91.0,2.0,,,,,,,,,,,
93,,size_choice,,html-keyboard-response,93,131564,0.0-1.0-122.0,0,0,27712,,600.0,,,75.0,30.0,30.0,1.0,1500.0,S-XL,0.0,S,XL,1.0,4.0,teabag,crane,teabag5,crane7,134.0,166.0,/static/Size_judgement/Stimuli/Size_stims/S/teabag/teabag2.jpg,/static/Size_judgement/Stimuli/Size_stims/XL/crane/crane3.jpg,1.0,91.6,0.6,0.0,0.0,crane,teabag,XL,S,4.0,1.0,crane7,teabag5,
94,,size_choice_confirmation,,html-keyboard-response,94,132466,0.0-1.0-123.0-0.0,0,0,27712,,,,,,30.0,,,,,,,,,,,,,,,,,,,92.5,0.9,,,,,,,,,,,
95,,iti,,html-keyboard-response,95,133968,0.0-1.0-124.0,0,0,27712,,,,,,,,,,,,,,,,,,,,,,,,,94.0,1.5,,,,,,,,,,,
96,,size_choice,,html-keyboard-response,96,134631,0.0-1.0-126.0,0,0,27712,,661.0,,,75.0,31.0,31.0,1.0,3500.0,M-L,0.0,M,L,2.0,3.0,coffeemaker,cooler,coffeemaker4,cooler10,63.0,9.0,/static/Size_judgement/Stimuli/Size_stims/M/coffeemaker/coffeemaker11.jpg,/static/Size_judgement/Stimuli/Size_stims/L/cooler/cooler6.jpg,1.0,94.661,0.661,0.0,0.0,cooler,coffeemaker,L,M,3.0,2.0,cooler10,coffeemaker4,
97,,size_choice_confirmation,,html-keyboard-response,97,135476,0.0-1.0-127.0-0.0,0,0,27712,,,,,,31.0,,,,,,,,,,,,,,,,,,,95.5,0.839,,,,,,,,,,,
98,,iti,,html-keyboard-response,98,138978,0.0-1.0-128.0,0,0,27712,,,,,,,,,,,,,,,,,,,,,,,,,99.0,3.5,,,,,,,,,,,
99,,size_choice,,html-keyboard-response,99,139520,0.0-1.0-130.0,0,0,27712,,539.0,,,75.0,32.0,32.0,1.0,3000.0,S-XL,0.0,S,XL,1.0,4.0,paperclip,car,paperclip4,car1,113.0,150.0,/static/Size_judgement/Stimuli/Size_stims/S/paperclip/paperclip3.jpg,/static/Size_judgement/Stimuli/Size_stims/XL/car/car2.jpg,1.0,99.539,0.539,0.0,0.0,car,paperclip,XL,S,4.0,1.0,car1,paperclip4,
100,,size_choice_confirmation,,html-keyboard-response,100,140484,0.0-1.0-131.0-0.0,0,0,27712,,,,,,32.0,,,,,,,,,,,,,,,,,,,100.5,0.961,,,,,,,,,,,
101,,iti,,html-keyboard-response,101,143490,0.0-1.0-132.0,0,0,27712,,,,,,,,,,,,,,,,,,,,,,,,,103.5,3.0,,,,,,,,,,,
102,,size_choice,,html-keyboard-response,102,144583,0.0-1.0-134.0,0,0,27712,,1092.0,,,75.0,33.0,33.0,1.0,1000.0,M-M,,M,M,2.0,2.0,ketchup,hairdryer,ketchup3,hairdryer2,92.0,71.0,/static/Size_judgement/Stimuli/Size_stims/M/ketchup/ketchup10.jpg,/static/Size_judgement/Stimuli/Size_stims/M/hairdryer/hairdryer12.jpg,,104.592,1.092,0.0,0.0,hairdryer,ketchup,M,M,2.0,2.0,hairdryer2,ketchup3,
103,,size_choice_confirmation,,html-keyboard-response,103,144995,0.0-1.0-135.0-0.0,0,0,27712,,,,,,33.0,,,,,,,,,,,,,,,,,,,105.0,0.408,,,,,,,,,,,
104,,iti,,html-keyboard-response,104,146004,0.0-1.0-136.0,0,0,27712,,,,,,,,,,,,,,,,,,,,,,,,,106.0,1.0,,,,,,,,,,,
105,,size_choice,,html-keyboard-response,105,147361,0.0-1.0-138.0,0,0,27712,,1355.0,,,68.0,34.0,34.0,1.0,2000.0,S-S,,S,S,1.0,1.0,teabag,screws,teabag4,screws4,133.0,123.0,/static/Size_judgement/Stimuli/Size_stims/S/teabag/teabag3.jpg,/static/Size_judgement/Stimuli/Size_stims/S/screws/screws6.jpg,,107.355,1.355,0.0,1.0,teabag,screws,S,S,1.0,1.0,teabag4,screws4,
106,,size_choice_confirmation,,html-keyboard-response,106,147511,0.0-1.0-139.0-0.0,0,0,27712,,,,,,34.0,,,,,,,,,,,,,,,,,,,107.5,0.145,,,,,,,,,,,
107,,iti,,html-keyboard-response,107,149513,0.0-1.0-140.0,0,0,27712,,,,,,,,,,,,,,,,,,,,,,,,,109.5,2.0,,,,,,,,,,,
108,,size_choice,,html-keyboard-response,108,150321,0.0-1.0-142.0,0,0,27712,,805.0,,,75.0,35.0,35.0,1.0,1000.0,M-L,0.0,M,L,2.0,3.0,basketball,dishwasher,basketball6,dishwasher1,55.0,20.0,/static/Size_judgement/Stimuli/Size_stims/M/basketball/basketball2.jpg,/static/Size_judgement/Stimuli/Size_stims/L/dishwasher/dishwasher10.jpg,1.0,110.305,0.805,0.0,0.0,dishwasher,basketball,L,M,3.0,2.0,dishwasher1,basketball6,
109,,size_choice_confirmation,,html-keyboard-response,109,151020,0.0-1.0-143.0-0.0,0,0,27712,,,,,,35.0,,,,,,,,,,,,,,,,,,,111.0,0.695,,,,,,,,,,,
110,,iti,,html-keyboard-response,110,152022,0.0-1.0-144.0,0,0,27712,,,,,,,,,,,,,,,,,,,,,,,,,112.0,1.0,,,,,,,,,,,
111,,size_choice,,html-keyboard-response,111,152585,0.0-1.0-146.0,0,0,27712,,561.0,,,68.0,36.0,36.0,1.0,1500.0,M-XL,1.0,XL,M,4.0,2.0,tractor,ketchup,tractor10,ketchup6,189.0,95.0,/static/Size_judgement/Stimuli/Size_stims/XL/tractor/tractor8.jpg,/static/Size_judgement/Stimuli/Size_stims/M/ketchup/ketchup1.jpg,1.0,112.561,0.561,0.0,1.0,tractor,ketchup,XL,M,4.0,2.0,tractor10,ketchup6,
112,,size_choice_confirmation,,html-keyboard-response,112,153527,0.0-1.0-147.0-0.0,0,0,27712,,,,,,36.0,,,,,,,,,,,,,,,,,,,113.5,0.939,,,,,,,,,,,
113,,iti,,html-keyboard-response,113,155032,0.0-1.0-148.0,0,0,27712,,,,,,,,,,,,,,,,,,,,,,,,,115.0,1.5,,,,,,,,,,,
114,,size_choice,,html-keyboard-response,114,155932,0.0-1.0-150.0,0,0,27712,,898.0,,,75.0,37.0,37.0,1.0,3500.0,XL-XL,,XL,XL,4.0,4.0,crane,car,crane10,car8,169.0,157.0,/static/Size_judgement/Stimuli/Size_stims/XL/crane/crane9.jpg,/static/Size_judgement/Stimuli/Size_stims/XL/car/car14.jpg,,115.898,0.898,0.0,0.0,car,crane,XL,XL,4.0,4.0,car8,crane10,
115,,size_choice_confirmation,,html-keyboard-response,115,156536,0.0-1.0-151.0-0.0,0,0,27712,,,,,,37.0,,,,,,,,,,,,,,,,,,,116.5,0.602,,,,,,,,,,,
116,,iti,,html-keyboard-response,116,160038,0.0-1.0-152.0,0,0,27712,,,,,,,,,,,,,,,,,,,,,,,,,120.0,3.5,,,,,,,,,,,
117,,size_choice,,html-keyboard-response,117,160921,0.0-1.0-154.0,0,0,27712,,882.0,,,68.0,38.0,38.0,1.0,1500.0,L-L,,L,L,3.0,3.0,dishwasher,garbagecan,dishwasher5,garbagecan5,24.0,34.0,/static/Size_judgement/Stimuli/Size_stims/L/dishwasher/dishwasher4.jpg,/static/Size_judgement/Stimuli/Size_stims/L/garbagecan/garbagecan3.jpg,,120.882,0.882,0.0,1.0,dishwasher,garbagecan,L,L,3.0,3.0,dishwasher5,garbagecan5,
118,,size_choice_confirmation,,html-keyboard-response,118,161545,0.0-1.0-155.0-0.0,0,0,27712,,,,,,38.0,,,,,,,,,,,,,,,,,,,121.5,0.618,,,,,,,,,,,
119,,iti,,html-keyboard-response,119,163051,0.0-1.0-156.0,0,0,27712,,,,,,,,,,,,,,,,,,,,,,,,,123.0,1.5,,,,,,,,,,,
120,,size_choice,,html-keyboard-response,120,163263,0.0-1.0-158.0,0,0,27712,,210.0,,,75.0,39.0,39.0,1.0,2000.0,L-L,,L,L,3.0,3.0,dishwasher,cooler,dishwasher10,cooler6,29.0,5.0,/static/Size_judgement/Stimuli/Size_stims/L/dishwasher/dishwasher1.jpg,/static/Size_judgement/Stimuli/Size_stims/L/cooler/cooler1.jpg,,123.21,0.21,0.0,0.0,cooler,dishwasher,L,L,3.0,3.0,cooler6,dishwasher10,
121,,size_choice_confirmation,,html-keyboard-response,121,164557,0.0-1.0-159.0-0.0,0,0,27712,,,,,,39.0,,,,,,,,,,,,,,,,,,,124.5,1.29,,,,,,,,,,,
122,,iti,,html-keyboard-response,122,166560,0.0-1.0-160.0,0,0,27712,,,,,,,,,,,,,,,,,,,,,,,,,126.5,2.0,,,,,,,,,,,
123,,size_choice,,html-keyboard-response,123,167565,0.0-1.0-162.0,0,0,27712,,1003.0,,,75.0,40.0,40.0,1.0,1500.0,S-M,0.0,S,M,1.0,2.0,screws,handsaw,screws3,handsaw3,122.0,82.0,/static/Size_judgement/Stimuli/Size_stims/S/screws/screws7.jpg,/static/Size_judgement/Stimuli/Size_stims/M/handsaw/handsaw2.jpg,1.0,127.503,1.003,0.0,0.0,handsaw,screws,M,S,2.0,1.0,handsaw3,screws3,
124,,size_choice_confirmation,,html-keyboard-response,124,168064,0.0-1.0-163.0-0.0,0,0,27712,,,,,,40.0,,,,,,,,,,,,,,,,,,,128.0,0.497,,,,,,,,,,,
125,,iti,,html-keyboard-response,125,169568,0.0-1.0-164.0,0,0,27712,,,,,,,,,,,,,,,,,,,,,,,,,129.5,1.5,,,,,,,,,,,
126,,size_choice,,html-keyboard-response,126,170202,0.0-1.0-166.0,0,0,27712,,631.0,,,68.0,41.0,41.0,1.0,3500.0,S-L,1.0,L,S,3.0,1.0,deskchair,thread,deskchair5,thread6,14.0,145.0,/static/Size_judgement/Stimuli/Size_stims/L/deskchair/deskchair7.jpg,/static/Size_judgement/Stimuli/Size_stims/S/thread/thread2.jpg,1.0,130.131,0.631,0.0,1.0,deskchair,thread,L,S,3.0,1.0,deskchair5,thread6,
127,,size_choice_confirmation,,html-keyboard-response,127,171073,0.0-1.0-167.0-0.0,0,0,27712,,,,,,41.0,,,,,,,,,,,,,,,,,,,131.0,0.869,,,,,,,,,,,
128,,iti,,html-keyboard-response,128,174575,0.0-1.0-168.0,0,0,27712,,,,,,,,,,,,,,,,,,,,,,,,,134.5,3.5,,,,,,,,,,,
129,,size_choice,,html-keyboard-response,129,175087,0.0-1.0-170.0,0,0,27712,,509.0,,,75.0,42.0,42.0,1.0,1000.0,S-M,0.0,S,M,1.0,2.0,paperclip,basketball,paperclip7,basketball8,116.0,57.0,/static/Size_judgement/Stimuli/Size_stims/S/paperclip/paperclip7.jpg,/static/Size_judgement/Stimuli/Size_stims/M/basketball/basketball7.jpg,1.0,135.009,0.509,0.0,0.0,basketball,paperclip,M,S,2.0,1.0,basketball8,paperclip7,
130,,size_choice_confirmation,,html-keyboard-response,130,176080,0.0-1.0-171.0-0.0,0,0,27712,,,,,,42.0,,,,,,,,,,,,,,,,,,,136.0,0.991,,,,,,,,,,,
131,,iti,,html-keyboard-response,131,177082,0.0-1.0-172.0,0,0,27712,,,,,,,,,,,,,,,,,,,,,,,,,137.0,1.0,,,,,,,,,,,
132,,size_choice,,html-keyboard-response,132,177762,0.0-1.0-174.0,0,0,27712,,678.0,,,68.0,43.0,43.0,1.0,1000.0,S-L,1.0,L,S,3.0,1.0,deskchair,paperclip,deskchair1,paperclip5,10.0,114.0,/static/Size_judgement/Stimuli/Size_stims/L/deskchair/deskchair9.jpg,/static/Size_judgement/Stimuli/Size_stims/S/paperclip/paperclip2.jpg,1.0,137.678,0.678,0.0,1.0,deskchair,paperclip,L,S,3.0,1.0,deskchair1,paperclip5,
133,,size_choice_confirmation,,html-keyboard-response,133,178587,0.0-1.0-175.0-0.0,0,0,27712,,,,,,43.0,,,,,,,,,,,,,,,,,,,138.5,0.822,,,,,,,,,,,
134,,iti,,html-keyboard-response,134,179589,0.0-1.0-176.0,0,0,27712,,,,,,,,,,,,,,,,,,,,,,,,,139.5,1.0,,,,,,,,,,,
135,,size_choice,,html-keyboard-response,135,180514,0.0-1.0-178.0,0,0,27712,,923.0,,,75.0,44.0,44.0,1.0,1000.0,L-XL,0.0,L,XL,3.0,4.0,dishwasher,van,dishwasher2,van9,21.0,198.0,/static/Size_judgement/Stimuli/Size_stims/L/dishwasher/dishwasher9.jpg,/static/Size_judgement/Stimuli/Size_stims/XL/van/van9.jpg,1.0,140.423,0.923,0.0,0.0,van,dishwasher,XL,L,4.0,3.0,van9,dishwasher2,
136,,size_choice_confirmation,,html-keyboard-response,136,181094,0.0-1.0-179.0-0.0,0,0,27712,,,,,,44.0,,,,,,,,,,,,,,,,,,,141.0,0.577,,,,,,,,,,,
137,,iti,,html-keyboard-response,137,182095,0.0-1.0-180.0,0,0,27712,,,,,,,,,,,,,,,,,,,,,,,,,142.0,1.0,,,,,,,,,,,
138,,block_over,,html-keyboard-response,138,184920,0.0-1.0-181.0-0.0,0,0,27712,,2823.0,,,68.0,44.0,,,,,,,,,,,,,,,,,,,,,,,,,,,,,,,
139,,size_choice,,html-keyboard-response,139,185838,0.0-1.0-182.0,0,0,27712,,915.0,,,75.0,45.0,45.0,2.0,2000.0,S-L,0.0,S,L,1.0,3.0,die,mailbox,die5,mailbox2,104.0,41.0,/static/Size_judgement/Stimuli/Size_stims/S/die/die3.jpg,/static/Size_judgement/Stimuli/Size_stims/L/mailbox/mailbox2.jpg,1.0,142.915,0.915,0.0,0.0,mailbox,die,L,S,3.0,1.0,mailbox2,die5,
140,,size_choice_confirmation,,html-keyboard-response,140,186426,0.0-1.0-183.0-0.0,0,0,27712,,,,,,45.0,,,,,,,,,,,,,,,,,,,143.5,0.585,,,,,,,,,,,
141,,iti,,html-keyboard-response,141,188433,0.0-1.0-184.0,0,0,27712,,,,,,,,,,,,,,,,,,,,,,,,,145.5,2.0,,,,,,,,,,,
142,,size_choice,,html-keyboard-response,142,189223,0.0-1.0-186.0,0,0,27712,,788.0,,,68.0,46.0,46.0,2.0,1000.0,S-L,1.0,L,S,3.0,1.0,deskchair,thread,deskchair3,thread10,12.0,149.0,/static/Size_judgement/Stimuli/Size_stims/L/deskchair/deskchair10.jpg,/static/Size_judgement/Stimuli/Size_stims/S/thread/thread9.jpg,1.0,146.288,0.788,0.0,1.0,deskchair,thread,L,S,3.0,1.0,deskchair3,thread10,
143,,size_choice_confirmation,,html-keyboard-response,143,189940,0.0-1.0-187.0-0.0,0,0,27712,,,,,,46.0,,,,,,,,,,,,,,,,,,,147.0,0.712,,,,,,,,,,,
144,,iti,,html-keyboard-response,144,190943,0.0-1.0-188.0,0,0,27712,,,,,,,,,,,,,,,,,,,,,,,,,148.0,1.0,,,,,,,,,,,
145,,size_choice,,html-keyboard-response,145,191501,0.0-1.0-190.0,0,0,27712,,556.0,,,68.0,47.0,47.0,2.0,3500.0,M-L,1.0,L,M,3.0,2.0,garbagecan,handsaw,garbagecan1,handsaw9,30.0,88.0,/static/Size_judgement/Stimuli/Size_stims/L/garbagecan/garbagecan4.jpg,/static/Size_judgement/Stimuli/Size_stims/M/handsaw/handsaw6.jpg,1.0,148.556,0.556,0.0,1.0,garbagecan,handsaw,L,M,3.0,2.0,garbagecan1,handsaw9,
146,,size_choice_confirmation,,html-keyboard-response,146,192454,0.0-1.0-191.0-0.0,0,0,27712,,,,,,47.0,,,,,,,,,,,,,,,,,,,149.5,0.944,,,,,,,,,,,
147,,iti,,html-keyboard-response,147,195955,0.0-1.0-192.0,0,0,27712,,,,,,,,,,,,,,,,,,,,,,,,,153.0,3.5,,,,,,,,,,,
148,,size_choice,,html-keyboard-response,148,196779,0.0-1.0-194.0,0,0,27712,,820.0,,,68.0,48.0,48.0,2.0,1000.0,M-M,,M,M,2.0,2.0,coffeemaker,hairdryer,coffeemaker7,hairdryer5,66.0,74.0,/static/Size_judgement/Stimuli/Size_stims/M/coffeemaker/coffeemaker9.jpg,/static/Size_judgement/Stimuli/Size_stims/M/hairdryer/hairdryer15.jpg,,153.82,0.82,0.0,1.0,coffeemaker,hairdryer,M,M,2.0,2.0,coffeemaker7,hairdryer5,
149,,size_choice_confirmation,,html-keyboard-response,149,197461,0.0-1.0-195.0-0.0,0,0,27712,,,,,,48.0,,,,,,,,,,,,,,,,,,,154.5,0.68,,,,,,,,,,,
150,,iti,,html-keyboard-response,150,198462,0.0-1.0-196.0,0,0,27712,,,,,,,,,,,,,,,,,,,,,,,,,155.5,1.0,,,,,,,,,,,
151,,size_choice,,html-keyboard-response,151,199299,0.0-1.0-198.0,0,0,27712,,834.0,,,68.0,49.0,49.0,2.0,2000.0,S-XL,1.0,XL,S,4.0,1.0,crane,thread,crane3,thread4,162.0,143.0,/static/Size_judgement/Stimuli/Size_stims/XL/crane/crane4.jpg,/static/Size_judgement/Stimuli/Size_stims/S/thread/thread5.jpg,1.0,156.334,0.834,0.0,1.0,crane,thread,XL,S,4.0,1.0,crane3,thread4,
152,,size_choice_confirmation,,html-keyboard-response,152,199968,0.0-1.0-199.0-0.0,0,0,27712,,,,,,49.0,,,,,,,,,,,,,,,,,,,157.0,0.666,,,,,,,,,,,
153,,iti,,html-keyboard-response,153,201972,0.0-1.0-200.0,0,0,27712,,,,,,,,,,,,,,,,,,,,,,,,,159.0,2.0,,,,,,,,,,,
154,,size_choice,,html-keyboard-response,154,202616,0.0-1.0-202.0,0,0,27712,,642.0,,,68.0,50.0,50.0,2.0,1000.0,S-XL,1.0,XL,S,4.0,1.0,tractor,die,tractor7,die9,186.0,108.0,/static/Size_judgement/Stimuli/Size_stims/XL/tractor/tractor2.jpg,/static/Size_judgement/Stimuli/Size_stims/S/die/die7.jpg,1.0,159.642,0.642,0.0,1.0,tractor,die,XL,S,4.0,1.0,tractor7,die9,
155,,size_choice_confirmation,,html-keyboard-response,155,203476,0.0-1.0-203.0-0.0,0,0,27712,,,,,,50.0,,,,,,,,,,,,,,,,,,,160.5,0.858,,,,,,,,,,,
156,,iti,,html-keyboard-response,156,204478,0.0-1.0-204.0,0,0,27712,,,,,,,,,,,,,,,,,,,,,,,,,161.5,1.0,,,,,,,,,,,
157,,size_choice,,html-keyboard-response,157,205307,0.0-1.0-206.0,0,0,27712,,828.0,,,68.0,51.0,51.0,2.0,2000.0,S-L,1.0,L,S,3.0,1.0,cooler,thread,cooler1,thread2,0.0,141.0,/static/Size_judgement/Stimuli/Size_stims/L/cooler/cooler8.jpg,/static/Size_judgement/Stimuli/Size_stims/S/thread/thread6.jpg,1.0,162.328,0.828,0.0,1.0,cooler,thread,L,S,3.0,1.0,cooler1,thread2,
158,,size_choice_confirmation,,html-keyboard-response,158,205984,0.0-1.0-207.0-0.0,0,0,27712,,,,,,51.0,,,,,,,,,,,,,,,,,,,163.0,0.672,,,,,,,,,,,
159,,iti,,html-keyboard-response,159,207987,0.0-1.0-208.0,0,0,27712,,,,,,,,,,,,,,,,,,,,,,,,,165.0,2.0,,,,,,,,,,,
160,,size_choice,,html-keyboard-response,160,208559,0.0-1.0-210.0,0,0,27712,,570.0,,,75.0,52.0,52.0,2.0,1000.0,M-L,0.0,M,L,2.0,3.0,handsaw,mailbox,handsaw8,mailbox4,87.0,43.0,/static/Size_judgement/Stimuli/Size_stims/M/handsaw/handsaw7.jpg,/static/Size_judgement/Stimuli/Size_stims/L/mailbox/mailbox5.jpg,1.0,165.57,0.57,0.0,0.0,mailbox,handsaw,L,M,3.0,2.0,mailbox4,handsaw8,
161,,size_choice_confirmation,,html-keyboard-response,161,209491,0.0-1.0-211.0-0.0,0,0,27712,,,,,,52.0,,,,,,,,,,,,,,,,,,,166.5,0.93,,,,,,,,,,,
162,,iti,,html-keyboard-response,162,210494,0.0-1.0-212.0,0,0,27712,,,,,,,,,,,,,,,,,,,,,,,,,167.5,1.0,,,,,,,,,,,
163,,size_choice,,html-keyboard-response,163,211260,0.0-1.0-214.0,0,0,27712,,764.0,,,68.0,53.0,53.0,2.0,1000.0,S-XL,1.0,XL,S,4.0,1.0,crane,thread,crane9,thread5,168.0,144.0,/static/Size_judgement/Stimuli/Size_stims/XL/crane/crane8.jpg,/static/Size_judgement/Stimuli/Size_stims/S/thread/thread1.jpg,1.0,168.264,0.764,0.0,1.0,crane,thread,XL,S,4.0,1.0,crane9,thread5,
164,,size_choice_confirmation,,html-keyboard-response,164,211998,0.0-1.0-215.0-0.0,0,0,27712,,,,,,53.0,,,,,,,,,,,,,,,,,,,169.0,0.736,,,,,,,,,,,
165,,iti,,html-keyboard-response,165,213000,0.0-1.0-216.0,0,0,27712,,,,,,,,,,,,,,,,,,,,,,,,,170.0,1.0,,,,,,,,,,,
166,,size_choice,,html-keyboard-response,166,213988,0.0-1.0-218.0,0,0,27712,,985.0,,,68.0,54.0,54.0,2.0,2000.0,XL-XL,,XL,XL,4.0,4.0,tractor,van,tractor1,van10,180.0,199.0,/static/Size_judgement/Stimuli/Size_stims/XL/tractor/tractor6.jpg,/static/Size_judgement/Stimuli/Size_stims/XL/van/van8.jpg,,170.985,0.985,0.0,1.0,tractor,van,XL,XL,4.0,4.0,tractor1,van10,
167,,size_choice_confirmation,,html-keyboard-response,167,214506,0.0-1.0-219.0-0.0,0,0,27712,,,,,,54.0,,,,,,,,,,,,,,,,,,,171.5,0.515,,,,,,,,,,,
168,,iti,,html-keyboard-response,168,216509,0.0-1.0-220.0,0,0,27712,,,,,,,,,,,,,,,,,,,,,,,,,173.5,2.0,,,,,,,,,,,
169,,size_choice,,html-keyboard-response,169,217685,0.0-1.0-222.0,0,0,27712,,1174.0,,,75.0,55.0,55.0,2.0,1500.0,S-S,,S,S,1.0,1.0,paperclip,teabag,paperclip8,teabag2,117.0,131.0,/static/Size_judgement/Stimuli/Size_stims/S/paperclip/paperclip5.jpg,/static/Size_judgement/Stimuli/Size_stims/S/teabag/teabag8.jpg,,174.674,1.174,0.0,0.0,teabag,paperclip,S,S,1.0,1.0,teabag2,paperclip8,
170,,size_choice_confirmation,,html-keyboard-response,170,218013,0.0-1.0-223.0-0.0,0,0,27712,,,,,,55.0,,,,,,,,,,,,,,,,,,,175.0,0.326,,,,,,,,,,,
171,,iti,,html-keyboard-response,171,219519,0.0-1.0-224.0,0,0,27712,,,,,,,,,,,,,,,,,,,,,,,,,176.5,1.5,,,,,,,,,,,
172,,size_choice,,html-keyboard-response,172,220096,0.0-1.0-226.0,0,0,27712,,575.0,,,68.0,56.0,56.0,2.0,1500.0,S-XL,1.0,XL,S,4.0,1.0,crane,screws,crane8,screws2,167.0,121.0,/static/Size_judgement/Stimuli/Size_stims/XL/crane/crane10.jpg,/static/Size_judgement/Stimuli/Size_stims/S/screws/screws5.jpg,1.0,177.075,0.575,0.0,1.0,crane,screws,XL,S,4.0,1.0,crane8,screws2,
173,,size_choice_confirmation,,html-keyboard-response,173,221026,0.0-1.0-227.0-0.0,0,0,27712,,,,,,56.0,,,,,,,,,,,,,,,,,,,178.0,0.925,,,,,,,,,,,
174,,iti,,html-keyboard-response,174,222530,0.0-1.0-228.0,0,0,27712,,,,,,,,,,,,,,,,,,,,,,,,,179.5,1.5,,,,,,,,,,,
175,,size_choice,,html-keyboard-response,175,223537,0.0-1.0-230.0,0,0,27712,,1005.0,,,68.0,57.0,57.0,2.0,1000.0,L-L,,L,L,3.0,3.0,dishwasher,cooler,dishwasher4,cooler3,23.0,2.0,/static/Size_judgement/Stimuli/Size_stims/L/dishwasher/dishwasher5.jpg,/static/Size_judgement/Stimuli/Size_stims/L/cooler/cooler2.jpg,,180.505,1.005,0.0,1.0,dishwasher,cooler,L,L,3.0,3.0,dishwasher4,cooler3,
176,,size_choice_confirmation,,html-keyboard-response,176,224034,0.0-1.0-231.0-0.0,0,0,27712,,,,,,57.0,,,,,,,,,,,,,,,,,,,181.0,0.495,,,,,,,,,,,
177,,iti,,html-keyboard-response,177,225038,0.0-1.0-232.0,0,0,27712,,,,,,,,,,,,,,,,,,,,,,,,,182.0,1.0,,,,,,,,,,,
178,,size_choice,,html-keyboard-response,178,225829,0.0-1.0-234.0,0,0,27712,,790.0,,,75.0,58.0,58.0,2.0,3000.0,M-XL,0.0,M,XL,2.0,4.0,coffeemaker,van,coffeemaker9,van4,68.0,193.0,/static/Size_judgement/Stimuli/Size_stims/M/coffeemaker/coffeemaker7.jpg,/static/Size_judgement/Stimuli/Size_stims/XL/van/van7.jpg,1.0,182.79,0.79,0.0,0.0,van,coffeemaker,XL,M,4.0,2.0,van4,coffeemaker9,
179,,size_choice_confirmation,,html-keyboard-response,179,226545,0.0-1.0-235.0-0.0,0,0,27712,,,,,,58.0,,,,,,,,,,,,,,,,,,,183.5,0.71,,,,,,,,,,,
180,,iti,,html-keyboard-response,180,229552,0.0-1.0-236.0,0,0,27712,,,,,,,,,,,,,,,,,,,,,,,,,186.5,3.0,,,,,,,,,,,
181,,size_choice,,html-keyboard-response,181,230043,0.0-1.0-238.0,0,0,27712,,488.0,,,75.0,59.0,59.0,2.0,2000.0,M-L,0.0,M,L,2.0,3.0,coffeemaker,cooler,coffeemaker3,cooler7,62.0,6.0,/static/Size_judgement/Stimuli/Size_stims/M/coffeemaker/coffeemaker13.jpg,/static/Size_judgement/Stimuli/Size_stims/L/cooler/cooler4.jpg,1.0,186.988,0.488,0.0,0.0,cooler,coffeemaker,L,M,3.0,2.0,cooler7,coffeemaker3,
182,,size_choice_confirmation,,html-keyboard-response,182,231058,0.0-1.0-239.0-0.0,0,0,27712,,,,,,59.0,,,,,,,,,,,,,,,,,,,188.0,1.012,,,,,,,,,,,
183,,iti,,html-keyboard-response,183,233063,0.0-1.0-240.0,0,0,27712,,,,,,,,,,,,,,,,,,,,,,,,,190.0,2.0,,,,,,,,,,,
184,,size_choice,,html-keyboard-response,184,233699,0.0-1.0-242.0,0,0,27712,,633.0,,,68.0,60.0,60.0,2.0,2000.0,S-L,1.0,L,S,3.0,1.0,cooler,screws,cooler4,screws5,3.0,124.0,/static/Size_judgement/Stimuli/Size_stims/L/cooler/cooler3.jpg,/static/Size_judgement/Stimuli/Size_stims/S/screws/screws2.jpg,1.0,190.633,0.633,0.0,1.0,cooler,screws,L,S,3.0,1.0,cooler4,screws5,
185,,size_choice_confirmation,,html-keyboard-response,185,234567,0.0-1.0-243.0-0.0,0,0,27712,,,,,,60.0,,,,,,,,,,,,,,,,,,,191.5,0.867,,,,,,,,,,,
186,,iti,,html-keyboard-response,186,236572,0.0-1.0-244.0,0,0,27712,,,,,,,,,,,,,,,,,,,,,,,,,193.5,2.0,,,,,,,,,,,
187,,size_choice,,html-keyboard-response,187,237071,0.0-1.0-246.0,0,0,27712,,497.0,,,75.0,61.0,61.0,2.0,1500.0,M-XL,0.0,M,XL,2.0,4.0,handsaw,car,handsaw7,car3,86.0,152.0,/static/Size_judgement/Stimuli/Size_stims/M/handsaw/handsaw5.jpg,/static/Size_judgement/Stimuli/Size_stims/XL/car/car4.jpg,1.0,193.997,0.497,0.0,0.0,car,handsaw,XL,M,4.0,2.0,car3,handsaw7,
188,,size_choice_confirmation,,html-keyboard-response,188,238076,0.0-1.0-247.0-0.0,0,0,27712,,,,,,61.0,,,,,,,,,,,,,,,,,,,195.0,1.003,,,,,,,,,,,
189,,iti,,html-keyboard-response,189,239580,0.0-1.0-248.0,0,0,27712,,,,,,,,,,,,,,,,,,,,,,,,,196.5,1.5,,,,,,,,,,,
190,,size_choice,,html-keyboard-response,190,240302,0.0-1.0-250.0,0,0,27712,,719.0,,,75.0,62.0,62.0,2.0,1000.0,M-XL,0.0,M,XL,2.0,4.0,handsaw,tractor,handsaw1,tractor4,80.0,183.0,/static/Size_judgement/Stimuli/Size_stims/M/handsaw/handsaw8.jpg,/static/Size_judgement/Stimuli/Size_stims/XL/tractor/tractor4.jpg,1.0,197.219,0.719,0.0,0.0,tractor,handsaw,XL,M,4.0,2.0,tractor4,handsaw1,
191,,size_choice_confirmation,,html-keyboard-response,191,241085,0.0-1.0-251.0-0.0,0,0,27712,,,,,,62.0,,,,,,,,,,,,,,,,,,,198.0,0.781,,,,,,,,,,,
192,,iti,,html-keyboard-response,192,242086,0.0-1.0-252.0,0,0,27712,,,,,,,,,,,,,,,,,,,,,,,,,199.0,1.0,,,,,,,,,,,
193,,size_choice,,html-keyboard-response,193,242936,0.0-1.0-254.0,0,0,27712,,847.0,,,68.0,63.0,63.0,2.0,1500.0,S-L,1.0,L,S,3.0,1.0,dishwasher,teabag,dishwasher9,teabag7,28.0,136.0,/static/Size_judgement/Stimuli/Size_stims/L/dishwasher/dishwasher2.jpg,/static/Size_judgement/Stimuli/Size_stims/S/teabag/teabag10.jpg,1.0,199.847,0.847,0.0,1.0,dishwasher,teabag,L,S,3.0,1.0,dishwasher9,teabag7,
194,,size_choice_confirmation,,html-keyboard-response,194,243592,0.0-1.0-255.0-0.0,0,0,27712,,,,,,63.0,,,,,,,,,,,,,,,,,,,200.5,0.653,,,,,,,,,,,
195,,iti,,html-keyboard-response,195,245096,0.0-1.0-256.0,0,0,27712,,,,,,,,,,,,,,,,,,,,,,,,,202.0,1.5,,,,,,,,,,,
196,,size_choice,,html-keyboard-response,196,245680,0.0-1.0-258.0,0,0,27712,,582.0,,,75.0,64.0,64.0,2.0,3500.0,M-XL,1.0,XL,M,4.0,2.0,crane,coffeemaker,crane5,coffeemaker2,164.0,61.0,/static/Size_judgement/Stimuli/Size_stims/XL/crane/crane1.jpg,/static/Size_judgement/Stimuli/Size_stims/M/coffeemaker/coffeemaker12.jpg,0.0,202.582,0.582,0.0,0.0,coffeemaker,crane,M,XL,2.0,4.0,coffeemaker2,crane5,
197,,size_choice_confirmation,,html-keyboard-response,197,246604,0.0-1.0-259.0-0.0,0,0,27712,,,,,,64.0,,,,,,,,,,,,,,,,,,,203.5,0.918,,,,,,,,,,,
198,,iti,,html-keyboard-response,198,250107,0.0-1.0-260.0,0,0,27712,,,,,,,,,,,,,,,,,,,,,,,,,207.0,3.5,,,,,,,,,,,
199,,size_choice,,html-keyboard-response,199,251410,0.0-1.0-262.0,0,0,27712,,1300.0,,,68.0,65.0,65.0,2.0,1500.0,XL-XL,,XL,XL,4.0,4.0,tractor,van,tractor9,van6,188.0,195.0,/static/Size_judgement/Stimuli/Size_stims/XL/tractor/tractor9.jpg,/static/Size_judgement/Stimuli/Size_stims/XL/van/van2.jpg,,208.3,1.3,0.0,1.0,tractor,van,XL,XL,4.0,4.0,tractor9,van6,
200,,size_choice_confirmation,,html-keyboard-response,200,251613,0.0-1.0-263.0-0.0,0,0,27712,,,,,,65.0,,,,,,,,,,,,,,,,,,,208.5,0.2,,,,,,,,,,,
201,,iti,,html-keyboard-response,201,253115,0.0-1.0-264.0,0,0,27712,,,,,,,,,,,,,,,,,,,,,,,,,210.0,1.5,,,,,,,,,,,
202,,size_choice,,html-keyboard-response,202,253704,0.0-1.0-266.0,0,0,27712,,586.0,,,75.0,66.0,66.0,2.0,2000.0,S-M,0.0,S,M,1.0,2.0,teabag,hairdryer,teabag6,hairdryer1,135.0,70.0,/static/Size_judgement/Stimuli/Size_stims/S/teabag/teabag6.jpg,/static/Size_judgement/Stimuli/Size_stims/M/hairdryer/hairdryer11.jpg,1.0,210.586,0.586,0.0,0.0,hairdryer,teabag,M,S,2.0,1.0,hairdryer1,teabag6,
203,,size_choice_confirmation,,html-keyboard-response,203,254620,0.0-1.0-267.0-0.0,0,0,27712,,,,,,66.0,,,,,,,,,,,,,,,,,,,211.5,0.914,,,,,,,,,,,
204,,iti,,html-keyboard-response,204,256622,0.0-1.0-268.0,0,0,27712,,,,,,,,,,,,,,,,,,,,,,,,,213.5,2.0,,,,,,,,,,,
205,,size_choice,,html-keyboard-response,205,257238,0.0-1.0-270.0,0,0,27712,,614.0,,,68.0,67.0,67.0,2.0,1500.0,S-L,1.0,L,S,3.0,1.0,garbagecan,die,garbagecan8,die7,37.0,106.0,/static/Size_judgement/Stimuli/Size_stims/L/garbagecan/garbagecan13.jpg,/static/Size_judgement/Stimuli/Size_stims/S/die/die4.jpg,1.0,214.114,0.614,0.0,1.0,garbagecan,die,L,S,3.0,1.0,garbagecan8,die7,
206,,size_choice_confirmation,,html-keyboard-response,206,258129,0.0-1.0-271.0-0.0,0,0,27712,,,,,,67.0,,,,,,,,,,,,,,,,,,,215.0,0.886,,,,,,,,,,,
207,,iti,,html-keyboard-response,207,259632,0.0-1.0-272.0,0,0,27712,,,,,,,,,,,,,,,,,,,,,,,,,216.5,1.5,,,,,,,,,,,
208,,size_choice,,html-keyboard-response,208,260161,0.0-1.0-274.0,0,0,27712,,526.0,,,75.0,68.0,68.0,2.0,1500.0,S-M,0.0,S,M,1.0,2.0,thread,basketball,thread1,basketball2,140.0,51.0,/static/Size_judgement/Stimuli/Size_stims/S/thread/thread7.jpg,/static/Size_judgement/Stimuli/Size_stims/M/basketball/basketball8.jpg,1.0,217.026,0.526,0.0,0.0,basketball,thread,M,S,2.0,1.0,basketball2,thread1,
209,,size_choice_confirmation,,html-keyboard-response,209,261137,0.0-1.0-275.0-0.0,0,0,27712,,,,,,68.0,,,,,,,,,,,,,,,,,,,218.0,0.974,,,,,,,,,,,
210,,iti,,html-keyboard-response,210,262640,0.0-1.0-276.0,0,0,27712,,,,,,,,,,,,,,,,,,,,,,,,,219.5,1.5,,,,,,,,,,,
211,,size_choice,,html-keyboard-response,211,263453,0.0-1.0-278.0,0,0,27712,,812.0,,,75.0,69.0,69.0,2.0,1000.0,S-L,0.0,S,L,1.0,3.0,die,dishwasher,die8,dishwasher3,107.0,22.0,/static/Size_judgement/Stimuli/Size_stims/S/die/die5.jpg,/static/Size_judgement/Stimuli/Size_stims/L/dishwasher/dishwasher8.jpg,1.0,220.312,0.812,0.0,0.0,dishwasher,die,L,S,3.0,1.0,dishwasher3,die8,
212,,size_choice_confirmation,,html-keyboard-response,212,264144,0.0-1.0-279.0-0.0,0,0,27712,,,,,,69.0,,,,,,,,,,,,,,,,,,,221.0,0.688,,,,,,,,,,,
213,,iti,,html-keyboard-response,213,265146,0.0-1.0-280.0,0,0,27712,,,,,,,,,,,,,,,,,,,,,,,,,222.0,1.0,,,,,,,,,,,
214,,size_choice,,html-keyboard-response,214,265792,0.0-1.0-282.0,0,0,27712,,644.0,,,68.0,70.0,70.0,2.0,1500.0,S-XL,1.0,XL,S,4.0,1.0,van,thread,van1,thread9,190.0,148.0,/static/Size_judgement/Stimuli/Size_stims/XL/van/van5.jpg,/static/Size_judgement/Stimuli/Size_stims/S/thread/thread8.jpg,1.0,222.644,0.644,0.0,1.0,van,thread,XL,S,4.0,1.0,van1,thread9,
215,,size_choice_confirmation,,html-keyboard-response,215,266650,0.0-1.0-283.0-0.0,0,0,27712,,,,,,70.0,,,,,,,,,,,,,,,,,,,223.5,0.856,,,,,,,,,,,
216,,iti,,html-keyboard-response,216,268156,0.0-1.0-284.0,0,0,27712,,,,,,,,,,,,,,,,,,,,,,,,,225.0,1.5,,,,,,,,,,,
217,,size_choice,,html-keyboard-response,217,269123,0.0-1.0-286.0,0,0,27712,,965.0,,,75.0,71.0,71.0,2.0,3500.0,M-L,0.0,M,L,2.0,3.0,basketball,deskchair,basketball9,deskchair2,58.0,11.0,/static/Size_judgement/Stimuli/Size_stims/M/basketball/basketball5.jpg,/static/Size_judgement/Stimuli/Size_stims/L/deskchair/deskchair8.jpg,1.0,225.965,0.965,0.0,0.0,deskchair,basketball,L,M,3.0,2.0,deskchair2,basketball9,
218,,size_choice_confirmation,,html-keyboard-response,218,269663,0.0-1.0-287.0-0.0,0,0,27712,,,,,,71.0,,,,,,,,,,,,,,,,,,,226.5,0.535,,,,,,,,,,,
219,,iti,,html-keyboard-response,219,273167,0.0-1.0-288.0,0,0,27712,,,,,,,,,,,,,,,,,,,,,,,,,230.0,3.5,,,,,,,,,,,
220,,size_choice,,html-keyboard-response,220,273851,0.0-1.0-290.0,0,0,27712,,682.0,,,68.0,72.0,72.0,2.0,1000.0,L-XL,1.0,XL,L,4.0,3.0,car,deskchair,car9,deskchair4,158.0,13.0,/static/Size_judgement/Stimuli/Size_stims/XL/car/car15.jpg,/static/Size_judgement/Stimuli/Size_stims/L/deskchair/deskchair6.jpg,1.0,230.682,0.682,0.0,1.0,car,deskchair,XL,L,4.0,3.0,car9,deskchair4,
221,,size_choice_confirmation,,html-keyboard-response,221,274671,0.0-1.0-291.0-0.0,0,0,27712,,,,,,72.0,,,,,,,,,,,,,,,,,,,231.5,0.818,,,,,,,,,,,
222,,iti,,html-keyboard-response,222,275674,0.0-1.0-292.0,0,0,27712,,,,,,,,,,,,,,,,,,,,,,,,,232.5,1.0,,,,,,,,,,,
223,,size_choice,,html-keyboard-response,223,276528,0.0-1.0-294.0,0,0,27712,,852.0,,,75.0,73.0,73.0,2.0,1500.0,M-M,,M,M,2.0,2.0,hairdryer,basketball,hairdryer3,basketball3,72.0,52.0,/static/Size_judgement/Stimuli/Size_stims/M/hairdryer/hairdryer17.jpg,/static/Size_judgement/Stimuli/Size_stims/M/basketball/basketball10.jpg,,233.352,0.852,0.0,0.0,basketball,hairdryer,M,M,2.0,2.0,basketball3,hairdryer3,
224,,size_choice_confirmation,,html-keyboard-response,224,277179,0.0-1.0-295.0-0.0,0,0,27712,,,,,,73.0,,,,,,,,,,,,,,,,,,,234.0,0.648,,,,,,,,,,,
225,,iti,,html-keyboard-response,225,278682,0.0-1.0-296.0,0,0,27712,,,,,,,,,,,,,,,,,,,,,,,,,235.5,1.5,,,,,,,,,,,
226,,size_choice,,html-keyboard-response,226,279281,0.0-1.0-298.0,0,0,27712,,597.0,,,75.0,74.0,74.0,2.0,1500.0,S-XL,0.0,S,XL,1.0,4.0,paperclip,crane,paperclip10,crane1,119.0,160.0,/static/Size_judgement/Stimuli/Size_stims/S/paperclip/paperclip10.jpg,/static/Size_judgement/Stimuli/Size_stims/XL/crane/crane7.jpg,1.0,236.097,0.597,0.0,0.0,crane,paperclip,XL,S,4.0,1.0,crane1,paperclip10,
227,,size_choice_confirmation,,html-keyboard-response,227,280189,0.0-1.0-299.0-0.0,0,0,27712,,,,,,74.0,,,,,,,,,,,,,,,,,,,237.0,0.903,,,,,,,,,,,
228,,iti,,html-keyboard-response,228,281695,0.0-1.0-300.0,0,0,27712,,,,,,,,,,,,,,,,,,,,,,,,,238.5,1.5,,,,,,,,,,,
229,,size_choice,,html-keyboard-response,229,282333,0.0-1.0-302.0,0,0,27712,,635.0,,,68.0,75.0,75.0,2.0,1000.0,M-L,1.0,L,M,3.0,2.0,cooler,ketchup,cooler5,ketchup10,4.0,99.0,/static/Size_judgement/Stimuli/Size_stims/L/cooler/cooler10.jpg,/static/Size_judgement/Stimuli/Size_stims/M/ketchup/ketchup6.jpg,1.0,239.135,0.635,0.0,1.0,cooler,ketchup,L,M,3.0,2.0,cooler5,ketchup10,
230,,size_choice_confirmation,,html-keyboard-response,230,283204,0.0-1.0-303.0-0.0,0,0,27712,,,,,,75.0,,,,,,,,,,,,,,,,,,,240.0,0.865,,,,,,,,,,,
231,,iti,,html-keyboard-response,231,284206,0.0-1.0-304.0,0,0,27712,,,,,,,,,,,,,,,,,,,,,,,,,241.0,1.0,,,,,,,,,,,
232,,size_choice,,html-keyboard-response,232,285477,0.0-1.0-306.0,0,0,27712,,1269.0,,,75.0,76.0,76.0,2.0,3000.0,S-S,,S,S,1.0,1.0,screws,die,screws7,die4,126.0,103.0,/static/Size_judgement/Stimuli/Size_stims/S/screws/screws1.jpg,/static/Size_judgement/Stimuli/Size_stims/S/die/die2.jpg,,242.269,1.269,0.0,0.0,die,screws,S,S,1.0,1.0,die4,screws7,
233,,size_choice_confirmation,,html-keyboard-response,233,285711,0.0-1.0-307.0-0.0,0,0,27712,,,,,,76.0,,,,,,,,,,,,,,,,,,,242.5,0.231,,,,,,,,,,,
234,,iti,,html-keyboard-response,234,288713,0.0-1.0-308.0,0,0,27712,,,,,,,,,,,,,,,,,,,,,,,,,245.5,3.0,,,,,,,,,,,
235,,size_choice,,html-keyboard-response,235,289260,0.0-1.0-310.0,0,0,27712,,544.0,,,75.0,77.0,77.0,2.0,1000.0,L-L,,L,L,3.0,3.0,mailbox,cooler,mailbox1,cooler2,40.0,1.0,/static/Size_judgement/Stimuli/Size_stims/L/mailbox/mailbox3.jpg,/static/Size_judgement/Stimuli/Size_stims/L/cooler/cooler9.jpg,,246.044,0.544,0.0,0.0,cooler,mailbox,L,L,3.0,3.0,cooler2,mailbox1,
236,,size_choice_confirmation,,html-keyboard-response,236,290219,0.0-1.0-311.0-0.0,0,0,27712,,,,,,77.0,,,,,,,,,,,,,,,,,,,247.0,0.956,,,,,,,,,,,
237,,iti,,html-keyboard-response,237,291225,0.0-1.0-312.0,0,0,27712,,,,,,,,,,,,,,,,,,,,,,,,,248.0,1.0,,,,,,,,,,,
238,,size_choice,,html-keyboard-response,238,291754,0.0-1.0-314.0,0,0,27712,,528.0,,,68.0,78.0,78.0,2.0,1000.0,S-L,1.0,L,S,3.0,1.0,cooler,paperclip,cooler8,paperclip6,7.0,115.0,/static/Size_judgement/Stimuli/Size_stims/L/cooler/cooler5.jpg,/static/Size_judgement/Stimuli/Size_stims/S/paperclip/paperclip6.jpg,1.0,248.528,0.528,0.0,1.0,cooler,paperclip,L,S,3.0,1.0,cooler8,paperclip6,
239,,size_choice_confirmation,,html-keyboard-response,239,292728,0.0-1.0-315.0-0.0,0,0,27712,,,,,,78.0,,,,,,,,,,,,,,,,,,,249.5,0.972,,,,,,,,,,,
240,,iti,,html-keyboard-response,240,293731,0.0-1.0-316.0,0,0,27712,,,,,,,,,,,,,,,,,,,,,,,,,250.5,1.0,,,,,,,,,,,
241,,size_choice,,html-keyboard-response,241,294320,0.0-1.0-318.0,0,0,27712,,586.0,,,75.0,79.0,79.0,2.0,3000.0,S-XL,0.0,S,XL,1.0,4.0,paperclip,crane,paperclip3,crane2,112.0,161.0,/static/Size_judgement/Stimuli/Size_stims/S/paperclip/paperclip1.jpg,/static/Size_judgement/Stimuli/Size_stims/XL/crane/crane6.jpg,1.0,251.086,0.586,0.0,0.0,crane,paperclip,XL,S,4.0,1.0,crane2,paperclip3,
242,,size_choice_confirmation,,html-keyboard-response,242,295235,0.0-1.0-319.0-0.0,0,0,27712,,,,,,79.0,,,,,,,,,,,,,,,,,,,252.0,0.914,,,,,,,,,,,
243,,iti,,html-keyboard-response,243,298240,0.0-1.0-320.0,0,0,27712,,,,,,,,,,,,,,,,,,,,,,,,,255.0,3.0,,,,,,,,,,,
244,,size_choice,,html-keyboard-response,244,298722,0.0-1.0-322.0,0,0,27712,,479.0,,,75.0,80.0,80.0,2.0,1000.0,M-XL,0.0,M,XL,2.0,4.0,ketchup,van,ketchup1,van2,90.0,191.0,/static/Size_judgement/Stimuli/Size_stims/M/ketchup/ketchup8.jpg,/static/Size_judgement/Stimuli/Size_stims/XL/van/van4.jpg,1.0,255.479,0.479,0.0,0.0,van,ketchup,XL,M,4.0,2.0,van2,ketchup1,
245,,size_choice_confirmation,,html-keyboard-response,245,299747,0.0-1.0-323.0-0.0,0,0,27712,,,,,,80.0,,,,,,,,,,,,,,,,,,,256.5,1.021,,,,,,,,,,,
246,,iti,,html-keyboard-response,246,300750,0.0-1.0-324.0,0,0,27712,,,,,,,,,,,,,,,,,,,,,,,,,257.5,1.0,,,,,,,,,,,
247,,size_choice,,html-keyboard-response,247,301736,0.0-1.0-326.0,0,0,27712,,985.0,,,75.0,81.0,81.0,2.0,3000.0,M-XL,0.0,M,XL,2.0,4.0,coffeemaker,tractor,coffeemaker6,tractor3,65.0,182.0,/static/Size_judgement/Stimuli/Size_stims/M/coffeemaker/coffeemaker8.jpg,/static/Size_judgement/Stimuli/Size_stims/XL/tractor/tractor5.jpg,1.0,258.485,0.985,0.0,0.0,tractor,coffeemaker,XL,M,4.0,2.0,tractor3,coffeemaker6,
248,,size_choice_confirmation,,html-keyboard-response,248,302253,0.0-1.0-327.0-0.0,0,0,27712,,,,,,81.0,,,,,,,,,,,,,,,,,,,259.0,0.515,,,,,,,,,,,
249,,iti,,html-keyboard-response,249,305256,0.0-1.0-328.0,0,0,27712,,,,,,,,,,,,,,,,,,,,,,,,,262.0,3.0,,,,,,,,,,,
250,,size_choice,,html-keyboard-response,250,305896,0.0-1.0-330.0,0,0,27712,,638.0,,,68.0,82.0,82.0,2.0,1000.0,M-L,1.0,L,M,3.0,2.0,dishwasher,basketball,dishwasher6,basketball10,25.0,59.0,/static/Size_judgement/Stimuli/Size_stims/L/dishwasher/dishwasher6.jpg,/static/Size_judgement/Stimuli/Size_stims/M/basketball/basketball4.jpg,1.0,262.638,0.638,0.0,1.0,dishwasher,basketball,L,M,3.0,2.0,dishwasher6,basketball10,
251,,size_choice_confirmation,,html-keyboard-response,251,306760,0.0-1.0-331.0-0.0,0,0,27712,,,,,,82.0,,,,,,,,,,,,,,,,,,,263.5,0.862,,,,,,,,,,,
252,,iti,,html-keyboard-response,252,307762,0.0-1.0-332.0,0,0,27712,,,,,,,,,,,,,,,,,,,,,,,,,264.5,1.0,,,,,,,,,,,
253,,size_choice,,html-keyboard-response,253,308342,0.0-1.0-334.0,0,0,27712,,578.0,,,68.0,83.0,83.0,2.0,1000.0,M-XL,1.0,XL,M,4.0,2.0,van,hairdryer,van8,hairdryer9,197.0,78.0,/static/Size_judgement/Stimuli/Size_stims/XL/van/van10.jpg,/static/Size_judgement/Stimuli/Size_stims/M/hairdryer/hairdryer5.jpg,1.0,265.078,0.578,0.0,1.0,van,hairdryer,XL,M,4.0,2.0,van8,hairdryer9,
254,,size_choice_confirmation,,html-keyboard-response,254,309266,0.0-1.0-335.0-0.0,0,0,27712,,,,,,83.0,,,,,,,,,,,,,,,,,,,266.0,0.922,,,,,,,,,,,
255,,iti,,html-keyboard-response,255,310270,0.0-1.0-336.0,0,0,27712,,,,,,,,,,,,,,,,,,,,,,,,,267.0,1.0,,,,,,,,,,,
256,,size_choice,,html-keyboard-response,256,311159,0.0-1.0-338.0,0,0,27712,,887.0,,,75.0,84.0,84.0,2.0,1000.0,XL-XL,,XL,XL,4.0,4.0,tractor,dumptruck,tractor5,dumptruck3,184.0,172.0,/static/Size_judgement/Stimuli/Size_stims/XL/tractor/tractor1.jpg,/static/Size_judgement/Stimuli/Size_stims/XL/dumptruck/dumptruck10.jpg,,267.887,0.887,0.0,0.0,dumptruck,tractor,XL,XL,4.0,4.0,dumptruck3,tractor5,
257,,size_choice_confirmation,,html-keyboard-response,257,311775,0.0-1.0-339.0-0.0,0,0,27712,,,,,,84.0,,,,,,,,,,,,,,,,,,,268.5,0.613,,,,,,,,,,,
258,,iti,,html-keyboard-response,258,312781,0.0-1.0-340.0,0,0,27712,,,,,,,,,,,,,,,,,,,,,,,,,269.5,1.0,,,,,,,,,,,
259,,size_choice,,html-keyboard-response,259,313386,0.0-1.0-342.0,0,0,27712,,602.0,,,68.0,85.0,85.0,2.0,1000.0,M-L,1.0,L,M,3.0,2.0,mailbox,basketball,mailbox7,basketball1,46.0,50.0,/static/Size_judgement/Stimuli/Size_stims/L/mailbox/mailbox7.jpg,/static/Size_judgement/Stimuli/Size_stims/M/basketball/basketball9.jpg,1.0,270.102,0.602,0.0,1.0,mailbox,basketball,L,M,3.0,2.0,mailbox7,basketball1,
260,,size_choice_confirmation,,html-keyboard-response,260,314286,0.0-1.0-343.0-0.0,0,0,27712,,,,,,85.0,,,,,,,,,,,,,,,,,,,271.0,0.898,,,,,,,,,,,
261,,iti,,html-keyboard-response,261,315289,0.0-1.0-344.0,0,0,27712,,,,,,,,,,,,,,,,,,,,,,,,,272.0,1.0,,,,,,,,,,,
262,,size_choice,,html-keyboard-response,262,315890,0.0-1.0-346.0,0,0,27712,,597.0,,,68.0,86.0,86.0,2.0,1500.0,S-XL,1.0,XL,S,4.0,1.0,dumptruck,screws,dumptruck6,screws8,175.0,127.0,/static/Size_judgement/Stimuli/Size_stims/XL/dumptruck/dumptruck2.jpg,/static/Size_judgement/Stimuli/Size_stims/S/screws/screws10.jpg,1.0,272.597,0.597,0.0,1.0,dumptruck,screws,XL,S,4.0,1.0,dumptruck6,screws8,
263,,size_choice_confirmation,,html-keyboard-response,263,316799,0.0-1.0-347.0-0.0,0,0,27712,,,,,,86.0,,,,,,,,,,,,,,,,,,,273.5,0.903,,,,,,,,,,,
264,,iti,,html-keyboard-response,264,318300,0.0-1.0-348.0,0,0,27712,,,,,,,,,,,,,,,,,,,,,,,,,275.0,1.5,,,,,,,,,,,
265,,size_choice,,html-keyboard-response,265,318820,0.0-1.0-350.0,0,0,27712,,518.0,,,68.0,87.0,87.0,2.0,1500.0,L-XL,1.0,XL,L,4.0,3.0,car,deskchair,car7,deskchair8,156.0,17.0,/static/Size_judgement/Stimuli/Size_stims/XL/car/car13.jpg,/static/Size_judgement/Stimuli/Size_stims/L/deskchair/deskchair1.jpg,1.0,275.518,0.518,0.0,1.0,car,deskchair,XL,L,4.0,3.0,car7,deskchair8,
266,,size_choice_confirmation,,html-keyboard-response,266,319804,0.0-1.0-351.0-0.0,0,0,27712,,,,,,87.0,,,,,,,,,,,,,,,,,,,276.5,0.982,,,,,,,,,,,
267,,iti,,html-keyboard-response,267,321311,0.0-1.0-352.0,0,0,27712,,,,,,,,,,,,,,,,,,,,,,,,,278.0,1.5,,,,,,,,,,,
268,,size_choice,,html-keyboard-response,268,322063,0.0-1.0-354.0,0,0,27712,,751.0,,,68.0,88.0,88.0,2.0,1000.0,M-L,1.0,L,M,3.0,2.0,garbagecan,hairdryer,garbagecan10,hairdryer7,39.0,76.0,/static/Size_judgement/Stimuli/Size_stims/L/garbagecan/garbagecan11.jpg,/static/Size_judgement/Stimuli/Size_stims/M/hairdryer/hairdryer3.jpg,1.0,278.751,0.751,0.0,1.0,garbagecan,hairdryer,L,M,3.0,2.0,garbagecan10,hairdryer7,
269,,size_choice_confirmation,,html-keyboard-response,269,322814,0.0-1.0-355.0-0.0,0,0,27712,,,,,,88.0,,,,,,,,,,,,,,,,,,,279.5,0.749,,,,,,,,,,,
270,,iti,,html-keyboard-response,270,323820,0.0-1.0-356.0,0,0,27712,,,,,,,,,,,,,,,,,,,,,,,,,280.5,1.0,,,,,,,,,,,
271,,size_choice,,html-keyboard-response,271,324333,0.0-1.0-358.0,0,0,27712,,511.0,,,75.0,89.0,89.0,2.0,2000.0,M-XL,0.0,M,XL,2.0,4.0,handsaw,car,handsaw5,car10,84.0,159.0,/static/Size_judgement/Stimuli/Size_stims/M/handsaw/handsaw1.jpg,/static/Size_judgement/Stimuli/Size_stims/XL/car/car9.jpg,1.0,281.011,0.511,0.0,0.0,car,handsaw,XL,M,4.0,2.0,car10,handsaw5,
272,,size_choice_confirmation,,html-keyboard-response,272,325324,0.0-1.0-359.0-0.0,0,0,27712,,,,,,89.0,,,,,,,,,,,,,,,,,,,282.0,0.989,,,,,,,,,,,
273,,iti,,html-keyboard-response,273,327329,0.0-1.0-360.0,0,0,27712,,,,,,,,,,,,,,,,,,,,,,,,,284.0,2.0,,,,,,,,,,,0.97
274,,size_final_tally,,html-keyboard-response,274,330190,0.0-2.0,0,0,27712,,2858.0,,,68.0,,,,,,,,,,,,,,,,,,,,,,,,,,,,,,,,
