,success,ttype,start_time,trial_type,trial_index,time_elapsed,internal_node_id,warning,missed_checkup,PID,view_history,rt,responses,repeat_instructions,key_press,index,trial_num,block,iti,pair_type,high_size_on_left,left_size_group,right_size_group,left_size_num,right_size_num,left_category,right_category,left_exemplar,right_exemplar,left_index,right_index,left_img_path,right_img_path,left_chosen,chosen_category,unchosen_category,chosen_size_group,unchosen_size_group,chosen_size_num,unchosen_size_num,chosen_exemplar,unchosen_exemplar,accuracy,onset,duration,no_response,size_final_tally
0,True,full_screen,d06022022hr1430,fullscreen,0,4814,0.0-0.0,0,0,1,,,,,,,,,,,,,,,,,,,,,,,,,,,,,,,,,,,,,
1,,size_instructions,,instructions,1,6999,0.0-1.0-0.0-0.0,0,0,1,"[{""page_index"":0,""viewing_time"":1071},{""page_index"":1,""viewing_time"":206},{""page_index"":2,""viewing_time"":222},{""page_index"":3,""viewing_time"":190},{""page_index"":4,""viewing_time"":223},{""page_index"":5,""viewing_time"":271}]",2183.0,,,,,,,,,,,,,,,,,,,,,,,,,,,,,,,,,,,
2,,size_comprehension_check,,survey-multi-choice,2,12738,0.0-1.0-0.0-1.0,0,0,1,,5736.0,"{""Q0"":""True"",""Q1"":""Size in the real world"",""Q2"":""True"",""Q3"":""pointer finger for left and middle finger for right""}",0.0,,,,,,,,,,,,,,,,,,,,,,,,,,,,,,,,,
3,,,,html-keyboard-response,3,13525,0.0-1.0-1.0,0,0,1,,785.0,,,50.0,,,,,,,,,,,,,,,,,,,,,,,,,,,,,,,,
4,,size_choice,,html-keyboard-response,4,13751,0.0-1.0-2.0,0,0,1,,224.0,,,50.0,0.0,0.0,1.0,1500.0,S-M,1.0,M,S,2.0,1.0,hairdryer,paperclip,hairdryer8,paperclip1,77.0,110.0,/static/Size_judgement/Stimuli/Size_stims/M/hairdryer/hairdryer1.jpg,/static/Size_judgement/Stimuli/Size_stims/S/paperclip/paperclip9.jpg,1.0,hairdryer,paperclip,M,S,2.0,1.0,hairdryer8,paperclip1,1.0,0.224,0.224,0.0,
5,,size_choice_confirmation,,html-keyboard-response,5,15034,0.0-1.0-3.0-0.0,0,0,1,,,,,,0.0,,,,,,,,,,,,,,,,,,,,,,,,,,,,1.5,1.276,,
6,,iti,,html-keyboard-response,6,15140,0.0-1.0-4.0,0,0,1,,,,,,,,,,,,,,,,,,,,,,,,,,,,,,,,,,3.0,1.5,,
7,,size_choice,,html-keyboard-response,7,16644,0.0-1.0-6.0,0,0,1,,,,,,1.0,1.0,1.0,1000.0,S-XL,0.0,S,XL,1.0,4.0,die,van,die5,van5,104.0,194.0,/static/Size_judgement/Stimuli/Size_stims/S/die/die3.jpg,/static/Size_judgement/Stimuli/Size_stims/XL/van/van3.jpg,,,,,,,,,,,4.5,1.5,1.0,
8,,iti,,html-keyboard-response,8,16746,0.0-1.0-8.0,0,0,1,,,,,,,,,,,,,,,,,,,,,,,,,,,,,,,,,,5.5,1.0,,
9,,size_choice,,html-keyboard-response,9,18252,0.0-1.0-10.0,0,0,1,,,,,,2.0,2.0,1.0,1000.0,S-L,1.0,L,S,3.0,1.0,dishwasher,thread,dishwasher8,thread1,27.0,140.0,/static/Size_judgement/Stimuli/Size_stims/L/dishwasher/dishwasher3.jpg,/static/Size_judgement/Stimuli/Size_stims/S/thread/thread7.jpg,,,,,,,,,,,7.0,1.5,1.0,
10,,iti,,html-keyboard-response,10,18357,0.0-1.0-12.0,0,0,1,,,,,,,,,,,,,,,,,,,,,,,,,,,,,,,,,,8.0,1.0,,
11,,size_choice,,html-keyboard-response,11,19076,0.0-1.0-14.0,0,0,1,,718.0,,,51.0,3.0,3.0,1.0,1500.0,M-XL,1.0,XL,M,4.0,2.0,van,basketball,van4,basketball9,193.0,58.0,/static/Size_judgement/Stimuli/Size_stims/XL/van/van7.jpg,/static/Size_judgement/Stimuli/Size_stims/M/basketball/basketball5.jpg,0.0,basketball,van,M,XL,2.0,4.0,basketball9,van4,0.0,8.718,0.718,0.0,
12,,size_choice_confirmation,,html-keyboard-response,12,19862,0.0-1.0-15.0-0.0,0,0,1,,,,,,3.0,,,,,,,,,,,,,,,,,,,,,,,,,,,,9.5,0.782,,
13,,iti,,html-keyboard-response,13,19965,0.0-1.0-16.0,0,0,1,,,,,,,,,,,,,,,,,,,,,,,,,,,,,,,,,,11.0,1.5,,
14,,size_choice,,html-keyboard-response,14,20030,0.0-1.0-18.0,0,0,1,,64.0,,,51.0,4.0,4.0,1.0,1500.0,M-XL,1.0,XL,M,4.0,2.0,crane,handsaw,crane4,handsaw4,163.0,83.0,/static/Size_judgement/Stimuli/Size_stims/XL/crane/crane5.jpg,/static/Size_judgement/Stimuli/Size_stims/M/handsaw/handsaw3.jpg,0.0,handsaw,crane,M,XL,2.0,4.0,handsaw4,crane4,0.0,11.064,0.064,0.0,
15,,size_choice_confirmation,,html-keyboard-response,15,21469,0.0-1.0-19.0-0.0,0,0,1,,,,,,4.0,,,,,,,,,,,,,,,,,,,,,,,,,,,,12.5,1.436,,
16,,iti,,html-keyboard-response,16,21574,0.0-1.0-20.0,0,0,1,,,,,,,,,,,,,,,,,,,,,,,,,,,,,,,,,,14.0,1.5,,
17,,size_choice,,html-keyboard-response,17,23080,0.0-1.0-22.0,0,0,1,,,,,,5.0,5.0,1.0,1000.0,M-L,1.0,L,M,3.0,2.0,deskchair,handsaw,deskchair9,handsaw9,18.0,88.0,/static/Size_judgement/Stimuli/Size_stims/L/deskchair/deskchair3.jpg,/static/Size_judgement/Stimuli/Size_stims/M/handsaw/handsaw6.jpg,,,,,,,,,,,15.5,1.5,1.0,
18,,iti,,html-keyboard-response,18,23185,0.0-1.0-24.0,0,0,1,,,,,,,,,,,,,,,,,,,,,,,,,,,,,,,,,,16.5,1.0,,
19,,size_choice,,html-keyboard-response,19,23197,0.0-1.0-26.0,0,0,1,,11.0,,,51.0,6.0,6.0,1.0,1500.0,M-L,0.0,M,L,2.0,3.0,coffeemaker,mailbox,coffeemaker7,mailbox7,66.0,46.0,/static/Size_judgement/Stimuli/Size_stims/M/coffeemaker/coffeemaker9.jpg,/static/Size_judgement/Stimuli/Size_stims/L/mailbox/mailbox7.jpg,0.0,mailbox,coffeemaker,L,M,3.0,2.0,mailbox7,coffeemaker7,1.0,16.511,0.011,0.0,
20,,size_choice_confirmation,,html-keyboard-response,20,24691,0.0-1.0-27.0-0.0,0,0,1,,,,,,6.0,,,,,,,,,,,,,,,,,,,,,,,,,,,,18.0,1.489,,
21,,iti,,html-keyboard-response,21,24795,0.0-1.0-28.0,0,0,1,,,,,,,,,,,,,,,,,,,,,,,,,,,,,,,,,,19.5,1.5,,
22,,size_choice,,html-keyboard-response,22,27006,0.0-1.0-30.0,0,0,1,,,,,,7.0,7.0,1.0,1500.0,M-L,1.0,L,M,3.0,2.0,deskchair,ketchup,deskchair10,ketchup3,19.0,92.0,/static/Size_judgement/Stimuli/Size_stims/L/deskchair/deskchair2.jpg,/static/Size_judgement/Stimuli/Size_stims/M/ketchup/ketchup10.jpg,,,,,,,,,,,21.0,1.5,1.0,
23,,iti,,html-keyboard-response,23,27110,0.0-1.0-32.0,0,0,1,,,,,,,,,,,,,,,,,,,,,,,,,,,,,,,,,,22.5,1.5,,
24,,size_choice,,html-keyboard-response,24,29279,0.0-1.0-34.0,0,0,1,,,,,,8.0,8.0,1.0,2000.0,S-L,1.0,L,S,3.0,1.0,cooler,paperclip,cooler8,paperclip3,7.0,112.0,/static/Size_judgement/Stimuli/Size_stims/L/cooler/cooler5.jpg,/static/Size_judgement/Stimuli/Size_stims/S/paperclip/paperclip1.jpg,,,,,,,,,,,24.0,1.5,1.0,
25,,iti,,html-keyboard-response,25,30362,0.0-1.0-36.0,0,0,1,,,,,,,,,,,,,,,,,,,,,,,,,,,,,,,,,,26.0,2.0,,
26,,size_choice,,html-keyboard-response,26,32334,0.0-1.0-38.0,0,0,1,,,,,,9.0,9.0,1.0,1500.0,M-L,0.0,M,L,2.0,3.0,basketball,garbagecan,basketball10,garbagecan5,59.0,34.0,/static/Size_judgement/Stimuli/Size_stims/M/basketball/basketball4.jpg,/static/Size_judgement/Stimuli/Size_stims/L/garbagecan/garbagecan3.jpg,,,,,,,,,,,27.5,1.5,1.0,
27,,iti,,html-keyboard-response,27,33751,0.0-1.0-40.0,0,0,1,,,,,,,,,,,,,,,,,,,,,,,,,,,,,,,,,,29.0,1.5,,
28,,size_choice,,html-keyboard-response,28,35456,0.0-1.0-42.0,0,0,1,,,,,,10.0,10.0,1.0,2000.0,S-L,1.0,L,S,3.0,1.0,dishwasher,teabag,dishwasher1,teabag5,20.0,134.0,/static/Size_judgement/Stimuli/Size_stims/L/dishwasher/dishwasher10.jpg,/static/Size_judgement/Stimuli/Size_stims/S/teabag/teabag2.jpg,,,,,,,,,,,30.5,1.5,1.0,
29,,iti,,html-keyboard-response,29,36545,0.0-1.0-44.0,0,0,1,,,,,,,,,,,,,,,,,,,,,,,,,,,,,,,,,,32.5,2.0,,
30,,size_choice,,html-keyboard-response,30,38289,0.0-1.0-46.0,0,0,1,,,,,,11.0,11.0,1.0,1000.0,S-S,,S,S,1.0,1.0,thread,die,thread10,die4,149.0,103.0,/static/Size_judgement/Stimuli/Size_stims/S/thread/thread9.jpg,/static/Size_judgement/Stimuli/Size_stims/S/die/die2.jpg,,,,,,,,,,,34.0,1.5,1.0,
31,,iti,,html-keyboard-response,31,39580,0.0-1.0-48.0,0,0,1,,,,,,,,,,,,,,,,,,,,,,,,,,,,,,,,,,35.0,1.0,,
32,,size_choice,,html-keyboard-response,32,41306,0.0-1.0-50.0,0,0,1,,,,,,12.0,12.0,1.0,1000.0,S-XL,0.0,S,XL,1.0,4.0,teabag,crane,teabag6,crane6,135.0,165.0,/static/Size_judgement/Stimuli/Size_stims/S/teabag/teabag6.jpg,/static/Size_judgement/Stimuli/Size_stims/XL/crane/crane2.jpg,,,,,,,,,,,36.5,1.5,1.0,
33,,iti,,html-keyboard-response,33,42761,0.0-1.0-52.0,0,0,1,,,,,,,,,,,,,,,,,,,,,,,,,,,,,,,,,,37.5,1.0,,
34,,size_choice,,html-keyboard-response,34,44697,0.0-1.0-54.0,0,0,1,,,,,,13.0,13.0,1.0,1500.0,S-M,0.0,S,M,1.0,2.0,paperclip,ketchup,paperclip2,ketchup7,111.0,96.0,/static/Size_judgement/Stimuli/Size_stims/S/paperclip/paperclip8.jpg,/static/Size_judgement/Stimuli/Size_stims/M/ketchup/ketchup4.jpg,,,,,,,,,,,39.0,1.5,1.0,
35,,iti,,html-keyboard-response,35,45569,0.0-1.0-56.0,0,0,1,,,,,,,,,,,,,,,,,,,,,,,,,,,,,,,,,,40.5,1.5,,
36,,size_choice,,html-keyboard-response,36,48132,0.0-1.0-58.0,0,0,1,,,,,,14.0,14.0,1.0,2000.0,S-L,0.0,S,L,1.0,3.0,thread,garbagecan,thread6,garbagecan8,145.0,37.0,/static/Size_judgement/Stimuli/Size_stims/S/thread/thread2.jpg,/static/Size_judgement/Stimuli/Size_stims/L/garbagecan/garbagecan13.jpg,,,,,,,,,,,42.0,1.5,1.0,
37,,iti,,html-keyboard-response,37,48351,0.0-1.0-60.0,0,0,1,,,,,,,,,,,,,,,,,,,,,,,,,,,,,,,,,,44.0,2.0,,
38,,size_choice,,html-keyboard-response,38,51022,0.0-1.0-62.0,0,0,1,,,,,,15.0,15.0,1.0,1000.0,S-L,0.0,S,L,1.0,3.0,screws,dishwasher,screws4,dishwasher2,123.0,21.0,/static/Size_judgement/Stimuli/Size_stims/S/screws/screws6.jpg,/static/Size_judgement/Stimuli/Size_stims/L/dishwasher/dishwasher9.jpg,,,,,,,,,,,45.5,1.5,1.0,
39,,iti,,html-keyboard-response,39,51407,0.0-1.0-64.0,0,0,1,,,,,,,,,,,,,,,,,,,,,,,,,,,,,,,,,,46.5,1.0,,
40,,size_choice,,html-keyboard-response,40,53727,0.0-1.0-66.0,0,0,1,,,,,,16.0,16.0,1.0,3000.0,XL-XL,,XL,XL,4.0,4.0,dumptruck,crane,dumptruck9,crane9,178.0,168.0,/static/Size_judgement/Stimuli/Size_stims/XL/dumptruck/dumptruck5.jpg,/static/Size_judgement/Stimuli/Size_stims/XL/crane/crane8.jpg,,,,,,,,,,,48.0,1.5,1.0,
41,,iti,,html-keyboard-response,41,54279,0.0-1.0-68.0,0,0,1,,,,,,,,,,,,,,,,,,,,,,,,,,,,,,,,,,51.0,3.0,,
42,,size_choice,,html-keyboard-response,42,55781,0.0-1.0-70.0,0,0,1,,,,,,17.0,17.0,1.0,1000.0,L-L,,L,L,3.0,3.0,deskchair,mailbox,deskchair2,mailbox5,11.0,44.0,/static/Size_judgement/Stimuli/Size_stims/L/deskchair/deskchair8.jpg,/static/Size_judgement/Stimuli/Size_stims/L/mailbox/mailbox4.jpg,,,,,,,,,,,52.5,1.5,1.0,
43,,iti,,html-keyboard-response,43,55882,0.0-1.0-72.0,0,0,1,,,,,,,,,,,,,,,,,,,,,,,,,,,,,,,,,,53.5,1.0,,
44,,size_choice,,html-keyboard-response,44,56530,0.0-1.0-74.0,0,0,1,,648.0,,,51.0,18.0,18.0,1.0,3000.0,M-XL,1.0,XL,M,4.0,2.0,van,coffeemaker,van2,coffeemaker8,191.0,67.0,/static/Size_judgement/Stimuli/Size_stims/XL/van/van4.jpg,/static/Size_judgement/Stimuli/Size_stims/M/coffeemaker/coffeemaker5.jpg,0.0,coffeemaker,van,M,XL,2.0,4.0,coffeemaker8,van2,0.0,54.148,0.648,0.0,
45,,size_choice_confirmation,,html-keyboard-response,45,57385,0.0-1.0-75.0-0.0,0,0,1,,,,,,18.0,,,,,,,,,,,,,,,,,,,,,,,,,,,,55.0,0.852,,
46,,iti,,html-keyboard-response,46,57487,0.0-1.0-76.0,0,0,1,,,,,,,,,,,,,,,,,,,,,,,,,,,,,,,,,,58.0,3.0,,
47,,size_choice,,html-keyboard-response,47,59423,0.0-1.0-78.0,0,0,1,,,,,,19.0,19.0,1.0,1000.0,M-XL,1.0,XL,M,4.0,2.0,tractor,handsaw,tractor6,handsaw1,185.0,80.0,/static/Size_judgement/Stimuli/Size_stims/XL/tractor/tractor3.jpg,/static/Size_judgement/Stimuli/Size_stims/M/handsaw/handsaw8.jpg,,,,,,,,,,,59.5,1.5,1.0,
48,,iti,,html-keyboard-response,48,60279,0.0-1.0-80.0,0,0,1,,,,,,,,,,,,,,,,,,,,,,,,,,,,,,,,,,60.5,1.0,,
49,,size_choice,,html-keyboard-response,49,62465,0.0-1.0-82.0,0,0,1,,,,,,20.0,20.0,1.0,1000.0,M-XL,0.0,M,XL,2.0,4.0,hairdryer,van,hairdryer9,van1,78.0,190.0,/static/Size_judgement/Stimuli/Size_stims/M/hairdryer/hairdryer5.jpg,/static/Size_judgement/Stimuli/Size_stims/XL/van/van5.jpg,,,,,,,,,,,62.0,1.5,1.0,
50,,iti,,html-keyboard-response,50,63685,0.0-1.0-84.0,0,0,1,,,,,,,,,,,,,,,,,,,,,,,,,,,,,,,,,,63.0,1.0,,
51,,size_choice,,html-keyboard-response,51,65948,0.0-1.0-86.0,0,0,1,,,,,,21.0,21.0,1.0,1000.0,S-M,0.0,S,M,1.0,2.0,die,hairdryer,die6,hairdryer4,105.0,73.0,/static/Size_judgement/Stimuli/Size_stims/S/die/die1.jpg,/static/Size_judgement/Stimuli/Size_stims/M/hairdryer/hairdryer16.jpg,,,,,,,,,,,64.5,1.5,1.0,
52,,iti,,html-keyboard-response,52,66443,0.0-1.0-88.0,0,0,1,,,,,,,,,,,,,,,,,,,,,,,,,,,,,,,,,,65.5,1.0,,
53,,size_choice,,html-keyboard-response,53,68394,0.0-1.0-90.0,0,0,1,,,,,,22.0,22.0,1.0,1000.0,S-L,1.0,L,S,3.0,1.0,mailbox,teabag,mailbox3,teabag8,42.0,137.0,/static/Size_judgement/Stimuli/Size_stims/L/mailbox/mailbox1.jpg,/static/Size_judgement/Stimuli/Size_stims/S/teabag/teabag7.jpg,,,,,,,,,,,67.0,1.5,1.0,
54,,iti,,html-keyboard-response,54,69718,0.0-1.0-92.0,0,0,1,,,,,,,,,,,,,,,,,,,,,,,,,,,,,,,,,,68.0,1.0,,
55,,size_choice,,html-keyboard-response,55,71551,0.0-1.0-94.0,0,0,1,,,,,,23.0,23.0,1.0,1500.0,M-XL,1.0,XL,M,4.0,2.0,tractor,basketball,tractor4,basketball4,183.0,53.0,/static/Size_judgement/Stimuli/Size_stims/XL/tractor/tractor4.jpg,/static/Size_judgement/Stimuli/Size_stims/M/basketball/basketball1.jpg,,,,,,,,,,,69.5,1.5,1.0,
56,,iti,,html-keyboard-response,56,72639,0.0-1.0-96.0,0,0,1,,,,,,,,,,,,,,,,,,,,,,,,,,,,,,,,,,71.0,1.5,,
57,,size_choice,,html-keyboard-response,57,74279,0.0-1.0-98.0,0,0,1,,,,,,24.0,24.0,1.0,2000.0,S-XL,1.0,XL,S,4.0,1.0,dumptruck,die,dumptruck6,die8,175.0,107.0,/static/Size_judgement/Stimuli/Size_stims/XL/dumptruck/dumptruck2.jpg,/static/Size_judgement/Stimuli/Size_stims/S/die/die5.jpg,,,,,,,,,,,72.5,1.5,1.0,
58,,iti,,html-keyboard-response,58,75407,0.0-1.0-100.0,0,0,1,,,,,,,,,,,,,,,,,,,,,,,,,,,,,,,,,,74.5,2.0,,
59,,size_choice,,html-keyboard-response,59,77408,0.0-1.0-102.0,0,0,1,,,,,,25.0,25.0,1.0,1000.0,S-XL,1.0,XL,S,4.0,1.0,van,die,van10,die10,199.0,109.0,/static/Size_judgement/Stimuli/Size_stims/XL/van/van8.jpg,/static/Size_judgement/Stimuli/Size_stims/S/die/die6.jpg,,,,,,,,,,,76.0,1.5,1.0,
60,,iti,,html-keyboard-response,60,78713,0.0-1.0-104.0,0,0,1,,,,,,,,,,,,,,,,,,,,,,,,,,,,,,,,,,77.0,1.0,,
61,,size_choice,,html-keyboard-response,61,80279,0.0-1.0-106.0,0,0,1,,,,,,26.0,26.0,1.0,2000.0,M-M,,M,M,2.0,2.0,coffeemaker,hairdryer,coffeemaker5,hairdryer1,64.0,70.0,/static/Size_judgement/Stimuli/Size_stims/M/coffeemaker/coffeemaker10.jpg,/static/Size_judgement/Stimuli/Size_stims/M/hairdryer/hairdryer11.jpg,,,,,,,,,,,78.5,1.5,1.0,
62,,iti,,html-keyboard-response,62,81333,0.0-1.0-108.0,0,0,1,,,,,,,,,,,,,,,,,,,,,,,,,,,,,,,,,,80.5,2.0,,
63,,size_choice,,html-keyboard-response,63,82836,0.0-1.0-110.0,0,0,1,,,,,,27.0,27.0,1.0,3000.0,XL-XL,,XL,XL,4.0,4.0,car,dumptruck,car7,dumptruck2,156.0,171.0,/static/Size_judgement/Stimuli/Size_stims/XL/car/car13.jpg,/static/Size_judgement/Stimuli/Size_stims/XL/dumptruck/dumptruck8.jpg,,,,,,,,,,,82.0,1.5,1.0,
64,,iti,,html-keyboard-response,64,82937,0.0-1.0-112.0,0,0,1,,,,,,,,,,,,,,,,,,,,,,,,,,,,,,,,,,85.0,3.0,,
65,,size_choice,,html-keyboard-response,65,83056,0.0-1.0-114.0,0,0,1,,117.0,,,51.0,28.0,28.0,1.0,1000.0,M-L,1.0,L,M,3.0,2.0,mailbox,ketchup,mailbox2,ketchup6,41.0,95.0,/static/Size_judgement/Stimuli/Size_stims/L/mailbox/mailbox2.jpg,/static/Size_judgement/Stimuli/Size_stims/M/ketchup/ketchup1.jpg,0.0,ketchup,mailbox,M,L,2.0,3.0,ketchup6,mailbox2,0.0,85.117,0.117,0.0,
66,,size_choice_confirmation,,html-keyboard-response,66,84443,0.0-1.0-115.0-0.0,0,0,1,,,,,,28.0,,,,,,,,,,,,,,,,,,,,,,,,,,,,86.5,1.383,,
67,,iti,,html-keyboard-response,67,84548,0.0-1.0-116.0,0,0,1,,,,,,,,,,,,,,,,,,,,,,,,,,,,,,,,,,87.5,1.0,,
68,,size_choice,,html-keyboard-response,68,84795,0.0-1.0-118.0,0,0,1,,246.0,,,50.0,29.0,29.0,1.0,3500.0,L-XL,1.0,XL,L,4.0,3.0,van,cooler,van7,cooler5,196.0,4.0,/static/Size_judgement/Stimuli/Size_stims/XL/van/van1.jpg,/static/Size_judgement/Stimuli/Size_stims/L/cooler/cooler10.jpg,1.0,van,cooler,XL,L,4.0,3.0,van7,cooler5,1.0,87.746,0.246,0.0,
69,,size_choice_confirmation,,html-keyboard-response,69,86053,0.0-1.0-119.0-0.0,0,0,1,,,,,,29.0,,,,,,,,,,,,,,,,,,,,,,,,,,,,89.0,1.254,,
70,,iti,,html-keyboard-response,70,86153,0.0-1.0-120.0,0,0,1,,,,,,,,,,,,,,,,,,,,,,,,,,,,,,,,,,92.5,3.5,,
71,,size_choice,,html-keyboard-response,71,86178,0.0-1.0-122.0,0,0,1,,23.0,,,51.0,30.0,30.0,1.0,1000.0,S-S,,S,S,1.0,1.0,paperclip,teabag,paperclip9,teabag2,118.0,131.0,/static/Size_judgement/Stimuli/Size_stims/S/paperclip/paperclip4.jpg,/static/Size_judgement/Stimuli/Size_stims/S/teabag/teabag8.jpg,0.0,teabag,paperclip,S,S,1.0,1.0,teabag2,paperclip9,,92.523,0.023,0.0,
72,,size_choice_confirmation,,html-keyboard-response,72,87657,0.0-1.0-123.0-0.0,0,0,1,,,,,,30.0,,,,,,,,,,,,,,,,,,,,,,,,,,,,94.0,1.477,,
73,,iti,,html-keyboard-response,73,87758,0.0-1.0-124.0,0,0,1,,,,,,,,,,,,,,,,,,,,,,,,,,,,,,,,,,95.0,1.0,,
74,,size_choice,,html-keyboard-response,74,87945,0.0-1.0-126.0,0,0,1,,186.0,,,51.0,31.0,31.0,1.0,1500.0,S-S,,S,S,1.0,1.0,thread,screws,thread4,screws8,143.0,127.0,/static/Size_judgement/Stimuli/Size_stims/S/thread/thread5.jpg,/static/Size_judgement/Stimuli/Size_stims/S/screws/screws10.jpg,0.0,screws,thread,S,S,1.0,1.0,screws8,thread4,,95.186,0.186,0.0,
75,,size_choice_confirmation,,html-keyboard-response,75,89263,0.0-1.0-127.0-0.0,0,0,1,,,,,,31.0,,,,,,,,,,,,,,,,,,,,,,,,,,,,96.5,1.314,,
76,,iti,,html-keyboard-response,76,89368,0.0-1.0-128.0,0,0,1,,,,,,,,,,,,,,,,,,,,,,,,,,,,,,,,,,98.0,1.5,,
77,,size_choice,,html-keyboard-response,77,90873,0.0-1.0-130.0,0,0,1,,,,,,32.0,32.0,1.0,2000.0,S-XL,0.0,S,XL,1.0,4.0,die,crane,die7,crane8,106.0,167.0,/static/Size_judgement/Stimuli/Size_stims/S/die/die4.jpg,/static/Size_judgement/Stimuli/Size_stims/XL/crane/crane10.jpg,,,,,,,,,,,99.5,1.5,1.0,
78,,iti,,html-keyboard-response,78,90974,0.0-1.0-132.0,0,0,1,,,,,,,,,,,,,,,,,,,,,,,,,,,,,,,,,,101.5,2.0,,
79,,size_choice,,html-keyboard-response,79,92478,0.0-1.0-134.0,0,0,1,,,,,,33.0,33.0,1.0,1000.0,M-M,,M,M,2.0,2.0,hairdryer,handsaw,hairdryer3,handsaw3,72.0,82.0,/static/Size_judgement/Stimuli/Size_stims/M/hairdryer/hairdryer17.jpg,/static/Size_judgement/Stimuli/Size_stims/M/handsaw/handsaw2.jpg,,,,,,,,,,,103.0,1.5,1.0,
80,,iti,,html-keyboard-response,80,92580,0.0-1.0-136.0,0,0,1,,,,,,,,,,,,,,,,,,,,,,,,,,,,,,,,,,104.0,1.0,,
81,,size_choice,,html-keyboard-response,81,94084,0.0-1.0-138.0,0,0,1,,,,,,34.0,34.0,1.0,1500.0,L-L,,L,L,3.0,3.0,garbagecan,cooler,garbagecan9,cooler1,38.0,0.0,/static/Size_judgement/Stimuli/Size_stims/L/garbagecan/garbagecan12.jpg,/static/Size_judgement/Stimuli/Size_stims/L/cooler/cooler8.jpg,,,,,,,,,,,105.5,1.5,1.0,
82,,iti,,html-keyboard-response,82,94188,0.0-1.0-140.0,0,0,1,,,,,,,,,,,,,,,,,,,,,,,,,,,,,,,,,,107.0,1.5,,
83,,size_choice,,html-keyboard-response,83,95689,0.0-1.0-142.0,0,0,1,,,,,,35.0,35.0,1.0,2000.0,S-L,1.0,L,S,3.0,1.0,cooler,teabag,cooler9,teabag1,8.0,130.0,/static/Size_judgement/Stimuli/Size_stims/L/cooler/cooler7.jpg,/static/Size_judgement/Stimuli/Size_stims/S/teabag/teabag9.jpg,,,,,,,,,,,108.5,1.5,1.0,
84,,iti,,html-keyboard-response,84,95791,0.0-1.0-144.0,0,0,1,,,,,,,,,,,,,,,,,,,,,,,,,,,,,,,,,,110.5,2.0,,
85,,size_choice,,html-keyboard-response,85,97295,0.0-1.0-146.0,0,0,1,,,,,,36.0,36.0,1.0,3500.0,M-L,1.0,L,M,3.0,2.0,garbagecan,ketchup,garbagecan3,ketchup5,32.0,94.0,/static/Size_judgement/Stimuli/Size_stims/L/garbagecan/garbagecan7.jpg,/static/Size_judgement/Stimuli/Size_stims/M/ketchup/ketchup3.jpg,,,,,,,,,,,112.0,1.5,1.0,
86,,iti,,html-keyboard-response,86,97400,0.0-1.0-148.0,0,0,1,,,,,,,,,,,,,,,,,,,,,,,,,,,,,,,,,,115.5,3.5,,
87,,size_choice,,html-keyboard-response,87,98905,0.0-1.0-150.0,0,0,1,,,,,,37.0,37.0,1.0,1500.0,M-L,1.0,L,M,3.0,2.0,mailbox,ketchup,mailbox6,ketchup4,45.0,93.0,/static/Size_judgement/Stimuli/Size_stims/L/mailbox/mailbox6.jpg,/static/Size_judgement/Stimuli/Size_stims/M/ketchup/ketchup2.jpg,,,,,,,,,,,117.0,1.5,1.0,
88,,iti,,html-keyboard-response,88,99011,0.0-1.0-152.0,0,0,1,,,,,,,,,,,,,,,,,,,,,,,,,,,,,,,,,,118.5,1.5,,
89,,size_choice,,html-keyboard-response,89,100516,0.0-1.0-154.0,0,0,1,,,,,,38.0,38.0,1.0,1000.0,L-L,,L,L,3.0,3.0,mailbox,garbagecan,mailbox8,garbagecan4,47.0,33.0,/static/Size_judgement/Stimuli/Size_stims/L/mailbox/mailbox10.jpg,/static/Size_judgement/Stimuli/Size_stims/L/garbagecan/garbagecan6.jpg,,,,,,,,,,,120.0,1.5,1.0,
90,,iti,,html-keyboard-response,90,100618,0.0-1.0-156.0,0,0,1,,,,,,,,,,,,,,,,,,,,,,,,,,,,,,,,,,121.0,1.0,,
91,,size_choice,,html-keyboard-response,91,102121,0.0-1.0-158.0,0,0,1,,,,,,39.0,39.0,1.0,1000.0,M-M,,M,M,2.0,2.0,basketball,hairdryer,basketball6,hairdryer7,55.0,76.0,/static/Size_judgement/Stimuli/Size_stims/M/basketball/basketball2.jpg,/static/Size_judgement/Stimuli/Size_stims/M/hairdryer/hairdryer3.jpg,,,,,,,,,,,122.5,1.5,1.0,
92,,iti,,html-keyboard-response,92,102226,0.0-1.0-160.0,0,0,1,,,,,,,,,,,,,,,,,,,,,,,,,,,,,,,,,,123.5,1.0,,
93,,size_choice,,html-keyboard-response,93,103727,0.0-1.0-162.0,0,0,1,,,,,,40.0,40.0,1.0,3000.0,S-XL,1.0,XL,S,4.0,1.0,crane,thread,crane7,thread5,166.0,144.0,/static/Size_judgement/Stimuli/Size_stims/XL/crane/crane3.jpg,/static/Size_judgement/Stimuli/Size_stims/S/thread/thread1.jpg,,,,,,,,,,,125.0,1.5,1.0,
94,,iti,,html-keyboard-response,94,103829,0.0-1.0-164.0,0,0,1,,,,,,,,,,,,,,,,,,,,,,,,,,,,,,,,,,128.0,3.0,,
95,,size_choice,,html-keyboard-response,95,103906,0.0-1.0-166.0,0,0,1,,76.0,,,51.0,41.0,41.0,1.0,1000.0,S-XL,0.0,S,XL,1.0,4.0,teabag,tractor,teabag7,tractor7,136.0,186.0,/static/Size_judgement/Stimuli/Size_stims/S/teabag/teabag10.jpg,/static/Size_judgement/Stimuli/Size_stims/XL/tractor/tractor2.jpg,0.0,tractor,teabag,XL,S,4.0,1.0,tractor7,teabag7,1.0,128.076,0.076,0.0,
96,,size_choice_confirmation,,html-keyboard-response,96,105336,0.0-1.0-167.0-0.0,0,0,1,,,,,,41.0,,,,,,,,,,,,,,,,,,,,,,,,,,,,129.5,1.424,,
97,,iti,,html-keyboard-response,97,105441,0.0-1.0-168.0,0,0,1,,,,,,,,,,,,,,,,,,,,,,,,,,,,,,,,,,130.5,1.0,,
98,,size_choice,,html-keyboard-response,98,105447,0.0-1.0-170.0,0,0,1,,4.0,,,50.0,42.0,42.0,1.0,1500.0,L-XL,0.0,L,XL,3.0,4.0,garbagecan,car,garbagecan10,car6,39.0,155.0,/static/Size_judgement/Stimuli/Size_stims/L/garbagecan/garbagecan11.jpg,/static/Size_judgement/Stimuli/Size_stims/XL/car/car12.jpg,1.0,garbagecan,car,L,XL,3.0,4.0,garbagecan10,car6,0.0,130.504,0.004,0.0,
99,,size_choice_confirmation,,html-keyboard-response,99,106948,0.0-1.0-171.0-0.0,0,0,1,,,,,,42.0,,,,,,,,,,,,,,,,,,,,,,,,,,,,132.0,1.496,,
100,,iti,,html-keyboard-response,100,107054,0.0-1.0-172.0,0,0,1,,,,,,,,,,,,,,,,,,,,,,,,,,,,,,,,,,133.5,1.5,,
101,,size_choice,,html-keyboard-response,101,107623,0.0-1.0-174.0,0,0,1,,568.0,,,50.0,43.0,43.0,1.0,3500.0,M-XL,1.0,XL,M,4.0,2.0,car,coffeemaker,car4,coffeemaker9,153.0,68.0,/static/Size_judgement/Stimuli/Size_stims/XL/car/car6.jpg,/static/Size_judgement/Stimuli/Size_stims/M/coffeemaker/coffeemaker7.jpg,1.0,car,coffeemaker,XL,M,4.0,2.0,car4,coffeemaker9,1.0,134.068,0.568,0.0,
102,,size_choice_confirmation,,html-keyboard-response,102,108559,0.0-1.0-175.0-0.0,0,0,1,,,,,,43.0,,,,,,,,,,,,,,,,,,,,,,,,,,,,135.0,0.932,,
103,,iti,,html-keyboard-response,103,108660,0.0-1.0-176.0,0,0,1,,,,,,,,,,,,,,,,,,,,,,,,,,,,,,,,,,138.5,3.5,,
104,,size_choice,,html-keyboard-response,104,109103,0.0-1.0-178.0,0,0,1,,441.0,,,51.0,44.0,44.0,1.0,2000.0,L-XL,0.0,L,XL,3.0,4.0,cooler,car,cooler4,car5,3.0,154.0,/static/Size_judgement/Stimuli/Size_stims/L/cooler/cooler3.jpg,/static/Size_judgement/Stimuli/Size_stims/XL/car/car11.jpg,0.0,car,cooler,XL,L,4.0,3.0,car5,cooler4,1.0,138.941,0.441,0.0,
105,,size_choice_confirmation,,html-keyboard-response,105,110165,0.0-1.0-179.0-0.0,0,0,1,,,,,,44.0,,,,,,,,,,,,,,,,,,,,,,,,,,,,140.0,1.059,,
106,,iti,,html-keyboard-response,106,110269,0.0-1.0-180.0,0,0,1,,,,,,,,,,,,,,,,,,,,,,,,,,,,,,,,,,142.0,2.0,,
107,,block_over,,html-keyboard-response,107,110573,0.0-1.0-181.0-0.0,0,0,1,,303.0,,,50.0,44.0,,,,,,,,,,,,,,,,,,,,,,,,,,,,,,,
108,,size_choice,,html-keyboard-response,108,110854,0.0-1.0-182.0,0,0,1,,280.0,,,51.0,45.0,45.0,2.0,3500.0,S-M,0.0,S,M,1.0,2.0,screws,handsaw,screws5,handsaw6,124.0,85.0,/static/Size_judgement/Stimuli/Size_stims/S/screws/screws2.jpg,/static/Size_judgement/Stimuli/Size_stims/M/handsaw/handsaw4.jpg,0.0,handsaw,screws,M,S,2.0,1.0,handsaw6,screws5,1.0,142.28,0.28,0.0,
109,,size_choice_confirmation,,html-keyboard-response,109,112079,0.0-1.0-183.0-0.0,0,0,1,,,,,,45.0,,,,,,,,,,,,,,,,,,,,,,,,,,,,143.5,1.22,,
110,,iti,,html-keyboard-response,110,112181,0.0-1.0-184.0,0,0,1,,,,,,,,,,,,,,,,,,,,,,,,,,,,,,,,,,147.0,3.5,,
111,,size_choice,,html-keyboard-response,111,112182,0.0-1.0-186.0,0,0,1,,0.0,,,51.0,46.0,46.0,2.0,1000.0,S-S,,S,S,1.0,1.0,screws,paperclip,screws9,paperclip6,128.0,115.0,/static/Size_judgement/Stimuli/Size_stims/S/screws/screws8.jpg,/static/Size_judgement/Stimuli/Size_stims/S/paperclip/paperclip6.jpg,0.0,paperclip,screws,S,S,1.0,1.0,paperclip6,screws9,,147.0,0.0,0.0,
112,,size_choice_confirmation,,html-keyboard-response,112,113687,0.0-1.0-187.0-0.0,0,0,1,,,,,,46.0,,,,,,,,,,,,,,,,,,,,,,,,,,,,148.5,1.5,,
113,,iti,,html-keyboard-response,113,113791,0.0-1.0-188.0,0,0,1,,,,,,,,,,,,,,,,,,,,,,,,,,,,,,,,,,149.5,1.0,,
114,,size_choice,,html-keyboard-response,114,114036,0.0-1.0-190.0,0,0,1,,245.0,,,50.0,47.0,47.0,2.0,2000.0,M-XL,1.0,XL,M,4.0,2.0,crane,basketball,crane5,basketball5,164.0,54.0,/static/Size_judgement/Stimuli/Size_stims/XL/crane/crane1.jpg,/static/Size_judgement/Stimuli/Size_stims/M/basketball/basketball3.jpg,1.0,crane,basketball,XL,M,4.0,2.0,crane5,basketball5,1.0,149.745,0.245,0.0,
115,,size_choice_confirmation,,html-keyboard-response,115,115295,0.0-1.0-191.0-0.0,0,0,1,,,,,,47.0,,,,,,,,,,,,,,,,,,,,,,,,,,,,151.0,1.255,,
116,,iti,,html-keyboard-response,116,115400,0.0-1.0-192.0,0,0,1,,,,,,,,,,,,,,,,,,,,,,,,,,,,,,,,,,153.0,2.0,,
117,,size_choice,,html-keyboard-response,117,115422,0.0-1.0-194.0,0,0,1,,20.0,,,50.0,48.0,48.0,2.0,1000.0,M-L,0.0,M,L,2.0,3.0,hairdryer,mailbox,hairdryer6,mailbox10,75.0,49.0,/static/Size_judgement/Stimuli/Size_stims/M/hairdryer/hairdryer8.jpg,/static/Size_judgement/Stimuli/Size_stims/L/mailbox/mailbox8.jpg,1.0,hairdryer,mailbox,M,L,2.0,3.0,hairdryer6,mailbox10,0.0,153.02,0.02,0.0,
118,,size_choice_confirmation,,html-keyboard-response,118,116905,0.0-1.0-195.0-0.0,0,0,1,,,,,,48.0,,,,,,,,,,,,,,,,,,,,,,,,,,,,154.5,1.48,,
119,,iti,,html-keyboard-response,119,117009,0.0-1.0-196.0,0,0,1,,,,,,,,,,,,,,,,,,,,,,,,,,,,,,,,,,155.5,1.0,,
120,,size_choice,,html-keyboard-response,120,117496,0.0-1.0-198.0,0,0,1,,484.0,,,50.0,49.0,49.0,2.0,2000.0,M-XL,1.0,XL,M,4.0,2.0,tractor,coffeemaker,tractor5,coffeemaker1,184.0,60.0,/static/Size_judgement/Stimuli/Size_stims/XL/tractor/tractor1.jpg,/static/Size_judgement/Stimuli/Size_stims/M/coffeemaker/coffeemaker14.jpg,1.0,tractor,coffeemaker,XL,M,4.0,2.0,tractor5,coffeemaker1,1.0,155.984,0.484,0.0,
121,,size_choice_confirmation,,html-keyboard-response,121,118516,0.0-1.0-199.0-0.0,0,0,1,,,,,,49.0,,,,,,,,,,,,,,,,,,,,,,,,,,,,157.0,1.016,,
122,,iti,,html-keyboard-response,122,118617,0.0-1.0-200.0,0,0,1,,,,,,,,,,,,,,,,,,,,,,,,,,,,,,,,,,159.0,2.0,,
123,,size_choice,,html-keyboard-response,123,119071,0.0-1.0-202.0,0,0,1,,452.0,,,51.0,50.0,50.0,2.0,1000.0,S-XL,1.0,XL,S,4.0,1.0,car,teabag,car9,teabag10,158.0,139.0,/static/Size_judgement/Stimuli/Size_stims/XL/car/car15.jpg,/static/Size_judgement/Stimuli/Size_stims/S/teabag/teabag4.jpg,0.0,teabag,car,S,XL,1.0,4.0,teabag10,car9,0.0,159.452,0.452,0.0,
124,,size_choice_confirmation,,html-keyboard-response,124,120121,0.0-1.0-203.0-0.0,0,0,1,,,,,,50.0,,,,,,,,,,,,,,,,,,,,,,,,,,,,160.5,1.048,,
125,,iti,,html-keyboard-response,125,120227,0.0-1.0-204.0,0,0,1,,,,,,,,,,,,,,,,,,,,,,,,,,,,,,,,,,161.5,1.0,,
126,,size_choice,,html-keyboard-response,126,120626,0.0-1.0-206.0,0,0,1,,398.0,,,51.0,51.0,51.0,2.0,1500.0,XL-XL,,XL,XL,4.0,4.0,crane,car,crane10,car8,169.0,157.0,/static/Size_judgement/Stimuli/Size_stims/XL/crane/crane9.jpg,/static/Size_judgement/Stimuli/Size_stims/XL/car/car14.jpg,0.0,car,crane,XL,XL,4.0,4.0,car8,crane10,,161.898,0.398,0.0,
127,,size_choice_confirmation,,html-keyboard-response,127,121732,0.0-1.0-207.0-0.0,0,0,1,,,,,,51.0,,,,,,,,,,,,,,,,,,,,,,,,,,,,163.0,1.102,,
128,,iti,,html-keyboard-response,128,121833,0.0-1.0-208.0,0,0,1,,,,,,,,,,,,,,,,,,,,,,,,,,,,,,,,,,164.5,1.5,,
129,,size_choice,,html-keyboard-response,129,121861,0.0-1.0-210.0,0,0,1,,27.0,,,50.0,52.0,52.0,2.0,1000.0,M-L,0.0,M,L,2.0,3.0,coffeemaker,dishwasher,coffeemaker2,dishwasher3,61.0,22.0,/static/Size_judgement/Stimuli/Size_stims/M/coffeemaker/coffeemaker12.jpg,/static/Size_judgement/Stimuli/Size_stims/L/dishwasher/dishwasher8.jpg,1.0,coffeemaker,dishwasher,M,L,2.0,3.0,coffeemaker2,dishwasher3,0.0,164.527,0.027,0.0,
130,,size_choice_confirmation,,html-keyboard-response,130,123338,0.0-1.0-211.0-0.0,0,0,1,,,,,,52.0,,,,,,,,,,,,,,,,,,,,,,,,,,,,166.0,1.473,,
131,,iti,,html-keyboard-response,131,123444,0.0-1.0-212.0,0,0,1,,,,,,,,,,,,,,,,,,,,,,,,,,,,,,,,,,167.0,1.0,,
132,,size_choice,,html-keyboard-response,132,123685,0.0-1.0-214.0,0,0,1,,240.0,,,51.0,53.0,53.0,2.0,3000.0,S-L,1.0,L,S,3.0,1.0,deskchair,paperclip,deskchair4,paperclip7,13.0,116.0,/static/Size_judgement/Stimuli/Size_stims/L/deskchair/deskchair6.jpg,/static/Size_judgement/Stimuli/Size_stims/S/paperclip/paperclip7.jpg,0.0,paperclip,deskchair,S,L,1.0,3.0,paperclip7,deskchair4,0.0,167.24,0.24,0.0,
133,,size_choice_confirmation,,html-keyboard-response,133,124948,0.0-1.0-215.0-0.0,0,0,1,,,,,,53.0,,,,,,,,,,,,,,,,,,,,,,,,,,,,168.5,1.26,,
134,,iti,,html-keyboard-response,134,125054,0.0-1.0-216.0,0,0,1,,,,,,,,,,,,,,,,,,,,,,,,,,,,,,,,,,171.5,3.0,,
135,,size_choice,,html-keyboard-response,135,125126,0.0-1.0-218.0,0,0,1,,70.0,,,50.0,54.0,54.0,2.0,2000.0,S-S,,S,S,1.0,1.0,screws,paperclip,screws1,paperclip10,120.0,119.0,/static/Size_judgement/Stimuli/Size_stims/S/screws/screws4.jpg,/static/Size_judgement/Stimuli/Size_stims/S/paperclip/paperclip10.jpg,1.0,screws,paperclip,S,S,1.0,1.0,screws1,paperclip10,,171.57,0.07,0.0,
136,,size_choice_confirmation,,html-keyboard-response,136,126558,0.0-1.0-219.0-0.0,0,0,1,,,,,,54.0,,,,,,,,,,,,,,,,,,,,,,,,,,,,173.0,1.43,,
137,,iti,,html-keyboard-response,137,126661,0.0-1.0-220.0,0,0,1,,,,,,,,,,,,,,,,,,,,,,,,,,,,,,,,,,175.0,2.0,,
138,,size_choice,,html-keyboard-response,138,126789,0.0-1.0-222.0,0,0,1,,127.0,,,51.0,55.0,55.0,2.0,1500.0,M-L,1.0,L,M,3.0,2.0,dishwasher,ketchup,dishwasher5,ketchup2,24.0,91.0,/static/Size_judgement/Stimuli/Size_stims/L/dishwasher/dishwasher4.jpg,/static/Size_judgement/Stimuli/Size_stims/M/ketchup/ketchup9.jpg,0.0,ketchup,dishwasher,M,L,2.0,3.0,ketchup2,dishwasher5,0.0,175.127,0.127,0.0,
139,,size_choice_confirmation,,html-keyboard-response,139,128164,0.0-1.0-223.0-0.0,0,0,1,,,,,,55.0,,,,,,,,,,,,,,,,,,,,,,,,,,,,176.5,1.373,,
140,,iti,,html-keyboard-response,140,128266,0.0-1.0-224.0,0,0,1,,,,,,,,,,,,,,,,,,,,,,,,,,,,,,,,,,178.0,1.5,,
141,,size_choice,,html-keyboard-response,141,128299,0.0-1.0-226.0,0,0,1,,32.0,,,50.0,56.0,56.0,2.0,1000.0,M-L,0.0,M,L,2.0,3.0,hairdryer,deskchair,hairdryer5,deskchair3,74.0,12.0,/static/Size_judgement/Stimuli/Size_stims/M/hairdryer/hairdryer15.jpg,/static/Size_judgement/Stimuli/Size_stims/L/deskchair/deskchair10.jpg,1.0,hairdryer,deskchair,M,L,2.0,3.0,hairdryer5,deskchair3,0.0,178.032,0.032,0.0,
142,,size_choice_confirmation,,html-keyboard-response,142,129772,0.0-1.0-227.0-0.0,0,0,1,,,,,,56.0,,,,,,,,,,,,,,,,,,,,,,,,,,,,179.5,1.468,,
143,,iti,,html-keyboard-response,143,129872,0.0-1.0-228.0,0,0,1,,,,,,,,,,,,,,,,,,,,,,,,,,,,,,,,,,180.5,1.0,,
144,,size_choice,,html-keyboard-response,144,131374,0.0-1.0-230.0,0,0,1,,,,,,57.0,57.0,2.0,1000.0,S-XL,0.0,S,XL,1.0,4.0,thread,dumptruck,thread7,dumptruck1,146.0,170.0,/static/Size_judgement/Stimuli/Size_stims/S/thread/thread3.jpg,/static/Size_judgement/Stimuli/Size_stims/XL/dumptruck/dumptruck9.jpg,,,,,,,,,,,182.0,1.5,1.0,
145,,iti,,html-keyboard-response,145,131478,0.0-1.0-232.0,0,0,1,,,,,,,,,,,,,,,,,,,,,,,,,,,,,,,,,,183.0,1.0,,
146,,size_choice,,html-keyboard-response,146,133295,0.0-1.0-234.0,0,0,1,,,,,,58.0,58.0,2.0,1000.0,S-L,0.0,S,L,1.0,3.0,teabag,dishwasher,teabag9,dishwasher6,138.0,25.0,/static/Size_judgement/Stimuli/Size_stims/S/teabag/teabag5.jpg,/static/Size_judgement/Stimuli/Size_stims/L/dishwasher/dishwasher6.jpg,,,,,,,,,,,184.5,1.5,1.0,
147,,iti,,html-keyboard-response,147,134693,0.0-1.0-236.0,0,0,1,,,,,,,,,,,,,,,,,,,,,,,,,,,,,,,,,,185.5,1.0,,
148,,size_choice,,html-keyboard-response,148,136279,0.0-1.0-238.0,0,0,1,,,,,,59.0,59.0,2.0,1000.0,M-M,,M,M,2.0,2.0,basketball,ketchup,basketball2,ketchup10,51.0,99.0,/static/Size_judgement/Stimuli/Size_stims/M/basketball/basketball8.jpg,/static/Size_judgement/Stimuli/Size_stims/M/ketchup/ketchup6.jpg,,,,,,,,,,,187.0,1.5,1.0,
149,,iti,,html-keyboard-response,149,137279,0.0-1.0-240.0,0,0,1,,,,,,,,,,,,,,,,,,,,,,,,,,,,,,,,,,188.0,1.0,,
150,,size_choice,,html-keyboard-response,150,139438,0.0-1.0-242.0,0,0,1,,,,,,60.0,60.0,2.0,1500.0,M-XL,0.0,M,XL,2.0,4.0,ketchup,dumptruck,ketchup1,dumptruck3,90.0,172.0,/static/Size_judgement/Stimuli/Size_stims/M/ketchup/ketchup8.jpg,/static/Size_judgement/Stimuli/Size_stims/XL/dumptruck/dumptruck10.jpg,,,,,,,,,,,189.5,1.5,1.0,
151,,iti,,html-keyboard-response,151,140410,0.0-1.0-244.0,0,0,1,,,,,,,,,,,,,,,,,,,,,,,,,,,,,,,,,,191.0,1.5,,
152,,size_choice,,html-keyboard-response,152,142560,0.0-1.0-246.0,0,0,1,,,,,,61.0,61.0,2.0,1500.0,M-XL,0.0,M,XL,2.0,4.0,basketball,tractor,basketball1,tractor1,50.0,180.0,/static/Size_judgement/Stimuli/Size_stims/M/basketball/basketball9.jpg,/static/Size_judgement/Stimuli/Size_stims/XL/tractor/tractor6.jpg,,,,,,,,,,,192.5,1.5,1.0,
153,,iti,,html-keyboard-response,153,143636,0.0-1.0-248.0,0,0,1,,,,,,,,,,,,,,,,,,,,,,,,,,,,,,,,,,194.0,1.5,,
154,,size_choice,,html-keyboard-response,154,146035,0.0-1.0-250.0,0,0,1,,,,,,62.0,62.0,2.0,3000.0,L-XL,0.0,L,XL,3.0,4.0,cooler,van,cooler2,van9,1.0,198.0,/static/Size_judgement/Stimuli/Size_stims/L/cooler/cooler9.jpg,/static/Size_judgement/Stimuli/Size_stims/XL/van/van9.jpg,,,,,,,,,,,195.5,1.5,1.0,
155,,iti,,html-keyboard-response,155,146399,0.0-1.0-252.0,0,0,1,,,,,,,,,,,,,,,,,,,,,,,,,,,,,,,,,,198.5,3.0,,
156,,size_choice,,html-keyboard-response,156,148505,0.0-1.0-254.0,0,0,1,,,,,,63.0,63.0,2.0,3500.0,S-L,0.0,S,L,1.0,3.0,thread,dishwasher,thread2,dishwasher7,141.0,26.0,/static/Size_judgement/Stimuli/Size_stims/S/thread/thread6.jpg,/static/Size_judgement/Stimuli/Size_stims/L/dishwasher/dishwasher7.jpg,,,,,,,,,,,200.0,1.5,1.0,
157,,iti,,html-keyboard-response,157,149662,0.0-1.0-256.0,0,0,1,,,,,,,,,,,,,,,,,,,,,,,,,,,,,,,,,,203.5,3.5,,
158,,size_choice,,html-keyboard-response,158,151457,0.0-1.0-258.0,0,0,1,,,,,,64.0,64.0,2.0,1500.0,M-L,0.0,M,L,2.0,3.0,handsaw,cooler,handsaw8,cooler7,87.0,6.0,/static/Size_judgement/Stimuli/Size_stims/M/handsaw/handsaw7.jpg,/static/Size_judgement/Stimuli/Size_stims/L/cooler/cooler4.jpg,,,,,,,,,,,205.0,1.5,1.0,
159,,iti,,html-keyboard-response,159,152688,0.0-1.0-260.0,0,0,1,,,,,,,,,,,,,,,,,,,,,,,,,,,,,,,,,,206.5,1.5,,
160,,size_choice,,html-keyboard-response,160,154900,0.0-1.0-262.0,0,0,1,,,,,,65.0,65.0,2.0,2000.0,M-L,0.0,M,L,2.0,3.0,handsaw,mailbox,handsaw5,mailbox1,84.0,40.0,/static/Size_judgement/Stimuli/Size_stims/M/handsaw/handsaw1.jpg,/static/Size_judgement/Stimuli/Size_stims/L/mailbox/mailbox3.jpg,,,,,,,,,,,208.0,1.5,1.0,
161,,iti,,html-keyboard-response,161,155364,0.0-1.0-264.0,0,0,1,,,,,,,,,,,,,,,,,,,,,,,,,,,,,,,,,,210.0,2.0,,
162,,size_choice,,html-keyboard-response,162,157353,0.0-1.0-266.0,0,0,1,,,,,,66.0,66.0,2.0,1000.0,M-XL,1.0,XL,M,4.0,2.0,car,ketchup,car10,ketchup8,159.0,97.0,/static/Size_judgement/Stimuli/Size_stims/XL/car/car9.jpg,/static/Size_judgement/Stimuli/Size_stims/M/ketchup/ketchup5.jpg,,,,,,,,,,,211.5,1.5,1.0,
163,,iti,,html-keyboard-response,163,158740,0.0-1.0-268.0,0,0,1,,,,,,,,,,,,,,,,,,,,,,,,,,,,,,,,,,212.5,1.0,,
164,,size_choice,,html-keyboard-response,164,160585,0.0-1.0-270.0,0,0,1,,,,,,67.0,67.0,2.0,1000.0,S-L,1.0,L,S,3.0,1.0,deskchair,thread,deskchair6,thread3,15.0,142.0,/static/Size_judgement/Stimuli/Size_stims/L/deskchair/deskchair5.jpg,/static/Size_judgement/Stimuli/Size_stims/S/thread/thread4.jpg,,,,,,,,,,,214.0,1.5,1.0,
165,,iti,,html-keyboard-response,165,161620,0.0-1.0-272.0,0,0,1,,,,,,,,,,,,,,,,,,,,,,,,,,,,,,,,,,215.0,1.0,,
166,,size_choice,,html-keyboard-response,166,163833,0.0-1.0-274.0,0,0,1,,,,,,68.0,68.0,2.0,2000.0,S-XL,0.0,S,XL,1.0,4.0,screws,dumptruck,screws3,dumptruck4,122.0,173.0,/static/Size_judgement/Stimuli/Size_stims/S/screws/screws7.jpg,/static/Size_judgement/Stimuli/Size_stims/XL/dumptruck/dumptruck1.jpg,,,,,,,,,,,216.5,1.5,1.0,
167,,iti,,html-keyboard-response,167,164499,0.0-1.0-276.0,0,0,1,,,,,,,,,,,,,,,,,,,,,,,,,,,,,,,,,,218.5,2.0,,
168,,size_choice,,html-keyboard-response,168,166500,0.0-1.0-278.0,0,0,1,,,,,,69.0,69.0,2.0,3000.0,S-XL,0.0,S,XL,1.0,4.0,paperclip,dumptruck,paperclip8,dumptruck7,117.0,176.0,/static/Size_judgement/Stimuli/Size_stims/S/paperclip/paperclip5.jpg,/static/Size_judgement/Stimuli/Size_stims/XL/dumptruck/dumptruck6.jpg,,,,,,,,,,,220.0,1.5,1.0,
169,,iti,,html-keyboard-response,169,167662,0.0-1.0-280.0,0,0,1,,,,,,,,,,,,,,,,,,,,,,,,,,,,,,,,,,223.0,3.0,,
170,,size_choice,,html-keyboard-response,170,169460,0.0-1.0-282.0,0,0,1,,,,,,70.0,70.0,2.0,1500.0,S-L,0.0,S,L,1.0,3.0,die,deskchair,die1,deskchair8,100.0,17.0,/static/Size_judgement/Stimuli/Size_stims/S/die/die8.jpg,/static/Size_judgement/Stimuli/Size_stims/L/deskchair/deskchair1.jpg,,,,,,,,,,,224.5,1.5,1.0,
171,,iti,,html-keyboard-response,171,170494,0.0-1.0-284.0,0,0,1,,,,,,,,,,,,,,,,,,,,,,,,,,,,,,,,,,226.0,1.5,,
172,,size_choice,,html-keyboard-response,172,172892,0.0-1.0-286.0,0,0,1,,,,,,71.0,71.0,2.0,1500.0,XL-XL,,XL,XL,4.0,4.0,tractor,van,tractor3,van8,182.0,197.0,/static/Size_judgement/Stimuli/Size_stims/XL/tractor/tractor5.jpg,/static/Size_judgement/Stimuli/Size_stims/XL/van/van10.jpg,,,,,,,,,,,227.5,1.5,1.0,
173,,iti,,html-keyboard-response,173,173354,0.0-1.0-288.0,0,0,1,,,,,,,,,,,,,,,,,,,,,,,,,,,,,,,,,,229.0,1.5,,
174,,size_choice,,html-keyboard-response,174,174858,0.0-1.0-290.0,0,0,1,,,,,,72.0,72.0,2.0,1500.0,S-XL,0.0,S,XL,1.0,4.0,paperclip,dumptruck,paperclip4,dumptruck5,113.0,174.0,/static/Size_judgement/Stimuli/Size_stims/S/paperclip/paperclip3.jpg,/static/Size_judgement/Stimuli/Size_stims/XL/dumptruck/dumptruck3.jpg,,,,,,,,,,,230.5,1.5,1.0,
175,,iti,,html-keyboard-response,175,174958,0.0-1.0-292.0,0,0,1,,,,,,,,,,,,,,,,,,,,,,,,,,,,,,,,,,232.0,1.5,,
176,,size_choice,,html-keyboard-response,176,175433,0.0-1.0-294.0,0,0,1,,474.0,,,50.0,73.0,73.0,2.0,3000.0,M-L,0.0,M,L,2.0,3.0,coffeemaker,dishwasher,coffeemaker6,dishwasher4,65.0,23.0,/static/Size_judgement/Stimuli/Size_stims/M/coffeemaker/coffeemaker8.jpg,/static/Size_judgement/Stimuli/Size_stims/L/dishwasher/dishwasher5.jpg,1.0,coffeemaker,dishwasher,M,L,2.0,3.0,coffeemaker6,dishwasher4,0.0,232.474,0.474,0.0,
177,,size_choice_confirmation,,html-keyboard-response,177,176460,0.0-1.0-295.0-0.0,0,0,1,,,,,,73.0,,,,,,,,,,,,,,,,,,,,,,,,,,,,233.5,1.026,,
178,,iti,,html-keyboard-response,178,176561,0.0-1.0-296.0,0,0,1,,,,,,,,,,,,,,,,,,,,,,,,,,,,,,,,,,236.5,3.0,,
179,,size_choice,,html-keyboard-response,179,176605,0.0-1.0-298.0,0,0,1,,42.0,,,51.0,74.0,74.0,2.0,1500.0,S-XL,1.0,XL,S,4.0,1.0,car,die,car1,die9,150.0,108.0,/static/Size_judgement/Stimuli/Size_stims/XL/car/car2.jpg,/static/Size_judgement/Stimuli/Size_stims/S/die/die7.jpg,0.0,die,car,S,XL,1.0,4.0,die9,car1,0.0,236.542,0.042,0.0,
180,,size_choice_confirmation,,html-keyboard-response,180,178065,0.0-1.0-299.0-0.0,0,0,1,,,,,,74.0,,,,,,,,,,,,,,,,,,,,,,,,,,,,238.0,1.458,,
181,,iti,,html-keyboard-response,181,178169,0.0-1.0-300.0,0,0,1,,,,,,,,,,,,,,,,,,,,,,,,,,,,,,,,,,239.5,1.5,,
182,,size_choice,,html-keyboard-response,182,178255,0.0-1.0-302.0,0,0,1,,84.0,,,51.0,75.0,75.0,2.0,1500.0,M-XL,1.0,XL,M,4.0,2.0,crane,handsaw,crane1,handsaw10,160.0,89.0,/static/Size_judgement/Stimuli/Size_stims/XL/crane/crane7.jpg,/static/Size_judgement/Stimuli/Size_stims/M/handsaw/handsaw10.jpg,0.0,handsaw,crane,M,XL,2.0,4.0,handsaw10,crane1,0.0,239.584,0.084,0.0,
183,,size_choice_confirmation,,html-keyboard-response,183,179673,0.0-1.0-303.0-0.0,0,0,1,,,,,,75.0,,,,,,,,,,,,,,,,,,,,,,,,,,,,241.0,1.416,,
184,,iti,,html-keyboard-response,184,179774,0.0-1.0-304.0,0,0,1,,,,,,,,,,,,,,,,,,,,,,,,,,,,,,,,,,242.5,1.5,,
185,,size_choice,,html-keyboard-response,185,179884,0.0-1.0-306.0,0,0,1,,109.0,,,50.0,76.0,76.0,2.0,1500.0,S-XL,1.0,XL,S,4.0,1.0,tractor,screws,tractor2,screws6,181.0,125.0,/static/Size_judgement/Stimuli/Size_stims/XL/tractor/tractor7.jpg,/static/Size_judgement/Stimuli/Size_stims/S/screws/screws3.jpg,1.0,tractor,screws,XL,S,4.0,1.0,tractor2,screws6,1.0,242.609,0.109,0.0,
186,,size_choice_confirmation,,html-keyboard-response,186,181281,0.0-1.0-307.0-0.0,0,0,1,,,,,,76.0,,,,,,,,,,,,,,,,,,,,,,,,,,,,244.0,1.391,,
187,,iti,,html-keyboard-response,187,181387,0.0-1.0-308.0,0,0,1,,,,,,,,,,,,,,,,,,,,,,,,,,,,,,,,,,245.5,1.5,,
188,,size_choice,,html-keyboard-response,188,181417,0.0-1.0-310.0,0,0,1,,30.0,,,50.0,77.0,77.0,2.0,2000.0,M-L,0.0,M,L,2.0,3.0,coffeemaker,deskchair,coffeemaker4,deskchair5,63.0,14.0,/static/Size_judgement/Stimuli/Size_stims/M/coffeemaker/coffeemaker11.jpg,/static/Size_judgement/Stimuli/Size_stims/L/deskchair/deskchair7.jpg,1.0,coffeemaker,deskchair,M,L,2.0,3.0,coffeemaker4,deskchair5,0.0,245.53,0.03,0.0,
189,,size_choice_confirmation,,html-keyboard-response,189,182892,0.0-1.0-311.0-0.0,0,0,1,,,,,,77.0,,,,,,,,,,,,,,,,,,,,,,,,,,,,247.0,1.47,,
190,,iti,,html-keyboard-response,190,182996,0.0-1.0-312.0,0,0,1,,,,,,,,,,,,,,,,,,,,,,,,,,,,,,,,,,249.0,2.0,,
191,,size_choice,,html-keyboard-response,191,185279,0.0-1.0-314.0,0,0,1,,,,,,78.0,78.0,2.0,1500.0,M-XL,1.0,XL,M,4.0,2.0,dumptruck,coffeemaker,dumptruck10,coffeemaker10,179.0,69.0,/static/Size_judgement/Stimuli/Size_stims/XL/dumptruck/dumptruck4.jpg,/static/Size_judgement/Stimuli/Size_stims/M/coffeemaker/coffeemaker18.jpg,,,,,,,,,,,250.5,1.5,1.0,
192,,iti,,html-keyboard-response,192,186361,0.0-1.0-316.0,0,0,1,,,,,,,,,,,,,,,,,,,,,,,,,,,,,,,,,,252.0,1.5,,
193,,size_choice,,html-keyboard-response,193,188279,0.0-1.0-318.0,0,0,1,,,,,,79.0,79.0,2.0,1000.0,L-L,,L,L,3.0,3.0,mailbox,cooler,mailbox4,cooler6,43.0,5.0,/static/Size_judgement/Stimuli/Size_stims/L/mailbox/mailbox5.jpg,/static/Size_judgement/Stimuli/Size_stims/L/cooler/cooler1.jpg,,,,,,,,,,,253.5,1.5,1.0,
194,,iti,,html-keyboard-response,194,189648,0.0-1.0-320.0,0,0,1,,,,,,,,,,,,,,,,,,,,,,,,,,,,,,,,,,254.5,1.0,,
195,,size_choice,,html-keyboard-response,195,191278,0.0-1.0-322.0,0,0,1,,,,,,80.0,80.0,2.0,1000.0,S-M,0.0,S,M,1.0,2.0,die,basketball,die3,basketball3,102.0,52.0,/static/Size_judgement/Stimuli/Size_stims/S/die/die10.jpg,/static/Size_judgement/Stimuli/Size_stims/M/basketball/basketball10.jpg,,,,,,,,,,,256.0,1.5,1.0,
196,,iti,,html-keyboard-response,196,192518,0.0-1.0-324.0,0,0,1,,,,,,,,,,,,,,,,,,,,,,,,,,,,,,,,,,257.0,1.0,,
197,,size_choice,,html-keyboard-response,197,194498,0.0-1.0-326.0,0,0,1,,,,,,81.0,81.0,2.0,2000.0,S-L,0.0,S,L,1.0,3.0,thread,garbagecan,thread9,garbagecan7,148.0,36.0,/static/Size_judgement/Stimuli/Size_stims/S/thread/thread8.jpg,/static/Size_judgement/Stimuli/Size_stims/L/garbagecan/garbagecan16.jpg,,,,,,,,,,,258.5,1.5,1.0,
198,,iti,,html-keyboard-response,198,195279,0.0-1.0-328.0,0,0,1,,,,,,,,,,,,,,,,,,,,,,,,,,,,,,,,,,260.5,2.0,,
199,,size_choice,,html-keyboard-response,199,197278,0.0-1.0-330.0,0,0,1,,,,,,82.0,82.0,2.0,2000.0,M-XL,1.0,XL,M,4.0,2.0,tractor,basketball,tractor8,basketball8,187.0,57.0,/static/Size_judgement/Stimuli/Size_stims/XL/tractor/tractor10.jpg,/static/Size_judgement/Stimuli/Size_stims/M/basketball/basketball7.jpg,,,,,,,,,,,262.0,1.5,1.0,
200,,iti,,html-keyboard-response,200,198394,0.0-1.0-332.0,0,0,1,,,,,,,,,,,,,,,,,,,,,,,,,,,,,,,,,,264.0,2.0,,
201,,size_choice,,html-keyboard-response,201,200278,0.0-1.0-334.0,0,0,1,,,,,,83.0,83.0,2.0,1000.0,S-XL,0.0,S,XL,1.0,4.0,screws,van,screws2,van3,121.0,192.0,/static/Size_judgement/Stimuli/Size_stims/S/screws/screws5.jpg,/static/Size_judgement/Stimuli/Size_stims/XL/van/van6.jpg,,,,,,,,,,,265.5,1.5,1.0,
202,,iti,,html-keyboard-response,202,201278,0.0-1.0-336.0,0,0,1,,,,,,,,,,,,,,,,,,,,,,,,,,,,,,,,,,266.5,1.0,,
203,,size_choice,,html-keyboard-response,203,203683,0.0-1.0-338.0,0,0,1,,,,,,84.0,84.0,2.0,1000.0,L-L,,L,L,3.0,3.0,cooler,dishwasher,cooler3,dishwasher9,2.0,28.0,/static/Size_judgement/Stimuli/Size_stims/L/cooler/cooler2.jpg,/static/Size_judgement/Stimuli/Size_stims/L/dishwasher/dishwasher2.jpg,,,,,,,,,,,268.0,1.5,1.0,
204,,iti,,html-keyboard-response,204,204356,0.0-1.0-340.0,0,0,1,,,,,,,,,,,,,,,,,,,,,,,,,,,,,,,,,,269.0,1.0,,
205,,size_choice,,html-keyboard-response,205,206337,0.0-1.0-342.0,0,0,1,,,,,,85.0,85.0,2.0,1000.0,M-M,,M,M,2.0,2.0,hairdryer,handsaw,hairdryer10,handsaw2,79.0,81.0,/static/Size_judgement/Stimuli/Size_stims/M/hairdryer/hairdryer6.jpg,/static/Size_judgement/Stimuli/Size_stims/M/handsaw/handsaw9.jpg,,,,,,,,,,,270.5,1.5,1.0,
206,,iti,,html-keyboard-response,206,207369,0.0-1.0-344.0,0,0,1,,,,,,,,,,,,,,,,,,,,,,,,,,,,,,,,,,271.5,1.0,,
207,,size_choice,,html-keyboard-response,207,209279,0.0-1.0-346.0,0,0,1,,,,,,86.0,86.0,2.0,1000.0,L-XL,0.0,L,XL,3.0,4.0,garbagecan,crane,garbagecan6,crane2,35.0,161.0,/static/Size_judgement/Stimuli/Size_stims/L/garbagecan/garbagecan14.jpg,/static/Size_judgement/Stimuli/Size_stims/XL/crane/crane6.jpg,,,,,,,,,,,273.0,1.5,1.0,
208,,iti,,html-keyboard-response,208,210776,0.0-1.0-348.0,0,0,1,,,,,,,,,,,,,,,,,,,,,,,,,,,,,,,,,,274.0,1.0,,
209,,size_choice,,html-keyboard-response,209,212279,0.0-1.0-350.0,0,0,1,,,,,,87.0,87.0,2.0,1000.0,XL-XL,,XL,XL,4.0,4.0,car,tractor,car2,tractor10,151.0,189.0,/static/Size_judgement/Stimuli/Size_stims/XL/car/car3.jpg,/static/Size_judgement/Stimuli/Size_stims/XL/tractor/tractor8.jpg,,,,,,,,,,,275.5,1.5,1.0,
210,,iti,,html-keyboard-response,210,213528,0.0-1.0-352.0,0,0,1,,,,,,,,,,,,,,,,,,,,,,,,,,,,,,,,,,276.5,1.0,,
211,,size_choice,,html-keyboard-response,211,215278,0.0-1.0-354.0,0,0,1,,,,,,88.0,88.0,2.0,1000.0,S-L,1.0,L,S,3.0,1.0,deskchair,screws,deskchair7,screws10,16.0,129.0,/static/Size_judgement/Stimuli/Size_stims/L/deskchair/deskchair4.jpg,/static/Size_judgement/Stimuli/Size_stims/S/screws/screws9.jpg,,,,,,,,,,,278.0,1.5,1.0,
212,,iti,,html-keyboard-response,212,216278,0.0-1.0-356.0,0,0,1,,,,,,,,,,,,,,,,,,,,,,,,,,,,,,,,,,279.0,1.0,,
213,,size_choice,,html-keyboard-response,213,218336,0.0-1.0-358.0,0,0,1,,,,,,89.0,89.0,2.0,3500.0,S-L,1.0,L,S,3.0,1.0,garbagecan,teabag,garbagecan1,teabag4,30.0,133.0,/static/Size_judgement/Stimuli/Size_stims/L/garbagecan/garbagecan4.jpg,/static/Size_judgement/Stimuli/Size_stims/S/teabag/teabag3.jpg,,,,,,,,,,,280.5,1.5,1.0,
214,,iti,,html-keyboard-response,214,219363,0.0-1.0-360.0,0,0,1,,,,,,,,,,,,,,,,,,,,,,,,,,,,,,,,,,284.0,3.5,,0.57
215,,size_final_tally,,html-keyboard-response,215,250238,0.0-2.0,0,0,1,,30874.0,,,50.0,,,,,,,,,,,,,,,,,,,,,,,,,,,,,,,,
216,,,,html-keyboard-response,216,251477,0.0-3.0,0,0,1,,1228.0,,,50.0,,,,,,,,,,,,,,,,,,,,,,,,,,,,,,,,
