,success,ttype,start_time,trial_type,trial_index,time_elapsed,internal_node_id,warning,missed_checkup,PID,view_history,rt,responses,repeat_instructions,key_press,index,trial_num,block,iti,pair_type,high_size_on_left,left_size_group,right_size_group,left_size_num,right_size_num,left_category,right_category,left_exemplar,right_exemplar,left_index,right_index,left_img_path,right_img_path,left_chosen,chosen_category,unchosen_category,chosen_size_group,unchosen_size_group,chosen_size_num,unchosen_size_num,chosen_exemplar,unchosen_exemplar,accuracy,onset,duration,no_response,size_final_tally
0,True,full_screen,d06232022hr1556,fullscreen,0,8562,0.0-0.0,0,0,98,,,,,,,,,,,,,,,,,,,,,,,,,,,,,,,,,,,,,
1,,size_instructions,,instructions,1,81313,0.0-1.0-0.0-0.0,0,0,98,"[{""page_index"":0,""viewing_time"":14340},{""page_index"":1,""viewing_time"":12213},{""page_index"":2,""viewing_time"":21079},{""page_index"":3,""viewing_time"":13854},{""page_index"":4,""viewing_time"":9701},{""page_index"":5,""viewing_time"":1562}]",72750.0,,,,,,,,,,,,,,,,,,,,,,,,,,,,,,,,,,,
2,,size_comprehension_check,,survey-multi-choice,2,118704,0.0-1.0-0.0-1.0,0,0,98,,37387.0,"{""Q0"":""True"",""Q1"":""Size in the real world"",""Q2"":""True"",""Q3"":""pointer finger for left and middle finger for right""}",0.0,,,,,,,,,,,,,,,,,,,,,,,,,,,,,,,,,
3,,,,html-keyboard-response,3,123036,0.0-1.0-1.0,0,0,98,,4328.0,,,83.0,,,,,,,,,,,,,,,,,,,,,,,,,,,,,,,,
4,,start_run,,html-keyboard-response,4,149738,0.0-1.0-2.0,0,0,98,,26702.0,,,84.0,,,,,,,,,,,,,,,,,,,,,,,,,,,,,,,,
5,,size_choice,,html-keyboard-response,5,151003,0.0-1.0-3.0,0,0,98,,1263.0,,,50.0,0.0,0.0,1.0,4000.0,S-M,1.0,M,S,2.0,1.0,basketball,paperclip,basketball2,paperclip10,51.0,119.0,/static/Size_judgement/Stimuli/Size_stims/M/basketball/basketball8.jpg,/static/Size_judgement/Stimuli/Size_stims/S/paperclip/paperclip10.jpg,1.0,basketball,paperclip,M,S,2.0,1.0,basketball2,paperclip10,1.0,0.0,1.263,0.0,
6,,size_choice_confirmation,,html-keyboard-response,6,151242,0.0-1.0-4.0-0.0,0,0,98,,,,,,0.0,,1.0,,,,,,,,,,,,,,,,,,,,,,,,,,1.263,0.237,,
7,,iti,,html-keyboard-response,7,155244,0.0-1.0-5.0,0,0,98,,,,,,0.0,,1.0,,,,,,,,,,,,,,,,,,,,,,,,,,1.5,4.0,,
8,,size_choice,,html-keyboard-response,8,156365,0.0-1.0-7.0,0,0,98,,1119.0,,,50.0,1.0,1.0,1.0,5500.0,S-S,,S,S,1.0,1.0,die,paperclip,die6,paperclip6,105.0,115.0,/static/Size_judgement/Stimuli/Size_stims/S/die/die1.jpg,/static/Size_judgement/Stimuli/Size_stims/S/paperclip/paperclip6.jpg,1.0,die,paperclip,S,S,1.0,1.0,die6,paperclip6,,5.5,1.119,0.0,
9,,size_choice_confirmation,,html-keyboard-response,9,156748,0.0-1.0-8.0-0.0,0,0,98,,,,,,1.0,,1.0,,,,,,,,,,,,,,,,,,,,,,,,,,6.619,0.381,,
10,,iti,,html-keyboard-response,10,162252,0.0-1.0-9.0,0,0,98,,,,,,1.0,,1.0,,,,,,,,,,,,,,,,,,,,,,,,,,7.0,5.5,,
11,,size_choice,,html-keyboard-response,11,163455,0.0-1.0-11.0,0,0,98,,1202.0,,,50.0,2.0,2.0,1.0,1500.0,S-L,1.0,L,S,3.0,1.0,garbagecan,die,garbagecan6,die8,35.0,107.0,/static/Size_judgement/Stimuli/Size_stims/L/garbagecan/garbagecan14.jpg,/static/Size_judgement/Stimuli/Size_stims/S/die/die5.jpg,1.0,garbagecan,die,L,S,3.0,1.0,garbagecan6,die8,1.0,12.5,1.202,0.0,
12,,size_choice_confirmation,,html-keyboard-response,12,163755,0.0-1.0-12.0-0.0,0,0,98,,,,,,2.0,,1.0,,,,,,,,,,,,,,,,,,,,,,,,,,13.702,0.298,,
13,,iti,,html-keyboard-response,13,165260,0.0-1.0-13.0,0,0,98,,,,,,2.0,,1.0,,,,,,,,,,,,,,,,,,,,,,,,,,14.0,1.5,,
14,,size_choice,,html-keyboard-response,14,166361,0.0-1.0-15.0,0,0,98,,1098.0,,,51.0,3.0,3.0,1.0,500.0,M-XL,0.0,M,XL,2.0,4.0,handsaw,van,handsaw5,van10,84.0,199.0,/static/Size_judgement/Stimuli/Size_stims/M/handsaw/handsaw1.jpg,/static/Size_judgement/Stimuli/Size_stims/XL/van/van8.jpg,0.0,van,handsaw,XL,M,4.0,2.0,van10,handsaw5,1.0,15.5,1.098,0.0,
15,,size_choice_confirmation,,html-keyboard-response,15,166764,0.0-1.0-16.0-0.0,0,0,98,,,,,,3.0,,1.0,,,,,,,,,,,,,,,,,,,,,,,,,,16.598,0.402,,
16,,iti,,html-keyboard-response,16,167268,0.0-1.0-17.0,0,0,98,,,,,,3.0,,1.0,,,,,,,,,,,,,,,,,,,,,,,,,,17.0,0.5,,
17,,size_choice,,html-keyboard-response,17,168750,0.0-1.0-19.0,0,0,98,,1481.0,,,50.0,4.0,4.0,1.0,4500.0,L-XL,1.0,XL,L,4.0,3.0,crane,deskchair,crane4,deskchair1,163.0,10.0,/static/Size_judgement/Stimuli/Size_stims/XL/crane/crane5.jpg,/static/Size_judgement/Stimuli/Size_stims/L/deskchair/deskchair9.jpg,1.0,crane,deskchair,XL,L,4.0,3.0,crane4,deskchair1,1.0,17.5,1.481,0.0,
18,,size_choice_confirmation,,html-keyboard-response,18,168770,0.0-1.0-20.0-0.0,0,0,98,,,,,,4.0,,1.0,,,,,,,,,,,,,,,,,,,,,,,,,,18.981,0.019,,
19,,iti,,html-keyboard-response,19,173271,0.0-1.0-21.0,0,0,98,,,,,,4.0,,1.0,,,,,,,,,,,,,,,,,,,,,,,,,,19.0,4.5,,
20,,size_choice,,html-keyboard-response,20,174135,0.0-1.0-23.0,0,0,98,,862.0,,,50.0,5.0,5.0,1.0,500.0,S-L,1.0,L,S,3.0,1.0,dishwasher,screws,dishwasher8,screws8,27.0,127.0,/static/Size_judgement/Stimuli/Size_stims/L/dishwasher/dishwasher3.jpg,/static/Size_judgement/Stimuli/Size_stims/S/screws/screws10.jpg,1.0,dishwasher,screws,L,S,3.0,1.0,dishwasher8,screws8,1.0,23.5,0.862,0.0,
21,,size_choice_confirmation,,html-keyboard-response,21,174775,0.0-1.0-24.0-0.0,0,0,98,,,,,,5.0,,1.0,,,,,,,,,,,,,,,,,,,,,,,,,,24.362,0.638,,
22,,iti,,html-keyboard-response,22,175279,0.0-1.0-25.0,0,0,98,,,,,,5.0,,1.0,,,,,,,,,,,,,,,,,,,,,,,,,,25.0,0.5,,
23,,size_choice,,html-keyboard-response,23,176124,0.0-1.0-27.0,0,0,98,,843.0,,,51.0,6.0,6.0,1.0,500.0,M-XL,0.0,M,XL,2.0,4.0,ketchup,van,ketchup1,van8,90.0,197.0,/static/Size_judgement/Stimuli/Size_stims/M/ketchup/ketchup8.jpg,/static/Size_judgement/Stimuli/Size_stims/XL/van/van10.jpg,0.0,van,ketchup,XL,M,4.0,2.0,van8,ketchup1,1.0,25.5,0.843,0.0,
24,,size_choice_confirmation,,html-keyboard-response,24,176786,0.0-1.0-28.0-0.0,0,0,98,,,,,,6.0,,1.0,,,,,,,,,,,,,,,,,,,,,,,,,,26.343,0.657,,
25,,iti,,html-keyboard-response,25,177287,0.0-1.0-29.0,0,0,98,,,,,,6.0,,1.0,,,,,,,,,,,,,,,,,,,,,,,,,,27.0,0.5,,
26,,size_choice,,html-keyboard-response,26,178490,0.0-1.0-31.0,0,0,98,,1201.0,,,51.0,7.0,7.0,1.0,1500.0,M-L,0.0,M,L,2.0,3.0,coffeemaker,mailbox,coffeemaker8,mailbox8,67.0,47.0,/static/Size_judgement/Stimuli/Size_stims/M/coffeemaker/coffeemaker5.jpg,/static/Size_judgement/Stimuli/Size_stims/L/mailbox/mailbox10.jpg,0.0,mailbox,coffeemaker,L,M,3.0,2.0,mailbox8,coffeemaker8,1.0,27.5,1.201,0.0,
27,,size_choice_confirmation,,html-keyboard-response,27,178791,0.0-1.0-32.0-0.0,0,0,98,,,,,,7.0,,1.0,,,,,,,,,,,,,,,,,,,,,,,,,,28.701,0.299,,
28,,iti,,html-keyboard-response,28,180295,0.0-1.0-33.0,0,0,98,,,,,,7.0,,1.0,,,,,,,,,,,,,,,,,,,,,,,,,,29.0,1.5,,
29,,size_choice,,html-keyboard-response,29,181078,0.0-1.0-35.0,0,0,98,,780.0,,,51.0,8.0,8.0,1.0,500.0,L-XL,0.0,L,XL,3.0,4.0,cooler,car,cooler4,car3,3.0,152.0,/static/Size_judgement/Stimuli/Size_stims/L/cooler/cooler3.jpg,/static/Size_judgement/Stimuli/Size_stims/XL/car/car4.jpg,0.0,car,cooler,XL,L,4.0,3.0,car3,cooler4,1.0,30.5,0.78,0.0,
30,,size_choice_confirmation,,html-keyboard-response,30,181799,0.0-1.0-36.0-0.0,0,0,98,,,,,,8.0,,1.0,,,,,,,,,,,,,,,,,,,,,,,,,,31.28,0.72,,
31,,iti,,html-keyboard-response,31,182301,0.0-1.0-37.0,0,0,98,,,,,,8.0,,1.0,,,,,,,,,,,,,,,,,,,,,,,,,,32.0,0.5,,
32,,size_choice,,html-keyboard-response,32,183104,0.0-1.0-39.0,0,0,98,,801.0,,,51.0,9.0,9.0,1.0,3500.0,M-XL,0.0,M,XL,2.0,4.0,hairdryer,dumptruck,hairdryer7,dumptruck6,76.0,175.0,/static/Size_judgement/Stimuli/Size_stims/M/hairdryer/hairdryer3.jpg,/static/Size_judgement/Stimuli/Size_stims/XL/dumptruck/dumptruck2.jpg,0.0,dumptruck,hairdryer,XL,M,4.0,2.0,dumptruck6,hairdryer7,1.0,32.5,0.801,0.0,
33,,size_choice_confirmation,,html-keyboard-response,33,183805,0.0-1.0-40.0-0.0,0,0,98,,,,,,9.0,,1.0,,,,,,,,,,,,,,,,,,,,,,,,,,33.301,0.699,,
34,,iti,,html-keyboard-response,34,187309,0.0-1.0-41.0,0,0,98,,,,,,9.0,,1.0,,,,,,,,,,,,,,,,,,,,,,,,,,34.0,3.5,,
35,,size_choice,,html-keyboard-response,35,188174,0.0-1.0-43.0,0,0,98,,864.0,,,51.0,10.0,10.0,1.0,500.0,M-M,,M,M,2.0,2.0,ketchup,basketball,ketchup9,basketball9,98.0,58.0,/static/Size_judgement/Stimuli/Size_stims/M/ketchup/ketchup7.jpg,/static/Size_judgement/Stimuli/Size_stims/M/basketball/basketball5.jpg,0.0,basketball,ketchup,M,M,2.0,2.0,basketball9,ketchup9,,37.5,0.864,0.0,
36,,size_choice_confirmation,,html-keyboard-response,36,188813,0.0-1.0-44.0-0.0,0,0,98,,,,,,10.0,,1.0,,,,,,,,,,,,,,,,,,,,,,,,,,38.364,0.636,,
37,,iti,,html-keyboard-response,37,189314,0.0-1.0-45.0,0,0,98,,,,,,10.0,,1.0,,,,,,,,,,,,,,,,,,,,,,,,,,39.0,0.5,,
38,,size_choice,,html-keyboard-response,38,190142,0.0-1.0-47.0,0,0,98,,827.0,,,50.0,11.0,11.0,1.0,3000.0,S-L,1.0,L,S,3.0,1.0,mailbox,screws,mailbox4,screws1,43.0,120.0,/static/Size_judgement/Stimuli/Size_stims/L/mailbox/mailbox5.jpg,/static/Size_judgement/Stimuli/Size_stims/S/screws/screws4.jpg,1.0,mailbox,screws,L,S,3.0,1.0,mailbox4,screws1,1.0,39.5,0.827,0.0,
39,,size_choice_confirmation,,html-keyboard-response,39,190818,0.0-1.0-48.0-0.0,0,0,98,,,,,,11.0,,1.0,,,,,,,,,,,,,,,,,,,,,,,,,,40.327,0.673,,
40,,iti,,html-keyboard-response,40,193824,0.0-1.0-49.0,0,0,98,,,,,,11.0,,1.0,,,,,,,,,,,,,,,,,,,,,,,,,,41.0,3.0,,
41,,size_choice,,html-keyboard-response,41,194787,0.0-1.0-51.0,0,0,98,,961.0,,,51.0,12.0,12.0,1.0,500.0,M-L,0.0,M,L,2.0,3.0,handsaw,deskchair,handsaw9,deskchair2,88.0,11.0,/static/Size_judgement/Stimuli/Size_stims/M/handsaw/handsaw6.jpg,/static/Size_judgement/Stimuli/Size_stims/L/deskchair/deskchair8.jpg,0.0,deskchair,handsaw,L,M,3.0,2.0,deskchair2,handsaw9,1.0,44.0,0.961,0.0,
42,,size_choice_confirmation,,html-keyboard-response,42,195330,0.0-1.0-52.0-0.0,0,0,98,,,,,,12.0,,1.0,,,,,,,,,,,,,,,,,,,,,,,,,,44.961,0.539,,
43,,iti,,html-keyboard-response,43,195831,0.0-1.0-53.0,0,0,98,,,,,,12.0,,1.0,,,,,,,,,,,,,,,,,,,,,,,,,,45.5,0.5,,
44,,size_choice,,html-keyboard-response,44,196603,0.0-1.0-55.0,0,0,98,,770.0,,,51.0,13.0,13.0,1.0,2000.0,S-L,0.0,S,L,1.0,3.0,screws,mailbox,screws4,mailbox1,123.0,40.0,/static/Size_judgement/Stimuli/Size_stims/S/screws/screws6.jpg,/static/Size_judgement/Stimuli/Size_stims/L/mailbox/mailbox3.jpg,0.0,mailbox,screws,L,S,3.0,1.0,mailbox1,screws4,1.0,46.0,0.77,0.0,
45,,size_choice_confirmation,,html-keyboard-response,45,197335,0.0-1.0-56.0-0.0,0,0,98,,,,,,13.0,,1.0,,,,,,,,,,,,,,,,,,,,,,,,,,46.77,0.73,,
46,,iti,,html-keyboard-response,46,199341,0.0-1.0-57.0,0,0,98,,,,,,13.0,,1.0,,,,,,,,,,,,,,,,,,,,,,,,,,47.5,2.0,,
47,,size_choice,,html-keyboard-response,47,200121,0.0-1.0-59.0,0,0,98,,779.0,,,51.0,14.0,14.0,1.0,2000.0,S-XL,0.0,S,XL,1.0,4.0,thread,car,thread3,car10,142.0,159.0,/static/Size_judgement/Stimuli/Size_stims/S/thread/thread4.jpg,/static/Size_judgement/Stimuli/Size_stims/XL/car/car9.jpg,0.0,car,thread,XL,S,4.0,1.0,car10,thread3,1.0,49.5,0.779,0.0,
48,,size_choice_confirmation,,html-keyboard-response,48,200844,0.0-1.0-60.0-0.0,0,0,98,,,,,,14.0,,1.0,,,,,,,,,,,,,,,,,,,,,,,,,,50.279,0.721,,
49,,iti,,html-keyboard-response,49,202850,0.0-1.0-61.0,0,0,98,,,,,,14.0,,1.0,,,,,,,,,,,,,,,,,,,,,,,,,,51.0,2.0,,
50,,size_choice,,html-keyboard-response,50,203754,0.0-1.0-63.0,0,0,98,,902.0,,,51.0,15.0,15.0,1.0,2500.0,M-M,,M,M,2.0,2.0,handsaw,hairdryer,handsaw1,hairdryer2,80.0,71.0,/static/Size_judgement/Stimuli/Size_stims/M/handsaw/handsaw8.jpg,/static/Size_judgement/Stimuli/Size_stims/M/hairdryer/hairdryer12.jpg,0.0,hairdryer,handsaw,M,M,2.0,2.0,hairdryer2,handsaw1,,53.0,0.902,0.0,
51,,size_choice_confirmation,,html-keyboard-response,51,204354,0.0-1.0-64.0-0.0,0,0,98,,,,,,15.0,,1.0,,,,,,,,,,,,,,,,,,,,,,,,,,53.902,0.598,,
52,,iti,,html-keyboard-response,52,206856,0.0-1.0-65.0,0,0,98,,,,,,15.0,,1.0,,,,,,,,,,,,,,,,,,,,,,,,,,54.5,2.5,,
53,,size_choice,,html-keyboard-response,53,207662,0.0-1.0-67.0,0,0,98,,805.0,,,50.0,16.0,16.0,1.0,4000.0,S-L,1.0,L,S,3.0,1.0,deskchair,screws,deskchair9,screws3,18.0,122.0,/static/Size_judgement/Stimuli/Size_stims/L/deskchair/deskchair3.jpg,/static/Size_judgement/Stimuli/Size_stims/S/screws/screws7.jpg,1.0,deskchair,screws,L,S,3.0,1.0,deskchair9,screws3,1.0,57.0,0.805,0.0,
54,,size_choice_confirmation,,html-keyboard-response,54,208360,0.0-1.0-68.0-0.0,0,0,98,,,,,,16.0,,1.0,,,,,,,,,,,,,,,,,,,,,,,,,,57.805,0.695,,
55,,iti,,html-keyboard-response,55,212365,0.0-1.0-69.0,0,0,98,,,,,,16.0,,1.0,,,,,,,,,,,,,,,,,,,,,,,,,,58.5,4.0,,
56,,size_choice,,html-keyboard-response,56,213053,0.0-1.0-71.0,0,0,98,,686.0,,,51.0,17.0,17.0,1.0,2500.0,M-M,,M,M,2.0,2.0,handsaw,hairdryer,handsaw8,hairdryer3,87.0,72.0,/static/Size_judgement/Stimuli/Size_stims/M/handsaw/handsaw7.jpg,/static/Size_judgement/Stimuli/Size_stims/M/hairdryer/hairdryer17.jpg,0.0,hairdryer,handsaw,M,M,2.0,2.0,hairdryer3,handsaw8,,62.5,0.686,0.0,
57,,size_choice_confirmation,,html-keyboard-response,57,213870,0.0-1.0-72.0-0.0,0,0,98,,,,,,17.0,,1.0,,,,,,,,,,,,,,,,,,,,,,,,,,63.186,0.814,,
58,,iti,,html-keyboard-response,58,216376,0.0-1.0-73.0,0,0,98,,,,,,17.0,,1.0,,,,,,,,,,,,,,,,,,,,,,,,,,64.0,2.5,,
59,,size_choice,,html-keyboard-response,59,217275,0.0-1.0-75.0,0,0,98,,898.0,,,50.0,18.0,18.0,1.0,500.0,L-L,,L,L,3.0,3.0,dishwasher,cooler,dishwasher7,cooler8,26.0,7.0,/static/Size_judgement/Stimuli/Size_stims/L/dishwasher/dishwasher7.jpg,/static/Size_judgement/Stimuli/Size_stims/L/cooler/cooler5.jpg,1.0,dishwasher,cooler,L,L,3.0,3.0,dishwasher7,cooler8,,66.5,0.898,0.0,
60,,size_choice_confirmation,,html-keyboard-response,60,217880,0.0-1.0-76.0-0.0,0,0,98,,,,,,18.0,,1.0,,,,,,,,,,,,,,,,,,,,,,,,,,67.398,0.602,,
61,,iti,,html-keyboard-response,61,218381,0.0-1.0-77.0,0,0,98,,,,,,18.0,,1.0,,,,,,,,,,,,,,,,,,,,,,,,,,68.0,0.5,,
62,,size_choice,,html-keyboard-response,62,219035,0.0-1.0-79.0,0,0,98,,652.0,,,50.0,19.0,19.0,1.0,3500.0,M-XL,1.0,XL,M,4.0,2.0,car,basketball,car5,basketball8,154.0,57.0,/static/Size_judgement/Stimuli/Size_stims/XL/car/car11.jpg,/static/Size_judgement/Stimuli/Size_stims/M/basketball/basketball7.jpg,1.0,car,basketball,XL,M,4.0,2.0,car5,basketball8,1.0,68.5,0.652,0.0,
63,,size_choice_confirmation,,html-keyboard-response,63,219885,0.0-1.0-80.0-0.0,0,0,98,,,,,,19.0,,1.0,,,,,,,,,,,,,,,,,,,,,,,,,,69.152,0.848,,
64,,iti,,html-keyboard-response,64,223389,0.0-1.0-81.0,0,0,98,,,,,,19.0,,1.0,,,,,,,,,,,,,,,,,,,,,,,,,,70.0,3.5,,
65,,size_choice,,html-keyboard-response,65,224442,0.0-1.0-83.0,0,0,98,,1052.0,,,50.0,20.0,20.0,1.0,500.0,S-M,1.0,M,S,2.0,1.0,hairdryer,screws,hairdryer5,screws5,74.0,124.0,/static/Size_judgement/Stimuli/Size_stims/M/hairdryer/hairdryer15.jpg,/static/Size_judgement/Stimuli/Size_stims/S/screws/screws2.jpg,1.0,hairdryer,screws,M,S,2.0,1.0,hairdryer5,screws5,1.0,73.5,1.052,0.0,
66,,size_choice_confirmation,,html-keyboard-response,66,224893,0.0-1.0-84.0-0.0,0,0,98,,,,,,20.0,,1.0,,,,,,,,,,,,,,,,,,,,,,,,,,74.552,0.448,,
67,,iti,,html-keyboard-response,67,225394,0.0-1.0-85.0,0,0,98,,,,,,20.0,,1.0,,,,,,,,,,,,,,,,,,,,,,,,,,75.0,0.5,,
68,,size_choice,,html-keyboard-response,68,226449,0.0-1.0-87.0,0,0,98,,1052.0,,,50.0,21.0,21.0,1.0,500.0,M-L,0.0,M,L,2.0,3.0,basketball,cooler,basketball3,cooler9,52.0,8.0,/static/Size_judgement/Stimuli/Size_stims/M/basketball/basketball10.jpg,/static/Size_judgement/Stimuli/Size_stims/L/cooler/cooler7.jpg,1.0,basketball,cooler,M,L,2.0,3.0,basketball3,cooler9,0.0,75.5,1.052,0.0,
69,,size_choice_confirmation,,html-keyboard-response,69,226898,0.0-1.0-88.0-0.0,0,0,98,,,,,,21.0,,1.0,,,,,,,,,,,,,,,,,,,,,,,,,,76.552,0.448,,
70,,iti,,html-keyboard-response,70,227400,0.0-1.0-89.0,0,0,98,,,,,,21.0,,1.0,,,,,,,,,,,,,,,,,,,,,,,,,,77.0,0.5,,
71,,size_choice,,html-keyboard-response,71,228906,0.0-1.0-91.0,0,0,98,,,,,,22.0,22.0,1.0,500.0,S-S,,S,S,1.0,1.0,thread,die,thread10,die1,149.0,100.0,/static/Size_judgement/Stimuli/Size_stims/S/thread/thread9.jpg,/static/Size_judgement/Stimuli/Size_stims/S/die/die8.jpg,,,,,,,,,,,77.5,1.5,1.0,
72,,iti,,html-keyboard-response,72,229407,0.0-1.0-93.0,0,0,98,,,,,,22.0,,1.0,,,,,,,,,,,,,,,,,,,,,,,,,,79.0,0.5,,
73,,size_choice,,html-keyboard-response,73,230186,0.0-1.0-95.0,0,0,98,,777.0,,,50.0,23.0,23.0,1.0,1500.0,M-XL,0.0,M,XL,2.0,4.0,hairdryer,dumptruck,hairdryer1,dumptruck5,70.0,174.0,/static/Size_judgement/Stimuli/Size_stims/M/hairdryer/hairdryer11.jpg,/static/Size_judgement/Stimuli/Size_stims/XL/dumptruck/dumptruck3.jpg,1.0,hairdryer,dumptruck,M,XL,2.0,4.0,hairdryer1,dumptruck5,0.0,79.5,0.777,0.0,
74,,size_choice_confirmation,,html-keyboard-response,74,230911,0.0-1.0-96.0-0.0,0,0,98,,,,,,23.0,,1.0,,,,,,,,,,,,,,,,,,,,,,,,,,80.277,0.723,,
75,,iti,,html-keyboard-response,75,232413,0.0-1.0-97.0,0,0,98,,,,,,23.0,,1.0,,,,,,,,,,,,,,,,,,,,,,,,,,81.0,1.5,,
76,,size_choice,,html-keyboard-response,76,233190,0.0-1.0-99.0,0,0,98,,776.0,,,51.0,24.0,24.0,1.0,500.0,M-XL,0.0,M,XL,2.0,4.0,hairdryer,van,hairdryer4,van5,73.0,194.0,/static/Size_judgement/Stimuli/Size_stims/M/hairdryer/hairdryer16.jpg,/static/Size_judgement/Stimuli/Size_stims/XL/van/van3.jpg,0.0,van,hairdryer,XL,M,4.0,2.0,van5,hairdryer4,1.0,82.5,0.776,0.0,
77,,size_choice_confirmation,,html-keyboard-response,77,233917,0.0-1.0-100.0-0.0,0,0,98,,,,,,24.0,,1.0,,,,,,,,,,,,,,,,,,,,,,,,,,83.276,0.724,,
78,,iti,,html-keyboard-response,78,234419,0.0-1.0-101.0,0,0,98,,,,,,24.0,,1.0,,,,,,,,,,,,,,,,,,,,,,,,,,84.0,0.5,,
79,,size_choice,,html-keyboard-response,79,235589,0.0-1.0-103.0,0,0,98,,1169.0,,,50.0,25.0,25.0,1.0,4000.0,M-XL,1.0,XL,M,4.0,2.0,tractor,handsaw,tractor8,handsaw10,187.0,89.0,/static/Size_judgement/Stimuli/Size_stims/XL/tractor/tractor10.jpg,/static/Size_judgement/Stimuli/Size_stims/M/handsaw/handsaw10.jpg,1.0,tractor,handsaw,XL,M,4.0,2.0,tractor8,handsaw10,1.0,84.5,1.169,0.0,
80,,size_choice_confirmation,,html-keyboard-response,80,235922,0.0-1.0-104.0-0.0,0,0,98,,,,,,25.0,,1.0,,,,,,,,,,,,,,,,,,,,,,,,,,85.669,0.331,,
81,,iti,,html-keyboard-response,81,239928,0.0-1.0-105.0,0,0,98,,,,,,25.0,,1.0,,,,,,,,,,,,,,,,,,,,,,,,,,86.0,4.0,,
82,,size_choice,,html-keyboard-response,82,241182,0.0-1.0-107.0,0,0,98,,1253.0,,,51.0,26.0,26.0,1.0,3000.0,M-L,0.0,M,L,2.0,3.0,coffeemaker,garbagecan,coffeemaker6,garbagecan10,65.0,39.0,/static/Size_judgement/Stimuli/Size_stims/M/coffeemaker/coffeemaker8.jpg,/static/Size_judgement/Stimuli/Size_stims/L/garbagecan/garbagecan11.jpg,0.0,garbagecan,coffeemaker,L,M,3.0,2.0,garbagecan10,coffeemaker6,1.0,90.0,1.253,0.0,
83,,size_choice_confirmation,,html-keyboard-response,83,241431,0.0-1.0-108.0-0.0,0,0,98,,,,,,26.0,,1.0,,,,,,,,,,,,,,,,,,,,,,,,,,91.253,0.247,,
84,,iti,,html-keyboard-response,84,244435,0.0-1.0-109.0,0,0,98,,,,,,26.0,,1.0,,,,,,,,,,,,,,,,,,,,,,,,,,91.5,3.0,,
85,,size_choice,,html-keyboard-response,85,245615,0.0-1.0-111.0,0,0,98,,1179.0,,,51.0,27.0,27.0,1.0,500.0,S-S,,S,S,1.0,1.0,paperclip,teabag,paperclip8,teabag9,117.0,138.0,/static/Size_judgement/Stimuli/Size_stims/S/paperclip/paperclip5.jpg,/static/Size_judgement/Stimuli/Size_stims/S/teabag/teabag5.jpg,0.0,teabag,paperclip,S,S,1.0,1.0,teabag9,paperclip8,,94.5,1.179,0.0,
86,,size_choice_confirmation,,html-keyboard-response,86,245939,0.0-1.0-112.0-0.0,0,0,98,,,,,,27.0,,1.0,,,,,,,,,,,,,,,,,,,,,,,,,,95.679,0.321,,
87,,iti,,html-keyboard-response,87,246440,0.0-1.0-113.0,0,0,98,,,,,,27.0,,1.0,,,,,,,,,,,,,,,,,,,,,,,,,,96.0,0.5,,
88,,size_choice,,html-keyboard-response,88,247400,0.0-1.0-115.0,0,0,98,,959.0,,,51.0,28.0,28.0,1.0,4500.0,S-L,0.0,S,L,1.0,3.0,die,mailbox,die10,mailbox6,109.0,45.0,/static/Size_judgement/Stimuli/Size_stims/S/die/die6.jpg,/static/Size_judgement/Stimuli/Size_stims/L/mailbox/mailbox6.jpg,0.0,mailbox,die,L,S,3.0,1.0,mailbox6,die10,1.0,96.5,0.959,0.0,
89,,size_choice_confirmation,,html-keyboard-response,89,247944,0.0-1.0-116.0-0.0,0,0,98,,,,,,28.0,,1.0,,,,,,,,,,,,,,,,,,,,,,,,,,97.459,0.541,,
90,,iti,,html-keyboard-response,90,252445,0.0-1.0-117.0,0,0,98,,,,,,28.0,,1.0,,,,,,,,,,,,,,,,,,,,,,,,,,98.0,4.5,,
91,,size_choice,,html-keyboard-response,91,253690,0.0-1.0-119.0,0,0,98,,1243.0,,,51.0,29.0,29.0,1.0,1000.0,L-L,,L,L,3.0,3.0,dishwasher,garbagecan,dishwasher9,garbagecan9,28.0,38.0,/static/Size_judgement/Stimuli/Size_stims/L/dishwasher/dishwasher2.jpg,/static/Size_judgement/Stimuli/Size_stims/L/garbagecan/garbagecan12.jpg,0.0,garbagecan,dishwasher,L,L,3.0,3.0,garbagecan9,dishwasher9,,102.5,1.243,0.0,
92,,size_choice_confirmation,,html-keyboard-response,92,253949,0.0-1.0-120.0-0.0,0,0,98,,,,,,29.0,,1.0,,,,,,,,,,,,,,,,,,,,,,,,,,103.743,0.257,,
93,,iti,,html-keyboard-response,93,254952,0.0-1.0-121.0,0,0,98,,,,,,29.0,,1.0,,,,,,,,,,,,,,,,,,,,,,,,,,104.0,1.0,,
94,,size_choice,,html-keyboard-response,94,255886,0.0-1.0-123.0,0,0,98,,932.0,,,50.0,30.0,30.0,1.0,1000.0,S-XL,1.0,XL,S,4.0,1.0,crane,paperclip,crane1,paperclip3,160.0,112.0,/static/Size_judgement/Stimuli/Size_stims/XL/crane/crane7.jpg,/static/Size_judgement/Stimuli/Size_stims/S/paperclip/paperclip1.jpg,1.0,crane,paperclip,XL,S,4.0,1.0,crane1,paperclip3,1.0,105.0,0.932,0.0,
95,,size_choice_confirmation,,html-keyboard-response,95,256456,0.0-1.0-124.0-0.0,0,0,98,,,,,,30.0,,1.0,,,,,,,,,,,,,,,,,,,,,,,,,,105.932,0.568,,
96,,iti,,html-keyboard-response,96,257459,0.0-1.0-125.0,0,0,98,,,,,,30.0,,1.0,,,,,,,,,,,,,,,,,,,,,,,,,,106.5,1.0,,
97,,size_choice,,html-keyboard-response,97,258419,0.0-1.0-127.0,0,0,98,,959.0,,,50.0,31.0,31.0,1.0,1000.0,S-XL,1.0,XL,S,4.0,1.0,crane,paperclip,crane2,paperclip7,161.0,116.0,/static/Size_judgement/Stimuli/Size_stims/XL/crane/crane6.jpg,/static/Size_judgement/Stimuli/Size_stims/S/paperclip/paperclip7.jpg,1.0,crane,paperclip,XL,S,4.0,1.0,crane2,paperclip7,1.0,107.5,0.959,0.0,
98,,size_choice_confirmation,,html-keyboard-response,98,258965,0.0-1.0-128.0-0.0,0,0,98,,,,,,31.0,,1.0,,,,,,,,,,,,,,,,,,,,,,,,,,108.459,0.541,,
99,,iti,,html-keyboard-response,99,259970,0.0-1.0-129.0,0,0,98,,,,,,31.0,,1.0,,,,,,,,,,,,,,,,,,,,,,,,,,109.0,1.0,,
100,,size_choice,,html-keyboard-response,100,261160,0.0-1.0-131.0,0,0,98,,1188.0,,,51.0,32.0,32.0,1.0,5000.0,M-L,0.0,M,L,2.0,3.0,handsaw,dishwasher,handsaw2,dishwasher4,81.0,23.0,/static/Size_judgement/Stimuli/Size_stims/M/handsaw/handsaw9.jpg,/static/Size_judgement/Stimuli/Size_stims/L/dishwasher/dishwasher5.jpg,0.0,dishwasher,handsaw,L,M,3.0,2.0,dishwasher4,handsaw2,1.0,110.0,1.188,0.0,
101,,size_choice_confirmation,,html-keyboard-response,101,261475,0.0-1.0-132.0-0.0,0,0,98,,,,,,32.0,,1.0,,,,,,,,,,,,,,,,,,,,,,,,,,111.188,0.312,,
102,,iti,,html-keyboard-response,102,266478,0.0-1.0-133.0,0,0,98,,,,,,32.0,,1.0,,,,,,,,,,,,,,,,,,,,,,,,,,111.5,5.0,,
103,,size_choice,,html-keyboard-response,103,267982,0.0-1.0-135.0,0,0,98,,,,,,33.0,33.0,1.0,5000.0,M-M,,M,M,2.0,2.0,hairdryer,handsaw,hairdryer9,handsaw4,78.0,83.0,/static/Size_judgement/Stimuli/Size_stims/M/hairdryer/hairdryer5.jpg,/static/Size_judgement/Stimuli/Size_stims/M/handsaw/handsaw3.jpg,,,,,,,,,,,116.5,1.5,1.0,
104,,iti,,html-keyboard-response,104,272984,0.0-1.0-137.0,0,0,98,,,,,,33.0,,1.0,,,,,,,,,,,,,,,,,,,,,,,,,,118.0,5.0,,
105,,size_choice,,html-keyboard-response,105,273920,0.0-1.0-139.0,0,0,98,,934.0,,,51.0,34.0,34.0,1.0,2500.0,L-XL,0.0,L,XL,3.0,4.0,cooler,tractor,cooler1,tractor10,0.0,189.0,/static/Size_judgement/Stimuli/Size_stims/L/cooler/cooler8.jpg,/static/Size_judgement/Stimuli/Size_stims/XL/tractor/tractor8.jpg,0.0,tractor,cooler,XL,L,4.0,3.0,tractor10,cooler1,1.0,123.0,0.934,0.0,
106,,size_choice_confirmation,,html-keyboard-response,106,274488,0.0-1.0-140.0-0.0,0,0,98,,,,,,34.0,,1.0,,,,,,,,,,,,,,,,,,,,,,,,,,123.934,0.566,,
107,,iti,,html-keyboard-response,107,276990,0.0-1.0-141.0,0,0,98,,,,,,34.0,,1.0,,,,,,,,,,,,,,,,,,,,,,,,,,124.5,2.5,,
108,,size_choice,,html-keyboard-response,108,277898,0.0-1.0-143.0,0,0,98,,906.0,,,51.0,35.0,35.0,1.0,1000.0,M-XL,0.0,M,XL,2.0,4.0,coffeemaker,tractor,coffeemaker9,tractor3,68.0,182.0,/static/Size_judgement/Stimuli/Size_stims/M/coffeemaker/coffeemaker7.jpg,/static/Size_judgement/Stimuli/Size_stims/XL/tractor/tractor5.jpg,0.0,tractor,coffeemaker,XL,M,4.0,2.0,tractor3,coffeemaker9,1.0,127.0,0.906,0.0,
109,,size_choice_confirmation,,html-keyboard-response,109,278494,0.0-1.0-144.0-0.0,0,0,98,,,,,,35.0,,1.0,,,,,,,,,,,,,,,,,,,,,,,,,,127.906,0.594,,
110,,iti,,html-keyboard-response,110,279496,0.0-1.0-145.0,0,0,98,,,,,,35.0,,1.0,,,,,,,,,,,,,,,,,,,,,,,,,,128.5,1.0,,
111,,size_choice,,html-keyboard-response,111,280425,0.0-1.0-147.0,0,0,98,,926.0,,,51.0,36.0,36.0,1.0,500.0,S-M,0.0,S,M,1.0,2.0,thread,ketchup,thread4,ketchup7,143.0,96.0,/static/Size_judgement/Stimuli/Size_stims/S/thread/thread5.jpg,/static/Size_judgement/Stimuli/Size_stims/M/ketchup/ketchup4.jpg,0.0,ketchup,thread,M,S,2.0,1.0,ketchup7,thread4,1.0,129.5,0.926,0.0,
112,,size_choice_confirmation,,html-keyboard-response,112,281001,0.0-1.0-148.0-0.0,0,0,98,,,,,,36.0,,1.0,,,,,,,,,,,,,,,,,,,,,,,,,,130.426,0.574,,
113,,iti,,html-keyboard-response,113,281502,0.0-1.0-149.0,0,0,98,,,,,,36.0,,1.0,,,,,,,,,,,,,,,,,,,,,,,,,,131.0,0.5,,
114,,size_choice,,html-keyboard-response,114,282571,0.0-1.0-151.0,0,0,98,,1067.0,,,51.0,37.0,37.0,1.0,1500.0,M-XL,0.0,M,XL,2.0,4.0,coffeemaker,tractor,coffeemaker4,tractor4,63.0,183.0,/static/Size_judgement/Stimuli/Size_stims/M/coffeemaker/coffeemaker11.jpg,/static/Size_judgement/Stimuli/Size_stims/XL/tractor/tractor4.jpg,0.0,tractor,coffeemaker,XL,M,4.0,2.0,tractor4,coffeemaker4,1.0,131.5,1.067,0.0,
115,,size_choice_confirmation,,html-keyboard-response,115,283006,0.0-1.0-152.0-0.0,0,0,98,,,,,,37.0,,1.0,,,,,,,,,,,,,,,,,,,,,,,,,,132.567,0.433,,
116,,iti,,html-keyboard-response,116,284510,0.0-1.0-153.0,0,0,98,,,,,,37.0,,1.0,,,,,,,,,,,,,,,,,,,,,,,,,,133.0,1.5,,
117,,size_choice,,html-keyboard-response,117,285343,0.0-1.0-155.0,0,0,98,,832.0,,,51.0,38.0,38.0,1.0,1000.0,S-L,0.0,S,L,1.0,3.0,die,mailbox,die7,mailbox2,106.0,41.0,/static/Size_judgement/Stimuli/Size_stims/S/die/die4.jpg,/static/Size_judgement/Stimuli/Size_stims/L/mailbox/mailbox2.jpg,0.0,mailbox,die,L,S,3.0,1.0,mailbox2,die7,1.0,134.5,0.832,0.0,
118,,size_choice_confirmation,,html-keyboard-response,118,286014,0.0-1.0-156.0-0.0,0,0,98,,,,,,38.0,,1.0,,,,,,,,,,,,,,,,,,,,,,,,,,135.332,0.668,,
119,,iti,,html-keyboard-response,119,287019,0.0-1.0-157.0,0,0,98,,,,,,38.0,,1.0,,,,,,,,,,,,,,,,,,,,,,,,,,136.0,1.0,,
120,,size_choice,,html-keyboard-response,120,287978,0.0-1.0-159.0,0,0,98,,956.0,,,50.0,39.0,39.0,1.0,1500.0,M-XL,1.0,XL,M,4.0,2.0,crane,ketchup,crane6,ketchup6,165.0,95.0,/static/Size_judgement/Stimuli/Size_stims/XL/crane/crane2.jpg,/static/Size_judgement/Stimuli/Size_stims/M/ketchup/ketchup1.jpg,1.0,crane,ketchup,XL,M,4.0,2.0,crane6,ketchup6,1.0,137.0,0.956,0.0,
121,,size_choice_confirmation,,html-keyboard-response,121,288526,0.0-1.0-160.0-0.0,0,0,98,,,,,,39.0,,1.0,,,,,,,,,,,,,,,,,,,,,,,,,,137.956,0.544,,
122,,iti,,html-keyboard-response,122,290030,0.0-1.0-161.0,0,0,98,,,,,,39.0,,1.0,,,,,,,,,,,,,,,,,,,,,,,,,,138.5,1.5,,
123,,size_choice,,html-keyboard-response,123,291130,0.0-1.0-163.0,0,0,98,,1098.0,,,50.0,40.0,40.0,1.0,500.0,XL-XL,,XL,XL,4.0,4.0,dumptruck,car,dumptruck1,car2,170.0,151.0,/static/Size_judgement/Stimuli/Size_stims/XL/dumptruck/dumptruck9.jpg,/static/Size_judgement/Stimuli/Size_stims/XL/car/car3.jpg,1.0,dumptruck,car,XL,XL,4.0,4.0,dumptruck1,car2,,140.0,1.098,0.0,
124,,size_choice_confirmation,,html-keyboard-response,124,291534,0.0-1.0-164.0-0.0,0,0,98,,,,,,40.0,,1.0,,,,,,,,,,,,,,,,,,,,,,,,,,141.098,0.402,,
125,,iti,,html-keyboard-response,125,292035,0.0-1.0-165.0,0,0,98,,,,,,40.0,,1.0,,,,,,,,,,,,,,,,,,,,,,,,,,141.5,0.5,,
126,,size_choice,,html-keyboard-response,126,293038,0.0-1.0-167.0,0,0,98,,1000.0,,,51.0,41.0,41.0,1.0,1000.0,M-L,0.0,M,L,2.0,3.0,ketchup,deskchair,ketchup8,deskchair6,97.0,15.0,/static/Size_judgement/Stimuli/Size_stims/M/ketchup/ketchup5.jpg,/static/Size_judgement/Stimuli/Size_stims/L/deskchair/deskchair5.jpg,0.0,deskchair,ketchup,L,M,3.0,2.0,deskchair6,ketchup8,1.0,142.0,1.0,0.0,
127,,size_choice_confirmation,,html-keyboard-response,127,293539,0.0-1.0-168.0-0.0,0,0,98,,,,,,41.0,,1.0,,,,,,,,,,,,,,,,,,,,,,,,,,143.0,0.5,,
128,,iti,,html-keyboard-response,128,294542,0.0-1.0-169.0,0,0,98,,,,,,41.0,,1.0,,,,,,,,,,,,,,,,,,,,,,,,,,143.5,1.0,,
129,,size_choice,,html-keyboard-response,129,295300,0.0-1.0-171.0,0,0,98,,758.0,,,50.0,42.0,42.0,1.0,1000.0,S-XL,1.0,XL,S,4.0,1.0,car,teabag,car4,teabag10,153.0,139.0,/static/Size_judgement/Stimuli/Size_stims/XL/car/car6.jpg,/static/Size_judgement/Stimuli/Size_stims/S/teabag/teabag4.jpg,1.0,car,teabag,XL,S,4.0,1.0,car4,teabag10,1.0,144.5,0.758,0.0,
130,,size_choice_confirmation,,html-keyboard-response,130,296046,0.0-1.0-172.0-0.0,0,0,98,,,,,,42.0,,1.0,,,,,,,,,,,,,,,,,,,,,,,,,,145.258,0.742,,
131,,iti,,html-keyboard-response,131,297049,0.0-1.0-173.0,0,0,98,,,,,,42.0,,1.0,,,,,,,,,,,,,,,,,,,,,,,,,,146.0,1.0,,
132,,size_choice,,html-keyboard-response,132,298227,0.0-1.0-175.0,0,0,98,,1177.0,,,51.0,43.0,43.0,1.0,1000.0,M-M,,M,M,2.0,2.0,hairdryer,coffeemaker,hairdryer10,coffeemaker1,79.0,60.0,/static/Size_judgement/Stimuli/Size_stims/M/hairdryer/hairdryer6.jpg,/static/Size_judgement/Stimuli/Size_stims/M/coffeemaker/coffeemaker14.jpg,0.0,coffeemaker,hairdryer,M,M,2.0,2.0,coffeemaker1,hairdryer10,,147.0,1.177,0.0,
133,,size_choice_confirmation,,html-keyboard-response,133,298553,0.0-1.0-176.0-0.0,0,0,98,,,,,,43.0,,1.0,,,,,,,,,,,,,,,,,,,,,,,,,,148.177,0.323,,
134,,iti,,html-keyboard-response,134,299555,0.0-1.0-177.0,0,0,98,,,,,,43.0,,1.0,,,,,,,,,,,,,,,,,,,,,,,,,,148.5,1.0,,
135,,size_choice,,html-keyboard-response,135,300813,0.0-1.0-179.0,0,0,98,,1256.0,,,50.0,44.0,44.0,1.0,1000.0,S-L,1.0,L,S,3.0,1.0,garbagecan,thread,garbagecan2,thread9,31.0,148.0,/static/Size_judgement/Stimuli/Size_stims/L/garbagecan/garbagecan5.jpg,/static/Size_judgement/Stimuli/Size_stims/S/thread/thread8.jpg,1.0,garbagecan,thread,L,S,3.0,1.0,garbagecan2,thread9,1.0,149.5,1.256,0.0,
136,,size_choice_confirmation,,html-keyboard-response,136,301059,0.0-1.0-180.0-0.0,0,0,98,,,,,,44.0,,1.0,,,,,,,,,,,,,,,,,,,,,,,,,,150.756,0.244,,
137,,iti,,html-keyboard-response,137,302062,0.0-1.0-181.0,0,0,98,,,,,,44.0,,1.0,,,,,,,,,,,,,,,,,,,,,,,,,,151.0,1.0,,
138,,size_choice,,html-keyboard-response,138,302975,0.0-1.0-183.0,0,0,98,,911.0,,,51.0,45.0,45.0,1.0,500.0,M-XL,0.0,M,XL,2.0,4.0,basketball,van,basketball7,van7,56.0,196.0,/static/Size_judgement/Stimuli/Size_stims/M/basketball/basketball6.jpg,/static/Size_judgement/Stimuli/Size_stims/XL/van/van1.jpg,0.0,van,basketball,XL,M,4.0,2.0,van7,basketball7,1.0,152.0,0.911,0.0,
139,,size_choice_confirmation,,html-keyboard-response,139,303566,0.0-1.0-184.0-0.0,0,0,98,,,,,,45.0,,1.0,,,,,,,,,,,,,,,,,,,,,,,,,,152.911,0.589,,
140,,iti,,html-keyboard-response,140,304067,0.0-1.0-185.0,0,0,98,,,,,,45.0,,1.0,,,,,,,,,,,,,,,,,,,,,,,,,,153.5,0.5,,
141,,size_choice,,html-keyboard-response,141,305161,0.0-1.0-187.0,0,0,98,,1092.0,,,50.0,46.0,46.0,1.0,3000.0,S-L,1.0,L,S,3.0,1.0,dishwasher,teabag,dishwasher6,teabag1,25.0,130.0,/static/Size_judgement/Stimuli/Size_stims/L/dishwasher/dishwasher6.jpg,/static/Size_judgement/Stimuli/Size_stims/S/teabag/teabag9.jpg,1.0,dishwasher,teabag,L,S,3.0,1.0,dishwasher6,teabag1,1.0,154.0,1.092,0.0,
142,,size_choice_confirmation,,html-keyboard-response,142,305572,0.0-1.0-188.0-0.0,0,0,98,,,,,,46.0,,1.0,,,,,,,,,,,,,,,,,,,,,,,,,,155.092,0.408,,
143,,iti,,html-keyboard-response,143,308574,0.0-1.0-189.0,0,0,98,,,,,,46.0,,1.0,,,,,,,,,,,,,,,,,,,,,,,,,,155.5,3.0,,
144,,size_choice,,html-keyboard-response,144,309493,0.0-1.0-191.0,0,0,98,,917.0,,,50.0,47.0,47.0,1.0,2000.0,L-XL,1.0,XL,L,4.0,3.0,tractor,deskchair,tractor6,deskchair5,185.0,14.0,/static/Size_judgement/Stimuli/Size_stims/XL/tractor/tractor3.jpg,/static/Size_judgement/Stimuli/Size_stims/L/deskchair/deskchair7.jpg,1.0,tractor,deskchair,XL,L,4.0,3.0,tractor6,deskchair5,1.0,158.5,0.917,0.0,
145,,size_choice_confirmation,,html-keyboard-response,145,310078,0.0-1.0-192.0-0.0,0,0,98,,,,,,47.0,,1.0,,,,,,,,,,,,,,,,,,,,,,,,,,159.417,0.583,,
146,,iti,,html-keyboard-response,146,312084,0.0-1.0-193.0,0,0,98,,,,,,47.0,,1.0,,,,,,,,,,,,,,,,,,,,,,,,,,160.0,2.0,,
147,,size_choice,,html-keyboard-response,147,313094,0.0-1.0-195.0,0,0,98,,1009.0,,,51.0,48.0,48.0,1.0,500.0,M-L,0.0,M,L,2.0,3.0,hairdryer,cooler,hairdryer6,cooler3,75.0,2.0,/static/Size_judgement/Stimuli/Size_stims/M/hairdryer/hairdryer8.jpg,/static/Size_judgement/Stimuli/Size_stims/L/cooler/cooler2.jpg,0.0,cooler,hairdryer,L,M,3.0,2.0,cooler3,hairdryer6,1.0,162.0,1.009,0.0,
148,,size_choice_confirmation,,html-keyboard-response,148,313588,0.0-1.0-196.0-0.0,0,0,98,,,,,,48.0,,1.0,,,,,,,,,,,,,,,,,,,,,,,,,,163.009,0.491,,
149,,iti,,html-keyboard-response,149,314089,0.0-1.0-197.0,0,0,98,,,,,,48.0,,1.0,,,,,,,,,,,,,,,,,,,,,,,,,,163.5,0.5,,
150,,size_choice,,html-keyboard-response,150,314992,0.0-1.0-199.0,0,0,98,,902.0,,,50.0,49.0,49.0,1.0,1500.0,S-L,1.0,L,S,3.0,1.0,cooler,thread,cooler7,thread7,6.0,146.0,/static/Size_judgement/Stimuli/Size_stims/L/cooler/cooler4.jpg,/static/Size_judgement/Stimuli/Size_stims/S/thread/thread3.jpg,1.0,cooler,thread,L,S,3.0,1.0,cooler7,thread7,1.0,164.0,0.902,0.0,
151,,size_choice_confirmation,,html-keyboard-response,151,315593,0.0-1.0-200.0-0.0,0,0,98,,,,,,49.0,,1.0,,,,,,,,,,,,,,,,,,,,,,,,,,164.902,0.598,,
152,,iti,,html-keyboard-response,152,317097,0.0-1.0-201.0,0,0,98,,,,,,49.0,,1.0,,,,,,,,,,,,,,,,,,,,,,,,,,165.5,1.5,,
153,,size_choice,,html-keyboard-response,153,318037,0.0-1.0-203.0,0,0,98,,938.0,,,51.0,50.0,50.0,1.0,1500.0,S-S,,S,S,1.0,1.0,paperclip,screws,paperclip1,screws10,110.0,129.0,/static/Size_judgement/Stimuli/Size_stims/S/paperclip/paperclip9.jpg,/static/Size_judgement/Stimuli/Size_stims/S/screws/screws9.jpg,0.0,screws,paperclip,S,S,1.0,1.0,screws10,paperclip1,,167.0,0.938,0.0,
154,,size_choice_confirmation,,html-keyboard-response,154,318601,0.0-1.0-204.0-0.0,0,0,98,,,,,,50.0,,1.0,,,,,,,,,,,,,,,,,,,,,,,,,,167.938,0.562,,
155,,iti,,html-keyboard-response,155,320105,0.0-1.0-205.0,0,0,98,,,,,,50.0,,1.0,,,,,,,,,,,,,,,,,,,,,,,,,,168.5,1.5,,
156,,size_choice,,html-keyboard-response,156,320948,0.0-1.0-207.0,0,0,98,,841.0,,,50.0,51.0,51.0,1.0,500.0,L-XL,0.0,L,XL,3.0,4.0,dishwasher,dumptruck,dishwasher3,dumptruck3,22.0,172.0,/static/Size_judgement/Stimuli/Size_stims/L/dishwasher/dishwasher8.jpg,/static/Size_judgement/Stimuli/Size_stims/XL/dumptruck/dumptruck10.jpg,1.0,dishwasher,dumptruck,L,XL,3.0,4.0,dishwasher3,dumptruck3,0.0,170.0,0.841,0.0,
157,,size_choice_confirmation,,html-keyboard-response,157,321609,0.0-1.0-208.0-0.0,0,0,98,,,,,,51.0,,1.0,,,,,,,,,,,,,,,,,,,,,,,,,,170.841,0.659,,
158,,iti,,html-keyboard-response,158,322110,0.0-1.0-209.0,0,0,98,,,,,,51.0,,1.0,,,,,,,,,,,,,,,,,,,,,,,,,,171.5,0.5,,
159,,size_choice,,html-keyboard-response,159,323614,0.0-1.0-211.0,0,0,98,,,,,,52.0,52.0,1.0,1000.0,S-S,,S,S,1.0,1.0,die,thread,die3,thread6,102.0,145.0,/static/Size_judgement/Stimuli/Size_stims/S/die/die10.jpg,/static/Size_judgement/Stimuli/Size_stims/S/thread/thread2.jpg,,,,,,,,,,,172.0,1.5,1.0,
160,,iti,,html-keyboard-response,160,324617,0.0-1.0-213.0,0,0,98,,,,,,52.0,,1.0,,,,,,,,,,,,,,,,,,,,,,,,,,173.5,1.0,,
161,,size_choice,,html-keyboard-response,161,325397,0.0-1.0-215.0,0,0,98,,779.0,,,50.0,53.0,53.0,1.0,3500.0,M-XL,1.0,XL,M,4.0,2.0,crane,coffeemaker,crane10,coffeemaker2,169.0,61.0,/static/Size_judgement/Stimuli/Size_stims/XL/crane/crane9.jpg,/static/Size_judgement/Stimuli/Size_stims/M/coffeemaker/coffeemaker12.jpg,1.0,crane,coffeemaker,XL,M,4.0,2.0,crane10,coffeemaker2,1.0,174.5,0.779,0.0,
162,,size_choice_confirmation,,html-keyboard-response,162,326121,0.0-1.0-216.0-0.0,0,0,98,,,,,,53.0,,1.0,,,,,,,,,,,,,,,,,,,,,,,,,,175.279,0.721,,
163,,iti,,html-keyboard-response,163,329625,0.0-1.0-217.0,0,0,98,,,,,,53.0,,1.0,,,,,,,,,,,,,,,,,,,,,,,,,,176.0,3.5,,
164,,size_choice,,html-keyboard-response,164,330305,0.0-1.0-219.0,0,0,98,,678.0,,,51.0,54.0,54.0,1.0,1000.0,S-XL,0.0,S,XL,1.0,4.0,teabag,dumptruck,teabag7,dumptruck8,136.0,177.0,/static/Size_judgement/Stimuli/Size_stims/S/teabag/teabag10.jpg,/static/Size_judgement/Stimuli/Size_stims/XL/dumptruck/dumptruck7.jpg,0.0,dumptruck,teabag,XL,S,4.0,1.0,dumptruck8,teabag7,1.0,179.5,0.678,0.0,
165,,size_choice_confirmation,,html-keyboard-response,165,331130,0.0-1.0-220.0-0.0,0,0,98,,,,,,54.0,,1.0,,,,,,,,,,,,,,,,,,,,,,,,,,180.178,0.822,,
166,,iti,,html-keyboard-response,166,332132,0.0-1.0-221.0,0,0,98,,,,,,54.0,,1.0,,,,,,,,,,,,,,,,,,,,,,,,,,181.0,1.0,,
167,,size_choice,,html-keyboard-response,167,333116,0.0-1.0-223.0,0,0,98,,983.0,,,51.0,55.0,55.0,1.0,2000.0,M-L,0.0,M,L,2.0,3.0,handsaw,cooler,handsaw6,cooler5,85.0,4.0,/static/Size_judgement/Stimuli/Size_stims/M/handsaw/handsaw4.jpg,/static/Size_judgement/Stimuli/Size_stims/L/cooler/cooler10.jpg,0.0,cooler,handsaw,L,M,3.0,2.0,cooler5,handsaw6,1.0,182.0,0.983,0.0,
168,,size_choice_confirmation,,html-keyboard-response,168,333636,0.0-1.0-224.0-0.0,0,0,98,,,,,,55.0,,1.0,,,,,,,,,,,,,,,,,,,,,,,,,,182.983,0.517,,
169,,iti,,html-keyboard-response,169,335641,0.0-1.0-225.0,0,0,98,,,,,,55.0,,1.0,,,,,,,,,,,,,,,,,,,,,,,,,,183.5,2.0,,
170,,size_choice,,html-keyboard-response,170,336399,0.0-1.0-227.0,0,0,98,,757.0,,,51.0,56.0,56.0,1.0,2000.0,M-L,0.0,M,L,2.0,3.0,ketchup,mailbox,ketchup2,mailbox9,91.0,48.0,/static/Size_judgement/Stimuli/Size_stims/M/ketchup/ketchup9.jpg,/static/Size_judgement/Stimuli/Size_stims/L/mailbox/mailbox9.jpg,0.0,mailbox,ketchup,L,M,3.0,2.0,mailbox9,ketchup2,1.0,185.5,0.757,0.0,
171,,size_choice_confirmation,,html-keyboard-response,171,337145,0.0-1.0-228.0-0.0,0,0,98,,,,,,56.0,,1.0,,,,,,,,,,,,,,,,,,,,,,,,,,186.257,0.743,,
172,,iti,,html-keyboard-response,172,339150,0.0-1.0-229.0,0,0,98,,,,,,56.0,,1.0,,,,,,,,,,,,,,,,,,,,,,,,,,187.0,2.0,,
173,,size_choice,,html-keyboard-response,173,339886,0.0-1.0-231.0,0,0,98,,735.0,,,50.0,57.0,57.0,1.0,1000.0,S-XL,1.0,XL,S,4.0,1.0,dumptruck,teabag,dumptruck7,teabag5,176.0,134.0,/static/Size_judgement/Stimuli/Size_stims/XL/dumptruck/dumptruck6.jpg,/static/Size_judgement/Stimuli/Size_stims/S/teabag/teabag2.jpg,1.0,dumptruck,teabag,XL,S,4.0,1.0,dumptruck7,teabag5,1.0,189.0,0.735,0.0,
174,,size_choice_confirmation,,html-keyboard-response,174,340655,0.0-1.0-232.0-0.0,0,0,98,,,,,,57.0,,1.0,,,,,,,,,,,,,,,,,,,,,,,,,,189.735,0.765,,
175,,iti,,html-keyboard-response,175,341657,0.0-1.0-233.0,0,0,98,,,,,,57.0,,1.0,,,,,,,,,,,,,,,,,,,,,,,,,,190.5,1.0,,
176,,size_choice,,html-keyboard-response,176,342652,0.0-1.0-235.0,0,0,98,,993.0,,,50.0,58.0,58.0,1.0,5000.0,S-XL,1.0,XL,S,4.0,1.0,van,teabag,van4,teabag3,193.0,132.0,/static/Size_judgement/Stimuli/Size_stims/XL/van/van7.jpg,/static/Size_judgement/Stimuli/Size_stims/S/teabag/teabag1.jpg,1.0,van,teabag,XL,S,4.0,1.0,van4,teabag3,1.0,191.5,0.993,0.0,
177,,size_choice_confirmation,,html-keyboard-response,177,343161,0.0-1.0-236.0-0.0,0,0,98,,,,,,58.0,,1.0,,,,,,,,,,,,,,,,,,,,,,,,,,192.493,0.507,,
178,,iti,,html-keyboard-response,178,348164,0.0-1.0-237.0,0,0,98,,,,,,58.0,,1.0,,,,,,,,,,,,,,,,,,,,,,,,,,193.0,5.0,,
179,,size_choice,,html-keyboard-response,179,348934,0.0-1.0-239.0,0,0,98,,769.0,,,51.0,59.0,59.0,1.0,500.0,S-L,0.0,S,L,1.0,3.0,paperclip,deskchair,paperclip4,deskchair3,113.0,12.0,/static/Size_judgement/Stimuli/Size_stims/S/paperclip/paperclip3.jpg,/static/Size_judgement/Stimuli/Size_stims/L/deskchair/deskchair10.jpg,0.0,deskchair,paperclip,L,S,3.0,1.0,deskchair3,paperclip4,1.0,198.0,0.769,0.0,
180,,size_choice_confirmation,,html-keyboard-response,180,349668,0.0-1.0-240.0-0.0,0,0,98,,,,,,59.0,,1.0,,,,,,,,,,,,,,,,,,,,,,,,,,198.769,0.731,,
181,,iti,,html-keyboard-response,181,350170,0.0-1.0-241.0,0,0,98,,,,,,59.0,,1.0,,,,,,,,,,,,,,,,,,,,,,,,,,199.5,0.5,,
182,,size_choice,,html-keyboard-response,182,351444,0.0-1.0-243.0,0,0,98,,1273.0,,,51.0,60.0,60.0,1.0,1000.0,L-L,,L,L,3.0,3.0,deskchair,cooler,deskchair8,cooler2,17.0,1.0,/static/Size_judgement/Stimuli/Size_stims/L/deskchair/deskchair1.jpg,/static/Size_judgement/Stimuli/Size_stims/L/cooler/cooler9.jpg,0.0,cooler,deskchair,L,L,3.0,3.0,cooler2,deskchair8,,200.0,1.273,0.0,
183,,size_choice_confirmation,,html-keyboard-response,183,351674,0.0-1.0-244.0-0.0,0,0,98,,,,,,60.0,,1.0,,,,,,,,,,,,,,,,,,,,,,,,,,201.273,0.227,,
184,,iti,,html-keyboard-response,184,352676,0.0-1.0-245.0,0,0,98,,,,,,60.0,,1.0,,,,,,,,,,,,,,,,,,,,,,,,,,201.5,1.0,,
185,,size_choice,,html-keyboard-response,185,353405,0.0-1.0-247.0,0,0,98,,727.0,,,50.0,61.0,61.0,1.0,1500.0,S-XL,1.0,XL,S,4.0,1.0,crane,screws,crane3,screws7,162.0,126.0,/static/Size_judgement/Stimuli/Size_stims/XL/crane/crane4.jpg,/static/Size_judgement/Stimuli/Size_stims/S/screws/screws1.jpg,1.0,crane,screws,XL,S,4.0,1.0,crane3,screws7,1.0,202.5,0.727,0.0,
186,,size_choice_confirmation,,html-keyboard-response,186,354180,0.0-1.0-248.0-0.0,0,0,98,,,,,,61.0,,1.0,,,,,,,,,,,,,,,,,,,,,,,,,,203.227,0.773,,
187,,iti,,html-keyboard-response,187,355684,0.0-1.0-249.0,0,0,98,,,,,,61.0,,1.0,,,,,,,,,,,,,,,,,,,,,,,,,,204.0,1.5,,
188,,size_choice,,html-keyboard-response,188,356476,0.0-1.0-251.0,0,0,98,,790.0,,,50.0,62.0,62.0,1.0,500.0,S-L,1.0,L,S,3.0,1.0,garbagecan,teabag,garbagecan3,teabag8,32.0,137.0,/static/Size_judgement/Stimuli/Size_stims/L/garbagecan/garbagecan7.jpg,/static/Size_judgement/Stimuli/Size_stims/S/teabag/teabag7.jpg,1.0,garbagecan,teabag,L,S,3.0,1.0,garbagecan3,teabag8,1.0,205.5,0.79,0.0,
189,,size_choice_confirmation,,html-keyboard-response,189,357188,0.0-1.0-252.0-0.0,0,0,98,,,,,,62.0,,1.0,,,,,,,,,,,,,,,,,,,,,,,,,,206.29,0.71,,
190,,iti,,html-keyboard-response,190,357690,0.0-1.0-253.0,0,0,98,,,,,,62.0,,1.0,,,,,,,,,,,,,,,,,,,,,,,,,,207.0,0.5,,
191,,size_choice,,html-keyboard-response,191,358607,0.0-1.0-255.0,0,0,98,,916.0,,,50.0,63.0,63.0,1.0,5500.0,M-XL,1.0,XL,M,4.0,2.0,tractor,coffeemaker,tractor2,coffeemaker7,181.0,66.0,/static/Size_judgement/Stimuli/Size_stims/XL/tractor/tractor7.jpg,/static/Size_judgement/Stimuli/Size_stims/M/coffeemaker/coffeemaker9.jpg,1.0,tractor,coffeemaker,XL,M,4.0,2.0,tractor2,coffeemaker7,1.0,207.5,0.916,0.0,
192,,size_choice_confirmation,,html-keyboard-response,192,359194,0.0-1.0-256.0-0.0,0,0,98,,,,,,63.0,,1.0,,,,,,,,,,,,,,,,,,,,,,,,,,208.416,0.584,,
193,,iti,,html-keyboard-response,193,364698,0.0-1.0-257.0,0,0,98,,,,,,63.0,,1.0,,,,,,,,,,,,,,,,,,,,,,,,,,209.0,5.5,,
194,,size_choice,,html-keyboard-response,194,365637,0.0-1.0-259.0,0,0,98,,938.0,,,50.0,64.0,64.0,1.0,1500.0,L-L,,L,L,3.0,3.0,dishwasher,garbagecan,dishwasher5,garbagecan1,24.0,30.0,/static/Size_judgement/Stimuli/Size_stims/L/dishwasher/dishwasher4.jpg,/static/Size_judgement/Stimuli/Size_stims/L/garbagecan/garbagecan4.jpg,1.0,dishwasher,garbagecan,L,L,3.0,3.0,dishwasher5,garbagecan1,,214.5,0.938,0.0,
195,,size_choice_confirmation,,html-keyboard-response,195,366202,0.0-1.0-260.0-0.0,0,0,98,,,,,,64.0,,1.0,,,,,,,,,,,,,,,,,,,,,,,,,,215.438,0.562,,
196,,iti,,html-keyboard-response,196,367706,0.0-1.0-261.0,0,0,98,,,,,,64.0,,1.0,,,,,,,,,,,,,,,,,,,,,,,,,,216.0,1.5,,
197,,size_choice,,html-keyboard-response,197,368461,0.0-1.0-263.0,0,0,98,,754.0,,,51.0,65.0,65.0,1.0,1500.0,S-XL,0.0,S,XL,1.0,4.0,thread,car,thread5,car1,144.0,150.0,/static/Size_judgement/Stimuli/Size_stims/S/thread/thread1.jpg,/static/Size_judgement/Stimuli/Size_stims/XL/car/car2.jpg,0.0,car,thread,XL,S,4.0,1.0,car1,thread5,1.0,217.5,0.754,0.0,
198,,size_choice_confirmation,,html-keyboard-response,198,369210,0.0-1.0-264.0-0.0,0,0,98,,,,,,65.0,,1.0,,,,,,,,,,,,,,,,,,,,,,,,,,218.254,0.746,,
199,,iti,,html-keyboard-response,199,370714,0.0-1.0-265.0,0,0,98,,,,,,65.0,,1.0,,,,,,,,,,,,,,,,,,,,,,,,,,219.0,1.5,,
200,,size_choice,,html-keyboard-response,200,372110,0.0-1.0-267.0,0,0,98,,1395.0,,,50.0,66.0,66.0,1.0,6000.0,M-L,1.0,L,M,3.0,2.0,garbagecan,basketball,garbagecan5,basketball1,34.0,50.0,/static/Size_judgement/Stimuli/Size_stims/L/garbagecan/garbagecan3.jpg,/static/Size_judgement/Stimuli/Size_stims/M/basketball/basketball9.jpg,1.0,garbagecan,basketball,L,M,3.0,2.0,garbagecan5,basketball1,1.0,220.5,1.395,0.0,
201,,size_choice_confirmation,,html-keyboard-response,201,372216,0.0-1.0-268.0-0.0,0,0,98,,,,,,66.0,,1.0,,,,,,,,,,,,,,,,,,,,,,,,,,221.895,0.105,,
202,,iti,,html-keyboard-response,202,378218,0.0-1.0-269.0,0,0,98,,,,,,66.0,,1.0,,,,,,,,,,,,,,,,,,,,,,,,,,222.0,6.0,,
203,,size_choice,,html-keyboard-response,203,379419,0.0-1.0-271.0,0,0,98,,1200.0,,,50.0,67.0,67.0,1.0,6000.0,S-L,1.0,L,S,3.0,1.0,deskchair,thread,deskchair10,thread2,19.0,141.0,/static/Size_judgement/Stimuli/Size_stims/L/deskchair/deskchair2.jpg,/static/Size_judgement/Stimuli/Size_stims/S/thread/thread6.jpg,1.0,deskchair,thread,L,S,3.0,1.0,deskchair10,thread2,1.0,228.0,1.2,0.0,
204,,size_choice_confirmation,,html-keyboard-response,204,379722,0.0-1.0-272.0-0.0,0,0,98,,,,,,67.0,,1.0,,,,,,,,,,,,,,,,,,,,,,,,,,229.2,0.3,,
205,,iti,,html-keyboard-response,205,385727,0.0-1.0-273.0,0,0,98,,,,,,67.0,,1.0,,,,,,,,,,,,,,,,,,,,,,,,,,229.5,6.0,,
206,,size_choice,,html-keyboard-response,206,386907,0.0-1.0-275.0,0,0,98,,1178.0,,,50.0,68.0,68.0,1.0,1500.0,L-L,,L,L,3.0,3.0,mailbox,garbagecan,mailbox5,garbagecan8,44.0,37.0,/static/Size_judgement/Stimuli/Size_stims/L/mailbox/mailbox4.jpg,/static/Size_judgement/Stimuli/Size_stims/L/garbagecan/garbagecan13.jpg,1.0,mailbox,garbagecan,L,L,3.0,3.0,mailbox5,garbagecan8,,235.5,1.178,0.0,
207,,size_choice_confirmation,,html-keyboard-response,207,387231,0.0-1.0-276.0-0.0,0,0,98,,,,,,68.0,,1.0,,,,,,,,,,,,,,,,,,,,,,,,,,236.678,0.322,,
208,,iti,,html-keyboard-response,208,388735,0.0-1.0-277.0,0,0,98,,,,,,68.0,,1.0,,,,,,,,,,,,,,,,,,,,,,,,,,237.0,1.5,,
209,,size_choice,,html-keyboard-response,209,389784,0.0-1.0-279.0,0,0,98,,1047.0,,,50.0,69.0,69.0,1.0,1500.0,XL-XL,,XL,XL,4.0,4.0,dumptruck,car,dumptruck2,car6,171.0,155.0,/static/Size_judgement/Stimuli/Size_stims/XL/dumptruck/dumptruck8.jpg,/static/Size_judgement/Stimuli/Size_stims/XL/car/car12.jpg,1.0,dumptruck,car,XL,XL,4.0,4.0,dumptruck2,car6,,238.5,1.047,0.0,
210,,size_choice_confirmation,,html-keyboard-response,210,390239,0.0-1.0-280.0-0.0,0,0,98,,,,,,69.0,,1.0,,,,,,,,,,,,,,,,,,,,,,,,,,239.547,0.453,,
211,,iti,,html-keyboard-response,211,391741,0.0-1.0-281.0,0,0,98,,,,,,69.0,,1.0,,,,,,,,,,,,,,,,,,,,,,,,,,240.0,1.5,,
212,,size_choice,,html-keyboard-response,212,392977,0.0-1.0-283.0,0,0,98,,1235.0,,,50.0,70.0,70.0,1.0,1000.0,M-L,1.0,L,M,3.0,2.0,mailbox,coffeemaker,mailbox10,coffeemaker10,49.0,69.0,/static/Size_judgement/Stimuli/Size_stims/L/mailbox/mailbox8.jpg,/static/Size_judgement/Stimuli/Size_stims/M/coffeemaker/coffeemaker18.jpg,1.0,mailbox,coffeemaker,L,M,3.0,2.0,mailbox10,coffeemaker10,1.0,241.5,1.235,0.0,
213,,size_choice_confirmation,,html-keyboard-response,213,393245,0.0-1.0-284.0-0.0,0,0,98,,,,,,70.0,,1.0,,,,,,,,,,,,,,,,,,,,,,,,,,242.735,0.265,,
214,,iti,,html-keyboard-response,214,394248,0.0-1.0-285.0,0,0,98,,,,,,70.0,,1.0,,,,,,,,,,,,,,,,,,,,,,,,,,243.0,1.0,,
215,,size_choice,,html-keyboard-response,215,395130,0.0-1.0-287.0,0,0,98,,881.0,,,50.0,71.0,71.0,1.0,1500.0,S-M,1.0,M,S,2.0,1.0,basketball,screws,basketball6,screws9,55.0,128.0,/static/Size_judgement/Stimuli/Size_stims/M/basketball/basketball2.jpg,/static/Size_judgement/Stimuli/Size_stims/S/screws/screws8.jpg,1.0,basketball,screws,M,S,2.0,1.0,basketball6,screws9,1.0,244.0,0.881,0.0,
216,,size_choice_confirmation,,html-keyboard-response,216,395750,0.0-1.0-288.0-0.0,0,0,98,,,,,,71.0,,1.0,,,,,,,,,,,,,,,,,,,,,,,,,,244.881,0.619,,
217,,iti,,html-keyboard-response,217,397252,0.0-1.0-289.0,0,0,98,,,,,,71.0,,1.0,,,,,,,,,,,,,,,,,,,,,,,,,,245.5,1.5,,
218,,size_choice,,html-keyboard-response,218,398206,0.0-1.0-291.0,0,0,98,,953.0,,,50.0,72.0,72.0,1.0,2000.0,S-L,1.0,L,S,3.0,1.0,dishwasher,paperclip,dishwasher10,paperclip9,29.0,118.0,/static/Size_judgement/Stimuli/Size_stims/L/dishwasher/dishwasher1.jpg,/static/Size_judgement/Stimuli/Size_stims/S/paperclip/paperclip4.jpg,1.0,dishwasher,paperclip,L,S,3.0,1.0,dishwasher10,paperclip9,1.0,247.0,0.953,0.0,
219,,size_choice_confirmation,,html-keyboard-response,219,398756,0.0-1.0-292.0-0.0,0,0,98,,,,,,72.0,,1.0,,,,,,,,,,,,,,,,,,,,,,,,,,247.953,0.547,,
220,,iti,,html-keyboard-response,220,400760,0.0-1.0-293.0,0,0,98,,,,,,72.0,,1.0,,,,,,,,,,,,,,,,,,,,,,,,,,248.5,2.0,,
221,,size_choice,,html-keyboard-response,221,401697,0.0-1.0-295.0,0,0,98,,936.0,,,51.0,73.0,73.0,1.0,2000.0,S-L,0.0,S,L,1.0,3.0,paperclip,mailbox,paperclip2,mailbox7,111.0,46.0,/static/Size_judgement/Stimuli/Size_stims/S/paperclip/paperclip8.jpg,/static/Size_judgement/Stimuli/Size_stims/L/mailbox/mailbox7.jpg,0.0,mailbox,paperclip,L,S,3.0,1.0,mailbox7,paperclip2,1.0,250.5,0.936,0.0,
222,,size_choice_confirmation,,html-keyboard-response,222,402266,0.0-1.0-296.0-0.0,0,0,98,,,,,,73.0,,1.0,,,,,,,,,,,,,,,,,,,,,,,,,,251.436,0.564,,
223,,iti,,html-keyboard-response,223,404272,0.0-1.0-297.0,0,0,98,,,,,,73.0,,1.0,,,,,,,,,,,,,,,,,,,,,,,,,,252.0,2.0,,
224,,size_choice,,html-keyboard-response,224,405214,0.0-1.0-299.0,0,0,98,,941.0,,,51.0,74.0,74.0,1.0,1000.0,S-XL,0.0,S,XL,1.0,4.0,thread,dumptruck,thread8,dumptruck10,147.0,179.0,/static/Size_judgement/Stimuli/Size_stims/S/thread/thread10.jpg,/static/Size_judgement/Stimuli/Size_stims/XL/dumptruck/dumptruck4.jpg,0.0,dumptruck,thread,XL,S,4.0,1.0,dumptruck10,thread8,1.0,254.0,0.941,0.0,
225,,size_choice_confirmation,,html-keyboard-response,225,405776,0.0-1.0-300.0-0.0,0,0,98,,,,,,74.0,,1.0,,,,,,,,,,,,,,,,,,,,,,,,,,254.941,0.559,,
226,,iti,,html-keyboard-response,226,406778,0.0-1.0-301.0,0,0,98,,,,,,74.0,,1.0,,,,,,,,,,,,,,,,,,,,,,,,,,255.5,1.0,,
227,,size_choice,,html-keyboard-response,227,407613,0.0-1.0-303.0,0,0,98,,834.0,,,50.0,75.0,75.0,1.0,2500.0,M-L,1.0,L,M,3.0,2.0,dishwasher,ketchup,dishwasher1,ketchup4,20.0,93.0,/static/Size_judgement/Stimuli/Size_stims/L/dishwasher/dishwasher10.jpg,/static/Size_judgement/Stimuli/Size_stims/M/ketchup/ketchup2.jpg,1.0,dishwasher,ketchup,L,M,3.0,2.0,dishwasher1,ketchup4,1.0,256.5,0.834,0.0,
228,,size_choice_confirmation,,html-keyboard-response,228,408282,0.0-1.0-304.0-0.0,0,0,98,,,,,,75.0,,1.0,,,,,,,,,,,,,,,,,,,,,,,,,,257.334,0.666,,
229,,iti,,html-keyboard-response,229,410788,0.0-1.0-305.0,0,0,98,,,,,,75.0,,1.0,,,,,,,,,,,,,,,,,,,,,,,,,,258.0,2.5,,
230,,size_choice,,html-keyboard-response,230,411544,0.0-1.0-307.0,0,0,98,,754.0,,,50.0,76.0,76.0,1.0,1000.0,S-XL,1.0,XL,S,4.0,1.0,crane,die,crane7,die4,166.0,103.0,/static/Size_judgement/Stimuli/Size_stims/XL/crane/crane3.jpg,/static/Size_judgement/Stimuli/Size_stims/S/die/die2.jpg,1.0,crane,die,XL,S,4.0,1.0,crane7,die4,1.0,260.5,0.754,0.0,
231,,size_choice_confirmation,,html-keyboard-response,231,412293,0.0-1.0-308.0-0.0,0,0,98,,,,,,76.0,,1.0,,,,,,,,,,,,,,,,,,,,,,,,,,261.254,0.746,,
232,,iti,,html-keyboard-response,232,413296,0.0-1.0-309.0,0,0,98,,,,,,76.0,,1.0,,,,,,,,,,,,,,,,,,,,,,,,,,262.0,1.0,,
233,,size_choice,,html-keyboard-response,233,414031,0.0-1.0-311.0,0,0,98,,733.0,,,50.0,77.0,77.0,1.0,500.0,S-XL,1.0,XL,S,4.0,1.0,van,screws,van1,screws6,190.0,125.0,/static/Size_judgement/Stimuli/Size_stims/XL/van/van5.jpg,/static/Size_judgement/Stimuli/Size_stims/S/screws/screws3.jpg,1.0,van,screws,XL,S,4.0,1.0,van1,screws6,1.0,263.0,0.733,0.0,
234,,size_choice_confirmation,,html-keyboard-response,234,414800,0.0-1.0-312.0-0.0,0,0,98,,,,,,77.0,,1.0,,,,,,,,,,,,,,,,,,,,,,,,,,263.733,0.767,,
235,,iti,,html-keyboard-response,235,415301,0.0-1.0-313.0,0,0,98,,,,,,77.0,,1.0,,,,,,,,,,,,,,,,,,,,,,,,,,264.5,0.5,,
236,,size_choice,,html-keyboard-response,236,416047,0.0-1.0-315.0,0,0,98,,745.0,,,50.0,78.0,78.0,1.0,1000.0,S-XL,1.0,XL,S,4.0,1.0,tractor,die,tractor7,die2,186.0,101.0,/static/Size_judgement/Stimuli/Size_stims/XL/tractor/tractor2.jpg,/static/Size_judgement/Stimuli/Size_stims/S/die/die9.jpg,1.0,tractor,die,XL,S,4.0,1.0,tractor7,die2,1.0,265.0,0.745,0.0,
237,,size_choice_confirmation,,html-keyboard-response,237,416805,0.0-1.0-316.0-0.0,0,0,98,,,,,,78.0,,1.0,,,,,,,,,,,,,,,,,,,,,,,,,,265.745,0.755,,
238,,iti,,html-keyboard-response,238,417808,0.0-1.0-317.0,0,0,98,,,,,,78.0,,1.0,,,,,,,,,,,,,,,,,,,,,,,,,,266.5,1.0,,
239,,size_choice,,html-keyboard-response,239,418470,0.0-1.0-319.0,0,0,98,,662.0,,,50.0,79.0,79.0,1.0,4500.0,XL-XL,,XL,XL,4.0,4.0,van,tractor,van6,tractor9,195.0,188.0,/static/Size_judgement/Stimuli/Size_stims/XL/van/van2.jpg,/static/Size_judgement/Stimuli/Size_stims/XL/tractor/tractor9.jpg,1.0,van,tractor,XL,XL,4.0,4.0,van6,tractor9,,267.5,0.662,0.0,
240,,size_choice_confirmation,,html-keyboard-response,240,419312,0.0-1.0-320.0-0.0,0,0,98,,,,,,79.0,,1.0,,,,,,,,,,,,,,,,,,,,,,,,,,268.162,0.838,,
241,,iti,,html-keyboard-response,241,423813,0.0-1.0-321.0,0,0,98,,,,,,79.0,,1.0,,,,,,,,,,,,,,,,,,,,,,,,,,269.0,4.5,,
242,,size_choice,,html-keyboard-response,242,424638,0.0-1.0-323.0,0,0,98,,822.0,,,51.0,80.0,80.0,1.0,2000.0,M-L,0.0,M,L,2.0,3.0,ketchup,deskchair,ketchup3,deskchair7,92.0,16.0,/static/Size_judgement/Stimuli/Size_stims/M/ketchup/ketchup10.jpg,/static/Size_judgement/Stimuli/Size_stims/L/deskchair/deskchair4.jpg,0.0,deskchair,ketchup,L,M,3.0,2.0,deskchair7,ketchup3,1.0,273.5,0.822,0.0,
243,,size_choice_confirmation,,html-keyboard-response,243,425317,0.0-1.0-324.0-0.0,0,0,98,,,,,,80.0,,1.0,,,,,,,,,,,,,,,,,,,,,,,,,,274.322,0.678,,
244,,iti,,html-keyboard-response,244,427323,0.0-1.0-325.0,0,0,98,,,,,,80.0,,1.0,,,,,,,,,,,,,,,,,,,,,,,,,,275.0,2.0,,
245,,size_choice,,html-keyboard-response,245,428400,0.0-1.0-327.0,0,0,98,,1076.0,,,50.0,81.0,81.0,1.0,1500.0,M-L,1.0,L,M,3.0,2.0,garbagecan,basketball,garbagecan4,basketball4,33.0,53.0,/static/Size_judgement/Stimuli/Size_stims/L/garbagecan/garbagecan6.jpg,/static/Size_judgement/Stimuli/Size_stims/M/basketball/basketball1.jpg,1.0,garbagecan,basketball,L,M,3.0,2.0,garbagecan4,basketball4,1.0,277.0,1.076,0.0,
246,,size_choice_confirmation,,html-keyboard-response,246,428827,0.0-1.0-328.0-0.0,0,0,98,,,,,,81.0,,1.0,,,,,,,,,,,,,,,,,,,,,,,,,,278.076,0.424,,
247,,iti,,html-keyboard-response,247,430331,0.0-1.0-329.0,0,0,98,,,,,,81.0,,1.0,,,,,,,,,,,,,,,,,,,,,,,,,,278.5,1.5,,
248,,size_choice,,html-keyboard-response,248,431706,0.0-1.0-331.0,0,0,98,,1373.0,,,50.0,82.0,82.0,1.0,500.0,XL-XL,,XL,XL,4.0,4.0,van,tractor,van9,tractor1,198.0,180.0,/static/Size_judgement/Stimuli/Size_stims/XL/van/van9.jpg,/static/Size_judgement/Stimuli/Size_stims/XL/tractor/tractor6.jpg,1.0,van,tractor,XL,XL,4.0,4.0,van9,tractor1,,280.0,1.373,0.0,
249,,size_choice_confirmation,,html-keyboard-response,249,431835,0.0-1.0-332.0-0.0,0,0,98,,,,,,82.0,,1.0,,,,,,,,,,,,,,,,,,,,,,,,,,281.373,0.127,,
250,,iti,,html-keyboard-response,250,432336,0.0-1.0-333.0,0,0,98,,,,,,82.0,,1.0,,,,,,,,,,,,,,,,,,,,,,,,,,281.5,0.5,,
251,,size_choice,,html-keyboard-response,251,433232,0.0-1.0-335.0,0,0,98,,895.0,,,51.0,83.0,83.0,1.0,1500.0,S-M,0.0,S,M,1.0,2.0,teabag,coffeemaker,teabag2,coffeemaker3,131.0,62.0,/static/Size_judgement/Stimuli/Size_stims/S/teabag/teabag8.jpg,/static/Size_judgement/Stimuli/Size_stims/M/coffeemaker/coffeemaker13.jpg,0.0,coffeemaker,teabag,M,S,2.0,1.0,coffeemaker3,teabag2,1.0,282.0,0.895,0.0,
252,,size_choice_confirmation,,html-keyboard-response,252,433840,0.0-1.0-336.0-0.0,0,0,98,,,,,,83.0,,1.0,,,,,,,,,,,,,,,,,,,,,,,,,,282.895,0.605,,
253,,iti,,html-keyboard-response,253,435344,0.0-1.0-337.0,0,0,98,,,,,,83.0,,1.0,,,,,,,,,,,,,,,,,,,,,,,,,,283.5,1.5,,
254,,size_choice,,html-keyboard-response,254,436509,0.0-1.0-339.0,0,0,98,,1164.0,,,50.0,84.0,84.0,1.0,500.0,XL-XL,,XL,XL,4.0,4.0,van,crane,van2,crane8,191.0,167.0,/static/Size_judgement/Stimuli/Size_stims/XL/van/van4.jpg,/static/Size_judgement/Stimuli/Size_stims/XL/crane/crane10.jpg,1.0,van,crane,XL,XL,4.0,4.0,van2,crane8,,285.0,1.164,0.0,
255,,size_choice_confirmation,,html-keyboard-response,255,436848,0.0-1.0-340.0-0.0,0,0,98,,,,,,84.0,,1.0,,,,,,,,,,,,,,,,,,,,,,,,,,286.164,0.336,,
256,,iti,,html-keyboard-response,256,437349,0.0-1.0-341.0,0,0,98,,,,,,84.0,,1.0,,,,,,,,,,,,,,,,,,,,,,,,,,286.5,0.5,,
257,,size_choice,,html-keyboard-response,257,438477,0.0-1.0-343.0,0,0,98,,1125.0,,,51.0,85.0,85.0,1.0,2500.0,M-XL,0.0,M,XL,2.0,4.0,basketball,crane,basketball10,crane9,59.0,168.0,/static/Size_judgement/Stimuli/Size_stims/M/basketball/basketball4.jpg,/static/Size_judgement/Stimuli/Size_stims/XL/crane/crane8.jpg,0.0,crane,basketball,XL,M,4.0,2.0,crane9,basketball10,1.0,287.0,1.125,0.0,
258,,size_choice_confirmation,,html-keyboard-response,258,438853,0.0-1.0-344.0-0.0,0,0,98,,,,,,85.0,,1.0,,,,,,,,,,,,,,,,,,,,,,,,,,288.125,0.375,,
259,,iti,,html-keyboard-response,259,441357,0.0-1.0-345.0,0,0,98,,,,,,85.0,,1.0,,,,,,,,,,,,,,,,,,,,,,,,,,288.5,2.5,,
260,,size_choice,,html-keyboard-response,260,442109,0.0-1.0-347.0,0,0,98,,751.0,,,51.0,86.0,86.0,1.0,500.0,S-XL,0.0,S,XL,1.0,4.0,die,dumptruck,die5,dumptruck9,104.0,178.0,/static/Size_judgement/Stimuli/Size_stims/S/die/die3.jpg,/static/Size_judgement/Stimuli/Size_stims/XL/dumptruck/dumptruck5.jpg,0.0,dumptruck,die,XL,S,4.0,1.0,dumptruck9,die5,1.0,291.0,0.751,0.0,
261,,size_choice_confirmation,,html-keyboard-response,261,442859,0.0-1.0-348.0-0.0,0,0,98,,,,,,86.0,,1.0,,,,,,,,,,,,,,,,,,,,,,,,,,291.751,0.749,,
262,,iti,,html-keyboard-response,262,443360,0.0-1.0-349.0,0,0,98,,,,,,86.0,,1.0,,,,,,,,,,,,,,,,,,,,,,,,,,292.5,0.5,,
263,,size_choice,,html-keyboard-response,263,443997,0.0-1.0-351.0,0,0,98,,636.0,,,51.0,87.0,87.0,1.0,500.0,S-XL,0.0,S,XL,1.0,4.0,teabag,car,teabag4,car9,133.0,158.0,/static/Size_judgement/Stimuli/Size_stims/S/teabag/teabag3.jpg,/static/Size_judgement/Stimuli/Size_stims/XL/car/car15.jpg,0.0,car,teabag,XL,S,4.0,1.0,car9,teabag4,1.0,293.0,0.636,0.0,
264,,size_choice_confirmation,,html-keyboard-response,264,444864,0.0-1.0-352.0-0.0,0,0,98,,,,,,87.0,,1.0,,,,,,,,,,,,,,,,,,,,,,,,,,293.636,0.864,,
265,,iti,,html-keyboard-response,265,445365,0.0-1.0-353.0,0,0,98,,,,,,87.0,,1.0,,,,,,,,,,,,,,,,,,,,,,,,,,294.5,0.5,,
266,,size_choice,,html-keyboard-response,266,446091,0.0-1.0-355.0,0,0,98,,724.0,,,50.0,88.0,88.0,1.0,2000.0,M-XL,1.0,XL,M,4.0,2.0,car,ketchup,car8,ketchup5,157.0,94.0,/static/Size_judgement/Stimuli/Size_stims/XL/car/car14.jpg,/static/Size_judgement/Stimuli/Size_stims/M/ketchup/ketchup3.jpg,1.0,car,ketchup,XL,M,4.0,2.0,car8,ketchup5,1.0,295.0,0.724,0.0,
267,,size_choice_confirmation,,html-keyboard-response,267,446871,0.0-1.0-356.0-0.0,0,0,98,,,,,,88.0,,1.0,,,,,,,,,,,,,,,,,,,,,,,,,,295.724,0.776,,
268,,iti,,html-keyboard-response,268,448874,0.0-1.0-357.0,0,0,98,,,,,,88.0,,1.0,,,,,,,,,,,,,,,,,,,,,,,,,,296.5,2.0,,
269,,size_choice,,html-keyboard-response,269,449801,0.0-1.0-359.0,0,0,98,,926.0,,,50.0,89.0,89.0,1.0,1000.0,M-L,1.0,L,M,3.0,2.0,cooler,handsaw,cooler10,handsaw7,9.0,86.0,/static/Size_judgement/Stimuli/Size_stims/L/cooler/cooler6.jpg,/static/Size_judgement/Stimuli/Size_stims/M/handsaw/handsaw5.jpg,1.0,cooler,handsaw,L,M,3.0,2.0,cooler10,handsaw7,1.0,298.5,0.926,0.0,
270,,size_choice_confirmation,,html-keyboard-response,270,450378,0.0-1.0-360.0-0.0,0,0,98,,,,,,89.0,,1.0,,,,,,,,,,,,,,,,,,,,,,,,,,299.426,0.574,,
271,,iti,,html-keyboard-response,271,451381,0.0-1.0-361.0,0,0,98,,,,,,89.0,,1.0,,,,,,,,,,,,,,,,,,,,,,,,,,300.0,1.0,,1.91
272,,size_final_tally,,html-keyboard-response,272,456183,0.0-2.0,0,0,98,,4800.0,,,50.0,,,,,,,,,,,,,,,,,,,,,,,,,,,,,,,,
