,success,ttype,start_time,trial_type,trial_index,time_elapsed,internal_node_id,warning,missed_checkup,PID,view_history,rt,responses,repeat_instructions,key_press,index,trial_num,block,iti,pair_type,high_size_on_left,left_size_group,right_size_group,left_size_num,right_size_num,left_category,right_category,left_exemplar,right_exemplar,left_index,right_index,left_img_path,right_img_path,left_chosen,chosen_category,unchosen_category,chosen_size_group,unchosen_size_group,chosen_size_num,unchosen_size_num,chosen_exemplar,unchosen_exemplar,accuracy,onset,duration,no_response,size_final_tally
0,True,full_screen,d06022022hr0103,fullscreen,0,14922,0.0-0.0,0,0,30311,,,,,,,,,,,,,,,,,,,,,,,,,,,,,,,,,,,,,
1,,size_instructions,,instructions,1,19007,0.0-1.0-0.0-0.0,0,0,30311,"[{""page_index"":0,""viewing_time"":1877},{""page_index"":1,""viewing_time"":657},{""page_index"":2,""viewing_time"":411},{""page_index"":3,""viewing_time"":433},{""page_index"":4,""viewing_time"":385},{""page_index"":5,""viewing_time"":320}]",4084.0,,,,,,,,,,,,,,,,,,,,,,,,,,,,,,,,,,,
2,,size_comprehension_check,,survey-multi-choice,2,24767,0.0-1.0-0.0-1.0,0,0,30311,,5758.0,"{""Q0"":""True"",""Q1"":""Size in the real world"",""Q2"":""True"",""Q3"":""D for left and K for right""}",0.0,,,,,,,,,,,,,,,,,,,,,,,,,,,,,,,,,
3,,,,html-keyboard-response,3,25782,0.0-1.0-1.0,0,0,30311,,1012.0,,,68.0,,,,,,,,,,,,,,,,,,,,,,,,,,,,,,,,
4,,size_choice,,html-keyboard-response,4,26210,0.0-1.0-2.0,0,0,30311,,425.0,,,75.0,0.0,0.0,1.0,1500.0,S-M,0.0,S,M,1.0,2.0,die,basketball,die2,basketball9,101.0,58.0,/static/Size_judgement/Stimuli/Size_stims/S/die/die9.jpg,/static/Size_judgement/Stimuli/Size_stims/M/basketball/basketball5.jpg,0.0,basketball,die,M,S,2.0,1.0,basketball9,die2,1.0,0.425,0.425,0.0,
5,,size_choice_confirmation,,html-keyboard-response,5,27288,0.0-1.0-3.0-0.0,0,0,30311,,,,,,0.0,,,,,,,,,,,,,,,,,,,,,,,,,,,,1.5,1.075,,
6,,iti,,html-keyboard-response,6,27389,0.0-1.0-4.0,0,0,30311,,,,,,,,,,,,,,,,,,,,,,,,,,,,,,,,,,3.0,1.5,,
7,,size_choice,,html-keyboard-response,7,27689,0.0-1.0-6.0,0,0,30311,,297.0,,,68.0,1.0,1.0,1.0,1500.0,S-L,1.0,L,S,3.0,1.0,cooler,die,cooler7,die7,6.0,106.0,/static/Size_judgement/Stimuli/Size_stims/L/cooler/cooler4.jpg,/static/Size_judgement/Stimuli/Size_stims/S/die/die4.jpg,1.0,cooler,die,L,S,3.0,1.0,cooler7,die7,1.0,3.297,0.297,0.0,
8,,size_choice_confirmation,,html-keyboard-response,8,28895,0.0-1.0-7.0-0.0,0,0,30311,,,,,,1.0,,,,,,,,,,,,,,,,,,,,,,,,,,,,4.5,1.203,,
9,,iti,,html-keyboard-response,9,29000,0.0-1.0-8.0,0,0,30311,,,,,,,,,,,,,,,,,,,,,,,,,,,,,,,,,,6.0,1.5,,
10,,size_choice,,html-keyboard-response,10,29203,0.0-1.0-10.0,0,0,30311,,201.0,,,75.0,2.0,2.0,1.0,3000.0,M-XL,1.0,XL,M,4.0,2.0,car,hairdryer,car3,hairdryer4,152.0,73.0,/static/Size_judgement/Stimuli/Size_stims/XL/car/car4.jpg,/static/Size_judgement/Stimuli/Size_stims/M/hairdryer/hairdryer16.jpg,0.0,hairdryer,car,M,XL,2.0,4.0,hairdryer4,car3,0.0,6.201,0.201,0.0,
11,,size_choice_confirmation,,html-keyboard-response,11,30506,0.0-1.0-11.0-0.0,0,0,30311,,,,,,2.0,,,,,,,,,,,,,,,,,,,,,,,,,,,,7.5,1.299,,
12,,iti,,html-keyboard-response,12,30608,0.0-1.0-12.0,0,0,30311,,,,,,,,,,,,,,,,,,,,,,,,,,,,,,,,,,10.5,3.0,,
13,,size_choice,,html-keyboard-response,13,30910,0.0-1.0-14.0,0,0,30311,,300.0,,,75.0,3.0,3.0,1.0,1000.0,M-L,1.0,L,M,3.0,2.0,garbagecan,ketchup,garbagecan10,ketchup8,39.0,97.0,/static/Size_judgement/Stimuli/Size_stims/L/garbagecan/garbagecan11.jpg,/static/Size_judgement/Stimuli/Size_stims/M/ketchup/ketchup5.jpg,0.0,ketchup,garbagecan,M,L,2.0,3.0,ketchup8,garbagecan10,0.0,10.8,0.3,0.0,
14,,size_choice_confirmation,,html-keyboard-response,14,32112,0.0-1.0-15.0-0.0,0,0,30311,,,,,,3.0,,,,,,,,,,,,,,,,,,,,,,,,,,,,12.0,1.2,,
15,,iti,,html-keyboard-response,15,32213,0.0-1.0-16.0,0,0,30311,,,,,,,,,,,,,,,,,,,,,,,,,,,,,,,,,,13.0,1.0,,
16,,size_choice,,html-keyboard-response,16,32406,0.0-1.0-18.0,0,0,30311,,191.0,,,75.0,4.0,4.0,1.0,2000.0,S-S,,S,S,1.0,1.0,thread,teabag,thread6,teabag4,145.0,133.0,/static/Size_judgement/Stimuli/Size_stims/S/thread/thread2.jpg,/static/Size_judgement/Stimuli/Size_stims/S/teabag/teabag3.jpg,0.0,teabag,thread,S,S,1.0,1.0,teabag4,thread6,,13.191,0.191,0.0,
17,,size_choice_confirmation,,html-keyboard-response,17,33717,0.0-1.0-19.0-0.0,0,0,30311,,,,,,4.0,,,,,,,,,,,,,,,,,,,,,,,,,,,,14.5,1.309,,
18,,iti,,html-keyboard-response,18,33818,0.0-1.0-20.0,0,0,30311,,,,,,,,,,,,,,,,,,,,,,,,,,,,,,,,,,16.5,2.0,,
19,,size_choice,,html-keyboard-response,19,34114,0.0-1.0-22.0,0,0,30311,,294.0,,,75.0,5.0,5.0,1.0,3000.0,M-XL,1.0,XL,M,4.0,2.0,tractor,ketchup,tractor8,ketchup1,187.0,90.0,/static/Size_judgement/Stimuli/Size_stims/XL/tractor/tractor10.jpg,/static/Size_judgement/Stimuli/Size_stims/M/ketchup/ketchup8.jpg,0.0,ketchup,tractor,M,XL,2.0,4.0,ketchup1,tractor8,0.0,16.794,0.294,0.0,
20,,size_choice_confirmation,,html-keyboard-response,20,35326,0.0-1.0-23.0-0.0,0,0,30311,,,,,,5.0,,,,,,,,,,,,,,,,,,,,,,,,,,,,18.0,1.206,,
21,,iti,,html-keyboard-response,21,35427,0.0-1.0-24.0,0,0,30311,,,,,,,,,,,,,,,,,,,,,,,,,,,,,,,,,,21.0,3.0,,
22,,size_choice,,html-keyboard-response,22,35564,0.0-1.0-26.0,0,0,30311,,136.0,,,75.0,6.0,6.0,1.0,1000.0,S-S,,S,S,1.0,1.0,paperclip,teabag,paperclip3,teabag2,112.0,131.0,/static/Size_judgement/Stimuli/Size_stims/S/paperclip/paperclip1.jpg,/static/Size_judgement/Stimuli/Size_stims/S/teabag/teabag8.jpg,0.0,teabag,paperclip,S,S,1.0,1.0,teabag2,paperclip3,,21.136,0.136,0.0,
23,,size_choice_confirmation,,html-keyboard-response,23,36931,0.0-1.0-27.0-0.0,0,0,30311,,,,,,6.0,,,,,,,,,,,,,,,,,,,,,,,,,,,,22.5,1.364,,
24,,iti,,html-keyboard-response,24,37036,0.0-1.0-28.0,0,0,30311,,,,,,,,,,,,,,,,,,,,,,,,,,,,,,,,,,23.5,1.0,,
25,,size_choice,,html-keyboard-response,25,37069,0.0-1.0-30.0,0,0,30311,,31.0,,,75.0,7.0,7.0,1.0,1000.0,S-M,0.0,S,M,1.0,2.0,paperclip,hairdryer,paperclip1,hairdryer6,110.0,75.0,/static/Size_judgement/Stimuli/Size_stims/S/paperclip/paperclip9.jpg,/static/Size_judgement/Stimuli/Size_stims/M/hairdryer/hairdryer8.jpg,0.0,hairdryer,paperclip,M,S,2.0,1.0,hairdryer6,paperclip1,1.0,23.531,0.031,0.0,
26,,size_choice_confirmation,,html-keyboard-response,26,38541,0.0-1.0-31.0-0.0,0,0,30311,,,,,,7.0,,,,,,,,,,,,,,,,,,,,,,,,,,,,25.0,1.469,,
27,,iti,,html-keyboard-response,27,38645,0.0-1.0-32.0,0,0,30311,,,,,,,,,,,,,,,,,,,,,,,,,,,,,,,,,,26.0,1.0,,
28,,size_choice,,html-keyboard-response,28,38866,0.0-1.0-34.0,0,0,30311,,219.0,,,68.0,8.0,8.0,1.0,1500.0,S-L,1.0,L,S,3.0,1.0,garbagecan,die,garbagecan6,die4,35.0,103.0,/static/Size_judgement/Stimuli/Size_stims/L/garbagecan/garbagecan14.jpg,/static/Size_judgement/Stimuli/Size_stims/S/die/die2.jpg,1.0,garbagecan,die,L,S,3.0,1.0,garbagecan6,die4,1.0,26.219,0.219,0.0,
29,,size_choice_confirmation,,html-keyboard-response,29,40152,0.0-1.0-35.0-0.0,0,0,30311,,,,,,8.0,,,,,,,,,,,,,,,,,,,,,,,,,,,,27.5,1.281,,
30,,iti,,html-keyboard-response,30,40257,0.0-1.0-36.0,0,0,30311,,,,,,,,,,,,,,,,,,,,,,,,,,,,,,,,,,29.0,1.5,,
31,,size_choice,,html-keyboard-response,31,40398,0.0-1.0-38.0,0,0,30311,,140.0,,,75.0,9.0,9.0,1.0,1000.0,L-L,,L,L,3.0,3.0,garbagecan,deskchair,garbagecan8,deskchair6,37.0,15.0,/static/Size_judgement/Stimuli/Size_stims/L/garbagecan/garbagecan13.jpg,/static/Size_judgement/Stimuli/Size_stims/L/deskchair/deskchair5.jpg,0.0,deskchair,garbagecan,L,L,3.0,3.0,deskchair6,garbagecan8,,29.14,0.14,0.0,
32,,size_choice_confirmation,,html-keyboard-response,32,41763,0.0-1.0-39.0-0.0,0,0,30311,,,,,,9.0,,,,,,,,,,,,,,,,,,,,,,,,,,,,30.5,1.36,,
33,,iti,,html-keyboard-response,33,41864,0.0-1.0-40.0,0,0,30311,,,,,,,,,,,,,,,,,,,,,,,,,,,,,,,,,,31.5,1.0,,
34,,size_choice,,html-keyboard-response,34,42088,0.0-1.0-42.0,0,0,30311,,223.0,,,75.0,10.0,10.0,1.0,1000.0,S-XL,1.0,XL,S,4.0,1.0,crane,screws,crane7,screws3,166.0,122.0,/static/Size_judgement/Stimuli/Size_stims/XL/crane/crane3.jpg,/static/Size_judgement/Stimuli/Size_stims/S/screws/screws7.jpg,0.0,screws,crane,S,XL,1.0,4.0,screws3,crane7,0.0,31.723,0.223,0.0,
35,,size_choice_confirmation,,html-keyboard-response,35,43368,0.0-1.0-43.0-0.0,0,0,30311,,,,,,10.0,,,,,,,,,,,,,,,,,,,,,,,,,,,,33.0,1.277,,
36,,iti,,html-keyboard-response,36,43472,0.0-1.0-44.0,0,0,30311,,,,,,,,,,,,,,,,,,,,,,,,,,,,,,,,,,34.0,1.0,,
37,,size_choice,,html-keyboard-response,37,43734,0.0-1.0-46.0,0,0,30311,,262.0,,,75.0,11.0,11.0,1.0,2000.0,M-L,1.0,L,M,3.0,2.0,deskchair,coffeemaker,deskchair1,coffeemaker3,10.0,62.0,/static/Size_judgement/Stimuli/Size_stims/L/deskchair/deskchair9.jpg,/static/Size_judgement/Stimuli/Size_stims/M/coffeemaker/coffeemaker13.jpg,0.0,coffeemaker,deskchair,M,L,2.0,3.0,coffeemaker3,deskchair1,0.0,34.262,0.262,0.0,
38,,size_choice_confirmation,,html-keyboard-response,38,44976,0.0-1.0-47.0-0.0,0,0,30311,,,,,,11.0,,,,,,,,,,,,,,,,,,,,,,,,,,,,35.5,1.238,,
39,,iti,,html-keyboard-response,39,45080,0.0-1.0-48.0,0,0,30311,,,,,,,,,,,,,,,,,,,,,,,,,,,,,,,,,,37.5,2.0,,
40,,size_choice,,html-keyboard-response,40,45192,0.0-1.0-50.0,0,0,30311,,111.0,,,75.0,12.0,12.0,1.0,3500.0,L-L,,L,L,3.0,3.0,deskchair,garbagecan,deskchair2,garbagecan5,11.0,34.0,/static/Size_judgement/Stimuli/Size_stims/L/deskchair/deskchair8.jpg,/static/Size_judgement/Stimuli/Size_stims/L/garbagecan/garbagecan3.jpg,0.0,garbagecan,deskchair,L,L,3.0,3.0,garbagecan5,deskchair2,,37.611,0.111,0.0,
41,,size_choice_confirmation,,html-keyboard-response,41,46584,0.0-1.0-51.0-0.0,0,0,30311,,,,,,12.0,,,,,,,,,,,,,,,,,,,,,,,,,,,,39.0,1.389,,
42,,iti,,html-keyboard-response,42,46688,0.0-1.0-52.0,0,0,30311,,,,,,,,,,,,,,,,,,,,,,,,,,,,,,,,,,42.5,3.5,,
43,,size_choice,,html-keyboard-response,43,46719,0.0-1.0-54.0,0,0,30311,,30.0,,,75.0,13.0,13.0,1.0,3500.0,M-L,1.0,L,M,3.0,2.0,dishwasher,coffeemaker,dishwasher6,coffeemaker7,25.0,66.0,/static/Size_judgement/Stimuli/Size_stims/L/dishwasher/dishwasher6.jpg,/static/Size_judgement/Stimuli/Size_stims/M/coffeemaker/coffeemaker9.jpg,0.0,coffeemaker,dishwasher,M,L,2.0,3.0,coffeemaker7,dishwasher6,0.0,42.53,0.03,0.0,
44,,size_choice_confirmation,,html-keyboard-response,44,48191,0.0-1.0-55.0-0.0,0,0,30311,,,,,,13.0,,,,,,,,,,,,,,,,,,,,,,,,,,,,44.0,1.47,,
45,,iti,,html-keyboard-response,45,48296,0.0-1.0-56.0,0,0,30311,,,,,,,,,,,,,,,,,,,,,,,,,,,,,,,,,,47.5,3.5,,
46,,size_choice,,html-keyboard-response,46,48307,0.0-1.0-58.0,0,0,30311,,9.0,,,75.0,14.0,14.0,1.0,1000.0,S-L,0.0,S,L,1.0,3.0,screws,deskchair,screws5,deskchair3,124.0,12.0,/static/Size_judgement/Stimuli/Size_stims/S/screws/screws2.jpg,/static/Size_judgement/Stimuli/Size_stims/L/deskchair/deskchair10.jpg,0.0,deskchair,screws,L,S,3.0,1.0,deskchair3,screws5,1.0,47.509,0.009,0.0,
47,,size_choice_confirmation,,html-keyboard-response,47,49800,0.0-1.0-59.0-0.0,0,0,30311,,,,,,14.0,,,,,,,,,,,,,,,,,,,,,,,,,,,,49.0,1.491,,
48,,iti,,html-keyboard-response,48,49902,0.0-1.0-60.0,0,0,30311,,,,,,,,,,,,,,,,,,,,,,,,,,,,,,,,,,50.0,1.0,,
49,,size_choice,,html-keyboard-response,49,50155,0.0-1.0-62.0,0,0,30311,,251.0,,,75.0,15.0,15.0,1.0,2000.0,L-XL,1.0,XL,L,4.0,3.0,van,dishwasher,van9,dishwasher10,198.0,29.0,/static/Size_judgement/Stimuli/Size_stims/XL/van/van9.jpg,/static/Size_judgement/Stimuli/Size_stims/L/dishwasher/dishwasher1.jpg,0.0,dishwasher,van,L,XL,3.0,4.0,dishwasher10,van9,0.0,50.251,0.251,0.0,
50,,size_choice_confirmation,,html-keyboard-response,50,51410,0.0-1.0-63.0-0.0,0,0,30311,,,,,,15.0,,,,,,,,,,,,,,,,,,,,,,,,,,,,51.5,1.249,,
51,,iti,,html-keyboard-response,51,51514,0.0-1.0-64.0,0,0,30311,,,,,,,,,,,,,,,,,,,,,,,,,,,,,,,,,,53.5,2.0,,
52,,size_choice,,html-keyboard-response,52,51685,0.0-1.0-66.0,0,0,30311,,170.0,,,68.0,16.0,16.0,1.0,1500.0,S-S,,S,S,1.0,1.0,die,screws,die3,screws8,102.0,127.0,/static/Size_judgement/Stimuli/Size_stims/S/die/die10.jpg,/static/Size_judgement/Stimuli/Size_stims/S/screws/screws10.jpg,1.0,die,screws,S,S,1.0,1.0,die3,screws8,,53.67,0.17,0.0,
53,,size_choice_confirmation,,html-keyboard-response,53,53021,0.0-1.0-67.0-0.0,0,0,30311,,,,,,16.0,,,,,,,,,,,,,,,,,,,,,,,,,,,,55.0,1.33,,
54,,iti,,html-keyboard-response,54,53123,0.0-1.0-68.0,0,0,30311,,,,,,,,,,,,,,,,,,,,,,,,,,,,,,,,,,56.5,1.5,,
55,,size_choice,,html-keyboard-response,55,53175,0.0-1.0-70.0,0,0,30311,,51.0,,,68.0,17.0,17.0,1.0,1500.0,M-M,,M,M,2.0,2.0,ketchup,handsaw,ketchup2,handsaw8,91.0,87.0,/static/Size_judgement/Stimuli/Size_stims/M/ketchup/ketchup9.jpg,/static/Size_judgement/Stimuli/Size_stims/M/handsaw/handsaw7.jpg,1.0,ketchup,handsaw,M,M,2.0,2.0,ketchup2,handsaw8,,56.551,0.051,0.0,
56,,size_choice_confirmation,,html-keyboard-response,56,54629,0.0-1.0-71.0-0.0,0,0,30311,,,,,,17.0,,,,,,,,,,,,,,,,,,,,,,,,,,,,58.0,1.449,,
57,,iti,,html-keyboard-response,57,54734,0.0-1.0-72.0,0,0,30311,,,,,,,,,,,,,,,,,,,,,,,,,,,,,,,,,,59.5,1.5,,
58,,size_choice,,html-keyboard-response,58,54954,0.0-1.0-74.0,0,0,30311,,219.0,,,75.0,18.0,18.0,1.0,1000.0,M-L,1.0,L,M,3.0,2.0,cooler,basketball,cooler4,basketball6,3.0,55.0,/static/Size_judgement/Stimuli/Size_stims/L/cooler/cooler3.jpg,/static/Size_judgement/Stimuli/Size_stims/M/basketball/basketball2.jpg,0.0,basketball,cooler,M,L,2.0,3.0,basketball6,cooler4,0.0,59.719,0.219,0.0,
59,,size_choice_confirmation,,html-keyboard-response,59,56237,0.0-1.0-75.0-0.0,0,0,30311,,,,,,18.0,,,,,,,,,,,,,,,,,,,,,,,,,,,,61.0,1.281,,
60,,iti,,html-keyboard-response,60,56339,0.0-1.0-76.0,0,0,30311,,,,,,,,,,,,,,,,,,,,,,,,,,,,,,,,,,62.0,1.0,,
61,,size_choice,,html-keyboard-response,61,56677,0.0-1.0-78.0,0,0,30311,,336.0,,,68.0,19.0,19.0,1.0,1500.0,S-XL,1.0,XL,S,4.0,1.0,tractor,teabag,tractor6,teabag10,185.0,139.0,/static/Size_judgement/Stimuli/Size_stims/XL/tractor/tractor3.jpg,/static/Size_judgement/Stimuli/Size_stims/S/teabag/teabag4.jpg,1.0,tractor,teabag,XL,S,4.0,1.0,tractor6,teabag10,1.0,62.336,0.336,0.0,
62,,size_choice_confirmation,,html-keyboard-response,62,57843,0.0-1.0-79.0-0.0,0,0,30311,,,,,,19.0,,,,,,,,,,,,,,,,,,,,,,,,,,,,63.5,1.164,,
63,,iti,,html-keyboard-response,63,57944,0.0-1.0-80.0,0,0,30311,,,,,,,,,,,,,,,,,,,,,,,,,,,,,,,,,,65.0,1.5,,
64,,size_choice,,html-keyboard-response,64,58266,0.0-1.0-82.0,0,0,30311,,321.0,,,68.0,20.0,20.0,1.0,2000.0,M-XL,0.0,M,XL,2.0,4.0,handsaw,tractor,handsaw1,tractor2,80.0,181.0,/static/Size_judgement/Stimuli/Size_stims/M/handsaw/handsaw8.jpg,/static/Size_judgement/Stimuli/Size_stims/XL/tractor/tractor7.jpg,1.0,handsaw,tractor,M,XL,2.0,4.0,handsaw1,tractor2,0.0,65.321,0.321,0.0,
65,,size_choice_confirmation,,html-keyboard-response,65,59451,0.0-1.0-83.0-0.0,0,0,30311,,,,,,20.0,,,,,,,,,,,,,,,,,,,,,,,,,,,,66.5,1.179,,
66,,iti,,html-keyboard-response,66,59552,0.0-1.0-84.0,0,0,30311,,,,,,,,,,,,,,,,,,,,,,,,,,,,,,,,,,68.5,2.0,,
67,,size_choice,,html-keyboard-response,67,59881,0.0-1.0-86.0,0,0,30311,,328.0,,,68.0,21.0,21.0,1.0,1000.0,L-L,,L,L,3.0,3.0,mailbox,garbagecan,mailbox2,garbagecan7,41.0,36.0,/static/Size_judgement/Stimuli/Size_stims/L/mailbox/mailbox2.jpg,/static/Size_judgement/Stimuli/Size_stims/L/garbagecan/garbagecan16.jpg,1.0,mailbox,garbagecan,L,L,3.0,3.0,mailbox2,garbagecan7,,68.828,0.328,0.0,
68,,size_choice_confirmation,,html-keyboard-response,68,61059,0.0-1.0-87.0-0.0,0,0,30311,,,,,,21.0,,,,,,,,,,,,,,,,,,,,,,,,,,,,70.0,1.172,,
69,,iti,,html-keyboard-response,69,61164,0.0-1.0-88.0,0,0,30311,,,,,,,,,,,,,,,,,,,,,,,,,,,,,,,,,,71.0,1.0,,
70,,size_choice,,html-keyboard-response,70,61505,0.0-1.0-90.0,0,0,30311,,339.0,,,68.0,22.0,22.0,1.0,2000.0,M-M,,M,M,2.0,2.0,ketchup,hairdryer,ketchup5,hairdryer5,94.0,74.0,/static/Size_judgement/Stimuli/Size_stims/M/ketchup/ketchup3.jpg,/static/Size_judgement/Stimuli/Size_stims/M/hairdryer/hairdryer15.jpg,1.0,ketchup,hairdryer,M,M,2.0,2.0,ketchup5,hairdryer5,,71.339,0.339,0.0,
71,,size_choice_confirmation,,html-keyboard-response,71,62669,0.0-1.0-91.0-0.0,0,0,30311,,,,,,22.0,,,,,,,,,,,,,,,,,,,,,,,,,,,,72.5,1.161,,
72,,iti,,html-keyboard-response,72,62773,0.0-1.0-92.0,0,0,30311,,,,,,,,,,,,,,,,,,,,,,,,,,,,,,,,,,74.5,2.0,,
73,,size_choice,,html-keyboard-response,73,63144,0.0-1.0-94.0,0,0,30311,,370.0,,,75.0,23.0,23.0,1.0,1000.0,M-XL,1.0,XL,M,4.0,2.0,crane,basketball,crane6,basketball5,165.0,54.0,/static/Size_judgement/Stimuli/Size_stims/XL/crane/crane2.jpg,/static/Size_judgement/Stimuli/Size_stims/M/basketball/basketball3.jpg,0.0,basketball,crane,M,XL,2.0,4.0,basketball5,crane6,0.0,74.87,0.37,0.0,
74,,size_choice_confirmation,,html-keyboard-response,74,64277,0.0-1.0-95.0-0.0,0,0,30311,,,,,,23.0,,,,,,,,,,,,,,,,,,,,,,,,,,,,76.0,1.13,,
75,,iti,,html-keyboard-response,75,64378,0.0-1.0-96.0,0,0,30311,,,,,,,,,,,,,,,,,,,,,,,,,,,,,,,,,,77.0,1.0,,
76,,size_choice,,html-keyboard-response,76,64412,0.0-1.0-98.0,0,0,30311,,33.0,,,75.0,24.0,24.0,1.0,2000.0,M-XL,0.0,M,XL,2.0,4.0,coffeemaker,tractor,coffeemaker5,tractor9,64.0,188.0,/static/Size_judgement/Stimuli/Size_stims/M/coffeemaker/coffeemaker10.jpg,/static/Size_judgement/Stimuli/Size_stims/XL/tractor/tractor9.jpg,0.0,tractor,coffeemaker,XL,M,4.0,2.0,tractor9,coffeemaker5,1.0,77.033,0.033,0.0,
77,,size_choice_confirmation,,html-keyboard-response,77,65882,0.0-1.0-99.0-0.0,0,0,30311,,,,,,24.0,,,,,,,,,,,,,,,,,,,,,,,,,,,,78.5,1.467,,
78,,iti,,html-keyboard-response,78,65984,0.0-1.0-100.0,0,0,30311,,,,,,,,,,,,,,,,,,,,,,,,,,,,,,,,,,80.5,2.0,,
79,,size_choice,,html-keyboard-response,79,65999,0.0-1.0-102.0,0,0,30311,,14.0,,,75.0,25.0,25.0,1.0,1000.0,L-XL,1.0,XL,L,4.0,3.0,dumptruck,dishwasher,dumptruck10,dishwasher7,179.0,26.0,/static/Size_judgement/Stimuli/Size_stims/XL/dumptruck/dumptruck4.jpg,/static/Size_judgement/Stimuli/Size_stims/L/dishwasher/dishwasher7.jpg,0.0,dishwasher,dumptruck,L,XL,3.0,4.0,dishwasher7,dumptruck10,0.0,80.514,0.014,0.0,
80,,size_choice_confirmation,,html-keyboard-response,80,67491,0.0-1.0-103.0-0.0,0,0,30311,,,,,,25.0,,,,,,,,,,,,,,,,,,,,,,,,,,,,82.0,1.486,,
81,,iti,,html-keyboard-response,81,67592,0.0-1.0-104.0,0,0,30311,,,,,,,,,,,,,,,,,,,,,,,,,,,,,,,,,,83.0,1.0,,
82,,size_choice,,html-keyboard-response,82,67784,0.0-1.0-106.0,0,0,30311,,191.0,,,75.0,26.0,26.0,1.0,1000.0,S-XL,1.0,XL,S,4.0,1.0,dumptruck,die,dumptruck4,die1,173.0,100.0,/static/Size_judgement/Stimuli/Size_stims/XL/dumptruck/dumptruck1.jpg,/static/Size_judgement/Stimuli/Size_stims/S/die/die8.jpg,0.0,die,dumptruck,S,XL,1.0,4.0,die1,dumptruck4,0.0,83.191,0.191,0.0,
83,,size_choice_confirmation,,html-keyboard-response,83,69099,0.0-1.0-107.0-0.0,0,0,30311,,,,,,26.0,,,,,,,,,,,,,,,,,,,,,,,,,,,,84.5,1.309,,
84,,iti,,html-keyboard-response,84,69203,0.0-1.0-108.0,0,0,30311,,,,,,,,,,,,,,,,,,,,,,,,,,,,,,,,,,85.5,1.0,,
85,,size_choice,,html-keyboard-response,85,69512,0.0-1.0-110.0,0,0,30311,,308.0,,,75.0,27.0,27.0,1.0,1500.0,M-XL,0.0,M,XL,2.0,4.0,coffeemaker,dumptruck,coffeemaker8,dumptruck5,67.0,174.0,/static/Size_judgement/Stimuli/Size_stims/M/coffeemaker/coffeemaker5.jpg,/static/Size_judgement/Stimuli/Size_stims/XL/dumptruck/dumptruck3.jpg,0.0,dumptruck,coffeemaker,XL,M,4.0,2.0,dumptruck5,coffeemaker8,1.0,85.808,0.308,0.0,
86,,size_choice_confirmation,,html-keyboard-response,86,70709,0.0-1.0-111.0-0.0,0,0,30311,,,,,,27.0,,,,,,,,,,,,,,,,,,,,,,,,,,,,87.0,1.192,,
87,,iti,,html-keyboard-response,87,70814,0.0-1.0-112.0,0,0,30311,,,,,,,,,,,,,,,,,,,,,,,,,,,,,,,,,,88.5,1.5,,
88,,size_choice,,html-keyboard-response,88,70845,0.0-1.0-114.0,0,0,30311,,31.0,,,75.0,28.0,28.0,1.0,1500.0,XL-XL,,XL,XL,4.0,4.0,van,car,van6,car4,195.0,153.0,/static/Size_judgement/Stimuli/Size_stims/XL/van/van2.jpg,/static/Size_judgement/Stimuli/Size_stims/XL/car/car6.jpg,0.0,car,van,XL,XL,4.0,4.0,car4,van6,,88.531,0.031,0.0,
89,,size_choice_confirmation,,html-keyboard-response,89,72317,0.0-1.0-115.0-0.0,0,0,30311,,,,,,28.0,,,,,,,,,,,,,,,,,,,,,,,,,,,,90.0,1.469,,
90,,iti,,html-keyboard-response,90,72419,0.0-1.0-116.0,0,0,30311,,,,,,,,,,,,,,,,,,,,,,,,,,,,,,,,,,91.5,1.5,,
91,,size_choice,,html-keyboard-response,91,72512,0.0-1.0-118.0,0,0,30311,,92.0,,,68.0,29.0,29.0,1.0,1000.0,S-L,1.0,L,S,3.0,1.0,mailbox,thread,mailbox4,thread1,43.0,140.0,/static/Size_judgement/Stimuli/Size_stims/L/mailbox/mailbox5.jpg,/static/Size_judgement/Stimuli/Size_stims/S/thread/thread7.jpg,1.0,mailbox,thread,L,S,3.0,1.0,mailbox4,thread1,1.0,91.592,0.092,0.0,
92,,size_choice_confirmation,,html-keyboard-response,92,73921,0.0-1.0-119.0-0.0,0,0,30311,,,,,,29.0,,,,,,,,,,,,,,,,,,,,,,,,,,,,93.0,1.408,,
93,,iti,,html-keyboard-response,93,74023,0.0-1.0-120.0,0,0,30311,,,,,,,,,,,,,,,,,,,,,,,,,,,,,,,,,,94.0,1.0,,
94,,size_choice,,html-keyboard-response,94,74144,0.0-1.0-122.0,0,0,30311,,120.0,,,75.0,30.0,30.0,1.0,1000.0,M-XL,0.0,M,XL,2.0,4.0,basketball,dumptruck,basketball4,dumptruck9,53.0,178.0,/static/Size_judgement/Stimuli/Size_stims/M/basketball/basketball1.jpg,/static/Size_judgement/Stimuli/Size_stims/XL/dumptruck/dumptruck5.jpg,0.0,dumptruck,basketball,XL,M,4.0,2.0,dumptruck9,basketball4,1.0,94.12,0.12,0.0,
95,,size_choice_confirmation,,html-keyboard-response,95,75525,0.0-1.0-123.0-0.0,0,0,30311,,,,,,30.0,,,,,,,,,,,,,,,,,,,,,,,,,,,,95.5,1.38,,
96,,iti,,html-keyboard-response,96,75627,0.0-1.0-124.0,0,0,30311,,,,,,,,,,,,,,,,,,,,,,,,,,,,,,,,,,96.5,1.0,,
97,,size_choice,,html-keyboard-response,97,75748,0.0-1.0-126.0,0,0,30311,,120.0,,,75.0,31.0,31.0,1.0,1000.0,M-L,0.0,M,L,2.0,3.0,ketchup,cooler,ketchup6,cooler9,95.0,8.0,/static/Size_judgement/Stimuli/Size_stims/M/ketchup/ketchup1.jpg,/static/Size_judgement/Stimuli/Size_stims/L/cooler/cooler7.jpg,0.0,cooler,ketchup,L,M,3.0,2.0,cooler9,ketchup6,1.0,96.62,0.12,0.0,
98,,size_choice_confirmation,,html-keyboard-response,98,77129,0.0-1.0-127.0-0.0,0,0,30311,,,,,,31.0,,,,,,,,,,,,,,,,,,,,,,,,,,,,98.0,1.38,,
99,,iti,,html-keyboard-response,99,77230,0.0-1.0-128.0,0,0,30311,,,,,,,,,,,,,,,,,,,,,,,,,,,,,,,,,,99.0,1.0,,
100,,size_choice,,html-keyboard-response,100,77258,0.0-1.0-130.0,0,0,30311,,26.0,,,75.0,32.0,32.0,1.0,1000.0,XL-XL,,XL,XL,4.0,4.0,car,van,car6,van4,155.0,193.0,/static/Size_judgement/Stimuli/Size_stims/XL/car/car12.jpg,/static/Size_judgement/Stimuli/Size_stims/XL/van/van7.jpg,0.0,van,car,XL,XL,4.0,4.0,van4,car6,,99.026,0.026,0.0,
101,,size_choice_confirmation,,html-keyboard-response,101,78736,0.0-1.0-131.0-0.0,0,0,30311,,,,,,32.0,,,,,,,,,,,,,,,,,,,,,,,,,,,,100.5,1.474,,
102,,iti,,html-keyboard-response,102,78837,0.0-1.0-132.0,0,0,30311,,,,,,,,,,,,,,,,,,,,,,,,,,,,,,,,,,101.5,1.0,,
103,,size_choice,,html-keyboard-response,103,81337,0.0-1.0-134.0,0,0,30311,,,,,,33.0,33.0,1.0,1000.0,M-M,,M,M,2.0,2.0,hairdryer,basketball,hairdryer3,basketball10,72.0,59.0,/static/Size_judgement/Stimuli/Size_stims/M/hairdryer/hairdryer17.jpg,/static/Size_judgement/Stimuli/Size_stims/M/basketball/basketball4.jpg,,,,,,,,,,,103.0,1.5,1.0,
104,,iti,,html-keyboard-response,104,82395,0.0-1.0-136.0,0,0,30311,,,,,,,,,,,,,,,,,,,,,,,,,,,,,,,,,,104.0,1.0,,
105,,size_choice,,html-keyboard-response,105,84337,0.0-1.0-138.0,0,0,30311,,,,,,34.0,34.0,1.0,3000.0,S-M,0.0,S,M,1.0,2.0,screws,hairdryer,screws7,hairdryer1,126.0,70.0,/static/Size_judgement/Stimuli/Size_stims/S/screws/screws1.jpg,/static/Size_judgement/Stimuli/Size_stims/M/hairdryer/hairdryer11.jpg,,,,,,,,,,,105.5,1.5,1.0,
106,,iti,,html-keyboard-response,106,84999,0.0-1.0-140.0,0,0,30311,,,,,,,,,,,,,,,,,,,,,,,,,,,,,,,,,,108.5,3.0,,
107,,size_choice,,html-keyboard-response,107,86505,0.0-1.0-142.0,0,0,30311,,,,,,35.0,35.0,1.0,1500.0,S-XL,1.0,XL,S,4.0,1.0,dumptruck,thread,dumptruck2,thread3,171.0,142.0,/static/Size_judgement/Stimuli/Size_stims/XL/dumptruck/dumptruck8.jpg,/static/Size_judgement/Stimuli/Size_stims/S/thread/thread4.jpg,,,,,,,,,,,110.0,1.5,1.0,
108,,iti,,html-keyboard-response,108,86608,0.0-1.0-144.0,0,0,30311,,,,,,,,,,,,,,,,,,,,,,,,,,,,,,,,,,111.5,1.5,,
109,,size_choice,,html-keyboard-response,109,87638,0.0-1.0-146.0,0,0,30311,,1029.0,,,68.0,36.0,36.0,1.0,2000.0,M-L,0.0,M,L,2.0,3.0,basketball,mailbox,basketball8,mailbox9,57.0,48.0,/static/Size_judgement/Stimuli/Size_stims/M/basketball/basketball7.jpg,/static/Size_judgement/Stimuli/Size_stims/L/mailbox/mailbox9.jpg,1.0,basketball,mailbox,M,L,2.0,3.0,basketball8,mailbox9,0.0,112.529,1.029,0.0,
110,,size_choice_confirmation,,html-keyboard-response,110,88112,0.0-1.0-147.0-0.0,0,0,30311,,,,,,36.0,,,,,,,,,,,,,,,,,,,,,,,,,,,,113.0,0.471,,
111,,iti,,html-keyboard-response,111,88213,0.0-1.0-148.0,0,0,30311,,,,,,,,,,,,,,,,,,,,,,,,,,,,,,,,,,115.0,2.0,,
112,,size_choice,,html-keyboard-response,112,88544,0.0-1.0-150.0,0,0,30311,,329.0,,,75.0,37.0,37.0,1.0,2000.0,S-XL,0.0,S,XL,1.0,4.0,thread,crane,thread5,crane8,144.0,167.0,/static/Size_judgement/Stimuli/Size_stims/S/thread/thread1.jpg,/static/Size_judgement/Stimuli/Size_stims/XL/crane/crane10.jpg,0.0,crane,thread,XL,S,4.0,1.0,crane8,thread5,1.0,115.329,0.329,0.0,
113,,size_choice_confirmation,,html-keyboard-response,113,89721,0.0-1.0-151.0-0.0,0,0,30311,,,,,,37.0,,,,,,,,,,,,,,,,,,,,,,,,,,,,116.5,1.171,,
114,,iti,,html-keyboard-response,114,89824,0.0-1.0-152.0,0,0,30311,,,,,,,,,,,,,,,,,,,,,,,,,,,,,,,,,,118.5,2.0,,
115,,size_choice,,html-keyboard-response,115,90023,0.0-1.0-154.0,0,0,30311,,198.0,,,68.0,38.0,38.0,1.0,1000.0,S-XL,0.0,S,XL,1.0,4.0,paperclip,van,paperclip4,van3,113.0,192.0,/static/Size_judgement/Stimuli/Size_stims/S/paperclip/paperclip3.jpg,/static/Size_judgement/Stimuli/Size_stims/XL/van/van6.jpg,1.0,paperclip,van,S,XL,1.0,4.0,paperclip4,van3,0.0,118.698,0.198,0.0,
116,,size_choice_confirmation,,html-keyboard-response,116,91331,0.0-1.0-155.0-0.0,0,0,30311,,,,,,38.0,,,,,,,,,,,,,,,,,,,,,,,,,,,,120.0,1.302,,
117,,iti,,html-keyboard-response,117,91435,0.0-1.0-156.0,0,0,30311,,,,,,,,,,,,,,,,,,,,,,,,,,,,,,,,,,121.0,1.0,,
118,,size_choice,,html-keyboard-response,118,91696,0.0-1.0-158.0,0,0,30311,,259.0,,,68.0,39.0,39.0,1.0,3500.0,L-XL,1.0,XL,L,4.0,3.0,van,mailbox,van10,mailbox10,199.0,49.0,/static/Size_judgement/Stimuli/Size_stims/XL/van/van8.jpg,/static/Size_judgement/Stimuli/Size_stims/L/mailbox/mailbox8.jpg,1.0,van,mailbox,XL,L,4.0,3.0,van10,mailbox10,1.0,121.259,0.259,0.0,
119,,size_choice_confirmation,,html-keyboard-response,119,92939,0.0-1.0-159.0-0.0,0,0,30311,,,,,,39.0,,,,,,,,,,,,,,,,,,,,,,,,,,,,122.5,1.241,,
120,,iti,,html-keyboard-response,120,93040,0.0-1.0-160.0,0,0,30311,,,,,,,,,,,,,,,,,,,,,,,,,,,,,,,,,,126.0,3.5,,
121,,size_choice,,html-keyboard-response,121,93277,0.0-1.0-162.0,0,0,30311,,236.0,,,68.0,40.0,40.0,1.0,3000.0,S-L,1.0,L,S,3.0,1.0,mailbox,paperclip,mailbox7,paperclip5,46.0,114.0,/static/Size_judgement/Stimuli/Size_stims/L/mailbox/mailbox7.jpg,/static/Size_judgement/Stimuli/Size_stims/S/paperclip/paperclip2.jpg,1.0,mailbox,paperclip,L,S,3.0,1.0,mailbox7,paperclip5,1.0,126.236,0.236,0.0,
122,,size_choice_confirmation,,html-keyboard-response,122,94544,0.0-1.0-163.0-0.0,0,0,30311,,,,,,40.0,,,,,,,,,,,,,,,,,,,,,,,,,,,,127.5,1.264,,
123,,iti,,html-keyboard-response,123,94645,0.0-1.0-164.0,0,0,30311,,,,,,,,,,,,,,,,,,,,,,,,,,,,,,,,,,130.5,3.0,,
124,,size_choice,,html-keyboard-response,124,94890,0.0-1.0-166.0,0,0,30311,,243.0,,,68.0,41.0,41.0,1.0,1000.0,S-L,1.0,L,S,3.0,1.0,dishwasher,thread,dishwasher3,thread2,22.0,141.0,/static/Size_judgement/Stimuli/Size_stims/L/dishwasher/dishwasher8.jpg,/static/Size_judgement/Stimuli/Size_stims/S/thread/thread6.jpg,1.0,dishwasher,thread,L,S,3.0,1.0,dishwasher3,thread2,1.0,130.743,0.243,0.0,
125,,size_choice_confirmation,,html-keyboard-response,125,96149,0.0-1.0-167.0-0.0,0,0,30311,,,,,,41.0,,,,,,,,,,,,,,,,,,,,,,,,,,,,132.0,1.257,,
126,,iti,,html-keyboard-response,126,96251,0.0-1.0-168.0,0,0,30311,,,,,,,,,,,,,,,,,,,,,,,,,,,,,,,,,,133.0,1.0,,
127,,size_choice,,html-keyboard-response,127,96387,0.0-1.0-170.0,0,0,30311,,135.0,,,68.0,42.0,42.0,1.0,1500.0,S-L,1.0,L,S,3.0,1.0,cooler,paperclip,cooler6,paperclip2,5.0,111.0,/static/Size_judgement/Stimuli/Size_stims/L/cooler/cooler1.jpg,/static/Size_judgement/Stimuli/Size_stims/S/paperclip/paperclip8.jpg,1.0,cooler,paperclip,L,S,3.0,1.0,cooler6,paperclip2,1.0,133.135,0.135,0.0,
128,,size_choice_confirmation,,html-keyboard-response,128,97758,0.0-1.0-171.0-0.0,0,0,30311,,,,,,42.0,,,,,,,,,,,,,,,,,,,,,,,,,,,,134.5,1.365,,
129,,iti,,html-keyboard-response,129,97862,0.0-1.0-172.0,0,0,30311,,,,,,,,,,,,,,,,,,,,,,,,,,,,,,,,,,136.0,1.5,,
130,,size_choice,,html-keyboard-response,130,100573,0.0-1.0-174.0,0,0,30311,,,,,,43.0,43.0,1.0,1500.0,M-L,0.0,M,L,2.0,3.0,handsaw,garbagecan,handsaw3,garbagecan2,82.0,31.0,/static/Size_judgement/Stimuli/Size_stims/M/handsaw/handsaw2.jpg,/static/Size_judgement/Stimuli/Size_stims/L/garbagecan/garbagecan5.jpg,,,,,,,,,,,137.5,1.5,1.0,
131,,iti,,html-keyboard-response,131,101337,0.0-1.0-176.0,0,0,30311,,,,,,,,,,,,,,,,,,,,,,,,,,,,,,,,,,139.0,1.5,,
132,,size_choice,,html-keyboard-response,132,102437,0.0-1.0-178.0,0,0,30311,,1099.0,,,68.0,44.0,44.0,1.0,1500.0,S-XL,0.0,S,XL,1.0,4.0,thread,tractor,thread4,tractor1,143.0,180.0,/static/Size_judgement/Stimuli/Size_stims/S/thread/thread5.jpg,/static/Size_judgement/Stimuli/Size_stims/XL/tractor/tractor6.jpg,1.0,thread,tractor,S,XL,1.0,4.0,thread4,tractor1,0.0,140.099,1.099,0.0,
133,,size_choice_confirmation,,html-keyboard-response,133,102839,0.0-1.0-179.0-0.0,0,0,30311,,,,,,44.0,,,,,,,,,,,,,,,,,,,,,,,,,,,,140.5,0.401,,
134,,iti,,html-keyboard-response,134,102942,0.0-1.0-180.0,0,0,30311,,,,,,,,,,,,,,,,,,,,,,,,,,,,,,,,,,142.0,1.5,,
135,,block_over,,html-keyboard-response,135,103306,0.0-1.0-181.0-0.0,0,0,30311,,363.0,,,68.0,44.0,,,,,,,,,,,,,,,,,,,,,,,,,,,,,,,
136,,size_choice,,html-keyboard-response,136,103648,0.0-1.0-182.0,0,0,30311,,341.0,,,75.0,45.0,45.0,2.0,1000.0,XL-XL,,XL,XL,4.0,4.0,crane,van,crane10,van8,169.0,197.0,/static/Size_judgement/Stimuli/Size_stims/XL/crane/crane9.jpg,/static/Size_judgement/Stimuli/Size_stims/XL/van/van10.jpg,0.0,van,crane,XL,XL,4.0,4.0,van8,crane10,,142.341,0.341,0.0,
137,,size_choice_confirmation,,html-keyboard-response,137,104812,0.0-1.0-183.0-0.0,0,0,30311,,,,,,45.0,,,,,,,,,,,,,,,,,,,,,,,,,,,,143.5,1.159,,
138,,iti,,html-keyboard-response,138,104915,0.0-1.0-184.0,0,0,30311,,,,,,,,,,,,,,,,,,,,,,,,,,,,,,,,,,144.5,1.0,,
139,,size_choice,,html-keyboard-response,139,104945,0.0-1.0-186.0,0,0,30311,,29.0,,,75.0,46.0,46.0,2.0,3500.0,S-L,0.0,S,L,1.0,3.0,thread,cooler,thread8,cooler3,147.0,2.0,/static/Size_judgement/Stimuli/Size_stims/S/thread/thread10.jpg,/static/Size_judgement/Stimuli/Size_stims/L/cooler/cooler2.jpg,0.0,cooler,thread,L,S,3.0,1.0,cooler3,thread8,1.0,144.529,0.029,0.0,
140,,size_choice_confirmation,,html-keyboard-response,140,106419,0.0-1.0-187.0-0.0,0,0,30311,,,,,,46.0,,,,,,,,,,,,,,,,,,,,,,,,,,,,146.0,1.471,,
141,,iti,,html-keyboard-response,141,106523,0.0-1.0-188.0,0,0,30311,,,,,,,,,,,,,,,,,,,,,,,,,,,,,,,,,,149.5,3.5,,
142,,size_choice,,html-keyboard-response,142,106835,0.0-1.0-190.0,0,0,30311,,311.0,,,68.0,47.0,47.0,2.0,1000.0,M-XL,0.0,M,XL,2.0,4.0,coffeemaker,crane,coffeemaker9,crane2,68.0,161.0,/static/Size_judgement/Stimuli/Size_stims/M/coffeemaker/coffeemaker7.jpg,/static/Size_judgement/Stimuli/Size_stims/XL/crane/crane6.jpg,1.0,coffeemaker,crane,M,XL,2.0,4.0,coffeemaker9,crane2,0.0,149.811,0.311,0.0,
143,,size_choice_confirmation,,html-keyboard-response,143,108027,0.0-1.0-191.0-0.0,0,0,30311,,,,,,47.0,,,,,,,,,,,,,,,,,,,,,,,,,,,,151.0,1.189,,
144,,iti,,html-keyboard-response,144,108129,0.0-1.0-192.0,0,0,30311,,,,,,,,,,,,,,,,,,,,,,,,,,,,,,,,,,152.0,1.0,,
145,,size_choice,,html-keyboard-response,145,108382,0.0-1.0-194.0,0,0,30311,,252.0,,,68.0,48.0,48.0,2.0,1000.0,S-L,1.0,L,S,3.0,1.0,garbagecan,die,garbagecan1,die5,30.0,104.0,/static/Size_judgement/Stimuli/Size_stims/L/garbagecan/garbagecan4.jpg,/static/Size_judgement/Stimuli/Size_stims/S/die/die3.jpg,1.0,garbagecan,die,L,S,3.0,1.0,garbagecan1,die5,1.0,152.252,0.252,0.0,
146,,size_choice_confirmation,,html-keyboard-response,146,109635,0.0-1.0-195.0-0.0,0,0,30311,,,,,,48.0,,,,,,,,,,,,,,,,,,,,,,,,,,,,153.5,1.248,,
147,,iti,,html-keyboard-response,147,109739,0.0-1.0-196.0,0,0,30311,,,,,,,,,,,,,,,,,,,,,,,,,,,,,,,,,,154.5,1.0,,
148,,size_choice,,html-keyboard-response,148,109950,0.0-1.0-198.0,0,0,30311,,210.0,,,75.0,49.0,49.0,2.0,1500.0,M-L,0.0,M,L,2.0,3.0,hairdryer,deskchair,hairdryer8,deskchair5,77.0,14.0,/static/Size_judgement/Stimuli/Size_stims/M/hairdryer/hairdryer1.jpg,/static/Size_judgement/Stimuli/Size_stims/L/deskchair/deskchair7.jpg,0.0,deskchair,hairdryer,L,M,3.0,2.0,deskchair5,hairdryer8,1.0,154.71,0.21,0.0,
149,,size_choice_confirmation,,html-keyboard-response,149,111246,0.0-1.0-199.0-0.0,0,0,30311,,,,,,49.0,,,,,,,,,,,,,,,,,,,,,,,,,,,,156.0,1.29,,
150,,iti,,html-keyboard-response,150,111348,0.0-1.0-200.0,0,0,30311,,,,,,,,,,,,,,,,,,,,,,,,,,,,,,,,,,157.5,1.5,,
151,,size_choice,,html-keyboard-response,151,111507,0.0-1.0-202.0,0,0,30311,,158.0,,,75.0,50.0,50.0,2.0,3500.0,S-XL,0.0,S,XL,1.0,4.0,die,tractor,die10,tractor3,109.0,182.0,/static/Size_judgement/Stimuli/Size_stims/S/die/die6.jpg,/static/Size_judgement/Stimuli/Size_stims/XL/tractor/tractor5.jpg,0.0,tractor,die,XL,S,4.0,1.0,tractor3,die10,1.0,157.658,0.158,0.0,
152,,size_choice_confirmation,,html-keyboard-response,152,112853,0.0-1.0-203.0-0.0,0,0,30311,,,,,,50.0,,,,,,,,,,,,,,,,,,,,,,,,,,,,159.0,1.342,,
153,,iti,,html-keyboard-response,153,112958,0.0-1.0-204.0,0,0,30311,,,,,,,,,,,,,,,,,,,,,,,,,,,,,,,,,,162.5,3.5,,
154,,size_choice,,html-keyboard-response,154,113063,0.0-1.0-206.0,0,0,30311,,104.0,,,68.0,51.0,51.0,2.0,1000.0,S-XL,0.0,S,XL,1.0,4.0,screws,van,screws4,van1,123.0,190.0,/static/Size_judgement/Stimuli/Size_stims/S/screws/screws6.jpg,/static/Size_judgement/Stimuli/Size_stims/XL/van/van5.jpg,1.0,screws,van,S,XL,1.0,4.0,screws4,van1,0.0,162.604,0.104,0.0,
155,,size_choice_confirmation,,html-keyboard-response,155,114462,0.0-1.0-207.0-0.0,0,0,30311,,,,,,51.0,,,,,,,,,,,,,,,,,,,,,,,,,,,,164.0,1.396,,
156,,iti,,html-keyboard-response,156,114567,0.0-1.0-208.0,0,0,30311,,,,,,,,,,,,,,,,,,,,,,,,,,,,,,,,,,165.0,1.0,,
157,,size_choice,,html-keyboard-response,157,114656,0.0-1.0-210.0,0,0,30311,,87.0,,,68.0,52.0,52.0,2.0,1500.0,S-L,1.0,L,S,3.0,1.0,cooler,paperclip,cooler10,paperclip8,9.0,117.0,/static/Size_judgement/Stimuli/Size_stims/L/cooler/cooler6.jpg,/static/Size_judgement/Stimuli/Size_stims/S/paperclip/paperclip5.jpg,1.0,cooler,paperclip,L,S,3.0,1.0,cooler10,paperclip8,1.0,165.087,0.087,0.0,
158,,size_choice_confirmation,,html-keyboard-response,158,116073,0.0-1.0-211.0-0.0,0,0,30311,,,,,,52.0,,,,,,,,,,,,,,,,,,,,,,,,,,,,166.5,1.413,,
159,,iti,,html-keyboard-response,159,116178,0.0-1.0-212.0,0,0,30311,,,,,,,,,,,,,,,,,,,,,,,,,,,,,,,,,,168.0,1.5,,
160,,size_choice,,html-keyboard-response,160,116285,0.0-1.0-214.0,0,0,30311,,105.0,,,68.0,53.0,53.0,2.0,2000.0,S-L,0.0,S,L,1.0,3.0,screws,mailbox,screws1,mailbox5,120.0,44.0,/static/Size_judgement/Stimuli/Size_stims/S/screws/screws4.jpg,/static/Size_judgement/Stimuli/Size_stims/L/mailbox/mailbox4.jpg,1.0,screws,mailbox,S,L,1.0,3.0,screws1,mailbox5,0.0,168.105,0.105,0.0,
161,,size_choice_confirmation,,html-keyboard-response,161,117685,0.0-1.0-215.0-0.0,0,0,30311,,,,,,53.0,,,,,,,,,,,,,,,,,,,,,,,,,,,,169.5,1.395,,
162,,iti,,html-keyboard-response,162,117790,0.0-1.0-216.0,0,0,30311,,,,,,,,,,,,,,,,,,,,,,,,,,,,,,,,,,171.5,2.0,,
163,,size_choice,,html-keyboard-response,163,117997,0.0-1.0-218.0,0,0,30311,,205.0,,,75.0,54.0,54.0,2.0,1000.0,S-L,0.0,S,L,1.0,3.0,screws,deskchair,screws2,deskchair7,121.0,16.0,/static/Size_judgement/Stimuli/Size_stims/S/screws/screws5.jpg,/static/Size_judgement/Stimuli/Size_stims/L/deskchair/deskchair4.jpg,0.0,deskchair,screws,L,S,3.0,1.0,deskchair7,screws2,1.0,171.705,0.205,0.0,
164,,size_choice_confirmation,,html-keyboard-response,164,119294,0.0-1.0-219.0-0.0,0,0,30311,,,,,,54.0,,,,,,,,,,,,,,,,,,,,,,,,,,,,173.0,1.295,,
165,,iti,,html-keyboard-response,165,119395,0.0-1.0-220.0,0,0,30311,,,,,,,,,,,,,,,,,,,,,,,,,,,,,,,,,,174.0,1.0,,
166,,size_choice,,html-keyboard-response,166,119613,0.0-1.0-222.0,0,0,30311,,216.0,,,68.0,55.0,55.0,2.0,1500.0,M-XL,1.0,XL,M,4.0,2.0,dumptruck,ketchup,dumptruck1,ketchup10,170.0,99.0,/static/Size_judgement/Stimuli/Size_stims/XL/dumptruck/dumptruck9.jpg,/static/Size_judgement/Stimuli/Size_stims/M/ketchup/ketchup6.jpg,1.0,dumptruck,ketchup,XL,M,4.0,2.0,dumptruck1,ketchup10,1.0,174.216,0.216,0.0,
167,,size_choice_confirmation,,html-keyboard-response,167,120901,0.0-1.0-223.0-0.0,0,0,30311,,,,,,55.0,,,,,,,,,,,,,,,,,,,,,,,,,,,,175.5,1.284,,
168,,iti,,html-keyboard-response,168,121006,0.0-1.0-224.0,0,0,30311,,,,,,,,,,,,,,,,,,,,,,,,,,,,,,,,,,177.0,1.5,,
169,,size_choice,,html-keyboard-response,169,121170,0.0-1.0-226.0,0,0,30311,,162.0,,,75.0,56.0,56.0,2.0,1500.0,L-XL,1.0,XL,L,4.0,3.0,car,dishwasher,car10,dishwasher2,159.0,21.0,/static/Size_judgement/Stimuli/Size_stims/XL/car/car9.jpg,/static/Size_judgement/Stimuli/Size_stims/L/dishwasher/dishwasher9.jpg,0.0,dishwasher,car,L,XL,3.0,4.0,dishwasher2,car10,0.0,177.162,0.162,0.0,
170,,size_choice_confirmation,,html-keyboard-response,170,122512,0.0-1.0-227.0-0.0,0,0,30311,,,,,,56.0,,,,,,,,,,,,,,,,,,,,,,,,,,,,178.5,1.338,,
171,,iti,,html-keyboard-response,171,122614,0.0-1.0-228.0,0,0,30311,,,,,,,,,,,,,,,,,,,,,,,,,,,,,,,,,,180.0,1.5,,
172,,size_choice,,html-keyboard-response,172,122660,0.0-1.0-230.0,0,0,30311,,44.0,,,68.0,57.0,57.0,2.0,1000.0,S-S,,S,S,1.0,1.0,die,paperclip,die8,paperclip9,107.0,118.0,/static/Size_judgement/Stimuli/Size_stims/S/die/die5.jpg,/static/Size_judgement/Stimuli/Size_stims/S/paperclip/paperclip4.jpg,1.0,die,paperclip,S,S,1.0,1.0,die8,paperclip9,,180.044,0.044,0.0,
173,,size_choice_confirmation,,html-keyboard-response,173,124121,0.0-1.0-231.0-0.0,0,0,30311,,,,,,57.0,,,,,,,,,,,,,,,,,,,,,,,,,,,,181.5,1.456,,
174,,iti,,html-keyboard-response,174,124222,0.0-1.0-232.0,0,0,30311,,,,,,,,,,,,,,,,,,,,,,,,,,,,,,,,,,182.5,1.0,,
175,,size_choice,,html-keyboard-response,175,124227,0.0-1.0-234.0,0,0,30311,,4.0,,,75.0,58.0,58.0,2.0,2000.0,M-M,,M,M,2.0,2.0,ketchup,handsaw,ketchup9,handsaw5,98.0,84.0,/static/Size_judgement/Stimuli/Size_stims/M/ketchup/ketchup7.jpg,/static/Size_judgement/Stimuli/Size_stims/M/handsaw/handsaw1.jpg,0.0,handsaw,ketchup,M,M,2.0,2.0,handsaw5,ketchup9,,182.504,0.004,0.0,
176,,size_choice_confirmation,,html-keyboard-response,176,125725,0.0-1.0-235.0-0.0,0,0,30311,,,,,,58.0,,,,,,,,,,,,,,,,,,,,,,,,,,,,184.0,1.496,,
177,,iti,,html-keyboard-response,177,125826,0.0-1.0-236.0,0,0,30311,,,,,,,,,,,,,,,,,,,,,,,,,,,,,,,,,,186.0,2.0,,
178,,size_choice,,html-keyboard-response,178,125916,0.0-1.0-238.0,0,0,30311,,89.0,,,68.0,59.0,59.0,2.0,2000.0,M-XL,0.0,M,XL,2.0,4.0,coffeemaker,crane,coffeemaker1,crane9,60.0,168.0,/static/Size_judgement/Stimuli/Size_stims/M/coffeemaker/coffeemaker14.jpg,/static/Size_judgement/Stimuli/Size_stims/XL/crane/crane8.jpg,1.0,coffeemaker,crane,M,XL,2.0,4.0,coffeemaker1,crane9,0.0,186.089,0.089,0.0,
179,,size_choice_confirmation,,html-keyboard-response,179,127331,0.0-1.0-239.0-0.0,0,0,30311,,,,,,59.0,,,,,,,,,,,,,,,,,,,,,,,,,,,,187.5,1.411,,
180,,iti,,html-keyboard-response,180,127433,0.0-1.0-240.0,0,0,30311,,,,,,,,,,,,,,,,,,,,,,,,,,,,,,,,,,189.5,2.0,,
181,,size_choice,,html-keyboard-response,181,127513,0.0-1.0-242.0,0,0,30311,,79.0,,,68.0,60.0,60.0,2.0,1000.0,M-L,0.0,M,L,2.0,3.0,hairdryer,mailbox,hairdryer9,mailbox6,78.0,45.0,/static/Size_judgement/Stimuli/Size_stims/M/hairdryer/hairdryer5.jpg,/static/Size_judgement/Stimuli/Size_stims/L/mailbox/mailbox6.jpg,1.0,hairdryer,mailbox,M,L,2.0,3.0,hairdryer9,mailbox6,0.0,189.579,0.079,0.0,
182,,size_choice_confirmation,,html-keyboard-response,182,128939,0.0-1.0-243.0-0.0,0,0,30311,,,,,,60.0,,,,,,,,,,,,,,,,,,,,,,,,,,,,191.0,1.421,,
183,,iti,,html-keyboard-response,183,129040,0.0-1.0-244.0,0,0,30311,,,,,,,,,,,,,,,,,,,,,,,,,,,,,,,,,,192.0,1.0,,
184,,size_choice,,html-keyboard-response,184,129366,0.0-1.0-246.0,0,0,30311,,325.0,,,68.0,61.0,61.0,2.0,1500.0,S-XL,1.0,XL,S,4.0,1.0,tractor,die,tractor4,die9,183.0,108.0,/static/Size_judgement/Stimuli/Size_stims/XL/tractor/tractor4.jpg,/static/Size_judgement/Stimuli/Size_stims/S/die/die7.jpg,1.0,tractor,die,XL,S,4.0,1.0,tractor4,die9,1.0,192.325,0.325,0.0,
185,,size_choice_confirmation,,html-keyboard-response,185,130544,0.0-1.0-247.0-0.0,0,0,30311,,,,,,61.0,,,,,,,,,,,,,,,,,,,,,,,,,,,,193.5,1.175,,
186,,iti,,html-keyboard-response,186,130649,0.0-1.0-248.0,0,0,30311,,,,,,,,,,,,,,,,,,,,,,,,,,,,,,,,,,195.0,1.5,,
187,,size_choice,,html-keyboard-response,187,130786,0.0-1.0-250.0,0,0,30311,,136.0,,,75.0,62.0,62.0,2.0,1000.0,XL-XL,,XL,XL,4.0,4.0,van,tractor,van7,tractor10,196.0,189.0,/static/Size_judgement/Stimuli/Size_stims/XL/van/van1.jpg,/static/Size_judgement/Stimuli/Size_stims/XL/tractor/tractor8.jpg,0.0,tractor,van,XL,XL,4.0,4.0,tractor10,van7,,195.136,0.136,0.0,
188,,size_choice_confirmation,,html-keyboard-response,188,132153,0.0-1.0-251.0-0.0,0,0,30311,,,,,,62.0,,,,,,,,,,,,,,,,,,,,,,,,,,,,196.5,1.364,,
189,,iti,,html-keyboard-response,189,132258,0.0-1.0-252.0,0,0,30311,,,,,,,,,,,,,,,,,,,,,,,,,,,,,,,,,,197.5,1.0,,
190,,size_choice,,html-keyboard-response,190,132370,0.0-1.0-254.0,0,0,30311,,110.0,,,68.0,63.0,63.0,2.0,3500.0,S-XL,0.0,S,XL,1.0,4.0,paperclip,tractor,paperclip7,tractor7,116.0,186.0,/static/Size_judgement/Stimuli/Size_stims/S/paperclip/paperclip7.jpg,/static/Size_judgement/Stimuli/Size_stims/XL/tractor/tractor2.jpg,1.0,paperclip,tractor,S,XL,1.0,4.0,paperclip7,tractor7,0.0,197.61,0.11,0.0,
191,,size_choice_confirmation,,html-keyboard-response,191,133764,0.0-1.0-255.0-0.0,0,0,30311,,,,,,63.0,,,,,,,,,,,,,,,,,,,,,,,,,,,,199.0,1.39,,
192,,iti,,html-keyboard-response,192,133869,0.0-1.0-256.0,0,0,30311,,,,,,,,,,,,,,,,,,,,,,,,,,,,,,,,,,202.5,3.5,,
193,,size_choice,,html-keyboard-response,193,133918,0.0-1.0-258.0,0,0,30311,,48.0,,,75.0,64.0,64.0,2.0,2000.0,M-L,0.0,M,L,2.0,3.0,basketball,deskchair,basketball3,deskchair10,52.0,19.0,/static/Size_judgement/Stimuli/Size_stims/M/basketball/basketball10.jpg,/static/Size_judgement/Stimuli/Size_stims/L/deskchair/deskchair2.jpg,0.0,deskchair,basketball,L,M,3.0,2.0,deskchair10,basketball3,1.0,202.548,0.048,0.0,
194,,size_choice_confirmation,,html-keyboard-response,194,135374,0.0-1.0-259.0-0.0,0,0,30311,,,,,,64.0,,,,,,,,,,,,,,,,,,,,,,,,,,,,204.0,1.452,,
195,,iti,,html-keyboard-response,195,135478,0.0-1.0-260.0,0,0,30311,,,,,,,,,,,,,,,,,,,,,,,,,,,,,,,,,,206.0,2.0,,
196,,size_choice,,html-keyboard-response,196,135497,0.0-1.0-262.0,0,0,30311,,18.0,,,68.0,65.0,65.0,2.0,1000.0,M-XL,1.0,XL,M,4.0,2.0,crane,coffeemaker,crane4,coffeemaker10,163.0,69.0,/static/Size_judgement/Stimuli/Size_stims/XL/crane/crane5.jpg,/static/Size_judgement/Stimuli/Size_stims/M/coffeemaker/coffeemaker18.jpg,1.0,crane,coffeemaker,XL,M,4.0,2.0,crane4,coffeemaker10,1.0,206.018,0.018,0.0,
197,,size_choice_confirmation,,html-keyboard-response,197,136982,0.0-1.0-263.0-0.0,0,0,30311,,,,,,65.0,,,,,,,,,,,,,,,,,,,,,,,,,,,,207.5,1.482,,
198,,iti,,html-keyboard-response,198,137088,0.0-1.0-264.0,0,0,30311,,,,,,,,,,,,,,,,,,,,,,,,,,,,,,,,,,208.5,1.0,,
199,,size_choice,,html-keyboard-response,199,137390,0.0-1.0-266.0,0,0,30311,,301.0,,,68.0,66.0,66.0,2.0,1500.0,S-XL,0.0,S,XL,1.0,4.0,thread,dumptruck,thread7,dumptruck7,146.0,176.0,/static/Size_judgement/Stimuli/Size_stims/S/thread/thread3.jpg,/static/Size_judgement/Stimuli/Size_stims/XL/dumptruck/dumptruck6.jpg,1.0,thread,dumptruck,S,XL,1.0,4.0,thread7,dumptruck7,0.0,208.801,0.301,0.0,
200,,size_choice_confirmation,,html-keyboard-response,200,138590,0.0-1.0-267.0-0.0,0,0,30311,,,,,,66.0,,,,,,,,,,,,,,,,,,,,,,,,,,,,210.0,1.199,,
201,,iti,,html-keyboard-response,201,138692,0.0-1.0-268.0,0,0,30311,,,,,,,,,,,,,,,,,,,,,,,,,,,,,,,,,,211.5,1.5,,
202,,size_choice,,html-keyboard-response,202,138959,0.0-1.0-270.0,0,0,30311,,266.0,,,68.0,67.0,67.0,2.0,1000.0,XL-XL,,XL,XL,4.0,4.0,car,dumptruck,car8,dumptruck8,157.0,177.0,/static/Size_judgement/Stimuli/Size_stims/XL/car/car14.jpg,/static/Size_judgement/Stimuli/Size_stims/XL/dumptruck/dumptruck7.jpg,1.0,car,dumptruck,XL,XL,4.0,4.0,car8,dumptruck8,,211.766,0.266,0.0,
203,,size_choice_confirmation,,html-keyboard-response,203,140196,0.0-1.0-271.0-0.0,0,0,30311,,,,,,67.0,,,,,,,,,,,,,,,,,,,,,,,,,,,,213.0,1.234,,
204,,iti,,html-keyboard-response,204,140297,0.0-1.0-272.0,0,0,30311,,,,,,,,,,,,,,,,,,,,,,,,,,,,,,,,,,214.0,1.0,,
205,,size_choice,,html-keyboard-response,205,140490,0.0-1.0-274.0,0,0,30311,,192.0,,,68.0,68.0,68.0,2.0,3000.0,M-L,0.0,M,L,2.0,3.0,coffeemaker,cooler,coffeemaker6,cooler1,65.0,0.0,/static/Size_judgement/Stimuli/Size_stims/M/coffeemaker/coffeemaker8.jpg,/static/Size_judgement/Stimuli/Size_stims/L/cooler/cooler8.jpg,1.0,coffeemaker,cooler,M,L,2.0,3.0,coffeemaker6,cooler1,0.0,214.192,0.192,0.0,
206,,size_choice_confirmation,,html-keyboard-response,206,141803,0.0-1.0-275.0-0.0,0,0,30311,,,,,,68.0,,,,,,,,,,,,,,,,,,,,,,,,,,,,215.5,1.308,,
207,,iti,,html-keyboard-response,207,141904,0.0-1.0-276.0,0,0,30311,,,,,,,,,,,,,,,,,,,,,,,,,,,,,,,,,,218.5,3.0,,
208,,size_choice,,html-keyboard-response,208,141985,0.0-1.0-278.0,0,0,30311,,79.0,,,75.0,69.0,69.0,2.0,2000.0,M-L,1.0,L,M,3.0,2.0,cooler,handsaw,cooler5,handsaw4,4.0,83.0,/static/Size_judgement/Stimuli/Size_stims/L/cooler/cooler10.jpg,/static/Size_judgement/Stimuli/Size_stims/M/handsaw/handsaw3.jpg,0.0,handsaw,cooler,M,L,2.0,3.0,handsaw4,cooler5,0.0,218.579,0.079,0.0,
209,,size_choice_confirmation,,html-keyboard-response,209,143408,0.0-1.0-279.0-0.0,0,0,30311,,,,,,69.0,,,,,,,,,,,,,,,,,,,,,,,,,,,,220.0,1.421,,
210,,iti,,html-keyboard-response,210,143513,0.0-1.0-280.0,0,0,30311,,,,,,,,,,,,,,,,,,,,,,,,,,,,,,,,,,222.0,2.0,,
211,,size_choice,,html-keyboard-response,211,143578,0.0-1.0-282.0,0,0,30311,,64.0,,,68.0,70.0,70.0,2.0,1000.0,M-XL,1.0,XL,M,4.0,2.0,car,basketball,car7,basketball2,156.0,51.0,/static/Size_judgement/Stimuli/Size_stims/XL/car/car13.jpg,/static/Size_judgement/Stimuli/Size_stims/M/basketball/basketball8.jpg,1.0,car,basketball,XL,M,4.0,2.0,car7,basketball2,1.0,222.064,0.064,0.0,
212,,size_choice_confirmation,,html-keyboard-response,212,145017,0.0-1.0-283.0-0.0,0,0,30311,,,,,,70.0,,,,,,,,,,,,,,,,,,,,,,,,,,,,223.5,1.436,,
213,,iti,,html-keyboard-response,213,145118,0.0-1.0-284.0,0,0,30311,,,,,,,,,,,,,,,,,,,,,,,,,,,,,,,,,,224.5,1.0,,
214,,size_choice,,html-keyboard-response,214,145664,0.0-1.0-286.0,0,0,30311,,545.0,,,68.0,71.0,71.0,2.0,1000.0,S-L,0.0,S,L,1.0,3.0,teabag,garbagecan,teabag8,garbagecan3,137.0,32.0,/static/Size_judgement/Stimuli/Size_stims/S/teabag/teabag7.jpg,/static/Size_judgement/Stimuli/Size_stims/L/garbagecan/garbagecan7.jpg,1.0,teabag,garbagecan,S,L,1.0,3.0,teabag8,garbagecan3,0.0,225.045,0.545,0.0,
215,,size_choice_confirmation,,html-keyboard-response,215,146624,0.0-1.0-287.0-0.0,0,0,30311,,,,,,71.0,,,,,,,,,,,,,,,,,,,,,,,,,,,,226.0,0.955,,
216,,iti,,html-keyboard-response,216,146729,0.0-1.0-288.0,0,0,30311,,,,,,,,,,,,,,,,,,,,,,,,,,,,,,,,,,227.0,1.0,,
217,,size_choice,,html-keyboard-response,217,147062,0.0-1.0-290.0,0,0,30311,,332.0,,,75.0,72.0,72.0,2.0,3000.0,L-L,,L,L,3.0,3.0,dishwasher,mailbox,dishwasher9,mailbox1,28.0,40.0,/static/Size_judgement/Stimuli/Size_stims/L/dishwasher/dishwasher2.jpg,/static/Size_judgement/Stimuli/Size_stims/L/mailbox/mailbox3.jpg,0.0,mailbox,dishwasher,L,L,3.0,3.0,mailbox1,dishwasher9,,227.332,0.332,0.0,
218,,size_choice_confirmation,,html-keyboard-response,218,148233,0.0-1.0-291.0-0.0,0,0,30311,,,,,,72.0,,,,,,,,,,,,,,,,,,,,,,,,,,,,228.5,1.168,,
219,,iti,,html-keyboard-response,219,148336,0.0-1.0-292.0,0,0,30311,,,,,,,,,,,,,,,,,,,,,,,,,,,,,,,,,,231.5,3.0,,
220,,size_choice,,html-keyboard-response,220,148368,0.0-1.0-294.0,0,0,30311,,30.0,,,75.0,73.0,73.0,2.0,1000.0,S-XL,0.0,S,XL,1.0,4.0,thread,crane,thread10,crane1,149.0,160.0,/static/Size_judgement/Stimuli/Size_stims/S/thread/thread9.jpg,/static/Size_judgement/Stimuli/Size_stims/XL/crane/crane7.jpg,0.0,crane,thread,XL,S,4.0,1.0,crane1,thread10,1.0,231.53,0.03,0.0,
221,,size_choice_confirmation,,html-keyboard-response,221,149843,0.0-1.0-295.0-0.0,0,0,30311,,,,,,73.0,,,,,,,,,,,,,,,,,,,,,,,,,,,,233.0,1.47,,
222,,iti,,html-keyboard-response,222,149945,0.0-1.0-296.0,0,0,30311,,,,,,,,,,,,,,,,,,,,,,,,,,,,,,,,,,234.0,1.0,,
223,,size_choice,,html-keyboard-response,223,150804,0.0-1.0-298.0,0,0,30311,,858.0,,,75.0,74.0,74.0,2.0,3000.0,M-M,,M,M,2.0,2.0,coffeemaker,handsaw,coffeemaker4,handsaw9,63.0,88.0,/static/Size_judgement/Stimuli/Size_stims/M/coffeemaker/coffeemaker11.jpg,/static/Size_judgement/Stimuli/Size_stims/M/handsaw/handsaw6.jpg,0.0,handsaw,coffeemaker,M,M,2.0,2.0,handsaw9,coffeemaker4,,234.858,0.858,0.0,
224,,size_choice_confirmation,,html-keyboard-response,224,151451,0.0-1.0-299.0-0.0,0,0,30311,,,,,,74.0,,,,,,,,,,,,,,,,,,,,,,,,,,,,235.5,0.642,,
225,,iti,,html-keyboard-response,225,151553,0.0-1.0-300.0,0,0,30311,,,,,,,,,,,,,,,,,,,,,,,,,,,,,,,,,,238.5,3.0,,
226,,size_choice,,html-keyboard-response,226,151619,0.0-1.0-302.0,0,0,30311,,65.0,,,75.0,75.0,75.0,2.0,1000.0,S-L,1.0,L,S,3.0,1.0,mailbox,teabag,mailbox8,teabag6,47.0,135.0,/static/Size_judgement/Stimuli/Size_stims/L/mailbox/mailbox10.jpg,/static/Size_judgement/Stimuli/Size_stims/S/teabag/teabag6.jpg,0.0,teabag,mailbox,S,L,1.0,3.0,teabag6,mailbox8,0.0,238.565,0.065,0.0,
227,,size_choice_confirmation,,html-keyboard-response,227,153060,0.0-1.0-303.0-0.0,0,0,30311,,,,,,75.0,,,,,,,,,,,,,,,,,,,,,,,,,,,,240.0,1.435,,
228,,iti,,html-keyboard-response,228,153161,0.0-1.0-304.0,0,0,30311,,,,,,,,,,,,,,,,,,,,,,,,,,,,,,,,,,241.0,1.0,,
229,,size_choice,,html-keyboard-response,229,153343,0.0-1.0-306.0,0,0,30311,,181.0,,,75.0,76.0,76.0,2.0,2000.0,M-XL,1.0,XL,M,4.0,2.0,car,ketchup,car9,ketchup3,158.0,92.0,/static/Size_judgement/Stimuli/Size_stims/XL/car/car15.jpg,/static/Size_judgement/Stimuli/Size_stims/M/ketchup/ketchup10.jpg,0.0,ketchup,car,M,XL,2.0,4.0,ketchup3,car9,0.0,241.181,0.181,0.0,
230,,size_choice_confirmation,,html-keyboard-response,230,154665,0.0-1.0-307.0-0.0,0,0,30311,,,,,,76.0,,,,,,,,,,,,,,,,,,,,,,,,,,,,242.5,1.319,,
231,,iti,,html-keyboard-response,231,154766,0.0-1.0-308.0,0,0,30311,,,,,,,,,,,,,,,,,,,,,,,,,,,,,,,,,,244.5,2.0,,
232,,size_choice,,html-keyboard-response,232,156080,0.0-1.0-310.0,0,0,30311,,1312.0,,,75.0,77.0,77.0,2.0,1000.0,M-XL,0.0,M,XL,2.0,4.0,basketball,dumptruck,basketball7,dumptruck6,56.0,175.0,/static/Size_judgement/Stimuli/Size_stims/M/basketball/basketball6.jpg,/static/Size_judgement/Stimuli/Size_stims/XL/dumptruck/dumptruck2.jpg,0.0,dumptruck,basketball,XL,M,4.0,2.0,dumptruck6,basketball7,1.0,245.812,1.312,0.0,
233,,size_choice_confirmation,,html-keyboard-response,233,156270,0.0-1.0-311.0-0.0,0,0,30311,,,,,,77.0,,,,,,,,,,,,,,,,,,,,,,,,,,,,246.0,0.188,,
234,,iti,,html-keyboard-response,234,156372,0.0-1.0-312.0,0,0,30311,,,,,,,,,,,,,,,,,,,,,,,,,,,,,,,,,,247.0,1.0,,
235,,size_choice,,html-keyboard-response,235,156914,0.0-1.0-314.0,0,0,30311,,541.0,,,75.0,78.0,78.0,2.0,1500.0,S-XL,1.0,XL,S,4.0,1.0,crane,teabag,crane3,teabag5,162.0,134.0,/static/Size_judgement/Stimuli/Size_stims/XL/crane/crane4.jpg,/static/Size_judgement/Stimuli/Size_stims/S/teabag/teabag2.jpg,0.0,teabag,crane,S,XL,1.0,4.0,teabag5,crane3,0.0,247.541,0.541,0.0,
236,,size_choice_confirmation,,html-keyboard-response,236,157876,0.0-1.0-315.0-0.0,0,0,30311,,,,,,78.0,,,,,,,,,,,,,,,,,,,,,,,,,,,,248.5,0.959,,
237,,iti,,html-keyboard-response,237,157977,0.0-1.0-316.0,0,0,30311,,,,,,,,,,,,,,,,,,,,,,,,,,,,,,,,,,250.0,1.5,,
238,,size_choice,,html-keyboard-response,238,158392,0.0-1.0-318.0,0,0,30311,,414.0,,,68.0,79.0,79.0,2.0,1500.0,M-XL,0.0,M,XL,2.0,4.0,handsaw,car,handsaw2,car2,81.0,151.0,/static/Size_judgement/Stimuli/Size_stims/M/handsaw/handsaw9.jpg,/static/Size_judgement/Stimuli/Size_stims/XL/car/car3.jpg,1.0,handsaw,car,M,XL,2.0,4.0,handsaw2,car2,0.0,250.414,0.414,0.0,
239,,size_choice_confirmation,,html-keyboard-response,239,159480,0.0-1.0-319.0-0.0,0,0,30311,,,,,,79.0,,,,,,,,,,,,,,,,,,,,,,,,,,,,251.5,1.086,,
240,,iti,,html-keyboard-response,240,159581,0.0-1.0-320.0,0,0,30311,,,,,,,,,,,,,,,,,,,,,,,,,,,,,,,,,,253.0,1.5,,
241,,size_choice,,html-keyboard-response,241,159872,0.0-1.0-322.0,0,0,30311,,290.0,,,68.0,80.0,80.0,2.0,2000.0,S-M,0.0,S,M,1.0,2.0,screws,handsaw,screws6,handsaw10,125.0,89.0,/static/Size_judgement/Stimuli/Size_stims/S/screws/screws3.jpg,/static/Size_judgement/Stimuli/Size_stims/M/handsaw/handsaw10.jpg,1.0,screws,handsaw,S,M,1.0,2.0,screws6,handsaw10,0.0,253.29,0.29,0.0,
242,,size_choice_confirmation,,html-keyboard-response,242,161087,0.0-1.0-323.0-0.0,0,0,30311,,,,,,80.0,,,,,,,,,,,,,,,,,,,,,,,,,,,,254.5,1.21,,
243,,iti,,html-keyboard-response,243,161188,0.0-1.0-324.0,0,0,30311,,,,,,,,,,,,,,,,,,,,,,,,,,,,,,,,,,256.5,2.0,,
244,,size_choice,,html-keyboard-response,244,161496,0.0-1.0-326.0,0,0,30311,,307.0,,,68.0,81.0,81.0,2.0,2000.0,L-L,,L,L,3.0,3.0,cooler,dishwasher,cooler2,dishwasher1,1.0,20.0,/static/Size_judgement/Stimuli/Size_stims/L/cooler/cooler9.jpg,/static/Size_judgement/Stimuli/Size_stims/L/dishwasher/dishwasher10.jpg,1.0,cooler,dishwasher,L,L,3.0,3.0,cooler2,dishwasher1,,256.807,0.307,0.0,
245,,size_choice_confirmation,,html-keyboard-response,245,162692,0.0-1.0-327.0-0.0,0,0,30311,,,,,,81.0,,,,,,,,,,,,,,,,,,,,,,,,,,,,258.0,1.193,,
246,,iti,,html-keyboard-response,246,162795,0.0-1.0-328.0,0,0,30311,,,,,,,,,,,,,,,,,,,,,,,,,,,,,,,,,,260.0,2.0,,
247,,size_choice,,html-keyboard-response,247,162880,0.0-1.0-330.0,0,0,30311,,84.0,,,75.0,82.0,82.0,2.0,1000.0,M-L,0.0,M,L,2.0,3.0,ketchup,deskchair,ketchup4,deskchair9,93.0,18.0,/static/Size_judgement/Stimuli/Size_stims/M/ketchup/ketchup2.jpg,/static/Size_judgement/Stimuli/Size_stims/L/deskchair/deskchair3.jpg,0.0,deskchair,ketchup,L,M,3.0,2.0,deskchair9,ketchup4,1.0,260.084,0.084,0.0,
248,,size_choice_confirmation,,html-keyboard-response,248,164299,0.0-1.0-331.0-0.0,0,0,30311,,,,,,82.0,,,,,,,,,,,,,,,,,,,,,,,,,,,,261.5,1.416,,
249,,iti,,html-keyboard-response,249,164400,0.0-1.0-332.0,0,0,30311,,,,,,,,,,,,,,,,,,,,,,,,,,,,,,,,,,262.5,1.0,,
250,,size_choice,,html-keyboard-response,250,164453,0.0-1.0-334.0,0,0,30311,,52.0,,,75.0,83.0,83.0,2.0,3000.0,S-S,,S,S,1.0,1.0,screws,teabag,screws10,teabag9,129.0,138.0,/static/Size_judgement/Stimuli/Size_stims/S/screws/screws9.jpg,/static/Size_judgement/Stimuli/Size_stims/S/teabag/teabag5.jpg,0.0,teabag,screws,S,S,1.0,1.0,teabag9,screws10,,262.552,0.052,0.0,
251,,size_choice_confirmation,,html-keyboard-response,251,165904,0.0-1.0-335.0-0.0,0,0,30311,,,,,,83.0,,,,,,,,,,,,,,,,,,,,,,,,,,,,264.0,1.448,,
252,,iti,,html-keyboard-response,252,166006,0.0-1.0-336.0,0,0,30311,,,,,,,,,,,,,,,,,,,,,,,,,,,,,,,,,,267.0,3.0,,
253,,size_choice,,html-keyboard-response,253,166032,0.0-1.0-338.0,0,0,30311,,25.0,,,68.0,84.0,84.0,2.0,1500.0,S-M,1.0,M,S,2.0,1.0,handsaw,paperclip,handsaw6,paperclip10,85.0,119.0,/static/Size_judgement/Stimuli/Size_stims/M/handsaw/handsaw4.jpg,/static/Size_judgement/Stimuli/Size_stims/S/paperclip/paperclip10.jpg,1.0,handsaw,paperclip,M,S,2.0,1.0,handsaw6,paperclip10,1.0,267.025,0.025,0.0,
254,,size_choice_confirmation,,html-keyboard-response,254,167510,0.0-1.0-339.0-0.0,0,0,30311,,,,,,84.0,,,,,,,,,,,,,,,,,,,,,,,,,,,,268.5,1.475,,
255,,iti,,html-keyboard-response,255,167614,0.0-1.0-340.0,0,0,30311,,,,,,,,,,,,,,,,,,,,,,,,,,,,,,,,,,270.0,1.5,,
256,,size_choice,,html-keyboard-response,256,167716,0.0-1.0-342.0,0,0,30311,,100.0,,,75.0,85.0,85.0,2.0,1000.0,S-XL,1.0,XL,S,4.0,1.0,car,teabag,car5,teabag1,154.0,130.0,/static/Size_judgement/Stimuli/Size_stims/XL/car/car11.jpg,/static/Size_judgement/Stimuli/Size_stims/S/teabag/teabag9.jpg,0.0,teabag,car,S,XL,1.0,4.0,teabag1,car5,0.0,270.1,0.1,0.0,
257,,size_choice_confirmation,,html-keyboard-response,257,169118,0.0-1.0-343.0-0.0,0,0,30311,,,,,,85.0,,,,,,,,,,,,,,,,,,,,,,,,,,,,271.5,1.4,,
258,,iti,,html-keyboard-response,258,169222,0.0-1.0-344.0,0,0,30311,,,,,,,,,,,,,,,,,,,,,,,,,,,,,,,,,,272.5,1.0,,
259,,size_choice,,html-keyboard-response,259,169315,0.0-1.0-346.0,0,0,30311,,93.0,,,75.0,86.0,86.0,2.0,1500.0,M-L,0.0,M,L,2.0,3.0,hairdryer,dishwasher,hairdryer10,dishwasher8,79.0,27.0,/static/Size_judgement/Stimuli/Size_stims/M/hairdryer/hairdryer6.jpg,/static/Size_judgement/Stimuli/Size_stims/L/dishwasher/dishwasher3.jpg,0.0,dishwasher,hairdryer,L,M,3.0,2.0,dishwasher8,hairdryer10,1.0,272.593,0.093,0.0,
260,,size_choice_confirmation,,html-keyboard-response,260,170724,0.0-1.0-347.0-0.0,0,0,30311,,,,,,86.0,,,,,,,,,,,,,,,,,,,,,,,,,,,,274.0,1.407,,
261,,iti,,html-keyboard-response,261,170827,0.0-1.0-348.0,0,0,30311,,,,,,,,,,,,,,,,,,,,,,,,,,,,,,,,,,275.5,1.5,,
262,,size_choice,,html-keyboard-response,262,170926,0.0-1.0-350.0,0,0,30311,,98.0,,,75.0,87.0,87.0,2.0,1000.0,L-XL,1.0,XL,L,4.0,3.0,van,deskchair,van2,deskchair4,191.0,13.0,/static/Size_judgement/Stimuli/Size_stims/XL/van/van4.jpg,/static/Size_judgement/Stimuli/Size_stims/L/deskchair/deskchair6.jpg,0.0,deskchair,van,L,XL,3.0,4.0,deskchair4,van2,0.0,275.598,0.098,0.0,
263,,size_choice_confirmation,,html-keyboard-response,263,172331,0.0-1.0-351.0-0.0,0,0,30311,,,,,,87.0,,,,,,,,,,,,,,,,,,,,,,,,,,,,277.0,1.402,,
264,,iti,,html-keyboard-response,264,172432,0.0-1.0-352.0,0,0,30311,,,,,,,,,,,,,,,,,,,,,,,,,,,,,,,,,,278.0,1.0,,
265,,size_choice,,html-keyboard-response,265,172647,0.0-1.0-354.0,0,0,30311,,214.0,,,75.0,88.0,88.0,2.0,1500.0,S-L,1.0,L,S,3.0,1.0,dishwasher,teabag,dishwasher5,teabag7,24.0,136.0,/static/Size_judgement/Stimuli/Size_stims/L/dishwasher/dishwasher4.jpg,/static/Size_judgement/Stimuli/Size_stims/S/teabag/teabag10.jpg,0.0,teabag,dishwasher,S,L,1.0,3.0,teabag7,dishwasher5,0.0,278.214,0.214,0.0,
266,,size_choice_confirmation,,html-keyboard-response,266,173935,0.0-1.0-355.0-0.0,0,0,30311,,,,,,88.0,,,,,,,,,,,,,,,,,,,,,,,,,,,,279.5,1.286,,
267,,iti,,html-keyboard-response,267,174040,0.0-1.0-356.0,0,0,30311,,,,,,,,,,,,,,,,,,,,,,,,,,,,,,,,,,281.0,1.5,,
268,,size_choice,,html-keyboard-response,268,174172,0.0-1.0-358.0,0,0,30311,,131.0,,,68.0,89.0,89.0,2.0,1500.0,M-L,0.0,M,L,2.0,3.0,hairdryer,garbagecan,hairdryer7,garbagecan4,76.0,33.0,/static/Size_judgement/Stimuli/Size_stims/M/hairdryer/hairdryer3.jpg,/static/Size_judgement/Stimuli/Size_stims/L/garbagecan/garbagecan6.jpg,1.0,hairdryer,garbagecan,M,L,2.0,3.0,hairdryer7,garbagecan4,0.0,281.131,0.131,0.0,
269,,size_choice_confirmation,,html-keyboard-response,269,175543,0.0-1.0-359.0-0.0,0,0,30311,,,,,,89.0,,,,,,,,,,,,,,,,,,,,,,,,,,,,282.5,1.369,,
270,,iti,,html-keyboard-response,270,175647,0.0-1.0-360.0,0,0,30311,,,,,,,,,,,,,,,,,,,,,,,,,,,,,,,,,,284.0,1.5,,0.46
271,,size_final_tally,,html-keyboard-response,271,175860,0.0-2.0,0,0,30311,,212.0,,,68.0,,,,,,,,,,,,,,,,,,,,,,,,,,,,,,,,
272,,debreif_intro,,html-keyboard-response,272,176201,0.0-3.0,0,0,30311,,323.0,,,68.0,,,,,,,,,,,,,,,,,,,,,,,,,,,,,,,,
273,,debreif_age,,survey-text,273,178655,0.0-4.0,0,0,30311,,2453.0,"{""Q0"":""0""}",,,,,,,,,,,,,,,,,,,,,,,,,,,,,,,,,,
274,,debreif_gender,,survey-multi-choice,274,180966,0.0-5.0,0,0,30311,,2309.0,"{""Q0"":""Female""}",,,,,,,,,,,,,,,,,,,,,,,,,,,,,,,,,,
275,,debreif_dominant_hand,,survey-multi-choice,275,182189,0.0-6.0,0,0,30311,,1221.0,"{""Q0"":""Left""}",,,,,,,,,,,,,,,,,,,,,,,,,,,,,,,,,,
276,,debreif_native_language,,survey-multi-choice,276,183378,0.0-7.0,0,0,30311,,1187.0,"{""Q0"":""Yes""}",,,,,,,,,,,,,,,,,,,,,,,,,,,,,,,,,,
277,,debreif_fluency,,survey-likert,277,184641,0.0-8.0,0,0,30311,,1261.0,"{""Q0"":1}",,,,,,,,,,,,,,,,,,,,,,,,,,,,,,,,,,
278,,debreif_strategy_category_learning,,survey-text,278,186324,0.0-9.0,0,0,30311,,1681.0,"{""Q0"":""0""}",,,,,,,,,,,,,,,,,,,,,,,,,,,,,,,,,,
279,,debreif_strategy_old_trials,,survey-text,279,187334,0.0-10.0,0,0,30311,,1009.0,"{""Q0"":""0""}",,,,,,,,,,,,,,,,,,,,,,,,,,,,,,,,,,
280,,debreif_strategy_size,,survey-text,280,188387,0.0-11.0,0,0,30311,,1052.0,"{""Q0"":""0""}",,,,,,,,,,,,,,,,,,,,,,,,,,,,,,,,,,
281,,debreif_strategy_rl,,survey-text,281,190721,0.0-12.0,0,0,30311,,2334.0,"{""Q0"":""0""}",,,,,,,,,,,,,,,,,,,,,,,,,,,,,,,,,,
282,,debreif_clear_instructions,,survey-text,282,192314,0.0-13.0,0,0,30311,,1591.0,"{""Q0"":""0""}",,,,,,,,,,,,,,,,,,,,,,,,,,,,,,,,,,
283,,debreif_end,,html-keyboard-response,283,196470,0.0-14.0,0,0,30311,,4156.0,,,32.0,,,,,,,,,,,,,,,,,,,,,,,,,,,,,,,,
