,success,ttype,start_time,trial_type,trial_index,time_elapsed,internal_node_id,warning,missed_checkup,PID,view_history,rt,responses,repeat_instructions,key_press,index,trial_num,block,iti,pair_type,high_size_on_left,left_size_group,right_size_group,left_size_num,right_size_num,left_category,right_category,left_exemplar,right_exemplar,left_index,right_index,left_img_path,right_img_path,left_chosen,chosen_category,unchosen_category,chosen_size_group,unchosen_size_group,chosen_size_num,unchosen_size_num,chosen_exemplar,unchosen_exemplar,accuracy,no_response,onset,duration,no_resposne,size_final_tally
0,True,full_screen,d05232022hr1521,fullscreen,0,2769,0.0-0.0,0,0,3,,,,,,,,,,,,,,,,,,,,,,,,,,,,,,,,,,,,,,
1,,size_instructions,,instructions,1,9879,0.0-1.0-0.0-0.0,0,0,3,"[{""page_index"":0,""viewing_time"":1334},{""page_index"":1,""viewing_time"":434},{""page_index"":2,""viewing_time"":679},{""page_index"":3,""viewing_time"":1119},{""page_index"":2,""viewing_time"":911},{""page_index"":3,""viewing_time"":397},{""page_index"":4,""viewing_time"":388},{""page_index"":5,""viewing_time"":1843}]",7106.0,,,,,,,,,,,,,,,,,,,,,,,,,,,,,,,,,,,,
2,,size_comprehension_check,,survey-multi-choice,2,14242,0.0-1.0-0.0-1.0,0,0,3,,4359.0,"{""Q0"":""True"",""Q1"":""Size on the screen"",""Q2"":""True"",""Q3"":""pointer finger for left and middle finger for right""}",1.0,,,,,,,,,,,,,,,,,,,,,,,,,,,,,,,,,,
3,,,,html-keyboard-response,3,15260,0.0-1.0-1.0,0,0,3,,1016.0,,,50.0,,,,,,,,,,,,,,,,,,,,,,,,,,,,,,,,,
4,,size_choice,,html-keyboard-response,4,15782,0.0-1.0-2.0,0,0,3,,521.0,,,50.0,0.0,0.0,1.0,1500.0,S-M,0.0,S,M,1.0,2.0,die,basketball,die2,basketball9,101.0,58.0,/static/Size_judgement/Stimuli/Size_stims/S/die/die9.jpg,/static/Size_judgement/Stimuli/Size_stims/M/basketball/basketball5.jpg,1.0,die,basketball,S,M,1.0,2.0,die2,basketball9,0.0,0.0,0.521,0.521,,
5,,size_choice_confirmation,,html-keyboard-response,5,16765,0.0-1.0-3.0-0.0,0,0,3,,,,,,0.0,,,,,,,,,,,,,,,,,,,,,,,,,,,,,1.5,0.979,,
6,,iti,,html-keyboard-response,6,16870,0.0-1.0-4.0,0,0,3,,,,,,,,,,,,,,,,,,,,,,,,,,,,,,,,,,,3.0,1.5,,
7,,size_choice,,html-keyboard-response,7,17105,0.0-1.0-6.0,0,0,3,,234.0,,,50.0,1.0,1.0,1.0,1500.0,S-L,1.0,L,S,3.0,1.0,cooler,die,cooler7,die7,6.0,106.0,/static/Size_judgement/Stimuli/Size_stims/L/cooler/cooler4.jpg,/static/Size_judgement/Stimuli/Size_stims/S/die/die4.jpg,1.0,cooler,die,L,S,3.0,1.0,cooler7,die7,1.0,0.0,3.234,0.234,,
8,,size_choice_confirmation,,html-keyboard-response,8,18378,0.0-1.0-7.0-0.0,0,0,3,,,,,,1.0,,,,,,,,,,,,,,,,,,,,,,,,,,,,,4.5,1.266,,
9,,iti,,html-keyboard-response,9,18485,0.0-1.0-8.0,0,0,3,,,,,,,,,,,,,,,,,,,,,,,,,,,,,,,,,,,6.0,1.5,,
10,,size_choice,,html-keyboard-response,10,18595,0.0-1.0-10.0,0,0,3,,108.0,,,51.0,2.0,2.0,1.0,3000.0,M-XL,1.0,XL,M,4.0,2.0,car,hairdryer,car3,hairdryer4,152.0,73.0,/static/Size_judgement/Stimuli/Size_stims/XL/car/car4.jpg,/static/Size_judgement/Stimuli/Size_stims/M/hairdryer/hairdryer16.jpg,0.0,hairdryer,car,M,XL,2.0,4.0,hairdryer4,car3,0.0,0.0,6.108,0.108,,
11,,size_choice_confirmation,,html-keyboard-response,11,19990,0.0-1.0-11.0-0.0,0,0,3,,,,,,2.0,,,,,,,,,,,,,,,,,,,,,,,,,,,,,7.5,1.392,,
12,,iti,,html-keyboard-response,12,20093,0.0-1.0-12.0,0,0,3,,,,,,,,,,,,,,,,,,,,,,,,,,,,,,,,,,,10.5,3.0,,
13,,size_choice,,html-keyboard-response,13,20622,0.0-1.0-14.0,0,0,3,,528.0,,,51.0,3.0,3.0,1.0,1000.0,M-L,1.0,L,M,3.0,2.0,garbagecan,ketchup,garbagecan10,ketchup8,39.0,97.0,/static/Size_judgement/Stimuli/Size_stims/L/garbagecan/garbagecan11.jpg,/static/Size_judgement/Stimuli/Size_stims/M/ketchup/ketchup5.jpg,0.0,ketchup,garbagecan,M,L,2.0,3.0,ketchup8,garbagecan10,0.0,0.0,11.028,0.528,,
14,,size_choice_confirmation,,html-keyboard-response,14,21600,0.0-1.0-15.0-0.0,0,0,3,,,,,,3.0,,,,,,,,,,,,,,,,,,,,,,,,,,,,,12.0,0.972,,
15,,iti,,html-keyboard-response,15,21703,0.0-1.0-16.0,0,0,3,,,,,,,,,,,,,,,,,,,,,,,,,,,,,,,,,,,13.0,1.0,,
16,,size_choice,,html-keyboard-response,16,22076,0.0-1.0-18.0,0,0,3,,372.0,,,51.0,4.0,4.0,1.0,2000.0,S-S,,S,S,1.0,1.0,thread,teabag,thread6,teabag4,145.0,133.0,/static/Size_judgement/Stimuli/Size_stims/S/thread/thread2.jpg,/static/Size_judgement/Stimuli/Size_stims/S/teabag/teabag3.jpg,0.0,teabag,thread,S,S,1.0,1.0,teabag4,thread6,,0.0,13.372,0.372,,
17,,size_choice_confirmation,,html-keyboard-response,17,23210,0.0-1.0-19.0-0.0,0,0,3,,,,,,4.0,,,,,,,,,,,,,,,,,,,,,,,,,,,,,14.5,1.128,,
18,,iti,,html-keyboard-response,18,23315,0.0-1.0-20.0,0,0,3,,,,,,,,,,,,,,,,,,,,,,,,,,,,,,,,,,,16.5,2.0,,
19,,size_choice,,html-keyboard-response,19,23536,0.0-1.0-22.0,0,0,3,,218.0,,,50.0,5.0,5.0,1.0,3000.0,M-XL,1.0,XL,M,4.0,2.0,tractor,ketchup,tractor8,ketchup1,187.0,90.0,/static/Size_judgement/Stimuli/Size_stims/XL/tractor/tractor10.jpg,/static/Size_judgement/Stimuli/Size_stims/M/ketchup/ketchup8.jpg,1.0,tractor,ketchup,XL,M,4.0,2.0,tractor8,ketchup1,1.0,0.0,16.718,0.218,,
20,,size_choice_confirmation,,html-keyboard-response,20,24821,0.0-1.0-23.0-0.0,0,0,3,,,,,,5.0,,,,,,,,,,,,,,,,,,,,,,,,,,,,,18.0,1.282,,
21,,iti,,html-keyboard-response,21,24925,0.0-1.0-24.0,0,0,3,,,,,,,,,,,,,,,,,,,,,,,,,,,,,,,,,,,21.0,3.0,,
22,,size_choice,,html-keyboard-response,22,25590,0.0-1.0-26.0,0,0,3,,663.0,,,50.0,6.0,6.0,1.0,1000.0,S-S,,S,S,1.0,1.0,paperclip,teabag,paperclip3,teabag2,112.0,131.0,/static/Size_judgement/Stimuli/Size_stims/S/paperclip/paperclip1.jpg,/static/Size_judgement/Stimuli/Size_stims/S/teabag/teabag8.jpg,1.0,paperclip,teabag,S,S,1.0,1.0,paperclip3,teabag2,,0.0,21.663,0.663,,
23,,size_choice_confirmation,,html-keyboard-response,23,26431,0.0-1.0-27.0-0.0,0,0,3,,,,,,6.0,,,,,,,,,,,,,,,,,,,,,,,,,,,,,22.5,0.837,,
24,,iti,,html-keyboard-response,24,26533,0.0-1.0-28.0,0,0,3,,,,,,,,,,,,,,,,,,,,,,,,,,,,,,,,,,,23.5,1.0,,
25,,size_choice,,html-keyboard-response,25,26799,0.0-1.0-30.0,0,0,3,,265.0,,,50.0,7.0,7.0,1.0,1000.0,S-M,0.0,S,M,1.0,2.0,paperclip,hairdryer,paperclip1,hairdryer6,110.0,75.0,/static/Size_judgement/Stimuli/Size_stims/S/paperclip/paperclip9.jpg,/static/Size_judgement/Stimuli/Size_stims/M/hairdryer/hairdryer8.jpg,1.0,paperclip,hairdryer,S,M,1.0,2.0,paperclip1,hairdryer6,0.0,0.0,23.765,0.265,,
26,,size_choice_confirmation,,html-keyboard-response,26,28037,0.0-1.0-31.0-0.0,0,0,3,,,,,,7.0,,,,,,,,,,,,,,,,,,,,,,,,,,,,,25.0,1.235,,
27,,iti,,html-keyboard-response,27,28142,0.0-1.0-32.0,0,0,3,,,,,,,,,,,,,,,,,,,,,,,,,,,,,,,,,,,26.0,1.0,,
28,,size_choice,,html-keyboard-response,28,28253,0.0-1.0-34.0,0,0,3,,108.0,,,50.0,8.0,8.0,1.0,1500.0,S-L,1.0,L,S,3.0,1.0,garbagecan,die,garbagecan6,die4,35.0,103.0,/static/Size_judgement/Stimuli/Size_stims/L/garbagecan/garbagecan14.jpg,/static/Size_judgement/Stimuli/Size_stims/S/die/die2.jpg,1.0,garbagecan,die,L,S,3.0,1.0,garbagecan6,die4,1.0,0.0,26.108,0.108,,
29,,size_choice_confirmation,,html-keyboard-response,29,29648,0.0-1.0-35.0-0.0,0,0,3,,,,,,8.0,,,,,,,,,,,,,,,,,,,,,,,,,,,,,27.5,1.392,,
30,,iti,,html-keyboard-response,30,29750,0.0-1.0-36.0,0,0,3,,,,,,,,,,,,,,,,,,,,,,,,,,,,,,,,,,,29.0,1.5,,
31,,size_choice,,html-keyboard-response,31,30024,0.0-1.0-38.0,0,0,3,,272.0,,,50.0,9.0,9.0,1.0,1000.0,L-L,,L,L,3.0,3.0,garbagecan,deskchair,garbagecan8,deskchair6,37.0,15.0,/static/Size_judgement/Stimuli/Size_stims/L/garbagecan/garbagecan13.jpg,/static/Size_judgement/Stimuli/Size_stims/L/deskchair/deskchair5.jpg,1.0,garbagecan,deskchair,L,L,3.0,3.0,garbagecan8,deskchair6,,0.0,29.272,0.272,,
32,,size_choice_confirmation,,html-keyboard-response,32,31259,0.0-1.0-39.0-0.0,0,0,3,,,,,,9.0,,,,,,,,,,,,,,,,,,,,,,,,,,,,,30.5,1.228,,
33,,iti,,html-keyboard-response,33,31362,0.0-1.0-40.0,0,0,3,,,,,,,,,,,,,,,,,,,,,,,,,,,,,,,,,,,31.5,1.0,,
34,,size_choice,,html-keyboard-response,34,31561,0.0-1.0-42.0,0,0,3,,197.0,,,50.0,10.0,10.0,1.0,1000.0,S-XL,1.0,XL,S,4.0,1.0,crane,screws,crane7,screws3,166.0,122.0,/static/Size_judgement/Stimuli/Size_stims/XL/crane/crane3.jpg,/static/Size_judgement/Stimuli/Size_stims/S/screws/screws7.jpg,1.0,crane,screws,XL,S,4.0,1.0,crane7,screws3,1.0,0.0,31.697,0.197,,
35,,size_choice_confirmation,,html-keyboard-response,35,32870,0.0-1.0-43.0-0.0,0,0,3,,,,,,10.0,,,,,,,,,,,,,,,,,,,,,,,,,,,,,33.0,1.303,,
36,,iti,,html-keyboard-response,36,32975,0.0-1.0-44.0,0,0,3,,,,,,,,,,,,,,,,,,,,,,,,,,,,,,,,,,,34.0,1.0,,
37,,size_choice,,html-keyboard-response,37,33429,0.0-1.0-46.0,0,0,3,,453.0,,,50.0,11.0,11.0,1.0,2000.0,M-L,1.0,L,M,3.0,2.0,deskchair,coffeemaker,deskchair1,coffeemaker3,10.0,62.0,/static/Size_judgement/Stimuli/Size_stims/L/deskchair/deskchair9.jpg,/static/Size_judgement/Stimuli/Size_stims/M/coffeemaker/coffeemaker13.jpg,1.0,deskchair,coffeemaker,L,M,3.0,2.0,deskchair1,coffeemaker3,1.0,0.0,34.453,0.453,,
38,,size_choice_confirmation,,html-keyboard-response,38,34483,0.0-1.0-47.0-0.0,0,0,3,,,,,,11.0,,,,,,,,,,,,,,,,,,,,,,,,,,,,,35.5,1.047,,
39,,iti,,html-keyboard-response,39,34585,0.0-1.0-48.0,0,0,3,,,,,,,,,,,,,,,,,,,,,,,,,,,,,,,,,,,37.5,2.0,,
40,,size_choice,,html-keyboard-response,40,34988,0.0-1.0-50.0,0,0,3,,400.0,,,50.0,12.0,12.0,1.0,3500.0,L-L,,L,L,3.0,3.0,deskchair,garbagecan,deskchair2,garbagecan5,11.0,34.0,/static/Size_judgement/Stimuli/Size_stims/L/deskchair/deskchair8.jpg,/static/Size_judgement/Stimuli/Size_stims/L/garbagecan/garbagecan3.jpg,1.0,deskchair,garbagecan,L,L,3.0,3.0,deskchair2,garbagecan5,,0.0,37.9,0.4,,
41,,size_choice_confirmation,,html-keyboard-response,41,36092,0.0-1.0-51.0-0.0,0,0,3,,,,,,12.0,,,,,,,,,,,,,,,,,,,,,,,,,,,,,39.0,1.1,,
42,,iti,,html-keyboard-response,42,36198,0.0-1.0-52.0,0,0,3,,,,,,,,,,,,,,,,,,,,,,,,,,,,,,,,,,,42.5,3.5,,
43,,size_choice,,html-keyboard-response,43,37702,0.0-1.0-54.0,0,0,3,,,,,,13.0,13.0,1.0,3500.0,M-L,1.0,L,M,3.0,2.0,dishwasher,coffeemaker,dishwasher6,coffeemaker7,25.0,66.0,/static/Size_judgement/Stimuli/Size_stims/L/dishwasher/dishwasher6.jpg,/static/Size_judgement/Stimuli/Size_stims/M/coffeemaker/coffeemaker9.jpg,,,,,,,,,,,,44.0,1.5,1.0,
44,,iti,,html-keyboard-response,44,37803,0.0-1.0-56.0,0,0,3,,,,,,,,,,,,,,,,,,,,,,,,,,,,,,,,,,,46.5,2.5,,
45,,size_choice,,html-keyboard-response,45,39307,0.0-1.0-58.0,0,0,3,,,,,,14.0,14.0,1.0,1000.0,S-L,0.0,S,L,1.0,3.0,screws,deskchair,screws5,deskchair3,124.0,12.0,/static/Size_judgement/Stimuli/Size_stims/S/screws/screws2.jpg,/static/Size_judgement/Stimuli/Size_stims/L/deskchair/deskchair10.jpg,,,,,,,,,,,,48.0,1.5,1.0,
46,,iti,,html-keyboard-response,46,39408,0.0-1.0-60.0,0,0,3,,,,,,,,,,,,,,,,,,,,,,,,,,,,,,,,,,,48.0,0.0,,
47,,size_choice,,html-keyboard-response,47,40913,0.0-1.0-62.0,0,0,3,,,,,,15.0,15.0,1.0,2000.0,L-XL,1.0,XL,L,4.0,3.0,van,dishwasher,van9,dishwasher10,198.0,29.0,/static/Size_judgement/Stimuli/Size_stims/XL/van/van9.jpg,/static/Size_judgement/Stimuli/Size_stims/L/dishwasher/dishwasher1.jpg,,,,,,,,,,,,49.5,1.5,1.0,
48,,iti,,html-keyboard-response,48,41019,0.0-1.0-64.0,0,0,3,,,,,,,,,,,,,,,,,,,,,,,,,,,,,,,,,,,50.5,1.0,,
49,,size_choice,,html-keyboard-response,49,42523,0.0-1.0-66.0,0,0,3,,,,,,16.0,16.0,1.0,1500.0,S-S,,S,S,1.0,1.0,die,screws,die3,screws8,102.0,127.0,/static/Size_judgement/Stimuli/Size_stims/S/die/die10.jpg,/static/Size_judgement/Stimuli/Size_stims/S/screws/screws10.jpg,,,,,,,,,,,,52.0,1.5,1.0,
50,,iti,,html-keyboard-response,50,42624,0.0-1.0-68.0,0,0,3,,,,,,,,,,,,,,,,,,,,,,,,,,,,,,,,,,,52.5,0.5,,
51,,size_choice,,html-keyboard-response,51,44129,0.0-1.0-70.0,0,0,3,,,,,,17.0,17.0,1.0,1500.0,M-M,,M,M,2.0,2.0,ketchup,handsaw,ketchup2,handsaw8,91.0,87.0,/static/Size_judgement/Stimuli/Size_stims/M/ketchup/ketchup9.jpg,/static/Size_judgement/Stimuli/Size_stims/M/handsaw/handsaw7.jpg,,,,,,,,,,,,54.0,1.5,1.0,
52,,iti,,html-keyboard-response,52,44234,0.0-1.0-72.0,0,0,3,,,,,,,,,,,,,,,,,,,,,,,,,,,,,,,,,,,54.5,0.5,,
53,,size_choice,,html-keyboard-response,53,45740,0.0-1.0-74.0,0,0,3,,,,,,18.0,18.0,1.0,1000.0,M-L,1.0,L,M,3.0,2.0,cooler,basketball,cooler4,basketball6,3.0,55.0,/static/Size_judgement/Stimuli/Size_stims/L/cooler/cooler3.jpg,/static/Size_judgement/Stimuli/Size_stims/M/basketball/basketball2.jpg,,,,,,,,,,,,56.0,1.5,1.0,
54,,iti,,html-keyboard-response,54,45843,0.0-1.0-76.0,0,0,3,,,,,,,,,,,,,,,,,,,,,,,,,,,,,,,,,,,56.0,0.0,,
55,,size_choice,,html-keyboard-response,55,47346,0.0-1.0-78.0,0,0,3,,,,,,19.0,19.0,1.0,1500.0,S-XL,1.0,XL,S,4.0,1.0,tractor,teabag,tractor6,teabag10,185.0,139.0,/static/Size_judgement/Stimuli/Size_stims/XL/tractor/tractor3.jpg,/static/Size_judgement/Stimuli/Size_stims/S/teabag/teabag4.jpg,,,,,,,,,,,,57.5,1.5,1.0,
56,,iti,,html-keyboard-response,56,47451,0.0-1.0-80.0,0,0,3,,,,,,,,,,,,,,,,,,,,,,,,,,,,,,,,,,,58.0,0.5,,
57,,size_choice,,html-keyboard-response,57,48955,0.0-1.0-82.0,0,0,3,,,,,,20.0,20.0,1.0,2000.0,M-XL,0.0,M,XL,2.0,4.0,handsaw,tractor,handsaw1,tractor2,80.0,181.0,/static/Size_judgement/Stimuli/Size_stims/M/handsaw/handsaw8.jpg,/static/Size_judgement/Stimuli/Size_stims/XL/tractor/tractor7.jpg,,,,,,,,,,,,59.5,1.5,1.0,
58,,iti,,html-keyboard-response,58,49060,0.0-1.0-84.0,0,0,3,,,,,,,,,,,,,,,,,,,,,,,,,,,,,,,,,,,60.5,1.0,,
59,,size_choice,,html-keyboard-response,59,50566,0.0-1.0-86.0,0,0,3,,,,,,21.0,21.0,1.0,1000.0,L-L,,L,L,3.0,3.0,mailbox,garbagecan,mailbox2,garbagecan7,41.0,36.0,/static/Size_judgement/Stimuli/Size_stims/L/mailbox/mailbox2.jpg,/static/Size_judgement/Stimuli/Size_stims/L/garbagecan/garbagecan16.jpg,,,,,,,,,,,,62.0,1.5,1.0,
60,,iti,,html-keyboard-response,60,50670,0.0-1.0-88.0,0,0,3,,,,,,,,,,,,,,,,,,,,,,,,,,,,,,,,,,,62.0,0.0,,
61,,size_choice,,html-keyboard-response,61,52172,0.0-1.0-90.0,0,0,3,,,,,,22.0,22.0,1.0,2000.0,M-M,,M,M,2.0,2.0,ketchup,hairdryer,ketchup5,hairdryer5,94.0,74.0,/static/Size_judgement/Stimuli/Size_stims/M/ketchup/ketchup3.jpg,/static/Size_judgement/Stimuli/Size_stims/M/hairdryer/hairdryer15.jpg,,,,,,,,,,,,63.5,1.5,1.0,
62,,iti,,html-keyboard-response,62,52278,0.0-1.0-92.0,0,0,3,,,,,,,,,,,,,,,,,,,,,,,,,,,,,,,,,,,64.5,1.0,,
63,,size_choice,,html-keyboard-response,63,53783,0.0-1.0-94.0,0,0,3,,,,,,23.0,23.0,1.0,1000.0,M-XL,1.0,XL,M,4.0,2.0,crane,basketball,crane6,basketball5,165.0,54.0,/static/Size_judgement/Stimuli/Size_stims/XL/crane/crane2.jpg,/static/Size_judgement/Stimuli/Size_stims/M/basketball/basketball3.jpg,,,,,,,,,,,,66.0,1.5,1.0,
64,,iti,,html-keyboard-response,64,53888,0.0-1.0-96.0,0,0,3,,,,,,,,,,,,,,,,,,,,,,,,,,,,,,,,,,,66.0,0.0,,
65,,size_choice,,html-keyboard-response,65,55395,0.0-1.0-98.0,0,0,3,,,,,,24.0,24.0,1.0,2000.0,M-XL,0.0,M,XL,2.0,4.0,coffeemaker,tractor,coffeemaker5,tractor9,64.0,188.0,/static/Size_judgement/Stimuli/Size_stims/M/coffeemaker/coffeemaker10.jpg,/static/Size_judgement/Stimuli/Size_stims/XL/tractor/tractor9.jpg,,,,,,,,,,,,67.5,1.5,1.0,
66,,iti,,html-keyboard-response,66,55500,0.0-1.0-100.0,0,0,3,,,,,,,,,,,,,,,,,,,,,,,,,,,,,,,,,,,68.5,1.0,,
67,,size_choice,,html-keyboard-response,67,57005,0.0-1.0-102.0,0,0,3,,,,,,25.0,25.0,1.0,1000.0,L-XL,1.0,XL,L,4.0,3.0,dumptruck,dishwasher,dumptruck10,dishwasher7,179.0,26.0,/static/Size_judgement/Stimuli/Size_stims/XL/dumptruck/dumptruck4.jpg,/static/Size_judgement/Stimuli/Size_stims/L/dishwasher/dishwasher7.jpg,,,,,,,,,,,,70.0,1.5,1.0,
68,,iti,,html-keyboard-response,68,57111,0.0-1.0-104.0,0,0,3,,,,,,,,,,,,,,,,,,,,,,,,,,,,,,,,,,,70.0,0.0,,
69,,size_choice,,html-keyboard-response,69,58617,0.0-1.0-106.0,0,0,3,,,,,,26.0,26.0,1.0,1000.0,S-XL,1.0,XL,S,4.0,1.0,dumptruck,die,dumptruck4,die1,173.0,100.0,/static/Size_judgement/Stimuli/Size_stims/XL/dumptruck/dumptruck1.jpg,/static/Size_judgement/Stimuli/Size_stims/S/die/die8.jpg,,,,,,,,,,,,71.5,1.5,1.0,
70,,iti,,html-keyboard-response,70,58721,0.0-1.0-108.0,0,0,3,,,,,,,,,,,,,,,,,,,,,,,,,,,,,,,,,,,71.5,0.0,,
71,,size_choice,,html-keyboard-response,71,60226,0.0-1.0-110.0,0,0,3,,,,,,27.0,27.0,1.0,1500.0,M-XL,0.0,M,XL,2.0,4.0,coffeemaker,dumptruck,coffeemaker8,dumptruck5,67.0,174.0,/static/Size_judgement/Stimuli/Size_stims/M/coffeemaker/coffeemaker5.jpg,/static/Size_judgement/Stimuli/Size_stims/XL/dumptruck/dumptruck3.jpg,,,,,,,,,,,,73.0,1.5,1.0,
72,,iti,,html-keyboard-response,72,60331,0.0-1.0-112.0,0,0,3,,,,,,,,,,,,,,,,,,,,,,,,,,,,,,,,,,,73.5,0.5,,
73,,size_choice,,html-keyboard-response,73,61835,0.0-1.0-114.0,0,0,3,,,,,,28.0,28.0,1.0,1500.0,XL-XL,,XL,XL,4.0,4.0,van,car,van6,car4,195.0,153.0,/static/Size_judgement/Stimuli/Size_stims/XL/van/van2.jpg,/static/Size_judgement/Stimuli/Size_stims/XL/car/car6.jpg,,,,,,,,,,,,75.0,1.5,1.0,
74,,iti,,html-keyboard-response,74,61937,0.0-1.0-116.0,0,0,3,,,,,,,,,,,,,,,,,,,,,,,,,,,,,,,,,,,75.5,0.5,,
75,,size_choice,,html-keyboard-response,75,63441,0.0-1.0-118.0,0,0,3,,,,,,29.0,29.0,1.0,1000.0,S-L,1.0,L,S,3.0,1.0,mailbox,thread,mailbox4,thread1,43.0,140.0,/static/Size_judgement/Stimuli/Size_stims/L/mailbox/mailbox5.jpg,/static/Size_judgement/Stimuli/Size_stims/S/thread/thread7.jpg,,,,,,,,,,,,77.0,1.5,1.0,
76,,iti,,html-keyboard-response,76,63546,0.0-1.0-120.0,0,0,3,,,,,,,,,,,,,,,,,,,,,,,,,,,,,,,,,,,77.0,0.0,,
77,,size_choice,,html-keyboard-response,77,65052,0.0-1.0-122.0,0,0,3,,,,,,30.0,30.0,1.0,1000.0,M-XL,0.0,M,XL,2.0,4.0,basketball,dumptruck,basketball4,dumptruck9,53.0,178.0,/static/Size_judgement/Stimuli/Size_stims/M/basketball/basketball1.jpg,/static/Size_judgement/Stimuli/Size_stims/XL/dumptruck/dumptruck5.jpg,,,,,,,,,,,,78.5,1.5,1.0,
78,,iti,,html-keyboard-response,78,65155,0.0-1.0-124.0,0,0,3,,,,,,,,,,,,,,,,,,,,,,,,,,,,,,,,,,,78.5,0.0,,
79,,size_choice,,html-keyboard-response,79,66657,0.0-1.0-126.0,0,0,3,,,,,,31.0,31.0,1.0,1000.0,M-L,0.0,M,L,2.0,3.0,ketchup,cooler,ketchup6,cooler9,95.0,8.0,/static/Size_judgement/Stimuli/Size_stims/M/ketchup/ketchup1.jpg,/static/Size_judgement/Stimuli/Size_stims/L/cooler/cooler7.jpg,,,,,,,,,,,,80.0,1.5,1.0,
80,,iti,,html-keyboard-response,80,66759,0.0-1.0-128.0,0,0,3,,,,,,,,,,,,,,,,,,,,,,,,,,,,,,,,,,,80.0,0.0,,
81,,size_choice,,html-keyboard-response,81,68263,0.0-1.0-130.0,0,0,3,,,,,,32.0,32.0,1.0,1000.0,XL-XL,,XL,XL,4.0,4.0,car,van,car6,van4,155.0,193.0,/static/Size_judgement/Stimuli/Size_stims/XL/car/car12.jpg,/static/Size_judgement/Stimuli/Size_stims/XL/van/van7.jpg,,,,,,,,,,,,81.5,1.5,1.0,
82,,iti,,html-keyboard-response,82,68367,0.0-1.0-132.0,0,0,3,,,,,,,,,,,,,,,,,,,,,,,,,,,,,,,,,,,81.5,0.0,,
83,,size_choice,,html-keyboard-response,83,69868,0.0-1.0-134.0,0,0,3,,,,,,33.0,33.0,1.0,1000.0,M-M,,M,M,2.0,2.0,hairdryer,basketball,hairdryer3,basketball10,72.0,59.0,/static/Size_judgement/Stimuli/Size_stims/M/hairdryer/hairdryer17.jpg,/static/Size_judgement/Stimuli/Size_stims/M/basketball/basketball4.jpg,,,,,,,,,,,,83.0,1.5,1.0,
84,,iti,,html-keyboard-response,84,69969,0.0-1.0-136.0,0,0,3,,,,,,,,,,,,,,,,,,,,,,,,,,,,,,,,,,,83.0,0.0,,
85,,size_choice,,html-keyboard-response,85,71475,0.0-1.0-138.0,0,0,3,,,,,,34.0,34.0,1.0,3000.0,S-M,0.0,S,M,1.0,2.0,screws,hairdryer,screws7,hairdryer1,126.0,70.0,/static/Size_judgement/Stimuli/Size_stims/S/screws/screws1.jpg,/static/Size_judgement/Stimuli/Size_stims/M/hairdryer/hairdryer11.jpg,,,,,,,,,,,,84.5,1.5,1.0,
86,,iti,,html-keyboard-response,86,71580,0.0-1.0-140.0,0,0,3,,,,,,,,,,,,,,,,,,,,,,,,,,,,,,,,,,,86.5,2.0,,
87,,size_choice,,html-keyboard-response,87,73084,0.0-1.0-142.0,0,0,3,,,,,,35.0,35.0,1.0,1500.0,S-XL,1.0,XL,S,4.0,1.0,dumptruck,thread,dumptruck2,thread3,171.0,142.0,/static/Size_judgement/Stimuli/Size_stims/XL/dumptruck/dumptruck8.jpg,/static/Size_judgement/Stimuli/Size_stims/S/thread/thread4.jpg,,,,,,,,,,,,88.0,1.5,1.0,
88,,iti,,html-keyboard-response,88,73185,0.0-1.0-144.0,0,0,3,,,,,,,,,,,,,,,,,,,,,,,,,,,,,,,,,,,88.5,0.5,,
89,,size_choice,,html-keyboard-response,89,74689,0.0-1.0-146.0,0,0,3,,,,,,36.0,36.0,1.0,2000.0,M-L,0.0,M,L,2.0,3.0,basketball,mailbox,basketball8,mailbox9,57.0,48.0,/static/Size_judgement/Stimuli/Size_stims/M/basketball/basketball7.jpg,/static/Size_judgement/Stimuli/Size_stims/L/mailbox/mailbox9.jpg,,,,,,,,,,,,90.0,1.5,1.0,
90,,iti,,html-keyboard-response,90,74791,0.0-1.0-148.0,0,0,3,,,,,,,,,,,,,,,,,,,,,,,,,,,,,,,,,,,91.0,1.0,,
91,,size_choice,,html-keyboard-response,91,76295,0.0-1.0-150.0,0,0,3,,,,,,37.0,37.0,1.0,2000.0,S-XL,0.0,S,XL,1.0,4.0,thread,crane,thread5,crane8,144.0,167.0,/static/Size_judgement/Stimuli/Size_stims/S/thread/thread1.jpg,/static/Size_judgement/Stimuli/Size_stims/XL/crane/crane10.jpg,,,,,,,,,,,,92.5,1.5,1.0,
92,,iti,,html-keyboard-response,92,76401,0.0-1.0-152.0,0,0,3,,,,,,,,,,,,,,,,,,,,,,,,,,,,,,,,,,,93.5,1.0,,
93,,size_choice,,html-keyboard-response,93,77905,0.0-1.0-154.0,0,0,3,,,,,,38.0,38.0,1.0,1000.0,S-XL,0.0,S,XL,1.0,4.0,paperclip,van,paperclip4,van3,113.0,192.0,/static/Size_judgement/Stimuli/Size_stims/S/paperclip/paperclip3.jpg,/static/Size_judgement/Stimuli/Size_stims/XL/van/van6.jpg,,,,,,,,,,,,95.0,1.5,1.0,
94,,iti,,html-keyboard-response,94,78007,0.0-1.0-156.0,0,0,3,,,,,,,,,,,,,,,,,,,,,,,,,,,,,,,,,,,95.0,0.0,,
95,,size_choice,,html-keyboard-response,95,79511,0.0-1.0-158.0,0,0,3,,,,,,39.0,39.0,1.0,3500.0,L-XL,1.0,XL,L,4.0,3.0,van,mailbox,van10,mailbox10,199.0,49.0,/static/Size_judgement/Stimuli/Size_stims/XL/van/van8.jpg,/static/Size_judgement/Stimuli/Size_stims/L/mailbox/mailbox8.jpg,,,,,,,,,,,,96.5,1.5,1.0,
96,,iti,,html-keyboard-response,96,79617,0.0-1.0-160.0,0,0,3,,,,,,,,,,,,,,,,,,,,,,,,,,,,,,,,,,,99.0,2.5,,
97,,size_choice,,html-keyboard-response,97,81122,0.0-1.0-162.0,0,0,3,,,,,,40.0,40.0,1.0,3000.0,S-L,1.0,L,S,3.0,1.0,mailbox,paperclip,mailbox7,paperclip5,46.0,114.0,/static/Size_judgement/Stimuli/Size_stims/L/mailbox/mailbox7.jpg,/static/Size_judgement/Stimuli/Size_stims/S/paperclip/paperclip2.jpg,,,,,,,,,,,,100.5,1.5,1.0,
98,,iti,,html-keyboard-response,98,81223,0.0-1.0-164.0,0,0,3,,,,,,,,,,,,,,,,,,,,,,,,,,,,,,,,,,,102.5,2.0,,
99,,size_choice,,html-keyboard-response,99,83586,0.0-1.0-166.0,0,0,3,,,,,,41.0,41.0,1.0,1000.0,S-L,1.0,L,S,3.0,1.0,dishwasher,thread,dishwasher3,thread2,22.0,141.0,/static/Size_judgement/Stimuli/Size_stims/L/dishwasher/dishwasher8.jpg,/static/Size_judgement/Stimuli/Size_stims/S/thread/thread6.jpg,,,,,,,,,,,,104.0,1.5,1.0,
100,,iti,,html-keyboard-response,100,84657,0.0-1.0-168.0,0,0,3,,,,,,,,,,,,,,,,,,,,,,,,,,,,,,,,,,,104.0,0.0,,
101,,size_choice,,html-keyboard-response,101,86162,0.0-1.0-170.0,0,0,3,,,,,,42.0,42.0,1.0,1500.0,S-L,1.0,L,S,3.0,1.0,cooler,paperclip,cooler6,paperclip2,5.0,111.0,/static/Size_judgement/Stimuli/Size_stims/L/cooler/cooler1.jpg,/static/Size_judgement/Stimuli/Size_stims/S/paperclip/paperclip8.jpg,,,,,,,,,,,,105.5,1.5,1.0,
102,,iti,,html-keyboard-response,102,86263,0.0-1.0-172.0,0,0,3,,,,,,,,,,,,,,,,,,,,,,,,,,,,,,,,,,,106.0,0.5,,
103,,size_choice,,html-keyboard-response,103,87767,0.0-1.0-174.0,0,0,3,,,,,,43.0,43.0,1.0,1500.0,M-L,0.0,M,L,2.0,3.0,handsaw,garbagecan,handsaw3,garbagecan2,82.0,31.0,/static/Size_judgement/Stimuli/Size_stims/M/handsaw/handsaw2.jpg,/static/Size_judgement/Stimuli/Size_stims/L/garbagecan/garbagecan5.jpg,,,,,,,,,,,,107.5,1.5,1.0,
104,,iti,,html-keyboard-response,104,87869,0.0-1.0-176.0,0,0,3,,,,,,,,,,,,,,,,,,,,,,,,,,,,,,,,,,,108.0,0.5,,
105,,size_choice,,html-keyboard-response,105,89867,0.0-1.0-178.0,0,0,3,,,,,,44.0,44.0,1.0,1500.0,S-XL,0.0,S,XL,1.0,4.0,thread,tractor,thread4,tractor1,143.0,180.0,/static/Size_judgement/Stimuli/Size_stims/S/thread/thread5.jpg,/static/Size_judgement/Stimuli/Size_stims/XL/tractor/tractor6.jpg,,,,,,,,,,,,109.5,1.5,1.0,
106,,iti,,html-keyboard-response,106,90850,0.0-1.0-180.0,0,0,3,,,,,,,,,,,,,,,,,,,,,,,,,,,,,,,,,,,110.0,0.5,,
107,,block_over,,html-keyboard-response,107,174167,0.0-1.0-181.0-0.0,0,0,3,,83301.0,,,50.0,44.0,,,,,,,,,,,,,,,,,,,,,,,,,,,,,,,,
108,,size_choice,,html-keyboard-response,108,174564,0.0-1.0-182.0,0,0,3,,396.0,,,50.0,45.0,45.0,2.0,1000.0,XL-XL,,XL,XL,4.0,4.0,crane,van,crane10,van8,169.0,197.0,/static/Size_judgement/Stimuli/Size_stims/XL/crane/crane9.jpg,/static/Size_judgement/Stimuli/Size_stims/XL/van/van10.jpg,1.0,crane,van,XL,XL,4.0,4.0,crane10,van8,,0.0,110.396,0.396,,
109,,size_choice_confirmation,,html-keyboard-response,109,175673,0.0-1.0-183.0-0.0,0,0,3,,,,,,45.0,,,,,,,,,,,,,,,,,,,,,,,,,,,,,111.5,1.104,,
110,,iti,,html-keyboard-response,110,175775,0.0-1.0-184.0,0,0,3,,,,,,,,,,,,,,,,,,,,,,,,,,,,,,,,,,,112.5,1.0,,
111,,size_choice,,html-keyboard-response,111,176003,0.0-1.0-186.0,0,0,3,,227.0,,,50.0,46.0,46.0,2.0,3500.0,S-L,0.0,S,L,1.0,3.0,thread,cooler,thread8,cooler3,147.0,2.0,/static/Size_judgement/Stimuli/Size_stims/S/thread/thread10.jpg,/static/Size_judgement/Stimuli/Size_stims/L/cooler/cooler2.jpg,1.0,thread,cooler,S,L,1.0,3.0,thread8,cooler3,0.0,0.0,112.727,0.227,,
112,,size_choice_confirmation,,html-keyboard-response,112,177279,0.0-1.0-187.0-0.0,0,0,3,,,,,,46.0,,,,,,,,,,,,,,,,,,,,,,,,,,,,,114.0,1.273,,
113,,iti,,html-keyboard-response,113,177385,0.0-1.0-188.0,0,0,3,,,,,,,,,,,,,,,,,,,,,,,,,,,,,,,,,,,117.5,3.5,,
114,,size_choice,,html-keyboard-response,114,177683,0.0-1.0-190.0,0,0,3,,297.0,,,50.0,47.0,47.0,2.0,1000.0,M-XL,0.0,M,XL,2.0,4.0,coffeemaker,crane,coffeemaker9,crane2,68.0,161.0,/static/Size_judgement/Stimuli/Size_stims/M/coffeemaker/coffeemaker7.jpg,/static/Size_judgement/Stimuli/Size_stims/XL/crane/crane6.jpg,1.0,coffeemaker,crane,M,XL,2.0,4.0,coffeemaker9,crane2,0.0,0.0,117.797,0.297,,
115,,size_choice_confirmation,,html-keyboard-response,115,178891,0.0-1.0-191.0-0.0,0,0,3,,,,,,47.0,,,,,,,,,,,,,,,,,,,,,,,,,,,,,119.0,1.203,,
116,,iti,,html-keyboard-response,116,178997,0.0-1.0-192.0,0,0,3,,,,,,,,,,,,,,,,,,,,,,,,,,,,,,,,,,,120.0,1.0,,
117,,size_choice,,html-keyboard-response,117,179086,0.0-1.0-194.0,0,0,3,,89.0,,,50.0,48.0,48.0,2.0,1000.0,S-L,1.0,L,S,3.0,1.0,garbagecan,die,garbagecan1,die5,30.0,104.0,/static/Size_judgement/Stimuli/Size_stims/L/garbagecan/garbagecan4.jpg,/static/Size_judgement/Stimuli/Size_stims/S/die/die3.jpg,1.0,garbagecan,die,L,S,3.0,1.0,garbagecan1,die5,1.0,0.0,120.089,0.089,,
118,,size_choice_confirmation,,html-keyboard-response,118,180501,0.0-1.0-195.0-0.0,0,0,3,,,,,,48.0,,,,,,,,,,,,,,,,,,,,,,,,,,,,,121.5,1.411,,
119,,iti,,html-keyboard-response,119,180606,0.0-1.0-196.0,0,0,3,,,,,,,,,,,,,,,,,,,,,,,,,,,,,,,,,,,122.5,1.0,,
120,,size_choice,,html-keyboard-response,120,181200,0.0-1.0-198.0,0,0,3,,593.0,,,50.0,49.0,49.0,2.0,1500.0,M-L,0.0,M,L,2.0,3.0,hairdryer,deskchair,hairdryer8,deskchair5,77.0,14.0,/static/Size_judgement/Stimuli/Size_stims/M/hairdryer/hairdryer1.jpg,/static/Size_judgement/Stimuli/Size_stims/L/deskchair/deskchair7.jpg,1.0,hairdryer,deskchair,M,L,2.0,3.0,hairdryer8,deskchair5,0.0,0.0,123.093,0.593,,
121,,size_choice_confirmation,,html-keyboard-response,121,182111,0.0-1.0-199.0-0.0,0,0,3,,,,,,49.0,,,,,,,,,,,,,,,,,,,,,,,,,,,,,124.0,0.907,,
122,,iti,,html-keyboard-response,122,182217,0.0-1.0-200.0,0,0,3,,,,,,,,,,,,,,,,,,,,,,,,,,,,,,,,,,,125.5,1.5,,
123,,size_choice,,html-keyboard-response,123,182541,0.0-1.0-202.0,0,0,3,,323.0,,,50.0,50.0,50.0,2.0,3500.0,S-XL,0.0,S,XL,1.0,4.0,die,tractor,die10,tractor3,109.0,182.0,/static/Size_judgement/Stimuli/Size_stims/S/die/die6.jpg,/static/Size_judgement/Stimuli/Size_stims/XL/tractor/tractor5.jpg,1.0,die,tractor,S,XL,1.0,4.0,die10,tractor3,0.0,0.0,125.823,0.323,,
124,,size_choice_confirmation,,html-keyboard-response,124,183725,0.0-1.0-203.0-0.0,0,0,3,,,,,,50.0,,,,,,,,,,,,,,,,,,,,,,,,,,,,,127.0,1.177,,
125,,iti,,html-keyboard-response,125,183828,0.0-1.0-204.0,0,0,3,,,,,,,,,,,,,,,,,,,,,,,,,,,,,,,,,,,130.5,3.5,,
126,,size_choice,,html-keyboard-response,126,184323,0.0-1.0-206.0,0,0,3,,494.0,,,50.0,51.0,51.0,2.0,1000.0,S-XL,0.0,S,XL,1.0,4.0,screws,van,screws4,van1,123.0,190.0,/static/Size_judgement/Stimuli/Size_stims/S/screws/screws6.jpg,/static/Size_judgement/Stimuli/Size_stims/XL/van/van5.jpg,1.0,screws,van,S,XL,1.0,4.0,screws4,van1,0.0,0.0,130.994,0.494,,
127,,size_choice_confirmation,,html-keyboard-response,127,185335,0.0-1.0-207.0-0.0,0,0,3,,,,,,51.0,,,,,,,,,,,,,,,,,,,,,,,,,,,,,132.0,1.006,,
128,,iti,,html-keyboard-response,128,185440,0.0-1.0-208.0,0,0,3,,,,,,,,,,,,,,,,,,,,,,,,,,,,,,,,,,,133.0,1.0,,
129,,size_choice,,html-keyboard-response,129,185615,0.0-1.0-210.0,0,0,3,,174.0,,,50.0,52.0,52.0,2.0,1500.0,S-L,1.0,L,S,3.0,1.0,cooler,paperclip,cooler10,paperclip8,9.0,117.0,/static/Size_judgement/Stimuli/Size_stims/L/cooler/cooler6.jpg,/static/Size_judgement/Stimuli/Size_stims/S/paperclip/paperclip5.jpg,1.0,cooler,paperclip,L,S,3.0,1.0,cooler10,paperclip8,1.0,0.0,133.174,0.174,,
130,,size_choice_confirmation,,html-keyboard-response,130,186945,0.0-1.0-211.0-0.0,0,0,3,,,,,,52.0,,,,,,,,,,,,,,,,,,,,,,,,,,,,,134.5,1.326,,
131,,iti,,html-keyboard-response,131,187050,0.0-1.0-212.0,0,0,3,,,,,,,,,,,,,,,,,,,,,,,,,,,,,,,,,,,136.0,1.5,,
132,,size_choice,,html-keyboard-response,132,187291,0.0-1.0-214.0,0,0,3,,240.0,,,50.0,53.0,53.0,2.0,2000.0,S-L,0.0,S,L,1.0,3.0,screws,mailbox,screws1,mailbox5,120.0,44.0,/static/Size_judgement/Stimuli/Size_stims/S/screws/screws4.jpg,/static/Size_judgement/Stimuli/Size_stims/L/mailbox/mailbox4.jpg,1.0,screws,mailbox,S,L,1.0,3.0,screws1,mailbox5,0.0,0.0,136.24,0.24,,
133,,size_choice_confirmation,,html-keyboard-response,133,188553,0.0-1.0-215.0-0.0,0,0,3,,,,,,53.0,,,,,,,,,,,,,,,,,,,,,,,,,,,,,137.5,1.26,,
134,,iti,,html-keyboard-response,134,188658,0.0-1.0-216.0,0,0,3,,,,,,,,,,,,,,,,,,,,,,,,,,,,,,,,,,,139.5,2.0,,
135,,size_choice,,html-keyboard-response,135,188933,0.0-1.0-218.0,0,0,3,,273.0,,,50.0,54.0,54.0,2.0,1000.0,S-L,0.0,S,L,1.0,3.0,screws,deskchair,screws2,deskchair7,121.0,16.0,/static/Size_judgement/Stimuli/Size_stims/S/screws/screws5.jpg,/static/Size_judgement/Stimuli/Size_stims/L/deskchair/deskchair4.jpg,1.0,screws,deskchair,S,L,1.0,3.0,screws2,deskchair7,0.0,0.0,139.773,0.273,,
136,,size_choice_confirmation,,html-keyboard-response,136,190164,0.0-1.0-219.0-0.0,0,0,3,,,,,,54.0,,,,,,,,,,,,,,,,,,,,,,,,,,,,,141.0,1.227,,
137,,iti,,html-keyboard-response,137,190269,0.0-1.0-220.0,0,0,3,,,,,,,,,,,,,,,,,,,,,,,,,,,,,,,,,,,142.0,1.0,,
138,,size_choice,,html-keyboard-response,138,190341,0.0-1.0-222.0,0,0,3,,71.0,,,50.0,55.0,55.0,2.0,1500.0,M-XL,1.0,XL,M,4.0,2.0,dumptruck,ketchup,dumptruck1,ketchup10,170.0,99.0,/static/Size_judgement/Stimuli/Size_stims/XL/dumptruck/dumptruck9.jpg,/static/Size_judgement/Stimuli/Size_stims/M/ketchup/ketchup6.jpg,1.0,dumptruck,ketchup,XL,M,4.0,2.0,dumptruck1,ketchup10,1.0,0.0,142.071,0.071,,
139,,size_choice_confirmation,,html-keyboard-response,139,191775,0.0-1.0-223.0-0.0,0,0,3,,,,,,55.0,,,,,,,,,,,,,,,,,,,,,,,,,,,,,143.5,1.429,,
140,,iti,,html-keyboard-response,140,191877,0.0-1.0-224.0,0,0,3,,,,,,,,,,,,,,,,,,,,,,,,,,,,,,,,,,,145.0,1.5,,
141,,size_choice,,html-keyboard-response,141,191941,0.0-1.0-226.0,0,0,3,,63.0,,,50.0,56.0,56.0,2.0,1500.0,L-XL,1.0,XL,L,4.0,3.0,car,dishwasher,car10,dishwasher2,159.0,21.0,/static/Size_judgement/Stimuli/Size_stims/XL/car/car9.jpg,/static/Size_judgement/Stimuli/Size_stims/L/dishwasher/dishwasher9.jpg,1.0,car,dishwasher,XL,L,4.0,3.0,car10,dishwasher2,1.0,0.0,145.063,0.063,,
142,,size_choice_confirmation,,html-keyboard-response,142,193381,0.0-1.0-227.0-0.0,0,0,3,,,,,,56.0,,,,,,,,,,,,,,,,,,,,,,,,,,,,,146.5,1.437,,
143,,iti,,html-keyboard-response,143,193485,0.0-1.0-228.0,0,0,3,,,,,,,,,,,,,,,,,,,,,,,,,,,,,,,,,,,148.0,1.5,,
144,,size_choice,,html-keyboard-response,144,193572,0.0-1.0-230.0,0,0,3,,86.0,,,50.0,57.0,57.0,2.0,1000.0,S-S,,S,S,1.0,1.0,die,paperclip,die8,paperclip9,107.0,118.0,/static/Size_judgement/Stimuli/Size_stims/S/die/die5.jpg,/static/Size_judgement/Stimuli/Size_stims/S/paperclip/paperclip4.jpg,1.0,die,paperclip,S,S,1.0,1.0,die8,paperclip9,,0.0,148.086,0.086,,
145,,size_choice_confirmation,,html-keyboard-response,145,194991,0.0-1.0-231.0-0.0,0,0,3,,,,,,57.0,,,,,,,,,,,,,,,,,,,,,,,,,,,,,149.5,1.414,,
146,,iti,,html-keyboard-response,146,195093,0.0-1.0-232.0,0,0,3,,,,,,,,,,,,,,,,,,,,,,,,,,,,,,,,,,,150.5,1.0,,
147,,size_choice,,html-keyboard-response,147,195333,0.0-1.0-234.0,0,0,3,,237.0,,,50.0,58.0,58.0,2.0,2000.0,M-M,,M,M,2.0,2.0,ketchup,handsaw,ketchup9,handsaw5,98.0,84.0,/static/Size_judgement/Stimuli/Size_stims/M/ketchup/ketchup7.jpg,/static/Size_judgement/Stimuli/Size_stims/M/handsaw/handsaw1.jpg,1.0,ketchup,handsaw,M,M,2.0,2.0,ketchup9,handsaw5,,0.0,150.737,0.237,,
148,,size_choice_confirmation,,html-keyboard-response,148,196602,0.0-1.0-235.0-0.0,0,0,3,,,,,,58.0,,,,,,,,,,,,,,,,,,,,,,,,,,,,,152.0,1.263,,
149,,iti,,html-keyboard-response,149,196704,0.0-1.0-236.0,0,0,3,,,,,,,,,,,,,,,,,,,,,,,,,,,,,,,,,,,154.0,2.0,,
150,,size_choice,,html-keyboard-response,150,196907,0.0-1.0-238.0,0,0,3,,202.0,,,50.0,59.0,59.0,2.0,2000.0,M-XL,0.0,M,XL,2.0,4.0,coffeemaker,crane,coffeemaker1,crane9,60.0,168.0,/static/Size_judgement/Stimuli/Size_stims/M/coffeemaker/coffeemaker14.jpg,/static/Size_judgement/Stimuli/Size_stims/XL/crane/crane8.jpg,1.0,coffeemaker,crane,M,XL,2.0,4.0,coffeemaker1,crane9,0.0,0.0,154.202,0.202,,
151,,size_choice_confirmation,,html-keyboard-response,151,198208,0.0-1.0-239.0-0.0,0,0,3,,,,,,59.0,,,,,,,,,,,,,,,,,,,,,,,,,,,,,155.5,1.298,,
152,,iti,,html-keyboard-response,152,198309,0.0-1.0-240.0,0,0,3,,,,,,,,,,,,,,,,,,,,,,,,,,,,,,,,,,,157.5,2.0,,
153,,size_choice,,html-keyboard-response,153,198606,0.0-1.0-242.0,0,0,3,,295.0,,,50.0,60.0,60.0,2.0,1000.0,M-L,0.0,M,L,2.0,3.0,hairdryer,mailbox,hairdryer9,mailbox6,78.0,45.0,/static/Size_judgement/Stimuli/Size_stims/M/hairdryer/hairdryer5.jpg,/static/Size_judgement/Stimuli/Size_stims/L/mailbox/mailbox6.jpg,1.0,hairdryer,mailbox,M,L,2.0,3.0,hairdryer9,mailbox6,0.0,0.0,157.795,0.295,,
154,,size_choice_confirmation,,html-keyboard-response,154,199819,0.0-1.0-243.0-0.0,0,0,3,,,,,,60.0,,,,,,,,,,,,,,,,,,,,,,,,,,,,,159.0,1.205,,
155,,iti,,html-keyboard-response,155,199920,0.0-1.0-244.0,0,0,3,,,,,,,,,,,,,,,,,,,,,,,,,,,,,,,,,,,160.0,1.0,,
156,,size_choice,,html-keyboard-response,156,200160,0.0-1.0-246.0,0,0,3,,239.0,,,50.0,61.0,61.0,2.0,1500.0,S-XL,1.0,XL,S,4.0,1.0,tractor,die,tractor4,die9,183.0,108.0,/static/Size_judgement/Stimuli/Size_stims/XL/tractor/tractor4.jpg,/static/Size_judgement/Stimuli/Size_stims/S/die/die7.jpg,1.0,tractor,die,XL,S,4.0,1.0,tractor4,die9,1.0,0.0,160.239,0.239,,
157,,size_choice_confirmation,,html-keyboard-response,157,201424,0.0-1.0-247.0-0.0,0,0,3,,,,,,61.0,,,,,,,,,,,,,,,,,,,,,,,,,,,,,161.5,1.261,,
158,,iti,,html-keyboard-response,158,201528,0.0-1.0-248.0,0,0,3,,,,,,,,,,,,,,,,,,,,,,,,,,,,,,,,,,,163.0,1.5,,
159,,size_choice,,html-keyboard-response,159,202089,0.0-1.0-250.0,0,0,3,,560.0,,,50.0,62.0,62.0,2.0,1000.0,XL-XL,,XL,XL,4.0,4.0,van,tractor,van7,tractor10,196.0,189.0,/static/Size_judgement/Stimuli/Size_stims/XL/van/van1.jpg,/static/Size_judgement/Stimuli/Size_stims/XL/tractor/tractor8.jpg,1.0,van,tractor,XL,XL,4.0,4.0,van7,tractor10,,0.0,163.56,0.56,,
160,,size_choice_confirmation,,html-keyboard-response,160,203032,0.0-1.0-251.0-0.0,0,0,3,,,,,,62.0,,,,,,,,,,,,,,,,,,,,,,,,,,,,,164.5,0.94,,
161,,iti,,html-keyboard-response,161,203137,0.0-1.0-252.0,0,0,3,,,,,,,,,,,,,,,,,,,,,,,,,,,,,,,,,,,165.5,1.0,,
162,,size_choice,,html-keyboard-response,162,203299,0.0-1.0-254.0,0,0,3,,161.0,,,50.0,63.0,63.0,2.0,3500.0,S-XL,0.0,S,XL,1.0,4.0,paperclip,tractor,paperclip7,tractor7,116.0,186.0,/static/Size_judgement/Stimuli/Size_stims/S/paperclip/paperclip7.jpg,/static/Size_judgement/Stimuli/Size_stims/XL/tractor/tractor2.jpg,1.0,paperclip,tractor,S,XL,1.0,4.0,paperclip7,tractor7,0.0,0.0,165.661,0.161,,
163,,size_choice_confirmation,,html-keyboard-response,163,204640,0.0-1.0-255.0-0.0,0,0,3,,,,,,63.0,,,,,,,,,,,,,,,,,,,,,,,,,,,,,167.0,1.339,,
164,,iti,,html-keyboard-response,164,204742,0.0-1.0-256.0,0,0,3,,,,,,,,,,,,,,,,,,,,,,,,,,,,,,,,,,,170.5,3.5,,
165,,size_choice,,html-keyboard-response,165,205090,0.0-1.0-258.0,0,0,3,,347.0,,,50.0,64.0,64.0,2.0,2000.0,M-L,0.0,M,L,2.0,3.0,basketball,deskchair,basketball3,deskchair10,52.0,19.0,/static/Size_judgement/Stimuli/Size_stims/M/basketball/basketball10.jpg,/static/Size_judgement/Stimuli/Size_stims/L/deskchair/deskchair2.jpg,1.0,basketball,deskchair,M,L,2.0,3.0,basketball3,deskchair10,0.0,0.0,170.847,0.347,,
166,,size_choice_confirmation,,html-keyboard-response,166,206247,0.0-1.0-259.0-0.0,0,0,3,,,,,,64.0,,,,,,,,,,,,,,,,,,,,,,,,,,,,,172.0,1.153,,
167,,iti,,html-keyboard-response,167,206353,0.0-1.0-260.0,0,0,3,,,,,,,,,,,,,,,,,,,,,,,,,,,,,,,,,,,174.0,2.0,,
168,,size_choice,,html-keyboard-response,168,206586,0.0-1.0-262.0,0,0,3,,232.0,,,50.0,65.0,65.0,2.0,1000.0,M-XL,1.0,XL,M,4.0,2.0,crane,coffeemaker,crane4,coffeemaker10,163.0,69.0,/static/Size_judgement/Stimuli/Size_stims/XL/crane/crane5.jpg,/static/Size_judgement/Stimuli/Size_stims/M/coffeemaker/coffeemaker18.jpg,1.0,crane,coffeemaker,XL,M,4.0,2.0,crane4,coffeemaker10,1.0,0.0,174.232,0.232,,
169,,size_choice_confirmation,,html-keyboard-response,169,207861,0.0-1.0-263.0-0.0,0,0,3,,,,,,65.0,,,,,,,,,,,,,,,,,,,,,,,,,,,,,175.5,1.268,,
170,,iti,,html-keyboard-response,170,207963,0.0-1.0-264.0,0,0,3,,,,,,,,,,,,,,,,,,,,,,,,,,,,,,,,,,,176.5,1.0,,
171,,size_choice,,html-keyboard-response,171,208838,0.0-1.0-266.0,0,0,3,,875.0,,,50.0,66.0,66.0,2.0,1500.0,S-XL,0.0,S,XL,1.0,4.0,thread,dumptruck,thread7,dumptruck7,146.0,176.0,/static/Size_judgement/Stimuli/Size_stims/S/thread/thread3.jpg,/static/Size_judgement/Stimuli/Size_stims/XL/dumptruck/dumptruck6.jpg,1.0,thread,dumptruck,S,XL,1.0,4.0,thread7,dumptruck7,0.0,0.0,177.375,0.875,,
172,,size_choice_confirmation,,html-keyboard-response,172,209469,0.0-1.0-267.0-0.0,0,0,3,,,,,,66.0,,,,,,,,,,,,,,,,,,,,,,,,,,,,,178.0,0.625,,
173,,iti,,html-keyboard-response,173,209573,0.0-1.0-268.0,0,0,3,,,,,,,,,,,,,,,,,,,,,,,,,,,,,,,,,,,179.5,1.5,,
174,,size_choice,,html-keyboard-response,174,209715,0.0-1.0-270.0,0,0,3,,141.0,,,50.0,67.0,67.0,2.0,1000.0,XL-XL,,XL,XL,4.0,4.0,car,dumptruck,car8,dumptruck8,157.0,177.0,/static/Size_judgement/Stimuli/Size_stims/XL/car/car14.jpg,/static/Size_judgement/Stimuli/Size_stims/XL/dumptruck/dumptruck7.jpg,1.0,car,dumptruck,XL,XL,4.0,4.0,car8,dumptruck8,,0.0,179.641,0.141,,
175,,size_choice_confirmation,,html-keyboard-response,175,211077,0.0-1.0-271.0-0.0,0,0,3,,,,,,67.0,,,,,,,,,,,,,,,,,,,,,,,,,,,,,181.0,1.359,,
176,,iti,,html-keyboard-response,176,211182,0.0-1.0-272.0,0,0,3,,,,,,,,,,,,,,,,,,,,,,,,,,,,,,,,,,,182.0,1.0,,
177,,size_choice,,html-keyboard-response,177,211258,0.0-1.0-274.0,0,0,3,,75.0,,,50.0,68.0,68.0,2.0,3000.0,M-L,0.0,M,L,2.0,3.0,coffeemaker,cooler,coffeemaker6,cooler1,65.0,0.0,/static/Size_judgement/Stimuli/Size_stims/M/coffeemaker/coffeemaker8.jpg,/static/Size_judgement/Stimuli/Size_stims/L/cooler/cooler8.jpg,1.0,coffeemaker,cooler,M,L,2.0,3.0,coffeemaker6,cooler1,0.0,0.0,182.075,0.075,,
178,,size_choice_confirmation,,html-keyboard-response,178,212688,0.0-1.0-275.0-0.0,0,0,3,,,,,,68.0,,,,,,,,,,,,,,,,,,,,,,,,,,,,,183.5,1.425,,
179,,iti,,html-keyboard-response,179,212792,0.0-1.0-276.0,0,0,3,,,,,,,,,,,,,,,,,,,,,,,,,,,,,,,,,,,186.5,3.0,,
180,,size_choice,,html-keyboard-response,180,214296,0.0-1.0-278.0,0,0,3,,,,,,69.0,69.0,2.0,2000.0,M-L,1.0,L,M,3.0,2.0,cooler,handsaw,cooler5,handsaw4,4.0,83.0,/static/Size_judgement/Stimuli/Size_stims/L/cooler/cooler10.jpg,/static/Size_judgement/Stimuli/Size_stims/M/handsaw/handsaw3.jpg,,,,,,,,,,,,188.0,1.5,1.0,
181,,iti,,html-keyboard-response,181,214400,0.0-1.0-280.0,0,0,3,,,,,,,,,,,,,,,,,,,,,,,,,,,,,,,,,,,189.0,1.0,,
182,,size_choice,,html-keyboard-response,182,215734,0.0-1.0-282.0,0,0,3,,1332.0,,,50.0,70.0,70.0,2.0,1000.0,M-XL,1.0,XL,M,4.0,2.0,car,basketball,car7,basketball2,156.0,51.0,/static/Size_judgement/Stimuli/Size_stims/XL/car/car13.jpg,/static/Size_judgement/Stimuli/Size_stims/M/basketball/basketball8.jpg,1.0,car,basketball,XL,M,4.0,2.0,car7,basketball2,1.0,0.0,190.332,1.332,,
183,,size_choice_confirmation,,html-keyboard-response,183,215907,0.0-1.0-283.0-0.0,0,0,3,,,,,,70.0,,,,,,,,,,,,,,,,,,,,,,,,,,,,,190.5,0.168,,
184,,iti,,html-keyboard-response,184,216011,0.0-1.0-284.0,0,0,3,,,,,,,,,,,,,,,,,,,,,,,,,,,,,,,,,,,191.5,1.0,,
185,,size_choice,,html-keyboard-response,185,216090,0.0-1.0-286.0,0,0,3,,79.0,,,50.0,71.0,71.0,2.0,1000.0,S-L,0.0,S,L,1.0,3.0,teabag,garbagecan,teabag8,garbagecan3,137.0,32.0,/static/Size_judgement/Stimuli/Size_stims/S/teabag/teabag7.jpg,/static/Size_judgement/Stimuli/Size_stims/L/garbagecan/garbagecan7.jpg,1.0,teabag,garbagecan,S,L,1.0,3.0,teabag8,garbagecan3,0.0,0.0,191.579,0.079,,
186,,size_choice_confirmation,,html-keyboard-response,186,217517,0.0-1.0-287.0-0.0,0,0,3,,,,,,71.0,,,,,,,,,,,,,,,,,,,,,,,,,,,,,193.0,1.421,,
187,,iti,,html-keyboard-response,187,217621,0.0-1.0-288.0,0,0,3,,,,,,,,,,,,,,,,,,,,,,,,,,,,,,,,,,,194.0,1.0,,
188,,size_choice,,html-keyboard-response,188,218042,0.0-1.0-290.0,0,0,3,,420.0,,,50.0,72.0,72.0,2.0,3000.0,L-L,,L,L,3.0,3.0,dishwasher,mailbox,dishwasher9,mailbox1,28.0,40.0,/static/Size_judgement/Stimuli/Size_stims/L/dishwasher/dishwasher2.jpg,/static/Size_judgement/Stimuli/Size_stims/L/mailbox/mailbox3.jpg,1.0,dishwasher,mailbox,L,L,3.0,3.0,dishwasher9,mailbox1,,0.0,194.42,0.42,,
189,,size_choice_confirmation,,html-keyboard-response,189,219125,0.0-1.0-291.0-0.0,0,0,3,,,,,,72.0,,,,,,,,,,,,,,,,,,,,,,,,,,,,,195.5,1.08,,
190,,iti,,html-keyboard-response,190,219227,0.0-1.0-292.0,0,0,3,,,,,,,,,,,,,,,,,,,,,,,,,,,,,,,,,,,198.5,3.0,,
191,,size_choice,,html-keyboard-response,191,219477,0.0-1.0-294.0,0,0,3,,249.0,,,50.0,73.0,73.0,2.0,1000.0,S-XL,0.0,S,XL,1.0,4.0,thread,crane,thread10,crane1,149.0,160.0,/static/Size_judgement/Stimuli/Size_stims/S/thread/thread9.jpg,/static/Size_judgement/Stimuli/Size_stims/XL/crane/crane7.jpg,1.0,thread,crane,S,XL,1.0,4.0,thread10,crane1,0.0,0.0,198.749,0.249,,
192,,size_choice_confirmation,,html-keyboard-response,192,220731,0.0-1.0-295.0-0.0,0,0,3,,,,,,73.0,,,,,,,,,,,,,,,,,,,,,,,,,,,,,200.0,1.251,,
193,,iti,,html-keyboard-response,193,220836,0.0-1.0-296.0,0,0,3,,,,,,,,,,,,,,,,,,,,,,,,,,,,,,,,,,,201.0,1.0,,
194,,size_choice,,html-keyboard-response,194,221339,0.0-1.0-298.0,0,0,3,,501.0,,,50.0,74.0,74.0,2.0,3000.0,M-M,,M,M,2.0,2.0,coffeemaker,handsaw,coffeemaker4,handsaw9,63.0,88.0,/static/Size_judgement/Stimuli/Size_stims/M/coffeemaker/coffeemaker11.jpg,/static/Size_judgement/Stimuli/Size_stims/M/handsaw/handsaw6.jpg,1.0,coffeemaker,handsaw,M,M,2.0,2.0,coffeemaker4,handsaw9,,0.0,201.501,0.501,,
195,,size_choice_confirmation,,html-keyboard-response,195,222341,0.0-1.0-299.0-0.0,0,0,3,,,,,,74.0,,,,,,,,,,,,,,,,,,,,,,,,,,,,,202.5,0.999,,
196,,iti,,html-keyboard-response,196,222447,0.0-1.0-300.0,0,0,3,,,,,,,,,,,,,,,,,,,,,,,,,,,,,,,,,,,205.5,3.0,,
197,,size_choice,,html-keyboard-response,197,222673,0.0-1.0-302.0,0,0,3,,223.0,,,50.0,75.0,75.0,2.0,1000.0,S-L,1.0,L,S,3.0,1.0,mailbox,teabag,mailbox8,teabag6,47.0,135.0,/static/Size_judgement/Stimuli/Size_stims/L/mailbox/mailbox10.jpg,/static/Size_judgement/Stimuli/Size_stims/S/teabag/teabag6.jpg,1.0,mailbox,teabag,L,S,3.0,1.0,mailbox8,teabag6,1.0,0.0,205.723,0.223,,
198,,size_choice_confirmation,,html-keyboard-response,198,223954,0.0-1.0-303.0-0.0,0,0,3,,,,,,75.0,,,,,,,,,,,,,,,,,,,,,,,,,,,,,207.0,1.277,,
199,,iti,,html-keyboard-response,199,224059,0.0-1.0-304.0,0,0,3,,,,,,,,,,,,,,,,,,,,,,,,,,,,,,,,,,,208.0,1.0,,
200,,size_choice,,html-keyboard-response,200,224268,0.0-1.0-306.0,0,0,3,,207.0,,,50.0,76.0,76.0,2.0,2000.0,M-XL,1.0,XL,M,4.0,2.0,car,ketchup,car9,ketchup3,158.0,92.0,/static/Size_judgement/Stimuli/Size_stims/XL/car/car15.jpg,/static/Size_judgement/Stimuli/Size_stims/M/ketchup/ketchup10.jpg,1.0,car,ketchup,XL,M,4.0,2.0,car9,ketchup3,1.0,0.0,208.207,0.207,,
201,,size_choice_confirmation,,html-keyboard-response,201,225564,0.0-1.0-307.0-0.0,0,0,3,,,,,,76.0,,,,,,,,,,,,,,,,,,,,,,,,,,,,,209.5,1.293,,
202,,iti,,html-keyboard-response,202,225669,0.0-1.0-308.0,0,0,3,,,,,,,,,,,,,,,,,,,,,,,,,,,,,,,,,,,211.5,2.0,,
203,,size_choice,,html-keyboard-response,203,226028,0.0-1.0-310.0,0,0,3,,358.0,,,50.0,77.0,77.0,2.0,1000.0,M-XL,0.0,M,XL,2.0,4.0,basketball,dumptruck,basketball7,dumptruck6,56.0,175.0,/static/Size_judgement/Stimuli/Size_stims/M/basketball/basketball6.jpg,/static/Size_judgement/Stimuli/Size_stims/XL/dumptruck/dumptruck2.jpg,1.0,basketball,dumptruck,M,XL,2.0,4.0,basketball7,dumptruck6,0.0,0.0,211.858,0.358,,
204,,size_choice_confirmation,,html-keyboard-response,204,227175,0.0-1.0-311.0-0.0,0,0,3,,,,,,77.0,,,,,,,,,,,,,,,,,,,,,,,,,,,,,213.0,1.142,,
205,,iti,,html-keyboard-response,205,227276,0.0-1.0-312.0,0,0,3,,,,,,,,,,,,,,,,,,,,,,,,,,,,,,,,,,,214.0,1.0,,
206,,size_choice,,html-keyboard-response,206,227639,0.0-1.0-314.0,0,0,3,,362.0,,,50.0,78.0,78.0,2.0,1500.0,S-XL,1.0,XL,S,4.0,1.0,crane,teabag,crane3,teabag5,162.0,134.0,/static/Size_judgement/Stimuli/Size_stims/XL/crane/crane4.jpg,/static/Size_judgement/Stimuli/Size_stims/S/teabag/teabag2.jpg,1.0,crane,teabag,XL,S,4.0,1.0,crane3,teabag5,1.0,0.0,214.362,0.362,,
207,,size_choice_confirmation,,html-keyboard-response,207,228782,0.0-1.0-315.0-0.0,0,0,3,,,,,,78.0,,,,,,,,,,,,,,,,,,,,,,,,,,,,,215.5,1.138,,
208,,iti,,html-keyboard-response,208,228886,0.0-1.0-316.0,0,0,3,,,,,,,,,,,,,,,,,,,,,,,,,,,,,,,,,,,217.0,1.5,,
209,,size_choice,,html-keyboard-response,209,229237,0.0-1.0-318.0,0,0,3,,351.0,,,50.0,79.0,79.0,2.0,1500.0,M-XL,0.0,M,XL,2.0,4.0,handsaw,car,handsaw2,car2,81.0,151.0,/static/Size_judgement/Stimuli/Size_stims/M/handsaw/handsaw9.jpg,/static/Size_judgement/Stimuli/Size_stims/XL/car/car3.jpg,1.0,handsaw,car,M,XL,2.0,4.0,handsaw2,car2,0.0,0.0,217.351,0.351,,
210,,size_choice_confirmation,,html-keyboard-response,210,230392,0.0-1.0-319.0-0.0,0,0,3,,,,,,79.0,,,,,,,,,,,,,,,,,,,,,,,,,,,,,218.5,1.149,,
211,,iti,,html-keyboard-response,211,230497,0.0-1.0-320.0,0,0,3,,,,,,,,,,,,,,,,,,,,,,,,,,,,,,,,,,,220.0,1.5,,
212,,size_choice,,html-keyboard-response,212,230927,0.0-1.0-322.0,0,0,3,,429.0,,,50.0,80.0,80.0,2.0,2000.0,S-M,0.0,S,M,1.0,2.0,screws,handsaw,screws6,handsaw10,125.0,89.0,/static/Size_judgement/Stimuli/Size_stims/S/screws/screws3.jpg,/static/Size_judgement/Stimuli/Size_stims/M/handsaw/handsaw10.jpg,1.0,screws,handsaw,S,M,1.0,2.0,screws6,handsaw10,0.0,0.0,220.429,0.429,,
213,,size_choice_confirmation,,html-keyboard-response,213,232003,0.0-1.0-323.0-0.0,0,0,3,,,,,,80.0,,,,,,,,,,,,,,,,,,,,,,,,,,,,,221.5,1.071,,
214,,iti,,html-keyboard-response,214,232107,0.0-1.0-324.0,0,0,3,,,,,,,,,,,,,,,,,,,,,,,,,,,,,,,,,,,223.5,2.0,,
215,,size_choice,,html-keyboard-response,215,232576,0.0-1.0-326.0,0,0,3,,467.0,,,50.0,81.0,81.0,2.0,2000.0,L-L,,L,L,3.0,3.0,cooler,dishwasher,cooler2,dishwasher1,1.0,20.0,/static/Size_judgement/Stimuli/Size_stims/L/cooler/cooler9.jpg,/static/Size_judgement/Stimuli/Size_stims/L/dishwasher/dishwasher10.jpg,1.0,cooler,dishwasher,L,L,3.0,3.0,cooler2,dishwasher1,,0.0,223.967,0.467,,
216,,size_choice_confirmation,,html-keyboard-response,216,233615,0.0-1.0-327.0-0.0,0,0,3,,,,,,81.0,,,,,,,,,,,,,,,,,,,,,,,,,,,,,225.0,1.033,,
217,,iti,,html-keyboard-response,217,233720,0.0-1.0-328.0,0,0,3,,,,,,,,,,,,,,,,,,,,,,,,,,,,,,,,,,,227.0,2.0,,
218,,size_choice,,html-keyboard-response,218,233894,0.0-1.0-330.0,0,0,3,,173.0,,,50.0,82.0,82.0,2.0,1000.0,M-L,0.0,M,L,2.0,3.0,ketchup,deskchair,ketchup4,deskchair9,93.0,18.0,/static/Size_judgement/Stimuli/Size_stims/M/ketchup/ketchup2.jpg,/static/Size_judgement/Stimuli/Size_stims/L/deskchair/deskchair3.jpg,1.0,ketchup,deskchair,M,L,2.0,3.0,ketchup4,deskchair9,0.0,0.0,227.173,0.173,,
219,,size_choice_confirmation,,html-keyboard-response,219,235227,0.0-1.0-331.0-0.0,0,0,3,,,,,,82.0,,,,,,,,,,,,,,,,,,,,,,,,,,,,,228.5,1.327,,
220,,iti,,html-keyboard-response,220,235329,0.0-1.0-332.0,0,0,3,,,,,,,,,,,,,,,,,,,,,,,,,,,,,,,,,,,229.5,1.0,,
221,,size_choice,,html-keyboard-response,221,235687,0.0-1.0-334.0,0,0,3,,356.0,,,50.0,83.0,83.0,2.0,3000.0,S-S,,S,S,1.0,1.0,screws,teabag,screws10,teabag9,129.0,138.0,/static/Size_judgement/Stimuli/Size_stims/S/screws/screws9.jpg,/static/Size_judgement/Stimuli/Size_stims/S/teabag/teabag5.jpg,1.0,screws,teabag,S,S,1.0,1.0,screws10,teabag9,,0.0,229.856,0.356,,
222,,size_choice_confirmation,,html-keyboard-response,222,236837,0.0-1.0-335.0-0.0,0,0,3,,,,,,83.0,,,,,,,,,,,,,,,,,,,,,,,,,,,,,231.0,1.144,,
223,,iti,,html-keyboard-response,223,236942,0.0-1.0-336.0,0,0,3,,,,,,,,,,,,,,,,,,,,,,,,,,,,,,,,,,,234.0,3.0,,
224,,size_choice,,html-keyboard-response,224,237288,0.0-1.0-338.0,0,0,3,,344.0,,,50.0,84.0,84.0,2.0,1500.0,S-M,1.0,M,S,2.0,1.0,handsaw,paperclip,handsaw6,paperclip10,85.0,119.0,/static/Size_judgement/Stimuli/Size_stims/M/handsaw/handsaw4.jpg,/static/Size_judgement/Stimuli/Size_stims/S/paperclip/paperclip10.jpg,1.0,handsaw,paperclip,M,S,2.0,1.0,handsaw6,paperclip10,1.0,0.0,234.344,0.344,,
225,,size_choice_confirmation,,html-keyboard-response,225,238449,0.0-1.0-339.0-0.0,0,0,3,,,,,,84.0,,,,,,,,,,,,,,,,,,,,,,,,,,,,,235.5,1.156,,
226,,iti,,html-keyboard-response,226,238552,0.0-1.0-340.0,0,0,3,,,,,,,,,,,,,,,,,,,,,,,,,,,,,,,,,,,237.0,1.5,,
227,,size_choice,,html-keyboard-response,227,238646,0.0-1.0-342.0,0,0,3,,93.0,,,50.0,85.0,85.0,2.0,1000.0,S-XL,1.0,XL,S,4.0,1.0,car,teabag,car5,teabag1,154.0,130.0,/static/Size_judgement/Stimuli/Size_stims/XL/car/car11.jpg,/static/Size_judgement/Stimuli/Size_stims/S/teabag/teabag9.jpg,1.0,car,teabag,XL,S,4.0,1.0,car5,teabag1,1.0,0.0,237.093,0.093,,
228,,size_choice_confirmation,,html-keyboard-response,228,240059,0.0-1.0-343.0-0.0,0,0,3,,,,,,85.0,,,,,,,,,,,,,,,,,,,,,,,,,,,,,238.5,1.407,,
229,,iti,,html-keyboard-response,229,240161,0.0-1.0-344.0,0,0,3,,,,,,,,,,,,,,,,,,,,,,,,,,,,,,,,,,,239.5,1.0,,
230,,size_choice,,html-keyboard-response,230,240476,0.0-1.0-346.0,0,0,3,,314.0,,,50.0,86.0,86.0,2.0,1500.0,M-L,0.0,M,L,2.0,3.0,hairdryer,dishwasher,hairdryer10,dishwasher8,79.0,27.0,/static/Size_judgement/Stimuli/Size_stims/M/hairdryer/hairdryer6.jpg,/static/Size_judgement/Stimuli/Size_stims/L/dishwasher/dishwasher3.jpg,1.0,hairdryer,dishwasher,M,L,2.0,3.0,hairdryer10,dishwasher8,0.0,0.0,239.814,0.314,,
231,,size_choice_confirmation,,html-keyboard-response,231,241665,0.0-1.0-347.0-0.0,0,0,3,,,,,,86.0,,,,,,,,,,,,,,,,,,,,,,,,,,,,,241.0,1.186,,
232,,iti,,html-keyboard-response,232,241766,0.0-1.0-348.0,0,0,3,,,,,,,,,,,,,,,,,,,,,,,,,,,,,,,,,,,242.5,1.5,,
233,,size_choice,,html-keyboard-response,233,241961,0.0-1.0-350.0,0,0,3,,195.0,,,50.0,87.0,87.0,2.0,1000.0,L-XL,1.0,XL,L,4.0,3.0,van,deskchair,van2,deskchair4,191.0,13.0,/static/Size_judgement/Stimuli/Size_stims/XL/van/van4.jpg,/static/Size_judgement/Stimuli/Size_stims/L/deskchair/deskchair6.jpg,1.0,van,deskchair,XL,L,4.0,3.0,van2,deskchair4,1.0,0.0,242.695,0.195,,
234,,size_choice_confirmation,,html-keyboard-response,234,243272,0.0-1.0-351.0-0.0,0,0,3,,,,,,87.0,,,,,,,,,,,,,,,,,,,,,,,,,,,,,244.0,1.305,,
235,,iti,,html-keyboard-response,235,243377,0.0-1.0-352.0,0,0,3,,,,,,,,,,,,,,,,,,,,,,,,,,,,,,,,,,,245.0,1.0,,
236,,size_choice,,html-keyboard-response,236,244177,0.0-1.0-354.0,0,0,3,,798.0,,,50.0,88.0,88.0,2.0,1500.0,S-L,1.0,L,S,3.0,1.0,dishwasher,teabag,dishwasher5,teabag7,24.0,136.0,/static/Size_judgement/Stimuli/Size_stims/L/dishwasher/dishwasher4.jpg,/static/Size_judgement/Stimuli/Size_stims/S/teabag/teabag10.jpg,1.0,dishwasher,teabag,L,S,3.0,1.0,dishwasher5,teabag7,1.0,0.0,245.798,0.798,,
237,,size_choice_confirmation,,html-keyboard-response,237,244884,0.0-1.0-355.0-0.0,0,0,3,,,,,,88.0,,,,,,,,,,,,,,,,,,,,,,,,,,,,,246.5,0.702,,
238,,iti,,html-keyboard-response,238,244987,0.0-1.0-356.0,0,0,3,,,,,,,,,,,,,,,,,,,,,,,,,,,,,,,,,,,248.0,1.5,,
239,,size_choice,,html-keyboard-response,239,245003,0.0-1.0-358.0,0,0,3,,15.0,,,50.0,89.0,89.0,2.0,1500.0,M-L,0.0,M,L,2.0,3.0,hairdryer,garbagecan,hairdryer7,garbagecan4,76.0,33.0,/static/Size_judgement/Stimuli/Size_stims/M/hairdryer/hairdryer3.jpg,/static/Size_judgement/Stimuli/Size_stims/L/garbagecan/garbagecan6.jpg,1.0,hairdryer,garbagecan,M,L,2.0,3.0,hairdryer7,garbagecan4,0.0,0.0,248.015,0.015,,
240,,size_choice_confirmation,,html-keyboard-response,240,246492,0.0-1.0-359.0-0.0,0,0,3,,,,,,89.0,,,,,,,,,,,,,,,,,,,,,,,,,,,,,249.5,1.485,,
241,,iti,,html-keyboard-response,241,246593,0.0-1.0-360.0,0,0,3,,,,,,,,,,,,,,,,,,,,,,,,,,,,,,,,,,,251.0,1.5,,1.73
242,,size_final_tally,,html-keyboard-response,242,246831,0.0-2.0,0,0,3,,237.0,,,50.0,,,,,,,,,,,,,,,,,,,,,,,,,,,,,,,,,
