,success,ttype,start_time,trial_type,trial_index,time_elapsed,internal_node_id,warning,missed_checkup,PID,view_history,rt,responses,repeat_instructions,key_press,index,trial_num,block,iti,pair_type,high_size_on_left,left_size_group,right_size_group,left_size_num,right_size_num,left_category,right_category,left_exemplar,right_exemplar,left_index,right_index,left_img_path,right_img_path,left_chosen,chosen_category,unchosen_category,chosen_size_group,unchosen_size_group,chosen_size_num,unchosen_size_num,chosen_exemplar,unchosen_exemplar,accuracy,onset,duration,no_response,size_final_tally
0,True,full_screen,d06042022hr0245,fullscreen,0,2788,0.0-0.0,0,0,26705,,,,,,,,,,,,,,,,,,,,,,,,,,,,,,,,,,,,,
1,,size_instructions,,instructions,1,248557,0.0-1.0-0.0-0.0,0,0,26705,"[{""page_index"":0,""viewing_time"":6179},{""page_index"":1,""viewing_time"":5042},{""page_index"":2,""viewing_time"":1954},{""page_index"":3,""viewing_time"":2714},{""page_index"":4,""viewing_time"":227962},{""page_index"":5,""viewing_time"":1910}]",245762.0,,,,,,,,,,,,,,,,,,,,,,,,,,,,,,,,,,,
2,,size_comprehension_check,,survey-multi-choice,2,258569,0.0-1.0-0.0-1.0,0,0,26705,,9970.0,"{""Q0"":""True"",""Q1"":""Size in the real world"",""Q2"":""True"",""Q3"":""D for left and K for right""}",0.0,,,,,,,,,,,,,,,,,,,,,,,,,,,,,,,,,
3,,,,html-keyboard-response,3,259889,0.0-1.0-1.0,0,0,26705,,1304.0,,,68.0,,,,,,,,,,,,,,,,,,,,,,,,,,,,,,,,
4,,size_choice,,html-keyboard-response,4,260689,0.0-1.0-2.0,0,0,26705,,782.0,,,68.0,0.0,0.0,1.0,1500.0,S-M,1.0,M,S,2.0,1.0,hairdryer,paperclip,hairdryer8,paperclip1,77.0,110.0,/static/Size_judgement/Stimuli/Size_stims/M/hairdryer/hairdryer1.jpg,/static/Size_judgement/Stimuli/Size_stims/S/paperclip/paperclip9.jpg,1.0,hairdryer,paperclip,M,S,2.0,1.0,hairdryer8,paperclip1,1.0,0.782,0.782,0.0,
5,,size_choice_confirmation,,html-keyboard-response,5,261416,0.0-1.0-3.0-0.0,0,0,26705,,,,,,0.0,,,,,,,,,,,,,,,,,,,,,,,,,,,,1.5,0.718,,
6,,iti,,html-keyboard-response,6,262921,0.0-1.0-4.0,0,0,26705,,,,,,,,,,,,,,,,,,,,,,,,,,,,,,,,,,3.0,1.5,,
7,,size_choice,,html-keyboard-response,7,263654,0.0-1.0-6.0,0,0,26705,,723.0,,,75.0,1.0,1.0,1.0,1000.0,S-XL,0.0,S,XL,1.0,4.0,die,van,die5,van5,104.0,194.0,/static/Size_judgement/Stimuli/Size_stims/S/die/die3.jpg,/static/Size_judgement/Stimuli/Size_stims/XL/van/van3.jpg,0.0,van,die,XL,S,4.0,1.0,van5,die5,1.0,3.723,0.723,0.0,
8,,size_choice_confirmation,,html-keyboard-response,8,264440,0.0-1.0-7.0-0.0,0,0,26705,,,,,,1.0,,,,,,,,,,,,,,,,,,,,,,,,,,,,4.5,0.777,,
9,,iti,,html-keyboard-response,9,265446,0.0-1.0-8.0,0,0,26705,,,,,,,,,,,,,,,,,,,,,,,,,,,,,,,,,,5.5,1.0,,
10,,size_choice,,html-keyboard-response,10,266320,0.0-1.0-10.0,0,0,26705,,866.0,,,68.0,2.0,2.0,1.0,1000.0,S-L,1.0,L,S,3.0,1.0,dishwasher,thread,dishwasher8,thread1,27.0,140.0,/static/Size_judgement/Stimuli/Size_stims/L/dishwasher/dishwasher3.jpg,/static/Size_judgement/Stimuli/Size_stims/S/thread/thread7.jpg,1.0,dishwasher,thread,L,S,3.0,1.0,dishwasher8,thread1,1.0,6.366,0.866,0.0,
11,,size_choice_confirmation,,html-keyboard-response,11,266963,0.0-1.0-11.0-0.0,0,0,26705,,,,,,2.0,,,,,,,,,,,,,,,,,,,,,,,,,,,,7.0,0.634,,
12,,iti,,html-keyboard-response,12,267977,0.0-1.0-12.0,0,0,26705,,,,,,,,,,,,,,,,,,,,,,,,,,,,,,,,,,8.0,1.0,,
13,,size_choice,,html-keyboard-response,13,268683,0.0-1.0-14.0,0,0,26705,,700.0,,,68.0,3.0,3.0,1.0,1500.0,M-XL,1.0,XL,M,4.0,2.0,van,basketball,van4,basketball9,193.0,58.0,/static/Size_judgement/Stimuli/Size_stims/XL/van/van7.jpg,/static/Size_judgement/Stimuli/Size_stims/M/basketball/basketball5.jpg,1.0,van,basketball,XL,M,4.0,2.0,van4,basketball9,1.0,8.7,0.7,0.0,
14,,size_choice_confirmation,,html-keyboard-response,14,269495,0.0-1.0-15.0-0.0,0,0,26705,,,,,,3.0,,,,,,,,,,,,,,,,,,,,,,,,,,,,9.5,0.8,,
15,,iti,,html-keyboard-response,15,271010,0.0-1.0-16.0,0,0,26705,,,,,,,,,,,,,,,,,,,,,,,,,,,,,,,,,,11.0,1.5,,
16,,size_choice,,html-keyboard-response,16,271732,0.0-1.0-18.0,0,0,26705,,716.0,,,68.0,4.0,4.0,1.0,1500.0,M-XL,1.0,XL,M,4.0,2.0,crane,handsaw,crane4,handsaw4,163.0,83.0,/static/Size_judgement/Stimuli/Size_stims/XL/crane/crane5.jpg,/static/Size_judgement/Stimuli/Size_stims/M/handsaw/handsaw3.jpg,1.0,crane,handsaw,XL,M,4.0,2.0,crane4,handsaw4,1.0,11.716,0.716,0.0,
17,,size_choice_confirmation,,html-keyboard-response,17,272526,0.0-1.0-19.0-0.0,0,0,26705,,,,,,4.0,,,,,,,,,,,,,,,,,,,,,,,,,,,,12.5,0.784,,
18,,iti,,html-keyboard-response,18,274033,0.0-1.0-20.0,0,0,26705,,,,,,,,,,,,,,,,,,,,,,,,,,,,,,,,,,14.0,1.5,,
19,,size_choice,,html-keyboard-response,19,274858,0.0-1.0-22.0,0,0,26705,,821.0,,,68.0,5.0,5.0,1.0,1000.0,M-L,1.0,L,M,3.0,2.0,deskchair,handsaw,deskchair9,handsaw9,18.0,88.0,/static/Size_judgement/Stimuli/Size_stims/L/deskchair/deskchair3.jpg,/static/Size_judgement/Stimuli/Size_stims/M/handsaw/handsaw6.jpg,1.0,deskchair,handsaw,L,M,3.0,2.0,deskchair9,handsaw9,1.0,14.821,0.821,0.0,
20,,size_choice_confirmation,,html-keyboard-response,20,275569,0.0-1.0-23.0-0.0,0,0,26705,,,,,,5.0,,,,,,,,,,,,,,,,,,,,,,,,,,,,15.5,0.679,,
21,,iti,,html-keyboard-response,21,276585,0.0-1.0-24.0,0,0,26705,,,,,,,,,,,,,,,,,,,,,,,,,,,,,,,,,,16.5,1.0,,
22,,size_choice,,html-keyboard-response,22,277802,0.0-1.0-26.0,0,0,26705,,1213.0,,,75.0,6.0,6.0,1.0,1500.0,M-L,0.0,M,L,2.0,3.0,coffeemaker,mailbox,coffeemaker7,mailbox7,66.0,46.0,/static/Size_judgement/Stimuli/Size_stims/M/coffeemaker/coffeemaker9.jpg,/static/Size_judgement/Stimuli/Size_stims/L/mailbox/mailbox7.jpg,0.0,mailbox,coffeemaker,L,M,3.0,2.0,mailbox7,coffeemaker7,1.0,17.713,1.213,0.0,
23,,size_choice_confirmation,,html-keyboard-response,23,278094,0.0-1.0-27.0-0.0,0,0,26705,,,,,,6.0,,,,,,,,,,,,,,,,,,,,,,,,,,,,18.0,0.287,,
24,,iti,,html-keyboard-response,24,279605,0.0-1.0-28.0,0,0,26705,,,,,,,,,,,,,,,,,,,,,,,,,,,,,,,,,,19.5,1.5,,
25,,size_choice,,html-keyboard-response,25,280448,0.0-1.0-30.0,0,0,26705,,840.0,,,68.0,7.0,7.0,1.0,1500.0,M-L,1.0,L,M,3.0,2.0,deskchair,ketchup,deskchair10,ketchup3,19.0,92.0,/static/Size_judgement/Stimuli/Size_stims/L/deskchair/deskchair2.jpg,/static/Size_judgement/Stimuli/Size_stims/M/ketchup/ketchup10.jpg,1.0,deskchair,ketchup,L,M,3.0,2.0,deskchair10,ketchup3,1.0,20.34,0.84,0.0,
26,,size_choice_confirmation,,html-keyboard-response,26,281126,0.0-1.0-31.0-0.0,0,0,26705,,,,,,7.0,,,,,,,,,,,,,,,,,,,,,,,,,,,,21.0,0.66,,
27,,iti,,html-keyboard-response,27,282630,0.0-1.0-32.0,0,0,26705,,,,,,,,,,,,,,,,,,,,,,,,,,,,,,,,,,22.5,1.5,,
28,,size_choice,,html-keyboard-response,28,283383,0.0-1.0-34.0,0,0,26705,,749.0,,,68.0,8.0,8.0,1.0,2000.0,S-L,1.0,L,S,3.0,1.0,cooler,paperclip,cooler8,paperclip3,7.0,112.0,/static/Size_judgement/Stimuli/Size_stims/L/cooler/cooler5.jpg,/static/Size_judgement/Stimuli/Size_stims/S/paperclip/paperclip1.jpg,1.0,cooler,paperclip,L,S,3.0,1.0,cooler8,paperclip3,1.0,23.249,0.749,0.0,
29,,size_choice_confirmation,,html-keyboard-response,29,284138,0.0-1.0-35.0-0.0,0,0,26705,,,,,,8.0,,,,,,,,,,,,,,,,,,,,,,,,,,,,24.0,0.751,,
30,,iti,,html-keyboard-response,30,286142,0.0-1.0-36.0,0,0,26705,,,,,,,,,,,,,,,,,,,,,,,,,,,,,,,,,,26.0,2.0,,
31,,size_choice,,html-keyboard-response,31,286929,0.0-1.0-38.0,0,0,26705,,783.0,,,75.0,9.0,9.0,1.0,1500.0,M-L,0.0,M,L,2.0,3.0,basketball,garbagecan,basketball10,garbagecan5,59.0,34.0,/static/Size_judgement/Stimuli/Size_stims/M/basketball/basketball4.jpg,/static/Size_judgement/Stimuli/Size_stims/L/garbagecan/garbagecan3.jpg,0.0,garbagecan,basketball,L,M,3.0,2.0,garbagecan5,basketball10,1.0,26.783,0.783,0.0,
32,,size_choice_confirmation,,html-keyboard-response,32,287661,0.0-1.0-39.0-0.0,0,0,26705,,,,,,9.0,,,,,,,,,,,,,,,,,,,,,,,,,,,,27.5,0.717,,
33,,iti,,html-keyboard-response,33,289166,0.0-1.0-40.0,0,0,26705,,,,,,,,,,,,,,,,,,,,,,,,,,,,,,,,,,29.0,1.5,,
34,,size_choice,,html-keyboard-response,34,289878,0.0-1.0-42.0,0,0,26705,,707.0,,,68.0,10.0,10.0,1.0,2000.0,S-L,1.0,L,S,3.0,1.0,dishwasher,teabag,dishwasher1,teabag5,20.0,134.0,/static/Size_judgement/Stimuli/Size_stims/L/dishwasher/dishwasher10.jpg,/static/Size_judgement/Stimuli/Size_stims/S/teabag/teabag2.jpg,1.0,dishwasher,teabag,L,S,3.0,1.0,dishwasher1,teabag5,1.0,29.707,0.707,0.0,
35,,size_choice_confirmation,,html-keyboard-response,35,290677,0.0-1.0-43.0-0.0,0,0,26705,,,,,,10.0,,,,,,,,,,,,,,,,,,,,,,,,,,,,30.5,0.793,,
36,,iti,,html-keyboard-response,36,292687,0.0-1.0-44.0,0,0,26705,,,,,,,,,,,,,,,,,,,,,,,,,,,,,,,,,,32.5,2.0,,
37,,size_choice,,html-keyboard-response,37,293375,0.0-1.0-46.0,0,0,26705,,682.0,,,68.0,11.0,11.0,1.0,1000.0,S-S,,S,S,1.0,1.0,thread,die,thread10,die4,149.0,103.0,/static/Size_judgement/Stimuli/Size_stims/S/thread/thread9.jpg,/static/Size_judgement/Stimuli/Size_stims/S/die/die2.jpg,1.0,thread,die,S,S,1.0,1.0,thread10,die4,,33.182,0.682,0.0,
38,,size_choice_confirmation,,html-keyboard-response,38,294212,0.0-1.0-47.0-0.0,0,0,26705,,,,,,11.0,,,,,,,,,,,,,,,,,,,,,,,,,,,,34.0,0.818,,
39,,iti,,html-keyboard-response,39,295227,0.0-1.0-48.0,0,0,26705,,,,,,,,,,,,,,,,,,,,,,,,,,,,,,,,,,35.0,1.0,,
40,,size_choice,,html-keyboard-response,40,296246,0.0-1.0-50.0,0,0,26705,,1015.0,,,75.0,12.0,12.0,1.0,1000.0,S-XL,0.0,S,XL,1.0,4.0,teabag,crane,teabag6,crane6,135.0,165.0,/static/Size_judgement/Stimuli/Size_stims/S/teabag/teabag6.jpg,/static/Size_judgement/Stimuli/Size_stims/XL/crane/crane2.jpg,0.0,crane,teabag,XL,S,4.0,1.0,crane6,teabag6,1.0,36.015,1.015,0.0,
41,,size_choice_confirmation,,html-keyboard-response,41,296740,0.0-1.0-51.0-0.0,0,0,26705,,,,,,12.0,,,,,,,,,,,,,,,,,,,,,,,,,,,,36.5,0.485,,
42,,iti,,html-keyboard-response,42,297755,0.0-1.0-52.0,0,0,26705,,,,,,,,,,,,,,,,,,,,,,,,,,,,,,,,,,37.5,1.0,,
43,,size_choice,,html-keyboard-response,43,298472,0.0-1.0-54.0,0,0,26705,,711.0,,,75.0,13.0,13.0,1.0,1500.0,S-M,0.0,S,M,1.0,2.0,paperclip,ketchup,paperclip2,ketchup7,111.0,96.0,/static/Size_judgement/Stimuli/Size_stims/S/paperclip/paperclip8.jpg,/static/Size_judgement/Stimuli/Size_stims/M/ketchup/ketchup4.jpg,0.0,ketchup,paperclip,M,S,2.0,1.0,ketchup7,paperclip2,1.0,38.211,0.711,0.0,
44,,size_choice_confirmation,,html-keyboard-response,44,299276,0.0-1.0-55.0-0.0,0,0,26705,,,,,,13.0,,,,,,,,,,,,,,,,,,,,,,,,,,,,39.0,0.789,,
45,,iti,,html-keyboard-response,45,300786,0.0-1.0-56.0,0,0,26705,,,,,,,,,,,,,,,,,,,,,,,,,,,,,,,,,,40.5,1.5,,
46,,size_choice,,html-keyboard-response,46,301465,0.0-1.0-58.0,0,0,26705,,674.0,,,75.0,14.0,14.0,1.0,2000.0,S-L,0.0,S,L,1.0,3.0,thread,garbagecan,thread6,garbagecan8,145.0,37.0,/static/Size_judgement/Stimuli/Size_stims/S/thread/thread2.jpg,/static/Size_judgement/Stimuli/Size_stims/L/garbagecan/garbagecan13.jpg,0.0,garbagecan,thread,L,S,3.0,1.0,garbagecan8,thread6,1.0,41.174,0.674,0.0,
47,,size_choice_confirmation,,html-keyboard-response,47,302306,0.0-1.0-59.0-0.0,0,0,26705,,,,,,14.0,,,,,,,,,,,,,,,,,,,,,,,,,,,,42.0,0.826,,
48,,iti,,html-keyboard-response,48,304312,0.0-1.0-60.0,0,0,26705,,,,,,,,,,,,,,,,,,,,,,,,,,,,,,,,,,44.0,2.0,,
49,,size_choice,,html-keyboard-response,49,304931,0.0-1.0-62.0,0,0,26705,,615.0,,,75.0,15.0,15.0,1.0,1000.0,S-L,0.0,S,L,1.0,3.0,screws,dishwasher,screws4,dishwasher2,123.0,21.0,/static/Size_judgement/Stimuli/Size_stims/S/screws/screws6.jpg,/static/Size_judgement/Stimuli/Size_stims/L/dishwasher/dishwasher9.jpg,0.0,dishwasher,screws,L,S,3.0,1.0,dishwasher2,screws4,1.0,44.615,0.615,0.0,
50,,size_choice_confirmation,,html-keyboard-response,50,305826,0.0-1.0-63.0-0.0,0,0,26705,,,,,,15.0,,,,,,,,,,,,,,,,,,,,,,,,,,,,45.5,0.885,,
51,,iti,,html-keyboard-response,51,306831,0.0-1.0-64.0,0,0,26705,,,,,,,,,,,,,,,,,,,,,,,,,,,,,,,,,,46.5,1.0,,
52,,size_choice,,html-keyboard-response,52,307764,0.0-1.0-66.0,0,0,26705,,927.0,,,68.0,16.0,16.0,1.0,3000.0,XL-XL,,XL,XL,4.0,4.0,dumptruck,crane,dumptruck9,crane9,178.0,168.0,/static/Size_judgement/Stimuli/Size_stims/XL/dumptruck/dumptruck5.jpg,/static/Size_judgement/Stimuli/Size_stims/XL/crane/crane8.jpg,1.0,dumptruck,crane,XL,XL,4.0,4.0,dumptruck9,crane9,,47.427,0.927,0.0,
53,,size_choice_confirmation,,html-keyboard-response,53,308347,0.0-1.0-67.0-0.0,0,0,26705,,,,,,16.0,,,,,,,,,,,,,,,,,,,,,,,,,,,,48.0,0.573,,
54,,iti,,html-keyboard-response,54,311356,0.0-1.0-68.0,0,0,26705,,,,,,,,,,,,,,,,,,,,,,,,,,,,,,,,,,51.0,3.0,,
55,,size_choice,,html-keyboard-response,55,312151,0.0-1.0-70.0,0,0,26705,,792.0,,,75.0,17.0,17.0,1.0,1000.0,L-L,,L,L,3.0,3.0,deskchair,mailbox,deskchair2,mailbox5,11.0,44.0,/static/Size_judgement/Stimuli/Size_stims/L/deskchair/deskchair8.jpg,/static/Size_judgement/Stimuli/Size_stims/L/mailbox/mailbox4.jpg,0.0,mailbox,deskchair,L,L,3.0,3.0,mailbox5,deskchair2,,51.792,0.792,0.0,
56,,size_choice_confirmation,,html-keyboard-response,56,312866,0.0-1.0-71.0-0.0,0,0,26705,,,,,,17.0,,,,,,,,,,,,,,,,,,,,,,,,,,,,52.5,0.708,,
57,,iti,,html-keyboard-response,57,313876,0.0-1.0-72.0,0,0,26705,,,,,,,,,,,,,,,,,,,,,,,,,,,,,,,,,,53.5,1.0,,
58,,size_choice,,html-keyboard-response,58,314582,0.0-1.0-74.0,0,0,26705,,700.0,,,68.0,18.0,18.0,1.0,3000.0,M-XL,1.0,XL,M,4.0,2.0,van,coffeemaker,van2,coffeemaker8,191.0,67.0,/static/Size_judgement/Stimuli/Size_stims/XL/van/van4.jpg,/static/Size_judgement/Stimuli/Size_stims/M/coffeemaker/coffeemaker5.jpg,1.0,van,coffeemaker,XL,M,4.0,2.0,van2,coffeemaker8,1.0,54.2,0.7,0.0,
59,,size_choice_confirmation,,html-keyboard-response,59,315399,0.0-1.0-75.0-0.0,0,0,26705,,,,,,18.0,,,,,,,,,,,,,,,,,,,,,,,,,,,,55.0,0.8,,
60,,iti,,html-keyboard-response,60,318401,0.0-1.0-76.0,0,0,26705,,,,,,,,,,,,,,,,,,,,,,,,,,,,,,,,,,58.0,3.0,,
61,,size_choice,,html-keyboard-response,61,319136,0.0-1.0-78.0,0,0,26705,,731.0,,,68.0,19.0,19.0,1.0,1000.0,M-XL,1.0,XL,M,4.0,2.0,tractor,handsaw,tractor6,handsaw1,185.0,80.0,/static/Size_judgement/Stimuli/Size_stims/XL/tractor/tractor3.jpg,/static/Size_judgement/Stimuli/Size_stims/M/handsaw/handsaw8.jpg,1.0,tractor,handsaw,XL,M,4.0,2.0,tractor6,handsaw1,1.0,58.731,0.731,0.0,
62,,size_choice_confirmation,,html-keyboard-response,62,319911,0.0-1.0-79.0-0.0,0,0,26705,,,,,,19.0,,,,,,,,,,,,,,,,,,,,,,,,,,,,59.5,0.769,,
63,,iti,,html-keyboard-response,63,320926,0.0-1.0-80.0,0,0,26705,,,,,,,,,,,,,,,,,,,,,,,,,,,,,,,,,,60.5,1.0,,
64,,size_choice,,html-keyboard-response,64,321580,0.0-1.0-82.0,0,0,26705,,650.0,,,75.0,20.0,20.0,1.0,1000.0,M-XL,0.0,M,XL,2.0,4.0,hairdryer,van,hairdryer9,van1,78.0,190.0,/static/Size_judgement/Stimuli/Size_stims/M/hairdryer/hairdryer5.jpg,/static/Size_judgement/Stimuli/Size_stims/XL/van/van5.jpg,0.0,van,hairdryer,XL,M,4.0,2.0,van1,hairdryer9,1.0,61.15,0.65,0.0,
65,,size_choice_confirmation,,html-keyboard-response,65,322437,0.0-1.0-83.0-0.0,0,0,26705,,,,,,20.0,,,,,,,,,,,,,,,,,,,,,,,,,,,,62.0,0.85,,
66,,iti,,html-keyboard-response,66,323446,0.0-1.0-84.0,0,0,26705,,,,,,,,,,,,,,,,,,,,,,,,,,,,,,,,,,63.0,1.0,,
67,,size_choice,,html-keyboard-response,67,324169,0.0-1.0-86.0,0,0,26705,,718.0,,,75.0,21.0,21.0,1.0,1000.0,S-M,0.0,S,M,1.0,2.0,die,hairdryer,die6,hairdryer4,105.0,73.0,/static/Size_judgement/Stimuli/Size_stims/S/die/die1.jpg,/static/Size_judgement/Stimuli/Size_stims/M/hairdryer/hairdryer16.jpg,0.0,hairdryer,die,M,S,2.0,1.0,hairdryer4,die6,1.0,63.718,0.718,0.0,
68,,size_choice_confirmation,,html-keyboard-response,68,324966,0.0-1.0-87.0-0.0,0,0,26705,,,,,,21.0,,,,,,,,,,,,,,,,,,,,,,,,,,,,64.5,0.782,,
69,,iti,,html-keyboard-response,69,325978,0.0-1.0-88.0,0,0,26705,,,,,,,,,,,,,,,,,,,,,,,,,,,,,,,,,,65.5,1.0,,
70,,size_choice,,html-keyboard-response,70,326645,0.0-1.0-90.0,0,0,26705,,662.0,,,68.0,22.0,22.0,1.0,1000.0,S-L,1.0,L,S,3.0,1.0,mailbox,teabag,mailbox3,teabag8,42.0,137.0,/static/Size_judgement/Stimuli/Size_stims/L/mailbox/mailbox1.jpg,/static/Size_judgement/Stimuli/Size_stims/S/teabag/teabag7.jpg,1.0,mailbox,teabag,L,S,3.0,1.0,mailbox3,teabag8,1.0,66.162,0.662,0.0,
71,,size_choice_confirmation,,html-keyboard-response,71,327494,0.0-1.0-91.0-0.0,0,0,26705,,,,,,22.0,,,,,,,,,,,,,,,,,,,,,,,,,,,,67.0,0.838,,
72,,iti,,html-keyboard-response,72,328509,0.0-1.0-92.0,0,0,26705,,,,,,,,,,,,,,,,,,,,,,,,,,,,,,,,,,68.0,1.0,,
73,,size_choice,,html-keyboard-response,73,329122,0.0-1.0-94.0,0,0,26705,,604.0,,,68.0,23.0,23.0,1.0,1500.0,M-XL,1.0,XL,M,4.0,2.0,tractor,basketball,tractor4,basketball4,183.0,53.0,/static/Size_judgement/Stimuli/Size_stims/XL/tractor/tractor4.jpg,/static/Size_judgement/Stimuli/Size_stims/M/basketball/basketball1.jpg,1.0,tractor,basketball,XL,M,4.0,2.0,tractor4,basketball4,1.0,68.604,0.604,0.0,
74,,size_choice_confirmation,,html-keyboard-response,74,330027,0.0-1.0-95.0-0.0,0,0,26705,,,,,,23.0,,,,,,,,,,,,,,,,,,,,,,,,,,,,69.5,0.896,,
75,,iti,,html-keyboard-response,75,331540,0.0-1.0-96.0,0,0,26705,,,,,,,,,,,,,,,,,,,,,,,,,,,,,,,,,,71.0,1.5,,
76,,size_choice,,html-keyboard-response,76,332131,0.0-1.0-98.0,0,0,26705,,588.0,,,68.0,24.0,24.0,1.0,2000.0,S-XL,1.0,XL,S,4.0,1.0,dumptruck,die,dumptruck6,die8,175.0,107.0,/static/Size_judgement/Stimuli/Size_stims/XL/dumptruck/dumptruck2.jpg,/static/Size_judgement/Stimuli/Size_stims/S/die/die5.jpg,1.0,dumptruck,die,XL,S,4.0,1.0,dumptruck6,die8,1.0,71.588,0.588,0.0,
77,,size_choice_confirmation,,html-keyboard-response,77,333052,0.0-1.0-99.0-0.0,0,0,26705,,,,,,24.0,,,,,,,,,,,,,,,,,,,,,,,,,,,,72.5,0.912,,
78,,iti,,html-keyboard-response,78,335062,0.0-1.0-100.0,0,0,26705,,,,,,,,,,,,,,,,,,,,,,,,,,,,,,,,,,74.5,2.0,,
79,,size_choice,,html-keyboard-response,79,335655,0.0-1.0-102.0,0,0,26705,,588.0,,,68.0,25.0,25.0,1.0,1000.0,S-XL,1.0,XL,S,4.0,1.0,van,die,van10,die10,199.0,109.0,/static/Size_judgement/Stimuli/Size_stims/XL/van/van8.jpg,/static/Size_judgement/Stimuli/Size_stims/S/die/die6.jpg,1.0,van,die,XL,S,4.0,1.0,van10,die10,1.0,75.088,0.588,0.0,
80,,size_choice_confirmation,,html-keyboard-response,80,336583,0.0-1.0-103.0-0.0,0,0,26705,,,,,,25.0,,,,,,,,,,,,,,,,,,,,,,,,,,,,76.0,0.912,,
81,,iti,,html-keyboard-response,81,337595,0.0-1.0-104.0,0,0,26705,,,,,,,,,,,,,,,,,,,,,,,,,,,,,,,,,,77.0,1.0,,
82,,size_choice,,html-keyboard-response,82,338241,0.0-1.0-106.0,0,0,26705,,642.0,,,68.0,26.0,26.0,1.0,2000.0,M-M,,M,M,2.0,2.0,coffeemaker,hairdryer,coffeemaker5,hairdryer1,64.0,70.0,/static/Size_judgement/Stimuli/Size_stims/M/coffeemaker/coffeemaker10.jpg,/static/Size_judgement/Stimuli/Size_stims/M/hairdryer/hairdryer11.jpg,1.0,coffeemaker,hairdryer,M,M,2.0,2.0,coffeemaker5,hairdryer1,,77.642,0.642,0.0,
83,,size_choice_confirmation,,html-keyboard-response,83,339107,0.0-1.0-107.0-0.0,0,0,26705,,,,,,26.0,,,,,,,,,,,,,,,,,,,,,,,,,,,,78.5,0.858,,
84,,iti,,html-keyboard-response,84,341126,0.0-1.0-108.0,0,0,26705,,,,,,,,,,,,,,,,,,,,,,,,,,,,,,,,,,80.5,2.0,,
85,,size_choice,,html-keyboard-response,85,341841,0.0-1.0-110.0,0,0,26705,,711.0,,,75.0,27.0,27.0,1.0,3000.0,XL-XL,,XL,XL,4.0,4.0,car,dumptruck,car7,dumptruck2,156.0,171.0,/static/Size_judgement/Stimuli/Size_stims/XL/car/car13.jpg,/static/Size_judgement/Stimuli/Size_stims/XL/dumptruck/dumptruck8.jpg,0.0,dumptruck,car,XL,XL,4.0,4.0,dumptruck2,car7,,81.211,0.711,0.0,
86,,size_choice_confirmation,,html-keyboard-response,86,342647,0.0-1.0-111.0-0.0,0,0,26705,,,,,,27.0,,,,,,,,,,,,,,,,,,,,,,,,,,,,82.0,0.789,,
87,,iti,,html-keyboard-response,87,345666,0.0-1.0-112.0,0,0,26705,,,,,,,,,,,,,,,,,,,,,,,,,,,,,,,,,,85.0,3.0,,
88,,size_choice,,html-keyboard-response,88,346297,0.0-1.0-114.0,0,0,26705,,627.0,,,68.0,28.0,28.0,1.0,1000.0,M-L,1.0,L,M,3.0,2.0,mailbox,ketchup,mailbox2,ketchup6,41.0,95.0,/static/Size_judgement/Stimuli/Size_stims/L/mailbox/mailbox2.jpg,/static/Size_judgement/Stimuli/Size_stims/M/ketchup/ketchup1.jpg,1.0,mailbox,ketchup,L,M,3.0,2.0,mailbox2,ketchup6,1.0,85.627,0.627,0.0,
89,,size_choice_confirmation,,html-keyboard-response,89,347176,0.0-1.0-115.0-0.0,0,0,26705,,,,,,28.0,,,,,,,,,,,,,,,,,,,,,,,,,,,,86.5,0.873,,
90,,iti,,html-keyboard-response,90,348191,0.0-1.0-116.0,0,0,26705,,,,,,,,,,,,,,,,,,,,,,,,,,,,,,,,,,87.5,1.0,,
91,,size_choice,,html-keyboard-response,91,348884,0.0-1.0-118.0,0,0,26705,,689.0,,,68.0,29.0,29.0,1.0,3500.0,L-XL,1.0,XL,L,4.0,3.0,van,cooler,van7,cooler5,196.0,4.0,/static/Size_judgement/Stimuli/Size_stims/XL/van/van1.jpg,/static/Size_judgement/Stimuli/Size_stims/L/cooler/cooler10.jpg,1.0,van,cooler,XL,L,4.0,3.0,van7,cooler5,1.0,88.189,0.689,0.0,
92,,size_choice_confirmation,,html-keyboard-response,92,349702,0.0-1.0-119.0-0.0,0,0,26705,,,,,,29.0,,,,,,,,,,,,,,,,,,,,,,,,,,,,89.0,0.811,,
93,,iti,,html-keyboard-response,93,353206,0.0-1.0-120.0,0,0,26705,,,,,,,,,,,,,,,,,,,,,,,,,,,,,,,,,,92.5,3.5,,
94,,size_choice,,html-keyboard-response,94,354170,0.0-1.0-122.0,0,0,26705,,960.0,,,68.0,30.0,30.0,1.0,1000.0,S-S,,S,S,1.0,1.0,paperclip,teabag,paperclip9,teabag2,118.0,131.0,/static/Size_judgement/Stimuli/Size_stims/S/paperclip/paperclip4.jpg,/static/Size_judgement/Stimuli/Size_stims/S/teabag/teabag8.jpg,1.0,paperclip,teabag,S,S,1.0,1.0,paperclip9,teabag2,,93.46,0.96,0.0,
95,,size_choice_confirmation,,html-keyboard-response,95,354716,0.0-1.0-123.0-0.0,0,0,26705,,,,,,30.0,,,,,,,,,,,,,,,,,,,,,,,,,,,,94.0,0.54,,
96,,iti,,html-keyboard-response,96,355726,0.0-1.0-124.0,0,0,26705,,,,,,,,,,,,,,,,,,,,,,,,,,,,,,,,,,95.0,1.0,,
97,,size_choice,,html-keyboard-response,97,356659,0.0-1.0-126.0,0,0,26705,,929.0,,,68.0,31.0,31.0,1.0,1500.0,S-S,,S,S,1.0,1.0,thread,screws,thread4,screws8,143.0,127.0,/static/Size_judgement/Stimuli/Size_stims/S/thread/thread5.jpg,/static/Size_judgement/Stimuli/Size_stims/S/screws/screws10.jpg,1.0,thread,screws,S,S,1.0,1.0,thread4,screws8,,95.929,0.929,0.0,
98,,size_choice_confirmation,,html-keyboard-response,98,357233,0.0-1.0-127.0-0.0,0,0,26705,,,,,,31.0,,,,,,,,,,,,,,,,,,,,,,,,,,,,96.5,0.571,,
99,,iti,,html-keyboard-response,99,358748,0.0-1.0-128.0,0,0,26705,,,,,,,,,,,,,,,,,,,,,,,,,,,,,,,,,,98.0,1.5,,
100,,size_choice,,html-keyboard-response,100,359448,0.0-1.0-130.0,0,0,26705,,694.0,,,75.0,32.0,32.0,1.0,2000.0,S-XL,0.0,S,XL,1.0,4.0,die,crane,die7,crane8,106.0,167.0,/static/Size_judgement/Stimuli/Size_stims/S/die/die4.jpg,/static/Size_judgement/Stimuli/Size_stims/XL/crane/crane10.jpg,0.0,crane,die,XL,S,4.0,1.0,crane8,die7,1.0,98.694,0.694,0.0,
101,,size_choice_confirmation,,html-keyboard-response,101,360266,0.0-1.0-131.0-0.0,0,0,26705,,,,,,32.0,,,,,,,,,,,,,,,,,,,,,,,,,,,,99.5,0.806,,
102,,iti,,html-keyboard-response,102,362276,0.0-1.0-132.0,0,0,26705,,,,,,,,,,,,,,,,,,,,,,,,,,,,,,,,,,101.5,2.0,,
103,,size_choice,,html-keyboard-response,103,363103,0.0-1.0-134.0,0,0,26705,,823.0,,,68.0,33.0,33.0,1.0,1000.0,M-M,,M,M,2.0,2.0,hairdryer,handsaw,hairdryer3,handsaw3,72.0,82.0,/static/Size_judgement/Stimuli/Size_stims/M/hairdryer/hairdryer17.jpg,/static/Size_judgement/Stimuli/Size_stims/M/handsaw/handsaw2.jpg,1.0,hairdryer,handsaw,M,M,2.0,2.0,hairdryer3,handsaw3,,102.323,0.823,0.0,
104,,size_choice_confirmation,,html-keyboard-response,104,363796,0.0-1.0-135.0-0.0,0,0,26705,,,,,,33.0,,,,,,,,,,,,,,,,,,,,,,,,,,,,103.0,0.677,,
105,,iti,,html-keyboard-response,105,364803,0.0-1.0-136.0,0,0,26705,,,,,,,,,,,,,,,,,,,,,,,,,,,,,,,,,,104.0,1.0,,
106,,size_choice,,html-keyboard-response,106,365511,0.0-1.0-138.0,0,0,26705,,704.0,,,75.0,34.0,34.0,1.0,1500.0,L-L,,L,L,3.0,3.0,garbagecan,cooler,garbagecan9,cooler1,38.0,0.0,/static/Size_judgement/Stimuli/Size_stims/L/garbagecan/garbagecan12.jpg,/static/Size_judgement/Stimuli/Size_stims/L/cooler/cooler8.jpg,0.0,cooler,garbagecan,L,L,3.0,3.0,cooler1,garbagecan9,,104.704,0.704,0.0,
107,,size_choice_confirmation,,html-keyboard-response,107,366318,0.0-1.0-139.0-0.0,0,0,26705,,,,,,34.0,,,,,,,,,,,,,,,,,,,,,,,,,,,,105.5,0.796,,
108,,iti,,html-keyboard-response,108,367834,0.0-1.0-140.0,0,0,26705,,,,,,,,,,,,,,,,,,,,,,,,,,,,,,,,,,107.0,1.5,,
109,,size_choice,,html-keyboard-response,109,368571,0.0-1.0-142.0,0,0,26705,,731.0,,,68.0,35.0,35.0,1.0,2000.0,S-L,1.0,L,S,3.0,1.0,cooler,teabag,cooler9,teabag1,8.0,130.0,/static/Size_judgement/Stimuli/Size_stims/L/cooler/cooler7.jpg,/static/Size_judgement/Stimuli/Size_stims/S/teabag/teabag9.jpg,1.0,cooler,teabag,L,S,3.0,1.0,cooler9,teabag1,1.0,107.731,0.731,0.0,
110,,size_choice_confirmation,,html-keyboard-response,110,369353,0.0-1.0-143.0-0.0,0,0,26705,,,,,,35.0,,,,,,,,,,,,,,,,,,,,,,,,,,,,108.5,0.769,,
111,,iti,,html-keyboard-response,111,371357,0.0-1.0-144.0,0,0,26705,,,,,,,,,,,,,,,,,,,,,,,,,,,,,,,,,,110.5,2.0,,
112,,size_choice,,html-keyboard-response,112,372194,0.0-1.0-146.0,0,0,26705,,832.0,,,68.0,36.0,36.0,1.0,3500.0,M-L,1.0,L,M,3.0,2.0,garbagecan,ketchup,garbagecan3,ketchup5,32.0,94.0,/static/Size_judgement/Stimuli/Size_stims/L/garbagecan/garbagecan7.jpg,/static/Size_judgement/Stimuli/Size_stims/M/ketchup/ketchup3.jpg,1.0,garbagecan,ketchup,L,M,3.0,2.0,garbagecan3,ketchup5,1.0,111.332,0.832,0.0,
113,,size_choice_confirmation,,html-keyboard-response,113,372866,0.0-1.0-147.0-0.0,0,0,26705,,,,,,36.0,,,,,,,,,,,,,,,,,,,,,,,,,,,,112.0,0.668,,
114,,iti,,html-keyboard-response,114,376372,0.0-1.0-148.0,0,0,26705,,,,,,,,,,,,,,,,,,,,,,,,,,,,,,,,,,115.5,3.5,,
115,,size_choice,,html-keyboard-response,115,377020,0.0-1.0-150.0,0,0,26705,,645.0,,,68.0,37.0,37.0,1.0,1500.0,M-L,1.0,L,M,3.0,2.0,mailbox,ketchup,mailbox6,ketchup4,45.0,93.0,/static/Size_judgement/Stimuli/Size_stims/L/mailbox/mailbox6.jpg,/static/Size_judgement/Stimuli/Size_stims/M/ketchup/ketchup2.jpg,1.0,mailbox,ketchup,L,M,3.0,2.0,mailbox6,ketchup4,1.0,116.145,0.645,0.0,
116,,size_choice_confirmation,,html-keyboard-response,116,377882,0.0-1.0-151.0-0.0,0,0,26705,,,,,,37.0,,,,,,,,,,,,,,,,,,,,,,,,,,,,117.0,0.855,,
117,,iti,,html-keyboard-response,117,379396,0.0-1.0-152.0,0,0,26705,,,,,,,,,,,,,,,,,,,,,,,,,,,,,,,,,,118.5,1.5,,
118,,size_choice,,html-keyboard-response,118,380260,0.0-1.0-154.0,0,0,26705,,860.0,,,68.0,38.0,38.0,1.0,1000.0,L-L,,L,L,3.0,3.0,mailbox,garbagecan,mailbox8,garbagecan4,47.0,33.0,/static/Size_judgement/Stimuli/Size_stims/L/mailbox/mailbox10.jpg,/static/Size_judgement/Stimuli/Size_stims/L/garbagecan/garbagecan6.jpg,1.0,mailbox,garbagecan,L,L,3.0,3.0,mailbox8,garbagecan4,,119.36,0.86,0.0,
119,,size_choice_confirmation,,html-keyboard-response,119,380906,0.0-1.0-155.0-0.0,0,0,26705,,,,,,38.0,,,,,,,,,,,,,,,,,,,,,,,,,,,,120.0,0.64,,
120,,iti,,html-keyboard-response,120,381912,0.0-1.0-156.0,0,0,26705,,,,,,,,,,,,,,,,,,,,,,,,,,,,,,,,,,121.0,1.0,,
121,,size_choice,,html-keyboard-response,121,382701,0.0-1.0-158.0,0,0,26705,,788.0,,,75.0,39.0,39.0,1.0,1000.0,M-M,,M,M,2.0,2.0,basketball,hairdryer,basketball6,hairdryer7,55.0,76.0,/static/Size_judgement/Stimuli/Size_stims/M/basketball/basketball2.jpg,/static/Size_judgement/Stimuli/Size_stims/M/hairdryer/hairdryer3.jpg,0.0,hairdryer,basketball,M,M,2.0,2.0,hairdryer7,basketball6,,121.788,0.788,0.0,
122,,size_choice_confirmation,,html-keyboard-response,122,383424,0.0-1.0-159.0-0.0,0,0,26705,,,,,,39.0,,,,,,,,,,,,,,,,,,,,,,,,,,,,122.5,0.712,,
123,,iti,,html-keyboard-response,123,384434,0.0-1.0-160.0,0,0,26705,,,,,,,,,,,,,,,,,,,,,,,,,,,,,,,,,,123.5,1.0,,
124,,size_choice,,html-keyboard-response,124,385142,0.0-1.0-162.0,0,0,26705,,702.0,,,68.0,40.0,40.0,1.0,3000.0,S-XL,1.0,XL,S,4.0,1.0,crane,thread,crane7,thread5,166.0,144.0,/static/Size_judgement/Stimuli/Size_stims/XL/crane/crane3.jpg,/static/Size_judgement/Stimuli/Size_stims/S/thread/thread1.jpg,1.0,crane,thread,XL,S,4.0,1.0,crane7,thread5,1.0,124.202,0.702,0.0,
125,,size_choice_confirmation,,html-keyboard-response,125,385951,0.0-1.0-163.0-0.0,0,0,26705,,,,,,40.0,,,,,,,,,,,,,,,,,,,,,,,,,,,,125.0,0.798,,
126,,iti,,html-keyboard-response,126,388966,0.0-1.0-164.0,0,0,26705,,,,,,,,,,,,,,,,,,,,,,,,,,,,,,,,,,128.0,3.0,,
127,,size_choice,,html-keyboard-response,127,389710,0.0-1.0-166.0,0,0,26705,,740.0,,,75.0,41.0,41.0,1.0,1000.0,S-XL,0.0,S,XL,1.0,4.0,teabag,tractor,teabag7,tractor7,136.0,186.0,/static/Size_judgement/Stimuli/Size_stims/S/teabag/teabag10.jpg,/static/Size_judgement/Stimuli/Size_stims/XL/tractor/tractor2.jpg,0.0,tractor,teabag,XL,S,4.0,1.0,tractor7,teabag7,1.0,128.74,0.74,0.0,
128,,size_choice_confirmation,,html-keyboard-response,128,390486,0.0-1.0-167.0-0.0,0,0,26705,,,,,,41.0,,,,,,,,,,,,,,,,,,,,,,,,,,,,129.5,0.76,,
129,,iti,,html-keyboard-response,129,391491,0.0-1.0-168.0,0,0,26705,,,,,,,,,,,,,,,,,,,,,,,,,,,,,,,,,,130.5,1.0,,
130,,size_choice,,html-keyboard-response,130,392387,0.0-1.0-170.0,0,0,26705,,894.0,,,75.0,42.0,42.0,1.0,1500.0,L-XL,0.0,L,XL,3.0,4.0,garbagecan,car,garbagecan10,car6,39.0,155.0,/static/Size_judgement/Stimuli/Size_stims/L/garbagecan/garbagecan11.jpg,/static/Size_judgement/Stimuli/Size_stims/XL/car/car12.jpg,0.0,car,garbagecan,XL,L,4.0,3.0,car6,garbagecan10,1.0,131.394,0.894,0.0,
131,,size_choice_confirmation,,html-keyboard-response,131,392996,0.0-1.0-171.0-0.0,0,0,26705,,,,,,42.0,,,,,,,,,,,,,,,,,,,,,,,,,,,,132.0,0.606,,
132,,iti,,html-keyboard-response,132,394506,0.0-1.0-172.0,0,0,26705,,,,,,,,,,,,,,,,,,,,,,,,,,,,,,,,,,133.5,1.5,,
133,,size_choice,,html-keyboard-response,133,395188,0.0-1.0-174.0,0,0,26705,,679.0,,,68.0,43.0,43.0,1.0,3500.0,M-XL,1.0,XL,M,4.0,2.0,car,coffeemaker,car4,coffeemaker9,153.0,68.0,/static/Size_judgement/Stimuli/Size_stims/XL/car/car6.jpg,/static/Size_judgement/Stimuli/Size_stims/M/coffeemaker/coffeemaker7.jpg,1.0,car,coffeemaker,XL,M,4.0,2.0,car4,coffeemaker9,1.0,134.179,0.679,0.0,
134,,size_choice_confirmation,,html-keyboard-response,134,396016,0.0-1.0-175.0-0.0,0,0,26705,,,,,,43.0,,,,,,,,,,,,,,,,,,,,,,,,,,,,135.0,0.821,,
135,,iti,,html-keyboard-response,135,399525,0.0-1.0-176.0,0,0,26705,,,,,,,,,,,,,,,,,,,,,,,,,,,,,,,,,,138.5,3.5,,
136,,size_choice,,html-keyboard-response,136,400250,0.0-1.0-178.0,0,0,26705,,722.0,,,75.0,44.0,44.0,1.0,2000.0,L-XL,0.0,L,XL,3.0,4.0,cooler,car,cooler4,car5,3.0,154.0,/static/Size_judgement/Stimuli/Size_stims/L/cooler/cooler3.jpg,/static/Size_judgement/Stimuli/Size_stims/XL/car/car11.jpg,0.0,car,cooler,XL,L,4.0,3.0,car5,cooler4,1.0,139.222,0.722,0.0,
137,,size_choice_confirmation,,html-keyboard-response,137,401036,0.0-1.0-179.0-0.0,0,0,26705,,,,,,44.0,,,,,,,,,,,,,,,,,,,,,,,,,,,,140.0,0.778,,
138,,iti,,html-keyboard-response,138,403046,0.0-1.0-180.0,0,0,26705,,,,,,,,,,,,,,,,,,,,,,,,,,,,,,,,,,142.0,2.0,,
139,,block_over,,html-keyboard-response,139,471257,0.0-1.0-181.0-0.0,0,0,26705,,68204.0,,,68.0,44.0,,,,,,,,,,,,,,,,,,,,,,,,,,,,,,,
140,,size_choice,,html-keyboard-response,140,472496,0.0-1.0-182.0,0,0,26705,,1233.0,,,75.0,45.0,45.0,2.0,3500.0,S-M,0.0,S,M,1.0,2.0,screws,handsaw,screws5,handsaw6,124.0,85.0,/static/Size_judgement/Stimuli/Size_stims/S/screws/screws2.jpg,/static/Size_judgement/Stimuli/Size_stims/M/handsaw/handsaw4.jpg,0.0,handsaw,screws,M,S,2.0,1.0,handsaw6,screws5,1.0,143.233,1.233,0.0,
141,,size_choice_confirmation,,html-keyboard-response,141,472774,0.0-1.0-183.0-0.0,0,0,26705,,,,,,45.0,,,,,,,,,,,,,,,,,,,,,,,,,,,,143.5,0.267,,
142,,iti,,html-keyboard-response,142,476294,0.0-1.0-184.0,0,0,26705,,,,,,,,,,,,,,,,,,,,,,,,,,,,,,,,,,147.0,3.5,,
143,,size_choice,,html-keyboard-response,143,477339,0.0-1.0-186.0,0,0,26705,,1034.0,,,68.0,46.0,46.0,2.0,1000.0,S-S,,S,S,1.0,1.0,screws,paperclip,screws9,paperclip6,128.0,115.0,/static/Size_judgement/Stimuli/Size_stims/S/screws/screws8.jpg,/static/Size_judgement/Stimuli/Size_stims/S/paperclip/paperclip6.jpg,1.0,screws,paperclip,S,S,1.0,1.0,screws9,paperclip6,,148.034,1.034,0.0,
144,,size_choice_confirmation,,html-keyboard-response,144,477816,0.0-1.0-187.0-0.0,0,0,26705,,,,,,46.0,,,,,,,,,,,,,,,,,,,,,,,,,,,,148.5,0.466,,
145,,iti,,html-keyboard-response,145,478827,0.0-1.0-188.0,0,0,26705,,,,,,,,,,,,,,,,,,,,,,,,,,,,,,,,,,149.5,1.0,,
146,,size_choice,,html-keyboard-response,146,479565,0.0-1.0-190.0,0,0,26705,,735.0,,,68.0,47.0,47.0,2.0,2000.0,M-XL,1.0,XL,M,4.0,2.0,crane,basketball,crane5,basketball5,164.0,54.0,/static/Size_judgement/Stimuli/Size_stims/XL/crane/crane1.jpg,/static/Size_judgement/Stimuli/Size_stims/M/basketball/basketball3.jpg,1.0,crane,basketball,XL,M,4.0,2.0,crane5,basketball5,1.0,150.235,0.735,0.0,
147,,size_choice_confirmation,,html-keyboard-response,147,480341,0.0-1.0-191.0-0.0,0,0,26705,,,,,,47.0,,,,,,,,,,,,,,,,,,,,,,,,,,,,151.0,0.765,,
148,,iti,,html-keyboard-response,148,482346,0.0-1.0-192.0,0,0,26705,,,,,,,,,,,,,,,,,,,,,,,,,,,,,,,,,,153.0,2.0,,
149,,size_choice,,html-keyboard-response,149,483087,0.0-1.0-194.0,0,0,26705,,737.0,,,75.0,48.0,48.0,2.0,1000.0,M-L,0.0,M,L,2.0,3.0,hairdryer,mailbox,hairdryer6,mailbox10,75.0,49.0,/static/Size_judgement/Stimuli/Size_stims/M/hairdryer/hairdryer8.jpg,/static/Size_judgement/Stimuli/Size_stims/L/mailbox/mailbox8.jpg,0.0,mailbox,hairdryer,L,M,3.0,2.0,mailbox10,hairdryer6,1.0,153.737,0.737,0.0,
150,,size_choice_confirmation,,html-keyboard-response,150,483864,0.0-1.0-195.0-0.0,0,0,26705,,,,,,48.0,,,,,,,,,,,,,,,,,,,,,,,,,,,,154.5,0.763,,
151,,iti,,html-keyboard-response,151,484876,0.0-1.0-196.0,0,0,26705,,,,,,,,,,,,,,,,,,,,,,,,,,,,,,,,,,155.5,1.0,,
152,,size_choice,,html-keyboard-response,152,485482,0.0-1.0-198.0,0,0,26705,,603.0,,,68.0,49.0,49.0,2.0,2000.0,M-XL,1.0,XL,M,4.0,2.0,tractor,coffeemaker,tractor5,coffeemaker1,184.0,60.0,/static/Size_judgement/Stimuli/Size_stims/XL/tractor/tractor1.jpg,/static/Size_judgement/Stimuli/Size_stims/M/coffeemaker/coffeemaker14.jpg,1.0,tractor,coffeemaker,XL,M,4.0,2.0,tractor5,coffeemaker1,1.0,156.103,0.603,0.0,
153,,size_choice_confirmation,,html-keyboard-response,153,486396,0.0-1.0-199.0-0.0,0,0,26705,,,,,,49.0,,,,,,,,,,,,,,,,,,,,,,,,,,,,157.0,0.897,,
154,,iti,,html-keyboard-response,154,488400,0.0-1.0-200.0,0,0,26705,,,,,,,,,,,,,,,,,,,,,,,,,,,,,,,,,,159.0,2.0,,
155,,size_choice,,html-keyboard-response,155,489014,0.0-1.0-202.0,0,0,26705,,610.0,,,68.0,50.0,50.0,2.0,1000.0,S-XL,1.0,XL,S,4.0,1.0,car,teabag,car9,teabag10,158.0,139.0,/static/Size_judgement/Stimuli/Size_stims/XL/car/car15.jpg,/static/Size_judgement/Stimuli/Size_stims/S/teabag/teabag4.jpg,1.0,car,teabag,XL,S,4.0,1.0,car9,teabag10,1.0,159.61,0.61,0.0,
156,,size_choice_confirmation,,html-keyboard-response,156,489926,0.0-1.0-203.0-0.0,0,0,26705,,,,,,50.0,,,,,,,,,,,,,,,,,,,,,,,,,,,,160.5,0.89,,
157,,iti,,html-keyboard-response,157,490945,0.0-1.0-204.0,0,0,26705,,,,,,,,,,,,,,,,,,,,,,,,,,,,,,,,,,161.5,1.0,,
158,,size_choice,,html-keyboard-response,158,491782,0.0-1.0-206.0,0,0,26705,,831.0,,,68.0,51.0,51.0,2.0,1500.0,XL-XL,,XL,XL,4.0,4.0,crane,car,crane10,car8,169.0,157.0,/static/Size_judgement/Stimuli/Size_stims/XL/crane/crane9.jpg,/static/Size_judgement/Stimuli/Size_stims/XL/car/car14.jpg,1.0,crane,car,XL,XL,4.0,4.0,crane10,car8,,162.331,0.831,0.0,
159,,size_choice_confirmation,,html-keyboard-response,159,492456,0.0-1.0-207.0-0.0,0,0,26705,,,,,,51.0,,,,,,,,,,,,,,,,,,,,,,,,,,,,163.0,0.669,,
160,,iti,,html-keyboard-response,160,493966,0.0-1.0-208.0,0,0,26705,,,,,,,,,,,,,,,,,,,,,,,,,,,,,,,,,,164.5,1.5,,
161,,size_choice,,html-keyboard-response,161,494819,0.0-1.0-210.0,0,0,26705,,851.0,,,75.0,52.0,52.0,2.0,1000.0,M-L,0.0,M,L,2.0,3.0,coffeemaker,dishwasher,coffeemaker2,dishwasher3,61.0,22.0,/static/Size_judgement/Stimuli/Size_stims/M/coffeemaker/coffeemaker12.jpg,/static/Size_judgement/Stimuli/Size_stims/L/dishwasher/dishwasher8.jpg,0.0,dishwasher,coffeemaker,L,M,3.0,2.0,dishwasher3,coffeemaker2,1.0,165.351,0.851,0.0,
162,,size_choice_confirmation,,html-keyboard-response,162,495480,0.0-1.0-211.0-0.0,0,0,26705,,,,,,52.0,,,,,,,,,,,,,,,,,,,,,,,,,,,,166.0,0.649,,
163,,iti,,html-keyboard-response,163,496487,0.0-1.0-212.0,0,0,26705,,,,,,,,,,,,,,,,,,,,,,,,,,,,,,,,,,167.0,1.0,,
164,,size_choice,,html-keyboard-response,164,497125,0.0-1.0-214.0,0,0,26705,,636.0,,,68.0,53.0,53.0,2.0,3000.0,S-L,1.0,L,S,3.0,1.0,deskchair,paperclip,deskchair4,paperclip7,13.0,116.0,/static/Size_judgement/Stimuli/Size_stims/L/deskchair/deskchair6.jpg,/static/Size_judgement/Stimuli/Size_stims/S/paperclip/paperclip7.jpg,1.0,deskchair,paperclip,L,S,3.0,1.0,deskchair4,paperclip7,1.0,167.636,0.636,0.0,
165,,size_choice_confirmation,,html-keyboard-response,165,497994,0.0-1.0-215.0-0.0,0,0,26705,,,,,,53.0,,,,,,,,,,,,,,,,,,,,,,,,,,,,168.5,0.864,,
166,,iti,,html-keyboard-response,166,501002,0.0-1.0-216.0,0,0,26705,,,,,,,,,,,,,,,,,,,,,,,,,,,,,,,,,,171.5,3.0,,
167,,size_choice,,html-keyboard-response,167,501660,0.0-1.0-218.0,0,0,26705,,654.0,,,68.0,54.0,54.0,2.0,2000.0,S-S,,S,S,1.0,1.0,screws,paperclip,screws1,paperclip10,120.0,119.0,/static/Size_judgement/Stimuli/Size_stims/S/screws/screws4.jpg,/static/Size_judgement/Stimuli/Size_stims/S/paperclip/paperclip10.jpg,1.0,screws,paperclip,S,S,1.0,1.0,screws1,paperclip10,,172.154,0.654,0.0,
168,,size_choice_confirmation,,html-keyboard-response,168,502516,0.0-1.0-219.0-0.0,0,0,26705,,,,,,54.0,,,,,,,,,,,,,,,,,,,,,,,,,,,,173.0,0.846,,
169,,iti,,html-keyboard-response,169,504519,0.0-1.0-220.0,0,0,26705,,,,,,,,,,,,,,,,,,,,,,,,,,,,,,,,,,175.0,2.0,,
170,,size_choice,,html-keyboard-response,170,505203,0.0-1.0-222.0,0,0,26705,,681.0,,,68.0,55.0,55.0,2.0,1500.0,M-L,1.0,L,M,3.0,2.0,dishwasher,ketchup,dishwasher5,ketchup2,24.0,91.0,/static/Size_judgement/Stimuli/Size_stims/L/dishwasher/dishwasher4.jpg,/static/Size_judgement/Stimuli/Size_stims/M/ketchup/ketchup9.jpg,1.0,dishwasher,ketchup,L,M,3.0,2.0,dishwasher5,ketchup2,1.0,175.681,0.681,0.0,
171,,size_choice_confirmation,,html-keyboard-response,171,506035,0.0-1.0-223.0-0.0,0,0,26705,,,,,,55.0,,,,,,,,,,,,,,,,,,,,,,,,,,,,176.5,0.819,,
172,,iti,,html-keyboard-response,172,507543,0.0-1.0-224.0,0,0,26705,,,,,,,,,,,,,,,,,,,,,,,,,,,,,,,,,,178.0,1.5,,
173,,size_choice,,html-keyboard-response,173,508286,0.0-1.0-226.0,0,0,26705,,738.0,,,75.0,56.0,56.0,2.0,1000.0,M-L,0.0,M,L,2.0,3.0,hairdryer,deskchair,hairdryer5,deskchair3,74.0,12.0,/static/Size_judgement/Stimuli/Size_stims/M/hairdryer/hairdryer15.jpg,/static/Size_judgement/Stimuli/Size_stims/L/deskchair/deskchair10.jpg,0.0,deskchair,hairdryer,L,M,3.0,2.0,deskchair3,hairdryer5,1.0,178.738,0.738,0.0,
174,,size_choice_confirmation,,html-keyboard-response,174,509061,0.0-1.0-227.0-0.0,0,0,26705,,,,,,56.0,,,,,,,,,,,,,,,,,,,,,,,,,,,,179.5,0.762,,
175,,iti,,html-keyboard-response,175,510067,0.0-1.0-228.0,0,0,26705,,,,,,,,,,,,,,,,,,,,,,,,,,,,,,,,,,180.5,1.0,,
176,,size_choice,,html-keyboard-response,176,510689,0.0-1.0-230.0,0,0,26705,,619.0,,,75.0,57.0,57.0,2.0,1000.0,S-XL,0.0,S,XL,1.0,4.0,thread,dumptruck,thread7,dumptruck1,146.0,170.0,/static/Size_judgement/Stimuli/Size_stims/S/thread/thread3.jpg,/static/Size_judgement/Stimuli/Size_stims/XL/dumptruck/dumptruck9.jpg,0.0,dumptruck,thread,XL,S,4.0,1.0,dumptruck1,thread7,1.0,181.119,0.619,0.0,
177,,size_choice_confirmation,,html-keyboard-response,177,511578,0.0-1.0-231.0-0.0,0,0,26705,,,,,,57.0,,,,,,,,,,,,,,,,,,,,,,,,,,,,182.0,0.881,,
178,,iti,,html-keyboard-response,178,512591,0.0-1.0-232.0,0,0,26705,,,,,,,,,,,,,,,,,,,,,,,,,,,,,,,,,,183.0,1.0,,
179,,size_choice,,html-keyboard-response,179,513260,0.0-1.0-234.0,0,0,26705,,665.0,,,75.0,58.0,58.0,2.0,1000.0,S-L,0.0,S,L,1.0,3.0,teabag,dishwasher,teabag9,dishwasher6,138.0,25.0,/static/Size_judgement/Stimuli/Size_stims/S/teabag/teabag5.jpg,/static/Size_judgement/Stimuli/Size_stims/L/dishwasher/dishwasher6.jpg,0.0,dishwasher,teabag,L,S,3.0,1.0,dishwasher6,teabag9,1.0,183.665,0.665,0.0,
180,,size_choice_confirmation,,html-keyboard-response,180,514101,0.0-1.0-235.0-0.0,0,0,26705,,,,,,58.0,,,,,,,,,,,,,,,,,,,,,,,,,,,,184.5,0.835,,
181,,iti,,html-keyboard-response,181,515116,0.0-1.0-236.0,0,0,26705,,,,,,,,,,,,,,,,,,,,,,,,,,,,,,,,,,185.5,1.0,,
182,,size_choice,,html-keyboard-response,182,515881,0.0-1.0-238.0,0,0,26705,,761.0,,,75.0,59.0,59.0,2.0,1000.0,M-M,,M,M,2.0,2.0,basketball,ketchup,basketball2,ketchup10,51.0,99.0,/static/Size_judgement/Stimuli/Size_stims/M/basketball/basketball8.jpg,/static/Size_judgement/Stimuli/Size_stims/M/ketchup/ketchup6.jpg,0.0,ketchup,basketball,M,M,2.0,2.0,ketchup10,basketball2,,186.261,0.761,0.0,
183,,size_choice_confirmation,,html-keyboard-response,183,516626,0.0-1.0-239.0-0.0,0,0,26705,,,,,,59.0,,,,,,,,,,,,,,,,,,,,,,,,,,,,187.0,0.739,,
184,,iti,,html-keyboard-response,184,517633,0.0-1.0-240.0,0,0,26705,,,,,,,,,,,,,,,,,,,,,,,,,,,,,,,,,,188.0,1.0,,
185,,size_choice,,html-keyboard-response,185,518214,0.0-1.0-242.0,0,0,26705,,578.0,,,75.0,60.0,60.0,2.0,1500.0,M-XL,0.0,M,XL,2.0,4.0,ketchup,dumptruck,ketchup1,dumptruck3,90.0,172.0,/static/Size_judgement/Stimuli/Size_stims/M/ketchup/ketchup8.jpg,/static/Size_judgement/Stimuli/Size_stims/XL/dumptruck/dumptruck10.jpg,0.0,dumptruck,ketchup,XL,M,4.0,2.0,dumptruck3,ketchup1,1.0,188.578,0.578,0.0,
186,,size_choice_confirmation,,html-keyboard-response,186,519152,0.0-1.0-243.0-0.0,0,0,26705,,,,,,60.0,,,,,,,,,,,,,,,,,,,,,,,,,,,,189.5,0.922,,
187,,iti,,html-keyboard-response,187,520666,0.0-1.0-244.0,0,0,26705,,,,,,,,,,,,,,,,,,,,,,,,,,,,,,,,,,191.0,1.5,,
188,,size_choice,,html-keyboard-response,188,521269,0.0-1.0-246.0,0,0,26705,,599.0,,,75.0,61.0,61.0,2.0,1500.0,M-XL,0.0,M,XL,2.0,4.0,basketball,tractor,basketball1,tractor1,50.0,180.0,/static/Size_judgement/Stimuli/Size_stims/M/basketball/basketball9.jpg,/static/Size_judgement/Stimuli/Size_stims/XL/tractor/tractor6.jpg,0.0,tractor,basketball,XL,M,4.0,2.0,tractor1,basketball1,1.0,191.599,0.599,0.0,
189,,size_choice_confirmation,,html-keyboard-response,189,522175,0.0-1.0-247.0-0.0,0,0,26705,,,,,,61.0,,,,,,,,,,,,,,,,,,,,,,,,,,,,192.5,0.901,,
190,,iti,,html-keyboard-response,190,523681,0.0-1.0-248.0,0,0,26705,,,,,,,,,,,,,,,,,,,,,,,,,,,,,,,,,,194.0,1.5,,
191,,size_choice,,html-keyboard-response,191,524498,0.0-1.0-250.0,0,0,26705,,810.0,,,75.0,62.0,62.0,2.0,3000.0,L-XL,0.0,L,XL,3.0,4.0,cooler,van,cooler2,van9,1.0,198.0,/static/Size_judgement/Stimuli/Size_stims/L/cooler/cooler9.jpg,/static/Size_judgement/Stimuli/Size_stims/XL/van/van9.jpg,0.0,van,cooler,XL,L,4.0,3.0,van9,cooler2,1.0,194.81,0.81,0.0,
192,,size_choice_confirmation,,html-keyboard-response,192,525195,0.0-1.0-251.0-0.0,0,0,26705,,,,,,62.0,,,,,,,,,,,,,,,,,,,,,,,,,,,,195.5,0.69,,
193,,iti,,html-keyboard-response,193,528206,0.0-1.0-252.0,0,0,26705,,,,,,,,,,,,,,,,,,,,,,,,,,,,,,,,,,198.5,3.0,,
194,,size_choice,,html-keyboard-response,194,528852,0.0-1.0-254.0,0,0,26705,,642.0,,,75.0,63.0,63.0,2.0,3500.0,S-L,0.0,S,L,1.0,3.0,thread,dishwasher,thread2,dishwasher7,141.0,26.0,/static/Size_judgement/Stimuli/Size_stims/S/thread/thread6.jpg,/static/Size_judgement/Stimuli/Size_stims/L/dishwasher/dishwasher7.jpg,0.0,dishwasher,thread,L,S,3.0,1.0,dishwasher7,thread2,1.0,199.142,0.642,0.0,
195,,size_choice_confirmation,,html-keyboard-response,195,529726,0.0-1.0-255.0-0.0,0,0,26705,,,,,,63.0,,,,,,,,,,,,,,,,,,,,,,,,,,,,200.0,0.858,,
196,,iti,,html-keyboard-response,196,533230,0.0-1.0-256.0,0,0,26705,,,,,,,,,,,,,,,,,,,,,,,,,,,,,,,,,,203.5,3.5,,
197,,size_choice,,html-keyboard-response,197,533869,0.0-1.0-258.0,0,0,26705,,635.0,,,75.0,64.0,64.0,2.0,1500.0,M-L,0.0,M,L,2.0,3.0,handsaw,cooler,handsaw8,cooler7,87.0,6.0,/static/Size_judgement/Stimuli/Size_stims/M/handsaw/handsaw7.jpg,/static/Size_judgement/Stimuli/Size_stims/L/cooler/cooler4.jpg,0.0,cooler,handsaw,L,M,3.0,2.0,cooler7,handsaw8,1.0,204.135,0.635,0.0,
198,,size_choice_confirmation,,html-keyboard-response,198,534749,0.0-1.0-259.0-0.0,0,0,26705,,,,,,64.0,,,,,,,,,,,,,,,,,,,,,,,,,,,,205.0,0.865,,
199,,iti,,html-keyboard-response,199,536254,0.0-1.0-260.0,0,0,26705,,,,,,,,,,,,,,,,,,,,,,,,,,,,,,,,,,206.5,1.5,,
200,,size_choice,,html-keyboard-response,200,536906,0.0-1.0-262.0,0,0,26705,,648.0,,,75.0,65.0,65.0,2.0,2000.0,M-L,0.0,M,L,2.0,3.0,handsaw,mailbox,handsaw5,mailbox1,84.0,40.0,/static/Size_judgement/Stimuli/Size_stims/M/handsaw/handsaw1.jpg,/static/Size_judgement/Stimuli/Size_stims/L/mailbox/mailbox3.jpg,0.0,mailbox,handsaw,L,M,3.0,2.0,mailbox1,handsaw5,1.0,207.148,0.648,0.0,
201,,size_choice_confirmation,,html-keyboard-response,201,537772,0.0-1.0-263.0-0.0,0,0,26705,,,,,,65.0,,,,,,,,,,,,,,,,,,,,,,,,,,,,208.0,0.852,,
202,,iti,,html-keyboard-response,202,539777,0.0-1.0-264.0,0,0,26705,,,,,,,,,,,,,,,,,,,,,,,,,,,,,,,,,,210.0,2.0,,
203,,size_choice,,html-keyboard-response,203,540382,0.0-1.0-266.0,0,0,26705,,601.0,,,68.0,66.0,66.0,2.0,1000.0,M-XL,1.0,XL,M,4.0,2.0,car,ketchup,car10,ketchup8,159.0,97.0,/static/Size_judgement/Stimuli/Size_stims/XL/car/car9.jpg,/static/Size_judgement/Stimuli/Size_stims/M/ketchup/ketchup5.jpg,1.0,car,ketchup,XL,M,4.0,2.0,car10,ketchup8,1.0,210.601,0.601,0.0,
204,,size_choice_confirmation,,html-keyboard-response,204,541286,0.0-1.0-267.0-0.0,0,0,26705,,,,,,66.0,,,,,,,,,,,,,,,,,,,,,,,,,,,,211.5,0.899,,
205,,iti,,html-keyboard-response,205,542296,0.0-1.0-268.0,0,0,26705,,,,,,,,,,,,,,,,,,,,,,,,,,,,,,,,,,212.5,1.0,,
206,,size_choice,,html-keyboard-response,206,543287,0.0-1.0-270.0,0,0,26705,,986.0,,,68.0,67.0,67.0,2.0,1000.0,S-L,1.0,L,S,3.0,1.0,deskchair,thread,deskchair6,thread3,15.0,142.0,/static/Size_judgement/Stimuli/Size_stims/L/deskchair/deskchair5.jpg,/static/Size_judgement/Stimuli/Size_stims/S/thread/thread4.jpg,1.0,deskchair,thread,L,S,3.0,1.0,deskchair6,thread3,1.0,213.486,0.986,0.0,
207,,size_choice_confirmation,,html-keyboard-response,207,543812,0.0-1.0-271.0-0.0,0,0,26705,,,,,,67.0,,,,,,,,,,,,,,,,,,,,,,,,,,,,214.0,0.514,,
208,,iti,,html-keyboard-response,208,544821,0.0-1.0-272.0,0,0,26705,,,,,,,,,,,,,,,,,,,,,,,,,,,,,,,,,,215.0,1.0,,
209,,size_choice,,html-keyboard-response,209,545360,0.0-1.0-274.0,0,0,26705,,536.0,,,75.0,68.0,68.0,2.0,2000.0,S-XL,0.0,S,XL,1.0,4.0,screws,dumptruck,screws3,dumptruck4,122.0,173.0,/static/Size_judgement/Stimuli/Size_stims/S/screws/screws7.jpg,/static/Size_judgement/Stimuli/Size_stims/XL/dumptruck/dumptruck1.jpg,0.0,dumptruck,screws,XL,S,4.0,1.0,dumptruck4,screws3,1.0,215.536,0.536,0.0,
210,,size_choice_confirmation,,html-keyboard-response,210,546331,0.0-1.0-275.0-0.0,0,0,26705,,,,,,68.0,,,,,,,,,,,,,,,,,,,,,,,,,,,,216.5,0.964,,
211,,iti,,html-keyboard-response,211,548336,0.0-1.0-276.0,0,0,26705,,,,,,,,,,,,,,,,,,,,,,,,,,,,,,,,,,218.5,2.0,,
212,,size_choice,,html-keyboard-response,212,548931,0.0-1.0-278.0,0,0,26705,,593.0,,,75.0,69.0,69.0,2.0,3000.0,S-XL,0.0,S,XL,1.0,4.0,paperclip,dumptruck,paperclip8,dumptruck7,117.0,176.0,/static/Size_judgement/Stimuli/Size_stims/S/paperclip/paperclip5.jpg,/static/Size_judgement/Stimuli/Size_stims/XL/dumptruck/dumptruck6.jpg,0.0,dumptruck,paperclip,XL,S,4.0,1.0,dumptruck7,paperclip8,1.0,219.093,0.593,0.0,
213,,size_choice_confirmation,,html-keyboard-response,213,549855,0.0-1.0-279.0-0.0,0,0,26705,,,,,,69.0,,,,,,,,,,,,,,,,,,,,,,,,,,,,220.0,0.907,,
214,,iti,,html-keyboard-response,214,552859,0.0-1.0-280.0,0,0,26705,,,,,,,,,,,,,,,,,,,,,,,,,,,,,,,,,,223.0,3.0,,
215,,size_choice,,html-keyboard-response,215,553532,0.0-1.0-282.0,0,0,26705,,670.0,,,75.0,70.0,70.0,2.0,1500.0,S-L,0.0,S,L,1.0,3.0,die,deskchair,die1,deskchair8,100.0,17.0,/static/Size_judgement/Stimuli/Size_stims/S/die/die8.jpg,/static/Size_judgement/Stimuli/Size_stims/L/deskchair/deskchair1.jpg,0.0,deskchair,die,L,S,3.0,1.0,deskchair8,die1,1.0,223.67,0.67,0.0,
216,,size_choice_confirmation,,html-keyboard-response,216,554487,0.0-1.0-283.0-0.0,0,0,26705,,,,,,70.0,,,,,,,,,,,,,,,,,,,,,,,,,,,,224.5,0.83,,
217,,iti,,html-keyboard-response,217,556003,0.0-1.0-284.0,0,0,26705,,,,,,,,,,,,,,,,,,,,,,,,,,,,,,,,,,226.0,1.5,,
218,,size_choice,,html-keyboard-response,218,556727,0.0-1.0-286.0,0,0,26705,,721.0,,,75.0,71.0,71.0,2.0,1500.0,XL-XL,,XL,XL,4.0,4.0,tractor,van,tractor3,van8,182.0,197.0,/static/Size_judgement/Stimuli/Size_stims/XL/tractor/tractor5.jpg,/static/Size_judgement/Stimuli/Size_stims/XL/van/van10.jpg,0.0,van,tractor,XL,XL,4.0,4.0,van8,tractor3,,226.721,0.721,0.0,
219,,size_choice_confirmation,,html-keyboard-response,219,557516,0.0-1.0-287.0-0.0,0,0,26705,,,,,,71.0,,,,,,,,,,,,,,,,,,,,,,,,,,,,227.5,0.779,,
220,,iti,,html-keyboard-response,220,559021,0.0-1.0-288.0,0,0,26705,,,,,,,,,,,,,,,,,,,,,,,,,,,,,,,,,,229.0,1.5,,
221,,size_choice,,html-keyboard-response,221,559669,0.0-1.0-290.0,0,0,26705,,644.0,,,75.0,72.0,72.0,2.0,1500.0,S-XL,0.0,S,XL,1.0,4.0,paperclip,dumptruck,paperclip4,dumptruck5,113.0,174.0,/static/Size_judgement/Stimuli/Size_stims/S/paperclip/paperclip3.jpg,/static/Size_judgement/Stimuli/Size_stims/XL/dumptruck/dumptruck3.jpg,0.0,dumptruck,paperclip,XL,S,4.0,1.0,dumptruck5,paperclip4,1.0,229.644,0.644,0.0,
222,,size_choice_confirmation,,html-keyboard-response,222,560534,0.0-1.0-291.0-0.0,0,0,26705,,,,,,72.0,,,,,,,,,,,,,,,,,,,,,,,,,,,,230.5,0.856,,
223,,iti,,html-keyboard-response,223,562040,0.0-1.0-292.0,0,0,26705,,,,,,,,,,,,,,,,,,,,,,,,,,,,,,,,,,232.0,1.5,,
224,,size_choice,,html-keyboard-response,224,562806,0.0-1.0-294.0,0,0,26705,,759.0,,,75.0,73.0,73.0,2.0,3000.0,M-L,0.0,M,L,2.0,3.0,coffeemaker,dishwasher,coffeemaker6,dishwasher4,65.0,23.0,/static/Size_judgement/Stimuli/Size_stims/M/coffeemaker/coffeemaker8.jpg,/static/Size_judgement/Stimuli/Size_stims/L/dishwasher/dishwasher5.jpg,0.0,dishwasher,coffeemaker,L,M,3.0,2.0,dishwasher4,coffeemaker6,1.0,232.759,0.759,0.0,
225,,size_choice_confirmation,,html-keyboard-response,225,563566,0.0-1.0-295.0-0.0,0,0,26705,,,,,,73.0,,,,,,,,,,,,,,,,,,,,,,,,,,,,233.5,0.741,,
226,,iti,,html-keyboard-response,226,566575,0.0-1.0-296.0,0,0,26705,,,,,,,,,,,,,,,,,,,,,,,,,,,,,,,,,,236.5,3.0,,
227,,size_choice,,html-keyboard-response,227,567144,0.0-1.0-298.0,0,0,26705,,566.0,,,68.0,74.0,74.0,2.0,1500.0,S-XL,1.0,XL,S,4.0,1.0,car,die,car1,die9,150.0,108.0,/static/Size_judgement/Stimuli/Size_stims/XL/car/car2.jpg,/static/Size_judgement/Stimuli/Size_stims/S/die/die7.jpg,1.0,car,die,XL,S,4.0,1.0,car1,die9,1.0,237.066,0.566,0.0,
228,,size_choice_confirmation,,html-keyboard-response,228,568099,0.0-1.0-299.0-0.0,0,0,26705,,,,,,74.0,,,,,,,,,,,,,,,,,,,,,,,,,,,,238.0,0.934,,
229,,iti,,html-keyboard-response,229,569616,0.0-1.0-300.0,0,0,26705,,,,,,,,,,,,,,,,,,,,,,,,,,,,,,,,,,239.5,1.5,,
230,,size_choice,,html-keyboard-response,230,570284,0.0-1.0-302.0,0,0,26705,,665.0,,,68.0,75.0,75.0,2.0,1500.0,M-XL,1.0,XL,M,4.0,2.0,crane,handsaw,crane1,handsaw10,160.0,89.0,/static/Size_judgement/Stimuli/Size_stims/XL/crane/crane7.jpg,/static/Size_judgement/Stimuli/Size_stims/M/handsaw/handsaw10.jpg,1.0,crane,handsaw,XL,M,4.0,2.0,crane1,handsaw10,1.0,240.165,0.665,0.0,
231,,size_choice_confirmation,,html-keyboard-response,231,571125,0.0-1.0-303.0-0.0,0,0,26705,,,,,,75.0,,,,,,,,,,,,,,,,,,,,,,,,,,,,241.0,0.835,,
232,,iti,,html-keyboard-response,232,572637,0.0-1.0-304.0,0,0,26705,,,,,,,,,,,,,,,,,,,,,,,,,,,,,,,,,,242.5,1.5,,
233,,size_choice,,html-keyboard-response,233,573243,0.0-1.0-306.0,0,0,26705,,602.0,,,68.0,76.0,76.0,2.0,1500.0,S-XL,1.0,XL,S,4.0,1.0,tractor,screws,tractor2,screws6,181.0,125.0,/static/Size_judgement/Stimuli/Size_stims/XL/tractor/tractor7.jpg,/static/Size_judgement/Stimuli/Size_stims/S/screws/screws3.jpg,1.0,tractor,screws,XL,S,4.0,1.0,tractor2,screws6,1.0,243.102,0.602,0.0,
234,,size_choice_confirmation,,html-keyboard-response,234,574146,0.0-1.0-307.0-0.0,0,0,26705,,,,,,76.0,,,,,,,,,,,,,,,,,,,,,,,,,,,,244.0,0.898,,
235,,iti,,html-keyboard-response,235,575660,0.0-1.0-308.0,0,0,26705,,,,,,,,,,,,,,,,,,,,,,,,,,,,,,,,,,245.5,1.5,,
236,,size_choice,,html-keyboard-response,236,576449,0.0-1.0-310.0,0,0,26705,,786.0,,,75.0,77.0,77.0,2.0,2000.0,M-L,0.0,M,L,2.0,3.0,coffeemaker,deskchair,coffeemaker4,deskchair5,63.0,14.0,/static/Size_judgement/Stimuli/Size_stims/M/coffeemaker/coffeemaker11.jpg,/static/Size_judgement/Stimuli/Size_stims/L/deskchair/deskchair7.jpg,0.0,deskchair,coffeemaker,L,M,3.0,2.0,deskchair5,coffeemaker4,1.0,246.286,0.786,0.0,
237,,size_choice_confirmation,,html-keyboard-response,237,577170,0.0-1.0-311.0-0.0,0,0,26705,,,,,,77.0,,,,,,,,,,,,,,,,,,,,,,,,,,,,247.0,0.714,,
238,,iti,,html-keyboard-response,238,579181,0.0-1.0-312.0,0,0,26705,,,,,,,,,,,,,,,,,,,,,,,,,,,,,,,,,,249.0,2.0,,
239,,size_choice,,html-keyboard-response,239,579858,0.0-1.0-314.0,0,0,26705,,675.0,,,68.0,78.0,78.0,2.0,1500.0,M-XL,1.0,XL,M,4.0,2.0,dumptruck,coffeemaker,dumptruck10,coffeemaker10,179.0,69.0,/static/Size_judgement/Stimuli/Size_stims/XL/dumptruck/dumptruck4.jpg,/static/Size_judgement/Stimuli/Size_stims/M/coffeemaker/coffeemaker18.jpg,1.0,dumptruck,coffeemaker,XL,M,4.0,2.0,dumptruck10,coffeemaker10,1.0,249.675,0.675,0.0,
240,,size_choice_confirmation,,html-keyboard-response,240,580706,0.0-1.0-315.0-0.0,0,0,26705,,,,,,78.0,,,,,,,,,,,,,,,,,,,,,,,,,,,,250.5,0.825,,
241,,iti,,html-keyboard-response,241,582262,0.0-1.0-316.0,0,0,26705,,,,,,,,,,,,,,,,,,,,,,,,,,,,,,,,,,252.0,1.5,,
242,,size_choice,,html-keyboard-response,242,583030,0.0-1.0-318.0,0,0,26705,,765.0,,,68.0,79.0,79.0,2.0,1000.0,L-L,,L,L,3.0,3.0,mailbox,cooler,mailbox4,cooler6,43.0,5.0,/static/Size_judgement/Stimuli/Size_stims/L/mailbox/mailbox5.jpg,/static/Size_judgement/Stimuli/Size_stims/L/cooler/cooler1.jpg,1.0,mailbox,cooler,L,L,3.0,3.0,mailbox4,cooler6,,252.765,0.765,0.0,
243,,size_choice_confirmation,,html-keyboard-response,243,583775,0.0-1.0-319.0-0.0,0,0,26705,,,,,,79.0,,,,,,,,,,,,,,,,,,,,,,,,,,,,253.5,0.735,,
244,,iti,,html-keyboard-response,244,584780,0.0-1.0-320.0,0,0,26705,,,,,,,,,,,,,,,,,,,,,,,,,,,,,,,,,,254.5,1.0,,
245,,size_choice,,html-keyboard-response,245,585562,0.0-1.0-322.0,0,0,26705,,780.0,,,75.0,80.0,80.0,2.0,1000.0,S-M,0.0,S,M,1.0,2.0,die,basketball,die3,basketball3,102.0,52.0,/static/Size_judgement/Stimuli/Size_stims/S/die/die10.jpg,/static/Size_judgement/Stimuli/Size_stims/M/basketball/basketball10.jpg,0.0,basketball,die,M,S,2.0,1.0,basketball3,die3,1.0,255.28,0.78,0.0,
246,,size_choice_confirmation,,html-keyboard-response,246,586296,0.0-1.0-323.0-0.0,0,0,26705,,,,,,80.0,,,,,,,,,,,,,,,,,,,,,,,,,,,,256.0,0.72,,
247,,iti,,html-keyboard-response,247,587303,0.0-1.0-324.0,0,0,26705,,,,,,,,,,,,,,,,,,,,,,,,,,,,,,,,,,257.0,1.0,,
248,,size_choice,,html-keyboard-response,248,587922,0.0-1.0-326.0,0,0,26705,,615.0,,,75.0,81.0,81.0,2.0,2000.0,S-L,0.0,S,L,1.0,3.0,thread,garbagecan,thread9,garbagecan7,148.0,36.0,/static/Size_judgement/Stimuli/Size_stims/S/thread/thread8.jpg,/static/Size_judgement/Stimuli/Size_stims/L/garbagecan/garbagecan16.jpg,0.0,garbagecan,thread,L,S,3.0,1.0,garbagecan7,thread9,1.0,257.615,0.615,0.0,
249,,size_choice_confirmation,,html-keyboard-response,249,588815,0.0-1.0-327.0-0.0,0,0,26705,,,,,,81.0,,,,,,,,,,,,,,,,,,,,,,,,,,,,258.5,0.885,,
250,,iti,,html-keyboard-response,250,590821,0.0-1.0-328.0,0,0,26705,,,,,,,,,,,,,,,,,,,,,,,,,,,,,,,,,,260.5,2.0,,
251,,size_choice,,html-keyboard-response,251,591377,0.0-1.0-330.0,0,0,26705,,554.0,,,68.0,82.0,82.0,2.0,2000.0,M-XL,1.0,XL,M,4.0,2.0,tractor,basketball,tractor8,basketball8,187.0,57.0,/static/Size_judgement/Stimuli/Size_stims/XL/tractor/tractor10.jpg,/static/Size_judgement/Stimuli/Size_stims/M/basketball/basketball7.jpg,1.0,tractor,basketball,XL,M,4.0,2.0,tractor8,basketball8,1.0,261.054,0.554,0.0,
252,,size_choice_confirmation,,html-keyboard-response,252,592333,0.0-1.0-331.0-0.0,0,0,26705,,,,,,82.0,,,,,,,,,,,,,,,,,,,,,,,,,,,,262.0,0.946,,
253,,iti,,html-keyboard-response,253,594341,0.0-1.0-332.0,0,0,26705,,,,,,,,,,,,,,,,,,,,,,,,,,,,,,,,,,264.0,2.0,,
254,,size_choice,,html-keyboard-response,254,594908,0.0-1.0-334.0,0,0,26705,,562.0,,,75.0,83.0,83.0,2.0,1000.0,S-XL,0.0,S,XL,1.0,4.0,screws,van,screws2,van3,121.0,192.0,/static/Size_judgement/Stimuli/Size_stims/S/screws/screws5.jpg,/static/Size_judgement/Stimuli/Size_stims/XL/van/van6.jpg,0.0,van,screws,XL,S,4.0,1.0,van3,screws2,1.0,264.562,0.562,0.0,
255,,size_choice_confirmation,,html-keyboard-response,255,595857,0.0-1.0-335.0-0.0,0,0,26705,,,,,,83.0,,,,,,,,,,,,,,,,,,,,,,,,,,,,265.5,0.938,,
256,,iti,,html-keyboard-response,256,596867,0.0-1.0-336.0,0,0,26705,,,,,,,,,,,,,,,,,,,,,,,,,,,,,,,,,,266.5,1.0,,
257,,size_choice,,html-keyboard-response,257,597590,0.0-1.0-338.0,0,0,26705,,718.0,,,68.0,84.0,84.0,2.0,1000.0,L-L,,L,L,3.0,3.0,cooler,dishwasher,cooler3,dishwasher9,2.0,28.0,/static/Size_judgement/Stimuli/Size_stims/L/cooler/cooler2.jpg,/static/Size_judgement/Stimuli/Size_stims/L/dishwasher/dishwasher2.jpg,1.0,cooler,dishwasher,L,L,3.0,3.0,cooler3,dishwasher9,,267.218,0.718,0.0,
258,,size_choice_confirmation,,html-keyboard-response,258,598375,0.0-1.0-339.0-0.0,0,0,26705,,,,,,84.0,,,,,,,,,,,,,,,,,,,,,,,,,,,,268.0,0.782,,
259,,iti,,html-keyboard-response,259,599381,0.0-1.0-340.0,0,0,26705,,,,,,,,,,,,,,,,,,,,,,,,,,,,,,,,,,269.0,1.0,,
260,,size_choice,,html-keyboard-response,260,600456,0.0-1.0-342.0,0,0,26705,,1071.0,,,68.0,85.0,85.0,2.0,1000.0,M-M,,M,M,2.0,2.0,hairdryer,handsaw,hairdryer10,handsaw2,79.0,81.0,/static/Size_judgement/Stimuli/Size_stims/M/hairdryer/hairdryer6.jpg,/static/Size_judgement/Stimuli/Size_stims/M/handsaw/handsaw9.jpg,1.0,hairdryer,handsaw,M,M,2.0,2.0,hairdryer10,handsaw2,,270.071,1.071,0.0,
261,,size_choice_confirmation,,html-keyboard-response,261,600895,0.0-1.0-343.0-0.0,0,0,26705,,,,,,85.0,,,,,,,,,,,,,,,,,,,,,,,,,,,,270.5,0.429,,
262,,iti,,html-keyboard-response,262,601914,0.0-1.0-344.0,0,0,26705,,,,,,,,,,,,,,,,,,,,,,,,,,,,,,,,,,271.5,1.0,,
263,,size_choice,,html-keyboard-response,263,602709,0.0-1.0-346.0,0,0,26705,,790.0,,,75.0,86.0,86.0,2.0,1000.0,L-XL,0.0,L,XL,3.0,4.0,garbagecan,crane,garbagecan6,crane2,35.0,161.0,/static/Size_judgement/Stimuli/Size_stims/L/garbagecan/garbagecan14.jpg,/static/Size_judgement/Stimuli/Size_stims/XL/crane/crane6.jpg,0.0,crane,garbagecan,XL,L,4.0,3.0,crane2,garbagecan6,1.0,272.29,0.79,0.0,
264,,size_choice_confirmation,,html-keyboard-response,264,603425,0.0-1.0-347.0-0.0,0,0,26705,,,,,,86.0,,,,,,,,,,,,,,,,,,,,,,,,,,,,273.0,0.71,,
265,,iti,,html-keyboard-response,265,604433,0.0-1.0-348.0,0,0,26705,,,,,,,,,,,,,,,,,,,,,,,,,,,,,,,,,,274.0,1.0,,
266,,size_choice,,html-keyboard-response,266,605271,0.0-1.0-350.0,0,0,26705,,834.0,,,68.0,87.0,87.0,2.0,1000.0,XL-XL,,XL,XL,4.0,4.0,car,tractor,car2,tractor10,151.0,189.0,/static/Size_judgement/Stimuli/Size_stims/XL/car/car3.jpg,/static/Size_judgement/Stimuli/Size_stims/XL/tractor/tractor8.jpg,1.0,car,tractor,XL,XL,4.0,4.0,car2,tractor10,,274.834,0.834,0.0,
267,,size_choice_confirmation,,html-keyboard-response,267,605951,0.0-1.0-351.0-0.0,0,0,26705,,,,,,87.0,,,,,,,,,,,,,,,,,,,,,,,,,,,,275.5,0.666,,
268,,iti,,html-keyboard-response,268,606956,0.0-1.0-352.0,0,0,26705,,,,,,,,,,,,,,,,,,,,,,,,,,,,,,,,,,276.5,1.0,,
269,,size_choice,,html-keyboard-response,269,607574,0.0-1.0-354.0,0,0,26705,,614.0,,,68.0,88.0,88.0,2.0,1000.0,S-L,1.0,L,S,3.0,1.0,deskchair,screws,deskchair7,screws10,16.0,129.0,/static/Size_judgement/Stimuli/Size_stims/L/deskchair/deskchair4.jpg,/static/Size_judgement/Stimuli/Size_stims/S/screws/screws9.jpg,1.0,deskchair,screws,L,S,3.0,1.0,deskchair7,screws10,1.0,277.114,0.614,0.0,
270,,size_choice_confirmation,,html-keyboard-response,270,608465,0.0-1.0-355.0-0.0,0,0,26705,,,,,,88.0,,,,,,,,,,,,,,,,,,,,,,,,,,,,278.0,0.886,,
271,,iti,,html-keyboard-response,271,609476,0.0-1.0-356.0,0,0,26705,,,,,,,,,,,,,,,,,,,,,,,,,,,,,,,,,,279.0,1.0,,
272,,size_choice,,html-keyboard-response,272,610246,0.0-1.0-358.0,0,0,26705,,767.0,,,68.0,89.0,89.0,2.0,3500.0,S-L,1.0,L,S,3.0,1.0,garbagecan,teabag,garbagecan1,teabag4,30.0,133.0,/static/Size_judgement/Stimuli/Size_stims/L/garbagecan/garbagecan4.jpg,/static/Size_judgement/Stimuli/Size_stims/S/teabag/teabag3.jpg,1.0,garbagecan,teabag,L,S,3.0,1.0,garbagecan1,teabag4,1.0,279.767,0.767,0.0,
273,,size_choice_confirmation,,html-keyboard-response,273,610996,0.0-1.0-359.0-0.0,0,0,26705,,,,,,89.0,,,,,,,,,,,,,,,,,,,,,,,,,,,,280.5,0.733,,
274,,iti,,html-keyboard-response,274,614505,0.0-1.0-360.0,0,0,26705,,,,,,,,,,,,,,,,,,,,,,,,,,,,,,,,,,284.0,3.5,,1.0
275,,size_final_tally,,html-keyboard-response,275,616932,0.0-2.0,0,0,26705,,2420.0,,,68.0,,,,,,,,,,,,,,,,,,,,,,,,,,,,,,,,
276,,debreif_intro,,html-keyboard-response,276,621067,0.0-3.0,0,0,26705,,4040.0,,,68.0,,,,,,,,,,,,,,,,,,,,,,,,,,,,,,,,
277,,debreif_age,,survey-text,277,626943,0.0-4.0,0,0,26705,,5868.0,"{""Q0"":""29""}",,,,,,,,,,,,,,,,,,,,,,,,,,,,,,,,,,
278,,debreif_gender,,survey-multi-choice,278,631095,0.0-5.0,0,0,26705,,4136.0,"{""Q0"":""Female""}",,,,,,,,,,,,,,,,,,,,,,,,,,,,,,,,,,
279,,debreif_dominant_hand,,survey-multi-choice,279,633040,0.0-6.0,0,0,26705,,1930.0,"{""Q0"":""Right""}",,,,,,,,,,,,,,,,,,,,,,,,,,,,,,,,,,
280,,debreif_native_language,,survey-multi-choice,280,636800,0.0-7.0,0,0,26705,,3756.0,"{""Q0"":""Yes""}",,,,,,,,,,,,,,,,,,,,,,,,,,,,,,,,,,
281,,debreif_fluency,,survey-likert,281,646796,0.0-8.0,0,0,26705,,9986.0,"{""Q0"":5}",,,,,,,,,,,,,,,,,,,,,,,,,,,,,,,,,,
282,,debreif_strategy_category_learning,,survey-text,282,682858,0.0-9.0,0,0,26705,,36056.0,"{""Q0"":""overtime it seemed like some items were worth more but i couldnt tell if it was the category or the color""}",,,,,,,,,,,,,,,,,,,,,,,,,,,,,,,,,,
283,,debreif_strategy_old_trials,,survey-text,283,689290,0.0-10.0,0,0,26705,,6428.0,"{""Q0"":""the color""}",,,,,,,,,,,,,,,,,,,,,,,,,,,,,,,,,,
284,,debreif_strategy_category_memory,,survey-text,284,719428,0.0-11.0,0,0,26705,,30127.0,"{""Q0"":""remembering how much I wanted to click on each item or if it was hard to choose between like 2 shells""}",,,,,,,,,,,,,,,,,,,,,,,,,,,,,,,,,,
285,,debreif_strategy_size,,survey-text,285,730478,0.0-12.0,0,0,26705,,11044.0,"{""Q0"":""whichever one was bigger in real life""}",,,,,,,,,,,,,,,,,,,,,,,,,,,,,,,,,,
286,,debreif_strategy_rl,,survey-text,286,741722,0.0-13.0,0,0,26705,,11241.0,"{""Q0"":""the same ones always seemed to be worth more""}",,,,,,,,,,,,,,,,,,,,,,,,,,,,,,,,,,
287,,debreif_clear_instructions,,survey-text,287,746131,0.0-14.0,0,0,26705,,4404.0,"{""Q0"":""no""}",,,,,,,,,,,,,,,,,,,,,,,,,,,,,,,,,,
288,,debreif_end,,html-keyboard-response,288,771111,0.0-15.0,0,0,26705,,24970.0,,,32.0,,,,,,,,,,,,,,,,,,,,,,,,,,,,,,,,
