,success,ttype,start_time,trial_type,trial_index,time_elapsed,internal_node_id,warning,missed_checkup,PID,view_history,rt,responses,repeat_instructions,key_press,index,trial_num,block,iti,pair_type,high_size_on_left,left_size_group,right_size_group,left_size_num,right_size_num,left_category,right_category,left_exemplar,right_exemplar,left_index,right_index,left_img_path,right_img_path,left_chosen,chosen_category,unchosen_category,chosen_size_group,unchosen_size_group,chosen_size_num,unchosen_size_num,chosen_exemplar,unchosen_exemplar,accuracy,onset,duration,no_response,size_final_tally
0,True,full_screen,d06032022hr1727,fullscreen,0,11356,0.0-0.0,0,0,54497,,,,,,,,,,,,,,,,,,,,,,,,,,,,,,,,,,,,,
1,,size_instructions,,instructions,1,45687,0.0-1.0-0.0-0.0,0,0,54497,"[{""page_index"":0,""viewing_time"":3514},{""page_index"":1,""viewing_time"":7339},{""page_index"":2,""viewing_time"":2179},{""page_index"":3,""viewing_time"":3649},{""page_index"":4,""viewing_time"":16184},{""page_index"":5,""viewing_time"":1462}]",34329.0,,,,,,,,,,,,,,,,,,,,,,,,,,,,,,,,,,,
2,,size_comprehension_check,,survey-multi-choice,2,55493,0.0-1.0-0.0-1.0,0,0,54497,,9803.0,"{""Q0"":""True"",""Q1"":""Size in the real world"",""Q2"":""True"",""Q3"":""D for left and K for right""}",0.0,,,,,,,,,,,,,,,,,,,,,,,,,,,,,,,,,
3,,,,html-keyboard-response,3,60391,0.0-1.0-1.0,0,0,54497,,4895.0,,,68.0,,,,,,,,,,,,,,,,,,,,,,,,,,,,,,,,
4,,size_choice,,html-keyboard-response,4,61542,0.0-1.0-2.0,0,0,54497,,1145.0,,,68.0,0.0,0.0,1.0,1500.0,S-M,1.0,M,S,2.0,1.0,hairdryer,paperclip,hairdryer8,paperclip1,77.0,110.0,/static/Size_judgement/Stimuli/Size_stims/M/hairdryer/hairdryer1.jpg,/static/Size_judgement/Stimuli/Size_stims/S/paperclip/paperclip9.jpg,1.0,hairdryer,paperclip,M,S,2.0,1.0,hairdryer8,paperclip1,1.0,1.145,1.145,0.0,
5,,size_choice_confirmation,,html-keyboard-response,5,61902,0.0-1.0-3.0-0.0,0,0,54497,,,,,,0.0,,,,,,,,,,,,,,,,,,,,,,,,,,,,1.5,0.355,,
6,,iti,,html-keyboard-response,6,63405,0.0-1.0-4.0,0,0,54497,,,,,,,,,,,,,,,,,,,,,,,,,,,,,,,,,,3.0,1.5,,
7,,size_choice,,html-keyboard-response,7,64283,0.0-1.0-6.0,0,0,54497,,876.0,,,75.0,1.0,1.0,1.0,1000.0,S-XL,0.0,S,XL,1.0,4.0,die,van,die5,van5,104.0,194.0,/static/Size_judgement/Stimuli/Size_stims/S/die/die3.jpg,/static/Size_judgement/Stimuli/Size_stims/XL/van/van3.jpg,0.0,van,die,XL,S,4.0,1.0,van5,die5,1.0,3.876,0.876,0.0,
8,,size_choice_confirmation,,html-keyboard-response,8,64910,0.0-1.0-7.0-0.0,0,0,54497,,,,,,1.0,,,,,,,,,,,,,,,,,,,,,,,,,,,,4.5,0.624,,
9,,iti,,html-keyboard-response,9,65916,0.0-1.0-8.0,0,0,54497,,,,,,,,,,,,,,,,,,,,,,,,,,,,,,,,,,5.5,1.0,,
10,,size_choice,,html-keyboard-response,10,66859,0.0-1.0-10.0,0,0,54497,,940.0,,,68.0,2.0,2.0,1.0,1000.0,S-L,1.0,L,S,3.0,1.0,dishwasher,thread,dishwasher8,thread1,27.0,140.0,/static/Size_judgement/Stimuli/Size_stims/L/dishwasher/dishwasher3.jpg,/static/Size_judgement/Stimuli/Size_stims/S/thread/thread7.jpg,1.0,dishwasher,thread,L,S,3.0,1.0,dishwasher8,thread1,1.0,6.44,0.94,0.0,
11,,size_choice_confirmation,,html-keyboard-response,11,67423,0.0-1.0-11.0-0.0,0,0,54497,,,,,,2.0,,,,,,,,,,,,,,,,,,,,,,,,,,,,7.0,0.56,,
12,,iti,,html-keyboard-response,12,68425,0.0-1.0-12.0,0,0,54497,,,,,,,,,,,,,,,,,,,,,,,,,,,,,,,,,,8.0,1.0,,
13,,size_choice,,html-keyboard-response,13,68987,0.0-1.0-14.0,0,0,54497,,559.0,,,68.0,3.0,3.0,1.0,1500.0,M-XL,1.0,XL,M,4.0,2.0,van,basketball,van4,basketball9,193.0,58.0,/static/Size_judgement/Stimuli/Size_stims/XL/van/van7.jpg,/static/Size_judgement/Stimuli/Size_stims/M/basketball/basketball5.jpg,1.0,van,basketball,XL,M,4.0,2.0,van4,basketball9,1.0,8.559,0.559,0.0,
14,,size_choice_confirmation,,html-keyboard-response,14,69931,0.0-1.0-15.0-0.0,0,0,54497,,,,,,3.0,,,,,,,,,,,,,,,,,,,,,,,,,,,,9.5,0.941,,
15,,iti,,html-keyboard-response,15,71433,0.0-1.0-16.0,0,0,54497,,,,,,,,,,,,,,,,,,,,,,,,,,,,,,,,,,11.0,1.5,,
16,,size_choice,,html-keyboard-response,16,72067,0.0-1.0-18.0,0,0,54497,,631.0,,,68.0,4.0,4.0,1.0,1500.0,M-XL,1.0,XL,M,4.0,2.0,crane,handsaw,crane4,handsaw4,163.0,83.0,/static/Size_judgement/Stimuli/Size_stims/XL/crane/crane5.jpg,/static/Size_judgement/Stimuli/Size_stims/M/handsaw/handsaw3.jpg,1.0,crane,handsaw,XL,M,4.0,2.0,crane4,handsaw4,1.0,11.631,0.631,0.0,
17,,size_choice_confirmation,,html-keyboard-response,17,72940,0.0-1.0-19.0-0.0,0,0,54497,,,,,,4.0,,,,,,,,,,,,,,,,,,,,,,,,,,,,12.5,0.869,,
18,,iti,,html-keyboard-response,18,74441,0.0-1.0-20.0,0,0,54497,,,,,,,,,,,,,,,,,,,,,,,,,,,,,,,,,,14.0,1.5,,
19,,size_choice,,html-keyboard-response,19,75417,0.0-1.0-22.0,0,0,54497,,972.0,,,68.0,5.0,5.0,1.0,1000.0,M-L,1.0,L,M,3.0,2.0,deskchair,handsaw,deskchair9,handsaw9,18.0,88.0,/static/Size_judgement/Stimuli/Size_stims/L/deskchair/deskchair3.jpg,/static/Size_judgement/Stimuli/Size_stims/M/handsaw/handsaw6.jpg,1.0,deskchair,handsaw,L,M,3.0,2.0,deskchair9,handsaw9,1.0,14.972,0.972,0.0,
20,,size_choice_confirmation,,html-keyboard-response,20,75948,0.0-1.0-23.0-0.0,0,0,54497,,,,,,5.0,,,,,,,,,,,,,,,,,,,,,,,,,,,,15.5,0.528,,
21,,iti,,html-keyboard-response,21,76951,0.0-1.0-24.0,0,0,54497,,,,,,,,,,,,,,,,,,,,,,,,,,,,,,,,,,16.5,1.0,,
22,,size_choice,,html-keyboard-response,22,78179,0.0-1.0-26.0,0,0,54497,,1225.0,,,75.0,6.0,6.0,1.0,1500.0,M-L,0.0,M,L,2.0,3.0,coffeemaker,mailbox,coffeemaker7,mailbox7,66.0,46.0,/static/Size_judgement/Stimuli/Size_stims/M/coffeemaker/coffeemaker9.jpg,/static/Size_judgement/Stimuli/Size_stims/L/mailbox/mailbox7.jpg,0.0,mailbox,coffeemaker,L,M,3.0,2.0,mailbox7,coffeemaker7,1.0,17.725,1.225,0.0,
23,,size_choice_confirmation,,html-keyboard-response,23,78458,0.0-1.0-27.0-0.0,0,0,54497,,,,,,6.0,,,,,,,,,,,,,,,,,,,,,,,,,,,,18.0,0.275,,
24,,iti,,html-keyboard-response,24,79960,0.0-1.0-28.0,0,0,54497,,,,,,,,,,,,,,,,,,,,,,,,,,,,,,,,,,19.5,1.5,,
25,,size_choice,,html-keyboard-response,25,80659,0.0-1.0-30.0,0,0,54497,,697.0,,,68.0,7.0,7.0,1.0,1500.0,M-L,1.0,L,M,3.0,2.0,deskchair,ketchup,deskchair10,ketchup3,19.0,92.0,/static/Size_judgement/Stimuli/Size_stims/L/deskchair/deskchair2.jpg,/static/Size_judgement/Stimuli/Size_stims/M/ketchup/ketchup10.jpg,1.0,deskchair,ketchup,L,M,3.0,2.0,deskchair10,ketchup3,1.0,20.197,0.697,0.0,
26,,size_choice_confirmation,,html-keyboard-response,26,81465,0.0-1.0-31.0-0.0,0,0,54497,,,,,,7.0,,,,,,,,,,,,,,,,,,,,,,,,,,,,21.0,0.803,,
27,,iti,,html-keyboard-response,27,82967,0.0-1.0-32.0,0,0,54497,,,,,,,,,,,,,,,,,,,,,,,,,,,,,,,,,,22.5,1.5,,
28,,size_choice,,html-keyboard-response,28,83794,0.0-1.0-34.0,0,0,54497,,824.0,,,68.0,8.0,8.0,1.0,2000.0,S-L,1.0,L,S,3.0,1.0,cooler,paperclip,cooler8,paperclip3,7.0,112.0,/static/Size_judgement/Stimuli/Size_stims/L/cooler/cooler5.jpg,/static/Size_judgement/Stimuli/Size_stims/S/paperclip/paperclip1.jpg,1.0,cooler,paperclip,L,S,3.0,1.0,cooler8,paperclip3,1.0,23.324,0.824,0.0,
29,,size_choice_confirmation,,html-keyboard-response,29,84473,0.0-1.0-35.0-0.0,0,0,54497,,,,,,8.0,,,,,,,,,,,,,,,,,,,,,,,,,,,,24.0,0.676,,
30,,iti,,html-keyboard-response,30,86475,0.0-1.0-36.0,0,0,54497,,,,,,,,,,,,,,,,,,,,,,,,,,,,,,,,,,26.0,2.0,,
31,,size_choice,,html-keyboard-response,31,87401,0.0-1.0-38.0,0,0,54497,,923.0,,,75.0,9.0,9.0,1.0,1500.0,M-L,0.0,M,L,2.0,3.0,basketball,garbagecan,basketball10,garbagecan5,59.0,34.0,/static/Size_judgement/Stimuli/Size_stims/M/basketball/basketball4.jpg,/static/Size_judgement/Stimuli/Size_stims/L/garbagecan/garbagecan3.jpg,0.0,garbagecan,basketball,L,M,3.0,2.0,garbagecan5,basketball10,1.0,26.923,0.923,0.0,
32,,size_choice_confirmation,,html-keyboard-response,32,87982,0.0-1.0-39.0-0.0,0,0,54497,,,,,,9.0,,,,,,,,,,,,,,,,,,,,,,,,,,,,27.5,0.577,,
33,,iti,,html-keyboard-response,33,89484,0.0-1.0-40.0,0,0,54497,,,,,,,,,,,,,,,,,,,,,,,,,,,,,,,,,,29.0,1.5,,
34,,size_choice,,html-keyboard-response,34,90088,0.0-1.0-42.0,0,0,54497,,602.0,,,68.0,10.0,10.0,1.0,2000.0,S-L,1.0,L,S,3.0,1.0,dishwasher,teabag,dishwasher1,teabag5,20.0,134.0,/static/Size_judgement/Stimuli/Size_stims/L/dishwasher/dishwasher10.jpg,/static/Size_judgement/Stimuli/Size_stims/S/teabag/teabag2.jpg,1.0,dishwasher,teabag,L,S,3.0,1.0,dishwasher1,teabag5,1.0,29.602,0.602,0.0,
35,,size_choice_confirmation,,html-keyboard-response,35,90990,0.0-1.0-43.0-0.0,0,0,54497,,,,,,10.0,,,,,,,,,,,,,,,,,,,,,,,,,,,,30.5,0.898,,
36,,iti,,html-keyboard-response,36,92993,0.0-1.0-44.0,0,0,54497,,,,,,,,,,,,,,,,,,,,,,,,,,,,,,,,,,32.5,2.0,,
37,,size_choice,,html-keyboard-response,37,94084,0.0-1.0-46.0,0,0,54497,,1089.0,,,75.0,11.0,11.0,1.0,1000.0,S-S,,S,S,1.0,1.0,thread,die,thread10,die4,149.0,103.0,/static/Size_judgement/Stimuli/Size_stims/S/thread/thread9.jpg,/static/Size_judgement/Stimuli/Size_stims/S/die/die2.jpg,0.0,die,thread,S,S,1.0,1.0,die4,thread10,,33.589,1.089,0.0,
38,,size_choice_confirmation,,html-keyboard-response,38,94500,0.0-1.0-47.0-0.0,0,0,54497,,,,,,11.0,,,,,,,,,,,,,,,,,,,,,,,,,,,,34.0,0.411,,
39,,iti,,html-keyboard-response,39,95503,0.0-1.0-48.0,0,0,54497,,,,,,,,,,,,,,,,,,,,,,,,,,,,,,,,,,35.0,1.0,,
40,,size_choice,,html-keyboard-response,40,96575,0.0-1.0-50.0,0,0,54497,,1069.0,,,75.0,12.0,12.0,1.0,1000.0,S-XL,0.0,S,XL,1.0,4.0,teabag,crane,teabag6,crane6,135.0,165.0,/static/Size_judgement/Stimuli/Size_stims/S/teabag/teabag6.jpg,/static/Size_judgement/Stimuli/Size_stims/XL/crane/crane2.jpg,0.0,crane,teabag,XL,S,4.0,1.0,crane6,teabag6,1.0,36.069,1.069,0.0,
41,,size_choice_confirmation,,html-keyboard-response,41,97010,0.0-1.0-51.0-0.0,0,0,54497,,,,,,12.0,,,,,,,,,,,,,,,,,,,,,,,,,,,,36.5,0.431,,
42,,iti,,html-keyboard-response,42,98014,0.0-1.0-52.0,0,0,54497,,,,,,,,,,,,,,,,,,,,,,,,,,,,,,,,,,37.5,1.0,,
43,,size_choice,,html-keyboard-response,43,98728,0.0-1.0-54.0,0,0,54497,,711.0,,,75.0,13.0,13.0,1.0,1500.0,S-M,0.0,S,M,1.0,2.0,paperclip,ketchup,paperclip2,ketchup7,111.0,96.0,/static/Size_judgement/Stimuli/Size_stims/S/paperclip/paperclip8.jpg,/static/Size_judgement/Stimuli/Size_stims/M/ketchup/ketchup4.jpg,0.0,ketchup,paperclip,M,S,2.0,1.0,ketchup7,paperclip2,1.0,38.211,0.711,0.0,
44,,size_choice_confirmation,,html-keyboard-response,44,99520,0.0-1.0-55.0-0.0,0,0,54497,,,,,,13.0,,,,,,,,,,,,,,,,,,,,,,,,,,,,39.0,0.789,,
45,,iti,,html-keyboard-response,45,101022,0.0-1.0-56.0,0,0,54497,,,,,,,,,,,,,,,,,,,,,,,,,,,,,,,,,,40.5,1.5,,
46,,size_choice,,html-keyboard-response,46,101993,0.0-1.0-58.0,0,0,54497,,968.0,,,75.0,14.0,14.0,1.0,2000.0,S-L,0.0,S,L,1.0,3.0,thread,garbagecan,thread6,garbagecan8,145.0,37.0,/static/Size_judgement/Stimuli/Size_stims/S/thread/thread2.jpg,/static/Size_judgement/Stimuli/Size_stims/L/garbagecan/garbagecan13.jpg,0.0,garbagecan,thread,L,S,3.0,1.0,garbagecan8,thread6,1.0,41.468,0.968,0.0,
47,,size_choice_confirmation,,html-keyboard-response,47,102528,0.0-1.0-59.0-0.0,0,0,54497,,,,,,14.0,,,,,,,,,,,,,,,,,,,,,,,,,,,,42.0,0.532,,
48,,iti,,html-keyboard-response,48,104530,0.0-1.0-60.0,0,0,54497,,,,,,,,,,,,,,,,,,,,,,,,,,,,,,,,,,44.0,2.0,,
49,,size_choice,,html-keyboard-response,49,105314,0.0-1.0-62.0,0,0,54497,,781.0,,,75.0,15.0,15.0,1.0,1000.0,S-L,0.0,S,L,1.0,3.0,screws,dishwasher,screws4,dishwasher2,123.0,21.0,/static/Size_judgement/Stimuli/Size_stims/S/screws/screws6.jpg,/static/Size_judgement/Stimuli/Size_stims/L/dishwasher/dishwasher9.jpg,0.0,dishwasher,screws,L,S,3.0,1.0,dishwasher2,screws4,1.0,44.781,0.781,0.0,
50,,size_choice_confirmation,,html-keyboard-response,50,106036,0.0-1.0-63.0-0.0,0,0,54497,,,,,,15.0,,,,,,,,,,,,,,,,,,,,,,,,,,,,45.5,0.719,,
51,,iti,,html-keyboard-response,51,107039,0.0-1.0-64.0,0,0,54497,,,,,,,,,,,,,,,,,,,,,,,,,,,,,,,,,,46.5,1.0,,
52,,size_choice,,html-keyboard-response,52,108194,0.0-1.0-66.0,0,0,54497,,1152.0,,,75.0,16.0,16.0,1.0,3000.0,XL-XL,,XL,XL,4.0,4.0,dumptruck,crane,dumptruck9,crane9,178.0,168.0,/static/Size_judgement/Stimuli/Size_stims/XL/dumptruck/dumptruck5.jpg,/static/Size_judgement/Stimuli/Size_stims/XL/crane/crane8.jpg,0.0,crane,dumptruck,XL,XL,4.0,4.0,crane9,dumptruck9,,47.652,1.152,0.0,
53,,size_choice_confirmation,,html-keyboard-response,53,108545,0.0-1.0-67.0-0.0,0,0,54497,,,,,,16.0,,,,,,,,,,,,,,,,,,,,,,,,,,,,48.0,0.348,,
54,,iti,,html-keyboard-response,54,111548,0.0-1.0-68.0,0,0,54497,,,,,,,,,,,,,,,,,,,,,,,,,,,,,,,,,,51.0,3.0,,
55,,size_choice,,html-keyboard-response,55,113052,0.0-1.0-70.0,0,0,54497,,,,,,17.0,17.0,1.0,1000.0,L-L,,L,L,3.0,3.0,deskchair,mailbox,deskchair2,mailbox5,11.0,44.0,/static/Size_judgement/Stimuli/Size_stims/L/deskchair/deskchair8.jpg,/static/Size_judgement/Stimuli/Size_stims/L/mailbox/mailbox4.jpg,,,,,,,,,,,52.5,1.5,1.0,
56,,iti,,html-keyboard-response,56,114054,0.0-1.0-72.0,0,0,54497,,,,,,,,,,,,,,,,,,,,,,,,,,,,,,,,,,53.5,1.0,,
57,,size_choice,,html-keyboard-response,57,114963,0.0-1.0-74.0,0,0,54497,,906.0,,,68.0,18.0,18.0,1.0,3000.0,M-XL,1.0,XL,M,4.0,2.0,van,coffeemaker,van2,coffeemaker8,191.0,67.0,/static/Size_judgement/Stimuli/Size_stims/XL/van/van4.jpg,/static/Size_judgement/Stimuli/Size_stims/M/coffeemaker/coffeemaker5.jpg,1.0,van,coffeemaker,XL,M,4.0,2.0,van2,coffeemaker8,1.0,54.406,0.906,0.0,
58,,size_choice_confirmation,,html-keyboard-response,58,115559,0.0-1.0-75.0-0.0,0,0,54497,,,,,,18.0,,,,,,,,,,,,,,,,,,,,,,,,,,,,55.0,0.594,,
59,,iti,,html-keyboard-response,59,118562,0.0-1.0-76.0,0,0,54497,,,,,,,,,,,,,,,,,,,,,,,,,,,,,,,,,,58.0,3.0,,
60,,size_choice,,html-keyboard-response,60,119147,0.0-1.0-78.0,0,0,54497,,581.0,,,68.0,19.0,19.0,1.0,1000.0,M-XL,1.0,XL,M,4.0,2.0,tractor,handsaw,tractor6,handsaw1,185.0,80.0,/static/Size_judgement/Stimuli/Size_stims/XL/tractor/tractor3.jpg,/static/Size_judgement/Stimuli/Size_stims/M/handsaw/handsaw8.jpg,1.0,tractor,handsaw,XL,M,4.0,2.0,tractor6,handsaw1,1.0,58.581,0.581,0.0,
61,,size_choice_confirmation,,html-keyboard-response,61,120069,0.0-1.0-79.0-0.0,0,0,54497,,,,,,19.0,,,,,,,,,,,,,,,,,,,,,,,,,,,,59.5,0.919,,
62,,iti,,html-keyboard-response,62,121072,0.0-1.0-80.0,0,0,54497,,,,,,,,,,,,,,,,,,,,,,,,,,,,,,,,,,60.5,1.0,,
63,,size_choice,,html-keyboard-response,63,121621,0.0-1.0-82.0,0,0,54497,,547.0,,,75.0,20.0,20.0,1.0,1000.0,M-XL,0.0,M,XL,2.0,4.0,hairdryer,van,hairdryer9,van1,78.0,190.0,/static/Size_judgement/Stimuli/Size_stims/M/hairdryer/hairdryer5.jpg,/static/Size_judgement/Stimuli/Size_stims/XL/van/van5.jpg,0.0,van,hairdryer,XL,M,4.0,2.0,van1,hairdryer9,1.0,61.047,0.547,0.0,
64,,size_choice_confirmation,,html-keyboard-response,64,122576,0.0-1.0-83.0-0.0,0,0,54497,,,,,,20.0,,,,,,,,,,,,,,,,,,,,,,,,,,,,62.0,0.953,,
65,,iti,,html-keyboard-response,65,123579,0.0-1.0-84.0,0,0,54497,,,,,,,,,,,,,,,,,,,,,,,,,,,,,,,,,,63.0,1.0,,
66,,size_choice,,html-keyboard-response,66,124189,0.0-1.0-86.0,0,0,54497,,607.0,,,75.0,21.0,21.0,1.0,1000.0,S-M,0.0,S,M,1.0,2.0,die,hairdryer,die6,hairdryer4,105.0,73.0,/static/Size_judgement/Stimuli/Size_stims/S/die/die1.jpg,/static/Size_judgement/Stimuli/Size_stims/M/hairdryer/hairdryer16.jpg,0.0,hairdryer,die,M,S,2.0,1.0,hairdryer4,die6,1.0,63.607,0.607,0.0,
67,,size_choice_confirmation,,html-keyboard-response,67,125085,0.0-1.0-87.0-0.0,0,0,54497,,,,,,21.0,,,,,,,,,,,,,,,,,,,,,,,,,,,,64.5,0.893,,
68,,iti,,html-keyboard-response,68,126088,0.0-1.0-88.0,0,0,54497,,,,,,,,,,,,,,,,,,,,,,,,,,,,,,,,,,65.5,1.0,,
69,,size_choice,,html-keyboard-response,69,126699,0.0-1.0-90.0,0,0,54497,,609.0,,,68.0,22.0,22.0,1.0,1000.0,S-L,1.0,L,S,3.0,1.0,mailbox,teabag,mailbox3,teabag8,42.0,137.0,/static/Size_judgement/Stimuli/Size_stims/L/mailbox/mailbox1.jpg,/static/Size_judgement/Stimuli/Size_stims/S/teabag/teabag7.jpg,1.0,mailbox,teabag,L,S,3.0,1.0,mailbox3,teabag8,1.0,66.109,0.609,0.0,
70,,size_choice_confirmation,,html-keyboard-response,70,127594,0.0-1.0-91.0-0.0,0,0,54497,,,,,,22.0,,,,,,,,,,,,,,,,,,,,,,,,,,,,67.0,0.891,,
71,,iti,,html-keyboard-response,71,128596,0.0-1.0-92.0,0,0,54497,,,,,,,,,,,,,,,,,,,,,,,,,,,,,,,,,,68.0,1.0,,
72,,size_choice,,html-keyboard-response,72,129192,0.0-1.0-94.0,0,0,54497,,593.0,,,68.0,23.0,23.0,1.0,1500.0,M-XL,1.0,XL,M,4.0,2.0,tractor,basketball,tractor4,basketball4,183.0,53.0,/static/Size_judgement/Stimuli/Size_stims/XL/tractor/tractor4.jpg,/static/Size_judgement/Stimuli/Size_stims/M/basketball/basketball1.jpg,1.0,tractor,basketball,XL,M,4.0,2.0,tractor4,basketball4,1.0,68.593,0.593,0.0,
73,,size_choice_confirmation,,html-keyboard-response,73,130102,0.0-1.0-95.0-0.0,0,0,54497,,,,,,23.0,,,,,,,,,,,,,,,,,,,,,,,,,,,,69.5,0.907,,
74,,iti,,html-keyboard-response,74,131604,0.0-1.0-96.0,0,0,54497,,,,,,,,,,,,,,,,,,,,,,,,,,,,,,,,,,71.0,1.5,,
75,,size_choice,,html-keyboard-response,75,132139,0.0-1.0-98.0,0,0,54497,,534.0,,,68.0,24.0,24.0,1.0,2000.0,S-XL,1.0,XL,S,4.0,1.0,dumptruck,die,dumptruck6,die8,175.0,107.0,/static/Size_judgement/Stimuli/Size_stims/XL/dumptruck/dumptruck2.jpg,/static/Size_judgement/Stimuli/Size_stims/S/die/die5.jpg,1.0,dumptruck,die,XL,S,4.0,1.0,dumptruck6,die8,1.0,71.534,0.534,0.0,
76,,size_choice_confirmation,,html-keyboard-response,76,133109,0.0-1.0-99.0-0.0,0,0,54497,,,,,,24.0,,,,,,,,,,,,,,,,,,,,,,,,,,,,72.5,0.966,,
77,,iti,,html-keyboard-response,77,135111,0.0-1.0-100.0,0,0,54497,,,,,,,,,,,,,,,,,,,,,,,,,,,,,,,,,,74.5,2.0,,
78,,size_choice,,html-keyboard-response,78,135595,0.0-1.0-102.0,0,0,54497,,481.0,,,68.0,25.0,25.0,1.0,1000.0,S-XL,1.0,XL,S,4.0,1.0,van,die,van10,die10,199.0,109.0,/static/Size_judgement/Stimuli/Size_stims/XL/van/van8.jpg,/static/Size_judgement/Stimuli/Size_stims/S/die/die6.jpg,1.0,van,die,XL,S,4.0,1.0,van10,die10,1.0,74.981,0.481,0.0,
79,,size_choice_confirmation,,html-keyboard-response,79,136618,0.0-1.0-103.0-0.0,0,0,54497,,,,,,25.0,,,,,,,,,,,,,,,,,,,,,,,,,,,,76.0,1.019,,
80,,iti,,html-keyboard-response,80,137635,0.0-1.0-104.0,0,0,54497,,,,,,,,,,,,,,,,,,,,,,,,,,,,,,,,,,77.0,1.0,,
81,,size_choice,,html-keyboard-response,81,138313,0.0-1.0-106.0,0,0,54497,,675.0,,,68.0,26.0,26.0,1.0,2000.0,M-M,,M,M,2.0,2.0,coffeemaker,hairdryer,coffeemaker5,hairdryer1,64.0,70.0,/static/Size_judgement/Stimuli/Size_stims/M/coffeemaker/coffeemaker10.jpg,/static/Size_judgement/Stimuli/Size_stims/M/hairdryer/hairdryer11.jpg,1.0,coffeemaker,hairdryer,M,M,2.0,2.0,coffeemaker5,hairdryer1,,77.675,0.675,0.0,
82,,size_choice_confirmation,,html-keyboard-response,82,139141,0.0-1.0-107.0-0.0,0,0,54497,,,,,,26.0,,,,,,,,,,,,,,,,,,,,,,,,,,,,78.5,0.825,,
83,,iti,,html-keyboard-response,83,141144,0.0-1.0-108.0,0,0,54497,,,,,,,,,,,,,,,,,,,,,,,,,,,,,,,,,,80.5,2.0,,
84,,size_choice,,html-keyboard-response,84,141640,0.0-1.0-110.0,0,0,54497,,493.0,,,68.0,27.0,27.0,1.0,3000.0,XL-XL,,XL,XL,4.0,4.0,car,dumptruck,car7,dumptruck2,156.0,171.0,/static/Size_judgement/Stimuli/Size_stims/XL/car/car13.jpg,/static/Size_judgement/Stimuli/Size_stims/XL/dumptruck/dumptruck8.jpg,1.0,car,dumptruck,XL,XL,4.0,4.0,car7,dumptruck2,,80.993,0.493,0.0,
85,,size_choice_confirmation,,html-keyboard-response,85,142650,0.0-1.0-111.0-0.0,0,0,54497,,,,,,27.0,,,,,,,,,,,,,,,,,,,,,,,,,,,,82.0,1.007,,
86,,iti,,html-keyboard-response,86,145652,0.0-1.0-112.0,0,0,54497,,,,,,,,,,,,,,,,,,,,,,,,,,,,,,,,,,85.0,3.0,,
87,,size_choice,,html-keyboard-response,87,146445,0.0-1.0-114.0,0,0,54497,,791.0,,,68.0,28.0,28.0,1.0,1000.0,M-L,1.0,L,M,3.0,2.0,mailbox,ketchup,mailbox2,ketchup6,41.0,95.0,/static/Size_judgement/Stimuli/Size_stims/L/mailbox/mailbox2.jpg,/static/Size_judgement/Stimuli/Size_stims/M/ketchup/ketchup1.jpg,1.0,mailbox,ketchup,L,M,3.0,2.0,mailbox2,ketchup6,1.0,85.791,0.791,0.0,
88,,size_choice_confirmation,,html-keyboard-response,88,147158,0.0-1.0-115.0-0.0,0,0,54497,,,,,,28.0,,,,,,,,,,,,,,,,,,,,,,,,,,,,86.5,0.709,,
89,,iti,,html-keyboard-response,89,148160,0.0-1.0-116.0,0,0,54497,,,,,,,,,,,,,,,,,,,,,,,,,,,,,,,,,,87.5,1.0,,
90,,size_choice,,html-keyboard-response,90,148838,0.0-1.0-118.0,0,0,54497,,676.0,,,68.0,29.0,29.0,1.0,3500.0,L-XL,1.0,XL,L,4.0,3.0,van,cooler,van7,cooler5,196.0,4.0,/static/Size_judgement/Stimuli/Size_stims/XL/van/van1.jpg,/static/Size_judgement/Stimuli/Size_stims/L/cooler/cooler10.jpg,1.0,van,cooler,XL,L,4.0,3.0,van7,cooler5,1.0,88.176,0.676,0.0,
91,,size_choice_confirmation,,html-keyboard-response,91,149666,0.0-1.0-119.0-0.0,0,0,54497,,,,,,29.0,,,,,,,,,,,,,,,,,,,,,,,,,,,,89.0,0.824,,
92,,iti,,html-keyboard-response,92,153168,0.0-1.0-120.0,0,0,54497,,,,,,,,,,,,,,,,,,,,,,,,,,,,,,,,,,92.5,3.5,,
93,,size_choice,,html-keyboard-response,93,153753,0.0-1.0-122.0,0,0,54497,,581.0,,,75.0,30.0,30.0,1.0,1000.0,S-S,,S,S,1.0,1.0,paperclip,teabag,paperclip9,teabag2,118.0,131.0,/static/Size_judgement/Stimuli/Size_stims/S/paperclip/paperclip4.jpg,/static/Size_judgement/Stimuli/Size_stims/S/teabag/teabag8.jpg,0.0,teabag,paperclip,S,S,1.0,1.0,teabag2,paperclip9,,93.081,0.581,0.0,
94,,size_choice_confirmation,,html-keyboard-response,94,154676,0.0-1.0-123.0-0.0,0,0,54497,,,,,,30.0,,,,,,,,,,,,,,,,,,,,,,,,,,,,94.0,0.919,,
95,,iti,,html-keyboard-response,95,155678,0.0-1.0-124.0,0,0,54497,,,,,,,,,,,,,,,,,,,,,,,,,,,,,,,,,,95.0,1.0,,
96,,size_choice,,html-keyboard-response,96,156576,0.0-1.0-126.0,0,0,54497,,895.0,,,68.0,31.0,31.0,1.0,1500.0,S-S,,S,S,1.0,1.0,thread,screws,thread4,screws8,143.0,127.0,/static/Size_judgement/Stimuli/Size_stims/S/thread/thread5.jpg,/static/Size_judgement/Stimuli/Size_stims/S/screws/screws10.jpg,1.0,thread,screws,S,S,1.0,1.0,thread4,screws8,,95.895,0.895,0.0,
97,,size_choice_confirmation,,html-keyboard-response,97,157190,0.0-1.0-127.0-0.0,0,0,54497,,,,,,31.0,,,,,,,,,,,,,,,,,,,,,,,,,,,,96.5,0.605,,
98,,iti,,html-keyboard-response,98,158692,0.0-1.0-128.0,0,0,54497,,,,,,,,,,,,,,,,,,,,,,,,,,,,,,,,,,98.0,1.5,,
99,,size_choice,,html-keyboard-response,99,159426,0.0-1.0-130.0,0,0,54497,,732.0,,,75.0,32.0,32.0,1.0,2000.0,S-XL,0.0,S,XL,1.0,4.0,die,crane,die7,crane8,106.0,167.0,/static/Size_judgement/Stimuli/Size_stims/S/die/die4.jpg,/static/Size_judgement/Stimuli/Size_stims/XL/crane/crane10.jpg,0.0,crane,die,XL,S,4.0,1.0,crane8,die7,1.0,98.732,0.732,0.0,
100,,size_choice_confirmation,,html-keyboard-response,100,160198,0.0-1.0-131.0-0.0,0,0,54497,,,,,,32.0,,,,,,,,,,,,,,,,,,,,,,,,,,,,99.5,0.768,,
101,,iti,,html-keyboard-response,101,162200,0.0-1.0-132.0,0,0,54497,,,,,,,,,,,,,,,,,,,,,,,,,,,,,,,,,,101.5,2.0,,
102,,size_choice,,html-keyboard-response,102,163621,0.0-1.0-134.0,0,0,54497,,1418.0,,,68.0,33.0,33.0,1.0,1000.0,M-M,,M,M,2.0,2.0,hairdryer,handsaw,hairdryer3,handsaw3,72.0,82.0,/static/Size_judgement/Stimuli/Size_stims/M/hairdryer/hairdryer17.jpg,/static/Size_judgement/Stimuli/Size_stims/M/handsaw/handsaw2.jpg,1.0,hairdryer,handsaw,M,M,2.0,2.0,hairdryer3,handsaw3,,102.918,1.418,0.0,
103,,size_choice_confirmation,,html-keyboard-response,103,163708,0.0-1.0-135.0-0.0,0,0,54497,,,,,,33.0,,,,,,,,,,,,,,,,,,,,,,,,,,,,103.0,0.082,,
104,,iti,,html-keyboard-response,104,164710,0.0-1.0-136.0,0,0,54497,,,,,,,,,,,,,,,,,,,,,,,,,,,,,,,,,,104.0,1.0,,
105,,size_choice,,html-keyboard-response,105,165917,0.0-1.0-138.0,0,0,54497,,1204.0,,,75.0,34.0,34.0,1.0,1500.0,L-L,,L,L,3.0,3.0,garbagecan,cooler,garbagecan9,cooler1,38.0,0.0,/static/Size_judgement/Stimuli/Size_stims/L/garbagecan/garbagecan12.jpg,/static/Size_judgement/Stimuli/Size_stims/L/cooler/cooler8.jpg,0.0,cooler,garbagecan,L,L,3.0,3.0,cooler1,garbagecan9,,105.204,1.204,0.0,
106,,size_choice_confirmation,,html-keyboard-response,106,166216,0.0-1.0-139.0-0.0,0,0,54497,,,,,,34.0,,,,,,,,,,,,,,,,,,,,,,,,,,,,105.5,0.296,,
107,,iti,,html-keyboard-response,107,167718,0.0-1.0-140.0,0,0,54497,,,,,,,,,,,,,,,,,,,,,,,,,,,,,,,,,,107.0,1.5,,
108,,size_choice,,html-keyboard-response,108,168463,0.0-1.0-142.0,0,0,54497,,742.0,,,68.0,35.0,35.0,1.0,2000.0,S-L,1.0,L,S,3.0,1.0,cooler,teabag,cooler9,teabag1,8.0,130.0,/static/Size_judgement/Stimuli/Size_stims/L/cooler/cooler7.jpg,/static/Size_judgement/Stimuli/Size_stims/S/teabag/teabag9.jpg,1.0,cooler,teabag,L,S,3.0,1.0,cooler9,teabag1,1.0,107.742,0.742,0.0,
109,,size_choice_confirmation,,html-keyboard-response,109,169224,0.0-1.0-143.0-0.0,0,0,54497,,,,,,35.0,,,,,,,,,,,,,,,,,,,,,,,,,,,,108.5,0.758,,
110,,iti,,html-keyboard-response,110,171228,0.0-1.0-144.0,0,0,54497,,,,,,,,,,,,,,,,,,,,,,,,,,,,,,,,,,110.5,2.0,,
111,,size_choice,,html-keyboard-response,111,171964,0.0-1.0-146.0,0,0,54497,,733.0,,,68.0,36.0,36.0,1.0,3500.0,M-L,1.0,L,M,3.0,2.0,garbagecan,ketchup,garbagecan3,ketchup5,32.0,94.0,/static/Size_judgement/Stimuli/Size_stims/L/garbagecan/garbagecan7.jpg,/static/Size_judgement/Stimuli/Size_stims/M/ketchup/ketchup3.jpg,1.0,garbagecan,ketchup,L,M,3.0,2.0,garbagecan3,ketchup5,1.0,111.233,0.733,0.0,
112,,size_choice_confirmation,,html-keyboard-response,112,172735,0.0-1.0-147.0-0.0,0,0,54497,,,,,,36.0,,,,,,,,,,,,,,,,,,,,,,,,,,,,112.0,0.767,,
113,,iti,,html-keyboard-response,113,176237,0.0-1.0-148.0,0,0,54497,,,,,,,,,,,,,,,,,,,,,,,,,,,,,,,,,,115.5,3.5,,
114,,size_choice,,html-keyboard-response,114,176871,0.0-1.0-150.0,0,0,54497,,632.0,,,68.0,37.0,37.0,1.0,1500.0,M-L,1.0,L,M,3.0,2.0,mailbox,ketchup,mailbox6,ketchup4,45.0,93.0,/static/Size_judgement/Stimuli/Size_stims/L/mailbox/mailbox6.jpg,/static/Size_judgement/Stimuli/Size_stims/M/ketchup/ketchup2.jpg,1.0,mailbox,ketchup,L,M,3.0,2.0,mailbox6,ketchup4,1.0,116.132,0.632,0.0,
115,,size_choice_confirmation,,html-keyboard-response,115,177743,0.0-1.0-151.0-0.0,0,0,54497,,,,,,37.0,,,,,,,,,,,,,,,,,,,,,,,,,,,,117.0,0.868,,
116,,iti,,html-keyboard-response,116,179246,0.0-1.0-152.0,0,0,54497,,,,,,,,,,,,,,,,,,,,,,,,,,,,,,,,,,118.5,1.5,,
117,,size_choice,,html-keyboard-response,117,180250,0.0-1.0-154.0,0,0,54497,,1001.0,,,75.0,38.0,38.0,1.0,1000.0,L-L,,L,L,3.0,3.0,mailbox,garbagecan,mailbox8,garbagecan4,47.0,33.0,/static/Size_judgement/Stimuli/Size_stims/L/mailbox/mailbox10.jpg,/static/Size_judgement/Stimuli/Size_stims/L/garbagecan/garbagecan6.jpg,0.0,garbagecan,mailbox,L,L,3.0,3.0,garbagecan4,mailbox8,,119.501,1.001,0.0,
118,,size_choice_confirmation,,html-keyboard-response,118,180752,0.0-1.0-155.0-0.0,0,0,54497,,,,,,38.0,,,,,,,,,,,,,,,,,,,,,,,,,,,,120.0,0.499,,
119,,iti,,html-keyboard-response,119,181755,0.0-1.0-156.0,0,0,54497,,,,,,,,,,,,,,,,,,,,,,,,,,,,,,,,,,121.0,1.0,,
120,,size_choice,,html-keyboard-response,120,183102,0.0-1.0-158.0,0,0,54497,,1344.0,,,68.0,39.0,39.0,1.0,1000.0,M-M,,M,M,2.0,2.0,basketball,hairdryer,basketball6,hairdryer7,55.0,76.0,/static/Size_judgement/Stimuli/Size_stims/M/basketball/basketball2.jpg,/static/Size_judgement/Stimuli/Size_stims/M/hairdryer/hairdryer3.jpg,1.0,basketball,hairdryer,M,M,2.0,2.0,basketball6,hairdryer7,,122.344,1.344,0.0,
121,,size_choice_confirmation,,html-keyboard-response,121,183261,0.0-1.0-159.0-0.0,0,0,54497,,,,,,39.0,,,,,,,,,,,,,,,,,,,,,,,,,,,,122.5,0.156,,
122,,iti,,html-keyboard-response,122,184263,0.0-1.0-160.0,0,0,54497,,,,,,,,,,,,,,,,,,,,,,,,,,,,,,,,,,123.5,1.0,,
123,,size_choice,,html-keyboard-response,123,184853,0.0-1.0-162.0,0,0,54497,,587.0,,,68.0,40.0,40.0,1.0,3000.0,S-XL,1.0,XL,S,4.0,1.0,crane,thread,crane7,thread5,166.0,144.0,/static/Size_judgement/Stimuli/Size_stims/XL/crane/crane3.jpg,/static/Size_judgement/Stimuli/Size_stims/S/thread/thread1.jpg,1.0,crane,thread,XL,S,4.0,1.0,crane7,thread5,1.0,124.087,0.587,0.0,
124,,size_choice_confirmation,,html-keyboard-response,124,185769,0.0-1.0-163.0-0.0,0,0,54497,,,,,,40.0,,,,,,,,,,,,,,,,,,,,,,,,,,,,125.0,0.913,,
125,,iti,,html-keyboard-response,125,188772,0.0-1.0-164.0,0,0,54497,,,,,,,,,,,,,,,,,,,,,,,,,,,,,,,,,,128.0,3.0,,
126,,size_choice,,html-keyboard-response,126,189397,0.0-1.0-166.0,0,0,54497,,622.0,,,75.0,41.0,41.0,1.0,1000.0,S-XL,0.0,S,XL,1.0,4.0,teabag,tractor,teabag7,tractor7,136.0,186.0,/static/Size_judgement/Stimuli/Size_stims/S/teabag/teabag10.jpg,/static/Size_judgement/Stimuli/Size_stims/XL/tractor/tractor2.jpg,0.0,tractor,teabag,XL,S,4.0,1.0,tractor7,teabag7,1.0,128.622,0.622,0.0,
127,,size_choice_confirmation,,html-keyboard-response,127,190279,0.0-1.0-167.0-0.0,0,0,54497,,,,,,41.0,,,,,,,,,,,,,,,,,,,,,,,,,,,,129.5,0.878,,
128,,iti,,html-keyboard-response,128,191281,0.0-1.0-168.0,0,0,54497,,,,,,,,,,,,,,,,,,,,,,,,,,,,,,,,,,130.5,1.0,,
129,,size_choice,,html-keyboard-response,129,192074,0.0-1.0-170.0,0,0,54497,,790.0,,,75.0,42.0,42.0,1.0,1500.0,L-XL,0.0,L,XL,3.0,4.0,garbagecan,car,garbagecan10,car6,39.0,155.0,/static/Size_judgement/Stimuli/Size_stims/L/garbagecan/garbagecan11.jpg,/static/Size_judgement/Stimuli/Size_stims/XL/car/car12.jpg,0.0,car,garbagecan,XL,L,4.0,3.0,car6,garbagecan10,1.0,131.29,0.79,0.0,
130,,size_choice_confirmation,,html-keyboard-response,130,192788,0.0-1.0-171.0-0.0,0,0,54497,,,,,,42.0,,,,,,,,,,,,,,,,,,,,,,,,,,,,132.0,0.71,,
131,,iti,,html-keyboard-response,131,194290,0.0-1.0-172.0,0,0,54497,,,,,,,,,,,,,,,,,,,,,,,,,,,,,,,,,,133.5,1.5,,
132,,size_choice,,html-keyboard-response,132,195019,0.0-1.0-174.0,0,0,54497,,726.0,,,68.0,43.0,43.0,1.0,3500.0,M-XL,1.0,XL,M,4.0,2.0,car,coffeemaker,car4,coffeemaker9,153.0,68.0,/static/Size_judgement/Stimuli/Size_stims/XL/car/car6.jpg,/static/Size_judgement/Stimuli/Size_stims/M/coffeemaker/coffeemaker7.jpg,1.0,car,coffeemaker,XL,M,4.0,2.0,car4,coffeemaker9,1.0,134.226,0.726,0.0,
133,,size_choice_confirmation,,html-keyboard-response,133,195796,0.0-1.0-175.0-0.0,0,0,54497,,,,,,43.0,,,,,,,,,,,,,,,,,,,,,,,,,,,,135.0,0.774,,
134,,iti,,html-keyboard-response,134,199299,0.0-1.0-176.0,0,0,54497,,,,,,,,,,,,,,,,,,,,,,,,,,,,,,,,,,138.5,3.5,,
135,,size_choice,,html-keyboard-response,135,199978,0.0-1.0-178.0,0,0,54497,,677.0,,,75.0,44.0,44.0,1.0,2000.0,L-XL,0.0,L,XL,3.0,4.0,cooler,car,cooler4,car5,3.0,154.0,/static/Size_judgement/Stimuli/Size_stims/L/cooler/cooler3.jpg,/static/Size_judgement/Stimuli/Size_stims/XL/car/car11.jpg,0.0,car,cooler,XL,L,4.0,3.0,car5,cooler4,1.0,139.177,0.677,0.0,
136,,size_choice_confirmation,,html-keyboard-response,136,200805,0.0-1.0-179.0-0.0,0,0,54497,,,,,,44.0,,,,,,,,,,,,,,,,,,,,,,,,,,,,140.0,0.823,,
137,,iti,,html-keyboard-response,137,202808,0.0-1.0-180.0,0,0,54497,,,,,,,,,,,,,,,,,,,,,,,,,,,,,,,,,,142.0,2.0,,
138,,block_over,,html-keyboard-response,138,205856,0.0-1.0-181.0-0.0,0,0,54497,,3046.0,,,68.0,44.0,,,,,,,,,,,,,,,,,,,,,,,,,,,,,,,
139,,size_choice,,html-keyboard-response,139,206642,0.0-1.0-182.0,0,0,54497,,784.0,,,75.0,45.0,45.0,2.0,3500.0,S-M,0.0,S,M,1.0,2.0,screws,handsaw,screws5,handsaw6,124.0,85.0,/static/Size_judgement/Stimuli/Size_stims/S/screws/screws2.jpg,/static/Size_judgement/Stimuli/Size_stims/M/handsaw/handsaw4.jpg,0.0,handsaw,screws,M,S,2.0,1.0,handsaw6,screws5,1.0,142.784,0.784,0.0,
140,,size_choice_confirmation,,html-keyboard-response,140,207361,0.0-1.0-183.0-0.0,0,0,54497,,,,,,45.0,,,,,,,,,,,,,,,,,,,,,,,,,,,,143.5,0.716,,
141,,iti,,html-keyboard-response,141,210864,0.0-1.0-184.0,0,0,54497,,,,,,,,,,,,,,,,,,,,,,,,,,,,,,,,,,147.0,3.5,,
142,,size_choice,,html-keyboard-response,142,211815,0.0-1.0-186.0,0,0,54497,,949.0,,,68.0,46.0,46.0,2.0,1000.0,S-S,,S,S,1.0,1.0,screws,paperclip,screws9,paperclip6,128.0,115.0,/static/Size_judgement/Stimuli/Size_stims/S/screws/screws8.jpg,/static/Size_judgement/Stimuli/Size_stims/S/paperclip/paperclip6.jpg,1.0,screws,paperclip,S,S,1.0,1.0,screws9,paperclip6,,147.949,0.949,0.0,
143,,size_choice_confirmation,,html-keyboard-response,143,212370,0.0-1.0-187.0-0.0,0,0,54497,,,,,,46.0,,,,,,,,,,,,,,,,,,,,,,,,,,,,148.5,0.551,,
144,,iti,,html-keyboard-response,144,213387,0.0-1.0-188.0,0,0,54497,,,,,,,,,,,,,,,,,,,,,,,,,,,,,,,,,,149.5,1.0,,
145,,size_choice,,html-keyboard-response,145,214074,0.0-1.0-190.0,0,0,54497,,684.0,,,68.0,47.0,47.0,2.0,2000.0,M-XL,1.0,XL,M,4.0,2.0,crane,basketball,crane5,basketball5,164.0,54.0,/static/Size_judgement/Stimuli/Size_stims/XL/crane/crane1.jpg,/static/Size_judgement/Stimuli/Size_stims/M/basketball/basketball3.jpg,1.0,crane,basketball,XL,M,4.0,2.0,crane5,basketball5,1.0,150.184,0.684,0.0,
146,,size_choice_confirmation,,html-keyboard-response,146,214893,0.0-1.0-191.0-0.0,0,0,54497,,,,,,47.0,,,,,,,,,,,,,,,,,,,,,,,,,,,,151.0,0.816,,
147,,iti,,html-keyboard-response,147,216895,0.0-1.0-192.0,0,0,54497,,,,,,,,,,,,,,,,,,,,,,,,,,,,,,,,,,153.0,2.0,,
148,,size_choice,,html-keyboard-response,148,217690,0.0-1.0-194.0,0,0,54497,,792.0,,,75.0,48.0,48.0,2.0,1000.0,M-L,0.0,M,L,2.0,3.0,hairdryer,mailbox,hairdryer6,mailbox10,75.0,49.0,/static/Size_judgement/Stimuli/Size_stims/M/hairdryer/hairdryer8.jpg,/static/Size_judgement/Stimuli/Size_stims/L/mailbox/mailbox8.jpg,0.0,mailbox,hairdryer,L,M,3.0,2.0,mailbox10,hairdryer6,1.0,153.792,0.792,0.0,
149,,size_choice_confirmation,,html-keyboard-response,149,218401,0.0-1.0-195.0-0.0,0,0,54497,,,,,,48.0,,,,,,,,,,,,,,,,,,,,,,,,,,,,154.5,0.708,,
150,,iti,,html-keyboard-response,150,219403,0.0-1.0-196.0,0,0,54497,,,,,,,,,,,,,,,,,,,,,,,,,,,,,,,,,,155.5,1.0,,
151,,size_choice,,html-keyboard-response,151,219906,0.0-1.0-198.0,0,0,54497,,501.0,,,68.0,49.0,49.0,2.0,2000.0,M-XL,1.0,XL,M,4.0,2.0,tractor,coffeemaker,tractor5,coffeemaker1,184.0,60.0,/static/Size_judgement/Stimuli/Size_stims/XL/tractor/tractor1.jpg,/static/Size_judgement/Stimuli/Size_stims/M/coffeemaker/coffeemaker14.jpg,1.0,tractor,coffeemaker,XL,M,4.0,2.0,tractor5,coffeemaker1,1.0,156.001,0.501,0.0,
152,,size_choice_confirmation,,html-keyboard-response,152,220910,0.0-1.0-199.0-0.0,0,0,54497,,,,,,49.0,,,,,,,,,,,,,,,,,,,,,,,,,,,,157.0,0.999,,
153,,iti,,html-keyboard-response,153,222912,0.0-1.0-200.0,0,0,54497,,,,,,,,,,,,,,,,,,,,,,,,,,,,,,,,,,159.0,2.0,,
154,,size_choice,,html-keyboard-response,154,223605,0.0-1.0-202.0,0,0,54497,,690.0,,,68.0,50.0,50.0,2.0,1000.0,S-XL,1.0,XL,S,4.0,1.0,car,teabag,car9,teabag10,158.0,139.0,/static/Size_judgement/Stimuli/Size_stims/XL/car/car15.jpg,/static/Size_judgement/Stimuli/Size_stims/S/teabag/teabag4.jpg,1.0,car,teabag,XL,S,4.0,1.0,car9,teabag10,1.0,159.69,0.69,0.0,
155,,size_choice_confirmation,,html-keyboard-response,155,224418,0.0-1.0-203.0-0.0,0,0,54497,,,,,,50.0,,,,,,,,,,,,,,,,,,,,,,,,,,,,160.5,0.81,,
156,,iti,,html-keyboard-response,156,225421,0.0-1.0-204.0,0,0,54497,,,,,,,,,,,,,,,,,,,,,,,,,,,,,,,,,,161.5,1.0,,
157,,size_choice,,html-keyboard-response,157,226072,0.0-1.0-206.0,0,0,54497,,648.0,,,68.0,51.0,51.0,2.0,1500.0,XL-XL,,XL,XL,4.0,4.0,crane,car,crane10,car8,169.0,157.0,/static/Size_judgement/Stimuli/Size_stims/XL/crane/crane9.jpg,/static/Size_judgement/Stimuli/Size_stims/XL/car/car14.jpg,1.0,crane,car,XL,XL,4.0,4.0,crane10,car8,,162.148,0.648,0.0,
158,,size_choice_confirmation,,html-keyboard-response,158,226928,0.0-1.0-207.0-0.0,0,0,54497,,,,,,51.0,,,,,,,,,,,,,,,,,,,,,,,,,,,,163.0,0.852,,
159,,iti,,html-keyboard-response,159,228431,0.0-1.0-208.0,0,0,54497,,,,,,,,,,,,,,,,,,,,,,,,,,,,,,,,,,164.5,1.5,,
160,,size_choice,,html-keyboard-response,160,229401,0.0-1.0-210.0,0,0,54497,,967.0,,,75.0,52.0,52.0,2.0,1000.0,M-L,0.0,M,L,2.0,3.0,coffeemaker,dishwasher,coffeemaker2,dishwasher3,61.0,22.0,/static/Size_judgement/Stimuli/Size_stims/M/coffeemaker/coffeemaker12.jpg,/static/Size_judgement/Stimuli/Size_stims/L/dishwasher/dishwasher8.jpg,0.0,dishwasher,coffeemaker,L,M,3.0,2.0,dishwasher3,coffeemaker2,1.0,165.467,0.967,0.0,
161,,size_choice_confirmation,,html-keyboard-response,161,229938,0.0-1.0-211.0-0.0,0,0,54497,,,,,,52.0,,,,,,,,,,,,,,,,,,,,,,,,,,,,166.0,0.533,,
162,,iti,,html-keyboard-response,162,230940,0.0-1.0-212.0,0,0,54497,,,,,,,,,,,,,,,,,,,,,,,,,,,,,,,,,,167.0,1.0,,
163,,size_choice,,html-keyboard-response,163,231709,0.0-1.0-214.0,0,0,54497,,767.0,,,68.0,53.0,53.0,2.0,3000.0,S-L,1.0,L,S,3.0,1.0,deskchair,paperclip,deskchair4,paperclip7,13.0,116.0,/static/Size_judgement/Stimuli/Size_stims/L/deskchair/deskchair6.jpg,/static/Size_judgement/Stimuli/Size_stims/S/paperclip/paperclip7.jpg,1.0,deskchair,paperclip,L,S,3.0,1.0,deskchair4,paperclip7,1.0,167.767,0.767,0.0,
164,,size_choice_confirmation,,html-keyboard-response,164,232446,0.0-1.0-215.0-0.0,0,0,54497,,,,,,53.0,,,,,,,,,,,,,,,,,,,,,,,,,,,,168.5,0.733,,
165,,iti,,html-keyboard-response,165,235463,0.0-1.0-216.0,0,0,54497,,,,,,,,,,,,,,,,,,,,,,,,,,,,,,,,,,171.5,3.0,,
166,,size_choice,,html-keyboard-response,166,236328,0.0-1.0-218.0,0,0,54497,,863.0,,,68.0,54.0,54.0,2.0,2000.0,S-S,,S,S,1.0,1.0,screws,paperclip,screws1,paperclip10,120.0,119.0,/static/Size_judgement/Stimuli/Size_stims/S/screws/screws4.jpg,/static/Size_judgement/Stimuli/Size_stims/S/paperclip/paperclip10.jpg,1.0,screws,paperclip,S,S,1.0,1.0,screws1,paperclip10,,172.363,0.863,0.0,
167,,size_choice_confirmation,,html-keyboard-response,167,236969,0.0-1.0-219.0-0.0,0,0,54497,,,,,,54.0,,,,,,,,,,,,,,,,,,,,,,,,,,,,173.0,0.637,,
168,,iti,,html-keyboard-response,168,238971,0.0-1.0-220.0,0,0,54497,,,,,,,,,,,,,,,,,,,,,,,,,,,,,,,,,,175.0,2.0,,
169,,size_choice,,html-keyboard-response,169,239486,0.0-1.0-222.0,0,0,54497,,512.0,,,68.0,55.0,55.0,2.0,1500.0,M-L,1.0,L,M,3.0,2.0,dishwasher,ketchup,dishwasher5,ketchup2,24.0,91.0,/static/Size_judgement/Stimuli/Size_stims/L/dishwasher/dishwasher4.jpg,/static/Size_judgement/Stimuli/Size_stims/M/ketchup/ketchup9.jpg,1.0,dishwasher,ketchup,L,M,3.0,2.0,dishwasher5,ketchup2,1.0,175.512,0.512,0.0,
170,,size_choice_confirmation,,html-keyboard-response,170,240478,0.0-1.0-223.0-0.0,0,0,54497,,,,,,55.0,,,,,,,,,,,,,,,,,,,,,,,,,,,,176.5,0.988,,
171,,iti,,html-keyboard-response,171,241981,0.0-1.0-224.0,0,0,54497,,,,,,,,,,,,,,,,,,,,,,,,,,,,,,,,,,178.0,1.5,,
172,,size_choice,,html-keyboard-response,172,242575,0.0-1.0-226.0,0,0,54497,,590.0,,,75.0,56.0,56.0,2.0,1000.0,M-L,0.0,M,L,2.0,3.0,hairdryer,deskchair,hairdryer5,deskchair3,74.0,12.0,/static/Size_judgement/Stimuli/Size_stims/M/hairdryer/hairdryer15.jpg,/static/Size_judgement/Stimuli/Size_stims/L/deskchair/deskchair10.jpg,0.0,deskchair,hairdryer,L,M,3.0,2.0,deskchair3,hairdryer5,1.0,178.59,0.59,0.0,
173,,size_choice_confirmation,,html-keyboard-response,173,243492,0.0-1.0-227.0-0.0,0,0,54497,,,,,,56.0,,,,,,,,,,,,,,,,,,,,,,,,,,,,179.5,0.91,,
174,,iti,,html-keyboard-response,174,244495,0.0-1.0-228.0,0,0,54497,,,,,,,,,,,,,,,,,,,,,,,,,,,,,,,,,,180.5,1.0,,
175,,size_choice,,html-keyboard-response,175,245196,0.0-1.0-230.0,0,0,54497,,701.0,,,75.0,57.0,57.0,2.0,1000.0,S-XL,0.0,S,XL,1.0,4.0,thread,dumptruck,thread7,dumptruck1,146.0,170.0,/static/Size_judgement/Stimuli/Size_stims/S/thread/thread3.jpg,/static/Size_judgement/Stimuli/Size_stims/XL/dumptruck/dumptruck9.jpg,0.0,dumptruck,thread,XL,S,4.0,1.0,dumptruck1,thread7,1.0,181.201,0.701,0.0,
176,,size_choice_confirmation,,html-keyboard-response,176,246004,0.0-1.0-231.0-0.0,0,0,54497,,,,,,57.0,,,,,,,,,,,,,,,,,,,,,,,,,,,,182.0,0.799,,
177,,iti,,html-keyboard-response,177,247006,0.0-1.0-232.0,0,0,54497,,,,,,,,,,,,,,,,,,,,,,,,,,,,,,,,,,183.0,1.0,,
178,,size_choice,,html-keyboard-response,178,247613,0.0-1.0-234.0,0,0,54497,,604.0,,,75.0,58.0,58.0,2.0,1000.0,S-L,0.0,S,L,1.0,3.0,teabag,dishwasher,teabag9,dishwasher6,138.0,25.0,/static/Size_judgement/Stimuli/Size_stims/S/teabag/teabag5.jpg,/static/Size_judgement/Stimuli/Size_stims/L/dishwasher/dishwasher6.jpg,0.0,dishwasher,teabag,L,S,3.0,1.0,dishwasher6,teabag9,1.0,183.604,0.604,0.0,
179,,size_choice_confirmation,,html-keyboard-response,179,248512,0.0-1.0-235.0-0.0,0,0,54497,,,,,,58.0,,,,,,,,,,,,,,,,,,,,,,,,,,,,184.5,0.896,,
180,,iti,,html-keyboard-response,180,249515,0.0-1.0-236.0,0,0,54497,,,,,,,,,,,,,,,,,,,,,,,,,,,,,,,,,,185.5,1.0,,
181,,size_choice,,html-keyboard-response,181,250595,0.0-1.0-238.0,0,0,54497,,1077.0,,,68.0,59.0,59.0,2.0,1000.0,M-M,,M,M,2.0,2.0,basketball,ketchup,basketball2,ketchup10,51.0,99.0,/static/Size_judgement/Stimuli/Size_stims/M/basketball/basketball8.jpg,/static/Size_judgement/Stimuli/Size_stims/M/ketchup/ketchup6.jpg,1.0,basketball,ketchup,M,M,2.0,2.0,basketball2,ketchup10,,186.577,1.077,0.0,
182,,size_choice_confirmation,,html-keyboard-response,182,251035,0.0-1.0-239.0-0.0,0,0,54497,,,,,,59.0,,,,,,,,,,,,,,,,,,,,,,,,,,,,187.0,0.423,,
183,,iti,,html-keyboard-response,183,252052,0.0-1.0-240.0,0,0,54497,,,,,,,,,,,,,,,,,,,,,,,,,,,,,,,,,,188.0,1.0,,
184,,size_choice,,html-keyboard-response,184,252749,0.0-1.0-242.0,0,0,54497,,695.0,,,75.0,60.0,60.0,2.0,1500.0,M-XL,0.0,M,XL,2.0,4.0,ketchup,dumptruck,ketchup1,dumptruck3,90.0,172.0,/static/Size_judgement/Stimuli/Size_stims/M/ketchup/ketchup8.jpg,/static/Size_judgement/Stimuli/Size_stims/XL/dumptruck/dumptruck10.jpg,0.0,dumptruck,ketchup,XL,M,4.0,2.0,dumptruck3,ketchup1,1.0,188.695,0.695,0.0,
185,,size_choice_confirmation,,html-keyboard-response,185,253559,0.0-1.0-243.0-0.0,0,0,54497,,,,,,60.0,,,,,,,,,,,,,,,,,,,,,,,,,,,,189.5,0.805,,
186,,iti,,html-keyboard-response,186,255061,0.0-1.0-244.0,0,0,54497,,,,,,,,,,,,,,,,,,,,,,,,,,,,,,,,,,191.0,1.5,,
187,,size_choice,,html-keyboard-response,187,255808,0.0-1.0-246.0,0,0,54497,,745.0,,,75.0,61.0,61.0,2.0,1500.0,M-XL,0.0,M,XL,2.0,4.0,basketball,tractor,basketball1,tractor1,50.0,180.0,/static/Size_judgement/Stimuli/Size_stims/M/basketball/basketball9.jpg,/static/Size_judgement/Stimuli/Size_stims/XL/tractor/tractor6.jpg,0.0,tractor,basketball,XL,M,4.0,2.0,tractor1,basketball1,1.0,191.745,0.745,0.0,
188,,size_choice_confirmation,,html-keyboard-response,188,256568,0.0-1.0-247.0-0.0,0,0,54497,,,,,,61.0,,,,,,,,,,,,,,,,,,,,,,,,,,,,192.5,0.755,,
189,,iti,,html-keyboard-response,189,258070,0.0-1.0-248.0,0,0,54497,,,,,,,,,,,,,,,,,,,,,,,,,,,,,,,,,,194.0,1.5,,
190,,size_choice,,html-keyboard-response,190,258736,0.0-1.0-250.0,0,0,54497,,663.0,,,75.0,62.0,62.0,2.0,3000.0,L-XL,0.0,L,XL,3.0,4.0,cooler,van,cooler2,van9,1.0,198.0,/static/Size_judgement/Stimuli/Size_stims/L/cooler/cooler9.jpg,/static/Size_judgement/Stimuli/Size_stims/XL/van/van9.jpg,0.0,van,cooler,XL,L,4.0,3.0,van9,cooler2,1.0,194.663,0.663,0.0,
191,,size_choice_confirmation,,html-keyboard-response,191,259578,0.0-1.0-251.0-0.0,0,0,54497,,,,,,62.0,,,,,,,,,,,,,,,,,,,,,,,,,,,,195.5,0.837,,
192,,iti,,html-keyboard-response,192,262580,0.0-1.0-252.0,0,0,54497,,,,,,,,,,,,,,,,,,,,,,,,,,,,,,,,,,198.5,3.0,,
193,,size_choice,,html-keyboard-response,193,263129,0.0-1.0-254.0,0,0,54497,,546.0,,,75.0,63.0,63.0,2.0,3500.0,S-L,0.0,S,L,1.0,3.0,thread,dishwasher,thread2,dishwasher7,141.0,26.0,/static/Size_judgement/Stimuli/Size_stims/S/thread/thread6.jpg,/static/Size_judgement/Stimuli/Size_stims/L/dishwasher/dishwasher7.jpg,0.0,dishwasher,thread,L,S,3.0,1.0,dishwasher7,thread2,1.0,199.046,0.546,0.0,
194,,size_choice_confirmation,,html-keyboard-response,194,264088,0.0-1.0-255.0-0.0,0,0,54497,,,,,,63.0,,,,,,,,,,,,,,,,,,,,,,,,,,,,200.0,0.954,,
195,,iti,,html-keyboard-response,195,267590,0.0-1.0-256.0,0,0,54497,,,,,,,,,,,,,,,,,,,,,,,,,,,,,,,,,,203.5,3.5,,
196,,size_choice,,html-keyboard-response,196,268093,0.0-1.0-258.0,0,0,54497,,500.0,,,75.0,64.0,64.0,2.0,1500.0,M-L,0.0,M,L,2.0,3.0,handsaw,cooler,handsaw8,cooler7,87.0,6.0,/static/Size_judgement/Stimuli/Size_stims/M/handsaw/handsaw7.jpg,/static/Size_judgement/Stimuli/Size_stims/L/cooler/cooler4.jpg,0.0,cooler,handsaw,L,M,3.0,2.0,cooler7,handsaw8,1.0,204.0,0.5,0.0,
197,,size_choice_confirmation,,html-keyboard-response,197,269097,0.0-1.0-259.0-0.0,0,0,54497,,,,,,64.0,,,,,,,,,,,,,,,,,,,,,,,,,,,,205.0,1.0,,
198,,iti,,html-keyboard-response,198,270599,0.0-1.0-260.0,0,0,54497,,,,,,,,,,,,,,,,,,,,,,,,,,,,,,,,,,206.5,1.5,,
199,,size_choice,,html-keyboard-response,199,271474,0.0-1.0-262.0,0,0,54497,,872.0,,,75.0,65.0,65.0,2.0,2000.0,M-L,0.0,M,L,2.0,3.0,handsaw,mailbox,handsaw5,mailbox1,84.0,40.0,/static/Size_judgement/Stimuli/Size_stims/M/handsaw/handsaw1.jpg,/static/Size_judgement/Stimuli/Size_stims/L/mailbox/mailbox3.jpg,0.0,mailbox,handsaw,L,M,3.0,2.0,mailbox1,handsaw5,1.0,207.372,0.872,0.0,
200,,size_choice_confirmation,,html-keyboard-response,200,272105,0.0-1.0-263.0-0.0,0,0,54497,,,,,,65.0,,,,,,,,,,,,,,,,,,,,,,,,,,,,208.0,0.628,,
201,,iti,,html-keyboard-response,201,274108,0.0-1.0-264.0,0,0,54497,,,,,,,,,,,,,,,,,,,,,,,,,,,,,,,,,,210.0,2.0,,
202,,size_choice,,html-keyboard-response,202,274665,0.0-1.0-266.0,0,0,54497,,555.0,,,68.0,66.0,66.0,2.0,1000.0,M-XL,1.0,XL,M,4.0,2.0,car,ketchup,car10,ketchup8,159.0,97.0,/static/Size_judgement/Stimuli/Size_stims/XL/car/car9.jpg,/static/Size_judgement/Stimuli/Size_stims/M/ketchup/ketchup5.jpg,1.0,car,ketchup,XL,M,4.0,2.0,car10,ketchup8,1.0,210.555,0.555,0.0,
203,,size_choice_confirmation,,html-keyboard-response,203,275614,0.0-1.0-267.0-0.0,0,0,54497,,,,,,66.0,,,,,,,,,,,,,,,,,,,,,,,,,,,,211.5,0.945,,
204,,iti,,html-keyboard-response,204,276615,0.0-1.0-268.0,0,0,54497,,,,,,,,,,,,,,,,,,,,,,,,,,,,,,,,,,212.5,1.0,,
205,,size_choice,,html-keyboard-response,205,277261,0.0-1.0-270.0,0,0,54497,,644.0,,,68.0,67.0,67.0,2.0,1000.0,S-L,1.0,L,S,3.0,1.0,deskchair,thread,deskchair6,thread3,15.0,142.0,/static/Size_judgement/Stimuli/Size_stims/L/deskchair/deskchair5.jpg,/static/Size_judgement/Stimuli/Size_stims/S/thread/thread4.jpg,1.0,deskchair,thread,L,S,3.0,1.0,deskchair6,thread3,1.0,213.144,0.644,0.0,
206,,size_choice_confirmation,,html-keyboard-response,206,278121,0.0-1.0-271.0-0.0,0,0,54497,,,,,,67.0,,,,,,,,,,,,,,,,,,,,,,,,,,,,214.0,0.856,,
207,,iti,,html-keyboard-response,207,279123,0.0-1.0-272.0,0,0,54497,,,,,,,,,,,,,,,,,,,,,,,,,,,,,,,,,,215.0,1.0,,
208,,size_choice,,html-keyboard-response,208,279715,0.0-1.0-274.0,0,0,54497,,590.0,,,75.0,68.0,68.0,2.0,2000.0,S-XL,0.0,S,XL,1.0,4.0,screws,dumptruck,screws3,dumptruck4,122.0,173.0,/static/Size_judgement/Stimuli/Size_stims/S/screws/screws7.jpg,/static/Size_judgement/Stimuli/Size_stims/XL/dumptruck/dumptruck1.jpg,0.0,dumptruck,screws,XL,S,4.0,1.0,dumptruck4,screws3,1.0,215.59,0.59,0.0,
209,,size_choice_confirmation,,html-keyboard-response,209,280629,0.0-1.0-275.0-0.0,0,0,54497,,,,,,68.0,,,,,,,,,,,,,,,,,,,,,,,,,,,,216.5,0.91,,
210,,iti,,html-keyboard-response,210,282631,0.0-1.0-276.0,0,0,54497,,,,,,,,,,,,,,,,,,,,,,,,,,,,,,,,,,218.5,2.0,,
211,,size_choice,,html-keyboard-response,211,283470,0.0-1.0-278.0,0,0,54497,,837.0,,,75.0,69.0,69.0,2.0,3000.0,S-XL,0.0,S,XL,1.0,4.0,paperclip,dumptruck,paperclip8,dumptruck7,117.0,176.0,/static/Size_judgement/Stimuli/Size_stims/S/paperclip/paperclip5.jpg,/static/Size_judgement/Stimuli/Size_stims/XL/dumptruck/dumptruck6.jpg,0.0,dumptruck,paperclip,XL,S,4.0,1.0,dumptruck7,paperclip8,1.0,219.337,0.837,0.0,
212,,size_choice_confirmation,,html-keyboard-response,212,284138,0.0-1.0-279.0-0.0,0,0,54497,,,,,,69.0,,,,,,,,,,,,,,,,,,,,,,,,,,,,220.0,0.663,,
213,,iti,,html-keyboard-response,213,287146,0.0-1.0-280.0,0,0,54497,,,,,,,,,,,,,,,,,,,,,,,,,,,,,,,,,,223.0,3.0,,
214,,size_choice,,html-keyboard-response,214,287691,0.0-1.0-282.0,0,0,54497,,541.0,,,75.0,70.0,70.0,2.0,1500.0,S-L,0.0,S,L,1.0,3.0,die,deskchair,die1,deskchair8,100.0,17.0,/static/Size_judgement/Stimuli/Size_stims/S/die/die8.jpg,/static/Size_judgement/Stimuli/Size_stims/L/deskchair/deskchair1.jpg,0.0,deskchair,die,L,S,3.0,1.0,deskchair8,die1,1.0,223.541,0.541,0.0,
215,,size_choice_confirmation,,html-keyboard-response,215,288655,0.0-1.0-283.0-0.0,0,0,54497,,,,,,70.0,,,,,,,,,,,,,,,,,,,,,,,,,,,,224.5,0.959,,
216,,iti,,html-keyboard-response,216,290158,0.0-1.0-284.0,0,0,54497,,,,,,,,,,,,,,,,,,,,,,,,,,,,,,,,,,226.0,1.5,,
217,,size_choice,,html-keyboard-response,217,290742,0.0-1.0-286.0,0,0,54497,,581.0,,,68.0,71.0,71.0,2.0,1500.0,XL-XL,,XL,XL,4.0,4.0,tractor,van,tractor3,van8,182.0,197.0,/static/Size_judgement/Stimuli/Size_stims/XL/tractor/tractor5.jpg,/static/Size_judgement/Stimuli/Size_stims/XL/van/van10.jpg,1.0,tractor,van,XL,XL,4.0,4.0,tractor3,van8,,226.581,0.581,0.0,
218,,size_choice_confirmation,,html-keyboard-response,218,291665,0.0-1.0-287.0-0.0,0,0,54497,,,,,,71.0,,,,,,,,,,,,,,,,,,,,,,,,,,,,227.5,0.919,,
219,,iti,,html-keyboard-response,219,293168,0.0-1.0-288.0,0,0,54497,,,,,,,,,,,,,,,,,,,,,,,,,,,,,,,,,,229.0,1.5,,
220,,size_choice,,html-keyboard-response,220,293806,0.0-1.0-290.0,0,0,54497,,635.0,,,75.0,72.0,72.0,2.0,1500.0,S-XL,0.0,S,XL,1.0,4.0,paperclip,dumptruck,paperclip4,dumptruck5,113.0,174.0,/static/Size_judgement/Stimuli/Size_stims/S/paperclip/paperclip3.jpg,/static/Size_judgement/Stimuli/Size_stims/XL/dumptruck/dumptruck3.jpg,0.0,dumptruck,paperclip,XL,S,4.0,1.0,dumptruck5,paperclip4,1.0,229.635,0.635,0.0,
221,,size_choice_confirmation,,html-keyboard-response,221,294676,0.0-1.0-291.0-0.0,0,0,54497,,,,,,72.0,,,,,,,,,,,,,,,,,,,,,,,,,,,,230.5,0.865,,
222,,iti,,html-keyboard-response,222,296178,0.0-1.0-292.0,0,0,54497,,,,,,,,,,,,,,,,,,,,,,,,,,,,,,,,,,232.0,1.5,,
223,,size_choice,,html-keyboard-response,223,296886,0.0-1.0-294.0,0,0,54497,,704.0,,,75.0,73.0,73.0,2.0,3000.0,M-L,0.0,M,L,2.0,3.0,coffeemaker,dishwasher,coffeemaker6,dishwasher4,65.0,23.0,/static/Size_judgement/Stimuli/Size_stims/M/coffeemaker/coffeemaker8.jpg,/static/Size_judgement/Stimuli/Size_stims/L/dishwasher/dishwasher5.jpg,0.0,dishwasher,coffeemaker,L,M,3.0,2.0,dishwasher4,coffeemaker6,1.0,232.704,0.704,0.0,
224,,size_choice_confirmation,,html-keyboard-response,224,297692,0.0-1.0-295.0-0.0,0,0,54497,,,,,,73.0,,,,,,,,,,,,,,,,,,,,,,,,,,,,233.5,0.796,,
225,,iti,,html-keyboard-response,225,300695,0.0-1.0-296.0,0,0,54497,,,,,,,,,,,,,,,,,,,,,,,,,,,,,,,,,,236.5,3.0,,
226,,size_choice,,html-keyboard-response,226,301240,0.0-1.0-298.0,0,0,54497,,542.0,,,68.0,74.0,74.0,2.0,1500.0,S-XL,1.0,XL,S,4.0,1.0,car,die,car1,die9,150.0,108.0,/static/Size_judgement/Stimuli/Size_stims/XL/car/car2.jpg,/static/Size_judgement/Stimuli/Size_stims/S/die/die7.jpg,1.0,car,die,XL,S,4.0,1.0,car1,die9,1.0,237.042,0.542,0.0,
227,,size_choice_confirmation,,html-keyboard-response,227,302201,0.0-1.0-299.0-0.0,0,0,54497,,,,,,74.0,,,,,,,,,,,,,,,,,,,,,,,,,,,,238.0,0.958,,
228,,iti,,html-keyboard-response,228,303703,0.0-1.0-300.0,0,0,54497,,,,,,,,,,,,,,,,,,,,,,,,,,,,,,,,,,239.5,1.5,,
229,,size_choice,,html-keyboard-response,229,304369,0.0-1.0-302.0,0,0,54497,,662.0,,,68.0,75.0,75.0,2.0,1500.0,M-XL,1.0,XL,M,4.0,2.0,crane,handsaw,crane1,handsaw10,160.0,89.0,/static/Size_judgement/Stimuli/Size_stims/XL/crane/crane7.jpg,/static/Size_judgement/Stimuli/Size_stims/M/handsaw/handsaw10.jpg,1.0,crane,handsaw,XL,M,4.0,2.0,crane1,handsaw10,1.0,240.162,0.662,0.0,
230,,size_choice_confirmation,,html-keyboard-response,230,305211,0.0-1.0-303.0-0.0,0,0,54497,,,,,,75.0,,,,,,,,,,,,,,,,,,,,,,,,,,,,241.0,0.838,,
231,,iti,,html-keyboard-response,231,306713,0.0-1.0-304.0,0,0,54497,,,,,,,,,,,,,,,,,,,,,,,,,,,,,,,,,,242.5,1.5,,
232,,size_choice,,html-keyboard-response,232,307253,0.0-1.0-306.0,0,0,54497,,537.0,,,68.0,76.0,76.0,2.0,1500.0,S-XL,1.0,XL,S,4.0,1.0,tractor,screws,tractor2,screws6,181.0,125.0,/static/Size_judgement/Stimuli/Size_stims/XL/tractor/tractor7.jpg,/static/Size_judgement/Stimuli/Size_stims/S/screws/screws3.jpg,1.0,tractor,screws,XL,S,4.0,1.0,tractor2,screws6,1.0,243.037,0.537,0.0,
233,,size_choice_confirmation,,html-keyboard-response,233,308220,0.0-1.0-307.0-0.0,0,0,54497,,,,,,76.0,,,,,,,,,,,,,,,,,,,,,,,,,,,,244.0,0.963,,
234,,iti,,html-keyboard-response,234,309722,0.0-1.0-308.0,0,0,54497,,,,,,,,,,,,,,,,,,,,,,,,,,,,,,,,,,245.5,1.5,,
235,,size_choice,,html-keyboard-response,235,310537,0.0-1.0-310.0,0,0,54497,,813.0,,,75.0,77.0,77.0,2.0,2000.0,M-L,0.0,M,L,2.0,3.0,coffeemaker,deskchair,coffeemaker4,deskchair5,63.0,14.0,/static/Size_judgement/Stimuli/Size_stims/M/coffeemaker/coffeemaker11.jpg,/static/Size_judgement/Stimuli/Size_stims/L/deskchair/deskchair7.jpg,0.0,deskchair,coffeemaker,L,M,3.0,2.0,deskchair5,coffeemaker4,1.0,246.313,0.813,0.0,
236,,size_choice_confirmation,,html-keyboard-response,236,311228,0.0-1.0-311.0-0.0,0,0,54497,,,,,,77.0,,,,,,,,,,,,,,,,,,,,,,,,,,,,247.0,0.687,,
237,,iti,,html-keyboard-response,237,313230,0.0-1.0-312.0,0,0,54497,,,,,,,,,,,,,,,,,,,,,,,,,,,,,,,,,,249.0,2.0,,
238,,size_choice,,html-keyboard-response,238,313875,0.0-1.0-314.0,0,0,54497,,643.0,,,68.0,78.0,78.0,2.0,1500.0,M-XL,1.0,XL,M,4.0,2.0,dumptruck,coffeemaker,dumptruck10,coffeemaker10,179.0,69.0,/static/Size_judgement/Stimuli/Size_stims/XL/dumptruck/dumptruck4.jpg,/static/Size_judgement/Stimuli/Size_stims/M/coffeemaker/coffeemaker18.jpg,1.0,dumptruck,coffeemaker,XL,M,4.0,2.0,dumptruck10,coffeemaker10,1.0,249.643,0.643,0.0,
239,,size_choice_confirmation,,html-keyboard-response,239,314734,0.0-1.0-315.0-0.0,0,0,54497,,,,,,78.0,,,,,,,,,,,,,,,,,,,,,,,,,,,,250.5,0.857,,
240,,iti,,html-keyboard-response,240,316238,0.0-1.0-316.0,0,0,54497,,,,,,,,,,,,,,,,,,,,,,,,,,,,,,,,,,252.0,1.5,,
241,,size_choice,,html-keyboard-response,241,316965,0.0-1.0-318.0,0,0,54497,,724.0,,,68.0,79.0,79.0,2.0,1000.0,L-L,,L,L,3.0,3.0,mailbox,cooler,mailbox4,cooler6,43.0,5.0,/static/Size_judgement/Stimuli/Size_stims/L/mailbox/mailbox5.jpg,/static/Size_judgement/Stimuli/Size_stims/L/cooler/cooler1.jpg,1.0,mailbox,cooler,L,L,3.0,3.0,mailbox4,cooler6,,252.724,0.724,0.0,
242,,size_choice_confirmation,,html-keyboard-response,242,317743,0.0-1.0-319.0-0.0,0,0,54497,,,,,,79.0,,,,,,,,,,,,,,,,,,,,,,,,,,,,253.5,0.776,,
243,,iti,,html-keyboard-response,243,318746,0.0-1.0-320.0,0,0,54497,,,,,,,,,,,,,,,,,,,,,,,,,,,,,,,,,,254.5,1.0,,
244,,size_choice,,html-keyboard-response,244,319473,0.0-1.0-322.0,0,0,54497,,725.0,,,75.0,80.0,80.0,2.0,1000.0,S-M,0.0,S,M,1.0,2.0,die,basketball,die3,basketball3,102.0,52.0,/static/Size_judgement/Stimuli/Size_stims/S/die/die10.jpg,/static/Size_judgement/Stimuli/Size_stims/M/basketball/basketball10.jpg,0.0,basketball,die,M,S,2.0,1.0,basketball3,die3,1.0,255.225,0.725,0.0,
245,,size_choice_confirmation,,html-keyboard-response,245,320252,0.0-1.0-323.0-0.0,0,0,54497,,,,,,80.0,,,,,,,,,,,,,,,,,,,,,,,,,,,,256.0,0.775,,
246,,iti,,html-keyboard-response,246,321255,0.0-1.0-324.0,0,0,54497,,,,,,,,,,,,,,,,,,,,,,,,,,,,,,,,,,257.0,1.0,,
247,,size_choice,,html-keyboard-response,247,321883,0.0-1.0-326.0,0,0,54497,,625.0,,,75.0,81.0,81.0,2.0,2000.0,S-L,0.0,S,L,1.0,3.0,thread,garbagecan,thread9,garbagecan7,148.0,36.0,/static/Size_judgement/Stimuli/Size_stims/S/thread/thread8.jpg,/static/Size_judgement/Stimuli/Size_stims/L/garbagecan/garbagecan16.jpg,0.0,garbagecan,thread,L,S,3.0,1.0,garbagecan7,thread9,1.0,257.625,0.625,0.0,
248,,size_choice_confirmation,,html-keyboard-response,248,322762,0.0-1.0-327.0-0.0,0,0,54497,,,,,,81.0,,,,,,,,,,,,,,,,,,,,,,,,,,,,258.5,0.875,,
249,,iti,,html-keyboard-response,249,324764,0.0-1.0-328.0,0,0,54497,,,,,,,,,,,,,,,,,,,,,,,,,,,,,,,,,,260.5,2.0,,
250,,size_choice,,html-keyboard-response,250,325303,0.0-1.0-330.0,0,0,54497,,536.0,,,68.0,82.0,82.0,2.0,2000.0,M-XL,1.0,XL,M,4.0,2.0,tractor,basketball,tractor8,basketball8,187.0,57.0,/static/Size_judgement/Stimuli/Size_stims/XL/tractor/tractor10.jpg,/static/Size_judgement/Stimuli/Size_stims/M/basketball/basketball7.jpg,1.0,tractor,basketball,XL,M,4.0,2.0,tractor8,basketball8,1.0,261.036,0.536,0.0,
251,,size_choice_confirmation,,html-keyboard-response,251,326271,0.0-1.0-331.0-0.0,0,0,54497,,,,,,82.0,,,,,,,,,,,,,,,,,,,,,,,,,,,,262.0,0.964,,
252,,iti,,html-keyboard-response,252,328273,0.0-1.0-332.0,0,0,54497,,,,,,,,,,,,,,,,,,,,,,,,,,,,,,,,,,264.0,2.0,,
253,,size_choice,,html-keyboard-response,253,328802,0.0-1.0-334.0,0,0,54497,,527.0,,,75.0,83.0,83.0,2.0,1000.0,S-XL,0.0,S,XL,1.0,4.0,screws,van,screws2,van3,121.0,192.0,/static/Size_judgement/Stimuli/Size_stims/S/screws/screws5.jpg,/static/Size_judgement/Stimuli/Size_stims/XL/van/van6.jpg,0.0,van,screws,XL,S,4.0,1.0,van3,screws2,1.0,264.527,0.527,0.0,
254,,size_choice_confirmation,,html-keyboard-response,254,329779,0.0-1.0-335.0-0.0,0,0,54497,,,,,,83.0,,,,,,,,,,,,,,,,,,,,,,,,,,,,265.5,0.973,,
255,,iti,,html-keyboard-response,255,330782,0.0-1.0-336.0,0,0,54497,,,,,,,,,,,,,,,,,,,,,,,,,,,,,,,,,,266.5,1.0,,
256,,size_choice,,html-keyboard-response,256,331387,0.0-1.0-338.0,0,0,54497,,602.0,,,75.0,84.0,84.0,2.0,1000.0,L-L,,L,L,3.0,3.0,cooler,dishwasher,cooler3,dishwasher9,2.0,28.0,/static/Size_judgement/Stimuli/Size_stims/L/cooler/cooler2.jpg,/static/Size_judgement/Stimuli/Size_stims/L/dishwasher/dishwasher2.jpg,0.0,dishwasher,cooler,L,L,3.0,3.0,dishwasher9,cooler3,,267.102,0.602,0.0,
257,,size_choice_confirmation,,html-keyboard-response,257,332289,0.0-1.0-339.0-0.0,0,0,54497,,,,,,84.0,,,,,,,,,,,,,,,,,,,,,,,,,,,,268.0,0.898,,
258,,iti,,html-keyboard-response,258,333297,0.0-1.0-340.0,0,0,54497,,,,,,,,,,,,,,,,,,,,,,,,,,,,,,,,,,269.0,1.0,,
259,,size_choice,,html-keyboard-response,259,334201,0.0-1.0-342.0,0,0,54497,,902.0,,,68.0,85.0,85.0,2.0,1000.0,M-M,,M,M,2.0,2.0,hairdryer,handsaw,hairdryer10,handsaw2,79.0,81.0,/static/Size_judgement/Stimuli/Size_stims/M/hairdryer/hairdryer6.jpg,/static/Size_judgement/Stimuli/Size_stims/M/handsaw/handsaw9.jpg,1.0,hairdryer,handsaw,M,M,2.0,2.0,hairdryer10,handsaw2,,269.902,0.902,0.0,
260,,size_choice_confirmation,,html-keyboard-response,260,334802,0.0-1.0-343.0-0.0,0,0,54497,,,,,,85.0,,,,,,,,,,,,,,,,,,,,,,,,,,,,270.5,0.598,,
261,,iti,,html-keyboard-response,261,335804,0.0-1.0-344.0,0,0,54497,,,,,,,,,,,,,,,,,,,,,,,,,,,,,,,,,,271.5,1.0,,
262,,size_choice,,html-keyboard-response,262,336483,0.0-1.0-346.0,0,0,54497,,676.0,,,75.0,86.0,86.0,2.0,1000.0,L-XL,0.0,L,XL,3.0,4.0,garbagecan,crane,garbagecan6,crane2,35.0,161.0,/static/Size_judgement/Stimuli/Size_stims/L/garbagecan/garbagecan14.jpg,/static/Size_judgement/Stimuli/Size_stims/XL/crane/crane6.jpg,0.0,crane,garbagecan,XL,L,4.0,3.0,crane2,garbagecan6,1.0,272.176,0.676,0.0,
263,,size_choice_confirmation,,html-keyboard-response,263,337310,0.0-1.0-347.0-0.0,0,0,54497,,,,,,86.0,,,,,,,,,,,,,,,,,,,,,,,,,,,,273.0,0.824,,
264,,iti,,html-keyboard-response,264,338313,0.0-1.0-348.0,0,0,54497,,,,,,,,,,,,,,,,,,,,,,,,,,,,,,,,,,274.0,1.0,,
265,,size_choice,,html-keyboard-response,265,339526,0.0-1.0-350.0,0,0,54497,,1210.0,,,75.0,87.0,87.0,2.0,1000.0,XL-XL,,XL,XL,4.0,4.0,car,tractor,car2,tractor10,151.0,189.0,/static/Size_judgement/Stimuli/Size_stims/XL/car/car3.jpg,/static/Size_judgement/Stimuli/Size_stims/XL/tractor/tractor8.jpg,0.0,tractor,car,XL,XL,4.0,4.0,tractor10,car2,,275.21,1.21,0.0,
266,,size_choice_confirmation,,html-keyboard-response,266,339819,0.0-1.0-351.0-0.0,0,0,54497,,,,,,87.0,,,,,,,,,,,,,,,,,,,,,,,,,,,,275.5,0.29,,
267,,iti,,html-keyboard-response,267,340822,0.0-1.0-352.0,0,0,54497,,,,,,,,,,,,,,,,,,,,,,,,,,,,,,,,,,276.5,1.0,,
268,,size_choice,,html-keyboard-response,268,341543,0.0-1.0-354.0,0,0,54497,,719.0,,,68.0,88.0,88.0,2.0,1000.0,S-L,1.0,L,S,3.0,1.0,deskchair,screws,deskchair7,screws10,16.0,129.0,/static/Size_judgement/Stimuli/Size_stims/L/deskchair/deskchair4.jpg,/static/Size_judgement/Stimuli/Size_stims/S/screws/screws9.jpg,1.0,deskchair,screws,L,S,3.0,1.0,deskchair7,screws10,1.0,277.219,0.719,0.0,
269,,size_choice_confirmation,,html-keyboard-response,269,342329,0.0-1.0-355.0-0.0,0,0,54497,,,,,,88.0,,,,,,,,,,,,,,,,,,,,,,,,,,,,278.0,0.781,,
270,,iti,,html-keyboard-response,270,343331,0.0-1.0-356.0,0,0,54497,,,,,,,,,,,,,,,,,,,,,,,,,,,,,,,,,,279.0,1.0,,
271,,size_choice,,html-keyboard-response,271,343960,0.0-1.0-358.0,0,0,54497,,627.0,,,68.0,89.0,89.0,2.0,3500.0,S-L,1.0,L,S,3.0,1.0,garbagecan,teabag,garbagecan1,teabag4,30.0,133.0,/static/Size_judgement/Stimuli/Size_stims/L/garbagecan/garbagecan4.jpg,/static/Size_judgement/Stimuli/Size_stims/S/teabag/teabag3.jpg,1.0,garbagecan,teabag,L,S,3.0,1.0,garbagecan1,teabag4,1.0,279.627,0.627,0.0,
272,,size_choice_confirmation,,html-keyboard-response,272,344837,0.0-1.0-359.0-0.0,0,0,54497,,,,,,89.0,,,,,,,,,,,,,,,,,,,,,,,,,,,,280.5,0.873,,
273,,iti,,html-keyboard-response,273,348340,0.0-1.0-360.0,0,0,54497,,,,,,,,,,,,,,,,,,,,,,,,,,,,,,,,,,284.0,3.5,,1.0
274,,size_final_tally,,html-keyboard-response,274,349945,0.0-2.0,0,0,54497,,1601.0,,,68.0,,,,,,,,,,,,,,,,,,,,,,,,,,,,,,,,
275,,debreif_intro,,html-keyboard-response,275,355445,0.0-3.0,0,0,54497,,5479.0,,,68.0,,,,,,,,,,,,,,,,,,,,,,,,,,,,,,,,
276,,debreif_age,,survey-text,276,359373,0.0-4.0,0,0,54497,,3926.0,"{""Q0"":""30""}",,,,,,,,,,,,,,,,,,,,,,,,,,,,,,,,,,
277,,debreif_gender,,survey-multi-choice,277,362210,0.0-5.0,0,0,54497,,2835.0,"{""Q0"":""Female""}",,,,,,,,,,,,,,,,,,,,,,,,,,,,,,,,,,
278,,debreif_dominant_hand,,survey-multi-choice,278,364073,0.0-6.0,0,0,54497,,1861.0,"{""Q0"":""Left""}",,,,,,,,,,,,,,,,,,,,,,,,,,,,,,,,,,
279,,debreif_native_language,,survey-multi-choice,279,365678,0.0-7.0,0,0,54497,,1604.0,"{""Q0"":""Yes""}",,,,,,,,,,,,,,,,,,,,,,,,,,,,,,,,,,
280,,debreif_fluency,,survey-likert,280,369637,0.0-8.0,0,0,54497,,3957.0,"{""Q0"":5}",,,,,,,,,,,,,,,,,,,,,,,,,,,,,,,,,,
281,,debreif_strategy_category_learning,,survey-text,281,492548,0.0-9.0,0,0,54497,,122909.0,"{""Q0"":""I started by picking the objects that stuck out the most so if they were worth $0 or $1 they would be easier to remember to avoid or choose. Then I tried to find a pattern between the objects and how much they were worth and choose those the most.""}",,,,,,,,,,,,,,,,,,,,,,,,,,,,,,,,,,
282,,debreif_strategy_old_trials,,survey-text,282,602672,0.0-10.0,0,0,54497,,110123.0,"{""Q0"":""If I didn't know how much they were worth, I chose the ones that stuck out the most so I would have a chance of remembering them for the next time. If I knew what both were worth, I chose the one I thought I remembered being worth more.""}",,,,,,,,,,,,,,,,,,,,,,,,,,,,,,,,,,
283,,debreif_strategy_category_memory,,survey-text,283,673710,0.0-11.0,0,0,54497,,71037.0,"{""Q0"":""I made the estimations based on the amounts I had seen and what I could remember. I probably didn't do great at it, but I did try and pick an amount I thought was roughly what each category was worth.""}",,,,,,,,,,,,,,,,,,,,,,,,,,,,,,,,,,
284,,debreif_strategy_size,,survey-text,284,737929,0.0-12.0,0,0,54497,,64218.0,"{""Q0"":""Some were very obvious, like the paper clip versus a vehicle. The more difficult ones, I chose based off my best guess and personal experience seeing those objects.""}",,,,,,,,,,,,,,,,,,,,,,,,,,,,,,,,,,
285,,debreif_strategy_rl,,survey-text,285,805657,0.0-13.0,0,0,54497,,67727.0,"{""Q0"":""I began by seeing what each ball would show amounts-wise, and when I found the two I tried to always stick with them because I at least had a good idea of what the minimum amount would be for each one. ""}",,,,,,,,,,,,,,,,,,,,,,,,,,,,,,,,,,
286,,debreif_clear_instructions,,survey-text,286,819965,0.0-14.0,0,0,54497,,14307.0,"{""Q0"":""No, everything was easy to read and understand.""}",,,,,,,,,,,,,,,,,,,,,,,,,,,,,,,,,,
287,,debreif_end,,html-keyboard-response,287,831010,0.0-15.0,0,0,54497,,11043.0,,,32.0,,,,,,,,,,,,,,,,,,,,,,,,,,,,,,,,
