,success,ttype,start_time,trial_type,trial_index,time_elapsed,internal_node_id,warning,missed_checkup,PID,view_history,rt,responses,repeat_instructions,key_press,index,trial_num,block,iti,pair_type,high_size_on_left,left_size_group,right_size_group,left_size_num,right_size_num,left_category,right_category,left_exemplar,right_exemplar,left_index,right_index,left_img_path,right_img_path,left_chosen,chosen_category,unchosen_category,chosen_size_group,unchosen_size_group,chosen_size_num,unchosen_size_num,chosen_exemplar,unchosen_exemplar,accuracy,onset,duration,no_response,size_final_tally
0,True,full_screen,d06012022hr2308,fullscreen,0,4025,0.0-0.0,0,0,97341,,,,,,,,,,,,,,,,,,,,,,,,,,,,,,,,,,,,,
1,,size_instructions,,instructions,1,7680,0.0-1.0-0.0-0.0,0,0,97341,"[{""page_index"":0,""viewing_time"":1306},{""page_index"":1,""viewing_time"":223},{""page_index"":2,""viewing_time"":181},{""page_index"":3,""viewing_time"":1236},{""page_index"":4,""viewing_time"":407},{""page_index"":5,""viewing_time"":301}]",3654.0,,,,,,,,,,,,,,,,,,,,,,,,,,,,,,,,,,,
2,,size_comprehension_check,,survey-multi-choice,2,13255,0.0-1.0-0.0-1.0,0,0,97341,,5573.0,"{""Q0"":""True"",""Q1"":""Size in the real world"",""Q2"":""True"",""Q3"":""D for left and K for right""}",0.0,,,,,,,,,,,,,,,,,,,,,,,,,,,,,,,,,
3,,,,html-keyboard-response,3,14392,0.0-1.0-1.0,0,0,97341,,1134.0,,,68.0,,,,,,,,,,,,,,,,,,,,,,,,,,,,,,,,
4,,size_choice,,html-keyboard-response,4,15677,0.0-1.0-2.0,0,0,97341,,1284.0,,,68.0,0.0,0.0,1.0,1500.0,S-M,1.0,M,S,2.0,1.0,hairdryer,paperclip,hairdryer8,paperclip1,77.0,110.0,/static/Size_judgement/Stimuli/Size_stims/M/hairdryer/hairdryer1.jpg,/static/Size_judgement/Stimuli/Size_stims/S/paperclip/paperclip9.jpg,1.0,hairdryer,paperclip,M,S,2.0,1.0,hairdryer8,paperclip1,1.0,1.284,1.284,0.0,
5,,size_choice_confirmation,,html-keyboard-response,5,15897,0.0-1.0-3.0-0.0,0,0,97341,,,,,,0.0,,,,,,,,,,,,,,,,,,,,,,,,,,,,1.5,0.216,,
6,,iti,,html-keyboard-response,6,15999,0.0-1.0-4.0,0,0,97341,,,,,,,,,,,,,,,,,,,,,,,,,,,,,,,,,,3.0,1.5,,
7,,size_choice,,html-keyboard-response,7,16369,0.0-1.0-6.0,0,0,97341,,369.0,,,75.0,1.0,1.0,1.0,1000.0,S-XL,0.0,S,XL,1.0,4.0,die,van,die5,van5,104.0,194.0,/static/Size_judgement/Stimuli/Size_stims/S/die/die3.jpg,/static/Size_judgement/Stimuli/Size_stims/XL/van/van3.jpg,0.0,van,die,XL,S,4.0,1.0,van5,die5,1.0,3.369,0.369,0.0,
8,,size_choice_confirmation,,html-keyboard-response,8,17507,0.0-1.0-7.0-0.0,0,0,97341,,,,,,1.0,,,,,,,,,,,,,,,,,,,,,,,,,,,,4.5,1.131,,
9,,iti,,html-keyboard-response,9,17612,0.0-1.0-8.0,0,0,97341,,,,,,,,,,,,,,,,,,,,,,,,,,,,,,,,,,5.5,1.0,,
10,,size_choice,,html-keyboard-response,10,17807,0.0-1.0-10.0,0,0,97341,,194.0,,,75.0,2.0,2.0,1.0,1000.0,S-L,1.0,L,S,3.0,1.0,dishwasher,thread,dishwasher8,thread1,27.0,140.0,/static/Size_judgement/Stimuli/Size_stims/L/dishwasher/dishwasher3.jpg,/static/Size_judgement/Stimuli/Size_stims/S/thread/thread7.jpg,0.0,thread,dishwasher,S,L,1.0,3.0,thread1,dishwasher8,0.0,5.694,0.194,0.0,
11,,size_choice_confirmation,,html-keyboard-response,11,19116,0.0-1.0-11.0-0.0,0,0,97341,,,,,,2.0,,,,,,,,,,,,,,,,,,,,,,,,,,,,7.0,1.306,,
12,,iti,,html-keyboard-response,12,19219,0.0-1.0-12.0,0,0,97341,,,,,,,,,,,,,,,,,,,,,,,,,,,,,,,,,,8.0,1.0,,
13,,size_choice,,html-keyboard-response,13,19263,0.0-1.0-14.0,0,0,97341,,43.0,,,68.0,3.0,3.0,1.0,1500.0,M-XL,1.0,XL,M,4.0,2.0,van,basketball,van4,basketball9,193.0,58.0,/static/Size_judgement/Stimuli/Size_stims/XL/van/van7.jpg,/static/Size_judgement/Stimuli/Size_stims/M/basketball/basketball5.jpg,1.0,van,basketball,XL,M,4.0,2.0,van4,basketball9,1.0,8.043,0.043,0.0,
14,,size_choice_confirmation,,html-keyboard-response,14,20724,0.0-1.0-15.0-0.0,0,0,97341,,,,,,3.0,,,,,,,,,,,,,,,,,,,,,,,,,,,,9.5,1.457,,
15,,iti,,html-keyboard-response,15,20827,0.0-1.0-16.0,0,0,97341,,,,,,,,,,,,,,,,,,,,,,,,,,,,,,,,,,11.0,1.5,,
16,,size_choice,,html-keyboard-response,16,20876,0.0-1.0-18.0,0,0,97341,,48.0,,,75.0,4.0,4.0,1.0,1500.0,M-XL,1.0,XL,M,4.0,2.0,crane,handsaw,crane4,handsaw4,163.0,83.0,/static/Size_judgement/Stimuli/Size_stims/XL/crane/crane5.jpg,/static/Size_judgement/Stimuli/Size_stims/M/handsaw/handsaw3.jpg,0.0,handsaw,crane,M,XL,2.0,4.0,handsaw4,crane4,0.0,11.048,0.048,0.0,
17,,size_choice_confirmation,,html-keyboard-response,17,22332,0.0-1.0-19.0-0.0,0,0,97341,,,,,,4.0,,,,,,,,,,,,,,,,,,,,,,,,,,,,12.5,1.452,,
18,,iti,,html-keyboard-response,18,22435,0.0-1.0-20.0,0,0,97341,,,,,,,,,,,,,,,,,,,,,,,,,,,,,,,,,,14.0,1.5,,
19,,size_choice,,html-keyboard-response,19,23941,0.0-1.0-22.0,0,0,97341,,,,,,5.0,5.0,1.0,1000.0,M-L,1.0,L,M,3.0,2.0,deskchair,handsaw,deskchair9,handsaw9,18.0,88.0,/static/Size_judgement/Stimuli/Size_stims/L/deskchair/deskchair3.jpg,/static/Size_judgement/Stimuli/Size_stims/M/handsaw/handsaw6.jpg,,,,,,,,,,,15.5,1.5,1.0,
20,,iti,,html-keyboard-response,20,24046,0.0-1.0-24.0,0,0,97341,,,,,,,,,,,,,,,,,,,,,,,,,,,,,,,,,,16.5,1.0,,
21,,size_choice,,html-keyboard-response,21,25548,0.0-1.0-26.0,0,0,97341,,,,,,6.0,6.0,1.0,1500.0,M-L,0.0,M,L,2.0,3.0,coffeemaker,mailbox,coffeemaker7,mailbox7,66.0,46.0,/static/Size_judgement/Stimuli/Size_stims/M/coffeemaker/coffeemaker9.jpg,/static/Size_judgement/Stimuli/Size_stims/L/mailbox/mailbox7.jpg,,,,,,,,,,,18.0,1.5,1.0,
22,,iti,,html-keyboard-response,22,25653,0.0-1.0-28.0,0,0,97341,,,,,,,,,,,,,,,,,,,,,,,,,,,,,,,,,,19.5,1.5,,
23,,size_choice,,html-keyboard-response,23,27158,0.0-1.0-30.0,0,0,97341,,,,,,7.0,7.0,1.0,1500.0,M-L,1.0,L,M,3.0,2.0,deskchair,ketchup,deskchair10,ketchup3,19.0,92.0,/static/Size_judgement/Stimuli/Size_stims/L/deskchair/deskchair2.jpg,/static/Size_judgement/Stimuli/Size_stims/M/ketchup/ketchup10.jpg,,,,,,,,,,,21.0,1.5,1.0,
24,,iti,,html-keyboard-response,24,27263,0.0-1.0-32.0,0,0,97341,,,,,,,,,,,,,,,,,,,,,,,,,,,,,,,,,,22.5,1.5,,
25,,size_choice,,html-keyboard-response,25,28769,0.0-1.0-34.0,0,0,97341,,,,,,8.0,8.0,1.0,2000.0,S-L,1.0,L,S,3.0,1.0,cooler,paperclip,cooler8,paperclip3,7.0,112.0,/static/Size_judgement/Stimuli/Size_stims/L/cooler/cooler5.jpg,/static/Size_judgement/Stimuli/Size_stims/S/paperclip/paperclip1.jpg,,,,,,,,,,,24.0,1.5,1.0,
26,,iti,,html-keyboard-response,26,28875,0.0-1.0-36.0,0,0,97341,,,,,,,,,,,,,,,,,,,,,,,,,,,,,,,,,,26.0,2.0,,
27,,size_choice,,html-keyboard-response,27,30381,0.0-1.0-38.0,0,0,97341,,,,,,9.0,9.0,1.0,1500.0,M-L,0.0,M,L,2.0,3.0,basketball,garbagecan,basketball10,garbagecan5,59.0,34.0,/static/Size_judgement/Stimuli/Size_stims/M/basketball/basketball4.jpg,/static/Size_judgement/Stimuli/Size_stims/L/garbagecan/garbagecan3.jpg,,,,,,,,,,,27.5,1.5,1.0,
28,,iti,,html-keyboard-response,28,30484,0.0-1.0-40.0,0,0,97341,,,,,,,,,,,,,,,,,,,,,,,,,,,,,,,,,,29.0,1.5,,
29,,size_choice,,html-keyboard-response,29,31988,0.0-1.0-42.0,0,0,97341,,,,,,10.0,10.0,1.0,2000.0,S-L,1.0,L,S,3.0,1.0,dishwasher,teabag,dishwasher1,teabag5,20.0,134.0,/static/Size_judgement/Stimuli/Size_stims/L/dishwasher/dishwasher10.jpg,/static/Size_judgement/Stimuli/Size_stims/S/teabag/teabag2.jpg,,,,,,,,,,,30.5,1.5,1.0,
30,,iti,,html-keyboard-response,30,32091,0.0-1.0-44.0,0,0,97341,,,,,,,,,,,,,,,,,,,,,,,,,,,,,,,,,,32.5,2.0,,
31,,size_choice,,html-keyboard-response,31,33597,0.0-1.0-46.0,0,0,97341,,,,,,11.0,11.0,1.0,1000.0,S-S,,S,S,1.0,1.0,thread,die,thread10,die4,149.0,103.0,/static/Size_judgement/Stimuli/Size_stims/S/thread/thread9.jpg,/static/Size_judgement/Stimuli/Size_stims/S/die/die2.jpg,,,,,,,,,,,34.0,1.5,1.0,
32,,iti,,html-keyboard-response,32,33700,0.0-1.0-48.0,0,0,97341,,,,,,,,,,,,,,,,,,,,,,,,,,,,,,,,,,35.0,1.0,,
33,,size_choice,,html-keyboard-response,33,35204,0.0-1.0-50.0,0,0,97341,,,,,,12.0,12.0,1.0,1000.0,S-XL,0.0,S,XL,1.0,4.0,teabag,crane,teabag6,crane6,135.0,165.0,/static/Size_judgement/Stimuli/Size_stims/S/teabag/teabag6.jpg,/static/Size_judgement/Stimuli/Size_stims/XL/crane/crane2.jpg,,,,,,,,,,,36.5,1.5,1.0,
34,,iti,,html-keyboard-response,34,35308,0.0-1.0-52.0,0,0,97341,,,,,,,,,,,,,,,,,,,,,,,,,,,,,,,,,,37.5,1.0,,
35,,size_choice,,html-keyboard-response,35,36814,0.0-1.0-54.0,0,0,97341,,,,,,13.0,13.0,1.0,1500.0,S-M,0.0,S,M,1.0,2.0,paperclip,ketchup,paperclip2,ketchup7,111.0,96.0,/static/Size_judgement/Stimuli/Size_stims/S/paperclip/paperclip8.jpg,/static/Size_judgement/Stimuli/Size_stims/M/ketchup/ketchup4.jpg,,,,,,,,,,,39.0,1.5,1.0,
36,,iti,,html-keyboard-response,36,36917,0.0-1.0-56.0,0,0,97341,,,,,,,,,,,,,,,,,,,,,,,,,,,,,,,,,,40.5,1.5,,
37,,size_choice,,html-keyboard-response,37,38422,0.0-1.0-58.0,0,0,97341,,,,,,14.0,14.0,1.0,2000.0,S-L,0.0,S,L,1.0,3.0,thread,garbagecan,thread6,garbagecan8,145.0,37.0,/static/Size_judgement/Stimuli/Size_stims/S/thread/thread2.jpg,/static/Size_judgement/Stimuli/Size_stims/L/garbagecan/garbagecan13.jpg,,,,,,,,,,,42.0,1.5,1.0,
38,,iti,,html-keyboard-response,38,38527,0.0-1.0-60.0,0,0,97341,,,,,,,,,,,,,,,,,,,,,,,,,,,,,,,,,,44.0,2.0,,
39,,size_choice,,html-keyboard-response,39,40030,0.0-1.0-62.0,0,0,97341,,,,,,15.0,15.0,1.0,1000.0,S-L,0.0,S,L,1.0,3.0,screws,dishwasher,screws4,dishwasher2,123.0,21.0,/static/Size_judgement/Stimuli/Size_stims/S/screws/screws6.jpg,/static/Size_judgement/Stimuli/Size_stims/L/dishwasher/dishwasher9.jpg,,,,,,,,,,,45.5,1.5,1.0,
40,,iti,,html-keyboard-response,40,40132,0.0-1.0-64.0,0,0,97341,,,,,,,,,,,,,,,,,,,,,,,,,,,,,,,,,,46.5,1.0,,
41,,size_choice,,html-keyboard-response,41,41636,0.0-1.0-66.0,0,0,97341,,,,,,16.0,16.0,1.0,3000.0,XL-XL,,XL,XL,4.0,4.0,dumptruck,crane,dumptruck9,crane9,178.0,168.0,/static/Size_judgement/Stimuli/Size_stims/XL/dumptruck/dumptruck5.jpg,/static/Size_judgement/Stimuli/Size_stims/XL/crane/crane8.jpg,,,,,,,,,,,48.0,1.5,1.0,
42,,iti,,html-keyboard-response,42,41742,0.0-1.0-68.0,0,0,97341,,,,,,,,,,,,,,,,,,,,,,,,,,,,,,,,,,51.0,3.0,,
43,,size_choice,,html-keyboard-response,43,43247,0.0-1.0-70.0,0,0,97341,,,,,,17.0,17.0,1.0,1000.0,L-L,,L,L,3.0,3.0,deskchair,mailbox,deskchair2,mailbox5,11.0,44.0,/static/Size_judgement/Stimuli/Size_stims/L/deskchair/deskchair8.jpg,/static/Size_judgement/Stimuli/Size_stims/L/mailbox/mailbox4.jpg,,,,,,,,,,,52.5,1.5,1.0,
44,,iti,,html-keyboard-response,44,43348,0.0-1.0-72.0,0,0,97341,,,,,,,,,,,,,,,,,,,,,,,,,,,,,,,,,,53.5,1.0,,
45,,size_choice,,html-keyboard-response,45,43592,0.0-1.0-74.0,0,0,97341,,243.0,,,75.0,18.0,18.0,1.0,3000.0,M-XL,1.0,XL,M,4.0,2.0,van,coffeemaker,van2,coffeemaker8,191.0,67.0,/static/Size_judgement/Stimuli/Size_stims/XL/van/van4.jpg,/static/Size_judgement/Stimuli/Size_stims/M/coffeemaker/coffeemaker5.jpg,0.0,coffeemaker,van,M,XL,2.0,4.0,coffeemaker8,van2,0.0,53.743,0.243,0.0,
46,,size_choice_confirmation,,html-keyboard-response,46,44852,0.0-1.0-75.0-0.0,0,0,97341,,,,,,18.0,,,,,,,,,,,,,,,,,,,,,,,,,,,,55.0,1.257,,
47,,iti,,html-keyboard-response,47,44954,0.0-1.0-76.0,0,0,97341,,,,,,,,,,,,,,,,,,,,,,,,,,,,,,,,,,58.0,3.0,,
48,,size_choice,,html-keyboard-response,48,45266,0.0-1.0-78.0,0,0,97341,,311.0,,,75.0,19.0,19.0,1.0,1000.0,M-XL,1.0,XL,M,4.0,2.0,tractor,handsaw,tractor6,handsaw1,185.0,80.0,/static/Size_judgement/Stimuli/Size_stims/XL/tractor/tractor3.jpg,/static/Size_judgement/Stimuli/Size_stims/M/handsaw/handsaw8.jpg,0.0,handsaw,tractor,M,XL,2.0,4.0,handsaw1,tractor6,0.0,58.311,0.311,0.0,
49,,size_choice_confirmation,,html-keyboard-response,49,46458,0.0-1.0-79.0-0.0,0,0,97341,,,,,,19.0,,,,,,,,,,,,,,,,,,,,,,,,,,,,59.5,1.189,,
50,,iti,,html-keyboard-response,50,46560,0.0-1.0-80.0,0,0,97341,,,,,,,,,,,,,,,,,,,,,,,,,,,,,,,,,,60.5,1.0,,
51,,size_choice,,html-keyboard-response,51,47091,0.0-1.0-82.0,0,0,97341,,529.0,,,75.0,20.0,20.0,1.0,1000.0,M-XL,0.0,M,XL,2.0,4.0,hairdryer,van,hairdryer9,van1,78.0,190.0,/static/Size_judgement/Stimuli/Size_stims/M/hairdryer/hairdryer5.jpg,/static/Size_judgement/Stimuli/Size_stims/XL/van/van5.jpg,0.0,van,hairdryer,XL,M,4.0,2.0,van1,hairdryer9,1.0,61.029,0.529,0.0,
52,,size_choice_confirmation,,html-keyboard-response,52,48068,0.0-1.0-83.0-0.0,0,0,97341,,,,,,20.0,,,,,,,,,,,,,,,,,,,,,,,,,,,,62.0,0.971,,
53,,iti,,html-keyboard-response,53,48169,0.0-1.0-84.0,0,0,97341,,,,,,,,,,,,,,,,,,,,,,,,,,,,,,,,,,63.0,1.0,,
54,,size_choice,,html-keyboard-response,54,49675,0.0-1.0-86.0,0,0,97341,,,,,,21.0,21.0,1.0,1000.0,S-M,0.0,S,M,1.0,2.0,die,hairdryer,die6,hairdryer4,105.0,73.0,/static/Size_judgement/Stimuli/Size_stims/S/die/die1.jpg,/static/Size_judgement/Stimuli/Size_stims/M/hairdryer/hairdryer16.jpg,,,,,,,,,,,64.5,1.5,1.0,
55,,iti,,html-keyboard-response,55,49781,0.0-1.0-88.0,0,0,97341,,,,,,,,,,,,,,,,,,,,,,,,,,,,,,,,,,65.5,1.0,,
56,,size_choice,,html-keyboard-response,56,49831,0.0-1.0-90.0,0,0,97341,,49.0,,,75.0,22.0,22.0,1.0,1000.0,S-L,1.0,L,S,3.0,1.0,mailbox,teabag,mailbox3,teabag8,42.0,137.0,/static/Size_judgement/Stimuli/Size_stims/L/mailbox/mailbox1.jpg,/static/Size_judgement/Stimuli/Size_stims/S/teabag/teabag7.jpg,0.0,teabag,mailbox,S,L,1.0,3.0,teabag8,mailbox3,0.0,65.549,0.049,0.0,
57,,size_choice_confirmation,,html-keyboard-response,57,51284,0.0-1.0-91.0-0.0,0,0,97341,,,,,,22.0,,,,,,,,,,,,,,,,,,,,,,,,,,,,67.0,1.451,,
58,,iti,,html-keyboard-response,58,51388,0.0-1.0-92.0,0,0,97341,,,,,,,,,,,,,,,,,,,,,,,,,,,,,,,,,,68.0,1.0,,
59,,size_choice,,html-keyboard-response,59,52412,0.0-1.0-94.0,0,0,97341,,1023.0,,,75.0,23.0,23.0,1.0,1500.0,M-XL,1.0,XL,M,4.0,2.0,tractor,basketball,tractor4,basketball4,183.0,53.0,/static/Size_judgement/Stimuli/Size_stims/XL/tractor/tractor4.jpg,/static/Size_judgement/Stimuli/Size_stims/M/basketball/basketball1.jpg,0.0,basketball,tractor,M,XL,2.0,4.0,basketball4,tractor4,0.0,69.023,1.023,0.0,
60,,size_choice_confirmation,,html-keyboard-response,60,52895,0.0-1.0-95.0-0.0,0,0,97341,,,,,,23.0,,,,,,,,,,,,,,,,,,,,,,,,,,,,69.5,0.477,,
61,,iti,,html-keyboard-response,61,52996,0.0-1.0-96.0,0,0,97341,,,,,,,,,,,,,,,,,,,,,,,,,,,,,,,,,,71.0,1.5,,
62,,size_choice,,html-keyboard-response,62,53387,0.0-1.0-98.0,0,0,97341,,389.0,,,75.0,24.0,24.0,1.0,2000.0,S-XL,1.0,XL,S,4.0,1.0,dumptruck,die,dumptruck6,die8,175.0,107.0,/static/Size_judgement/Stimuli/Size_stims/XL/dumptruck/dumptruck2.jpg,/static/Size_judgement/Stimuli/Size_stims/S/die/die5.jpg,0.0,die,dumptruck,S,XL,1.0,4.0,die8,dumptruck6,0.0,71.389,0.389,0.0,
63,,size_choice_confirmation,,html-keyboard-response,63,54502,0.0-1.0-99.0-0.0,0,0,97341,,,,,,24.0,,,,,,,,,,,,,,,,,,,,,,,,,,,,72.5,1.111,,
64,,iti,,html-keyboard-response,64,54603,0.0-1.0-100.0,0,0,97341,,,,,,,,,,,,,,,,,,,,,,,,,,,,,,,,,,74.5,2.0,,
65,,size_choice,,html-keyboard-response,65,55730,0.0-1.0-102.0,0,0,97341,,1126.0,,,75.0,25.0,25.0,1.0,1000.0,S-XL,1.0,XL,S,4.0,1.0,van,die,van10,die10,199.0,109.0,/static/Size_judgement/Stimuli/Size_stims/XL/van/van8.jpg,/static/Size_judgement/Stimuli/Size_stims/S/die/die6.jpg,0.0,die,van,S,XL,1.0,4.0,die10,van10,0.0,75.626,1.126,0.0,
66,,size_choice_confirmation,,html-keyboard-response,66,56108,0.0-1.0-103.0-0.0,0,0,97341,,,,,,25.0,,,,,,,,,,,,,,,,,,,,,,,,,,,,76.0,0.374,,
67,,iti,,html-keyboard-response,67,56213,0.0-1.0-104.0,0,0,97341,,,,,,,,,,,,,,,,,,,,,,,,,,,,,,,,,,77.0,1.0,,
68,,size_choice,,html-keyboard-response,68,56672,0.0-1.0-106.0,0,0,97341,,458.0,,,75.0,26.0,26.0,1.0,2000.0,M-M,,M,M,2.0,2.0,coffeemaker,hairdryer,coffeemaker5,hairdryer1,64.0,70.0,/static/Size_judgement/Stimuli/Size_stims/M/coffeemaker/coffeemaker10.jpg,/static/Size_judgement/Stimuli/Size_stims/M/hairdryer/hairdryer11.jpg,0.0,hairdryer,coffeemaker,M,M,2.0,2.0,hairdryer1,coffeemaker5,,77.458,0.458,0.0,
69,,size_choice_confirmation,,html-keyboard-response,69,57716,0.0-1.0-107.0-0.0,0,0,97341,,,,,,26.0,,,,,,,,,,,,,,,,,,,,,,,,,,,,78.5,1.042,,
70,,iti,,html-keyboard-response,70,57818,0.0-1.0-108.0,0,0,97341,,,,,,,,,,,,,,,,,,,,,,,,,,,,,,,,,,80.5,2.0,,
71,,size_choice,,html-keyboard-response,71,59322,0.0-1.0-110.0,0,0,97341,,,,,,27.0,27.0,1.0,3000.0,XL-XL,,XL,XL,4.0,4.0,car,dumptruck,car7,dumptruck2,156.0,171.0,/static/Size_judgement/Stimuli/Size_stims/XL/car/car13.jpg,/static/Size_judgement/Stimuli/Size_stims/XL/dumptruck/dumptruck8.jpg,,,,,,,,,,,82.0,1.5,1.0,
72,,iti,,html-keyboard-response,72,59425,0.0-1.0-112.0,0,0,97341,,,,,,,,,,,,,,,,,,,,,,,,,,,,,,,,,,85.0,3.0,,
73,,size_choice,,html-keyboard-response,73,59612,0.0-1.0-114.0,0,0,97341,,186.0,,,75.0,28.0,28.0,1.0,1000.0,M-L,1.0,L,M,3.0,2.0,mailbox,ketchup,mailbox2,ketchup6,41.0,95.0,/static/Size_judgement/Stimuli/Size_stims/L/mailbox/mailbox2.jpg,/static/Size_judgement/Stimuli/Size_stims/M/ketchup/ketchup1.jpg,0.0,ketchup,mailbox,M,L,2.0,3.0,ketchup6,mailbox2,0.0,85.186,0.186,0.0,
74,,size_choice_confirmation,,html-keyboard-response,74,60929,0.0-1.0-115.0-0.0,0,0,97341,,,,,,28.0,,,,,,,,,,,,,,,,,,,,,,,,,,,,86.5,1.314,,
75,,iti,,html-keyboard-response,75,61034,0.0-1.0-116.0,0,0,97341,,,,,,,,,,,,,,,,,,,,,,,,,,,,,,,,,,87.5,1.0,,
76,,size_choice,,html-keyboard-response,76,61479,0.0-1.0-118.0,0,0,97341,,444.0,,,75.0,29.0,29.0,1.0,3500.0,L-XL,1.0,XL,L,4.0,3.0,van,cooler,van7,cooler5,196.0,4.0,/static/Size_judgement/Stimuli/Size_stims/XL/van/van1.jpg,/static/Size_judgement/Stimuli/Size_stims/L/cooler/cooler10.jpg,0.0,cooler,van,L,XL,3.0,4.0,cooler5,van7,0.0,87.944,0.444,0.0,
77,,size_choice_confirmation,,html-keyboard-response,77,62537,0.0-1.0-119.0-0.0,0,0,97341,,,,,,29.0,,,,,,,,,,,,,,,,,,,,,,,,,,,,89.0,1.056,,
78,,iti,,html-keyboard-response,78,62638,0.0-1.0-120.0,0,0,97341,,,,,,,,,,,,,,,,,,,,,,,,,,,,,,,,,,92.5,3.5,,
79,,size_choice,,html-keyboard-response,79,63746,0.0-1.0-122.0,0,0,97341,,1107.0,,,75.0,30.0,30.0,1.0,1000.0,S-S,,S,S,1.0,1.0,paperclip,teabag,paperclip9,teabag2,118.0,131.0,/static/Size_judgement/Stimuli/Size_stims/S/paperclip/paperclip4.jpg,/static/Size_judgement/Stimuli/Size_stims/S/teabag/teabag8.jpg,0.0,teabag,paperclip,S,S,1.0,1.0,teabag2,paperclip9,,93.607,1.107,0.0,
80,,size_choice_confirmation,,html-keyboard-response,80,64143,0.0-1.0-123.0-0.0,0,0,97341,,,,,,30.0,,,,,,,,,,,,,,,,,,,,,,,,,,,,94.0,0.393,,
81,,iti,,html-keyboard-response,81,64247,0.0-1.0-124.0,0,0,97341,,,,,,,,,,,,,,,,,,,,,,,,,,,,,,,,,,95.0,1.0,,
82,,size_choice,,html-keyboard-response,82,64746,0.0-1.0-126.0,0,0,97341,,498.0,,,75.0,31.0,31.0,1.0,1500.0,S-S,,S,S,1.0,1.0,thread,screws,thread4,screws8,143.0,127.0,/static/Size_judgement/Stimuli/Size_stims/S/thread/thread5.jpg,/static/Size_judgement/Stimuli/Size_stims/S/screws/screws10.jpg,0.0,screws,thread,S,S,1.0,1.0,screws8,thread4,,95.498,0.498,0.0,
83,,size_choice_confirmation,,html-keyboard-response,83,65754,0.0-1.0-127.0-0.0,0,0,97341,,,,,,31.0,,,,,,,,,,,,,,,,,,,,,,,,,,,,96.5,1.002,,
84,,iti,,html-keyboard-response,84,65855,0.0-1.0-128.0,0,0,97341,,,,,,,,,,,,,,,,,,,,,,,,,,,,,,,,,,98.0,1.5,,
85,,size_choice,,html-keyboard-response,85,67189,0.0-1.0-130.0,0,0,97341,,1333.0,,,75.0,32.0,32.0,1.0,2000.0,S-XL,0.0,S,XL,1.0,4.0,die,crane,die7,crane8,106.0,167.0,/static/Size_judgement/Stimuli/Size_stims/S/die/die4.jpg,/static/Size_judgement/Stimuli/Size_stims/XL/crane/crane10.jpg,0.0,crane,die,XL,S,4.0,1.0,crane8,die7,1.0,99.333,1.333,0.0,
86,,size_choice_confirmation,,html-keyboard-response,86,67359,0.0-1.0-131.0-0.0,0,0,97341,,,,,,32.0,,,,,,,,,,,,,,,,,,,,,,,,,,,,99.5,0.167,,
87,,iti,,html-keyboard-response,87,67460,0.0-1.0-132.0,0,0,97341,,,,,,,,,,,,,,,,,,,,,,,,,,,,,,,,,,101.5,2.0,,
88,,size_choice,,html-keyboard-response,88,68320,0.0-1.0-134.0,0,0,97341,,859.0,,,75.0,33.0,33.0,1.0,1000.0,M-M,,M,M,2.0,2.0,hairdryer,handsaw,hairdryer3,handsaw3,72.0,82.0,/static/Size_judgement/Stimuli/Size_stims/M/hairdryer/hairdryer17.jpg,/static/Size_judgement/Stimuli/Size_stims/M/handsaw/handsaw2.jpg,0.0,handsaw,hairdryer,M,M,2.0,2.0,handsaw3,hairdryer3,,102.359,0.859,0.0,
89,,size_choice_confirmation,,html-keyboard-response,89,68962,0.0-1.0-135.0-0.0,0,0,97341,,,,,,33.0,,,,,,,,,,,,,,,,,,,,,,,,,,,,103.0,0.641,,
90,,iti,,html-keyboard-response,90,69064,0.0-1.0-136.0,0,0,97341,,,,,,,,,,,,,,,,,,,,,,,,,,,,,,,,,,104.0,1.0,,
91,,size_choice,,html-keyboard-response,91,70567,0.0-1.0-138.0,0,0,97341,,,,,,34.0,34.0,1.0,1500.0,L-L,,L,L,3.0,3.0,garbagecan,cooler,garbagecan9,cooler1,38.0,0.0,/static/Size_judgement/Stimuli/Size_stims/L/garbagecan/garbagecan12.jpg,/static/Size_judgement/Stimuli/Size_stims/L/cooler/cooler8.jpg,,,,,,,,,,,105.5,1.5,1.0,
92,,iti,,html-keyboard-response,92,70671,0.0-1.0-140.0,0,0,97341,,,,,,,,,,,,,,,,,,,,,,,,,,,,,,,,,,107.0,1.5,,
93,,size_choice,,html-keyboard-response,93,72175,0.0-1.0-142.0,0,0,97341,,,,,,35.0,35.0,1.0,2000.0,S-L,1.0,L,S,3.0,1.0,cooler,teabag,cooler9,teabag1,8.0,130.0,/static/Size_judgement/Stimuli/Size_stims/L/cooler/cooler7.jpg,/static/Size_judgement/Stimuli/Size_stims/S/teabag/teabag9.jpg,,,,,,,,,,,108.5,1.5,1.0,
94,,iti,,html-keyboard-response,94,72281,0.0-1.0-144.0,0,0,97341,,,,,,,,,,,,,,,,,,,,,,,,,,,,,,,,,,110.5,2.0,,
95,,size_choice,,html-keyboard-response,95,73786,0.0-1.0-146.0,0,0,97341,,,,,,36.0,36.0,1.0,3500.0,M-L,1.0,L,M,3.0,2.0,garbagecan,ketchup,garbagecan3,ketchup5,32.0,94.0,/static/Size_judgement/Stimuli/Size_stims/L/garbagecan/garbagecan7.jpg,/static/Size_judgement/Stimuli/Size_stims/M/ketchup/ketchup3.jpg,,,,,,,,,,,112.0,1.5,1.0,
96,,iti,,html-keyboard-response,96,73890,0.0-1.0-148.0,0,0,97341,,,,,,,,,,,,,,,,,,,,,,,,,,,,,,,,,,115.5,3.5,,
97,,size_choice,,html-keyboard-response,97,75397,0.0-1.0-150.0,0,0,97341,,,,,,37.0,37.0,1.0,1500.0,M-L,1.0,L,M,3.0,2.0,mailbox,ketchup,mailbox6,ketchup4,45.0,93.0,/static/Size_judgement/Stimuli/Size_stims/L/mailbox/mailbox6.jpg,/static/Size_judgement/Stimuli/Size_stims/M/ketchup/ketchup2.jpg,,,,,,,,,,,117.0,1.5,1.0,
98,,iti,,html-keyboard-response,98,75502,0.0-1.0-152.0,0,0,97341,,,,,,,,,,,,,,,,,,,,,,,,,,,,,,,,,,118.5,1.5,,
99,,size_choice,,html-keyboard-response,99,77009,0.0-1.0-154.0,0,0,97341,,,,,,38.0,38.0,1.0,1000.0,L-L,,L,L,3.0,3.0,mailbox,garbagecan,mailbox8,garbagecan4,47.0,33.0,/static/Size_judgement/Stimuli/Size_stims/L/mailbox/mailbox10.jpg,/static/Size_judgement/Stimuli/Size_stims/L/garbagecan/garbagecan6.jpg,,,,,,,,,,,120.0,1.5,1.0,
100,,iti,,html-keyboard-response,100,77114,0.0-1.0-156.0,0,0,97341,,,,,,,,,,,,,,,,,,,,,,,,,,,,,,,,,,121.0,1.0,,
101,,size_choice,,html-keyboard-response,101,78618,0.0-1.0-158.0,0,0,97341,,,,,,39.0,39.0,1.0,1000.0,M-M,,M,M,2.0,2.0,basketball,hairdryer,basketball6,hairdryer7,55.0,76.0,/static/Size_judgement/Stimuli/Size_stims/M/basketball/basketball2.jpg,/static/Size_judgement/Stimuli/Size_stims/M/hairdryer/hairdryer3.jpg,,,,,,,,,,,122.5,1.5,1.0,
102,,iti,,html-keyboard-response,102,78720,0.0-1.0-160.0,0,0,97341,,,,,,,,,,,,,,,,,,,,,,,,,,,,,,,,,,123.5,1.0,,
103,,size_choice,,html-keyboard-response,103,80226,0.0-1.0-162.0,0,0,97341,,,,,,40.0,40.0,1.0,3000.0,S-XL,1.0,XL,S,4.0,1.0,crane,thread,crane7,thread5,166.0,144.0,/static/Size_judgement/Stimuli/Size_stims/XL/crane/crane3.jpg,/static/Size_judgement/Stimuli/Size_stims/S/thread/thread1.jpg,,,,,,,,,,,125.0,1.5,1.0,
104,,iti,,html-keyboard-response,104,80330,0.0-1.0-164.0,0,0,97341,,,,,,,,,,,,,,,,,,,,,,,,,,,,,,,,,,128.0,3.0,,
105,,size_choice,,html-keyboard-response,105,81834,0.0-1.0-166.0,0,0,97341,,,,,,41.0,41.0,1.0,1000.0,S-XL,0.0,S,XL,1.0,4.0,teabag,tractor,teabag7,tractor7,136.0,186.0,/static/Size_judgement/Stimuli/Size_stims/S/teabag/teabag10.jpg,/static/Size_judgement/Stimuli/Size_stims/XL/tractor/tractor2.jpg,,,,,,,,,,,129.5,1.5,1.0,
106,,iti,,html-keyboard-response,106,81936,0.0-1.0-168.0,0,0,97341,,,,,,,,,,,,,,,,,,,,,,,,,,,,,,,,,,130.5,1.0,,
107,,size_choice,,html-keyboard-response,107,83440,0.0-1.0-170.0,0,0,97341,,,,,,42.0,42.0,1.0,1500.0,L-XL,0.0,L,XL,3.0,4.0,garbagecan,car,garbagecan10,car6,39.0,155.0,/static/Size_judgement/Stimuli/Size_stims/L/garbagecan/garbagecan11.jpg,/static/Size_judgement/Stimuli/Size_stims/XL/car/car12.jpg,,,,,,,,,,,132.0,1.5,1.0,
108,,iti,,html-keyboard-response,108,83544,0.0-1.0-172.0,0,0,97341,,,,,,,,,,,,,,,,,,,,,,,,,,,,,,,,,,133.5,1.5,,
109,,size_choice,,html-keyboard-response,109,85050,0.0-1.0-174.0,0,0,97341,,,,,,43.0,43.0,1.0,3500.0,M-XL,1.0,XL,M,4.0,2.0,car,coffeemaker,car4,coffeemaker9,153.0,68.0,/static/Size_judgement/Stimuli/Size_stims/XL/car/car6.jpg,/static/Size_judgement/Stimuli/Size_stims/M/coffeemaker/coffeemaker7.jpg,,,,,,,,,,,135.0,1.5,1.0,
110,,iti,,html-keyboard-response,110,85151,0.0-1.0-176.0,0,0,97341,,,,,,,,,,,,,,,,,,,,,,,,,,,,,,,,,,138.5,3.5,,
111,,size_choice,,html-keyboard-response,111,86656,0.0-1.0-178.0,0,0,97341,,,,,,44.0,44.0,1.0,2000.0,L-XL,0.0,L,XL,3.0,4.0,cooler,car,cooler4,car5,3.0,154.0,/static/Size_judgement/Stimuli/Size_stims/L/cooler/cooler3.jpg,/static/Size_judgement/Stimuli/Size_stims/XL/car/car11.jpg,,,,,,,,,,,140.0,1.5,1.0,
112,,iti,,html-keyboard-response,112,86759,0.0-1.0-180.0,0,0,97341,,,,,,,,,,,,,,,,,,,,,,,,,,,,,,,,,,142.0,2.0,,
113,,block_over,,html-keyboard-response,113,88921,0.0-1.0-181.0-0.0,0,0,97341,,2161.0,,,68.0,44.0,,,,,,,,,,,,,,,,,,,,,,,,,,,,,,,
114,,size_choice,,html-keyboard-response,114,89635,0.0-1.0-182.0,0,0,97341,,713.0,,,75.0,45.0,45.0,2.0,3500.0,S-M,0.0,S,M,1.0,2.0,screws,handsaw,screws5,handsaw6,124.0,85.0,/static/Size_judgement/Stimuli/Size_stims/S/screws/screws2.jpg,/static/Size_judgement/Stimuli/Size_stims/M/handsaw/handsaw4.jpg,0.0,handsaw,screws,M,S,2.0,1.0,handsaw6,screws5,1.0,142.713,0.713,0.0,
115,,size_choice_confirmation,,html-keyboard-response,115,90426,0.0-1.0-183.0-0.0,0,0,97341,,,,,,45.0,,,,,,,,,,,,,,,,,,,,,,,,,,,,143.5,0.787,,
116,,iti,,html-keyboard-response,116,90527,0.0-1.0-184.0,0,0,97341,,,,,,,,,,,,,,,,,,,,,,,,,,,,,,,,,,147.0,3.5,,
117,,size_choice,,html-keyboard-response,117,90771,0.0-1.0-186.0,0,0,97341,,243.0,,,68.0,46.0,46.0,2.0,1000.0,S-S,,S,S,1.0,1.0,screws,paperclip,screws9,paperclip6,128.0,115.0,/static/Size_judgement/Stimuli/Size_stims/S/screws/screws8.jpg,/static/Size_judgement/Stimuli/Size_stims/S/paperclip/paperclip6.jpg,1.0,screws,paperclip,S,S,1.0,1.0,screws9,paperclip6,,147.243,0.243,0.0,
118,,size_choice_confirmation,,html-keyboard-response,118,92033,0.0-1.0-187.0-0.0,0,0,97341,,,,,,46.0,,,,,,,,,,,,,,,,,,,,,,,,,,,,148.5,1.257,,
119,,iti,,html-keyboard-response,119,92138,0.0-1.0-188.0,0,0,97341,,,,,,,,,,,,,,,,,,,,,,,,,,,,,,,,,,149.5,1.0,,
120,,size_choice,,html-keyboard-response,120,92411,0.0-1.0-190.0,0,0,97341,,272.0,,,68.0,47.0,47.0,2.0,2000.0,M-XL,1.0,XL,M,4.0,2.0,crane,basketball,crane5,basketball5,164.0,54.0,/static/Size_judgement/Stimuli/Size_stims/XL/crane/crane1.jpg,/static/Size_judgement/Stimuli/Size_stims/M/basketball/basketball3.jpg,1.0,crane,basketball,XL,M,4.0,2.0,crane5,basketball5,1.0,149.772,0.272,0.0,
121,,size_choice_confirmation,,html-keyboard-response,121,93642,0.0-1.0-191.0-0.0,0,0,97341,,,,,,47.0,,,,,,,,,,,,,,,,,,,,,,,,,,,,151.0,1.228,,
122,,iti,,html-keyboard-response,122,93746,0.0-1.0-192.0,0,0,97341,,,,,,,,,,,,,,,,,,,,,,,,,,,,,,,,,,153.0,2.0,,
123,,size_choice,,html-keyboard-response,123,93772,0.0-1.0-194.0,0,0,97341,,24.0,,,68.0,48.0,48.0,2.0,1000.0,M-L,0.0,M,L,2.0,3.0,hairdryer,mailbox,hairdryer6,mailbox10,75.0,49.0,/static/Size_judgement/Stimuli/Size_stims/M/hairdryer/hairdryer8.jpg,/static/Size_judgement/Stimuli/Size_stims/L/mailbox/mailbox8.jpg,1.0,hairdryer,mailbox,M,L,2.0,3.0,hairdryer6,mailbox10,0.0,153.024,0.024,0.0,
124,,size_choice_confirmation,,html-keyboard-response,124,95253,0.0-1.0-195.0-0.0,0,0,97341,,,,,,48.0,,,,,,,,,,,,,,,,,,,,,,,,,,,,154.5,1.476,,
125,,iti,,html-keyboard-response,125,95359,0.0-1.0-196.0,0,0,97341,,,,,,,,,,,,,,,,,,,,,,,,,,,,,,,,,,155.5,1.0,,
126,,size_choice,,html-keyboard-response,126,96217,0.0-1.0-198.0,0,0,97341,,857.0,,,75.0,49.0,49.0,2.0,2000.0,M-XL,1.0,XL,M,4.0,2.0,tractor,coffeemaker,tractor5,coffeemaker1,184.0,60.0,/static/Size_judgement/Stimuli/Size_stims/XL/tractor/tractor1.jpg,/static/Size_judgement/Stimuli/Size_stims/M/coffeemaker/coffeemaker14.jpg,0.0,coffeemaker,tractor,M,XL,2.0,4.0,coffeemaker1,tractor5,0.0,156.357,0.857,0.0,
127,,size_choice_confirmation,,html-keyboard-response,127,96864,0.0-1.0-199.0-0.0,0,0,97341,,,,,,49.0,,,,,,,,,,,,,,,,,,,,,,,,,,,,157.0,0.643,,
128,,iti,,html-keyboard-response,128,96965,0.0-1.0-200.0,0,0,97341,,,,,,,,,,,,,,,,,,,,,,,,,,,,,,,,,,159.0,2.0,,
129,,size_choice,,html-keyboard-response,129,97239,0.0-1.0-202.0,0,0,97341,,273.0,,,68.0,50.0,50.0,2.0,1000.0,S-XL,1.0,XL,S,4.0,1.0,car,teabag,car9,teabag10,158.0,139.0,/static/Size_judgement/Stimuli/Size_stims/XL/car/car15.jpg,/static/Size_judgement/Stimuli/Size_stims/S/teabag/teabag4.jpg,1.0,car,teabag,XL,S,4.0,1.0,car9,teabag10,1.0,159.273,0.273,0.0,
130,,size_choice_confirmation,,html-keyboard-response,130,98469,0.0-1.0-203.0-0.0,0,0,97341,,,,,,50.0,,,,,,,,,,,,,,,,,,,,,,,,,,,,160.5,1.227,,
131,,iti,,html-keyboard-response,131,98570,0.0-1.0-204.0,0,0,97341,,,,,,,,,,,,,,,,,,,,,,,,,,,,,,,,,,161.5,1.0,,
132,,size_choice,,html-keyboard-response,132,98864,0.0-1.0-206.0,0,0,97341,,291.0,,,75.0,51.0,51.0,2.0,1500.0,XL-XL,,XL,XL,4.0,4.0,crane,car,crane10,car8,169.0,157.0,/static/Size_judgement/Stimuli/Size_stims/XL/crane/crane9.jpg,/static/Size_judgement/Stimuli/Size_stims/XL/car/car14.jpg,0.0,car,crane,XL,XL,4.0,4.0,car8,crane10,,161.791,0.291,0.0,
133,,size_choice_confirmation,,html-keyboard-response,133,100076,0.0-1.0-207.0-0.0,0,0,97341,,,,,,51.0,,,,,,,,,,,,,,,,,,,,,,,,,,,,163.0,1.209,,
134,,iti,,html-keyboard-response,134,100181,0.0-1.0-208.0,0,0,97341,,,,,,,,,,,,,,,,,,,,,,,,,,,,,,,,,,164.5,1.5,,
135,,size_choice,,html-keyboard-response,135,100521,0.0-1.0-210.0,0,0,97341,,339.0,,,75.0,52.0,52.0,2.0,1000.0,M-L,0.0,M,L,2.0,3.0,coffeemaker,dishwasher,coffeemaker2,dishwasher3,61.0,22.0,/static/Size_judgement/Stimuli/Size_stims/M/coffeemaker/coffeemaker12.jpg,/static/Size_judgement/Stimuli/Size_stims/L/dishwasher/dishwasher8.jpg,0.0,dishwasher,coffeemaker,L,M,3.0,2.0,dishwasher3,coffeemaker2,1.0,164.839,0.339,0.0,
136,,size_choice_confirmation,,html-keyboard-response,136,101685,0.0-1.0-211.0-0.0,0,0,97341,,,,,,52.0,,,,,,,,,,,,,,,,,,,,,,,,,,,,166.0,1.161,,
137,,iti,,html-keyboard-response,137,101789,0.0-1.0-212.0,0,0,97341,,,,,,,,,,,,,,,,,,,,,,,,,,,,,,,,,,167.0,1.0,,
138,,size_choice,,html-keyboard-response,138,102146,0.0-1.0-214.0,0,0,97341,,356.0,,,75.0,53.0,53.0,2.0,3000.0,S-L,1.0,L,S,3.0,1.0,deskchair,paperclip,deskchair4,paperclip7,13.0,116.0,/static/Size_judgement/Stimuli/Size_stims/L/deskchair/deskchair6.jpg,/static/Size_judgement/Stimuli/Size_stims/S/paperclip/paperclip7.jpg,0.0,paperclip,deskchair,S,L,1.0,3.0,paperclip7,deskchair4,0.0,167.356,0.356,0.0,
139,,size_choice_confirmation,,html-keyboard-response,139,103293,0.0-1.0-215.0-0.0,0,0,97341,,,,,,53.0,,,,,,,,,,,,,,,,,,,,,,,,,,,,168.5,1.144,,
140,,iti,,html-keyboard-response,140,103394,0.0-1.0-216.0,0,0,97341,,,,,,,,,,,,,,,,,,,,,,,,,,,,,,,,,,171.5,3.0,,
141,,size_choice,,html-keyboard-response,141,103682,0.0-1.0-218.0,0,0,97341,,287.0,,,75.0,54.0,54.0,2.0,2000.0,S-S,,S,S,1.0,1.0,screws,paperclip,screws1,paperclip10,120.0,119.0,/static/Size_judgement/Stimuli/Size_stims/S/screws/screws4.jpg,/static/Size_judgement/Stimuli/Size_stims/S/paperclip/paperclip10.jpg,0.0,paperclip,screws,S,S,1.0,1.0,paperclip10,screws1,,171.787,0.287,0.0,
142,,size_choice_confirmation,,html-keyboard-response,142,104901,0.0-1.0-219.0-0.0,0,0,97341,,,,,,54.0,,,,,,,,,,,,,,,,,,,,,,,,,,,,173.0,1.213,,
143,,iti,,html-keyboard-response,143,105002,0.0-1.0-220.0,0,0,97341,,,,,,,,,,,,,,,,,,,,,,,,,,,,,,,,,,175.0,2.0,,
144,,size_choice,,html-keyboard-response,144,105245,0.0-1.0-222.0,0,0,97341,,241.0,,,75.0,55.0,55.0,2.0,1500.0,M-L,1.0,L,M,3.0,2.0,dishwasher,ketchup,dishwasher5,ketchup2,24.0,91.0,/static/Size_judgement/Stimuli/Size_stims/L/dishwasher/dishwasher4.jpg,/static/Size_judgement/Stimuli/Size_stims/M/ketchup/ketchup9.jpg,0.0,ketchup,dishwasher,M,L,2.0,3.0,ketchup2,dishwasher5,0.0,175.241,0.241,0.0,
145,,size_choice_confirmation,,html-keyboard-response,145,106506,0.0-1.0-223.0-0.0,0,0,97341,,,,,,55.0,,,,,,,,,,,,,,,,,,,,,,,,,,,,176.5,1.259,,
146,,iti,,html-keyboard-response,146,106609,0.0-1.0-224.0,0,0,97341,,,,,,,,,,,,,,,,,,,,,,,,,,,,,,,,,,178.0,1.5,,
147,,size_choice,,html-keyboard-response,147,106639,0.0-1.0-226.0,0,0,97341,,28.0,,,75.0,56.0,56.0,2.0,1000.0,M-L,0.0,M,L,2.0,3.0,hairdryer,deskchair,hairdryer5,deskchair3,74.0,12.0,/static/Size_judgement/Stimuli/Size_stims/M/hairdryer/hairdryer15.jpg,/static/Size_judgement/Stimuli/Size_stims/L/deskchair/deskchair10.jpg,0.0,deskchair,hairdryer,L,M,3.0,2.0,deskchair3,hairdryer5,1.0,178.028,0.028,0.0,
148,,size_choice_confirmation,,html-keyboard-response,148,108115,0.0-1.0-227.0-0.0,0,0,97341,,,,,,56.0,,,,,,,,,,,,,,,,,,,,,,,,,,,,179.5,1.472,,
149,,iti,,html-keyboard-response,149,108219,0.0-1.0-228.0,0,0,97341,,,,,,,,,,,,,,,,,,,,,,,,,,,,,,,,,,180.5,1.0,,
150,,size_choice,,html-keyboard-response,150,108319,0.0-1.0-230.0,0,0,97341,,98.0,,,75.0,57.0,57.0,2.0,1000.0,S-XL,0.0,S,XL,1.0,4.0,thread,dumptruck,thread7,dumptruck1,146.0,170.0,/static/Size_judgement/Stimuli/Size_stims/S/thread/thread3.jpg,/static/Size_judgement/Stimuli/Size_stims/XL/dumptruck/dumptruck9.jpg,0.0,dumptruck,thread,XL,S,4.0,1.0,dumptruck1,thread7,1.0,180.598,0.098,0.0,
151,,size_choice_confirmation,,html-keyboard-response,151,109726,0.0-1.0-231.0-0.0,0,0,97341,,,,,,57.0,,,,,,,,,,,,,,,,,,,,,,,,,,,,182.0,1.402,,
152,,iti,,html-keyboard-response,152,109829,0.0-1.0-232.0,0,0,97341,,,,,,,,,,,,,,,,,,,,,,,,,,,,,,,,,,183.0,1.0,,
153,,size_choice,,html-keyboard-response,153,109960,0.0-1.0-234.0,0,0,97341,,130.0,,,68.0,58.0,58.0,2.0,1000.0,S-L,0.0,S,L,1.0,3.0,teabag,dishwasher,teabag9,dishwasher6,138.0,25.0,/static/Size_judgement/Stimuli/Size_stims/S/teabag/teabag5.jpg,/static/Size_judgement/Stimuli/Size_stims/L/dishwasher/dishwasher6.jpg,1.0,teabag,dishwasher,S,L,1.0,3.0,teabag9,dishwasher6,0.0,183.13,0.13,0.0,
154,,size_choice_confirmation,,html-keyboard-response,154,111333,0.0-1.0-235.0-0.0,0,0,97341,,,,,,58.0,,,,,,,,,,,,,,,,,,,,,,,,,,,,184.5,1.37,,
155,,iti,,html-keyboard-response,155,111439,0.0-1.0-236.0,0,0,97341,,,,,,,,,,,,,,,,,,,,,,,,,,,,,,,,,,185.5,1.0,,
156,,size_choice,,html-keyboard-response,156,111570,0.0-1.0-238.0,0,0,97341,,130.0,,,68.0,59.0,59.0,2.0,1000.0,M-M,,M,M,2.0,2.0,basketball,ketchup,basketball2,ketchup10,51.0,99.0,/static/Size_judgement/Stimuli/Size_stims/M/basketball/basketball8.jpg,/static/Size_judgement/Stimuli/Size_stims/M/ketchup/ketchup6.jpg,1.0,basketball,ketchup,M,M,2.0,2.0,basketball2,ketchup10,,185.63,0.13,0.0,
157,,size_choice_confirmation,,html-keyboard-response,157,112944,0.0-1.0-239.0-0.0,0,0,97341,,,,,,59.0,,,,,,,,,,,,,,,,,,,,,,,,,,,,187.0,1.37,,
158,,iti,,html-keyboard-response,158,113047,0.0-1.0-240.0,0,0,97341,,,,,,,,,,,,,,,,,,,,,,,,,,,,,,,,,,188.0,1.0,,
159,,size_choice,,html-keyboard-response,159,113135,0.0-1.0-242.0,0,0,97341,,86.0,,,75.0,60.0,60.0,2.0,1500.0,M-XL,0.0,M,XL,2.0,4.0,ketchup,dumptruck,ketchup1,dumptruck3,90.0,172.0,/static/Size_judgement/Stimuli/Size_stims/M/ketchup/ketchup8.jpg,/static/Size_judgement/Stimuli/Size_stims/XL/dumptruck/dumptruck10.jpg,0.0,dumptruck,ketchup,XL,M,4.0,2.0,dumptruck3,ketchup1,1.0,188.086,0.086,0.0,
160,,size_choice_confirmation,,html-keyboard-response,160,114554,0.0-1.0-243.0-0.0,0,0,97341,,,,,,60.0,,,,,,,,,,,,,,,,,,,,,,,,,,,,189.5,1.414,,
161,,iti,,html-keyboard-response,161,114660,0.0-1.0-244.0,0,0,97341,,,,,,,,,,,,,,,,,,,,,,,,,,,,,,,,,,191.0,1.5,,
162,,size_choice,,html-keyboard-response,162,114774,0.0-1.0-246.0,0,0,97341,,113.0,,,75.0,61.0,61.0,2.0,1500.0,M-XL,0.0,M,XL,2.0,4.0,basketball,tractor,basketball1,tractor1,50.0,180.0,/static/Size_judgement/Stimuli/Size_stims/M/basketball/basketball9.jpg,/static/Size_judgement/Stimuli/Size_stims/XL/tractor/tractor6.jpg,0.0,tractor,basketball,XL,M,4.0,2.0,tractor1,basketball1,1.0,191.113,0.113,0.0,
163,,size_choice_confirmation,,html-keyboard-response,163,116165,0.0-1.0-247.0-0.0,0,0,97341,,,,,,61.0,,,,,,,,,,,,,,,,,,,,,,,,,,,,192.5,1.387,,
164,,iti,,html-keyboard-response,164,116268,0.0-1.0-248.0,0,0,97341,,,,,,,,,,,,,,,,,,,,,,,,,,,,,,,,,,194.0,1.5,,
165,,size_choice,,html-keyboard-response,165,116298,0.0-1.0-250.0,0,0,97341,,29.0,,,68.0,62.0,62.0,2.0,3000.0,L-XL,0.0,L,XL,3.0,4.0,cooler,van,cooler2,van9,1.0,198.0,/static/Size_judgement/Stimuli/Size_stims/L/cooler/cooler9.jpg,/static/Size_judgement/Stimuli/Size_stims/XL/van/van9.jpg,1.0,cooler,van,L,XL,3.0,4.0,cooler2,van9,0.0,194.029,0.029,0.0,
166,,size_choice_confirmation,,html-keyboard-response,166,117774,0.0-1.0-251.0-0.0,0,0,97341,,,,,,62.0,,,,,,,,,,,,,,,,,,,,,,,,,,,,195.5,1.471,,
167,,iti,,html-keyboard-response,167,117877,0.0-1.0-252.0,0,0,97341,,,,,,,,,,,,,,,,,,,,,,,,,,,,,,,,,,198.5,3.0,,
168,,size_choice,,html-keyboard-response,168,118211,0.0-1.0-254.0,0,0,97341,,332.0,,,75.0,63.0,63.0,2.0,3500.0,S-L,0.0,S,L,1.0,3.0,thread,dishwasher,thread2,dishwasher7,141.0,26.0,/static/Size_judgement/Stimuli/Size_stims/S/thread/thread6.jpg,/static/Size_judgement/Stimuli/Size_stims/L/dishwasher/dishwasher7.jpg,0.0,dishwasher,thread,L,S,3.0,1.0,dishwasher7,thread2,1.0,198.832,0.332,0.0,
169,,size_choice_confirmation,,html-keyboard-response,169,119381,0.0-1.0-255.0-0.0,0,0,97341,,,,,,63.0,,,,,,,,,,,,,,,,,,,,,,,,,,,,200.0,1.168,,
170,,iti,,html-keyboard-response,170,119483,0.0-1.0-256.0,0,0,97341,,,,,,,,,,,,,,,,,,,,,,,,,,,,,,,,,,203.5,3.5,,
171,,size_choice,,html-keyboard-response,171,119708,0.0-1.0-258.0,0,0,97341,,223.0,,,68.0,64.0,64.0,2.0,1500.0,M-L,0.0,M,L,2.0,3.0,handsaw,cooler,handsaw8,cooler7,87.0,6.0,/static/Size_judgement/Stimuli/Size_stims/M/handsaw/handsaw7.jpg,/static/Size_judgement/Stimuli/Size_stims/L/cooler/cooler4.jpg,1.0,handsaw,cooler,M,L,2.0,3.0,handsaw8,cooler7,0.0,203.723,0.223,0.0,
172,,size_choice_confirmation,,html-keyboard-response,172,120987,0.0-1.0-259.0-0.0,0,0,97341,,,,,,64.0,,,,,,,,,,,,,,,,,,,,,,,,,,,,205.0,1.277,,
173,,iti,,html-keyboard-response,173,121088,0.0-1.0-260.0,0,0,97341,,,,,,,,,,,,,,,,,,,,,,,,,,,,,,,,,,206.5,1.5,,
174,,size_choice,,html-keyboard-response,174,122593,0.0-1.0-262.0,0,0,97341,,,,,,65.0,65.0,2.0,2000.0,M-L,0.0,M,L,2.0,3.0,handsaw,mailbox,handsaw5,mailbox1,84.0,40.0,/static/Size_judgement/Stimuli/Size_stims/M/handsaw/handsaw1.jpg,/static/Size_judgement/Stimuli/Size_stims/L/mailbox/mailbox3.jpg,,,,,,,,,,,208.0,1.5,1.0,
175,,iti,,html-keyboard-response,175,122699,0.0-1.0-264.0,0,0,97341,,,,,,,,,,,,,,,,,,,,,,,,,,,,,,,,,,210.0,2.0,,
176,,size_choice,,html-keyboard-response,176,124203,0.0-1.0-266.0,0,0,97341,,,,,,66.0,66.0,2.0,1000.0,M-XL,1.0,XL,M,4.0,2.0,car,ketchup,car10,ketchup8,159.0,97.0,/static/Size_judgement/Stimuli/Size_stims/XL/car/car9.jpg,/static/Size_judgement/Stimuli/Size_stims/M/ketchup/ketchup5.jpg,,,,,,,,,,,211.5,1.5,1.0,
177,,iti,,html-keyboard-response,177,124308,0.0-1.0-268.0,0,0,97341,,,,,,,,,,,,,,,,,,,,,,,,,,,,,,,,,,212.5,1.0,,
178,,size_choice,,html-keyboard-response,178,125813,0.0-1.0-270.0,0,0,97341,,,,,,67.0,67.0,2.0,1000.0,S-L,1.0,L,S,3.0,1.0,deskchair,thread,deskchair6,thread3,15.0,142.0,/static/Size_judgement/Stimuli/Size_stims/L/deskchair/deskchair5.jpg,/static/Size_judgement/Stimuli/Size_stims/S/thread/thread4.jpg,,,,,,,,,,,214.0,1.5,1.0,
179,,iti,,html-keyboard-response,179,125917,0.0-1.0-272.0,0,0,97341,,,,,,,,,,,,,,,,,,,,,,,,,,,,,,,,,,215.0,1.0,,
180,,size_choice,,html-keyboard-response,180,127419,0.0-1.0-274.0,0,0,97341,,,,,,68.0,68.0,2.0,2000.0,S-XL,0.0,S,XL,1.0,4.0,screws,dumptruck,screws3,dumptruck4,122.0,173.0,/static/Size_judgement/Stimuli/Size_stims/S/screws/screws7.jpg,/static/Size_judgement/Stimuli/Size_stims/XL/dumptruck/dumptruck1.jpg,,,,,,,,,,,216.5,1.5,1.0,
181,,iti,,html-keyboard-response,181,127522,0.0-1.0-276.0,0,0,97341,,,,,,,,,,,,,,,,,,,,,,,,,,,,,,,,,,218.5,2.0,,
182,,size_choice,,html-keyboard-response,182,129027,0.0-1.0-278.0,0,0,97341,,,,,,69.0,69.0,2.0,3000.0,S-XL,0.0,S,XL,1.0,4.0,paperclip,dumptruck,paperclip8,dumptruck7,117.0,176.0,/static/Size_judgement/Stimuli/Size_stims/S/paperclip/paperclip5.jpg,/static/Size_judgement/Stimuli/Size_stims/XL/dumptruck/dumptruck6.jpg,,,,,,,,,,,220.0,1.5,1.0,
183,,iti,,html-keyboard-response,183,129131,0.0-1.0-280.0,0,0,97341,,,,,,,,,,,,,,,,,,,,,,,,,,,,,,,,,,223.0,3.0,,
184,,size_choice,,html-keyboard-response,184,130635,0.0-1.0-282.0,0,0,97341,,,,,,70.0,70.0,2.0,1500.0,S-L,0.0,S,L,1.0,3.0,die,deskchair,die1,deskchair8,100.0,17.0,/static/Size_judgement/Stimuli/Size_stims/S/die/die8.jpg,/static/Size_judgement/Stimuli/Size_stims/L/deskchair/deskchair1.jpg,,,,,,,,,,,224.5,1.5,1.0,
185,,iti,,html-keyboard-response,185,130736,0.0-1.0-284.0,0,0,97341,,,,,,,,,,,,,,,,,,,,,,,,,,,,,,,,,,226.0,1.5,,
186,,size_choice,,html-keyboard-response,186,132240,0.0-1.0-286.0,0,0,97341,,,,,,71.0,71.0,2.0,1500.0,XL-XL,,XL,XL,4.0,4.0,tractor,van,tractor3,van8,182.0,197.0,/static/Size_judgement/Stimuli/Size_stims/XL/tractor/tractor5.jpg,/static/Size_judgement/Stimuli/Size_stims/XL/van/van10.jpg,,,,,,,,,,,227.5,1.5,1.0,
187,,iti,,html-keyboard-response,187,132343,0.0-1.0-288.0,0,0,97341,,,,,,,,,,,,,,,,,,,,,,,,,,,,,,,,,,229.0,1.5,,
188,,size_choice,,html-keyboard-response,188,133848,0.0-1.0-290.0,0,0,97341,,,,,,72.0,72.0,2.0,1500.0,S-XL,0.0,S,XL,1.0,4.0,paperclip,dumptruck,paperclip4,dumptruck5,113.0,174.0,/static/Size_judgement/Stimuli/Size_stims/S/paperclip/paperclip3.jpg,/static/Size_judgement/Stimuli/Size_stims/XL/dumptruck/dumptruck3.jpg,,,,,,,,,,,230.5,1.5,1.0,
189,,iti,,html-keyboard-response,189,133952,0.0-1.0-292.0,0,0,97341,,,,,,,,,,,,,,,,,,,,,,,,,,,,,,,,,,232.0,1.5,,
190,,size_choice,,html-keyboard-response,190,135456,0.0-1.0-294.0,0,0,97341,,,,,,73.0,73.0,2.0,3000.0,M-L,0.0,M,L,2.0,3.0,coffeemaker,dishwasher,coffeemaker6,dishwasher4,65.0,23.0,/static/Size_judgement/Stimuli/Size_stims/M/coffeemaker/coffeemaker8.jpg,/static/Size_judgement/Stimuli/Size_stims/L/dishwasher/dishwasher5.jpg,,,,,,,,,,,233.5,1.5,1.0,
191,,iti,,html-keyboard-response,191,135560,0.0-1.0-296.0,0,0,97341,,,,,,,,,,,,,,,,,,,,,,,,,,,,,,,,,,236.5,3.0,,
192,,size_choice,,html-keyboard-response,192,137063,0.0-1.0-298.0,0,0,97341,,,,,,74.0,74.0,2.0,1500.0,S-XL,1.0,XL,S,4.0,1.0,car,die,car1,die9,150.0,108.0,/static/Size_judgement/Stimuli/Size_stims/XL/car/car2.jpg,/static/Size_judgement/Stimuli/Size_stims/S/die/die7.jpg,,,,,,,,,,,238.0,1.5,1.0,
193,,iti,,html-keyboard-response,193,137168,0.0-1.0-300.0,0,0,97341,,,,,,,,,,,,,,,,,,,,,,,,,,,,,,,,,,239.5,1.5,,
194,,size_choice,,html-keyboard-response,194,138674,0.0-1.0-302.0,0,0,97341,,,,,,75.0,75.0,2.0,1500.0,M-XL,1.0,XL,M,4.0,2.0,crane,handsaw,crane1,handsaw10,160.0,89.0,/static/Size_judgement/Stimuli/Size_stims/XL/crane/crane7.jpg,/static/Size_judgement/Stimuli/Size_stims/M/handsaw/handsaw10.jpg,,,,,,,,,,,241.0,1.5,1.0,
195,,iti,,html-keyboard-response,195,138778,0.0-1.0-304.0,0,0,97341,,,,,,,,,,,,,,,,,,,,,,,,,,,,,,,,,,242.5,1.5,,
196,,size_choice,,html-keyboard-response,196,140283,0.0-1.0-306.0,0,0,97341,,,,,,76.0,76.0,2.0,1500.0,S-XL,1.0,XL,S,4.0,1.0,tractor,screws,tractor2,screws6,181.0,125.0,/static/Size_judgement/Stimuli/Size_stims/XL/tractor/tractor7.jpg,/static/Size_judgement/Stimuli/Size_stims/S/screws/screws3.jpg,,,,,,,,,,,244.0,1.5,1.0,
197,,iti,,html-keyboard-response,197,140384,0.0-1.0-308.0,0,0,97341,,,,,,,,,,,,,,,,,,,,,,,,,,,,,,,,,,245.5,1.5,,
198,,size_choice,,html-keyboard-response,198,141888,0.0-1.0-310.0,0,0,97341,,,,,,77.0,77.0,2.0,2000.0,M-L,0.0,M,L,2.0,3.0,coffeemaker,deskchair,coffeemaker4,deskchair5,63.0,14.0,/static/Size_judgement/Stimuli/Size_stims/M/coffeemaker/coffeemaker11.jpg,/static/Size_judgement/Stimuli/Size_stims/L/deskchair/deskchair7.jpg,,,,,,,,,,,247.0,1.5,1.0,
199,,iti,,html-keyboard-response,199,141994,0.0-1.0-312.0,0,0,97341,,,,,,,,,,,,,,,,,,,,,,,,,,,,,,,,,,249.0,2.0,,
200,,size_choice,,html-keyboard-response,200,143499,0.0-1.0-314.0,0,0,97341,,,,,,78.0,78.0,2.0,1500.0,M-XL,1.0,XL,M,4.0,2.0,dumptruck,coffeemaker,dumptruck10,coffeemaker10,179.0,69.0,/static/Size_judgement/Stimuli/Size_stims/XL/dumptruck/dumptruck4.jpg,/static/Size_judgement/Stimuli/Size_stims/M/coffeemaker/coffeemaker18.jpg,,,,,,,,,,,250.5,1.5,1.0,
201,,iti,,html-keyboard-response,201,143601,0.0-1.0-316.0,0,0,97341,,,,,,,,,,,,,,,,,,,,,,,,,,,,,,,,,,252.0,1.5,,
202,,size_choice,,html-keyboard-response,202,145104,0.0-1.0-318.0,0,0,97341,,,,,,79.0,79.0,2.0,1000.0,L-L,,L,L,3.0,3.0,mailbox,cooler,mailbox4,cooler6,43.0,5.0,/static/Size_judgement/Stimuli/Size_stims/L/mailbox/mailbox5.jpg,/static/Size_judgement/Stimuli/Size_stims/L/cooler/cooler1.jpg,,,,,,,,,,,253.5,1.5,1.0,
203,,iti,,html-keyboard-response,203,145210,0.0-1.0-320.0,0,0,97341,,,,,,,,,,,,,,,,,,,,,,,,,,,,,,,,,,254.5,1.0,,
204,,size_choice,,html-keyboard-response,204,146715,0.0-1.0-322.0,0,0,97341,,,,,,80.0,80.0,2.0,1000.0,S-M,0.0,S,M,1.0,2.0,die,basketball,die3,basketball3,102.0,52.0,/static/Size_judgement/Stimuli/Size_stims/S/die/die10.jpg,/static/Size_judgement/Stimuli/Size_stims/M/basketball/basketball10.jpg,,,,,,,,,,,256.0,1.5,1.0,
205,,iti,,html-keyboard-response,205,146819,0.0-1.0-324.0,0,0,97341,,,,,,,,,,,,,,,,,,,,,,,,,,,,,,,,,,257.0,1.0,,
206,,size_choice,,html-keyboard-response,206,148323,0.0-1.0-326.0,0,0,97341,,,,,,81.0,81.0,2.0,2000.0,S-L,0.0,S,L,1.0,3.0,thread,garbagecan,thread9,garbagecan7,148.0,36.0,/static/Size_judgement/Stimuli/Size_stims/S/thread/thread8.jpg,/static/Size_judgement/Stimuli/Size_stims/L/garbagecan/garbagecan16.jpg,,,,,,,,,,,258.5,1.5,1.0,
207,,iti,,html-keyboard-response,207,148427,0.0-1.0-328.0,0,0,97341,,,,,,,,,,,,,,,,,,,,,,,,,,,,,,,,,,260.5,2.0,,
208,,size_choice,,html-keyboard-response,208,149931,0.0-1.0-330.0,0,0,97341,,,,,,82.0,82.0,2.0,2000.0,M-XL,1.0,XL,M,4.0,2.0,tractor,basketball,tractor8,basketball8,187.0,57.0,/static/Size_judgement/Stimuli/Size_stims/XL/tractor/tractor10.jpg,/static/Size_judgement/Stimuli/Size_stims/M/basketball/basketball7.jpg,,,,,,,,,,,262.0,1.5,1.0,
209,,iti,,html-keyboard-response,209,150037,0.0-1.0-332.0,0,0,97341,,,,,,,,,,,,,,,,,,,,,,,,,,,,,,,,,,264.0,2.0,,
210,,size_choice,,html-keyboard-response,210,151544,0.0-1.0-334.0,0,0,97341,,,,,,83.0,83.0,2.0,1000.0,S-XL,0.0,S,XL,1.0,4.0,screws,van,screws2,van3,121.0,192.0,/static/Size_judgement/Stimuli/Size_stims/S/screws/screws5.jpg,/static/Size_judgement/Stimuli/Size_stims/XL/van/van6.jpg,,,,,,,,,,,265.5,1.5,1.0,
211,,iti,,html-keyboard-response,211,151649,0.0-1.0-336.0,0,0,97341,,,,,,,,,,,,,,,,,,,,,,,,,,,,,,,,,,266.5,1.0,,
212,,size_choice,,html-keyboard-response,212,153152,0.0-1.0-338.0,0,0,97341,,,,,,84.0,84.0,2.0,1000.0,L-L,,L,L,3.0,3.0,cooler,dishwasher,cooler3,dishwasher9,2.0,28.0,/static/Size_judgement/Stimuli/Size_stims/L/cooler/cooler2.jpg,/static/Size_judgement/Stimuli/Size_stims/L/dishwasher/dishwasher2.jpg,,,,,,,,,,,268.0,1.5,1.0,
213,,iti,,html-keyboard-response,213,153256,0.0-1.0-340.0,0,0,97341,,,,,,,,,,,,,,,,,,,,,,,,,,,,,,,,,,269.0,1.0,,
214,,size_choice,,html-keyboard-response,214,154762,0.0-1.0-342.0,0,0,97341,,,,,,85.0,85.0,2.0,1000.0,M-M,,M,M,2.0,2.0,hairdryer,handsaw,hairdryer10,handsaw2,79.0,81.0,/static/Size_judgement/Stimuli/Size_stims/M/hairdryer/hairdryer6.jpg,/static/Size_judgement/Stimuli/Size_stims/M/handsaw/handsaw9.jpg,,,,,,,,,,,270.5,1.5,1.0,
215,,iti,,html-keyboard-response,215,154867,0.0-1.0-344.0,0,0,97341,,,,,,,,,,,,,,,,,,,,,,,,,,,,,,,,,,271.5,1.0,,
216,,size_choice,,html-keyboard-response,216,156373,0.0-1.0-346.0,0,0,97341,,,,,,86.0,86.0,2.0,1000.0,L-XL,0.0,L,XL,3.0,4.0,garbagecan,crane,garbagecan6,crane2,35.0,161.0,/static/Size_judgement/Stimuli/Size_stims/L/garbagecan/garbagecan14.jpg,/static/Size_judgement/Stimuli/Size_stims/XL/crane/crane6.jpg,,,,,,,,,,,273.0,1.5,1.0,
217,,iti,,html-keyboard-response,217,156477,0.0-1.0-348.0,0,0,97341,,,,,,,,,,,,,,,,,,,,,,,,,,,,,,,,,,274.0,1.0,,
218,,size_choice,,html-keyboard-response,218,157979,0.0-1.0-350.0,0,0,97341,,,,,,87.0,87.0,2.0,1000.0,XL-XL,,XL,XL,4.0,4.0,car,tractor,car2,tractor10,151.0,189.0,/static/Size_judgement/Stimuli/Size_stims/XL/car/car3.jpg,/static/Size_judgement/Stimuli/Size_stims/XL/tractor/tractor8.jpg,,,,,,,,,,,275.5,1.5,1.0,
219,,iti,,html-keyboard-response,219,158081,0.0-1.0-352.0,0,0,97341,,,,,,,,,,,,,,,,,,,,,,,,,,,,,,,,,,276.5,1.0,,
220,,size_choice,,html-keyboard-response,220,159584,0.0-1.0-354.0,0,0,97341,,,,,,88.0,88.0,2.0,1000.0,S-L,1.0,L,S,3.0,1.0,deskchair,screws,deskchair7,screws10,16.0,129.0,/static/Size_judgement/Stimuli/Size_stims/L/deskchair/deskchair4.jpg,/static/Size_judgement/Stimuli/Size_stims/S/screws/screws9.jpg,,,,,,,,,,,278.0,1.5,1.0,
221,,iti,,html-keyboard-response,221,159687,0.0-1.0-356.0,0,0,97341,,,,,,,,,,,,,,,,,,,,,,,,,,,,,,,,,,279.0,1.0,,
222,,size_choice,,html-keyboard-response,222,161194,0.0-1.0-358.0,0,0,97341,,,,,,89.0,89.0,2.0,3500.0,S-L,1.0,L,S,3.0,1.0,garbagecan,teabag,garbagecan1,teabag4,30.0,133.0,/static/Size_judgement/Stimuli/Size_stims/L/garbagecan/garbagecan4.jpg,/static/Size_judgement/Stimuli/Size_stims/S/teabag/teabag3.jpg,,,,,,,,,,,280.5,1.5,1.0,
223,,iti,,html-keyboard-response,223,161300,0.0-1.0-360.0,0,0,97341,,,,,,,,,,,,,,,,,,,,,,,,,,,,,,,,,,284.0,3.5,,0.2
224,,size_final_tally,,html-keyboard-response,224,162871,0.0-2.0,0,0,97341,,1569.0,,,68.0,,,,,,,,,,,,,,,,,,,,,,,,,,,,,,,,
225,,debreif_intro,,html-keyboard-response,225,165235,0.0-3.0,0,0,97341,,2348.0,,,68.0,,,,,,,,,,,,,,,,,,,,,,,,,,,,,,,,
226,,debreif_age,,survey-text,226,169272,0.0-4.0,0,0,97341,,4036.0,"{""Q0"":""0""}",,,,,,,,,,,,,,,,,,,,,,,,,,,,,,,,,,
227,,debreif_gender,,survey-multi-choice,227,171119,0.0-5.0,0,0,97341,,1846.0,"{""Q0"":""Female""}",,,,,,,,,,,,,,,,,,,,,,,,,,,,,,,,,,
228,,debreif_dominant_hand,,survey-multi-choice,228,173092,0.0-6.0,0,0,97341,,1971.0,"{""Q0"":""Left""}",,,,,,,,,,,,,,,,,,,,,,,,,,,,,,,,,,
229,,debreif_native_language,,survey-multi-choice,229,174630,0.0-7.0,0,0,97341,,1535.0,"{""Q0"":""Yes""}",,,,,,,,,,,,,,,,,,,,,,,,,,,,,,,,,,
230,,debreif_fluency,,survey-likert,230,176291,0.0-8.0,0,0,97341,,1659.0,"{""Q0"":2}",,,,,,,,,,,,,,,,,,,,,,,,,,,,,,,,,,
231,,debreif_strategy_category_learning,,survey-text,231,177785,0.0-9.0,0,0,97341,,1492.0,"{""Q0"":""0""}",,,,,,,,,,,,,,,,,,,,,,,,,,,,,,,,,,
232,,debreif_strategy_old_trials,,survey-text,232,179072,0.0-10.0,0,0,97341,,1287.0,"{""Q0"":""0""}",,,,,,,,,,,,,,,,,,,,,,,,,,,,,,,,,,
233,,debreif_strategy_size,,survey-text,233,180159,0.0-11.0,0,0,97341,,1087.0,"{""Q0"":""0""}",,,,,,,,,,,,,,,,,,,,,,,,,,,,,,,,,,
234,,debreif_strategy_rl,,survey-text,234,181229,0.0-12.0,0,0,97341,,1069.0,"{""Q0"":""0""}",,,,,,,,,,,,,,,,,,,,,,,,,,,,,,,,,,
235,,debreif_clear_instructions,,survey-text,235,182205,0.0-13.0,0,0,97341,,975.0,"{""Q0"":""0""}",,,,,,,,,,,,,,,,,,,,,,,,,,,,,,,,,,
236,,debreif_end,,html-keyboard-response,236,183697,0.0-14.0,0,0,97341,,1491.0,,,32.0,,,,,,,,,,,,,,,,,,,,,,,,,,,,,,,,
