,success,ttype,start_time,trial_type,trial_index,time_elapsed,internal_node_id,warning,missed_checkup,PID,view_history,rt,responses,repeat_instructions,key_press,index,trial_num,block,iti,pair_type,high_size_on_left,left_size_group,right_size_group,left_size_num,right_size_num,left_category,right_category,left_exemplar,right_exemplar,left_index,right_index,left_img_path,right_img_path,left_chosen,chosen_category,unchosen_category,chosen_size_group,unchosen_size_group,chosen_size_num,unchosen_size_num,chosen_exemplar,unchosen_exemplar,accuracy,onset,duration,no_response,size_final_tally
0,True,full_screen,d06072022hr1210,fullscreen,0,4387,0.0-0.0,0,0,15677,,,,,,,,,,,,,,,,,,,,,,,,,,,,,,,,,,,,,
1,,size_instructions,,instructions,1,21794,0.0-1.0-0.0-0.0,0,0,15677,"[{""page_index"":0,""viewing_time"":1766},{""page_index"":1,""viewing_time"":7240},{""page_index"":2,""viewing_time"":1800},{""page_index"":3,""viewing_time"":1872},{""page_index"":4,""viewing_time"":3992},{""page_index"":5,""viewing_time"":736}]",17407.0,,,,,,,,,,,,,,,,,,,,,,,,,,,,,,,,,,,
2,,size_comprehension_check,,survey-multi-choice,2,30210,0.0-1.0-0.0-1.0,0,0,15677,,8414.0,"{""Q0"":""True"",""Q1"":""Size in the real world"",""Q2"":""True"",""Q3"":""D for left and K for right""}",0.0,,,,,,,,,,,,,,,,,,,,,,,,,,,,,,,,,
3,,,,html-keyboard-response,3,31049,0.0-1.0-1.0,0,0,15677,,835.0,,,68.0,,,,,,,,,,,,,,,,,,,,,,,,,,,,,,,,
4,,size_choice,,html-keyboard-response,4,32097,0.0-1.0-2.0,0,0,15677,,1047.0,,,68.0,0.0,0.0,1.0,1500.0,S-M,1.0,M,S,2.0,1.0,hairdryer,paperclip,hairdryer8,paperclip1,77.0,110.0,/static/Size_judgement/Stimuli/Size_stims/M/hairdryer/hairdryer1.jpg,/static/Size_judgement/Stimuli/Size_stims/S/paperclip/paperclip9.jpg,1.0,hairdryer,paperclip,M,S,2.0,1.0,hairdryer8,paperclip1,1.0,1.047,1.047,0.0,
5,,size_choice_confirmation,,html-keyboard-response,5,32554,0.0-1.0-3.0-0.0,0,0,15677,,,,,,0.0,,1.0,,,,,,,,,,,,,,,,,,,,,,,,,,1.5,0.453,,
6,,iti,,html-keyboard-response,6,34071,0.0-1.0-4.0,0,0,15677,,,,,,0.0,,1.0,,,,,,,,,,,,,,,,,,,,,,,,,,3.0,1.5,,
7,,size_choice,,html-keyboard-response,7,35018,0.0-1.0-6.0,0,0,15677,,946.0,,,75.0,1.0,1.0,1.0,1000.0,S-XL,0.0,S,XL,1.0,4.0,die,van,die5,van5,104.0,194.0,/static/Size_judgement/Stimuli/Size_stims/S/die/die3.jpg,/static/Size_judgement/Stimuli/Size_stims/XL/van/van3.jpg,0.0,van,die,XL,S,4.0,1.0,van5,die5,1.0,3.946,0.946,0.0,
8,,size_choice_confirmation,,html-keyboard-response,8,35574,0.0-1.0-7.0-0.0,0,0,15677,,,,,,1.0,,1.0,,,,,,,,,,,,,,,,,,,,,,,,,,4.5,0.554,,
9,,iti,,html-keyboard-response,9,36575,0.0-1.0-8.0,0,0,15677,,,,,,1.0,,1.0,,,,,,,,,,,,,,,,,,,,,,,,,,5.5,1.0,,
10,,size_choice,,html-keyboard-response,10,37554,0.0-1.0-10.0,0,0,15677,,977.0,,,68.0,2.0,2.0,1.0,1000.0,S-L,1.0,L,S,3.0,1.0,dishwasher,thread,dishwasher8,thread1,27.0,140.0,/static/Size_judgement/Stimuli/Size_stims/L/dishwasher/dishwasher3.jpg,/static/Size_judgement/Stimuli/Size_stims/S/thread/thread7.jpg,1.0,dishwasher,thread,L,S,3.0,1.0,dishwasher8,thread1,1.0,6.477,0.977,0.0,
11,,size_choice_confirmation,,html-keyboard-response,11,38080,0.0-1.0-11.0-0.0,0,0,15677,,,,,,2.0,,1.0,,,,,,,,,,,,,,,,,,,,,,,,,,7.0,0.523,,
12,,iti,,html-keyboard-response,12,39082,0.0-1.0-12.0,0,0,15677,,,,,,2.0,,1.0,,,,,,,,,,,,,,,,,,,,,,,,,,8.0,1.0,,
13,,size_choice,,html-keyboard-response,13,39730,0.0-1.0-14.0,0,0,15677,,647.0,,,68.0,3.0,3.0,1.0,1500.0,M-XL,1.0,XL,M,4.0,2.0,van,basketball,van4,basketball9,193.0,58.0,/static/Size_judgement/Stimuli/Size_stims/XL/van/van7.jpg,/static/Size_judgement/Stimuli/Size_stims/M/basketball/basketball5.jpg,1.0,van,basketball,XL,M,4.0,2.0,van4,basketball9,1.0,8.647,0.647,0.0,
14,,size_choice_confirmation,,html-keyboard-response,14,40585,0.0-1.0-15.0-0.0,0,0,15677,,,,,,3.0,,1.0,,,,,,,,,,,,,,,,,,,,,,,,,,9.5,0.853,,
15,,iti,,html-keyboard-response,15,42087,0.0-1.0-16.0,0,0,15677,,,,,,3.0,,1.0,,,,,,,,,,,,,,,,,,,,,,,,,,11.0,1.5,,
16,,size_choice,,html-keyboard-response,16,42746,0.0-1.0-18.0,0,0,15677,,658.0,,,68.0,4.0,4.0,1.0,1500.0,M-XL,1.0,XL,M,4.0,2.0,crane,handsaw,crane4,handsaw4,163.0,83.0,/static/Size_judgement/Stimuli/Size_stims/XL/crane/crane5.jpg,/static/Size_judgement/Stimuli/Size_stims/M/handsaw/handsaw3.jpg,1.0,crane,handsaw,XL,M,4.0,2.0,crane4,handsaw4,1.0,11.658,0.658,0.0,
17,,size_choice_confirmation,,html-keyboard-response,17,43591,0.0-1.0-19.0-0.0,0,0,15677,,,,,,4.0,,1.0,,,,,,,,,,,,,,,,,,,,,,,,,,12.5,0.842,,
18,,iti,,html-keyboard-response,18,45093,0.0-1.0-20.0,0,0,15677,,,,,,4.0,,1.0,,,,,,,,,,,,,,,,,,,,,,,,,,14.0,1.5,,
19,,size_choice,,html-keyboard-response,19,45795,0.0-1.0-22.0,0,0,15677,,702.0,,,68.0,5.0,5.0,1.0,1000.0,M-L,1.0,L,M,3.0,2.0,deskchair,handsaw,deskchair9,handsaw9,18.0,88.0,/static/Size_judgement/Stimuli/Size_stims/L/deskchair/deskchair3.jpg,/static/Size_judgement/Stimuli/Size_stims/M/handsaw/handsaw6.jpg,1.0,deskchair,handsaw,L,M,3.0,2.0,deskchair9,handsaw9,1.0,14.702,0.702,0.0,
20,,size_choice_confirmation,,html-keyboard-response,20,46611,0.0-1.0-23.0-0.0,0,0,15677,,,,,,5.0,,1.0,,,,,,,,,,,,,,,,,,,,,,,,,,15.5,0.798,,
21,,iti,,html-keyboard-response,21,47613,0.0-1.0-24.0,0,0,15677,,,,,,5.0,,1.0,,,,,,,,,,,,,,,,,,,,,,,,,,16.5,1.0,,
22,,size_choice,,html-keyboard-response,22,48419,0.0-1.0-26.0,0,0,15677,,804.0,,,68.0,6.0,6.0,1.0,1500.0,M-L,0.0,M,L,2.0,3.0,coffeemaker,mailbox,coffeemaker7,mailbox7,66.0,46.0,/static/Size_judgement/Stimuli/Size_stims/M/coffeemaker/coffeemaker9.jpg,/static/Size_judgement/Stimuli/Size_stims/L/mailbox/mailbox7.jpg,1.0,coffeemaker,mailbox,M,L,2.0,3.0,coffeemaker7,mailbox7,0.0,17.304,0.804,0.0,
23,,size_choice_confirmation,,html-keyboard-response,23,49119,0.0-1.0-27.0-0.0,0,0,15677,,,,,,6.0,,1.0,,,,,,,,,,,,,,,,,,,,,,,,,,18.0,0.696,,
24,,iti,,html-keyboard-response,24,50622,0.0-1.0-28.0,0,0,15677,,,,,,6.0,,1.0,,,,,,,,,,,,,,,,,,,,,,,,,,19.5,1.5,,
25,,size_choice,,html-keyboard-response,25,51588,0.0-1.0-30.0,0,0,15677,,964.0,,,68.0,7.0,7.0,1.0,1500.0,M-L,1.0,L,M,3.0,2.0,deskchair,ketchup,deskchair10,ketchup3,19.0,92.0,/static/Size_judgement/Stimuli/Size_stims/L/deskchair/deskchair2.jpg,/static/Size_judgement/Stimuli/Size_stims/M/ketchup/ketchup10.jpg,1.0,deskchair,ketchup,L,M,3.0,2.0,deskchair10,ketchup3,1.0,20.464,0.964,0.0,
26,,size_choice_confirmation,,html-keyboard-response,26,52126,0.0-1.0-31.0-0.0,0,0,15677,,,,,,7.0,,1.0,,,,,,,,,,,,,,,,,,,,,,,,,,21.0,0.536,,
27,,iti,,html-keyboard-response,27,53628,0.0-1.0-32.0,0,0,15677,,,,,,7.0,,1.0,,,,,,,,,,,,,,,,,,,,,,,,,,22.5,1.5,,
28,,size_choice,,html-keyboard-response,28,54428,0.0-1.0-34.0,0,0,15677,,799.0,,,68.0,8.0,8.0,1.0,2000.0,S-L,1.0,L,S,3.0,1.0,cooler,paperclip,cooler8,paperclip3,7.0,112.0,/static/Size_judgement/Stimuli/Size_stims/L/cooler/cooler5.jpg,/static/Size_judgement/Stimuli/Size_stims/S/paperclip/paperclip1.jpg,1.0,cooler,paperclip,L,S,3.0,1.0,cooler8,paperclip3,1.0,23.299,0.799,0.0,
29,,size_choice_confirmation,,html-keyboard-response,29,55131,0.0-1.0-35.0-0.0,0,0,15677,,,,,,8.0,,1.0,,,,,,,,,,,,,,,,,,,,,,,,,,24.0,0.701,,
30,,iti,,html-keyboard-response,30,57133,0.0-1.0-36.0,0,0,15677,,,,,,8.0,,1.0,,,,,,,,,,,,,,,,,,,,,,,,,,26.0,2.0,,
31,,size_choice,,html-keyboard-response,31,58037,0.0-1.0-38.0,0,0,15677,,903.0,,,75.0,9.0,9.0,1.0,1500.0,M-L,0.0,M,L,2.0,3.0,basketball,garbagecan,basketball10,garbagecan5,59.0,34.0,/static/Size_judgement/Stimuli/Size_stims/M/basketball/basketball4.jpg,/static/Size_judgement/Stimuli/Size_stims/L/garbagecan/garbagecan3.jpg,0.0,garbagecan,basketball,L,M,3.0,2.0,garbagecan5,basketball10,1.0,26.903,0.903,0.0,
32,,size_choice_confirmation,,html-keyboard-response,32,58637,0.0-1.0-39.0-0.0,0,0,15677,,,,,,9.0,,1.0,,,,,,,,,,,,,,,,,,,,,,,,,,27.5,0.597,,
33,,iti,,html-keyboard-response,33,60139,0.0-1.0-40.0,0,0,15677,,,,,,9.0,,1.0,,,,,,,,,,,,,,,,,,,,,,,,,,29.0,1.5,,
34,,size_choice,,html-keyboard-response,34,60789,0.0-1.0-42.0,0,0,15677,,649.0,,,68.0,10.0,10.0,1.0,2000.0,S-L,1.0,L,S,3.0,1.0,dishwasher,teabag,dishwasher1,teabag5,20.0,134.0,/static/Size_judgement/Stimuli/Size_stims/L/dishwasher/dishwasher10.jpg,/static/Size_judgement/Stimuli/Size_stims/S/teabag/teabag2.jpg,1.0,dishwasher,teabag,L,S,3.0,1.0,dishwasher1,teabag5,1.0,29.649,0.649,0.0,
35,,size_choice_confirmation,,html-keyboard-response,35,61657,0.0-1.0-43.0-0.0,0,0,15677,,,,,,10.0,,1.0,,,,,,,,,,,,,,,,,,,,,,,,,,30.5,0.851,,
36,,iti,,html-keyboard-response,36,63660,0.0-1.0-44.0,0,0,15677,,,,,,10.0,,1.0,,,,,,,,,,,,,,,,,,,,,,,,,,32.5,2.0,,
37,,size_choice,,html-keyboard-response,37,65163,0.0-1.0-46.0,0,0,15677,,,,,,11.0,11.0,1.0,1000.0,S-S,,S,S,1.0,1.0,thread,die,thread10,die4,149.0,103.0,/static/Size_judgement/Stimuli/Size_stims/S/thread/thread9.jpg,/static/Size_judgement/Stimuli/Size_stims/S/die/die2.jpg,,,,,,,,,,,34.0,1.5,1.0,
38,,iti,,html-keyboard-response,38,66165,0.0-1.0-48.0,0,0,15677,,,,,,11.0,,1.0,,,,,,,,,,,,,,,,,,,,,,,,,,35.0,1.0,,
39,,size_choice,,html-keyboard-response,39,67022,0.0-1.0-50.0,0,0,15677,,855.0,,,75.0,12.0,12.0,1.0,1000.0,S-XL,0.0,S,XL,1.0,4.0,teabag,crane,teabag6,crane6,135.0,165.0,/static/Size_judgement/Stimuli/Size_stims/S/teabag/teabag6.jpg,/static/Size_judgement/Stimuli/Size_stims/XL/crane/crane2.jpg,0.0,crane,teabag,XL,S,4.0,1.0,crane6,teabag6,1.0,35.855,0.855,0.0,
40,,size_choice_confirmation,,html-keyboard-response,40,67670,0.0-1.0-51.0-0.0,0,0,15677,,,,,,12.0,,1.0,,,,,,,,,,,,,,,,,,,,,,,,,,36.5,0.645,,
41,,iti,,html-keyboard-response,41,68672,0.0-1.0-52.0,0,0,15677,,,,,,12.0,,1.0,,,,,,,,,,,,,,,,,,,,,,,,,,37.5,1.0,,
42,,size_choice,,html-keyboard-response,42,69294,0.0-1.0-54.0,0,0,15677,,620.0,,,75.0,13.0,13.0,1.0,1500.0,S-M,0.0,S,M,1.0,2.0,paperclip,ketchup,paperclip2,ketchup7,111.0,96.0,/static/Size_judgement/Stimuli/Size_stims/S/paperclip/paperclip8.jpg,/static/Size_judgement/Stimuli/Size_stims/M/ketchup/ketchup4.jpg,0.0,ketchup,paperclip,M,S,2.0,1.0,ketchup7,paperclip2,1.0,38.12,0.62,0.0,
43,,size_choice_confirmation,,html-keyboard-response,43,70175,0.0-1.0-55.0-0.0,0,0,15677,,,,,,13.0,,1.0,,,,,,,,,,,,,,,,,,,,,,,,,,39.0,0.88,,
44,,iti,,html-keyboard-response,44,71676,0.0-1.0-56.0,0,0,15677,,,,,,13.0,,1.0,,,,,,,,,,,,,,,,,,,,,,,,,,40.5,1.5,,
45,,size_choice,,html-keyboard-response,45,72342,0.0-1.0-58.0,0,0,15677,,665.0,,,75.0,14.0,14.0,1.0,2000.0,S-L,0.0,S,L,1.0,3.0,thread,garbagecan,thread6,garbagecan8,145.0,37.0,/static/Size_judgement/Stimuli/Size_stims/S/thread/thread2.jpg,/static/Size_judgement/Stimuli/Size_stims/L/garbagecan/garbagecan13.jpg,0.0,garbagecan,thread,L,S,3.0,1.0,garbagecan8,thread6,1.0,41.165,0.665,0.0,
46,,size_choice_confirmation,,html-keyboard-response,46,73180,0.0-1.0-59.0-0.0,0,0,15677,,,,,,14.0,,1.0,,,,,,,,,,,,,,,,,,,,,,,,,,42.0,0.835,,
47,,iti,,html-keyboard-response,47,75182,0.0-1.0-60.0,0,0,15677,,,,,,14.0,,1.0,,,,,,,,,,,,,,,,,,,,,,,,,,44.0,2.0,,
48,,size_choice,,html-keyboard-response,48,75919,0.0-1.0-62.0,0,0,15677,,736.0,,,75.0,15.0,15.0,1.0,1000.0,S-L,0.0,S,L,1.0,3.0,screws,dishwasher,screws4,dishwasher2,123.0,21.0,/static/Size_judgement/Stimuli/Size_stims/S/screws/screws6.jpg,/static/Size_judgement/Stimuli/Size_stims/L/dishwasher/dishwasher9.jpg,0.0,dishwasher,screws,L,S,3.0,1.0,dishwasher2,screws4,1.0,44.736,0.736,0.0,
49,,size_choice_confirmation,,html-keyboard-response,49,76685,0.0-1.0-63.0-0.0,0,0,15677,,,,,,15.0,,1.0,,,,,,,,,,,,,,,,,,,,,,,,,,45.5,0.764,,
50,,iti,,html-keyboard-response,50,77686,0.0-1.0-64.0,0,0,15677,,,,,,15.0,,1.0,,,,,,,,,,,,,,,,,,,,,,,,,,46.5,1.0,,
51,,size_choice,,html-keyboard-response,51,78847,0.0-1.0-66.0,0,0,15677,,1159.0,,,68.0,16.0,16.0,1.0,3000.0,XL-XL,,XL,XL,4.0,4.0,dumptruck,crane,dumptruck9,crane9,178.0,168.0,/static/Size_judgement/Stimuli/Size_stims/XL/dumptruck/dumptruck5.jpg,/static/Size_judgement/Stimuli/Size_stims/XL/crane/crane8.jpg,1.0,dumptruck,crane,XL,XL,4.0,4.0,dumptruck9,crane9,,47.659,1.159,0.0,
52,,size_choice_confirmation,,html-keyboard-response,52,79203,0.0-1.0-67.0-0.0,0,0,15677,,,,,,16.0,,1.0,,,,,,,,,,,,,,,,,,,,,,,,,,48.0,0.341,,
53,,iti,,html-keyboard-response,53,82205,0.0-1.0-68.0,0,0,15677,,,,,,16.0,,1.0,,,,,,,,,,,,,,,,,,,,,,,,,,51.0,3.0,,
54,,size_choice,,html-keyboard-response,54,83192,0.0-1.0-70.0,0,0,15677,,986.0,,,75.0,17.0,17.0,1.0,1000.0,L-L,,L,L,3.0,3.0,deskchair,mailbox,deskchair2,mailbox5,11.0,44.0,/static/Size_judgement/Stimuli/Size_stims/L/deskchair/deskchair8.jpg,/static/Size_judgement/Stimuli/Size_stims/L/mailbox/mailbox4.jpg,0.0,mailbox,deskchair,L,L,3.0,3.0,mailbox5,deskchair2,,51.986,0.986,0.0,
55,,size_choice_confirmation,,html-keyboard-response,55,83708,0.0-1.0-71.0-0.0,0,0,15677,,,,,,17.0,,1.0,,,,,,,,,,,,,,,,,,,,,,,,,,52.5,0.514,,
56,,iti,,html-keyboard-response,56,84710,0.0-1.0-72.0,0,0,15677,,,,,,17.0,,1.0,,,,,,,,,,,,,,,,,,,,,,,,,,53.5,1.0,,
57,,size_choice,,html-keyboard-response,57,85616,0.0-1.0-74.0,0,0,15677,,904.0,,,68.0,18.0,18.0,1.0,3000.0,M-XL,1.0,XL,M,4.0,2.0,van,coffeemaker,van2,coffeemaker8,191.0,67.0,/static/Size_judgement/Stimuli/Size_stims/XL/van/van4.jpg,/static/Size_judgement/Stimuli/Size_stims/M/coffeemaker/coffeemaker5.jpg,1.0,van,coffeemaker,XL,M,4.0,2.0,van2,coffeemaker8,1.0,54.404,0.904,0.0,
58,,size_choice_confirmation,,html-keyboard-response,58,86215,0.0-1.0-75.0-0.0,0,0,15677,,,,,,18.0,,1.0,,,,,,,,,,,,,,,,,,,,,,,,,,55.0,0.596,,
59,,iti,,html-keyboard-response,59,89218,0.0-1.0-76.0,0,0,15677,,,,,,18.0,,1.0,,,,,,,,,,,,,,,,,,,,,,,,,,58.0,3.0,,
60,,size_choice,,html-keyboard-response,60,89873,0.0-1.0-78.0,0,0,15677,,653.0,,,68.0,19.0,19.0,1.0,1000.0,M-XL,1.0,XL,M,4.0,2.0,tractor,handsaw,tractor6,handsaw1,185.0,80.0,/static/Size_judgement/Stimuli/Size_stims/XL/tractor/tractor3.jpg,/static/Size_judgement/Stimuli/Size_stims/M/handsaw/handsaw8.jpg,1.0,tractor,handsaw,XL,M,4.0,2.0,tractor6,handsaw1,1.0,58.653,0.653,0.0,
61,,size_choice_confirmation,,html-keyboard-response,61,90721,0.0-1.0-79.0-0.0,0,0,15677,,,,,,19.0,,1.0,,,,,,,,,,,,,,,,,,,,,,,,,,59.5,0.847,,
62,,iti,,html-keyboard-response,62,91723,0.0-1.0-80.0,0,0,15677,,,,,,19.0,,1.0,,,,,,,,,,,,,,,,,,,,,,,,,,60.5,1.0,,
63,,size_choice,,html-keyboard-response,63,92385,0.0-1.0-82.0,0,0,15677,,661.0,,,75.0,20.0,20.0,1.0,1000.0,M-XL,0.0,M,XL,2.0,4.0,hairdryer,van,hairdryer9,van1,78.0,190.0,/static/Size_judgement/Stimuli/Size_stims/M/hairdryer/hairdryer5.jpg,/static/Size_judgement/Stimuli/Size_stims/XL/van/van5.jpg,0.0,van,hairdryer,XL,M,4.0,2.0,van1,hairdryer9,1.0,61.161,0.661,0.0,
64,,size_choice_confirmation,,html-keyboard-response,64,93226,0.0-1.0-83.0-0.0,0,0,15677,,,,,,20.0,,1.0,,,,,,,,,,,,,,,,,,,,,,,,,,62.0,0.839,,
65,,iti,,html-keyboard-response,65,94227,0.0-1.0-84.0,0,0,15677,,,,,,20.0,,1.0,,,,,,,,,,,,,,,,,,,,,,,,,,63.0,1.0,,
66,,size_choice,,html-keyboard-response,66,95346,0.0-1.0-86.0,0,0,15677,,1118.0,,,75.0,21.0,21.0,1.0,1000.0,S-M,0.0,S,M,1.0,2.0,die,hairdryer,die6,hairdryer4,105.0,73.0,/static/Size_judgement/Stimuli/Size_stims/S/die/die1.jpg,/static/Size_judgement/Stimuli/Size_stims/M/hairdryer/hairdryer16.jpg,0.0,hairdryer,die,M,S,2.0,1.0,hairdryer4,die6,1.0,64.118,1.118,0.0,
67,,size_choice_confirmation,,html-keyboard-response,67,95729,0.0-1.0-87.0-0.0,0,0,15677,,,,,,21.0,,1.0,,,,,,,,,,,,,,,,,,,,,,,,,,64.5,0.382,,
68,,iti,,html-keyboard-response,68,96730,0.0-1.0-88.0,0,0,15677,,,,,,21.0,,1.0,,,,,,,,,,,,,,,,,,,,,,,,,,65.5,1.0,,
69,,size_choice,,html-keyboard-response,69,97378,0.0-1.0-90.0,0,0,15677,,647.0,,,68.0,22.0,22.0,1.0,1000.0,S-L,1.0,L,S,3.0,1.0,mailbox,teabag,mailbox3,teabag8,42.0,137.0,/static/Size_judgement/Stimuli/Size_stims/L/mailbox/mailbox1.jpg,/static/Size_judgement/Stimuli/Size_stims/S/teabag/teabag7.jpg,1.0,mailbox,teabag,L,S,3.0,1.0,mailbox3,teabag8,1.0,66.147,0.647,0.0,
70,,size_choice_confirmation,,html-keyboard-response,70,98232,0.0-1.0-91.0-0.0,0,0,15677,,,,,,22.0,,1.0,,,,,,,,,,,,,,,,,,,,,,,,,,67.0,0.853,,
71,,iti,,html-keyboard-response,71,99235,0.0-1.0-92.0,0,0,15677,,,,,,22.0,,1.0,,,,,,,,,,,,,,,,,,,,,,,,,,68.0,1.0,,
72,,size_choice,,html-keyboard-response,72,99826,0.0-1.0-94.0,0,0,15677,,590.0,,,68.0,23.0,23.0,1.0,1500.0,M-XL,1.0,XL,M,4.0,2.0,tractor,basketball,tractor4,basketball4,183.0,53.0,/static/Size_judgement/Stimuli/Size_stims/XL/tractor/tractor4.jpg,/static/Size_judgement/Stimuli/Size_stims/M/basketball/basketball1.jpg,1.0,tractor,basketball,XL,M,4.0,2.0,tractor4,basketball4,1.0,68.59,0.59,0.0,
73,,size_choice_confirmation,,html-keyboard-response,73,100738,0.0-1.0-95.0-0.0,0,0,15677,,,,,,23.0,,1.0,,,,,,,,,,,,,,,,,,,,,,,,,,69.5,0.91,,
74,,iti,,html-keyboard-response,74,102240,0.0-1.0-96.0,0,0,15677,,,,,,23.0,,1.0,,,,,,,,,,,,,,,,,,,,,,,,,,71.0,1.5,,
75,,size_choice,,html-keyboard-response,75,102843,0.0-1.0-98.0,0,0,15677,,602.0,,,68.0,24.0,24.0,1.0,2000.0,S-XL,1.0,XL,S,4.0,1.0,dumptruck,die,dumptruck6,die8,175.0,107.0,/static/Size_judgement/Stimuli/Size_stims/XL/dumptruck/dumptruck2.jpg,/static/Size_judgement/Stimuli/Size_stims/S/die/die5.jpg,1.0,dumptruck,die,XL,S,4.0,1.0,dumptruck6,die8,1.0,71.602,0.602,0.0,
76,,size_choice_confirmation,,html-keyboard-response,76,103743,0.0-1.0-99.0-0.0,0,0,15677,,,,,,24.0,,1.0,,,,,,,,,,,,,,,,,,,,,,,,,,72.5,0.898,,
77,,iti,,html-keyboard-response,77,105744,0.0-1.0-100.0,0,0,15677,,,,,,24.0,,1.0,,,,,,,,,,,,,,,,,,,,,,,,,,74.5,2.0,,
78,,size_choice,,html-keyboard-response,78,106388,0.0-1.0-102.0,0,0,15677,,641.0,,,68.0,25.0,25.0,1.0,1000.0,S-XL,1.0,XL,S,4.0,1.0,van,die,van10,die10,199.0,109.0,/static/Size_judgement/Stimuli/Size_stims/XL/van/van8.jpg,/static/Size_judgement/Stimuli/Size_stims/S/die/die6.jpg,1.0,van,die,XL,S,4.0,1.0,van10,die10,1.0,75.141,0.641,0.0,
79,,size_choice_confirmation,,html-keyboard-response,79,107248,0.0-1.0-103.0-0.0,0,0,15677,,,,,,25.0,,1.0,,,,,,,,,,,,,,,,,,,,,,,,,,76.0,0.859,,
80,,iti,,html-keyboard-response,80,108250,0.0-1.0-104.0,0,0,15677,,,,,,25.0,,1.0,,,,,,,,,,,,,,,,,,,,,,,,,,77.0,1.0,,
81,,size_choice,,html-keyboard-response,81,109316,0.0-1.0-106.0,0,0,15677,,1064.0,,,68.0,26.0,26.0,1.0,2000.0,M-M,,M,M,2.0,2.0,coffeemaker,hairdryer,coffeemaker5,hairdryer1,64.0,70.0,/static/Size_judgement/Stimuli/Size_stims/M/coffeemaker/coffeemaker10.jpg,/static/Size_judgement/Stimuli/Size_stims/M/hairdryer/hairdryer11.jpg,1.0,coffeemaker,hairdryer,M,M,2.0,2.0,coffeemaker5,hairdryer1,,78.064,1.064,0.0,
82,,size_choice_confirmation,,html-keyboard-response,82,109754,0.0-1.0-107.0-0.0,0,0,15677,,,,,,26.0,,1.0,,,,,,,,,,,,,,,,,,,,,,,,,,78.5,0.436,,
83,,iti,,html-keyboard-response,83,111756,0.0-1.0-108.0,0,0,15677,,,,,,26.0,,1.0,,,,,,,,,,,,,,,,,,,,,,,,,,80.5,2.0,,
84,,size_choice,,html-keyboard-response,84,112404,0.0-1.0-110.0,0,0,15677,,646.0,,,75.0,27.0,27.0,1.0,3000.0,XL-XL,,XL,XL,4.0,4.0,car,dumptruck,car7,dumptruck2,156.0,171.0,/static/Size_judgement/Stimuli/Size_stims/XL/car/car13.jpg,/static/Size_judgement/Stimuli/Size_stims/XL/dumptruck/dumptruck8.jpg,0.0,dumptruck,car,XL,XL,4.0,4.0,dumptruck2,car7,,81.146,0.646,0.0,
85,,size_choice_confirmation,,html-keyboard-response,85,113260,0.0-1.0-111.0-0.0,0,0,15677,,,,,,27.0,,1.0,,,,,,,,,,,,,,,,,,,,,,,,,,82.0,0.854,,
86,,iti,,html-keyboard-response,86,116261,0.0-1.0-112.0,0,0,15677,,,,,,27.0,,1.0,,,,,,,,,,,,,,,,,,,,,,,,,,85.0,3.0,,
87,,size_choice,,html-keyboard-response,87,116885,0.0-1.0-114.0,0,0,15677,,622.0,,,68.0,28.0,28.0,1.0,1000.0,M-L,1.0,L,M,3.0,2.0,mailbox,ketchup,mailbox2,ketchup6,41.0,95.0,/static/Size_judgement/Stimuli/Size_stims/L/mailbox/mailbox2.jpg,/static/Size_judgement/Stimuli/Size_stims/M/ketchup/ketchup1.jpg,1.0,mailbox,ketchup,L,M,3.0,2.0,mailbox2,ketchup6,1.0,85.622,0.622,0.0,
88,,size_choice_confirmation,,html-keyboard-response,88,117765,0.0-1.0-115.0-0.0,0,0,15677,,,,,,28.0,,1.0,,,,,,,,,,,,,,,,,,,,,,,,,,86.5,0.878,,
89,,iti,,html-keyboard-response,89,118767,0.0-1.0-116.0,0,0,15677,,,,,,28.0,,1.0,,,,,,,,,,,,,,,,,,,,,,,,,,87.5,1.0,,
90,,size_choice,,html-keyboard-response,90,119765,0.0-1.0-118.0,0,0,15677,,997.0,,,68.0,29.0,29.0,1.0,3500.0,L-XL,1.0,XL,L,4.0,3.0,van,cooler,van7,cooler5,196.0,4.0,/static/Size_judgement/Stimuli/Size_stims/XL/van/van1.jpg,/static/Size_judgement/Stimuli/Size_stims/L/cooler/cooler10.jpg,1.0,van,cooler,XL,L,4.0,3.0,van7,cooler5,1.0,88.497,0.997,0.0,
91,,size_choice_confirmation,,html-keyboard-response,91,120270,0.0-1.0-119.0-0.0,0,0,15677,,,,,,29.0,,1.0,,,,,,,,,,,,,,,,,,,,,,,,,,89.0,0.503,,
92,,iti,,html-keyboard-response,92,123772,0.0-1.0-120.0,0,0,15677,,,,,,29.0,,1.0,,,,,,,,,,,,,,,,,,,,,,,,,,92.5,3.5,,
93,,size_choice,,html-keyboard-response,93,124830,0.0-1.0-122.0,0,0,15677,,1056.0,,,68.0,30.0,30.0,1.0,1000.0,S-S,,S,S,1.0,1.0,paperclip,teabag,paperclip9,teabag2,118.0,131.0,/static/Size_judgement/Stimuli/Size_stims/S/paperclip/paperclip4.jpg,/static/Size_judgement/Stimuli/Size_stims/S/teabag/teabag8.jpg,1.0,paperclip,teabag,S,S,1.0,1.0,paperclip9,teabag2,,93.556,1.056,0.0,
94,,size_choice_confirmation,,html-keyboard-response,94,125278,0.0-1.0-123.0-0.0,0,0,15677,,,,,,30.0,,1.0,,,,,,,,,,,,,,,,,,,,,,,,,,94.0,0.444,,
95,,iti,,html-keyboard-response,95,126280,0.0-1.0-124.0,0,0,15677,,,,,,30.0,,1.0,,,,,,,,,,,,,,,,,,,,,,,,,,95.0,1.0,,
96,,size_choice,,html-keyboard-response,96,127534,0.0-1.0-126.0,0,0,15677,,1252.0,,,68.0,31.0,31.0,1.0,1500.0,S-S,,S,S,1.0,1.0,thread,screws,thread4,screws8,143.0,127.0,/static/Size_judgement/Stimuli/Size_stims/S/thread/thread5.jpg,/static/Size_judgement/Stimuli/Size_stims/S/screws/screws10.jpg,1.0,thread,screws,S,S,1.0,1.0,thread4,screws8,,96.252,1.252,0.0,
97,,size_choice_confirmation,,html-keyboard-response,97,127784,0.0-1.0-127.0-0.0,0,0,15677,,,,,,31.0,,1.0,,,,,,,,,,,,,,,,,,,,,,,,,,96.5,0.248,,
98,,iti,,html-keyboard-response,98,129286,0.0-1.0-128.0,0,0,15677,,,,,,31.0,,1.0,,,,,,,,,,,,,,,,,,,,,,,,,,98.0,1.5,,
99,,size_choice,,html-keyboard-response,99,130070,0.0-1.0-130.0,0,0,15677,,782.0,,,75.0,32.0,32.0,1.0,2000.0,S-XL,0.0,S,XL,1.0,4.0,die,crane,die7,crane8,106.0,167.0,/static/Size_judgement/Stimuli/Size_stims/S/die/die4.jpg,/static/Size_judgement/Stimuli/Size_stims/XL/crane/crane10.jpg,0.0,crane,die,XL,S,4.0,1.0,crane8,die7,1.0,98.782,0.782,0.0,
100,,size_choice_confirmation,,html-keyboard-response,100,130789,0.0-1.0-131.0-0.0,0,0,15677,,,,,,32.0,,1.0,,,,,,,,,,,,,,,,,,,,,,,,,,99.5,0.718,,
101,,iti,,html-keyboard-response,101,132791,0.0-1.0-132.0,0,0,15677,,,,,,32.0,,1.0,,,,,,,,,,,,,,,,,,,,,,,,,,101.5,2.0,,
102,,size_choice,,html-keyboard-response,102,133479,0.0-1.0-134.0,0,0,15677,,687.0,,,68.0,33.0,33.0,1.0,1000.0,M-M,,M,M,2.0,2.0,hairdryer,handsaw,hairdryer3,handsaw3,72.0,82.0,/static/Size_judgement/Stimuli/Size_stims/M/hairdryer/hairdryer17.jpg,/static/Size_judgement/Stimuli/Size_stims/M/handsaw/handsaw2.jpg,1.0,hairdryer,handsaw,M,M,2.0,2.0,hairdryer3,handsaw3,,102.187,0.687,0.0,
103,,size_choice_confirmation,,html-keyboard-response,103,134293,0.0-1.0-135.0-0.0,0,0,15677,,,,,,33.0,,1.0,,,,,,,,,,,,,,,,,,,,,,,,,,103.0,0.813,,
104,,iti,,html-keyboard-response,104,135294,0.0-1.0-136.0,0,0,15677,,,,,,33.0,,1.0,,,,,,,,,,,,,,,,,,,,,,,,,,104.0,1.0,,
105,,size_choice,,html-keyboard-response,105,136797,0.0-1.0-138.0,0,0,15677,,,,,,34.0,34.0,1.0,1500.0,L-L,,L,L,3.0,3.0,garbagecan,cooler,garbagecan9,cooler1,38.0,0.0,/static/Size_judgement/Stimuli/Size_stims/L/garbagecan/garbagecan12.jpg,/static/Size_judgement/Stimuli/Size_stims/L/cooler/cooler8.jpg,,,,,,,,,,,105.5,1.5,1.0,
106,,iti,,html-keyboard-response,106,138299,0.0-1.0-140.0,0,0,15677,,,,,,34.0,,1.0,,,,,,,,,,,,,,,,,,,,,,,,,,107.0,1.5,,
107,,size_choice,,html-keyboard-response,107,138960,0.0-1.0-142.0,0,0,15677,,660.0,,,68.0,35.0,35.0,1.0,2000.0,S-L,1.0,L,S,3.0,1.0,cooler,teabag,cooler9,teabag1,8.0,130.0,/static/Size_judgement/Stimuli/Size_stims/L/cooler/cooler7.jpg,/static/Size_judgement/Stimuli/Size_stims/S/teabag/teabag9.jpg,1.0,cooler,teabag,L,S,3.0,1.0,cooler9,teabag1,1.0,107.66,0.66,0.0,
108,,size_choice_confirmation,,html-keyboard-response,108,139801,0.0-1.0-143.0-0.0,0,0,15677,,,,,,35.0,,1.0,,,,,,,,,,,,,,,,,,,,,,,,,,108.5,0.84,,
109,,iti,,html-keyboard-response,109,141803,0.0-1.0-144.0,0,0,15677,,,,,,35.0,,1.0,,,,,,,,,,,,,,,,,,,,,,,,,,110.5,2.0,,
110,,size_choice,,html-keyboard-response,110,142424,0.0-1.0-146.0,0,0,15677,,620.0,,,68.0,36.0,36.0,1.0,3500.0,M-L,1.0,L,M,3.0,2.0,garbagecan,ketchup,garbagecan3,ketchup5,32.0,94.0,/static/Size_judgement/Stimuli/Size_stims/L/garbagecan/garbagecan7.jpg,/static/Size_judgement/Stimuli/Size_stims/M/ketchup/ketchup3.jpg,1.0,garbagecan,ketchup,L,M,3.0,2.0,garbagecan3,ketchup5,1.0,111.12,0.62,0.0,
111,,size_choice_confirmation,,html-keyboard-response,111,143305,0.0-1.0-147.0-0.0,0,0,15677,,,,,,36.0,,1.0,,,,,,,,,,,,,,,,,,,,,,,,,,112.0,0.88,,
112,,iti,,html-keyboard-response,112,146807,0.0-1.0-148.0,0,0,15677,,,,,,36.0,,1.0,,,,,,,,,,,,,,,,,,,,,,,,,,115.5,3.5,,
113,,size_choice,,html-keyboard-response,113,147465,0.0-1.0-150.0,0,0,15677,,655.0,,,68.0,37.0,37.0,1.0,1500.0,M-L,1.0,L,M,3.0,2.0,mailbox,ketchup,mailbox6,ketchup4,45.0,93.0,/static/Size_judgement/Stimuli/Size_stims/L/mailbox/mailbox6.jpg,/static/Size_judgement/Stimuli/Size_stims/M/ketchup/ketchup2.jpg,1.0,mailbox,ketchup,L,M,3.0,2.0,mailbox6,ketchup4,1.0,116.155,0.655,0.0,
114,,size_choice_confirmation,,html-keyboard-response,114,148311,0.0-1.0-151.0-0.0,0,0,15677,,,,,,37.0,,1.0,,,,,,,,,,,,,,,,,,,,,,,,,,117.0,0.845,,
115,,iti,,html-keyboard-response,115,149813,0.0-1.0-152.0,0,0,15677,,,,,,37.0,,1.0,,,,,,,,,,,,,,,,,,,,,,,,,,118.5,1.5,,
116,,size_choice,,html-keyboard-response,116,150409,0.0-1.0-154.0,0,0,15677,,594.0,,,68.0,38.0,38.0,1.0,1000.0,L-L,,L,L,3.0,3.0,mailbox,garbagecan,mailbox8,garbagecan4,47.0,33.0,/static/Size_judgement/Stimuli/Size_stims/L/mailbox/mailbox10.jpg,/static/Size_judgement/Stimuli/Size_stims/L/garbagecan/garbagecan6.jpg,1.0,mailbox,garbagecan,L,L,3.0,3.0,mailbox8,garbagecan4,,119.094,0.594,0.0,
117,,size_choice_confirmation,,html-keyboard-response,117,151318,0.0-1.0-155.0-0.0,0,0,15677,,,,,,38.0,,1.0,,,,,,,,,,,,,,,,,,,,,,,,,,120.0,0.906,,
118,,iti,,html-keyboard-response,118,152320,0.0-1.0-156.0,0,0,15677,,,,,,38.0,,1.0,,,,,,,,,,,,,,,,,,,,,,,,,,121.0,1.0,,
119,,size_choice,,html-keyboard-response,119,153538,0.0-1.0-158.0,0,0,15677,,1215.0,,,68.0,39.0,39.0,1.0,1000.0,M-M,,M,M,2.0,2.0,basketball,hairdryer,basketball6,hairdryer7,55.0,76.0,/static/Size_judgement/Stimuli/Size_stims/M/basketball/basketball2.jpg,/static/Size_judgement/Stimuli/Size_stims/M/hairdryer/hairdryer3.jpg,1.0,basketball,hairdryer,M,M,2.0,2.0,basketball6,hairdryer7,,122.215,1.215,0.0,
120,,size_choice_confirmation,,html-keyboard-response,120,153824,0.0-1.0-159.0-0.0,0,0,15677,,,,,,39.0,,1.0,,,,,,,,,,,,,,,,,,,,,,,,,,122.5,0.285,,
121,,iti,,html-keyboard-response,121,154826,0.0-1.0-160.0,0,0,15677,,,,,,39.0,,1.0,,,,,,,,,,,,,,,,,,,,,,,,,,123.5,1.0,,
122,,size_choice,,html-keyboard-response,122,155538,0.0-1.0-162.0,0,0,15677,,710.0,,,68.0,40.0,40.0,1.0,3000.0,S-XL,1.0,XL,S,4.0,1.0,crane,thread,crane7,thread5,166.0,144.0,/static/Size_judgement/Stimuli/Size_stims/XL/crane/crane3.jpg,/static/Size_judgement/Stimuli/Size_stims/S/thread/thread1.jpg,1.0,crane,thread,XL,S,4.0,1.0,crane7,thread5,1.0,124.21,0.71,0.0,
123,,size_choice_confirmation,,html-keyboard-response,123,156331,0.0-1.0-163.0-0.0,0,0,15677,,,,,,40.0,,1.0,,,,,,,,,,,,,,,,,,,,,,,,,,125.0,0.79,,
124,,iti,,html-keyboard-response,124,159333,0.0-1.0-164.0,0,0,15677,,,,,,40.0,,1.0,,,,,,,,,,,,,,,,,,,,,,,,,,128.0,3.0,,
125,,size_choice,,html-keyboard-response,125,160058,0.0-1.0-166.0,0,0,15677,,724.0,,,75.0,41.0,41.0,1.0,1000.0,S-XL,0.0,S,XL,1.0,4.0,teabag,tractor,teabag7,tractor7,136.0,186.0,/static/Size_judgement/Stimuli/Size_stims/S/teabag/teabag10.jpg,/static/Size_judgement/Stimuli/Size_stims/XL/tractor/tractor2.jpg,0.0,tractor,teabag,XL,S,4.0,1.0,tractor7,teabag7,1.0,128.724,0.724,0.0,
126,,size_choice_confirmation,,html-keyboard-response,126,160837,0.0-1.0-167.0-0.0,0,0,15677,,,,,,41.0,,1.0,,,,,,,,,,,,,,,,,,,,,,,,,,129.5,0.776,,
127,,iti,,html-keyboard-response,127,161838,0.0-1.0-168.0,0,0,15677,,,,,,41.0,,1.0,,,,,,,,,,,,,,,,,,,,,,,,,,130.5,1.0,,
128,,size_choice,,html-keyboard-response,128,162579,0.0-1.0-170.0,0,0,15677,,740.0,,,75.0,42.0,42.0,1.0,1500.0,L-XL,0.0,L,XL,3.0,4.0,garbagecan,car,garbagecan10,car6,39.0,155.0,/static/Size_judgement/Stimuli/Size_stims/L/garbagecan/garbagecan11.jpg,/static/Size_judgement/Stimuli/Size_stims/XL/car/car12.jpg,0.0,car,garbagecan,XL,L,4.0,3.0,car6,garbagecan10,1.0,131.24,0.74,0.0,
129,,size_choice_confirmation,,html-keyboard-response,129,163342,0.0-1.0-171.0-0.0,0,0,15677,,,,,,42.0,,1.0,,,,,,,,,,,,,,,,,,,,,,,,,,132.0,0.76,,
130,,iti,,html-keyboard-response,130,164844,0.0-1.0-172.0,0,0,15677,,,,,,42.0,,1.0,,,,,,,,,,,,,,,,,,,,,,,,,,133.5,1.5,,
131,,size_choice,,html-keyboard-response,131,165419,0.0-1.0-174.0,0,0,15677,,574.0,,,68.0,43.0,43.0,1.0,3500.0,M-XL,1.0,XL,M,4.0,2.0,car,coffeemaker,car4,coffeemaker9,153.0,68.0,/static/Size_judgement/Stimuli/Size_stims/XL/car/car6.jpg,/static/Size_judgement/Stimuli/Size_stims/M/coffeemaker/coffeemaker7.jpg,1.0,car,coffeemaker,XL,M,4.0,2.0,car4,coffeemaker9,1.0,134.074,0.574,0.0,
132,,size_choice_confirmation,,html-keyboard-response,132,166347,0.0-1.0-175.0-0.0,0,0,15677,,,,,,43.0,,1.0,,,,,,,,,,,,,,,,,,,,,,,,,,135.0,0.926,,
133,,iti,,html-keyboard-response,133,169848,0.0-1.0-176.0,0,0,15677,,,,,,43.0,,1.0,,,,,,,,,,,,,,,,,,,,,,,,,,138.5,3.5,,
134,,size_choice,,html-keyboard-response,134,170460,0.0-1.0-178.0,0,0,15677,,609.0,,,75.0,44.0,44.0,1.0,2000.0,L-XL,0.0,L,XL,3.0,4.0,cooler,car,cooler4,car5,3.0,154.0,/static/Size_judgement/Stimuli/Size_stims/L/cooler/cooler3.jpg,/static/Size_judgement/Stimuli/Size_stims/XL/car/car11.jpg,0.0,car,cooler,XL,L,4.0,3.0,car5,cooler4,1.0,139.109,0.609,0.0,
135,,size_choice_confirmation,,html-keyboard-response,135,171353,0.0-1.0-179.0-0.0,0,0,15677,,,,,,44.0,,1.0,,,,,,,,,,,,,,,,,,,,,,,,,,140.0,0.891,,
136,,iti,,html-keyboard-response,136,173355,0.0-1.0-180.0,0,0,15677,,,,,,44.0,,1.0,,,,,,,,,,,,,,,,,,,,,,,,,,142.0,2.0,,
137,,block_over,,html-keyboard-response,137,177373,0.0-1.0-181.0-0.0,0,0,15677,,4017.0,,,68.0,44.0,,,,,,,,,,,,,,,,,,,,,,,,,,,,,,,
138,,size_choice,,html-keyboard-response,138,178437,0.0-1.0-182.0,0,0,15677,,1063.0,,,75.0,45.0,45.0,2.0,3500.0,S-M,0.0,S,M,1.0,2.0,screws,handsaw,screws5,handsaw6,124.0,85.0,/static/Size_judgement/Stimuli/Size_stims/S/screws/screws2.jpg,/static/Size_judgement/Stimuli/Size_stims/M/handsaw/handsaw4.jpg,0.0,handsaw,screws,M,S,2.0,1.0,handsaw6,screws5,1.0,143.063,1.063,0.0,
139,,size_choice_confirmation,,html-keyboard-response,139,178876,0.0-1.0-183.0-0.0,0,0,15677,,,,,,45.0,,2.0,,,,,,,,,,,,,,,,,,,,,,,,,,143.5,0.437,,
140,,iti,,html-keyboard-response,140,182378,0.0-1.0-184.0,0,0,15677,,,,,,45.0,,2.0,,,,,,,,,,,,,,,,,,,,,,,,,,147.0,3.5,,
141,,size_choice,,html-keyboard-response,141,183510,0.0-1.0-186.0,0,0,15677,,1129.0,,,68.0,46.0,46.0,2.0,1000.0,S-S,,S,S,1.0,1.0,screws,paperclip,screws9,paperclip6,128.0,115.0,/static/Size_judgement/Stimuli/Size_stims/S/screws/screws8.jpg,/static/Size_judgement/Stimuli/Size_stims/S/paperclip/paperclip6.jpg,1.0,screws,paperclip,S,S,1.0,1.0,screws9,paperclip6,,148.129,1.129,0.0,
142,,size_choice_confirmation,,html-keyboard-response,142,183882,0.0-1.0-187.0-0.0,0,0,15677,,,,,,46.0,,2.0,,,,,,,,,,,,,,,,,,,,,,,,,,148.5,0.371,,
143,,iti,,html-keyboard-response,143,184884,0.0-1.0-188.0,0,0,15677,,,,,,46.0,,2.0,,,,,,,,,,,,,,,,,,,,,,,,,,149.5,1.0,,
144,,size_choice,,html-keyboard-response,144,185678,0.0-1.0-190.0,0,0,15677,,792.0,,,68.0,47.0,47.0,2.0,2000.0,M-XL,1.0,XL,M,4.0,2.0,crane,basketball,crane5,basketball5,164.0,54.0,/static/Size_judgement/Stimuli/Size_stims/XL/crane/crane1.jpg,/static/Size_judgement/Stimuli/Size_stims/M/basketball/basketball3.jpg,1.0,crane,basketball,XL,M,4.0,2.0,crane5,basketball5,1.0,150.292,0.792,0.0,
145,,size_choice_confirmation,,html-keyboard-response,145,186387,0.0-1.0-191.0-0.0,0,0,15677,,,,,,47.0,,2.0,,,,,,,,,,,,,,,,,,,,,,,,,,151.0,0.708,,
146,,iti,,html-keyboard-response,146,188401,0.0-1.0-192.0,0,0,15677,,,,,,47.0,,2.0,,,,,,,,,,,,,,,,,,,,,,,,,,153.0,2.0,,
147,,size_choice,,html-keyboard-response,147,189047,0.0-1.0-194.0,0,0,15677,,643.0,,,75.0,48.0,48.0,2.0,1000.0,M-L,0.0,M,L,2.0,3.0,hairdryer,mailbox,hairdryer6,mailbox10,75.0,49.0,/static/Size_judgement/Stimuli/Size_stims/M/hairdryer/hairdryer8.jpg,/static/Size_judgement/Stimuli/Size_stims/L/mailbox/mailbox8.jpg,0.0,mailbox,hairdryer,L,M,3.0,2.0,mailbox10,hairdryer6,1.0,153.643,0.643,0.0,
148,,size_choice_confirmation,,html-keyboard-response,148,189905,0.0-1.0-195.0-0.0,0,0,15677,,,,,,48.0,,2.0,,,,,,,,,,,,,,,,,,,,,,,,,,154.5,0.857,,
149,,iti,,html-keyboard-response,149,190907,0.0-1.0-196.0,0,0,15677,,,,,,48.0,,2.0,,,,,,,,,,,,,,,,,,,,,,,,,,155.5,1.0,,
150,,size_choice,,html-keyboard-response,150,191791,0.0-1.0-198.0,0,0,15677,,882.0,,,68.0,49.0,49.0,2.0,2000.0,M-XL,1.0,XL,M,4.0,2.0,tractor,coffeemaker,tractor5,coffeemaker1,184.0,60.0,/static/Size_judgement/Stimuli/Size_stims/XL/tractor/tractor1.jpg,/static/Size_judgement/Stimuli/Size_stims/M/coffeemaker/coffeemaker14.jpg,1.0,tractor,coffeemaker,XL,M,4.0,2.0,tractor5,coffeemaker1,1.0,156.382,0.882,0.0,
151,,size_choice_confirmation,,html-keyboard-response,151,192410,0.0-1.0-199.0-0.0,0,0,15677,,,,,,49.0,,2.0,,,,,,,,,,,,,,,,,,,,,,,,,,157.0,0.618,,
152,,iti,,html-keyboard-response,152,194412,0.0-1.0-200.0,0,0,15677,,,,,,49.0,,2.0,,,,,,,,,,,,,,,,,,,,,,,,,,159.0,2.0,,
153,,size_choice,,html-keyboard-response,153,195143,0.0-1.0-202.0,0,0,15677,,729.0,,,68.0,50.0,50.0,2.0,1000.0,S-XL,1.0,XL,S,4.0,1.0,car,teabag,car9,teabag10,158.0,139.0,/static/Size_judgement/Stimuli/Size_stims/XL/car/car15.jpg,/static/Size_judgement/Stimuli/Size_stims/S/teabag/teabag4.jpg,1.0,car,teabag,XL,S,4.0,1.0,car9,teabag10,1.0,159.729,0.729,0.0,
154,,size_choice_confirmation,,html-keyboard-response,154,195915,0.0-1.0-203.0-0.0,0,0,15677,,,,,,50.0,,2.0,,,,,,,,,,,,,,,,,,,,,,,,,,160.5,0.771,,
155,,iti,,html-keyboard-response,155,196917,0.0-1.0-204.0,0,0,15677,,,,,,50.0,,2.0,,,,,,,,,,,,,,,,,,,,,,,,,,161.5,1.0,,
156,,size_choice,,html-keyboard-response,156,197472,0.0-1.0-206.0,0,0,15677,,552.0,,,75.0,51.0,51.0,2.0,1500.0,XL-XL,,XL,XL,4.0,4.0,crane,car,crane10,car8,169.0,157.0,/static/Size_judgement/Stimuli/Size_stims/XL/crane/crane9.jpg,/static/Size_judgement/Stimuli/Size_stims/XL/car/car14.jpg,0.0,car,crane,XL,XL,4.0,4.0,car8,crane10,,162.052,0.552,0.0,
157,,size_choice_confirmation,,html-keyboard-response,157,198421,0.0-1.0-207.0-0.0,0,0,15677,,,,,,51.0,,2.0,,,,,,,,,,,,,,,,,,,,,,,,,,163.0,0.948,,
158,,iti,,html-keyboard-response,158,199923,0.0-1.0-208.0,0,0,15677,,,,,,51.0,,2.0,,,,,,,,,,,,,,,,,,,,,,,,,,164.5,1.5,,
159,,size_choice,,html-keyboard-response,159,201041,0.0-1.0-210.0,0,0,15677,,1115.0,,,75.0,52.0,52.0,2.0,1000.0,M-L,0.0,M,L,2.0,3.0,coffeemaker,dishwasher,coffeemaker2,dishwasher3,61.0,22.0,/static/Size_judgement/Stimuli/Size_stims/M/coffeemaker/coffeemaker12.jpg,/static/Size_judgement/Stimuli/Size_stims/L/dishwasher/dishwasher8.jpg,0.0,dishwasher,coffeemaker,L,M,3.0,2.0,dishwasher3,coffeemaker2,1.0,165.615,1.115,0.0,
160,,size_choice_confirmation,,html-keyboard-response,160,201427,0.0-1.0-211.0-0.0,0,0,15677,,,,,,52.0,,2.0,,,,,,,,,,,,,,,,,,,,,,,,,,166.0,0.385,,
161,,iti,,html-keyboard-response,161,202428,0.0-1.0-212.0,0,0,15677,,,,,,52.0,,2.0,,,,,,,,,,,,,,,,,,,,,,,,,,167.0,1.0,,
162,,size_choice,,html-keyboard-response,162,203112,0.0-1.0-214.0,0,0,15677,,683.0,,,68.0,53.0,53.0,2.0,3000.0,S-L,1.0,L,S,3.0,1.0,deskchair,paperclip,deskchair4,paperclip7,13.0,116.0,/static/Size_judgement/Stimuli/Size_stims/L/deskchair/deskchair6.jpg,/static/Size_judgement/Stimuli/Size_stims/S/paperclip/paperclip7.jpg,1.0,deskchair,paperclip,L,S,3.0,1.0,deskchair4,paperclip7,1.0,167.683,0.683,0.0,
163,,size_choice_confirmation,,html-keyboard-response,163,203940,0.0-1.0-215.0-0.0,0,0,15677,,,,,,53.0,,2.0,,,,,,,,,,,,,,,,,,,,,,,,,,168.5,0.817,,
164,,iti,,html-keyboard-response,164,206942,0.0-1.0-216.0,0,0,15677,,,,,,53.0,,2.0,,,,,,,,,,,,,,,,,,,,,,,,,,171.5,3.0,,
165,,size_choice,,html-keyboard-response,165,207873,0.0-1.0-218.0,0,0,15677,,929.0,,,68.0,54.0,54.0,2.0,2000.0,S-S,,S,S,1.0,1.0,screws,paperclip,screws1,paperclip10,120.0,119.0,/static/Size_judgement/Stimuli/Size_stims/S/screws/screws4.jpg,/static/Size_judgement/Stimuli/Size_stims/S/paperclip/paperclip10.jpg,1.0,screws,paperclip,S,S,1.0,1.0,screws1,paperclip10,,172.429,0.929,0.0,
166,,size_choice_confirmation,,html-keyboard-response,166,208446,0.0-1.0-219.0-0.0,0,0,15677,,,,,,54.0,,2.0,,,,,,,,,,,,,,,,,,,,,,,,,,173.0,0.571,,
167,,iti,,html-keyboard-response,167,210447,0.0-1.0-220.0,0,0,15677,,,,,,54.0,,2.0,,,,,,,,,,,,,,,,,,,,,,,,,,175.0,2.0,,
168,,size_choice,,html-keyboard-response,168,211130,0.0-1.0-222.0,0,0,15677,,682.0,,,68.0,55.0,55.0,2.0,1500.0,M-L,1.0,L,M,3.0,2.0,dishwasher,ketchup,dishwasher5,ketchup2,24.0,91.0,/static/Size_judgement/Stimuli/Size_stims/L/dishwasher/dishwasher4.jpg,/static/Size_judgement/Stimuli/Size_stims/M/ketchup/ketchup9.jpg,1.0,dishwasher,ketchup,L,M,3.0,2.0,dishwasher5,ketchup2,1.0,175.682,0.682,0.0,
169,,size_choice_confirmation,,html-keyboard-response,169,211949,0.0-1.0-223.0-0.0,0,0,15677,,,,,,55.0,,2.0,,,,,,,,,,,,,,,,,,,,,,,,,,176.5,0.818,,
170,,iti,,html-keyboard-response,170,213451,0.0-1.0-224.0,0,0,15677,,,,,,55.0,,2.0,,,,,,,,,,,,,,,,,,,,,,,,,,178.0,1.5,,
171,,size_choice,,html-keyboard-response,171,214130,0.0-1.0-226.0,0,0,15677,,677.0,,,75.0,56.0,56.0,2.0,1000.0,M-L,0.0,M,L,2.0,3.0,hairdryer,deskchair,hairdryer5,deskchair3,74.0,12.0,/static/Size_judgement/Stimuli/Size_stims/M/hairdryer/hairdryer15.jpg,/static/Size_judgement/Stimuli/Size_stims/L/deskchair/deskchair10.jpg,0.0,deskchair,hairdryer,L,M,3.0,2.0,deskchair3,hairdryer5,1.0,178.677,0.677,0.0,
172,,size_choice_confirmation,,html-keyboard-response,172,214955,0.0-1.0-227.0-0.0,0,0,15677,,,,,,56.0,,2.0,,,,,,,,,,,,,,,,,,,,,,,,,,179.5,0.823,,
173,,iti,,html-keyboard-response,173,215957,0.0-1.0-228.0,0,0,15677,,,,,,56.0,,2.0,,,,,,,,,,,,,,,,,,,,,,,,,,180.5,1.0,,
174,,size_choice,,html-keyboard-response,174,216538,0.0-1.0-230.0,0,0,15677,,580.0,,,75.0,57.0,57.0,2.0,1000.0,S-XL,0.0,S,XL,1.0,4.0,thread,dumptruck,thread7,dumptruck1,146.0,170.0,/static/Size_judgement/Stimuli/Size_stims/S/thread/thread3.jpg,/static/Size_judgement/Stimuli/Size_stims/XL/dumptruck/dumptruck9.jpg,0.0,dumptruck,thread,XL,S,4.0,1.0,dumptruck1,thread7,1.0,181.08,0.58,0.0,
175,,size_choice_confirmation,,html-keyboard-response,175,217460,0.0-1.0-231.0-0.0,0,0,15677,,,,,,57.0,,2.0,,,,,,,,,,,,,,,,,,,,,,,,,,182.0,0.92,,
176,,iti,,html-keyboard-response,176,218462,0.0-1.0-232.0,0,0,15677,,,,,,57.0,,2.0,,,,,,,,,,,,,,,,,,,,,,,,,,183.0,1.0,,
177,,size_choice,,html-keyboard-response,177,219307,0.0-1.0-234.0,0,0,15677,,843.0,,,75.0,58.0,58.0,2.0,1000.0,S-L,0.0,S,L,1.0,3.0,teabag,dishwasher,teabag9,dishwasher6,138.0,25.0,/static/Size_judgement/Stimuli/Size_stims/S/teabag/teabag5.jpg,/static/Size_judgement/Stimuli/Size_stims/L/dishwasher/dishwasher6.jpg,0.0,dishwasher,teabag,L,S,3.0,1.0,dishwasher6,teabag9,1.0,183.843,0.843,0.0,
178,,size_choice_confirmation,,html-keyboard-response,178,219965,0.0-1.0-235.0-0.0,0,0,15677,,,,,,58.0,,2.0,,,,,,,,,,,,,,,,,,,,,,,,,,184.5,0.657,,
179,,iti,,html-keyboard-response,179,220967,0.0-1.0-236.0,0,0,15677,,,,,,58.0,,2.0,,,,,,,,,,,,,,,,,,,,,,,,,,185.5,1.0,,
180,,size_choice,,html-keyboard-response,180,221619,0.0-1.0-238.0,0,0,15677,,650.0,,,68.0,59.0,59.0,2.0,1000.0,M-M,,M,M,2.0,2.0,basketball,ketchup,basketball2,ketchup10,51.0,99.0,/static/Size_judgement/Stimuli/Size_stims/M/basketball/basketball8.jpg,/static/Size_judgement/Stimuli/Size_stims/M/ketchup/ketchup6.jpg,1.0,basketball,ketchup,M,M,2.0,2.0,basketball2,ketchup10,,186.15,0.65,0.0,
181,,size_choice_confirmation,,html-keyboard-response,181,222470,0.0-1.0-239.0-0.0,0,0,15677,,,,,,59.0,,2.0,,,,,,,,,,,,,,,,,,,,,,,,,,187.0,0.85,,
182,,iti,,html-keyboard-response,182,223472,0.0-1.0-240.0,0,0,15677,,,,,,59.0,,2.0,,,,,,,,,,,,,,,,,,,,,,,,,,188.0,1.0,,
183,,size_choice,,html-keyboard-response,183,224091,0.0-1.0-242.0,0,0,15677,,617.0,,,75.0,60.0,60.0,2.0,1500.0,M-XL,0.0,M,XL,2.0,4.0,ketchup,dumptruck,ketchup1,dumptruck3,90.0,172.0,/static/Size_judgement/Stimuli/Size_stims/M/ketchup/ketchup8.jpg,/static/Size_judgement/Stimuli/Size_stims/XL/dumptruck/dumptruck10.jpg,0.0,dumptruck,ketchup,XL,M,4.0,2.0,dumptruck3,ketchup1,1.0,188.617,0.617,0.0,
184,,size_choice_confirmation,,html-keyboard-response,184,224976,0.0-1.0-243.0-0.0,0,0,15677,,,,,,60.0,,2.0,,,,,,,,,,,,,,,,,,,,,,,,,,189.5,0.883,,
185,,iti,,html-keyboard-response,185,226479,0.0-1.0-244.0,0,0,15677,,,,,,60.0,,2.0,,,,,,,,,,,,,,,,,,,,,,,,,,191.0,1.5,,
186,,size_choice,,html-keyboard-response,186,226988,0.0-1.0-246.0,0,0,15677,,506.0,,,75.0,61.0,61.0,2.0,1500.0,M-XL,0.0,M,XL,2.0,4.0,basketball,tractor,basketball1,tractor1,50.0,180.0,/static/Size_judgement/Stimuli/Size_stims/M/basketball/basketball9.jpg,/static/Size_judgement/Stimuli/Size_stims/XL/tractor/tractor6.jpg,0.0,tractor,basketball,XL,M,4.0,2.0,tractor1,basketball1,1.0,191.506,0.506,0.0,
187,,size_choice_confirmation,,html-keyboard-response,187,227983,0.0-1.0-247.0-0.0,0,0,15677,,,,,,61.0,,2.0,,,,,,,,,,,,,,,,,,,,,,,,,,192.5,0.994,,
188,,iti,,html-keyboard-response,188,229485,0.0-1.0-248.0,0,0,15677,,,,,,61.0,,2.0,,,,,,,,,,,,,,,,,,,,,,,,,,194.0,1.5,,
189,,size_choice,,html-keyboard-response,189,230172,0.0-1.0-250.0,0,0,15677,,686.0,,,75.0,62.0,62.0,2.0,3000.0,L-XL,0.0,L,XL,3.0,4.0,cooler,van,cooler2,van9,1.0,198.0,/static/Size_judgement/Stimuli/Size_stims/L/cooler/cooler9.jpg,/static/Size_judgement/Stimuli/Size_stims/XL/van/van9.jpg,0.0,van,cooler,XL,L,4.0,3.0,van9,cooler2,1.0,194.686,0.686,0.0,
190,,size_choice_confirmation,,html-keyboard-response,190,230988,0.0-1.0-251.0-0.0,0,0,15677,,,,,,62.0,,2.0,,,,,,,,,,,,,,,,,,,,,,,,,,195.5,0.814,,
191,,iti,,html-keyboard-response,191,233989,0.0-1.0-252.0,0,0,15677,,,,,,62.0,,2.0,,,,,,,,,,,,,,,,,,,,,,,,,,198.5,3.0,,
192,,size_choice,,html-keyboard-response,192,234893,0.0-1.0-254.0,0,0,15677,,903.0,,,75.0,63.0,63.0,2.0,3500.0,S-L,0.0,S,L,1.0,3.0,thread,dishwasher,thread2,dishwasher7,141.0,26.0,/static/Size_judgement/Stimuli/Size_stims/S/thread/thread6.jpg,/static/Size_judgement/Stimuli/Size_stims/L/dishwasher/dishwasher7.jpg,0.0,dishwasher,thread,L,S,3.0,1.0,dishwasher7,thread2,1.0,199.403,0.903,0.0,
193,,size_choice_confirmation,,html-keyboard-response,193,235491,0.0-1.0-255.0-0.0,0,0,15677,,,,,,63.0,,2.0,,,,,,,,,,,,,,,,,,,,,,,,,,200.0,0.597,,
194,,iti,,html-keyboard-response,194,238992,0.0-1.0-256.0,0,0,15677,,,,,,63.0,,2.0,,,,,,,,,,,,,,,,,,,,,,,,,,203.5,3.5,,
195,,size_choice,,html-keyboard-response,195,239885,0.0-1.0-258.0,0,0,15677,,891.0,,,68.0,64.0,64.0,2.0,1500.0,M-L,0.0,M,L,2.0,3.0,handsaw,cooler,handsaw8,cooler7,87.0,6.0,/static/Size_judgement/Stimuli/Size_stims/M/handsaw/handsaw7.jpg,/static/Size_judgement/Stimuli/Size_stims/L/cooler/cooler4.jpg,1.0,handsaw,cooler,M,L,2.0,3.0,handsaw8,cooler7,0.0,204.391,0.891,0.0,
196,,size_choice_confirmation,,html-keyboard-response,196,240496,0.0-1.0-259.0-0.0,0,0,15677,,,,,,64.0,,2.0,,,,,,,,,,,,,,,,,,,,,,,,,,205.0,0.609,,
197,,iti,,html-keyboard-response,197,241997,0.0-1.0-260.0,0,0,15677,,,,,,64.0,,2.0,,,,,,,,,,,,,,,,,,,,,,,,,,206.5,1.5,,
198,,size_choice,,html-keyboard-response,198,242606,0.0-1.0-262.0,0,0,15677,,608.0,,,75.0,65.0,65.0,2.0,2000.0,M-L,0.0,M,L,2.0,3.0,handsaw,mailbox,handsaw5,mailbox1,84.0,40.0,/static/Size_judgement/Stimuli/Size_stims/M/handsaw/handsaw1.jpg,/static/Size_judgement/Stimuli/Size_stims/L/mailbox/mailbox3.jpg,0.0,mailbox,handsaw,L,M,3.0,2.0,mailbox1,handsaw5,1.0,207.108,0.608,0.0,
199,,size_choice_confirmation,,html-keyboard-response,199,243500,0.0-1.0-263.0-0.0,0,0,15677,,,,,,65.0,,2.0,,,,,,,,,,,,,,,,,,,,,,,,,,208.0,0.892,,
200,,iti,,html-keyboard-response,200,245502,0.0-1.0-264.0,0,0,15677,,,,,,65.0,,2.0,,,,,,,,,,,,,,,,,,,,,,,,,,210.0,2.0,,
201,,size_choice,,html-keyboard-response,201,246087,0.0-1.0-266.0,0,0,15677,,583.0,,,68.0,66.0,66.0,2.0,1000.0,M-XL,1.0,XL,M,4.0,2.0,car,ketchup,car10,ketchup8,159.0,97.0,/static/Size_judgement/Stimuli/Size_stims/XL/car/car9.jpg,/static/Size_judgement/Stimuli/Size_stims/M/ketchup/ketchup5.jpg,1.0,car,ketchup,XL,M,4.0,2.0,car10,ketchup8,1.0,210.583,0.583,0.0,
202,,size_choice_confirmation,,html-keyboard-response,202,247006,0.0-1.0-267.0-0.0,0,0,15677,,,,,,66.0,,2.0,,,,,,,,,,,,,,,,,,,,,,,,,,211.5,0.917,,
203,,iti,,html-keyboard-response,203,248008,0.0-1.0-268.0,0,0,15677,,,,,,66.0,,2.0,,,,,,,,,,,,,,,,,,,,,,,,,,212.5,1.0,,
204,,size_choice,,html-keyboard-response,204,248751,0.0-1.0-270.0,0,0,15677,,740.0,,,68.0,67.0,67.0,2.0,1000.0,S-L,1.0,L,S,3.0,1.0,deskchair,thread,deskchair6,thread3,15.0,142.0,/static/Size_judgement/Stimuli/Size_stims/L/deskchair/deskchair5.jpg,/static/Size_judgement/Stimuli/Size_stims/S/thread/thread4.jpg,1.0,deskchair,thread,L,S,3.0,1.0,deskchair6,thread3,1.0,213.24,0.74,0.0,
205,,size_choice_confirmation,,html-keyboard-response,205,249512,0.0-1.0-271.0-0.0,0,0,15677,,,,,,67.0,,2.0,,,,,,,,,,,,,,,,,,,,,,,,,,214.0,0.76,,
206,,iti,,html-keyboard-response,206,250514,0.0-1.0-272.0,0,0,15677,,,,,,67.0,,2.0,,,,,,,,,,,,,,,,,,,,,,,,,,215.0,1.0,,
207,,size_choice,,html-keyboard-response,207,251151,0.0-1.0-274.0,0,0,15677,,636.0,,,75.0,68.0,68.0,2.0,2000.0,S-XL,0.0,S,XL,1.0,4.0,screws,dumptruck,screws3,dumptruck4,122.0,173.0,/static/Size_judgement/Stimuli/Size_stims/S/screws/screws7.jpg,/static/Size_judgement/Stimuli/Size_stims/XL/dumptruck/dumptruck1.jpg,0.0,dumptruck,screws,XL,S,4.0,1.0,dumptruck4,screws3,1.0,215.636,0.636,0.0,
208,,size_choice_confirmation,,html-keyboard-response,208,252018,0.0-1.0-275.0-0.0,0,0,15677,,,,,,68.0,,2.0,,,,,,,,,,,,,,,,,,,,,,,,,,216.5,0.864,,
209,,iti,,html-keyboard-response,209,254020,0.0-1.0-276.0,0,0,15677,,,,,,68.0,,2.0,,,,,,,,,,,,,,,,,,,,,,,,,,218.5,2.0,,
210,,size_choice,,html-keyboard-response,210,255184,0.0-1.0-278.0,0,0,15677,,1162.0,,,75.0,69.0,69.0,2.0,3000.0,S-XL,0.0,S,XL,1.0,4.0,paperclip,dumptruck,paperclip8,dumptruck7,117.0,176.0,/static/Size_judgement/Stimuli/Size_stims/S/paperclip/paperclip5.jpg,/static/Size_judgement/Stimuli/Size_stims/XL/dumptruck/dumptruck6.jpg,0.0,dumptruck,paperclip,XL,S,4.0,1.0,dumptruck7,paperclip8,1.0,219.662,1.162,0.0,
211,,size_choice_confirmation,,html-keyboard-response,211,255523,0.0-1.0-279.0-0.0,0,0,15677,,,,,,69.0,,2.0,,,,,,,,,,,,,,,,,,,,,,,,,,220.0,0.338,,
212,,iti,,html-keyboard-response,212,258525,0.0-1.0-280.0,0,0,15677,,,,,,69.0,,2.0,,,,,,,,,,,,,,,,,,,,,,,,,,223.0,3.0,,
213,,size_choice,,html-keyboard-response,213,259152,0.0-1.0-282.0,0,0,15677,,624.0,,,75.0,70.0,70.0,2.0,1500.0,S-L,0.0,S,L,1.0,3.0,die,deskchair,die1,deskchair8,100.0,17.0,/static/Size_judgement/Stimuli/Size_stims/S/die/die8.jpg,/static/Size_judgement/Stimuli/Size_stims/L/deskchair/deskchair1.jpg,0.0,deskchair,die,L,S,3.0,1.0,deskchair8,die1,1.0,223.624,0.624,0.0,
214,,size_choice_confirmation,,html-keyboard-response,214,260030,0.0-1.0-283.0-0.0,0,0,15677,,,,,,70.0,,2.0,,,,,,,,,,,,,,,,,,,,,,,,,,224.5,0.876,,
215,,iti,,html-keyboard-response,215,261532,0.0-1.0-284.0,0,0,15677,,,,,,70.0,,2.0,,,,,,,,,,,,,,,,,,,,,,,,,,226.0,1.5,,
216,,size_choice,,html-keyboard-response,216,262184,0.0-1.0-286.0,0,0,15677,,651.0,,,75.0,71.0,71.0,2.0,1500.0,XL-XL,,XL,XL,4.0,4.0,tractor,van,tractor3,van8,182.0,197.0,/static/Size_judgement/Stimuli/Size_stims/XL/tractor/tractor5.jpg,/static/Size_judgement/Stimuli/Size_stims/XL/van/van10.jpg,0.0,van,tractor,XL,XL,4.0,4.0,van8,tractor3,,226.651,0.651,0.0,
217,,size_choice_confirmation,,html-keyboard-response,217,263035,0.0-1.0-287.0-0.0,0,0,15677,,,,,,71.0,,2.0,,,,,,,,,,,,,,,,,,,,,,,,,,227.5,0.849,,
218,,iti,,html-keyboard-response,218,264537,0.0-1.0-288.0,0,0,15677,,,,,,71.0,,2.0,,,,,,,,,,,,,,,,,,,,,,,,,,229.0,1.5,,
219,,size_choice,,html-keyboard-response,219,265185,0.0-1.0-290.0,0,0,15677,,647.0,,,75.0,72.0,72.0,2.0,1500.0,S-XL,0.0,S,XL,1.0,4.0,paperclip,dumptruck,paperclip4,dumptruck5,113.0,174.0,/static/Size_judgement/Stimuli/Size_stims/S/paperclip/paperclip3.jpg,/static/Size_judgement/Stimuli/Size_stims/XL/dumptruck/dumptruck3.jpg,0.0,dumptruck,paperclip,XL,S,4.0,1.0,dumptruck5,paperclip4,1.0,229.647,0.647,0.0,
220,,size_choice_confirmation,,html-keyboard-response,220,266043,0.0-1.0-291.0-0.0,0,0,15677,,,,,,72.0,,2.0,,,,,,,,,,,,,,,,,,,,,,,,,,230.5,0.853,,
221,,iti,,html-keyboard-response,221,267544,0.0-1.0-292.0,0,0,15677,,,,,,72.0,,2.0,,,,,,,,,,,,,,,,,,,,,,,,,,232.0,1.5,,
222,,size_choice,,html-keyboard-response,222,268290,0.0-1.0-294.0,0,0,15677,,744.0,,,75.0,73.0,73.0,2.0,3000.0,M-L,0.0,M,L,2.0,3.0,coffeemaker,dishwasher,coffeemaker6,dishwasher4,65.0,23.0,/static/Size_judgement/Stimuli/Size_stims/M/coffeemaker/coffeemaker8.jpg,/static/Size_judgement/Stimuli/Size_stims/L/dishwasher/dishwasher5.jpg,0.0,dishwasher,coffeemaker,L,M,3.0,2.0,dishwasher4,coffeemaker6,1.0,232.744,0.744,0.0,
223,,size_choice_confirmation,,html-keyboard-response,223,269047,0.0-1.0-295.0-0.0,0,0,15677,,,,,,73.0,,2.0,,,,,,,,,,,,,,,,,,,,,,,,,,233.5,0.756,,
224,,iti,,html-keyboard-response,224,272061,0.0-1.0-296.0,0,0,15677,,,,,,73.0,,2.0,,,,,,,,,,,,,,,,,,,,,,,,,,236.5,3.0,,
225,,size_choice,,html-keyboard-response,225,272706,0.0-1.0-298.0,0,0,15677,,644.0,,,68.0,74.0,74.0,2.0,1500.0,S-XL,1.0,XL,S,4.0,1.0,car,die,car1,die9,150.0,108.0,/static/Size_judgement/Stimuli/Size_stims/XL/car/car2.jpg,/static/Size_judgement/Stimuli/Size_stims/S/die/die7.jpg,1.0,car,die,XL,S,4.0,1.0,car1,die9,1.0,237.144,0.644,0.0,
226,,size_choice_confirmation,,html-keyboard-response,226,273565,0.0-1.0-299.0-0.0,0,0,15677,,,,,,74.0,,2.0,,,,,,,,,,,,,,,,,,,,,,,,,,238.0,0.856,,
227,,iti,,html-keyboard-response,227,275067,0.0-1.0-300.0,0,0,15677,,,,,,74.0,,2.0,,,,,,,,,,,,,,,,,,,,,,,,,,239.5,1.5,,
228,,size_choice,,html-keyboard-response,228,276042,0.0-1.0-302.0,0,0,15677,,974.0,,,68.0,75.0,75.0,2.0,1500.0,M-XL,1.0,XL,M,4.0,2.0,crane,handsaw,crane1,handsaw10,160.0,89.0,/static/Size_judgement/Stimuli/Size_stims/XL/crane/crane7.jpg,/static/Size_judgement/Stimuli/Size_stims/M/handsaw/handsaw10.jpg,1.0,crane,handsaw,XL,M,4.0,2.0,crane1,handsaw10,1.0,240.474,0.974,0.0,
229,,size_choice_confirmation,,html-keyboard-response,229,276570,0.0-1.0-303.0-0.0,0,0,15677,,,,,,75.0,,2.0,,,,,,,,,,,,,,,,,,,,,,,,,,241.0,0.526,,
230,,iti,,html-keyboard-response,230,278072,0.0-1.0-304.0,0,0,15677,,,,,,75.0,,2.0,,,,,,,,,,,,,,,,,,,,,,,,,,242.5,1.5,,
231,,size_choice,,html-keyboard-response,231,278923,0.0-1.0-306.0,0,0,15677,,849.0,,,68.0,76.0,76.0,2.0,1500.0,S-XL,1.0,XL,S,4.0,1.0,tractor,screws,tractor2,screws6,181.0,125.0,/static/Size_judgement/Stimuli/Size_stims/XL/tractor/tractor7.jpg,/static/Size_judgement/Stimuli/Size_stims/S/screws/screws3.jpg,1.0,tractor,screws,XL,S,4.0,1.0,tractor2,screws6,1.0,243.349,0.849,0.0,
232,,size_choice_confirmation,,html-keyboard-response,232,279576,0.0-1.0-307.0-0.0,0,0,15677,,,,,,76.0,,2.0,,,,,,,,,,,,,,,,,,,,,,,,,,244.0,0.651,,
233,,iti,,html-keyboard-response,233,281078,0.0-1.0-308.0,0,0,15677,,,,,,76.0,,2.0,,,,,,,,,,,,,,,,,,,,,,,,,,245.5,1.5,,
234,,size_choice,,html-keyboard-response,234,281771,0.0-1.0-310.0,0,0,15677,,692.0,,,75.0,77.0,77.0,2.0,2000.0,M-L,0.0,M,L,2.0,3.0,coffeemaker,deskchair,coffeemaker4,deskchair5,63.0,14.0,/static/Size_judgement/Stimuli/Size_stims/M/coffeemaker/coffeemaker11.jpg,/static/Size_judgement/Stimuli/Size_stims/L/deskchair/deskchair7.jpg,0.0,deskchair,coffeemaker,L,M,3.0,2.0,deskchair5,coffeemaker4,1.0,246.192,0.692,0.0,
235,,size_choice_confirmation,,html-keyboard-response,235,282581,0.0-1.0-311.0-0.0,0,0,15677,,,,,,77.0,,2.0,,,,,,,,,,,,,,,,,,,,,,,,,,247.0,0.808,,
236,,iti,,html-keyboard-response,236,284584,0.0-1.0-312.0,0,0,15677,,,,,,77.0,,2.0,,,,,,,,,,,,,,,,,,,,,,,,,,249.0,2.0,,
237,,size_choice,,html-keyboard-response,237,285604,0.0-1.0-314.0,0,0,15677,,1018.0,,,68.0,78.0,78.0,2.0,1500.0,M-XL,1.0,XL,M,4.0,2.0,dumptruck,coffeemaker,dumptruck10,coffeemaker10,179.0,69.0,/static/Size_judgement/Stimuli/Size_stims/XL/dumptruck/dumptruck4.jpg,/static/Size_judgement/Stimuli/Size_stims/M/coffeemaker/coffeemaker18.jpg,1.0,dumptruck,coffeemaker,XL,M,4.0,2.0,dumptruck10,coffeemaker10,1.0,250.018,1.018,0.0,
238,,size_choice_confirmation,,html-keyboard-response,238,286088,0.0-1.0-315.0-0.0,0,0,15677,,,,,,78.0,,2.0,,,,,,,,,,,,,,,,,,,,,,,,,,250.5,0.482,,
239,,iti,,html-keyboard-response,239,287591,0.0-1.0-316.0,0,0,15677,,,,,,78.0,,2.0,,,,,,,,,,,,,,,,,,,,,,,,,,252.0,1.5,,
240,,size_choice,,html-keyboard-response,240,288556,0.0-1.0-318.0,0,0,15677,,964.0,,,75.0,79.0,79.0,2.0,1000.0,L-L,,L,L,3.0,3.0,mailbox,cooler,mailbox4,cooler6,43.0,5.0,/static/Size_judgement/Stimuli/Size_stims/L/mailbox/mailbox5.jpg,/static/Size_judgement/Stimuli/Size_stims/L/cooler/cooler1.jpg,0.0,cooler,mailbox,L,L,3.0,3.0,cooler6,mailbox4,,252.964,0.964,0.0,
241,,size_choice_confirmation,,html-keyboard-response,241,289095,0.0-1.0-319.0-0.0,0,0,15677,,,,,,79.0,,2.0,,,,,,,,,,,,,,,,,,,,,,,,,,253.5,0.536,,
242,,iti,,html-keyboard-response,242,290097,0.0-1.0-320.0,0,0,15677,,,,,,79.0,,2.0,,,,,,,,,,,,,,,,,,,,,,,,,,254.5,1.0,,
243,,size_choice,,html-keyboard-response,243,291021,0.0-1.0-322.0,0,0,15677,,921.0,,,75.0,80.0,80.0,2.0,1000.0,S-M,0.0,S,M,1.0,2.0,die,basketball,die3,basketball3,102.0,52.0,/static/Size_judgement/Stimuli/Size_stims/S/die/die10.jpg,/static/Size_judgement/Stimuli/Size_stims/M/basketball/basketball10.jpg,0.0,basketball,die,M,S,2.0,1.0,basketball3,die3,1.0,255.421,0.921,0.0,
244,,size_choice_confirmation,,html-keyboard-response,244,291601,0.0-1.0-323.0-0.0,0,0,15677,,,,,,80.0,,2.0,,,,,,,,,,,,,,,,,,,,,,,,,,256.0,0.579,,
245,,iti,,html-keyboard-response,245,292602,0.0-1.0-324.0,0,0,15677,,,,,,80.0,,2.0,,,,,,,,,,,,,,,,,,,,,,,,,,257.0,1.0,,
246,,size_choice,,html-keyboard-response,246,293261,0.0-1.0-326.0,0,0,15677,,658.0,,,75.0,81.0,81.0,2.0,2000.0,S-L,0.0,S,L,1.0,3.0,thread,garbagecan,thread9,garbagecan7,148.0,36.0,/static/Size_judgement/Stimuli/Size_stims/S/thread/thread8.jpg,/static/Size_judgement/Stimuli/Size_stims/L/garbagecan/garbagecan16.jpg,0.0,garbagecan,thread,L,S,3.0,1.0,garbagecan7,thread9,1.0,257.658,0.658,0.0,
247,,size_choice_confirmation,,html-keyboard-response,247,294104,0.0-1.0-327.0-0.0,0,0,15677,,,,,,81.0,,2.0,,,,,,,,,,,,,,,,,,,,,,,,,,258.5,0.842,,
248,,iti,,html-keyboard-response,248,296106,0.0-1.0-328.0,0,0,15677,,,,,,81.0,,2.0,,,,,,,,,,,,,,,,,,,,,,,,,,260.5,2.0,,
249,,size_choice,,html-keyboard-response,249,296758,0.0-1.0-330.0,0,0,15677,,650.0,,,68.0,82.0,82.0,2.0,2000.0,M-XL,1.0,XL,M,4.0,2.0,tractor,basketball,tractor8,basketball8,187.0,57.0,/static/Size_judgement/Stimuli/Size_stims/XL/tractor/tractor10.jpg,/static/Size_judgement/Stimuli/Size_stims/M/basketball/basketball7.jpg,1.0,tractor,basketball,XL,M,4.0,2.0,tractor8,basketball8,1.0,261.15,0.65,0.0,
250,,size_choice_confirmation,,html-keyboard-response,250,297609,0.0-1.0-331.0-0.0,0,0,15677,,,,,,82.0,,2.0,,,,,,,,,,,,,,,,,,,,,,,,,,262.0,0.85,,
251,,iti,,html-keyboard-response,251,299611,0.0-1.0-332.0,0,0,15677,,,,,,82.0,,2.0,,,,,,,,,,,,,,,,,,,,,,,,,,264.0,2.0,,
252,,size_choice,,html-keyboard-response,252,300470,0.0-1.0-334.0,0,0,15677,,855.0,,,75.0,83.0,83.0,2.0,1000.0,S-XL,0.0,S,XL,1.0,4.0,screws,van,screws2,van3,121.0,192.0,/static/Size_judgement/Stimuli/Size_stims/S/screws/screws5.jpg,/static/Size_judgement/Stimuli/Size_stims/XL/van/van6.jpg,0.0,van,screws,XL,S,4.0,1.0,van3,screws2,1.0,264.855,0.855,0.0,
253,,size_choice_confirmation,,html-keyboard-response,253,301116,0.0-1.0-335.0-0.0,0,0,15677,,,,,,83.0,,2.0,,,,,,,,,,,,,,,,,,,,,,,,,,265.5,0.645,,
254,,iti,,html-keyboard-response,254,302118,0.0-1.0-336.0,0,0,15677,,,,,,83.0,,2.0,,,,,,,,,,,,,,,,,,,,,,,,,,266.5,1.0,,
255,,size_choice,,html-keyboard-response,255,302838,0.0-1.0-338.0,0,0,15677,,719.0,,,68.0,84.0,84.0,2.0,1000.0,L-L,,L,L,3.0,3.0,cooler,dishwasher,cooler3,dishwasher9,2.0,28.0,/static/Size_judgement/Stimuli/Size_stims/L/cooler/cooler2.jpg,/static/Size_judgement/Stimuli/Size_stims/L/dishwasher/dishwasher2.jpg,1.0,cooler,dishwasher,L,L,3.0,3.0,cooler3,dishwasher9,,267.219,0.719,0.0,
256,,size_choice_confirmation,,html-keyboard-response,256,303621,0.0-1.0-339.0-0.0,0,0,15677,,,,,,84.0,,2.0,,,,,,,,,,,,,,,,,,,,,,,,,,268.0,0.781,,
257,,iti,,html-keyboard-response,257,304623,0.0-1.0-340.0,0,0,15677,,,,,,84.0,,2.0,,,,,,,,,,,,,,,,,,,,,,,,,,269.0,1.0,,
258,,size_choice,,html-keyboard-response,258,305750,0.0-1.0-342.0,0,0,15677,,1126.0,,,75.0,85.0,85.0,2.0,1000.0,M-M,,M,M,2.0,2.0,hairdryer,handsaw,hairdryer10,handsaw2,79.0,81.0,/static/Size_judgement/Stimuli/Size_stims/M/hairdryer/hairdryer6.jpg,/static/Size_judgement/Stimuli/Size_stims/M/handsaw/handsaw9.jpg,0.0,handsaw,hairdryer,M,M,2.0,2.0,handsaw2,hairdryer10,,270.126,1.126,0.0,
259,,size_choice_confirmation,,html-keyboard-response,259,306126,0.0-1.0-343.0-0.0,0,0,15677,,,,,,85.0,,2.0,,,,,,,,,,,,,,,,,,,,,,,,,,270.5,0.374,,
260,,iti,,html-keyboard-response,260,307128,0.0-1.0-344.0,0,0,15677,,,,,,85.0,,2.0,,,,,,,,,,,,,,,,,,,,,,,,,,271.5,1.0,,
261,,size_choice,,html-keyboard-response,261,307735,0.0-1.0-346.0,0,0,15677,,605.0,,,75.0,86.0,86.0,2.0,1000.0,L-XL,0.0,L,XL,3.0,4.0,garbagecan,crane,garbagecan6,crane2,35.0,161.0,/static/Size_judgement/Stimuli/Size_stims/L/garbagecan/garbagecan14.jpg,/static/Size_judgement/Stimuli/Size_stims/XL/crane/crane6.jpg,0.0,crane,garbagecan,XL,L,4.0,3.0,crane2,garbagecan6,1.0,272.105,0.605,0.0,
262,,size_choice_confirmation,,html-keyboard-response,262,308631,0.0-1.0-347.0-0.0,0,0,15677,,,,,,86.0,,2.0,,,,,,,,,,,,,,,,,,,,,,,,,,273.0,0.895,,
263,,iti,,html-keyboard-response,263,309634,0.0-1.0-348.0,0,0,15677,,,,,,86.0,,2.0,,,,,,,,,,,,,,,,,,,,,,,,,,274.0,1.0,,
264,,size_choice,,html-keyboard-response,264,310231,0.0-1.0-350.0,0,0,15677,,596.0,,,75.0,87.0,87.0,2.0,1000.0,XL-XL,,XL,XL,4.0,4.0,car,tractor,car2,tractor10,151.0,189.0,/static/Size_judgement/Stimuli/Size_stims/XL/car/car3.jpg,/static/Size_judgement/Stimuli/Size_stims/XL/tractor/tractor8.jpg,0.0,tractor,car,XL,XL,4.0,4.0,tractor10,car2,,274.596,0.596,0.0,
265,,size_choice_confirmation,,html-keyboard-response,265,311139,0.0-1.0-351.0-0.0,0,0,15677,,,,,,87.0,,2.0,,,,,,,,,,,,,,,,,,,,,,,,,,275.5,0.904,,
266,,iti,,html-keyboard-response,266,312141,0.0-1.0-352.0,0,0,15677,,,,,,87.0,,2.0,,,,,,,,,,,,,,,,,,,,,,,,,,276.5,1.0,,
267,,size_choice,,html-keyboard-response,267,312727,0.0-1.0-354.0,0,0,15677,,584.0,,,68.0,88.0,88.0,2.0,1000.0,S-L,1.0,L,S,3.0,1.0,deskchair,screws,deskchair7,screws10,16.0,129.0,/static/Size_judgement/Stimuli/Size_stims/L/deskchair/deskchair4.jpg,/static/Size_judgement/Stimuli/Size_stims/S/screws/screws9.jpg,1.0,deskchair,screws,L,S,3.0,1.0,deskchair7,screws10,1.0,277.084,0.584,0.0,
268,,size_choice_confirmation,,html-keyboard-response,268,313645,0.0-1.0-355.0-0.0,0,0,15677,,,,,,88.0,,2.0,,,,,,,,,,,,,,,,,,,,,,,,,,278.0,0.916,,
269,,iti,,html-keyboard-response,269,314647,0.0-1.0-356.0,0,0,15677,,,,,,88.0,,2.0,,,,,,,,,,,,,,,,,,,,,,,,,,279.0,1.0,,
270,,size_choice,,html-keyboard-response,270,315384,0.0-1.0-358.0,0,0,15677,,735.0,,,68.0,89.0,89.0,2.0,3500.0,S-L,1.0,L,S,3.0,1.0,garbagecan,teabag,garbagecan1,teabag4,30.0,133.0,/static/Size_judgement/Stimuli/Size_stims/L/garbagecan/garbagecan4.jpg,/static/Size_judgement/Stimuli/Size_stims/S/teabag/teabag3.jpg,1.0,garbagecan,teabag,L,S,3.0,1.0,garbagecan1,teabag4,1.0,279.735,0.735,0.0,
271,,size_choice_confirmation,,html-keyboard-response,271,316151,0.0-1.0-359.0-0.0,0,0,15677,,,,,,89.0,,2.0,,,,,,,,,,,,,,,,,,,,,,,,,,280.5,0.765,,
272,,iti,,html-keyboard-response,272,319653,0.0-1.0-360.0,0,0,15677,,,,,,89.0,,2.0,,,,,,,,,,,,,,,,,,,,,,,,,,284.0,3.5,,0.97
273,,size_final_tally,,html-keyboard-response,273,322457,0.0-2.0,0,0,15677,,2803.0,,,68.0,,,,,,,,,,,,,,,,,,,,,,,,,,,,,,,,
274,,debreif_intro,,html-keyboard-response,274,325689,0.0-3.0,0,0,15677,,3206.0,,,68.0,,,,,,,,,,,,,,,,,,,,,,,,,,,,,,,,
275,,debreif_age,,survey-text,275,328746,0.0-4.0,0,0,15677,,3055.0,"{""Q0"":""28""}",,,,,,,,,,,,,,,,,,,,,,,,,,,,,,,,,,
276,,debreif_gender,,survey-multi-choice,276,330610,0.0-5.0,0,0,15677,,1862.0,"{""Q0"":""Male""}",,,,,,,,,,,,,,,,,,,,,,,,,,,,,,,,,,
277,,debreif_dominant_hand,,survey-multi-choice,277,332458,0.0-6.0,0,0,15677,,1844.0,"{""Q0"":""Right""}",,,,,,,,,,,,,,,,,,,,,,,,,,,,,,,,,,
278,,debreif_native_language,,survey-multi-choice,278,334354,0.0-7.0,0,0,15677,,1893.0,"{""Q0"":""Yes""}",,,,,,,,,,,,,,,,,,,,,,,,,,,,,,,,,,
279,,debreif_fluency,,survey-likert,279,338882,0.0-8.0,0,0,15677,,4525.0,"{""Q0"":5}",,,,,,,,,,,,,,,,,,,,,,,,,,,,,,,,,,
280,,debreif_strategy_category_learning,,survey-text,280,381097,0.0-9.0,0,0,15677,,42212.0,"{""Q0"":""Choosing whichever object paid more. If it was the same object (ie. 2 cards) I noticed I tend to default to the right more""}",,,,,,,,,,,,,,,,,,,,,,,,,,,,,,,,,,
281,,debreif_strategy_old_trials,,survey-text,281,434689,0.0-10.0,0,0,15677,,53591.0,"{""Q0"":""Oh I answered this in the previous question. I noticed I tend to pick the right one more. Because of the amount of time it was hard to look into the details of each object and I guess under the time constraint, I defaulted to the right more often.""}",,,,,,,,,,,,,,,,,,,,,,,,,,,,,,,,,,
282,,debreif_strategy_category_memory,,survey-text,282,477305,0.0-11.0,0,0,15677,,42615.0,"{""Q0"":""My best guesstimates. Tried to remember the average price each category of object was worth.""}",,,,,,,,,,,,,,,,,,,,,,,,,,,,,,,,,,
283,,debreif_strategy_size,,survey-text,283,492145,0.0-12.0,0,0,15677,,14839.0,"{""Q0"":""Whichever was the larger in the real world!""}",,,,,,,,,,,,,,,,,,,,,,,,,,,,,,,,,,
284,,debreif_strategy_rl,,survey-text,284,551929,0.0-13.0,0,0,15677,,59783.0,"{""Q0"":""Options were always the same so when presented with the green and reddish balls I picked the green and with the blue and yellowish balls I picked the yellow.""}",,,,,,,,,,,,,,,,,,,,,,,,,,,,,,,,,,
285,,debreif_clear_instructions,,survey-text,285,555410,0.0-14.0,0,0,15677,,3479.0,"{""Q0"":""No""}",,,,,,,,,,,,,,,,,,,,,,,,,,,,,,,,,,
286,,debreif_end,,html-keyboard-response,286,561810,0.0-15.0,0,0,15677,,6400.0,,,32.0,,,,,,,,,,,,,,,,,,,,,,,,,,,,,,,,
