,success,ttype,start_time,trial_type,trial_index,time_elapsed,internal_node_id,warning,missed_checkup,PID,view_history,rt,responses,repeat_instructions,key_press,index,trial_num,block,iti,pair_type,high_size_on_left,left_size_group,right_size_group,left_size_num,right_size_num,left_category,right_category,left_exemplar,right_exemplar,left_index,right_index,left_img_path,right_img_path,left_chosen,chosen_category,unchosen_category,chosen_size_group,unchosen_size_group,chosen_size_num,unchosen_size_num,chosen_exemplar,unchosen_exemplar,accuracy,onset,duration,no_response,size_final_tally
0,True,full_screen,d06022022hr0040,fullscreen,0,8008,0.0-0.0,0,0,31921,,,,,,,,,,,,,,,,,,,,,,,,,,,,,,,,,,,,,
1,,size_instructions,,instructions,1,9726,0.0-1.0-0.0-0.0,0,0,31921,"[{""page_index"":0,""viewing_time"":975},{""page_index"":1,""viewing_time"":160},{""page_index"":2,""viewing_time"":159},{""page_index"":3,""viewing_time"":138},{""page_index"":4,""viewing_time"":137},{""page_index"":5,""viewing_time"":148}]",1717.0,,,,,,,,,,,,,,,,,,,,,,,,,,,,,,,,,,,
2,,size_comprehension_check,,survey-multi-choice,2,15109,0.0-1.0-0.0-1.0,0,0,31921,,5380.0,"{""Q0"":""True"",""Q1"":""Size in the real world"",""Q2"":""True"",""Q3"":""D for left and K for right""}",0.0,,,,,,,,,,,,,,,,,,,,,,,,,,,,,,,,,
3,,,,html-keyboard-response,3,15919,0.0-1.0-1.0,0,0,31921,,807.0,,,68.0,,,,,,,,,,,,,,,,,,,,,,,,,,,,,,,,
4,,size_choice,,html-keyboard-response,4,16376,0.0-1.0-2.0,0,0,31921,,456.0,,,68.0,0.0,0.0,1.0,1500.0,S-M,1.0,M,S,2.0,1.0,hairdryer,paperclip,hairdryer8,paperclip1,77.0,110.0,/static/Size_judgement/Stimuli/Size_stims/M/hairdryer/hairdryer1.jpg,/static/Size_judgement/Stimuli/Size_stims/S/paperclip/paperclip9.jpg,1.0,hairdryer,paperclip,M,S,2.0,1.0,hairdryer8,paperclip1,1.0,0.456,0.456,0.0,
5,,size_choice_confirmation,,html-keyboard-response,5,17427,0.0-1.0-3.0-0.0,0,0,31921,,,,,,0.0,,,,,,,,,,,,,,,,,,,,,,,,,,,,1.5,1.044,,
6,,iti,,html-keyboard-response,6,17528,0.0-1.0-4.0,0,0,31921,,,,,,,,,,,,,,,,,,,,,,,,,,,,,,,,,,3.0,1.5,,
7,,size_choice,,html-keyboard-response,7,17619,0.0-1.0-6.0,0,0,31921,,90.0,,,75.0,1.0,1.0,1.0,1000.0,S-XL,0.0,S,XL,1.0,4.0,die,van,die5,van5,104.0,194.0,/static/Size_judgement/Stimuli/Size_stims/S/die/die3.jpg,/static/Size_judgement/Stimuli/Size_stims/XL/van/van3.jpg,0.0,van,die,XL,S,4.0,1.0,van5,die5,1.0,3.09,0.09,0.0,
8,,size_choice_confirmation,,html-keyboard-response,8,19032,0.0-1.0-7.0-0.0,0,0,31921,,,,,,1.0,,,,,,,,,,,,,,,,,,,,,,,,,,,,4.5,1.41,,
9,,iti,,html-keyboard-response,9,19134,0.0-1.0-8.0,0,0,31921,,,,,,,,,,,,,,,,,,,,,,,,,,,,,,,,,,5.5,1.0,,
10,,size_choice,,html-keyboard-response,10,19330,0.0-1.0-10.0,0,0,31921,,195.0,,,75.0,2.0,2.0,1.0,1000.0,S-L,1.0,L,S,3.0,1.0,dishwasher,thread,dishwasher8,thread1,27.0,140.0,/static/Size_judgement/Stimuli/Size_stims/L/dishwasher/dishwasher3.jpg,/static/Size_judgement/Stimuli/Size_stims/S/thread/thread7.jpg,0.0,thread,dishwasher,S,L,1.0,3.0,thread1,dishwasher8,0.0,5.695,0.195,0.0,
11,,size_choice_confirmation,,html-keyboard-response,11,20637,0.0-1.0-11.0-0.0,0,0,31921,,,,,,2.0,,,,,,,,,,,,,,,,,,,,,,,,,,,,7.0,1.305,,
12,,iti,,html-keyboard-response,12,20740,0.0-1.0-12.0,0,0,31921,,,,,,,,,,,,,,,,,,,,,,,,,,,,,,,,,,8.0,1.0,,
13,,size_choice,,html-keyboard-response,13,20771,0.0-1.0-14.0,0,0,31921,,29.0,,,75.0,3.0,3.0,1.0,1500.0,M-XL,1.0,XL,M,4.0,2.0,van,basketball,van4,basketball9,193.0,58.0,/static/Size_judgement/Stimuli/Size_stims/XL/van/van7.jpg,/static/Size_judgement/Stimuli/Size_stims/M/basketball/basketball5.jpg,0.0,basketball,van,M,XL,2.0,4.0,basketball9,van4,0.0,8.029,0.028999999999999998,0.0,
14,,size_choice_confirmation,,html-keyboard-response,14,22247,0.0-1.0-15.0-0.0,0,0,31921,,,,,,3.0,,,,,,,,,,,,,,,,,,,,,,,,,,,,9.5,1.4709999999999999,,
15,,iti,,html-keyboard-response,15,22349,0.0-1.0-16.0,0,0,31921,,,,,,,,,,,,,,,,,,,,,,,,,,,,,,,,,,11.0,1.5,,
16,,size_choice,,html-keyboard-response,16,23852,0.0-1.0-18.0,0,0,31921,,,,,,4.0,4.0,1.0,1500.0,M-XL,1.0,XL,M,4.0,2.0,crane,handsaw,crane4,handsaw4,163.0,83.0,/static/Size_judgement/Stimuli/Size_stims/XL/crane/crane5.jpg,/static/Size_judgement/Stimuli/Size_stims/M/handsaw/handsaw3.jpg,,,,,,,,,,,12.5,1.5,1.0,
17,,iti,,html-keyboard-response,17,23956,0.0-1.0-20.0,0,0,31921,,,,,,,,,,,,,,,,,,,,,,,,,,,,,,,,,,14.0,1.5,,
18,,size_choice,,html-keyboard-response,18,26216,0.0-1.0-22.0,0,0,31921,,,,,,5.0,5.0,1.0,1000.0,M-L,1.0,L,M,3.0,2.0,deskchair,handsaw,deskchair9,handsaw9,18.0,88.0,/static/Size_judgement/Stimuli/Size_stims/L/deskchair/deskchair3.jpg,/static/Size_judgement/Stimuli/Size_stims/M/handsaw/handsaw6.jpg,,,,,,,,,,,15.5,1.5,1.0,
19,,iti,,html-keyboard-response,19,26987,0.0-1.0-24.0,0,0,31921,,,,,,,,,,,,,,,,,,,,,,,,,,,,,,,,,,16.5,1.0,,
20,,size_choice,,html-keyboard-response,20,28388,0.0-1.0-26.0,0,0,31921,,1400.0,,,68.0,6.0,6.0,1.0,1500.0,M-L,0.0,M,L,2.0,3.0,coffeemaker,mailbox,coffeemaker7,mailbox7,66.0,46.0,/static/Size_judgement/Stimuli/Size_stims/M/coffeemaker/coffeemaker9.jpg,/static/Size_judgement/Stimuli/Size_stims/L/mailbox/mailbox7.jpg,1.0,coffeemaker,mailbox,M,L,2.0,3.0,coffeemaker7,mailbox7,0.0,17.9,1.4,0.0,
21,,size_choice_confirmation,,html-keyboard-response,21,28492,0.0-1.0-27.0-0.0,0,0,31921,,,,,,6.0,,,,,,,,,,,,,,,,,,,,,,,,,,,,18.0,0.1,,
22,,iti,,html-keyboard-response,22,28597,0.0-1.0-28.0,0,0,31921,,,,,,,,,,,,,,,,,,,,,,,,,,,,,,,,,,19.5,1.5,,
23,,size_choice,,html-keyboard-response,23,28649,0.0-1.0-30.0,0,0,31921,,51.0,,,75.0,7.0,7.0,1.0,1500.0,M-L,1.0,L,M,3.0,2.0,deskchair,ketchup,deskchair10,ketchup3,19.0,92.0,/static/Size_judgement/Stimuli/Size_stims/L/deskchair/deskchair2.jpg,/static/Size_judgement/Stimuli/Size_stims/M/ketchup/ketchup10.jpg,0.0,ketchup,deskchair,M,L,2.0,3.0,ketchup3,deskchair10,0.0,19.551,0.051,0.0,
24,,size_choice_confirmation,,html-keyboard-response,24,30104,0.0-1.0-31.0-0.0,0,0,31921,,,,,,7.0,,,,,,,,,,,,,,,,,,,,,,,,,,,,21.0,1.449,,
25,,iti,,html-keyboard-response,25,30208,0.0-1.0-32.0,0,0,31921,,,,,,,,,,,,,,,,,,,,,,,,,,,,,,,,,,22.5,1.5,,
26,,size_choice,,html-keyboard-response,26,30308,0.0-1.0-34.0,0,0,31921,,99.0,,,68.0,8.0,8.0,1.0,2000.0,S-L,1.0,L,S,3.0,1.0,cooler,paperclip,cooler8,paperclip3,7.0,112.0,/static/Size_judgement/Stimuli/Size_stims/L/cooler/cooler5.jpg,/static/Size_judgement/Stimuli/Size_stims/S/paperclip/paperclip1.jpg,1.0,cooler,paperclip,L,S,3.0,1.0,cooler8,paperclip3,1.0,22.599,0.099,0.0,
27,,size_choice_confirmation,,html-keyboard-response,27,32033,0.0-1.0-35.0-0.0,0,0,31921,,,,,,8.0,,,,,,,,,,,,,,,,,,,,,,,,,,,,24.0,1.401,,
28,,iti,,html-keyboard-response,28,33125,0.0-1.0-36.0,0,0,31921,,,,,,,,,,,,,,,,,,,,,,,,,,,,,,,,,,26.0,2.0,,
29,,size_choice,,html-keyboard-response,29,35267,0.0-1.0-38.0,0,0,31921,,,,,,9.0,9.0,1.0,1500.0,M-L,0.0,M,L,2.0,3.0,basketball,garbagecan,basketball10,garbagecan5,59.0,34.0,/static/Size_judgement/Stimuli/Size_stims/M/basketball/basketball4.jpg,/static/Size_judgement/Stimuli/Size_stims/L/garbagecan/garbagecan3.jpg,,,,,,,,,,,27.5,1.5,1.0,
30,,iti,,html-keyboard-response,30,36344,0.0-1.0-40.0,0,0,31921,,,,,,,,,,,,,,,,,,,,,,,,,,,,,,,,,,29.0,1.5,,
31,,size_choice,,html-keyboard-response,31,38746,0.0-1.0-42.0,0,0,31921,,,,,,10.0,10.0,1.0,2000.0,S-L,1.0,L,S,3.0,1.0,dishwasher,teabag,dishwasher1,teabag5,20.0,134.0,/static/Size_judgement/Stimuli/Size_stims/L/dishwasher/dishwasher10.jpg,/static/Size_judgement/Stimuli/Size_stims/S/teabag/teabag2.jpg,,,,,,,,,,,30.5,1.5,1.0,
32,,iti,,html-keyboard-response,32,39107,0.0-1.0-44.0,0,0,31921,,,,,,,,,,,,,,,,,,,,,,,,,,,,,,,,,,32.5,2.0,,
33,,size_choice,,html-keyboard-response,33,41567,0.0-1.0-46.0,0,0,31921,,,,,,11.0,11.0,1.0,1000.0,S-S,,S,S,1.0,1.0,thread,die,thread10,die4,149.0,103.0,/static/Size_judgement/Stimuli/Size_stims/S/thread/thread9.jpg,/static/Size_judgement/Stimuli/Size_stims/S/die/die2.jpg,,,,,,,,,,,34.0,1.5,1.0,
34,,iti,,html-keyboard-response,34,41987,0.0-1.0-48.0,0,0,31921,,,,,,,,,,,,,,,,,,,,,,,,,,,,,,,,,,35.0,1.0,,
35,,size_choice,,html-keyboard-response,35,44357,0.0-1.0-50.0,0,0,31921,,,,,,12.0,12.0,1.0,1000.0,S-XL,0.0,S,XL,1.0,4.0,teabag,crane,teabag6,crane6,135.0,165.0,/static/Size_judgement/Stimuli/Size_stims/S/teabag/teabag6.jpg,/static/Size_judgement/Stimuli/Size_stims/XL/crane/crane2.jpg,,,,,,,,,,,36.5,1.5,1.0,
36,,iti,,html-keyboard-response,36,44987,0.0-1.0-52.0,0,0,31921,,,,,,,,,,,,,,,,,,,,,,,,,,,,,,,,,,37.5,1.0,,
37,,size_choice,,html-keyboard-response,37,47301,0.0-1.0-54.0,0,0,31921,,,,,,13.0,13.0,1.0,1500.0,S-M,0.0,S,M,1.0,2.0,paperclip,ketchup,paperclip2,ketchup7,111.0,96.0,/static/Size_judgement/Stimuli/Size_stims/S/paperclip/paperclip8.jpg,/static/Size_judgement/Stimuli/Size_stims/M/ketchup/ketchup4.jpg,,,,,,,,,,,39.0,1.5,1.0,
38,,iti,,html-keyboard-response,38,48328,0.0-1.0-56.0,0,0,31921,,,,,,,,,,,,,,,,,,,,,,,,,,,,,,,,,,40.5,1.5,,
39,,size_choice,,html-keyboard-response,39,50792,0.0-1.0-58.0,0,0,31921,,,,,,14.0,14.0,1.0,2000.0,S-L,0.0,S,L,1.0,3.0,thread,garbagecan,thread6,garbagecan8,145.0,37.0,/static/Size_judgement/Stimuli/Size_stims/S/thread/thread2.jpg,/static/Size_judgement/Stimuli/Size_stims/L/garbagecan/garbagecan13.jpg,,,,,,,,,,,42.0,1.5,1.0,
40,,iti,,html-keyboard-response,40,51082,0.0-1.0-60.0,0,0,31921,,,,,,,,,,,,,,,,,,,,,,,,,,,,,,,,,,44.0,2.0,,
41,,size_choice,,html-keyboard-response,41,52987,0.0-1.0-62.0,0,0,31921,,,,,,15.0,15.0,1.0,1000.0,S-L,0.0,S,L,1.0,3.0,screws,dishwasher,screws4,dishwasher2,123.0,21.0,/static/Size_judgement/Stimuli/Size_stims/S/screws/screws6.jpg,/static/Size_judgement/Stimuli/Size_stims/L/dishwasher/dishwasher9.jpg,,,,,,,,,,,45.5,1.5,1.0,
42,,iti,,html-keyboard-response,42,53987,0.0-1.0-64.0,0,0,31921,,,,,,,,,,,,,,,,,,,,,,,,,,,,,,,,,,46.5,1.0,,
43,,size_choice,,html-keyboard-response,43,56381,0.0-1.0-66.0,0,0,31921,,,,,,16.0,16.0,1.0,3000.0,XL-XL,,XL,XL,4.0,4.0,dumptruck,crane,dumptruck9,crane9,178.0,168.0,/static/Size_judgement/Stimuli/Size_stims/XL/dumptruck/dumptruck5.jpg,/static/Size_judgement/Stimuli/Size_stims/XL/crane/crane8.jpg,,,,,,,,,,,48.0,1.5,1.0,
44,,iti,,html-keyboard-response,44,57288,0.0-1.0-68.0,0,0,31921,,,,,,,,,,,,,,,,,,,,,,,,,,,,,,,,,,51.0,3.0,,
45,,size_choice,,html-keyboard-response,45,59834,0.0-1.0-70.0,0,0,31921,,,,,,17.0,17.0,1.0,1000.0,L-L,,L,L,3.0,3.0,deskchair,mailbox,deskchair2,mailbox5,11.0,44.0,/static/Size_judgement/Stimuli/Size_stims/L/deskchair/deskchair8.jpg,/static/Size_judgement/Stimuli/Size_stims/L/mailbox/mailbox4.jpg,,,,,,,,,,,52.5,1.5,1.0,
46,,iti,,html-keyboard-response,46,60062,0.0-1.0-72.0,0,0,31921,,,,,,,,,,,,,,,,,,,,,,,,,,,,,,,,,,53.5,1.0,,
47,,size_choice,,html-keyboard-response,47,62058,0.0-1.0-74.0,0,0,31921,,,,,,18.0,18.0,1.0,3000.0,M-XL,1.0,XL,M,4.0,2.0,van,coffeemaker,van2,coffeemaker8,191.0,67.0,/static/Size_judgement/Stimuli/Size_stims/XL/van/van4.jpg,/static/Size_judgement/Stimuli/Size_stims/M/coffeemaker/coffeemaker5.jpg,,,,,,,,,,,55.0,1.5,1.0,
48,,iti,,html-keyboard-response,48,63450,0.0-1.0-76.0,0,0,31921,,,,,,,,,,,,,,,,,,,,,,,,,,,,,,,,,,58.0,3.0,,
49,,size_choice,,html-keyboard-response,49,65458,0.0-1.0-78.0,0,0,31921,,,,,,19.0,19.0,1.0,1000.0,M-XL,1.0,XL,M,4.0,2.0,tractor,handsaw,tractor6,handsaw1,185.0,80.0,/static/Size_judgement/Stimuli/Size_stims/XL/tractor/tractor3.jpg,/static/Size_judgement/Stimuli/Size_stims/M/handsaw/handsaw8.jpg,,,,,,,,,,,59.5,1.5,1.0,
50,,iti,,html-keyboard-response,50,66250,0.0-1.0-80.0,0,0,31921,,,,,,,,,,,,,,,,,,,,,,,,,,,,,,,,,,60.5,1.0,,
51,,size_choice,,html-keyboard-response,51,68853,0.0-1.0-82.0,0,0,31921,,,,,,20.0,20.0,1.0,1000.0,M-XL,0.0,M,XL,2.0,4.0,hairdryer,van,hairdryer9,van1,78.0,190.0,/static/Size_judgement/Stimuli/Size_stims/M/hairdryer/hairdryer5.jpg,/static/Size_judgement/Stimuli/Size_stims/XL/van/van5.jpg,,,,,,,,,,,62.0,1.5,1.0,
52,,iti,,html-keyboard-response,52,69053,0.0-1.0-84.0,0,0,31921,,,,,,,,,,,,,,,,,,,,,,,,,,,,,,,,,,63.0,1.0,,
53,,size_choice,,html-keyboard-response,53,71752,0.0-1.0-86.0,0,0,31921,,,,,,21.0,21.0,1.0,1000.0,S-M,0.0,S,M,1.0,2.0,die,hairdryer,die6,hairdryer4,105.0,73.0,/static/Size_judgement/Stimuli/Size_stims/S/die/die1.jpg,/static/Size_judgement/Stimuli/Size_stims/M/hairdryer/hairdryer16.jpg,,,,,,,,,,,64.5,1.5,1.0,
54,,iti,,html-keyboard-response,54,72016,0.0-1.0-88.0,0,0,31921,,,,,,,,,,,,,,,,,,,,,,,,,,,,,,,,,,65.5,1.0,,
55,,size_choice,,html-keyboard-response,55,74620,0.0-1.0-90.0,0,0,31921,,,,,,22.0,22.0,1.0,1000.0,S-L,1.0,L,S,3.0,1.0,mailbox,teabag,mailbox3,teabag8,42.0,137.0,/static/Size_judgement/Stimuli/Size_stims/L/mailbox/mailbox1.jpg,/static/Size_judgement/Stimuli/Size_stims/S/teabag/teabag7.jpg,,,,,,,,,,,67.0,1.5,1.0,
56,,iti,,html-keyboard-response,56,75168,0.0-1.0-92.0,0,0,31921,,,,,,,,,,,,,,,,,,,,,,,,,,,,,,,,,,68.0,1.0,,
57,,size_choice,,html-keyboard-response,57,77345,0.0-1.0-94.0,0,0,31921,,,,,,23.0,23.0,1.0,1500.0,M-XL,1.0,XL,M,4.0,2.0,tractor,basketball,tractor4,basketball4,183.0,53.0,/static/Size_judgement/Stimuli/Size_stims/XL/tractor/tractor4.jpg,/static/Size_judgement/Stimuli/Size_stims/M/basketball/basketball1.jpg,,,,,,,,,,,69.5,1.5,1.0,
58,,iti,,html-keyboard-response,58,78306,0.0-1.0-96.0,0,0,31921,,,,,,,,,,,,,,,,,,,,,,,,,,,,,,,,,,71.0,1.5,,
59,,size_choice,,html-keyboard-response,59,80047,0.0-1.0-98.0,0,0,31921,,,,,,24.0,24.0,1.0,2000.0,S-XL,1.0,XL,S,4.0,1.0,dumptruck,die,dumptruck6,die8,175.0,107.0,/static/Size_judgement/Stimuli/Size_stims/XL/dumptruck/dumptruck2.jpg,/static/Size_judgement/Stimuli/Size_stims/S/die/die5.jpg,,,,,,,,,,,72.5,1.5,1.0,
60,,iti,,html-keyboard-response,60,81069,0.0-1.0-100.0,0,0,31921,,,,,,,,,,,,,,,,,,,,,,,,,,,,,,,,,,74.5,2.0,,
61,,size_choice,,html-keyboard-response,61,83482,0.0-1.0-102.0,0,0,31921,,,,,,25.0,25.0,1.0,1000.0,S-XL,1.0,XL,S,4.0,1.0,van,die,van10,die10,199.0,109.0,/static/Size_judgement/Stimuli/Size_stims/XL/van/van8.jpg,/static/Size_judgement/Stimuli/Size_stims/S/die/die6.jpg,,,,,,,,,,,76.0,1.5,1.0,
62,,iti,,html-keyboard-response,62,84238,0.0-1.0-104.0,0,0,31921,,,,,,,,,,,,,,,,,,,,,,,,,,,,,,,,,,77.0,1.0,,
63,,size_choice,,html-keyboard-response,63,86860,0.0-1.0-106.0,0,0,31921,,,,,,26.0,26.0,1.0,2000.0,M-M,,M,M,2.0,2.0,coffeemaker,hairdryer,coffeemaker5,hairdryer1,64.0,70.0,/static/Size_judgement/Stimuli/Size_stims/M/coffeemaker/coffeemaker10.jpg,/static/Size_judgement/Stimuli/Size_stims/M/hairdryer/hairdryer11.jpg,,,,,,,,,,,78.5,1.5,1.0,
64,,iti,,html-keyboard-response,64,87047,0.0-1.0-108.0,0,0,31921,,,,,,,,,,,,,,,,,,,,,,,,,,,,,,,,,,80.5,2.0,,
65,,size_choice,,html-keyboard-response,65,89338,0.0-1.0-110.0,0,0,31921,,,,,,27.0,27.0,1.0,3000.0,XL-XL,,XL,XL,4.0,4.0,car,dumptruck,car7,dumptruck2,156.0,171.0,/static/Size_judgement/Stimuli/Size_stims/XL/car/car13.jpg,/static/Size_judgement/Stimuli/Size_stims/XL/dumptruck/dumptruck8.jpg,,,,,,,,,,,82.0,1.5,1.0,
66,,iti,,html-keyboard-response,66,90309,0.0-1.0-112.0,0,0,31921,,,,,,,,,,,,,,,,,,,,,,,,,,,,,,,,,,85.0,3.0,,
67,,size_choice,,html-keyboard-response,67,92013,0.0-1.0-114.0,0,0,31921,,,,,,28.0,28.0,1.0,1000.0,M-L,1.0,L,M,3.0,2.0,mailbox,ketchup,mailbox2,ketchup6,41.0,95.0,/static/Size_judgement/Stimuli/Size_stims/L/mailbox/mailbox2.jpg,/static/Size_judgement/Stimuli/Size_stims/M/ketchup/ketchup1.jpg,,,,,,,,,,,86.5,1.5,1.0,
68,,iti,,html-keyboard-response,68,93472,0.0-1.0-116.0,0,0,31921,,,,,,,,,,,,,,,,,,,,,,,,,,,,,,,,,,87.5,1.0,,
69,,size_choice,,html-keyboard-response,69,95035,0.0-1.0-118.0,0,0,31921,,,,,,29.0,29.0,1.0,3500.0,L-XL,1.0,XL,L,4.0,3.0,van,cooler,van7,cooler5,196.0,4.0,/static/Size_judgement/Stimuli/Size_stims/XL/van/van1.jpg,/static/Size_judgement/Stimuli/Size_stims/L/cooler/cooler10.jpg,,,,,,,,,,,89.0,1.5,1.0,
70,,iti,,html-keyboard-response,70,96242,0.0-1.0-120.0,0,0,31921,,,,,,,,,,,,,,,,,,,,,,,,,,,,,,,,,,92.5,3.5,,
71,,size_choice,,html-keyboard-response,71,98088,0.0-1.0-122.0,0,0,31921,,,,,,30.0,30.0,1.0,1000.0,S-S,,S,S,1.0,1.0,paperclip,teabag,paperclip9,teabag2,118.0,131.0,/static/Size_judgement/Stimuli/Size_stims/S/paperclip/paperclip4.jpg,/static/Size_judgement/Stimuli/Size_stims/S/teabag/teabag8.jpg,,,,,,,,,,,94.0,1.5,1.0,
72,,iti,,html-keyboard-response,72,99435,0.0-1.0-124.0,0,0,31921,,,,,,,,,,,,,,,,,,,,,,,,,,,,,,,,,,95.0,1.0,,
73,,size_choice,,html-keyboard-response,73,100987,0.0-1.0-126.0,0,0,31921,,,,,,31.0,31.0,1.0,1500.0,S-S,,S,S,1.0,1.0,thread,screws,thread4,screws8,143.0,127.0,/static/Size_judgement/Stimuli/Size_stims/S/thread/thread5.jpg,/static/Size_judgement/Stimuli/Size_stims/S/screws/screws10.jpg,,,,,,,,,,,96.5,1.5,1.0,
74,,iti,,html-keyboard-response,74,102485,0.0-1.0-128.0,0,0,31921,,,,,,,,,,,,,,,,,,,,,,,,,,,,,,,,,,98.0,1.5,,
75,,size_choice,,html-keyboard-response,75,104735,0.0-1.0-130.0,0,0,31921,,,,,,32.0,32.0,1.0,2000.0,S-XL,0.0,S,XL,1.0,4.0,die,crane,die7,crane8,106.0,167.0,/static/Size_judgement/Stimuli/Size_stims/S/die/die4.jpg,/static/Size_judgement/Stimuli/Size_stims/XL/crane/crane10.jpg,,,,,,,,,,,99.5,1.5,1.0,
76,,iti,,html-keyboard-response,76,104987,0.0-1.0-132.0,0,0,31921,,,,,,,,,,,,,,,,,,,,,,,,,,,,,,,,,,101.5,2.0,,
77,,size_choice,,html-keyboard-response,77,107054,0.0-1.0-134.0,0,0,31921,,,,,,33.0,33.0,1.0,1000.0,M-M,,M,M,2.0,2.0,hairdryer,handsaw,hairdryer3,handsaw3,72.0,82.0,/static/Size_judgement/Stimuli/Size_stims/M/hairdryer/hairdryer17.jpg,/static/Size_judgement/Stimuli/Size_stims/M/handsaw/handsaw2.jpg,,,,,,,,,,,103.0,1.5,1.0,
78,,iti,,html-keyboard-response,78,107157,0.0-1.0-136.0,0,0,31921,,,,,,,,,,,,,,,,,,,,,,,,,,,,,,,,,,104.0,1.0,,
79,,size_choice,,html-keyboard-response,79,107997,0.0-1.0-138.0,0,0,31921,,840.0,,,68.0,34.0,34.0,1.0,1500.0,L-L,,L,L,3.0,3.0,garbagecan,cooler,garbagecan9,cooler1,38.0,0.0,/static/Size_judgement/Stimuli/Size_stims/L/garbagecan/garbagecan12.jpg,/static/Size_judgement/Stimuli/Size_stims/L/cooler/cooler8.jpg,1.0,garbagecan,cooler,L,L,3.0,3.0,garbagecan9,cooler1,,104.84,0.84,0.0,
80,,size_choice_confirmation,,html-keyboard-response,80,108662,0.0-1.0-139.0-0.0,0,0,31921,,,,,,34.0,,,,,,,,,,,,,,,,,,,,,,,,,,,,105.5,0.66,,
81,,iti,,html-keyboard-response,81,108768,0.0-1.0-140.0,0,0,31921,,,,,,,,,,,,,,,,,,,,,,,,,,,,,,,,,,107.0,1.5,,
82,,size_choice,,html-keyboard-response,82,108888,0.0-1.0-142.0,0,0,31921,,119.0,,,75.0,35.0,35.0,1.0,2000.0,S-L,1.0,L,S,3.0,1.0,cooler,teabag,cooler9,teabag1,8.0,130.0,/static/Size_judgement/Stimuli/Size_stims/L/cooler/cooler7.jpg,/static/Size_judgement/Stimuli/Size_stims/S/teabag/teabag9.jpg,0.0,teabag,cooler,S,L,1.0,3.0,teabag1,cooler9,0.0,107.119,0.11900000000000001,0.0,
83,,size_choice_confirmation,,html-keyboard-response,83,110275,0.0-1.0-143.0-0.0,0,0,31921,,,,,,35.0,,,,,,,,,,,,,,,,,,,,,,,,,,,,108.5,1.381,,
84,,iti,,html-keyboard-response,84,110378,0.0-1.0-144.0,0,0,31921,,,,,,,,,,,,,,,,,,,,,,,,,,,,,,,,,,110.5,2.0,,
85,,size_choice,,html-keyboard-response,85,110385,0.0-1.0-146.0,0,0,31921,,6.0,,,75.0,36.0,36.0,1.0,3500.0,M-L,1.0,L,M,3.0,2.0,garbagecan,ketchup,garbagecan3,ketchup5,32.0,94.0,/static/Size_judgement/Stimuli/Size_stims/L/garbagecan/garbagecan7.jpg,/static/Size_judgement/Stimuli/Size_stims/M/ketchup/ketchup3.jpg,0.0,ketchup,garbagecan,M,L,2.0,3.0,ketchup5,garbagecan3,0.0,110.506,0.006,0.0,
86,,size_choice_confirmation,,html-keyboard-response,86,111881,0.0-1.0-147.0-0.0,0,0,31921,,,,,,36.0,,,,,,,,,,,,,,,,,,,,,,,,,,,,112.0,1.494,,
87,,iti,,html-keyboard-response,87,111982,0.0-1.0-148.0,0,0,31921,,,,,,,,,,,,,,,,,,,,,,,,,,,,,,,,,,115.5,3.5,,
88,,size_choice,,html-keyboard-response,88,112033,0.0-1.0-150.0,0,0,31921,,49.0,,,68.0,37.0,37.0,1.0,1500.0,M-L,1.0,L,M,3.0,2.0,mailbox,ketchup,mailbox6,ketchup4,45.0,93.0,/static/Size_judgement/Stimuli/Size_stims/L/mailbox/mailbox6.jpg,/static/Size_judgement/Stimuli/Size_stims/M/ketchup/ketchup2.jpg,1.0,mailbox,ketchup,L,M,3.0,2.0,mailbox6,ketchup4,1.0,115.54899999999999,0.049,0.0,
89,,size_choice_confirmation,,html-keyboard-response,89,113485,0.0-1.0-151.0-0.0,0,0,31921,,,,,,37.0,,,,,,,,,,,,,,,,,,,,,,,,,,,,117.0,1.4509999999999998,,
90,,iti,,html-keyboard-response,90,113587,0.0-1.0-152.0,0,0,31921,,,,,,,,,,,,,,,,,,,,,,,,,,,,,,,,,,118.5,1.5,,
91,,size_choice,,html-keyboard-response,91,113597,0.0-1.0-154.0,0,0,31921,,9.0,,,68.0,38.0,38.0,1.0,1000.0,L-L,,L,L,3.0,3.0,mailbox,garbagecan,mailbox8,garbagecan4,47.0,33.0,/static/Size_judgement/Stimuli/Size_stims/L/mailbox/mailbox10.jpg,/static/Size_judgement/Stimuli/Size_stims/L/garbagecan/garbagecan6.jpg,1.0,mailbox,garbagecan,L,L,3.0,3.0,mailbox8,garbagecan4,,118.509,0.009000000000000001,0.0,
92,,size_choice_confirmation,,html-keyboard-response,92,115093,0.0-1.0-155.0-0.0,0,0,31921,,,,,,38.0,,,,,,,,,,,,,,,,,,,,,,,,,,,,120.0,1.4909999999999999,,
93,,iti,,html-keyboard-response,93,115197,0.0-1.0-156.0,0,0,31921,,,,,,,,,,,,,,,,,,,,,,,,,,,,,,,,,,121.0,1.0,,
94,,size_choice,,html-keyboard-response,94,115259,0.0-1.0-158.0,0,0,31921,,61.0,,,75.0,39.0,39.0,1.0,1000.0,M-M,,M,M,2.0,2.0,basketball,hairdryer,basketball6,hairdryer7,55.0,76.0,/static/Size_judgement/Stimuli/Size_stims/M/basketball/basketball2.jpg,/static/Size_judgement/Stimuli/Size_stims/M/hairdryer/hairdryer3.jpg,0.0,hairdryer,basketball,M,M,2.0,2.0,hairdryer7,basketball6,,121.061,0.061,0.0,
95,,size_choice_confirmation,,html-keyboard-response,95,116704,0.0-1.0-159.0-0.0,0,0,31921,,,,,,39.0,,,,,,,,,,,,,,,,,,,,,,,,,,,,122.5,1.439,,
96,,iti,,html-keyboard-response,96,116807,0.0-1.0-160.0,0,0,31921,,,,,,,,,,,,,,,,,,,,,,,,,,,,,,,,,,123.5,1.0,,
97,,size_choice,,html-keyboard-response,97,116857,0.0-1.0-162.0,0,0,31921,,49.0,,,75.0,40.0,40.0,1.0,3000.0,S-XL,1.0,XL,S,4.0,1.0,crane,thread,crane7,thread5,166.0,144.0,/static/Size_judgement/Stimuli/Size_stims/XL/crane/crane3.jpg,/static/Size_judgement/Stimuli/Size_stims/S/thread/thread1.jpg,0.0,thread,crane,S,XL,1.0,4.0,thread5,crane7,0.0,123.54899999999999,0.049,0.0,
98,,size_choice_confirmation,,html-keyboard-response,98,118311,0.0-1.0-163.0-0.0,0,0,31921,,,,,,40.0,,,,,,,,,,,,,,,,,,,,,,,,,,,,125.0,1.4509999999999998,,
99,,iti,,html-keyboard-response,99,118415,0.0-1.0-164.0,0,0,31921,,,,,,,,,,,,,,,,,,,,,,,,,,,,,,,,,,128.0,3.0,,
100,,size_choice,,html-keyboard-response,100,118421,0.0-1.0-166.0,0,0,31921,,5.0,,,75.0,41.0,41.0,1.0,1000.0,S-XL,0.0,S,XL,1.0,4.0,teabag,tractor,teabag7,tractor7,136.0,186.0,/static/Size_judgement/Stimuli/Size_stims/S/teabag/teabag10.jpg,/static/Size_judgement/Stimuli/Size_stims/XL/tractor/tractor2.jpg,0.0,tractor,teabag,XL,S,4.0,1.0,tractor7,teabag7,1.0,128.005,0.005,0.0,
101,,size_choice_confirmation,,html-keyboard-response,101,119922,0.0-1.0-167.0-0.0,0,0,31921,,,,,,41.0,,,,,,,,,,,,,,,,,,,,,,,,,,,,129.5,1.495,,
102,,iti,,html-keyboard-response,102,120026,0.0-1.0-168.0,0,0,31921,,,,,,,,,,,,,,,,,,,,,,,,,,,,,,,,,,130.5,1.0,,
103,,size_choice,,html-keyboard-response,103,121530,0.0-1.0-170.0,0,0,31921,,,,,,42.0,42.0,1.0,1500.0,L-XL,0.0,L,XL,3.0,4.0,garbagecan,car,garbagecan10,car6,39.0,155.0,/static/Size_judgement/Stimuli/Size_stims/L/garbagecan/garbagecan11.jpg,/static/Size_judgement/Stimuli/Size_stims/XL/car/car12.jpg,,,,,,,,,,,132.0,1.5,1.0,
104,,iti,,html-keyboard-response,104,121634,0.0-1.0-172.0,0,0,31921,,,,,,,,,,,,,,,,,,,,,,,,,,,,,,,,,,133.5,1.5,,
105,,size_choice,,html-keyboard-response,105,123139,0.0-1.0-174.0,0,0,31921,,,,,,43.0,43.0,1.0,3500.0,M-XL,1.0,XL,M,4.0,2.0,car,coffeemaker,car4,coffeemaker9,153.0,68.0,/static/Size_judgement/Stimuli/Size_stims/XL/car/car6.jpg,/static/Size_judgement/Stimuli/Size_stims/M/coffeemaker/coffeemaker7.jpg,,,,,,,,,,,135.0,1.5,1.0,
106,,iti,,html-keyboard-response,106,123242,0.0-1.0-176.0,0,0,31921,,,,,,,,,,,,,,,,,,,,,,,,,,,,,,,,,,138.5,3.5,,
107,,size_choice,,html-keyboard-response,107,124745,0.0-1.0-178.0,0,0,31921,,,,,,44.0,44.0,1.0,2000.0,L-XL,0.0,L,XL,3.0,4.0,cooler,car,cooler4,car5,3.0,154.0,/static/Size_judgement/Stimuli/Size_stims/L/cooler/cooler3.jpg,/static/Size_judgement/Stimuli/Size_stims/XL/car/car11.jpg,,,,,,,,,,,140.0,1.5,1.0,
108,,iti,,html-keyboard-response,108,124851,0.0-1.0-180.0,0,0,31921,,,,,,,,,,,,,,,,,,,,,,,,,,,,,,,,,,142.0,2.0,,
109,,block_over,,html-keyboard-response,109,131443,0.0-1.0-181.0-0.0,0,0,31921,,6590.0,,,68.0,44.0,,,,,,,,,,,,,,,,,,,,,,,,,,,,,,,
110,,size_choice,,html-keyboard-response,110,131646,0.0-1.0-182.0,0,0,31921,,202.0,,,75.0,45.0,45.0,2.0,3500.0,S-M,0.0,S,M,1.0,2.0,screws,handsaw,screws5,handsaw6,124.0,85.0,/static/Size_judgement/Stimuli/Size_stims/S/screws/screws2.jpg,/static/Size_judgement/Stimuli/Size_stims/M/handsaw/handsaw4.jpg,0.0,handsaw,screws,M,S,2.0,1.0,handsaw6,screws5,1.0,142.202,0.20199999999999999,0.0,
111,,size_choice_confirmation,,html-keyboard-response,111,132949,0.0-1.0-183.0-0.0,0,0,31921,,,,,,45.0,,,,,,,,,,,,,,,,,,,,,,,,,,,,143.5,1.298,,
112,,iti,,html-keyboard-response,112,133053,0.0-1.0-184.0,0,0,31921,,,,,,,,,,,,,,,,,,,,,,,,,,,,,,,,,,147.0,3.5,,
113,,size_choice,,html-keyboard-response,113,133169,0.0-1.0-186.0,0,0,31921,,115.0,,,75.0,46.0,46.0,2.0,1000.0,S-S,,S,S,1.0,1.0,screws,paperclip,screws9,paperclip6,128.0,115.0,/static/Size_judgement/Stimuli/Size_stims/S/screws/screws8.jpg,/static/Size_judgement/Stimuli/Size_stims/S/paperclip/paperclip6.jpg,0.0,paperclip,screws,S,S,1.0,1.0,paperclip6,screws9,,147.115,0.115,0.0,
114,,size_choice_confirmation,,html-keyboard-response,114,134560,0.0-1.0-187.0-0.0,0,0,31921,,,,,,46.0,,,,,,,,,,,,,,,,,,,,,,,,,,,,148.5,1.385,,
115,,iti,,html-keyboard-response,115,134664,0.0-1.0-188.0,0,0,31921,,,,,,,,,,,,,,,,,,,,,,,,,,,,,,,,,,149.5,1.0,,
116,,size_choice,,html-keyboard-response,116,136168,0.0-1.0-190.0,0,0,31921,,,,,,47.0,47.0,2.0,2000.0,M-XL,1.0,XL,M,4.0,2.0,crane,basketball,crane5,basketball5,164.0,54.0,/static/Size_judgement/Stimuli/Size_stims/XL/crane/crane1.jpg,/static/Size_judgement/Stimuli/Size_stims/M/basketball/basketball3.jpg,,,,,,,,,,,151.0,1.5,1.0,
117,,iti,,html-keyboard-response,117,136269,0.0-1.0-192.0,0,0,31921,,,,,,,,,,,,,,,,,,,,,,,,,,,,,,,,,,153.0,2.0,,
118,,size_choice,,html-keyboard-response,118,137773,0.0-1.0-194.0,0,0,31921,,,,,,48.0,48.0,2.0,1000.0,M-L,0.0,M,L,2.0,3.0,hairdryer,mailbox,hairdryer6,mailbox10,75.0,49.0,/static/Size_judgement/Stimuli/Size_stims/M/hairdryer/hairdryer8.jpg,/static/Size_judgement/Stimuli/Size_stims/L/mailbox/mailbox8.jpg,,,,,,,,,,,154.5,1.5,1.0,
119,,iti,,html-keyboard-response,119,137874,0.0-1.0-196.0,0,0,31921,,,,,,,,,,,,,,,,,,,,,,,,,,,,,,,,,,155.5,1.0,,
120,,size_choice,,html-keyboard-response,120,139376,0.0-1.0-198.0,0,0,31921,,,,,,49.0,49.0,2.0,2000.0,M-XL,1.0,XL,M,4.0,2.0,tractor,coffeemaker,tractor5,coffeemaker1,184.0,60.0,/static/Size_judgement/Stimuli/Size_stims/XL/tractor/tractor1.jpg,/static/Size_judgement/Stimuli/Size_stims/M/coffeemaker/coffeemaker14.jpg,,,,,,,,,,,157.0,1.5,1.0,
121,,iti,,html-keyboard-response,121,139480,0.0-1.0-200.0,0,0,31921,,,,,,,,,,,,,,,,,,,,,,,,,,,,,,,,,,159.0,2.0,,
122,,size_choice,,html-keyboard-response,122,139566,0.0-1.0-202.0,0,0,31921,,85.0,,,68.0,50.0,50.0,2.0,1000.0,S-XL,1.0,XL,S,4.0,1.0,car,teabag,car9,teabag10,158.0,139.0,/static/Size_judgement/Stimuli/Size_stims/XL/car/car15.jpg,/static/Size_judgement/Stimuli/Size_stims/S/teabag/teabag4.jpg,1.0,car,teabag,XL,S,4.0,1.0,car9,teabag10,1.0,159.085,0.085,0.0,
123,,size_choice_confirmation,,html-keyboard-response,123,140986,0.0-1.0-203.0-0.0,0,0,31921,,,,,,50.0,,,,,,,,,,,,,,,,,,,,,,,,,,,,160.5,1.415,,
124,,iti,,html-keyboard-response,124,141090,0.0-1.0-204.0,0,0,31921,,,,,,,,,,,,,,,,,,,,,,,,,,,,,,,,,,161.5,1.0,,
125,,size_choice,,html-keyboard-response,125,141103,0.0-1.0-206.0,0,0,31921,,11.0,,,68.0,51.0,51.0,2.0,1500.0,XL-XL,,XL,XL,4.0,4.0,crane,car,crane10,car8,169.0,157.0,/static/Size_judgement/Stimuli/Size_stims/XL/crane/crane9.jpg,/static/Size_judgement/Stimuli/Size_stims/XL/car/car14.jpg,1.0,crane,car,XL,XL,4.0,4.0,crane10,car8,,161.511,0.011000000000000001,0.0,
126,,size_choice_confirmation,,html-keyboard-response,126,142597,0.0-1.0-207.0-0.0,0,0,31921,,,,,,51.0,,,,,,,,,,,,,,,,,,,,,,,,,,,,163.0,1.489,,
127,,iti,,html-keyboard-response,127,142701,0.0-1.0-208.0,0,0,31921,,,,,,,,,,,,,,,,,,,,,,,,,,,,,,,,,,164.5,1.5,,
128,,size_choice,,html-keyboard-response,128,142905,0.0-1.0-210.0,0,0,31921,,203.0,,,75.0,52.0,52.0,2.0,1000.0,M-L,0.0,M,L,2.0,3.0,coffeemaker,dishwasher,coffeemaker2,dishwasher3,61.0,22.0,/static/Size_judgement/Stimuli/Size_stims/M/coffeemaker/coffeemaker12.jpg,/static/Size_judgement/Stimuli/Size_stims/L/dishwasher/dishwasher8.jpg,0.0,dishwasher,coffeemaker,L,M,3.0,2.0,dishwasher3,coffeemaker2,1.0,164.703,0.203,0.0,
129,,size_choice_confirmation,,html-keyboard-response,129,144205,0.0-1.0-211.0-0.0,0,0,31921,,,,,,52.0,,,,,,,,,,,,,,,,,,,,,,,,,,,,166.0,1.297,,
130,,iti,,html-keyboard-response,130,144306,0.0-1.0-212.0,0,0,31921,,,,,,,,,,,,,,,,,,,,,,,,,,,,,,,,,,167.0,1.0,,
131,,size_choice,,html-keyboard-response,131,144505,0.0-1.0-214.0,0,0,31921,,198.0,,,75.0,53.0,53.0,2.0,3000.0,S-L,1.0,L,S,3.0,1.0,deskchair,paperclip,deskchair4,paperclip7,13.0,116.0,/static/Size_judgement/Stimuli/Size_stims/L/deskchair/deskchair6.jpg,/static/Size_judgement/Stimuli/Size_stims/S/paperclip/paperclip7.jpg,0.0,paperclip,deskchair,S,L,1.0,3.0,paperclip7,deskchair4,0.0,167.19799999999998,0.198,0.0,
132,,size_choice_confirmation,,html-keyboard-response,132,145813,0.0-1.0-215.0-0.0,0,0,31921,,,,,,53.0,,,,,,,,,,,,,,,,,,,,,,,,,,,,168.5,1.3019999999999998,,
133,,iti,,html-keyboard-response,133,145917,0.0-1.0-216.0,0,0,31921,,,,,,,,,,,,,,,,,,,,,,,,,,,,,,,,,,171.5,3.0,,
134,,size_choice,,html-keyboard-response,134,147423,0.0-1.0-218.0,0,0,31921,,,,,,54.0,54.0,2.0,2000.0,S-S,,S,S,1.0,1.0,screws,paperclip,screws1,paperclip10,120.0,119.0,/static/Size_judgement/Stimuli/Size_stims/S/screws/screws4.jpg,/static/Size_judgement/Stimuli/Size_stims/S/paperclip/paperclip10.jpg,,,,,,,,,,,173.0,1.5,1.0,
135,,iti,,html-keyboard-response,135,147528,0.0-1.0-220.0,0,0,31921,,,,,,,,,,,,,,,,,,,,,,,,,,,,,,,,,,175.0,2.0,,
136,,size_choice,,html-keyboard-response,136,147970,0.0-1.0-222.0,0,0,31921,,441.0,,,75.0,55.0,55.0,2.0,1500.0,M-L,1.0,L,M,3.0,2.0,dishwasher,ketchup,dishwasher5,ketchup2,24.0,91.0,/static/Size_judgement/Stimuli/Size_stims/L/dishwasher/dishwasher4.jpg,/static/Size_judgement/Stimuli/Size_stims/M/ketchup/ketchup9.jpg,0.0,ketchup,dishwasher,M,L,2.0,3.0,ketchup2,dishwasher5,0.0,175.44099999999997,0.441,0.0,
137,,size_choice_confirmation,,html-keyboard-response,137,149034,0.0-1.0-223.0-0.0,0,0,31921,,,,,,55.0,,,,,,,,,,,,,,,,,,,,,,,,,,,,176.5,1.0590000000000002,,
138,,iti,,html-keyboard-response,138,149139,0.0-1.0-224.0,0,0,31921,,,,,,,,,,,,,,,,,,,,,,,,,,,,,,,,,,178.0,1.5,,
139,,size_choice,,html-keyboard-response,139,149312,0.0-1.0-226.0,0,0,31921,,172.0,,,75.0,56.0,56.0,2.0,1000.0,M-L,0.0,M,L,2.0,3.0,hairdryer,deskchair,hairdryer5,deskchair3,74.0,12.0,/static/Size_judgement/Stimuli/Size_stims/M/hairdryer/hairdryer15.jpg,/static/Size_judgement/Stimuli/Size_stims/L/deskchair/deskchair10.jpg,0.0,deskchair,hairdryer,L,M,3.0,2.0,deskchair3,hairdryer5,1.0,178.172,0.172,0.0,
140,,size_choice_confirmation,,html-keyboard-response,140,150645,0.0-1.0-227.0-0.0,0,0,31921,,,,,,56.0,,,,,,,,,,,,,,,,,,,,,,,,,,,,179.5,1.328,,
141,,iti,,html-keyboard-response,141,150746,0.0-1.0-228.0,0,0,31921,,,,,,,,,,,,,,,,,,,,,,,,,,,,,,,,,,180.5,1.0,,
142,,size_choice,,html-keyboard-response,142,151706,0.0-1.0-230.0,0,0,31921,,959.0,,,75.0,57.0,57.0,2.0,1000.0,S-XL,0.0,S,XL,1.0,4.0,thread,dumptruck,thread7,dumptruck1,146.0,170.0,/static/Size_judgement/Stimuli/Size_stims/S/thread/thread3.jpg,/static/Size_judgement/Stimuli/Size_stims/XL/dumptruck/dumptruck9.jpg,0.0,dumptruck,thread,XL,S,4.0,1.0,dumptruck1,thread7,1.0,181.459,0.9590000000000001,0.0,
143,,size_choice_confirmation,,html-keyboard-response,143,152253,0.0-1.0-231.0-0.0,0,0,31921,,,,,,57.0,,,,,,,,,,,,,,,,,,,,,,,,,,,,182.0,0.541,,
144,,iti,,html-keyboard-response,144,152357,0.0-1.0-232.0,0,0,31921,,,,,,,,,,,,,,,,,,,,,,,,,,,,,,,,,,183.0,1.0,,
145,,size_choice,,html-keyboard-response,145,152583,0.0-1.0-234.0,0,0,31921,,225.0,,,75.0,58.0,58.0,2.0,1000.0,S-L,0.0,S,L,1.0,3.0,teabag,dishwasher,teabag9,dishwasher6,138.0,25.0,/static/Size_judgement/Stimuli/Size_stims/S/teabag/teabag5.jpg,/static/Size_judgement/Stimuli/Size_stims/L/dishwasher/dishwasher6.jpg,0.0,dishwasher,teabag,L,S,3.0,1.0,dishwasher6,teabag9,1.0,183.225,0.225,0.0,
146,,size_choice_confirmation,,html-keyboard-response,146,153864,0.0-1.0-235.0-0.0,0,0,31921,,,,,,58.0,,,,,,,,,,,,,,,,,,,,,,,,,,,,184.5,1.275,,
147,,iti,,html-keyboard-response,147,153969,0.0-1.0-236.0,0,0,31921,,,,,,,,,,,,,,,,,,,,,,,,,,,,,,,,,,185.5,1.0,,
148,,size_choice,,html-keyboard-response,148,154259,0.0-1.0-238.0,0,0,31921,,289.0,,,75.0,59.0,59.0,2.0,1000.0,M-M,,M,M,2.0,2.0,basketball,ketchup,basketball2,ketchup10,51.0,99.0,/static/Size_judgement/Stimuli/Size_stims/M/basketball/basketball8.jpg,/static/Size_judgement/Stimuli/Size_stims/M/ketchup/ketchup6.jpg,0.0,ketchup,basketball,M,M,2.0,2.0,ketchup10,basketball2,,185.78900000000002,0.289,0.0,
149,,size_choice_confirmation,,html-keyboard-response,149,155474,0.0-1.0-239.0-0.0,0,0,31921,,,,,,59.0,,,,,,,,,,,,,,,,,,,,,,,,,,,,187.0,1.2109999999999999,,
150,,iti,,html-keyboard-response,150,155579,0.0-1.0-240.0,0,0,31921,,,,,,,,,,,,,,,,,,,,,,,,,,,,,,,,,,188.0,1.0,,
151,,size_choice,,html-keyboard-response,151,156259,0.0-1.0-242.0,0,0,31921,,679.0,,,75.0,60.0,60.0,2.0,1500.0,M-XL,0.0,M,XL,2.0,4.0,ketchup,dumptruck,ketchup1,dumptruck3,90.0,172.0,/static/Size_judgement/Stimuli/Size_stims/M/ketchup/ketchup8.jpg,/static/Size_judgement/Stimuli/Size_stims/XL/dumptruck/dumptruck10.jpg,0.0,dumptruck,ketchup,XL,M,4.0,2.0,dumptruck3,ketchup1,1.0,188.679,0.679,0.0,
152,,size_choice_confirmation,,html-keyboard-response,152,157085,0.0-1.0-243.0-0.0,0,0,31921,,,,,,60.0,,,,,,,,,,,,,,,,,,,,,,,,,,,,189.5,0.821,,
153,,iti,,html-keyboard-response,153,157189,0.0-1.0-244.0,0,0,31921,,,,,,,,,,,,,,,,,,,,,,,,,,,,,,,,,,191.0,1.5,,
154,,size_choice,,html-keyboard-response,154,157884,0.0-1.0-246.0,0,0,31921,,692.0,,,75.0,61.0,61.0,2.0,1500.0,M-XL,0.0,M,XL,2.0,4.0,basketball,tractor,basketball1,tractor1,50.0,180.0,/static/Size_judgement/Stimuli/Size_stims/M/basketball/basketball9.jpg,/static/Size_judgement/Stimuli/Size_stims/XL/tractor/tractor6.jpg,0.0,tractor,basketball,XL,M,4.0,2.0,tractor1,basketball1,1.0,191.692,0.6920000000000001,0.0,
155,,size_choice_confirmation,,html-keyboard-response,155,158696,0.0-1.0-247.0-0.0,0,0,31921,,,,,,61.0,,,,,,,,,,,,,,,,,,,,,,,,,,,,192.5,0.8079999999999999,,
156,,iti,,html-keyboard-response,156,158800,0.0-1.0-248.0,0,0,31921,,,,,,,,,,,,,,,,,,,,,,,,,,,,,,,,,,194.0,1.5,,
157,,size_choice,,html-keyboard-response,157,158942,0.0-1.0-250.0,0,0,31921,,141.0,,,75.0,62.0,62.0,2.0,3000.0,L-XL,0.0,L,XL,3.0,4.0,cooler,van,cooler2,van9,1.0,198.0,/static/Size_judgement/Stimuli/Size_stims/L/cooler/cooler9.jpg,/static/Size_judgement/Stimuli/Size_stims/XL/van/van9.jpg,0.0,van,cooler,XL,L,4.0,3.0,van9,cooler2,1.0,194.141,0.141,0.0,
158,,size_choice_confirmation,,html-keyboard-response,158,160307,0.0-1.0-251.0-0.0,0,0,31921,,,,,,62.0,,,,,,,,,,,,,,,,,,,,,,,,,,,,195.5,1.359,,
159,,iti,,html-keyboard-response,159,160413,0.0-1.0-252.0,0,0,31921,,,,,,,,,,,,,,,,,,,,,,,,,,,,,,,,,,198.5,3.0,,
160,,size_choice,,html-keyboard-response,160,160885,0.0-1.0-254.0,0,0,31921,,471.0,,,75.0,63.0,63.0,2.0,3500.0,S-L,0.0,S,L,1.0,3.0,thread,dishwasher,thread2,dishwasher7,141.0,26.0,/static/Size_judgement/Stimuli/Size_stims/S/thread/thread6.jpg,/static/Size_judgement/Stimuli/Size_stims/L/dishwasher/dishwasher7.jpg,0.0,dishwasher,thread,L,S,3.0,1.0,dishwasher7,thread2,1.0,198.97099999999998,0.47100000000000003,0.0,
161,,size_choice_confirmation,,html-keyboard-response,161,161920,0.0-1.0-255.0-0.0,0,0,31921,,,,,,63.0,,,,,,,,,,,,,,,,,,,,,,,,,,,,200.0,1.0290000000000001,,
162,,iti,,html-keyboard-response,162,162024,0.0-1.0-256.0,0,0,31921,,,,,,,,,,,,,,,,,,,,,,,,,,,,,,,,,,203.5,3.5,,
163,,size_choice,,html-keyboard-response,163,163528,0.0-1.0-258.0,0,0,31921,,,,,,64.0,64.0,2.0,1500.0,M-L,0.0,M,L,2.0,3.0,handsaw,cooler,handsaw8,cooler7,87.0,6.0,/static/Size_judgement/Stimuli/Size_stims/M/handsaw/handsaw7.jpg,/static/Size_judgement/Stimuli/Size_stims/L/cooler/cooler4.jpg,,,,,,,,,,,205.0,1.5,1.0,
164,,iti,,html-keyboard-response,164,163632,0.0-1.0-260.0,0,0,31921,,,,,,,,,,,,,,,,,,,,,,,,,,,,,,,,,,206.5,1.5,,
165,,size_choice,,html-keyboard-response,165,164135,0.0-1.0-262.0,0,0,31921,,501.0,,,75.0,65.0,65.0,2.0,2000.0,M-L,0.0,M,L,2.0,3.0,handsaw,mailbox,handsaw5,mailbox1,84.0,40.0,/static/Size_judgement/Stimuli/Size_stims/M/handsaw/handsaw1.jpg,/static/Size_judgement/Stimuli/Size_stims/L/mailbox/mailbox3.jpg,0.0,mailbox,handsaw,L,M,3.0,2.0,mailbox1,handsaw5,1.0,207.00099999999998,0.501,0.0,
166,,size_choice_confirmation,,html-keyboard-response,166,165139,0.0-1.0-263.0-0.0,0,0,31921,,,,,,65.0,,,,,,,,,,,,,,,,,,,,,,,,,,,,208.0,0.9990000000000001,,
167,,iti,,html-keyboard-response,167,165242,0.0-1.0-264.0,0,0,31921,,,,,,,,,,,,,,,,,,,,,,,,,,,,,,,,,,210.0,2.0,,
168,,size_choice,,html-keyboard-response,168,166746,0.0-1.0-266.0,0,0,31921,,,,,,66.0,66.0,2.0,1000.0,M-XL,1.0,XL,M,4.0,2.0,car,ketchup,car10,ketchup8,159.0,97.0,/static/Size_judgement/Stimuli/Size_stims/XL/car/car9.jpg,/static/Size_judgement/Stimuli/Size_stims/M/ketchup/ketchup5.jpg,,,,,,,,,,,211.5,1.5,1.0,
169,,iti,,html-keyboard-response,169,166850,0.0-1.0-268.0,0,0,31921,,,,,,,,,,,,,,,,,,,,,,,,,,,,,,,,,,212.5,1.0,,
170,,size_choice,,html-keyboard-response,170,168355,0.0-1.0-270.0,0,0,31921,,,,,,67.0,67.0,2.0,1000.0,S-L,1.0,L,S,3.0,1.0,deskchair,thread,deskchair6,thread3,15.0,142.0,/static/Size_judgement/Stimuli/Size_stims/L/deskchair/deskchair5.jpg,/static/Size_judgement/Stimuli/Size_stims/S/thread/thread4.jpg,,,,,,,,,,,214.0,1.5,1.0,
171,,iti,,html-keyboard-response,171,168459,0.0-1.0-272.0,0,0,31921,,,,,,,,,,,,,,,,,,,,,,,,,,,,,,,,,,215.0,1.0,,
172,,size_choice,,html-keyboard-response,172,169962,0.0-1.0-274.0,0,0,31921,,,,,,68.0,68.0,2.0,2000.0,S-XL,0.0,S,XL,1.0,4.0,screws,dumptruck,screws3,dumptruck4,122.0,173.0,/static/Size_judgement/Stimuli/Size_stims/S/screws/screws7.jpg,/static/Size_judgement/Stimuli/Size_stims/XL/dumptruck/dumptruck1.jpg,,,,,,,,,,,216.5,1.5,1.0,
173,,iti,,html-keyboard-response,173,170067,0.0-1.0-276.0,0,0,31921,,,,,,,,,,,,,,,,,,,,,,,,,,,,,,,,,,218.5,2.0,,
174,,size_choice,,html-keyboard-response,174,171573,0.0-1.0-278.0,0,0,31921,,,,,,69.0,69.0,2.0,3000.0,S-XL,0.0,S,XL,1.0,4.0,paperclip,dumptruck,paperclip8,dumptruck7,117.0,176.0,/static/Size_judgement/Stimuli/Size_stims/S/paperclip/paperclip5.jpg,/static/Size_judgement/Stimuli/Size_stims/XL/dumptruck/dumptruck6.jpg,,,,,,,,,,,220.0,1.5,1.0,
175,,iti,,html-keyboard-response,175,171677,0.0-1.0-280.0,0,0,31921,,,,,,,,,,,,,,,,,,,,,,,,,,,,,,,,,,223.0,3.0,,
176,,size_choice,,html-keyboard-response,176,172666,0.0-1.0-282.0,0,0,31921,,988.0,,,75.0,70.0,70.0,2.0,1500.0,S-L,0.0,S,L,1.0,3.0,die,deskchair,die1,deskchair8,100.0,17.0,/static/Size_judgement/Stimuli/Size_stims/S/die/die8.jpg,/static/Size_judgement/Stimuli/Size_stims/L/deskchair/deskchair1.jpg,0.0,deskchair,die,L,S,3.0,1.0,deskchair8,die1,1.0,223.988,0.988,0.0,
177,,size_choice_confirmation,,html-keyboard-response,177,173180,0.0-1.0-283.0-0.0,0,0,31921,,,,,,70.0,,,,,,,,,,,,,,,,,,,,,,,,,,,,224.5,0.512,,
178,,iti,,html-keyboard-response,178,173284,0.0-1.0-284.0,0,0,31921,,,,,,,,,,,,,,,,,,,,,,,,,,,,,,,,,,226.0,1.5,,
179,,size_choice,,html-keyboard-response,179,174074,0.0-1.0-286.0,0,0,31921,,789.0,,,75.0,71.0,71.0,2.0,1500.0,XL-XL,,XL,XL,4.0,4.0,tractor,van,tractor3,van8,182.0,197.0,/static/Size_judgement/Stimuli/Size_stims/XL/tractor/tractor5.jpg,/static/Size_judgement/Stimuli/Size_stims/XL/van/van10.jpg,0.0,van,tractor,XL,XL,4.0,4.0,van8,tractor3,,226.78900000000002,0.789,0.0,
180,,size_choice_confirmation,,html-keyboard-response,180,174789,0.0-1.0-287.0-0.0,0,0,31921,,,,,,71.0,,,,,,,,,,,,,,,,,,,,,,,,,,,,227.5,0.711,,
181,,iti,,html-keyboard-response,181,174893,0.0-1.0-288.0,0,0,31921,,,,,,,,,,,,,,,,,,,,,,,,,,,,,,,,,,229.0,1.5,,
182,,size_choice,,html-keyboard-response,182,175621,0.0-1.0-290.0,0,0,31921,,728.0,,,75.0,72.0,72.0,2.0,1500.0,S-XL,0.0,S,XL,1.0,4.0,paperclip,dumptruck,paperclip4,dumptruck5,113.0,174.0,/static/Size_judgement/Stimuli/Size_stims/S/paperclip/paperclip3.jpg,/static/Size_judgement/Stimuli/Size_stims/XL/dumptruck/dumptruck3.jpg,0.0,dumptruck,paperclip,XL,S,4.0,1.0,dumptruck5,paperclip4,1.0,229.72799999999998,0.728,0.0,
183,,size_choice_confirmation,,html-keyboard-response,183,176397,0.0-1.0-291.0-0.0,0,0,31921,,,,,,72.0,,,,,,,,,,,,,,,,,,,,,,,,,,,,230.5,0.772,,
184,,iti,,html-keyboard-response,184,176502,0.0-1.0-292.0,0,0,31921,,,,,,,,,,,,,,,,,,,,,,,,,,,,,,,,,,232.0,1.5,,
185,,size_choice,,html-keyboard-response,185,177577,0.0-1.0-294.0,0,0,31921,,1073.0,,,75.0,73.0,73.0,2.0,3000.0,M-L,0.0,M,L,2.0,3.0,coffeemaker,dishwasher,coffeemaker6,dishwasher4,65.0,23.0,/static/Size_judgement/Stimuli/Size_stims/M/coffeemaker/coffeemaker8.jpg,/static/Size_judgement/Stimuli/Size_stims/L/dishwasher/dishwasher5.jpg,0.0,dishwasher,coffeemaker,L,M,3.0,2.0,dishwasher4,coffeemaker6,1.0,233.07299999999998,1.073,0.0,
186,,size_choice_confirmation,,html-keyboard-response,186,178008,0.0-1.0-295.0-0.0,0,0,31921,,,,,,73.0,,,,,,,,,,,,,,,,,,,,,,,,,,,,233.5,0.42700000000000005,,
187,,iti,,html-keyboard-response,187,178112,0.0-1.0-296.0,0,0,31921,,,,,,,,,,,,,,,,,,,,,,,,,,,,,,,,,,236.5,3.0,,
188,,size_choice,,html-keyboard-response,188,179616,0.0-1.0-298.0,0,0,31921,,,,,,74.0,74.0,2.0,1500.0,S-XL,1.0,XL,S,4.0,1.0,car,die,car1,die9,150.0,108.0,/static/Size_judgement/Stimuli/Size_stims/XL/car/car2.jpg,/static/Size_judgement/Stimuli/Size_stims/S/die/die7.jpg,,,,,,,,,,,238.0,1.5,1.0,
189,,iti,,html-keyboard-response,189,179720,0.0-1.0-300.0,0,0,31921,,,,,,,,,,,,,,,,,,,,,,,,,,,,,,,,,,239.5,1.5,,
190,,size_choice,,html-keyboard-response,190,181224,0.0-1.0-302.0,0,0,31921,,,,,,75.0,75.0,2.0,1500.0,M-XL,1.0,XL,M,4.0,2.0,crane,handsaw,crane1,handsaw10,160.0,89.0,/static/Size_judgement/Stimuli/Size_stims/XL/crane/crane7.jpg,/static/Size_judgement/Stimuli/Size_stims/M/handsaw/handsaw10.jpg,,,,,,,,,,,241.0,1.5,1.0,
191,,iti,,html-keyboard-response,191,181330,0.0-1.0-304.0,0,0,31921,,,,,,,,,,,,,,,,,,,,,,,,,,,,,,,,,,242.5,1.5,,
192,,size_choice,,html-keyboard-response,192,182091,0.0-1.0-306.0,0,0,31921,,760.0,,,75.0,76.0,76.0,2.0,1500.0,S-XL,1.0,XL,S,4.0,1.0,tractor,screws,tractor2,screws6,181.0,125.0,/static/Size_judgement/Stimuli/Size_stims/XL/tractor/tractor7.jpg,/static/Size_judgement/Stimuli/Size_stims/S/screws/screws3.jpg,0.0,screws,tractor,S,XL,1.0,4.0,screws6,tractor2,0.0,243.26,0.76,0.0,
193,,size_choice_confirmation,,html-keyboard-response,193,182837,0.0-1.0-307.0-0.0,0,0,31921,,,,,,76.0,,,,,,,,,,,,,,,,,,,,,,,,,,,,244.0,0.74,,
194,,iti,,html-keyboard-response,194,182941,0.0-1.0-308.0,0,0,31921,,,,,,,,,,,,,,,,,,,,,,,,,,,,,,,,,,245.5,1.5,,
195,,size_choice,,html-keyboard-response,195,184448,0.0-1.0-310.0,0,0,31921,,,,,,77.0,77.0,2.0,2000.0,M-L,0.0,M,L,2.0,3.0,coffeemaker,deskchair,coffeemaker4,deskchair5,63.0,14.0,/static/Size_judgement/Stimuli/Size_stims/M/coffeemaker/coffeemaker11.jpg,/static/Size_judgement/Stimuli/Size_stims/L/deskchair/deskchair7.jpg,,,,,,,,,,,247.0,1.5,1.0,
196,,iti,,html-keyboard-response,196,184552,0.0-1.0-312.0,0,0,31921,,,,,,,,,,,,,,,,,,,,,,,,,,,,,,,,,,249.0,2.0,,
197,,size_choice,,html-keyboard-response,197,186056,0.0-1.0-314.0,0,0,31921,,,,,,78.0,78.0,2.0,1500.0,M-XL,1.0,XL,M,4.0,2.0,dumptruck,coffeemaker,dumptruck10,coffeemaker10,179.0,69.0,/static/Size_judgement/Stimuli/Size_stims/XL/dumptruck/dumptruck4.jpg,/static/Size_judgement/Stimuli/Size_stims/M/coffeemaker/coffeemaker18.jpg,,,,,,,,,,,250.5,1.5,1.0,
198,,iti,,html-keyboard-response,198,186161,0.0-1.0-316.0,0,0,31921,,,,,,,,,,,,,,,,,,,,,,,,,,,,,,,,,,252.0,1.5,,
199,,size_choice,,html-keyboard-response,199,186781,0.0-1.0-318.0,0,0,31921,,619.0,,,75.0,79.0,79.0,2.0,1000.0,L-L,,L,L,3.0,3.0,mailbox,cooler,mailbox4,cooler6,43.0,5.0,/static/Size_judgement/Stimuli/Size_stims/L/mailbox/mailbox5.jpg,/static/Size_judgement/Stimuli/Size_stims/L/cooler/cooler1.jpg,0.0,cooler,mailbox,L,L,3.0,3.0,cooler6,mailbox4,,252.61900000000003,0.619,0.0,
200,,size_choice_confirmation,,html-keyboard-response,200,187668,0.0-1.0-319.0-0.0,0,0,31921,,,,,,79.0,,,,,,,,,,,,,,,,,,,,,,,,,,,,253.5,0.8809999999999999,,
201,,iti,,html-keyboard-response,201,187773,0.0-1.0-320.0,0,0,31921,,,,,,,,,,,,,,,,,,,,,,,,,,,,,,,,,,254.5,1.0,,
202,,size_choice,,html-keyboard-response,202,187970,0.0-1.0-322.0,0,0,31921,,195.0,,,75.0,80.0,80.0,2.0,1000.0,S-M,0.0,S,M,1.0,2.0,die,basketball,die3,basketball3,102.0,52.0,/static/Size_judgement/Stimuli/Size_stims/S/die/die10.jpg,/static/Size_judgement/Stimuli/Size_stims/M/basketball/basketball10.jpg,0.0,basketball,die,M,S,2.0,1.0,basketball3,die3,1.0,254.695,0.195,0.0,
203,,size_choice_confirmation,,html-keyboard-response,203,189280,0.0-1.0-323.0-0.0,0,0,31921,,,,,,80.0,,,,,,,,,,,,,,,,,,,,,,,,,,,,256.0,1.305,,
204,,iti,,html-keyboard-response,204,189384,0.0-1.0-324.0,0,0,31921,,,,,,,,,,,,,,,,,,,,,,,,,,,,,,,,,,257.0,1.0,,
205,,size_choice,,html-keyboard-response,205,189925,0.0-1.0-326.0,0,0,31921,,540.0,,,75.0,81.0,81.0,2.0,2000.0,S-L,0.0,S,L,1.0,3.0,thread,garbagecan,thread9,garbagecan7,148.0,36.0,/static/Size_judgement/Stimuli/Size_stims/S/thread/thread8.jpg,/static/Size_judgement/Stimuli/Size_stims/L/garbagecan/garbagecan16.jpg,0.0,garbagecan,thread,L,S,3.0,1.0,garbagecan7,thread9,1.0,257.54,0.54,0.0,
206,,size_choice_confirmation,,html-keyboard-response,206,190890,0.0-1.0-327.0-0.0,0,0,31921,,,,,,81.0,,,,,,,,,,,,,,,,,,,,,,,,,,,,258.5,0.96,,
207,,iti,,html-keyboard-response,207,190995,0.0-1.0-328.0,0,0,31921,,,,,,,,,,,,,,,,,,,,,,,,,,,,,,,,,,260.5,2.0,,
208,,size_choice,,html-keyboard-response,208,191127,0.0-1.0-330.0,0,0,31921,,130.0,,,75.0,82.0,82.0,2.0,2000.0,M-XL,1.0,XL,M,4.0,2.0,tractor,basketball,tractor8,basketball8,187.0,57.0,/static/Size_judgement/Stimuli/Size_stims/XL/tractor/tractor10.jpg,/static/Size_judgement/Stimuli/Size_stims/M/basketball/basketball7.jpg,0.0,basketball,tractor,M,XL,2.0,4.0,basketball8,tractor8,0.0,260.63,0.13,0.0,
209,,size_choice_confirmation,,html-keyboard-response,209,192503,0.0-1.0-331.0-0.0,0,0,31921,,,,,,82.0,,,,,,,,,,,,,,,,,,,,,,,,,,,,262.0,1.37,,
210,,iti,,html-keyboard-response,210,192608,0.0-1.0-332.0,0,0,31921,,,,,,,,,,,,,,,,,,,,,,,,,,,,,,,,,,264.0,2.0,,
211,,size_choice,,html-keyboard-response,211,193719,0.0-1.0-334.0,0,0,31921,,1110.0,,,75.0,83.0,83.0,2.0,1000.0,S-XL,0.0,S,XL,1.0,4.0,screws,van,screws2,van3,121.0,192.0,/static/Size_judgement/Stimuli/Size_stims/S/screws/screws5.jpg,/static/Size_judgement/Stimuli/Size_stims/XL/van/van6.jpg,0.0,van,screws,XL,S,4.0,1.0,van3,screws2,1.0,265.11,1.11,0.0,
212,,size_choice_confirmation,,html-keyboard-response,212,194112,0.0-1.0-335.0-0.0,0,0,31921,,,,,,83.0,,,,,,,,,,,,,,,,,,,,,,,,,,,,265.5,0.39,,
213,,iti,,html-keyboard-response,213,194216,0.0-1.0-336.0,0,0,31921,,,,,,,,,,,,,,,,,,,,,,,,,,,,,,,,,,266.5,1.0,,
214,,size_choice,,html-keyboard-response,214,195077,0.0-1.0-338.0,0,0,31921,,859.0,,,75.0,84.0,84.0,2.0,1000.0,L-L,,L,L,3.0,3.0,cooler,dishwasher,cooler3,dishwasher9,2.0,28.0,/static/Size_judgement/Stimuli/Size_stims/L/cooler/cooler2.jpg,/static/Size_judgement/Stimuli/Size_stims/L/dishwasher/dishwasher2.jpg,0.0,dishwasher,cooler,L,L,3.0,3.0,dishwasher9,cooler3,,267.35900000000004,0.8590000000000001,0.0,
215,,size_choice_confirmation,,html-keyboard-response,215,195722,0.0-1.0-339.0-0.0,0,0,31921,,,,,,84.0,,,,,,,,,,,,,,,,,,,,,,,,,,,,268.0,0.6409999999999999,,
216,,iti,,html-keyboard-response,216,195827,0.0-1.0-340.0,0,0,31921,,,,,,,,,,,,,,,,,,,,,,,,,,,,,,,,,,269.0,1.0,,
217,,size_choice,,html-keyboard-response,217,197333,0.0-1.0-342.0,0,0,31921,,,,,,85.0,85.0,2.0,1000.0,M-M,,M,M,2.0,2.0,hairdryer,handsaw,hairdryer10,handsaw2,79.0,81.0,/static/Size_judgement/Stimuli/Size_stims/M/hairdryer/hairdryer6.jpg,/static/Size_judgement/Stimuli/Size_stims/M/handsaw/handsaw9.jpg,,,,,,,,,,,270.5,1.5,1.0,
218,,iti,,html-keyboard-response,218,197439,0.0-1.0-344.0,0,0,31921,,,,,,,,,,,,,,,,,,,,,,,,,,,,,,,,,,271.5,1.0,,
219,,size_choice,,html-keyboard-response,219,198945,0.0-1.0-346.0,0,0,31921,,,,,,86.0,86.0,2.0,1000.0,L-XL,0.0,L,XL,3.0,4.0,garbagecan,crane,garbagecan6,crane2,35.0,161.0,/static/Size_judgement/Stimuli/Size_stims/L/garbagecan/garbagecan14.jpg,/static/Size_judgement/Stimuli/Size_stims/XL/crane/crane6.jpg,,,,,,,,,,,273.0,1.5,1.0,
220,,iti,,html-keyboard-response,220,199051,0.0-1.0-348.0,0,0,31921,,,,,,,,,,,,,,,,,,,,,,,,,,,,,,,,,,274.0,1.0,,
221,,size_choice,,html-keyboard-response,221,200247,0.0-1.0-350.0,0,0,31921,,1194.0,,,75.0,87.0,87.0,2.0,1000.0,XL-XL,,XL,XL,4.0,4.0,car,tractor,car2,tractor10,151.0,189.0,/static/Size_judgement/Stimuli/Size_stims/XL/car/car3.jpg,/static/Size_judgement/Stimuli/Size_stims/XL/tractor/tractor8.jpg,0.0,tractor,car,XL,XL,4.0,4.0,tractor10,car2,,275.194,1.194,0.0,
222,,size_choice_confirmation,,html-keyboard-response,222,200559,0.0-1.0-351.0-0.0,0,0,31921,,,,,,87.0,,,,,,,,,,,,,,,,,,,,,,,,,,,,275.5,0.306,,
223,,iti,,html-keyboard-response,223,200664,0.0-1.0-352.0,0,0,31921,,,,,,,,,,,,,,,,,,,,,,,,,,,,,,,,,,276.5,1.0,,
224,,size_choice,,html-keyboard-response,224,201433,0.0-1.0-354.0,0,0,31921,,768.0,,,75.0,88.0,88.0,2.0,1000.0,S-L,1.0,L,S,3.0,1.0,deskchair,screws,deskchair7,screws10,16.0,129.0,/static/Size_judgement/Stimuli/Size_stims/L/deskchair/deskchair4.jpg,/static/Size_judgement/Stimuli/Size_stims/S/screws/screws9.jpg,0.0,screws,deskchair,S,L,1.0,3.0,screws10,deskchair7,0.0,277.268,0.768,0.0,
225,,size_choice_confirmation,,html-keyboard-response,225,202171,0.0-1.0-355.0-0.0,0,0,31921,,,,,,88.0,,,,,,,,,,,,,,,,,,,,,,,,,,,,278.0,0.732,,
226,,iti,,html-keyboard-response,226,202274,0.0-1.0-356.0,0,0,31921,,,,,,,,,,,,,,,,,,,,,,,,,,,,,,,,,,279.0,1.0,,
227,,size_choice,,html-keyboard-response,227,203780,0.0-1.0-358.0,0,0,31921,,,,,,89.0,89.0,2.0,3500.0,S-L,1.0,L,S,3.0,1.0,garbagecan,teabag,garbagecan1,teabag4,30.0,133.0,/static/Size_judgement/Stimuli/Size_stims/L/garbagecan/garbagecan4.jpg,/static/Size_judgement/Stimuli/Size_stims/S/teabag/teabag3.jpg,,,,,,,,,,,280.5,1.5,1.0,
228,,iti,,html-keyboard-response,228,203885,0.0-1.0-360.0,0,0,31921,,,,,,,,,,,,,,,,,,,,,,,,,,,,,,,,,,284.0,3.5,,0.31
229,,size_final_tally,,html-keyboard-response,229,206009,0.0-2.0,0,0,31921,,2122.0,,,68.0,,,,,,,,,,,,,,,,,,,,,,,,,,,,,,,,
230,,debreif_intro,,html-keyboard-response,230,206670,0.0-3.0,0,0,31921,,644.0,,,68.0,,,,,,,,,,,,,,,,,,,,,,,,,,,,,,,,
231,,debreif_age,,survey-text,231,218129,0.0-4.0,0,0,31921,,11459.0,"{""Q0"":""0""}",,,,,,,,,,,,,,,,,,,,,,,,,,,,,,,,,,
232,,debreif_gender,,survey-multi-choice,232,220051,0.0-5.0,0,0,31921,,1920.0,"{""Q0"":""Female""}",,,,,,,,,,,,,,,,,,,,,,,,,,,,,,,,,,
233,,debreif_dominant_hand,,survey-multi-choice,233,221621,0.0-6.0,0,0,31921,,1568.0,"{""Q0"":""Left""}",,,,,,,,,,,,,,,,,,,,,,,,,,,,,,,,,,
234,,debreif_native_language,,survey-multi-choice,234,222896,0.0-7.0,0,0,31921,,1273.0,"{""Q0"":""Yes""}",,,,,,,,,,,,,,,,,,,,,,,,,,,,,,,,,,
235,,debreif_fluency,,survey-likert,235,224879,0.0-8.0,0,0,31921,,1980.0,"{""Q0"":3}",,,,,,,,,,,,,,,,,,,,,,,,,,,,,,,,,,
236,,debreif_strategy_category_learning,,survey-text,236,226284,0.0-9.0,0,0,31921,,1404.0,"{""Q0"":""0""}",,,,,,,,,,,,,,,,,,,,,,,,,,,,,,,,,,
237,,debreif_strategy_old_trials,,survey-text,237,227554,0.0-10.0,0,0,31921,,1269.0,"{""Q0"":""0""}",,,,,,,,,,,,,,,,,,,,,,,,,,,,,,,,,,
238,,debreif_strategy_size,,survey-text,238,228707,0.0-11.0,0,0,31921,,1152.0,"{""Q0"":""0""}",,,,,,,,,,,,,,,,,,,,,,,,,,,,,,,,,,
239,,debreif_strategy_rl,,survey-text,239,229843,0.0-12.0,0,0,31921,,1135.0,"{""Q0"":""0""}",,,,,,,,,,,,,,,,,,,,,,,,,,,,,,,,,,
240,,debreif_clear_instructions,,survey-text,240,230850,0.0-13.0,0,0,31921,,1006.0,"{""Q0"":""0""}",,,,,,,,,,,,,,,,,,,,,,,,,,,,,,,,,,
241,,debreif_end,,html-keyboard-response,241,232123,0.0-14.0,0,0,31921,,1273.0,,,32.0,,,,,,,,,,,,,,,,,,,,,,,,,,,,,,,,
