,success,ttype,start_time,trial_type,trial_index,time_elapsed,internal_node_id,warning,missed_checkup,PID,view_history,rt,responses,repeat_instructions,key_press,index,trial_num,block,iti,pair_type,high_size_on_left,left_size_group,right_size_group,left_size_num,right_size_num,left_category,right_category,left_exemplar,right_exemplar,left_index,right_index,left_img_path,right_img_path,left_chosen,chosen_category,unchosen_category,chosen_size_group,unchosen_size_group,chosen_size_num,unchosen_size_num,chosen_exemplar,unchosen_exemplar,accuracy,onset,duration,no_response,size_final_tally
0,True,full_screen,d06072022hr1924,fullscreen,0,3374,0.0-0.0,0,0,18170,,,,,,,,,,,,,,,,,,,,,,,,,,,,,,,,,,,,,
1,,size_instructions,,instructions,1,20356,0.0-1.0-0.0-0.0,0,0,18170,"[{""page_index"":0,""viewing_time"":5722},{""page_index"":1,""viewing_time"":3225},{""page_index"":2,""viewing_time"":1635},{""page_index"":3,""viewing_time"":1957},{""page_index"":4,""viewing_time"":2640},{""page_index"":5,""viewing_time"":1801}]",16980.0,,,,,,,,,,,,,,,,,,,,,,,,,,,,,,,,,,,
2,,size_comprehension_check,,survey-multi-choice,2,30054,0.0-1.0-0.0-1.0,0,0,18170,,9695.0,"{""Q0"":""True"",""Q1"":""Size in the real world"",""Q2"":""True"",""Q3"":""D for left and K for right""}",0.0,,,,,,,,,,,,,,,,,,,,,,,,,,,,,,,,,
3,,,,html-keyboard-response,3,31217,0.0-1.0-1.0,0,0,18170,,1161.0,,,68.0,,,,,,,,,,,,,,,,,,,,,,,,,,,,,,,,
4,,size_choice,,html-keyboard-response,4,32174,0.0-1.0-2.0,0,0,18170,,954.0,,,75.0,0.0,0.0,1.0,1000.0,L-L,,L,L,3.0,3.0,dishwasher,garbagecan,dishwasher9,garbagecan9,28.0,38.0,/static/Size_judgement/Stimuli/Size_stims/L/dishwasher/dishwasher2.jpg,/static/Size_judgement/Stimuli/Size_stims/L/garbagecan/garbagecan12.jpg,0.0,garbagecan,dishwasher,L,L,3.0,3.0,garbagecan9,dishwasher9,,0.954,0.954,0.0,
5,,size_choice_confirmation,,html-keyboard-response,5,32722,0.0-1.0-3.0-0.0,0,0,18170,,,,,,0.0,,1.0,,,,,,,,,,,,,,,,,,,,,,,,,,1.5,0.546,,
6,,iti,,html-keyboard-response,6,33724,0.0-1.0-4.0,0,0,18170,,,,,,0.0,,1.0,,,,,,,,,,,,,,,,,,,,,,,,,,2.5,1.0,,
7,,size_choice,,html-keyboard-response,7,34421,0.0-1.0-6.0,0,0,18170,,695.0,,,68.0,1.0,1.0,1.0,1000.0,M-M,,M,M,2.0,2.0,handsaw,hairdryer,handsaw1,hairdryer2,80.0,71.0,/static/Size_judgement/Stimuli/Size_stims/M/handsaw/handsaw8.jpg,/static/Size_judgement/Stimuli/Size_stims/M/hairdryer/hairdryer12.jpg,1.0,handsaw,hairdryer,M,M,2.0,2.0,handsaw1,hairdryer2,,3.195,0.695,0.0,
8,,size_choice_confirmation,,html-keyboard-response,8,35228,0.0-1.0-7.0-0.0,0,0,18170,,,,,,1.0,,1.0,,,,,,,,,,,,,,,,,,,,,,,,,,4.0,0.805,,
9,,iti,,html-keyboard-response,9,36230,0.0-1.0-8.0,0,0,18170,,,,,,1.0,,1.0,,,,,,,,,,,,,,,,,,,,,,,,,,5.0,1.0,,
10,,size_choice,,html-keyboard-response,10,36867,0.0-1.0-10.0,0,0,18170,,636.0,,,75.0,2.0,2.0,1.0,1500.0,S-XL,0.0,S,XL,1.0,4.0,teabag,dumptruck,teabag7,dumptruck8,136.0,177.0,/static/Size_judgement/Stimuli/Size_stims/S/teabag/teabag10.jpg,/static/Size_judgement/Stimuli/Size_stims/XL/dumptruck/dumptruck7.jpg,0.0,dumptruck,teabag,XL,S,4.0,1.0,dumptruck8,teabag7,1.0,5.636,0.636,0.0,
11,,size_choice_confirmation,,html-keyboard-response,11,37733,0.0-1.0-11.0-0.0,0,0,18170,,,,,,2.0,,1.0,,,,,,,,,,,,,,,,,,,,,,,,,,6.5,0.864,,
12,,iti,,html-keyboard-response,12,39235,0.0-1.0-12.0,0,0,18170,,,,,,2.0,,1.0,,,,,,,,,,,,,,,,,,,,,,,,,,8.0,1.5,,
13,,size_choice,,html-keyboard-response,13,39987,0.0-1.0-14.0,0,0,18170,,751.0,,,75.0,3.0,3.0,1.0,2000.0,S-M,1.0,M,S,2.0,1.0,hairdryer,screws,hairdryer5,screws5,74.0,124.0,/static/Size_judgement/Stimuli/Size_stims/M/hairdryer/hairdryer15.jpg,/static/Size_judgement/Stimuli/Size_stims/S/screws/screws2.jpg,0.0,screws,hairdryer,S,M,1.0,2.0,screws5,hairdryer5,0.0,8.751,0.751,0.0,
14,,size_choice_confirmation,,html-keyboard-response,14,40738,0.0-1.0-15.0-0.0,0,0,18170,,,,,,3.0,,1.0,,,,,,,,,,,,,,,,,,,,,,,,,,9.5,0.749,,
15,,iti,,html-keyboard-response,15,42740,0.0-1.0-16.0,0,0,18170,,,,,,3.0,,1.0,,,,,,,,,,,,,,,,,,,,,,,,,,11.5,2.0,,
16,,size_choice,,html-keyboard-response,16,43344,0.0-1.0-18.0,0,0,18170,,604.0,,,75.0,4.0,4.0,1.0,3500.0,S-XL,0.0,S,XL,1.0,4.0,teabag,car,teabag4,car9,133.0,158.0,/static/Size_judgement/Stimuli/Size_stims/S/teabag/teabag3.jpg,/static/Size_judgement/Stimuli/Size_stims/XL/car/car15.jpg,0.0,car,teabag,XL,S,4.0,1.0,car9,teabag4,1.0,12.104,0.604,0.0,
17,,size_choice_confirmation,,html-keyboard-response,17,44242,0.0-1.0-19.0-0.0,0,0,18170,,,,,,4.0,,1.0,,,,,,,,,,,,,,,,,,,,,,,,,,13.0,0.896,,
18,,iti,,html-keyboard-response,18,47744,0.0-1.0-20.0,0,0,18170,,,,,,4.0,,1.0,,,,,,,,,,,,,,,,,,,,,,,,,,16.5,3.5,,
19,,size_choice,,html-keyboard-response,19,48522,0.0-1.0-22.0,0,0,18170,,776.0,,,75.0,5.0,5.0,1.0,1500.0,M-L,1.0,L,M,3.0,2.0,cooler,handsaw,cooler10,handsaw7,9.0,86.0,/static/Size_judgement/Stimuli/Size_stims/L/cooler/cooler6.jpg,/static/Size_judgement/Stimuli/Size_stims/M/handsaw/handsaw5.jpg,0.0,handsaw,cooler,M,L,2.0,3.0,handsaw7,cooler10,0.0,17.276,0.776,0.0,
20,,size_choice_confirmation,,html-keyboard-response,20,49248,0.0-1.0-23.0-0.0,0,0,18170,,,,,,5.0,,1.0,,,,,,,,,,,,,,,,,,,,,,,,,,18.0,0.724,,
21,,iti,,html-keyboard-response,21,50750,0.0-1.0-24.0,0,0,18170,,,,,,5.0,,1.0,,,,,,,,,,,,,,,,,,,,,,,,,,19.5,1.5,,
22,,size_choice,,html-keyboard-response,22,51460,0.0-1.0-26.0,0,0,18170,,709.0,,,75.0,6.0,6.0,1.0,2000.0,M-XL,0.0,M,XL,2.0,4.0,basketball,crane,basketball10,crane9,59.0,168.0,/static/Size_judgement/Stimuli/Size_stims/M/basketball/basketball4.jpg,/static/Size_judgement/Stimuli/Size_stims/XL/crane/crane8.jpg,0.0,crane,basketball,XL,M,4.0,2.0,crane9,basketball10,1.0,20.209,0.709,0.0,
23,,size_choice_confirmation,,html-keyboard-response,23,52254,0.0-1.0-27.0-0.0,0,0,18170,,,,,,6.0,,1.0,,,,,,,,,,,,,,,,,,,,,,,,,,21.0,0.791,,
24,,iti,,html-keyboard-response,24,54255,0.0-1.0-28.0,0,0,18170,,,,,,6.0,,1.0,,,,,,,,,,,,,,,,,,,,,,,,,,23.0,2.0,,
25,,size_choice,,html-keyboard-response,25,54877,0.0-1.0-30.0,0,0,18170,,620.0,,,75.0,7.0,7.0,1.0,3000.0,M-XL,0.0,M,XL,2.0,4.0,hairdryer,dumptruck,hairdryer7,dumptruck6,76.0,175.0,/static/Size_judgement/Stimuli/Size_stims/M/hairdryer/hairdryer3.jpg,/static/Size_judgement/Stimuli/Size_stims/XL/dumptruck/dumptruck2.jpg,0.0,dumptruck,hairdryer,XL,M,4.0,2.0,dumptruck6,hairdryer7,1.0,23.62,0.62,0.0,
26,,size_choice_confirmation,,html-keyboard-response,26,55759,0.0-1.0-31.0-0.0,0,0,18170,,,,,,7.0,,1.0,,,,,,,,,,,,,,,,,,,,,,,,,,24.5,0.88,,
27,,iti,,html-keyboard-response,27,58760,0.0-1.0-32.0,0,0,18170,,,,,,7.0,,1.0,,,,,,,,,,,,,,,,,,,,,,,,,,27.5,3.0,,
28,,size_choice,,html-keyboard-response,28,59376,0.0-1.0-34.0,0,0,18170,,614.0,,,75.0,8.0,8.0,1.0,2000.0,XL-XL,,XL,XL,4.0,4.0,van,crane,van2,crane8,191.0,167.0,/static/Size_judgement/Stimuli/Size_stims/XL/van/van4.jpg,/static/Size_judgement/Stimuli/Size_stims/XL/crane/crane10.jpg,0.0,crane,van,XL,XL,4.0,4.0,crane8,van2,,28.114,0.614,0.0,
29,,size_choice_confirmation,,html-keyboard-response,29,60265,0.0-1.0-35.0-0.0,0,0,18170,,,,,,8.0,,1.0,,,,,,,,,,,,,,,,,,,,,,,,,,29.0,0.886,,
30,,iti,,html-keyboard-response,30,62268,0.0-1.0-36.0,0,0,18170,,,,,,8.0,,1.0,,,,,,,,,,,,,,,,,,,,,,,,,,31.0,2.0,,
31,,size_choice,,html-keyboard-response,31,63363,0.0-1.0-38.0,0,0,18170,,1093.0,,,68.0,9.0,9.0,1.0,2000.0,L-L,,L,L,3.0,3.0,dishwasher,cooler,dishwasher7,cooler8,26.0,7.0,/static/Size_judgement/Stimuli/Size_stims/L/dishwasher/dishwasher7.jpg,/static/Size_judgement/Stimuli/Size_stims/L/cooler/cooler5.jpg,1.0,dishwasher,cooler,L,L,3.0,3.0,dishwasher7,cooler8,,32.093,1.093,0.0,
32,,size_choice_confirmation,,html-keyboard-response,32,63771,0.0-1.0-39.0-0.0,0,0,18170,,,,,,9.0,,1.0,,,,,,,,,,,,,,,,,,,,,,,,,,32.5,0.407,,
33,,iti,,html-keyboard-response,33,65772,0.0-1.0-40.0,0,0,18170,,,,,,9.0,,1.0,,,,,,,,,,,,,,,,,,,,,,,,,,34.5,2.0,,
34,,size_choice,,html-keyboard-response,34,66765,0.0-1.0-42.0,0,0,18170,,992.0,,,68.0,10.0,10.0,1.0,1000.0,M-L,1.0,L,M,3.0,2.0,garbagecan,basketball,garbagecan4,basketball4,33.0,53.0,/static/Size_judgement/Stimuli/Size_stims/L/garbagecan/garbagecan6.jpg,/static/Size_judgement/Stimuli/Size_stims/M/basketball/basketball1.jpg,1.0,garbagecan,basketball,L,M,3.0,2.0,garbagecan4,basketball4,1.0,35.492,0.992,0.0,
35,,size_choice_confirmation,,html-keyboard-response,35,67275,0.0-1.0-43.0-0.0,0,0,18170,,,,,,10.0,,1.0,,,,,,,,,,,,,,,,,,,,,,,,,,36.0,0.508,,
36,,iti,,html-keyboard-response,36,68277,0.0-1.0-44.0,0,0,18170,,,,,,10.0,,1.0,,,,,,,,,,,,,,,,,,,,,,,,,,37.0,1.0,,
37,,size_choice,,html-keyboard-response,37,68907,0.0-1.0-46.0,0,0,18170,,628.0,,,68.0,11.0,11.0,1.0,1000.0,S-L,1.0,L,S,3.0,1.0,dishwasher,screws,dishwasher8,screws8,27.0,127.0,/static/Size_judgement/Stimuli/Size_stims/L/dishwasher/dishwasher3.jpg,/static/Size_judgement/Stimuli/Size_stims/S/screws/screws10.jpg,1.0,dishwasher,screws,L,S,3.0,1.0,dishwasher8,screws8,1.0,37.628,0.628,0.0,
38,,size_choice_confirmation,,html-keyboard-response,38,69781,0.0-1.0-47.0-0.0,0,0,18170,,,,,,11.0,,1.0,,,,,,,,,,,,,,,,,,,,,,,,,,38.5,0.872,,
39,,iti,,html-keyboard-response,39,70793,0.0-1.0-48.0,0,0,18170,,,,,,11.0,,1.0,,,,,,,,,,,,,,,,,,,,,,,,,,39.5,1.0,,
40,,size_choice,,html-keyboard-response,40,71787,0.0-1.0-50.0,0,0,18170,,993.0,,,68.0,12.0,12.0,1.0,1000.0,L-XL,1.0,XL,L,4.0,3.0,tractor,deskchair,tractor6,deskchair5,185.0,14.0,/static/Size_judgement/Stimuli/Size_stims/XL/tractor/tractor3.jpg,/static/Size_judgement/Stimuli/Size_stims/L/deskchair/deskchair7.jpg,1.0,tractor,deskchair,XL,L,4.0,3.0,tractor6,deskchair5,1.0,40.493,0.993,0.0,
41,,size_choice_confirmation,,html-keyboard-response,41,72296,0.0-1.0-51.0-0.0,0,0,18170,,,,,,12.0,,1.0,,,,,,,,,,,,,,,,,,,,,,,,,,41.0,0.507,,
42,,iti,,html-keyboard-response,42,73297,0.0-1.0-52.0,0,0,18170,,,,,,12.0,,1.0,,,,,,,,,,,,,,,,,,,,,,,,,,42.0,1.0,,
43,,size_choice,,html-keyboard-response,43,74109,0.0-1.0-54.0,0,0,18170,,811.0,,,68.0,13.0,13.0,1.0,1000.0,S-S,,S,S,1.0,1.0,thread,die,thread10,die1,149.0,100.0,/static/Size_judgement/Stimuli/Size_stims/S/thread/thread9.jpg,/static/Size_judgement/Stimuli/Size_stims/S/die/die8.jpg,1.0,thread,die,S,S,1.0,1.0,thread10,die1,,42.811,0.811,0.0,
44,,size_choice_confirmation,,html-keyboard-response,44,74800,0.0-1.0-55.0-0.0,0,0,18170,,,,,,13.0,,1.0,,,,,,,,,,,,,,,,,,,,,,,,,,43.5,0.689,,
45,,iti,,html-keyboard-response,45,75810,0.0-1.0-56.0,0,0,18170,,,,,,13.0,,1.0,,,,,,,,,,,,,,,,,,,,,,,,,,44.5,1.0,,
46,,size_choice,,html-keyboard-response,46,76564,0.0-1.0-58.0,0,0,18170,,753.0,,,75.0,14.0,14.0,1.0,1000.0,M-XL,0.0,M,XL,2.0,4.0,coffeemaker,tractor,coffeemaker4,tractor4,63.0,183.0,/static/Size_judgement/Stimuli/Size_stims/M/coffeemaker/coffeemaker11.jpg,/static/Size_judgement/Stimuli/Size_stims/XL/tractor/tractor4.jpg,0.0,tractor,coffeemaker,XL,M,4.0,2.0,tractor4,coffeemaker4,1.0,45.253,0.753,0.0,
47,,size_choice_confirmation,,html-keyboard-response,47,77313,0.0-1.0-59.0-0.0,0,0,18170,,,,,,14.0,,1.0,,,,,,,,,,,,,,,,,,,,,,,,,,46.0,0.747,,
48,,iti,,html-keyboard-response,48,78314,0.0-1.0-60.0,0,0,18170,,,,,,14.0,,1.0,,,,,,,,,,,,,,,,,,,,,,,,,,47.0,1.0,,
49,,size_choice,,html-keyboard-response,49,78921,0.0-1.0-62.0,0,0,18170,,606.0,,,75.0,15.0,15.0,1.0,3500.0,M-XL,0.0,M,XL,2.0,4.0,handsaw,van,handsaw5,van10,84.0,199.0,/static/Size_judgement/Stimuli/Size_stims/M/handsaw/handsaw1.jpg,/static/Size_judgement/Stimuli/Size_stims/XL/van/van8.jpg,0.0,van,handsaw,XL,M,4.0,2.0,van10,handsaw5,1.0,47.606,0.606,0.0,
50,,size_choice_confirmation,,html-keyboard-response,50,79821,0.0-1.0-63.0-0.0,0,0,18170,,,,,,15.0,,1.0,,,,,,,,,,,,,,,,,,,,,,,,,,48.5,0.894,,
51,,iti,,html-keyboard-response,51,83323,0.0-1.0-64.0,0,0,18170,,,,,,15.0,,1.0,,,,,,,,,,,,,,,,,,,,,,,,,,52.0,3.5,,
52,,size_choice,,html-keyboard-response,52,84188,0.0-1.0-66.0,0,0,18170,,863.0,,,68.0,16.0,16.0,1.0,1500.0,XL-XL,,XL,XL,4.0,4.0,dumptruck,car,dumptruck2,car6,171.0,155.0,/static/Size_judgement/Stimuli/Size_stims/XL/dumptruck/dumptruck8.jpg,/static/Size_judgement/Stimuli/Size_stims/XL/car/car12.jpg,1.0,dumptruck,car,XL,XL,4.0,4.0,dumptruck2,car6,,52.863,0.863,0.0,
53,,size_choice_confirmation,,html-keyboard-response,53,84826,0.0-1.0-67.0-0.0,0,0,18170,,,,,,16.0,,1.0,,,,,,,,,,,,,,,,,,,,,,,,,,53.5,0.637,,
54,,iti,,html-keyboard-response,54,86328,0.0-1.0-68.0,0,0,18170,,,,,,16.0,,1.0,,,,,,,,,,,,,,,,,,,,,,,,,,55.0,1.5,,
55,,size_choice,,html-keyboard-response,55,86843,0.0-1.0-70.0,0,0,18170,,514.0,,,68.0,17.0,17.0,1.0,1500.0,S-XL,1.0,XL,S,4.0,1.0,van,screws,van1,screws6,190.0,125.0,/static/Size_judgement/Stimuli/Size_stims/XL/van/van5.jpg,/static/Size_judgement/Stimuli/Size_stims/S/screws/screws3.jpg,1.0,van,screws,XL,S,4.0,1.0,van1,screws6,1.0,55.514,0.514,0.0,
56,,size_choice_confirmation,,html-keyboard-response,56,87835,0.0-1.0-71.0-0.0,0,0,18170,,,,,,17.0,,1.0,,,,,,,,,,,,,,,,,,,,,,,,,,56.5,0.986,,
57,,iti,,html-keyboard-response,57,89337,0.0-1.0-72.0,0,0,18170,,,,,,17.0,,1.0,,,,,,,,,,,,,,,,,,,,,,,,,,58.0,1.5,,
58,,size_choice,,html-keyboard-response,58,89982,0.0-1.0-74.0,0,0,18170,,643.0,,,68.0,18.0,18.0,1.0,3500.0,M-XL,1.0,XL,M,4.0,2.0,car,basketball,car5,basketball8,154.0,57.0,/static/Size_judgement/Stimuli/Size_stims/XL/car/car11.jpg,/static/Size_judgement/Stimuli/Size_stims/M/basketball/basketball7.jpg,1.0,car,basketball,XL,M,4.0,2.0,car5,basketball8,1.0,58.643,0.643,0.0,
59,,size_choice_confirmation,,html-keyboard-response,59,90841,0.0-1.0-75.0-0.0,0,0,18170,,,,,,18.0,,1.0,,,,,,,,,,,,,,,,,,,,,,,,,,59.5,0.857,,
60,,iti,,html-keyboard-response,60,94343,0.0-1.0-76.0,0,0,18170,,,,,,18.0,,1.0,,,,,,,,,,,,,,,,,,,,,,,,,,63.0,3.5,,
61,,size_choice,,html-keyboard-response,61,95193,0.0-1.0-78.0,0,0,18170,,850.0,,,68.0,19.0,19.0,1.0,1500.0,S-L,1.0,L,S,3.0,1.0,cooler,thread,cooler7,thread7,6.0,146.0,/static/Size_judgement/Stimuli/Size_stims/L/cooler/cooler4.jpg,/static/Size_judgement/Stimuli/Size_stims/S/thread/thread3.jpg,1.0,cooler,thread,L,S,3.0,1.0,cooler7,thread7,1.0,63.85,0.85,0.0,
62,,size_choice_confirmation,,html-keyboard-response,62,95845,0.0-1.0-79.0-0.0,0,0,18170,,,,,,19.0,,1.0,,,,,,,,,,,,,,,,,,,,,,,,,,64.5,0.65,,
63,,iti,,html-keyboard-response,63,97346,0.0-1.0-80.0,0,0,18170,,,,,,19.0,,1.0,,,,,,,,,,,,,,,,,,,,,,,,,,66.0,1.5,,
64,,size_choice,,html-keyboard-response,64,97988,0.0-1.0-82.0,0,0,18170,,640.0,,,75.0,20.0,20.0,1.0,1000.0,S-S,,S,S,1.0,1.0,paperclip,teabag,paperclip8,teabag9,117.0,138.0,/static/Size_judgement/Stimuli/Size_stims/S/paperclip/paperclip5.jpg,/static/Size_judgement/Stimuli/Size_stims/S/teabag/teabag5.jpg,0.0,teabag,paperclip,S,S,1.0,1.0,teabag9,paperclip8,,66.64,0.64,0.0,
65,,size_choice_confirmation,,html-keyboard-response,65,98850,0.0-1.0-83.0-0.0,0,0,18170,,,,,,20.0,,1.0,,,,,,,,,,,,,,,,,,,,,,,,,,67.5,0.86,,
66,,iti,,html-keyboard-response,66,99852,0.0-1.0-84.0,0,0,18170,,,,,,20.0,,1.0,,,,,,,,,,,,,,,,,,,,,,,,,,68.5,1.0,,
67,,size_choice,,html-keyboard-response,67,100758,0.0-1.0-86.0,0,0,18170,,904.0,,,68.0,21.0,21.0,1.0,1000.0,S-S,,S,S,1.0,1.0,die,paperclip,die6,paperclip6,105.0,115.0,/static/Size_judgement/Stimuli/Size_stims/S/die/die1.jpg,/static/Size_judgement/Stimuli/Size_stims/S/paperclip/paperclip6.jpg,1.0,die,paperclip,S,S,1.0,1.0,die6,paperclip6,,69.404,0.904,0.0,
68,,size_choice_confirmation,,html-keyboard-response,68,101356,0.0-1.0-87.0-0.0,0,0,18170,,,,,,21.0,,1.0,,,,,,,,,,,,,,,,,,,,,,,,,,70.0,0.596,,
69,,iti,,html-keyboard-response,69,102356,0.0-1.0-88.0,0,0,18170,,,,,,21.0,,1.0,,,,,,,,,,,,,,,,,,,,,,,,,,71.0,1.0,,
70,,size_choice,,html-keyboard-response,70,102929,0.0-1.0-90.0,0,0,18170,,572.0,,,75.0,22.0,22.0,1.0,1000.0,L-XL,0.0,L,XL,3.0,4.0,dishwasher,dumptruck,dishwasher3,dumptruck3,22.0,172.0,/static/Size_judgement/Stimuli/Size_stims/L/dishwasher/dishwasher8.jpg,/static/Size_judgement/Stimuli/Size_stims/XL/dumptruck/dumptruck10.jpg,0.0,dumptruck,dishwasher,XL,L,4.0,3.0,dumptruck3,dishwasher3,1.0,71.572,0.572,0.0,
71,,size_choice_confirmation,,html-keyboard-response,71,103859,0.0-1.0-91.0-0.0,0,0,18170,,,,,,22.0,,1.0,,,,,,,,,,,,,,,,,,,,,,,,,,72.5,0.928,,
72,,iti,,html-keyboard-response,72,104861,0.0-1.0-92.0,0,0,18170,,,,,,22.0,,1.0,,,,,,,,,,,,,,,,,,,,,,,,,,73.5,1.0,,
73,,size_choice,,html-keyboard-response,73,105635,0.0-1.0-94.0,0,0,18170,,773.0,,,68.0,23.0,23.0,1.0,3000.0,M-M,,M,M,2.0,2.0,handsaw,hairdryer,handsaw8,hairdryer3,87.0,72.0,/static/Size_judgement/Stimuli/Size_stims/M/handsaw/handsaw7.jpg,/static/Size_judgement/Stimuli/Size_stims/M/hairdryer/hairdryer17.jpg,1.0,handsaw,hairdryer,M,M,2.0,2.0,handsaw8,hairdryer3,,74.273,0.773,0.0,
74,,size_choice_confirmation,,html-keyboard-response,74,106364,0.0-1.0-95.0-0.0,0,0,18170,,,,,,23.0,,1.0,,,,,,,,,,,,,,,,,,,,,,,,,,75.0,0.727,,
75,,iti,,html-keyboard-response,75,109365,0.0-1.0-96.0,0,0,18170,,,,,,23.0,,1.0,,,,,,,,,,,,,,,,,,,,,,,,,,78.0,3.0,,
76,,size_choice,,html-keyboard-response,76,110213,0.0-1.0-98.0,0,0,18170,,847.0,,,68.0,24.0,24.0,1.0,1000.0,S-M,1.0,M,S,2.0,1.0,basketball,paperclip,basketball2,paperclip10,51.0,119.0,/static/Size_judgement/Stimuli/Size_stims/M/basketball/basketball8.jpg,/static/Size_judgement/Stimuli/Size_stims/S/paperclip/paperclip10.jpg,1.0,basketball,paperclip,M,S,2.0,1.0,basketball2,paperclip10,1.0,78.847,0.847,0.0,
77,,size_choice_confirmation,,html-keyboard-response,77,110868,0.0-1.0-99.0-0.0,0,0,18170,,,,,,24.0,,1.0,,,,,,,,,,,,,,,,,,,,,,,,,,79.5,0.653,,
78,,iti,,html-keyboard-response,78,111870,0.0-1.0-100.0,0,0,18170,,,,,,24.0,,1.0,,,,,,,,,,,,,,,,,,,,,,,,,,80.5,1.0,,
79,,size_choice,,html-keyboard-response,79,112485,0.0-1.0-102.0,0,0,18170,,614.0,,,68.0,25.0,25.0,1.0,2000.0,S-L,1.0,L,S,3.0,1.0,dishwasher,paperclip,dishwasher10,paperclip9,29.0,118.0,/static/Size_judgement/Stimuli/Size_stims/L/dishwasher/dishwasher1.jpg,/static/Size_judgement/Stimuli/Size_stims/S/paperclip/paperclip4.jpg,1.0,dishwasher,paperclip,L,S,3.0,1.0,dishwasher10,paperclip9,1.0,81.114,0.614,0.0,
80,,size_choice_confirmation,,html-keyboard-response,80,113373,0.0-1.0-103.0-0.0,0,0,18170,,,,,,25.0,,1.0,,,,,,,,,,,,,,,,,,,,,,,,,,82.0,0.886,,
81,,iti,,html-keyboard-response,81,115374,0.0-1.0-104.0,0,0,18170,,,,,,25.0,,1.0,,,,,,,,,,,,,,,,,,,,,,,,,,84.0,2.0,,
82,,size_choice,,html-keyboard-response,82,116127,0.0-1.0-106.0,0,0,18170,,751.0,,,68.0,26.0,26.0,1.0,3000.0,S-L,1.0,L,S,3.0,1.0,deskchair,thread,deskchair10,thread2,19.0,141.0,/static/Size_judgement/Stimuli/Size_stims/L/deskchair/deskchair2.jpg,/static/Size_judgement/Stimuli/Size_stims/S/thread/thread6.jpg,1.0,deskchair,thread,L,S,3.0,1.0,deskchair10,thread2,1.0,84.751,0.751,0.0,
83,,size_choice_confirmation,,html-keyboard-response,83,116878,0.0-1.0-107.0-0.0,0,0,18170,,,,,,26.0,,1.0,,,,,,,,,,,,,,,,,,,,,,,,,,85.5,0.749,,
84,,iti,,html-keyboard-response,84,119880,0.0-1.0-108.0,0,0,18170,,,,,,26.0,,1.0,,,,,,,,,,,,,,,,,,,,,,,,,,88.5,3.0,,
85,,size_choice,,html-keyboard-response,85,120820,0.0-1.0-110.0,0,0,18170,,938.0,,,68.0,27.0,27.0,1.0,1000.0,L-L,,L,L,3.0,3.0,mailbox,garbagecan,mailbox5,garbagecan8,44.0,37.0,/static/Size_judgement/Stimuli/Size_stims/L/mailbox/mailbox4.jpg,/static/Size_judgement/Stimuli/Size_stims/L/garbagecan/garbagecan13.jpg,1.0,mailbox,garbagecan,L,L,3.0,3.0,mailbox5,garbagecan8,,89.438,0.938,0.0,
86,,size_choice_confirmation,,html-keyboard-response,86,121396,0.0-1.0-111.0-0.0,0,0,18170,,,,,,27.0,,1.0,,,,,,,,,,,,,,,,,,,,,,,,,,90.0,0.562,,
87,,iti,,html-keyboard-response,87,122398,0.0-1.0-112.0,0,0,18170,,,,,,27.0,,1.0,,,,,,,,,,,,,,,,,,,,,,,,,,91.0,1.0,,
88,,size_choice,,html-keyboard-response,88,122942,0.0-1.0-114.0,0,0,18170,,542.0,,,75.0,28.0,28.0,1.0,2000.0,M-L,0.0,M,L,2.0,3.0,ketchup,mailbox,ketchup2,mailbox9,91.0,48.0,/static/Size_judgement/Stimuli/Size_stims/M/ketchup/ketchup9.jpg,/static/Size_judgement/Stimuli/Size_stims/L/mailbox/mailbox9.jpg,0.0,mailbox,ketchup,L,M,3.0,2.0,mailbox9,ketchup2,1.0,91.542,0.542,0.0,
89,,size_choice_confirmation,,html-keyboard-response,89,123902,0.0-1.0-115.0-0.0,0,0,18170,,,,,,28.0,,1.0,,,,,,,,,,,,,,,,,,,,,,,,,,92.5,0.958,,
90,,iti,,html-keyboard-response,90,125905,0.0-1.0-116.0,0,0,18170,,,,,,28.0,,1.0,,,,,,,,,,,,,,,,,,,,,,,,,,94.5,2.0,,
91,,size_choice,,html-keyboard-response,91,126444,0.0-1.0-118.0,0,0,18170,,538.0,,,75.0,29.0,29.0,1.0,1000.0,S-XL,0.0,S,XL,1.0,4.0,die,dumptruck,die5,dumptruck9,104.0,178.0,/static/Size_judgement/Stimuli/Size_stims/S/die/die3.jpg,/static/Size_judgement/Stimuli/Size_stims/XL/dumptruck/dumptruck5.jpg,0.0,dumptruck,die,XL,S,4.0,1.0,dumptruck9,die5,1.0,95.038,0.538,0.0,
92,,size_choice_confirmation,,html-keyboard-response,92,127407,0.0-1.0-119.0-0.0,0,0,18170,,,,,,29.0,,1.0,,,,,,,,,,,,,,,,,,,,,,,,,,96.0,0.962,,
93,,iti,,html-keyboard-response,93,128409,0.0-1.0-120.0,0,0,18170,,,,,,29.0,,1.0,,,,,,,,,,,,,,,,,,,,,,,,,,97.0,1.0,,
94,,size_choice,,html-keyboard-response,94,129284,0.0-1.0-122.0,0,0,18170,,875.0,,,68.0,30.0,30.0,1.0,1000.0,S-XL,1.0,XL,S,4.0,1.0,tractor,die,tractor7,die2,186.0,101.0,/static/Size_judgement/Stimuli/Size_stims/XL/tractor/tractor2.jpg,/static/Size_judgement/Stimuli/Size_stims/S/die/die9.jpg,1.0,tractor,die,XL,S,4.0,1.0,tractor7,die2,1.0,97.875,0.875,0.0,
95,,size_choice_confirmation,,html-keyboard-response,95,129911,0.0-1.0-123.0-0.0,0,0,18170,,,,,,30.0,,1.0,,,,,,,,,,,,,,,,,,,,,,,,,,98.5,0.625,,
96,,iti,,html-keyboard-response,96,130913,0.0-1.0-124.0,0,0,18170,,,,,,30.0,,1.0,,,,,,,,,,,,,,,,,,,,,,,,,,99.5,1.0,,
97,,size_choice,,html-keyboard-response,97,131666,0.0-1.0-126.0,0,0,18170,,751.0,,,68.0,31.0,31.0,1.0,1500.0,S-L,1.0,L,S,3.0,1.0,garbagecan,thread,garbagecan2,thread9,31.0,148.0,/static/Size_judgement/Stimuli/Size_stims/L/garbagecan/garbagecan5.jpg,/static/Size_judgement/Stimuli/Size_stims/S/thread/thread8.jpg,1.0,garbagecan,thread,L,S,3.0,1.0,garbagecan2,thread9,1.0,100.251,0.751,0.0,
98,,size_choice_confirmation,,html-keyboard-response,98,132416,0.0-1.0-127.0-0.0,0,0,18170,,,,,,31.0,,1.0,,,,,,,,,,,,,,,,,,,,,,,,,,101.0,0.749,,
99,,iti,,html-keyboard-response,99,133917,0.0-1.0-128.0,0,0,18170,,,,,,31.0,,1.0,,,,,,,,,,,,,,,,,,,,,,,,,,102.5,1.5,,
100,,size_choice,,html-keyboard-response,100,134494,0.0-1.0-130.0,0,0,18170,,576.0,,,75.0,32.0,32.0,1.0,2000.0,M-L,0.0,M,L,2.0,3.0,handsaw,deskchair,handsaw9,deskchair2,88.0,11.0,/static/Size_judgement/Stimuli/Size_stims/M/handsaw/handsaw6.jpg,/static/Size_judgement/Stimuli/Size_stims/L/deskchair/deskchair8.jpg,0.0,deskchair,handsaw,L,M,3.0,2.0,deskchair2,handsaw9,1.0,103.076,0.576,0.0,
101,,size_choice_confirmation,,html-keyboard-response,101,135420,0.0-1.0-131.0-0.0,0,0,18170,,,,,,32.0,,1.0,,,,,,,,,,,,,,,,,,,,,,,,,,104.0,0.924,,
102,,iti,,html-keyboard-response,102,137422,0.0-1.0-132.0,0,0,18170,,,,,,32.0,,1.0,,,,,,,,,,,,,,,,,,,,,,,,,,106.0,2.0,,
103,,size_choice,,html-keyboard-response,103,138103,0.0-1.0-134.0,0,0,18170,,679.0,,,68.0,33.0,33.0,1.0,1000.0,S-L,1.0,L,S,3.0,1.0,garbagecan,teabag,garbagecan3,teabag8,32.0,137.0,/static/Size_judgement/Stimuli/Size_stims/L/garbagecan/garbagecan7.jpg,/static/Size_judgement/Stimuli/Size_stims/S/teabag/teabag7.jpg,1.0,garbagecan,teabag,L,S,3.0,1.0,garbagecan3,teabag8,1.0,106.679,0.679,0.0,
104,,size_choice_confirmation,,html-keyboard-response,104,138926,0.0-1.0-135.0-0.0,0,0,18170,,,,,,33.0,,1.0,,,,,,,,,,,,,,,,,,,,,,,,,,107.5,0.821,,
105,,iti,,html-keyboard-response,105,139928,0.0-1.0-136.0,0,0,18170,,,,,,33.0,,1.0,,,,,,,,,,,,,,,,,,,,,,,,,,108.5,1.0,,
106,,size_choice,,html-keyboard-response,106,140483,0.0-1.0-138.0,0,0,18170,,554.0,,,75.0,34.0,34.0,1.0,1000.0,M-L,0.0,M,L,2.0,3.0,handsaw,dishwasher,handsaw2,dishwasher4,81.0,23.0,/static/Size_judgement/Stimuli/Size_stims/M/handsaw/handsaw9.jpg,/static/Size_judgement/Stimuli/Size_stims/L/dishwasher/dishwasher5.jpg,0.0,dishwasher,handsaw,L,M,3.0,2.0,dishwasher4,handsaw2,1.0,109.054,0.554,0.0,
107,,size_choice_confirmation,,html-keyboard-response,107,141431,0.0-1.0-139.0-0.0,0,0,18170,,,,,,34.0,,1.0,,,,,,,,,,,,,,,,,,,,,,,,,,110.0,0.946,,
108,,iti,,html-keyboard-response,108,142432,0.0-1.0-140.0,0,0,18170,,,,,,34.0,,1.0,,,,,,,,,,,,,,,,,,,,,,,,,,111.0,1.0,,
109,,size_choice,,html-keyboard-response,109,142979,0.0-1.0-142.0,0,0,18170,,546.0,,,68.0,35.0,35.0,1.0,1500.0,M-L,1.0,L,M,3.0,2.0,dishwasher,ketchup,dishwasher1,ketchup4,20.0,93.0,/static/Size_judgement/Stimuli/Size_stims/L/dishwasher/dishwasher10.jpg,/static/Size_judgement/Stimuli/Size_stims/M/ketchup/ketchup2.jpg,1.0,dishwasher,ketchup,L,M,3.0,2.0,dishwasher1,ketchup4,1.0,111.546,0.546,0.0,
110,,size_choice_confirmation,,html-keyboard-response,110,143935,0.0-1.0-143.0-0.0,0,0,18170,,,,,,35.0,,1.0,,,,,,,,,,,,,,,,,,,,,,,,,,112.5,0.954,,
111,,iti,,html-keyboard-response,111,145438,0.0-1.0-144.0,0,0,18170,,,,,,35.0,,1.0,,,,,,,,,,,,,,,,,,,,,,,,,,114.0,1.5,,
112,,size_choice,,html-keyboard-response,112,145999,0.0-1.0-146.0,0,0,18170,,560.0,,,75.0,36.0,36.0,1.0,1500.0,M-L,0.0,M,L,2.0,3.0,hairdryer,cooler,hairdryer6,cooler3,75.0,2.0,/static/Size_judgement/Stimuli/Size_stims/M/hairdryer/hairdryer8.jpg,/static/Size_judgement/Stimuli/Size_stims/L/cooler/cooler2.jpg,0.0,cooler,hairdryer,L,M,3.0,2.0,cooler3,hairdryer6,1.0,114.56,0.56,0.0,
113,,size_choice_confirmation,,html-keyboard-response,113,146942,0.0-1.0-147.0-0.0,0,0,18170,,,,,,36.0,,1.0,,,,,,,,,,,,,,,,,,,,,,,,,,115.5,0.94,,
114,,iti,,html-keyboard-response,114,148443,0.0-1.0-148.0,0,0,18170,,,,,,36.0,,1.0,,,,,,,,,,,,,,,,,,,,,,,,,,117.0,1.5,,
115,,size_choice,,html-keyboard-response,115,148979,0.0-1.0-150.0,0,0,18170,,534.0,,,68.0,37.0,37.0,1.0,1000.0,S-XL,1.0,XL,S,4.0,1.0,car,teabag,car4,teabag10,153.0,139.0,/static/Size_judgement/Stimuli/Size_stims/XL/car/car6.jpg,/static/Size_judgement/Stimuli/Size_stims/S/teabag/teabag4.jpg,1.0,car,teabag,XL,S,4.0,1.0,car4,teabag10,1.0,117.534,0.534,0.0,
116,,size_choice_confirmation,,html-keyboard-response,116,149947,0.0-1.0-151.0-0.0,0,0,18170,,,,,,37.0,,1.0,,,,,,,,,,,,,,,,,,,,,,,,,,118.5,0.966,,
117,,iti,,html-keyboard-response,117,150951,0.0-1.0-152.0,0,0,18170,,,,,,37.0,,1.0,,,,,,,,,,,,,,,,,,,,,,,,,,119.5,1.0,,
118,,size_choice,,html-keyboard-response,118,151405,0.0-1.0-154.0,0,0,18170,,454.0,,,68.0,38.0,38.0,1.0,1500.0,M-XL,1.0,XL,M,4.0,2.0,tractor,handsaw,tractor8,handsaw10,187.0,89.0,/static/Size_judgement/Stimuli/Size_stims/XL/tractor/tractor10.jpg,/static/Size_judgement/Stimuli/Size_stims/M/handsaw/handsaw10.jpg,1.0,tractor,handsaw,XL,M,4.0,2.0,tractor8,handsaw10,1.0,119.954,0.454,0.0,
119,,size_choice_confirmation,,html-keyboard-response,119,152453,0.0-1.0-155.0-0.0,0,0,18170,,,,,,38.0,,1.0,,,,,,,,,,,,,,,,,,,,,,,,,,121.0,1.046,,
120,,iti,,html-keyboard-response,120,153954,0.0-1.0-156.0,0,0,18170,,,,,,38.0,,1.0,,,,,,,,,,,,,,,,,,,,,,,,,,122.5,1.5,,
121,,size_choice,,html-keyboard-response,121,154528,0.0-1.0-158.0,0,0,18170,,573.0,,,68.0,39.0,39.0,1.0,1500.0,S-M,1.0,M,S,2.0,1.0,basketball,screws,basketball6,screws9,55.0,128.0,/static/Size_judgement/Stimuli/Size_stims/M/basketball/basketball2.jpg,/static/Size_judgement/Stimuli/Size_stims/S/screws/screws8.jpg,1.0,basketball,screws,M,S,2.0,1.0,basketball6,screws9,1.0,123.073,0.573,0.0,
122,,size_choice_confirmation,,html-keyboard-response,122,155457,0.0-1.0-159.0-0.0,0,0,18170,,,,,,39.0,,1.0,,,,,,,,,,,,,,,,,,,,,,,,,,124.0,0.927,,
123,,iti,,html-keyboard-response,123,156960,0.0-1.0-160.0,0,0,18170,,,,,,39.0,,1.0,,,,,,,,,,,,,,,,,,,,,,,,,,125.5,1.5,,
124,,size_choice,,html-keyboard-response,124,157469,0.0-1.0-162.0,0,0,18170,,509.0,,,75.0,40.0,40.0,1.0,1000.0,M-XL,0.0,M,XL,2.0,4.0,hairdryer,dumptruck,hairdryer1,dumptruck5,70.0,174.0,/static/Size_judgement/Stimuli/Size_stims/M/hairdryer/hairdryer11.jpg,/static/Size_judgement/Stimuli/Size_stims/XL/dumptruck/dumptruck3.jpg,0.0,dumptruck,hairdryer,XL,M,4.0,2.0,dumptruck5,hairdryer1,1.0,126.009,0.509,0.0,
125,,size_choice_confirmation,,html-keyboard-response,125,158463,0.0-1.0-163.0-0.0,0,0,18170,,,,,,40.0,,1.0,,,,,,,,,,,,,,,,,,,,,,,,,,127.0,0.991,,
126,,iti,,html-keyboard-response,126,159465,0.0-1.0-164.0,0,0,18170,,,,,,40.0,,1.0,,,,,,,,,,,,,,,,,,,,,,,,,,128.0,1.0,,
127,,size_choice,,html-keyboard-response,127,160020,0.0-1.0-166.0,0,0,18170,,554.0,,,75.0,41.0,41.0,1.0,1500.0,S-L,0.0,S,L,1.0,3.0,paperclip,mailbox,paperclip2,mailbox7,111.0,46.0,/static/Size_judgement/Stimuli/Size_stims/S/paperclip/paperclip8.jpg,/static/Size_judgement/Stimuli/Size_stims/L/mailbox/mailbox7.jpg,0.0,mailbox,paperclip,L,S,3.0,1.0,mailbox7,paperclip2,1.0,128.554,0.554,0.0,
128,,size_choice_confirmation,,html-keyboard-response,128,160970,0.0-1.0-167.0-0.0,0,0,18170,,,,,,41.0,,1.0,,,,,,,,,,,,,,,,,,,,,,,,,,129.5,0.946,,
129,,iti,,html-keyboard-response,129,162472,0.0-1.0-168.0,0,0,18170,,,,,,41.0,,1.0,,,,,,,,,,,,,,,,,,,,,,,,,,131.0,1.5,,
130,,size_choice,,html-keyboard-response,130,163243,0.0-1.0-170.0,0,0,18170,,770.0,,,75.0,42.0,42.0,1.0,2000.0,S-XL,0.0,S,XL,1.0,4.0,thread,dumptruck,thread8,dumptruck10,147.0,179.0,/static/Size_judgement/Stimuli/Size_stims/S/thread/thread10.jpg,/static/Size_judgement/Stimuli/Size_stims/XL/dumptruck/dumptruck4.jpg,0.0,dumptruck,thread,XL,S,4.0,1.0,dumptruck10,thread8,1.0,131.77,0.77,0.0,
131,,size_choice_confirmation,,html-keyboard-response,131,163976,0.0-1.0-171.0-0.0,0,0,18170,,,,,,42.0,,1.0,,,,,,,,,,,,,,,,,,,,,,,,,,132.5,0.73,,
132,,iti,,html-keyboard-response,132,165977,0.0-1.0-172.0,0,0,18170,,,,,,42.0,,1.0,,,,,,,,,,,,,,,,,,,,,,,,,,134.5,2.0,,
133,,size_choice,,html-keyboard-response,133,166541,0.0-1.0-174.0,0,0,18170,,562.0,,,75.0,43.0,43.0,1.0,3000.0,L-XL,0.0,L,XL,3.0,4.0,cooler,tractor,cooler1,tractor10,0.0,189.0,/static/Size_judgement/Stimuli/Size_stims/L/cooler/cooler8.jpg,/static/Size_judgement/Stimuli/Size_stims/XL/tractor/tractor8.jpg,0.0,tractor,cooler,XL,L,4.0,3.0,tractor10,cooler1,1.0,135.062,0.562,0.0,
134,,size_choice_confirmation,,html-keyboard-response,134,167481,0.0-1.0-175.0-0.0,0,0,18170,,,,,,43.0,,1.0,,,,,,,,,,,,,,,,,,,,,,,,,,136.0,0.938,,
135,,iti,,html-keyboard-response,135,170482,0.0-1.0-176.0,0,0,18170,,,,,,43.0,,1.0,,,,,,,,,,,,,,,,,,,,,,,,,,139.0,3.0,,
136,,size_choice,,html-keyboard-response,136,171181,0.0-1.0-178.0,0,0,18170,,698.0,,,75.0,44.0,44.0,1.0,1500.0,M-M,,M,M,2.0,2.0,hairdryer,coffeemaker,hairdryer10,coffeemaker1,79.0,60.0,/static/Size_judgement/Stimuli/Size_stims/M/hairdryer/hairdryer6.jpg,/static/Size_judgement/Stimuli/Size_stims/M/coffeemaker/coffeemaker14.jpg,0.0,coffeemaker,hairdryer,M,M,2.0,2.0,coffeemaker1,hairdryer10,,139.698,0.698,0.0,
137,,size_choice_confirmation,,html-keyboard-response,137,171984,0.0-1.0-179.0-0.0,0,0,18170,,,,,,44.0,,1.0,,,,,,,,,,,,,,,,,,,,,,,,,,140.5,0.802,,
138,,iti,,html-keyboard-response,138,173485,0.0-1.0-180.0,0,0,18170,,,,,,44.0,,1.0,,,,,,,,,,,,,,,,,,,,,,,,,,142.0,1.5,,
139,,block_over,,html-keyboard-response,139,175743,0.0-1.0-181.0-0.0,0,0,18170,,2257.0,,,68.0,44.0,,,,,,,,,,,,,,,,,,,,,,,,,,,,,,,
140,,size_choice,,html-keyboard-response,140,176281,0.0-1.0-182.0,0,0,18170,,537.0,,,75.0,45.0,45.0,2.0,3500.0,L-XL,0.0,L,XL,3.0,4.0,cooler,car,cooler4,car3,3.0,152.0,/static/Size_judgement/Stimuli/Size_stims/L/cooler/cooler3.jpg,/static/Size_judgement/Stimuli/Size_stims/XL/car/car4.jpg,0.0,car,cooler,XL,L,4.0,3.0,car3,cooler4,1.0,142.537,0.537,0.0,
141,,size_choice_confirmation,,html-keyboard-response,141,177246,0.0-1.0-183.0-0.0,0,0,18170,,,,,,45.0,,2.0,,,,,,,,,,,,,,,,,,,,,,,,,,143.5,0.963,,
142,,iti,,html-keyboard-response,142,180747,0.0-1.0-184.0,0,0,18170,,,,,,45.0,,2.0,,,,,,,,,,,,,,,,,,,,,,,,,,147.0,3.5,,
143,,size_choice,,html-keyboard-response,143,181407,0.0-1.0-186.0,0,0,18170,,658.0,,,75.0,46.0,46.0,2.0,2000.0,L-L,,L,L,3.0,3.0,deskchair,cooler,deskchair8,cooler2,17.0,1.0,/static/Size_judgement/Stimuli/Size_stims/L/deskchair/deskchair1.jpg,/static/Size_judgement/Stimuli/Size_stims/L/cooler/cooler9.jpg,0.0,cooler,deskchair,L,L,3.0,3.0,cooler2,deskchair8,,147.658,0.658,0.0,
144,,size_choice_confirmation,,html-keyboard-response,144,182251,0.0-1.0-187.0-0.0,0,0,18170,,,,,,46.0,,2.0,,,,,,,,,,,,,,,,,,,,,,,,,,148.5,0.842,,
145,,iti,,html-keyboard-response,145,184254,0.0-1.0-188.0,0,0,18170,,,,,,46.0,,2.0,,,,,,,,,,,,,,,,,,,,,,,,,,150.5,2.0,,
146,,size_choice,,html-keyboard-response,146,184761,0.0-1.0-190.0,0,0,18170,,506.0,,,75.0,47.0,47.0,2.0,1500.0,M-L,0.0,M,L,2.0,3.0,basketball,cooler,basketball3,cooler9,52.0,8.0,/static/Size_judgement/Stimuli/Size_stims/M/basketball/basketball10.jpg,/static/Size_judgement/Stimuli/Size_stims/L/cooler/cooler7.jpg,0.0,cooler,basketball,L,M,3.0,2.0,cooler9,basketball3,1.0,151.006,0.506,0.0,
147,,size_choice_confirmation,,html-keyboard-response,147,185757,0.0-1.0-191.0-0.0,0,0,18170,,,,,,47.0,,2.0,,,,,,,,,,,,,,,,,,,,,,,,,,152.0,0.994,,
148,,iti,,html-keyboard-response,148,187259,0.0-1.0-192.0,0,0,18170,,,,,,47.0,,2.0,,,,,,,,,,,,,,,,,,,,,,,,,,153.5,1.5,,
149,,size_choice,,html-keyboard-response,149,187790,0.0-1.0-194.0,0,0,18170,,530.0,,,68.0,48.0,48.0,2.0,1000.0,M-XL,1.0,XL,M,4.0,2.0,car,ketchup,car8,ketchup5,157.0,94.0,/static/Size_judgement/Stimuli/Size_stims/XL/car/car14.jpg,/static/Size_judgement/Stimuli/Size_stims/M/ketchup/ketchup3.jpg,1.0,car,ketchup,XL,M,4.0,2.0,car8,ketchup5,1.0,154.03,0.53,0.0,
150,,size_choice_confirmation,,html-keyboard-response,150,188763,0.0-1.0-195.0-0.0,0,0,18170,,,,,,48.0,,2.0,,,,,,,,,,,,,,,,,,,,,,,,,,155.0,0.97,,
151,,iti,,html-keyboard-response,151,189765,0.0-1.0-196.0,0,0,18170,,,,,,48.0,,2.0,,,,,,,,,,,,,,,,,,,,,,,,,,156.0,1.0,,
152,,size_choice,,html-keyboard-response,152,190440,0.0-1.0-198.0,0,0,18170,,674.0,,,75.0,49.0,49.0,2.0,1000.0,S-S,,S,S,1.0,1.0,die,thread,die3,thread6,102.0,145.0,/static/Size_judgement/Stimuli/Size_stims/S/die/die10.jpg,/static/Size_judgement/Stimuli/Size_stims/S/thread/thread2.jpg,0.0,thread,die,S,S,1.0,1.0,thread6,die3,,156.674,0.674,0.0,
153,,size_choice_confirmation,,html-keyboard-response,153,191268,0.0-1.0-199.0-0.0,0,0,18170,,,,,,49.0,,2.0,,,,,,,,,,,,,,,,,,,,,,,,,,157.5,0.826,,
154,,iti,,html-keyboard-response,154,192269,0.0-1.0-200.0,0,0,18170,,,,,,49.0,,2.0,,,,,,,,,,,,,,,,,,,,,,,,,,158.5,1.0,,
155,,size_choice,,html-keyboard-response,155,192703,0.0-1.0-202.0,0,0,18170,,433.0,,,75.0,50.0,50.0,2.0,2000.0,S-XL,0.0,S,XL,1.0,4.0,thread,car,thread3,car10,142.0,159.0,/static/Size_judgement/Stimuli/Size_stims/S/thread/thread4.jpg,/static/Size_judgement/Stimuli/Size_stims/XL/car/car9.jpg,0.0,car,thread,XL,S,4.0,1.0,car10,thread3,1.0,158.933,0.433,0.0,
156,,size_choice_confirmation,,html-keyboard-response,156,193772,0.0-1.0-203.0-0.0,0,0,18170,,,,,,50.0,,2.0,,,,,,,,,,,,,,,,,,,,,,,,,,160.0,1.067,,
157,,iti,,html-keyboard-response,157,195774,0.0-1.0-204.0,0,0,18170,,,,,,50.0,,2.0,,,,,,,,,,,,,,,,,,,,,,,,,,162.0,2.0,,
158,,size_choice,,html-keyboard-response,158,196518,0.0-1.0-206.0,0,0,18170,,743.0,,,75.0,51.0,51.0,2.0,2000.0,M-M,,M,M,2.0,2.0,ketchup,basketball,ketchup9,basketball9,98.0,58.0,/static/Size_judgement/Stimuli/Size_stims/M/ketchup/ketchup7.jpg,/static/Size_judgement/Stimuli/Size_stims/M/basketball/basketball5.jpg,0.0,basketball,ketchup,M,M,2.0,2.0,basketball9,ketchup9,,162.743,0.743,0.0,
159,,size_choice_confirmation,,html-keyboard-response,159,197290,0.0-1.0-207.0-0.0,0,0,18170,,,,,,51.0,,2.0,,,,,,,,,,,,,,,,,,,,,,,,,,163.5,0.757,,
160,,iti,,html-keyboard-response,160,199292,0.0-1.0-208.0,0,0,18170,,,,,,51.0,,2.0,,,,,,,,,,,,,,,,,,,,,,,,,,165.5,2.0,,
161,,size_choice,,html-keyboard-response,161,199786,0.0-1.0-210.0,0,0,18170,,493.0,,,68.0,52.0,52.0,2.0,1500.0,S-M,0.0,S,M,1.0,2.0,thread,ketchup,thread4,ketchup7,143.0,96.0,/static/Size_judgement/Stimuli/Size_stims/S/thread/thread5.jpg,/static/Size_judgement/Stimuli/Size_stims/M/ketchup/ketchup4.jpg,1.0,thread,ketchup,S,M,1.0,2.0,thread4,ketchup7,0.0,165.993,0.493,0.0,
162,,size_choice_confirmation,,html-keyboard-response,162,200795,0.0-1.0-211.0-0.0,0,0,18170,,,,,,52.0,,2.0,,,,,,,,,,,,,,,,,,,,,,,,,,167.0,1.007,,
163,,iti,,html-keyboard-response,163,202297,0.0-1.0-212.0,0,0,18170,,,,,,52.0,,2.0,,,,,,,,,,,,,,,,,,,,,,,,,,168.5,1.5,,
164,,size_choice,,html-keyboard-response,164,202871,0.0-1.0-214.0,0,0,18170,,572.0,,,75.0,53.0,53.0,2.0,1500.0,M-XL,0.0,M,XL,2.0,4.0,ketchup,van,ketchup1,van8,90.0,197.0,/static/Size_judgement/Stimuli/Size_stims/M/ketchup/ketchup8.jpg,/static/Size_judgement/Stimuli/Size_stims/XL/van/van10.jpg,0.0,van,ketchup,XL,M,4.0,2.0,van8,ketchup1,1.0,169.072,0.572,0.0,
165,,size_choice_confirmation,,html-keyboard-response,165,203801,0.0-1.0-215.0-0.0,0,0,18170,,,,,,53.0,,2.0,,,,,,,,,,,,,,,,,,,,,,,,,,170.0,0.928,,
166,,iti,,html-keyboard-response,166,205304,0.0-1.0-216.0,0,0,18170,,,,,,53.0,,2.0,,,,,,,,,,,,,,,,,,,,,,,,,,171.5,1.5,,
167,,size_choice,,html-keyboard-response,167,205799,0.0-1.0-218.0,0,0,18170,,494.0,,,75.0,54.0,54.0,2.0,2000.0,XL-XL,,XL,XL,4.0,4.0,dumptruck,car,dumptruck1,car2,170.0,151.0,/static/Size_judgement/Stimuli/Size_stims/XL/dumptruck/dumptruck9.jpg,/static/Size_judgement/Stimuli/Size_stims/XL/car/car3.jpg,0.0,car,dumptruck,XL,XL,4.0,4.0,car2,dumptruck1,,171.994,0.494,0.0,
168,,size_choice_confirmation,,html-keyboard-response,168,206807,0.0-1.0-219.0-0.0,0,0,18170,,,,,,54.0,,2.0,,,,,,,,,,,,,,,,,,,,,,,,,,173.0,1.006,,
169,,iti,,html-keyboard-response,169,208808,0.0-1.0-220.0,0,0,18170,,,,,,54.0,,2.0,,,,,,,,,,,,,,,,,,,,,,,,,,175.0,2.0,,
170,,size_choice,,html-keyboard-response,170,209795,0.0-1.0-222.0,0,0,18170,,986.0,,,68.0,55.0,55.0,2.0,1000.0,M-L,1.0,L,M,3.0,2.0,mailbox,coffeemaker,mailbox10,coffeemaker10,49.0,69.0,/static/Size_judgement/Stimuli/Size_stims/L/mailbox/mailbox8.jpg,/static/Size_judgement/Stimuli/Size_stims/M/coffeemaker/coffeemaker18.jpg,1.0,mailbox,coffeemaker,L,M,3.0,2.0,mailbox10,coffeemaker10,1.0,175.986,0.986,0.0,
171,,size_choice_confirmation,,html-keyboard-response,171,210311,0.0-1.0-223.0-0.0,0,0,18170,,,,,,55.0,,2.0,,,,,,,,,,,,,,,,,,,,,,,,,,176.5,0.514,,
172,,iti,,html-keyboard-response,172,211312,0.0-1.0-224.0,0,0,18170,,,,,,55.0,,2.0,,,,,,,,,,,,,,,,,,,,,,,,,,177.5,1.0,,
173,,size_choice,,html-keyboard-response,173,211813,0.0-1.0-226.0,0,0,18170,,500.0,,,75.0,56.0,56.0,2.0,1000.0,M-XL,0.0,M,XL,2.0,4.0,hairdryer,van,hairdryer4,van5,73.0,194.0,/static/Size_judgement/Stimuli/Size_stims/M/hairdryer/hairdryer16.jpg,/static/Size_judgement/Stimuli/Size_stims/XL/van/van3.jpg,0.0,van,hairdryer,XL,M,4.0,2.0,van5,hairdryer4,1.0,178.0,0.5,0.0,
174,,size_choice_confirmation,,html-keyboard-response,174,212815,0.0-1.0-227.0-0.0,0,0,18170,,,,,,56.0,,2.0,,,,,,,,,,,,,,,,,,,,,,,,,,179.0,1.0,,
175,,iti,,html-keyboard-response,175,213816,0.0-1.0-228.0,0,0,18170,,,,,,56.0,,2.0,,,,,,,,,,,,,,,,,,,,,,,,,,180.0,1.0,,
176,,size_choice,,html-keyboard-response,176,214384,0.0-1.0-230.0,0,0,18170,,565.0,,,75.0,57.0,57.0,2.0,1000.0,S-L,0.0,S,L,1.0,3.0,die,mailbox,die10,mailbox6,109.0,45.0,/static/Size_judgement/Stimuli/Size_stims/S/die/die6.jpg,/static/Size_judgement/Stimuli/Size_stims/L/mailbox/mailbox6.jpg,0.0,mailbox,die,L,S,3.0,1.0,mailbox6,die10,1.0,180.565,0.565,0.0,
177,,size_choice_confirmation,,html-keyboard-response,177,215321,0.0-1.0-231.0-0.0,0,0,18170,,,,,,57.0,,2.0,,,,,,,,,,,,,,,,,,,,,,,,,,181.5,0.935,,
178,,iti,,html-keyboard-response,178,216323,0.0-1.0-232.0,0,0,18170,,,,,,57.0,,2.0,,,,,,,,,,,,,,,,,,,,,,,,,,182.5,1.0,,
179,,size_choice,,html-keyboard-response,179,216926,0.0-1.0-234.0,0,0,18170,,601.0,,,68.0,58.0,58.0,2.0,3000.0,M-XL,1.0,XL,M,4.0,2.0,crane,ketchup,crane6,ketchup6,165.0,95.0,/static/Size_judgement/Stimuli/Size_stims/XL/crane/crane2.jpg,/static/Size_judgement/Stimuli/Size_stims/M/ketchup/ketchup1.jpg,1.0,crane,ketchup,XL,M,4.0,2.0,crane6,ketchup6,1.0,183.101,0.601,0.0,
180,,size_choice_confirmation,,html-keyboard-response,180,217827,0.0-1.0-235.0-0.0,0,0,18170,,,,,,58.0,,2.0,,,,,,,,,,,,,,,,,,,,,,,,,,184.0,0.899,,
181,,iti,,html-keyboard-response,181,220829,0.0-1.0-236.0,0,0,18170,,,,,,58.0,,2.0,,,,,,,,,,,,,,,,,,,,,,,,,,187.0,3.0,,
182,,size_choice,,html-keyboard-response,182,221448,0.0-1.0-238.0,0,0,18170,,617.0,,,68.0,59.0,59.0,2.0,1500.0,S-XL,1.0,XL,S,4.0,1.0,van,teabag,van4,teabag3,193.0,132.0,/static/Size_judgement/Stimuli/Size_stims/XL/van/van7.jpg,/static/Size_judgement/Stimuli/Size_stims/S/teabag/teabag1.jpg,1.0,van,teabag,XL,S,4.0,1.0,van4,teabag3,1.0,187.617,0.617,0.0,
183,,size_choice_confirmation,,html-keyboard-response,183,222344,0.0-1.0-239.0-0.0,0,0,18170,,,,,,59.0,,2.0,,,,,,,,,,,,,,,,,,,,,,,,,,188.5,0.883,,
184,,iti,,html-keyboard-response,184,223846,0.0-1.0-240.0,0,0,18170,,,,,,59.0,,2.0,,,,,,,,,,,,,,,,,,,,,,,,,,190.0,1.5,,
185,,size_choice,,html-keyboard-response,185,224398,0.0-1.0-242.0,0,0,18170,,550.0,,,75.0,60.0,60.0,2.0,1500.0,S-L,0.0,S,L,1.0,3.0,paperclip,deskchair,paperclip4,deskchair3,113.0,12.0,/static/Size_judgement/Stimuli/Size_stims/S/paperclip/paperclip3.jpg,/static/Size_judgement/Stimuli/Size_stims/L/deskchair/deskchair10.jpg,0.0,deskchair,paperclip,L,S,3.0,1.0,deskchair3,paperclip4,1.0,190.55,0.55,0.0,
186,,size_choice_confirmation,,html-keyboard-response,186,225350,0.0-1.0-243.0-0.0,0,0,18170,,,,,,60.0,,2.0,,,,,,,,,,,,,,,,,,,,,,,,,,191.5,0.95,,
187,,iti,,html-keyboard-response,187,226852,0.0-1.0-244.0,0,0,18170,,,,,,60.0,,2.0,,,,,,,,,,,,,,,,,,,,,,,,,,193.0,1.5,,
188,,size_choice,,html-keyboard-response,188,227595,0.0-1.0-246.0,0,0,18170,,741.0,,,75.0,61.0,61.0,2.0,1000.0,L-L,,L,L,3.0,3.0,dishwasher,garbagecan,dishwasher5,garbagecan1,24.0,30.0,/static/Size_judgement/Stimuli/Size_stims/L/dishwasher/dishwasher4.jpg,/static/Size_judgement/Stimuli/Size_stims/L/garbagecan/garbagecan4.jpg,0.0,garbagecan,dishwasher,L,L,3.0,3.0,garbagecan1,dishwasher5,,193.741,0.741,0.0,
189,,size_choice_confirmation,,html-keyboard-response,189,228357,0.0-1.0-247.0-0.0,0,0,18170,,,,,,61.0,,2.0,,,,,,,,,,,,,,,,,,,,,,,,,,194.5,0.759,,
190,,iti,,html-keyboard-response,190,229358,0.0-1.0-248.0,0,0,18170,,,,,,61.0,,2.0,,,,,,,,,,,,,,,,,,,,,,,,,,195.5,1.0,,
191,,size_choice,,html-keyboard-response,191,230406,0.0-1.0-250.0,0,0,18170,,1047.0,,,75.0,62.0,62.0,2.0,1000.0,M-L,0.0,M,L,2.0,3.0,ketchup,deskchair,ketchup3,deskchair7,92.0,16.0,/static/Size_judgement/Stimuli/Size_stims/M/ketchup/ketchup10.jpg,/static/Size_judgement/Stimuli/Size_stims/L/deskchair/deskchair4.jpg,0.0,deskchair,ketchup,L,M,3.0,2.0,deskchair7,ketchup3,1.0,196.547,1.047,0.0,
192,,size_choice_confirmation,,html-keyboard-response,192,230861,0.0-1.0-251.0-0.0,0,0,18170,,,,,,62.0,,2.0,,,,,,,,,,,,,,,,,,,,,,,,,,197.0,0.453,,
193,,iti,,html-keyboard-response,193,231862,0.0-1.0-252.0,0,0,18170,,,,,,62.0,,2.0,,,,,,,,,,,,,,,,,,,,,,,,,,198.0,1.0,,
194,,size_choice,,html-keyboard-response,194,232683,0.0-1.0-254.0,0,0,18170,,820.0,,,75.0,63.0,63.0,2.0,2000.0,S-M,0.0,S,M,1.0,2.0,teabag,coffeemaker,teabag2,coffeemaker3,131.0,62.0,/static/Size_judgement/Stimuli/Size_stims/S/teabag/teabag8.jpg,/static/Size_judgement/Stimuli/Size_stims/M/coffeemaker/coffeemaker13.jpg,0.0,coffeemaker,teabag,M,S,2.0,1.0,coffeemaker3,teabag2,1.0,198.82,0.82,0.0,
195,,size_choice_confirmation,,html-keyboard-response,195,233364,0.0-1.0-255.0-0.0,0,0,18170,,,,,,63.0,,2.0,,,,,,,,,,,,,,,,,,,,,,,,,,199.5,0.68,,
196,,iti,,html-keyboard-response,196,235366,0.0-1.0-256.0,0,0,18170,,,,,,63.0,,2.0,,,,,,,,,,,,,,,,,,,,,,,,,,201.5,2.0,,
197,,size_choice,,html-keyboard-response,197,236245,0.0-1.0-258.0,0,0,18170,,878.0,,,75.0,64.0,64.0,2.0,1000.0,M-L,0.0,M,L,2.0,3.0,coffeemaker,garbagecan,coffeemaker6,garbagecan10,65.0,39.0,/static/Size_judgement/Stimuli/Size_stims/M/coffeemaker/coffeemaker8.jpg,/static/Size_judgement/Stimuli/Size_stims/L/garbagecan/garbagecan11.jpg,0.0,garbagecan,coffeemaker,L,M,3.0,2.0,garbagecan10,coffeemaker6,1.0,202.378,0.878,0.0,
198,,size_choice_confirmation,,html-keyboard-response,198,236869,0.0-1.0-259.0-0.0,0,0,18170,,,,,,64.0,,2.0,,,,,,,,,,,,,,,,,,,,,,,,,,203.0,0.622,,
199,,iti,,html-keyboard-response,199,237871,0.0-1.0-260.0,0,0,18170,,,,,,64.0,,2.0,,,,,,,,,,,,,,,,,,,,,,,,,,204.0,1.0,,
200,,size_choice,,html-keyboard-response,200,238457,0.0-1.0-262.0,0,0,18170,,585.0,,,68.0,65.0,65.0,2.0,1000.0,S-XL,1.0,XL,S,4.0,1.0,crane,paperclip,crane1,paperclip3,160.0,112.0,/static/Size_judgement/Stimuli/Size_stims/XL/crane/crane7.jpg,/static/Size_judgement/Stimuli/Size_stims/S/paperclip/paperclip1.jpg,1.0,crane,paperclip,XL,S,4.0,1.0,crane1,paperclip3,1.0,204.585,0.585,0.0,
201,,size_choice_confirmation,,html-keyboard-response,201,239374,0.0-1.0-263.0-0.0,0,0,18170,,,,,,65.0,,2.0,,,,,,,,,,,,,,,,,,,,,,,,,,205.5,0.915,,
202,,iti,,html-keyboard-response,202,240376,0.0-1.0-264.0,0,0,18170,,,,,,65.0,,2.0,,,,,,,,,,,,,,,,,,,,,,,,,,206.5,1.0,,
203,,size_choice,,html-keyboard-response,203,241053,0.0-1.0-266.0,0,0,18170,,675.0,,,68.0,66.0,66.0,2.0,2000.0,M-M,,M,M,2.0,2.0,hairdryer,handsaw,hairdryer9,handsaw4,78.0,83.0,/static/Size_judgement/Stimuli/Size_stims/M/hairdryer/hairdryer5.jpg,/static/Size_judgement/Stimuli/Size_stims/M/handsaw/handsaw3.jpg,1.0,hairdryer,handsaw,M,M,2.0,2.0,hairdryer9,handsaw4,,207.175,0.675,0.0,
204,,size_choice_confirmation,,html-keyboard-response,204,241880,0.0-1.0-267.0-0.0,0,0,18170,,,,,,66.0,,2.0,,,,,,,,,,,,,,,,,,,,,,,,,,208.0,0.825,,
205,,iti,,html-keyboard-response,205,243881,0.0-1.0-268.0,0,0,18170,,,,,,66.0,,2.0,,,,,,,,,,,,,,,,,,,,,,,,,,210.0,2.0,,
206,,size_choice,,html-keyboard-response,206,244640,0.0-1.0-270.0,0,0,18170,,757.0,,,68.0,67.0,67.0,2.0,1500.0,S-S,,S,S,1.0,1.0,paperclip,screws,paperclip1,screws10,110.0,129.0,/static/Size_judgement/Stimuli/Size_stims/S/paperclip/paperclip9.jpg,/static/Size_judgement/Stimuli/Size_stims/S/screws/screws9.jpg,1.0,paperclip,screws,S,S,1.0,1.0,paperclip1,screws10,,210.757,0.757,0.0,
207,,size_choice_confirmation,,html-keyboard-response,207,245385,0.0-1.0-271.0-0.0,0,0,18170,,,,,,67.0,,2.0,,,,,,,,,,,,,,,,,,,,,,,,,,211.5,0.743,,
208,,iti,,html-keyboard-response,208,246886,0.0-1.0-272.0,0,0,18170,,,,,,67.0,,2.0,,,,,,,,,,,,,,,,,,,,,,,,,,213.0,1.5,,
209,,size_choice,,html-keyboard-response,209,247719,0.0-1.0-274.0,0,0,18170,,832.0,,,68.0,68.0,68.0,2.0,1500.0,M-XL,1.0,XL,M,4.0,2.0,tractor,coffeemaker,tractor2,coffeemaker7,181.0,66.0,/static/Size_judgement/Stimuli/Size_stims/XL/tractor/tractor7.jpg,/static/Size_judgement/Stimuli/Size_stims/M/coffeemaker/coffeemaker9.jpg,1.0,tractor,coffeemaker,XL,M,4.0,2.0,tractor2,coffeemaker7,1.0,213.832,0.832,0.0,
210,,size_choice_confirmation,,html-keyboard-response,210,248389,0.0-1.0-275.0-0.0,0,0,18170,,,,,,68.0,,2.0,,,,,,,,,,,,,,,,,,,,,,,,,,214.5,0.668,,
211,,iti,,html-keyboard-response,211,249891,0.0-1.0-276.0,0,0,18170,,,,,,68.0,,2.0,,,,,,,,,,,,,,,,,,,,,,,,,,216.0,1.5,,
212,,size_choice,,html-keyboard-response,212,250653,0.0-1.0-278.0,0,0,18170,,761.0,,,68.0,69.0,69.0,2.0,2000.0,L-XL,1.0,XL,L,4.0,3.0,crane,deskchair,crane4,deskchair1,163.0,10.0,/static/Size_judgement/Stimuli/Size_stims/XL/crane/crane5.jpg,/static/Size_judgement/Stimuli/Size_stims/L/deskchair/deskchair9.jpg,1.0,crane,deskchair,XL,L,4.0,3.0,crane4,deskchair1,1.0,216.761,0.761,0.0,
213,,size_choice_confirmation,,html-keyboard-response,213,251393,0.0-1.0-279.0-0.0,0,0,18170,,,,,,69.0,,2.0,,,,,,,,,,,,,,,,,,,,,,,,,,217.5,0.739,,
214,,iti,,html-keyboard-response,214,253394,0.0-1.0-280.0,0,0,18170,,,,,,69.0,,2.0,,,,,,,,,,,,,,,,,,,,,,,,,,219.5,2.0,,
215,,size_choice,,html-keyboard-response,215,253972,0.0-1.0-282.0,0,0,18170,,576.0,,,68.0,70.0,70.0,2.0,2000.0,S-L,1.0,L,S,3.0,1.0,garbagecan,die,garbagecan6,die8,35.0,107.0,/static/Size_judgement/Stimuli/Size_stims/L/garbagecan/garbagecan14.jpg,/static/Size_judgement/Stimuli/Size_stims/S/die/die5.jpg,1.0,garbagecan,die,L,S,3.0,1.0,garbagecan6,die8,1.0,220.076,0.576,0.0,
216,,size_choice_confirmation,,html-keyboard-response,216,254899,0.0-1.0-283.0-0.0,0,0,18170,,,,,,70.0,,2.0,,,,,,,,,,,,,,,,,,,,,,,,,,221.0,0.924,,
217,,iti,,html-keyboard-response,217,256902,0.0-1.0-284.0,0,0,18170,,,,,,70.0,,2.0,,,,,,,,,,,,,,,,,,,,,,,,,,223.0,2.0,,
218,,size_choice,,html-keyboard-response,218,257523,0.0-1.0-286.0,0,0,18170,,620.0,,,75.0,71.0,71.0,2.0,1000.0,M-L,0.0,M,L,2.0,3.0,handsaw,cooler,handsaw6,cooler5,85.0,4.0,/static/Size_judgement/Stimuli/Size_stims/M/handsaw/handsaw4.jpg,/static/Size_judgement/Stimuli/Size_stims/L/cooler/cooler10.jpg,0.0,cooler,handsaw,L,M,3.0,2.0,cooler5,handsaw6,1.0,223.62,0.62,0.0,
219,,size_choice_confirmation,,html-keyboard-response,219,258405,0.0-1.0-287.0-0.0,0,0,18170,,,,,,71.0,,2.0,,,,,,,,,,,,,,,,,,,,,,,,,,224.5,0.88,,
220,,iti,,html-keyboard-response,220,259407,0.0-1.0-288.0,0,0,18170,,,,,,71.0,,2.0,,,,,,,,,,,,,,,,,,,,,,,,,,225.5,1.0,,
221,,size_choice,,html-keyboard-response,221,259975,0.0-1.0-290.0,0,0,18170,,566.0,,,75.0,72.0,72.0,2.0,1000.0,S-L,0.0,S,L,1.0,3.0,screws,mailbox,screws4,mailbox1,123.0,40.0,/static/Size_judgement/Stimuli/Size_stims/S/screws/screws6.jpg,/static/Size_judgement/Stimuli/Size_stims/L/mailbox/mailbox3.jpg,0.0,mailbox,screws,L,S,3.0,1.0,mailbox1,screws4,1.0,226.066,0.566,0.0,
222,,size_choice_confirmation,,html-keyboard-response,222,260911,0.0-1.0-291.0-0.0,0,0,18170,,,,,,72.0,,2.0,,,,,,,,,,,,,,,,,,,,,,,,,,227.0,0.934,,
223,,iti,,html-keyboard-response,223,261912,0.0-1.0-292.0,0,0,18170,,,,,,72.0,,2.0,,,,,,,,,,,,,,,,,,,,,,,,,,228.0,1.0,,
224,,size_choice,,html-keyboard-response,224,262416,0.0-1.0-294.0,0,0,18170,,503.0,,,75.0,73.0,73.0,2.0,1000.0,S-XL,0.0,S,XL,1.0,4.0,thread,car,thread5,car1,144.0,150.0,/static/Size_judgement/Stimuli/Size_stims/S/thread/thread1.jpg,/static/Size_judgement/Stimuli/Size_stims/XL/car/car2.jpg,0.0,car,thread,XL,S,4.0,1.0,car1,thread5,1.0,228.503,0.503,0.0,
225,,size_choice_confirmation,,html-keyboard-response,225,263415,0.0-1.0-295.0-0.0,0,0,18170,,,,,,73.0,,2.0,,,,,,,,,,,,,,,,,,,,,,,,,,229.5,0.997,,
226,,iti,,html-keyboard-response,226,264417,0.0-1.0-296.0,0,0,18170,,,,,,73.0,,2.0,,,,,,,,,,,,,,,,,,,,,,,,,,230.5,1.0,,
227,,size_choice,,html-keyboard-response,227,265142,0.0-1.0-298.0,0,0,18170,,723.0,,,75.0,74.0,74.0,2.0,1000.0,XL-XL,,XL,XL,4.0,4.0,van,tractor,van6,tractor9,195.0,188.0,/static/Size_judgement/Stimuli/Size_stims/XL/van/van2.jpg,/static/Size_judgement/Stimuli/Size_stims/XL/tractor/tractor9.jpg,0.0,tractor,van,XL,XL,4.0,4.0,tractor9,van6,,231.223,0.723,0.0,
228,,size_choice_confirmation,,html-keyboard-response,228,265921,0.0-1.0-299.0-0.0,0,0,18170,,,,,,74.0,,2.0,,,,,,,,,,,,,,,,,,,,,,,,,,232.0,0.777,,
229,,iti,,html-keyboard-response,229,266923,0.0-1.0-300.0,0,0,18170,,,,,,74.0,,2.0,,,,,,,,,,,,,,,,,,,,,,,,,,233.0,1.0,,
230,,size_choice,,html-keyboard-response,230,267368,0.0-1.0-302.0,0,0,18170,,444.0,,,75.0,75.0,75.0,2.0,1500.0,M-XL,0.0,M,XL,2.0,4.0,basketball,van,basketball7,van7,56.0,196.0,/static/Size_judgement/Stimuli/Size_stims/M/basketball/basketball6.jpg,/static/Size_judgement/Stimuli/Size_stims/XL/van/van1.jpg,0.0,van,basketball,XL,M,4.0,2.0,van7,basketball7,1.0,233.444,0.444,0.0,
231,,size_choice_confirmation,,html-keyboard-response,231,268425,0.0-1.0-303.0-0.0,0,0,18170,,,,,,75.0,,2.0,,,,,,,,,,,,,,,,,,,,,,,,,,234.5,1.056,,
232,,iti,,html-keyboard-response,232,269927,0.0-1.0-304.0,0,0,18170,,,,,,75.0,,2.0,,,,,,,,,,,,,,,,,,,,,,,,,,236.0,1.5,,
233,,size_choice,,html-keyboard-response,233,270413,0.0-1.0-306.0,0,0,18170,,485.0,,,68.0,76.0,76.0,2.0,1500.0,S-XL,1.0,XL,S,4.0,1.0,dumptruck,teabag,dumptruck7,teabag5,176.0,134.0,/static/Size_judgement/Stimuli/Size_stims/XL/dumptruck/dumptruck6.jpg,/static/Size_judgement/Stimuli/Size_stims/S/teabag/teabag2.jpg,1.0,dumptruck,teabag,XL,S,4.0,1.0,dumptruck7,teabag5,1.0,236.485,0.485,0.0,
234,,size_choice_confirmation,,html-keyboard-response,234,271429,0.0-1.0-307.0-0.0,0,0,18170,,,,,,76.0,,2.0,,,,,,,,,,,,,,,,,,,,,,,,,,237.5,1.015,,
235,,iti,,html-keyboard-response,235,272931,0.0-1.0-308.0,0,0,18170,,,,,,76.0,,2.0,,,,,,,,,,,,,,,,,,,,,,,,,,239.0,1.5,,
236,,size_choice,,html-keyboard-response,236,273600,0.0-1.0-310.0,0,0,18170,,668.0,,,75.0,77.0,77.0,2.0,1500.0,M-L,0.0,M,L,2.0,3.0,ketchup,deskchair,ketchup8,deskchair6,97.0,15.0,/static/Size_judgement/Stimuli/Size_stims/M/ketchup/ketchup5.jpg,/static/Size_judgement/Stimuli/Size_stims/L/deskchair/deskchair5.jpg,0.0,deskchair,ketchup,L,M,3.0,2.0,deskchair6,ketchup8,1.0,239.668,0.668,0.0,
237,,size_choice_confirmation,,html-keyboard-response,237,274435,0.0-1.0-311.0-0.0,0,0,18170,,,,,,77.0,,2.0,,,,,,,,,,,,,,,,,,,,,,,,,,240.5,0.832,,
238,,iti,,html-keyboard-response,238,275936,0.0-1.0-312.0,0,0,18170,,,,,,77.0,,2.0,,,,,,,,,,,,,,,,,,,,,,,,,,242.0,1.5,,
239,,size_choice,,html-keyboard-response,239,276396,0.0-1.0-314.0,0,0,18170,,459.0,,,68.0,78.0,78.0,2.0,3000.0,S-XL,1.0,XL,S,4.0,1.0,crane,paperclip,crane2,paperclip7,161.0,116.0,/static/Size_judgement/Stimuli/Size_stims/XL/crane/crane6.jpg,/static/Size_judgement/Stimuli/Size_stims/S/paperclip/paperclip7.jpg,1.0,crane,paperclip,XL,S,4.0,1.0,crane2,paperclip7,1.0,242.459,0.459,0.0,
240,,size_choice_confirmation,,html-keyboard-response,240,277439,0.0-1.0-315.0-0.0,0,0,18170,,,,,,78.0,,2.0,,,,,,,,,,,,,,,,,,,,,,,,,,243.5,1.041,,
241,,iti,,html-keyboard-response,241,280442,0.0-1.0-316.0,0,0,18170,,,,,,78.0,,2.0,,,,,,,,,,,,,,,,,,,,,,,,,,246.5,3.0,,
242,,size_choice,,html-keyboard-response,242,281149,0.0-1.0-318.0,0,0,18170,,706.0,,,68.0,79.0,79.0,2.0,3500.0,M-XL,1.0,XL,M,4.0,2.0,crane,coffeemaker,crane10,coffeemaker2,169.0,61.0,/static/Size_judgement/Stimuli/Size_stims/XL/crane/crane9.jpg,/static/Size_judgement/Stimuli/Size_stims/M/coffeemaker/coffeemaker12.jpg,1.0,crane,coffeemaker,XL,M,4.0,2.0,crane10,coffeemaker2,1.0,247.206,0.706,0.0,
243,,size_choice_confirmation,,html-keyboard-response,243,281945,0.0-1.0-319.0-0.0,0,0,18170,,,,,,79.0,,2.0,,,,,,,,,,,,,,,,,,,,,,,,,,248.0,0.794,,
244,,iti,,html-keyboard-response,244,285447,0.0-1.0-320.0,0,0,18170,,,,,,79.0,,2.0,,,,,,,,,,,,,,,,,,,,,,,,,,251.5,3.5,,
245,,size_choice,,html-keyboard-response,245,285976,0.0-1.0-322.0,0,0,18170,,528.0,,,68.0,80.0,80.0,2.0,3000.0,S-L,1.0,L,S,3.0,1.0,mailbox,screws,mailbox4,screws1,43.0,120.0,/static/Size_judgement/Stimuli/Size_stims/L/mailbox/mailbox5.jpg,/static/Size_judgement/Stimuli/Size_stims/S/screws/screws4.jpg,1.0,mailbox,screws,L,S,3.0,1.0,mailbox4,screws1,1.0,252.028,0.528,0.0,
246,,size_choice_confirmation,,html-keyboard-response,246,286949,0.0-1.0-323.0-0.0,0,0,18170,,,,,,80.0,,2.0,,,,,,,,,,,,,,,,,,,,,,,,,,253.0,0.972,,
247,,iti,,html-keyboard-response,247,289950,0.0-1.0-324.0,0,0,18170,,,,,,80.0,,2.0,,,,,,,,,,,,,,,,,,,,,,,,,,256.0,3.0,,
248,,size_choice,,html-keyboard-response,248,290520,0.0-1.0-326.0,0,0,18170,,568.0,,,68.0,81.0,81.0,2.0,1000.0,S-L,1.0,L,S,3.0,1.0,dishwasher,teabag,dishwasher6,teabag1,25.0,130.0,/static/Size_judgement/Stimuli/Size_stims/L/dishwasher/dishwasher6.jpg,/static/Size_judgement/Stimuli/Size_stims/S/teabag/teabag9.jpg,1.0,dishwasher,teabag,L,S,3.0,1.0,dishwasher6,teabag1,1.0,256.568,0.568,0.0,
249,,size_choice_confirmation,,html-keyboard-response,249,291454,0.0-1.0-327.0-0.0,0,0,18170,,,,,,81.0,,2.0,,,,,,,,,,,,,,,,,,,,,,,,,,257.5,0.932,,
250,,iti,,html-keyboard-response,250,292456,0.0-1.0-328.0,0,0,18170,,,,,,81.0,,2.0,,,,,,,,,,,,,,,,,,,,,,,,,,258.5,1.0,,
251,,size_choice,,html-keyboard-response,251,293097,0.0-1.0-330.0,0,0,18170,,639.0,,,68.0,82.0,82.0,2.0,1000.0,M-L,1.0,L,M,3.0,2.0,garbagecan,basketball,garbagecan5,basketball1,34.0,50.0,/static/Size_judgement/Stimuli/Size_stims/L/garbagecan/garbagecan3.jpg,/static/Size_judgement/Stimuli/Size_stims/M/basketball/basketball9.jpg,1.0,garbagecan,basketball,L,M,3.0,2.0,garbagecan5,basketball1,1.0,259.139,0.639,0.0,
252,,size_choice_confirmation,,html-keyboard-response,252,293959,0.0-1.0-331.0-0.0,0,0,18170,,,,,,82.0,,2.0,,,,,,,,,,,,,,,,,,,,,,,,,,260.0,0.861,,
253,,iti,,html-keyboard-response,253,294961,0.0-1.0-332.0,0,0,18170,,,,,,82.0,,2.0,,,,,,,,,,,,,,,,,,,,,,,,,,261.0,1.0,,
254,,size_choice,,html-keyboard-response,254,295517,0.0-1.0-334.0,0,0,18170,,555.0,,,68.0,83.0,83.0,2.0,3000.0,S-XL,1.0,XL,S,4.0,1.0,crane,screws,crane3,screws7,162.0,126.0,/static/Size_judgement/Stimuli/Size_stims/XL/crane/crane4.jpg,/static/Size_judgement/Stimuli/Size_stims/S/screws/screws1.jpg,1.0,crane,screws,XL,S,4.0,1.0,crane3,screws7,1.0,261.555,0.555,0.0,
255,,size_choice_confirmation,,html-keyboard-response,255,296464,0.0-1.0-335.0-0.0,0,0,18170,,,,,,83.0,,2.0,,,,,,,,,,,,,,,,,,,,,,,,,,262.5,0.945,,
256,,iti,,html-keyboard-response,256,299466,0.0-1.0-336.0,0,0,18170,,,,,,83.0,,2.0,,,,,,,,,,,,,,,,,,,,,,,,,,265.5,3.0,,
257,,size_choice,,html-keyboard-response,257,300052,0.0-1.0-338.0,0,0,18170,,585.0,,,68.0,84.0,84.0,2.0,3500.0,S-L,1.0,L,S,3.0,1.0,deskchair,screws,deskchair9,screws3,18.0,122.0,/static/Size_judgement/Stimuli/Size_stims/L/deskchair/deskchair3.jpg,/static/Size_judgement/Stimuli/Size_stims/S/screws/screws7.jpg,1.0,deskchair,screws,L,S,3.0,1.0,deskchair9,screws3,1.0,266.085,0.585,0.0,
258,,size_choice_confirmation,,html-keyboard-response,258,300971,0.0-1.0-339.0-0.0,0,0,18170,,,,,,84.0,,2.0,,,,,,,,,,,,,,,,,,,,,,,,,,267.0,0.915,,
259,,iti,,html-keyboard-response,259,304474,0.0-1.0-340.0,0,0,18170,,,,,,84.0,,2.0,,,,,,,,,,,,,,,,,,,,,,,,,,270.5,3.5,,
260,,size_choice,,html-keyboard-response,260,305030,0.0-1.0-342.0,0,0,18170,,554.0,,,75.0,85.0,85.0,2.0,1500.0,S-L,0.0,S,L,1.0,3.0,die,mailbox,die7,mailbox2,106.0,41.0,/static/Size_judgement/Stimuli/Size_stims/S/die/die4.jpg,/static/Size_judgement/Stimuli/Size_stims/L/mailbox/mailbox2.jpg,0.0,mailbox,die,L,S,3.0,1.0,mailbox2,die7,1.0,271.054,0.554,0.0,
261,,size_choice_confirmation,,html-keyboard-response,261,305983,0.0-1.0-343.0-0.0,0,0,18170,,,,,,85.0,,2.0,,,,,,,,,,,,,,,,,,,,,,,,,,272.0,0.946,,
262,,iti,,html-keyboard-response,262,307484,0.0-1.0-344.0,0,0,18170,,,,,,85.0,,2.0,,,,,,,,,,,,,,,,,,,,,,,,,,273.5,1.5,,
263,,size_choice,,html-keyboard-response,263,308238,0.0-1.0-346.0,0,0,18170,,753.0,,,75.0,86.0,86.0,2.0,1000.0,M-XL,0.0,M,XL,2.0,4.0,coffeemaker,tractor,coffeemaker9,tractor3,68.0,182.0,/static/Size_judgement/Stimuli/Size_stims/M/coffeemaker/coffeemaker7.jpg,/static/Size_judgement/Stimuli/Size_stims/XL/tractor/tractor5.jpg,0.0,tractor,coffeemaker,XL,M,4.0,2.0,tractor3,coffeemaker9,1.0,274.253,0.753,0.0,
264,,size_choice_confirmation,,html-keyboard-response,264,308988,0.0-1.0-347.0-0.0,0,0,18170,,,,,,86.0,,2.0,,,,,,,,,,,,,,,,,,,,,,,,,,275.0,0.747,,
265,,iti,,html-keyboard-response,265,309988,0.0-1.0-348.0,0,0,18170,,,,,,86.0,,2.0,,,,,,,,,,,,,,,,,,,,,,,,,,276.0,1.0,,
266,,size_choice,,html-keyboard-response,266,310704,0.0-1.0-350.0,0,0,18170,,715.0,,,75.0,87.0,87.0,2.0,1000.0,XL-XL,,XL,XL,4.0,4.0,van,tractor,van9,tractor1,198.0,180.0,/static/Size_judgement/Stimuli/Size_stims/XL/van/van9.jpg,/static/Size_judgement/Stimuli/Size_stims/XL/tractor/tractor6.jpg,0.0,tractor,van,XL,XL,4.0,4.0,tractor1,van9,,276.715,0.715,0.0,
267,,size_choice_confirmation,,html-keyboard-response,267,311492,0.0-1.0-351.0-0.0,0,0,18170,,,,,,87.0,,2.0,,,,,,,,,,,,,,,,,,,,,,,,,,277.5,0.785,,
268,,iti,,html-keyboard-response,268,312494,0.0-1.0-352.0,0,0,18170,,,,,,87.0,,2.0,,,,,,,,,,,,,,,,,,,,,,,,,,278.5,1.0,,
269,,size_choice,,html-keyboard-response,269,313045,0.0-1.0-354.0,0,0,18170,,550.0,,,68.0,88.0,88.0,2.0,1500.0,S-XL,1.0,XL,S,4.0,1.0,crane,die,crane7,die4,166.0,103.0,/static/Size_judgement/Stimuli/Size_stims/XL/crane/crane3.jpg,/static/Size_judgement/Stimuli/Size_stims/S/die/die2.jpg,1.0,crane,die,XL,S,4.0,1.0,crane7,die4,1.0,279.05,0.55,0.0,
270,,size_choice_confirmation,,html-keyboard-response,270,313997,0.0-1.0-355.0-0.0,0,0,18170,,,,,,88.0,,2.0,,,,,,,,,,,,,,,,,,,,,,,,,,280.0,0.95,,
271,,iti,,html-keyboard-response,271,315499,0.0-1.0-356.0,0,0,18170,,,,,,88.0,,2.0,,,,,,,,,,,,,,,,,,,,,,,,,,281.5,1.5,,
272,,size_choice,,html-keyboard-response,272,316324,0.0-1.0-358.0,0,0,18170,,824.0,,,75.0,89.0,89.0,2.0,1000.0,M-L,0.0,M,L,2.0,3.0,coffeemaker,mailbox,coffeemaker8,mailbox8,67.0,47.0,/static/Size_judgement/Stimuli/Size_stims/M/coffeemaker/coffeemaker5.jpg,/static/Size_judgement/Stimuli/Size_stims/L/mailbox/mailbox10.jpg,0.0,mailbox,coffeemaker,L,M,3.0,2.0,mailbox8,coffeemaker8,1.0,282.324,0.824,0.0,
273,,size_choice_confirmation,,html-keyboard-response,273,317002,0.0-1.0-359.0-0.0,0,0,18170,,,,,,89.0,,2.0,,,,,,,,,,,,,,,,,,,,,,,,,,283.0,0.676,,
274,,iti,,html-keyboard-response,274,318004,0.0-1.0-360.0,0,0,18170,,,,,,89.0,,2.0,,,,,,,,,,,,,,,,,,,,,,,,,,284.0,1.0,,0.96
275,,size_final_tally,,html-keyboard-response,275,320419,0.0-2.0,0,0,18170,,2414.0,,,68.0,,,,,,,,,,,,,,,,,,,,,,,,,,,,,,,,
