,success,ttype,start_time,trial_type,trial_index,time_elapsed,internal_node_id,warning,missed_checkup,PID,view_history,rt,responses,repeat_instructions,key_press,index,trial_num,block,iti,pair_type,high_size_on_left,left_size_group,right_size_group,left_size_num,right_size_num,left_category,right_category,left_exemplar,right_exemplar,left_index,right_index,left_img_path,right_img_path,accuracy,onset,duration,no_response,left_chosen,chosen_category,unchosen_category,chosen_size_group,unchosen_size_group,chosen_size_num,unchosen_size_num,chosen_exemplar,unchosen_exemplar,size_final_tally
0,True,full_screen,d06032022hr1813,fullscreen,0,5707,0.0-0.0,0,0,47956,,,,,,,,,,,,,,,,,,,,,,,,,,,,,,,,,,,,,
1,,size_instructions,,instructions,1,102822,0.0-1.0-0.0-0.0,0,0,47956,"[{""page_index"":0,""viewing_time"":4222},{""page_index"":1,""viewing_time"":74078},{""page_index"":2,""viewing_time"":5732},{""page_index"":3,""viewing_time"":5846},{""page_index"":4,""viewing_time"":4310},{""page_index"":5,""viewing_time"":2924}]",97113.0,,,,,,,,,,,,,,,,,,,,,,,,,,,,,,,,,,,
2,,size_comprehension_check,,survey-multi-choice,2,124514,0.0-1.0-0.0-1.0,0,0,47956,,21683.0,"{""Q0"":""True"",""Q1"":""Size in the real world"",""Q2"":""True"",""Q3"":""D for left and K for right""}",0.0,,,,,,,,,,,,,,,,,,,,,,,,,,,,,,,,,
3,,,,html-keyboard-response,3,127919,0.0-1.0-1.0,0,0,47956,,3393.0,,,68.0,,,,,,,,,,,,,,,,,,,,,,,,,,,,,,,,
4,,size_choice,,html-keyboard-response,4,129425,0.0-1.0-2.0,0,0,47956,,,,,,0.0,0.0,1.0,2000.0,L-L,,L,L,3.0,3.0,deskchair,mailbox,deskchair10,mailbox3,19.0,42.0,/static/Size_judgement/Stimuli/Size_stims/L/deskchair/deskchair2.jpg,/static/Size_judgement/Stimuli/Size_stims/L/mailbox/mailbox1.jpg,,1.5,1.5,1.0,,,,,,,,,,
5,,iti,,html-keyboard-response,5,131429,0.0-1.0-4.0,0,0,47956,,,,,,,,,,,,,,,,,,,,,,,,,3.5,2.0,,,,,,,,,,,
6,,size_choice,,html-keyboard-response,6,132420,0.0-1.0-6.0,0,0,47956,,987.0,,,68.0,1.0,1.0,1.0,1000.0,S-XL,1.0,XL,S,4.0,1.0,dumptruck,teabag,dumptruck9,teabag3,178.0,132.0,/static/Size_judgement/Stimuli/Size_stims/XL/dumptruck/dumptruck5.jpg,/static/Size_judgement/Stimuli/Size_stims/S/teabag/teabag1.jpg,1.0,4.487,0.987,0.0,1.0,dumptruck,teabag,XL,S,4.0,1.0,dumptruck9,teabag3,
7,,size_choice_confirmation,,html-keyboard-response,7,132938,0.0-1.0-7.0-0.0,0,0,47956,,,,,,1.0,,,,,,,,,,,,,,,,,,,5.0,0.513,,,,,,,,,,,
8,,iti,,html-keyboard-response,8,133942,0.0-1.0-8.0,0,0,47956,,,,,,,,,,,,,,,,,,,,,,,,,6.0,1.0,,,,,,,,,,,
9,,size_choice,,html-keyboard-response,9,135149,0.0-1.0-10.0,0,0,47956,,1203.0,,,68.0,2.0,2.0,1.0,1000.0,M-L,1.0,L,M,3.0,2.0,mailbox,ketchup,mailbox9,ketchup7,48.0,96.0,/static/Size_judgement/Stimuli/Size_stims/L/mailbox/mailbox9.jpg,/static/Size_judgement/Stimuli/Size_stims/M/ketchup/ketchup4.jpg,1.0,7.203,1.203,0.0,1.0,mailbox,ketchup,L,M,3.0,2.0,mailbox9,ketchup7,
10,,size_choice_confirmation,,html-keyboard-response,10,135450,0.0-1.0-11.0-0.0,0,0,47956,,,,,,2.0,,,,,,,,,,,,,,,,,,,7.5,0.297,,,,,,,,,,,
11,,iti,,html-keyboard-response,11,136452,0.0-1.0-12.0,0,0,47956,,,,,,,,,,,,,,,,,,,,,,,,,8.5,1.0,,,,,,,,,,,
12,,size_choice,,html-keyboard-response,12,137252,0.0-1.0-14.0,0,0,47956,,796.0,,,68.0,3.0,3.0,1.0,2000.0,M-XL,1.0,XL,M,4.0,2.0,dumptruck,ketchup,dumptruck4,ketchup2,173.0,91.0,/static/Size_judgement/Stimuli/Size_stims/XL/dumptruck/dumptruck1.jpg,/static/Size_judgement/Stimuli/Size_stims/M/ketchup/ketchup9.jpg,1.0,9.296,0.796,0.0,1.0,dumptruck,ketchup,XL,M,4.0,2.0,dumptruck4,ketchup2,
13,,size_choice_confirmation,,html-keyboard-response,13,137961,0.0-1.0-15.0-0.0,0,0,47956,,,,,,3.0,,,,,,,,,,,,,,,,,,,10.0,0.704,,,,,,,,,,,
14,,iti,,html-keyboard-response,14,139964,0.0-1.0-16.0,0,0,47956,,,,,,,,,,,,,,,,,,,,,,,,,12.0,2.0,,,,,,,,,,,
15,,size_choice,,html-keyboard-response,15,140884,0.0-1.0-18.0,0,0,47956,,918.0,,,75.0,4.0,4.0,1.0,1000.0,L-XL,0.0,L,XL,3.0,4.0,garbagecan,dumptruck,garbagecan9,dumptruck7,38.0,176.0,/static/Size_judgement/Stimuli/Size_stims/L/garbagecan/garbagecan12.jpg,/static/Size_judgement/Stimuli/Size_stims/XL/dumptruck/dumptruck6.jpg,1.0,12.918,0.918,0.0,0.0,dumptruck,garbagecan,XL,L,4.0,3.0,dumptruck7,garbagecan9,
16,,size_choice_confirmation,,html-keyboard-response,16,141470,0.0-1.0-19.0-0.0,0,0,47956,,,,,,4.0,,,,,,,,,,,,,,,,,,,13.5,0.582,,,,,,,,,,,
17,,iti,,html-keyboard-response,17,142472,0.0-1.0-20.0,0,0,47956,,,,,,,,,,,,,,,,,,,,,,,,,14.5,1.0,,,,,,,,,,,
18,,size_choice,,html-keyboard-response,18,143723,0.0-1.0-22.0,0,0,47956,,1247.0,,,68.0,5.0,5.0,1.0,1500.0,S-L,1.0,L,S,3.0,1.0,mailbox,thread,mailbox8,thread8,47.0,147.0,/static/Size_judgement/Stimuli/Size_stims/L/mailbox/mailbox10.jpg,/static/Size_judgement/Stimuli/Size_stims/S/thread/thread10.jpg,1.0,15.747,1.247,0.0,1.0,mailbox,thread,L,S,3.0,1.0,mailbox8,thread8,
19,,size_choice_confirmation,,html-keyboard-response,19,143979,0.0-1.0-23.0-0.0,0,0,47956,,,,,,5.0,,,,,,,,,,,,,,,,,,,16.0,0.253,,,,,,,,,,,
20,,iti,,html-keyboard-response,20,145482,0.0-1.0-24.0,0,0,47956,,,,,,,,,,,,,,,,,,,,,,,,,17.5,1.5,,,,,,,,,,,
21,,size_choice,,html-keyboard-response,21,146388,0.0-1.0-26.0,0,0,47956,,903.0,,,75.0,6.0,6.0,1.0,2000.0,S-L,1.0,L,S,3.0,1.0,garbagecan,teabag,garbagecan6,teabag10,35.0,139.0,/static/Size_judgement/Stimuli/Size_stims/L/garbagecan/garbagecan14.jpg,/static/Size_judgement/Stimuli/Size_stims/S/teabag/teabag4.jpg,0.0,18.403,0.903,0.0,0.0,teabag,garbagecan,S,L,1.0,3.0,teabag10,garbagecan6,
22,,size_choice_confirmation,,html-keyboard-response,22,146989,0.0-1.0-27.0-0.0,0,0,47956,,,,,,6.0,,,,,,,,,,,,,,,,,,,19.0,0.597,,,,,,,,,,,
23,,iti,,html-keyboard-response,23,148992,0.0-1.0-28.0,0,0,47956,,,,,,,,,,,,,,,,,,,,,,,,,21.0,2.0,,,,,,,,,,,
24,,size_choice,,html-keyboard-response,24,149604,0.0-1.0-30.0,0,0,47956,,608.0,,,68.0,7.0,7.0,1.0,1000.0,M-XL,1.0,XL,M,4.0,2.0,car,ketchup,car2,ketchup5,151.0,94.0,/static/Size_judgement/Stimuli/Size_stims/XL/car/car3.jpg,/static/Size_judgement/Stimuli/Size_stims/M/ketchup/ketchup3.jpg,1.0,21.608,0.608,0.0,1.0,car,ketchup,XL,M,4.0,2.0,car2,ketchup5,
25,,size_choice_confirmation,,html-keyboard-response,25,150500,0.0-1.0-31.0-0.0,0,0,47956,,,,,,7.0,,,,,,,,,,,,,,,,,,,22.5,0.892,,,,,,,,,,,
26,,iti,,html-keyboard-response,26,151502,0.0-1.0-32.0,0,0,47956,,,,,,,,,,,,,,,,,,,,,,,,,23.5,1.0,,,,,,,,,,,
27,,size_choice,,html-keyboard-response,27,152252,0.0-1.0-34.0,0,0,47956,,747.0,,,75.0,8.0,8.0,1.0,1000.0,XL-XL,,XL,XL,4.0,4.0,van,car,van3,car4,192.0,153.0,/static/Size_judgement/Stimuli/Size_stims/XL/van/van6.jpg,/static/Size_judgement/Stimuli/Size_stims/XL/car/car6.jpg,,24.247,0.747,0.0,0.0,car,van,XL,XL,4.0,4.0,car4,van3,
28,,size_choice_confirmation,,html-keyboard-response,28,153009,0.0-1.0-35.0-0.0,0,0,47956,,,,,,8.0,,,,,,,,,,,,,,,,,,,25.0,0.753,,,,,,,,,,,
29,,iti,,html-keyboard-response,29,154012,0.0-1.0-36.0,0,0,47956,,,,,,,,,,,,,,,,,,,,,,,,,26.0,1.0,,,,,,,,,,,
30,,size_choice,,html-keyboard-response,30,154620,0.0-1.0-38.0,0,0,47956,,605.0,,,75.0,9.0,9.0,1.0,1500.0,S-XL,0.0,S,XL,1.0,4.0,teabag,dumptruck,teabag8,dumptruck8,137.0,177.0,/static/Size_judgement/Stimuli/Size_stims/S/teabag/teabag7.jpg,/static/Size_judgement/Stimuli/Size_stims/XL/dumptruck/dumptruck7.jpg,1.0,26.605,0.605,0.0,0.0,dumptruck,teabag,XL,S,4.0,1.0,dumptruck8,teabag8,
31,,size_choice_confirmation,,html-keyboard-response,31,155520,0.0-1.0-39.0-0.0,0,0,47956,,,,,,9.0,,,,,,,,,,,,,,,,,,,27.5,0.895,,,,,,,,,,,
32,,iti,,html-keyboard-response,32,157022,0.0-1.0-40.0,0,0,47956,,,,,,,,,,,,,,,,,,,,,,,,,29.0,1.5,,,,,,,,,,,
33,,size_choice,,html-keyboard-response,33,158179,0.0-1.0-42.0,0,0,47956,,1153.0,,,68.0,10.0,10.0,1.0,1000.0,M-M,,M,M,2.0,2.0,handsaw,ketchup,handsaw4,ketchup9,83.0,98.0,/static/Size_judgement/Stimuli/Size_stims/M/handsaw/handsaw3.jpg,/static/Size_judgement/Stimuli/Size_stims/M/ketchup/ketchup7.jpg,,30.153,1.153,0.0,1.0,handsaw,ketchup,M,M,2.0,2.0,handsaw4,ketchup9,
34,,size_choice_confirmation,,html-keyboard-response,34,158530,0.0-1.0-43.0-0.0,0,0,47956,,,,,,10.0,,,,,,,,,,,,,,,,,,,30.5,0.347,,,,,,,,,,,
35,,iti,,html-keyboard-response,35,159532,0.0-1.0-44.0,0,0,47956,,,,,,,,,,,,,,,,,,,,,,,,,31.5,1.0,,,,,,,,,,,
36,,size_choice,,html-keyboard-response,36,160404,0.0-1.0-46.0,0,0,47956,,869.0,,,75.0,11.0,11.0,1.0,1000.0,M-L,0.0,M,L,2.0,3.0,hairdryer,garbagecan,hairdryer6,garbagecan3,75.0,32.0,/static/Size_judgement/Stimuli/Size_stims/M/hairdryer/hairdryer8.jpg,/static/Size_judgement/Stimuli/Size_stims/L/garbagecan/garbagecan7.jpg,1.0,32.369,0.869,0.0,0.0,garbagecan,hairdryer,L,M,3.0,2.0,garbagecan3,hairdryer6,
37,,size_choice_confirmation,,html-keyboard-response,37,161040,0.0-1.0-47.0-0.0,0,0,47956,,,,,,11.0,,,,,,,,,,,,,,,,,,,33.0,0.631,,,,,,,,,,,
38,,iti,,html-keyboard-response,38,162042,0.0-1.0-48.0,0,0,47956,,,,,,,,,,,,,,,,,,,,,,,,,34.0,1.0,,,,,,,,,,,
39,,size_choice,,html-keyboard-response,39,162826,0.0-1.0-50.0,0,0,47956,,783.0,,,68.0,12.0,12.0,1.0,2000.0,M-L,0.0,M,L,2.0,3.0,coffeemaker,garbagecan,coffeemaker5,garbagecan4,64.0,33.0,/static/Size_judgement/Stimuli/Size_stims/M/coffeemaker/coffeemaker10.jpg,/static/Size_judgement/Stimuli/Size_stims/L/garbagecan/garbagecan6.jpg,0.0,34.783,0.783,0.0,1.0,coffeemaker,garbagecan,M,L,2.0,3.0,coffeemaker5,garbagecan4,
40,,size_choice_confirmation,,html-keyboard-response,40,163546,0.0-1.0-51.0-0.0,0,0,47956,,,,,,12.0,,,,,,,,,,,,,,,,,,,35.5,0.717,,,,,,,,,,,
41,,iti,,html-keyboard-response,41,165549,0.0-1.0-52.0,0,0,47956,,,,,,,,,,,,,,,,,,,,,,,,,37.5,2.0,,,,,,,,,,,
42,,size_choice,,html-keyboard-response,42,166195,0.0-1.0-54.0,0,0,47956,,643.0,,,75.0,13.0,13.0,1.0,1000.0,S-L,0.0,S,L,1.0,3.0,screws,garbagecan,screws10,garbagecan2,129.0,31.0,/static/Size_judgement/Stimuli/Size_stims/S/screws/screws9.jpg,/static/Size_judgement/Stimuli/Size_stims/L/garbagecan/garbagecan5.jpg,1.0,38.143,0.643,0.0,0.0,garbagecan,screws,L,S,3.0,1.0,garbagecan2,screws10,
43,,size_choice_confirmation,,html-keyboard-response,43,167058,0.0-1.0-55.0-0.0,0,0,47956,,,,,,13.0,,,,,,,,,,,,,,,,,,,39.0,0.857,,,,,,,,,,,
44,,iti,,html-keyboard-response,44,168060,0.0-1.0-56.0,0,0,47956,,,,,,,,,,,,,,,,,,,,,,,,,40.0,1.0,,,,,,,,,,,
45,,size_choice,,html-keyboard-response,45,169044,0.0-1.0-58.0,0,0,47956,,980.0,,,68.0,14.0,14.0,1.0,1000.0,M-XL,1.0,XL,M,4.0,2.0,dumptruck,hairdryer,dumptruck5,hairdryer4,174.0,73.0,/static/Size_judgement/Stimuli/Size_stims/XL/dumptruck/dumptruck3.jpg,/static/Size_judgement/Stimuli/Size_stims/M/hairdryer/hairdryer16.jpg,1.0,40.98,0.98,0.0,1.0,dumptruck,hairdryer,XL,M,4.0,2.0,dumptruck5,hairdryer4,
46,,size_choice_confirmation,,html-keyboard-response,46,169568,0.0-1.0-59.0-0.0,0,0,47956,,,,,,14.0,,,,,,,,,,,,,,,,,,,41.5,0.52,,,,,,,,,,,
47,,iti,,html-keyboard-response,47,170570,0.0-1.0-60.0,0,0,47956,,,,,,,,,,,,,,,,,,,,,,,,,42.5,1.0,,,,,,,,,,,
48,,size_choice,,html-keyboard-response,48,171219,0.0-1.0-62.0,0,0,47956,,646.0,,,68.0,15.0,15.0,1.0,1000.0,S-XL,1.0,XL,S,4.0,1.0,van,screws,van5,screws1,194.0,120.0,/static/Size_judgement/Stimuli/Size_stims/XL/van/van3.jpg,/static/Size_judgement/Stimuli/Size_stims/S/screws/screws4.jpg,1.0,43.146,0.646,0.0,1.0,van,screws,XL,S,4.0,1.0,van5,screws1,
49,,size_choice_confirmation,,html-keyboard-response,49,172078,0.0-1.0-63.0-0.0,0,0,47956,,,,,,15.0,,,,,,,,,,,,,,,,,,,44.0,0.854,,,,,,,,,,,
50,,iti,,html-keyboard-response,50,173080,0.0-1.0-64.0,0,0,47956,,,,,,,,,,,,,,,,,,,,,,,,,45.0,1.0,,,,,,,,,,,
51,,size_choice,,html-keyboard-response,51,173875,0.0-1.0-66.0,0,0,47956,,791.0,,,75.0,16.0,16.0,1.0,3000.0,S-M,0.0,S,M,1.0,2.0,teabag,coffeemaker,teabag9,coffeemaker8,138.0,67.0,/static/Size_judgement/Stimuli/Size_stims/S/teabag/teabag5.jpg,/static/Size_judgement/Stimuli/Size_stims/M/coffeemaker/coffeemaker5.jpg,1.0,45.791,0.791,0.0,0.0,coffeemaker,teabag,M,S,2.0,1.0,coffeemaker8,teabag9,
52,,size_choice_confirmation,,html-keyboard-response,52,174587,0.0-1.0-67.0-0.0,0,0,47956,,,,,,16.0,,,,,,,,,,,,,,,,,,,46.5,0.709,,,,,,,,,,,
53,,iti,,html-keyboard-response,53,177589,0.0-1.0-68.0,0,0,47956,,,,,,,,,,,,,,,,,,,,,,,,,49.5,3.0,,,,,,,,,,,
54,,size_choice,,html-keyboard-response,54,178716,0.0-1.0-70.0,0,0,47956,,1122.0,,,68.0,17.0,17.0,1.0,1000.0,M-XL,1.0,XL,M,4.0,2.0,dumptruck,hairdryer,dumptruck10,hairdryer8,179.0,77.0,/static/Size_judgement/Stimuli/Size_stims/XL/dumptruck/dumptruck4.jpg,/static/Size_judgement/Stimuli/Size_stims/M/hairdryer/hairdryer1.jpg,1.0,50.622,1.122,0.0,1.0,dumptruck,hairdryer,XL,M,4.0,2.0,dumptruck10,hairdryer8,
55,,size_choice_confirmation,,html-keyboard-response,55,179098,0.0-1.0-71.0-0.0,0,0,47956,,,,,,17.0,,,,,,,,,,,,,,,,,,,51.0,0.378,,,,,,,,,,,
56,,iti,,html-keyboard-response,56,180101,0.0-1.0-72.0,0,0,47956,,,,,,,,,,,,,,,,,,,,,,,,,52.0,1.0,,,,,,,,,,,
57,,size_choice,,html-keyboard-response,57,180995,0.0-1.0-74.0,0,0,47956,,891.0,,,75.0,18.0,18.0,1.0,1500.0,S-L,0.0,S,L,1.0,3.0,die,mailbox,die10,mailbox10,109.0,49.0,/static/Size_judgement/Stimuli/Size_stims/S/die/die6.jpg,/static/Size_judgement/Stimuli/Size_stims/L/mailbox/mailbox8.jpg,1.0,52.891,0.891,0.0,0.0,mailbox,die,L,S,3.0,1.0,mailbox10,die10,
58,,size_choice_confirmation,,html-keyboard-response,58,181609,0.0-1.0-75.0-0.0,0,0,47956,,,,,,18.0,,,,,,,,,,,,,,,,,,,53.5,0.609,,,,,,,,,,,
59,,iti,,html-keyboard-response,59,183111,0.0-1.0-76.0,0,0,47956,,,,,,,,,,,,,,,,,,,,,,,,,55.0,1.5,,,,,,,,,,,
60,,size_choice,,html-keyboard-response,60,183924,0.0-1.0-78.0,0,0,47956,,810.0,,,68.0,19.0,19.0,1.0,1000.0,S-XL,1.0,XL,S,4.0,1.0,dumptruck,die,dumptruck1,die6,170.0,105.0,/static/Size_judgement/Stimuli/Size_stims/XL/dumptruck/dumptruck9.jpg,/static/Size_judgement/Stimuli/Size_stims/S/die/die1.jpg,1.0,55.81,0.81,0.0,1.0,dumptruck,die,XL,S,4.0,1.0,dumptruck1,die6,
61,,size_choice_confirmation,,html-keyboard-response,61,184618,0.0-1.0-79.0-0.0,0,0,47956,,,,,,19.0,,,,,,,,,,,,,,,,,,,56.5,0.69,,,,,,,,,,,
62,,iti,,html-keyboard-response,62,185621,0.0-1.0-80.0,0,0,47956,,,,,,,,,,,,,,,,,,,,,,,,,57.5,1.0,,,,,,,,,,,
63,,size_choice,,html-keyboard-response,63,186404,0.0-1.0-82.0,0,0,47956,,780.0,,,75.0,20.0,20.0,1.0,1500.0,M-XL,0.0,M,XL,2.0,4.0,basketball,tractor,basketball7,tractor6,56.0,185.0,/static/Size_judgement/Stimuli/Size_stims/M/basketball/basketball6.jpg,/static/Size_judgement/Stimuli/Size_stims/XL/tractor/tractor3.jpg,1.0,58.28,0.78,0.0,0.0,tractor,basketball,XL,M,4.0,2.0,tractor6,basketball7,
64,,size_choice_confirmation,,html-keyboard-response,64,187131,0.0-1.0-83.0-0.0,0,0,47956,,,,,,20.0,,,,,,,,,,,,,,,,,,,59.0,0.72,,,,,,,,,,,
65,,iti,,html-keyboard-response,65,188635,0.0-1.0-84.0,0,0,47956,,,,,,,,,,,,,,,,,,,,,,,,,60.5,1.5,,,,,,,,,,,
66,,size_choice,,html-keyboard-response,66,189499,0.0-1.0-86.0,0,0,47956,,861.0,,,68.0,21.0,21.0,1.0,3000.0,M-M,,M,M,2.0,2.0,handsaw,ketchup,handsaw10,ketchup8,89.0,97.0,/static/Size_judgement/Stimuli/Size_stims/M/handsaw/handsaw10.jpg,/static/Size_judgement/Stimuli/Size_stims/M/ketchup/ketchup5.jpg,,61.361,0.861,0.0,1.0,handsaw,ketchup,M,M,2.0,2.0,handsaw10,ketchup8,
67,,size_choice_confirmation,,html-keyboard-response,67,190142,0.0-1.0-87.0-0.0,0,0,47956,,,,,,21.0,,,,,,,,,,,,,,,,,,,62.0,0.639,,,,,,,,,,,
68,,iti,,html-keyboard-response,68,193145,0.0-1.0-88.0,0,0,47956,,,,,,,,,,,,,,,,,,,,,,,,,65.0,3.0,,,,,,,,,,,
69,,size_choice,,html-keyboard-response,69,194524,0.0-1.0-90.0,0,0,47956,,1376.0,,,68.0,22.0,22.0,1.0,1000.0,S-S,,S,S,1.0,1.0,thread,paperclip,thread7,paperclip1,146.0,110.0,/static/Size_judgement/Stimuli/Size_stims/S/thread/thread3.jpg,/static/Size_judgement/Stimuli/Size_stims/S/paperclip/paperclip9.jpg,,66.376,1.376,0.0,1.0,thread,paperclip,S,S,1.0,1.0,thread7,paperclip1,
70,,size_choice_confirmation,,html-keyboard-response,70,194652,0.0-1.0-91.0-0.0,0,0,47956,,,,,,22.0,,,,,,,,,,,,,,,,,,,66.5,0.124,,,,,,,,,,,
71,,iti,,html-keyboard-response,71,195655,0.0-1.0-92.0,0,0,47956,,,,,,,,,,,,,,,,,,,,,,,,,67.5,1.0,,,,,,,,,,,
72,,size_choice,,html-keyboard-response,72,196234,0.0-1.0-94.0,0,0,47956,,576.0,,,68.0,23.0,23.0,1.0,1500.0,M-XL,1.0,XL,M,4.0,2.0,car,handsaw,car6,handsaw2,155.0,81.0,/static/Size_judgement/Stimuli/Size_stims/XL/car/car12.jpg,/static/Size_judgement/Stimuli/Size_stims/M/handsaw/handsaw9.jpg,1.0,68.076,0.576,0.0,1.0,car,handsaw,XL,M,4.0,2.0,car6,handsaw2,
73,,size_choice_confirmation,,html-keyboard-response,73,197162,0.0-1.0-95.0-0.0,0,0,47956,,,,,,23.0,,,,,,,,,,,,,,,,,,,69.0,0.924,,,,,,,,,,,
74,,iti,,html-keyboard-response,74,198666,0.0-1.0-96.0,0,0,47956,,,,,,,,,,,,,,,,,,,,,,,,,70.5,1.5,,,,,,,,,,,
75,,size_choice,,html-keyboard-response,75,199892,0.0-1.0-98.0,0,0,47956,,1222.0,,,75.0,24.0,24.0,1.0,1500.0,S-L,0.0,S,L,1.0,3.0,die,deskchair,die3,deskchair6,102.0,15.0,/static/Size_judgement/Stimuli/Size_stims/S/die/die10.jpg,/static/Size_judgement/Stimuli/Size_stims/L/deskchair/deskchair5.jpg,1.0,71.722,1.222,0.0,0.0,deskchair,die,L,S,3.0,1.0,deskchair6,die3,
76,,size_choice_confirmation,,html-keyboard-response,76,200174,0.0-1.0-99.0-0.0,0,0,47956,,,,,,24.0,,,,,,,,,,,,,,,,,,,72.0,0.278,,,,,,,,,,,
77,,iti,,html-keyboard-response,77,201678,0.0-1.0-100.0,0,0,47956,,,,,,,,,,,,,,,,,,,,,,,,,73.5,1.5,,,,,,,,,,,
78,,size_choice,,html-keyboard-response,78,202523,0.0-1.0-102.0,0,0,47956,,842.0,,,68.0,25.0,25.0,1.0,1500.0,S-S,,S,S,1.0,1.0,paperclip,die,paperclip9,die1,118.0,100.0,/static/Size_judgement/Stimuli/Size_stims/S/paperclip/paperclip4.jpg,/static/Size_judgement/Stimuli/Size_stims/S/die/die8.jpg,,74.342,0.842,0.0,1.0,paperclip,die,S,S,1.0,1.0,paperclip9,die1,
79,,size_choice_confirmation,,html-keyboard-response,79,203185,0.0-1.0-103.0-0.0,0,0,47956,,,,,,25.0,,,,,,,,,,,,,,,,,,,75.0,0.658,,,,,,,,,,,
80,,iti,,html-keyboard-response,80,204689,0.0-1.0-104.0,0,0,47956,,,,,,,,,,,,,,,,,,,,,,,,,76.5,1.5,,,,,,,,,,,
81,,size_choice,,html-keyboard-response,81,205396,0.0-1.0-106.0,0,0,47956,,704.0,,,75.0,26.0,26.0,1.0,2000.0,M-L,0.0,M,L,2.0,3.0,basketball,deskchair,basketball4,deskchair9,53.0,18.0,/static/Size_judgement/Stimuli/Size_stims/M/basketball/basketball1.jpg,/static/Size_judgement/Stimuli/Size_stims/L/deskchair/deskchair3.jpg,1.0,77.204,0.704,0.0,0.0,deskchair,basketball,L,M,3.0,2.0,deskchair9,basketball4,
82,,size_choice_confirmation,,html-keyboard-response,82,206196,0.0-1.0-107.0-0.0,0,0,47956,,,,,,26.0,,,,,,,,,,,,,,,,,,,78.0,0.796,,,,,,,,,,,
83,,iti,,html-keyboard-response,83,208199,0.0-1.0-108.0,0,0,47956,,,,,,,,,,,,,,,,,,,,,,,,,80.0,2.0,,,,,,,,,,,
84,,size_choice,,html-keyboard-response,84,208908,0.0-1.0-110.0,0,0,47956,,705.0,,,75.0,27.0,27.0,1.0,1500.0,S-XL,0.0,S,XL,1.0,4.0,screws,crane,screws6,crane6,125.0,165.0,/static/Size_judgement/Stimuli/Size_stims/S/screws/screws3.jpg,/static/Size_judgement/Stimuli/Size_stims/XL/crane/crane2.jpg,1.0,80.705,0.705,0.0,0.0,crane,screws,XL,S,4.0,1.0,crane6,screws6,
85,,size_choice_confirmation,,html-keyboard-response,85,209708,0.0-1.0-111.0-0.0,0,0,47956,,,,,,27.0,,,,,,,,,,,,,,,,,,,81.5,0.795,,,,,,,,,,,
86,,iti,,html-keyboard-response,86,211211,0.0-1.0-112.0,0,0,47956,,,,,,,,,,,,,,,,,,,,,,,,,83.0,1.5,,,,,,,,,,,
87,,size_choice,,html-keyboard-response,87,212714,0.0-1.0-114.0,0,0,47956,,,,,,28.0,28.0,1.0,3000.0,M-L,0.0,M,L,2.0,3.0,coffeemaker,dishwasher,coffeemaker1,dishwasher7,60.0,26.0,/static/Size_judgement/Stimuli/Size_stims/M/coffeemaker/coffeemaker14.jpg,/static/Size_judgement/Stimuli/Size_stims/L/dishwasher/dishwasher7.jpg,,84.5,1.5,1.0,,,,,,,,,,
88,,iti,,html-keyboard-response,88,215716,0.0-1.0-116.0,0,0,47956,,,,,,,,,,,,,,,,,,,,,,,,,87.5,3.0,,,,,,,,,,,
89,,size_choice,,html-keyboard-response,89,216316,0.0-1.0-118.0,0,0,47956,,597.0,,,75.0,29.0,29.0,1.0,2000.0,L-XL,0.0,L,XL,3.0,4.0,mailbox,tractor,mailbox6,tractor2,45.0,181.0,/static/Size_judgement/Stimuli/Size_stims/L/mailbox/mailbox6.jpg,/static/Size_judgement/Stimuli/Size_stims/XL/tractor/tractor7.jpg,1.0,88.097,0.597,0.0,0.0,tractor,mailbox,XL,L,4.0,3.0,tractor2,mailbox6,
90,,size_choice_confirmation,,html-keyboard-response,90,217223,0.0-1.0-119.0-0.0,0,0,47956,,,,,,29.0,,,,,,,,,,,,,,,,,,,89.0,0.903,,,,,,,,,,,
91,,iti,,html-keyboard-response,91,219225,0.0-1.0-120.0,0,0,47956,,,,,,,,,,,,,,,,,,,,,,,,,91.0,2.0,,,,,,,,,,,
92,,size_choice,,html-keyboard-response,92,219948,0.0-1.0-122.0,0,0,47956,,718.0,,,75.0,30.0,30.0,1.0,1500.0,S-XL,0.0,S,XL,1.0,4.0,teabag,crane,teabag5,crane7,134.0,166.0,/static/Size_judgement/Stimuli/Size_stims/S/teabag/teabag2.jpg,/static/Size_judgement/Stimuli/Size_stims/XL/crane/crane3.jpg,1.0,91.718,0.718,0.0,0.0,crane,teabag,XL,S,4.0,1.0,crane7,teabag5,
93,,size_choice_confirmation,,html-keyboard-response,93,220733,0.0-1.0-123.0-0.0,0,0,47956,,,,,,30.0,,,,,,,,,,,,,,,,,,,92.5,0.782,,,,,,,,,,,
94,,iti,,html-keyboard-response,94,222236,0.0-1.0-124.0,0,0,47956,,,,,,,,,,,,,,,,,,,,,,,,,94.0,1.5,,,,,,,,,,,
95,,size_choice,,html-keyboard-response,95,223740,0.0-1.0-126.0,0,0,47956,,,,,,31.0,31.0,1.0,3500.0,M-L,0.0,M,L,2.0,3.0,coffeemaker,cooler,coffeemaker4,cooler10,63.0,9.0,/static/Size_judgement/Stimuli/Size_stims/M/coffeemaker/coffeemaker11.jpg,/static/Size_judgement/Stimuli/Size_stims/L/cooler/cooler6.jpg,,95.5,1.5,1.0,,,,,,,,,,
96,,iti,,html-keyboard-response,96,227243,0.0-1.0-128.0,0,0,47956,,,,,,,,,,,,,,,,,,,,,,,,,99.0,3.5,,,,,,,,,,,
97,,size_choice,,html-keyboard-response,97,227852,0.0-1.0-130.0,0,0,47956,,606.0,,,75.0,32.0,32.0,1.0,3000.0,S-XL,0.0,S,XL,1.0,4.0,paperclip,car,paperclip4,car1,113.0,150.0,/static/Size_judgement/Stimuli/Size_stims/S/paperclip/paperclip3.jpg,/static/Size_judgement/Stimuli/Size_stims/XL/car/car2.jpg,1.0,99.606,0.606,0.0,0.0,car,paperclip,XL,S,4.0,1.0,car1,paperclip4,
98,,size_choice_confirmation,,html-keyboard-response,98,228751,0.0-1.0-131.0-0.0,0,0,47956,,,,,,32.0,,,,,,,,,,,,,,,,,,,100.5,0.894,,,,,,,,,,,
99,,iti,,html-keyboard-response,99,231754,0.0-1.0-132.0,0,0,47956,,,,,,,,,,,,,,,,,,,,,,,,,103.5,3.0,,,,,,,,,,,
100,,size_choice,,html-keyboard-response,100,232634,0.0-1.0-134.0,0,0,47956,,877.0,,,75.0,33.0,33.0,1.0,1000.0,M-M,,M,M,2.0,2.0,ketchup,hairdryer,ketchup3,hairdryer2,92.0,71.0,/static/Size_judgement/Stimuli/Size_stims/M/ketchup/ketchup10.jpg,/static/Size_judgement/Stimuli/Size_stims/M/hairdryer/hairdryer12.jpg,,104.377,0.877,0.0,0.0,hairdryer,ketchup,M,M,2.0,2.0,hairdryer2,ketchup3,
101,,size_choice_confirmation,,html-keyboard-response,101,233261,0.0-1.0-135.0-0.0,0,0,47956,,,,,,33.0,,,,,,,,,,,,,,,,,,,105.0,0.623,,,,,,,,,,,
102,,iti,,html-keyboard-response,102,234264,0.0-1.0-136.0,0,0,47956,,,,,,,,,,,,,,,,,,,,,,,,,106.0,1.0,,,,,,,,,,,
103,,size_choice,,html-keyboard-response,103,235771,0.0-1.0-138.0,0,0,47956,,,,,,34.0,34.0,1.0,2000.0,S-S,,S,S,1.0,1.0,teabag,screws,teabag4,screws4,133.0,123.0,/static/Size_judgement/Stimuli/Size_stims/S/teabag/teabag3.jpg,/static/Size_judgement/Stimuli/Size_stims/S/screws/screws6.jpg,,107.5,1.5,1.0,,,,,,,,,,
104,,iti,,html-keyboard-response,104,237775,0.0-1.0-140.0,0,0,47956,,,,,,,,,,,,,,,,,,,,,,,,,109.5,2.0,,,,,,,,,,,
105,,size_choice,,html-keyboard-response,105,238748,0.0-1.0-142.0,0,0,47956,,970.0,,,75.0,35.0,35.0,1.0,1000.0,M-L,0.0,M,L,2.0,3.0,basketball,dishwasher,basketball6,dishwasher1,55.0,20.0,/static/Size_judgement/Stimuli/Size_stims/M/basketball/basketball2.jpg,/static/Size_judgement/Stimuli/Size_stims/L/dishwasher/dishwasher10.jpg,1.0,110.47,0.97,0.0,0.0,dishwasher,basketball,L,M,3.0,2.0,dishwasher1,basketball6,
106,,size_choice_confirmation,,html-keyboard-response,106,239284,0.0-1.0-143.0-0.0,0,0,47956,,,,,,35.0,,,,,,,,,,,,,,,,,,,111.0,0.53,,,,,,,,,,,
107,,iti,,html-keyboard-response,107,240288,0.0-1.0-144.0,0,0,47956,,,,,,,,,,,,,,,,,,,,,,,,,112.0,1.0,,,,,,,,,,,
108,,size_choice,,html-keyboard-response,108,241187,0.0-1.0-146.0,0,0,47956,,896.0,,,68.0,36.0,36.0,1.0,1500.0,M-XL,1.0,XL,M,4.0,2.0,tractor,ketchup,tractor10,ketchup6,189.0,95.0,/static/Size_judgement/Stimuli/Size_stims/XL/tractor/tractor8.jpg,/static/Size_judgement/Stimuli/Size_stims/M/ketchup/ketchup1.jpg,1.0,112.896,0.896,0.0,1.0,tractor,ketchup,XL,M,4.0,2.0,tractor10,ketchup6,
109,,size_choice_confirmation,,html-keyboard-response,109,241797,0.0-1.0-147.0-0.0,0,0,47956,,,,,,36.0,,,,,,,,,,,,,,,,,,,113.5,0.604,,,,,,,,,,,
110,,iti,,html-keyboard-response,110,243299,0.0-1.0-148.0,0,0,47956,,,,,,,,,,,,,,,,,,,,,,,,,115.0,1.5,,,,,,,,,,,
111,,size_choice,,html-keyboard-response,111,244299,0.0-1.0-150.0,0,0,47956,,997.0,,,75.0,37.0,37.0,1.0,3500.0,XL-XL,,XL,XL,4.0,4.0,crane,car,crane10,car8,169.0,157.0,/static/Size_judgement/Stimuli/Size_stims/XL/crane/crane9.jpg,/static/Size_judgement/Stimuli/Size_stims/XL/car/car14.jpg,,115.997,0.997,0.0,0.0,car,crane,XL,XL,4.0,4.0,car8,crane10,
112,,size_choice_confirmation,,html-keyboard-response,112,244806,0.0-1.0-151.0-0.0,0,0,47956,,,,,,37.0,,,,,,,,,,,,,,,,,,,116.5,0.503,,,,,,,,,,,
113,,iti,,html-keyboard-response,113,248309,0.0-1.0-152.0,0,0,47956,,,,,,,,,,,,,,,,,,,,,,,,,120.0,3.5,,,,,,,,,,,
114,,size_choice,,html-keyboard-response,114,249812,0.0-1.0-154.0,0,0,47956,,,,,,38.0,38.0,1.0,1500.0,L-L,,L,L,3.0,3.0,dishwasher,garbagecan,dishwasher5,garbagecan5,24.0,34.0,/static/Size_judgement/Stimuli/Size_stims/L/dishwasher/dishwasher4.jpg,/static/Size_judgement/Stimuli/Size_stims/L/garbagecan/garbagecan3.jpg,,121.5,1.5,1.0,,,,,,,,,,
115,,iti,,html-keyboard-response,115,251315,0.0-1.0-156.0,0,0,47956,,,,,,,,,,,,,,,,,,,,,,,,,123.0,1.5,,,,,,,,,,,
116,,size_choice,,html-keyboard-response,116,252604,0.0-1.0-158.0,0,0,47956,,1286.0,,,68.0,39.0,39.0,1.0,2000.0,L-L,,L,L,3.0,3.0,dishwasher,cooler,dishwasher10,cooler6,29.0,5.0,/static/Size_judgement/Stimuli/Size_stims/L/dishwasher/dishwasher1.jpg,/static/Size_judgement/Stimuli/Size_stims/L/cooler/cooler1.jpg,,124.286,1.286,0.0,1.0,dishwasher,cooler,L,L,3.0,3.0,dishwasher10,cooler6,
117,,size_choice_confirmation,,html-keyboard-response,117,252822,0.0-1.0-159.0-0.0,0,0,47956,,,,,,39.0,,,,,,,,,,,,,,,,,,,124.5,0.214,,,,,,,,,,,
118,,iti,,html-keyboard-response,118,254825,0.0-1.0-160.0,0,0,47956,,,,,,,,,,,,,,,,,,,,,,,,,126.5,2.0,,,,,,,,,,,
119,,size_choice,,html-keyboard-response,119,255834,0.0-1.0-162.0,0,0,47956,,1002.0,,,75.0,40.0,40.0,1.0,1500.0,S-M,0.0,S,M,1.0,2.0,screws,handsaw,screws3,handsaw3,122.0,82.0,/static/Size_judgement/Stimuli/Size_stims/S/screws/screws7.jpg,/static/Size_judgement/Stimuli/Size_stims/M/handsaw/handsaw2.jpg,1.0,127.502,1.002,0.0,0.0,handsaw,screws,M,S,2.0,1.0,handsaw3,screws3,
120,,size_choice_confirmation,,html-keyboard-response,120,256335,0.0-1.0-163.0-0.0,0,0,47956,,,,,,40.0,,,,,,,,,,,,,,,,,,,128.0,0.498,,,,,,,,,,,
121,,iti,,html-keyboard-response,121,257838,0.0-1.0-164.0,0,0,47956,,,,,,,,,,,,,,,,,,,,,,,,,129.5,1.5,,,,,,,,,,,
122,,size_choice,,html-keyboard-response,122,258548,0.0-1.0-166.0,0,0,47956,,705.0,,,68.0,41.0,41.0,1.0,3500.0,S-L,1.0,L,S,3.0,1.0,deskchair,thread,deskchair5,thread6,14.0,145.0,/static/Size_judgement/Stimuli/Size_stims/L/deskchair/deskchair7.jpg,/static/Size_judgement/Stimuli/Size_stims/S/thread/thread2.jpg,1.0,130.205,0.705,0.0,1.0,deskchair,thread,L,S,3.0,1.0,deskchair5,thread6,
123,,size_choice_confirmation,,html-keyboard-response,123,259347,0.0-1.0-167.0-0.0,0,0,47956,,,,,,41.0,,,,,,,,,,,,,,,,,,,131.0,0.795,,,,,,,,,,,
124,,iti,,html-keyboard-response,124,262850,0.0-1.0-168.0,0,0,47956,,,,,,,,,,,,,,,,,,,,,,,,,134.5,3.5,,,,,,,,,,,
125,,size_choice,,html-keyboard-response,125,263988,0.0-1.0-170.0,0,0,47956,,1134.0,,,75.0,42.0,42.0,1.0,1000.0,S-M,0.0,S,M,1.0,2.0,paperclip,basketball,paperclip7,basketball8,116.0,57.0,/static/Size_judgement/Stimuli/Size_stims/S/paperclip/paperclip7.jpg,/static/Size_judgement/Stimuli/Size_stims/M/basketball/basketball7.jpg,1.0,135.634,1.134,0.0,0.0,basketball,paperclip,M,S,2.0,1.0,basketball8,paperclip7,
126,,size_choice_confirmation,,html-keyboard-response,126,264357,0.0-1.0-171.0-0.0,0,0,47956,,,,,,42.0,,,,,,,,,,,,,,,,,,,136.0,0.366,,,,,,,,,,,
127,,iti,,html-keyboard-response,127,265362,0.0-1.0-172.0,0,0,47956,,,,,,,,,,,,,,,,,,,,,,,,,137.0,1.0,,,,,,,,,,,
128,,size_choice,,html-keyboard-response,128,266147,0.0-1.0-174.0,0,0,47956,,782.0,,,68.0,43.0,43.0,1.0,1000.0,S-L,1.0,L,S,3.0,1.0,deskchair,paperclip,deskchair1,paperclip5,10.0,114.0,/static/Size_judgement/Stimuli/Size_stims/L/deskchair/deskchair9.jpg,/static/Size_judgement/Stimuli/Size_stims/S/paperclip/paperclip2.jpg,1.0,137.782,0.782,0.0,1.0,deskchair,paperclip,L,S,3.0,1.0,deskchair1,paperclip5,
129,,size_choice_confirmation,,html-keyboard-response,129,266869,0.0-1.0-175.0-0.0,0,0,47956,,,,,,43.0,,,,,,,,,,,,,,,,,,,138.5,0.718,,,,,,,,,,,
130,,iti,,html-keyboard-response,130,267871,0.0-1.0-176.0,0,0,47956,,,,,,,,,,,,,,,,,,,,,,,,,139.5,1.0,,,,,,,,,,,
131,,size_choice,,html-keyboard-response,131,268667,0.0-1.0-178.0,0,0,47956,,792.0,,,75.0,44.0,44.0,1.0,1000.0,L-XL,0.0,L,XL,3.0,4.0,dishwasher,van,dishwasher2,van9,21.0,198.0,/static/Size_judgement/Stimuli/Size_stims/L/dishwasher/dishwasher9.jpg,/static/Size_judgement/Stimuli/Size_stims/XL/van/van9.jpg,1.0,140.292,0.792,0.0,0.0,van,dishwasher,XL,L,4.0,3.0,van9,dishwasher2,
132,,size_choice_confirmation,,html-keyboard-response,132,269379,0.0-1.0-179.0-0.0,0,0,47956,,,,,,44.0,,,,,,,,,,,,,,,,,,,141.0,0.708,,,,,,,,,,,
133,,iti,,html-keyboard-response,133,270382,0.0-1.0-180.0,0,0,47956,,,,,,,,,,,,,,,,,,,,,,,,,142.0,1.0,,,,,,,,,,,
134,,block_over,,html-keyboard-response,134,283948,0.0-1.0-181.0-0.0,0,0,47956,,13563.0,,,68.0,44.0,,,,,,,,,,,,,,,,,,,,,,,,,,,,,,,
135,,size_choice,,html-keyboard-response,135,284883,0.0-1.0-182.0,0,0,47956,,931.0,,,75.0,45.0,45.0,2.0,2000.0,S-L,0.0,S,L,1.0,3.0,die,mailbox,die5,mailbox2,104.0,41.0,/static/Size_judgement/Stimuli/Size_stims/S/die/die3.jpg,/static/Size_judgement/Stimuli/Size_stims/L/mailbox/mailbox2.jpg,1.0,142.931,0.931,0.0,0.0,mailbox,die,L,S,3.0,1.0,mailbox2,die5,
136,,size_choice_confirmation,,html-keyboard-response,136,285456,0.0-1.0-183.0-0.0,0,0,47956,,,,,,45.0,,,,,,,,,,,,,,,,,,,143.5,0.569,,,,,,,,,,,
137,,iti,,html-keyboard-response,137,287458,0.0-1.0-184.0,0,0,47956,,,,,,,,,,,,,,,,,,,,,,,,,145.5,2.0,,,,,,,,,,,
138,,size_choice,,html-keyboard-response,138,288307,0.0-1.0-186.0,0,0,47956,,845.0,,,68.0,46.0,46.0,2.0,1000.0,S-L,1.0,L,S,3.0,1.0,deskchair,thread,deskchair3,thread10,12.0,149.0,/static/Size_judgement/Stimuli/Size_stims/L/deskchair/deskchair10.jpg,/static/Size_judgement/Stimuli/Size_stims/S/thread/thread9.jpg,1.0,146.345,0.845,0.0,1.0,deskchair,thread,L,S,3.0,1.0,deskchair3,thread10,
139,,size_choice_confirmation,,html-keyboard-response,139,288966,0.0-1.0-187.0-0.0,0,0,47956,,,,,,46.0,,,,,,,,,,,,,,,,,,,147.0,0.655,,,,,,,,,,,
140,,iti,,html-keyboard-response,140,289969,0.0-1.0-188.0,0,0,47956,,,,,,,,,,,,,,,,,,,,,,,,,148.0,1.0,,,,,,,,,,,
141,,size_choice,,html-keyboard-response,141,291090,0.0-1.0-190.0,0,0,47956,,1118.0,,,75.0,47.0,47.0,2.0,3500.0,M-L,1.0,L,M,3.0,2.0,garbagecan,handsaw,garbagecan1,handsaw9,30.0,88.0,/static/Size_judgement/Stimuli/Size_stims/L/garbagecan/garbagecan4.jpg,/static/Size_judgement/Stimuli/Size_stims/M/handsaw/handsaw6.jpg,0.0,149.118,1.118,0.0,0.0,handsaw,garbagecan,M,L,2.0,3.0,handsaw9,garbagecan1,
142,,size_choice_confirmation,,html-keyboard-response,142,291475,0.0-1.0-191.0-0.0,0,0,47956,,,,,,47.0,,,,,,,,,,,,,,,,,,,149.5,0.382,,,,,,,,,,,
143,,iti,,html-keyboard-response,143,294978,0.0-1.0-192.0,0,0,47956,,,,,,,,,,,,,,,,,,,,,,,,,153.0,3.5,,,,,,,,,,,
144,,size_choice,,html-keyboard-response,144,296234,0.0-1.0-194.0,0,0,47956,,1253.0,,,68.0,48.0,48.0,2.0,1000.0,M-M,,M,M,2.0,2.0,coffeemaker,hairdryer,coffeemaker7,hairdryer5,66.0,74.0,/static/Size_judgement/Stimuli/Size_stims/M/coffeemaker/coffeemaker9.jpg,/static/Size_judgement/Stimuli/Size_stims/M/hairdryer/hairdryer15.jpg,,154.253,1.253,0.0,1.0,coffeemaker,hairdryer,M,M,2.0,2.0,coffeemaker7,hairdryer5,
145,,size_choice_confirmation,,html-keyboard-response,145,296484,0.0-1.0-195.0-0.0,0,0,47956,,,,,,48.0,,,,,,,,,,,,,,,,,,,154.5,0.247,,,,,,,,,,,
146,,iti,,html-keyboard-response,146,297487,0.0-1.0-196.0,0,0,47956,,,,,,,,,,,,,,,,,,,,,,,,,155.5,1.0,,,,,,,,,,,
147,,size_choice,,html-keyboard-response,147,298571,0.0-1.0-198.0,0,0,47956,,1081.0,,,68.0,49.0,49.0,2.0,2000.0,S-XL,1.0,XL,S,4.0,1.0,crane,thread,crane3,thread4,162.0,143.0,/static/Size_judgement/Stimuli/Size_stims/XL/crane/crane4.jpg,/static/Size_judgement/Stimuli/Size_stims/S/thread/thread5.jpg,1.0,156.581,1.081,0.0,1.0,crane,thread,XL,S,4.0,1.0,crane3,thread4,
148,,size_choice_confirmation,,html-keyboard-response,148,298994,0.0-1.0-199.0-0.0,0,0,47956,,,,,,49.0,,,,,,,,,,,,,,,,,,,157.0,0.419,,,,,,,,,,,
149,,iti,,html-keyboard-response,149,300997,0.0-1.0-200.0,0,0,47956,,,,,,,,,,,,,,,,,,,,,,,,,159.0,2.0,,,,,,,,,,,
150,,size_choice,,html-keyboard-response,150,301627,0.0-1.0-202.0,0,0,47956,,627.0,,,68.0,50.0,50.0,2.0,1000.0,S-XL,1.0,XL,S,4.0,1.0,tractor,die,tractor7,die9,186.0,108.0,/static/Size_judgement/Stimuli/Size_stims/XL/tractor/tractor2.jpg,/static/Size_judgement/Stimuli/Size_stims/S/die/die7.jpg,1.0,159.627,0.627,0.0,1.0,tractor,die,XL,S,4.0,1.0,tractor7,die9,
151,,size_choice_confirmation,,html-keyboard-response,151,302504,0.0-1.0-203.0-0.0,0,0,47956,,,,,,50.0,,,,,,,,,,,,,,,,,,,160.5,0.873,,,,,,,,,,,
152,,iti,,html-keyboard-response,152,303507,0.0-1.0-204.0,0,0,47956,,,,,,,,,,,,,,,,,,,,,,,,,161.5,1.0,,,,,,,,,,,
153,,size_choice,,html-keyboard-response,153,305010,0.0-1.0-206.0,0,0,47956,,,,,,51.0,51.0,2.0,2000.0,S-L,1.0,L,S,3.0,1.0,cooler,thread,cooler1,thread2,0.0,141.0,/static/Size_judgement/Stimuli/Size_stims/L/cooler/cooler8.jpg,/static/Size_judgement/Stimuli/Size_stims/S/thread/thread6.jpg,,163.0,1.5,1.0,,,,,,,,,,
154,,iti,,html-keyboard-response,154,307012,0.0-1.0-208.0,0,0,47956,,,,,,,,,,,,,,,,,,,,,,,,,165.0,2.0,,,,,,,,,,,
155,,size_choice,,html-keyboard-response,155,307738,0.0-1.0-210.0,0,0,47956,,723.0,,,75.0,52.0,52.0,2.0,1000.0,M-L,0.0,M,L,2.0,3.0,handsaw,mailbox,handsaw8,mailbox4,87.0,43.0,/static/Size_judgement/Stimuli/Size_stims/M/handsaw/handsaw7.jpg,/static/Size_judgement/Stimuli/Size_stims/L/mailbox/mailbox5.jpg,1.0,165.723,0.723,0.0,0.0,mailbox,handsaw,L,M,3.0,2.0,mailbox4,handsaw8,
156,,size_choice_confirmation,,html-keyboard-response,156,308518,0.0-1.0-211.0-0.0,0,0,47956,,,,,,52.0,,,,,,,,,,,,,,,,,,,166.5,0.777,,,,,,,,,,,
157,,iti,,html-keyboard-response,157,309521,0.0-1.0-212.0,0,0,47956,,,,,,,,,,,,,,,,,,,,,,,,,167.5,1.0,,,,,,,,,,,
158,,size_choice,,html-keyboard-response,158,310139,0.0-1.0-214.0,0,0,47956,,616.0,,,68.0,53.0,53.0,2.0,1000.0,S-XL,1.0,XL,S,4.0,1.0,crane,thread,crane9,thread5,168.0,144.0,/static/Size_judgement/Stimuli/Size_stims/XL/crane/crane8.jpg,/static/Size_judgement/Stimuli/Size_stims/S/thread/thread1.jpg,1.0,168.116,0.616,0.0,1.0,crane,thread,XL,S,4.0,1.0,crane9,thread5,
159,,size_choice_confirmation,,html-keyboard-response,159,311028,0.0-1.0-215.0-0.0,0,0,47956,,,,,,53.0,,,,,,,,,,,,,,,,,,,169.0,0.884,,,,,,,,,,,
160,,iti,,html-keyboard-response,160,312030,0.0-1.0-216.0,0,0,47956,,,,,,,,,,,,,,,,,,,,,,,,,170.0,1.0,,,,,,,,,,,
161,,size_choice,,html-keyboard-response,161,312707,0.0-1.0-218.0,0,0,47956,,674.0,,,68.0,54.0,54.0,2.0,2000.0,XL-XL,,XL,XL,4.0,4.0,tractor,van,tractor1,van10,180.0,199.0,/static/Size_judgement/Stimuli/Size_stims/XL/tractor/tractor6.jpg,/static/Size_judgement/Stimuli/Size_stims/XL/van/van8.jpg,,170.674,0.674,0.0,1.0,tractor,van,XL,XL,4.0,4.0,tractor1,van10,
162,,size_choice_confirmation,,html-keyboard-response,162,313538,0.0-1.0-219.0-0.0,0,0,47956,,,,,,54.0,,,,,,,,,,,,,,,,,,,171.5,0.826,,,,,,,,,,,
163,,iti,,html-keyboard-response,163,315540,0.0-1.0-220.0,0,0,47956,,,,,,,,,,,,,,,,,,,,,,,,,173.5,2.0,,,,,,,,,,,
164,,size_choice,,html-keyboard-response,164,316644,0.0-1.0-222.0,0,0,47956,,1099.0,,,75.0,55.0,55.0,2.0,1500.0,S-S,,S,S,1.0,1.0,paperclip,teabag,paperclip8,teabag2,117.0,131.0,/static/Size_judgement/Stimuli/Size_stims/S/paperclip/paperclip5.jpg,/static/Size_judgement/Stimuli/Size_stims/S/teabag/teabag8.jpg,,174.599,1.099,0.0,0.0,teabag,paperclip,S,S,1.0,1.0,teabag2,paperclip8,
165,,size_choice_confirmation,,html-keyboard-response,165,317049,0.0-1.0-223.0-0.0,0,0,47956,,,,,,55.0,,,,,,,,,,,,,,,,,,,175.0,0.401,,,,,,,,,,,
166,,iti,,html-keyboard-response,166,318553,0.0-1.0-224.0,0,0,47956,,,,,,,,,,,,,,,,,,,,,,,,,176.5,1.5,,,,,,,,,,,
167,,size_choice,,html-keyboard-response,167,319236,0.0-1.0-226.0,0,0,47956,,680.0,,,68.0,56.0,56.0,2.0,1500.0,S-XL,1.0,XL,S,4.0,1.0,crane,screws,crane8,screws2,167.0,121.0,/static/Size_judgement/Stimuli/Size_stims/XL/crane/crane10.jpg,/static/Size_judgement/Stimuli/Size_stims/S/screws/screws5.jpg,1.0,177.18,0.68,0.0,1.0,crane,screws,XL,S,4.0,1.0,crane8,screws2,
168,,size_choice_confirmation,,html-keyboard-response,168,320060,0.0-1.0-227.0-0.0,0,0,47956,,,,,,56.0,,,,,,,,,,,,,,,,,,,178.0,0.82,,,,,,,,,,,
169,,iti,,html-keyboard-response,169,321562,0.0-1.0-228.0,0,0,47956,,,,,,,,,,,,,,,,,,,,,,,,,179.5,1.5,,,,,,,,,,,
170,,size_choice,,html-keyboard-response,170,322442,0.0-1.0-230.0,0,0,47956,,877.0,,,75.0,57.0,57.0,2.0,1000.0,L-L,,L,L,3.0,3.0,dishwasher,cooler,dishwasher4,cooler3,23.0,2.0,/static/Size_judgement/Stimuli/Size_stims/L/dishwasher/dishwasher5.jpg,/static/Size_judgement/Stimuli/Size_stims/L/cooler/cooler2.jpg,,180.377,0.877,0.0,0.0,cooler,dishwasher,L,L,3.0,3.0,cooler3,dishwasher4,
171,,size_choice_confirmation,,html-keyboard-response,171,323068,0.0-1.0-231.0-0.0,0,0,47956,,,,,,57.0,,,,,,,,,,,,,,,,,,,181.0,0.623,,,,,,,,,,,
172,,iti,,html-keyboard-response,172,324070,0.0-1.0-232.0,0,0,47956,,,,,,,,,,,,,,,,,,,,,,,,,182.0,1.0,,,,,,,,,,,
173,,size_choice,,html-keyboard-response,173,325043,0.0-1.0-234.0,0,0,47956,,969.0,,,75.0,58.0,58.0,2.0,3000.0,M-XL,0.0,M,XL,2.0,4.0,coffeemaker,van,coffeemaker9,van4,68.0,193.0,/static/Size_judgement/Stimuli/Size_stims/M/coffeemaker/coffeemaker7.jpg,/static/Size_judgement/Stimuli/Size_stims/XL/van/van7.jpg,1.0,182.969,0.969,0.0,0.0,van,coffeemaker,XL,M,4.0,2.0,van4,coffeemaker9,
174,,size_choice_confirmation,,html-keyboard-response,174,325579,0.0-1.0-235.0-0.0,0,0,47956,,,,,,58.0,,,,,,,,,,,,,,,,,,,183.5,0.531,,,,,,,,,,,
175,,iti,,html-keyboard-response,175,328582,0.0-1.0-236.0,0,0,47956,,,,,,,,,,,,,,,,,,,,,,,,,186.5,3.0,,,,,,,,,,,
176,,size_choice,,html-keyboard-response,176,329724,0.0-1.0-238.0,0,0,47956,,1138.0,,,68.0,59.0,59.0,2.0,2000.0,M-L,0.0,M,L,2.0,3.0,coffeemaker,cooler,coffeemaker3,cooler7,62.0,6.0,/static/Size_judgement/Stimuli/Size_stims/M/coffeemaker/coffeemaker13.jpg,/static/Size_judgement/Stimuli/Size_stims/L/cooler/cooler4.jpg,0.0,187.638,1.138,0.0,1.0,coffeemaker,cooler,M,L,2.0,3.0,coffeemaker3,cooler7,
177,,size_choice_confirmation,,html-keyboard-response,177,330091,0.0-1.0-239.0-0.0,0,0,47956,,,,,,59.0,,,,,,,,,,,,,,,,,,,188.0,0.362,,,,,,,,,,,
178,,iti,,html-keyboard-response,178,332094,0.0-1.0-240.0,0,0,47956,,,,,,,,,,,,,,,,,,,,,,,,,190.0,2.0,,,,,,,,,,,
179,,size_choice,,html-keyboard-response,179,332915,0.0-1.0-242.0,0,0,47956,,817.0,,,68.0,60.0,60.0,2.0,2000.0,S-L,1.0,L,S,3.0,1.0,cooler,screws,cooler4,screws5,3.0,124.0,/static/Size_judgement/Stimuli/Size_stims/L/cooler/cooler3.jpg,/static/Size_judgement/Stimuli/Size_stims/S/screws/screws2.jpg,1.0,190.817,0.817,0.0,1.0,cooler,screws,L,S,3.0,1.0,cooler4,screws5,
180,,size_choice_confirmation,,html-keyboard-response,180,333602,0.0-1.0-243.0-0.0,0,0,47956,,,,,,60.0,,,,,,,,,,,,,,,,,,,191.5,0.683,,,,,,,,,,,
181,,iti,,html-keyboard-response,181,335604,0.0-1.0-244.0,0,0,47956,,,,,,,,,,,,,,,,,,,,,,,,,193.5,2.0,,,,,,,,,,,
182,,size_choice,,html-keyboard-response,182,336324,0.0-1.0-246.0,0,0,47956,,715.0,,,75.0,61.0,61.0,2.0,1500.0,M-XL,0.0,M,XL,2.0,4.0,handsaw,car,handsaw7,car3,86.0,152.0,/static/Size_judgement/Stimuli/Size_stims/M/handsaw/handsaw5.jpg,/static/Size_judgement/Stimuli/Size_stims/XL/car/car4.jpg,1.0,194.215,0.715,0.0,0.0,car,handsaw,XL,M,4.0,2.0,car3,handsaw7,
183,,size_choice_confirmation,,html-keyboard-response,183,337113,0.0-1.0-247.0-0.0,0,0,47956,,,,,,61.0,,,,,,,,,,,,,,,,,,,195.0,0.785,,,,,,,,,,,
184,,iti,,html-keyboard-response,184,338615,0.0-1.0-248.0,0,0,47956,,,,,,,,,,,,,,,,,,,,,,,,,196.5,1.5,,,,,,,,,,,
185,,size_choice,,html-keyboard-response,185,339251,0.0-1.0-250.0,0,0,47956,,634.0,,,75.0,62.0,62.0,2.0,1000.0,M-XL,0.0,M,XL,2.0,4.0,handsaw,tractor,handsaw1,tractor4,80.0,183.0,/static/Size_judgement/Stimuli/Size_stims/M/handsaw/handsaw8.jpg,/static/Size_judgement/Stimuli/Size_stims/XL/tractor/tractor4.jpg,1.0,197.134,0.634,0.0,0.0,tractor,handsaw,XL,M,4.0,2.0,tractor4,handsaw1,
186,,size_choice_confirmation,,html-keyboard-response,186,340122,0.0-1.0-251.0-0.0,0,0,47956,,,,,,62.0,,,,,,,,,,,,,,,,,,,198.0,0.866,,,,,,,,,,,
187,,iti,,html-keyboard-response,187,341124,0.0-1.0-252.0,0,0,47956,,,,,,,,,,,,,,,,,,,,,,,,,199.0,1.0,,,,,,,,,,,
188,,size_choice,,html-keyboard-response,188,341971,0.0-1.0-254.0,0,0,47956,,844.0,,,68.0,63.0,63.0,2.0,1500.0,S-L,1.0,L,S,3.0,1.0,dishwasher,teabag,dishwasher9,teabag7,28.0,136.0,/static/Size_judgement/Stimuli/Size_stims/L/dishwasher/dishwasher2.jpg,/static/Size_judgement/Stimuli/Size_stims/S/teabag/teabag10.jpg,1.0,199.844,0.844,0.0,1.0,dishwasher,teabag,L,S,3.0,1.0,dishwasher9,teabag7,
189,,size_choice_confirmation,,html-keyboard-response,189,342632,0.0-1.0-255.0-0.0,0,0,47956,,,,,,63.0,,,,,,,,,,,,,,,,,,,200.5,0.656,,,,,,,,,,,
190,,iti,,html-keyboard-response,190,344134,0.0-1.0-256.0,0,0,47956,,,,,,,,,,,,,,,,,,,,,,,,,202.0,1.5,,,,,,,,,,,
191,,size_choice,,html-keyboard-response,191,345027,0.0-1.0-258.0,0,0,47956,,891.0,,,68.0,64.0,64.0,2.0,3500.0,M-XL,1.0,XL,M,4.0,2.0,crane,coffeemaker,crane5,coffeemaker2,164.0,61.0,/static/Size_judgement/Stimuli/Size_stims/XL/crane/crane1.jpg,/static/Size_judgement/Stimuli/Size_stims/M/coffeemaker/coffeemaker12.jpg,1.0,202.891,0.891,0.0,1.0,crane,coffeemaker,XL,M,4.0,2.0,crane5,coffeemaker2,
192,,size_choice_confirmation,,html-keyboard-response,192,345641,0.0-1.0-259.0-0.0,0,0,47956,,,,,,64.0,,,,,,,,,,,,,,,,,,,203.5,0.609,,,,,,,,,,,
193,,iti,,html-keyboard-response,193,349143,0.0-1.0-260.0,0,0,47956,,,,,,,,,,,,,,,,,,,,,,,,,207.0,3.5,,,,,,,,,,,
194,,size_choice,,html-keyboard-response,194,350219,0.0-1.0-262.0,0,0,47956,,1073.0,,,75.0,65.0,65.0,2.0,1500.0,XL-XL,,XL,XL,4.0,4.0,tractor,van,tractor9,van6,188.0,195.0,/static/Size_judgement/Stimuli/Size_stims/XL/tractor/tractor9.jpg,/static/Size_judgement/Stimuli/Size_stims/XL/van/van2.jpg,,208.073,1.073,0.0,0.0,van,tractor,XL,XL,4.0,4.0,van6,tractor9,
195,,size_choice_confirmation,,html-keyboard-response,195,350650,0.0-1.0-263.0-0.0,0,0,47956,,,,,,65.0,,,,,,,,,,,,,,,,,,,208.5,0.427,,,,,,,,,,,
196,,iti,,html-keyboard-response,196,352154,0.0-1.0-264.0,0,0,47956,,,,,,,,,,,,,,,,,,,,,,,,,210.0,1.5,,,,,,,,,,,
197,,size_choice,,html-keyboard-response,197,353044,0.0-1.0-266.0,0,0,47956,,887.0,,,75.0,66.0,66.0,2.0,2000.0,S-M,0.0,S,M,1.0,2.0,teabag,hairdryer,teabag6,hairdryer1,135.0,70.0,/static/Size_judgement/Stimuli/Size_stims/S/teabag/teabag6.jpg,/static/Size_judgement/Stimuli/Size_stims/M/hairdryer/hairdryer11.jpg,1.0,210.887,0.887,0.0,0.0,hairdryer,teabag,M,S,2.0,1.0,hairdryer1,teabag6,
198,,size_choice_confirmation,,html-keyboard-response,198,353661,0.0-1.0-267.0-0.0,0,0,47956,,,,,,66.0,,,,,,,,,,,,,,,,,,,211.5,0.613,,,,,,,,,,,
199,,iti,,html-keyboard-response,199,355663,0.0-1.0-268.0,0,0,47956,,,,,,,,,,,,,,,,,,,,,,,,,213.5,2.0,,,,,,,,,,,
200,,size_choice,,html-keyboard-response,200,357166,0.0-1.0-270.0,0,0,47956,,,,,,67.0,67.0,2.0,1500.0,S-L,1.0,L,S,3.0,1.0,garbagecan,die,garbagecan8,die7,37.0,106.0,/static/Size_judgement/Stimuli/Size_stims/L/garbagecan/garbagecan13.jpg,/static/Size_judgement/Stimuli/Size_stims/S/die/die4.jpg,,215.0,1.5,1.0,,,,,,,,,,
201,,iti,,html-keyboard-response,201,358670,0.0-1.0-272.0,0,0,47956,,,,,,,,,,,,,,,,,,,,,,,,,216.5,1.5,,,,,,,,,,,
202,,size_choice,,html-keyboard-response,202,359875,0.0-1.0-274.0,0,0,47956,,1202.0,,,75.0,68.0,68.0,2.0,1500.0,S-M,0.0,S,M,1.0,2.0,thread,basketball,thread1,basketball2,140.0,51.0,/static/Size_judgement/Stimuli/Size_stims/S/thread/thread7.jpg,/static/Size_judgement/Stimuli/Size_stims/M/basketball/basketball8.jpg,1.0,217.702,1.202,0.0,0.0,basketball,thread,M,S,2.0,1.0,basketball2,thread1,
203,,size_choice_confirmation,,html-keyboard-response,203,360177,0.0-1.0-275.0-0.0,0,0,47956,,,,,,68.0,,,,,,,,,,,,,,,,,,,218.0,0.298,,,,,,,,,,,
204,,iti,,html-keyboard-response,204,361679,0.0-1.0-276.0,0,0,47956,,,,,,,,,,,,,,,,,,,,,,,,,219.5,1.5,,,,,,,,,,,
205,,size_choice,,html-keyboard-response,205,362787,0.0-1.0-278.0,0,0,47956,,1104.0,,,75.0,69.0,69.0,2.0,1000.0,S-L,0.0,S,L,1.0,3.0,die,dishwasher,die8,dishwasher3,107.0,22.0,/static/Size_judgement/Stimuli/Size_stims/S/die/die5.jpg,/static/Size_judgement/Stimuli/Size_stims/L/dishwasher/dishwasher8.jpg,1.0,220.604,1.104,0.0,0.0,dishwasher,die,L,S,3.0,1.0,dishwasher3,die8,
206,,size_choice_confirmation,,html-keyboard-response,206,363189,0.0-1.0-279.0-0.0,0,0,47956,,,,,,69.0,,,,,,,,,,,,,,,,,,,221.0,0.396,,,,,,,,,,,
207,,iti,,html-keyboard-response,207,364191,0.0-1.0-280.0,0,0,47956,,,,,,,,,,,,,,,,,,,,,,,,,222.0,1.0,,,,,,,,,,,
208,,size_choice,,html-keyboard-response,208,364908,0.0-1.0-282.0,0,0,47956,,713.0,,,68.0,70.0,70.0,2.0,1500.0,S-XL,1.0,XL,S,4.0,1.0,van,thread,van1,thread9,190.0,148.0,/static/Size_judgement/Stimuli/Size_stims/XL/van/van5.jpg,/static/Size_judgement/Stimuli/Size_stims/S/thread/thread8.jpg,1.0,222.713,0.713,0.0,1.0,van,thread,XL,S,4.0,1.0,van1,thread9,
209,,size_choice_confirmation,,html-keyboard-response,209,365699,0.0-1.0-283.0-0.0,0,0,47956,,,,,,70.0,,,,,,,,,,,,,,,,,,,223.5,0.787,,,,,,,,,,,
210,,iti,,html-keyboard-response,210,367203,0.0-1.0-284.0,0,0,47956,,,,,,,,,,,,,,,,,,,,,,,,,225.0,1.5,,,,,,,,,,,
211,,size_choice,,html-keyboard-response,211,368068,0.0-1.0-286.0,0,0,47956,,861.0,,,75.0,71.0,71.0,2.0,3500.0,M-L,0.0,M,L,2.0,3.0,basketball,deskchair,basketball9,deskchair2,58.0,11.0,/static/Size_judgement/Stimuli/Size_stims/M/basketball/basketball5.jpg,/static/Size_judgement/Stimuli/Size_stims/L/deskchair/deskchair8.jpg,1.0,225.861,0.861,0.0,0.0,deskchair,basketball,L,M,3.0,2.0,deskchair2,basketball9,
212,,size_choice_confirmation,,html-keyboard-response,212,368711,0.0-1.0-287.0-0.0,0,0,47956,,,,,,71.0,,,,,,,,,,,,,,,,,,,226.5,0.639,,,,,,,,,,,
213,,iti,,html-keyboard-response,213,372214,0.0-1.0-288.0,0,0,47956,,,,,,,,,,,,,,,,,,,,,,,,,230.0,3.5,,,,,,,,,,,
214,,size_choice,,html-keyboard-response,214,372979,0.0-1.0-290.0,0,0,47956,,761.0,,,68.0,72.0,72.0,2.0,1000.0,L-XL,1.0,XL,L,4.0,3.0,car,deskchair,car9,deskchair4,158.0,13.0,/static/Size_judgement/Stimuli/Size_stims/XL/car/car15.jpg,/static/Size_judgement/Stimuli/Size_stims/L/deskchair/deskchair6.jpg,1.0,230.761,0.761,0.0,1.0,car,deskchair,XL,L,4.0,3.0,car9,deskchair4,
215,,size_choice_confirmation,,html-keyboard-response,215,373726,0.0-1.0-291.0-0.0,0,0,47956,,,,,,72.0,,,,,,,,,,,,,,,,,,,231.5,0.739,,,,,,,,,,,
216,,iti,,html-keyboard-response,216,374728,0.0-1.0-292.0,0,0,47956,,,,,,,,,,,,,,,,,,,,,,,,,232.5,1.0,,,,,,,,,,,
217,,size_choice,,html-keyboard-response,217,375700,0.0-1.0-294.0,0,0,47956,,968.0,,,75.0,73.0,73.0,2.0,1500.0,M-M,,M,M,2.0,2.0,hairdryer,basketball,hairdryer3,basketball3,72.0,52.0,/static/Size_judgement/Stimuli/Size_stims/M/hairdryer/hairdryer17.jpg,/static/Size_judgement/Stimuli/Size_stims/M/basketball/basketball10.jpg,,233.468,0.968,0.0,0.0,basketball,hairdryer,M,M,2.0,2.0,basketball3,hairdryer3,
218,,size_choice_confirmation,,html-keyboard-response,218,376236,0.0-1.0-295.0-0.0,0,0,47956,,,,,,73.0,,,,,,,,,,,,,,,,,,,234.0,0.532,,,,,,,,,,,
219,,iti,,html-keyboard-response,219,377738,0.0-1.0-296.0,0,0,47956,,,,,,,,,,,,,,,,,,,,,,,,,235.5,1.5,,,,,,,,,,,
220,,size_choice,,html-keyboard-response,220,378394,0.0-1.0-298.0,0,0,47956,,653.0,,,75.0,74.0,74.0,2.0,1500.0,S-XL,0.0,S,XL,1.0,4.0,paperclip,crane,paperclip10,crane1,119.0,160.0,/static/Size_judgement/Stimuli/Size_stims/S/paperclip/paperclip10.jpg,/static/Size_judgement/Stimuli/Size_stims/XL/crane/crane7.jpg,1.0,236.153,0.653,0.0,0.0,crane,paperclip,XL,S,4.0,1.0,crane1,paperclip10,
221,,size_choice_confirmation,,html-keyboard-response,221,379245,0.0-1.0-299.0-0.0,0,0,47956,,,,,,74.0,,,,,,,,,,,,,,,,,,,237.0,0.847,,,,,,,,,,,
222,,iti,,html-keyboard-response,222,380749,0.0-1.0-300.0,0,0,47956,,,,,,,,,,,,,,,,,,,,,,,,,238.5,1.5,,,,,,,,,,,
223,,size_choice,,html-keyboard-response,223,381754,0.0-1.0-302.0,0,0,47956,,998.0,,,68.0,75.0,75.0,2.0,1000.0,M-L,1.0,L,M,3.0,2.0,cooler,ketchup,cooler5,ketchup10,4.0,99.0,/static/Size_judgement/Stimuli/Size_stims/L/cooler/cooler10.jpg,/static/Size_judgement/Stimuli/Size_stims/M/ketchup/ketchup6.jpg,1.0,239.498,0.998,0.0,1.0,cooler,ketchup,L,M,3.0,2.0,cooler5,ketchup10,
224,,size_choice_confirmation,,html-keyboard-response,224,382259,0.0-1.0-303.0-0.0,0,0,47956,,,,,,75.0,,,,,,,,,,,,,,,,,,,240.0,0.502,,,,,,,,,,,
225,,iti,,html-keyboard-response,225,383261,0.0-1.0-304.0,0,0,47956,,,,,,,,,,,,,,,,,,,,,,,,,241.0,1.0,,,,,,,,,,,
226,,size_choice,,html-keyboard-response,226,384563,0.0-1.0-306.0,0,0,47956,,1299.0,,,75.0,76.0,76.0,2.0,3000.0,S-S,,S,S,1.0,1.0,screws,die,screws7,die4,126.0,103.0,/static/Size_judgement/Stimuli/Size_stims/S/screws/screws1.jpg,/static/Size_judgement/Stimuli/Size_stims/S/die/die2.jpg,,242.299,1.299,0.0,0.0,die,screws,S,S,1.0,1.0,die4,screws7,
227,,size_choice_confirmation,,html-keyboard-response,227,384769,0.0-1.0-307.0-0.0,0,0,47956,,,,,,76.0,,,,,,,,,,,,,,,,,,,242.5,0.201,,,,,,,,,,,
228,,iti,,html-keyboard-response,228,387772,0.0-1.0-308.0,0,0,47956,,,,,,,,,,,,,,,,,,,,,,,,,245.5,3.0,,,,,,,,,,,
229,,size_choice,,html-keyboard-response,229,389012,0.0-1.0-310.0,0,0,47956,,1236.0,,,68.0,77.0,77.0,2.0,1000.0,L-L,,L,L,3.0,3.0,mailbox,cooler,mailbox1,cooler2,40.0,1.0,/static/Size_judgement/Stimuli/Size_stims/L/mailbox/mailbox3.jpg,/static/Size_judgement/Stimuli/Size_stims/L/cooler/cooler9.jpg,,246.736,1.236,0.0,1.0,mailbox,cooler,L,L,3.0,3.0,mailbox1,cooler2,
230,,size_choice_confirmation,,html-keyboard-response,230,389280,0.0-1.0-311.0-0.0,0,0,47956,,,,,,77.0,,,,,,,,,,,,,,,,,,,247.0,0.264,,,,,,,,,,,
231,,iti,,html-keyboard-response,231,390282,0.0-1.0-312.0,0,0,47956,,,,,,,,,,,,,,,,,,,,,,,,,248.0,1.0,,,,,,,,,,,
232,,size_choice,,html-keyboard-response,232,391235,0.0-1.0-314.0,0,0,47956,,950.0,,,68.0,78.0,78.0,2.0,1000.0,S-L,1.0,L,S,3.0,1.0,cooler,paperclip,cooler8,paperclip6,7.0,115.0,/static/Size_judgement/Stimuli/Size_stims/L/cooler/cooler5.jpg,/static/Size_judgement/Stimuli/Size_stims/S/paperclip/paperclip6.jpg,1.0,248.95,0.95,0.0,1.0,cooler,paperclip,L,S,3.0,1.0,cooler8,paperclip6,
233,,size_choice_confirmation,,html-keyboard-response,233,391790,0.0-1.0-315.0-0.0,0,0,47956,,,,,,78.0,,,,,,,,,,,,,,,,,,,249.5,0.55,,,,,,,,,,,
234,,iti,,html-keyboard-response,234,392792,0.0-1.0-316.0,0,0,47956,,,,,,,,,,,,,,,,,,,,,,,,,250.5,1.0,,,,,,,,,,,
235,,size_choice,,html-keyboard-response,235,393483,0.0-1.0-318.0,0,0,47956,,687.0,,,75.0,79.0,79.0,2.0,3000.0,S-XL,0.0,S,XL,1.0,4.0,paperclip,crane,paperclip3,crane2,112.0,161.0,/static/Size_judgement/Stimuli/Size_stims/S/paperclip/paperclip1.jpg,/static/Size_judgement/Stimuli/Size_stims/XL/crane/crane6.jpg,1.0,251.187,0.687,0.0,0.0,crane,paperclip,XL,S,4.0,1.0,crane2,paperclip3,
236,,size_choice_confirmation,,html-keyboard-response,236,394301,0.0-1.0-319.0-0.0,0,0,47956,,,,,,79.0,,,,,,,,,,,,,,,,,,,252.0,0.813,,,,,,,,,,,
237,,iti,,html-keyboard-response,237,397303,0.0-1.0-320.0,0,0,47956,,,,,,,,,,,,,,,,,,,,,,,,,255.0,3.0,,,,,,,,,,,
238,,size_choice,,html-keyboard-response,238,398075,0.0-1.0-322.0,0,0,47956,,769.0,,,75.0,80.0,80.0,2.0,1000.0,M-XL,0.0,M,XL,2.0,4.0,ketchup,van,ketchup1,van2,90.0,191.0,/static/Size_judgement/Stimuli/Size_stims/M/ketchup/ketchup8.jpg,/static/Size_judgement/Stimuli/Size_stims/XL/van/van4.jpg,1.0,255.769,0.769,0.0,0.0,van,ketchup,XL,M,4.0,2.0,van2,ketchup1,
239,,size_choice_confirmation,,html-keyboard-response,239,398811,0.0-1.0-323.0-0.0,0,0,47956,,,,,,80.0,,,,,,,,,,,,,,,,,,,256.5,0.731,,,,,,,,,,,
240,,iti,,html-keyboard-response,240,399814,0.0-1.0-324.0,0,0,47956,,,,,,,,,,,,,,,,,,,,,,,,,257.5,1.0,,,,,,,,,,,
241,,size_choice,,html-keyboard-response,241,400643,0.0-1.0-326.0,0,0,47956,,826.0,,,75.0,81.0,81.0,2.0,3000.0,M-XL,0.0,M,XL,2.0,4.0,coffeemaker,tractor,coffeemaker6,tractor3,65.0,182.0,/static/Size_judgement/Stimuli/Size_stims/M/coffeemaker/coffeemaker8.jpg,/static/Size_judgement/Stimuli/Size_stims/XL/tractor/tractor5.jpg,1.0,258.326,0.826,0.0,0.0,tractor,coffeemaker,XL,M,4.0,2.0,tractor3,coffeemaker6,
242,,size_choice_confirmation,,html-keyboard-response,242,401325,0.0-1.0-327.0-0.0,0,0,47956,,,,,,81.0,,,,,,,,,,,,,,,,,,,259.0,0.674,,,,,,,,,,,
243,,iti,,html-keyboard-response,243,404329,0.0-1.0-328.0,0,0,47956,,,,,,,,,,,,,,,,,,,,,,,,,262.0,3.0,,,,,,,,,,,
244,,size_choice,,html-keyboard-response,244,405507,0.0-1.0-330.0,0,0,47956,,1174.0,,,68.0,82.0,82.0,2.0,1000.0,M-L,1.0,L,M,3.0,2.0,dishwasher,basketball,dishwasher6,basketball10,25.0,59.0,/static/Size_judgement/Stimuli/Size_stims/L/dishwasher/dishwasher6.jpg,/static/Size_judgement/Stimuli/Size_stims/M/basketball/basketball4.jpg,1.0,263.174,1.174,0.0,1.0,dishwasher,basketball,L,M,3.0,2.0,dishwasher6,basketball10,
245,,size_choice_confirmation,,html-keyboard-response,245,405838,0.0-1.0-331.0-0.0,0,0,47956,,,,,,82.0,,,,,,,,,,,,,,,,,,,263.5,0.326,,,,,,,,,,,
246,,iti,,html-keyboard-response,246,406841,0.0-1.0-332.0,0,0,47956,,,,,,,,,,,,,,,,,,,,,,,,,264.5,1.0,,,,,,,,,,,
247,,size_choice,,html-keyboard-response,247,407555,0.0-1.0-334.0,0,0,47956,,710.0,,,68.0,83.0,83.0,2.0,1000.0,M-XL,1.0,XL,M,4.0,2.0,van,hairdryer,van8,hairdryer9,197.0,78.0,/static/Size_judgement/Stimuli/Size_stims/XL/van/van10.jpg,/static/Size_judgement/Stimuli/Size_stims/M/hairdryer/hairdryer5.jpg,1.0,265.21,0.71,0.0,1.0,van,hairdryer,XL,M,4.0,2.0,van8,hairdryer9,
248,,size_choice_confirmation,,html-keyboard-response,248,408350,0.0-1.0-335.0-0.0,0,0,47956,,,,,,83.0,,,,,,,,,,,,,,,,,,,266.0,0.79,,,,,,,,,,,
249,,iti,,html-keyboard-response,249,409353,0.0-1.0-336.0,0,0,47956,,,,,,,,,,,,,,,,,,,,,,,,,267.0,1.0,,,,,,,,,,,
250,,size_choice,,html-keyboard-response,250,410338,0.0-1.0-338.0,0,0,47956,,978.0,,,75.0,84.0,84.0,2.0,1000.0,XL-XL,,XL,XL,4.0,4.0,tractor,dumptruck,tractor5,dumptruck3,184.0,172.0,/static/Size_judgement/Stimuli/Size_stims/XL/tractor/tractor1.jpg,/static/Size_judgement/Stimuli/Size_stims/XL/dumptruck/dumptruck10.jpg,,267.978,0.978,0.0,0.0,dumptruck,tractor,XL,XL,4.0,4.0,dumptruck3,tractor5,
251,,size_choice_confirmation,,html-keyboard-response,251,410862,0.0-1.0-339.0-0.0,0,0,47956,,,,,,84.0,,,,,,,,,,,,,,,,,,,268.5,0.522,,,,,,,,,,,
252,,iti,,html-keyboard-response,252,411865,0.0-1.0-340.0,0,0,47956,,,,,,,,,,,,,,,,,,,,,,,,,269.5,1.0,,,,,,,,,,,
253,,size_choice,,html-keyboard-response,253,412988,0.0-1.0-342.0,0,0,47956,,1118.0,,,68.0,85.0,85.0,2.0,1000.0,M-L,1.0,L,M,3.0,2.0,mailbox,basketball,mailbox7,basketball1,46.0,50.0,/static/Size_judgement/Stimuli/Size_stims/L/mailbox/mailbox7.jpg,/static/Size_judgement/Stimuli/Size_stims/M/basketball/basketball9.jpg,1.0,270.618,1.118,0.0,1.0,mailbox,basketball,L,M,3.0,2.0,mailbox7,basketball1,
254,,size_choice_confirmation,,html-keyboard-response,254,413375,0.0-1.0-343.0-0.0,0,0,47956,,,,,,85.0,,,,,,,,,,,,,,,,,,,271.0,0.382,,,,,,,,,,,
255,,iti,,html-keyboard-response,255,414379,0.0-1.0-344.0,0,0,47956,,,,,,,,,,,,,,,,,,,,,,,,,272.0,1.0,,,,,,,,,,,
256,,size_choice,,html-keyboard-response,256,415179,0.0-1.0-346.0,0,0,47956,,796.0,,,68.0,86.0,86.0,2.0,1500.0,S-XL,1.0,XL,S,4.0,1.0,dumptruck,screws,dumptruck6,screws8,175.0,127.0,/static/Size_judgement/Stimuli/Size_stims/XL/dumptruck/dumptruck2.jpg,/static/Size_judgement/Stimuli/Size_stims/S/screws/screws10.jpg,1.0,272.796,0.796,0.0,1.0,dumptruck,screws,XL,S,4.0,1.0,dumptruck6,screws8,
257,,size_choice_confirmation,,html-keyboard-response,257,415887,0.0-1.0-347.0-0.0,0,0,47956,,,,,,86.0,,,,,,,,,,,,,,,,,,,273.5,0.704,,,,,,,,,,,
258,,iti,,html-keyboard-response,258,417388,0.0-1.0-348.0,0,0,47956,,,,,,,,,,,,,,,,,,,,,,,,,275.0,1.5,,,,,,,,,,,
259,,size_choice,,html-keyboard-response,259,418114,0.0-1.0-350.0,0,0,47956,,722.0,,,68.0,87.0,87.0,2.0,1500.0,L-XL,1.0,XL,L,4.0,3.0,car,deskchair,car7,deskchair8,156.0,17.0,/static/Size_judgement/Stimuli/Size_stims/XL/car/car13.jpg,/static/Size_judgement/Stimuli/Size_stims/L/deskchair/deskchair1.jpg,1.0,275.722,0.722,0.0,1.0,car,deskchair,XL,L,4.0,3.0,car7,deskchair8,
260,,size_choice_confirmation,,html-keyboard-response,260,418898,0.0-1.0-351.0-0.0,0,0,47956,,,,,,87.0,,,,,,,,,,,,,,,,,,,276.5,0.778,,,,,,,,,,,
261,,iti,,html-keyboard-response,261,420400,0.0-1.0-352.0,0,0,47956,,,,,,,,,,,,,,,,,,,,,,,,,278.0,1.5,,,,,,,,,,,
262,,size_choice,,html-keyboard-response,262,421547,0.0-1.0-354.0,0,0,47956,,1143.0,,,68.0,88.0,88.0,2.0,1000.0,M-L,1.0,L,M,3.0,2.0,garbagecan,hairdryer,garbagecan10,hairdryer7,39.0,76.0,/static/Size_judgement/Stimuli/Size_stims/L/garbagecan/garbagecan11.jpg,/static/Size_judgement/Stimuli/Size_stims/M/hairdryer/hairdryer3.jpg,1.0,279.143,1.143,0.0,1.0,garbagecan,hairdryer,L,M,3.0,2.0,garbagecan10,hairdryer7,
263,,size_choice_confirmation,,html-keyboard-response,263,421909,0.0-1.0-355.0-0.0,0,0,47956,,,,,,88.0,,,,,,,,,,,,,,,,,,,279.5,0.357,,,,,,,,,,,
264,,iti,,html-keyboard-response,264,422911,0.0-1.0-356.0,0,0,47956,,,,,,,,,,,,,,,,,,,,,,,,,280.5,1.0,,,,,,,,,,,
265,,size_choice,,html-keyboard-response,265,423476,0.0-1.0-358.0,0,0,47956,,562.0,,,75.0,89.0,89.0,2.0,2000.0,M-XL,0.0,M,XL,2.0,4.0,handsaw,car,handsaw5,car10,84.0,159.0,/static/Size_judgement/Stimuli/Size_stims/M/handsaw/handsaw1.jpg,/static/Size_judgement/Stimuli/Size_stims/XL/car/car9.jpg,1.0,281.062,0.562,0.0,0.0,car,handsaw,XL,M,4.0,2.0,car10,handsaw5,
266,,size_choice_confirmation,,html-keyboard-response,266,424421,0.0-1.0-359.0-0.0,0,0,47956,,,,,,89.0,,,,,,,,,,,,,,,,,,,282.0,0.938,,,,,,,,,,,
267,,iti,,html-keyboard-response,267,426423,0.0-1.0-360.0,0,0,47956,,,,,,,,,,,,,,,,,,,,,,,,,284.0,2.0,,,,,,,,,,,0.89
268,,size_final_tally,,html-keyboard-response,268,434300,0.0-2.0,0,0,47956,,7870.0,,,68.0,,,,,,,,,,,,,,,,,,,,,,,,,,,,,,,,
