,success,ttype,start_time,trial_type,trial_index,time_elapsed,internal_node_id,warning,missed_checkup,PID,view_history,rt,responses,repeat_instructions,key_press,index,trial_num,block,iti,pair_type,high_size_on_left,left_size_group,right_size_group,left_size_num,right_size_num,left_category,right_category,left_exemplar,right_exemplar,left_index,right_index,left_img_path,right_img_path,left_chosen,chosen_category,unchosen_category,chosen_size_group,unchosen_size_group,chosen_size_num,unchosen_size_num,chosen_exemplar,unchosen_exemplar,accuracy,onset,duration,no_response,size_final_tally
0,True,full_screen,d06232022hr2012,fullscreen,0,2303,0.0-0.0,0,0,999,,,,,,,,,,,,,,,,,,,,,,,,,,,,,,,,,,,,,
1,,size_instructions,,instructions,1,5127,0.0-1.0-0.0-0.0,0,0,999,"[{""page_index"":0,""viewing_time"":1202},{""page_index"":1,""viewing_time"":156},{""page_index"":2,""viewing_time"":168},{""page_index"":3,""viewing_time"":180},{""page_index"":4,""viewing_time"":658},{""page_index"":5,""viewing_time"":458}]",2823.0,,,,,,,,,,,,,,,,,,,,,,,,,,,,,,,,,,,
2,,size_comprehension_check,,survey-multi-choice,2,12272,0.0-1.0-0.0-1.0,0,0,999,,7141.0,"{""Q0"":""True"",""Q1"":""Size in the real world"",""Q2"":""True"",""Q3"":""pointer finger for left and middle finger for right""}",0.0,,,,,,,,,,,,,,,,,,,,,,,,,,,,,,,,,
3,,,,html-keyboard-response,3,13777,0.0-1.0-1.0,0,0,999,,1502.0,,,83.0,,,,,,,,,,,,,,,,,,,,,,,,,,,,,,,,
4,,start_run,,html-keyboard-response,4,14537,0.0-1.0-2.0,0,0,999,,759.0,,,84.0,,,,,,,,,,,,,,,,,,,,,,,,,,,,,,,,
5,,size_choice,,html-keyboard-response,5,15448,0.0-1.0-3.0,0,0,999,,910.0,,,50.0,0.0,0.0,1.0,1000.0,M-XL,1.0,XL,M,4.0,2.0,crane,coffeemaker,crane4,coffeemaker10,163.0,69.0,/static/Size_judgement/Stimuli/Size_stims/XL/crane/crane5.jpg,/static/Size_judgement/Stimuli/Size_stims/M/coffeemaker/coffeemaker18.jpg,1.0,crane,coffeemaker,XL,M,4.0,2.0,crane4,coffeemaker10,1.0,0.0,0.91,0.0,
6,,size_choice_confirmation,,html-keyboard-response,6,16042,0.0-1.0-4.0-0.0,0,0,999,,,,,,0.0,,1.0,,,,,,,,,,,,,,,,,,,,,,,,,,0.91,0.59,,
7,,iti,,html-keyboard-response,7,17049,0.0-1.0-5.0,0,0,999,,,,,,0.0,,1.0,,,,,,,,,,,,,,,,,,,,,,,,,,1.5,1.0,,
8,,size_choice,,html-keyboard-response,8,17305,0.0-1.0-7.0,0,0,999,,255.0,,,50.0,1.0,1.0,1.0,500.0,S-L,0.0,S,L,1.0,3.0,screws,mailbox,screws1,mailbox5,120.0,44.0,/static/Size_judgement/Stimuli/Size_stims/S/screws/screws4.jpg,/static/Size_judgement/Stimuli/Size_stims/L/mailbox/mailbox4.jpg,1.0,screws,mailbox,S,L,1.0,3.0,screws1,mailbox5,0.0,2.5,0.255,0.0,
9,,size_choice_confirmation,,html-keyboard-response,9,18555,0.0-1.0-8.0-0.0,0,0,999,,,,,,1.0,,1.0,,,,,,,,,,,,,,,,,,,,,,,,,,2.755,1.245,,
10,,iti,,html-keyboard-response,10,19056,0.0-1.0-9.0,0,0,999,,,,,,1.0,,1.0,,,,,,,,,,,,,,,,,,,,,,,,,,4.0,0.5,,
11,,size_choice,,html-keyboard-response,11,19541,0.0-1.0-11.0,0,0,999,,484.0,,,50.0,2.0,2.0,1.0,1000.0,M-L,0.0,M,L,2.0,3.0,ketchup,cooler,ketchup6,cooler9,95.0,8.0,/static/Size_judgement/Stimuli/Size_stims/M/ketchup/ketchup1.jpg,/static/Size_judgement/Stimuli/Size_stims/L/cooler/cooler7.jpg,1.0,ketchup,cooler,M,L,2.0,3.0,ketchup6,cooler9,0.0,4.5,0.484,0.0,
12,,size_choice_confirmation,,html-keyboard-response,12,20559,0.0-1.0-12.0-0.0,0,0,999,,,,,,2.0,,1.0,,,,,,,,,,,,,,,,,,,,,,,,,,4.984,1.016,,
13,,iti,,html-keyboard-response,13,21560,0.0-1.0-13.0,0,0,999,,,,,,2.0,,1.0,,,,,,,,,,,,,,,,,,,,,,,,,,6.0,1.0,,
14,,size_choice,,html-keyboard-response,14,23483,0.0-1.0-15.0,0,0,999,,,,,,3.0,3.0,1.0,1000.0,S-M,0.0,S,M,1.0,2.0,die,basketball,die2,basketball9,101.0,58.0,/static/Size_judgement/Stimuli/Size_stims/S/die/die9.jpg,/static/Size_judgement/Stimuli/Size_stims/M/basketball/basketball5.jpg,,,,,,,,,,,7.0,1.5,1.0,
15,,iti,,html-keyboard-response,15,25896,0.0-1.0-17.0,0,0,999,,,,,,3.0,,1.0,,,,,,,,,,,,,,,,,,,,,,,,,,8.5,1.0,,
16,,size_choice,,html-keyboard-response,16,28270,0.0-1.0-19.0,0,0,999,,,,,,4.0,4.0,1.0,500.0,S-XL,0.0,S,XL,1.0,4.0,screws,van,screws4,van1,123.0,190.0,/static/Size_judgement/Stimuli/Size_stims/S/screws/screws6.jpg,/static/Size_judgement/Stimuli/Size_stims/XL/van/van5.jpg,,,,,,,,,,,9.5,1.5,1.0,
17,,iti,,html-keyboard-response,17,30082,0.0-1.0-21.0,0,0,999,,,,,,4.0,,1.0,,,,,,,,,,,,,,,,,,,,,,,,,,11.0,0.5,,
18,,size_choice,,html-keyboard-response,18,32515,0.0-1.0-23.0,0,0,999,,,,,,5.0,5.0,1.0,1500.0,S-XL,1.0,XL,S,4.0,1.0,tractor,teabag,tractor6,teabag10,185.0,139.0,/static/Size_judgement/Stimuli/Size_stims/XL/tractor/tractor3.jpg,/static/Size_judgement/Stimuli/Size_stims/S/teabag/teabag4.jpg,,,,,,,,,,,11.5,1.5,1.0,
19,,iti,,html-keyboard-response,19,35345,0.0-1.0-25.0,0,0,999,,,,,,5.0,,1.0,,,,,,,,,,,,,,,,,,,,,,,,,,13.0,1.5,,
20,,size_choice,,html-keyboard-response,20,38334,0.0-1.0-27.0,0,0,999,,,,,,6.0,6.0,1.0,1000.0,M-XL,0.0,M,XL,2.0,4.0,basketball,dumptruck,basketball7,dumptruck6,56.0,175.0,/static/Size_judgement/Stimuli/Size_stims/M/basketball/basketball6.jpg,/static/Size_judgement/Stimuli/Size_stims/XL/dumptruck/dumptruck2.jpg,,,,,,,,,,,14.5,1.5,1.0,
21,,iti,,html-keyboard-response,21,40036,0.0-1.0-29.0,0,0,999,,,,,,6.0,,1.0,,,,,,,,,,,,,,,,,,,,,,,,,,16.0,1.0,,
22,,size_choice,,html-keyboard-response,22,43478,0.0-1.0-31.0,0,0,999,,,,,,7.0,7.0,1.0,1500.0,M-XL,1.0,XL,M,4.0,2.0,car,basketball,car7,basketball2,156.0,51.0,/static/Size_judgement/Stimuli/Size_stims/XL/car/car13.jpg,/static/Size_judgement/Stimuli/Size_stims/M/basketball/basketball8.jpg,,,,,,,,,,,17.0,1.5,1.0,
23,,iti,,html-keyboard-response,23,46464,0.0-1.0-33.0,0,0,999,,,,,,7.0,,1.0,,,,,,,,,,,,,,,,,,,,,,,,,,18.5,1.5,,
24,,size_choice,,html-keyboard-response,24,48485,0.0-1.0-35.0,0,0,999,,,,,,8.0,8.0,1.0,500.0,S-L,1.0,L,S,3.0,1.0,mailbox,thread,mailbox4,thread1,43.0,140.0,/static/Size_judgement/Stimuli/Size_stims/L/mailbox/mailbox5.jpg,/static/Size_judgement/Stimuli/Size_stims/S/thread/thread7.jpg,,,,,,,,,,,20.0,1.5,1.0,
25,,iti,,html-keyboard-response,25,49973,0.0-1.0-37.0,0,0,999,,,,,,8.0,,1.0,,,,,,,,,,,,,,,,,,,,,,,,,,21.5,0.5,,
26,,size_choice,,html-keyboard-response,26,51481,0.0-1.0-39.0,0,0,999,,,,,,9.0,9.0,1.0,500.0,L-XL,1.0,XL,L,4.0,3.0,van,deskchair,van2,deskchair4,191.0,13.0,/static/Size_judgement/Stimuli/Size_stims/XL/van/van4.jpg,/static/Size_judgement/Stimuli/Size_stims/L/deskchair/deskchair6.jpg,,,,,,,,,,,22.0,1.5,1.0,
27,,iti,,html-keyboard-response,27,52968,0.0-1.0-41.0,0,0,999,,,,,,9.0,,1.0,,,,,,,,,,,,,,,,,,,,,,,,,,23.5,0.5,,
28,,size_choice,,html-keyboard-response,28,54481,0.0-1.0-43.0,0,0,999,,,,,,10.0,10.0,1.0,3500.0,M-XL,0.0,M,XL,2.0,4.0,handsaw,car,handsaw2,car2,81.0,151.0,/static/Size_judgement/Stimuli/Size_stims/M/handsaw/handsaw9.jpg,/static/Size_judgement/Stimuli/Size_stims/XL/car/car3.jpg,,,,,,,,,,,24.0,1.5,1.0,
29,,iti,,html-keyboard-response,29,58730,0.0-1.0-45.0,0,0,999,,,,,,10.0,,1.0,,,,,,,,,,,,,,,,,,,,,,,,,,25.5,3.5,,
30,,size_choice,,html-keyboard-response,30,60548,0.0-1.0-47.0,0,0,999,,,,,,11.0,11.0,1.0,5500.0,L-L,,L,L,3.0,3.0,mailbox,garbagecan,mailbox2,garbagecan7,41.0,36.0,/static/Size_judgement/Stimuli/Size_stims/L/mailbox/mailbox2.jpg,/static/Size_judgement/Stimuli/Size_stims/L/garbagecan/garbagecan16.jpg,,,,,,,,,,,29.0,1.5,1.0,
31,,iti,,html-keyboard-response,31,66469,0.0-1.0-49.0,0,0,999,,,,,,11.0,,1.0,,,,,,,,,,,,,,,,,,,,,,,,,,30.5,5.5,,
32,,size_choice,,html-keyboard-response,32,68467,0.0-1.0-51.0,0,0,999,,,,,,12.0,12.0,1.0,1000.0,M-XL,1.0,XL,M,4.0,2.0,dumptruck,ketchup,dumptruck1,ketchup10,170.0,99.0,/static/Size_judgement/Stimuli/Size_stims/XL/dumptruck/dumptruck9.jpg,/static/Size_judgement/Stimuli/Size_stims/M/ketchup/ketchup6.jpg,,,,,,,,,,,36.0,1.5,1.0,
33,,iti,,html-keyboard-response,33,70851,0.0-1.0-53.0,0,0,999,,,,,,12.0,,1.0,,,,,,,,,,,,,,,,,,,,,,,,,,37.5,1.0,,
34,,size_choice,,html-keyboard-response,34,73266,0.0-1.0-55.0,0,0,999,,,,,,13.0,13.0,1.0,1500.0,L-XL,1.0,XL,L,4.0,3.0,van,mailbox,van10,mailbox10,199.0,49.0,/static/Size_judgement/Stimuli/Size_stims/XL/van/van8.jpg,/static/Size_judgement/Stimuli/Size_stims/L/mailbox/mailbox8.jpg,,,,,,,,,,,38.5,1.5,1.0,
35,,iti,,html-keyboard-response,35,75550,0.0-1.0-57.0,0,0,999,,,,,,13.0,,1.0,,,,,,,,,,,,,,,,,,,,,,,,,,40.0,1.5,,
36,,size_choice,,html-keyboard-response,36,77541,0.0-1.0-59.0,0,0,999,,,,,,14.0,14.0,1.0,500.0,M-L,0.0,M,L,2.0,3.0,basketball,mailbox,basketball8,mailbox9,57.0,48.0,/static/Size_judgement/Stimuli/Size_stims/M/basketball/basketball7.jpg,/static/Size_judgement/Stimuli/Size_stims/L/mailbox/mailbox9.jpg,,,,,,,,,,,41.5,1.5,1.0,
37,,iti,,html-keyboard-response,37,78462,0.0-1.0-61.0,0,0,999,,,,,,14.0,,1.0,,,,,,,,,,,,,,,,,,,,,,,,,,43.0,0.5,,
38,,size_choice,,html-keyboard-response,38,80490,0.0-1.0-63.0,0,0,999,,,,,,15.0,15.0,1.0,500.0,S-L,0.0,S,L,1.0,3.0,screws,deskchair,screws2,deskchair7,121.0,16.0,/static/Size_judgement/Stimuli/Size_stims/S/screws/screws5.jpg,/static/Size_judgement/Stimuli/Size_stims/L/deskchair/deskchair4.jpg,,,,,,,,,,,43.5,1.5,1.0,
39,,iti,,html-keyboard-response,39,81628,0.0-1.0-65.0,0,0,999,,,,,,15.0,,1.0,,,,,,,,,,,,,,,,,,,,,,,,,,45.0,0.5,,
40,,size_choice,,html-keyboard-response,40,84369,0.0-1.0-67.0,0,0,999,,,,,,16.0,16.0,1.0,2500.0,S-L,1.0,L,S,3.0,1.0,cooler,die,cooler7,die7,6.0,106.0,/static/Size_judgement/Stimuli/Size_stims/L/cooler/cooler4.jpg,/static/Size_judgement/Stimuli/Size_stims/S/die/die4.jpg,,,,,,,,,,,45.5,1.5,1.0,
41,,iti,,html-keyboard-response,41,87459,0.0-1.0-69.0,0,0,999,,,,,,16.0,,1.0,,,,,,,,,,,,,,,,,,,,,,,,,,47.0,2.5,,
42,,size_choice,,html-keyboard-response,42,89459,0.0-1.0-71.0,0,0,999,,,,,,17.0,17.0,1.0,1500.0,S-XL,0.0,S,XL,1.0,4.0,paperclip,tractor,paperclip7,tractor7,116.0,186.0,/static/Size_judgement/Stimuli/Size_stims/S/paperclip/paperclip7.jpg,/static/Size_judgement/Stimuli/Size_stims/XL/tractor/tractor2.jpg,,,,,,,,,,,49.5,1.5,1.0,
43,,iti,,html-keyboard-response,43,91479,0.0-1.0-73.0,0,0,999,,,,,,17.0,,1.0,,,,,,,,,,,,,,,,,,,,,,,,,,51.0,1.5,,
44,,size_choice,,html-keyboard-response,44,93893,0.0-1.0-75.0,0,0,999,,,,,,18.0,18.0,1.0,1500.0,M-XL,0.0,M,XL,2.0,4.0,coffeemaker,dumptruck,coffeemaker8,dumptruck5,67.0,174.0,/static/Size_judgement/Stimuli/Size_stims/M/coffeemaker/coffeemaker5.jpg,/static/Size_judgement/Stimuli/Size_stims/XL/dumptruck/dumptruck3.jpg,,,,,,,,,,,52.5,1.5,1.0,
45,,iti,,html-keyboard-response,45,95458,0.0-1.0-77.0,0,0,999,,,,,,18.0,,1.0,,,,,,,,,,,,,,,,,,,,,,,,,,54.0,1.5,,
46,,size_choice,,html-keyboard-response,46,97979,0.0-1.0-79.0,0,0,999,,,,,,19.0,19.0,1.0,3000.0,M-L,0.0,M,L,2.0,3.0,basketball,deskchair,basketball3,deskchair10,52.0,19.0,/static/Size_judgement/Stimuli/Size_stims/M/basketball/basketball10.jpg,/static/Size_judgement/Stimuli/Size_stims/L/deskchair/deskchair2.jpg,,,,,,,,,,,55.5,1.5,1.0,
47,,iti,,html-keyboard-response,47,101458,0.0-1.0-81.0,0,0,999,,,,,,19.0,,1.0,,,,,,,,,,,,,,,,,,,,,,,,,,57.0,3.0,,
48,,size_choice,,html-keyboard-response,48,103458,0.0-1.0-83.0,0,0,999,,,,,,20.0,20.0,1.0,500.0,L-L,,L,L,3.0,3.0,garbagecan,deskchair,garbagecan8,deskchair6,37.0,15.0,/static/Size_judgement/Stimuli/Size_stims/L/garbagecan/garbagecan13.jpg,/static/Size_judgement/Stimuli/Size_stims/L/deskchair/deskchair5.jpg,,,,,,,,,,,60.0,1.5,1.0,
49,,iti,,html-keyboard-response,49,104947,0.0-1.0-85.0,0,0,999,,,,,,20.0,,1.0,,,,,,,,,,,,,,,,,,,,,,,,,,61.5,0.5,,
50,,size_choice,,html-keyboard-response,50,106457,0.0-1.0-87.0,0,0,999,,,,,,21.0,21.0,1.0,3000.0,L-L,,L,L,3.0,3.0,cooler,dishwasher,cooler2,dishwasher1,1.0,20.0,/static/Size_judgement/Stimuli/Size_stims/L/cooler/cooler9.jpg,/static/Size_judgement/Stimuli/Size_stims/L/dishwasher/dishwasher10.jpg,,,,,,,,,,,62.0,1.5,1.0,
51,,iti,,html-keyboard-response,51,110916,0.0-1.0-89.0,0,0,999,,,,,,21.0,,1.0,,,,,,,,,,,,,,,,,,,,,,,,,,63.5,3.0,,
52,,size_choice,,html-keyboard-response,52,112925,0.0-1.0-91.0,0,0,999,,,,,,22.0,22.0,1.0,500.0,M-XL,0.0,M,XL,2.0,4.0,handsaw,tractor,handsaw1,tractor2,80.0,181.0,/static/Size_judgement/Stimuli/Size_stims/M/handsaw/handsaw8.jpg,/static/Size_judgement/Stimuli/Size_stims/XL/tractor/tractor7.jpg,,,,,,,,,,,66.5,1.5,1.0,
53,,iti,,html-keyboard-response,53,113616,0.0-1.0-93.0,0,0,999,,,,,,22.0,,1.0,,,,,,,,,,,,,,,,,,,,,,,,,,68.0,0.5,,
54,,size_choice,,html-keyboard-response,54,115457,0.0-1.0-95.0,0,0,999,,,,,,23.0,23.0,1.0,1500.0,S-S,,S,S,1.0,1.0,die,screws,die3,screws8,102.0,127.0,/static/Size_judgement/Stimuli/Size_stims/S/die/die10.jpg,/static/Size_judgement/Stimuli/Size_stims/S/screws/screws10.jpg,,,,,,,,,,,68.5,1.5,1.0,
55,,iti,,html-keyboard-response,55,117459,0.0-1.0-97.0,0,0,999,,,,,,23.0,,1.0,,,,,,,,,,,,,,,,,,,,,,,,,,70.0,1.5,,
56,,size_choice,,html-keyboard-response,56,120290,0.0-1.0-99.0,0,0,999,,,,,,24.0,24.0,1.0,1500.0,S-L,0.0,S,L,1.0,3.0,screws,deskchair,screws5,deskchair3,124.0,12.0,/static/Size_judgement/Stimuli/Size_stims/S/screws/screws2.jpg,/static/Size_judgement/Stimuli/Size_stims/L/deskchair/deskchair10.jpg,,,,,,,,,,,71.5,1.5,1.0,
57,,iti,,html-keyboard-response,57,122512,0.0-1.0-101.0,0,0,999,,,,,,24.0,,1.0,,,,,,,,,,,,,,,,,,,,,,,,,,73.0,1.5,,
58,,size_choice,,html-keyboard-response,58,124457,0.0-1.0-103.0,0,0,999,,,,,,25.0,25.0,1.0,500.0,M-M,,M,M,2.0,2.0,ketchup,handsaw,ketchup2,handsaw8,91.0,87.0,/static/Size_judgement/Stimuli/Size_stims/M/ketchup/ketchup9.jpg,/static/Size_judgement/Stimuli/Size_stims/M/handsaw/handsaw7.jpg,,,,,,,,,,,74.5,1.5,1.0,
59,,iti,,html-keyboard-response,59,125823,0.0-1.0-105.0,0,0,999,,,,,,25.0,,1.0,,,,,,,,,,,,,,,,,,,,,,,,,,76.0,0.5,,
60,,size_choice,,html-keyboard-response,60,127738,0.0-1.0-107.0,0,0,999,,,,,,26.0,26.0,1.0,1500.0,S-XL,1.0,XL,S,4.0,1.0,tractor,die,tractor4,die9,183.0,108.0,/static/Size_judgement/Stimuli/Size_stims/XL/tractor/tractor4.jpg,/static/Size_judgement/Stimuli/Size_stims/S/die/die7.jpg,,,,,,,,,,,76.5,1.5,1.0,
61,,iti,,html-keyboard-response,61,129458,0.0-1.0-109.0,0,0,999,,,,,,26.0,,1.0,,,,,,,,,,,,,,,,,,,,,,,,,,78.0,1.5,,
62,,size_choice,,html-keyboard-response,62,132361,0.0-1.0-111.0,0,0,999,,,,,,27.0,27.0,1.0,500.0,S-L,1.0,L,S,3.0,1.0,garbagecan,die,garbagecan6,die4,35.0,103.0,/static/Size_judgement/Stimuli/Size_stims/L/garbagecan/garbagecan14.jpg,/static/Size_judgement/Stimuli/Size_stims/S/die/die2.jpg,,,,,,,,,,,79.5,1.5,1.0,
63,,iti,,html-keyboard-response,63,133863,0.0-1.0-113.0,0,0,999,,,,,,27.0,,1.0,,,,,,,,,,,,,,,,,,,,,,,,,,81.0,0.5,,
64,,size_choice,,html-keyboard-response,64,135495,0.0-1.0-115.0,0,0,999,,,,,,28.0,28.0,1.0,1000.0,S-L,0.0,S,L,1.0,3.0,thread,cooler,thread8,cooler3,147.0,2.0,/static/Size_judgement/Stimuli/Size_stims/S/thread/thread10.jpg,/static/Size_judgement/Stimuli/Size_stims/L/cooler/cooler2.jpg,,,,,,,,,,,81.5,1.5,1.0,
65,,iti,,html-keyboard-response,65,137881,0.0-1.0-117.0,0,0,999,,,,,,28.0,,1.0,,,,,,,,,,,,,,,,,,,,,,,,,,83.0,1.0,,
66,,size_choice,,html-keyboard-response,66,139878,0.0-1.0-119.0,0,0,999,,,,,,29.0,29.0,1.0,500.0,S-S,,S,S,1.0,1.0,thread,teabag,thread6,teabag4,145.0,133.0,/static/Size_judgement/Stimuli/Size_stims/S/thread/thread2.jpg,/static/Size_judgement/Stimuli/Size_stims/S/teabag/teabag3.jpg,,,,,,,,,,,84.0,1.5,1.0,
67,,iti,,html-keyboard-response,67,140735,0.0-1.0-121.0,0,0,999,,,,,,29.0,,1.0,,,,,,,,,,,,,,,,,,,,,,,,,,85.5,0.5,,
68,,size_choice,,html-keyboard-response,68,142536,0.0-1.0-123.0,0,0,999,,,,,,30.0,30.0,1.0,500.0,M-L,1.0,L,M,3.0,2.0,deskchair,coffeemaker,deskchair1,coffeemaker3,10.0,62.0,/static/Size_judgement/Stimuli/Size_stims/L/deskchair/deskchair9.jpg,/static/Size_judgement/Stimuli/Size_stims/M/coffeemaker/coffeemaker13.jpg,,,,,,,,,,,86.0,1.5,1.0,
69,,iti,,html-keyboard-response,69,143773,0.0-1.0-125.0,0,0,999,,,,,,30.0,,1.0,,,,,,,,,,,,,,,,,,,,,,,,,,87.5,0.5,,
70,,size_choice,,html-keyboard-response,70,145685,0.0-1.0-127.0,0,0,999,,,,,,31.0,31.0,1.0,2000.0,XL-XL,,XL,XL,4.0,4.0,van,car,van6,car4,195.0,153.0,/static/Size_judgement/Stimuli/Size_stims/XL/van/van2.jpg,/static/Size_judgement/Stimuli/Size_stims/XL/car/car6.jpg,,,,,,,,,,,88.0,1.5,1.0,
71,,iti,,html-keyboard-response,71,148509,0.0-1.0-129.0,0,0,999,,,,,,31.0,,1.0,,,,,,,,,,,,,,,,,,,,,,,,,,89.5,2.0,,
72,,size_choice,,html-keyboard-response,72,150482,0.0-1.0-131.0,0,0,999,,,,,,32.0,32.0,1.0,500.0,XL-XL,,XL,XL,4.0,4.0,car,van,car6,van4,155.0,193.0,/static/Size_judgement/Stimuli/Size_stims/XL/car/car12.jpg,/static/Size_judgement/Stimuli/Size_stims/XL/van/van7.jpg,,,,,,,,,,,91.5,1.5,1.0,
73,,iti,,html-keyboard-response,73,151849,0.0-1.0-133.0,0,0,999,,,,,,32.0,,1.0,,,,,,,,,,,,,,,,,,,,,,,,,,93.0,0.5,,
74,,size_choice,,html-keyboard-response,74,153758,0.0-1.0-135.0,0,0,999,,,,,,33.0,33.0,1.0,1500.0,S-S,,S,S,1.0,1.0,screws,teabag,screws10,teabag9,129.0,138.0,/static/Size_judgement/Stimuli/Size_stims/S/screws/screws9.jpg,/static/Size_judgement/Stimuli/Size_stims/S/teabag/teabag5.jpg,,,,,,,,,,,93.5,1.5,1.0,
75,,iti,,html-keyboard-response,75,155497,0.0-1.0-137.0,0,0,999,,,,,,33.0,,1.0,,,,,,,,,,,,,,,,,,,,,,,,,,95.0,1.5,,
76,,size_choice,,html-keyboard-response,76,157925,0.0-1.0-139.0,0,0,999,,,,,,34.0,34.0,1.0,6000.0,M-L,0.0,M,L,2.0,3.0,ketchup,deskchair,ketchup4,deskchair9,93.0,18.0,/static/Size_judgement/Stimuli/Size_stims/M/ketchup/ketchup2.jpg,/static/Size_judgement/Stimuli/Size_stims/L/deskchair/deskchair3.jpg,,,,,,,,,,,96.5,1.5,1.0,
77,,iti,,html-keyboard-response,77,164618,0.0-1.0-141.0,0,0,999,,,,,,34.0,,1.0,,,,,,,,,,,,,,,,,,,,,,,,,,98.0,6.0,,
78,,size_choice,,html-keyboard-response,78,166703,0.0-1.0-143.0,0,0,999,,,,,,35.0,35.0,1.0,500.0,S-L,1.0,L,S,3.0,1.0,mailbox,teabag,mailbox8,teabag6,47.0,135.0,/static/Size_judgement/Stimuli/Size_stims/L/mailbox/mailbox10.jpg,/static/Size_judgement/Stimuli/Size_stims/S/teabag/teabag6.jpg,,,,,,,,,,,104.0,1.5,1.0,
79,,iti,,html-keyboard-response,79,167806,0.0-1.0-145.0,0,0,999,,,,,,35.0,,1.0,,,,,,,,,,,,,,,,,,,,,,,,,,105.5,0.5,,
80,,size_choice,,html-keyboard-response,80,169559,0.0-1.0-147.0,0,0,999,,,,,,36.0,36.0,1.0,500.0,M-XL,0.0,M,XL,2.0,4.0,coffeemaker,crane,coffeemaker9,crane2,68.0,161.0,/static/Size_judgement/Stimuli/Size_stims/M/coffeemaker/coffeemaker7.jpg,/static/Size_judgement/Stimuli/Size_stims/XL/crane/crane6.jpg,,,,,,,,,,,106.0,1.5,1.0,
81,,iti,,html-keyboard-response,81,170552,0.0-1.0-149.0,0,0,999,,,,,,36.0,,1.0,,,,,,,,,,,,,,,,,,,,,,,,,,107.5,0.5,,
82,,size_choice,,html-keyboard-response,82,172890,0.0-1.0-151.0,0,0,999,,,,,,37.0,37.0,1.0,5000.0,S-M,0.0,S,M,1.0,2.0,screws,hairdryer,screws7,hairdryer1,126.0,70.0,/static/Size_judgement/Stimuli/Size_stims/S/screws/screws1.jpg,/static/Size_judgement/Stimuli/Size_stims/M/hairdryer/hairdryer11.jpg,,,,,,,,,,,108.0,1.5,1.0,
83,,iti,,html-keyboard-response,83,178614,0.0-1.0-153.0,0,0,999,,,,,,37.0,,1.0,,,,,,,,,,,,,,,,,,,,,,,,,,109.5,5.0,,
84,,size_choice,,html-keyboard-response,84,180472,0.0-1.0-155.0,0,0,999,,,,,,38.0,38.0,1.0,1500.0,M-M,,M,M,2.0,2.0,ketchup,handsaw,ketchup9,handsaw5,98.0,84.0,/static/Size_judgement/Stimuli/Size_stims/M/ketchup/ketchup7.jpg,/static/Size_judgement/Stimuli/Size_stims/M/handsaw/handsaw1.jpg,,,,,,,,,,,114.5,1.5,1.0,
85,,iti,,html-keyboard-response,85,182680,0.0-1.0-157.0,0,0,999,,,,,,38.0,,1.0,,,,,,,,,,,,,,,,,,,,,,,,,,116.0,1.5,,
86,,size_choice,,html-keyboard-response,86,184609,0.0-1.0-159.0,0,0,999,,,,,,39.0,39.0,1.0,500.0,S-L,1.0,L,S,3.0,1.0,cooler,paperclip,cooler10,paperclip8,9.0,117.0,/static/Size_judgement/Stimuli/Size_stims/L/cooler/cooler6.jpg,/static/Size_judgement/Stimuli/Size_stims/S/paperclip/paperclip5.jpg,,,,,,,,,,,117.5,1.5,1.0,
87,,iti,,html-keyboard-response,87,185809,0.0-1.0-161.0,0,0,999,,,,,,39.0,,1.0,,,,,,,,,,,,,,,,,,,,,,,,,,119.0,0.5,,
88,,size_choice,,html-keyboard-response,88,187609,0.0-1.0-163.0,0,0,999,,,,,,40.0,40.0,1.0,5500.0,M-L,0.0,M,L,2.0,3.0,coffeemaker,cooler,coffeemaker6,cooler1,65.0,0.0,/static/Size_judgement/Stimuli/Size_stims/M/coffeemaker/coffeemaker8.jpg,/static/Size_judgement/Stimuli/Size_stims/L/cooler/cooler8.jpg,,,,,,,,,,,119.5,1.5,1.0,
89,,iti,,html-keyboard-response,89,193608,0.0-1.0-165.0,0,0,999,,,,,,40.0,,1.0,,,,,,,,,,,,,,,,,,,,,,,,,,121.0,5.5,,
90,,size_choice,,html-keyboard-response,90,195678,0.0-1.0-167.0,0,0,999,,,,,,41.0,41.0,1.0,3000.0,S-M,0.0,S,M,1.0,2.0,screws,handsaw,screws6,handsaw10,125.0,89.0,/static/Size_judgement/Stimuli/Size_stims/S/screws/screws3.jpg,/static/Size_judgement/Stimuli/Size_stims/M/handsaw/handsaw10.jpg,,,,,,,,,,,126.5,1.5,1.0,
91,,iti,,html-keyboard-response,91,199458,0.0-1.0-169.0,0,0,999,,,,,,41.0,,1.0,,,,,,,,,,,,,,,,,,,,,,,,,,128.0,3.0,,
92,,size_choice,,html-keyboard-response,92,201528,0.0-1.0-171.0,0,0,999,,,,,,42.0,42.0,1.0,500.0,L-XL,1.0,XL,L,4.0,3.0,car,dishwasher,car10,dishwasher2,159.0,21.0,/static/Size_judgement/Stimuli/Size_stims/XL/car/car9.jpg,/static/Size_judgement/Stimuli/Size_stims/L/dishwasher/dishwasher9.jpg,,,,,,,,,,,131.0,1.5,1.0,
93,,iti,,html-keyboard-response,93,202463,0.0-1.0-173.0,0,0,999,,,,,,42.0,,1.0,,,,,,,,,,,,,,,,,,,,,,,,,,132.5,0.5,,
94,,size_choice,,html-keyboard-response,94,204762,0.0-1.0-175.0,0,0,999,,,,,,43.0,43.0,1.0,1000.0,S-XL,0.0,S,XL,1.0,4.0,thread,tractor,thread4,tractor1,143.0,180.0,/static/Size_judgement/Stimuli/Size_stims/S/thread/thread5.jpg,/static/Size_judgement/Stimuli/Size_stims/XL/tractor/tractor6.jpg,,,,,,,,,,,133.0,1.5,1.0,
95,,iti,,html-keyboard-response,95,206783,0.0-1.0-177.0,0,0,999,,,,,,43.0,,1.0,,,,,,,,,,,,,,,,,,,,,,,,,,134.5,1.0,,
96,,size_choice,,html-keyboard-response,96,208777,0.0-1.0-179.0,0,0,999,,,,,,44.0,44.0,1.0,2000.0,XL-XL,,XL,XL,4.0,4.0,van,tractor,van7,tractor10,196.0,189.0,/static/Size_judgement/Stimuli/Size_stims/XL/van/van1.jpg,/static/Size_judgement/Stimuli/Size_stims/XL/tractor/tractor8.jpg,,,,,,,,,,,135.5,1.5,1.0,
97,,iti,,html-keyboard-response,97,211490,0.0-1.0-181.0,0,0,999,,,,,,44.0,,1.0,,,,,,,,,,,,,,,,,,,,,,,,,,137.0,2.0,,
98,,size_choice,,html-keyboard-response,98,213614,0.0-1.0-183.0,0,0,999,,,,,,45.0,45.0,1.0,500.0,XL-XL,,XL,XL,4.0,4.0,crane,van,crane10,van8,169.0,197.0,/static/Size_judgement/Stimuli/Size_stims/XL/crane/crane9.jpg,/static/Size_judgement/Stimuli/Size_stims/XL/van/van10.jpg,,,,,,,,,,,139.0,1.5,1.0,
99,,iti,,html-keyboard-response,99,214509,0.0-1.0-185.0,0,0,999,,,,,,45.0,,1.0,,,,,,,,,,,,,,,,,,,,,,,,,,140.5,0.5,,
100,,size_choice,,html-keyboard-response,100,216609,0.0-1.0-187.0,0,0,999,,,,,,46.0,46.0,1.0,500.0,M-L,0.0,M,L,2.0,3.0,hairdryer,mailbox,hairdryer9,mailbox6,78.0,45.0,/static/Size_judgement/Stimuli/Size_stims/M/hairdryer/hairdryer5.jpg,/static/Size_judgement/Stimuli/Size_stims/L/mailbox/mailbox6.jpg,,,,,,,,,,,141.0,1.5,1.0,
101,,iti,,html-keyboard-response,101,217460,0.0-1.0-189.0,0,0,999,,,,,,46.0,,1.0,,,,,,,,,,,,,,,,,,,,,,,,,,142.5,0.5,,
102,,size_choice,,html-keyboard-response,102,219729,0.0-1.0-191.0,0,0,999,,,,,,47.0,47.0,1.0,6000.0,S-XL,1.0,XL,S,4.0,1.0,dumptruck,die,dumptruck4,die1,173.0,100.0,/static/Size_judgement/Stimuli/Size_stims/XL/dumptruck/dumptruck1.jpg,/static/Size_judgement/Stimuli/Size_stims/S/die/die8.jpg,,,,,,,,,,,143.0,1.5,1.0,
103,,iti,,html-keyboard-response,103,225734,0.0-1.0-193.0,0,0,999,,,,,,47.0,,1.0,,,,,,,,,,,,,,,,,,,,,,,,,,144.5,6.0,,
104,,size_choice,,html-keyboard-response,104,227235,0.0-1.0-195.0,0,0,999,,,,,,48.0,48.0,1.0,2500.0,S-S,,S,S,1.0,1.0,paperclip,teabag,paperclip3,teabag2,112.0,131.0,/static/Size_judgement/Stimuli/Size_stims/S/paperclip/paperclip1.jpg,/static/Size_judgement/Stimuli/Size_stims/S/teabag/teabag8.jpg,,,,,,,,,,,150.5,1.5,1.0,
105,,iti,,html-keyboard-response,105,230635,0.0-1.0-197.0,0,0,999,,,,,,48.0,,1.0,,,,,,,,,,,,,,,,,,,,,,,,,,152.0,2.5,,
106,,size_choice,,html-keyboard-response,106,232559,0.0-1.0-199.0,0,0,999,,,,,,49.0,49.0,1.0,500.0,L-XL,1.0,XL,L,4.0,3.0,van,dishwasher,van9,dishwasher10,198.0,29.0,/static/Size_judgement/Stimuli/Size_stims/XL/van/van9.jpg,/static/Size_judgement/Stimuli/Size_stims/L/dishwasher/dishwasher1.jpg,,,,,,,,,,,154.5,1.5,1.0,
107,,iti,,html-keyboard-response,107,233891,0.0-1.0-201.0,0,0,999,,,,,,49.0,,1.0,,,,,,,,,,,,,,,,,,,,,,,,,,156.0,0.5,,
108,,size_choice,,html-keyboard-response,108,235993,0.0-1.0-203.0,0,0,999,,,,,,50.0,50.0,1.0,1500.0,XL-XL,,XL,XL,4.0,4.0,car,dumptruck,car8,dumptruck8,157.0,177.0,/static/Size_judgement/Stimuli/Size_stims/XL/car/car14.jpg,/static/Size_judgement/Stimuli/Size_stims/XL/dumptruck/dumptruck7.jpg,,,,,,,,,,,156.5,1.5,1.0,
109,,iti,,html-keyboard-response,109,238753,0.0-1.0-205.0,0,0,999,,,,,,50.0,,1.0,,,,,,,,,,,,,,,,,,,,,,,,,,158.0,1.5,,
110,,size_choice,,html-keyboard-response,110,240458,0.0-1.0-207.0,0,0,999,,,,,,51.0,51.0,1.0,1000.0,M-XL,1.0,XL,M,4.0,2.0,car,ketchup,car9,ketchup3,158.0,92.0,/static/Size_judgement/Stimuli/Size_stims/XL/car/car15.jpg,/static/Size_judgement/Stimuli/Size_stims/M/ketchup/ketchup10.jpg,,,,,,,,,,,159.5,1.5,1.0,
111,,iti,,html-keyboard-response,111,242503,0.0-1.0-209.0,0,0,999,,,,,,51.0,,1.0,,,,,,,,,,,,,,,,,,,,,,,,,,161.0,1.0,,
112,,size_choice,,html-keyboard-response,112,244797,0.0-1.0-211.0,0,0,999,,,,,,52.0,52.0,1.0,2500.0,M-XL,1.0,XL,M,4.0,2.0,crane,basketball,crane6,basketball5,165.0,54.0,/static/Size_judgement/Stimuli/Size_stims/XL/crane/crane2.jpg,/static/Size_judgement/Stimuli/Size_stims/M/basketball/basketball3.jpg,,,,,,,,,,,162.0,1.5,1.0,
113,,iti,,html-keyboard-response,113,247734,0.0-1.0-213.0,0,0,999,,,,,,52.0,,1.0,,,,,,,,,,,,,,,,,,,,,,,,,,163.5,2.5,,
114,,size_choice,,html-keyboard-response,114,249460,0.0-1.0-215.0,0,0,999,,,,,,53.0,53.0,1.0,2000.0,L-XL,1.0,XL,L,4.0,3.0,dumptruck,dishwasher,dumptruck10,dishwasher7,179.0,26.0,/static/Size_judgement/Stimuli/Size_stims/XL/dumptruck/dumptruck4.jpg,/static/Size_judgement/Stimuli/Size_stims/L/dishwasher/dishwasher7.jpg,,,,,,,,,,,166.0,1.5,1.0,
115,,iti,,html-keyboard-response,115,252859,0.0-1.0-217.0,0,0,999,,,,,,53.0,,1.0,,,,,,,,,,,,,,,,,,,,,,,,,,167.5,2.0,,
116,,size_choice,,html-keyboard-response,116,254682,0.0-1.0-219.0,0,0,999,,,,,,54.0,54.0,1.0,1000.0,S-XL,1.0,XL,S,4.0,1.0,crane,teabag,crane3,teabag5,162.0,134.0,/static/Size_judgement/Stimuli/Size_stims/XL/crane/crane4.jpg,/static/Size_judgement/Stimuli/Size_stims/S/teabag/teabag2.jpg,,,,,,,,,,,169.5,1.5,1.0,
117,,iti,,html-keyboard-response,117,256458,0.0-1.0-221.0,0,0,999,,,,,,54.0,,1.0,,,,,,,,,,,,,,,,,,,,,,,,,,171.0,1.0,,
118,,size_choice,,html-keyboard-response,118,258650,0.0-1.0-223.0,0,0,999,,,,,,55.0,55.0,1.0,1500.0,S-XL,0.0,S,XL,1.0,4.0,thread,crane,thread10,crane1,149.0,160.0,/static/Size_judgement/Stimuli/Size_stims/S/thread/thread9.jpg,/static/Size_judgement/Stimuli/Size_stims/XL/crane/crane7.jpg,,,,,,,,,,,172.0,1.5,1.0,
119,,iti,,html-keyboard-response,119,260685,0.0-1.0-225.0,0,0,999,,,,,,55.0,,1.0,,,,,,,,,,,,,,,,,,,,,,,,,,173.5,1.5,,
120,,size_choice,,html-keyboard-response,120,262186,0.0-1.0-227.0,0,0,999,,,,,,56.0,56.0,1.0,1000.0,M-XL,0.0,M,XL,2.0,4.0,basketball,dumptruck,basketball4,dumptruck9,53.0,178.0,/static/Size_judgement/Stimuli/Size_stims/M/basketball/basketball1.jpg,/static/Size_judgement/Stimuli/Size_stims/XL/dumptruck/dumptruck5.jpg,,,,,,,,,,,175.0,1.5,1.0,
121,,iti,,html-keyboard-response,121,263187,0.0-1.0-229.0,0,0,999,,,,,,56.0,,1.0,,,,,,,,,,,,,,,,,,,,,,,,,,176.5,1.0,,
122,,size_choice,,html-keyboard-response,122,264694,0.0-1.0-231.0,0,0,999,,,,,,57.0,57.0,1.0,5000.0,S-XL,0.0,S,XL,1.0,4.0,thread,dumptruck,thread7,dumptruck7,146.0,176.0,/static/Size_judgement/Stimuli/Size_stims/S/thread/thread3.jpg,/static/Size_judgement/Stimuli/Size_stims/XL/dumptruck/dumptruck6.jpg,,,,,,,,,,,177.5,1.5,1.0,
123,,iti,,html-keyboard-response,123,269697,0.0-1.0-233.0,0,0,999,,,,,,57.0,,1.0,,,,,,,,,,,,,,,,,,,,,,,,,,179.0,5.0,,
124,,size_choice,,html-keyboard-response,124,271203,0.0-1.0-235.0,0,0,999,,,,,,58.0,58.0,1.0,2000.0,S-L,1.0,L,S,3.0,1.0,garbagecan,die,garbagecan1,die5,30.0,104.0,/static/Size_judgement/Stimuli/Size_stims/L/garbagecan/garbagecan4.jpg,/static/Size_judgement/Stimuli/Size_stims/S/die/die3.jpg,,,,,,,,,,,184.0,1.5,1.0,
125,,iti,,html-keyboard-response,125,273205,0.0-1.0-237.0,0,0,999,,,,,,58.0,,1.0,,,,,,,,,,,,,,,,,,,,,,,,,,185.5,2.0,,
126,,size_choice,,html-keyboard-response,126,274710,0.0-1.0-239.0,0,0,999,,,,,,59.0,59.0,1.0,1000.0,S-XL,1.0,XL,S,4.0,1.0,car,teabag,car5,teabag1,154.0,130.0,/static/Size_judgement/Stimuli/Size_stims/XL/car/car11.jpg,/static/Size_judgement/Stimuli/Size_stims/S/teabag/teabag9.jpg,,,,,,,,,,,187.5,1.5,1.0,
127,,iti,,html-keyboard-response,127,275716,0.0-1.0-241.0,0,0,999,,,,,,59.0,,1.0,,,,,,,,,,,,,,,,,,,,,,,,,,189.0,1.0,,
128,,size_choice,,html-keyboard-response,128,277219,0.0-1.0-243.0,0,0,999,,,,,,60.0,60.0,1.0,3500.0,M-L,1.0,L,M,3.0,2.0,cooler,basketball,cooler4,basketball6,3.0,55.0,/static/Size_judgement/Stimuli/Size_stims/L/cooler/cooler3.jpg,/static/Size_judgement/Stimuli/Size_stims/M/basketball/basketball2.jpg,,,,,,,,,,,190.0,1.5,1.0,
129,,iti,,html-keyboard-response,129,280725,0.0-1.0-245.0,0,0,999,,,,,,60.0,,1.0,,,,,,,,,,,,,,,,,,,,,,,,,,191.5,3.5,,
130,,size_choice,,html-keyboard-response,130,282229,0.0-1.0-247.0,0,0,999,,,,,,61.0,61.0,1.0,3500.0,S-M,0.0,S,M,1.0,2.0,paperclip,hairdryer,paperclip1,hairdryer6,110.0,75.0,/static/Size_judgement/Stimuli/Size_stims/S/paperclip/paperclip9.jpg,/static/Size_judgement/Stimuli/Size_stims/M/hairdryer/hairdryer8.jpg,,,,,,,,,,,195.0,1.5,1.0,
131,,iti,,html-keyboard-response,131,285735,0.0-1.0-249.0,0,0,999,,,,,,61.0,,1.0,,,,,,,,,,,,,,,,,,,,,,,,,,196.5,3.5,,
132,,size_choice,,html-keyboard-response,132,287238,0.0-1.0-251.0,0,0,999,,,,,,62.0,62.0,1.0,4000.0,M-XL,0.0,M,XL,2.0,4.0,coffeemaker,tractor,coffeemaker5,tractor9,64.0,188.0,/static/Size_judgement/Stimuli/Size_stims/M/coffeemaker/coffeemaker10.jpg,/static/Size_judgement/Stimuli/Size_stims/XL/tractor/tractor9.jpg,,,,,,,,,,,200.0,1.5,1.0,
133,,iti,,html-keyboard-response,133,291242,0.0-1.0-253.0,0,0,999,,,,,,62.0,,1.0,,,,,,,,,,,,,,,,,,,,,,,,,,201.5,4.0,,
134,,size_choice,,html-keyboard-response,134,292749,0.0-1.0-255.0,0,0,999,,,,,,63.0,63.0,1.0,2500.0,M-L,0.0,M,L,2.0,3.0,handsaw,garbagecan,handsaw3,garbagecan2,82.0,31.0,/static/Size_judgement/Stimuli/Size_stims/M/handsaw/handsaw2.jpg,/static/Size_judgement/Stimuli/Size_stims/L/garbagecan/garbagecan5.jpg,,,,,,,,,,,205.5,1.5,1.0,
135,,iti,,html-keyboard-response,135,295251,0.0-1.0-257.0,0,0,999,,,,,,63.0,,1.0,,,,,,,,,,,,,,,,,,,,,,,,,,207.0,2.5,,
136,,size_choice,,html-keyboard-response,136,296759,0.0-1.0-259.0,0,0,999,,,,,,64.0,64.0,1.0,1500.0,S-L,1.0,L,S,3.0,1.0,mailbox,paperclip,mailbox7,paperclip5,46.0,114.0,/static/Size_judgement/Stimuli/Size_stims/L/mailbox/mailbox7.jpg,/static/Size_judgement/Stimuli/Size_stims/S/paperclip/paperclip2.jpg,,,,,,,,,,,209.5,1.5,1.0,
137,,iti,,html-keyboard-response,137,298260,0.0-1.0-261.0,0,0,999,,,,,,64.0,,1.0,,,,,,,,,,,,,,,,,,,,,,,,,,211.0,1.5,,
138,,size_choice,,html-keyboard-response,138,299765,0.0-1.0-263.0,0,0,999,,,,,,65.0,65.0,1.0,1500.0,M-L,0.0,M,L,2.0,3.0,hairdryer,garbagecan,hairdryer7,garbagecan4,76.0,33.0,/static/Size_judgement/Stimuli/Size_stims/M/hairdryer/hairdryer3.jpg,/static/Size_judgement/Stimuli/Size_stims/L/garbagecan/garbagecan6.jpg,,,,,,,,,,,212.5,1.5,1.0,
139,,iti,,html-keyboard-response,139,301268,0.0-1.0-265.0,0,0,999,,,,,,65.0,,1.0,,,,,,,,,,,,,,,,,,,,,,,,,,214.0,1.5,,
140,,size_choice,,html-keyboard-response,140,302776,0.0-1.0-267.0,0,0,999,,,,,,66.0,66.0,1.0,1000.0,S-XL,0.0,S,XL,1.0,4.0,thread,crane,thread5,crane8,144.0,167.0,/static/Size_judgement/Stimuli/Size_stims/S/thread/thread1.jpg,/static/Size_judgement/Stimuli/Size_stims/XL/crane/crane10.jpg,,,,,,,,,,,215.5,1.5,1.0,
141,,iti,,html-keyboard-response,141,303782,0.0-1.0-269.0,0,0,999,,,,,,66.0,,1.0,,,,,,,,,,,,,,,,,,,,,,,,,,217.0,1.0,,
142,,size_choice,,html-keyboard-response,142,305284,0.0-1.0-271.0,0,0,999,,,,,,67.0,67.0,1.0,2000.0,S-L,0.0,S,L,1.0,3.0,teabag,garbagecan,teabag8,garbagecan3,137.0,32.0,/static/Size_judgement/Stimuli/Size_stims/S/teabag/teabag7.jpg,/static/Size_judgement/Stimuli/Size_stims/L/garbagecan/garbagecan7.jpg,,,,,,,,,,,218.0,1.5,1.0,
143,,iti,,html-keyboard-response,143,307289,0.0-1.0-273.0,0,0,999,,,,,,67.0,,1.0,,,,,,,,,,,,,,,,,,,,,,,,,,219.5,2.0,,
144,,size_choice,,html-keyboard-response,144,308794,0.0-1.0-275.0,0,0,999,,,,,,68.0,68.0,1.0,2500.0,S-XL,1.0,XL,S,4.0,1.0,dumptruck,thread,dumptruck2,thread3,171.0,142.0,/static/Size_judgement/Stimuli/Size_stims/XL/dumptruck/dumptruck8.jpg,/static/Size_judgement/Stimuli/Size_stims/S/thread/thread4.jpg,,,,,,,,,,,221.5,1.5,1.0,
145,,iti,,html-keyboard-response,145,311299,0.0-1.0-277.0,0,0,999,,,,,,68.0,,1.0,,,,,,,,,,,,,,,,,,,,,,,,,,223.0,2.5,,
146,,size_choice,,html-keyboard-response,146,312807,0.0-1.0-279.0,0,0,999,,,,,,69.0,69.0,1.0,4000.0,S-XL,0.0,S,XL,1.0,4.0,paperclip,van,paperclip4,van3,113.0,192.0,/static/Size_judgement/Stimuli/Size_stims/S/paperclip/paperclip3.jpg,/static/Size_judgement/Stimuli/Size_stims/XL/van/van6.jpg,,,,,,,,,,,225.5,1.5,1.0,
147,,iti,,html-keyboard-response,147,316810,0.0-1.0-281.0,0,0,999,,,,,,69.0,,1.0,,,,,,,,,,,,,,,,,,,,,,,,,,227.0,4.0,,
148,,size_choice,,html-keyboard-response,148,318318,0.0-1.0-283.0,0,0,999,,,,,,70.0,70.0,1.0,2000.0,L-L,,L,L,3.0,3.0,dishwasher,mailbox,dishwasher9,mailbox1,28.0,40.0,/static/Size_judgement/Stimuli/Size_stims/L/dishwasher/dishwasher2.jpg,/static/Size_judgement/Stimuli/Size_stims/L/mailbox/mailbox3.jpg,,,,,,,,,,,231.0,1.5,1.0,
149,,iti,,html-keyboard-response,149,320322,0.0-1.0-285.0,0,0,999,,,,,,70.0,,1.0,,,,,,,,,,,,,,,,,,,,,,,,,,232.5,2.0,,
150,,size_choice,,html-keyboard-response,150,321825,0.0-1.0-287.0,0,0,999,,,,,,71.0,71.0,1.0,4500.0,S-S,,S,S,1.0,1.0,die,paperclip,die8,paperclip9,107.0,118.0,/static/Size_judgement/Stimuli/Size_stims/S/die/die5.jpg,/static/Size_judgement/Stimuli/Size_stims/S/paperclip/paperclip4.jpg,,,,,,,,,,,234.5,1.5,1.0,
151,,iti,,html-keyboard-response,151,326330,0.0-1.0-289.0,0,0,999,,,,,,71.0,,1.0,,,,,,,,,,,,,,,,,,,,,,,,,,236.0,4.5,,
152,,size_choice,,html-keyboard-response,152,327838,0.0-1.0-291.0,0,0,999,,,,,,72.0,72.0,1.0,1000.0,M-XL,1.0,XL,M,4.0,2.0,tractor,ketchup,tractor8,ketchup1,187.0,90.0,/static/Size_judgement/Stimuli/Size_stims/XL/tractor/tractor10.jpg,/static/Size_judgement/Stimuli/Size_stims/M/ketchup/ketchup8.jpg,,,,,,,,,,,240.5,1.5,1.0,
153,,iti,,html-keyboard-response,153,328843,0.0-1.0-293.0,0,0,999,,,,,,72.0,,1.0,,,,,,,,,,,,,,,,,,,,,,,,,,242.0,1.0,,
154,,size_choice,,html-keyboard-response,154,330345,0.0-1.0-295.0,0,0,999,,,,,,73.0,73.0,1.0,2000.0,L-L,,L,L,3.0,3.0,deskchair,garbagecan,deskchair2,garbagecan5,11.0,34.0,/static/Size_judgement/Stimuli/Size_stims/L/deskchair/deskchair8.jpg,/static/Size_judgement/Stimuli/Size_stims/L/garbagecan/garbagecan3.jpg,,,,,,,,,,,243.0,1.5,1.0,
155,,iti,,html-keyboard-response,155,332352,0.0-1.0-297.0,0,0,999,,,,,,73.0,,1.0,,,,,,,,,,,,,,,,,,,,,,,,,,244.5,2.0,,
156,,size_choice,,html-keyboard-response,156,333859,0.0-1.0-299.0,0,0,999,,,,,,74.0,74.0,1.0,2000.0,S-L,1.0,L,S,3.0,1.0,dishwasher,thread,dishwasher3,thread2,22.0,141.0,/static/Size_judgement/Stimuli/Size_stims/L/dishwasher/dishwasher8.jpg,/static/Size_judgement/Stimuli/Size_stims/S/thread/thread6.jpg,,,,,,,,,,,246.5,1.5,1.0,
157,,iti,,html-keyboard-response,157,335861,0.0-1.0-301.0,0,0,999,,,,,,74.0,,1.0,,,,,,,,,,,,,,,,,,,,,,,,,,248.0,2.0,,
158,,size_choice,,html-keyboard-response,158,337363,0.0-1.0-303.0,0,0,999,,,,,,75.0,75.0,1.0,1000.0,S-L,1.0,L,S,3.0,1.0,dishwasher,teabag,dishwasher5,teabag7,24.0,136.0,/static/Size_judgement/Stimuli/Size_stims/L/dishwasher/dishwasher4.jpg,/static/Size_judgement/Stimuli/Size_stims/S/teabag/teabag10.jpg,,,,,,,,,,,250.0,1.5,1.0,
159,,iti,,html-keyboard-response,159,338369,0.0-1.0-305.0,0,0,999,,,,,,75.0,,1.0,,,,,,,,,,,,,,,,,,,,,,,,,,251.5,1.0,,
160,,size_choice,,html-keyboard-response,160,339872,0.0-1.0-307.0,0,0,999,,,,,,76.0,76.0,1.0,4500.0,M-L,1.0,L,M,3.0,2.0,cooler,handsaw,cooler5,handsaw4,4.0,83.0,/static/Size_judgement/Stimuli/Size_stims/L/cooler/cooler10.jpg,/static/Size_judgement/Stimuli/Size_stims/M/handsaw/handsaw3.jpg,,,,,,,,,,,252.5,1.5,1.0,
161,,iti,,html-keyboard-response,161,344378,0.0-1.0-309.0,0,0,999,,,,,,76.0,,1.0,,,,,,,,,,,,,,,,,,,,,,,,,,254.0,4.5,,
162,,size_choice,,html-keyboard-response,162,345884,0.0-1.0-311.0,0,0,999,,,,,,77.0,77.0,1.0,500.0,M-L,1.0,L,M,3.0,2.0,dishwasher,coffeemaker,dishwasher6,coffeemaker7,25.0,66.0,/static/Size_judgement/Stimuli/Size_stims/L/dishwasher/dishwasher6.jpg,/static/Size_judgement/Stimuli/Size_stims/M/coffeemaker/coffeemaker9.jpg,,,,,,,,,,,258.5,1.5,1.0,
163,,iti,,html-keyboard-response,163,346388,0.0-1.0-313.0,0,0,999,,,,,,77.0,,1.0,,,,,,,,,,,,,,,,,,,,,,,,,,260.0,0.5,,
164,,size_choice,,html-keyboard-response,164,347891,0.0-1.0-315.0,0,0,999,,,,,,78.0,78.0,1.0,4000.0,S-M,1.0,M,S,2.0,1.0,handsaw,paperclip,handsaw6,paperclip10,85.0,119.0,/static/Size_judgement/Stimuli/Size_stims/M/handsaw/handsaw4.jpg,/static/Size_judgement/Stimuli/Size_stims/S/paperclip/paperclip10.jpg,,,,,,,,,,,260.5,1.5,1.0,
165,,iti,,html-keyboard-response,165,351892,0.0-1.0-317.0,0,0,999,,,,,,78.0,,1.0,,,,,,,,,,,,,,,,,,,,,,,,,,262.0,4.0,,
166,,size_choice,,html-keyboard-response,166,353397,0.0-1.0-319.0,0,0,999,,,,,,79.0,79.0,1.0,1000.0,M-L,0.0,M,L,2.0,3.0,hairdryer,deskchair,hairdryer8,deskchair5,77.0,14.0,/static/Size_judgement/Stimuli/Size_stims/M/hairdryer/hairdryer1.jpg,/static/Size_judgement/Stimuli/Size_stims/L/deskchair/deskchair7.jpg,,,,,,,,,,,266.0,1.5,1.0,
167,,iti,,html-keyboard-response,167,354403,0.0-1.0-321.0,0,0,999,,,,,,79.0,,1.0,,,,,,,,,,,,,,,,,,,,,,,,,,267.5,1.0,,
168,,size_choice,,html-keyboard-response,168,355905,0.0-1.0-323.0,0,0,999,,,,,,80.0,80.0,1.0,500.0,M-M,,M,M,2.0,2.0,ketchup,hairdryer,ketchup5,hairdryer5,94.0,74.0,/static/Size_judgement/Stimuli/Size_stims/M/ketchup/ketchup3.jpg,/static/Size_judgement/Stimuli/Size_stims/M/hairdryer/hairdryer15.jpg,,,,,,,,,,,268.5,1.5,1.0,
169,,iti,,html-keyboard-response,169,356410,0.0-1.0-325.0,0,0,999,,,,,,80.0,,1.0,,,,,,,,,,,,,,,,,,,,,,,,,,270.0,0.5,,
170,,size_choice,,html-keyboard-response,170,357912,0.0-1.0-327.0,0,0,999,,,,,,81.0,81.0,1.0,1000.0,S-L,1.0,L,S,3.0,1.0,cooler,paperclip,cooler6,paperclip2,5.0,111.0,/static/Size_judgement/Stimuli/Size_stims/L/cooler/cooler1.jpg,/static/Size_judgement/Stimuli/Size_stims/S/paperclip/paperclip8.jpg,,,,,,,,,,,270.5,1.5,1.0,
171,,iti,,html-keyboard-response,171,358917,0.0-1.0-329.0,0,0,999,,,,,,81.0,,1.0,,,,,,,,,,,,,,,,,,,,,,,,,,272.0,1.0,,
172,,size_choice,,html-keyboard-response,172,360421,0.0-1.0-331.0,0,0,999,,,,,,82.0,82.0,1.0,1000.0,M-XL,1.0,XL,M,4.0,2.0,car,hairdryer,car3,hairdryer4,152.0,73.0,/static/Size_judgement/Stimuli/Size_stims/XL/car/car4.jpg,/static/Size_judgement/Stimuli/Size_stims/M/hairdryer/hairdryer16.jpg,,,,,,,,,,,273.0,1.5,1.0,
173,,iti,,html-keyboard-response,173,361427,0.0-1.0-333.0,0,0,999,,,,,,82.0,,1.0,,,,,,,,,,,,,,,,,,,,,,,,,,274.5,1.0,,
174,,size_choice,,html-keyboard-response,174,362935,0.0-1.0-335.0,0,0,999,,,,,,83.0,83.0,1.0,500.0,M-M,,M,M,2.0,2.0,hairdryer,basketball,hairdryer3,basketball10,72.0,59.0,/static/Size_judgement/Stimuli/Size_stims/M/hairdryer/hairdryer17.jpg,/static/Size_judgement/Stimuli/Size_stims/M/basketball/basketball4.jpg,,,,,,,,,,,275.5,1.5,1.0,
175,,iti,,html-keyboard-response,175,363437,0.0-1.0-337.0,0,0,999,,,,,,83.0,,1.0,,,,,,,,,,,,,,,,,,,,,,,,,,277.0,0.5,,
176,,size_choice,,html-keyboard-response,176,364943,0.0-1.0-339.0,0,0,999,,,,,,84.0,84.0,1.0,5000.0,M-XL,0.0,M,XL,2.0,4.0,coffeemaker,crane,coffeemaker1,crane9,60.0,168.0,/static/Size_judgement/Stimuli/Size_stims/M/coffeemaker/coffeemaker14.jpg,/static/Size_judgement/Stimuli/Size_stims/XL/crane/crane8.jpg,,,,,,,,,,,277.5,1.5,1.0,
177,,iti,,html-keyboard-response,177,369946,0.0-1.0-341.0,0,0,999,,,,,,84.0,,1.0,,,,,,,,,,,,,,,,,,,,,,,,,,279.0,5.0,,
178,,size_choice,,html-keyboard-response,178,371453,0.0-1.0-343.0,0,0,999,,,,,,85.0,85.0,1.0,4500.0,M-M,,M,M,2.0,2.0,coffeemaker,handsaw,coffeemaker4,handsaw9,63.0,88.0,/static/Size_judgement/Stimuli/Size_stims/M/coffeemaker/coffeemaker11.jpg,/static/Size_judgement/Stimuli/Size_stims/M/handsaw/handsaw6.jpg,,,,,,,,,,,284.0,1.5,1.0,
179,,iti,,html-keyboard-response,179,375959,0.0-1.0-345.0,0,0,999,,,,,,85.0,,1.0,,,,,,,,,,,,,,,,,,,,,,,,,,285.5,4.5,,
180,,size_choice,,html-keyboard-response,180,377462,0.0-1.0-347.0,0,0,999,,,,,,86.0,86.0,1.0,1500.0,S-XL,1.0,XL,S,4.0,1.0,crane,screws,crane7,screws3,166.0,122.0,/static/Size_judgement/Stimuli/Size_stims/XL/crane/crane3.jpg,/static/Size_judgement/Stimuli/Size_stims/S/screws/screws7.jpg,,,,,,,,,,,290.0,1.5,1.0,
181,,iti,,html-keyboard-response,181,378965,0.0-1.0-349.0,0,0,999,,,,,,86.0,,1.0,,,,,,,,,,,,,,,,,,,,,,,,,,291.5,1.5,,
182,,size_choice,,html-keyboard-response,182,380470,0.0-1.0-351.0,0,0,999,,,,,,87.0,87.0,1.0,2000.0,S-XL,0.0,S,XL,1.0,4.0,die,tractor,die10,tractor3,109.0,182.0,/static/Size_judgement/Stimuli/Size_stims/S/die/die6.jpg,/static/Size_judgement/Stimuli/Size_stims/XL/tractor/tractor5.jpg,,,,,,,,,,,293.0,1.5,1.0,
183,,iti,,html-keyboard-response,183,382476,0.0-1.0-353.0,0,0,999,,,,,,87.0,,1.0,,,,,,,,,,,,,,,,,,,,,,,,,,294.5,2.0,,
184,,size_choice,,html-keyboard-response,184,383983,0.0-1.0-355.0,0,0,999,,,,,,88.0,88.0,1.0,1000.0,M-L,0.0,M,L,2.0,3.0,hairdryer,dishwasher,hairdryer10,dishwasher8,79.0,27.0,/static/Size_judgement/Stimuli/Size_stims/M/hairdryer/hairdryer6.jpg,/static/Size_judgement/Stimuli/Size_stims/L/dishwasher/dishwasher3.jpg,,,,,,,,,,,296.5,1.5,1.0,
185,,iti,,html-keyboard-response,185,384988,0.0-1.0-357.0,0,0,999,,,,,,88.0,,1.0,,,,,,,,,,,,,,,,,,,,,,,,,,298.0,1.0,,
186,,size_choice,,html-keyboard-response,186,386493,0.0-1.0-359.0,0,0,999,,,,,,89.0,89.0,1.0,500.0,M-L,1.0,L,M,3.0,2.0,garbagecan,ketchup,garbagecan10,ketchup8,39.0,97.0,/static/Size_judgement/Stimuli/Size_stims/L/garbagecan/garbagecan11.jpg,/static/Size_judgement/Stimuli/Size_stims/M/ketchup/ketchup5.jpg,,,,,,,,,,,299.0,1.5,1.0,
187,,iti,,html-keyboard-response,187,386997,0.0-1.0-361.0,0,0,999,,,,,,89.0,,1.0,,,,,,,,,,,,,,,,,,,,,,,,,,300.5,0.5,,0.03
188,,size_final_tally,,html-keyboard-response,188,576527,0.0-2.0,0,0,999,,189529.0,,,83.0,,,,,,,,,,,,,,,,,,,,,,,,,,,,,,,,
