,success,ttype,start_time,trial_type,trial_index,time_elapsed,internal_node_id,warning,missed_checkup,PID,view_history,rt,responses,repeat_instructions,key_press,index,trial_num,block,iti,pair_type,high_size_on_left,left_size_group,right_size_group,left_size_num,right_size_num,left_category,right_category,left_exemplar,right_exemplar,left_index,right_index,left_img_path,right_img_path,left_chosen,chosen_category,unchosen_category,chosen_size_group,unchosen_size_group,chosen_size_num,unchosen_size_num,chosen_exemplar,unchosen_exemplar,accuracy,onset,duration,no_response,size_final_tally
0,True,full_screen,d06032022hr1639,fullscreen,0,5496,0.0-0.0,0,0,27789,,,,,,,,,,,,,,,,,,,,,,,,,,,,,,,,,,,,,
1,,size_instructions,,instructions,1,70226,0.0-1.0-0.0-0.0,0,0,27789,"[{""page_index"":0,""viewing_time"":14629},{""page_index"":1,""viewing_time"":16941},{""page_index"":2,""viewing_time"":6688},{""page_index"":3,""viewing_time"":5231},{""page_index"":4,""viewing_time"":18205},{""page_index"":5,""viewing_time"":3033}]",64729.0,,,,,,,,,,,,,,,,,,,,,,,,,,,,,,,,,,,
2,,size_comprehension_check,,survey-multi-choice,2,86107,0.0-1.0-0.0-1.0,0,0,27789,,15874.0,"{""Q0"":""True"",""Q1"":""Size in the real world"",""Q2"":""True"",""Q3"":""D for left and K for right""}",0.0,,,,,,,,,,,,,,,,,,,,,,,,,,,,,,,,,
3,,,,html-keyboard-response,3,90327,0.0-1.0-1.0,0,0,27789,,4215.0,,,68.0,,,,,,,,,,,,,,,,,,,,,,,,,,,,,,,,
4,,size_choice,,html-keyboard-response,4,91566,0.0-1.0-2.0,0,0,27789,,1234.0,,,68.0,0.0,0.0,1.0,1500.0,S-M,1.0,M,S,2.0,1.0,hairdryer,paperclip,hairdryer8,paperclip1,77.0,110.0,/static/Size_judgement/Stimuli/Size_stims/M/hairdryer/hairdryer1.jpg,/static/Size_judgement/Stimuli/Size_stims/S/paperclip/paperclip9.jpg,1.0,hairdryer,paperclip,M,S,2.0,1.0,hairdryer8,paperclip1,1.0,1.234,1.234,0.0,
5,,size_choice_confirmation,,html-keyboard-response,5,91837,0.0-1.0-3.0-0.0,0,0,27789,,,,,,0.0,,,,,,,,,,,,,,,,,,,,,,,,,,,,1.5,0.266,,
6,,iti,,html-keyboard-response,6,93340,0.0-1.0-4.0,0,0,27789,,,,,,,,,,,,,,,,,,,,,,,,,,,,,,,,,,3.0,1.5,,
7,,size_choice,,html-keyboard-response,7,94199,0.0-1.0-6.0,0,0,27789,,856.0,,,75.0,1.0,1.0,1.0,1000.0,S-XL,0.0,S,XL,1.0,4.0,die,van,die5,van5,104.0,194.0,/static/Size_judgement/Stimuli/Size_stims/S/die/die3.jpg,/static/Size_judgement/Stimuli/Size_stims/XL/van/van3.jpg,0.0,van,die,XL,S,4.0,1.0,van5,die5,1.0,3.856,0.856,0.0,
8,,size_choice_confirmation,,html-keyboard-response,8,94848,0.0-1.0-7.0-0.0,0,0,27789,,,,,,1.0,,,,,,,,,,,,,,,,,,,,,,,,,,,,4.5,0.644,,
9,,iti,,html-keyboard-response,9,95852,0.0-1.0-8.0,0,0,27789,,,,,,,,,,,,,,,,,,,,,,,,,,,,,,,,,,5.5,1.0,,
10,,size_choice,,html-keyboard-response,10,97120,0.0-1.0-10.0,0,0,27789,,1265.0,,,68.0,2.0,2.0,1.0,1000.0,S-L,1.0,L,S,3.0,1.0,dishwasher,thread,dishwasher8,thread1,27.0,140.0,/static/Size_judgement/Stimuli/Size_stims/L/dishwasher/dishwasher3.jpg,/static/Size_judgement/Stimuli/Size_stims/S/thread/thread7.jpg,1.0,dishwasher,thread,L,S,3.0,1.0,dishwasher8,thread1,1.0,6.765,1.265,0.0,
11,,size_choice_confirmation,,html-keyboard-response,11,97359,0.0-1.0-11.0-0.0,0,0,27789,,,,,,2.0,,,,,,,,,,,,,,,,,,,,,,,,,,,,7.0,0.235,,
12,,iti,,html-keyboard-response,12,98362,0.0-1.0-12.0,0,0,27789,,,,,,,,,,,,,,,,,,,,,,,,,,,,,,,,,,8.0,1.0,,
13,,size_choice,,html-keyboard-response,13,99543,0.0-1.0-14.0,0,0,27789,,1178.0,,,68.0,3.0,3.0,1.0,1500.0,M-XL,1.0,XL,M,4.0,2.0,van,basketball,van4,basketball9,193.0,58.0,/static/Size_judgement/Stimuli/Size_stims/XL/van/van7.jpg,/static/Size_judgement/Stimuli/Size_stims/M/basketball/basketball5.jpg,1.0,van,basketball,XL,M,4.0,2.0,van4,basketball9,1.0,9.178,1.178,0.0,
14,,size_choice_confirmation,,html-keyboard-response,14,99879,0.0-1.0-15.0-0.0,0,0,27789,,,,,,3.0,,,,,,,,,,,,,,,,,,,,,,,,,,,,9.5,0.322,,
15,,iti,,html-keyboard-response,15,101382,0.0-1.0-16.0,0,0,27789,,,,,,,,,,,,,,,,,,,,,,,,,,,,,,,,,,11.0,1.5,,
16,,size_choice,,html-keyboard-response,16,102472,0.0-1.0-18.0,0,0,27789,,1087.0,,,68.0,4.0,4.0,1.0,1500.0,M-XL,1.0,XL,M,4.0,2.0,crane,handsaw,crane4,handsaw4,163.0,83.0,/static/Size_judgement/Stimuli/Size_stims/XL/crane/crane5.jpg,/static/Size_judgement/Stimuli/Size_stims/M/handsaw/handsaw3.jpg,1.0,crane,handsaw,XL,M,4.0,2.0,crane4,handsaw4,1.0,12.087,1.087,0.0,
17,,size_choice_confirmation,,html-keyboard-response,17,102889,0.0-1.0-19.0-0.0,0,0,27789,,,,,,4.0,,,,,,,,,,,,,,,,,,,,,,,,,,,,12.5,0.413,,
18,,iti,,html-keyboard-response,18,104392,0.0-1.0-20.0,0,0,27789,,,,,,,,,,,,,,,,,,,,,,,,,,,,,,,,,,14.0,1.5,,
19,,size_choice,,html-keyboard-response,19,105459,0.0-1.0-22.0,0,0,27789,,1064.0,,,68.0,5.0,5.0,1.0,1000.0,M-L,1.0,L,M,3.0,2.0,deskchair,handsaw,deskchair9,handsaw9,18.0,88.0,/static/Size_judgement/Stimuli/Size_stims/L/deskchair/deskchair3.jpg,/static/Size_judgement/Stimuli/Size_stims/M/handsaw/handsaw6.jpg,1.0,deskchair,handsaw,L,M,3.0,2.0,deskchair9,handsaw9,1.0,15.064,1.064,0.0,
20,,size_choice_confirmation,,html-keyboard-response,20,105899,0.0-1.0-23.0-0.0,0,0,27789,,,,,,5.0,,,,,,,,,,,,,,,,,,,,,,,,,,,,15.5,0.436,,
21,,iti,,html-keyboard-response,21,106901,0.0-1.0-24.0,0,0,27789,,,,,,,,,,,,,,,,,,,,,,,,,,,,,,,,,,16.5,1.0,,
22,,size_choice,,html-keyboard-response,22,108200,0.0-1.0-26.0,0,0,27789,,1296.0,,,68.0,6.0,6.0,1.0,1500.0,M-L,0.0,M,L,2.0,3.0,coffeemaker,mailbox,coffeemaker7,mailbox7,66.0,46.0,/static/Size_judgement/Stimuli/Size_stims/M/coffeemaker/coffeemaker9.jpg,/static/Size_judgement/Stimuli/Size_stims/L/mailbox/mailbox7.jpg,1.0,coffeemaker,mailbox,M,L,2.0,3.0,coffeemaker7,mailbox7,0.0,17.796,1.296,0.0,
23,,size_choice_confirmation,,html-keyboard-response,23,108409,0.0-1.0-27.0-0.0,0,0,27789,,,,,,6.0,,,,,,,,,,,,,,,,,,,,,,,,,,,,18.0,0.204,,
24,,iti,,html-keyboard-response,24,109912,0.0-1.0-28.0,0,0,27789,,,,,,,,,,,,,,,,,,,,,,,,,,,,,,,,,,19.5,1.5,,
25,,size_choice,,html-keyboard-response,25,110993,0.0-1.0-30.0,0,0,27789,,1078.0,,,68.0,7.0,7.0,1.0,1500.0,M-L,1.0,L,M,3.0,2.0,deskchair,ketchup,deskchair10,ketchup3,19.0,92.0,/static/Size_judgement/Stimuli/Size_stims/L/deskchair/deskchair2.jpg,/static/Size_judgement/Stimuli/Size_stims/M/ketchup/ketchup10.jpg,1.0,deskchair,ketchup,L,M,3.0,2.0,deskchair10,ketchup3,1.0,20.578,1.078,0.0,
26,,size_choice_confirmation,,html-keyboard-response,26,111418,0.0-1.0-31.0-0.0,0,0,27789,,,,,,7.0,,,,,,,,,,,,,,,,,,,,,,,,,,,,21.0,0.422,,
27,,iti,,html-keyboard-response,27,112921,0.0-1.0-32.0,0,0,27789,,,,,,,,,,,,,,,,,,,,,,,,,,,,,,,,,,22.5,1.5,,
28,,size_choice,,html-keyboard-response,28,113723,0.0-1.0-34.0,0,0,27789,,798.0,,,68.0,8.0,8.0,1.0,2000.0,S-L,1.0,L,S,3.0,1.0,cooler,paperclip,cooler8,paperclip3,7.0,112.0,/static/Size_judgement/Stimuli/Size_stims/L/cooler/cooler5.jpg,/static/Size_judgement/Stimuli/Size_stims/S/paperclip/paperclip1.jpg,1.0,cooler,paperclip,L,S,3.0,1.0,cooler8,paperclip3,1.0,23.298,0.798,0.0,
29,,size_choice_confirmation,,html-keyboard-response,29,114428,0.0-1.0-35.0-0.0,0,0,27789,,,,,,8.0,,,,,,,,,,,,,,,,,,,,,,,,,,,,24.0,0.702,,
30,,iti,,html-keyboard-response,30,116431,0.0-1.0-36.0,0,0,27789,,,,,,,,,,,,,,,,,,,,,,,,,,,,,,,,,,26.0,2.0,,
31,,size_choice,,html-keyboard-response,31,117827,0.0-1.0-38.0,0,0,27789,,1393.0,,,75.0,9.0,9.0,1.0,1500.0,M-L,0.0,M,L,2.0,3.0,basketball,garbagecan,basketball10,garbagecan5,59.0,34.0,/static/Size_judgement/Stimuli/Size_stims/M/basketball/basketball4.jpg,/static/Size_judgement/Stimuli/Size_stims/L/garbagecan/garbagecan3.jpg,0.0,garbagecan,basketball,L,M,3.0,2.0,garbagecan5,basketball10,1.0,27.393,1.393,0.0,
32,,size_choice_confirmation,,html-keyboard-response,32,117938,0.0-1.0-39.0-0.0,0,0,27789,,,,,,9.0,,,,,,,,,,,,,,,,,,,,,,,,,,,,27.5,0.107,,
33,,iti,,html-keyboard-response,33,119441,0.0-1.0-40.0,0,0,27789,,,,,,,,,,,,,,,,,,,,,,,,,,,,,,,,,,29.0,1.5,,
34,,size_choice,,html-keyboard-response,34,120732,0.0-1.0-42.0,0,0,27789,,1287.0,,,68.0,10.0,10.0,1.0,2000.0,S-L,1.0,L,S,3.0,1.0,dishwasher,teabag,dishwasher1,teabag5,20.0,134.0,/static/Size_judgement/Stimuli/Size_stims/L/dishwasher/dishwasher10.jpg,/static/Size_judgement/Stimuli/Size_stims/S/teabag/teabag2.jpg,1.0,dishwasher,teabag,L,S,3.0,1.0,dishwasher1,teabag5,1.0,30.287,1.287,0.0,
35,,size_choice_confirmation,,html-keyboard-response,35,120949,0.0-1.0-43.0-0.0,0,0,27789,,,,,,10.0,,,,,,,,,,,,,,,,,,,,,,,,,,,,30.5,0.213,,
36,,iti,,html-keyboard-response,36,122956,0.0-1.0-44.0,0,0,27789,,,,,,,,,,,,,,,,,,,,,,,,,,,,,,,,,,32.5,2.0,,
37,,size_choice,,html-keyboard-response,37,124315,0.0-1.0-46.0,0,0,27789,,1356.0,,,68.0,11.0,11.0,1.0,1000.0,S-S,,S,S,1.0,1.0,thread,die,thread10,die4,149.0,103.0,/static/Size_judgement/Stimuli/Size_stims/S/thread/thread9.jpg,/static/Size_judgement/Stimuli/Size_stims/S/die/die2.jpg,1.0,thread,die,S,S,1.0,1.0,thread10,die4,,33.856,1.356,0.0,
38,,size_choice_confirmation,,html-keyboard-response,38,124462,0.0-1.0-47.0-0.0,0,0,27789,,,,,,11.0,,,,,,,,,,,,,,,,,,,,,,,,,,,,34.0,0.144,,
39,,iti,,html-keyboard-response,39,125465,0.0-1.0-48.0,0,0,27789,,,,,,,,,,,,,,,,,,,,,,,,,,,,,,,,,,35.0,1.0,,
40,,size_choice,,html-keyboard-response,40,126699,0.0-1.0-50.0,0,0,27789,,1231.0,,,75.0,12.0,12.0,1.0,1000.0,S-XL,0.0,S,XL,1.0,4.0,teabag,crane,teabag6,crane6,135.0,165.0,/static/Size_judgement/Stimuli/Size_stims/S/teabag/teabag6.jpg,/static/Size_judgement/Stimuli/Size_stims/XL/crane/crane2.jpg,0.0,crane,teabag,XL,S,4.0,1.0,crane6,teabag6,1.0,36.231,1.231,0.0,
41,,size_choice_confirmation,,html-keyboard-response,41,126972,0.0-1.0-51.0-0.0,0,0,27789,,,,,,12.0,,,,,,,,,,,,,,,,,,,,,,,,,,,,36.5,0.269,,
42,,iti,,html-keyboard-response,42,127976,0.0-1.0-52.0,0,0,27789,,,,,,,,,,,,,,,,,,,,,,,,,,,,,,,,,,37.5,1.0,,
43,,size_choice,,html-keyboard-response,43,128900,0.0-1.0-54.0,0,0,27789,,921.0,,,75.0,13.0,13.0,1.0,1500.0,S-M,0.0,S,M,1.0,2.0,paperclip,ketchup,paperclip2,ketchup7,111.0,96.0,/static/Size_judgement/Stimuli/Size_stims/S/paperclip/paperclip8.jpg,/static/Size_judgement/Stimuli/Size_stims/M/ketchup/ketchup4.jpg,0.0,ketchup,paperclip,M,S,2.0,1.0,ketchup7,paperclip2,1.0,38.421,0.921,0.0,
44,,size_choice_confirmation,,html-keyboard-response,44,129483,0.0-1.0-55.0-0.0,0,0,27789,,,,,,13.0,,,,,,,,,,,,,,,,,,,,,,,,,,,,39.0,0.579,,
45,,iti,,html-keyboard-response,45,130985,0.0-1.0-56.0,0,0,27789,,,,,,,,,,,,,,,,,,,,,,,,,,,,,,,,,,40.5,1.5,,
46,,size_choice,,html-keyboard-response,46,132466,0.0-1.0-58.0,0,0,27789,,1477.0,,,75.0,14.0,14.0,1.0,2000.0,S-L,0.0,S,L,1.0,3.0,thread,garbagecan,thread6,garbagecan8,145.0,37.0,/static/Size_judgement/Stimuli/Size_stims/S/thread/thread2.jpg,/static/Size_judgement/Stimuli/Size_stims/L/garbagecan/garbagecan13.jpg,0.0,garbagecan,thread,L,S,3.0,1.0,garbagecan8,thread6,1.0,41.977,1.477,0.0,
47,,size_choice_confirmation,,html-keyboard-response,47,132492,0.0-1.0-59.0-0.0,0,0,27789,,,,,,14.0,,,,,,,,,,,,,,,,,,,,,,,,,,,,42.0,0.023,,
48,,iti,,html-keyboard-response,48,134495,0.0-1.0-60.0,0,0,27789,,,,,,,,,,,,,,,,,,,,,,,,,,,,,,,,,,44.0,2.0,,
49,,size_choice,,html-keyboard-response,49,135564,0.0-1.0-62.0,0,0,27789,,1066.0,,,75.0,15.0,15.0,1.0,1000.0,S-L,0.0,S,L,1.0,3.0,screws,dishwasher,screws4,dishwasher2,123.0,21.0,/static/Size_judgement/Stimuli/Size_stims/S/screws/screws6.jpg,/static/Size_judgement/Stimuli/Size_stims/L/dishwasher/dishwasher9.jpg,0.0,dishwasher,screws,L,S,3.0,1.0,dishwasher2,screws4,1.0,45.066,1.066,0.0,
50,,size_choice_confirmation,,html-keyboard-response,50,136001,0.0-1.0-63.0-0.0,0,0,27789,,,,,,15.0,,,,,,,,,,,,,,,,,,,,,,,,,,,,45.5,0.434,,
51,,iti,,html-keyboard-response,51,137003,0.0-1.0-64.0,0,0,27789,,,,,,,,,,,,,,,,,,,,,,,,,,,,,,,,,,46.5,1.0,,
52,,size_choice,,html-keyboard-response,52,138238,0.0-1.0-66.0,0,0,27789,,1231.0,,,68.0,16.0,16.0,1.0,3000.0,XL-XL,,XL,XL,4.0,4.0,dumptruck,crane,dumptruck9,crane9,178.0,168.0,/static/Size_judgement/Stimuli/Size_stims/XL/dumptruck/dumptruck5.jpg,/static/Size_judgement/Stimuli/Size_stims/XL/crane/crane8.jpg,1.0,dumptruck,crane,XL,XL,4.0,4.0,dumptruck9,crane9,,47.731,1.231,0.0,
53,,size_choice_confirmation,,html-keyboard-response,53,138510,0.0-1.0-67.0-0.0,0,0,27789,,,,,,16.0,,,,,,,,,,,,,,,,,,,,,,,,,,,,48.0,0.269,,
54,,iti,,html-keyboard-response,54,141512,0.0-1.0-68.0,0,0,27789,,,,,,,,,,,,,,,,,,,,,,,,,,,,,,,,,,51.0,3.0,,
55,,size_choice,,html-keyboard-response,55,142559,0.0-1.0-70.0,0,0,27789,,1044.0,,,75.0,17.0,17.0,1.0,1000.0,L-L,,L,L,3.0,3.0,deskchair,mailbox,deskchair2,mailbox5,11.0,44.0,/static/Size_judgement/Stimuli/Size_stims/L/deskchair/deskchair8.jpg,/static/Size_judgement/Stimuli/Size_stims/L/mailbox/mailbox4.jpg,0.0,mailbox,deskchair,L,L,3.0,3.0,mailbox5,deskchair2,,52.044,1.044,0.0,
56,,size_choice_confirmation,,html-keyboard-response,56,143018,0.0-1.0-71.0-0.0,0,0,27789,,,,,,17.0,,,,,,,,,,,,,,,,,,,,,,,,,,,,52.5,0.456,,
57,,iti,,html-keyboard-response,57,144021,0.0-1.0-72.0,0,0,27789,,,,,,,,,,,,,,,,,,,,,,,,,,,,,,,,,,53.5,1.0,,
58,,size_choice,,html-keyboard-response,58,145263,0.0-1.0-74.0,0,0,27789,,1240.0,,,68.0,18.0,18.0,1.0,3000.0,M-XL,1.0,XL,M,4.0,2.0,van,coffeemaker,van2,coffeemaker8,191.0,67.0,/static/Size_judgement/Stimuli/Size_stims/XL/van/van4.jpg,/static/Size_judgement/Stimuli/Size_stims/M/coffeemaker/coffeemaker5.jpg,1.0,van,coffeemaker,XL,M,4.0,2.0,van2,coffeemaker8,1.0,54.74,1.24,0.0,
59,,size_choice_confirmation,,html-keyboard-response,59,145527,0.0-1.0-75.0-0.0,0,0,27789,,,,,,18.0,,,,,,,,,,,,,,,,,,,,,,,,,,,,55.0,0.26,,
60,,iti,,html-keyboard-response,60,148529,0.0-1.0-76.0,0,0,27789,,,,,,,,,,,,,,,,,,,,,,,,,,,,,,,,,,58.0,3.0,,
61,,size_choice,,html-keyboard-response,61,149591,0.0-1.0-78.0,0,0,27789,,1059.0,,,68.0,19.0,19.0,1.0,1000.0,M-XL,1.0,XL,M,4.0,2.0,tractor,handsaw,tractor6,handsaw1,185.0,80.0,/static/Size_judgement/Stimuli/Size_stims/XL/tractor/tractor3.jpg,/static/Size_judgement/Stimuli/Size_stims/M/handsaw/handsaw8.jpg,1.0,tractor,handsaw,XL,M,4.0,2.0,tractor6,handsaw1,1.0,59.059,1.059,0.0,
62,,size_choice_confirmation,,html-keyboard-response,62,150037,0.0-1.0-79.0-0.0,0,0,27789,,,,,,19.0,,,,,,,,,,,,,,,,,,,,,,,,,,,,59.5,0.441,,
63,,iti,,html-keyboard-response,63,151039,0.0-1.0-80.0,0,0,27789,,,,,,,,,,,,,,,,,,,,,,,,,,,,,,,,,,60.5,1.0,,
64,,size_choice,,html-keyboard-response,64,152133,0.0-1.0-82.0,0,0,27789,,1091.0,,,75.0,20.0,20.0,1.0,1000.0,M-XL,0.0,M,XL,2.0,4.0,hairdryer,van,hairdryer9,van1,78.0,190.0,/static/Size_judgement/Stimuli/Size_stims/M/hairdryer/hairdryer5.jpg,/static/Size_judgement/Stimuli/Size_stims/XL/van/van5.jpg,0.0,van,hairdryer,XL,M,4.0,2.0,van1,hairdryer9,1.0,61.591,1.091,0.0,
65,,size_choice_confirmation,,html-keyboard-response,65,152545,0.0-1.0-83.0-0.0,0,0,27789,,,,,,20.0,,,,,,,,,,,,,,,,,,,,,,,,,,,,62.0,0.409,,
66,,iti,,html-keyboard-response,66,153557,0.0-1.0-84.0,0,0,27789,,,,,,,,,,,,,,,,,,,,,,,,,,,,,,,,,,63.0,1.0,,
67,,size_choice,,html-keyboard-response,67,154624,0.0-1.0-86.0,0,0,27789,,1065.0,,,75.0,21.0,21.0,1.0,1000.0,S-M,0.0,S,M,1.0,2.0,die,hairdryer,die6,hairdryer4,105.0,73.0,/static/Size_judgement/Stimuli/Size_stims/S/die/die1.jpg,/static/Size_judgement/Stimuli/Size_stims/M/hairdryer/hairdryer16.jpg,0.0,hairdryer,die,M,S,2.0,1.0,hairdryer4,die6,1.0,64.065,1.065,0.0,
68,,size_choice_confirmation,,html-keyboard-response,68,155063,0.0-1.0-87.0-0.0,0,0,27789,,,,,,21.0,,,,,,,,,,,,,,,,,,,,,,,,,,,,64.5,0.435,,
69,,iti,,html-keyboard-response,69,156065,0.0-1.0-88.0,0,0,27789,,,,,,,,,,,,,,,,,,,,,,,,,,,,,,,,,,65.5,1.0,,
70,,size_choice,,html-keyboard-response,70,156813,0.0-1.0-90.0,0,0,27789,,746.0,,,68.0,22.0,22.0,1.0,1000.0,S-L,1.0,L,S,3.0,1.0,mailbox,teabag,mailbox3,teabag8,42.0,137.0,/static/Size_judgement/Stimuli/Size_stims/L/mailbox/mailbox1.jpg,/static/Size_judgement/Stimuli/Size_stims/S/teabag/teabag7.jpg,1.0,mailbox,teabag,L,S,3.0,1.0,mailbox3,teabag8,1.0,66.246,0.746,0.0,
71,,size_choice_confirmation,,html-keyboard-response,71,157571,0.0-1.0-91.0-0.0,0,0,27789,,,,,,22.0,,,,,,,,,,,,,,,,,,,,,,,,,,,,67.0,0.754,,
72,,iti,,html-keyboard-response,72,158574,0.0-1.0-92.0,0,0,27789,,,,,,,,,,,,,,,,,,,,,,,,,,,,,,,,,,68.0,1.0,,
73,,size_choice,,html-keyboard-response,73,159630,0.0-1.0-94.0,0,0,27789,,1053.0,,,68.0,23.0,23.0,1.0,1500.0,M-XL,1.0,XL,M,4.0,2.0,tractor,basketball,tractor4,basketball4,183.0,53.0,/static/Size_judgement/Stimuli/Size_stims/XL/tractor/tractor4.jpg,/static/Size_judgement/Stimuli/Size_stims/M/basketball/basketball1.jpg,1.0,tractor,basketball,XL,M,4.0,2.0,tractor4,basketball4,1.0,69.053,1.053,0.0,
74,,size_choice_confirmation,,html-keyboard-response,74,160082,0.0-1.0-95.0-0.0,0,0,27789,,,,,,23.0,,,,,,,,,,,,,,,,,,,,,,,,,,,,69.5,0.447,,
75,,iti,,html-keyboard-response,75,161585,0.0-1.0-96.0,0,0,27789,,,,,,,,,,,,,,,,,,,,,,,,,,,,,,,,,,71.0,1.5,,
76,,size_choice,,html-keyboard-response,76,162434,0.0-1.0-98.0,0,0,27789,,846.0,,,68.0,24.0,24.0,1.0,2000.0,S-XL,1.0,XL,S,4.0,1.0,dumptruck,die,dumptruck6,die8,175.0,107.0,/static/Size_judgement/Stimuli/Size_stims/XL/dumptruck/dumptruck2.jpg,/static/Size_judgement/Stimuli/Size_stims/S/die/die5.jpg,1.0,dumptruck,die,XL,S,4.0,1.0,dumptruck6,die8,1.0,71.846,0.846,0.0,
77,,size_choice_confirmation,,html-keyboard-response,77,163091,0.0-1.0-99.0-0.0,0,0,27789,,,,,,24.0,,,,,,,,,,,,,,,,,,,,,,,,,,,,72.5,0.654,,
78,,iti,,html-keyboard-response,78,165093,0.0-1.0-100.0,0,0,27789,,,,,,,,,,,,,,,,,,,,,,,,,,,,,,,,,,74.5,2.0,,
79,,size_choice,,html-keyboard-response,79,165723,0.0-1.0-102.0,0,0,27789,,628.0,,,68.0,25.0,25.0,1.0,1000.0,S-XL,1.0,XL,S,4.0,1.0,van,die,van10,die10,199.0,109.0,/static/Size_judgement/Stimuli/Size_stims/XL/van/van8.jpg,/static/Size_judgement/Stimuli/Size_stims/S/die/die6.jpg,1.0,van,die,XL,S,4.0,1.0,van10,die10,1.0,75.128,0.628,0.0,
80,,size_choice_confirmation,,html-keyboard-response,80,166599,0.0-1.0-103.0-0.0,0,0,27789,,,,,,25.0,,,,,,,,,,,,,,,,,,,,,,,,,,,,76.0,0.872,,
81,,iti,,html-keyboard-response,81,167614,0.0-1.0-104.0,0,0,27789,,,,,,,,,,,,,,,,,,,,,,,,,,,,,,,,,,77.0,1.0,,
82,,size_choice,,html-keyboard-response,82,169121,0.0-1.0-106.0,0,0,27789,,,,,,26.0,26.0,1.0,2000.0,M-M,,M,M,2.0,2.0,coffeemaker,hairdryer,coffeemaker5,hairdryer1,64.0,70.0,/static/Size_judgement/Stimuli/Size_stims/M/coffeemaker/coffeemaker10.jpg,/static/Size_judgement/Stimuli/Size_stims/M/hairdryer/hairdryer11.jpg,,,,,,,,,,,78.5,1.5,1.0,
83,,iti,,html-keyboard-response,83,171124,0.0-1.0-108.0,0,0,27789,,,,,,,,,,,,,,,,,,,,,,,,,,,,,,,,,,80.5,2.0,,
84,,size_choice,,html-keyboard-response,84,172057,0.0-1.0-110.0,0,0,27789,,930.0,,,68.0,27.0,27.0,1.0,3000.0,XL-XL,,XL,XL,4.0,4.0,car,dumptruck,car7,dumptruck2,156.0,171.0,/static/Size_judgement/Stimuli/Size_stims/XL/car/car13.jpg,/static/Size_judgement/Stimuli/Size_stims/XL/dumptruck/dumptruck8.jpg,1.0,car,dumptruck,XL,XL,4.0,4.0,car7,dumptruck2,,81.43,0.93,0.0,
85,,size_choice_confirmation,,html-keyboard-response,85,172630,0.0-1.0-111.0-0.0,0,0,27789,,,,,,27.0,,,,,,,,,,,,,,,,,,,,,,,,,,,,82.0,0.57,,
86,,iti,,html-keyboard-response,86,175633,0.0-1.0-112.0,0,0,27789,,,,,,,,,,,,,,,,,,,,,,,,,,,,,,,,,,85.0,3.0,,
87,,size_choice,,html-keyboard-response,87,176596,0.0-1.0-114.0,0,0,27789,,960.0,,,68.0,28.0,28.0,1.0,1000.0,M-L,1.0,L,M,3.0,2.0,mailbox,ketchup,mailbox2,ketchup6,41.0,95.0,/static/Size_judgement/Stimuli/Size_stims/L/mailbox/mailbox2.jpg,/static/Size_judgement/Stimuli/Size_stims/M/ketchup/ketchup1.jpg,1.0,mailbox,ketchup,L,M,3.0,2.0,mailbox2,ketchup6,1.0,85.96,0.96,0.0,
88,,size_choice_confirmation,,html-keyboard-response,88,177140,0.0-1.0-115.0-0.0,0,0,27789,,,,,,28.0,,,,,,,,,,,,,,,,,,,,,,,,,,,,86.5,0.54,,
89,,iti,,html-keyboard-response,89,178142,0.0-1.0-116.0,0,0,27789,,,,,,,,,,,,,,,,,,,,,,,,,,,,,,,,,,87.5,1.0,,
90,,size_choice,,html-keyboard-response,90,178876,0.0-1.0-118.0,0,0,27789,,732.0,,,68.0,29.0,29.0,1.0,3500.0,L-XL,1.0,XL,L,4.0,3.0,van,cooler,van7,cooler5,196.0,4.0,/static/Size_judgement/Stimuli/Size_stims/XL/van/van1.jpg,/static/Size_judgement/Stimuli/Size_stims/L/cooler/cooler10.jpg,1.0,van,cooler,XL,L,4.0,3.0,van7,cooler5,1.0,88.232,0.732,0.0,
91,,size_choice_confirmation,,html-keyboard-response,91,179647,0.0-1.0-119.0-0.0,0,0,27789,,,,,,29.0,,,,,,,,,,,,,,,,,,,,,,,,,,,,89.0,0.768,,
92,,iti,,html-keyboard-response,92,183150,0.0-1.0-120.0,0,0,27789,,,,,,,,,,,,,,,,,,,,,,,,,,,,,,,,,,92.5,3.5,,
93,,size_choice,,html-keyboard-response,93,183997,0.0-1.0-122.0,0,0,27789,,844.0,,,75.0,30.0,30.0,1.0,1000.0,S-S,,S,S,1.0,1.0,paperclip,teabag,paperclip9,teabag2,118.0,131.0,/static/Size_judgement/Stimuli/Size_stims/S/paperclip/paperclip4.jpg,/static/Size_judgement/Stimuli/Size_stims/S/teabag/teabag8.jpg,0.0,teabag,paperclip,S,S,1.0,1.0,teabag2,paperclip9,,93.344,0.844,0.0,
94,,size_choice_confirmation,,html-keyboard-response,94,184656,0.0-1.0-123.0-0.0,0,0,27789,,,,,,30.0,,,,,,,,,,,,,,,,,,,,,,,,,,,,94.0,0.656,,
95,,iti,,html-keyboard-response,95,185659,0.0-1.0-124.0,0,0,27789,,,,,,,,,,,,,,,,,,,,,,,,,,,,,,,,,,95.0,1.0,,
96,,size_choice,,html-keyboard-response,96,186940,0.0-1.0-126.0,0,0,27789,,1279.0,,,75.0,31.0,31.0,1.0,1500.0,S-S,,S,S,1.0,1.0,thread,screws,thread4,screws8,143.0,127.0,/static/Size_judgement/Stimuli/Size_stims/S/thread/thread5.jpg,/static/Size_judgement/Stimuli/Size_stims/S/screws/screws10.jpg,0.0,screws,thread,S,S,1.0,1.0,screws8,thread4,,96.279,1.279,0.0,
97,,size_choice_confirmation,,html-keyboard-response,97,187165,0.0-1.0-127.0-0.0,0,0,27789,,,,,,31.0,,,,,,,,,,,,,,,,,,,,,,,,,,,,96.5,0.221,,
98,,iti,,html-keyboard-response,98,188667,0.0-1.0-128.0,0,0,27789,,,,,,,,,,,,,,,,,,,,,,,,,,,,,,,,,,98.0,1.5,,
99,,size_choice,,html-keyboard-response,99,189786,0.0-1.0-130.0,0,0,27789,,1116.0,,,75.0,32.0,32.0,1.0,2000.0,S-XL,0.0,S,XL,1.0,4.0,die,crane,die7,crane8,106.0,167.0,/static/Size_judgement/Stimuli/Size_stims/S/die/die4.jpg,/static/Size_judgement/Stimuli/Size_stims/XL/crane/crane10.jpg,0.0,crane,die,XL,S,4.0,1.0,crane8,die7,1.0,99.116,1.116,0.0,
100,,size_choice_confirmation,,html-keyboard-response,100,190179,0.0-1.0-131.0-0.0,0,0,27789,,,,,,32.0,,,,,,,,,,,,,,,,,,,,,,,,,,,,99.5,0.384,,
101,,iti,,html-keyboard-response,101,192181,0.0-1.0-132.0,0,0,27789,,,,,,,,,,,,,,,,,,,,,,,,,,,,,,,,,,101.5,2.0,,
102,,size_choice,,html-keyboard-response,102,193171,0.0-1.0-134.0,0,0,27789,,987.0,,,68.0,33.0,33.0,1.0,1000.0,M-M,,M,M,2.0,2.0,hairdryer,handsaw,hairdryer3,handsaw3,72.0,82.0,/static/Size_judgement/Stimuli/Size_stims/M/hairdryer/hairdryer17.jpg,/static/Size_judgement/Stimuli/Size_stims/M/handsaw/handsaw2.jpg,1.0,hairdryer,handsaw,M,M,2.0,2.0,hairdryer3,handsaw3,,102.487,0.987,0.0,
103,,size_choice_confirmation,,html-keyboard-response,103,193687,0.0-1.0-135.0-0.0,0,0,27789,,,,,,33.0,,,,,,,,,,,,,,,,,,,,,,,,,,,,103.0,0.513,,
104,,iti,,html-keyboard-response,104,194691,0.0-1.0-136.0,0,0,27789,,,,,,,,,,,,,,,,,,,,,,,,,,,,,,,,,,104.0,1.0,,
105,,size_choice,,html-keyboard-response,105,195969,0.0-1.0-138.0,0,0,27789,,1275.0,,,75.0,34.0,34.0,1.0,1500.0,L-L,,L,L,3.0,3.0,garbagecan,cooler,garbagecan9,cooler1,38.0,0.0,/static/Size_judgement/Stimuli/Size_stims/L/garbagecan/garbagecan12.jpg,/static/Size_judgement/Stimuli/Size_stims/L/cooler/cooler8.jpg,0.0,cooler,garbagecan,L,L,3.0,3.0,cooler1,garbagecan9,,105.275,1.275,0.0,
106,,size_choice_confirmation,,html-keyboard-response,106,196198,0.0-1.0-139.0-0.0,0,0,27789,,,,,,34.0,,,,,,,,,,,,,,,,,,,,,,,,,,,,105.5,0.225,,
107,,iti,,html-keyboard-response,107,197700,0.0-1.0-140.0,0,0,27789,,,,,,,,,,,,,,,,,,,,,,,,,,,,,,,,,,107.0,1.5,,
108,,size_choice,,html-keyboard-response,108,198777,0.0-1.0-142.0,0,0,27789,,1074.0,,,68.0,35.0,35.0,1.0,2000.0,S-L,1.0,L,S,3.0,1.0,cooler,teabag,cooler9,teabag1,8.0,130.0,/static/Size_judgement/Stimuli/Size_stims/L/cooler/cooler7.jpg,/static/Size_judgement/Stimuli/Size_stims/S/teabag/teabag9.jpg,1.0,cooler,teabag,L,S,3.0,1.0,cooler9,teabag1,1.0,108.074,1.074,0.0,
109,,size_choice_confirmation,,html-keyboard-response,109,199207,0.0-1.0-143.0-0.0,0,0,27789,,,,,,35.0,,,,,,,,,,,,,,,,,,,,,,,,,,,,108.5,0.426,,
110,,iti,,html-keyboard-response,110,201209,0.0-1.0-144.0,0,0,27789,,,,,,,,,,,,,,,,,,,,,,,,,,,,,,,,,,110.5,2.0,,
111,,size_choice,,html-keyboard-response,111,202258,0.0-1.0-146.0,0,0,27789,,1047.0,,,68.0,36.0,36.0,1.0,3500.0,M-L,1.0,L,M,3.0,2.0,garbagecan,ketchup,garbagecan3,ketchup5,32.0,94.0,/static/Size_judgement/Stimuli/Size_stims/L/garbagecan/garbagecan7.jpg,/static/Size_judgement/Stimuli/Size_stims/M/ketchup/ketchup3.jpg,1.0,garbagecan,ketchup,L,M,3.0,2.0,garbagecan3,ketchup5,1.0,111.547,1.047,0.0,
112,,size_choice_confirmation,,html-keyboard-response,112,202716,0.0-1.0-147.0-0.0,0,0,27789,,,,,,36.0,,,,,,,,,,,,,,,,,,,,,,,,,,,,112.0,0.453,,
113,,iti,,html-keyboard-response,113,206219,0.0-1.0-148.0,0,0,27789,,,,,,,,,,,,,,,,,,,,,,,,,,,,,,,,,,115.5,3.5,,
114,,size_choice,,html-keyboard-response,114,207163,0.0-1.0-150.0,0,0,27789,,941.0,,,68.0,37.0,37.0,1.0,1500.0,M-L,1.0,L,M,3.0,2.0,mailbox,ketchup,mailbox6,ketchup4,45.0,93.0,/static/Size_judgement/Stimuli/Size_stims/L/mailbox/mailbox6.jpg,/static/Size_judgement/Stimuli/Size_stims/M/ketchup/ketchup2.jpg,1.0,mailbox,ketchup,L,M,3.0,2.0,mailbox6,ketchup4,1.0,116.441,0.941,0.0,
115,,size_choice_confirmation,,html-keyboard-response,115,207726,0.0-1.0-151.0-0.0,0,0,27789,,,,,,37.0,,,,,,,,,,,,,,,,,,,,,,,,,,,,117.0,0.559,,
116,,iti,,html-keyboard-response,116,209228,0.0-1.0-152.0,0,0,27789,,,,,,,,,,,,,,,,,,,,,,,,,,,,,,,,,,118.5,1.5,,
117,,size_choice,,html-keyboard-response,117,210732,0.0-1.0-154.0,0,0,27789,,,,,,38.0,38.0,1.0,1000.0,L-L,,L,L,3.0,3.0,mailbox,garbagecan,mailbox8,garbagecan4,47.0,33.0,/static/Size_judgement/Stimuli/Size_stims/L/mailbox/mailbox10.jpg,/static/Size_judgement/Stimuli/Size_stims/L/garbagecan/garbagecan6.jpg,,,,,,,,,,,120.0,1.5,1.0,
118,,iti,,html-keyboard-response,118,211736,0.0-1.0-156.0,0,0,27789,,,,,,,,,,,,,,,,,,,,,,,,,,,,,,,,,,121.0,1.0,,
119,,size_choice,,html-keyboard-response,119,212915,0.0-1.0-158.0,0,0,27789,,1176.0,,,75.0,39.0,39.0,1.0,1000.0,M-M,,M,M,2.0,2.0,basketball,hairdryer,basketball6,hairdryer7,55.0,76.0,/static/Size_judgement/Stimuli/Size_stims/M/basketball/basketball2.jpg,/static/Size_judgement/Stimuli/Size_stims/M/hairdryer/hairdryer3.jpg,0.0,hairdryer,basketball,M,M,2.0,2.0,hairdryer7,basketball6,,122.176,1.176,0.0,
120,,size_choice_confirmation,,html-keyboard-response,120,213243,0.0-1.0-159.0-0.0,0,0,27789,,,,,,39.0,,,,,,,,,,,,,,,,,,,,,,,,,,,,122.5,0.324,,
121,,iti,,html-keyboard-response,121,214249,0.0-1.0-160.0,0,0,27789,,,,,,,,,,,,,,,,,,,,,,,,,,,,,,,,,,123.5,1.0,,
122,,size_choice,,html-keyboard-response,122,215224,0.0-1.0-162.0,0,0,27789,,972.0,,,68.0,40.0,40.0,1.0,3000.0,S-XL,1.0,XL,S,4.0,1.0,crane,thread,crane7,thread5,166.0,144.0,/static/Size_judgement/Stimuli/Size_stims/XL/crane/crane3.jpg,/static/Size_judgement/Stimuli/Size_stims/S/thread/thread1.jpg,1.0,crane,thread,XL,S,4.0,1.0,crane7,thread5,1.0,124.472,0.972,0.0,
123,,size_choice_confirmation,,html-keyboard-response,123,215756,0.0-1.0-163.0-0.0,0,0,27789,,,,,,40.0,,,,,,,,,,,,,,,,,,,,,,,,,,,,125.0,0.528,,
124,,iti,,html-keyboard-response,124,218760,0.0-1.0-164.0,0,0,27789,,,,,,,,,,,,,,,,,,,,,,,,,,,,,,,,,,128.0,3.0,,
125,,size_choice,,html-keyboard-response,125,219547,0.0-1.0-166.0,0,0,27789,,784.0,,,75.0,41.0,41.0,1.0,1000.0,S-XL,0.0,S,XL,1.0,4.0,teabag,tractor,teabag7,tractor7,136.0,186.0,/static/Size_judgement/Stimuli/Size_stims/S/teabag/teabag10.jpg,/static/Size_judgement/Stimuli/Size_stims/XL/tractor/tractor2.jpg,0.0,tractor,teabag,XL,S,4.0,1.0,tractor7,teabag7,1.0,128.784,0.784,0.0,
126,,size_choice_confirmation,,html-keyboard-response,126,220267,0.0-1.0-167.0-0.0,0,0,27789,,,,,,41.0,,,,,,,,,,,,,,,,,,,,,,,,,,,,129.5,0.716,,
127,,iti,,html-keyboard-response,127,221271,0.0-1.0-168.0,0,0,27789,,,,,,,,,,,,,,,,,,,,,,,,,,,,,,,,,,130.5,1.0,,
128,,size_choice,,html-keyboard-response,128,222094,0.0-1.0-170.0,0,0,27789,,820.0,,,75.0,42.0,42.0,1.0,1500.0,L-XL,0.0,L,XL,3.0,4.0,garbagecan,car,garbagecan10,car6,39.0,155.0,/static/Size_judgement/Stimuli/Size_stims/L/garbagecan/garbagecan11.jpg,/static/Size_judgement/Stimuli/Size_stims/XL/car/car12.jpg,0.0,car,garbagecan,XL,L,4.0,3.0,car6,garbagecan10,1.0,131.32,0.82,0.0,
129,,size_choice_confirmation,,html-keyboard-response,129,222778,0.0-1.0-171.0-0.0,0,0,27789,,,,,,42.0,,,,,,,,,,,,,,,,,,,,,,,,,,,,132.0,0.68,,
130,,iti,,html-keyboard-response,130,224280,0.0-1.0-172.0,0,0,27789,,,,,,,,,,,,,,,,,,,,,,,,,,,,,,,,,,133.5,1.5,,
131,,size_choice,,html-keyboard-response,131,224971,0.0-1.0-174.0,0,0,27789,,689.0,,,68.0,43.0,43.0,1.0,3500.0,M-XL,1.0,XL,M,4.0,2.0,car,coffeemaker,car4,coffeemaker9,153.0,68.0,/static/Size_judgement/Stimuli/Size_stims/XL/car/car6.jpg,/static/Size_judgement/Stimuli/Size_stims/M/coffeemaker/coffeemaker7.jpg,1.0,car,coffeemaker,XL,M,4.0,2.0,car4,coffeemaker9,1.0,134.189,0.689,0.0,
132,,size_choice_confirmation,,html-keyboard-response,132,225792,0.0-1.0-175.0-0.0,0,0,27789,,,,,,43.0,,,,,,,,,,,,,,,,,,,,,,,,,,,,135.0,0.811,,
133,,iti,,html-keyboard-response,133,229296,0.0-1.0-176.0,0,0,27789,,,,,,,,,,,,,,,,,,,,,,,,,,,,,,,,,,138.5,3.5,,
134,,size_choice,,html-keyboard-response,134,230196,0.0-1.0-178.0,0,0,27789,,898.0,,,75.0,44.0,44.0,1.0,2000.0,L-XL,0.0,L,XL,3.0,4.0,cooler,car,cooler4,car5,3.0,154.0,/static/Size_judgement/Stimuli/Size_stims/L/cooler/cooler3.jpg,/static/Size_judgement/Stimuli/Size_stims/XL/car/car11.jpg,0.0,car,cooler,XL,L,4.0,3.0,car5,cooler4,1.0,139.398,0.898,0.0,
135,,size_choice_confirmation,,html-keyboard-response,135,230801,0.0-1.0-179.0-0.0,0,0,27789,,,,,,44.0,,,,,,,,,,,,,,,,,,,,,,,,,,,,140.0,0.602,,
136,,iti,,html-keyboard-response,136,232804,0.0-1.0-180.0,0,0,27789,,,,,,,,,,,,,,,,,,,,,,,,,,,,,,,,,,142.0,2.0,,
137,,block_over,,html-keyboard-response,137,248860,0.0-1.0-181.0-0.0,0,0,27789,,16053.0,,,68.0,44.0,,,,,,,,,,,,,,,,,,,,,,,,,,,,,,,
138,,size_choice,,html-keyboard-response,138,249963,0.0-1.0-182.0,0,0,27789,,1100.0,,,75.0,45.0,45.0,2.0,3500.0,S-M,0.0,S,M,1.0,2.0,screws,handsaw,screws5,handsaw6,124.0,85.0,/static/Size_judgement/Stimuli/Size_stims/S/screws/screws2.jpg,/static/Size_judgement/Stimuli/Size_stims/M/handsaw/handsaw4.jpg,0.0,handsaw,screws,M,S,2.0,1.0,handsaw6,screws5,1.0,143.1,1.1,0.0,
139,,size_choice_confirmation,,html-keyboard-response,139,250367,0.0-1.0-183.0-0.0,0,0,27789,,,,,,45.0,,,,,,,,,,,,,,,,,,,,,,,,,,,,143.5,0.4,,
140,,iti,,html-keyboard-response,140,253869,0.0-1.0-184.0,0,0,27789,,,,,,,,,,,,,,,,,,,,,,,,,,,,,,,,,,147.0,3.5,,
141,,size_choice,,html-keyboard-response,141,254651,0.0-1.0-186.0,0,0,27789,,780.0,,,75.0,46.0,46.0,2.0,1000.0,S-S,,S,S,1.0,1.0,screws,paperclip,screws9,paperclip6,128.0,115.0,/static/Size_judgement/Stimuli/Size_stims/S/screws/screws8.jpg,/static/Size_judgement/Stimuli/Size_stims/S/paperclip/paperclip6.jpg,0.0,paperclip,screws,S,S,1.0,1.0,paperclip6,screws9,,147.78,0.78,0.0,
142,,size_choice_confirmation,,html-keyboard-response,142,255375,0.0-1.0-187.0-0.0,0,0,27789,,,,,,46.0,,,,,,,,,,,,,,,,,,,,,,,,,,,,148.5,0.72,,
143,,iti,,html-keyboard-response,143,256378,0.0-1.0-188.0,0,0,27789,,,,,,,,,,,,,,,,,,,,,,,,,,,,,,,,,,149.5,1.0,,
144,,size_choice,,html-keyboard-response,144,257511,0.0-1.0-190.0,0,0,27789,,1130.0,,,68.0,47.0,47.0,2.0,2000.0,M-XL,1.0,XL,M,4.0,2.0,crane,basketball,crane5,basketball5,164.0,54.0,/static/Size_judgement/Stimuli/Size_stims/XL/crane/crane1.jpg,/static/Size_judgement/Stimuli/Size_stims/M/basketball/basketball3.jpg,1.0,crane,basketball,XL,M,4.0,2.0,crane5,basketball5,1.0,150.63,1.13,0.0,
145,,size_choice_confirmation,,html-keyboard-response,145,257884,0.0-1.0-191.0-0.0,0,0,27789,,,,,,47.0,,,,,,,,,,,,,,,,,,,,,,,,,,,,151.0,0.37,,
146,,iti,,html-keyboard-response,146,259887,0.0-1.0-192.0,0,0,27789,,,,,,,,,,,,,,,,,,,,,,,,,,,,,,,,,,153.0,2.0,,
147,,size_choice,,html-keyboard-response,147,260749,0.0-1.0-194.0,0,0,27789,,860.0,,,75.0,48.0,48.0,2.0,1000.0,M-L,0.0,M,L,2.0,3.0,hairdryer,mailbox,hairdryer6,mailbox10,75.0,49.0,/static/Size_judgement/Stimuli/Size_stims/M/hairdryer/hairdryer8.jpg,/static/Size_judgement/Stimuli/Size_stims/L/mailbox/mailbox8.jpg,0.0,mailbox,hairdryer,L,M,3.0,2.0,mailbox10,hairdryer6,1.0,153.86,0.86,0.0,
148,,size_choice_confirmation,,html-keyboard-response,148,261393,0.0-1.0-195.0-0.0,0,0,27789,,,,,,48.0,,,,,,,,,,,,,,,,,,,,,,,,,,,,154.5,0.64,,
149,,iti,,html-keyboard-response,149,262394,0.0-1.0-196.0,0,0,27789,,,,,,,,,,,,,,,,,,,,,,,,,,,,,,,,,,155.5,1.0,,
150,,size_choice,,html-keyboard-response,150,263199,0.0-1.0-198.0,0,0,27789,,801.0,,,68.0,49.0,49.0,2.0,2000.0,M-XL,1.0,XL,M,4.0,2.0,tractor,coffeemaker,tractor5,coffeemaker1,184.0,60.0,/static/Size_judgement/Stimuli/Size_stims/XL/tractor/tractor1.jpg,/static/Size_judgement/Stimuli/Size_stims/M/coffeemaker/coffeemaker14.jpg,1.0,tractor,coffeemaker,XL,M,4.0,2.0,tractor5,coffeemaker1,1.0,156.301,0.801,0.0,
151,,size_choice_confirmation,,html-keyboard-response,151,263902,0.0-1.0-199.0-0.0,0,0,27789,,,,,,49.0,,,,,,,,,,,,,,,,,,,,,,,,,,,,157.0,0.699,,
152,,iti,,html-keyboard-response,152,265904,0.0-1.0-200.0,0,0,27789,,,,,,,,,,,,,,,,,,,,,,,,,,,,,,,,,,159.0,2.0,,
153,,size_choice,,html-keyboard-response,153,266875,0.0-1.0-202.0,0,0,27789,,969.0,,,75.0,50.0,50.0,2.0,1000.0,S-XL,1.0,XL,S,4.0,1.0,car,teabag,car9,teabag10,158.0,139.0,/static/Size_judgement/Stimuli/Size_stims/XL/car/car15.jpg,/static/Size_judgement/Stimuli/Size_stims/S/teabag/teabag4.jpg,0.0,teabag,car,S,XL,1.0,4.0,teabag10,car9,0.0,159.969,0.969,0.0,
154,,size_choice_confirmation,,html-keyboard-response,154,267411,0.0-1.0-203.0-0.0,0,0,27789,,,,,,50.0,,,,,,,,,,,,,,,,,,,,,,,,,,,,160.5,0.531,,
155,,iti,,html-keyboard-response,155,268413,0.0-1.0-204.0,0,0,27789,,,,,,,,,,,,,,,,,,,,,,,,,,,,,,,,,,161.5,1.0,,
156,,size_choice,,html-keyboard-response,156,269453,0.0-1.0-206.0,0,0,27789,,1037.0,,,75.0,51.0,51.0,2.0,1500.0,XL-XL,,XL,XL,4.0,4.0,crane,car,crane10,car8,169.0,157.0,/static/Size_judgement/Stimuli/Size_stims/XL/crane/crane9.jpg,/static/Size_judgement/Stimuli/Size_stims/XL/car/car14.jpg,0.0,car,crane,XL,XL,4.0,4.0,car8,crane10,,162.537,1.037,0.0,
157,,size_choice_confirmation,,html-keyboard-response,157,269920,0.0-1.0-207.0-0.0,0,0,27789,,,,,,51.0,,,,,,,,,,,,,,,,,,,,,,,,,,,,163.0,0.463,,
158,,iti,,html-keyboard-response,158,271422,0.0-1.0-208.0,0,0,27789,,,,,,,,,,,,,,,,,,,,,,,,,,,,,,,,,,164.5,1.5,,
159,,size_choice,,html-keyboard-response,159,272445,0.0-1.0-210.0,0,0,27789,,1019.0,,,75.0,52.0,52.0,2.0,1000.0,M-L,0.0,M,L,2.0,3.0,coffeemaker,dishwasher,coffeemaker2,dishwasher3,61.0,22.0,/static/Size_judgement/Stimuli/Size_stims/M/coffeemaker/coffeemaker12.jpg,/static/Size_judgement/Stimuli/Size_stims/L/dishwasher/dishwasher8.jpg,0.0,dishwasher,coffeemaker,L,M,3.0,2.0,dishwasher3,coffeemaker2,1.0,165.519,1.019,0.0,
160,,size_choice_confirmation,,html-keyboard-response,160,272939,0.0-1.0-211.0-0.0,0,0,27789,,,,,,52.0,,,,,,,,,,,,,,,,,,,,,,,,,,,,166.0,0.481,,
161,,iti,,html-keyboard-response,161,273941,0.0-1.0-212.0,0,0,27789,,,,,,,,,,,,,,,,,,,,,,,,,,,,,,,,,,167.0,1.0,,
162,,size_choice,,html-keyboard-response,162,274610,0.0-1.0-214.0,0,0,27789,,667.0,,,68.0,53.0,53.0,2.0,3000.0,S-L,1.0,L,S,3.0,1.0,deskchair,paperclip,deskchair4,paperclip7,13.0,116.0,/static/Size_judgement/Stimuli/Size_stims/L/deskchair/deskchair6.jpg,/static/Size_judgement/Stimuli/Size_stims/S/paperclip/paperclip7.jpg,1.0,deskchair,paperclip,L,S,3.0,1.0,deskchair4,paperclip7,1.0,167.667,0.667,0.0,
163,,size_choice_confirmation,,html-keyboard-response,163,275447,0.0-1.0-215.0-0.0,0,0,27789,,,,,,53.0,,,,,,,,,,,,,,,,,,,,,,,,,,,,168.5,0.833,,
164,,iti,,html-keyboard-response,164,278451,0.0-1.0-216.0,0,0,27789,,,,,,,,,,,,,,,,,,,,,,,,,,,,,,,,,,171.5,3.0,,
165,,size_choice,,html-keyboard-response,165,279403,0.0-1.0-218.0,0,0,27789,,949.0,,,68.0,54.0,54.0,2.0,2000.0,S-S,,S,S,1.0,1.0,screws,paperclip,screws1,paperclip10,120.0,119.0,/static/Size_judgement/Stimuli/Size_stims/S/screws/screws4.jpg,/static/Size_judgement/Stimuli/Size_stims/S/paperclip/paperclip10.jpg,1.0,screws,paperclip,S,S,1.0,1.0,screws1,paperclip10,,172.449,0.949,0.0,
166,,size_choice_confirmation,,html-keyboard-response,166,279958,0.0-1.0-219.0-0.0,0,0,27789,,,,,,54.0,,,,,,,,,,,,,,,,,,,,,,,,,,,,173.0,0.551,,
167,,iti,,html-keyboard-response,167,281960,0.0-1.0-220.0,0,0,27789,,,,,,,,,,,,,,,,,,,,,,,,,,,,,,,,,,175.0,2.0,,
168,,size_choice,,html-keyboard-response,168,282661,0.0-1.0-222.0,0,0,27789,,698.0,,,68.0,55.0,55.0,2.0,1500.0,M-L,1.0,L,M,3.0,2.0,dishwasher,ketchup,dishwasher5,ketchup2,24.0,91.0,/static/Size_judgement/Stimuli/Size_stims/L/dishwasher/dishwasher4.jpg,/static/Size_judgement/Stimuli/Size_stims/M/ketchup/ketchup9.jpg,1.0,dishwasher,ketchup,L,M,3.0,2.0,dishwasher5,ketchup2,1.0,175.698,0.698,0.0,
169,,size_choice_confirmation,,html-keyboard-response,169,283466,0.0-1.0-223.0-0.0,0,0,27789,,,,,,55.0,,,,,,,,,,,,,,,,,,,,,,,,,,,,176.5,0.802,,
170,,iti,,html-keyboard-response,170,284969,0.0-1.0-224.0,0,0,27789,,,,,,,,,,,,,,,,,,,,,,,,,,,,,,,,,,178.0,1.5,,
171,,size_choice,,html-keyboard-response,171,285729,0.0-1.0-226.0,0,0,27789,,757.0,,,75.0,56.0,56.0,2.0,1000.0,M-L,0.0,M,L,2.0,3.0,hairdryer,deskchair,hairdryer5,deskchair3,74.0,12.0,/static/Size_judgement/Stimuli/Size_stims/M/hairdryer/hairdryer15.jpg,/static/Size_judgement/Stimuli/Size_stims/L/deskchair/deskchair10.jpg,0.0,deskchair,hairdryer,L,M,3.0,2.0,deskchair3,hairdryer5,1.0,178.757,0.757,0.0,
172,,size_choice_confirmation,,html-keyboard-response,172,286476,0.0-1.0-227.0-0.0,0,0,27789,,,,,,56.0,,,,,,,,,,,,,,,,,,,,,,,,,,,,179.5,0.743,,
173,,iti,,html-keyboard-response,173,287487,0.0-1.0-228.0,0,0,27789,,,,,,,,,,,,,,,,,,,,,,,,,,,,,,,,,,180.5,1.0,,
174,,size_choice,,html-keyboard-response,174,288405,0.0-1.0-230.0,0,0,27789,,916.0,,,75.0,57.0,57.0,2.0,1000.0,S-XL,0.0,S,XL,1.0,4.0,thread,dumptruck,thread7,dumptruck1,146.0,170.0,/static/Size_judgement/Stimuli/Size_stims/S/thread/thread3.jpg,/static/Size_judgement/Stimuli/Size_stims/XL/dumptruck/dumptruck9.jpg,0.0,dumptruck,thread,XL,S,4.0,1.0,dumptruck1,thread7,1.0,181.416,0.916,0.0,
175,,size_choice_confirmation,,html-keyboard-response,175,288993,0.0-1.0-231.0-0.0,0,0,27789,,,,,,57.0,,,,,,,,,,,,,,,,,,,,,,,,,,,,182.0,0.584,,
176,,iti,,html-keyboard-response,176,289996,0.0-1.0-232.0,0,0,27789,,,,,,,,,,,,,,,,,,,,,,,,,,,,,,,,,,183.0,1.0,,
177,,size_choice,,html-keyboard-response,177,290814,0.0-1.0-234.0,0,0,27789,,815.0,,,75.0,58.0,58.0,2.0,1000.0,S-L,0.0,S,L,1.0,3.0,teabag,dishwasher,teabag9,dishwasher6,138.0,25.0,/static/Size_judgement/Stimuli/Size_stims/S/teabag/teabag5.jpg,/static/Size_judgement/Stimuli/Size_stims/L/dishwasher/dishwasher6.jpg,0.0,dishwasher,teabag,L,S,3.0,1.0,dishwasher6,teabag9,1.0,183.815,0.815,0.0,
178,,size_choice_confirmation,,html-keyboard-response,178,291503,0.0-1.0-235.0-0.0,0,0,27789,,,,,,58.0,,,,,,,,,,,,,,,,,,,,,,,,,,,,184.5,0.685,,
179,,iti,,html-keyboard-response,179,292507,0.0-1.0-236.0,0,0,27789,,,,,,,,,,,,,,,,,,,,,,,,,,,,,,,,,,185.5,1.0,,
180,,size_choice,,html-keyboard-response,180,293535,0.0-1.0-238.0,0,0,27789,,1026.0,,,75.0,59.0,59.0,2.0,1000.0,M-M,,M,M,2.0,2.0,basketball,ketchup,basketball2,ketchup10,51.0,99.0,/static/Size_judgement/Stimuli/Size_stims/M/basketball/basketball8.jpg,/static/Size_judgement/Stimuli/Size_stims/M/ketchup/ketchup6.jpg,0.0,ketchup,basketball,M,M,2.0,2.0,ketchup10,basketball2,,186.526,1.026,0.0,
181,,size_choice_confirmation,,html-keyboard-response,181,294013,0.0-1.0-239.0-0.0,0,0,27789,,,,,,59.0,,,,,,,,,,,,,,,,,,,,,,,,,,,,187.0,0.474,,
182,,iti,,html-keyboard-response,182,295016,0.0-1.0-240.0,0,0,27789,,,,,,,,,,,,,,,,,,,,,,,,,,,,,,,,,,188.0,1.0,,
183,,size_choice,,html-keyboard-response,183,295807,0.0-1.0-242.0,0,0,27789,,788.0,,,75.0,60.0,60.0,2.0,1500.0,M-XL,0.0,M,XL,2.0,4.0,ketchup,dumptruck,ketchup1,dumptruck3,90.0,172.0,/static/Size_judgement/Stimuli/Size_stims/M/ketchup/ketchup8.jpg,/static/Size_judgement/Stimuli/Size_stims/XL/dumptruck/dumptruck10.jpg,0.0,dumptruck,ketchup,XL,M,4.0,2.0,dumptruck3,ketchup1,1.0,188.788,0.788,0.0,
184,,size_choice_confirmation,,html-keyboard-response,184,296523,0.0-1.0-243.0-0.0,0,0,27789,,,,,,60.0,,,,,,,,,,,,,,,,,,,,,,,,,,,,189.5,0.712,,
185,,iti,,html-keyboard-response,185,298025,0.0-1.0-244.0,0,0,27789,,,,,,,,,,,,,,,,,,,,,,,,,,,,,,,,,,191.0,1.5,,
186,,size_choice,,html-keyboard-response,186,298698,0.0-1.0-246.0,0,0,27789,,670.0,,,75.0,61.0,61.0,2.0,1500.0,M-XL,0.0,M,XL,2.0,4.0,basketball,tractor,basketball1,tractor1,50.0,180.0,/static/Size_judgement/Stimuli/Size_stims/M/basketball/basketball9.jpg,/static/Size_judgement/Stimuli/Size_stims/XL/tractor/tractor6.jpg,0.0,tractor,basketball,XL,M,4.0,2.0,tractor1,basketball1,1.0,191.67,0.67,0.0,
187,,size_choice_confirmation,,html-keyboard-response,187,299531,0.0-1.0-247.0-0.0,0,0,27789,,,,,,61.0,,,,,,,,,,,,,,,,,,,,,,,,,,,,192.5,0.83,,
188,,iti,,html-keyboard-response,188,301034,0.0-1.0-248.0,0,0,27789,,,,,,,,,,,,,,,,,,,,,,,,,,,,,,,,,,194.0,1.5,,
189,,size_choice,,html-keyboard-response,189,301863,0.0-1.0-250.0,0,0,27789,,826.0,,,75.0,62.0,62.0,2.0,3000.0,L-XL,0.0,L,XL,3.0,4.0,cooler,van,cooler2,van9,1.0,198.0,/static/Size_judgement/Stimuli/Size_stims/L/cooler/cooler9.jpg,/static/Size_judgement/Stimuli/Size_stims/XL/van/van9.jpg,0.0,van,cooler,XL,L,4.0,3.0,van9,cooler2,1.0,194.826,0.826,0.0,
190,,size_choice_confirmation,,html-keyboard-response,190,302541,0.0-1.0-251.0-0.0,0,0,27789,,,,,,62.0,,,,,,,,,,,,,,,,,,,,,,,,,,,,195.5,0.674,,
191,,iti,,html-keyboard-response,191,305543,0.0-1.0-252.0,0,0,27789,,,,,,,,,,,,,,,,,,,,,,,,,,,,,,,,,,198.5,3.0,,
192,,size_choice,,html-keyboard-response,192,306377,0.0-1.0-254.0,0,0,27789,,830.0,,,75.0,63.0,63.0,2.0,3500.0,S-L,0.0,S,L,1.0,3.0,thread,dishwasher,thread2,dishwasher7,141.0,26.0,/static/Size_judgement/Stimuli/Size_stims/S/thread/thread6.jpg,/static/Size_judgement/Stimuli/Size_stims/L/dishwasher/dishwasher7.jpg,0.0,dishwasher,thread,L,S,3.0,1.0,dishwasher7,thread2,1.0,199.33,0.83,0.0,
193,,size_choice_confirmation,,html-keyboard-response,193,307051,0.0-1.0-255.0-0.0,0,0,27789,,,,,,63.0,,,,,,,,,,,,,,,,,,,,,,,,,,,,200.0,0.67,,
194,,iti,,html-keyboard-response,194,310553,0.0-1.0-256.0,0,0,27789,,,,,,,,,,,,,,,,,,,,,,,,,,,,,,,,,,203.5,3.5,,
195,,size_choice,,html-keyboard-response,195,311752,0.0-1.0-258.0,0,0,27789,,1196.0,,,75.0,64.0,64.0,2.0,1500.0,M-L,0.0,M,L,2.0,3.0,handsaw,cooler,handsaw8,cooler7,87.0,6.0,/static/Size_judgement/Stimuli/Size_stims/M/handsaw/handsaw7.jpg,/static/Size_judgement/Stimuli/Size_stims/L/cooler/cooler4.jpg,0.0,cooler,handsaw,L,M,3.0,2.0,cooler7,handsaw8,1.0,204.696,1.196,0.0,
196,,size_choice_confirmation,,html-keyboard-response,196,312060,0.0-1.0-259.0-0.0,0,0,27789,,,,,,64.0,,,,,,,,,,,,,,,,,,,,,,,,,,,,205.0,0.304,,
197,,iti,,html-keyboard-response,197,313563,0.0-1.0-260.0,0,0,27789,,,,,,,,,,,,,,,,,,,,,,,,,,,,,,,,,,206.5,1.5,,
198,,size_choice,,html-keyboard-response,198,314315,0.0-1.0-262.0,0,0,27789,,749.0,,,75.0,65.0,65.0,2.0,2000.0,M-L,0.0,M,L,2.0,3.0,handsaw,mailbox,handsaw5,mailbox1,84.0,40.0,/static/Size_judgement/Stimuli/Size_stims/M/handsaw/handsaw1.jpg,/static/Size_judgement/Stimuli/Size_stims/L/mailbox/mailbox3.jpg,0.0,mailbox,handsaw,L,M,3.0,2.0,mailbox1,handsaw5,1.0,207.249,0.749,0.0,
199,,size_choice_confirmation,,html-keyboard-response,199,315070,0.0-1.0-263.0-0.0,0,0,27789,,,,,,65.0,,,,,,,,,,,,,,,,,,,,,,,,,,,,208.0,0.751,,
200,,iti,,html-keyboard-response,200,317072,0.0-1.0-264.0,0,0,27789,,,,,,,,,,,,,,,,,,,,,,,,,,,,,,,,,,210.0,2.0,,
201,,size_choice,,html-keyboard-response,201,317767,0.0-1.0-266.0,0,0,27789,,693.0,,,68.0,66.0,66.0,2.0,1000.0,M-XL,1.0,XL,M,4.0,2.0,car,ketchup,car10,ketchup8,159.0,97.0,/static/Size_judgement/Stimuli/Size_stims/XL/car/car9.jpg,/static/Size_judgement/Stimuli/Size_stims/M/ketchup/ketchup5.jpg,1.0,car,ketchup,XL,M,4.0,2.0,car10,ketchup8,1.0,210.693,0.693,0.0,
202,,size_choice_confirmation,,html-keyboard-response,202,318593,0.0-1.0-267.0-0.0,0,0,27789,,,,,,66.0,,,,,,,,,,,,,,,,,,,,,,,,,,,,211.5,0.807,,
203,,iti,,html-keyboard-response,203,319595,0.0-1.0-268.0,0,0,27789,,,,,,,,,,,,,,,,,,,,,,,,,,,,,,,,,,212.5,1.0,,
204,,size_choice,,html-keyboard-response,204,320453,0.0-1.0-270.0,0,0,27789,,856.0,,,68.0,67.0,67.0,2.0,1000.0,S-L,1.0,L,S,3.0,1.0,deskchair,thread,deskchair6,thread3,15.0,142.0,/static/Size_judgement/Stimuli/Size_stims/L/deskchair/deskchair5.jpg,/static/Size_judgement/Stimuli/Size_stims/S/thread/thread4.jpg,1.0,deskchair,thread,L,S,3.0,1.0,deskchair6,thread3,1.0,213.356,0.856,0.0,
205,,size_choice_confirmation,,html-keyboard-response,205,321101,0.0-1.0-271.0-0.0,0,0,27789,,,,,,67.0,,,,,,,,,,,,,,,,,,,,,,,,,,,,214.0,0.644,,
206,,iti,,html-keyboard-response,206,322104,0.0-1.0-272.0,0,0,27789,,,,,,,,,,,,,,,,,,,,,,,,,,,,,,,,,,215.0,1.0,,
207,,size_choice,,html-keyboard-response,207,322810,0.0-1.0-274.0,0,0,27789,,704.0,,,75.0,68.0,68.0,2.0,2000.0,S-XL,0.0,S,XL,1.0,4.0,screws,dumptruck,screws3,dumptruck4,122.0,173.0,/static/Size_judgement/Stimuli/Size_stims/S/screws/screws7.jpg,/static/Size_judgement/Stimuli/Size_stims/XL/dumptruck/dumptruck1.jpg,0.0,dumptruck,screws,XL,S,4.0,1.0,dumptruck4,screws3,1.0,215.704,0.704,0.0,
208,,size_choice_confirmation,,html-keyboard-response,208,323610,0.0-1.0-275.0-0.0,0,0,27789,,,,,,68.0,,,,,,,,,,,,,,,,,,,,,,,,,,,,216.5,0.796,,
209,,iti,,html-keyboard-response,209,325612,0.0-1.0-276.0,0,0,27789,,,,,,,,,,,,,,,,,,,,,,,,,,,,,,,,,,218.5,2.0,,
210,,size_choice,,html-keyboard-response,210,326654,0.0-1.0-278.0,0,0,27789,,1038.0,,,75.0,69.0,69.0,2.0,3000.0,S-XL,0.0,S,XL,1.0,4.0,paperclip,dumptruck,paperclip8,dumptruck7,117.0,176.0,/static/Size_judgement/Stimuli/Size_stims/S/paperclip/paperclip5.jpg,/static/Size_judgement/Stimuli/Size_stims/XL/dumptruck/dumptruck6.jpg,0.0,dumptruck,paperclip,XL,S,4.0,1.0,dumptruck7,paperclip8,1.0,219.538,1.038,0.0,
211,,size_choice_confirmation,,html-keyboard-response,211,327119,0.0-1.0-279.0-0.0,0,0,27789,,,,,,69.0,,,,,,,,,,,,,,,,,,,,,,,,,,,,220.0,0.462,,
212,,iti,,html-keyboard-response,212,330121,0.0-1.0-280.0,0,0,27789,,,,,,,,,,,,,,,,,,,,,,,,,,,,,,,,,,223.0,3.0,,
213,,size_choice,,html-keyboard-response,213,331080,0.0-1.0-282.0,0,0,27789,,956.0,,,75.0,70.0,70.0,2.0,1500.0,S-L,0.0,S,L,1.0,3.0,die,deskchair,die1,deskchair8,100.0,17.0,/static/Size_judgement/Stimuli/Size_stims/S/die/die8.jpg,/static/Size_judgement/Stimuli/Size_stims/L/deskchair/deskchair1.jpg,0.0,deskchair,die,L,S,3.0,1.0,deskchair8,die1,1.0,223.956,0.956,0.0,
214,,size_choice_confirmation,,html-keyboard-response,214,331627,0.0-1.0-283.0-0.0,0,0,27789,,,,,,70.0,,,,,,,,,,,,,,,,,,,,,,,,,,,,224.5,0.544,,
215,,iti,,html-keyboard-response,215,333130,0.0-1.0-284.0,0,0,27789,,,,,,,,,,,,,,,,,,,,,,,,,,,,,,,,,,226.0,1.5,,
216,,size_choice,,html-keyboard-response,216,333911,0.0-1.0-286.0,0,0,27789,,778.0,,,75.0,71.0,71.0,2.0,1500.0,XL-XL,,XL,XL,4.0,4.0,tractor,van,tractor3,van8,182.0,197.0,/static/Size_judgement/Stimuli/Size_stims/XL/tractor/tractor5.jpg,/static/Size_judgement/Stimuli/Size_stims/XL/van/van10.jpg,0.0,van,tractor,XL,XL,4.0,4.0,van8,tractor3,,226.778,0.778,0.0,
217,,size_choice_confirmation,,html-keyboard-response,217,334637,0.0-1.0-287.0-0.0,0,0,27789,,,,,,71.0,,,,,,,,,,,,,,,,,,,,,,,,,,,,227.5,0.722,,
218,,iti,,html-keyboard-response,218,336140,0.0-1.0-288.0,0,0,27789,,,,,,,,,,,,,,,,,,,,,,,,,,,,,,,,,,229.0,1.5,,
219,,size_choice,,html-keyboard-response,219,337062,0.0-1.0-290.0,0,0,27789,,920.0,,,75.0,72.0,72.0,2.0,1500.0,S-XL,0.0,S,XL,1.0,4.0,paperclip,dumptruck,paperclip4,dumptruck5,113.0,174.0,/static/Size_judgement/Stimuli/Size_stims/S/paperclip/paperclip3.jpg,/static/Size_judgement/Stimuli/Size_stims/XL/dumptruck/dumptruck3.jpg,0.0,dumptruck,paperclip,XL,S,4.0,1.0,dumptruck5,paperclip4,1.0,229.92,0.92,0.0,
220,,size_choice_confirmation,,html-keyboard-response,220,337646,0.0-1.0-291.0-0.0,0,0,27789,,,,,,72.0,,,,,,,,,,,,,,,,,,,,,,,,,,,,230.5,0.58,,
221,,iti,,html-keyboard-response,221,339149,0.0-1.0-292.0,0,0,27789,,,,,,,,,,,,,,,,,,,,,,,,,,,,,,,,,,232.0,1.5,,
222,,size_choice,,html-keyboard-response,222,339963,0.0-1.0-294.0,0,0,27789,,811.0,,,75.0,73.0,73.0,2.0,3000.0,M-L,0.0,M,L,2.0,3.0,coffeemaker,dishwasher,coffeemaker6,dishwasher4,65.0,23.0,/static/Size_judgement/Stimuli/Size_stims/M/coffeemaker/coffeemaker8.jpg,/static/Size_judgement/Stimuli/Size_stims/L/dishwasher/dishwasher5.jpg,0.0,dishwasher,coffeemaker,L,M,3.0,2.0,dishwasher4,coffeemaker6,1.0,232.811,0.811,0.0,
223,,size_choice_confirmation,,html-keyboard-response,223,340657,0.0-1.0-295.0-0.0,0,0,27789,,,,,,73.0,,,,,,,,,,,,,,,,,,,,,,,,,,,,233.5,0.689,,
224,,iti,,html-keyboard-response,224,343659,0.0-1.0-296.0,0,0,27789,,,,,,,,,,,,,,,,,,,,,,,,,,,,,,,,,,236.5,3.0,,
225,,size_choice,,html-keyboard-response,225,344289,0.0-1.0-298.0,0,0,27789,,626.0,,,68.0,74.0,74.0,2.0,1500.0,S-XL,1.0,XL,S,4.0,1.0,car,die,car1,die9,150.0,108.0,/static/Size_judgement/Stimuli/Size_stims/XL/car/car2.jpg,/static/Size_judgement/Stimuli/Size_stims/S/die/die7.jpg,1.0,car,die,XL,S,4.0,1.0,car1,die9,1.0,237.126,0.626,0.0,
226,,size_choice_confirmation,,html-keyboard-response,226,345167,0.0-1.0-299.0-0.0,0,0,27789,,,,,,74.0,,,,,,,,,,,,,,,,,,,,,,,,,,,,238.0,0.874,,
227,,iti,,html-keyboard-response,227,346669,0.0-1.0-300.0,0,0,27789,,,,,,,,,,,,,,,,,,,,,,,,,,,,,,,,,,239.5,1.5,,
228,,size_choice,,html-keyboard-response,228,347581,0.0-1.0-302.0,0,0,27789,,908.0,,,68.0,75.0,75.0,2.0,1500.0,M-XL,1.0,XL,M,4.0,2.0,crane,handsaw,crane1,handsaw10,160.0,89.0,/static/Size_judgement/Stimuli/Size_stims/XL/crane/crane7.jpg,/static/Size_judgement/Stimuli/Size_stims/M/handsaw/handsaw10.jpg,1.0,crane,handsaw,XL,M,4.0,2.0,crane1,handsaw10,1.0,240.408,0.908,0.0,
229,,size_choice_confirmation,,html-keyboard-response,229,348177,0.0-1.0-303.0-0.0,0,0,27789,,,,,,75.0,,,,,,,,,,,,,,,,,,,,,,,,,,,,241.0,0.592,,
230,,iti,,html-keyboard-response,230,349679,0.0-1.0-304.0,0,0,27789,,,,,,,,,,,,,,,,,,,,,,,,,,,,,,,,,,242.5,1.5,,
231,,size_choice,,html-keyboard-response,231,350323,0.0-1.0-306.0,0,0,27789,,640.0,,,68.0,76.0,76.0,2.0,1500.0,S-XL,1.0,XL,S,4.0,1.0,tractor,screws,tractor2,screws6,181.0,125.0,/static/Size_judgement/Stimuli/Size_stims/XL/tractor/tractor7.jpg,/static/Size_judgement/Stimuli/Size_stims/S/screws/screws3.jpg,1.0,tractor,screws,XL,S,4.0,1.0,tractor2,screws6,1.0,243.14,0.64,0.0,
232,,size_choice_confirmation,,html-keyboard-response,232,351187,0.0-1.0-307.0-0.0,0,0,27789,,,,,,76.0,,,,,,,,,,,,,,,,,,,,,,,,,,,,244.0,0.86,,
233,,iti,,html-keyboard-response,233,352690,0.0-1.0-308.0,0,0,27789,,,,,,,,,,,,,,,,,,,,,,,,,,,,,,,,,,245.5,1.5,,
234,,size_choice,,html-keyboard-response,234,353716,0.0-1.0-310.0,0,0,27789,,1023.0,,,75.0,77.0,77.0,2.0,2000.0,M-L,0.0,M,L,2.0,3.0,coffeemaker,deskchair,coffeemaker4,deskchair5,63.0,14.0,/static/Size_judgement/Stimuli/Size_stims/M/coffeemaker/coffeemaker11.jpg,/static/Size_judgement/Stimuli/Size_stims/L/deskchair/deskchair7.jpg,0.0,deskchair,coffeemaker,L,M,3.0,2.0,deskchair5,coffeemaker4,1.0,246.523,1.023,0.0,
235,,size_choice_confirmation,,html-keyboard-response,235,354196,0.0-1.0-311.0-0.0,0,0,27789,,,,,,77.0,,,,,,,,,,,,,,,,,,,,,,,,,,,,247.0,0.477,,
236,,iti,,html-keyboard-response,236,356199,0.0-1.0-312.0,0,0,27789,,,,,,,,,,,,,,,,,,,,,,,,,,,,,,,,,,249.0,2.0,,
237,,size_choice,,html-keyboard-response,237,357070,0.0-1.0-314.0,0,0,27789,,868.0,,,68.0,78.0,78.0,2.0,1500.0,M-XL,1.0,XL,M,4.0,2.0,dumptruck,coffeemaker,dumptruck10,coffeemaker10,179.0,69.0,/static/Size_judgement/Stimuli/Size_stims/XL/dumptruck/dumptruck4.jpg,/static/Size_judgement/Stimuli/Size_stims/M/coffeemaker/coffeemaker18.jpg,1.0,dumptruck,coffeemaker,XL,M,4.0,2.0,dumptruck10,coffeemaker10,1.0,249.868,0.868,0.0,
238,,size_choice_confirmation,,html-keyboard-response,238,357705,0.0-1.0-315.0-0.0,0,0,27789,,,,,,78.0,,,,,,,,,,,,,,,,,,,,,,,,,,,,250.5,0.632,,
239,,iti,,html-keyboard-response,239,359208,0.0-1.0-316.0,0,0,27789,,,,,,,,,,,,,,,,,,,,,,,,,,,,,,,,,,252.0,1.5,,
240,,size_choice,,html-keyboard-response,240,360198,0.0-1.0-318.0,0,0,27789,,987.0,,,68.0,79.0,79.0,2.0,1000.0,L-L,,L,L,3.0,3.0,mailbox,cooler,mailbox4,cooler6,43.0,5.0,/static/Size_judgement/Stimuli/Size_stims/L/mailbox/mailbox5.jpg,/static/Size_judgement/Stimuli/Size_stims/L/cooler/cooler1.jpg,1.0,mailbox,cooler,L,L,3.0,3.0,mailbox4,cooler6,,252.987,0.987,0.0,
241,,size_choice_confirmation,,html-keyboard-response,241,360715,0.0-1.0-319.0-0.0,0,0,27789,,,,,,79.0,,,,,,,,,,,,,,,,,,,,,,,,,,,,253.5,0.513,,
242,,iti,,html-keyboard-response,242,361718,0.0-1.0-320.0,0,0,27789,,,,,,,,,,,,,,,,,,,,,,,,,,,,,,,,,,254.5,1.0,,
243,,size_choice,,html-keyboard-response,243,362624,0.0-1.0-322.0,0,0,27789,,903.0,,,75.0,80.0,80.0,2.0,1000.0,S-M,0.0,S,M,1.0,2.0,die,basketball,die3,basketball3,102.0,52.0,/static/Size_judgement/Stimuli/Size_stims/S/die/die10.jpg,/static/Size_judgement/Stimuli/Size_stims/M/basketball/basketball10.jpg,0.0,basketball,die,M,S,2.0,1.0,basketball3,die3,1.0,255.403,0.903,0.0,
244,,size_choice_confirmation,,html-keyboard-response,244,363225,0.0-1.0-323.0-0.0,0,0,27789,,,,,,80.0,,,,,,,,,,,,,,,,,,,,,,,,,,,,256.0,0.597,,
245,,iti,,html-keyboard-response,245,364228,0.0-1.0-324.0,0,0,27789,,,,,,,,,,,,,,,,,,,,,,,,,,,,,,,,,,257.0,1.0,,
246,,size_choice,,html-keyboard-response,246,365598,0.0-1.0-326.0,0,0,27789,,1367.0,,,75.0,81.0,81.0,2.0,2000.0,S-L,0.0,S,L,1.0,3.0,thread,garbagecan,thread9,garbagecan7,148.0,36.0,/static/Size_judgement/Stimuli/Size_stims/S/thread/thread8.jpg,/static/Size_judgement/Stimuli/Size_stims/L/garbagecan/garbagecan16.jpg,0.0,garbagecan,thread,L,S,3.0,1.0,garbagecan7,thread9,1.0,258.367,1.367,0.0,
247,,size_choice_confirmation,,html-keyboard-response,247,365735,0.0-1.0-327.0-0.0,0,0,27789,,,,,,81.0,,,,,,,,,,,,,,,,,,,,,,,,,,,,258.5,0.133,,
248,,iti,,html-keyboard-response,248,367739,0.0-1.0-328.0,0,0,27789,,,,,,,,,,,,,,,,,,,,,,,,,,,,,,,,,,260.5,2.0,,
249,,size_choice,,html-keyboard-response,249,368417,0.0-1.0-330.0,0,0,27789,,675.0,,,68.0,82.0,82.0,2.0,2000.0,M-XL,1.0,XL,M,4.0,2.0,tractor,basketball,tractor8,basketball8,187.0,57.0,/static/Size_judgement/Stimuli/Size_stims/XL/tractor/tractor10.jpg,/static/Size_judgement/Stimuli/Size_stims/M/basketball/basketball7.jpg,1.0,tractor,basketball,XL,M,4.0,2.0,tractor8,basketball8,1.0,261.175,0.675,0.0,
250,,size_choice_confirmation,,html-keyboard-response,250,369245,0.0-1.0-331.0-0.0,0,0,27789,,,,,,82.0,,,,,,,,,,,,,,,,,,,,,,,,,,,,262.0,0.825,,
251,,iti,,html-keyboard-response,251,371248,0.0-1.0-332.0,0,0,27789,,,,,,,,,,,,,,,,,,,,,,,,,,,,,,,,,,264.0,2.0,,
252,,size_choice,,html-keyboard-response,252,371983,0.0-1.0-334.0,0,0,27789,,732.0,,,75.0,83.0,83.0,2.0,1000.0,S-XL,0.0,S,XL,1.0,4.0,screws,van,screws2,van3,121.0,192.0,/static/Size_judgement/Stimuli/Size_stims/S/screws/screws5.jpg,/static/Size_judgement/Stimuli/Size_stims/XL/van/van6.jpg,0.0,van,screws,XL,S,4.0,1.0,van3,screws2,1.0,264.732,0.732,0.0,
253,,size_choice_confirmation,,html-keyboard-response,253,372754,0.0-1.0-335.0-0.0,0,0,27789,,,,,,83.0,,,,,,,,,,,,,,,,,,,,,,,,,,,,265.5,0.768,,
254,,iti,,html-keyboard-response,254,373758,0.0-1.0-336.0,0,0,27789,,,,,,,,,,,,,,,,,,,,,,,,,,,,,,,,,,266.5,1.0,,
255,,size_choice,,html-keyboard-response,255,374642,0.0-1.0-338.0,0,0,27789,,881.0,,,75.0,84.0,84.0,2.0,1000.0,L-L,,L,L,3.0,3.0,cooler,dishwasher,cooler3,dishwasher9,2.0,28.0,/static/Size_judgement/Stimuli/Size_stims/L/cooler/cooler2.jpg,/static/Size_judgement/Stimuli/Size_stims/L/dishwasher/dishwasher2.jpg,0.0,dishwasher,cooler,L,L,3.0,3.0,dishwasher9,cooler3,,267.381,0.881,0.0,
256,,size_choice_confirmation,,html-keyboard-response,256,375264,0.0-1.0-339.0-0.0,0,0,27789,,,,,,84.0,,,,,,,,,,,,,,,,,,,,,,,,,,,,268.0,0.619,,
257,,iti,,html-keyboard-response,257,376267,0.0-1.0-340.0,0,0,27789,,,,,,,,,,,,,,,,,,,,,,,,,,,,,,,,,,269.0,1.0,,
258,,size_choice,,html-keyboard-response,258,377045,0.0-1.0-342.0,0,0,27789,,776.0,,,68.0,85.0,85.0,2.0,1000.0,M-M,,M,M,2.0,2.0,hairdryer,handsaw,hairdryer10,handsaw2,79.0,81.0,/static/Size_judgement/Stimuli/Size_stims/M/hairdryer/hairdryer6.jpg,/static/Size_judgement/Stimuli/Size_stims/M/handsaw/handsaw9.jpg,1.0,hairdryer,handsaw,M,M,2.0,2.0,hairdryer10,handsaw2,,269.776,0.776,0.0,
259,,size_choice_confirmation,,html-keyboard-response,259,377773,0.0-1.0-343.0-0.0,0,0,27789,,,,,,85.0,,,,,,,,,,,,,,,,,,,,,,,,,,,,270.5,0.724,,
260,,iti,,html-keyboard-response,260,378776,0.0-1.0-344.0,0,0,27789,,,,,,,,,,,,,,,,,,,,,,,,,,,,,,,,,,271.5,1.0,,
261,,size_choice,,html-keyboard-response,261,379567,0.0-1.0-346.0,0,0,27789,,788.0,,,75.0,86.0,86.0,2.0,1000.0,L-XL,0.0,L,XL,3.0,4.0,garbagecan,crane,garbagecan6,crane2,35.0,161.0,/static/Size_judgement/Stimuli/Size_stims/L/garbagecan/garbagecan14.jpg,/static/Size_judgement/Stimuli/Size_stims/XL/crane/crane6.jpg,0.0,crane,garbagecan,XL,L,4.0,3.0,crane2,garbagecan6,1.0,272.288,0.788,0.0,
262,,size_choice_confirmation,,html-keyboard-response,262,380283,0.0-1.0-347.0-0.0,0,0,27789,,,,,,86.0,,,,,,,,,,,,,,,,,,,,,,,,,,,,273.0,0.712,,
263,,iti,,html-keyboard-response,263,381286,0.0-1.0-348.0,0,0,27789,,,,,,,,,,,,,,,,,,,,,,,,,,,,,,,,,,274.0,1.0,,
264,,size_choice,,html-keyboard-response,264,382550,0.0-1.0-350.0,0,0,27789,,1261.0,,,75.0,87.0,87.0,2.0,1000.0,XL-XL,,XL,XL,4.0,4.0,car,tractor,car2,tractor10,151.0,189.0,/static/Size_judgement/Stimuli/Size_stims/XL/car/car3.jpg,/static/Size_judgement/Stimuli/Size_stims/XL/tractor/tractor8.jpg,0.0,tractor,car,XL,XL,4.0,4.0,tractor10,car2,,275.261,1.261,0.0,
265,,size_choice_confirmation,,html-keyboard-response,265,382793,0.0-1.0-351.0-0.0,0,0,27789,,,,,,87.0,,,,,,,,,,,,,,,,,,,,,,,,,,,,275.5,0.239,,
266,,iti,,html-keyboard-response,266,383796,0.0-1.0-352.0,0,0,27789,,,,,,,,,,,,,,,,,,,,,,,,,,,,,,,,,,276.5,1.0,,
267,,size_choice,,html-keyboard-response,267,384788,0.0-1.0-354.0,0,0,27789,,989.0,,,68.0,88.0,88.0,2.0,1000.0,S-L,1.0,L,S,3.0,1.0,deskchair,screws,deskchair7,screws10,16.0,129.0,/static/Size_judgement/Stimuli/Size_stims/L/deskchair/deskchair4.jpg,/static/Size_judgement/Stimuli/Size_stims/S/screws/screws9.jpg,1.0,deskchair,screws,L,S,3.0,1.0,deskchair7,screws10,1.0,277.489,0.989,0.0,
268,,size_choice_confirmation,,html-keyboard-response,268,385304,0.0-1.0-355.0-0.0,0,0,27789,,,,,,88.0,,,,,,,,,,,,,,,,,,,,,,,,,,,,278.0,0.511,,
269,,iti,,html-keyboard-response,269,386307,0.0-1.0-356.0,0,0,27789,,,,,,,,,,,,,,,,,,,,,,,,,,,,,,,,,,279.0,1.0,,
270,,size_choice,,html-keyboard-response,270,387077,0.0-1.0-358.0,0,0,27789,,767.0,,,68.0,89.0,89.0,2.0,3500.0,S-L,1.0,L,S,3.0,1.0,garbagecan,teabag,garbagecan1,teabag4,30.0,133.0,/static/Size_judgement/Stimuli/Size_stims/L/garbagecan/garbagecan4.jpg,/static/Size_judgement/Stimuli/Size_stims/S/teabag/teabag3.jpg,1.0,garbagecan,teabag,L,S,3.0,1.0,garbagecan1,teabag4,1.0,279.767,0.767,0.0,
271,,size_choice_confirmation,,html-keyboard-response,271,387814,0.0-1.0-359.0-0.0,0,0,27789,,,,,,89.0,,,,,,,,,,,,,,,,,,,,,,,,,,,,280.5,0.733,,
272,,iti,,html-keyboard-response,272,391318,0.0-1.0-360.0,0,0,27789,,,,,,,,,,,,,,,,,,,,,,,,,,,,,,,,,,284.0,3.5,,0.97
273,,size_final_tally,,html-keyboard-response,273,395682,0.0-2.0,0,0,27789,,4360.0,,,68.0,,,,,,,,,,,,,,,,,,,,,,,,,,,,,,,,
274,,debreif_intro,,html-keyboard-response,274,404323,0.0-3.0,0,0,27789,,8595.0,,,68.0,,,,,,,,,,,,,,,,,,,,,,,,,,,,,,,,
275,,debreif_age,,survey-text,275,421956,0.0-4.0,0,0,27789,,17631.0,"{""Q0"":""25""}",,,,,,,,,,,,,,,,,,,,,,,,,,,,,,,,,,
276,,debreif_gender,,survey-multi-choice,276,424572,0.0-5.0,0,0,27789,,2613.0,"{""Q0"":""Female""}",,,,,,,,,,,,,,,,,,,,,,,,,,,,,,,,,,
277,,debreif_dominant_hand,,survey-multi-choice,277,430163,0.0-6.0,0,0,27789,,5586.0,"{""Q0"":""Right""}",,,,,,,,,,,,,,,,,,,,,,,,,,,,,,,,,,
278,,debreif_native_language,,survey-multi-choice,278,433226,0.0-7.0,0,0,27789,,3059.0,"{""Q0"":""Yes""}",,,,,,,,,,,,,,,,,,,,,,,,,,,,,,,,,,
279,,debreif_fluency,,survey-likert,279,440055,0.0-8.0,0,0,27789,,6825.0,"{""Q0"":5}",,,,,,,,,,,,,,,,,,,,,,,,,,,,,,,,,,
280,,debreif_strategy_category_learning,,survey-text,280,586907,0.0-9.0,0,0,27789,,146850.0,"{""Q0"":""I tried to take a mental note of how much the object cost and whatever I could remember was over 60 cents, I went with each time. ""}",,,,,,,,,,,,,,,,,,,,,,,,,,,,,,,,,,
281,,debreif_strategy_old_trials,,survey-text,281,675715,0.0-10.0,0,0,27789,,88805.0,"{""Q0"":""I tried to to remember the price for the same type of objects. if I couldn't remember I took my best guess.""}",,,,,,,,,,,,,,,,,,,,,,,,,,,,,,,,,,
282,,debreif_strategy_category_memory,,survey-text,282,797124,0.0-11.0,0,0,27789,,121407.0,"{""Q0"":""I tried my best to remember the different costs. If I couldn't remember an exact cost i just estimated as best as I could. ""}",,,,,,,,,,,,,,,,,,,,,,,,,,,,,,,,,,
283,,debreif_strategy_size,,survey-text,283,874968,0.0-12.0,0,0,27789,,77842.0,"{""Q0"":""I had to imagine the objects in real life and not just a image then i decided which was bigger. ""}",,,,,,,,,,,,,,,,,,,,,,,,,,,,,,,,,,
284,,debreif_strategy_rl,,survey-text,284,974790,0.0-13.0,0,0,27789,,99820.0,"{""Q0"":""Since the cost wasn't consistent I just did my best to guess which would cost the most. ""}",,,,,,,,,,,,,,,,,,,,,,,,,,,,,,,,,,
285,,debreif_clear_instructions,,survey-text,285,980427,0.0-14.0,0,0,27789,,5635.0,"{""Q0"":""no""}",,,,,,,,,,,,,,,,,,,,,,,,,,,,,,,,,,
286,,debreif_end,,html-keyboard-response,286,1063055,0.0-15.0,0,0,27789,,82625.0,,,32.0,,,,,,,,,,,,,,,,,,,,,,,,,,,,,,,,
