,success,ttype,start_time,trial_type,trial_index,time_elapsed,internal_node_id,warning,missed_checkup,PID,view_history,rt,responses,repeat_instructions,key_press,index,trial_num,block,iti,pair_type,high_size_on_left,left_size_group,right_size_group,left_size_num,right_size_num,left_category,right_category,left_exemplar,right_exemplar,left_index,right_index,left_img_path,right_img_path,accuracy,onset,duration,no_response,left_chosen,chosen_category,unchosen_category,chosen_size_group,unchosen_size_group,chosen_size_num,unchosen_size_num,chosen_exemplar,unchosen_exemplar,size_final_tally
0,True,full_screen,d06072022hr1804,fullscreen,0,4523,0.0-0.0,0,0,46320,,,,,,,,,,,,,,,,,,,,,,,,,,,,,,,,,,,,,
1,,size_instructions,,instructions,1,31215,0.0-1.0-0.0-0.0,0,0,46320,"[{""page_index"":0,""viewing_time"":6573},{""page_index"":1,""viewing_time"":5718},{""page_index"":2,""viewing_time"":2732},{""page_index"":3,""viewing_time"":4909},{""page_index"":4,""viewing_time"":4937},{""page_index"":5,""viewing_time"":1817}]",26688.0,,,,,,,,,,,,,,,,,,,,,,,,,,,,,,,,,,,
2,,size_comprehension_check,,survey-multi-choice,2,55862,0.0-1.0-0.0-1.0,0,0,46320,,24633.0,"{""Q0"":""True"",""Q1"":""Size on the screen"",""Q2"":""True"",""Q3"":""D for left and K for right""}",1.0,,,,,,,,,,,,,,,,,,,,,,,,,,,,,,,,,
3,,missed_instruction_checkup,,html-keyboard-response,3,60491,0.0-1.0-0.0-2.0-0.0,0,1,46320,,4624.0,,,68.0,,,,,,,,,,,,,,,,,,,,,,,,,,,,,,,,
4,,size_instructions,,instructions,4,79759,0.0-1.0-0.1-0.1,0,0,46320,"[{""page_index"":0,""viewing_time"":3296},{""page_index"":1,""viewing_time"":4001},{""page_index"":2,""viewing_time"":1988},{""page_index"":3,""viewing_time"":2002},{""page_index"":4,""viewing_time"":5964},{""page_index"":5,""viewing_time"":2013}]",19265.0,,,,,,,,,,,,,,,,,,,,,,,,,,,,,,,,,,,
5,,size_comprehension_check,,survey-multi-choice,5,90840,0.0-1.0-0.1-1.1,0,0,46320,,11076.0,"{""Q0"":""True"",""Q1"":""Size in the real world"",""Q2"":""True"",""Q3"":""D for left and K for right""}",0.0,,,,,,,,,,,,,,,,,,,,,,,,,,,,,,,,,
6,,,,html-keyboard-response,6,93830,0.0-1.0-1.0,0,0,46320,,2987.0,,,68.0,,,,,,,,,,,,,,,,,,,,,,,,,,,,,,,,
7,,size_choice,,html-keyboard-response,7,95382,0.0-1.0-2.0,0,0,46320,,,,,,0.0,0.0,1.0,2000.0,L-L,,L,L,3.0,3.0,deskchair,mailbox,deskchair10,mailbox3,19.0,42.0,/static/Size_judgement/Stimuli/Size_stims/L/deskchair/deskchair2.jpg,/static/Size_judgement/Stimuli/Size_stims/L/mailbox/mailbox1.jpg,,1.5,1.5,1.0,,,,,,,,,,
8,,iti,,html-keyboard-response,8,97544,0.0-1.0-4.0,0,0,46320,,,,,,0.0,,1.0,,,,,,,,,,,,,,,,,3.5,2.0,,,,,,,,,,,
9,,size_choice,,html-keyboard-response,9,98890,0.0-1.0-6.0,0,0,46320,,1343.0,,,75.0,1.0,1.0,1.0,1000.0,S-XL,1.0,XL,S,4.0,1.0,dumptruck,teabag,dumptruck9,teabag3,178.0,132.0,/static/Size_judgement/Stimuli/Size_stims/XL/dumptruck/dumptruck5.jpg,/static/Size_judgement/Stimuli/Size_stims/S/teabag/teabag1.jpg,0.0,4.843,1.343,0.0,0.0,teabag,dumptruck,S,XL,1.0,4.0,teabag3,dumptruck9,
10,,size_choice_confirmation,,html-keyboard-response,10,99048,0.0-1.0-7.0-0.0,0,0,46320,,,,,,1.0,,1.0,,,,,,,,,,,,,,,,,5.0,0.157,,,,,,,,,,,
11,,iti,,html-keyboard-response,11,100085,0.0-1.0-8.0,0,0,46320,,,,,,1.0,,1.0,,,,,,,,,,,,,,,,,6.0,1.0,,,,,,,,,,,
12,,size_choice,,html-keyboard-response,12,101587,0.0-1.0-10.0,0,0,46320,,,,,,2.0,2.0,1.0,1000.0,M-L,1.0,L,M,3.0,2.0,mailbox,ketchup,mailbox9,ketchup7,48.0,96.0,/static/Size_judgement/Stimuli/Size_stims/L/mailbox/mailbox9.jpg,/static/Size_judgement/Stimuli/Size_stims/M/ketchup/ketchup4.jpg,,7.5,1.5,1.0,,,,,,,,,,
13,,iti,,html-keyboard-response,13,102591,0.0-1.0-12.0,0,0,46320,,,,,,2.0,,1.0,,,,,,,,,,,,,,,,,8.5,1.0,,,,,,,,,,,
14,,size_choice,,html-keyboard-response,14,103651,0.0-1.0-14.0,0,0,46320,,1058.0,,,68.0,3.0,3.0,1.0,2000.0,M-XL,1.0,XL,M,4.0,2.0,dumptruck,ketchup,dumptruck4,ketchup2,173.0,91.0,/static/Size_judgement/Stimuli/Size_stims/XL/dumptruck/dumptruck1.jpg,/static/Size_judgement/Stimuli/Size_stims/M/ketchup/ketchup9.jpg,1.0,9.558,1.058,0.0,1.0,dumptruck,ketchup,XL,M,4.0,2.0,dumptruck4,ketchup2,
15,,size_choice_confirmation,,html-keyboard-response,15,104152,0.0-1.0-15.0-0.0,0,0,46320,,,,,,3.0,,1.0,,,,,,,,,,,,,,,,,10.0,0.442,,,,,,,,,,,
16,,iti,,html-keyboard-response,16,106275,0.0-1.0-16.0,0,0,46320,,,,,,3.0,,1.0,,,,,,,,,,,,,,,,,12.0,2.0,,,,,,,,,,,
17,,size_choice,,html-keyboard-response,17,107711,0.0-1.0-18.0,0,0,46320,,1435.0,,,68.0,4.0,4.0,1.0,1000.0,L-XL,0.0,L,XL,3.0,4.0,garbagecan,dumptruck,garbagecan9,dumptruck7,38.0,176.0,/static/Size_judgement/Stimuli/Size_stims/L/garbagecan/garbagecan12.jpg,/static/Size_judgement/Stimuli/Size_stims/XL/dumptruck/dumptruck6.jpg,0.0,13.435,1.435,0.0,1.0,garbagecan,dumptruck,L,XL,3.0,4.0,garbagecan9,dumptruck7,
18,,size_choice_confirmation,,html-keyboard-response,18,107777,0.0-1.0-19.0-0.0,0,0,46320,,,,,,4.0,,1.0,,,,,,,,,,,,,,,,,13.5,0.065,,,,,,,,,,,
19,,iti,,html-keyboard-response,19,108778,0.0-1.0-20.0,0,0,46320,,,,,,4.0,,1.0,,,,,,,,,,,,,,,,,14.5,1.0,,,,,,,,,,,
20,,size_choice,,html-keyboard-response,20,109992,0.0-1.0-22.0,0,0,46320,,1212.0,,,75.0,5.0,5.0,1.0,1500.0,S-L,1.0,L,S,3.0,1.0,mailbox,thread,mailbox8,thread8,47.0,147.0,/static/Size_judgement/Stimuli/Size_stims/L/mailbox/mailbox10.jpg,/static/Size_judgement/Stimuli/Size_stims/S/thread/thread10.jpg,0.0,15.712,1.212,0.0,0.0,thread,mailbox,S,L,1.0,3.0,thread8,mailbox8,
21,,size_choice_confirmation,,html-keyboard-response,21,110434,0.0-1.0-23.0-0.0,0,0,46320,,,,,,5.0,,1.0,,,,,,,,,,,,,,,,,16.0,0.288,,,,,,,,,,,
22,,iti,,html-keyboard-response,22,111939,0.0-1.0-24.0,0,0,46320,,,,,,5.0,,1.0,,,,,,,,,,,,,,,,,17.5,1.5,,,,,,,,,,,
23,,size_choice,,html-keyboard-response,23,113138,0.0-1.0-26.0,0,0,46320,,1192.0,,,68.0,6.0,6.0,1.0,2000.0,S-L,1.0,L,S,3.0,1.0,garbagecan,teabag,garbagecan6,teabag10,35.0,139.0,/static/Size_judgement/Stimuli/Size_stims/L/garbagecan/garbagecan14.jpg,/static/Size_judgement/Stimuli/Size_stims/S/teabag/teabag4.jpg,1.0,18.692,1.192,0.0,1.0,garbagecan,teabag,L,S,3.0,1.0,garbagecan6,teabag10,
24,,size_choice_confirmation,,html-keyboard-response,24,113464,0.0-1.0-27.0-0.0,0,0,46320,,,,,,6.0,,1.0,,,,,,,,,,,,,,,,,19.0,0.308,,,,,,,,,,,
25,,iti,,html-keyboard-response,25,115481,0.0-1.0-28.0,0,0,46320,,,,,,6.0,,1.0,,,,,,,,,,,,,,,,,21.0,2.0,,,,,,,,,,,
26,,size_choice,,html-keyboard-response,26,116580,0.0-1.0-30.0,0,0,46320,,1097.0,,,68.0,7.0,7.0,1.0,1000.0,M-XL,1.0,XL,M,4.0,2.0,car,ketchup,car2,ketchup5,151.0,94.0,/static/Size_judgement/Stimuli/Size_stims/XL/car/car3.jpg,/static/Size_judgement/Stimuli/Size_stims/M/ketchup/ketchup3.jpg,1.0,22.097,1.097,0.0,1.0,car,ketchup,XL,M,4.0,2.0,car2,ketchup5,
27,,size_choice_confirmation,,html-keyboard-response,27,116984,0.0-1.0-31.0-0.0,0,0,46320,,,,,,7.0,,1.0,,,,,,,,,,,,,,,,,22.5,0.403,,,,,,,,,,,
28,,iti,,html-keyboard-response,28,118051,0.0-1.0-32.0,0,0,46320,,,,,,7.0,,1.0,,,,,,,,,,,,,,,,,23.5,1.0,,,,,,,,,,,
29,,size_choice,,html-keyboard-response,29,119370,0.0-1.0-34.0,0,0,46320,,1316.0,,,75.0,8.0,8.0,1.0,1000.0,XL-XL,,XL,XL,4.0,4.0,van,car,van3,car4,192.0,153.0,/static/Size_judgement/Stimuli/Size_stims/XL/van/van6.jpg,/static/Size_judgement/Stimuli/Size_stims/XL/car/car6.jpg,,24.816,1.316,0.0,0.0,car,van,XL,XL,4.0,4.0,car4,van3,
30,,size_choice_confirmation,,html-keyboard-response,30,119555,0.0-1.0-35.0-0.0,0,0,46320,,,,,,8.0,,1.0,,,,,,,,,,,,,,,,,25.0,0.184,,,,,,,,,,,
31,,iti,,html-keyboard-response,31,120556,0.0-1.0-36.0,0,0,46320,,,,,,8.0,,1.0,,,,,,,,,,,,,,,,,26.0,1.0,,,,,,,,,,,
32,,size_choice,,html-keyboard-response,32,121527,0.0-1.0-38.0,0,0,46320,,969.0,,,75.0,9.0,9.0,1.0,1500.0,S-XL,0.0,S,XL,1.0,4.0,teabag,dumptruck,teabag8,dumptruck8,137.0,177.0,/static/Size_judgement/Stimuli/Size_stims/S/teabag/teabag7.jpg,/static/Size_judgement/Stimuli/Size_stims/XL/dumptruck/dumptruck7.jpg,1.0,26.969,0.969,0.0,0.0,dumptruck,teabag,XL,S,4.0,1.0,dumptruck8,teabag8,
33,,size_choice_confirmation,,html-keyboard-response,33,122061,0.0-1.0-39.0-0.0,0,0,46320,,,,,,9.0,,1.0,,,,,,,,,,,,,,,,,27.5,0.531,,,,,,,,,,,
34,,iti,,html-keyboard-response,34,123660,0.0-1.0-40.0,0,0,46320,,,,,,9.0,,1.0,,,,,,,,,,,,,,,,,29.0,1.5,,,,,,,,,,,
35,,size_choice,,html-keyboard-response,35,125166,0.0-1.0-42.0,0,0,46320,,,,,,10.0,10.0,1.0,1000.0,M-M,,M,M,2.0,2.0,handsaw,ketchup,handsaw4,ketchup9,83.0,98.0,/static/Size_judgement/Stimuli/Size_stims/M/handsaw/handsaw3.jpg,/static/Size_judgement/Stimuli/Size_stims/M/ketchup/ketchup7.jpg,,30.5,1.5,1.0,,,,,,,,,,
36,,iti,,html-keyboard-response,36,126183,0.0-1.0-44.0,0,0,46320,,,,,,10.0,,1.0,,,,,,,,,,,,,,,,,31.5,1.0,,,,,,,,,,,
37,,size_choice,,html-keyboard-response,37,127446,0.0-1.0-46.0,0,0,46320,,1260.0,,,68.0,11.0,11.0,1.0,1000.0,M-L,0.0,M,L,2.0,3.0,hairdryer,garbagecan,hairdryer6,garbagecan3,75.0,32.0,/static/Size_judgement/Stimuli/Size_stims/M/hairdryer/hairdryer8.jpg,/static/Size_judgement/Stimuli/Size_stims/L/garbagecan/garbagecan7.jpg,0.0,32.76,1.26,0.0,1.0,hairdryer,garbagecan,M,L,2.0,3.0,hairdryer6,garbagecan3,
38,,size_choice_confirmation,,html-keyboard-response,38,127689,0.0-1.0-47.0-0.0,0,0,46320,,,,,,11.0,,1.0,,,,,,,,,,,,,,,,,33.0,0.24,,,,,,,,,,,
39,,iti,,html-keyboard-response,39,128829,0.0-1.0-48.0,0,0,46320,,,,,,11.0,,1.0,,,,,,,,,,,,,,,,,34.0,1.0,,,,,,,,,,,
40,,size_choice,,html-keyboard-response,40,130338,0.0-1.0-50.0,0,0,46320,,,,,,12.0,12.0,1.0,2000.0,M-L,0.0,M,L,2.0,3.0,coffeemaker,garbagecan,coffeemaker5,garbagecan4,64.0,33.0,/static/Size_judgement/Stimuli/Size_stims/M/coffeemaker/coffeemaker10.jpg,/static/Size_judgement/Stimuli/Size_stims/L/garbagecan/garbagecan6.jpg,,35.5,1.5,1.0,,,,,,,,,,
41,,iti,,html-keyboard-response,41,132341,0.0-1.0-52.0,0,0,46320,,,,,,12.0,,1.0,,,,,,,,,,,,,,,,,37.5,2.0,,,,,,,,,,,
42,,size_choice,,html-keyboard-response,42,133849,0.0-1.0-54.0,0,0,46320,,,,,,13.0,13.0,1.0,1000.0,S-L,0.0,S,L,1.0,3.0,screws,garbagecan,screws10,garbagecan2,129.0,31.0,/static/Size_judgement/Stimuli/Size_stims/S/screws/screws9.jpg,/static/Size_judgement/Stimuli/Size_stims/L/garbagecan/garbagecan5.jpg,,39.0,1.5,1.0,,,,,,,,,,
43,,iti,,html-keyboard-response,43,134864,0.0-1.0-56.0,0,0,46320,,,,,,13.0,,1.0,,,,,,,,,,,,,,,,,40.0,1.0,,,,,,,,,,,
44,,size_choice,,html-keyboard-response,44,136428,0.0-1.0-58.0,0,0,46320,,,,,,14.0,14.0,1.0,1000.0,M-XL,1.0,XL,M,4.0,2.0,dumptruck,hairdryer,dumptruck5,hairdryer4,174.0,73.0,/static/Size_judgement/Stimuli/Size_stims/XL/dumptruck/dumptruck3.jpg,/static/Size_judgement/Stimuli/Size_stims/M/hairdryer/hairdryer16.jpg,,41.5,1.5,1.0,,,,,,,,,,
45,,iti,,html-keyboard-response,45,137430,0.0-1.0-60.0,0,0,46320,,,,,,14.0,,1.0,,,,,,,,,,,,,,,,,42.5,1.0,,,,,,,,,,,
46,,size_choice,,html-keyboard-response,46,138268,0.0-1.0-62.0,0,0,46320,,836.0,,,68.0,15.0,15.0,1.0,1000.0,S-XL,1.0,XL,S,4.0,1.0,van,screws,van5,screws1,194.0,120.0,/static/Size_judgement/Stimuli/Size_stims/XL/van/van3.jpg,/static/Size_judgement/Stimuli/Size_stims/S/screws/screws4.jpg,1.0,43.336,0.836,0.0,1.0,van,screws,XL,S,4.0,1.0,van5,screws1,
47,,size_choice_confirmation,,html-keyboard-response,47,139027,0.0-1.0-63.0-0.0,0,0,46320,,,,,,15.0,,1.0,,,,,,,,,,,,,,,,,44.0,0.664,,,,,,,,,,,
48,,iti,,html-keyboard-response,48,140029,0.0-1.0-64.0,0,0,46320,,,,,,15.0,,1.0,,,,,,,,,,,,,,,,,45.0,1.0,,,,,,,,,,,
49,,size_choice,,html-keyboard-response,49,141290,0.0-1.0-66.0,0,0,46320,,1257.0,,,75.0,16.0,16.0,1.0,3000.0,S-M,0.0,S,M,1.0,2.0,teabag,coffeemaker,teabag9,coffeemaker8,138.0,67.0,/static/Size_judgement/Stimuli/Size_stims/S/teabag/teabag5.jpg,/static/Size_judgement/Stimuli/Size_stims/M/coffeemaker/coffeemaker5.jpg,1.0,46.257,1.257,0.0,0.0,coffeemaker,teabag,M,S,2.0,1.0,coffeemaker8,teabag9,
50,,size_choice_confirmation,,html-keyboard-response,50,141536,0.0-1.0-67.0-0.0,0,0,46320,,,,,,16.0,,1.0,,,,,,,,,,,,,,,,,46.5,0.243,,,,,,,,,,,
51,,iti,,html-keyboard-response,51,144538,0.0-1.0-68.0,0,0,46320,,,,,,16.0,,1.0,,,,,,,,,,,,,,,,,49.5,3.0,,,,,,,,,,,
52,,size_choice,,html-keyboard-response,52,145781,0.0-1.0-70.0,0,0,46320,,1240.0,,,68.0,17.0,17.0,1.0,1000.0,M-XL,1.0,XL,M,4.0,2.0,dumptruck,hairdryer,dumptruck10,hairdryer8,179.0,77.0,/static/Size_judgement/Stimuli/Size_stims/XL/dumptruck/dumptruck4.jpg,/static/Size_judgement/Stimuli/Size_stims/M/hairdryer/hairdryer1.jpg,1.0,50.74,1.24,0.0,1.0,dumptruck,hairdryer,XL,M,4.0,2.0,dumptruck10,hairdryer8,
53,,size_choice_confirmation,,html-keyboard-response,53,146045,0.0-1.0-71.0-0.0,0,0,46320,,,,,,17.0,,1.0,,,,,,,,,,,,,,,,,51.0,0.26,,,,,,,,,,,
54,,iti,,html-keyboard-response,54,147046,0.0-1.0-72.0,0,0,46320,,,,,,17.0,,1.0,,,,,,,,,,,,,,,,,52.0,1.0,,,,,,,,,,,
55,,size_choice,,html-keyboard-response,55,148555,0.0-1.0-74.0,0,0,46320,,,,,,18.0,18.0,1.0,1500.0,S-L,0.0,S,L,1.0,3.0,die,mailbox,die10,mailbox10,109.0,49.0,/static/Size_judgement/Stimuli/Size_stims/S/die/die6.jpg,/static/Size_judgement/Stimuli/Size_stims/L/mailbox/mailbox8.jpg,,53.5,1.5,1.0,,,,,,,,,,
56,,iti,,html-keyboard-response,56,150058,0.0-1.0-76.0,0,0,46320,,,,,,18.0,,1.0,,,,,,,,,,,,,,,,,55.0,1.5,,,,,,,,,,,
57,,size_choice,,html-keyboard-response,57,151561,0.0-1.0-78.0,0,0,46320,,,,,,19.0,19.0,1.0,1000.0,S-XL,1.0,XL,S,4.0,1.0,dumptruck,die,dumptruck1,die6,170.0,105.0,/static/Size_judgement/Stimuli/Size_stims/XL/dumptruck/dumptruck9.jpg,/static/Size_judgement/Stimuli/Size_stims/S/die/die1.jpg,,56.5,1.5,1.0,,,,,,,,,,
58,,iti,,html-keyboard-response,58,152565,0.0-1.0-80.0,0,0,46320,,,,,,19.0,,1.0,,,,,,,,,,,,,,,,,57.5,1.0,,,,,,,,,,,
59,,size_choice,,html-keyboard-response,59,153991,0.0-1.0-82.0,0,0,46320,,1423.0,,,75.0,20.0,20.0,1.0,1500.0,M-XL,0.0,M,XL,2.0,4.0,basketball,tractor,basketball7,tractor6,56.0,185.0,/static/Size_judgement/Stimuli/Size_stims/M/basketball/basketball6.jpg,/static/Size_judgement/Stimuli/Size_stims/XL/tractor/tractor3.jpg,1.0,58.923,1.423,0.0,0.0,tractor,basketball,XL,M,4.0,2.0,tractor6,basketball7,
60,,size_choice_confirmation,,html-keyboard-response,60,154071,0.0-1.0-83.0-0.0,0,0,46320,,,,,,20.0,,1.0,,,,,,,,,,,,,,,,,59.0,0.077,,,,,,,,,,,
61,,iti,,html-keyboard-response,61,155574,0.0-1.0-84.0,0,0,46320,,,,,,20.0,,1.0,,,,,,,,,,,,,,,,,60.5,1.5,,,,,,,,,,,
62,,size_choice,,html-keyboard-response,62,156563,0.0-1.0-86.0,0,0,46320,,982.0,,,68.0,21.0,21.0,1.0,3000.0,M-M,,M,M,2.0,2.0,handsaw,ketchup,handsaw10,ketchup8,89.0,97.0,/static/Size_judgement/Stimuli/Size_stims/M/handsaw/handsaw10.jpg,/static/Size_judgement/Stimuli/Size_stims/M/ketchup/ketchup5.jpg,,61.482,0.982,0.0,1.0,handsaw,ketchup,M,M,2.0,2.0,handsaw10,ketchup8,
63,,size_choice_confirmation,,html-keyboard-response,63,157083,0.0-1.0-87.0-0.0,0,0,46320,,,,,,21.0,,1.0,,,,,,,,,,,,,,,,,62.0,0.518,,,,,,,,,,,
64,,iti,,html-keyboard-response,64,160089,0.0-1.0-88.0,0,0,46320,,,,,,21.0,,1.0,,,,,,,,,,,,,,,,,65.0,3.0,,,,,,,,,,,
65,,size_choice,,html-keyboard-response,65,161060,0.0-1.0-90.0,0,0,46320,,969.0,,,68.0,22.0,22.0,1.0,1000.0,S-S,,S,S,1.0,1.0,thread,paperclip,thread7,paperclip1,146.0,110.0,/static/Size_judgement/Stimuli/Size_stims/S/thread/thread3.jpg,/static/Size_judgement/Stimuli/Size_stims/S/paperclip/paperclip9.jpg,,65.969,0.969,0.0,1.0,thread,paperclip,S,S,1.0,1.0,thread7,paperclip1,
66,,size_choice_confirmation,,html-keyboard-response,66,161594,0.0-1.0-91.0-0.0,0,0,46320,,,,,,22.0,,1.0,,,,,,,,,,,,,,,,,66.5,0.531,,,,,,,,,,,
67,,iti,,html-keyboard-response,67,162596,0.0-1.0-92.0,0,0,46320,,,,,,22.0,,1.0,,,,,,,,,,,,,,,,,67.5,1.0,,,,,,,,,,,
68,,size_choice,,html-keyboard-response,68,163624,0.0-1.0-94.0,0,0,46320,,1026.0,,,68.0,23.0,23.0,1.0,1500.0,M-XL,1.0,XL,M,4.0,2.0,car,handsaw,car6,handsaw2,155.0,81.0,/static/Size_judgement/Stimuli/Size_stims/XL/car/car12.jpg,/static/Size_judgement/Stimuli/Size_stims/M/handsaw/handsaw9.jpg,1.0,68.526,1.026,0.0,1.0,car,handsaw,XL,M,4.0,2.0,car6,handsaw2,
69,,size_choice_confirmation,,html-keyboard-response,69,164101,0.0-1.0-95.0-0.0,0,0,46320,,,,,,23.0,,1.0,,,,,,,,,,,,,,,,,69.0,0.474,,,,,,,,,,,
70,,iti,,html-keyboard-response,70,165828,0.0-1.0-96.0,0,0,46320,,,,,,23.0,,1.0,,,,,,,,,,,,,,,,,70.5,1.5,,,,,,,,,,,
71,,size_choice,,html-keyboard-response,71,167805,0.0-1.0-98.0,0,0,46320,,,,,,24.0,24.0,1.0,1500.0,S-L,0.0,S,L,1.0,3.0,die,deskchair,die3,deskchair6,102.0,15.0,/static/Size_judgement/Stimuli/Size_stims/S/die/die10.jpg,/static/Size_judgement/Stimuli/Size_stims/L/deskchair/deskchair5.jpg,,72.0,1.5,1.0,,,,,,,,,,
72,,iti,,html-keyboard-response,72,169306,0.0-1.0-100.0,0,0,46320,,,,,,24.0,,1.0,,,,,,,,,,,,,,,,,73.5,1.5,,,,,,,,,,,
73,,size_choice,,html-keyboard-response,73,170261,0.0-1.0-102.0,0,0,46320,,952.0,,,75.0,25.0,25.0,1.0,1500.0,S-S,,S,S,1.0,1.0,paperclip,die,paperclip9,die1,118.0,100.0,/static/Size_judgement/Stimuli/Size_stims/S/paperclip/paperclip4.jpg,/static/Size_judgement/Stimuli/Size_stims/S/die/die8.jpg,,74.452,0.952,0.0,0.0,die,paperclip,S,S,1.0,1.0,die1,paperclip9,
74,,size_choice_confirmation,,html-keyboard-response,74,170812,0.0-1.0-103.0-0.0,0,0,46320,,,,,,25.0,,1.0,,,,,,,,,,,,,,,,,75.0,0.548,,,,,,,,,,,
75,,iti,,html-keyboard-response,75,172313,0.0-1.0-104.0,0,0,46320,,,,,,25.0,,1.0,,,,,,,,,,,,,,,,,76.5,1.5,,,,,,,,,,,
76,,size_choice,,html-keyboard-response,76,173542,0.0-1.0-106.0,0,0,46320,,1227.0,,,68.0,26.0,26.0,1.0,2000.0,M-L,0.0,M,L,2.0,3.0,basketball,deskchair,basketball4,deskchair9,53.0,18.0,/static/Size_judgement/Stimuli/Size_stims/M/basketball/basketball1.jpg,/static/Size_judgement/Stimuli/Size_stims/L/deskchair/deskchair3.jpg,0.0,77.727,1.227,0.0,1.0,basketball,deskchair,M,L,2.0,3.0,basketball4,deskchair9,
77,,size_choice_confirmation,,html-keyboard-response,77,173819,0.0-1.0-107.0-0.0,0,0,46320,,,,,,26.0,,1.0,,,,,,,,,,,,,,,,,78.0,0.273,,,,,,,,,,,
78,,iti,,html-keyboard-response,78,175822,0.0-1.0-108.0,0,0,46320,,,,,,26.0,,1.0,,,,,,,,,,,,,,,,,80.0,2.0,,,,,,,,,,,
79,,size_choice,,html-keyboard-response,79,177088,0.0-1.0-110.0,0,0,46320,,1263.0,,,75.0,27.0,27.0,1.0,1500.0,S-XL,0.0,S,XL,1.0,4.0,screws,crane,screws6,crane6,125.0,165.0,/static/Size_judgement/Stimuli/Size_stims/S/screws/screws3.jpg,/static/Size_judgement/Stimuli/Size_stims/XL/crane/crane2.jpg,1.0,81.263,1.263,0.0,0.0,crane,screws,XL,S,4.0,1.0,crane6,screws6,
80,,size_choice_confirmation,,html-keyboard-response,80,177326,0.0-1.0-111.0-0.0,0,0,46320,,,,,,27.0,,1.0,,,,,,,,,,,,,,,,,81.5,0.237,,,,,,,,,,,
81,,iti,,html-keyboard-response,81,178840,0.0-1.0-112.0,0,0,46320,,,,,,27.0,,1.0,,,,,,,,,,,,,,,,,83.0,1.5,,,,,,,,,,,
82,,size_choice,,html-keyboard-response,82,180100,0.0-1.0-114.0,0,0,46320,,1252.0,,,75.0,28.0,28.0,1.0,3000.0,M-L,0.0,M,L,2.0,3.0,coffeemaker,dishwasher,coffeemaker1,dishwasher7,60.0,26.0,/static/Size_judgement/Stimuli/Size_stims/M/coffeemaker/coffeemaker14.jpg,/static/Size_judgement/Stimuli/Size_stims/L/dishwasher/dishwasher7.jpg,1.0,84.252,1.252,0.0,0.0,dishwasher,coffeemaker,L,M,3.0,2.0,dishwasher7,coffeemaker1,
83,,size_choice_confirmation,,html-keyboard-response,83,180351,0.0-1.0-115.0-0.0,0,0,46320,,,,,,28.0,,1.0,,,,,,,,,,,,,,,,,84.5,0.248,,,,,,,,,,,
84,,iti,,html-keyboard-response,84,183353,0.0-1.0-116.0,0,0,46320,,,,,,28.0,,1.0,,,,,,,,,,,,,,,,,87.5,3.0,,,,,,,,,,,
85,,size_choice,,html-keyboard-response,85,184541,0.0-1.0-118.0,0,0,46320,,1180.0,,,75.0,29.0,29.0,1.0,2000.0,L-XL,0.0,L,XL,3.0,4.0,mailbox,tractor,mailbox6,tractor2,45.0,181.0,/static/Size_judgement/Stimuli/Size_stims/L/mailbox/mailbox6.jpg,/static/Size_judgement/Stimuli/Size_stims/XL/tractor/tractor7.jpg,1.0,88.68,1.18,0.0,0.0,tractor,mailbox,XL,L,4.0,3.0,tractor2,mailbox6,
86,,size_choice_confirmation,,html-keyboard-response,86,184863,0.0-1.0-119.0-0.0,0,0,46320,,,,,,29.0,,1.0,,,,,,,,,,,,,,,,,89.0,0.32,,,,,,,,,,,
87,,iti,,html-keyboard-response,87,186866,0.0-1.0-120.0,0,0,46320,,,,,,29.0,,1.0,,,,,,,,,,,,,,,,,91.0,2.0,,,,,,,,,,,
88,,size_choice,,html-keyboard-response,88,187770,0.0-1.0-122.0,0,0,46320,,901.0,,,75.0,30.0,30.0,1.0,1500.0,S-XL,0.0,S,XL,1.0,4.0,teabag,crane,teabag5,crane7,134.0,166.0,/static/Size_judgement/Stimuli/Size_stims/S/teabag/teabag2.jpg,/static/Size_judgement/Stimuli/Size_stims/XL/crane/crane3.jpg,1.0,91.901,0.901,0.0,0.0,crane,teabag,XL,S,4.0,1.0,crane7,teabag5,
89,,size_choice_confirmation,,html-keyboard-response,89,188374,0.0-1.0-123.0-0.0,0,0,46320,,,,,,30.0,,1.0,,,,,,,,,,,,,,,,,92.5,0.599,,,,,,,,,,,
90,,iti,,html-keyboard-response,90,189876,0.0-1.0-124.0,0,0,46320,,,,,,30.0,,1.0,,,,,,,,,,,,,,,,,94.0,1.5,,,,,,,,,,,
91,,size_choice,,html-keyboard-response,91,191380,0.0-1.0-126.0,0,0,46320,,,,,,31.0,31.0,1.0,3500.0,M-L,0.0,M,L,2.0,3.0,coffeemaker,cooler,coffeemaker4,cooler10,63.0,9.0,/static/Size_judgement/Stimuli/Size_stims/M/coffeemaker/coffeemaker11.jpg,/static/Size_judgement/Stimuli/Size_stims/L/cooler/cooler6.jpg,,95.5,1.5,1.0,,,,,,,,,,
92,,iti,,html-keyboard-response,92,194882,0.0-1.0-128.0,0,0,46320,,,,,,31.0,,1.0,,,,,,,,,,,,,,,,,99.0,3.5,,,,,,,,,,,
93,,size_choice,,html-keyboard-response,93,196101,0.0-1.0-130.0,0,0,46320,,1211.0,,,75.0,32.0,32.0,1.0,3000.0,S-XL,0.0,S,XL,1.0,4.0,paperclip,car,paperclip4,car1,113.0,150.0,/static/Size_judgement/Stimuli/Size_stims/S/paperclip/paperclip3.jpg,/static/Size_judgement/Stimuli/Size_stims/XL/car/car2.jpg,1.0,100.211,1.211,0.0,0.0,car,paperclip,XL,S,4.0,1.0,car1,paperclip4,
94,,size_choice_confirmation,,html-keyboard-response,94,196394,0.0-1.0-131.0-0.0,0,0,46320,,,,,,32.0,,1.0,,,,,,,,,,,,,,,,,100.5,0.289,,,,,,,,,,,
95,,iti,,html-keyboard-response,95,199396,0.0-1.0-132.0,0,0,46320,,,,,,32.0,,1.0,,,,,,,,,,,,,,,,,103.5,3.0,,,,,,,,,,,
96,,size_choice,,html-keyboard-response,96,200691,0.0-1.0-134.0,0,0,46320,,1292.0,,,75.0,33.0,33.0,1.0,1000.0,M-M,,M,M,2.0,2.0,ketchup,hairdryer,ketchup3,hairdryer2,92.0,71.0,/static/Size_judgement/Stimuli/Size_stims/M/ketchup/ketchup10.jpg,/static/Size_judgement/Stimuli/Size_stims/M/hairdryer/hairdryer12.jpg,,104.792,1.292,0.0,0.0,hairdryer,ketchup,M,M,2.0,2.0,hairdryer2,ketchup3,
97,,size_choice_confirmation,,html-keyboard-response,97,200903,0.0-1.0-135.0-0.0,0,0,46320,,,,,,33.0,,1.0,,,,,,,,,,,,,,,,,105.0,0.208,,,,,,,,,,,
98,,iti,,html-keyboard-response,98,201905,0.0-1.0-136.0,0,0,46320,,,,,,33.0,,1.0,,,,,,,,,,,,,,,,,106.0,1.0,,,,,,,,,,,
99,,size_choice,,html-keyboard-response,99,203016,0.0-1.0-138.0,0,0,46320,,1108.0,,,68.0,34.0,34.0,1.0,2000.0,S-S,,S,S,1.0,1.0,teabag,screws,teabag4,screws4,133.0,123.0,/static/Size_judgement/Stimuli/Size_stims/S/teabag/teabag3.jpg,/static/Size_judgement/Stimuli/Size_stims/S/screws/screws6.jpg,,107.108,1.108,0.0,1.0,teabag,screws,S,S,1.0,1.0,teabag4,screws4,
100,,size_choice_confirmation,,html-keyboard-response,100,203416,0.0-1.0-139.0-0.0,0,0,46320,,,,,,34.0,,1.0,,,,,,,,,,,,,,,,,107.5,0.392,,,,,,,,,,,
101,,iti,,html-keyboard-response,101,205419,0.0-1.0-140.0,0,0,46320,,,,,,34.0,,1.0,,,,,,,,,,,,,,,,,109.5,2.0,,,,,,,,,,,
102,,size_choice,,html-keyboard-response,102,206597,0.0-1.0-142.0,0,0,46320,,1175.0,,,75.0,35.0,35.0,1.0,1000.0,M-L,0.0,M,L,2.0,3.0,basketball,dishwasher,basketball6,dishwasher1,55.0,20.0,/static/Size_judgement/Stimuli/Size_stims/M/basketball/basketball2.jpg,/static/Size_judgement/Stimuli/Size_stims/L/dishwasher/dishwasher10.jpg,1.0,110.675,1.175,0.0,0.0,dishwasher,basketball,L,M,3.0,2.0,dishwasher1,basketball6,
103,,size_choice_confirmation,,html-keyboard-response,103,206925,0.0-1.0-143.0-0.0,0,0,46320,,,,,,35.0,,1.0,,,,,,,,,,,,,,,,,111.0,0.325,,,,,,,,,,,
104,,iti,,html-keyboard-response,104,207927,0.0-1.0-144.0,0,0,46320,,,,,,35.0,,1.0,,,,,,,,,,,,,,,,,112.0,1.0,,,,,,,,,,,
105,,size_choice,,html-keyboard-response,105,208966,0.0-1.0-146.0,0,0,46320,,1037.0,,,68.0,36.0,36.0,1.0,1500.0,M-XL,1.0,XL,M,4.0,2.0,tractor,ketchup,tractor10,ketchup6,189.0,95.0,/static/Size_judgement/Stimuli/Size_stims/XL/tractor/tractor8.jpg,/static/Size_judgement/Stimuli/Size_stims/M/ketchup/ketchup1.jpg,1.0,113.037,1.037,0.0,1.0,tractor,ketchup,XL,M,4.0,2.0,tractor10,ketchup6,
106,,size_choice_confirmation,,html-keyboard-response,106,209432,0.0-1.0-147.0-0.0,0,0,46320,,,,,,36.0,,1.0,,,,,,,,,,,,,,,,,113.5,0.463,,,,,,,,,,,
107,,iti,,html-keyboard-response,107,210934,0.0-1.0-148.0,0,0,46320,,,,,,36.0,,1.0,,,,,,,,,,,,,,,,,115.0,1.5,,,,,,,,,,,
108,,size_choice,,html-keyboard-response,108,212402,0.0-1.0-150.0,0,0,46320,,1465.0,,,75.0,37.0,37.0,1.0,3500.0,XL-XL,,XL,XL,4.0,4.0,crane,car,crane10,car8,169.0,157.0,/static/Size_judgement/Stimuli/Size_stims/XL/crane/crane9.jpg,/static/Size_judgement/Stimuli/Size_stims/XL/car/car14.jpg,,116.465,1.465,0.0,0.0,car,crane,XL,XL,4.0,4.0,car8,crane10,
109,,size_choice_confirmation,,html-keyboard-response,109,212440,0.0-1.0-151.0-0.0,0,0,46320,,,,,,37.0,,1.0,,,,,,,,,,,,,,,,,116.5,0.035,,,,,,,,,,,
110,,iti,,html-keyboard-response,110,215942,0.0-1.0-152.0,0,0,46320,,,,,,37.0,,1.0,,,,,,,,,,,,,,,,,120.0,3.5,,,,,,,,,,,
111,,size_choice,,html-keyboard-response,111,217122,0.0-1.0-154.0,0,0,46320,,1175.0,,,68.0,38.0,38.0,1.0,1500.0,L-L,,L,L,3.0,3.0,dishwasher,garbagecan,dishwasher5,garbagecan5,24.0,34.0,/static/Size_judgement/Stimuli/Size_stims/L/dishwasher/dishwasher4.jpg,/static/Size_judgement/Stimuli/Size_stims/L/garbagecan/garbagecan3.jpg,,121.175,1.175,0.0,1.0,dishwasher,garbagecan,L,L,3.0,3.0,dishwasher5,garbagecan5,
112,,size_choice_confirmation,,html-keyboard-response,112,217453,0.0-1.0-155.0-0.0,0,0,46320,,,,,,38.0,,1.0,,,,,,,,,,,,,,,,,121.5,0.325,,,,,,,,,,,
113,,iti,,html-keyboard-response,113,219829,0.0-1.0-156.0,0,0,46320,,,,,,38.0,,1.0,,,,,,,,,,,,,,,,,123.0,1.5,,,,,,,,,,,
114,,size_choice,,html-keyboard-response,114,221826,0.0-1.0-158.0,0,0,46320,,,,,,39.0,39.0,1.0,2000.0,L-L,,L,L,3.0,3.0,dishwasher,cooler,dishwasher10,cooler6,29.0,5.0,/static/Size_judgement/Stimuli/Size_stims/L/dishwasher/dishwasher1.jpg,/static/Size_judgement/Stimuli/Size_stims/L/cooler/cooler1.jpg,,124.5,1.5,1.0,,,,,,,,,,
115,,iti,,html-keyboard-response,115,224828,0.0-1.0-160.0,0,0,46320,,,,,,39.0,,1.0,,,,,,,,,,,,,,,,,126.5,2.0,,,,,,,,,,,
116,,size_choice,,html-keyboard-response,116,226826,0.0-1.0-162.0,0,0,46320,,,,,,40.0,40.0,1.0,1500.0,S-M,0.0,S,M,1.0,2.0,screws,handsaw,screws3,handsaw3,122.0,82.0,/static/Size_judgement/Stimuli/Size_stims/S/screws/screws7.jpg,/static/Size_judgement/Stimuli/Size_stims/M/handsaw/handsaw2.jpg,,128.0,1.5,1.0,,,,,,,,,,
117,,iti,,html-keyboard-response,117,228600,0.0-1.0-164.0,0,0,46320,,,,,,40.0,,1.0,,,,,,,,,,,,,,,,,129.5,1.5,,,,,,,,,,,
118,,size_choice,,html-keyboard-response,118,230104,0.0-1.0-166.0,0,0,46320,,,,,,41.0,41.0,1.0,3500.0,S-L,1.0,L,S,3.0,1.0,deskchair,thread,deskchair5,thread6,14.0,145.0,/static/Size_judgement/Stimuli/Size_stims/L/deskchair/deskchair7.jpg,/static/Size_judgement/Stimuli/Size_stims/S/thread/thread2.jpg,,131.0,1.5,1.0,,,,,,,,,,
119,,iti,,html-keyboard-response,119,233607,0.0-1.0-168.0,0,0,46320,,,,,,41.0,,1.0,,,,,,,,,,,,,,,,,134.5,3.5,,,,,,,,,,,
120,,size_choice,,html-keyboard-response,120,235112,0.0-1.0-170.0,0,0,46320,,,,,,42.0,42.0,1.0,1000.0,S-M,0.0,S,M,1.0,2.0,paperclip,basketball,paperclip7,basketball8,116.0,57.0,/static/Size_judgement/Stimuli/Size_stims/S/paperclip/paperclip7.jpg,/static/Size_judgement/Stimuli/Size_stims/M/basketball/basketball7.jpg,,136.0,1.5,1.0,,,,,,,,,,
121,,iti,,html-keyboard-response,121,236116,0.0-1.0-172.0,0,0,46320,,,,,,42.0,,1.0,,,,,,,,,,,,,,,,,137.0,1.0,,,,,,,,,,,
122,,size_choice,,html-keyboard-response,122,237337,0.0-1.0-174.0,0,0,46320,,1219.0,,,68.0,43.0,43.0,1.0,1000.0,S-L,1.0,L,S,3.0,1.0,deskchair,paperclip,deskchair1,paperclip5,10.0,114.0,/static/Size_judgement/Stimuli/Size_stims/L/deskchair/deskchair9.jpg,/static/Size_judgement/Stimuli/Size_stims/S/paperclip/paperclip2.jpg,1.0,138.219,1.219,0.0,1.0,deskchair,paperclip,L,S,3.0,1.0,deskchair1,paperclip5,
123,,size_choice_confirmation,,html-keyboard-response,123,237625,0.0-1.0-175.0-0.0,0,0,46320,,,,,,43.0,,1.0,,,,,,,,,,,,,,,,,138.5,0.281,,,,,,,,,,,
124,,iti,,html-keyboard-response,124,238628,0.0-1.0-176.0,0,0,46320,,,,,,43.0,,1.0,,,,,,,,,,,,,,,,,139.5,1.0,,,,,,,,,,,
125,,size_choice,,html-keyboard-response,125,239553,0.0-1.0-178.0,0,0,46320,,923.0,,,68.0,44.0,44.0,1.0,1000.0,L-XL,0.0,L,XL,3.0,4.0,dishwasher,van,dishwasher2,van9,21.0,198.0,/static/Size_judgement/Stimuli/Size_stims/L/dishwasher/dishwasher9.jpg,/static/Size_judgement/Stimuli/Size_stims/XL/van/van9.jpg,0.0,140.423,0.923,0.0,1.0,dishwasher,van,L,XL,3.0,4.0,dishwasher2,van9,
126,,size_choice_confirmation,,html-keyboard-response,126,240133,0.0-1.0-179.0-0.0,0,0,46320,,,,,,44.0,,1.0,,,,,,,,,,,,,,,,,141.0,0.577,,,,,,,,,,,
127,,iti,,html-keyboard-response,127,241136,0.0-1.0-180.0,0,0,46320,,,,,,44.0,,1.0,,,,,,,,,,,,,,,,,142.0,1.0,,,,,,,,,,,
128,,block_over,,html-keyboard-response,128,317286,0.0-1.0-181.0-0.0,0,0,46320,,76145.0,,,68.0,44.0,,,,,,,,,,,,,,,,,,,,,,,,,,,,,,,
129,,size_choice,,html-keyboard-response,129,318790,0.0-1.0-182.0,0,0,46320,,,,,,45.0,45.0,2.0,2000.0,S-L,0.0,S,L,1.0,3.0,die,mailbox,die5,mailbox2,104.0,41.0,/static/Size_judgement/Stimuli/Size_stims/S/die/die3.jpg,/static/Size_judgement/Stimuli/Size_stims/L/mailbox/mailbox2.jpg,,143.5,1.5,1.0,,,,,,,,,,
130,,iti,,html-keyboard-response,130,320805,0.0-1.0-184.0,0,0,46320,,,,,,45.0,,2.0,,,,,,,,,,,,,,,,,145.5,2.0,,,,,,,,,,,
131,,size_choice,,html-keyboard-response,131,321765,0.0-1.0-186.0,0,0,46320,,957.0,,,68.0,46.0,46.0,2.0,1000.0,S-L,1.0,L,S,3.0,1.0,deskchair,thread,deskchair3,thread10,12.0,149.0,/static/Size_judgement/Stimuli/Size_stims/L/deskchair/deskchair10.jpg,/static/Size_judgement/Stimuli/Size_stims/S/thread/thread9.jpg,1.0,146.457,0.957,0.0,1.0,deskchair,thread,L,S,3.0,1.0,deskchair3,thread10,
132,,size_choice_confirmation,,html-keyboard-response,132,322312,0.0-1.0-187.0-0.0,0,0,46320,,,,,,46.0,,2.0,,,,,,,,,,,,,,,,,147.0,0.543,,,,,,,,,,,
133,,iti,,html-keyboard-response,133,323315,0.0-1.0-188.0,0,0,46320,,,,,,46.0,,2.0,,,,,,,,,,,,,,,,,148.0,1.0,,,,,,,,,,,
134,,size_choice,,html-keyboard-response,134,324413,0.0-1.0-190.0,0,0,46320,,1096.0,,,68.0,47.0,47.0,2.0,3500.0,M-L,1.0,L,M,3.0,2.0,garbagecan,handsaw,garbagecan1,handsaw9,30.0,88.0,/static/Size_judgement/Stimuli/Size_stims/L/garbagecan/garbagecan4.jpg,/static/Size_judgement/Stimuli/Size_stims/M/handsaw/handsaw6.jpg,1.0,149.096,1.096,0.0,1.0,garbagecan,handsaw,L,M,3.0,2.0,garbagecan1,handsaw9,
135,,size_choice_confirmation,,html-keyboard-response,135,324820,0.0-1.0-191.0-0.0,0,0,46320,,,,,,47.0,,2.0,,,,,,,,,,,,,,,,,149.5,0.404,,,,,,,,,,,
136,,iti,,html-keyboard-response,136,328322,0.0-1.0-192.0,0,0,46320,,,,,,47.0,,2.0,,,,,,,,,,,,,,,,,153.0,3.5,,,,,,,,,,,
137,,size_choice,,html-keyboard-response,137,329254,0.0-1.0-194.0,0,0,46320,,929.0,,,75.0,48.0,48.0,2.0,1000.0,M-M,,M,M,2.0,2.0,coffeemaker,hairdryer,coffeemaker7,hairdryer5,66.0,74.0,/static/Size_judgement/Stimuli/Size_stims/M/coffeemaker/coffeemaker9.jpg,/static/Size_judgement/Stimuli/Size_stims/M/hairdryer/hairdryer15.jpg,,153.929,0.929,0.0,0.0,hairdryer,coffeemaker,M,M,2.0,2.0,hairdryer5,coffeemaker7,
138,,size_choice_confirmation,,html-keyboard-response,138,329835,0.0-1.0-195.0-0.0,0,0,46320,,,,,,48.0,,2.0,,,,,,,,,,,,,,,,,154.5,0.571,,,,,,,,,,,
139,,iti,,html-keyboard-response,139,330836,0.0-1.0-196.0,0,0,46320,,,,,,48.0,,2.0,,,,,,,,,,,,,,,,,155.5,1.0,,,,,,,,,,,
140,,size_choice,,html-keyboard-response,140,331813,0.0-1.0-198.0,0,0,46320,,975.0,,,75.0,49.0,49.0,2.0,2000.0,S-XL,1.0,XL,S,4.0,1.0,crane,thread,crane3,thread4,162.0,143.0,/static/Size_judgement/Stimuli/Size_stims/XL/crane/crane4.jpg,/static/Size_judgement/Stimuli/Size_stims/S/thread/thread5.jpg,0.0,156.475,0.975,0.0,0.0,thread,crane,S,XL,1.0,4.0,thread4,crane3,
141,,size_choice_confirmation,,html-keyboard-response,141,332365,0.0-1.0-199.0-0.0,0,0,46320,,,,,,49.0,,2.0,,,,,,,,,,,,,,,,,157.0,0.525,,,,,,,,,,,
142,,iti,,html-keyboard-response,142,334367,0.0-1.0-200.0,0,0,46320,,,,,,49.0,,2.0,,,,,,,,,,,,,,,,,159.0,2.0,,,,,,,,,,,
143,,size_choice,,html-keyboard-response,143,335869,0.0-1.0-202.0,0,0,46320,,,,,,50.0,50.0,2.0,1000.0,S-XL,1.0,XL,S,4.0,1.0,tractor,die,tractor7,die9,186.0,108.0,/static/Size_judgement/Stimuli/Size_stims/XL/tractor/tractor2.jpg,/static/Size_judgement/Stimuli/Size_stims/S/die/die7.jpg,,160.5,1.5,1.0,,,,,,,,,,
144,,iti,,html-keyboard-response,144,336873,0.0-1.0-204.0,0,0,46320,,,,,,50.0,,2.0,,,,,,,,,,,,,,,,,161.5,1.0,,,,,,,,,,,
145,,size_choice,,html-keyboard-response,145,338379,0.0-1.0-206.0,0,0,46320,,,,,,51.0,51.0,2.0,2000.0,S-L,1.0,L,S,3.0,1.0,cooler,thread,cooler1,thread2,0.0,141.0,/static/Size_judgement/Stimuli/Size_stims/L/cooler/cooler8.jpg,/static/Size_judgement/Stimuli/Size_stims/S/thread/thread6.jpg,,163.0,1.5,1.0,,,,,,,,,,
146,,iti,,html-keyboard-response,146,340380,0.0-1.0-208.0,0,0,46320,,,,,,51.0,,2.0,,,,,,,,,,,,,,,,,165.0,2.0,,,,,,,,,,,
147,,size_choice,,html-keyboard-response,147,341485,0.0-1.0-210.0,0,0,46320,,1100.0,,,75.0,52.0,52.0,2.0,1000.0,M-L,0.0,M,L,2.0,3.0,handsaw,mailbox,handsaw8,mailbox4,87.0,43.0,/static/Size_judgement/Stimuli/Size_stims/M/handsaw/handsaw7.jpg,/static/Size_judgement/Stimuli/Size_stims/L/mailbox/mailbox5.jpg,1.0,166.1,1.1,0.0,0.0,mailbox,handsaw,L,M,3.0,2.0,mailbox4,handsaw8,
148,,size_choice_confirmation,,html-keyboard-response,148,341892,0.0-1.0-211.0-0.0,0,0,46320,,,,,,52.0,,2.0,,,,,,,,,,,,,,,,,166.5,0.4,,,,,,,,,,,
149,,iti,,html-keyboard-response,149,342896,0.0-1.0-212.0,0,0,46320,,,,,,52.0,,2.0,,,,,,,,,,,,,,,,,167.5,1.0,,,,,,,,,,,
150,,size_choice,,html-keyboard-response,150,344187,0.0-1.0-214.0,0,0,46320,,1287.0,,,68.0,53.0,53.0,2.0,1000.0,S-XL,1.0,XL,S,4.0,1.0,crane,thread,crane9,thread5,168.0,144.0,/static/Size_judgement/Stimuli/Size_stims/XL/crane/crane8.jpg,/static/Size_judgement/Stimuli/Size_stims/S/thread/thread1.jpg,1.0,168.787,1.287,0.0,1.0,crane,thread,XL,S,4.0,1.0,crane9,thread5,
151,,size_choice_confirmation,,html-keyboard-response,151,344402,0.0-1.0-215.0-0.0,0,0,46320,,,,,,53.0,,2.0,,,,,,,,,,,,,,,,,169.0,0.213,,,,,,,,,,,
152,,iti,,html-keyboard-response,152,345404,0.0-1.0-216.0,0,0,46320,,,,,,53.0,,2.0,,,,,,,,,,,,,,,,,170.0,1.0,,,,,,,,,,,
153,,size_choice,,html-keyboard-response,153,346636,0.0-1.0-218.0,0,0,46320,,1226.0,,,68.0,54.0,54.0,2.0,2000.0,XL-XL,,XL,XL,4.0,4.0,tractor,van,tractor1,van10,180.0,199.0,/static/Size_judgement/Stimuli/Size_stims/XL/tractor/tractor6.jpg,/static/Size_judgement/Stimuli/Size_stims/XL/van/van8.jpg,,171.226,1.226,0.0,1.0,tractor,van,XL,XL,4.0,4.0,tractor1,van10,
154,,size_choice_confirmation,,html-keyboard-response,154,346913,0.0-1.0-219.0-0.0,0,0,46320,,,,,,54.0,,2.0,,,,,,,,,,,,,,,,,171.5,0.274,,,,,,,,,,,
155,,iti,,html-keyboard-response,155,348917,0.0-1.0-220.0,0,0,46320,,,,,,54.0,,2.0,,,,,,,,,,,,,,,,,173.5,2.0,,,,,,,,,,,
156,,size_choice,,html-keyboard-response,156,349853,0.0-1.0-222.0,0,0,46320,,928.0,,,75.0,55.0,55.0,2.0,1500.0,S-S,,S,S,1.0,1.0,paperclip,teabag,paperclip8,teabag2,117.0,131.0,/static/Size_judgement/Stimuli/Size_stims/S/paperclip/paperclip5.jpg,/static/Size_judgement/Stimuli/Size_stims/S/teabag/teabag8.jpg,,174.428,0.928,0.0,0.0,teabag,paperclip,S,S,1.0,1.0,teabag2,paperclip8,
157,,size_choice_confirmation,,html-keyboard-response,157,350427,0.0-1.0-223.0-0.0,0,0,46320,,,,,,55.0,,2.0,,,,,,,,,,,,,,,,,175.0,0.572,,,,,,,,,,,
158,,iti,,html-keyboard-response,158,351930,0.0-1.0-224.0,0,0,46320,,,,,,55.0,,2.0,,,,,,,,,,,,,,,,,176.5,1.5,,,,,,,,,,,
159,,size_choice,,html-keyboard-response,159,353156,0.0-1.0-226.0,0,0,46320,,1223.0,,,68.0,56.0,56.0,2.0,1500.0,S-XL,1.0,XL,S,4.0,1.0,crane,screws,crane8,screws2,167.0,121.0,/static/Size_judgement/Stimuli/Size_stims/XL/crane/crane10.jpg,/static/Size_judgement/Stimuli/Size_stims/S/screws/screws5.jpg,1.0,177.723,1.223,0.0,1.0,crane,screws,XL,S,4.0,1.0,crane8,screws2,
160,,size_choice_confirmation,,html-keyboard-response,160,353445,0.0-1.0-227.0-0.0,0,0,46320,,,,,,56.0,,2.0,,,,,,,,,,,,,,,,,178.0,0.277,,,,,,,,,,,
161,,iti,,html-keyboard-response,161,354951,0.0-1.0-228.0,0,0,46320,,,,,,56.0,,2.0,,,,,,,,,,,,,,,,,179.5,1.5,,,,,,,,,,,
162,,size_choice,,html-keyboard-response,162,356284,0.0-1.0-230.0,0,0,46320,,1330.0,,,75.0,57.0,57.0,2.0,1000.0,L-L,,L,L,3.0,3.0,dishwasher,cooler,dishwasher4,cooler3,23.0,2.0,/static/Size_judgement/Stimuli/Size_stims/L/dishwasher/dishwasher5.jpg,/static/Size_judgement/Stimuli/Size_stims/L/cooler/cooler2.jpg,,180.83,1.33,0.0,0.0,cooler,dishwasher,L,L,3.0,3.0,cooler3,dishwasher4,
163,,size_choice_confirmation,,html-keyboard-response,163,356455,0.0-1.0-231.0-0.0,0,0,46320,,,,,,57.0,,2.0,,,,,,,,,,,,,,,,,181.0,0.17,,,,,,,,,,,
164,,iti,,html-keyboard-response,164,357459,0.0-1.0-232.0,0,0,46320,,,,,,57.0,,2.0,,,,,,,,,,,,,,,,,182.0,1.0,,,,,,,,,,,
165,,size_choice,,html-keyboard-response,165,358926,0.0-1.0-234.0,0,0,46320,,1463.0,,,75.0,58.0,58.0,2.0,3000.0,M-XL,0.0,M,XL,2.0,4.0,coffeemaker,van,coffeemaker9,van4,68.0,193.0,/static/Size_judgement/Stimuli/Size_stims/M/coffeemaker/coffeemaker7.jpg,/static/Size_judgement/Stimuli/Size_stims/XL/van/van7.jpg,1.0,183.463,1.463,0.0,0.0,van,coffeemaker,XL,M,4.0,2.0,van4,coffeemaker9,
166,,size_choice_confirmation,,html-keyboard-response,166,358965,0.0-1.0-235.0-0.0,0,0,46320,,,,,,58.0,,2.0,,,,,,,,,,,,,,,,,183.5,0.037,,,,,,,,,,,
167,,iti,,html-keyboard-response,167,361968,0.0-1.0-236.0,0,0,46320,,,,,,58.0,,2.0,,,,,,,,,,,,,,,,,186.5,3.0,,,,,,,,,,,
168,,size_choice,,html-keyboard-response,168,363240,0.0-1.0-238.0,0,0,46320,,1269.0,,,68.0,59.0,59.0,2.0,2000.0,M-L,0.0,M,L,2.0,3.0,coffeemaker,cooler,coffeemaker3,cooler7,62.0,6.0,/static/Size_judgement/Stimuli/Size_stims/M/coffeemaker/coffeemaker13.jpg,/static/Size_judgement/Stimuli/Size_stims/L/cooler/cooler4.jpg,0.0,187.769,1.269,0.0,1.0,coffeemaker,cooler,M,L,2.0,3.0,coffeemaker3,cooler7,
169,,size_choice_confirmation,,html-keyboard-response,169,363473,0.0-1.0-239.0-0.0,0,0,46320,,,,,,59.0,,2.0,,,,,,,,,,,,,,,,,188.0,0.231,,,,,,,,,,,
170,,iti,,html-keyboard-response,170,365476,0.0-1.0-240.0,0,0,46320,,,,,,59.0,,2.0,,,,,,,,,,,,,,,,,190.0,2.0,,,,,,,,,,,
171,,size_choice,,html-keyboard-response,171,366537,0.0-1.0-242.0,0,0,46320,,1055.0,,,68.0,60.0,60.0,2.0,2000.0,S-L,1.0,L,S,3.0,1.0,cooler,screws,cooler4,screws5,3.0,124.0,/static/Size_judgement/Stimuli/Size_stims/L/cooler/cooler3.jpg,/static/Size_judgement/Stimuli/Size_stims/S/screws/screws2.jpg,1.0,191.055,1.055,0.0,1.0,cooler,screws,L,S,3.0,1.0,cooler4,screws5,
172,,size_choice_confirmation,,html-keyboard-response,172,366986,0.0-1.0-243.0-0.0,0,0,46320,,,,,,60.0,,2.0,,,,,,,,,,,,,,,,,191.5,0.445,,,,,,,,,,,
173,,iti,,html-keyboard-response,173,368988,0.0-1.0-244.0,0,0,46320,,,,,,60.0,,2.0,,,,,,,,,,,,,,,,,193.5,2.0,,,,,,,,,,,
174,,size_choice,,html-keyboard-response,174,370163,0.0-1.0-246.0,0,0,46320,,1171.0,,,75.0,61.0,61.0,2.0,1500.0,M-XL,0.0,M,XL,2.0,4.0,handsaw,car,handsaw7,car3,86.0,152.0,/static/Size_judgement/Stimuli/Size_stims/M/handsaw/handsaw5.jpg,/static/Size_judgement/Stimuli/Size_stims/XL/car/car4.jpg,1.0,194.671,1.171,0.0,0.0,car,handsaw,XL,M,4.0,2.0,car3,handsaw7,
175,,size_choice_confirmation,,html-keyboard-response,175,370494,0.0-1.0-247.0-0.0,0,0,46320,,,,,,61.0,,2.0,,,,,,,,,,,,,,,,,195.0,0.329,,,,,,,,,,,
176,,iti,,html-keyboard-response,176,371996,0.0-1.0-248.0,0,0,46320,,,,,,61.0,,2.0,,,,,,,,,,,,,,,,,196.5,1.5,,,,,,,,,,,
177,,size_choice,,html-keyboard-response,177,373073,0.0-1.0-250.0,0,0,46320,,1071.0,,,75.0,62.0,62.0,2.0,1000.0,M-XL,0.0,M,XL,2.0,4.0,handsaw,tractor,handsaw1,tractor4,80.0,183.0,/static/Size_judgement/Stimuli/Size_stims/M/handsaw/handsaw8.jpg,/static/Size_judgement/Stimuli/Size_stims/XL/tractor/tractor4.jpg,1.0,197.571,1.071,0.0,0.0,tractor,handsaw,XL,M,4.0,2.0,tractor4,handsaw1,
178,,size_choice_confirmation,,html-keyboard-response,178,373503,0.0-1.0-251.0-0.0,0,0,46320,,,,,,62.0,,2.0,,,,,,,,,,,,,,,,,198.0,0.429,,,,,,,,,,,
179,,iti,,html-keyboard-response,179,374506,0.0-1.0-252.0,0,0,46320,,,,,,62.0,,2.0,,,,,,,,,,,,,,,,,199.0,1.0,,,,,,,,,,,
180,,size_choice,,html-keyboard-response,180,375645,0.0-1.0-254.0,0,0,46320,,1135.0,,,68.0,63.0,63.0,2.0,1500.0,S-L,1.0,L,S,3.0,1.0,dishwasher,teabag,dishwasher9,teabag7,28.0,136.0,/static/Size_judgement/Stimuli/Size_stims/L/dishwasher/dishwasher2.jpg,/static/Size_judgement/Stimuli/Size_stims/S/teabag/teabag10.jpg,1.0,200.135,1.135,0.0,1.0,dishwasher,teabag,L,S,3.0,1.0,dishwasher9,teabag7,
181,,size_choice_confirmation,,html-keyboard-response,181,376012,0.0-1.0-255.0-0.0,0,0,46320,,,,,,63.0,,2.0,,,,,,,,,,,,,,,,,200.5,0.365,,,,,,,,,,,
182,,iti,,html-keyboard-response,182,377517,0.0-1.0-256.0,0,0,46320,,,,,,63.0,,2.0,,,,,,,,,,,,,,,,,202.0,1.5,,,,,,,,,,,
183,,size_choice,,html-keyboard-response,183,378786,0.0-1.0-258.0,0,0,46320,,1262.0,,,68.0,64.0,64.0,2.0,3500.0,M-XL,1.0,XL,M,4.0,2.0,crane,coffeemaker,crane5,coffeemaker2,164.0,61.0,/static/Size_judgement/Stimuli/Size_stims/XL/crane/crane1.jpg,/static/Size_judgement/Stimuli/Size_stims/M/coffeemaker/coffeemaker12.jpg,1.0,203.262,1.262,0.0,1.0,crane,coffeemaker,XL,M,4.0,2.0,crane5,coffeemaker2,
184,,size_choice_confirmation,,html-keyboard-response,184,379027,0.0-1.0-259.0-0.0,0,0,46320,,,,,,64.0,,2.0,,,,,,,,,,,,,,,,,203.5,0.238,,,,,,,,,,,
185,,iti,,html-keyboard-response,185,382530,0.0-1.0-260.0,0,0,46320,,,,,,64.0,,2.0,,,,,,,,,,,,,,,,,207.0,3.5,,,,,,,,,,,
186,,size_choice,,html-keyboard-response,186,383595,0.0-1.0-262.0,0,0,46320,,1060.0,,,68.0,65.0,65.0,2.0,1500.0,XL-XL,,XL,XL,4.0,4.0,tractor,van,tractor9,van6,188.0,195.0,/static/Size_judgement/Stimuli/Size_stims/XL/tractor/tractor9.jpg,/static/Size_judgement/Stimuli/Size_stims/XL/van/van2.jpg,,208.06,1.06,0.0,1.0,tractor,van,XL,XL,4.0,4.0,tractor9,van6,
187,,size_choice_confirmation,,html-keyboard-response,187,384037,0.0-1.0-263.0-0.0,0,0,46320,,,,,,65.0,,2.0,,,,,,,,,,,,,,,,,208.5,0.44,,,,,,,,,,,
188,,iti,,html-keyboard-response,188,385539,0.0-1.0-264.0,0,0,46320,,,,,,65.0,,2.0,,,,,,,,,,,,,,,,,210.0,1.5,,,,,,,,,,,
189,,size_choice,,html-keyboard-response,189,386965,0.0-1.0-266.0,0,0,46320,,1420.0,,,75.0,66.0,66.0,2.0,2000.0,S-M,0.0,S,M,1.0,2.0,teabag,hairdryer,teabag6,hairdryer1,135.0,70.0,/static/Size_judgement/Stimuli/Size_stims/S/teabag/teabag6.jpg,/static/Size_judgement/Stimuli/Size_stims/M/hairdryer/hairdryer11.jpg,1.0,211.42,1.42,0.0,0.0,hairdryer,teabag,M,S,2.0,1.0,hairdryer1,teabag6,
190,,size_choice_confirmation,,html-keyboard-response,190,387048,0.0-1.0-267.0-0.0,0,0,46320,,,,,,66.0,,2.0,,,,,,,,,,,,,,,,,211.5,0.08,,,,,,,,,,,
191,,iti,,html-keyboard-response,191,389057,0.0-1.0-268.0,0,0,46320,,,,,,66.0,,2.0,,,,,,,,,,,,,,,,,213.5,2.0,,,,,,,,,,,
192,,size_choice,,html-keyboard-response,192,390135,0.0-1.0-270.0,0,0,46320,,1073.0,,,68.0,67.0,67.0,2.0,1500.0,S-L,1.0,L,S,3.0,1.0,garbagecan,die,garbagecan8,die7,37.0,106.0,/static/Size_judgement/Stimuli/Size_stims/L/garbagecan/garbagecan13.jpg,/static/Size_judgement/Stimuli/Size_stims/S/die/die4.jpg,1.0,214.573,1.073,0.0,1.0,garbagecan,die,L,S,3.0,1.0,garbagecan8,die7,
193,,size_choice_confirmation,,html-keyboard-response,193,390568,0.0-1.0-271.0-0.0,0,0,46320,,,,,,67.0,,2.0,,,,,,,,,,,,,,,,,215.0,0.427,,,,,,,,,,,
194,,iti,,html-keyboard-response,194,392070,0.0-1.0-272.0,0,0,46320,,,,,,67.0,,2.0,,,,,,,,,,,,,,,,,216.5,1.5,,,,,,,,,,,
195,,size_choice,,html-keyboard-response,195,393366,0.0-1.0-274.0,0,0,46320,,1294.0,,,75.0,68.0,68.0,2.0,1500.0,S-M,0.0,S,M,1.0,2.0,thread,basketball,thread1,basketball2,140.0,51.0,/static/Size_judgement/Stimuli/Size_stims/S/thread/thread7.jpg,/static/Size_judgement/Stimuli/Size_stims/M/basketball/basketball8.jpg,1.0,217.794,1.294,0.0,0.0,basketball,thread,M,S,2.0,1.0,basketball2,thread1,
196,,size_choice_confirmation,,html-keyboard-response,196,393576,0.0-1.0-275.0-0.0,0,0,46320,,,,,,68.0,,2.0,,,,,,,,,,,,,,,,,218.0,0.206,,,,,,,,,,,
197,,iti,,html-keyboard-response,197,395082,0.0-1.0-276.0,0,0,46320,,,,,,68.0,,2.0,,,,,,,,,,,,,,,,,219.5,1.5,,,,,,,,,,,
198,,size_choice,,html-keyboard-response,198,396166,0.0-1.0-278.0,0,0,46320,,1081.0,,,75.0,69.0,69.0,2.0,1000.0,S-L,0.0,S,L,1.0,3.0,die,dishwasher,die8,dishwasher3,107.0,22.0,/static/Size_judgement/Stimuli/Size_stims/S/die/die5.jpg,/static/Size_judgement/Stimuli/Size_stims/L/dishwasher/dishwasher8.jpg,1.0,220.581,1.081,0.0,0.0,dishwasher,die,L,S,3.0,1.0,dishwasher3,die8,
199,,size_choice_confirmation,,html-keyboard-response,199,396588,0.0-1.0-279.0-0.0,0,0,46320,,,,,,69.0,,2.0,,,,,,,,,,,,,,,,,221.0,0.419,,,,,,,,,,,
200,,iti,,html-keyboard-response,200,397592,0.0-1.0-280.0,0,0,46320,,,,,,69.0,,2.0,,,,,,,,,,,,,,,,,222.0,1.0,,,,,,,,,,,
201,,size_choice,,html-keyboard-response,201,398493,0.0-1.0-282.0,0,0,46320,,899.0,,,68.0,70.0,70.0,2.0,1500.0,S-XL,1.0,XL,S,4.0,1.0,van,thread,van1,thread9,190.0,148.0,/static/Size_judgement/Stimuli/Size_stims/XL/van/van5.jpg,/static/Size_judgement/Stimuli/Size_stims/S/thread/thread8.jpg,1.0,222.899,0.899,0.0,1.0,van,thread,XL,S,4.0,1.0,van1,thread9,
202,,size_choice_confirmation,,html-keyboard-response,202,399098,0.0-1.0-283.0-0.0,0,0,46320,,,,,,70.0,,2.0,,,,,,,,,,,,,,,,,223.5,0.601,,,,,,,,,,,
203,,iti,,html-keyboard-response,203,400601,0.0-1.0-284.0,0,0,46320,,,,,,70.0,,2.0,,,,,,,,,,,,,,,,,225.0,1.5,,,,,,,,,,,
204,,size_choice,,html-keyboard-response,204,402044,0.0-1.0-286.0,0,0,46320,,1435.0,,,75.0,71.0,71.0,2.0,3500.0,M-L,0.0,M,L,2.0,3.0,basketball,deskchair,basketball9,deskchair2,58.0,11.0,/static/Size_judgement/Stimuli/Size_stims/M/basketball/basketball5.jpg,/static/Size_judgement/Stimuli/Size_stims/L/deskchair/deskchair8.jpg,1.0,226.435,1.435,0.0,0.0,deskchair,basketball,L,M,3.0,2.0,deskchair2,basketball9,
205,,size_choice_confirmation,,html-keyboard-response,205,402113,0.0-1.0-287.0-0.0,0,0,46320,,,,,,71.0,,2.0,,,,,,,,,,,,,,,,,226.5,0.065,,,,,,,,,,,
206,,iti,,html-keyboard-response,206,405615,0.0-1.0-288.0,0,0,46320,,,,,,71.0,,2.0,,,,,,,,,,,,,,,,,230.0,3.5,,,,,,,,,,,
207,,size_choice,,html-keyboard-response,207,406727,0.0-1.0-290.0,0,0,46320,,1102.0,,,68.0,72.0,72.0,2.0,1000.0,L-XL,1.0,XL,L,4.0,3.0,car,deskchair,car9,deskchair4,158.0,13.0,/static/Size_judgement/Stimuli/Size_stims/XL/car/car15.jpg,/static/Size_judgement/Stimuli/Size_stims/L/deskchair/deskchair6.jpg,1.0,231.102,1.102,0.0,1.0,car,deskchair,XL,L,4.0,3.0,car9,deskchair4,
208,,size_choice_confirmation,,html-keyboard-response,208,407128,0.0-1.0-291.0-0.0,0,0,46320,,,,,,72.0,,2.0,,,,,,,,,,,,,,,,,231.5,0.398,,,,,,,,,,,
209,,iti,,html-keyboard-response,209,408131,0.0-1.0-292.0,0,0,46320,,,,,,72.0,,2.0,,,,,,,,,,,,,,,,,232.5,1.0,,,,,,,,,,,
210,,size_choice,,html-keyboard-response,210,409256,0.0-1.0-294.0,0,0,46320,,1122.0,,,75.0,73.0,73.0,2.0,1500.0,M-M,,M,M,2.0,2.0,hairdryer,basketball,hairdryer3,basketball3,72.0,52.0,/static/Size_judgement/Stimuli/Size_stims/M/hairdryer/hairdryer17.jpg,/static/Size_judgement/Stimuli/Size_stims/M/basketball/basketball10.jpg,,233.622,1.122,0.0,0.0,basketball,hairdryer,M,M,2.0,2.0,basketball3,hairdryer3,
211,,size_choice_confirmation,,html-keyboard-response,211,409636,0.0-1.0-295.0-0.0,0,0,46320,,,,,,73.0,,2.0,,,,,,,,,,,,,,,,,234.0,0.378,,,,,,,,,,,
212,,iti,,html-keyboard-response,212,411138,0.0-1.0-296.0,0,0,46320,,,,,,73.0,,2.0,,,,,,,,,,,,,,,,,235.5,1.5,,,,,,,,,,,
213,,size_choice,,html-keyboard-response,213,412003,0.0-1.0-298.0,0,0,46320,,861.0,,,75.0,74.0,74.0,2.0,1500.0,S-XL,0.0,S,XL,1.0,4.0,paperclip,crane,paperclip10,crane1,119.0,160.0,/static/Size_judgement/Stimuli/Size_stims/S/paperclip/paperclip10.jpg,/static/Size_judgement/Stimuli/Size_stims/XL/crane/crane7.jpg,1.0,236.361,0.861,0.0,0.0,crane,paperclip,XL,S,4.0,1.0,crane1,paperclip10,
214,,size_choice_confirmation,,html-keyboard-response,214,412646,0.0-1.0-299.0-0.0,0,0,46320,,,,,,74.0,,2.0,,,,,,,,,,,,,,,,,237.0,0.639,,,,,,,,,,,
215,,iti,,html-keyboard-response,215,414149,0.0-1.0-300.0,0,0,46320,,,,,,74.0,,2.0,,,,,,,,,,,,,,,,,238.5,1.5,,,,,,,,,,,
216,,size_choice,,html-keyboard-response,216,415628,0.0-1.0-302.0,0,0,46320,,1475.0,,,68.0,75.0,75.0,2.0,1000.0,M-L,1.0,L,M,3.0,2.0,cooler,ketchup,cooler5,ketchup10,4.0,99.0,/static/Size_judgement/Stimuli/Size_stims/L/cooler/cooler10.jpg,/static/Size_judgement/Stimuli/Size_stims/M/ketchup/ketchup6.jpg,1.0,239.975,1.475,0.0,1.0,cooler,ketchup,L,M,3.0,2.0,cooler5,ketchup10,
217,,size_choice_confirmation,,html-keyboard-response,217,415659,0.0-1.0-303.0-0.0,0,0,46320,,,,,,75.0,,2.0,,,,,,,,,,,,,,,,,240.0,0.025,,,,,,,,,,,
218,,iti,,html-keyboard-response,218,416661,0.0-1.0-304.0,0,0,46320,,,,,,75.0,,2.0,,,,,,,,,,,,,,,,,241.0,1.0,,,,,,,,,,,
219,,size_choice,,html-keyboard-response,219,417963,0.0-1.0-306.0,0,0,46320,,1299.0,,,75.0,76.0,76.0,2.0,3000.0,S-S,,S,S,1.0,1.0,screws,die,screws7,die4,126.0,103.0,/static/Size_judgement/Stimuli/Size_stims/S/screws/screws1.jpg,/static/Size_judgement/Stimuli/Size_stims/S/die/die2.jpg,,242.299,1.299,0.0,0.0,die,screws,S,S,1.0,1.0,die4,screws7,
220,,size_choice_confirmation,,html-keyboard-response,220,418166,0.0-1.0-307.0-0.0,0,0,46320,,,,,,76.0,,2.0,,,,,,,,,,,,,,,,,242.5,0.201,,,,,,,,,,,
221,,iti,,html-keyboard-response,221,421173,0.0-1.0-308.0,0,0,46320,,,,,,76.0,,2.0,,,,,,,,,,,,,,,,,245.5,3.0,,,,,,,,,,,
222,,size_choice,,html-keyboard-response,222,422294,0.0-1.0-310.0,0,0,46320,,1114.0,,,68.0,77.0,77.0,2.0,1000.0,L-L,,L,L,3.0,3.0,mailbox,cooler,mailbox1,cooler2,40.0,1.0,/static/Size_judgement/Stimuli/Size_stims/L/mailbox/mailbox3.jpg,/static/Size_judgement/Stimuli/Size_stims/L/cooler/cooler9.jpg,,246.614,1.114,0.0,1.0,mailbox,cooler,L,L,3.0,3.0,mailbox1,cooler2,
223,,size_choice_confirmation,,html-keyboard-response,223,422683,0.0-1.0-311.0-0.0,0,0,46320,,,,,,77.0,,2.0,,,,,,,,,,,,,,,,,247.0,0.386,,,,,,,,,,,
224,,iti,,html-keyboard-response,224,423684,0.0-1.0-312.0,0,0,46320,,,,,,77.0,,2.0,,,,,,,,,,,,,,,,,248.0,1.0,,,,,,,,,,,
225,,size_choice,,html-keyboard-response,225,424696,0.0-1.0-314.0,0,0,46320,,1009.0,,,68.0,78.0,78.0,2.0,1000.0,S-L,1.0,L,S,3.0,1.0,cooler,paperclip,cooler8,paperclip6,7.0,115.0,/static/Size_judgement/Stimuli/Size_stims/L/cooler/cooler5.jpg,/static/Size_judgement/Stimuli/Size_stims/S/paperclip/paperclip6.jpg,1.0,249.009,1.009,0.0,1.0,cooler,paperclip,L,S,3.0,1.0,cooler8,paperclip6,
226,,size_choice_confirmation,,html-keyboard-response,226,425190,0.0-1.0-315.0-0.0,0,0,46320,,,,,,78.0,,2.0,,,,,,,,,,,,,,,,,249.5,0.491,,,,,,,,,,,
227,,iti,,html-keyboard-response,227,426193,0.0-1.0-316.0,0,0,46320,,,,,,78.0,,2.0,,,,,,,,,,,,,,,,,250.5,1.0,,,,,,,,,,,
228,,size_choice,,html-keyboard-response,228,427217,0.0-1.0-318.0,0,0,46320,,1019.0,,,75.0,79.0,79.0,2.0,3000.0,S-XL,0.0,S,XL,1.0,4.0,paperclip,crane,paperclip3,crane2,112.0,161.0,/static/Size_judgement/Stimuli/Size_stims/S/paperclip/paperclip1.jpg,/static/Size_judgement/Stimuli/Size_stims/XL/crane/crane6.jpg,1.0,251.519,1.019,0.0,0.0,crane,paperclip,XL,S,4.0,1.0,crane2,paperclip3,
229,,size_choice_confirmation,,html-keyboard-response,229,427705,0.0-1.0-319.0-0.0,0,0,46320,,,,,,79.0,,2.0,,,,,,,,,,,,,,,,,252.0,0.481,,,,,,,,,,,
230,,iti,,html-keyboard-response,230,430711,0.0-1.0-320.0,0,0,46320,,,,,,79.0,,2.0,,,,,,,,,,,,,,,,,255.0,3.0,,,,,,,,,,,
231,,size_choice,,html-keyboard-response,231,431750,0.0-1.0-322.0,0,0,46320,,1037.0,,,75.0,80.0,80.0,2.0,1000.0,M-XL,0.0,M,XL,2.0,4.0,ketchup,van,ketchup1,van2,90.0,191.0,/static/Size_judgement/Stimuli/Size_stims/M/ketchup/ketchup8.jpg,/static/Size_judgement/Stimuli/Size_stims/XL/van/van4.jpg,1.0,256.037,1.037,0.0,0.0,van,ketchup,XL,M,4.0,2.0,van2,ketchup1,
232,,size_choice_confirmation,,html-keyboard-response,232,432226,0.0-1.0-323.0-0.0,0,0,46320,,,,,,80.0,,2.0,,,,,,,,,,,,,,,,,256.5,0.463,,,,,,,,,,,
233,,iti,,html-keyboard-response,233,433232,0.0-1.0-324.0,0,0,46320,,,,,,80.0,,2.0,,,,,,,,,,,,,,,,,257.5,1.0,,,,,,,,,,,
234,,size_choice,,html-keyboard-response,234,434533,0.0-1.0-326.0,0,0,46320,,1298.0,,,75.0,81.0,81.0,2.0,3000.0,M-XL,0.0,M,XL,2.0,4.0,coffeemaker,tractor,coffeemaker6,tractor3,65.0,182.0,/static/Size_judgement/Stimuli/Size_stims/M/coffeemaker/coffeemaker8.jpg,/static/Size_judgement/Stimuli/Size_stims/XL/tractor/tractor5.jpg,1.0,258.798,1.298,0.0,0.0,tractor,coffeemaker,XL,M,4.0,2.0,tractor3,coffeemaker6,
235,,size_choice_confirmation,,html-keyboard-response,235,434737,0.0-1.0-327.0-0.0,0,0,46320,,,,,,81.0,,2.0,,,,,,,,,,,,,,,,,259.0,0.202,,,,,,,,,,,
236,,iti,,html-keyboard-response,236,437739,0.0-1.0-328.0,0,0,46320,,,,,,81.0,,2.0,,,,,,,,,,,,,,,,,262.0,3.0,,,,,,,,,,,
237,,size_choice,,html-keyboard-response,237,439205,0.0-1.0-330.0,0,0,46320,,1463.0,,,68.0,82.0,82.0,2.0,1000.0,M-L,1.0,L,M,3.0,2.0,dishwasher,basketball,dishwasher6,basketball10,25.0,59.0,/static/Size_judgement/Stimuli/Size_stims/L/dishwasher/dishwasher6.jpg,/static/Size_judgement/Stimuli/Size_stims/M/basketball/basketball4.jpg,1.0,263.463,1.463,0.0,1.0,dishwasher,basketball,L,M,3.0,2.0,dishwasher6,basketball10,
238,,size_choice_confirmation,,html-keyboard-response,238,439246,0.0-1.0-331.0-0.0,0,0,46320,,,,,,82.0,,2.0,,,,,,,,,,,,,,,,,263.5,0.037,,,,,,,,,,,
239,,iti,,html-keyboard-response,239,440250,0.0-1.0-332.0,0,0,46320,,,,,,82.0,,2.0,,,,,,,,,,,,,,,,,264.5,1.0,,,,,,,,,,,
240,,size_choice,,html-keyboard-response,240,441281,0.0-1.0-334.0,0,0,46320,,1027.0,,,68.0,83.0,83.0,2.0,1000.0,M-XL,1.0,XL,M,4.0,2.0,van,hairdryer,van8,hairdryer9,197.0,78.0,/static/Size_judgement/Stimuli/Size_stims/XL/van/van10.jpg,/static/Size_judgement/Stimuli/Size_stims/M/hairdryer/hairdryer5.jpg,1.0,265.527,1.027,0.0,1.0,van,hairdryer,XL,M,4.0,2.0,van8,hairdryer9,
241,,size_choice_confirmation,,html-keyboard-response,241,441774,0.0-1.0-335.0-0.0,0,0,46320,,,,,,83.0,,2.0,,,,,,,,,,,,,,,,,266.0,0.473,,,,,,,,,,,
242,,iti,,html-keyboard-response,242,442776,0.0-1.0-336.0,0,0,46320,,,,,,83.0,,2.0,,,,,,,,,,,,,,,,,267.0,1.0,,,,,,,,,,,
243,,size_choice,,html-keyboard-response,243,443833,0.0-1.0-338.0,0,0,46320,,1053.0,,,68.0,84.0,84.0,2.0,1000.0,XL-XL,,XL,XL,4.0,4.0,tractor,dumptruck,tractor5,dumptruck3,184.0,172.0,/static/Size_judgement/Stimuli/Size_stims/XL/tractor/tractor1.jpg,/static/Size_judgement/Stimuli/Size_stims/XL/dumptruck/dumptruck10.jpg,,268.053,1.053,0.0,1.0,tractor,dumptruck,XL,XL,4.0,4.0,tractor5,dumptruck3,
244,,size_choice_confirmation,,html-keyboard-response,244,444284,0.0-1.0-339.0-0.0,0,0,46320,,,,,,84.0,,2.0,,,,,,,,,,,,,,,,,268.5,0.447,,,,,,,,,,,
245,,iti,,html-keyboard-response,245,445287,0.0-1.0-340.0,0,0,46320,,,,,,84.0,,2.0,,,,,,,,,,,,,,,,,269.5,1.0,,,,,,,,,,,
246,,size_choice,,html-keyboard-response,246,446655,0.0-1.0-342.0,0,0,46320,,1365.0,,,75.0,85.0,85.0,2.0,1000.0,M-L,1.0,L,M,3.0,2.0,mailbox,basketball,mailbox7,basketball1,46.0,50.0,/static/Size_judgement/Stimuli/Size_stims/L/mailbox/mailbox7.jpg,/static/Size_judgement/Stimuli/Size_stims/M/basketball/basketball9.jpg,0.0,270.865,1.365,0.0,0.0,basketball,mailbox,M,L,2.0,3.0,basketball1,mailbox7,
247,,size_choice_confirmation,,html-keyboard-response,247,446795,0.0-1.0-343.0-0.0,0,0,46320,,,,,,85.0,,2.0,,,,,,,,,,,,,,,,,271.0,0.135,,,,,,,,,,,
248,,iti,,html-keyboard-response,248,447820,0.0-1.0-344.0,0,0,46320,,,,,,85.0,,2.0,,,,,,,,,,,,,,,,,272.0,1.0,,,,,,,,,,,
249,,size_choice,,html-keyboard-response,249,449322,0.0-1.0-346.0,0,0,46320,,,,,,86.0,86.0,2.0,1500.0,S-XL,1.0,XL,S,4.0,1.0,dumptruck,screws,dumptruck6,screws8,175.0,127.0,/static/Size_judgement/Stimuli/Size_stims/XL/dumptruck/dumptruck2.jpg,/static/Size_judgement/Stimuli/Size_stims/S/screws/screws10.jpg,,273.5,1.5,1.0,,,,,,,,,,
250,,iti,,html-keyboard-response,250,450824,0.0-1.0-348.0,0,0,46320,,,,,,86.0,,2.0,,,,,,,,,,,,,,,,,275.0,1.5,,,,,,,,,,,
251,,size_choice,,html-keyboard-response,251,451963,0.0-1.0-350.0,0,0,46320,,1136.0,,,68.0,87.0,87.0,2.0,1500.0,L-XL,1.0,XL,L,4.0,3.0,car,deskchair,car7,deskchair8,156.0,17.0,/static/Size_judgement/Stimuli/Size_stims/XL/car/car13.jpg,/static/Size_judgement/Stimuli/Size_stims/L/deskchair/deskchair1.jpg,1.0,276.136,1.136,0.0,1.0,car,deskchair,XL,L,4.0,3.0,car7,deskchair8,
252,,size_choice_confirmation,,html-keyboard-response,252,452331,0.0-1.0-351.0-0.0,0,0,46320,,,,,,87.0,,2.0,,,,,,,,,,,,,,,,,276.5,0.364,,,,,,,,,,,
253,,iti,,html-keyboard-response,253,453839,0.0-1.0-352.0,0,0,46320,,,,,,87.0,,2.0,,,,,,,,,,,,,,,,,278.0,1.5,,,,,,,,,,,
254,,size_choice,,html-keyboard-response,254,454989,0.0-1.0-354.0,0,0,46320,,1147.0,,,68.0,88.0,88.0,2.0,1000.0,M-L,1.0,L,M,3.0,2.0,garbagecan,hairdryer,garbagecan10,hairdryer7,39.0,76.0,/static/Size_judgement/Stimuli/Size_stims/L/garbagecan/garbagecan11.jpg,/static/Size_judgement/Stimuli/Size_stims/M/hairdryer/hairdryer3.jpg,1.0,279.147,1.147,0.0,1.0,garbagecan,hairdryer,L,M,3.0,2.0,garbagecan10,hairdryer7,
255,,size_choice_confirmation,,html-keyboard-response,255,455344,0.0-1.0-355.0-0.0,0,0,46320,,,,,,88.0,,2.0,,,,,,,,,,,,,,,,,279.5,0.353,,,,,,,,,,,
256,,iti,,html-keyboard-response,256,456347,0.0-1.0-356.0,0,0,46320,,,,,,88.0,,2.0,,,,,,,,,,,,,,,,,280.5,1.0,,,,,,,,,,,
257,,size_choice,,html-keyboard-response,257,457703,0.0-1.0-358.0,0,0,46320,,1350.0,,,75.0,89.0,89.0,2.0,2000.0,M-XL,0.0,M,XL,2.0,4.0,handsaw,car,handsaw5,car10,84.0,159.0,/static/Size_judgement/Stimuli/Size_stims/M/handsaw/handsaw1.jpg,/static/Size_judgement/Stimuli/Size_stims/XL/car/car9.jpg,1.0,281.85,1.35,0.0,0.0,car,handsaw,XL,M,4.0,2.0,car10,handsaw5,
258,,size_choice_confirmation,,html-keyboard-response,258,457931,0.0-1.0-359.0-0.0,0,0,46320,,,,,,89.0,,2.0,,,,,,,,,,,,,,,,,282.0,0.15,,,,,,,,,,,
259,,iti,,html-keyboard-response,259,459932,0.0-1.0-360.0,0,0,46320,,,,,,89.0,,2.0,,,,,,,,,,,,,,,,,284.0,2.0,,,,,,,,,,,0.66
260,,size_final_tally,,html-keyboard-response,260,463786,0.0-2.0,0,0,46320,,3848.0,,,68.0,,,,,,,,,,,,,,,,,,,,,,,,,,,,,,,,
