,success,ttype,start_time,trial_type,trial_index,time_elapsed,internal_node_id,warning,missed_checkup,PID,view_history,rt,responses,repeat_instructions,key_press,index,trial_num,block,iti,pair_type,high_size_on_left,left_size_group,right_size_group,left_size_num,right_size_num,left_category,right_category,left_exemplar,right_exemplar,left_index,right_index,left_img_path,right_img_path,left_chosen,chosen_category,unchosen_category,chosen_size_group,unchosen_size_group,chosen_size_num,unchosen_size_num,chosen_exemplar,unchosen_exemplar,accuracy,onset,duration,no_response,size_final_tally
0,True,full_screen,d06152022hr2216,fullscreen,0,7985,0.0-0.0,0,0,99,,,,,,,,,,,,,,,,,,,,,,,,,,,,,,,,,,,,,
1,,size_instructions,,instructions,1,70997,0.0-1.0-0.0-0.0,0,0,99,"[{""page_index"":0,""viewing_time"":7125},{""page_index"":1,""viewing_time"":11171},{""page_index"":2,""viewing_time"":12611},{""page_index"":3,""viewing_time"":20230},{""page_index"":4,""viewing_time"":8422},{""page_index"":5,""viewing_time"":3451}]",63010.0,,,,,,,,,,,,,,,,,,,,,,,,,,,,,,,,,,,
2,,size_comprehension_check,,survey-multi-choice,2,104454,0.0-1.0-0.0-1.0,0,0,99,,33454.0,"{""Q0"":""True"",""Q1"":""Size in the real world"",""Q2"":""True"",""Q3"":""pointer finger for left and middle finger for right""}",0.0,,,,,,,,,,,,,,,,,,,,,,,,,,,,,,,,,
3,,,,html-keyboard-response,3,111849,0.0-1.0-1.0,0,0,99,,7391.0,,,83.0,,,,,,,,,,,,,,,,,,,,,,,,,,,,,,,,
4,,start_run,,html-keyboard-response,4,134657,0.0-1.0-2.0,0,0,99,,22807.0,,,84.0,,,,,,,,,,,,,,,,,,,,,,,,,,,,,,,,
5,,size_choice,,html-keyboard-response,5,135658,0.0-1.0-3.0,0,0,99,,1000.0,,,50.0,0.0,0.0,1.0,1000.0,M-XL,1.0,XL,M,4.0,2.0,crane,coffeemaker,crane4,coffeemaker10,163.0,69.0,/static/Size_judgement/Stimuli/Size_stims/XL/crane/crane5.jpg,/static/Size_judgement/Stimuli/Size_stims/M/coffeemaker/coffeemaker18.jpg,1.0,crane,coffeemaker,XL,M,4.0,2.0,crane4,coffeemaker10,1.0,0.0,1.0,0.0,
6,,size_choice_confirmation,,html-keyboard-response,6,136160,0.0-1.0-4.0-0.0,0,0,99,,,,,,0.0,,1.0,,,,,,,,,,,,,,,,,,,,,,,,,,1.0,0.5,,
7,,iti,,html-keyboard-response,7,137161,0.0-1.0-5.0,0,0,99,,,,,,0.0,,1.0,,,,,,,,,,,,,,,,,,,,,,,,,,1.5,1.0,,
8,,size_choice,,html-keyboard-response,8,138083,0.0-1.0-7.0,0,0,99,,920.0,,,51.0,1.0,1.0,1.0,500.0,S-L,0.0,S,L,1.0,3.0,screws,mailbox,screws1,mailbox5,120.0,44.0,/static/Size_judgement/Stimuli/Size_stims/S/screws/screws4.jpg,/static/Size_judgement/Stimuli/Size_stims/L/mailbox/mailbox4.jpg,0.0,mailbox,screws,L,S,3.0,1.0,mailbox5,screws1,1.0,2.5,0.92,0.0,
9,,size_choice_confirmation,,html-keyboard-response,9,138665,0.0-1.0-8.0-0.0,0,0,99,,,,,,1.0,,1.0,,,,,,,,,,,,,,,,,,,,,,,,,,3.42,0.58,,
10,,iti,,html-keyboard-response,10,139166,0.0-1.0-9.0,0,0,99,,,,,,1.0,,1.0,,,,,,,,,,,,,,,,,,,,,,,,,,4.0,0.5,,
11,,size_choice,,html-keyboard-response,11,140173,0.0-1.0-11.0,0,0,99,,1004.0,,,51.0,2.0,2.0,1.0,1000.0,M-L,0.0,M,L,2.0,3.0,ketchup,cooler,ketchup6,cooler9,95.0,8.0,/static/Size_judgement/Stimuli/Size_stims/M/ketchup/ketchup1.jpg,/static/Size_judgement/Stimuli/Size_stims/L/cooler/cooler7.jpg,0.0,cooler,ketchup,L,M,3.0,2.0,cooler9,ketchup6,1.0,4.5,1.004,0.0,
12,,size_choice_confirmation,,html-keyboard-response,12,140670,0.0-1.0-12.0-0.0,0,0,99,,,,,,2.0,,1.0,,,,,,,,,,,,,,,,,,,,,,,,,,5.504,0.496,,
13,,iti,,html-keyboard-response,13,141673,0.0-1.0-13.0,0,0,99,,,,,,2.0,,1.0,,,,,,,,,,,,,,,,,,,,,,,,,,6.0,1.0,,
14,,size_choice,,html-keyboard-response,14,142421,0.0-1.0-15.0,0,0,99,,747.0,,,51.0,3.0,3.0,1.0,1000.0,S-M,0.0,S,M,1.0,2.0,die,basketball,die2,basketball9,101.0,58.0,/static/Size_judgement/Stimuli/Size_stims/S/die/die9.jpg,/static/Size_judgement/Stimuli/Size_stims/M/basketball/basketball5.jpg,0.0,basketball,die,M,S,2.0,1.0,basketball9,die2,1.0,7.0,0.747,0.0,
15,,size_choice_confirmation,,html-keyboard-response,15,143176,0.0-1.0-16.0-0.0,0,0,99,,,,,,3.0,,1.0,,,,,,,,,,,,,,,,,,,,,,,,,,7.747,0.753,,
16,,iti,,html-keyboard-response,16,144181,0.0-1.0-17.0,0,0,99,,,,,,3.0,,1.0,,,,,,,,,,,,,,,,,,,,,,,,,,8.5,1.0,,
17,,size_choice,,html-keyboard-response,17,144845,0.0-1.0-19.0,0,0,99,,663.0,,,51.0,4.0,4.0,1.0,500.0,S-XL,0.0,S,XL,1.0,4.0,screws,van,screws4,van1,123.0,190.0,/static/Size_judgement/Stimuli/Size_stims/S/screws/screws6.jpg,/static/Size_judgement/Stimuli/Size_stims/XL/van/van5.jpg,0.0,van,screws,XL,S,4.0,1.0,van1,screws4,1.0,9.5,0.663,0.0,
18,,size_choice_confirmation,,html-keyboard-response,18,145684,0.0-1.0-20.0-0.0,0,0,99,,,,,,4.0,,1.0,,,,,,,,,,,,,,,,,,,,,,,,,,10.163,0.837,,
19,,iti,,html-keyboard-response,19,146185,0.0-1.0-21.0,0,0,99,,,,,,4.0,,1.0,,,,,,,,,,,,,,,,,,,,,,,,,,11.0,0.5,,
20,,size_choice,,html-keyboard-response,20,146972,0.0-1.0-23.0,0,0,99,,786.0,,,50.0,5.0,5.0,1.0,1500.0,S-XL,1.0,XL,S,4.0,1.0,tractor,teabag,tractor6,teabag10,185.0,139.0,/static/Size_judgement/Stimuli/Size_stims/XL/tractor/tractor3.jpg,/static/Size_judgement/Stimuli/Size_stims/S/teabag/teabag4.jpg,1.0,tractor,teabag,XL,S,4.0,1.0,tractor6,teabag10,1.0,11.5,0.786,0.0,
21,,size_choice_confirmation,,html-keyboard-response,21,147688,0.0-1.0-24.0-0.0,0,0,99,,,,,,5.0,,1.0,,,,,,,,,,,,,,,,,,,,,,,,,,12.286,0.714,,
22,,iti,,html-keyboard-response,22,149193,0.0-1.0-25.0,0,0,99,,,,,,5.0,,1.0,,,,,,,,,,,,,,,,,,,,,,,,,,13.0,1.5,,
23,,size_choice,,html-keyboard-response,23,149903,0.0-1.0-27.0,0,0,99,,709.0,,,51.0,6.0,6.0,1.0,1000.0,M-XL,0.0,M,XL,2.0,4.0,basketball,dumptruck,basketball7,dumptruck6,56.0,175.0,/static/Size_judgement/Stimuli/Size_stims/M/basketball/basketball6.jpg,/static/Size_judgement/Stimuli/Size_stims/XL/dumptruck/dumptruck2.jpg,0.0,dumptruck,basketball,XL,M,4.0,2.0,dumptruck6,basketball7,1.0,14.5,0.709,0.0,
24,,size_choice_confirmation,,html-keyboard-response,24,150696,0.0-1.0-28.0-0.0,0,0,99,,,,,,6.0,,1.0,,,,,,,,,,,,,,,,,,,,,,,,,,15.209,0.791,,
25,,iti,,html-keyboard-response,25,151698,0.0-1.0-29.0,0,0,99,,,,,,6.0,,1.0,,,,,,,,,,,,,,,,,,,,,,,,,,16.0,1.0,,
26,,size_choice,,html-keyboard-response,26,152289,0.0-1.0-31.0,0,0,99,,591.0,,,50.0,7.0,7.0,1.0,1500.0,M-XL,1.0,XL,M,4.0,2.0,car,basketball,car7,basketball2,156.0,51.0,/static/Size_judgement/Stimuli/Size_stims/XL/car/car13.jpg,/static/Size_judgement/Stimuli/Size_stims/M/basketball/basketball8.jpg,1.0,car,basketball,XL,M,4.0,2.0,car7,basketball2,1.0,17.0,0.591,0.0,
27,,size_choice_confirmation,,html-keyboard-response,27,153203,0.0-1.0-32.0-0.0,0,0,99,,,,,,7.0,,1.0,,,,,,,,,,,,,,,,,,,,,,,,,,17.591,0.909,,
28,,iti,,html-keyboard-response,28,154705,0.0-1.0-33.0,0,0,99,,,,,,7.0,,1.0,,,,,,,,,,,,,,,,,,,,,,,,,,18.5,1.5,,
29,,size_choice,,html-keyboard-response,29,155476,0.0-1.0-35.0,0,0,99,,768.0,,,50.0,8.0,8.0,1.0,500.0,S-L,1.0,L,S,3.0,1.0,mailbox,thread,mailbox4,thread1,43.0,140.0,/static/Size_judgement/Stimuli/Size_stims/L/mailbox/mailbox5.jpg,/static/Size_judgement/Stimuli/Size_stims/S/thread/thread7.jpg,1.0,mailbox,thread,L,S,3.0,1.0,mailbox4,thread1,1.0,20.0,0.768,0.0,
30,,size_choice_confirmation,,html-keyboard-response,30,156211,0.0-1.0-36.0-0.0,0,0,99,,,,,,8.0,,1.0,,,,,,,,,,,,,,,,,,,,,,,,,,20.768,0.732,,
31,,iti,,html-keyboard-response,31,156713,0.0-1.0-37.0,0,0,99,,,,,,8.0,,1.0,,,,,,,,,,,,,,,,,,,,,,,,,,21.5,0.5,,
32,,size_choice,,html-keyboard-response,32,157628,0.0-1.0-39.0,0,0,99,,914.0,,,50.0,9.0,9.0,1.0,500.0,L-XL,1.0,XL,L,4.0,3.0,van,deskchair,van2,deskchair4,191.0,13.0,/static/Size_judgement/Stimuli/Size_stims/XL/van/van4.jpg,/static/Size_judgement/Stimuli/Size_stims/L/deskchair/deskchair6.jpg,1.0,van,deskchair,XL,L,4.0,3.0,van2,deskchair4,1.0,22.0,0.914,0.0,
33,,size_choice_confirmation,,html-keyboard-response,33,158217,0.0-1.0-40.0-0.0,0,0,99,,,,,,9.0,,1.0,,,,,,,,,,,,,,,,,,,,,,,,,,22.914,0.586,,
34,,iti,,html-keyboard-response,34,158718,0.0-1.0-41.0,0,0,99,,,,,,9.0,,1.0,,,,,,,,,,,,,,,,,,,,,,,,,,23.5,0.5,,
35,,size_choice,,html-keyboard-response,35,159512,0.0-1.0-43.0,0,0,99,,792.0,,,51.0,10.0,10.0,1.0,3500.0,M-XL,0.0,M,XL,2.0,4.0,handsaw,car,handsaw2,car2,81.0,151.0,/static/Size_judgement/Stimuli/Size_stims/M/handsaw/handsaw9.jpg,/static/Size_judgement/Stimuli/Size_stims/XL/car/car3.jpg,0.0,car,handsaw,XL,M,4.0,2.0,car2,handsaw2,1.0,24.0,0.792,0.0,
36,,size_choice_confirmation,,html-keyboard-response,36,160225,0.0-1.0-44.0-0.0,0,0,99,,,,,,10.0,,1.0,,,,,,,,,,,,,,,,,,,,,,,,,,24.792,0.708,,
37,,iti,,html-keyboard-response,37,163727,0.0-1.0-45.0,0,0,99,,,,,,10.0,,1.0,,,,,,,,,,,,,,,,,,,,,,,,,,25.5,3.5,,
38,,size_choice,,html-keyboard-response,38,164774,0.0-1.0-47.0,0,0,99,,1045.0,,,50.0,11.0,11.0,1.0,5500.0,L-L,,L,L,3.0,3.0,mailbox,garbagecan,mailbox2,garbagecan7,41.0,36.0,/static/Size_judgement/Stimuli/Size_stims/L/mailbox/mailbox2.jpg,/static/Size_judgement/Stimuli/Size_stims/L/garbagecan/garbagecan16.jpg,1.0,mailbox,garbagecan,L,L,3.0,3.0,mailbox2,garbagecan7,,29.0,1.045,0.0,
39,,size_choice_confirmation,,html-keyboard-response,39,165230,0.0-1.0-48.0-0.0,0,0,99,,,,,,11.0,,1.0,,,,,,,,,,,,,,,,,,,,,,,,,,30.045,0.455,,
40,,iti,,html-keyboard-response,40,170734,0.0-1.0-49.0,0,0,99,,,,,,11.0,,1.0,,,,,,,,,,,,,,,,,,,,,,,,,,30.5,5.5,,
41,,size_choice,,html-keyboard-response,41,171452,0.0-1.0-51.0,0,0,99,,716.0,,,50.0,12.0,12.0,1.0,1000.0,M-XL,1.0,XL,M,4.0,2.0,dumptruck,ketchup,dumptruck1,ketchup10,170.0,99.0,/static/Size_judgement/Stimuli/Size_stims/XL/dumptruck/dumptruck9.jpg,/static/Size_judgement/Stimuli/Size_stims/M/ketchup/ketchup6.jpg,1.0,dumptruck,ketchup,XL,M,4.0,2.0,dumptruck1,ketchup10,1.0,36.0,0.716,0.0,
42,,size_choice_confirmation,,html-keyboard-response,42,172238,0.0-1.0-52.0-0.0,0,0,99,,,,,,12.0,,1.0,,,,,,,,,,,,,,,,,,,,,,,,,,36.716,0.784,,
43,,iti,,html-keyboard-response,43,173241,0.0-1.0-53.0,0,0,99,,,,,,12.0,,1.0,,,,,,,,,,,,,,,,,,,,,,,,,,37.5,1.0,,
44,,size_choice,,html-keyboard-response,44,174008,0.0-1.0-55.0,0,0,99,,766.0,,,50.0,13.0,13.0,1.0,1500.0,L-XL,1.0,XL,L,4.0,3.0,van,mailbox,van10,mailbox10,199.0,49.0,/static/Size_judgement/Stimuli/Size_stims/XL/van/van8.jpg,/static/Size_judgement/Stimuli/Size_stims/L/mailbox/mailbox8.jpg,1.0,van,mailbox,XL,L,4.0,3.0,van10,mailbox10,1.0,38.5,0.766,0.0,
45,,size_choice_confirmation,,html-keyboard-response,45,174745,0.0-1.0-56.0-0.0,0,0,99,,,,,,13.0,,1.0,,,,,,,,,,,,,,,,,,,,,,,,,,39.266,0.734,,
46,,iti,,html-keyboard-response,46,176251,0.0-1.0-57.0,0,0,99,,,,,,13.0,,1.0,,,,,,,,,,,,,,,,,,,,,,,,,,40.0,1.5,,
47,,size_choice,,html-keyboard-response,47,176940,0.0-1.0-59.0,0,0,99,,688.0,,,51.0,14.0,14.0,1.0,500.0,M-L,0.0,M,L,2.0,3.0,basketball,mailbox,basketball8,mailbox9,57.0,48.0,/static/Size_judgement/Stimuli/Size_stims/M/basketball/basketball7.jpg,/static/Size_judgement/Stimuli/Size_stims/L/mailbox/mailbox9.jpg,0.0,mailbox,basketball,L,M,3.0,2.0,mailbox9,basketball8,1.0,41.5,0.688,0.0,
48,,size_choice_confirmation,,html-keyboard-response,48,177754,0.0-1.0-60.0-0.0,0,0,99,,,,,,14.0,,1.0,,,,,,,,,,,,,,,,,,,,,,,,,,42.188,0.812,,
49,,iti,,html-keyboard-response,49,178255,0.0-1.0-61.0,0,0,99,,,,,,14.0,,1.0,,,,,,,,,,,,,,,,,,,,,,,,,,43.0,0.5,,
50,,size_choice,,html-keyboard-response,50,179143,0.0-1.0-63.0,0,0,99,,887.0,,,51.0,15.0,15.0,1.0,500.0,S-L,0.0,S,L,1.0,3.0,screws,deskchair,screws2,deskchair7,121.0,16.0,/static/Size_judgement/Stimuli/Size_stims/S/screws/screws5.jpg,/static/Size_judgement/Stimuli/Size_stims/L/deskchair/deskchair4.jpg,0.0,deskchair,screws,L,S,3.0,1.0,deskchair7,screws2,1.0,43.5,0.887,0.0,
51,,size_choice_confirmation,,html-keyboard-response,51,179760,0.0-1.0-64.0-0.0,0,0,99,,,,,,15.0,,1.0,,,,,,,,,,,,,,,,,,,,,,,,,,44.387,0.613,,
52,,iti,,html-keyboard-response,52,180262,0.0-1.0-65.0,0,0,99,,,,,,15.0,,1.0,,,,,,,,,,,,,,,,,,,,,,,,,,45.0,0.5,,
53,,size_choice,,html-keyboard-response,53,181159,0.0-1.0-67.0,0,0,99,,896.0,,,50.0,16.0,16.0,1.0,2500.0,S-L,1.0,L,S,3.0,1.0,cooler,die,cooler7,die7,6.0,106.0,/static/Size_judgement/Stimuli/Size_stims/L/cooler/cooler4.jpg,/static/Size_judgement/Stimuli/Size_stims/S/die/die4.jpg,1.0,cooler,die,L,S,3.0,1.0,cooler7,die7,1.0,45.5,0.896,0.0,
54,,size_choice_confirmation,,html-keyboard-response,54,181764,0.0-1.0-68.0-0.0,0,0,99,,,,,,16.0,,1.0,,,,,,,,,,,,,,,,,,,,,,,,,,46.396,0.604,,
55,,iti,,html-keyboard-response,55,184268,0.0-1.0-69.0,0,0,99,,,,,,16.0,,1.0,,,,,,,,,,,,,,,,,,,,,,,,,,47.0,2.5,,
56,,size_choice,,html-keyboard-response,56,185484,0.0-1.0-71.0,0,0,99,,1214.0,,,50.0,17.0,17.0,1.0,1500.0,S-XL,0.0,S,XL,1.0,4.0,paperclip,tractor,paperclip7,tractor7,116.0,186.0,/static/Size_judgement/Stimuli/Size_stims/S/paperclip/paperclip7.jpg,/static/Size_judgement/Stimuli/Size_stims/XL/tractor/tractor2.jpg,1.0,paperclip,tractor,S,XL,1.0,4.0,paperclip7,tractor7,0.0,49.5,1.214,0.0,
57,,size_choice_confirmation,,html-keyboard-response,57,185774,0.0-1.0-72.0-0.0,0,0,99,,,,,,17.0,,1.0,,,,,,,,,,,,,,,,,,,,,,,,,,50.714,0.286,,
58,,iti,,html-keyboard-response,58,187278,0.0-1.0-73.0,0,0,99,,,,,,17.0,,1.0,,,,,,,,,,,,,,,,,,,,,,,,,,51.0,1.5,,
59,,size_choice,,html-keyboard-response,59,188170,0.0-1.0-75.0,0,0,99,,891.0,,,51.0,18.0,18.0,1.0,1500.0,M-XL,0.0,M,XL,2.0,4.0,coffeemaker,dumptruck,coffeemaker8,dumptruck5,67.0,174.0,/static/Size_judgement/Stimuli/Size_stims/M/coffeemaker/coffeemaker5.jpg,/static/Size_judgement/Stimuli/Size_stims/XL/dumptruck/dumptruck3.jpg,0.0,dumptruck,coffeemaker,XL,M,4.0,2.0,dumptruck5,coffeemaker8,1.0,52.5,0.891,0.0,
60,,size_choice_confirmation,,html-keyboard-response,60,188782,0.0-1.0-76.0-0.0,0,0,99,,,,,,18.0,,1.0,,,,,,,,,,,,,,,,,,,,,,,,,,53.391,0.609,,
61,,iti,,html-keyboard-response,61,190286,0.0-1.0-77.0,0,0,99,,,,,,18.0,,1.0,,,,,,,,,,,,,,,,,,,,,,,,,,54.0,1.5,,
62,,size_choice,,html-keyboard-response,62,190987,0.0-1.0-79.0,0,0,99,,699.0,,,51.0,19.0,19.0,1.0,3000.0,M-L,0.0,M,L,2.0,3.0,basketball,deskchair,basketball3,deskchair10,52.0,19.0,/static/Size_judgement/Stimuli/Size_stims/M/basketball/basketball10.jpg,/static/Size_judgement/Stimuli/Size_stims/L/deskchair/deskchair2.jpg,0.0,deskchair,basketball,L,M,3.0,2.0,deskchair10,basketball3,1.0,55.5,0.699,0.0,
63,,size_choice_confirmation,,html-keyboard-response,63,191790,0.0-1.0-80.0-0.0,0,0,99,,,,,,19.0,,1.0,,,,,,,,,,,,,,,,,,,,,,,,,,56.199,0.801,,
64,,iti,,html-keyboard-response,64,194793,0.0-1.0-81.0,0,0,99,,,,,,19.0,,1.0,,,,,,,,,,,,,,,,,,,,,,,,,,57.0,3.0,,
65,,size_choice,,html-keyboard-response,65,195941,0.0-1.0-83.0,0,0,99,,1147.0,,,51.0,20.0,20.0,1.0,500.0,L-L,,L,L,3.0,3.0,garbagecan,deskchair,garbagecan8,deskchair6,37.0,15.0,/static/Size_judgement/Stimuli/Size_stims/L/garbagecan/garbagecan13.jpg,/static/Size_judgement/Stimuli/Size_stims/L/deskchair/deskchair5.jpg,0.0,deskchair,garbagecan,L,L,3.0,3.0,deskchair6,garbagecan8,,60.0,1.147,0.0,
66,,size_choice_confirmation,,html-keyboard-response,66,196297,0.0-1.0-84.0-0.0,0,0,99,,,,,,20.0,,1.0,,,,,,,,,,,,,,,,,,,,,,,,,,61.147,0.353,,
67,,iti,,html-keyboard-response,67,196798,0.0-1.0-85.0,0,0,99,,,,,,20.0,,1.0,,,,,,,,,,,,,,,,,,,,,,,,,,61.5,0.5,,
68,,size_choice,,html-keyboard-response,68,198302,0.0-1.0-87.0,0,0,99,,,,,,21.0,21.0,1.0,3000.0,L-L,,L,L,3.0,3.0,cooler,dishwasher,cooler2,dishwasher1,1.0,20.0,/static/Size_judgement/Stimuli/Size_stims/L/cooler/cooler9.jpg,/static/Size_judgement/Stimuli/Size_stims/L/dishwasher/dishwasher10.jpg,,,,,,,,,,,62.0,1.5,1.0,
69,,iti,,html-keyboard-response,69,201305,0.0-1.0-89.0,0,0,99,,,,,,21.0,,1.0,,,,,,,,,,,,,,,,,,,,,,,,,,63.5,3.0,,
70,,size_choice,,html-keyboard-response,70,202066,0.0-1.0-91.0,0,0,99,,760.0,,,51.0,22.0,22.0,1.0,500.0,M-XL,0.0,M,XL,2.0,4.0,handsaw,tractor,handsaw1,tractor2,80.0,181.0,/static/Size_judgement/Stimuli/Size_stims/M/handsaw/handsaw8.jpg,/static/Size_judgement/Stimuli/Size_stims/XL/tractor/tractor7.jpg,0.0,tractor,handsaw,XL,M,4.0,2.0,tractor2,handsaw1,1.0,66.5,0.76,0.0,
71,,size_choice_confirmation,,html-keyboard-response,71,202809,0.0-1.0-92.0-0.0,0,0,99,,,,,,22.0,,1.0,,,,,,,,,,,,,,,,,,,,,,,,,,67.26,0.74,,
72,,iti,,html-keyboard-response,72,203310,0.0-1.0-93.0,0,0,99,,,,,,22.0,,1.0,,,,,,,,,,,,,,,,,,,,,,,,,,68.0,0.5,,
73,,size_choice,,html-keyboard-response,73,204041,0.0-1.0-95.0,0,0,99,,730.0,,,50.0,23.0,23.0,1.0,1500.0,S-S,,S,S,1.0,1.0,die,screws,die3,screws8,102.0,127.0,/static/Size_judgement/Stimuli/Size_stims/S/die/die10.jpg,/static/Size_judgement/Stimuli/Size_stims/S/screws/screws10.jpg,1.0,die,screws,S,S,1.0,1.0,die3,screws8,,68.5,0.73,0.0,
74,,size_choice_confirmation,,html-keyboard-response,74,204814,0.0-1.0-96.0-0.0,0,0,99,,,,,,23.0,,1.0,,,,,,,,,,,,,,,,,,,,,,,,,,69.23,0.77,,
75,,iti,,html-keyboard-response,75,206314,0.0-1.0-97.0,0,0,99,,,,,,23.0,,1.0,,,,,,,,,,,,,,,,,,,,,,,,,,70.0,1.5,,
76,,size_choice,,html-keyboard-response,76,206965,0.0-1.0-99.0,0,0,99,,649.0,,,51.0,24.0,24.0,1.0,1500.0,S-L,0.0,S,L,1.0,3.0,screws,deskchair,screws5,deskchair3,124.0,12.0,/static/Size_judgement/Stimuli/Size_stims/S/screws/screws2.jpg,/static/Size_judgement/Stimuli/Size_stims/L/deskchair/deskchair10.jpg,0.0,deskchair,screws,L,S,3.0,1.0,deskchair3,screws5,1.0,71.5,0.649,0.0,
77,,size_choice_confirmation,,html-keyboard-response,77,207820,0.0-1.0-100.0-0.0,0,0,99,,,,,,24.0,,1.0,,,,,,,,,,,,,,,,,,,,,,,,,,72.149,0.851,,
78,,iti,,html-keyboard-response,78,209326,0.0-1.0-101.0,0,0,99,,,,,,24.0,,1.0,,,,,,,,,,,,,,,,,,,,,,,,,,73.0,1.5,,
79,,size_choice,,html-keyboard-response,79,210177,0.0-1.0-103.0,0,0,99,,850.0,,,51.0,25.0,25.0,1.0,500.0,M-M,,M,M,2.0,2.0,ketchup,handsaw,ketchup2,handsaw8,91.0,87.0,/static/Size_judgement/Stimuli/Size_stims/M/ketchup/ketchup9.jpg,/static/Size_judgement/Stimuli/Size_stims/M/handsaw/handsaw7.jpg,0.0,handsaw,ketchup,M,M,2.0,2.0,handsaw8,ketchup2,,74.5,0.85,0.0,
80,,size_choice_confirmation,,html-keyboard-response,80,210830,0.0-1.0-104.0-0.0,0,0,99,,,,,,25.0,,1.0,,,,,,,,,,,,,,,,,,,,,,,,,,75.35,0.65,,
81,,iti,,html-keyboard-response,81,211331,0.0-1.0-105.0,0,0,99,,,,,,25.0,,1.0,,,,,,,,,,,,,,,,,,,,,,,,,,76.0,0.5,,
82,,size_choice,,html-keyboard-response,82,212024,0.0-1.0-107.0,0,0,99,,690.0,,,50.0,26.0,26.0,1.0,1500.0,S-XL,1.0,XL,S,4.0,1.0,tractor,die,tractor4,die9,183.0,108.0,/static/Size_judgement/Stimuli/Size_stims/XL/tractor/tractor4.jpg,/static/Size_judgement/Stimuli/Size_stims/S/die/die7.jpg,1.0,tractor,die,XL,S,4.0,1.0,tractor4,die9,1.0,76.5,0.69,0.0,
83,,size_choice_confirmation,,html-keyboard-response,83,212835,0.0-1.0-108.0-0.0,0,0,99,,,,,,26.0,,1.0,,,,,,,,,,,,,,,,,,,,,,,,,,77.19,0.81,,
84,,iti,,html-keyboard-response,84,214339,0.0-1.0-109.0,0,0,99,,,,,,26.0,,1.0,,,,,,,,,,,,,,,,,,,,,,,,,,78.0,1.5,,
85,,size_choice,,html-keyboard-response,85,215381,0.0-1.0-111.0,0,0,99,,1040.0,,,50.0,27.0,27.0,1.0,500.0,S-L,1.0,L,S,3.0,1.0,garbagecan,die,garbagecan6,die4,35.0,103.0,/static/Size_judgement/Stimuli/Size_stims/L/garbagecan/garbagecan14.jpg,/static/Size_judgement/Stimuli/Size_stims/S/die/die2.jpg,1.0,garbagecan,die,L,S,3.0,1.0,garbagecan6,die4,1.0,79.5,1.04,0.0,
86,,size_choice_confirmation,,html-keyboard-response,86,215843,0.0-1.0-112.0-0.0,0,0,99,,,,,,27.0,,1.0,,,,,,,,,,,,,,,,,,,,,,,,,,80.54,0.46,,
87,,iti,,html-keyboard-response,87,216345,0.0-1.0-113.0,0,0,99,,,,,,27.0,,1.0,,,,,,,,,,,,,,,,,,,,,,,,,,81.0,0.5,,
88,,size_choice,,html-keyboard-response,88,217161,0.0-1.0-115.0,0,0,99,,815.0,,,51.0,28.0,28.0,1.0,1000.0,S-L,0.0,S,L,1.0,3.0,thread,cooler,thread8,cooler3,147.0,2.0,/static/Size_judgement/Stimuli/Size_stims/S/thread/thread10.jpg,/static/Size_judgement/Stimuli/Size_stims/L/cooler/cooler2.jpg,0.0,cooler,thread,L,S,3.0,1.0,cooler3,thread8,1.0,81.5,0.815,0.0,
89,,size_choice_confirmation,,html-keyboard-response,89,217848,0.0-1.0-116.0-0.0,0,0,99,,,,,,28.0,,1.0,,,,,,,,,,,,,,,,,,,,,,,,,,82.315,0.685,,
90,,iti,,html-keyboard-response,90,218851,0.0-1.0-117.0,0,0,99,,,,,,28.0,,1.0,,,,,,,,,,,,,,,,,,,,,,,,,,83.0,1.0,,
91,,size_choice,,html-keyboard-response,91,220050,0.0-1.0-119.0,0,0,99,,1198.0,,,51.0,29.0,29.0,1.0,500.0,S-S,,S,S,1.0,1.0,thread,teabag,thread6,teabag4,145.0,133.0,/static/Size_judgement/Stimuli/Size_stims/S/thread/thread2.jpg,/static/Size_judgement/Stimuli/Size_stims/S/teabag/teabag3.jpg,0.0,teabag,thread,S,S,1.0,1.0,teabag4,thread6,,84.0,1.198,0.0,
92,,size_choice_confirmation,,html-keyboard-response,92,220355,0.0-1.0-120.0-0.0,0,0,99,,,,,,29.0,,1.0,,,,,,,,,,,,,,,,,,,,,,,,,,85.198,0.302,,
93,,iti,,html-keyboard-response,93,220857,0.0-1.0-121.0,0,0,99,,,,,,29.0,,1.0,,,,,,,,,,,,,,,,,,,,,,,,,,85.5,0.5,,
94,,size_choice,,html-keyboard-response,94,221865,0.0-1.0-123.0,0,0,99,,1007.0,,,50.0,30.0,30.0,1.0,500.0,M-L,1.0,L,M,3.0,2.0,deskchair,coffeemaker,deskchair1,coffeemaker3,10.0,62.0,/static/Size_judgement/Stimuli/Size_stims/L/deskchair/deskchair9.jpg,/static/Size_judgement/Stimuli/Size_stims/M/coffeemaker/coffeemaker13.jpg,1.0,deskchair,coffeemaker,L,M,3.0,2.0,deskchair1,coffeemaker3,1.0,86.0,1.007,0.0,
95,,size_choice_confirmation,,html-keyboard-response,95,222361,0.0-1.0-124.0-0.0,0,0,99,,,,,,30.0,,1.0,,,,,,,,,,,,,,,,,,,,,,,,,,87.007,0.493,,
96,,iti,,html-keyboard-response,96,222862,0.0-1.0-125.0,0,0,99,,,,,,30.0,,1.0,,,,,,,,,,,,,,,,,,,,,,,,,,87.5,0.5,,
97,,size_choice,,html-keyboard-response,97,223988,0.0-1.0-127.0,0,0,99,,1124.0,,,50.0,31.0,31.0,1.0,2000.0,XL-XL,,XL,XL,4.0,4.0,van,car,van6,car4,195.0,153.0,/static/Size_judgement/Stimuli/Size_stims/XL/van/van2.jpg,/static/Size_judgement/Stimuli/Size_stims/XL/car/car6.jpg,1.0,van,car,XL,XL,4.0,4.0,van6,car4,,88.0,1.124,0.0,
98,,size_choice_confirmation,,html-keyboard-response,98,224366,0.0-1.0-128.0-0.0,0,0,99,,,,,,31.0,,1.0,,,,,,,,,,,,,,,,,,,,,,,,,,89.124,0.376,,
99,,iti,,html-keyboard-response,99,226371,0.0-1.0-129.0,0,0,99,,,,,,31.0,,1.0,,,,,,,,,,,,,,,,,,,,,,,,,,89.5,2.0,,
100,,size_choice,,html-keyboard-response,100,227153,0.0-1.0-131.0,0,0,99,,780.0,,,51.0,32.0,32.0,1.0,500.0,XL-XL,,XL,XL,4.0,4.0,car,van,car6,van4,155.0,193.0,/static/Size_judgement/Stimuli/Size_stims/XL/car/car12.jpg,/static/Size_judgement/Stimuli/Size_stims/XL/van/van7.jpg,0.0,van,car,XL,XL,4.0,4.0,van4,car6,,91.5,0.78,0.0,
101,,size_choice_confirmation,,html-keyboard-response,101,227875,0.0-1.0-132.0-0.0,0,0,99,,,,,,32.0,,1.0,,,,,,,,,,,,,,,,,,,,,,,,,,92.28,0.72,,
102,,iti,,html-keyboard-response,102,228377,0.0-1.0-133.0,0,0,99,,,,,,32.0,,1.0,,,,,,,,,,,,,,,,,,,,,,,,,,93.0,0.5,,
103,,size_choice,,html-keyboard-response,103,229416,0.0-1.0-135.0,0,0,99,,1038.0,,,50.0,33.0,33.0,1.0,1500.0,S-S,,S,S,1.0,1.0,screws,teabag,screws10,teabag9,129.0,138.0,/static/Size_judgement/Stimuli/Size_stims/S/screws/screws9.jpg,/static/Size_judgement/Stimuli/Size_stims/S/teabag/teabag5.jpg,1.0,screws,teabag,S,S,1.0,1.0,screws10,teabag9,,93.5,1.038,0.0,
104,,size_choice_confirmation,,html-keyboard-response,104,229881,0.0-1.0-136.0-0.0,0,0,99,,,,,,33.0,,1.0,,,,,,,,,,,,,,,,,,,,,,,,,,94.538,0.462,,
105,,iti,,html-keyboard-response,105,231385,0.0-1.0-137.0,0,0,99,,,,,,33.0,,1.0,,,,,,,,,,,,,,,,,,,,,,,,,,95.0,1.5,,
106,,size_choice,,html-keyboard-response,106,232158,0.0-1.0-139.0,0,0,99,,772.0,,,51.0,34.0,34.0,1.0,6000.0,M-L,0.0,M,L,2.0,3.0,ketchup,deskchair,ketchup4,deskchair9,93.0,18.0,/static/Size_judgement/Stimuli/Size_stims/M/ketchup/ketchup2.jpg,/static/Size_judgement/Stimuli/Size_stims/L/deskchair/deskchair3.jpg,0.0,deskchair,ketchup,L,M,3.0,2.0,deskchair9,ketchup4,1.0,96.5,0.772,0.0,
107,,size_choice_confirmation,,html-keyboard-response,107,232889,0.0-1.0-140.0-0.0,0,0,99,,,,,,34.0,,1.0,,,,,,,,,,,,,,,,,,,,,,,,,,97.272,0.728,,
108,,iti,,html-keyboard-response,108,238894,0.0-1.0-141.0,0,0,99,,,,,,34.0,,1.0,,,,,,,,,,,,,,,,,,,,,,,,,,98.0,6.0,,
109,,size_choice,,html-keyboard-response,109,239706,0.0-1.0-143.0,0,0,99,,810.0,,,50.0,35.0,35.0,1.0,500.0,S-L,1.0,L,S,3.0,1.0,mailbox,teabag,mailbox8,teabag6,47.0,135.0,/static/Size_judgement/Stimuli/Size_stims/L/mailbox/mailbox10.jpg,/static/Size_judgement/Stimuli/Size_stims/S/teabag/teabag6.jpg,1.0,mailbox,teabag,L,S,3.0,1.0,mailbox8,teabag6,1.0,104.0,0.81,0.0,
110,,size_choice_confirmation,,html-keyboard-response,110,240398,0.0-1.0-144.0-0.0,0,0,99,,,,,,35.0,,1.0,,,,,,,,,,,,,,,,,,,,,,,,,,104.81,0.69,,
111,,iti,,html-keyboard-response,111,240899,0.0-1.0-145.0,0,0,99,,,,,,35.0,,1.0,,,,,,,,,,,,,,,,,,,,,,,,,,105.5,0.5,,
112,,size_choice,,html-keyboard-response,112,241911,0.0-1.0-147.0,0,0,99,,1010.0,,,51.0,36.0,36.0,1.0,500.0,M-XL,0.0,M,XL,2.0,4.0,coffeemaker,crane,coffeemaker9,crane2,68.0,161.0,/static/Size_judgement/Stimuli/Size_stims/M/coffeemaker/coffeemaker7.jpg,/static/Size_judgement/Stimuli/Size_stims/XL/crane/crane6.jpg,0.0,crane,coffeemaker,XL,M,4.0,2.0,crane2,coffeemaker9,1.0,106.0,1.01,0.0,
113,,size_choice_confirmation,,html-keyboard-response,113,242405,0.0-1.0-148.0-0.0,0,0,99,,,,,,36.0,,1.0,,,,,,,,,,,,,,,,,,,,,,,,,,107.01,0.49,,
114,,iti,,html-keyboard-response,114,242907,0.0-1.0-149.0,0,0,99,,,,,,36.0,,1.0,,,,,,,,,,,,,,,,,,,,,,,,,,107.5,0.5,,
115,,size_choice,,html-keyboard-response,115,243807,0.0-1.0-151.0,0,0,99,,898.0,,,51.0,37.0,37.0,1.0,5000.0,S-M,0.0,S,M,1.0,2.0,screws,hairdryer,screws7,hairdryer1,126.0,70.0,/static/Size_judgement/Stimuli/Size_stims/S/screws/screws1.jpg,/static/Size_judgement/Stimuli/Size_stims/M/hairdryer/hairdryer11.jpg,0.0,hairdryer,screws,M,S,2.0,1.0,hairdryer1,screws7,1.0,108.0,0.898,0.0,
116,,size_choice_confirmation,,html-keyboard-response,116,244414,0.0-1.0-152.0-0.0,0,0,99,,,,,,37.0,,1.0,,,,,,,,,,,,,,,,,,,,,,,,,,108.898,0.602,,
117,,iti,,html-keyboard-response,117,249417,0.0-1.0-153.0,0,0,99,,,,,,37.0,,1.0,,,,,,,,,,,,,,,,,,,,,,,,,,109.5,5.0,,
118,,size_choice,,html-keyboard-response,118,250449,0.0-1.0-155.0,0,0,99,,1030.0,,,51.0,38.0,38.0,1.0,1500.0,M-M,,M,M,2.0,2.0,ketchup,handsaw,ketchup9,handsaw5,98.0,84.0,/static/Size_judgement/Stimuli/Size_stims/M/ketchup/ketchup7.jpg,/static/Size_judgement/Stimuli/Size_stims/M/handsaw/handsaw1.jpg,0.0,handsaw,ketchup,M,M,2.0,2.0,handsaw5,ketchup9,,114.5,1.03,0.0,
119,,size_choice_confirmation,,html-keyboard-response,119,250920,0.0-1.0-156.0-0.0,0,0,99,,,,,,38.0,,1.0,,,,,,,,,,,,,,,,,,,,,,,,,,115.53,0.47,,
120,,iti,,html-keyboard-response,120,252425,0.0-1.0-157.0,0,0,99,,,,,,38.0,,1.0,,,,,,,,,,,,,,,,,,,,,,,,,,116.0,1.5,,
121,,size_choice,,html-keyboard-response,121,253570,0.0-1.0-159.0,0,0,99,,1144.0,,,50.0,39.0,39.0,1.0,500.0,S-L,1.0,L,S,3.0,1.0,cooler,paperclip,cooler10,paperclip8,9.0,117.0,/static/Size_judgement/Stimuli/Size_stims/L/cooler/cooler6.jpg,/static/Size_judgement/Stimuli/Size_stims/S/paperclip/paperclip5.jpg,1.0,cooler,paperclip,L,S,3.0,1.0,cooler10,paperclip8,1.0,117.5,1.144,0.0,
122,,size_choice_confirmation,,html-keyboard-response,122,253929,0.0-1.0-160.0-0.0,0,0,99,,,,,,39.0,,1.0,,,,,,,,,,,,,,,,,,,,,,,,,,118.644,0.356,,
123,,iti,,html-keyboard-response,123,254430,0.0-1.0-161.0,0,0,99,,,,,,39.0,,1.0,,,,,,,,,,,,,,,,,,,,,,,,,,119.0,0.5,,
124,,size_choice,,html-keyboard-response,124,255231,0.0-1.0-163.0,0,0,99,,800.0,,,51.0,40.0,40.0,1.0,5500.0,M-L,0.0,M,L,2.0,3.0,coffeemaker,cooler,coffeemaker6,cooler1,65.0,0.0,/static/Size_judgement/Stimuli/Size_stims/M/coffeemaker/coffeemaker8.jpg,/static/Size_judgement/Stimuli/Size_stims/L/cooler/cooler8.jpg,0.0,cooler,coffeemaker,L,M,3.0,2.0,cooler1,coffeemaker6,1.0,119.5,0.8,0.0,
125,,size_choice_confirmation,,html-keyboard-response,125,255934,0.0-1.0-164.0-0.0,0,0,99,,,,,,40.0,,1.0,,,,,,,,,,,,,,,,,,,,,,,,,,120.3,0.7,,
126,,iti,,html-keyboard-response,126,261438,0.0-1.0-165.0,0,0,99,,,,,,40.0,,1.0,,,,,,,,,,,,,,,,,,,,,,,,,,121.0,5.5,,
127,,size_choice,,html-keyboard-response,127,262270,0.0-1.0-167.0,0,0,99,,830.0,,,51.0,41.0,41.0,1.0,3000.0,S-M,0.0,S,M,1.0,2.0,screws,handsaw,screws6,handsaw10,125.0,89.0,/static/Size_judgement/Stimuli/Size_stims/S/screws/screws3.jpg,/static/Size_judgement/Stimuli/Size_stims/M/handsaw/handsaw10.jpg,0.0,handsaw,screws,M,S,2.0,1.0,handsaw10,screws6,1.0,126.5,0.83,0.0,
128,,size_choice_confirmation,,html-keyboard-response,128,262942,0.0-1.0-168.0-0.0,0,0,99,,,,,,41.0,,1.0,,,,,,,,,,,,,,,,,,,,,,,,,,127.33,0.67,,
129,,iti,,html-keyboard-response,129,265945,0.0-1.0-169.0,0,0,99,,,,,,41.0,,1.0,,,,,,,,,,,,,,,,,,,,,,,,,,128.0,3.0,,
130,,size_choice,,html-keyboard-response,130,266772,0.0-1.0-171.0,0,0,99,,825.0,,,50.0,42.0,42.0,1.0,500.0,L-XL,1.0,XL,L,4.0,3.0,car,dishwasher,car10,dishwasher2,159.0,21.0,/static/Size_judgement/Stimuli/Size_stims/XL/car/car9.jpg,/static/Size_judgement/Stimuli/Size_stims/L/dishwasher/dishwasher9.jpg,1.0,car,dishwasher,XL,L,4.0,3.0,car10,dishwasher2,1.0,131.0,0.825,0.0,
131,,size_choice_confirmation,,html-keyboard-response,131,267449,0.0-1.0-172.0-0.0,0,0,99,,,,,,42.0,,1.0,,,,,,,,,,,,,,,,,,,,,,,,,,131.825,0.675,,
132,,iti,,html-keyboard-response,132,267950,0.0-1.0-173.0,0,0,99,,,,,,42.0,,1.0,,,,,,,,,,,,,,,,,,,,,,,,,,132.5,0.5,,
133,,size_choice,,html-keyboard-response,133,269454,0.0-1.0-175.0,0,0,99,,,,,,43.0,43.0,1.0,1000.0,S-XL,0.0,S,XL,1.0,4.0,thread,tractor,thread4,tractor1,143.0,180.0,/static/Size_judgement/Stimuli/Size_stims/S/thread/thread5.jpg,/static/Size_judgement/Stimuli/Size_stims/XL/tractor/tractor6.jpg,,,,,,,,,,,133.0,1.5,1.0,
134,,iti,,html-keyboard-response,134,270457,0.0-1.0-177.0,0,0,99,,,,,,43.0,,1.0,,,,,,,,,,,,,,,,,,,,,,,,,,134.5,1.0,,
135,,size_choice,,html-keyboard-response,135,271377,0.0-1.0-179.0,0,0,99,,919.0,,,51.0,44.0,44.0,1.0,2000.0,XL-XL,,XL,XL,4.0,4.0,van,tractor,van7,tractor10,196.0,189.0,/static/Size_judgement/Stimuli/Size_stims/XL/van/van1.jpg,/static/Size_judgement/Stimuli/Size_stims/XL/tractor/tractor8.jpg,0.0,tractor,van,XL,XL,4.0,4.0,tractor10,van7,,135.5,0.919,0.0,
136,,size_choice_confirmation,,html-keyboard-response,136,271961,0.0-1.0-180.0-0.0,0,0,99,,,,,,44.0,,1.0,,,,,,,,,,,,,,,,,,,,,,,,,,136.419,0.581,,
137,,iti,,html-keyboard-response,137,273966,0.0-1.0-181.0,0,0,99,,,,,,44.0,,1.0,,,,,,,,,,,,,,,,,,,,,,,,,,137.0,2.0,,
138,,size_choice,,html-keyboard-response,138,274789,0.0-1.0-183.0,0,0,99,,822.0,,,50.0,45.0,45.0,1.0,500.0,XL-XL,,XL,XL,4.0,4.0,crane,van,crane10,van8,169.0,197.0,/static/Size_judgement/Stimuli/Size_stims/XL/crane/crane9.jpg,/static/Size_judgement/Stimuli/Size_stims/XL/van/van10.jpg,1.0,crane,van,XL,XL,4.0,4.0,crane10,van8,,139.0,0.822,0.0,
139,,size_choice_confirmation,,html-keyboard-response,139,275470,0.0-1.0-184.0-0.0,0,0,99,,,,,,45.0,,1.0,,,,,,,,,,,,,,,,,,,,,,,,,,139.822,0.678,,
140,,iti,,html-keyboard-response,140,275971,0.0-1.0-185.0,0,0,99,,,,,,45.0,,1.0,,,,,,,,,,,,,,,,,,,,,,,,,,140.5,0.5,,
141,,size_choice,,html-keyboard-response,141,276737,0.0-1.0-187.0,0,0,99,,764.0,,,51.0,46.0,46.0,1.0,500.0,M-L,0.0,M,L,2.0,3.0,hairdryer,mailbox,hairdryer9,mailbox6,78.0,45.0,/static/Size_judgement/Stimuli/Size_stims/M/hairdryer/hairdryer5.jpg,/static/Size_judgement/Stimuli/Size_stims/L/mailbox/mailbox6.jpg,0.0,mailbox,hairdryer,L,M,3.0,2.0,mailbox6,hairdryer9,1.0,141.0,0.764,0.0,
142,,size_choice_confirmation,,html-keyboard-response,142,277475,0.0-1.0-188.0-0.0,0,0,99,,,,,,46.0,,1.0,,,,,,,,,,,,,,,,,,,,,,,,,,141.764,0.736,,
143,,iti,,html-keyboard-response,143,277977,0.0-1.0-189.0,0,0,99,,,,,,46.0,,1.0,,,,,,,,,,,,,,,,,,,,,,,,,,142.5,0.5,,
144,,size_choice,,html-keyboard-response,144,278574,0.0-1.0-191.0,0,0,99,,596.0,,,50.0,47.0,47.0,1.0,6000.0,S-XL,1.0,XL,S,4.0,1.0,dumptruck,die,dumptruck4,die1,173.0,100.0,/static/Size_judgement/Stimuli/Size_stims/XL/dumptruck/dumptruck1.jpg,/static/Size_judgement/Stimuli/Size_stims/S/die/die8.jpg,1.0,dumptruck,die,XL,S,4.0,1.0,dumptruck4,die1,1.0,143.0,0.596,0.0,
145,,size_choice_confirmation,,html-keyboard-response,145,279481,0.0-1.0-192.0-0.0,0,0,99,,,,,,47.0,,1.0,,,,,,,,,,,,,,,,,,,,,,,,,,143.596,0.904,,
146,,iti,,html-keyboard-response,146,285486,0.0-1.0-193.0,0,0,99,,,,,,47.0,,1.0,,,,,,,,,,,,,,,,,,,,,,,,,,144.5,6.0,,
147,,size_choice,,html-keyboard-response,147,286456,0.0-1.0-195.0,0,0,99,,970.0,,,51.0,48.0,48.0,1.0,2500.0,S-S,,S,S,1.0,1.0,paperclip,teabag,paperclip3,teabag2,112.0,131.0,/static/Size_judgement/Stimuli/Size_stims/S/paperclip/paperclip1.jpg,/static/Size_judgement/Stimuli/Size_stims/S/teabag/teabag8.jpg,0.0,teabag,paperclip,S,S,1.0,1.0,teabag2,paperclip3,,150.5,0.97,0.0,
148,,size_choice_confirmation,,html-keyboard-response,148,286989,0.0-1.0-196.0-0.0,0,0,99,,,,,,48.0,,1.0,,,,,,,,,,,,,,,,,,,,,,,,,,151.47,0.53,,
149,,iti,,html-keyboard-response,149,289491,0.0-1.0-197.0,0,0,99,,,,,,48.0,,1.0,,,,,,,,,,,,,,,,,,,,,,,,,,152.0,2.5,,
150,,size_choice,,html-keyboard-response,150,290147,0.0-1.0-199.0,0,0,99,,654.0,,,50.0,49.0,49.0,1.0,500.0,L-XL,1.0,XL,L,4.0,3.0,van,dishwasher,van9,dishwasher10,198.0,29.0,/static/Size_judgement/Stimuli/Size_stims/XL/van/van9.jpg,/static/Size_judgement/Stimuli/Size_stims/L/dishwasher/dishwasher1.jpg,1.0,van,dishwasher,XL,L,4.0,3.0,van9,dishwasher10,1.0,154.5,0.654,0.0,
151,,size_choice_confirmation,,html-keyboard-response,151,290995,0.0-1.0-200.0-0.0,0,0,99,,,,,,49.0,,1.0,,,,,,,,,,,,,,,,,,,,,,,,,,155.154,0.846,,
152,,iti,,html-keyboard-response,152,291496,0.0-1.0-201.0,0,0,99,,,,,,49.0,,1.0,,,,,,,,,,,,,,,,,,,,,,,,,,156.0,0.5,,
153,,size_choice,,html-keyboard-response,153,292874,0.0-1.0-203.0,0,0,99,,1376.0,,,51.0,50.0,50.0,1.0,1500.0,XL-XL,,XL,XL,4.0,4.0,car,dumptruck,car8,dumptruck8,157.0,177.0,/static/Size_judgement/Stimuli/Size_stims/XL/car/car14.jpg,/static/Size_judgement/Stimuli/Size_stims/XL/dumptruck/dumptruck7.jpg,0.0,dumptruck,car,XL,XL,4.0,4.0,dumptruck8,car8,,156.5,1.376,0.0,
154,,size_choice_confirmation,,html-keyboard-response,154,293000,0.0-1.0-204.0-0.0,0,0,99,,,,,,50.0,,1.0,,,,,,,,,,,,,,,,,,,,,,,,,,157.876,0.124,,
155,,iti,,html-keyboard-response,155,294504,0.0-1.0-205.0,0,0,99,,,,,,50.0,,1.0,,,,,,,,,,,,,,,,,,,,,,,,,,158.0,1.5,,
156,,size_choice,,html-keyboard-response,156,295519,0.0-1.0-207.0,0,0,99,,1013.0,,,50.0,51.0,51.0,1.0,1000.0,M-XL,1.0,XL,M,4.0,2.0,car,ketchup,car9,ketchup3,158.0,92.0,/static/Size_judgement/Stimuli/Size_stims/XL/car/car15.jpg,/static/Size_judgement/Stimuli/Size_stims/M/ketchup/ketchup10.jpg,1.0,car,ketchup,XL,M,4.0,2.0,car9,ketchup3,1.0,159.5,1.013,0.0,
157,,size_choice_confirmation,,html-keyboard-response,157,296008,0.0-1.0-208.0-0.0,0,0,99,,,,,,51.0,,1.0,,,,,,,,,,,,,,,,,,,,,,,,,,160.513,0.487,,
158,,iti,,html-keyboard-response,158,297011,0.0-1.0-209.0,0,0,99,,,,,,51.0,,1.0,,,,,,,,,,,,,,,,,,,,,,,,,,161.0,1.0,,
159,,size_choice,,html-keyboard-response,159,298515,0.0-1.0-211.0,0,0,99,,,,,,52.0,52.0,1.0,2500.0,M-XL,1.0,XL,M,4.0,2.0,crane,basketball,crane6,basketball5,165.0,54.0,/static/Size_judgement/Stimuli/Size_stims/XL/crane/crane2.jpg,/static/Size_judgement/Stimuli/Size_stims/M/basketball/basketball3.jpg,,,,,,,,,,,162.0,1.5,1.0,
160,,iti,,html-keyboard-response,160,301016,0.0-1.0-213.0,0,0,99,,,,,,52.0,,1.0,,,,,,,,,,,,,,,,,,,,,,,,,,163.5,2.5,,
161,,size_choice,,html-keyboard-response,161,302520,0.0-1.0-215.0,0,0,99,,,,,,53.0,53.0,1.0,2000.0,L-XL,1.0,XL,L,4.0,3.0,dumptruck,dishwasher,dumptruck10,dishwasher7,179.0,26.0,/static/Size_judgement/Stimuli/Size_stims/XL/dumptruck/dumptruck4.jpg,/static/Size_judgement/Stimuli/Size_stims/L/dishwasher/dishwasher7.jpg,,,,,,,,,,,166.0,1.5,1.0,
162,,iti,,html-keyboard-response,162,304526,0.0-1.0-217.0,0,0,99,,,,,,53.0,,1.0,,,,,,,,,,,,,,,,,,,,,,,,,,167.5,2.0,,
163,,size_choice,,html-keyboard-response,163,305231,0.0-1.0-219.0,0,0,99,,704.0,,,50.0,54.0,54.0,1.0,1000.0,S-XL,1.0,XL,S,4.0,1.0,crane,teabag,crane3,teabag5,162.0,134.0,/static/Size_judgement/Stimuli/Size_stims/XL/crane/crane4.jpg,/static/Size_judgement/Stimuli/Size_stims/S/teabag/teabag2.jpg,1.0,crane,teabag,XL,S,4.0,1.0,crane3,teabag5,1.0,169.5,0.704,0.0,
164,,size_choice_confirmation,,html-keyboard-response,164,306029,0.0-1.0-220.0-0.0,0,0,99,,,,,,54.0,,1.0,,,,,,,,,,,,,,,,,,,,,,,,,,170.204,0.796,,
165,,iti,,html-keyboard-response,165,307032,0.0-1.0-221.0,0,0,99,,,,,,54.0,,1.0,,,,,,,,,,,,,,,,,,,,,,,,,,171.0,1.0,,
166,,size_choice,,html-keyboard-response,166,307785,0.0-1.0-223.0,0,0,99,,750.0,,,51.0,55.0,55.0,1.0,1500.0,S-XL,0.0,S,XL,1.0,4.0,thread,crane,thread10,crane1,149.0,160.0,/static/Size_judgement/Stimuli/Size_stims/S/thread/thread9.jpg,/static/Size_judgement/Stimuli/Size_stims/XL/crane/crane7.jpg,0.0,crane,thread,XL,S,4.0,1.0,crane1,thread10,1.0,172.0,0.75,0.0,
167,,size_choice_confirmation,,html-keyboard-response,167,308536,0.0-1.0-224.0-0.0,0,0,99,,,,,,55.0,,1.0,,,,,,,,,,,,,,,,,,,,,,,,,,172.75,0.75,,
168,,iti,,html-keyboard-response,168,310040,0.0-1.0-225.0,0,0,99,,,,,,55.0,,1.0,,,,,,,,,,,,,,,,,,,,,,,,,,173.5,1.5,,
169,,size_choice,,html-keyboard-response,169,310742,0.0-1.0-227.0,0,0,99,,700.0,,,51.0,56.0,56.0,1.0,1000.0,M-XL,0.0,M,XL,2.0,4.0,basketball,dumptruck,basketball4,dumptruck9,53.0,178.0,/static/Size_judgement/Stimuli/Size_stims/M/basketball/basketball1.jpg,/static/Size_judgement/Stimuli/Size_stims/XL/dumptruck/dumptruck5.jpg,0.0,dumptruck,basketball,XL,M,4.0,2.0,dumptruck9,basketball4,1.0,175.0,0.7,0.0,
170,,size_choice_confirmation,,html-keyboard-response,170,311544,0.0-1.0-228.0-0.0,0,0,99,,,,,,56.0,,1.0,,,,,,,,,,,,,,,,,,,,,,,,,,175.7,0.8,,
171,,iti,,html-keyboard-response,171,312547,0.0-1.0-229.0,0,0,99,,,,,,56.0,,1.0,,,,,,,,,,,,,,,,,,,,,,,,,,176.5,1.0,,
172,,size_choice,,html-keyboard-response,172,313823,0.0-1.0-231.0,0,0,99,,1275.0,,,50.0,57.0,57.0,1.0,5000.0,S-XL,0.0,S,XL,1.0,4.0,thread,dumptruck,thread7,dumptruck7,146.0,176.0,/static/Size_judgement/Stimuli/Size_stims/S/thread/thread3.jpg,/static/Size_judgement/Stimuli/Size_stims/XL/dumptruck/dumptruck6.jpg,1.0,thread,dumptruck,S,XL,1.0,4.0,thread7,dumptruck7,0.0,177.5,1.275,0.0,
173,,size_choice_confirmation,,html-keyboard-response,173,314051,0.0-1.0-232.0-0.0,0,0,99,,,,,,57.0,,1.0,,,,,,,,,,,,,,,,,,,,,,,,,,178.775,0.225,,
174,,iti,,html-keyboard-response,174,319054,0.0-1.0-233.0,0,0,99,,,,,,57.0,,1.0,,,,,,,,,,,,,,,,,,,,,,,,,,179.0,5.0,,
175,,size_choice,,html-keyboard-response,175,320091,0.0-1.0-235.0,0,0,99,,1036.0,,,50.0,58.0,58.0,1.0,2000.0,S-L,1.0,L,S,3.0,1.0,garbagecan,die,garbagecan1,die5,30.0,104.0,/static/Size_judgement/Stimuli/Size_stims/L/garbagecan/garbagecan4.jpg,/static/Size_judgement/Stimuli/Size_stims/S/die/die3.jpg,1.0,garbagecan,die,L,S,3.0,1.0,garbagecan1,die5,1.0,184.0,1.036,0.0,
176,,size_choice_confirmation,,html-keyboard-response,176,320558,0.0-1.0-236.0-0.0,0,0,99,,,,,,58.0,,1.0,,,,,,,,,,,,,,,,,,,,,,,,,,185.036,0.464,,
177,,iti,,html-keyboard-response,177,322563,0.0-1.0-237.0,0,0,99,,,,,,58.0,,1.0,,,,,,,,,,,,,,,,,,,,,,,,,,185.5,2.0,,
178,,size_choice,,html-keyboard-response,178,323274,0.0-1.0-239.0,0,0,99,,710.0,,,50.0,59.0,59.0,1.0,1000.0,S-XL,1.0,XL,S,4.0,1.0,car,teabag,car5,teabag1,154.0,130.0,/static/Size_judgement/Stimuli/Size_stims/XL/car/car11.jpg,/static/Size_judgement/Stimuli/Size_stims/S/teabag/teabag9.jpg,1.0,car,teabag,XL,S,4.0,1.0,car5,teabag1,1.0,187.5,0.71,0.0,
179,,size_choice_confirmation,,html-keyboard-response,179,324067,0.0-1.0-240.0-0.0,0,0,99,,,,,,59.0,,1.0,,,,,,,,,,,,,,,,,,,,,,,,,,188.21,0.79,,
180,,iti,,html-keyboard-response,180,325070,0.0-1.0-241.0,0,0,99,,,,,,59.0,,1.0,,,,,,,,,,,,,,,,,,,,,,,,,,189.0,1.0,,
181,,size_choice,,html-keyboard-response,181,325809,0.0-1.0-243.0,0,0,99,,738.0,,,50.0,60.0,60.0,1.0,3500.0,M-L,1.0,L,M,3.0,2.0,cooler,basketball,cooler4,basketball6,3.0,55.0,/static/Size_judgement/Stimuli/Size_stims/L/cooler/cooler3.jpg,/static/Size_judgement/Stimuli/Size_stims/M/basketball/basketball2.jpg,1.0,cooler,basketball,L,M,3.0,2.0,cooler4,basketball6,1.0,190.0,0.738,0.0,
182,,size_choice_confirmation,,html-keyboard-response,182,326573,0.0-1.0-244.0-0.0,0,0,99,,,,,,60.0,,1.0,,,,,,,,,,,,,,,,,,,,,,,,,,190.738,0.762,,
183,,iti,,html-keyboard-response,183,330078,0.0-1.0-245.0,0,0,99,,,,,,60.0,,1.0,,,,,,,,,,,,,,,,,,,,,,,,,,191.5,3.5,,
184,,size_choice,,html-keyboard-response,184,330989,0.0-1.0-247.0,0,0,99,,910.0,,,51.0,61.0,61.0,1.0,3500.0,S-M,0.0,S,M,1.0,2.0,paperclip,hairdryer,paperclip1,hairdryer6,110.0,75.0,/static/Size_judgement/Stimuli/Size_stims/S/paperclip/paperclip9.jpg,/static/Size_judgement/Stimuli/Size_stims/M/hairdryer/hairdryer8.jpg,0.0,hairdryer,paperclip,M,S,2.0,1.0,hairdryer6,paperclip1,1.0,195.0,0.91,0.0,
185,,size_choice_confirmation,,html-keyboard-response,185,331582,0.0-1.0-248.0-0.0,0,0,99,,,,,,61.0,,1.0,,,,,,,,,,,,,,,,,,,,,,,,,,195.91,0.59,,
186,,iti,,html-keyboard-response,186,335085,0.0-1.0-249.0,0,0,99,,,,,,61.0,,1.0,,,,,,,,,,,,,,,,,,,,,,,,,,196.5,3.5,,
187,,size_choice,,html-keyboard-response,187,335771,0.0-1.0-251.0,0,0,99,,685.0,,,51.0,62.0,62.0,1.0,4000.0,M-XL,0.0,M,XL,2.0,4.0,coffeemaker,tractor,coffeemaker5,tractor9,64.0,188.0,/static/Size_judgement/Stimuli/Size_stims/M/coffeemaker/coffeemaker10.jpg,/static/Size_judgement/Stimuli/Size_stims/XL/tractor/tractor9.jpg,0.0,tractor,coffeemaker,XL,M,4.0,2.0,tractor9,coffeemaker5,1.0,200.0,0.685,0.0,
188,,size_choice_confirmation,,html-keyboard-response,188,336590,0.0-1.0-252.0-0.0,0,0,99,,,,,,62.0,,1.0,,,,,,,,,,,,,,,,,,,,,,,,,,200.685,0.815,,
189,,iti,,html-keyboard-response,189,340595,0.0-1.0-253.0,0,0,99,,,,,,62.0,,1.0,,,,,,,,,,,,,,,,,,,,,,,,,,201.5,4.0,,
190,,size_choice,,html-keyboard-response,190,341646,0.0-1.0-255.0,0,0,99,,1049.0,,,51.0,63.0,63.0,1.0,2500.0,M-L,0.0,M,L,2.0,3.0,handsaw,garbagecan,handsaw3,garbagecan2,82.0,31.0,/static/Size_judgement/Stimuli/Size_stims/M/handsaw/handsaw2.jpg,/static/Size_judgement/Stimuli/Size_stims/L/garbagecan/garbagecan5.jpg,0.0,garbagecan,handsaw,L,M,3.0,2.0,garbagecan2,handsaw3,1.0,205.5,1.049,0.0,
191,,size_choice_confirmation,,html-keyboard-response,191,342099,0.0-1.0-256.0-0.0,0,0,99,,,,,,63.0,,1.0,,,,,,,,,,,,,,,,,,,,,,,,,,206.549,0.451,,
192,,iti,,html-keyboard-response,192,344600,0.0-1.0-257.0,0,0,99,,,,,,63.0,,1.0,,,,,,,,,,,,,,,,,,,,,,,,,,207.0,2.5,,
193,,size_choice,,html-keyboard-response,193,345309,0.0-1.0-259.0,0,0,99,,706.0,,,50.0,64.0,64.0,1.0,1500.0,S-L,1.0,L,S,3.0,1.0,mailbox,paperclip,mailbox7,paperclip5,46.0,114.0,/static/Size_judgement/Stimuli/Size_stims/L/mailbox/mailbox7.jpg,/static/Size_judgement/Stimuli/Size_stims/S/paperclip/paperclip2.jpg,1.0,mailbox,paperclip,L,S,3.0,1.0,mailbox7,paperclip5,1.0,209.5,0.706,0.0,
194,,size_choice_confirmation,,html-keyboard-response,194,346104,0.0-1.0-260.0-0.0,0,0,99,,,,,,64.0,,1.0,,,,,,,,,,,,,,,,,,,,,,,,,,210.206,0.794,,
195,,iti,,html-keyboard-response,195,347608,0.0-1.0-261.0,0,0,99,,,,,,64.0,,1.0,,,,,,,,,,,,,,,,,,,,,,,,,,211.0,1.5,,
196,,size_choice,,html-keyboard-response,196,349007,0.0-1.0-263.0,0,0,99,,1398.0,,,51.0,65.0,65.0,1.0,1500.0,M-L,0.0,M,L,2.0,3.0,hairdryer,garbagecan,hairdryer7,garbagecan4,76.0,33.0,/static/Size_judgement/Stimuli/Size_stims/M/hairdryer/hairdryer3.jpg,/static/Size_judgement/Stimuli/Size_stims/L/garbagecan/garbagecan6.jpg,0.0,garbagecan,hairdryer,L,M,3.0,2.0,garbagecan4,hairdryer7,1.0,212.5,1.398,0.0,
197,,size_choice_confirmation,,html-keyboard-response,197,349112,0.0-1.0-264.0-0.0,0,0,99,,,,,,65.0,,1.0,,,,,,,,,,,,,,,,,,,,,,,,,,213.898,0.102,,
198,,iti,,html-keyboard-response,198,350616,0.0-1.0-265.0,0,0,99,,,,,,65.0,,1.0,,,,,,,,,,,,,,,,,,,,,,,,,,214.0,1.5,,
199,,size_choice,,html-keyboard-response,199,351359,0.0-1.0-267.0,0,0,99,,740.0,,,51.0,66.0,66.0,1.0,1000.0,S-XL,0.0,S,XL,1.0,4.0,thread,crane,thread5,crane8,144.0,167.0,/static/Size_judgement/Stimuli/Size_stims/S/thread/thread1.jpg,/static/Size_judgement/Stimuli/Size_stims/XL/crane/crane10.jpg,0.0,crane,thread,XL,S,4.0,1.0,crane8,thread5,1.0,215.5,0.74,0.0,
200,,size_choice_confirmation,,html-keyboard-response,200,352122,0.0-1.0-268.0-0.0,0,0,99,,,,,,66.0,,1.0,,,,,,,,,,,,,,,,,,,,,,,,,,216.24,0.76,,
201,,iti,,html-keyboard-response,201,353128,0.0-1.0-269.0,0,0,99,,,,,,66.0,,1.0,,,,,,,,,,,,,,,,,,,,,,,,,,217.0,1.0,,
202,,size_choice,,html-keyboard-response,202,354632,0.0-1.0-271.0,0,0,99,,,,,,67.0,67.0,1.0,2000.0,S-L,0.0,S,L,1.0,3.0,teabag,garbagecan,teabag8,garbagecan3,137.0,32.0,/static/Size_judgement/Stimuli/Size_stims/S/teabag/teabag7.jpg,/static/Size_judgement/Stimuli/Size_stims/L/garbagecan/garbagecan7.jpg,,,,,,,,,,,218.0,1.5,1.0,
203,,iti,,html-keyboard-response,203,356638,0.0-1.0-273.0,0,0,99,,,,,,67.0,,1.0,,,,,,,,,,,,,,,,,,,,,,,,,,219.5,2.0,,
204,,size_choice,,html-keyboard-response,204,357298,0.0-1.0-275.0,0,0,99,,658.0,,,50.0,68.0,68.0,1.0,2500.0,S-XL,1.0,XL,S,4.0,1.0,dumptruck,thread,dumptruck2,thread3,171.0,142.0,/static/Size_judgement/Stimuli/Size_stims/XL/dumptruck/dumptruck8.jpg,/static/Size_judgement/Stimuli/Size_stims/S/thread/thread4.jpg,1.0,dumptruck,thread,XL,S,4.0,1.0,dumptruck2,thread3,1.0,221.5,0.658,0.0,
205,,size_choice_confirmation,,html-keyboard-response,205,358142,0.0-1.0-276.0-0.0,0,0,99,,,,,,68.0,,1.0,,,,,,,,,,,,,,,,,,,,,,,,,,222.158,0.842,,
206,,iti,,html-keyboard-response,206,360643,0.0-1.0-277.0,0,0,99,,,,,,68.0,,1.0,,,,,,,,,,,,,,,,,,,,,,,,,,223.0,2.5,,
207,,size_choice,,html-keyboard-response,207,361322,0.0-1.0-279.0,0,0,99,,677.0,,,51.0,69.0,69.0,1.0,4000.0,S-XL,0.0,S,XL,1.0,4.0,paperclip,van,paperclip4,van3,113.0,192.0,/static/Size_judgement/Stimuli/Size_stims/S/paperclip/paperclip3.jpg,/static/Size_judgement/Stimuli/Size_stims/XL/van/van6.jpg,0.0,van,paperclip,XL,S,4.0,1.0,van3,paperclip4,1.0,225.5,0.677,0.0,
208,,size_choice_confirmation,,html-keyboard-response,208,362147,0.0-1.0-280.0-0.0,0,0,99,,,,,,69.0,,1.0,,,,,,,,,,,,,,,,,,,,,,,,,,226.177,0.823,,
209,,iti,,html-keyboard-response,209,366152,0.0-1.0-281.0,0,0,99,,,,,,69.0,,1.0,,,,,,,,,,,,,,,,,,,,,,,,,,227.0,4.0,,
210,,size_choice,,html-keyboard-response,210,366984,0.0-1.0-283.0,0,0,99,,830.0,,,50.0,70.0,70.0,1.0,2000.0,L-L,,L,L,3.0,3.0,dishwasher,mailbox,dishwasher9,mailbox1,28.0,40.0,/static/Size_judgement/Stimuli/Size_stims/L/dishwasher/dishwasher2.jpg,/static/Size_judgement/Stimuli/Size_stims/L/mailbox/mailbox3.jpg,1.0,dishwasher,mailbox,L,L,3.0,3.0,dishwasher9,mailbox1,,231.0,0.83,0.0,
211,,size_choice_confirmation,,html-keyboard-response,211,367656,0.0-1.0-284.0-0.0,0,0,99,,,,,,70.0,,1.0,,,,,,,,,,,,,,,,,,,,,,,,,,231.83,0.67,,
212,,iti,,html-keyboard-response,212,369662,0.0-1.0-285.0,0,0,99,,,,,,70.0,,1.0,,,,,,,,,,,,,,,,,,,,,,,,,,232.5,2.0,,
213,,size_choice,,html-keyboard-response,213,370739,0.0-1.0-287.0,0,0,99,,1076.0,,,50.0,71.0,71.0,1.0,4500.0,S-S,,S,S,1.0,1.0,die,paperclip,die8,paperclip9,107.0,118.0,/static/Size_judgement/Stimuli/Size_stims/S/die/die5.jpg,/static/Size_judgement/Stimuli/Size_stims/S/paperclip/paperclip4.jpg,1.0,die,paperclip,S,S,1.0,1.0,die8,paperclip9,,234.5,1.076,0.0,
214,,size_choice_confirmation,,html-keyboard-response,214,371165,0.0-1.0-288.0-0.0,0,0,99,,,,,,71.0,,1.0,,,,,,,,,,,,,,,,,,,,,,,,,,235.576,0.424,,
215,,iti,,html-keyboard-response,215,375667,0.0-1.0-289.0,0,0,99,,,,,,71.0,,1.0,,,,,,,,,,,,,,,,,,,,,,,,,,236.0,4.5,,
216,,size_choice,,html-keyboard-response,216,376339,0.0-1.0-291.0,0,0,99,,671.0,,,50.0,72.0,72.0,1.0,1000.0,M-XL,1.0,XL,M,4.0,2.0,tractor,ketchup,tractor8,ketchup1,187.0,90.0,/static/Size_judgement/Stimuli/Size_stims/XL/tractor/tractor10.jpg,/static/Size_judgement/Stimuli/Size_stims/M/ketchup/ketchup8.jpg,1.0,tractor,ketchup,XL,M,4.0,2.0,tractor8,ketchup1,1.0,240.5,0.671,0.0,
217,,size_choice_confirmation,,html-keyboard-response,217,377171,0.0-1.0-292.0-0.0,0,0,99,,,,,,72.0,,1.0,,,,,,,,,,,,,,,,,,,,,,,,,,241.171,0.829,,
218,,iti,,html-keyboard-response,218,378173,0.0-1.0-293.0,0,0,99,,,,,,72.0,,1.0,,,,,,,,,,,,,,,,,,,,,,,,,,242.0,1.0,,
219,,size_choice,,html-keyboard-response,219,378952,0.0-1.0-295.0,0,0,99,,778.0,,,50.0,73.0,73.0,1.0,2000.0,L-L,,L,L,3.0,3.0,deskchair,garbagecan,deskchair2,garbagecan5,11.0,34.0,/static/Size_judgement/Stimuli/Size_stims/L/deskchair/deskchair8.jpg,/static/Size_judgement/Stimuli/Size_stims/L/garbagecan/garbagecan3.jpg,1.0,deskchair,garbagecan,L,L,3.0,3.0,deskchair2,garbagecan5,,243.0,0.778,0.0,
220,,size_choice_confirmation,,html-keyboard-response,220,379678,0.0-1.0-296.0-0.0,0,0,99,,,,,,73.0,,1.0,,,,,,,,,,,,,,,,,,,,,,,,,,243.778,0.722,,
221,,iti,,html-keyboard-response,221,381683,0.0-1.0-297.0,0,0,99,,,,,,73.0,,1.0,,,,,,,,,,,,,,,,,,,,,,,,,,244.5,2.0,,
222,,size_choice,,html-keyboard-response,222,382724,0.0-1.0-299.0,0,0,99,,1040.0,,,51.0,74.0,74.0,1.0,2000.0,S-L,1.0,L,S,3.0,1.0,dishwasher,thread,dishwasher3,thread2,22.0,141.0,/static/Size_judgement/Stimuli/Size_stims/L/dishwasher/dishwasher8.jpg,/static/Size_judgement/Stimuli/Size_stims/S/thread/thread6.jpg,0.0,thread,dishwasher,S,L,1.0,3.0,thread2,dishwasher3,0.0,246.5,1.04,0.0,
223,,size_choice_confirmation,,html-keyboard-response,223,383187,0.0-1.0-300.0-0.0,0,0,99,,,,,,74.0,,1.0,,,,,,,,,,,,,,,,,,,,,,,,,,247.54,0.46,,
224,,iti,,html-keyboard-response,224,385192,0.0-1.0-301.0,0,0,99,,,,,,74.0,,1.0,,,,,,,,,,,,,,,,,,,,,,,,,,248.0,2.0,,
225,,size_choice,,html-keyboard-response,225,385953,0.0-1.0-303.0,0,0,99,,758.0,,,50.0,75.0,75.0,1.0,1000.0,S-L,1.0,L,S,3.0,1.0,dishwasher,teabag,dishwasher5,teabag7,24.0,136.0,/static/Size_judgement/Stimuli/Size_stims/L/dishwasher/dishwasher4.jpg,/static/Size_judgement/Stimuli/Size_stims/S/teabag/teabag10.jpg,1.0,dishwasher,teabag,L,S,3.0,1.0,dishwasher5,teabag7,1.0,250.0,0.758,0.0,
226,,size_choice_confirmation,,html-keyboard-response,226,386697,0.0-1.0-304.0-0.0,0,0,99,,,,,,75.0,,1.0,,,,,,,,,,,,,,,,,,,,,,,,,,250.758,0.742,,
227,,iti,,html-keyboard-response,227,387698,0.0-1.0-305.0,0,0,99,,,,,,75.0,,1.0,,,,,,,,,,,,,,,,,,,,,,,,,,251.5,1.0,,
228,,size_choice,,html-keyboard-response,228,388334,0.0-1.0-307.0,0,0,99,,634.0,,,50.0,76.0,76.0,1.0,4500.0,M-L,1.0,L,M,3.0,2.0,cooler,handsaw,cooler5,handsaw4,4.0,83.0,/static/Size_judgement/Stimuli/Size_stims/L/cooler/cooler10.jpg,/static/Size_judgement/Stimuli/Size_stims/M/handsaw/handsaw3.jpg,1.0,cooler,handsaw,L,M,3.0,2.0,cooler5,handsaw4,1.0,252.5,0.634,0.0,
229,,size_choice_confirmation,,html-keyboard-response,229,389203,0.0-1.0-308.0-0.0,0,0,99,,,,,,76.0,,1.0,,,,,,,,,,,,,,,,,,,,,,,,,,253.134,0.866,,
230,,iti,,html-keyboard-response,230,393706,0.0-1.0-309.0,0,0,99,,,,,,76.0,,1.0,,,,,,,,,,,,,,,,,,,,,,,,,,254.0,4.5,,
231,,size_choice,,html-keyboard-response,231,394492,0.0-1.0-311.0,0,0,99,,785.0,,,50.0,77.0,77.0,1.0,500.0,M-L,1.0,L,M,3.0,2.0,dishwasher,coffeemaker,dishwasher6,coffeemaker7,25.0,66.0,/static/Size_judgement/Stimuli/Size_stims/L/dishwasher/dishwasher6.jpg,/static/Size_judgement/Stimuli/Size_stims/M/coffeemaker/coffeemaker9.jpg,1.0,dishwasher,coffeemaker,L,M,3.0,2.0,dishwasher6,coffeemaker7,1.0,258.5,0.785,0.0,
232,,size_choice_confirmation,,html-keyboard-response,232,395209,0.0-1.0-312.0-0.0,0,0,99,,,,,,77.0,,1.0,,,,,,,,,,,,,,,,,,,,,,,,,,259.285,0.715,,
233,,iti,,html-keyboard-response,233,395711,0.0-1.0-313.0,0,0,99,,,,,,77.0,,1.0,,,,,,,,,,,,,,,,,,,,,,,,,,260.0,0.5,,
234,,size_choice,,html-keyboard-response,234,397216,0.0-1.0-315.0,0,0,99,,,,,,78.0,78.0,1.0,4000.0,S-M,1.0,M,S,2.0,1.0,handsaw,paperclip,handsaw6,paperclip10,85.0,119.0,/static/Size_judgement/Stimuli/Size_stims/M/handsaw/handsaw4.jpg,/static/Size_judgement/Stimuli/Size_stims/S/paperclip/paperclip10.jpg,,,,,,,,,,,260.5,1.5,1.0,
235,,iti,,html-keyboard-response,235,401219,0.0-1.0-317.0,0,0,99,,,,,,78.0,,1.0,,,,,,,,,,,,,,,,,,,,,,,,,,262.0,4.0,,
236,,size_choice,,html-keyboard-response,236,401926,0.0-1.0-319.0,0,0,99,,706.0,,,51.0,79.0,79.0,1.0,1000.0,M-L,0.0,M,L,2.0,3.0,hairdryer,deskchair,hairdryer8,deskchair5,77.0,14.0,/static/Size_judgement/Stimuli/Size_stims/M/hairdryer/hairdryer1.jpg,/static/Size_judgement/Stimuli/Size_stims/L/deskchair/deskchair7.jpg,0.0,deskchair,hairdryer,L,M,3.0,2.0,deskchair5,hairdryer8,1.0,266.0,0.706,0.0,
237,,size_choice_confirmation,,html-keyboard-response,237,402723,0.0-1.0-320.0-0.0,0,0,99,,,,,,79.0,,1.0,,,,,,,,,,,,,,,,,,,,,,,,,,266.706,0.794,,
238,,iti,,html-keyboard-response,238,403725,0.0-1.0-321.0,0,0,99,,,,,,79.0,,1.0,,,,,,,,,,,,,,,,,,,,,,,,,,267.5,1.0,,
239,,size_choice,,html-keyboard-response,239,404465,0.0-1.0-323.0,0,0,99,,738.0,,,51.0,80.0,80.0,1.0,500.0,M-M,,M,M,2.0,2.0,ketchup,hairdryer,ketchup5,hairdryer5,94.0,74.0,/static/Size_judgement/Stimuli/Size_stims/M/ketchup/ketchup3.jpg,/static/Size_judgement/Stimuli/Size_stims/M/hairdryer/hairdryer15.jpg,0.0,hairdryer,ketchup,M,M,2.0,2.0,hairdryer5,ketchup5,,268.5,0.738,0.0,
240,,size_choice_confirmation,,html-keyboard-response,240,405229,0.0-1.0-324.0-0.0,0,0,99,,,,,,80.0,,1.0,,,,,,,,,,,,,,,,,,,,,,,,,,269.238,0.762,,
241,,iti,,html-keyboard-response,241,405731,0.0-1.0-325.0,0,0,99,,,,,,80.0,,1.0,,,,,,,,,,,,,,,,,,,,,,,,,,270.0,0.5,,
242,,size_choice,,html-keyboard-response,242,406339,0.0-1.0-327.0,0,0,99,,607.0,,,50.0,81.0,81.0,1.0,1000.0,S-L,1.0,L,S,3.0,1.0,cooler,paperclip,cooler6,paperclip2,5.0,111.0,/static/Size_judgement/Stimuli/Size_stims/L/cooler/cooler1.jpg,/static/Size_judgement/Stimuli/Size_stims/S/paperclip/paperclip8.jpg,1.0,cooler,paperclip,L,S,3.0,1.0,cooler6,paperclip2,1.0,270.5,0.607,0.0,
243,,size_choice_confirmation,,html-keyboard-response,243,407235,0.0-1.0-328.0-0.0,0,0,99,,,,,,81.0,,1.0,,,,,,,,,,,,,,,,,,,,,,,,,,271.107,0.893,,
244,,iti,,html-keyboard-response,244,408237,0.0-1.0-329.0,0,0,99,,,,,,81.0,,1.0,,,,,,,,,,,,,,,,,,,,,,,,,,272.0,1.0,,
245,,size_choice,,html-keyboard-response,245,408823,0.0-1.0-331.0,0,0,99,,584.0,,,50.0,82.0,82.0,1.0,1000.0,M-XL,1.0,XL,M,4.0,2.0,car,hairdryer,car3,hairdryer4,152.0,73.0,/static/Size_judgement/Stimuli/Size_stims/XL/car/car4.jpg,/static/Size_judgement/Stimuli/Size_stims/M/hairdryer/hairdryer16.jpg,1.0,car,hairdryer,XL,M,4.0,2.0,car3,hairdryer4,1.0,273.0,0.584,0.0,
246,,size_choice_confirmation,,html-keyboard-response,246,409741,0.0-1.0-332.0-0.0,0,0,99,,,,,,82.0,,1.0,,,,,,,,,,,,,,,,,,,,,,,,,,273.584,0.916,,
247,,iti,,html-keyboard-response,247,410744,0.0-1.0-333.0,0,0,99,,,,,,82.0,,1.0,,,,,,,,,,,,,,,,,,,,,,,,,,274.5,1.0,,
248,,size_choice,,html-keyboard-response,248,411332,0.0-1.0-335.0,0,0,99,,586.0,,,51.0,83.0,83.0,1.0,500.0,M-M,,M,M,2.0,2.0,hairdryer,basketball,hairdryer3,basketball10,72.0,59.0,/static/Size_judgement/Stimuli/Size_stims/M/hairdryer/hairdryer17.jpg,/static/Size_judgement/Stimuli/Size_stims/M/basketball/basketball4.jpg,0.0,basketball,hairdryer,M,M,2.0,2.0,basketball10,hairdryer3,,275.5,0.586,0.0,
249,,size_choice_confirmation,,html-keyboard-response,249,412248,0.0-1.0-336.0-0.0,0,0,99,,,,,,83.0,,1.0,,,,,,,,,,,,,,,,,,,,,,,,,,276.086,0.914,,
250,,iti,,html-keyboard-response,250,412749,0.0-1.0-337.0,0,0,99,,,,,,83.0,,1.0,,,,,,,,,,,,,,,,,,,,,,,,,,277.0,0.5,,
251,,size_choice,,html-keyboard-response,251,413436,0.0-1.0-339.0,0,0,99,,685.0,,,51.0,84.0,84.0,1.0,5000.0,M-XL,0.0,M,XL,2.0,4.0,coffeemaker,crane,coffeemaker1,crane9,60.0,168.0,/static/Size_judgement/Stimuli/Size_stims/M/coffeemaker/coffeemaker14.jpg,/static/Size_judgement/Stimuli/Size_stims/XL/crane/crane8.jpg,0.0,crane,coffeemaker,XL,M,4.0,2.0,crane9,coffeemaker1,1.0,277.5,0.685,0.0,
252,,size_choice_confirmation,,html-keyboard-response,252,414253,0.0-1.0-340.0-0.0,0,0,99,,,,,,84.0,,1.0,,,,,,,,,,,,,,,,,,,,,,,,,,278.185,0.815,,
253,,iti,,html-keyboard-response,253,419256,0.0-1.0-341.0,0,0,99,,,,,,84.0,,1.0,,,,,,,,,,,,,,,,,,,,,,,,,,279.0,5.0,,
254,,size_choice,,html-keyboard-response,254,420164,0.0-1.0-343.0,0,0,99,,907.0,,,50.0,85.0,85.0,1.0,4500.0,M-M,,M,M,2.0,2.0,coffeemaker,handsaw,coffeemaker4,handsaw9,63.0,88.0,/static/Size_judgement/Stimuli/Size_stims/M/coffeemaker/coffeemaker11.jpg,/static/Size_judgement/Stimuli/Size_stims/M/handsaw/handsaw6.jpg,1.0,coffeemaker,handsaw,M,M,2.0,2.0,coffeemaker4,handsaw9,,284.0,0.907,0.0,
255,,size_choice_confirmation,,html-keyboard-response,255,420760,0.0-1.0-344.0-0.0,0,0,99,,,,,,85.0,,1.0,,,,,,,,,,,,,,,,,,,,,,,,,,284.907,0.593,,
256,,iti,,html-keyboard-response,256,425261,0.0-1.0-345.0,0,0,99,,,,,,85.0,,1.0,,,,,,,,,,,,,,,,,,,,,,,,,,285.5,4.5,,
257,,size_choice,,html-keyboard-response,257,425958,0.0-1.0-347.0,0,0,99,,694.0,,,50.0,86.0,86.0,1.0,1500.0,S-XL,1.0,XL,S,4.0,1.0,crane,screws,crane7,screws3,166.0,122.0,/static/Size_judgement/Stimuli/Size_stims/XL/crane/crane3.jpg,/static/Size_judgement/Stimuli/Size_stims/S/screws/screws7.jpg,1.0,crane,screws,XL,S,4.0,1.0,crane7,screws3,1.0,290.0,0.694,0.0,
258,,size_choice_confirmation,,html-keyboard-response,258,426765,0.0-1.0-348.0-0.0,0,0,99,,,,,,86.0,,1.0,,,,,,,,,,,,,,,,,,,,,,,,,,290.694,0.806,,
259,,iti,,html-keyboard-response,259,428269,0.0-1.0-349.0,0,0,99,,,,,,86.0,,1.0,,,,,,,,,,,,,,,,,,,,,,,,,,291.5,1.5,,
260,,size_choice,,html-keyboard-response,260,428905,0.0-1.0-351.0,0,0,99,,634.0,,,51.0,87.0,87.0,1.0,2000.0,S-XL,0.0,S,XL,1.0,4.0,die,tractor,die10,tractor3,109.0,182.0,/static/Size_judgement/Stimuli/Size_stims/S/die/die6.jpg,/static/Size_judgement/Stimuli/Size_stims/XL/tractor/tractor5.jpg,0.0,tractor,die,XL,S,4.0,1.0,tractor3,die10,1.0,293.0,0.634,0.0,
261,,size_choice_confirmation,,html-keyboard-response,261,429773,0.0-1.0-352.0-0.0,0,0,99,,,,,,87.0,,1.0,,,,,,,,,,,,,,,,,,,,,,,,,,293.634,0.866,,
262,,iti,,html-keyboard-response,262,431779,0.0-1.0-353.0,0,0,99,,,,,,87.0,,1.0,,,,,,,,,,,,,,,,,,,,,,,,,,294.5,2.0,,
263,,size_choice,,html-keyboard-response,263,432754,0.0-1.0-355.0,0,0,99,,974.0,,,51.0,88.0,88.0,1.0,1000.0,M-L,0.0,M,L,2.0,3.0,hairdryer,dishwasher,hairdryer10,dishwasher8,79.0,27.0,/static/Size_judgement/Stimuli/Size_stims/M/hairdryer/hairdryer6.jpg,/static/Size_judgement/Stimuli/Size_stims/L/dishwasher/dishwasher3.jpg,0.0,dishwasher,hairdryer,L,M,3.0,2.0,dishwasher8,hairdryer10,1.0,296.5,0.974,0.0,
264,,size_choice_confirmation,,html-keyboard-response,264,433283,0.0-1.0-356.0-0.0,0,0,99,,,,,,88.0,,1.0,,,,,,,,,,,,,,,,,,,,,,,,,,297.474,0.526,,
265,,iti,,html-keyboard-response,265,434285,0.0-1.0-357.0,0,0,99,,,,,,88.0,,1.0,,,,,,,,,,,,,,,,,,,,,,,,,,298.0,1.0,,
266,,size_choice,,html-keyboard-response,266,435789,0.0-1.0-359.0,0,0,99,,,,,,89.0,89.0,1.0,500.0,M-L,1.0,L,M,3.0,2.0,garbagecan,ketchup,garbagecan10,ketchup8,39.0,97.0,/static/Size_judgement/Stimuli/Size_stims/L/garbagecan/garbagecan11.jpg,/static/Size_judgement/Stimuli/Size_stims/M/ketchup/ketchup5.jpg,,,,,,,,,,,299.0,1.5,1.0,
267,,iti,,html-keyboard-response,267,436291,0.0-1.0-361.0,0,0,99,,,,,,89.0,,1.0,,,,,,,,,,,,,,,,,,,,,,,,,,300.5,0.5,,1.74
268,,size_final_tally,,html-keyboard-response,268,439148,0.0-2.0,0,0,99,,2854.0,,,50.0,,,,,,,,,,,,,,,,,,,,,,,,,,,,,,,,
269,,,,html-keyboard-response,269,557064,0.0-3.0,0,0,99,,117901.0,,,83.0,,,,,,,,,,,,,,,,,,,,,,,,,,,,,,,,
