,success,ttype,start_time,trial_type,trial_index,time_elapsed,internal_node_id,warning,missed_checkup,PID,view_history,rt,responses,repeat_instructions,key_press,index,trial_num,block,iti,pair_type,high_size_on_left,left_size_group,right_size_group,left_size_num,right_size_num,left_category,right_category,left_exemplar,right_exemplar,left_index,right_index,left_img_path,right_img_path,accuracy,no_resposne,onset,duration,left_chosen,chosen_category,unchosen_category,chosen_size_group,unchosen_size_group,chosen_size_num,unchosen_size_num,chosen_exemplar,unchosen_exemplar,no_response,size_final_tally
0,True,full_screen,d05272022hr1956,fullscreen,0,12525,0.0-0.0,0,0,1,,,,,,,,,,,,,,,,,,,,,,,,,,,,,,,,,,,,,,
1,,size_instructions,,instructions,1,21597,0.0-1.0-0.0-0.0,0,0,1,"[{""page_index"":0,""viewing_time"":1444},{""page_index"":1,""viewing_time"":194},{""page_index"":2,""viewing_time"":193},{""page_index"":3,""viewing_time"":789},{""page_index"":4,""viewing_time"":1897},{""page_index"":3,""viewing_time"":194},{""page_index"":2,""viewing_time"":1467},{""page_index"":3,""viewing_time"":215},{""page_index"":4,""viewing_time"":616},{""page_index"":5,""viewing_time"":2060}]",9069.0,,,,,,,,,,,,,,,,,,,,,,,,,,,,,,,,,,,,
2,,size_comprehension_check,,survey-multi-choice,2,27526,0.0-1.0-0.0-1.0,0,0,1,,5925.0,"{""Q0"":""True"",""Q1"":""Size in the real world"",""Q2"":""True"",""Q3"":""D for left and K for right""}",0.0,,,,,,,,,,,,,,,,,,,,,,,,,,,,,,,,,,
3,,,,html-keyboard-response,3,29064,0.0-1.0-1.0,0,0,1,,1535.0,,,68.0,,,,,,,,,,,,,,,,,,,,,,,,,,,,,,,,,
4,,size_choice,,html-keyboard-response,4,30571,0.0-1.0-2.0,0,0,1,,,,,,0.0,0.0,1.0,1500.0,S-M,1.0,M,S,2.0,1.0,hairdryer,paperclip,hairdryer8,paperclip1,77.0,110.0,/static/Size_judgement/Stimuli/Size_stims/M/hairdryer/hairdryer1.jpg,/static/Size_judgement/Stimuli/Size_stims/S/paperclip/paperclip9.jpg,,1.0,1.5,1.5,,,,,,,,,,,
5,,iti,,html-keyboard-response,5,32078,0.0-1.0-4.0,0,0,1,,,,,,,,,,,,,,,,,,,,,,,,,,3.0,1.5,,,,,,,,,,,
6,,size_choice,,html-keyboard-response,6,32499,0.0-1.0-6.0,0,0,1,,419.0,,,68.0,1.0,1.0,1.0,1000.0,S-XL,0.0,S,XL,1.0,4.0,die,van,die5,van5,104.0,194.0,/static/Size_judgement/Stimuli/Size_stims/S/die/die3.jpg,/static/Size_judgement/Stimuli/Size_stims/XL/van/van3.jpg,0.0,,3.419,0.419,1.0,die,van,S,XL,1.0,4.0,die5,van5,0.0,
7,,size_choice_confirmation,,html-keyboard-response,7,33588,0.0-1.0-7.0-0.0,0,0,1,,,,,,1.0,,,,,,,,,,,,,,,,,,,,4.5,1.081,,,,,,,,,,,
8,,iti,,html-keyboard-response,8,34589,0.0-1.0-8.0,0,0,1,,,,,,,,,,,,,,,,,,,,,,,,,,5.5,1.0,,,,,,,,,,,
9,,size_choice,,html-keyboard-response,9,35092,0.0-1.0-10.0,0,0,1,,502.0,,,68.0,2.0,2.0,1.0,1000.0,S-L,1.0,L,S,3.0,1.0,dishwasher,thread,dishwasher8,thread1,27.0,140.0,/static/Size_judgement/Stimuli/Size_stims/L/dishwasher/dishwasher3.jpg,/static/Size_judgement/Stimuli/Size_stims/S/thread/thread7.jpg,1.0,,6.002,0.502,1.0,dishwasher,thread,L,S,3.0,1.0,dishwasher8,thread1,0.0,
10,,size_choice_confirmation,,html-keyboard-response,10,36092,0.0-1.0-11.0-0.0,0,0,1,,,,,,2.0,,,,,,,,,,,,,,,,,,,,7.0,0.998,,,,,,,,,,,
11,,iti,,html-keyboard-response,11,37093,0.0-1.0-12.0,0,0,1,,,,,,,,,,,,,,,,,,,,,,,,,,8.0,1.0,,,,,,,,,,,
12,,size_choice,,html-keyboard-response,12,37460,0.0-1.0-14.0,0,0,1,,364.0,,,68.0,3.0,3.0,1.0,1500.0,M-XL,1.0,XL,M,4.0,2.0,van,basketball,van4,basketball9,193.0,58.0,/static/Size_judgement/Stimuli/Size_stims/XL/van/van7.jpg,/static/Size_judgement/Stimuli/Size_stims/M/basketball/basketball5.jpg,1.0,,8.364,0.364,1.0,van,basketball,XL,M,4.0,2.0,van4,basketball9,0.0,
13,,size_choice_confirmation,,html-keyboard-response,13,38602,0.0-1.0-15.0-0.0,0,0,1,,,,,,3.0,,,,,,,,,,,,,,,,,,,,9.5,1.136,,,,,,,,,,,
14,,iti,,html-keyboard-response,14,40104,0.0-1.0-16.0,0,0,1,,,,,,,,,,,,,,,,,,,,,,,,,,11.0,1.5,,,,,,,,,,,
15,,size_choice,,html-keyboard-response,15,40611,0.0-1.0-18.0,0,0,1,,505.0,,,68.0,4.0,4.0,1.0,1500.0,M-XL,1.0,XL,M,4.0,2.0,crane,handsaw,crane4,handsaw4,163.0,83.0,/static/Size_judgement/Stimuli/Size_stims/XL/crane/crane5.jpg,/static/Size_judgement/Stimuli/Size_stims/M/handsaw/handsaw3.jpg,1.0,,11.505,0.505,1.0,crane,handsaw,XL,M,4.0,2.0,crane4,handsaw4,0.0,
16,,size_choice_confirmation,,html-keyboard-response,16,41613,0.0-1.0-19.0-0.0,0,0,1,,,,,,4.0,,,,,,,,,,,,,,,,,,,,12.5,0.995,,,,,,,,,,,
17,,iti,,html-keyboard-response,17,43119,0.0-1.0-20.0,0,0,1,,,,,,,,,,,,,,,,,,,,,,,,,,14.0,1.5,,,,,,,,,,,
18,,size_choice,,html-keyboard-response,18,44622,0.0-1.0-22.0,0,0,1,,,,,,5.0,5.0,1.0,1000.0,M-L,1.0,L,M,3.0,2.0,deskchair,handsaw,deskchair9,handsaw9,18.0,88.0,/static/Size_judgement/Stimuli/Size_stims/L/deskchair/deskchair3.jpg,/static/Size_judgement/Stimuli/Size_stims/M/handsaw/handsaw6.jpg,,1.0,15.5,1.5,,,,,,,,,,,
19,,iti,,html-keyboard-response,19,45623,0.0-1.0-24.0,0,0,1,,,,,,,,,,,,,,,,,,,,,,,,,,16.5,1.0,,,,,,,,,,,
20,,size_choice,,html-keyboard-response,20,46139,0.0-1.0-26.0,0,0,1,,515.0,,,68.0,6.0,6.0,1.0,1500.0,M-L,0.0,M,L,2.0,3.0,coffeemaker,mailbox,coffeemaker7,mailbox7,66.0,46.0,/static/Size_judgement/Stimuli/Size_stims/M/coffeemaker/coffeemaker9.jpg,/static/Size_judgement/Stimuli/Size_stims/L/mailbox/mailbox7.jpg,0.0,,17.015,0.515,1.0,coffeemaker,mailbox,M,L,2.0,3.0,coffeemaker7,mailbox7,0.0,
21,,size_choice_confirmation,,html-keyboard-response,21,47129,0.0-1.0-27.0-0.0,0,0,1,,,,,,6.0,,,,,,,,,,,,,,,,,,,,18.0,0.985,,,,,,,,,,,
22,,iti,,html-keyboard-response,22,48634,0.0-1.0-28.0,0,0,1,,,,,,,,,,,,,,,,,,,,,,,,,,19.5,1.5,,,,,,,,,,,
23,,size_choice,,html-keyboard-response,23,49027,0.0-1.0-30.0,0,0,1,,392.0,,,68.0,7.0,7.0,1.0,1500.0,M-L,1.0,L,M,3.0,2.0,deskchair,ketchup,deskchair10,ketchup3,19.0,92.0,/static/Size_judgement/Stimuli/Size_stims/L/deskchair/deskchair2.jpg,/static/Size_judgement/Stimuli/Size_stims/M/ketchup/ketchup10.jpg,1.0,,19.892,0.392,1.0,deskchair,ketchup,L,M,3.0,2.0,deskchair10,ketchup3,0.0,
24,,size_choice_confirmation,,html-keyboard-response,24,50138,0.0-1.0-31.0-0.0,0,0,1,,,,,,7.0,,,,,,,,,,,,,,,,,,,,21.0,1.108,,,,,,,,,,,
25,,iti,,html-keyboard-response,25,51639,0.0-1.0-32.0,0,0,1,,,,,,,,,,,,,,,,,,,,,,,,,,22.5,1.5,,,,,,,,,,,
26,,size_choice,,html-keyboard-response,26,52017,0.0-1.0-34.0,0,0,1,,374.0,,,68.0,8.0,8.0,1.0,2000.0,S-L,1.0,L,S,3.0,1.0,cooler,paperclip,cooler8,paperclip3,7.0,112.0,/static/Size_judgement/Stimuli/Size_stims/L/cooler/cooler5.jpg,/static/Size_judgement/Stimuli/Size_stims/S/paperclip/paperclip1.jpg,1.0,,22.874,0.374,1.0,cooler,paperclip,L,S,3.0,1.0,cooler8,paperclip3,0.0,
27,,size_choice_confirmation,,html-keyboard-response,27,53146,0.0-1.0-35.0-0.0,0,0,1,,,,,,8.0,,,,,,,,,,,,,,,,,,,,24.0,1.126,,,,,,,,,,,
28,,iti,,html-keyboard-response,28,55151,0.0-1.0-36.0,0,0,1,,,,,,,,,,,,,,,,,,,,,,,,,,26.0,2.0,,,,,,,,,,,
29,,size_choice,,html-keyboard-response,29,55492,0.0-1.0-38.0,0,0,1,,339.0,,,68.0,9.0,9.0,1.0,1500.0,M-L,0.0,M,L,2.0,3.0,basketball,garbagecan,basketball10,garbagecan5,59.0,34.0,/static/Size_judgement/Stimuli/Size_stims/M/basketball/basketball4.jpg,/static/Size_judgement/Stimuli/Size_stims/L/garbagecan/garbagecan3.jpg,0.0,,26.339,0.339,1.0,basketball,garbagecan,M,L,2.0,3.0,basketball10,garbagecan5,0.0,
30,,size_choice_confirmation,,html-keyboard-response,30,56658,0.0-1.0-39.0-0.0,0,0,1,,,,,,9.0,,,,,,,,,,,,,,,,,,,,27.5,1.161,,,,,,,,,,,
31,,iti,,html-keyboard-response,31,58162,0.0-1.0-40.0,0,0,1,,,,,,,,,,,,,,,,,,,,,,,,,,29.0,1.5,,,,,,,,,,,
32,,size_choice,,html-keyboard-response,32,58468,0.0-1.0-42.0,0,0,1,,305.0,,,68.0,10.0,10.0,1.0,2000.0,S-L,1.0,L,S,3.0,1.0,dishwasher,teabag,dishwasher1,teabag5,20.0,134.0,/static/Size_judgement/Stimuli/Size_stims/L/dishwasher/dishwasher10.jpg,/static/Size_judgement/Stimuli/Size_stims/S/teabag/teabag2.jpg,1.0,,29.305,0.305,1.0,dishwasher,teabag,L,S,3.0,1.0,dishwasher1,teabag5,0.0,
33,,size_choice_confirmation,,html-keyboard-response,33,59670,0.0-1.0-43.0-0.0,0,0,1,,,,,,10.0,,,,,,,,,,,,,,,,,,,,30.5,1.195,,,,,,,,,,,
34,,iti,,html-keyboard-response,34,61671,0.0-1.0-44.0,0,0,1,,,,,,,,,,,,,,,,,,,,,,,,,,32.5,2.0,,,,,,,,,,,
35,,size_choice,,html-keyboard-response,35,62158,0.0-1.0-46.0,0,0,1,,485.0,,,68.0,11.0,11.0,1.0,1000.0,S-S,,S,S,1.0,1.0,thread,die,thread10,die4,149.0,103.0,/static/Size_judgement/Stimuli/Size_stims/S/thread/thread9.jpg,/static/Size_judgement/Stimuli/Size_stims/S/die/die2.jpg,,,32.985,0.485,1.0,thread,die,S,S,1.0,1.0,thread10,die4,0.0,
36,,size_choice_confirmation,,html-keyboard-response,36,63178,0.0-1.0-47.0-0.0,0,0,1,,,,,,11.0,,,,,,,,,,,,,,,,,,,,34.0,1.015,,,,,,,,,,,
37,,iti,,html-keyboard-response,37,64180,0.0-1.0-48.0,0,0,1,,,,,,,,,,,,,,,,,,,,,,,,,,35.0,1.0,,,,,,,,,,,
38,,size_choice,,html-keyboard-response,38,64555,0.0-1.0-50.0,0,0,1,,373.0,,,68.0,12.0,12.0,1.0,1000.0,S-XL,0.0,S,XL,1.0,4.0,teabag,crane,teabag6,crane6,135.0,165.0,/static/Size_judgement/Stimuli/Size_stims/S/teabag/teabag6.jpg,/static/Size_judgement/Stimuli/Size_stims/XL/crane/crane2.jpg,0.0,,35.373,0.373,1.0,teabag,crane,S,XL,1.0,4.0,teabag6,crane6,0.0,
39,,size_choice_confirmation,,html-keyboard-response,39,65685,0.0-1.0-51.0-0.0,0,0,1,,,,,,12.0,,,,,,,,,,,,,,,,,,,,36.5,1.127,,,,,,,,,,,
40,,iti,,html-keyboard-response,40,66688,0.0-1.0-52.0,0,0,1,,,,,,,,,,,,,,,,,,,,,,,,,,37.5,1.0,,,,,,,,,,,
41,,size_choice,,html-keyboard-response,41,67155,0.0-1.0-54.0,0,0,1,,464.0,,,68.0,13.0,13.0,1.0,1500.0,S-M,0.0,S,M,1.0,2.0,paperclip,ketchup,paperclip2,ketchup7,111.0,96.0,/static/Size_judgement/Stimuli/Size_stims/S/paperclip/paperclip8.jpg,/static/Size_judgement/Stimuli/Size_stims/M/ketchup/ketchup4.jpg,0.0,,37.964,0.464,1.0,paperclip,ketchup,S,M,1.0,2.0,paperclip2,ketchup7,0.0,
42,,size_choice_confirmation,,html-keyboard-response,42,68194,0.0-1.0-55.0-0.0,0,0,1,,,,,,13.0,,,,,,,,,,,,,,,,,,,,39.0,1.036,,,,,,,,,,,
43,,iti,,html-keyboard-response,43,69698,0.0-1.0-56.0,0,0,1,,,,,,,,,,,,,,,,,,,,,,,,,,40.5,1.5,,,,,,,,,,,
44,,size_choice,,html-keyboard-response,44,70554,0.0-1.0-58.0,0,0,1,,855.0,,,68.0,14.0,14.0,1.0,2000.0,S-L,0.0,S,L,1.0,3.0,thread,garbagecan,thread6,garbagecan8,145.0,37.0,/static/Size_judgement/Stimuli/Size_stims/S/thread/thread2.jpg,/static/Size_judgement/Stimuli/Size_stims/L/garbagecan/garbagecan13.jpg,0.0,,41.355,0.855,1.0,thread,garbagecan,S,L,1.0,3.0,thread6,garbagecan8,0.0,
45,,size_choice_confirmation,,html-keyboard-response,45,71205,0.0-1.0-59.0-0.0,0,0,1,,,,,,14.0,,,,,,,,,,,,,,,,,,,,42.0,0.645,,,,,,,,,,,
46,,iti,,html-keyboard-response,46,73206,0.0-1.0-60.0,0,0,1,,,,,,,,,,,,,,,,,,,,,,,,,,44.0,2.0,,,,,,,,,,,
47,,size_choice,,html-keyboard-response,47,73403,0.0-1.0-62.0,0,0,1,,196.0,,,68.0,15.0,15.0,1.0,1000.0,S-L,0.0,S,L,1.0,3.0,screws,dishwasher,screws4,dishwasher2,123.0,21.0,/static/Size_judgement/Stimuli/Size_stims/S/screws/screws6.jpg,/static/Size_judgement/Stimuli/Size_stims/L/dishwasher/dishwasher9.jpg,0.0,,44.196,0.196,1.0,screws,dishwasher,S,L,1.0,3.0,screws4,dishwasher2,0.0,
48,,size_choice_confirmation,,html-keyboard-response,48,74711,0.0-1.0-63.0-0.0,0,0,1,,,,,,15.0,,,,,,,,,,,,,,,,,,,,45.5,1.304,,,,,,,,,,,
49,,iti,,html-keyboard-response,49,75716,0.0-1.0-64.0,0,0,1,,,,,,,,,,,,,,,,,,,,,,,,,,46.5,1.0,,,,,,,,,,,
50,,size_choice,,html-keyboard-response,50,76171,0.0-1.0-66.0,0,0,1,,453.0,,,68.0,16.0,16.0,1.0,3000.0,XL-XL,,XL,XL,4.0,4.0,dumptruck,crane,dumptruck9,crane9,178.0,168.0,/static/Size_judgement/Stimuli/Size_stims/XL/dumptruck/dumptruck5.jpg,/static/Size_judgement/Stimuli/Size_stims/XL/crane/crane8.jpg,,,46.953,0.453,1.0,dumptruck,crane,XL,XL,4.0,4.0,dumptruck9,crane9,0.0,
51,,size_choice_confirmation,,html-keyboard-response,51,77220,0.0-1.0-67.0-0.0,0,0,1,,,,,,16.0,,,,,,,,,,,,,,,,,,,,48.0,1.047,,,,,,,,,,,
52,,iti,,html-keyboard-response,52,80221,0.0-1.0-68.0,0,0,1,,,,,,,,,,,,,,,,,,,,,,,,,,51.0,3.0,,,,,,,,,,,
53,,size_choice,,html-keyboard-response,53,80556,0.0-1.0-70.0,0,0,1,,333.0,,,75.0,17.0,17.0,1.0,1000.0,L-L,,L,L,3.0,3.0,deskchair,mailbox,deskchair2,mailbox5,11.0,44.0,/static/Size_judgement/Stimuli/Size_stims/L/deskchair/deskchair8.jpg,/static/Size_judgement/Stimuli/Size_stims/L/mailbox/mailbox4.jpg,,,51.333,0.333,0.0,mailbox,deskchair,L,L,3.0,3.0,mailbox5,deskchair2,0.0,
54,,size_choice_confirmation,,html-keyboard-response,54,81726,0.0-1.0-71.0-0.0,0,0,1,,,,,,17.0,,,,,,,,,,,,,,,,,,,,52.5,1.167,,,,,,,,,,,
55,,iti,,html-keyboard-response,55,82732,0.0-1.0-72.0,0,0,1,,,,,,,,,,,,,,,,,,,,,,,,,,53.5,1.0,,,,,,,,,,,
56,,size_choice,,html-keyboard-response,56,84236,0.0-1.0-74.0,0,0,1,,,,,,18.0,18.0,1.0,3000.0,M-XL,1.0,XL,M,4.0,2.0,van,coffeemaker,van2,coffeemaker8,191.0,67.0,/static/Size_judgement/Stimuli/Size_stims/XL/van/van4.jpg,/static/Size_judgement/Stimuli/Size_stims/M/coffeemaker/coffeemaker5.jpg,,1.0,55.0,1.5,,,,,,,,,,,
57,,iti,,html-keyboard-response,57,87242,0.0-1.0-76.0,0,0,1,,,,,,,,,,,,,,,,,,,,,,,,,,58.0,3.0,,,,,,,,,,,
58,,size_choice,,html-keyboard-response,58,87818,0.0-1.0-78.0,0,0,1,,574.0,,,75.0,19.0,19.0,1.0,1000.0,M-XL,1.0,XL,M,4.0,2.0,tractor,handsaw,tractor6,handsaw1,185.0,80.0,/static/Size_judgement/Stimuli/Size_stims/XL/tractor/tractor3.jpg,/static/Size_judgement/Stimuli/Size_stims/M/handsaw/handsaw8.jpg,0.0,,58.574,0.574,0.0,handsaw,tractor,M,XL,2.0,4.0,handsaw1,tractor6,0.0,
59,,size_choice_confirmation,,html-keyboard-response,59,88748,0.0-1.0-79.0-0.0,0,0,1,,,,,,19.0,,,,,,,,,,,,,,,,,,,,59.5,0.926,,,,,,,,,,,
60,,iti,,html-keyboard-response,60,89752,0.0-1.0-80.0,0,0,1,,,,,,,,,,,,,,,,,,,,,,,,,,60.5,1.0,,,,,,,,,,,
61,,size_choice,,html-keyboard-response,61,91259,0.0-1.0-82.0,0,0,1,,,,,,20.0,20.0,1.0,1000.0,M-XL,0.0,M,XL,2.0,4.0,hairdryer,van,hairdryer9,van1,78.0,190.0,/static/Size_judgement/Stimuli/Size_stims/M/hairdryer/hairdryer5.jpg,/static/Size_judgement/Stimuli/Size_stims/XL/van/van5.jpg,,1.0,62.0,1.5,,,,,,,,,,,
62,,iti,,html-keyboard-response,62,92265,0.0-1.0-84.0,0,0,1,,,,,,,,,,,,,,,,,,,,,,,,,,63.0,1.0,,,,,,,,,,,
63,,size_choice,,html-keyboard-response,63,92677,0.0-1.0-86.0,0,0,1,,411.0,,,75.0,21.0,21.0,1.0,1000.0,S-M,0.0,S,M,1.0,2.0,die,hairdryer,die6,hairdryer4,105.0,73.0,/static/Size_judgement/Stimuli/Size_stims/S/die/die1.jpg,/static/Size_judgement/Stimuli/Size_stims/M/hairdryer/hairdryer16.jpg,1.0,,63.411,0.411,0.0,hairdryer,die,M,S,2.0,1.0,hairdryer4,die6,0.0,
64,,size_choice_confirmation,,html-keyboard-response,64,93772,0.0-1.0-87.0-0.0,0,0,1,,,,,,21.0,,,,,,,,,,,,,,,,,,,,64.5,1.089,,,,,,,,,,,
65,,iti,,html-keyboard-response,65,94776,0.0-1.0-88.0,0,0,1,,,,,,,,,,,,,,,,,,,,,,,,,,65.5,1.0,,,,,,,,,,,
66,,size_choice,,html-keyboard-response,66,95298,0.0-1.0-90.0,0,0,1,,520.0,,,75.0,22.0,22.0,1.0,1000.0,S-L,1.0,L,S,3.0,1.0,mailbox,teabag,mailbox3,teabag8,42.0,137.0,/static/Size_judgement/Stimuli/Size_stims/L/mailbox/mailbox1.jpg,/static/Size_judgement/Stimuli/Size_stims/S/teabag/teabag7.jpg,0.0,,66.02,0.52,0.0,teabag,mailbox,S,L,1.0,3.0,teabag8,mailbox3,0.0,
67,,size_choice_confirmation,,html-keyboard-response,67,96279,0.0-1.0-91.0-0.0,0,0,1,,,,,,22.0,,,,,,,,,,,,,,,,,,,,67.0,0.98,,,,,,,,,,,
68,,iti,,html-keyboard-response,68,97281,0.0-1.0-92.0,0,0,1,,,,,,,,,,,,,,,,,,,,,,,,,,68.0,1.0,,,,,,,,,,,
69,,size_choice,,html-keyboard-response,69,97962,0.0-1.0-94.0,0,0,1,,679.0,,,75.0,23.0,23.0,1.0,1500.0,M-XL,1.0,XL,M,4.0,2.0,tractor,basketball,tractor4,basketball4,183.0,53.0,/static/Size_judgement/Stimuli/Size_stims/XL/tractor/tractor4.jpg,/static/Size_judgement/Stimuli/Size_stims/M/basketball/basketball1.jpg,0.0,,68.679,0.679,0.0,basketball,tractor,M,XL,2.0,4.0,basketball4,tractor4,0.0,
70,,size_choice_confirmation,,html-keyboard-response,70,98788,0.0-1.0-95.0-0.0,0,0,1,,,,,,23.0,,,,,,,,,,,,,,,,,,,,69.5,0.821,,,,,,,,,,,
71,,iti,,html-keyboard-response,71,100292,0.0-1.0-96.0,0,0,1,,,,,,,,,,,,,,,,,,,,,,,,,,71.0,1.5,,,,,,,,,,,
72,,size_choice,,html-keyboard-response,72,100794,0.0-1.0-98.0,0,0,1,,502.0,,,75.0,24.0,24.0,1.0,2000.0,S-XL,1.0,XL,S,4.0,1.0,dumptruck,die,dumptruck6,die8,175.0,107.0,/static/Size_judgement/Stimuli/Size_stims/XL/dumptruck/dumptruck2.jpg,/static/Size_judgement/Stimuli/Size_stims/S/die/die5.jpg,0.0,,71.502,0.502,0.0,die,dumptruck,S,XL,1.0,4.0,die8,dumptruck6,0.0,
73,,size_choice_confirmation,,html-keyboard-response,73,101798,0.0-1.0-99.0-0.0,0,0,1,,,,,,24.0,,,,,,,,,,,,,,,,,,,,72.5,0.998,,,,,,,,,,,
74,,iti,,html-keyboard-response,74,103800,0.0-1.0-100.0,0,0,1,,,,,,,,,,,,,,,,,,,,,,,,,,74.5,2.0,,,,,,,,,,,
75,,size_choice,,html-keyboard-response,75,104156,0.0-1.0-102.0,0,0,1,,355.0,,,75.0,25.0,25.0,1.0,1000.0,S-XL,1.0,XL,S,4.0,1.0,van,die,van10,die10,199.0,109.0,/static/Size_judgement/Stimuli/Size_stims/XL/van/van8.jpg,/static/Size_judgement/Stimuli/Size_stims/S/die/die6.jpg,0.0,,74.855,0.355,0.0,die,van,S,XL,1.0,4.0,die10,van10,0.0,
76,,size_choice_confirmation,,html-keyboard-response,76,105305,0.0-1.0-103.0-0.0,0,0,1,,,,,,25.0,,,,,,,,,,,,,,,,,,,,76.0,1.145,,,,,,,,,,,
77,,iti,,html-keyboard-response,77,106310,0.0-1.0-104.0,0,0,1,,,,,,,,,,,,,,,,,,,,,,,,,,77.0,1.0,,,,,,,,,,,
78,,size_choice,,html-keyboard-response,78,108092,0.0-1.0-106.0,0,0,1,,,,,,26.0,26.0,1.0,2000.0,M-M,,M,M,2.0,2.0,coffeemaker,hairdryer,coffeemaker5,hairdryer1,64.0,70.0,/static/Size_judgement/Stimuli/Size_stims/M/coffeemaker/coffeemaker10.jpg,/static/Size_judgement/Stimuli/Size_stims/M/hairdryer/hairdryer11.jpg,,1.0,78.5,1.5,,,,,,,,,,,
79,,iti,,html-keyboard-response,79,111069,0.0-1.0-108.0,0,0,1,,,,,,,,,,,,,,,,,,,,,,,,,,80.5,2.0,,,,,,,,,,,
80,,size_choice,,html-keyboard-response,80,113746,0.0-1.0-110.0,0,0,1,,,,,,27.0,27.0,1.0,3000.0,XL-XL,,XL,XL,4.0,4.0,car,dumptruck,car7,dumptruck2,156.0,171.0,/static/Size_judgement/Stimuli/Size_stims/XL/car/car13.jpg,/static/Size_judgement/Stimuli/Size_stims/XL/dumptruck/dumptruck8.jpg,,1.0,82.0,1.5,,,,,,,,,,,
81,,iti,,html-keyboard-response,81,117418,0.0-1.0-112.0,0,0,1,,,,,,,,,,,,,,,,,,,,,,,,,,85.0,3.0,,,,,,,,,,,
82,,size_choice,,html-keyboard-response,82,119069,0.0-1.0-114.0,0,0,1,,,,,,28.0,28.0,1.0,1000.0,M-L,1.0,L,M,3.0,2.0,mailbox,ketchup,mailbox2,ketchup6,41.0,95.0,/static/Size_judgement/Stimuli/Size_stims/L/mailbox/mailbox2.jpg,/static/Size_judgement/Stimuli/Size_stims/M/ketchup/ketchup1.jpg,,1.0,86.5,1.5,,,,,,,,,,,
83,,iti,,html-keyboard-response,83,121070,0.0-1.0-116.0,0,0,1,,,,,,,,,,,,,,,,,,,,,,,,,,87.5,1.0,,,,,,,,,,,
84,,size_choice,,html-keyboard-response,84,122571,0.0-1.0-118.0,0,0,1,,,,,,29.0,29.0,1.0,3500.0,L-XL,1.0,XL,L,4.0,3.0,van,cooler,van7,cooler5,196.0,4.0,/static/Size_judgement/Stimuli/Size_stims/XL/van/van1.jpg,/static/Size_judgement/Stimuli/Size_stims/L/cooler/cooler10.jpg,,1.0,89.0,1.5,,,,,,,,,,,
85,,iti,,html-keyboard-response,85,126074,0.0-1.0-120.0,0,0,1,,,,,,,,,,,,,,,,,,,,,,,,,,92.5,3.5,,,,,,,,,,,
86,,size_choice,,html-keyboard-response,86,126396,0.0-1.0-122.0,0,0,1,,320.0,,,68.0,30.0,30.0,1.0,1000.0,S-S,,S,S,1.0,1.0,paperclip,teabag,paperclip9,teabag2,118.0,131.0,/static/Size_judgement/Stimuli/Size_stims/S/paperclip/paperclip4.jpg,/static/Size_judgement/Stimuli/Size_stims/S/teabag/teabag8.jpg,,,92.82,0.32,1.0,paperclip,teabag,S,S,1.0,1.0,paperclip9,teabag2,0.0,
87,,size_choice_confirmation,,html-keyboard-response,87,127578,0.0-1.0-123.0-0.0,0,0,1,,,,,,30.0,,,,,,,,,,,,,,,,,,,,94.0,1.18,,,,,,,,,,,
88,,iti,,html-keyboard-response,88,128582,0.0-1.0-124.0,0,0,1,,,,,,,,,,,,,,,,,,,,,,,,,,95.0,1.0,,,,,,,,,,,
89,,size_choice,,html-keyboard-response,89,130088,0.0-1.0-126.0,0,0,1,,,,,,31.0,31.0,1.0,1500.0,S-S,,S,S,1.0,1.0,thread,screws,thread4,screws8,143.0,127.0,/static/Size_judgement/Stimuli/Size_stims/S/thread/thread5.jpg,/static/Size_judgement/Stimuli/Size_stims/S/screws/screws10.jpg,,1.0,96.5,1.5,,,,,,,,,,,
90,,iti,,html-keyboard-response,90,131594,0.0-1.0-128.0,0,0,1,,,,,,,,,,,,,,,,,,,,,,,,,,98.0,1.5,,,,,,,,,,,
91,,size_choice,,html-keyboard-response,91,132403,0.0-1.0-130.0,0,0,1,,807.0,,,68.0,32.0,32.0,1.0,2000.0,S-XL,0.0,S,XL,1.0,4.0,die,crane,die7,crane8,106.0,167.0,/static/Size_judgement/Stimuli/Size_stims/S/die/die4.jpg,/static/Size_judgement/Stimuli/Size_stims/XL/crane/crane10.jpg,0.0,,98.807,0.807,1.0,die,crane,S,XL,1.0,4.0,die7,crane8,0.0,
92,,size_choice_confirmation,,html-keyboard-response,92,133099,0.0-1.0-131.0-0.0,0,0,1,,,,,,32.0,,,,,,,,,,,,,,,,,,,,99.5,0.693,,,,,,,,,,,
93,,iti,,html-keyboard-response,93,135102,0.0-1.0-132.0,0,0,1,,,,,,,,,,,,,,,,,,,,,,,,,,101.5,2.0,,,,,,,,,,,
94,,size_choice,,html-keyboard-response,94,136148,0.0-1.0-134.0,0,0,1,,1044.0,,,68.0,33.0,33.0,1.0,1000.0,M-M,,M,M,2.0,2.0,hairdryer,handsaw,hairdryer3,handsaw3,72.0,82.0,/static/Size_judgement/Stimuli/Size_stims/M/hairdryer/hairdryer17.jpg,/static/Size_judgement/Stimuli/Size_stims/M/handsaw/handsaw2.jpg,,,102.544,1.044,1.0,hairdryer,handsaw,M,M,2.0,2.0,hairdryer3,handsaw3,0.0,
95,,size_choice_confirmation,,html-keyboard-response,95,136610,0.0-1.0-135.0-0.0,0,0,1,,,,,,33.0,,,,,,,,,,,,,,,,,,,,103.0,0.456,,,,,,,,,,,
96,,iti,,html-keyboard-response,96,137613,0.0-1.0-136.0,0,0,1,,,,,,,,,,,,,,,,,,,,,,,,,,104.0,1.0,,,,,,,,,,,
97,,size_choice,,html-keyboard-response,97,138747,0.0-1.0-138.0,0,0,1,,1131.0,,,68.0,34.0,34.0,1.0,1500.0,L-L,,L,L,3.0,3.0,garbagecan,cooler,garbagecan9,cooler1,38.0,0.0,/static/Size_judgement/Stimuli/Size_stims/L/garbagecan/garbagecan12.jpg,/static/Size_judgement/Stimuli/Size_stims/L/cooler/cooler8.jpg,,,105.131,1.131,1.0,garbagecan,cooler,L,L,3.0,3.0,garbagecan9,cooler1,0.0,
98,,size_choice_confirmation,,html-keyboard-response,98,139118,0.0-1.0-139.0-0.0,0,0,1,,,,,,34.0,,,,,,,,,,,,,,,,,,,,105.5,0.369,,,,,,,,,,,
99,,iti,,html-keyboard-response,99,140621,0.0-1.0-140.0,0,0,1,,,,,,,,,,,,,,,,,,,,,,,,,,107.0,1.5,,,,,,,,,,,
100,,size_choice,,html-keyboard-response,100,140733,0.0-1.0-142.0,0,0,1,,110.0,,,68.0,35.0,35.0,1.0,2000.0,S-L,1.0,L,S,3.0,1.0,cooler,teabag,cooler9,teabag1,8.0,130.0,/static/Size_judgement/Stimuli/Size_stims/L/cooler/cooler7.jpg,/static/Size_judgement/Stimuli/Size_stims/S/teabag/teabag9.jpg,1.0,,107.11,0.11,1.0,cooler,teabag,L,S,3.0,1.0,cooler9,teabag1,0.0,
101,,size_choice_confirmation,,html-keyboard-response,101,142125,0.0-1.0-143.0-0.0,0,0,1,,,,,,35.0,,,,,,,,,,,,,,,,,,,,108.5,1.39,,,,,,,,,,,
102,,iti,,html-keyboard-response,102,144129,0.0-1.0-144.0,0,0,1,,,,,,,,,,,,,,,,,,,,,,,,,,110.5,2.0,,,,,,,,,,,
103,,size_choice,,html-keyboard-response,103,144358,0.0-1.0-146.0,0,0,1,,227.0,,,68.0,36.0,36.0,1.0,3500.0,M-L,1.0,L,M,3.0,2.0,garbagecan,ketchup,garbagecan3,ketchup5,32.0,94.0,/static/Size_judgement/Stimuli/Size_stims/L/garbagecan/garbagecan7.jpg,/static/Size_judgement/Stimuli/Size_stims/M/ketchup/ketchup3.jpg,1.0,,110.727,0.227,1.0,garbagecan,ketchup,L,M,3.0,2.0,garbagecan3,ketchup5,0.0,
104,,size_choice_confirmation,,html-keyboard-response,104,145638,0.0-1.0-147.0-0.0,0,0,1,,,,,,36.0,,,,,,,,,,,,,,,,,,,,112.0,1.273,,,,,,,,,,,
105,,iti,,html-keyboard-response,105,149142,0.0-1.0-148.0,0,0,1,,,,,,,,,,,,,,,,,,,,,,,,,,115.5,3.5,,,,,,,,,,,
106,,size_choice,,html-keyboard-response,106,149852,0.0-1.0-150.0,0,0,1,,708.0,,,68.0,37.0,37.0,1.0,1500.0,M-L,1.0,L,M,3.0,2.0,mailbox,ketchup,mailbox6,ketchup4,45.0,93.0,/static/Size_judgement/Stimuli/Size_stims/L/mailbox/mailbox6.jpg,/static/Size_judgement/Stimuli/Size_stims/M/ketchup/ketchup2.jpg,1.0,,116.208,0.708,1.0,mailbox,ketchup,L,M,3.0,2.0,mailbox6,ketchup4,0.0,
107,,size_choice_confirmation,,html-keyboard-response,107,150647,0.0-1.0-151.0-0.0,0,0,1,,,,,,37.0,,,,,,,,,,,,,,,,,,,,117.0,0.792,,,,,,,,,,,
108,,iti,,html-keyboard-response,108,152153,0.0-1.0-152.0,0,0,1,,,,,,,,,,,,,,,,,,,,,,,,,,118.5,1.5,,,,,,,,,,,
109,,size_choice,,html-keyboard-response,109,152541,0.0-1.0-154.0,0,0,1,,387.0,,,68.0,38.0,38.0,1.0,1000.0,L-L,,L,L,3.0,3.0,mailbox,garbagecan,mailbox8,garbagecan4,47.0,33.0,/static/Size_judgement/Stimuli/Size_stims/L/mailbox/mailbox10.jpg,/static/Size_judgement/Stimuli/Size_stims/L/garbagecan/garbagecan6.jpg,,,118.887,0.387,1.0,mailbox,garbagecan,L,L,3.0,3.0,mailbox8,garbagecan4,0.0,
110,,size_choice_confirmation,,html-keyboard-response,110,153656,0.0-1.0-155.0-0.0,0,0,1,,,,,,38.0,,,,,,,,,,,,,,,,,,,,120.0,1.113,,,,,,,,,,,
111,,iti,,html-keyboard-response,111,154658,0.0-1.0-156.0,0,0,1,,,,,,,,,,,,,,,,,,,,,,,,,,121.0,1.0,,,,,,,,,,,
112,,size_choice,,html-keyboard-response,112,155013,0.0-1.0-158.0,0,0,1,,354.0,,,68.0,39.0,39.0,1.0,1000.0,M-M,,M,M,2.0,2.0,basketball,hairdryer,basketball6,hairdryer7,55.0,76.0,/static/Size_judgement/Stimuli/Size_stims/M/basketball/basketball2.jpg,/static/Size_judgement/Stimuli/Size_stims/M/hairdryer/hairdryer3.jpg,,,121.354,0.354,1.0,basketball,hairdryer,M,M,2.0,2.0,basketball6,hairdryer7,0.0,
113,,size_choice_confirmation,,html-keyboard-response,113,156163,0.0-1.0-159.0-0.0,0,0,1,,,,,,39.0,,,,,,,,,,,,,,,,,,,,122.5,1.146,,,,,,,,,,,
114,,iti,,html-keyboard-response,114,157168,0.0-1.0-160.0,0,0,1,,,,,,,,,,,,,,,,,,,,,,,,,,123.5,1.0,,,,,,,,,,,
115,,size_choice,,html-keyboard-response,115,157390,0.0-1.0-162.0,0,0,1,,219.0,,,68.0,40.0,40.0,1.0,3000.0,S-XL,1.0,XL,S,4.0,1.0,crane,thread,crane7,thread5,166.0,144.0,/static/Size_judgement/Stimuli/Size_stims/XL/crane/crane3.jpg,/static/Size_judgement/Stimuli/Size_stims/S/thread/thread1.jpg,1.0,,123.719,0.219,1.0,crane,thread,XL,S,4.0,1.0,crane7,thread5,0.0,
116,,size_choice_confirmation,,html-keyboard-response,116,158677,0.0-1.0-163.0-0.0,0,0,1,,,,,,40.0,,,,,,,,,,,,,,,,,,,,125.0,1.281,,,,,,,,,,,
117,,iti,,html-keyboard-response,117,161679,0.0-1.0-164.0,0,0,1,,,,,,,,,,,,,,,,,,,,,,,,,,128.0,3.0,,,,,,,,,,,
118,,size_choice,,html-keyboard-response,118,162091,0.0-1.0-166.0,0,0,1,,411.0,,,68.0,41.0,41.0,1.0,1000.0,S-XL,0.0,S,XL,1.0,4.0,teabag,tractor,teabag7,tractor7,136.0,186.0,/static/Size_judgement/Stimuli/Size_stims/S/teabag/teabag10.jpg,/static/Size_judgement/Stimuli/Size_stims/XL/tractor/tractor2.jpg,0.0,,128.411,0.411,1.0,teabag,tractor,S,XL,1.0,4.0,teabag7,tractor7,0.0,
119,,size_choice_confirmation,,html-keyboard-response,119,163185,0.0-1.0-167.0-0.0,0,0,1,,,,,,41.0,,,,,,,,,,,,,,,,,,,,129.5,1.089,,,,,,,,,,,
120,,iti,,html-keyboard-response,120,164188,0.0-1.0-168.0,0,0,1,,,,,,,,,,,,,,,,,,,,,,,,,,130.5,1.0,,,,,,,,,,,
121,,size_choice,,html-keyboard-response,121,165690,0.0-1.0-170.0,0,0,1,,,,,,42.0,42.0,1.0,1500.0,L-XL,0.0,L,XL,3.0,4.0,garbagecan,car,garbagecan10,car6,39.0,155.0,/static/Size_judgement/Stimuli/Size_stims/L/garbagecan/garbagecan11.jpg,/static/Size_judgement/Stimuli/Size_stims/XL/car/car12.jpg,,1.0,132.0,1.5,,,,,,,,,,,
122,,iti,,html-keyboard-response,122,167192,0.0-1.0-172.0,0,0,1,,,,,,,,,,,,,,,,,,,,,,,,,,133.5,1.5,,,,,,,,,,,
123,,size_choice,,html-keyboard-response,123,167760,0.0-1.0-174.0,0,0,1,,566.0,,,68.0,43.0,43.0,1.0,3500.0,M-XL,1.0,XL,M,4.0,2.0,car,coffeemaker,car4,coffeemaker9,153.0,68.0,/static/Size_judgement/Stimuli/Size_stims/XL/car/car6.jpg,/static/Size_judgement/Stimuli/Size_stims/M/coffeemaker/coffeemaker7.jpg,1.0,,134.066,0.566,1.0,car,coffeemaker,XL,M,4.0,2.0,car4,coffeemaker9,0.0,
124,,size_choice_confirmation,,html-keyboard-response,124,168701,0.0-1.0-175.0-0.0,0,0,1,,,,,,43.0,,,,,,,,,,,,,,,,,,,,135.0,0.934,,,,,,,,,,,
125,,iti,,html-keyboard-response,125,172205,0.0-1.0-176.0,0,0,1,,,,,,,,,,,,,,,,,,,,,,,,,,138.5,3.5,,,,,,,,,,,
126,,size_choice,,html-keyboard-response,126,172797,0.0-1.0-178.0,0,0,1,,589.0,,,68.0,44.0,44.0,1.0,2000.0,L-XL,0.0,L,XL,3.0,4.0,cooler,car,cooler4,car5,3.0,154.0,/static/Size_judgement/Stimuli/Size_stims/L/cooler/cooler3.jpg,/static/Size_judgement/Stimuli/Size_stims/XL/car/car11.jpg,0.0,,139.089,0.589,1.0,cooler,car,L,XL,3.0,4.0,cooler4,car5,0.0,
127,,size_choice_confirmation,,html-keyboard-response,127,173712,0.0-1.0-179.0-0.0,0,0,1,,,,,,44.0,,,,,,,,,,,,,,,,,,,,140.0,0.911,,,,,,,,,,,
128,,iti,,html-keyboard-response,128,175717,0.0-1.0-180.0,0,0,1,,,,,,,,,,,,,,,,,,,,,,,,,,142.0,2.0,,,,,,,,,,,
129,,block_over,,html-keyboard-response,129,176748,0.0-1.0-181.0-0.0,0,0,1,,1003.0,,,68.0,44.0,,,,,,,,,,,,,,,,,,,,,,,,,,,,,,,,
130,,size_choice,,html-keyboard-response,130,177771,0.0-1.0-182.0,0,0,1,,1021.0,,,68.0,45.0,45.0,2.0,3500.0,S-M,0.0,S,M,1.0,2.0,screws,handsaw,screws5,handsaw6,124.0,85.0,/static/Size_judgement/Stimuli/Size_stims/S/screws/screws2.jpg,/static/Size_judgement/Stimuli/Size_stims/M/handsaw/handsaw4.jpg,0.0,,143.021,1.021,1.0,screws,handsaw,S,M,1.0,2.0,screws5,handsaw6,0.0,
131,,size_choice_confirmation,,html-keyboard-response,131,178255,0.0-1.0-183.0-0.0,0,0,1,,,,,,45.0,,,,,,,,,,,,,,,,,,,,143.5,0.479,,,,,,,,,,,
132,,iti,,html-keyboard-response,132,181761,0.0-1.0-184.0,0,0,1,,,,,,,,,,,,,,,,,,,,,,,,,,147.0,3.5,,,,,,,,,,,
133,,size_choice,,html-keyboard-response,133,183264,0.0-1.0-186.0,0,0,1,,,,,,46.0,46.0,2.0,1000.0,S-S,,S,S,1.0,1.0,screws,paperclip,screws9,paperclip6,128.0,115.0,/static/Size_judgement/Stimuli/Size_stims/S/screws/screws8.jpg,/static/Size_judgement/Stimuli/Size_stims/S/paperclip/paperclip6.jpg,,1.0,148.5,1.5,,,,,,,,,,,
134,,iti,,html-keyboard-response,134,184269,0.0-1.0-188.0,0,0,1,,,,,,,,,,,,,,,,,,,,,,,,,,149.5,1.0,,,,,,,,,,,
135,,size_choice,,html-keyboard-response,135,185210,0.0-1.0-190.0,0,0,1,,941.0,,,68.0,47.0,47.0,2.0,2000.0,M-XL,1.0,XL,M,4.0,2.0,crane,basketball,crane5,basketball5,164.0,54.0,/static/Size_judgement/Stimuli/Size_stims/XL/crane/crane1.jpg,/static/Size_judgement/Stimuli/Size_stims/M/basketball/basketball3.jpg,1.0,,150.441,0.941,1.0,crane,basketball,XL,M,4.0,2.0,crane5,basketball5,0.0,
136,,size_choice_confirmation,,html-keyboard-response,136,185771,0.0-1.0-191.0-0.0,0,0,1,,,,,,47.0,,,,,,,,,,,,,,,,,,,,151.0,0.559,,,,,,,,,,,
137,,iti,,html-keyboard-response,137,187775,0.0-1.0-192.0,0,0,1,,,,,,,,,,,,,,,,,,,,,,,,,,153.0,2.0,,,,,,,,,,,
138,,size_choice,,html-keyboard-response,138,188698,0.0-1.0-194.0,0,0,1,,923.0,,,68.0,48.0,48.0,2.0,1000.0,M-L,0.0,M,L,2.0,3.0,hairdryer,mailbox,hairdryer6,mailbox10,75.0,49.0,/static/Size_judgement/Stimuli/Size_stims/M/hairdryer/hairdryer8.jpg,/static/Size_judgement/Stimuli/Size_stims/L/mailbox/mailbox8.jpg,0.0,,153.923,0.923,1.0,hairdryer,mailbox,M,L,2.0,3.0,hairdryer6,mailbox10,0.0,
139,,size_choice_confirmation,,html-keyboard-response,139,189281,0.0-1.0-195.0-0.0,0,0,1,,,,,,48.0,,,,,,,,,,,,,,,,,,,,154.5,0.577,,,,,,,,,,,
140,,iti,,html-keyboard-response,140,190283,0.0-1.0-196.0,0,0,1,,,,,,,,,,,,,,,,,,,,,,,,,,155.5,1.0,,,,,,,,,,,
141,,size_choice,,html-keyboard-response,141,190482,0.0-1.0-198.0,0,0,1,,198.0,,,68.0,49.0,49.0,2.0,2000.0,M-XL,1.0,XL,M,4.0,2.0,tractor,coffeemaker,tractor5,coffeemaker1,184.0,60.0,/static/Size_judgement/Stimuli/Size_stims/XL/tractor/tractor1.jpg,/static/Size_judgement/Stimuli/Size_stims/M/coffeemaker/coffeemaker14.jpg,1.0,,155.698,0.198,1.0,tractor,coffeemaker,XL,M,4.0,2.0,tractor5,coffeemaker1,0.0,
142,,size_choice_confirmation,,html-keyboard-response,142,191785,0.0-1.0-199.0-0.0,0,0,1,,,,,,49.0,,,,,,,,,,,,,,,,,,,,157.0,1.302,,,,,,,,,,,
143,,iti,,html-keyboard-response,143,193786,0.0-1.0-200.0,0,0,1,,,,,,,,,,,,,,,,,,,,,,,,,,159.0,2.0,,,,,,,,,,,
144,,size_choice,,html-keyboard-response,144,194436,0.0-1.0-202.0,0,0,1,,649.0,,,68.0,50.0,50.0,2.0,1000.0,S-XL,1.0,XL,S,4.0,1.0,car,teabag,car9,teabag10,158.0,139.0,/static/Size_judgement/Stimuli/Size_stims/XL/car/car15.jpg,/static/Size_judgement/Stimuli/Size_stims/S/teabag/teabag4.jpg,1.0,,159.649,0.649,1.0,car,teabag,XL,S,4.0,1.0,car9,teabag10,0.0,
145,,size_choice_confirmation,,html-keyboard-response,145,195289,0.0-1.0-203.0-0.0,0,0,1,,,,,,50.0,,,,,,,,,,,,,,,,,,,,160.5,0.851,,,,,,,,,,,
146,,iti,,html-keyboard-response,146,196293,0.0-1.0-204.0,0,0,1,,,,,,,,,,,,,,,,,,,,,,,,,,161.5,1.0,,,,,,,,,,,
147,,size_choice,,html-keyboard-response,147,196754,0.0-1.0-206.0,0,0,1,,460.0,,,68.0,51.0,51.0,2.0,1500.0,XL-XL,,XL,XL,4.0,4.0,crane,car,crane10,car8,169.0,157.0,/static/Size_judgement/Stimuli/Size_stims/XL/crane/crane9.jpg,/static/Size_judgement/Stimuli/Size_stims/XL/car/car14.jpg,,,161.96,0.46,1.0,crane,car,XL,XL,4.0,4.0,crane10,car8,0.0,
148,,size_choice_confirmation,,html-keyboard-response,148,197797,0.0-1.0-207.0-0.0,0,0,1,,,,,,51.0,,,,,,,,,,,,,,,,,,,,163.0,1.04,,,,,,,,,,,
149,,iti,,html-keyboard-response,149,199301,0.0-1.0-208.0,0,0,1,,,,,,,,,,,,,,,,,,,,,,,,,,164.5,1.5,,,,,,,,,,,
150,,size_choice,,html-keyboard-response,150,199356,0.0-1.0-210.0,0,0,1,,54.0,,,68.0,52.0,52.0,2.0,1000.0,M-L,0.0,M,L,2.0,3.0,coffeemaker,dishwasher,coffeemaker2,dishwasher3,61.0,22.0,/static/Size_judgement/Stimuli/Size_stims/M/coffeemaker/coffeemaker12.jpg,/static/Size_judgement/Stimuli/Size_stims/L/dishwasher/dishwasher8.jpg,0.0,,164.554,0.054,1.0,coffeemaker,dishwasher,M,L,2.0,3.0,coffeemaker2,dishwasher3,0.0,
151,,size_choice_confirmation,,html-keyboard-response,151,200806,0.0-1.0-211.0-0.0,0,0,1,,,,,,52.0,,,,,,,,,,,,,,,,,,,,166.0,1.446,,,,,,,,,,,
152,,iti,,html-keyboard-response,152,201810,0.0-1.0-212.0,0,0,1,,,,,,,,,,,,,,,,,,,,,,,,,,167.0,1.0,,,,,,,,,,,
153,,size_choice,,html-keyboard-response,153,202302,0.0-1.0-214.0,0,0,1,,490.0,,,68.0,53.0,53.0,2.0,3000.0,S-L,1.0,L,S,3.0,1.0,deskchair,paperclip,deskchair4,paperclip7,13.0,116.0,/static/Size_judgement/Stimuli/Size_stims/L/deskchair/deskchair6.jpg,/static/Size_judgement/Stimuli/Size_stims/S/paperclip/paperclip7.jpg,1.0,,167.49,0.49,1.0,deskchair,paperclip,L,S,3.0,1.0,deskchair4,paperclip7,0.0,
154,,size_choice_confirmation,,html-keyboard-response,154,203314,0.0-1.0-215.0-0.0,0,0,1,,,,,,53.0,,,,,,,,,,,,,,,,,,,,168.5,1.01,,,,,,,,,,,
155,,iti,,html-keyboard-response,155,206316,0.0-1.0-216.0,0,0,1,,,,,,,,,,,,,,,,,,,,,,,,,,171.5,3.0,,,,,,,,,,,
156,,size_choice,,html-keyboard-response,156,206740,0.0-1.0-218.0,0,0,1,,422.0,,,68.0,54.0,54.0,2.0,2000.0,S-S,,S,S,1.0,1.0,screws,paperclip,screws1,paperclip10,120.0,119.0,/static/Size_judgement/Stimuli/Size_stims/S/screws/screws4.jpg,/static/Size_judgement/Stimuli/Size_stims/S/paperclip/paperclip10.jpg,,,171.922,0.422,1.0,screws,paperclip,S,S,1.0,1.0,screws1,paperclip10,0.0,
157,,size_choice_confirmation,,html-keyboard-response,157,207822,0.0-1.0-219.0-0.0,0,0,1,,,,,,54.0,,,,,,,,,,,,,,,,,,,,173.0,1.078,,,,,,,,,,,
158,,iti,,html-keyboard-response,158,209826,0.0-1.0-220.0,0,0,1,,,,,,,,,,,,,,,,,,,,,,,,,,175.0,2.0,,,,,,,,,,,
159,,size_choice,,html-keyboard-response,159,210115,0.0-1.0-222.0,0,0,1,,288.0,,,68.0,55.0,55.0,2.0,1500.0,M-L,1.0,L,M,3.0,2.0,dishwasher,ketchup,dishwasher5,ketchup2,24.0,91.0,/static/Size_judgement/Stimuli/Size_stims/L/dishwasher/dishwasher4.jpg,/static/Size_judgement/Stimuli/Size_stims/M/ketchup/ketchup9.jpg,1.0,,175.288,0.288,1.0,dishwasher,ketchup,L,M,3.0,2.0,dishwasher5,ketchup2,0.0,
160,,size_choice_confirmation,,html-keyboard-response,160,211331,0.0-1.0-223.0-0.0,0,0,1,,,,,,55.0,,,,,,,,,,,,,,,,,,,,176.5,1.212,,,,,,,,,,,
161,,iti,,html-keyboard-response,161,212834,0.0-1.0-224.0,0,0,1,,,,,,,,,,,,,,,,,,,,,,,,,,178.0,1.5,,,,,,,,,,,
162,,size_choice,,html-keyboard-response,162,212913,0.0-1.0-226.0,0,0,1,,77.0,,,68.0,56.0,56.0,2.0,1000.0,M-L,0.0,M,L,2.0,3.0,hairdryer,deskchair,hairdryer5,deskchair3,74.0,12.0,/static/Size_judgement/Stimuli/Size_stims/M/hairdryer/hairdryer15.jpg,/static/Size_judgement/Stimuli/Size_stims/L/deskchair/deskchair10.jpg,0.0,,178.077,0.077,1.0,hairdryer,deskchair,M,L,2.0,3.0,hairdryer5,deskchair3,0.0,
163,,size_choice_confirmation,,html-keyboard-response,163,214339,0.0-1.0-227.0-0.0,0,0,1,,,,,,56.0,,,,,,,,,,,,,,,,,,,,179.5,1.423,,,,,,,,,,,
164,,iti,,html-keyboard-response,164,215344,0.0-1.0-228.0,0,0,1,,,,,,,,,,,,,,,,,,,,,,,,,,180.5,1.0,,,,,,,,,,,
165,,size_choice,,html-keyboard-response,165,215901,0.0-1.0-230.0,0,0,1,,555.0,,,68.0,57.0,57.0,2.0,1000.0,S-XL,0.0,S,XL,1.0,4.0,thread,dumptruck,thread7,dumptruck1,146.0,170.0,/static/Size_judgement/Stimuli/Size_stims/S/thread/thread3.jpg,/static/Size_judgement/Stimuli/Size_stims/XL/dumptruck/dumptruck9.jpg,0.0,,181.055,0.555,1.0,thread,dumptruck,S,XL,1.0,4.0,thread7,dumptruck1,0.0,
166,,size_choice_confirmation,,html-keyboard-response,166,216850,0.0-1.0-231.0-0.0,0,0,1,,,,,,57.0,,,,,,,,,,,,,,,,,,,,182.0,0.945,,,,,,,,,,,
167,,iti,,html-keyboard-response,167,217851,0.0-1.0-232.0,0,0,1,,,,,,,,,,,,,,,,,,,,,,,,,,183.0,1.0,,,,,,,,,,,
168,,size_choice,,html-keyboard-response,168,218052,0.0-1.0-234.0,0,0,1,,199.0,,,68.0,58.0,58.0,2.0,1000.0,S-L,0.0,S,L,1.0,3.0,teabag,dishwasher,teabag9,dishwasher6,138.0,25.0,/static/Size_judgement/Stimuli/Size_stims/S/teabag/teabag5.jpg,/static/Size_judgement/Stimuli/Size_stims/L/dishwasher/dishwasher6.jpg,0.0,,183.199,0.199,1.0,teabag,dishwasher,S,L,1.0,3.0,teabag9,dishwasher6,0.0,
169,,size_choice_confirmation,,html-keyboard-response,169,219355,0.0-1.0-235.0-0.0,0,0,1,,,,,,58.0,,,,,,,,,,,,,,,,,,,,184.5,1.301,,,,,,,,,,,
170,,iti,,html-keyboard-response,170,220359,0.0-1.0-236.0,0,0,1,,,,,,,,,,,,,,,,,,,,,,,,,,185.5,1.0,,,,,,,,,,,
171,,size_choice,,html-keyboard-response,171,221160,0.0-1.0-238.0,0,0,1,,799.0,,,68.0,59.0,59.0,2.0,1000.0,M-M,,M,M,2.0,2.0,basketball,ketchup,basketball2,ketchup10,51.0,99.0,/static/Size_judgement/Stimuli/Size_stims/M/basketball/basketball8.jpg,/static/Size_judgement/Stimuli/Size_stims/M/ketchup/ketchup6.jpg,,,186.299,0.799,1.0,basketball,ketchup,M,M,2.0,2.0,basketball2,ketchup10,0.0,
172,,size_choice_confirmation,,html-keyboard-response,172,221862,0.0-1.0-239.0-0.0,0,0,1,,,,,,59.0,,,,,,,,,,,,,,,,,,,,187.0,0.701,,,,,,,,,,,
173,,iti,,html-keyboard-response,173,222866,0.0-1.0-240.0,0,0,1,,,,,,,,,,,,,,,,,,,,,,,,,,188.0,1.0,,,,,,,,,,,
174,,size_choice,,html-keyboard-response,174,223411,0.0-1.0-242.0,0,0,1,,543.0,,,68.0,60.0,60.0,2.0,1500.0,M-XL,0.0,M,XL,2.0,4.0,ketchup,dumptruck,ketchup1,dumptruck3,90.0,172.0,/static/Size_judgement/Stimuli/Size_stims/M/ketchup/ketchup8.jpg,/static/Size_judgement/Stimuli/Size_stims/XL/dumptruck/dumptruck10.jpg,0.0,,188.543,0.543,1.0,ketchup,dumptruck,M,XL,2.0,4.0,ketchup1,dumptruck3,0.0,
175,,size_choice_confirmation,,html-keyboard-response,175,224372,0.0-1.0-243.0-0.0,0,0,1,,,,,,60.0,,,,,,,,,,,,,,,,,,,,189.5,0.957,,,,,,,,,,,
176,,iti,,html-keyboard-response,176,225877,0.0-1.0-244.0,0,0,1,,,,,,,,,,,,,,,,,,,,,,,,,,191.0,1.5,,,,,,,,,,,
177,,size_choice,,html-keyboard-response,177,226187,0.0-1.0-246.0,0,0,1,,309.0,,,68.0,61.0,61.0,2.0,1500.0,M-XL,0.0,M,XL,2.0,4.0,basketball,tractor,basketball1,tractor1,50.0,180.0,/static/Size_judgement/Stimuli/Size_stims/M/basketball/basketball9.jpg,/static/Size_judgement/Stimuli/Size_stims/XL/tractor/tractor6.jpg,0.0,,191.309,0.309,1.0,basketball,tractor,M,XL,2.0,4.0,basketball1,tractor1,0.0,
178,,size_choice_confirmation,,html-keyboard-response,178,227380,0.0-1.0-247.0-0.0,0,0,1,,,,,,61.0,,,,,,,,,,,,,,,,,,,,192.5,1.191,,,,,,,,,,,
179,,iti,,html-keyboard-response,179,228886,0.0-1.0-248.0,0,0,1,,,,,,,,,,,,,,,,,,,,,,,,,,194.0,1.5,,,,,,,,,,,
180,,size_choice,,html-keyboard-response,180,229472,0.0-1.0-250.0,0,0,1,,584.0,,,68.0,62.0,62.0,2.0,3000.0,L-XL,0.0,L,XL,3.0,4.0,cooler,van,cooler2,van9,1.0,198.0,/static/Size_judgement/Stimuli/Size_stims/L/cooler/cooler9.jpg,/static/Size_judgement/Stimuli/Size_stims/XL/van/van9.jpg,0.0,,194.584,0.584,1.0,cooler,van,L,XL,3.0,4.0,cooler2,van9,0.0,
181,,size_choice_confirmation,,html-keyboard-response,181,230389,0.0-1.0-251.0-0.0,0,0,1,,,,,,62.0,,,,,,,,,,,,,,,,,,,,195.5,0.916,,,,,,,,,,,
182,,iti,,html-keyboard-response,182,233390,0.0-1.0-252.0,0,0,1,,,,,,,,,,,,,,,,,,,,,,,,,,198.5,3.0,,,,,,,,,,,
183,,size_choice,,html-keyboard-response,183,234143,0.0-1.0-254.0,0,0,1,,752.0,,,68.0,63.0,63.0,2.0,3500.0,S-L,0.0,S,L,1.0,3.0,thread,dishwasher,thread2,dishwasher7,141.0,26.0,/static/Size_judgement/Stimuli/Size_stims/S/thread/thread6.jpg,/static/Size_judgement/Stimuli/Size_stims/L/dishwasher/dishwasher7.jpg,0.0,,199.252,0.752,1.0,thread,dishwasher,S,L,1.0,3.0,thread2,dishwasher7,0.0,
184,,size_choice_confirmation,,html-keyboard-response,184,234894,0.0-1.0-255.0-0.0,0,0,1,,,,,,63.0,,,,,,,,,,,,,,,,,,,,200.0,0.748,,,,,,,,,,,
185,,iti,,html-keyboard-response,185,238398,0.0-1.0-256.0,0,0,1,,,,,,,,,,,,,,,,,,,,,,,,,,203.5,3.5,,,,,,,,,,,
186,,size_choice,,html-keyboard-response,186,238507,0.0-1.0-258.0,0,0,1,,108.0,,,68.0,64.0,64.0,2.0,1500.0,M-L,0.0,M,L,2.0,3.0,handsaw,cooler,handsaw8,cooler7,87.0,6.0,/static/Size_judgement/Stimuli/Size_stims/M/handsaw/handsaw7.jpg,/static/Size_judgement/Stimuli/Size_stims/L/cooler/cooler4.jpg,0.0,,203.608,0.108,1.0,handsaw,cooler,M,L,2.0,3.0,handsaw8,cooler7,0.0,
187,,size_choice_confirmation,,html-keyboard-response,187,239905,0.0-1.0-259.0-0.0,0,0,1,,,,,,64.0,,,,,,,,,,,,,,,,,,,,205.0,1.392,,,,,,,,,,,
188,,iti,,html-keyboard-response,188,241407,0.0-1.0-260.0,0,0,1,,,,,,,,,,,,,,,,,,,,,,,,,,206.5,1.5,,,,,,,,,,,
189,,size_choice,,html-keyboard-response,189,242913,0.0-1.0-262.0,0,0,1,,,,,,65.0,65.0,2.0,2000.0,M-L,0.0,M,L,2.0,3.0,handsaw,mailbox,handsaw5,mailbox1,84.0,40.0,/static/Size_judgement/Stimuli/Size_stims/M/handsaw/handsaw1.jpg,/static/Size_judgement/Stimuli/Size_stims/L/mailbox/mailbox3.jpg,,1.0,208.0,1.5,,,,,,,,,,,
190,,iti,,html-keyboard-response,190,244919,0.0-1.0-264.0,0,0,1,,,,,,,,,,,,,,,,,,,,,,,,,,210.0,2.0,,,,,,,,,,,
191,,size_choice,,html-keyboard-response,191,245847,0.0-1.0-266.0,0,0,1,,926.0,,,68.0,66.0,66.0,2.0,1000.0,M-XL,1.0,XL,M,4.0,2.0,car,ketchup,car10,ketchup8,159.0,97.0,/static/Size_judgement/Stimuli/Size_stims/XL/car/car9.jpg,/static/Size_judgement/Stimuli/Size_stims/M/ketchup/ketchup5.jpg,1.0,,210.926,0.926,1.0,car,ketchup,XL,M,4.0,2.0,car10,ketchup8,0.0,
192,,size_choice_confirmation,,html-keyboard-response,192,246426,0.0-1.0-267.0-0.0,0,0,1,,,,,,66.0,,,,,,,,,,,,,,,,,,,,211.5,0.574,,,,,,,,,,,
193,,iti,,html-keyboard-response,193,247429,0.0-1.0-268.0,0,0,1,,,,,,,,,,,,,,,,,,,,,,,,,,212.5,1.0,,,,,,,,,,,
194,,size_choice,,html-keyboard-response,194,248931,0.0-1.0-270.0,0,0,1,,,,,,67.0,67.0,2.0,1000.0,S-L,1.0,L,S,3.0,1.0,deskchair,thread,deskchair6,thread3,15.0,142.0,/static/Size_judgement/Stimuli/Size_stims/L/deskchair/deskchair5.jpg,/static/Size_judgement/Stimuli/Size_stims/S/thread/thread4.jpg,,1.0,214.0,1.5,,,,,,,,,,,
195,,iti,,html-keyboard-response,195,249936,0.0-1.0-272.0,0,0,1,,,,,,,,,,,,,,,,,,,,,,,,,,215.0,1.0,,,,,,,,,,,
196,,size_choice,,html-keyboard-response,196,250992,0.0-1.0-274.0,0,0,1,,1053.0,,,68.0,68.0,68.0,2.0,2000.0,S-XL,0.0,S,XL,1.0,4.0,screws,dumptruck,screws3,dumptruck4,122.0,173.0,/static/Size_judgement/Stimuli/Size_stims/S/screws/screws7.jpg,/static/Size_judgement/Stimuli/Size_stims/XL/dumptruck/dumptruck1.jpg,0.0,,216.053,1.053,1.0,screws,dumptruck,S,XL,1.0,4.0,screws3,dumptruck4,0.0,
197,,size_choice_confirmation,,html-keyboard-response,197,251444,0.0-1.0-275.0-0.0,0,0,1,,,,,,68.0,,,,,,,,,,,,,,,,,,,,216.5,0.447,,,,,,,,,,,
198,,iti,,html-keyboard-response,198,253445,0.0-1.0-276.0,0,0,1,,,,,,,,,,,,,,,,,,,,,,,,,,218.5,2.0,,,,,,,,,,,
199,,size_choice,,html-keyboard-response,199,254623,0.0-1.0-278.0,0,0,1,,1177.0,,,68.0,69.0,69.0,2.0,3000.0,S-XL,0.0,S,XL,1.0,4.0,paperclip,dumptruck,paperclip8,dumptruck7,117.0,176.0,/static/Size_judgement/Stimuli/Size_stims/S/paperclip/paperclip5.jpg,/static/Size_judgement/Stimuli/Size_stims/XL/dumptruck/dumptruck6.jpg,0.0,,219.677,1.177,1.0,paperclip,dumptruck,S,XL,1.0,4.0,paperclip8,dumptruck7,0.0,
200,,size_choice_confirmation,,html-keyboard-response,200,254951,0.0-1.0-279.0-0.0,0,0,1,,,,,,69.0,,,,,,,,,,,,,,,,,,,,220.0,0.323,,,,,,,,,,,
201,,iti,,html-keyboard-response,201,257955,0.0-1.0-280.0,0,0,1,,,,,,,,,,,,,,,,,,,,,,,,,,223.0,3.0,,,,,,,,,,,
202,,size_choice,,html-keyboard-response,202,259458,0.0-1.0-282.0,0,0,1,,,,,,70.0,70.0,2.0,1500.0,S-L,0.0,S,L,1.0,3.0,die,deskchair,die1,deskchair8,100.0,17.0,/static/Size_judgement/Stimuli/Size_stims/S/die/die8.jpg,/static/Size_judgement/Stimuli/Size_stims/L/deskchair/deskchair1.jpg,,1.0,224.5,1.5,,,,,,,,,,,
203,,iti,,html-keyboard-response,203,260963,0.0-1.0-284.0,0,0,1,,,,,,,,,,,,,,,,,,,,,,,,,,226.0,1.5,,,,,,,,,,,
204,,size_choice,,html-keyboard-response,204,261029,0.0-1.0-286.0,0,0,1,,65.0,,,68.0,71.0,71.0,2.0,1500.0,XL-XL,,XL,XL,4.0,4.0,tractor,van,tractor3,van8,182.0,197.0,/static/Size_judgement/Stimuli/Size_stims/XL/tractor/tractor5.jpg,/static/Size_judgement/Stimuli/Size_stims/XL/van/van10.jpg,,,226.065,0.065,1.0,tractor,van,XL,XL,4.0,4.0,tractor3,van8,0.0,
205,,size_choice_confirmation,,html-keyboard-response,205,262469,0.0-1.0-287.0-0.0,0,0,1,,,,,,71.0,,,,,,,,,,,,,,,,,,,,227.5,1.435,,,,,,,,,,,
206,,iti,,html-keyboard-response,206,263972,0.0-1.0-288.0,0,0,1,,,,,,,,,,,,,,,,,,,,,,,,,,229.0,1.5,,,,,,,,,,,
207,,size_choice,,html-keyboard-response,207,264295,0.0-1.0-290.0,0,0,1,,321.0,,,68.0,72.0,72.0,2.0,1500.0,S-XL,0.0,S,XL,1.0,4.0,paperclip,dumptruck,paperclip4,dumptruck5,113.0,174.0,/static/Size_judgement/Stimuli/Size_stims/S/paperclip/paperclip3.jpg,/static/Size_judgement/Stimuli/Size_stims/XL/dumptruck/dumptruck3.jpg,0.0,,229.321,0.321,1.0,paperclip,dumptruck,S,XL,1.0,4.0,paperclip4,dumptruck5,0.0,
208,,size_choice_confirmation,,html-keyboard-response,208,265480,0.0-1.0-291.0-0.0,0,0,1,,,,,,72.0,,,,,,,,,,,,,,,,,,,,230.5,1.179,,,,,,,,,,,
209,,iti,,html-keyboard-response,209,266982,0.0-1.0-292.0,0,0,1,,,,,,,,,,,,,,,,,,,,,,,,,,232.0,1.5,,,,,,,,,,,
210,,size_choice,,html-keyboard-response,210,267432,0.0-1.0-294.0,0,0,1,,448.0,,,68.0,73.0,73.0,2.0,3000.0,M-L,0.0,M,L,2.0,3.0,coffeemaker,dishwasher,coffeemaker6,dishwasher4,65.0,23.0,/static/Size_judgement/Stimuli/Size_stims/M/coffeemaker/coffeemaker8.jpg,/static/Size_judgement/Stimuli/Size_stims/L/dishwasher/dishwasher5.jpg,0.0,,232.448,0.448,1.0,coffeemaker,dishwasher,M,L,2.0,3.0,coffeemaker6,dishwasher4,0.0,
211,,size_choice_confirmation,,html-keyboard-response,211,268489,0.0-1.0-295.0-0.0,0,0,1,,,,,,73.0,,,,,,,,,,,,,,,,,,,,233.5,1.052,,,,,,,,,,,
212,,iti,,html-keyboard-response,212,271494,0.0-1.0-296.0,0,0,1,,,,,,,,,,,,,,,,,,,,,,,,,,236.5,3.0,,,,,,,,,,,
213,,size_choice,,html-keyboard-response,213,272472,0.0-1.0-298.0,0,0,1,,975.0,,,68.0,74.0,74.0,2.0,1500.0,S-XL,1.0,XL,S,4.0,1.0,car,die,car1,die9,150.0,108.0,/static/Size_judgement/Stimuli/Size_stims/XL/car/car2.jpg,/static/Size_judgement/Stimuli/Size_stims/S/die/die7.jpg,1.0,,237.475,0.975,1.0,car,die,XL,S,4.0,1.0,car1,die9,0.0,
214,,size_choice_confirmation,,html-keyboard-response,214,272999,0.0-1.0-299.0-0.0,0,0,1,,,,,,74.0,,,,,,,,,,,,,,,,,,,,238.0,0.525,,,,,,,,,,,
215,,iti,,html-keyboard-response,215,274505,0.0-1.0-300.0,0,0,1,,,,,,,,,,,,,,,,,,,,,,,,,,239.5,1.5,,,,,,,,,,,
216,,size_choice,,html-keyboard-response,216,276007,0.0-1.0-302.0,0,0,1,,,,,,75.0,75.0,2.0,1500.0,M-XL,1.0,XL,M,4.0,2.0,crane,handsaw,crane1,handsaw10,160.0,89.0,/static/Size_judgement/Stimuli/Size_stims/XL/crane/crane7.jpg,/static/Size_judgement/Stimuli/Size_stims/M/handsaw/handsaw10.jpg,,1.0,241.0,1.5,,,,,,,,,,,
217,,iti,,html-keyboard-response,217,277511,0.0-1.0-304.0,0,0,1,,,,,,,,,,,,,,,,,,,,,,,,,,242.5,1.5,,,,,,,,,,,
218,,size_choice,,html-keyboard-response,218,279012,0.0-1.0-306.0,0,0,1,,,,,,76.0,76.0,2.0,1500.0,S-XL,1.0,XL,S,4.0,1.0,tractor,screws,tractor2,screws6,181.0,125.0,/static/Size_judgement/Stimuli/Size_stims/XL/tractor/tractor7.jpg,/static/Size_judgement/Stimuli/Size_stims/S/screws/screws3.jpg,,1.0,244.0,1.5,,,,,,,,,,,
219,,iti,,html-keyboard-response,219,280517,0.0-1.0-308.0,0,0,1,,,,,,,,,,,,,,,,,,,,,,,,,,245.5,1.5,,,,,,,,,,,
220,,size_choice,,html-keyboard-response,220,280790,0.0-1.0-310.0,0,0,1,,272.0,,,68.0,77.0,77.0,2.0,2000.0,M-L,0.0,M,L,2.0,3.0,coffeemaker,deskchair,coffeemaker4,deskchair5,63.0,14.0,/static/Size_judgement/Stimuli/Size_stims/M/coffeemaker/coffeemaker11.jpg,/static/Size_judgement/Stimuli/Size_stims/L/deskchair/deskchair7.jpg,0.0,,245.772,0.272,1.0,coffeemaker,deskchair,M,L,2.0,3.0,coffeemaker4,deskchair5,0.0,
221,,size_choice_confirmation,,html-keyboard-response,221,282022,0.0-1.0-311.0-0.0,0,0,1,,,,,,77.0,,,,,,,,,,,,,,,,,,,,247.0,1.228,,,,,,,,,,,
222,,iti,,html-keyboard-response,222,284025,0.0-1.0-312.0,0,0,1,,,,,,,,,,,,,,,,,,,,,,,,,,249.0,2.0,,,,,,,,,,,
223,,size_choice,,html-keyboard-response,223,285528,0.0-1.0-314.0,0,0,1,,,,,,78.0,78.0,2.0,1500.0,M-XL,1.0,XL,M,4.0,2.0,dumptruck,coffeemaker,dumptruck10,coffeemaker10,179.0,69.0,/static/Size_judgement/Stimuli/Size_stims/XL/dumptruck/dumptruck4.jpg,/static/Size_judgement/Stimuli/Size_stims/M/coffeemaker/coffeemaker18.jpg,,1.0,250.5,1.5,,,,,,,,,,,
224,,iti,,html-keyboard-response,224,287033,0.0-1.0-316.0,0,0,1,,,,,,,,,,,,,,,,,,,,,,,,,,252.0,1.5,,,,,,,,,,,
225,,size_choice,,html-keyboard-response,225,288539,0.0-1.0-318.0,0,0,1,,,,,,79.0,79.0,2.0,1000.0,L-L,,L,L,3.0,3.0,mailbox,cooler,mailbox4,cooler6,43.0,5.0,/static/Size_judgement/Stimuli/Size_stims/L/mailbox/mailbox5.jpg,/static/Size_judgement/Stimuli/Size_stims/L/cooler/cooler1.jpg,,1.0,253.5,1.5,,,,,,,,,,,
226,,iti,,html-keyboard-response,226,289540,0.0-1.0-320.0,0,0,1,,,,,,,,,,,,,,,,,,,,,,,,,,254.5,1.0,,,,,,,,,,,
227,,size_choice,,html-keyboard-response,227,291042,0.0-1.0-322.0,0,0,1,,,,,,80.0,80.0,2.0,1000.0,S-M,0.0,S,M,1.0,2.0,die,basketball,die3,basketball3,102.0,52.0,/static/Size_judgement/Stimuli/Size_stims/S/die/die10.jpg,/static/Size_judgement/Stimuli/Size_stims/M/basketball/basketball10.jpg,,1.0,256.0,1.5,,,,,,,,,,,
228,,iti,,html-keyboard-response,228,292047,0.0-1.0-324.0,0,0,1,,,,,,,,,,,,,,,,,,,,,,,,,,257.0,1.0,,,,,,,,,,,
229,,size_choice,,html-keyboard-response,229,293550,0.0-1.0-326.0,0,0,1,,,,,,81.0,81.0,2.0,2000.0,S-L,0.0,S,L,1.0,3.0,thread,garbagecan,thread9,garbagecan7,148.0,36.0,/static/Size_judgement/Stimuli/Size_stims/S/thread/thread8.jpg,/static/Size_judgement/Stimuli/Size_stims/L/garbagecan/garbagecan16.jpg,,1.0,258.5,1.5,,,,,,,,,,,
230,,iti,,html-keyboard-response,230,295555,0.0-1.0-328.0,0,0,1,,,,,,,,,,,,,,,,,,,,,,,,,,260.5,2.0,,,,,,,,,,,
231,,size_choice,,html-keyboard-response,231,297060,0.0-1.0-330.0,0,0,1,,,,,,82.0,82.0,2.0,2000.0,M-XL,1.0,XL,M,4.0,2.0,tractor,basketball,tractor8,basketball8,187.0,57.0,/static/Size_judgement/Stimuli/Size_stims/XL/tractor/tractor10.jpg,/static/Size_judgement/Stimuli/Size_stims/M/basketball/basketball7.jpg,,1.0,262.0,1.5,,,,,,,,,,,
232,,iti,,html-keyboard-response,232,299063,0.0-1.0-332.0,0,0,1,,,,,,,,,,,,,,,,,,,,,,,,,,264.0,2.0,,,,,,,,,,,
233,,size_choice,,html-keyboard-response,233,300568,0.0-1.0-334.0,0,0,1,,,,,,83.0,83.0,2.0,1000.0,S-XL,0.0,S,XL,1.0,4.0,screws,van,screws2,van3,121.0,192.0,/static/Size_judgement/Stimuli/Size_stims/S/screws/screws5.jpg,/static/Size_judgement/Stimuli/Size_stims/XL/van/van6.jpg,,1.0,265.5,1.5,,,,,,,,,,,
234,,iti,,html-keyboard-response,234,301572,0.0-1.0-336.0,0,0,1,,,,,,,,,,,,,,,,,,,,,,,,,,266.5,1.0,,,,,,,,,,,
235,,size_choice,,html-keyboard-response,235,303076,0.0-1.0-338.0,0,0,1,,,,,,84.0,84.0,2.0,1000.0,L-L,,L,L,3.0,3.0,cooler,dishwasher,cooler3,dishwasher9,2.0,28.0,/static/Size_judgement/Stimuli/Size_stims/L/cooler/cooler2.jpg,/static/Size_judgement/Stimuli/Size_stims/L/dishwasher/dishwasher2.jpg,,1.0,268.0,1.5,,,,,,,,,,,
236,,iti,,html-keyboard-response,236,304078,0.0-1.0-340.0,0,0,1,,,,,,,,,,,,,,,,,,,,,,,,,,269.0,1.0,,,,,,,,,,,
237,,size_choice,,html-keyboard-response,237,305585,0.0-1.0-342.0,0,0,1,,,,,,85.0,85.0,2.0,1000.0,M-M,,M,M,2.0,2.0,hairdryer,handsaw,hairdryer10,handsaw2,79.0,81.0,/static/Size_judgement/Stimuli/Size_stims/M/hairdryer/hairdryer6.jpg,/static/Size_judgement/Stimuli/Size_stims/M/handsaw/handsaw9.jpg,,1.0,270.5,1.5,,,,,,,,,,,
238,,iti,,html-keyboard-response,238,306589,0.0-1.0-344.0,0,0,1,,,,,,,,,,,,,,,,,,,,,,,,,,271.5,1.0,,,,,,,,,,,
239,,size_choice,,html-keyboard-response,239,308092,0.0-1.0-346.0,0,0,1,,,,,,86.0,86.0,2.0,1000.0,L-XL,0.0,L,XL,3.0,4.0,garbagecan,crane,garbagecan6,crane2,35.0,161.0,/static/Size_judgement/Stimuli/Size_stims/L/garbagecan/garbagecan14.jpg,/static/Size_judgement/Stimuli/Size_stims/XL/crane/crane6.jpg,,1.0,273.0,1.5,,,,,,,,,,,
240,,iti,,html-keyboard-response,240,309094,0.0-1.0-348.0,0,0,1,,,,,,,,,,,,,,,,,,,,,,,,,,274.0,1.0,,,,,,,,,,,
241,,size_choice,,html-keyboard-response,241,310597,0.0-1.0-350.0,0,0,1,,,,,,87.0,87.0,2.0,1000.0,XL-XL,,XL,XL,4.0,4.0,car,tractor,car2,tractor10,151.0,189.0,/static/Size_judgement/Stimuli/Size_stims/XL/car/car3.jpg,/static/Size_judgement/Stimuli/Size_stims/XL/tractor/tractor8.jpg,,1.0,275.5,1.5,,,,,,,,,,,
242,,iti,,html-keyboard-response,242,311601,0.0-1.0-352.0,0,0,1,,,,,,,,,,,,,,,,,,,,,,,,,,276.5,1.0,,,,,,,,,,,
243,,size_choice,,html-keyboard-response,243,313106,0.0-1.0-354.0,0,0,1,,,,,,88.0,88.0,2.0,1000.0,S-L,1.0,L,S,3.0,1.0,deskchair,screws,deskchair7,screws10,16.0,129.0,/static/Size_judgement/Stimuli/Size_stims/L/deskchair/deskchair4.jpg,/static/Size_judgement/Stimuli/Size_stims/S/screws/screws9.jpg,,1.0,278.0,1.5,,,,,,,,,,,
244,,iti,,html-keyboard-response,244,314109,0.0-1.0-356.0,0,0,1,,,,,,,,,,,,,,,,,,,,,,,,,,279.0,1.0,,,,,,,,,,,
245,,size_choice,,html-keyboard-response,245,315614,0.0-1.0-358.0,0,0,1,,,,,,89.0,89.0,2.0,3500.0,S-L,1.0,L,S,3.0,1.0,garbagecan,teabag,garbagecan1,teabag4,30.0,133.0,/static/Size_judgement/Stimuli/Size_stims/L/garbagecan/garbagecan4.jpg,/static/Size_judgement/Stimuli/Size_stims/S/teabag/teabag3.jpg,,1.0,280.5,1.5,,,,,,,,,,,
246,,iti,,html-keyboard-response,246,319119,0.0-1.0-360.0,0,0,1,,,,,,,,,,,,,,,,,,,,,,,,,,284.0,3.5,,,,,,,,,,,0.38
247,,size_final_tally,,html-keyboard-response,247,450732,0.0-2.0,0,0,1,,131610.0,,,68.0,,,,,,,,,,,,,,,,,,,,,,,,,,,,,,,,,
