,success,ttype,start_time,trial_type,trial_index,time_elapsed,internal_node_id,warning,missed_checkup,PID,view_history,rt,responses,repeat_instructions,key_press,index,trial_num,block,iti,pair_type,high_size_on_left,left_size_group,right_size_group,left_size_num,right_size_num,left_category,right_category,left_exemplar,right_exemplar,left_index,right_index,left_img_path,right_img_path,left_chosen,chosen_category,unchosen_category,chosen_size_group,unchosen_size_group,chosen_size_num,unchosen_size_num,chosen_exemplar,unchosen_exemplar,accuracy,onset,duration,no_response,size_final_tally
0,True,full_screen,d06022022hr1441,fullscreen,0,2543,0.0-0.0,0,0,96878,,,,,,,,,,,,,,,,,,,,,,,,,,,,,,,,,,,,,
1,,size_instructions,,instructions,1,4352,0.0-1.0-0.0-0.0,0,0,96878,"[{""page_index"":0,""viewing_time"":1147},{""page_index"":1,""viewing_time"":154},{""page_index"":2,""viewing_time"":121},{""page_index"":3,""viewing_time"":141},{""page_index"":4,""viewing_time"":106},{""page_index"":5,""viewing_time"":138}]",1808.0,,,,,,,,,,,,,,,,,,,,,,,,,,,,,,,,,,,
2,,size_comprehension_check,,survey-multi-choice,2,9850,0.0-1.0-0.0-1.0,0,0,96878,,5495.0,"{""Q0"":""True"",""Q1"":""Size in the real world"",""Q2"":""True"",""Q3"":""D for left and K for right""}",0.0,,,,,,,,,,,,,,,,,,,,,,,,,,,,,,,,,
3,,,,html-keyboard-response,3,10650,0.0-1.0-1.0,0,0,96878,,797.0,,,68.0,,,,,,,,,,,,,,,,,,,,,,,,,,,,,,,,
4,,size_choice,,html-keyboard-response,4,11057,0.0-1.0-2.0,0,0,96878,,405.0,,,68.0,0.0,0.0,1.0,1000.0,L-L,,L,L,3.0,3.0,dishwasher,garbagecan,dishwasher9,garbagecan9,28.0,38.0,/static/Size_judgement/Stimuli/Size_stims/L/dishwasher/dishwasher2.jpg,/static/Size_judgement/Stimuli/Size_stims/L/garbagecan/garbagecan12.jpg,1.0,dishwasher,garbagecan,L,L,3.0,3.0,dishwasher9,garbagecan9,,0.405,0.405,0.0,
5,,size_choice_confirmation,,html-keyboard-response,5,12157,0.0-1.0-3.0-0.0,0,0,96878,,,,,,0.0,,,,,,,,,,,,,,,,,,,,,,,,,,,,1.5,1.095,,
6,,iti,,html-keyboard-response,6,12261,0.0-1.0-4.0,0,0,96878,,,,,,,,,,,,,,,,,,,,,,,,,,,,,,,,,,2.5,1.0,,
7,,size_choice,,html-keyboard-response,7,12466,0.0-1.0-6.0,0,0,96878,,204.0,,,75.0,1.0,1.0,1.0,1000.0,M-M,,M,M,2.0,2.0,handsaw,hairdryer,handsaw1,hairdryer2,80.0,71.0,/static/Size_judgement/Stimuli/Size_stims/M/handsaw/handsaw8.jpg,/static/Size_judgement/Stimuli/Size_stims/M/hairdryer/hairdryer12.jpg,0.0,hairdryer,handsaw,M,M,2.0,2.0,hairdryer2,handsaw1,,2.704,0.204,0.0,
8,,size_choice_confirmation,,html-keyboard-response,8,13763,0.0-1.0-7.0-0.0,0,0,96878,,,,,,1.0,,,,,,,,,,,,,,,,,,,,,,,,,,,,4.0,1.296,,
9,,iti,,html-keyboard-response,9,13864,0.0-1.0-8.0,0,0,96878,,,,,,,,,,,,,,,,,,,,,,,,,,,,,,,,,,5.0,1.0,,
10,,size_choice,,html-keyboard-response,10,14042,0.0-1.0-10.0,0,0,96878,,175.0,,,75.0,2.0,2.0,1.0,1500.0,S-XL,0.0,S,XL,1.0,4.0,teabag,dumptruck,teabag7,dumptruck8,136.0,177.0,/static/Size_judgement/Stimuli/Size_stims/S/teabag/teabag10.jpg,/static/Size_judgement/Stimuli/Size_stims/XL/dumptruck/dumptruck7.jpg,0.0,dumptruck,teabag,XL,S,4.0,1.0,dumptruck8,teabag7,1.0,5.175,0.175,0.0,
11,,size_choice_confirmation,,html-keyboard-response,11,15373,0.0-1.0-11.0-0.0,0,0,96878,,,,,,2.0,,,,,,,,,,,,,,,,,,,,,,,,,,,,6.5,1.325,,
12,,iti,,html-keyboard-response,12,15474,0.0-1.0-12.0,0,0,96878,,,,,,,,,,,,,,,,,,,,,,,,,,,,,,,,,,8.0,1.5,,
13,,size_choice,,html-keyboard-response,13,16978,0.0-1.0-14.0,0,0,96878,,,,,,3.0,3.0,1.0,2000.0,S-M,1.0,M,S,2.0,1.0,hairdryer,screws,hairdryer5,screws5,74.0,124.0,/static/Size_judgement/Stimuli/Size_stims/M/hairdryer/hairdryer15.jpg,/static/Size_judgement/Stimuli/Size_stims/S/screws/screws2.jpg,,,,,,,,,,,9.5,1.5,1.0,
14,,iti,,html-keyboard-response,14,17079,0.0-1.0-16.0,0,0,96878,,,,,,,,,,,,,,,,,,,,,,,,,,,,,,,,,,11.5,2.0,,
15,,size_choice,,html-keyboard-response,15,18583,0.0-1.0-18.0,0,0,96878,,,,,,4.0,4.0,1.0,3500.0,S-XL,0.0,S,XL,1.0,4.0,teabag,car,teabag4,car9,133.0,158.0,/static/Size_judgement/Stimuli/Size_stims/S/teabag/teabag3.jpg,/static/Size_judgement/Stimuli/Size_stims/XL/car/car15.jpg,,,,,,,,,,,13.0,1.5,1.0,
16,,iti,,html-keyboard-response,16,18688,0.0-1.0-20.0,0,0,96878,,,,,,,,,,,,,,,,,,,,,,,,,,,,,,,,,,16.5,3.5,,
17,,size_choice,,html-keyboard-response,17,20194,0.0-1.0-22.0,0,0,96878,,,,,,5.0,5.0,1.0,1500.0,M-L,1.0,L,M,3.0,2.0,cooler,handsaw,cooler10,handsaw7,9.0,86.0,/static/Size_judgement/Stimuli/Size_stims/L/cooler/cooler6.jpg,/static/Size_judgement/Stimuli/Size_stims/M/handsaw/handsaw5.jpg,,,,,,,,,,,18.0,1.5,1.0,
18,,iti,,html-keyboard-response,18,20296,0.0-1.0-24.0,0,0,96878,,,,,,,,,,,,,,,,,,,,,,,,,,,,,,,,,,19.5,1.5,,
19,,size_choice,,html-keyboard-response,19,21798,0.0-1.0-26.0,0,0,96878,,,,,,6.0,6.0,1.0,2000.0,M-XL,0.0,M,XL,2.0,4.0,basketball,crane,basketball10,crane9,59.0,168.0,/static/Size_judgement/Stimuli/Size_stims/M/basketball/basketball4.jpg,/static/Size_judgement/Stimuli/Size_stims/XL/crane/crane8.jpg,,,,,,,,,,,21.0,1.5,1.0,
20,,iti,,html-keyboard-response,20,21900,0.0-1.0-28.0,0,0,96878,,,,,,,,,,,,,,,,,,,,,,,,,,,,,,,,,,23.0,2.0,,
21,,size_choice,,html-keyboard-response,21,23404,0.0-1.0-30.0,0,0,96878,,,,,,7.0,7.0,1.0,3000.0,M-XL,0.0,M,XL,2.0,4.0,hairdryer,dumptruck,hairdryer7,dumptruck6,76.0,175.0,/static/Size_judgement/Stimuli/Size_stims/M/hairdryer/hairdryer3.jpg,/static/Size_judgement/Stimuli/Size_stims/XL/dumptruck/dumptruck2.jpg,,,,,,,,,,,24.5,1.5,1.0,
22,,iti,,html-keyboard-response,22,23506,0.0-1.0-32.0,0,0,96878,,,,,,,,,,,,,,,,,,,,,,,,,,,,,,,,,,27.5,3.0,,
23,,size_choice,,html-keyboard-response,23,25010,0.0-1.0-34.0,0,0,96878,,,,,,8.0,8.0,1.0,2000.0,XL-XL,,XL,XL,4.0,4.0,van,crane,van2,crane8,191.0,167.0,/static/Size_judgement/Stimuli/Size_stims/XL/van/van4.jpg,/static/Size_judgement/Stimuli/Size_stims/XL/crane/crane10.jpg,,,,,,,,,,,29.0,1.5,1.0,
24,,iti,,html-keyboard-response,24,25114,0.0-1.0-36.0,0,0,96878,,,,,,,,,,,,,,,,,,,,,,,,,,,,,,,,,,31.0,2.0,,
25,,size_choice,,html-keyboard-response,25,26615,0.0-1.0-38.0,0,0,96878,,,,,,9.0,9.0,1.0,2000.0,L-L,,L,L,3.0,3.0,dishwasher,cooler,dishwasher7,cooler8,26.0,7.0,/static/Size_judgement/Stimuli/Size_stims/L/dishwasher/dishwasher7.jpg,/static/Size_judgement/Stimuli/Size_stims/L/cooler/cooler5.jpg,,,,,,,,,,,32.5,1.5,1.0,
26,,iti,,html-keyboard-response,26,26720,0.0-1.0-40.0,0,0,96878,,,,,,,,,,,,,,,,,,,,,,,,,,,,,,,,,,34.5,2.0,,
27,,size_choice,,html-keyboard-response,27,28222,0.0-1.0-42.0,0,0,96878,,,,,,10.0,10.0,1.0,1000.0,M-L,1.0,L,M,3.0,2.0,garbagecan,basketball,garbagecan4,basketball4,33.0,53.0,/static/Size_judgement/Stimuli/Size_stims/L/garbagecan/garbagecan6.jpg,/static/Size_judgement/Stimuli/Size_stims/M/basketball/basketball1.jpg,,,,,,,,,,,36.0,1.5,1.0,
28,,iti,,html-keyboard-response,28,28323,0.0-1.0-44.0,0,0,96878,,,,,,,,,,,,,,,,,,,,,,,,,,,,,,,,,,37.0,1.0,,
29,,size_choice,,html-keyboard-response,29,29829,0.0-1.0-46.0,0,0,96878,,,,,,11.0,11.0,1.0,1000.0,S-L,1.0,L,S,3.0,1.0,dishwasher,screws,dishwasher8,screws8,27.0,127.0,/static/Size_judgement/Stimuli/Size_stims/L/dishwasher/dishwasher3.jpg,/static/Size_judgement/Stimuli/Size_stims/S/screws/screws10.jpg,,,,,,,,,,,38.5,1.5,1.0,
30,,iti,,html-keyboard-response,30,29934,0.0-1.0-48.0,0,0,96878,,,,,,,,,,,,,,,,,,,,,,,,,,,,,,,,,,39.5,1.0,,
31,,size_choice,,html-keyboard-response,31,31438,0.0-1.0-50.0,0,0,96878,,,,,,12.0,12.0,1.0,1000.0,L-XL,1.0,XL,L,4.0,3.0,tractor,deskchair,tractor6,deskchair5,185.0,14.0,/static/Size_judgement/Stimuli/Size_stims/XL/tractor/tractor3.jpg,/static/Size_judgement/Stimuli/Size_stims/L/deskchair/deskchair7.jpg,,,,,,,,,,,41.0,1.5,1.0,
32,,iti,,html-keyboard-response,32,31543,0.0-1.0-52.0,0,0,96878,,,,,,,,,,,,,,,,,,,,,,,,,,,,,,,,,,42.0,1.0,,
33,,size_choice,,html-keyboard-response,33,33047,0.0-1.0-54.0,0,0,96878,,,,,,13.0,13.0,1.0,1000.0,S-S,,S,S,1.0,1.0,thread,die,thread10,die1,149.0,100.0,/static/Size_judgement/Stimuli/Size_stims/S/thread/thread9.jpg,/static/Size_judgement/Stimuli/Size_stims/S/die/die8.jpg,,,,,,,,,,,43.5,1.5,1.0,
34,,iti,,html-keyboard-response,34,33151,0.0-1.0-56.0,0,0,96878,,,,,,,,,,,,,,,,,,,,,,,,,,,,,,,,,,44.5,1.0,,
35,,size_choice,,html-keyboard-response,35,34655,0.0-1.0-58.0,0,0,96878,,,,,,14.0,14.0,1.0,1000.0,M-XL,0.0,M,XL,2.0,4.0,coffeemaker,tractor,coffeemaker4,tractor4,63.0,183.0,/static/Size_judgement/Stimuli/Size_stims/M/coffeemaker/coffeemaker11.jpg,/static/Size_judgement/Stimuli/Size_stims/XL/tractor/tractor4.jpg,,,,,,,,,,,46.0,1.5,1.0,
36,,iti,,html-keyboard-response,36,34759,0.0-1.0-60.0,0,0,96878,,,,,,,,,,,,,,,,,,,,,,,,,,,,,,,,,,47.0,1.0,,
37,,size_choice,,html-keyboard-response,37,36263,0.0-1.0-62.0,0,0,96878,,,,,,15.0,15.0,1.0,3500.0,M-XL,0.0,M,XL,2.0,4.0,handsaw,van,handsaw5,van10,84.0,199.0,/static/Size_judgement/Stimuli/Size_stims/M/handsaw/handsaw1.jpg,/static/Size_judgement/Stimuli/Size_stims/XL/van/van8.jpg,,,,,,,,,,,48.5,1.5,1.0,
38,,iti,,html-keyboard-response,38,36368,0.0-1.0-64.0,0,0,96878,,,,,,,,,,,,,,,,,,,,,,,,,,,,,,,,,,52.0,3.5,,
39,,size_choice,,html-keyboard-response,39,37870,0.0-1.0-66.0,0,0,96878,,,,,,16.0,16.0,1.0,1500.0,XL-XL,,XL,XL,4.0,4.0,dumptruck,car,dumptruck2,car6,171.0,155.0,/static/Size_judgement/Stimuli/Size_stims/XL/dumptruck/dumptruck8.jpg,/static/Size_judgement/Stimuli/Size_stims/XL/car/car12.jpg,,,,,,,,,,,53.5,1.5,1.0,
40,,iti,,html-keyboard-response,40,37975,0.0-1.0-68.0,0,0,96878,,,,,,,,,,,,,,,,,,,,,,,,,,,,,,,,,,55.0,1.5,,
41,,size_choice,,html-keyboard-response,41,39479,0.0-1.0-70.0,0,0,96878,,,,,,17.0,17.0,1.0,1500.0,S-XL,1.0,XL,S,4.0,1.0,van,screws,van1,screws6,190.0,125.0,/static/Size_judgement/Stimuli/Size_stims/XL/van/van5.jpg,/static/Size_judgement/Stimuli/Size_stims/S/screws/screws3.jpg,,,,,,,,,,,56.5,1.5,1.0,
42,,iti,,html-keyboard-response,42,39582,0.0-1.0-72.0,0,0,96878,,,,,,,,,,,,,,,,,,,,,,,,,,,,,,,,,,58.0,1.5,,
43,,size_choice,,html-keyboard-response,43,41084,0.0-1.0-74.0,0,0,96878,,,,,,18.0,18.0,1.0,3500.0,M-XL,1.0,XL,M,4.0,2.0,car,basketball,car5,basketball8,154.0,57.0,/static/Size_judgement/Stimuli/Size_stims/XL/car/car11.jpg,/static/Size_judgement/Stimuli/Size_stims/M/basketball/basketball7.jpg,,,,,,,,,,,59.5,1.5,1.0,
44,,iti,,html-keyboard-response,44,41185,0.0-1.0-76.0,0,0,96878,,,,,,,,,,,,,,,,,,,,,,,,,,,,,,,,,,63.0,3.5,,
45,,size_choice,,html-keyboard-response,45,42690,0.0-1.0-78.0,0,0,96878,,,,,,19.0,19.0,1.0,1500.0,S-L,1.0,L,S,3.0,1.0,cooler,thread,cooler7,thread7,6.0,146.0,/static/Size_judgement/Stimuli/Size_stims/L/cooler/cooler4.jpg,/static/Size_judgement/Stimuli/Size_stims/S/thread/thread3.jpg,,,,,,,,,,,64.5,1.5,1.0,
46,,iti,,html-keyboard-response,46,42791,0.0-1.0-80.0,0,0,96878,,,,,,,,,,,,,,,,,,,,,,,,,,,,,,,,,,66.0,1.5,,
47,,size_choice,,html-keyboard-response,47,44295,0.0-1.0-82.0,0,0,96878,,,,,,20.0,20.0,1.0,1000.0,S-S,,S,S,1.0,1.0,paperclip,teabag,paperclip8,teabag9,117.0,138.0,/static/Size_judgement/Stimuli/Size_stims/S/paperclip/paperclip5.jpg,/static/Size_judgement/Stimuli/Size_stims/S/teabag/teabag5.jpg,,,,,,,,,,,67.5,1.5,1.0,
48,,iti,,html-keyboard-response,48,44396,0.0-1.0-84.0,0,0,96878,,,,,,,,,,,,,,,,,,,,,,,,,,,,,,,,,,68.5,1.0,,
49,,size_choice,,html-keyboard-response,49,45900,0.0-1.0-86.0,0,0,96878,,,,,,21.0,21.0,1.0,1000.0,S-S,,S,S,1.0,1.0,die,paperclip,die6,paperclip6,105.0,115.0,/static/Size_judgement/Stimuli/Size_stims/S/die/die1.jpg,/static/Size_judgement/Stimuli/Size_stims/S/paperclip/paperclip6.jpg,,,,,,,,,,,70.0,1.5,1.0,
50,,iti,,html-keyboard-response,50,46003,0.0-1.0-88.0,0,0,96878,,,,,,,,,,,,,,,,,,,,,,,,,,,,,,,,,,71.0,1.0,,
51,,size_choice,,html-keyboard-response,51,47505,0.0-1.0-90.0,0,0,96878,,,,,,22.0,22.0,1.0,1000.0,L-XL,0.0,L,XL,3.0,4.0,dishwasher,dumptruck,dishwasher3,dumptruck3,22.0,172.0,/static/Size_judgement/Stimuli/Size_stims/L/dishwasher/dishwasher8.jpg,/static/Size_judgement/Stimuli/Size_stims/XL/dumptruck/dumptruck10.jpg,,,,,,,,,,,72.5,1.5,1.0,
52,,iti,,html-keyboard-response,52,47611,0.0-1.0-92.0,0,0,96878,,,,,,,,,,,,,,,,,,,,,,,,,,,,,,,,,,73.5,1.0,,
53,,size_choice,,html-keyboard-response,53,49116,0.0-1.0-94.0,0,0,96878,,,,,,23.0,23.0,1.0,3000.0,M-M,,M,M,2.0,2.0,handsaw,hairdryer,handsaw8,hairdryer3,87.0,72.0,/static/Size_judgement/Stimuli/Size_stims/M/handsaw/handsaw7.jpg,/static/Size_judgement/Stimuli/Size_stims/M/hairdryer/hairdryer17.jpg,,,,,,,,,,,75.0,1.5,1.0,
54,,iti,,html-keyboard-response,54,49220,0.0-1.0-96.0,0,0,96878,,,,,,,,,,,,,,,,,,,,,,,,,,,,,,,,,,78.0,3.0,,
55,,size_choice,,html-keyboard-response,55,50723,0.0-1.0-98.0,0,0,96878,,,,,,24.0,24.0,1.0,1000.0,S-M,1.0,M,S,2.0,1.0,basketball,paperclip,basketball2,paperclip10,51.0,119.0,/static/Size_judgement/Stimuli/Size_stims/M/basketball/basketball8.jpg,/static/Size_judgement/Stimuli/Size_stims/S/paperclip/paperclip10.jpg,,,,,,,,,,,79.5,1.5,1.0,
56,,iti,,html-keyboard-response,56,50824,0.0-1.0-100.0,0,0,96878,,,,,,,,,,,,,,,,,,,,,,,,,,,,,,,,,,80.5,1.0,,
57,,size_choice,,html-keyboard-response,57,52327,0.0-1.0-102.0,0,0,96878,,,,,,25.0,25.0,1.0,2000.0,S-L,1.0,L,S,3.0,1.0,dishwasher,paperclip,dishwasher10,paperclip9,29.0,118.0,/static/Size_judgement/Stimuli/Size_stims/L/dishwasher/dishwasher1.jpg,/static/Size_judgement/Stimuli/Size_stims/S/paperclip/paperclip4.jpg,,,,,,,,,,,82.0,1.5,1.0,
58,,iti,,html-keyboard-response,58,52429,0.0-1.0-104.0,0,0,96878,,,,,,,,,,,,,,,,,,,,,,,,,,,,,,,,,,84.0,2.0,,
59,,size_choice,,html-keyboard-response,59,53932,0.0-1.0-106.0,0,0,96878,,,,,,26.0,26.0,1.0,3000.0,S-L,1.0,L,S,3.0,1.0,deskchair,thread,deskchair10,thread2,19.0,141.0,/static/Size_judgement/Stimuli/Size_stims/L/deskchair/deskchair2.jpg,/static/Size_judgement/Stimuli/Size_stims/S/thread/thread6.jpg,,,,,,,,,,,85.5,1.5,1.0,
60,,iti,,html-keyboard-response,60,54033,0.0-1.0-108.0,0,0,96878,,,,,,,,,,,,,,,,,,,,,,,,,,,,,,,,,,88.5,3.0,,
61,,size_choice,,html-keyboard-response,61,55537,0.0-1.0-110.0,0,0,96878,,,,,,27.0,27.0,1.0,1000.0,L-L,,L,L,3.0,3.0,mailbox,garbagecan,mailbox5,garbagecan8,44.0,37.0,/static/Size_judgement/Stimuli/Size_stims/L/mailbox/mailbox4.jpg,/static/Size_judgement/Stimuli/Size_stims/L/garbagecan/garbagecan13.jpg,,,,,,,,,,,90.0,1.5,1.0,
62,,iti,,html-keyboard-response,62,55641,0.0-1.0-112.0,0,0,96878,,,,,,,,,,,,,,,,,,,,,,,,,,,,,,,,,,91.0,1.0,,
63,,size_choice,,html-keyboard-response,63,57142,0.0-1.0-114.0,0,0,96878,,,,,,28.0,28.0,1.0,2000.0,M-L,0.0,M,L,2.0,3.0,ketchup,mailbox,ketchup2,mailbox9,91.0,48.0,/static/Size_judgement/Stimuli/Size_stims/M/ketchup/ketchup9.jpg,/static/Size_judgement/Stimuli/Size_stims/L/mailbox/mailbox9.jpg,,,,,,,,,,,92.5,1.5,1.0,
64,,iti,,html-keyboard-response,64,57245,0.0-1.0-116.0,0,0,96878,,,,,,,,,,,,,,,,,,,,,,,,,,,,,,,,,,94.5,2.0,,
65,,size_choice,,html-keyboard-response,65,58749,0.0-1.0-118.0,0,0,96878,,,,,,29.0,29.0,1.0,1000.0,S-XL,0.0,S,XL,1.0,4.0,die,dumptruck,die5,dumptruck9,104.0,178.0,/static/Size_judgement/Stimuli/Size_stims/S/die/die3.jpg,/static/Size_judgement/Stimuli/Size_stims/XL/dumptruck/dumptruck5.jpg,,,,,,,,,,,96.0,1.5,1.0,
66,,iti,,html-keyboard-response,66,58851,0.0-1.0-120.0,0,0,96878,,,,,,,,,,,,,,,,,,,,,,,,,,,,,,,,,,97.0,1.0,,
67,,size_choice,,html-keyboard-response,67,60353,0.0-1.0-122.0,0,0,96878,,,,,,30.0,30.0,1.0,1000.0,S-XL,1.0,XL,S,4.0,1.0,tractor,die,tractor7,die2,186.0,101.0,/static/Size_judgement/Stimuli/Size_stims/XL/tractor/tractor2.jpg,/static/Size_judgement/Stimuli/Size_stims/S/die/die9.jpg,,,,,,,,,,,98.5,1.5,1.0,
68,,iti,,html-keyboard-response,68,60456,0.0-1.0-124.0,0,0,96878,,,,,,,,,,,,,,,,,,,,,,,,,,,,,,,,,,99.5,1.0,,
69,,size_choice,,html-keyboard-response,69,61959,0.0-1.0-126.0,0,0,96878,,,,,,31.0,31.0,1.0,1500.0,S-L,1.0,L,S,3.0,1.0,garbagecan,thread,garbagecan2,thread9,31.0,148.0,/static/Size_judgement/Stimuli/Size_stims/L/garbagecan/garbagecan5.jpg,/static/Size_judgement/Stimuli/Size_stims/S/thread/thread8.jpg,,,,,,,,,,,101.0,1.5,1.0,
70,,iti,,html-keyboard-response,70,62062,0.0-1.0-128.0,0,0,96878,,,,,,,,,,,,,,,,,,,,,,,,,,,,,,,,,,102.5,1.5,,
71,,size_choice,,html-keyboard-response,71,63564,0.0-1.0-130.0,0,0,96878,,,,,,32.0,32.0,1.0,2000.0,M-L,0.0,M,L,2.0,3.0,handsaw,deskchair,handsaw9,deskchair2,88.0,11.0,/static/Size_judgement/Stimuli/Size_stims/M/handsaw/handsaw6.jpg,/static/Size_judgement/Stimuli/Size_stims/L/deskchair/deskchair8.jpg,,,,,,,,,,,104.0,1.5,1.0,
72,,iti,,html-keyboard-response,72,63665,0.0-1.0-132.0,0,0,96878,,,,,,,,,,,,,,,,,,,,,,,,,,,,,,,,,,106.0,2.0,,
73,,size_choice,,html-keyboard-response,73,65171,0.0-1.0-134.0,0,0,96878,,,,,,33.0,33.0,1.0,1000.0,S-L,1.0,L,S,3.0,1.0,garbagecan,teabag,garbagecan3,teabag8,32.0,137.0,/static/Size_judgement/Stimuli/Size_stims/L/garbagecan/garbagecan7.jpg,/static/Size_judgement/Stimuli/Size_stims/S/teabag/teabag7.jpg,,,,,,,,,,,107.5,1.5,1.0,
74,,iti,,html-keyboard-response,74,65272,0.0-1.0-136.0,0,0,96878,,,,,,,,,,,,,,,,,,,,,,,,,,,,,,,,,,108.5,1.0,,
75,,size_choice,,html-keyboard-response,75,66773,0.0-1.0-138.0,0,0,96878,,,,,,34.0,34.0,1.0,1000.0,M-L,0.0,M,L,2.0,3.0,handsaw,dishwasher,handsaw2,dishwasher4,81.0,23.0,/static/Size_judgement/Stimuli/Size_stims/M/handsaw/handsaw9.jpg,/static/Size_judgement/Stimuli/Size_stims/L/dishwasher/dishwasher5.jpg,,,,,,,,,,,110.0,1.5,1.0,
76,,iti,,html-keyboard-response,76,66876,0.0-1.0-140.0,0,0,96878,,,,,,,,,,,,,,,,,,,,,,,,,,,,,,,,,,111.0,1.0,,
77,,size_choice,,html-keyboard-response,77,68380,0.0-1.0-142.0,0,0,96878,,,,,,35.0,35.0,1.0,1500.0,M-L,1.0,L,M,3.0,2.0,dishwasher,ketchup,dishwasher1,ketchup4,20.0,93.0,/static/Size_judgement/Stimuli/Size_stims/L/dishwasher/dishwasher10.jpg,/static/Size_judgement/Stimuli/Size_stims/M/ketchup/ketchup2.jpg,,,,,,,,,,,112.5,1.5,1.0,
78,,iti,,html-keyboard-response,78,68483,0.0-1.0-144.0,0,0,96878,,,,,,,,,,,,,,,,,,,,,,,,,,,,,,,,,,114.0,1.5,,
79,,size_choice,,html-keyboard-response,79,69988,0.0-1.0-146.0,0,0,96878,,,,,,36.0,36.0,1.0,1500.0,M-L,0.0,M,L,2.0,3.0,hairdryer,cooler,hairdryer6,cooler3,75.0,2.0,/static/Size_judgement/Stimuli/Size_stims/M/hairdryer/hairdryer8.jpg,/static/Size_judgement/Stimuli/Size_stims/L/cooler/cooler2.jpg,,,,,,,,,,,115.5,1.5,1.0,
80,,iti,,html-keyboard-response,80,70092,0.0-1.0-148.0,0,0,96878,,,,,,,,,,,,,,,,,,,,,,,,,,,,,,,,,,117.0,1.5,,
81,,size_choice,,html-keyboard-response,81,71596,0.0-1.0-150.0,0,0,96878,,,,,,37.0,37.0,1.0,1000.0,S-XL,1.0,XL,S,4.0,1.0,car,teabag,car4,teabag10,153.0,139.0,/static/Size_judgement/Stimuli/Size_stims/XL/car/car6.jpg,/static/Size_judgement/Stimuli/Size_stims/S/teabag/teabag4.jpg,,,,,,,,,,,118.5,1.5,1.0,
82,,iti,,html-keyboard-response,82,71697,0.0-1.0-152.0,0,0,96878,,,,,,,,,,,,,,,,,,,,,,,,,,,,,,,,,,119.5,1.0,,
83,,size_choice,,html-keyboard-response,83,73201,0.0-1.0-154.0,0,0,96878,,,,,,38.0,38.0,1.0,1500.0,M-XL,1.0,XL,M,4.0,2.0,tractor,handsaw,tractor8,handsaw10,187.0,89.0,/static/Size_judgement/Stimuli/Size_stims/XL/tractor/tractor10.jpg,/static/Size_judgement/Stimuli/Size_stims/M/handsaw/handsaw10.jpg,,,,,,,,,,,121.0,1.5,1.0,
84,,iti,,html-keyboard-response,84,73304,0.0-1.0-156.0,0,0,96878,,,,,,,,,,,,,,,,,,,,,,,,,,,,,,,,,,122.5,1.5,,
85,,size_choice,,html-keyboard-response,85,74808,0.0-1.0-158.0,0,0,96878,,,,,,39.0,39.0,1.0,1500.0,S-M,1.0,M,S,2.0,1.0,basketball,screws,basketball6,screws9,55.0,128.0,/static/Size_judgement/Stimuli/Size_stims/M/basketball/basketball2.jpg,/static/Size_judgement/Stimuli/Size_stims/S/screws/screws8.jpg,,,,,,,,,,,124.0,1.5,1.0,
86,,iti,,html-keyboard-response,86,74908,0.0-1.0-160.0,0,0,96878,,,,,,,,,,,,,,,,,,,,,,,,,,,,,,,,,,125.5,1.5,,
87,,size_choice,,html-keyboard-response,87,75621,0.0-1.0-162.0,0,0,96878,,712.0,,,68.0,40.0,40.0,1.0,1000.0,M-XL,0.0,M,XL,2.0,4.0,hairdryer,dumptruck,hairdryer1,dumptruck5,70.0,174.0,/static/Size_judgement/Stimuli/Size_stims/M/hairdryer/hairdryer11.jpg,/static/Size_judgement/Stimuli/Size_stims/XL/dumptruck/dumptruck3.jpg,1.0,hairdryer,dumptruck,M,XL,2.0,4.0,hairdryer1,dumptruck5,0.0,126.212,0.712,0.0,
88,,size_choice_confirmation,,html-keyboard-response,88,76413,0.0-1.0-163.0-0.0,0,0,96878,,,,,,40.0,,,,,,,,,,,,,,,,,,,,,,,,,,,,127.0,0.788,,
89,,iti,,html-keyboard-response,89,76519,0.0-1.0-164.0,0,0,96878,,,,,,,,,,,,,,,,,,,,,,,,,,,,,,,,,,128.0,1.0,,
90,,size_choice,,html-keyboard-response,90,76767,0.0-1.0-166.0,0,0,96878,,247.0,,,75.0,41.0,41.0,1.0,1500.0,S-L,0.0,S,L,1.0,3.0,paperclip,mailbox,paperclip2,mailbox7,111.0,46.0,/static/Size_judgement/Stimuli/Size_stims/S/paperclip/paperclip8.jpg,/static/Size_judgement/Stimuli/Size_stims/L/mailbox/mailbox7.jpg,0.0,mailbox,paperclip,L,S,3.0,1.0,mailbox7,paperclip2,1.0,128.247,0.247,0.0,
91,,size_choice_confirmation,,html-keyboard-response,91,78023,0.0-1.0-167.0-0.0,0,0,96878,,,,,,41.0,,,,,,,,,,,,,,,,,,,,,,,,,,,,129.5,1.253,,
92,,iti,,html-keyboard-response,92,78128,0.0-1.0-168.0,0,0,96878,,,,,,,,,,,,,,,,,,,,,,,,,,,,,,,,,,131.0,1.5,,
93,,size_choice,,html-keyboard-response,93,78299,0.0-1.0-170.0,0,0,96878,,170.0,,,75.0,42.0,42.0,1.0,2000.0,S-XL,0.0,S,XL,1.0,4.0,thread,dumptruck,thread8,dumptruck10,147.0,179.0,/static/Size_judgement/Stimuli/Size_stims/S/thread/thread10.jpg,/static/Size_judgement/Stimuli/Size_stims/XL/dumptruck/dumptruck4.jpg,0.0,dumptruck,thread,XL,S,4.0,1.0,dumptruck10,thread8,1.0,131.17,0.17,0.0,
94,,size_choice_confirmation,,html-keyboard-response,94,79633,0.0-1.0-171.0-0.0,0,0,96878,,,,,,42.0,,,,,,,,,,,,,,,,,,,,,,,,,,,,132.5,1.33,,
95,,iti,,html-keyboard-response,95,79737,0.0-1.0-172.0,0,0,96878,,,,,,,,,,,,,,,,,,,,,,,,,,,,,,,,,,134.5,2.0,,
96,,size_choice,,html-keyboard-response,96,79838,0.0-1.0-174.0,0,0,96878,,100.0,,,68.0,43.0,43.0,1.0,3000.0,L-XL,0.0,L,XL,3.0,4.0,cooler,tractor,cooler1,tractor10,0.0,189.0,/static/Size_judgement/Stimuli/Size_stims/L/cooler/cooler8.jpg,/static/Size_judgement/Stimuli/Size_stims/XL/tractor/tractor8.jpg,1.0,cooler,tractor,L,XL,3.0,4.0,cooler1,tractor10,0.0,134.6,0.1,0.0,
97,,size_choice_confirmation,,html-keyboard-response,97,81240,0.0-1.0-175.0-0.0,0,0,96878,,,,,,43.0,,,,,,,,,,,,,,,,,,,,,,,,,,,,136.0,1.4,,
98,,iti,,html-keyboard-response,98,81341,0.0-1.0-176.0,0,0,96878,,,,,,,,,,,,,,,,,,,,,,,,,,,,,,,,,,139.0,3.0,,
99,,size_choice,,html-keyboard-response,99,81364,0.0-1.0-178.0,0,0,96878,,22.0,,,68.0,44.0,44.0,1.0,1500.0,M-M,,M,M,2.0,2.0,hairdryer,coffeemaker,hairdryer10,coffeemaker1,79.0,60.0,/static/Size_judgement/Stimuli/Size_stims/M/hairdryer/hairdryer6.jpg,/static/Size_judgement/Stimuli/Size_stims/M/coffeemaker/coffeemaker14.jpg,1.0,hairdryer,coffeemaker,M,M,2.0,2.0,hairdryer10,coffeemaker1,,139.022,0.022,0.0,
100,,size_choice_confirmation,,html-keyboard-response,100,82845,0.0-1.0-179.0-0.0,0,0,96878,,,,,,44.0,,,,,,,,,,,,,,,,,,,,,,,,,,,,140.5,1.478,,
101,,iti,,html-keyboard-response,101,82947,0.0-1.0-180.0,0,0,96878,,,,,,,,,,,,,,,,,,,,,,,,,,,,,,,,,,142.0,1.5,,
102,,block_over,,html-keyboard-response,102,83297,0.0-1.0-181.0-0.0,0,0,96878,,349.0,,,68.0,44.0,,,,,,,,,,,,,,,,,,,,,,,,,,,,,,,
103,,size_choice,,html-keyboard-response,103,83768,0.0-1.0-182.0,0,0,96878,,471.0,,,75.0,45.0,45.0,2.0,3500.0,L-XL,0.0,L,XL,3.0,4.0,cooler,car,cooler4,car3,3.0,152.0,/static/Size_judgement/Stimuli/Size_stims/L/cooler/cooler3.jpg,/static/Size_judgement/Stimuli/Size_stims/XL/car/car4.jpg,0.0,car,cooler,XL,L,4.0,3.0,car3,cooler4,1.0,142.471,0.471,0.0,
104,,size_choice_confirmation,,html-keyboard-response,104,84801,0.0-1.0-183.0-0.0,0,0,96878,,,,,,45.0,,,,,,,,,,,,,,,,,,,,,,,,,,,,143.5,1.029,,
105,,iti,,html-keyboard-response,105,84901,0.0-1.0-184.0,0,0,96878,,,,,,,,,,,,,,,,,,,,,,,,,,,,,,,,,,147.0,3.5,,
106,,size_choice,,html-keyboard-response,106,85339,0.0-1.0-186.0,0,0,96878,,437.0,,,68.0,46.0,46.0,2.0,2000.0,L-L,,L,L,3.0,3.0,deskchair,cooler,deskchair8,cooler2,17.0,1.0,/static/Size_judgement/Stimuli/Size_stims/L/deskchair/deskchair1.jpg,/static/Size_judgement/Stimuli/Size_stims/L/cooler/cooler9.jpg,1.0,deskchair,cooler,L,L,3.0,3.0,deskchair8,cooler2,,147.437,0.437,0.0,
107,,size_choice_confirmation,,html-keyboard-response,107,86406,0.0-1.0-187.0-0.0,0,0,96878,,,,,,46.0,,,,,,,,,,,,,,,,,,,,,,,,,,,,148.5,1.063,,
108,,iti,,html-keyboard-response,108,86510,0.0-1.0-188.0,0,0,96878,,,,,,,,,,,,,,,,,,,,,,,,,,,,,,,,,,150.5,2.0,,
109,,size_choice,,html-keyboard-response,109,86601,0.0-1.0-190.0,0,0,96878,,90.0,,,75.0,47.0,47.0,2.0,1500.0,M-L,0.0,M,L,2.0,3.0,basketball,cooler,basketball3,cooler9,52.0,8.0,/static/Size_judgement/Stimuli/Size_stims/M/basketball/basketball10.jpg,/static/Size_judgement/Stimuli/Size_stims/L/cooler/cooler7.jpg,0.0,cooler,basketball,L,M,3.0,2.0,cooler9,basketball3,1.0,150.59,0.09,0.0,
110,,size_choice_confirmation,,html-keyboard-response,110,88013,0.0-1.0-191.0-0.0,0,0,96878,,,,,,47.0,,,,,,,,,,,,,,,,,,,,,,,,,,,,152.0,1.41,,
111,,iti,,html-keyboard-response,111,88118,0.0-1.0-192.0,0,0,96878,,,,,,,,,,,,,,,,,,,,,,,,,,,,,,,,,,153.5,1.5,,
112,,size_choice,,html-keyboard-response,112,88407,0.0-1.0-194.0,0,0,96878,,288.0,,,68.0,48.0,48.0,2.0,1000.0,M-XL,1.0,XL,M,4.0,2.0,car,ketchup,car8,ketchup5,157.0,94.0,/static/Size_judgement/Stimuli/Size_stims/XL/car/car14.jpg,/static/Size_judgement/Stimuli/Size_stims/M/ketchup/ketchup3.jpg,1.0,car,ketchup,XL,M,4.0,2.0,car8,ketchup5,1.0,153.788,0.288,0.0,
113,,size_choice_confirmation,,html-keyboard-response,113,89622,0.0-1.0-195.0-0.0,0,0,96878,,,,,,48.0,,,,,,,,,,,,,,,,,,,,,,,,,,,,155.0,1.212,,
114,,iti,,html-keyboard-response,114,89726,0.0-1.0-196.0,0,0,96878,,,,,,,,,,,,,,,,,,,,,,,,,,,,,,,,,,156.0,1.0,,
115,,size_choice,,html-keyboard-response,115,89818,0.0-1.0-198.0,0,0,96878,,92.0,,,75.0,49.0,49.0,2.0,1000.0,S-S,,S,S,1.0,1.0,die,thread,die3,thread6,102.0,145.0,/static/Size_judgement/Stimuli/Size_stims/S/die/die10.jpg,/static/Size_judgement/Stimuli/Size_stims/S/thread/thread2.jpg,0.0,thread,die,S,S,1.0,1.0,thread6,die3,,156.092,0.092,0.0,
116,,size_choice_confirmation,,html-keyboard-response,116,91228,0.0-1.0-199.0-0.0,0,0,96878,,,,,,49.0,,,,,,,,,,,,,,,,,,,,,,,,,,,,157.5,1.408,,
117,,iti,,html-keyboard-response,117,91329,0.0-1.0-200.0,0,0,96878,,,,,,,,,,,,,,,,,,,,,,,,,,,,,,,,,,158.5,1.0,,
118,,size_choice,,html-keyboard-response,118,91508,0.0-1.0-202.0,0,0,96878,,177.0,,,68.0,50.0,50.0,2.0,2000.0,S-XL,0.0,S,XL,1.0,4.0,thread,car,thread3,car10,142.0,159.0,/static/Size_judgement/Stimuli/Size_stims/S/thread/thread4.jpg,/static/Size_judgement/Stimuli/Size_stims/XL/car/car9.jpg,1.0,thread,car,S,XL,1.0,4.0,thread3,car10,0.0,158.677,0.177,0.0,
119,,size_choice_confirmation,,html-keyboard-response,119,92835,0.0-1.0-203.0-0.0,0,0,96878,,,,,,50.0,,,,,,,,,,,,,,,,,,,,,,,,,,,,160.0,1.323,,
120,,iti,,html-keyboard-response,120,92936,0.0-1.0-204.0,0,0,96878,,,,,,,,,,,,,,,,,,,,,,,,,,,,,,,,,,162.0,2.0,,
121,,size_choice,,html-keyboard-response,121,93050,0.0-1.0-206.0,0,0,96878,,113.0,,,68.0,51.0,51.0,2.0,2000.0,M-M,,M,M,2.0,2.0,ketchup,basketball,ketchup9,basketball9,98.0,58.0,/static/Size_judgement/Stimuli/Size_stims/M/ketchup/ketchup7.jpg,/static/Size_judgement/Stimuli/Size_stims/M/basketball/basketball5.jpg,1.0,ketchup,basketball,M,M,2.0,2.0,ketchup9,basketball9,,162.113,0.113,0.0,
122,,size_choice_confirmation,,html-keyboard-response,122,94442,0.0-1.0-207.0-0.0,0,0,96878,,,,,,51.0,,,,,,,,,,,,,,,,,,,,,,,,,,,,163.5,1.387,,
123,,iti,,html-keyboard-response,123,94545,0.0-1.0-208.0,0,0,96878,,,,,,,,,,,,,,,,,,,,,,,,,,,,,,,,,,165.5,2.0,,
124,,size_choice,,html-keyboard-response,124,94744,0.0-1.0-210.0,0,0,96878,,198.0,,,75.0,52.0,52.0,2.0,1500.0,S-M,0.0,S,M,1.0,2.0,thread,ketchup,thread4,ketchup7,143.0,96.0,/static/Size_judgement/Stimuli/Size_stims/S/thread/thread5.jpg,/static/Size_judgement/Stimuli/Size_stims/M/ketchup/ketchup4.jpg,0.0,ketchup,thread,M,S,2.0,1.0,ketchup7,thread4,1.0,165.698,0.198,0.0,
125,,size_choice_confirmation,,html-keyboard-response,125,96049,0.0-1.0-211.0-0.0,0,0,96878,,,,,,52.0,,,,,,,,,,,,,,,,,,,,,,,,,,,,167.0,1.302,,
126,,iti,,html-keyboard-response,126,96152,0.0-1.0-212.0,0,0,96878,,,,,,,,,,,,,,,,,,,,,,,,,,,,,,,,,,168.5,1.5,,
127,,size_choice,,html-keyboard-response,127,97656,0.0-1.0-214.0,0,0,96878,,,,,,53.0,53.0,2.0,1500.0,M-XL,0.0,M,XL,2.0,4.0,ketchup,van,ketchup1,van8,90.0,197.0,/static/Size_judgement/Stimuli/Size_stims/M/ketchup/ketchup8.jpg,/static/Size_judgement/Stimuli/Size_stims/XL/van/van10.jpg,,,,,,,,,,,170.0,1.5,1.0,
128,,iti,,html-keyboard-response,128,97757,0.0-1.0-216.0,0,0,96878,,,,,,,,,,,,,,,,,,,,,,,,,,,,,,,,,,171.5,1.5,,
129,,size_choice,,html-keyboard-response,129,97842,0.0-1.0-218.0,0,0,96878,,84.0,,,75.0,54.0,54.0,2.0,2000.0,XL-XL,,XL,XL,4.0,4.0,dumptruck,car,dumptruck1,car2,170.0,151.0,/static/Size_judgement/Stimuli/Size_stims/XL/dumptruck/dumptruck9.jpg,/static/Size_judgement/Stimuli/Size_stims/XL/car/car3.jpg,0.0,car,dumptruck,XL,XL,4.0,4.0,car2,dumptruck1,,171.584,0.084,0.0,
130,,size_choice_confirmation,,html-keyboard-response,130,99260,0.0-1.0-219.0-0.0,0,0,96878,,,,,,54.0,,,,,,,,,,,,,,,,,,,,,,,,,,,,173.0,1.416,,
131,,iti,,html-keyboard-response,131,99364,0.0-1.0-220.0,0,0,96878,,,,,,,,,,,,,,,,,,,,,,,,,,,,,,,,,,175.0,2.0,,
132,,size_choice,,html-keyboard-response,132,99405,0.0-1.0-222.0,0,0,96878,,39.0,,,75.0,55.0,55.0,2.0,1000.0,M-L,1.0,L,M,3.0,2.0,mailbox,coffeemaker,mailbox10,coffeemaker10,49.0,69.0,/static/Size_judgement/Stimuli/Size_stims/L/mailbox/mailbox8.jpg,/static/Size_judgement/Stimuli/Size_stims/M/coffeemaker/coffeemaker18.jpg,0.0,coffeemaker,mailbox,M,L,2.0,3.0,coffeemaker10,mailbox10,0.0,175.039,0.039,0.0,
133,,size_choice_confirmation,,html-keyboard-response,133,100867,0.0-1.0-223.0-0.0,0,0,96878,,,,,,55.0,,,,,,,,,,,,,,,,,,,,,,,,,,,,176.5,1.461,,
134,,iti,,html-keyboard-response,134,100968,0.0-1.0-224.0,0,0,96878,,,,,,,,,,,,,,,,,,,,,,,,,,,,,,,,,,177.5,1.0,,
135,,size_choice,,html-keyboard-response,135,101000,0.0-1.0-226.0,0,0,96878,,32.0,,,68.0,56.0,56.0,2.0,1000.0,M-XL,0.0,M,XL,2.0,4.0,hairdryer,van,hairdryer4,van5,73.0,194.0,/static/Size_judgement/Stimuli/Size_stims/M/hairdryer/hairdryer16.jpg,/static/Size_judgement/Stimuli/Size_stims/XL/van/van3.jpg,1.0,hairdryer,van,M,XL,2.0,4.0,hairdryer4,van5,0.0,177.532,0.032,0.0,
136,,size_choice_confirmation,,html-keyboard-response,136,102470,0.0-1.0-227.0-0.0,0,0,96878,,,,,,56.0,,,,,,,,,,,,,,,,,,,,,,,,,,,,179.0,1.468,,
137,,iti,,html-keyboard-response,137,102575,0.0-1.0-228.0,0,0,96878,,,,,,,,,,,,,,,,,,,,,,,,,,,,,,,,,,180.0,1.0,,
138,,size_choice,,html-keyboard-response,138,104079,0.0-1.0-230.0,0,0,96878,,,,,,57.0,57.0,2.0,1000.0,S-L,0.0,S,L,1.0,3.0,die,mailbox,die10,mailbox6,109.0,45.0,/static/Size_judgement/Stimuli/Size_stims/S/die/die6.jpg,/static/Size_judgement/Stimuli/Size_stims/L/mailbox/mailbox6.jpg,,,,,,,,,,,181.5,1.5,1.0,
139,,iti,,html-keyboard-response,139,104184,0.0-1.0-232.0,0,0,96878,,,,,,,,,,,,,,,,,,,,,,,,,,,,,,,,,,182.5,1.0,,
140,,size_choice,,html-keyboard-response,140,104501,0.0-1.0-234.0,0,0,96878,,315.0,,,75.0,58.0,58.0,2.0,3000.0,M-XL,1.0,XL,M,4.0,2.0,crane,ketchup,crane6,ketchup6,165.0,95.0,/static/Size_judgement/Stimuli/Size_stims/XL/crane/crane2.jpg,/static/Size_judgement/Stimuli/Size_stims/M/ketchup/ketchup1.jpg,0.0,ketchup,crane,M,XL,2.0,4.0,ketchup6,crane6,0.0,182.815,0.315,0.0,
141,,size_choice_confirmation,,html-keyboard-response,141,105688,0.0-1.0-235.0-0.0,0,0,96878,,,,,,58.0,,,,,,,,,,,,,,,,,,,,,,,,,,,,184.0,1.185,,
142,,iti,,html-keyboard-response,142,105789,0.0-1.0-236.0,0,0,96878,,,,,,,,,,,,,,,,,,,,,,,,,,,,,,,,,,187.0,3.0,,
143,,size_choice,,html-keyboard-response,143,105839,0.0-1.0-238.0,0,0,96878,,49.0,,,75.0,59.0,59.0,2.0,1500.0,S-XL,1.0,XL,S,4.0,1.0,van,teabag,van4,teabag3,193.0,132.0,/static/Size_judgement/Stimuli/Size_stims/XL/van/van7.jpg,/static/Size_judgement/Stimuli/Size_stims/S/teabag/teabag1.jpg,0.0,teabag,van,S,XL,1.0,4.0,teabag3,van4,0.0,187.049,0.049,0.0,
144,,size_choice_confirmation,,html-keyboard-response,144,107291,0.0-1.0-239.0-0.0,0,0,96878,,,,,,59.0,,,,,,,,,,,,,,,,,,,,,,,,,,,,188.5,1.451,,
145,,iti,,html-keyboard-response,145,107394,0.0-1.0-240.0,0,0,96878,,,,,,,,,,,,,,,,,,,,,,,,,,,,,,,,,,190.0,1.5,,
146,,size_choice,,html-keyboard-response,146,107778,0.0-1.0-242.0,0,0,96878,,382.0,,,75.0,60.0,60.0,2.0,1500.0,S-L,0.0,S,L,1.0,3.0,paperclip,deskchair,paperclip4,deskchair3,113.0,12.0,/static/Size_judgement/Stimuli/Size_stims/S/paperclip/paperclip3.jpg,/static/Size_judgement/Stimuli/Size_stims/L/deskchair/deskchair10.jpg,0.0,deskchair,paperclip,L,S,3.0,1.0,deskchair3,paperclip4,1.0,190.382,0.382,0.0,
147,,size_choice_confirmation,,html-keyboard-response,147,108897,0.0-1.0-243.0-0.0,0,0,96878,,,,,,60.0,,,,,,,,,,,,,,,,,,,,,,,,,,,,191.5,1.118,,
148,,iti,,html-keyboard-response,148,108998,0.0-1.0-244.0,0,0,96878,,,,,,,,,,,,,,,,,,,,,,,,,,,,,,,,,,193.0,1.5,,
149,,size_choice,,html-keyboard-response,149,109042,0.0-1.0-246.0,0,0,96878,,43.0,,,75.0,61.0,61.0,2.0,1000.0,L-L,,L,L,3.0,3.0,dishwasher,garbagecan,dishwasher5,garbagecan1,24.0,30.0,/static/Size_judgement/Stimuli/Size_stims/L/dishwasher/dishwasher4.jpg,/static/Size_judgement/Stimuli/Size_stims/L/garbagecan/garbagecan4.jpg,0.0,garbagecan,dishwasher,L,L,3.0,3.0,garbagecan1,dishwasher5,,193.043,0.043,0.0,
150,,size_choice_confirmation,,html-keyboard-response,150,110502,0.0-1.0-247.0-0.0,0,0,96878,,,,,,61.0,,,,,,,,,,,,,,,,,,,,,,,,,,,,194.5,1.457,,
151,,iti,,html-keyboard-response,151,110605,0.0-1.0-248.0,0,0,96878,,,,,,,,,,,,,,,,,,,,,,,,,,,,,,,,,,195.5,1.0,,
152,,size_choice,,html-keyboard-response,152,110660,0.0-1.0-250.0,0,0,96878,,54.0,,,75.0,62.0,62.0,2.0,1000.0,M-L,0.0,M,L,2.0,3.0,ketchup,deskchair,ketchup3,deskchair7,92.0,16.0,/static/Size_judgement/Stimuli/Size_stims/M/ketchup/ketchup10.jpg,/static/Size_judgement/Stimuli/Size_stims/L/deskchair/deskchair4.jpg,0.0,deskchair,ketchup,L,M,3.0,2.0,deskchair7,ketchup3,1.0,195.554,0.054,0.0,
153,,size_choice_confirmation,,html-keyboard-response,153,112110,0.0-1.0-251.0-0.0,0,0,96878,,,,,,62.0,,,,,,,,,,,,,,,,,,,,,,,,,,,,197.0,1.446,,
154,,iti,,html-keyboard-response,154,112213,0.0-1.0-252.0,0,0,96878,,,,,,,,,,,,,,,,,,,,,,,,,,,,,,,,,,198.0,1.0,,
155,,size_choice,,html-keyboard-response,155,112421,0.0-1.0-254.0,0,0,96878,,208.0,,,68.0,63.0,63.0,2.0,2000.0,S-M,0.0,S,M,1.0,2.0,teabag,coffeemaker,teabag2,coffeemaker3,131.0,62.0,/static/Size_judgement/Stimuli/Size_stims/S/teabag/teabag8.jpg,/static/Size_judgement/Stimuli/Size_stims/M/coffeemaker/coffeemaker13.jpg,1.0,teabag,coffeemaker,S,M,1.0,2.0,teabag2,coffeemaker3,0.0,198.208,0.208,0.0,
156,,size_choice_confirmation,,html-keyboard-response,156,113718,0.0-1.0-255.0-0.0,0,0,96878,,,,,,63.0,,,,,,,,,,,,,,,,,,,,,,,,,,,,199.5,1.292,,
157,,iti,,html-keyboard-response,157,113821,0.0-1.0-256.0,0,0,96878,,,,,,,,,,,,,,,,,,,,,,,,,,,,,,,,,,201.5,2.0,,
158,,size_choice,,html-keyboard-response,158,113900,0.0-1.0-258.0,0,0,96878,,78.0,,,75.0,64.0,64.0,2.0,1000.0,M-L,0.0,M,L,2.0,3.0,coffeemaker,garbagecan,coffeemaker6,garbagecan10,65.0,39.0,/static/Size_judgement/Stimuli/Size_stims/M/coffeemaker/coffeemaker8.jpg,/static/Size_judgement/Stimuli/Size_stims/L/garbagecan/garbagecan11.jpg,0.0,garbagecan,coffeemaker,L,M,3.0,2.0,garbagecan10,coffeemaker6,1.0,201.578,0.078,0.0,
159,,size_choice_confirmation,,html-keyboard-response,159,115327,0.0-1.0-259.0-0.0,0,0,96878,,,,,,64.0,,,,,,,,,,,,,,,,,,,,,,,,,,,,203.0,1.422,,
160,,iti,,html-keyboard-response,160,115430,0.0-1.0-260.0,0,0,96878,,,,,,,,,,,,,,,,,,,,,,,,,,,,,,,,,,204.0,1.0,,
161,,size_choice,,html-keyboard-response,161,115522,0.0-1.0-262.0,0,0,96878,,91.0,,,75.0,65.0,65.0,2.0,1000.0,S-XL,1.0,XL,S,4.0,1.0,crane,paperclip,crane1,paperclip3,160.0,112.0,/static/Size_judgement/Stimuli/Size_stims/XL/crane/crane7.jpg,/static/Size_judgement/Stimuli/Size_stims/S/paperclip/paperclip1.jpg,0.0,paperclip,crane,S,XL,1.0,4.0,paperclip3,crane1,0.0,204.091,0.091,0.0,
162,,size_choice_confirmation,,html-keyboard-response,162,116934,0.0-1.0-263.0-0.0,0,0,96878,,,,,,65.0,,,,,,,,,,,,,,,,,,,,,,,,,,,,205.5,1.409,,
163,,iti,,html-keyboard-response,163,117038,0.0-1.0-264.0,0,0,96878,,,,,,,,,,,,,,,,,,,,,,,,,,,,,,,,,,206.5,1.0,,
164,,size_choice,,html-keyboard-response,164,117140,0.0-1.0-266.0,0,0,96878,,100.0,,,75.0,66.0,66.0,2.0,2000.0,M-M,,M,M,2.0,2.0,hairdryer,handsaw,hairdryer9,handsaw4,78.0,83.0,/static/Size_judgement/Stimuli/Size_stims/M/hairdryer/hairdryer5.jpg,/static/Size_judgement/Stimuli/Size_stims/M/handsaw/handsaw3.jpg,0.0,handsaw,hairdryer,M,M,2.0,2.0,handsaw4,hairdryer9,,206.6,0.1,0.0,
165,,size_choice_confirmation,,html-keyboard-response,165,118541,0.0-1.0-267.0-0.0,0,0,96878,,,,,,66.0,,,,,,,,,,,,,,,,,,,,,,,,,,,,208.0,1.4,,
166,,iti,,html-keyboard-response,166,118643,0.0-1.0-268.0,0,0,96878,,,,,,,,,,,,,,,,,,,,,,,,,,,,,,,,,,210.0,2.0,,
167,,size_choice,,html-keyboard-response,167,118750,0.0-1.0-270.0,0,0,96878,,107.0,,,68.0,67.0,67.0,2.0,1500.0,S-S,,S,S,1.0,1.0,paperclip,screws,paperclip1,screws10,110.0,129.0,/static/Size_judgement/Stimuli/Size_stims/S/paperclip/paperclip9.jpg,/static/Size_judgement/Stimuli/Size_stims/S/screws/screws9.jpg,1.0,paperclip,screws,S,S,1.0,1.0,paperclip1,screws10,,210.107,0.107,0.0,
168,,size_choice_confirmation,,html-keyboard-response,168,120146,0.0-1.0-271.0-0.0,0,0,96878,,,,,,67.0,,,,,,,,,,,,,,,,,,,,,,,,,,,,211.5,1.393,,
169,,iti,,html-keyboard-response,169,120248,0.0-1.0-272.0,0,0,96878,,,,,,,,,,,,,,,,,,,,,,,,,,,,,,,,,,213.0,1.5,,
170,,size_choice,,html-keyboard-response,170,120874,0.0-1.0-274.0,0,0,96878,,624.0,,,75.0,68.0,68.0,2.0,1500.0,M-XL,1.0,XL,M,4.0,2.0,tractor,coffeemaker,tractor2,coffeemaker7,181.0,66.0,/static/Size_judgement/Stimuli/Size_stims/XL/tractor/tractor7.jpg,/static/Size_judgement/Stimuli/Size_stims/M/coffeemaker/coffeemaker9.jpg,0.0,coffeemaker,tractor,M,XL,2.0,4.0,coffeemaker7,tractor2,0.0,213.624,0.624,0.0,
171,,size_choice_confirmation,,html-keyboard-response,171,121751,0.0-1.0-275.0-0.0,0,0,96878,,,,,,68.0,,,,,,,,,,,,,,,,,,,,,,,,,,,,214.5,0.876,,
172,,iti,,html-keyboard-response,172,121852,0.0-1.0-276.0,0,0,96878,,,,,,,,,,,,,,,,,,,,,,,,,,,,,,,,,,216.0,1.5,,
173,,size_choice,,html-keyboard-response,173,122828,0.0-1.0-278.0,0,0,96878,,975.0,,,68.0,69.0,69.0,2.0,2000.0,L-XL,1.0,XL,L,4.0,3.0,crane,deskchair,crane4,deskchair1,163.0,10.0,/static/Size_judgement/Stimuli/Size_stims/XL/crane/crane5.jpg,/static/Size_judgement/Stimuli/Size_stims/L/deskchair/deskchair9.jpg,1.0,crane,deskchair,XL,L,4.0,3.0,crane4,deskchair1,1.0,216.975,0.975,0.0,
174,,size_choice_confirmation,,html-keyboard-response,174,123355,0.0-1.0-279.0-0.0,0,0,96878,,,,,,69.0,,,,,,,,,,,,,,,,,,,,,,,,,,,,217.5,0.525,,
175,,iti,,html-keyboard-response,175,123459,0.0-1.0-280.0,0,0,96878,,,,,,,,,,,,,,,,,,,,,,,,,,,,,,,,,,219.5,2.0,,
176,,size_choice,,html-keyboard-response,176,123892,0.0-1.0-282.0,0,0,96878,,433.0,,,75.0,70.0,70.0,2.0,2000.0,S-L,1.0,L,S,3.0,1.0,garbagecan,die,garbagecan6,die8,35.0,107.0,/static/Size_judgement/Stimuli/Size_stims/L/garbagecan/garbagecan14.jpg,/static/Size_judgement/Stimuli/Size_stims/S/die/die5.jpg,0.0,die,garbagecan,S,L,1.0,3.0,die8,garbagecan6,0.0,219.933,0.433,0.0,
177,,size_choice_confirmation,,html-keyboard-response,177,124964,0.0-1.0-283.0-0.0,0,0,96878,,,,,,70.0,,,,,,,,,,,,,,,,,,,,,,,,,,,,221.0,1.067,,
178,,iti,,html-keyboard-response,178,125067,0.0-1.0-284.0,0,0,96878,,,,,,,,,,,,,,,,,,,,,,,,,,,,,,,,,,223.0,2.0,,
179,,size_choice,,html-keyboard-response,179,125663,0.0-1.0-286.0,0,0,96878,,595.0,,,75.0,71.0,71.0,2.0,1000.0,M-L,0.0,M,L,2.0,3.0,handsaw,cooler,handsaw6,cooler5,85.0,4.0,/static/Size_judgement/Stimuli/Size_stims/M/handsaw/handsaw4.jpg,/static/Size_judgement/Stimuli/Size_stims/L/cooler/cooler10.jpg,0.0,cooler,handsaw,L,M,3.0,2.0,cooler5,handsaw6,1.0,223.595,0.595,0.0,
180,,size_choice_confirmation,,html-keyboard-response,180,126572,0.0-1.0-287.0-0.0,0,0,96878,,,,,,71.0,,,,,,,,,,,,,,,,,,,,,,,,,,,,224.5,0.905,,
181,,iti,,html-keyboard-response,181,126673,0.0-1.0-288.0,0,0,96878,,,,,,,,,,,,,,,,,,,,,,,,,,,,,,,,,,225.5,1.0,,
182,,size_choice,,html-keyboard-response,182,127241,0.0-1.0-290.0,0,0,96878,,567.0,,,75.0,72.0,72.0,2.0,1000.0,S-L,0.0,S,L,1.0,3.0,screws,mailbox,screws4,mailbox1,123.0,40.0,/static/Size_judgement/Stimuli/Size_stims/S/screws/screws6.jpg,/static/Size_judgement/Stimuli/Size_stims/L/mailbox/mailbox3.jpg,0.0,mailbox,screws,L,S,3.0,1.0,mailbox1,screws4,1.0,226.067,0.567,0.0,
183,,size_choice_confirmation,,html-keyboard-response,183,128175,0.0-1.0-291.0-0.0,0,0,96878,,,,,,72.0,,,,,,,,,,,,,,,,,,,,,,,,,,,,227.0,0.933,,
184,,iti,,html-keyboard-response,184,128278,0.0-1.0-292.0,0,0,96878,,,,,,,,,,,,,,,,,,,,,,,,,,,,,,,,,,228.0,1.0,,
185,,size_choice,,html-keyboard-response,185,129093,0.0-1.0-294.0,0,0,96878,,813.0,,,75.0,73.0,73.0,2.0,1000.0,S-XL,0.0,S,XL,1.0,4.0,thread,car,thread5,car1,144.0,150.0,/static/Size_judgement/Stimuli/Size_stims/S/thread/thread1.jpg,/static/Size_judgement/Stimuli/Size_stims/XL/car/car2.jpg,0.0,car,thread,XL,S,4.0,1.0,car1,thread5,1.0,228.813,0.813,0.0,
186,,size_choice_confirmation,,html-keyboard-response,186,129786,0.0-1.0-295.0-0.0,0,0,96878,,,,,,73.0,,,,,,,,,,,,,,,,,,,,,,,,,,,,229.5,0.687,,
187,,iti,,html-keyboard-response,187,129889,0.0-1.0-296.0,0,0,96878,,,,,,,,,,,,,,,,,,,,,,,,,,,,,,,,,,230.5,1.0,,
188,,size_choice,,html-keyboard-response,188,129967,0.0-1.0-298.0,0,0,96878,,78.0,,,75.0,74.0,74.0,2.0,1000.0,XL-XL,,XL,XL,4.0,4.0,van,tractor,van6,tractor9,195.0,188.0,/static/Size_judgement/Stimuli/Size_stims/XL/van/van2.jpg,/static/Size_judgement/Stimuli/Size_stims/XL/tractor/tractor9.jpg,0.0,tractor,van,XL,XL,4.0,4.0,tractor9,van6,,230.578,0.078,0.0,
189,,size_choice_confirmation,,html-keyboard-response,189,131394,0.0-1.0-299.0-0.0,0,0,96878,,,,,,74.0,,,,,,,,,,,,,,,,,,,,,,,,,,,,232.0,1.422,,
190,,iti,,html-keyboard-response,190,131496,0.0-1.0-300.0,0,0,96878,,,,,,,,,,,,,,,,,,,,,,,,,,,,,,,,,,233.0,1.0,,
191,,size_choice,,html-keyboard-response,191,131803,0.0-1.0-302.0,0,0,96878,,307.0,,,75.0,75.0,75.0,2.0,1500.0,M-XL,0.0,M,XL,2.0,4.0,basketball,van,basketball7,van7,56.0,196.0,/static/Size_judgement/Stimuli/Size_stims/M/basketball/basketball6.jpg,/static/Size_judgement/Stimuli/Size_stims/XL/van/van1.jpg,0.0,van,basketball,XL,M,4.0,2.0,van7,basketball7,1.0,233.307,0.307,0.0,
192,,size_choice_confirmation,,html-keyboard-response,192,132998,0.0-1.0-303.0-0.0,0,0,96878,,,,,,75.0,,,,,,,,,,,,,,,,,,,,,,,,,,,,234.5,1.193,,
193,,iti,,html-keyboard-response,193,133101,0.0-1.0-304.0,0,0,96878,,,,,,,,,,,,,,,,,,,,,,,,,,,,,,,,,,236.0,1.5,,
194,,size_choice,,html-keyboard-response,194,133194,0.0-1.0-306.0,0,0,96878,,92.0,,,75.0,76.0,76.0,2.0,1500.0,S-XL,1.0,XL,S,4.0,1.0,dumptruck,teabag,dumptruck7,teabag5,176.0,134.0,/static/Size_judgement/Stimuli/Size_stims/XL/dumptruck/dumptruck6.jpg,/static/Size_judgement/Stimuli/Size_stims/S/teabag/teabag2.jpg,0.0,teabag,dumptruck,S,XL,1.0,4.0,teabag5,dumptruck7,0.0,236.092,0.092,0.0,
195,,size_choice_confirmation,,html-keyboard-response,195,134603,0.0-1.0-307.0-0.0,0,0,96878,,,,,,76.0,,,,,,,,,,,,,,,,,,,,,,,,,,,,237.5,1.408,,
196,,iti,,html-keyboard-response,196,134704,0.0-1.0-308.0,0,0,96878,,,,,,,,,,,,,,,,,,,,,,,,,,,,,,,,,,239.0,1.5,,
197,,size_choice,,html-keyboard-response,197,134819,0.0-1.0-310.0,0,0,96878,,114.0,,,75.0,77.0,77.0,2.0,1500.0,M-L,0.0,M,L,2.0,3.0,ketchup,deskchair,ketchup8,deskchair6,97.0,15.0,/static/Size_judgement/Stimuli/Size_stims/M/ketchup/ketchup5.jpg,/static/Size_judgement/Stimuli/Size_stims/L/deskchair/deskchair5.jpg,0.0,deskchair,ketchup,L,M,3.0,2.0,deskchair6,ketchup8,1.0,239.114,0.114,0.0,
198,,size_choice_confirmation,,html-keyboard-response,198,136206,0.0-1.0-311.0-0.0,0,0,96878,,,,,,77.0,,,,,,,,,,,,,,,,,,,,,,,,,,,,240.5,1.386,,
199,,iti,,html-keyboard-response,199,136307,0.0-1.0-312.0,0,0,96878,,,,,,,,,,,,,,,,,,,,,,,,,,,,,,,,,,242.0,1.5,,
200,,size_choice,,html-keyboard-response,200,136645,0.0-1.0-314.0,0,0,96878,,337.0,,,75.0,78.0,78.0,2.0,3000.0,S-XL,1.0,XL,S,4.0,1.0,crane,paperclip,crane2,paperclip7,161.0,116.0,/static/Size_judgement/Stimuli/Size_stims/XL/crane/crane6.jpg,/static/Size_judgement/Stimuli/Size_stims/S/paperclip/paperclip7.jpg,0.0,paperclip,crane,S,XL,1.0,4.0,paperclip7,crane2,0.0,242.337,0.337,0.0,
201,,size_choice_confirmation,,html-keyboard-response,201,137811,0.0-1.0-315.0-0.0,0,0,96878,,,,,,78.0,,,,,,,,,,,,,,,,,,,,,,,,,,,,243.5,1.163,,
202,,iti,,html-keyboard-response,202,137912,0.0-1.0-316.0,0,0,96878,,,,,,,,,,,,,,,,,,,,,,,,,,,,,,,,,,246.5,3.0,,
203,,size_choice,,html-keyboard-response,203,138302,0.0-1.0-318.0,0,0,96878,,389.0,,,68.0,79.0,79.0,2.0,3500.0,M-XL,1.0,XL,M,4.0,2.0,crane,coffeemaker,crane10,coffeemaker2,169.0,61.0,/static/Size_judgement/Stimuli/Size_stims/XL/crane/crane9.jpg,/static/Size_judgement/Stimuli/Size_stims/M/coffeemaker/coffeemaker12.jpg,1.0,crane,coffeemaker,XL,M,4.0,2.0,crane10,coffeemaker2,1.0,246.889,0.389,0.0,
204,,size_choice_confirmation,,html-keyboard-response,204,139417,0.0-1.0-319.0-0.0,0,0,96878,,,,,,79.0,,,,,,,,,,,,,,,,,,,,,,,,,,,,248.0,1.111,,
205,,iti,,html-keyboard-response,205,139521,0.0-1.0-320.0,0,0,96878,,,,,,,,,,,,,,,,,,,,,,,,,,,,,,,,,,251.5,3.5,,
206,,size_choice,,html-keyboard-response,206,139888,0.0-1.0-322.0,0,0,96878,,366.0,,,75.0,80.0,80.0,2.0,3000.0,S-L,1.0,L,S,3.0,1.0,mailbox,screws,mailbox4,screws1,43.0,120.0,/static/Size_judgement/Stimuli/Size_stims/L/mailbox/mailbox5.jpg,/static/Size_judgement/Stimuli/Size_stims/S/screws/screws4.jpg,0.0,screws,mailbox,S,L,1.0,3.0,screws1,mailbox4,0.0,251.866,0.366,0.0,
207,,size_choice_confirmation,,html-keyboard-response,207,141025,0.0-1.0-323.0-0.0,0,0,96878,,,,,,80.0,,,,,,,,,,,,,,,,,,,,,,,,,,,,253.0,1.134,,
208,,iti,,html-keyboard-response,208,141128,0.0-1.0-324.0,0,0,96878,,,,,,,,,,,,,,,,,,,,,,,,,,,,,,,,,,256.0,3.0,,
209,,size_choice,,html-keyboard-response,209,141444,0.0-1.0-326.0,0,0,96878,,316.0,,,75.0,81.0,81.0,2.0,1000.0,S-L,1.0,L,S,3.0,1.0,dishwasher,teabag,dishwasher6,teabag1,25.0,130.0,/static/Size_judgement/Stimuli/Size_stims/L/dishwasher/dishwasher6.jpg,/static/Size_judgement/Stimuli/Size_stims/S/teabag/teabag9.jpg,0.0,teabag,dishwasher,S,L,1.0,3.0,teabag1,dishwasher6,0.0,256.316,0.316,0.0,
210,,size_choice_confirmation,,html-keyboard-response,210,142629,0.0-1.0-327.0-0.0,0,0,96878,,,,,,81.0,,,,,,,,,,,,,,,,,,,,,,,,,,,,257.5,1.184,,
211,,iti,,html-keyboard-response,211,142733,0.0-1.0-328.0,0,0,96878,,,,,,,,,,,,,,,,,,,,,,,,,,,,,,,,,,258.5,1.0,,
212,,size_choice,,html-keyboard-response,212,143575,0.0-1.0-330.0,0,0,96878,,841.0,,,75.0,82.0,82.0,2.0,1000.0,M-L,1.0,L,M,3.0,2.0,garbagecan,basketball,garbagecan5,basketball1,34.0,50.0,/static/Size_judgement/Stimuli/Size_stims/L/garbagecan/garbagecan3.jpg,/static/Size_judgement/Stimuli/Size_stims/M/basketball/basketball9.jpg,0.0,basketball,garbagecan,M,L,2.0,3.0,basketball1,garbagecan5,0.0,259.341,0.841,0.0,
213,,size_choice_confirmation,,html-keyboard-response,213,144236,0.0-1.0-331.0-0.0,0,0,96878,,,,,,82.0,,,,,,,,,,,,,,,,,,,,,,,,,,,,260.0,0.659,,
214,,iti,,html-keyboard-response,214,144338,0.0-1.0-332.0,0,0,96878,,,,,,,,,,,,,,,,,,,,,,,,,,,,,,,,,,261.0,1.0,,
215,,size_choice,,html-keyboard-response,215,145841,0.0-1.0-334.0,0,0,96878,,,,,,83.0,83.0,2.0,3000.0,S-XL,1.0,XL,S,4.0,1.0,crane,screws,crane3,screws7,162.0,126.0,/static/Size_judgement/Stimuli/Size_stims/XL/crane/crane4.jpg,/static/Size_judgement/Stimuli/Size_stims/S/screws/screws1.jpg,,,,,,,,,,,262.5,1.5,1.0,
216,,iti,,html-keyboard-response,216,145946,0.0-1.0-336.0,0,0,96878,,,,,,,,,,,,,,,,,,,,,,,,,,,,,,,,,,265.5,3.0,,
217,,size_choice,,html-keyboard-response,217,146993,0.0-1.0-338.0,0,0,96878,,1046.0,,,68.0,84.0,84.0,2.0,3500.0,S-L,1.0,L,S,3.0,1.0,deskchair,screws,deskchair9,screws3,18.0,122.0,/static/Size_judgement/Stimuli/Size_stims/L/deskchair/deskchair3.jpg,/static/Size_judgement/Stimuli/Size_stims/S/screws/screws7.jpg,1.0,deskchair,screws,L,S,3.0,1.0,deskchair9,screws3,1.0,266.546,1.046,0.0,
218,,size_choice_confirmation,,html-keyboard-response,218,147452,0.0-1.0-339.0-0.0,0,0,96878,,,,,,84.0,,,,,,,,,,,,,,,,,,,,,,,,,,,,267.0,0.454,,
219,,iti,,html-keyboard-response,219,147553,0.0-1.0-340.0,0,0,96878,,,,,,,,,,,,,,,,,,,,,,,,,,,,,,,,,,270.5,3.5,,
220,,size_choice,,html-keyboard-response,220,147753,0.0-1.0-342.0,0,0,96878,,199.0,,,75.0,85.0,85.0,2.0,1500.0,S-L,0.0,S,L,1.0,3.0,die,mailbox,die7,mailbox2,106.0,41.0,/static/Size_judgement/Stimuli/Size_stims/S/die/die4.jpg,/static/Size_judgement/Stimuli/Size_stims/L/mailbox/mailbox2.jpg,0.0,mailbox,die,L,S,3.0,1.0,mailbox2,die7,1.0,270.699,0.199,0.0,
221,,size_choice_confirmation,,html-keyboard-response,221,149058,0.0-1.0-343.0-0.0,0,0,96878,,,,,,85.0,,,,,,,,,,,,,,,,,,,,,,,,,,,,272.0,1.301,,
222,,iti,,html-keyboard-response,222,149164,0.0-1.0-344.0,0,0,96878,,,,,,,,,,,,,,,,,,,,,,,,,,,,,,,,,,273.5,1.5,,
223,,size_choice,,html-keyboard-response,223,149293,0.0-1.0-346.0,0,0,96878,,129.0,,,68.0,86.0,86.0,2.0,1000.0,M-XL,0.0,M,XL,2.0,4.0,coffeemaker,tractor,coffeemaker9,tractor3,68.0,182.0,/static/Size_judgement/Stimuli/Size_stims/M/coffeemaker/coffeemaker7.jpg,/static/Size_judgement/Stimuli/Size_stims/XL/tractor/tractor5.jpg,1.0,coffeemaker,tractor,M,XL,2.0,4.0,coffeemaker9,tractor3,0.0,273.629,0.129,0.0,
224,,size_choice_confirmation,,html-keyboard-response,224,150665,0.0-1.0-347.0-0.0,0,0,96878,,,,,,86.0,,,,,,,,,,,,,,,,,,,,,,,,,,,,275.0,1.371,,
225,,iti,,html-keyboard-response,225,150770,0.0-1.0-348.0,0,0,96878,,,,,,,,,,,,,,,,,,,,,,,,,,,,,,,,,,276.0,1.0,,
226,,size_choice,,html-keyboard-response,226,151228,0.0-1.0-350.0,0,0,96878,,457.0,,,75.0,87.0,87.0,2.0,1000.0,XL-XL,,XL,XL,4.0,4.0,van,tractor,van9,tractor1,198.0,180.0,/static/Size_judgement/Stimuli/Size_stims/XL/van/van9.jpg,/static/Size_judgement/Stimuli/Size_stims/XL/tractor/tractor6.jpg,0.0,tractor,van,XL,XL,4.0,4.0,tractor1,van9,,276.457,0.457,0.0,
227,,size_choice_confirmation,,html-keyboard-response,227,152273,0.0-1.0-351.0-0.0,0,0,96878,,,,,,87.0,,,,,,,,,,,,,,,,,,,,,,,,,,,,277.5,1.043,,
228,,iti,,html-keyboard-response,228,152376,0.0-1.0-352.0,0,0,96878,,,,,,,,,,,,,,,,,,,,,,,,,,,,,,,,,,278.5,1.0,,
229,,size_choice,,html-keyboard-response,229,152691,0.0-1.0-354.0,0,0,96878,,314.0,,,68.0,88.0,88.0,2.0,1500.0,S-XL,1.0,XL,S,4.0,1.0,crane,die,crane7,die4,166.0,103.0,/static/Size_judgement/Stimuli/Size_stims/XL/crane/crane3.jpg,/static/Size_judgement/Stimuli/Size_stims/S/die/die2.jpg,1.0,crane,die,XL,S,4.0,1.0,crane7,die4,1.0,278.814,0.314,0.0,
230,,size_choice_confirmation,,html-keyboard-response,230,153880,0.0-1.0-355.0-0.0,0,0,96878,,,,,,88.0,,,,,,,,,,,,,,,,,,,,,,,,,,,,280.0,1.186,,
231,,iti,,html-keyboard-response,231,153982,0.0-1.0-356.0,0,0,96878,,,,,,,,,,,,,,,,,,,,,,,,,,,,,,,,,,281.5,1.5,,
232,,size_choice,,html-keyboard-response,232,154339,0.0-1.0-358.0,0,0,96878,,357.0,,,75.0,89.0,89.0,2.0,1000.0,M-L,0.0,M,L,2.0,3.0,coffeemaker,mailbox,coffeemaker8,mailbox8,67.0,47.0,/static/Size_judgement/Stimuli/Size_stims/M/coffeemaker/coffeemaker5.jpg,/static/Size_judgement/Stimuli/Size_stims/L/mailbox/mailbox10.jpg,0.0,mailbox,coffeemaker,L,M,3.0,2.0,mailbox8,coffeemaker8,1.0,281.857,0.357,0.0,
233,,size_choice_confirmation,,html-keyboard-response,233,155485,0.0-1.0-359.0-0.0,0,0,96878,,,,,,89.0,,,,,,,,,,,,,,,,,,,,,,,,,,,,283.0,1.143,,
234,,iti,,html-keyboard-response,234,155589,0.0-1.0-360.0,0,0,96878,,,,,,,,,,,,,,,,,,,,,,,,,,,,,,,,,,284.0,1.0,,0.3
235,,size_final_tally,,html-keyboard-response,235,158961,0.0-2.0,0,0,96878,,3371.0,,,68.0,,,,,,,,,,,,,,,,,,,,,,,,,,,,,,,,
