,success,ttype,start_time,trial_type,trial_index,time_elapsed,internal_node_id,warning,missed_checkup,PID,view_history,rt,responses,repeat_instructions,key_press,index,trial_num,block,iti,pair_type,high_size_on_left,left_size_group,right_size_group,left_size_num,right_size_num,left_category,right_category,left_exemplar,right_exemplar,left_index,right_index,left_img_path,right_img_path,accuracy,onset,duration,no_response,left_chosen,chosen_category,unchosen_category,chosen_size_group,unchosen_size_group,chosen_size_num,unchosen_size_num,chosen_exemplar,unchosen_exemplar,size_final_tally
0,True,full_screen,d06072022hr1222,fullscreen,0,6131,0.0-0.0,0,0,87963,,,,,,,,,,,,,,,,,,,,,,,,,,,,,,,,,,,,,
1,,size_instructions,,instructions,1,22761,0.0-1.0-0.0-0.0,0,0,87963,"[{""page_index"":0,""viewing_time"":4789},{""page_index"":1,""viewing_time"":3679},{""page_index"":2,""viewing_time"":4124},{""page_index"":3,""viewing_time"":1901},{""page_index"":4,""viewing_time"":1479},{""page_index"":5,""viewing_time"":655}]",16628.0,,,,,,,,,,,,,,,,,,,,,,,,,,,,,,,,,,,
2,,size_comprehension_check,,survey-multi-choice,2,32906,0.0-1.0-0.0-1.0,0,0,87963,,10141.0,"{""Q0"":""True"",""Q1"":""Size in the real world"",""Q2"":""True"",""Q3"":""D for left and K for right""}",0.0,,,,,,,,,,,,,,,,,,,,,,,,,,,,,,,,,
3,,,,html-keyboard-response,3,33813,0.0-1.0-1.0,0,0,87963,,903.0,,,68.0,,,,,,,,,,,,,,,,,,,,,,,,,,,,,,,,
4,,size_choice,,html-keyboard-response,4,35316,0.0-1.0-2.0,0,0,87963,,,,,,0.0,0.0,1.0,1500.0,S-M,0.0,S,M,1.0,2.0,die,basketball,die2,basketball9,101.0,58.0,/static/Size_judgement/Stimuli/Size_stims/S/die/die9.jpg,/static/Size_judgement/Stimuli/Size_stims/M/basketball/basketball5.jpg,,1.5,1.5,1.0,,,,,,,,,,
5,,iti,,html-keyboard-response,5,36818,0.0-1.0-4.0,0,0,87963,,,,,,0.0,,1.0,,,,,,,,,,,,,,,,,3.0,1.5,,,,,,,,,,,
6,,size_choice,,html-keyboard-response,6,37941,0.0-1.0-6.0,0,0,87963,,1120.0,,,68.0,1.0,1.0,1.0,1500.0,S-L,1.0,L,S,3.0,1.0,cooler,die,cooler7,die7,6.0,106.0,/static/Size_judgement/Stimuli/Size_stims/L/cooler/cooler4.jpg,/static/Size_judgement/Stimuli/Size_stims/S/die/die4.jpg,1.0,4.12,1.12,0.0,1.0,cooler,die,L,S,3.0,1.0,cooler7,die7,
7,,size_choice_confirmation,,html-keyboard-response,7,38325,0.0-1.0-7.0-0.0,0,0,87963,,,,,,1.0,,1.0,,,,,,,,,,,,,,,,,4.5,0.38,,,,,,,,,,,
8,,iti,,html-keyboard-response,8,39826,0.0-1.0-8.0,0,0,87963,,,,,,1.0,,1.0,,,,,,,,,,,,,,,,,6.0,1.5,,,,,,,,,,,
9,,size_choice,,html-keyboard-response,9,40693,0.0-1.0-10.0,0,0,87963,,864.0,,,68.0,2.0,2.0,1.0,3000.0,M-XL,1.0,XL,M,4.0,2.0,car,hairdryer,car3,hairdryer4,152.0,73.0,/static/Size_judgement/Stimuli/Size_stims/XL/car/car4.jpg,/static/Size_judgement/Stimuli/Size_stims/M/hairdryer/hairdryer16.jpg,1.0,6.864,0.864,0.0,1.0,car,hairdryer,XL,M,4.0,2.0,car3,hairdryer4,
10,,size_choice_confirmation,,html-keyboard-response,10,41331,0.0-1.0-11.0-0.0,0,0,87963,,,,,,2.0,,1.0,,,,,,,,,,,,,,,,,7.5,0.636,,,,,,,,,,,
11,,iti,,html-keyboard-response,11,44333,0.0-1.0-12.0,0,0,87963,,,,,,2.0,,1.0,,,,,,,,,,,,,,,,,10.5,3.0,,,,,,,,,,,
12,,size_choice,,html-keyboard-response,12,45287,0.0-1.0-14.0,0,0,87963,,949.0,,,68.0,3.0,3.0,1.0,1000.0,M-L,1.0,L,M,3.0,2.0,garbagecan,ketchup,garbagecan10,ketchup8,39.0,97.0,/static/Size_judgement/Stimuli/Size_stims/L/garbagecan/garbagecan11.jpg,/static/Size_judgement/Stimuli/Size_stims/M/ketchup/ketchup5.jpg,1.0,11.449,0.949,0.0,1.0,garbagecan,ketchup,L,M,3.0,2.0,garbagecan10,ketchup8,
13,,size_choice_confirmation,,html-keyboard-response,13,45841,0.0-1.0-15.0-0.0,0,0,87963,,,,,,3.0,,1.0,,,,,,,,,,,,,,,,,12.0,0.551,,,,,,,,,,,
14,,iti,,html-keyboard-response,14,46843,0.0-1.0-16.0,0,0,87963,,,,,,3.0,,1.0,,,,,,,,,,,,,,,,,13.0,1.0,,,,,,,,,,,
15,,size_choice,,html-keyboard-response,15,47879,0.0-1.0-18.0,0,0,87963,,1034.0,,,75.0,4.0,4.0,1.0,2000.0,S-S,,S,S,1.0,1.0,thread,teabag,thread6,teabag4,145.0,133.0,/static/Size_judgement/Stimuli/Size_stims/S/thread/thread2.jpg,/static/Size_judgement/Stimuli/Size_stims/S/teabag/teabag3.jpg,,14.034,1.034,0.0,0.0,teabag,thread,S,S,1.0,1.0,teabag4,thread6,
16,,size_choice_confirmation,,html-keyboard-response,16,48348,0.0-1.0-19.0-0.0,0,0,87963,,,,,,4.0,,1.0,,,,,,,,,,,,,,,,,14.5,0.466,,,,,,,,,,,
17,,iti,,html-keyboard-response,17,50350,0.0-1.0-20.0,0,0,87963,,,,,,4.0,,1.0,,,,,,,,,,,,,,,,,16.5,2.0,,,,,,,,,,,
18,,size_choice,,html-keyboard-response,18,51503,0.0-1.0-22.0,0,0,87963,,1151.0,,,68.0,5.0,5.0,1.0,3000.0,M-XL,1.0,XL,M,4.0,2.0,tractor,ketchup,tractor8,ketchup1,187.0,90.0,/static/Size_judgement/Stimuli/Size_stims/XL/tractor/tractor10.jpg,/static/Size_judgement/Stimuli/Size_stims/M/ketchup/ketchup8.jpg,1.0,17.651,1.151,0.0,1.0,tractor,ketchup,XL,M,4.0,2.0,tractor8,ketchup1,
19,,size_choice_confirmation,,html-keyboard-response,19,51890,0.0-1.0-23.0-0.0,0,0,87963,,,,,,5.0,,1.0,,,,,,,,,,,,,,,,,18.0,0.349,,,,,,,,,,,
20,,iti,,html-keyboard-response,20,54893,0.0-1.0-24.0,0,0,87963,,,,,,5.0,,1.0,,,,,,,,,,,,,,,,,21.0,3.0,,,,,,,,,,,
21,,size_choice,,html-keyboard-response,21,55967,0.0-1.0-26.0,0,0,87963,,1073.0,,,75.0,6.0,6.0,1.0,1000.0,S-S,,S,S,1.0,1.0,paperclip,teabag,paperclip3,teabag2,112.0,131.0,/static/Size_judgement/Stimuli/Size_stims/S/paperclip/paperclip1.jpg,/static/Size_judgement/Stimuli/Size_stims/S/teabag/teabag8.jpg,,22.073,1.073,0.0,0.0,teabag,paperclip,S,S,1.0,1.0,teabag2,paperclip3,
22,,size_choice_confirmation,,html-keyboard-response,22,56398,0.0-1.0-27.0-0.0,0,0,87963,,,,,,6.0,,1.0,,,,,,,,,,,,,,,,,22.5,0.427,,,,,,,,,,,
23,,iti,,html-keyboard-response,23,57400,0.0-1.0-28.0,0,0,87963,,,,,,6.0,,1.0,,,,,,,,,,,,,,,,,23.5,1.0,,,,,,,,,,,
24,,size_choice,,html-keyboard-response,24,58057,0.0-1.0-30.0,0,0,87963,,654.0,,,75.0,7.0,7.0,1.0,1000.0,S-M,0.0,S,M,1.0,2.0,paperclip,hairdryer,paperclip1,hairdryer6,110.0,75.0,/static/Size_judgement/Stimuli/Size_stims/S/paperclip/paperclip9.jpg,/static/Size_judgement/Stimuli/Size_stims/M/hairdryer/hairdryer8.jpg,1.0,24.154,0.654,0.0,0.0,hairdryer,paperclip,M,S,2.0,1.0,hairdryer6,paperclip1,
25,,size_choice_confirmation,,html-keyboard-response,25,58907,0.0-1.0-31.0-0.0,0,0,87963,,,,,,7.0,,1.0,,,,,,,,,,,,,,,,,25.0,0.846,,,,,,,,,,,
26,,iti,,html-keyboard-response,26,59910,0.0-1.0-32.0,0,0,87963,,,,,,7.0,,1.0,,,,,,,,,,,,,,,,,26.0,1.0,,,,,,,,,,,
27,,size_choice,,html-keyboard-response,27,61024,0.0-1.0-34.0,0,0,87963,,1112.0,,,68.0,8.0,8.0,1.0,1500.0,S-L,1.0,L,S,3.0,1.0,garbagecan,die,garbagecan6,die4,35.0,103.0,/static/Size_judgement/Stimuli/Size_stims/L/garbagecan/garbagecan14.jpg,/static/Size_judgement/Stimuli/Size_stims/S/die/die2.jpg,1.0,27.112,1.112,0.0,1.0,garbagecan,die,L,S,3.0,1.0,garbagecan6,die4,
28,,size_choice_confirmation,,html-keyboard-response,28,61414,0.0-1.0-35.0-0.0,0,0,87963,,,,,,8.0,,1.0,,,,,,,,,,,,,,,,,27.500000000000004,0.388,,,,,,,,,,,
29,,iti,,html-keyboard-response,29,62916,0.0-1.0-36.0,0,0,87963,,,,,,8.0,,1.0,,,,,,,,,,,,,,,,,29.000000000000004,1.5,,,,,,,,,,,
30,,size_choice,,html-keyboard-response,30,63823,0.0-1.0-38.0,0,0,87963,,906.0,,,68.0,9.0,9.0,1.0,1000.0,L-L,,L,L,3.0,3.0,garbagecan,deskchair,garbagecan8,deskchair6,37.0,15.0,/static/Size_judgement/Stimuli/Size_stims/L/garbagecan/garbagecan13.jpg,/static/Size_judgement/Stimuli/Size_stims/L/deskchair/deskchair5.jpg,,29.906,0.906,0.0,1.0,garbagecan,deskchair,L,L,3.0,3.0,garbagecan8,deskchair6,
31,,size_choice_confirmation,,html-keyboard-response,31,64420,0.0-1.0-39.0-0.0,0,0,87963,,,,,,9.0,,1.0,,,,,,,,,,,,,,,,,30.500000000000004,0.594,,,,,,,,,,,
32,,iti,,html-keyboard-response,32,65426,0.0-1.0-40.0,0,0,87963,,,,,,9.0,,1.0,,,,,,,,,,,,,,,,,31.500000000000004,1.0,,,,,,,,,,,
33,,size_choice,,html-keyboard-response,33,66392,0.0-1.0-42.0,0,0,87963,,964.0,,,68.0,10.0,10.0,1.0,1000.0,S-XL,1.0,XL,S,4.0,1.0,crane,screws,crane7,screws3,166.0,122.0,/static/Size_judgement/Stimuli/Size_stims/XL/crane/crane3.jpg,/static/Size_judgement/Stimuli/Size_stims/S/screws/screws7.jpg,1.0,32.464000000000006,0.964,0.0,1.0,crane,screws,XL,S,4.0,1.0,crane7,screws3,
34,,size_choice_confirmation,,html-keyboard-response,34,66932,0.0-1.0-43.0-0.0,0,0,87963,,,,,,10.0,,1.0,,,,,,,,,,,,,,,,,33.00000000000001,0.536,,,,,,,,,,,
35,,iti,,html-keyboard-response,35,67934,0.0-1.0-44.0,0,0,87963,,,,,,10.0,,1.0,,,,,,,,,,,,,,,,,34.00000000000001,1.0,,,,,,,,,,,
36,,size_choice,,html-keyboard-response,36,69041,0.0-1.0-46.0,0,0,87963,,1105.0,,,68.0,11.0,11.0,1.0,2000.0,M-L,1.0,L,M,3.0,2.0,deskchair,coffeemaker,deskchair1,coffeemaker3,10.0,62.0,/static/Size_judgement/Stimuli/Size_stims/L/deskchair/deskchair9.jpg,/static/Size_judgement/Stimuli/Size_stims/M/coffeemaker/coffeemaker13.jpg,1.0,35.105000000000004,1.105,0.0,1.0,deskchair,coffeemaker,L,M,3.0,2.0,deskchair1,coffeemaker3,
37,,size_choice_confirmation,,html-keyboard-response,37,69439,0.0-1.0-47.0-0.0,0,0,87963,,,,,,11.0,,1.0,,,,,,,,,,,,,,,,,35.50000000000001,0.395,,,,,,,,,,,
38,,iti,,html-keyboard-response,38,71441,0.0-1.0-48.0,0,0,87963,,,,,,11.0,,1.0,,,,,,,,,,,,,,,,,37.50000000000001,2.0,,,,,,,,,,,
39,,size_choice,,html-keyboard-response,39,72944,0.0-1.0-50.0,0,0,87963,,,,,,12.0,12.0,1.0,3500.0,L-L,,L,L,3.0,3.0,deskchair,garbagecan,deskchair2,garbagecan5,11.0,34.0,/static/Size_judgement/Stimuli/Size_stims/L/deskchair/deskchair8.jpg,/static/Size_judgement/Stimuli/Size_stims/L/garbagecan/garbagecan3.jpg,,39.00000000000001,1.5,1.0,,,,,,,,,,
40,,iti,,html-keyboard-response,40,76446,0.0-1.0-52.0,0,0,87963,,,,,,12.0,,1.0,,,,,,,,,,,,,,,,,42.50000000000001,3.5,,,,,,,,,,,
41,,size_choice,,html-keyboard-response,41,77598,0.0-1.0-54.0,0,0,87963,,1151.0,,,68.0,13.0,13.0,1.0,3500.0,M-L,1.0,L,M,3.0,2.0,dishwasher,coffeemaker,dishwasher6,coffeemaker7,25.0,66.0,/static/Size_judgement/Stimuli/Size_stims/L/dishwasher/dishwasher6.jpg,/static/Size_judgement/Stimuli/Size_stims/M/coffeemaker/coffeemaker9.jpg,1.0,43.65100000000001,1.151,0.0,1.0,dishwasher,coffeemaker,L,M,3.0,2.0,dishwasher6,coffeemaker7,
42,,size_choice_confirmation,,html-keyboard-response,42,77949,0.0-1.0-55.0-0.0,0,0,87963,,,,,,13.0,,1.0,,,,,,,,,,,,,,,,,44.00000000000001,0.349,,,,,,,,,,,
43,,iti,,html-keyboard-response,43,81492,0.0-1.0-56.0,0,0,87963,,,,,,13.0,,1.0,,,,,,,,,,,,,,,,,47.50000000000001,3.5,,,,,,,,,,,
44,,size_choice,,html-keyboard-response,44,82285,0.0-1.0-58.0,0,0,87963,,790.0,,,75.0,14.0,14.0,1.0,1000.0,S-L,0.0,S,L,1.0,3.0,screws,deskchair,screws5,deskchair3,124.0,12.0,/static/Size_judgement/Stimuli/Size_stims/S/screws/screws2.jpg,/static/Size_judgement/Stimuli/Size_stims/L/deskchair/deskchair10.jpg,1.0,48.290000000000006,0.79,0.0,0.0,deskchair,screws,L,S,3.0,1.0,deskchair3,screws5,
45,,size_choice_confirmation,,html-keyboard-response,45,82998,0.0-1.0-59.0-0.0,0,0,87963,,,,,,14.0,,1.0,,,,,,,,,,,,,,,,,49.00000000000001,0.71,,,,,,,,,,,
46,,iti,,html-keyboard-response,46,84000,0.0-1.0-60.0,0,0,87963,,,,,,14.0,,1.0,,,,,,,,,,,,,,,,,50.00000000000001,1.0,,,,,,,,,,,
47,,size_choice,,html-keyboard-response,47,84854,0.0-1.0-62.0,0,0,87963,,852.0,,,68.0,15.0,15.0,1.0,2000.0,L-XL,1.0,XL,L,4.0,3.0,van,dishwasher,van9,dishwasher10,198.0,29.0,/static/Size_judgement/Stimuli/Size_stims/XL/van/van9.jpg,/static/Size_judgement/Stimuli/Size_stims/L/dishwasher/dishwasher1.jpg,1.0,50.852,0.852,0.0,1.0,van,dishwasher,XL,L,4.0,3.0,van9,dishwasher10,
48,,size_choice_confirmation,,html-keyboard-response,48,85510,0.0-1.0-63.0-0.0,0,0,87963,,,,,,15.0,,1.0,,,,,,,,,,,,,,,,,51.50000000000001,0.648,,,,,,,,,,,
49,,iti,,html-keyboard-response,49,87512,0.0-1.0-64.0,0,0,87963,,,,,,15.0,,1.0,,,,,,,,,,,,,,,,,53.50000000000001,2.0,,,,,,,,,,,
50,,size_choice,,html-keyboard-response,50,88294,0.0-1.0-66.0,0,0,87963,,781.0,,,75.0,16.0,16.0,1.0,1500.0,S-S,,S,S,1.0,1.0,die,screws,die3,screws8,102.0,127.0,/static/Size_judgement/Stimuli/Size_stims/S/die/die10.jpg,/static/Size_judgement/Stimuli/Size_stims/S/screws/screws10.jpg,,54.281000000000006,0.781,0.0,0.0,screws,die,S,S,1.0,1.0,screws8,die3,
51,,size_choice_confirmation,,html-keyboard-response,51,89016,0.0-1.0-67.0-0.0,0,0,87963,,,,,,16.0,,1.0,,,,,,,,,,,,,,,,,55.00000000000001,0.719,,,,,,,,,,,
52,,iti,,html-keyboard-response,52,90518,0.0-1.0-68.0,0,0,87963,,,,,,16.0,,1.0,,,,,,,,,,,,,,,,,56.50000000000001,1.5,,,,,,,,,,,
53,,size_choice,,html-keyboard-response,53,91502,0.0-1.0-70.0,0,0,87963,,979.0,,,75.0,17.0,17.0,1.0,1500.0,M-M,,M,M,2.0,2.0,ketchup,handsaw,ketchup2,handsaw8,91.0,87.0,/static/Size_judgement/Stimuli/Size_stims/M/ketchup/ketchup9.jpg,/static/Size_judgement/Stimuli/Size_stims/M/handsaw/handsaw7.jpg,,57.479000000000006,0.979,0.0,0.0,handsaw,ketchup,M,M,2.0,2.0,handsaw8,ketchup2,
54,,size_choice_confirmation,,html-keyboard-response,54,92026,0.0-1.0-71.0-0.0,0,0,87963,,,,,,17.0,,1.0,,,,,,,,,,,,,,,,,58.00000000000001,0.521,,,,,,,,,,,
55,,iti,,html-keyboard-response,55,93527,0.0-1.0-72.0,0,0,87963,,,,,,17.0,,1.0,,,,,,,,,,,,,,,,,59.50000000000001,1.5,,,,,,,,,,,
56,,size_choice,,html-keyboard-response,56,94532,0.0-1.0-74.0,0,0,87963,,1003.0,,,68.0,18.0,18.0,1.0,1000.0,M-L,1.0,L,M,3.0,2.0,cooler,basketball,cooler4,basketball6,3.0,55.0,/static/Size_judgement/Stimuli/Size_stims/L/cooler/cooler3.jpg,/static/Size_judgement/Stimuli/Size_stims/M/basketball/basketball2.jpg,1.0,60.50300000000001,1.003,0.0,1.0,cooler,basketball,L,M,3.0,2.0,cooler4,basketball6,
57,,size_choice_confirmation,,html-keyboard-response,57,95032,0.0-1.0-75.0-0.0,0,0,87963,,,,,,18.0,,1.0,,,,,,,,,,,,,,,,,61.00000000000001,0.497,,,,,,,,,,,
58,,iti,,html-keyboard-response,58,96033,0.0-1.0-76.0,0,0,87963,,,,,,18.0,,1.0,,,,,,,,,,,,,,,,,62.00000000000001,1.0,,,,,,,,,,,
59,,size_choice,,html-keyboard-response,59,96773,0.0-1.0-78.0,0,0,87963,,738.0,,,68.0,19.0,19.0,1.0,1500.0,S-XL,1.0,XL,S,4.0,1.0,tractor,teabag,tractor6,teabag10,185.0,139.0,/static/Size_judgement/Stimuli/Size_stims/XL/tractor/tractor3.jpg,/static/Size_judgement/Stimuli/Size_stims/S/teabag/teabag4.jpg,1.0,62.73800000000001,0.738,0.0,1.0,tractor,teabag,XL,S,4.0,1.0,tractor6,teabag10,
60,,size_choice_confirmation,,html-keyboard-response,60,97537,0.0-1.0-79.0-0.0,0,0,87963,,,,,,19.0,,1.0,,,,,,,,,,,,,,,,,63.50000000000001,0.762,,,,,,,,,,,
61,,iti,,html-keyboard-response,61,99039,0.0-1.0-80.0,0,0,87963,,,,,,19.0,,1.0,,,,,,,,,,,,,,,,,65.0,1.5,,,,,,,,,,,
62,,size_choice,,html-keyboard-response,62,99914,0.0-1.0-82.0,0,0,87963,,873.0,,,75.0,20.0,20.0,1.0,2000.0,M-XL,0.0,M,XL,2.0,4.0,handsaw,tractor,handsaw1,tractor2,80.0,181.0,/static/Size_judgement/Stimuli/Size_stims/M/handsaw/handsaw8.jpg,/static/Size_judgement/Stimuli/Size_stims/XL/tractor/tractor7.jpg,1.0,65.873,0.873,0.0,0.0,tractor,handsaw,XL,M,4.0,2.0,tractor2,handsaw1,
63,,size_choice_confirmation,,html-keyboard-response,63,100544,0.0-1.0-83.0-0.0,0,0,87963,,,,,,20.0,,1.0,,,,,,,,,,,,,,,,,66.5,0.627,,,,,,,,,,,
64,,iti,,html-keyboard-response,64,102545,0.0-1.0-84.0,0,0,87963,,,,,,20.0,,1.0,,,,,,,,,,,,,,,,,68.5,2.0,,,,,,,,,,,
65,,size_choice,,html-keyboard-response,65,103541,0.0-1.0-86.0,0,0,87963,,995.0,,,68.0,21.0,21.0,1.0,1000.0,L-L,,L,L,3.0,3.0,mailbox,garbagecan,mailbox2,garbagecan7,41.0,36.0,/static/Size_judgement/Stimuli/Size_stims/L/mailbox/mailbox2.jpg,/static/Size_judgement/Stimuli/Size_stims/L/garbagecan/garbagecan16.jpg,,69.495,0.995,0.0,1.0,mailbox,garbagecan,L,L,3.0,3.0,mailbox2,garbagecan7,
66,,size_choice_confirmation,,html-keyboard-response,66,104049,0.0-1.0-87.0-0.0,0,0,87963,,,,,,21.0,,1.0,,,,,,,,,,,,,,,,,70.0,0.505,,,,,,,,,,,
67,,iti,,html-keyboard-response,67,105079,0.0-1.0-88.0,0,0,87963,,,,,,21.0,,1.0,,,,,,,,,,,,,,,,,71.0,1.0,,,,,,,,,,,
68,,size_choice,,html-keyboard-response,68,105748,0.0-1.0-90.0,0,0,87963,,667.0,,,75.0,22.0,22.0,1.0,2000.0,M-M,,M,M,2.0,2.0,ketchup,hairdryer,ketchup5,hairdryer5,94.0,74.0,/static/Size_judgement/Stimuli/Size_stims/M/ketchup/ketchup3.jpg,/static/Size_judgement/Stimuli/Size_stims/M/hairdryer/hairdryer15.jpg,,71.667,0.667,0.0,0.0,hairdryer,ketchup,M,M,2.0,2.0,hairdryer5,ketchup5,
69,,size_choice_confirmation,,html-keyboard-response,69,106584,0.0-1.0-91.0-0.0,0,0,87963,,,,,,22.0,,1.0,,,,,,,,,,,,,,,,,72.5,0.833,,,,,,,,,,,
70,,iti,,html-keyboard-response,70,108592,0.0-1.0-92.0,0,0,87963,,,,,,22.0,,1.0,,,,,,,,,,,,,,,,,74.5,2.0,,,,,,,,,,,
71,,size_choice,,html-keyboard-response,71,109460,0.0-1.0-94.0,0,0,87963,,862.0,,,68.0,23.0,23.0,1.0,1000.0,M-XL,1.0,XL,M,4.0,2.0,crane,basketball,crane6,basketball5,165.0,54.0,/static/Size_judgement/Stimuli/Size_stims/XL/crane/crane2.jpg,/static/Size_judgement/Stimuli/Size_stims/M/basketball/basketball3.jpg,1.0,75.362,0.862,0.0,1.0,crane,basketball,XL,M,4.0,2.0,crane6,basketball5,
72,,size_choice_confirmation,,html-keyboard-response,72,110101,0.0-1.0-95.0-0.0,0,0,87963,,,,,,23.0,,1.0,,,,,,,,,,,,,,,,,76.0,0.638,,,,,,,,,,,
73,,iti,,html-keyboard-response,73,111102,0.0-1.0-96.0,0,0,87963,,,,,,23.0,,1.0,,,,,,,,,,,,,,,,,77.0,1.0,,,,,,,,,,,
74,,size_choice,,html-keyboard-response,74,111873,0.0-1.0-98.0,0,0,87963,,764.0,,,75.0,24.0,24.0,1.0,2000.0,M-XL,0.0,M,XL,2.0,4.0,coffeemaker,tractor,coffeemaker5,tractor9,64.0,188.0,/static/Size_judgement/Stimuli/Size_stims/M/coffeemaker/coffeemaker10.jpg,/static/Size_judgement/Stimuli/Size_stims/XL/tractor/tractor9.jpg,1.0,77.764,0.764,0.0,0.0,tractor,coffeemaker,XL,M,4.0,2.0,tractor9,coffeemaker5,
75,,size_choice_confirmation,,html-keyboard-response,75,112612,0.0-1.0-99.0-0.0,0,0,87963,,,,,,24.0,,1.0,,,,,,,,,,,,,,,,,78.5,0.736,,,,,,,,,,,
76,,iti,,html-keyboard-response,76,114614,0.0-1.0-100.0,0,0,87963,,,,,,24.0,,1.0,,,,,,,,,,,,,,,,,80.5,2.0,,,,,,,,,,,
77,,size_choice,,html-keyboard-response,77,115647,0.0-1.0-102.0,0,0,87963,,1031.0,,,68.0,25.0,25.0,1.0,1000.0,L-XL,1.0,XL,L,4.0,3.0,dumptruck,dishwasher,dumptruck10,dishwasher7,179.0,26.0,/static/Size_judgement/Stimuli/Size_stims/XL/dumptruck/dumptruck4.jpg,/static/Size_judgement/Stimuli/Size_stims/L/dishwasher/dishwasher7.jpg,1.0,81.531,1.031,0.0,1.0,dumptruck,dishwasher,XL,L,4.0,3.0,dumptruck10,dishwasher7,
78,,size_choice_confirmation,,html-keyboard-response,78,116118,0.0-1.0-103.0-0.0,0,0,87963,,,,,,25.0,,1.0,,,,,,,,,,,,,,,,,82.0,0.469,,,,,,,,,,,
79,,iti,,html-keyboard-response,79,117123,0.0-1.0-104.0,0,0,87963,,,,,,25.0,,1.0,,,,,,,,,,,,,,,,,83.0,1.0,,,,,,,,,,,
80,,size_choice,,html-keyboard-response,80,117767,0.0-1.0-106.0,0,0,87963,,641.0,,,68.0,26.0,26.0,1.0,1000.0,S-XL,1.0,XL,S,4.0,1.0,dumptruck,die,dumptruck4,die1,173.0,100.0,/static/Size_judgement/Stimuli/Size_stims/XL/dumptruck/dumptruck1.jpg,/static/Size_judgement/Stimuli/Size_stims/S/die/die8.jpg,1.0,83.641,0.641,0.0,1.0,dumptruck,die,XL,S,4.0,1.0,dumptruck4,die1,
81,,size_choice_confirmation,,html-keyboard-response,81,118629,0.0-1.0-107.0-0.0,0,0,87963,,,,,,26.0,,1.0,,,,,,,,,,,,,,,,,84.5,0.859,,,,,,,,,,,
82,,iti,,html-keyboard-response,82,119630,0.0-1.0-108.0,0,0,87963,,,,,,26.0,,1.0,,,,,,,,,,,,,,,,,85.5,1.0,,,,,,,,,,,
83,,size_choice,,html-keyboard-response,83,120366,0.0-1.0-110.0,0,0,87963,,734.0,,,75.0,27.0,27.0,1.0,1500.0,M-XL,0.0,M,XL,2.0,4.0,coffeemaker,dumptruck,coffeemaker8,dumptruck5,67.0,174.0,/static/Size_judgement/Stimuli/Size_stims/M/coffeemaker/coffeemaker5.jpg,/static/Size_judgement/Stimuli/Size_stims/XL/dumptruck/dumptruck3.jpg,1.0,86.234,0.734,0.0,0.0,dumptruck,coffeemaker,XL,M,4.0,2.0,dumptruck5,coffeemaker8,
84,,size_choice_confirmation,,html-keyboard-response,84,121134,0.0-1.0-111.0-0.0,0,0,87963,,,,,,27.0,,1.0,,,,,,,,,,,,,,,,,87.0,0.766,,,,,,,,,,,
85,,iti,,html-keyboard-response,85,122636,0.0-1.0-112.0,0,0,87963,,,,,,27.0,,1.0,,,,,,,,,,,,,,,,,88.5,1.5,,,,,,,,,,,
86,,size_choice,,html-keyboard-response,86,124146,0.0-1.0-114.0,0,0,87963,,,,,,28.0,28.0,1.0,1500.0,XL-XL,,XL,XL,4.0,4.0,van,car,van6,car4,195.0,153.0,/static/Size_judgement/Stimuli/Size_stims/XL/van/van2.jpg,/static/Size_judgement/Stimuli/Size_stims/XL/car/car6.jpg,,90.0,1.5,1.0,,,,,,,,,,
87,,iti,,html-keyboard-response,87,125647,0.0-1.0-116.0,0,0,87963,,,,,,28.0,,1.0,,,,,,,,,,,,,,,,,91.5,1.5,,,,,,,,,,,
88,,size_choice,,html-keyboard-response,88,126743,0.0-1.0-118.0,0,0,87963,,1094.0,,,68.0,29.0,29.0,1.0,1000.0,S-L,1.0,L,S,3.0,1.0,mailbox,thread,mailbox4,thread1,43.0,140.0,/static/Size_judgement/Stimuli/Size_stims/L/mailbox/mailbox5.jpg,/static/Size_judgement/Stimuli/Size_stims/S/thread/thread7.jpg,1.0,92.594,1.094,0.0,1.0,mailbox,thread,L,S,3.0,1.0,mailbox4,thread1,
89,,size_choice_confirmation,,html-keyboard-response,89,127151,0.0-1.0-119.0-0.0,0,0,87963,,,,,,29.0,,1.0,,,,,,,,,,,,,,,,,93.0,0.406,,,,,,,,,,,
90,,iti,,html-keyboard-response,90,128160,0.0-1.0-120.0,0,0,87963,,,,,,29.0,,1.0,,,,,,,,,,,,,,,,,94.0,1.0,,,,,,,,,,,
91,,size_choice,,html-keyboard-response,91,128776,0.0-1.0-122.0,0,0,87963,,613.0,,,75.0,30.0,30.0,1.0,1000.0,M-XL,0.0,M,XL,2.0,4.0,basketball,dumptruck,basketball4,dumptruck9,53.0,178.0,/static/Size_judgement/Stimuli/Size_stims/M/basketball/basketball1.jpg,/static/Size_judgement/Stimuli/Size_stims/XL/dumptruck/dumptruck5.jpg,1.0,94.613,0.613,0.0,0.0,dumptruck,basketball,XL,M,4.0,2.0,dumptruck9,basketball4,
92,,size_choice_confirmation,,html-keyboard-response,92,129665,0.0-1.0-123.0-0.0,0,0,87963,,,,,,30.0,,1.0,,,,,,,,,,,,,,,,,95.5,0.887,,,,,,,,,,,
93,,iti,,html-keyboard-response,93,130667,0.0-1.0-124.0,0,0,87963,,,,,,30.0,,1.0,,,,,,,,,,,,,,,,,96.5,1.0,,,,,,,,,,,
94,,size_choice,,html-keyboard-response,94,131778,0.0-1.0-126.0,0,0,87963,,1108.0,,,75.0,31.0,31.0,1.0,1000.0,M-L,0.0,M,L,2.0,3.0,ketchup,cooler,ketchup6,cooler9,95.0,8.0,/static/Size_judgement/Stimuli/Size_stims/M/ketchup/ketchup1.jpg,/static/Size_judgement/Stimuli/Size_stims/L/cooler/cooler7.jpg,1.0,97.608,1.108,0.0,0.0,cooler,ketchup,L,M,3.0,2.0,cooler9,ketchup6,
95,,size_choice_confirmation,,html-keyboard-response,95,132172,0.0-1.0-127.0-0.0,0,0,87963,,,,,,31.0,,1.0,,,,,,,,,,,,,,,,,98.0,0.392,,,,,,,,,,,
96,,iti,,html-keyboard-response,96,133174,0.0-1.0-128.0,0,0,87963,,,,,,31.0,,1.0,,,,,,,,,,,,,,,,,99.0,1.0,,,,,,,,,,,
97,,size_choice,,html-keyboard-response,97,134318,0.0-1.0-130.0,0,0,87963,,1141.0,,,75.0,32.0,32.0,1.0,1000.0,XL-XL,,XL,XL,4.0,4.0,car,van,car6,van4,155.0,193.0,/static/Size_judgement/Stimuli/Size_stims/XL/car/car12.jpg,/static/Size_judgement/Stimuli/Size_stims/XL/van/van7.jpg,,100.141,1.141,0.0,0.0,van,car,XL,XL,4.0,4.0,van4,car6,
98,,size_choice_confirmation,,html-keyboard-response,98,134679,0.0-1.0-131.0-0.0,0,0,87963,,,,,,32.0,,1.0,,,,,,,,,,,,,,,,,100.5,0.359,,,,,,,,,,,
99,,iti,,html-keyboard-response,99,135681,0.0-1.0-132.0,0,0,87963,,,,,,32.0,,1.0,,,,,,,,,,,,,,,,,101.5,1.0,,,,,,,,,,,
100,,size_choice,,html-keyboard-response,100,137039,0.0-1.0-134.0,0,0,87963,,1355.0,,,75.0,33.0,33.0,1.0,1000.0,M-M,,M,M,2.0,2.0,hairdryer,basketball,hairdryer3,basketball10,72.0,59.0,/static/Size_judgement/Stimuli/Size_stims/M/hairdryer/hairdryer17.jpg,/static/Size_judgement/Stimuli/Size_stims/M/basketball/basketball4.jpg,,102.855,1.355,0.0,0.0,basketball,hairdryer,M,M,2.0,2.0,basketball10,hairdryer3,
101,,size_choice_confirmation,,html-keyboard-response,101,137188,0.0-1.0-135.0-0.0,0,0,87963,,,,,,33.0,,1.0,,,,,,,,,,,,,,,,,103.0,0.145,,,,,,,,,,,
102,,iti,,html-keyboard-response,102,138189,0.0-1.0-136.0,0,0,87963,,,,,,33.0,,1.0,,,,,,,,,,,,,,,,,104.0,1.0,,,,,,,,,,,
103,,size_choice,,html-keyboard-response,103,139182,0.0-1.0-138.0,0,0,87963,,989.0,,,75.0,34.0,34.0,1.0,3000.0,S-M,0.0,S,M,1.0,2.0,screws,hairdryer,screws7,hairdryer1,126.0,70.0,/static/Size_judgement/Stimuli/Size_stims/S/screws/screws1.jpg,/static/Size_judgement/Stimuli/Size_stims/M/hairdryer/hairdryer11.jpg,1.0,104.989,0.989,0.0,0.0,hairdryer,screws,M,S,2.0,1.0,hairdryer1,screws7,
104,,size_choice_confirmation,,html-keyboard-response,104,139695,0.0-1.0-139.0-0.0,0,0,87963,,,,,,34.0,,1.0,,,,,,,,,,,,,,,,,105.5,0.511,,,,,,,,,,,
105,,iti,,html-keyboard-response,105,142697,0.0-1.0-140.0,0,0,87963,,,,,,34.0,,1.0,,,,,,,,,,,,,,,,,108.5,3.0,,,,,,,,,,,
106,,size_choice,,html-keyboard-response,106,143357,0.0-1.0-142.0,0,0,87963,,658.0,,,68.0,35.0,35.0,1.0,1500.0,S-XL,1.0,XL,S,4.0,1.0,dumptruck,thread,dumptruck2,thread3,171.0,142.0,/static/Size_judgement/Stimuli/Size_stims/XL/dumptruck/dumptruck8.jpg,/static/Size_judgement/Stimuli/Size_stims/S/thread/thread4.jpg,1.0,109.158,0.658,0.0,1.0,dumptruck,thread,XL,S,4.0,1.0,dumptruck2,thread3,
107,,size_choice_confirmation,,html-keyboard-response,107,144207,0.0-1.0-143.0-0.0,0,0,87963,,,,,,35.0,,1.0,,,,,,,,,,,,,,,,,110.0,0.842,,,,,,,,,,,
108,,iti,,html-keyboard-response,108,145708,0.0-1.0-144.0,0,0,87963,,,,,,35.0,,1.0,,,,,,,,,,,,,,,,,111.5,1.5,,,,,,,,,,,
109,,size_choice,,html-keyboard-response,109,146581,0.0-1.0-146.0,0,0,87963,,870.0,,,75.0,36.0,36.0,1.0,2000.0,M-L,0.0,M,L,2.0,3.0,basketball,mailbox,basketball8,mailbox9,57.0,48.0,/static/Size_judgement/Stimuli/Size_stims/M/basketball/basketball7.jpg,/static/Size_judgement/Stimuli/Size_stims/L/mailbox/mailbox9.jpg,1.0,112.37,0.87,0.0,0.0,mailbox,basketball,L,M,3.0,2.0,mailbox9,basketball8,
110,,size_choice_confirmation,,html-keyboard-response,110,147213,0.0-1.0-147.0-0.0,0,0,87963,,,,,,36.0,,1.0,,,,,,,,,,,,,,,,,113.0,0.63,,,,,,,,,,,
111,,iti,,html-keyboard-response,111,149215,0.0-1.0-148.0,0,0,87963,,,,,,36.0,,1.0,,,,,,,,,,,,,,,,,115.0,2.0,,,,,,,,,,,
112,,size_choice,,html-keyboard-response,112,149740,0.0-1.0-150.0,0,0,87963,,523.0,,,75.0,37.0,37.0,1.0,2000.0,S-XL,0.0,S,XL,1.0,4.0,thread,crane,thread5,crane8,144.0,167.0,/static/Size_judgement/Stimuli/Size_stims/S/thread/thread1.jpg,/static/Size_judgement/Stimuli/Size_stims/XL/crane/crane10.jpg,1.0,115.523,0.523,0.0,0.0,crane,thread,XL,S,4.0,1.0,crane8,thread5,
113,,size_choice_confirmation,,html-keyboard-response,113,150725,0.0-1.0-151.0-0.0,0,0,87963,,,,,,37.0,,1.0,,,,,,,,,,,,,,,,,116.5,0.977,,,,,,,,,,,
114,,iti,,html-keyboard-response,114,152727,0.0-1.0-152.0,0,0,87963,,,,,,37.0,,1.0,,,,,,,,,,,,,,,,,118.5,2.0,,,,,,,,,,,
115,,size_choice,,html-keyboard-response,115,153300,0.0-1.0-154.0,0,0,87963,,571.0,,,75.0,38.0,38.0,1.0,1000.0,S-XL,0.0,S,XL,1.0,4.0,paperclip,van,paperclip4,van3,113.0,192.0,/static/Size_judgement/Stimuli/Size_stims/S/paperclip/paperclip3.jpg,/static/Size_judgement/Stimuli/Size_stims/XL/van/van6.jpg,1.0,119.071,0.571,0.0,0.0,van,paperclip,XL,S,4.0,1.0,van3,paperclip4,
116,,size_choice_confirmation,,html-keyboard-response,116,154233,0.0-1.0-155.0-0.0,0,0,87963,,,,,,38.0,,1.0,,,,,,,,,,,,,,,,,120.0,0.929,,,,,,,,,,,
117,,iti,,html-keyboard-response,117,155236,0.0-1.0-156.0,0,0,87963,,,,,,38.0,,1.0,,,,,,,,,,,,,,,,,121.0,1.0,,,,,,,,,,,
118,,size_choice,,html-keyboard-response,118,155989,0.0-1.0-158.0,0,0,87963,,750.0,,,68.0,39.0,39.0,1.0,3500.0,L-XL,1.0,XL,L,4.0,3.0,van,mailbox,van10,mailbox10,199.0,49.0,/static/Size_judgement/Stimuli/Size_stims/XL/van/van8.jpg,/static/Size_judgement/Stimuli/Size_stims/L/mailbox/mailbox8.jpg,1.0,121.75,0.75,0.0,1.0,van,mailbox,XL,L,4.0,3.0,van10,mailbox10,
119,,size_choice_confirmation,,html-keyboard-response,119,156741,0.0-1.0-159.0-0.0,0,0,87963,,,,,,39.0,,1.0,,,,,,,,,,,,,,,,,122.5,0.75,,,,,,,,,,,
120,,iti,,html-keyboard-response,120,160243,0.0-1.0-160.0,0,0,87963,,,,,,39.0,,1.0,,,,,,,,,,,,,,,,,126.0,3.5,,,,,,,,,,,
121,,size_choice,,html-keyboard-response,121,161092,0.0-1.0-162.0,0,0,87963,,847.0,,,68.0,40.0,40.0,1.0,3000.0,S-L,1.0,L,S,3.0,1.0,mailbox,paperclip,mailbox7,paperclip5,46.0,114.0,/static/Size_judgement/Stimuli/Size_stims/L/mailbox/mailbox7.jpg,/static/Size_judgement/Stimuli/Size_stims/S/paperclip/paperclip2.jpg,1.0,126.847,0.847,0.0,1.0,mailbox,paperclip,L,S,3.0,1.0,mailbox7,paperclip5,
122,,size_choice_confirmation,,html-keyboard-response,122,161747,0.0-1.0-163.0-0.0,0,0,87963,,,,,,40.0,,1.0,,,,,,,,,,,,,,,,,127.5,0.653,,,,,,,,,,,
123,,iti,,html-keyboard-response,123,164748,0.0-1.0-164.0,0,0,87963,,,,,,40.0,,1.0,,,,,,,,,,,,,,,,,130.5,3.0,,,,,,,,,,,
124,,size_choice,,html-keyboard-response,124,165699,0.0-1.0-166.0,0,0,87963,,949.0,,,68.0,41.0,41.0,1.0,1000.0,S-L,1.0,L,S,3.0,1.0,dishwasher,thread,dishwasher3,thread2,22.0,141.0,/static/Size_judgement/Stimuli/Size_stims/L/dishwasher/dishwasher8.jpg,/static/Size_judgement/Stimuli/Size_stims/S/thread/thread6.jpg,1.0,131.449,0.949,0.0,1.0,dishwasher,thread,L,S,3.0,1.0,dishwasher3,thread2,
125,,size_choice_confirmation,,html-keyboard-response,125,166253,0.0-1.0-167.0-0.0,0,0,87963,,,,,,41.0,,1.0,,,,,,,,,,,,,,,,,132.0,0.551,,,,,,,,,,,
126,,iti,,html-keyboard-response,126,167255,0.0-1.0-168.0,0,0,87963,,,,,,41.0,,1.0,,,,,,,,,,,,,,,,,133.0,1.0,,,,,,,,,,,
127,,size_choice,,html-keyboard-response,127,168340,0.0-1.0-170.0,0,0,87963,,1082.0,,,68.0,42.0,42.0,1.0,1500.0,S-L,1.0,L,S,3.0,1.0,cooler,paperclip,cooler6,paperclip2,5.0,111.0,/static/Size_judgement/Stimuli/Size_stims/L/cooler/cooler1.jpg,/static/Size_judgement/Stimuli/Size_stims/S/paperclip/paperclip8.jpg,1.0,134.082,1.082,0.0,1.0,cooler,paperclip,L,S,3.0,1.0,cooler6,paperclip2,
128,,size_choice_confirmation,,html-keyboard-response,128,168764,0.0-1.0-171.0-0.0,0,0,87963,,,,,,42.0,,1.0,,,,,,,,,,,,,,,,,134.5,0.418,,,,,,,,,,,
129,,iti,,html-keyboard-response,129,170266,0.0-1.0-172.0,0,0,87963,,,,,,42.0,,1.0,,,,,,,,,,,,,,,,,136.0,1.5,,,,,,,,,,,
130,,size_choice,,html-keyboard-response,130,171167,0.0-1.0-174.0,0,0,87963,,900.0,,,75.0,43.0,43.0,1.0,1500.0,M-L,0.0,M,L,2.0,3.0,handsaw,garbagecan,handsaw3,garbagecan2,82.0,31.0,/static/Size_judgement/Stimuli/Size_stims/M/handsaw/handsaw2.jpg,/static/Size_judgement/Stimuli/Size_stims/L/garbagecan/garbagecan5.jpg,1.0,136.9,0.9,0.0,0.0,garbagecan,handsaw,L,M,3.0,2.0,garbagecan2,handsaw3,
131,,size_choice_confirmation,,html-keyboard-response,131,171769,0.0-1.0-175.0-0.0,0,0,87963,,,,,,43.0,,1.0,,,,,,,,,,,,,,,,,137.5,0.6,,,,,,,,,,,
132,,iti,,html-keyboard-response,132,173273,0.0-1.0-176.0,0,0,87963,,,,,,43.0,,1.0,,,,,,,,,,,,,,,,,139.0,1.5,,,,,,,,,,,
133,,size_choice,,html-keyboard-response,133,173895,0.0-1.0-178.0,0,0,87963,,619.0,,,75.0,44.0,44.0,1.0,1500.0,S-XL,0.0,S,XL,1.0,4.0,thread,tractor,thread4,tractor1,143.0,180.0,/static/Size_judgement/Stimuli/Size_stims/S/thread/thread5.jpg,/static/Size_judgement/Stimuli/Size_stims/XL/tractor/tractor6.jpg,1.0,139.619,0.619,0.0,0.0,tractor,thread,XL,S,4.0,1.0,tractor1,thread4,
134,,size_choice_confirmation,,html-keyboard-response,134,174778,0.0-1.0-179.0-0.0,0,0,87963,,,,,,44.0,,1.0,,,,,,,,,,,,,,,,,140.5,0.881,,,,,,,,,,,
135,,iti,,html-keyboard-response,135,176280,0.0-1.0-180.0,0,0,87963,,,,,,44.0,,1.0,,,,,,,,,,,,,,,,,142.0,1.5,,,,,,,,,,,
136,,block_over,,html-keyboard-response,136,178086,0.0-1.0-181.0-0.0,0,0,87963,,1805.0,,,68.0,44.0,,,,,,,,,,,,,,,,,,,,,,,,,,,,,,,
137,,size_choice,,html-keyboard-response,137,178958,0.0-1.0-182.0,0,0,87963,,869.0,,,68.0,45.0,45.0,2.0,1000.0,XL-XL,,XL,XL,4.0,4.0,crane,van,crane10,van8,169.0,197.0,/static/Size_judgement/Stimuli/Size_stims/XL/crane/crane9.jpg,/static/Size_judgement/Stimuli/Size_stims/XL/van/van10.jpg,,142.869,0.869,0.0,1.0,crane,van,XL,XL,4.0,4.0,crane10,van8,
138,,size_choice_confirmation,,html-keyboard-response,138,179617,0.0-1.0-183.0-0.0,0,0,87963,,,,,,45.0,,2.0,,,,,,,,,,,,,,,,,143.5,0.631,,,,,,,,,,,
139,,iti,,html-keyboard-response,139,180619,0.0-1.0-184.0,0,0,87963,,,,,,45.0,,2.0,,,,,,,,,,,,,,,,,144.5,1.0,,,,,,,,,,,
140,,size_choice,,html-keyboard-response,140,181334,0.0-1.0-186.0,0,0,87963,,713.0,,,75.0,46.0,46.0,2.0,3500.0,S-L,0.0,S,L,1.0,3.0,thread,cooler,thread8,cooler3,147.0,2.0,/static/Size_judgement/Stimuli/Size_stims/S/thread/thread10.jpg,/static/Size_judgement/Stimuli/Size_stims/L/cooler/cooler2.jpg,1.0,145.213,0.713,0.0,0.0,cooler,thread,L,S,3.0,1.0,cooler3,thread8,
141,,size_choice_confirmation,,html-keyboard-response,141,182124,0.0-1.0-187.0-0.0,0,0,87963,,,,,,46.0,,2.0,,,,,,,,,,,,,,,,,146.0,0.787,,,,,,,,,,,
142,,iti,,html-keyboard-response,142,185626,0.0-1.0-188.0,0,0,87963,,,,,,46.0,,2.0,,,,,,,,,,,,,,,,,149.5,3.5,,,,,,,,,,,
143,,size_choice,,html-keyboard-response,143,186461,0.0-1.0-190.0,0,0,87963,,834.0,,,75.0,47.0,47.0,2.0,1000.0,M-XL,0.0,M,XL,2.0,4.0,coffeemaker,crane,coffeemaker9,crane2,68.0,161.0,/static/Size_judgement/Stimuli/Size_stims/M/coffeemaker/coffeemaker7.jpg,/static/Size_judgement/Stimuli/Size_stims/XL/crane/crane6.jpg,1.0,150.334,0.834,0.0,0.0,crane,coffeemaker,XL,M,4.0,2.0,crane2,coffeemaker9,
144,,size_choice_confirmation,,html-keyboard-response,144,187130,0.0-1.0-191.0-0.0,0,0,87963,,,,,,47.0,,2.0,,,,,,,,,,,,,,,,,151.0,0.666,,,,,,,,,,,
145,,iti,,html-keyboard-response,145,188132,0.0-1.0-192.0,0,0,87963,,,,,,47.0,,2.0,,,,,,,,,,,,,,,,,152.0,1.0,,,,,,,,,,,
146,,size_choice,,html-keyboard-response,146,189094,0.0-1.0-194.0,0,0,87963,,959.0,,,68.0,48.0,48.0,2.0,1000.0,S-L,1.0,L,S,3.0,1.0,garbagecan,die,garbagecan1,die5,30.0,104.0,/static/Size_judgement/Stimuli/Size_stims/L/garbagecan/garbagecan4.jpg,/static/Size_judgement/Stimuli/Size_stims/S/die/die3.jpg,1.0,152.959,0.959,0.0,1.0,garbagecan,die,L,S,3.0,1.0,garbagecan1,die5,
147,,size_choice_confirmation,,html-keyboard-response,147,189640,0.0-1.0-195.0-0.0,0,0,87963,,,,,,48.0,,2.0,,,,,,,,,,,,,,,,,153.5,0.541,,,,,,,,,,,
148,,iti,,html-keyboard-response,148,190642,0.0-1.0-196.0,0,0,87963,,,,,,48.0,,2.0,,,,,,,,,,,,,,,,,154.5,1.0,,,,,,,,,,,
149,,size_choice,,html-keyboard-response,149,191213,0.0-1.0-198.0,0,0,87963,,570.0,,,75.0,49.0,49.0,2.0,1500.0,M-L,0.0,M,L,2.0,3.0,hairdryer,deskchair,hairdryer8,deskchair5,77.0,14.0,/static/Size_judgement/Stimuli/Size_stims/M/hairdryer/hairdryer1.jpg,/static/Size_judgement/Stimuli/Size_stims/L/deskchair/deskchair7.jpg,1.0,155.07,0.57,0.0,0.0,deskchair,hairdryer,L,M,3.0,2.0,deskchair5,hairdryer8,
150,,size_choice_confirmation,,html-keyboard-response,150,192146,0.0-1.0-199.0-0.0,0,0,87963,,,,,,49.0,,2.0,,,,,,,,,,,,,,,,,156.0,0.93,,,,,,,,,,,
151,,iti,,html-keyboard-response,151,193648,0.0-1.0-200.0,0,0,87963,,,,,,49.0,,2.0,,,,,,,,,,,,,,,,,157.5,1.5,,,,,,,,,,,
152,,size_choice,,html-keyboard-response,152,194178,0.0-1.0-202.0,0,0,87963,,528.0,,,75.0,50.0,50.0,2.0,3500.0,S-XL,0.0,S,XL,1.0,4.0,die,tractor,die10,tractor3,109.0,182.0,/static/Size_judgement/Stimuli/Size_stims/S/die/die6.jpg,/static/Size_judgement/Stimuli/Size_stims/XL/tractor/tractor5.jpg,1.0,158.028,0.528,0.0,0.0,tractor,die,XL,S,4.0,1.0,tractor3,die10,
153,,size_choice_confirmation,,html-keyboard-response,153,195153,0.0-1.0-203.0-0.0,0,0,87963,,,,,,50.0,,2.0,,,,,,,,,,,,,,,,,159.0,0.972,,,,,,,,,,,
154,,iti,,html-keyboard-response,154,198656,0.0-1.0-204.0,0,0,87963,,,,,,50.0,,2.0,,,,,,,,,,,,,,,,,162.5,3.5,,,,,,,,,,,
155,,size_choice,,html-keyboard-response,155,199213,0.0-1.0-206.0,0,0,87963,,553.0,,,75.0,51.0,51.0,2.0,1000.0,S-XL,0.0,S,XL,1.0,4.0,screws,van,screws4,van1,123.0,190.0,/static/Size_judgement/Stimuli/Size_stims/S/screws/screws6.jpg,/static/Size_judgement/Stimuli/Size_stims/XL/van/van5.jpg,1.0,163.053,0.553,0.0,0.0,van,screws,XL,S,4.0,1.0,van1,screws4,
156,,size_choice_confirmation,,html-keyboard-response,156,200162,0.0-1.0-207.0-0.0,0,0,87963,,,,,,51.0,,2.0,,,,,,,,,,,,,,,,,164.0,0.947,,,,,,,,,,,
157,,iti,,html-keyboard-response,157,201164,0.0-1.0-208.0,0,0,87963,,,,,,51.0,,2.0,,,,,,,,,,,,,,,,,165.0,1.0,,,,,,,,,,,
158,,size_choice,,html-keyboard-response,158,202094,0.0-1.0-210.0,0,0,87963,,928.0,,,68.0,52.0,52.0,2.0,1500.0,S-L,1.0,L,S,3.0,1.0,cooler,paperclip,cooler10,paperclip8,9.0,117.0,/static/Size_judgement/Stimuli/Size_stims/L/cooler/cooler6.jpg,/static/Size_judgement/Stimuli/Size_stims/S/paperclip/paperclip5.jpg,1.0,165.928,0.928,0.0,1.0,cooler,paperclip,L,S,3.0,1.0,cooler10,paperclip8,
159,,size_choice_confirmation,,html-keyboard-response,159,202668,0.0-1.0-211.0-0.0,0,0,87963,,,,,,52.0,,2.0,,,,,,,,,,,,,,,,,166.5,0.572,,,,,,,,,,,
160,,iti,,html-keyboard-response,160,204172,0.0-1.0-212.0,0,0,87963,,,,,,52.0,,2.0,,,,,,,,,,,,,,,,,168.0,1.5,,,,,,,,,,,
161,,size_choice,,html-keyboard-response,161,204765,0.0-1.0-214.0,0,0,87963,,590.0,,,75.0,53.0,53.0,2.0,2000.0,S-L,0.0,S,L,1.0,3.0,screws,mailbox,screws1,mailbox5,120.0,44.0,/static/Size_judgement/Stimuli/Size_stims/S/screws/screws4.jpg,/static/Size_judgement/Stimuli/Size_stims/L/mailbox/mailbox4.jpg,1.0,168.59,0.59,0.0,0.0,mailbox,screws,L,S,3.0,1.0,mailbox5,screws1,
162,,size_choice_confirmation,,html-keyboard-response,162,205679,0.0-1.0-215.0-0.0,0,0,87963,,,,,,53.0,,2.0,,,,,,,,,,,,,,,,,169.5,0.91,,,,,,,,,,,
163,,iti,,html-keyboard-response,163,207681,0.0-1.0-216.0,0,0,87963,,,,,,53.0,,2.0,,,,,,,,,,,,,,,,,171.5,2.0,,,,,,,,,,,
164,,size_choice,,html-keyboard-response,164,208242,0.0-1.0-218.0,0,0,87963,,559.0,,,75.0,54.0,54.0,2.0,1000.0,S-L,0.0,S,L,1.0,3.0,screws,deskchair,screws2,deskchair7,121.0,16.0,/static/Size_judgement/Stimuli/Size_stims/S/screws/screws5.jpg,/static/Size_judgement/Stimuli/Size_stims/L/deskchair/deskchair4.jpg,1.0,172.059,0.559,0.0,0.0,deskchair,screws,L,S,3.0,1.0,deskchair7,screws2,
165,,size_choice_confirmation,,html-keyboard-response,165,209185,0.0-1.0-219.0-0.0,0,0,87963,,,,,,54.0,,2.0,,,,,,,,,,,,,,,,,173.0,0.941,,,,,,,,,,,
166,,iti,,html-keyboard-response,166,210192,0.0-1.0-220.0,0,0,87963,,,,,,54.0,,2.0,,,,,,,,,,,,,,,,,174.0,1.0,,,,,,,,,,,
167,,size_choice,,html-keyboard-response,167,211012,0.0-1.0-222.0,0,0,87963,,817.0,,,68.0,55.0,55.0,2.0,1500.0,M-XL,1.0,XL,M,4.0,2.0,dumptruck,ketchup,dumptruck1,ketchup10,170.0,99.0,/static/Size_judgement/Stimuli/Size_stims/XL/dumptruck/dumptruck9.jpg,/static/Size_judgement/Stimuli/Size_stims/M/ketchup/ketchup6.jpg,1.0,174.817,0.817,0.0,1.0,dumptruck,ketchup,XL,M,4.0,2.0,dumptruck1,ketchup10,
168,,size_choice_confirmation,,html-keyboard-response,168,211697,0.0-1.0-223.0-0.0,0,0,87963,,,,,,55.0,,2.0,,,,,,,,,,,,,,,,,175.5,0.683,,,,,,,,,,,
169,,iti,,html-keyboard-response,169,213216,0.0-1.0-224.0,0,0,87963,,,,,,55.0,,2.0,,,,,,,,,,,,,,,,,177.0,1.5,,,,,,,,,,,
170,,size_choice,,html-keyboard-response,170,214109,0.0-1.0-226.0,0,0,87963,,889.0,,,68.0,56.0,56.0,2.0,1500.0,L-XL,1.0,XL,L,4.0,3.0,car,dishwasher,car10,dishwasher2,159.0,21.0,/static/Size_judgement/Stimuli/Size_stims/XL/car/car9.jpg,/static/Size_judgement/Stimuli/Size_stims/L/dishwasher/dishwasher9.jpg,1.0,177.889,0.889,0.0,1.0,car,dishwasher,XL,L,4.0,3.0,car10,dishwasher2,
171,,size_choice_confirmation,,html-keyboard-response,171,214724,0.0-1.0-227.0-0.0,0,0,87963,,,,,,56.0,,2.0,,,,,,,,,,,,,,,,,178.5,0.611,,,,,,,,,,,
172,,iti,,html-keyboard-response,172,216226,0.0-1.0-228.0,0,0,87963,,,,,,56.0,,2.0,,,,,,,,,,,,,,,,,180.0,1.5,,,,,,,,,,,
173,,size_choice,,html-keyboard-response,173,217276,0.0-1.0-230.0,0,0,87963,,1048.0,,,68.0,57.0,57.0,2.0,1000.0,S-S,,S,S,1.0,1.0,die,paperclip,die8,paperclip9,107.0,118.0,/static/Size_judgement/Stimuli/Size_stims/S/die/die5.jpg,/static/Size_judgement/Stimuli/Size_stims/S/paperclip/paperclip4.jpg,,181.048,1.048,0.0,1.0,die,paperclip,S,S,1.0,1.0,die8,paperclip9,
174,,size_choice_confirmation,,html-keyboard-response,174,217731,0.0-1.0-231.0-0.0,0,0,87963,,,,,,57.0,,2.0,,,,,,,,,,,,,,,,,181.5,0.452,,,,,,,,,,,
175,,iti,,html-keyboard-response,175,218733,0.0-1.0-232.0,0,0,87963,,,,,,57.0,,2.0,,,,,,,,,,,,,,,,,182.5,1.0,,,,,,,,,,,
176,,size_choice,,html-keyboard-response,176,220242,0.0-1.0-234.0,0,0,87963,,,,,,58.0,58.0,2.0,2000.0,M-M,,M,M,2.0,2.0,ketchup,handsaw,ketchup9,handsaw5,98.0,84.0,/static/Size_judgement/Stimuli/Size_stims/M/ketchup/ketchup7.jpg,/static/Size_judgement/Stimuli/Size_stims/M/handsaw/handsaw1.jpg,,184.0,1.5,1.0,,,,,,,,,,
177,,iti,,html-keyboard-response,177,222244,0.0-1.0-236.0,0,0,87963,,,,,,58.0,,2.0,,,,,,,,,,,,,,,,,186.0,2.0,,,,,,,,,,,
178,,size_choice,,html-keyboard-response,178,222884,0.0-1.0-238.0,0,0,87963,,638.0,,,75.0,59.0,59.0,2.0,2000.0,M-XL,0.0,M,XL,2.0,4.0,coffeemaker,crane,coffeemaker1,crane9,60.0,168.0,/static/Size_judgement/Stimuli/Size_stims/M/coffeemaker/coffeemaker14.jpg,/static/Size_judgement/Stimuli/Size_stims/XL/crane/crane8.jpg,1.0,186.638,0.638,0.0,0.0,crane,coffeemaker,XL,M,4.0,2.0,crane9,coffeemaker1,
179,,size_choice_confirmation,,html-keyboard-response,179,223749,0.0-1.0-239.0-0.0,0,0,87963,,,,,,59.0,,2.0,,,,,,,,,,,,,,,,,187.5,0.862,,,,,,,,,,,
180,,iti,,html-keyboard-response,180,225757,0.0-1.0-240.0,0,0,87963,,,,,,59.0,,2.0,,,,,,,,,,,,,,,,,189.5,2.0,,,,,,,,,,,
181,,size_choice,,html-keyboard-response,181,226427,0.0-1.0-242.0,0,0,87963,,668.0,,,75.0,60.0,60.0,2.0,1000.0,M-L,0.0,M,L,2.0,3.0,hairdryer,mailbox,hairdryer9,mailbox6,78.0,45.0,/static/Size_judgement/Stimuli/Size_stims/M/hairdryer/hairdryer5.jpg,/static/Size_judgement/Stimuli/Size_stims/L/mailbox/mailbox6.jpg,1.0,190.168,0.668,0.0,0.0,mailbox,hairdryer,L,M,3.0,2.0,mailbox6,hairdryer9,
182,,size_choice_confirmation,,html-keyboard-response,182,227261,0.0-1.0-243.0-0.0,0,0,87963,,,,,,60.0,,2.0,,,,,,,,,,,,,,,,,191.0,0.832,,,,,,,,,,,
183,,iti,,html-keyboard-response,183,228263,0.0-1.0-244.0,0,0,87963,,,,,,60.0,,2.0,,,,,,,,,,,,,,,,,192.0,1.0,,,,,,,,,,,
184,,size_choice,,html-keyboard-response,184,228831,0.0-1.0-246.0,0,0,87963,,565.0,,,68.0,61.0,61.0,2.0,1500.0,S-XL,1.0,XL,S,4.0,1.0,tractor,die,tractor4,die9,183.0,108.0,/static/Size_judgement/Stimuli/Size_stims/XL/tractor/tractor4.jpg,/static/Size_judgement/Stimuli/Size_stims/S/die/die7.jpg,1.0,192.565,0.565,0.0,1.0,tractor,die,XL,S,4.0,1.0,tractor4,die9,
185,,size_choice_confirmation,,html-keyboard-response,185,229768,0.0-1.0-247.0-0.0,0,0,87963,,,,,,61.0,,2.0,,,,,,,,,,,,,,,,,193.5,0.935,,,,,,,,,,,
186,,iti,,html-keyboard-response,186,231272,0.0-1.0-248.0,0,0,87963,,,,,,61.0,,2.0,,,,,,,,,,,,,,,,,195.0,1.5,,,,,,,,,,,
187,,size_choice,,html-keyboard-response,187,232208,0.0-1.0-250.0,0,0,87963,,934.0,,,68.0,62.0,62.0,2.0,1000.0,XL-XL,,XL,XL,4.0,4.0,van,tractor,van7,tractor10,196.0,189.0,/static/Size_judgement/Stimuli/Size_stims/XL/van/van1.jpg,/static/Size_judgement/Stimuli/Size_stims/XL/tractor/tractor8.jpg,,195.934,0.934,0.0,1.0,van,tractor,XL,XL,4.0,4.0,van7,tractor10,
188,,size_choice_confirmation,,html-keyboard-response,188,232776,0.0-1.0-251.0-0.0,0,0,87963,,,,,,62.0,,2.0,,,,,,,,,,,,,,,,,196.5,0.566,,,,,,,,,,,
189,,iti,,html-keyboard-response,189,233778,0.0-1.0-252.0,0,0,87963,,,,,,62.0,,2.0,,,,,,,,,,,,,,,,,197.5,1.0,,,,,,,,,,,
190,,size_choice,,html-keyboard-response,190,234311,0.0-1.0-254.0,0,0,87963,,530.0,,,75.0,63.0,63.0,2.0,3500.0,S-XL,0.0,S,XL,1.0,4.0,paperclip,tractor,paperclip7,tractor7,116.0,186.0,/static/Size_judgement/Stimuli/Size_stims/S/paperclip/paperclip7.jpg,/static/Size_judgement/Stimuli/Size_stims/XL/tractor/tractor2.jpg,1.0,198.03,0.53,0.0,0.0,tractor,paperclip,XL,S,4.0,1.0,tractor7,paperclip7,
191,,size_choice_confirmation,,html-keyboard-response,191,235283,0.0-1.0-255.0-0.0,0,0,87963,,,,,,63.0,,2.0,,,,,,,,,,,,,,,,,199.0,0.97,,,,,,,,,,,
192,,iti,,html-keyboard-response,192,238785,0.0-1.0-256.0,0,0,87963,,,,,,63.0,,2.0,,,,,,,,,,,,,,,,,202.5,3.5,,,,,,,,,,,
193,,size_choice,,html-keyboard-response,193,239631,0.0-1.0-258.0,0,0,87963,,837.0,,,68.0,64.0,64.0,2.0,2000.0,M-L,0.0,M,L,2.0,3.0,basketball,deskchair,basketball3,deskchair10,52.0,19.0,/static/Size_judgement/Stimuli/Size_stims/M/basketball/basketball10.jpg,/static/Size_judgement/Stimuli/Size_stims/L/deskchair/deskchair2.jpg,0.0,203.337,0.837,0.0,1.0,basketball,deskchair,M,L,2.0,3.0,basketball3,deskchair10,
194,,size_choice_confirmation,,html-keyboard-response,194,240297,0.0-1.0-259.0-0.0,0,0,87963,,,,,,64.0,,2.0,,,,,,,,,,,,,,,,,204.0,0.663,,,,,,,,,,,
195,,iti,,html-keyboard-response,195,242317,0.0-1.0-260.0,0,0,87963,,,,,,64.0,,2.0,,,,,,,,,,,,,,,,,206.0,2.0,,,,,,,,,,,
196,,size_choice,,html-keyboard-response,196,243101,0.0-1.0-262.0,0,0,87963,,781.0,,,68.0,65.0,65.0,2.0,1000.0,M-XL,1.0,XL,M,4.0,2.0,crane,coffeemaker,crane4,coffeemaker10,163.0,69.0,/static/Size_judgement/Stimuli/Size_stims/XL/crane/crane5.jpg,/static/Size_judgement/Stimuli/Size_stims/M/coffeemaker/coffeemaker18.jpg,1.0,206.781,0.781,0.0,1.0,crane,coffeemaker,XL,M,4.0,2.0,crane4,coffeemaker10,
197,,size_choice_confirmation,,html-keyboard-response,197,243824,0.0-1.0-263.0-0.0,0,0,87963,,,,,,65.0,,2.0,,,,,,,,,,,,,,,,,207.5,0.719,,,,,,,,,,,
198,,iti,,html-keyboard-response,198,244827,0.0-1.0-264.0,0,0,87963,,,,,,65.0,,2.0,,,,,,,,,,,,,,,,,208.5,1.0,,,,,,,,,,,
199,,size_choice,,html-keyboard-response,199,245429,0.0-1.0-266.0,0,0,87963,,600.0,,,75.0,66.0,66.0,2.0,1500.0,S-XL,0.0,S,XL,1.0,4.0,thread,dumptruck,thread7,dumptruck7,146.0,176.0,/static/Size_judgement/Stimuli/Size_stims/S/thread/thread3.jpg,/static/Size_judgement/Stimuli/Size_stims/XL/dumptruck/dumptruck6.jpg,1.0,209.1,0.6,0.0,0.0,dumptruck,thread,XL,S,4.0,1.0,dumptruck7,thread7,
200,,size_choice_confirmation,,html-keyboard-response,200,246331,0.0-1.0-267.0-0.0,0,0,87963,,,,,,66.0,,2.0,,,,,,,,,,,,,,,,,210.0,0.9,,,,,,,,,,,
201,,iti,,html-keyboard-response,201,247834,0.0-1.0-268.0,0,0,87963,,,,,,66.0,,2.0,,,,,,,,,,,,,,,,,211.5,1.5,,,,,,,,,,,
202,,size_choice,,html-keyboard-response,202,248806,0.0-1.0-270.0,0,0,87963,,962.0,,,75.0,67.0,67.0,2.0,1000.0,XL-XL,,XL,XL,4.0,4.0,car,dumptruck,car8,dumptruck8,157.0,177.0,/static/Size_judgement/Stimuli/Size_stims/XL/car/car14.jpg,/static/Size_judgement/Stimuli/Size_stims/XL/dumptruck/dumptruck7.jpg,,212.462,0.962,0.0,0.0,dumptruck,car,XL,XL,4.0,4.0,dumptruck8,car8,
203,,size_choice_confirmation,,html-keyboard-response,203,249348,0.0-1.0-271.0-0.0,0,0,87963,,,,,,67.0,,2.0,,,,,,,,,,,,,,,,,213.0,0.538,,,,,,,,,,,
204,,iti,,html-keyboard-response,204,250350,0.0-1.0-272.0,0,0,87963,,,,,,67.0,,2.0,,,,,,,,,,,,,,,,,214.0,1.0,,,,,,,,,,,
205,,size_choice,,html-keyboard-response,205,251627,0.0-1.0-274.0,0,0,87963,,1262.0,,,75.0,68.0,68.0,2.0,3000.0,M-L,0.0,M,L,2.0,3.0,coffeemaker,cooler,coffeemaker6,cooler1,65.0,0.0,/static/Size_judgement/Stimuli/Size_stims/M/coffeemaker/coffeemaker8.jpg,/static/Size_judgement/Stimuli/Size_stims/L/cooler/cooler8.jpg,1.0,215.262,1.262,0.0,0.0,cooler,coffeemaker,L,M,3.0,2.0,cooler1,coffeemaker6,
206,,size_choice_confirmation,,html-keyboard-response,206,251867,0.0-1.0-275.0-0.0,0,0,87963,,,,,,68.0,,2.0,,,,,,,,,,,,,,,,,215.5,0.238,,,,,,,,,,,
207,,iti,,html-keyboard-response,207,254874,0.0-1.0-276.0,0,0,87963,,,,,,68.0,,2.0,,,,,,,,,,,,,,,,,218.5,3.0,,,,,,,,,,,
208,,size_choice,,html-keyboard-response,208,255503,0.0-1.0-278.0,0,0,87963,,626.0,,,68.0,69.0,69.0,2.0,2000.0,M-L,1.0,L,M,3.0,2.0,cooler,handsaw,cooler5,handsaw4,4.0,83.0,/static/Size_judgement/Stimuli/Size_stims/L/cooler/cooler10.jpg,/static/Size_judgement/Stimuli/Size_stims/M/handsaw/handsaw3.jpg,1.0,219.126,0.626,0.0,1.0,cooler,handsaw,L,M,3.0,2.0,cooler5,handsaw4,
209,,size_choice_confirmation,,html-keyboard-response,209,256398,0.0-1.0-279.0-0.0,0,0,87963,,,,,,69.0,,2.0,,,,,,,,,,,,,,,,,220.0,0.874,,,,,,,,,,,
210,,iti,,html-keyboard-response,210,258412,0.0-1.0-280.0,0,0,87963,,,,,,69.0,,2.0,,,,,,,,,,,,,,,,,222.0,2.0,,,,,,,,,,,
211,,size_choice,,html-keyboard-response,211,259076,0.0-1.0-282.0,0,0,87963,,661.0,,,68.0,70.0,70.0,2.0,1000.0,M-XL,1.0,XL,M,4.0,2.0,car,basketball,car7,basketball2,156.0,51.0,/static/Size_judgement/Stimuli/Size_stims/XL/car/car13.jpg,/static/Size_judgement/Stimuli/Size_stims/M/basketball/basketball8.jpg,1.0,222.661,0.661,0.0,1.0,car,basketball,XL,M,4.0,2.0,car7,basketball2,
212,,size_choice_confirmation,,html-keyboard-response,212,259917,0.0-1.0-283.0-0.0,0,0,87963,,,,,,70.0,,2.0,,,,,,,,,,,,,,,,,223.5,0.839,,,,,,,,,,,
213,,iti,,html-keyboard-response,213,260919,0.0-1.0-284.0,0,0,87963,,,,,,70.0,,2.0,,,,,,,,,,,,,,,,,224.5,1.0,,,,,,,,,,,
214,,size_choice,,html-keyboard-response,214,261626,0.0-1.0-286.0,0,0,87963,,704.0,,,75.0,71.0,71.0,2.0,1000.0,S-L,0.0,S,L,1.0,3.0,teabag,garbagecan,teabag8,garbagecan3,137.0,32.0,/static/Size_judgement/Stimuli/Size_stims/S/teabag/teabag7.jpg,/static/Size_judgement/Stimuli/Size_stims/L/garbagecan/garbagecan7.jpg,1.0,225.204,0.704,0.0,0.0,garbagecan,teabag,L,S,3.0,1.0,garbagecan3,teabag8,
215,,size_choice_confirmation,,html-keyboard-response,215,262425,0.0-1.0-287.0-0.0,0,0,87963,,,,,,71.0,,2.0,,,,,,,,,,,,,,,,,226.0,0.796,,,,,,,,,,,
216,,iti,,html-keyboard-response,216,263427,0.0-1.0-288.0,0,0,87963,,,,,,71.0,,2.0,,,,,,,,,,,,,,,,,227.0,1.0,,,,,,,,,,,
217,,size_choice,,html-keyboard-response,217,264263,0.0-1.0-290.0,0,0,87963,,833.0,,,68.0,72.0,72.0,2.0,3000.0,L-L,,L,L,3.0,3.0,dishwasher,mailbox,dishwasher9,mailbox1,28.0,40.0,/static/Size_judgement/Stimuli/Size_stims/L/dishwasher/dishwasher2.jpg,/static/Size_judgement/Stimuli/Size_stims/L/mailbox/mailbox3.jpg,,227.833,0.833,0.0,1.0,dishwasher,mailbox,L,L,3.0,3.0,dishwasher9,mailbox1,
218,,size_choice_confirmation,,html-keyboard-response,218,264932,0.0-1.0-291.0-0.0,0,0,87963,,,,,,72.0,,2.0,,,,,,,,,,,,,,,,,228.5,0.667,,,,,,,,,,,
219,,iti,,html-keyboard-response,219,267938,0.0-1.0-292.0,0,0,87963,,,,,,72.0,,2.0,,,,,,,,,,,,,,,,,231.5,3.0,,,,,,,,,,,
220,,size_choice,,html-keyboard-response,220,268492,0.0-1.0-294.0,0,0,87963,,551.0,,,75.0,73.0,73.0,2.0,1000.0,S-XL,0.0,S,XL,1.0,4.0,thread,crane,thread10,crane1,149.0,160.0,/static/Size_judgement/Stimuli/Size_stims/S/thread/thread9.jpg,/static/Size_judgement/Stimuli/Size_stims/XL/crane/crane7.jpg,1.0,232.051,0.551,0.0,0.0,crane,thread,XL,S,4.0,1.0,crane1,thread10,
221,,size_choice_confirmation,,html-keyboard-response,221,269443,0.0-1.0-295.0-0.0,0,0,87963,,,,,,73.0,,2.0,,,,,,,,,,,,,,,,,233.0,0.949,,,,,,,,,,,
222,,iti,,html-keyboard-response,222,270446,0.0-1.0-296.0,0,0,87963,,,,,,73.0,,2.0,,,,,,,,,,,,,,,,,234.0,1.0,,,,,,,,,,,
223,,size_choice,,html-keyboard-response,223,271949,0.0-1.0-298.0,0,0,87963,,,,,,74.0,74.0,2.0,3000.0,M-M,,M,M,2.0,2.0,coffeemaker,handsaw,coffeemaker4,handsaw9,63.0,88.0,/static/Size_judgement/Stimuli/Size_stims/M/coffeemaker/coffeemaker11.jpg,/static/Size_judgement/Stimuli/Size_stims/M/handsaw/handsaw6.jpg,,235.5,1.5,1.0,,,,,,,,,,
224,,iti,,html-keyboard-response,224,274956,0.0-1.0-300.0,0,0,87963,,,,,,74.0,,2.0,,,,,,,,,,,,,,,,,238.5,3.0,,,,,,,,,,,
225,,size_choice,,html-keyboard-response,225,275655,0.0-1.0-302.0,0,0,87963,,696.0,,,68.0,75.0,75.0,2.0,1000.0,S-L,1.0,L,S,3.0,1.0,mailbox,teabag,mailbox8,teabag6,47.0,135.0,/static/Size_judgement/Stimuli/Size_stims/L/mailbox/mailbox10.jpg,/static/Size_judgement/Stimuli/Size_stims/S/teabag/teabag6.jpg,1.0,239.196,0.696,0.0,1.0,mailbox,teabag,L,S,3.0,1.0,mailbox8,teabag6,
226,,size_choice_confirmation,,html-keyboard-response,226,276462,0.0-1.0-303.0-0.0,0,0,87963,,,,,,75.0,,2.0,,,,,,,,,,,,,,,,,240.0,0.804,,,,,,,,,,,
227,,iti,,html-keyboard-response,227,277464,0.0-1.0-304.0,0,0,87963,,,,,,75.0,,2.0,,,,,,,,,,,,,,,,,241.0,1.0,,,,,,,,,,,
228,,size_choice,,html-keyboard-response,228,278027,0.0-1.0-306.0,0,0,87963,,561.0,,,75.0,76.0,76.0,2.0,2000.0,M-XL,1.0,XL,M,4.0,2.0,car,ketchup,car9,ketchup3,158.0,92.0,/static/Size_judgement/Stimuli/Size_stims/XL/car/car15.jpg,/static/Size_judgement/Stimuli/Size_stims/M/ketchup/ketchup10.jpg,0.0,241.561,0.561,0.0,0.0,ketchup,car,M,XL,2.0,4.0,ketchup3,car9,
229,,size_choice_confirmation,,html-keyboard-response,229,278974,0.0-1.0-307.0-0.0,0,0,87963,,,,,,76.0,,2.0,,,,,,,,,,,,,,,,,242.5,0.939,,,,,,,,,,,
230,,iti,,html-keyboard-response,230,280975,0.0-1.0-308.0,0,0,87963,,,,,,76.0,,2.0,,,,,,,,,,,,,,,,,244.5,2.0,,,,,,,,,,,
231,,size_choice,,html-keyboard-response,231,281572,0.0-1.0-310.0,0,0,87963,,594.0,,,75.0,77.0,77.0,2.0,1000.0,M-XL,0.0,M,XL,2.0,4.0,basketball,dumptruck,basketball7,dumptruck6,56.0,175.0,/static/Size_judgement/Stimuli/Size_stims/M/basketball/basketball6.jpg,/static/Size_judgement/Stimuli/Size_stims/XL/dumptruck/dumptruck2.jpg,1.0,245.094,0.594,0.0,0.0,dumptruck,basketball,XL,M,4.0,2.0,dumptruck6,basketball7,
232,,size_choice_confirmation,,html-keyboard-response,232,282482,0.0-1.0-311.0-0.0,0,0,87963,,,,,,77.0,,2.0,,,,,,,,,,,,,,,,,246.0,0.906,,,,,,,,,,,
233,,iti,,html-keyboard-response,233,283490,0.0-1.0-312.0,0,0,87963,,,,,,77.0,,2.0,,,,,,,,,,,,,,,,,247.0,1.0,,,,,,,,,,,
234,,size_choice,,html-keyboard-response,234,284227,0.0-1.0-314.0,0,0,87963,,734.0,,,68.0,78.0,78.0,2.0,1500.0,S-XL,1.0,XL,S,4.0,1.0,crane,teabag,crane3,teabag5,162.0,134.0,/static/Size_judgement/Stimuli/Size_stims/XL/crane/crane4.jpg,/static/Size_judgement/Stimuli/Size_stims/S/teabag/teabag2.jpg,1.0,247.734,0.734,0.0,1.0,crane,teabag,XL,S,4.0,1.0,crane3,teabag5,
235,,size_choice_confirmation,,html-keyboard-response,235,284995,0.0-1.0-315.0-0.0,0,0,87963,,,,,,78.0,,2.0,,,,,,,,,,,,,,,,,248.5,0.766,,,,,,,,,,,
236,,iti,,html-keyboard-response,236,286497,0.0-1.0-316.0,0,0,87963,,,,,,78.0,,2.0,,,,,,,,,,,,,,,,,250.0,1.5,,,,,,,,,,,
237,,size_choice,,html-keyboard-response,237,287092,0.0-1.0-318.0,0,0,87963,,592.0,,,75.0,79.0,79.0,2.0,1500.0,M-XL,0.0,M,XL,2.0,4.0,handsaw,car,handsaw2,car2,81.0,151.0,/static/Size_judgement/Stimuli/Size_stims/M/handsaw/handsaw9.jpg,/static/Size_judgement/Stimuli/Size_stims/XL/car/car3.jpg,1.0,250.592,0.592,0.0,0.0,car,handsaw,XL,M,4.0,2.0,car2,handsaw2,
238,,size_choice_confirmation,,html-keyboard-response,238,288004,0.0-1.0-319.0-0.0,0,0,87963,,,,,,79.0,,2.0,,,,,,,,,,,,,,,,,251.5,0.908,,,,,,,,,,,
239,,iti,,html-keyboard-response,239,289512,0.0-1.0-320.0,0,0,87963,,,,,,79.0,,2.0,,,,,,,,,,,,,,,,,253.0,1.5,,,,,,,,,,,
240,,size_choice,,html-keyboard-response,240,290350,0.0-1.0-322.0,0,0,87963,,835.0,,,75.0,80.0,80.0,2.0,2000.0,S-M,0.0,S,M,1.0,2.0,screws,handsaw,screws6,handsaw10,125.0,89.0,/static/Size_judgement/Stimuli/Size_stims/S/screws/screws3.jpg,/static/Size_judgement/Stimuli/Size_stims/M/handsaw/handsaw10.jpg,1.0,253.835,0.835,0.0,0.0,handsaw,screws,M,S,2.0,1.0,handsaw10,screws6,
241,,size_choice_confirmation,,html-keyboard-response,241,291017,0.0-1.0-323.0-0.0,0,0,87963,,,,,,80.0,,2.0,,,,,,,,,,,,,,,,,254.5,0.665,,,,,,,,,,,
242,,iti,,html-keyboard-response,242,293019,0.0-1.0-324.0,0,0,87963,,,,,,80.0,,2.0,,,,,,,,,,,,,,,,,256.5,2.0,,,,,,,,,,,
243,,size_choice,,html-keyboard-response,243,293845,0.0-1.0-326.0,0,0,87963,,823.0,,,75.0,81.0,81.0,2.0,2000.0,L-L,,L,L,3.0,3.0,cooler,dishwasher,cooler2,dishwasher1,1.0,20.0,/static/Size_judgement/Stimuli/Size_stims/L/cooler/cooler9.jpg,/static/Size_judgement/Stimuli/Size_stims/L/dishwasher/dishwasher10.jpg,,257.323,0.823,0.0,0.0,dishwasher,cooler,L,L,3.0,3.0,dishwasher1,cooler2,
244,,size_choice_confirmation,,html-keyboard-response,244,294526,0.0-1.0-327.0-0.0,0,0,87963,,,,,,81.0,,2.0,,,,,,,,,,,,,,,,,258.0,0.677,,,,,,,,,,,
245,,iti,,html-keyboard-response,245,296528,0.0-1.0-328.0,0,0,87963,,,,,,81.0,,2.0,,,,,,,,,,,,,,,,,260.0,2.0,,,,,,,,,,,
246,,size_choice,,html-keyboard-response,246,297070,0.0-1.0-330.0,0,0,87963,,540.0,,,75.0,82.0,82.0,2.0,1000.0,M-L,0.0,M,L,2.0,3.0,ketchup,deskchair,ketchup4,deskchair9,93.0,18.0,/static/Size_judgement/Stimuli/Size_stims/M/ketchup/ketchup2.jpg,/static/Size_judgement/Stimuli/Size_stims/L/deskchair/deskchair3.jpg,1.0,260.54,0.54,0.0,0.0,deskchair,ketchup,L,M,3.0,2.0,deskchair9,ketchup4,
247,,size_choice_confirmation,,html-keyboard-response,247,298040,0.0-1.0-331.0-0.0,0,0,87963,,,,,,82.0,,2.0,,,,,,,,,,,,,,,,,261.5,0.96,,,,,,,,,,,
248,,iti,,html-keyboard-response,248,299043,0.0-1.0-332.0,0,0,87963,,,,,,82.0,,2.0,,,,,,,,,,,,,,,,,262.5,1.0,,,,,,,,,,,
249,,size_choice,,html-keyboard-response,249,299774,0.0-1.0-334.0,0,0,87963,,729.0,,,75.0,83.0,83.0,2.0,3000.0,S-S,,S,S,1.0,1.0,screws,teabag,screws10,teabag9,129.0,138.0,/static/Size_judgement/Stimuli/Size_stims/S/screws/screws9.jpg,/static/Size_judgement/Stimuli/Size_stims/S/teabag/teabag5.jpg,,263.229,0.729,0.0,0.0,teabag,screws,S,S,1.0,1.0,teabag9,screws10,
250,,size_choice_confirmation,,html-keyboard-response,250,300547,0.0-1.0-335.0-0.0,0,0,87963,,,,,,83.0,,2.0,,,,,,,,,,,,,,,,,264.0,0.771,,,,,,,,,,,
251,,iti,,html-keyboard-response,251,303551,0.0-1.0-336.0,0,0,87963,,,,,,83.0,,2.0,,,,,,,,,,,,,,,,,267.0,3.0,,,,,,,,,,,
252,,size_choice,,html-keyboard-response,252,304485,0.0-1.0-338.0,0,0,87963,,927.0,,,68.0,84.0,84.0,2.0,1500.0,S-M,1.0,M,S,2.0,1.0,handsaw,paperclip,handsaw6,paperclip10,85.0,119.0,/static/Size_judgement/Stimuli/Size_stims/M/handsaw/handsaw4.jpg,/static/Size_judgement/Stimuli/Size_stims/S/paperclip/paperclip10.jpg,1.0,267.927,0.927,0.0,1.0,handsaw,paperclip,M,S,2.0,1.0,handsaw6,paperclip10,
253,,size_choice_confirmation,,html-keyboard-response,253,305062,0.0-1.0-339.0-0.0,0,0,87963,,,,,,84.0,,2.0,,,,,,,,,,,,,,,,,268.5,0.573,,,,,,,,,,,
254,,iti,,html-keyboard-response,254,306564,0.0-1.0-340.0,0,0,87963,,,,,,84.0,,2.0,,,,,,,,,,,,,,,,,270.0,1.5,,,,,,,,,,,
255,,size_choice,,html-keyboard-response,255,307239,0.0-1.0-342.0,0,0,87963,,673.0,,,68.0,85.0,85.0,2.0,1000.0,S-XL,1.0,XL,S,4.0,1.0,car,teabag,car5,teabag1,154.0,130.0,/static/Size_judgement/Stimuli/Size_stims/XL/car/car11.jpg,/static/Size_judgement/Stimuli/Size_stims/S/teabag/teabag9.jpg,1.0,270.673,0.673,0.0,1.0,car,teabag,XL,S,4.0,1.0,car5,teabag1,
256,,size_choice_confirmation,,html-keyboard-response,256,308072,0.0-1.0-343.0-0.0,0,0,87963,,,,,,85.0,,2.0,,,,,,,,,,,,,,,,,271.5,0.827,,,,,,,,,,,
257,,iti,,html-keyboard-response,257,309074,0.0-1.0-344.0,0,0,87963,,,,,,85.0,,2.0,,,,,,,,,,,,,,,,,272.5,1.0,,,,,,,,,,,
258,,size_choice,,html-keyboard-response,258,309608,0.0-1.0-346.0,0,0,87963,,531.0,,,75.0,86.0,86.0,2.0,1500.0,M-L,0.0,M,L,2.0,3.0,hairdryer,dishwasher,hairdryer10,dishwasher8,79.0,27.0,/static/Size_judgement/Stimuli/Size_stims/M/hairdryer/hairdryer6.jpg,/static/Size_judgement/Stimuli/Size_stims/L/dishwasher/dishwasher3.jpg,1.0,273.031,0.531,0.0,0.0,dishwasher,hairdryer,L,M,3.0,2.0,dishwasher8,hairdryer10,
259,,size_choice_confirmation,,html-keyboard-response,259,310579,0.0-1.0-347.0-0.0,0,0,87963,,,,,,86.0,,2.0,,,,,,,,,,,,,,,,,274.0,0.969,,,,,,,,,,,
260,,iti,,html-keyboard-response,260,312081,0.0-1.0-348.0,0,0,87963,,,,,,86.0,,2.0,,,,,,,,,,,,,,,,,275.5,1.5,,,,,,,,,,,
261,,size_choice,,html-keyboard-response,261,312925,0.0-1.0-350.0,0,0,87963,,841.0,,,68.0,87.0,87.0,2.0,1000.0,L-XL,1.0,XL,L,4.0,3.0,van,deskchair,van2,deskchair4,191.0,13.0,/static/Size_judgement/Stimuli/Size_stims/XL/van/van4.jpg,/static/Size_judgement/Stimuli/Size_stims/L/deskchair/deskchair6.jpg,1.0,276.341,0.841,0.0,1.0,van,deskchair,XL,L,4.0,3.0,van2,deskchair4,
262,,size_choice_confirmation,,html-keyboard-response,262,313589,0.0-1.0-351.0-0.0,0,0,87963,,,,,,87.0,,2.0,,,,,,,,,,,,,,,,,277.0,0.659,,,,,,,,,,,
263,,iti,,html-keyboard-response,263,314590,0.0-1.0-352.0,0,0,87963,,,,,,87.0,,2.0,,,,,,,,,,,,,,,,,278.0,1.0,,,,,,,,,,,
264,,size_choice,,html-keyboard-response,264,315260,0.0-1.0-354.0,0,0,87963,,667.0,,,68.0,88.0,88.0,2.0,1500.0,S-L,1.0,L,S,3.0,1.0,dishwasher,teabag,dishwasher5,teabag7,24.0,136.0,/static/Size_judgement/Stimuli/Size_stims/L/dishwasher/dishwasher4.jpg,/static/Size_judgement/Stimuli/Size_stims/S/teabag/teabag10.jpg,1.0,278.667,0.667,0.0,1.0,dishwasher,teabag,L,S,3.0,1.0,dishwasher5,teabag7,
265,,size_choice_confirmation,,html-keyboard-response,265,316097,0.0-1.0-355.0-0.0,0,0,87963,,,,,,88.0,,2.0,,,,,,,,,,,,,,,,,279.5,0.833,,,,,,,,,,,
266,,iti,,html-keyboard-response,266,317598,0.0-1.0-356.0,0,0,87963,,,,,,88.0,,2.0,,,,,,,,,,,,,,,,,281.0,1.5,,,,,,,,,,,
267,,size_choice,,html-keyboard-response,267,318565,0.0-1.0-358.0,0,0,87963,,962.0,,,75.0,89.0,89.0,2.0,1500.0,M-L,0.0,M,L,2.0,3.0,hairdryer,garbagecan,hairdryer7,garbagecan4,76.0,33.0,/static/Size_judgement/Stimuli/Size_stims/M/hairdryer/hairdryer3.jpg,/static/Size_judgement/Stimuli/Size_stims/L/garbagecan/garbagecan6.jpg,1.0,281.962,0.962,0.0,0.0,garbagecan,hairdryer,L,M,3.0,2.0,garbagecan4,hairdryer7,
268,,size_choice_confirmation,,html-keyboard-response,268,319105,0.0-1.0-359.0-0.0,0,0,87963,,,,,,89.0,,2.0,,,,,,,,,,,,,,,,,282.5,0.538,,,,,,,,,,,
269,,iti,,html-keyboard-response,269,320607,0.0-1.0-360.0,0,0,87963,,,,,,89.0,,2.0,,,,,,,,,,,,,,,,,284.0,1.5,,,,,,,,,,,0.96
270,,size_final_tally,,html-keyboard-response,270,322196,0.0-2.0,0,0,87963,,1586.0,,,68.0,,,,,,,,,,,,,,,,,,,,,,,,,,,,,,,,
271,,debreif_intro,,html-keyboard-response,271,324444,0.0-3.0,0,0,87963,,2198.0,,,68.0,,,,,,,,,,,,,,,,,,,,,,,,,,,,,,,,
272,,debreif_age,,survey-text,272,330429,0.0-4.0,0,0,87963,,5984.0,"{""Q0"":""32""}",,,,,,,,,,,,,,,,,,,,,,,,,,,,,,,,,,
273,,debreif_gender,,survey-multi-choice,273,332461,0.0-5.0,0,0,87963,,2030.0,"{""Q0"":""Female""}",,,,,,,,,,,,,,,,,,,,,,,,,,,,,,,,,,
274,,debreif_dominant_hand,,survey-multi-choice,274,335045,0.0-6.0,0,0,87963,,2582.0,"{""Q0"":""Right""}",,,,,,,,,,,,,,,,,,,,,,,,,,,,,,,,,,
275,,debreif_native_language,,survey-multi-choice,275,336975,0.0-7.0,0,0,87963,,1926.0,"{""Q0"":""Yes""}",,,,,,,,,,,,,,,,,,,,,,,,,,,,,,,,,,
276,,debreif_fluency,,survey-likert,276,339829,0.0-8.0,0,0,87963,,2851.0,"{""Q0"":5}",,,,,,,,,,,,,,,,,,,,,,,,,,,,,,,,,,
277,,debreif_strategy_category_learning,,survey-text,277,352615,0.0-9.0,0,0,87963,,12785.0,"{""Q0"":""Instinct mostly""}",,,,,,,,,,,,,,,,,,,,,,,,,,,,,,,,,,
278,,debreif_strategy_old_trials,,survey-text,278,364590,0.0-10.0,0,0,87963,,11974.0,"{""Q0"":""Just a moment decision ""}",,,,,,,,,,,,,,,,,,,,,,,,,,,,,,,,,,
279,,debreif_strategy_category_memory,,survey-text,279,374462,0.0-11.0,0,0,87963,,9870.0,"{""Q0"":""I determined by size""}",,,,,,,,,,,,,,,,,,,,,,,,,,,,,,,,,,
280,,debreif_strategy_size,,survey-text,280,384213,0.0-12.0,0,0,87963,,9749.0,"{""Q0"":""I chose based on what was bigger""}",,,,,,,,,,,,,,,,,,,,,,,,,,,,,,,,,,
281,,debreif_strategy_rl,,survey-text,281,391444,0.0-13.0,0,0,87963,,7230.0,"{""Q0"":""Instinct""}",,,,,,,,,,,,,,,,,,,,,,,,,,,,,,,,,,
282,,debreif_clear_instructions,,survey-text,282,395132,0.0-14.0,0,0,87963,,3687.0,"{""Q0"":""No""}",,,,,,,,,,,,,,,,,,,,,,,,,,,,,,,,,,
283,,debreif_end,,html-keyboard-response,283,407129,0.0-15.0,0,0,87963,,11995.0,,,32.0,,,,,,,,,,,,,,,,,,,,,,,,,,,,,,,,
