,success,ttype,start_time,trial_type,trial_index,time_elapsed,internal_node_id,warning,missed_checkup,PID,view_history,rt,responses,repeat_instructions,key_press,index,trial_num,block,iti,pair_type,high_size_on_left,left_size_group,right_size_group,left_size_num,right_size_num,left_category,right_category,left_exemplar,right_exemplar,left_index,right_index,left_img_path,right_img_path,left_chosen,chosen_category,unchosen_category,chosen_size_group,unchosen_size_group,chosen_size_num,unchosen_size_num,chosen_exemplar,unchosen_exemplar,accuracy,onset,duration,no_response,size_final_tally
0,True,full_screen,d06012022hr2341,fullscreen,0,17746,0.0-0.0,0,0,4,,,,,,,,,,,,,,,,,,,,,,,,,,,,,,,,,,,,,
1,,size_instructions,,instructions,1,19713,0.0-1.0-0.0-0.0,0,0,4,"[{""page_index"":0,""viewing_time"":975},{""page_index"":1,""viewing_time"":424},{""page_index"":2,""viewing_time"":135},{""page_index"":3,""viewing_time"":156},{""page_index"":4,""viewing_time"":121},{""page_index"":5,""viewing_time"":155}]",1966.0,,,,,,,,,,,,,,,,,,,,,,,,,,,,,,,,,,,
2,,size_comprehension_check,,survey-multi-choice,2,27831,0.0-1.0-0.0-1.0,0,0,4,,8114.0,"{""Q0"":""True"",""Q1"":""Size in the real world"",""Q2"":""True"",""Q3"":""pointer finger for left and middle finger for right""}",0.0,,,,,,,,,,,,,,,,,,,,,,,,,,,,,,,,,
3,,,,html-keyboard-response,3,29155,0.0-1.0-1.0,0,0,4,,1322.0,,,50.0,,,,,,,,,,,,,,,,,,,,,,,,,,,,,,,,
4,,size_choice,,html-keyboard-response,4,29659,0.0-1.0-2.0,0,0,4,,502.0,,,51.0,0.0,0.0,1.0,2000.0,L-L,,L,L,3.0,3.0,deskchair,mailbox,deskchair10,mailbox3,19.0,42.0,/static/Size_judgement/Stimuli/Size_stims/L/deskchair/deskchair2.jpg,/static/Size_judgement/Stimuli/Size_stims/L/mailbox/mailbox1.jpg,0.0,mailbox,deskchair,L,L,3.0,3.0,mailbox3,deskchair10,,0.502,0.502,0.0,
5,,size_choice_confirmation,,html-keyboard-response,5,30662,0.0-1.0-3.0-0.0,0,0,4,,,,,,0.0,,,,,,,,,,,,,,,,,,,,,,,,,,,,1.5,0.998,,
6,,iti,,html-keyboard-response,6,30768,0.0-1.0-4.0,0,0,4,,,,,,,,,,,,,,,,,,,,,,,,,,,,,,,,,,3.5,2.0,,
7,,size_choice,,html-keyboard-response,7,30827,0.0-1.0-6.0,0,0,4,,57.0,,,50.0,1.0,1.0,1.0,1000.0,S-XL,1.0,XL,S,4.0,1.0,dumptruck,teabag,dumptruck9,teabag3,178.0,132.0,/static/Size_judgement/Stimuli/Size_stims/XL/dumptruck/dumptruck5.jpg,/static/Size_judgement/Stimuli/Size_stims/S/teabag/teabag1.jpg,1.0,dumptruck,teabag,XL,S,4.0,1.0,dumptruck9,teabag3,1.0,3.557,0.057,0.0,
8,,size_choice_confirmation,,html-keyboard-response,8,32274,0.0-1.0-7.0-0.0,0,0,4,,,,,,1.0,,,,,,,,,,,,,,,,,,,,,,,,,,,,5.0,1.443,,
9,,iti,,html-keyboard-response,9,32379,0.0-1.0-8.0,0,0,4,,,,,,,,,,,,,,,,,,,,,,,,,,,,,,,,,,6.0,1.0,,
10,,size_choice,,html-keyboard-response,10,33882,0.0-1.0-10.0,0,0,4,,,,,,2.0,2.0,1.0,1000.0,M-L,1.0,L,M,3.0,2.0,mailbox,ketchup,mailbox9,ketchup7,48.0,96.0,/static/Size_judgement/Stimuli/Size_stims/L/mailbox/mailbox9.jpg,/static/Size_judgement/Stimuli/Size_stims/M/ketchup/ketchup4.jpg,,,,,,,,,,,7.5,1.5,1.0,
11,,iti,,html-keyboard-response,11,33987,0.0-1.0-12.0,0,0,4,,,,,,,,,,,,,,,,,,,,,,,,,,,,,,,,,,8.5,1.0,,
12,,size_choice,,html-keyboard-response,12,35493,0.0-1.0-14.0,0,0,4,,,,,,3.0,3.0,1.0,2000.0,M-XL,1.0,XL,M,4.0,2.0,dumptruck,ketchup,dumptruck4,ketchup2,173.0,91.0,/static/Size_judgement/Stimuli/Size_stims/XL/dumptruck/dumptruck1.jpg,/static/Size_judgement/Stimuli/Size_stims/M/ketchup/ketchup9.jpg,,,,,,,,,,,10.0,1.5,1.0,
13,,iti,,html-keyboard-response,13,35596,0.0-1.0-16.0,0,0,4,,,,,,,,,,,,,,,,,,,,,,,,,,,,,,,,,,12.0,2.0,,
14,,size_choice,,html-keyboard-response,14,37098,0.0-1.0-18.0,0,0,4,,,,,,4.0,4.0,1.0,1000.0,L-XL,0.0,L,XL,3.0,4.0,garbagecan,dumptruck,garbagecan9,dumptruck7,38.0,176.0,/static/Size_judgement/Stimuli/Size_stims/L/garbagecan/garbagecan12.jpg,/static/Size_judgement/Stimuli/Size_stims/XL/dumptruck/dumptruck6.jpg,,,,,,,,,,,13.5,1.5,1.0,
15,,iti,,html-keyboard-response,15,37199,0.0-1.0-20.0,0,0,4,,,,,,,,,,,,,,,,,,,,,,,,,,,,,,,,,,14.5,1.0,,
16,,size_choice,,html-keyboard-response,16,38703,0.0-1.0-22.0,0,0,4,,,,,,5.0,5.0,1.0,1500.0,S-L,1.0,L,S,3.0,1.0,mailbox,thread,mailbox8,thread8,47.0,147.0,/static/Size_judgement/Stimuli/Size_stims/L/mailbox/mailbox10.jpg,/static/Size_judgement/Stimuli/Size_stims/S/thread/thread10.jpg,,,,,,,,,,,16.0,1.5,1.0,
17,,iti,,html-keyboard-response,17,38808,0.0-1.0-24.0,0,0,4,,,,,,,,,,,,,,,,,,,,,,,,,,,,,,,,,,17.5,1.5,,
18,,size_choice,,html-keyboard-response,18,40314,0.0-1.0-26.0,0,0,4,,,,,,6.0,6.0,1.0,2000.0,S-L,1.0,L,S,3.0,1.0,garbagecan,teabag,garbagecan6,teabag10,35.0,139.0,/static/Size_judgement/Stimuli/Size_stims/L/garbagecan/garbagecan14.jpg,/static/Size_judgement/Stimuli/Size_stims/S/teabag/teabag4.jpg,,,,,,,,,,,19.0,1.5,1.0,
19,,iti,,html-keyboard-response,19,40419,0.0-1.0-28.0,0,0,4,,,,,,,,,,,,,,,,,,,,,,,,,,,,,,,,,,21.0,2.0,,
20,,size_choice,,html-keyboard-response,20,41925,0.0-1.0-30.0,0,0,4,,,,,,7.0,7.0,1.0,1000.0,M-XL,1.0,XL,M,4.0,2.0,car,ketchup,car2,ketchup5,151.0,94.0,/static/Size_judgement/Stimuli/Size_stims/XL/car/car3.jpg,/static/Size_judgement/Stimuli/Size_stims/M/ketchup/ketchup3.jpg,,,,,,,,,,,22.5,1.5,1.0,
21,,iti,,html-keyboard-response,21,42029,0.0-1.0-32.0,0,0,4,,,,,,,,,,,,,,,,,,,,,,,,,,,,,,,,,,23.5,1.0,,
22,,size_choice,,html-keyboard-response,22,43536,0.0-1.0-34.0,0,0,4,,,,,,8.0,8.0,1.0,1000.0,XL-XL,,XL,XL,4.0,4.0,van,car,van3,car4,192.0,153.0,/static/Size_judgement/Stimuli/Size_stims/XL/van/van6.jpg,/static/Size_judgement/Stimuli/Size_stims/XL/car/car6.jpg,,,,,,,,,,,25.0,1.5,1.0,
23,,iti,,html-keyboard-response,23,43637,0.0-1.0-36.0,0,0,4,,,,,,,,,,,,,,,,,,,,,,,,,,,,,,,,,,26.0,1.0,,
24,,size_choice,,html-keyboard-response,24,45141,0.0-1.0-38.0,0,0,4,,,,,,9.0,9.0,1.0,1500.0,S-XL,0.0,S,XL,1.0,4.0,teabag,dumptruck,teabag8,dumptruck8,137.0,177.0,/static/Size_judgement/Stimuli/Size_stims/S/teabag/teabag7.jpg,/static/Size_judgement/Stimuli/Size_stims/XL/dumptruck/dumptruck7.jpg,,,,,,,,,,,27.5,1.5,1.0,
25,,iti,,html-keyboard-response,25,45246,0.0-1.0-40.0,0,0,4,,,,,,,,,,,,,,,,,,,,,,,,,,,,,,,,,,29.0,1.5,,
26,,size_choice,,html-keyboard-response,26,46751,0.0-1.0-42.0,0,0,4,,,,,,10.0,10.0,1.0,1000.0,M-M,,M,M,2.0,2.0,handsaw,ketchup,handsaw4,ketchup9,83.0,98.0,/static/Size_judgement/Stimuli/Size_stims/M/handsaw/handsaw3.jpg,/static/Size_judgement/Stimuli/Size_stims/M/ketchup/ketchup7.jpg,,,,,,,,,,,30.5,1.5,1.0,
27,,iti,,html-keyboard-response,27,46854,0.0-1.0-44.0,0,0,4,,,,,,,,,,,,,,,,,,,,,,,,,,,,,,,,,,31.5,1.0,,
28,,size_choice,,html-keyboard-response,28,48357,0.0-1.0-46.0,0,0,4,,,,,,11.0,11.0,1.0,1000.0,M-L,0.0,M,L,2.0,3.0,hairdryer,garbagecan,hairdryer6,garbagecan3,75.0,32.0,/static/Size_judgement/Stimuli/Size_stims/M/hairdryer/hairdryer8.jpg,/static/Size_judgement/Stimuli/Size_stims/L/garbagecan/garbagecan7.jpg,,,,,,,,,,,33.0,1.5,1.0,
29,,iti,,html-keyboard-response,29,48463,0.0-1.0-48.0,0,0,4,,,,,,,,,,,,,,,,,,,,,,,,,,,,,,,,,,34.0,1.0,,
30,,size_choice,,html-keyboard-response,30,49968,0.0-1.0-50.0,0,0,4,,,,,,12.0,12.0,1.0,2000.0,M-L,0.0,M,L,2.0,3.0,coffeemaker,garbagecan,coffeemaker5,garbagecan4,64.0,33.0,/static/Size_judgement/Stimuli/Size_stims/M/coffeemaker/coffeemaker10.jpg,/static/Size_judgement/Stimuli/Size_stims/L/garbagecan/garbagecan6.jpg,,,,,,,,,,,35.5,1.5,1.0,
31,,iti,,html-keyboard-response,31,50069,0.0-1.0-52.0,0,0,4,,,,,,,,,,,,,,,,,,,,,,,,,,,,,,,,,,37.5,2.0,,
32,,size_choice,,html-keyboard-response,32,51573,0.0-1.0-54.0,0,0,4,,,,,,13.0,13.0,1.0,1000.0,S-L,0.0,S,L,1.0,3.0,screws,garbagecan,screws10,garbagecan2,129.0,31.0,/static/Size_judgement/Stimuli/Size_stims/S/screws/screws9.jpg,/static/Size_judgement/Stimuli/Size_stims/L/garbagecan/garbagecan5.jpg,,,,,,,,,,,39.0,1.5,1.0,
33,,iti,,html-keyboard-response,33,51677,0.0-1.0-56.0,0,0,4,,,,,,,,,,,,,,,,,,,,,,,,,,,,,,,,,,40.0,1.0,,
34,,size_choice,,html-keyboard-response,34,53180,0.0-1.0-58.0,0,0,4,,,,,,14.0,14.0,1.0,1000.0,M-XL,1.0,XL,M,4.0,2.0,dumptruck,hairdryer,dumptruck5,hairdryer4,174.0,73.0,/static/Size_judgement/Stimuli/Size_stims/XL/dumptruck/dumptruck3.jpg,/static/Size_judgement/Stimuli/Size_stims/M/hairdryer/hairdryer16.jpg,,,,,,,,,,,41.5,1.5,1.0,
35,,iti,,html-keyboard-response,35,53285,0.0-1.0-60.0,0,0,4,,,,,,,,,,,,,,,,,,,,,,,,,,,,,,,,,,42.5,1.0,,
36,,size_choice,,html-keyboard-response,36,54791,0.0-1.0-62.0,0,0,4,,,,,,15.0,15.0,1.0,1000.0,S-XL,1.0,XL,S,4.0,1.0,van,screws,van5,screws1,194.0,120.0,/static/Size_judgement/Stimuli/Size_stims/XL/van/van3.jpg,/static/Size_judgement/Stimuli/Size_stims/S/screws/screws4.jpg,,,,,,,,,,,44.0,1.5,1.0,
37,,iti,,html-keyboard-response,37,54896,0.0-1.0-64.0,0,0,4,,,,,,,,,,,,,,,,,,,,,,,,,,,,,,,,,,45.0,1.0,,
38,,size_choice,,html-keyboard-response,38,56400,0.0-1.0-66.0,0,0,4,,,,,,16.0,16.0,1.0,3000.0,S-M,0.0,S,M,1.0,2.0,teabag,coffeemaker,teabag9,coffeemaker8,138.0,67.0,/static/Size_judgement/Stimuli/Size_stims/S/teabag/teabag5.jpg,/static/Size_judgement/Stimuli/Size_stims/M/coffeemaker/coffeemaker5.jpg,,,,,,,,,,,46.5,1.5,1.0,
39,,iti,,html-keyboard-response,39,56501,0.0-1.0-68.0,0,0,4,,,,,,,,,,,,,,,,,,,,,,,,,,,,,,,,,,49.5,3.0,,
40,,size_choice,,html-keyboard-response,40,58007,0.0-1.0-70.0,0,0,4,,,,,,17.0,17.0,1.0,1000.0,M-XL,1.0,XL,M,4.0,2.0,dumptruck,hairdryer,dumptruck10,hairdryer8,179.0,77.0,/static/Size_judgement/Stimuli/Size_stims/XL/dumptruck/dumptruck4.jpg,/static/Size_judgement/Stimuli/Size_stims/M/hairdryer/hairdryer1.jpg,,,,,,,,,,,51.0,1.5,1.0,
41,,iti,,html-keyboard-response,41,58113,0.0-1.0-72.0,0,0,4,,,,,,,,,,,,,,,,,,,,,,,,,,,,,,,,,,52.0,1.0,,
42,,size_choice,,html-keyboard-response,42,59616,0.0-1.0-74.0,0,0,4,,,,,,18.0,18.0,1.0,1500.0,S-L,0.0,S,L,1.0,3.0,die,mailbox,die10,mailbox10,109.0,49.0,/static/Size_judgement/Stimuli/Size_stims/S/die/die6.jpg,/static/Size_judgement/Stimuli/Size_stims/L/mailbox/mailbox8.jpg,,,,,,,,,,,53.5,1.5,1.0,
43,,iti,,html-keyboard-response,43,59717,0.0-1.0-76.0,0,0,4,,,,,,,,,,,,,,,,,,,,,,,,,,,,,,,,,,55.0,1.5,,
44,,size_choice,,html-keyboard-response,44,61221,0.0-1.0-78.0,0,0,4,,,,,,19.0,19.0,1.0,1000.0,S-XL,1.0,XL,S,4.0,1.0,dumptruck,die,dumptruck1,die6,170.0,105.0,/static/Size_judgement/Stimuli/Size_stims/XL/dumptruck/dumptruck9.jpg,/static/Size_judgement/Stimuli/Size_stims/S/die/die1.jpg,,,,,,,,,,,56.5,1.5,1.0,
45,,iti,,html-keyboard-response,45,61324,0.0-1.0-80.0,0,0,4,,,,,,,,,,,,,,,,,,,,,,,,,,,,,,,,,,57.5,1.0,,
46,,size_choice,,html-keyboard-response,46,62830,0.0-1.0-82.0,0,0,4,,,,,,20.0,20.0,1.0,1500.0,M-XL,0.0,M,XL,2.0,4.0,basketball,tractor,basketball7,tractor6,56.0,185.0,/static/Size_judgement/Stimuli/Size_stims/M/basketball/basketball6.jpg,/static/Size_judgement/Stimuli/Size_stims/XL/tractor/tractor3.jpg,,,,,,,,,,,59.0,1.5,1.0,
47,,iti,,html-keyboard-response,47,62933,0.0-1.0-84.0,0,0,4,,,,,,,,,,,,,,,,,,,,,,,,,,,,,,,,,,60.5,1.5,,
48,,size_choice,,html-keyboard-response,48,64437,0.0-1.0-86.0,0,0,4,,,,,,21.0,21.0,1.0,3000.0,M-M,,M,M,2.0,2.0,handsaw,ketchup,handsaw10,ketchup8,89.0,97.0,/static/Size_judgement/Stimuli/Size_stims/M/handsaw/handsaw10.jpg,/static/Size_judgement/Stimuli/Size_stims/M/ketchup/ketchup5.jpg,,,,,,,,,,,62.0,1.5,1.0,
49,,iti,,html-keyboard-response,49,64540,0.0-1.0-88.0,0,0,4,,,,,,,,,,,,,,,,,,,,,,,,,,,,,,,,,,65.0,3.0,,
50,,size_choice,,html-keyboard-response,50,66046,0.0-1.0-90.0,0,0,4,,,,,,22.0,22.0,1.0,1000.0,S-S,,S,S,1.0,1.0,thread,paperclip,thread7,paperclip1,146.0,110.0,/static/Size_judgement/Stimuli/Size_stims/S/thread/thread3.jpg,/static/Size_judgement/Stimuli/Size_stims/S/paperclip/paperclip9.jpg,,,,,,,,,,,66.5,1.5,1.0,
51,,iti,,html-keyboard-response,51,66151,0.0-1.0-92.0,0,0,4,,,,,,,,,,,,,,,,,,,,,,,,,,,,,,,,,,67.5,1.0,,
52,,size_choice,,html-keyboard-response,52,67655,0.0-1.0-94.0,0,0,4,,,,,,23.0,23.0,1.0,1500.0,M-XL,1.0,XL,M,4.0,2.0,car,handsaw,car6,handsaw2,155.0,81.0,/static/Size_judgement/Stimuli/Size_stims/XL/car/car12.jpg,/static/Size_judgement/Stimuli/Size_stims/M/handsaw/handsaw9.jpg,,,,,,,,,,,69.0,1.5,1.0,
53,,iti,,html-keyboard-response,53,67760,0.0-1.0-96.0,0,0,4,,,,,,,,,,,,,,,,,,,,,,,,,,,,,,,,,,70.5,1.5,,
54,,size_choice,,html-keyboard-response,54,69264,0.0-1.0-98.0,0,0,4,,,,,,24.0,24.0,1.0,1500.0,S-L,0.0,S,L,1.0,3.0,die,deskchair,die3,deskchair6,102.0,15.0,/static/Size_judgement/Stimuli/Size_stims/S/die/die10.jpg,/static/Size_judgement/Stimuli/Size_stims/L/deskchair/deskchair5.jpg,,,,,,,,,,,72.0,1.5,1.0,
55,,iti,,html-keyboard-response,55,69365,0.0-1.0-100.0,0,0,4,,,,,,,,,,,,,,,,,,,,,,,,,,,,,,,,,,73.5,1.5,,
56,,size_choice,,html-keyboard-response,56,70869,0.0-1.0-102.0,0,0,4,,,,,,25.0,25.0,1.0,1500.0,S-S,,S,S,1.0,1.0,paperclip,die,paperclip9,die1,118.0,100.0,/static/Size_judgement/Stimuli/Size_stims/S/paperclip/paperclip4.jpg,/static/Size_judgement/Stimuli/Size_stims/S/die/die8.jpg,,,,,,,,,,,75.0,1.5,1.0,
57,,iti,,html-keyboard-response,57,70973,0.0-1.0-104.0,0,0,4,,,,,,,,,,,,,,,,,,,,,,,,,,,,,,,,,,76.5,1.5,,
58,,size_choice,,html-keyboard-response,58,72478,0.0-1.0-106.0,0,0,4,,,,,,26.0,26.0,1.0,2000.0,M-L,0.0,M,L,2.0,3.0,basketball,deskchair,basketball4,deskchair9,53.0,18.0,/static/Size_judgement/Stimuli/Size_stims/M/basketball/basketball1.jpg,/static/Size_judgement/Stimuli/Size_stims/L/deskchair/deskchair3.jpg,,,,,,,,,,,78.0,1.5,1.0,
59,,iti,,html-keyboard-response,59,72581,0.0-1.0-108.0,0,0,4,,,,,,,,,,,,,,,,,,,,,,,,,,,,,,,,,,80.0,2.0,,
60,,size_choice,,html-keyboard-response,60,74085,0.0-1.0-110.0,0,0,4,,,,,,27.0,27.0,1.0,1500.0,S-XL,0.0,S,XL,1.0,4.0,screws,crane,screws6,crane6,125.0,165.0,/static/Size_judgement/Stimuli/Size_stims/S/screws/screws3.jpg,/static/Size_judgement/Stimuli/Size_stims/XL/crane/crane2.jpg,,,,,,,,,,,81.5,1.5,1.0,
61,,iti,,html-keyboard-response,61,74187,0.0-1.0-112.0,0,0,4,,,,,,,,,,,,,,,,,,,,,,,,,,,,,,,,,,83.0,1.5,,
62,,size_choice,,html-keyboard-response,62,75691,0.0-1.0-114.0,0,0,4,,,,,,28.0,28.0,1.0,3000.0,M-L,0.0,M,L,2.0,3.0,coffeemaker,dishwasher,coffeemaker1,dishwasher7,60.0,26.0,/static/Size_judgement/Stimuli/Size_stims/M/coffeemaker/coffeemaker14.jpg,/static/Size_judgement/Stimuli/Size_stims/L/dishwasher/dishwasher7.jpg,,,,,,,,,,,84.5,1.5,1.0,
63,,iti,,html-keyboard-response,63,75797,0.0-1.0-116.0,0,0,4,,,,,,,,,,,,,,,,,,,,,,,,,,,,,,,,,,87.5,3.0,,
64,,size_choice,,html-keyboard-response,64,77301,0.0-1.0-118.0,0,0,4,,,,,,29.0,29.0,1.0,2000.0,L-XL,0.0,L,XL,3.0,4.0,mailbox,tractor,mailbox6,tractor2,45.0,181.0,/static/Size_judgement/Stimuli/Size_stims/L/mailbox/mailbox6.jpg,/static/Size_judgement/Stimuli/Size_stims/XL/tractor/tractor7.jpg,,,,,,,,,,,89.0,1.5,1.0,
65,,iti,,html-keyboard-response,65,77403,0.0-1.0-120.0,0,0,4,,,,,,,,,,,,,,,,,,,,,,,,,,,,,,,,,,91.0,2.0,,
66,,size_choice,,html-keyboard-response,66,78907,0.0-1.0-122.0,0,0,4,,,,,,30.0,30.0,1.0,1500.0,S-XL,0.0,S,XL,1.0,4.0,teabag,crane,teabag5,crane7,134.0,166.0,/static/Size_judgement/Stimuli/Size_stims/S/teabag/teabag2.jpg,/static/Size_judgement/Stimuli/Size_stims/XL/crane/crane3.jpg,,,,,,,,,,,92.5,1.5,1.0,
67,,iti,,html-keyboard-response,67,79010,0.0-1.0-124.0,0,0,4,,,,,,,,,,,,,,,,,,,,,,,,,,,,,,,,,,94.0,1.5,,
68,,size_choice,,html-keyboard-response,68,80513,0.0-1.0-126.0,0,0,4,,,,,,31.0,31.0,1.0,3500.0,M-L,0.0,M,L,2.0,3.0,coffeemaker,cooler,coffeemaker4,cooler10,63.0,9.0,/static/Size_judgement/Stimuli/Size_stims/M/coffeemaker/coffeemaker11.jpg,/static/Size_judgement/Stimuli/Size_stims/L/cooler/cooler6.jpg,,,,,,,,,,,95.5,1.5,1.0,
69,,iti,,html-keyboard-response,69,80619,0.0-1.0-128.0,0,0,4,,,,,,,,,,,,,,,,,,,,,,,,,,,,,,,,,,99.0,3.5,,
70,,size_choice,,html-keyboard-response,70,82123,0.0-1.0-130.0,0,0,4,,,,,,32.0,32.0,1.0,3000.0,S-XL,0.0,S,XL,1.0,4.0,paperclip,car,paperclip4,car1,113.0,150.0,/static/Size_judgement/Stimuli/Size_stims/S/paperclip/paperclip3.jpg,/static/Size_judgement/Stimuli/Size_stims/XL/car/car2.jpg,,,,,,,,,,,100.5,1.5,1.0,
71,,iti,,html-keyboard-response,71,82224,0.0-1.0-132.0,0,0,4,,,,,,,,,,,,,,,,,,,,,,,,,,,,,,,,,,103.5,3.0,,
72,,size_choice,,html-keyboard-response,72,83730,0.0-1.0-134.0,0,0,4,,,,,,33.0,33.0,1.0,1000.0,M-M,,M,M,2.0,2.0,ketchup,hairdryer,ketchup3,hairdryer2,92.0,71.0,/static/Size_judgement/Stimuli/Size_stims/M/ketchup/ketchup10.jpg,/static/Size_judgement/Stimuli/Size_stims/M/hairdryer/hairdryer12.jpg,,,,,,,,,,,105.0,1.5,1.0,
73,,iti,,html-keyboard-response,73,83835,0.0-1.0-136.0,0,0,4,,,,,,,,,,,,,,,,,,,,,,,,,,,,,,,,,,106.0,1.0,,
74,,size_choice,,html-keyboard-response,74,85338,0.0-1.0-138.0,0,0,4,,,,,,34.0,34.0,1.0,2000.0,S-S,,S,S,1.0,1.0,teabag,screws,teabag4,screws4,133.0,123.0,/static/Size_judgement/Stimuli/Size_stims/S/teabag/teabag3.jpg,/static/Size_judgement/Stimuli/Size_stims/S/screws/screws6.jpg,,,,,,,,,,,107.5,1.5,1.0,
75,,iti,,html-keyboard-response,75,85443,0.0-1.0-140.0,0,0,4,,,,,,,,,,,,,,,,,,,,,,,,,,,,,,,,,,109.5,2.0,,
76,,size_choice,,html-keyboard-response,76,86950,0.0-1.0-142.0,0,0,4,,,,,,35.0,35.0,1.0,1000.0,M-L,0.0,M,L,2.0,3.0,basketball,dishwasher,basketball6,dishwasher1,55.0,20.0,/static/Size_judgement/Stimuli/Size_stims/M/basketball/basketball2.jpg,/static/Size_judgement/Stimuli/Size_stims/L/dishwasher/dishwasher10.jpg,,,,,,,,,,,111.0,1.5,1.0,
77,,iti,,html-keyboard-response,77,87053,0.0-1.0-144.0,0,0,4,,,,,,,,,,,,,,,,,,,,,,,,,,,,,,,,,,112.0,1.0,,
78,,size_choice,,html-keyboard-response,78,88556,0.0-1.0-146.0,0,0,4,,,,,,36.0,36.0,1.0,1500.0,M-XL,1.0,XL,M,4.0,2.0,tractor,ketchup,tractor10,ketchup6,189.0,95.0,/static/Size_judgement/Stimuli/Size_stims/XL/tractor/tractor8.jpg,/static/Size_judgement/Stimuli/Size_stims/M/ketchup/ketchup1.jpg,,,,,,,,,,,113.5,1.5,1.0,
79,,iti,,html-keyboard-response,79,88662,0.0-1.0-148.0,0,0,4,,,,,,,,,,,,,,,,,,,,,,,,,,,,,,,,,,115.0,1.5,,
80,,size_choice,,html-keyboard-response,80,90166,0.0-1.0-150.0,0,0,4,,,,,,37.0,37.0,1.0,3500.0,XL-XL,,XL,XL,4.0,4.0,crane,car,crane10,car8,169.0,157.0,/static/Size_judgement/Stimuli/Size_stims/XL/crane/crane9.jpg,/static/Size_judgement/Stimuli/Size_stims/XL/car/car14.jpg,,,,,,,,,,,116.5,1.5,1.0,
81,,iti,,html-keyboard-response,81,90271,0.0-1.0-152.0,0,0,4,,,,,,,,,,,,,,,,,,,,,,,,,,,,,,,,,,120.0,3.5,,
82,,size_choice,,html-keyboard-response,82,91776,0.0-1.0-154.0,0,0,4,,,,,,38.0,38.0,1.0,1500.0,L-L,,L,L,3.0,3.0,dishwasher,garbagecan,dishwasher5,garbagecan5,24.0,34.0,/static/Size_judgement/Stimuli/Size_stims/L/dishwasher/dishwasher4.jpg,/static/Size_judgement/Stimuli/Size_stims/L/garbagecan/garbagecan3.jpg,,,,,,,,,,,121.5,1.5,1.0,
83,,iti,,html-keyboard-response,83,91880,0.0-1.0-156.0,0,0,4,,,,,,,,,,,,,,,,,,,,,,,,,,,,,,,,,,123.0,1.5,,
84,,size_choice,,html-keyboard-response,84,93387,0.0-1.0-158.0,0,0,4,,,,,,39.0,39.0,1.0,2000.0,L-L,,L,L,3.0,3.0,dishwasher,cooler,dishwasher10,cooler6,29.0,5.0,/static/Size_judgement/Stimuli/Size_stims/L/dishwasher/dishwasher1.jpg,/static/Size_judgement/Stimuli/Size_stims/L/cooler/cooler1.jpg,,,,,,,,,,,124.5,1.5,1.0,
85,,iti,,html-keyboard-response,85,93488,0.0-1.0-160.0,0,0,4,,,,,,,,,,,,,,,,,,,,,,,,,,,,,,,,,,126.5,2.0,,
86,,size_choice,,html-keyboard-response,86,94991,0.0-1.0-162.0,0,0,4,,,,,,40.0,40.0,1.0,1500.0,S-M,0.0,S,M,1.0,2.0,screws,handsaw,screws3,handsaw3,122.0,82.0,/static/Size_judgement/Stimuli/Size_stims/S/screws/screws7.jpg,/static/Size_judgement/Stimuli/Size_stims/M/handsaw/handsaw2.jpg,,,,,,,,,,,128.0,1.5,1.0,
87,,iti,,html-keyboard-response,87,95097,0.0-1.0-164.0,0,0,4,,,,,,,,,,,,,,,,,,,,,,,,,,,,,,,,,,129.5,1.5,,
88,,size_choice,,html-keyboard-response,88,96603,0.0-1.0-166.0,0,0,4,,,,,,41.0,41.0,1.0,3500.0,S-L,1.0,L,S,3.0,1.0,deskchair,thread,deskchair5,thread6,14.0,145.0,/static/Size_judgement/Stimuli/Size_stims/L/deskchair/deskchair7.jpg,/static/Size_judgement/Stimuli/Size_stims/S/thread/thread2.jpg,,,,,,,,,,,131.0,1.5,1.0,
89,,iti,,html-keyboard-response,89,96704,0.0-1.0-168.0,0,0,4,,,,,,,,,,,,,,,,,,,,,,,,,,,,,,,,,,134.5,3.5,,
90,,size_choice,,html-keyboard-response,90,98209,0.0-1.0-170.0,0,0,4,,,,,,42.0,42.0,1.0,1000.0,S-M,0.0,S,M,1.0,2.0,paperclip,basketball,paperclip7,basketball8,116.0,57.0,/static/Size_judgement/Stimuli/Size_stims/S/paperclip/paperclip7.jpg,/static/Size_judgement/Stimuli/Size_stims/M/basketball/basketball7.jpg,,,,,,,,,,,136.0,1.5,1.0,
91,,iti,,html-keyboard-response,91,98315,0.0-1.0-172.0,0,0,4,,,,,,,,,,,,,,,,,,,,,,,,,,,,,,,,,,137.0,1.0,,
92,,size_choice,,html-keyboard-response,92,99821,0.0-1.0-174.0,0,0,4,,,,,,43.0,43.0,1.0,1000.0,S-L,1.0,L,S,3.0,1.0,deskchair,paperclip,deskchair1,paperclip5,10.0,114.0,/static/Size_judgement/Stimuli/Size_stims/L/deskchair/deskchair9.jpg,/static/Size_judgement/Stimuli/Size_stims/S/paperclip/paperclip2.jpg,,,,,,,,,,,138.5,1.5,1.0,
93,,iti,,html-keyboard-response,93,99926,0.0-1.0-176.0,0,0,4,,,,,,,,,,,,,,,,,,,,,,,,,,,,,,,,,,139.5,1.0,,
94,,size_choice,,html-keyboard-response,94,101430,0.0-1.0-178.0,0,0,4,,,,,,44.0,44.0,1.0,1000.0,L-XL,0.0,L,XL,3.0,4.0,dishwasher,van,dishwasher2,van9,21.0,198.0,/static/Size_judgement/Stimuli/Size_stims/L/dishwasher/dishwasher9.jpg,/static/Size_judgement/Stimuli/Size_stims/XL/van/van9.jpg,,,,,,,,,,,141.0,1.5,1.0,
95,,iti,,html-keyboard-response,95,101536,0.0-1.0-180.0,0,0,4,,,,,,,,,,,,,,,,,,,,,,,,,,,,,,,,,,142.0,1.0,,
96,,block_over,,html-keyboard-response,96,112378,0.0-1.0-181.0-0.0,0,0,4,,10841.0,,,50.0,44.0,,,,,,,,,,,,,,,,,,,,,,,,,,,,,,,
97,,size_choice,,html-keyboard-response,97,112595,0.0-1.0-182.0,0,0,4,,214.0,,,50.0,45.0,45.0,2.0,2000.0,S-L,0.0,S,L,1.0,3.0,die,mailbox,die5,mailbox2,104.0,41.0,/static/Size_judgement/Stimuli/Size_stims/S/die/die3.jpg,/static/Size_judgement/Stimuli/Size_stims/L/mailbox/mailbox2.jpg,1.0,die,mailbox,S,L,1.0,3.0,die5,mailbox2,0.0,142.214,0.214,0.0,
98,,size_choice_confirmation,,html-keyboard-response,98,113883,0.0-1.0-183.0-0.0,0,0,4,,,,,,45.0,,,,,,,,,,,,,,,,,,,,,,,,,,,,143.5,1.286,,
99,,iti,,html-keyboard-response,99,113985,0.0-1.0-184.0,0,0,4,,,,,,,,,,,,,,,,,,,,,,,,,,,,,,,,,,145.5,2.0,,
100,,size_choice,,html-keyboard-response,100,115389,0.0-1.0-186.0,0,0,4,,1402.0,,,50.0,46.0,46.0,2.0,1000.0,S-L,1.0,L,S,3.0,1.0,deskchair,thread,deskchair3,thread10,12.0,149.0,/static/Size_judgement/Stimuli/Size_stims/L/deskchair/deskchair10.jpg,/static/Size_judgement/Stimuli/Size_stims/S/thread/thread9.jpg,1.0,deskchair,thread,L,S,3.0,1.0,deskchair3,thread10,1.0,146.902,1.402,0.0,
101,,size_choice_confirmation,,html-keyboard-response,101,115490,0.0-1.0-187.0-0.0,0,0,4,,,,,,46.0,,,,,,,,,,,,,,,,,,,,,,,,,,,,147.0,0.098,,
102,,iti,,html-keyboard-response,102,115595,0.0-1.0-188.0,0,0,4,,,,,,,,,,,,,,,,,,,,,,,,,,,,,,,,,,148.0,1.0,,
103,,size_choice,,html-keyboard-response,103,116561,0.0-1.0-190.0,0,0,4,,965.0,,,51.0,47.0,47.0,2.0,3500.0,M-L,1.0,L,M,3.0,2.0,garbagecan,handsaw,garbagecan1,handsaw9,30.0,88.0,/static/Size_judgement/Stimuli/Size_stims/L/garbagecan/garbagecan4.jpg,/static/Size_judgement/Stimuli/Size_stims/M/handsaw/handsaw6.jpg,0.0,handsaw,garbagecan,M,L,2.0,3.0,handsaw9,garbagecan1,0.0,148.965,0.965,0.0,
104,,size_choice_confirmation,,html-keyboard-response,104,117099,0.0-1.0-191.0-0.0,0,0,4,,,,,,47.0,,,,,,,,,,,,,,,,,,,,,,,,,,,,149.5,0.535,,
105,,iti,,html-keyboard-response,105,117201,0.0-1.0-192.0,0,0,4,,,,,,,,,,,,,,,,,,,,,,,,,,,,,,,,,,153.0,3.5,,
106,,size_choice,,html-keyboard-response,106,117489,0.0-1.0-194.0,0,0,4,,287.0,,,51.0,48.0,48.0,2.0,1000.0,M-M,,M,M,2.0,2.0,coffeemaker,hairdryer,coffeemaker7,hairdryer5,66.0,74.0,/static/Size_judgement/Stimuli/Size_stims/M/coffeemaker/coffeemaker9.jpg,/static/Size_judgement/Stimuli/Size_stims/M/hairdryer/hairdryer15.jpg,0.0,hairdryer,coffeemaker,M,M,2.0,2.0,hairdryer5,coffeemaker7,,153.287,0.287,0.0,
107,,size_choice_confirmation,,html-keyboard-response,107,118705,0.0-1.0-195.0-0.0,0,0,4,,,,,,48.0,,,,,,,,,,,,,,,,,,,,,,,,,,,,154.5,1.213,,
108,,iti,,html-keyboard-response,108,118806,0.0-1.0-196.0,0,0,4,,,,,,,,,,,,,,,,,,,,,,,,,,,,,,,,,,155.5,1.0,,
109,,size_choice,,html-keyboard-response,109,119373,0.0-1.0-198.0,0,0,4,,566.0,,,50.0,49.0,49.0,2.0,2000.0,S-XL,1.0,XL,S,4.0,1.0,crane,thread,crane3,thread4,162.0,143.0,/static/Size_judgement/Stimuli/Size_stims/XL/crane/crane4.jpg,/static/Size_judgement/Stimuli/Size_stims/S/thread/thread5.jpg,1.0,crane,thread,XL,S,4.0,1.0,crane3,thread4,1.0,156.066,0.566,0.0,
110,,size_choice_confirmation,,html-keyboard-response,110,120314,0.0-1.0-199.0-0.0,0,0,4,,,,,,49.0,,,,,,,,,,,,,,,,,,,,,,,,,,,,157.0,0.934,,
111,,iti,,html-keyboard-response,111,120417,0.0-1.0-200.0,0,0,4,,,,,,,,,,,,,,,,,,,,,,,,,,,,,,,,,,159.0,2.0,,
112,,size_choice,,html-keyboard-response,112,121920,0.0-1.0-202.0,0,0,4,,,,,,50.0,50.0,2.0,1000.0,S-XL,1.0,XL,S,4.0,1.0,tractor,die,tractor7,die9,186.0,108.0,/static/Size_judgement/Stimuli/Size_stims/XL/tractor/tractor2.jpg,/static/Size_judgement/Stimuli/Size_stims/S/die/die7.jpg,,,,,,,,,,,160.5,1.5,1.0,
113,,iti,,html-keyboard-response,113,122025,0.0-1.0-204.0,0,0,4,,,,,,,,,,,,,,,,,,,,,,,,,,,,,,,,,,161.5,1.0,,
114,,size_choice,,html-keyboard-response,114,123488,0.0-1.0-206.0,0,0,4,,1462.0,,,51.0,51.0,51.0,2.0,2000.0,S-L,1.0,L,S,3.0,1.0,cooler,thread,cooler1,thread2,0.0,141.0,/static/Size_judgement/Stimuli/Size_stims/L/cooler/cooler8.jpg,/static/Size_judgement/Stimuli/Size_stims/S/thread/thread6.jpg,0.0,thread,cooler,S,L,1.0,3.0,thread2,cooler1,0.0,162.962,1.462,0.0,
115,,size_choice_confirmation,,html-keyboard-response,115,123531,0.0-1.0-207.0-0.0,0,0,4,,,,,,51.0,,,,,,,,,,,,,,,,,,,,,,,,,,,,163.0,0.038,,
116,,iti,,html-keyboard-response,116,123632,0.0-1.0-208.0,0,0,4,,,,,,,,,,,,,,,,,,,,,,,,,,,,,,,,,,165.0,2.0,,
117,,size_choice,,html-keyboard-response,117,124934,0.0-1.0-210.0,0,0,4,,1301.0,,,51.0,52.0,52.0,2.0,1000.0,M-L,0.0,M,L,2.0,3.0,handsaw,mailbox,handsaw8,mailbox4,87.0,43.0,/static/Size_judgement/Stimuli/Size_stims/M/handsaw/handsaw7.jpg,/static/Size_judgement/Stimuli/Size_stims/L/mailbox/mailbox5.jpg,0.0,mailbox,handsaw,L,M,3.0,2.0,mailbox4,handsaw8,1.0,166.301,1.301,0.0,
118,,size_choice_confirmation,,html-keyboard-response,118,125137,0.0-1.0-211.0-0.0,0,0,4,,,,,,52.0,,,,,,,,,,,,,,,,,,,,,,,,,,,,166.5,0.199,,
119,,iti,,html-keyboard-response,119,125238,0.0-1.0-212.0,0,0,4,,,,,,,,,,,,,,,,,,,,,,,,,,,,,,,,,,167.5,1.0,,
120,,size_choice,,html-keyboard-response,120,125891,0.0-1.0-214.0,0,0,4,,651.0,,,50.0,53.0,53.0,2.0,1000.0,S-XL,1.0,XL,S,4.0,1.0,crane,thread,crane9,thread5,168.0,144.0,/static/Size_judgement/Stimuli/Size_stims/XL/crane/crane8.jpg,/static/Size_judgement/Stimuli/Size_stims/S/thread/thread1.jpg,1.0,crane,thread,XL,S,4.0,1.0,crane9,thread5,1.0,168.151,0.651,0.0,
121,,size_choice_confirmation,,html-keyboard-response,121,126742,0.0-1.0-215.0-0.0,0,0,4,,,,,,53.0,,,,,,,,,,,,,,,,,,,,,,,,,,,,169.0,0.849,,
122,,iti,,html-keyboard-response,122,126848,0.0-1.0-216.0,0,0,4,,,,,,,,,,,,,,,,,,,,,,,,,,,,,,,,,,170.0,1.0,,
123,,size_choice,,html-keyboard-response,123,127568,0.0-1.0-218.0,0,0,4,,719.0,,,51.0,54.0,54.0,2.0,2000.0,XL-XL,,XL,XL,4.0,4.0,tractor,van,tractor1,van10,180.0,199.0,/static/Size_judgement/Stimuli/Size_stims/XL/tractor/tractor6.jpg,/static/Size_judgement/Stimuli/Size_stims/XL/van/van8.jpg,0.0,van,tractor,XL,XL,4.0,4.0,van10,tractor1,,170.719,0.719,0.0,
124,,size_choice_confirmation,,html-keyboard-response,124,128353,0.0-1.0-219.0-0.0,0,0,4,,,,,,54.0,,,,,,,,,,,,,,,,,,,,,,,,,,,,171.5,0.781,,
125,,iti,,html-keyboard-response,125,128454,0.0-1.0-220.0,0,0,4,,,,,,,,,,,,,,,,,,,,,,,,,,,,,,,,,,173.5,2.0,,
126,,size_choice,,html-keyboard-response,126,129536,0.0-1.0-222.0,0,0,4,,1080.0,,,51.0,55.0,55.0,2.0,1500.0,S-S,,S,S,1.0,1.0,paperclip,teabag,paperclip8,teabag2,117.0,131.0,/static/Size_judgement/Stimuli/Size_stims/S/paperclip/paperclip5.jpg,/static/Size_judgement/Stimuli/Size_stims/S/teabag/teabag8.jpg,0.0,teabag,paperclip,S,S,1.0,1.0,teabag2,paperclip8,,174.58,1.08,0.0,
127,,size_choice_confirmation,,html-keyboard-response,127,129958,0.0-1.0-223.0-0.0,0,0,4,,,,,,55.0,,,,,,,,,,,,,,,,,,,,,,,,,,,,175.0,0.42,,
128,,iti,,html-keyboard-response,128,130063,0.0-1.0-224.0,0,0,4,,,,,,,,,,,,,,,,,,,,,,,,,,,,,,,,,,176.5,1.5,,
129,,size_choice,,html-keyboard-response,129,130750,0.0-1.0-226.0,0,0,4,,684.0,,,50.0,56.0,56.0,2.0,1500.0,S-XL,1.0,XL,S,4.0,1.0,crane,screws,crane8,screws2,167.0,121.0,/static/Size_judgement/Stimuli/Size_stims/XL/crane/crane10.jpg,/static/Size_judgement/Stimuli/Size_stims/S/screws/screws5.jpg,1.0,crane,screws,XL,S,4.0,1.0,crane8,screws2,1.0,177.184,0.684,0.0,
130,,size_choice_confirmation,,html-keyboard-response,130,131568,0.0-1.0-227.0-0.0,0,0,4,,,,,,56.0,,,,,,,,,,,,,,,,,,,,,,,,,,,,178.0,0.816,,
131,,iti,,html-keyboard-response,131,131670,0.0-1.0-228.0,0,0,4,,,,,,,,,,,,,,,,,,,,,,,,,,,,,,,,,,179.5,1.5,,
132,,size_choice,,html-keyboard-response,132,131968,0.0-1.0-230.0,0,0,4,,296.0,,,50.0,57.0,57.0,2.0,1000.0,L-L,,L,L,3.0,3.0,dishwasher,cooler,dishwasher4,cooler3,23.0,2.0,/static/Size_judgement/Stimuli/Size_stims/L/dishwasher/dishwasher5.jpg,/static/Size_judgement/Stimuli/Size_stims/L/cooler/cooler2.jpg,1.0,dishwasher,cooler,L,L,3.0,3.0,dishwasher4,cooler3,,179.796,0.296,0.0,
133,,size_choice_confirmation,,html-keyboard-response,133,133174,0.0-1.0-231.0-0.0,0,0,4,,,,,,57.0,,,,,,,,,,,,,,,,,,,,,,,,,,,,181.0,1.204,,
134,,iti,,html-keyboard-response,134,133280,0.0-1.0-232.0,0,0,4,,,,,,,,,,,,,,,,,,,,,,,,,,,,,,,,,,182.0,1.0,,
135,,size_choice,,html-keyboard-response,135,133335,0.0-1.0-234.0,0,0,4,,53.0,,,50.0,58.0,58.0,2.0,3000.0,M-XL,0.0,M,XL,2.0,4.0,coffeemaker,van,coffeemaker9,van4,68.0,193.0,/static/Size_judgement/Stimuli/Size_stims/M/coffeemaker/coffeemaker7.jpg,/static/Size_judgement/Stimuli/Size_stims/XL/van/van7.jpg,1.0,coffeemaker,van,M,XL,2.0,4.0,coffeemaker9,van4,0.0,182.053,0.053,0.0,
136,,size_choice_confirmation,,html-keyboard-response,136,134787,0.0-1.0-235.0-0.0,0,0,4,,,,,,58.0,,,,,,,,,,,,,,,,,,,,,,,,,,,,183.5,1.447,,
137,,iti,,html-keyboard-response,137,134892,0.0-1.0-236.0,0,0,4,,,,,,,,,,,,,,,,,,,,,,,,,,,,,,,,,,186.5,3.0,,
138,,size_choice,,html-keyboard-response,138,134974,0.0-1.0-238.0,0,0,4,,80.0,,,50.0,59.0,59.0,2.0,2000.0,M-L,0.0,M,L,2.0,3.0,coffeemaker,cooler,coffeemaker3,cooler7,62.0,6.0,/static/Size_judgement/Stimuli/Size_stims/M/coffeemaker/coffeemaker13.jpg,/static/Size_judgement/Stimuli/Size_stims/L/cooler/cooler4.jpg,1.0,coffeemaker,cooler,M,L,2.0,3.0,coffeemaker3,cooler7,0.0,186.58,0.08,0.0,
139,,size_choice_confirmation,,html-keyboard-response,139,136398,0.0-1.0-239.0-0.0,0,0,4,,,,,,59.0,,,,,,,,,,,,,,,,,,,,,,,,,,,,188.0,1.42,,
140,,iti,,html-keyboard-response,140,136501,0.0-1.0-240.0,0,0,4,,,,,,,,,,,,,,,,,,,,,,,,,,,,,,,,,,190.0,2.0,,
141,,size_choice,,html-keyboard-response,141,136933,0.0-1.0-242.0,0,0,4,,431.0,,,51.0,60.0,60.0,2.0,2000.0,S-L,1.0,L,S,3.0,1.0,cooler,screws,cooler4,screws5,3.0,124.0,/static/Size_judgement/Stimuli/Size_stims/L/cooler/cooler3.jpg,/static/Size_judgement/Stimuli/Size_stims/S/screws/screws2.jpg,0.0,screws,cooler,S,L,1.0,3.0,screws5,cooler4,0.0,190.431,0.431,0.0,
142,,size_choice_confirmation,,html-keyboard-response,142,138004,0.0-1.0-243.0-0.0,0,0,4,,,,,,60.0,,,,,,,,,,,,,,,,,,,,,,,,,,,,191.5,1.069,,
143,,iti,,html-keyboard-response,143,138106,0.0-1.0-244.0,0,0,4,,,,,,,,,,,,,,,,,,,,,,,,,,,,,,,,,,193.5,2.0,,
144,,size_choice,,html-keyboard-response,144,139591,0.0-1.0-246.0,0,0,4,,1484.0,,,51.0,61.0,61.0,2.0,1500.0,M-XL,0.0,M,XL,2.0,4.0,handsaw,car,handsaw7,car3,86.0,152.0,/static/Size_judgement/Stimuli/Size_stims/M/handsaw/handsaw5.jpg,/static/Size_judgement/Stimuli/Size_stims/XL/car/car4.jpg,0.0,car,handsaw,XL,M,4.0,2.0,car3,handsaw7,1.0,194.984,1.484,0.0,
145,,size_choice_confirmation,,html-keyboard-response,145,139611,0.0-1.0-247.0-0.0,0,0,4,,,,,,61.0,,,,,,,,,,,,,,,,,,,,,,,,,,,,195.0,0.016,,
146,,iti,,html-keyboard-response,146,139716,0.0-1.0-248.0,0,0,4,,,,,,,,,,,,,,,,,,,,,,,,,,,,,,,,,,196.5,1.5,,
147,,size_choice,,html-keyboard-response,147,140057,0.0-1.0-250.0,0,0,4,,340.0,,,50.0,62.0,62.0,2.0,1000.0,M-XL,0.0,M,XL,2.0,4.0,handsaw,tractor,handsaw1,tractor4,80.0,183.0,/static/Size_judgement/Stimuli/Size_stims/M/handsaw/handsaw8.jpg,/static/Size_judgement/Stimuli/Size_stims/XL/tractor/tractor4.jpg,1.0,handsaw,tractor,M,XL,2.0,4.0,handsaw1,tractor4,0.0,196.84,0.34,0.0,
148,,size_choice_confirmation,,html-keyboard-response,148,141222,0.0-1.0-251.0-0.0,0,0,4,,,,,,62.0,,,,,,,,,,,,,,,,,,,,,,,,,,,,198.0,1.16,,
149,,iti,,html-keyboard-response,149,141324,0.0-1.0-252.0,0,0,4,,,,,,,,,,,,,,,,,,,,,,,,,,,,,,,,,,199.0,1.0,,
150,,size_choice,,html-keyboard-response,150,142678,0.0-1.0-254.0,0,0,4,,1353.0,,,50.0,63.0,63.0,2.0,1500.0,S-L,1.0,L,S,3.0,1.0,dishwasher,teabag,dishwasher9,teabag7,28.0,136.0,/static/Size_judgement/Stimuli/Size_stims/L/dishwasher/dishwasher2.jpg,/static/Size_judgement/Stimuli/Size_stims/S/teabag/teabag10.jpg,1.0,dishwasher,teabag,L,S,3.0,1.0,dishwasher9,teabag7,1.0,200.353,1.353,0.0,
151,,size_choice_confirmation,,html-keyboard-response,151,142828,0.0-1.0-255.0-0.0,0,0,4,,,,,,63.0,,,,,,,,,,,,,,,,,,,,,,,,,,,,200.5,0.147,,
152,,iti,,html-keyboard-response,152,142931,0.0-1.0-256.0,0,0,4,,,,,,,,,,,,,,,,,,,,,,,,,,,,,,,,,,202.0,1.5,,
153,,size_choice,,html-keyboard-response,153,143738,0.0-1.0-258.0,0,0,4,,805.0,,,51.0,64.0,64.0,2.0,3500.0,M-XL,1.0,XL,M,4.0,2.0,crane,coffeemaker,crane5,coffeemaker2,164.0,61.0,/static/Size_judgement/Stimuli/Size_stims/XL/crane/crane1.jpg,/static/Size_judgement/Stimuli/Size_stims/M/coffeemaker/coffeemaker12.jpg,0.0,coffeemaker,crane,M,XL,2.0,4.0,coffeemaker2,crane5,0.0,202.805,0.805,0.0,
154,,size_choice_confirmation,,html-keyboard-response,154,144437,0.0-1.0-259.0-0.0,0,0,4,,,,,,64.0,,,,,,,,,,,,,,,,,,,,,,,,,,,,203.5,0.695,,
155,,iti,,html-keyboard-response,155,144539,0.0-1.0-260.0,0,0,4,,,,,,,,,,,,,,,,,,,,,,,,,,,,,,,,,,207.0,3.5,,
156,,size_choice,,html-keyboard-response,156,145140,0.0-1.0-262.0,0,0,4,,600.0,,,51.0,65.0,65.0,2.0,1500.0,XL-XL,,XL,XL,4.0,4.0,tractor,van,tractor9,van6,188.0,195.0,/static/Size_judgement/Stimuli/Size_stims/XL/tractor/tractor9.jpg,/static/Size_judgement/Stimuli/Size_stims/XL/van/van2.jpg,0.0,van,tractor,XL,XL,4.0,4.0,van6,tractor9,,207.6,0.6,0.0,
157,,size_choice_confirmation,,html-keyboard-response,157,146043,0.0-1.0-263.0-0.0,0,0,4,,,,,,65.0,,,,,,,,,,,,,,,,,,,,,,,,,,,,208.5,0.9,,
158,,iti,,html-keyboard-response,158,146148,0.0-1.0-264.0,0,0,4,,,,,,,,,,,,,,,,,,,,,,,,,,,,,,,,,,210.0,1.5,,
159,,size_choice,,html-keyboard-response,159,146238,0.0-1.0-266.0,0,0,4,,88.0,,,50.0,66.0,66.0,2.0,2000.0,S-M,0.0,S,M,1.0,2.0,teabag,hairdryer,teabag6,hairdryer1,135.0,70.0,/static/Size_judgement/Stimuli/Size_stims/S/teabag/teabag6.jpg,/static/Size_judgement/Stimuli/Size_stims/M/hairdryer/hairdryer11.jpg,1.0,teabag,hairdryer,S,M,1.0,2.0,teabag6,hairdryer1,0.0,210.088,0.088,0.0,
160,,size_choice_confirmation,,html-keyboard-response,160,147654,0.0-1.0-267.0-0.0,0,0,4,,,,,,66.0,,,,,,,,,,,,,,,,,,,,,,,,,,,,211.5,1.412,,
161,,iti,,html-keyboard-response,161,147756,0.0-1.0-268.0,0,0,4,,,,,,,,,,,,,,,,,,,,,,,,,,,,,,,,,,213.5,2.0,,
162,,size_choice,,html-keyboard-response,162,148510,0.0-1.0-270.0,0,0,4,,753.0,,,51.0,67.0,67.0,2.0,1500.0,S-L,1.0,L,S,3.0,1.0,garbagecan,die,garbagecan8,die7,37.0,106.0,/static/Size_judgement/Stimuli/Size_stims/L/garbagecan/garbagecan13.jpg,/static/Size_judgement/Stimuli/Size_stims/S/die/die4.jpg,0.0,die,garbagecan,S,L,1.0,3.0,die7,garbagecan8,0.0,214.253,0.753,0.0,
163,,size_choice_confirmation,,html-keyboard-response,163,149261,0.0-1.0-271.0-0.0,0,0,4,,,,,,67.0,,,,,,,,,,,,,,,,,,,,,,,,,,,,215.0,0.747,,
164,,iti,,html-keyboard-response,164,149366,0.0-1.0-272.0,0,0,4,,,,,,,,,,,,,,,,,,,,,,,,,,,,,,,,,,216.5,1.5,,
165,,size_choice,,html-keyboard-response,165,150870,0.0-1.0-274.0,0,0,4,,,,,,68.0,68.0,2.0,1500.0,S-M,0.0,S,M,1.0,2.0,thread,basketball,thread1,basketball2,140.0,51.0,/static/Size_judgement/Stimuli/Size_stims/S/thread/thread7.jpg,/static/Size_judgement/Stimuli/Size_stims/M/basketball/basketball8.jpg,,,,,,,,,,,218.0,1.5,1.0,
166,,iti,,html-keyboard-response,166,150974,0.0-1.0-276.0,0,0,4,,,,,,,,,,,,,,,,,,,,,,,,,,,,,,,,,,219.5,1.5,,
167,,size_choice,,html-keyboard-response,167,152479,0.0-1.0-278.0,0,0,4,,,,,,69.0,69.0,2.0,1000.0,S-L,0.0,S,L,1.0,3.0,die,dishwasher,die8,dishwasher3,107.0,22.0,/static/Size_judgement/Stimuli/Size_stims/S/die/die5.jpg,/static/Size_judgement/Stimuli/Size_stims/L/dishwasher/dishwasher8.jpg,,,,,,,,,,,221.0,1.5,1.0,
168,,iti,,html-keyboard-response,168,152582,0.0-1.0-280.0,0,0,4,,,,,,,,,,,,,,,,,,,,,,,,,,,,,,,,,,222.0,1.0,,
169,,size_choice,,html-keyboard-response,169,154086,0.0-1.0-282.0,0,0,4,,,,,,70.0,70.0,2.0,1500.0,S-XL,1.0,XL,S,4.0,1.0,van,thread,van1,thread9,190.0,148.0,/static/Size_judgement/Stimuli/Size_stims/XL/van/van5.jpg,/static/Size_judgement/Stimuli/Size_stims/S/thread/thread8.jpg,,,,,,,,,,,223.5,1.5,1.0,
170,,iti,,html-keyboard-response,170,154188,0.0-1.0-284.0,0,0,4,,,,,,,,,,,,,,,,,,,,,,,,,,,,,,,,,,225.0,1.5,,
171,,size_choice,,html-keyboard-response,171,155009,0.0-1.0-286.0,0,0,4,,820.0,,,51.0,71.0,71.0,2.0,3500.0,M-L,0.0,M,L,2.0,3.0,basketball,deskchair,basketball9,deskchair2,58.0,11.0,/static/Size_judgement/Stimuli/Size_stims/M/basketball/basketball5.jpg,/static/Size_judgement/Stimuli/Size_stims/L/deskchair/deskchair8.jpg,0.0,deskchair,basketball,L,M,3.0,2.0,deskchair2,basketball9,1.0,225.82,0.82,0.0,
172,,size_choice_confirmation,,html-keyboard-response,172,155692,0.0-1.0-287.0-0.0,0,0,4,,,,,,71.0,,,,,,,,,,,,,,,,,,,,,,,,,,,,226.5,0.68,,
173,,iti,,html-keyboard-response,173,155793,0.0-1.0-288.0,0,0,4,,,,,,,,,,,,,,,,,,,,,,,,,,,,,,,,,,230.0,3.5,,
174,,size_choice,,html-keyboard-response,174,155808,0.0-1.0-290.0,0,0,4,,14.0,,,50.0,72.0,72.0,2.0,1000.0,L-XL,1.0,XL,L,4.0,3.0,car,deskchair,car9,deskchair4,158.0,13.0,/static/Size_judgement/Stimuli/Size_stims/XL/car/car15.jpg,/static/Size_judgement/Stimuli/Size_stims/L/deskchair/deskchair6.jpg,1.0,car,deskchair,XL,L,4.0,3.0,car9,deskchair4,1.0,230.014,0.014,0.0,
175,,size_choice_confirmation,,html-keyboard-response,175,157298,0.0-1.0-291.0-0.0,0,0,4,,,,,,72.0,,,,,,,,,,,,,,,,,,,,,,,,,,,,231.5,1.486,,
176,,iti,,html-keyboard-response,176,157404,0.0-1.0-292.0,0,0,4,,,,,,,,,,,,,,,,,,,,,,,,,,,,,,,,,,232.5,1.0,,
177,,size_choice,,html-keyboard-response,177,157467,0.0-1.0-294.0,0,0,4,,61.0,,,51.0,73.0,73.0,2.0,1500.0,M-M,,M,M,2.0,2.0,hairdryer,basketball,hairdryer3,basketball3,72.0,52.0,/static/Size_judgement/Stimuli/Size_stims/M/hairdryer/hairdryer17.jpg,/static/Size_judgement/Stimuli/Size_stims/M/basketball/basketball10.jpg,0.0,basketball,hairdryer,M,M,2.0,2.0,basketball3,hairdryer3,,232.561,0.061,0.0,
178,,size_choice_confirmation,,html-keyboard-response,178,158908,0.0-1.0-295.0-0.0,0,0,4,,,,,,73.0,,,,,,,,,,,,,,,,,,,,,,,,,,,,234.0,1.439,,
179,,iti,,html-keyboard-response,179,159009,0.0-1.0-296.0,0,0,4,,,,,,,,,,,,,,,,,,,,,,,,,,,,,,,,,,235.5,1.5,,
180,,size_choice,,html-keyboard-response,180,159277,0.0-1.0-298.0,0,0,4,,267.0,,,51.0,74.0,74.0,2.0,1500.0,S-XL,0.0,S,XL,1.0,4.0,paperclip,crane,paperclip10,crane1,119.0,160.0,/static/Size_judgement/Stimuli/Size_stims/S/paperclip/paperclip10.jpg,/static/Size_judgement/Stimuli/Size_stims/XL/crane/crane7.jpg,0.0,crane,paperclip,XL,S,4.0,1.0,crane1,paperclip10,1.0,235.767,0.267,0.0,
181,,size_choice_confirmation,,html-keyboard-response,181,160515,0.0-1.0-299.0-0.0,0,0,4,,,,,,74.0,,,,,,,,,,,,,,,,,,,,,,,,,,,,237.0,1.233,,
182,,iti,,html-keyboard-response,182,160620,0.0-1.0-300.0,0,0,4,,,,,,,,,,,,,,,,,,,,,,,,,,,,,,,,,,238.5,1.5,,
183,,size_choice,,html-keyboard-response,183,162124,0.0-1.0-302.0,0,0,4,,,,,,75.0,75.0,2.0,1000.0,M-L,1.0,L,M,3.0,2.0,cooler,ketchup,cooler5,ketchup10,4.0,99.0,/static/Size_judgement/Stimuli/Size_stims/L/cooler/cooler10.jpg,/static/Size_judgement/Stimuli/Size_stims/M/ketchup/ketchup6.jpg,,,,,,,,,,,240.0,1.5,1.0,
184,,iti,,html-keyboard-response,184,162225,0.0-1.0-304.0,0,0,4,,,,,,,,,,,,,,,,,,,,,,,,,,,,,,,,,,241.0,1.0,,
185,,size_choice,,html-keyboard-response,185,163732,0.0-1.0-306.0,0,0,4,,,,,,76.0,76.0,2.0,3000.0,S-S,,S,S,1.0,1.0,screws,die,screws7,die4,126.0,103.0,/static/Size_judgement/Stimuli/Size_stims/S/screws/screws1.jpg,/static/Size_judgement/Stimuli/Size_stims/S/die/die2.jpg,,,,,,,,,,,242.5,1.5,1.0,
186,,iti,,html-keyboard-response,186,163836,0.0-1.0-308.0,0,0,4,,,,,,,,,,,,,,,,,,,,,,,,,,,,,,,,,,245.5,3.0,,
187,,size_choice,,html-keyboard-response,187,165340,0.0-1.0-310.0,0,0,4,,,,,,77.0,77.0,2.0,1000.0,L-L,,L,L,3.0,3.0,mailbox,cooler,mailbox1,cooler2,40.0,1.0,/static/Size_judgement/Stimuli/Size_stims/L/mailbox/mailbox3.jpg,/static/Size_judgement/Stimuli/Size_stims/L/cooler/cooler9.jpg,,,,,,,,,,,247.0,1.5,1.0,
188,,iti,,html-keyboard-response,188,165441,0.0-1.0-312.0,0,0,4,,,,,,,,,,,,,,,,,,,,,,,,,,,,,,,,,,248.0,1.0,,
189,,size_choice,,html-keyboard-response,189,166945,0.0-1.0-314.0,0,0,4,,,,,,78.0,78.0,2.0,1000.0,S-L,1.0,L,S,3.0,1.0,cooler,paperclip,cooler8,paperclip6,7.0,115.0,/static/Size_judgement/Stimuli/Size_stims/L/cooler/cooler5.jpg,/static/Size_judgement/Stimuli/Size_stims/S/paperclip/paperclip6.jpg,,,,,,,,,,,249.5,1.5,1.0,
190,,iti,,html-keyboard-response,190,167048,0.0-1.0-316.0,0,0,4,,,,,,,,,,,,,,,,,,,,,,,,,,,,,,,,,,250.5,1.0,,
191,,size_choice,,html-keyboard-response,191,168552,0.0-1.0-318.0,0,0,4,,,,,,79.0,79.0,2.0,3000.0,S-XL,0.0,S,XL,1.0,4.0,paperclip,crane,paperclip3,crane2,112.0,161.0,/static/Size_judgement/Stimuli/Size_stims/S/paperclip/paperclip1.jpg,/static/Size_judgement/Stimuli/Size_stims/XL/crane/crane6.jpg,,,,,,,,,,,252.0,1.5,1.0,
192,,iti,,html-keyboard-response,192,168657,0.0-1.0-320.0,0,0,4,,,,,,,,,,,,,,,,,,,,,,,,,,,,,,,,,,255.0,3.0,,
193,,size_choice,,html-keyboard-response,193,170161,0.0-1.0-322.0,0,0,4,,,,,,80.0,80.0,2.0,1000.0,M-XL,0.0,M,XL,2.0,4.0,ketchup,van,ketchup1,van2,90.0,191.0,/static/Size_judgement/Stimuli/Size_stims/M/ketchup/ketchup8.jpg,/static/Size_judgement/Stimuli/Size_stims/XL/van/van4.jpg,,,,,,,,,,,256.5,1.5,1.0,
194,,iti,,html-keyboard-response,194,170265,0.0-1.0-324.0,0,0,4,,,,,,,,,,,,,,,,,,,,,,,,,,,,,,,,,,257.5,1.0,,
195,,size_choice,,html-keyboard-response,195,171768,0.0-1.0-326.0,0,0,4,,,,,,81.0,81.0,2.0,3000.0,M-XL,0.0,M,XL,2.0,4.0,coffeemaker,tractor,coffeemaker6,tractor3,65.0,182.0,/static/Size_judgement/Stimuli/Size_stims/M/coffeemaker/coffeemaker8.jpg,/static/Size_judgement/Stimuli/Size_stims/XL/tractor/tractor5.jpg,,,,,,,,,,,259.0,1.5,1.0,
196,,iti,,html-keyboard-response,196,171873,0.0-1.0-328.0,0,0,4,,,,,,,,,,,,,,,,,,,,,,,,,,,,,,,,,,262.0,3.0,,
197,,size_choice,,html-keyboard-response,197,173377,0.0-1.0-330.0,0,0,4,,,,,,82.0,82.0,2.0,1000.0,M-L,1.0,L,M,3.0,2.0,dishwasher,basketball,dishwasher6,basketball10,25.0,59.0,/static/Size_judgement/Stimuli/Size_stims/L/dishwasher/dishwasher6.jpg,/static/Size_judgement/Stimuli/Size_stims/M/basketball/basketball4.jpg,,,,,,,,,,,263.5,1.5,1.0,
198,,iti,,html-keyboard-response,198,173482,0.0-1.0-332.0,0,0,4,,,,,,,,,,,,,,,,,,,,,,,,,,,,,,,,,,264.5,1.0,,
199,,size_choice,,html-keyboard-response,199,174988,0.0-1.0-334.0,0,0,4,,,,,,83.0,83.0,2.0,1000.0,M-XL,1.0,XL,M,4.0,2.0,van,hairdryer,van8,hairdryer9,197.0,78.0,/static/Size_judgement/Stimuli/Size_stims/XL/van/van10.jpg,/static/Size_judgement/Stimuli/Size_stims/M/hairdryer/hairdryer5.jpg,,,,,,,,,,,266.0,1.5,1.0,
200,,iti,,html-keyboard-response,200,175089,0.0-1.0-336.0,0,0,4,,,,,,,,,,,,,,,,,,,,,,,,,,,,,,,,,,267.0,1.0,,
201,,size_choice,,html-keyboard-response,201,175090,0.0-1.0-338.0,0,0,4,,0.0,,,50.0,84.0,84.0,2.0,1000.0,XL-XL,,XL,XL,4.0,4.0,tractor,dumptruck,tractor5,dumptruck3,184.0,172.0,/static/Size_judgement/Stimuli/Size_stims/XL/tractor/tractor1.jpg,/static/Size_judgement/Stimuli/Size_stims/XL/dumptruck/dumptruck10.jpg,1.0,tractor,dumptruck,XL,XL,4.0,4.0,tractor5,dumptruck3,,267.0,0.0,0.0,
202,,size_choice_confirmation,,html-keyboard-response,202,176593,0.0-1.0-339.0-0.0,0,0,4,,,,,,84.0,,,,,,,,,,,,,,,,,,,,,,,,,,,,268.5,1.5,,
203,,iti,,html-keyboard-response,203,176698,0.0-1.0-340.0,0,0,4,,,,,,,,,,,,,,,,,,,,,,,,,,,,,,,,,,269.5,1.0,,
204,,size_choice,,html-keyboard-response,204,176742,0.0-1.0-342.0,0,0,4,,43.0,,,51.0,85.0,85.0,2.0,1000.0,M-L,1.0,L,M,3.0,2.0,mailbox,basketball,mailbox7,basketball1,46.0,50.0,/static/Size_judgement/Stimuli/Size_stims/L/mailbox/mailbox7.jpg,/static/Size_judgement/Stimuli/Size_stims/M/basketball/basketball9.jpg,0.0,basketball,mailbox,M,L,2.0,3.0,basketball1,mailbox7,0.0,269.543,0.043,0.0,
205,,size_choice_confirmation,,html-keyboard-response,205,178204,0.0-1.0-343.0-0.0,0,0,4,,,,,,85.0,,,,,,,,,,,,,,,,,,,,,,,,,,,,271.0,1.457,,
206,,iti,,html-keyboard-response,206,178305,0.0-1.0-344.0,0,0,4,,,,,,,,,,,,,,,,,,,,,,,,,,,,,,,,,,272.0,1.0,,
207,,size_choice,,html-keyboard-response,207,179809,0.0-1.0-346.0,0,0,4,,,,,,86.0,86.0,2.0,1500.0,S-XL,1.0,XL,S,4.0,1.0,dumptruck,screws,dumptruck6,screws8,175.0,127.0,/static/Size_judgement/Stimuli/Size_stims/XL/dumptruck/dumptruck2.jpg,/static/Size_judgement/Stimuli/Size_stims/S/screws/screws10.jpg,,,,,,,,,,,273.5,1.5,1.0,
208,,iti,,html-keyboard-response,208,179915,0.0-1.0-348.0,0,0,4,,,,,,,,,,,,,,,,,,,,,,,,,,,,,,,,,,275.0,1.5,,
209,,size_choice,,html-keyboard-response,209,181671,0.0-1.0-350.0,0,0,4,,,,,,87.0,87.0,2.0,1500.0,L-XL,1.0,XL,L,4.0,3.0,car,deskchair,car7,deskchair8,156.0,17.0,/static/Size_judgement/Stimuli/Size_stims/XL/car/car13.jpg,/static/Size_judgement/Stimuli/Size_stims/L/deskchair/deskchair1.jpg,,,,,,,,,,,276.5,1.5,1.0,
210,,iti,,html-keyboard-response,210,182576,0.0-1.0-352.0,0,0,4,,,,,,,,,,,,,,,,,,,,,,,,,,,,,,,,,,278.0,1.5,,
211,,size_choice,,html-keyboard-response,211,184532,0.0-1.0-354.0,0,0,4,,,,,,88.0,88.0,2.0,1000.0,M-L,1.0,L,M,3.0,2.0,garbagecan,hairdryer,garbagecan10,hairdryer7,39.0,76.0,/static/Size_judgement/Stimuli/Size_stims/L/garbagecan/garbagecan11.jpg,/static/Size_judgement/Stimuli/Size_stims/M/hairdryer/hairdryer3.jpg,,,,,,,,,,,279.5,1.5,1.0,
212,,iti,,html-keyboard-response,212,185970,0.0-1.0-356.0,0,0,4,,,,,,,,,,,,,,,,,,,,,,,,,,,,,,,,,,280.5,1.0,,
213,,size_choice,,html-keyboard-response,213,187841,0.0-1.0-358.0,0,0,4,,,,,,89.0,89.0,2.0,2000.0,M-XL,0.0,M,XL,2.0,4.0,handsaw,car,handsaw5,car10,84.0,159.0,/static/Size_judgement/Stimuli/Size_stims/M/handsaw/handsaw1.jpg,/static/Size_judgement/Stimuli/Size_stims/XL/car/car9.jpg,,,,,,,,,,,282.0,1.5,1.0,
214,,iti,,html-keyboard-response,214,188876,0.0-1.0-360.0,0,0,4,,,,,,,,,,,,,,,,,,,,,,,,,,,,,,,,,,284.0,2.0,,0.63
215,,size_final_tally,,html-keyboard-response,215,196954,0.0-2.0,0,0,4,,8076.0,,,50.0,,,,,,,,,,,,,,,,,,,,,,,,,,,,,,,,
