,success,ttype,start_time,trial_type,trial_index,time_elapsed,internal_node_id,warning,missed_checkup,PID,view_history,rt,responses,repeat_instructions,key_press,index,trial_num,block,iti,pair_type,high_size_on_left,left_size_group,right_size_group,left_size_num,right_size_num,left_category,right_category,left_exemplar,right_exemplar,left_index,right_index,left_img_path,right_img_path,left_chosen,chosen_category,unchosen_category,chosen_size_group,unchosen_size_group,chosen_size_num,unchosen_size_num,chosen_exemplar,unchosen_exemplar,accuracy,onset,duration,no_response,size_final_tally
0,True,full_screen,d06072022hr1214,fullscreen,0,3221,0.0-0.0,0,0,72837,,,,,,,,,,,,,,,,,,,,,,,,,,,,,,,,,,,,,
1,,size_instructions,,instructions,1,26519,0.0-1.0-0.0-0.0,0,0,72837,"[{""page_index"":0,""viewing_time"":6420},{""page_index"":1,""viewing_time"":5071},{""page_index"":2,""viewing_time"":1665},{""page_index"":3,""viewing_time"":2600},{""page_index"":4,""viewing_time"":5991},{""page_index"":5,""viewing_time"":1544}]",23292.0,,,,,,,,,,,,,,,,,,,,,,,,,,,,,,,,,,,
2,,size_comprehension_check,,survey-multi-choice,2,37348,0.0-1.0-0.0-1.0,0,0,72837,,10824.0,"{""Q0"":""True"",""Q1"":""Size in the real world"",""Q2"":""True"",""Q3"":""D for left and K for right""}",0.0,,,,,,,,,,,,,,,,,,,,,,,,,,,,,,,,,
3,,,,html-keyboard-response,3,38224,0.0-1.0-1.0,0,0,72837,,870.0,,,68.0,,,,,,,,,,,,,,,,,,,,,,,,,,,,,,,,
4,,size_choice,,html-keyboard-response,4,39370,0.0-1.0-2.0,0,0,72837,,1141.0,,,68.0,0.0,0.0,1.0,1500.0,S-M,1.0,M,S,2.0,1.0,hairdryer,paperclip,hairdryer8,paperclip1,77.0,110.0,/static/Size_judgement/Stimuli/Size_stims/M/hairdryer/hairdryer1.jpg,/static/Size_judgement/Stimuli/Size_stims/S/paperclip/paperclip9.jpg,1.0,hairdryer,paperclip,M,S,2.0,1.0,hairdryer8,paperclip1,1.0,1.141,1.141,0.0,
5,,size_choice_confirmation,,html-keyboard-response,5,39740,0.0-1.0-3.0-0.0,0,0,72837,,,,,,0.0,,1.0,,,,,,,,,,,,,,,,,,,,,,,,,,1.5,0.359,,
6,,iti,,html-keyboard-response,6,41256,0.0-1.0-4.0,0,0,72837,,,,,,0.0,,1.0,,,,,,,,,,,,,,,,,,,,,,,,,,3.0,1.5,,
7,,size_choice,,html-keyboard-response,7,42163,0.0-1.0-6.0,0,0,72837,,902.0,,,75.0,1.0,1.0,1.0,1000.0,S-XL,0.0,S,XL,1.0,4.0,die,van,die5,van5,104.0,194.0,/static/Size_judgement/Stimuli/Size_stims/S/die/die3.jpg,/static/Size_judgement/Stimuli/Size_stims/XL/van/van3.jpg,0.0,van,die,XL,S,4.0,1.0,van5,die5,1.0,3.902,0.902,0.0,
8,,size_choice_confirmation,,html-keyboard-response,8,42767,0.0-1.0-7.0-0.0,0,0,72837,,,,,,1.0,,1.0,,,,,,,,,,,,,,,,,,,,,,,,,,4.5,0.598,,
9,,iti,,html-keyboard-response,9,43785,0.0-1.0-8.0,0,0,72837,,,,,,1.0,,1.0,,,,,,,,,,,,,,,,,,,,,,,,,,5.5,1.0,,
10,,size_choice,,html-keyboard-response,10,44872,0.0-1.0-10.0,0,0,72837,,1083.0,,,68.0,2.0,2.0,1.0,1000.0,S-L,1.0,L,S,3.0,1.0,dishwasher,thread,dishwasher8,thread1,27.0,140.0,/static/Size_judgement/Stimuli/Size_stims/L/dishwasher/dishwasher3.jpg,/static/Size_judgement/Stimuli/Size_stims/S/thread/thread7.jpg,1.0,dishwasher,thread,L,S,3.0,1.0,dishwasher8,thread1,1.0,6.583,1.083,0.0,
11,,size_choice_confirmation,,html-keyboard-response,11,45305,0.0-1.0-11.0-0.0,0,0,72837,,,,,,2.0,,1.0,,,,,,,,,,,,,,,,,,,,,,,,,,7.0,0.417,,
12,,iti,,html-keyboard-response,12,46316,0.0-1.0-12.0,0,0,72837,,,,,,2.0,,1.0,,,,,,,,,,,,,,,,,,,,,,,,,,8.0,1.0,,
13,,size_choice,,html-keyboard-response,13,47132,0.0-1.0-14.0,0,0,72837,,809.0,,,68.0,3.0,3.0,1.0,1500.0,M-XL,1.0,XL,M,4.0,2.0,van,basketball,van4,basketball9,193.0,58.0,/static/Size_judgement/Stimuli/Size_stims/XL/van/van7.jpg,/static/Size_judgement/Stimuli/Size_stims/M/basketball/basketball5.jpg,1.0,van,basketball,XL,M,4.0,2.0,van4,basketball9,1.0,8.809,0.809,0.0,
14,,size_choice_confirmation,,html-keyboard-response,14,47839,0.0-1.0-15.0-0.0,0,0,72837,,,,,,3.0,,1.0,,,,,,,,,,,,,,,,,,,,,,,,,,9.5,0.691,,
15,,iti,,html-keyboard-response,15,49357,0.0-1.0-16.0,0,0,72837,,,,,,3.0,,1.0,,,,,,,,,,,,,,,,,,,,,,,,,,11.0,1.5,,
16,,size_choice,,html-keyboard-response,16,50267,0.0-1.0-18.0,0,0,72837,,903.0,,,68.0,4.0,4.0,1.0,1500.0,M-XL,1.0,XL,M,4.0,2.0,crane,handsaw,crane4,handsaw4,163.0,83.0,/static/Size_judgement/Stimuli/Size_stims/XL/crane/crane5.jpg,/static/Size_judgement/Stimuli/Size_stims/M/handsaw/handsaw3.jpg,1.0,crane,handsaw,XL,M,4.0,2.0,crane4,handsaw4,1.0,11.903,0.903,0.0,
17,,size_choice_confirmation,,html-keyboard-response,17,50873,0.0-1.0-19.0-0.0,0,0,72837,,,,,,4.0,,1.0,,,,,,,,,,,,,,,,,,,,,,,,,,12.5,0.597,,
18,,iti,,html-keyboard-response,18,52388,0.0-1.0-20.0,0,0,72837,,,,,,4.0,,1.0,,,,,,,,,,,,,,,,,,,,,,,,,,14.0,1.5,,
19,,size_choice,,html-keyboard-response,19,53521,0.0-1.0-22.0,0,0,72837,,1129.0,,,68.0,5.0,5.0,1.0,1000.0,M-L,1.0,L,M,3.0,2.0,deskchair,handsaw,deskchair9,handsaw9,18.0,88.0,/static/Size_judgement/Stimuli/Size_stims/L/deskchair/deskchair3.jpg,/static/Size_judgement/Stimuli/Size_stims/M/handsaw/handsaw6.jpg,1.0,deskchair,handsaw,L,M,3.0,2.0,deskchair9,handsaw9,1.0,15.129,1.129,0.0,
20,,size_choice_confirmation,,html-keyboard-response,20,53902,0.0-1.0-23.0-0.0,0,0,72837,,,,,,5.0,,1.0,,,,,,,,,,,,,,,,,,,,,,,,,,15.5,0.371,,
21,,iti,,html-keyboard-response,21,54918,0.0-1.0-24.0,0,0,72837,,,,,,5.0,,1.0,,,,,,,,,,,,,,,,,,,,,,,,,,16.5,1.0,,
22,,size_choice,,html-keyboard-response,22,56270,0.0-1.0-26.0,0,0,72837,,1348.0,,,75.0,6.0,6.0,1.0,1500.0,M-L,0.0,M,L,2.0,3.0,coffeemaker,mailbox,coffeemaker7,mailbox7,66.0,46.0,/static/Size_judgement/Stimuli/Size_stims/M/coffeemaker/coffeemaker9.jpg,/static/Size_judgement/Stimuli/Size_stims/L/mailbox/mailbox7.jpg,0.0,mailbox,coffeemaker,L,M,3.0,2.0,mailbox7,coffeemaker7,1.0,17.848,1.348,0.0,
23,,size_choice_confirmation,,html-keyboard-response,23,56428,0.0-1.0-27.0-0.0,0,0,72837,,,,,,6.0,,1.0,,,,,,,,,,,,,,,,,,,,,,,,,,18.0,0.152,,
24,,iti,,html-keyboard-response,24,57935,0.0-1.0-28.0,0,0,72837,,,,,,6.0,,1.0,,,,,,,,,,,,,,,,,,,,,,,,,,19.5,1.5,,
25,,size_choice,,html-keyboard-response,25,58803,0.0-1.0-30.0,0,0,72837,,863.0,,,68.0,7.0,7.0,1.0,1500.0,M-L,1.0,L,M,3.0,2.0,deskchair,ketchup,deskchair10,ketchup3,19.0,92.0,/static/Size_judgement/Stimuli/Size_stims/L/deskchair/deskchair2.jpg,/static/Size_judgement/Stimuli/Size_stims/M/ketchup/ketchup10.jpg,1.0,deskchair,ketchup,L,M,3.0,2.0,deskchair10,ketchup3,1.0,20.363,0.863,0.0,
26,,size_choice_confirmation,,html-keyboard-response,26,59447,0.0-1.0-31.0-0.0,0,0,72837,,,,,,7.0,,1.0,,,,,,,,,,,,,,,,,,,,,,,,,,21.0,0.637,,
27,,iti,,html-keyboard-response,27,60967,0.0-1.0-32.0,0,0,72837,,,,,,7.0,,1.0,,,,,,,,,,,,,,,,,,,,,,,,,,22.5,1.5,,
28,,size_choice,,html-keyboard-response,28,61931,0.0-1.0-34.0,0,0,72837,,956.0,,,68.0,8.0,8.0,1.0,2000.0,S-L,1.0,L,S,3.0,1.0,cooler,paperclip,cooler8,paperclip3,7.0,112.0,/static/Size_judgement/Stimuli/Size_stims/L/cooler/cooler5.jpg,/static/Size_judgement/Stimuli/Size_stims/S/paperclip/paperclip1.jpg,1.0,cooler,paperclip,L,S,3.0,1.0,cooler8,paperclip3,1.0,23.456,0.956,0.0,
29,,size_choice_confirmation,,html-keyboard-response,29,62492,0.0-1.0-35.0-0.0,0,0,72837,,,,,,8.0,,1.0,,,,,,,,,,,,,,,,,,,,,,,,,,24.0,0.544,,
30,,iti,,html-keyboard-response,30,64495,0.0-1.0-36.0,0,0,72837,,,,,,8.0,,1.0,,,,,,,,,,,,,,,,,,,,,,,,,,26.0,2.0,,
31,,size_choice,,html-keyboard-response,31,65382,0.0-1.0-38.0,0,0,72837,,884.0,,,75.0,9.0,9.0,1.0,1500.0,M-L,0.0,M,L,2.0,3.0,basketball,garbagecan,basketball10,garbagecan5,59.0,34.0,/static/Size_judgement/Stimuli/Size_stims/M/basketball/basketball4.jpg,/static/Size_judgement/Stimuli/Size_stims/L/garbagecan/garbagecan3.jpg,0.0,garbagecan,basketball,L,M,3.0,2.0,garbagecan5,basketball10,1.0,26.884,0.884,0.0,
32,,size_choice_confirmation,,html-keyboard-response,32,66016,0.0-1.0-39.0-0.0,0,0,72837,,,,,,9.0,,1.0,,,,,,,,,,,,,,,,,,,,,,,,,,27.5,0.616,,
33,,iti,,html-keyboard-response,33,67576,0.0-1.0-40.0,0,0,72837,,,,,,9.0,,1.0,,,,,,,,,,,,,,,,,,,,,,,,,,29.0,1.5,,
34,,size_choice,,html-keyboard-response,34,68254,0.0-1.0-42.0,0,0,72837,,676.0,,,68.0,10.0,10.0,1.0,2000.0,S-L,1.0,L,S,3.0,1.0,dishwasher,teabag,dishwasher1,teabag5,20.0,134.0,/static/Size_judgement/Stimuli/Size_stims/L/dishwasher/dishwasher10.jpg,/static/Size_judgement/Stimuli/Size_stims/S/teabag/teabag2.jpg,1.0,dishwasher,teabag,L,S,3.0,1.0,dishwasher1,teabag5,1.0,29.676,0.676,0.0,
35,,size_choice_confirmation,,html-keyboard-response,35,69087,0.0-1.0-43.0-0.0,0,0,72837,,,,,,10.0,,1.0,,,,,,,,,,,,,,,,,,,,,,,,,,30.5,0.824,,
36,,iti,,html-keyboard-response,36,71106,0.0-1.0-44.0,0,0,72837,,,,,,10.0,,1.0,,,,,,,,,,,,,,,,,,,,,,,,,,32.5,2.0,,
37,,size_choice,,html-keyboard-response,37,72205,0.0-1.0-46.0,0,0,72837,,1095.0,,,68.0,11.0,11.0,1.0,1000.0,S-S,,S,S,1.0,1.0,thread,die,thread10,die4,149.0,103.0,/static/Size_judgement/Stimuli/Size_stims/S/thread/thread9.jpg,/static/Size_judgement/Stimuli/Size_stims/S/die/die2.jpg,1.0,thread,die,S,S,1.0,1.0,thread10,die4,,33.595,1.095,0.0,
38,,size_choice_confirmation,,html-keyboard-response,38,72632,0.0-1.0-47.0-0.0,0,0,72837,,,,,,11.0,,1.0,,,,,,,,,,,,,,,,,,,,,,,,,,34.0,0.405,,
39,,iti,,html-keyboard-response,39,73638,0.0-1.0-48.0,0,0,72837,,,,,,11.0,,1.0,,,,,,,,,,,,,,,,,,,,,,,,,,35.0,1.0,,
40,,size_choice,,html-keyboard-response,40,74619,0.0-1.0-50.0,0,0,72837,,976.0,,,75.0,12.0,12.0,1.0,1000.0,S-XL,0.0,S,XL,1.0,4.0,teabag,crane,teabag6,crane6,135.0,165.0,/static/Size_judgement/Stimuli/Size_stims/S/teabag/teabag6.jpg,/static/Size_judgement/Stimuli/Size_stims/XL/crane/crane2.jpg,0.0,crane,teabag,XL,S,4.0,1.0,crane6,teabag6,1.0,35.976,0.976,0.0,
41,,size_choice_confirmation,,html-keyboard-response,41,75148,0.0-1.0-51.0-0.0,0,0,72837,,,,,,12.0,,1.0,,,,,,,,,,,,,,,,,,,,,,,,,,36.5,0.524,,
42,,iti,,html-keyboard-response,42,76158,0.0-1.0-52.0,0,0,72837,,,,,,12.0,,1.0,,,,,,,,,,,,,,,,,,,,,,,,,,37.5,1.0,,
43,,size_choice,,html-keyboard-response,43,77116,0.0-1.0-54.0,0,0,72837,,954.0,,,75.0,13.0,13.0,1.0,1500.0,S-M,0.0,S,M,1.0,2.0,paperclip,ketchup,paperclip2,ketchup7,111.0,96.0,/static/Size_judgement/Stimuli/Size_stims/S/paperclip/paperclip8.jpg,/static/Size_judgement/Stimuli/Size_stims/M/ketchup/ketchup4.jpg,0.0,ketchup,paperclip,M,S,2.0,1.0,ketchup7,paperclip2,1.0,38.454,0.954,0.0,
44,,size_choice_confirmation,,html-keyboard-response,44,77687,0.0-1.0-55.0-0.0,0,0,72837,,,,,,13.0,,1.0,,,,,,,,,,,,,,,,,,,,,,,,,,39.0,0.546,,
45,,iti,,html-keyboard-response,45,79192,0.0-1.0-56.0,0,0,72837,,,,,,13.0,,1.0,,,,,,,,,,,,,,,,,,,,,,,,,,40.5,1.5,,
46,,size_choice,,html-keyboard-response,46,80082,0.0-1.0-58.0,0,0,72837,,885.0,,,75.0,14.0,14.0,1.0,2000.0,S-L,0.0,S,L,1.0,3.0,thread,garbagecan,thread6,garbagecan8,145.0,37.0,/static/Size_judgement/Stimuli/Size_stims/S/thread/thread2.jpg,/static/Size_judgement/Stimuli/Size_stims/L/garbagecan/garbagecan13.jpg,0.0,garbagecan,thread,L,S,3.0,1.0,garbagecan8,thread6,1.0,41.385,0.885,0.0,
47,,size_choice_confirmation,,html-keyboard-response,47,80719,0.0-1.0-59.0-0.0,0,0,72837,,,,,,14.0,,1.0,,,,,,,,,,,,,,,,,,,,,,,,,,42.0,0.615,,
48,,iti,,html-keyboard-response,48,82733,0.0-1.0-60.0,0,0,72837,,,,,,14.0,,1.0,,,,,,,,,,,,,,,,,,,,,,,,,,44.0,2.0,,
49,,size_choice,,html-keyboard-response,49,83667,0.0-1.0-62.0,0,0,72837,,930.0,,,75.0,15.0,15.0,1.0,1000.0,S-L,0.0,S,L,1.0,3.0,screws,dishwasher,screws4,dishwasher2,123.0,21.0,/static/Size_judgement/Stimuli/Size_stims/S/screws/screws6.jpg,/static/Size_judgement/Stimuli/Size_stims/L/dishwasher/dishwasher9.jpg,0.0,dishwasher,screws,L,S,3.0,1.0,dishwasher2,screws4,1.0,44.93,0.93,0.0,
50,,size_choice_confirmation,,html-keyboard-response,50,84242,0.0-1.0-63.0-0.0,0,0,72837,,,,,,15.0,,1.0,,,,,,,,,,,,,,,,,,,,,,,,,,45.5,0.57,,
51,,iti,,html-keyboard-response,51,85250,0.0-1.0-64.0,0,0,72837,,,,,,15.0,,1.0,,,,,,,,,,,,,,,,,,,,,,,,,,46.5,1.0,,
52,,size_choice,,html-keyboard-response,52,86271,0.0-1.0-66.0,0,0,72837,,1019.0,,,75.0,16.0,16.0,1.0,3000.0,XL-XL,,XL,XL,4.0,4.0,dumptruck,crane,dumptruck9,crane9,178.0,168.0,/static/Size_judgement/Stimuli/Size_stims/XL/dumptruck/dumptruck5.jpg,/static/Size_judgement/Stimuli/Size_stims/XL/crane/crane8.jpg,0.0,crane,dumptruck,XL,XL,4.0,4.0,crane9,dumptruck9,,47.519,1.019,0.0,
53,,size_choice_confirmation,,html-keyboard-response,53,86773,0.0-1.0-67.0-0.0,0,0,72837,,,,,,16.0,,1.0,,,,,,,,,,,,,,,,,,,,,,,,,,48.0,0.481,,
54,,iti,,html-keyboard-response,54,89792,0.0-1.0-68.0,0,0,72837,,,,,,16.0,,1.0,,,,,,,,,,,,,,,,,,,,,,,,,,51.0,3.0,,
55,,size_choice,,html-keyboard-response,55,90898,0.0-1.0-70.0,0,0,72837,,1102.0,,,75.0,17.0,17.0,1.0,1000.0,L-L,,L,L,3.0,3.0,deskchair,mailbox,deskchair2,mailbox5,11.0,44.0,/static/Size_judgement/Stimuli/Size_stims/L/deskchair/deskchair8.jpg,/static/Size_judgement/Stimuli/Size_stims/L/mailbox/mailbox4.jpg,0.0,mailbox,deskchair,L,L,3.0,3.0,mailbox5,deskchair2,,52.102,1.102,0.0,
56,,size_choice_confirmation,,html-keyboard-response,56,91323,0.0-1.0-71.0-0.0,0,0,72837,,,,,,17.0,,1.0,,,,,,,,,,,,,,,,,,,,,,,,,,52.5,0.398,,
57,,iti,,html-keyboard-response,57,92328,0.0-1.0-72.0,0,0,72837,,,,,,17.0,,1.0,,,,,,,,,,,,,,,,,,,,,,,,,,53.5,1.0,,
58,,size_choice,,html-keyboard-response,58,93285,0.0-1.0-74.0,0,0,72837,,955.0,,,68.0,18.0,18.0,1.0,3000.0,M-XL,1.0,XL,M,4.0,2.0,van,coffeemaker,van2,coffeemaker8,191.0,67.0,/static/Size_judgement/Stimuli/Size_stims/XL/van/van4.jpg,/static/Size_judgement/Stimuli/Size_stims/M/coffeemaker/coffeemaker5.jpg,1.0,van,coffeemaker,XL,M,4.0,2.0,van2,coffeemaker8,1.0,54.455,0.955,0.0,
59,,size_choice_confirmation,,html-keyboard-response,59,93840,0.0-1.0-75.0-0.0,0,0,72837,,,,,,18.0,,1.0,,,,,,,,,,,,,,,,,,,,,,,,,,55.0,0.545,,
60,,iti,,html-keyboard-response,60,96859,0.0-1.0-76.0,0,0,72837,,,,,,18.0,,1.0,,,,,,,,,,,,,,,,,,,,,,,,,,58.0,3.0,,
61,,size_choice,,html-keyboard-response,61,97722,0.0-1.0-78.0,0,0,72837,,856.0,,,68.0,19.0,19.0,1.0,1000.0,M-XL,1.0,XL,M,4.0,2.0,tractor,handsaw,tractor6,handsaw1,185.0,80.0,/static/Size_judgement/Stimuli/Size_stims/XL/tractor/tractor3.jpg,/static/Size_judgement/Stimuli/Size_stims/M/handsaw/handsaw8.jpg,1.0,tractor,handsaw,XL,M,4.0,2.0,tractor6,handsaw1,1.0,58.856,0.856,0.0,
62,,size_choice_confirmation,,html-keyboard-response,62,98381,0.0-1.0-79.0-0.0,0,0,72837,,,,,,19.0,,1.0,,,,,,,,,,,,,,,,,,,,,,,,,,59.5,0.644,,
63,,iti,,html-keyboard-response,63,99399,0.0-1.0-80.0,0,0,72837,,,,,,19.0,,1.0,,,,,,,,,,,,,,,,,,,,,,,,,,60.5,1.0,,
64,,size_choice,,html-keyboard-response,64,100215,0.0-1.0-82.0,0,0,72837,,811.0,,,75.0,20.0,20.0,1.0,1000.0,M-XL,0.0,M,XL,2.0,4.0,hairdryer,van,hairdryer9,van1,78.0,190.0,/static/Size_judgement/Stimuli/Size_stims/M/hairdryer/hairdryer5.jpg,/static/Size_judgement/Stimuli/Size_stims/XL/van/van5.jpg,0.0,van,hairdryer,XL,M,4.0,2.0,van1,hairdryer9,1.0,61.311,0.811,0.0,
65,,size_choice_confirmation,,html-keyboard-response,65,100909,0.0-1.0-83.0-0.0,0,0,72837,,,,,,20.0,,1.0,,,,,,,,,,,,,,,,,,,,,,,,,,62.0,0.689,,
66,,iti,,html-keyboard-response,66,101918,0.0-1.0-84.0,0,0,72837,,,,,,20.0,,1.0,,,,,,,,,,,,,,,,,,,,,,,,,,63.0,1.0,,
67,,size_choice,,html-keyboard-response,67,102890,0.0-1.0-86.0,0,0,72837,,967.0,,,75.0,21.0,21.0,1.0,1000.0,S-M,0.0,S,M,1.0,2.0,die,hairdryer,die6,hairdryer4,105.0,73.0,/static/Size_judgement/Stimuli/Size_stims/S/die/die1.jpg,/static/Size_judgement/Stimuli/Size_stims/M/hairdryer/hairdryer16.jpg,0.0,hairdryer,die,M,S,2.0,1.0,hairdryer4,die6,1.0,63.967,0.967,0.0,
68,,size_choice_confirmation,,html-keyboard-response,68,103429,0.0-1.0-87.0-0.0,0,0,72837,,,,,,21.0,,1.0,,,,,,,,,,,,,,,,,,,,,,,,,,64.5,0.533,,
69,,iti,,html-keyboard-response,69,104437,0.0-1.0-88.0,0,0,72837,,,,,,21.0,,1.0,,,,,,,,,,,,,,,,,,,,,,,,,,65.5,1.0,,
70,,size_choice,,html-keyboard-response,70,105216,0.0-1.0-90.0,0,0,72837,,770.0,,,68.0,22.0,22.0,1.0,1000.0,S-L,1.0,L,S,3.0,1.0,mailbox,teabag,mailbox3,teabag8,42.0,137.0,/static/Size_judgement/Stimuli/Size_stims/L/mailbox/mailbox1.jpg,/static/Size_judgement/Stimuli/Size_stims/S/teabag/teabag7.jpg,1.0,mailbox,teabag,L,S,3.0,1.0,mailbox3,teabag8,1.0,66.27,0.77,0.0,
71,,size_choice_confirmation,,html-keyboard-response,71,105965,0.0-1.0-91.0-0.0,0,0,72837,,,,,,22.0,,1.0,,,,,,,,,,,,,,,,,,,,,,,,,,67.0,0.73,,
72,,iti,,html-keyboard-response,72,106987,0.0-1.0-92.0,0,0,72837,,,,,,22.0,,1.0,,,,,,,,,,,,,,,,,,,,,,,,,,68.0,1.0,,
73,,size_choice,,html-keyboard-response,73,107770,0.0-1.0-94.0,0,0,72837,,770.0,,,68.0,23.0,23.0,1.0,1500.0,M-XL,1.0,XL,M,4.0,2.0,tractor,basketball,tractor4,basketball4,183.0,53.0,/static/Size_judgement/Stimuli/Size_stims/XL/tractor/tractor4.jpg,/static/Size_judgement/Stimuli/Size_stims/M/basketball/basketball1.jpg,1.0,tractor,basketball,XL,M,4.0,2.0,tractor4,basketball4,1.0,68.77,0.77,0.0,
74,,size_choice_confirmation,,html-keyboard-response,74,108507,0.0-1.0-95.0-0.0,0,0,72837,,,,,,23.0,,1.0,,,,,,,,,,,,,,,,,,,,,,,,,,69.5,0.73,,
75,,iti,,html-keyboard-response,75,110016,0.0-1.0-96.0,0,0,72837,,,,,,23.0,,1.0,,,,,,,,,,,,,,,,,,,,,,,,,,71.0,1.5,,
76,,size_choice,,html-keyboard-response,76,110794,0.0-1.0-98.0,0,0,72837,,777.0,,,68.0,24.0,24.0,1.0,2000.0,S-XL,1.0,XL,S,4.0,1.0,dumptruck,die,dumptruck6,die8,175.0,107.0,/static/Size_judgement/Stimuli/Size_stims/XL/dumptruck/dumptruck2.jpg,/static/Size_judgement/Stimuli/Size_stims/S/die/die5.jpg,1.0,dumptruck,die,XL,S,4.0,1.0,dumptruck6,die8,1.0,71.777,0.777,0.0,
77,,size_choice_confirmation,,html-keyboard-response,77,111530,0.0-1.0-99.0-0.0,0,0,72837,,,,,,24.0,,1.0,,,,,,,,,,,,,,,,,,,,,,,,,,72.5,0.723,,
78,,iti,,html-keyboard-response,78,113539,0.0-1.0-100.0,0,0,72837,,,,,,24.0,,1.0,,,,,,,,,,,,,,,,,,,,,,,,,,74.5,2.0,,
79,,size_choice,,html-keyboard-response,79,114187,0.0-1.0-102.0,0,0,72837,,644.0,,,68.0,25.0,25.0,1.0,1000.0,S-XL,1.0,XL,S,4.0,1.0,van,die,van10,die10,199.0,109.0,/static/Size_judgement/Stimuli/Size_stims/XL/van/van8.jpg,/static/Size_judgement/Stimuli/Size_stims/S/die/die6.jpg,1.0,van,die,XL,S,4.0,1.0,van10,die10,1.0,75.144,0.644,0.0,
80,,size_choice_confirmation,,html-keyboard-response,80,115054,0.0-1.0-103.0-0.0,0,0,72837,,,,,,25.0,,1.0,,,,,,,,,,,,,,,,,,,,,,,,,,76.0,0.856,,
81,,iti,,html-keyboard-response,81,116059,0.0-1.0-104.0,0,0,72837,,,,,,25.0,,1.0,,,,,,,,,,,,,,,,,,,,,,,,,,77.0,1.0,,
82,,size_choice,,html-keyboard-response,82,117501,0.0-1.0-106.0,0,0,72837,,1441.0,,,75.0,26.0,26.0,1.0,2000.0,M-M,,M,M,2.0,2.0,coffeemaker,hairdryer,coffeemaker5,hairdryer1,64.0,70.0,/static/Size_judgement/Stimuli/Size_stims/M/coffeemaker/coffeemaker10.jpg,/static/Size_judgement/Stimuli/Size_stims/M/hairdryer/hairdryer11.jpg,0.0,hairdryer,coffeemaker,M,M,2.0,2.0,hairdryer1,coffeemaker5,,78.441,1.441,0.0,
83,,size_choice_confirmation,,html-keyboard-response,83,117570,0.0-1.0-107.0-0.0,0,0,72837,,,,,,26.0,,1.0,,,,,,,,,,,,,,,,,,,,,,,,,,78.5,0.059,,
84,,iti,,html-keyboard-response,84,119578,0.0-1.0-108.0,0,0,72837,,,,,,26.0,,1.0,,,,,,,,,,,,,,,,,,,,,,,,,,80.5,2.0,,
85,,size_choice,,html-keyboard-response,85,120626,0.0-1.0-110.0,0,0,72837,,1044.0,,,75.0,27.0,27.0,1.0,3000.0,XL-XL,,XL,XL,4.0,4.0,car,dumptruck,car7,dumptruck2,156.0,171.0,/static/Size_judgement/Stimuli/Size_stims/XL/car/car13.jpg,/static/Size_judgement/Stimuli/Size_stims/XL/dumptruck/dumptruck8.jpg,0.0,dumptruck,car,XL,XL,4.0,4.0,dumptruck2,car7,,81.544,1.044,0.0,
86,,size_choice_confirmation,,html-keyboard-response,86,121093,0.0-1.0-111.0-0.0,0,0,72837,,,,,,27.0,,1.0,,,,,,,,,,,,,,,,,,,,,,,,,,82.0,0.456,,
87,,iti,,html-keyboard-response,87,124101,0.0-1.0-112.0,0,0,72837,,,,,,27.0,,1.0,,,,,,,,,,,,,,,,,,,,,,,,,,85.0,3.0,,
88,,size_choice,,html-keyboard-response,88,125055,0.0-1.0-114.0,0,0,72837,,951.0,,,68.0,28.0,28.0,1.0,1000.0,M-L,1.0,L,M,3.0,2.0,mailbox,ketchup,mailbox2,ketchup6,41.0,95.0,/static/Size_judgement/Stimuli/Size_stims/L/mailbox/mailbox2.jpg,/static/Size_judgement/Stimuli/Size_stims/M/ketchup/ketchup1.jpg,1.0,mailbox,ketchup,L,M,3.0,2.0,mailbox2,ketchup6,1.0,85.951,0.951,0.0,
89,,size_choice_confirmation,,html-keyboard-response,89,125624,0.0-1.0-115.0-0.0,0,0,72837,,,,,,28.0,,1.0,,,,,,,,,,,,,,,,,,,,,,,,,,86.5,0.549,,
90,,iti,,html-keyboard-response,90,126633,0.0-1.0-116.0,0,0,72837,,,,,,28.0,,1.0,,,,,,,,,,,,,,,,,,,,,,,,,,87.5,1.0,,
91,,size_choice,,html-keyboard-response,91,127643,0.0-1.0-118.0,0,0,72837,,1004.0,,,68.0,29.0,29.0,1.0,3500.0,L-XL,1.0,XL,L,4.0,3.0,van,cooler,van7,cooler5,196.0,4.0,/static/Size_judgement/Stimuli/Size_stims/XL/van/van1.jpg,/static/Size_judgement/Stimuli/Size_stims/L/cooler/cooler10.jpg,1.0,van,cooler,XL,L,4.0,3.0,van7,cooler5,1.0,88.504,1.004,0.0,
92,,size_choice_confirmation,,html-keyboard-response,92,128148,0.0-1.0-119.0-0.0,0,0,72837,,,,,,29.0,,1.0,,,,,,,,,,,,,,,,,,,,,,,,,,89.0,0.496,,
93,,iti,,html-keyboard-response,93,131672,0.0-1.0-120.0,0,0,72837,,,,,,29.0,,1.0,,,,,,,,,,,,,,,,,,,,,,,,,,92.5,3.5,,
94,,size_choice,,html-keyboard-response,94,132747,0.0-1.0-122.0,0,0,72837,,1068.0,,,68.0,30.0,30.0,1.0,1000.0,S-S,,S,S,1.0,1.0,paperclip,teabag,paperclip9,teabag2,118.0,131.0,/static/Size_judgement/Stimuli/Size_stims/S/paperclip/paperclip4.jpg,/static/Size_judgement/Stimuli/Size_stims/S/teabag/teabag8.jpg,1.0,paperclip,teabag,S,S,1.0,1.0,paperclip9,teabag2,,93.568,1.068,0.0,
95,,size_choice_confirmation,,html-keyboard-response,95,133186,0.0-1.0-123.0-0.0,0,0,72837,,,,,,30.0,,1.0,,,,,,,,,,,,,,,,,,,,,,,,,,94.0,0.432,,
96,,iti,,html-keyboard-response,96,134205,0.0-1.0-124.0,0,0,72837,,,,,,30.0,,1.0,,,,,,,,,,,,,,,,,,,,,,,,,,95.0,1.0,,
97,,size_choice,,html-keyboard-response,97,135386,0.0-1.0-126.0,0,0,72837,,1179.0,,,68.0,31.0,31.0,1.0,1500.0,S-S,,S,S,1.0,1.0,thread,screws,thread4,screws8,143.0,127.0,/static/Size_judgement/Stimuli/Size_stims/S/thread/thread5.jpg,/static/Size_judgement/Stimuli/Size_stims/S/screws/screws10.jpg,1.0,thread,screws,S,S,1.0,1.0,thread4,screws8,,96.179,1.179,0.0,
98,,size_choice_confirmation,,html-keyboard-response,98,135731,0.0-1.0-127.0-0.0,0,0,72837,,,,,,31.0,,1.0,,,,,,,,,,,,,,,,,,,,,,,,,,96.5,0.321,,
99,,iti,,html-keyboard-response,99,137247,0.0-1.0-128.0,0,0,72837,,,,,,31.0,,1.0,,,,,,,,,,,,,,,,,,,,,,,,,,98.0,1.5,,
100,,size_choice,,html-keyboard-response,100,137938,0.0-1.0-130.0,0,0,72837,,688.0,,,75.0,32.0,32.0,1.0,2000.0,S-XL,0.0,S,XL,1.0,4.0,die,crane,die7,crane8,106.0,167.0,/static/Size_judgement/Stimuli/Size_stims/S/die/die4.jpg,/static/Size_judgement/Stimuli/Size_stims/XL/crane/crane10.jpg,0.0,crane,die,XL,S,4.0,1.0,crane8,die7,1.0,98.688,0.688,0.0,
101,,size_choice_confirmation,,html-keyboard-response,101,138758,0.0-1.0-131.0-0.0,0,0,72837,,,,,,32.0,,1.0,,,,,,,,,,,,,,,,,,,,,,,,,,99.5,0.812,,
102,,iti,,html-keyboard-response,102,140761,0.0-1.0-132.0,0,0,72837,,,,,,32.0,,1.0,,,,,,,,,,,,,,,,,,,,,,,,,,101.5,2.0,,
103,,size_choice,,html-keyboard-response,103,141489,0.0-1.0-134.0,0,0,72837,,723.0,,,68.0,33.0,33.0,1.0,1000.0,M-M,,M,M,2.0,2.0,hairdryer,handsaw,hairdryer3,handsaw3,72.0,82.0,/static/Size_judgement/Stimuli/Size_stims/M/hairdryer/hairdryer17.jpg,/static/Size_judgement/Stimuli/Size_stims/M/handsaw/handsaw2.jpg,1.0,hairdryer,handsaw,M,M,2.0,2.0,hairdryer3,handsaw3,,102.223,0.723,0.0,
104,,size_choice_confirmation,,html-keyboard-response,104,142272,0.0-1.0-135.0-0.0,0,0,72837,,,,,,33.0,,1.0,,,,,,,,,,,,,,,,,,,,,,,,,,103.0,0.777,,
105,,iti,,html-keyboard-response,105,143291,0.0-1.0-136.0,0,0,72837,,,,,,33.0,,1.0,,,,,,,,,,,,,,,,,,,,,,,,,,104.0,1.0,,
106,,size_choice,,html-keyboard-response,106,144049,0.0-1.0-138.0,0,0,72837,,756.0,,,68.0,34.0,34.0,1.0,1500.0,L-L,,L,L,3.0,3.0,garbagecan,cooler,garbagecan9,cooler1,38.0,0.0,/static/Size_judgement/Stimuli/Size_stims/L/garbagecan/garbagecan12.jpg,/static/Size_judgement/Stimuli/Size_stims/L/cooler/cooler8.jpg,1.0,garbagecan,cooler,L,L,3.0,3.0,garbagecan9,cooler1,,104.756,0.756,0.0,
107,,size_choice_confirmation,,html-keyboard-response,107,144811,0.0-1.0-139.0-0.0,0,0,72837,,,,,,34.0,,1.0,,,,,,,,,,,,,,,,,,,,,,,,,,105.5,0.744,,
108,,iti,,html-keyboard-response,108,146315,0.0-1.0-140.0,0,0,72837,,,,,,34.0,,1.0,,,,,,,,,,,,,,,,,,,,,,,,,,107.0,1.5,,
109,,size_choice,,html-keyboard-response,109,147136,0.0-1.0-142.0,0,0,72837,,819.0,,,68.0,35.0,35.0,1.0,2000.0,S-L,1.0,L,S,3.0,1.0,cooler,teabag,cooler9,teabag1,8.0,130.0,/static/Size_judgement/Stimuli/Size_stims/L/cooler/cooler7.jpg,/static/Size_judgement/Stimuli/Size_stims/S/teabag/teabag9.jpg,1.0,cooler,teabag,L,S,3.0,1.0,cooler9,teabag1,1.0,107.819,0.819,0.0,
110,,size_choice_confirmation,,html-keyboard-response,110,147827,0.0-1.0-143.0-0.0,0,0,72837,,,,,,35.0,,1.0,,,,,,,,,,,,,,,,,,,,,,,,,,108.5,0.681,,
111,,iti,,html-keyboard-response,111,149831,0.0-1.0-144.0,0,0,72837,,,,,,35.0,,1.0,,,,,,,,,,,,,,,,,,,,,,,,,,110.5,2.0,,
112,,size_choice,,html-keyboard-response,112,150550,0.0-1.0-146.0,0,0,72837,,717.0,,,68.0,36.0,36.0,1.0,3500.0,M-L,1.0,L,M,3.0,2.0,garbagecan,ketchup,garbagecan3,ketchup5,32.0,94.0,/static/Size_judgement/Stimuli/Size_stims/L/garbagecan/garbagecan7.jpg,/static/Size_judgement/Stimuli/Size_stims/M/ketchup/ketchup3.jpg,1.0,garbagecan,ketchup,L,M,3.0,2.0,garbagecan3,ketchup5,1.0,111.217,0.717,0.0,
113,,size_choice_confirmation,,html-keyboard-response,113,151347,0.0-1.0-147.0-0.0,0,0,72837,,,,,,36.0,,1.0,,,,,,,,,,,,,,,,,,,,,,,,,,112.0,0.783,,
114,,iti,,html-keyboard-response,114,154886,0.0-1.0-148.0,0,0,72837,,,,,,36.0,,1.0,,,,,,,,,,,,,,,,,,,,,,,,,,115.5,3.5,,
115,,size_choice,,html-keyboard-response,115,155824,0.0-1.0-150.0,0,0,72837,,934.0,,,68.0,37.0,37.0,1.0,1500.0,M-L,1.0,L,M,3.0,2.0,mailbox,ketchup,mailbox6,ketchup4,45.0,93.0,/static/Size_judgement/Stimuli/Size_stims/L/mailbox/mailbox6.jpg,/static/Size_judgement/Stimuli/Size_stims/M/ketchup/ketchup2.jpg,1.0,mailbox,ketchup,L,M,3.0,2.0,mailbox6,ketchup4,1.0,116.434,0.934,0.0,
116,,size_choice_confirmation,,html-keyboard-response,116,156406,0.0-1.0-151.0-0.0,0,0,72837,,,,,,37.0,,1.0,,,,,,,,,,,,,,,,,,,,,,,,,,117.0,0.566,,
117,,iti,,html-keyboard-response,117,157928,0.0-1.0-152.0,0,0,72837,,,,,,37.0,,1.0,,,,,,,,,,,,,,,,,,,,,,,,,,118.5,1.5,,
118,,size_choice,,html-keyboard-response,118,159032,0.0-1.0-154.0,0,0,72837,,1101.0,,,75.0,38.0,38.0,1.0,1000.0,L-L,,L,L,3.0,3.0,mailbox,garbagecan,mailbox8,garbagecan4,47.0,33.0,/static/Size_judgement/Stimuli/Size_stims/L/mailbox/mailbox10.jpg,/static/Size_judgement/Stimuli/Size_stims/L/garbagecan/garbagecan6.jpg,0.0,garbagecan,mailbox,L,L,3.0,3.0,garbagecan4,mailbox8,,119.601,1.101,0.0,
119,,size_choice_confirmation,,html-keyboard-response,119,159444,0.0-1.0-155.0-0.0,0,0,72837,,,,,,38.0,,1.0,,,,,,,,,,,,,,,,,,,,,,,,,,120.0,0.399,,
120,,iti,,html-keyboard-response,120,160451,0.0-1.0-156.0,0,0,72837,,,,,,38.0,,1.0,,,,,,,,,,,,,,,,,,,,,,,,,,121.0,1.0,,
121,,size_choice,,html-keyboard-response,121,161802,0.0-1.0-158.0,0,0,72837,,1346.0,,,75.0,39.0,39.0,1.0,1000.0,M-M,,M,M,2.0,2.0,basketball,hairdryer,basketball6,hairdryer7,55.0,76.0,/static/Size_judgement/Stimuli/Size_stims/M/basketball/basketball2.jpg,/static/Size_judgement/Stimuli/Size_stims/M/hairdryer/hairdryer3.jpg,0.0,hairdryer,basketball,M,M,2.0,2.0,hairdryer7,basketball6,,122.346,1.346,0.0,
122,,size_choice_confirmation,,html-keyboard-response,122,161966,0.0-1.0-159.0-0.0,0,0,72837,,,,,,39.0,,1.0,,,,,,,,,,,,,,,,,,,,,,,,,,122.5,0.154,,
123,,iti,,html-keyboard-response,123,162969,0.0-1.0-160.0,0,0,72837,,,,,,39.0,,1.0,,,,,,,,,,,,,,,,,,,,,,,,,,123.5,1.0,,
124,,size_choice,,html-keyboard-response,124,163629,0.0-1.0-162.0,0,0,72837,,658.0,,,68.0,40.0,40.0,1.0,3000.0,S-XL,1.0,XL,S,4.0,1.0,crane,thread,crane7,thread5,166.0,144.0,/static/Size_judgement/Stimuli/Size_stims/XL/crane/crane3.jpg,/static/Size_judgement/Stimuli/Size_stims/S/thread/thread1.jpg,1.0,crane,thread,XL,S,4.0,1.0,crane7,thread5,1.0,124.158,0.658,0.0,
125,,size_choice_confirmation,,html-keyboard-response,125,164490,0.0-1.0-163.0-0.0,0,0,72837,,,,,,40.0,,1.0,,,,,,,,,,,,,,,,,,,,,,,,,,125.0,0.842,,
126,,iti,,html-keyboard-response,126,167506,0.0-1.0-164.0,0,0,72837,,,,,,40.0,,1.0,,,,,,,,,,,,,,,,,,,,,,,,,,128.0,3.0,,
127,,size_choice,,html-keyboard-response,127,168241,0.0-1.0-166.0,0,0,72837,,734.0,,,75.0,41.0,41.0,1.0,1000.0,S-XL,0.0,S,XL,1.0,4.0,teabag,tractor,teabag7,tractor7,136.0,186.0,/static/Size_judgement/Stimuli/Size_stims/S/teabag/teabag10.jpg,/static/Size_judgement/Stimuli/Size_stims/XL/tractor/tractor2.jpg,0.0,tractor,teabag,XL,S,4.0,1.0,tractor7,teabag7,1.0,128.734,0.734,0.0,
128,,size_choice_confirmation,,html-keyboard-response,128,169012,0.0-1.0-167.0-0.0,0,0,72837,,,,,,41.0,,1.0,,,,,,,,,,,,,,,,,,,,,,,,,,129.5,0.766,,
129,,iti,,html-keyboard-response,129,170016,0.0-1.0-168.0,0,0,72837,,,,,,41.0,,1.0,,,,,,,,,,,,,,,,,,,,,,,,,,130.5,1.0,,
130,,size_choice,,html-keyboard-response,130,171178,0.0-1.0-170.0,0,0,72837,,1160.0,,,75.0,42.0,42.0,1.0,1500.0,L-XL,0.0,L,XL,3.0,4.0,garbagecan,car,garbagecan10,car6,39.0,155.0,/static/Size_judgement/Stimuli/Size_stims/L/garbagecan/garbagecan11.jpg,/static/Size_judgement/Stimuli/Size_stims/XL/car/car12.jpg,0.0,car,garbagecan,XL,L,4.0,3.0,car6,garbagecan10,1.0,131.66,1.16,0.0,
131,,size_choice_confirmation,,html-keyboard-response,131,171527,0.0-1.0-171.0-0.0,0,0,72837,,,,,,42.0,,1.0,,,,,,,,,,,,,,,,,,,,,,,,,,132.0,0.34,,
132,,iti,,html-keyboard-response,132,173036,0.0-1.0-172.0,0,0,72837,,,,,,42.0,,1.0,,,,,,,,,,,,,,,,,,,,,,,,,,133.5,1.5,,
133,,size_choice,,html-keyboard-response,133,173971,0.0-1.0-174.0,0,0,72837,,931.0,,,68.0,43.0,43.0,1.0,3500.0,M-XL,1.0,XL,M,4.0,2.0,car,coffeemaker,car4,coffeemaker9,153.0,68.0,/static/Size_judgement/Stimuli/Size_stims/XL/car/car6.jpg,/static/Size_judgement/Stimuli/Size_stims/M/coffeemaker/coffeemaker7.jpg,1.0,car,coffeemaker,XL,M,4.0,2.0,car4,coffeemaker9,1.0,134.431,0.931,0.0,
134,,size_choice_confirmation,,html-keyboard-response,134,174556,0.0-1.0-175.0-0.0,0,0,72837,,,,,,43.0,,1.0,,,,,,,,,,,,,,,,,,,,,,,,,,135.0,0.569,,
135,,iti,,html-keyboard-response,135,178073,0.0-1.0-176.0,0,0,72837,,,,,,43.0,,1.0,,,,,,,,,,,,,,,,,,,,,,,,,,138.5,3.5,,
136,,size_choice,,html-keyboard-response,136,178741,0.0-1.0-178.0,0,0,72837,,665.0,,,75.0,44.0,44.0,1.0,2000.0,L-XL,0.0,L,XL,3.0,4.0,cooler,car,cooler4,car5,3.0,154.0,/static/Size_judgement/Stimuli/Size_stims/L/cooler/cooler3.jpg,/static/Size_judgement/Stimuli/Size_stims/XL/car/car11.jpg,0.0,car,cooler,XL,L,4.0,3.0,car5,cooler4,1.0,139.165,0.665,0.0,
137,,size_choice_confirmation,,html-keyboard-response,137,179581,0.0-1.0-179.0-0.0,0,0,72837,,,,,,44.0,,1.0,,,,,,,,,,,,,,,,,,,,,,,,,,140.0,0.835,,
138,,iti,,html-keyboard-response,138,181596,0.0-1.0-180.0,0,0,72837,,,,,,44.0,,1.0,,,,,,,,,,,,,,,,,,,,,,,,,,142.0,2.0,,
139,,block_over,,html-keyboard-response,139,182991,0.0-1.0-181.0-0.0,0,0,72837,,1387.0,,,68.0,44.0,,,,,,,,,,,,,,,,,,,,,,,,,,,,,,,
140,,size_choice,,html-keyboard-response,140,184091,0.0-1.0-182.0,0,0,72837,,1097.0,,,68.0,45.0,45.0,2.0,3500.0,S-M,0.0,S,M,1.0,2.0,screws,handsaw,screws5,handsaw6,124.0,85.0,/static/Size_judgement/Stimuli/Size_stims/S/screws/screws2.jpg,/static/Size_judgement/Stimuli/Size_stims/M/handsaw/handsaw4.jpg,1.0,screws,handsaw,S,M,1.0,2.0,screws5,handsaw6,0.0,143.097,1.097,0.0,
141,,size_choice_confirmation,,html-keyboard-response,141,184510,0.0-1.0-183.0-0.0,0,0,72837,,,,,,45.0,,2.0,,,,,,,,,,,,,,,,,,,,,,,,,,143.5,0.403,,
142,,iti,,html-keyboard-response,142,188032,0.0-1.0-184.0,0,0,72837,,,,,,45.0,,2.0,,,,,,,,,,,,,,,,,,,,,,,,,,147.0,3.5,,
143,,size_choice,,html-keyboard-response,143,189084,0.0-1.0-186.0,0,0,72837,,1046.0,,,75.0,46.0,46.0,2.0,1000.0,S-S,,S,S,1.0,1.0,screws,paperclip,screws9,paperclip6,128.0,115.0,/static/Size_judgement/Stimuli/Size_stims/S/screws/screws8.jpg,/static/Size_judgement/Stimuli/Size_stims/S/paperclip/paperclip6.jpg,0.0,paperclip,screws,S,S,1.0,1.0,paperclip6,screws9,,148.046,1.046,0.0,
144,,size_choice_confirmation,,html-keyboard-response,144,189562,0.0-1.0-187.0-0.0,0,0,72837,,,,,,46.0,,2.0,,,,,,,,,,,,,,,,,,,,,,,,,,148.5,0.454,,
145,,iti,,html-keyboard-response,145,190579,0.0-1.0-188.0,0,0,72837,,,,,,46.0,,2.0,,,,,,,,,,,,,,,,,,,,,,,,,,149.5,1.0,,
146,,size_choice,,html-keyboard-response,146,191539,0.0-1.0-190.0,0,0,72837,,957.0,,,68.0,47.0,47.0,2.0,2000.0,M-XL,1.0,XL,M,4.0,2.0,crane,basketball,crane5,basketball5,164.0,54.0,/static/Size_judgement/Stimuli/Size_stims/XL/crane/crane1.jpg,/static/Size_judgement/Stimuli/Size_stims/M/basketball/basketball3.jpg,1.0,crane,basketball,XL,M,4.0,2.0,crane5,basketball5,1.0,150.457,0.957,0.0,
147,,size_choice_confirmation,,html-keyboard-response,147,192096,0.0-1.0-191.0-0.0,0,0,72837,,,,,,47.0,,2.0,,,,,,,,,,,,,,,,,,,,,,,,,,151.0,0.543,,
148,,iti,,html-keyboard-response,148,194100,0.0-1.0-192.0,0,0,72837,,,,,,47.0,,2.0,,,,,,,,,,,,,,,,,,,,,,,,,,153.0,2.0,,
149,,size_choice,,html-keyboard-response,149,195140,0.0-1.0-194.0,0,0,72837,,1036.0,,,75.0,48.0,48.0,2.0,1000.0,M-L,0.0,M,L,2.0,3.0,hairdryer,mailbox,hairdryer6,mailbox10,75.0,49.0,/static/Size_judgement/Stimuli/Size_stims/M/hairdryer/hairdryer8.jpg,/static/Size_judgement/Stimuli/Size_stims/L/mailbox/mailbox8.jpg,0.0,mailbox,hairdryer,L,M,3.0,2.0,mailbox10,hairdryer6,1.0,154.036,1.036,0.0,
150,,size_choice_confirmation,,html-keyboard-response,150,195618,0.0-1.0-195.0-0.0,0,0,72837,,,,,,48.0,,2.0,,,,,,,,,,,,,,,,,,,,,,,,,,154.5,0.464,,
151,,iti,,html-keyboard-response,151,196627,0.0-1.0-196.0,0,0,72837,,,,,,48.0,,2.0,,,,,,,,,,,,,,,,,,,,,,,,,,155.5,1.0,,
152,,size_choice,,html-keyboard-response,152,197971,0.0-1.0-198.0,0,0,72837,,1337.0,,,68.0,49.0,49.0,2.0,2000.0,M-XL,1.0,XL,M,4.0,2.0,tractor,coffeemaker,tractor5,coffeemaker1,184.0,60.0,/static/Size_judgement/Stimuli/Size_stims/XL/tractor/tractor1.jpg,/static/Size_judgement/Stimuli/Size_stims/M/coffeemaker/coffeemaker14.jpg,1.0,tractor,coffeemaker,XL,M,4.0,2.0,tractor5,coffeemaker1,1.0,156.837,1.337,0.0,
153,,size_choice_confirmation,,html-keyboard-response,153,198158,0.0-1.0-199.0-0.0,0,0,72837,,,,,,49.0,,2.0,,,,,,,,,,,,,,,,,,,,,,,,,,157.0,0.163,,
154,,iti,,html-keyboard-response,154,200169,0.0-1.0-200.0,0,0,72837,,,,,,49.0,,2.0,,,,,,,,,,,,,,,,,,,,,,,,,,159.0,2.0,,
155,,size_choice,,html-keyboard-response,155,200856,0.0-1.0-202.0,0,0,72837,,683.0,,,68.0,50.0,50.0,2.0,1000.0,S-XL,1.0,XL,S,4.0,1.0,car,teabag,car9,teabag10,158.0,139.0,/static/Size_judgement/Stimuli/Size_stims/XL/car/car15.jpg,/static/Size_judgement/Stimuli/Size_stims/S/teabag/teabag4.jpg,1.0,car,teabag,XL,S,4.0,1.0,car9,teabag10,1.0,159.683,0.683,0.0,
156,,size_choice_confirmation,,html-keyboard-response,156,201688,0.0-1.0-203.0-0.0,0,0,72837,,,,,,50.0,,2.0,,,,,,,,,,,,,,,,,,,,,,,,,,160.5,0.817,,
157,,iti,,html-keyboard-response,157,202706,0.0-1.0-204.0,0,0,72837,,,,,,50.0,,2.0,,,,,,,,,,,,,,,,,,,,,,,,,,161.5,1.0,,
158,,size_choice,,html-keyboard-response,158,203681,0.0-1.0-206.0,0,0,72837,,965.0,,,68.0,51.0,51.0,2.0,1500.0,XL-XL,,XL,XL,4.0,4.0,crane,car,crane10,car8,169.0,157.0,/static/Size_judgement/Stimuli/Size_stims/XL/crane/crane9.jpg,/static/Size_judgement/Stimuli/Size_stims/XL/car/car14.jpg,1.0,crane,car,XL,XL,4.0,4.0,crane10,car8,,162.465,0.965,0.0,
159,,size_choice_confirmation,,html-keyboard-response,159,204236,0.0-1.0-207.0-0.0,0,0,72837,,,,,,51.0,,2.0,,,,,,,,,,,,,,,,,,,,,,,,,,163.0,0.535,,
160,,iti,,html-keyboard-response,160,205751,0.0-1.0-208.0,0,0,72837,,,,,,51.0,,2.0,,,,,,,,,,,,,,,,,,,,,,,,,,164.5,1.5,,
161,,size_choice,,html-keyboard-response,161,206682,0.0-1.0-210.0,0,0,72837,,925.0,,,75.0,52.0,52.0,2.0,1000.0,M-L,0.0,M,L,2.0,3.0,coffeemaker,dishwasher,coffeemaker2,dishwasher3,61.0,22.0,/static/Size_judgement/Stimuli/Size_stims/M/coffeemaker/coffeemaker12.jpg,/static/Size_judgement/Stimuli/Size_stims/L/dishwasher/dishwasher8.jpg,0.0,dishwasher,coffeemaker,L,M,3.0,2.0,dishwasher3,coffeemaker2,1.0,165.425,0.925,0.0,
162,,size_choice_confirmation,,html-keyboard-response,162,207266,0.0-1.0-211.0-0.0,0,0,72837,,,,,,52.0,,2.0,,,,,,,,,,,,,,,,,,,,,,,,,,166.0,0.575,,
163,,iti,,html-keyboard-response,163,208288,0.0-1.0-212.0,0,0,72837,,,,,,52.0,,2.0,,,,,,,,,,,,,,,,,,,,,,,,,,167.0,1.0,,
164,,size_choice,,html-keyboard-response,164,209248,0.0-1.0-214.0,0,0,72837,,958.0,,,68.0,53.0,53.0,2.0,3000.0,S-L,1.0,L,S,3.0,1.0,deskchair,paperclip,deskchair4,paperclip7,13.0,116.0,/static/Size_judgement/Stimuli/Size_stims/L/deskchair/deskchair6.jpg,/static/Size_judgement/Stimuli/Size_stims/S/paperclip/paperclip7.jpg,1.0,deskchair,paperclip,L,S,3.0,1.0,deskchair4,paperclip7,1.0,167.958,0.958,0.0,
165,,size_choice_confirmation,,html-keyboard-response,165,209799,0.0-1.0-215.0-0.0,0,0,72837,,,,,,53.0,,2.0,,,,,,,,,,,,,,,,,,,,,,,,,,168.5,0.542,,
166,,iti,,html-keyboard-response,166,212810,0.0-1.0-216.0,0,0,72837,,,,,,53.0,,2.0,,,,,,,,,,,,,,,,,,,,,,,,,,171.5,3.0,,
167,,size_choice,,html-keyboard-response,167,213502,0.0-1.0-218.0,0,0,72837,,687.0,,,75.0,54.0,54.0,2.0,2000.0,S-S,,S,S,1.0,1.0,screws,paperclip,screws1,paperclip10,120.0,119.0,/static/Size_judgement/Stimuli/Size_stims/S/screws/screws4.jpg,/static/Size_judgement/Stimuli/Size_stims/S/paperclip/paperclip10.jpg,0.0,paperclip,screws,S,S,1.0,1.0,paperclip10,screws1,,172.187,0.687,0.0,
168,,size_choice_confirmation,,html-keyboard-response,168,214320,0.0-1.0-219.0-0.0,0,0,72837,,,,,,54.0,,2.0,,,,,,,,,,,,,,,,,,,,,,,,,,173.0,0.813,,
169,,iti,,html-keyboard-response,169,216336,0.0-1.0-220.0,0,0,72837,,,,,,54.0,,2.0,,,,,,,,,,,,,,,,,,,,,,,,,,175.0,2.0,,
170,,size_choice,,html-keyboard-response,170,217065,0.0-1.0-222.0,0,0,72837,,723.0,,,68.0,55.0,55.0,2.0,1500.0,M-L,1.0,L,M,3.0,2.0,dishwasher,ketchup,dishwasher5,ketchup2,24.0,91.0,/static/Size_judgement/Stimuli/Size_stims/L/dishwasher/dishwasher4.jpg,/static/Size_judgement/Stimuli/Size_stims/M/ketchup/ketchup9.jpg,1.0,dishwasher,ketchup,L,M,3.0,2.0,dishwasher5,ketchup2,1.0,175.723,0.723,0.0,
171,,size_choice_confirmation,,html-keyboard-response,171,217861,0.0-1.0-223.0-0.0,0,0,72837,,,,,,55.0,,2.0,,,,,,,,,,,,,,,,,,,,,,,,,,176.5,0.777,,
172,,iti,,html-keyboard-response,172,219368,0.0-1.0-224.0,0,0,72837,,,,,,55.0,,2.0,,,,,,,,,,,,,,,,,,,,,,,,,,178.0,1.5,,
173,,size_choice,,html-keyboard-response,173,220209,0.0-1.0-226.0,0,0,72837,,839.0,,,75.0,56.0,56.0,2.0,1000.0,M-L,0.0,M,L,2.0,3.0,hairdryer,deskchair,hairdryer5,deskchair3,74.0,12.0,/static/Size_judgement/Stimuli/Size_stims/M/hairdryer/hairdryer15.jpg,/static/Size_judgement/Stimuli/Size_stims/L/deskchair/deskchair10.jpg,0.0,deskchair,hairdryer,L,M,3.0,2.0,deskchair3,hairdryer5,1.0,178.839,0.839,0.0,
174,,size_choice_confirmation,,html-keyboard-response,174,220887,0.0-1.0-227.0-0.0,0,0,72837,,,,,,56.0,,2.0,,,,,,,,,,,,,,,,,,,,,,,,,,179.5,0.661,,
175,,iti,,html-keyboard-response,175,221896,0.0-1.0-228.0,0,0,72837,,,,,,56.0,,2.0,,,,,,,,,,,,,,,,,,,,,,,,,,180.5,1.0,,
176,,size_choice,,html-keyboard-response,176,222713,0.0-1.0-230.0,0,0,72837,,814.0,,,75.0,57.0,57.0,2.0,1000.0,S-XL,0.0,S,XL,1.0,4.0,thread,dumptruck,thread7,dumptruck1,146.0,170.0,/static/Size_judgement/Stimuli/Size_stims/S/thread/thread3.jpg,/static/Size_judgement/Stimuli/Size_stims/XL/dumptruck/dumptruck9.jpg,0.0,dumptruck,thread,XL,S,4.0,1.0,dumptruck1,thread7,1.0,181.314,0.814,0.0,
177,,size_choice_confirmation,,html-keyboard-response,177,223411,0.0-1.0-231.0-0.0,0,0,72837,,,,,,57.0,,2.0,,,,,,,,,,,,,,,,,,,,,,,,,,182.0,0.686,,
178,,iti,,html-keyboard-response,178,224414,0.0-1.0-232.0,0,0,72837,,,,,,57.0,,2.0,,,,,,,,,,,,,,,,,,,,,,,,,,183.0,1.0,,
179,,size_choice,,html-keyboard-response,179,225196,0.0-1.0-234.0,0,0,72837,,779.0,,,75.0,58.0,58.0,2.0,1000.0,S-L,0.0,S,L,1.0,3.0,teabag,dishwasher,teabag9,dishwasher6,138.0,25.0,/static/Size_judgement/Stimuli/Size_stims/S/teabag/teabag5.jpg,/static/Size_judgement/Stimuli/Size_stims/L/dishwasher/dishwasher6.jpg,0.0,dishwasher,teabag,L,S,3.0,1.0,dishwasher6,teabag9,1.0,183.779,0.779,0.0,
180,,size_choice_confirmation,,html-keyboard-response,180,225939,0.0-1.0-235.0-0.0,0,0,72837,,,,,,58.0,,2.0,,,,,,,,,,,,,,,,,,,,,,,,,,184.5,0.721,,
181,,iti,,html-keyboard-response,181,226947,0.0-1.0-236.0,0,0,72837,,,,,,58.0,,2.0,,,,,,,,,,,,,,,,,,,,,,,,,,185.5,1.0,,
182,,size_choice,,html-keyboard-response,182,227954,0.0-1.0-238.0,0,0,72837,,1004.0,,,68.0,59.0,59.0,2.0,1000.0,M-M,,M,M,2.0,2.0,basketball,ketchup,basketball2,ketchup10,51.0,99.0,/static/Size_judgement/Stimuli/Size_stims/M/basketball/basketball8.jpg,/static/Size_judgement/Stimuli/Size_stims/M/ketchup/ketchup6.jpg,1.0,basketball,ketchup,M,M,2.0,2.0,basketball2,ketchup10,,186.504,1.004,0.0,
183,,size_choice_confirmation,,html-keyboard-response,183,228467,0.0-1.0-239.0-0.0,0,0,72837,,,,,,59.0,,2.0,,,,,,,,,,,,,,,,,,,,,,,,,,187.0,0.496,,
184,,iti,,html-keyboard-response,184,229478,0.0-1.0-240.0,0,0,72837,,,,,,59.0,,2.0,,,,,,,,,,,,,,,,,,,,,,,,,,188.0,1.0,,
185,,size_choice,,html-keyboard-response,185,230159,0.0-1.0-242.0,0,0,72837,,675.0,,,75.0,60.0,60.0,2.0,1500.0,M-XL,0.0,M,XL,2.0,4.0,ketchup,dumptruck,ketchup1,dumptruck3,90.0,172.0,/static/Size_judgement/Stimuli/Size_stims/M/ketchup/ketchup8.jpg,/static/Size_judgement/Stimuli/Size_stims/XL/dumptruck/dumptruck10.jpg,0.0,dumptruck,ketchup,XL,M,4.0,2.0,dumptruck3,ketchup1,1.0,188.675,0.675,0.0,
186,,size_choice_confirmation,,html-keyboard-response,186,230994,0.0-1.0-243.0-0.0,0,0,72837,,,,,,60.0,,2.0,,,,,,,,,,,,,,,,,,,,,,,,,,189.5,0.825,,
187,,iti,,html-keyboard-response,187,232508,0.0-1.0-244.0,0,0,72837,,,,,,60.0,,2.0,,,,,,,,,,,,,,,,,,,,,,,,,,191.0,1.5,,
188,,size_choice,,html-keyboard-response,188,233238,0.0-1.0-246.0,0,0,72837,,723.0,,,75.0,61.0,61.0,2.0,1500.0,M-XL,0.0,M,XL,2.0,4.0,basketball,tractor,basketball1,tractor1,50.0,180.0,/static/Size_judgement/Stimuli/Size_stims/M/basketball/basketball9.jpg,/static/Size_judgement/Stimuli/Size_stims/XL/tractor/tractor6.jpg,0.0,tractor,basketball,XL,M,4.0,2.0,tractor1,basketball1,1.0,191.723,0.723,0.0,
189,,size_choice_confirmation,,html-keyboard-response,189,234028,0.0-1.0-247.0-0.0,0,0,72837,,,,,,61.0,,2.0,,,,,,,,,,,,,,,,,,,,,,,,,,192.5,0.777,,
190,,iti,,html-keyboard-response,190,235539,0.0-1.0-248.0,0,0,72837,,,,,,61.0,,2.0,,,,,,,,,,,,,,,,,,,,,,,,,,194.0,1.5,,
191,,size_choice,,html-keyboard-response,191,236351,0.0-1.0-250.0,0,0,72837,,808.0,,,75.0,62.0,62.0,2.0,3000.0,L-XL,0.0,L,XL,3.0,4.0,cooler,van,cooler2,van9,1.0,198.0,/static/Size_judgement/Stimuli/Size_stims/L/cooler/cooler9.jpg,/static/Size_judgement/Stimuli/Size_stims/XL/van/van9.jpg,0.0,van,cooler,XL,L,4.0,3.0,van9,cooler2,1.0,194.808,0.808,0.0,
192,,size_choice_confirmation,,html-keyboard-response,192,237054,0.0-1.0-251.0-0.0,0,0,72837,,,,,,62.0,,2.0,,,,,,,,,,,,,,,,,,,,,,,,,,195.5,0.692,,
193,,iti,,html-keyboard-response,193,240067,0.0-1.0-252.0,0,0,72837,,,,,,62.0,,2.0,,,,,,,,,,,,,,,,,,,,,,,,,,198.5,3.0,,
194,,size_choice,,html-keyboard-response,194,240890,0.0-1.0-254.0,0,0,72837,,820.0,,,75.0,63.0,63.0,2.0,3500.0,S-L,0.0,S,L,1.0,3.0,thread,dishwasher,thread2,dishwasher7,141.0,26.0,/static/Size_judgement/Stimuli/Size_stims/S/thread/thread6.jpg,/static/Size_judgement/Stimuli/Size_stims/L/dishwasher/dishwasher7.jpg,0.0,dishwasher,thread,L,S,3.0,1.0,dishwasher7,thread2,1.0,199.32,0.82,0.0,
195,,size_choice_confirmation,,html-keyboard-response,195,241581,0.0-1.0-255.0-0.0,0,0,72837,,,,,,63.0,,2.0,,,,,,,,,,,,,,,,,,,,,,,,,,200.0,0.68,,
196,,iti,,html-keyboard-response,196,245085,0.0-1.0-256.0,0,0,72837,,,,,,63.0,,2.0,,,,,,,,,,,,,,,,,,,,,,,,,,203.5,3.5,,
197,,size_choice,,html-keyboard-response,197,245986,0.0-1.0-258.0,0,0,72837,,897.0,,,75.0,64.0,64.0,2.0,1500.0,M-L,0.0,M,L,2.0,3.0,handsaw,cooler,handsaw8,cooler7,87.0,6.0,/static/Size_judgement/Stimuli/Size_stims/M/handsaw/handsaw7.jpg,/static/Size_judgement/Stimuli/Size_stims/L/cooler/cooler4.jpg,0.0,cooler,handsaw,L,M,3.0,2.0,cooler7,handsaw8,1.0,204.397,0.897,0.0,
198,,size_choice_confirmation,,html-keyboard-response,198,246610,0.0-1.0-259.0-0.0,0,0,72837,,,,,,64.0,,2.0,,,,,,,,,,,,,,,,,,,,,,,,,,205.0,0.603,,
199,,iti,,html-keyboard-response,199,248128,0.0-1.0-260.0,0,0,72837,,,,,,64.0,,2.0,,,,,,,,,,,,,,,,,,,,,,,,,,206.5,1.5,,
200,,size_choice,,html-keyboard-response,200,248953,0.0-1.0-262.0,0,0,72837,,821.0,,,75.0,65.0,65.0,2.0,2000.0,M-L,0.0,M,L,2.0,3.0,handsaw,mailbox,handsaw5,mailbox1,84.0,40.0,/static/Size_judgement/Stimuli/Size_stims/M/handsaw/handsaw1.jpg,/static/Size_judgement/Stimuli/Size_stims/L/mailbox/mailbox3.jpg,0.0,mailbox,handsaw,L,M,3.0,2.0,mailbox1,handsaw5,1.0,207.321,0.821,0.0,
201,,size_choice_confirmation,,html-keyboard-response,201,249644,0.0-1.0-263.0-0.0,0,0,72837,,,,,,65.0,,2.0,,,,,,,,,,,,,,,,,,,,,,,,,,208.0,0.679,,
202,,iti,,html-keyboard-response,202,251667,0.0-1.0-264.0,0,0,72837,,,,,,65.0,,2.0,,,,,,,,,,,,,,,,,,,,,,,,,,210.0,2.0,,
203,,size_choice,,html-keyboard-response,203,252287,0.0-1.0-266.0,0,0,72837,,616.0,,,68.0,66.0,66.0,2.0,1000.0,M-XL,1.0,XL,M,4.0,2.0,car,ketchup,car10,ketchup8,159.0,97.0,/static/Size_judgement/Stimuli/Size_stims/XL/car/car9.jpg,/static/Size_judgement/Stimuli/Size_stims/M/ketchup/ketchup5.jpg,1.0,car,ketchup,XL,M,4.0,2.0,car10,ketchup8,1.0,210.616,0.616,0.0,
204,,size_choice_confirmation,,html-keyboard-response,204,253175,0.0-1.0-267.0-0.0,0,0,72837,,,,,,66.0,,2.0,,,,,,,,,,,,,,,,,,,,,,,,,,211.5,0.884,,
205,,iti,,html-keyboard-response,205,254181,0.0-1.0-268.0,0,0,72837,,,,,,66.0,,2.0,,,,,,,,,,,,,,,,,,,,,,,,,,212.5,1.0,,
206,,size_choice,,html-keyboard-response,206,255002,0.0-1.0-270.0,0,0,72837,,819.0,,,68.0,67.0,67.0,2.0,1000.0,S-L,1.0,L,S,3.0,1.0,deskchair,thread,deskchair6,thread3,15.0,142.0,/static/Size_judgement/Stimuli/Size_stims/L/deskchair/deskchair5.jpg,/static/Size_judgement/Stimuli/Size_stims/S/thread/thread4.jpg,1.0,deskchair,thread,L,S,3.0,1.0,deskchair6,thread3,1.0,213.319,0.819,0.0,
207,,size_choice_confirmation,,html-keyboard-response,207,255689,0.0-1.0-271.0-0.0,0,0,72837,,,,,,67.0,,2.0,,,,,,,,,,,,,,,,,,,,,,,,,,214.0,0.681,,
208,,iti,,html-keyboard-response,208,256697,0.0-1.0-272.0,0,0,72837,,,,,,67.0,,2.0,,,,,,,,,,,,,,,,,,,,,,,,,,215.0,1.0,,
209,,size_choice,,html-keyboard-response,209,257340,0.0-1.0-274.0,0,0,72837,,640.0,,,75.0,68.0,68.0,2.0,2000.0,S-XL,0.0,S,XL,1.0,4.0,screws,dumptruck,screws3,dumptruck4,122.0,173.0,/static/Size_judgement/Stimuli/Size_stims/S/screws/screws7.jpg,/static/Size_judgement/Stimuli/Size_stims/XL/dumptruck/dumptruck1.jpg,0.0,dumptruck,screws,XL,S,4.0,1.0,dumptruck4,screws3,1.0,215.64,0.64,0.0,
210,,size_choice_confirmation,,html-keyboard-response,210,258224,0.0-1.0-275.0-0.0,0,0,72837,,,,,,68.0,,2.0,,,,,,,,,,,,,,,,,,,,,,,,,,216.5,0.86,,
211,,iti,,html-keyboard-response,211,260246,0.0-1.0-276.0,0,0,72837,,,,,,68.0,,2.0,,,,,,,,,,,,,,,,,,,,,,,,,,218.5,2.0,,
212,,size_choice,,html-keyboard-response,212,260914,0.0-1.0-278.0,0,0,72837,,664.0,,,75.0,69.0,69.0,2.0,3000.0,S-XL,0.0,S,XL,1.0,4.0,paperclip,dumptruck,paperclip8,dumptruck7,117.0,176.0,/static/Size_judgement/Stimuli/Size_stims/S/paperclip/paperclip5.jpg,/static/Size_judgement/Stimuli/Size_stims/XL/dumptruck/dumptruck6.jpg,0.0,dumptruck,paperclip,XL,S,4.0,1.0,dumptruck7,paperclip8,1.0,219.164,0.664,0.0,
213,,size_choice_confirmation,,html-keyboard-response,213,261767,0.0-1.0-279.0-0.0,0,0,72837,,,,,,69.0,,2.0,,,,,,,,,,,,,,,,,,,,,,,,,,220.0,0.836,,
214,,iti,,html-keyboard-response,214,264777,0.0-1.0-280.0,0,0,72837,,,,,,69.0,,2.0,,,,,,,,,,,,,,,,,,,,,,,,,,223.0,3.0,,
215,,size_choice,,html-keyboard-response,215,265609,0.0-1.0-282.0,0,0,72837,,825.0,,,75.0,70.0,70.0,2.0,1500.0,S-L,0.0,S,L,1.0,3.0,die,deskchair,die1,deskchair8,100.0,17.0,/static/Size_judgement/Stimuli/Size_stims/S/die/die8.jpg,/static/Size_judgement/Stimuli/Size_stims/L/deskchair/deskchair1.jpg,0.0,deskchair,die,L,S,3.0,1.0,deskchair8,die1,1.0,223.825,0.825,0.0,
216,,size_choice_confirmation,,html-keyboard-response,216,266291,0.0-1.0-283.0-0.0,0,0,72837,,,,,,70.0,,2.0,,,,,,,,,,,,,,,,,,,,,,,,,,224.5,0.675,,
217,,iti,,html-keyboard-response,217,267800,0.0-1.0-284.0,0,0,72837,,,,,,70.0,,2.0,,,,,,,,,,,,,,,,,,,,,,,,,,226.0,1.5,,
218,,size_choice,,html-keyboard-response,218,268465,0.0-1.0-286.0,0,0,72837,,661.0,,,68.0,71.0,71.0,2.0,1500.0,XL-XL,,XL,XL,4.0,4.0,tractor,van,tractor3,van8,182.0,197.0,/static/Size_judgement/Stimuli/Size_stims/XL/tractor/tractor5.jpg,/static/Size_judgement/Stimuli/Size_stims/XL/van/van10.jpg,1.0,tractor,van,XL,XL,4.0,4.0,tractor3,van8,,226.661,0.661,0.0,
219,,size_choice_confirmation,,html-keyboard-response,219,269330,0.0-1.0-287.0-0.0,0,0,72837,,,,,,71.0,,2.0,,,,,,,,,,,,,,,,,,,,,,,,,,227.5,0.839,,
220,,iti,,html-keyboard-response,220,270847,0.0-1.0-288.0,0,0,72837,,,,,,71.0,,2.0,,,,,,,,,,,,,,,,,,,,,,,,,,229.0,1.5,,
221,,size_choice,,html-keyboard-response,221,271481,0.0-1.0-290.0,0,0,72837,,630.0,,,75.0,72.0,72.0,2.0,1500.0,S-XL,0.0,S,XL,1.0,4.0,paperclip,dumptruck,paperclip4,dumptruck5,113.0,174.0,/static/Size_judgement/Stimuli/Size_stims/S/paperclip/paperclip3.jpg,/static/Size_judgement/Stimuli/Size_stims/XL/dumptruck/dumptruck3.jpg,0.0,dumptruck,paperclip,XL,S,4.0,1.0,dumptruck5,paperclip4,1.0,229.63,0.63,0.0,
222,,size_choice_confirmation,,html-keyboard-response,222,272356,0.0-1.0-291.0-0.0,0,0,72837,,,,,,72.0,,2.0,,,,,,,,,,,,,,,,,,,,,,,,,,230.5,0.87,,
223,,iti,,html-keyboard-response,223,273875,0.0-1.0-292.0,0,0,72837,,,,,,72.0,,2.0,,,,,,,,,,,,,,,,,,,,,,,,,,232.0,1.5,,
224,,size_choice,,html-keyboard-response,224,274774,0.0-1.0-294.0,0,0,72837,,893.0,,,75.0,73.0,73.0,2.0,3000.0,M-L,0.0,M,L,2.0,3.0,coffeemaker,dishwasher,coffeemaker6,dishwasher4,65.0,23.0,/static/Size_judgement/Stimuli/Size_stims/M/coffeemaker/coffeemaker8.jpg,/static/Size_judgement/Stimuli/Size_stims/L/dishwasher/dishwasher5.jpg,0.0,dishwasher,coffeemaker,L,M,3.0,2.0,dishwasher4,coffeemaker6,1.0,232.893,0.893,0.0,
225,,size_choice_confirmation,,html-keyboard-response,225,275403,0.0-1.0-295.0-0.0,0,0,72837,,,,,,73.0,,2.0,,,,,,,,,,,,,,,,,,,,,,,,,,233.5,0.607,,
226,,iti,,html-keyboard-response,226,278417,0.0-1.0-296.0,0,0,72837,,,,,,73.0,,2.0,,,,,,,,,,,,,,,,,,,,,,,,,,236.5,3.0,,
227,,size_choice,,html-keyboard-response,227,278973,0.0-1.0-298.0,0,0,72837,,552.0,,,68.0,74.0,74.0,2.0,1500.0,S-XL,1.0,XL,S,4.0,1.0,car,die,car1,die9,150.0,108.0,/static/Size_judgement/Stimuli/Size_stims/XL/car/car2.jpg,/static/Size_judgement/Stimuli/Size_stims/S/die/die7.jpg,1.0,car,die,XL,S,4.0,1.0,car1,die9,1.0,237.052,0.552,0.0,
228,,size_choice_confirmation,,html-keyboard-response,228,279931,0.0-1.0-299.0-0.0,0,0,72837,,,,,,74.0,,2.0,,,,,,,,,,,,,,,,,,,,,,,,,,238.0,0.948,,
229,,iti,,html-keyboard-response,229,281444,0.0-1.0-300.0,0,0,72837,,,,,,74.0,,2.0,,,,,,,,,,,,,,,,,,,,,,,,,,239.5,1.5,,
230,,size_choice,,html-keyboard-response,230,282242,0.0-1.0-302.0,0,0,72837,,794.0,,,68.0,75.0,75.0,2.0,1500.0,M-XL,1.0,XL,M,4.0,2.0,crane,handsaw,crane1,handsaw10,160.0,89.0,/static/Size_judgement/Stimuli/Size_stims/XL/crane/crane7.jpg,/static/Size_judgement/Stimuli/Size_stims/M/handsaw/handsaw10.jpg,1.0,crane,handsaw,XL,M,4.0,2.0,crane1,handsaw10,1.0,240.294,0.794,0.0,
231,,size_choice_confirmation,,html-keyboard-response,231,282956,0.0-1.0-303.0-0.0,0,0,72837,,,,,,75.0,,2.0,,,,,,,,,,,,,,,,,,,,,,,,,,241.0,0.706,,
232,,iti,,html-keyboard-response,232,284461,0.0-1.0-304.0,0,0,72837,,,,,,75.0,,2.0,,,,,,,,,,,,,,,,,,,,,,,,,,242.5,1.5,,
233,,size_choice,,html-keyboard-response,233,285337,0.0-1.0-306.0,0,0,72837,,873.0,,,68.0,76.0,76.0,2.0,1500.0,S-XL,1.0,XL,S,4.0,1.0,tractor,screws,tractor2,screws6,181.0,125.0,/static/Size_judgement/Stimuli/Size_stims/XL/tractor/tractor7.jpg,/static/Size_judgement/Stimuli/Size_stims/S/screws/screws3.jpg,1.0,tractor,screws,XL,S,4.0,1.0,tractor2,screws6,1.0,243.373,0.873,0.0,
234,,size_choice_confirmation,,html-keyboard-response,234,285976,0.0-1.0-307.0-0.0,0,0,72837,,,,,,76.0,,2.0,,,,,,,,,,,,,,,,,,,,,,,,,,244.0,0.627,,
235,,iti,,html-keyboard-response,235,287485,0.0-1.0-308.0,0,0,72837,,,,,,76.0,,2.0,,,,,,,,,,,,,,,,,,,,,,,,,,245.5,1.5,,
236,,size_choice,,html-keyboard-response,236,288513,0.0-1.0-310.0,0,0,72837,,1026.0,,,75.0,77.0,77.0,2.0,2000.0,M-L,0.0,M,L,2.0,3.0,coffeemaker,deskchair,coffeemaker4,deskchair5,63.0,14.0,/static/Size_judgement/Stimuli/Size_stims/M/coffeemaker/coffeemaker11.jpg,/static/Size_judgement/Stimuli/Size_stims/L/deskchair/deskchair7.jpg,0.0,deskchair,coffeemaker,L,M,3.0,2.0,deskchair5,coffeemaker4,1.0,246.526,1.026,0.0,
237,,size_choice_confirmation,,html-keyboard-response,237,288997,0.0-1.0-311.0-0.0,0,0,72837,,,,,,77.0,,2.0,,,,,,,,,,,,,,,,,,,,,,,,,,247.0,0.474,,
238,,iti,,html-keyboard-response,238,291004,0.0-1.0-312.0,0,0,72837,,,,,,77.0,,2.0,,,,,,,,,,,,,,,,,,,,,,,,,,249.0,2.0,,
239,,size_choice,,html-keyboard-response,239,291673,0.0-1.0-314.0,0,0,72837,,664.0,,,68.0,78.0,78.0,2.0,1500.0,M-XL,1.0,XL,M,4.0,2.0,dumptruck,coffeemaker,dumptruck10,coffeemaker10,179.0,69.0,/static/Size_judgement/Stimuli/Size_stims/XL/dumptruck/dumptruck4.jpg,/static/Size_judgement/Stimuli/Size_stims/M/coffeemaker/coffeemaker18.jpg,1.0,dumptruck,coffeemaker,XL,M,4.0,2.0,dumptruck10,coffeemaker10,1.0,249.664,0.664,0.0,
240,,size_choice_confirmation,,html-keyboard-response,240,292529,0.0-1.0-315.0-0.0,0,0,72837,,,,,,78.0,,2.0,,,,,,,,,,,,,,,,,,,,,,,,,,250.5,0.836,,
241,,iti,,html-keyboard-response,241,294041,0.0-1.0-316.0,0,0,72837,,,,,,78.0,,2.0,,,,,,,,,,,,,,,,,,,,,,,,,,252.0,1.5,,
242,,size_choice,,html-keyboard-response,242,295246,0.0-1.0-318.0,0,0,72837,,1200.0,,,68.0,79.0,79.0,2.0,1000.0,L-L,,L,L,3.0,3.0,mailbox,cooler,mailbox4,cooler6,43.0,5.0,/static/Size_judgement/Stimuli/Size_stims/L/mailbox/mailbox5.jpg,/static/Size_judgement/Stimuli/Size_stims/L/cooler/cooler1.jpg,1.0,mailbox,cooler,L,L,3.0,3.0,mailbox4,cooler6,,253.2,1.2,0.0,
243,,size_choice_confirmation,,html-keyboard-response,243,295558,0.0-1.0-319.0-0.0,0,0,72837,,,,,,79.0,,2.0,,,,,,,,,,,,,,,,,,,,,,,,,,253.5,0.3,,
244,,iti,,html-keyboard-response,244,296566,0.0-1.0-320.0,0,0,72837,,,,,,79.0,,2.0,,,,,,,,,,,,,,,,,,,,,,,,,,254.5,1.0,,
245,,size_choice,,html-keyboard-response,245,297357,0.0-1.0-322.0,0,0,72837,,785.0,,,75.0,80.0,80.0,2.0,1000.0,S-M,0.0,S,M,1.0,2.0,die,basketball,die3,basketball3,102.0,52.0,/static/Size_judgement/Stimuli/Size_stims/S/die/die10.jpg,/static/Size_judgement/Stimuli/Size_stims/M/basketball/basketball10.jpg,0.0,basketball,die,M,S,2.0,1.0,basketball3,die3,1.0,255.285,0.785,0.0,
246,,size_choice_confirmation,,html-keyboard-response,246,298089,0.0-1.0-323.0-0.0,0,0,72837,,,,,,80.0,,2.0,,,,,,,,,,,,,,,,,,,,,,,,,,256.0,0.715,,
247,,iti,,html-keyboard-response,247,299093,0.0-1.0-324.0,0,0,72837,,,,,,80.0,,2.0,,,,,,,,,,,,,,,,,,,,,,,,,,257.0,1.0,,
248,,size_choice,,html-keyboard-response,248,299779,0.0-1.0-326.0,0,0,72837,,683.0,,,75.0,81.0,81.0,2.0,2000.0,S-L,0.0,S,L,1.0,3.0,thread,garbagecan,thread9,garbagecan7,148.0,36.0,/static/Size_judgement/Stimuli/Size_stims/S/thread/thread8.jpg,/static/Size_judgement/Stimuli/Size_stims/L/garbagecan/garbagecan16.jpg,0.0,garbagecan,thread,L,S,3.0,1.0,garbagecan7,thread9,1.0,257.683,0.683,0.0,
249,,size_choice_confirmation,,html-keyboard-response,249,300616,0.0-1.0-327.0-0.0,0,0,72837,,,,,,81.0,,2.0,,,,,,,,,,,,,,,,,,,,,,,,,,258.5,0.817,,
250,,iti,,html-keyboard-response,250,302628,0.0-1.0-328.0,0,0,72837,,,,,,81.0,,2.0,,,,,,,,,,,,,,,,,,,,,,,,,,260.5,2.0,,
251,,size_choice,,html-keyboard-response,251,303498,0.0-1.0-330.0,0,0,72837,,866.0,,,68.0,82.0,82.0,2.0,2000.0,M-XL,1.0,XL,M,4.0,2.0,tractor,basketball,tractor8,basketball8,187.0,57.0,/static/Size_judgement/Stimuli/Size_stims/XL/tractor/tractor10.jpg,/static/Size_judgement/Stimuli/Size_stims/M/basketball/basketball7.jpg,1.0,tractor,basketball,XL,M,4.0,2.0,tractor8,basketball8,1.0,261.366,0.866,0.0,
252,,size_choice_confirmation,,html-keyboard-response,252,304151,0.0-1.0-331.0-0.0,0,0,72837,,,,,,82.0,,2.0,,,,,,,,,,,,,,,,,,,,,,,,,,262.0,0.634,,
253,,iti,,html-keyboard-response,253,306166,0.0-1.0-332.0,0,0,72837,,,,,,82.0,,2.0,,,,,,,,,,,,,,,,,,,,,,,,,,264.0,2.0,,
254,,size_choice,,html-keyboard-response,254,306803,0.0-1.0-334.0,0,0,72837,,632.0,,,75.0,83.0,83.0,2.0,1000.0,S-XL,0.0,S,XL,1.0,4.0,screws,van,screws2,van3,121.0,192.0,/static/Size_judgement/Stimuli/Size_stims/S/screws/screws5.jpg,/static/Size_judgement/Stimuli/Size_stims/XL/van/van6.jpg,0.0,van,screws,XL,S,4.0,1.0,van3,screws2,1.0,264.632,0.632,0.0,
255,,size_choice_confirmation,,html-keyboard-response,255,307694,0.0-1.0-335.0-0.0,0,0,72837,,,,,,83.0,,2.0,,,,,,,,,,,,,,,,,,,,,,,,,,265.5,0.868,,
256,,iti,,html-keyboard-response,256,308700,0.0-1.0-336.0,0,0,72837,,,,,,83.0,,2.0,,,,,,,,,,,,,,,,,,,,,,,,,,266.5,1.0,,
257,,size_choice,,html-keyboard-response,257,309769,0.0-1.0-338.0,0,0,72837,,1065.0,,,75.0,84.0,84.0,2.0,1000.0,L-L,,L,L,3.0,3.0,cooler,dishwasher,cooler3,dishwasher9,2.0,28.0,/static/Size_judgement/Stimuli/Size_stims/L/cooler/cooler2.jpg,/static/Size_judgement/Stimuli/Size_stims/L/dishwasher/dishwasher2.jpg,0.0,dishwasher,cooler,L,L,3.0,3.0,dishwasher9,cooler3,,267.565,1.065,0.0,
258,,size_choice_confirmation,,html-keyboard-response,258,310217,0.0-1.0-339.0-0.0,0,0,72837,,,,,,84.0,,2.0,,,,,,,,,,,,,,,,,,,,,,,,,,268.0,0.435,,
259,,iti,,html-keyboard-response,259,311220,0.0-1.0-340.0,0,0,72837,,,,,,84.0,,2.0,,,,,,,,,,,,,,,,,,,,,,,,,,269.0,1.0,,
260,,size_choice,,html-keyboard-response,260,312742,0.0-1.0-342.0,0,0,72837,,,,,,85.0,85.0,2.0,1000.0,M-M,,M,M,2.0,2.0,hairdryer,handsaw,hairdryer10,handsaw2,79.0,81.0,/static/Size_judgement/Stimuli/Size_stims/M/hairdryer/hairdryer6.jpg,/static/Size_judgement/Stimuli/Size_stims/M/handsaw/handsaw9.jpg,,,,,,,,,,,270.5,1.5,1.0,
261,,iti,,html-keyboard-response,261,313760,0.0-1.0-344.0,0,0,72837,,,,,,85.0,,2.0,,,,,,,,,,,,,,,,,,,,,,,,,,271.5,1.0,,
262,,size_choice,,html-keyboard-response,262,314627,0.0-1.0-346.0,0,0,72837,,859.0,,,75.0,86.0,86.0,2.0,1000.0,L-XL,0.0,L,XL,3.0,4.0,garbagecan,crane,garbagecan6,crane2,35.0,161.0,/static/Size_judgement/Stimuli/Size_stims/L/garbagecan/garbagecan14.jpg,/static/Size_judgement/Stimuli/Size_stims/XL/crane/crane6.jpg,0.0,crane,garbagecan,XL,L,4.0,3.0,crane2,garbagecan6,1.0,272.359,0.859,0.0,
263,,size_choice_confirmation,,html-keyboard-response,263,315274,0.0-1.0-347.0-0.0,0,0,72837,,,,,,86.0,,2.0,,,,,,,,,,,,,,,,,,,,,,,,,,273.0,0.641,,
264,,iti,,html-keyboard-response,264,316275,0.0-1.0-348.0,0,0,72837,,,,,,86.0,,2.0,,,,,,,,,,,,,,,,,,,,,,,,,,274.0,1.0,,
265,,size_choice,,html-keyboard-response,265,317357,0.0-1.0-350.0,0,0,72837,,1080.0,,,75.0,87.0,87.0,2.0,1000.0,XL-XL,,XL,XL,4.0,4.0,car,tractor,car2,tractor10,151.0,189.0,/static/Size_judgement/Stimuli/Size_stims/XL/car/car3.jpg,/static/Size_judgement/Stimuli/Size_stims/XL/tractor/tractor8.jpg,0.0,tractor,car,XL,XL,4.0,4.0,tractor10,car2,,275.08,1.08,0.0,
266,,size_choice_confirmation,,html-keyboard-response,266,317781,0.0-1.0-351.0-0.0,0,0,72837,,,,,,87.0,,2.0,,,,,,,,,,,,,,,,,,,,,,,,,,275.5,0.42,,
267,,iti,,html-keyboard-response,267,318784,0.0-1.0-352.0,0,0,72837,,,,,,87.0,,2.0,,,,,,,,,,,,,,,,,,,,,,,,,,276.5,1.0,,
268,,size_choice,,html-keyboard-response,268,319601,0.0-1.0-354.0,0,0,72837,,811.0,,,68.0,88.0,88.0,2.0,1000.0,S-L,1.0,L,S,3.0,1.0,deskchair,screws,deskchair7,screws10,16.0,129.0,/static/Size_judgement/Stimuli/Size_stims/L/deskchair/deskchair4.jpg,/static/Size_judgement/Stimuli/Size_stims/S/screws/screws9.jpg,1.0,deskchair,screws,L,S,3.0,1.0,deskchair7,screws10,1.0,277.311,0.811,0.0,
269,,size_choice_confirmation,,html-keyboard-response,269,320301,0.0-1.0-355.0-0.0,0,0,72837,,,,,,88.0,,2.0,,,,,,,,,,,,,,,,,,,,,,,,,,278.0,0.689,,
270,,iti,,html-keyboard-response,270,321304,0.0-1.0-356.0,0,0,72837,,,,,,88.0,,2.0,,,,,,,,,,,,,,,,,,,,,,,,,,279.0,1.0,,
271,,size_choice,,html-keyboard-response,271,322106,0.0-1.0-358.0,0,0,72837,,799.0,,,68.0,89.0,89.0,2.0,3500.0,S-L,1.0,L,S,3.0,1.0,garbagecan,teabag,garbagecan1,teabag4,30.0,133.0,/static/Size_judgement/Stimuli/Size_stims/L/garbagecan/garbagecan4.jpg,/static/Size_judgement/Stimuli/Size_stims/S/teabag/teabag3.jpg,1.0,garbagecan,teabag,L,S,3.0,1.0,garbagecan1,teabag4,1.0,279.799,0.799,0.0,
272,,size_choice_confirmation,,html-keyboard-response,272,322820,0.0-1.0-359.0-0.0,0,0,72837,,,,,,89.0,,2.0,,,,,,,,,,,,,,,,,,,,,,,,,,280.5,0.701,,
273,,iti,,html-keyboard-response,273,326342,0.0-1.0-360.0,0,0,72837,,,,,,89.0,,2.0,,,,,,,,,,,,,,,,,,,,,,,,,,284.0,3.5,,0.99
274,,size_final_tally,,html-keyboard-response,274,328261,0.0-2.0,0,0,72837,,1907.0,,,68.0,,,,,,,,,,,,,,,,,,,,,,,,,,,,,,,,
275,,debreif_intro,,html-keyboard-response,275,332445,0.0-3.0,0,0,72837,,4119.0,,,68.0,,,,,,,,,,,,,,,,,,,,,,,,,,,,,,,,
276,,debreif_age,,survey-text,276,337389,0.0-4.0,0,0,72837,,4942.0,"{""Q0"":""37""}",,,,,,,,,,,,,,,,,,,,,,,,,,,,,,,,,,
277,,debreif_gender,,survey-multi-choice,277,339335,0.0-5.0,0,0,72837,,1943.0,"{""Q0"":""Female""}",,,,,,,,,,,,,,,,,,,,,,,,,,,,,,,,,,
278,,debreif_dominant_hand,,survey-multi-choice,278,341590,0.0-6.0,0,0,72837,,2251.0,"{""Q0"":""Right""}",,,,,,,,,,,,,,,,,,,,,,,,,,,,,,,,,,
279,,debreif_native_language,,survey-multi-choice,279,343390,0.0-7.0,0,0,72837,,1796.0,"{""Q0"":""Yes""}",,,,,,,,,,,,,,,,,,,,,,,,,,,,,,,,,,
280,,debreif_fluency,,survey-likert,280,346879,0.0-8.0,0,0,72837,,3485.0,"{""Q0"":5}",,,,,,,,,,,,,,,,,,,,,,,,,,,,,,,,,,
281,,debreif_strategy_category_learning,,survey-text,281,374597,0.0-9.0,0,0,72837,,27716.0,"{""Q0"":""I tried to remember the amounts of each item. After awhile, I started to choose more by the category.""}",,,,,,,,,,,,,,,,,,,,,,,,,,,,,,,,,,
282,,debreif_strategy_old_trials,,survey-text,282,390758,0.0-10.0,0,0,72837,,16159.0,"{""Q0"":""I tried to remember the highest priced one.""}",,,,,,,,,,,,,,,,,,,,,,,,,,,,,,,,,,
283,,debreif_strategy_category_memory,,survey-text,283,407102,0.0-11.0,0,0,72837,,16339.0,"{""Q0"":""Averaging out the category from what I remembered.""}",,,,,,,,,,,,,,,,,,,,,,,,,,,,,,,,,,
284,,debreif_strategy_size,,survey-text,284,418077,0.0-12.0,0,0,72837,,10974.0,"{""Q0"":""The largest in life item.""}",,,,,,,,,,,,,,,,,,,,,,,,,,,,,,,,,,
285,,debreif_strategy_rl,,survey-text,285,439349,0.0-13.0,0,0,72837,,21270.0,"{""Q0"":""The highest value balls. green and yellow.""}",,,,,,,,,,,,,,,,,,,,,,,,,,,,,,,,,,
286,,debreif_clear_instructions,,survey-text,286,442772,0.0-14.0,0,0,72837,,3421.0,"{""Q0"":""No.""}",,,,,,,,,,,,,,,,,,,,,,,,,,,,,,,,,,
287,,debreif_end,,html-keyboard-response,287,453892,0.0-15.0,0,0,72837,,11114.0,,,32.0,,,,,,,,,,,,,,,,,,,,,,,,,,,,,,,,
