,success,ttype,start_time,trial_type,trial_index,time_elapsed,internal_node_id,warning,missed_checkup,PID,view_history,rt,responses,repeat_instructions,key_press,index,trial_num,block,iti,pair_type,high_size_on_left,left_size_group,right_size_group,left_size_num,right_size_num,left_category,right_category,left_exemplar,right_exemplar,left_index,right_index,left_img_path,right_img_path,left_chosen,chosen_category,unchosen_category,chosen_size_group,unchosen_size_group,chosen_size_num,unchosen_size_num,chosen_exemplar,unchosen_exemplar,accuracy,onset,duration,no_response,size_final_tally
0,True,full_screen,d06072022hr1435,fullscreen,0,4199,0.0-0.0,0,0,64144,,,,,,,,,,,,,,,,,,,,,,,,,,,,,,,,,,,,,
1,,size_instructions,,instructions,1,37536,0.0-1.0-0.0-0.0,0,0,64144,"[{""page_index"":0,""viewing_time"":4630},{""page_index"":1,""viewing_time"":6164},{""page_index"":2,""viewing_time"":3247},{""page_index"":3,""viewing_time"":3946},{""page_index"":4,""viewing_time"":12615},{""page_index"":5,""viewing_time"":2731}]",33334.0,,,,,,,,,,,,,,,,,,,,,,,,,,,,,,,,,,,
2,,size_comprehension_check,,survey-multi-choice,2,54711,0.0-1.0-0.0-1.0,0,0,64144,,17164.0,"{""Q0"":""True"",""Q1"":""Size in the real world"",""Q2"":""True"",""Q3"":""D for left and K for right""}",0.0,,,,,,,,,,,,,,,,,,,,,,,,,,,,,,,,,
3,,,,html-keyboard-response,3,56427,0.0-1.0-1.0,0,0,64144,,1707.0,,,68.0,,,,,,,,,,,,,,,,,,,,,,,,,,,,,,,,
4,,size_choice,,html-keyboard-response,4,57585,0.0-1.0-2.0,0,0,64144,,1155.0,,,68.0,0.0,0.0,1.0,2000.0,L-L,,L,L,3.0,3.0,deskchair,mailbox,deskchair10,mailbox3,19.0,42.0,/static/Size_judgement/Stimuli/Size_stims/L/deskchair/deskchair2.jpg,/static/Size_judgement/Stimuli/Size_stims/L/mailbox/mailbox1.jpg,1.0,deskchair,mailbox,L,L,3.0,3.0,deskchair10,mailbox3,,1.155,1.155,0.0,
5,,size_choice_confirmation,,html-keyboard-response,5,57941,0.0-1.0-3.0-0.0,0,0,64144,,,,,,0.0,,1.0,,,,,,,,,,,,,,,,,,,,,,,,,,1.5,0.345,,
6,,iti,,html-keyboard-response,6,59945,0.0-1.0-4.0,0,0,64144,,,,,,0.0,,1.0,,,,,,,,,,,,,,,,,,,,,,,,,,3.5,2.0,,
7,,size_choice,,html-keyboard-response,7,60980,0.0-1.0-6.0,0,0,64144,,1031.0,,,68.0,1.0,1.0,1.0,1000.0,S-XL,1.0,XL,S,4.0,1.0,dumptruck,teabag,dumptruck9,teabag3,178.0,132.0,/static/Size_judgement/Stimuli/Size_stims/XL/dumptruck/dumptruck5.jpg,/static/Size_judgement/Stimuli/Size_stims/S/teabag/teabag1.jpg,1.0,dumptruck,teabag,XL,S,4.0,1.0,dumptruck9,teabag3,1.0,4.531,1.031,0.0,
8,,size_choice_confirmation,,html-keyboard-response,8,61453,0.0-1.0-7.0-0.0,0,0,64144,,,,,,1.0,,1.0,,,,,,,,,,,,,,,,,,,,,,,,,,5.0,0.469,,
9,,iti,,html-keyboard-response,9,62457,0.0-1.0-8.0,0,0,64144,,,,,,1.0,,1.0,,,,,,,,,,,,,,,,,,,,,,,,,,6.0,1.0,,
10,,size_choice,,html-keyboard-response,10,63467,0.0-1.0-10.0,0,0,64144,,1006.0,,,68.0,2.0,2.0,1.0,1000.0,M-L,1.0,L,M,3.0,2.0,mailbox,ketchup,mailbox9,ketchup7,48.0,96.0,/static/Size_judgement/Stimuli/Size_stims/L/mailbox/mailbox9.jpg,/static/Size_judgement/Stimuli/Size_stims/M/ketchup/ketchup4.jpg,1.0,mailbox,ketchup,L,M,3.0,2.0,mailbox9,ketchup7,1.0,7.006,1.006,0.0,
11,,size_choice_confirmation,,html-keyboard-response,11,63965,0.0-1.0-11.0-0.0,0,0,64144,,,,,,2.0,,1.0,,,,,,,,,,,,,,,,,,,,,,,,,,7.5,0.494,,
12,,iti,,html-keyboard-response,12,64968,0.0-1.0-12.0,0,0,64144,,,,,,2.0,,1.0,,,,,,,,,,,,,,,,,,,,,,,,,,8.5,1.0,,
13,,size_choice,,html-keyboard-response,13,65793,0.0-1.0-14.0,0,0,64144,,820.0,,,68.0,3.0,3.0,1.0,2000.0,M-XL,1.0,XL,M,4.0,2.0,dumptruck,ketchup,dumptruck4,ketchup2,173.0,91.0,/static/Size_judgement/Stimuli/Size_stims/XL/dumptruck/dumptruck1.jpg,/static/Size_judgement/Stimuli/Size_stims/M/ketchup/ketchup9.jpg,1.0,dumptruck,ketchup,XL,M,4.0,2.0,dumptruck4,ketchup2,1.0,9.32,0.82,0.0,
14,,size_choice_confirmation,,html-keyboard-response,14,66479,0.0-1.0-15.0-0.0,0,0,64144,,,,,,3.0,,1.0,,,,,,,,,,,,,,,,,,,,,,,,,,10.0,0.68,,
15,,iti,,html-keyboard-response,15,68482,0.0-1.0-16.0,0,0,64144,,,,,,3.0,,1.0,,,,,,,,,,,,,,,,,,,,,,,,,,12.0,2.0,,
16,,size_choice,,html-keyboard-response,16,69430,0.0-1.0-18.0,0,0,64144,,944.0,,,75.0,4.0,4.0,1.0,1000.0,L-XL,0.0,L,XL,3.0,4.0,garbagecan,dumptruck,garbagecan9,dumptruck7,38.0,176.0,/static/Size_judgement/Stimuli/Size_stims/L/garbagecan/garbagecan12.jpg,/static/Size_judgement/Stimuli/Size_stims/XL/dumptruck/dumptruck6.jpg,0.0,dumptruck,garbagecan,XL,L,4.0,3.0,dumptruck7,garbagecan9,1.0,12.944,0.944,0.0,
17,,size_choice_confirmation,,html-keyboard-response,17,69991,0.0-1.0-19.0-0.0,0,0,64144,,,,,,4.0,,1.0,,,,,,,,,,,,,,,,,,,,,,,,,,13.5,0.556,,
18,,iti,,html-keyboard-response,18,70994,0.0-1.0-20.0,0,0,64144,,,,,,4.0,,1.0,,,,,,,,,,,,,,,,,,,,,,,,,,14.5,1.0,,
19,,size_choice,,html-keyboard-response,19,71771,0.0-1.0-22.0,0,0,64144,,773.0,,,68.0,5.0,5.0,1.0,1500.0,S-L,1.0,L,S,3.0,1.0,mailbox,thread,mailbox8,thread8,47.0,147.0,/static/Size_judgement/Stimuli/Size_stims/L/mailbox/mailbox10.jpg,/static/Size_judgement/Stimuli/Size_stims/S/thread/thread10.jpg,1.0,mailbox,thread,L,S,3.0,1.0,mailbox8,thread8,1.0,15.273,0.773,0.0,
20,,size_choice_confirmation,,html-keyboard-response,20,72502,0.0-1.0-23.0-0.0,0,0,64144,,,,,,5.0,,1.0,,,,,,,,,,,,,,,,,,,,,,,,,,16.0,0.727,,
21,,iti,,html-keyboard-response,21,74005,0.0-1.0-24.0,0,0,64144,,,,,,5.0,,1.0,,,,,,,,,,,,,,,,,,,,,,,,,,17.5,1.5,,
22,,size_choice,,html-keyboard-response,22,74943,0.0-1.0-26.0,0,0,64144,,934.0,,,68.0,6.0,6.0,1.0,2000.0,S-L,1.0,L,S,3.0,1.0,garbagecan,teabag,garbagecan6,teabag10,35.0,139.0,/static/Size_judgement/Stimuli/Size_stims/L/garbagecan/garbagecan14.jpg,/static/Size_judgement/Stimuli/Size_stims/S/teabag/teabag4.jpg,1.0,garbagecan,teabag,L,S,3.0,1.0,garbagecan6,teabag10,1.0,18.434,0.934,0.0,
23,,size_choice_confirmation,,html-keyboard-response,23,75513,0.0-1.0-27.0-0.0,0,0,64144,,,,,,6.0,,1.0,,,,,,,,,,,,,,,,,,,,,,,,,,19.0,0.566,,
24,,iti,,html-keyboard-response,24,77517,0.0-1.0-28.0,0,0,64144,,,,,,6.0,,1.0,,,,,,,,,,,,,,,,,,,,,,,,,,21.0,2.0,,
25,,size_choice,,html-keyboard-response,25,78192,0.0-1.0-30.0,0,0,64144,,671.0,,,68.0,7.0,7.0,1.0,1000.0,M-XL,1.0,XL,M,4.0,2.0,car,ketchup,car2,ketchup5,151.0,94.0,/static/Size_judgement/Stimuli/Size_stims/XL/car/car3.jpg,/static/Size_judgement/Stimuli/Size_stims/M/ketchup/ketchup3.jpg,1.0,car,ketchup,XL,M,4.0,2.0,car2,ketchup5,1.0,21.671,0.671,0.0,
26,,size_choice_confirmation,,html-keyboard-response,26,79025,0.0-1.0-31.0-0.0,0,0,64144,,,,,,7.0,,1.0,,,,,,,,,,,,,,,,,,,,,,,,,,22.5,0.829,,
27,,iti,,html-keyboard-response,27,80028,0.0-1.0-32.0,0,0,64144,,,,,,7.0,,1.0,,,,,,,,,,,,,,,,,,,,,,,,,,23.5,1.0,,
28,,size_choice,,html-keyboard-response,28,80947,0.0-1.0-34.0,0,0,64144,,913.0,,,68.0,8.0,8.0,1.0,1000.0,XL-XL,,XL,XL,4.0,4.0,van,car,van3,car4,192.0,153.0,/static/Size_judgement/Stimuli/Size_stims/XL/van/van6.jpg,/static/Size_judgement/Stimuli/Size_stims/XL/car/car6.jpg,1.0,van,car,XL,XL,4.0,4.0,van3,car4,,24.413,0.913,0.0,
29,,size_choice_confirmation,,html-keyboard-response,29,81539,0.0-1.0-35.0-0.0,0,0,64144,,,,,,8.0,,1.0,,,,,,,,,,,,,,,,,,,,,,,,,,25.0,0.587,,
30,,iti,,html-keyboard-response,30,82542,0.0-1.0-36.0,0,0,64144,,,,,,8.0,,1.0,,,,,,,,,,,,,,,,,,,,,,,,,,26.0,1.0,,
31,,size_choice,,html-keyboard-response,31,83233,0.0-1.0-38.0,0,0,64144,,687.0,,,75.0,9.0,9.0,1.0,1500.0,S-XL,0.0,S,XL,1.0,4.0,teabag,dumptruck,teabag8,dumptruck8,137.0,177.0,/static/Size_judgement/Stimuli/Size_stims/S/teabag/teabag7.jpg,/static/Size_judgement/Stimuli/Size_stims/XL/dumptruck/dumptruck7.jpg,0.0,dumptruck,teabag,XL,S,4.0,1.0,dumptruck8,teabag8,1.0,26.687,0.687,0.0,
32,,size_choice_confirmation,,html-keyboard-response,32,84052,0.0-1.0-39.0-0.0,0,0,64144,,,,,,9.0,,1.0,,,,,,,,,,,,,,,,,,,,,,,,,,27.5,0.813,,
33,,iti,,html-keyboard-response,33,85555,0.0-1.0-40.0,0,0,64144,,,,,,9.0,,1.0,,,,,,,,,,,,,,,,,,,,,,,,,,29.0,1.5,,
34,,size_choice,,html-keyboard-response,34,86584,0.0-1.0-42.0,0,0,64144,,1024.0,,,68.0,10.0,10.0,1.0,1000.0,M-M,,M,M,2.0,2.0,handsaw,ketchup,handsaw4,ketchup9,83.0,98.0,/static/Size_judgement/Stimuli/Size_stims/M/handsaw/handsaw3.jpg,/static/Size_judgement/Stimuli/Size_stims/M/ketchup/ketchup7.jpg,1.0,handsaw,ketchup,M,M,2.0,2.0,handsaw4,ketchup9,,30.024,1.024,0.0,
35,,size_choice_confirmation,,html-keyboard-response,35,87065,0.0-1.0-43.0-0.0,0,0,64144,,,,,,10.0,,1.0,,,,,,,,,,,,,,,,,,,,,,,,,,30.5,0.476,,
36,,iti,,html-keyboard-response,36,88068,0.0-1.0-44.0,0,0,64144,,,,,,10.0,,1.0,,,,,,,,,,,,,,,,,,,,,,,,,,31.5,1.0,,
37,,size_choice,,html-keyboard-response,37,89154,0.0-1.0-46.0,0,0,64144,,1082.0,,,75.0,11.0,11.0,1.0,1000.0,M-L,0.0,M,L,2.0,3.0,hairdryer,garbagecan,hairdryer6,garbagecan3,75.0,32.0,/static/Size_judgement/Stimuli/Size_stims/M/hairdryer/hairdryer8.jpg,/static/Size_judgement/Stimuli/Size_stims/L/garbagecan/garbagecan7.jpg,0.0,garbagecan,hairdryer,L,M,3.0,2.0,garbagecan3,hairdryer6,1.0,32.582,1.082,0.0,
38,,size_choice_confirmation,,html-keyboard-response,38,89576,0.0-1.0-47.0-0.0,0,0,64144,,,,,,11.0,,1.0,,,,,,,,,,,,,,,,,,,,,,,,,,33.0,0.418,,
39,,iti,,html-keyboard-response,39,90579,0.0-1.0-48.0,0,0,64144,,,,,,11.0,,1.0,,,,,,,,,,,,,,,,,,,,,,,,,,34.0,1.0,,
40,,size_choice,,html-keyboard-response,40,91441,0.0-1.0-50.0,0,0,64144,,857.0,,,68.0,12.0,12.0,1.0,2000.0,M-L,0.0,M,L,2.0,3.0,coffeemaker,garbagecan,coffeemaker5,garbagecan4,64.0,33.0,/static/Size_judgement/Stimuli/Size_stims/M/coffeemaker/coffeemaker10.jpg,/static/Size_judgement/Stimuli/Size_stims/L/garbagecan/garbagecan6.jpg,1.0,coffeemaker,garbagecan,M,L,2.0,3.0,coffeemaker5,garbagecan4,0.0,34.857,0.857,0.0,
41,,size_choice_confirmation,,html-keyboard-response,41,92088,0.0-1.0-51.0-0.0,0,0,64144,,,,,,12.0,,1.0,,,,,,,,,,,,,,,,,,,,,,,,,,35.5,0.643,,
42,,iti,,html-keyboard-response,42,94091,0.0-1.0-52.0,0,0,64144,,,,,,12.0,,1.0,,,,,,,,,,,,,,,,,,,,,,,,,,37.5,2.0,,
43,,size_choice,,html-keyboard-response,43,94964,0.0-1.0-54.0,0,0,64144,,868.0,,,75.0,13.0,13.0,1.0,1000.0,S-L,0.0,S,L,1.0,3.0,screws,garbagecan,screws10,garbagecan2,129.0,31.0,/static/Size_judgement/Stimuli/Size_stims/S/screws/screws9.jpg,/static/Size_judgement/Stimuli/Size_stims/L/garbagecan/garbagecan5.jpg,0.0,garbagecan,screws,L,S,3.0,1.0,garbagecan2,screws10,1.0,38.368,0.868,0.0,
44,,size_choice_confirmation,,html-keyboard-response,44,95601,0.0-1.0-55.0-0.0,0,0,64144,,,,,,13.0,,1.0,,,,,,,,,,,,,,,,,,,,,,,,,,39.0,0.632,,
45,,iti,,html-keyboard-response,45,96603,0.0-1.0-56.0,0,0,64144,,,,,,13.0,,1.0,,,,,,,,,,,,,,,,,,,,,,,,,,40.0,1.0,,
46,,size_choice,,html-keyboard-response,46,97440,0.0-1.0-58.0,0,0,64144,,832.0,,,68.0,14.0,14.0,1.0,1000.0,M-XL,1.0,XL,M,4.0,2.0,dumptruck,hairdryer,dumptruck5,hairdryer4,174.0,73.0,/static/Size_judgement/Stimuli/Size_stims/XL/dumptruck/dumptruck3.jpg,/static/Size_judgement/Stimuli/Size_stims/M/hairdryer/hairdryer16.jpg,1.0,dumptruck,hairdryer,XL,M,4.0,2.0,dumptruck5,hairdryer4,1.0,40.832,0.832,0.0,
47,,size_choice_confirmation,,html-keyboard-response,47,98112,0.0-1.0-59.0-0.0,0,0,64144,,,,,,14.0,,1.0,,,,,,,,,,,,,,,,,,,,,,,,,,41.5,0.668,,
48,,iti,,html-keyboard-response,48,99115,0.0-1.0-60.0,0,0,64144,,,,,,14.0,,1.0,,,,,,,,,,,,,,,,,,,,,,,,,,42.5,1.0,,
49,,size_choice,,html-keyboard-response,49,99990,0.0-1.0-62.0,0,0,64144,,871.0,,,68.0,15.0,15.0,1.0,1000.0,S-XL,1.0,XL,S,4.0,1.0,van,screws,van5,screws1,194.0,120.0,/static/Size_judgement/Stimuli/Size_stims/XL/van/van3.jpg,/static/Size_judgement/Stimuli/Size_stims/S/screws/screws4.jpg,1.0,van,screws,XL,S,4.0,1.0,van5,screws1,1.0,43.371,0.871,0.0,
50,,size_choice_confirmation,,html-keyboard-response,50,100626,0.0-1.0-63.0-0.0,0,0,64144,,,,,,15.0,,1.0,,,,,,,,,,,,,,,,,,,,,,,,,,44.0,0.629,,
51,,iti,,html-keyboard-response,51,101628,0.0-1.0-64.0,0,0,64144,,,,,,15.0,,1.0,,,,,,,,,,,,,,,,,,,,,,,,,,45.0,1.0,,
52,,size_choice,,html-keyboard-response,52,102608,0.0-1.0-66.0,0,0,64144,,977.0,,,75.0,16.0,16.0,1.0,3000.0,S-M,0.0,S,M,1.0,2.0,teabag,coffeemaker,teabag9,coffeemaker8,138.0,67.0,/static/Size_judgement/Stimuli/Size_stims/S/teabag/teabag5.jpg,/static/Size_judgement/Stimuli/Size_stims/M/coffeemaker/coffeemaker5.jpg,0.0,coffeemaker,teabag,M,S,2.0,1.0,coffeemaker8,teabag9,1.0,45.977,0.977,0.0,
53,,size_choice_confirmation,,html-keyboard-response,53,103134,0.0-1.0-67.0-0.0,0,0,64144,,,,,,16.0,,1.0,,,,,,,,,,,,,,,,,,,,,,,,,,46.5,0.523,,
54,,iti,,html-keyboard-response,54,106137,0.0-1.0-68.0,0,0,64144,,,,,,16.0,,1.0,,,,,,,,,,,,,,,,,,,,,,,,,,49.5,3.0,,
55,,size_choice,,html-keyboard-response,55,106982,0.0-1.0-70.0,0,0,64144,,841.0,,,68.0,17.0,17.0,1.0,1000.0,M-XL,1.0,XL,M,4.0,2.0,dumptruck,hairdryer,dumptruck10,hairdryer8,179.0,77.0,/static/Size_judgement/Stimuli/Size_stims/XL/dumptruck/dumptruck4.jpg,/static/Size_judgement/Stimuli/Size_stims/M/hairdryer/hairdryer1.jpg,1.0,dumptruck,hairdryer,XL,M,4.0,2.0,dumptruck10,hairdryer8,1.0,50.341,0.841,0.0,
56,,size_choice_confirmation,,html-keyboard-response,56,107645,0.0-1.0-71.0-0.0,0,0,64144,,,,,,17.0,,1.0,,,,,,,,,,,,,,,,,,,,,,,,,,51.0,0.659,,
57,,iti,,html-keyboard-response,57,108648,0.0-1.0-72.0,0,0,64144,,,,,,17.0,,1.0,,,,,,,,,,,,,,,,,,,,,,,,,,52.0,1.0,,
58,,size_choice,,html-keyboard-response,58,109786,0.0-1.0-74.0,0,0,64144,,1135.0,,,75.0,18.0,18.0,1.0,1500.0,S-L,0.0,S,L,1.0,3.0,die,mailbox,die10,mailbox10,109.0,49.0,/static/Size_judgement/Stimuli/Size_stims/S/die/die6.jpg,/static/Size_judgement/Stimuli/Size_stims/L/mailbox/mailbox8.jpg,0.0,mailbox,die,L,S,3.0,1.0,mailbox10,die10,1.0,53.135,1.135,0.0,
59,,size_choice_confirmation,,html-keyboard-response,59,110156,0.0-1.0-75.0-0.0,0,0,64144,,,,,,18.0,,1.0,,,,,,,,,,,,,,,,,,,,,,,,,,53.5,0.365,,
60,,iti,,html-keyboard-response,60,111659,0.0-1.0-76.0,0,0,64144,,,,,,18.0,,1.0,,,,,,,,,,,,,,,,,,,,,,,,,,55.0,1.5,,
61,,size_choice,,html-keyboard-response,61,112378,0.0-1.0-78.0,0,0,64144,,714.0,,,68.0,19.0,19.0,1.0,1000.0,S-XL,1.0,XL,S,4.0,1.0,dumptruck,die,dumptruck1,die6,170.0,105.0,/static/Size_judgement/Stimuli/Size_stims/XL/dumptruck/dumptruck9.jpg,/static/Size_judgement/Stimuli/Size_stims/S/die/die1.jpg,1.0,dumptruck,die,XL,S,4.0,1.0,dumptruck1,die6,1.0,55.714,0.714,0.0,
62,,size_choice_confirmation,,html-keyboard-response,62,113168,0.0-1.0-79.0-0.0,0,0,64144,,,,,,19.0,,1.0,,,,,,,,,,,,,,,,,,,,,,,,,,56.5,0.786,,
63,,iti,,html-keyboard-response,63,114171,0.0-1.0-80.0,0,0,64144,,,,,,19.0,,1.0,,,,,,,,,,,,,,,,,,,,,,,,,,57.5,1.0,,
64,,size_choice,,html-keyboard-response,64,114847,0.0-1.0-82.0,0,0,64144,,673.0,,,75.0,20.0,20.0,1.0,1500.0,M-XL,0.0,M,XL,2.0,4.0,basketball,tractor,basketball7,tractor6,56.0,185.0,/static/Size_judgement/Stimuli/Size_stims/M/basketball/basketball6.jpg,/static/Size_judgement/Stimuli/Size_stims/XL/tractor/tractor3.jpg,0.0,tractor,basketball,XL,M,4.0,2.0,tractor6,basketball7,1.0,58.173,0.673,0.0,
65,,size_choice_confirmation,,html-keyboard-response,65,115677,0.0-1.0-83.0-0.0,0,0,64144,,,,,,20.0,,1.0,,,,,,,,,,,,,,,,,,,,,,,,,,59.0,0.827,,
66,,iti,,html-keyboard-response,66,117180,0.0-1.0-84.0,0,0,64144,,,,,,20.0,,1.0,,,,,,,,,,,,,,,,,,,,,,,,,,60.5,1.5,,
67,,size_choice,,html-keyboard-response,67,118210,0.0-1.0-86.0,0,0,64144,,1024.0,,,75.0,21.0,21.0,1.0,3000.0,M-M,,M,M,2.0,2.0,handsaw,ketchup,handsaw10,ketchup8,89.0,97.0,/static/Size_judgement/Stimuli/Size_stims/M/handsaw/handsaw10.jpg,/static/Size_judgement/Stimuli/Size_stims/M/ketchup/ketchup5.jpg,0.0,ketchup,handsaw,M,M,2.0,2.0,ketchup8,handsaw10,,61.524,1.024,0.0,
68,,size_choice_confirmation,,html-keyboard-response,68,118688,0.0-1.0-87.0-0.0,0,0,64144,,,,,,21.0,,1.0,,,,,,,,,,,,,,,,,,,,,,,,,,62.0,0.476,,
69,,iti,,html-keyboard-response,69,121691,0.0-1.0-88.0,0,0,64144,,,,,,21.0,,1.0,,,,,,,,,,,,,,,,,,,,,,,,,,65.0,3.0,,
70,,size_choice,,html-keyboard-response,70,122579,0.0-1.0-90.0,0,0,64144,,884.0,,,75.0,22.0,22.0,1.0,1000.0,S-S,,S,S,1.0,1.0,thread,paperclip,thread7,paperclip1,146.0,110.0,/static/Size_judgement/Stimuli/Size_stims/S/thread/thread3.jpg,/static/Size_judgement/Stimuli/Size_stims/S/paperclip/paperclip9.jpg,0.0,paperclip,thread,S,S,1.0,1.0,paperclip1,thread7,,65.884,0.884,0.0,
71,,size_choice_confirmation,,html-keyboard-response,71,123199,0.0-1.0-91.0-0.0,0,0,64144,,,,,,22.0,,1.0,,,,,,,,,,,,,,,,,,,,,,,,,,66.5,0.616,,
72,,iti,,html-keyboard-response,72,124202,0.0-1.0-92.0,0,0,64144,,,,,,22.0,,1.0,,,,,,,,,,,,,,,,,,,,,,,,,,67.5,1.0,,
73,,size_choice,,html-keyboard-response,73,125252,0.0-1.0-94.0,0,0,64144,,1046.0,,,68.0,23.0,23.0,1.0,1500.0,M-XL,1.0,XL,M,4.0,2.0,car,handsaw,car6,handsaw2,155.0,81.0,/static/Size_judgement/Stimuli/Size_stims/XL/car/car12.jpg,/static/Size_judgement/Stimuli/Size_stims/M/handsaw/handsaw9.jpg,1.0,car,handsaw,XL,M,4.0,2.0,car6,handsaw2,1.0,68.546,1.046,0.0,
74,,size_choice_confirmation,,html-keyboard-response,74,125710,0.0-1.0-95.0-0.0,0,0,64144,,,,,,23.0,,1.0,,,,,,,,,,,,,,,,,,,,,,,,,,69.0,0.454,,
75,,iti,,html-keyboard-response,75,127213,0.0-1.0-96.0,0,0,64144,,,,,,23.0,,1.0,,,,,,,,,,,,,,,,,,,,,,,,,,70.5,1.5,,
76,,size_choice,,html-keyboard-response,76,127994,0.0-1.0-98.0,0,0,64144,,776.0,,,75.0,24.0,24.0,1.0,1500.0,S-L,0.0,S,L,1.0,3.0,die,deskchair,die3,deskchair6,102.0,15.0,/static/Size_judgement/Stimuli/Size_stims/S/die/die10.jpg,/static/Size_judgement/Stimuli/Size_stims/L/deskchair/deskchair5.jpg,0.0,deskchair,die,L,S,3.0,1.0,deskchair6,die3,1.0,71.276,0.776,0.0,
77,,size_choice_confirmation,,html-keyboard-response,77,128722,0.0-1.0-99.0-0.0,0,0,64144,,,,,,24.0,,1.0,,,,,,,,,,,,,,,,,,,,,,,,,,72.0,0.724,,
78,,iti,,html-keyboard-response,78,130225,0.0-1.0-100.0,0,0,64144,,,,,,24.0,,1.0,,,,,,,,,,,,,,,,,,,,,,,,,,73.5,1.5,,
79,,size_choice,,html-keyboard-response,79,131072,0.0-1.0-102.0,0,0,64144,,842.0,,,75.0,25.0,25.0,1.0,1500.0,S-S,,S,S,1.0,1.0,paperclip,die,paperclip9,die1,118.0,100.0,/static/Size_judgement/Stimuli/Size_stims/S/paperclip/paperclip4.jpg,/static/Size_judgement/Stimuli/Size_stims/S/die/die8.jpg,0.0,die,paperclip,S,S,1.0,1.0,die1,paperclip9,,74.342,0.842,0.0,
80,,size_choice_confirmation,,html-keyboard-response,80,131734,0.0-1.0-103.0-0.0,0,0,64144,,,,,,25.0,,1.0,,,,,,,,,,,,,,,,,,,,,,,,,,75.0,0.658,,
81,,iti,,html-keyboard-response,81,133237,0.0-1.0-104.0,0,0,64144,,,,,,25.0,,1.0,,,,,,,,,,,,,,,,,,,,,,,,,,76.5,1.5,,
82,,size_choice,,html-keyboard-response,82,134103,0.0-1.0-106.0,0,0,64144,,861.0,,,75.0,26.0,26.0,1.0,2000.0,M-L,0.0,M,L,2.0,3.0,basketball,deskchair,basketball4,deskchair9,53.0,18.0,/static/Size_judgement/Stimuli/Size_stims/M/basketball/basketball1.jpg,/static/Size_judgement/Stimuli/Size_stims/L/deskchair/deskchair3.jpg,0.0,deskchair,basketball,L,M,3.0,2.0,deskchair9,basketball4,1.0,77.361,0.861,0.0,
83,,size_choice_confirmation,,html-keyboard-response,83,134748,0.0-1.0-107.0-0.0,0,0,64144,,,,,,26.0,,1.0,,,,,,,,,,,,,,,,,,,,,,,,,,78.0,0.639,,
84,,iti,,html-keyboard-response,84,136751,0.0-1.0-108.0,0,0,64144,,,,,,26.0,,1.0,,,,,,,,,,,,,,,,,,,,,,,,,,80.0,2.0,,
85,,size_choice,,html-keyboard-response,85,137538,0.0-1.0-110.0,0,0,64144,,782.0,,,75.0,27.0,27.0,1.0,1500.0,S-XL,0.0,S,XL,1.0,4.0,screws,crane,screws6,crane6,125.0,165.0,/static/Size_judgement/Stimuli/Size_stims/S/screws/screws3.jpg,/static/Size_judgement/Stimuli/Size_stims/XL/crane/crane2.jpg,0.0,crane,screws,XL,S,4.0,1.0,crane6,screws6,1.0,80.782,0.782,0.0,
86,,size_choice_confirmation,,html-keyboard-response,86,138260,0.0-1.0-111.0-0.0,0,0,64144,,,,,,27.0,,1.0,,,,,,,,,,,,,,,,,,,,,,,,,,81.5,0.718,,
87,,iti,,html-keyboard-response,87,139763,0.0-1.0-112.0,0,0,64144,,,,,,27.0,,1.0,,,,,,,,,,,,,,,,,,,,,,,,,,83.0,1.5,,
88,,size_choice,,html-keyboard-response,88,141043,0.0-1.0-114.0,0,0,64144,,1276.0,,,68.0,28.0,28.0,1.0,3000.0,M-L,0.0,M,L,2.0,3.0,coffeemaker,dishwasher,coffeemaker1,dishwasher7,60.0,26.0,/static/Size_judgement/Stimuli/Size_stims/M/coffeemaker/coffeemaker14.jpg,/static/Size_judgement/Stimuli/Size_stims/L/dishwasher/dishwasher7.jpg,1.0,coffeemaker,dishwasher,M,L,2.0,3.0,coffeemaker1,dishwasher7,0.0,84.276,1.276,0.0,
89,,size_choice_confirmation,,html-keyboard-response,89,141272,0.0-1.0-115.0-0.0,0,0,64144,,,,,,28.0,,1.0,,,,,,,,,,,,,,,,,,,,,,,,,,84.5,0.224,,
90,,iti,,html-keyboard-response,90,144274,0.0-1.0-116.0,0,0,64144,,,,,,28.0,,1.0,,,,,,,,,,,,,,,,,,,,,,,,,,87.5,3.0,,
91,,size_choice,,html-keyboard-response,91,145008,0.0-1.0-118.0,0,0,64144,,730.0,,,75.0,29.0,29.0,1.0,2000.0,L-XL,0.0,L,XL,3.0,4.0,mailbox,tractor,mailbox6,tractor2,45.0,181.0,/static/Size_judgement/Stimuli/Size_stims/L/mailbox/mailbox6.jpg,/static/Size_judgement/Stimuli/Size_stims/XL/tractor/tractor7.jpg,0.0,tractor,mailbox,XL,L,4.0,3.0,tractor2,mailbox6,1.0,88.23,0.73,0.0,
92,,size_choice_confirmation,,html-keyboard-response,92,145783,0.0-1.0-119.0-0.0,0,0,64144,,,,,,29.0,,1.0,,,,,,,,,,,,,,,,,,,,,,,,,,89.0,0.77,,
93,,iti,,html-keyboard-response,93,147786,0.0-1.0-120.0,0,0,64144,,,,,,29.0,,1.0,,,,,,,,,,,,,,,,,,,,,,,,,,91.0,2.0,,
94,,size_choice,,html-keyboard-response,94,148394,0.0-1.0-122.0,0,0,64144,,603.0,,,75.0,30.0,30.0,1.0,1500.0,S-XL,0.0,S,XL,1.0,4.0,teabag,crane,teabag5,crane7,134.0,166.0,/static/Size_judgement/Stimuli/Size_stims/S/teabag/teabag2.jpg,/static/Size_judgement/Stimuli/Size_stims/XL/crane/crane3.jpg,0.0,crane,teabag,XL,S,4.0,1.0,crane7,teabag5,1.0,91.603,0.603,0.0,
95,,size_choice_confirmation,,html-keyboard-response,95,149295,0.0-1.0-123.0-0.0,0,0,64144,,,,,,30.0,,1.0,,,,,,,,,,,,,,,,,,,,,,,,,,92.5,0.897,,
96,,iti,,html-keyboard-response,96,150797,0.0-1.0-124.0,0,0,64144,,,,,,30.0,,1.0,,,,,,,,,,,,,,,,,,,,,,,,,,94.0,1.5,,
97,,size_choice,,html-keyboard-response,97,151825,0.0-1.0-126.0,0,0,64144,,1024.0,,,75.0,31.0,31.0,1.0,3500.0,M-L,0.0,M,L,2.0,3.0,coffeemaker,cooler,coffeemaker4,cooler10,63.0,9.0,/static/Size_judgement/Stimuli/Size_stims/M/coffeemaker/coffeemaker11.jpg,/static/Size_judgement/Stimuli/Size_stims/L/cooler/cooler6.jpg,0.0,cooler,coffeemaker,L,M,3.0,2.0,cooler10,coffeemaker4,1.0,95.024,1.024,0.0,
98,,size_choice_confirmation,,html-keyboard-response,98,152305,0.0-1.0-127.0-0.0,0,0,64144,,,,,,31.0,,1.0,,,,,,,,,,,,,,,,,,,,,,,,,,95.5,0.476,,
99,,iti,,html-keyboard-response,99,155808,0.0-1.0-128.0,0,0,64144,,,,,,31.0,,1.0,,,,,,,,,,,,,,,,,,,,,,,,,,99.0,3.5,,
100,,size_choice,,html-keyboard-response,100,156338,0.0-1.0-130.0,0,0,64144,,525.0,,,75.0,32.0,32.0,1.0,3000.0,S-XL,0.0,S,XL,1.0,4.0,paperclip,car,paperclip4,car1,113.0,150.0,/static/Size_judgement/Stimuli/Size_stims/S/paperclip/paperclip3.jpg,/static/Size_judgement/Stimuli/Size_stims/XL/car/car2.jpg,0.0,car,paperclip,XL,S,4.0,1.0,car1,paperclip4,1.0,99.525,0.525,0.0,
101,,size_choice_confirmation,,html-keyboard-response,101,157318,0.0-1.0-131.0-0.0,0,0,64144,,,,,,32.0,,1.0,,,,,,,,,,,,,,,,,,,,,,,,,,100.5,0.975,,
102,,iti,,html-keyboard-response,102,160322,0.0-1.0-132.0,0,0,64144,,,,,,32.0,,1.0,,,,,,,,,,,,,,,,,,,,,,,,,,103.5,3.0,,
103,,size_choice,,html-keyboard-response,103,161124,0.0-1.0-134.0,0,0,64144,,797.0,,,75.0,33.0,33.0,1.0,1000.0,M-M,,M,M,2.0,2.0,ketchup,hairdryer,ketchup3,hairdryer2,92.0,71.0,/static/Size_judgement/Stimuli/Size_stims/M/ketchup/ketchup10.jpg,/static/Size_judgement/Stimuli/Size_stims/M/hairdryer/hairdryer12.jpg,0.0,hairdryer,ketchup,M,M,2.0,2.0,hairdryer2,ketchup3,,104.297,0.797,0.0,
104,,size_choice_confirmation,,html-keyboard-response,104,161831,0.0-1.0-135.0-0.0,0,0,64144,,,,,,33.0,,1.0,,,,,,,,,,,,,,,,,,,,,,,,,,105.0,0.703,,
105,,iti,,html-keyboard-response,105,162835,0.0-1.0-136.0,0,0,64144,,,,,,33.0,,1.0,,,,,,,,,,,,,,,,,,,,,,,,,,106.0,1.0,,
106,,size_choice,,html-keyboard-response,106,163868,0.0-1.0-138.0,0,0,64144,,1030.0,,,75.0,34.0,34.0,1.0,2000.0,S-S,,S,S,1.0,1.0,teabag,screws,teabag4,screws4,133.0,123.0,/static/Size_judgement/Stimuli/Size_stims/S/teabag/teabag3.jpg,/static/Size_judgement/Stimuli/Size_stims/S/screws/screws6.jpg,0.0,screws,teabag,S,S,1.0,1.0,screws4,teabag4,,107.03,1.03,0.0,
107,,size_choice_confirmation,,html-keyboard-response,107,164342,0.0-1.0-139.0-0.0,0,0,64144,,,,,,34.0,,1.0,,,,,,,,,,,,,,,,,,,,,,,,,,107.5,0.47,,
108,,iti,,html-keyboard-response,108,166345,0.0-1.0-140.0,0,0,64144,,,,,,34.0,,1.0,,,,,,,,,,,,,,,,,,,,,,,,,,109.5,2.0,,
109,,size_choice,,html-keyboard-response,109,167236,0.0-1.0-142.0,0,0,64144,,887.0,,,68.0,35.0,35.0,1.0,1000.0,M-L,0.0,M,L,2.0,3.0,basketball,dishwasher,basketball6,dishwasher1,55.0,20.0,/static/Size_judgement/Stimuli/Size_stims/M/basketball/basketball2.jpg,/static/Size_judgement/Stimuli/Size_stims/L/dishwasher/dishwasher10.jpg,1.0,basketball,dishwasher,M,L,2.0,3.0,basketball6,dishwasher1,0.0,110.387,0.887,0.0,
110,,size_choice_confirmation,,html-keyboard-response,110,167854,0.0-1.0-143.0-0.0,0,0,64144,,,,,,35.0,,1.0,,,,,,,,,,,,,,,,,,,,,,,,,,111.0,0.613,,
111,,iti,,html-keyboard-response,111,168857,0.0-1.0-144.0,0,0,64144,,,,,,35.0,,1.0,,,,,,,,,,,,,,,,,,,,,,,,,,112.0,1.0,,
112,,size_choice,,html-keyboard-response,112,169699,0.0-1.0-146.0,0,0,64144,,839.0,,,68.0,36.0,36.0,1.0,1500.0,M-XL,1.0,XL,M,4.0,2.0,tractor,ketchup,tractor10,ketchup6,189.0,95.0,/static/Size_judgement/Stimuli/Size_stims/XL/tractor/tractor8.jpg,/static/Size_judgement/Stimuli/Size_stims/M/ketchup/ketchup1.jpg,1.0,tractor,ketchup,XL,M,4.0,2.0,tractor10,ketchup6,1.0,112.839,0.839,0.0,
113,,size_choice_confirmation,,html-keyboard-response,113,170363,0.0-1.0-147.0-0.0,0,0,64144,,,,,,36.0,,1.0,,,,,,,,,,,,,,,,,,,,,,,,,,113.5,0.661,,
114,,iti,,html-keyboard-response,114,171866,0.0-1.0-148.0,0,0,64144,,,,,,36.0,,1.0,,,,,,,,,,,,,,,,,,,,,,,,,,115.0,1.5,,
115,,size_choice,,html-keyboard-response,115,172735,0.0-1.0-150.0,0,0,64144,,865.0,,,75.0,37.0,37.0,1.0,3500.0,XL-XL,,XL,XL,4.0,4.0,crane,car,crane10,car8,169.0,157.0,/static/Size_judgement/Stimuli/Size_stims/XL/crane/crane9.jpg,/static/Size_judgement/Stimuli/Size_stims/XL/car/car14.jpg,0.0,car,crane,XL,XL,4.0,4.0,car8,crane10,,115.865,0.865,0.0,
116,,size_choice_confirmation,,html-keyboard-response,116,173375,0.0-1.0-151.0-0.0,0,0,64144,,,,,,37.0,,1.0,,,,,,,,,,,,,,,,,,,,,,,,,,116.5,0.635,,
117,,iti,,html-keyboard-response,117,176878,0.0-1.0-152.0,0,0,64144,,,,,,37.0,,1.0,,,,,,,,,,,,,,,,,,,,,,,,,,120.0,3.5,,
118,,size_choice,,html-keyboard-response,118,178383,0.0-1.0-154.0,0,0,64144,,,,,,38.0,38.0,1.0,1500.0,L-L,,L,L,3.0,3.0,dishwasher,garbagecan,dishwasher5,garbagecan5,24.0,34.0,/static/Size_judgement/Stimuli/Size_stims/L/dishwasher/dishwasher4.jpg,/static/Size_judgement/Stimuli/Size_stims/L/garbagecan/garbagecan3.jpg,,,,,,,,,,,121.5,1.5,1.0,
119,,iti,,html-keyboard-response,119,179886,0.0-1.0-156.0,0,0,64144,,,,,,38.0,,1.0,,,,,,,,,,,,,,,,,,,,,,,,,,123.0,1.5,,
120,,size_choice,,html-keyboard-response,120,180775,0.0-1.0-158.0,0,0,64144,,885.0,,,68.0,39.0,39.0,1.0,2000.0,L-L,,L,L,3.0,3.0,dishwasher,cooler,dishwasher10,cooler6,29.0,5.0,/static/Size_judgement/Stimuli/Size_stims/L/dishwasher/dishwasher1.jpg,/static/Size_judgement/Stimuli/Size_stims/L/cooler/cooler1.jpg,1.0,dishwasher,cooler,L,L,3.0,3.0,dishwasher10,cooler6,,123.885,0.885,0.0,
121,,size_choice_confirmation,,html-keyboard-response,121,181394,0.0-1.0-159.0-0.0,0,0,64144,,,,,,39.0,,1.0,,,,,,,,,,,,,,,,,,,,,,,,,,124.5,0.615,,
122,,iti,,html-keyboard-response,122,183397,0.0-1.0-160.0,0,0,64144,,,,,,39.0,,1.0,,,,,,,,,,,,,,,,,,,,,,,,,,126.5,2.0,,
123,,size_choice,,html-keyboard-response,123,184613,0.0-1.0-162.0,0,0,64144,,1211.0,,,75.0,40.0,40.0,1.0,1500.0,S-M,0.0,S,M,1.0,2.0,screws,handsaw,screws3,handsaw3,122.0,82.0,/static/Size_judgement/Stimuli/Size_stims/S/screws/screws7.jpg,/static/Size_judgement/Stimuli/Size_stims/M/handsaw/handsaw2.jpg,0.0,handsaw,screws,M,S,2.0,1.0,handsaw3,screws3,1.0,127.711,1.211,0.0,
124,,size_choice_confirmation,,html-keyboard-response,124,184906,0.0-1.0-163.0-0.0,0,0,64144,,,,,,40.0,,1.0,,,,,,,,,,,,,,,,,,,,,,,,,,128.0,0.289,,
125,,iti,,html-keyboard-response,125,186410,0.0-1.0-164.0,0,0,64144,,,,,,40.0,,1.0,,,,,,,,,,,,,,,,,,,,,,,,,,129.5,1.5,,
126,,size_choice,,html-keyboard-response,126,187243,0.0-1.0-166.0,0,0,64144,,829.0,,,68.0,41.0,41.0,1.0,3500.0,S-L,1.0,L,S,3.0,1.0,deskchair,thread,deskchair5,thread6,14.0,145.0,/static/Size_judgement/Stimuli/Size_stims/L/deskchair/deskchair7.jpg,/static/Size_judgement/Stimuli/Size_stims/S/thread/thread2.jpg,1.0,deskchair,thread,L,S,3.0,1.0,deskchair5,thread6,1.0,130.329,0.829,0.0,
127,,size_choice_confirmation,,html-keyboard-response,127,187919,0.0-1.0-167.0-0.0,0,0,64144,,,,,,41.0,,1.0,,,,,,,,,,,,,,,,,,,,,,,,,,131.0,0.671,,
128,,iti,,html-keyboard-response,128,191421,0.0-1.0-168.0,0,0,64144,,,,,,41.0,,1.0,,,,,,,,,,,,,,,,,,,,,,,,,,134.5,3.5,,
129,,size_choice,,html-keyboard-response,129,192110,0.0-1.0-170.0,0,0,64144,,684.0,,,75.0,42.0,42.0,1.0,1000.0,S-M,0.0,S,M,1.0,2.0,paperclip,basketball,paperclip7,basketball8,116.0,57.0,/static/Size_judgement/Stimuli/Size_stims/S/paperclip/paperclip7.jpg,/static/Size_judgement/Stimuli/Size_stims/M/basketball/basketball7.jpg,0.0,basketball,paperclip,M,S,2.0,1.0,basketball8,paperclip7,1.0,135.184,0.684,0.0,
130,,size_choice_confirmation,,html-keyboard-response,130,192931,0.0-1.0-171.0-0.0,0,0,64144,,,,,,42.0,,1.0,,,,,,,,,,,,,,,,,,,,,,,,,,136.0,0.816,,
131,,iti,,html-keyboard-response,131,193934,0.0-1.0-172.0,0,0,64144,,,,,,42.0,,1.0,,,,,,,,,,,,,,,,,,,,,,,,,,137.0,1.0,,
132,,size_choice,,html-keyboard-response,132,194806,0.0-1.0-174.0,0,0,64144,,868.0,,,68.0,43.0,43.0,1.0,1000.0,S-L,1.0,L,S,3.0,1.0,deskchair,paperclip,deskchair1,paperclip5,10.0,114.0,/static/Size_judgement/Stimuli/Size_stims/L/deskchair/deskchair9.jpg,/static/Size_judgement/Stimuli/Size_stims/S/paperclip/paperclip2.jpg,1.0,deskchair,paperclip,L,S,3.0,1.0,deskchair1,paperclip5,1.0,137.868,0.868,0.0,
133,,size_choice_confirmation,,html-keyboard-response,133,195442,0.0-1.0-175.0-0.0,0,0,64144,,,,,,43.0,,1.0,,,,,,,,,,,,,,,,,,,,,,,,,,138.5,0.632,,
134,,iti,,html-keyboard-response,134,196446,0.0-1.0-176.0,0,0,64144,,,,,,43.0,,1.0,,,,,,,,,,,,,,,,,,,,,,,,,,139.5,1.0,,
135,,size_choice,,html-keyboard-response,135,197436,0.0-1.0-178.0,0,0,64144,,986.0,,,75.0,44.0,44.0,1.0,1000.0,L-XL,0.0,L,XL,3.0,4.0,dishwasher,van,dishwasher2,van9,21.0,198.0,/static/Size_judgement/Stimuli/Size_stims/L/dishwasher/dishwasher9.jpg,/static/Size_judgement/Stimuli/Size_stims/XL/van/van9.jpg,0.0,van,dishwasher,XL,L,4.0,3.0,van9,dishwasher2,1.0,140.486,0.986,0.0,
136,,size_choice_confirmation,,html-keyboard-response,136,197954,0.0-1.0-179.0-0.0,0,0,64144,,,,,,44.0,,1.0,,,,,,,,,,,,,,,,,,,,,,,,,,141.0,0.514,,
137,,iti,,html-keyboard-response,137,198957,0.0-1.0-180.0,0,0,64144,,,,,,44.0,,1.0,,,,,,,,,,,,,,,,,,,,,,,,,,142.0,1.0,,
138,,block_over,,html-keyboard-response,138,218758,0.0-1.0-181.0-0.0,0,0,64144,,19798.0,,,68.0,44.0,,,,,,,,,,,,,,,,,,,,,,,,,,,,,,,
139,,size_choice,,html-keyboard-response,139,219419,0.0-1.0-182.0,0,0,64144,,656.0,,,75.0,45.0,45.0,2.0,2000.0,S-L,0.0,S,L,1.0,3.0,die,mailbox,die5,mailbox2,104.0,41.0,/static/Size_judgement/Stimuli/Size_stims/S/die/die3.jpg,/static/Size_judgement/Stimuli/Size_stims/L/mailbox/mailbox2.jpg,0.0,mailbox,die,L,S,3.0,1.0,mailbox2,die5,1.0,142.656,0.656,0.0,
140,,size_choice_confirmation,,html-keyboard-response,140,220267,0.0-1.0-183.0-0.0,0,0,64144,,,,,,45.0,,2.0,,,,,,,,,,,,,,,,,,,,,,,,,,143.5,0.844,,
141,,iti,,html-keyboard-response,141,222271,0.0-1.0-184.0,0,0,64144,,,,,,45.0,,2.0,,,,,,,,,,,,,,,,,,,,,,,,,,145.5,2.0,,
142,,size_choice,,html-keyboard-response,142,223019,0.0-1.0-186.0,0,0,64144,,744.0,,,68.0,46.0,46.0,2.0,1000.0,S-L,1.0,L,S,3.0,1.0,deskchair,thread,deskchair3,thread10,12.0,149.0,/static/Size_judgement/Stimuli/Size_stims/L/deskchair/deskchair10.jpg,/static/Size_judgement/Stimuli/Size_stims/S/thread/thread9.jpg,1.0,deskchair,thread,L,S,3.0,1.0,deskchair3,thread10,1.0,146.244,0.744,0.0,
143,,size_choice_confirmation,,html-keyboard-response,143,223779,0.0-1.0-187.0-0.0,0,0,64144,,,,,,46.0,,2.0,,,,,,,,,,,,,,,,,,,,,,,,,,147.0,0.756,,
144,,iti,,html-keyboard-response,144,224783,0.0-1.0-188.0,0,0,64144,,,,,,46.0,,2.0,,,,,,,,,,,,,,,,,,,,,,,,,,148.0,1.0,,
145,,size_choice,,html-keyboard-response,145,225523,0.0-1.0-190.0,0,0,64144,,736.0,,,75.0,47.0,47.0,2.0,3500.0,M-L,1.0,L,M,3.0,2.0,garbagecan,handsaw,garbagecan1,handsaw9,30.0,88.0,/static/Size_judgement/Stimuli/Size_stims/L/garbagecan/garbagecan4.jpg,/static/Size_judgement/Stimuli/Size_stims/M/handsaw/handsaw6.jpg,0.0,handsaw,garbagecan,M,L,2.0,3.0,handsaw9,garbagecan1,0.0,148.736,0.736,0.0,
146,,size_choice_confirmation,,html-keyboard-response,146,226291,0.0-1.0-191.0-0.0,0,0,64144,,,,,,47.0,,2.0,,,,,,,,,,,,,,,,,,,,,,,,,,149.5,0.764,,
147,,iti,,html-keyboard-response,147,229794,0.0-1.0-192.0,0,0,64144,,,,,,47.0,,2.0,,,,,,,,,,,,,,,,,,,,,,,,,,153.0,3.5,,
148,,size_choice,,html-keyboard-response,148,230525,0.0-1.0-194.0,0,0,64144,,727.0,,,68.0,48.0,48.0,2.0,1000.0,M-M,,M,M,2.0,2.0,coffeemaker,hairdryer,coffeemaker7,hairdryer5,66.0,74.0,/static/Size_judgement/Stimuli/Size_stims/M/coffeemaker/coffeemaker9.jpg,/static/Size_judgement/Stimuli/Size_stims/M/hairdryer/hairdryer15.jpg,1.0,coffeemaker,hairdryer,M,M,2.0,2.0,coffeemaker7,hairdryer5,,153.727,0.727,0.0,
149,,size_choice_confirmation,,html-keyboard-response,149,231303,0.0-1.0-195.0-0.0,0,0,64144,,,,,,48.0,,2.0,,,,,,,,,,,,,,,,,,,,,,,,,,154.5,0.773,,
150,,iti,,html-keyboard-response,150,232308,0.0-1.0-196.0,0,0,64144,,,,,,48.0,,2.0,,,,,,,,,,,,,,,,,,,,,,,,,,155.5,1.0,,
151,,size_choice,,html-keyboard-response,151,233067,0.0-1.0-198.0,0,0,64144,,755.0,,,68.0,49.0,49.0,2.0,2000.0,S-XL,1.0,XL,S,4.0,1.0,crane,thread,crane3,thread4,162.0,143.0,/static/Size_judgement/Stimuli/Size_stims/XL/crane/crane4.jpg,/static/Size_judgement/Stimuli/Size_stims/S/thread/thread5.jpg,1.0,crane,thread,XL,S,4.0,1.0,crane3,thread4,1.0,156.255,0.755,0.0,
152,,size_choice_confirmation,,html-keyboard-response,152,233816,0.0-1.0-199.0-0.0,0,0,64144,,,,,,49.0,,2.0,,,,,,,,,,,,,,,,,,,,,,,,,,157.0,0.745,,
153,,iti,,html-keyboard-response,153,235819,0.0-1.0-200.0,0,0,64144,,,,,,49.0,,2.0,,,,,,,,,,,,,,,,,,,,,,,,,,159.0,2.0,,
154,,size_choice,,html-keyboard-response,154,236480,0.0-1.0-202.0,0,0,64144,,657.0,,,68.0,50.0,50.0,2.0,1000.0,S-XL,1.0,XL,S,4.0,1.0,tractor,die,tractor7,die9,186.0,108.0,/static/Size_judgement/Stimuli/Size_stims/XL/tractor/tractor2.jpg,/static/Size_judgement/Stimuli/Size_stims/S/die/die7.jpg,1.0,tractor,die,XL,S,4.0,1.0,tractor7,die9,1.0,159.657,0.657,0.0,
155,,size_choice_confirmation,,html-keyboard-response,155,237328,0.0-1.0-203.0-0.0,0,0,64144,,,,,,50.0,,2.0,,,,,,,,,,,,,,,,,,,,,,,,,,160.5,0.843,,
156,,iti,,html-keyboard-response,156,238331,0.0-1.0-204.0,0,0,64144,,,,,,50.0,,2.0,,,,,,,,,,,,,,,,,,,,,,,,,,161.5,1.0,,
157,,size_choice,,html-keyboard-response,157,239319,0.0-1.0-206.0,0,0,64144,,985.0,,,68.0,51.0,51.0,2.0,2000.0,S-L,1.0,L,S,3.0,1.0,cooler,thread,cooler1,thread2,0.0,141.0,/static/Size_judgement/Stimuli/Size_stims/L/cooler/cooler8.jpg,/static/Size_judgement/Stimuli/Size_stims/S/thread/thread6.jpg,1.0,cooler,thread,L,S,3.0,1.0,cooler1,thread2,1.0,162.485,0.985,0.0,
158,,size_choice_confirmation,,html-keyboard-response,158,239836,0.0-1.0-207.0-0.0,0,0,64144,,,,,,51.0,,2.0,,,,,,,,,,,,,,,,,,,,,,,,,,163.0,0.515,,
159,,iti,,html-keyboard-response,159,241838,0.0-1.0-208.0,0,0,64144,,,,,,51.0,,2.0,,,,,,,,,,,,,,,,,,,,,,,,,,165.0,2.0,,
160,,size_choice,,html-keyboard-response,160,242713,0.0-1.0-210.0,0,0,64144,,874.0,,,75.0,52.0,52.0,2.0,1000.0,M-L,0.0,M,L,2.0,3.0,handsaw,mailbox,handsaw8,mailbox4,87.0,43.0,/static/Size_judgement/Stimuli/Size_stims/M/handsaw/handsaw7.jpg,/static/Size_judgement/Stimuli/Size_stims/L/mailbox/mailbox5.jpg,0.0,mailbox,handsaw,L,M,3.0,2.0,mailbox4,handsaw8,1.0,165.874,0.874,0.0,
161,,size_choice_confirmation,,html-keyboard-response,161,243344,0.0-1.0-211.0-0.0,0,0,64144,,,,,,52.0,,2.0,,,,,,,,,,,,,,,,,,,,,,,,,,166.5,0.626,,
162,,iti,,html-keyboard-response,162,244347,0.0-1.0-212.0,0,0,64144,,,,,,52.0,,2.0,,,,,,,,,,,,,,,,,,,,,,,,,,167.5,1.0,,
163,,size_choice,,html-keyboard-response,163,244977,0.0-1.0-214.0,0,0,64144,,625.0,,,68.0,53.0,53.0,2.0,1000.0,S-XL,1.0,XL,S,4.0,1.0,crane,thread,crane9,thread5,168.0,144.0,/static/Size_judgement/Stimuli/Size_stims/XL/crane/crane8.jpg,/static/Size_judgement/Stimuli/Size_stims/S/thread/thread1.jpg,1.0,crane,thread,XL,S,4.0,1.0,crane9,thread5,1.0,168.125,0.625,0.0,
164,,size_choice_confirmation,,html-keyboard-response,164,245858,0.0-1.0-215.0-0.0,0,0,64144,,,,,,53.0,,2.0,,,,,,,,,,,,,,,,,,,,,,,,,,169.0,0.875,,
165,,iti,,html-keyboard-response,165,246861,0.0-1.0-216.0,0,0,64144,,,,,,53.0,,2.0,,,,,,,,,,,,,,,,,,,,,,,,,,170.0,1.0,,
166,,size_choice,,html-keyboard-response,166,247667,0.0-1.0-218.0,0,0,64144,,802.0,,,68.0,54.0,54.0,2.0,2000.0,XL-XL,,XL,XL,4.0,4.0,tractor,van,tractor1,van10,180.0,199.0,/static/Size_judgement/Stimuli/Size_stims/XL/tractor/tractor6.jpg,/static/Size_judgement/Stimuli/Size_stims/XL/van/van8.jpg,1.0,tractor,van,XL,XL,4.0,4.0,tractor1,van10,,170.802,0.802,0.0,
167,,size_choice_confirmation,,html-keyboard-response,167,248370,0.0-1.0-219.0-0.0,0,0,64144,,,,,,54.0,,2.0,,,,,,,,,,,,,,,,,,,,,,,,,,171.5,0.698,,
168,,iti,,html-keyboard-response,168,250373,0.0-1.0-220.0,0,0,64144,,,,,,54.0,,2.0,,,,,,,,,,,,,,,,,,,,,,,,,,173.5,2.0,,
169,,size_choice,,html-keyboard-response,169,251042,0.0-1.0-222.0,0,0,64144,,665.0,,,75.0,55.0,55.0,2.0,1500.0,S-S,,S,S,1.0,1.0,paperclip,teabag,paperclip8,teabag2,117.0,131.0,/static/Size_judgement/Stimuli/Size_stims/S/paperclip/paperclip5.jpg,/static/Size_judgement/Stimuli/Size_stims/S/teabag/teabag8.jpg,0.0,teabag,paperclip,S,S,1.0,1.0,teabag2,paperclip8,,174.165,0.665,0.0,
170,,size_choice_confirmation,,html-keyboard-response,170,251882,0.0-1.0-223.0-0.0,0,0,64144,,,,,,55.0,,2.0,,,,,,,,,,,,,,,,,,,,,,,,,,175.0,0.835,,
171,,iti,,html-keyboard-response,171,253385,0.0-1.0-224.0,0,0,64144,,,,,,55.0,,2.0,,,,,,,,,,,,,,,,,,,,,,,,,,176.5,1.5,,
172,,size_choice,,html-keyboard-response,172,254044,0.0-1.0-226.0,0,0,64144,,655.0,,,68.0,56.0,56.0,2.0,1500.0,S-XL,1.0,XL,S,4.0,1.0,crane,screws,crane8,screws2,167.0,121.0,/static/Size_judgement/Stimuli/Size_stims/XL/crane/crane10.jpg,/static/Size_judgement/Stimuli/Size_stims/S/screws/screws5.jpg,1.0,crane,screws,XL,S,4.0,1.0,crane8,screws2,1.0,177.155,0.655,0.0,
173,,size_choice_confirmation,,html-keyboard-response,173,254893,0.0-1.0-227.0-0.0,0,0,64144,,,,,,56.0,,2.0,,,,,,,,,,,,,,,,,,,,,,,,,,178.0,0.845,,
174,,iti,,html-keyboard-response,174,256396,0.0-1.0-228.0,0,0,64144,,,,,,56.0,,2.0,,,,,,,,,,,,,,,,,,,,,,,,,,179.5,1.5,,
175,,size_choice,,html-keyboard-response,175,257280,0.0-1.0-230.0,0,0,64144,,882.0,,,75.0,57.0,57.0,2.0,1000.0,L-L,,L,L,3.0,3.0,dishwasher,cooler,dishwasher4,cooler3,23.0,2.0,/static/Size_judgement/Stimuli/Size_stims/L/dishwasher/dishwasher5.jpg,/static/Size_judgement/Stimuli/Size_stims/L/cooler/cooler2.jpg,0.0,cooler,dishwasher,L,L,3.0,3.0,cooler3,dishwasher4,,180.382,0.882,0.0,
176,,size_choice_confirmation,,html-keyboard-response,176,257902,0.0-1.0-231.0-0.0,0,0,64144,,,,,,57.0,,2.0,,,,,,,,,,,,,,,,,,,,,,,,,,181.0,0.618,,
177,,iti,,html-keyboard-response,177,258906,0.0-1.0-232.0,0,0,64144,,,,,,57.0,,2.0,,,,,,,,,,,,,,,,,,,,,,,,,,182.0,1.0,,
178,,size_choice,,html-keyboard-response,178,259947,0.0-1.0-234.0,0,0,64144,,1034.0,,,75.0,58.0,58.0,2.0,3000.0,M-XL,0.0,M,XL,2.0,4.0,coffeemaker,van,coffeemaker9,van4,68.0,193.0,/static/Size_judgement/Stimuli/Size_stims/M/coffeemaker/coffeemaker7.jpg,/static/Size_judgement/Stimuli/Size_stims/XL/van/van7.jpg,0.0,van,coffeemaker,XL,M,4.0,2.0,van4,coffeemaker9,1.0,183.034,1.034,0.0,
179,,size_choice_confirmation,,html-keyboard-response,179,260418,0.0-1.0-235.0-0.0,0,0,64144,,,,,,58.0,,2.0,,,,,,,,,,,,,,,,,,,,,,,,,,183.5,0.466,,
180,,iti,,html-keyboard-response,180,263421,0.0-1.0-236.0,0,0,64144,,,,,,58.0,,2.0,,,,,,,,,,,,,,,,,,,,,,,,,,186.5,3.0,,
181,,size_choice,,html-keyboard-response,181,264321,0.0-1.0-238.0,0,0,64144,,895.0,,,75.0,59.0,59.0,2.0,2000.0,M-L,0.0,M,L,2.0,3.0,coffeemaker,cooler,coffeemaker3,cooler7,62.0,6.0,/static/Size_judgement/Stimuli/Size_stims/M/coffeemaker/coffeemaker13.jpg,/static/Size_judgement/Stimuli/Size_stims/L/cooler/cooler4.jpg,0.0,cooler,coffeemaker,L,M,3.0,2.0,cooler7,coffeemaker3,1.0,187.395,0.895,0.0,
182,,size_choice_confirmation,,html-keyboard-response,182,264931,0.0-1.0-239.0-0.0,0,0,64144,,,,,,59.0,,2.0,,,,,,,,,,,,,,,,,,,,,,,,,,188.0,0.605,,
183,,iti,,html-keyboard-response,183,266934,0.0-1.0-240.0,0,0,64144,,,,,,59.0,,2.0,,,,,,,,,,,,,,,,,,,,,,,,,,190.0,2.0,,
184,,size_choice,,html-keyboard-response,184,267616,0.0-1.0-242.0,0,0,64144,,676.0,,,68.0,60.0,60.0,2.0,2000.0,S-L,1.0,L,S,3.0,1.0,cooler,screws,cooler4,screws5,3.0,124.0,/static/Size_judgement/Stimuli/Size_stims/L/cooler/cooler3.jpg,/static/Size_judgement/Stimuli/Size_stims/S/screws/screws2.jpg,1.0,cooler,screws,L,S,3.0,1.0,cooler4,screws5,1.0,190.676,0.676,0.0,
185,,size_choice_confirmation,,html-keyboard-response,185,268443,0.0-1.0-243.0-0.0,0,0,64144,,,,,,60.0,,2.0,,,,,,,,,,,,,,,,,,,,,,,,,,191.5,0.824,,
186,,iti,,html-keyboard-response,186,270446,0.0-1.0-244.0,0,0,64144,,,,,,60.0,,2.0,,,,,,,,,,,,,,,,,,,,,,,,,,193.5,2.0,,
187,,size_choice,,html-keyboard-response,187,271084,0.0-1.0-246.0,0,0,64144,,632.0,,,75.0,61.0,61.0,2.0,1500.0,M-XL,0.0,M,XL,2.0,4.0,handsaw,car,handsaw7,car3,86.0,152.0,/static/Size_judgement/Stimuli/Size_stims/M/handsaw/handsaw5.jpg,/static/Size_judgement/Stimuli/Size_stims/XL/car/car4.jpg,0.0,car,handsaw,XL,M,4.0,2.0,car3,handsaw7,1.0,194.132,0.632,0.0,
188,,size_choice_confirmation,,html-keyboard-response,188,271956,0.0-1.0-247.0-0.0,0,0,64144,,,,,,61.0,,2.0,,,,,,,,,,,,,,,,,,,,,,,,,,195.0,0.868,,
189,,iti,,html-keyboard-response,189,273459,0.0-1.0-248.0,0,0,64144,,,,,,61.0,,2.0,,,,,,,,,,,,,,,,,,,,,,,,,,196.5,1.5,,
190,,size_choice,,html-keyboard-response,190,273989,0.0-1.0-250.0,0,0,64144,,526.0,,,75.0,62.0,62.0,2.0,1000.0,M-XL,0.0,M,XL,2.0,4.0,handsaw,tractor,handsaw1,tractor4,80.0,183.0,/static/Size_judgement/Stimuli/Size_stims/M/handsaw/handsaw8.jpg,/static/Size_judgement/Stimuli/Size_stims/XL/tractor/tractor4.jpg,0.0,tractor,handsaw,XL,M,4.0,2.0,tractor4,handsaw1,1.0,197.026,0.526,0.0,
191,,size_choice_confirmation,,html-keyboard-response,191,274967,0.0-1.0-251.0-0.0,0,0,64144,,,,,,62.0,,2.0,,,,,,,,,,,,,,,,,,,,,,,,,,198.0,0.974,,
192,,iti,,html-keyboard-response,192,275970,0.0-1.0-252.0,0,0,64144,,,,,,62.0,,2.0,,,,,,,,,,,,,,,,,,,,,,,,,,199.0,1.0,,
193,,size_choice,,html-keyboard-response,193,276812,0.0-1.0-254.0,0,0,64144,,836.0,,,75.0,63.0,63.0,2.0,1500.0,S-L,1.0,L,S,3.0,1.0,dishwasher,teabag,dishwasher9,teabag7,28.0,136.0,/static/Size_judgement/Stimuli/Size_stims/L/dishwasher/dishwasher2.jpg,/static/Size_judgement/Stimuli/Size_stims/S/teabag/teabag10.jpg,0.0,teabag,dishwasher,S,L,1.0,3.0,teabag7,dishwasher9,0.0,199.836,0.836,0.0,
194,,size_choice_confirmation,,html-keyboard-response,194,277479,0.0-1.0-255.0-0.0,0,0,64144,,,,,,63.0,,2.0,,,,,,,,,,,,,,,,,,,,,,,,,,200.5,0.664,,
195,,iti,,html-keyboard-response,195,278983,0.0-1.0-256.0,0,0,64144,,,,,,63.0,,2.0,,,,,,,,,,,,,,,,,,,,,,,,,,202.0,1.5,,
196,,size_choice,,html-keyboard-response,196,279613,0.0-1.0-258.0,0,0,64144,,626.0,,,75.0,64.0,64.0,2.0,3500.0,M-XL,1.0,XL,M,4.0,2.0,crane,coffeemaker,crane5,coffeemaker2,164.0,61.0,/static/Size_judgement/Stimuli/Size_stims/XL/crane/crane1.jpg,/static/Size_judgement/Stimuli/Size_stims/M/coffeemaker/coffeemaker12.jpg,0.0,coffeemaker,crane,M,XL,2.0,4.0,coffeemaker2,crane5,0.0,202.626,0.626,0.0,
197,,size_choice_confirmation,,html-keyboard-response,197,280492,0.0-1.0-259.0-0.0,0,0,64144,,,,,,64.0,,2.0,,,,,,,,,,,,,,,,,,,,,,,,,,203.5,0.874,,
198,,iti,,html-keyboard-response,198,283995,0.0-1.0-260.0,0,0,64144,,,,,,64.0,,2.0,,,,,,,,,,,,,,,,,,,,,,,,,,207.0,3.5,,
199,,size_choice,,html-keyboard-response,199,284976,0.0-1.0-262.0,0,0,64144,,976.0,,,68.0,65.0,65.0,2.0,1500.0,XL-XL,,XL,XL,4.0,4.0,tractor,van,tractor9,van6,188.0,195.0,/static/Size_judgement/Stimuli/Size_stims/XL/tractor/tractor9.jpg,/static/Size_judgement/Stimuli/Size_stims/XL/van/van2.jpg,1.0,tractor,van,XL,XL,4.0,4.0,tractor9,van6,,207.976,0.976,0.0,
200,,size_choice_confirmation,,html-keyboard-response,200,285504,0.0-1.0-263.0-0.0,0,0,64144,,,,,,65.0,,2.0,,,,,,,,,,,,,,,,,,,,,,,,,,208.5,0.524,,
201,,iti,,html-keyboard-response,201,287008,0.0-1.0-264.0,0,0,64144,,,,,,65.0,,2.0,,,,,,,,,,,,,,,,,,,,,,,,,,210.0,1.5,,
202,,size_choice,,html-keyboard-response,202,288116,0.0-1.0-266.0,0,0,64144,,1104.0,,,75.0,66.0,66.0,2.0,2000.0,S-M,0.0,S,M,1.0,2.0,teabag,hairdryer,teabag6,hairdryer1,135.0,70.0,/static/Size_judgement/Stimuli/Size_stims/S/teabag/teabag6.jpg,/static/Size_judgement/Stimuli/Size_stims/M/hairdryer/hairdryer11.jpg,0.0,hairdryer,teabag,M,S,2.0,1.0,hairdryer1,teabag6,1.0,211.104,1.104,0.0,
203,,size_choice_confirmation,,html-keyboard-response,203,288518,0.0-1.0-267.0-0.0,0,0,64144,,,,,,66.0,,2.0,,,,,,,,,,,,,,,,,,,,,,,,,,211.5,0.396,,
204,,iti,,html-keyboard-response,204,290520,0.0-1.0-268.0,0,0,64144,,,,,,66.0,,2.0,,,,,,,,,,,,,,,,,,,,,,,,,,213.5,2.0,,
205,,size_choice,,html-keyboard-response,205,291266,0.0-1.0-270.0,0,0,64144,,741.0,,,68.0,67.0,67.0,2.0,1500.0,S-L,1.0,L,S,3.0,1.0,garbagecan,die,garbagecan8,die7,37.0,106.0,/static/Size_judgement/Stimuli/Size_stims/L/garbagecan/garbagecan13.jpg,/static/Size_judgement/Stimuli/Size_stims/S/die/die4.jpg,1.0,garbagecan,die,L,S,3.0,1.0,garbagecan8,die7,1.0,214.241,0.741,0.0,
206,,size_choice_confirmation,,html-keyboard-response,206,292030,0.0-1.0-271.0-0.0,0,0,64144,,,,,,67.0,,2.0,,,,,,,,,,,,,,,,,,,,,,,,,,215.0,0.759,,
207,,iti,,html-keyboard-response,207,293534,0.0-1.0-272.0,0,0,64144,,,,,,67.0,,2.0,,,,,,,,,,,,,,,,,,,,,,,,,,216.5,1.5,,
208,,size_choice,,html-keyboard-response,208,294311,0.0-1.0-274.0,0,0,64144,,773.0,,,75.0,68.0,68.0,2.0,1500.0,S-M,0.0,S,M,1.0,2.0,thread,basketball,thread1,basketball2,140.0,51.0,/static/Size_judgement/Stimuli/Size_stims/S/thread/thread7.jpg,/static/Size_judgement/Stimuli/Size_stims/M/basketball/basketball8.jpg,0.0,basketball,thread,M,S,2.0,1.0,basketball2,thread1,1.0,217.273,0.773,0.0,
209,,size_choice_confirmation,,html-keyboard-response,209,295042,0.0-1.0-275.0-0.0,0,0,64144,,,,,,68.0,,2.0,,,,,,,,,,,,,,,,,,,,,,,,,,218.0,0.727,,
210,,iti,,html-keyboard-response,210,296545,0.0-1.0-276.0,0,0,64144,,,,,,68.0,,2.0,,,,,,,,,,,,,,,,,,,,,,,,,,219.5,1.5,,
211,,size_choice,,html-keyboard-response,211,297335,0.0-1.0-278.0,0,0,64144,,786.0,,,75.0,69.0,69.0,2.0,1000.0,S-L,0.0,S,L,1.0,3.0,die,dishwasher,die8,dishwasher3,107.0,22.0,/static/Size_judgement/Stimuli/Size_stims/S/die/die5.jpg,/static/Size_judgement/Stimuli/Size_stims/L/dishwasher/dishwasher8.jpg,0.0,dishwasher,die,L,S,3.0,1.0,dishwasher3,die8,1.0,220.286,0.786,0.0,
212,,size_choice_confirmation,,html-keyboard-response,212,298055,0.0-1.0-279.0-0.0,0,0,64144,,,,,,69.0,,2.0,,,,,,,,,,,,,,,,,,,,,,,,,,221.0,0.714,,
213,,iti,,html-keyboard-response,213,299058,0.0-1.0-280.0,0,0,64144,,,,,,69.0,,2.0,,,,,,,,,,,,,,,,,,,,,,,,,,222.0,1.0,,
214,,size_choice,,html-keyboard-response,214,299809,0.0-1.0-282.0,0,0,64144,,748.0,,,68.0,70.0,70.0,2.0,1500.0,S-XL,1.0,XL,S,4.0,1.0,van,thread,van1,thread9,190.0,148.0,/static/Size_judgement/Stimuli/Size_stims/XL/van/van5.jpg,/static/Size_judgement/Stimuli/Size_stims/S/thread/thread8.jpg,1.0,van,thread,XL,S,4.0,1.0,van1,thread9,1.0,222.748,0.748,0.0,
215,,size_choice_confirmation,,html-keyboard-response,215,300564,0.0-1.0-283.0-0.0,0,0,64144,,,,,,70.0,,2.0,,,,,,,,,,,,,,,,,,,,,,,,,,223.5,0.752,,
216,,iti,,html-keyboard-response,216,302067,0.0-1.0-284.0,0,0,64144,,,,,,70.0,,2.0,,,,,,,,,,,,,,,,,,,,,,,,,,225.0,1.5,,
217,,size_choice,,html-keyboard-response,217,302977,0.0-1.0-286.0,0,0,64144,,904.0,,,75.0,71.0,71.0,2.0,3500.0,M-L,0.0,M,L,2.0,3.0,basketball,deskchair,basketball9,deskchair2,58.0,11.0,/static/Size_judgement/Stimuli/Size_stims/M/basketball/basketball5.jpg,/static/Size_judgement/Stimuli/Size_stims/L/deskchair/deskchair8.jpg,0.0,deskchair,basketball,L,M,3.0,2.0,deskchair2,basketball9,1.0,225.904,0.904,0.0,
218,,size_choice_confirmation,,html-keyboard-response,218,303579,0.0-1.0-287.0-0.0,0,0,64144,,,,,,71.0,,2.0,,,,,,,,,,,,,,,,,,,,,,,,,,226.5,0.596,,
219,,iti,,html-keyboard-response,219,307082,0.0-1.0-288.0,0,0,64144,,,,,,71.0,,2.0,,,,,,,,,,,,,,,,,,,,,,,,,,230.0,3.5,,
220,,size_choice,,html-keyboard-response,220,307878,0.0-1.0-290.0,0,0,64144,,792.0,,,68.0,72.0,72.0,2.0,1000.0,L-XL,1.0,XL,L,4.0,3.0,car,deskchair,car9,deskchair4,158.0,13.0,/static/Size_judgement/Stimuli/Size_stims/XL/car/car15.jpg,/static/Size_judgement/Stimuli/Size_stims/L/deskchair/deskchair6.jpg,1.0,car,deskchair,XL,L,4.0,3.0,car9,deskchair4,1.0,230.792,0.792,0.0,
221,,size_choice_confirmation,,html-keyboard-response,221,308591,0.0-1.0-291.0-0.0,0,0,64144,,,,,,72.0,,2.0,,,,,,,,,,,,,,,,,,,,,,,,,,231.5,0.708,,
222,,iti,,html-keyboard-response,222,309594,0.0-1.0-292.0,0,0,64144,,,,,,72.0,,2.0,,,,,,,,,,,,,,,,,,,,,,,,,,232.5,1.0,,
223,,size_choice,,html-keyboard-response,223,311063,0.0-1.0-294.0,0,0,64144,,1465.0,,,75.0,73.0,73.0,2.0,1500.0,M-M,,M,M,2.0,2.0,hairdryer,basketball,hairdryer3,basketball3,72.0,52.0,/static/Size_judgement/Stimuli/Size_stims/M/hairdryer/hairdryer17.jpg,/static/Size_judgement/Stimuli/Size_stims/M/basketball/basketball10.jpg,0.0,basketball,hairdryer,M,M,2.0,2.0,basketball3,hairdryer3,,233.965,1.465,0.0,
224,,size_choice_confirmation,,html-keyboard-response,224,311102,0.0-1.0-295.0-0.0,0,0,64144,,,,,,73.0,,2.0,,,,,,,,,,,,,,,,,,,,,,,,,,234.0,0.035,,
225,,iti,,html-keyboard-response,225,312605,0.0-1.0-296.0,0,0,64144,,,,,,73.0,,2.0,,,,,,,,,,,,,,,,,,,,,,,,,,235.5,1.5,,
226,,size_choice,,html-keyboard-response,226,313553,0.0-1.0-298.0,0,0,64144,,946.0,,,75.0,74.0,74.0,2.0,1500.0,S-XL,0.0,S,XL,1.0,4.0,paperclip,crane,paperclip10,crane1,119.0,160.0,/static/Size_judgement/Stimuli/Size_stims/S/paperclip/paperclip10.jpg,/static/Size_judgement/Stimuli/Size_stims/XL/crane/crane7.jpg,0.0,crane,paperclip,XL,S,4.0,1.0,crane1,paperclip10,1.0,236.446,0.946,0.0,
227,,size_choice_confirmation,,html-keyboard-response,227,314112,0.0-1.0-299.0-0.0,0,0,64144,,,,,,74.0,,2.0,,,,,,,,,,,,,,,,,,,,,,,,,,237.0,0.554,,
228,,iti,,html-keyboard-response,228,315615,0.0-1.0-300.0,0,0,64144,,,,,,74.0,,2.0,,,,,,,,,,,,,,,,,,,,,,,,,,238.5,1.5,,
229,,size_choice,,html-keyboard-response,229,316696,0.0-1.0-302.0,0,0,64144,,1076.0,,,68.0,75.0,75.0,2.0,1000.0,M-L,1.0,L,M,3.0,2.0,cooler,ketchup,cooler5,ketchup10,4.0,99.0,/static/Size_judgement/Stimuli/Size_stims/L/cooler/cooler10.jpg,/static/Size_judgement/Stimuli/Size_stims/M/ketchup/ketchup6.jpg,1.0,cooler,ketchup,L,M,3.0,2.0,cooler5,ketchup10,1.0,239.576,1.076,0.0,
230,,size_choice_confirmation,,html-keyboard-response,230,317124,0.0-1.0-303.0-0.0,0,0,64144,,,,,,75.0,,2.0,,,,,,,,,,,,,,,,,,,,,,,,,,240.0,0.424,,
231,,iti,,html-keyboard-response,231,318127,0.0-1.0-304.0,0,0,64144,,,,,,75.0,,2.0,,,,,,,,,,,,,,,,,,,,,,,,,,241.0,1.0,,
232,,size_choice,,html-keyboard-response,232,319237,0.0-1.0-306.0,0,0,64144,,1106.0,,,75.0,76.0,76.0,2.0,3000.0,S-S,,S,S,1.0,1.0,screws,die,screws7,die4,126.0,103.0,/static/Size_judgement/Stimuli/Size_stims/S/screws/screws1.jpg,/static/Size_judgement/Stimuli/Size_stims/S/die/die2.jpg,0.0,die,screws,S,S,1.0,1.0,die4,screws7,,242.106,1.106,0.0,
233,,size_choice_confirmation,,html-keyboard-response,233,319636,0.0-1.0-307.0-0.0,0,0,64144,,,,,,76.0,,2.0,,,,,,,,,,,,,,,,,,,,,,,,,,242.5,0.394,,
234,,iti,,html-keyboard-response,234,322639,0.0-1.0-308.0,0,0,64144,,,,,,76.0,,2.0,,,,,,,,,,,,,,,,,,,,,,,,,,245.5,3.0,,
235,,size_choice,,html-keyboard-response,235,323460,0.0-1.0-310.0,0,0,64144,,816.0,,,68.0,77.0,77.0,2.0,1000.0,L-L,,L,L,3.0,3.0,mailbox,cooler,mailbox1,cooler2,40.0,1.0,/static/Size_judgement/Stimuli/Size_stims/L/mailbox/mailbox3.jpg,/static/Size_judgement/Stimuli/Size_stims/L/cooler/cooler9.jpg,1.0,mailbox,cooler,L,L,3.0,3.0,mailbox1,cooler2,,246.316,0.816,0.0,
236,,size_choice_confirmation,,html-keyboard-response,236,324148,0.0-1.0-311.0-0.0,0,0,64144,,,,,,77.0,,2.0,,,,,,,,,,,,,,,,,,,,,,,,,,247.0,0.684,,
237,,iti,,html-keyboard-response,237,325152,0.0-1.0-312.0,0,0,64144,,,,,,77.0,,2.0,,,,,,,,,,,,,,,,,,,,,,,,,,248.0,1.0,,
238,,size_choice,,html-keyboard-response,238,325879,0.0-1.0-314.0,0,0,64144,,722.0,,,68.0,78.0,78.0,2.0,1000.0,S-L,1.0,L,S,3.0,1.0,cooler,paperclip,cooler8,paperclip6,7.0,115.0,/static/Size_judgement/Stimuli/Size_stims/L/cooler/cooler5.jpg,/static/Size_judgement/Stimuli/Size_stims/S/paperclip/paperclip6.jpg,1.0,cooler,paperclip,L,S,3.0,1.0,cooler8,paperclip6,1.0,248.722,0.722,0.0,
239,,size_choice_confirmation,,html-keyboard-response,239,326661,0.0-1.0-315.0-0.0,0,0,64144,,,,,,78.0,,2.0,,,,,,,,,,,,,,,,,,,,,,,,,,249.5,0.778,,
240,,iti,,html-keyboard-response,240,327665,0.0-1.0-316.0,0,0,64144,,,,,,78.0,,2.0,,,,,,,,,,,,,,,,,,,,,,,,,,250.5,1.0,,
241,,size_choice,,html-keyboard-response,241,328530,0.0-1.0-318.0,0,0,64144,,860.0,,,75.0,79.0,79.0,2.0,3000.0,S-XL,0.0,S,XL,1.0,4.0,paperclip,crane,paperclip3,crane2,112.0,161.0,/static/Size_judgement/Stimuli/Size_stims/S/paperclip/paperclip1.jpg,/static/Size_judgement/Stimuli/Size_stims/XL/crane/crane6.jpg,0.0,crane,paperclip,XL,S,4.0,1.0,crane2,paperclip3,1.0,251.36,0.86,0.0,
242,,size_choice_confirmation,,html-keyboard-response,242,329175,0.0-1.0-319.0-0.0,0,0,64144,,,,,,79.0,,2.0,,,,,,,,,,,,,,,,,,,,,,,,,,252.0,0.64,,
243,,iti,,html-keyboard-response,243,332178,0.0-1.0-320.0,0,0,64144,,,,,,79.0,,2.0,,,,,,,,,,,,,,,,,,,,,,,,,,255.0,3.0,,
244,,size_choice,,html-keyboard-response,244,332968,0.0-1.0-322.0,0,0,64144,,785.0,,,75.0,80.0,80.0,2.0,1000.0,M-XL,0.0,M,XL,2.0,4.0,ketchup,van,ketchup1,van2,90.0,191.0,/static/Size_judgement/Stimuli/Size_stims/M/ketchup/ketchup8.jpg,/static/Size_judgement/Stimuli/Size_stims/XL/van/van4.jpg,0.0,van,ketchup,XL,M,4.0,2.0,van2,ketchup1,1.0,255.785,0.785,0.0,
245,,size_choice_confirmation,,html-keyboard-response,245,333688,0.0-1.0-323.0-0.0,0,0,64144,,,,,,80.0,,2.0,,,,,,,,,,,,,,,,,,,,,,,,,,256.5,0.715,,
246,,iti,,html-keyboard-response,246,334690,0.0-1.0-324.0,0,0,64144,,,,,,80.0,,2.0,,,,,,,,,,,,,,,,,,,,,,,,,,257.5,1.0,,
247,,size_choice,,html-keyboard-response,247,335490,0.0-1.0-326.0,0,0,64144,,796.0,,,75.0,81.0,81.0,2.0,3000.0,M-XL,0.0,M,XL,2.0,4.0,coffeemaker,tractor,coffeemaker6,tractor3,65.0,182.0,/static/Size_judgement/Stimuli/Size_stims/M/coffeemaker/coffeemaker8.jpg,/static/Size_judgement/Stimuli/Size_stims/XL/tractor/tractor5.jpg,0.0,tractor,coffeemaker,XL,M,4.0,2.0,tractor3,coffeemaker6,1.0,258.296,0.796,0.0,
248,,size_choice_confirmation,,html-keyboard-response,248,336200,0.0-1.0-327.0-0.0,0,0,64144,,,,,,81.0,,2.0,,,,,,,,,,,,,,,,,,,,,,,,,,259.0,0.704,,
249,,iti,,html-keyboard-response,249,339203,0.0-1.0-328.0,0,0,64144,,,,,,81.0,,2.0,,,,,,,,,,,,,,,,,,,,,,,,,,262.0,3.0,,
250,,size_choice,,html-keyboard-response,250,340143,0.0-1.0-330.0,0,0,64144,,935.0,,,68.0,82.0,82.0,2.0,1000.0,M-L,1.0,L,M,3.0,2.0,dishwasher,basketball,dishwasher6,basketball10,25.0,59.0,/static/Size_judgement/Stimuli/Size_stims/L/dishwasher/dishwasher6.jpg,/static/Size_judgement/Stimuli/Size_stims/M/basketball/basketball4.jpg,1.0,dishwasher,basketball,L,M,3.0,2.0,dishwasher6,basketball10,1.0,262.935,0.935,0.0,
251,,size_choice_confirmation,,html-keyboard-response,251,340712,0.0-1.0-331.0-0.0,0,0,64144,,,,,,82.0,,2.0,,,,,,,,,,,,,,,,,,,,,,,,,,263.5,0.565,,
252,,iti,,html-keyboard-response,252,341716,0.0-1.0-332.0,0,0,64144,,,,,,82.0,,2.0,,,,,,,,,,,,,,,,,,,,,,,,,,264.5,1.0,,
253,,size_choice,,html-keyboard-response,253,342734,0.0-1.0-334.0,0,0,64144,,1014.0,,,68.0,83.0,83.0,2.0,1000.0,M-XL,1.0,XL,M,4.0,2.0,van,hairdryer,van8,hairdryer9,197.0,78.0,/static/Size_judgement/Stimuli/Size_stims/XL/van/van10.jpg,/static/Size_judgement/Stimuli/Size_stims/M/hairdryer/hairdryer5.jpg,1.0,van,hairdryer,XL,M,4.0,2.0,van8,hairdryer9,1.0,265.514,1.014,0.0,
254,,size_choice_confirmation,,html-keyboard-response,254,343225,0.0-1.0-335.0-0.0,0,0,64144,,,,,,83.0,,2.0,,,,,,,,,,,,,,,,,,,,,,,,,,266.0,0.486,,
255,,iti,,html-keyboard-response,255,344228,0.0-1.0-336.0,0,0,64144,,,,,,83.0,,2.0,,,,,,,,,,,,,,,,,,,,,,,,,,267.0,1.0,,
256,,size_choice,,html-keyboard-response,256,345203,0.0-1.0-338.0,0,0,64144,,970.0,,,75.0,84.0,84.0,2.0,1000.0,XL-XL,,XL,XL,4.0,4.0,tractor,dumptruck,tractor5,dumptruck3,184.0,172.0,/static/Size_judgement/Stimuli/Size_stims/XL/tractor/tractor1.jpg,/static/Size_judgement/Stimuli/Size_stims/XL/dumptruck/dumptruck10.jpg,0.0,dumptruck,tractor,XL,XL,4.0,4.0,dumptruck3,tractor5,,267.97,0.97,0.0,
257,,size_choice_confirmation,,html-keyboard-response,257,345738,0.0-1.0-339.0-0.0,0,0,64144,,,,,,84.0,,2.0,,,,,,,,,,,,,,,,,,,,,,,,,,268.5,0.53,,
258,,iti,,html-keyboard-response,258,346741,0.0-1.0-340.0,0,0,64144,,,,,,84.0,,2.0,,,,,,,,,,,,,,,,,,,,,,,,,,269.5,1.0,,
259,,size_choice,,html-keyboard-response,259,347813,0.0-1.0-342.0,0,0,64144,,1068.0,,,68.0,85.0,85.0,2.0,1000.0,M-L,1.0,L,M,3.0,2.0,mailbox,basketball,mailbox7,basketball1,46.0,50.0,/static/Size_judgement/Stimuli/Size_stims/L/mailbox/mailbox7.jpg,/static/Size_judgement/Stimuli/Size_stims/M/basketball/basketball9.jpg,1.0,mailbox,basketball,L,M,3.0,2.0,mailbox7,basketball1,1.0,270.568,1.068,0.0,
260,,size_choice_confirmation,,html-keyboard-response,260,348249,0.0-1.0-343.0-0.0,0,0,64144,,,,,,85.0,,2.0,,,,,,,,,,,,,,,,,,,,,,,,,,271.0,0.432,,
261,,iti,,html-keyboard-response,261,349252,0.0-1.0-344.0,0,0,64144,,,,,,85.0,,2.0,,,,,,,,,,,,,,,,,,,,,,,,,,272.0,1.0,,
262,,size_choice,,html-keyboard-response,262,350078,0.0-1.0-346.0,0,0,64144,,821.0,,,68.0,86.0,86.0,2.0,1500.0,S-XL,1.0,XL,S,4.0,1.0,dumptruck,screws,dumptruck6,screws8,175.0,127.0,/static/Size_judgement/Stimuli/Size_stims/XL/dumptruck/dumptruck2.jpg,/static/Size_judgement/Stimuli/Size_stims/S/screws/screws10.jpg,1.0,dumptruck,screws,XL,S,4.0,1.0,dumptruck6,screws8,1.0,272.821,0.821,0.0,
263,,size_choice_confirmation,,html-keyboard-response,263,350762,0.0-1.0-347.0-0.0,0,0,64144,,,,,,86.0,,2.0,,,,,,,,,,,,,,,,,,,,,,,,,,273.5,0.679,,
264,,iti,,html-keyboard-response,264,352266,0.0-1.0-348.0,0,0,64144,,,,,,86.0,,2.0,,,,,,,,,,,,,,,,,,,,,,,,,,275.0,1.5,,
265,,size_choice,,html-keyboard-response,265,352951,0.0-1.0-350.0,0,0,64144,,681.0,,,68.0,87.0,87.0,2.0,1500.0,L-XL,1.0,XL,L,4.0,3.0,car,deskchair,car7,deskchair8,156.0,17.0,/static/Size_judgement/Stimuli/Size_stims/XL/car/car13.jpg,/static/Size_judgement/Stimuli/Size_stims/L/deskchair/deskchair1.jpg,1.0,car,deskchair,XL,L,4.0,3.0,car7,deskchair8,1.0,275.681,0.681,0.0,
266,,size_choice_confirmation,,html-keyboard-response,266,353774,0.0-1.0-351.0-0.0,0,0,64144,,,,,,87.0,,2.0,,,,,,,,,,,,,,,,,,,,,,,,,,276.5,0.819,,
267,,iti,,html-keyboard-response,267,355277,0.0-1.0-352.0,0,0,64144,,,,,,87.0,,2.0,,,,,,,,,,,,,,,,,,,,,,,,,,278.0,1.5,,
268,,size_choice,,html-keyboard-response,268,355999,0.0-1.0-354.0,0,0,64144,,717.0,,,68.0,88.0,88.0,2.0,1000.0,M-L,1.0,L,M,3.0,2.0,garbagecan,hairdryer,garbagecan10,hairdryer7,39.0,76.0,/static/Size_judgement/Stimuli/Size_stims/L/garbagecan/garbagecan11.jpg,/static/Size_judgement/Stimuli/Size_stims/M/hairdryer/hairdryer3.jpg,1.0,garbagecan,hairdryer,L,M,3.0,2.0,garbagecan10,hairdryer7,1.0,278.717,0.717,0.0,
269,,size_choice_confirmation,,html-keyboard-response,269,356786,0.0-1.0-355.0-0.0,0,0,64144,,,,,,88.0,,2.0,,,,,,,,,,,,,,,,,,,,,,,,,,279.5,0.783,,
270,,iti,,html-keyboard-response,270,357790,0.0-1.0-356.0,0,0,64144,,,,,,88.0,,2.0,,,,,,,,,,,,,,,,,,,,,,,,,,280.5,1.0,,
271,,size_choice,,html-keyboard-response,271,358338,0.0-1.0-358.0,0,0,64144,,544.0,,,75.0,89.0,89.0,2.0,2000.0,M-XL,0.0,M,XL,2.0,4.0,handsaw,car,handsaw5,car10,84.0,159.0,/static/Size_judgement/Stimuli/Size_stims/M/handsaw/handsaw1.jpg,/static/Size_judgement/Stimuli/Size_stims/XL/car/car9.jpg,0.0,car,handsaw,XL,M,4.0,2.0,car10,handsaw5,1.0,281.044,0.544,0.0,
272,,size_choice_confirmation,,html-keyboard-response,272,359299,0.0-1.0-359.0-0.0,0,0,64144,,,,,,89.0,,2.0,,,,,,,,,,,,,,,,,,,,,,,,,,282.0,0.956,,
273,,iti,,html-keyboard-response,273,361302,0.0-1.0-360.0,0,0,64144,,,,,,89.0,,2.0,,,,,,,,,,,,,,,,,,,,,,,,,,284.0,2.0,,0.91
274,,size_final_tally,,html-keyboard-response,274,364434,0.0-2.0,0,0,64144,,3127.0,,,68.0,,,,,,,,,,,,,,,,,,,,,,,,,,,,,,,,
