,success,ttype,start_time,trial_type,trial_index,time_elapsed,internal_node_id,warning,missed_checkup,PID,view_history,rt,responses,repeat_instructions,key_press,index,trial_num,block,iti,pair_type,high_size_on_left,left_size_group,right_size_group,left_size_num,right_size_num,left_category,right_category,left_exemplar,right_exemplar,left_index,right_index,left_img_path,right_img_path,left_chosen,chosen_category,unchosen_category,chosen_size_group,unchosen_size_group,chosen_size_num,unchosen_size_num,chosen_exemplar,unchosen_exemplar,accuracy,onset,duration,no_response,size_final_tally
0,True,full_screen,d06032022hr1806,fullscreen,0,3351,0.0-0.0,0,0,60382,,,,,,,,,,,,,,,,,,,,,,,,,,,,,,,,,,,,,
1,,size_instructions,,instructions,1,29098,0.0-1.0-0.0-0.0,0,0,60382,"[{""page_index"":0,""viewing_time"":4224},{""page_index"":1,""viewing_time"":4871},{""page_index"":2,""viewing_time"":1125},{""page_index"":3,""viewing_time"":2621},{""page_index"":4,""viewing_time"":11510},{""page_index"":5,""viewing_time"":1394}]",25746.0,,,,,,,,,,,,,,,,,,,,,,,,,,,,,,,,,,,
2,,size_comprehension_check,,survey-multi-choice,2,54417,0.0-1.0-0.0-1.0,0,0,60382,,25316.0,"{""Q0"":""True"",""Q1"":""Size in the real world"",""Q2"":""True"",""Q3"":""D for left and K for right""}",0.0,,,,,,,,,,,,,,,,,,,,,,,,,,,,,,,,,
3,,,,html-keyboard-response,3,55862,0.0-1.0-1.0,0,0,60382,,1443.0,,,68.0,,,,,,,,,,,,,,,,,,,,,,,,,,,,,,,,
4,,size_choice,,html-keyboard-response,4,56648,0.0-1.0-2.0,0,0,60382,,781.0,,,68.0,0.0,0.0,1.0,1000.0,L-L,,L,L,3.0,3.0,dishwasher,garbagecan,dishwasher9,garbagecan9,28.0,38.0,/static/Size_judgement/Stimuli/Size_stims/L/dishwasher/dishwasher2.jpg,/static/Size_judgement/Stimuli/Size_stims/L/garbagecan/garbagecan12.jpg,1.0,dishwasher,garbagecan,L,L,3.0,3.0,dishwasher9,garbagecan9,,0.781,0.781,0.0,
5,,size_choice_confirmation,,html-keyboard-response,5,57369,0.0-1.0-3.0-0.0,0,0,60382,,,,,,0.0,,,,,,,,,,,,,,,,,,,,,,,,,,,,1.5,0.719,,
6,,iti,,html-keyboard-response,6,58371,0.0-1.0-4.0,0,0,60382,,,,,,,,,,,,,,,,,,,,,,,,,,,,,,,,,,2.5,1.0,,
7,,size_choice,,html-keyboard-response,7,58821,0.0-1.0-6.0,0,0,60382,,449.0,,,75.0,1.0,1.0,1.0,1000.0,M-M,,M,M,2.0,2.0,handsaw,hairdryer,handsaw1,hairdryer2,80.0,71.0,/static/Size_judgement/Stimuli/Size_stims/M/handsaw/handsaw8.jpg,/static/Size_judgement/Stimuli/Size_stims/M/hairdryer/hairdryer12.jpg,0.0,hairdryer,handsaw,M,M,2.0,2.0,hairdryer2,handsaw1,,2.949,0.449,0.0,
8,,size_choice_confirmation,,html-keyboard-response,8,59876,0.0-1.0-7.0-0.0,0,0,60382,,,,,,1.0,,,,,,,,,,,,,,,,,,,,,,,,,,,,4.0,1.051,,
9,,iti,,html-keyboard-response,9,60879,0.0-1.0-8.0,0,0,60382,,,,,,,,,,,,,,,,,,,,,,,,,,,,,,,,,,5.0,1.0,,
10,,size_choice,,html-keyboard-response,10,61142,0.0-1.0-10.0,0,0,60382,,261.0,,,68.0,2.0,2.0,1.0,1500.0,S-XL,0.0,S,XL,1.0,4.0,teabag,dumptruck,teabag7,dumptruck8,136.0,177.0,/static/Size_judgement/Stimuli/Size_stims/S/teabag/teabag10.jpg,/static/Size_judgement/Stimuli/Size_stims/XL/dumptruck/dumptruck7.jpg,1.0,teabag,dumptruck,S,XL,1.0,4.0,teabag7,dumptruck8,0.0,5.261,0.261,0.0,
11,,size_choice_confirmation,,html-keyboard-response,11,62386,0.0-1.0-11.0-0.0,0,0,60382,,,,,,2.0,,,,,,,,,,,,,,,,,,,,,,,,,,,,6.5,1.239,,
12,,iti,,html-keyboard-response,12,63888,0.0-1.0-12.0,0,0,60382,,,,,,,,,,,,,,,,,,,,,,,,,,,,,,,,,,8.0,1.5,,
13,,size_choice,,html-keyboard-response,13,64204,0.0-1.0-14.0,0,0,60382,,314.0,,,68.0,3.0,3.0,1.0,2000.0,S-M,1.0,M,S,2.0,1.0,hairdryer,screws,hairdryer5,screws5,74.0,124.0,/static/Size_judgement/Stimuli/Size_stims/M/hairdryer/hairdryer15.jpg,/static/Size_judgement/Stimuli/Size_stims/S/screws/screws2.jpg,1.0,hairdryer,screws,M,S,2.0,1.0,hairdryer5,screws5,1.0,8.314,0.314,0.0,
14,,size_choice_confirmation,,html-keyboard-response,14,65396,0.0-1.0-15.0-0.0,0,0,60382,,,,,,3.0,,,,,,,,,,,,,,,,,,,,,,,,,,,,9.5,1.186,,
15,,iti,,html-keyboard-response,15,67399,0.0-1.0-16.0,0,0,60382,,,,,,,,,,,,,,,,,,,,,,,,,,,,,,,,,,11.5,2.0,,
16,,size_choice,,html-keyboard-response,16,67698,0.0-1.0-18.0,0,0,60382,,296.0,,,68.0,4.0,4.0,1.0,3500.0,S-XL,0.0,S,XL,1.0,4.0,teabag,car,teabag4,car9,133.0,158.0,/static/Size_judgement/Stimuli/Size_stims/S/teabag/teabag3.jpg,/static/Size_judgement/Stimuli/Size_stims/XL/car/car15.jpg,1.0,teabag,car,S,XL,1.0,4.0,teabag4,car9,0.0,11.796,0.296,0.0,
17,,size_choice_confirmation,,html-keyboard-response,17,68906,0.0-1.0-19.0-0.0,0,0,60382,,,,,,4.0,,,,,,,,,,,,,,,,,,,,,,,,,,,,13.0,1.204,,
18,,iti,,html-keyboard-response,18,72409,0.0-1.0-20.0,0,0,60382,,,,,,,,,,,,,,,,,,,,,,,,,,,,,,,,,,16.5,3.5,,
19,,size_choice,,html-keyboard-response,19,72877,0.0-1.0-22.0,0,0,60382,,466.0,,,75.0,5.0,5.0,1.0,1500.0,M-L,1.0,L,M,3.0,2.0,cooler,handsaw,cooler10,handsaw7,9.0,86.0,/static/Size_judgement/Stimuli/Size_stims/L/cooler/cooler6.jpg,/static/Size_judgement/Stimuli/Size_stims/M/handsaw/handsaw5.jpg,0.0,handsaw,cooler,M,L,2.0,3.0,handsaw7,cooler10,0.0,16.966,0.466,0.0,
20,,size_choice_confirmation,,html-keyboard-response,20,73914,0.0-1.0-23.0-0.0,0,0,60382,,,,,,5.0,,,,,,,,,,,,,,,,,,,,,,,,,,,,18.0,1.034,,
21,,iti,,html-keyboard-response,21,75416,0.0-1.0-24.0,0,0,60382,,,,,,,,,,,,,,,,,,,,,,,,,,,,,,,,,,19.5,1.5,,
22,,size_choice,,html-keyboard-response,22,75683,0.0-1.0-26.0,0,0,60382,,265.0,,,75.0,6.0,6.0,1.0,2000.0,M-XL,0.0,M,XL,2.0,4.0,basketball,crane,basketball10,crane9,59.0,168.0,/static/Size_judgement/Stimuli/Size_stims/M/basketball/basketball4.jpg,/static/Size_judgement/Stimuli/Size_stims/XL/crane/crane8.jpg,0.0,crane,basketball,XL,M,4.0,2.0,crane9,basketball10,1.0,19.765,0.265,0.0,
23,,size_choice_confirmation,,html-keyboard-response,23,76920,0.0-1.0-27.0-0.0,0,0,60382,,,,,,6.0,,,,,,,,,,,,,,,,,,,,,,,,,,,,21.0,1.235,,
24,,iti,,html-keyboard-response,24,78925,0.0-1.0-28.0,0,0,60382,,,,,,,,,,,,,,,,,,,,,,,,,,,,,,,,,,23.0,2.0,,
25,,size_choice,,html-keyboard-response,25,79519,0.0-1.0-30.0,0,0,60382,,591.0,,,75.0,7.0,7.0,1.0,3000.0,M-XL,0.0,M,XL,2.0,4.0,hairdryer,dumptruck,hairdryer7,dumptruck6,76.0,175.0,/static/Size_judgement/Stimuli/Size_stims/M/hairdryer/hairdryer3.jpg,/static/Size_judgement/Stimuli/Size_stims/XL/dumptruck/dumptruck2.jpg,0.0,dumptruck,hairdryer,XL,M,4.0,2.0,dumptruck6,hairdryer7,1.0,23.591,0.591,0.0,
26,,size_choice_confirmation,,html-keyboard-response,26,80432,0.0-1.0-31.0-0.0,0,0,60382,,,,,,7.0,,,,,,,,,,,,,,,,,,,,,,,,,,,,24.5,0.909,,
27,,iti,,html-keyboard-response,27,83433,0.0-1.0-32.0,0,0,60382,,,,,,,,,,,,,,,,,,,,,,,,,,,,,,,,,,27.5,3.0,,
28,,size_choice,,html-keyboard-response,28,83914,0.0-1.0-34.0,0,0,60382,,480.0,,,75.0,8.0,8.0,1.0,2000.0,XL-XL,,XL,XL,4.0,4.0,van,crane,van2,crane8,191.0,167.0,/static/Size_judgement/Stimuli/Size_stims/XL/van/van4.jpg,/static/Size_judgement/Stimuli/Size_stims/XL/crane/crane10.jpg,0.0,crane,van,XL,XL,4.0,4.0,crane8,van2,,27.98,0.48,0.0,
29,,size_choice_confirmation,,html-keyboard-response,29,84938,0.0-1.0-35.0-0.0,0,0,60382,,,,,,8.0,,,,,,,,,,,,,,,,,,,,,,,,,,,,29.0,1.02,,
30,,iti,,html-keyboard-response,30,86941,0.0-1.0-36.0,0,0,60382,,,,,,,,,,,,,,,,,,,,,,,,,,,,,,,,,,31.0,2.0,,
31,,size_choice,,html-keyboard-response,31,87526,0.0-1.0-38.0,0,0,60382,,580.0,,,68.0,9.0,9.0,1.0,2000.0,L-L,,L,L,3.0,3.0,dishwasher,cooler,dishwasher7,cooler8,26.0,7.0,/static/Size_judgement/Stimuli/Size_stims/L/dishwasher/dishwasher7.jpg,/static/Size_judgement/Stimuli/Size_stims/L/cooler/cooler5.jpg,1.0,dishwasher,cooler,L,L,3.0,3.0,dishwasher7,cooler8,,31.58,0.58,0.0,
32,,size_choice_confirmation,,html-keyboard-response,32,88452,0.0-1.0-39.0-0.0,0,0,60382,,,,,,9.0,,,,,,,,,,,,,,,,,,,,,,,,,,,,32.5,0.92,,
33,,iti,,html-keyboard-response,33,90454,0.0-1.0-40.0,0,0,60382,,,,,,,,,,,,,,,,,,,,,,,,,,,,,,,,,,34.5,2.0,,
34,,size_choice,,html-keyboard-response,34,91189,0.0-1.0-42.0,0,0,60382,,733.0,,,68.0,10.0,10.0,1.0,1000.0,M-L,1.0,L,M,3.0,2.0,garbagecan,basketball,garbagecan4,basketball4,33.0,53.0,/static/Size_judgement/Stimuli/Size_stims/L/garbagecan/garbagecan6.jpg,/static/Size_judgement/Stimuli/Size_stims/M/basketball/basketball1.jpg,1.0,garbagecan,basketball,L,M,3.0,2.0,garbagecan4,basketball4,1.0,35.233,0.733,0.0,
35,,size_choice_confirmation,,html-keyboard-response,35,91959,0.0-1.0-43.0-0.0,0,0,60382,,,,,,10.0,,,,,,,,,,,,,,,,,,,,,,,,,,,,36.0,0.767,,
36,,iti,,html-keyboard-response,36,92962,0.0-1.0-44.0,0,0,60382,,,,,,,,,,,,,,,,,,,,,,,,,,,,,,,,,,37.0,1.0,,
37,,size_choice,,html-keyboard-response,37,94037,0.0-1.0-46.0,0,0,60382,,1072.0,,,68.0,11.0,11.0,1.0,1000.0,S-L,1.0,L,S,3.0,1.0,dishwasher,screws,dishwasher8,screws8,27.0,127.0,/static/Size_judgement/Stimuli/Size_stims/L/dishwasher/dishwasher3.jpg,/static/Size_judgement/Stimuli/Size_stims/S/screws/screws10.jpg,1.0,dishwasher,screws,L,S,3.0,1.0,dishwasher8,screws8,1.0,38.072,1.072,0.0,
38,,size_choice_confirmation,,html-keyboard-response,38,94467,0.0-1.0-47.0-0.0,0,0,60382,,,,,,11.0,,,,,,,,,,,,,,,,,,,,,,,,,,,,38.5,0.428,,
39,,iti,,html-keyboard-response,39,95470,0.0-1.0-48.0,0,0,60382,,,,,,,,,,,,,,,,,,,,,,,,,,,,,,,,,,39.5,1.0,,
40,,size_choice,,html-keyboard-response,40,96124,0.0-1.0-50.0,0,0,60382,,650.0,,,75.0,12.0,12.0,1.0,1000.0,L-XL,1.0,XL,L,4.0,3.0,tractor,deskchair,tractor6,deskchair5,185.0,14.0,/static/Size_judgement/Stimuli/Size_stims/XL/tractor/tractor3.jpg,/static/Size_judgement/Stimuli/Size_stims/L/deskchair/deskchair7.jpg,0.0,deskchair,tractor,L,XL,3.0,4.0,deskchair5,tractor6,0.0,40.15,0.65,0.0,
41,,size_choice_confirmation,,html-keyboard-response,41,96976,0.0-1.0-51.0-0.0,0,0,60382,,,,,,12.0,,,,,,,,,,,,,,,,,,,,,,,,,,,,41.0,0.85,,
42,,iti,,html-keyboard-response,42,97978,0.0-1.0-52.0,0,0,60382,,,,,,,,,,,,,,,,,,,,,,,,,,,,,,,,,,42.0,1.0,,
43,,size_choice,,html-keyboard-response,43,98799,0.0-1.0-54.0,0,0,60382,,820.0,,,75.0,13.0,13.0,1.0,1000.0,S-S,,S,S,1.0,1.0,thread,die,thread10,die1,149.0,100.0,/static/Size_judgement/Stimuli/Size_stims/S/thread/thread9.jpg,/static/Size_judgement/Stimuli/Size_stims/S/die/die8.jpg,0.0,die,thread,S,S,1.0,1.0,die1,thread10,,42.82,0.82,0.0,
44,,size_choice_confirmation,,html-keyboard-response,44,99483,0.0-1.0-55.0-0.0,0,0,60382,,,,,,13.0,,,,,,,,,,,,,,,,,,,,,,,,,,,,43.5,0.68,,
45,,iti,,html-keyboard-response,45,100485,0.0-1.0-56.0,0,0,60382,,,,,,,,,,,,,,,,,,,,,,,,,,,,,,,,,,44.5,1.0,,
46,,size_choice,,html-keyboard-response,46,101132,0.0-1.0-58.0,0,0,60382,,645.0,,,75.0,14.0,14.0,1.0,1000.0,M-XL,0.0,M,XL,2.0,4.0,coffeemaker,tractor,coffeemaker4,tractor4,63.0,183.0,/static/Size_judgement/Stimuli/Size_stims/M/coffeemaker/coffeemaker11.jpg,/static/Size_judgement/Stimuli/Size_stims/XL/tractor/tractor4.jpg,0.0,tractor,coffeemaker,XL,M,4.0,2.0,tractor4,coffeemaker4,1.0,45.145,0.645,0.0,
47,,size_choice_confirmation,,html-keyboard-response,47,101990,0.0-1.0-59.0-0.0,0,0,60382,,,,,,14.0,,,,,,,,,,,,,,,,,,,,,,,,,,,,46.0,0.855,,
48,,iti,,html-keyboard-response,48,102992,0.0-1.0-60.0,0,0,60382,,,,,,,,,,,,,,,,,,,,,,,,,,,,,,,,,,47.0,1.0,,
49,,size_choice,,html-keyboard-response,49,103412,0.0-1.0-62.0,0,0,60382,,419.0,,,68.0,15.0,15.0,1.0,3500.0,M-XL,0.0,M,XL,2.0,4.0,handsaw,van,handsaw5,van10,84.0,199.0,/static/Size_judgement/Stimuli/Size_stims/M/handsaw/handsaw1.jpg,/static/Size_judgement/Stimuli/Size_stims/XL/van/van8.jpg,1.0,handsaw,van,M,XL,2.0,4.0,handsaw5,van10,0.0,47.419,0.419,0.0,
50,,size_choice_confirmation,,html-keyboard-response,50,104496,0.0-1.0-63.0-0.0,0,0,60382,,,,,,15.0,,,,,,,,,,,,,,,,,,,,,,,,,,,,48.5,1.081,,
51,,iti,,html-keyboard-response,51,107998,0.0-1.0-64.0,0,0,60382,,,,,,,,,,,,,,,,,,,,,,,,,,,,,,,,,,52.0,3.5,,
52,,size_choice,,html-keyboard-response,52,108591,0.0-1.0-66.0,0,0,60382,,591.0,,,75.0,16.0,16.0,1.0,1500.0,XL-XL,,XL,XL,4.0,4.0,dumptruck,car,dumptruck2,car6,171.0,155.0,/static/Size_judgement/Stimuli/Size_stims/XL/dumptruck/dumptruck8.jpg,/static/Size_judgement/Stimuli/Size_stims/XL/car/car12.jpg,0.0,car,dumptruck,XL,XL,4.0,4.0,car6,dumptruck2,,52.591,0.591,0.0,
53,,size_choice_confirmation,,html-keyboard-response,53,109502,0.0-1.0-67.0-0.0,0,0,60382,,,,,,16.0,,,,,,,,,,,,,,,,,,,,,,,,,,,,53.5,0.909,,
54,,iti,,html-keyboard-response,54,111041,0.0-1.0-68.0,0,0,60382,,,,,,,,,,,,,,,,,,,,,,,,,,,,,,,,,,55.0,1.5,,
55,,size_choice,,html-keyboard-response,55,111643,0.0-1.0-70.0,0,0,60382,,599.0,,,68.0,17.0,17.0,1.0,1500.0,S-XL,1.0,XL,S,4.0,1.0,van,screws,van1,screws6,190.0,125.0,/static/Size_judgement/Stimuli/Size_stims/XL/van/van5.jpg,/static/Size_judgement/Stimuli/Size_stims/S/screws/screws3.jpg,1.0,van,screws,XL,S,4.0,1.0,van1,screws6,1.0,55.599,0.599,0.0,
56,,size_choice_confirmation,,html-keyboard-response,56,112546,0.0-1.0-71.0-0.0,0,0,60382,,,,,,17.0,,,,,,,,,,,,,,,,,,,,,,,,,,,,56.5,0.901,,
57,,iti,,html-keyboard-response,57,114048,0.0-1.0-72.0,0,0,60382,,,,,,,,,,,,,,,,,,,,,,,,,,,,,,,,,,58.0,1.5,,
58,,size_choice,,html-keyboard-response,58,114665,0.0-1.0-74.0,0,0,60382,,614.0,,,68.0,18.0,18.0,1.0,3500.0,M-XL,1.0,XL,M,4.0,2.0,car,basketball,car5,basketball8,154.0,57.0,/static/Size_judgement/Stimuli/Size_stims/XL/car/car11.jpg,/static/Size_judgement/Stimuli/Size_stims/M/basketball/basketball7.jpg,1.0,car,basketball,XL,M,4.0,2.0,car5,basketball8,1.0,58.614,0.614,0.0,
59,,size_choice_confirmation,,html-keyboard-response,59,115555,0.0-1.0-75.0-0.0,0,0,60382,,,,,,18.0,,,,,,,,,,,,,,,,,,,,,,,,,,,,59.5,0.886,,
60,,iti,,html-keyboard-response,60,119057,0.0-1.0-76.0,0,0,60382,,,,,,,,,,,,,,,,,,,,,,,,,,,,,,,,,,63.0,3.5,,
61,,size_choice,,html-keyboard-response,61,119360,0.0-1.0-78.0,0,0,60382,,298.0,,,68.0,19.0,19.0,1.0,1500.0,S-L,1.0,L,S,3.0,1.0,cooler,thread,cooler7,thread7,6.0,146.0,/static/Size_judgement/Stimuli/Size_stims/L/cooler/cooler4.jpg,/static/Size_judgement/Stimuli/Size_stims/S/thread/thread3.jpg,1.0,cooler,thread,L,S,3.0,1.0,cooler7,thread7,1.0,63.298,0.298,0.0,
62,,size_choice_confirmation,,html-keyboard-response,62,120565,0.0-1.0-79.0-0.0,0,0,60382,,,,,,19.0,,,,,,,,,,,,,,,,,,,,,,,,,,,,64.5,1.202,,
63,,iti,,html-keyboard-response,63,122067,0.0-1.0-80.0,0,0,60382,,,,,,,,,,,,,,,,,,,,,,,,,,,,,,,,,,66.0,1.5,,
64,,size_choice,,html-keyboard-response,64,123325,0.0-1.0-82.0,0,0,60382,,1254.0,,,68.0,20.0,20.0,1.0,1000.0,S-S,,S,S,1.0,1.0,paperclip,teabag,paperclip8,teabag9,117.0,138.0,/static/Size_judgement/Stimuli/Size_stims/S/paperclip/paperclip5.jpg,/static/Size_judgement/Stimuli/Size_stims/S/teabag/teabag5.jpg,1.0,paperclip,teabag,S,S,1.0,1.0,paperclip8,teabag9,,67.254,1.254,0.0,
65,,size_choice_confirmation,,html-keyboard-response,65,123576,0.0-1.0-83.0-0.0,0,0,60382,,,,,,20.0,,,,,,,,,,,,,,,,,,,,,,,,,,,,67.5,0.246,,
66,,iti,,html-keyboard-response,66,124578,0.0-1.0-84.0,0,0,60382,,,,,,,,,,,,,,,,,,,,,,,,,,,,,,,,,,68.5,1.0,,
67,,size_choice,,html-keyboard-response,67,126081,0.0-1.0-86.0,0,0,60382,,,,,,21.0,21.0,1.0,1000.0,S-S,,S,S,1.0,1.0,die,paperclip,die6,paperclip6,105.0,115.0,/static/Size_judgement/Stimuli/Size_stims/S/die/die1.jpg,/static/Size_judgement/Stimuli/Size_stims/S/paperclip/paperclip6.jpg,,,,,,,,,,,70.0,1.5,1.0,
68,,iti,,html-keyboard-response,68,127084,0.0-1.0-88.0,0,0,60382,,,,,,,,,,,,,,,,,,,,,,,,,,,,,,,,,,71.0,1.0,,
69,,size_choice,,html-keyboard-response,69,127616,0.0-1.0-90.0,0,0,60382,,531.0,,,68.0,22.0,22.0,1.0,1000.0,L-XL,0.0,L,XL,3.0,4.0,dishwasher,dumptruck,dishwasher3,dumptruck3,22.0,172.0,/static/Size_judgement/Stimuli/Size_stims/L/dishwasher/dishwasher8.jpg,/static/Size_judgement/Stimuli/Size_stims/XL/dumptruck/dumptruck10.jpg,1.0,dishwasher,dumptruck,L,XL,3.0,4.0,dishwasher3,dumptruck3,0.0,71.531,0.531,0.0,
70,,size_choice_confirmation,,html-keyboard-response,70,128588,0.0-1.0-91.0-0.0,0,0,60382,,,,,,22.0,,,,,,,,,,,,,,,,,,,,,,,,,,,,72.5,0.969,,
71,,iti,,html-keyboard-response,71,129598,0.0-1.0-92.0,0,0,60382,,,,,,,,,,,,,,,,,,,,,,,,,,,,,,,,,,73.5,1.0,,
72,,size_choice,,html-keyboard-response,72,130208,0.0-1.0-94.0,0,0,60382,,607.0,,,68.0,23.0,23.0,1.0,3000.0,M-M,,M,M,2.0,2.0,handsaw,hairdryer,handsaw8,hairdryer3,87.0,72.0,/static/Size_judgement/Stimuli/Size_stims/M/handsaw/handsaw7.jpg,/static/Size_judgement/Stimuli/Size_stims/M/hairdryer/hairdryer17.jpg,1.0,handsaw,hairdryer,M,M,2.0,2.0,handsaw8,hairdryer3,,74.107,0.607,0.0,
73,,size_choice_confirmation,,html-keyboard-response,73,131103,0.0-1.0-95.0-0.0,0,0,60382,,,,,,23.0,,,,,,,,,,,,,,,,,,,,,,,,,,,,75.0,0.893,,
74,,iti,,html-keyboard-response,74,134105,0.0-1.0-96.0,0,0,60382,,,,,,,,,,,,,,,,,,,,,,,,,,,,,,,,,,78.0,3.0,,
75,,size_choice,,html-keyboard-response,75,134945,0.0-1.0-98.0,0,0,60382,,837.0,,,68.0,24.0,24.0,1.0,1000.0,S-M,1.0,M,S,2.0,1.0,basketball,paperclip,basketball2,paperclip10,51.0,119.0,/static/Size_judgement/Stimuli/Size_stims/M/basketball/basketball8.jpg,/static/Size_judgement/Stimuli/Size_stims/S/paperclip/paperclip10.jpg,1.0,basketball,paperclip,M,S,2.0,1.0,basketball2,paperclip10,1.0,78.837,0.837,0.0,
76,,size_choice_confirmation,,html-keyboard-response,76,135612,0.0-1.0-99.0-0.0,0,0,60382,,,,,,24.0,,,,,,,,,,,,,,,,,,,,,,,,,,,,79.5,0.663,,
77,,iti,,html-keyboard-response,77,136613,0.0-1.0-100.0,0,0,60382,,,,,,,,,,,,,,,,,,,,,,,,,,,,,,,,,,80.5,1.0,,
78,,size_choice,,html-keyboard-response,78,137322,0.0-1.0-102.0,0,0,60382,,706.0,,,68.0,25.0,25.0,1.0,2000.0,S-L,1.0,L,S,3.0,1.0,dishwasher,paperclip,dishwasher10,paperclip9,29.0,118.0,/static/Size_judgement/Stimuli/Size_stims/L/dishwasher/dishwasher1.jpg,/static/Size_judgement/Stimuli/Size_stims/S/paperclip/paperclip4.jpg,1.0,dishwasher,paperclip,L,S,3.0,1.0,dishwasher10,paperclip9,1.0,81.206,0.706,0.0,
79,,size_choice_confirmation,,html-keyboard-response,79,138121,0.0-1.0-103.0-0.0,0,0,60382,,,,,,25.0,,,,,,,,,,,,,,,,,,,,,,,,,,,,82.0,0.794,,
80,,iti,,html-keyboard-response,80,140122,0.0-1.0-104.0,0,0,60382,,,,,,,,,,,,,,,,,,,,,,,,,,,,,,,,,,84.0,2.0,,
81,,size_choice,,html-keyboard-response,81,140555,0.0-1.0-106.0,0,0,60382,,431.0,,,68.0,26.0,26.0,1.0,3000.0,S-L,1.0,L,S,3.0,1.0,deskchair,thread,deskchair10,thread2,19.0,141.0,/static/Size_judgement/Stimuli/Size_stims/L/deskchair/deskchair2.jpg,/static/Size_judgement/Stimuli/Size_stims/S/thread/thread6.jpg,1.0,deskchair,thread,L,S,3.0,1.0,deskchair10,thread2,1.0,84.431,0.431,0.0,
82,,size_choice_confirmation,,html-keyboard-response,82,141626,0.0-1.0-107.0-0.0,0,0,60382,,,,,,26.0,,,,,,,,,,,,,,,,,,,,,,,,,,,,85.5,1.069,,
83,,iti,,html-keyboard-response,83,144629,0.0-1.0-108.0,0,0,60382,,,,,,,,,,,,,,,,,,,,,,,,,,,,,,,,,,88.5,3.0,,
84,,size_choice,,html-keyboard-response,84,145279,0.0-1.0-110.0,0,0,60382,,647.0,,,75.0,27.0,27.0,1.0,1000.0,L-L,,L,L,3.0,3.0,mailbox,garbagecan,mailbox5,garbagecan8,44.0,37.0,/static/Size_judgement/Stimuli/Size_stims/L/mailbox/mailbox4.jpg,/static/Size_judgement/Stimuli/Size_stims/L/garbagecan/garbagecan13.jpg,0.0,garbagecan,mailbox,L,L,3.0,3.0,garbagecan8,mailbox5,,89.147,0.647,0.0,
85,,size_choice_confirmation,,html-keyboard-response,85,146135,0.0-1.0-111.0-0.0,0,0,60382,,,,,,27.0,,,,,,,,,,,,,,,,,,,,,,,,,,,,90.0,0.853,,
86,,iti,,html-keyboard-response,86,147137,0.0-1.0-112.0,0,0,60382,,,,,,,,,,,,,,,,,,,,,,,,,,,,,,,,,,91.0,1.0,,
87,,size_choice,,html-keyboard-response,87,147852,0.0-1.0-114.0,0,0,60382,,712.0,,,75.0,28.0,28.0,1.0,2000.0,M-L,0.0,M,L,2.0,3.0,ketchup,mailbox,ketchup2,mailbox9,91.0,48.0,/static/Size_judgement/Stimuli/Size_stims/M/ketchup/ketchup9.jpg,/static/Size_judgement/Stimuli/Size_stims/L/mailbox/mailbox9.jpg,0.0,mailbox,ketchup,L,M,3.0,2.0,mailbox9,ketchup2,1.0,91.712,0.712,0.0,
88,,size_choice_confirmation,,html-keyboard-response,88,148642,0.0-1.0-115.0-0.0,0,0,60382,,,,,,28.0,,,,,,,,,,,,,,,,,,,,,,,,,,,,92.5,0.788,,
89,,iti,,html-keyboard-response,89,150644,0.0-1.0-116.0,0,0,60382,,,,,,,,,,,,,,,,,,,,,,,,,,,,,,,,,,94.5,2.0,,
90,,size_choice,,html-keyboard-response,90,151646,0.0-1.0-118.0,0,0,60382,,998.0,,,75.0,29.0,29.0,1.0,1000.0,S-XL,0.0,S,XL,1.0,4.0,die,dumptruck,die5,dumptruck9,104.0,178.0,/static/Size_judgement/Stimuli/Size_stims/S/die/die3.jpg,/static/Size_judgement/Stimuli/Size_stims/XL/dumptruck/dumptruck5.jpg,0.0,dumptruck,die,XL,S,4.0,1.0,dumptruck9,die5,1.0,95.498,0.998,0.0,
91,,size_choice_confirmation,,html-keyboard-response,91,152152,0.0-1.0-119.0-0.0,0,0,60382,,,,,,29.0,,,,,,,,,,,,,,,,,,,,,,,,,,,,96.0,0.502,,
92,,iti,,html-keyboard-response,92,153155,0.0-1.0-120.0,0,0,60382,,,,,,,,,,,,,,,,,,,,,,,,,,,,,,,,,,97.0,1.0,,
93,,size_choice,,html-keyboard-response,93,154395,0.0-1.0-122.0,0,0,60382,,1239.0,,,68.0,30.0,30.0,1.0,1000.0,S-XL,1.0,XL,S,4.0,1.0,tractor,die,tractor7,die2,186.0,101.0,/static/Size_judgement/Stimuli/Size_stims/XL/tractor/tractor2.jpg,/static/Size_judgement/Stimuli/Size_stims/S/die/die9.jpg,1.0,tractor,die,XL,S,4.0,1.0,tractor7,die2,1.0,98.239,1.239,0.0,
94,,size_choice_confirmation,,html-keyboard-response,94,154658,0.0-1.0-123.0-0.0,0,0,60382,,,,,,30.0,,,,,,,,,,,,,,,,,,,,,,,,,,,,98.5,0.261,,
95,,iti,,html-keyboard-response,95,155660,0.0-1.0-124.0,0,0,60382,,,,,,,,,,,,,,,,,,,,,,,,,,,,,,,,,,99.5,1.0,,
96,,size_choice,,html-keyboard-response,96,156428,0.0-1.0-126.0,0,0,60382,,767.0,,,68.0,31.0,31.0,1.0,1500.0,S-L,1.0,L,S,3.0,1.0,garbagecan,thread,garbagecan2,thread9,31.0,148.0,/static/Size_judgement/Stimuli/Size_stims/L/garbagecan/garbagecan5.jpg,/static/Size_judgement/Stimuli/Size_stims/S/thread/thread8.jpg,1.0,garbagecan,thread,L,S,3.0,1.0,garbagecan2,thread9,1.0,100.267,0.767,0.0,
97,,size_choice_confirmation,,html-keyboard-response,97,157162,0.0-1.0-127.0-0.0,0,0,60382,,,,,,31.0,,,,,,,,,,,,,,,,,,,,,,,,,,,,101.0,0.733,,
98,,iti,,html-keyboard-response,98,158666,0.0-1.0-128.0,0,0,60382,,,,,,,,,,,,,,,,,,,,,,,,,,,,,,,,,,102.5,1.5,,
99,,size_choice,,html-keyboard-response,99,159975,0.0-1.0-130.0,0,0,60382,,1307.0,,,75.0,32.0,32.0,1.0,2000.0,M-L,0.0,M,L,2.0,3.0,handsaw,deskchair,handsaw9,deskchair2,88.0,11.0,/static/Size_judgement/Stimuli/Size_stims/M/handsaw/handsaw6.jpg,/static/Size_judgement/Stimuli/Size_stims/L/deskchair/deskchair8.jpg,0.0,deskchair,handsaw,L,M,3.0,2.0,deskchair2,handsaw9,1.0,103.807,1.307,0.0,
100,,size_choice_confirmation,,html-keyboard-response,100,160174,0.0-1.0-131.0-0.0,0,0,60382,,,,,,32.0,,,,,,,,,,,,,,,,,,,,,,,,,,,,104.0,0.193,,
101,,iti,,html-keyboard-response,101,162177,0.0-1.0-132.0,0,0,60382,,,,,,,,,,,,,,,,,,,,,,,,,,,,,,,,,,106.0,2.0,,
102,,size_choice,,html-keyboard-response,102,163111,0.0-1.0-134.0,0,0,60382,,930.0,,,68.0,33.0,33.0,1.0,1000.0,S-L,1.0,L,S,3.0,1.0,garbagecan,teabag,garbagecan3,teabag8,32.0,137.0,/static/Size_judgement/Stimuli/Size_stims/L/garbagecan/garbagecan7.jpg,/static/Size_judgement/Stimuli/Size_stims/S/teabag/teabag7.jpg,1.0,garbagecan,teabag,L,S,3.0,1.0,garbagecan3,teabag8,1.0,106.93,0.93,0.0,
103,,size_choice_confirmation,,html-keyboard-response,103,163684,0.0-1.0-135.0-0.0,0,0,60382,,,,,,33.0,,,,,,,,,,,,,,,,,,,,,,,,,,,,107.5,0.57,,
104,,iti,,html-keyboard-response,104,164685,0.0-1.0-136.0,0,0,60382,,,,,,,,,,,,,,,,,,,,,,,,,,,,,,,,,,108.5,1.0,,
105,,size_choice,,html-keyboard-response,105,165829,0.0-1.0-138.0,0,0,60382,,1142.0,,,68.0,34.0,34.0,1.0,1000.0,M-L,0.0,M,L,2.0,3.0,handsaw,dishwasher,handsaw2,dishwasher4,81.0,23.0,/static/Size_judgement/Stimuli/Size_stims/M/handsaw/handsaw9.jpg,/static/Size_judgement/Stimuli/Size_stims/L/dishwasher/dishwasher5.jpg,1.0,handsaw,dishwasher,M,L,2.0,3.0,handsaw2,dishwasher4,0.0,109.642,1.142,0.0,
106,,size_choice_confirmation,,html-keyboard-response,106,166189,0.0-1.0-139.0-0.0,0,0,60382,,,,,,34.0,,,,,,,,,,,,,,,,,,,,,,,,,,,,110.0,0.358,,
107,,iti,,html-keyboard-response,107,167190,0.0-1.0-140.0,0,0,60382,,,,,,,,,,,,,,,,,,,,,,,,,,,,,,,,,,111.0,1.0,,
108,,size_choice,,html-keyboard-response,108,168077,0.0-1.0-142.0,0,0,60382,,884.0,,,68.0,35.0,35.0,1.0,1500.0,M-L,1.0,L,M,3.0,2.0,dishwasher,ketchup,dishwasher1,ketchup4,20.0,93.0,/static/Size_judgement/Stimuli/Size_stims/L/dishwasher/dishwasher10.jpg,/static/Size_judgement/Stimuli/Size_stims/M/ketchup/ketchup2.jpg,1.0,dishwasher,ketchup,L,M,3.0,2.0,dishwasher1,ketchup4,1.0,111.884,0.884,0.0,
109,,size_choice_confirmation,,html-keyboard-response,109,168697,0.0-1.0-143.0-0.0,0,0,60382,,,,,,35.0,,,,,,,,,,,,,,,,,,,,,,,,,,,,112.5,0.616,,
110,,iti,,html-keyboard-response,110,170199,0.0-1.0-144.0,0,0,60382,,,,,,,,,,,,,,,,,,,,,,,,,,,,,,,,,,114.0,1.5,,
111,,size_choice,,html-keyboard-response,111,171011,0.0-1.0-146.0,0,0,60382,,811.0,,,68.0,36.0,36.0,1.0,1500.0,M-L,0.0,M,L,2.0,3.0,hairdryer,cooler,hairdryer6,cooler3,75.0,2.0,/static/Size_judgement/Stimuli/Size_stims/M/hairdryer/hairdryer8.jpg,/static/Size_judgement/Stimuli/Size_stims/L/cooler/cooler2.jpg,1.0,hairdryer,cooler,M,L,2.0,3.0,hairdryer6,cooler3,0.0,114.811,0.811,0.0,
112,,size_choice_confirmation,,html-keyboard-response,112,171702,0.0-1.0-147.0-0.0,0,0,60382,,,,,,36.0,,,,,,,,,,,,,,,,,,,,,,,,,,,,115.5,0.689,,
113,,iti,,html-keyboard-response,113,173213,0.0-1.0-148.0,0,0,60382,,,,,,,,,,,,,,,,,,,,,,,,,,,,,,,,,,117.0,1.5,,
114,,size_choice,,html-keyboard-response,114,173986,0.0-1.0-150.0,0,0,60382,,771.0,,,68.0,37.0,37.0,1.0,1000.0,S-XL,1.0,XL,S,4.0,1.0,car,teabag,car4,teabag10,153.0,139.0,/static/Size_judgement/Stimuli/Size_stims/XL/car/car6.jpg,/static/Size_judgement/Stimuli/Size_stims/S/teabag/teabag4.jpg,1.0,car,teabag,XL,S,4.0,1.0,car4,teabag10,1.0,117.771,0.771,0.0,
115,,size_choice_confirmation,,html-keyboard-response,115,174718,0.0-1.0-151.0-0.0,0,0,60382,,,,,,37.0,,,,,,,,,,,,,,,,,,,,,,,,,,,,118.5,0.729,,
116,,iti,,html-keyboard-response,116,175720,0.0-1.0-152.0,0,0,60382,,,,,,,,,,,,,,,,,,,,,,,,,,,,,,,,,,119.5,1.0,,
117,,size_choice,,html-keyboard-response,117,176276,0.0-1.0-154.0,0,0,60382,,555.0,,,68.0,38.0,38.0,1.0,1500.0,M-XL,1.0,XL,M,4.0,2.0,tractor,handsaw,tractor8,handsaw10,187.0,89.0,/static/Size_judgement/Stimuli/Size_stims/XL/tractor/tractor10.jpg,/static/Size_judgement/Stimuli/Size_stims/M/handsaw/handsaw10.jpg,1.0,tractor,handsaw,XL,M,4.0,2.0,tractor8,handsaw10,1.0,120.055,0.555,0.0,
118,,size_choice_confirmation,,html-keyboard-response,118,177235,0.0-1.0-155.0-0.0,0,0,60382,,,,,,38.0,,,,,,,,,,,,,,,,,,,,,,,,,,,,121.0,0.945,,
119,,iti,,html-keyboard-response,119,178738,0.0-1.0-156.0,0,0,60382,,,,,,,,,,,,,,,,,,,,,,,,,,,,,,,,,,122.5,1.5,,
120,,size_choice,,html-keyboard-response,120,179467,0.0-1.0-158.0,0,0,60382,,728.0,,,68.0,39.0,39.0,1.0,1500.0,S-M,1.0,M,S,2.0,1.0,basketball,screws,basketball6,screws9,55.0,128.0,/static/Size_judgement/Stimuli/Size_stims/M/basketball/basketball2.jpg,/static/Size_judgement/Stimuli/Size_stims/S/screws/screws8.jpg,1.0,basketball,screws,M,S,2.0,1.0,basketball6,screws9,1.0,123.228,0.728,0.0,
121,,size_choice_confirmation,,html-keyboard-response,121,180241,0.0-1.0-159.0-0.0,0,0,60382,,,,,,39.0,,,,,,,,,,,,,,,,,,,,,,,,,,,,124.0,0.772,,
122,,iti,,html-keyboard-response,122,181744,0.0-1.0-160.0,0,0,60382,,,,,,,,,,,,,,,,,,,,,,,,,,,,,,,,,,125.5,1.5,,
123,,size_choice,,html-keyboard-response,123,182583,0.0-1.0-162.0,0,0,60382,,836.0,,,75.0,40.0,40.0,1.0,1000.0,M-XL,0.0,M,XL,2.0,4.0,hairdryer,dumptruck,hairdryer1,dumptruck5,70.0,174.0,/static/Size_judgement/Stimuli/Size_stims/M/hairdryer/hairdryer11.jpg,/static/Size_judgement/Stimuli/Size_stims/XL/dumptruck/dumptruck3.jpg,0.0,dumptruck,hairdryer,XL,M,4.0,2.0,dumptruck5,hairdryer1,1.0,126.336,0.836,0.0,
124,,size_choice_confirmation,,html-keyboard-response,124,183249,0.0-1.0-163.0-0.0,0,0,60382,,,,,,40.0,,,,,,,,,,,,,,,,,,,,,,,,,,,,127.0,0.664,,
125,,iti,,html-keyboard-response,125,184251,0.0-1.0-164.0,0,0,60382,,,,,,,,,,,,,,,,,,,,,,,,,,,,,,,,,,128.0,1.0,,
126,,size_choice,,html-keyboard-response,126,185174,0.0-1.0-166.0,0,0,60382,,921.0,,,75.0,41.0,41.0,1.0,1500.0,S-L,0.0,S,L,1.0,3.0,paperclip,mailbox,paperclip2,mailbox7,111.0,46.0,/static/Size_judgement/Stimuli/Size_stims/S/paperclip/paperclip8.jpg,/static/Size_judgement/Stimuli/Size_stims/L/mailbox/mailbox7.jpg,0.0,mailbox,paperclip,L,S,3.0,1.0,mailbox7,paperclip2,1.0,128.921,0.921,0.0,
127,,size_choice_confirmation,,html-keyboard-response,127,185757,0.0-1.0-167.0-0.0,0,0,60382,,,,,,41.0,,,,,,,,,,,,,,,,,,,,,,,,,,,,129.5,0.579,,
128,,iti,,html-keyboard-response,128,187260,0.0-1.0-168.0,0,0,60382,,,,,,,,,,,,,,,,,,,,,,,,,,,,,,,,,,131.0,1.5,,
129,,size_choice,,html-keyboard-response,129,187935,0.0-1.0-170.0,0,0,60382,,673.0,,,75.0,42.0,42.0,1.0,2000.0,S-XL,0.0,S,XL,1.0,4.0,thread,dumptruck,thread8,dumptruck10,147.0,179.0,/static/Size_judgement/Stimuli/Size_stims/S/thread/thread10.jpg,/static/Size_judgement/Stimuli/Size_stims/XL/dumptruck/dumptruck4.jpg,0.0,dumptruck,thread,XL,S,4.0,1.0,dumptruck10,thread8,1.0,131.673,0.673,0.0,
130,,size_choice_confirmation,,html-keyboard-response,130,188763,0.0-1.0-171.0-0.0,0,0,60382,,,,,,42.0,,,,,,,,,,,,,,,,,,,,,,,,,,,,132.5,0.827,,
131,,iti,,html-keyboard-response,131,190766,0.0-1.0-172.0,0,0,60382,,,,,,,,,,,,,,,,,,,,,,,,,,,,,,,,,,134.5,2.0,,
132,,size_choice,,html-keyboard-response,132,191470,0.0-1.0-174.0,0,0,60382,,702.0,,,75.0,43.0,43.0,1.0,3000.0,L-XL,0.0,L,XL,3.0,4.0,cooler,tractor,cooler1,tractor10,0.0,189.0,/static/Size_judgement/Stimuli/Size_stims/L/cooler/cooler8.jpg,/static/Size_judgement/Stimuli/Size_stims/XL/tractor/tractor8.jpg,0.0,tractor,cooler,XL,L,4.0,3.0,tractor10,cooler1,1.0,135.202,0.702,0.0,
133,,size_choice_confirmation,,html-keyboard-response,133,192270,0.0-1.0-175.0-0.0,0,0,60382,,,,,,43.0,,,,,,,,,,,,,,,,,,,,,,,,,,,,136.0,0.798,,
134,,iti,,html-keyboard-response,134,195272,0.0-1.0-176.0,0,0,60382,,,,,,,,,,,,,,,,,,,,,,,,,,,,,,,,,,139.0,3.0,,
135,,size_choice,,html-keyboard-response,135,196262,0.0-1.0-178.0,0,0,60382,,988.0,,,75.0,44.0,44.0,1.0,1500.0,M-M,,M,M,2.0,2.0,hairdryer,coffeemaker,hairdryer10,coffeemaker1,79.0,60.0,/static/Size_judgement/Stimuli/Size_stims/M/hairdryer/hairdryer6.jpg,/static/Size_judgement/Stimuli/Size_stims/M/coffeemaker/coffeemaker14.jpg,0.0,coffeemaker,hairdryer,M,M,2.0,2.0,coffeemaker1,hairdryer10,,139.988,0.988,0.0,
136,,size_choice_confirmation,,html-keyboard-response,136,196775,0.0-1.0-179.0-0.0,0,0,60382,,,,,,44.0,,,,,,,,,,,,,,,,,,,,,,,,,,,,140.5,0.512,,
137,,iti,,html-keyboard-response,137,198277,0.0-1.0-180.0,0,0,60382,,,,,,,,,,,,,,,,,,,,,,,,,,,,,,,,,,142.0,1.5,,
138,,block_over,,html-keyboard-response,138,199872,0.0-1.0-181.0-0.0,0,0,60382,,1593.0,,,68.0,44.0,,,,,,,,,,,,,,,,,,,,,,,,,,,,,,,
139,,size_choice,,html-keyboard-response,139,200541,0.0-1.0-182.0,0,0,60382,,668.0,,,75.0,45.0,45.0,2.0,3500.0,L-XL,0.0,L,XL,3.0,4.0,cooler,car,cooler4,car3,3.0,152.0,/static/Size_judgement/Stimuli/Size_stims/L/cooler/cooler3.jpg,/static/Size_judgement/Stimuli/Size_stims/XL/car/car4.jpg,0.0,car,cooler,XL,L,4.0,3.0,car3,cooler4,1.0,142.668,0.668,0.0,
140,,size_choice_confirmation,,html-keyboard-response,140,201375,0.0-1.0-183.0-0.0,0,0,60382,,,,,,45.0,,,,,,,,,,,,,,,,,,,,,,,,,,,,143.5,0.832,,
141,,iti,,html-keyboard-response,141,204877,0.0-1.0-184.0,0,0,60382,,,,,,,,,,,,,,,,,,,,,,,,,,,,,,,,,,147.0,3.5,,
142,,size_choice,,html-keyboard-response,142,205352,0.0-1.0-186.0,0,0,60382,,474.0,,,68.0,46.0,46.0,2.0,2000.0,L-L,,L,L,3.0,3.0,deskchair,cooler,deskchair8,cooler2,17.0,1.0,/static/Size_judgement/Stimuli/Size_stims/L/deskchair/deskchair1.jpg,/static/Size_judgement/Stimuli/Size_stims/L/cooler/cooler9.jpg,1.0,deskchair,cooler,L,L,3.0,3.0,deskchair8,cooler2,,147.474,0.474,0.0,
143,,size_choice_confirmation,,html-keyboard-response,143,206381,0.0-1.0-187.0-0.0,0,0,60382,,,,,,46.0,,,,,,,,,,,,,,,,,,,,,,,,,,,,148.5,1.026,,
144,,iti,,html-keyboard-response,144,208383,0.0-1.0-188.0,0,0,60382,,,,,,,,,,,,,,,,,,,,,,,,,,,,,,,,,,150.5,2.0,,
145,,size_choice,,html-keyboard-response,145,208941,0.0-1.0-190.0,0,0,60382,,556.0,,,75.0,47.0,47.0,2.0,1500.0,M-L,0.0,M,L,2.0,3.0,basketball,cooler,basketball3,cooler9,52.0,8.0,/static/Size_judgement/Stimuli/Size_stims/M/basketball/basketball10.jpg,/static/Size_judgement/Stimuli/Size_stims/L/cooler/cooler7.jpg,0.0,cooler,basketball,L,M,3.0,2.0,cooler9,basketball3,1.0,151.056,0.556,0.0,
146,,size_choice_confirmation,,html-keyboard-response,146,209887,0.0-1.0-191.0-0.0,0,0,60382,,,,,,47.0,,,,,,,,,,,,,,,,,,,,,,,,,,,,152.0,0.944,,
147,,iti,,html-keyboard-response,147,211390,0.0-1.0-192.0,0,0,60382,,,,,,,,,,,,,,,,,,,,,,,,,,,,,,,,,,153.5,1.5,,
148,,size_choice,,html-keyboard-response,148,211907,0.0-1.0-194.0,0,0,60382,,514.0,,,68.0,48.0,48.0,2.0,1000.0,M-XL,1.0,XL,M,4.0,2.0,car,ketchup,car8,ketchup5,157.0,94.0,/static/Size_judgement/Stimuli/Size_stims/XL/car/car14.jpg,/static/Size_judgement/Stimuli/Size_stims/M/ketchup/ketchup3.jpg,1.0,car,ketchup,XL,M,4.0,2.0,car8,ketchup5,1.0,154.014,0.514,0.0,
149,,size_choice_confirmation,,html-keyboard-response,149,212896,0.0-1.0-195.0-0.0,0,0,60382,,,,,,48.0,,,,,,,,,,,,,,,,,,,,,,,,,,,,155.0,0.986,,
150,,iti,,html-keyboard-response,150,213899,0.0-1.0-196.0,0,0,60382,,,,,,,,,,,,,,,,,,,,,,,,,,,,,,,,,,156.0,1.0,,
151,,size_choice,,html-keyboard-response,151,214466,0.0-1.0-198.0,0,0,60382,,562.0,,,75.0,49.0,49.0,2.0,1000.0,S-S,,S,S,1.0,1.0,die,thread,die3,thread6,102.0,145.0,/static/Size_judgement/Stimuli/Size_stims/S/die/die10.jpg,/static/Size_judgement/Stimuli/Size_stims/S/thread/thread2.jpg,0.0,thread,die,S,S,1.0,1.0,thread6,die3,,156.562,0.562,0.0,
152,,size_choice_confirmation,,html-keyboard-response,152,215407,0.0-1.0-199.0-0.0,0,0,60382,,,,,,49.0,,,,,,,,,,,,,,,,,,,,,,,,,,,,157.5,0.938,,
153,,iti,,html-keyboard-response,153,216409,0.0-1.0-200.0,0,0,60382,,,,,,,,,,,,,,,,,,,,,,,,,,,,,,,,,,158.5,1.0,,
154,,size_choice,,html-keyboard-response,154,216883,0.0-1.0-202.0,0,0,60382,,473.0,,,75.0,50.0,50.0,2.0,2000.0,S-XL,0.0,S,XL,1.0,4.0,thread,car,thread3,car10,142.0,159.0,/static/Size_judgement/Stimuli/Size_stims/S/thread/thread4.jpg,/static/Size_judgement/Stimuli/Size_stims/XL/car/car9.jpg,0.0,car,thread,XL,S,4.0,1.0,car10,thread3,1.0,158.973,0.473,0.0,
155,,size_choice_confirmation,,html-keyboard-response,155,217912,0.0-1.0-203.0-0.0,0,0,60382,,,,,,50.0,,,,,,,,,,,,,,,,,,,,,,,,,,,,160.0,1.027,,
156,,iti,,html-keyboard-response,156,219916,0.0-1.0-204.0,0,0,60382,,,,,,,,,,,,,,,,,,,,,,,,,,,,,,,,,,162.0,2.0,,
157,,size_choice,,html-keyboard-response,157,220418,0.0-1.0-206.0,0,0,60382,,501.0,,,75.0,51.0,51.0,2.0,2000.0,M-M,,M,M,2.0,2.0,ketchup,basketball,ketchup9,basketball9,98.0,58.0,/static/Size_judgement/Stimuli/Size_stims/M/ketchup/ketchup7.jpg,/static/Size_judgement/Stimuli/Size_stims/M/basketball/basketball5.jpg,0.0,basketball,ketchup,M,M,2.0,2.0,basketball9,ketchup9,,162.501,0.501,0.0,
158,,size_choice_confirmation,,html-keyboard-response,158,221421,0.0-1.0-207.0-0.0,0,0,60382,,,,,,51.0,,,,,,,,,,,,,,,,,,,,,,,,,,,,163.5,0.999,,
159,,iti,,html-keyboard-response,159,223423,0.0-1.0-208.0,0,0,60382,,,,,,,,,,,,,,,,,,,,,,,,,,,,,,,,,,165.5,2.0,,
160,,size_choice,,html-keyboard-response,160,223824,0.0-1.0-210.0,0,0,60382,,399.0,,,75.0,52.0,52.0,2.0,1500.0,S-M,0.0,S,M,1.0,2.0,thread,ketchup,thread4,ketchup7,143.0,96.0,/static/Size_judgement/Stimuli/Size_stims/S/thread/thread5.jpg,/static/Size_judgement/Stimuli/Size_stims/M/ketchup/ketchup4.jpg,0.0,ketchup,thread,M,S,2.0,1.0,ketchup7,thread4,1.0,165.899,0.399,0.0,
161,,size_choice_confirmation,,html-keyboard-response,161,224928,0.0-1.0-211.0-0.0,0,0,60382,,,,,,52.0,,,,,,,,,,,,,,,,,,,,,,,,,,,,167.0,1.101,,
162,,iti,,html-keyboard-response,162,226431,0.0-1.0-212.0,0,0,60382,,,,,,,,,,,,,,,,,,,,,,,,,,,,,,,,,,168.5,1.5,,
163,,size_choice,,html-keyboard-response,163,227058,0.0-1.0-214.0,0,0,60382,,624.0,,,75.0,53.0,53.0,2.0,1500.0,M-XL,0.0,M,XL,2.0,4.0,ketchup,van,ketchup1,van8,90.0,197.0,/static/Size_judgement/Stimuli/Size_stims/M/ketchup/ketchup8.jpg,/static/Size_judgement/Stimuli/Size_stims/XL/van/van10.jpg,0.0,van,ketchup,XL,M,4.0,2.0,van8,ketchup1,1.0,169.124,0.624,0.0,
164,,size_choice_confirmation,,html-keyboard-response,164,227936,0.0-1.0-215.0-0.0,0,0,60382,,,,,,53.0,,,,,,,,,,,,,,,,,,,,,,,,,,,,170.0,0.876,,
165,,iti,,html-keyboard-response,165,229437,0.0-1.0-216.0,0,0,60382,,,,,,,,,,,,,,,,,,,,,,,,,,,,,,,,,,171.5,1.5,,
166,,size_choice,,html-keyboard-response,166,229819,0.0-1.0-218.0,0,0,60382,,379.0,,,75.0,54.0,54.0,2.0,2000.0,XL-XL,,XL,XL,4.0,4.0,dumptruck,car,dumptruck1,car2,170.0,151.0,/static/Size_judgement/Stimuli/Size_stims/XL/dumptruck/dumptruck9.jpg,/static/Size_judgement/Stimuli/Size_stims/XL/car/car3.jpg,0.0,car,dumptruck,XL,XL,4.0,4.0,car2,dumptruck1,,171.879,0.379,0.0,
167,,size_choice_confirmation,,html-keyboard-response,167,230942,0.0-1.0-219.0-0.0,0,0,60382,,,,,,54.0,,,,,,,,,,,,,,,,,,,,,,,,,,,,173.0,1.121,,
168,,iti,,html-keyboard-response,168,232946,0.0-1.0-220.0,0,0,60382,,,,,,,,,,,,,,,,,,,,,,,,,,,,,,,,,,175.0,2.0,,
169,,size_choice,,html-keyboard-response,169,233642,0.0-1.0-222.0,0,0,60382,,691.0,,,68.0,55.0,55.0,2.0,1000.0,M-L,1.0,L,M,3.0,2.0,mailbox,coffeemaker,mailbox10,coffeemaker10,49.0,69.0,/static/Size_judgement/Stimuli/Size_stims/L/mailbox/mailbox8.jpg,/static/Size_judgement/Stimuli/Size_stims/M/coffeemaker/coffeemaker18.jpg,1.0,mailbox,coffeemaker,L,M,3.0,2.0,mailbox10,coffeemaker10,1.0,175.691,0.691,0.0,
170,,size_choice_confirmation,,html-keyboard-response,170,234454,0.0-1.0-223.0-0.0,0,0,60382,,,,,,55.0,,,,,,,,,,,,,,,,,,,,,,,,,,,,176.5,0.809,,
171,,iti,,html-keyboard-response,171,235457,0.0-1.0-224.0,0,0,60382,,,,,,,,,,,,,,,,,,,,,,,,,,,,,,,,,,177.5,1.0,,
172,,size_choice,,html-keyboard-response,172,235943,0.0-1.0-226.0,0,0,60382,,482.0,,,75.0,56.0,56.0,2.0,1000.0,M-XL,0.0,M,XL,2.0,4.0,hairdryer,van,hairdryer4,van5,73.0,194.0,/static/Size_judgement/Stimuli/Size_stims/M/hairdryer/hairdryer16.jpg,/static/Size_judgement/Stimuli/Size_stims/XL/van/van3.jpg,0.0,van,hairdryer,XL,M,4.0,2.0,van5,hairdryer4,1.0,177.982,0.482,0.0,
173,,size_choice_confirmation,,html-keyboard-response,173,236963,0.0-1.0-227.0-0.0,0,0,60382,,,,,,56.0,,,,,,,,,,,,,,,,,,,,,,,,,,,,179.0,1.018,,
174,,iti,,html-keyboard-response,174,237965,0.0-1.0-228.0,0,0,60382,,,,,,,,,,,,,,,,,,,,,,,,,,,,,,,,,,180.0,1.0,,
175,,size_choice,,html-keyboard-response,175,238532,0.0-1.0-230.0,0,0,60382,,563.0,,,75.0,57.0,57.0,2.0,1000.0,S-L,0.0,S,L,1.0,3.0,die,mailbox,die10,mailbox6,109.0,45.0,/static/Size_judgement/Stimuli/Size_stims/S/die/die6.jpg,/static/Size_judgement/Stimuli/Size_stims/L/mailbox/mailbox6.jpg,0.0,mailbox,die,L,S,3.0,1.0,mailbox6,die10,1.0,180.563,0.563,0.0,
176,,size_choice_confirmation,,html-keyboard-response,176,239471,0.0-1.0-231.0-0.0,0,0,60382,,,,,,57.0,,,,,,,,,,,,,,,,,,,,,,,,,,,,181.5,0.937,,
177,,iti,,html-keyboard-response,177,240473,0.0-1.0-232.0,0,0,60382,,,,,,,,,,,,,,,,,,,,,,,,,,,,,,,,,,182.5,1.0,,
178,,size_choice,,html-keyboard-response,178,241111,0.0-1.0-234.0,0,0,60382,,633.0,,,68.0,58.0,58.0,2.0,3000.0,M-XL,1.0,XL,M,4.0,2.0,crane,ketchup,crane6,ketchup6,165.0,95.0,/static/Size_judgement/Stimuli/Size_stims/XL/crane/crane2.jpg,/static/Size_judgement/Stimuli/Size_stims/M/ketchup/ketchup1.jpg,1.0,crane,ketchup,XL,M,4.0,2.0,crane6,ketchup6,1.0,183.133,0.633,0.0,
179,,size_choice_confirmation,,html-keyboard-response,179,241980,0.0-1.0-235.0-0.0,0,0,60382,,,,,,58.0,,,,,,,,,,,,,,,,,,,,,,,,,,,,184.0,0.867,,
180,,iti,,html-keyboard-response,180,244982,0.0-1.0-236.0,0,0,60382,,,,,,,,,,,,,,,,,,,,,,,,,,,,,,,,,,187.0,3.0,,
181,,size_choice,,html-keyboard-response,181,245504,0.0-1.0-238.0,0,0,60382,,520.0,,,68.0,59.0,59.0,2.0,1500.0,S-XL,1.0,XL,S,4.0,1.0,van,teabag,van4,teabag3,193.0,132.0,/static/Size_judgement/Stimuli/Size_stims/XL/van/van7.jpg,/static/Size_judgement/Stimuli/Size_stims/S/teabag/teabag1.jpg,1.0,van,teabag,XL,S,4.0,1.0,van4,teabag3,1.0,187.52,0.52,0.0,
182,,size_choice_confirmation,,html-keyboard-response,182,246486,0.0-1.0-239.0-0.0,0,0,60382,,,,,,59.0,,,,,,,,,,,,,,,,,,,,,,,,,,,,188.5,0.98,,
183,,iti,,html-keyboard-response,183,247987,0.0-1.0-240.0,0,0,60382,,,,,,,,,,,,,,,,,,,,,,,,,,,,,,,,,,190.0,1.5,,
184,,size_choice,,html-keyboard-response,184,248536,0.0-1.0-242.0,0,0,60382,,545.0,,,75.0,60.0,60.0,2.0,1500.0,S-L,0.0,S,L,1.0,3.0,paperclip,deskchair,paperclip4,deskchair3,113.0,12.0,/static/Size_judgement/Stimuli/Size_stims/S/paperclip/paperclip3.jpg,/static/Size_judgement/Stimuli/Size_stims/L/deskchair/deskchair10.jpg,0.0,deskchair,paperclip,L,S,3.0,1.0,deskchair3,paperclip4,1.0,190.545,0.545,0.0,
185,,size_choice_confirmation,,html-keyboard-response,185,249495,0.0-1.0-243.0-0.0,0,0,60382,,,,,,60.0,,,,,,,,,,,,,,,,,,,,,,,,,,,,191.5,0.955,,
186,,iti,,html-keyboard-response,186,250998,0.0-1.0-244.0,0,0,60382,,,,,,,,,,,,,,,,,,,,,,,,,,,,,,,,,,193.0,1.5,,
187,,size_choice,,html-keyboard-response,187,251456,0.0-1.0-246.0,0,0,60382,,456.0,,,68.0,61.0,61.0,2.0,1000.0,L-L,,L,L,3.0,3.0,dishwasher,garbagecan,dishwasher5,garbagecan1,24.0,30.0,/static/Size_judgement/Stimuli/Size_stims/L/dishwasher/dishwasher4.jpg,/static/Size_judgement/Stimuli/Size_stims/L/garbagecan/garbagecan4.jpg,1.0,dishwasher,garbagecan,L,L,3.0,3.0,dishwasher5,garbagecan1,,193.456,0.456,0.0,
188,,size_choice_confirmation,,html-keyboard-response,188,252502,0.0-1.0-247.0-0.0,0,0,60382,,,,,,61.0,,,,,,,,,,,,,,,,,,,,,,,,,,,,194.5,1.044,,
189,,iti,,html-keyboard-response,189,253506,0.0-1.0-248.0,0,0,60382,,,,,,,,,,,,,,,,,,,,,,,,,,,,,,,,,,195.5,1.0,,
190,,size_choice,,html-keyboard-response,190,254142,0.0-1.0-250.0,0,0,60382,,633.0,,,75.0,62.0,62.0,2.0,1000.0,M-L,0.0,M,L,2.0,3.0,ketchup,deskchair,ketchup3,deskchair7,92.0,16.0,/static/Size_judgement/Stimuli/Size_stims/M/ketchup/ketchup10.jpg,/static/Size_judgement/Stimuli/Size_stims/L/deskchair/deskchair4.jpg,0.0,deskchair,ketchup,L,M,3.0,2.0,deskchair7,ketchup3,1.0,196.133,0.633,0.0,
191,,size_choice_confirmation,,html-keyboard-response,191,255012,0.0-1.0-251.0-0.0,0,0,60382,,,,,,62.0,,,,,,,,,,,,,,,,,,,,,,,,,,,,197.0,0.867,,
192,,iti,,html-keyboard-response,192,256014,0.0-1.0-252.0,0,0,60382,,,,,,,,,,,,,,,,,,,,,,,,,,,,,,,,,,198.0,1.0,,
193,,size_choice,,html-keyboard-response,193,256603,0.0-1.0-254.0,0,0,60382,,585.0,,,75.0,63.0,63.0,2.0,2000.0,S-M,0.0,S,M,1.0,2.0,teabag,coffeemaker,teabag2,coffeemaker3,131.0,62.0,/static/Size_judgement/Stimuli/Size_stims/S/teabag/teabag8.jpg,/static/Size_judgement/Stimuli/Size_stims/M/coffeemaker/coffeemaker13.jpg,0.0,coffeemaker,teabag,M,S,2.0,1.0,coffeemaker3,teabag2,1.0,198.585,0.585,0.0,
194,,size_choice_confirmation,,html-keyboard-response,194,257520,0.0-1.0-255.0-0.0,0,0,60382,,,,,,63.0,,,,,,,,,,,,,,,,,,,,,,,,,,,,199.5,0.915,,
195,,iti,,html-keyboard-response,195,259523,0.0-1.0-256.0,0,0,60382,,,,,,,,,,,,,,,,,,,,,,,,,,,,,,,,,,201.5,2.0,,
196,,size_choice,,html-keyboard-response,196,260041,0.0-1.0-258.0,0,0,60382,,515.0,,,68.0,64.0,64.0,2.0,1000.0,M-L,0.0,M,L,2.0,3.0,coffeemaker,garbagecan,coffeemaker6,garbagecan10,65.0,39.0,/static/Size_judgement/Stimuli/Size_stims/M/coffeemaker/coffeemaker8.jpg,/static/Size_judgement/Stimuli/Size_stims/L/garbagecan/garbagecan11.jpg,1.0,coffeemaker,garbagecan,M,L,2.0,3.0,coffeemaker6,garbagecan10,0.0,202.015,0.515,0.0,
197,,size_choice_confirmation,,html-keyboard-response,197,261027,0.0-1.0-259.0-0.0,0,0,60382,,,,,,64.0,,,,,,,,,,,,,,,,,,,,,,,,,,,,203.0,0.985,,
198,,iti,,html-keyboard-response,198,262030,0.0-1.0-260.0,0,0,60382,,,,,,,,,,,,,,,,,,,,,,,,,,,,,,,,,,204.0,1.0,,
199,,size_choice,,html-keyboard-response,199,262673,0.0-1.0-262.0,0,0,60382,,641.0,,,68.0,65.0,65.0,2.0,1000.0,S-XL,1.0,XL,S,4.0,1.0,crane,paperclip,crane1,paperclip3,160.0,112.0,/static/Size_judgement/Stimuli/Size_stims/XL/crane/crane7.jpg,/static/Size_judgement/Stimuli/Size_stims/S/paperclip/paperclip1.jpg,1.0,crane,paperclip,XL,S,4.0,1.0,crane1,paperclip3,1.0,204.641,0.641,0.0,
200,,size_choice_confirmation,,html-keyboard-response,200,263534,0.0-1.0-263.0-0.0,0,0,60382,,,,,,65.0,,,,,,,,,,,,,,,,,,,,,,,,,,,,205.5,0.859,,
201,,iti,,html-keyboard-response,201,264537,0.0-1.0-264.0,0,0,60382,,,,,,,,,,,,,,,,,,,,,,,,,,,,,,,,,,206.5,1.0,,
202,,size_choice,,html-keyboard-response,202,265007,0.0-1.0-266.0,0,0,60382,,466.0,,,68.0,66.0,66.0,2.0,2000.0,M-M,,M,M,2.0,2.0,hairdryer,handsaw,hairdryer9,handsaw4,78.0,83.0,/static/Size_judgement/Stimuli/Size_stims/M/hairdryer/hairdryer5.jpg,/static/Size_judgement/Stimuli/Size_stims/M/handsaw/handsaw3.jpg,1.0,hairdryer,handsaw,M,M,2.0,2.0,hairdryer9,handsaw4,,206.966,0.466,0.0,
203,,size_choice_confirmation,,html-keyboard-response,203,266048,0.0-1.0-267.0-0.0,0,0,60382,,,,,,66.0,,,,,,,,,,,,,,,,,,,,,,,,,,,,208.0,1.034,,
204,,iti,,html-keyboard-response,204,268050,0.0-1.0-268.0,0,0,60382,,,,,,,,,,,,,,,,,,,,,,,,,,,,,,,,,,210.0,2.0,,
205,,size_choice,,html-keyboard-response,205,268710,0.0-1.0-270.0,0,0,60382,,659.0,,,68.0,67.0,67.0,2.0,1500.0,S-S,,S,S,1.0,1.0,paperclip,screws,paperclip1,screws10,110.0,129.0,/static/Size_judgement/Stimuli/Size_stims/S/paperclip/paperclip9.jpg,/static/Size_judgement/Stimuli/Size_stims/S/screws/screws9.jpg,1.0,paperclip,screws,S,S,1.0,1.0,paperclip1,screws10,,210.659,0.659,0.0,
206,,size_choice_confirmation,,html-keyboard-response,206,269553,0.0-1.0-271.0-0.0,0,0,60382,,,,,,67.0,,,,,,,,,,,,,,,,,,,,,,,,,,,,211.5,0.841,,
207,,iti,,html-keyboard-response,207,271054,0.0-1.0-272.0,0,0,60382,,,,,,,,,,,,,,,,,,,,,,,,,,,,,,,,,,213.0,1.5,,
208,,size_choice,,html-keyboard-response,208,271774,0.0-1.0-274.0,0,0,60382,,718.0,,,68.0,68.0,68.0,2.0,1500.0,M-XL,1.0,XL,M,4.0,2.0,tractor,coffeemaker,tractor2,coffeemaker7,181.0,66.0,/static/Size_judgement/Stimuli/Size_stims/XL/tractor/tractor7.jpg,/static/Size_judgement/Stimuli/Size_stims/M/coffeemaker/coffeemaker9.jpg,1.0,tractor,coffeemaker,XL,M,4.0,2.0,tractor2,coffeemaker7,1.0,213.718,0.718,0.0,
209,,size_choice_confirmation,,html-keyboard-response,209,272559,0.0-1.0-275.0-0.0,0,0,60382,,,,,,68.0,,,,,,,,,,,,,,,,,,,,,,,,,,,,214.5,0.782,,
210,,iti,,html-keyboard-response,210,274061,0.0-1.0-276.0,0,0,60382,,,,,,,,,,,,,,,,,,,,,,,,,,,,,,,,,,216.0,1.5,,
211,,size_choice,,html-keyboard-response,211,274451,0.0-1.0-278.0,0,0,60382,,387.0,,,68.0,69.0,69.0,2.0,2000.0,L-XL,1.0,XL,L,4.0,3.0,crane,deskchair,crane4,deskchair1,163.0,10.0,/static/Size_judgement/Stimuli/Size_stims/XL/crane/crane5.jpg,/static/Size_judgement/Stimuli/Size_stims/L/deskchair/deskchair9.jpg,1.0,crane,deskchair,XL,L,4.0,3.0,crane4,deskchair1,1.0,216.387,0.387,0.0,
212,,size_choice_confirmation,,html-keyboard-response,212,275566,0.0-1.0-279.0-0.0,0,0,60382,,,,,,69.0,,,,,,,,,,,,,,,,,,,,,,,,,,,,217.5,1.113,,
213,,iti,,html-keyboard-response,213,277567,0.0-1.0-280.0,0,0,60382,,,,,,,,,,,,,,,,,,,,,,,,,,,,,,,,,,219.5,2.0,,
214,,size_choice,,html-keyboard-response,214,278212,0.0-1.0-282.0,0,0,60382,,643.0,,,75.0,70.0,70.0,2.0,2000.0,S-L,1.0,L,S,3.0,1.0,garbagecan,die,garbagecan6,die8,35.0,107.0,/static/Size_judgement/Stimuli/Size_stims/L/garbagecan/garbagecan14.jpg,/static/Size_judgement/Stimuli/Size_stims/S/die/die5.jpg,0.0,die,garbagecan,S,L,1.0,3.0,die8,garbagecan6,0.0,220.143,0.643,0.0,
215,,size_choice_confirmation,,html-keyboard-response,215,279072,0.0-1.0-283.0-0.0,0,0,60382,,,,,,70.0,,,,,,,,,,,,,,,,,,,,,,,,,,,,221.0,0.857,,
216,,iti,,html-keyboard-response,216,281075,0.0-1.0-284.0,0,0,60382,,,,,,,,,,,,,,,,,,,,,,,,,,,,,,,,,,223.0,2.0,,
217,,size_choice,,html-keyboard-response,217,281608,0.0-1.0-286.0,0,0,60382,,532.0,,,68.0,71.0,71.0,2.0,1000.0,M-L,0.0,M,L,2.0,3.0,handsaw,cooler,handsaw6,cooler5,85.0,4.0,/static/Size_judgement/Stimuli/Size_stims/M/handsaw/handsaw4.jpg,/static/Size_judgement/Stimuli/Size_stims/L/cooler/cooler10.jpg,1.0,handsaw,cooler,M,L,2.0,3.0,handsaw6,cooler5,0.0,223.532,0.532,0.0,
218,,size_choice_confirmation,,html-keyboard-response,218,282579,0.0-1.0-287.0-0.0,0,0,60382,,,,,,71.0,,,,,,,,,,,,,,,,,,,,,,,,,,,,224.5,0.968,,
219,,iti,,html-keyboard-response,219,283582,0.0-1.0-288.0,0,0,60382,,,,,,,,,,,,,,,,,,,,,,,,,,,,,,,,,,225.5,1.0,,
220,,size_choice,,html-keyboard-response,220,284029,0.0-1.0-290.0,0,0,60382,,444.0,,,68.0,72.0,72.0,2.0,1000.0,S-L,0.0,S,L,1.0,3.0,screws,mailbox,screws4,mailbox1,123.0,40.0,/static/Size_judgement/Stimuli/Size_stims/S/screws/screws6.jpg,/static/Size_judgement/Stimuli/Size_stims/L/mailbox/mailbox3.jpg,1.0,screws,mailbox,S,L,1.0,3.0,screws4,mailbox1,0.0,225.944,0.444,0.0,
221,,size_choice_confirmation,,html-keyboard-response,221,285087,0.0-1.0-291.0-0.0,0,0,60382,,,,,,72.0,,,,,,,,,,,,,,,,,,,,,,,,,,,,227.0,1.056,,
222,,iti,,html-keyboard-response,222,286094,0.0-1.0-292.0,0,0,60382,,,,,,,,,,,,,,,,,,,,,,,,,,,,,,,,,,228.0,1.0,,
223,,size_choice,,html-keyboard-response,223,286631,0.0-1.0-294.0,0,0,60382,,535.0,,,75.0,73.0,73.0,2.0,1000.0,S-XL,0.0,S,XL,1.0,4.0,thread,car,thread5,car1,144.0,150.0,/static/Size_judgement/Stimuli/Size_stims/S/thread/thread1.jpg,/static/Size_judgement/Stimuli/Size_stims/XL/car/car2.jpg,0.0,car,thread,XL,S,4.0,1.0,car1,thread5,1.0,228.535,0.535,0.0,
224,,size_choice_confirmation,,html-keyboard-response,224,287597,0.0-1.0-295.0-0.0,0,0,60382,,,,,,73.0,,,,,,,,,,,,,,,,,,,,,,,,,,,,229.5,0.965,,
225,,iti,,html-keyboard-response,225,288599,0.0-1.0-296.0,0,0,60382,,,,,,,,,,,,,,,,,,,,,,,,,,,,,,,,,,230.5,1.0,,
226,,size_choice,,html-keyboard-response,226,289049,0.0-1.0-298.0,0,0,60382,,449.0,,,75.0,74.0,74.0,2.0,1000.0,XL-XL,,XL,XL,4.0,4.0,van,tractor,van6,tractor9,195.0,188.0,/static/Size_judgement/Stimuli/Size_stims/XL/van/van2.jpg,/static/Size_judgement/Stimuli/Size_stims/XL/tractor/tractor9.jpg,0.0,tractor,van,XL,XL,4.0,4.0,tractor9,van6,,230.949,0.449,0.0,
227,,size_choice_confirmation,,html-keyboard-response,227,290102,0.0-1.0-299.0-0.0,0,0,60382,,,,,,74.0,,,,,,,,,,,,,,,,,,,,,,,,,,,,232.0,1.051,,
228,,iti,,html-keyboard-response,228,291103,0.0-1.0-300.0,0,0,60382,,,,,,,,,,,,,,,,,,,,,,,,,,,,,,,,,,233.0,1.0,,
229,,size_choice,,html-keyboard-response,229,291554,0.0-1.0-302.0,0,0,60382,,450.0,,,75.0,75.0,75.0,2.0,1500.0,M-XL,0.0,M,XL,2.0,4.0,basketball,van,basketball7,van7,56.0,196.0,/static/Size_judgement/Stimuli/Size_stims/M/basketball/basketball6.jpg,/static/Size_judgement/Stimuli/Size_stims/XL/van/van1.jpg,0.0,van,basketball,XL,M,4.0,2.0,van7,basketball7,1.0,233.45,0.45,0.0,
230,,size_choice_confirmation,,html-keyboard-response,230,292607,0.0-1.0-303.0-0.0,0,0,60382,,,,,,75.0,,,,,,,,,,,,,,,,,,,,,,,,,,,,234.5,1.05,,
231,,iti,,html-keyboard-response,231,294108,0.0-1.0-304.0,0,0,60382,,,,,,,,,,,,,,,,,,,,,,,,,,,,,,,,,,236.0,1.5,,
232,,size_choice,,html-keyboard-response,232,294650,0.0-1.0-306.0,0,0,60382,,539.0,,,68.0,76.0,76.0,2.0,1500.0,S-XL,1.0,XL,S,4.0,1.0,dumptruck,teabag,dumptruck7,teabag5,176.0,134.0,/static/Size_judgement/Stimuli/Size_stims/XL/dumptruck/dumptruck6.jpg,/static/Size_judgement/Stimuli/Size_stims/S/teabag/teabag2.jpg,1.0,dumptruck,teabag,XL,S,4.0,1.0,dumptruck7,teabag5,1.0,236.539,0.539,0.0,
233,,size_choice_confirmation,,html-keyboard-response,233,295613,0.0-1.0-307.0-0.0,0,0,60382,,,,,,76.0,,,,,,,,,,,,,,,,,,,,,,,,,,,,237.5,0.961,,
234,,iti,,html-keyboard-response,234,297115,0.0-1.0-308.0,0,0,60382,,,,,,,,,,,,,,,,,,,,,,,,,,,,,,,,,,239.0,1.5,,
235,,size_choice,,html-keyboard-response,235,297641,0.0-1.0-310.0,0,0,60382,,523.0,,,75.0,77.0,77.0,2.0,1500.0,M-L,0.0,M,L,2.0,3.0,ketchup,deskchair,ketchup8,deskchair6,97.0,15.0,/static/Size_judgement/Stimuli/Size_stims/M/ketchup/ketchup5.jpg,/static/Size_judgement/Stimuli/Size_stims/L/deskchair/deskchair5.jpg,0.0,deskchair,ketchup,L,M,3.0,2.0,deskchair6,ketchup8,1.0,239.523,0.523,0.0,
236,,size_choice_confirmation,,html-keyboard-response,236,298620,0.0-1.0-311.0-0.0,0,0,60382,,,,,,77.0,,,,,,,,,,,,,,,,,,,,,,,,,,,,240.5,0.977,,
237,,iti,,html-keyboard-response,237,300121,0.0-1.0-312.0,0,0,60382,,,,,,,,,,,,,,,,,,,,,,,,,,,,,,,,,,242.0,1.5,,
238,,size_choice,,html-keyboard-response,238,300650,0.0-1.0-314.0,0,0,60382,,526.0,,,68.0,78.0,78.0,2.0,3000.0,S-XL,1.0,XL,S,4.0,1.0,crane,paperclip,crane2,paperclip7,161.0,116.0,/static/Size_judgement/Stimuli/Size_stims/XL/crane/crane6.jpg,/static/Size_judgement/Stimuli/Size_stims/S/paperclip/paperclip7.jpg,1.0,crane,paperclip,XL,S,4.0,1.0,crane2,paperclip7,1.0,242.526,0.526,0.0,
239,,size_choice_confirmation,,html-keyboard-response,239,301626,0.0-1.0-315.0-0.0,0,0,60382,,,,,,78.0,,,,,,,,,,,,,,,,,,,,,,,,,,,,243.5,0.974,,
240,,iti,,html-keyboard-response,240,304628,0.0-1.0-316.0,0,0,60382,,,,,,,,,,,,,,,,,,,,,,,,,,,,,,,,,,246.5,3.0,,
241,,size_choice,,html-keyboard-response,241,305218,0.0-1.0-318.0,0,0,60382,,588.0,,,68.0,79.0,79.0,2.0,3500.0,M-XL,1.0,XL,M,4.0,2.0,crane,coffeemaker,crane10,coffeemaker2,169.0,61.0,/static/Size_judgement/Stimuli/Size_stims/XL/crane/crane9.jpg,/static/Size_judgement/Stimuli/Size_stims/M/coffeemaker/coffeemaker12.jpg,1.0,crane,coffeemaker,XL,M,4.0,2.0,crane10,coffeemaker2,1.0,247.088,0.588,0.0,
242,,size_choice_confirmation,,html-keyboard-response,242,306132,0.0-1.0-319.0-0.0,0,0,60382,,,,,,79.0,,,,,,,,,,,,,,,,,,,,,,,,,,,,248.0,0.912,,
243,,iti,,html-keyboard-response,243,309634,0.0-1.0-320.0,0,0,60382,,,,,,,,,,,,,,,,,,,,,,,,,,,,,,,,,,251.5,3.5,,
244,,size_choice,,html-keyboard-response,244,310172,0.0-1.0-322.0,0,0,60382,,535.0,,,68.0,80.0,80.0,2.0,3000.0,S-L,1.0,L,S,3.0,1.0,mailbox,screws,mailbox4,screws1,43.0,120.0,/static/Size_judgement/Stimuli/Size_stims/L/mailbox/mailbox5.jpg,/static/Size_judgement/Stimuli/Size_stims/S/screws/screws4.jpg,1.0,mailbox,screws,L,S,3.0,1.0,mailbox4,screws1,1.0,252.035,0.535,0.0,
245,,size_choice_confirmation,,html-keyboard-response,245,311140,0.0-1.0-323.0-0.0,0,0,60382,,,,,,80.0,,,,,,,,,,,,,,,,,,,,,,,,,,,,253.0,0.965,,
246,,iti,,html-keyboard-response,246,314142,0.0-1.0-324.0,0,0,60382,,,,,,,,,,,,,,,,,,,,,,,,,,,,,,,,,,256.0,3.0,,
247,,size_choice,,html-keyboard-response,247,314568,0.0-1.0-326.0,0,0,60382,,424.0,,,68.0,81.0,81.0,2.0,1000.0,S-L,1.0,L,S,3.0,1.0,dishwasher,teabag,dishwasher6,teabag1,25.0,130.0,/static/Size_judgement/Stimuli/Size_stims/L/dishwasher/dishwasher6.jpg,/static/Size_judgement/Stimuli/Size_stims/S/teabag/teabag9.jpg,1.0,dishwasher,teabag,L,S,3.0,1.0,dishwasher6,teabag1,1.0,256.424,0.424,0.0,
248,,size_choice_confirmation,,html-keyboard-response,248,315649,0.0-1.0-327.0-0.0,0,0,60382,,,,,,81.0,,,,,,,,,,,,,,,,,,,,,,,,,,,,257.5,1.076,,
249,,iti,,html-keyboard-response,249,316650,0.0-1.0-328.0,0,0,60382,,,,,,,,,,,,,,,,,,,,,,,,,,,,,,,,,,258.5,1.0,,
250,,size_choice,,html-keyboard-response,250,317374,0.0-1.0-330.0,0,0,60382,,720.0,,,68.0,82.0,82.0,2.0,1000.0,M-L,1.0,L,M,3.0,2.0,garbagecan,basketball,garbagecan5,basketball1,34.0,50.0,/static/Size_judgement/Stimuli/Size_stims/L/garbagecan/garbagecan3.jpg,/static/Size_judgement/Stimuli/Size_stims/M/basketball/basketball9.jpg,1.0,garbagecan,basketball,L,M,3.0,2.0,garbagecan5,basketball1,1.0,259.22,0.72,0.0,
251,,size_choice_confirmation,,html-keyboard-response,251,318157,0.0-1.0-331.0-0.0,0,0,60382,,,,,,82.0,,,,,,,,,,,,,,,,,,,,,,,,,,,,260.0,0.78,,
252,,iti,,html-keyboard-response,252,319160,0.0-1.0-332.0,0,0,60382,,,,,,,,,,,,,,,,,,,,,,,,,,,,,,,,,,261.0,1.0,,
253,,size_choice,,html-keyboard-response,253,319622,0.0-1.0-334.0,0,0,60382,,461.0,,,68.0,83.0,83.0,2.0,3000.0,S-XL,1.0,XL,S,4.0,1.0,crane,screws,crane3,screws7,162.0,126.0,/static/Size_judgement/Stimuli/Size_stims/XL/crane/crane4.jpg,/static/Size_judgement/Stimuli/Size_stims/S/screws/screws1.jpg,1.0,crane,screws,XL,S,4.0,1.0,crane3,screws7,1.0,261.461,0.461,0.0,
254,,size_choice_confirmation,,html-keyboard-response,254,320736,0.0-1.0-335.0-0.0,0,0,60382,,,,,,83.0,,,,,,,,,,,,,,,,,,,,,,,,,,,,262.5,1.039,,
255,,iti,,html-keyboard-response,255,323738,0.0-1.0-336.0,0,0,60382,,,,,,,,,,,,,,,,,,,,,,,,,,,,,,,,,,265.5,3.0,,
256,,size_choice,,html-keyboard-response,256,324190,0.0-1.0-338.0,0,0,60382,,449.0,,,68.0,84.0,84.0,2.0,3500.0,S-L,1.0,L,S,3.0,1.0,deskchair,screws,deskchair9,screws3,18.0,122.0,/static/Size_judgement/Stimuli/Size_stims/L/deskchair/deskchair3.jpg,/static/Size_judgement/Stimuli/Size_stims/S/screws/screws7.jpg,1.0,deskchair,screws,L,S,3.0,1.0,deskchair9,screws3,1.0,265.949,0.449,0.0,
257,,size_choice_confirmation,,html-keyboard-response,257,325243,0.0-1.0-339.0-0.0,0,0,60382,,,,,,84.0,,,,,,,,,,,,,,,,,,,,,,,,,,,,267.0,1.051,,
258,,iti,,html-keyboard-response,258,328744,0.0-1.0-340.0,0,0,60382,,,,,,,,,,,,,,,,,,,,,,,,,,,,,,,,,,270.5,3.5,,
259,,size_choice,,html-keyboard-response,259,329457,0.0-1.0-342.0,0,0,60382,,711.0,,,75.0,85.0,85.0,2.0,1500.0,S-L,0.0,S,L,1.0,3.0,die,mailbox,die7,mailbox2,106.0,41.0,/static/Size_judgement/Stimuli/Size_stims/S/die/die4.jpg,/static/Size_judgement/Stimuli/Size_stims/L/mailbox/mailbox2.jpg,0.0,mailbox,die,L,S,3.0,1.0,mailbox2,die7,1.0,271.211,0.711,0.0,
260,,size_choice_confirmation,,html-keyboard-response,260,330248,0.0-1.0-343.0-0.0,0,0,60382,,,,,,85.0,,,,,,,,,,,,,,,,,,,,,,,,,,,,272.0,0.789,,
261,,iti,,html-keyboard-response,261,331750,0.0-1.0-344.0,0,0,60382,,,,,,,,,,,,,,,,,,,,,,,,,,,,,,,,,,273.5,1.5,,
262,,size_choice,,html-keyboard-response,262,332349,0.0-1.0-346.0,0,0,60382,,597.0,,,75.0,86.0,86.0,2.0,1000.0,M-XL,0.0,M,XL,2.0,4.0,coffeemaker,tractor,coffeemaker9,tractor3,68.0,182.0,/static/Size_judgement/Stimuli/Size_stims/M/coffeemaker/coffeemaker7.jpg,/static/Size_judgement/Stimuli/Size_stims/XL/tractor/tractor5.jpg,0.0,tractor,coffeemaker,XL,M,4.0,2.0,tractor3,coffeemaker9,1.0,274.097,0.597,0.0,
263,,size_choice_confirmation,,html-keyboard-response,263,333254,0.0-1.0-347.0-0.0,0,0,60382,,,,,,86.0,,,,,,,,,,,,,,,,,,,,,,,,,,,,275.0,0.903,,
264,,iti,,html-keyboard-response,264,334257,0.0-1.0-348.0,0,0,60382,,,,,,,,,,,,,,,,,,,,,,,,,,,,,,,,,,276.0,1.0,,
265,,size_choice,,html-keyboard-response,265,335016,0.0-1.0-350.0,0,0,60382,,758.0,,,68.0,87.0,87.0,2.0,1000.0,XL-XL,,XL,XL,4.0,4.0,van,tractor,van9,tractor1,198.0,180.0,/static/Size_judgement/Stimuli/Size_stims/XL/van/van9.jpg,/static/Size_judgement/Stimuli/Size_stims/XL/tractor/tractor6.jpg,1.0,van,tractor,XL,XL,4.0,4.0,van9,tractor1,,276.758,0.758,0.0,
266,,size_choice_confirmation,,html-keyboard-response,266,335761,0.0-1.0-351.0-0.0,0,0,60382,,,,,,87.0,,,,,,,,,,,,,,,,,,,,,,,,,,,,277.5,0.742,,
267,,iti,,html-keyboard-response,267,336779,0.0-1.0-352.0,0,0,60382,,,,,,,,,,,,,,,,,,,,,,,,,,,,,,,,,,278.5,1.0,,
268,,size_choice,,html-keyboard-response,268,337351,0.0-1.0-354.0,0,0,60382,,570.0,,,68.0,88.0,88.0,2.0,1500.0,S-XL,1.0,XL,S,4.0,1.0,crane,die,crane7,die4,166.0,103.0,/static/Size_judgement/Stimuli/Size_stims/XL/crane/crane3.jpg,/static/Size_judgement/Stimuli/Size_stims/S/die/die2.jpg,1.0,crane,die,XL,S,4.0,1.0,crane7,die4,1.0,279.07,0.57,0.0,
269,,size_choice_confirmation,,html-keyboard-response,269,338284,0.0-1.0-355.0-0.0,0,0,60382,,,,,,88.0,,,,,,,,,,,,,,,,,,,,,,,,,,,,280.0,0.93,,
270,,iti,,html-keyboard-response,270,339786,0.0-1.0-356.0,0,0,60382,,,,,,,,,,,,,,,,,,,,,,,,,,,,,,,,,,281.5,1.5,,
271,,size_choice,,html-keyboard-response,271,340384,0.0-1.0-358.0,0,0,60382,,595.0,,,75.0,89.0,89.0,2.0,1000.0,M-L,0.0,M,L,2.0,3.0,coffeemaker,mailbox,coffeemaker8,mailbox8,67.0,47.0,/static/Size_judgement/Stimuli/Size_stims/M/coffeemaker/coffeemaker5.jpg,/static/Size_judgement/Stimuli/Size_stims/L/mailbox/mailbox10.jpg,0.0,mailbox,coffeemaker,L,M,3.0,2.0,mailbox8,coffeemaker8,1.0,282.095,0.595,0.0,
272,,size_choice_confirmation,,html-keyboard-response,272,341291,0.0-1.0-359.0-0.0,0,0,60382,,,,,,89.0,,,,,,,,,,,,,,,,,,,,,,,,,,,,283.0,0.905,,
273,,iti,,html-keyboard-response,273,342294,0.0-1.0-360.0,0,0,60382,,,,,,,,,,,,,,,,,,,,,,,,,,,,,,,,,,284.0,1.0,,0.83
274,,size_final_tally,,html-keyboard-response,274,343867,0.0-2.0,0,0,60382,,1571.0,,,68.0,,,,,,,,,,,,,,,,,,,,,,,,,,,,,,,,
