,success,ttype,start_time,trial_type,trial_index,time_elapsed,internal_node_id,warning,missed_checkup,PID,view_history,rt,responses,repeat_instructions,key_press,index,trial_num,block,iti,pair_type,high_size_on_left,left_size_group,right_size_group,left_size_num,right_size_num,left_category,right_category,left_exemplar,right_exemplar,left_index,right_index,left_img_path,right_img_path,left_chosen,chosen_category,unchosen_category,chosen_size_group,unchosen_size_group,chosen_size_num,unchosen_size_num,chosen_exemplar,unchosen_exemplar,accuracy,onset,duration,no_response,size_final_tally
0,True,full_screen,d06072022hr1158,fullscreen,0,2950,0.0-0.0,0,0,44248,,,,,,,,,,,,,,,,,,,,,,,,,,,,,,,,,,,,,
1,,size_instructions,,instructions,1,24603,0.0-1.0-0.0-0.0,0,0,44248,"[{""page_index"":0,""viewing_time"":8099},{""page_index"":1,""viewing_time"":2934},{""page_index"":2,""viewing_time"":1652},{""page_index"":3,""viewing_time"":2254},{""page_index"":4,""viewing_time"":2305},{""page_index"":5,""viewing_time"":4407}]",21652.0,,,,,,,,,,,,,,,,,,,,,,,,,,,,,,,,,,,
2,,size_comprehension_check,,survey-multi-choice,2,38287,0.0-1.0-0.0-1.0,0,0,44248,,13681.0,"{""Q0"":""True"",""Q1"":""Size in the real world"",""Q2"":""True"",""Q3"":""D for left and K for right""}",0.0,,,,,,,,,,,,,,,,,,,,,,,,,,,,,,,,,
3,,,,html-keyboard-response,3,39179,0.0-1.0-1.0,0,0,44248,,890.0,,,68.0,,,,,,,,,,,,,,,,,,,,,,,,,,,,,,,,
4,,size_choice,,html-keyboard-response,4,40122,0.0-1.0-2.0,0,0,44248,,942.0,,,75.0,0.0,0.0,1.0,2000.0,L-L,,L,L,3.0,3.0,deskchair,mailbox,deskchair10,mailbox3,19.0,42.0,/static/Size_judgement/Stimuli/Size_stims/L/deskchair/deskchair2.jpg,/static/Size_judgement/Stimuli/Size_stims/L/mailbox/mailbox1.jpg,0.0,mailbox,deskchair,L,L,3.0,3.0,mailbox3,deskchair10,,0.942,0.942,0.0,
5,,size_choice_confirmation,,html-keyboard-response,5,40683,0.0-1.0-3.0-0.0,0,0,44248,,,,,,0.0,,1.0,,,,,,,,,,,,,,,,,,,,,,,,,,1.5,0.558,,
6,,iti,,html-keyboard-response,6,42684,0.0-1.0-4.0,0,0,44248,,,,,,0.0,,1.0,,,,,,,,,,,,,,,,,,,,,,,,,,3.5,2.0,,
7,,size_choice,,html-keyboard-response,7,43930,0.0-1.0-6.0,0,0,44248,,1245.0,,,68.0,1.0,1.0,1.0,1000.0,S-XL,1.0,XL,S,4.0,1.0,dumptruck,teabag,dumptruck9,teabag3,178.0,132.0,/static/Size_judgement/Stimuli/Size_stims/XL/dumptruck/dumptruck5.jpg,/static/Size_judgement/Stimuli/Size_stims/S/teabag/teabag1.jpg,1.0,dumptruck,teabag,XL,S,4.0,1.0,dumptruck9,teabag3,1.0,4.745,1.245,0.0,
8,,size_choice_confirmation,,html-keyboard-response,8,44186,0.0-1.0-7.0-0.0,0,0,44248,,,,,,1.0,,1.0,,,,,,,,,,,,,,,,,,,,,,,,,,5.0,0.255,,
9,,iti,,html-keyboard-response,9,45187,0.0-1.0-8.0,0,0,44248,,,,,,1.0,,1.0,,,,,,,,,,,,,,,,,,,,,,,,,,6.0,1.0,,
10,,size_choice,,html-keyboard-response,10,45994,0.0-1.0-10.0,0,0,44248,,806.0,,,68.0,2.0,2.0,1.0,1000.0,M-L,1.0,L,M,3.0,2.0,mailbox,ketchup,mailbox9,ketchup7,48.0,96.0,/static/Size_judgement/Stimuli/Size_stims/L/mailbox/mailbox9.jpg,/static/Size_judgement/Stimuli/Size_stims/M/ketchup/ketchup4.jpg,1.0,mailbox,ketchup,L,M,3.0,2.0,mailbox9,ketchup7,1.0,6.806,0.806,0.0,
11,,size_choice_confirmation,,html-keyboard-response,11,46689,0.0-1.0-11.0-0.0,0,0,44248,,,,,,2.0,,1.0,,,,,,,,,,,,,,,,,,,,,,,,,,7.5,0.694,,
12,,iti,,html-keyboard-response,12,47691,0.0-1.0-12.0,0,0,44248,,,,,,2.0,,1.0,,,,,,,,,,,,,,,,,,,,,,,,,,8.5,1.0,,
13,,size_choice,,html-keyboard-response,13,48370,0.0-1.0-14.0,0,0,44248,,678.0,,,68.0,3.0,3.0,1.0,2000.0,M-XL,1.0,XL,M,4.0,2.0,dumptruck,ketchup,dumptruck4,ketchup2,173.0,91.0,/static/Size_judgement/Stimuli/Size_stims/XL/dumptruck/dumptruck1.jpg,/static/Size_judgement/Stimuli/Size_stims/M/ketchup/ketchup9.jpg,1.0,dumptruck,ketchup,XL,M,4.0,2.0,dumptruck4,ketchup2,1.0,9.178,0.678,0.0,
14,,size_choice_confirmation,,html-keyboard-response,14,49194,0.0-1.0-15.0-0.0,0,0,44248,,,,,,3.0,,1.0,,,,,,,,,,,,,,,,,,,,,,,,,,10.0,0.822,,
15,,iti,,html-keyboard-response,15,51195,0.0-1.0-16.0,0,0,44248,,,,,,3.0,,1.0,,,,,,,,,,,,,,,,,,,,,,,,,,12.0,2.0,,
16,,size_choice,,html-keyboard-response,16,51938,0.0-1.0-18.0,0,0,44248,,742.0,,,68.0,4.0,4.0,1.0,1000.0,L-XL,0.0,L,XL,3.0,4.0,garbagecan,dumptruck,garbagecan9,dumptruck7,38.0,176.0,/static/Size_judgement/Stimuli/Size_stims/L/garbagecan/garbagecan12.jpg,/static/Size_judgement/Stimuli/Size_stims/XL/dumptruck/dumptruck6.jpg,1.0,garbagecan,dumptruck,L,XL,3.0,4.0,garbagecan9,dumptruck7,0.0,12.742,0.742,0.0,
17,,size_choice_confirmation,,html-keyboard-response,17,52698,0.0-1.0-19.0-0.0,0,0,44248,,,,,,4.0,,1.0,,,,,,,,,,,,,,,,,,,,,,,,,,13.5,0.758,,
18,,iti,,html-keyboard-response,18,53699,0.0-1.0-20.0,0,0,44248,,,,,,4.0,,1.0,,,,,,,,,,,,,,,,,,,,,,,,,,14.5,1.0,,
19,,size_choice,,html-keyboard-response,19,54626,0.0-1.0-22.0,0,0,44248,,926.0,,,68.0,5.0,5.0,1.0,1500.0,S-L,1.0,L,S,3.0,1.0,mailbox,thread,mailbox8,thread8,47.0,147.0,/static/Size_judgement/Stimuli/Size_stims/L/mailbox/mailbox10.jpg,/static/Size_judgement/Stimuli/Size_stims/S/thread/thread10.jpg,1.0,mailbox,thread,L,S,3.0,1.0,mailbox8,thread8,1.0,15.426,0.926,0.0,
20,,size_choice_confirmation,,html-keyboard-response,20,55202,0.0-1.0-23.0-0.0,0,0,44248,,,,,,5.0,,1.0,,,,,,,,,,,,,,,,,,,,,,,,,,16.0,0.574,,
21,,iti,,html-keyboard-response,21,56703,0.0-1.0-24.0,0,0,44248,,,,,,5.0,,1.0,,,,,,,,,,,,,,,,,,,,,,,,,,17.5,1.5,,
22,,size_choice,,html-keyboard-response,22,57915,0.0-1.0-26.0,0,0,44248,,1211.0,,,68.0,6.0,6.0,1.0,2000.0,S-L,1.0,L,S,3.0,1.0,garbagecan,teabag,garbagecan6,teabag10,35.0,139.0,/static/Size_judgement/Stimuli/Size_stims/L/garbagecan/garbagecan14.jpg,/static/Size_judgement/Stimuli/Size_stims/S/teabag/teabag4.jpg,1.0,garbagecan,teabag,L,S,3.0,1.0,garbagecan6,teabag10,1.0,18.711,1.211,0.0,
23,,size_choice_confirmation,,html-keyboard-response,23,58206,0.0-1.0-27.0-0.0,0,0,44248,,,,,,6.0,,1.0,,,,,,,,,,,,,,,,,,,,,,,,,,19.0,0.289,,
24,,iti,,html-keyboard-response,24,60208,0.0-1.0-28.0,0,0,44248,,,,,,6.0,,1.0,,,,,,,,,,,,,,,,,,,,,,,,,,21.0,2.0,,
25,,size_choice,,html-keyboard-response,25,60802,0.0-1.0-30.0,0,0,44248,,594.0,,,68.0,7.0,7.0,1.0,1000.0,M-XL,1.0,XL,M,4.0,2.0,car,ketchup,car2,ketchup5,151.0,94.0,/static/Size_judgement/Stimuli/Size_stims/XL/car/car3.jpg,/static/Size_judgement/Stimuli/Size_stims/M/ketchup/ketchup3.jpg,1.0,car,ketchup,XL,M,4.0,2.0,car2,ketchup5,1.0,21.594,0.594,0.0,
26,,size_choice_confirmation,,html-keyboard-response,26,61709,0.0-1.0-31.0-0.0,0,0,44248,,,,,,7.0,,1.0,,,,,,,,,,,,,,,,,,,,,,,,,,22.5,0.906,,
27,,iti,,html-keyboard-response,27,62711,0.0-1.0-32.0,0,0,44248,,,,,,7.0,,1.0,,,,,,,,,,,,,,,,,,,,,,,,,,23.5,1.0,,
28,,size_choice,,html-keyboard-response,28,63642,0.0-1.0-34.0,0,0,44248,,930.0,,,68.0,8.0,8.0,1.0,1000.0,XL-XL,,XL,XL,4.0,4.0,van,car,van3,car4,192.0,153.0,/static/Size_judgement/Stimuli/Size_stims/XL/van/van6.jpg,/static/Size_judgement/Stimuli/Size_stims/XL/car/car6.jpg,1.0,van,car,XL,XL,4.0,4.0,van3,car4,,24.43,0.93,0.0,
29,,size_choice_confirmation,,html-keyboard-response,29,64213,0.0-1.0-35.0-0.0,0,0,44248,,,,,,8.0,,1.0,,,,,,,,,,,,,,,,,,,,,,,,,,25.0,0.57,,
30,,iti,,html-keyboard-response,30,65214,0.0-1.0-36.0,0,0,44248,,,,,,8.0,,1.0,,,,,,,,,,,,,,,,,,,,,,,,,,26.0,1.0,,
31,,size_choice,,html-keyboard-response,31,65938,0.0-1.0-38.0,0,0,44248,,723.0,,,75.0,9.0,9.0,1.0,1500.0,S-XL,0.0,S,XL,1.0,4.0,teabag,dumptruck,teabag8,dumptruck8,137.0,177.0,/static/Size_judgement/Stimuli/Size_stims/S/teabag/teabag7.jpg,/static/Size_judgement/Stimuli/Size_stims/XL/dumptruck/dumptruck7.jpg,0.0,dumptruck,teabag,XL,S,4.0,1.0,dumptruck8,teabag8,1.0,26.723,0.723,0.0,
32,,size_choice_confirmation,,html-keyboard-response,32,66717,0.0-1.0-39.0-0.0,0,0,44248,,,,,,9.0,,1.0,,,,,,,,,,,,,,,,,,,,,,,,,,27.5,0.777,,
33,,iti,,html-keyboard-response,33,68219,0.0-1.0-40.0,0,0,44248,,,,,,9.0,,1.0,,,,,,,,,,,,,,,,,,,,,,,,,,29.0,1.5,,
34,,size_choice,,html-keyboard-response,34,69434,0.0-1.0-42.0,0,0,44248,,1215.0,,,68.0,10.0,10.0,1.0,1000.0,M-M,,M,M,2.0,2.0,handsaw,ketchup,handsaw4,ketchup9,83.0,98.0,/static/Size_judgement/Stimuli/Size_stims/M/handsaw/handsaw3.jpg,/static/Size_judgement/Stimuli/Size_stims/M/ketchup/ketchup7.jpg,1.0,handsaw,ketchup,M,M,2.0,2.0,handsaw4,ketchup9,,30.215,1.215,0.0,
35,,size_choice_confirmation,,html-keyboard-response,35,69722,0.0-1.0-43.0-0.0,0,0,44248,,,,,,10.0,,1.0,,,,,,,,,,,,,,,,,,,,,,,,,,30.5,0.285,,
36,,iti,,html-keyboard-response,36,70723,0.0-1.0-44.0,0,0,44248,,,,,,10.0,,1.0,,,,,,,,,,,,,,,,,,,,,,,,,,31.5,1.0,,
37,,size_choice,,html-keyboard-response,37,71810,0.0-1.0-46.0,0,0,44248,,1087.0,,,75.0,11.0,11.0,1.0,1000.0,M-L,0.0,M,L,2.0,3.0,hairdryer,garbagecan,hairdryer6,garbagecan3,75.0,32.0,/static/Size_judgement/Stimuli/Size_stims/M/hairdryer/hairdryer8.jpg,/static/Size_judgement/Stimuli/Size_stims/L/garbagecan/garbagecan7.jpg,0.0,garbagecan,hairdryer,L,M,3.0,2.0,garbagecan3,hairdryer6,1.0,32.587,1.087,0.0,
38,,size_choice_confirmation,,html-keyboard-response,38,72225,0.0-1.0-47.0-0.0,0,0,44248,,,,,,11.0,,1.0,,,,,,,,,,,,,,,,,,,,,,,,,,33.0,0.413,,
39,,iti,,html-keyboard-response,39,73226,0.0-1.0-48.0,0,0,44248,,,,,,11.0,,1.0,,,,,,,,,,,,,,,,,,,,,,,,,,34.0,1.0,,
40,,size_choice,,html-keyboard-response,40,74258,0.0-1.0-50.0,0,0,44248,,1031.0,,,75.0,12.0,12.0,1.0,2000.0,M-L,0.0,M,L,2.0,3.0,coffeemaker,garbagecan,coffeemaker5,garbagecan4,64.0,33.0,/static/Size_judgement/Stimuli/Size_stims/M/coffeemaker/coffeemaker10.jpg,/static/Size_judgement/Stimuli/Size_stims/L/garbagecan/garbagecan6.jpg,0.0,garbagecan,coffeemaker,L,M,3.0,2.0,garbagecan4,coffeemaker5,1.0,35.031,1.031,0.0,
41,,size_choice_confirmation,,html-keyboard-response,41,74728,0.0-1.0-51.0-0.0,0,0,44248,,,,,,12.0,,1.0,,,,,,,,,,,,,,,,,,,,,,,,,,35.5,0.469,,
42,,iti,,html-keyboard-response,42,76730,0.0-1.0-52.0,0,0,44248,,,,,,12.0,,1.0,,,,,,,,,,,,,,,,,,,,,,,,,,37.5,2.0,,
43,,size_choice,,html-keyboard-response,43,77418,0.0-1.0-54.0,0,0,44248,,688.0,,,75.0,13.0,13.0,1.0,1000.0,S-L,0.0,S,L,1.0,3.0,screws,garbagecan,screws10,garbagecan2,129.0,31.0,/static/Size_judgement/Stimuli/Size_stims/S/screws/screws9.jpg,/static/Size_judgement/Stimuli/Size_stims/L/garbagecan/garbagecan5.jpg,0.0,garbagecan,screws,L,S,3.0,1.0,garbagecan2,screws10,1.0,38.188,0.688,0.0,
44,,size_choice_confirmation,,html-keyboard-response,44,78243,0.0-1.0-55.0-0.0,0,0,44248,,,,,,13.0,,1.0,,,,,,,,,,,,,,,,,,,,,,,,,,39.0,0.812,,
45,,iti,,html-keyboard-response,45,79245,0.0-1.0-56.0,0,0,44248,,,,,,13.0,,1.0,,,,,,,,,,,,,,,,,,,,,,,,,,40.0,1.0,,
46,,size_choice,,html-keyboard-response,46,80258,0.0-1.0-58.0,0,0,44248,,1012.0,,,68.0,14.0,14.0,1.0,1000.0,M-XL,1.0,XL,M,4.0,2.0,dumptruck,hairdryer,dumptruck5,hairdryer4,174.0,73.0,/static/Size_judgement/Stimuli/Size_stims/XL/dumptruck/dumptruck3.jpg,/static/Size_judgement/Stimuli/Size_stims/M/hairdryer/hairdryer16.jpg,1.0,dumptruck,hairdryer,XL,M,4.0,2.0,dumptruck5,hairdryer4,1.0,41.012,1.012,0.0,
47,,size_choice_confirmation,,html-keyboard-response,47,80747,0.0-1.0-59.0-0.0,0,0,44248,,,,,,14.0,,1.0,,,,,,,,,,,,,,,,,,,,,,,,,,41.5,0.488,,
48,,iti,,html-keyboard-response,48,81749,0.0-1.0-60.0,0,0,44248,,,,,,14.0,,1.0,,,,,,,,,,,,,,,,,,,,,,,,,,42.5,1.0,,
49,,size_choice,,html-keyboard-response,49,82626,0.0-1.0-62.0,0,0,44248,,877.0,,,68.0,15.0,15.0,1.0,1000.0,S-XL,1.0,XL,S,4.0,1.0,van,screws,van5,screws1,194.0,120.0,/static/Size_judgement/Stimuli/Size_stims/XL/van/van3.jpg,/static/Size_judgement/Stimuli/Size_stims/S/screws/screws4.jpg,1.0,van,screws,XL,S,4.0,1.0,van5,screws1,1.0,43.377,0.877,0.0,
50,,size_choice_confirmation,,html-keyboard-response,50,83251,0.0-1.0-63.0-0.0,0,0,44248,,,,,,15.0,,1.0,,,,,,,,,,,,,,,,,,,,,,,,,,44.0,0.623,,
51,,iti,,html-keyboard-response,51,84253,0.0-1.0-64.0,0,0,44248,,,,,,15.0,,1.0,,,,,,,,,,,,,,,,,,,,,,,,,,45.0,1.0,,
52,,size_choice,,html-keyboard-response,52,84866,0.0-1.0-66.0,0,0,44248,,613.0,,,75.0,16.0,16.0,1.0,3000.0,S-M,0.0,S,M,1.0,2.0,teabag,coffeemaker,teabag9,coffeemaker8,138.0,67.0,/static/Size_judgement/Stimuli/Size_stims/S/teabag/teabag5.jpg,/static/Size_judgement/Stimuli/Size_stims/M/coffeemaker/coffeemaker5.jpg,0.0,coffeemaker,teabag,M,S,2.0,1.0,coffeemaker8,teabag9,1.0,45.613,0.613,0.0,
53,,size_choice_confirmation,,html-keyboard-response,53,85756,0.0-1.0-67.0-0.0,0,0,44248,,,,,,16.0,,1.0,,,,,,,,,,,,,,,,,,,,,,,,,,46.5,0.887,,
54,,iti,,html-keyboard-response,54,88757,0.0-1.0-68.0,0,0,44248,,,,,,16.0,,1.0,,,,,,,,,,,,,,,,,,,,,,,,,,49.5,3.0,,
55,,size_choice,,html-keyboard-response,55,89458,0.0-1.0-70.0,0,0,44248,,701.0,,,68.0,17.0,17.0,1.0,1000.0,M-XL,1.0,XL,M,4.0,2.0,dumptruck,hairdryer,dumptruck10,hairdryer8,179.0,77.0,/static/Size_judgement/Stimuli/Size_stims/XL/dumptruck/dumptruck4.jpg,/static/Size_judgement/Stimuli/Size_stims/M/hairdryer/hairdryer1.jpg,1.0,dumptruck,hairdryer,XL,M,4.0,2.0,dumptruck10,hairdryer8,1.0,50.201,0.701,0.0,
56,,size_choice_confirmation,,html-keyboard-response,56,90261,0.0-1.0-71.0-0.0,0,0,44248,,,,,,17.0,,1.0,,,,,,,,,,,,,,,,,,,,,,,,,,51.0,0.799,,
57,,iti,,html-keyboard-response,57,91264,0.0-1.0-72.0,0,0,44248,,,,,,17.0,,1.0,,,,,,,,,,,,,,,,,,,,,,,,,,52.0,1.0,,
58,,size_choice,,html-keyboard-response,58,91930,0.0-1.0-74.0,0,0,44248,,666.0,,,75.0,18.0,18.0,1.0,1500.0,S-L,0.0,S,L,1.0,3.0,die,mailbox,die10,mailbox10,109.0,49.0,/static/Size_judgement/Stimuli/Size_stims/S/die/die6.jpg,/static/Size_judgement/Stimuli/Size_stims/L/mailbox/mailbox8.jpg,0.0,mailbox,die,L,S,3.0,1.0,mailbox10,die10,1.0,52.666,0.666,0.0,
59,,size_choice_confirmation,,html-keyboard-response,59,92766,0.0-1.0-75.0-0.0,0,0,44248,,,,,,18.0,,1.0,,,,,,,,,,,,,,,,,,,,,,,,,,53.5,0.834,,
60,,iti,,html-keyboard-response,60,94267,0.0-1.0-76.0,0,0,44248,,,,,,18.0,,1.0,,,,,,,,,,,,,,,,,,,,,,,,,,55.0,1.5,,
61,,size_choice,,html-keyboard-response,61,94794,0.0-1.0-78.0,0,0,44248,,527.0,,,68.0,19.0,19.0,1.0,1000.0,S-XL,1.0,XL,S,4.0,1.0,dumptruck,die,dumptruck1,die6,170.0,105.0,/static/Size_judgement/Stimuli/Size_stims/XL/dumptruck/dumptruck9.jpg,/static/Size_judgement/Stimuli/Size_stims/S/die/die1.jpg,1.0,dumptruck,die,XL,S,4.0,1.0,dumptruck1,die6,1.0,55.527,0.527,0.0,
62,,size_choice_confirmation,,html-keyboard-response,62,95769,0.0-1.0-79.0-0.0,0,0,44248,,,,,,19.0,,1.0,,,,,,,,,,,,,,,,,,,,,,,,,,56.5,0.973,,
63,,iti,,html-keyboard-response,63,96771,0.0-1.0-80.0,0,0,44248,,,,,,19.0,,1.0,,,,,,,,,,,,,,,,,,,,,,,,,,57.5,1.0,,
64,,size_choice,,html-keyboard-response,64,97514,0.0-1.0-82.0,0,0,44248,,742.0,,,75.0,20.0,20.0,1.0,1500.0,M-XL,0.0,M,XL,2.0,4.0,basketball,tractor,basketball7,tractor6,56.0,185.0,/static/Size_judgement/Stimuli/Size_stims/M/basketball/basketball6.jpg,/static/Size_judgement/Stimuli/Size_stims/XL/tractor/tractor3.jpg,0.0,tractor,basketball,XL,M,4.0,2.0,tractor6,basketball7,1.0,58.242,0.742,0.0,
65,,size_choice_confirmation,,html-keyboard-response,65,98274,0.0-1.0-83.0-0.0,0,0,44248,,,,,,20.0,,1.0,,,,,,,,,,,,,,,,,,,,,,,,,,59.0,0.758,,
66,,iti,,html-keyboard-response,66,99775,0.0-1.0-84.0,0,0,44248,,,,,,20.0,,1.0,,,,,,,,,,,,,,,,,,,,,,,,,,60.5,1.5,,
67,,size_choice,,html-keyboard-response,67,100322,0.0-1.0-86.0,0,0,44248,,546.0,,,68.0,21.0,21.0,1.0,3000.0,M-M,,M,M,2.0,2.0,handsaw,ketchup,handsaw10,ketchup8,89.0,97.0,/static/Size_judgement/Stimuli/Size_stims/M/handsaw/handsaw10.jpg,/static/Size_judgement/Stimuli/Size_stims/M/ketchup/ketchup5.jpg,1.0,handsaw,ketchup,M,M,2.0,2.0,handsaw10,ketchup8,,61.046,0.546,0.0,
68,,size_choice_confirmation,,html-keyboard-response,68,101278,0.0-1.0-87.0-0.0,0,0,44248,,,,,,21.0,,1.0,,,,,,,,,,,,,,,,,,,,,,,,,,62.0,0.954,,
69,,iti,,html-keyboard-response,69,104279,0.0-1.0-88.0,0,0,44248,,,,,,21.0,,1.0,,,,,,,,,,,,,,,,,,,,,,,,,,65.0,3.0,,
70,,size_choice,,html-keyboard-response,70,104962,0.0-1.0-90.0,0,0,44248,,683.0,,,75.0,22.0,22.0,1.0,1000.0,S-S,,S,S,1.0,1.0,thread,paperclip,thread7,paperclip1,146.0,110.0,/static/Size_judgement/Stimuli/Size_stims/S/thread/thread3.jpg,/static/Size_judgement/Stimuli/Size_stims/S/paperclip/paperclip9.jpg,0.0,paperclip,thread,S,S,1.0,1.0,paperclip1,thread7,,65.683,0.683,0.0,
71,,size_choice_confirmation,,html-keyboard-response,71,105781,0.0-1.0-91.0-0.0,0,0,44248,,,,,,22.0,,1.0,,,,,,,,,,,,,,,,,,,,,,,,,,66.5,0.817,,
72,,iti,,html-keyboard-response,72,106782,0.0-1.0-92.0,0,0,44248,,,,,,22.0,,1.0,,,,,,,,,,,,,,,,,,,,,,,,,,67.5,1.0,,
73,,size_choice,,html-keyboard-response,73,107578,0.0-1.0-94.0,0,0,44248,,795.0,,,68.0,23.0,23.0,1.0,1500.0,M-XL,1.0,XL,M,4.0,2.0,car,handsaw,car6,handsaw2,155.0,81.0,/static/Size_judgement/Stimuli/Size_stims/XL/car/car12.jpg,/static/Size_judgement/Stimuli/Size_stims/M/handsaw/handsaw9.jpg,1.0,car,handsaw,XL,M,4.0,2.0,car6,handsaw2,1.0,68.295,0.795,0.0,
74,,size_choice_confirmation,,html-keyboard-response,74,108284,0.0-1.0-95.0-0.0,0,0,44248,,,,,,23.0,,1.0,,,,,,,,,,,,,,,,,,,,,,,,,,69.0,0.705,,
75,,iti,,html-keyboard-response,75,109786,0.0-1.0-96.0,0,0,44248,,,,,,23.0,,1.0,,,,,,,,,,,,,,,,,,,,,,,,,,70.5,1.5,,
76,,size_choice,,html-keyboard-response,76,110354,0.0-1.0-98.0,0,0,44248,,567.0,,,75.0,24.0,24.0,1.0,1500.0,S-L,0.0,S,L,1.0,3.0,die,deskchair,die3,deskchair6,102.0,15.0,/static/Size_judgement/Stimuli/Size_stims/S/die/die10.jpg,/static/Size_judgement/Stimuli/Size_stims/L/deskchair/deskchair5.jpg,0.0,deskchair,die,L,S,3.0,1.0,deskchair6,die3,1.0,71.067,0.567,0.0,
77,,size_choice_confirmation,,html-keyboard-response,77,111288,0.0-1.0-99.0-0.0,0,0,44248,,,,,,24.0,,1.0,,,,,,,,,,,,,,,,,,,,,,,,,,72.0,0.933,,
78,,iti,,html-keyboard-response,78,112790,0.0-1.0-100.0,0,0,44248,,,,,,24.0,,1.0,,,,,,,,,,,,,,,,,,,,,,,,,,73.5,1.5,,
79,,size_choice,,html-keyboard-response,79,113530,0.0-1.0-102.0,0,0,44248,,739.0,,,68.0,25.0,25.0,1.0,1500.0,S-S,,S,S,1.0,1.0,paperclip,die,paperclip9,die1,118.0,100.0,/static/Size_judgement/Stimuli/Size_stims/S/paperclip/paperclip4.jpg,/static/Size_judgement/Stimuli/Size_stims/S/die/die8.jpg,1.0,paperclip,die,S,S,1.0,1.0,paperclip9,die1,,74.239,0.739,0.0,
80,,size_choice_confirmation,,html-keyboard-response,80,114293,0.0-1.0-103.0-0.0,0,0,44248,,,,,,25.0,,1.0,,,,,,,,,,,,,,,,,,,,,,,,,,75.0,0.761,,
81,,iti,,html-keyboard-response,81,115794,0.0-1.0-104.0,0,0,44248,,,,,,25.0,,1.0,,,,,,,,,,,,,,,,,,,,,,,,,,76.5,1.5,,
82,,size_choice,,html-keyboard-response,82,116738,0.0-1.0-106.0,0,0,44248,,943.0,,,75.0,26.0,26.0,1.0,2000.0,M-L,0.0,M,L,2.0,3.0,basketball,deskchair,basketball4,deskchair9,53.0,18.0,/static/Size_judgement/Stimuli/Size_stims/M/basketball/basketball1.jpg,/static/Size_judgement/Stimuli/Size_stims/L/deskchair/deskchair3.jpg,0.0,deskchair,basketball,L,M,3.0,2.0,deskchair9,basketball4,1.0,77.443,0.943,0.0,
83,,size_choice_confirmation,,html-keyboard-response,83,117297,0.0-1.0-107.0-0.0,0,0,44248,,,,,,26.0,,1.0,,,,,,,,,,,,,,,,,,,,,,,,,,78.0,0.557,,
84,,iti,,html-keyboard-response,84,119298,0.0-1.0-108.0,0,0,44248,,,,,,26.0,,1.0,,,,,,,,,,,,,,,,,,,,,,,,,,80.0,2.0,,
85,,size_choice,,html-keyboard-response,85,119898,0.0-1.0-110.0,0,0,44248,,599.0,,,75.0,27.0,27.0,1.0,1500.0,S-XL,0.0,S,XL,1.0,4.0,screws,crane,screws6,crane6,125.0,165.0,/static/Size_judgement/Stimuli/Size_stims/S/screws/screws3.jpg,/static/Size_judgement/Stimuli/Size_stims/XL/crane/crane2.jpg,0.0,crane,screws,XL,S,4.0,1.0,crane6,screws6,1.0,80.599,0.599,0.0,
86,,size_choice_confirmation,,html-keyboard-response,86,120801,0.0-1.0-111.0-0.0,0,0,44248,,,,,,27.0,,1.0,,,,,,,,,,,,,,,,,,,,,,,,,,81.5,0.901,,
87,,iti,,html-keyboard-response,87,122302,0.0-1.0-112.0,0,0,44248,,,,,,27.0,,1.0,,,,,,,,,,,,,,,,,,,,,,,,,,83.0,1.5,,
88,,size_choice,,html-keyboard-response,88,123426,0.0-1.0-114.0,0,0,44248,,1124.0,,,75.0,28.0,28.0,1.0,3000.0,M-L,0.0,M,L,2.0,3.0,coffeemaker,dishwasher,coffeemaker1,dishwasher7,60.0,26.0,/static/Size_judgement/Stimuli/Size_stims/M/coffeemaker/coffeemaker14.jpg,/static/Size_judgement/Stimuli/Size_stims/L/dishwasher/dishwasher7.jpg,0.0,dishwasher,coffeemaker,L,M,3.0,2.0,dishwasher7,coffeemaker1,1.0,84.124,1.124,0.0,
89,,size_choice_confirmation,,html-keyboard-response,89,123804,0.0-1.0-115.0-0.0,0,0,44248,,,,,,28.0,,1.0,,,,,,,,,,,,,,,,,,,,,,,,,,84.5,0.376,,
90,,iti,,html-keyboard-response,90,126806,0.0-1.0-116.0,0,0,44248,,,,,,28.0,,1.0,,,,,,,,,,,,,,,,,,,,,,,,,,87.5,3.0,,
91,,size_choice,,html-keyboard-response,91,127858,0.0-1.0-118.0,0,0,44248,,1050.0,,,75.0,29.0,29.0,1.0,2000.0,L-XL,0.0,L,XL,3.0,4.0,mailbox,tractor,mailbox6,tractor2,45.0,181.0,/static/Size_judgement/Stimuli/Size_stims/L/mailbox/mailbox6.jpg,/static/Size_judgement/Stimuli/Size_stims/XL/tractor/tractor7.jpg,0.0,tractor,mailbox,XL,L,4.0,3.0,tractor2,mailbox6,1.0,88.55,1.05,0.0,
92,,size_choice_confirmation,,html-keyboard-response,92,128310,0.0-1.0-119.0-0.0,0,0,44248,,,,,,29.0,,1.0,,,,,,,,,,,,,,,,,,,,,,,,,,89.0,0.45,,
93,,iti,,html-keyboard-response,93,130311,0.0-1.0-120.0,0,0,44248,,,,,,29.0,,1.0,,,,,,,,,,,,,,,,,,,,,,,,,,91.0,2.0,,
94,,size_choice,,html-keyboard-response,94,131274,0.0-1.0-122.0,0,0,44248,,962.0,,,75.0,30.0,30.0,1.0,1500.0,S-XL,0.0,S,XL,1.0,4.0,teabag,crane,teabag5,crane7,134.0,166.0,/static/Size_judgement/Stimuli/Size_stims/S/teabag/teabag2.jpg,/static/Size_judgement/Stimuli/Size_stims/XL/crane/crane3.jpg,0.0,crane,teabag,XL,S,4.0,1.0,crane7,teabag5,1.0,91.962,0.962,0.0,
95,,size_choice_confirmation,,html-keyboard-response,95,131814,0.0-1.0-123.0-0.0,0,0,44248,,,,,,30.0,,1.0,,,,,,,,,,,,,,,,,,,,,,,,,,92.5,0.538,,
96,,iti,,html-keyboard-response,96,133315,0.0-1.0-124.0,0,0,44248,,,,,,30.0,,1.0,,,,,,,,,,,,,,,,,,,,,,,,,,94.0,1.5,,
97,,size_choice,,html-keyboard-response,97,134538,0.0-1.0-126.0,0,0,44248,,1222.0,,,75.0,31.0,31.0,1.0,3500.0,M-L,0.0,M,L,2.0,3.0,coffeemaker,cooler,coffeemaker4,cooler10,63.0,9.0,/static/Size_judgement/Stimuli/Size_stims/M/coffeemaker/coffeemaker11.jpg,/static/Size_judgement/Stimuli/Size_stims/L/cooler/cooler6.jpg,0.0,cooler,coffeemaker,L,M,3.0,2.0,cooler10,coffeemaker4,1.0,95.222,1.222,0.0,
98,,size_choice_confirmation,,html-keyboard-response,98,134818,0.0-1.0-127.0-0.0,0,0,44248,,,,,,31.0,,1.0,,,,,,,,,,,,,,,,,,,,,,,,,,95.5,0.278,,
99,,iti,,html-keyboard-response,99,138320,0.0-1.0-128.0,0,0,44248,,,,,,31.0,,1.0,,,,,,,,,,,,,,,,,,,,,,,,,,99.0,3.5,,
100,,size_choice,,html-keyboard-response,100,138842,0.0-1.0-130.0,0,0,44248,,521.0,,,75.0,32.0,32.0,1.0,3000.0,S-XL,0.0,S,XL,1.0,4.0,paperclip,car,paperclip4,car1,113.0,150.0,/static/Size_judgement/Stimuli/Size_stims/S/paperclip/paperclip3.jpg,/static/Size_judgement/Stimuli/Size_stims/XL/car/car2.jpg,0.0,car,paperclip,XL,S,4.0,1.0,car1,paperclip4,1.0,99.521,0.521,0.0,
101,,size_choice_confirmation,,html-keyboard-response,101,139823,0.0-1.0-131.0-0.0,0,0,44248,,,,,,32.0,,1.0,,,,,,,,,,,,,,,,,,,,,,,,,,100.5,0.979,,
102,,iti,,html-keyboard-response,102,142823,0.0-1.0-132.0,0,0,44248,,,,,,32.0,,1.0,,,,,,,,,,,,,,,,,,,,,,,,,,103.5,3.0,,
103,,size_choice,,html-keyboard-response,103,143874,0.0-1.0-134.0,0,0,44248,,1049.0,,,68.0,33.0,33.0,1.0,1000.0,M-M,,M,M,2.0,2.0,ketchup,hairdryer,ketchup3,hairdryer2,92.0,71.0,/static/Size_judgement/Stimuli/Size_stims/M/ketchup/ketchup10.jpg,/static/Size_judgement/Stimuli/Size_stims/M/hairdryer/hairdryer12.jpg,1.0,ketchup,hairdryer,M,M,2.0,2.0,ketchup3,hairdryer2,,104.549,1.049,0.0,
104,,size_choice_confirmation,,html-keyboard-response,104,144327,0.0-1.0-135.0-0.0,0,0,44248,,,,,,33.0,,1.0,,,,,,,,,,,,,,,,,,,,,,,,,,105.0,0.451,,
105,,iti,,html-keyboard-response,105,145328,0.0-1.0-136.0,0,0,44248,,,,,,33.0,,1.0,,,,,,,,,,,,,,,,,,,,,,,,,,106.0,1.0,,
106,,size_choice,,html-keyboard-response,106,145954,0.0-1.0-138.0,0,0,44248,,626.0,,,75.0,34.0,34.0,1.0,2000.0,S-S,,S,S,1.0,1.0,teabag,screws,teabag4,screws4,133.0,123.0,/static/Size_judgement/Stimuli/Size_stims/S/teabag/teabag3.jpg,/static/Size_judgement/Stimuli/Size_stims/S/screws/screws6.jpg,0.0,screws,teabag,S,S,1.0,1.0,screws4,teabag4,,106.626,0.626,0.0,
107,,size_choice_confirmation,,html-keyboard-response,107,146830,0.0-1.0-139.0-0.0,0,0,44248,,,,,,34.0,,1.0,,,,,,,,,,,,,,,,,,,,,,,,,,107.5,0.874,,
108,,iti,,html-keyboard-response,108,148831,0.0-1.0-140.0,0,0,44248,,,,,,34.0,,1.0,,,,,,,,,,,,,,,,,,,,,,,,,,109.5,2.0,,
109,,size_choice,,html-keyboard-response,109,149522,0.0-1.0-142.0,0,0,44248,,689.0,,,75.0,35.0,35.0,1.0,1000.0,M-L,0.0,M,L,2.0,3.0,basketball,dishwasher,basketball6,dishwasher1,55.0,20.0,/static/Size_judgement/Stimuli/Size_stims/M/basketball/basketball2.jpg,/static/Size_judgement/Stimuli/Size_stims/L/dishwasher/dishwasher10.jpg,0.0,dishwasher,basketball,L,M,3.0,2.0,dishwasher1,basketball6,1.0,110.189,0.689,0.0,
110,,size_choice_confirmation,,html-keyboard-response,110,150334,0.0-1.0-143.0-0.0,0,0,44248,,,,,,35.0,,1.0,,,,,,,,,,,,,,,,,,,,,,,,,,111.0,0.811,,
111,,iti,,html-keyboard-response,111,151335,0.0-1.0-144.0,0,0,44248,,,,,,35.0,,1.0,,,,,,,,,,,,,,,,,,,,,,,,,,112.0,1.0,,
112,,size_choice,,html-keyboard-response,112,151882,0.0-1.0-146.0,0,0,44248,,546.0,,,68.0,36.0,36.0,1.0,1500.0,M-XL,1.0,XL,M,4.0,2.0,tractor,ketchup,tractor10,ketchup6,189.0,95.0,/static/Size_judgement/Stimuli/Size_stims/XL/tractor/tractor8.jpg,/static/Size_judgement/Stimuli/Size_stims/M/ketchup/ketchup1.jpg,1.0,tractor,ketchup,XL,M,4.0,2.0,tractor10,ketchup6,1.0,112.546,0.546,0.0,
113,,size_choice_confirmation,,html-keyboard-response,113,152838,0.0-1.0-147.0-0.0,0,0,44248,,,,,,36.0,,1.0,,,,,,,,,,,,,,,,,,,,,,,,,,113.5,0.954,,
114,,iti,,html-keyboard-response,114,154340,0.0-1.0-148.0,0,0,44248,,,,,,36.0,,1.0,,,,,,,,,,,,,,,,,,,,,,,,,,115.0,1.5,,
115,,size_choice,,html-keyboard-response,115,155002,0.0-1.0-150.0,0,0,44248,,662.0,,,75.0,37.0,37.0,1.0,3500.0,XL-XL,,XL,XL,4.0,4.0,crane,car,crane10,car8,169.0,157.0,/static/Size_judgement/Stimuli/Size_stims/XL/crane/crane9.jpg,/static/Size_judgement/Stimuli/Size_stims/XL/car/car14.jpg,0.0,car,crane,XL,XL,4.0,4.0,car8,crane10,,115.662,0.662,0.0,
116,,size_choice_confirmation,,html-keyboard-response,116,155842,0.0-1.0-151.0-0.0,0,0,44248,,,,,,37.0,,1.0,,,,,,,,,,,,,,,,,,,,,,,,,,116.5,0.838,,
117,,iti,,html-keyboard-response,117,159344,0.0-1.0-152.0,0,0,44248,,,,,,37.0,,1.0,,,,,,,,,,,,,,,,,,,,,,,,,,120.0,3.5,,
118,,size_choice,,html-keyboard-response,118,160114,0.0-1.0-154.0,0,0,44248,,769.0,,,68.0,38.0,38.0,1.0,1500.0,L-L,,L,L,3.0,3.0,dishwasher,garbagecan,dishwasher5,garbagecan5,24.0,34.0,/static/Size_judgement/Stimuli/Size_stims/L/dishwasher/dishwasher4.jpg,/static/Size_judgement/Stimuli/Size_stims/L/garbagecan/garbagecan3.jpg,1.0,dishwasher,garbagecan,L,L,3.0,3.0,dishwasher5,garbagecan5,,120.769,0.769,0.0,
119,,size_choice_confirmation,,html-keyboard-response,119,160846,0.0-1.0-155.0-0.0,0,0,44248,,,,,,38.0,,1.0,,,,,,,,,,,,,,,,,,,,,,,,,,121.5,0.731,,
120,,iti,,html-keyboard-response,120,162347,0.0-1.0-156.0,0,0,44248,,,,,,38.0,,1.0,,,,,,,,,,,,,,,,,,,,,,,,,,123.0,1.5,,
121,,size_choice,,html-keyboard-response,121,163386,0.0-1.0-158.0,0,0,44248,,1038.0,,,68.0,39.0,39.0,1.0,2000.0,L-L,,L,L,3.0,3.0,dishwasher,cooler,dishwasher10,cooler6,29.0,5.0,/static/Size_judgement/Stimuli/Size_stims/L/dishwasher/dishwasher1.jpg,/static/Size_judgement/Stimuli/Size_stims/L/cooler/cooler1.jpg,1.0,dishwasher,cooler,L,L,3.0,3.0,dishwasher10,cooler6,,124.038,1.038,0.0,
122,,size_choice_confirmation,,html-keyboard-response,122,163850,0.0-1.0-159.0-0.0,0,0,44248,,,,,,39.0,,1.0,,,,,,,,,,,,,,,,,,,,,,,,,,124.5,0.462,,
123,,iti,,html-keyboard-response,123,165852,0.0-1.0-160.0,0,0,44248,,,,,,39.0,,1.0,,,,,,,,,,,,,,,,,,,,,,,,,,126.5,2.0,,
124,,size_choice,,html-keyboard-response,124,166410,0.0-1.0-162.0,0,0,44248,,558.0,,,75.0,40.0,40.0,1.0,1500.0,S-M,0.0,S,M,1.0,2.0,screws,handsaw,screws3,handsaw3,122.0,82.0,/static/Size_judgement/Stimuli/Size_stims/S/screws/screws7.jpg,/static/Size_judgement/Stimuli/Size_stims/M/handsaw/handsaw2.jpg,0.0,handsaw,screws,M,S,2.0,1.0,handsaw3,screws3,1.0,127.058,0.558,0.0,
125,,size_choice_confirmation,,html-keyboard-response,125,167354,0.0-1.0-163.0-0.0,0,0,44248,,,,,,40.0,,1.0,,,,,,,,,,,,,,,,,,,,,,,,,,128.0,0.942,,
126,,iti,,html-keyboard-response,126,168869,0.0-1.0-164.0,0,0,44248,,,,,,40.0,,1.0,,,,,,,,,,,,,,,,,,,,,,,,,,129.5,1.5,,
127,,size_choice,,html-keyboard-response,127,169690,0.0-1.0-166.0,0,0,44248,,820.0,,,68.0,41.0,41.0,1.0,3500.0,S-L,1.0,L,S,3.0,1.0,deskchair,thread,deskchair5,thread6,14.0,145.0,/static/Size_judgement/Stimuli/Size_stims/L/deskchair/deskchair7.jpg,/static/Size_judgement/Stimuli/Size_stims/S/thread/thread2.jpg,1.0,deskchair,thread,L,S,3.0,1.0,deskchair5,thread6,1.0,130.32,0.82,0.0,
128,,size_choice_confirmation,,html-keyboard-response,128,170372,0.0-1.0-167.0-0.0,0,0,44248,,,,,,41.0,,1.0,,,,,,,,,,,,,,,,,,,,,,,,,,131.0,0.68,,
129,,iti,,html-keyboard-response,129,173873,0.0-1.0-168.0,0,0,44248,,,,,,41.0,,1.0,,,,,,,,,,,,,,,,,,,,,,,,,,134.5,3.5,,
130,,size_choice,,html-keyboard-response,130,174466,0.0-1.0-170.0,0,0,44248,,592.0,,,75.0,42.0,42.0,1.0,1000.0,S-M,0.0,S,M,1.0,2.0,paperclip,basketball,paperclip7,basketball8,116.0,57.0,/static/Size_judgement/Stimuli/Size_stims/S/paperclip/paperclip7.jpg,/static/Size_judgement/Stimuli/Size_stims/M/basketball/basketball7.jpg,0.0,basketball,paperclip,M,S,2.0,1.0,basketball8,paperclip7,1.0,135.092,0.592,0.0,
131,,size_choice_confirmation,,html-keyboard-response,131,175376,0.0-1.0-171.0-0.0,0,0,44248,,,,,,42.0,,1.0,,,,,,,,,,,,,,,,,,,,,,,,,,136.0,0.908,,
132,,iti,,html-keyboard-response,132,176377,0.0-1.0-172.0,0,0,44248,,,,,,42.0,,1.0,,,,,,,,,,,,,,,,,,,,,,,,,,137.0,1.0,,
133,,size_choice,,html-keyboard-response,133,176978,0.0-1.0-174.0,0,0,44248,,601.0,,,68.0,43.0,43.0,1.0,1000.0,S-L,1.0,L,S,3.0,1.0,deskchair,paperclip,deskchair1,paperclip5,10.0,114.0,/static/Size_judgement/Stimuli/Size_stims/L/deskchair/deskchair9.jpg,/static/Size_judgement/Stimuli/Size_stims/S/paperclip/paperclip2.jpg,1.0,deskchair,paperclip,L,S,3.0,1.0,deskchair1,paperclip5,1.0,137.601,0.601,0.0,
134,,size_choice_confirmation,,html-keyboard-response,134,177878,0.0-1.0-175.0-0.0,0,0,44248,,,,,,43.0,,1.0,,,,,,,,,,,,,,,,,,,,,,,,,,138.5,0.899,,
135,,iti,,html-keyboard-response,135,178880,0.0-1.0-176.0,0,0,44248,,,,,,43.0,,1.0,,,,,,,,,,,,,,,,,,,,,,,,,,139.5,1.0,,
136,,size_choice,,html-keyboard-response,136,179586,0.0-1.0-178.0,0,0,44248,,704.0,,,68.0,44.0,44.0,1.0,1000.0,L-XL,0.0,L,XL,3.0,4.0,dishwasher,van,dishwasher2,van9,21.0,198.0,/static/Size_judgement/Stimuli/Size_stims/L/dishwasher/dishwasher9.jpg,/static/Size_judgement/Stimuli/Size_stims/XL/van/van9.jpg,1.0,dishwasher,van,L,XL,3.0,4.0,dishwasher2,van9,0.0,140.204,0.704,0.0,
137,,size_choice_confirmation,,html-keyboard-response,137,180383,0.0-1.0-179.0-0.0,0,0,44248,,,,,,44.0,,1.0,,,,,,,,,,,,,,,,,,,,,,,,,,141.0,0.796,,
138,,iti,,html-keyboard-response,138,181386,0.0-1.0-180.0,0,0,44248,,,,,,44.0,,1.0,,,,,,,,,,,,,,,,,,,,,,,,,,142.0,1.0,,
139,,block_over,,html-keyboard-response,139,183890,0.0-1.0-181.0-0.0,0,0,44248,,2502.0,,,68.0,44.0,,,,,,,,,,,,,,,,,,,,,,,,,,,,,,,
140,,size_choice,,html-keyboard-response,140,184818,0.0-1.0-182.0,0,0,44248,,927.0,,,75.0,45.0,45.0,2.0,2000.0,S-L,0.0,S,L,1.0,3.0,die,mailbox,die5,mailbox2,104.0,41.0,/static/Size_judgement/Stimuli/Size_stims/S/die/die3.jpg,/static/Size_judgement/Stimuli/Size_stims/L/mailbox/mailbox2.jpg,0.0,mailbox,die,L,S,3.0,1.0,mailbox2,die5,1.0,142.927,0.927,0.0,
141,,size_choice_confirmation,,html-keyboard-response,141,185392,0.0-1.0-183.0-0.0,0,0,44248,,,,,,45.0,,2.0,,,,,,,,,,,,,,,,,,,,,,,,,,143.5,0.573,,
142,,iti,,html-keyboard-response,142,187393,0.0-1.0-184.0,0,0,44248,,,,,,45.0,,2.0,,,,,,,,,,,,,,,,,,,,,,,,,,145.5,2.0,,
143,,size_choice,,html-keyboard-response,143,188106,0.0-1.0-186.0,0,0,44248,,712.0,,,68.0,46.0,46.0,2.0,1000.0,S-L,1.0,L,S,3.0,1.0,deskchair,thread,deskchair3,thread10,12.0,149.0,/static/Size_judgement/Stimuli/Size_stims/L/deskchair/deskchair10.jpg,/static/Size_judgement/Stimuli/Size_stims/S/thread/thread9.jpg,1.0,deskchair,thread,L,S,3.0,1.0,deskchair3,thread10,1.0,146.212,0.712,0.0,
144,,size_choice_confirmation,,html-keyboard-response,144,188895,0.0-1.0-187.0-0.0,0,0,44248,,,,,,46.0,,2.0,,,,,,,,,,,,,,,,,,,,,,,,,,147.0,0.788,,
145,,iti,,html-keyboard-response,145,189897,0.0-1.0-188.0,0,0,44248,,,,,,46.0,,2.0,,,,,,,,,,,,,,,,,,,,,,,,,,148.0,1.0,,
146,,size_choice,,html-keyboard-response,146,190818,0.0-1.0-190.0,0,0,44248,,920.0,,,68.0,47.0,47.0,2.0,3500.0,M-L,1.0,L,M,3.0,2.0,garbagecan,handsaw,garbagecan1,handsaw9,30.0,88.0,/static/Size_judgement/Stimuli/Size_stims/L/garbagecan/garbagecan4.jpg,/static/Size_judgement/Stimuli/Size_stims/M/handsaw/handsaw6.jpg,1.0,garbagecan,handsaw,L,M,3.0,2.0,garbagecan1,handsaw9,1.0,148.92,0.92,0.0,
147,,size_choice_confirmation,,html-keyboard-response,147,191412,0.0-1.0-191.0-0.0,0,0,44248,,,,,,47.0,,2.0,,,,,,,,,,,,,,,,,,,,,,,,,,149.5,0.58,,
148,,iti,,html-keyboard-response,148,194915,0.0-1.0-192.0,0,0,44248,,,,,,47.0,,2.0,,,,,,,,,,,,,,,,,,,,,,,,,,153.0,3.5,,
149,,size_choice,,html-keyboard-response,149,196050,0.0-1.0-194.0,0,0,44248,,1135.0,,,68.0,48.0,48.0,2.0,1000.0,M-M,,M,M,2.0,2.0,coffeemaker,hairdryer,coffeemaker7,hairdryer5,66.0,74.0,/static/Size_judgement/Stimuli/Size_stims/M/coffeemaker/coffeemaker9.jpg,/static/Size_judgement/Stimuli/Size_stims/M/hairdryer/hairdryer15.jpg,1.0,coffeemaker,hairdryer,M,M,2.0,2.0,coffeemaker7,hairdryer5,,154.135,1.135,0.0,
150,,size_choice_confirmation,,html-keyboard-response,150,196416,0.0-1.0-195.0-0.0,0,0,44248,,,,,,48.0,,2.0,,,,,,,,,,,,,,,,,,,,,,,,,,154.5,0.365,,
151,,iti,,html-keyboard-response,151,197418,0.0-1.0-196.0,0,0,44248,,,,,,48.0,,2.0,,,,,,,,,,,,,,,,,,,,,,,,,,155.5,1.0,,
152,,size_choice,,html-keyboard-response,152,198082,0.0-1.0-198.0,0,0,44248,,664.0,,,68.0,49.0,49.0,2.0,2000.0,S-XL,1.0,XL,S,4.0,1.0,crane,thread,crane3,thread4,162.0,143.0,/static/Size_judgement/Stimuli/Size_stims/XL/crane/crane4.jpg,/static/Size_judgement/Stimuli/Size_stims/S/thread/thread5.jpg,1.0,crane,thread,XL,S,4.0,1.0,crane3,thread4,1.0,156.164,0.664,0.0,
153,,size_choice_confirmation,,html-keyboard-response,153,198920,0.0-1.0-199.0-0.0,0,0,44248,,,,,,49.0,,2.0,,,,,,,,,,,,,,,,,,,,,,,,,,157.0,0.836,,
154,,iti,,html-keyboard-response,154,200921,0.0-1.0-200.0,0,0,44248,,,,,,49.0,,2.0,,,,,,,,,,,,,,,,,,,,,,,,,,159.0,2.0,,
155,,size_choice,,html-keyboard-response,155,201514,0.0-1.0-202.0,0,0,44248,,591.0,,,68.0,50.0,50.0,2.0,1000.0,S-XL,1.0,XL,S,4.0,1.0,tractor,die,tractor7,die9,186.0,108.0,/static/Size_judgement/Stimuli/Size_stims/XL/tractor/tractor2.jpg,/static/Size_judgement/Stimuli/Size_stims/S/die/die7.jpg,1.0,tractor,die,XL,S,4.0,1.0,tractor7,die9,1.0,159.591,0.591,0.0,
156,,size_choice_confirmation,,html-keyboard-response,156,202424,0.0-1.0-203.0-0.0,0,0,44248,,,,,,50.0,,2.0,,,,,,,,,,,,,,,,,,,,,,,,,,160.5,0.909,,
157,,iti,,html-keyboard-response,157,203425,0.0-1.0-204.0,0,0,44248,,,,,,50.0,,2.0,,,,,,,,,,,,,,,,,,,,,,,,,,161.5,1.0,,
158,,size_choice,,html-keyboard-response,158,204482,0.0-1.0-206.0,0,0,44248,,1055.0,,,68.0,51.0,51.0,2.0,2000.0,S-L,1.0,L,S,3.0,1.0,cooler,thread,cooler1,thread2,0.0,141.0,/static/Size_judgement/Stimuli/Size_stims/L/cooler/cooler8.jpg,/static/Size_judgement/Stimuli/Size_stims/S/thread/thread6.jpg,1.0,cooler,thread,L,S,3.0,1.0,cooler1,thread2,1.0,162.555,1.055,0.0,
159,,size_choice_confirmation,,html-keyboard-response,159,204928,0.0-1.0-207.0-0.0,0,0,44248,,,,,,51.0,,2.0,,,,,,,,,,,,,,,,,,,,,,,,,,163.0,0.445,,
160,,iti,,html-keyboard-response,160,206930,0.0-1.0-208.0,0,0,44248,,,,,,51.0,,2.0,,,,,,,,,,,,,,,,,,,,,,,,,,165.0,2.0,,
161,,size_choice,,html-keyboard-response,161,207490,0.0-1.0-210.0,0,0,44248,,559.0,,,75.0,52.0,52.0,2.0,1000.0,M-L,0.0,M,L,2.0,3.0,handsaw,mailbox,handsaw8,mailbox4,87.0,43.0,/static/Size_judgement/Stimuli/Size_stims/M/handsaw/handsaw7.jpg,/static/Size_judgement/Stimuli/Size_stims/L/mailbox/mailbox5.jpg,0.0,mailbox,handsaw,L,M,3.0,2.0,mailbox4,handsaw8,1.0,165.559,0.559,0.0,
162,,size_choice_confirmation,,html-keyboard-response,162,208433,0.0-1.0-211.0-0.0,0,0,44248,,,,,,52.0,,2.0,,,,,,,,,,,,,,,,,,,,,,,,,,166.5,0.941,,
163,,iti,,html-keyboard-response,163,209435,0.0-1.0-212.0,0,0,44248,,,,,,52.0,,2.0,,,,,,,,,,,,,,,,,,,,,,,,,,167.5,1.0,,
164,,size_choice,,html-keyboard-response,164,210001,0.0-1.0-214.0,0,0,44248,,565.0,,,68.0,53.0,53.0,2.0,1000.0,S-XL,1.0,XL,S,4.0,1.0,crane,thread,crane9,thread5,168.0,144.0,/static/Size_judgement/Stimuli/Size_stims/XL/crane/crane8.jpg,/static/Size_judgement/Stimuli/Size_stims/S/thread/thread1.jpg,1.0,crane,thread,XL,S,4.0,1.0,crane9,thread5,1.0,168.065,0.565,0.0,
165,,size_choice_confirmation,,html-keyboard-response,165,210938,0.0-1.0-215.0-0.0,0,0,44248,,,,,,53.0,,2.0,,,,,,,,,,,,,,,,,,,,,,,,,,169.0,0.935,,
166,,iti,,html-keyboard-response,166,211940,0.0-1.0-216.0,0,0,44248,,,,,,53.0,,2.0,,,,,,,,,,,,,,,,,,,,,,,,,,170.0,1.0,,
167,,size_choice,,html-keyboard-response,167,212762,0.0-1.0-218.0,0,0,44248,,820.0,,,68.0,54.0,54.0,2.0,2000.0,XL-XL,,XL,XL,4.0,4.0,tractor,van,tractor1,van10,180.0,199.0,/static/Size_judgement/Stimuli/Size_stims/XL/tractor/tractor6.jpg,/static/Size_judgement/Stimuli/Size_stims/XL/van/van8.jpg,1.0,tractor,van,XL,XL,4.0,4.0,tractor1,van10,,170.82,0.82,0.0,
168,,size_choice_confirmation,,html-keyboard-response,168,213443,0.0-1.0-219.0-0.0,0,0,44248,,,,,,54.0,,2.0,,,,,,,,,,,,,,,,,,,,,,,,,,171.5,0.68,,
169,,iti,,html-keyboard-response,169,215444,0.0-1.0-220.0,0,0,44248,,,,,,54.0,,2.0,,,,,,,,,,,,,,,,,,,,,,,,,,173.5,2.0,,
170,,size_choice,,html-keyboard-response,170,216522,0.0-1.0-222.0,0,0,44248,,1077.0,,,75.0,55.0,55.0,2.0,1500.0,S-S,,S,S,1.0,1.0,paperclip,teabag,paperclip8,teabag2,117.0,131.0,/static/Size_judgement/Stimuli/Size_stims/S/paperclip/paperclip5.jpg,/static/Size_judgement/Stimuli/Size_stims/S/teabag/teabag8.jpg,0.0,teabag,paperclip,S,S,1.0,1.0,teabag2,paperclip8,,174.577,1.077,0.0,
171,,size_choice_confirmation,,html-keyboard-response,171,216947,0.0-1.0-223.0-0.0,0,0,44248,,,,,,55.0,,2.0,,,,,,,,,,,,,,,,,,,,,,,,,,175.0,0.423,,
172,,iti,,html-keyboard-response,172,218447,0.0-1.0-224.0,0,0,44248,,,,,,55.0,,2.0,,,,,,,,,,,,,,,,,,,,,,,,,,176.5,1.5,,
173,,size_choice,,html-keyboard-response,173,219562,0.0-1.0-226.0,0,0,44248,,1114.0,,,68.0,56.0,56.0,2.0,1500.0,S-XL,1.0,XL,S,4.0,1.0,crane,screws,crane8,screws2,167.0,121.0,/static/Size_judgement/Stimuli/Size_stims/XL/crane/crane10.jpg,/static/Size_judgement/Stimuli/Size_stims/S/screws/screws5.jpg,1.0,crane,screws,XL,S,4.0,1.0,crane8,screws2,1.0,177.614,1.114,0.0,
174,,size_choice_confirmation,,html-keyboard-response,174,219950,0.0-1.0-227.0-0.0,0,0,44248,,,,,,56.0,,2.0,,,,,,,,,,,,,,,,,,,,,,,,,,178.0,0.386,,
175,,iti,,html-keyboard-response,175,221452,0.0-1.0-228.0,0,0,44248,,,,,,56.0,,2.0,,,,,,,,,,,,,,,,,,,,,,,,,,179.5,1.5,,
176,,size_choice,,html-keyboard-response,176,222513,0.0-1.0-230.0,0,0,44248,,1061.0,,,68.0,57.0,57.0,2.0,1000.0,L-L,,L,L,3.0,3.0,dishwasher,cooler,dishwasher4,cooler3,23.0,2.0,/static/Size_judgement/Stimuli/Size_stims/L/dishwasher/dishwasher5.jpg,/static/Size_judgement/Stimuli/Size_stims/L/cooler/cooler2.jpg,1.0,dishwasher,cooler,L,L,3.0,3.0,dishwasher4,cooler3,,180.561,1.061,0.0,
177,,size_choice_confirmation,,html-keyboard-response,177,222954,0.0-1.0-231.0-0.0,0,0,44248,,,,,,57.0,,2.0,,,,,,,,,,,,,,,,,,,,,,,,,,181.0,0.439,,
178,,iti,,html-keyboard-response,178,223956,0.0-1.0-232.0,0,0,44248,,,,,,57.0,,2.0,,,,,,,,,,,,,,,,,,,,,,,,,,182.0,1.0,,
179,,size_choice,,html-keyboard-response,179,224914,0.0-1.0-234.0,0,0,44248,,957.0,,,75.0,58.0,58.0,2.0,3000.0,M-XL,0.0,M,XL,2.0,4.0,coffeemaker,van,coffeemaker9,van4,68.0,193.0,/static/Size_judgement/Stimuli/Size_stims/M/coffeemaker/coffeemaker7.jpg,/static/Size_judgement/Stimuli/Size_stims/XL/van/van7.jpg,0.0,van,coffeemaker,XL,M,4.0,2.0,van4,coffeemaker9,1.0,182.957,0.957,0.0,
180,,size_choice_confirmation,,html-keyboard-response,180,225459,0.0-1.0-235.0-0.0,0,0,44248,,,,,,58.0,,2.0,,,,,,,,,,,,,,,,,,,,,,,,,,183.5,0.543,,
181,,iti,,html-keyboard-response,181,228460,0.0-1.0-236.0,0,0,44248,,,,,,58.0,,2.0,,,,,,,,,,,,,,,,,,,,,,,,,,186.5,3.0,,
182,,size_choice,,html-keyboard-response,182,229394,0.0-1.0-238.0,0,0,44248,,932.0,,,75.0,59.0,59.0,2.0,2000.0,M-L,0.0,M,L,2.0,3.0,coffeemaker,cooler,coffeemaker3,cooler7,62.0,6.0,/static/Size_judgement/Stimuli/Size_stims/M/coffeemaker/coffeemaker13.jpg,/static/Size_judgement/Stimuli/Size_stims/L/cooler/cooler4.jpg,0.0,cooler,coffeemaker,L,M,3.0,2.0,cooler7,coffeemaker3,1.0,187.432,0.932,0.0,
183,,size_choice_confirmation,,html-keyboard-response,183,229963,0.0-1.0-239.0-0.0,0,0,44248,,,,,,59.0,,2.0,,,,,,,,,,,,,,,,,,,,,,,,,,188.0,0.568,,
184,,iti,,html-keyboard-response,184,231964,0.0-1.0-240.0,0,0,44248,,,,,,59.0,,2.0,,,,,,,,,,,,,,,,,,,,,,,,,,190.0,2.0,,
185,,size_choice,,html-keyboard-response,185,232834,0.0-1.0-242.0,0,0,44248,,868.0,,,68.0,60.0,60.0,2.0,2000.0,S-L,1.0,L,S,3.0,1.0,cooler,screws,cooler4,screws5,3.0,124.0,/static/Size_judgement/Stimuli/Size_stims/L/cooler/cooler3.jpg,/static/Size_judgement/Stimuli/Size_stims/S/screws/screws2.jpg,1.0,cooler,screws,L,S,3.0,1.0,cooler4,screws5,1.0,190.868,0.868,0.0,
186,,size_choice_confirmation,,html-keyboard-response,186,233467,0.0-1.0-243.0-0.0,0,0,44248,,,,,,60.0,,2.0,,,,,,,,,,,,,,,,,,,,,,,,,,191.5,0.632,,
187,,iti,,html-keyboard-response,187,235469,0.0-1.0-244.0,0,0,44248,,,,,,60.0,,2.0,,,,,,,,,,,,,,,,,,,,,,,,,,193.5,2.0,,
188,,size_choice,,html-keyboard-response,188,236002,0.0-1.0-246.0,0,0,44248,,531.0,,,75.0,61.0,61.0,2.0,1500.0,M-XL,0.0,M,XL,2.0,4.0,handsaw,car,handsaw7,car3,86.0,152.0,/static/Size_judgement/Stimuli/Size_stims/M/handsaw/handsaw5.jpg,/static/Size_judgement/Stimuli/Size_stims/XL/car/car4.jpg,0.0,car,handsaw,XL,M,4.0,2.0,car3,handsaw7,1.0,194.031,0.531,0.0,
189,,size_choice_confirmation,,html-keyboard-response,189,236972,0.0-1.0-247.0-0.0,0,0,44248,,,,,,61.0,,2.0,,,,,,,,,,,,,,,,,,,,,,,,,,195.0,0.969,,
190,,iti,,html-keyboard-response,190,238474,0.0-1.0-248.0,0,0,44248,,,,,,61.0,,2.0,,,,,,,,,,,,,,,,,,,,,,,,,,196.5,1.5,,
191,,size_choice,,html-keyboard-response,191,238994,0.0-1.0-250.0,0,0,44248,,519.0,,,75.0,62.0,62.0,2.0,1000.0,M-XL,0.0,M,XL,2.0,4.0,handsaw,tractor,handsaw1,tractor4,80.0,183.0,/static/Size_judgement/Stimuli/Size_stims/M/handsaw/handsaw8.jpg,/static/Size_judgement/Stimuli/Size_stims/XL/tractor/tractor4.jpg,0.0,tractor,handsaw,XL,M,4.0,2.0,tractor4,handsaw1,1.0,197.019,0.519,0.0,
192,,size_choice_confirmation,,html-keyboard-response,192,239977,0.0-1.0-251.0-0.0,0,0,44248,,,,,,62.0,,2.0,,,,,,,,,,,,,,,,,,,,,,,,,,198.0,0.981,,
193,,iti,,html-keyboard-response,193,240978,0.0-1.0-252.0,0,0,44248,,,,,,62.0,,2.0,,,,,,,,,,,,,,,,,,,,,,,,,,199.0,1.0,,
194,,size_choice,,html-keyboard-response,194,241849,0.0-1.0-254.0,0,0,44248,,870.0,,,68.0,63.0,63.0,2.0,1500.0,S-L,1.0,L,S,3.0,1.0,dishwasher,teabag,dishwasher9,teabag7,28.0,136.0,/static/Size_judgement/Stimuli/Size_stims/L/dishwasher/dishwasher2.jpg,/static/Size_judgement/Stimuli/Size_stims/S/teabag/teabag10.jpg,1.0,dishwasher,teabag,L,S,3.0,1.0,dishwasher9,teabag7,1.0,199.87,0.87,0.0,
195,,size_choice_confirmation,,html-keyboard-response,195,242480,0.0-1.0-255.0-0.0,0,0,44248,,,,,,63.0,,2.0,,,,,,,,,,,,,,,,,,,,,,,,,,200.5,0.63,,
196,,iti,,html-keyboard-response,196,243982,0.0-1.0-256.0,0,0,44248,,,,,,63.0,,2.0,,,,,,,,,,,,,,,,,,,,,,,,,,202.0,1.5,,
197,,size_choice,,html-keyboard-response,197,244530,0.0-1.0-258.0,0,0,44248,,546.0,,,75.0,64.0,64.0,2.0,3500.0,M-XL,1.0,XL,M,4.0,2.0,crane,coffeemaker,crane5,coffeemaker2,164.0,61.0,/static/Size_judgement/Stimuli/Size_stims/XL/crane/crane1.jpg,/static/Size_judgement/Stimuli/Size_stims/M/coffeemaker/coffeemaker12.jpg,0.0,coffeemaker,crane,M,XL,2.0,4.0,coffeemaker2,crane5,0.0,202.546,0.546,0.0,
198,,size_choice_confirmation,,html-keyboard-response,198,245485,0.0-1.0-259.0-0.0,0,0,44248,,,,,,64.0,,2.0,,,,,,,,,,,,,,,,,,,,,,,,,,203.5,0.954,,
199,,iti,,html-keyboard-response,199,248992,0.0-1.0-260.0,0,0,44248,,,,,,64.0,,2.0,,,,,,,,,,,,,,,,,,,,,,,,,,207.0,3.5,,
200,,size_choice,,html-keyboard-response,200,249809,0.0-1.0-262.0,0,0,44248,,816.0,,,68.0,65.0,65.0,2.0,1500.0,XL-XL,,XL,XL,4.0,4.0,tractor,van,tractor9,van6,188.0,195.0,/static/Size_judgement/Stimuli/Size_stims/XL/tractor/tractor9.jpg,/static/Size_judgement/Stimuli/Size_stims/XL/van/van2.jpg,1.0,tractor,van,XL,XL,4.0,4.0,tractor9,van6,,207.816,0.816,0.0,
201,,size_choice_confirmation,,html-keyboard-response,201,250495,0.0-1.0-263.0-0.0,0,0,44248,,,,,,65.0,,2.0,,,,,,,,,,,,,,,,,,,,,,,,,,208.5,0.684,,
202,,iti,,html-keyboard-response,202,251995,0.0-1.0-264.0,0,0,44248,,,,,,65.0,,2.0,,,,,,,,,,,,,,,,,,,,,,,,,,210.0,1.5,,
203,,size_choice,,html-keyboard-response,203,252889,0.0-1.0-266.0,0,0,44248,,893.0,,,75.0,66.0,66.0,2.0,2000.0,S-M,0.0,S,M,1.0,2.0,teabag,hairdryer,teabag6,hairdryer1,135.0,70.0,/static/Size_judgement/Stimuli/Size_stims/S/teabag/teabag6.jpg,/static/Size_judgement/Stimuli/Size_stims/M/hairdryer/hairdryer11.jpg,0.0,hairdryer,teabag,M,S,2.0,1.0,hairdryer1,teabag6,1.0,210.893,0.893,0.0,
204,,size_choice_confirmation,,html-keyboard-response,204,253498,0.0-1.0-267.0-0.0,0,0,44248,,,,,,66.0,,2.0,,,,,,,,,,,,,,,,,,,,,,,,,,211.5,0.607,,
205,,iti,,html-keyboard-response,205,255500,0.0-1.0-268.0,0,0,44248,,,,,,66.0,,2.0,,,,,,,,,,,,,,,,,,,,,,,,,,213.5,2.0,,
206,,size_choice,,html-keyboard-response,206,256258,0.0-1.0-270.0,0,0,44248,,756.0,,,68.0,67.0,67.0,2.0,1500.0,S-L,1.0,L,S,3.0,1.0,garbagecan,die,garbagecan8,die7,37.0,106.0,/static/Size_judgement/Stimuli/Size_stims/L/garbagecan/garbagecan13.jpg,/static/Size_judgement/Stimuli/Size_stims/S/die/die4.jpg,1.0,garbagecan,die,L,S,3.0,1.0,garbagecan8,die7,1.0,214.256,0.756,0.0,
207,,size_choice_confirmation,,html-keyboard-response,207,257003,0.0-1.0-271.0-0.0,0,0,44248,,,,,,67.0,,2.0,,,,,,,,,,,,,,,,,,,,,,,,,,215.0,0.744,,
208,,iti,,html-keyboard-response,208,258505,0.0-1.0-272.0,0,0,44248,,,,,,67.0,,2.0,,,,,,,,,,,,,,,,,,,,,,,,,,216.5,1.5,,
209,,size_choice,,html-keyboard-response,209,259226,0.0-1.0-274.0,0,0,44248,,719.0,,,75.0,68.0,68.0,2.0,1500.0,S-M,0.0,S,M,1.0,2.0,thread,basketball,thread1,basketball2,140.0,51.0,/static/Size_judgement/Stimuli/Size_stims/S/thread/thread7.jpg,/static/Size_judgement/Stimuli/Size_stims/M/basketball/basketball8.jpg,0.0,basketball,thread,M,S,2.0,1.0,basketball2,thread1,1.0,217.219,0.719,0.0,
210,,size_choice_confirmation,,html-keyboard-response,210,260008,0.0-1.0-275.0-0.0,0,0,44248,,,,,,68.0,,2.0,,,,,,,,,,,,,,,,,,,,,,,,,,218.0,0.781,,
211,,iti,,html-keyboard-response,211,261510,0.0-1.0-276.0,0,0,44248,,,,,,68.0,,2.0,,,,,,,,,,,,,,,,,,,,,,,,,,219.5,1.5,,
212,,size_choice,,html-keyboard-response,212,262449,0.0-1.0-278.0,0,0,44248,,938.0,,,75.0,69.0,69.0,2.0,1000.0,S-L,0.0,S,L,1.0,3.0,die,dishwasher,die8,dishwasher3,107.0,22.0,/static/Size_judgement/Stimuli/Size_stims/S/die/die5.jpg,/static/Size_judgement/Stimuli/Size_stims/L/dishwasher/dishwasher8.jpg,0.0,dishwasher,die,L,S,3.0,1.0,dishwasher3,die8,1.0,220.438,0.938,0.0,
213,,size_choice_confirmation,,html-keyboard-response,213,263014,0.0-1.0-279.0-0.0,0,0,44248,,,,,,69.0,,2.0,,,,,,,,,,,,,,,,,,,,,,,,,,221.0,0.562,,
214,,iti,,html-keyboard-response,214,264015,0.0-1.0-280.0,0,0,44248,,,,,,69.0,,2.0,,,,,,,,,,,,,,,,,,,,,,,,,,222.0,1.0,,
215,,size_choice,,html-keyboard-response,215,264657,0.0-1.0-282.0,0,0,44248,,642.0,,,68.0,70.0,70.0,2.0,1500.0,S-XL,1.0,XL,S,4.0,1.0,van,thread,van1,thread9,190.0,148.0,/static/Size_judgement/Stimuli/Size_stims/XL/van/van5.jpg,/static/Size_judgement/Stimuli/Size_stims/S/thread/thread8.jpg,1.0,van,thread,XL,S,4.0,1.0,van1,thread9,1.0,222.642,0.642,0.0,
216,,size_choice_confirmation,,html-keyboard-response,216,265517,0.0-1.0-283.0-0.0,0,0,44248,,,,,,70.0,,2.0,,,,,,,,,,,,,,,,,,,,,,,,,,223.5,0.858,,
217,,iti,,html-keyboard-response,217,267018,0.0-1.0-284.0,0,0,44248,,,,,,70.0,,2.0,,,,,,,,,,,,,,,,,,,,,,,,,,225.0,1.5,,
218,,size_choice,,html-keyboard-response,218,267809,0.0-1.0-286.0,0,0,44248,,791.0,,,75.0,71.0,71.0,2.0,3500.0,M-L,0.0,M,L,2.0,3.0,basketball,deskchair,basketball9,deskchair2,58.0,11.0,/static/Size_judgement/Stimuli/Size_stims/M/basketball/basketball5.jpg,/static/Size_judgement/Stimuli/Size_stims/L/deskchair/deskchair8.jpg,0.0,deskchair,basketball,L,M,3.0,2.0,deskchair2,basketball9,1.0,225.791,0.791,0.0,
219,,size_choice_confirmation,,html-keyboard-response,219,268520,0.0-1.0-287.0-0.0,0,0,44248,,,,,,71.0,,2.0,,,,,,,,,,,,,,,,,,,,,,,,,,226.5,0.709,,
220,,iti,,html-keyboard-response,220,272021,0.0-1.0-288.0,0,0,44248,,,,,,71.0,,2.0,,,,,,,,,,,,,,,,,,,,,,,,,,230.0,3.5,,
221,,size_choice,,html-keyboard-response,221,272689,0.0-1.0-290.0,0,0,44248,,667.0,,,68.0,72.0,72.0,2.0,1000.0,L-XL,1.0,XL,L,4.0,3.0,car,deskchair,car9,deskchair4,158.0,13.0,/static/Size_judgement/Stimuli/Size_stims/XL/car/car15.jpg,/static/Size_judgement/Stimuli/Size_stims/L/deskchair/deskchair6.jpg,1.0,car,deskchair,XL,L,4.0,3.0,car9,deskchair4,1.0,230.667,0.667,0.0,
222,,size_choice_confirmation,,html-keyboard-response,222,273524,0.0-1.0-291.0-0.0,0,0,44248,,,,,,72.0,,2.0,,,,,,,,,,,,,,,,,,,,,,,,,,231.5,0.833,,
223,,iti,,html-keyboard-response,223,274524,0.0-1.0-292.0,0,0,44248,,,,,,72.0,,2.0,,,,,,,,,,,,,,,,,,,,,,,,,,232.5,1.0,,
224,,size_choice,,html-keyboard-response,224,275545,0.0-1.0-294.0,0,0,44248,,1020.0,,,75.0,73.0,73.0,2.0,1500.0,M-M,,M,M,2.0,2.0,hairdryer,basketball,hairdryer3,basketball3,72.0,52.0,/static/Size_judgement/Stimuli/Size_stims/M/hairdryer/hairdryer17.jpg,/static/Size_judgement/Stimuli/Size_stims/M/basketball/basketball10.jpg,0.0,basketball,hairdryer,M,M,2.0,2.0,basketball3,hairdryer3,,233.52,1.02,0.0,
225,,size_choice_confirmation,,html-keyboard-response,225,276028,0.0-1.0-295.0-0.0,0,0,44248,,,,,,73.0,,2.0,,,,,,,,,,,,,,,,,,,,,,,,,,234.0,0.48,,
226,,iti,,html-keyboard-response,226,277529,0.0-1.0-296.0,0,0,44248,,,,,,73.0,,2.0,,,,,,,,,,,,,,,,,,,,,,,,,,235.5,1.5,,
227,,size_choice,,html-keyboard-response,227,278154,0.0-1.0-298.0,0,0,44248,,623.0,,,75.0,74.0,74.0,2.0,1500.0,S-XL,0.0,S,XL,1.0,4.0,paperclip,crane,paperclip10,crane1,119.0,160.0,/static/Size_judgement/Stimuli/Size_stims/S/paperclip/paperclip10.jpg,/static/Size_judgement/Stimuli/Size_stims/XL/crane/crane7.jpg,0.0,crane,paperclip,XL,S,4.0,1.0,crane1,paperclip10,1.0,236.123,0.623,0.0,
228,,size_choice_confirmation,,html-keyboard-response,228,279032,0.0-1.0-299.0-0.0,0,0,44248,,,,,,74.0,,2.0,,,,,,,,,,,,,,,,,,,,,,,,,,237.0,0.877,,
229,,iti,,html-keyboard-response,229,280534,0.0-1.0-300.0,0,0,44248,,,,,,74.0,,2.0,,,,,,,,,,,,,,,,,,,,,,,,,,238.5,1.5,,
230,,size_choice,,html-keyboard-response,230,281217,0.0-1.0-302.0,0,0,44248,,683.0,,,68.0,75.0,75.0,2.0,1000.0,M-L,1.0,L,M,3.0,2.0,cooler,ketchup,cooler5,ketchup10,4.0,99.0,/static/Size_judgement/Stimuli/Size_stims/L/cooler/cooler10.jpg,/static/Size_judgement/Stimuli/Size_stims/M/ketchup/ketchup6.jpg,1.0,cooler,ketchup,L,M,3.0,2.0,cooler5,ketchup10,1.0,239.183,0.683,0.0,
231,,size_choice_confirmation,,html-keyboard-response,231,282036,0.0-1.0-303.0-0.0,0,0,44248,,,,,,75.0,,2.0,,,,,,,,,,,,,,,,,,,,,,,,,,240.0,0.817,,
232,,iti,,html-keyboard-response,232,283037,0.0-1.0-304.0,0,0,44248,,,,,,75.0,,2.0,,,,,,,,,,,,,,,,,,,,,,,,,,241.0,1.0,,
233,,size_choice,,html-keyboard-response,233,284161,0.0-1.0-306.0,0,0,44248,,1123.0,,,75.0,76.0,76.0,2.0,3000.0,S-S,,S,S,1.0,1.0,screws,die,screws7,die4,126.0,103.0,/static/Size_judgement/Stimuli/Size_stims/S/screws/screws1.jpg,/static/Size_judgement/Stimuli/Size_stims/S/die/die2.jpg,0.0,die,screws,S,S,1.0,1.0,die4,screws7,,242.123,1.123,0.0,
234,,size_choice_confirmation,,html-keyboard-response,234,284540,0.0-1.0-307.0-0.0,0,0,44248,,,,,,76.0,,2.0,,,,,,,,,,,,,,,,,,,,,,,,,,242.5,0.377,,
235,,iti,,html-keyboard-response,235,287542,0.0-1.0-308.0,0,0,44248,,,,,,76.0,,2.0,,,,,,,,,,,,,,,,,,,,,,,,,,245.5,3.0,,
236,,size_choice,,html-keyboard-response,236,288178,0.0-1.0-310.0,0,0,44248,,634.0,,,68.0,77.0,77.0,2.0,1000.0,L-L,,L,L,3.0,3.0,mailbox,cooler,mailbox1,cooler2,40.0,1.0,/static/Size_judgement/Stimuli/Size_stims/L/mailbox/mailbox3.jpg,/static/Size_judgement/Stimuli/Size_stims/L/cooler/cooler9.jpg,1.0,mailbox,cooler,L,L,3.0,3.0,mailbox1,cooler2,,246.134,0.634,0.0,
237,,size_choice_confirmation,,html-keyboard-response,237,289045,0.0-1.0-311.0-0.0,0,0,44248,,,,,,77.0,,2.0,,,,,,,,,,,,,,,,,,,,,,,,,,247.0,0.866,,
238,,iti,,html-keyboard-response,238,290049,0.0-1.0-312.0,0,0,44248,,,,,,77.0,,2.0,,,,,,,,,,,,,,,,,,,,,,,,,,248.0,1.0,,
239,,size_choice,,html-keyboard-response,239,291009,0.0-1.0-314.0,0,0,44248,,959.0,,,68.0,78.0,78.0,2.0,1000.0,S-L,1.0,L,S,3.0,1.0,cooler,paperclip,cooler8,paperclip6,7.0,115.0,/static/Size_judgement/Stimuli/Size_stims/L/cooler/cooler5.jpg,/static/Size_judgement/Stimuli/Size_stims/S/paperclip/paperclip6.jpg,1.0,cooler,paperclip,L,S,3.0,1.0,cooler8,paperclip6,1.0,248.959,0.959,0.0,
240,,size_choice_confirmation,,html-keyboard-response,240,291557,0.0-1.0-315.0-0.0,0,0,44248,,,,,,78.0,,2.0,,,,,,,,,,,,,,,,,,,,,,,,,,249.5,0.541,,
241,,iti,,html-keyboard-response,241,292558,0.0-1.0-316.0,0,0,44248,,,,,,78.0,,2.0,,,,,,,,,,,,,,,,,,,,,,,,,,250.5,1.0,,
242,,size_choice,,html-keyboard-response,242,293241,0.0-1.0-318.0,0,0,44248,,682.0,,,75.0,79.0,79.0,2.0,3000.0,S-XL,0.0,S,XL,1.0,4.0,paperclip,crane,paperclip3,crane2,112.0,161.0,/static/Size_judgement/Stimuli/Size_stims/S/paperclip/paperclip1.jpg,/static/Size_judgement/Stimuli/Size_stims/XL/crane/crane6.jpg,0.0,crane,paperclip,XL,S,4.0,1.0,crane2,paperclip3,1.0,251.182,0.682,0.0,
243,,size_choice_confirmation,,html-keyboard-response,243,294061,0.0-1.0-319.0-0.0,0,0,44248,,,,,,79.0,,2.0,,,,,,,,,,,,,,,,,,,,,,,,,,252.0,0.818,,
244,,iti,,html-keyboard-response,244,297067,0.0-1.0-320.0,0,0,44248,,,,,,79.0,,2.0,,,,,,,,,,,,,,,,,,,,,,,,,,255.0,3.0,,
245,,size_choice,,html-keyboard-response,245,297665,0.0-1.0-322.0,0,0,44248,,598.0,,,75.0,80.0,80.0,2.0,1000.0,M-XL,0.0,M,XL,2.0,4.0,ketchup,van,ketchup1,van2,90.0,191.0,/static/Size_judgement/Stimuli/Size_stims/M/ketchup/ketchup8.jpg,/static/Size_judgement/Stimuli/Size_stims/XL/van/van4.jpg,0.0,van,ketchup,XL,M,4.0,2.0,van2,ketchup1,1.0,255.598,0.598,0.0,
246,,size_choice_confirmation,,html-keyboard-response,246,298569,0.0-1.0-323.0-0.0,0,0,44248,,,,,,80.0,,2.0,,,,,,,,,,,,,,,,,,,,,,,,,,256.5,0.902,,
247,,iti,,html-keyboard-response,247,299570,0.0-1.0-324.0,0,0,44248,,,,,,80.0,,2.0,,,,,,,,,,,,,,,,,,,,,,,,,,257.5,1.0,,
248,,size_choice,,html-keyboard-response,248,300537,0.0-1.0-326.0,0,0,44248,,966.0,,,75.0,81.0,81.0,2.0,3000.0,M-XL,0.0,M,XL,2.0,4.0,coffeemaker,tractor,coffeemaker6,tractor3,65.0,182.0,/static/Size_judgement/Stimuli/Size_stims/M/coffeemaker/coffeemaker8.jpg,/static/Size_judgement/Stimuli/Size_stims/XL/tractor/tractor5.jpg,0.0,tractor,coffeemaker,XL,M,4.0,2.0,tractor3,coffeemaker6,1.0,258.466,0.966,0.0,
249,,size_choice_confirmation,,html-keyboard-response,249,301073,0.0-1.0-327.0-0.0,0,0,44248,,,,,,81.0,,2.0,,,,,,,,,,,,,,,,,,,,,,,,,,259.0,0.534,,
250,,iti,,html-keyboard-response,250,304074,0.0-1.0-328.0,0,0,44248,,,,,,81.0,,2.0,,,,,,,,,,,,,,,,,,,,,,,,,,262.0,3.0,,
251,,size_choice,,html-keyboard-response,251,305081,0.0-1.0-330.0,0,0,44248,,1006.0,,,68.0,82.0,82.0,2.0,1000.0,M-L,1.0,L,M,3.0,2.0,dishwasher,basketball,dishwasher6,basketball10,25.0,59.0,/static/Size_judgement/Stimuli/Size_stims/L/dishwasher/dishwasher6.jpg,/static/Size_judgement/Stimuli/Size_stims/M/basketball/basketball4.jpg,1.0,dishwasher,basketball,L,M,3.0,2.0,dishwasher6,basketball10,1.0,263.006,1.006,0.0,
252,,size_choice_confirmation,,html-keyboard-response,252,305577,0.0-1.0-331.0-0.0,0,0,44248,,,,,,82.0,,2.0,,,,,,,,,,,,,,,,,,,,,,,,,,263.5,0.494,,
253,,iti,,html-keyboard-response,253,306578,0.0-1.0-332.0,0,0,44248,,,,,,82.0,,2.0,,,,,,,,,,,,,,,,,,,,,,,,,,264.5,1.0,,
254,,size_choice,,html-keyboard-response,254,307753,0.0-1.0-334.0,0,0,44248,,1175.0,,,68.0,83.0,83.0,2.0,1000.0,M-XL,1.0,XL,M,4.0,2.0,van,hairdryer,van8,hairdryer9,197.0,78.0,/static/Size_judgement/Stimuli/Size_stims/XL/van/van10.jpg,/static/Size_judgement/Stimuli/Size_stims/M/hairdryer/hairdryer5.jpg,1.0,van,hairdryer,XL,M,4.0,2.0,van8,hairdryer9,1.0,265.675,1.175,0.0,
255,,size_choice_confirmation,,html-keyboard-response,255,308080,0.0-1.0-335.0-0.0,0,0,44248,,,,,,83.0,,2.0,,,,,,,,,,,,,,,,,,,,,,,,,,266.0,0.325,,
256,,iti,,html-keyboard-response,256,309082,0.0-1.0-336.0,0,0,44248,,,,,,83.0,,2.0,,,,,,,,,,,,,,,,,,,,,,,,,,267.0,1.0,,
257,,size_choice,,html-keyboard-response,257,310169,0.0-1.0-338.0,0,0,44248,,1086.0,,,75.0,84.0,84.0,2.0,1000.0,XL-XL,,XL,XL,4.0,4.0,tractor,dumptruck,tractor5,dumptruck3,184.0,172.0,/static/Size_judgement/Stimuli/Size_stims/XL/tractor/tractor1.jpg,/static/Size_judgement/Stimuli/Size_stims/XL/dumptruck/dumptruck10.jpg,0.0,dumptruck,tractor,XL,XL,4.0,4.0,dumptruck3,tractor5,,268.086,1.086,0.0,
258,,size_choice_confirmation,,html-keyboard-response,258,310585,0.0-1.0-339.0-0.0,0,0,44248,,,,,,84.0,,2.0,,,,,,,,,,,,,,,,,,,,,,,,,,268.5,0.414,,
259,,iti,,html-keyboard-response,259,311587,0.0-1.0-340.0,0,0,44248,,,,,,84.0,,2.0,,,,,,,,,,,,,,,,,,,,,,,,,,269.5,1.0,,
260,,size_choice,,html-keyboard-response,260,312337,0.0-1.0-342.0,0,0,44248,,750.0,,,68.0,85.0,85.0,2.0,1000.0,M-L,1.0,L,M,3.0,2.0,mailbox,basketball,mailbox7,basketball1,46.0,50.0,/static/Size_judgement/Stimuli/Size_stims/L/mailbox/mailbox7.jpg,/static/Size_judgement/Stimuli/Size_stims/M/basketball/basketball9.jpg,1.0,mailbox,basketball,L,M,3.0,2.0,mailbox7,basketball1,1.0,270.25,0.75,0.0,
261,,size_choice_confirmation,,html-keyboard-response,261,313090,0.0-1.0-343.0-0.0,0,0,44248,,,,,,85.0,,2.0,,,,,,,,,,,,,,,,,,,,,,,,,,271.0,0.75,,
262,,iti,,html-keyboard-response,262,314092,0.0-1.0-344.0,0,0,44248,,,,,,85.0,,2.0,,,,,,,,,,,,,,,,,,,,,,,,,,272.0,1.0,,
263,,size_choice,,html-keyboard-response,263,314745,0.0-1.0-346.0,0,0,44248,,652.0,,,68.0,86.0,86.0,2.0,1500.0,S-XL,1.0,XL,S,4.0,1.0,dumptruck,screws,dumptruck6,screws8,175.0,127.0,/static/Size_judgement/Stimuli/Size_stims/XL/dumptruck/dumptruck2.jpg,/static/Size_judgement/Stimuli/Size_stims/S/screws/screws10.jpg,1.0,dumptruck,screws,XL,S,4.0,1.0,dumptruck6,screws8,1.0,272.652,0.652,0.0,
264,,size_choice_confirmation,,html-keyboard-response,264,315594,0.0-1.0-347.0-0.0,0,0,44248,,,,,,86.0,,2.0,,,,,,,,,,,,,,,,,,,,,,,,,,273.5,0.848,,
265,,iti,,html-keyboard-response,265,317096,0.0-1.0-348.0,0,0,44248,,,,,,86.0,,2.0,,,,,,,,,,,,,,,,,,,,,,,,,,275.0,1.5,,
266,,size_choice,,html-keyboard-response,266,317681,0.0-1.0-350.0,0,0,44248,,585.0,,,68.0,87.0,87.0,2.0,1500.0,L-XL,1.0,XL,L,4.0,3.0,car,deskchair,car7,deskchair8,156.0,17.0,/static/Size_judgement/Stimuli/Size_stims/XL/car/car13.jpg,/static/Size_judgement/Stimuli/Size_stims/L/deskchair/deskchair1.jpg,1.0,car,deskchair,XL,L,4.0,3.0,car7,deskchair8,1.0,275.585,0.585,0.0,
267,,size_choice_confirmation,,html-keyboard-response,267,318597,0.0-1.0-351.0-0.0,0,0,44248,,,,,,87.0,,2.0,,,,,,,,,,,,,,,,,,,,,,,,,,276.5,0.915,,
268,,iti,,html-keyboard-response,268,320100,0.0-1.0-352.0,0,0,44248,,,,,,87.0,,2.0,,,,,,,,,,,,,,,,,,,,,,,,,,278.0,1.5,,
269,,size_choice,,html-keyboard-response,269,320905,0.0-1.0-354.0,0,0,44248,,804.0,,,68.0,88.0,88.0,2.0,1000.0,M-L,1.0,L,M,3.0,2.0,garbagecan,hairdryer,garbagecan10,hairdryer7,39.0,76.0,/static/Size_judgement/Stimuli/Size_stims/L/garbagecan/garbagecan11.jpg,/static/Size_judgement/Stimuli/Size_stims/M/hairdryer/hairdryer3.jpg,1.0,garbagecan,hairdryer,L,M,3.0,2.0,garbagecan10,hairdryer7,1.0,278.804,0.804,0.0,
270,,size_choice_confirmation,,html-keyboard-response,270,321603,0.0-1.0-355.0-0.0,0,0,44248,,,,,,88.0,,2.0,,,,,,,,,,,,,,,,,,,,,,,,,,279.5,0.696,,
271,,iti,,html-keyboard-response,271,322604,0.0-1.0-356.0,0,0,44248,,,,,,88.0,,2.0,,,,,,,,,,,,,,,,,,,,,,,,,,280.5,1.0,,
272,,size_choice,,html-keyboard-response,272,323201,0.0-1.0-358.0,0,0,44248,,596.0,,,75.0,89.0,89.0,2.0,2000.0,M-XL,0.0,M,XL,2.0,4.0,handsaw,car,handsaw5,car10,84.0,159.0,/static/Size_judgement/Stimuli/Size_stims/M/handsaw/handsaw1.jpg,/static/Size_judgement/Stimuli/Size_stims/XL/car/car9.jpg,0.0,car,handsaw,XL,M,4.0,2.0,car10,handsaw5,1.0,281.096,0.596,0.0,
273,,size_choice_confirmation,,html-keyboard-response,273,324108,0.0-1.0-359.0-0.0,0,0,44248,,,,,,89.0,,2.0,,,,,,,,,,,,,,,,,,,,,,,,,,282.0,0.904,,
274,,iti,,html-keyboard-response,274,326110,0.0-1.0-360.0,0,0,44248,,,,,,89.0,,2.0,,,,,,,,,,,,,,,,,,,,,,,,,,284.0,2.0,,0.96
275,,size_final_tally,,html-keyboard-response,275,329121,0.0-2.0,0,0,44248,,3010.0,,,68.0,,,,,,,,,,,,,,,,,,,,,,,,,,,,,,,,
