,success,ttype,start_time,trial_type,trial_index,time_elapsed,internal_node_id,warning,missed_checkup,PID,view_history,rt,responses,repeat_instructions,key_press,index,trial_num,block,iti,pair_type,high_size_on_left,left_size_group,right_size_group,left_size_num,right_size_num,left_category,right_category,left_exemplar,right_exemplar,left_index,right_index,left_img_path,right_img_path,left_chosen,chosen_category,unchosen_category,chosen_size_group,unchosen_size_group,chosen_size_num,unchosen_size_num,chosen_exemplar,unchosen_exemplar,accuracy,onset,duration,no_response,size_final_tally
0,True,full_screen,d06032022hr1452,fullscreen,0,2326,0.0-0.0,0,0,83590,,,,,,,,,,,,,,,,,,,,,,,,,,,,,,,,,,,,,
1,,size_instructions,,instructions,1,12678,0.0-1.0-0.0-0.0,0,0,83590,"[{""page_index"":0,""viewing_time"":2334},{""page_index"":1,""viewing_time"":2497},{""page_index"":2,""viewing_time"":1277},{""page_index"":3,""viewing_time"":1221},{""page_index"":4,""viewing_time"":1239},{""page_index"":5,""viewing_time"":1781}]",10350.0,,,,,,,,,,,,,,,,,,,,,,,,,,,,,,,,,,,
2,,size_comprehension_check,,survey-multi-choice,2,17982,0.0-1.0-0.0-1.0,0,0,83590,,5298.0,"{""Q0"":""True"",""Q1"":""Size in the real world"",""Q2"":""True"",""Q3"":""D for left and K for right""}",0.0,,,,,,,,,,,,,,,,,,,,,,,,,,,,,,,,,
3,,,,html-keyboard-response,3,18937,0.0-1.0-1.0,0,0,83590,,953.0,,,68.0,,,,,,,,,,,,,,,,,,,,,,,,,,,,,,,,
4,,size_choice,,html-keyboard-response,4,19585,0.0-1.0-2.0,0,0,83590,,645.0,,,68.0,0.0,0.0,1.0,1000.0,L-L,,L,L,3.0,3.0,dishwasher,garbagecan,dishwasher9,garbagecan9,28.0,38.0,/static/Size_judgement/Stimuli/Size_stims/L/dishwasher/dishwasher2.jpg,/static/Size_judgement/Stimuli/Size_stims/L/garbagecan/garbagecan12.jpg,1.0,dishwasher,garbagecan,L,L,3.0,3.0,dishwasher9,garbagecan9,,0.645,0.645,0.0,
5,,size_choice_confirmation,,html-keyboard-response,5,20443,0.0-1.0-3.0-0.0,0,0,83590,,,,,,0.0,,,,,,,,,,,,,,,,,,,,,,,,,,,,1.5,0.855,,
6,,iti,,html-keyboard-response,6,21446,0.0-1.0-4.0,0,0,83590,,,,,,,,,,,,,,,,,,,,,,,,,,,,,,,,,,2.5,1.0,,
7,,size_choice,,html-keyboard-response,7,21644,0.0-1.0-6.0,0,0,83590,,195.0,,,68.0,1.0,1.0,1.0,1000.0,M-M,,M,M,2.0,2.0,handsaw,hairdryer,handsaw1,hairdryer2,80.0,71.0,/static/Size_judgement/Stimuli/Size_stims/M/handsaw/handsaw8.jpg,/static/Size_judgement/Stimuli/Size_stims/M/hairdryer/hairdryer12.jpg,1.0,handsaw,hairdryer,M,M,2.0,2.0,handsaw1,hairdryer2,,2.695,0.195,0.0,
8,,size_choice_confirmation,,html-keyboard-response,8,22953,0.0-1.0-7.0-0.0,0,0,83590,,,,,,1.0,,,,,,,,,,,,,,,,,,,,,,,,,,,,4.0,1.305,,
9,,iti,,html-keyboard-response,9,23955,0.0-1.0-8.0,0,0,83590,,,,,,,,,,,,,,,,,,,,,,,,,,,,,,,,,,5.0,1.0,,
10,,size_choice,,html-keyboard-response,10,23956,0.0-1.0-10.0,0,0,83590,,0.0,,,68.0,2.0,2.0,1.0,1500.0,S-XL,0.0,S,XL,1.0,4.0,teabag,dumptruck,teabag7,dumptruck8,136.0,177.0,/static/Size_judgement/Stimuli/Size_stims/S/teabag/teabag10.jpg,/static/Size_judgement/Stimuli/Size_stims/XL/dumptruck/dumptruck7.jpg,1.0,teabag,dumptruck,S,XL,1.0,4.0,teabag7,dumptruck8,0.0,5.0,0.0,0.0,
11,,size_choice_confirmation,,html-keyboard-response,11,25459,0.0-1.0-11.0-0.0,0,0,83590,,,,,,2.0,,,,,,,,,,,,,,,,,,,,,,,,,,,,6.5,1.5,,
12,,iti,,html-keyboard-response,12,26965,0.0-1.0-12.0,0,0,83590,,,,,,,,,,,,,,,,,,,,,,,,,,,,,,,,,,8.0,1.5,,
13,,size_choice,,html-keyboard-response,13,27135,0.0-1.0-14.0,0,0,83590,,169.0,,,68.0,3.0,3.0,1.0,2000.0,S-M,1.0,M,S,2.0,1.0,hairdryer,screws,hairdryer5,screws5,74.0,124.0,/static/Size_judgement/Stimuli/Size_stims/M/hairdryer/hairdryer15.jpg,/static/Size_judgement/Stimuli/Size_stims/S/screws/screws2.jpg,1.0,hairdryer,screws,M,S,2.0,1.0,hairdryer5,screws5,1.0,8.169,0.169,0.0,
14,,size_choice_confirmation,,html-keyboard-response,14,28473,0.0-1.0-15.0-0.0,0,0,83590,,,,,,3.0,,,,,,,,,,,,,,,,,,,,,,,,,,,,9.5,1.331,,
15,,iti,,html-keyboard-response,15,30476,0.0-1.0-16.0,0,0,83590,,,,,,,,,,,,,,,,,,,,,,,,,,,,,,,,,,11.5,2.0,,
16,,size_choice,,html-keyboard-response,16,30485,0.0-1.0-18.0,0,0,83590,,7.0,,,68.0,4.0,4.0,1.0,3500.0,S-XL,0.0,S,XL,1.0,4.0,teabag,car,teabag4,car9,133.0,158.0,/static/Size_judgement/Stimuli/Size_stims/S/teabag/teabag3.jpg,/static/Size_judgement/Stimuli/Size_stims/XL/car/car15.jpg,1.0,teabag,car,S,XL,1.0,4.0,teabag4,car9,0.0,11.507,0.007,0.0,
17,,size_choice_confirmation,,html-keyboard-response,17,31980,0.0-1.0-19.0-0.0,0,0,83590,,,,,,4.0,,,,,,,,,,,,,,,,,,,,,,,,,,,,13.0,1.493,,
18,,iti,,html-keyboard-response,18,35481,0.0-1.0-20.0,0,0,83590,,,,,,,,,,,,,,,,,,,,,,,,,,,,,,,,,,16.5,3.5,,
19,,size_choice,,html-keyboard-response,19,35754,0.0-1.0-22.0,0,0,83590,,272.0,,,68.0,5.0,5.0,1.0,1500.0,M-L,1.0,L,M,3.0,2.0,cooler,handsaw,cooler10,handsaw7,9.0,86.0,/static/Size_judgement/Stimuli/Size_stims/L/cooler/cooler6.jpg,/static/Size_judgement/Stimuli/Size_stims/M/handsaw/handsaw5.jpg,1.0,cooler,handsaw,L,M,3.0,2.0,cooler10,handsaw7,1.0,16.772,0.272,0.0,
20,,size_choice_confirmation,,html-keyboard-response,20,36988,0.0-1.0-23.0-0.0,0,0,83590,,,,,,5.0,,,,,,,,,,,,,,,,,,,,,,,,,,,,18.0,1.228,,
21,,iti,,html-keyboard-response,21,38492,0.0-1.0-24.0,0,0,83590,,,,,,,,,,,,,,,,,,,,,,,,,,,,,,,,,,19.5,1.5,,
22,,size_choice,,html-keyboard-response,22,38495,0.0-1.0-26.0,0,0,83590,,2.0,,,68.0,6.0,6.0,1.0,2000.0,M-XL,0.0,M,XL,2.0,4.0,basketball,crane,basketball10,crane9,59.0,168.0,/static/Size_judgement/Stimuli/Size_stims/M/basketball/basketball4.jpg,/static/Size_judgement/Stimuli/Size_stims/XL/crane/crane8.jpg,1.0,basketball,crane,M,XL,2.0,4.0,basketball10,crane9,0.0,19.502,0.002,0.0,
23,,size_choice_confirmation,,html-keyboard-response,23,39997,0.0-1.0-27.0-0.0,0,0,83590,,,,,,6.0,,,,,,,,,,,,,,,,,,,,,,,,,,,,21.0,1.498,,
24,,iti,,html-keyboard-response,24,41999,0.0-1.0-28.0,0,0,83590,,,,,,,,,,,,,,,,,,,,,,,,,,,,,,,,,,23.0,2.0,,
25,,size_choice,,html-keyboard-response,25,42503,0.0-1.0-30.0,0,0,83590,,502.0,,,68.0,7.0,7.0,1.0,3000.0,M-XL,0.0,M,XL,2.0,4.0,hairdryer,dumptruck,hairdryer7,dumptruck6,76.0,175.0,/static/Size_judgement/Stimuli/Size_stims/M/hairdryer/hairdryer3.jpg,/static/Size_judgement/Stimuli/Size_stims/XL/dumptruck/dumptruck2.jpg,1.0,hairdryer,dumptruck,M,XL,2.0,4.0,hairdryer7,dumptruck6,0.0,23.502,0.502,0.0,
26,,size_choice_confirmation,,html-keyboard-response,26,43508,0.0-1.0-31.0-0.0,0,0,83590,,,,,,7.0,,,,,,,,,,,,,,,,,,,,,,,,,,,,24.5,0.998,,
27,,iti,,html-keyboard-response,27,46514,0.0-1.0-32.0,0,0,83590,,,,,,,,,,,,,,,,,,,,,,,,,,,,,,,,,,27.5,3.0,,
28,,size_choice,,html-keyboard-response,28,46716,0.0-1.0-34.0,0,0,83590,,200.0,,,68.0,8.0,8.0,1.0,2000.0,XL-XL,,XL,XL,4.0,4.0,van,crane,van2,crane8,191.0,167.0,/static/Size_judgement/Stimuli/Size_stims/XL/van/van4.jpg,/static/Size_judgement/Stimuli/Size_stims/XL/crane/crane10.jpg,1.0,van,crane,XL,XL,4.0,4.0,van2,crane8,,27.7,0.2,0.0,
29,,size_choice_confirmation,,html-keyboard-response,29,48023,0.0-1.0-35.0-0.0,0,0,83590,,,,,,8.0,,,,,,,,,,,,,,,,,,,,,,,,,,,,29.0,1.3,,
30,,iti,,html-keyboard-response,30,50028,0.0-1.0-36.0,0,0,83590,,,,,,,,,,,,,,,,,,,,,,,,,,,,,,,,,,31.0,2.0,,
31,,size_choice,,html-keyboard-response,31,50187,0.0-1.0-38.0,0,0,83590,,156.0,,,68.0,9.0,9.0,1.0,2000.0,L-L,,L,L,3.0,3.0,dishwasher,cooler,dishwasher7,cooler8,26.0,7.0,/static/Size_judgement/Stimuli/Size_stims/L/dishwasher/dishwasher7.jpg,/static/Size_judgement/Stimuli/Size_stims/L/cooler/cooler5.jpg,1.0,dishwasher,cooler,L,L,3.0,3.0,dishwasher7,cooler8,,31.156,0.156,0.0,
32,,size_choice_confirmation,,html-keyboard-response,32,51537,0.0-1.0-39.0-0.0,0,0,83590,,,,,,9.0,,,,,,,,,,,,,,,,,,,,,,,,,,,,32.5,1.344,,
33,,iti,,html-keyboard-response,33,53540,0.0-1.0-40.0,0,0,83590,,,,,,,,,,,,,,,,,,,,,,,,,,,,,,,,,,34.5,2.0,,
34,,size_choice,,html-keyboard-response,34,53784,0.0-1.0-42.0,0,0,83590,,243.0,,,68.0,10.0,10.0,1.0,1000.0,M-L,1.0,L,M,3.0,2.0,garbagecan,basketball,garbagecan4,basketball4,33.0,53.0,/static/Size_judgement/Stimuli/Size_stims/L/garbagecan/garbagecan6.jpg,/static/Size_judgement/Stimuli/Size_stims/M/basketball/basketball1.jpg,1.0,garbagecan,basketball,L,M,3.0,2.0,garbagecan4,basketball4,1.0,34.743,0.243,0.0,
35,,size_choice_confirmation,,html-keyboard-response,35,55044,0.0-1.0-43.0-0.0,0,0,83590,,,,,,10.0,,,,,,,,,,,,,,,,,,,,,,,,,,,,36.0,1.257,,
36,,iti,,html-keyboard-response,36,56050,0.0-1.0-44.0,0,0,83590,,,,,,,,,,,,,,,,,,,,,,,,,,,,,,,,,,37.0,1.0,,
37,,size_choice,,html-keyboard-response,37,56109,0.0-1.0-46.0,0,0,83590,,58.0,,,68.0,11.0,11.0,1.0,1000.0,S-L,1.0,L,S,3.0,1.0,dishwasher,screws,dishwasher8,screws8,27.0,127.0,/static/Size_judgement/Stimuli/Size_stims/L/dishwasher/dishwasher3.jpg,/static/Size_judgement/Stimuli/Size_stims/S/screws/screws10.jpg,1.0,dishwasher,screws,L,S,3.0,1.0,dishwasher8,screws8,1.0,37.058,0.058,0.0,
38,,size_choice_confirmation,,html-keyboard-response,38,57557,0.0-1.0-47.0-0.0,0,0,83590,,,,,,11.0,,,,,,,,,,,,,,,,,,,,,,,,,,,,38.5,1.442,,
39,,iti,,html-keyboard-response,39,58562,0.0-1.0-48.0,0,0,83590,,,,,,,,,,,,,,,,,,,,,,,,,,,,,,,,,,39.5,1.0,,
40,,size_choice,,html-keyboard-response,40,58958,0.0-1.0-50.0,0,0,83590,,394.0,,,68.0,12.0,12.0,1.0,1000.0,L-XL,1.0,XL,L,4.0,3.0,tractor,deskchair,tractor6,deskchair5,185.0,14.0,/static/Size_judgement/Stimuli/Size_stims/XL/tractor/tractor3.jpg,/static/Size_judgement/Stimuli/Size_stims/L/deskchair/deskchair7.jpg,1.0,tractor,deskchair,XL,L,4.0,3.0,tractor6,deskchair5,1.0,39.894,0.394,0.0,
41,,size_choice_confirmation,,html-keyboard-response,41,60071,0.0-1.0-51.0-0.0,0,0,83590,,,,,,12.0,,,,,,,,,,,,,,,,,,,,,,,,,,,,41.0,1.106,,
42,,iti,,html-keyboard-response,42,61076,0.0-1.0-52.0,0,0,83590,,,,,,,,,,,,,,,,,,,,,,,,,,,,,,,,,,42.0,1.0,,
43,,size_choice,,html-keyboard-response,43,61363,0.0-1.0-54.0,0,0,83590,,286.0,,,75.0,13.0,13.0,1.0,1000.0,S-S,,S,S,1.0,1.0,thread,die,thread10,die1,149.0,100.0,/static/Size_judgement/Stimuli/Size_stims/S/thread/thread9.jpg,/static/Size_judgement/Stimuli/Size_stims/S/die/die8.jpg,0.0,die,thread,S,S,1.0,1.0,die1,thread10,,42.286,0.286,0.0,
44,,size_choice_confirmation,,html-keyboard-response,44,62579,0.0-1.0-55.0-0.0,0,0,83590,,,,,,13.0,,,,,,,,,,,,,,,,,,,,,,,,,,,,43.5,1.214,,
45,,iti,,html-keyboard-response,45,63583,0.0-1.0-56.0,0,0,83590,,,,,,,,,,,,,,,,,,,,,,,,,,,,,,,,,,44.5,1.0,,
46,,size_choice,,html-keyboard-response,46,63730,0.0-1.0-58.0,0,0,83590,,145.0,,,75.0,14.0,14.0,1.0,1000.0,M-XL,0.0,M,XL,2.0,4.0,coffeemaker,tractor,coffeemaker4,tractor4,63.0,183.0,/static/Size_judgement/Stimuli/Size_stims/M/coffeemaker/coffeemaker11.jpg,/static/Size_judgement/Stimuli/Size_stims/XL/tractor/tractor4.jpg,0.0,tractor,coffeemaker,XL,M,4.0,2.0,tractor4,coffeemaker4,1.0,44.645,0.145,0.0,
47,,size_choice_confirmation,,html-keyboard-response,47,65087,0.0-1.0-59.0-0.0,0,0,83590,,,,,,14.0,,,,,,,,,,,,,,,,,,,,,,,,,,,,46.0,1.355,,
48,,iti,,html-keyboard-response,48,66090,0.0-1.0-60.0,0,0,83590,,,,,,,,,,,,,,,,,,,,,,,,,,,,,,,,,,47.0,1.0,,
49,,size_choice,,html-keyboard-response,49,66384,0.0-1.0-62.0,0,0,83590,,293.0,,,75.0,15.0,15.0,1.0,3500.0,M-XL,0.0,M,XL,2.0,4.0,handsaw,van,handsaw5,van10,84.0,199.0,/static/Size_judgement/Stimuli/Size_stims/M/handsaw/handsaw1.jpg,/static/Size_judgement/Stimuli/Size_stims/XL/van/van8.jpg,0.0,van,handsaw,XL,M,4.0,2.0,van10,handsaw5,1.0,47.293,0.293,0.0,
50,,size_choice_confirmation,,html-keyboard-response,50,67595,0.0-1.0-63.0-0.0,0,0,83590,,,,,,15.0,,,,,,,,,,,,,,,,,,,,,,,,,,,,48.5,1.207,,
51,,iti,,html-keyboard-response,51,71096,0.0-1.0-64.0,0,0,83590,,,,,,,,,,,,,,,,,,,,,,,,,,,,,,,,,,52.0,3.5,,
52,,size_choice,,html-keyboard-response,52,71217,0.0-1.0-66.0,0,0,83590,,117.0,,,75.0,16.0,16.0,1.0,1500.0,XL-XL,,XL,XL,4.0,4.0,dumptruck,car,dumptruck2,car6,171.0,155.0,/static/Size_judgement/Stimuli/Size_stims/XL/dumptruck/dumptruck8.jpg,/static/Size_judgement/Stimuli/Size_stims/XL/car/car12.jpg,0.0,car,dumptruck,XL,XL,4.0,4.0,car6,dumptruck2,,52.117,0.117,0.0,
53,,size_choice_confirmation,,html-keyboard-response,53,72605,0.0-1.0-67.0-0.0,0,0,83590,,,,,,16.0,,,,,,,,,,,,,,,,,,,,,,,,,,,,53.5,1.383,,
54,,iti,,html-keyboard-response,54,74109,0.0-1.0-68.0,0,0,83590,,,,,,,,,,,,,,,,,,,,,,,,,,,,,,,,,,55.0,1.5,,
55,,size_choice,,html-keyboard-response,55,74182,0.0-1.0-70.0,0,0,83590,,69.0,,,75.0,17.0,17.0,1.0,1500.0,S-XL,1.0,XL,S,4.0,1.0,van,screws,van1,screws6,190.0,125.0,/static/Size_judgement/Stimuli/Size_stims/XL/van/van5.jpg,/static/Size_judgement/Stimuli/Size_stims/S/screws/screws3.jpg,0.0,screws,van,S,XL,1.0,4.0,screws6,van1,0.0,55.069,0.069,0.0,
56,,size_choice_confirmation,,html-keyboard-response,56,75619,0.0-1.0-71.0-0.0,0,0,83590,,,,,,17.0,,,,,,,,,,,,,,,,,,,,,,,,,,,,56.5,1.431,,
57,,iti,,html-keyboard-response,57,77122,0.0-1.0-72.0,0,0,83590,,,,,,,,,,,,,,,,,,,,,,,,,,,,,,,,,,58.0,1.5,,
58,,size_choice,,html-keyboard-response,58,77160,0.0-1.0-74.0,0,0,83590,,36.0,,,75.0,18.0,18.0,1.0,3500.0,M-XL,1.0,XL,M,4.0,2.0,car,basketball,car5,basketball8,154.0,57.0,/static/Size_judgement/Stimuli/Size_stims/XL/car/car11.jpg,/static/Size_judgement/Stimuli/Size_stims/M/basketball/basketball7.jpg,0.0,basketball,car,M,XL,2.0,4.0,basketball8,car5,0.0,58.036,0.036,0.0,
59,,size_choice_confirmation,,html-keyboard-response,59,78629,0.0-1.0-75.0-0.0,0,0,83590,,,,,,18.0,,,,,,,,,,,,,,,,,,,,,,,,,,,,59.5,1.464,,
60,,iti,,html-keyboard-response,60,82131,0.0-1.0-76.0,0,0,83590,,,,,,,,,,,,,,,,,,,,,,,,,,,,,,,,,,63.0,3.5,,
61,,size_choice,,html-keyboard-response,61,82201,0.0-1.0-78.0,0,0,83590,,68.0,,,75.0,19.0,19.0,1.0,1500.0,S-L,1.0,L,S,3.0,1.0,cooler,thread,cooler7,thread7,6.0,146.0,/static/Size_judgement/Stimuli/Size_stims/L/cooler/cooler4.jpg,/static/Size_judgement/Stimuli/Size_stims/S/thread/thread3.jpg,0.0,thread,cooler,S,L,1.0,3.0,thread7,cooler7,0.0,63.068,0.068,0.0,
62,,size_choice_confirmation,,html-keyboard-response,62,83637,0.0-1.0-79.0-0.0,0,0,83590,,,,,,19.0,,,,,,,,,,,,,,,,,,,,,,,,,,,,64.5,1.432,,
63,,iti,,html-keyboard-response,63,85140,0.0-1.0-80.0,0,0,83590,,,,,,,,,,,,,,,,,,,,,,,,,,,,,,,,,,66.0,1.5,,
64,,size_choice,,html-keyboard-response,64,85145,0.0-1.0-82.0,0,0,83590,,4.0,,,75.0,20.0,20.0,1.0,1000.0,S-S,,S,S,1.0,1.0,paperclip,teabag,paperclip8,teabag9,117.0,138.0,/static/Size_judgement/Stimuli/Size_stims/S/paperclip/paperclip5.jpg,/static/Size_judgement/Stimuli/Size_stims/S/teabag/teabag5.jpg,0.0,teabag,paperclip,S,S,1.0,1.0,teabag9,paperclip8,,66.004,0.004,0.0,
65,,size_choice_confirmation,,html-keyboard-response,65,86644,0.0-1.0-83.0-0.0,0,0,83590,,,,,,20.0,,,,,,,,,,,,,,,,,,,,,,,,,,,,67.5,1.496,,
66,,iti,,html-keyboard-response,66,87648,0.0-1.0-84.0,0,0,83590,,,,,,,,,,,,,,,,,,,,,,,,,,,,,,,,,,68.5,1.0,,
67,,size_choice,,html-keyboard-response,67,87682,0.0-1.0-86.0,0,0,83590,,33.0,,,75.0,21.0,21.0,1.0,1000.0,S-S,,S,S,1.0,1.0,die,paperclip,die6,paperclip6,105.0,115.0,/static/Size_judgement/Stimuli/Size_stims/S/die/die1.jpg,/static/Size_judgement/Stimuli/Size_stims/S/paperclip/paperclip6.jpg,0.0,paperclip,die,S,S,1.0,1.0,paperclip6,die6,,68.533,0.033,0.0,
68,,size_choice_confirmation,,html-keyboard-response,68,89155,0.0-1.0-87.0-0.0,0,0,83590,,,,,,21.0,,,,,,,,,,,,,,,,,,,,,,,,,,,,70.0,1.467,,
69,,iti,,html-keyboard-response,69,90159,0.0-1.0-88.0,0,0,83590,,,,,,,,,,,,,,,,,,,,,,,,,,,,,,,,,,71.0,1.0,,
70,,size_choice,,html-keyboard-response,70,90392,0.0-1.0-90.0,0,0,83590,,232.0,,,75.0,22.0,22.0,1.0,1000.0,L-XL,0.0,L,XL,3.0,4.0,dishwasher,dumptruck,dishwasher3,dumptruck3,22.0,172.0,/static/Size_judgement/Stimuli/Size_stims/L/dishwasher/dishwasher8.jpg,/static/Size_judgement/Stimuli/Size_stims/XL/dumptruck/dumptruck10.jpg,0.0,dumptruck,dishwasher,XL,L,4.0,3.0,dumptruck3,dishwasher3,1.0,71.232,0.232,0.0,
71,,size_choice_confirmation,,html-keyboard-response,71,91666,0.0-1.0-91.0-0.0,0,0,83590,,,,,,22.0,,,,,,,,,,,,,,,,,,,,,,,,,,,,72.5,1.268,,
72,,iti,,html-keyboard-response,72,92670,0.0-1.0-92.0,0,0,83590,,,,,,,,,,,,,,,,,,,,,,,,,,,,,,,,,,73.5,1.0,,
73,,size_choice,,html-keyboard-response,73,92898,0.0-1.0-94.0,0,0,83590,,227.0,,,75.0,23.0,23.0,1.0,3000.0,M-M,,M,M,2.0,2.0,handsaw,hairdryer,handsaw8,hairdryer3,87.0,72.0,/static/Size_judgement/Stimuli/Size_stims/M/handsaw/handsaw7.jpg,/static/Size_judgement/Stimuli/Size_stims/M/hairdryer/hairdryer17.jpg,0.0,hairdryer,handsaw,M,M,2.0,2.0,hairdryer3,handsaw8,,73.727,0.227,0.0,
74,,size_choice_confirmation,,html-keyboard-response,74,94173,0.0-1.0-95.0-0.0,0,0,83590,,,,,,23.0,,,,,,,,,,,,,,,,,,,,,,,,,,,,75.0,1.273,,
75,,iti,,html-keyboard-response,75,97174,0.0-1.0-96.0,0,0,83590,,,,,,,,,,,,,,,,,,,,,,,,,,,,,,,,,,78.0,3.0,,
76,,size_choice,,html-keyboard-response,76,97499,0.0-1.0-98.0,0,0,83590,,324.0,,,75.0,24.0,24.0,1.0,1000.0,S-M,1.0,M,S,2.0,1.0,basketball,paperclip,basketball2,paperclip10,51.0,119.0,/static/Size_judgement/Stimuli/Size_stims/M/basketball/basketball8.jpg,/static/Size_judgement/Stimuli/Size_stims/S/paperclip/paperclip10.jpg,0.0,paperclip,basketball,S,M,1.0,2.0,paperclip10,basketball2,0.0,78.324,0.324,0.0,
77,,size_choice_confirmation,,html-keyboard-response,77,98676,0.0-1.0-99.0-0.0,0,0,83590,,,,,,24.0,,,,,,,,,,,,,,,,,,,,,,,,,,,,79.5,1.176,,
78,,iti,,html-keyboard-response,78,99679,0.0-1.0-100.0,0,0,83590,,,,,,,,,,,,,,,,,,,,,,,,,,,,,,,,,,80.5,1.0,,
79,,size_choice,,html-keyboard-response,79,99887,0.0-1.0-102.0,0,0,83590,,206.0,,,75.0,25.0,25.0,1.0,2000.0,S-L,1.0,L,S,3.0,1.0,dishwasher,paperclip,dishwasher10,paperclip9,29.0,118.0,/static/Size_judgement/Stimuli/Size_stims/L/dishwasher/dishwasher1.jpg,/static/Size_judgement/Stimuli/Size_stims/S/paperclip/paperclip4.jpg,0.0,paperclip,dishwasher,S,L,1.0,3.0,paperclip9,dishwasher10,0.0,80.706,0.206,0.0,
80,,size_choice_confirmation,,html-keyboard-response,80,101183,0.0-1.0-103.0-0.0,0,0,83590,,,,,,25.0,,,,,,,,,,,,,,,,,,,,,,,,,,,,82.0,1.294,,
81,,iti,,html-keyboard-response,81,103188,0.0-1.0-104.0,0,0,83590,,,,,,,,,,,,,,,,,,,,,,,,,,,,,,,,,,84.0,2.0,,
82,,size_choice,,html-keyboard-response,82,104691,0.0-1.0-106.0,0,0,83590,,,,,,26.0,26.0,1.0,3000.0,S-L,1.0,L,S,3.0,1.0,deskchair,thread,deskchair10,thread2,19.0,141.0,/static/Size_judgement/Stimuli/Size_stims/L/deskchair/deskchair2.jpg,/static/Size_judgement/Stimuli/Size_stims/S/thread/thread6.jpg,,,,,,,,,,,85.5,1.5,1.0,
83,,iti,,html-keyboard-response,83,107696,0.0-1.0-108.0,0,0,83590,,,,,,,,,,,,,,,,,,,,,,,,,,,,,,,,,,88.5,3.0,,
84,,size_choice,,html-keyboard-response,84,109200,0.0-1.0-110.0,0,0,83590,,,,,,27.0,27.0,1.0,1000.0,L-L,,L,L,3.0,3.0,mailbox,garbagecan,mailbox5,garbagecan8,44.0,37.0,/static/Size_judgement/Stimuli/Size_stims/L/mailbox/mailbox4.jpg,/static/Size_judgement/Stimuli/Size_stims/L/garbagecan/garbagecan13.jpg,,,,,,,,,,,90.0,1.5,1.0,
85,,iti,,html-keyboard-response,85,110203,0.0-1.0-112.0,0,0,83590,,,,,,,,,,,,,,,,,,,,,,,,,,,,,,,,,,91.0,1.0,,
86,,size_choice,,html-keyboard-response,86,111707,0.0-1.0-114.0,0,0,83590,,,,,,28.0,28.0,1.0,2000.0,M-L,0.0,M,L,2.0,3.0,ketchup,mailbox,ketchup2,mailbox9,91.0,48.0,/static/Size_judgement/Stimuli/Size_stims/M/ketchup/ketchup9.jpg,/static/Size_judgement/Stimuli/Size_stims/L/mailbox/mailbox9.jpg,,,,,,,,,,,92.5,1.5,1.0,
87,,iti,,html-keyboard-response,87,113711,0.0-1.0-116.0,0,0,83590,,,,,,,,,,,,,,,,,,,,,,,,,,,,,,,,,,94.5,2.0,,
88,,size_choice,,html-keyboard-response,88,115217,0.0-1.0-118.0,0,0,83590,,,,,,29.0,29.0,1.0,1000.0,S-XL,0.0,S,XL,1.0,4.0,die,dumptruck,die5,dumptruck9,104.0,178.0,/static/Size_judgement/Stimuli/Size_stims/S/die/die3.jpg,/static/Size_judgement/Stimuli/Size_stims/XL/dumptruck/dumptruck5.jpg,,,,,,,,,,,96.0,1.5,1.0,
89,,iti,,html-keyboard-response,89,116224,0.0-1.0-120.0,0,0,83590,,,,,,,,,,,,,,,,,,,,,,,,,,,,,,,,,,97.0,1.0,,
90,,size_choice,,html-keyboard-response,90,117727,0.0-1.0-122.0,0,0,83590,,,,,,30.0,30.0,1.0,1000.0,S-XL,1.0,XL,S,4.0,1.0,tractor,die,tractor7,die2,186.0,101.0,/static/Size_judgement/Stimuli/Size_stims/XL/tractor/tractor2.jpg,/static/Size_judgement/Stimuli/Size_stims/S/die/die9.jpg,,,,,,,,,,,98.5,1.5,1.0,
91,,iti,,html-keyboard-response,91,118729,0.0-1.0-124.0,0,0,83590,,,,,,,,,,,,,,,,,,,,,,,,,,,,,,,,,,99.5,1.0,,
92,,size_choice,,html-keyboard-response,92,120234,0.0-1.0-126.0,0,0,83590,,,,,,31.0,31.0,1.0,1500.0,S-L,1.0,L,S,3.0,1.0,garbagecan,thread,garbagecan2,thread9,31.0,148.0,/static/Size_judgement/Stimuli/Size_stims/L/garbagecan/garbagecan5.jpg,/static/Size_judgement/Stimuli/Size_stims/S/thread/thread8.jpg,,,,,,,,,,,101.0,1.5,1.0,
93,,iti,,html-keyboard-response,93,121740,0.0-1.0-128.0,0,0,83590,,,,,,,,,,,,,,,,,,,,,,,,,,,,,,,,,,102.5,1.5,,
94,,size_choice,,html-keyboard-response,94,123243,0.0-1.0-130.0,0,0,83590,,,,,,32.0,32.0,1.0,2000.0,M-L,0.0,M,L,2.0,3.0,handsaw,deskchair,handsaw9,deskchair2,88.0,11.0,/static/Size_judgement/Stimuli/Size_stims/M/handsaw/handsaw6.jpg,/static/Size_judgement/Stimuli/Size_stims/L/deskchair/deskchair8.jpg,,,,,,,,,,,104.0,1.5,1.0,
95,,iti,,html-keyboard-response,95,125247,0.0-1.0-132.0,0,0,83590,,,,,,,,,,,,,,,,,,,,,,,,,,,,,,,,,,106.0,2.0,,
96,,size_choice,,html-keyboard-response,96,126751,0.0-1.0-134.0,0,0,83590,,,,,,33.0,33.0,1.0,1000.0,S-L,1.0,L,S,3.0,1.0,garbagecan,teabag,garbagecan3,teabag8,32.0,137.0,/static/Size_judgement/Stimuli/Size_stims/L/garbagecan/garbagecan7.jpg,/static/Size_judgement/Stimuli/Size_stims/S/teabag/teabag7.jpg,,,,,,,,,,,107.5,1.5,1.0,
97,,iti,,html-keyboard-response,97,127753,0.0-1.0-136.0,0,0,83590,,,,,,,,,,,,,,,,,,,,,,,,,,,,,,,,,,108.5,1.0,,
98,,size_choice,,html-keyboard-response,98,129258,0.0-1.0-138.0,0,0,83590,,,,,,34.0,34.0,1.0,1000.0,M-L,0.0,M,L,2.0,3.0,handsaw,dishwasher,handsaw2,dishwasher4,81.0,23.0,/static/Size_judgement/Stimuli/Size_stims/M/handsaw/handsaw9.jpg,/static/Size_judgement/Stimuli/Size_stims/L/dishwasher/dishwasher5.jpg,,,,,,,,,,,110.0,1.5,1.0,
99,,iti,,html-keyboard-response,99,130259,0.0-1.0-140.0,0,0,83590,,,,,,,,,,,,,,,,,,,,,,,,,,,,,,,,,,111.0,1.0,,
100,,size_choice,,html-keyboard-response,100,131761,0.0-1.0-142.0,0,0,83590,,,,,,35.0,35.0,1.0,1500.0,M-L,1.0,L,M,3.0,2.0,dishwasher,ketchup,dishwasher1,ketchup4,20.0,93.0,/static/Size_judgement/Stimuli/Size_stims/L/dishwasher/dishwasher10.jpg,/static/Size_judgement/Stimuli/Size_stims/M/ketchup/ketchup2.jpg,,,,,,,,,,,112.5,1.5,1.0,
101,,iti,,html-keyboard-response,101,133266,0.0-1.0-144.0,0,0,83590,,,,,,,,,,,,,,,,,,,,,,,,,,,,,,,,,,114.0,1.5,,
102,,size_choice,,html-keyboard-response,102,134771,0.0-1.0-146.0,0,0,83590,,,,,,36.0,36.0,1.0,1500.0,M-L,0.0,M,L,2.0,3.0,hairdryer,cooler,hairdryer6,cooler3,75.0,2.0,/static/Size_judgement/Stimuli/Size_stims/M/hairdryer/hairdryer8.jpg,/static/Size_judgement/Stimuli/Size_stims/L/cooler/cooler2.jpg,,,,,,,,,,,115.5,1.5,1.0,
103,,iti,,html-keyboard-response,103,136276,0.0-1.0-148.0,0,0,83590,,,,,,,,,,,,,,,,,,,,,,,,,,,,,,,,,,117.0,1.5,,
104,,size_choice,,html-keyboard-response,104,137781,0.0-1.0-150.0,0,0,83590,,,,,,37.0,37.0,1.0,1000.0,S-XL,1.0,XL,S,4.0,1.0,car,teabag,car4,teabag10,153.0,139.0,/static/Size_judgement/Stimuli/Size_stims/XL/car/car6.jpg,/static/Size_judgement/Stimuli/Size_stims/S/teabag/teabag4.jpg,,,,,,,,,,,118.5,1.5,1.0,
105,,iti,,html-keyboard-response,105,138782,0.0-1.0-152.0,0,0,83590,,,,,,,,,,,,,,,,,,,,,,,,,,,,,,,,,,119.5,1.0,,
106,,size_choice,,html-keyboard-response,106,140287,0.0-1.0-154.0,0,0,83590,,,,,,38.0,38.0,1.0,1500.0,M-XL,1.0,XL,M,4.0,2.0,tractor,handsaw,tractor8,handsaw10,187.0,89.0,/static/Size_judgement/Stimuli/Size_stims/XL/tractor/tractor10.jpg,/static/Size_judgement/Stimuli/Size_stims/M/handsaw/handsaw10.jpg,,,,,,,,,,,121.0,1.5,1.0,
107,,iti,,html-keyboard-response,107,141790,0.0-1.0-156.0,0,0,83590,,,,,,,,,,,,,,,,,,,,,,,,,,,,,,,,,,122.5,1.5,,
108,,size_choice,,html-keyboard-response,108,143294,0.0-1.0-158.0,0,0,83590,,,,,,39.0,39.0,1.0,1500.0,S-M,1.0,M,S,2.0,1.0,basketball,screws,basketball6,screws9,55.0,128.0,/static/Size_judgement/Stimuli/Size_stims/M/basketball/basketball2.jpg,/static/Size_judgement/Stimuli/Size_stims/S/screws/screws8.jpg,,,,,,,,,,,124.0,1.5,1.0,
109,,iti,,html-keyboard-response,109,144799,0.0-1.0-160.0,0,0,83590,,,,,,,,,,,,,,,,,,,,,,,,,,,,,,,,,,125.5,1.5,,
110,,size_choice,,html-keyboard-response,110,146303,0.0-1.0-162.0,0,0,83590,,,,,,40.0,40.0,1.0,1000.0,M-XL,0.0,M,XL,2.0,4.0,hairdryer,dumptruck,hairdryer1,dumptruck5,70.0,174.0,/static/Size_judgement/Stimuli/Size_stims/M/hairdryer/hairdryer11.jpg,/static/Size_judgement/Stimuli/Size_stims/XL/dumptruck/dumptruck3.jpg,,,,,,,,,,,127.0,1.5,1.0,
111,,iti,,html-keyboard-response,111,147311,0.0-1.0-164.0,0,0,83590,,,,,,,,,,,,,,,,,,,,,,,,,,,,,,,,,,128.0,1.0,,
112,,size_choice,,html-keyboard-response,112,148815,0.0-1.0-166.0,0,0,83590,,,,,,41.0,41.0,1.0,1500.0,S-L,0.0,S,L,1.0,3.0,paperclip,mailbox,paperclip2,mailbox7,111.0,46.0,/static/Size_judgement/Stimuli/Size_stims/S/paperclip/paperclip8.jpg,/static/Size_judgement/Stimuli/Size_stims/L/mailbox/mailbox7.jpg,,,,,,,,,,,129.5,1.5,1.0,
113,,iti,,html-keyboard-response,113,150319,0.0-1.0-168.0,0,0,83590,,,,,,,,,,,,,,,,,,,,,,,,,,,,,,,,,,131.0,1.5,,
114,,size_choice,,html-keyboard-response,114,151824,0.0-1.0-170.0,0,0,83590,,,,,,42.0,42.0,1.0,2000.0,S-XL,0.0,S,XL,1.0,4.0,thread,dumptruck,thread8,dumptruck10,147.0,179.0,/static/Size_judgement/Stimuli/Size_stims/S/thread/thread10.jpg,/static/Size_judgement/Stimuli/Size_stims/XL/dumptruck/dumptruck4.jpg,,,,,,,,,,,132.5,1.5,1.0,
115,,iti,,html-keyboard-response,115,153829,0.0-1.0-172.0,0,0,83590,,,,,,,,,,,,,,,,,,,,,,,,,,,,,,,,,,134.5,2.0,,
116,,size_choice,,html-keyboard-response,116,155334,0.0-1.0-174.0,0,0,83590,,,,,,43.0,43.0,1.0,3000.0,L-XL,0.0,L,XL,3.0,4.0,cooler,tractor,cooler1,tractor10,0.0,189.0,/static/Size_judgement/Stimuli/Size_stims/L/cooler/cooler8.jpg,/static/Size_judgement/Stimuli/Size_stims/XL/tractor/tractor8.jpg,,,,,,,,,,,136.0,1.5,1.0,
117,,iti,,html-keyboard-response,117,158341,0.0-1.0-176.0,0,0,83590,,,,,,,,,,,,,,,,,,,,,,,,,,,,,,,,,,139.0,3.0,,
118,,size_choice,,html-keyboard-response,118,159844,0.0-1.0-178.0,0,0,83590,,,,,,44.0,44.0,1.0,1500.0,M-M,,M,M,2.0,2.0,hairdryer,coffeemaker,hairdryer10,coffeemaker1,79.0,60.0,/static/Size_judgement/Stimuli/Size_stims/M/hairdryer/hairdryer6.jpg,/static/Size_judgement/Stimuli/Size_stims/M/coffeemaker/coffeemaker14.jpg,,,,,,,,,,,140.5,1.5,1.0,
119,,iti,,html-keyboard-response,119,161349,0.0-1.0-180.0,0,0,83590,,,,,,,,,,,,,,,,,,,,,,,,,,,,,,,,,,142.0,1.5,,
120,,block_over,,html-keyboard-response,120,167673,0.0-1.0-181.0-0.0,0,0,83590,,6323.0,,,68.0,44.0,,,,,,,,,,,,,,,,,,,,,,,,,,,,,,,
121,,size_choice,,html-keyboard-response,121,169178,0.0-1.0-182.0,0,0,83590,,,,,,45.0,45.0,2.0,3500.0,L-XL,0.0,L,XL,3.0,4.0,cooler,car,cooler4,car3,3.0,152.0,/static/Size_judgement/Stimuli/Size_stims/L/cooler/cooler3.jpg,/static/Size_judgement/Stimuli/Size_stims/XL/car/car4.jpg,,,,,,,,,,,143.5,1.5,1.0,
122,,iti,,html-keyboard-response,122,172681,0.0-1.0-184.0,0,0,83590,,,,,,,,,,,,,,,,,,,,,,,,,,,,,,,,,,147.0,3.5,,
123,,size_choice,,html-keyboard-response,123,174186,0.0-1.0-186.0,0,0,83590,,,,,,46.0,46.0,2.0,2000.0,L-L,,L,L,3.0,3.0,deskchair,cooler,deskchair8,cooler2,17.0,1.0,/static/Size_judgement/Stimuli/Size_stims/L/deskchair/deskchair1.jpg,/static/Size_judgement/Stimuli/Size_stims/L/cooler/cooler9.jpg,,,,,,,,,,,148.5,1.5,1.0,
124,,iti,,html-keyboard-response,124,176724,0.0-1.0-188.0,0,0,83590,,,,,,,,,,,,,,,,,,,,,,,,,,,,,,,,,,150.5,2.0,,
125,,size_choice,,html-keyboard-response,125,178898,0.0-1.0-190.0,0,0,83590,,,,,,47.0,47.0,2.0,1500.0,M-L,0.0,M,L,2.0,3.0,basketball,cooler,basketball3,cooler9,52.0,8.0,/static/Size_judgement/Stimuli/Size_stims/M/basketball/basketball10.jpg,/static/Size_judgement/Stimuli/Size_stims/L/cooler/cooler7.jpg,,,,,,,,,,,152.0,1.5,1.0,
126,,iti,,html-keyboard-response,126,180724,0.0-1.0-192.0,0,0,83590,,,,,,,,,,,,,,,,,,,,,,,,,,,,,,,,,,153.5,1.5,,
127,,size_choice,,html-keyboard-response,127,182896,0.0-1.0-194.0,0,0,83590,,,,,,48.0,48.0,2.0,1000.0,M-XL,1.0,XL,M,4.0,2.0,car,ketchup,car8,ketchup5,157.0,94.0,/static/Size_judgement/Stimuli/Size_stims/XL/car/car14.jpg,/static/Size_judgement/Stimuli/Size_stims/M/ketchup/ketchup3.jpg,,,,,,,,,,,155.0,1.5,1.0,
128,,iti,,html-keyboard-response,128,184724,0.0-1.0-196.0,0,0,83590,,,,,,,,,,,,,,,,,,,,,,,,,,,,,,,,,,156.0,1.0,,
129,,size_choice,,html-keyboard-response,129,186896,0.0-1.0-198.0,0,0,83590,,,,,,49.0,49.0,2.0,1000.0,S-S,,S,S,1.0,1.0,die,thread,die3,thread6,102.0,145.0,/static/Size_judgement/Stimuli/Size_stims/S/die/die10.jpg,/static/Size_judgement/Stimuli/Size_stims/S/thread/thread2.jpg,,,,,,,,,,,157.5,1.5,1.0,
130,,iti,,html-keyboard-response,130,188896,0.0-1.0-200.0,0,0,83590,,,,,,,,,,,,,,,,,,,,,,,,,,,,,,,,,,158.5,1.0,,
131,,size_choice,,html-keyboard-response,131,190896,0.0-1.0-202.0,0,0,83590,,,,,,50.0,50.0,2.0,2000.0,S-XL,0.0,S,XL,1.0,4.0,thread,car,thread3,car10,142.0,159.0,/static/Size_judgement/Stimuli/Size_stims/S/thread/thread4.jpg,/static/Size_judgement/Stimuli/Size_stims/XL/car/car9.jpg,,,,,,,,,,,160.0,1.5,1.0,
132,,iti,,html-keyboard-response,132,193724,0.0-1.0-204.0,0,0,83590,,,,,,,,,,,,,,,,,,,,,,,,,,,,,,,,,,162.0,2.0,,
133,,size_choice,,html-keyboard-response,133,195724,0.0-1.0-206.0,0,0,83590,,,,,,51.0,51.0,2.0,2000.0,M-M,,M,M,2.0,2.0,ketchup,basketball,ketchup9,basketball9,98.0,58.0,/static/Size_judgement/Stimuli/Size_stims/M/ketchup/ketchup7.jpg,/static/Size_judgement/Stimuli/Size_stims/M/basketball/basketball5.jpg,,,,,,,,,,,163.5,1.5,1.0,
134,,iti,,html-keyboard-response,134,198724,0.0-1.0-208.0,0,0,83590,,,,,,,,,,,,,,,,,,,,,,,,,,,,,,,,,,165.5,2.0,,
135,,size_choice,,html-keyboard-response,135,200724,0.0-1.0-210.0,0,0,83590,,,,,,52.0,52.0,2.0,1500.0,S-M,0.0,S,M,1.0,2.0,thread,ketchup,thread4,ketchup7,143.0,96.0,/static/Size_judgement/Stimuli/Size_stims/S/thread/thread5.jpg,/static/Size_judgement/Stimuli/Size_stims/M/ketchup/ketchup4.jpg,,,,,,,,,,,167.0,1.5,1.0,
136,,iti,,html-keyboard-response,136,202724,0.0-1.0-212.0,0,0,83590,,,,,,,,,,,,,,,,,,,,,,,,,,,,,,,,,,168.5,1.5,,
137,,size_choice,,html-keyboard-response,137,204724,0.0-1.0-214.0,0,0,83590,,,,,,53.0,53.0,2.0,1500.0,M-XL,0.0,M,XL,2.0,4.0,ketchup,van,ketchup1,van8,90.0,197.0,/static/Size_judgement/Stimuli/Size_stims/M/ketchup/ketchup8.jpg,/static/Size_judgement/Stimuli/Size_stims/XL/van/van10.jpg,,,,,,,,,,,170.0,1.5,1.0,
138,,iti,,html-keyboard-response,138,206724,0.0-1.0-216.0,0,0,83590,,,,,,,,,,,,,,,,,,,,,,,,,,,,,,,,,,171.5,1.5,,
139,,size_choice,,html-keyboard-response,139,208896,0.0-1.0-218.0,0,0,83590,,,,,,54.0,54.0,2.0,2000.0,XL-XL,,XL,XL,4.0,4.0,dumptruck,car,dumptruck1,car2,170.0,151.0,/static/Size_judgement/Stimuli/Size_stims/XL/dumptruck/dumptruck9.jpg,/static/Size_judgement/Stimuli/Size_stims/XL/car/car3.jpg,,,,,,,,,,,173.0,1.5,1.0,
140,,iti,,html-keyboard-response,140,212372,0.0-1.0-220.0,0,0,83590,,,,,,,,,,,,,,,,,,,,,,,,,,,,,,,,,,175.0,2.0,,
141,,size_choice,,html-keyboard-response,141,214726,0.0-1.0-222.0,0,0,83590,,,,,,55.0,55.0,2.0,1000.0,M-L,1.0,L,M,3.0,2.0,mailbox,coffeemaker,mailbox10,coffeemaker10,49.0,69.0,/static/Size_judgement/Stimuli/Size_stims/L/mailbox/mailbox8.jpg,/static/Size_judgement/Stimuli/Size_stims/M/coffeemaker/coffeemaker18.jpg,,,,,,,,,,,176.5,1.5,1.0,
142,,iti,,html-keyboard-response,142,216897,0.0-1.0-224.0,0,0,83590,,,,,,,,,,,,,,,,,,,,,,,,,,,,,,,,,,177.5,1.0,,
143,,size_choice,,html-keyboard-response,143,218897,0.0-1.0-226.0,0,0,83590,,,,,,56.0,56.0,2.0,1000.0,M-XL,0.0,M,XL,2.0,4.0,hairdryer,van,hairdryer4,van5,73.0,194.0,/static/Size_judgement/Stimuli/Size_stims/M/hairdryer/hairdryer16.jpg,/static/Size_judgement/Stimuli/Size_stims/XL/van/van3.jpg,,,,,,,,,,,179.0,1.5,1.0,
144,,iti,,html-keyboard-response,144,220899,0.0-1.0-228.0,0,0,83590,,,,,,,,,,,,,,,,,,,,,,,,,,,,,,,,,,180.0,1.0,,
145,,size_choice,,html-keyboard-response,145,222725,0.0-1.0-230.0,0,0,83590,,,,,,57.0,57.0,2.0,1000.0,S-L,0.0,S,L,1.0,3.0,die,mailbox,die10,mailbox6,109.0,45.0,/static/Size_judgement/Stimuli/Size_stims/S/die/die6.jpg,/static/Size_judgement/Stimuli/Size_stims/L/mailbox/mailbox6.jpg,,,,,,,,,,,181.5,1.5,1.0,
146,,iti,,html-keyboard-response,146,223727,0.0-1.0-232.0,0,0,83590,,,,,,,,,,,,,,,,,,,,,,,,,,,,,,,,,,182.5,1.0,,
147,,size_choice,,html-keyboard-response,147,225233,0.0-1.0-234.0,0,0,83590,,,,,,58.0,58.0,2.0,3000.0,M-XL,1.0,XL,M,4.0,2.0,crane,ketchup,crane6,ketchup6,165.0,95.0,/static/Size_judgement/Stimuli/Size_stims/XL/crane/crane2.jpg,/static/Size_judgement/Stimuli/Size_stims/M/ketchup/ketchup1.jpg,,,,,,,,,,,184.0,1.5,1.0,
148,,iti,,html-keyboard-response,148,228239,0.0-1.0-236.0,0,0,83590,,,,,,,,,,,,,,,,,,,,,,,,,,,,,,,,,,187.0,3.0,,
149,,size_choice,,html-keyboard-response,149,229745,0.0-1.0-238.0,0,0,83590,,,,,,59.0,59.0,2.0,1500.0,S-XL,1.0,XL,S,4.0,1.0,van,teabag,van4,teabag3,193.0,132.0,/static/Size_judgement/Stimuli/Size_stims/XL/van/van7.jpg,/static/Size_judgement/Stimuli/Size_stims/S/teabag/teabag1.jpg,,,,,,,,,,,188.5,1.5,1.0,
150,,iti,,html-keyboard-response,150,231249,0.0-1.0-240.0,0,0,83590,,,,,,,,,,,,,,,,,,,,,,,,,,,,,,,,,,190.0,1.5,,
151,,size_choice,,html-keyboard-response,151,232754,0.0-1.0-242.0,0,0,83590,,,,,,60.0,60.0,2.0,1500.0,S-L,0.0,S,L,1.0,3.0,paperclip,deskchair,paperclip4,deskchair3,113.0,12.0,/static/Size_judgement/Stimuli/Size_stims/S/paperclip/paperclip3.jpg,/static/Size_judgement/Stimuli/Size_stims/L/deskchair/deskchair10.jpg,,,,,,,,,,,191.5,1.5,1.0,
152,,iti,,html-keyboard-response,152,234258,0.0-1.0-244.0,0,0,83590,,,,,,,,,,,,,,,,,,,,,,,,,,,,,,,,,,193.0,1.5,,
153,,size_choice,,html-keyboard-response,153,235761,0.0-1.0-246.0,0,0,83590,,,,,,61.0,61.0,2.0,1000.0,L-L,,L,L,3.0,3.0,dishwasher,garbagecan,dishwasher5,garbagecan1,24.0,30.0,/static/Size_judgement/Stimuli/Size_stims/L/dishwasher/dishwasher4.jpg,/static/Size_judgement/Stimuli/Size_stims/L/garbagecan/garbagecan4.jpg,,,,,,,,,,,194.5,1.5,1.0,
154,,iti,,html-keyboard-response,154,236764,0.0-1.0-248.0,0,0,83590,,,,,,,,,,,,,,,,,,,,,,,,,,,,,,,,,,195.5,1.0,,
155,,size_choice,,html-keyboard-response,155,238269,0.0-1.0-250.0,0,0,83590,,,,,,62.0,62.0,2.0,1000.0,M-L,0.0,M,L,2.0,3.0,ketchup,deskchair,ketchup3,deskchair7,92.0,16.0,/static/Size_judgement/Stimuli/Size_stims/M/ketchup/ketchup10.jpg,/static/Size_judgement/Stimuli/Size_stims/L/deskchair/deskchair4.jpg,,,,,,,,,,,197.0,1.5,1.0,
156,,iti,,html-keyboard-response,156,239276,0.0-1.0-252.0,0,0,83590,,,,,,,,,,,,,,,,,,,,,,,,,,,,,,,,,,198.0,1.0,,
157,,size_choice,,html-keyboard-response,157,240780,0.0-1.0-254.0,0,0,83590,,,,,,63.0,63.0,2.0,2000.0,S-M,0.0,S,M,1.0,2.0,teabag,coffeemaker,teabag2,coffeemaker3,131.0,62.0,/static/Size_judgement/Stimuli/Size_stims/S/teabag/teabag8.jpg,/static/Size_judgement/Stimuli/Size_stims/M/coffeemaker/coffeemaker13.jpg,,,,,,,,,,,199.5,1.5,1.0,
158,,iti,,html-keyboard-response,158,242785,0.0-1.0-256.0,0,0,83590,,,,,,,,,,,,,,,,,,,,,,,,,,,,,,,,,,201.5,2.0,,
159,,size_choice,,html-keyboard-response,159,244291,0.0-1.0-258.0,0,0,83590,,,,,,64.0,64.0,2.0,1000.0,M-L,0.0,M,L,2.0,3.0,coffeemaker,garbagecan,coffeemaker6,garbagecan10,65.0,39.0,/static/Size_judgement/Stimuli/Size_stims/M/coffeemaker/coffeemaker8.jpg,/static/Size_judgement/Stimuli/Size_stims/L/garbagecan/garbagecan11.jpg,,,,,,,,,,,203.0,1.5,1.0,
160,,iti,,html-keyboard-response,160,245297,0.0-1.0-260.0,0,0,83590,,,,,,,,,,,,,,,,,,,,,,,,,,,,,,,,,,204.0,1.0,,
161,,size_choice,,html-keyboard-response,161,246799,0.0-1.0-262.0,0,0,83590,,,,,,65.0,65.0,2.0,1000.0,S-XL,1.0,XL,S,4.0,1.0,crane,paperclip,crane1,paperclip3,160.0,112.0,/static/Size_judgement/Stimuli/Size_stims/XL/crane/crane7.jpg,/static/Size_judgement/Stimuli/Size_stims/S/paperclip/paperclip1.jpg,,,,,,,,,,,205.5,1.5,1.0,
162,,iti,,html-keyboard-response,162,247804,0.0-1.0-264.0,0,0,83590,,,,,,,,,,,,,,,,,,,,,,,,,,,,,,,,,,206.5,1.0,,
163,,size_choice,,html-keyboard-response,163,249725,0.0-1.0-266.0,0,0,83590,,,,,,66.0,66.0,2.0,2000.0,M-M,,M,M,2.0,2.0,hairdryer,handsaw,hairdryer9,handsaw4,78.0,83.0,/static/Size_judgement/Stimuli/Size_stims/M/hairdryer/hairdryer5.jpg,/static/Size_judgement/Stimuli/Size_stims/M/handsaw/handsaw3.jpg,,,,,,,,,,,208.0,1.5,1.0,
164,,iti,,html-keyboard-response,164,252879,0.0-1.0-268.0,0,0,83590,,,,,,,,,,,,,,,,,,,,,,,,,,,,,,,,,,210.0,2.0,,
165,,size_choice,,html-keyboard-response,165,254879,0.0-1.0-270.0,0,0,83590,,,,,,67.0,67.0,2.0,1500.0,S-S,,S,S,1.0,1.0,paperclip,screws,paperclip1,screws10,110.0,129.0,/static/Size_judgement/Stimuli/Size_stims/S/paperclip/paperclip9.jpg,/static/Size_judgement/Stimuli/Size_stims/S/screws/screws9.jpg,,,,,,,,,,,211.5,1.5,1.0,
166,,iti,,html-keyboard-response,166,256877,0.0-1.0-272.0,0,0,83590,,,,,,,,,,,,,,,,,,,,,,,,,,,,,,,,,,213.0,1.5,,
167,,size_choice,,html-keyboard-response,167,258725,0.0-1.0-274.0,0,0,83590,,,,,,68.0,68.0,2.0,1500.0,M-XL,1.0,XL,M,4.0,2.0,tractor,coffeemaker,tractor2,coffeemaker7,181.0,66.0,/static/Size_judgement/Stimuli/Size_stims/XL/tractor/tractor7.jpg,/static/Size_judgement/Stimuli/Size_stims/M/coffeemaker/coffeemaker9.jpg,,,,,,,,,,,214.5,1.5,1.0,
168,,iti,,html-keyboard-response,168,260879,0.0-1.0-276.0,0,0,83590,,,,,,,,,,,,,,,,,,,,,,,,,,,,,,,,,,216.0,1.5,,
169,,size_choice,,html-keyboard-response,169,262876,0.0-1.0-278.0,0,0,83590,,,,,,69.0,69.0,2.0,2000.0,L-XL,1.0,XL,L,4.0,3.0,crane,deskchair,crane4,deskchair1,163.0,10.0,/static/Size_judgement/Stimuli/Size_stims/XL/crane/crane5.jpg,/static/Size_judgement/Stimuli/Size_stims/L/deskchair/deskchair9.jpg,,,,,,,,,,,217.5,1.5,1.0,
170,,iti,,html-keyboard-response,170,264882,0.0-1.0-280.0,0,0,83590,,,,,,,,,,,,,,,,,,,,,,,,,,,,,,,,,,219.5,2.0,,
171,,size_choice,,html-keyboard-response,171,266116,0.0-1.0-282.0,0,0,83590,,1231.0,,,68.0,70.0,70.0,2.0,2000.0,S-L,1.0,L,S,3.0,1.0,garbagecan,die,garbagecan6,die8,35.0,107.0,/static/Size_judgement/Stimuli/Size_stims/L/garbagecan/garbagecan14.jpg,/static/Size_judgement/Stimuli/Size_stims/S/die/die5.jpg,1.0,garbagecan,die,L,S,3.0,1.0,garbagecan6,die8,1.0,220.731,1.231,0.0,
172,,size_choice_confirmation,,html-keyboard-response,172,266391,0.0-1.0-283.0-0.0,0,0,83590,,,,,,70.0,,,,,,,,,,,,,,,,,,,,,,,,,,,,221.0,0.269,,
173,,iti,,html-keyboard-response,173,268397,0.0-1.0-284.0,0,0,83590,,,,,,,,,,,,,,,,,,,,,,,,,,,,,,,,,,223.0,2.0,,
174,,size_choice,,html-keyboard-response,174,268470,0.0-1.0-286.0,0,0,83590,,72.0,,,68.0,71.0,71.0,2.0,1000.0,M-L,0.0,M,L,2.0,3.0,handsaw,cooler,handsaw6,cooler5,85.0,4.0,/static/Size_judgement/Stimuli/Size_stims/M/handsaw/handsaw4.jpg,/static/Size_judgement/Stimuli/Size_stims/L/cooler/cooler10.jpg,1.0,handsaw,cooler,M,L,2.0,3.0,handsaw6,cooler5,0.0,223.072,0.072,0.0,
175,,size_choice_confirmation,,html-keyboard-response,175,269902,0.0-1.0-287.0-0.0,0,0,83590,,,,,,71.0,,,,,,,,,,,,,,,,,,,,,,,,,,,,224.5,1.428,,
176,,iti,,html-keyboard-response,176,270906,0.0-1.0-288.0,0,0,83590,,,,,,,,,,,,,,,,,,,,,,,,,,,,,,,,,,225.5,1.0,,
177,,size_choice,,html-keyboard-response,177,271039,0.0-1.0-290.0,0,0,83590,,131.0,,,68.0,72.0,72.0,2.0,1000.0,S-L,0.0,S,L,1.0,3.0,screws,mailbox,screws4,mailbox1,123.0,40.0,/static/Size_judgement/Stimuli/Size_stims/S/screws/screws6.jpg,/static/Size_judgement/Stimuli/Size_stims/L/mailbox/mailbox3.jpg,1.0,screws,mailbox,S,L,1.0,3.0,screws4,mailbox1,0.0,225.631,0.131,0.0,
178,,size_choice_confirmation,,html-keyboard-response,178,272411,0.0-1.0-291.0-0.0,0,0,83590,,,,,,72.0,,,,,,,,,,,,,,,,,,,,,,,,,,,,227.0,1.369,,
179,,iti,,html-keyboard-response,179,273416,0.0-1.0-292.0,0,0,83590,,,,,,,,,,,,,,,,,,,,,,,,,,,,,,,,,,228.0,1.0,,
180,,size_choice,,html-keyboard-response,180,273471,0.0-1.0-294.0,0,0,83590,,53.0,,,68.0,73.0,73.0,2.0,1000.0,S-XL,0.0,S,XL,1.0,4.0,thread,car,thread5,car1,144.0,150.0,/static/Size_judgement/Stimuli/Size_stims/S/thread/thread1.jpg,/static/Size_judgement/Stimuli/Size_stims/XL/car/car2.jpg,1.0,thread,car,S,XL,1.0,4.0,thread5,car1,0.0,228.053,0.053,0.0,
181,,size_choice_confirmation,,html-keyboard-response,181,274921,0.0-1.0-295.0-0.0,0,0,83590,,,,,,73.0,,,,,,,,,,,,,,,,,,,,,,,,,,,,229.5,1.447,,
182,,iti,,html-keyboard-response,182,275925,0.0-1.0-296.0,0,0,83590,,,,,,,,,,,,,,,,,,,,,,,,,,,,,,,,,,230.5,1.0,,
183,,size_choice,,html-keyboard-response,183,276051,0.0-1.0-298.0,0,0,83590,,124.0,,,68.0,74.0,74.0,2.0,1000.0,XL-XL,,XL,XL,4.0,4.0,van,tractor,van6,tractor9,195.0,188.0,/static/Size_judgement/Stimuli/Size_stims/XL/van/van2.jpg,/static/Size_judgement/Stimuli/Size_stims/XL/tractor/tractor9.jpg,1.0,van,tractor,XL,XL,4.0,4.0,van6,tractor9,,230.624,0.124,0.0,
184,,size_choice_confirmation,,html-keyboard-response,184,277429,0.0-1.0-299.0-0.0,0,0,83590,,,,,,74.0,,,,,,,,,,,,,,,,,,,,,,,,,,,,232.0,1.376,,
185,,iti,,html-keyboard-response,185,278430,0.0-1.0-300.0,0,0,83590,,,,,,,,,,,,,,,,,,,,,,,,,,,,,,,,,,233.0,1.0,,
186,,size_choice,,html-keyboard-response,186,278441,0.0-1.0-302.0,0,0,83590,,9.0,,,68.0,75.0,75.0,2.0,1500.0,M-XL,0.0,M,XL,2.0,4.0,basketball,van,basketball7,van7,56.0,196.0,/static/Size_judgement/Stimuli/Size_stims/M/basketball/basketball6.jpg,/static/Size_judgement/Stimuli/Size_stims/XL/van/van1.jpg,1.0,basketball,van,M,XL,2.0,4.0,basketball7,van7,0.0,233.009,0.009,0.0,
187,,size_choice_confirmation,,html-keyboard-response,187,279938,0.0-1.0-303.0-0.0,0,0,83590,,,,,,75.0,,,,,,,,,,,,,,,,,,,,,,,,,,,,234.5,1.491,,
188,,iti,,html-keyboard-response,188,281439,0.0-1.0-304.0,0,0,83590,,,,,,,,,,,,,,,,,,,,,,,,,,,,,,,,,,236.0,1.5,,
189,,size_choice,,html-keyboard-response,189,281701,0.0-1.0-306.0,0,0,83590,,258.0,,,68.0,76.0,76.0,2.0,1500.0,S-XL,1.0,XL,S,4.0,1.0,dumptruck,teabag,dumptruck7,teabag5,176.0,134.0,/static/Size_judgement/Stimuli/Size_stims/XL/dumptruck/dumptruck6.jpg,/static/Size_judgement/Stimuli/Size_stims/S/teabag/teabag2.jpg,1.0,dumptruck,teabag,XL,S,4.0,1.0,dumptruck7,teabag5,1.0,236.258,0.258,0.0,
190,,size_choice_confirmation,,html-keyboard-response,190,282946,0.0-1.0-307.0-0.0,0,0,83590,,,,,,76.0,,,,,,,,,,,,,,,,,,,,,,,,,,,,237.5,1.242,,
191,,iti,,html-keyboard-response,191,284449,0.0-1.0-308.0,0,0,83590,,,,,,,,,,,,,,,,,,,,,,,,,,,,,,,,,,239.0,1.5,,
192,,size_choice,,html-keyboard-response,192,284654,0.0-1.0-310.0,0,0,83590,,204.0,,,68.0,77.0,77.0,2.0,1500.0,M-L,0.0,M,L,2.0,3.0,ketchup,deskchair,ketchup8,deskchair6,97.0,15.0,/static/Size_judgement/Stimuli/Size_stims/M/ketchup/ketchup5.jpg,/static/Size_judgement/Stimuli/Size_stims/L/deskchair/deskchair5.jpg,1.0,ketchup,deskchair,M,L,2.0,3.0,ketchup8,deskchair6,0.0,239.204,0.204,0.0,
193,,size_choice_confirmation,,html-keyboard-response,193,285954,0.0-1.0-311.0-0.0,0,0,83590,,,,,,77.0,,,,,,,,,,,,,,,,,,,,,,,,,,,,240.5,1.296,,
194,,iti,,html-keyboard-response,194,287458,0.0-1.0-312.0,0,0,83590,,,,,,,,,,,,,,,,,,,,,,,,,,,,,,,,,,242.0,1.5,,
195,,size_choice,,html-keyboard-response,195,287646,0.0-1.0-314.0,0,0,83590,,185.0,,,68.0,78.0,78.0,2.0,3000.0,S-XL,1.0,XL,S,4.0,1.0,crane,paperclip,crane2,paperclip7,161.0,116.0,/static/Size_judgement/Stimuli/Size_stims/XL/crane/crane6.jpg,/static/Size_judgement/Stimuli/Size_stims/S/paperclip/paperclip7.jpg,1.0,crane,paperclip,XL,S,4.0,1.0,crane2,paperclip7,1.0,242.185,0.185,0.0,
196,,size_choice_confirmation,,html-keyboard-response,196,288962,0.0-1.0-315.0-0.0,0,0,83590,,,,,,78.0,,,,,,,,,,,,,,,,,,,,,,,,,,,,243.5,1.315,,
197,,iti,,html-keyboard-response,197,291967,0.0-1.0-316.0,0,0,83590,,,,,,,,,,,,,,,,,,,,,,,,,,,,,,,,,,246.5,3.0,,
198,,size_choice,,html-keyboard-response,198,292112,0.0-1.0-318.0,0,0,83590,,144.0,,,68.0,79.0,79.0,2.0,3500.0,M-XL,1.0,XL,M,4.0,2.0,crane,coffeemaker,crane10,coffeemaker2,169.0,61.0,/static/Size_judgement/Stimuli/Size_stims/XL/crane/crane9.jpg,/static/Size_judgement/Stimuli/Size_stims/M/coffeemaker/coffeemaker12.jpg,1.0,crane,coffeemaker,XL,M,4.0,2.0,crane10,coffeemaker2,1.0,246.644,0.144,0.0,
199,,size_choice_confirmation,,html-keyboard-response,199,293470,0.0-1.0-319.0-0.0,0,0,83590,,,,,,79.0,,,,,,,,,,,,,,,,,,,,,,,,,,,,248.0,1.356,,
200,,iti,,html-keyboard-response,200,296971,0.0-1.0-320.0,0,0,83590,,,,,,,,,,,,,,,,,,,,,,,,,,,,,,,,,,251.5,3.5,,
201,,size_choice,,html-keyboard-response,201,297232,0.0-1.0-322.0,0,0,83590,,257.0,,,68.0,80.0,80.0,2.0,3000.0,S-L,1.0,L,S,3.0,1.0,mailbox,screws,mailbox4,screws1,43.0,120.0,/static/Size_judgement/Stimuli/Size_stims/L/mailbox/mailbox5.jpg,/static/Size_judgement/Stimuli/Size_stims/S/screws/screws4.jpg,1.0,mailbox,screws,L,S,3.0,1.0,mailbox4,screws1,1.0,251.757,0.257,0.0,
202,,size_choice_confirmation,,html-keyboard-response,202,298477,0.0-1.0-323.0-0.0,0,0,83590,,,,,,80.0,,,,,,,,,,,,,,,,,,,,,,,,,,,,253.0,1.243,,
203,,iti,,html-keyboard-response,203,301483,0.0-1.0-324.0,0,0,83590,,,,,,,,,,,,,,,,,,,,,,,,,,,,,,,,,,256.0,3.0,,
204,,size_choice,,html-keyboard-response,204,301679,0.0-1.0-326.0,0,0,83590,,193.0,,,68.0,81.0,81.0,2.0,1000.0,S-L,1.0,L,S,3.0,1.0,dishwasher,teabag,dishwasher6,teabag1,25.0,130.0,/static/Size_judgement/Stimuli/Size_stims/L/dishwasher/dishwasher6.jpg,/static/Size_judgement/Stimuli/Size_stims/S/teabag/teabag9.jpg,1.0,dishwasher,teabag,L,S,3.0,1.0,dishwasher6,teabag1,1.0,256.193,0.193,0.0,
205,,size_choice_confirmation,,html-keyboard-response,205,302992,0.0-1.0-327.0-0.0,0,0,83590,,,,,,81.0,,,,,,,,,,,,,,,,,,,,,,,,,,,,257.5,1.307,,
206,,iti,,html-keyboard-response,206,303995,0.0-1.0-328.0,0,0,83590,,,,,,,,,,,,,,,,,,,,,,,,,,,,,,,,,,258.5,1.0,,
207,,size_choice,,html-keyboard-response,207,304262,0.0-1.0-330.0,0,0,83590,,266.0,,,68.0,82.0,82.0,2.0,1000.0,M-L,1.0,L,M,3.0,2.0,garbagecan,basketball,garbagecan5,basketball1,34.0,50.0,/static/Size_judgement/Stimuli/Size_stims/L/garbagecan/garbagecan3.jpg,/static/Size_judgement/Stimuli/Size_stims/M/basketball/basketball9.jpg,1.0,garbagecan,basketball,L,M,3.0,2.0,garbagecan5,basketball1,1.0,258.766,0.266,0.0,
208,,size_choice_confirmation,,html-keyboard-response,208,305498,0.0-1.0-331.0-0.0,0,0,83590,,,,,,82.0,,,,,,,,,,,,,,,,,,,,,,,,,,,,260.0,1.234,,
209,,iti,,html-keyboard-response,209,306503,0.0-1.0-332.0,0,0,83590,,,,,,,,,,,,,,,,,,,,,,,,,,,,,,,,,,261.0,1.0,,
210,,size_choice,,html-keyboard-response,210,306789,0.0-1.0-334.0,0,0,83590,,285.0,,,68.0,83.0,83.0,2.0,3000.0,S-XL,1.0,XL,S,4.0,1.0,crane,screws,crane3,screws7,162.0,126.0,/static/Size_judgement/Stimuli/Size_stims/XL/crane/crane4.jpg,/static/Size_judgement/Stimuli/Size_stims/S/screws/screws1.jpg,1.0,crane,screws,XL,S,4.0,1.0,crane3,screws7,1.0,261.285,0.285,0.0,
211,,size_choice_confirmation,,html-keyboard-response,211,308006,0.0-1.0-335.0-0.0,0,0,83590,,,,,,83.0,,,,,,,,,,,,,,,,,,,,,,,,,,,,262.5,1.215,,
212,,iti,,html-keyboard-response,212,311011,0.0-1.0-336.0,0,0,83590,,,,,,,,,,,,,,,,,,,,,,,,,,,,,,,,,,265.5,3.0,,
213,,size_choice,,html-keyboard-response,213,311150,0.0-1.0-338.0,0,0,83590,,136.0,,,68.0,84.0,84.0,2.0,3500.0,S-L,1.0,L,S,3.0,1.0,deskchair,screws,deskchair9,screws3,18.0,122.0,/static/Size_judgement/Stimuli/Size_stims/L/deskchair/deskchair3.jpg,/static/Size_judgement/Stimuli/Size_stims/S/screws/screws7.jpg,1.0,deskchair,screws,L,S,3.0,1.0,deskchair9,screws3,1.0,265.636,0.136,0.0,
214,,size_choice_confirmation,,html-keyboard-response,214,312516,0.0-1.0-339.0-0.0,0,0,83590,,,,,,84.0,,,,,,,,,,,,,,,,,,,,,,,,,,,,267.0,1.364,,
215,,iti,,html-keyboard-response,215,316019,0.0-1.0-340.0,0,0,83590,,,,,,,,,,,,,,,,,,,,,,,,,,,,,,,,,,270.5,3.5,,
216,,size_choice,,html-keyboard-response,216,316442,0.0-1.0-342.0,0,0,83590,,423.0,,,68.0,85.0,85.0,2.0,1500.0,S-L,0.0,S,L,1.0,3.0,die,mailbox,die7,mailbox2,106.0,41.0,/static/Size_judgement/Stimuli/Size_stims/S/die/die4.jpg,/static/Size_judgement/Stimuli/Size_stims/L/mailbox/mailbox2.jpg,1.0,die,mailbox,S,L,1.0,3.0,die7,mailbox2,0.0,270.923,0.423,0.0,
217,,size_choice_confirmation,,html-keyboard-response,217,317525,0.0-1.0-343.0-0.0,0,0,83590,,,,,,85.0,,,,,,,,,,,,,,,,,,,,,,,,,,,,272.0,1.077,,
218,,iti,,html-keyboard-response,218,319030,0.0-1.0-344.0,0,0,83590,,,,,,,,,,,,,,,,,,,,,,,,,,,,,,,,,,273.5,1.5,,
219,,size_choice,,html-keyboard-response,219,319218,0.0-1.0-346.0,0,0,83590,,185.0,,,68.0,86.0,86.0,2.0,1000.0,M-XL,0.0,M,XL,2.0,4.0,coffeemaker,tractor,coffeemaker9,tractor3,68.0,182.0,/static/Size_judgement/Stimuli/Size_stims/M/coffeemaker/coffeemaker7.jpg,/static/Size_judgement/Stimuli/Size_stims/XL/tractor/tractor5.jpg,1.0,coffeemaker,tractor,M,XL,2.0,4.0,coffeemaker9,tractor3,0.0,273.685,0.185,0.0,
220,,size_choice_confirmation,,html-keyboard-response,220,320537,0.0-1.0-347.0-0.0,0,0,83590,,,,,,86.0,,,,,,,,,,,,,,,,,,,,,,,,,,,,275.0,1.315,,
221,,iti,,html-keyboard-response,221,321542,0.0-1.0-348.0,0,0,83590,,,,,,,,,,,,,,,,,,,,,,,,,,,,,,,,,,276.0,1.0,,
222,,size_choice,,html-keyboard-response,222,321697,0.0-1.0-350.0,0,0,83590,,154.0,,,68.0,87.0,87.0,2.0,1000.0,XL-XL,,XL,XL,4.0,4.0,van,tractor,van9,tractor1,198.0,180.0,/static/Size_judgement/Stimuli/Size_stims/XL/van/van9.jpg,/static/Size_judgement/Stimuli/Size_stims/XL/tractor/tractor6.jpg,1.0,van,tractor,XL,XL,4.0,4.0,van9,tractor1,,276.154,0.154,0.0,
223,,size_choice_confirmation,,html-keyboard-response,223,323045,0.0-1.0-351.0-0.0,0,0,83590,,,,,,87.0,,,,,,,,,,,,,,,,,,,,,,,,,,,,277.5,1.346,,
224,,iti,,html-keyboard-response,224,324049,0.0-1.0-352.0,0,0,83590,,,,,,,,,,,,,,,,,,,,,,,,,,,,,,,,,,278.5,1.0,,
225,,size_choice,,html-keyboard-response,225,324333,0.0-1.0-354.0,0,0,83590,,282.0,,,68.0,88.0,88.0,2.0,1500.0,S-XL,1.0,XL,S,4.0,1.0,crane,die,crane7,die4,166.0,103.0,/static/Size_judgement/Stimuli/Size_stims/XL/crane/crane3.jpg,/static/Size_judgement/Stimuli/Size_stims/S/die/die2.jpg,1.0,crane,die,XL,S,4.0,1.0,crane7,die4,1.0,278.782,0.282,0.0,
226,,size_choice_confirmation,,html-keyboard-response,226,325556,0.0-1.0-355.0-0.0,0,0,83590,,,,,,88.0,,,,,,,,,,,,,,,,,,,,,,,,,,,,280.0,1.218,,
227,,iti,,html-keyboard-response,227,327059,0.0-1.0-356.0,0,0,83590,,,,,,,,,,,,,,,,,,,,,,,,,,,,,,,,,,281.5,1.5,,
228,,size_choice,,html-keyboard-response,228,327165,0.0-1.0-358.0,0,0,83590,,105.0,,,68.0,89.0,89.0,2.0,1000.0,M-L,0.0,M,L,2.0,3.0,coffeemaker,mailbox,coffeemaker8,mailbox8,67.0,47.0,/static/Size_judgement/Stimuli/Size_stims/M/coffeemaker/coffeemaker5.jpg,/static/Size_judgement/Stimuli/Size_stims/L/mailbox/mailbox10.jpg,1.0,coffeemaker,mailbox,M,L,2.0,3.0,coffeemaker8,mailbox8,0.0,281.605,0.105,0.0,
229,,size_choice_confirmation,,html-keyboard-response,229,328563,0.0-1.0-359.0-0.0,0,0,83590,,,,,,89.0,,,,,,,,,,,,,,,,,,,,,,,,,,,,283.0,1.395,,
230,,iti,,html-keyboard-response,230,329566,0.0-1.0-360.0,0,0,83590,,,,,,,,,,,,,,,,,,,,,,,,,,,,,,,,,,284.0,1.0,,0.26
231,,size_final_tally,,html-keyboard-response,231,329748,0.0-2.0,0,0,83590,,181.0,,,68.0,,,,,,,,,,,,,,,,,,,,,,,,,,,,,,,,
