,success,ttype,start_time,trial_type,trial_index,time_elapsed,internal_node_id,warning,missed_checkup,PID,view_history,rt,responses,repeat_instructions,key_press,index,trial_num,block,iti,pair_type,high_size_on_left,left_size_group,right_size_group,left_size_num,right_size_num,left_category,right_category,left_exemplar,right_exemplar,left_index,right_index,left_img_path,right_img_path,left_chosen,chosen_category,unchosen_category,chosen_size_group,unchosen_size_group,chosen_size_num,unchosen_size_num,chosen_exemplar,unchosen_exemplar,accuracy,no_response,onset,duration,no_resposne,size_final_tally
0,True,full_screen,d06012022hr1727,fullscreen,0,2980,0.0-0.0,0,0,32,,,,,,,,,,,,,,,,,,,,,,,,,,,,,,,,,,,,,,
1,,size_instructions,,instructions,1,5144,0.0-1.0-0.0-0.0,0,0,32,"[{""page_index"":0,""viewing_time"":1313},{""page_index"":1,""viewing_time"":171},{""page_index"":2,""viewing_time"":163},{""page_index"":3,""viewing_time"":168},{""page_index"":4,""viewing_time"":172},{""page_index"":5,""viewing_time"":174}]",2162.0,,,,,,,,,,,,,,,,,,,,,,,,,,,,,,,,,,,,
2,,size_comprehension_check,,survey-multi-choice,2,10151,0.0-1.0-0.0-1.0,0,0,32,,5003.0,"{""Q0"":""True"",""Q1"":""Size in the real world"",""Q2"":""True"",""Q3"":""pointer finger for left and middle finger for right""}",0.0,,,,,,,,,,,,,,,,,,,,,,,,,,,,,,,,,,
3,,,,html-keyboard-response,3,11986,0.0-1.0-1.0,0,0,32,,1834.0,,,50.0,,,,,,,,,,,,,,,,,,,,,,,,,,,,,,,,,
4,,size_choice,,html-keyboard-response,4,12630,0.0-1.0-2.0,0,0,32,,643.0,,,51.0,0.0,0.0,1.0,2000.0,L-L,,L,L,3.0,3.0,deskchair,mailbox,deskchair10,mailbox3,19.0,42.0,/static/Size_judgement/Stimuli/Size_stims/L/deskchair/deskchair2.jpg,/static/Size_judgement/Stimuli/Size_stims/L/mailbox/mailbox1.jpg,0.0,mailbox,deskchair,L,L,3.0,3.0,mailbox3,deskchair10,,0.0,0.643,0.643,,
5,,size_choice_confirmation,,html-keyboard-response,5,13494,0.0-1.0-3.0-0.0,0,0,32,,,,,,0.0,,,,,,,,,,,,,,,,,,,,,,,,,,,,,1.5,0.857,,
6,,iti,,html-keyboard-response,6,13598,0.0-1.0-4.0,0,0,32,,,,,,,,,,,,,,,,,,,,,,,,,,,,,,,,,,,3.5,2.0,,
7,,size_choice,,html-keyboard-response,7,15104,0.0-1.0-6.0,0,0,32,,,,,,1.0,1.0,1.0,1000.0,S-XL,1.0,XL,S,4.0,1.0,dumptruck,teabag,dumptruck9,teabag3,178.0,132.0,/static/Size_judgement/Stimuli/Size_stims/XL/dumptruck/dumptruck5.jpg,/static/Size_judgement/Stimuli/Size_stims/S/teabag/teabag1.jpg,,,,,,,,,,,,5.0,1.5,1.0,
8,,iti,,html-keyboard-response,8,15209,0.0-1.0-8.0,0,0,32,,,,,,,,,,,,,,,,,,,,,,,,,,,,,,,,,,,6.0,1.0,,
9,,size_choice,,html-keyboard-response,9,16562,0.0-1.0-10.0,0,0,32,,1352.0,,,51.0,2.0,2.0,1.0,1000.0,M-L,1.0,L,M,3.0,2.0,mailbox,ketchup,mailbox9,ketchup7,48.0,96.0,/static/Size_judgement/Stimuli/Size_stims/L/mailbox/mailbox9.jpg,/static/Size_judgement/Stimuli/Size_stims/M/ketchup/ketchup4.jpg,0.0,ketchup,mailbox,M,L,2.0,3.0,ketchup7,mailbox9,0.0,0.0,7.352,1.352,,
10,,size_choice_confirmation,,html-keyboard-response,10,16716,0.0-1.0-11.0-0.0,0,0,32,,,,,,2.0,,,,,,,,,,,,,,,,,,,,,,,,,,,,,7.5,0.148,,
11,,iti,,html-keyboard-response,11,16821,0.0-1.0-12.0,0,0,32,,,,,,,,,,,,,,,,,,,,,,,,,,,,,,,,,,,8.5,1.0,,
12,,size_choice,,html-keyboard-response,12,17369,0.0-1.0-14.0,0,0,32,,547.0,,,51.0,3.0,3.0,1.0,2000.0,M-XL,1.0,XL,M,4.0,2.0,dumptruck,ketchup,dumptruck4,ketchup2,173.0,91.0,/static/Size_judgement/Stimuli/Size_stims/XL/dumptruck/dumptruck1.jpg,/static/Size_judgement/Stimuli/Size_stims/M/ketchup/ketchup9.jpg,0.0,ketchup,dumptruck,M,XL,2.0,4.0,ketchup2,dumptruck4,0.0,0.0,9.047,0.547,,
13,,size_choice_confirmation,,html-keyboard-response,13,18325,0.0-1.0-15.0-0.0,0,0,32,,,,,,3.0,,,,,,,,,,,,,,,,,,,,,,,,,,,,,10.0,0.953,,
14,,iti,,html-keyboard-response,14,18428,0.0-1.0-16.0,0,0,32,,,,,,,,,,,,,,,,,,,,,,,,,,,,,,,,,,,12.0,2.0,,
15,,size_choice,,html-keyboard-response,15,18817,0.0-1.0-18.0,0,0,32,,388.0,,,51.0,4.0,4.0,1.0,1000.0,L-XL,0.0,L,XL,3.0,4.0,garbagecan,dumptruck,garbagecan9,dumptruck7,38.0,176.0,/static/Size_judgement/Stimuli/Size_stims/L/garbagecan/garbagecan12.jpg,/static/Size_judgement/Stimuli/Size_stims/XL/dumptruck/dumptruck6.jpg,0.0,dumptruck,garbagecan,XL,L,4.0,3.0,dumptruck7,garbagecan9,1.0,0.0,12.388,0.388,,
16,,size_choice_confirmation,,html-keyboard-response,16,19935,0.0-1.0-19.0-0.0,0,0,32,,,,,,4.0,,,,,,,,,,,,,,,,,,,,,,,,,,,,,13.5,1.112,,
17,,iti,,html-keyboard-response,17,20038,0.0-1.0-20.0,0,0,32,,,,,,,,,,,,,,,,,,,,,,,,,,,,,,,,,,,14.5,1.0,,
18,,size_choice,,html-keyboard-response,18,20297,0.0-1.0-22.0,0,0,32,,256.0,,,50.0,5.0,5.0,1.0,1500.0,S-L,1.0,L,S,3.0,1.0,mailbox,thread,mailbox8,thread8,47.0,147.0,/static/Size_judgement/Stimuli/Size_stims/L/mailbox/mailbox10.jpg,/static/Size_judgement/Stimuli/Size_stims/S/thread/thread10.jpg,1.0,mailbox,thread,L,S,3.0,1.0,mailbox8,thread8,1.0,0.0,14.756,0.256,,
19,,size_choice_confirmation,,html-keyboard-response,19,21544,0.0-1.0-23.0-0.0,0,0,32,,,,,,5.0,,,,,,,,,,,,,,,,,,,,,,,,,,,,,16.0,1.244,,
20,,iti,,html-keyboard-response,20,21647,0.0-1.0-24.0,0,0,32,,,,,,,,,,,,,,,,,,,,,,,,,,,,,,,,,,,17.5,1.5,,
21,,size_choice,,html-keyboard-response,21,21845,0.0-1.0-26.0,0,0,32,,197.0,,,50.0,6.0,6.0,1.0,2000.0,S-L,1.0,L,S,3.0,1.0,garbagecan,teabag,garbagecan6,teabag10,35.0,139.0,/static/Size_judgement/Stimuli/Size_stims/L/garbagecan/garbagecan14.jpg,/static/Size_judgement/Stimuli/Size_stims/S/teabag/teabag4.jpg,1.0,garbagecan,teabag,L,S,3.0,1.0,garbagecan6,teabag10,1.0,0.0,17.697,0.197,,
22,,size_choice_confirmation,,html-keyboard-response,22,23151,0.0-1.0-27.0-0.0,0,0,32,,,,,,6.0,,,,,,,,,,,,,,,,,,,,,,,,,,,,,19.0,1.303,,
23,,iti,,html-keyboard-response,23,23254,0.0-1.0-28.0,0,0,32,,,,,,,,,,,,,,,,,,,,,,,,,,,,,,,,,,,21.0,2.0,,
24,,size_choice,,html-keyboard-response,24,23718,0.0-1.0-30.0,0,0,32,,462.0,,,50.0,7.0,7.0,1.0,1000.0,M-XL,1.0,XL,M,4.0,2.0,car,ketchup,car2,ketchup5,151.0,94.0,/static/Size_judgement/Stimuli/Size_stims/XL/car/car3.jpg,/static/Size_judgement/Stimuli/Size_stims/M/ketchup/ketchup3.jpg,1.0,car,ketchup,XL,M,4.0,2.0,car2,ketchup5,1.0,0.0,21.462,0.462,,
25,,size_choice_confirmation,,html-keyboard-response,25,24761,0.0-1.0-31.0-0.0,0,0,32,,,,,,7.0,,,,,,,,,,,,,,,,,,,,,,,,,,,,,22.5,1.038,,
26,,iti,,html-keyboard-response,26,24864,0.0-1.0-32.0,0,0,32,,,,,,,,,,,,,,,,,,,,,,,,,,,,,,,,,,,23.5,1.0,,
27,,size_choice,,html-keyboard-response,27,24997,0.0-1.0-34.0,0,0,32,,132.0,,,50.0,8.0,8.0,1.0,1000.0,XL-XL,,XL,XL,4.0,4.0,van,car,van3,car4,192.0,153.0,/static/Size_judgement/Stimuli/Size_stims/XL/van/van6.jpg,/static/Size_judgement/Stimuli/Size_stims/XL/car/car6.jpg,1.0,van,car,XL,XL,4.0,4.0,van3,car4,,0.0,23.632,0.132,,
28,,size_choice_confirmation,,html-keyboard-response,28,26371,0.0-1.0-35.0-0.0,0,0,32,,,,,,8.0,,,,,,,,,,,,,,,,,,,,,,,,,,,,,25.0,1.368,,
29,,iti,,html-keyboard-response,29,26474,0.0-1.0-36.0,0,0,32,,,,,,,,,,,,,,,,,,,,,,,,,,,,,,,,,,,26.0,1.0,,
30,,size_choice,,html-keyboard-response,30,26829,0.0-1.0-38.0,0,0,32,,353.0,,,50.0,9.0,9.0,1.0,1500.0,S-XL,0.0,S,XL,1.0,4.0,teabag,dumptruck,teabag8,dumptruck8,137.0,177.0,/static/Size_judgement/Stimuli/Size_stims/S/teabag/teabag7.jpg,/static/Size_judgement/Stimuli/Size_stims/XL/dumptruck/dumptruck7.jpg,1.0,teabag,dumptruck,S,XL,1.0,4.0,teabag8,dumptruck8,0.0,0.0,26.353,0.353,,
31,,size_choice_confirmation,,html-keyboard-response,31,27980,0.0-1.0-39.0-0.0,0,0,32,,,,,,9.0,,,,,,,,,,,,,,,,,,,,,,,,,,,,,27.5,1.147,,
32,,iti,,html-keyboard-response,32,28081,0.0-1.0-40.0,0,0,32,,,,,,,,,,,,,,,,,,,,,,,,,,,,,,,,,,,29.0,1.5,,
33,,size_choice,,html-keyboard-response,33,28083,0.0-1.0-42.0,0,0,32,,1.0,,,50.0,10.0,10.0,1.0,1000.0,M-M,,M,M,2.0,2.0,handsaw,ketchup,handsaw4,ketchup9,83.0,98.0,/static/Size_judgement/Stimuli/Size_stims/M/handsaw/handsaw3.jpg,/static/Size_judgement/Stimuli/Size_stims/M/ketchup/ketchup7.jpg,1.0,handsaw,ketchup,M,M,2.0,2.0,handsaw4,ketchup9,,0.0,29.001,0.001,,
34,,size_choice_confirmation,,html-keyboard-response,34,29588,0.0-1.0-43.0-0.0,0,0,32,,,,,,10.0,,,,,,,,,,,,,,,,,,,,,,,,,,,,,30.5,1.499,,
35,,iti,,html-keyboard-response,35,29692,0.0-1.0-44.0,0,0,32,,,,,,,,,,,,,,,,,,,,,,,,,,,,,,,,,,,31.5,1.0,,
36,,size_choice,,html-keyboard-response,36,29764,0.0-1.0-46.0,0,0,32,,71.0,,,50.0,11.0,11.0,1.0,1000.0,M-L,0.0,M,L,2.0,3.0,hairdryer,garbagecan,hairdryer6,garbagecan3,75.0,32.0,/static/Size_judgement/Stimuli/Size_stims/M/hairdryer/hairdryer8.jpg,/static/Size_judgement/Stimuli/Size_stims/L/garbagecan/garbagecan7.jpg,1.0,hairdryer,garbagecan,M,L,2.0,3.0,hairdryer6,garbagecan3,0.0,0.0,31.571,0.071,,
37,,size_choice_confirmation,,html-keyboard-response,37,31198,0.0-1.0-47.0-0.0,0,0,32,,,,,,11.0,,,,,,,,,,,,,,,,,,,,,,,,,,,,,33.0,1.429,,
38,,iti,,html-keyboard-response,38,31301,0.0-1.0-48.0,0,0,32,,,,,,,,,,,,,,,,,,,,,,,,,,,,,,,,,,,34.0,1.0,,
39,,size_choice,,html-keyboard-response,39,31682,0.0-1.0-50.0,0,0,32,,380.0,,,50.0,12.0,12.0,1.0,2000.0,M-L,0.0,M,L,2.0,3.0,coffeemaker,garbagecan,coffeemaker5,garbagecan4,64.0,33.0,/static/Size_judgement/Stimuli/Size_stims/M/coffeemaker/coffeemaker10.jpg,/static/Size_judgement/Stimuli/Size_stims/L/garbagecan/garbagecan6.jpg,1.0,coffeemaker,garbagecan,M,L,2.0,3.0,coffeemaker5,garbagecan4,0.0,0.0,34.38,0.38,,
40,,size_choice_confirmation,,html-keyboard-response,40,32807,0.0-1.0-51.0-0.0,0,0,32,,,,,,12.0,,,,,,,,,,,,,,,,,,,,,,,,,,,,,35.5,1.12,,
41,,iti,,html-keyboard-response,41,32912,0.0-1.0-52.0,0,0,32,,,,,,,,,,,,,,,,,,,,,,,,,,,,,,,,,,,37.5,2.0,,
42,,size_choice,,html-keyboard-response,42,33814,0.0-1.0-54.0,0,0,32,,901.0,,,50.0,13.0,13.0,1.0,1000.0,S-L,0.0,S,L,1.0,3.0,screws,garbagecan,screws10,garbagecan2,129.0,31.0,/static/Size_judgement/Stimuli/Size_stims/S/screws/screws9.jpg,/static/Size_judgement/Stimuli/Size_stims/L/garbagecan/garbagecan5.jpg,1.0,screws,garbagecan,S,L,1.0,3.0,screws10,garbagecan2,0.0,0.0,38.401,0.901,,
43,,size_choice_confirmation,,html-keyboard-response,43,34415,0.0-1.0-55.0-0.0,0,0,32,,,,,,13.0,,,,,,,,,,,,,,,,,,,,,,,,,,,,,39.0,0.599,,
44,,iti,,html-keyboard-response,44,34516,0.0-1.0-56.0,0,0,32,,,,,,,,,,,,,,,,,,,,,,,,,,,,,,,,,,,40.0,1.0,,
45,,size_choice,,html-keyboard-response,45,34834,0.0-1.0-58.0,0,0,32,,317.0,,,51.0,14.0,14.0,1.0,1000.0,M-XL,1.0,XL,M,4.0,2.0,dumptruck,hairdryer,dumptruck5,hairdryer4,174.0,73.0,/static/Size_judgement/Stimuli/Size_stims/XL/dumptruck/dumptruck3.jpg,/static/Size_judgement/Stimuli/Size_stims/M/hairdryer/hairdryer16.jpg,0.0,hairdryer,dumptruck,M,XL,2.0,4.0,hairdryer4,dumptruck5,0.0,0.0,40.317,0.317,,
46,,size_choice_confirmation,,html-keyboard-response,46,36021,0.0-1.0-59.0-0.0,0,0,32,,,,,,14.0,,,,,,,,,,,,,,,,,,,,,,,,,,,,,41.5,1.183,,
47,,iti,,html-keyboard-response,47,36124,0.0-1.0-60.0,0,0,32,,,,,,,,,,,,,,,,,,,,,,,,,,,,,,,,,,,42.5,1.0,,
48,,size_choice,,html-keyboard-response,48,36603,0.0-1.0-62.0,0,0,32,,478.0,,,51.0,15.0,15.0,1.0,1000.0,S-XL,1.0,XL,S,4.0,1.0,van,screws,van5,screws1,194.0,120.0,/static/Size_judgement/Stimuli/Size_stims/XL/van/van3.jpg,/static/Size_judgement/Stimuli/Size_stims/S/screws/screws4.jpg,0.0,screws,van,S,XL,1.0,4.0,screws1,van5,0.0,0.0,42.978,0.478,,
49,,size_choice_confirmation,,html-keyboard-response,49,37627,0.0-1.0-63.0-0.0,0,0,32,,,,,,15.0,,,,,,,,,,,,,,,,,,,,,,,,,,,,,44.0,1.022,,
50,,iti,,html-keyboard-response,50,37732,0.0-1.0-64.0,0,0,32,,,,,,,,,,,,,,,,,,,,,,,,,,,,,,,,,,,45.0,1.0,,
51,,size_choice,,html-keyboard-response,51,37938,0.0-1.0-66.0,0,0,32,,205.0,,,51.0,16.0,16.0,1.0,3000.0,S-M,0.0,S,M,1.0,2.0,teabag,coffeemaker,teabag9,coffeemaker8,138.0,67.0,/static/Size_judgement/Stimuli/Size_stims/S/teabag/teabag5.jpg,/static/Size_judgement/Stimuli/Size_stims/M/coffeemaker/coffeemaker5.jpg,0.0,coffeemaker,teabag,M,S,2.0,1.0,coffeemaker8,teabag9,1.0,0.0,45.205,0.205,,
52,,size_choice_confirmation,,html-keyboard-response,52,39238,0.0-1.0-67.0-0.0,0,0,32,,,,,,16.0,,,,,,,,,,,,,,,,,,,,,,,,,,,,,46.5,1.295,,
53,,iti,,html-keyboard-response,53,39343,0.0-1.0-68.0,0,0,32,,,,,,,,,,,,,,,,,,,,,,,,,,,,,,,,,,,49.5,3.0,,
54,,size_choice,,html-keyboard-response,54,39434,0.0-1.0-70.0,0,0,32,,85.0,,,51.0,17.0,17.0,1.0,1000.0,M-XL,1.0,XL,M,4.0,2.0,dumptruck,hairdryer,dumptruck10,hairdryer8,179.0,77.0,/static/Size_judgement/Stimuli/Size_stims/XL/dumptruck/dumptruck4.jpg,/static/Size_judgement/Stimuli/Size_stims/M/hairdryer/hairdryer1.jpg,0.0,hairdryer,dumptruck,M,XL,2.0,4.0,hairdryer8,dumptruck10,0.0,0.0,49.585,0.085,,
55,,size_choice_confirmation,,html-keyboard-response,55,40855,0.0-1.0-71.0-0.0,0,0,32,,,,,,17.0,,,,,,,,,,,,,,,,,,,,,,,,,,,,,51.0,1.415,,
56,,iti,,html-keyboard-response,56,40959,0.0-1.0-72.0,0,0,32,,,,,,,,,,,,,,,,,,,,,,,,,,,,,,,,,,,52.0,1.0,,
57,,size_choice,,html-keyboard-response,57,41214,0.0-1.0-74.0,0,0,32,,253.0,,,51.0,18.0,18.0,1.0,1500.0,S-L,0.0,S,L,1.0,3.0,die,mailbox,die10,mailbox10,109.0,49.0,/static/Size_judgement/Stimuli/Size_stims/S/die/die6.jpg,/static/Size_judgement/Stimuli/Size_stims/L/mailbox/mailbox8.jpg,0.0,mailbox,die,L,S,3.0,1.0,mailbox10,die10,1.0,0.0,52.253,0.253,,
58,,size_choice_confirmation,,html-keyboard-response,58,42463,0.0-1.0-75.0-0.0,0,0,32,,,,,,18.0,,,,,,,,,,,,,,,,,,,,,,,,,,,,,53.5,1.247,,
59,,iti,,html-keyboard-response,59,42564,0.0-1.0-76.0,0,0,32,,,,,,,,,,,,,,,,,,,,,,,,,,,,,,,,,,,55.0,1.5,,
60,,size_choice,,html-keyboard-response,60,43029,0.0-1.0-78.0,0,0,32,,463.0,,,51.0,19.0,19.0,1.0,1000.0,S-XL,1.0,XL,S,4.0,1.0,dumptruck,die,dumptruck1,die6,170.0,105.0,/static/Size_judgement/Stimuli/Size_stims/XL/dumptruck/dumptruck9.jpg,/static/Size_judgement/Stimuli/Size_stims/S/die/die1.jpg,0.0,die,dumptruck,S,XL,1.0,4.0,die6,dumptruck1,0.0,0.0,55.463,0.463,,
61,,size_choice_confirmation,,html-keyboard-response,61,44071,0.0-1.0-79.0-0.0,0,0,32,,,,,,19.0,,,,,,,,,,,,,,,,,,,,,,,,,,,,,56.5,1.037,,
62,,iti,,html-keyboard-response,62,44175,0.0-1.0-80.0,0,0,32,,,,,,,,,,,,,,,,,,,,,,,,,,,,,,,,,,,57.5,1.0,,
63,,size_choice,,html-keyboard-response,63,44236,0.0-1.0-82.0,0,0,32,,58.0,,,50.0,20.0,20.0,1.0,1500.0,M-XL,0.0,M,XL,2.0,4.0,basketball,tractor,basketball7,tractor6,56.0,185.0,/static/Size_judgement/Stimuli/Size_stims/M/basketball/basketball6.jpg,/static/Size_judgement/Stimuli/Size_stims/XL/tractor/tractor3.jpg,1.0,basketball,tractor,M,XL,2.0,4.0,basketball7,tractor6,0.0,0.0,57.558,0.058,,
64,,size_choice_confirmation,,html-keyboard-response,64,45679,0.0-1.0-83.0-0.0,0,0,32,,,,,,20.0,,,,,,,,,,,,,,,,,,,,,,,,,,,,,59.0,1.442,,
65,,iti,,html-keyboard-response,65,45781,0.0-1.0-84.0,0,0,32,,,,,,,,,,,,,,,,,,,,,,,,,,,,,,,,,,,60.5,1.5,,
66,,size_choice,,html-keyboard-response,66,46115,0.0-1.0-86.0,0,0,32,,333.0,,,50.0,21.0,21.0,1.0,3000.0,M-M,,M,M,2.0,2.0,handsaw,ketchup,handsaw10,ketchup8,89.0,97.0,/static/Size_judgement/Stimuli/Size_stims/M/handsaw/handsaw10.jpg,/static/Size_judgement/Stimuli/Size_stims/M/ketchup/ketchup5.jpg,1.0,handsaw,ketchup,M,M,2.0,2.0,handsaw10,ketchup8,,0.0,60.833,0.333,,
67,,size_choice_confirmation,,html-keyboard-response,67,47288,0.0-1.0-87.0-0.0,0,0,32,,,,,,21.0,,,,,,,,,,,,,,,,,,,,,,,,,,,,,62.0,1.167,,
68,,iti,,html-keyboard-response,68,47394,0.0-1.0-88.0,0,0,32,,,,,,,,,,,,,,,,,,,,,,,,,,,,,,,,,,,65.0,3.0,,
69,,size_choice,,html-keyboard-response,69,47527,0.0-1.0-90.0,0,0,32,,132.0,,,50.0,22.0,22.0,1.0,1000.0,S-S,,S,S,1.0,1.0,thread,paperclip,thread7,paperclip1,146.0,110.0,/static/Size_judgement/Stimuli/Size_stims/S/thread/thread3.jpg,/static/Size_judgement/Stimuli/Size_stims/S/paperclip/paperclip9.jpg,1.0,thread,paperclip,S,S,1.0,1.0,thread7,paperclip1,,0.0,65.132,0.132,,
70,,size_choice_confirmation,,html-keyboard-response,70,48899,0.0-1.0-91.0-0.0,0,0,32,,,,,,22.0,,,,,,,,,,,,,,,,,,,,,,,,,,,,,66.5,1.368,,
71,,iti,,html-keyboard-response,71,49005,0.0-1.0-92.0,0,0,32,,,,,,,,,,,,,,,,,,,,,,,,,,,,,,,,,,,67.5,1.0,,
72,,size_choice,,html-keyboard-response,72,49555,0.0-1.0-94.0,0,0,32,,548.0,,,50.0,23.0,23.0,1.0,1500.0,M-XL,1.0,XL,M,4.0,2.0,car,handsaw,car6,handsaw2,155.0,81.0,/static/Size_judgement/Stimuli/Size_stims/XL/car/car12.jpg,/static/Size_judgement/Stimuli/Size_stims/M/handsaw/handsaw9.jpg,1.0,car,handsaw,XL,M,4.0,2.0,car6,handsaw2,1.0,0.0,68.048,0.548,,
73,,size_choice_confirmation,,html-keyboard-response,73,50512,0.0-1.0-95.0-0.0,0,0,32,,,,,,23.0,,,,,,,,,,,,,,,,,,,,,,,,,,,,,69.0,0.952,,
74,,iti,,html-keyboard-response,74,50615,0.0-1.0-96.0,0,0,32,,,,,,,,,,,,,,,,,,,,,,,,,,,,,,,,,,,70.5,1.5,,
75,,size_choice,,html-keyboard-response,75,50867,0.0-1.0-98.0,0,0,32,,251.0,,,51.0,24.0,24.0,1.0,1500.0,S-L,0.0,S,L,1.0,3.0,die,deskchair,die3,deskchair6,102.0,15.0,/static/Size_judgement/Stimuli/Size_stims/S/die/die10.jpg,/static/Size_judgement/Stimuli/Size_stims/L/deskchair/deskchair5.jpg,0.0,deskchair,die,L,S,3.0,1.0,deskchair6,die3,1.0,0.0,70.751,0.251,,
76,,size_choice_confirmation,,html-keyboard-response,76,52122,0.0-1.0-99.0-0.0,0,0,32,,,,,,24.0,,,,,,,,,,,,,,,,,,,,,,,,,,,,,72.0,1.249,,
77,,iti,,html-keyboard-response,77,52227,0.0-1.0-100.0,0,0,32,,,,,,,,,,,,,,,,,,,,,,,,,,,,,,,,,,,73.5,1.5,,
78,,size_choice,,html-keyboard-response,78,52620,0.0-1.0-102.0,0,0,32,,392.0,,,51.0,25.0,25.0,1.0,1500.0,S-S,,S,S,1.0,1.0,paperclip,die,paperclip9,die1,118.0,100.0,/static/Size_judgement/Stimuli/Size_stims/S/paperclip/paperclip4.jpg,/static/Size_judgement/Stimuli/Size_stims/S/die/die8.jpg,0.0,die,paperclip,S,S,1.0,1.0,die1,paperclip9,,0.0,73.892,0.392,,
79,,size_choice_confirmation,,html-keyboard-response,79,53733,0.0-1.0-103.0-0.0,0,0,32,,,,,,25.0,,,,,,,,,,,,,,,,,,,,,,,,,,,,,75.0,1.108,,
80,,iti,,html-keyboard-response,80,53838,0.0-1.0-104.0,0,0,32,,,,,,,,,,,,,,,,,,,,,,,,,,,,,,,,,,,76.5,1.5,,
81,,size_choice,,html-keyboard-response,81,55213,0.0-1.0-106.0,0,0,32,,1372.0,,,51.0,26.0,26.0,1.0,2000.0,M-L,0.0,M,L,2.0,3.0,basketball,deskchair,basketball4,deskchair9,53.0,18.0,/static/Size_judgement/Stimuli/Size_stims/M/basketball/basketball1.jpg,/static/Size_judgement/Stimuli/Size_stims/L/deskchair/deskchair3.jpg,0.0,deskchair,basketball,L,M,3.0,2.0,deskchair9,basketball4,1.0,0.0,77.872,1.372,,
82,,size_choice_confirmation,,html-keyboard-response,82,55346,0.0-1.0-107.0-0.0,0,0,32,,,,,,26.0,,,,,,,,,,,,,,,,,,,,,,,,,,,,,78.0,0.128,,
83,,iti,,html-keyboard-response,83,55450,0.0-1.0-108.0,0,0,32,,,,,,,,,,,,,,,,,,,,,,,,,,,,,,,,,,,80.0,2.0,,
84,,size_choice,,html-keyboard-response,84,55697,0.0-1.0-110.0,0,0,32,,246.0,,,51.0,27.0,27.0,1.0,1500.0,S-XL,0.0,S,XL,1.0,4.0,screws,crane,screws6,crane6,125.0,165.0,/static/Size_judgement/Stimuli/Size_stims/S/screws/screws3.jpg,/static/Size_judgement/Stimuli/Size_stims/XL/crane/crane2.jpg,0.0,crane,screws,XL,S,4.0,1.0,crane6,screws6,1.0,0.0,80.246,0.246,,
85,,size_choice_confirmation,,html-keyboard-response,85,56957,0.0-1.0-111.0-0.0,0,0,32,,,,,,27.0,,,,,,,,,,,,,,,,,,,,,,,,,,,,,81.5,1.254,,
86,,iti,,html-keyboard-response,86,57061,0.0-1.0-112.0,0,0,32,,,,,,,,,,,,,,,,,,,,,,,,,,,,,,,,,,,83.0,1.5,,
87,,size_choice,,html-keyboard-response,87,57278,0.0-1.0-114.0,0,0,32,,216.0,,,51.0,28.0,28.0,1.0,3000.0,M-L,0.0,M,L,2.0,3.0,coffeemaker,dishwasher,coffeemaker1,dishwasher7,60.0,26.0,/static/Size_judgement/Stimuli/Size_stims/M/coffeemaker/coffeemaker14.jpg,/static/Size_judgement/Stimuli/Size_stims/L/dishwasher/dishwasher7.jpg,0.0,dishwasher,coffeemaker,L,M,3.0,2.0,dishwasher7,coffeemaker1,1.0,0.0,83.216,0.216,,
88,,size_choice_confirmation,,html-keyboard-response,88,58566,0.0-1.0-115.0-0.0,0,0,32,,,,,,28.0,,,,,,,,,,,,,,,,,,,,,,,,,,,,,84.5,1.284,,
89,,iti,,html-keyboard-response,89,58671,0.0-1.0-116.0,0,0,32,,,,,,,,,,,,,,,,,,,,,,,,,,,,,,,,,,,87.5,3.0,,
90,,size_choice,,html-keyboard-response,90,59047,0.0-1.0-118.0,0,0,32,,375.0,,,51.0,29.0,29.0,1.0,2000.0,L-XL,0.0,L,XL,3.0,4.0,mailbox,tractor,mailbox6,tractor2,45.0,181.0,/static/Size_judgement/Stimuli/Size_stims/L/mailbox/mailbox6.jpg,/static/Size_judgement/Stimuli/Size_stims/XL/tractor/tractor7.jpg,0.0,tractor,mailbox,XL,L,4.0,3.0,tractor2,mailbox6,1.0,0.0,87.875,0.375,,
91,,size_choice_confirmation,,html-keyboard-response,91,60178,0.0-1.0-119.0-0.0,0,0,32,,,,,,29.0,,,,,,,,,,,,,,,,,,,,,,,,,,,,,89.0,1.125,,
92,,iti,,html-keyboard-response,92,60282,0.0-1.0-120.0,0,0,32,,,,,,,,,,,,,,,,,,,,,,,,,,,,,,,,,,,91.0,2.0,,
93,,size_choice,,html-keyboard-response,93,60419,0.0-1.0-122.0,0,0,32,,136.0,,,51.0,30.0,30.0,1.0,1500.0,S-XL,0.0,S,XL,1.0,4.0,teabag,crane,teabag5,crane7,134.0,166.0,/static/Size_judgement/Stimuli/Size_stims/S/teabag/teabag2.jpg,/static/Size_judgement/Stimuli/Size_stims/XL/crane/crane3.jpg,0.0,crane,teabag,XL,S,4.0,1.0,crane7,teabag5,1.0,0.0,91.136,0.136,,
94,,size_choice_confirmation,,html-keyboard-response,94,61785,0.0-1.0-123.0-0.0,0,0,32,,,,,,30.0,,,,,,,,,,,,,,,,,,,,,,,,,,,,,92.5,1.364,,
95,,iti,,html-keyboard-response,95,61888,0.0-1.0-124.0,0,0,32,,,,,,,,,,,,,,,,,,,,,,,,,,,,,,,,,,,94.0,1.5,,
96,,size_choice,,html-keyboard-response,96,61912,0.0-1.0-126.0,0,0,32,,23.0,,,51.0,31.0,31.0,1.0,3500.0,M-L,0.0,M,L,2.0,3.0,coffeemaker,cooler,coffeemaker4,cooler10,63.0,9.0,/static/Size_judgement/Stimuli/Size_stims/M/coffeemaker/coffeemaker11.jpg,/static/Size_judgement/Stimuli/Size_stims/L/cooler/cooler6.jpg,0.0,cooler,coffeemaker,L,M,3.0,2.0,cooler10,coffeemaker4,1.0,0.0,94.023,0.023,,
97,,size_choice_confirmation,,html-keyboard-response,97,63394,0.0-1.0-127.0-0.0,0,0,32,,,,,,31.0,,,,,,,,,,,,,,,,,,,,,,,,,,,,,95.5,1.477,,
98,,iti,,html-keyboard-response,98,63496,0.0-1.0-128.0,0,0,32,,,,,,,,,,,,,,,,,,,,,,,,,,,,,,,,,,,99.0,3.5,,
99,,size_choice,,html-keyboard-response,99,63945,0.0-1.0-130.0,0,0,32,,447.0,,,51.0,32.0,32.0,1.0,3000.0,S-XL,0.0,S,XL,1.0,4.0,paperclip,car,paperclip4,car1,113.0,150.0,/static/Size_judgement/Stimuli/Size_stims/S/paperclip/paperclip3.jpg,/static/Size_judgement/Stimuli/Size_stims/XL/car/car2.jpg,0.0,car,paperclip,XL,S,4.0,1.0,car1,paperclip4,1.0,0.0,99.447,0.447,,
100,,size_choice_confirmation,,html-keyboard-response,100,65004,0.0-1.0-131.0-0.0,0,0,32,,,,,,32.0,,,,,,,,,,,,,,,,,,,,,,,,,,,,,100.5,1.053,,
101,,iti,,html-keyboard-response,101,65109,0.0-1.0-132.0,0,0,32,,,,,,,,,,,,,,,,,,,,,,,,,,,,,,,,,,,103.5,3.0,,
102,,size_choice,,html-keyboard-response,102,65582,0.0-1.0-134.0,0,0,32,,471.0,,,51.0,33.0,33.0,1.0,1000.0,M-M,,M,M,2.0,2.0,ketchup,hairdryer,ketchup3,hairdryer2,92.0,71.0,/static/Size_judgement/Stimuli/Size_stims/M/ketchup/ketchup10.jpg,/static/Size_judgement/Stimuli/Size_stims/M/hairdryer/hairdryer12.jpg,0.0,hairdryer,ketchup,M,M,2.0,2.0,hairdryer2,ketchup3,,0.0,103.971,0.471,,
103,,size_choice_confirmation,,html-keyboard-response,103,66613,0.0-1.0-135.0-0.0,0,0,32,,,,,,33.0,,,,,,,,,,,,,,,,,,,,,,,,,,,,,105.0,1.029,,
104,,iti,,html-keyboard-response,104,66716,0.0-1.0-136.0,0,0,32,,,,,,,,,,,,,,,,,,,,,,,,,,,,,,,,,,,106.0,1.0,,
105,,size_choice,,html-keyboard-response,105,67251,0.0-1.0-138.0,0,0,32,,534.0,,,51.0,34.0,34.0,1.0,2000.0,S-S,,S,S,1.0,1.0,teabag,screws,teabag4,screws4,133.0,123.0,/static/Size_judgement/Stimuli/Size_stims/S/teabag/teabag3.jpg,/static/Size_judgement/Stimuli/Size_stims/S/screws/screws6.jpg,0.0,screws,teabag,S,S,1.0,1.0,screws4,teabag4,,0.0,106.534,0.534,,
106,,size_choice_confirmation,,html-keyboard-response,106,68222,0.0-1.0-139.0-0.0,0,0,32,,,,,,34.0,,,,,,,,,,,,,,,,,,,,,,,,,,,,,107.5,0.966,,
107,,iti,,html-keyboard-response,107,68325,0.0-1.0-140.0,0,0,32,,,,,,,,,,,,,,,,,,,,,,,,,,,,,,,,,,,109.5,2.0,,
108,,size_choice,,html-keyboard-response,108,69068,0.0-1.0-142.0,0,0,32,,743.0,,,51.0,35.0,35.0,1.0,1000.0,M-L,0.0,M,L,2.0,3.0,basketball,dishwasher,basketball6,dishwasher1,55.0,20.0,/static/Size_judgement/Stimuli/Size_stims/M/basketball/basketball2.jpg,/static/Size_judgement/Stimuli/Size_stims/L/dishwasher/dishwasher10.jpg,0.0,dishwasher,basketball,L,M,3.0,2.0,dishwasher1,basketball6,1.0,0.0,110.243,0.743,,
109,,size_choice_confirmation,,html-keyboard-response,109,69829,0.0-1.0-143.0-0.0,0,0,32,,,,,,35.0,,,,,,,,,,,,,,,,,,,,,,,,,,,,,111.0,0.757,,
110,,iti,,html-keyboard-response,110,69931,0.0-1.0-144.0,0,0,32,,,,,,,,,,,,,,,,,,,,,,,,,,,,,,,,,,,112.0,1.0,,
111,,size_choice,,html-keyboard-response,111,70701,0.0-1.0-146.0,0,0,32,,768.0,,,51.0,36.0,36.0,1.0,1500.0,M-XL,1.0,XL,M,4.0,2.0,tractor,ketchup,tractor10,ketchup6,189.0,95.0,/static/Size_judgement/Stimuli/Size_stims/XL/tractor/tractor8.jpg,/static/Size_judgement/Stimuli/Size_stims/M/ketchup/ketchup1.jpg,0.0,ketchup,tractor,M,XL,2.0,4.0,ketchup6,tractor10,0.0,0.0,112.768,0.768,,
112,,size_choice_confirmation,,html-keyboard-response,112,71438,0.0-1.0-147.0-0.0,0,0,32,,,,,,36.0,,,,,,,,,,,,,,,,,,,,,,,,,,,,,113.5,0.732,,
113,,iti,,html-keyboard-response,113,71543,0.0-1.0-148.0,0,0,32,,,,,,,,,,,,,,,,,,,,,,,,,,,,,,,,,,,115.0,1.5,,
114,,size_choice,,html-keyboard-response,114,72182,0.0-1.0-150.0,0,0,32,,637.0,,,51.0,37.0,37.0,1.0,3500.0,XL-XL,,XL,XL,4.0,4.0,crane,car,crane10,car8,169.0,157.0,/static/Size_judgement/Stimuli/Size_stims/XL/crane/crane9.jpg,/static/Size_judgement/Stimuli/Size_stims/XL/car/car14.jpg,0.0,car,crane,XL,XL,4.0,4.0,car8,crane10,,0.0,115.637,0.637,,
115,,size_choice_confirmation,,html-keyboard-response,115,73051,0.0-1.0-151.0-0.0,0,0,32,,,,,,37.0,,,,,,,,,,,,,,,,,,,,,,,,,,,,,116.5,0.863,,
116,,iti,,html-keyboard-response,116,73155,0.0-1.0-152.0,0,0,32,,,,,,,,,,,,,,,,,,,,,,,,,,,,,,,,,,,120.0,3.5,,
117,,size_choice,,html-keyboard-response,117,73531,0.0-1.0-154.0,0,0,32,,374.0,,,51.0,38.0,38.0,1.0,1500.0,L-L,,L,L,3.0,3.0,dishwasher,garbagecan,dishwasher5,garbagecan5,24.0,34.0,/static/Size_judgement/Stimuli/Size_stims/L/dishwasher/dishwasher4.jpg,/static/Size_judgement/Stimuli/Size_stims/L/garbagecan/garbagecan3.jpg,0.0,garbagecan,dishwasher,L,L,3.0,3.0,garbagecan5,dishwasher5,,0.0,120.374,0.374,,
118,,size_choice_confirmation,,html-keyboard-response,118,74663,0.0-1.0-155.0-0.0,0,0,32,,,,,,38.0,,,,,,,,,,,,,,,,,,,,,,,,,,,,,121.5,1.126,,
119,,iti,,html-keyboard-response,119,74764,0.0-1.0-156.0,0,0,32,,,,,,,,,,,,,,,,,,,,,,,,,,,,,,,,,,,123.0,1.5,,
120,,size_choice,,html-keyboard-response,120,75147,0.0-1.0-158.0,0,0,32,,382.0,,,50.0,39.0,39.0,1.0,2000.0,L-L,,L,L,3.0,3.0,dishwasher,cooler,dishwasher10,cooler6,29.0,5.0,/static/Size_judgement/Stimuli/Size_stims/L/dishwasher/dishwasher1.jpg,/static/Size_judgement/Stimuli/Size_stims/L/cooler/cooler1.jpg,1.0,dishwasher,cooler,L,L,3.0,3.0,dishwasher10,cooler6,,0.0,123.382,0.382,,
121,,size_choice_confirmation,,html-keyboard-response,121,76267,0.0-1.0-159.0-0.0,0,0,32,,,,,,39.0,,,,,,,,,,,,,,,,,,,,,,,,,,,,,124.5,1.118,,
122,,iti,,html-keyboard-response,122,76372,0.0-1.0-160.0,0,0,32,,,,,,,,,,,,,,,,,,,,,,,,,,,,,,,,,,,126.5,2.0,,
123,,size_choice,,html-keyboard-response,123,76446,0.0-1.0-162.0,0,0,32,,72.0,,,50.0,40.0,40.0,1.0,1500.0,S-M,0.0,S,M,1.0,2.0,screws,handsaw,screws3,handsaw3,122.0,82.0,/static/Size_judgement/Stimuli/Size_stims/S/screws/screws7.jpg,/static/Size_judgement/Stimuli/Size_stims/M/handsaw/handsaw2.jpg,1.0,screws,handsaw,S,M,1.0,2.0,screws3,handsaw3,0.0,0.0,126.572,0.072,,
124,,size_choice_confirmation,,html-keyboard-response,124,77879,0.0-1.0-163.0-0.0,0,0,32,,,,,,40.0,,,,,,,,,,,,,,,,,,,,,,,,,,,,,128.0,1.428,,
125,,iti,,html-keyboard-response,125,77984,0.0-1.0-164.0,0,0,32,,,,,,,,,,,,,,,,,,,,,,,,,,,,,,,,,,,129.5,1.5,,
126,,size_choice,,html-keyboard-response,126,78379,0.0-1.0-166.0,0,0,32,,395.0,,,50.0,41.0,41.0,1.0,3500.0,S-L,1.0,L,S,3.0,1.0,deskchair,thread,deskchair5,thread6,14.0,145.0,/static/Size_judgement/Stimuli/Size_stims/L/deskchair/deskchair7.jpg,/static/Size_judgement/Stimuli/Size_stims/S/thread/thread2.jpg,1.0,deskchair,thread,L,S,3.0,1.0,deskchair5,thread6,1.0,0.0,129.895,0.395,,
127,,size_choice_confirmation,,html-keyboard-response,127,79488,0.0-1.0-167.0-0.0,0,0,32,,,,,,41.0,,,,,,,,,,,,,,,,,,,,,,,,,,,,,131.0,1.105,,
128,,iti,,html-keyboard-response,128,79590,0.0-1.0-168.0,0,0,32,,,,,,,,,,,,,,,,,,,,,,,,,,,,,,,,,,,134.5,3.5,,
129,,size_choice,,html-keyboard-response,129,79912,0.0-1.0-170.0,0,0,32,,320.0,,,50.0,42.0,42.0,1.0,1000.0,S-M,0.0,S,M,1.0,2.0,paperclip,basketball,paperclip7,basketball8,116.0,57.0,/static/Size_judgement/Stimuli/Size_stims/S/paperclip/paperclip7.jpg,/static/Size_judgement/Stimuli/Size_stims/M/basketball/basketball7.jpg,1.0,paperclip,basketball,S,M,1.0,2.0,paperclip7,basketball8,0.0,0.0,134.82,0.32,,
130,,size_choice_confirmation,,html-keyboard-response,130,81096,0.0-1.0-171.0-0.0,0,0,32,,,,,,42.0,,,,,,,,,,,,,,,,,,,,,,,,,,,,,136.0,1.18,,
131,,iti,,html-keyboard-response,131,81201,0.0-1.0-172.0,0,0,32,,,,,,,,,,,,,,,,,,,,,,,,,,,,,,,,,,,137.0,1.0,,
132,,size_choice,,html-keyboard-response,132,81446,0.0-1.0-174.0,0,0,32,,244.0,,,51.0,43.0,43.0,1.0,1000.0,S-L,1.0,L,S,3.0,1.0,deskchair,paperclip,deskchair1,paperclip5,10.0,114.0,/static/Size_judgement/Stimuli/Size_stims/L/deskchair/deskchair9.jpg,/static/Size_judgement/Stimuli/Size_stims/S/paperclip/paperclip2.jpg,0.0,paperclip,deskchair,S,L,1.0,3.0,paperclip5,deskchair1,0.0,0.0,137.244,0.244,,
133,,size_choice_confirmation,,html-keyboard-response,133,82708,0.0-1.0-175.0-0.0,0,0,32,,,,,,43.0,,,,,,,,,,,,,,,,,,,,,,,,,,,,,138.5,1.256,,
134,,iti,,html-keyboard-response,134,82812,0.0-1.0-176.0,0,0,32,,,,,,,,,,,,,,,,,,,,,,,,,,,,,,,,,,,139.5,1.0,,
135,,size_choice,,html-keyboard-response,135,82852,0.0-1.0-178.0,0,0,32,,39.0,,,50.0,44.0,44.0,1.0,1000.0,L-XL,0.0,L,XL,3.0,4.0,dishwasher,van,dishwasher2,van9,21.0,198.0,/static/Size_judgement/Stimuli/Size_stims/L/dishwasher/dishwasher9.jpg,/static/Size_judgement/Stimuli/Size_stims/XL/van/van9.jpg,1.0,dishwasher,van,L,XL,3.0,4.0,dishwasher2,van9,0.0,0.0,139.539,0.039,,
136,,size_choice_confirmation,,html-keyboard-response,136,84315,0.0-1.0-179.0-0.0,0,0,32,,,,,,44.0,,,,,,,,,,,,,,,,,,,,,,,,,,,,,141.0,1.461,,
137,,iti,,html-keyboard-response,137,84419,0.0-1.0-180.0,0,0,32,,,,,,,,,,,,,,,,,,,,,,,,,,,,,,,,,,,142.0,1.0,,
138,,block_over,,html-keyboard-response,138,84877,0.0-1.0-181.0-0.0,0,0,32,,439.0,,,50.0,44.0,,,,,,,,,,,,,,,,,,,,,,,,,,,,,,,,
139,,size_choice,,html-keyboard-response,139,86381,0.0-1.0-182.0,0,0,32,,,,,,45.0,45.0,2.0,2000.0,S-L,0.0,S,L,1.0,3.0,die,mailbox,die5,mailbox2,104.0,41.0,/static/Size_judgement/Stimuli/Size_stims/S/die/die3.jpg,/static/Size_judgement/Stimuli/Size_stims/L/mailbox/mailbox2.jpg,,,,,,,,,,,,143.5,1.5,1.0,
140,,iti,,html-keyboard-response,140,86486,0.0-1.0-184.0,0,0,32,,,,,,,,,,,,,,,,,,,,,,,,,,,,,,,,,,,145.5,2.0,,
141,,size_choice,,html-keyboard-response,141,87515,0.0-1.0-186.0,0,0,32,,1026.0,,,51.0,46.0,46.0,2.0,1000.0,S-L,1.0,L,S,3.0,1.0,deskchair,thread,deskchair3,thread10,12.0,149.0,/static/Size_judgement/Stimuli/Size_stims/L/deskchair/deskchair10.jpg,/static/Size_judgement/Stimuli/Size_stims/S/thread/thread9.jpg,0.0,thread,deskchair,S,L,1.0,3.0,thread10,deskchair3,0.0,0.0,146.526,1.026,,
142,,size_choice_confirmation,,html-keyboard-response,142,87994,0.0-1.0-187.0-0.0,0,0,32,,,,,,46.0,,,,,,,,,,,,,,,,,,,,,,,,,,,,,147.0,0.474,,
143,,iti,,html-keyboard-response,143,88098,0.0-1.0-188.0,0,0,32,,,,,,,,,,,,,,,,,,,,,,,,,,,,,,,,,,,148.0,1.0,,
144,,size_choice,,html-keyboard-response,144,88299,0.0-1.0-190.0,0,0,32,,200.0,,,51.0,47.0,47.0,2.0,3500.0,M-L,1.0,L,M,3.0,2.0,garbagecan,handsaw,garbagecan1,handsaw9,30.0,88.0,/static/Size_judgement/Stimuli/Size_stims/L/garbagecan/garbagecan4.jpg,/static/Size_judgement/Stimuli/Size_stims/M/handsaw/handsaw6.jpg,0.0,handsaw,garbagecan,M,L,2.0,3.0,handsaw9,garbagecan1,0.0,0.0,148.2,0.2,,
145,,size_choice_confirmation,,html-keyboard-response,145,89605,0.0-1.0-191.0-0.0,0,0,32,,,,,,47.0,,,,,,,,,,,,,,,,,,,,,,,,,,,,,149.5,1.3,,
146,,iti,,html-keyboard-response,146,89710,0.0-1.0-192.0,0,0,32,,,,,,,,,,,,,,,,,,,,,,,,,,,,,,,,,,,153.0,3.5,,
147,,size_choice,,html-keyboard-response,147,89728,0.0-1.0-194.0,0,0,32,,17.0,,,51.0,48.0,48.0,2.0,1000.0,M-M,,M,M,2.0,2.0,coffeemaker,hairdryer,coffeemaker7,hairdryer5,66.0,74.0,/static/Size_judgement/Stimuli/Size_stims/M/coffeemaker/coffeemaker9.jpg,/static/Size_judgement/Stimuli/Size_stims/M/hairdryer/hairdryer15.jpg,0.0,hairdryer,coffeemaker,M,M,2.0,2.0,hairdryer5,coffeemaker7,,0.0,153.017,0.017,,
148,,size_choice_confirmation,,html-keyboard-response,148,91217,0.0-1.0-195.0-0.0,0,0,32,,,,,,48.0,,,,,,,,,,,,,,,,,,,,,,,,,,,,,154.5,1.483,,
149,,iti,,html-keyboard-response,149,91321,0.0-1.0-196.0,0,0,32,,,,,,,,,,,,,,,,,,,,,,,,,,,,,,,,,,,155.5,1.0,,
150,,size_choice,,html-keyboard-response,150,91820,0.0-1.0-198.0,0,0,32,,497.0,,,50.0,49.0,49.0,2.0,2000.0,S-XL,1.0,XL,S,4.0,1.0,crane,thread,crane3,thread4,162.0,143.0,/static/Size_judgement/Stimuli/Size_stims/XL/crane/crane4.jpg,/static/Size_judgement/Stimuli/Size_stims/S/thread/thread5.jpg,1.0,crane,thread,XL,S,4.0,1.0,crane3,thread4,1.0,0.0,155.997,0.497,,
151,,size_choice_confirmation,,html-keyboard-response,151,92828,0.0-1.0-199.0-0.0,0,0,32,,,,,,49.0,,,,,,,,,,,,,,,,,,,,,,,,,,,,,157.0,1.003,,
152,,iti,,html-keyboard-response,152,92929,0.0-1.0-200.0,0,0,32,,,,,,,,,,,,,,,,,,,,,,,,,,,,,,,,,,,159.0,2.0,,
153,,size_choice,,html-keyboard-response,153,93300,0.0-1.0-202.0,0,0,32,,370.0,,,50.0,50.0,50.0,2.0,1000.0,S-XL,1.0,XL,S,4.0,1.0,tractor,die,tractor7,die9,186.0,108.0,/static/Size_judgement/Stimuli/Size_stims/XL/tractor/tractor2.jpg,/static/Size_judgement/Stimuli/Size_stims/S/die/die7.jpg,1.0,tractor,die,XL,S,4.0,1.0,tractor7,die9,1.0,0.0,159.37,0.37,,
154,,size_choice_confirmation,,html-keyboard-response,154,94433,0.0-1.0-203.0-0.0,0,0,32,,,,,,50.0,,,,,,,,,,,,,,,,,,,,,,,,,,,,,160.5,1.13,,
155,,iti,,html-keyboard-response,155,94538,0.0-1.0-204.0,0,0,32,,,,,,,,,,,,,,,,,,,,,,,,,,,,,,,,,,,161.5,1.0,,
156,,size_choice,,html-keyboard-response,156,94915,0.0-1.0-206.0,0,0,32,,375.0,,,50.0,51.0,51.0,2.0,2000.0,S-L,1.0,L,S,3.0,1.0,cooler,thread,cooler1,thread2,0.0,141.0,/static/Size_judgement/Stimuli/Size_stims/L/cooler/cooler8.jpg,/static/Size_judgement/Stimuli/Size_stims/S/thread/thread6.jpg,1.0,cooler,thread,L,S,3.0,1.0,cooler1,thread2,1.0,0.0,161.875,0.375,,
157,,size_choice_confirmation,,html-keyboard-response,157,96045,0.0-1.0-207.0-0.0,0,0,32,,,,,,51.0,,,,,,,,,,,,,,,,,,,,,,,,,,,,,163.0,1.125,,
158,,iti,,html-keyboard-response,158,96150,0.0-1.0-208.0,0,0,32,,,,,,,,,,,,,,,,,,,,,,,,,,,,,,,,,,,165.0,2.0,,
159,,size_choice,,html-keyboard-response,159,96268,0.0-1.0-210.0,0,0,32,,117.0,,,50.0,52.0,52.0,2.0,1000.0,M-L,0.0,M,L,2.0,3.0,handsaw,mailbox,handsaw8,mailbox4,87.0,43.0,/static/Size_judgement/Stimuli/Size_stims/M/handsaw/handsaw7.jpg,/static/Size_judgement/Stimuli/Size_stims/L/mailbox/mailbox5.jpg,1.0,handsaw,mailbox,M,L,2.0,3.0,handsaw8,mailbox4,0.0,0.0,165.117,0.117,,
160,,size_choice_confirmation,,html-keyboard-response,160,97654,0.0-1.0-211.0-0.0,0,0,32,,,,,,52.0,,,,,,,,,,,,,,,,,,,,,,,,,,,,,166.5,1.383,,
161,,iti,,html-keyboard-response,161,97756,0.0-1.0-212.0,0,0,32,,,,,,,,,,,,,,,,,,,,,,,,,,,,,,,,,,,167.5,1.0,,
162,,size_choice,,html-keyboard-response,162,98052,0.0-1.0-214.0,0,0,32,,295.0,,,51.0,53.0,53.0,2.0,1000.0,S-XL,1.0,XL,S,4.0,1.0,crane,thread,crane9,thread5,168.0,144.0,/static/Size_judgement/Stimuli/Size_stims/XL/crane/crane8.jpg,/static/Size_judgement/Stimuli/Size_stims/S/thread/thread1.jpg,0.0,thread,crane,S,XL,1.0,4.0,thread5,crane9,0.0,0.0,167.795,0.295,,
163,,size_choice_confirmation,,html-keyboard-response,163,99261,0.0-1.0-215.0-0.0,0,0,32,,,,,,53.0,,,,,,,,,,,,,,,,,,,,,,,,,,,,,169.0,1.205,,
164,,iti,,html-keyboard-response,164,99366,0.0-1.0-216.0,0,0,32,,,,,,,,,,,,,,,,,,,,,,,,,,,,,,,,,,,170.0,1.0,,
165,,size_choice,,html-keyboard-response,165,99631,0.0-1.0-218.0,0,0,32,,264.0,,,51.0,54.0,54.0,2.0,2000.0,XL-XL,,XL,XL,4.0,4.0,tractor,van,tractor1,van10,180.0,199.0,/static/Size_judgement/Stimuli/Size_stims/XL/tractor/tractor6.jpg,/static/Size_judgement/Stimuli/Size_stims/XL/van/van8.jpg,0.0,van,tractor,XL,XL,4.0,4.0,van10,tractor1,,0.0,170.264,0.264,,
166,,size_choice_confirmation,,html-keyboard-response,166,100872,0.0-1.0-219.0-0.0,0,0,32,,,,,,54.0,,,,,,,,,,,,,,,,,,,,,,,,,,,,,171.5,1.236,,
167,,iti,,html-keyboard-response,167,100977,0.0-1.0-220.0,0,0,32,,,,,,,,,,,,,,,,,,,,,,,,,,,,,,,,,,,173.5,2.0,,
168,,size_choice,,html-keyboard-response,168,101198,0.0-1.0-222.0,0,0,32,,220.0,,,51.0,55.0,55.0,2.0,1500.0,S-S,,S,S,1.0,1.0,paperclip,teabag,paperclip8,teabag2,117.0,131.0,/static/Size_judgement/Stimuli/Size_stims/S/paperclip/paperclip5.jpg,/static/Size_judgement/Stimuli/Size_stims/S/teabag/teabag8.jpg,0.0,teabag,paperclip,S,S,1.0,1.0,teabag2,paperclip8,,0.0,173.72,0.22,,
169,,size_choice_confirmation,,html-keyboard-response,169,102484,0.0-1.0-223.0-0.0,0,0,32,,,,,,55.0,,,,,,,,,,,,,,,,,,,,,,,,,,,,,175.0,1.28,,
170,,iti,,html-keyboard-response,170,102587,0.0-1.0-224.0,0,0,32,,,,,,,,,,,,,,,,,,,,,,,,,,,,,,,,,,,176.5,1.5,,
171,,size_choice,,html-keyboard-response,171,102868,0.0-1.0-226.0,0,0,32,,280.0,,,51.0,56.0,56.0,2.0,1500.0,S-XL,1.0,XL,S,4.0,1.0,crane,screws,crane8,screws2,167.0,121.0,/static/Size_judgement/Stimuli/Size_stims/XL/crane/crane10.jpg,/static/Size_judgement/Stimuli/Size_stims/S/screws/screws5.jpg,0.0,screws,crane,S,XL,1.0,4.0,screws2,crane8,0.0,0.0,176.78,0.28,,
172,,size_choice_confirmation,,html-keyboard-response,172,104090,0.0-1.0-227.0-0.0,0,0,32,,,,,,56.0,,,,,,,,,,,,,,,,,,,,,,,,,,,,,178.0,1.22,,
173,,iti,,html-keyboard-response,173,104195,0.0-1.0-228.0,0,0,32,,,,,,,,,,,,,,,,,,,,,,,,,,,,,,,,,,,179.5,1.5,,
174,,size_choice,,html-keyboard-response,174,104278,0.0-1.0-230.0,0,0,32,,82.0,,,50.0,57.0,57.0,2.0,1000.0,L-L,,L,L,3.0,3.0,dishwasher,cooler,dishwasher4,cooler3,23.0,2.0,/static/Size_judgement/Stimuli/Size_stims/L/dishwasher/dishwasher5.jpg,/static/Size_judgement/Stimuli/Size_stims/L/cooler/cooler2.jpg,1.0,dishwasher,cooler,L,L,3.0,3.0,dishwasher4,cooler3,,0.0,179.582,0.082,,
175,,size_choice_confirmation,,html-keyboard-response,175,105700,0.0-1.0-231.0-0.0,0,0,32,,,,,,57.0,,,,,,,,,,,,,,,,,,,,,,,,,,,,,181.0,1.418,,
176,,iti,,html-keyboard-response,176,105805,0.0-1.0-232.0,0,0,32,,,,,,,,,,,,,,,,,,,,,,,,,,,,,,,,,,,182.0,1.0,,
177,,size_choice,,html-keyboard-response,177,106068,0.0-1.0-234.0,0,0,32,,261.0,,,50.0,58.0,58.0,2.0,3000.0,M-XL,0.0,M,XL,2.0,4.0,coffeemaker,van,coffeemaker9,van4,68.0,193.0,/static/Size_judgement/Stimuli/Size_stims/M/coffeemaker/coffeemaker7.jpg,/static/Size_judgement/Stimuli/Size_stims/XL/van/van7.jpg,1.0,coffeemaker,van,M,XL,2.0,4.0,coffeemaker9,van4,0.0,0.0,182.261,0.261,,
178,,size_choice_confirmation,,html-keyboard-response,178,107313,0.0-1.0-235.0-0.0,0,0,32,,,,,,58.0,,,,,,,,,,,,,,,,,,,,,,,,,,,,,183.5,1.239,,
179,,iti,,html-keyboard-response,179,107415,0.0-1.0-236.0,0,0,32,,,,,,,,,,,,,,,,,,,,,,,,,,,,,,,,,,,186.5,3.0,,
180,,size_choice,,html-keyboard-response,180,107765,0.0-1.0-238.0,0,0,32,,348.0,,,51.0,59.0,59.0,2.0,2000.0,M-L,0.0,M,L,2.0,3.0,coffeemaker,cooler,coffeemaker3,cooler7,62.0,6.0,/static/Size_judgement/Stimuli/Size_stims/M/coffeemaker/coffeemaker13.jpg,/static/Size_judgement/Stimuli/Size_stims/L/cooler/cooler4.jpg,0.0,cooler,coffeemaker,L,M,3.0,2.0,cooler7,coffeemaker3,1.0,0.0,186.848,0.348,,
181,,size_choice_confirmation,,html-keyboard-response,181,108922,0.0-1.0-239.0-0.0,0,0,32,,,,,,59.0,,,,,,,,,,,,,,,,,,,,,,,,,,,,,188.0,1.152,,
182,,iti,,html-keyboard-response,182,109027,0.0-1.0-240.0,0,0,32,,,,,,,,,,,,,,,,,,,,,,,,,,,,,,,,,,,190.0,2.0,,
183,,size_choice,,html-keyboard-response,183,109314,0.0-1.0-242.0,0,0,32,,286.0,,,51.0,60.0,60.0,2.0,2000.0,S-L,1.0,L,S,3.0,1.0,cooler,screws,cooler4,screws5,3.0,124.0,/static/Size_judgement/Stimuli/Size_stims/L/cooler/cooler3.jpg,/static/Size_judgement/Stimuli/Size_stims/S/screws/screws2.jpg,0.0,screws,cooler,S,L,1.0,3.0,screws5,cooler4,0.0,0.0,190.286,0.286,,
184,,size_choice_confirmation,,html-keyboard-response,184,110534,0.0-1.0-243.0-0.0,0,0,32,,,,,,60.0,,,,,,,,,,,,,,,,,,,,,,,,,,,,,191.5,1.214,,
185,,iti,,html-keyboard-response,185,110636,0.0-1.0-244.0,0,0,32,,,,,,,,,,,,,,,,,,,,,,,,,,,,,,,,,,,193.5,2.0,,
186,,size_choice,,html-keyboard-response,186,110979,0.0-1.0-246.0,0,0,32,,342.0,,,51.0,61.0,61.0,2.0,1500.0,M-XL,0.0,M,XL,2.0,4.0,handsaw,car,handsaw7,car3,86.0,152.0,/static/Size_judgement/Stimuli/Size_stims/M/handsaw/handsaw5.jpg,/static/Size_judgement/Stimuli/Size_stims/XL/car/car4.jpg,0.0,car,handsaw,XL,M,4.0,2.0,car3,handsaw7,1.0,0.0,193.842,0.342,,
187,,size_choice_confirmation,,html-keyboard-response,187,112141,0.0-1.0-247.0-0.0,0,0,32,,,,,,61.0,,,,,,,,,,,,,,,,,,,,,,,,,,,,,195.0,1.158,,
188,,iti,,html-keyboard-response,188,112245,0.0-1.0-248.0,0,0,32,,,,,,,,,,,,,,,,,,,,,,,,,,,,,,,,,,,196.5,1.5,,
189,,size_choice,,html-keyboard-response,189,112448,0.0-1.0-250.0,0,0,32,,203.0,,,50.0,62.0,62.0,2.0,1000.0,M-XL,0.0,M,XL,2.0,4.0,handsaw,tractor,handsaw1,tractor4,80.0,183.0,/static/Size_judgement/Stimuli/Size_stims/M/handsaw/handsaw8.jpg,/static/Size_judgement/Stimuli/Size_stims/XL/tractor/tractor4.jpg,1.0,handsaw,tractor,M,XL,2.0,4.0,handsaw1,tractor4,0.0,0.0,196.703,0.203,,
190,,size_choice_confirmation,,html-keyboard-response,190,113750,0.0-1.0-251.0-0.0,0,0,32,,,,,,62.0,,,,,,,,,,,,,,,,,,,,,,,,,,,,,198.0,1.297,,
191,,iti,,html-keyboard-response,191,113856,0.0-1.0-252.0,0,0,32,,,,,,,,,,,,,,,,,,,,,,,,,,,,,,,,,,,199.0,1.0,,
192,,size_choice,,html-keyboard-response,192,114280,0.0-1.0-254.0,0,0,32,,423.0,,,50.0,63.0,63.0,2.0,1500.0,S-L,1.0,L,S,3.0,1.0,dishwasher,teabag,dishwasher9,teabag7,28.0,136.0,/static/Size_judgement/Stimuli/Size_stims/L/dishwasher/dishwasher2.jpg,/static/Size_judgement/Stimuli/Size_stims/S/teabag/teabag10.jpg,1.0,dishwasher,teabag,L,S,3.0,1.0,dishwasher9,teabag7,1.0,0.0,199.423,0.423,,
193,,size_choice_confirmation,,html-keyboard-response,193,115363,0.0-1.0-255.0-0.0,0,0,32,,,,,,63.0,,,,,,,,,,,,,,,,,,,,,,,,,,,,,200.5,1.077,,
194,,iti,,html-keyboard-response,194,115468,0.0-1.0-256.0,0,0,32,,,,,,,,,,,,,,,,,,,,,,,,,,,,,,,,,,,202.0,1.5,,
195,,size_choice,,html-keyboard-response,195,115982,0.0-1.0-258.0,0,0,32,,513.0,,,50.0,64.0,64.0,2.0,3500.0,M-XL,1.0,XL,M,4.0,2.0,crane,coffeemaker,crane5,coffeemaker2,164.0,61.0,/static/Size_judgement/Stimuli/Size_stims/XL/crane/crane1.jpg,/static/Size_judgement/Stimuli/Size_stims/M/coffeemaker/coffeemaker12.jpg,1.0,crane,coffeemaker,XL,M,4.0,2.0,crane5,coffeemaker2,1.0,0.0,202.513,0.513,,
196,,size_choice_confirmation,,html-keyboard-response,196,116973,0.0-1.0-259.0-0.0,0,0,32,,,,,,64.0,,,,,,,,,,,,,,,,,,,,,,,,,,,,,203.5,0.987,,
197,,iti,,html-keyboard-response,197,117078,0.0-1.0-260.0,0,0,32,,,,,,,,,,,,,,,,,,,,,,,,,,,,,,,,,,,207.0,3.5,,
198,,size_choice,,html-keyboard-response,198,117378,0.0-1.0-262.0,0,0,32,,298.0,,,51.0,65.0,65.0,2.0,1500.0,XL-XL,,XL,XL,4.0,4.0,tractor,van,tractor9,van6,188.0,195.0,/static/Size_judgement/Stimuli/Size_stims/XL/tractor/tractor9.jpg,/static/Size_judgement/Stimuli/Size_stims/XL/van/van2.jpg,0.0,van,tractor,XL,XL,4.0,4.0,van6,tractor9,,0.0,207.298,0.298,,
199,,size_choice_confirmation,,html-keyboard-response,199,118586,0.0-1.0-263.0-0.0,0,0,32,,,,,,65.0,,,,,,,,,,,,,,,,,,,,,,,,,,,,,208.5,1.202,,
200,,iti,,html-keyboard-response,200,118689,0.0-1.0-264.0,0,0,32,,,,,,,,,,,,,,,,,,,,,,,,,,,,,,,,,,,210.0,1.5,,
201,,size_choice,,html-keyboard-response,201,118902,0.0-1.0-266.0,0,0,32,,211.0,,,51.0,66.0,66.0,2.0,2000.0,S-M,0.0,S,M,1.0,2.0,teabag,hairdryer,teabag6,hairdryer1,135.0,70.0,/static/Size_judgement/Stimuli/Size_stims/S/teabag/teabag6.jpg,/static/Size_judgement/Stimuli/Size_stims/M/hairdryer/hairdryer11.jpg,0.0,hairdryer,teabag,M,S,2.0,1.0,hairdryer1,teabag6,1.0,0.0,210.211,0.211,,
202,,size_choice_confirmation,,html-keyboard-response,202,120196,0.0-1.0-267.0-0.0,0,0,32,,,,,,66.0,,,,,,,,,,,,,,,,,,,,,,,,,,,,,211.5,1.289,,
203,,iti,,html-keyboard-response,203,120299,0.0-1.0-268.0,0,0,32,,,,,,,,,,,,,,,,,,,,,,,,,,,,,,,,,,,213.5,2.0,,
204,,size_choice,,html-keyboard-response,204,120629,0.0-1.0-270.0,0,0,32,,329.0,,,51.0,67.0,67.0,2.0,1500.0,S-L,1.0,L,S,3.0,1.0,garbagecan,die,garbagecan8,die7,37.0,106.0,/static/Size_judgement/Stimuli/Size_stims/L/garbagecan/garbagecan13.jpg,/static/Size_judgement/Stimuli/Size_stims/S/die/die4.jpg,0.0,die,garbagecan,S,L,1.0,3.0,die7,garbagecan8,0.0,0.0,213.829,0.329,,
205,,size_choice_confirmation,,html-keyboard-response,205,121806,0.0-1.0-271.0-0.0,0,0,32,,,,,,67.0,,,,,,,,,,,,,,,,,,,,,,,,,,,,,215.0,1.171,,
206,,iti,,html-keyboard-response,206,121910,0.0-1.0-272.0,0,0,32,,,,,,,,,,,,,,,,,,,,,,,,,,,,,,,,,,,216.5,1.5,,
207,,size_choice,,html-keyboard-response,207,122145,0.0-1.0-274.0,0,0,32,,234.0,,,50.0,68.0,68.0,2.0,1500.0,S-M,0.0,S,M,1.0,2.0,thread,basketball,thread1,basketball2,140.0,51.0,/static/Size_judgement/Stimuli/Size_stims/S/thread/thread7.jpg,/static/Size_judgement/Stimuli/Size_stims/M/basketball/basketball8.jpg,1.0,thread,basketball,S,M,1.0,2.0,thread1,basketball2,0.0,0.0,216.734,0.234,,
208,,size_choice_confirmation,,html-keyboard-response,208,123414,0.0-1.0-275.0-0.0,0,0,32,,,,,,68.0,,,,,,,,,,,,,,,,,,,,,,,,,,,,,218.0,1.266,,
209,,iti,,html-keyboard-response,209,123516,0.0-1.0-276.0,0,0,32,,,,,,,,,,,,,,,,,,,,,,,,,,,,,,,,,,,219.5,1.5,,
210,,size_choice,,html-keyboard-response,210,123764,0.0-1.0-278.0,0,0,32,,247.0,,,50.0,69.0,69.0,2.0,1000.0,S-L,0.0,S,L,1.0,3.0,die,dishwasher,die8,dishwasher3,107.0,22.0,/static/Size_judgement/Stimuli/Size_stims/S/die/die5.jpg,/static/Size_judgement/Stimuli/Size_stims/L/dishwasher/dishwasher8.jpg,1.0,die,dishwasher,S,L,1.0,3.0,die8,dishwasher3,0.0,0.0,219.747,0.247,,
211,,size_choice_confirmation,,html-keyboard-response,211,125022,0.0-1.0-279.0-0.0,0,0,32,,,,,,69.0,,,,,,,,,,,,,,,,,,,,,,,,,,,,,221.0,1.253,,
212,,iti,,html-keyboard-response,212,125128,0.0-1.0-280.0,0,0,32,,,,,,,,,,,,,,,,,,,,,,,,,,,,,,,,,,,222.0,1.0,,
213,,size_choice,,html-keyboard-response,213,125514,0.0-1.0-282.0,0,0,32,,385.0,,,50.0,70.0,70.0,2.0,1500.0,S-XL,1.0,XL,S,4.0,1.0,van,thread,van1,thread9,190.0,148.0,/static/Size_judgement/Stimuli/Size_stims/XL/van/van5.jpg,/static/Size_judgement/Stimuli/Size_stims/S/thread/thread8.jpg,1.0,van,thread,XL,S,4.0,1.0,van1,thread9,1.0,0.0,222.385,0.385,,
214,,size_choice_confirmation,,html-keyboard-response,214,126635,0.0-1.0-283.0-0.0,0,0,32,,,,,,70.0,,,,,,,,,,,,,,,,,,,,,,,,,,,,,223.5,1.115,,
215,,iti,,html-keyboard-response,215,126739,0.0-1.0-284.0,0,0,32,,,,,,,,,,,,,,,,,,,,,,,,,,,,,,,,,,,225.0,1.5,,
216,,size_choice,,html-keyboard-response,216,127031,0.0-1.0-286.0,0,0,32,,291.0,,,51.0,71.0,71.0,2.0,3500.0,M-L,0.0,M,L,2.0,3.0,basketball,deskchair,basketball9,deskchair2,58.0,11.0,/static/Size_judgement/Stimuli/Size_stims/M/basketball/basketball5.jpg,/static/Size_judgement/Stimuli/Size_stims/L/deskchair/deskchair8.jpg,0.0,deskchair,basketball,L,M,3.0,2.0,deskchair2,basketball9,1.0,0.0,225.291,0.291,,
217,,size_choice_confirmation,,html-keyboard-response,217,128245,0.0-1.0-287.0-0.0,0,0,32,,,,,,71.0,,,,,,,,,,,,,,,,,,,,,,,,,,,,,226.5,1.209,,
218,,iti,,html-keyboard-response,218,128348,0.0-1.0-288.0,0,0,32,,,,,,,,,,,,,,,,,,,,,,,,,,,,,,,,,,,230.0,3.5,,
219,,size_choice,,html-keyboard-response,219,128663,0.0-1.0-290.0,0,0,32,,313.0,,,50.0,72.0,72.0,2.0,1000.0,L-XL,1.0,XL,L,4.0,3.0,car,deskchair,car9,deskchair4,158.0,13.0,/static/Size_judgement/Stimuli/Size_stims/XL/car/car15.jpg,/static/Size_judgement/Stimuli/Size_stims/L/deskchair/deskchair6.jpg,1.0,car,deskchair,XL,L,4.0,3.0,car9,deskchair4,1.0,0.0,230.313,0.313,,
220,,size_choice_confirmation,,html-keyboard-response,220,129856,0.0-1.0-291.0-0.0,0,0,32,,,,,,72.0,,,,,,,,,,,,,,,,,,,,,,,,,,,,,231.5,1.187,,
221,,iti,,html-keyboard-response,221,129959,0.0-1.0-292.0,0,0,32,,,,,,,,,,,,,,,,,,,,,,,,,,,,,,,,,,,232.5,1.0,,
222,,size_choice,,html-keyboard-response,222,130237,0.0-1.0-294.0,0,0,32,,276.0,,,50.0,73.0,73.0,2.0,1500.0,M-M,,M,M,2.0,2.0,hairdryer,basketball,hairdryer3,basketball3,72.0,52.0,/static/Size_judgement/Stimuli/Size_stims/M/hairdryer/hairdryer17.jpg,/static/Size_judgement/Stimuli/Size_stims/M/basketball/basketball10.jpg,1.0,hairdryer,basketball,M,M,2.0,2.0,hairdryer3,basketball3,,0.0,232.776,0.276,,
223,,size_choice_confirmation,,html-keyboard-response,223,131465,0.0-1.0-295.0-0.0,0,0,32,,,,,,73.0,,,,,,,,,,,,,,,,,,,,,,,,,,,,,234.0,1.224,,
224,,iti,,html-keyboard-response,224,131570,0.0-1.0-296.0,0,0,32,,,,,,,,,,,,,,,,,,,,,,,,,,,,,,,,,,,235.5,1.5,,
225,,size_choice,,html-keyboard-response,225,131869,0.0-1.0-298.0,0,0,32,,298.0,,,50.0,74.0,74.0,2.0,1500.0,S-XL,0.0,S,XL,1.0,4.0,paperclip,crane,paperclip10,crane1,119.0,160.0,/static/Size_judgement/Stimuli/Size_stims/S/paperclip/paperclip10.jpg,/static/Size_judgement/Stimuli/Size_stims/XL/crane/crane7.jpg,1.0,paperclip,crane,S,XL,1.0,4.0,paperclip10,crane1,0.0,0.0,235.798,0.298,,
226,,size_choice_confirmation,,html-keyboard-response,226,133075,0.0-1.0-299.0-0.0,0,0,32,,,,,,74.0,,,,,,,,,,,,,,,,,,,,,,,,,,,,,237.0,1.202,,
227,,iti,,html-keyboard-response,227,133180,0.0-1.0-300.0,0,0,32,,,,,,,,,,,,,,,,,,,,,,,,,,,,,,,,,,,238.5,1.5,,
228,,size_choice,,html-keyboard-response,228,133502,0.0-1.0-302.0,0,0,32,,321.0,,,50.0,75.0,75.0,2.0,1000.0,M-L,1.0,L,M,3.0,2.0,cooler,ketchup,cooler5,ketchup10,4.0,99.0,/static/Size_judgement/Stimuli/Size_stims/L/cooler/cooler10.jpg,/static/Size_judgement/Stimuli/Size_stims/M/ketchup/ketchup6.jpg,1.0,cooler,ketchup,L,M,3.0,2.0,cooler5,ketchup10,1.0,0.0,238.821,0.321,,
229,,size_choice_confirmation,,html-keyboard-response,229,134687,0.0-1.0-303.0-0.0,0,0,32,,,,,,75.0,,,,,,,,,,,,,,,,,,,,,,,,,,,,,240.0,1.179,,
230,,iti,,html-keyboard-response,230,134790,0.0-1.0-304.0,0,0,32,,,,,,,,,,,,,,,,,,,,,,,,,,,,,,,,,,,241.0,1.0,,
231,,size_choice,,html-keyboard-response,231,135204,0.0-1.0-306.0,0,0,32,,412.0,,,50.0,76.0,76.0,2.0,3000.0,S-S,,S,S,1.0,1.0,screws,die,screws7,die4,126.0,103.0,/static/Size_judgement/Stimuli/Size_stims/S/screws/screws1.jpg,/static/Size_judgement/Stimuli/Size_stims/S/die/die2.jpg,1.0,screws,die,S,S,1.0,1.0,screws7,die4,,0.0,241.412,0.412,,
232,,size_choice_confirmation,,html-keyboard-response,232,136295,0.0-1.0-307.0-0.0,0,0,32,,,,,,76.0,,,,,,,,,,,,,,,,,,,,,,,,,,,,,242.5,1.088,,
233,,iti,,html-keyboard-response,233,136399,0.0-1.0-308.0,0,0,32,,,,,,,,,,,,,,,,,,,,,,,,,,,,,,,,,,,245.5,3.0,,
234,,size_choice,,html-keyboard-response,234,136864,0.0-1.0-310.0,0,0,32,,464.0,,,50.0,77.0,77.0,2.0,1000.0,L-L,,L,L,3.0,3.0,mailbox,cooler,mailbox1,cooler2,40.0,1.0,/static/Size_judgement/Stimuli/Size_stims/L/mailbox/mailbox3.jpg,/static/Size_judgement/Stimuli/Size_stims/L/cooler/cooler9.jpg,1.0,mailbox,cooler,L,L,3.0,3.0,mailbox1,cooler2,,0.0,245.964,0.464,,
235,,size_choice_confirmation,,html-keyboard-response,235,137902,0.0-1.0-311.0-0.0,0,0,32,,,,,,77.0,,,,,,,,,,,,,,,,,,,,,,,,,,,,,247.0,1.036,,
236,,iti,,html-keyboard-response,236,138007,0.0-1.0-312.0,0,0,32,,,,,,,,,,,,,,,,,,,,,,,,,,,,,,,,,,,248.0,1.0,,
237,,size_choice,,html-keyboard-response,237,138561,0.0-1.0-314.0,0,0,32,,553.0,,,50.0,78.0,78.0,2.0,1000.0,S-L,1.0,L,S,3.0,1.0,cooler,paperclip,cooler8,paperclip6,7.0,115.0,/static/Size_judgement/Stimuli/Size_stims/L/cooler/cooler5.jpg,/static/Size_judgement/Stimuli/Size_stims/S/paperclip/paperclip6.jpg,1.0,cooler,paperclip,L,S,3.0,1.0,cooler8,paperclip6,1.0,0.0,248.553,0.553,,
238,,size_choice_confirmation,,html-keyboard-response,238,139512,0.0-1.0-315.0-0.0,0,0,32,,,,,,78.0,,,,,,,,,,,,,,,,,,,,,,,,,,,,,249.5,0.947,,
239,,iti,,html-keyboard-response,239,139614,0.0-1.0-316.0,0,0,32,,,,,,,,,,,,,,,,,,,,,,,,,,,,,,,,,,,250.5,1.0,,
240,,size_choice,,html-keyboard-response,240,140053,0.0-1.0-318.0,0,0,32,,439.0,,,50.0,79.0,79.0,2.0,3000.0,S-XL,0.0,S,XL,1.0,4.0,paperclip,crane,paperclip3,crane2,112.0,161.0,/static/Size_judgement/Stimuli/Size_stims/S/paperclip/paperclip1.jpg,/static/Size_judgement/Stimuli/Size_stims/XL/crane/crane6.jpg,1.0,paperclip,crane,S,XL,1.0,4.0,paperclip3,crane2,0.0,0.0,250.939,0.439,,
241,,size_choice_confirmation,,html-keyboard-response,241,141117,0.0-1.0-319.0-0.0,0,0,32,,,,,,79.0,,,,,,,,,,,,,,,,,,,,,,,,,,,,,252.0,1.061,,
242,,iti,,html-keyboard-response,242,141217,0.0-1.0-320.0,0,0,32,,,,,,,,,,,,,,,,,,,,,,,,,,,,,,,,,,,255.0,3.0,,
243,,size_choice,,html-keyboard-response,243,141533,0.0-1.0-322.0,0,0,32,,313.0,,,51.0,80.0,80.0,2.0,1000.0,M-XL,0.0,M,XL,2.0,4.0,ketchup,van,ketchup1,van2,90.0,191.0,/static/Size_judgement/Stimuli/Size_stims/M/ketchup/ketchup8.jpg,/static/Size_judgement/Stimuli/Size_stims/XL/van/van4.jpg,0.0,van,ketchup,XL,M,4.0,2.0,van2,ketchup1,1.0,0.0,255.313,0.313,,
244,,size_choice_confirmation,,html-keyboard-response,244,142722,0.0-1.0-323.0-0.0,0,0,32,,,,,,80.0,,,,,,,,,,,,,,,,,,,,,,,,,,,,,256.5,1.187,,
245,,iti,,html-keyboard-response,245,142824,0.0-1.0-324.0,0,0,32,,,,,,,,,,,,,,,,,,,,,,,,,,,,,,,,,,,257.5,1.0,,
246,,size_choice,,html-keyboard-response,246,142870,0.0-1.0-326.0,0,0,32,,45.0,,,50.0,81.0,81.0,2.0,3000.0,M-XL,0.0,M,XL,2.0,4.0,coffeemaker,tractor,coffeemaker6,tractor3,65.0,182.0,/static/Size_judgement/Stimuli/Size_stims/M/coffeemaker/coffeemaker8.jpg,/static/Size_judgement/Stimuli/Size_stims/XL/tractor/tractor5.jpg,1.0,coffeemaker,tractor,M,XL,2.0,4.0,coffeemaker6,tractor3,0.0,0.0,257.545,0.045,,
247,,size_choice_confirmation,,html-keyboard-response,247,144330,0.0-1.0-327.0-0.0,0,0,32,,,,,,81.0,,,,,,,,,,,,,,,,,,,,,,,,,,,,,259.0,1.455,,
248,,iti,,html-keyboard-response,248,144431,0.0-1.0-328.0,0,0,32,,,,,,,,,,,,,,,,,,,,,,,,,,,,,,,,,,,262.0,3.0,,
249,,size_choice,,html-keyboard-response,249,144778,0.0-1.0-330.0,0,0,32,,346.0,,,51.0,82.0,82.0,2.0,1000.0,M-L,1.0,L,M,3.0,2.0,dishwasher,basketball,dishwasher6,basketball10,25.0,59.0,/static/Size_judgement/Stimuli/Size_stims/L/dishwasher/dishwasher6.jpg,/static/Size_judgement/Stimuli/Size_stims/M/basketball/basketball4.jpg,0.0,basketball,dishwasher,M,L,2.0,3.0,basketball10,dishwasher6,0.0,0.0,262.346,0.346,,
250,,size_choice_confirmation,,html-keyboard-response,250,145938,0.0-1.0-331.0-0.0,0,0,32,,,,,,82.0,,,,,,,,,,,,,,,,,,,,,,,,,,,,,263.5,1.154,,
251,,iti,,html-keyboard-response,251,146041,0.0-1.0-332.0,0,0,32,,,,,,,,,,,,,,,,,,,,,,,,,,,,,,,,,,,264.5,1.0,,
252,,size_choice,,html-keyboard-response,252,146652,0.0-1.0-334.0,0,0,32,,610.0,,,51.0,83.0,83.0,2.0,1000.0,M-XL,1.0,XL,M,4.0,2.0,van,hairdryer,van8,hairdryer9,197.0,78.0,/static/Size_judgement/Stimuli/Size_stims/XL/van/van10.jpg,/static/Size_judgement/Stimuli/Size_stims/M/hairdryer/hairdryer5.jpg,0.0,hairdryer,van,M,XL,2.0,4.0,hairdryer9,van8,0.0,0.0,265.11,0.61,,
253,,size_choice_confirmation,,html-keyboard-response,253,147549,0.0-1.0-335.0-0.0,0,0,32,,,,,,83.0,,,,,,,,,,,,,,,,,,,,,,,,,,,,,266.0,0.89,,
254,,iti,,html-keyboard-response,254,147650,0.0-1.0-336.0,0,0,32,,,,,,,,,,,,,,,,,,,,,,,,,,,,,,,,,,,267.0,1.0,,
255,,size_choice,,html-keyboard-response,255,148021,0.0-1.0-338.0,0,0,32,,370.0,,,51.0,84.0,84.0,2.0,1000.0,XL-XL,,XL,XL,4.0,4.0,tractor,dumptruck,tractor5,dumptruck3,184.0,172.0,/static/Size_judgement/Stimuli/Size_stims/XL/tractor/tractor1.jpg,/static/Size_judgement/Stimuli/Size_stims/XL/dumptruck/dumptruck10.jpg,0.0,dumptruck,tractor,XL,XL,4.0,4.0,dumptruck3,tractor5,,0.0,267.37,0.37,,
256,,size_choice_confirmation,,html-keyboard-response,256,149156,0.0-1.0-339.0-0.0,0,0,32,,,,,,84.0,,,,,,,,,,,,,,,,,,,,,,,,,,,,,268.5,1.13,,
257,,iti,,html-keyboard-response,257,149261,0.0-1.0-340.0,0,0,32,,,,,,,,,,,,,,,,,,,,,,,,,,,,,,,,,,,269.5,1.0,,
258,,size_choice,,html-keyboard-response,258,149665,0.0-1.0-342.0,0,0,32,,403.0,,,51.0,85.0,85.0,2.0,1000.0,M-L,1.0,L,M,3.0,2.0,mailbox,basketball,mailbox7,basketball1,46.0,50.0,/static/Size_judgement/Stimuli/Size_stims/L/mailbox/mailbox7.jpg,/static/Size_judgement/Stimuli/Size_stims/M/basketball/basketball9.jpg,0.0,basketball,mailbox,M,L,2.0,3.0,basketball1,mailbox7,0.0,0.0,269.903,0.403,,
259,,size_choice_confirmation,,html-keyboard-response,259,150766,0.0-1.0-343.0-0.0,0,0,32,,,,,,85.0,,,,,,,,,,,,,,,,,,,,,,,,,,,,,271.0,1.097,,
260,,iti,,html-keyboard-response,260,150869,0.0-1.0-344.0,0,0,32,,,,,,,,,,,,,,,,,,,,,,,,,,,,,,,,,,,272.0,1.0,,
261,,size_choice,,html-keyboard-response,261,150870,0.0-1.0-346.0,0,0,32,,0.0,,,51.0,86.0,86.0,2.0,1500.0,S-XL,1.0,XL,S,4.0,1.0,dumptruck,screws,dumptruck6,screws8,175.0,127.0,/static/Size_judgement/Stimuli/Size_stims/XL/dumptruck/dumptruck2.jpg,/static/Size_judgement/Stimuli/Size_stims/S/screws/screws10.jpg,0.0,screws,dumptruck,S,XL,1.0,4.0,screws8,dumptruck6,0.0,0.0,272.0,0.0,,
262,,size_choice_confirmation,,html-keyboard-response,262,152376,0.0-1.0-347.0-0.0,0,0,32,,,,,,86.0,,,,,,,,,,,,,,,,,,,,,,,,,,,,,273.5,1.5,,
263,,iti,,html-keyboard-response,263,152480,0.0-1.0-348.0,0,0,32,,,,,,,,,,,,,,,,,,,,,,,,,,,,,,,,,,,275.0,1.5,,
264,,size_choice,,html-keyboard-response,264,153022,0.0-1.0-350.0,0,0,32,,541.0,,,51.0,87.0,87.0,2.0,1500.0,L-XL,1.0,XL,L,4.0,3.0,car,deskchair,car7,deskchair8,156.0,17.0,/static/Size_judgement/Stimuli/Size_stims/XL/car/car13.jpg,/static/Size_judgement/Stimuli/Size_stims/L/deskchair/deskchair1.jpg,0.0,deskchair,car,L,XL,3.0,4.0,deskchair8,car7,0.0,0.0,275.541,0.541,,
265,,size_choice_confirmation,,html-keyboard-response,265,153986,0.0-1.0-351.0-0.0,0,0,32,,,,,,87.0,,,,,,,,,,,,,,,,,,,,,,,,,,,,,276.5,0.959,,
266,,iti,,html-keyboard-response,266,154089,0.0-1.0-352.0,0,0,32,,,,,,,,,,,,,,,,,,,,,,,,,,,,,,,,,,,278.0,1.5,,
267,,size_choice,,html-keyboard-response,267,154413,0.0-1.0-354.0,0,0,32,,322.0,,,50.0,88.0,88.0,2.0,1000.0,M-L,1.0,L,M,3.0,2.0,garbagecan,hairdryer,garbagecan10,hairdryer7,39.0,76.0,/static/Size_judgement/Stimuli/Size_stims/L/garbagecan/garbagecan11.jpg,/static/Size_judgement/Stimuli/Size_stims/M/hairdryer/hairdryer3.jpg,1.0,garbagecan,hairdryer,L,M,3.0,2.0,garbagecan10,hairdryer7,1.0,0.0,278.322,0.322,,
268,,size_choice_confirmation,,html-keyboard-response,268,155597,0.0-1.0-355.0-0.0,0,0,32,,,,,,88.0,,,,,,,,,,,,,,,,,,,,,,,,,,,,,279.5,1.178,,
269,,iti,,html-keyboard-response,269,155700,0.0-1.0-356.0,0,0,32,,,,,,,,,,,,,,,,,,,,,,,,,,,,,,,,,,,280.5,1.0,,
270,,size_choice,,html-keyboard-response,270,156099,0.0-1.0-358.0,0,0,32,,398.0,,,50.0,89.0,89.0,2.0,2000.0,M-XL,0.0,M,XL,2.0,4.0,handsaw,car,handsaw5,car10,84.0,159.0,/static/Size_judgement/Stimuli/Size_stims/M/handsaw/handsaw1.jpg,/static/Size_judgement/Stimuli/Size_stims/XL/car/car9.jpg,1.0,handsaw,car,M,XL,2.0,4.0,handsaw5,car10,0.0,0.0,280.898,0.398,,
271,,size_choice_confirmation,,html-keyboard-response,271,157206,0.0-1.0-359.0-0.0,0,0,32,,,,,,89.0,,,,,,,,,,,,,,,,,,,,,,,,,,,,,282.0,1.102,,
272,,iti,,html-keyboard-response,272,157312,0.0-1.0-360.0,0,0,32,,,,,,,,,,,,,,,,,,,,,,,,,,,,,,,,,,,284.0,2.0,,0.97
273,,size_final_tally,,html-keyboard-response,273,1184497,0.0-2.0,0,0,32,,1027182.0,,,50.0,,,,,,,,,,,,,,,,,,,,,,,,,,,,,,,,,
