,success,ttype,start_time,trial_type,trial_index,time_elapsed,internal_node_id,warning,missed_checkup,PID,view_history,rt,responses,repeat_instructions,key_press,index,trial_num,block,iti,pair_type,high_size_on_left,left_size_group,right_size_group,left_size_num,right_size_num,left_category,right_category,left_exemplar,right_exemplar,left_index,right_index,left_img_path,right_img_path,left_chosen,chosen_category,unchosen_category,chosen_size_group,unchosen_size_group,chosen_size_num,unchosen_size_num,chosen_exemplar,unchosen_exemplar,accuracy,no_response,onset,duration,size_final_tally
0,True,full_screen,d05202022hr1651,fullscreen,0,2222,0.0-0.0,0,0,1,,,,,,,,,,,,,,,,,,,,,,,,,,,,,,,,,,,,,
1,,size_instructions,,instructions,1,14139,0.0-1.0-0.0-0.0,0,0,1,"[{""page_index"":0,""viewing_time"":1276},{""page_index"":1,""viewing_time"":167},{""page_index"":2,""viewing_time"":179},{""page_index"":3,""viewing_time"":753},{""page_index"":4,""viewing_time"":1023},{""page_index"":5,""viewing_time"":8518}]",11916.0,,,,,,,,,,,,,,,,,,,,,,,,,,,,,,,,,,,
2,,size_comprehension_check,,survey-multi-choice,2,19144,0.0-1.0-0.0-1.0,0,0,1,,5002.0,"{""Q0"":""True"",""Q1"":""Size on the screen"",""Q2"":""True"",""Q3"":""pointer finger for left and middle finger for right""}",1.0,,,,,,,,,,,,,,,,,,,,,,,,,,,,,,,,,
3,,,,html-keyboard-response,3,20097,0.0-1.0-1.0,0,0,1,,951.0,,,50.0,,,,,,,,,,,,,,,,,,,,,,,,,,,,,,,,
4,,size_choice,,html-keyboard-response,4,20781,0.0-1.0-2.0,0,0,1,,683.0,,,50.0,0.0,0.0,1.0,1500.0,S-M,1.0,M,S,2.0,1.0,hairdryer,paperclip,hairdryer8,paperclip1,77.0,110.0,/static/Size_judgement/Stimuli/Size_stims/M/hairdryer/hairdryer1.jpg,/static/Size_judgement/Stimuli/Size_stims/S/paperclip/paperclip9.jpg,1.0,hairdryer,paperclip,M,S,2.0,1.0,hairdryer8,paperclip1,1.0,0.0,0.6829999999999999,0.6829999999999999,
5,,size_choice_confirmation,,html-keyboard-response,5,21604,0.0-1.0-3.0-0.0,0,0,1,,,,,,0.0,,,,,,,,,,,,,,,,,,,,,,,,,,,,,1.5,0.8170000000000001,
6,,iti,,html-keyboard-response,6,21705,0.0-1.0-4.0,0,0,1,,,,,,,,,,,,,,,,,,,,,,,,,,,,,,,,,,,3.0,1.5,
7,,size_choice,,html-keyboard-response,7,22338,0.0-1.0-6.0,0,0,1,,631.0,,,51.0,1.0,1.0,1.0,1000.0,S-XL,0.0,S,XL,1.0,4.0,die,van,die5,van5,104.0,194.0,/static/Size_judgement/Stimuli/Size_stims/S/die/die3.jpg,/static/Size_judgement/Stimuli/Size_stims/XL/van/van3.jpg,0.0,van,die,XL,S,4.0,1.0,van5,die5,1.0,0.0,3.631,0.631,
8,,size_choice_confirmation,,html-keyboard-response,8,23210,0.0-1.0-7.0-0.0,0,0,1,,,,,,1.0,,,,,,,,,,,,,,,,,,,,,,,,,,,,,4.5,0.8690000000000001,
9,,iti,,html-keyboard-response,9,23312,0.0-1.0-8.0,0,0,1,,,,,,,,,,,,,,,,,,,,,,,,,,,,,,,,,,,5.5,1.0,
10,,size_choice,,html-keyboard-response,10,24091,0.0-1.0-10.0,0,0,1,,779.0,,,50.0,2.0,2.0,1.0,1000.0,S-L,1.0,L,S,3.0,1.0,dishwasher,thread,dishwasher8,thread1,27.0,140.0,/static/Size_judgement/Stimuli/Size_stims/L/dishwasher/dishwasher3.jpg,/static/Size_judgement/Stimuli/Size_stims/S/thread/thread7.jpg,1.0,dishwasher,thread,L,S,3.0,1.0,dishwasher8,thread1,1.0,0.0,6.279,0.779,
11,,size_choice_confirmation,,html-keyboard-response,11,24819,0.0-1.0-11.0-0.0,0,0,1,,,,,,2.0,,,,,,,,,,,,,,,,,,,,,,,,,,,,,7.0,0.721,
12,,iti,,html-keyboard-response,12,24923,0.0-1.0-12.0,0,0,1,,,,,,,,,,,,,,,,,,,,,,,,,,,,,,,,,,,8.0,1.0,
13,,size_choice,,html-keyboard-response,13,25659,0.0-1.0-14.0,0,0,1,,735.0,,,50.0,3.0,3.0,1.0,1500.0,M-XL,1.0,XL,M,4.0,2.0,van,basketball,van4,basketball9,193.0,58.0,/static/Size_judgement/Stimuli/Size_stims/XL/van/van7.jpg,/static/Size_judgement/Stimuli/Size_stims/M/basketball/basketball5.jpg,1.0,van,basketball,XL,M,4.0,2.0,van4,basketball9,1.0,0.0,8.735,0.735,
14,,size_choice_confirmation,,html-keyboard-response,14,26430,0.0-1.0-15.0-0.0,0,0,1,,,,,,3.0,,,,,,,,,,,,,,,,,,,,,,,,,,,,,9.5,0.765,
15,,iti,,html-keyboard-response,15,26536,0.0-1.0-16.0,0,0,1,,,,,,,,,,,,,,,,,,,,,,,,,,,,,,,,,,,11.0,1.5,
16,,size_choice,,html-keyboard-response,16,27126,0.0-1.0-18.0,0,0,1,,590.0,,,50.0,4.0,4.0,1.0,1500.0,M-XL,1.0,XL,M,4.0,2.0,crane,handsaw,crane4,handsaw4,163.0,83.0,/static/Size_judgement/Stimuli/Size_stims/XL/crane/crane5.jpg,/static/Size_judgement/Stimuli/Size_stims/M/handsaw/handsaw3.jpg,1.0,crane,handsaw,XL,M,4.0,2.0,crane4,handsaw4,1.0,0.0,11.59,0.59,
17,,size_choice_confirmation,,html-keyboard-response,17,28042,0.0-1.0-19.0-0.0,0,0,1,,,,,,4.0,,,,,,,,,,,,,,,,,,,,,,,,,,,,,12.5,0.91,
18,,iti,,html-keyboard-response,18,28143,0.0-1.0-20.0,0,0,1,,,,,,,,,,,,,,,,,,,,,,,,,,,,,,,,,,,14.0,1.5,
19,,size_choice,,html-keyboard-response,19,29014,0.0-1.0-22.0,0,0,1,,871.0,,,50.0,5.0,5.0,1.0,1000.0,M-L,1.0,L,M,3.0,2.0,deskchair,handsaw,deskchair9,handsaw9,18.0,88.0,/static/Size_judgement/Stimuli/Size_stims/L/deskchair/deskchair3.jpg,/static/Size_judgement/Stimuli/Size_stims/M/handsaw/handsaw6.jpg,1.0,deskchair,handsaw,L,M,3.0,2.0,deskchair9,handsaw9,1.0,0.0,14.870999999999999,0.871,
20,,size_choice_confirmation,,html-keyboard-response,20,29647,0.0-1.0-23.0-0.0,0,0,1,,,,,,5.0,,,,,,,,,,,,,,,,,,,,,,,,,,,,,15.5,0.629,
21,,iti,,html-keyboard-response,21,29748,0.0-1.0-24.0,0,0,1,,,,,,,,,,,,,,,,,,,,,,,,,,,,,,,,,,,16.5,1.0,
22,,size_choice,,html-keyboard-response,22,30806,0.0-1.0-26.0,0,0,1,,1058.0,,,51.0,6.0,6.0,1.0,1500.0,M-L,0.0,M,L,2.0,3.0,coffeemaker,mailbox,coffeemaker7,mailbox7,66.0,46.0,/static/Size_judgement/Stimuli/Size_stims/M/coffeemaker/coffeemaker9.jpg,/static/Size_judgement/Stimuli/Size_stims/L/mailbox/mailbox7.jpg,0.0,mailbox,coffeemaker,L,M,3.0,2.0,mailbox7,coffeemaker7,1.0,0.0,17.558,1.058,
23,,size_choice_confirmation,,html-keyboard-response,23,31249,0.0-1.0-27.0-0.0,0,0,1,,,,,,6.0,,,,,,,,,,,,,,,,,,,,,,,,,,,,,18.0,0.442,
24,,iti,,html-keyboard-response,24,31354,0.0-1.0-28.0,0,0,1,,,,,,,,,,,,,,,,,,,,,,,,,,,,,,,,,,,19.5,1.5,
25,,size_choice,,html-keyboard-response,25,32198,0.0-1.0-30.0,0,0,1,,844.0,,,50.0,7.0,7.0,1.0,1500.0,M-L,1.0,L,M,3.0,2.0,deskchair,ketchup,deskchair10,ketchup3,19.0,92.0,/static/Size_judgement/Stimuli/Size_stims/L/deskchair/deskchair2.jpg,/static/Size_judgement/Stimuli/Size_stims/M/ketchup/ketchup10.jpg,1.0,deskchair,ketchup,L,M,3.0,2.0,deskchair10,ketchup3,1.0,0.0,20.344,0.8440000000000001,
26,,size_choice_confirmation,,html-keyboard-response,26,32859,0.0-1.0-31.0-0.0,0,0,1,,,,,,7.0,,,,,,,,,,,,,,,,,,,,,,,,,,,,,21.0,0.6559999999999999,
27,,iti,,html-keyboard-response,27,32963,0.0-1.0-32.0,0,0,1,,,,,,,,,,,,,,,,,,,,,,,,,,,,,,,,,,,22.5,1.5,
28,,size_choice,,html-keyboard-response,28,33603,0.0-1.0-34.0,0,0,1,,638.0,,,50.0,8.0,8.0,1.0,2000.0,S-L,1.0,L,S,3.0,1.0,cooler,paperclip,cooler8,paperclip3,7.0,112.0,/static/Size_judgement/Stimuli/Size_stims/L/cooler/cooler5.jpg,/static/Size_judgement/Stimuli/Size_stims/S/paperclip/paperclip1.jpg,1.0,cooler,paperclip,L,S,3.0,1.0,cooler8,paperclip3,1.0,0.0,23.138,0.638,
29,,size_choice_confirmation,,html-keyboard-response,29,34466,0.0-1.0-35.0-0.0,0,0,1,,,,,,8.0,,,,,,,,,,,,,,,,,,,,,,,,,,,,,24.0,0.862,
30,,iti,,html-keyboard-response,30,34571,0.0-1.0-36.0,0,0,1,,,,,,,,,,,,,,,,,,,,,,,,,,,,,,,,,,,26.0,2.0,
31,,size_choice,,html-keyboard-response,31,35208,0.0-1.0-38.0,0,0,1,,636.0,,,51.0,9.0,9.0,1.0,1500.0,M-L,0.0,M,L,2.0,3.0,basketball,garbagecan,basketball10,garbagecan5,59.0,34.0,/static/Size_judgement/Stimuli/Size_stims/M/basketball/basketball4.jpg,/static/Size_judgement/Stimuli/Size_stims/L/garbagecan/garbagecan3.jpg,0.0,garbagecan,basketball,L,M,3.0,2.0,garbagecan5,basketball10,1.0,0.0,26.636,0.636,
32,,size_choice_confirmation,,html-keyboard-response,32,36076,0.0-1.0-39.0-0.0,0,0,1,,,,,,9.0,,,,,,,,,,,,,,,,,,,,,,,,,,,,,27.5,0.8640000000000001,
33,,iti,,html-keyboard-response,33,36177,0.0-1.0-40.0,0,0,1,,,,,,,,,,,,,,,,,,,,,,,,,,,,,,,,,,,29.0,1.5,
34,,size_choice,,html-keyboard-response,34,36819,0.0-1.0-42.0,0,0,1,,641.0,,,50.0,10.0,10.0,1.0,2000.0,S-L,1.0,L,S,3.0,1.0,dishwasher,teabag,dishwasher1,teabag5,20.0,134.0,/static/Size_judgement/Stimuli/Size_stims/L/dishwasher/dishwasher10.jpg,/static/Size_judgement/Stimuli/Size_stims/S/teabag/teabag2.jpg,1.0,dishwasher,teabag,L,S,3.0,1.0,dishwasher1,teabag5,1.0,0.0,29.641,0.6409999999999999,
35,,size_choice_confirmation,,html-keyboard-response,35,37680,0.0-1.0-43.0-0.0,0,0,1,,,,,,10.0,,,,,,,,,,,,,,,,,,,,,,,,,,,,,30.5,0.8590000000000001,
36,,iti,,html-keyboard-response,36,37782,0.0-1.0-44.0,0,0,1,,,,,,,,,,,,,,,,,,,,,,,,,,,,,,,,,,,32.5,2.0,
37,,size_choice,,html-keyboard-response,37,38895,0.0-1.0-46.0,0,0,1,,1112.0,,,51.0,11.0,11.0,1.0,1000.0,S-S,,S,S,1.0,1.0,thread,die,thread10,die4,149.0,103.0,/static/Size_judgement/Stimuli/Size_stims/S/thread/thread9.jpg,/static/Size_judgement/Stimuli/Size_stims/S/die/die2.jpg,0.0,die,thread,S,S,1.0,1.0,die4,thread10,,0.0,33.611999999999995,1.112,
38,,size_choice_confirmation,,html-keyboard-response,38,39286,0.0-1.0-47.0-0.0,0,0,1,,,,,,11.0,,,,,,,,,,,,,,,,,,,,,,,,,,,,,34.0,0.38799999999999996,
39,,iti,,html-keyboard-response,39,39387,0.0-1.0-48.0,0,0,1,,,,,,,,,,,,,,,,,,,,,,,,,,,,,,,,,,,35.0,1.0,
40,,size_choice,,html-keyboard-response,40,40209,0.0-1.0-50.0,0,0,1,,821.0,,,51.0,12.0,12.0,1.0,1000.0,S-XL,0.0,S,XL,1.0,4.0,teabag,crane,teabag6,crane6,135.0,165.0,/static/Size_judgement/Stimuli/Size_stims/S/teabag/teabag6.jpg,/static/Size_judgement/Stimuli/Size_stims/XL/crane/crane2.jpg,0.0,crane,teabag,XL,S,4.0,1.0,crane6,teabag6,1.0,0.0,35.821,0.821,
41,,size_choice_confirmation,,html-keyboard-response,41,40892,0.0-1.0-51.0-0.0,0,0,1,,,,,,12.0,,,,,,,,,,,,,,,,,,,,,,,,,,,,,36.5,0.679,
42,,iti,,html-keyboard-response,42,40996,0.0-1.0-52.0,0,0,1,,,,,,,,,,,,,,,,,,,,,,,,,,,,,,,,,,,37.5,1.0,
43,,size_choice,,html-keyboard-response,43,41894,0.0-1.0-54.0,0,0,1,,896.0,,,51.0,13.0,13.0,1.0,1500.0,S-M,0.0,S,M,1.0,2.0,paperclip,ketchup,paperclip2,ketchup7,111.0,96.0,/static/Size_judgement/Stimuli/Size_stims/S/paperclip/paperclip8.jpg,/static/Size_judgement/Stimuli/Size_stims/M/ketchup/ketchup4.jpg,0.0,ketchup,paperclip,M,S,2.0,1.0,ketchup7,paperclip2,1.0,0.0,38.396,0.8959999999999999,
44,,size_choice_confirmation,,html-keyboard-response,44,42504,0.0-1.0-55.0-0.0,0,0,1,,,,,,13.0,,,,,,,,,,,,,,,,,,,,,,,,,,,,,39.0,0.604,
45,,iti,,html-keyboard-response,45,42610,0.0-1.0-56.0,0,0,1,,,,,,,,,,,,,,,,,,,,,,,,,,,,,,,,,,,40.5,1.5,
46,,size_choice,,html-keyboard-response,46,43310,0.0-1.0-58.0,0,0,1,,700.0,,,51.0,14.0,14.0,1.0,2000.0,S-L,0.0,S,L,1.0,3.0,thread,garbagecan,thread6,garbagecan8,145.0,37.0,/static/Size_judgement/Stimuli/Size_stims/S/thread/thread2.jpg,/static/Size_judgement/Stimuli/Size_stims/L/garbagecan/garbagecan13.jpg,0.0,garbagecan,thread,L,S,3.0,1.0,garbagecan8,thread6,1.0,0.0,41.2,0.7,
47,,size_choice_confirmation,,html-keyboard-response,47,44114,0.0-1.0-59.0-0.0,0,0,1,,,,,,14.0,,,,,,,,,,,,,,,,,,,,,,,,,,,,,42.0,0.8,
48,,iti,,html-keyboard-response,48,44215,0.0-1.0-60.0,0,0,1,,,,,,,,,,,,,,,,,,,,,,,,,,,,,,,,,,,44.0,2.0,
49,,size_choice,,html-keyboard-response,49,44880,0.0-1.0-62.0,0,0,1,,665.0,,,51.0,15.0,15.0,1.0,1000.0,S-L,0.0,S,L,1.0,3.0,screws,dishwasher,screws4,dishwasher2,123.0,21.0,/static/Size_judgement/Stimuli/Size_stims/S/screws/screws6.jpg,/static/Size_judgement/Stimuli/Size_stims/L/dishwasher/dishwasher9.jpg,0.0,dishwasher,screws,L,S,3.0,1.0,dishwasher2,screws4,1.0,0.0,44.665,0.665,
50,,size_choice_confirmation,,html-keyboard-response,50,45716,0.0-1.0-63.0-0.0,0,0,1,,,,,,15.0,,,,,,,,,,,,,,,,,,,,,,,,,,,,,45.5,0.835,
51,,iti,,html-keyboard-response,51,45821,0.0-1.0-64.0,0,0,1,,,,,,,,,,,,,,,,,,,,,,,,,,,,,,,,,,,46.5,1.0,
52,,size_choice,,html-keyboard-response,52,46509,0.0-1.0-66.0,0,0,1,,687.0,,,50.0,16.0,16.0,1.0,3000.0,XL-XL,,XL,XL,4.0,4.0,dumptruck,crane,dumptruck9,crane9,178.0,168.0,/static/Size_judgement/Stimuli/Size_stims/XL/dumptruck/dumptruck5.jpg,/static/Size_judgement/Stimuli/Size_stims/XL/crane/crane8.jpg,1.0,dumptruck,crane,XL,XL,4.0,4.0,dumptruck9,crane9,,0.0,47.187,0.687,
53,,size_choice_confirmation,,html-keyboard-response,53,47326,0.0-1.0-67.0-0.0,0,0,1,,,,,,16.0,,,,,,,,,,,,,,,,,,,,,,,,,,,,,48.0,0.813,
54,,iti,,html-keyboard-response,54,47428,0.0-1.0-68.0,0,0,1,,,,,,,,,,,,,,,,,,,,,,,,,,,,,,,,,,,51.0,3.0,
55,,size_choice,,html-keyboard-response,55,48510,0.0-1.0-70.0,0,0,1,,1082.0,,,51.0,17.0,17.0,1.0,1000.0,L-L,,L,L,3.0,3.0,deskchair,mailbox,deskchair2,mailbox5,11.0,44.0,/static/Size_judgement/Stimuli/Size_stims/L/deskchair/deskchair8.jpg,/static/Size_judgement/Stimuli/Size_stims/L/mailbox/mailbox4.jpg,0.0,mailbox,deskchair,L,L,3.0,3.0,mailbox5,deskchair2,,0.0,52.082,1.082,
56,,size_choice_confirmation,,html-keyboard-response,56,48930,0.0-1.0-71.0-0.0,0,0,1,,,,,,17.0,,,,,,,,,,,,,,,,,,,,,,,,,,,,,52.5,0.418,
57,,iti,,html-keyboard-response,57,49031,0.0-1.0-72.0,0,0,1,,,,,,,,,,,,,,,,,,,,,,,,,,,,,,,,,,,53.5,1.0,
58,,size_choice,,html-keyboard-response,58,49982,0.0-1.0-74.0,0,0,1,,951.0,,,50.0,18.0,18.0,1.0,3000.0,M-XL,1.0,XL,M,4.0,2.0,van,coffeemaker,van2,coffeemaker8,191.0,67.0,/static/Size_judgement/Stimuli/Size_stims/XL/van/van4.jpg,/static/Size_judgement/Stimuli/Size_stims/M/coffeemaker/coffeemaker5.jpg,1.0,van,coffeemaker,XL,M,4.0,2.0,van2,coffeemaker8,1.0,0.0,54.451,0.951,
59,,size_choice_confirmation,,html-keyboard-response,59,50537,0.0-1.0-75.0-0.0,0,0,1,,,,,,18.0,,,,,,,,,,,,,,,,,,,,,,,,,,,,,55.0,0.5489999999999999,
60,,iti,,html-keyboard-response,60,50642,0.0-1.0-76.0,0,0,1,,,,,,,,,,,,,,,,,,,,,,,,,,,,,,,,,,,58.0,3.0,
61,,size_choice,,html-keyboard-response,61,51316,0.0-1.0-78.0,0,0,1,,673.0,,,50.0,19.0,19.0,1.0,1000.0,M-XL,1.0,XL,M,4.0,2.0,tractor,handsaw,tractor6,handsaw1,185.0,80.0,/static/Size_judgement/Stimuli/Size_stims/XL/tractor/tractor3.jpg,/static/Size_judgement/Stimuli/Size_stims/M/handsaw/handsaw8.jpg,1.0,tractor,handsaw,XL,M,4.0,2.0,tractor6,handsaw1,1.0,0.0,58.673,0.6729999999999999,
62,,size_choice_confirmation,,html-keyboard-response,62,52144,0.0-1.0-79.0-0.0,0,0,1,,,,,,19.0,,,,,,,,,,,,,,,,,,,,,,,,,,,,,59.5,0.8270000000000001,
63,,iti,,html-keyboard-response,63,52248,0.0-1.0-80.0,0,0,1,,,,,,,,,,,,,,,,,,,,,,,,,,,,,,,,,,,60.5,1.0,
64,,size_choice,,html-keyboard-response,64,53059,0.0-1.0-82.0,0,0,1,,810.0,,,51.0,20.0,20.0,1.0,1000.0,M-XL,0.0,M,XL,2.0,4.0,hairdryer,van,hairdryer9,van1,78.0,190.0,/static/Size_judgement/Stimuli/Size_stims/M/hairdryer/hairdryer5.jpg,/static/Size_judgement/Stimuli/Size_stims/XL/van/van5.jpg,0.0,van,hairdryer,XL,M,4.0,2.0,van1,hairdryer9,1.0,0.0,61.31,0.81,
65,,size_choice_confirmation,,html-keyboard-response,65,53750,0.0-1.0-83.0-0.0,0,0,1,,,,,,20.0,,,,,,,,,,,,,,,,,,,,,,,,,,,,,62.0,0.69,
66,,iti,,html-keyboard-response,66,53855,0.0-1.0-84.0,0,0,1,,,,,,,,,,,,,,,,,,,,,,,,,,,,,,,,,,,63.0,1.0,
67,,size_choice,,html-keyboard-response,67,54488,0.0-1.0-86.0,0,0,1,,632.0,,,51.0,21.0,21.0,1.0,1000.0,S-M,0.0,S,M,1.0,2.0,die,hairdryer,die6,hairdryer4,105.0,73.0,/static/Size_judgement/Stimuli/Size_stims/S/die/die1.jpg,/static/Size_judgement/Stimuli/Size_stims/M/hairdryer/hairdryer16.jpg,0.0,hairdryer,die,M,S,2.0,1.0,hairdryer4,die6,1.0,0.0,63.632,0.632,
68,,size_choice_confirmation,,html-keyboard-response,68,55362,0.0-1.0-87.0-0.0,0,0,1,,,,,,21.0,,,,,,,,,,,,,,,,,,,,,,,,,,,,,64.5,0.868,
69,,iti,,html-keyboard-response,69,55467,0.0-1.0-88.0,0,0,1,,,,,,,,,,,,,,,,,,,,,,,,,,,,,,,,,,,65.5,1.0,
70,,size_choice,,html-keyboard-response,70,56141,0.0-1.0-90.0,0,0,1,,673.0,,,50.0,22.0,22.0,1.0,1000.0,S-L,1.0,L,S,3.0,1.0,mailbox,teabag,mailbox3,teabag8,42.0,137.0,/static/Size_judgement/Stimuli/Size_stims/L/mailbox/mailbox1.jpg,/static/Size_judgement/Stimuli/Size_stims/S/teabag/teabag7.jpg,1.0,mailbox,teabag,L,S,3.0,1.0,mailbox3,teabag8,1.0,0.0,66.173,0.6729999999999999,
71,,size_choice_confirmation,,html-keyboard-response,71,56972,0.0-1.0-91.0-0.0,0,0,1,,,,,,22.0,,,,,,,,,,,,,,,,,,,,,,,,,,,,,67.0,0.8270000000000001,
72,,iti,,html-keyboard-response,72,57074,0.0-1.0-92.0,0,0,1,,,,,,,,,,,,,,,,,,,,,,,,,,,,,,,,,,,68.0,1.0,
73,,size_choice,,html-keyboard-response,73,57949,0.0-1.0-94.0,0,0,1,,874.0,,,50.0,23.0,23.0,1.0,1500.0,M-XL,1.0,XL,M,4.0,2.0,tractor,basketball,tractor4,basketball4,183.0,53.0,/static/Size_judgement/Stimuli/Size_stims/XL/tractor/tractor4.jpg,/static/Size_judgement/Stimuli/Size_stims/M/basketball/basketball1.jpg,1.0,tractor,basketball,XL,M,4.0,2.0,tractor4,basketball4,1.0,0.0,68.874,0.8740000000000001,
74,,size_choice_confirmation,,html-keyboard-response,74,58576,0.0-1.0-95.0-0.0,0,0,1,,,,,,23.0,,,,,,,,,,,,,,,,,,,,,,,,,,,,,69.5,0.626,
75,,iti,,html-keyboard-response,75,58679,0.0-1.0-96.0,0,0,1,,,,,,,,,,,,,,,,,,,,,,,,,,,,,,,,,,,71.0,1.5,
76,,size_choice,,html-keyboard-response,76,59757,0.0-1.0-98.0,0,0,1,,1078.0,,,50.0,24.0,24.0,1.0,2000.0,S-XL,1.0,XL,S,4.0,1.0,dumptruck,die,dumptruck6,die8,175.0,107.0,/static/Size_judgement/Stimuli/Size_stims/XL/dumptruck/dumptruck2.jpg,/static/Size_judgement/Stimuli/Size_stims/S/die/die5.jpg,1.0,dumptruck,die,XL,S,4.0,1.0,dumptruck6,die8,1.0,0.0,72.078,1.078,
77,,size_choice_confirmation,,html-keyboard-response,77,60181,0.0-1.0-99.0-0.0,0,0,1,,,,,,24.0,,,,,,,,,,,,,,,,,,,,,,,,,,,,,72.5,0.42200000000000004,
78,,iti,,html-keyboard-response,78,60284,0.0-1.0-100.0,0,0,1,,,,,,,,,,,,,,,,,,,,,,,,,,,,,,,,,,,74.5,2.0,
79,,size_choice,,html-keyboard-response,79,60956,0.0-1.0-102.0,0,0,1,,671.0,,,50.0,25.0,25.0,1.0,1000.0,S-XL,1.0,XL,S,4.0,1.0,van,die,van10,die10,199.0,109.0,/static/Size_judgement/Stimuli/Size_stims/XL/van/van8.jpg,/static/Size_judgement/Stimuli/Size_stims/S/die/die6.jpg,1.0,van,die,XL,S,4.0,1.0,van10,die10,1.0,0.0,75.171,0.6709999999999999,
80,,size_choice_confirmation,,html-keyboard-response,80,61790,0.0-1.0-103.0-0.0,0,0,1,,,,,,25.0,,,,,,,,,,,,,,,,,,,,,,,,,,,,,76.0,0.8290000000000001,
81,,iti,,html-keyboard-response,81,61893,0.0-1.0-104.0,0,0,1,,,,,,,,,,,,,,,,,,,,,,,,,,,,,,,,,,,77.0,1.0,
82,,size_choice,,html-keyboard-response,82,62998,0.0-1.0-106.0,0,0,1,,1104.0,,,51.0,26.0,26.0,1.0,2000.0,M-M,,M,M,2.0,2.0,coffeemaker,hairdryer,coffeemaker5,hairdryer1,64.0,70.0,/static/Size_judgement/Stimuli/Size_stims/M/coffeemaker/coffeemaker10.jpg,/static/Size_judgement/Stimuli/Size_stims/M/hairdryer/hairdryer11.jpg,0.0,hairdryer,coffeemaker,M,M,2.0,2.0,hairdryer1,coffeemaker5,,0.0,78.104,1.104,
83,,size_choice_confirmation,,html-keyboard-response,83,63397,0.0-1.0-107.0-0.0,0,0,1,,,,,,26.0,,,,,,,,,,,,,,,,,,,,,,,,,,,,,78.5,0.396,
84,,iti,,html-keyboard-response,84,63499,0.0-1.0-108.0,0,0,1,,,,,,,,,,,,,,,,,,,,,,,,,,,,,,,,,,,80.5,2.0,
85,,size_choice,,html-keyboard-response,85,64389,0.0-1.0-110.0,0,0,1,,890.0,,,51.0,27.0,27.0,1.0,3000.0,XL-XL,,XL,XL,4.0,4.0,car,dumptruck,car7,dumptruck2,156.0,171.0,/static/Size_judgement/Stimuli/Size_stims/XL/car/car13.jpg,/static/Size_judgement/Stimuli/Size_stims/XL/dumptruck/dumptruck8.jpg,0.0,dumptruck,car,XL,XL,4.0,4.0,dumptruck2,car7,,0.0,81.39,0.89,
86,,size_choice_confirmation,,html-keyboard-response,86,65003,0.0-1.0-111.0-0.0,0,0,1,,,,,,27.0,,,,,,,,,,,,,,,,,,,,,,,,,,,,,82.0,0.61,
87,,iti,,html-keyboard-response,87,65104,0.0-1.0-112.0,0,0,1,,,,,,,,,,,,,,,,,,,,,,,,,,,,,,,,,,,85.0,3.0,
88,,size_choice,,html-keyboard-response,88,65372,0.0-1.0-114.0,0,0,1,,266.0,,,51.0,28.0,28.0,1.0,1000.0,M-L,1.0,L,M,3.0,2.0,mailbox,ketchup,mailbox2,ketchup6,41.0,95.0,/static/Size_judgement/Stimuli/Size_stims/L/mailbox/mailbox2.jpg,/static/Size_judgement/Stimuli/Size_stims/M/ketchup/ketchup1.jpg,0.0,ketchup,mailbox,M,L,2.0,3.0,ketchup6,mailbox2,0.0,0.0,85.266,0.266,
89,,size_choice_confirmation,,html-keyboard-response,89,66607,0.0-1.0-115.0-0.0,0,0,1,,,,,,28.0,,,,,,,,,,,,,,,,,,,,,,,,,,,,,86.5,1.234,
90,,iti,,html-keyboard-response,90,66712,0.0-1.0-116.0,0,0,1,,,,,,,,,,,,,,,,,,,,,,,,,,,,,,,,,,,87.5,1.0,
91,,size_choice,,html-keyboard-response,91,67920,0.0-1.0-118.0,0,0,1,,1207.0,,,51.0,29.0,29.0,1.0,3500.0,L-XL,1.0,XL,L,4.0,3.0,van,cooler,van7,cooler5,196.0,4.0,/static/Size_judgement/Stimuli/Size_stims/XL/van/van1.jpg,/static/Size_judgement/Stimuli/Size_stims/L/cooler/cooler10.jpg,0.0,cooler,van,L,XL,3.0,4.0,cooler5,van7,0.0,0.0,88.70700000000001,1.207,
92,,size_choice_confirmation,,html-keyboard-response,92,68218,0.0-1.0-119.0-0.0,0,0,1,,,,,,29.0,,,,,,,,,,,,,,,,,,,,,,,,,,,,,89.0,0.293,
93,,iti,,html-keyboard-response,93,68321,0.0-1.0-120.0,0,0,1,,,,,,,,,,,,,,,,,,,,,,,,,,,,,,,,,,,92.5,3.5,
94,,size_choice,,html-keyboard-response,94,69351,0.0-1.0-122.0,0,0,1,,1029.0,,,51.0,30.0,30.0,1.0,1000.0,S-S,,S,S,1.0,1.0,paperclip,teabag,paperclip9,teabag2,118.0,131.0,/static/Size_judgement/Stimuli/Size_stims/S/paperclip/paperclip4.jpg,/static/Size_judgement/Stimuli/Size_stims/S/teabag/teabag8.jpg,0.0,teabag,paperclip,S,S,1.0,1.0,teabag2,paperclip9,,0.0,93.529,1.0290000000000001,
95,,size_choice_confirmation,,html-keyboard-response,95,69828,0.0-1.0-123.0-0.0,0,0,1,,,,,,30.0,,,,,,,,,,,,,,,,,,,,,,,,,,,,,94.0,0.47100000000000003,
96,,iti,,html-keyboard-response,96,69929,0.0-1.0-124.0,0,0,1,,,,,,,,,,,,,,,,,,,,,,,,,,,,,,,,,,,95.0,1.0,
97,,size_choice,,html-keyboard-response,97,71393,0.0-1.0-126.0,0,0,1,,1463.0,,,50.0,31.0,31.0,1.0,1500.0,S-S,,S,S,1.0,1.0,thread,screws,thread4,screws8,143.0,127.0,/static/Size_judgement/Stimuli/Size_stims/S/thread/thread5.jpg,/static/Size_judgement/Stimuli/Size_stims/S/screws/screws10.jpg,1.0,thread,screws,S,S,1.0,1.0,thread4,screws8,,0.0,96.463,1.463,
98,,size_choice_confirmation,,html-keyboard-response,98,71432,0.0-1.0-127.0-0.0,0,0,1,,,,,,31.0,,,,,,,,,,,,,,,,,,,,,,,,,,,,,96.5,0.037000000000000005,
99,,iti,,html-keyboard-response,99,71534,0.0-1.0-128.0,0,0,1,,,,,,,,,,,,,,,,,,,,,,,,,,,,,,,,,,,98.0,1.5,
100,,size_choice,,html-keyboard-response,100,72194,0.0-1.0-130.0,0,0,1,,659.0,,,51.0,32.0,32.0,1.0,2000.0,S-XL,0.0,S,XL,1.0,4.0,die,crane,die7,crane8,106.0,167.0,/static/Size_judgement/Stimuli/Size_stims/S/die/die4.jpg,/static/Size_judgement/Stimuli/Size_stims/XL/crane/crane10.jpg,0.0,crane,die,XL,S,4.0,1.0,crane8,die7,1.0,0.0,98.65899999999999,0.659,
101,,size_choice_confirmation,,html-keyboard-response,101,73039,0.0-1.0-131.0-0.0,0,0,1,,,,,,32.0,,,,,,,,,,,,,,,,,,,,,,,,,,,,,99.5,0.841,
102,,iti,,html-keyboard-response,102,73142,0.0-1.0-132.0,0,0,1,,,,,,,,,,,,,,,,,,,,,,,,,,,,,,,,,,,101.5,2.0,
103,,size_choice,,html-keyboard-response,103,74081,0.0-1.0-134.0,0,0,1,,938.0,,,50.0,33.0,33.0,1.0,1000.0,M-M,,M,M,2.0,2.0,hairdryer,handsaw,hairdryer3,handsaw3,72.0,82.0,/static/Size_judgement/Stimuli/Size_stims/M/hairdryer/hairdryer17.jpg,/static/Size_judgement/Stimuli/Size_stims/M/handsaw/handsaw2.jpg,1.0,hairdryer,handsaw,M,M,2.0,2.0,hairdryer3,handsaw3,,0.0,102.43799999999999,0.938,
104,,size_choice_confirmation,,html-keyboard-response,104,74649,0.0-1.0-135.0-0.0,0,0,1,,,,,,33.0,,,,,,,,,,,,,,,,,,,,,,,,,,,,,103.0,0.562,
105,,iti,,html-keyboard-response,105,74751,0.0-1.0-136.0,0,0,1,,,,,,,,,,,,,,,,,,,,,,,,,,,,,,,,,,,104.0,1.0,
106,,size_choice,,html-keyboard-response,106,75898,0.0-1.0-138.0,0,0,1,,1147.0,,,51.0,34.0,34.0,1.0,1500.0,L-L,,L,L,3.0,3.0,garbagecan,cooler,garbagecan9,cooler1,38.0,0.0,/static/Size_judgement/Stimuli/Size_stims/L/garbagecan/garbagecan12.jpg,/static/Size_judgement/Stimuli/Size_stims/L/cooler/cooler8.jpg,0.0,cooler,garbagecan,L,L,3.0,3.0,cooler1,garbagecan9,,0.0,105.147,1.147,
107,,size_choice_confirmation,,html-keyboard-response,107,76254,0.0-1.0-139.0-0.0,0,0,1,,,,,,34.0,,,,,,,,,,,,,,,,,,,,,,,,,,,,,105.5,0.353,
108,,iti,,html-keyboard-response,108,76355,0.0-1.0-140.0,0,0,1,,,,,,,,,,,,,,,,,,,,,,,,,,,,,,,,,,,107.0,1.5,
109,,size_choice,,html-keyboard-response,109,77161,0.0-1.0-142.0,0,0,1,,805.0,,,50.0,35.0,35.0,1.0,2000.0,S-L,1.0,L,S,3.0,1.0,cooler,teabag,cooler9,teabag1,8.0,130.0,/static/Size_judgement/Stimuli/Size_stims/L/cooler/cooler7.jpg,/static/Size_judgement/Stimuli/Size_stims/S/teabag/teabag9.jpg,1.0,cooler,teabag,L,S,3.0,1.0,cooler9,teabag1,1.0,0.0,107.805,0.805,
110,,size_choice_confirmation,,html-keyboard-response,110,77860,0.0-1.0-143.0-0.0,0,0,1,,,,,,35.0,,,,,,,,,,,,,,,,,,,,,,,,,,,,,108.5,0.695,
111,,iti,,html-keyboard-response,111,77964,0.0-1.0-144.0,0,0,1,,,,,,,,,,,,,,,,,,,,,,,,,,,,,,,,,,,110.5,2.0,
112,,size_choice,,html-keyboard-response,112,79091,0.0-1.0-146.0,0,0,1,,1125.0,,,50.0,36.0,36.0,1.0,3500.0,M-L,1.0,L,M,3.0,2.0,garbagecan,ketchup,garbagecan3,ketchup5,32.0,94.0,/static/Size_judgement/Stimuli/Size_stims/L/garbagecan/garbagecan7.jpg,/static/Size_judgement/Stimuli/Size_stims/M/ketchup/ketchup3.jpg,1.0,garbagecan,ketchup,L,M,3.0,2.0,garbagecan3,ketchup5,1.0,0.0,111.625,1.125,
113,,size_choice_confirmation,,html-keyboard-response,113,79468,0.0-1.0-147.0-0.0,0,0,1,,,,,,36.0,,,,,,,,,,,,,,,,,,,,,,,,,,,,,112.0,0.375,
114,,iti,,html-keyboard-response,114,79572,0.0-1.0-148.0,0,0,1,,,,,,,,,,,,,,,,,,,,,,,,,,,,,,,,,,,115.5,3.5,
115,,size_choice,,html-keyboard-response,115,80407,0.0-1.0-150.0,0,0,1,,834.0,,,50.0,37.0,37.0,1.0,1500.0,M-L,1.0,L,M,3.0,2.0,mailbox,ketchup,mailbox6,ketchup4,45.0,93.0,/static/Size_judgement/Stimuli/Size_stims/L/mailbox/mailbox6.jpg,/static/Size_judgement/Stimuli/Size_stims/M/ketchup/ketchup2.jpg,1.0,mailbox,ketchup,L,M,3.0,2.0,mailbox6,ketchup4,1.0,0.0,116.334,0.8340000000000001,
116,,size_choice_confirmation,,html-keyboard-response,116,81078,0.0-1.0-151.0-0.0,0,0,1,,,,,,37.0,,,,,,,,,,,,,,,,,,,,,,,,,,,,,117.0,0.6659999999999999,
117,,iti,,html-keyboard-response,117,81181,0.0-1.0-152.0,0,0,1,,,,,,,,,,,,,,,,,,,,,,,,,,,,,,,,,,,118.5,1.5,
118,,size_choice,,html-keyboard-response,118,82250,0.0-1.0-154.0,0,0,1,,1069.0,,,51.0,38.0,38.0,1.0,1000.0,L-L,,L,L,3.0,3.0,mailbox,garbagecan,mailbox8,garbagecan4,47.0,33.0,/static/Size_judgement/Stimuli/Size_stims/L/mailbox/mailbox10.jpg,/static/Size_judgement/Stimuli/Size_stims/L/garbagecan/garbagecan6.jpg,0.0,garbagecan,mailbox,L,L,3.0,3.0,garbagecan4,mailbox8,,0.0,119.569,1.069,
119,,size_choice_confirmation,,html-keyboard-response,119,82684,0.0-1.0-155.0-0.0,0,0,1,,,,,,38.0,,,,,,,,,,,,,,,,,,,,,,,,,,,,,120.0,0.431,
120,,iti,,html-keyboard-response,120,82788,0.0-1.0-156.0,0,0,1,,,,,,,,,,,,,,,,,,,,,,,,,,,,,,,,,,,121.0,1.0,
121,,size_choice,,html-keyboard-response,121,83877,0.0-1.0-158.0,0,0,1,,1088.0,,,51.0,39.0,39.0,1.0,1000.0,M-M,,M,M,2.0,2.0,basketball,hairdryer,basketball6,hairdryer7,55.0,76.0,/static/Size_judgement/Stimuli/Size_stims/M/basketball/basketball2.jpg,/static/Size_judgement/Stimuli/Size_stims/M/hairdryer/hairdryer3.jpg,0.0,hairdryer,basketball,M,M,2.0,2.0,hairdryer7,basketball6,,0.0,122.088,1.088,
122,,size_choice_confirmation,,html-keyboard-response,122,84291,0.0-1.0-159.0-0.0,0,0,1,,,,,,39.0,,,,,,,,,,,,,,,,,,,,,,,,,,,,,122.5,0.41200000000000003,
123,,iti,,html-keyboard-response,123,84396,0.0-1.0-160.0,0,0,1,,,,,,,,,,,,,,,,,,,,,,,,,,,,,,,,,,,123.5,1.0,
124,,size_choice,,html-keyboard-response,124,85120,0.0-1.0-162.0,0,0,1,,724.0,,,51.0,40.0,40.0,1.0,3000.0,S-XL,1.0,XL,S,4.0,1.0,crane,thread,crane7,thread5,166.0,144.0,/static/Size_judgement/Stimuli/Size_stims/XL/crane/crane3.jpg,/static/Size_judgement/Stimuli/Size_stims/S/thread/thread1.jpg,0.0,thread,crane,S,XL,1.0,4.0,thread5,crane7,0.0,0.0,124.22399999999999,0.7240000000000001,
125,,size_choice_confirmation,,html-keyboard-response,125,85899,0.0-1.0-163.0-0.0,0,0,1,,,,,,40.0,,,,,,,,,,,,,,,,,,,,,,,,,,,,,125.0,0.7759999999999999,
126,,iti,,html-keyboard-response,126,86001,0.0-1.0-164.0,0,0,1,,,,,,,,,,,,,,,,,,,,,,,,,,,,,,,,,,,128.0,3.0,
127,,size_choice,,html-keyboard-response,127,86086,0.0-1.0-166.0,0,0,1,,84.0,,,51.0,41.0,41.0,1.0,1000.0,S-XL,0.0,S,XL,1.0,4.0,teabag,tractor,teabag7,tractor7,136.0,186.0,/static/Size_judgement/Stimuli/Size_stims/S/teabag/teabag10.jpg,/static/Size_judgement/Stimuli/Size_stims/XL/tractor/tractor2.jpg,0.0,tractor,teabag,XL,S,4.0,1.0,tractor7,teabag7,1.0,0.0,128.084,0.084,
128,,size_choice_confirmation,,html-keyboard-response,128,87504,0.0-1.0-167.0-0.0,0,0,1,,,,,,41.0,,,,,,,,,,,,,,,,,,,,,,,,,,,,,129.5,1.416,
129,,iti,,html-keyboard-response,129,87605,0.0-1.0-168.0,0,0,1,,,,,,,,,,,,,,,,,,,,,,,,,,,,,,,,,,,130.5,1.0,
130,,size_choice,,html-keyboard-response,130,88515,0.0-1.0-170.0,0,0,1,,909.0,,,51.0,42.0,42.0,1.0,1500.0,L-XL,0.0,L,XL,3.0,4.0,garbagecan,car,garbagecan10,car6,39.0,155.0,/static/Size_judgement/Stimuli/Size_stims/L/garbagecan/garbagecan11.jpg,/static/Size_judgement/Stimuli/Size_stims/XL/car/car12.jpg,0.0,car,garbagecan,XL,L,4.0,3.0,car6,garbagecan10,1.0,0.0,131.409,0.909,
131,,size_choice_confirmation,,html-keyboard-response,131,89109,0.0-1.0-171.0-0.0,0,0,1,,,,,,42.0,,,,,,,,,,,,,,,,,,,,,,,,,,,,,132.0,0.591,
132,,iti,,html-keyboard-response,132,89211,0.0-1.0-172.0,0,0,1,,,,,,,,,,,,,,,,,,,,,,,,,,,,,,,,,,,133.5,1.5,
133,,size_choice,,html-keyboard-response,133,89928,0.0-1.0-174.0,0,0,1,,717.0,,,50.0,43.0,43.0,1.0,3500.0,M-XL,1.0,XL,M,4.0,2.0,car,coffeemaker,car4,coffeemaker9,153.0,68.0,/static/Size_judgement/Stimuli/Size_stims/XL/car/car6.jpg,/static/Size_judgement/Stimuli/Size_stims/M/coffeemaker/coffeemaker7.jpg,1.0,car,coffeemaker,XL,M,4.0,2.0,car4,coffeemaker9,1.0,0.0,134.217,0.7170000000000001,
134,,size_choice_confirmation,,html-keyboard-response,134,90717,0.0-1.0-175.0-0.0,0,0,1,,,,,,43.0,,,,,,,,,,,,,,,,,,,,,,,,,,,,,135.0,0.7829999999999999,
135,,iti,,html-keyboard-response,135,90821,0.0-1.0-176.0,0,0,1,,,,,,,,,,,,,,,,,,,,,,,,,,,,,,,,,,,138.5,3.5,
136,,size_choice,,html-keyboard-response,136,91706,0.0-1.0-178.0,0,0,1,,884.0,,,51.0,44.0,44.0,1.0,2000.0,L-XL,0.0,L,XL,3.0,4.0,cooler,car,cooler4,car5,3.0,154.0,/static/Size_judgement/Stimuli/Size_stims/L/cooler/cooler3.jpg,/static/Size_judgement/Stimuli/Size_stims/XL/car/car11.jpg,0.0,car,cooler,XL,L,4.0,3.0,car5,cooler4,1.0,0.0,139.384,0.884,
137,,size_choice_confirmation,,html-keyboard-response,137,92327,0.0-1.0-179.0-0.0,0,0,1,,,,,,44.0,,,,,,,,,,,,,,,,,,,,,,,,,,,,,140.0,0.616,
138,,iti,,html-keyboard-response,138,92432,0.0-1.0-180.0,0,0,1,,,,,,,,,,,,,,,,,,,,,,,,,,,,,,,,,,,142.0,2.0,
139,,block_over,,html-keyboard-response,139,93604,0.0-1.0-181.0-0.0,0,0,1,,1161.0,,,50.0,44.0,,,,,,,,,,,,,,,,,,,,,,,,,,,,,,,
140,,size_choice,,html-keyboard-response,140,94769,0.0-1.0-182.0,0,0,1,,1165.0,,,51.0,45.0,45.0,2.0,3500.0,S-M,0.0,S,M,1.0,2.0,screws,handsaw,screws5,handsaw6,124.0,85.0,/static/Size_judgement/Stimuli/Size_stims/S/screws/screws2.jpg,/static/Size_judgement/Stimuli/Size_stims/M/handsaw/handsaw4.jpg,0.0,handsaw,screws,M,S,2.0,1.0,handsaw6,screws5,1.0,0.0,143.165,1.165,
141,,size_choice_confirmation,,html-keyboard-response,141,95106,0.0-1.0-183.0-0.0,0,0,1,,,,,,45.0,,,,,,,,,,,,,,,,,,,,,,,,,,,,,143.5,0.335,
142,,iti,,html-keyboard-response,142,95209,0.0-1.0-184.0,0,0,1,,,,,,,,,,,,,,,,,,,,,,,,,,,,,,,,,,,147.0,3.5,
143,,size_choice,,html-keyboard-response,143,96323,0.0-1.0-186.0,0,0,1,,1113.0,,,50.0,46.0,46.0,2.0,1000.0,S-S,,S,S,1.0,1.0,screws,paperclip,screws9,paperclip6,128.0,115.0,/static/Size_judgement/Stimuli/Size_stims/S/screws/screws8.jpg,/static/Size_judgement/Stimuli/Size_stims/S/paperclip/paperclip6.jpg,1.0,screws,paperclip,S,S,1.0,1.0,screws9,paperclip6,,0.0,148.113,1.113,
144,,size_choice_confirmation,,html-keyboard-response,144,96711,0.0-1.0-187.0-0.0,0,0,1,,,,,,46.0,,,,,,,,,,,,,,,,,,,,,,,,,,,,,148.5,0.387,
145,,iti,,html-keyboard-response,145,96817,0.0-1.0-188.0,0,0,1,,,,,,,,,,,,,,,,,,,,,,,,,,,,,,,,,,,149.5,1.0,
146,,size_choice,,html-keyboard-response,146,97535,0.0-1.0-190.0,0,0,1,,718.0,,,50.0,47.0,47.0,2.0,2000.0,M-XL,1.0,XL,M,4.0,2.0,crane,basketball,crane5,basketball5,164.0,54.0,/static/Size_judgement/Stimuli/Size_stims/XL/crane/crane1.jpg,/static/Size_judgement/Stimuli/Size_stims/M/basketball/basketball3.jpg,1.0,crane,basketball,XL,M,4.0,2.0,crane5,basketball5,1.0,0.0,150.218,0.718,
147,,size_choice_confirmation,,html-keyboard-response,147,98319,0.0-1.0-191.0-0.0,0,0,1,,,,,,47.0,,,,,,,,,,,,,,,,,,,,,,,,,,,,,151.0,0.782,
148,,iti,,html-keyboard-response,148,98424,0.0-1.0-192.0,0,0,1,,,,,,,,,,,,,,,,,,,,,,,,,,,,,,,,,,,153.0,2.0,
149,,size_choice,,html-keyboard-response,149,99168,0.0-1.0-194.0,0,0,1,,743.0,,,51.0,48.0,48.0,2.0,1000.0,M-L,0.0,M,L,2.0,3.0,hairdryer,mailbox,hairdryer6,mailbox10,75.0,49.0,/static/Size_judgement/Stimuli/Size_stims/M/hairdryer/hairdryer8.jpg,/static/Size_judgement/Stimuli/Size_stims/L/mailbox/mailbox8.jpg,0.0,mailbox,hairdryer,L,M,3.0,2.0,mailbox10,hairdryer6,1.0,0.0,153.743,0.743,
150,,size_choice_confirmation,,html-keyboard-response,150,99928,0.0-1.0-195.0-0.0,0,0,1,,,,,,48.0,,,,,,,,,,,,,,,,,,,,,,,,,,,,,154.5,0.757,
151,,iti,,html-keyboard-response,151,100031,0.0-1.0-196.0,0,0,1,,,,,,,,,,,,,,,,,,,,,,,,,,,,,,,,,,,155.5,1.0,
152,,size_choice,,html-keyboard-response,152,100919,0.0-1.0-198.0,0,0,1,,887.0,,,50.0,49.0,49.0,2.0,2000.0,M-XL,1.0,XL,M,4.0,2.0,tractor,coffeemaker,tractor5,coffeemaker1,184.0,60.0,/static/Size_judgement/Stimuli/Size_stims/XL/tractor/tractor1.jpg,/static/Size_judgement/Stimuli/Size_stims/M/coffeemaker/coffeemaker14.jpg,1.0,tractor,coffeemaker,XL,M,4.0,2.0,tractor5,coffeemaker1,1.0,0.0,156.387,0.887,
153,,size_choice_confirmation,,html-keyboard-response,153,101533,0.0-1.0-199.0-0.0,0,0,1,,,,,,49.0,,,,,,,,,,,,,,,,,,,,,,,,,,,,,157.0,0.613,
154,,iti,,html-keyboard-response,154,101638,0.0-1.0-200.0,0,0,1,,,,,,,,,,,,,,,,,,,,,,,,,,,,,,,,,,,159.0,2.0,
155,,size_choice,,html-keyboard-response,155,102339,0.0-1.0-202.0,0,0,1,,700.0,,,50.0,50.0,50.0,2.0,1000.0,S-XL,1.0,XL,S,4.0,1.0,car,teabag,car9,teabag10,158.0,139.0,/static/Size_judgement/Stimuli/Size_stims/XL/car/car15.jpg,/static/Size_judgement/Stimuli/Size_stims/S/teabag/teabag4.jpg,1.0,car,teabag,XL,S,4.0,1.0,car9,teabag10,1.0,0.0,159.7,0.7,
156,,size_choice_confirmation,,html-keyboard-response,156,103143,0.0-1.0-203.0-0.0,0,0,1,,,,,,50.0,,,,,,,,,,,,,,,,,,,,,,,,,,,,,160.5,0.8,
157,,iti,,html-keyboard-response,157,103248,0.0-1.0-204.0,0,0,1,,,,,,,,,,,,,,,,,,,,,,,,,,,,,,,,,,,161.5,1.0,
158,,size_choice,,html-keyboard-response,158,104222,0.0-1.0-206.0,0,0,1,,974.0,,,50.0,51.0,51.0,2.0,1500.0,XL-XL,,XL,XL,4.0,4.0,crane,car,crane10,car8,169.0,157.0,/static/Size_judgement/Stimuli/Size_stims/XL/crane/crane9.jpg,/static/Size_judgement/Stimuli/Size_stims/XL/car/car14.jpg,1.0,crane,car,XL,XL,4.0,4.0,crane10,car8,,0.0,162.474,0.9740000000000001,
159,,size_choice_confirmation,,html-keyboard-response,159,104752,0.0-1.0-207.0-0.0,0,0,1,,,,,,51.0,,,,,,,,,,,,,,,,,,,,,,,,,,,,,163.0,0.526,
160,,iti,,html-keyboard-response,160,104856,0.0-1.0-208.0,0,0,1,,,,,,,,,,,,,,,,,,,,,,,,,,,,,,,,,,,164.5,1.5,
161,,size_choice,,html-keyboard-response,161,105739,0.0-1.0-210.0,0,0,1,,883.0,,,51.0,52.0,52.0,2.0,1000.0,M-L,0.0,M,L,2.0,3.0,coffeemaker,dishwasher,coffeemaker2,dishwasher3,61.0,22.0,/static/Size_judgement/Stimuli/Size_stims/M/coffeemaker/coffeemaker12.jpg,/static/Size_judgement/Stimuli/Size_stims/L/dishwasher/dishwasher8.jpg,0.0,dishwasher,coffeemaker,L,M,3.0,2.0,dishwasher3,coffeemaker2,1.0,0.0,165.38299999999998,0.883,
162,,size_choice_confirmation,,html-keyboard-response,162,106360,0.0-1.0-211.0-0.0,0,0,1,,,,,,52.0,,,,,,,,,,,,,,,,,,,,,,,,,,,,,166.0,0.617,
163,,iti,,html-keyboard-response,163,106463,0.0-1.0-212.0,0,0,1,,,,,,,,,,,,,,,,,,,,,,,,,,,,,,,,,,,167.0,1.0,
164,,size_choice,,html-keyboard-response,164,107124,0.0-1.0-214.0,0,0,1,,660.0,,,50.0,53.0,53.0,2.0,3000.0,S-L,1.0,L,S,3.0,1.0,deskchair,paperclip,deskchair4,paperclip7,13.0,116.0,/static/Size_judgement/Stimuli/Size_stims/L/deskchair/deskchair6.jpg,/static/Size_judgement/Stimuli/Size_stims/S/paperclip/paperclip7.jpg,1.0,deskchair,paperclip,L,S,3.0,1.0,deskchair4,paperclip7,1.0,0.0,167.66,0.66,
165,,size_choice_confirmation,,html-keyboard-response,165,107967,0.0-1.0-215.0-0.0,0,0,1,,,,,,53.0,,,,,,,,,,,,,,,,,,,,,,,,,,,,,168.5,0.84,
166,,iti,,html-keyboard-response,166,108070,0.0-1.0-216.0,0,0,1,,,,,,,,,,,,,,,,,,,,,,,,,,,,,,,,,,,171.5,3.0,
167,,size_choice,,html-keyboard-response,167,109184,0.0-1.0-218.0,0,0,1,,1114.0,,,50.0,54.0,54.0,2.0,2000.0,S-S,,S,S,1.0,1.0,screws,paperclip,screws1,paperclip10,120.0,119.0,/static/Size_judgement/Stimuli/Size_stims/S/screws/screws4.jpg,/static/Size_judgement/Stimuli/Size_stims/S/paperclip/paperclip10.jpg,1.0,screws,paperclip,S,S,1.0,1.0,screws1,paperclip10,,0.0,172.614,1.114,
168,,size_choice_confirmation,,html-keyboard-response,168,109573,0.0-1.0-219.0-0.0,0,0,1,,,,,,54.0,,,,,,,,,,,,,,,,,,,,,,,,,,,,,173.0,0.386,
169,,iti,,html-keyboard-response,169,109676,0.0-1.0-220.0,0,0,1,,,,,,,,,,,,,,,,,,,,,,,,,,,,,,,,,,,175.0,2.0,
170,,size_choice,,html-keyboard-response,170,110535,0.0-1.0-222.0,0,0,1,,858.0,,,50.0,55.0,55.0,2.0,1500.0,M-L,1.0,L,M,3.0,2.0,dishwasher,ketchup,dishwasher5,ketchup2,24.0,91.0,/static/Size_judgement/Stimuli/Size_stims/L/dishwasher/dishwasher4.jpg,/static/Size_judgement/Stimuli/Size_stims/M/ketchup/ketchup9.jpg,1.0,dishwasher,ketchup,L,M,3.0,2.0,dishwasher5,ketchup2,1.0,0.0,175.858,0.858,
171,,size_choice_confirmation,,html-keyboard-response,171,111181,0.0-1.0-223.0-0.0,0,0,1,,,,,,55.0,,,,,,,,,,,,,,,,,,,,,,,,,,,,,176.5,0.642,
172,,iti,,html-keyboard-response,172,111287,0.0-1.0-224.0,0,0,1,,,,,,,,,,,,,,,,,,,,,,,,,,,,,,,,,,,178.0,1.5,
173,,size_choice,,html-keyboard-response,173,112319,0.0-1.0-226.0,0,0,1,,1031.0,,,51.0,56.0,56.0,2.0,1000.0,M-L,0.0,M,L,2.0,3.0,hairdryer,deskchair,hairdryer5,deskchair3,74.0,12.0,/static/Size_judgement/Stimuli/Size_stims/M/hairdryer/hairdryer15.jpg,/static/Size_judgement/Stimuli/Size_stims/L/deskchair/deskchair10.jpg,0.0,deskchair,hairdryer,L,M,3.0,2.0,deskchair3,hairdryer5,1.0,0.0,179.03099999999998,1.031,
174,,size_choice_confirmation,,html-keyboard-response,174,112790,0.0-1.0-227.0-0.0,0,0,1,,,,,,56.0,,,,,,,,,,,,,,,,,,,,,,,,,,,,,179.5,0.469,
175,,iti,,html-keyboard-response,175,112894,0.0-1.0-228.0,0,0,1,,,,,,,,,,,,,,,,,,,,,,,,,,,,,,,,,,,180.5,1.0,
176,,size_choice,,html-keyboard-response,176,113499,0.0-1.0-230.0,0,0,1,,605.0,,,51.0,57.0,57.0,2.0,1000.0,S-XL,0.0,S,XL,1.0,4.0,thread,dumptruck,thread7,dumptruck1,146.0,170.0,/static/Size_judgement/Stimuli/Size_stims/S/thread/thread3.jpg,/static/Size_judgement/Stimuli/Size_stims/XL/dumptruck/dumptruck9.jpg,0.0,dumptruck,thread,XL,S,4.0,1.0,dumptruck1,thread7,1.0,0.0,181.105,0.605,
177,,size_choice_confirmation,,html-keyboard-response,177,114400,0.0-1.0-231.0-0.0,0,0,1,,,,,,57.0,,,,,,,,,,,,,,,,,,,,,,,,,,,,,182.0,0.895,
178,,iti,,html-keyboard-response,178,114505,0.0-1.0-232.0,0,0,1,,,,,,,,,,,,,,,,,,,,,,,,,,,,,,,,,,,183.0,1.0,
179,,size_choice,,html-keyboard-response,179,115090,0.0-1.0-234.0,0,0,1,,584.0,,,51.0,58.0,58.0,2.0,1000.0,S-L,0.0,S,L,1.0,3.0,teabag,dishwasher,teabag9,dishwasher6,138.0,25.0,/static/Size_judgement/Stimuli/Size_stims/S/teabag/teabag5.jpg,/static/Size_judgement/Stimuli/Size_stims/L/dishwasher/dishwasher6.jpg,0.0,dishwasher,teabag,L,S,3.0,1.0,dishwasher6,teabag9,1.0,0.0,183.584,0.584,
180,,size_choice_confirmation,,html-keyboard-response,180,116011,0.0-1.0-235.0-0.0,0,0,1,,,,,,58.0,,,,,,,,,,,,,,,,,,,,,,,,,,,,,184.5,0.9159999999999999,
181,,iti,,html-keyboard-response,181,116115,0.0-1.0-236.0,0,0,1,,,,,,,,,,,,,,,,,,,,,,,,,,,,,,,,,,,185.5,1.0,
182,,size_choice,,html-keyboard-response,182,116920,0.0-1.0-238.0,0,0,1,,803.0,,,50.0,59.0,59.0,2.0,1000.0,M-M,,M,M,2.0,2.0,basketball,ketchup,basketball2,ketchup10,51.0,99.0,/static/Size_judgement/Stimuli/Size_stims/M/basketball/basketball8.jpg,/static/Size_judgement/Stimuli/Size_stims/M/ketchup/ketchup6.jpg,1.0,basketball,ketchup,M,M,2.0,2.0,basketball2,ketchup10,,0.0,186.303,0.8029999999999999,
183,,size_choice_confirmation,,html-keyboard-response,183,117620,0.0-1.0-239.0-0.0,0,0,1,,,,,,59.0,,,,,,,,,,,,,,,,,,,,,,,,,,,,,187.0,0.6970000000000001,
184,,iti,,html-keyboard-response,184,117724,0.0-1.0-240.0,0,0,1,,,,,,,,,,,,,,,,,,,,,,,,,,,,,,,,,,,188.0,1.0,
185,,size_choice,,html-keyboard-response,185,118451,0.0-1.0-242.0,0,0,1,,726.0,,,51.0,60.0,60.0,2.0,1500.0,M-XL,0.0,M,XL,2.0,4.0,ketchup,dumptruck,ketchup1,dumptruck3,90.0,172.0,/static/Size_judgement/Stimuli/Size_stims/M/ketchup/ketchup8.jpg,/static/Size_judgement/Stimuli/Size_stims/XL/dumptruck/dumptruck10.jpg,0.0,dumptruck,ketchup,XL,M,4.0,2.0,dumptruck3,ketchup1,1.0,0.0,188.726,0.726,
186,,size_choice_confirmation,,html-keyboard-response,186,119227,0.0-1.0-243.0-0.0,0,0,1,,,,,,60.0,,,,,,,,,,,,,,,,,,,,,,,,,,,,,189.5,0.774,
187,,iti,,html-keyboard-response,187,119330,0.0-1.0-244.0,0,0,1,,,,,,,,,,,,,,,,,,,,,,,,,,,,,,,,,,,191.0,1.5,
188,,size_choice,,html-keyboard-response,188,119851,0.0-1.0-246.0,0,0,1,,521.0,,,51.0,61.0,61.0,2.0,1500.0,M-XL,0.0,M,XL,2.0,4.0,basketball,tractor,basketball1,tractor1,50.0,180.0,/static/Size_judgement/Stimuli/Size_stims/M/basketball/basketball9.jpg,/static/Size_judgement/Stimuli/Size_stims/XL/tractor/tractor6.jpg,0.0,tractor,basketball,XL,M,4.0,2.0,tractor1,basketball1,1.0,0.0,191.521,0.521,
189,,size_choice_confirmation,,html-keyboard-response,189,120831,0.0-1.0-247.0-0.0,0,0,1,,,,,,61.0,,,,,,,,,,,,,,,,,,,,,,,,,,,,,192.5,0.9790000000000001,
190,,iti,,html-keyboard-response,190,120932,0.0-1.0-248.0,0,0,1,,,,,,,,,,,,,,,,,,,,,,,,,,,,,,,,,,,194.0,1.5,
191,,size_choice,,html-keyboard-response,191,121579,0.0-1.0-250.0,0,0,1,,646.0,,,51.0,62.0,62.0,2.0,3000.0,L-XL,0.0,L,XL,3.0,4.0,cooler,van,cooler2,van9,1.0,198.0,/static/Size_judgement/Stimuli/Size_stims/L/cooler/cooler9.jpg,/static/Size_judgement/Stimuli/Size_stims/XL/van/van9.jpg,0.0,van,cooler,XL,L,4.0,3.0,van9,cooler2,1.0,0.0,194.646,0.6459999999999999,
192,,size_choice_confirmation,,html-keyboard-response,192,122438,0.0-1.0-251.0-0.0,0,0,1,,,,,,62.0,,,,,,,,,,,,,,,,,,,,,,,,,,,,,195.5,0.8540000000000001,
193,,iti,,html-keyboard-response,193,122543,0.0-1.0-252.0,0,0,1,,,,,,,,,,,,,,,,,,,,,,,,,,,,,,,,,,,198.5,3.0,
194,,size_choice,,html-keyboard-response,194,123106,0.0-1.0-254.0,0,0,1,,562.0,,,51.0,63.0,63.0,2.0,3500.0,S-L,0.0,S,L,1.0,3.0,thread,dishwasher,thread2,dishwasher7,141.0,26.0,/static/Size_judgement/Stimuli/Size_stims/S/thread/thread6.jpg,/static/Size_judgement/Stimuli/Size_stims/L/dishwasher/dishwasher7.jpg,0.0,dishwasher,thread,L,S,3.0,1.0,dishwasher7,thread2,1.0,0.0,199.062,0.562,
195,,size_choice_confirmation,,html-keyboard-response,195,124050,0.0-1.0-255.0-0.0,0,0,1,,,,,,63.0,,,,,,,,,,,,,,,,,,,,,,,,,,,,,200.0,0.938,
196,,iti,,html-keyboard-response,196,124156,0.0-1.0-256.0,0,0,1,,,,,,,,,,,,,,,,,,,,,,,,,,,,,,,,,,,203.5,3.5,
197,,size_choice,,html-keyboard-response,197,124736,0.0-1.0-258.0,0,0,1,,579.0,,,51.0,64.0,64.0,2.0,1500.0,M-L,0.0,M,L,2.0,3.0,handsaw,cooler,handsaw8,cooler7,87.0,6.0,/static/Size_judgement/Stimuli/Size_stims/M/handsaw/handsaw7.jpg,/static/Size_judgement/Stimuli/Size_stims/L/cooler/cooler4.jpg,0.0,cooler,handsaw,L,M,3.0,2.0,cooler7,handsaw8,1.0,0.0,204.079,0.579,
198,,size_choice_confirmation,,html-keyboard-response,198,125663,0.0-1.0-259.0-0.0,0,0,1,,,,,,64.0,,,,,,,,,,,,,,,,,,,,,,,,,,,,,205.0,0.9209999999999999,
199,,iti,,html-keyboard-response,199,125768,0.0-1.0-260.0,0,0,1,,,,,,,,,,,,,,,,,,,,,,,,,,,,,,,,,,,206.5,1.5,
200,,size_choice,,html-keyboard-response,200,126350,0.0-1.0-262.0,0,0,1,,580.0,,,51.0,65.0,65.0,2.0,2000.0,M-L,0.0,M,L,2.0,3.0,handsaw,mailbox,handsaw5,mailbox1,84.0,40.0,/static/Size_judgement/Stimuli/Size_stims/M/handsaw/handsaw1.jpg,/static/Size_judgement/Stimuli/Size_stims/L/mailbox/mailbox3.jpg,0.0,mailbox,handsaw,L,M,3.0,2.0,mailbox1,handsaw5,1.0,0.0,207.08,0.58,
201,,size_choice_confirmation,,html-keyboard-response,201,127274,0.0-1.0-263.0-0.0,0,0,1,,,,,,65.0,,,,,,,,,,,,,,,,,,,,,,,,,,,,,208.0,0.92,
202,,iti,,html-keyboard-response,202,127379,0.0-1.0-264.0,0,0,1,,,,,,,,,,,,,,,,,,,,,,,,,,,,,,,,,,,210.0,2.0,
203,,size_choice,,html-keyboard-response,203,128065,0.0-1.0-266.0,0,0,1,,685.0,,,50.0,66.0,66.0,2.0,1000.0,M-XL,1.0,XL,M,4.0,2.0,car,ketchup,car10,ketchup8,159.0,97.0,/static/Size_judgement/Stimuli/Size_stims/XL/car/car9.jpg,/static/Size_judgement/Stimuli/Size_stims/M/ketchup/ketchup5.jpg,1.0,car,ketchup,XL,M,4.0,2.0,car10,ketchup8,1.0,0.0,210.685,0.685,
204,,size_choice_confirmation,,html-keyboard-response,204,128885,0.0-1.0-267.0-0.0,0,0,1,,,,,,66.0,,,,,,,,,,,,,,,,,,,,,,,,,,,,,211.5,0.815,
205,,iti,,html-keyboard-response,205,128990,0.0-1.0-268.0,0,0,1,,,,,,,,,,,,,,,,,,,,,,,,,,,,,,,,,,,212.5,1.0,
206,,size_choice,,html-keyboard-response,206,130102,0.0-1.0-270.0,0,0,1,,1111.0,,,50.0,67.0,67.0,2.0,1000.0,S-L,1.0,L,S,3.0,1.0,deskchair,thread,deskchair6,thread3,15.0,142.0,/static/Size_judgement/Stimuli/Size_stims/L/deskchair/deskchair5.jpg,/static/Size_judgement/Stimuli/Size_stims/S/thread/thread4.jpg,1.0,deskchair,thread,L,S,3.0,1.0,deskchair6,thread3,1.0,0.0,213.611,1.111,
207,,size_choice_confirmation,,html-keyboard-response,207,130494,0.0-1.0-271.0-0.0,0,0,1,,,,,,67.0,,,,,,,,,,,,,,,,,,,,,,,,,,,,,214.0,0.389,
208,,iti,,html-keyboard-response,208,130597,0.0-1.0-272.0,0,0,1,,,,,,,,,,,,,,,,,,,,,,,,,,,,,,,,,,,215.0,1.0,
209,,size_choice,,html-keyboard-response,209,131384,0.0-1.0-274.0,0,0,1,,786.0,,,51.0,68.0,68.0,2.0,2000.0,S-XL,0.0,S,XL,1.0,4.0,screws,dumptruck,screws3,dumptruck4,122.0,173.0,/static/Size_judgement/Stimuli/Size_stims/S/screws/screws7.jpg,/static/Size_judgement/Stimuli/Size_stims/XL/dumptruck/dumptruck1.jpg,0.0,dumptruck,screws,XL,S,4.0,1.0,dumptruck4,screws3,1.0,0.0,215.78599999999997,0.7859999999999999,
210,,size_choice_confirmation,,html-keyboard-response,210,132103,0.0-1.0-275.0-0.0,0,0,1,,,,,,68.0,,,,,,,,,,,,,,,,,,,,,,,,,,,,,216.5,0.7140000000000001,
211,,iti,,html-keyboard-response,211,132207,0.0-1.0-276.0,0,0,1,,,,,,,,,,,,,,,,,,,,,,,,,,,,,,,,,,,218.5,2.0,
212,,size_choice,,html-keyboard-response,212,132735,0.0-1.0-278.0,0,0,1,,527.0,,,51.0,69.0,69.0,2.0,3000.0,S-XL,0.0,S,XL,1.0,4.0,paperclip,dumptruck,paperclip8,dumptruck7,117.0,176.0,/static/Size_judgement/Stimuli/Size_stims/S/paperclip/paperclip5.jpg,/static/Size_judgement/Stimuli/Size_stims/XL/dumptruck/dumptruck6.jpg,0.0,dumptruck,paperclip,XL,S,4.0,1.0,dumptruck7,paperclip8,1.0,0.0,219.02700000000002,0.527,
213,,size_choice_confirmation,,html-keyboard-response,213,133711,0.0-1.0-279.0-0.0,0,0,1,,,,,,69.0,,,,,,,,,,,,,,,,,,,,,,,,,,,,,220.0,0.973,
214,,iti,,html-keyboard-response,214,133817,0.0-1.0-280.0,0,0,1,,,,,,,,,,,,,,,,,,,,,,,,,,,,,,,,,,,223.0,3.0,
215,,size_choice,,html-keyboard-response,215,134875,0.0-1.0-282.0,0,0,1,,1057.0,,,51.0,70.0,70.0,2.0,1500.0,S-L,0.0,S,L,1.0,3.0,die,deskchair,die1,deskchair8,100.0,17.0,/static/Size_judgement/Stimuli/Size_stims/S/die/die8.jpg,/static/Size_judgement/Stimuli/Size_stims/L/deskchair/deskchair1.jpg,0.0,deskchair,die,L,S,3.0,1.0,deskchair8,die1,1.0,0.0,224.05700000000002,1.057,
216,,size_choice_confirmation,,html-keyboard-response,216,135324,0.0-1.0-283.0-0.0,0,0,1,,,,,,70.0,,,,,,,,,,,,,,,,,,,,,,,,,,,,,224.5,0.44299999999999995,
217,,iti,,html-keyboard-response,217,135427,0.0-1.0-284.0,0,0,1,,,,,,,,,,,,,,,,,,,,,,,,,,,,,,,,,,,226.0,1.5,
218,,size_choice,,html-keyboard-response,218,136372,0.0-1.0-286.0,0,0,1,,943.0,,,50.0,71.0,71.0,2.0,1500.0,XL-XL,,XL,XL,4.0,4.0,tractor,van,tractor3,van8,182.0,197.0,/static/Size_judgement/Stimuli/Size_stims/XL/tractor/tractor5.jpg,/static/Size_judgement/Stimuli/Size_stims/XL/van/van10.jpg,1.0,tractor,van,XL,XL,4.0,4.0,tractor3,van8,,0.0,226.94299999999998,0.943,
219,,size_choice_confirmation,,html-keyboard-response,219,136933,0.0-1.0-287.0-0.0,0,0,1,,,,,,71.0,,,,,,,,,,,,,,,,,,,,,,,,,,,,,227.5,0.557,
220,,iti,,html-keyboard-response,220,137034,0.0-1.0-288.0,0,0,1,,,,,,,,,,,,,,,,,,,,,,,,,,,,,,,,,,,229.0,1.5,
221,,size_choice,,html-keyboard-response,221,137684,0.0-1.0-290.0,0,0,1,,649.0,,,51.0,72.0,72.0,2.0,1500.0,S-XL,0.0,S,XL,1.0,4.0,paperclip,dumptruck,paperclip4,dumptruck5,113.0,174.0,/static/Size_judgement/Stimuli/Size_stims/S/paperclip/paperclip3.jpg,/static/Size_judgement/Stimuli/Size_stims/XL/dumptruck/dumptruck3.jpg,0.0,dumptruck,paperclip,XL,S,4.0,1.0,dumptruck5,paperclip4,1.0,0.0,229.649,0.649,
222,,size_choice_confirmation,,html-keyboard-response,222,138539,0.0-1.0-291.0-0.0,0,0,1,,,,,,72.0,,,,,,,,,,,,,,,,,,,,,,,,,,,,,230.5,0.851,
223,,iti,,html-keyboard-response,223,138644,0.0-1.0-292.0,0,0,1,,,,,,,,,,,,,,,,,,,,,,,,,,,,,,,,,,,232.0,1.5,
224,,size_choice,,html-keyboard-response,224,139286,0.0-1.0-294.0,0,0,1,,641.0,,,51.0,73.0,73.0,2.0,3000.0,M-L,0.0,M,L,2.0,3.0,coffeemaker,dishwasher,coffeemaker6,dishwasher4,65.0,23.0,/static/Size_judgement/Stimuli/Size_stims/M/coffeemaker/coffeemaker8.jpg,/static/Size_judgement/Stimuli/Size_stims/L/dishwasher/dishwasher5.jpg,0.0,dishwasher,coffeemaker,L,M,3.0,2.0,dishwasher4,coffeemaker6,1.0,0.0,232.641,0.6409999999999999,
225,,size_choice_confirmation,,html-keyboard-response,225,140151,0.0-1.0-295.0-0.0,0,0,1,,,,,,73.0,,,,,,,,,,,,,,,,,,,,,,,,,,,,,233.5,0.8590000000000001,
226,,iti,,html-keyboard-response,226,140258,0.0-1.0-296.0,0,0,1,,,,,,,,,,,,,,,,,,,,,,,,,,,,,,,,,,,236.5,3.0,
227,,size_choice,,html-keyboard-response,227,140790,0.0-1.0-298.0,0,0,1,,532.0,,,50.0,74.0,74.0,2.0,1500.0,S-XL,1.0,XL,S,4.0,1.0,car,die,car1,die9,150.0,108.0,/static/Size_judgement/Stimuli/Size_stims/XL/car/car2.jpg,/static/Size_judgement/Stimuli/Size_stims/S/die/die7.jpg,1.0,car,die,XL,S,4.0,1.0,car1,die9,1.0,0.0,237.032,0.532,
228,,size_choice_confirmation,,html-keyboard-response,228,141764,0.0-1.0-299.0-0.0,0,0,1,,,,,,74.0,,,,,,,,,,,,,,,,,,,,,,,,,,,,,238.0,0.968,
229,,iti,,html-keyboard-response,229,141866,0.0-1.0-300.0,0,0,1,,,,,,,,,,,,,,,,,,,,,,,,,,,,,,,,,,,239.5,1.5,
230,,size_choice,,html-keyboard-response,230,142468,0.0-1.0-302.0,0,0,1,,602.0,,,50.0,75.0,75.0,2.0,1500.0,M-XL,1.0,XL,M,4.0,2.0,crane,handsaw,crane1,handsaw10,160.0,89.0,/static/Size_judgement/Stimuli/Size_stims/XL/crane/crane7.jpg,/static/Size_judgement/Stimuli/Size_stims/M/handsaw/handsaw10.jpg,1.0,crane,handsaw,XL,M,4.0,2.0,crane1,handsaw10,1.0,0.0,240.102,0.602,
231,,size_choice_confirmation,,html-keyboard-response,231,143370,0.0-1.0-303.0-0.0,0,0,1,,,,,,75.0,,,,,,,,,,,,,,,,,,,,,,,,,,,,,241.0,0.898,
232,,iti,,html-keyboard-response,232,143476,0.0-1.0-304.0,0,0,1,,,,,,,,,,,,,,,,,,,,,,,,,,,,,,,,,,,242.5,1.5,
233,,size_choice,,html-keyboard-response,233,144090,0.0-1.0-306.0,0,0,1,,612.0,,,50.0,76.0,76.0,2.0,1500.0,S-XL,1.0,XL,S,4.0,1.0,tractor,screws,tractor2,screws6,181.0,125.0,/static/Size_judgement/Stimuli/Size_stims/XL/tractor/tractor7.jpg,/static/Size_judgement/Stimuli/Size_stims/S/screws/screws3.jpg,1.0,tractor,screws,XL,S,4.0,1.0,tractor2,screws6,1.0,0.0,243.112,0.612,
234,,size_choice_confirmation,,html-keyboard-response,234,144980,0.0-1.0-307.0-0.0,0,0,1,,,,,,76.0,,,,,,,,,,,,,,,,,,,,,,,,,,,,,244.0,0.888,
235,,iti,,html-keyboard-response,235,145086,0.0-1.0-308.0,0,0,1,,,,,,,,,,,,,,,,,,,,,,,,,,,,,,,,,,,245.5,1.5,
236,,size_choice,,html-keyboard-response,236,146390,0.0-1.0-310.0,0,0,1,,1304.0,,,51.0,77.0,77.0,2.0,2000.0,M-L,0.0,M,L,2.0,3.0,coffeemaker,deskchair,coffeemaker4,deskchair5,63.0,14.0,/static/Size_judgement/Stimuli/Size_stims/M/coffeemaker/coffeemaker11.jpg,/static/Size_judgement/Stimuli/Size_stims/L/deskchair/deskchair7.jpg,0.0,deskchair,coffeemaker,L,M,3.0,2.0,deskchair5,coffeemaker4,1.0,0.0,246.804,1.304,
237,,size_choice_confirmation,,html-keyboard-response,237,146592,0.0-1.0-311.0-0.0,0,0,1,,,,,,77.0,,,,,,,,,,,,,,,,,,,,,,,,,,,,,247.0,0.196,
238,,iti,,html-keyboard-response,238,146698,0.0-1.0-312.0,0,0,1,,,,,,,,,,,,,,,,,,,,,,,,,,,,,,,,,,,249.0,2.0,
239,,size_choice,,html-keyboard-response,239,147559,0.0-1.0-314.0,0,0,1,,860.0,,,50.0,78.0,78.0,2.0,1500.0,M-XL,1.0,XL,M,4.0,2.0,dumptruck,coffeemaker,dumptruck10,coffeemaker10,179.0,69.0,/static/Size_judgement/Stimuli/Size_stims/XL/dumptruck/dumptruck4.jpg,/static/Size_judgement/Stimuli/Size_stims/M/coffeemaker/coffeemaker18.jpg,1.0,dumptruck,coffeemaker,XL,M,4.0,2.0,dumptruck10,coffeemaker10,1.0,0.0,249.86,0.86,
240,,size_choice_confirmation,,html-keyboard-response,240,148205,0.0-1.0-315.0-0.0,0,0,1,,,,,,78.0,,,,,,,,,,,,,,,,,,,,,,,,,,,,,250.5,0.64,
241,,iti,,html-keyboard-response,241,148306,0.0-1.0-316.0,0,0,1,,,,,,,,,,,,,,,,,,,,,,,,,,,,,,,,,,,252.0,1.5,
242,,size_choice,,html-keyboard-response,242,149444,0.0-1.0-318.0,0,0,1,,1137.0,,,50.0,79.0,79.0,2.0,1000.0,L-L,,L,L,3.0,3.0,mailbox,cooler,mailbox4,cooler6,43.0,5.0,/static/Size_judgement/Stimuli/Size_stims/L/mailbox/mailbox5.jpg,/static/Size_judgement/Stimuli/Size_stims/L/cooler/cooler1.jpg,1.0,mailbox,cooler,L,L,3.0,3.0,mailbox4,cooler6,,0.0,253.137,1.137,
243,,size_choice_confirmation,,html-keyboard-response,243,149814,0.0-1.0-319.0-0.0,0,0,1,,,,,,79.0,,,,,,,,,,,,,,,,,,,,,,,,,,,,,253.5,0.363,
244,,iti,,html-keyboard-response,244,149918,0.0-1.0-320.0,0,0,1,,,,,,,,,,,,,,,,,,,,,,,,,,,,,,,,,,,254.5,1.0,
245,,size_choice,,html-keyboard-response,245,150633,0.0-1.0-322.0,0,0,1,,713.0,,,51.0,80.0,80.0,2.0,1000.0,S-M,0.0,S,M,1.0,2.0,die,basketball,die3,basketball3,102.0,52.0,/static/Size_judgement/Stimuli/Size_stims/S/die/die10.jpg,/static/Size_judgement/Stimuli/Size_stims/M/basketball/basketball10.jpg,0.0,basketball,die,M,S,2.0,1.0,basketball3,die3,1.0,0.0,255.213,0.713,
246,,size_choice_confirmation,,html-keyboard-response,246,151421,0.0-1.0-323.0-0.0,0,0,1,,,,,,80.0,,,,,,,,,,,,,,,,,,,,,,,,,,,,,256.0,0.787,
247,,iti,,html-keyboard-response,247,151527,0.0-1.0-324.0,0,0,1,,,,,,,,,,,,,,,,,,,,,,,,,,,,,,,,,,,257.0,1.0,
248,,size_choice,,html-keyboard-response,248,152203,0.0-1.0-326.0,0,0,1,,675.0,,,51.0,81.0,81.0,2.0,2000.0,S-L,0.0,S,L,1.0,3.0,thread,garbagecan,thread9,garbagecan7,148.0,36.0,/static/Size_judgement/Stimuli/Size_stims/S/thread/thread8.jpg,/static/Size_judgement/Stimuli/Size_stims/L/garbagecan/garbagecan16.jpg,0.0,garbagecan,thread,L,S,3.0,1.0,garbagecan7,thread9,1.0,0.0,257.675,0.675,
249,,size_choice_confirmation,,html-keyboard-response,249,153033,0.0-1.0-327.0-0.0,0,0,1,,,,,,81.0,,,,,,,,,,,,,,,,,,,,,,,,,,,,,258.5,0.825,
250,,iti,,html-keyboard-response,250,153140,0.0-1.0-328.0,0,0,1,,,,,,,,,,,,,,,,,,,,,,,,,,,,,,,,,,,260.5,2.0,
251,,size_choice,,html-keyboard-response,251,154246,0.0-1.0-330.0,0,0,1,,1105.0,,,50.0,82.0,82.0,2.0,2000.0,M-XL,1.0,XL,M,4.0,2.0,tractor,basketball,tractor8,basketball8,187.0,57.0,/static/Size_judgement/Stimuli/Size_stims/XL/tractor/tractor10.jpg,/static/Size_judgement/Stimuli/Size_stims/M/basketball/basketball7.jpg,1.0,tractor,basketball,XL,M,4.0,2.0,tractor8,basketball8,1.0,0.0,261.605,1.105,
252,,size_choice_confirmation,,html-keyboard-response,252,154646,0.0-1.0-331.0-0.0,0,0,1,,,,,,82.0,,,,,,,,,,,,,,,,,,,,,,,,,,,,,262.0,0.395,
253,,iti,,html-keyboard-response,253,154748,0.0-1.0-332.0,0,0,1,,,,,,,,,,,,,,,,,,,,,,,,,,,,,,,,,,,264.0,2.0,
254,,size_choice,,html-keyboard-response,254,155619,0.0-1.0-334.0,0,0,1,,871.0,,,51.0,83.0,83.0,2.0,1000.0,S-XL,0.0,S,XL,1.0,4.0,screws,van,screws2,van3,121.0,192.0,/static/Size_judgement/Stimuli/Size_stims/S/screws/screws5.jpg,/static/Size_judgement/Stimuli/Size_stims/XL/van/van6.jpg,0.0,van,screws,XL,S,4.0,1.0,van3,screws2,1.0,0.0,264.871,0.871,
255,,size_choice_confirmation,,html-keyboard-response,255,156255,0.0-1.0-335.0-0.0,0,0,1,,,,,,83.0,,,,,,,,,,,,,,,,,,,,,,,,,,,,,265.5,0.629,
256,,iti,,html-keyboard-response,256,156358,0.0-1.0-336.0,0,0,1,,,,,,,,,,,,,,,,,,,,,,,,,,,,,,,,,,,266.5,1.0,
257,,size_choice,,html-keyboard-response,257,157748,0.0-1.0-338.0,0,0,1,,1389.0,,,51.0,84.0,84.0,2.0,1000.0,L-L,,L,L,3.0,3.0,cooler,dishwasher,cooler3,dishwasher9,2.0,28.0,/static/Size_judgement/Stimuli/Size_stims/L/cooler/cooler2.jpg,/static/Size_judgement/Stimuli/Size_stims/L/dishwasher/dishwasher2.jpg,0.0,dishwasher,cooler,L,L,3.0,3.0,dishwasher9,cooler3,,0.0,267.889,1.389,
258,,size_choice_confirmation,,html-keyboard-response,258,157864,0.0-1.0-339.0-0.0,0,0,1,,,,,,84.0,,,,,,,,,,,,,,,,,,,,,,,,,,,,,268.0,0.111,
259,,iti,,html-keyboard-response,259,157967,0.0-1.0-340.0,0,0,1,,,,,,,,,,,,,,,,,,,,,,,,,,,,,,,,,,,269.0,1.0,
260,,size_choice,,html-keyboard-response,260,158940,0.0-1.0-342.0,0,0,1,,972.0,,,50.0,85.0,85.0,2.0,1000.0,M-M,,M,M,2.0,2.0,hairdryer,handsaw,hairdryer10,handsaw2,79.0,81.0,/static/Size_judgement/Stimuli/Size_stims/M/hairdryer/hairdryer6.jpg,/static/Size_judgement/Stimuli/Size_stims/M/handsaw/handsaw9.jpg,1.0,hairdryer,handsaw,M,M,2.0,2.0,hairdryer10,handsaw2,,0.0,269.972,0.972,
261,,size_choice_confirmation,,html-keyboard-response,261,159471,0.0-1.0-343.0-0.0,0,0,1,,,,,,85.0,,,,,,,,,,,,,,,,,,,,,,,,,,,,,270.5,0.528,
262,,iti,,html-keyboard-response,262,159577,0.0-1.0-344.0,0,0,1,,,,,,,,,,,,,,,,,,,,,,,,,,,,,,,,,,,271.5,1.0,
263,,size_choice,,html-keyboard-response,263,160342,0.0-1.0-346.0,0,0,1,,764.0,,,51.0,86.0,86.0,2.0,1000.0,L-XL,0.0,L,XL,3.0,4.0,garbagecan,crane,garbagecan6,crane2,35.0,161.0,/static/Size_judgement/Stimuli/Size_stims/L/garbagecan/garbagecan14.jpg,/static/Size_judgement/Stimuli/Size_stims/XL/crane/crane6.jpg,0.0,crane,garbagecan,XL,L,4.0,3.0,crane2,garbagecan6,1.0,0.0,272.264,0.764,
264,,size_choice_confirmation,,html-keyboard-response,264,161080,0.0-1.0-347.0-0.0,0,0,1,,,,,,86.0,,,,,,,,,,,,,,,,,,,,,,,,,,,,,273.0,0.736,
265,,iti,,html-keyboard-response,265,161182,0.0-1.0-348.0,0,0,1,,,,,,,,,,,,,,,,,,,,,,,,,,,,,,,,,,,274.0,1.0,
266,,size_choice,,html-keyboard-response,266,162434,0.0-1.0-350.0,0,0,1,,1251.0,,,51.0,87.0,87.0,2.0,1000.0,XL-XL,,XL,XL,4.0,4.0,car,tractor,car2,tractor10,151.0,189.0,/static/Size_judgement/Stimuli/Size_stims/XL/car/car3.jpg,/static/Size_judgement/Stimuli/Size_stims/XL/tractor/tractor8.jpg,0.0,tractor,car,XL,XL,4.0,4.0,tractor10,car2,,0.0,275.251,1.251,
267,,size_choice_confirmation,,html-keyboard-response,267,162687,0.0-1.0-351.0-0.0,0,0,1,,,,,,87.0,,,,,,,,,,,,,,,,,,,,,,,,,,,,,275.5,0.249,
268,,iti,,html-keyboard-response,268,162788,0.0-1.0-352.0,0,0,1,,,,,,,,,,,,,,,,,,,,,,,,,,,,,,,,,,,276.5,1.0,
269,,size_choice,,html-keyboard-response,269,163533,0.0-1.0-354.0,0,0,1,,744.0,,,50.0,88.0,88.0,2.0,1000.0,S-L,1.0,L,S,3.0,1.0,deskchair,screws,deskchair7,screws10,16.0,129.0,/static/Size_judgement/Stimuli/Size_stims/L/deskchair/deskchair4.jpg,/static/Size_judgement/Stimuli/Size_stims/S/screws/screws9.jpg,1.0,deskchair,screws,L,S,3.0,1.0,deskchair7,screws10,1.0,0.0,277.244,0.7440000000000001,
270,,size_choice_confirmation,,html-keyboard-response,270,164292,0.0-1.0-355.0-0.0,0,0,1,,,,,,88.0,,,,,,,,,,,,,,,,,,,,,,,,,,,,,278.0,0.7559999999999999,
271,,iti,,html-keyboard-response,271,164398,0.0-1.0-356.0,0,0,1,,,,,,,,,,,,,,,,,,,,,,,,,,,,,,,,,,,279.0,1.0,
272,,size_choice,,html-keyboard-response,272,165109,0.0-1.0-358.0,0,0,1,,710.0,,,50.0,89.0,89.0,2.0,3500.0,S-L,1.0,L,S,3.0,1.0,garbagecan,teabag,garbagecan1,teabag4,30.0,133.0,/static/Size_judgement/Stimuli/Size_stims/L/garbagecan/garbagecan4.jpg,/static/Size_judgement/Stimuli/Size_stims/S/teabag/teabag3.jpg,1.0,garbagecan,teabag,L,S,3.0,1.0,garbagecan1,teabag4,1.0,0.0,279.71,0.71,
273,,size_choice_confirmation,,html-keyboard-response,273,165901,0.0-1.0-359.0-0.0,0,0,1,,,,,,89.0,,,,,,,,,,,,,,,,,,,,,,,,,,,,,280.5,0.79,
274,,iti,,html-keyboard-response,274,166008,0.0-1.0-360.0,0,0,1,,,,,,,,,,,,,,,,,,,,,,,,,,,,,,,,,,,284.0,3.5,3.83
275,,size_final_tally,,html-keyboard-response,275,167339,0.0-2.0,0,0,1,,1330.0,,,50.0,,,,,,,,,,,,,,,,,,,,,,,,,,,,,,,,
