,success,ttype,start_time,trial_type,trial_index,time_elapsed,internal_node_id,warning,missed_checkup,PID,view_history,rt,responses,repeat_instructions,key_press,index,trial_num,isi,iti,is_practice,block,old_trial,pair_type,within_category,high_cat_on_left,left_category,right_category,left_category_value,right_category_value,left_exemplar,right_exemplar,left_exemplar_value,right_exemplar_value,left_img,right_img,left_img_path,right_img_path,left_chosen,chosen_category,unchosen_category,chosen_category_value,unchosen_category_value,chosen_exemplar,unchosen_exemplar,chosen_exemplar_value,unchosen_exemplar_value,no_response,onset,duration,end_practice
0,True,full_screen,d06122022hr0129,fullscreen,0,16941,0.0-0.0,0,0,77,,,,,,,,,,,,,,,,,,,,,,,,,,,,,,,,,,,,,,,,
1,,category_learning_instructions,,instructions,1,24209,0.0-1.0-0.0-0.0,0,0,77,"[{""page_index"":0,""viewing_time"":1821},{""page_index"":1,""viewing_time"":202},{""page_index"":2,""viewing_time"":509},{""page_index"":3,""viewing_time"":527},{""page_index"":4,""viewing_time"":962},{""page_index"":5,""viewing_time"":1343},{""page_index"":6,""viewing_time"":1899}]",7264.0,,,,,,,,,,,,,,,,,,,,,,,,,,,,,,,,,,,,,,
2,,category_learning_comprehension_check,,survey-multi-choice,2,28734,0.0-1.0-0.0-1.0,0,0,77,,4519.0,"{""Q0"":""True"",""Q1"":""True"",""Q2"":""Stay the same"",""Q3"":""pointer finger for left and middle finger for right""}",0.0,,,,,,,,,,,,,,,,,,,,,,,,,,,,,,,,,,,,
3,,,,html-keyboard-response,3,36510,0.0-1.0-1.0,0,0,77,,7772.0,,,50.0,,,,,,,,,,,,,,,,,,,,,,,,,,,,,,,,,,,
4,,choice,,html-keyboard-response,4,37487,0.0-1.0-2.0-0.0-0.0,0,0,77,,973.0,,,50.0,0.0,0.0,1500.0,1000.0,1.0,0.0,0.0,20-80,,0.0,bagel,dumbbell,20.0,80.0,bagel1,dumbbell1,0.0,80.0,bagels_pumpernickel_large.jpg,31B64EN68AL._AA280_.jpg,/static/Category_learning/Stimuli/Practice_stims/bagel/bagels_pumpernickel_large.jpg,/static/Category_learning/Stimuli/Practice_stims/dumbbell/31B64EN68AL._AA280_.jpg,1.0,bagel,dumbbell,20.0,80.0,bagel1,dumbbell1,0.0,80.0,0.0,0.0,0.973,
5,,confirmation,,html-keyboard-response,5,38019,0.0-1.0-2.0-0.0-1.0-0.0,0,0,77,,,,,,0.0,,,,,0.0,,,,,,,,,,,,,,,,,,,,,,,,,,,0.973,0.527,
6,,isi,,html-keyboard-response,6,39525,0.0-1.0-2.0-0.0-2.0,0,0,77,,,,,,0.0,,,,,0.0,,,,,,,,,,,,,,,,,,,,,,,,,,,1.5,1.5,
7,,feedback,,html-keyboard-response,7,40532,0.0-1.0-2.0-0.0-3.0-0.0,0,0,77,,,,,,0.0,,,,,0.0,,,,,,,,,,,,,,,,,,,,,,,,,,,3.0,1.0,
8,,iti,,html-keyboard-response,8,41537,0.0-1.0-2.0-0.0-5.0,0,0,77,,,,,,0.0,,,,,0.0,,,,,,,,,,,,,,,,,,,,,,,,,,,4.0,1.0,
9,,choice,,html-keyboard-response,9,41935,0.0-1.0-3.0-0.0-0.0,0,0,77,,393.0,,,50.0,1.0,1.0,3000.0,1500.0,1.0,0.0,0.0,20-40,,1.0,calculator,bagel,40.0,20.0,calculator2,bagel2,20.0,20.0,22829064.thl.jpg,bagels_cinnraisin_large.jpg,/static/Category_learning/Stimuli/Practice_stims/calculator/22829064.thl.jpg,/static/Category_learning/Stimuli/Practice_stims/bagel/bagels_cinnraisin_large.jpg,1.0,calculator,bagel,40.0,20.0,calculator2,bagel2,20.0,20.0,0.0,5.0,0.393,
10,,confirmation,,html-keyboard-response,10,43047,0.0-1.0-3.0-0.0-1.0-0.0,0,0,77,,,,,,1.0,,,,,0.0,,,,,,,,,,,,,,,,,,,,,,,,,,,5.393,1.107,
11,,isi,,html-keyboard-response,11,46052,0.0-1.0-3.0-0.0-2.0,0,0,77,,,,,,1.0,,,,,0.0,,,,,,,,,,,,,,,,,,,,,,,,,,,6.5,3.0,
12,,feedback,,html-keyboard-response,12,47061,0.0-1.0-3.0-0.0-3.0-0.0,0,0,77,,,,,,1.0,,,,,0.0,,,,,,,,,,,,,,,,,,,,,,,,,,,9.5,1.0,
13,,iti,,html-keyboard-response,13,48565,0.0-1.0-3.0-0.0-5.0,0,0,77,,,,,,1.0,,,,,0.0,,,,,,,,,,,,,,,,,,,,,,,,,,,10.5,1.5,
14,,choice,,html-keyboard-response,14,48890,0.0-1.0-4.0-0.0-0.0,0,0,77,,321.0,,,50.0,2.0,2.0,2000.0,3000.0,1.0,0.0,0.0,60-80,,0.0,clock,dumbbell,60.0,80.0,clock2,dumbbell2,60.0,100.0,26373355.thl.jpg,31K8MR6TMBL._SS500_.jpg,/static/Category_learning/Stimuli/Practice_stims/clock/26373355.thl.jpg,/static/Category_learning/Stimuli/Practice_stims/dumbbell/31K8MR6TMBL._SS500_.jpg,1.0,clock,dumbbell,60.0,80.0,clock2,dumbbell2,60.0,100.0,0.0,12.0,0.321,
15,,confirmation,,html-keyboard-response,15,50075,0.0-1.0-4.0-0.0-1.0-0.0,0,0,77,,,,,,2.0,,,,,0.0,,,,,,,,,,,,,,,,,,,,,,,,,,,12.321,1.179,
16,,isi,,html-keyboard-response,16,52083,0.0-1.0-4.0-0.0-2.0,0,0,77,,,,,,2.0,,,,,0.0,,,,,,,,,,,,,,,,,,,,,,,,,,,13.5,2.0,
17,,feedback,,html-keyboard-response,17,53087,0.0-1.0-4.0-0.0-3.0-0.0,0,0,77,,,,,,2.0,,,,,0.0,,,,,,,,,,,,,,,,,,,,,,,,,,,15.5,1.0,
18,,iti,,html-keyboard-response,18,56093,0.0-1.0-4.0-0.0-5.0,0,0,77,,,,,,2.0,,,,,0.0,,,,,,,,,,,,,,,,,,,,,,,,,,,16.5,3.0,
19,,choice,,html-keyboard-response,19,56596,0.0-1.0-5.0-0.0-0.0,0,0,77,,499.0,,,50.0,3.0,3.0,1000.0,2000.0,1.0,0.0,0.0,40-80,,0.0,calculator,clock,40.0,60.0,calculator1,clock1,40.0,40.0,22829184.thl.jpg,Aalarmclock2.jpg,/static/Category_learning/Stimuli/Practice_stims/calculator/22829184.thl.jpg,/static/Category_learning/Stimuli/Practice_stims/clock/Aalarmclock2.jpg,1.0,calculator,clock,40.0,60.0,calculator1,clock1,40.0,40.0,0.0,19.5,0.499,
20,,confirmation,,html-keyboard-response,20,57602,0.0-1.0-5.0-0.0-1.0-0.0,0,0,77,,,,,,3.0,,,,,0.0,,,,,,,,,,,,,,,,,,,,,,,,,,,19.999,1.001,
21,,isi,,html-keyboard-response,21,58609,0.0-1.0-5.0-0.0-2.0,0,0,77,,,,,,3.0,,,,,0.0,,,,,,,,,,,,,,,,,,,,,,,,,,,21.0,1.0,
22,,feedback,,html-keyboard-response,22,59614,0.0-1.0-5.0-0.0-3.0-0.0,0,0,77,,,,,,3.0,,,,,0.0,,,,,,,,,,,,,,,,,,,,,,,,,,,22.0,1.0,
23,,iti,,html-keyboard-response,23,61621,0.0-1.0-5.0-0.0-5.0,0,0,77,,,,,,3.0,,,,,0.0,,,,,,,,,,,,,,,,,,,,,,,,,,,23.0,2.0,
24,,choice,,html-keyboard-response,24,61988,0.0-1.0-6.0-0.0-0.0,0,0,77,,362.0,,,50.0,4.0,4.0,2500.0,2500.0,1.0,0.0,0.0,20-60,,1.0,dumbbell,bagel,80.0,20.0,dumbbell3,bagel3,100.0,40.0,41K7QVRX50L._SS500_.jpg,photo-169.jpg,/static/Category_learning/Stimuli/Practice_stims/dumbbell/41K7QVRX50L._SS500_.jpg,/static/Category_learning/Stimuli/Practice_stims/bagel/photo-169.jpg,1.0,dumbbell,bagel,80.0,20.0,dumbbell3,bagel3,100.0,40.0,0.0,25.0,0.362,1.0
25,,confirmation,,html-keyboard-response,25,63131,0.0-1.0-6.0-0.0-1.0-0.0,0,0,77,,,,,,4.0,,,,,0.0,,,,,,,,,,,,,,,,,,,,,,,,,,,25.362,1.138,
26,,isi,,html-keyboard-response,26,65635,0.0-1.0-6.0-0.0-2.0,0,0,77,,,,,,4.0,,,,,0.0,,,,,,,,,,,,,,,,,,,,,,,,,,,26.5,2.5,
27,,feedback,,html-keyboard-response,27,66643,0.0-1.0-6.0-0.0-3.0-0.0,0,0,77,,,,,,4.0,,,,,0.0,,,,,,,,,,,,,,,,,,,,,,,,,,,29.0,1.0,
28,,iti,,html-keyboard-response,28,69147,0.0-1.0-6.0-0.0-5.0,0,0,77,,,,,,4.0,,,,,0.0,,,,,,,,,,,,,,,,,,,,,,,,,,,30.0,2.5,
29,,practice_over,,html-keyboard-response,29,72282,0.0-1.0-6.0-0.0-6.0-0.0,0,0,77,,3133.0,,,83.0,4.0,,,,,,,,,,,,,,,,,,,,,,,,,,,,,,,,,,
30,,start_run,,html-keyboard-response,30,74584,0.0-1.0-6.0-0.0-6.0-1.0,0,0,77,,2298.0,,,84.0,,,,,,,,,,,,,,,,,,,,,,,,,,,,,,,,,,,
31,,choice,,html-keyboard-response,31,75555,0.0-1.0-7.0-0.0-0.0,0,0,77,,967.0,,,50.0,5.0,5.0,1000.0,1500.0,0.0,1.0,0.0,40-40,,,door knob,desk,40.0,40.0,door knob15,desk9,60.0,20.0,Legacy_oval.jpg,desk 189dr96dr chr.jpg,/static/Category_learning/Stimuli/Experimental_stims/door knob/Legacy_oval.jpg,/static/Category_learning/Stimuli/Experimental_stims/desk/desk 189dr96dr chr.jpg,1.0,door knob,desk,40.0,40.0,door knob15,desk9,60.0,20.0,0.0,0.0,0.967,
32,,confirmation,,html-keyboard-response,32,76093,0.0-1.0-7.0-0.0-1.0-0.0,0,0,77,,,,,,5.0,,,,,1.0,,,,,,,,,,,,,,,,,,,,,,,,,,,0.967,0.533,
33,,isi,,html-keyboard-response,33,77101,0.0-1.0-7.0-0.0-2.0,0,0,77,,,,,,5.0,,,,,1.0,,,,,,,,,,,,,,,,,,,,,,,,,,,1.5,1.0,
34,,feedback,,html-keyboard-response,34,78107,0.0-1.0-7.0-0.0-3.0-0.0,0,0,77,,,,,,5.0,,,,,1.0,,,,,,,,,,,,,,,,,,,,,,,,,,,2.5,1.0,
35,,iti,,html-keyboard-response,35,79613,0.0-1.0-7.0-0.0-5.0,0,0,77,,,,,,5.0,,,,,1.0,,,,,,,,,,,,,,,,,,,,,,,,,,,3.5,1.5,
36,,choice,,html-keyboard-response,36,80096,0.0-1.0-8.0-0.0-0.0,0,0,77,,478.0,,,50.0,6.0,6.0,1500.0,2000.0,0.0,1.0,0.0,40-80,,1.0,pen,door knob,80.0,40.0,pen12,door knob7,100.0,20.0,pen02.jpg,doorknob2.jpg,/static/Category_learning/Stimuli/Experimental_stims/pen/pen02.jpg,/static/Category_learning/Stimuli/Experimental_stims/door knob/doorknob2.jpg,1.0,pen,door knob,80.0,40.0,pen12,door knob7,100.0,20.0,0.0,5.0,0.478,
37,,confirmation,,html-keyboard-response,37,81123,0.0-1.0-8.0-0.0-1.0-0.0,0,0,77,,,,,,6.0,,,,,1.0,,,,,,,,,,,,,,,,,,,,,,,,,,,5.478,1.022,
38,,isi,,html-keyboard-response,38,82628,0.0-1.0-8.0-0.0-2.0,0,0,77,,,,,,6.0,,,,,1.0,,,,,,,,,,,,,,,,,,,,,,,,,,,6.5,1.5,
39,,feedback,,html-keyboard-response,39,83633,0.0-1.0-8.0-0.0-3.0-0.0,0,0,77,,,,,,6.0,,,,,1.0,,,,,,,,,,,,,,,,,,,,,,,,,,,8.0,1.0,
40,,iti,,html-keyboard-response,40,85640,0.0-1.0-8.0-0.0-5.0,0,0,77,,,,,,6.0,,,,,1.0,,,,,,,,,,,,,,,,,,,,,,,,,,,9.0,2.0,
41,,choice,,html-keyboard-response,41,85881,0.0-1.0-9.0-0.0-0.0,0,0,77,,237.0,,,50.0,7.0,7.0,1000.0,1500.0,0.0,1.0,0.0,80-80,,,seashell,pen,80.0,80.0,seashell3,pen3,80.0,80.0,coquillage.jpg,pen08.jpg,/static/Category_learning/Stimuli/Experimental_stims/seashell/coquillage.jpg,/static/Category_learning/Stimuli/Experimental_stims/pen/pen08.jpg,1.0,seashell,pen,80.0,80.0,seashell3,pen3,80.0,80.0,0.0,11.0,0.237,
42,,confirmation,,html-keyboard-response,42,87148,0.0-1.0-9.0-0.0-1.0-0.0,0,0,77,,,,,,7.0,,,,,1.0,,,,,,,,,,,,,,,,,,,,,,,,,,,11.237,1.263,
43,,isi,,html-keyboard-response,43,88154,0.0-1.0-9.0-0.0-2.0,0,0,77,,,,,,7.0,,,,,1.0,,,,,,,,,,,,,,,,,,,,,,,,,,,12.5,1.0,
44,,feedback,,html-keyboard-response,44,89158,0.0-1.0-9.0-0.0-3.0-0.0,0,0,77,,,,,,7.0,,,,,1.0,,,,,,,,,,,,,,,,,,,,,,,,,,,13.5,1.0,
45,,iti,,html-keyboard-response,45,90667,0.0-1.0-9.0-0.0-5.0,0,0,77,,,,,,7.0,,,,,1.0,,,,,,,,,,,,,,,,,,,,,,,,,,,14.5,1.5,
46,,choice,,html-keyboard-response,46,90731,0.0-1.0-10.0-0.0-0.0,0,0,77,,60.0,,,50.0,8.0,8.0,1000.0,2000.0,0.0,1.0,0.0,60-60,,,lipstick,key chain,60.0,60.0,lipstick10,key chain1,60.0,80.0,21K0D7QKFAL._SS500_.jpg,jm05s16.jpg,/static/Category_learning/Stimuli/Experimental_stims/lipstick/21K0D7QKFAL._SS500_.jpg,/static/Category_learning/Stimuli/Experimental_stims/key chain/jm05s16.jpg,1.0,lipstick,key chain,60.0,60.0,lipstick10,key chain1,60.0,80.0,0.0,16.0,0.06,
47,,confirmation,,html-keyboard-response,47,92178,0.0-1.0-10.0-0.0-1.0-0.0,0,0,77,,,,,,8.0,,,,,1.0,,,,,,,,,,,,,,,,,,,,,,,,,,,16.06,1.44,
48,,isi,,html-keyboard-response,48,93185,0.0-1.0-10.0-0.0-2.0,0,0,77,,,,,,8.0,,,,,1.0,,,,,,,,,,,,,,,,,,,,,,,,,,,17.5,1.0,
49,,feedback,,html-keyboard-response,49,94192,0.0-1.0-10.0-0.0-3.0-0.0,0,0,77,,,,,,8.0,,,,,1.0,,,,,,,,,,,,,,,,,,,,,,,,,,,18.5,1.0,
50,,iti,,html-keyboard-response,50,96201,0.0-1.0-10.0-0.0-5.0,0,0,77,,,,,,8.0,,,,,1.0,,,,,,,,,,,,,,,,,,,,,,,,,,,19.5,2.0,
51,,choice,,html-keyboard-response,51,96430,0.0-1.0-11.0-0.0-0.0,0,0,77,,224.0,,,50.0,9.0,9.0,3000.0,1500.0,0.0,1.0,0.0,60-80,,0.0,makeup compact,patio lounge chair,60.0,80.0,makeup compact4,patio lounge chair15,40.0,60.0,262668_fpx.jpg,phpThumb.jpg,/static/Category_learning/Stimuli/Experimental_stims/makeup compact/262668_fpx.jpg,/static/Category_learning/Stimuli/Experimental_stims/patio lounge chair/phpThumb.jpg,1.0,makeup compact,patio lounge chair,60.0,80.0,makeup compact4,patio lounge chair15,40.0,60.0,0.0,21.5,0.224,
52,,confirmation,,html-keyboard-response,52,97711,0.0-1.0-11.0-0.0-1.0-0.0,0,0,77,,,,,,9.0,,,,,1.0,,,,,,,,,,,,,,,,,,,,,,,,,,,21.724,1.276,
53,,isi,,html-keyboard-response,53,100718,0.0-1.0-11.0-0.0-2.0,0,0,77,,,,,,9.0,,,,,1.0,,,,,,,,,,,,,,,,,,,,,,,,,,,23.0,3.0,
54,,feedback,,html-keyboard-response,54,101723,0.0-1.0-11.0-0.0-3.0-0.0,0,0,77,,,,,,9.0,,,,,1.0,,,,,,,,,,,,,,,,,,,,,,,,,,,26.0,1.0,
55,,iti,,html-keyboard-response,55,103231,0.0-1.0-11.0-0.0-5.0,0,0,77,,,,,,9.0,,,,,1.0,,,,,,,,,,,,,,,,,,,,,,,,,,,27.0,1.5,
56,,choice,,html-keyboard-response,56,104094,0.0-1.0-12.0-0.0-0.0,0,0,77,,857.0,,,50.0,10.0,10.0,2000.0,1500.0,0.0,1.0,1.0,40-60,0.0,,door knob,lipstick,40.0,60.0,door knob15,lipstick10,60.0,60.0,Legacy_oval.jpg,21K0D7QKFAL._SS500_.jpg,/static/Category_learning/Stimuli/Experimental_stims/door knob/Legacy_oval.jpg,/static/Category_learning/Stimuli/Experimental_stims/lipstick/21K0D7QKFAL._SS500_.jpg,1.0,door knob,lipstick,40.0,60.0,door knob15,lipstick10,60.0,60.0,0.0,28.5,0.857,
57,,confirmation,,html-keyboard-response,57,104742,0.0-1.0-12.0-0.0-1.0-0.0,0,0,77,,,,,,10.0,,,,,1.0,,,,,,,,,,,,,,,,,,,,,,,,,,,29.357,0.643,
58,,isi,,html-keyboard-response,58,106747,0.0-1.0-12.0-0.0-2.0,0,0,77,,,,,,10.0,,,,,1.0,,,,,,,,,,,,,,,,,,,,,,,,,,,30.0,2.0,
59,,feedback,,html-keyboard-response,59,107751,0.0-1.0-12.0-0.0-3.0-0.0,0,0,77,,,,,,10.0,,,,,1.0,,,,,,,,,,,,,,,,,,,,,,,,,,,32.0,1.0,
60,,iti,,html-keyboard-response,60,109258,0.0-1.0-12.0-0.0-5.0,0,0,77,,,,,,10.0,,,,,1.0,,,,,,,,,,,,,,,,,,,,,,,,,,,33.0,1.5,
61,,choice,,html-keyboard-response,61,109343,0.0-1.0-13.0-0.0-0.0,0,0,77,,80.0,,,50.0,11.0,11.0,3500.0,1000.0,0.0,1.0,0.0,40-40,,,bongo,flashlight,40.0,40.0,bongo3,flashlight5,60.0,60.0,26390697.thl.jpg,Streamlight-71001-Jr-Flashlight-W-batteries-black-B00018A3CG-L.jpg,/static/Category_learning/Stimuli/Experimental_stims/bongo/26390697.thl.jpg,/static/Category_learning/Stimuli/Experimental_stims/flashlight/Streamlight-71001-Jr-Flashlight-W-batteries-black-B00018A3CG-L.jpg,1.0,bongo,flashlight,40.0,40.0,bongo3,flashlight5,60.0,60.0,0.0,34.5,0.08,
62,,confirmation,,html-keyboard-response,62,110769,0.0-1.0-13.0-0.0-1.0-0.0,0,0,77,,,,,,11.0,,,,,1.0,,,,,,,,,,,,,,,,,,,,,,,,,,,34.58,1.42,
63,,isi,,html-keyboard-response,63,114274,0.0-1.0-13.0-0.0-2.0,0,0,77,,,,,,11.0,,,,,1.0,,,,,,,,,,,,,,,,,,,,,,,,,,,36.0,3.5,
64,,feedback,,html-keyboard-response,64,115283,0.0-1.0-13.0-0.0-3.0-0.0,0,0,77,,,,,,11.0,,,,,1.0,,,,,,,,,,,,,,,,,,,,,,,,,,,39.5,1.0,
65,,iti,,html-keyboard-response,65,116290,0.0-1.0-13.0-0.0-5.0,0,0,77,,,,,,11.0,,,,,1.0,,,,,,,,,,,,,,,,,,,,,,,,,,,40.5,1.0,
66,,choice,,html-keyboard-response,66,117798,0.0-1.0-14.0-0.0-0.0,0,0,77,,,,,,12.0,12.0,1500.0,1000.0,0.0,1.0,1.0,60-80,0.0,,seashell,makeup compact,80.0,60.0,seashell3,makeup compact4,80.0,40.0,coquillage.jpg,262668_fpx.jpg,/static/Category_learning/Stimuli/Experimental_stims/seashell/coquillage.jpg,/static/Category_learning/Stimuli/Experimental_stims/makeup compact/262668_fpx.jpg,,,,,,,,,,1.0,41.5,1.5,
67,,isi,,html-keyboard-response,67,119302,0.0-1.0-14.0-0.0-2.0,0,0,77,,,,,,12.0,,,,,1.0,,,,,,,,,,,,,,,,,,,,,,,,,,,43.0,1.5,
68,,no_response,,html-keyboard-response,68,120310,0.0-1.0-14.0-0.0-4.0-0.0,0,0,77,,,,,,12.0,,,,,1.0,,,,,,,,,,,,,,,,,,,,,,,,,,,44.5,1.0,
69,,iti,,html-keyboard-response,69,121337,0.0-1.0-14.0-0.0-5.0,0,0,77,,,,,,12.0,,,,,1.0,,,,,,,,,,,,,,,,,,,,,,,,,,,45.5,1.0,
70,,choice,,html-keyboard-response,70,122296,0.0-1.0-14.0-0.1-0.1,0,0,77,,954.0,,,50.0,12.0,12.0,1500.0,1000.0,0.0,1.0,1.0,60-80,0.0,,seashell,makeup compact,80.0,60.0,seashell3,makeup compact4,80.0,40.0,coquillage.jpg,262668_fpx.jpg,/static/Category_learning/Stimuli/Experimental_stims/seashell/coquillage.jpg,/static/Category_learning/Stimuli/Experimental_stims/makeup compact/262668_fpx.jpg,1.0,seashell,makeup compact,80.0,60.0,seashell3,makeup compact4,80.0,40.0,0.0,46.5,0.954,
71,,confirmation,,html-keyboard-response,71,122846,0.0-1.0-14.0-0.1-1.1-0.1,0,0,77,,,,,,12.0,,,,,1.0,,,,,,,,,,,,,,,,,,,,,,,,,,,47.454,0.546,
72,,isi,,html-keyboard-response,72,123853,0.0-1.0-14.0-0.1-2.1,0,0,77,,,,,,12.0,,,,,1.0,,,,,,,,,,,,,,,,,,,,,,,,,,,48.0,1.0,
73,,feedback,,html-keyboard-response,73,124861,0.0-1.0-14.0-0.1-3.1-0.1,0,0,77,,,,,,12.0,,,,,1.0,,,,,,,,,,,,,,,,,,,,,,,,,,,49.0,1.0,
74,,iti,,html-keyboard-response,74,126367,0.0-1.0-14.0-0.1-5.1,0,0,77,,,,,,12.0,,,,,1.0,,,,,,,,,,,,,,,,,,,,,,,,,,,50.0,1.5,
75,,choice,,html-keyboard-response,75,127875,0.0-1.0-15.0-0.0-0.0,0,0,77,,,,,,13.0,13.0,2000.0,1000.0,0.0,1.0,0.0,40-60,,0.0,desk,hammer,40.0,60.0,desk8,hammer2,60.0,40.0,26370118.thl.jpg,hammer04.jpg,/static/Category_learning/Stimuli/Experimental_stims/desk/26370118.thl.jpg,/static/Category_learning/Stimuli/Experimental_stims/hammer/hammer04.jpg,,,,,,,,,,1.0,51.5,1.5,
76,,isi,,html-keyboard-response,76,129883,0.0-1.0-15.0-0.0-2.0,0,0,77,,,,,,13.0,,,,,1.0,,,,,,,,,,,,,,,,,,,,,,,,,,,53.0,2.0,
77,,no_response,,html-keyboard-response,77,130892,0.0-1.0-15.0-0.0-4.0-0.0,0,0,77,,,,,,13.0,,,,,1.0,,,,,,,,,,,,,,,,,,,,,,,,,,,55.0,1.0,
78,,iti,,html-keyboard-response,78,131916,0.0-1.0-15.0-0.0-5.0,0,0,77,,,,,,13.0,,,,,1.0,,,,,,,,,,,,,,,,,,,,,,,,,,,56.0,1.0,
79,,choice,,html-keyboard-response,79,133426,0.0-1.0-15.0-0.1-0.1,0,0,77,,,,,,13.0,13.0,2000.0,1000.0,0.0,1.0,0.0,40-60,,0.0,desk,hammer,40.0,60.0,desk8,hammer2,60.0,40.0,26370118.thl.jpg,hammer04.jpg,/static/Category_learning/Stimuli/Experimental_stims/desk/26370118.thl.jpg,/static/Category_learning/Stimuli/Experimental_stims/hammer/hammer04.jpg,,,,,,,,,,1.0,57.0,1.5,
80,,isi,,html-keyboard-response,80,136434,0.0-1.0-15.0-0.1-2.1,0,0,77,,,,,,13.0,,,,,1.0,,,,,,,,,,,,,,,,,,,,,,,,,,,58.5,3.0,
81,,no_response,,html-keyboard-response,81,137439,0.0-1.0-15.0-0.1-4.1-0.1,0,0,77,,,,,,13.0,,,,,1.0,,,,,,,,,,,,,,,,,,,,,,,,,,,61.5,1.0,
82,,iti,,html-keyboard-response,82,138962,0.0-1.0-15.0-0.1-5.1,0,0,77,,,,,,13.0,,,,,1.0,,,,,,,,,,,,,,,,,,,,,,,,,,,62.5,1.5,
83,,choice,,html-keyboard-response,83,139320,0.0-1.0-15.0-0.2-0.2,0,0,77,,354.0,,,50.0,13.0,13.0,2000.0,1000.0,0.0,1.0,0.0,40-60,,0.0,desk,hammer,40.0,60.0,desk8,hammer2,60.0,40.0,26370118.thl.jpg,hammer04.jpg,/static/Category_learning/Stimuli/Experimental_stims/desk/26370118.thl.jpg,/static/Category_learning/Stimuli/Experimental_stims/hammer/hammer04.jpg,1.0,desk,hammer,40.0,60.0,desk8,hammer2,60.0,40.0,0.0,64.0,0.354,
84,,confirmation,,html-keyboard-response,84,140470,0.0-1.0-15.0-0.2-1.2-0.2,0,0,77,,,,,,13.0,,,,,1.0,,,,,,,,,,,,,,,,,,,,,,,,,,,64.354,1.146,
85,,isi,,html-keyboard-response,85,142477,0.0-1.0-15.0-0.2-2.2,0,0,77,,,,,,13.0,,,,,1.0,,,,,,,,,,,,,,,,,,,,,,,,,,,65.5,2.0,
86,,feedback,,html-keyboard-response,86,143484,0.0-1.0-15.0-0.2-3.2-0.2,0,0,77,,,,,,13.0,,,,,1.0,,,,,,,,,,,,,,,,,,,,,,,,,,,67.5,1.0,
87,,iti,,html-keyboard-response,87,144989,0.0-1.0-15.0-0.2-5.2,0,0,77,,,,,,13.0,,,,,1.0,,,,,,,,,,,,,,,,,,,,,,,,,,,68.5,1.5,
88,,choice,,html-keyboard-response,88,145393,0.0-1.0-16.0-0.0-0.0,0,0,77,,400.0,,,50.0,14.0,14.0,2000.0,2000.0,0.0,1.0,0.0,60-60,,,license plate,hammer,60.0,60.0,license plate2,hammer5,60.0,60.0,ny-u93-8zs.jpg,hammer02.jpg,/static/Category_learning/Stimuli/Experimental_stims/license plate/ny-u93-8zs.jpg,/static/Category_learning/Stimuli/Experimental_stims/hammer/hammer02.jpg,1.0,license plate,hammer,60.0,60.0,license plate2,hammer5,60.0,60.0,0.0,70.0,0.4,
89,,confirmation,,html-keyboard-response,89,146497,0.0-1.0-16.0-0.0-1.0-0.0,0,0,77,,,,,,14.0,,,,,1.0,,,,,,,,,,,,,,,,,,,,,,,,,,,70.4,1.1,
90,,isi,,html-keyboard-response,90,148502,0.0-1.0-16.0-0.0-2.0,0,0,77,,,,,,14.0,,,,,1.0,,,,,,,,,,,,,,,,,,,,,,,,,,,71.5,2.0,
91,,feedback,,html-keyboard-response,91,149508,0.0-1.0-16.0-0.0-3.0-0.0,0,0,77,,,,,,14.0,,,,,1.0,,,,,,,,,,,,,,,,,,,,,,,,,,,73.5,1.0,
92,,iti,,html-keyboard-response,92,151517,0.0-1.0-16.0-0.0-5.0,0,0,77,,,,,,14.0,,,,,1.0,,,,,,,,,,,,,,,,,,,,,,,,,,,74.5,2.0,
93,,choice,,html-keyboard-response,93,151997,0.0-1.0-17.0-0.0-0.0,0,0,77,,475.0,,,50.0,15.0,15.0,1500.0,2000.0,0.0,1.0,0.0,20-20,,,train,tape,20.0,20.0,train9,tape13,20.0,20.0,train2.jpg,920152.jpg,/static/Category_learning/Stimuli/Experimental_stims/train/train2.jpg,/static/Category_learning/Stimuli/Experimental_stims/tape/920152.jpg,1.0,train,tape,20.0,20.0,train9,tape13,20.0,20.0,0.0,76.5,0.475,
94,,confirmation,,html-keyboard-response,94,153027,0.0-1.0-17.0-0.0-1.0-0.0,0,0,77,,,,,,15.0,,,,,1.0,,,,,,,,,,,,,,,,,,,,,,,,,,,76.975,1.025,
95,,isi,,html-keyboard-response,95,154534,0.0-1.0-17.0-0.0-2.0,0,0,77,,,,,,15.0,,,,,1.0,,,,,,,,,,,,,,,,,,,,,,,,,,,78.0,1.5,
96,,feedback,,html-keyboard-response,96,155542,0.0-1.0-17.0-0.0-3.0-0.0,0,0,77,,,,,,15.0,,,,,1.0,,,,,,,,,,,,,,,,,,,,,,,,,,,79.5,1.0,
97,,iti,,html-keyboard-response,97,157546,0.0-1.0-17.0-0.0-5.0,0,0,77,,,,,,15.0,,,,,1.0,,,,,,,,,,,,,,,,,,,,,,,,,,,80.5,2.0,
98,,choice,,html-keyboard-response,98,157948,0.0-1.0-18.0-0.0-0.0,0,0,77,,397.0,,,50.0,16.0,16.0,1500.0,2000.0,0.0,1.0,0.0,20-40,,0.0,trumpet,bongo,20.0,40.0,trumpet10,bongo14,40.0,40.0,trumpet2.jpg,26390667.thl.jpg,/static/Category_learning/Stimuli/Experimental_stims/trumpet/trumpet2.jpg,/static/Category_learning/Stimuli/Experimental_stims/bongo/26390667.thl.jpg,1.0,trumpet,bongo,20.0,40.0,trumpet10,bongo14,40.0,40.0,0.0,82.5,0.397,
99,,confirmation,,html-keyboard-response,99,159056,0.0-1.0-18.0-0.0-1.0-0.0,0,0,77,,,,,,16.0,,,,,1.0,,,,,,,,,,,,,,,,,,,,,,,,,,,82.897,1.103,
100,,isi,,html-keyboard-response,100,160560,0.0-1.0-18.0-0.0-2.0,0,0,77,,,,,,16.0,,,,,1.0,,,,,,,,,,,,,,,,,,,,,,,,,,,84.0,1.5,
101,,feedback,,html-keyboard-response,101,161568,0.0-1.0-18.0-0.0-3.0-0.0,0,0,77,,,,,,16.0,,,,,1.0,,,,,,,,,,,,,,,,,,,,,,,,,,,85.5,1.0,
102,,iti,,html-keyboard-response,102,163575,0.0-1.0-18.0-0.0-5.0,0,0,77,,,,,,16.0,,,,,1.0,,,,,,,,,,,,,,,,,,,,,,,,,,,86.5,2.0,
103,,choice,,html-keyboard-response,103,164023,0.0-1.0-19.0-0.0-0.0,0,0,77,,444.0,,,50.0,17.0,17.0,2000.0,3500.0,0.0,1.0,0.0,20-60,,0.0,trumpet,lipstick,20.0,60.0,trumpet1,lipstick4,40.0,60.0,JUPITER+TROMPETTE+606MRL.JPG,P145703_hero.jpg,/static/Category_learning/Stimuli/Experimental_stims/trumpet/JUPITER+TROMPETTE+606MRL.JPG,/static/Category_learning/Stimuli/Experimental_stims/lipstick/P145703_hero.jpg,1.0,trumpet,lipstick,20.0,60.0,trumpet1,lipstick4,40.0,60.0,0.0,88.5,0.444,
104,,confirmation,,html-keyboard-response,104,165084,0.0-1.0-19.0-0.0-1.0-0.0,0,0,77,,,,,,17.0,,,,,1.0,,,,,,,,,,,,,,,,,,,,,,,,,,,88.944,1.056,
105,,isi,,html-keyboard-response,105,167092,0.0-1.0-19.0-0.0-2.0,0,0,77,,,,,,17.0,,,,,1.0,,,,,,,,,,,,,,,,,,,,,,,,,,,90.0,2.0,
106,,feedback,,html-keyboard-response,106,168101,0.0-1.0-19.0-0.0-3.0-0.0,0,0,77,,,,,,17.0,,,,,1.0,,,,,,,,,,,,,,,,,,,,,,,,,,,92.0,1.0,
107,,iti,,html-keyboard-response,107,171610,0.0-1.0-19.0-0.0-5.0,0,0,77,,,,,,17.0,,,,,1.0,,,,,,,,,,,,,,,,,,,,,,,,,,,93.0,3.5,
108,,choice,,html-keyboard-response,108,171829,0.0-1.0-20.0-0.0-0.0,0,0,77,,214.0,,,51.0,18.0,18.0,1500.0,2000.0,0.0,1.0,1.0,20-20,1.0,,trumpet,trumpet,20.0,20.0,trumpet10,trumpet1,40.0,40.0,trumpet2.jpg,JUPITER+TROMPETTE+606MRL.JPG,/static/Category_learning/Stimuli/Experimental_stims/trumpet/trumpet2.jpg,/static/Category_learning/Stimuli/Experimental_stims/trumpet/JUPITER+TROMPETTE+606MRL.JPG,0.0,trumpet,trumpet,20.0,20.0,trumpet1,trumpet10,40.0,40.0,0.0,96.5,0.214,
109,,confirmation,,html-keyboard-response,109,173121,0.0-1.0-20.0-0.0-1.0-0.0,0,0,77,,,,,,18.0,,,,,1.0,,,,,,,,,,,,,,,,,,,,,,,,,,,96.714,1.286,
110,,isi,,html-keyboard-response,110,174627,0.0-1.0-20.0-0.0-2.0,0,0,77,,,,,,18.0,,,,,1.0,,,,,,,,,,,,,,,,,,,,,,,,,,,98.0,1.5,
111,,feedback,,html-keyboard-response,111,175635,0.0-1.0-20.0-0.0-3.0-0.0,0,0,77,,,,,,18.0,,,,,1.0,,,,,,,,,,,,,,,,,,,,,,,,,,,99.5,1.0,
112,,iti,,html-keyboard-response,112,177640,0.0-1.0-20.0-0.0-5.0,0,0,77,,,,,,18.0,,,,,1.0,,,,,,,,,,,,,,,,,,,,,,,,,,,100.5,2.0,
113,,choice,,html-keyboard-response,113,178497,0.0-1.0-21.0-0.0-0.0,0,0,77,,852.0,,,51.0,19.0,19.0,1500.0,1000.0,0.0,1.0,0.0,20-60,,0.0,train,motorcycle,20.0,60.0,train6,motorcycle10,0.0,40.0,train9.jpg,motorcycle17.jpg,/static/Category_learning/Stimuli/Experimental_stims/train/train9.jpg,/static/Category_learning/Stimuli/Experimental_stims/motorcycle/motorcycle17.jpg,0.0,motorcycle,train,60.0,20.0,motorcycle10,train6,40.0,0.0,0.0,102.5,0.852,
114,,confirmation,,html-keyboard-response,114,179150,0.0-1.0-21.0-0.0-1.0-0.0,0,0,77,,,,,,19.0,,,,,1.0,,,,,,,,,,,,,,,,,,,,,,,,,,,103.352,0.648,
115,,isi,,html-keyboard-response,115,180655,0.0-1.0-21.0-0.0-2.0,0,0,77,,,,,,19.0,,,,,1.0,,,,,,,,,,,,,,,,,,,,,,,,,,,104.0,1.5,
116,,feedback,,html-keyboard-response,116,181665,0.0-1.0-21.0-0.0-3.0-0.0,0,0,77,,,,,,19.0,,,,,1.0,,,,,,,,,,,,,,,,,,,,,,,,,,,105.5,1.0,
117,,iti,,html-keyboard-response,117,182669,0.0-1.0-21.0-0.0-5.0,0,0,77,,,,,,19.0,,,,,1.0,,,,,,,,,,,,,,,,,,,,,,,,,,,106.5,1.0,
118,,choice,,html-keyboard-response,118,182953,0.0-1.0-22.0-0.0-0.0,0,0,77,,279.0,,,51.0,20.0,20.0,1000.0,3000.0,0.0,1.0,0.0,40-60,,0.0,dresser,license plate,40.0,60.0,dresser9,license plate9,20.0,80.0,ADRESSER.jpg,nm-dhg089.jpg,/static/Category_learning/Stimuli/Experimental_stims/dresser/ADRESSER.jpg,/static/Category_learning/Stimuli/Experimental_stims/license plate/nm-dhg089.jpg,0.0,license plate,dresser,60.0,40.0,license plate9,dresser9,80.0,20.0,0.0,107.5,0.279,
119,,confirmation,,html-keyboard-response,119,184178,0.0-1.0-22.0-0.0-1.0-0.0,0,0,77,,,,,,20.0,,,,,1.0,,,,,,,,,,,,,,,,,,,,,,,,,,,107.779,1.221,
120,,isi,,html-keyboard-response,120,185185,0.0-1.0-22.0-0.0-2.0,0,0,77,,,,,,20.0,,,,,1.0,,,,,,,,,,,,,,,,,,,,,,,,,,,109.0,1.0,
121,,feedback,,html-keyboard-response,121,186192,0.0-1.0-22.0-0.0-3.0-0.0,0,0,77,,,,,,20.0,,,,,1.0,,,,,,,,,,,,,,,,,,,,,,,,,,,110.0,1.0,
122,,iti,,html-keyboard-response,122,189201,0.0-1.0-22.0-0.0-5.0,0,0,77,,,,,,20.0,,,,,1.0,,,,,,,,,,,,,,,,,,,,,,,,,,,111.0,3.0,
123,,choice,,html-keyboard-response,123,189598,0.0-1.0-23.0-0.0-0.0,0,0,77,,393.0,,,51.0,21.0,21.0,2000.0,1000.0,0.0,1.0,0.0,40-80,,1.0,seashell,desk,80.0,40.0,seashell4,desk3,60.0,60.0,seashell.jpg,D-1 Four drawers desk Elm 64x23x33.jpg,/static/Category_learning/Stimuli/Experimental_stims/seashell/seashell.jpg,/static/Category_learning/Stimuli/Experimental_stims/desk/D-1 Four drawers desk Elm 64x23x33.jpg,0.0,desk,seashell,40.0,80.0,desk3,seashell4,60.0,60.0,0.0,114.0,0.393,
124,,confirmation,,html-keyboard-response,124,190709,0.0-1.0-23.0-0.0-1.0-0.0,0,0,77,,,,,,21.0,,,,,1.0,,,,,,,,,,,,,,,,,,,,,,,,,,,114.393,1.107,
125,,isi,,html-keyboard-response,125,192719,0.0-1.0-23.0-0.0-2.0,0,0,77,,,,,,21.0,,,,,1.0,,,,,,,,,,,,,,,,,,,,,,,,,,,115.5,2.0,
126,,feedback,,html-keyboard-response,126,193724,0.0-1.0-23.0-0.0-3.0-0.0,0,0,77,,,,,,21.0,,,,,1.0,,,,,,,,,,,,,,,,,,,,,,,,,,,117.5,1.0,
127,,iti,,html-keyboard-response,127,194733,0.0-1.0-23.0-0.0-5.0,0,0,77,,,,,,21.0,,,,,1.0,,,,,,,,,,,,,,,,,,,,,,,,,,,118.5,1.0,
128,,choice,,html-keyboard-response,128,196243,0.0-1.0-24.0-0.0-0.0,0,0,77,,,,,,22.0,22.0,1000.0,3500.0,0.0,1.0,0.0,20-40,,1.0,bench,yarn,40.0,20.0,bench5,yarn5,20.0,0.0,APARKBEN8.jpg,Aballofyarn14.jpg,/static/Category_learning/Stimuli/Experimental_stims/bench/APARKBEN8.jpg,/static/Category_learning/Stimuli/Experimental_stims/yarn/Aballofyarn14.jpg,,,,,,,,,,1.0,119.5,1.5,
129,,isi,,html-keyboard-response,129,197251,0.0-1.0-24.0-0.0-2.0,0,0,77,,,,,,22.0,,,,,1.0,,,,,,,,,,,,,,,,,,,,,,,,,,,121.0,1.0,
130,,no_response,,html-keyboard-response,130,198260,0.0-1.0-24.0-0.0-4.0-0.0,0,0,77,,,,,,22.0,,,,,1.0,,,,,,,,,,,,,,,,,,,,,,,,,,,122.0,1.0,
131,,iti,,html-keyboard-response,131,201783,0.0-1.0-24.0-0.0-5.0,0,0,77,,,,,,22.0,,,,,1.0,,,,,,,,,,,,,,,,,,,,,,,,,,,123.0,3.5,
132,,choice,,html-keyboard-response,132,202303,0.0-1.0-24.0-0.1-0.1,0,0,77,,515.0,,,51.0,22.0,22.0,1000.0,3500.0,0.0,1.0,0.0,20-40,,1.0,bench,yarn,40.0,20.0,bench5,yarn5,20.0,0.0,APARKBEN8.jpg,Aballofyarn14.jpg,/static/Category_learning/Stimuli/Experimental_stims/bench/APARKBEN8.jpg,/static/Category_learning/Stimuli/Experimental_stims/yarn/Aballofyarn14.jpg,0.0,yarn,bench,20.0,40.0,yarn5,bench5,0.0,20.0,0.0,126.5,0.515,
133,,confirmation,,html-keyboard-response,133,203294,0.0-1.0-24.0-0.1-1.1-0.1,0,0,77,,,,,,22.0,,,,,1.0,,,,,,,,,,,,,,,,,,,,,,,,,,,127.015,0.985,
134,,isi,,html-keyboard-response,134,204800,0.0-1.0-24.0-0.1-2.1,0,0,77,,,,,,22.0,,,,,1.0,,,,,,,,,,,,,,,,,,,,,,,,,,,128.0,1.5,
135,,feedback,,html-keyboard-response,135,205805,0.0-1.0-24.0-0.1-3.1-0.1,0,0,77,,,,,,22.0,,,,,1.0,,,,,,,,,,,,,,,,,,,,,,,,,,,129.5,1.0,
136,,iti,,html-keyboard-response,136,207811,0.0-1.0-24.0-0.1-5.1,0,0,77,,,,,,22.0,,,,,1.0,,,,,,,,,,,,,,,,,,,,,,,,,,,130.5,2.0,
137,,choice,,html-keyboard-response,137,208694,0.0-1.0-25.0-0.0-0.0,0,0,77,,879.0,,,51.0,23.0,23.0,2000.0,1500.0,0.0,1.0,0.0,60-80,,1.0,necklace,hammer,80.0,60.0,necklace6,hammer6,100.0,80.0,Agoldnecklace.jpg,hammer03.jpg,/static/Category_learning/Stimuli/Experimental_stims/necklace/Agoldnecklace.jpg,/static/Category_learning/Stimuli/Experimental_stims/hammer/hammer03.jpg,0.0,hammer,necklace,60.0,80.0,hammer6,necklace6,80.0,100.0,0.0,132.5,0.879,
138,,confirmation,,html-keyboard-response,138,209320,0.0-1.0-25.0-0.0-1.0-0.0,0,0,77,,,,,,23.0,,,,,1.0,,,,,,,,,,,,,,,,,,,,,,,,,,,133.379,0.621,
139,,isi,,html-keyboard-response,139,211326,0.0-1.0-25.0-0.0-2.0,0,0,77,,,,,,23.0,,,,,1.0,,,,,,,,,,,,,,,,,,,,,,,,,,,134.0,2.0,
140,,feedback,,html-keyboard-response,140,212335,0.0-1.0-25.0-0.0-3.0-0.0,0,0,77,,,,,,23.0,,,,,1.0,,,,,,,,,,,,,,,,,,,,,,,,,,,136.0,1.0,
141,,iti,,html-keyboard-response,141,213840,0.0-1.0-25.0-0.0-5.0,0,0,77,,,,,,23.0,,,,,1.0,,,,,,,,,,,,,,,,,,,,,,,,,,,137.0,1.5,
142,,choice,,html-keyboard-response,142,214322,0.0-1.0-26.0-0.0-0.0,0,0,77,,478.0,,,51.0,24.0,24.0,3500.0,1500.0,0.0,1.0,0.0,20-20,,,watch,yarn,20.0,20.0,watch4,yarn9,40.0,40.0,B000EI2NBW.01._AA280_SCLZZZZZZZ_.jpg,Aballofyarn26.jpg,/static/Category_learning/Stimuli/Experimental_stims/watch/B000EI2NBW.01._AA280_SCLZZZZZZZ_.jpg,/static/Category_learning/Stimuli/Experimental_stims/yarn/Aballofyarn26.jpg,0.0,yarn,watch,20.0,20.0,yarn9,watch4,40.0,40.0,0.0,138.5,0.478,
143,,confirmation,,html-keyboard-response,143,215349,0.0-1.0-26.0-0.0-1.0-0.0,0,0,77,,,,,,24.0,,,,,1.0,,,,,,,,,,,,,,,,,,,,,,,,,,,138.978,1.022,
144,,isi,,html-keyboard-response,144,218854,0.0-1.0-26.0-0.0-2.0,0,0,77,,,,,,24.0,,,,,1.0,,,,,,,,,,,,,,,,,,,,,,,,,,,140.0,3.5,
145,,feedback,,html-keyboard-response,145,219860,0.0-1.0-26.0-0.0-3.0-0.0,0,0,77,,,,,,24.0,,,,,1.0,,,,,,,,,,,,,,,,,,,,,,,,,,,143.5,1.0,
146,,iti,,html-keyboard-response,146,221368,0.0-1.0-26.0-0.0-5.0,0,0,77,,,,,,24.0,,,,,1.0,,,,,,,,,,,,,,,,,,,,,,,,,,,144.5,1.5,
147,,choice,,html-keyboard-response,147,221904,0.0-1.0-27.0-0.0-0.0,0,0,77,,532.0,,,51.0,25.0,25.0,1000.0,1000.0,0.0,1.0,0.0,40-60,,1.0,motorcycle,door knob,60.0,40.0,motorcycle15,door knob1,80.0,40.0,2006-Buell-LightningXB12Sa.jpg,Brass_Door_Handle.jpg,/static/Category_learning/Stimuli/Experimental_stims/motorcycle/2006-Buell-LightningXB12Sa.jpg,/static/Category_learning/Stimuli/Experimental_stims/door knob/Brass_Door_Handle.jpg,0.0,door knob,motorcycle,40.0,60.0,door knob1,motorcycle15,40.0,80.0,0.0,146.0,0.532,
148,,confirmation,,html-keyboard-response,148,222877,0.0-1.0-27.0-0.0-1.0-0.0,0,0,77,,,,,,25.0,,,,,1.0,,,,,,,,,,,,,,,,,,,,,,,,,,,146.532,0.968,
149,,isi,,html-keyboard-response,149,223882,0.0-1.0-27.0-0.0-2.0,0,0,77,,,,,,25.0,,,,,1.0,,,,,,,,,,,,,,,,,,,,,,,,,,,147.5,1.0,
150,,feedback,,html-keyboard-response,150,224889,0.0-1.0-27.0-0.0-3.0-0.0,0,0,77,,,,,,25.0,,,,,1.0,,,,,,,,,,,,,,,,,,,,,,,,,,,148.5,1.0,
151,,iti,,html-keyboard-response,151,225895,0.0-1.0-27.0-0.0-5.0,0,0,77,,,,,,25.0,,,,,1.0,,,,,,,,,,,,,,,,,,,,,,,,,,,149.5,1.0,
152,,choice,,html-keyboard-response,152,226571,0.0-1.0-28.0-0.0-0.0,0,0,77,,672.0,,,51.0,26.0,26.0,1000.0,1000.0,0.0,1.0,0.0,40-60,,1.0,hammer,door knob,60.0,40.0,hammer8,door knob10,40.0,20.0,ct1006_hammer.jpg,c02a578d-c6cc-44ca-8dd2-de8901e30bd7_4.jpg,/static/Category_learning/Stimuli/Experimental_stims/hammer/ct1006_hammer.jpg,/static/Category_learning/Stimuli/Experimental_stims/door knob/c02a578d-c6cc-44ca-8dd2-de8901e30bd7_4.jpg,0.0,door knob,hammer,40.0,60.0,door knob10,hammer8,20.0,40.0,0.0,150.5,0.672,
153,,confirmation,,html-keyboard-response,153,227405,0.0-1.0-28.0-0.0-1.0-0.0,0,0,77,,,,,,26.0,,,,,1.0,,,,,,,,,,,,,,,,,,,,,,,,,,,151.172,0.828,
154,,isi,,html-keyboard-response,154,228413,0.0-1.0-28.0-0.0-2.0,0,0,77,,,,,,26.0,,,,,1.0,,,,,,,,,,,,,,,,,,,,,,,,,,,152.0,1.0,
155,,feedback,,html-keyboard-response,155,229418,0.0-1.0-28.0-0.0-3.0-0.0,0,0,77,,,,,,26.0,,,,,1.0,,,,,,,,,,,,,,,,,,,,,,,,,,,153.0,1.0,
156,,iti,,html-keyboard-response,156,230428,0.0-1.0-28.0-0.0-5.0,0,0,77,,,,,,26.0,,,,,1.0,,,,,,,,,,,,,,,,,,,,,,,,,,,154.0,1.0,
157,,choice,,html-keyboard-response,157,231272,0.0-1.0-29.0-0.0-0.0,0,0,77,,841.0,,,51.0,27.0,27.0,1500.0,1000.0,0.0,1.0,0.0,20-80,,1.0,small table,vase,80.0,20.0,small table7,vase4,80.0,40.0,ATABLE89.jpg,Avase111.jpg,/static/Category_learning/Stimuli/Experimental_stims/small table/ATABLE89.jpg,/static/Category_learning/Stimuli/Experimental_stims/vase/Avase111.jpg,0.0,vase,small table,20.0,80.0,vase4,small table7,40.0,80.0,0.0,155.0,0.841,
158,,confirmation,,html-keyboard-response,158,231936,0.0-1.0-29.0-0.0-1.0-0.0,0,0,77,,,,,,27.0,,,,,1.0,,,,,,,,,,,,,,,,,,,,,,,,,,,155.841,0.659,
159,,isi,,html-keyboard-response,159,233444,0.0-1.0-29.0-0.0-2.0,0,0,77,,,,,,27.0,,,,,1.0,,,,,,,,,,,,,,,,,,,,,,,,,,,156.5,1.5,
160,,feedback,,html-keyboard-response,160,234453,0.0-1.0-29.0-0.0-3.0-0.0,0,0,77,,,,,,27.0,,,,,1.0,,,,,,,,,,,,,,,,,,,,,,,,,,,158.0,1.0,
161,,iti,,html-keyboard-response,161,235458,0.0-1.0-29.0-0.0-5.0,0,0,77,,,,,,27.0,,,,,1.0,,,,,,,,,,,,,,,,,,,,,,,,,,,159.0,1.0,
162,,choice,,html-keyboard-response,162,236082,0.0-1.0-30.0-0.0-0.0,0,0,77,,620.0,,,51.0,28.0,28.0,1000.0,1000.0,0.0,1.0,1.0,60-60,1.0,,license plate,license plate,60.0,60.0,license plate9,license plate2,80.0,60.0,nm-dhg089.jpg,ny-u93-8zs.jpg,/static/Category_learning/Stimuli/Experimental_stims/license plate/nm-dhg089.jpg,/static/Category_learning/Stimuli/Experimental_stims/license plate/ny-u93-8zs.jpg,0.0,license plate,license plate,60.0,60.0,license plate2,license plate9,60.0,80.0,0.0,160.0,0.62,
163,,confirmation,,html-keyboard-response,163,236966,0.0-1.0-30.0-0.0-1.0-0.0,0,0,77,,,,,,28.0,,,,,1.0,,,,,,,,,,,,,,,,,,,,,,,,,,,160.62,0.88,
164,,isi,,html-keyboard-response,164,237973,0.0-1.0-30.0-0.0-2.0,0,0,77,,,,,,28.0,,,,,1.0,,,,,,,,,,,,,,,,,,,,,,,,,,,161.5,1.0,
165,,feedback,,html-keyboard-response,165,238981,0.0-1.0-30.0-0.0-3.0-0.0,0,0,77,,,,,,28.0,,,,,1.0,,,,,,,,,,,,,,,,,,,,,,,,,,,162.5,1.0,
166,,iti,,html-keyboard-response,166,239989,0.0-1.0-30.0-0.0-5.0,0,0,77,,,,,,28.0,,,,,1.0,,,,,,,,,,,,,,,,,,,,,,,,,,,163.5,1.0,
167,,choice,,html-keyboard-response,167,240571,0.0-1.0-31.0-0.0-0.0,0,0,77,,578.0,,,51.0,29.0,29.0,3500.0,1000.0,0.0,1.0,0.0,40-40,,,fan,bench,40.0,40.0,fan5,bench12,20.0,20.0,Table_Fan.jpg,22927976.thl.jpg,/static/Category_learning/Stimuli/Experimental_stims/fan/Table_Fan.jpg,/static/Category_learning/Stimuli/Experimental_stims/bench/22927976.thl.jpg,0.0,bench,fan,40.0,40.0,bench12,fan5,20.0,20.0,0.0,164.5,0.578,
168,,confirmation,,html-keyboard-response,168,241497,0.0-1.0-31.0-0.0-1.0-0.0,0,0,77,,,,,,29.0,,,,,1.0,,,,,,,,,,,,,,,,,,,,,,,,,,,165.078,0.922,
169,,isi,,html-keyboard-response,169,245005,0.0-1.0-31.0-0.0-2.0,0,0,77,,,,,,29.0,,,,,1.0,,,,,,,,,,,,,,,,,,,,,,,,,,,166.0,3.5,
170,,feedback,,html-keyboard-response,170,246015,0.0-1.0-31.0-0.0-3.0-0.0,0,0,77,,,,,,29.0,,,,,1.0,,,,,,,,,,,,,,,,,,,,,,,,,,,169.5,1.0,
171,,iti,,html-keyboard-response,171,247024,0.0-1.0-31.0-0.0-5.0,0,0,77,,,,,,29.0,,,,,1.0,,,,,,,,,,,,,,,,,,,,,,,,,,,170.5,1.0,
172,,choice,,html-keyboard-response,172,247677,0.0-1.0-32.0-0.0-0.0,0,0,77,,649.0,,,51.0,30.0,30.0,1000.0,3000.0,0.0,1.0,1.0,40-40,1.0,,desk,desk,40.0,40.0,desk8,desk3,60.0,60.0,26370118.thl.jpg,D-1 Four drawers desk Elm 64x23x33.jpg,/static/Category_learning/Stimuli/Experimental_stims/desk/26370118.thl.jpg,/static/Category_learning/Stimuli/Experimental_stims/desk/D-1 Four drawers desk Elm 64x23x33.jpg,0.0,desk,desk,40.0,40.0,desk3,desk8,60.0,60.0,0.0,171.5,0.649,
173,,confirmation,,html-keyboard-response,173,248533,0.0-1.0-32.0-0.0-1.0-0.0,0,0,77,,,,,,30.0,,,,,1.0,,,,,,,,,,,,,,,,,,,,,,,,,,,172.149,0.851,
174,,isi,,html-keyboard-response,174,249542,0.0-1.0-32.0-0.0-2.0,0,0,77,,,,,,30.0,,,,,1.0,,,,,,,,,,,,,,,,,,,,,,,,,,,173.0,1.0,
175,,feedback,,html-keyboard-response,175,250551,0.0-1.0-32.0-0.0-3.0-0.0,0,0,77,,,,,,30.0,,,,,1.0,,,,,,,,,,,,,,,,,,,,,,,,,,,174.0,1.0,
176,,iti,,html-keyboard-response,176,253556,0.0-1.0-32.0-0.0-5.0,0,0,77,,,,,,30.0,,,,,1.0,,,,,,,,,,,,,,,,,,,,,,,,,,,175.0,3.0,
177,,choice,,html-keyboard-response,177,254041,0.0-1.0-33.0-0.0-0.0,0,0,77,,480.0,,,51.0,31.0,31.0,1500.0,1500.0,0.0,1.0,0.0,80-80,,,sofa,patio lounge chair,80.0,80.0,sofa15,patio lounge chair9,100.0,80.0,APEACHLOV.jpg,43-3.jpg,/static/Category_learning/Stimuli/Experimental_stims/sofa/APEACHLOV.jpg,/static/Category_learning/Stimuli/Experimental_stims/patio lounge chair/43-3.jpg,0.0,patio lounge chair,sofa,80.0,80.0,patio lounge chair9,sofa15,80.0,100.0,0.0,178.0,0.48,
178,,confirmation,,html-keyboard-response,178,255066,0.0-1.0-33.0-0.0-1.0-0.0,0,0,77,,,,,,31.0,,,,,1.0,,,,,,,,,,,,,,,,,,,,,,,,,,,178.48,1.02,
179,,isi,,html-keyboard-response,179,256571,0.0-1.0-33.0-0.0-2.0,0,0,77,,,,,,31.0,,,,,1.0,,,,,,,,,,,,,,,,,,,,,,,,,,,179.5,1.5,
180,,feedback,,html-keyboard-response,180,257579,0.0-1.0-33.0-0.0-3.0-0.0,0,0,77,,,,,,31.0,,,,,1.0,,,,,,,,,,,,,,,,,,,,,,,,,,,181.0,1.0,
181,,iti,,html-keyboard-response,181,259085,0.0-1.0-33.0-0.0-5.0,0,0,77,,,,,,31.0,,,,,1.0,,,,,,,,,,,,,,,,,,,,,,,,,,,182.0,1.5,
182,,choice,,html-keyboard-response,182,259637,0.0-1.0-34.0-0.0-0.0,0,0,77,,547.0,,,51.0,32.0,32.0,1000.0,1000.0,0.0,1.0,0.0,20-80,,1.0,necklace,vase,80.0,20.0,necklace1,vase12,100.0,0.0,26443173.thl.jpg,Abluevase2.jpg,/static/Category_learning/Stimuli/Experimental_stims/necklace/26443173.thl.jpg,/static/Category_learning/Stimuli/Experimental_stims/vase/Abluevase2.jpg,0.0,vase,necklace,20.0,80.0,vase12,necklace1,0.0,100.0,0.0,183.5,0.547,
183,,confirmation,,html-keyboard-response,183,260594,0.0-1.0-34.0-0.0-1.0-0.0,0,0,77,,,,,,32.0,,,,,1.0,,,,,,,,,,,,,,,,,,,,,,,,,,,184.047,0.953,
184,,isi,,html-keyboard-response,184,261599,0.0-1.0-34.0-0.0-2.0,0,0,77,,,,,,32.0,,,,,1.0,,,,,,,,,,,,,,,,,,,,,,,,,,,185.0,1.0,
185,,feedback,,html-keyboard-response,185,262606,0.0-1.0-34.0-0.0-3.0-0.0,0,0,77,,,,,,32.0,,,,,1.0,,,,,,,,,,,,,,,,,,,,,,,,,,,186.0,1.0,
186,,iti,,html-keyboard-response,186,263610,0.0-1.0-34.0-0.0-5.0,0,0,77,,,,,,32.0,,,,,1.0,,,,,,,,,,,,,,,,,,,,,,,,,,,187.0,1.0,
187,,choice,,html-keyboard-response,187,264029,0.0-1.0-35.0-0.0-0.0,0,0,77,,415.0,,,51.0,33.0,33.0,3500.0,1000.0,0.0,1.0,0.0,40-80,,1.0,nail polish,desk,80.0,40.0,nail polish14,desk14,80.0,20.0,38031405.JPG,26419960.thl.jpg,/static/Category_learning/Stimuli/Experimental_stims/nail polish/38031405.JPG,/static/Category_learning/Stimuli/Experimental_stims/desk/26419960.thl.jpg,0.0,desk,nail polish,40.0,80.0,desk14,nail polish14,20.0,80.0,0.0,188.0,0.415,
188,,confirmation,,html-keyboard-response,188,265119,0.0-1.0-35.0-0.0-1.0-0.0,0,0,77,,,,,,33.0,,,,,1.0,,,,,,,,,,,,,,,,,,,,,,,,,,,188.415,1.085,
189,,isi,,html-keyboard-response,189,268623,0.0-1.0-35.0-0.0-2.0,0,0,77,,,,,,33.0,,,,,1.0,,,,,,,,,,,,,,,,,,,,,,,,,,,189.5,3.5,
190,,feedback,,html-keyboard-response,190,269631,0.0-1.0-35.0-0.0-3.0-0.0,0,0,77,,,,,,33.0,,,,,1.0,,,,,,,,,,,,,,,,,,,,,,,,,,,193.0,1.0,
191,,iti,,html-keyboard-response,191,270637,0.0-1.0-35.0-0.0-5.0,0,0,77,,,,,,33.0,,,,,1.0,,,,,,,,,,,,,,,,,,,,,,,,,,,194.0,1.0,
192,,choice,,html-keyboard-response,192,271609,0.0-1.0-36.0-0.0-0.0,0,0,77,,963.0,,,51.0,34.0,34.0,1000.0,1000.0,0.0,1.0,1.0,20-20,1.0,,yarn,yarn,20.0,20.0,yarn9,yarn5,40.0,0.0,Aballofyarn26.jpg,Aballofyarn14.jpg,/static/Category_learning/Stimuli/Experimental_stims/yarn/Aballofyarn26.jpg,/static/Category_learning/Stimuli/Experimental_stims/yarn/Aballofyarn14.jpg,0.0,yarn,yarn,20.0,20.0,yarn5,yarn9,0.0,40.0,0.0,195.0,0.963,
193,,confirmation,,html-keyboard-response,193,272150,0.0-1.0-36.0-0.0-1.0-0.0,0,0,77,,,,,,34.0,,,,,1.0,,,,,,,,,,,,,,,,,,,,,,,,,,,195.963,0.537,
194,,isi,,html-keyboard-response,194,273153,0.0-1.0-36.0-0.0-2.0,0,0,77,,,,,,34.0,,,,,1.0,,,,,,,,,,,,,,,,,,,,,,,,,,,196.5,1.0,
195,,feedback,,html-keyboard-response,195,274162,0.0-1.0-36.0-0.0-3.0-0.0,0,0,77,,,,,,34.0,,,,,1.0,,,,,,,,,,,,,,,,,,,,,,,,,,,197.5,1.0,
196,,iti,,html-keyboard-response,196,275171,0.0-1.0-36.0-0.0-5.0,0,0,77,,,,,,34.0,,,,,1.0,,,,,,,,,,,,,,,,,,,,,,,,,,,198.5,1.0,
197,,choice,,html-keyboard-response,197,275683,0.0-1.0-37.0-0.0-0.0,0,0,77,,508.0,,,51.0,35.0,35.0,1000.0,1500.0,0.0,1.0,1.0,40-40,1.0,,door knob,door knob,40.0,40.0,door knob1,door knob10,40.0,20.0,Brass_Door_Handle.jpg,c02a578d-c6cc-44ca-8dd2-de8901e30bd7_4.jpg,/static/Category_learning/Stimuli/Experimental_stims/door knob/Brass_Door_Handle.jpg,/static/Category_learning/Stimuli/Experimental_stims/door knob/c02a578d-c6cc-44ca-8dd2-de8901e30bd7_4.jpg,0.0,door knob,door knob,40.0,40.0,door knob10,door knob1,20.0,40.0,0.0,199.5,0.508,
198,,confirmation,,html-keyboard-response,198,276680,0.0-1.0-37.0-0.0-1.0-0.0,0,0,77,,,,,,35.0,,,,,1.0,,,,,,,,,,,,,,,,,,,,,,,,,,,200.008,0.992,
199,,isi,,html-keyboard-response,199,277686,0.0-1.0-37.0-0.0-2.0,0,0,77,,,,,,35.0,,,,,1.0,,,,,,,,,,,,,,,,,,,,,,,,,,,201.0,1.0,
200,,feedback,,html-keyboard-response,200,278691,0.0-1.0-37.0-0.0-3.0-0.0,0,0,77,,,,,,35.0,,,,,1.0,,,,,,,,,,,,,,,,,,,,,,,,,,,202.0,1.0,
201,,iti,,html-keyboard-response,201,280200,0.0-1.0-37.0-0.0-5.0,0,0,77,,,,,,35.0,,,,,1.0,,,,,,,,,,,,,,,,,,,,,,,,,,,203.0,1.5,
202,,choice,,html-keyboard-response,202,280837,0.0-1.0-38.0-0.0-0.0,0,0,77,,632.0,,,51.0,36.0,36.0,3000.0,3500.0,0.0,1.0,1.0,20-20,1.0,,vase,vase,20.0,20.0,vase12,vase4,0.0,40.0,Abluevase2.jpg,Avase111.jpg,/static/Category_learning/Stimuli/Experimental_stims/vase/Abluevase2.jpg,/static/Category_learning/Stimuli/Experimental_stims/vase/Avase111.jpg,0.0,vase,vase,20.0,20.0,vase4,vase12,40.0,0.0,0.0,204.5,0.632,
203,,confirmation,,html-keyboard-response,203,281711,0.0-1.0-38.0-0.0-1.0-0.0,0,0,77,,,,,,36.0,,,,,1.0,,,,,,,,,,,,,,,,,,,,,,,,,,,205.132,0.868,
204,,isi,,html-keyboard-response,204,284716,0.0-1.0-38.0-0.0-2.0,0,0,77,,,,,,36.0,,,,,1.0,,,,,,,,,,,,,,,,,,,,,,,,,,,206.0,3.0,
205,,feedback,,html-keyboard-response,205,285726,0.0-1.0-38.0-0.0-3.0-0.0,0,0,77,,,,,,36.0,,,,,1.0,,,,,,,,,,,,,,,,,,,,,,,,,,,209.0,1.0,
206,,iti,,html-keyboard-response,206,289233,0.0-1.0-38.0-0.0-5.0,0,0,77,,,,,,36.0,,,,,1.0,,,,,,,,,,,,,,,,,,,,,,,,,,,210.0,3.5,
207,,choice,,html-keyboard-response,207,290739,0.0-1.0-39.0-0.0-0.0,0,0,77,,,,,,37.0,37.0,2000.0,1000.0,0.0,1.0,0.0,40-80,,1.0,necklace,flashlight,80.0,40.0,necklace10,flashlight6,60.0,40.0,necklascenew03.jpg,Flashlight.jpg,/static/Category_learning/Stimuli/Experimental_stims/necklace/necklascenew03.jpg,/static/Category_learning/Stimuli/Experimental_stims/flashlight/Flashlight.jpg,,,,,,,,,,1.0,213.5,1.5,
208,,isi,,html-keyboard-response,208,292744,0.0-1.0-39.0-0.0-2.0,0,0,77,,,,,,37.0,,,,,1.0,,,,,,,,,,,,,,,,,,,,,,,,,,,215.0,2.0,
209,,no_response,,html-keyboard-response,209,293753,0.0-1.0-39.0-0.0-4.0-0.0,0,0,77,,,,,,37.0,,,,,1.0,,,,,,,,,,,,,,,,,,,,,,,,,,,217.0,1.0,
210,,iti,,html-keyboard-response,210,294776,0.0-1.0-39.0-0.0-5.0,0,0,77,,,,,,37.0,,,,,1.0,,,,,,,,,,,,,,,,,,,,,,,,,,,218.0,1.0,
211,,choice,,html-keyboard-response,211,296184,0.0-1.0-39.0-0.1-0.1,0,0,77,,1404.0,,,51.0,37.0,37.0,2000.0,1000.0,0.0,1.0,0.0,40-80,,1.0,necklace,flashlight,80.0,40.0,necklace10,flashlight6,60.0,40.0,necklascenew03.jpg,Flashlight.jpg,/static/Category_learning/Stimuli/Experimental_stims/necklace/necklascenew03.jpg,/static/Category_learning/Stimuli/Experimental_stims/flashlight/Flashlight.jpg,0.0,flashlight,necklace,40.0,80.0,flashlight6,necklace10,40.0,60.0,0.0,219.0,1.404,
212,,confirmation,,html-keyboard-response,212,296286,0.0-1.0-39.0-0.1-1.1-0.1,0,0,77,,,,,,37.0,,,,,1.0,,,,,,,,,,,,,,,,,,,,,,,,,,,220.404,0.096,
213,,isi,,html-keyboard-response,213,297793,0.0-1.0-39.0-0.1-2.1,0,0,77,,,,,,37.0,,,,,1.0,,,,,,,,,,,,,,,,,,,,,,,,,,,220.5,1.5,
214,,feedback,,html-keyboard-response,214,298798,0.0-1.0-39.0-0.1-3.1-0.1,0,0,77,,,,,,37.0,,,,,1.0,,,,,,,,,,,,,,,,,,,,,,,,,,,222.0,1.0,
215,,iti,,html-keyboard-response,215,299807,0.0-1.0-39.0-0.1-5.1,0,0,77,,,,,,37.0,,,,,1.0,,,,,,,,,,,,,,,,,,,,,,,,,,,223.0,1.0,
216,,choice,,html-keyboard-response,216,300449,0.0-1.0-40.0-0.0-0.0,0,0,77,,638.0,,,51.0,38.0,38.0,1000.0,1000.0,0.0,1.0,1.0,40-40,0.0,,bench,bongo,40.0,40.0,bench12,bongo3,20.0,60.0,22927976.thl.jpg,26390697.thl.jpg,/static/Category_learning/Stimuli/Experimental_stims/bench/22927976.thl.jpg,/static/Category_learning/Stimuli/Experimental_stims/bongo/26390697.thl.jpg,0.0,bongo,bench,40.0,40.0,bongo3,bench12,60.0,20.0,0.0,224.0,0.638,
217,,confirmation,,html-keyboard-response,217,301316,0.0-1.0-40.0-0.0-1.0-0.0,0,0,77,,,,,,38.0,,,,,1.0,,,,,,,,,,,,,,,,,,,,,,,,,,,224.638,0.862,
218,,isi,,html-keyboard-response,218,302321,0.0-1.0-40.0-0.0-2.0,0,0,77,,,,,,38.0,,,,,1.0,,,,,,,,,,,,,,,,,,,,,,,,,,,225.5,1.0,
219,,feedback,,html-keyboard-response,219,303328,0.0-1.0-40.0-0.0-3.0-0.0,0,0,77,,,,,,38.0,,,,,1.0,,,,,,,,,,,,,,,,,,,,,,,,,,,226.5,1.0,
220,,iti,,html-keyboard-response,220,304333,0.0-1.0-40.0-0.0-5.0,0,0,77,,,,,,38.0,,,,,1.0,,,,,,,,,,,,,,,,,,,,,,,,,,,227.5,1.0,
221,,choice,,html-keyboard-response,221,305002,0.0-1.0-41.0-0.0-0.0,0,0,77,,666.0,,,51.0,39.0,39.0,1000.0,1500.0,0.0,1.0,0.0,20-60,,1.0,hat,stool,60.0,20.0,hat1,stool8,60.0,0.0,AGREENHAT.jpg,ASTOOL33.jpg,/static/Category_learning/Stimuli/Experimental_stims/hat/AGREENHAT.jpg,/static/Category_learning/Stimuli/Experimental_stims/stool/ASTOOL33.jpg,0.0,stool,hat,20.0,60.0,stool8,hat1,0.0,60.0,0.0,228.5,0.666,
222,,confirmation,,html-keyboard-response,222,305842,0.0-1.0-41.0-0.0-1.0-0.0,0,0,77,,,,,,39.0,,,,,1.0,,,,,,,,,,,,,,,,,,,,,,,,,,,229.166,0.834,
223,,isi,,html-keyboard-response,223,306852,0.0-1.0-41.0-0.0-2.0,0,0,77,,,,,,39.0,,,,,1.0,,,,,,,,,,,,,,,,,,,,,,,,,,,230.0,1.0,
224,,feedback,,html-keyboard-response,224,307858,0.0-1.0-41.0-0.0-3.0-0.0,0,0,77,,,,,,39.0,,,,,1.0,,,,,,,,,,,,,,,,,,,,,,,,,,,231.0,1.0,
225,,iti,,html-keyboard-response,225,309364,0.0-1.0-41.0-0.0-5.0,0,0,77,,,,,,39.0,,,,,1.0,,,,,,,,,,,,,,,,,,,,,,,,,,,232.0,1.5,
226,,choice,,html-keyboard-response,226,309818,0.0-1.0-42.0-0.0-0.0,0,0,77,,449.0,,,51.0,40.0,40.0,1000.0,3500.0,0.0,1.0,0.0,20-80,,0.0,tape,power strip,20.0,80.0,tape9,power strip10,40.0,80.0,desk tape disp.jpg,6bd437c9-6165-4d36-bf75-9a1038783c6a_400.jpg,/static/Category_learning/Stimuli/Experimental_stims/tape/desk tape disp.jpg,/static/Category_learning/Stimuli/Experimental_stims/power strip/6bd437c9-6165-4d36-bf75-9a1038783c6a_400.jpg,0.0,power strip,tape,80.0,20.0,power strip10,tape9,80.0,40.0,0.0,233.5,0.449,
227,,confirmation,,html-keyboard-response,227,310873,0.0-1.0-42.0-0.0-1.0-0.0,0,0,77,,,,,,40.0,,,,,1.0,,,,,,,,,,,,,,,,,,,,,,,,,,,233.949,1.051,
228,,isi,,html-keyboard-response,228,311880,0.0-1.0-42.0-0.0-2.0,0,0,77,,,,,,40.0,,,,,1.0,,,,,,,,,,,,,,,,,,,,,,,,,,,235.0,1.0,
229,,feedback,,html-keyboard-response,229,312886,0.0-1.0-42.0-0.0-3.0-0.0,0,0,77,,,,,,40.0,,,,,1.0,,,,,,,,,,,,,,,,,,,,,,,,,,,236.0,1.0,
230,,iti,,html-keyboard-response,230,316392,0.0-1.0-42.0-0.0-5.0,0,0,77,,,,,,40.0,,,,,1.0,,,,,,,,,,,,,,,,,,,,,,,,,,,237.0,3.5,
231,,choice,,html-keyboard-response,231,317011,0.0-1.0-43.0-0.0-0.0,0,0,77,,615.0,,,51.0,41.0,41.0,1500.0,1000.0,0.0,1.0,0.0,20-80,,0.0,tape,poker card,20.0,80.0,tape12,poker card4,40.0,60.0,Frog-Tape-Dispenser_F02218A2.jpg,22864728.thl.jpg,/static/Category_learning/Stimuli/Experimental_stims/tape/Frog-Tape-Dispenser_F02218A2.jpg,/static/Category_learning/Stimuli/Experimental_stims/poker card/22864728.thl.jpg,0.0,poker card,tape,80.0,20.0,poker card4,tape12,60.0,40.0,0.0,240.5,0.615,
232,,confirmation,,html-keyboard-response,232,317901,0.0-1.0-43.0-0.0-1.0-0.0,0,0,77,,,,,,41.0,,,,,1.0,,,,,,,,,,,,,,,,,,,,,,,,,,,241.115,0.885,
233,,isi,,html-keyboard-response,233,319410,0.0-1.0-43.0-0.0-2.0,0,0,77,,,,,,41.0,,,,,1.0,,,,,,,,,,,,,,,,,,,,,,,,,,,242.0,1.5,
234,,feedback,,html-keyboard-response,234,320416,0.0-1.0-43.0-0.0-3.0-0.0,0,0,77,,,,,,41.0,,,,,1.0,,,,,,,,,,,,,,,,,,,,,,,,,,,243.5,1.0,
235,,iti,,html-keyboard-response,235,321419,0.0-1.0-43.0-0.0-5.0,0,0,77,,,,,,41.0,,,,,1.0,,,,,,,,,,,,,,,,,,,,,,,,,,,244.5,1.0,
236,,choice,,html-keyboard-response,236,321997,0.0-1.0-44.0-0.0-0.0,0,0,77,,573.0,,,51.0,42.0,42.0,2000.0,3500.0,0.0,1.0,0.0,20-80,,1.0,power strip,telescope,80.0,20.0,power strip13,telescope2,100.0,40.0,01dccef1-d4b2-4d2e-a317-f2ed46b70b4b_400.jpg,Brass-telescope-60700.jpg,/static/Category_learning/Stimuli/Experimental_stims/power strip/01dccef1-d4b2-4d2e-a317-f2ed46b70b4b_400.jpg,/static/Category_learning/Stimuli/Experimental_stims/telescope/Brass-telescope-60700.jpg,0.0,telescope,power strip,20.0,80.0,telescope2,power strip13,40.0,100.0,0.0,245.5,0.573,
237,,confirmation,,html-keyboard-response,237,322930,0.0-1.0-44.0-0.0-1.0-0.0,0,0,77,,,,,,42.0,,,,,1.0,,,,,,,,,,,,,,,,,,,,,,,,,,,246.073,0.927,
238,,isi,,html-keyboard-response,238,324937,0.0-1.0-44.0-0.0-2.0,0,0,77,,,,,,42.0,,,,,1.0,,,,,,,,,,,,,,,,,,,,,,,,,,,247.0,2.0,
239,,feedback,,html-keyboard-response,239,325946,0.0-1.0-44.0-0.0-3.0-0.0,0,0,77,,,,,,42.0,,,,,1.0,,,,,,,,,,,,,,,,,,,,,,,,,,,249.0,1.0,
240,,iti,,html-keyboard-response,240,329454,0.0-1.0-44.0-0.0-5.0,0,0,77,,,,,,42.0,,,,,1.0,,,,,,,,,,,,,,,,,,,,,,,,,,,250.0,3.5,
241,,choice,,html-keyboard-response,241,330126,0.0-1.0-45.0-0.0-0.0,0,0,77,,668.0,,,51.0,43.0,43.0,1000.0,2000.0,0.0,1.0,0.0,20-60,,0.0,yarn,makeup compact,20.0,60.0,yarn2,makeup compact6,20.0,80.0,Aballofyarn66.jpg,P0754_hero.jpg,/static/Category_learning/Stimuli/Experimental_stims/yarn/Aballofyarn66.jpg,/static/Category_learning/Stimuli/Experimental_stims/makeup compact/P0754_hero.jpg,0.0,makeup compact,yarn,60.0,20.0,makeup compact6,yarn2,80.0,20.0,0.0,253.5,0.668,
242,,confirmation,,html-keyboard-response,242,330962,0.0-1.0-45.0-0.0-1.0-0.0,0,0,77,,,,,,43.0,,,,,1.0,,,,,,,,,,,,,,,,,,,,,,,,,,,254.168,0.832,
243,,isi,,html-keyboard-response,243,331968,0.0-1.0-45.0-0.0-2.0,0,0,77,,,,,,43.0,,,,,1.0,,,,,,,,,,,,,,,,,,,,,,,,,,,255.0,1.0,
244,,feedback,,html-keyboard-response,244,332976,0.0-1.0-45.0-0.0-3.0-0.0,0,0,77,,,,,,43.0,,,,,1.0,,,,,,,,,,,,,,,,,,,,,,,,,,,256.0,1.0,
245,,iti,,html-keyboard-response,245,334979,0.0-1.0-45.0-0.0-5.0,0,0,77,,,,,,43.0,,,,,1.0,,,,,,,,,,,,,,,,,,,,,,,,,,,257.0,2.0,
246,,choice,,html-keyboard-response,246,335681,0.0-1.0-46.0-0.0-0.0,0,0,77,,697.0,,,51.0,44.0,44.0,1000.0,1000.0,0.0,1.0,0.0,20-60,,0.0,stool,makeup compact,20.0,60.0,stool15,makeup compact3,20.0,40.0,ASTOOL.jpg,P181006_hero.jpg,/static/Category_learning/Stimuli/Experimental_stims/stool/ASTOOL.jpg,/static/Category_learning/Stimuli/Experimental_stims/makeup compact/P181006_hero.jpg,0.0,makeup compact,stool,60.0,20.0,makeup compact3,stool15,40.0,20.0,0.0,259.0,0.697,
247,,confirmation,,html-keyboard-response,247,336488,0.0-1.0-46.0-0.0-1.0-0.0,0,0,77,,,,,,44.0,,,,,1.0,,,,,,,,,,,,,,,,,,,,,,,,,,,259.697,0.803,
248,,isi,,html-keyboard-response,248,337495,0.0-1.0-46.0-0.0-2.0,0,0,77,,,,,,44.0,,,,,1.0,,,,,,,,,,,,,,,,,,,,,,,,,,,260.5,1.0,
249,,feedback,,html-keyboard-response,249,338500,0.0-1.0-46.0-0.0-3.0-0.0,0,0,77,,,,,,44.0,,,,,1.0,,,,,,,,,,,,,,,,,,,,,,,,,,,261.5,1.0,
250,,iti,,html-keyboard-response,250,339504,0.0-1.0-46.0-0.0-5.0,0,0,77,,,,,,44.0,,,,,1.0,,,,,,,,,,,,,,,,,,,,,,,,,,,262.5,1.0,
251,,choice,,html-keyboard-response,251,340223,0.0-1.0-47.0-0.0-0.0,0,0,77,,714.0,,,51.0,45.0,45.0,1000.0,1000.0,0.0,1.0,0.0,20-20,,,tape,watch,20.0,20.0,tape6,watch15,40.0,40.0,1912.jpg,20-171-6.jpg,/static/Category_learning/Stimuli/Experimental_stims/tape/1912.jpg,/static/Category_learning/Stimuli/Experimental_stims/watch/20-171-6.jpg,0.0,watch,tape,20.0,20.0,watch15,tape6,40.0,40.0,0.0,263.5,0.714,
252,,confirmation,,html-keyboard-response,252,341014,0.0-1.0-47.0-0.0-1.0-0.0,0,0,77,,,,,,45.0,,,,,1.0,,,,,,,,,,,,,,,,,,,,,,,,,,,264.214,0.786,
253,,isi,,html-keyboard-response,253,342021,0.0-1.0-47.0-0.0-2.0,0,0,77,,,,,,45.0,,,,,1.0,,,,,,,,,,,,,,,,,,,,,,,,,,,265.0,1.0,
254,,feedback,,html-keyboard-response,254,343025,0.0-1.0-47.0-0.0-3.0-0.0,0,0,77,,,,,,45.0,,,,,1.0,,,,,,,,,,,,,,,,,,,,,,,,,,,266.0,1.0,
255,,iti,,html-keyboard-response,255,344030,0.0-1.0-47.0-0.0-5.0,0,0,77,,,,,,45.0,,,,,1.0,,,,,,,,,,,,,,,,,,,,,,,,,,,267.0,1.0,
256,,choice,,html-keyboard-response,256,345536,0.0-1.0-48.0-0.0-0.0,0,0,77,,,,,,46.0,46.0,1500.0,2000.0,0.0,1.0,0.0,40-80,,1.0,nail polish,fan,80.0,40.0,nail polish6,fan1,60.0,60.0,127_t.jpg,01393.fpx.jpg,/static/Category_learning/Stimuli/Experimental_stims/nail polish/127_t.jpg,/static/Category_learning/Stimuli/Experimental_stims/fan/01393.fpx.jpg,,,,,,,,,,1.0,268.0,1.5,
257,,isi,,html-keyboard-response,257,347042,0.0-1.0-48.0-0.0-2.0,0,0,77,,,,,,46.0,,,,,1.0,,,,,,,,,,,,,,,,,,,,,,,,,,,269.5,1.5,
258,,no_response,,html-keyboard-response,258,348048,0.0-1.0-48.0-0.0-4.0-0.0,0,0,77,,,,,,46.0,,,,,1.0,,,,,,,,,,,,,,,,,,,,,,,,,,,271.0,1.0,
259,,iti,,html-keyboard-response,259,350071,0.0-1.0-48.0-0.0-5.0,0,0,77,,,,,,46.0,,,,,1.0,,,,,,,,,,,,,,,,,,,,,,,,,,,272.0,2.0,
260,,choice,,html-keyboard-response,260,350454,0.0-1.0-48.0-0.1-0.1,0,0,77,,378.0,,,51.0,46.0,46.0,1500.0,2000.0,0.0,1.0,0.0,40-80,,1.0,nail polish,fan,80.0,40.0,nail polish6,fan1,60.0,60.0,127_t.jpg,01393.fpx.jpg,/static/Category_learning/Stimuli/Experimental_stims/nail polish/127_t.jpg,/static/Category_learning/Stimuli/Experimental_stims/fan/01393.fpx.jpg,0.0,fan,nail polish,40.0,80.0,fan1,nail polish6,60.0,60.0,0.0,274.0,0.378,
261,,confirmation,,html-keyboard-response,261,351581,0.0-1.0-48.0-0.1-1.1-0.1,0,0,77,,,,,,46.0,,,,,1.0,,,,,,,,,,,,,,,,,,,,,,,,,,,274.378,1.122,
262,,isi,,html-keyboard-response,262,352587,0.0-1.0-48.0-0.1-2.1,0,0,77,,,,,,46.0,,,,,1.0,,,,,,,,,,,,,,,,,,,,,,,,,,,275.5,1.0,
263,,feedback,,html-keyboard-response,263,353596,0.0-1.0-48.0-0.1-3.1-0.1,0,0,77,,,,,,46.0,,,,,1.0,,,,,,,,,,,,,,,,,,,,,,,,,,,276.5,1.0,
264,,iti,,html-keyboard-response,264,355101,0.0-1.0-48.0-0.1-5.1,0,0,77,,,,,,46.0,,,,,1.0,,,,,,,,,,,,,,,,,,,,,,,,,,,277.5,1.5,
265,,choice,,html-keyboard-response,265,355273,0.0-1.0-49.0-0.0-0.0,0,0,77,,168.0,,,51.0,47.0,47.0,1500.0,2000.0,0.0,1.0,0.0,60-80,,1.0,pen,license plate,80.0,60.0,pen10,license plate8,100.0,60.0,VP-Raden-FP-L copy.jpg,dc-vrw-jsw.jpg,/static/Category_learning/Stimuli/Experimental_stims/pen/VP-Raden-FP-L copy.jpg,/static/Category_learning/Stimuli/Experimental_stims/license plate/dc-vrw-jsw.jpg,0.0,license plate,pen,60.0,80.0,license plate8,pen10,60.0,100.0,0.0,279.0,0.168,
266,,confirmation,,html-keyboard-response,266,356610,0.0-1.0-49.0-0.0-1.0-0.0,0,0,77,,,,,,47.0,,,,,1.0,,,,,,,,,,,,,,,,,,,,,,,,,,,279.168,1.332,
267,,isi,,html-keyboard-response,267,358115,0.0-1.0-49.0-0.0-2.0,0,0,77,,,,,,47.0,,,,,1.0,,,,,,,,,,,,,,,,,,,,,,,,,,,280.5,1.5,
268,,feedback,,html-keyboard-response,268,359124,0.0-1.0-49.0-0.0-3.0-0.0,0,0,77,,,,,,47.0,,,,,1.0,,,,,,,,,,,,,,,,,,,,,,,,,,,282.0,1.0,
269,,iti,,html-keyboard-response,269,361133,0.0-1.0-49.0-0.0-5.0,0,0,77,,,,,,47.0,,,,,1.0,,,,,,,,,,,,,,,,,,,,,,,,,,,283.0,2.0,
270,,choice,,html-keyboard-response,270,361594,0.0-1.0-50.0-0.0-0.0,0,0,77,,457.0,,,50.0,48.0,48.0,1500.0,1000.0,0.0,1.0,0.0,40-60,,1.0,frame,bongo,60.0,40.0,frame4,bongo11,60.0,40.0,AFRAME125.jpg,ABONGO6.jpg,/static/Category_learning/Stimuli/Experimental_stims/frame/AFRAME125.jpg,/static/Category_learning/Stimuli/Experimental_stims/bongo/ABONGO6.jpg,1.0,frame,bongo,60.0,40.0,frame4,bongo11,60.0,40.0,0.0,285.0,0.457,
271,,confirmation,,html-keyboard-response,271,362641,0.0-1.0-50.0-0.0-1.0-0.0,0,0,77,,,,,,48.0,,,,,1.0,,,,,,,,,,,,,,,,,,,,,,,,,,,285.457,1.043,
272,,isi,,html-keyboard-response,272,364148,0.0-1.0-50.0-0.0-2.0,0,0,77,,,,,,48.0,,,,,1.0,,,,,,,,,,,,,,,,,,,,,,,,,,,286.5,1.5,
273,,feedback,,html-keyboard-response,273,365155,0.0-1.0-50.0-0.0-3.0-0.0,0,0,77,,,,,,48.0,,,,,1.0,,,,,,,,,,,,,,,,,,,,,,,,,,,288.0,1.0,
274,,iti,,html-keyboard-response,274,366159,0.0-1.0-50.0-0.0-5.0,0,0,77,,,,,,48.0,,,,,1.0,,,,,,,,,,,,,,,,,,,,,,,,,,,289.0,1.0,
275,,choice,,html-keyboard-response,275,366619,0.0-1.0-51.0-0.0-0.0,0,0,77,,455.0,,,50.0,49.0,49.0,2000.0,2000.0,0.0,1.0,0.0,40-60,,0.0,dresser,lipstick,40.0,60.0,dresser3,lipstick1,20.0,80.0,ADRESSE79.jpg,P170102_hero.jpg,/static/Category_learning/Stimuli/Experimental_stims/dresser/ADRESSE79.jpg,/static/Category_learning/Stimuli/Experimental_stims/lipstick/P170102_hero.jpg,1.0,dresser,lipstick,40.0,60.0,dresser3,lipstick1,20.0,80.0,0.0,290.0,0.455,
276,,confirmation,,html-keyboard-response,276,367668,0.0-1.0-51.0-0.0-1.0-0.0,0,0,77,,,,,,49.0,,,,,1.0,,,,,,,,,,,,,,,,,,,,,,,,,,,290.455,1.045,
277,,isi,,html-keyboard-response,277,369675,0.0-1.0-51.0-0.0-2.0,0,0,77,,,,,,49.0,,,,,1.0,,,,,,,,,,,,,,,,,,,,,,,,,,,291.5,2.0,
278,,feedback,,html-keyboard-response,278,370681,0.0-1.0-51.0-0.0-3.0-0.0,0,0,77,,,,,,49.0,,,,,1.0,,,,,,,,,,,,,,,,,,,,,,,,,,,293.5,1.0,
279,,iti,,html-keyboard-response,279,372689,0.0-1.0-51.0-0.0-5.0,0,0,77,,,,,,49.0,,,,,1.0,,,,,,,,,,,,,,,,,,,,,,,,,,,294.5,2.0,
280,,choice,,html-keyboard-response,280,372945,0.0-1.0-52.0-0.0-0.0,0,0,77,,251.0,,,50.0,50.0,50.0,3500.0,1000.0,0.0,1.0,1.0,60-60,1.0,,makeup compact,makeup compact,60.0,60.0,makeup compact3,makeup compact6,40.0,80.0,P181006_hero.jpg,P0754_hero.jpg,/static/Category_learning/Stimuli/Experimental_stims/makeup compact/P181006_hero.jpg,/static/Category_learning/Stimuli/Experimental_stims/makeup compact/P0754_hero.jpg,1.0,makeup compact,makeup compact,60.0,60.0,makeup compact3,makeup compact6,40.0,80.0,0.0,296.5,0.251,
281,,confirmation,,html-keyboard-response,281,374200,0.0-1.0-52.0-0.0-1.0-0.0,0,0,77,,,,,,50.0,,,,,1.0,,,,,,,,,,,,,,,,,,,,,,,,,,,296.751,1.249,
282,,isi,,html-keyboard-response,282,377704,0.0-1.0-52.0-0.0-2.0,0,0,77,,,,,,50.0,,,,,1.0,,,,,,,,,,,,,,,,,,,,,,,,,,,298.0,3.5,
283,,feedback,,html-keyboard-response,283,378714,0.0-1.0-52.0-0.0-3.0-0.0,0,0,77,,,,,,50.0,,,,,1.0,,,,,,,,,,,,,,,,,,,,,,,,,,,301.5,1.0,
284,,iti,,html-keyboard-response,284,379720,0.0-1.0-52.0-0.0-5.0,0,0,77,,,,,,50.0,,,,,1.0,,,,,,,,,,,,,,,,,,,,,,,,,,,302.5,1.0,
285,,choice,,html-keyboard-response,285,380894,0.0-1.0-53.0-0.0-0.0,0,0,77,,1169.0,,,50.0,51.0,51.0,2000.0,1000.0,0.0,1.0,0.0,60-60,,,makeup compact,microscope,60.0,60.0,makeup compact5,microscope3,40.0,40.0,P109965_hero.jpg,APDB.jpg,/static/Category_learning/Stimuli/Experimental_stims/makeup compact/P109965_hero.jpg,/static/Category_learning/Stimuli/Experimental_stims/microscope/APDB.jpg,1.0,makeup compact,microscope,60.0,60.0,makeup compact5,microscope3,40.0,40.0,0.0,303.5,1.169,
286,,confirmation,,html-keyboard-response,286,381229,0.0-1.0-53.0-0.0-1.0-0.0,0,0,77,,,,,,51.0,,,,,1.0,,,,,,,,,,,,,,,,,,,,,,,,,,,304.669,0.331,
287,,isi,,html-keyboard-response,287,383237,0.0-1.0-53.0-0.0-2.0,0,0,77,,,,,,51.0,,,,,1.0,,,,,,,,,,,,,,,,,,,,,,,,,,,305.0,2.0,
288,,feedback,,html-keyboard-response,288,384245,0.0-1.0-53.0-0.0-3.0-0.0,0,0,77,,,,,,51.0,,,,,1.0,,,,,,,,,,,,,,,,,,,,,,,,,,,307.0,1.0,
289,,iti,,html-keyboard-response,289,385253,0.0-1.0-53.0-0.0-5.0,0,0,77,,,,,,51.0,,,,,1.0,,,,,,,,,,,,,,,,,,,,,,,,,,,308.0,1.0,
290,,choice,,html-keyboard-response,290,386759,0.0-1.0-54.0-0.0-0.0,0,0,77,,,,,,52.0,52.0,1000.0,1500.0,0.0,1.0,0.0,40-80,,0.0,baby carriage,necklace,40.0,80.0,baby carriage9,necklace2,20.0,80.0,Antique baby Carriage 7.jpg,Anecklace7.jpg,/static/Category_learning/Stimuli/Experimental_stims/baby carriage/Antique baby Carriage 7.jpg,/static/Category_learning/Stimuli/Experimental_stims/necklace/Anecklace7.jpg,,,,,,,,,,1.0,309.0,1.5,
291,,isi,,html-keyboard-response,291,387768,0.0-1.0-54.0-0.0-2.0,0,0,77,,,,,,52.0,,,,,1.0,,,,,,,,,,,,,,,,,,,,,,,,,,,310.5,1.0,
292,,no_response,,html-keyboard-response,292,388773,0.0-1.0-54.0-0.0-4.0-0.0,0,0,77,,,,,,52.0,,,,,1.0,,,,,,,,,,,,,,,,,,,,,,,,,,,311.5,1.0,
293,,iti,,html-keyboard-response,293,391254,0.0-1.0-54.0-0.0-5.0,0,0,77,,,,,,52.0,,,,,1.0,,,,,,,,,,,,,,,,,,,,,,,,,,,312.5,1.5,
294,,choice,,html-keyboard-response,294,393327,0.0-1.0-54.0-0.1-0.1,0,0,77,,,,,,52.0,52.0,1000.0,1500.0,0.0,1.0,0.0,40-80,,0.0,baby carriage,necklace,40.0,80.0,baby carriage9,necklace2,20.0,80.0,Antique baby Carriage 7.jpg,Anecklace7.jpg,/static/Category_learning/Stimuli/Experimental_stims/baby carriage/Antique baby Carriage 7.jpg,/static/Category_learning/Stimuli/Experimental_stims/necklace/Anecklace7.jpg,,,,,,,,,,1.0,314.0,1.5,
295,,isi,,html-keyboard-response,295,396256,0.0-1.0-54.0-0.1-2.1,0,0,77,,,,,,52.0,,,,,1.0,,,,,,,,,,,,,,,,,,,,,,,,,,,315.5,2.0,
296,,no_response,,html-keyboard-response,296,398253,0.0-1.0-54.0-0.1-4.1-0.1,0,0,77,,,,,,52.0,,,,,1.0,,,,,,,,,,,,,,,,,,,,,,,,,,,317.5,1.0,
297,,iti,,html-keyboard-response,297,401255,0.0-1.0-54.0-0.1-5.1,0,0,77,,,,,,52.0,,,,,1.0,,,,,,,,,,,,,,,,,,,,,,,,,,,318.5,2.0,
298,,choice,,html-keyboard-response,298,403260,0.0-1.0-54.0-0.2-0.2,0,0,77,,,,,,52.0,52.0,1000.0,1500.0,0.0,1.0,0.0,40-80,,0.0,baby carriage,necklace,40.0,80.0,baby carriage9,necklace2,20.0,80.0,Antique baby Carriage 7.jpg,Anecklace7.jpg,/static/Category_learning/Stimuli/Experimental_stims/baby carriage/Antique baby Carriage 7.jpg,/static/Category_learning/Stimuli/Experimental_stims/necklace/Anecklace7.jpg,,,,,,,,,,1.0,320.5,1.5,
299,,isi,,html-keyboard-response,299,406266,0.0-1.0-54.0-0.2-2.2,0,0,77,,,,,,52.0,,,,,1.0,,,,,,,,,,,,,,,,,,,,,,,,,,,322.0,3.0,
300,,no_response,,html-keyboard-response,300,407273,0.0-1.0-54.0-0.2-4.2-0.2,0,0,77,,,,,,52.0,,,,,1.0,,,,,,,,,,,,,,,,,,,,,,,,,,,325.0,1.0,
301,,iti,,html-keyboard-response,301,408294,0.0-1.0-54.0-0.2-5.2,0,0,77,,,,,,52.0,,,,,1.0,,,,,,,,,,,,,,,,,,,,,,,,,,,326.0,1.0,
302,,choice,,html-keyboard-response,302,409801,0.0-1.0-54.0-0.3-0.3,0,0,77,,,,,,52.0,52.0,1000.0,1500.0,0.0,1.0,0.0,40-80,,0.0,baby carriage,necklace,40.0,80.0,baby carriage9,necklace2,20.0,80.0,Antique baby Carriage 7.jpg,Anecklace7.jpg,/static/Category_learning/Stimuli/Experimental_stims/baby carriage/Antique baby Carriage 7.jpg,/static/Category_learning/Stimuli/Experimental_stims/necklace/Anecklace7.jpg,,,,,,,,,,1.0,327.0,1.5,
303,,isi,,html-keyboard-response,303,410807,0.0-1.0-54.0-0.3-2.3,0,0,77,,,,,,52.0,,,,,1.0,,,,,,,,,,,,,,,,,,,,,,,,,,,328.5,1.0,
304,,no_response,,html-keyboard-response,304,411815,0.0-1.0-54.0-0.3-4.3-0.3,0,0,77,,,,,,52.0,,,,,1.0,,,,,,,,,,,,,,,,,,,,,,,,,,,329.5,1.0,
305,,iti,,html-keyboard-response,305,414839,0.0-1.0-54.0-0.3-5.3,0,0,77,,,,,,52.0,,,,,1.0,,,,,,,,,,,,,,,,,,,,,,,,,,,330.5,3.0,
306,,choice,,html-keyboard-response,306,415246,0.0-1.0-54.0-0.4-0.4,0,0,77,,403.0,,,50.0,52.0,52.0,1000.0,1500.0,0.0,1.0,0.0,40-80,,0.0,baby carriage,necklace,40.0,80.0,baby carriage9,necklace2,20.0,80.0,Antique baby Carriage 7.jpg,Anecklace7.jpg,/static/Category_learning/Stimuli/Experimental_stims/baby carriage/Antique baby Carriage 7.jpg,/static/Category_learning/Stimuli/Experimental_stims/necklace/Anecklace7.jpg,1.0,baby carriage,necklace,40.0,80.0,baby carriage9,necklace2,20.0,80.0,0.0,333.5,0.403,
307,,confirmation,,html-keyboard-response,307,416348,0.0-1.0-54.0-0.4-1.4-0.4,0,0,77,,,,,,52.0,,,,,1.0,,,,,,,,,,,,,,,,,,,,,,,,,,,333.903,1.097,
308,,isi,,html-keyboard-response,308,417354,0.0-1.0-54.0-0.4-2.4,0,0,77,,,,,,52.0,,,,,1.0,,,,,,,,,,,,,,,,,,,,,,,,,,,335.0,1.0,
309,,feedback,,html-keyboard-response,309,418360,0.0-1.0-54.0-0.4-3.4-0.4,0,0,77,,,,,,52.0,,,,,1.0,,,,,,,,,,,,,,,,,,,,,,,,,,,336.0,1.0,
310,,iti,,html-keyboard-response,310,421364,0.0-1.0-54.0-0.4-5.4,0,0,77,,,,,,52.0,,,,,1.0,,,,,,,,,,,,,,,,,,,,,,,,,,,337.0,3.0,
311,,choice,,html-keyboard-response,311,421368,0.0-1.0-55.0-0.0-0.0,0,0,77,,0.0,,,50.0,53.0,53.0,2000.0,1500.0,0.0,1.0,0.0,20-80,,0.0,watch,small table,20.0,80.0,watch12,small table12,40.0,80.0,snl003_MED.jpg,ATABLE54.jpg,/static/Category_learning/Stimuli/Experimental_stims/watch/snl003_MED.jpg,/static/Category_learning/Stimuli/Experimental_stims/small table/ATABLE54.jpg,1.0,watch,small table,20.0,80.0,watch12,small table12,40.0,80.0,0.0,340.0,0.0,
312,,confirmation,,html-keyboard-response,312,422873,0.0-1.0-55.0-0.0-1.0-0.0,0,0,77,,,,,,53.0,,,,,1.0,,,,,,,,,,,,,,,,,,,,,,,,,,,340.0,1.5,
313,,isi,,html-keyboard-response,313,424882,0.0-1.0-55.0-0.0-2.0,0,0,77,,,,,,53.0,,,,,1.0,,,,,,,,,,,,,,,,,,,,,,,,,,,341.5,2.0,
314,,feedback,,html-keyboard-response,314,425888,0.0-1.0-55.0-0.0-3.0-0.0,0,0,77,,,,,,53.0,,,,,1.0,,,,,,,,,,,,,,,,,,,,,,,,,,,343.5,1.0,
315,,iti,,html-keyboard-response,315,427396,0.0-1.0-55.0-0.0-5.0,0,0,77,,,,,,53.0,,,,,1.0,,,,,,,,,,,,,,,,,,,,,,,,,,,344.5,1.5,
316,,choice,,html-keyboard-response,316,427838,0.0-1.0-56.0-0.0-0.0,0,0,77,,437.0,,,50.0,54.0,54.0,1000.0,2000.0,0.0,1.0,1.0,20-20,1.0,,watch,watch,20.0,20.0,watch15,watch12,40.0,40.0,20-171-6.jpg,snl003_MED.jpg,/static/Category_learning/Stimuli/Experimental_stims/watch/20-171-6.jpg,/static/Category_learning/Stimuli/Experimental_stims/watch/snl003_MED.jpg,1.0,watch,watch,20.0,20.0,watch15,watch12,40.0,40.0,0.0,346.0,0.437,
317,,confirmation,,html-keyboard-response,317,428906,0.0-1.0-56.0-0.0-1.0-0.0,0,0,77,,,,,,54.0,,,,,1.0,,,,,,,,,,,,,,,,,,,,,,,,,,,346.437,1.063,
318,,isi,,html-keyboard-response,318,429912,0.0-1.0-56.0-0.0-2.0,0,0,77,,,,,,54.0,,,,,1.0,,,,,,,,,,,,,,,,,,,,,,,,,,,347.5,1.0,
319,,feedback,,html-keyboard-response,319,430921,0.0-1.0-56.0-0.0-3.0-0.0,0,0,77,,,,,,54.0,,,,,1.0,,,,,,,,,,,,,,,,,,,,,,,,,,,348.5,1.0,
320,,iti,,html-keyboard-response,320,432930,0.0-1.0-56.0-0.0-5.0,0,0,77,,,,,,54.0,,,,,1.0,,,,,,,,,,,,,,,,,,,,,,,,,,,349.5,2.0,
321,,block_over,,html-keyboard-response,321,170502375,0.0-1.0-56.0-0.0-7.0-0.0,0,0,77,,170069434.0,,,83.0,54.0,,,,,,,,,,,,,,,,,,,,,,,,,,,,,,,,,,
322,,start_run,,html-keyboard-response,322,170505501,0.0-1.0-56.0-0.0-7.0-1.0,0,0,77,,3112.0,,,84.0,,,,,,,,,,,,,,,,,,,,,,,,,,,,,,,,,,,
323,,choice,,html-keyboard-response,323,170506521,0.0-1.0-57.0-0.0-0.0,0,0,77,,1013.0,,,50.0,55.0,65.0,1000.0,1500.0,0.0,2.0,0.0,20-60,,0.0,tent,hammer,20.0,60.0,tent10,hammer4,0.0,60.0,TENT-DUTCH-GD1-1.jpg,hammernew01.jpg,/static/Category_learning/Stimuli/Experimental_stims/tent/TENT-DUTCH-GD1-1.jpg,/static/Category_learning/Stimuli/Experimental_stims/hammer/hammernew01.jpg,1.0,tent,hammer,20.0,60.0,tent10,hammer4,0.0,60.0,0.0,0.0,1.013,
324,,confirmation,,html-keyboard-response,324,170507017,0.0-1.0-57.0-0.0-1.0-0.0,0,0,77,,,,,,55.0,,,,,2.0,,,,,,,,,,,,,,,,,,,,,,,,,,,1.013,0.487,
325,,isi,,html-keyboard-response,325,170508023,0.0-1.0-57.0-0.0-2.0,0,0,77,,,,,,55.0,,,,,2.0,,,,,,,,,,,,,,,,,,,,,,,,,,,1.5,1.0,
326,,feedback,,html-keyboard-response,326,170509029,0.0-1.0-57.0-0.0-3.0-0.0,0,0,77,,,,,,55.0,,,,,2.0,,,,,,,,,,,,,,,,,,,,,,,,,,,2.5,1.0,
327,,iti,,html-keyboard-response,327,170510536,0.0-1.0-57.0-0.0-5.0,0,0,77,,,,,,55.0,,,,,2.0,,,,,,,,,,,,,,,,,,,,,,,,,,,3.5,1.5,
328,,choice,,html-keyboard-response,328,170510684,0.0-1.0-58.0-0.0-0.0,0,0,77,,144.0,,,50.0,56.0,66.0,3000.0,1000.0,0.0,2.0,0.0,40-80,,1.0,patio lounge chair,bench,80.0,40.0,patio lounge chair11,bench3,100.0,20.0,51830.jpg,26419540.thl.jpg,/static/Category_learning/Stimuli/Experimental_stims/patio lounge chair/51830.jpg,/static/Category_learning/Stimuli/Experimental_stims/bench/26419540.thl.jpg,1.0,patio lounge chair,bench,80.0,40.0,patio lounge chair11,bench3,100.0,20.0,0.0,5.0,0.144,
329,,confirmation,,html-keyboard-response,329,170512046,0.0-1.0-58.0-0.0-1.0-0.0,0,0,77,,,,,,56.0,,,,,2.0,,,,,,,,,,,,,,,,,,,,,,,,,,,5.144,1.356,
330,,isi,,html-keyboard-response,330,170515052,0.0-1.0-58.0-0.0-2.0,0,0,77,,,,,,56.0,,,,,2.0,,,,,,,,,,,,,,,,,,,,,,,,,,,6.5,3.0,
331,,feedback,,html-keyboard-response,331,170516056,0.0-1.0-58.0-0.0-3.0-0.0,0,0,77,,,,,,56.0,,,,,2.0,,,,,,,,,,,,,,,,,,,,,,,,,,,9.5,1.0,
332,,iti,,html-keyboard-response,332,170517065,0.0-1.0-58.0-0.0-5.0,0,0,77,,,,,,56.0,,,,,2.0,,,,,,,,,,,,,,,,,,,,,,,,,,,10.5,1.0,
333,,choice,,html-keyboard-response,333,170517230,0.0-1.0-59.0-0.0-0.0,0,0,77,,159.0,,,50.0,57.0,67.0,1500.0,1500.0,0.0,2.0,0.0,20-20,,,trumpet,watch,20.0,20.0,trumpet12,watch6,40.0,20.0,hornabariton.jpg,B0000X04VC.01-A4LKQQKJ91IUZ._AA280_SCLZZZZZZZ_.jpg,/static/Category_learning/Stimuli/Experimental_stims/trumpet/hornabariton.jpg,/static/Category_learning/Stimuli/Experimental_stims/watch/B0000X04VC.01-A4LKQQKJ91IUZ._AA280_SCLZZZZZZZ_.jpg,1.0,trumpet,watch,20.0,20.0,trumpet12,watch6,40.0,20.0,0.0,11.5,0.159,
334,,confirmation,,html-keyboard-response,334,170518576,0.0-1.0-59.0-0.0-1.0-0.0,0,0,77,,,,,,57.0,,,,,2.0,,,,,,,,,,,,,,,,,,,,,,,,,,,11.659,1.341,
335,,isi,,html-keyboard-response,335,170520083,0.0-1.0-59.0-0.0-2.0,0,0,77,,,,,,57.0,,,,,2.0,,,,,,,,,,,,,,,,,,,,,,,,,,,13.0,1.5,
336,,feedback,,html-keyboard-response,336,170521090,0.0-1.0-59.0-0.0-3.0-0.0,0,0,77,,,,,,57.0,,,,,2.0,,,,,,,,,,,,,,,,,,,,,,,,,,,14.5,1.0,
337,,iti,,html-keyboard-response,337,170522597,0.0-1.0-59.0-0.0-5.0,0,0,77,,,,,,57.0,,,,,2.0,,,,,,,,,,,,,,,,,,,,,,,,,,,15.5,1.5,
338,,choice,,html-keyboard-response,338,170524106,0.0-1.0-60.0-0.0-0.0,0,0,77,,,,,,58.0,68.0,2000.0,1500.0,0.0,2.0,0.0,20-80,,0.0,yarn,small table,20.0,80.0,yarn1,small table8,40.0,60.0,corn_yarn.jpg,ATABLE8.jpg,/static/Category_learning/Stimuli/Experimental_stims/yarn/corn_yarn.jpg,/static/Category_learning/Stimuli/Experimental_stims/small table/ATABLE8.jpg,,,,,,,,,,1.0,17.0,1.5,
339,,isi,,html-keyboard-response,339,170526113,0.0-1.0-60.0-0.0-2.0,0,0,77,,,,,,58.0,,,,,2.0,,,,,,,,,,,,,,,,,,,,,,,,,,,18.5,2.0,
340,,no_response,,html-keyboard-response,340,170527123,0.0-1.0-60.0-0.0-4.0-0.0,0,0,77,,,,,,58.0,,,,,2.0,,,,,,,,,,,,,,,,,,,,,,,,,,,20.5,1.0,
341,,iti,,html-keyboard-response,341,170528686,0.0-1.0-60.0-0.0-5.0,0,0,77,,,,,,58.0,,,,,2.0,,,,,,,,,,,,,,,,,,,,,,,,,,,21.5,1.5,
342,,choice,,html-keyboard-response,342,170530195,0.0-1.0-60.0-0.1-0.1,0,0,77,,,,,,58.0,68.0,2000.0,1500.0,0.0,2.0,0.0,20-80,,0.0,yarn,small table,20.0,80.0,yarn1,small table8,40.0,60.0,corn_yarn.jpg,ATABLE8.jpg,/static/Category_learning/Stimuli/Experimental_stims/yarn/corn_yarn.jpg,/static/Category_learning/Stimuli/Experimental_stims/small table/ATABLE8.jpg,,,,,,,,,,1.0,23.0,1.5,
343,,isi,,html-keyboard-response,343,170533701,0.0-1.0-60.0-0.1-2.1,0,0,77,,,,,,58.0,,,,,2.0,,,,,,,,,,,,,,,,,,,,,,,,,,,24.5,3.5,
344,,no_response,,html-keyboard-response,344,170534708,0.0-1.0-60.0-0.1-4.1-0.1,0,0,77,,,,,,58.0,,,,,2.0,,,,,,,,,,,,,,,,,,,,,,,,,,,28.0,1.0,
345,,iti,,html-keyboard-response,345,170535743,0.0-1.0-60.0-0.1-5.1,0,0,77,,,,,,58.0,,,,,2.0,,,,,,,,,,,,,,,,,,,,,,,,,,,29.0,1.0,
346,,choice,,html-keyboard-response,346,170537249,0.0-1.0-60.0-0.2-0.2,0,0,77,,,,,,58.0,68.0,2000.0,1500.0,0.0,2.0,0.0,20-80,,0.0,yarn,small table,20.0,80.0,yarn1,small table8,40.0,60.0,corn_yarn.jpg,ATABLE8.jpg,/static/Category_learning/Stimuli/Experimental_stims/yarn/corn_yarn.jpg,/static/Category_learning/Stimuli/Experimental_stims/small table/ATABLE8.jpg,,,,,,,,,,1.0,30.0,1.5,
347,,isi,,html-keyboard-response,347,170538255,0.0-1.0-60.0-0.2-2.2,0,0,77,,,,,,58.0,,,,,2.0,,,,,,,,,,,,,,,,,,,,,,,,,,,31.5,1.0,
348,,no_response,,html-keyboard-response,348,170539259,0.0-1.0-60.0-0.2-4.2-0.2,0,0,77,,,,,,58.0,,,,,2.0,,,,,,,,,,,,,,,,,,,,,,,,,,,32.5,1.0,
349,,iti,,html-keyboard-response,349,170540289,0.0-1.0-60.0-0.2-5.2,0,0,77,,,,,,58.0,,,,,2.0,,,,,,,,,,,,,,,,,,,,,,,,,,,33.5,1.0,
350,,choice,,html-keyboard-response,350,170541798,0.0-1.0-60.0-0.3-0.3,0,0,77,,,,,,58.0,68.0,2000.0,1500.0,0.0,2.0,0.0,20-80,,0.0,yarn,small table,20.0,80.0,yarn1,small table8,40.0,60.0,corn_yarn.jpg,ATABLE8.jpg,/static/Category_learning/Stimuli/Experimental_stims/yarn/corn_yarn.jpg,/static/Category_learning/Stimuli/Experimental_stims/small table/ATABLE8.jpg,,,,,,,,,,1.0,34.5,1.5,
351,,isi,,html-keyboard-response,351,170542804,0.0-1.0-60.0-0.3-2.3,0,0,77,,,,,,58.0,,,,,2.0,,,,,,,,,,,,,,,,,,,,,,,,,,,36.0,1.0,
352,,no_response,,html-keyboard-response,352,170543809,0.0-1.0-60.0-0.3-4.3-0.3,0,0,77,,,,,,58.0,,,,,2.0,,,,,,,,,,,,,,,,,,,,,,,,,,,37.0,1.0,
353,,iti,,html-keyboard-response,353,170546835,0.0-1.0-60.0-0.3-5.3,0,0,77,,,,,,58.0,,,,,2.0,,,,,,,,,,,,,,,,,,,,,,,,,,,38.0,3.0,
354,,choice,,html-keyboard-response,354,170548343,0.0-1.0-60.0-0.4-0.4,0,0,77,,,,,,58.0,68.0,2000.0,1500.0,0.0,2.0,0.0,20-80,,0.0,yarn,small table,20.0,80.0,yarn1,small table8,40.0,60.0,corn_yarn.jpg,ATABLE8.jpg,/static/Category_learning/Stimuli/Experimental_stims/yarn/corn_yarn.jpg,/static/Category_learning/Stimuli/Experimental_stims/small table/ATABLE8.jpg,,,,,,,,,,1.0,41.0,1.5,
355,,isi,,html-keyboard-response,355,170551351,0.0-1.0-60.0-0.4-2.4,0,0,77,,,,,,58.0,,,,,2.0,,,,,,,,,,,,,,,,,,,,,,,,,,,42.5,3.0,
356,,no_response,,html-keyboard-response,356,170552355,0.0-1.0-60.0-0.4-4.4-0.4,0,0,77,,,,,,58.0,,,,,2.0,,,,,,,,,,,,,,,,,,,,,,,,,,,45.5,1.0,
357,,iti,,html-keyboard-response,357,170554375,0.0-1.0-60.0-0.4-5.4,0,0,77,,,,,,58.0,,,,,2.0,,,,,,,,,,,,,,,,,,,,,,,,,,,46.5,2.0,
358,,choice,,html-keyboard-response,358,170555880,0.0-1.0-60.0-0.5-0.5,0,0,77,,,,,,58.0,68.0,2000.0,1500.0,0.0,2.0,0.0,20-80,,0.0,yarn,small table,20.0,80.0,yarn1,small table8,40.0,60.0,corn_yarn.jpg,ATABLE8.jpg,/static/Category_learning/Stimuli/Experimental_stims/yarn/corn_yarn.jpg,/static/Category_learning/Stimuli/Experimental_stims/small table/ATABLE8.jpg,,,,,,,,,,1.0,48.5,1.5,
359,,isi,,html-keyboard-response,359,170557388,0.0-1.0-60.0-0.5-2.5,0,0,77,,,,,,58.0,,,,,2.0,,,,,,,,,,,,,,,,,,,,,,,,,,,50.0,1.5,
360,,no_response,,html-keyboard-response,360,170558393,0.0-1.0-60.0-0.5-4.5-0.5,0,0,77,,,,,,58.0,,,,,2.0,,,,,,,,,,,,,,,,,,,,,,,,,,,51.5,1.0,
361,,iti,,html-keyboard-response,361,170561922,0.0-1.0-60.0-0.5-5.5,0,0,77,,,,,,58.0,,,,,2.0,,,,,,,,,,,,,,,,,,,,,,,,,,,52.5,3.5,
362,,choice,,html-keyboard-response,362,170563429,0.0-1.0-60.0-0.6-0.6,0,0,77,,,,,,58.0,68.0,2000.0,1500.0,0.0,2.0,0.0,20-80,,0.0,yarn,small table,20.0,80.0,yarn1,small table8,40.0,60.0,corn_yarn.jpg,ATABLE8.jpg,/static/Category_learning/Stimuli/Experimental_stims/yarn/corn_yarn.jpg,/static/Category_learning/Stimuli/Experimental_stims/small table/ATABLE8.jpg,,,,,,,,,,1.0,56.0,1.5,
363,,isi,,html-keyboard-response,363,170564433,0.0-1.0-60.0-0.6-2.6,0,0,77,,,,,,58.0,,,,,2.0,,,,,,,,,,,,,,,,,,,,,,,,,,,57.5,1.0,
364,,no_response,,html-keyboard-response,364,170565440,0.0-1.0-60.0-0.6-4.6-0.6,0,0,77,,,,,,58.0,,,,,2.0,,,,,,,,,,,,,,,,,,,,,,,,,,,58.5,1.0,
365,,iti,,html-keyboard-response,365,170566992,0.0-1.0-60.0-0.6-5.6,0,0,77,,,,,,58.0,,,,,2.0,,,,,,,,,,,,,,,,,,,,,,,,,,,59.5,1.5,
366,,choice,,html-keyboard-response,366,170568501,0.0-1.0-60.0-0.7-0.7,0,0,77,,,,,,58.0,68.0,2000.0,1500.0,0.0,2.0,0.0,20-80,,0.0,yarn,small table,20.0,80.0,yarn1,small table8,40.0,60.0,corn_yarn.jpg,ATABLE8.jpg,/static/Category_learning/Stimuli/Experimental_stims/yarn/corn_yarn.jpg,/static/Category_learning/Stimuli/Experimental_stims/small table/ATABLE8.jpg,,,,,,,,,,1.0,61.0,1.5,
367,,isi,,html-keyboard-response,367,170569507,0.0-1.0-60.0-0.7-2.7,0,0,77,,,,,,58.0,,,,,2.0,,,,,,,,,,,,,,,,,,,,,,,,,,,62.5,1.0,
368,,no_response,,html-keyboard-response,368,170570511,0.0-1.0-60.0-0.7-4.7-0.7,0,0,77,,,,,,58.0,,,,,2.0,,,,,,,,,,,,,,,,,,,,,,,,,,,63.5,1.0,
369,,iti,,html-keyboard-response,369,170572530,0.0-1.0-60.0-0.7-5.7,0,0,77,,,,,,58.0,,,,,2.0,,,,,,,,,,,,,,,,,,,,,,,,,,,64.5,2.0,
370,,choice,,html-keyboard-response,370,170574038,0.0-1.0-60.0-0.8-0.8,0,0,77,,,,,,58.0,68.0,2000.0,1500.0,0.0,2.0,0.0,20-80,,0.0,yarn,small table,20.0,80.0,yarn1,small table8,40.0,60.0,corn_yarn.jpg,ATABLE8.jpg,/static/Category_learning/Stimuli/Experimental_stims/yarn/corn_yarn.jpg,/static/Category_learning/Stimuli/Experimental_stims/small table/ATABLE8.jpg,,,,,,,,,,1.0,66.5,1.5,
371,,isi,,html-keyboard-response,371,170575042,0.0-1.0-60.0-0.8-2.8,0,0,77,,,,,,58.0,,,,,2.0,,,,,,,,,,,,,,,,,,,,,,,,,,,68.0,1.0,
372,,no_response,,html-keyboard-response,372,170576050,0.0-1.0-60.0-0.8-4.8-0.8,0,0,77,,,,,,58.0,,,,,2.0,,,,,,,,,,,,,,,,,,,,,,,,,,,69.0,1.0,
373,,iti,,html-keyboard-response,373,170577572,0.0-1.0-60.0-0.8-5.8,0,0,77,,,,,,58.0,,,,,2.0,,,,,,,,,,,,,,,,,,,,,,,,,,,70.0,1.5,
374,,choice,,html-keyboard-response,374,170579078,0.0-1.0-60.0-0.9-0.9,0,0,77,,,,,,58.0,68.0,2000.0,1500.0,0.0,2.0,0.0,20-80,,0.0,yarn,small table,20.0,80.0,yarn1,small table8,40.0,60.0,corn_yarn.jpg,ATABLE8.jpg,/static/Category_learning/Stimuli/Experimental_stims/yarn/corn_yarn.jpg,/static/Category_learning/Stimuli/Experimental_stims/small table/ATABLE8.jpg,,,,,,,,,,1.0,71.5,1.5,
375,,isi,,html-keyboard-response,375,170581085,0.0-1.0-60.0-0.9-2.9,0,0,77,,,,,,58.0,,,,,2.0,,,,,,,,,,,,,,,,,,,,,,,,,,,73.0,2.0,
376,,no_response,,html-keyboard-response,376,170582092,0.0-1.0-60.0-0.9-4.9-0.9,0,0,77,,,,,,58.0,,,,,2.0,,,,,,,,,,,,,,,,,,,,,,,,,,,75.0,1.0,
377,,iti,,html-keyboard-response,377,170584115,0.0-1.0-60.0-0.9-5.9,0,0,77,,,,,,58.0,,,,,2.0,,,,,,,,,,,,,,,,,,,,,,,,,,,76.0,2.0,
378,,choice,,html-keyboard-response,378,170585621,0.0-1.0-60.0-0.10-0.10,0,0,77,,,,,,58.0,68.0,2000.0,1500.0,0.0,2.0,0.0,20-80,,0.0,yarn,small table,20.0,80.0,yarn1,small table8,40.0,60.0,corn_yarn.jpg,ATABLE8.jpg,/static/Category_learning/Stimuli/Experimental_stims/yarn/corn_yarn.jpg,/static/Category_learning/Stimuli/Experimental_stims/small table/ATABLE8.jpg,,,,,,,,,,1.0,78.0,1.5,
379,,isi,,html-keyboard-response,379,170587629,0.0-1.0-60.0-0.10-2.10,0,0,77,,,,,,58.0,,,,,2.0,,,,,,,,,,,,,,,,,,,,,,,,,,,79.5,2.0,
380,,no_response,,html-keyboard-response,380,170588635,0.0-1.0-60.0-0.10-4.10-0.10,0,0,77,,,,,,58.0,,,,,2.0,,,,,,,,,,,,,,,,,,,,,,,,,,,81.5,1.0,
381,,iti,,html-keyboard-response,381,170590671,0.0-1.0-60.0-0.10-5.10,0,0,77,,,,,,58.0,,,,,2.0,,,,,,,,,,,,,,,,,,,,,,,,,,,82.5,2.0,
382,,choice,,html-keyboard-response,382,170592178,0.0-1.0-60.0-0.11-0.11,0,0,77,,,,,,58.0,68.0,2000.0,1500.0,0.0,2.0,0.0,20-80,,0.0,yarn,small table,20.0,80.0,yarn1,small table8,40.0,60.0,corn_yarn.jpg,ATABLE8.jpg,/static/Category_learning/Stimuli/Experimental_stims/yarn/corn_yarn.jpg,/static/Category_learning/Stimuli/Experimental_stims/small table/ATABLE8.jpg,,,,,,,,,,1.0,84.5,1.5,
383,,isi,,html-keyboard-response,383,170595685,0.0-1.0-60.0-0.11-2.11,0,0,77,,,,,,58.0,,,,,2.0,,,,,,,,,,,,,,,,,,,,,,,,,,,86.0,3.5,
384,,no_response,,html-keyboard-response,384,170596691,0.0-1.0-60.0-0.11-4.11-0.11,0,0,77,,,,,,58.0,,,,,2.0,,,,,,,,,,,,,,,,,,,,,,,,,,,89.5,1.0,
385,,iti,,html-keyboard-response,385,170597722,0.0-1.0-60.0-0.11-5.11,0,0,77,,,,,,58.0,,,,,2.0,,,,,,,,,,,,,,,,,,,,,,,,,,,90.5,1.0,
386,,choice,,html-keyboard-response,386,170599228,0.0-1.0-60.0-0.12-0.12,0,0,77,,,,,,58.0,68.0,2000.0,1500.0,0.0,2.0,0.0,20-80,,0.0,yarn,small table,20.0,80.0,yarn1,small table8,40.0,60.0,corn_yarn.jpg,ATABLE8.jpg,/static/Category_learning/Stimuli/Experimental_stims/yarn/corn_yarn.jpg,/static/Category_learning/Stimuli/Experimental_stims/small table/ATABLE8.jpg,,,,,,,,,,1.0,91.5,1.5,
387,,isi,,html-keyboard-response,387,170600736,0.0-1.0-60.0-0.12-2.12,0,0,77,,,,,,58.0,,,,,2.0,,,,,,,,,,,,,,,,,,,,,,,,,,,93.0,1.5,
388,,no_response,,html-keyboard-response,388,170601739,0.0-1.0-60.0-0.12-4.12-0.12,0,0,77,,,,,,58.0,,,,,2.0,,,,,,,,,,,,,,,,,,,,,,,,,,,94.5,1.0,
389,,iti,,html-keyboard-response,389,170602754,0.0-1.0-60.0-0.12-5.12,0,0,77,,,,,,58.0,,,,,2.0,,,,,,,,,,,,,,,,,,,,,,,,,,,95.5,1.0,
390,,choice,,html-keyboard-response,390,170604260,0.0-1.0-60.0-0.13-0.13,0,0,77,,,,,,58.0,68.0,2000.0,1500.0,0.0,2.0,0.0,20-80,,0.0,yarn,small table,20.0,80.0,yarn1,small table8,40.0,60.0,corn_yarn.jpg,ATABLE8.jpg,/static/Category_learning/Stimuli/Experimental_stims/yarn/corn_yarn.jpg,/static/Category_learning/Stimuli/Experimental_stims/small table/ATABLE8.jpg,,,,,,,,,,1.0,96.5,1.5,
391,,isi,,html-keyboard-response,391,170605266,0.0-1.0-60.0-0.13-2.13,0,0,77,,,,,,58.0,,,,,2.0,,,,,,,,,,,,,,,,,,,,,,,,,,,98.0,1.0,
392,,no_response,,html-keyboard-response,392,170606270,0.0-1.0-60.0-0.13-4.13-0.13,0,0,77,,,,,,58.0,,,,,2.0,,,,,,,,,,,,,,,,,,,,,,,,,,,99.0,1.0,
393,,iti,,html-keyboard-response,393,170607290,0.0-1.0-60.0-0.13-5.13,0,0,77,,,,,,58.0,,,,,2.0,,,,,,,,,,,,,,,,,,,,,,,,,,,100.0,1.0,
394,,choice,,html-keyboard-response,394,170608798,0.0-1.0-60.0-0.14-0.14,0,0,77,,,,,,58.0,68.0,2000.0,1500.0,0.0,2.0,0.0,20-80,,0.0,yarn,small table,20.0,80.0,yarn1,small table8,40.0,60.0,corn_yarn.jpg,ATABLE8.jpg,/static/Category_learning/Stimuli/Experimental_stims/yarn/corn_yarn.jpg,/static/Category_learning/Stimuli/Experimental_stims/small table/ATABLE8.jpg,,,,,,,,,,1.0,101.0,1.5,
395,,isi,,html-keyboard-response,395,170610806,0.0-1.0-60.0-0.14-2.14,0,0,77,,,,,,58.0,,,,,2.0,,,,,,,,,,,,,,,,,,,,,,,,,,,102.5,2.0,
396,,no_response,,html-keyboard-response,396,170611810,0.0-1.0-60.0-0.14-4.14-0.14,0,0,77,,,,,,58.0,,,,,2.0,,,,,,,,,,,,,,,,,,,,,,,,,,,104.5,1.0,
397,,iti,,html-keyboard-response,397,170615332,0.0-1.0-60.0-0.14-5.14,0,0,77,,,,,,58.0,,,,,2.0,,,,,,,,,,,,,,,,,,,,,,,,,,,105.5,3.5,
398,,choice,,html-keyboard-response,398,170616838,0.0-1.0-60.0-0.15-0.15,0,0,77,,,,,,58.0,68.0,2000.0,1500.0,0.0,2.0,0.0,20-80,,0.0,yarn,small table,20.0,80.0,yarn1,small table8,40.0,60.0,corn_yarn.jpg,ATABLE8.jpg,/static/Category_learning/Stimuli/Experimental_stims/yarn/corn_yarn.jpg,/static/Category_learning/Stimuli/Experimental_stims/small table/ATABLE8.jpg,,,,,,,,,,1.0,109.0,1.5,
399,,isi,,html-keyboard-response,399,170620342,0.0-1.0-60.0-0.15-2.15,0,0,77,,,,,,58.0,,,,,2.0,,,,,,,,,,,,,,,,,,,,,,,,,,,110.5,3.5,
400,,no_response,,html-keyboard-response,400,170621346,0.0-1.0-60.0-0.15-4.15-0.15,0,0,77,,,,,,58.0,,,,,2.0,,,,,,,,,,,,,,,,,,,,,,,,,,,114.0,1.0,
401,,iti,,html-keyboard-response,401,170624875,0.0-1.0-60.0-0.15-5.15,0,0,77,,,,,,58.0,,,,,2.0,,,,,,,,,,,,,,,,,,,,,,,,,,,115.0,3.5,
402,,choice,,html-keyboard-response,402,170626384,0.0-1.0-60.0-0.16-0.16,0,0,77,,,,,,58.0,68.0,2000.0,1500.0,0.0,2.0,0.0,20-80,,0.0,yarn,small table,20.0,80.0,yarn1,small table8,40.0,60.0,corn_yarn.jpg,ATABLE8.jpg,/static/Category_learning/Stimuli/Experimental_stims/yarn/corn_yarn.jpg,/static/Category_learning/Stimuli/Experimental_stims/small table/ATABLE8.jpg,,,,,,,,,,1.0,118.5,1.5,
403,,isi,,html-keyboard-response,403,170627393,0.0-1.0-60.0-0.16-2.16,0,0,77,,,,,,58.0,,,,,2.0,,,,,,,,,,,,,,,,,,,,,,,,,,,120.0,1.0,
404,,no_response,,html-keyboard-response,404,170628403,0.0-1.0-60.0-0.16-4.16-0.16,0,0,77,,,,,,58.0,,,,,2.0,,,,,,,,,,,,,,,,,,,,,,,,,,,121.0,1.0,
405,,iti,,html-keyboard-response,405,170629428,0.0-1.0-60.0-0.16-5.16,0,0,77,,,,,,58.0,,,,,2.0,,,,,,,,,,,,,,,,,,,,,,,,,,,122.0,1.0,
406,,choice,,html-keyboard-response,406,170630937,0.0-1.0-60.0-0.17-0.17,0,0,77,,,,,,58.0,68.0,2000.0,1500.0,0.0,2.0,0.0,20-80,,0.0,yarn,small table,20.0,80.0,yarn1,small table8,40.0,60.0,corn_yarn.jpg,ATABLE8.jpg,/static/Category_learning/Stimuli/Experimental_stims/yarn/corn_yarn.jpg,/static/Category_learning/Stimuli/Experimental_stims/small table/ATABLE8.jpg,,,,,,,,,,1.0,123.0,1.5,
407,,isi,,html-keyboard-response,407,170632444,0.0-1.0-60.0-0.17-2.17,0,0,77,,,,,,58.0,,,,,2.0,,,,,,,,,,,,,,,,,,,,,,,,,,,124.5,1.5,
408,,no_response,,html-keyboard-response,408,170633450,0.0-1.0-60.0-0.17-4.17-0.17,0,0,77,,,,,,58.0,,,,,2.0,,,,,,,,,,,,,,,,,,,,,,,,,,,126.0,1.0,
409,,iti,,html-keyboard-response,409,170635470,0.0-1.0-60.0-0.17-5.17,0,0,77,,,,,,58.0,,,,,2.0,,,,,,,,,,,,,,,,,,,,,,,,,,,127.0,2.0,
410,,choice,,html-keyboard-response,410,170636978,0.0-1.0-60.0-0.18-0.18,0,0,77,,,,,,58.0,68.0,2000.0,1500.0,0.0,2.0,0.0,20-80,,0.0,yarn,small table,20.0,80.0,yarn1,small table8,40.0,60.0,corn_yarn.jpg,ATABLE8.jpg,/static/Category_learning/Stimuli/Experimental_stims/yarn/corn_yarn.jpg,/static/Category_learning/Stimuli/Experimental_stims/small table/ATABLE8.jpg,,,,,,,,,,1.0,129.0,1.5,
411,,isi,,html-keyboard-response,411,170638484,0.0-1.0-60.0-0.18-2.18,0,0,77,,,,,,58.0,,,,,2.0,,,,,,,,,,,,,,,,,,,,,,,,,,,130.5,1.5,
412,,no_response,,html-keyboard-response,412,170639489,0.0-1.0-60.0-0.18-4.18-0.18,0,0,77,,,,,,58.0,,,,,2.0,,,,,,,,,,,,,,,,,,,,,,,,,,,132.0,1.0,
413,,iti,,html-keyboard-response,413,170641011,0.0-1.0-60.0-0.18-5.18,0,0,77,,,,,,58.0,,,,,2.0,,,,,,,,,,,,,,,,,,,,,,,,,,,133.0,1.5,
414,,choice,,html-keyboard-response,414,170642521,0.0-1.0-60.0-0.19-0.19,0,0,77,,,,,,58.0,68.0,2000.0,1500.0,0.0,2.0,0.0,20-80,,0.0,yarn,small table,20.0,80.0,yarn1,small table8,40.0,60.0,corn_yarn.jpg,ATABLE8.jpg,/static/Category_learning/Stimuli/Experimental_stims/yarn/corn_yarn.jpg,/static/Category_learning/Stimuli/Experimental_stims/small table/ATABLE8.jpg,,,,,,,,,,1.0,134.5,1.5,
415,,isi,,html-keyboard-response,415,170644529,0.0-1.0-60.0-0.19-2.19,0,0,77,,,,,,58.0,,,,,2.0,,,,,,,,,,,,,,,,,,,,,,,,,,,136.0,2.0,
416,,no_response,,html-keyboard-response,416,170645537,0.0-1.0-60.0-0.19-4.19-0.19,0,0,77,,,,,,58.0,,,,,2.0,,,,,,,,,,,,,,,,,,,,,,,,,,,138.0,1.0,
417,,iti,,html-keyboard-response,417,170647560,0.0-1.0-60.0-0.19-5.19,0,0,77,,,,,,58.0,,,,,2.0,,,,,,,,,,,,,,,,,,,,,,,,,,,139.0,2.0,
418,,choice,,html-keyboard-response,418,170649068,0.0-1.0-60.0-0.20-0.20,0,0,77,,,,,,58.0,68.0,2000.0,1500.0,0.0,2.0,0.0,20-80,,0.0,yarn,small table,20.0,80.0,yarn1,small table8,40.0,60.0,corn_yarn.jpg,ATABLE8.jpg,/static/Category_learning/Stimuli/Experimental_stims/yarn/corn_yarn.jpg,/static/Category_learning/Stimuli/Experimental_stims/small table/ATABLE8.jpg,,,,,,,,,,1.0,141.0,1.5,
419,,isi,,html-keyboard-response,419,170650077,0.0-1.0-60.0-0.20-2.20,0,0,77,,,,,,58.0,,,,,2.0,,,,,,,,,,,,,,,,,,,,,,,,,,,142.5,1.0,
420,,no_response,,html-keyboard-response,420,170651085,0.0-1.0-60.0-0.20-4.20-0.20,0,0,77,,,,,,58.0,,,,,2.0,,,,,,,,,,,,,,,,,,,,,,,,,,,143.5,1.0,
421,,iti,,html-keyboard-response,421,170652104,0.0-1.0-60.0-0.20-5.20,0,0,77,,,,,,58.0,,,,,2.0,,,,,,,,,,,,,,,,,,,,,,,,,,,144.5,1.0,
422,,choice,,html-keyboard-response,422,170653611,0.0-1.0-60.0-0.21-0.21,0,0,77,,,,,,58.0,68.0,2000.0,1500.0,0.0,2.0,0.0,20-80,,0.0,yarn,small table,20.0,80.0,yarn1,small table8,40.0,60.0,corn_yarn.jpg,ATABLE8.jpg,/static/Category_learning/Stimuli/Experimental_stims/yarn/corn_yarn.jpg,/static/Category_learning/Stimuli/Experimental_stims/small table/ATABLE8.jpg,,,,,,,,,,1.0,145.5,1.5,
423,,isi,,html-keyboard-response,423,170654619,0.0-1.0-60.0-0.21-2.21,0,0,77,,,,,,58.0,,,,,2.0,,,,,,,,,,,,,,,,,,,,,,,,,,,147.0,1.0,
424,,no_response,,html-keyboard-response,424,170655628,0.0-1.0-60.0-0.21-4.21-0.21,0,0,77,,,,,,58.0,,,,,2.0,,,,,,,,,,,,,,,,,,,,,,,,,,,148.0,1.0,
425,,iti,,html-keyboard-response,425,170658647,0.0-1.0-60.0-0.21-5.21,0,0,77,,,,,,58.0,,,,,2.0,,,,,,,,,,,,,,,,,,,,,,,,,,,149.0,3.0,
426,,choice,,html-keyboard-response,426,170660153,0.0-1.0-60.0-0.22-0.22,0,0,77,,,,,,58.0,68.0,2000.0,1500.0,0.0,2.0,0.0,20-80,,0.0,yarn,small table,20.0,80.0,yarn1,small table8,40.0,60.0,corn_yarn.jpg,ATABLE8.jpg,/static/Category_learning/Stimuli/Experimental_stims/yarn/corn_yarn.jpg,/static/Category_learning/Stimuli/Experimental_stims/small table/ATABLE8.jpg,,,,,,,,,,1.0,152.0,1.5,
427,,isi,,html-keyboard-response,427,170661656,0.0-1.0-60.0-0.22-2.22,0,0,77,,,,,,58.0,,,,,2.0,,,,,,,,,,,,,,,,,,,,,,,,,,,153.5,1.5,
428,,no_response,,html-keyboard-response,428,170662664,0.0-1.0-60.0-0.22-4.22-0.22,0,0,77,,,,,,58.0,,,,,2.0,,,,,,,,,,,,,,,,,,,,,,,,,,,155.0,1.0,
429,,iti,,html-keyboard-response,429,170664686,0.0-1.0-60.0-0.22-5.22,0,0,77,,,,,,58.0,,,,,2.0,,,,,,,,,,,,,,,,,,,,,,,,,,,156.0,2.0,
430,,choice,,html-keyboard-response,430,170666197,0.0-1.0-60.0-0.23-0.23,0,0,77,,,,,,58.0,68.0,2000.0,1500.0,0.0,2.0,0.0,20-80,,0.0,yarn,small table,20.0,80.0,yarn1,small table8,40.0,60.0,corn_yarn.jpg,ATABLE8.jpg,/static/Category_learning/Stimuli/Experimental_stims/yarn/corn_yarn.jpg,/static/Category_learning/Stimuli/Experimental_stims/small table/ATABLE8.jpg,,,,,,,,,,1.0,158.0,1.5,
431,,isi,,html-keyboard-response,431,170667205,0.0-1.0-60.0-0.23-2.23,0,0,77,,,,,,58.0,,,,,2.0,,,,,,,,,,,,,,,,,,,,,,,,,,,159.5,1.0,
432,,no_response,,html-keyboard-response,432,170668210,0.0-1.0-60.0-0.23-4.23-0.23,0,0,77,,,,,,58.0,,,,,2.0,,,,,,,,,,,,,,,,,,,,,,,,,,,160.5,1.0,
433,,iti,,html-keyboard-response,433,170669231,0.0-1.0-60.0-0.23-5.23,0,0,77,,,,,,58.0,,,,,2.0,,,,,,,,,,,,,,,,,,,,,,,,,,,161.5,1.0,
434,,choice,,html-keyboard-response,434,170670739,0.0-1.0-60.0-0.24-0.24,0,0,77,,,,,,58.0,68.0,2000.0,1500.0,0.0,2.0,0.0,20-80,,0.0,yarn,small table,20.0,80.0,yarn1,small table8,40.0,60.0,corn_yarn.jpg,ATABLE8.jpg,/static/Category_learning/Stimuli/Experimental_stims/yarn/corn_yarn.jpg,/static/Category_learning/Stimuli/Experimental_stims/small table/ATABLE8.jpg,,,,,,,,,,1.0,162.5,1.5,
435,,isi,,html-keyboard-response,435,170671749,0.0-1.0-60.0-0.24-2.24,0,0,77,,,,,,58.0,,,,,2.0,,,,,,,,,,,,,,,,,,,,,,,,,,,164.0,1.0,
436,,no_response,,html-keyboard-response,436,170672756,0.0-1.0-60.0-0.24-4.24-0.24,0,0,77,,,,,,58.0,,,,,2.0,,,,,,,,,,,,,,,,,,,,,,,,,,,165.0,1.0,
437,,iti,,html-keyboard-response,437,170674778,0.0-1.0-60.0-0.24-5.24,0,0,77,,,,,,58.0,,,,,2.0,,,,,,,,,,,,,,,,,,,,,,,,,,,166.0,2.0,
438,,choice,,html-keyboard-response,438,170676286,0.0-1.0-60.0-0.25-0.25,0,0,77,,,,,,58.0,68.0,2000.0,1500.0,0.0,2.0,0.0,20-80,,0.0,yarn,small table,20.0,80.0,yarn1,small table8,40.0,60.0,corn_yarn.jpg,ATABLE8.jpg,/static/Category_learning/Stimuli/Experimental_stims/yarn/corn_yarn.jpg,/static/Category_learning/Stimuli/Experimental_stims/small table/ATABLE8.jpg,,,,,,,,,,1.0,168.0,1.5,
439,,isi,,html-keyboard-response,439,170678296,0.0-1.0-60.0-0.25-2.25,0,0,77,,,,,,58.0,,,,,2.0,,,,,,,,,,,,,,,,,,,,,,,,,,,169.5,2.0,
440,,no_response,,html-keyboard-response,440,170679302,0.0-1.0-60.0-0.25-4.25-0.25,0,0,77,,,,,,58.0,,,,,2.0,,,,,,,,,,,,,,,,,,,,,,,,,,,171.5,1.0,
441,,iti,,html-keyboard-response,441,170680825,0.0-1.0-60.0-0.25-5.25,0,0,77,,,,,,58.0,,,,,2.0,,,,,,,,,,,,,,,,,,,,,,,,,,,172.5,1.5,
442,,choice,,html-keyboard-response,442,170682332,0.0-1.0-60.0-0.26-0.26,0,0,77,,,,,,58.0,68.0,2000.0,1500.0,0.0,2.0,0.0,20-80,,0.0,yarn,small table,20.0,80.0,yarn1,small table8,40.0,60.0,corn_yarn.jpg,ATABLE8.jpg,/static/Category_learning/Stimuli/Experimental_stims/yarn/corn_yarn.jpg,/static/Category_learning/Stimuli/Experimental_stims/small table/ATABLE8.jpg,,,,,,,,,,1.0,174.0,1.5,
443,,isi,,html-keyboard-response,443,170683336,0.0-1.0-60.0-0.26-2.26,0,0,77,,,,,,58.0,,,,,2.0,,,,,,,,,,,,,,,,,,,,,,,,,,,175.5,1.0,
444,,no_response,,html-keyboard-response,444,170684343,0.0-1.0-60.0-0.26-4.26-0.26,0,0,77,,,,,,58.0,,,,,2.0,,,,,,,,,,,,,,,,,,,,,,,,,,,176.5,1.0,
445,,iti,,html-keyboard-response,445,170685360,0.0-1.0-60.0-0.26-5.26,0,0,77,,,,,,58.0,,,,,2.0,,,,,,,,,,,,,,,,,,,,,,,,,,,177.5,1.0,
446,,choice,,html-keyboard-response,446,170686869,0.0-1.0-60.0-0.27-0.27,0,0,77,,,,,,58.0,68.0,2000.0,1500.0,0.0,2.0,0.0,20-80,,0.0,yarn,small table,20.0,80.0,yarn1,small table8,40.0,60.0,corn_yarn.jpg,ATABLE8.jpg,/static/Category_learning/Stimuli/Experimental_stims/yarn/corn_yarn.jpg,/static/Category_learning/Stimuli/Experimental_stims/small table/ATABLE8.jpg,,,,,,,,,,1.0,178.5,1.5,
447,,isi,,html-keyboard-response,447,170688878,0.0-1.0-60.0-0.27-2.27,0,0,77,,,,,,58.0,,,,,2.0,,,,,,,,,,,,,,,,,,,,,,,,,,,180.0,2.0,
448,,no_response,,html-keyboard-response,448,170689886,0.0-1.0-60.0-0.27-4.27-0.27,0,0,77,,,,,,58.0,,,,,2.0,,,,,,,,,,,,,,,,,,,,,,,,,,,182.0,1.0,
449,,iti,,html-keyboard-response,449,170690910,0.0-1.0-60.0-0.27-5.27,0,0,77,,,,,,58.0,,,,,2.0,,,,,,,,,,,,,,,,,,,,,,,,,,,183.0,1.0,
450,,choice,,html-keyboard-response,450,170692419,0.0-1.0-60.0-0.28-0.28,0,0,77,,,,,,58.0,68.0,2000.0,1500.0,0.0,2.0,0.0,20-80,,0.0,yarn,small table,20.0,80.0,yarn1,small table8,40.0,60.0,corn_yarn.jpg,ATABLE8.jpg,/static/Category_learning/Stimuli/Experimental_stims/yarn/corn_yarn.jpg,/static/Category_learning/Stimuli/Experimental_stims/small table/ATABLE8.jpg,,,,,,,,,,1.0,184.0,1.5,
451,,isi,,html-keyboard-response,451,170693923,0.0-1.0-60.0-0.28-2.28,0,0,77,,,,,,58.0,,,,,2.0,,,,,,,,,,,,,,,,,,,,,,,,,,,185.5,1.5,
452,,no_response,,html-keyboard-response,452,170694928,0.0-1.0-60.0-0.28-4.28-0.28,0,0,77,,,,,,58.0,,,,,2.0,,,,,,,,,,,,,,,,,,,,,,,,,,,187.0,1.0,
453,,iti,,html-keyboard-response,453,170695946,0.0-1.0-60.0-0.28-5.28,0,0,77,,,,,,58.0,,,,,2.0,,,,,,,,,,,,,,,,,,,,,,,,,,,188.0,1.0,
454,,choice,,html-keyboard-response,454,170697451,0.0-1.0-60.0-0.29-0.29,0,0,77,,,,,,58.0,68.0,2000.0,1500.0,0.0,2.0,0.0,20-80,,0.0,yarn,small table,20.0,80.0,yarn1,small table8,40.0,60.0,corn_yarn.jpg,ATABLE8.jpg,/static/Category_learning/Stimuli/Experimental_stims/yarn/corn_yarn.jpg,/static/Category_learning/Stimuli/Experimental_stims/small table/ATABLE8.jpg,,,,,,,,,,1.0,189.0,1.5,
455,,isi,,html-keyboard-response,455,170698957,0.0-1.0-60.0-0.29-2.29,0,0,77,,,,,,58.0,,,,,2.0,,,,,,,,,,,,,,,,,,,,,,,,,,,190.5,1.5,
456,,no_response,,html-keyboard-response,456,170699961,0.0-1.0-60.0-0.29-4.29-0.29,0,0,77,,,,,,58.0,,,,,2.0,,,,,,,,,,,,,,,,,,,,,,,,,,,192.0,1.0,
457,,iti,,html-keyboard-response,457,170701478,0.0-1.0-60.0-0.29-5.29,0,0,77,,,,,,58.0,,,,,2.0,,,,,,,,,,,,,,,,,,,,,,,,,,,193.0,1.5,
458,,choice,,html-keyboard-response,458,170702985,0.0-1.0-60.0-0.30-0.30,0,0,77,,,,,,58.0,68.0,2000.0,1500.0,0.0,2.0,0.0,20-80,,0.0,yarn,small table,20.0,80.0,yarn1,small table8,40.0,60.0,corn_yarn.jpg,ATABLE8.jpg,/static/Category_learning/Stimuli/Experimental_stims/yarn/corn_yarn.jpg,/static/Category_learning/Stimuli/Experimental_stims/small table/ATABLE8.jpg,,,,,,,,,,1.0,194.5,1.5,
459,,isi,,html-keyboard-response,459,170703991,0.0-1.0-60.0-0.30-2.30,0,0,77,,,,,,58.0,,,,,2.0,,,,,,,,,,,,,,,,,,,,,,,,,,,196.0,1.0,
460,,no_response,,html-keyboard-response,460,170704996,0.0-1.0-60.0-0.30-4.30-0.30,0,0,77,,,,,,58.0,,,,,2.0,,,,,,,,,,,,,,,,,,,,,,,,,,,197.0,1.0,
461,,iti,,html-keyboard-response,461,170706510,0.0-1.0-60.0-0.30-5.30,0,0,77,,,,,,58.0,,,,,2.0,,,,,,,,,,,,,,,,,,,,,,,,,,,198.0,1.5,
462,,choice,,html-keyboard-response,462,170708019,0.0-1.0-60.0-0.31-0.31,0,0,77,,,,,,58.0,68.0,2000.0,1500.0,0.0,2.0,0.0,20-80,,0.0,yarn,small table,20.0,80.0,yarn1,small table8,40.0,60.0,corn_yarn.jpg,ATABLE8.jpg,/static/Category_learning/Stimuli/Experimental_stims/yarn/corn_yarn.jpg,/static/Category_learning/Stimuli/Experimental_stims/small table/ATABLE8.jpg,,,,,,,,,,1.0,199.5,1.5,
463,,isi,,html-keyboard-response,463,170709523,0.0-1.0-60.0-0.31-2.31,0,0,77,,,,,,58.0,,,,,2.0,,,,,,,,,,,,,,,,,,,,,,,,,,,201.0,1.5,
464,,no_response,,html-keyboard-response,464,170710530,0.0-1.0-60.0-0.31-4.31-0.31,0,0,77,,,,,,58.0,,,,,2.0,,,,,,,,,,,,,,,,,,,,,,,,,,,202.5,1.0,
465,,iti,,html-keyboard-response,465,170712546,0.0-1.0-60.0-0.31-5.31,0,0,77,,,,,,58.0,,,,,2.0,,,,,,,,,,,,,,,,,,,,,,,,,,,203.5,2.0,
466,,choice,,html-keyboard-response,466,170714054,0.0-1.0-60.0-0.32-0.32,0,0,77,,,,,,58.0,68.0,2000.0,1500.0,0.0,2.0,0.0,20-80,,0.0,yarn,small table,20.0,80.0,yarn1,small table8,40.0,60.0,corn_yarn.jpg,ATABLE8.jpg,/static/Category_learning/Stimuli/Experimental_stims/yarn/corn_yarn.jpg,/static/Category_learning/Stimuli/Experimental_stims/small table/ATABLE8.jpg,,,,,,,,,,1.0,205.5,1.5,
467,,isi,,html-keyboard-response,467,170717058,0.0-1.0-60.0-0.32-2.32,0,0,77,,,,,,58.0,,,,,2.0,,,,,,,,,,,,,,,,,,,,,,,,,,,207.0,3.0,
468,,no_response,,html-keyboard-response,468,170718063,0.0-1.0-60.0-0.32-4.32-0.32,0,0,77,,,,,,58.0,,,,,2.0,,,,,,,,,,,,,,,,,,,,,,,,,,,210.0,1.0,
469,,iti,,html-keyboard-response,469,170719084,0.0-1.0-60.0-0.32-5.32,0,0,77,,,,,,58.0,,,,,2.0,,,,,,,,,,,,,,,,,,,,,,,,,,,211.0,1.0,
470,,choice,,html-keyboard-response,470,170720593,0.0-1.0-60.0-0.33-0.33,0,0,77,,,,,,58.0,68.0,2000.0,1500.0,0.0,2.0,0.0,20-80,,0.0,yarn,small table,20.0,80.0,yarn1,small table8,40.0,60.0,corn_yarn.jpg,ATABLE8.jpg,/static/Category_learning/Stimuli/Experimental_stims/yarn/corn_yarn.jpg,/static/Category_learning/Stimuli/Experimental_stims/small table/ATABLE8.jpg,,,,,,,,,,1.0,212.0,1.5,
471,,isi,,html-keyboard-response,471,170722102,0.0-1.0-60.0-0.33-2.33,0,0,77,,,,,,58.0,,,,,2.0,,,,,,,,,,,,,,,,,,,,,,,,,,,213.5,1.5,
472,,no_response,,html-keyboard-response,472,170723109,0.0-1.0-60.0-0.33-4.33-0.33,0,0,77,,,,,,58.0,,,,,2.0,,,,,,,,,,,,,,,,,,,,,,,,,,,215.0,1.0,
473,,iti,,html-keyboard-response,473,170724128,0.0-1.0-60.0-0.33-5.33,0,0,77,,,,,,58.0,,,,,2.0,,,,,,,,,,,,,,,,,,,,,,,,,,,216.0,1.0,
474,,choice,,html-keyboard-response,474,170725634,0.0-1.0-60.0-0.34-0.34,0,0,77,,,,,,58.0,68.0,2000.0,1500.0,0.0,2.0,0.0,20-80,,0.0,yarn,small table,20.0,80.0,yarn1,small table8,40.0,60.0,corn_yarn.jpg,ATABLE8.jpg,/static/Category_learning/Stimuli/Experimental_stims/yarn/corn_yarn.jpg,/static/Category_learning/Stimuli/Experimental_stims/small table/ATABLE8.jpg,,,,,,,,,,1.0,217.0,1.5,
475,,isi,,html-keyboard-response,475,170729139,0.0-1.0-60.0-0.34-2.34,0,0,77,,,,,,58.0,,,,,2.0,,,,,,,,,,,,,,,,,,,,,,,,,,,218.5,3.5,
476,,no_response,,html-keyboard-response,476,170730147,0.0-1.0-60.0-0.34-4.34-0.34,0,0,77,,,,,,58.0,,,,,2.0,,,,,,,,,,,,,,,,,,,,,,,,,,,222.0,1.0,
477,,iti,,html-keyboard-response,477,170731167,0.0-1.0-60.0-0.34-5.34,0,0,77,,,,,,58.0,,,,,2.0,,,,,,,,,,,,,,,,,,,,,,,,,,,223.0,1.0,
478,,choice,,html-keyboard-response,478,170732673,0.0-1.0-60.0-0.35-0.35,0,0,77,,,,,,58.0,68.0,2000.0,1500.0,0.0,2.0,0.0,20-80,,0.0,yarn,small table,20.0,80.0,yarn1,small table8,40.0,60.0,corn_yarn.jpg,ATABLE8.jpg,/static/Category_learning/Stimuli/Experimental_stims/yarn/corn_yarn.jpg,/static/Category_learning/Stimuli/Experimental_stims/small table/ATABLE8.jpg,,,,,,,,,,1.0,224.0,1.5,
479,,isi,,html-keyboard-response,479,170734682,0.0-1.0-60.0-0.35-2.35,0,0,77,,,,,,58.0,,,,,2.0,,,,,,,,,,,,,,,,,,,,,,,,,,,225.5,2.0,
480,,no_response,,html-keyboard-response,480,170735688,0.0-1.0-60.0-0.35-4.35-0.35,0,0,77,,,,,,58.0,,,,,2.0,,,,,,,,,,,,,,,,,,,,,,,,,,,227.5,1.0,
481,,iti,,html-keyboard-response,481,170737206,0.0-1.0-60.0-0.35-5.35,0,0,77,,,,,,58.0,,,,,2.0,,,,,,,,,,,,,,,,,,,,,,,,,,,228.5,1.5,
482,,choice,,html-keyboard-response,482,170738712,0.0-1.0-60.0-0.36-0.36,0,0,77,,,,,,58.0,68.0,2000.0,1500.0,0.0,2.0,0.0,20-80,,0.0,yarn,small table,20.0,80.0,yarn1,small table8,40.0,60.0,corn_yarn.jpg,ATABLE8.jpg,/static/Category_learning/Stimuli/Experimental_stims/yarn/corn_yarn.jpg,/static/Category_learning/Stimuli/Experimental_stims/small table/ATABLE8.jpg,,,,,,,,,,1.0,230.0,1.5,
483,,isi,,html-keyboard-response,483,170739718,0.0-1.0-60.0-0.36-2.36,0,0,77,,,,,,58.0,,,,,2.0,,,,,,,,,,,,,,,,,,,,,,,,,,,231.5,1.0,
484,,no_response,,html-keyboard-response,484,170740726,0.0-1.0-60.0-0.36-4.36-0.36,0,0,77,,,,,,58.0,,,,,2.0,,,,,,,,,,,,,,,,,,,,,,,,,,,232.5,1.0,
485,,iti,,html-keyboard-response,485,170741751,0.0-1.0-60.0-0.36-5.36,0,0,77,,,,,,58.0,,,,,2.0,,,,,,,,,,,,,,,,,,,,,,,,,,,233.5,1.0,
486,,choice,,html-keyboard-response,486,170743260,0.0-1.0-60.0-0.37-0.37,0,0,77,,,,,,58.0,68.0,2000.0,1500.0,0.0,2.0,0.0,20-80,,0.0,yarn,small table,20.0,80.0,yarn1,small table8,40.0,60.0,corn_yarn.jpg,ATABLE8.jpg,/static/Category_learning/Stimuli/Experimental_stims/yarn/corn_yarn.jpg,/static/Category_learning/Stimuli/Experimental_stims/small table/ATABLE8.jpg,,,,,,,,,,1.0,234.5,1.5,
487,,isi,,html-keyboard-response,487,170746266,0.0-1.0-60.0-0.37-2.37,0,0,77,,,,,,58.0,,,,,2.0,,,,,,,,,,,,,,,,,,,,,,,,,,,236.0,3.0,
488,,no_response,,html-keyboard-response,488,170747271,0.0-1.0-60.0-0.37-4.37-0.37,0,0,77,,,,,,58.0,,,,,2.0,,,,,,,,,,,,,,,,,,,,,,,,,,,239.0,1.0,
489,,iti,,html-keyboard-response,489,170748291,0.0-1.0-60.0-0.37-5.37,0,0,77,,,,,,58.0,,,,,2.0,,,,,,,,,,,,,,,,,,,,,,,,,,,240.0,1.0,
490,,choice,,html-keyboard-response,490,170749798,0.0-1.0-60.0-0.38-0.38,0,0,77,,,,,,58.0,68.0,2000.0,1500.0,0.0,2.0,0.0,20-80,,0.0,yarn,small table,20.0,80.0,yarn1,small table8,40.0,60.0,corn_yarn.jpg,ATABLE8.jpg,/static/Category_learning/Stimuli/Experimental_stims/yarn/corn_yarn.jpg,/static/Category_learning/Stimuli/Experimental_stims/small table/ATABLE8.jpg,,,,,,,,,,1.0,241.0,1.5,
491,,isi,,html-keyboard-response,491,170751804,0.0-1.0-60.0-0.38-2.38,0,0,77,,,,,,58.0,,,,,2.0,,,,,,,,,,,,,,,,,,,,,,,,,,,242.5,2.0,
492,,no_response,,html-keyboard-response,492,170752813,0.0-1.0-60.0-0.38-4.38-0.38,0,0,77,,,,,,58.0,,,,,2.0,,,,,,,,,,,,,,,,,,,,,,,,,,,244.5,1.0,
493,,iti,,html-keyboard-response,493,170753836,0.0-1.0-60.0-0.38-5.38,0,0,77,,,,,,58.0,,,,,2.0,,,,,,,,,,,,,,,,,,,,,,,,,,,245.5,1.0,
494,,choice,,html-keyboard-response,494,170755339,0.0-1.0-60.0-0.39-0.39,0,0,77,,,,,,58.0,68.0,2000.0,1500.0,0.0,2.0,0.0,20-80,,0.0,yarn,small table,20.0,80.0,yarn1,small table8,40.0,60.0,corn_yarn.jpg,ATABLE8.jpg,/static/Category_learning/Stimuli/Experimental_stims/yarn/corn_yarn.jpg,/static/Category_learning/Stimuli/Experimental_stims/small table/ATABLE8.jpg,,,,,,,,,,1.0,246.5,1.5,
495,,isi,,html-keyboard-response,495,170757345,0.0-1.0-60.0-0.39-2.39,0,0,77,,,,,,58.0,,,,,2.0,,,,,,,,,,,,,,,,,,,,,,,,,,,248.0,2.0,
496,,no_response,,html-keyboard-response,496,170758350,0.0-1.0-60.0-0.39-4.39-0.39,0,0,77,,,,,,58.0,,,,,2.0,,,,,,,,,,,,,,,,,,,,,,,,,,,250.0,1.0,
497,,iti,,html-keyboard-response,497,170761368,0.0-1.0-60.0-0.39-5.39,0,0,77,,,,,,58.0,,,,,2.0,,,,,,,,,,,,,,,,,,,,,,,,,,,251.0,3.0,
498,,choice,,html-keyboard-response,498,170762877,0.0-1.0-60.0-0.40-0.40,0,0,77,,,,,,58.0,68.0,2000.0,1500.0,0.0,2.0,0.0,20-80,,0.0,yarn,small table,20.0,80.0,yarn1,small table8,40.0,60.0,corn_yarn.jpg,ATABLE8.jpg,/static/Category_learning/Stimuli/Experimental_stims/yarn/corn_yarn.jpg,/static/Category_learning/Stimuli/Experimental_stims/small table/ATABLE8.jpg,,,,,,,,,,1.0,254.0,1.5,
499,,isi,,html-keyboard-response,499,170764381,0.0-1.0-60.0-0.40-2.40,0,0,77,,,,,,58.0,,,,,2.0,,,,,,,,,,,,,,,,,,,,,,,,,,,255.5,1.5,
