,success,ttype,start_time,trial_type,trial_index,time_elapsed,internal_node_id,warning,missed_checkup,PID,view_history,rt,responses,repeat_instructions,key_press,index,trial_num,isi,iti,is_practice,block,old_trial,pair_type,within_category,high_cat_on_left,left_category,right_category,left_category_value,right_category_value,left_exemplar,right_exemplar,left_exemplar_value,right_exemplar_value,left_img,right_img,left_img_path,right_img_path,left_chosen,chosen_category,unchosen_category,chosen_category_value,unchosen_category_value,chosen_exemplar,unchosen_exemplar,chosen_exemplar_value,unchosen_exemplar_value,no_response,onset,duration,end_practice,total_bonus_tally,category,category_group_value,category_value_response,did_not_enter_response
0,True,full_screen,d06072022hr1844,fullscreen,0,7686,0.0-0.0,0,0,18170,,,,,,,,,,,,,,,,,,,,,,,,,,,,,,,,,,,,,,,,,,,,,
1,,category_learning_instructions,,instructions,1,38523,0.0-1.0-0.0-0.0,0,0,18170,"[{""page_index"":0,""viewing_time"":7787},{""page_index"":1,""viewing_time"":6810},{""page_index"":2,""viewing_time"":4170},{""page_index"":3,""viewing_time"":7484},{""page_index"":4,""viewing_time"":1591},{""page_index"":5,""viewing_time"":997},{""page_index"":6,""viewing_time"":1995}]",30834.0,,,,,,,,,,,,,,,,,,,,,,,,,,,,,,,,,,,,,,,,,,,
2,,category_learning_comprehension_check,,survey-multi-choice,2,50763,0.0-1.0-0.0-1.0,0,0,18170,,12236.0,"{""Q0"":""True"",""Q1"":""True"",""Q2"":""Stay the same"",""Q3"":""D for left and K for right""}",0.0,,,,,,,,,,,,,,,,,,,,,,,,,,,,,,,,,,,,,,,,,
3,,,,html-keyboard-response,3,52222,0.0-1.0-1.0,0,0,18170,,1456.0,,,68.0,,,,,,,,,,,,,,,,,,,,,,,,,,,,,,,,,,,,,,,,
4,,choice,,html-keyboard-response,4,52883,0.0-1.0-2.0-0.0-0.0,0,0,18170,,659.0,,,75.0,0.0,0.0,1500.0,1000.0,1.0,0.0,0.0,20-80,,0.0,bagel,dumbbell,20.0,80.0,bagel1,dumbbell1,0.0,80.0,bagels_pumpernickel_large.jpg,31B64EN68AL._AA280_.jpg,/static/Category_learning/Stimuli/Practice_stims/bagel/bagels_pumpernickel_large.jpg,/static/Category_learning/Stimuli/Practice_stims/dumbbell/31B64EN68AL._AA280_.jpg,0.0,dumbbell,bagel,80.0,20.0,dumbbell1,bagel1,80.0,0.0,0.0,0.659,0.659,,,,,,
5,,confirmation,,html-keyboard-response,5,53729,0.0-1.0-2.0-0.0-1.0-0.0,0,0,18170,,,,,,0.0,,,,,0.0,,,,,,,,,,,,,,,,,,,,,,,,,,,1.5,0.841,,,,,,
6,,isi,,html-keyboard-response,6,55234,0.0-1.0-2.0-0.0-2.0,0,0,18170,,,,,,0.0,,,,,0.0,,,,,,,,,,,,,,,,,,,,,,,,,,,3.0,1.5,,,,,,
7,,feedback,,html-keyboard-response,7,56238,0.0-1.0-2.0-0.0-3.0-0.0,0,0,18170,,,,,,0.0,,,,,0.0,,,,,,,,,,,,,,,,,,,,,,,,,,,4.0,1.0,,,,,,
8,,iti,,html-keyboard-response,8,57241,0.0-1.0-2.0-0.0-5.0,0,0,18170,,,,,,0.0,,,,,0.0,,,,,,,,,,,,,,,,,,,,,,,,,,,5.0,1.0,,,,,,
9,,choice,,html-keyboard-response,9,57821,0.0-1.0-3.0-0.0-0.0,0,0,18170,,576.0,,,75.0,1.0,1.0,3000.0,1500.0,1.0,0.0,0.0,20-40,,1.0,calculator,bagel,40.0,20.0,calculator2,bagel2,20.0,20.0,22829064.thl.jpg,bagels_cinnraisin_large.jpg,/static/Category_learning/Stimuli/Practice_stims/calculator/22829064.thl.jpg,/static/Category_learning/Stimuli/Practice_stims/bagel/bagels_cinnraisin_large.jpg,0.0,bagel,calculator,20.0,40.0,bagel2,calculator2,20.0,20.0,0.0,5.576,0.576,,,,,,
10,,confirmation,,html-keyboard-response,10,58748,0.0-1.0-3.0-0.0-1.0-0.0,0,0,18170,,,,,,1.0,,,,,0.0,,,,,,,,,,,,,,,,,,,,,,,,,,,6.5,0.924,,,,,,
11,,isi,,html-keyboard-response,11,61752,0.0-1.0-3.0-0.0-2.0,0,0,18170,,,,,,1.0,,,,,0.0,,,,,,,,,,,,,,,,,,,,,,,,,,,9.5,3.0,,,,,,
12,,feedback,,html-keyboard-response,12,62756,0.0-1.0-3.0-0.0-3.0-0.0,0,0,18170,,,,,,1.0,,,,,0.0,,,,,,,,,,,,,,,,,,,,,,,,,,,10.5,1.0,,,,,,
13,,iti,,html-keyboard-response,13,64258,0.0-1.0-3.0-0.0-5.0,0,0,18170,,,,,,1.0,,,,,0.0,,,,,,,,,,,,,,,,,,,,,,,,,,,12.0,1.5,,,,,,
14,,choice,,html-keyboard-response,14,64980,0.0-1.0-4.0-0.0-0.0,0,0,18170,,718.0,,,75.0,2.0,2.0,2000.0,3000.0,1.0,0.0,0.0,60-80,,0.0,clock,dumbbell,60.0,80.0,clock2,dumbbell2,60.0,100.0,26373355.thl.jpg,31K8MR6TMBL._SS500_.jpg,/static/Category_learning/Stimuli/Practice_stims/clock/26373355.thl.jpg,/static/Category_learning/Stimuli/Practice_stims/dumbbell/31K8MR6TMBL._SS500_.jpg,0.0,dumbbell,clock,80.0,60.0,dumbbell2,clock2,100.0,60.0,0.0,12.718,0.718,,,,,,
15,,confirmation,,html-keyboard-response,15,65765,0.0-1.0-4.0-0.0-1.0-0.0,0,0,18170,,,,,,2.0,,,,,0.0,,,,,,,,,,,,,,,,,,,,,,,,,,,13.5,0.782,,,,,,
16,,isi,,html-keyboard-response,16,67768,0.0-1.0-4.0-0.0-2.0,0,0,18170,,,,,,2.0,,,,,0.0,,,,,,,,,,,,,,,,,,,,,,,,,,,15.5,2.0,,,,,,
17,,feedback,,html-keyboard-response,17,68771,0.0-1.0-4.0-0.0-3.0-0.0,0,0,18170,,,,,,2.0,,,,,0.0,,,,,,,,,,,,,,,,,,,,,,,,,,,16.5,1.0,,,,,,
18,,iti,,html-keyboard-response,18,71774,0.0-1.0-4.0-0.0-5.0,0,0,18170,,,,,,2.0,,,,,0.0,,,,,,,,,,,,,,,,,,,,,,,,,,,19.5,3.0,,,,,,
19,,choice,,html-keyboard-response,19,72418,0.0-1.0-5.0-0.0-0.0,0,0,18170,,642.0,,,68.0,3.0,3.0,1000.0,2000.0,1.0,0.0,0.0,40-80,,0.0,calculator,clock,40.0,60.0,calculator1,clock1,40.0,40.0,22829184.thl.jpg,Aalarmclock2.jpg,/static/Category_learning/Stimuli/Practice_stims/calculator/22829184.thl.jpg,/static/Category_learning/Stimuli/Practice_stims/clock/Aalarmclock2.jpg,1.0,calculator,clock,40.0,60.0,calculator1,clock1,40.0,40.0,0.0,20.142,0.642,,,,,,
20,,confirmation,,html-keyboard-response,20,73283,0.0-1.0-5.0-0.0-1.0-0.0,0,0,18170,,,,,,3.0,,,,,0.0,,,,,,,,,,,,,,,,,,,,,,,,,,,21.0,0.858,,,,,,
21,,isi,,html-keyboard-response,21,74286,0.0-1.0-5.0-0.0-2.0,0,0,18170,,,,,,3.0,,,,,0.0,,,,,,,,,,,,,,,,,,,,,,,,,,,22.0,1.0,,,,,,
22,,feedback,,html-keyboard-response,22,75290,0.0-1.0-5.0-0.0-3.0-0.0,0,0,18170,,,,,,3.0,,,,,0.0,,,,,,,,,,,,,,,,,,,,,,,,,,,23.0,1.0,,,,,,
23,,iti,,html-keyboard-response,23,77294,0.0-1.0-5.0-0.0-5.0,0,0,18170,,,,,,3.0,,,,,0.0,,,,,,,,,,,,,,,,,,,,,,,,,,,25.0,2.0,,,,,,
24,,choice,,html-keyboard-response,24,78351,0.0-1.0-6.0-0.0-0.0,0,0,18170,,1054.0,,,68.0,4.0,4.0,2500.0,2500.0,1.0,0.0,0.0,20-60,,1.0,dumbbell,bagel,80.0,20.0,dumbbell3,bagel3,100.0,40.0,41K7QVRX50L._SS500_.jpg,photo-169.jpg,/static/Category_learning/Stimuli/Practice_stims/dumbbell/41K7QVRX50L._SS500_.jpg,/static/Category_learning/Stimuli/Practice_stims/bagel/photo-169.jpg,1.0,dumbbell,bagel,80.0,20.0,dumbbell3,bagel3,100.0,40.0,0.0,26.054,1.054,1.0,,,,,
25,,confirmation,,html-keyboard-response,25,78803,0.0-1.0-6.0-0.0-1.0-0.0,0,0,18170,,,,,,4.0,,,,,0.0,,,,,,,,,,,,,,,,,,,,,,,,,,,26.5,0.446,,,,,,
26,,isi,,html-keyboard-response,26,81307,0.0-1.0-6.0-0.0-2.0,0,0,18170,,,,,,4.0,,,,,0.0,,,,,,,,,,,,,,,,,,,,,,,,,,,29.0,2.5,,,,,,
27,,feedback,,html-keyboard-response,27,82311,0.0-1.0-6.0-0.0-3.0-0.0,0,0,18170,,,,,,4.0,,,,,0.0,,,,,,,,,,,,,,,,,,,,,,,,,,,30.0,1.0,,,,,,
28,,iti,,html-keyboard-response,28,84813,0.0-1.0-6.0-0.0-5.0,0,0,18170,,,,,,4.0,,,,,0.0,,,,,,,,,,,,,,,,,,,,,,,,,,,32.5,2.5,,,,,,
29,,practice_over,,html-keyboard-response,29,86149,0.0-1.0-6.0-0.0-6.0-0.0,0,0,18170,,1334.0,,,68.0,4.0,,,,,,,,,,,,,,,,,,,,,,,,,,,,,,,,,,,,,,,
30,,start_run,,html-keyboard-response,30,88997,0.0-1.0-6.0-0.0-6.0-1.0,0,0,18170,,2845.0,,,84.0,,,,,,,,,,,,,,,,,,,,,,,,,,,,,,,,,,,,,,,,
31,,choice,,html-keyboard-response,31,89745,0.0-1.0-7.0-0.0-0.0,0,0,18170,,745.0,,,75.0,5.0,5.0,2000.0,3500.0,0.0,1.0,0.0,20-60,,0.0,necklace,bench,20.0,60.0,necklace15,bench3,40.0,40.0,necklascenew04.jpg,26419540.thl.jpg,/static/Category_learning/Stimuli/Experimental_stims/necklace/necklascenew04.jpg,/static/Category_learning/Stimuli/Experimental_stims/bench/26419540.thl.jpg,0.0,bench,necklace,60.0,20.0,bench3,necklace15,40.0,40.0,0.0,0.745,0.745,,,,,,
32,,confirmation,,html-keyboard-response,32,90503,0.0-1.0-7.0-0.0-1.0-0.0,0,0,18170,,,,,,5.0,,,,,1.0,,,,,,,,,,,,,,,,,,,,,,,,,,,1.5,0.755,,,,,,
33,,isi,,html-keyboard-response,33,92506,0.0-1.0-7.0-0.0-2.0,0,0,18170,,,,,,5.0,,,,,1.0,,,,,,,,,,,,,,,,,,,,,,,,,,,3.5,2.0,,,,,,
34,,feedback,,html-keyboard-response,34,93509,0.0-1.0-7.0-0.0-3.0-0.0,0,0,18170,,,,,,5.0,,,,,1.0,,,,,,,,,,,,,,,,,,,,,,,,,,,4.5,1.0,,,,,,
35,,iti,,html-keyboard-response,35,97014,0.0-1.0-7.0-0.0-5.0,0,0,18170,,,,,,5.0,,,,,1.0,,,,,,,,,,,,,,,,,,,,,,,,,,,8.0,3.5,,,,,,
36,,choice,,html-keyboard-response,36,97373,0.0-1.0-8.0-0.0-0.0,0,0,18170,,356.0,,,68.0,6.0,6.0,2000.0,1000.0,0.0,1.0,0.0,20-20,,,power strip,seashell,20.0,20.0,power strip8,seashell7,40.0,20.0,3118YGHQWXL._AA262_.jpg,seashell34.jpg,/static/Category_learning/Stimuli/Experimental_stims/power strip/3118YGHQWXL._AA262_.jpg,/static/Category_learning/Stimuli/Experimental_stims/seashell/seashell34.jpg,1.0,power strip,seashell,20.0,20.0,power strip8,seashell7,40.0,20.0,0.0,8.356,0.356,,,,,,
37,,confirmation,,html-keyboard-response,37,98521,0.0-1.0-8.0-0.0-1.0-0.0,0,0,18170,,,,,,6.0,,,,,1.0,,,,,,,,,,,,,,,,,,,,,,,,,,,9.5,1.144,,,,,,
38,,isi,,html-keyboard-response,38,100525,0.0-1.0-8.0-0.0-2.0,0,0,18170,,,,,,6.0,,,,,1.0,,,,,,,,,,,,,,,,,,,,,,,,,,,11.5,2.0,,,,,,
39,,feedback,,html-keyboard-response,39,101528,0.0-1.0-8.0-0.0-3.0-0.0,0,0,18170,,,,,,6.0,,,,,1.0,,,,,,,,,,,,,,,,,,,,,,,,,,,12.5,1.0,,,,,,
40,,iti,,html-keyboard-response,40,102531,0.0-1.0-8.0-0.0-5.0,0,0,18170,,,,,,6.0,,,,,1.0,,,,,,,,,,,,,,,,,,,,,,,,,,,13.5,1.0,,,,,,
41,,choice,,html-keyboard-response,41,103240,0.0-1.0-9.0-0.0-0.0,0,0,18170,,707.0,,,75.0,7.0,7.0,1500.0,2000.0,0.0,1.0,0.0,20-40,,1.0,telescope,poker card,40.0,20.0,telescope1,poker card9,20.0,40.0,celestron nexstar 114 gt reflector telescope.jpg,9817230.thl.jpg,/static/Category_learning/Stimuli/Experimental_stims/telescope/celestron nexstar 114 gt reflector telescope.jpg,/static/Category_learning/Stimuli/Experimental_stims/poker card/9817230.thl.jpg,0.0,poker card,telescope,20.0,40.0,poker card9,telescope1,40.0,20.0,0.0,14.207,0.707,,,,,,
42,,confirmation,,html-keyboard-response,42,104037,0.0-1.0-9.0-0.0-1.0-0.0,0,0,18170,,,,,,7.0,,,,,1.0,,,,,,,,,,,,,,,,,,,,,,,,,,,15.0,0.793,,,,,,
43,,isi,,html-keyboard-response,43,105540,0.0-1.0-9.0-0.0-2.0,0,0,18170,,,,,,7.0,,,,,1.0,,,,,,,,,,,,,,,,,,,,,,,,,,,16.5,1.5,,,,,,
44,,feedback,,html-keyboard-response,44,106543,0.0-1.0-9.0-0.0-3.0-0.0,0,0,18170,,,,,,7.0,,,,,1.0,,,,,,,,,,,,,,,,,,,,,,,,,,,17.5,1.0,,,,,,
45,,iti,,html-keyboard-response,45,108550,0.0-1.0-9.0-0.0-5.0,0,0,18170,,,,,,7.0,,,,,1.0,,,,,,,,,,,,,,,,,,,,,,,,,,,19.5,2.0,,,,,,
46,,choice,,html-keyboard-response,46,109131,0.0-1.0-10.0-0.0-0.0,0,0,18170,,577.0,,,75.0,8.0,8.0,3500.0,1000.0,0.0,1.0,0.0,60-60,,,door knob,dresser,60.0,60.0,door knob7,dresser4,40.0,80.0,doorknob2.jpg,ADRESSE40.jpg,/static/Category_learning/Stimuli/Experimental_stims/door knob/doorknob2.jpg,/static/Category_learning/Stimuli/Experimental_stims/dresser/ADRESSE40.jpg,0.0,dresser,door knob,60.0,60.0,dresser4,door knob7,80.0,40.0,0.0,20.077,0.577,,,,,,
47,,confirmation,,html-keyboard-response,47,110059,0.0-1.0-10.0-0.0-1.0-0.0,0,0,18170,,,,,,8.0,,,,,1.0,,,,,,,,,,,,,,,,,,,,,,,,,,,21.0,0.923,,,,,,
48,,isi,,html-keyboard-response,48,113561,0.0-1.0-10.0-0.0-2.0,0,0,18170,,,,,,8.0,,,,,1.0,,,,,,,,,,,,,,,,,,,,,,,,,,,24.5,3.5,,,,,,
49,,feedback,,html-keyboard-response,49,114566,0.0-1.0-10.0-0.0-3.0-0.0,0,0,18170,,,,,,8.0,,,,,1.0,,,,,,,,,,,,,,,,,,,,,,,,,,,25.5,1.0,,,,,,
50,,iti,,html-keyboard-response,50,115569,0.0-1.0-10.0-0.0-5.0,0,0,18170,,,,,,8.0,,,,,1.0,,,,,,,,,,,,,,,,,,,,,,,,,,,26.5,1.0,,,,,,
51,,choice,,html-keyboard-response,51,116224,0.0-1.0-11.0-0.0-0.0,0,0,18170,,653.0,,,68.0,9.0,9.0,1000.0,1000.0,0.0,1.0,0.0,20-60,,0.0,poker card,desk,20.0,60.0,poker card8,desk13,20.0,80.0,22864392.thl.jpg,26427865.thl.jpg,/static/Category_learning/Stimuli/Experimental_stims/poker card/22864392.thl.jpg,/static/Category_learning/Stimuli/Experimental_stims/desk/26427865.thl.jpg,1.0,poker card,desk,20.0,60.0,poker card8,desk13,20.0,80.0,0.0,27.153,0.653,,,,,,
52,,confirmation,,html-keyboard-response,52,117081,0.0-1.0-11.0-0.0-1.0-0.0,0,0,18170,,,,,,9.0,,,,,1.0,,,,,,,,,,,,,,,,,,,,,,,,,,,28.0,0.847,,,,,,
53,,isi,,html-keyboard-response,53,118087,0.0-1.0-11.0-0.0-2.0,0,0,18170,,,,,,9.0,,,,,1.0,,,,,,,,,,,,,,,,,,,,,,,,,,,29.0,1.0,,,,,,
54,,feedback,,html-keyboard-response,54,119093,0.0-1.0-11.0-0.0-3.0-0.0,0,0,18170,,,,,,9.0,,,,,1.0,,,,,,,,,,,,,,,,,,,,,,,,,,,30.0,1.0,,,,,,
55,,iti,,html-keyboard-response,55,120097,0.0-1.0-11.0-0.0-5.0,0,0,18170,,,,,,9.0,,,,,1.0,,,,,,,,,,,,,,,,,,,,,,,,,,,31.0,1.0,,,,,,
56,,choice,,html-keyboard-response,56,120809,0.0-1.0-12.0-0.0-0.0,0,0,18170,,709.0,,,68.0,10.0,10.0,1000.0,1000.0,0.0,1.0,0.0,20-60,,1.0,bench,nail polish,60.0,20.0,bench8,nail polish6,80.0,0.0,APARKBE14.jpg,127_t.jpg,/static/Category_learning/Stimuli/Experimental_stims/bench/APARKBE14.jpg,/static/Category_learning/Stimuli/Experimental_stims/nail polish/127_t.jpg,1.0,bench,nail polish,60.0,20.0,bench8,nail polish6,80.0,0.0,0.0,31.709,0.709,,,,,,
57,,confirmation,,html-keyboard-response,57,121604,0.0-1.0-12.0-0.0-1.0-0.0,0,0,18170,,,,,,10.0,,,,,1.0,,,,,,,,,,,,,,,,,,,,,,,,,,,32.5,0.791,,,,,,
58,,isi,,html-keyboard-response,58,122607,0.0-1.0-12.0-0.0-2.0,0,0,18170,,,,,,10.0,,,,,1.0,,,,,,,,,,,,,,,,,,,,,,,,,,,33.5,1.0,,,,,,
59,,feedback,,html-keyboard-response,59,123611,0.0-1.0-12.0-0.0-3.0-0.0,0,0,18170,,,,,,10.0,,,,,1.0,,,,,,,,,,,,,,,,,,,,,,,,,,,34.5,1.0,,,,,,
60,,iti,,html-keyboard-response,60,124613,0.0-1.0-12.0-0.0-5.0,0,0,18170,,,,,,10.0,,,,,1.0,,,,,,,,,,,,,,,,,,,,,,,,,,,35.5,1.0,,,,,,
61,,choice,,html-keyboard-response,61,125437,0.0-1.0-13.0-0.0-0.0,0,0,18170,,822.0,,,68.0,11.0,11.0,1500.0,3000.0,0.0,1.0,0.0,20-80,,0.0,pen,microscope,20.0,80.0,pen11,microscope4,0.0,80.0,pen01.jpg,55071208.JPG,/static/Category_learning/Stimuli/Experimental_stims/pen/pen01.jpg,/static/Category_learning/Stimuli/Experimental_stims/microscope/55071208.JPG,1.0,pen,microscope,20.0,80.0,pen11,microscope4,0.0,80.0,0.0,36.322,0.822,,,,,,
62,,confirmation,,html-keyboard-response,62,126118,0.0-1.0-13.0-0.0-1.0-0.0,0,0,18170,,,,,,11.0,,,,,1.0,,,,,,,,,,,,,,,,,,,,,,,,,,,37.0,0.678,,,,,,
63,,isi,,html-keyboard-response,63,127620,0.0-1.0-13.0-0.0-2.0,0,0,18170,,,,,,11.0,,,,,1.0,,,,,,,,,,,,,,,,,,,,,,,,,,,38.5,1.5,,,,,,
64,,feedback,,html-keyboard-response,64,128623,0.0-1.0-13.0-0.0-3.0-0.0,0,0,18170,,,,,,11.0,,,,,1.0,,,,,,,,,,,,,,,,,,,,,,,,,,,39.5,1.0,,,,,,
65,,iti,,html-keyboard-response,65,131626,0.0-1.0-13.0-0.0-5.0,0,0,18170,,,,,,11.0,,,,,1.0,,,,,,,,,,,,,,,,,,,,,,,,,,,42.5,3.0,,,,,,
66,,choice,,html-keyboard-response,66,132248,0.0-1.0-14.0-0.0-0.0,0,0,18170,,618.0,,,75.0,12.0,12.0,1500.0,2000.0,0.0,1.0,0.0,20-60,,0.0,necklace,bowl,20.0,60.0,necklace1,bowl14,0.0,60.0,26443173.thl.jpg,Aredglassbowl.jpg,/static/Category_learning/Stimuli/Experimental_stims/necklace/26443173.thl.jpg,/static/Category_learning/Stimuli/Experimental_stims/bowl/Aredglassbowl.jpg,0.0,bowl,necklace,60.0,20.0,bowl14,necklace1,60.0,0.0,0.0,43.118,0.618,,,,,,
67,,confirmation,,html-keyboard-response,67,133138,0.0-1.0-14.0-0.0-1.0-0.0,0,0,18170,,,,,,12.0,,,,,1.0,,,,,,,,,,,,,,,,,,,,,,,,,,,44.0,0.882,,,,,,
68,,isi,,html-keyboard-response,68,134641,0.0-1.0-14.0-0.0-2.0,0,0,18170,,,,,,12.0,,,,,1.0,,,,,,,,,,,,,,,,,,,,,,,,,,,45.5,1.5,,,,,,
69,,feedback,,html-keyboard-response,69,135645,0.0-1.0-14.0-0.0-3.0-0.0,0,0,18170,,,,,,12.0,,,,,1.0,,,,,,,,,,,,,,,,,,,,,,,,,,,46.5,1.0,,,,,,
70,,iti,,html-keyboard-response,70,137650,0.0-1.0-14.0-0.0-5.0,0,0,18170,,,,,,12.0,,,,,1.0,,,,,,,,,,,,,,,,,,,,,,,,,,,48.5,2.0,,,,,,
71,,choice,,html-keyboard-response,71,138281,0.0-1.0-15.0-0.0-0.0,0,0,18170,,627.0,,,68.0,13.0,13.0,3500.0,3500.0,0.0,1.0,1.0,60-60,1.0,,bench,bench,60.0,60.0,bench8,bench3,80.0,40.0,APARKBE14.jpg,26419540.thl.jpg,/static/Category_learning/Stimuli/Experimental_stims/bench/APARKBE14.jpg,/static/Category_learning/Stimuli/Experimental_stims/bench/26419540.thl.jpg,1.0,bench,bench,60.0,60.0,bench8,bench3,80.0,40.0,0.0,49.127,0.627,,,,,,
72,,confirmation,,html-keyboard-response,72,139157,0.0-1.0-15.0-0.0-1.0-0.0,0,0,18170,,,,,,13.0,,,,,1.0,,,,,,,,,,,,,,,,,,,,,,,,,,,50.0,0.873,,,,,,
73,,isi,,html-keyboard-response,73,142660,0.0-1.0-15.0-0.0-2.0,0,0,18170,,,,,,13.0,,,,,1.0,,,,,,,,,,,,,,,,,,,,,,,,,,,53.5,3.5,,,,,,
74,,feedback,,html-keyboard-response,74,143664,0.0-1.0-15.0-0.0-3.0-0.0,0,0,18170,,,,,,13.0,,,,,1.0,,,,,,,,,,,,,,,,,,,,,,,,,,,54.5,1.0,,,,,,
75,,iti,,html-keyboard-response,75,147176,0.0-1.0-15.0-0.0-5.0,0,0,18170,,,,,,13.0,,,,,1.0,,,,,,,,,,,,,,,,,,,,,,,,,,,58.0,3.5,,,,,,
76,,choice,,html-keyboard-response,76,147885,0.0-1.0-16.0-0.0-0.0,0,0,18170,,706.0,,,75.0,14.0,14.0,1000.0,1000.0,0.0,1.0,0.0,60-80,,1.0,microscope,bench,80.0,60.0,microscope12,bench12,60.0,80.0,usbdigitalmicroscope1_small1.jpg,22927976.thl.jpg,/static/Category_learning/Stimuli/Experimental_stims/microscope/usbdigitalmicroscope1_small1.jpg,/static/Category_learning/Stimuli/Experimental_stims/bench/22927976.thl.jpg,0.0,bench,microscope,60.0,80.0,bench12,microscope12,80.0,60.0,0.0,58.706,0.706,,,,,,
77,,confirmation,,html-keyboard-response,77,148684,0.0-1.0-16.0-0.0-1.0-0.0,0,0,18170,,,,,,14.0,,,,,1.0,,,,,,,,,,,,,,,,,,,,,,,,,,,59.5,0.794,,,,,,
78,,isi,,html-keyboard-response,78,149687,0.0-1.0-16.0-0.0-2.0,0,0,18170,,,,,,14.0,,,,,1.0,,,,,,,,,,,,,,,,,,,,,,,,,,,60.5,1.0,,,,,,
79,,feedback,,html-keyboard-response,79,150691,0.0-1.0-16.0-0.0-3.0-0.0,0,0,18170,,,,,,14.0,,,,,1.0,,,,,,,,,,,,,,,,,,,,,,,,,,,61.5,1.0,,,,,,
80,,iti,,html-keyboard-response,80,151695,0.0-1.0-16.0-0.0-5.0,0,0,18170,,,,,,14.0,,,,,1.0,,,,,,,,,,,,,,,,,,,,,,,,,,,62.5,1.0,,,,,,
81,,choice,,html-keyboard-response,81,152703,0.0-1.0-17.0-0.0-0.0,0,0,18170,,1001.0,,,75.0,15.0,15.0,1000.0,1000.0,0.0,1.0,1.0,20-20,1.0,,poker card,poker card,20.0,20.0,poker card9,poker card8,40.0,20.0,9817230.thl.jpg,22864392.thl.jpg,/static/Category_learning/Stimuli/Experimental_stims/poker card/9817230.thl.jpg,/static/Category_learning/Stimuli/Experimental_stims/poker card/22864392.thl.jpg,0.0,poker card,poker card,20.0,20.0,poker card8,poker card9,20.0,40.0,0.0,63.501,1.001,,,,,,
82,,confirmation,,html-keyboard-response,82,153211,0.0-1.0-17.0-0.0-1.0-0.0,0,0,18170,,,,,,15.0,,,,,1.0,,,,,,,,,,,,,,,,,,,,,,,,,,,64.0,0.499,,,,,,
83,,isi,,html-keyboard-response,83,154215,0.0-1.0-17.0-0.0-2.0,0,0,18170,,,,,,15.0,,,,,1.0,,,,,,,,,,,,,,,,,,,,,,,,,,,65.0,1.0,,,,,,
84,,feedback,,html-keyboard-response,84,155220,0.0-1.0-17.0-0.0-3.0-0.0,0,0,18170,,,,,,15.0,,,,,1.0,,,,,,,,,,,,,,,,,,,,,,,,,,,66.0,1.0,,,,,,
85,,iti,,html-keyboard-response,85,156224,0.0-1.0-17.0-0.0-5.0,0,0,18170,,,,,,15.0,,,,,1.0,,,,,,,,,,,,,,,,,,,,,,,,,,,67.0,1.0,,,,,,
86,,choice,,html-keyboard-response,86,157197,0.0-1.0-18.0-0.0-0.0,0,0,18170,,970.0,,,75.0,16.0,16.0,1000.0,1000.0,0.0,1.0,0.0,20-40,,0.0,poker card,yarn,20.0,40.0,poker card3,yarn4,0.0,40.0,9817131.thl.jpg,amethyst dreaming boho hy sml.jpg,/static/Category_learning/Stimuli/Experimental_stims/poker card/9817131.thl.jpg,/static/Category_learning/Stimuli/Experimental_stims/yarn/amethyst dreaming boho hy sml.jpg,0.0,yarn,poker card,40.0,20.0,yarn4,poker card3,40.0,0.0,0.0,67.97,0.97,,,,,,
87,,confirmation,,html-keyboard-response,87,157741,0.0-1.0-18.0-0.0-1.0-0.0,0,0,18170,,,,,,16.0,,,,,1.0,,,,,,,,,,,,,,,,,,,,,,,,,,,68.5,0.53,,,,,,
88,,isi,,html-keyboard-response,88,158744,0.0-1.0-18.0-0.0-2.0,0,0,18170,,,,,,16.0,,,,,1.0,,,,,,,,,,,,,,,,,,,,,,,,,,,69.5,1.0,,,,,,
89,,feedback,,html-keyboard-response,89,159749,0.0-1.0-18.0-0.0-3.0-0.0,0,0,18170,,,,,,16.0,,,,,1.0,,,,,,,,,,,,,,,,,,,,,,,,,,,70.5,1.0,,,,,,
90,,iti,,html-keyboard-response,90,160753,0.0-1.0-18.0-0.0-5.0,0,0,18170,,,,,,16.0,,,,,1.0,,,,,,,,,,,,,,,,,,,,,,,,,,,71.5,1.0,,,,,,
91,,choice,,html-keyboard-response,91,161656,0.0-1.0-19.0-0.0-0.0,0,0,18170,,900.0,,,68.0,17.0,17.0,3500.0,1000.0,0.0,1.0,0.0,40-80,,0.0,trumpet,microscope,40.0,80.0,trumpet11,microscope8,20.0,80.0,JUPITER+JTR604L.jpg,AMICROS21.jpg,/static/Category_learning/Stimuli/Experimental_stims/trumpet/JUPITER+JTR604L.jpg,/static/Category_learning/Stimuli/Experimental_stims/microscope/AMICROS21.jpg,1.0,trumpet,microscope,40.0,80.0,trumpet11,microscope8,20.0,80.0,0.0,72.4,0.9,,,,,,
92,,confirmation,,html-keyboard-response,92,162260,0.0-1.0-19.0-0.0-1.0-0.0,0,0,18170,,,,,,17.0,,,,,1.0,,,,,,,,,,,,,,,,,,,,,,,,,,,73.0,0.6,,,,,,
93,,isi,,html-keyboard-response,93,165763,0.0-1.0-19.0-0.0-2.0,0,0,18170,,,,,,17.0,,,,,1.0,,,,,,,,,,,,,,,,,,,,,,,,,,,76.5,3.5,,,,,,
94,,feedback,,html-keyboard-response,94,166767,0.0-1.0-19.0-0.0-3.0-0.0,0,0,18170,,,,,,17.0,,,,,1.0,,,,,,,,,,,,,,,,,,,,,,,,,,,77.5,1.0,,,,,,
95,,iti,,html-keyboard-response,95,167771,0.0-1.0-19.0-0.0-5.0,0,0,18170,,,,,,17.0,,,,,1.0,,,,,,,,,,,,,,,,,,,,,,,,,,,78.5,1.0,,,,,,
96,,choice,,html-keyboard-response,96,168670,0.0-1.0-20.0-0.0-0.0,0,0,18170,,896.0,,,68.0,18.0,18.0,1500.0,1000.0,0.0,1.0,0.0,60-80,,0.0,baby carriage,hammer,60.0,80.0,baby carriage5,hammer8,80.0,80.0,Baby_Stroller.jpg,ct1006_hammer.jpg,/static/Category_learning/Stimuli/Experimental_stims/baby carriage/Baby_Stroller.jpg,/static/Category_learning/Stimuli/Experimental_stims/hammer/ct1006_hammer.jpg,1.0,baby carriage,hammer,60.0,80.0,baby carriage5,hammer8,80.0,80.0,0.0,79.396,0.896,,,,,,
97,,confirmation,,html-keyboard-response,97,169277,0.0-1.0-20.0-0.0-1.0-0.0,0,0,18170,,,,,,18.0,,,,,1.0,,,,,,,,,,,,,,,,,,,,,,,,,,,80.0,0.604,,,,,,
98,,isi,,html-keyboard-response,98,170781,0.0-1.0-20.0-0.0-2.0,0,0,18170,,,,,,18.0,,,,,1.0,,,,,,,,,,,,,,,,,,,,,,,,,,,81.5,1.5,,,,,,
99,,feedback,,html-keyboard-response,99,171784,0.0-1.0-20.0-0.0-3.0-0.0,0,0,18170,,,,,,18.0,,,,,1.0,,,,,,,,,,,,,,,,,,,,,,,,,,,82.5,1.0,,,,,,
100,,iti,,html-keyboard-response,100,172787,0.0-1.0-20.0-0.0-5.0,0,0,18170,,,,,,18.0,,,,,1.0,,,,,,,,,,,,,,,,,,,,,,,,,,,83.5,1.0,,,,,,
101,,choice,,html-keyboard-response,101,173474,0.0-1.0-21.0-0.0-0.0,0,0,18170,,684.0,,,75.0,19.0,19.0,1500.0,3500.0,0.0,1.0,0.0,60-60,,,fan,flashlight,60.0,60.0,fan6,flashlight1,60.0,40.0,30090.fpx.jpg,Graphite3D.jpg,/static/Category_learning/Stimuli/Experimental_stims/fan/30090.fpx.jpg,/static/Category_learning/Stimuli/Experimental_stims/flashlight/Graphite3D.jpg,0.0,flashlight,fan,60.0,60.0,flashlight1,fan6,40.0,60.0,0.0,84.184,0.684,,,,,,
102,,confirmation,,html-keyboard-response,102,174294,0.0-1.0-21.0-0.0-1.0-0.0,0,0,18170,,,,,,19.0,,,,,1.0,,,,,,,,,,,,,,,,,,,,,,,,,,,85.0,0.816,,,,,,
103,,isi,,html-keyboard-response,103,175796,0.0-1.0-21.0-0.0-2.0,0,0,18170,,,,,,19.0,,,,,1.0,,,,,,,,,,,,,,,,,,,,,,,,,,,86.5,1.5,,,,,,
104,,feedback,,html-keyboard-response,104,176800,0.0-1.0-21.0-0.0-3.0-0.0,0,0,18170,,,,,,19.0,,,,,1.0,,,,,,,,,,,,,,,,,,,,,,,,,,,87.5,1.0,,,,,,
105,,iti,,html-keyboard-response,105,180304,0.0-1.0-21.0-0.0-5.0,0,0,18170,,,,,,19.0,,,,,1.0,,,,,,,,,,,,,,,,,,,,,,,,,,,91.0,3.5,,,,,,
106,,choice,,html-keyboard-response,106,181006,0.0-1.0-22.0-0.0-0.0,0,0,18170,,698.0,,,68.0,20.0,20.0,1000.0,1000.0,0.0,1.0,0.0,20-80,,1.0,frame,patio lounge chair,80.0,20.0,frame11,patio lounge chair9,100.0,20.0,AFRAME139.jpg,43-3.jpg,/static/Category_learning/Stimuli/Experimental_stims/frame/AFRAME139.jpg,/static/Category_learning/Stimuli/Experimental_stims/patio lounge chair/43-3.jpg,1.0,frame,patio lounge chair,80.0,20.0,frame11,patio lounge chair9,100.0,20.0,0.0,91.698,0.698,,,,,,
107,,confirmation,,html-keyboard-response,107,181811,0.0-1.0-22.0-0.0-1.0-0.0,0,0,18170,,,,,,20.0,,,,,1.0,,,,,,,,,,,,,,,,,,,,,,,,,,,92.5,0.802,,,,,,
108,,isi,,html-keyboard-response,108,182815,0.0-1.0-22.0-0.0-2.0,0,0,18170,,,,,,20.0,,,,,1.0,,,,,,,,,,,,,,,,,,,,,,,,,,,93.5,1.0,,,,,,
109,,feedback,,html-keyboard-response,109,183818,0.0-1.0-22.0-0.0-3.0-0.0,0,0,18170,,,,,,20.0,,,,,1.0,,,,,,,,,,,,,,,,,,,,,,,,,,,94.5,1.0,,,,,,
110,,iti,,html-keyboard-response,110,184823,0.0-1.0-22.0-0.0-5.0,0,0,18170,,,,,,20.0,,,,,1.0,,,,,,,,,,,,,,,,,,,,,,,,,,,95.5,1.0,,,,,,
111,,choice,,html-keyboard-response,111,185599,0.0-1.0-23.0-0.0-0.0,0,0,18170,,773.0,,,75.0,21.0,21.0,2000.0,1000.0,0.0,1.0,0.0,40-80,,0.0,telescope,license plate,40.0,80.0,telescope11,license plate14,40.0,100.0,digimarc.ms03.jpg,fl-hel-bel.jpg,/static/Category_learning/Stimuli/Experimental_stims/telescope/digimarc.ms03.jpg,/static/Category_learning/Stimuli/Experimental_stims/license plate/fl-hel-bel.jpg,0.0,license plate,telescope,80.0,40.0,license plate14,telescope11,100.0,40.0,0.0,96.273,0.773,,,,,,
112,,confirmation,,html-keyboard-response,112,186331,0.0-1.0-23.0-0.0-1.0-0.0,0,0,18170,,,,,,21.0,,,,,1.0,,,,,,,,,,,,,,,,,,,,,,,,,,,97.0,0.727,,,,,,
113,,isi,,html-keyboard-response,113,188333,0.0-1.0-23.0-0.0-2.0,0,0,18170,,,,,,21.0,,,,,1.0,,,,,,,,,,,,,,,,,,,,,,,,,,,99.0,2.0,,,,,,
114,,feedback,,html-keyboard-response,114,189337,0.0-1.0-23.0-0.0-3.0-0.0,0,0,18170,,,,,,21.0,,,,,1.0,,,,,,,,,,,,,,,,,,,,,,,,,,,100.0,1.0,,,,,,
115,,iti,,html-keyboard-response,115,190340,0.0-1.0-23.0-0.0-5.0,0,0,18170,,,,,,21.0,,,,,1.0,,,,,,,,,,,,,,,,,,,,,,,,,,,101.0,1.0,,,,,,
116,,choice,,html-keyboard-response,116,191168,0.0-1.0-24.0-0.0-0.0,0,0,18170,,826.0,,,68.0,22.0,22.0,1000.0,1500.0,0.0,1.0,1.0,40-60,0.0,,trumpet,bench,40.0,60.0,trumpet11,bench12,20.0,80.0,JUPITER+JTR604L.jpg,22927976.thl.jpg,/static/Category_learning/Stimuli/Experimental_stims/trumpet/JUPITER+JTR604L.jpg,/static/Category_learning/Stimuli/Experimental_stims/bench/22927976.thl.jpg,1.0,trumpet,bench,40.0,60.0,trumpet11,bench12,20.0,80.0,0.0,101.826,0.826,,,,,,
117,,confirmation,,html-keyboard-response,117,191845,0.0-1.0-24.0-0.0-1.0-0.0,0,0,18170,,,,,,22.0,,,,,1.0,,,,,,,,,,,,,,,,,,,,,,,,,,,102.5,0.674,,,,,,
118,,isi,,html-keyboard-response,118,192849,0.0-1.0-24.0-0.0-2.0,0,0,18170,,,,,,22.0,,,,,1.0,,,,,,,,,,,,,,,,,,,,,,,,,,,103.5,1.0,,,,,,
119,,feedback,,html-keyboard-response,119,193860,0.0-1.0-24.0-0.0-3.0-0.0,0,0,18170,,,,,,22.0,,,,,1.0,,,,,,,,,,,,,,,,,,,,,,,,,,,104.5,1.0,,,,,,
120,,iti,,html-keyboard-response,120,195363,0.0-1.0-24.0-0.0-5.0,0,0,18170,,,,,,22.0,,,,,1.0,,,,,,,,,,,,,,,,,,,,,,,,,,,106.0,1.5,,,,,,
121,,choice,,html-keyboard-response,121,196166,0.0-1.0-25.0-0.0-0.0,0,0,18170,,800.0,,,68.0,23.0,23.0,1000.0,1500.0,0.0,1.0,0.0,40-80,,1.0,license plate,train,80.0,40.0,license plate9,train6,60.0,20.0,nm-dhg089.jpg,train9.jpg,/static/Category_learning/Stimuli/Experimental_stims/license plate/nm-dhg089.jpg,/static/Category_learning/Stimuli/Experimental_stims/train/train9.jpg,1.0,license plate,train,80.0,40.0,license plate9,train6,60.0,20.0,0.0,106.8,0.8,,,,,,
122,,confirmation,,html-keyboard-response,122,196870,0.0-1.0-25.0-0.0-1.0-0.0,0,0,18170,,,,,,23.0,,,,,1.0,,,,,,,,,,,,,,,,,,,,,,,,,,,107.5,0.7,,,,,,
123,,isi,,html-keyboard-response,123,197873,0.0-1.0-25.0-0.0-2.0,0,0,18170,,,,,,23.0,,,,,1.0,,,,,,,,,,,,,,,,,,,,,,,,,,,108.5,1.0,,,,,,
124,,feedback,,html-keyboard-response,124,198877,0.0-1.0-25.0-0.0-3.0-0.0,0,0,18170,,,,,,23.0,,,,,1.0,,,,,,,,,,,,,,,,,,,,,,,,,,,109.5,1.0,,,,,,
125,,iti,,html-keyboard-response,125,200380,0.0-1.0-25.0-0.0-5.0,0,0,18170,,,,,,23.0,,,,,1.0,,,,,,,,,,,,,,,,,,,,,,,,,,,111.0,1.5,,,,,,
126,,choice,,html-keyboard-response,126,201113,0.0-1.0-26.0-0.0-0.0,0,0,18170,,729.0,,,75.0,24.0,24.0,2000.0,1500.0,0.0,1.0,1.0,80-80,1.0,,license plate,license plate,80.0,80.0,license plate9,license plate14,60.0,100.0,nm-dhg089.jpg,fl-hel-bel.jpg,/static/Category_learning/Stimuli/Experimental_stims/license plate/nm-dhg089.jpg,/static/Category_learning/Stimuli/Experimental_stims/license plate/fl-hel-bel.jpg,0.0,license plate,license plate,80.0,80.0,license plate14,license plate9,100.0,60.0,0.0,111.729,0.729,,,,,,
127,,confirmation,,html-keyboard-response,127,201888,0.0-1.0-26.0-0.0-1.0-0.0,0,0,18170,,,,,,24.0,,,,,1.0,,,,,,,,,,,,,,,,,,,,,,,,,,,112.5,0.771,,,,,,
128,,isi,,html-keyboard-response,128,203890,0.0-1.0-26.0-0.0-2.0,0,0,18170,,,,,,24.0,,,,,1.0,,,,,,,,,,,,,,,,,,,,,,,,,,,114.5,2.0,,,,,,
129,,feedback,,html-keyboard-response,129,204894,0.0-1.0-26.0-0.0-3.0-0.0,0,0,18170,,,,,,24.0,,,,,1.0,,,,,,,,,,,,,,,,,,,,,,,,,,,115.5,1.0,,,,,,
130,,iti,,html-keyboard-response,130,206397,0.0-1.0-26.0-0.0-5.0,0,0,18170,,,,,,24.0,,,,,1.0,,,,,,,,,,,,,,,,,,,,,,,,,,,117.0,1.5,,,,,,
131,,choice,,html-keyboard-response,131,207156,0.0-1.0-27.0-0.0-0.0,0,0,18170,,756.0,,,75.0,25.0,25.0,1500.0,2000.0,0.0,1.0,0.0,40-60,,0.0,trumpet,flashlight,40.0,60.0,trumpet4,flashlight2,20.0,60.0,JUPITER+JTR1000S.jpg,AV-9 No Battery Flashlight.jpg,/static/Category_learning/Stimuli/Experimental_stims/trumpet/JUPITER+JTR1000S.jpg,/static/Category_learning/Stimuli/Experimental_stims/flashlight/AV-9 No Battery Flashlight.jpg,0.0,flashlight,trumpet,60.0,40.0,flashlight2,trumpet4,60.0,20.0,0.0,117.756,0.756,,,,,,
132,,confirmation,,html-keyboard-response,132,207903,0.0-1.0-27.0-0.0-1.0-0.0,0,0,18170,,,,,,25.0,,,,,1.0,,,,,,,,,,,,,,,,,,,,,,,,,,,118.5,0.744,,,,,,
133,,isi,,html-keyboard-response,133,209406,0.0-1.0-27.0-0.0-2.0,0,0,18170,,,,,,25.0,,,,,1.0,,,,,,,,,,,,,,,,,,,,,,,,,,,120.0,1.5,,,,,,
134,,feedback,,html-keyboard-response,134,210409,0.0-1.0-27.0-0.0-3.0-0.0,0,0,18170,,,,,,25.0,,,,,1.0,,,,,,,,,,,,,,,,,,,,,,,,,,,121.0,1.0,,,,,,
135,,iti,,html-keyboard-response,135,212412,0.0-1.0-27.0-0.0-5.0,0,0,18170,,,,,,25.0,,,,,1.0,,,,,,,,,,,,,,,,,,,,,,,,,,,123.0,2.0,,,,,,
136,,choice,,html-keyboard-response,136,213183,0.0-1.0-28.0-0.0-0.0,0,0,18170,,768.0,,,68.0,26.0,26.0,1500.0,3000.0,0.0,1.0,0.0,40-60,,0.0,stool,bowl,40.0,60.0,stool9,bowl8,40.0,40.0,ASTOOL7.jpg,ASLVBOWL.jpg,/static/Category_learning/Stimuli/Experimental_stims/stool/ASTOOL7.jpg,/static/Category_learning/Stimuli/Experimental_stims/bowl/ASLVBOWL.jpg,1.0,stool,bowl,40.0,60.0,stool9,bowl8,40.0,40.0,0.0,123.768,0.768,,,,,,
137,,confirmation,,html-keyboard-response,137,213919,0.0-1.0-28.0-0.0-1.0-0.0,0,0,18170,,,,,,26.0,,,,,1.0,,,,,,,,,,,,,,,,,,,,,,,,,,,124.5,0.732,,,,,,
138,,isi,,html-keyboard-response,138,215421,0.0-1.0-28.0-0.0-2.0,0,0,18170,,,,,,26.0,,,,,1.0,,,,,,,,,,,,,,,,,,,,,,,,,,,126.0,1.5,,,,,,
139,,feedback,,html-keyboard-response,139,216425,0.0-1.0-28.0-0.0-3.0-0.0,0,0,18170,,,,,,26.0,,,,,1.0,,,,,,,,,,,,,,,,,,,,,,,,,,,127.0,1.0,,,,,,
140,,iti,,html-keyboard-response,140,219428,0.0-1.0-28.0-0.0-5.0,0,0,18170,,,,,,26.0,,,,,1.0,,,,,,,,,,,,,,,,,,,,,,,,,,,130.0,3.0,,,,,,
141,,choice,,html-keyboard-response,141,220096,0.0-1.0-29.0-0.0-0.0,0,0,18170,,662.0,,,75.0,27.0,27.0,1000.0,1000.0,0.0,1.0,0.0,80-80,,,key chain,lipstick,80.0,80.0,key chain8,lipstick5,100.0,80.0,Keychain01.jpg,P35719_hero.jpg,/static/Category_learning/Stimuli/Experimental_stims/key chain/Keychain01.jpg,/static/Category_learning/Stimuli/Experimental_stims/lipstick/P35719_hero.jpg,0.0,lipstick,key chain,80.0,80.0,lipstick5,key chain8,80.0,100.0,0.0,130.662,0.662,,,,,,
142,,confirmation,,html-keyboard-response,142,220943,0.0-1.0-29.0-0.0-1.0-0.0,0,0,18170,,,,,,27.0,,,,,1.0,,,,,,,,,,,,,,,,,,,,,,,,,,,131.5,0.838,,,,,,
143,,isi,,html-keyboard-response,143,221946,0.0-1.0-29.0-0.0-2.0,0,0,18170,,,,,,27.0,,,,,1.0,,,,,,,,,,,,,,,,,,,,,,,,,,,132.5,1.0,,,,,,
144,,feedback,,html-keyboard-response,144,222950,0.0-1.0-29.0-0.0-3.0-0.0,0,0,18170,,,,,,27.0,,,,,1.0,,,,,,,,,,,,,,,,,,,,,,,,,,,133.5,1.0,,,,,,
145,,iti,,html-keyboard-response,145,223954,0.0-1.0-29.0-0.0-5.0,0,0,18170,,,,,,27.0,,,,,1.0,,,,,,,,,,,,,,,,,,,,,,,,,,,134.5,1.0,,,,,,
146,,choice,,html-keyboard-response,146,224556,0.0-1.0-30.0-0.0-0.0,0,0,18170,,599.0,,,75.0,28.0,28.0,3500.0,1500.0,0.0,1.0,0.0,60-60,,,bench,desk,60.0,60.0,bench7,desk5,40.0,80.0,ACONBENCH.jpg,ADESK6.jpg,/static/Category_learning/Stimuli/Experimental_stims/bench/ACONBENCH.jpg,/static/Category_learning/Stimuli/Experimental_stims/desk/ADESK6.jpg,0.0,desk,bench,60.0,60.0,desk5,bench7,80.0,40.0,0.0,135.099,0.599,,,,,,
147,,confirmation,,html-keyboard-response,147,225460,0.0-1.0-30.0-0.0-1.0-0.0,0,0,18170,,,,,,28.0,,,,,1.0,,,,,,,,,,,,,,,,,,,,,,,,,,,136.0,0.901,,,,,,
148,,isi,,html-keyboard-response,148,228963,0.0-1.0-30.0-0.0-2.0,0,0,18170,,,,,,28.0,,,,,1.0,,,,,,,,,,,,,,,,,,,,,,,,,,,139.5,3.5,,,,,,
149,,feedback,,html-keyboard-response,149,229966,0.0-1.0-30.0-0.0-3.0-0.0,0,0,18170,,,,,,28.0,,,,,1.0,,,,,,,,,,,,,,,,,,,,,,,,,,,140.5,1.0,,,,,,
150,,iti,,html-keyboard-response,150,231469,0.0-1.0-30.0-0.0-5.0,0,0,18170,,,,,,28.0,,,,,1.0,,,,,,,,,,,,,,,,,,,,,,,,,,,142.0,1.5,,,,,,
151,,choice,,html-keyboard-response,151,232363,0.0-1.0-31.0-0.0-0.0,0,0,18170,,892.0,,,68.0,29.0,29.0,2000.0,1000.0,0.0,1.0,1.0,60-60,1.0,,flashlight,flashlight,60.0,60.0,flashlight1,flashlight2,40.0,60.0,Graphite3D.jpg,AV-9 No Battery Flashlight.jpg,/static/Category_learning/Stimuli/Experimental_stims/flashlight/Graphite3D.jpg,/static/Category_learning/Stimuli/Experimental_stims/flashlight/AV-9 No Battery Flashlight.jpg,1.0,flashlight,flashlight,60.0,60.0,flashlight1,flashlight2,40.0,60.0,0.0,142.892,0.892,,,,,,
152,,confirmation,,html-keyboard-response,152,232983,0.0-1.0-31.0-0.0-1.0-0.0,0,0,18170,,,,,,29.0,,,,,1.0,,,,,,,,,,,,,,,,,,,,,,,,,,,143.5,0.608,,,,,,
153,,isi,,html-keyboard-response,153,234992,0.0-1.0-31.0-0.0-2.0,0,0,18170,,,,,,29.0,,,,,1.0,,,,,,,,,,,,,,,,,,,,,,,,,,,145.5,2.0,,,,,,
154,,feedback,,html-keyboard-response,154,235996,0.0-1.0-31.0-0.0-3.0-0.0,0,0,18170,,,,,,29.0,,,,,1.0,,,,,,,,,,,,,,,,,,,,,,,,,,,146.5,1.0,,,,,,
155,,iti,,html-keyboard-response,155,237004,0.0-1.0-31.0-0.0-5.0,0,0,18170,,,,,,29.0,,,,,1.0,,,,,,,,,,,,,,,,,,,,,,,,,,,147.5,1.0,,,,,,
156,,choice,,html-keyboard-response,156,237578,0.0-1.0-32.0-0.0-0.0,0,0,18170,,572.0,,,75.0,30.0,30.0,2000.0,3500.0,0.0,1.0,0.0,40-60,,0.0,stool,dresser,40.0,60.0,stool10,dresser12,60.0,60.0,ASTOOL26.jpg,ADRESSE58.jpg,/static/Category_learning/Stimuli/Experimental_stims/stool/ASTOOL26.jpg,/static/Category_learning/Stimuli/Experimental_stims/dresser/ADRESSE58.jpg,0.0,dresser,stool,60.0,40.0,dresser12,stool10,60.0,60.0,0.0,148.072,0.572,,,,,,
157,,confirmation,,html-keyboard-response,157,238510,0.0-1.0-32.0-0.0-1.0-0.0,0,0,18170,,,,,,30.0,,,,,1.0,,,,,,,,,,,,,,,,,,,,,,,,,,,149.0,0.928,,,,,,
158,,isi,,html-keyboard-response,158,240513,0.0-1.0-32.0-0.0-2.0,0,0,18170,,,,,,30.0,,,,,1.0,,,,,,,,,,,,,,,,,,,,,,,,,,,151.0,2.0,,,,,,
159,,feedback,,html-keyboard-response,159,241517,0.0-1.0-32.0-0.0-3.0-0.0,0,0,18170,,,,,,30.0,,,,,1.0,,,,,,,,,,,,,,,,,,,,,,,,,,,152.0,1.0,,,,,,
160,,iti,,html-keyboard-response,160,245019,0.0-1.0-32.0-0.0-5.0,0,0,18170,,,,,,30.0,,,,,1.0,,,,,,,,,,,,,,,,,,,,,,,,,,,155.5,3.5,,,,,,
161,,choice,,html-keyboard-response,161,245804,0.0-1.0-33.0-0.0-0.0,0,0,18170,,783.0,,,68.0,31.0,31.0,2000.0,2000.0,0.0,1.0,1.0,60-60,1.0,,dresser,dresser,60.0,60.0,dresser4,dresser12,80.0,60.0,ADRESSE40.jpg,ADRESSE58.jpg,/static/Category_learning/Stimuli/Experimental_stims/dresser/ADRESSE40.jpg,/static/Category_learning/Stimuli/Experimental_stims/dresser/ADRESSE58.jpg,1.0,dresser,dresser,60.0,60.0,dresser4,dresser12,80.0,60.0,0.0,156.283,0.783,,,,,,
162,,confirmation,,html-keyboard-response,162,246534,0.0-1.0-33.0-0.0-1.0-0.0,0,0,18170,,,,,,31.0,,,,,1.0,,,,,,,,,,,,,,,,,,,,,,,,,,,157.0,0.717,,,,,,
163,,isi,,html-keyboard-response,163,248537,0.0-1.0-33.0-0.0-2.0,0,0,18170,,,,,,31.0,,,,,1.0,,,,,,,,,,,,,,,,,,,,,,,,,,,159.0,2.0,,,,,,
164,,feedback,,html-keyboard-response,164,249541,0.0-1.0-33.0-0.0-3.0-0.0,0,0,18170,,,,,,31.0,,,,,1.0,,,,,,,,,,,,,,,,,,,,,,,,,,,160.0,1.0,,,,,,
165,,iti,,html-keyboard-response,165,251546,0.0-1.0-33.0-0.0-5.0,0,0,18170,,,,,,31.0,,,,,1.0,,,,,,,,,,,,,,,,,,,,,,,,,,,162.0,2.0,,,,,,
166,,choice,,html-keyboard-response,166,252336,0.0-1.0-34.0-0.0-0.0,0,0,18170,,788.0,,,68.0,32.0,32.0,1500.0,2000.0,0.0,1.0,0.0,40-40,,,stool,tape,40.0,40.0,stool8,tape9,60.0,40.0,ASTOOL33.jpg,desk tape disp.jpg,/static/Category_learning/Stimuli/Experimental_stims/stool/ASTOOL33.jpg,/static/Category_learning/Stimuli/Experimental_stims/tape/desk tape disp.jpg,1.0,stool,tape,40.0,40.0,stool8,tape9,60.0,40.0,0.0,162.788,0.788,,,,,,
167,,confirmation,,html-keyboard-response,167,253060,0.0-1.0-34.0-0.0-1.0-0.0,0,0,18170,,,,,,32.0,,,,,1.0,,,,,,,,,,,,,,,,,,,,,,,,,,,163.5,0.712,,,,,,
168,,isi,,html-keyboard-response,168,254563,0.0-1.0-34.0-0.0-2.0,0,0,18170,,,,,,32.0,,,,,1.0,,,,,,,,,,,,,,,,,,,,,,,,,,,165.0,1.5,,,,,,
169,,feedback,,html-keyboard-response,169,255569,0.0-1.0-34.0-0.0-3.0-0.0,0,0,18170,,,,,,32.0,,,,,1.0,,,,,,,,,,,,,,,,,,,,,,,,,,,166.0,1.0,,,,,,
170,,iti,,html-keyboard-response,170,257572,0.0-1.0-34.0-0.0-5.0,0,0,18170,,,,,,32.0,,,,,1.0,,,,,,,,,,,,,,,,,,,,,,,,,,,168.0,2.0,,,,,,
171,,choice,,html-keyboard-response,171,258200,0.0-1.0-35.0-0.0-0.0,0,0,18170,,625.0,,,75.0,33.0,33.0,1000.0,3000.0,0.0,1.0,0.0,40-40,,,yarn,tent,40.0,40.0,yarn10,tent5,60.0,60.0,revelation-yarn.jpg,Dome Tentnb87r67.jpg,/static/Category_learning/Stimuli/Experimental_stims/yarn/revelation-yarn.jpg,/static/Category_learning/Stimuli/Experimental_stims/tent/Dome Tentnb87r67.jpg,0.0,tent,yarn,40.0,40.0,tent5,yarn10,60.0,60.0,0.0,168.625,0.625,,,,,,
172,,confirmation,,html-keyboard-response,172,259081,0.0-1.0-35.0-0.0-1.0-0.0,0,0,18170,,,,,,33.0,,,,,1.0,,,,,,,,,,,,,,,,,,,,,,,,,,,169.5,0.875,,,,,,
173,,isi,,html-keyboard-response,173,260087,0.0-1.0-35.0-0.0-2.0,0,0,18170,,,,,,33.0,,,,,1.0,,,,,,,,,,,,,,,,,,,,,,,,,,,170.5,1.0,,,,,,
174,,feedback,,html-keyboard-response,174,261092,0.0-1.0-35.0-0.0-3.0-0.0,0,0,18170,,,,,,33.0,,,,,1.0,,,,,,,,,,,,,,,,,,,,,,,,,,,171.5,1.0,,,,,,
175,,iti,,html-keyboard-response,175,264095,0.0-1.0-35.0-0.0-5.0,0,0,18170,,,,,,33.0,,,,,1.0,,,,,,,,,,,,,,,,,,,,,,,,,,,174.5,3.0,,,,,,
176,,choice,,html-keyboard-response,176,264825,0.0-1.0-36.0-0.0-0.0,0,0,18170,,727.0,,,75.0,34.0,34.0,1000.0,1500.0,0.0,1.0,0.0,20-20,,,pen,nail polish,20.0,20.0,pen2,nail polish3,20.0,40.0,Montblanc-Blu-Starwalker-BP copy.jpg,327636.jpg,/static/Category_learning/Stimuli/Experimental_stims/pen/Montblanc-Blu-Starwalker-BP copy.jpg,/static/Category_learning/Stimuli/Experimental_stims/nail polish/327636.jpg,0.0,nail polish,pen,20.0,20.0,nail polish3,pen2,40.0,20.0,0.0,175.227,0.727,,,,,,
177,,confirmation,,html-keyboard-response,177,265601,0.0-1.0-36.0-0.0-1.0-0.0,0,0,18170,,,,,,34.0,,,,,1.0,,,,,,,,,,,,,,,,,,,,,,,,,,,176.0,0.773,,,,,,
178,,isi,,html-keyboard-response,178,266609,0.0-1.0-36.0-0.0-2.0,0,0,18170,,,,,,34.0,,,,,1.0,,,,,,,,,,,,,,,,,,,,,,,,,,,177.0,1.0,,,,,,
179,,feedback,,html-keyboard-response,179,267613,0.0-1.0-36.0-0.0-3.0-0.0,0,0,18170,,,,,,34.0,,,,,1.0,,,,,,,,,,,,,,,,,,,,,,,,,,,178.0,1.0,,,,,,
180,,iti,,html-keyboard-response,180,269116,0.0-1.0-36.0-0.0-5.0,0,0,18170,,,,,,34.0,,,,,1.0,,,,,,,,,,,,,,,,,,,,,,,,,,,179.5,1.5,,,,,,
181,,choice,,html-keyboard-response,181,269723,0.0-1.0-37.0-0.0-0.0,0,0,18170,,604.0,,,75.0,35.0,35.0,1500.0,1000.0,0.0,1.0,0.0,40-60,,0.0,stool,dresser,40.0,60.0,stool2,dresser14,20.0,60.0,ASTOOL46.jpg,Adressertabl3.jpg,/static/Category_learning/Stimuli/Experimental_stims/stool/ASTOOL46.jpg,/static/Category_learning/Stimuli/Experimental_stims/dresser/Adressertabl3.jpg,0.0,dresser,stool,60.0,40.0,dresser14,stool2,60.0,20.0,0.0,180.104,0.604,,,,,,
182,,confirmation,,html-keyboard-response,182,270623,0.0-1.0-37.0-0.0-1.0-0.0,0,0,18170,,,,,,35.0,,,,,1.0,,,,,,,,,,,,,,,,,,,,,,,,,,,181.0,0.896,,,,,,
183,,isi,,html-keyboard-response,183,272127,0.0-1.0-37.0-0.0-2.0,0,0,18170,,,,,,35.0,,,,,1.0,,,,,,,,,,,,,,,,,,,,,,,,,,,182.5,1.5,,,,,,
184,,feedback,,html-keyboard-response,184,273130,0.0-1.0-37.0-0.0-3.0-0.0,0,0,18170,,,,,,35.0,,,,,1.0,,,,,,,,,,,,,,,,,,,,,,,,,,,183.5,1.0,,,,,,
185,,iti,,html-keyboard-response,185,274134,0.0-1.0-37.0-0.0-5.0,0,0,18170,,,,,,35.0,,,,,1.0,,,,,,,,,,,,,,,,,,,,,,,,,,,184.5,1.0,,,,,,
186,,choice,,html-keyboard-response,186,274909,0.0-1.0-38.0-0.0-0.0,0,0,18170,,772.0,,,68.0,36.0,36.0,1500.0,1000.0,0.0,1.0,0.0,20-80,,0.0,necklace,motorcycle,20.0,80.0,necklace2,motorcycle2,20.0,100.0,Anecklace7.jpg,motorcycle33.jpg,/static/Category_learning/Stimuli/Experimental_stims/necklace/Anecklace7.jpg,/static/Category_learning/Stimuli/Experimental_stims/motorcycle/motorcycle33.jpg,1.0,necklace,motorcycle,20.0,80.0,necklace2,motorcycle2,20.0,100.0,0.0,185.272,0.772,,,,,,
187,,confirmation,,html-keyboard-response,187,275640,0.0-1.0-38.0-0.0-1.0-0.0,0,0,18170,,,,,,36.0,,,,,1.0,,,,,,,,,,,,,,,,,,,,,,,,,,,186.0,0.728,,,,,,
188,,isi,,html-keyboard-response,188,277142,0.0-1.0-38.0-0.0-2.0,0,0,18170,,,,,,36.0,,,,,1.0,,,,,,,,,,,,,,,,,,,,,,,,,,,187.5,1.5,,,,,,
189,,feedback,,html-keyboard-response,189,278149,0.0-1.0-38.0-0.0-3.0-0.0,0,0,18170,,,,,,36.0,,,,,1.0,,,,,,,,,,,,,,,,,,,,,,,,,,,188.5,1.0,,,,,,
190,,iti,,html-keyboard-response,190,279152,0.0-1.0-38.0-0.0-5.0,0,0,18170,,,,,,36.0,,,,,1.0,,,,,,,,,,,,,,,,,,,,,,,,,,,189.5,1.0,,,,,,
191,,choice,,html-keyboard-response,191,279847,0.0-1.0-39.0-0.0-0.0,0,0,18170,,691.0,,,75.0,37.0,37.0,1000.0,1000.0,0.0,1.0,1.0,40-40,1.0,,stool,stool,40.0,40.0,stool8,stool9,60.0,40.0,ASTOOL33.jpg,ASTOOL7.jpg,/static/Category_learning/Stimuli/Experimental_stims/stool/ASTOOL33.jpg,/static/Category_learning/Stimuli/Experimental_stims/stool/ASTOOL7.jpg,0.0,stool,stool,40.0,40.0,stool9,stool8,40.0,60.0,0.0,190.191,0.691,,,,,,
192,,confirmation,,html-keyboard-response,192,280661,0.0-1.0-39.0-0.0-1.0-0.0,0,0,18170,,,,,,37.0,,,,,1.0,,,,,,,,,,,,,,,,,,,,,,,,,,,191.0,0.809,,,,,,
193,,isi,,html-keyboard-response,193,281665,0.0-1.0-39.0-0.0-2.0,0,0,18170,,,,,,37.0,,,,,1.0,,,,,,,,,,,,,,,,,,,,,,,,,,,192.0,1.0,,,,,,
194,,feedback,,html-keyboard-response,194,282669,0.0-1.0-39.0-0.0-3.0-0.0,0,0,18170,,,,,,37.0,,,,,1.0,,,,,,,,,,,,,,,,,,,,,,,,,,,193.0,1.0,,,,,,
195,,iti,,html-keyboard-response,195,283673,0.0-1.0-39.0-0.0-5.0,0,0,18170,,,,,,37.0,,,,,1.0,,,,,,,,,,,,,,,,,,,,,,,,,,,194.0,1.0,,,,,,
196,,choice,,html-keyboard-response,196,284399,0.0-1.0-40.0-0.0-0.0,0,0,18170,,724.0,,,68.0,38.0,38.0,3000.0,1000.0,0.0,1.0,0.0,20-60,,0.0,sofa,bongo,20.0,60.0,sofa9,bongo12,20.0,40.0,ALOVSEAT9.jpg,26686609.thl.jpg,/static/Category_learning/Stimuli/Experimental_stims/sofa/ALOVSEAT9.jpg,/static/Category_learning/Stimuli/Experimental_stims/bongo/26686609.thl.jpg,1.0,sofa,bongo,20.0,60.0,sofa9,bongo12,20.0,40.0,0.0,194.724,0.724,,,,,,
197,,confirmation,,html-keyboard-response,197,285178,0.0-1.0-40.0-0.0-1.0-0.0,0,0,18170,,,,,,38.0,,,,,1.0,,,,,,,,,,,,,,,,,,,,,,,,,,,195.5,0.776,,,,,,
198,,isi,,html-keyboard-response,198,288181,0.0-1.0-40.0-0.0-2.0,0,0,18170,,,,,,38.0,,,,,1.0,,,,,,,,,,,,,,,,,,,,,,,,,,,198.5,3.0,,,,,,
199,,feedback,,html-keyboard-response,199,289185,0.0-1.0-40.0-0.0-3.0-0.0,0,0,18170,,,,,,38.0,,,,,1.0,,,,,,,,,,,,,,,,,,,,,,,,,,,199.5,1.0,,,,,,
200,,iti,,html-keyboard-response,200,290189,0.0-1.0-40.0-0.0-5.0,0,0,18170,,,,,,38.0,,,,,1.0,,,,,,,,,,,,,,,,,,,,,,,,,,,200.5,1.0,,,,,,
201,,choice,,html-keyboard-response,201,290752,0.0-1.0-41.0-0.0-0.0,0,0,18170,,560.0,,,68.0,39.0,39.0,3000.0,3000.0,0.0,1.0,0.0,20-20,,,patio lounge chair,seashell,20.0,20.0,patio lounge chair14,seashell13,40.0,0.0,2987951.jpg,coquillage22.jpg,/static/Category_learning/Stimuli/Experimental_stims/patio lounge chair/2987951.jpg,/static/Category_learning/Stimuli/Experimental_stims/seashell/coquillage22.jpg,1.0,patio lounge chair,seashell,20.0,20.0,patio lounge chair14,seashell13,40.0,0.0,0.0,201.06,0.56,,,,,,
202,,confirmation,,html-keyboard-response,202,291695,0.0-1.0-41.0-0.0-1.0-0.0,0,0,18170,,,,,,39.0,,,,,1.0,,,,,,,,,,,,,,,,,,,,,,,,,,,202.0,0.94,,,,,,
203,,isi,,html-keyboard-response,203,294699,0.0-1.0-41.0-0.0-2.0,0,0,18170,,,,,,39.0,,,,,1.0,,,,,,,,,,,,,,,,,,,,,,,,,,,205.0,3.0,,,,,,
204,,feedback,,html-keyboard-response,204,295703,0.0-1.0-41.0-0.0-3.0-0.0,0,0,18170,,,,,,39.0,,,,,1.0,,,,,,,,,,,,,,,,,,,,,,,,,,,206.0,1.0,,,,,,
205,,iti,,html-keyboard-response,205,298707,0.0-1.0-41.0-0.0-5.0,0,0,18170,,,,,,39.0,,,,,1.0,,,,,,,,,,,,,,,,,,,,,,,,,,,209.0,3.0,,,,,,
206,,choice,,html-keyboard-response,206,299311,0.0-1.0-42.0-0.0-0.0,0,0,18170,,601.0,,,75.0,40.0,40.0,2000.0,2000.0,0.0,1.0,0.0,60-80,,1.0,makeup compact,flashlight,80.0,60.0,makeup compact9,flashlight10,100.0,80.0,b_102019.jpg,834784_sk_lg.jpg,/static/Category_learning/Stimuli/Experimental_stims/makeup compact/b_102019.jpg,/static/Category_learning/Stimuli/Experimental_stims/flashlight/834784_sk_lg.jpg,0.0,flashlight,makeup compact,60.0,80.0,flashlight10,makeup compact9,80.0,100.0,0.0,209.601,0.601,,,,,,
207,,confirmation,,html-keyboard-response,207,300220,0.0-1.0-42.0-0.0-1.0-0.0,0,0,18170,,,,,,40.0,,,,,1.0,,,,,,,,,,,,,,,,,,,,,,,,,,,210.5,0.899,,,,,,
208,,isi,,html-keyboard-response,208,302224,0.0-1.0-42.0-0.0-2.0,0,0,18170,,,,,,40.0,,,,,1.0,,,,,,,,,,,,,,,,,,,,,,,,,,,212.5,2.0,,,,,,
209,,feedback,,html-keyboard-response,209,303227,0.0-1.0-42.0-0.0-3.0-0.0,0,0,18170,,,,,,40.0,,,,,1.0,,,,,,,,,,,,,,,,,,,,,,,,,,,213.5,1.0,,,,,,
210,,iti,,html-keyboard-response,210,305230,0.0-1.0-42.0-0.0-5.0,0,0,18170,,,,,,40.0,,,,,1.0,,,,,,,,,,,,,,,,,,,,,,,,,,,215.5,2.0,,,,,,
211,,choice,,html-keyboard-response,211,305544,0.0-1.0-43.0-0.0-0.0,0,0,18170,,311.0,,,75.0,41.0,41.0,2000.0,1000.0,0.0,1.0,1.0,20-60,0.0,,power strip,bowl,20.0,60.0,power strip8,bowl14,40.0,60.0,3118YGHQWXL._AA262_.jpg,Aredglassbowl.jpg,/static/Category_learning/Stimuli/Experimental_stims/power strip/3118YGHQWXL._AA262_.jpg,/static/Category_learning/Stimuli/Experimental_stims/bowl/Aredglassbowl.jpg,0.0,bowl,power strip,60.0,20.0,bowl14,power strip8,60.0,40.0,0.0,215.811,0.311,,,,,,
212,,confirmation,,html-keyboard-response,212,306737,0.0-1.0-43.0-0.0-1.0-0.0,0,0,18170,,,,,,41.0,,,,,1.0,,,,,,,,,,,,,,,,,,,,,,,,,,,217.0,1.189,,,,,,
213,,isi,,html-keyboard-response,213,308740,0.0-1.0-43.0-0.0-2.0,0,0,18170,,,,,,41.0,,,,,1.0,,,,,,,,,,,,,,,,,,,,,,,,,,,219.0,2.0,,,,,,
214,,feedback,,html-keyboard-response,214,309743,0.0-1.0-43.0-0.0-3.0-0.0,0,0,18170,,,,,,41.0,,,,,1.0,,,,,,,,,,,,,,,,,,,,,,,,,,,220.0,1.0,,,,,,
215,,iti,,html-keyboard-response,215,310745,0.0-1.0-43.0-0.0-5.0,0,0,18170,,,,,,41.0,,,,,1.0,,,,,,,,,,,,,,,,,,,,,,,,,,,221.0,1.0,,,,,,
216,,choice,,html-keyboard-response,216,311447,0.0-1.0-44.0-0.0-0.0,0,0,18170,,699.0,,,68.0,42.0,42.0,1000.0,1500.0,0.0,1.0,0.0,40-80,,1.0,makeup compact,trumpet,80.0,40.0,makeup compact6,trumpet13,80.0,40.0,P0754_hero.jpg,JUPITER+JTR1600GS.jpg,/static/Category_learning/Stimuli/Experimental_stims/makeup compact/P0754_hero.jpg,/static/Category_learning/Stimuli/Experimental_stims/trumpet/JUPITER+JTR1600GS.jpg,1.0,makeup compact,trumpet,80.0,40.0,makeup compact6,trumpet13,80.0,40.0,0.0,221.699,0.699,,,,,,
217,,confirmation,,html-keyboard-response,217,312257,0.0-1.0-44.0-0.0-1.0-0.0,0,0,18170,,,,,,42.0,,,,,1.0,,,,,,,,,,,,,,,,,,,,,,,,,,,222.5,0.801,,,,,,
218,,isi,,html-keyboard-response,218,313262,0.0-1.0-44.0-0.0-2.0,0,0,18170,,,,,,42.0,,,,,1.0,,,,,,,,,,,,,,,,,,,,,,,,,,,223.5,1.0,,,,,,
219,,feedback,,html-keyboard-response,219,314265,0.0-1.0-44.0-0.0-3.0-0.0,0,0,18170,,,,,,42.0,,,,,1.0,,,,,,,,,,,,,,,,,,,,,,,,,,,224.5,1.0,,,,,,
220,,iti,,html-keyboard-response,220,315773,0.0-1.0-44.0-0.0-5.0,0,0,18170,,,,,,42.0,,,,,1.0,,,,,,,,,,,,,,,,,,,,,,,,,,,226.0,1.5,,,,,,
221,,choice,,html-keyboard-response,221,316579,0.0-1.0-45.0-0.0-0.0,0,0,18170,,803.0,,,75.0,43.0,43.0,1000.0,2000.0,0.0,1.0,0.0,80-80,,,hat,makeup compact,80.0,80.0,hat2,makeup compact10,100.0,60.0,Ahatwithfeat7.jpg,P95108_hero.jpg,/static/Category_learning/Stimuli/Experimental_stims/hat/Ahatwithfeat7.jpg,/static/Category_learning/Stimuli/Experimental_stims/makeup compact/P95108_hero.jpg,0.0,makeup compact,hat,80.0,80.0,makeup compact10,hat2,60.0,100.0,0.0,226.803,0.803,,,,,,
222,,confirmation,,html-keyboard-response,222,317280,0.0-1.0-45.0-0.0-1.0-0.0,0,0,18170,,,,,,43.0,,,,,1.0,,,,,,,,,,,,,,,,,,,,,,,,,,,227.5,0.697,,,,,,
223,,isi,,html-keyboard-response,223,318283,0.0-1.0-45.0-0.0-2.0,0,0,18170,,,,,,43.0,,,,,1.0,,,,,,,,,,,,,,,,,,,,,,,,,,,228.5,1.0,,,,,,
224,,feedback,,html-keyboard-response,224,319286,0.0-1.0-45.0-0.0-3.0-0.0,0,0,18170,,,,,,43.0,,,,,1.0,,,,,,,,,,,,,,,,,,,,,,,,,,,229.5,1.0,,,,,,
225,,iti,,html-keyboard-response,225,321289,0.0-1.0-45.0-0.0-5.0,0,0,18170,,,,,,43.0,,,,,1.0,,,,,,,,,,,,,,,,,,,,,,,,,,,231.5,2.0,,,,,,
226,,choice,,html-keyboard-response,226,321716,0.0-1.0-46.0-0.0-0.0,0,0,18170,,424.0,,,68.0,44.0,44.0,1500.0,1500.0,0.0,1.0,0.0,40-60,,1.0,fan,tent,60.0,40.0,fan1,tent4,80.0,40.0,01393.fpx.jpg,Atent12.jpg,/static/Category_learning/Stimuli/Experimental_stims/fan/01393.fpx.jpg,/static/Category_learning/Stimuli/Experimental_stims/tent/Atent12.jpg,1.0,fan,tent,60.0,40.0,fan1,tent4,80.0,40.0,0.0,231.924,0.424,,,,,,
227,,confirmation,,html-keyboard-response,227,322795,0.0-1.0-46.0-0.0-1.0-0.0,0,0,18170,,,,,,44.0,,,,,1.0,,,,,,,,,,,,,,,,,,,,,,,,,,,233.0,1.076,,,,,,
228,,isi,,html-keyboard-response,228,324298,0.0-1.0-46.0-0.0-2.0,0,0,18170,,,,,,44.0,,,,,1.0,,,,,,,,,,,,,,,,,,,,,,,,,,,234.5,1.5,,,,,,
229,,feedback,,html-keyboard-response,229,325302,0.0-1.0-46.0-0.0-3.0-0.0,0,0,18170,,,,,,44.0,,,,,1.0,,,,,,,,,,,,,,,,,,,,,,,,,,,235.5,1.0,,,,,,
230,,iti,,html-keyboard-response,230,326805,0.0-1.0-46.0-0.0-5.0,0,0,18170,,,,,,44.0,,,,,1.0,,,,,,,,,,,,,,,,,,,,,,,,,,,237.0,1.5,,,,,,
231,,choice,,html-keyboard-response,231,327252,0.0-1.0-47.0-0.0-0.0,0,0,18170,,443.0,,,75.0,45.0,45.0,2000.0,3500.0,0.0,1.0,1.0,80-80,1.0,,makeup compact,makeup compact,80.0,80.0,makeup compact10,makeup compact6,60.0,80.0,P95108_hero.jpg,P0754_hero.jpg,/static/Category_learning/Stimuli/Experimental_stims/makeup compact/P95108_hero.jpg,/static/Category_learning/Stimuli/Experimental_stims/makeup compact/P0754_hero.jpg,0.0,makeup compact,makeup compact,80.0,80.0,makeup compact6,makeup compact10,80.0,60.0,0.0,237.443,0.443,,,,,,
232,,confirmation,,html-keyboard-response,232,328313,0.0-1.0-47.0-0.0-1.0-0.0,0,0,18170,,,,,,45.0,,,,,1.0,,,,,,,,,,,,,,,,,,,,,,,,,,,238.5,1.057,,,,,,
233,,isi,,html-keyboard-response,233,330317,0.0-1.0-47.0-0.0-2.0,0,0,18170,,,,,,45.0,,,,,1.0,,,,,,,,,,,,,,,,,,,,,,,,,,,240.5,2.0,,,,,,
234,,feedback,,html-keyboard-response,234,331321,0.0-1.0-47.0-0.0-3.0-0.0,0,0,18170,,,,,,45.0,,,,,1.0,,,,,,,,,,,,,,,,,,,,,,,,,,,241.5,1.0,,,,,,
235,,iti,,html-keyboard-response,235,334824,0.0-1.0-47.0-0.0-5.0,0,0,18170,,,,,,45.0,,,,,1.0,,,,,,,,,,,,,,,,,,,,,,,,,,,245.0,3.5,,,,,,
236,,choice,,html-keyboard-response,236,335407,0.0-1.0-48.0-0.0-0.0,0,0,18170,,580.0,,,68.0,46.0,46.0,2000.0,1500.0,0.0,1.0,0.0,40-80,,0.0,yarn,lipstick,40.0,80.0,yarn8,lipstick9,60.0,100.0,smonlineyarn-285x250.jpg,P189145_hero.jpg,/static/Category_learning/Stimuli/Experimental_stims/yarn/smonlineyarn-285x250.jpg,/static/Category_learning/Stimuli/Experimental_stims/lipstick/P189145_hero.jpg,1.0,yarn,lipstick,40.0,80.0,yarn8,lipstick9,60.0,100.0,0.0,245.58,0.58,,,,,,
237,,confirmation,,html-keyboard-response,237,336331,0.0-1.0-48.0-0.0-1.0-0.0,0,0,18170,,,,,,46.0,,,,,1.0,,,,,,,,,,,,,,,,,,,,,,,,,,,246.5,0.92,,,,,,
238,,isi,,html-keyboard-response,238,338334,0.0-1.0-48.0-0.0-2.0,0,0,18170,,,,,,46.0,,,,,1.0,,,,,,,,,,,,,,,,,,,,,,,,,,,248.5,2.0,,,,,,
239,,feedback,,html-keyboard-response,239,339337,0.0-1.0-48.0-0.0-3.0-0.0,0,0,18170,,,,,,46.0,,,,,1.0,,,,,,,,,,,,,,,,,,,,,,,,,,,249.5,1.0,,,,,,
240,,iti,,html-keyboard-response,240,340840,0.0-1.0-48.0-0.0-5.0,0,0,18170,,,,,,46.0,,,,,1.0,,,,,,,,,,,,,,,,,,,,,,,,,,,251.0,1.5,,,,,,
241,,choice,,html-keyboard-response,241,341458,0.0-1.0-49.0-0.0-0.0,0,0,18170,,614.0,,,75.0,47.0,47.0,1000.0,1000.0,0.0,1.0,1.0,40-40,1.0,,yarn,yarn,40.0,40.0,yarn4,yarn8,40.0,60.0,amethyst dreaming boho hy sml.jpg,smonlineyarn-285x250.jpg,/static/Category_learning/Stimuli/Experimental_stims/yarn/amethyst dreaming boho hy sml.jpg,/static/Category_learning/Stimuli/Experimental_stims/yarn/smonlineyarn-285x250.jpg,0.0,yarn,yarn,40.0,40.0,yarn8,yarn4,60.0,40.0,0.0,251.614,0.614,,,,,,
242,,confirmation,,html-keyboard-response,242,342353,0.0-1.0-49.0-0.0-1.0-0.0,0,0,18170,,,,,,47.0,,,,,1.0,,,,,,,,,,,,,,,,,,,,,,,,,,,252.5,0.886,,,,,,
243,,isi,,html-keyboard-response,243,343357,0.0-1.0-49.0-0.0-2.0,0,0,18170,,,,,,47.0,,,,,1.0,,,,,,,,,,,,,,,,,,,,,,,,,,,253.5,1.0,,,,,,
244,,feedback,,html-keyboard-response,244,344361,0.0-1.0-49.0-0.0-3.0-0.0,0,0,18170,,,,,,47.0,,,,,1.0,,,,,,,,,,,,,,,,,,,,,,,,,,,254.5,1.0,,,,,,
245,,iti,,html-keyboard-response,245,345364,0.0-1.0-49.0-0.0-5.0,0,0,18170,,,,,,47.0,,,,,1.0,,,,,,,,,,,,,,,,,,,,,,,,,,,255.5,1.0,,,,,,
246,,choice,,html-keyboard-response,246,346101,0.0-1.0-50.0-0.0-0.0,0,0,18170,,728.0,,,75.0,48.0,48.0,1500.0,1000.0,0.0,1.0,0.0,40-60,,0.0,train,flashlight,40.0,60.0,train8,flashlight12,40.0,60.0,PL51190.jpg,new05.jpg,/static/Category_learning/Stimuli/Experimental_stims/train/PL51190.jpg,/static/Category_learning/Stimuli/Experimental_stims/flashlight/new05.jpg,0.0,flashlight,train,60.0,40.0,flashlight12,train8,60.0,40.0,0.0,256.228,0.728,,,,,,
247,,confirmation,,html-keyboard-response,247,346878,0.0-1.0-50.0-0.0-1.0-0.0,0,0,18170,,,,,,48.0,,,,,1.0,,,,,,,,,,,,,,,,,,,,,,,,,,,257.0,0.772,,,,,,
248,,isi,,html-keyboard-response,248,348381,0.0-1.0-50.0-0.0-2.0,0,0,18170,,,,,,48.0,,,,,1.0,,,,,,,,,,,,,,,,,,,,,,,,,,,258.5,1.5,,,,,,
249,,feedback,,html-keyboard-response,249,349384,0.0-1.0-50.0-0.0-3.0-0.0,0,0,18170,,,,,,48.0,,,,,1.0,,,,,,,,,,,,,,,,,,,,,,,,,,,259.5,1.0,,,,,,
250,,iti,,html-keyboard-response,250,350387,0.0-1.0-50.0-0.0-5.0,0,0,18170,,,,,,48.0,,,,,1.0,,,,,,,,,,,,,,,,,,,,,,,,,,,260.5,1.0,,,,,,
251,,choice,,html-keyboard-response,251,351082,0.0-1.0-51.0-0.0-0.0,0,0,18170,,692.0,,,68.0,49.0,49.0,1000.0,1000.0,0.0,1.0,1.0,60-60,1.0,,flashlight,flashlight,60.0,60.0,flashlight12,flashlight10,60.0,80.0,new05.jpg,834784_sk_lg.jpg,/static/Category_learning/Stimuli/Experimental_stims/flashlight/new05.jpg,/static/Category_learning/Stimuli/Experimental_stims/flashlight/834784_sk_lg.jpg,1.0,flashlight,flashlight,60.0,60.0,flashlight12,flashlight10,60.0,80.0,0.0,261.192,0.692,,,,,,
252,,confirmation,,html-keyboard-response,252,351894,0.0-1.0-51.0-0.0-1.0-0.0,0,0,18170,,,,,,49.0,,,,,1.0,,,,,,,,,,,,,,,,,,,,,,,,,,,262.0,0.808,,,,,,
253,,isi,,html-keyboard-response,253,352898,0.0-1.0-51.0-0.0-2.0,0,0,18170,,,,,,49.0,,,,,1.0,,,,,,,,,,,,,,,,,,,,,,,,,,,263.0,1.0,,,,,,
254,,feedback,,html-keyboard-response,254,353902,0.0-1.0-51.0-0.0-3.0-0.0,0,0,18170,,,,,,49.0,,,,,1.0,,,,,,,,,,,,,,,,,,,,,,,,,,,264.0,1.0,,,,,,
255,,iti,,html-keyboard-response,255,354905,0.0-1.0-51.0-0.0-5.0,0,0,18170,,,,,,49.0,,,,,1.0,,,,,,,,,,,,,,,,,,,,,,,,,,,265.0,1.0,,,,,,
256,,choice,,html-keyboard-response,256,355548,0.0-1.0-52.0-0.0-0.0,0,0,18170,,638.0,,,75.0,50.0,50.0,1000.0,2000.0,0.0,1.0,0.0,20-80,,1.0,lipstick,sofa,80.0,20.0,lipstick13,sofa8,60.0,20.0,P184708_hero.jpg,allegro-leather-sofa-med2.jpg,/static/Category_learning/Stimuli/Experimental_stims/lipstick/P184708_hero.jpg,/static/Category_learning/Stimuli/Experimental_stims/sofa/allegro-leather-sofa-med2.jpg,0.0,sofa,lipstick,20.0,80.0,sofa8,lipstick13,20.0,60.0,0.0,265.638,0.638,,,,,,
257,,confirmation,,html-keyboard-response,257,356413,0.0-1.0-52.0-0.0-1.0-0.0,0,0,18170,,,,,,50.0,,,,,1.0,,,,,,,,,,,,,,,,,,,,,,,,,,,266.5,0.862,,,,,,
258,,isi,,html-keyboard-response,258,357417,0.0-1.0-52.0-0.0-2.0,0,0,18170,,,,,,50.0,,,,,1.0,,,,,,,,,,,,,,,,,,,,,,,,,,,267.5,1.0,,,,,,
259,,feedback,,html-keyboard-response,259,358421,0.0-1.0-52.0-0.0-3.0-0.0,0,0,18170,,,,,,50.0,,,,,1.0,,,,,,,,,,,,,,,,,,,,,,,,,,,268.5,1.0,,,,,,
260,,iti,,html-keyboard-response,260,360424,0.0-1.0-52.0-0.0-5.0,0,0,18170,,,,,,50.0,,,,,1.0,,,,,,,,,,,,,,,,,,,,,,,,,,,270.5,2.0,,,,,,
261,,choice,,html-keyboard-response,261,360829,0.0-1.0-53.0-0.0-0.0,0,0,18170,,400.0,,,75.0,51.0,51.0,1000.0,2000.0,0.0,1.0,0.0,40-60,,0.0,stool,baby carriage,40.0,60.0,stool5,baby carriage11,40.0,80.0,ASTOOL23.jpg,Baby_Carriage-2.jpg,/static/Category_learning/Stimuli/Experimental_stims/stool/ASTOOL23.jpg,/static/Category_learning/Stimuli/Experimental_stims/baby carriage/Baby_Carriage-2.jpg,0.0,baby carriage,stool,60.0,40.0,baby carriage11,stool5,80.0,40.0,0.0,270.9,0.4,,,,,,
262,,confirmation,,html-keyboard-response,262,361932,0.0-1.0-53.0-0.0-1.0-0.0,0,0,18170,,,,,,51.0,,,,,1.0,,,,,,,,,,,,,,,,,,,,,,,,,,,272.0,1.1,,,,,,
263,,isi,,html-keyboard-response,263,362936,0.0-1.0-53.0-0.0-2.0,0,0,18170,,,,,,51.0,,,,,1.0,,,,,,,,,,,,,,,,,,,,,,,,,,,273.0,1.0,,,,,,
264,,feedback,,html-keyboard-response,264,363941,0.0-1.0-53.0-0.0-3.0-0.0,0,0,18170,,,,,,51.0,,,,,1.0,,,,,,,,,,,,,,,,,,,,,,,,,,,274.0,1.0,,,,,,
265,,iti,,html-keyboard-response,265,365945,0.0-1.0-53.0-0.0-5.0,0,0,18170,,,,,,51.0,,,,,1.0,,,,,,,,,,,,,,,,,,,,,,,,,,,276.0,2.0,,,,,,
266,,choice,,html-keyboard-response,266,366464,0.0-1.0-54.0-0.0-0.0,0,0,18170,,516.0,,,75.0,52.0,52.0,1000.0,2000.0,0.0,1.0,0.0,40-40,,,telescope,vase,40.0,40.0,telescope10,vase4,20.0,60.0,digimarc.ms02.jpg,Avase111.jpg,/static/Category_learning/Stimuli/Experimental_stims/telescope/digimarc.ms02.jpg,/static/Category_learning/Stimuli/Experimental_stims/vase/Avase111.jpg,0.0,vase,telescope,40.0,40.0,vase4,telescope10,60.0,20.0,0.0,276.516,0.516,,,,,,
267,,confirmation,,html-keyboard-response,267,367452,0.0-1.0-54.0-0.0-1.0-0.0,0,0,18170,,,,,,52.0,,,,,1.0,,,,,,,,,,,,,,,,,,,,,,,,,,,277.5,0.984,,,,,,
268,,isi,,html-keyboard-response,268,368455,0.0-1.0-54.0-0.0-2.0,0,0,18170,,,,,,52.0,,,,,1.0,,,,,,,,,,,,,,,,,,,,,,,,,,,278.5,1.0,,,,,,
269,,feedback,,html-keyboard-response,269,369460,0.0-1.0-54.0-0.0-3.0-0.0,0,0,18170,,,,,,52.0,,,,,1.0,,,,,,,,,,,,,,,,,,,,,,,,,,,279.5,1.0,,,,,,
270,,iti,,html-keyboard-response,270,371463,0.0-1.0-54.0-0.0-5.0,0,0,18170,,,,,,52.0,,,,,1.0,,,,,,,,,,,,,,,,,,,,,,,,,,,281.5,2.0,,,,,,
271,,choice,,html-keyboard-response,271,371859,0.0-1.0-55.0-0.0-0.0,0,0,18170,,393.0,,,75.0,53.0,53.0,1000.0,1500.0,0.0,1.0,1.0,20-20,1.0,,sofa,sofa,20.0,20.0,sofa8,sofa9,20.0,20.0,allegro-leather-sofa-med2.jpg,ALOVSEAT9.jpg,/static/Category_learning/Stimuli/Experimental_stims/sofa/allegro-leather-sofa-med2.jpg,/static/Category_learning/Stimuli/Experimental_stims/sofa/ALOVSEAT9.jpg,0.0,sofa,sofa,20.0,20.0,sofa9,sofa8,20.0,20.0,0.0,281.893,0.393,,,,,,
272,,confirmation,,html-keyboard-response,272,372968,0.0-1.0-55.0-0.0-1.0-0.0,0,0,18170,,,,,,53.0,,,,,1.0,,,,,,,,,,,,,,,,,,,,,,,,,,,283.0,1.107,,,,,,
273,,isi,,html-keyboard-response,273,373972,0.0-1.0-55.0-0.0-2.0,0,0,18170,,,,,,53.0,,,,,1.0,,,,,,,,,,,,,,,,,,,,,,,,,,,284.0,1.0,,,,,,
274,,feedback,,html-keyboard-response,274,374975,0.0-1.0-55.0-0.0-3.0-0.0,0,0,18170,,,,,,53.0,,,,,1.0,,,,,,,,,,,,,,,,,,,,,,,,,,,285.0,1.0,,,,,,
275,,iti,,html-keyboard-response,275,376479,0.0-1.0-55.0-0.0-5.0,0,0,18170,,,,,,53.0,,,,,1.0,,,,,,,,,,,,,,,,,,,,,,,,,,,286.5,1.5,,,,,,
276,,choice,,html-keyboard-response,276,376881,0.0-1.0-56.0-0.0-0.0,0,0,18170,,400.0,,,68.0,54.0,54.0,2000.0,1500.0,0.0,1.0,0.0,20-80,,1.0,hat,nail polish,80.0,20.0,hat3,nail polish14,100.0,40.0,Astrawhat49.jpg,38031405.JPG,/static/Category_learning/Stimuli/Experimental_stims/hat/Astrawhat49.jpg,/static/Category_learning/Stimuli/Experimental_stims/nail polish/38031405.JPG,1.0,hat,nail polish,80.0,20.0,hat3,nail polish14,100.0,40.0,0.0,286.9,0.4,,,,,,
277,,confirmation,,html-keyboard-response,277,377985,0.0-1.0-56.0-0.0-1.0-0.0,0,0,18170,,,,,,54.0,,,,,1.0,,,,,,,,,,,,,,,,,,,,,,,,,,,288.0,1.1,,,,,,
278,,isi,,html-keyboard-response,278,379989,0.0-1.0-56.0-0.0-2.0,0,0,18170,,,,,,54.0,,,,,1.0,,,,,,,,,,,,,,,,,,,,,,,,,,,290.0,2.0,,,,,,
279,,feedback,,html-keyboard-response,279,380993,0.0-1.0-56.0-0.0-3.0-0.0,0,0,18170,,,,,,54.0,,,,,1.0,,,,,,,,,,,,,,,,,,,,,,,,,,,291.0,1.0,,,,,,
280,,iti,,html-keyboard-response,280,382506,0.0-1.0-56.0-0.0-5.0,0,0,18170,,,,,,54.0,,,,,1.0,,,,,,,,,,,,,,,,,,,,,,,,,,,292.5,1.5,,,,,,
281,,choice,,html-keyboard-response,281,383116,0.0-1.0-57.0-0.0-0.0,0,0,18170,,606.0,,,75.0,55.0,55.0,3000.0,1000.0,0.0,1.0,0.0,20-60,,0.0,necklace,bench,20.0,60.0,necklace6,bench4,0.0,40.0,Agoldnecklace.jpg,30892819.thl.jpg,/static/Category_learning/Stimuli/Experimental_stims/necklace/Agoldnecklace.jpg,/static/Category_learning/Stimuli/Experimental_stims/bench/30892819.thl.jpg,0.0,bench,necklace,60.0,20.0,bench4,necklace6,40.0,0.0,0.0,293.106,0.606,,,,,,
282,,confirmation,,html-keyboard-response,282,384015,0.0-1.0-57.0-0.0-1.0-0.0,0,0,18170,,,,,,55.0,,,,,1.0,,,,,,,,,,,,,,,,,,,,,,,,,,,294.0,0.894,,,,,,
283,,isi,,html-keyboard-response,283,387019,0.0-1.0-57.0-0.0-2.0,0,0,18170,,,,,,55.0,,,,,1.0,,,,,,,,,,,,,,,,,,,,,,,,,,,297.0,3.0,,,,,,
284,,feedback,,html-keyboard-response,284,388022,0.0-1.0-57.0-0.0-3.0-0.0,0,0,18170,,,,,,55.0,,,,,1.0,,,,,,,,,,,,,,,,,,,,,,,,,,,298.0,1.0,,,,,,
285,,iti,,html-keyboard-response,285,389025,0.0-1.0-57.0-0.0-5.0,0,0,18170,,,,,,55.0,,,,,1.0,,,,,,,,,,,,,,,,,,,,,,,,,,,299.0,1.0,,,,,,
286,,choice,,html-keyboard-response,286,389797,0.0-1.0-58.0-0.0-0.0,0,0,18170,,769.0,,,68.0,56.0,56.0,1000.0,1500.0,0.0,1.0,0.0,20-80,,1.0,key chain,sofa,80.0,20.0,key chain1,sofa13,80.0,40.0,jm05s16.jpg,ACOUCH25.jpg,/static/Category_learning/Stimuli/Experimental_stims/key chain/jm05s16.jpg,/static/Category_learning/Stimuli/Experimental_stims/sofa/ACOUCH25.jpg,1.0,key chain,sofa,80.0,20.0,key chain1,sofa13,80.0,40.0,0.0,299.769,0.769,,,,,,
287,,confirmation,,html-keyboard-response,287,390531,0.0-1.0-58.0-0.0-1.0-0.0,0,0,18170,,,,,,56.0,,,,,1.0,,,,,,,,,,,,,,,,,,,,,,,,,,,300.5,0.731,,,,,,
288,,isi,,html-keyboard-response,288,391535,0.0-1.0-58.0-0.0-2.0,0,0,18170,,,,,,56.0,,,,,1.0,,,,,,,,,,,,,,,,,,,,,,,,,,,301.5,1.0,,,,,,
289,,feedback,,html-keyboard-response,289,392548,0.0-1.0-58.0-0.0-3.0-0.0,0,0,18170,,,,,,56.0,,,,,1.0,,,,,,,,,,,,,,,,,,,,,,,,,,,302.5,1.0,,,,,,
290,,iti,,html-keyboard-response,290,394051,0.0-1.0-58.0-0.0-5.0,0,0,18170,,,,,,56.0,,,,,1.0,,,,,,,,,,,,,,,,,,,,,,,,,,,304.0,1.5,,,,,,
291,,choice,,html-keyboard-response,291,394794,0.0-1.0-59.0-0.0-0.0,0,0,18170,,739.0,,,68.0,57.0,57.0,1500.0,1000.0,0.0,1.0,1.0,60-60,1.0,,baby carriage,baby carriage,60.0,60.0,baby carriage5,baby carriage11,80.0,80.0,Baby_Stroller.jpg,Baby_Carriage-2.jpg,/static/Category_learning/Stimuli/Experimental_stims/baby carriage/Baby_Stroller.jpg,/static/Category_learning/Stimuli/Experimental_stims/baby carriage/Baby_Carriage-2.jpg,1.0,baby carriage,baby carriage,60.0,60.0,baby carriage5,baby carriage11,80.0,80.0,0.0,304.739,0.739,,,,,,
292,,confirmation,,html-keyboard-response,292,395560,0.0-1.0-59.0-0.0-1.0-0.0,0,0,18170,,,,,,57.0,,,,,1.0,,,,,,,,,,,,,,,,,,,,,,,,,,,305.5,0.761,,,,,,
293,,isi,,html-keyboard-response,293,397069,0.0-1.0-59.0-0.0-2.0,0,0,18170,,,,,,57.0,,,,,1.0,,,,,,,,,,,,,,,,,,,,,,,,,,,307.0,1.5,,,,,,
294,,feedback,,html-keyboard-response,294,398074,0.0-1.0-59.0-0.0-3.0-0.0,0,0,18170,,,,,,57.0,,,,,1.0,,,,,,,,,,,,,,,,,,,,,,,,,,,308.0,1.0,,,,,,
295,,iti,,html-keyboard-response,295,399082,0.0-1.0-59.0-0.0-5.0,0,0,18170,,,,,,57.0,,,,,1.0,,,,,,,,,,,,,,,,,,,,,,,,,,,309.0,1.0,,,,,,
296,,choice,,html-keyboard-response,296,399781,0.0-1.0-60.0-0.0-0.0,0,0,18170,,695.0,,,75.0,58.0,58.0,3000.0,1000.0,0.0,1.0,0.0,40-80,,0.0,tent,hat,40.0,80.0,tent14,hat14,20.0,60.0,inflatable-tent.jpg,Ahat136.jpg,/static/Category_learning/Stimuli/Experimental_stims/tent/inflatable-tent.jpg,/static/Category_learning/Stimuli/Experimental_stims/hat/Ahat136.jpg,0.0,hat,tent,80.0,40.0,hat14,tent14,60.0,20.0,0.0,309.695,0.695,,,,,,
297,,confirmation,,html-keyboard-response,297,400589,0.0-1.0-60.0-0.0-1.0-0.0,0,0,18170,,,,,,58.0,,,,,1.0,,,,,,,,,,,,,,,,,,,,,,,,,,,310.5,0.805,,,,,,
298,,isi,,html-keyboard-response,298,403595,0.0-1.0-60.0-0.0-2.0,0,0,18170,,,,,,58.0,,,,,1.0,,,,,,,,,,,,,,,,,,,,,,,,,,,313.5,3.0,,,,,,
299,,feedback,,html-keyboard-response,299,404599,0.0-1.0-60.0-0.0-3.0-0.0,0,0,18170,,,,,,58.0,,,,,1.0,,,,,,,,,,,,,,,,,,,,,,,,,,,314.5,1.0,,,,,,
300,,iti,,html-keyboard-response,300,405603,0.0-1.0-60.0-0.0-5.0,0,0,18170,,,,,,58.0,,,,,1.0,,,,,,,,,,,,,,,,,,,,,,,,,,,315.5,1.0,,,,,,
301,,choice,,html-keyboard-response,301,406190,0.0-1.0-61.0-0.0-0.0,0,0,18170,,582.0,,,68.0,59.0,59.0,1500.0,1500.0,0.0,1.0,0.0,20-80,,1.0,frame,sofa,80.0,20.0,frame5,sofa11,60.0,0.0,AFRAME136.jpg,ALOVSEA19.jpg,/static/Category_learning/Stimuli/Experimental_stims/frame/AFRAME136.jpg,/static/Category_learning/Stimuli/Experimental_stims/sofa/ALOVSEA19.jpg,1.0,frame,sofa,80.0,20.0,frame5,sofa11,60.0,0.0,0.0,316.082,0.582,,,,,,
302,,confirmation,,html-keyboard-response,302,407113,0.0-1.0-61.0-0.0-1.0-0.0,0,0,18170,,,,,,59.0,,,,,1.0,,,,,,,,,,,,,,,,,,,,,,,,,,,317.0,0.918,,,,,,
303,,isi,,html-keyboard-response,303,408617,0.0-1.0-61.0-0.0-2.0,0,0,18170,,,,,,59.0,,,,,1.0,,,,,,,,,,,,,,,,,,,,,,,,,,,318.5,1.5,,,,,,
304,,feedback,,html-keyboard-response,304,409621,0.0-1.0-61.0-0.0-3.0-0.0,0,0,18170,,,,,,59.0,,,,,1.0,,,,,,,,,,,,,,,,,,,,,,,,,,,319.5,1.0,,,,,,
305,,iti,,html-keyboard-response,305,411125,0.0-1.0-61.0-0.0-5.0,0,0,18170,,,,,,59.0,,,,,1.0,,,,,,,,,,,,,,,,,,,,,,,,,,,321.0,1.5,,,,,,
306,,choice,,html-keyboard-response,306,411679,0.0-1.0-62.0-0.0-0.0,0,0,18170,,551.0,,,68.0,60.0,60.0,1000.0,2000.0,0.0,1.0,1.0,80-80,1.0,,frame,frame,80.0,80.0,frame11,frame5,100.0,60.0,AFRAME139.jpg,AFRAME136.jpg,/static/Category_learning/Stimuli/Experimental_stims/frame/AFRAME139.jpg,/static/Category_learning/Stimuli/Experimental_stims/frame/AFRAME136.jpg,1.0,frame,frame,80.0,80.0,frame11,frame5,100.0,60.0,0.0,321.551,0.551,,,,,,
307,,confirmation,,html-keyboard-response,307,412632,0.0-1.0-62.0-0.0-1.0-0.0,0,0,18170,,,,,,60.0,,,,,1.0,,,,,,,,,,,,,,,,,,,,,,,,,,,322.5,0.949,,,,,,
308,,isi,,html-keyboard-response,308,413635,0.0-1.0-62.0-0.0-2.0,0,0,18170,,,,,,60.0,,,,,1.0,,,,,,,,,,,,,,,,,,,,,,,,,,,323.5,1.0,,,,,,
309,,feedback,,html-keyboard-response,309,414638,0.0-1.0-62.0-0.0-3.0-0.0,0,0,18170,,,,,,60.0,,,,,1.0,,,,,,,,,,,,,,,,,,,,,,,,,,,324.5,1.0,,,,,,
310,,iti,,html-keyboard-response,310,416641,0.0-1.0-62.0-0.0-5.0,0,0,18170,,,,,,60.0,,,,,1.0,,,,,,,,,,,,,,,,,,,,,,,,,,,326.5,2.0,,,,,,
311,,choice,,html-keyboard-response,311,417224,0.0-1.0-63.0-0.0-0.0,0,0,18170,,580.0,,,75.0,61.0,61.0,3500.0,1500.0,0.0,1.0,0.0,20-40,,0.0,pen,vase,20.0,40.0,pen4,vase9,40.0,40.0,Montblanc_Greta_Garbo_BP copy.jpg,Avasewithang2.jpg,/static/Category_learning/Stimuli/Experimental_stims/pen/Montblanc_Greta_Garbo_BP copy.jpg,/static/Category_learning/Stimuli/Experimental_stims/vase/Avasewithang2.jpg,0.0,vase,pen,40.0,20.0,vase9,pen4,40.0,40.0,0.0,327.08,0.58,,,,,,
312,,confirmation,,html-keyboard-response,312,418148,0.0-1.0-63.0-0.0-1.0-0.0,0,0,18170,,,,,,61.0,,,,,1.0,,,,,,,,,,,,,,,,,,,,,,,,,,,328.0,0.92,,,,,,
313,,isi,,html-keyboard-response,313,421652,0.0-1.0-63.0-0.0-2.0,0,0,18170,,,,,,61.0,,,,,1.0,,,,,,,,,,,,,,,,,,,,,,,,,,,331.5,3.5,,,,,,
314,,feedback,,html-keyboard-response,314,422655,0.0-1.0-63.0-0.0-3.0-0.0,0,0,18170,,,,,,61.0,,,,,1.0,,,,,,,,,,,,,,,,,,,,,,,,,,,332.5,1.0,,,,,,
315,,iti,,html-keyboard-response,315,424159,0.0-1.0-63.0-0.0-5.0,0,0,18170,,,,,,61.0,,,,,1.0,,,,,,,,,,,,,,,,,,,,,,,,,,,334.0,1.5,,,,,,
316,,choice,,html-keyboard-response,316,424756,0.0-1.0-64.0-0.0-0.0,0,0,18170,,593.0,,,68.0,62.0,62.0,1000.0,2000.0,0.0,1.0,1.0,40-40,1.0,,vase,vase,40.0,40.0,vase4,vase9,60.0,40.0,Avase111.jpg,Avasewithang2.jpg,/static/Category_learning/Stimuli/Experimental_stims/vase/Avase111.jpg,/static/Category_learning/Stimuli/Experimental_stims/vase/Avasewithang2.jpg,1.0,vase,vase,40.0,40.0,vase4,vase9,60.0,40.0,0.0,334.593,0.593,,,,,,
317,,confirmation,,html-keyboard-response,317,425667,0.0-1.0-64.0-0.0-1.0-0.0,0,0,18170,,,,,,62.0,,,,,1.0,,,,,,,,,,,,,,,,,,,,,,,,,,,335.5,0.907,,,,,,
318,,isi,,html-keyboard-response,318,426670,0.0-1.0-64.0-0.0-2.0,0,0,18170,,,,,,62.0,,,,,1.0,,,,,,,,,,,,,,,,,,,,,,,,,,,336.5,1.0,,,,,,
319,,feedback,,html-keyboard-response,319,427673,0.0-1.0-64.0-0.0-3.0-0.0,0,0,18170,,,,,,62.0,,,,,1.0,,,,,,,,,,,,,,,,,,,,,,,,,,,337.5,1.0,,,,,,
320,,iti,,html-keyboard-response,320,429677,0.0-1.0-64.0-0.0-5.0,0,0,18170,,,,,,62.0,,,,,1.0,,,,,,,,,,,,,,,,,,,,,,,,,,,339.5,2.0,,,,,,
321,,choice,,html-keyboard-response,321,430256,0.0-1.0-65.0-0.0-0.0,0,0,18170,,576.0,,,75.0,63.0,63.0,1000.0,2000.0,0.0,1.0,0.0,20-60,,1.0,flashlight,nail polish,60.0,20.0,flashlight9,nail polish5,60.0,0.0,new06.jpg,182_t.jpg,/static/Category_learning/Stimuli/Experimental_stims/flashlight/new06.jpg,/static/Category_learning/Stimuli/Experimental_stims/nail polish/182_t.jpg,0.0,nail polish,flashlight,20.0,60.0,nail polish5,flashlight9,0.0,60.0,0.0,340.076,0.576,,,,,,
322,,confirmation,,html-keyboard-response,322,431184,0.0-1.0-65.0-0.0-1.0-0.0,0,0,18170,,,,,,63.0,,,,,1.0,,,,,,,,,,,,,,,,,,,,,,,,,,,341.0,0.924,,,,,,
323,,isi,,html-keyboard-response,323,432187,0.0-1.0-65.0-0.0-2.0,0,0,18170,,,,,,63.0,,,,,1.0,,,,,,,,,,,,,,,,,,,,,,,,,,,342.0,1.0,,,,,,
324,,feedback,,html-keyboard-response,324,433192,0.0-1.0-65.0-0.0-3.0-0.0,0,0,18170,,,,,,63.0,,,,,1.0,,,,,,,,,,,,,,,,,,,,,,,,,,,343.0,1.0,,,,,,
325,,iti,,html-keyboard-response,325,435194,0.0-1.0-65.0-0.0-5.0,0,0,18170,,,,,,63.0,,,,,1.0,,,,,,,,,,,,,,,,,,,,,,,,,,,345.0,2.0,,,,,,
326,,choice,,html-keyboard-response,326,436001,0.0-1.0-66.0-0.0-0.0,0,0,18170,,804.0,,,68.0,64.0,64.0,2000.0,1500.0,0.0,1.0,0.0,40-80,,1.0,motorcycle,watch,80.0,40.0,motorcycle10,watch6,80.0,60.0,motorcycle17.jpg,B0000X04VC.01-A4LKQQKJ91IUZ._AA280_SCLZZZZZZZ_.jpg,/static/Category_learning/Stimuli/Experimental_stims/motorcycle/motorcycle17.jpg,/static/Category_learning/Stimuli/Experimental_stims/watch/B0000X04VC.01-A4LKQQKJ91IUZ._AA280_SCLZZZZZZZ_.jpg,1.0,motorcycle,watch,80.0,40.0,motorcycle10,watch6,80.0,60.0,0.0,345.804,0.804,,,,,,
327,,confirmation,,html-keyboard-response,327,436701,0.0-1.0-66.0-0.0-1.0-0.0,0,0,18170,,,,,,64.0,,,,,1.0,,,,,,,,,,,,,,,,,,,,,,,,,,,346.5,0.696,,,,,,
328,,isi,,html-keyboard-response,328,438704,0.0-1.0-66.0-0.0-2.0,0,0,18170,,,,,,64.0,,,,,1.0,,,,,,,,,,,,,,,,,,,,,,,,,,,348.5,2.0,,,,,,
329,,feedback,,html-keyboard-response,329,439708,0.0-1.0-66.0-0.0-3.0-0.0,0,0,18170,,,,,,64.0,,,,,1.0,,,,,,,,,,,,,,,,,,,,,,,,,,,349.5,1.0,,,,,,
330,,iti,,html-keyboard-response,330,441212,0.0-1.0-66.0-0.0-5.0,0,0,18170,,,,,,64.0,,,,,1.0,,,,,,,,,,,,,,,,,,,,,,,,,,,351.0,1.5,,,,,,
331,,block_over,,html-keyboard-response,331,444665,0.0-1.0-66.0-0.0-7.0-0.0,0,0,18170,,3448.0,,,68.0,64.0,,,,,,,,,,,,,,,,,,,,,,,,,,,,,,,,,,,,,,,
332,,start_run,,html-keyboard-response,332,446324,0.0-1.0-66.0-0.0-7.0-1.0,0,0,18170,,1657.0,,,84.0,,,,,,,,,,,,,,,,,,,,,,,,,,,,,,,,,,,,,,,,
333,,choice,,html-keyboard-response,333,447405,0.0-1.0-67.0-0.0-0.0,0,0,18170,,1077.0,,,75.0,65.0,65.0,3000.0,2000.0,0.0,2.0,0.0,40-40,,,watch,tape,40.0,40.0,watch9,tape2,40.0,20.0,mens-diamond-watches-euro-48733-ab.jpg,Tape_Dispenser.jpg,/static/Category_learning/Stimuli/Experimental_stims/watch/mens-diamond-watches-euro-48733-ab.jpg,/static/Category_learning/Stimuli/Experimental_stims/tape/Tape_Dispenser.jpg,0.0,tape,watch,40.0,40.0,tape2,watch9,20.0,40.0,0.0,1.077,1.077,,,,,,
334,,confirmation,,html-keyboard-response,334,447841,0.0-1.0-67.0-0.0-1.0-0.0,0,0,18170,,,,,,65.0,,,,,2.0,,,,,,,,,,,,,,,,,,,,,,,,,,,1.5,0.423,,,,,,
335,,isi,,html-keyboard-response,335,450845,0.0-1.0-67.0-0.0-2.0,0,0,18170,,,,,,65.0,,,,,2.0,,,,,,,,,,,,,,,,,,,,,,,,,,,4.5,3.0,,,,,,
336,,feedback,,html-keyboard-response,336,451848,0.0-1.0-67.0-0.0-3.0-0.0,0,0,18170,,,,,,65.0,,,,,2.0,,,,,,,,,,,,,,,,,,,,,,,,,,,5.5,1.0,,,,,,
337,,iti,,html-keyboard-response,337,453851,0.0-1.0-67.0-0.0-5.0,0,0,18170,,,,,,65.0,,,,,2.0,,,,,,,,,,,,,,,,,,,,,,,,,,,7.5,2.0,,,,,,
338,,choice,,html-keyboard-response,338,454504,0.0-1.0-68.0-0.0-0.0,0,0,18170,,649.0,,,68.0,66.0,66.0,3000.0,1500.0,0.0,2.0,0.0,20-60,,0.0,pen,bowl,20.0,60.0,pen3,bowl13,0.0,80.0,pen08.jpg,Asoupbowl8.jpg,/static/Category_learning/Stimuli/Experimental_stims/pen/pen08.jpg,/static/Category_learning/Stimuli/Experimental_stims/bowl/Asoupbowl8.jpg,1.0,pen,bowl,20.0,60.0,pen3,bowl13,0.0,80.0,0.0,8.149000000000001,0.649,,,,,,
339,,confirmation,,html-keyboard-response,339,455359,0.0-1.0-68.0-0.0-1.0-0.0,0,0,18170,,,,,,66.0,,,,,2.0,,,,,,,,,,,,,,,,,,,,,,,,,,,9.0,0.851,,,,,,
340,,isi,,html-keyboard-response,340,458363,0.0-1.0-68.0-0.0-2.0,0,0,18170,,,,,,66.0,,,,,2.0,,,,,,,,,,,,,,,,,,,,,,,,,,,12.0,3.0,,,,,,
341,,feedback,,html-keyboard-response,341,459366,0.0-1.0-68.0-0.0-3.0-0.0,0,0,18170,,,,,,66.0,,,,,2.0,,,,,,,,,,,,,,,,,,,,,,,,,,,13.0,1.0,,,,,,
342,,iti,,html-keyboard-response,342,460870,0.0-1.0-68.0-0.0-5.0,0,0,18170,,,,,,66.0,,,,,2.0,,,,,,,,,,,,,,,,,,,,,,,,,,,14.5,1.5,,,,,,
343,,choice,,html-keyboard-response,343,461459,0.0-1.0-69.0-0.0-0.0,0,0,18170,,586.0,,,75.0,67.0,67.0,1000.0,3000.0,0.0,2.0,0.0,20-60,,0.0,nail polish,bongo,20.0,60.0,nail polish1,bongo8,20.0,80.0,200.jpg,26390661.thl.jpg,/static/Category_learning/Stimuli/Experimental_stims/nail polish/200.jpg,/static/Category_learning/Stimuli/Experimental_stims/bongo/26390661.thl.jpg,0.0,bongo,nail polish,60.0,20.0,bongo8,nail polish1,80.0,20.0,0.0,15.086,0.586,,,,,,
344,,confirmation,,html-keyboard-response,344,462376,0.0-1.0-69.0-0.0-1.0-0.0,0,0,18170,,,,,,67.0,,,,,2.0,,,,,,,,,,,,,,,,,,,,,,,,,,,16.0,0.914,,,,,,
345,,isi,,html-keyboard-response,345,463379,0.0-1.0-69.0-0.0-2.0,0,0,18170,,,,,,67.0,,,,,2.0,,,,,,,,,,,,,,,,,,,,,,,,,,,17.0,1.0,,,,,,
346,,feedback,,html-keyboard-response,346,464382,0.0-1.0-69.0-0.0-3.0-0.0,0,0,18170,,,,,,67.0,,,,,2.0,,,,,,,,,,,,,,,,,,,,,,,,,,,18.0,1.0,,,,,,
347,,iti,,html-keyboard-response,347,467387,0.0-1.0-69.0-0.0-5.0,0,0,18170,,,,,,67.0,,,,,2.0,,,,,,,,,,,,,,,,,,,,,,,,,,,21.0,3.0,,,,,,
348,,choice,,html-keyboard-response,348,468214,0.0-1.0-70.0-0.0-0.0,0,0,18170,,825.0,,,75.0,68.0,68.0,1000.0,2000.0,0.0,2.0,0.0,20-20,,,power strip,patio lounge chair,20.0,20.0,power strip14,patio lounge chair13,20.0,20.0,88b2c724-e781-44ae-85d5-27b7591f659d_400.jpg,grosfillex-bahia-resin-chaise-lounges.jpg,/static/Category_learning/Stimuli/Experimental_stims/power strip/88b2c724-e781-44ae-85d5-27b7591f659d_400.jpg,/static/Category_learning/Stimuli/Experimental_stims/patio lounge chair/grosfillex-bahia-resin-chaise-lounges.jpg,0.0,patio lounge chair,power strip,20.0,20.0,patio lounge chair13,power strip14,20.0,20.0,0.0,21.825,0.825,,,,,,
349,,confirmation,,html-keyboard-response,349,468893,0.0-1.0-70.0-0.0-1.0-0.0,0,0,18170,,,,,,68.0,,,,,2.0,,,,,,,,,,,,,,,,,,,,,,,,,,,22.5,0.675,,,,,,
350,,isi,,html-keyboard-response,350,469896,0.0-1.0-70.0-0.0-2.0,0,0,18170,,,,,,68.0,,,,,2.0,,,,,,,,,,,,,,,,,,,,,,,,,,,23.5,1.0,,,,,,
351,,feedback,,html-keyboard-response,351,470899,0.0-1.0-70.0-0.0-3.0-0.0,0,0,18170,,,,,,68.0,,,,,2.0,,,,,,,,,,,,,,,,,,,,,,,,,,,24.5,1.0,,,,,,
352,,iti,,html-keyboard-response,352,472903,0.0-1.0-70.0-0.0-5.0,0,0,18170,,,,,,68.0,,,,,2.0,,,,,,,,,,,,,,,,,,,,,,,,,,,26.5,2.0,,,,,,
353,,choice,,html-keyboard-response,353,473600,0.0-1.0-71.0-0.0-0.0,0,0,18170,,695.0,,,68.0,69.0,69.0,1500.0,1500.0,0.0,2.0,0.0,40-40,,,tent,train,40.0,40.0,tent2,train1,40.0,40.0,Atent16.jpg,Model_Train.jpg,/static/Category_learning/Stimuli/Experimental_stims/tent/Atent16.jpg,/static/Category_learning/Stimuli/Experimental_stims/train/Model_Train.jpg,1.0,tent,train,40.0,40.0,tent2,train1,40.0,40.0,0.0,27.195,0.695,,,,,,
354,,confirmation,,html-keyboard-response,354,474408,0.0-1.0-71.0-0.0-1.0-0.0,0,0,18170,,,,,,69.0,,,,,2.0,,,,,,,,,,,,,,,,,,,,,,,,,,,28.0,0.805,,,,,,
355,,isi,,html-keyboard-response,355,475911,0.0-1.0-71.0-0.0-2.0,0,0,18170,,,,,,69.0,,,,,2.0,,,,,,,,,,,,,,,,,,,,,,,,,,,29.5,1.5,,,,,,
356,,feedback,,html-keyboard-response,356,476914,0.0-1.0-71.0-0.0-3.0-0.0,0,0,18170,,,,,,69.0,,,,,2.0,,,,,,,,,,,,,,,,,,,,,,,,,,,30.5,1.0,,,,,,
357,,iti,,html-keyboard-response,357,478417,0.0-1.0-71.0-0.0-5.0,0,0,18170,,,,,,69.0,,,,,2.0,,,,,,,,,,,,,,,,,,,,,,,,,,,32.0,1.5,,,,,,
358,,choice,,html-keyboard-response,358,479135,0.0-1.0-72.0-0.0-0.0,0,0,18170,,710.0,,,68.0,70.0,70.0,1500.0,1500.0,0.0,2.0,0.0,40-80,,1.0,key chain,vase,80.0,40.0,key chain5,vase7,60.0,60.0,keychain-metal-logo.jpg,8246344.thl.jpg,/static/Category_learning/Stimuli/Experimental_stims/key chain/keychain-metal-logo.jpg,/static/Category_learning/Stimuli/Experimental_stims/vase/8246344.thl.jpg,1.0,key chain,vase,80.0,40.0,key chain5,vase7,60.0,60.0,0.0,32.71,0.71,,,,,,
359,,confirmation,,html-keyboard-response,359,479931,0.0-1.0-72.0-0.0-1.0-0.0,0,0,18170,,,,,,70.0,,,,,2.0,,,,,,,,,,,,,,,,,,,,,,,,,,,33.5,0.79,,,,,,
360,,isi,,html-keyboard-response,360,481434,0.0-1.0-72.0-0.0-2.0,0,0,18170,,,,,,70.0,,,,,2.0,,,,,,,,,,,,,,,,,,,,,,,,,,,35.0,1.5,,,,,,
361,,feedback,,html-keyboard-response,361,482437,0.0-1.0-72.0-0.0-3.0-0.0,0,0,18170,,,,,,70.0,,,,,2.0,,,,,,,,,,,,,,,,,,,,,,,,,,,36.0,1.0,,,,,,
362,,iti,,html-keyboard-response,362,483940,0.0-1.0-72.0-0.0-5.0,0,0,18170,,,,,,70.0,,,,,2.0,,,,,,,,,,,,,,,,,,,,,,,,,,,37.5,1.5,,,,,,
363,,choice,,html-keyboard-response,363,484586,0.0-1.0-73.0-0.0-0.0,0,0,18170,,643.0,,,68.0,71.0,71.0,1000.0,2000.0,0.0,2.0,0.0,20-40,,0.0,power strip,trumpet,20.0,40.0,power strip5,trumpet8,0.0,60.0,93e4a283-bcd6-4ad1-8add-339658cda0fc_400.jpg,trumpet33.jpg,/static/Category_learning/Stimuli/Experimental_stims/power strip/93e4a283-bcd6-4ad1-8add-339658cda0fc_400.jpg,/static/Category_learning/Stimuli/Experimental_stims/trumpet/trumpet33.jpg,1.0,power strip,trumpet,20.0,40.0,power strip5,trumpet8,0.0,60.0,0.0,38.143,0.643,,,,,,
364,,confirmation,,html-keyboard-response,364,485446,0.0-1.0-73.0-0.0-1.0-0.0,0,0,18170,,,,,,71.0,,,,,2.0,,,,,,,,,,,,,,,,,,,,,,,,,,,39.0,0.857,,,,,,
365,,isi,,html-keyboard-response,365,486448,0.0-1.0-73.0-0.0-2.0,0,0,18170,,,,,,71.0,,,,,2.0,,,,,,,,,,,,,,,,,,,,,,,,,,,40.0,1.0,,,,,,
366,,feedback,,html-keyboard-response,366,487452,0.0-1.0-73.0-0.0-3.0-0.0,0,0,18170,,,,,,71.0,,,,,2.0,,,,,,,,,,,,,,,,,,,,,,,,,,,41.0,1.0,,,,,,
367,,iti,,html-keyboard-response,367,489455,0.0-1.0-73.0-0.0-5.0,0,0,18170,,,,,,71.0,,,,,2.0,,,,,,,,,,,,,,,,,,,,,,,,,,,43.0,2.0,,,,,,
368,,choice,,html-keyboard-response,368,489694,0.0-1.0-74.0-0.0-0.0,0,0,18170,,235.0,,,75.0,72.0,72.0,3500.0,1000.0,0.0,2.0,0.0,40-80,,1.0,key chain,watch,80.0,40.0,key chain10,watch3,80.0,60.0,Smurfs_Keychains_Smurf_Row_Boat.jpg,B0000TIIVO.01._SCLZZZZZZZ_V1124920780_.jpg,/static/Category_learning/Stimuli/Experimental_stims/key chain/Smurfs_Keychains_Smurf_Row_Boat.jpg,/static/Category_learning/Stimuli/Experimental_stims/watch/B0000TIIVO.01._SCLZZZZZZZ_V1124920780_.jpg,0.0,watch,key chain,40.0,80.0,watch3,key chain10,60.0,80.0,0.0,43.235,0.235,,,,,,
369,,confirmation,,html-keyboard-response,369,490962,0.0-1.0-74.0-0.0-1.0-0.0,0,0,18170,,,,,,72.0,,,,,2.0,,,,,,,,,,,,,,,,,,,,,,,,,,,44.5,1.265,,,,,,
370,,isi,,html-keyboard-response,370,494465,0.0-1.0-74.0-0.0-2.0,0,0,18170,,,,,,72.0,,,,,2.0,,,,,,,,,,,,,,,,,,,,,,,,,,,48.0,3.5,,,,,,
371,,feedback,,html-keyboard-response,371,495469,0.0-1.0-74.0-0.0-3.0-0.0,0,0,18170,,,,,,72.0,,,,,2.0,,,,,,,,,,,,,,,,,,,,,,,,,,,49.0,1.0,,,,,,
372,,iti,,html-keyboard-response,372,496472,0.0-1.0-74.0-0.0-5.0,0,0,18170,,,,,,72.0,,,,,2.0,,,,,,,,,,,,,,,,,,,,,,,,,,,50.0,1.0,,,,,,
373,,choice,,html-keyboard-response,373,497265,0.0-1.0-75.0-0.0-0.0,0,0,18170,,790.0,,,75.0,73.0,73.0,2000.0,2000.0,0.0,2.0,0.0,20-60,,0.0,small table,baby carriage,20.0,60.0,small table3,baby carriage14,20.0,80.0,Atable122.jpg,peg_perego_uno_verde.jpg,/static/Category_learning/Stimuli/Experimental_stims/small table/Atable122.jpg,/static/Category_learning/Stimuli/Experimental_stims/baby carriage/peg_perego_uno_verde.jpg,0.0,baby carriage,small table,60.0,20.0,baby carriage14,small table3,80.0,20.0,0.0,50.79,0.79,,,,,,
374,,confirmation,,html-keyboard-response,374,497978,0.0-1.0-75.0-0.0-1.0-0.0,0,0,18170,,,,,,73.0,,,,,2.0,,,,,,,,,,,,,,,,,,,,,,,,,,,51.5,0.71,,,,,,
375,,isi,,html-keyboard-response,375,499982,0.0-1.0-75.0-0.0-2.0,0,0,18170,,,,,,73.0,,,,,2.0,,,,,,,,,,,,,,,,,,,,,,,,,,,53.5,2.0,,,,,,
376,,feedback,,html-keyboard-response,376,500987,0.0-1.0-75.0-0.0-3.0-0.0,0,0,18170,,,,,,73.0,,,,,2.0,,,,,,,,,,,,,,,,,,,,,,,,,,,54.5,1.0,,,,,,
377,,iti,,html-keyboard-response,377,502989,0.0-1.0-75.0-0.0-5.0,0,0,18170,,,,,,73.0,,,,,2.0,,,,,,,,,,,,,,,,,,,,,,,,,,,56.5,2.0,,,,,,
378,,choice,,html-keyboard-response,378,503822,0.0-1.0-76.0-0.0-0.0,0,0,18170,,829.0,,,68.0,74.0,74.0,2000.0,3500.0,0.0,2.0,0.0,40-60,,1.0,baby carriage,train,60.0,40.0,baby carriage13,train15,40.0,40.0,300px-Barnevogn2.jpg,master-TD006.jpg,/static/Category_learning/Stimuli/Experimental_stims/baby carriage/300px-Barnevogn2.jpg,/static/Category_learning/Stimuli/Experimental_stims/train/master-TD006.jpg,1.0,baby carriage,train,60.0,40.0,baby carriage13,train15,40.0,40.0,0.0,57.329,0.829,,,,,,
379,,confirmation,,html-keyboard-response,379,504496,0.0-1.0-76.0-0.0-1.0-0.0,0,0,18170,,,,,,74.0,,,,,2.0,,,,,,,,,,,,,,,,,,,,,,,,,,,58.0,0.671,,,,,,
380,,isi,,html-keyboard-response,380,506499,0.0-1.0-76.0-0.0-2.0,0,0,18170,,,,,,74.0,,,,,2.0,,,,,,,,,,,,,,,,,,,,,,,,,,,60.0,2.0,,,,,,
381,,feedback,,html-keyboard-response,381,507502,0.0-1.0-76.0-0.0-3.0-0.0,0,0,18170,,,,,,74.0,,,,,2.0,,,,,,,,,,,,,,,,,,,,,,,,,,,61.0,1.0,,,,,,
382,,iti,,html-keyboard-response,382,511005,0.0-1.0-76.0-0.0-5.0,0,0,18170,,,,,,74.0,,,,,2.0,,,,,,,,,,,,,,,,,,,,,,,,,,,64.5,3.5,,,,,,
383,,choice,,html-keyboard-response,383,511711,0.0-1.0-77.0-0.0-0.0,0,0,18170,,702.0,,,75.0,75.0,75.0,1000.0,1000.0,0.0,2.0,0.0,40-80,,0.0,trumpet,hat,40.0,80.0,trumpet2,hat12,40.0,60.0,Matt-Stevens-Pocket-Trumpet.jpg,Aformalhat5.jpg,/static/Category_learning/Stimuli/Experimental_stims/trumpet/Matt-Stevens-Pocket-Trumpet.jpg,/static/Category_learning/Stimuli/Experimental_stims/hat/Aformalhat5.jpg,0.0,hat,trumpet,80.0,40.0,hat12,trumpet2,60.0,40.0,0.0,65.202,0.702,,,,,,
384,,confirmation,,html-keyboard-response,384,512512,0.0-1.0-77.0-0.0-1.0-0.0,0,0,18170,,,,,,75.0,,,,,2.0,,,,,,,,,,,,,,,,,,,,,,,,,,,66.0,0.798,,,,,,
385,,isi,,html-keyboard-response,385,513516,0.0-1.0-77.0-0.0-2.0,0,0,18170,,,,,,75.0,,,,,2.0,,,,,,,,,,,,,,,,,,,,,,,,,,,67.0,1.0,,,,,,
386,,feedback,,html-keyboard-response,386,514518,0.0-1.0-77.0-0.0-3.0-0.0,0,0,18170,,,,,,75.0,,,,,2.0,,,,,,,,,,,,,,,,,,,,,,,,,,,68.0,1.0,,,,,,
387,,iti,,html-keyboard-response,387,515521,0.0-1.0-77.0-0.0-5.0,0,0,18170,,,,,,75.0,,,,,2.0,,,,,,,,,,,,,,,,,,,,,,,,,,,69.0,1.0,,,,,,
388,,choice,,html-keyboard-response,388,516253,0.0-1.0-78.0-0.0-0.0,0,0,18170,,729.0,,,75.0,76.0,76.0,1000.0,1000.0,0.0,2.0,0.0,20-40,,1.0,trumpet,poker card,40.0,20.0,trumpet1,poker card2,60.0,40.0,JUPITER+TROMPETTE+606MRL.JPG,22864716.thl.jpg,/static/Category_learning/Stimuli/Experimental_stims/trumpet/JUPITER+TROMPETTE+606MRL.JPG,/static/Category_learning/Stimuli/Experimental_stims/poker card/22864716.thl.jpg,0.0,poker card,trumpet,20.0,40.0,poker card2,trumpet1,40.0,60.0,0.0,69.729,0.729,,,,,,
389,,confirmation,,html-keyboard-response,389,517028,0.0-1.0-78.0-0.0-1.0-0.0,0,0,18170,,,,,,76.0,,,,,2.0,,,,,,,,,,,,,,,,,,,,,,,,,,,70.5,0.771,,,,,,
390,,isi,,html-keyboard-response,390,518030,0.0-1.0-78.0-0.0-2.0,0,0,18170,,,,,,76.0,,,,,2.0,,,,,,,,,,,,,,,,,,,,,,,,,,,71.5,1.0,,,,,,
391,,feedback,,html-keyboard-response,391,519033,0.0-1.0-78.0-0.0-3.0-0.0,0,0,18170,,,,,,76.0,,,,,2.0,,,,,,,,,,,,,,,,,,,,,,,,,,,72.5,1.0,,,,,,
392,,iti,,html-keyboard-response,392,520038,0.0-1.0-78.0-0.0-5.0,0,0,18170,,,,,,76.0,,,,,2.0,,,,,,,,,,,,,,,,,,,,,,,,,,,73.5,1.0,,,,,,
393,,choice,,html-keyboard-response,393,520722,0.0-1.0-79.0-0.0-0.0,0,0,18170,,682.0,,,75.0,77.0,77.0,1500.0,1000.0,0.0,2.0,0.0,20-80,,1.0,microscope,necklace,80.0,20.0,microscope5,necklace4,100.0,20.0,emMicroscope.jpg,emerald_diamond_necklace.jpg,/static/Category_learning/Stimuli/Experimental_stims/microscope/emMicroscope.jpg,/static/Category_learning/Stimuli/Experimental_stims/necklace/emerald_diamond_necklace.jpg,0.0,necklace,microscope,20.0,80.0,necklace4,microscope5,20.0,100.0,0.0,74.182,0.682,,,,,,
394,,confirmation,,html-keyboard-response,394,521547,0.0-1.0-79.0-0.0-1.0-0.0,0,0,18170,,,,,,77.0,,,,,2.0,,,,,,,,,,,,,,,,,,,,,,,,,,,75.0,0.818,,,,,,
395,,isi,,html-keyboard-response,395,523050,0.0-1.0-79.0-0.0-2.0,0,0,18170,,,,,,77.0,,,,,2.0,,,,,,,,,,,,,,,,,,,,,,,,,,,76.5,1.5,,,,,,
396,,feedback,,html-keyboard-response,396,524054,0.0-1.0-79.0-0.0-3.0-0.0,0,0,18170,,,,,,77.0,,,,,2.0,,,,,,,,,,,,,,,,,,,,,,,,,,,77.5,1.0,,,,,,
397,,iti,,html-keyboard-response,397,525058,0.0-1.0-79.0-0.0-5.0,0,0,18170,,,,,,77.0,,,,,2.0,,,,,,,,,,,,,,,,,,,,,,,,,,,78.5,1.0,,,,,,
398,,choice,,html-keyboard-response,398,525855,0.0-1.0-80.0-0.0-0.0,0,0,18170,,792.0,,,68.0,78.0,78.0,1500.0,2000.0,0.0,2.0,1.0,20-20,1.0,,pen,pen,20.0,20.0,pen11,pen3,0.0,0.0,pen01.jpg,pen08.jpg,/static/Category_learning/Stimuli/Experimental_stims/pen/pen01.jpg,/static/Category_learning/Stimuli/Experimental_stims/pen/pen08.jpg,1.0,pen,pen,20.0,20.0,pen11,pen3,0.0,0.0,0.0,79.292,0.792,,,,,,
399,,confirmation,,html-keyboard-response,399,526566,0.0-1.0-80.0-0.0-1.0-0.0,0,0,18170,,,,,,78.0,,,,,2.0,,,,,,,,,,,,,,,,,,,,,,,,,,,80.0,0.708,,,,,,
400,,isi,,html-keyboard-response,400,528072,0.0-1.0-80.0-0.0-2.0,0,0,18170,,,,,,78.0,,,,,2.0,,,,,,,,,,,,,,,,,,,,,,,,,,,81.5,1.5,,,,,,
401,,feedback,,html-keyboard-response,401,529076,0.0-1.0-80.0-0.0-3.0-0.0,0,0,18170,,,,,,78.0,,,,,2.0,,,,,,,,,,,,,,,,,,,,,,,,,,,82.5,1.0,,,,,,
402,,iti,,html-keyboard-response,402,531079,0.0-1.0-80.0-0.0-5.0,0,0,18170,,,,,,78.0,,,,,2.0,,,,,,,,,,,,,,,,,,,,,,,,,,,84.5,2.0,,,,,,
403,,choice,,html-keyboard-response,403,531714,0.0-1.0-81.0-0.0-0.0,0,0,18170,,632.0,,,68.0,79.0,79.0,1500.0,3500.0,0.0,2.0,1.0,40-40,1.0,,tent,tent,40.0,40.0,tent2,tent5,40.0,60.0,Atent16.jpg,Dome Tentnb87r67.jpg,/static/Category_learning/Stimuli/Experimental_stims/tent/Atent16.jpg,/static/Category_learning/Stimuli/Experimental_stims/tent/Dome Tentnb87r67.jpg,1.0,tent,tent,40.0,40.0,tent2,tent5,40.0,60.0,0.0,85.132,0.632,,,,,,
404,,confirmation,,html-keyboard-response,404,532585,0.0-1.0-81.0-0.0-1.0-0.0,0,0,18170,,,,,,79.0,,,,,2.0,,,,,,,,,,,,,,,,,,,,,,,,,,,86.0,0.868,,,,,,
405,,isi,,html-keyboard-response,405,534088,0.0-1.0-81.0-0.0-2.0,0,0,18170,,,,,,79.0,,,,,2.0,,,,,,,,,,,,,,,,,,,,,,,,,,,87.5,1.5,,,,,,
406,,feedback,,html-keyboard-response,406,535092,0.0-1.0-81.0-0.0-3.0-0.0,0,0,18170,,,,,,79.0,,,,,2.0,,,,,,,,,,,,,,,,,,,,,,,,,,,88.5,1.0,,,,,,
407,,iti,,html-keyboard-response,407,538594,0.0-1.0-81.0-0.0-5.0,0,0,18170,,,,,,79.0,,,,,2.0,,,,,,,,,,,,,,,,,,,,,,,,,,,92.0,3.5,,,,,,
408,,choice,,html-keyboard-response,408,539552,0.0-1.0-82.0-0.0-0.0,0,0,18170,,954.0,,,68.0,80.0,80.0,1000.0,2000.0,0.0,2.0,0.0,20-80,,0.0,pen,key chain,20.0,80.0,pen6,key chain13,40.0,100.0,executive_pen2.jpg,Fancy_Liquid_Column_Shape_Key_Ring_with_Floater.jpg,/static/Category_learning/Stimuli/Experimental_stims/pen/executive_pen2.jpg,/static/Category_learning/Stimuli/Experimental_stims/key chain/Fancy_Liquid_Column_Shape_Key_Ring_with_Floater.jpg,1.0,pen,key chain,20.0,80.0,pen6,key chain13,40.0,100.0,0.0,92.954,0.954,,,,,,
409,,confirmation,,html-keyboard-response,409,540102,0.0-1.0-82.0-0.0-1.0-0.0,0,0,18170,,,,,,80.0,,,,,2.0,,,,,,,,,,,,,,,,,,,,,,,,,,,93.5,0.546,,,,,,
410,,isi,,html-keyboard-response,410,541107,0.0-1.0-82.0-0.0-2.0,0,0,18170,,,,,,80.0,,,,,2.0,,,,,,,,,,,,,,,,,,,,,,,,,,,94.5,1.0,,,,,,
411,,feedback,,html-keyboard-response,411,542124,0.0-1.0-82.0-0.0-3.0-0.0,0,0,18170,,,,,,80.0,,,,,2.0,,,,,,,,,,,,,,,,,,,,,,,,,,,95.5,1.0,,,,,,
412,,iti,,html-keyboard-response,412,544127,0.0-1.0-82.0-0.0-5.0,0,0,18170,,,,,,80.0,,,,,2.0,,,,,,,,,,,,,,,,,,,,,,,,,,,97.5,2.0,,,,,,
413,,choice,,html-keyboard-response,413,545020,0.0-1.0-83.0-0.0-0.0,0,0,18170,,891.0,,,75.0,81.0,81.0,3500.0,2000.0,0.0,2.0,0.0,60-60,,,bowl,bench,60.0,60.0,bowl7,bench2,80.0,60.0,Abowl54.jpg,26369969.thl.jpg,/static/Category_learning/Stimuli/Experimental_stims/bowl/Abowl54.jpg,/static/Category_learning/Stimuli/Experimental_stims/bench/26369969.thl.jpg,0.0,bench,bowl,60.0,60.0,bench2,bowl7,60.0,80.0,0.0,98.391,0.891,,,,,,
414,,confirmation,,html-keyboard-response,414,545632,0.0-1.0-83.0-0.0-1.0-0.0,0,0,18170,,,,,,81.0,,,,,2.0,,,,,,,,,,,,,,,,,,,,,,,,,,,99.0,0.609,,,,,,
415,,isi,,html-keyboard-response,415,549136,0.0-1.0-83.0-0.0-2.0,0,0,18170,,,,,,81.0,,,,,2.0,,,,,,,,,,,,,,,,,,,,,,,,,,,102.5,3.5,,,,,,
416,,feedback,,html-keyboard-response,416,550139,0.0-1.0-83.0-0.0-3.0-0.0,0,0,18170,,,,,,81.0,,,,,2.0,,,,,,,,,,,,,,,,,,,,,,,,,,,103.5,1.0,,,,,,
417,,iti,,html-keyboard-response,417,552143,0.0-1.0-83.0-0.0-5.0,0,0,18170,,,,,,81.0,,,,,2.0,,,,,,,,,,,,,,,,,,,,,,,,,,,105.5,2.0,,,,,,
418,,choice,,html-keyboard-response,418,552843,0.0-1.0-84.0-0.0-0.0,0,0,18170,,697.0,,,75.0,82.0,82.0,1000.0,1500.0,0.0,2.0,0.0,60-80,,1.0,frame,bench,80.0,60.0,frame14,bench1,80.0,40.0,AFRAME129.jpg,26419975.thl.jpg,/static/Category_learning/Stimuli/Experimental_stims/frame/AFRAME129.jpg,/static/Category_learning/Stimuli/Experimental_stims/bench/26419975.thl.jpg,0.0,bench,frame,60.0,80.0,bench1,frame14,40.0,80.0,0.0,106.197,0.697,,,,,,
419,,confirmation,,html-keyboard-response,419,553648,0.0-1.0-84.0-0.0-1.0-0.0,0,0,18170,,,,,,82.0,,,,,2.0,,,,,,,,,,,,,,,,,,,,,,,,,,,107.0,0.803,,,,,,
420,,isi,,html-keyboard-response,420,554651,0.0-1.0-84.0-0.0-2.0,0,0,18170,,,,,,82.0,,,,,2.0,,,,,,,,,,,,,,,,,,,,,,,,,,,108.0,1.0,,,,,,
421,,feedback,,html-keyboard-response,421,555654,0.0-1.0-84.0-0.0-3.0-0.0,0,0,18170,,,,,,82.0,,,,,2.0,,,,,,,,,,,,,,,,,,,,,,,,,,,109.0,1.0,,,,,,
422,,iti,,html-keyboard-response,422,557157,0.0-1.0-84.0-0.0-5.0,0,0,18170,,,,,,82.0,,,,,2.0,,,,,,,,,,,,,,,,,,,,,,,,,,,110.5,1.5,,,,,,
423,,choice,,html-keyboard-response,423,557850,0.0-1.0-85.0-0.0-0.0,0,0,18170,,690.0,,,68.0,83.0,83.0,1500.0,1000.0,0.0,2.0,0.0,20-80,,1.0,key chain,poker card,80.0,20.0,key chain6,poker card12,80.0,20.0,highboy_keychain_ItemCA75384.jpg,22865676.thl.jpg,/static/Category_learning/Stimuli/Experimental_stims/key chain/highboy_keychain_ItemCA75384.jpg,/static/Category_learning/Stimuli/Experimental_stims/poker card/22865676.thl.jpg,1.0,key chain,poker card,80.0,20.0,key chain6,poker card12,80.0,20.0,0.0,111.19,0.69,,,,,,
424,,confirmation,,html-keyboard-response,424,558664,0.0-1.0-85.0-0.0-1.0-0.0,0,0,18170,,,,,,83.0,,,,,2.0,,,,,,,,,,,,,,,,,,,,,,,,,,,112.0,0.81,,,,,,
425,,isi,,html-keyboard-response,425,560167,0.0-1.0-85.0-0.0-2.0,0,0,18170,,,,,,83.0,,,,,2.0,,,,,,,,,,,,,,,,,,,,,,,,,,,113.5,1.5,,,,,,
426,,feedback,,html-keyboard-response,426,561170,0.0-1.0-85.0-0.0-3.0-0.0,0,0,18170,,,,,,83.0,,,,,2.0,,,,,,,,,,,,,,,,,,,,,,,,,,,114.5,1.0,,,,,,
427,,iti,,html-keyboard-response,427,562174,0.0-1.0-85.0-0.0-5.0,0,0,18170,,,,,,83.0,,,,,2.0,,,,,,,,,,,,,,,,,,,,,,,,,,,115.5,1.0,,,,,,
428,,choice,,html-keyboard-response,428,563101,0.0-1.0-86.0-0.0-0.0,0,0,18170,,919.0,,,75.0,84.0,84.0,2000.0,1500.0,0.0,2.0,0.0,20-60,,0.0,poker card,bowl,20.0,60.0,poker card6,bowl1,40.0,40.0,22864212.thl.jpg,ABOWLS6.jpg,/static/Category_learning/Stimuli/Experimental_stims/poker card/22864212.thl.jpg,/static/Category_learning/Stimuli/Experimental_stims/bowl/ABOWLS6.jpg,0.0,bowl,poker card,60.0,20.0,bowl1,poker card6,40.0,40.0,0.0,116.419,0.919,,,,,,
429,,confirmation,,html-keyboard-response,429,563688,0.0-1.0-86.0-0.0-1.0-0.0,0,0,18170,,,,,,84.0,,,,,2.0,,,,,,,,,,,,,,,,,,,,,,,,,,,117.0,0.581,,,,,,
430,,isi,,html-keyboard-response,430,565691,0.0-1.0-86.0-0.0-2.0,0,0,18170,,,,,,84.0,,,,,2.0,,,,,,,,,,,,,,,,,,,,,,,,,,,119.0,2.0,,,,,,
431,,feedback,,html-keyboard-response,431,566694,0.0-1.0-86.0-0.0-3.0-0.0,0,0,18170,,,,,,84.0,,,,,2.0,,,,,,,,,,,,,,,,,,,,,,,,,,,120.0,1.0,,,,,,
432,,iti,,html-keyboard-response,432,568197,0.0-1.0-86.0-0.0-5.0,0,0,18170,,,,,,84.0,,,,,2.0,,,,,,,,,,,,,,,,,,,,,,,,,,,121.5,1.5,,,,,,
433,,choice,,html-keyboard-response,433,568905,0.0-1.0-87.0-0.0-0.0,0,0,18170,,706.0,,,75.0,85.0,85.0,1500.0,3500.0,0.0,2.0,1.0,80-80,1.0,,key chain,key chain,80.0,80.0,key chain1,key chain6,80.0,80.0,jm05s16.jpg,highboy_keychain_ItemCA75384.jpg,/static/Category_learning/Stimuli/Experimental_stims/key chain/jm05s16.jpg,/static/Category_learning/Stimuli/Experimental_stims/key chain/highboy_keychain_ItemCA75384.jpg,0.0,key chain,key chain,80.0,80.0,key chain6,key chain1,80.0,80.0,0.0,122.206,0.706,,,,,,
434,,confirmation,,html-keyboard-response,434,569702,0.0-1.0-87.0-0.0-1.0-0.0,0,0,18170,,,,,,85.0,,,,,2.0,,,,,,,,,,,,,,,,,,,,,,,,,,,123.0,0.794,,,,,,
435,,isi,,html-keyboard-response,435,571206,0.0-1.0-87.0-0.0-2.0,0,0,18170,,,,,,85.0,,,,,2.0,,,,,,,,,,,,,,,,,,,,,,,,,,,124.5,1.5,,,,,,
436,,feedback,,html-keyboard-response,436,572209,0.0-1.0-87.0-0.0-3.0-0.0,0,0,18170,,,,,,85.0,,,,,2.0,,,,,,,,,,,,,,,,,,,,,,,,,,,125.5,1.0,,,,,,
437,,iti,,html-keyboard-response,437,575713,0.0-1.0-87.0-0.0-5.0,0,0,18170,,,,,,85.0,,,,,2.0,,,,,,,,,,,,,,,,,,,,,,,,,,,129.0,3.5,,,,,,
438,,choice,,html-keyboard-response,438,576741,0.0-1.0-88.0-0.0-0.0,0,0,18170,,1025.0,,,75.0,86.0,86.0,1000.0,1000.0,0.0,2.0,0.0,40-80,,1.0,frame,tape,80.0,40.0,frame1,tape11,80.0,20.0,AFRAME127.jpg,41FZA73H4JL._AA280_.jpg,/static/Category_learning/Stimuli/Experimental_stims/frame/AFRAME127.jpg,/static/Category_learning/Stimuli/Experimental_stims/tape/41FZA73H4JL._AA280_.jpg,0.0,tape,frame,40.0,80.0,tape11,frame1,20.0,80.0,0.0,130.025,1.025,,,,,,
439,,confirmation,,html-keyboard-response,439,577220,0.0-1.0-88.0-0.0-1.0-0.0,0,0,18170,,,,,,86.0,,,,,2.0,,,,,,,,,,,,,,,,,,,,,,,,,,,130.5,0.475,,,,,,
440,,isi,,html-keyboard-response,440,578223,0.0-1.0-88.0-0.0-2.0,0,0,18170,,,,,,86.0,,,,,2.0,,,,,,,,,,,,,,,,,,,,,,,,,,,131.5,1.0,,,,,,
441,,feedback,,html-keyboard-response,441,579226,0.0-1.0-88.0-0.0-3.0-0.0,0,0,18170,,,,,,86.0,,,,,2.0,,,,,,,,,,,,,,,,,,,,,,,,,,,132.5,1.0,,,,,,
442,,iti,,html-keyboard-response,442,580230,0.0-1.0-88.0-0.0-5.0,0,0,18170,,,,,,86.0,,,,,2.0,,,,,,,,,,,,,,,,,,,,,,,,,,,133.5,1.0,,,,,,
443,,choice,,html-keyboard-response,443,580920,0.0-1.0-89.0-0.0-0.0,0,0,18170,,687.0,,,68.0,87.0,87.0,1500.0,1000.0,0.0,2.0,0.0,20-60,,1.0,bowl,seashell,60.0,20.0,bowl12,seashell1,40.0,0.0,Abowl52.jpg,Aseashe34.jpg,/static/Category_learning/Stimuli/Experimental_stims/bowl/Abowl52.jpg,/static/Category_learning/Stimuli/Experimental_stims/seashell/Aseashe34.jpg,1.0,bowl,seashell,60.0,20.0,bowl12,seashell1,40.0,0.0,0.0,134.187,0.687,,,,,,
444,,confirmation,,html-keyboard-response,444,581737,0.0-1.0-89.0-0.0-1.0-0.0,0,0,18170,,,,,,87.0,,,,,2.0,,,,,,,,,,,,,,,,,,,,,,,,,,,135.0,0.813,,,,,,
445,,isi,,html-keyboard-response,445,583239,0.0-1.0-89.0-0.0-2.0,0,0,18170,,,,,,87.0,,,,,2.0,,,,,,,,,,,,,,,,,,,,,,,,,,,136.5,1.5,,,,,,
446,,feedback,,html-keyboard-response,446,584242,0.0-1.0-89.0-0.0-3.0-0.0,0,0,18170,,,,,,87.0,,,,,2.0,,,,,,,,,,,,,,,,,,,,,,,,,,,137.5,1.0,,,,,,
447,,iti,,html-keyboard-response,447,585246,0.0-1.0-89.0-0.0-5.0,0,0,18170,,,,,,87.0,,,,,2.0,,,,,,,,,,,,,,,,,,,,,,,,,,,138.5,1.0,,,,,,
448,,choice,,html-keyboard-response,448,585995,0.0-1.0-90.0-0.0-0.0,0,0,18170,,743.0,,,68.0,88.0,88.0,1500.0,1000.0,0.0,2.0,0.0,40-60,,1.0,desk,watch,60.0,40.0,desk2,watch15,80.0,40.0,AA Luffield Radial crescent Desk 1600mm x 1200mm.jpg,20-171-6.jpg,/static/Category_learning/Stimuli/Experimental_stims/desk/AA Luffield Radial crescent Desk 1600mm x 1200mm.jpg,/static/Category_learning/Stimuli/Experimental_stims/watch/20-171-6.jpg,1.0,desk,watch,60.0,40.0,desk2,watch15,80.0,40.0,0.0,139.243,0.743,,,,,,
449,,confirmation,,html-keyboard-response,449,586757,0.0-1.0-90.0-0.0-1.0-0.0,0,0,18170,,,,,,88.0,,,,,2.0,,,,,,,,,,,,,,,,,,,,,,,,,,,140.0,0.757,,,,,,
450,,isi,,html-keyboard-response,450,588259,0.0-1.0-90.0-0.0-2.0,0,0,18170,,,,,,88.0,,,,,2.0,,,,,,,,,,,,,,,,,,,,,,,,,,,141.5,1.5,,,,,,
451,,feedback,,html-keyboard-response,451,589263,0.0-1.0-90.0-0.0-3.0-0.0,0,0,18170,,,,,,88.0,,,,,2.0,,,,,,,,,,,,,,,,,,,,,,,,,,,142.5,1.0,,,,,,
452,,iti,,html-keyboard-response,452,590271,0.0-1.0-90.0-0.0-5.0,0,0,18170,,,,,,88.0,,,,,2.0,,,,,,,,,,,,,,,,,,,,,,,,,,,143.5,1.0,,,,,,
453,,choice,,html-keyboard-response,453,591178,0.0-1.0-91.0-0.0-0.0,0,0,18170,,903.0,,,75.0,89.0,89.0,1000.0,3000.0,0.0,2.0,1.0,80-80,1.0,,hat,hat,80.0,80.0,hat12,hat3,60.0,100.0,Aformalhat5.jpg,Astrawhat49.jpg,/static/Category_learning/Stimuli/Experimental_stims/hat/Aformalhat5.jpg,/static/Category_learning/Stimuli/Experimental_stims/hat/Astrawhat49.jpg,0.0,hat,hat,80.0,80.0,hat3,hat12,100.0,60.0,0.0,144.403,0.903,,,,,,
454,,confirmation,,html-keyboard-response,454,591779,0.0-1.0-91.0-0.0-1.0-0.0,0,0,18170,,,,,,89.0,,,,,2.0,,,,,,,,,,,,,,,,,,,,,,,,,,,145.0,0.597,,,,,,
455,,isi,,html-keyboard-response,455,592788,0.0-1.0-91.0-0.0-2.0,0,0,18170,,,,,,89.0,,,,,2.0,,,,,,,,,,,,,,,,,,,,,,,,,,,146.0,1.0,,,,,,
456,,feedback,,html-keyboard-response,456,593807,0.0-1.0-91.0-0.0-3.0-0.0,0,0,18170,,,,,,89.0,,,,,2.0,,,,,,,,,,,,,,,,,,,,,,,,,,,147.0,1.0,,,,,,
457,,iti,,html-keyboard-response,457,596811,0.0-1.0-91.0-0.0-5.0,0,0,18170,,,,,,89.0,,,,,2.0,,,,,,,,,,,,,,,,,,,,,,,,,,,150.0,3.0,,,,,,
458,,choice,,html-keyboard-response,458,597507,0.0-1.0-92.0-0.0-0.0,0,0,18170,,691.0,,,75.0,90.0,90.0,1000.0,1000.0,0.0,2.0,0.0,40-60,,0.0,tape,dresser,40.0,60.0,tape1,dresser2,20.0,80.0,aktotape_01.jpg,ADRESSE46.jpg,/static/Category_learning/Stimuli/Experimental_stims/tape/aktotape_01.jpg,/static/Category_learning/Stimuli/Experimental_stims/dresser/ADRESSE46.jpg,0.0,dresser,tape,60.0,40.0,dresser2,tape1,80.0,20.0,0.0,150.691,0.691,,,,,,
459,,confirmation,,html-keyboard-response,459,598320,0.0-1.0-92.0-0.0-1.0-0.0,0,0,18170,,,,,,90.0,,,,,2.0,,,,,,,,,,,,,,,,,,,,,,,,,,,151.5,0.809,,,,,,
460,,isi,,html-keyboard-response,460,599322,0.0-1.0-92.0-0.0-2.0,0,0,18170,,,,,,90.0,,,,,2.0,,,,,,,,,,,,,,,,,,,,,,,,,,,152.5,1.0,,,,,,
461,,feedback,,html-keyboard-response,461,600326,0.0-1.0-92.0-0.0-3.0-0.0,0,0,18170,,,,,,90.0,,,,,2.0,,,,,,,,,,,,,,,,,,,,,,,,,,,153.5,1.0,,,,,,
462,,iti,,html-keyboard-response,462,601329,0.0-1.0-92.0-0.0-5.0,0,0,18170,,,,,,90.0,,,,,2.0,,,,,,,,,,,,,,,,,,,,,,,,,,,154.5,1.0,,,,,,
463,,choice,,html-keyboard-response,463,602444,0.0-1.0-93.0-0.0-0.0,0,0,18170,,1112.0,,,68.0,91.0,91.0,2000.0,1000.0,0.0,2.0,0.0,80-80,,,lipstick,frame,80.0,80.0,lipstick3,frame6,80.0,60.0,31sCvjMS3jL._SS500_.jpg,AFRAME123.jpg,/static/Category_learning/Stimuli/Experimental_stims/lipstick/31sCvjMS3jL._SS500_.jpg,/static/Category_learning/Stimuli/Experimental_stims/frame/AFRAME123.jpg,1.0,lipstick,frame,80.0,80.0,lipstick3,frame6,80.0,60.0,0.0,155.612,1.112,,,,,,
464,,confirmation,,html-keyboard-response,464,602835,0.0-1.0-93.0-0.0-1.0-0.0,0,0,18170,,,,,,91.0,,,,,2.0,,,,,,,,,,,,,,,,,,,,,,,,,,,156.0,0.388,,,,,,
465,,isi,,html-keyboard-response,465,604839,0.0-1.0-93.0-0.0-2.0,0,0,18170,,,,,,91.0,,,,,2.0,,,,,,,,,,,,,,,,,,,,,,,,,,,158.0,2.0,,,,,,
466,,feedback,,html-keyboard-response,466,605843,0.0-1.0-93.0-0.0-3.0-0.0,0,0,18170,,,,,,91.0,,,,,2.0,,,,,,,,,,,,,,,,,,,,,,,,,,,159.0,1.0,,,,,,
467,,iti,,html-keyboard-response,467,606847,0.0-1.0-93.0-0.0-5.0,0,0,18170,,,,,,91.0,,,,,2.0,,,,,,,,,,,,,,,,,,,,,,,,,,,160.0,1.0,,,,,,
468,,choice,,html-keyboard-response,468,607790,0.0-1.0-94.0-0.0-0.0,0,0,18170,,939.0,,,68.0,92.0,92.0,1500.0,1500.0,0.0,2.0,0.0,40-80,,0.0,yarn,hat,40.0,80.0,yarn9,hat9,60.0,100.0,Aballofyarn26.jpg,Astrawhat44.jpg,/static/Category_learning/Stimuli/Experimental_stims/yarn/Aballofyarn26.jpg,/static/Category_learning/Stimuli/Experimental_stims/hat/Astrawhat44.jpg,1.0,yarn,hat,40.0,80.0,yarn9,hat9,60.0,100.0,0.0,160.939,0.939,,,,,,
469,,confirmation,,html-keyboard-response,469,608358,0.0-1.0-94.0-0.0-1.0-0.0,0,0,18170,,,,,,92.0,,,,,2.0,,,,,,,,,,,,,,,,,,,,,,,,,,,161.5,0.561,,,,,,
470,,isi,,html-keyboard-response,470,609861,0.0-1.0-94.0-0.0-2.0,0,0,18170,,,,,,92.0,,,,,2.0,,,,,,,,,,,,,,,,,,,,,,,,,,,163.0,1.5,,,,,,
471,,feedback,,html-keyboard-response,471,610864,0.0-1.0-94.0-0.0-3.0-0.0,0,0,18170,,,,,,92.0,,,,,2.0,,,,,,,,,,,,,,,,,,,,,,,,,,,164.0,1.0,,,,,,
472,,iti,,html-keyboard-response,472,612367,0.0-1.0-94.0-0.0-5.0,0,0,18170,,,,,,92.0,,,,,2.0,,,,,,,,,,,,,,,,,,,,,,,,,,,165.5,1.5,,,,,,
473,,choice,,html-keyboard-response,473,613266,0.0-1.0-95.0-0.0-0.0,0,0,18170,,895.0,,,75.0,93.0,93.0,1000.0,1000.0,0.0,2.0,0.0,20-80,,0.0,power strip,motorcycle,20.0,80.0,power strip7,motorcycle13,20.0,80.0,412YZ25RFBL._AA262_.jpg,2005-Buell-FireboltXB12R.jpg,/static/Category_learning/Stimuli/Experimental_stims/power strip/412YZ25RFBL._AA262_.jpg,/static/Category_learning/Stimuli/Experimental_stims/motorcycle/2005-Buell-FireboltXB12R.jpg,0.0,motorcycle,power strip,80.0,20.0,motorcycle13,power strip7,80.0,20.0,0.0,166.395,0.895,,,,,,
474,,confirmation,,html-keyboard-response,474,613874,0.0-1.0-95.0-0.0-1.0-0.0,0,0,18170,,,,,,93.0,,,,,2.0,,,,,,,,,,,,,,,,,,,,,,,,,,,167.0,0.605,,,,,,
475,,isi,,html-keyboard-response,475,614886,0.0-1.0-95.0-0.0-2.0,0,0,18170,,,,,,93.0,,,,,2.0,,,,,,,,,,,,,,,,,,,,,,,,,,,168.0,1.0,,,,,,
476,,feedback,,html-keyboard-response,476,615890,0.0-1.0-95.0-0.0-3.0-0.0,0,0,18170,,,,,,93.0,,,,,2.0,,,,,,,,,,,,,,,,,,,,,,,,,,,169.0,1.0,,,,,,
477,,iti,,html-keyboard-response,477,616893,0.0-1.0-95.0-0.0-5.0,0,0,18170,,,,,,93.0,,,,,2.0,,,,,,,,,,,,,,,,,,,,,,,,,,,170.0,1.0,,,,,,
478,,choice,,html-keyboard-response,478,617798,0.0-1.0-96.0-0.0-0.0,0,0,18170,,901.0,,,75.0,94.0,94.0,1000.0,2000.0,0.0,2.0,0.0,40-80,,0.0,telescope,makeup compact,40.0,80.0,telescope9,makeup compact11,60.0,100.0,13TELESTAND.jpg,P190255_hero.jpg,/static/Category_learning/Stimuli/Experimental_stims/telescope/13TELESTAND.jpg,/static/Category_learning/Stimuli/Experimental_stims/makeup compact/P190255_hero.jpg,0.0,makeup compact,telescope,80.0,40.0,makeup compact11,telescope9,100.0,60.0,0.0,170.901,0.901,,,,,,
479,,confirmation,,html-keyboard-response,479,618400,0.0-1.0-96.0-0.0-1.0-0.0,0,0,18170,,,,,,94.0,,,,,2.0,,,,,,,,,,,,,,,,,,,,,,,,,,,171.5,0.599,,,,,,
