,success,ttype,start_time,trial_type,trial_index,time_elapsed,internal_node_id,warning,missed_checkup,PID,view_history,rt,responses,repeat_instructions,key_press,index,trial_num,isi,iti,is_practice,block,old_trial,pair_type,within_category,high_cat_on_left,left_category,right_category,left_category_value,right_category_value,left_exemplar,right_exemplar,left_exemplar_value,right_exemplar_value,left_img,right_img,left_img_path,right_img_path,left_chosen,chosen_category,unchosen_category,chosen_category_value,unchosen_category_value,chosen_exemplar,unchosen_exemplar,chosen_exemplar_value,unchosen_exemplar_value,no_response,onset,duration,end_practice,total_bonus_tally,category,category_group_value,category_value_response,did_not_enter_response
0,True,full_screen,d06072022hr1118,fullscreen,0,12609,0.0-0.0,0,0,44248,,,,,,,,,,,,,,,,,,,,,,,,,,,,,,,,,,,,,,,,,,,,,
1,,category_learning_instructions,,instructions,1,37253,0.0-1.0-0.0-0.0,0,0,44248,"[{""page_index"":0,""viewing_time"":10415},{""page_index"":1,""viewing_time"":3738},{""page_index"":2,""viewing_time"":1750},{""page_index"":3,""viewing_time"":3992},{""page_index"":4,""viewing_time"":2262},{""page_index"":5,""viewing_time"":1140},{""page_index"":6,""viewing_time"":1342}]",24640.0,,,,,,,,,,,,,,,,,,,,,,,,,,,,,,,,,,,,,,,,,,,
2,,category_learning_comprehension_check,,survey-multi-choice,2,51878,0.0-1.0-0.0-1.0,0,0,44248,,14621.0,"{""Q0"":""True"",""Q1"":""True"",""Q2"":""Stay the same"",""Q3"":""D for left and K for right""}",0.0,,,,,,,,,,,,,,,,,,,,,,,,,,,,,,,,,,,,,,,,,
3,,,,html-keyboard-response,3,57924,0.0-1.0-1.0,0,0,44248,,6043.0,,,68.0,,,,,,,,,,,,,,,,,,,,,,,,,,,,,,,,,,,,,,,,
4,,choice,,html-keyboard-response,4,58788,0.0-1.0-2.0-0.0-0.0,0,0,44248,,860.0,,,75.0,0.0,0.0,1500.0,1000.0,1.0,0.0,0.0,20-80,,0.0,bagel,dumbbell,20.0,80.0,bagel1,dumbbell1,0.0,80.0,bagels_pumpernickel_large.jpg,31B64EN68AL._AA280_.jpg,/static/Category_learning/Stimuli/Practice_stims/bagel/bagels_pumpernickel_large.jpg,/static/Category_learning/Stimuli/Practice_stims/dumbbell/31B64EN68AL._AA280_.jpg,0.0,dumbbell,bagel,80.0,20.0,dumbbell1,bagel1,80.0,0.0,0.0,0.86,0.86,,,,,,
5,,confirmation,,html-keyboard-response,5,59431,0.0-1.0-2.0-0.0-1.0-0.0,0,0,44248,,,,,,0.0,,,,,0.0,,,,,,,,,,,,,,,,,,,,,,,,,,,1.5,0.64,,,,,,
6,,isi,,html-keyboard-response,6,60933,0.0-1.0-2.0-0.0-2.0,0,0,44248,,,,,,0.0,,,,,0.0,,,,,,,,,,,,,,,,,,,,,,,,,,,3.0,1.5,,,,,,
7,,feedback,,html-keyboard-response,7,61936,0.0-1.0-2.0-0.0-3.0-0.0,0,0,44248,,,,,,0.0,,,,,0.0,,,,,,,,,,,,,,,,,,,,,,,,,,,4.0,1.0,,,,,,
8,,iti,,html-keyboard-response,8,62942,0.0-1.0-2.0-0.0-5.0,0,0,44248,,,,,,0.0,,,,,0.0,,,,,,,,,,,,,,,,,,,,,,,,,,,5.0,1.0,,,,,,
9,,choice,,html-keyboard-response,9,63740,0.0-1.0-3.0-0.0-0.0,0,0,44248,,795.0,,,75.0,1.0,1.0,3000.0,1500.0,1.0,0.0,0.0,20-40,,1.0,calculator,bagel,40.0,20.0,calculator2,bagel2,20.0,20.0,22829064.thl.jpg,bagels_cinnraisin_large.jpg,/static/Category_learning/Stimuli/Practice_stims/calculator/22829064.thl.jpg,/static/Category_learning/Stimuli/Practice_stims/bagel/bagels_cinnraisin_large.jpg,0.0,bagel,calculator,20.0,40.0,bagel2,calculator2,20.0,20.0,0.0,5.795,0.795,,,,,,
10,,confirmation,,html-keyboard-response,10,64449,0.0-1.0-3.0-0.0-1.0-0.0,0,0,44248,,,,,,1.0,,,,,0.0,,,,,,,,,,,,,,,,,,,,,,,,,,,6.5,0.705,,,,,,
11,,isi,,html-keyboard-response,11,67452,0.0-1.0-3.0-0.0-2.0,0,0,44248,,,,,,1.0,,,,,0.0,,,,,,,,,,,,,,,,,,,,,,,,,,,9.5,3.0,,,,,,
12,,feedback,,html-keyboard-response,12,68455,0.0-1.0-3.0-0.0-3.0-0.0,0,0,44248,,,,,,1.0,,,,,0.0,,,,,,,,,,,,,,,,,,,,,,,,,,,10.5,1.0,,,,,,
13,,iti,,html-keyboard-response,13,69957,0.0-1.0-3.0-0.0-5.0,0,0,44248,,,,,,1.0,,,,,0.0,,,,,,,,,,,,,,,,,,,,,,,,,,,12.0,1.5,,,,,,
14,,choice,,html-keyboard-response,14,70308,0.0-1.0-4.0-0.0-0.0,0,0,44248,,348.0,,,68.0,2.0,2.0,2000.0,3000.0,1.0,0.0,0.0,60-80,,0.0,clock,dumbbell,60.0,80.0,clock2,dumbbell2,60.0,100.0,26373355.thl.jpg,31K8MR6TMBL._SS500_.jpg,/static/Category_learning/Stimuli/Practice_stims/clock/26373355.thl.jpg,/static/Category_learning/Stimuli/Practice_stims/dumbbell/31K8MR6TMBL._SS500_.jpg,1.0,clock,dumbbell,60.0,80.0,clock2,dumbbell2,60.0,100.0,0.0,12.348,0.348,,,,,,
15,,confirmation,,html-keyboard-response,15,71463,0.0-1.0-4.0-0.0-1.0-0.0,0,0,44248,,,,,,2.0,,,,,0.0,,,,,,,,,,,,,,,,,,,,,,,,,,,13.5,1.152,,,,,,
16,,isi,,html-keyboard-response,16,73465,0.0-1.0-4.0-0.0-2.0,0,0,44248,,,,,,2.0,,,,,0.0,,,,,,,,,,,,,,,,,,,,,,,,,,,15.5,2.0,,,,,,
17,,feedback,,html-keyboard-response,17,74467,0.0-1.0-4.0-0.0-3.0-0.0,0,0,44248,,,,,,2.0,,,,,0.0,,,,,,,,,,,,,,,,,,,,,,,,,,,16.5,1.0,,,,,,
18,,iti,,html-keyboard-response,18,77470,0.0-1.0-4.0-0.0-5.0,0,0,44248,,,,,,2.0,,,,,0.0,,,,,,,,,,,,,,,,,,,,,,,,,,,19.5,3.0,,,,,,
19,,choice,,html-keyboard-response,19,77931,0.0-1.0-5.0-0.0-0.0,0,0,44248,,459.0,,,75.0,3.0,3.0,1000.0,2000.0,1.0,0.0,0.0,40-80,,0.0,calculator,clock,40.0,60.0,calculator1,clock1,40.0,40.0,22829184.thl.jpg,Aalarmclock2.jpg,/static/Category_learning/Stimuli/Practice_stims/calculator/22829184.thl.jpg,/static/Category_learning/Stimuli/Practice_stims/clock/Aalarmclock2.jpg,0.0,clock,calculator,60.0,40.0,clock1,calculator1,40.0,40.0,0.0,19.959,0.459,,,,,,
20,,confirmation,,html-keyboard-response,20,78975,0.0-1.0-5.0-0.0-1.0-0.0,0,0,44248,,,,,,3.0,,,,,0.0,,,,,,,,,,,,,,,,,,,,,,,,,,,21.0,1.041,,,,,,
21,,isi,,html-keyboard-response,21,79979,0.0-1.0-5.0-0.0-2.0,0,0,44248,,,,,,3.0,,,,,0.0,,,,,,,,,,,,,,,,,,,,,,,,,,,22.0,1.0,,,,,,
22,,feedback,,html-keyboard-response,22,80982,0.0-1.0-5.0-0.0-3.0-0.0,0,0,44248,,,,,,3.0,,,,,0.0,,,,,,,,,,,,,,,,,,,,,,,,,,,23.0,1.0,,,,,,
23,,iti,,html-keyboard-response,23,82984,0.0-1.0-5.0-0.0-5.0,0,0,44248,,,,,,3.0,,,,,0.0,,,,,,,,,,,,,,,,,,,,,,,,,,,25.0,2.0,,,,,,
24,,choice,,html-keyboard-response,24,83820,0.0-1.0-6.0-0.0-0.0,0,0,44248,,833.0,,,68.0,4.0,4.0,2500.0,2500.0,1.0,0.0,0.0,20-60,,1.0,dumbbell,bagel,80.0,20.0,dumbbell3,bagel3,100.0,40.0,41K7QVRX50L._SS500_.jpg,photo-169.jpg,/static/Category_learning/Stimuli/Practice_stims/dumbbell/41K7QVRX50L._SS500_.jpg,/static/Category_learning/Stimuli/Practice_stims/bagel/photo-169.jpg,1.0,dumbbell,bagel,80.0,20.0,dumbbell3,bagel3,100.0,40.0,0.0,25.833,0.833,1.0,,,,,
25,,confirmation,,html-keyboard-response,25,84490,0.0-1.0-6.0-0.0-1.0-0.0,0,0,44248,,,,,,4.0,,,,,0.0,,,,,,,,,,,,,,,,,,,,,,,,,,,26.5,0.667,,,,,,
26,,isi,,html-keyboard-response,26,86993,0.0-1.0-6.0-0.0-2.0,0,0,44248,,,,,,4.0,,,,,0.0,,,,,,,,,,,,,,,,,,,,,,,,,,,29.0,2.5,,,,,,
27,,feedback,,html-keyboard-response,27,87995,0.0-1.0-6.0-0.0-3.0-0.0,0,0,44248,,,,,,4.0,,,,,0.0,,,,,,,,,,,,,,,,,,,,,,,,,,,30.0,1.0,,,,,,
28,,iti,,html-keyboard-response,28,90498,0.0-1.0-6.0-0.0-5.0,0,0,44248,,,,,,4.0,,,,,0.0,,,,,,,,,,,,,,,,,,,,,,,,,,,32.5,2.5,,,,,,
29,,practice_over,,html-keyboard-response,29,92772,0.0-1.0-6.0-0.0-6.0-0.0,0,0,44248,,2271.0,,,68.0,4.0,,,,,,,,,,,,,,,,,,,,,,,,,,,,,,,,,,,,,,,
30,,start_run,,html-keyboard-response,30,98172,0.0-1.0-6.0-0.0-6.0-1.0,0,0,44248,,5398.0,,,84.0,,,,,,,,,,,,,,,,,,,,,,,,,,,,,,,,,,,,,,,,
31,,choice,,html-keyboard-response,31,98931,0.0-1.0-7.0-0.0-0.0,0,0,44248,,757.0,,,75.0,5.0,5.0,3000.0,2000.0,0.0,1.0,0.0,40-40,,,license plate,hammer,40.0,40.0,license plate13,hammer11,60.0,60.0,usa-rj-9517.jpg,8oz-hammer-copy.jpg,/static/Category_learning/Stimuli/Experimental_stims/license plate/usa-rj-9517.jpg,/static/Category_learning/Stimuli/Experimental_stims/hammer/8oz-hammer-copy.jpg,0.0,hammer,license plate,40.0,40.0,hammer11,license plate13,60.0,60.0,0.0,0.757,0.757,,,,,,
32,,confirmation,,html-keyboard-response,32,99678,0.0-1.0-7.0-0.0-1.0-0.0,0,0,44248,,,,,,5.0,,,,,1.0,,,,,,,,,,,,,,,,,,,,,,,,,,,1.5,0.743,,,,,,
33,,isi,,html-keyboard-response,33,102693,0.0-1.0-7.0-0.0-2.0,0,0,44248,,,,,,5.0,,,,,1.0,,,,,,,,,,,,,,,,,,,,,,,,,,,4.5,3.0,,,,,,
34,,feedback,,html-keyboard-response,34,103707,0.0-1.0-7.0-0.0-3.0-0.0,0,0,44248,,,,,,5.0,,,,,1.0,,,,,,,,,,,,,,,,,,,,,,,,,,,5.5,1.0,,,,,,
35,,iti,,html-keyboard-response,35,105709,0.0-1.0-7.0-0.0-5.0,0,0,44248,,,,,,5.0,,,,,1.0,,,,,,,,,,,,,,,,,,,,,,,,,,,7.5,2.0,,,,,,
36,,choice,,html-keyboard-response,36,106308,0.0-1.0-8.0-0.0-0.0,0,0,44248,,596.0,,,68.0,6.0,6.0,1000.0,1000.0,0.0,1.0,0.0,20-60,,0.0,flashlight,poker card,20.0,60.0,flashlight9,poker card6,40.0,80.0,new06.jpg,22864212.thl.jpg,/static/Category_learning/Stimuli/Experimental_stims/flashlight/new06.jpg,/static/Category_learning/Stimuli/Experimental_stims/poker card/22864212.thl.jpg,1.0,flashlight,poker card,20.0,60.0,flashlight9,poker card6,40.0,80.0,0.0,8.096,0.596,,,,,,
37,,confirmation,,html-keyboard-response,37,107214,0.0-1.0-8.0-0.0-1.0-0.0,0,0,44248,,,,,,6.0,,,,,1.0,,,,,,,,,,,,,,,,,,,,,,,,,,,9.0,0.904,,,,,,
38,,isi,,html-keyboard-response,38,108217,0.0-1.0-8.0-0.0-2.0,0,0,44248,,,,,,6.0,,,,,1.0,,,,,,,,,,,,,,,,,,,,,,,,,,,10.0,1.0,,,,,,
39,,feedback,,html-keyboard-response,39,109220,0.0-1.0-8.0-0.0-3.0-0.0,0,0,44248,,,,,,6.0,,,,,1.0,,,,,,,,,,,,,,,,,,,,,,,,,,,11.0,1.0,,,,,,
40,,iti,,html-keyboard-response,40,110222,0.0-1.0-8.0-0.0-5.0,0,0,44248,,,,,,6.0,,,,,1.0,,,,,,,,,,,,,,,,,,,,,,,,,,,12.0,1.0,,,,,,
41,,choice,,html-keyboard-response,41,110612,0.0-1.0-9.0-0.0-0.0,0,0,44248,,387.0,,,75.0,7.0,7.0,1500.0,3500.0,0.0,1.0,0.0,60-60,,,seashell,nail polish,60.0,60.0,seashell7,nail polish6,60.0,60.0,seashell34.jpg,127_t.jpg,/static/Category_learning/Stimuli/Experimental_stims/seashell/seashell34.jpg,/static/Category_learning/Stimuli/Experimental_stims/nail polish/127_t.jpg,0.0,nail polish,seashell,60.0,60.0,nail polish6,seashell7,60.0,60.0,0.0,12.387,0.387,,,,,,
42,,confirmation,,html-keyboard-response,42,111728,0.0-1.0-9.0-0.0-1.0-0.0,0,0,44248,,,,,,7.0,,,,,1.0,,,,,,,,,,,,,,,,,,,,,,,,,,,13.5,1.113,,,,,,
43,,isi,,html-keyboard-response,43,113230,0.0-1.0-9.0-0.0-2.0,0,0,44248,,,,,,7.0,,,,,1.0,,,,,,,,,,,,,,,,,,,,,,,,,,,15.0,1.5,,,,,,
44,,feedback,,html-keyboard-response,44,114234,0.0-1.0-9.0-0.0-3.0-0.0,0,0,44248,,,,,,7.0,,,,,1.0,,,,,,,,,,,,,,,,,,,,,,,,,,,16.0,1.0,,,,,,
45,,iti,,html-keyboard-response,45,117736,0.0-1.0-9.0-0.0-5.0,0,0,44248,,,,,,7.0,,,,,1.0,,,,,,,,,,,,,,,,,,,,,,,,,,,19.5,3.5,,,,,,
46,,choice,,html-keyboard-response,46,118404,0.0-1.0-10.0-0.0-0.0,0,0,44248,,664.0,,,75.0,8.0,8.0,1500.0,1000.0,0.0,1.0,0.0,40-80,,1.0,telescope,hat,80.0,40.0,telescope3,hat5,100.0,60.0,41V67SB5NJL._SS500_.jpg,AREDHAT4.jpg,/static/Category_learning/Stimuli/Experimental_stims/telescope/41V67SB5NJL._SS500_.jpg,/static/Category_learning/Stimuli/Experimental_stims/hat/AREDHAT4.jpg,0.0,hat,telescope,40.0,80.0,hat5,telescope3,60.0,100.0,0.0,20.164,0.664,,,,,,
47,,confirmation,,html-keyboard-response,47,119242,0.0-1.0-10.0-0.0-1.0-0.0,0,0,44248,,,,,,8.0,,,,,1.0,,,,,,,,,,,,,,,,,,,,,,,,,,,21.0,0.836,,,,,,
48,,isi,,html-keyboard-response,48,120744,0.0-1.0-10.0-0.0-2.0,0,0,44248,,,,,,8.0,,,,,1.0,,,,,,,,,,,,,,,,,,,,,,,,,,,22.5,1.5,,,,,,
49,,feedback,,html-keyboard-response,49,121747,0.0-1.0-10.0-0.0-3.0-0.0,0,0,44248,,,,,,8.0,,,,,1.0,,,,,,,,,,,,,,,,,,,,,,,,,,,23.5,1.0,,,,,,
50,,iti,,html-keyboard-response,50,122749,0.0-1.0-10.0-0.0-5.0,0,0,44248,,,,,,8.0,,,,,1.0,,,,,,,,,,,,,,,,,,,,,,,,,,,24.5,1.0,,,,,,
51,,choice,,html-keyboard-response,51,123236,0.0-1.0-11.0-0.0-0.0,0,0,44248,,484.0,,,68.0,9.0,9.0,2000.0,3500.0,0.0,1.0,0.0,40-60,,1.0,power strip,makeup compact,60.0,40.0,power strip12,makeup compact1,80.0,60.0,41CXESEH1TL._AA262_.jpg,P190250_hero.jpg,/static/Category_learning/Stimuli/Experimental_stims/power strip/41CXESEH1TL._AA262_.jpg,/static/Category_learning/Stimuli/Experimental_stims/makeup compact/P190250_hero.jpg,1.0,power strip,makeup compact,60.0,40.0,power strip12,makeup compact1,80.0,60.0,0.0,24.984,0.484,,,,,,
52,,confirmation,,html-keyboard-response,52,124254,0.0-1.0-11.0-0.0-1.0-0.0,0,0,44248,,,,,,9.0,,,,,1.0,,,,,,,,,,,,,,,,,,,,,,,,,,,26.0,1.016,,,,,,
53,,isi,,html-keyboard-response,53,126257,0.0-1.0-11.0-0.0-2.0,0,0,44248,,,,,,9.0,,,,,1.0,,,,,,,,,,,,,,,,,,,,,,,,,,,28.0,2.0,,,,,,
54,,feedback,,html-keyboard-response,54,127259,0.0-1.0-11.0-0.0-3.0-0.0,0,0,44248,,,,,,9.0,,,,,1.0,,,,,,,,,,,,,,,,,,,,,,,,,,,29.0,1.0,,,,,,
55,,iti,,html-keyboard-response,55,130762,0.0-1.0-11.0-0.0-5.0,0,0,44248,,,,,,9.0,,,,,1.0,,,,,,,,,,,,,,,,,,,,,,,,,,,32.5,3.5,,,,,,
56,,choice,,html-keyboard-response,56,131251,0.0-1.0-12.0-0.0-0.0,0,0,44248,,487.0,,,75.0,10.0,10.0,1500.0,3500.0,0.0,1.0,1.0,40-40,0.0,,hat,hammer,40.0,40.0,hat5,hammer11,60.0,60.0,AREDHAT4.jpg,8oz-hammer-copy.jpg,/static/Category_learning/Stimuli/Experimental_stims/hat/AREDHAT4.jpg,/static/Category_learning/Stimuli/Experimental_stims/hammer/8oz-hammer-copy.jpg,0.0,hammer,hat,40.0,40.0,hammer11,hat5,60.0,60.0,0.0,32.987,0.487,,,,,,
57,,confirmation,,html-keyboard-response,57,132268,0.0-1.0-12.0-0.0-1.0-0.0,0,0,44248,,,,,,10.0,,,,,1.0,,,,,,,,,,,,,,,,,,,,,,,,,,,34.0,1.013,,,,,,
58,,isi,,html-keyboard-response,58,133770,0.0-1.0-12.0-0.0-2.0,0,0,44248,,,,,,10.0,,,,,1.0,,,,,,,,,,,,,,,,,,,,,,,,,,,35.5,1.5,,,,,,
59,,feedback,,html-keyboard-response,59,134774,0.0-1.0-12.0-0.0-3.0-0.0,0,0,44248,,,,,,10.0,,,,,1.0,,,,,,,,,,,,,,,,,,,,,,,,,,,36.5,1.0,,,,,,
60,,iti,,html-keyboard-response,60,138276,0.0-1.0-12.0-0.0-5.0,0,0,44248,,,,,,10.0,,,,,1.0,,,,,,,,,,,,,,,,,,,,,,,,,,,40.0,3.5,,,,,,
61,,choice,,html-keyboard-response,61,138931,0.0-1.0-13.0-0.0-0.0,0,0,44248,,652.0,,,68.0,11.0,11.0,1500.0,1000.0,0.0,1.0,1.0,20-60,0.0,,flashlight,nail polish,20.0,60.0,flashlight9,nail polish6,40.0,60.0,new06.jpg,127_t.jpg,/static/Category_learning/Stimuli/Experimental_stims/flashlight/new06.jpg,/static/Category_learning/Stimuli/Experimental_stims/nail polish/127_t.jpg,1.0,flashlight,nail polish,20.0,60.0,flashlight9,nail polish6,40.0,60.0,0.0,40.652,0.652,,,,,,
62,,confirmation,,html-keyboard-response,62,139783,0.0-1.0-13.0-0.0-1.0-0.0,0,0,44248,,,,,,11.0,,,,,1.0,,,,,,,,,,,,,,,,,,,,,,,,,,,41.5,0.848,,,,,,
63,,isi,,html-keyboard-response,63,141285,0.0-1.0-13.0-0.0-2.0,0,0,44248,,,,,,11.0,,,,,1.0,,,,,,,,,,,,,,,,,,,,,,,,,,,43.0,1.5,,,,,,
64,,feedback,,html-keyboard-response,64,142288,0.0-1.0-13.0-0.0-3.0-0.0,0,0,44248,,,,,,11.0,,,,,1.0,,,,,,,,,,,,,,,,,,,,,,,,,,,44.0,1.0,,,,,,
65,,iti,,html-keyboard-response,65,143291,0.0-1.0-13.0-0.0-5.0,0,0,44248,,,,,,11.0,,,,,1.0,,,,,,,,,,,,,,,,,,,,,,,,,,,45.0,1.0,,,,,,
66,,choice,,html-keyboard-response,66,143924,0.0-1.0-14.0-0.0-0.0,0,0,44248,,630.0,,,75.0,12.0,12.0,2000.0,1000.0,0.0,1.0,0.0,40-60,,0.0,key chain,sofa,40.0,60.0,key chain13,sofa6,60.0,80.0,Fancy_Liquid_Column_Shape_Key_Ring_with_Floater.jpg,wilkie-sofa-250h-new-cd.jpg,/static/Category_learning/Stimuli/Experimental_stims/key chain/Fancy_Liquid_Column_Shape_Key_Ring_with_Floater.jpg,/static/Category_learning/Stimuli/Experimental_stims/sofa/wilkie-sofa-250h-new-cd.jpg,0.0,sofa,key chain,60.0,40.0,sofa6,key chain13,80.0,60.0,0.0,45.63,0.63,,,,,,
67,,confirmation,,html-keyboard-response,67,144797,0.0-1.0-14.0-0.0-1.0-0.0,0,0,44248,,,,,,12.0,,,,,1.0,,,,,,,,,,,,,,,,,,,,,,,,,,,46.5,0.87,,,,,,
68,,isi,,html-keyboard-response,68,146799,0.0-1.0-14.0-0.0-2.0,0,0,44248,,,,,,12.0,,,,,1.0,,,,,,,,,,,,,,,,,,,,,,,,,,,48.5,2.0,,,,,,
69,,feedback,,html-keyboard-response,69,147807,0.0-1.0-14.0-0.0-3.0-0.0,0,0,44248,,,,,,12.0,,,,,1.0,,,,,,,,,,,,,,,,,,,,,,,,,,,49.5,1.0,,,,,,
70,,iti,,html-keyboard-response,70,148810,0.0-1.0-14.0-0.0-5.0,0,0,44248,,,,,,12.0,,,,,1.0,,,,,,,,,,,,,,,,,,,,,,,,,,,50.5,1.0,,,,,,
71,,choice,,html-keyboard-response,71,149700,0.0-1.0-15.0-0.0-0.0,0,0,44248,,887.0,,,75.0,13.0,13.0,1000.0,1000.0,0.0,1.0,0.0,40-80,,1.0,stool,motorcycle,80.0,40.0,stool7,motorcycle7,80.0,20.0,ASTOOL25.jpg,MotoSmall.jpg,/static/Category_learning/Stimuli/Experimental_stims/stool/ASTOOL25.jpg,/static/Category_learning/Stimuli/Experimental_stims/motorcycle/MotoSmall.jpg,0.0,motorcycle,stool,40.0,80.0,motorcycle7,stool7,20.0,80.0,0.0,51.387,0.887,,,,,,
72,,confirmation,,html-keyboard-response,72,150316,0.0-1.0-15.0-0.0-1.0-0.0,0,0,44248,,,,,,13.0,,,,,1.0,,,,,,,,,,,,,,,,,,,,,,,,,,,52.0,0.613,,,,,,
73,,isi,,html-keyboard-response,73,151321,0.0-1.0-15.0-0.0-2.0,0,0,44248,,,,,,13.0,,,,,1.0,,,,,,,,,,,,,,,,,,,,,,,,,,,53.0,1.0,,,,,,
74,,feedback,,html-keyboard-response,74,152323,0.0-1.0-15.0-0.0-3.0-0.0,0,0,44248,,,,,,13.0,,,,,1.0,,,,,,,,,,,,,,,,,,,,,,,,,,,54.0,1.0,,,,,,
75,,iti,,html-keyboard-response,75,153327,0.0-1.0-15.0-0.0-5.0,0,0,44248,,,,,,13.0,,,,,1.0,,,,,,,,,,,,,,,,,,,,,,,,,,,55.0,1.0,,,,,,
76,,choice,,html-keyboard-response,76,153835,0.0-1.0-16.0-0.0-0.0,0,0,44248,,506.0,,,68.0,14.0,14.0,1500.0,1000.0,0.0,1.0,0.0,40-80,,1.0,tent,hat,80.0,40.0,tent1,hat13,100.0,20.0,Atent8.jpg,Ahatwithfeath.jpg,/static/Category_learning/Stimuli/Experimental_stims/tent/Atent8.jpg,/static/Category_learning/Stimuli/Experimental_stims/hat/Ahatwithfeath.jpg,1.0,tent,hat,80.0,40.0,tent1,hat13,100.0,20.0,0.0,55.506,0.506,,,,,,
77,,confirmation,,html-keyboard-response,77,154833,0.0-1.0-16.0-0.0-1.0-0.0,0,0,44248,,,,,,14.0,,,,,1.0,,,,,,,,,,,,,,,,,,,,,,,,,,,56.5,0.994,,,,,,
78,,isi,,html-keyboard-response,78,156335,0.0-1.0-16.0-0.0-2.0,0,0,44248,,,,,,14.0,,,,,1.0,,,,,,,,,,,,,,,,,,,,,,,,,,,58.0,1.5,,,,,,
79,,feedback,,html-keyboard-response,79,157338,0.0-1.0-16.0-0.0-3.0-0.0,0,0,44248,,,,,,14.0,,,,,1.0,,,,,,,,,,,,,,,,,,,,,,,,,,,59.0,1.0,,,,,,
80,,iti,,html-keyboard-response,80,158341,0.0-1.0-16.0-0.0-5.0,0,0,44248,,,,,,14.0,,,,,1.0,,,,,,,,,,,,,,,,,,,,,,,,,,,60.0,1.0,,,,,,
81,,choice,,html-keyboard-response,81,158811,0.0-1.0-17.0-0.0-0.0,0,0,44248,,468.0,,,75.0,15.0,15.0,2000.0,1000.0,0.0,1.0,0.0,60-80,,0.0,necklace,watch,60.0,80.0,necklace3,watch13,60.0,80.0,26388201.thl.jpg,RS_3104_lrg.jpg,/static/Category_learning/Stimuli/Experimental_stims/necklace/26388201.thl.jpg,/static/Category_learning/Stimuli/Experimental_stims/watch/RS_3104_lrg.jpg,0.0,watch,necklace,80.0,60.0,watch13,necklace3,80.0,60.0,0.0,60.468,0.468,,,,,,
82,,confirmation,,html-keyboard-response,82,159846,0.0-1.0-17.0-0.0-1.0-0.0,0,0,44248,,,,,,15.0,,,,,1.0,,,,,,,,,,,,,,,,,,,,,,,,,,,61.5,1.032,,,,,,
83,,isi,,html-keyboard-response,83,161849,0.0-1.0-17.0-0.0-2.0,0,0,44248,,,,,,15.0,,,,,1.0,,,,,,,,,,,,,,,,,,,,,,,,,,,63.5,2.0,,,,,,
84,,feedback,,html-keyboard-response,84,162852,0.0-1.0-17.0-0.0-3.0-0.0,0,0,44248,,,,,,15.0,,,,,1.0,,,,,,,,,,,,,,,,,,,,,,,,,,,64.5,1.0,,,,,,
85,,iti,,html-keyboard-response,85,163854,0.0-1.0-17.0-0.0-5.0,0,0,44248,,,,,,15.0,,,,,1.0,,,,,,,,,,,,,,,,,,,,,,,,,,,65.5,1.0,,,,,,
86,,choice,,html-keyboard-response,86,164443,0.0-1.0-18.0-0.0-0.0,0,0,44248,,587.0,,,68.0,16.0,16.0,3500.0,1000.0,0.0,1.0,1.0,60-80,0.0,,tent,power strip,80.0,60.0,tent1,power strip12,100.0,80.0,Atent8.jpg,41CXESEH1TL._AA262_.jpg,/static/Category_learning/Stimuli/Experimental_stims/tent/Atent8.jpg,/static/Category_learning/Stimuli/Experimental_stims/power strip/41CXESEH1TL._AA262_.jpg,1.0,tent,power strip,80.0,60.0,tent1,power strip12,100.0,80.0,0.0,66.087,0.587,,,,,,
87,,confirmation,,html-keyboard-response,87,165359,0.0-1.0-18.0-0.0-1.0-0.0,0,0,44248,,,,,,16.0,,,,,1.0,,,,,,,,,,,,,,,,,,,,,,,,,,,67.0,0.913,,,,,,
88,,isi,,html-keyboard-response,88,168861,0.0-1.0-18.0-0.0-2.0,0,0,44248,,,,,,16.0,,,,,1.0,,,,,,,,,,,,,,,,,,,,,,,,,,,70.5,3.5,,,,,,
89,,feedback,,html-keyboard-response,89,169864,0.0-1.0-18.0-0.0-3.0-0.0,0,0,44248,,,,,,16.0,,,,,1.0,,,,,,,,,,,,,,,,,,,,,,,,,,,71.5,1.0,,,,,,
90,,iti,,html-keyboard-response,90,170866,0.0-1.0-18.0-0.0-5.0,0,0,44248,,,,,,16.0,,,,,1.0,,,,,,,,,,,,,,,,,,,,,,,,,,,72.5,1.0,,,,,,
91,,choice,,html-keyboard-response,91,171443,0.0-1.0-19.0-0.0-0.0,0,0,44248,,575.0,,,75.0,17.0,17.0,3500.0,2000.0,0.0,1.0,0.0,20-20,,,flashlight,bowl,20.0,20.0,flashlight5,bowl12,0.0,20.0,Streamlight-71001-Jr-Flashlight-W-batteries-black-B00018A3CG-L.jpg,Abowl52.jpg,/static/Category_learning/Stimuli/Experimental_stims/flashlight/Streamlight-71001-Jr-Flashlight-W-batteries-black-B00018A3CG-L.jpg,/static/Category_learning/Stimuli/Experimental_stims/bowl/Abowl52.jpg,0.0,bowl,flashlight,20.0,20.0,bowl12,flashlight5,20.0,0.0,0.0,73.075,0.575,,,,,,
92,,confirmation,,html-keyboard-response,92,172372,0.0-1.0-19.0-0.0-1.0-0.0,0,0,44248,,,,,,17.0,,,,,1.0,,,,,,,,,,,,,,,,,,,,,,,,,,,74.0,0.925,,,,,,
93,,isi,,html-keyboard-response,93,175874,0.0-1.0-19.0-0.0-2.0,0,0,44248,,,,,,17.0,,,,,1.0,,,,,,,,,,,,,,,,,,,,,,,,,,,77.5,3.5,,,,,,
94,,feedback,,html-keyboard-response,94,176877,0.0-1.0-19.0-0.0-3.0-0.0,0,0,44248,,,,,,17.0,,,,,1.0,,,,,,,,,,,,,,,,,,,,,,,,,,,78.5,1.0,,,,,,
95,,iti,,html-keyboard-response,95,178880,0.0-1.0-19.0-0.0-5.0,0,0,44248,,,,,,17.0,,,,,1.0,,,,,,,,,,,,,,,,,,,,,,,,,,,80.5,2.0,,,,,,
96,,choice,,html-keyboard-response,96,179204,0.0-1.0-20.0-0.0-0.0,0,0,44248,,321.0,,,68.0,18.0,18.0,1500.0,1500.0,0.0,1.0,1.0,20-40,0.0,,motorcycle,bowl,40.0,20.0,motorcycle7,bowl12,20.0,20.0,MotoSmall.jpg,Abowl52.jpg,/static/Category_learning/Stimuli/Experimental_stims/motorcycle/MotoSmall.jpg,/static/Category_learning/Stimuli/Experimental_stims/bowl/Abowl52.jpg,1.0,motorcycle,bowl,40.0,20.0,motorcycle7,bowl12,20.0,20.0,0.0,80.821,0.321,,,,,,
97,,confirmation,,html-keyboard-response,97,180386,0.0-1.0-20.0-0.0-1.0-0.0,0,0,44248,,,,,,18.0,,,,,1.0,,,,,,,,,,,,,,,,,,,,,,,,,,,82.0,1.179,,,,,,
98,,isi,,html-keyboard-response,98,181888,0.0-1.0-20.0-0.0-2.0,0,0,44248,,,,,,18.0,,,,,1.0,,,,,,,,,,,,,,,,,,,,,,,,,,,83.5,1.5,,,,,,
99,,feedback,,html-keyboard-response,99,182895,0.0-1.0-20.0-0.0-3.0-0.0,0,0,44248,,,,,,18.0,,,,,1.0,,,,,,,,,,,,,,,,,,,,,,,,,,,84.5,1.0,,,,,,
100,,iti,,html-keyboard-response,100,184398,0.0-1.0-20.0-0.0-5.0,0,0,44248,,,,,,18.0,,,,,1.0,,,,,,,,,,,,,,,,,,,,,,,,,,,86.0,1.5,,,,,,
101,,choice,,html-keyboard-response,101,185060,0.0-1.0-21.0-0.0-0.0,0,0,44248,,659.0,,,75.0,19.0,19.0,1000.0,2000.0,0.0,1.0,0.0,40-40,,,frame,license plate,40.0,40.0,frame8,license plate14,60.0,40.0,AFRAME154.jpg,fl-hel-bel.jpg,/static/Category_learning/Stimuli/Experimental_stims/frame/AFRAME154.jpg,/static/Category_learning/Stimuli/Experimental_stims/license plate/fl-hel-bel.jpg,0.0,license plate,frame,40.0,40.0,license plate14,frame8,40.0,60.0,0.0,86.659,0.659,,,,,,
102,,confirmation,,html-keyboard-response,102,185905,0.0-1.0-21.0-0.0-1.0-0.0,0,0,44248,,,,,,19.0,,,,,1.0,,,,,,,,,,,,,,,,,,,,,,,,,,,87.5,0.841,,,,,,
103,,isi,,html-keyboard-response,103,186909,0.0-1.0-21.0-0.0-2.0,0,0,44248,,,,,,19.0,,,,,1.0,,,,,,,,,,,,,,,,,,,,,,,,,,,88.5,1.0,,,,,,
104,,feedback,,html-keyboard-response,104,187912,0.0-1.0-21.0-0.0-3.0-0.0,0,0,44248,,,,,,19.0,,,,,1.0,,,,,,,,,,,,,,,,,,,,,,,,,,,89.5,1.0,,,,,,
105,,iti,,html-keyboard-response,105,189914,0.0-1.0-21.0-0.0-5.0,0,0,44248,,,,,,19.0,,,,,1.0,,,,,,,,,,,,,,,,,,,,,,,,,,,91.5,2.0,,,,,,
106,,choice,,html-keyboard-response,106,190563,0.0-1.0-22.0-0.0-0.0,0,0,44248,,647.0,,,68.0,20.0,20.0,1000.0,1000.0,0.0,1.0,0.0,20-80,,1.0,vase,desk,80.0,20.0,vase3,desk14,80.0,0.0,vase-006af-1.jpg,26419960.thl.jpg,/static/Category_learning/Stimuli/Experimental_stims/vase/vase-006af-1.jpg,/static/Category_learning/Stimuli/Experimental_stims/desk/26419960.thl.jpg,1.0,vase,desk,80.0,20.0,vase3,desk14,80.0,0.0,0.0,92.147,0.647,,,,,,
107,,confirmation,,html-keyboard-response,107,191419,0.0-1.0-22.0-0.0-1.0-0.0,0,0,44248,,,,,,20.0,,,,,1.0,,,,,,,,,,,,,,,,,,,,,,,,,,,93.0,0.853,,,,,,
108,,isi,,html-keyboard-response,108,192422,0.0-1.0-22.0-0.0-2.0,0,0,44248,,,,,,20.0,,,,,1.0,,,,,,,,,,,,,,,,,,,,,,,,,,,94.0,1.0,,,,,,
109,,feedback,,html-keyboard-response,109,193425,0.0-1.0-22.0-0.0-3.0-0.0,0,0,44248,,,,,,20.0,,,,,1.0,,,,,,,,,,,,,,,,,,,,,,,,,,,95.0,1.0,,,,,,
110,,iti,,html-keyboard-response,110,194428,0.0-1.0-22.0-0.0-5.0,0,0,44248,,,,,,20.0,,,,,1.0,,,,,,,,,,,,,,,,,,,,,,,,,,,96.0,1.0,,,,,,
111,,choice,,html-keyboard-response,111,195180,0.0-1.0-23.0-0.0-0.0,0,0,44248,,748.0,,,75.0,21.0,21.0,1500.0,2000.0,0.0,1.0,0.0,40-60,,1.0,power strip,frame,60.0,40.0,power strip5,frame1,40.0,20.0,93e4a283-bcd6-4ad1-8add-339658cda0fc_400.jpg,AFRAME127.jpg,/static/Category_learning/Stimuli/Experimental_stims/power strip/93e4a283-bcd6-4ad1-8add-339658cda0fc_400.jpg,/static/Category_learning/Stimuli/Experimental_stims/frame/AFRAME127.jpg,0.0,frame,power strip,40.0,60.0,frame1,power strip5,20.0,40.0,0.0,96.748,0.748,,,,,,
112,,confirmation,,html-keyboard-response,112,195935,0.0-1.0-23.0-0.0-1.0-0.0,0,0,44248,,,,,,21.0,,,,,1.0,,,,,,,,,,,,,,,,,,,,,,,,,,,97.5,0.752,,,,,,
113,,isi,,html-keyboard-response,113,197437,0.0-1.0-23.0-0.0-2.0,0,0,44248,,,,,,21.0,,,,,1.0,,,,,,,,,,,,,,,,,,,,,,,,,,,99.0,1.5,,,,,,
114,,feedback,,html-keyboard-response,114,198441,0.0-1.0-23.0-0.0-3.0-0.0,0,0,44248,,,,,,21.0,,,,,1.0,,,,,,,,,,,,,,,,,,,,,,,,,,,100.0,1.0,,,,,,
115,,iti,,html-keyboard-response,115,200444,0.0-1.0-23.0-0.0-5.0,0,0,44248,,,,,,21.0,,,,,1.0,,,,,,,,,,,,,,,,,,,,,,,,,,,102.0,2.0,,,,,,
116,,choice,,html-keyboard-response,116,201155,0.0-1.0-24.0-0.0-0.0,0,0,44248,,707.0,,,68.0,22.0,22.0,2000.0,1000.0,0.0,1.0,1.0,40-60,0.0,,sofa,license plate,60.0,40.0,sofa6,license plate14,80.0,40.0,wilkie-sofa-250h-new-cd.jpg,fl-hel-bel.jpg,/static/Category_learning/Stimuli/Experimental_stims/sofa/wilkie-sofa-250h-new-cd.jpg,/static/Category_learning/Stimuli/Experimental_stims/license plate/fl-hel-bel.jpg,1.0,sofa,license plate,60.0,40.0,sofa6,license plate14,80.0,40.0,0.0,102.707,0.707,,,,,,
117,,confirmation,,html-keyboard-response,117,201952,0.0-1.0-24.0-0.0-1.0-0.0,0,0,44248,,,,,,22.0,,,,,1.0,,,,,,,,,,,,,,,,,,,,,,,,,,,103.5,0.793,,,,,,
118,,isi,,html-keyboard-response,118,203955,0.0-1.0-24.0-0.0-2.0,0,0,44248,,,,,,22.0,,,,,1.0,,,,,,,,,,,,,,,,,,,,,,,,,,,105.5,2.0,,,,,,
119,,feedback,,html-keyboard-response,119,204958,0.0-1.0-24.0-0.0-3.0-0.0,0,0,44248,,,,,,22.0,,,,,1.0,,,,,,,,,,,,,,,,,,,,,,,,,,,106.5,1.0,,,,,,
120,,iti,,html-keyboard-response,120,205961,0.0-1.0-24.0-0.0-5.0,0,0,44248,,,,,,22.0,,,,,1.0,,,,,,,,,,,,,,,,,,,,,,,,,,,107.5,1.0,,,,,,
121,,choice,,html-keyboard-response,121,206963,0.0-1.0-25.0-0.0-0.0,0,0,44248,,1000.0,,,75.0,23.0,23.0,1000.0,1000.0,0.0,1.0,0.0,40-60,,0.0,lipstick,small table,40.0,60.0,lipstick7,small table5,60.0,80.0,P101401_hero.jpg,Atable145.jpg,/static/Category_learning/Stimuli/Experimental_stims/lipstick/P101401_hero.jpg,/static/Category_learning/Stimuli/Experimental_stims/small table/Atable145.jpg,0.0,small table,lipstick,60.0,40.0,small table5,lipstick7,80.0,60.0,0.0,108.5,1.0,,,,,,
122,,confirmation,,html-keyboard-response,122,207466,0.0-1.0-25.0-0.0-1.0-0.0,0,0,44248,,,,,,23.0,,,,,1.0,,,,,,,,,,,,,,,,,,,,,,,,,,,109.0,0.5,,,,,,
123,,isi,,html-keyboard-response,123,208469,0.0-1.0-25.0-0.0-2.0,0,0,44248,,,,,,23.0,,,,,1.0,,,,,,,,,,,,,,,,,,,,,,,,,,,110.0,1.0,,,,,,
124,,feedback,,html-keyboard-response,124,209472,0.0-1.0-25.0-0.0-3.0-0.0,0,0,44248,,,,,,23.0,,,,,1.0,,,,,,,,,,,,,,,,,,,,,,,,,,,111.0,1.0,,,,,,
125,,iti,,html-keyboard-response,125,210474,0.0-1.0-25.0-0.0-5.0,0,0,44248,,,,,,23.0,,,,,1.0,,,,,,,,,,,,,,,,,,,,,,,,,,,112.0,1.0,,,,,,
126,,choice,,html-keyboard-response,126,211115,0.0-1.0-26.0-0.0-0.0,0,0,44248,,639.0,,,68.0,24.0,24.0,3000.0,1500.0,0.0,1.0,0.0,20-80,,1.0,yarn,bowl,80.0,20.0,yarn4,bowl6,60.0,20.0,amethyst dreaming boho hy sml.jpg,Abowl59.jpg,/static/Category_learning/Stimuli/Experimental_stims/yarn/amethyst dreaming boho hy sml.jpg,/static/Category_learning/Stimuli/Experimental_stims/bowl/Abowl59.jpg,1.0,yarn,bowl,80.0,20.0,yarn4,bowl6,60.0,20.0,0.0,112.639,0.639,,,,,,
127,,confirmation,,html-keyboard-response,127,211980,0.0-1.0-26.0-0.0-1.0-0.0,0,0,44248,,,,,,24.0,,,,,1.0,,,,,,,,,,,,,,,,,,,,,,,,,,,113.5,0.861,,,,,,
128,,isi,,html-keyboard-response,128,214982,0.0-1.0-26.0-0.0-2.0,0,0,44248,,,,,,24.0,,,,,1.0,,,,,,,,,,,,,,,,,,,,,,,,,,,116.5,3.0,,,,,,
129,,feedback,,html-keyboard-response,129,215985,0.0-1.0-26.0-0.0-3.0-0.0,0,0,44248,,,,,,24.0,,,,,1.0,,,,,,,,,,,,,,,,,,,,,,,,,,,117.5,1.0,,,,,,
130,,iti,,html-keyboard-response,130,217487,0.0-1.0-26.0-0.0-5.0,0,0,44248,,,,,,24.0,,,,,1.0,,,,,,,,,,,,,,,,,,,,,,,,,,,119.0,1.5,,,,,,
131,,choice,,html-keyboard-response,131,218123,0.0-1.0-27.0-0.0-0.0,0,0,44248,,633.0,,,75.0,25.0,25.0,1000.0,2000.0,0.0,1.0,0.0,80-80,,,watch,trumpet,80.0,80.0,watch10,trumpet9,100.0,80.0,HEU0102124_zoom.jpg,trumpet3.jpg,/static/Category_learning/Stimuli/Experimental_stims/watch/HEU0102124_zoom.jpg,/static/Category_learning/Stimuli/Experimental_stims/trumpet/trumpet3.jpg,0.0,trumpet,watch,80.0,80.0,trumpet9,watch10,80.0,100.0,0.0,119.633,0.633,,,,,,
132,,confirmation,,html-keyboard-response,132,218993,0.0-1.0-27.0-0.0-1.0-0.0,0,0,44248,,,,,,25.0,,,,,1.0,,,,,,,,,,,,,,,,,,,,,,,,,,,120.5,0.867,,,,,,
133,,isi,,html-keyboard-response,133,219999,0.0-1.0-27.0-0.0-2.0,0,0,44248,,,,,,25.0,,,,,1.0,,,,,,,,,,,,,,,,,,,,,,,,,,,121.5,1.0,,,,,,
134,,feedback,,html-keyboard-response,134,221002,0.0-1.0-27.0-0.0-3.0-0.0,0,0,44248,,,,,,25.0,,,,,1.0,,,,,,,,,,,,,,,,,,,,,,,,,,,122.5,1.0,,,,,,
135,,iti,,html-keyboard-response,135,223005,0.0-1.0-27.0-0.0-5.0,0,0,44248,,,,,,25.0,,,,,1.0,,,,,,,,,,,,,,,,,,,,,,,,,,,124.5,2.0,,,,,,
136,,choice,,html-keyboard-response,136,223595,0.0-1.0-28.0-0.0-0.0,0,0,44248,,588.0,,,68.0,26.0,26.0,2000.0,1000.0,0.0,1.0,1.0,80-80,0.0,,vase,watch,80.0,80.0,vase3,watch13,80.0,80.0,vase-006af-1.jpg,RS_3104_lrg.jpg,/static/Category_learning/Stimuli/Experimental_stims/vase/vase-006af-1.jpg,/static/Category_learning/Stimuli/Experimental_stims/watch/RS_3104_lrg.jpg,1.0,vase,watch,80.0,80.0,vase3,watch13,80.0,80.0,0.0,125.088,0.588,,,,,,
137,,confirmation,,html-keyboard-response,137,224511,0.0-1.0-28.0-0.0-1.0-0.0,0,0,44248,,,,,,26.0,,,,,1.0,,,,,,,,,,,,,,,,,,,,,,,,,,,126.0,0.912,,,,,,
138,,isi,,html-keyboard-response,138,226513,0.0-1.0-28.0-0.0-2.0,0,0,44248,,,,,,26.0,,,,,1.0,,,,,,,,,,,,,,,,,,,,,,,,,,,128.0,2.0,,,,,,
139,,feedback,,html-keyboard-response,139,227517,0.0-1.0-28.0-0.0-3.0-0.0,0,0,44248,,,,,,26.0,,,,,1.0,,,,,,,,,,,,,,,,,,,,,,,,,,,129.0,1.0,,,,,,
140,,iti,,html-keyboard-response,140,228520,0.0-1.0-28.0-0.0-5.0,0,0,44248,,,,,,26.0,,,,,1.0,,,,,,,,,,,,,,,,,,,,,,,,,,,130.0,1.0,,,,,,
141,,choice,,html-keyboard-response,141,229203,0.0-1.0-29.0-0.0-0.0,0,0,44248,,680.0,,,75.0,27.0,27.0,3000.0,1500.0,0.0,1.0,0.0,80-80,,,stool,yarn,80.0,80.0,stool12,yarn7,80.0,100.0,henrybar_stool1.jpg,herb garden hy smaller.jpg,/static/Category_learning/Stimuli/Experimental_stims/stool/henrybar_stool1.jpg,/static/Category_learning/Stimuli/Experimental_stims/yarn/herb garden hy smaller.jpg,0.0,yarn,stool,80.0,80.0,yarn7,stool12,100.0,80.0,0.0,130.68,0.68,,,,,,
142,,confirmation,,html-keyboard-response,142,230026,0.0-1.0-29.0-0.0-1.0-0.0,0,0,44248,,,,,,27.0,,,,,1.0,,,,,,,,,,,,,,,,,,,,,,,,,,,131.5,0.82,,,,,,
143,,isi,,html-keyboard-response,143,233028,0.0-1.0-29.0-0.0-2.0,0,0,44248,,,,,,27.0,,,,,1.0,,,,,,,,,,,,,,,,,,,,,,,,,,,134.5,3.0,,,,,,
144,,feedback,,html-keyboard-response,144,234031,0.0-1.0-29.0-0.0-3.0-0.0,0,0,44248,,,,,,27.0,,,,,1.0,,,,,,,,,,,,,,,,,,,,,,,,,,,135.5,1.0,,,,,,
145,,iti,,html-keyboard-response,145,235533,0.0-1.0-29.0-0.0-5.0,0,0,44248,,,,,,27.0,,,,,1.0,,,,,,,,,,,,,,,,,,,,,,,,,,,137.0,1.5,,,,,,
146,,choice,,html-keyboard-response,146,236475,0.0-1.0-30.0-0.0-0.0,0,0,44248,,939.0,,,68.0,28.0,28.0,2000.0,1500.0,0.0,1.0,0.0,40-60,,1.0,patio lounge chair,makeup compact,60.0,40.0,patio lounge chair6,makeup compact5,60.0,60.0,Lounge_Chair_with_Pillow.jpg,P109965_hero.jpg,/static/Category_learning/Stimuli/Experimental_stims/patio lounge chair/Lounge_Chair_with_Pillow.jpg,/static/Category_learning/Stimuli/Experimental_stims/makeup compact/P109965_hero.jpg,1.0,patio lounge chair,makeup compact,60.0,40.0,patio lounge chair6,makeup compact5,60.0,60.0,0.0,137.939,0.939,,,,,,
147,,confirmation,,html-keyboard-response,147,237040,0.0-1.0-30.0-0.0-1.0-0.0,0,0,44248,,,,,,28.0,,,,,1.0,,,,,,,,,,,,,,,,,,,,,,,,,,,138.5,0.561,,,,,,
148,,isi,,html-keyboard-response,148,239043,0.0-1.0-30.0-0.0-2.0,0,0,44248,,,,,,28.0,,,,,1.0,,,,,,,,,,,,,,,,,,,,,,,,,,,140.5,2.0,,,,,,
149,,feedback,,html-keyboard-response,149,240047,0.0-1.0-30.0-0.0-3.0-0.0,0,0,44248,,,,,,28.0,,,,,1.0,,,,,,,,,,,,,,,,,,,,,,,,,,,141.5,1.0,,,,,,
150,,iti,,html-keyboard-response,150,241551,0.0-1.0-30.0-0.0-5.0,0,0,44248,,,,,,28.0,,,,,1.0,,,,,,,,,,,,,,,,,,,,,,,,,,,143.0,1.5,,,,,,
151,,choice,,html-keyboard-response,151,242459,0.0-1.0-31.0-0.0-0.0,0,0,44248,,906.0,,,75.0,29.0,29.0,1000.0,3500.0,0.0,1.0,0.0,40-80,,0.0,license plate,tape,40.0,80.0,license plate12,tape7,20.0,80.0,TurtleLicensePlate.jpg,tape dispenser.jpg,/static/Category_learning/Stimuli/Experimental_stims/license plate/TurtleLicensePlate.jpg,/static/Category_learning/Stimuli/Experimental_stims/tape/tape dispenser.jpg,0.0,tape,license plate,80.0,40.0,tape7,license plate12,80.0,20.0,0.0,143.906,0.906,,,,,,
152,,confirmation,,html-keyboard-response,152,243057,0.0-1.0-31.0-0.0-1.0-0.0,0,0,44248,,,,,,29.0,,,,,1.0,,,,,,,,,,,,,,,,,,,,,,,,,,,144.5,0.594,,,,,,
153,,isi,,html-keyboard-response,153,244060,0.0-1.0-31.0-0.0-2.0,0,0,44248,,,,,,29.0,,,,,1.0,,,,,,,,,,,,,,,,,,,,,,,,,,,145.5,1.0,,,,,,
154,,feedback,,html-keyboard-response,154,245065,0.0-1.0-31.0-0.0-3.0-0.0,0,0,44248,,,,,,29.0,,,,,1.0,,,,,,,,,,,,,,,,,,,,,,,,,,,146.5,1.0,,,,,,
155,,iti,,html-keyboard-response,155,248567,0.0-1.0-31.0-0.0-5.0,0,0,44248,,,,,,29.0,,,,,1.0,,,,,,,,,,,,,,,,,,,,,,,,,,,150.0,3.5,,,,,,
156,,choice,,html-keyboard-response,156,249451,0.0-1.0-32.0-0.0-0.0,0,0,44248,,881.0,,,68.0,30.0,30.0,1000.0,1000.0,0.0,1.0,0.0,20-80,,0.0,desk,yarn,20.0,80.0,desk10,yarn3,20.0,100.0,MEX028.jpg,Aballofblueya.jpg,/static/Category_learning/Stimuli/Experimental_stims/desk/MEX028.jpg,/static/Category_learning/Stimuli/Experimental_stims/yarn/Aballofblueya.jpg,1.0,desk,yarn,20.0,80.0,desk10,yarn3,20.0,100.0,0.0,150.881,0.881,,,,,,
157,,confirmation,,html-keyboard-response,157,250073,0.0-1.0-32.0-0.0-1.0-0.0,0,0,44248,,,,,,30.0,,,,,1.0,,,,,,,,,,,,,,,,,,,,,,,,,,,151.5,0.619,,,,,,
158,,isi,,html-keyboard-response,158,251075,0.0-1.0-32.0-0.0-2.0,0,0,44248,,,,,,30.0,,,,,1.0,,,,,,,,,,,,,,,,,,,,,,,,,,,152.5,1.0,,,,,,
159,,feedback,,html-keyboard-response,159,252078,0.0-1.0-32.0-0.0-3.0-0.0,0,0,44248,,,,,,30.0,,,,,1.0,,,,,,,,,,,,,,,,,,,,,,,,,,,153.5,1.0,,,,,,
160,,iti,,html-keyboard-response,160,253080,0.0-1.0-32.0-0.0-5.0,0,0,44248,,,,,,30.0,,,,,1.0,,,,,,,,,,,,,,,,,,,,,,,,,,,154.5,1.0,,,,,,
161,,choice,,html-keyboard-response,161,253763,0.0-1.0-33.0-0.0-0.0,0,0,44248,,680.0,,,75.0,31.0,31.0,1500.0,3000.0,0.0,1.0,0.0,20-60,,0.0,fan,poker card,20.0,60.0,fan14,poker card15,40.0,40.0,124771_sk_lg.jpg,9816946.thl.jpg,/static/Category_learning/Stimuli/Experimental_stims/fan/124771_sk_lg.jpg,/static/Category_learning/Stimuli/Experimental_stims/poker card/9816946.thl.jpg,0.0,poker card,fan,60.0,20.0,poker card15,fan14,40.0,40.0,0.0,155.18,0.68,,,,,,
162,,confirmation,,html-keyboard-response,162,254585,0.0-1.0-33.0-0.0-1.0-0.0,0,0,44248,,,,,,31.0,,,,,1.0,,,,,,,,,,,,,,,,,,,,,,,,,,,156.0,0.82,,,,,,
163,,isi,,html-keyboard-response,163,256089,0.0-1.0-33.0-0.0-2.0,0,0,44248,,,,,,31.0,,,,,1.0,,,,,,,,,,,,,,,,,,,,,,,,,,,157.5,1.5,,,,,,
164,,feedback,,html-keyboard-response,164,257092,0.0-1.0-33.0-0.0-3.0-0.0,0,0,44248,,,,,,31.0,,,,,1.0,,,,,,,,,,,,,,,,,,,,,,,,,,,158.5,1.0,,,,,,
165,,iti,,html-keyboard-response,165,260095,0.0-1.0-33.0-0.0-5.0,0,0,44248,,,,,,31.0,,,,,1.0,,,,,,,,,,,,,,,,,,,,,,,,,,,161.5,3.0,,,,,,
166,,choice,,html-keyboard-response,166,260851,0.0-1.0-34.0-0.0-0.0,0,0,44248,,753.0,,,75.0,32.0,32.0,2000.0,2000.0,0.0,1.0,0.0,60-80,,0.0,nail polish,tape,60.0,80.0,nail polish11,tape10,80.0,60.0,Revlon_Super_Top_Speed_Chrome_Nail_Polish-resized200.jpg,26377601.thl.jpg,/static/Category_learning/Stimuli/Experimental_stims/nail polish/Revlon_Super_Top_Speed_Chrome_Nail_Polish-resized200.jpg,/static/Category_learning/Stimuli/Experimental_stims/tape/26377601.thl.jpg,0.0,tape,nail polish,80.0,60.0,tape10,nail polish11,60.0,80.0,0.0,162.253,0.753,,,,,,
167,,confirmation,,html-keyboard-response,167,261601,0.0-1.0-34.0-0.0-1.0-0.0,0,0,44248,,,,,,32.0,,,,,1.0,,,,,,,,,,,,,,,,,,,,,,,,,,,163.0,0.747,,,,,,
168,,isi,,html-keyboard-response,168,263605,0.0-1.0-34.0-0.0-2.0,0,0,44248,,,,,,32.0,,,,,1.0,,,,,,,,,,,,,,,,,,,,,,,,,,,165.0,2.0,,,,,,
169,,feedback,,html-keyboard-response,169,264608,0.0-1.0-34.0-0.0-3.0-0.0,0,0,44248,,,,,,32.0,,,,,1.0,,,,,,,,,,,,,,,,,,,,,,,,,,,166.0,1.0,,,,,,
170,,iti,,html-keyboard-response,170,266611,0.0-1.0-34.0-0.0-5.0,0,0,44248,,,,,,32.0,,,,,1.0,,,,,,,,,,,,,,,,,,,,,,,,,,,168.0,2.0,,,,,,
171,,choice,,html-keyboard-response,171,267443,0.0-1.0-35.0-0.0-0.0,0,0,44248,,829.0,,,75.0,33.0,33.0,1000.0,1000.0,0.0,1.0,0.0,20-60,,0.0,baby carriage,power strip,20.0,60.0,baby carriage5,power strip11,20.0,40.0,Baby_Stroller.jpg,41Bw7Tl1G7L._AA262_.jpg,/static/Category_learning/Stimuli/Experimental_stims/baby carriage/Baby_Stroller.jpg,/static/Category_learning/Stimuli/Experimental_stims/power strip/41Bw7Tl1G7L._AA262_.jpg,0.0,power strip,baby carriage,60.0,20.0,power strip11,baby carriage5,40.0,20.0,0.0,168.829,0.829,,,,,,
172,,confirmation,,html-keyboard-response,172,268117,0.0-1.0-35.0-0.0-1.0-0.0,0,0,44248,,,,,,33.0,,,,,1.0,,,,,,,,,,,,,,,,,,,,,,,,,,,169.5,0.671,,,,,,
173,,isi,,html-keyboard-response,173,269119,0.0-1.0-35.0-0.0-2.0,0,0,44248,,,,,,33.0,,,,,1.0,,,,,,,,,,,,,,,,,,,,,,,,,,,170.5,1.0,,,,,,
174,,feedback,,html-keyboard-response,174,270124,0.0-1.0-35.0-0.0-3.0-0.0,0,0,44248,,,,,,33.0,,,,,1.0,,,,,,,,,,,,,,,,,,,,,,,,,,,171.5,1.0,,,,,,
175,,iti,,html-keyboard-response,175,271125,0.0-1.0-35.0-0.0-5.0,0,0,44248,,,,,,33.0,,,,,1.0,,,,,,,,,,,,,,,,,,,,,,,,,,,172.5,1.0,,,,,,
176,,choice,,html-keyboard-response,176,271715,0.0-1.0-36.0-0.0-0.0,0,0,44248,,587.0,,,68.0,34.0,34.0,3500.0,1500.0,0.0,1.0,0.0,20-20,,,dresser,fan,20.0,20.0,dresser6,fan4,40.0,0.0,ADRESSE96.jpg,AFAN39.jpg,/static/Category_learning/Stimuli/Experimental_stims/dresser/ADRESSE96.jpg,/static/Category_learning/Stimuli/Experimental_stims/fan/AFAN39.jpg,1.0,dresser,fan,20.0,20.0,dresser6,fan4,40.0,0.0,0.0,173.087,0.587,,,,,,
177,,confirmation,,html-keyboard-response,177,272631,0.0-1.0-36.0-0.0-1.0-0.0,0,0,44248,,,,,,34.0,,,,,1.0,,,,,,,,,,,,,,,,,,,,,,,,,,,174.0,0.913,,,,,,
178,,isi,,html-keyboard-response,178,276133,0.0-1.0-36.0-0.0-2.0,0,0,44248,,,,,,34.0,,,,,1.0,,,,,,,,,,,,,,,,,,,,,,,,,,,177.5,3.5,,,,,,
179,,feedback,,html-keyboard-response,179,277136,0.0-1.0-36.0-0.0-3.0-0.0,0,0,44248,,,,,,34.0,,,,,1.0,,,,,,,,,,,,,,,,,,,,,,,,,,,178.5,1.0,,,,,,
180,,iti,,html-keyboard-response,180,278652,0.0-1.0-36.0-0.0-5.0,0,0,44248,,,,,,34.0,,,,,1.0,,,,,,,,,,,,,,,,,,,,,,,,,,,180.0,1.5,,,,,,
181,,choice,,html-keyboard-response,181,279370,0.0-1.0-37.0-0.0-0.0,0,0,44248,,715.0,,,75.0,35.0,35.0,1500.0,1500.0,0.0,1.0,0.0,20-80,,1.0,vase,bowl,80.0,20.0,vase9,bowl2,80.0,40.0,Avasewithang2.jpg,AMIXBOWL2.jpg,/static/Category_learning/Stimuli/Experimental_stims/vase/Avasewithang2.jpg,/static/Category_learning/Stimuli/Experimental_stims/bowl/AMIXBOWL2.jpg,0.0,bowl,vase,20.0,80.0,bowl2,vase9,40.0,80.0,0.0,180.715,0.715,,,,,,
182,,confirmation,,html-keyboard-response,182,280158,0.0-1.0-37.0-0.0-1.0-0.0,0,0,44248,,,,,,35.0,,,,,1.0,,,,,,,,,,,,,,,,,,,,,,,,,,,181.5,0.785,,,,,,
183,,isi,,html-keyboard-response,183,281661,0.0-1.0-37.0-0.0-2.0,0,0,44248,,,,,,35.0,,,,,1.0,,,,,,,,,,,,,,,,,,,,,,,,,,,183.0,1.5,,,,,,
184,,feedback,,html-keyboard-response,184,282663,0.0-1.0-37.0-0.0-3.0-0.0,0,0,44248,,,,,,35.0,,,,,1.0,,,,,,,,,,,,,,,,,,,,,,,,,,,184.0,1.0,,,,,,
185,,iti,,html-keyboard-response,185,284165,0.0-1.0-37.0-0.0-5.0,0,0,44248,,,,,,35.0,,,,,1.0,,,,,,,,,,,,,,,,,,,,,,,,,,,185.5,1.5,,,,,,
186,,choice,,html-keyboard-response,186,284930,0.0-1.0-38.0-0.0-0.0,0,0,44248,,763.0,,,75.0,36.0,36.0,2000.0,1000.0,0.0,1.0,0.0,40-40,,,hammer,lipstick,40.0,40.0,hammer12,lipstick14,20.0,60.0,24oz hammer.jpg,P109907_hero.jpg,/static/Category_learning/Stimuli/Experimental_stims/hammer/24oz hammer.jpg,/static/Category_learning/Stimuli/Experimental_stims/lipstick/P109907_hero.jpg,0.0,lipstick,hammer,40.0,40.0,lipstick14,hammer12,60.0,20.0,0.0,186.263,0.763,,,,,,
187,,confirmation,,html-keyboard-response,187,285670,0.0-1.0-38.0-0.0-1.0-0.0,0,0,44248,,,,,,36.0,,,,,1.0,,,,,,,,,,,,,,,,,,,,,,,,,,,187.0,0.737,,,,,,
188,,isi,,html-keyboard-response,188,287674,0.0-1.0-38.0-0.0-2.0,0,0,44248,,,,,,36.0,,,,,1.0,,,,,,,,,,,,,,,,,,,,,,,,,,,189.0,2.0,,,,,,
189,,feedback,,html-keyboard-response,189,288676,0.0-1.0-38.0-0.0-3.0-0.0,0,0,44248,,,,,,36.0,,,,,1.0,,,,,,,,,,,,,,,,,,,,,,,,,,,190.0,1.0,,,,,,
190,,iti,,html-keyboard-response,190,289679,0.0-1.0-38.0-0.0-5.0,0,0,44248,,,,,,36.0,,,,,1.0,,,,,,,,,,,,,,,,,,,,,,,,,,,191.0,1.0,,,,,,
191,,choice,,html-keyboard-response,191,290499,0.0-1.0-39.0-0.0-0.0,0,0,44248,,816.0,,,68.0,37.0,37.0,3000.0,2000.0,0.0,1.0,1.0,80-80,1.0,,yarn,yarn,80.0,80.0,yarn7,yarn4,100.0,60.0,herb garden hy smaller.jpg,amethyst dreaming boho hy sml.jpg,/static/Category_learning/Stimuli/Experimental_stims/yarn/herb garden hy smaller.jpg,/static/Category_learning/Stimuli/Experimental_stims/yarn/amethyst dreaming boho hy sml.jpg,1.0,yarn,yarn,80.0,80.0,yarn7,yarn4,100.0,60.0,0.0,191.816,0.816,,,,,,
192,,confirmation,,html-keyboard-response,192,291187,0.0-1.0-39.0-0.0-1.0-0.0,0,0,44248,,,,,,37.0,,,,,1.0,,,,,,,,,,,,,,,,,,,,,,,,,,,192.5,0.684,,,,,,
193,,isi,,html-keyboard-response,193,294190,0.0-1.0-39.0-0.0-2.0,0,0,44248,,,,,,37.0,,,,,1.0,,,,,,,,,,,,,,,,,,,,,,,,,,,195.5,3.0,,,,,,
194,,feedback,,html-keyboard-response,194,295193,0.0-1.0-39.0-0.0-3.0-0.0,0,0,44248,,,,,,37.0,,,,,1.0,,,,,,,,,,,,,,,,,,,,,,,,,,,196.5,1.0,,,,,,
195,,iti,,html-keyboard-response,195,297197,0.0-1.0-39.0-0.0-5.0,0,0,44248,,,,,,37.0,,,,,1.0,,,,,,,,,,,,,,,,,,,,,,,,,,,198.5,2.0,,,,,,
196,,choice,,html-keyboard-response,196,298074,0.0-1.0-40.0-0.0-0.0,0,0,44248,,875.0,,,68.0,38.0,38.0,1500.0,3000.0,0.0,1.0,0.0,20-60,,1.0,poker card,door knob,60.0,20.0,poker card13,door knob14,80.0,20.0,9817197.thl.jpg,500_CLANYKAB.jpg,/static/Category_learning/Stimuli/Experimental_stims/poker card/9817197.thl.jpg,/static/Category_learning/Stimuli/Experimental_stims/door knob/500_CLANYKAB.jpg,1.0,poker card,door knob,60.0,20.0,poker card13,door knob14,80.0,20.0,0.0,199.375,0.875,,,,,,
197,,confirmation,,html-keyboard-response,197,298702,0.0-1.0-40.0-0.0-1.0-0.0,0,0,44248,,,,,,38.0,,,,,1.0,,,,,,,,,,,,,,,,,,,,,,,,,,,200.0,0.625,,,,,,
198,,isi,,html-keyboard-response,198,300205,0.0-1.0-40.0-0.0-2.0,0,0,44248,,,,,,38.0,,,,,1.0,,,,,,,,,,,,,,,,,,,,,,,,,,,201.5,1.5,,,,,,
199,,feedback,,html-keyboard-response,199,301209,0.0-1.0-40.0-0.0-3.0-0.0,0,0,44248,,,,,,38.0,,,,,1.0,,,,,,,,,,,,,,,,,,,,,,,,,,,202.5,1.0,,,,,,
200,,iti,,html-keyboard-response,200,304211,0.0-1.0-40.0-0.0-5.0,0,0,44248,,,,,,38.0,,,,,1.0,,,,,,,,,,,,,,,,,,,,,,,,,,,205.5,3.0,,,,,,
201,,choice,,html-keyboard-response,201,304955,0.0-1.0-41.0-0.0-0.0,0,0,44248,,740.0,,,75.0,39.0,39.0,3500.0,1000.0,0.0,1.0,1.0,60-60,1.0,,poker card,poker card,60.0,60.0,poker card15,poker card13,40.0,80.0,9816946.thl.jpg,9817197.thl.jpg,/static/Category_learning/Stimuli/Experimental_stims/poker card/9816946.thl.jpg,/static/Category_learning/Stimuli/Experimental_stims/poker card/9817197.thl.jpg,0.0,poker card,poker card,60.0,60.0,poker card13,poker card15,80.0,40.0,0.0,206.24,0.74,,,,,,
202,,confirmation,,html-keyboard-response,202,305718,0.0-1.0-41.0-0.0-1.0-0.0,0,0,44248,,,,,,39.0,,,,,1.0,,,,,,,,,,,,,,,,,,,,,,,,,,,207.0,0.76,,,,,,
203,,isi,,html-keyboard-response,203,309222,0.0-1.0-41.0-0.0-2.0,0,0,44248,,,,,,39.0,,,,,1.0,,,,,,,,,,,,,,,,,,,,,,,,,,,210.5,3.5,,,,,,
204,,feedback,,html-keyboard-response,204,310224,0.0-1.0-41.0-0.0-3.0-0.0,0,0,44248,,,,,,39.0,,,,,1.0,,,,,,,,,,,,,,,,,,,,,,,,,,,211.5,1.0,,,,,,
205,,iti,,html-keyboard-response,205,311226,0.0-1.0-41.0-0.0-5.0,0,0,44248,,,,,,39.0,,,,,1.0,,,,,,,,,,,,,,,,,,,,,,,,,,,212.5,1.0,,,,,,
206,,choice,,html-keyboard-response,206,312218,0.0-1.0-42.0-0.0-0.0,0,0,44248,,989.0,,,75.0,40.0,40.0,2000.0,3000.0,0.0,1.0,1.0,80-80,1.0,,tape,tape,80.0,80.0,tape7,tape10,80.0,60.0,tape dispenser.jpg,26377601.thl.jpg,/static/Category_learning/Stimuli/Experimental_stims/tape/tape dispenser.jpg,/static/Category_learning/Stimuli/Experimental_stims/tape/26377601.thl.jpg,0.0,tape,tape,80.0,80.0,tape10,tape7,60.0,80.0,0.0,213.489,0.989,,,,,,
207,,confirmation,,html-keyboard-response,207,312734,0.0-1.0-42.0-0.0-1.0-0.0,0,0,44248,,,,,,40.0,,,,,1.0,,,,,,,,,,,,,,,,,,,,,,,,,,,214.0,0.511,,,,,,
208,,isi,,html-keyboard-response,208,314737,0.0-1.0-42.0-0.0-2.0,0,0,44248,,,,,,40.0,,,,,1.0,,,,,,,,,,,,,,,,,,,,,,,,,,,216.0,2.0,,,,,,
209,,feedback,,html-keyboard-response,209,315741,0.0-1.0-42.0-0.0-3.0-0.0,0,0,44248,,,,,,40.0,,,,,1.0,,,,,,,,,,,,,,,,,,,,,,,,,,,217.0,1.0,,,,,,
210,,iti,,html-keyboard-response,210,318743,0.0-1.0-42.0-0.0-5.0,0,0,44248,,,,,,40.0,,,,,1.0,,,,,,,,,,,,,,,,,,,,,,,,,,,220.0,3.0,,,,,,
211,,choice,,html-keyboard-response,211,319618,0.0-1.0-43.0-0.0-0.0,0,0,44248,,872.0,,,68.0,41.0,41.0,1000.0,1000.0,0.0,1.0,0.0,20-60,,1.0,small table,bongo,60.0,20.0,small table4,bongo9,40.0,20.0,ACOFTABLE.jpg,22946035.thl.jpg,/static/Category_learning/Stimuli/Experimental_stims/small table/ACOFTABLE.jpg,/static/Category_learning/Stimuli/Experimental_stims/bongo/22946035.thl.jpg,1.0,small table,bongo,60.0,20.0,small table4,bongo9,40.0,20.0,0.0,220.872,0.872,,,,,,
212,,confirmation,,html-keyboard-response,212,320251,0.0-1.0-43.0-0.0-1.0-0.0,0,0,44248,,,,,,41.0,,,,,1.0,,,,,,,,,,,,,,,,,,,,,,,,,,,221.5,0.628,,,,,,
213,,isi,,html-keyboard-response,213,321253,0.0-1.0-43.0-0.0-2.0,0,0,44248,,,,,,41.0,,,,,1.0,,,,,,,,,,,,,,,,,,,,,,,,,,,222.5,1.0,,,,,,
214,,feedback,,html-keyboard-response,214,322256,0.0-1.0-43.0-0.0-3.0-0.0,0,0,44248,,,,,,41.0,,,,,1.0,,,,,,,,,,,,,,,,,,,,,,,,,,,223.5,1.0,,,,,,
215,,iti,,html-keyboard-response,215,323258,0.0-1.0-43.0-0.0-5.0,0,0,44248,,,,,,41.0,,,,,1.0,,,,,,,,,,,,,,,,,,,,,,,,,,,224.5,1.0,,,,,,
216,,choice,,html-keyboard-response,216,324211,0.0-1.0-44.0-0.0-0.0,0,0,44248,,949.0,,,75.0,42.0,42.0,3500.0,1000.0,0.0,1.0,0.0,60-60,,,necklace,poker card,60.0,60.0,necklace2,poker card5,40.0,40.0,Anecklace7.jpg,22864800.thl.jpg,/static/Category_learning/Stimuli/Experimental_stims/necklace/Anecklace7.jpg,/static/Category_learning/Stimuli/Experimental_stims/poker card/22864800.thl.jpg,0.0,poker card,necklace,60.0,60.0,poker card5,necklace2,40.0,40.0,0.0,225.449,0.949,,,,,,
217,,confirmation,,html-keyboard-response,217,324765,0.0-1.0-44.0-0.0-1.0-0.0,0,0,44248,,,,,,42.0,,,,,1.0,,,,,,,,,,,,,,,,,,,,,,,,,,,226.0,0.551,,,,,,
218,,isi,,html-keyboard-response,218,328267,0.0-1.0-44.0-0.0-2.0,0,0,44248,,,,,,42.0,,,,,1.0,,,,,,,,,,,,,,,,,,,,,,,,,,,229.5,3.5,,,,,,
219,,feedback,,html-keyboard-response,219,329270,0.0-1.0-44.0-0.0-3.0-0.0,0,0,44248,,,,,,42.0,,,,,1.0,,,,,,,,,,,,,,,,,,,,,,,,,,,230.5,1.0,,,,,,
220,,iti,,html-keyboard-response,220,330272,0.0-1.0-44.0-0.0-5.0,0,0,44248,,,,,,42.0,,,,,1.0,,,,,,,,,,,,,,,,,,,,,,,,,,,231.5,1.0,,,,,,
221,,choice,,html-keyboard-response,221,331379,0.0-1.0-45.0-0.0-0.0,0,0,44248,,1104.0,,,75.0,43.0,43.0,2000.0,2000.0,0.0,1.0,0.0,40-60,,0.0,lipstick,power strip,40.0,60.0,lipstick10,power strip10,60.0,60.0,21K0D7QKFAL._SS500_.jpg,6bd437c9-6165-4d36-bf75-9a1038783c6a_400.jpg,/static/Category_learning/Stimuli/Experimental_stims/lipstick/21K0D7QKFAL._SS500_.jpg,/static/Category_learning/Stimuli/Experimental_stims/power strip/6bd437c9-6165-4d36-bf75-9a1038783c6a_400.jpg,0.0,power strip,lipstick,60.0,40.0,power strip10,lipstick10,60.0,60.0,0.0,232.604,1.104,,,,,,
222,,confirmation,,html-keyboard-response,222,331778,0.0-1.0-45.0-0.0-1.0-0.0,0,0,44248,,,,,,43.0,,,,,1.0,,,,,,,,,,,,,,,,,,,,,,,,,,,233.0,0.396,,,,,,
223,,isi,,html-keyboard-response,223,333780,0.0-1.0-45.0-0.0-2.0,0,0,44248,,,,,,43.0,,,,,1.0,,,,,,,,,,,,,,,,,,,,,,,,,,,235.0,2.0,,,,,,
224,,feedback,,html-keyboard-response,224,334783,0.0-1.0-45.0-0.0-3.0-0.0,0,0,44248,,,,,,43.0,,,,,1.0,,,,,,,,,,,,,,,,,,,,,,,,,,,236.0,1.0,,,,,,
225,,iti,,html-keyboard-response,225,336786,0.0-1.0-45.0-0.0-5.0,0,0,44248,,,,,,43.0,,,,,1.0,,,,,,,,,,,,,,,,,,,,,,,,,,,238.0,2.0,,,,,,
226,,choice,,html-keyboard-response,226,337562,0.0-1.0-46.0-0.0-0.0,0,0,44248,,774.0,,,68.0,44.0,44.0,1000.0,3000.0,0.0,1.0,1.0,60-60,1.0,,small table,small table,60.0,60.0,small table5,small table4,80.0,40.0,Atable145.jpg,ACOFTABLE.jpg,/static/Category_learning/Stimuli/Experimental_stims/small table/Atable145.jpg,/static/Category_learning/Stimuli/Experimental_stims/small table/ACOFTABLE.jpg,1.0,small table,small table,60.0,60.0,small table5,small table4,80.0,40.0,0.0,238.774,0.774,,,,,,
227,,confirmation,,html-keyboard-response,227,338292,0.0-1.0-46.0-0.0-1.0-0.0,0,0,44248,,,,,,44.0,,,,,1.0,,,,,,,,,,,,,,,,,,,,,,,,,,,239.5,0.726,,,,,,
228,,isi,,html-keyboard-response,228,339295,0.0-1.0-46.0-0.0-2.0,0,0,44248,,,,,,44.0,,,,,1.0,,,,,,,,,,,,,,,,,,,,,,,,,,,240.5,1.0,,,,,,
229,,feedback,,html-keyboard-response,229,340299,0.0-1.0-46.0-0.0-3.0-0.0,0,0,44248,,,,,,44.0,,,,,1.0,,,,,,,,,,,,,,,,,,,,,,,,,,,241.5,1.0,,,,,,
230,,iti,,html-keyboard-response,230,343301,0.0-1.0-46.0-0.0-5.0,0,0,44248,,,,,,44.0,,,,,1.0,,,,,,,,,,,,,,,,,,,,,,,,,,,244.5,3.0,,,,,,
231,,choice,,html-keyboard-response,231,344155,0.0-1.0-47.0-0.0-0.0,0,0,44248,,850.0,,,75.0,45.0,45.0,1500.0,1000.0,0.0,1.0,1.0,60-60,1.0,,power strip,power strip,60.0,60.0,power strip10,power strip11,60.0,40.0,6bd437c9-6165-4d36-bf75-9a1038783c6a_400.jpg,41Bw7Tl1G7L._AA262_.jpg,/static/Category_learning/Stimuli/Experimental_stims/power strip/6bd437c9-6165-4d36-bf75-9a1038783c6a_400.jpg,/static/Category_learning/Stimuli/Experimental_stims/power strip/41Bw7Tl1G7L._AA262_.jpg,0.0,power strip,power strip,60.0,60.0,power strip11,power strip10,40.0,60.0,0.0,245.35,0.85,,,,,,
232,,confirmation,,html-keyboard-response,232,344808,0.0-1.0-47.0-0.0-1.0-0.0,0,0,44248,,,,,,45.0,,,,,1.0,,,,,,,,,,,,,,,,,,,,,,,,,,,246.0,0.65,,,,,,
233,,isi,,html-keyboard-response,233,346310,0.0-1.0-47.0-0.0-2.0,0,0,44248,,,,,,45.0,,,,,1.0,,,,,,,,,,,,,,,,,,,,,,,,,,,247.5,1.5,,,,,,
234,,feedback,,html-keyboard-response,234,347313,0.0-1.0-47.0-0.0-3.0-0.0,0,0,44248,,,,,,45.0,,,,,1.0,,,,,,,,,,,,,,,,,,,,,,,,,,,248.5,1.0,,,,,,
235,,iti,,html-keyboard-response,235,348316,0.0-1.0-47.0-0.0-5.0,0,0,44248,,,,,,45.0,,,,,1.0,,,,,,,,,,,,,,,,,,,,,,,,,,,249.5,1.0,,,,,,
236,,choice,,html-keyboard-response,236,349242,0.0-1.0-48.0-0.0-0.0,0,0,44248,,924.0,,,68.0,46.0,46.0,1000.0,1500.0,0.0,1.0,0.0,20-40,,0.0,bongo,hammer,20.0,40.0,bongo13,hammer4,0.0,40.0,26388718.thl.jpg,hammernew01.jpg,/static/Category_learning/Stimuli/Experimental_stims/bongo/26388718.thl.jpg,/static/Category_learning/Stimuli/Experimental_stims/hammer/hammernew01.jpg,1.0,bongo,hammer,20.0,40.0,bongo13,hammer4,0.0,40.0,0.0,250.424,0.924,,,,,,
237,,confirmation,,html-keyboard-response,237,349823,0.0-1.0-48.0-0.0-1.0-0.0,0,0,44248,,,,,,46.0,,,,,1.0,,,,,,,,,,,,,,,,,,,,,,,,,,,251.0,0.576,,,,,,
238,,isi,,html-keyboard-response,238,350825,0.0-1.0-48.0-0.0-2.0,0,0,44248,,,,,,46.0,,,,,1.0,,,,,,,,,,,,,,,,,,,,,,,,,,,252.0,1.0,,,,,,
239,,feedback,,html-keyboard-response,239,351828,0.0-1.0-48.0-0.0-3.0-0.0,0,0,44248,,,,,,46.0,,,,,1.0,,,,,,,,,,,,,,,,,,,,,,,,,,,253.0,1.0,,,,,,
240,,iti,,html-keyboard-response,240,353331,0.0-1.0-48.0-0.0-5.0,0,0,44248,,,,,,46.0,,,,,1.0,,,,,,,,,,,,,,,,,,,,,,,,,,,254.5,1.5,,,,,,
241,,choice,,html-keyboard-response,241,353923,0.0-1.0-49.0-0.0-0.0,0,0,44248,,589.0,,,75.0,47.0,47.0,1000.0,2000.0,0.0,1.0,0.0,40-80,,1.0,telescope,frame,80.0,40.0,telescope15,frame3,80.0,40.0,VictorianDeskTelescope.jpg,AFRAME132.jpg,/static/Category_learning/Stimuli/Experimental_stims/telescope/VictorianDeskTelescope.jpg,/static/Category_learning/Stimuli/Experimental_stims/frame/AFRAME132.jpg,0.0,frame,telescope,40.0,80.0,frame3,telescope15,40.0,80.0,0.0,255.089,0.589,,,,,,
242,,confirmation,,html-keyboard-response,242,354838,0.0-1.0-49.0-0.0-1.0-0.0,0,0,44248,,,,,,47.0,,,,,1.0,,,,,,,,,,,,,,,,,,,,,,,,,,,256.0,0.911,,,,,,
243,,isi,,html-keyboard-response,243,355841,0.0-1.0-49.0-0.0-2.0,0,0,44248,,,,,,47.0,,,,,1.0,,,,,,,,,,,,,,,,,,,,,,,,,,,257.0,1.0,,,,,,
244,,feedback,,html-keyboard-response,244,356843,0.0-1.0-49.0-0.0-3.0-0.0,0,0,44248,,,,,,47.0,,,,,1.0,,,,,,,,,,,,,,,,,,,,,,,,,,,258.0,1.0,,,,,,
245,,iti,,html-keyboard-response,245,358846,0.0-1.0-49.0-0.0-5.0,0,0,44248,,,,,,47.0,,,,,1.0,,,,,,,,,,,,,,,,,,,,,,,,,,,260.0,2.0,,,,,,
246,,choice,,html-keyboard-response,246,359763,0.0-1.0-50.0-0.0-0.0,0,0,44248,,914.0,,,75.0,48.0,48.0,1000.0,2000.0,0.0,1.0,0.0,20-20,,,bench,flashlight,20.0,20.0,bench5,flashlight3,0.0,20.0,APARKBEN8.jpg,sl_tasklight_2l3w.jpg,/static/Category_learning/Stimuli/Experimental_stims/bench/APARKBEN8.jpg,/static/Category_learning/Stimuli/Experimental_stims/flashlight/sl_tasklight_2l3w.jpg,0.0,flashlight,bench,20.0,20.0,flashlight3,bench5,20.0,0.0,0.0,260.914,0.914,,,,,,
247,,confirmation,,html-keyboard-response,247,360351,0.0-1.0-50.0-0.0-1.0-0.0,0,0,44248,,,,,,48.0,,,,,1.0,,,,,,,,,,,,,,,,,,,,,,,,,,,261.5,0.586,,,,,,
248,,isi,,html-keyboard-response,248,361354,0.0-1.0-50.0-0.0-2.0,0,0,44248,,,,,,48.0,,,,,1.0,,,,,,,,,,,,,,,,,,,,,,,,,,,262.5,1.0,,,,,,
249,,feedback,,html-keyboard-response,249,362358,0.0-1.0-50.0-0.0-3.0-0.0,0,0,44248,,,,,,48.0,,,,,1.0,,,,,,,,,,,,,,,,,,,,,,,,,,,263.5,1.0,,,,,,
250,,iti,,html-keyboard-response,250,364360,0.0-1.0-50.0-0.0-5.0,0,0,44248,,,,,,48.0,,,,,1.0,,,,,,,,,,,,,,,,,,,,,,,,,,,265.5,2.0,,,,,,
251,,choice,,html-keyboard-response,251,365675,0.0-1.0-51.0-0.0-0.0,0,0,44248,,1312.0,,,68.0,49.0,49.0,1500.0,1500.0,0.0,1.0,1.0,40-40,1.0,,frame,frame,40.0,40.0,frame3,frame1,40.0,20.0,AFRAME132.jpg,AFRAME127.jpg,/static/Category_learning/Stimuli/Experimental_stims/frame/AFRAME132.jpg,/static/Category_learning/Stimuli/Experimental_stims/frame/AFRAME127.jpg,1.0,frame,frame,40.0,40.0,frame3,frame1,40.0,20.0,0.0,266.812,1.312,,,,,,
252,,confirmation,,html-keyboard-response,252,365866,0.0-1.0-51.0-0.0-1.0-0.0,0,0,44248,,,,,,49.0,,,,,1.0,,,,,,,,,,,,,,,,,,,,,,,,,,,267.0,0.188,,,,,,
253,,isi,,html-keyboard-response,253,367370,0.0-1.0-51.0-0.0-2.0,0,0,44248,,,,,,49.0,,,,,1.0,,,,,,,,,,,,,,,,,,,,,,,,,,,268.5,1.5,,,,,,
254,,feedback,,html-keyboard-response,254,368373,0.0-1.0-51.0-0.0-3.0-0.0,0,0,44248,,,,,,49.0,,,,,1.0,,,,,,,,,,,,,,,,,,,,,,,,,,,269.5,1.0,,,,,,
255,,iti,,html-keyboard-response,255,369875,0.0-1.0-51.0-0.0-5.0,0,0,44248,,,,,,49.0,,,,,1.0,,,,,,,,,,,,,,,,,,,,,,,,,,,271.0,1.5,,,,,,
256,,choice,,html-keyboard-response,256,370579,0.0-1.0-52.0-0.0-0.0,0,0,44248,,701.0,,,75.0,50.0,50.0,1000.0,1500.0,0.0,1.0,0.0,40-80,,0.0,frame,vase,40.0,80.0,frame11,vase14,60.0,80.0,AFRAME139.jpg,Avase119.jpg,/static/Category_learning/Stimuli/Experimental_stims/frame/AFRAME139.jpg,/static/Category_learning/Stimuli/Experimental_stims/vase/Avase119.jpg,0.0,vase,frame,80.0,40.0,vase14,frame11,80.0,60.0,0.0,271.701,0.701,,,,,,
257,,confirmation,,html-keyboard-response,257,371381,0.0-1.0-52.0-0.0-1.0-0.0,0,0,44248,,,,,,50.0,,,,,1.0,,,,,,,,,,,,,,,,,,,,,,,,,,,272.5,0.799,,,,,,
258,,isi,,html-keyboard-response,258,372384,0.0-1.0-52.0-0.0-2.0,0,0,44248,,,,,,50.0,,,,,1.0,,,,,,,,,,,,,,,,,,,,,,,,,,,273.5,1.0,,,,,,
259,,feedback,,html-keyboard-response,259,373386,0.0-1.0-52.0-0.0-3.0-0.0,0,0,44248,,,,,,50.0,,,,,1.0,,,,,,,,,,,,,,,,,,,,,,,,,,,274.5,1.0,,,,,,
260,,iti,,html-keyboard-response,260,374889,0.0-1.0-52.0-0.0-5.0,0,0,44248,,,,,,50.0,,,,,1.0,,,,,,,,,,,,,,,,,,,,,,,,,,,276.0,1.5,,,,,,
261,,choice,,html-keyboard-response,261,375659,0.0-1.0-53.0-0.0-0.0,0,0,44248,,767.0,,,75.0,51.0,51.0,2000.0,2000.0,0.0,1.0,0.0,20-60,,1.0,seashell,door knob,60.0,20.0,seashell11,door knob1,80.0,0.0,ASEASH12.jpg,Brass_Door_Handle.jpg,/static/Category_learning/Stimuli/Experimental_stims/seashell/ASEASH12.jpg,/static/Category_learning/Stimuli/Experimental_stims/door knob/Brass_Door_Handle.jpg,0.0,door knob,seashell,20.0,60.0,door knob1,seashell11,0.0,80.0,0.0,276.767,0.767,,,,,,
262,,confirmation,,html-keyboard-response,262,376395,0.0-1.0-53.0-0.0-1.0-0.0,0,0,44248,,,,,,51.0,,,,,1.0,,,,,,,,,,,,,,,,,,,,,,,,,,,277.5,0.733,,,,,,
263,,isi,,html-keyboard-response,263,378398,0.0-1.0-53.0-0.0-2.0,0,0,44248,,,,,,51.0,,,,,1.0,,,,,,,,,,,,,,,,,,,,,,,,,,,279.5,2.0,,,,,,
264,,feedback,,html-keyboard-response,264,379401,0.0-1.0-53.0-0.0-3.0-0.0,0,0,44248,,,,,,51.0,,,,,1.0,,,,,,,,,,,,,,,,,,,,,,,,,,,280.5,1.0,,,,,,
265,,iti,,html-keyboard-response,265,381406,0.0-1.0-53.0-0.0-5.0,0,0,44248,,,,,,51.0,,,,,1.0,,,,,,,,,,,,,,,,,,,,,,,,,,,282.5,2.0,,,,,,
266,,choice,,html-keyboard-response,266,382051,0.0-1.0-54.0-0.0-0.0,0,0,44248,,642.0,,,68.0,52.0,52.0,2000.0,1000.0,0.0,1.0,0.0,20-40,,0.0,flashlight,makeup compact,20.0,40.0,flashlight2,makeup compact13,0.0,40.0,AV-9 No Battery Flashlight.jpg,31YfapjS3TL._AA250_.jpg,/static/Category_learning/Stimuli/Experimental_stims/flashlight/AV-9 No Battery Flashlight.jpg,/static/Category_learning/Stimuli/Experimental_stims/makeup compact/31YfapjS3TL._AA250_.jpg,1.0,flashlight,makeup compact,20.0,40.0,flashlight2,makeup compact13,0.0,40.0,0.0,283.142,0.642,,,,,,
267,,confirmation,,html-keyboard-response,267,382913,0.0-1.0-54.0-0.0-1.0-0.0,0,0,44248,,,,,,52.0,,,,,1.0,,,,,,,,,,,,,,,,,,,,,,,,,,,284.0,0.858,,,,,,
268,,isi,,html-keyboard-response,268,384915,0.0-1.0-54.0-0.0-2.0,0,0,44248,,,,,,52.0,,,,,1.0,,,,,,,,,,,,,,,,,,,,,,,,,,,286.0,2.0,,,,,,
269,,feedback,,html-keyboard-response,269,385918,0.0-1.0-54.0-0.0-3.0-0.0,0,0,44248,,,,,,52.0,,,,,1.0,,,,,,,,,,,,,,,,,,,,,,,,,,,287.0,1.0,,,,,,
270,,iti,,html-keyboard-response,270,386922,0.0-1.0-54.0-0.0-5.0,0,0,44248,,,,,,52.0,,,,,1.0,,,,,,,,,,,,,,,,,,,,,,,,,,,288.0,1.0,,,,,,
271,,choice,,html-keyboard-response,271,387610,0.0-1.0-55.0-0.0-0.0,0,0,44248,,686.0,,,68.0,53.0,53.0,1500.0,1000.0,0.0,1.0,0.0,20-60,,1.0,sofa,bongo,60.0,20.0,sofa4,bongo4,40.0,0.0,ALOVSEA15.jpg,26390708.thl.jpg,/static/Category_learning/Stimuli/Experimental_stims/sofa/ALOVSEA15.jpg,/static/Category_learning/Stimuli/Experimental_stims/bongo/26390708.thl.jpg,1.0,sofa,bongo,60.0,20.0,sofa4,bongo4,40.0,0.0,0.0,288.686,0.686,,,,,,
272,,confirmation,,html-keyboard-response,272,388428,0.0-1.0-55.0-0.0-1.0-0.0,0,0,44248,,,,,,53.0,,,,,1.0,,,,,,,,,,,,,,,,,,,,,,,,,,,289.5,0.814,,,,,,
273,,isi,,html-keyboard-response,273,389930,0.0-1.0-55.0-0.0-2.0,0,0,44248,,,,,,53.0,,,,,1.0,,,,,,,,,,,,,,,,,,,,,,,,,,,291.0,1.5,,,,,,
274,,feedback,,html-keyboard-response,274,390933,0.0-1.0-55.0-0.0-3.0-0.0,0,0,44248,,,,,,53.0,,,,,1.0,,,,,,,,,,,,,,,,,,,,,,,,,,,292.0,1.0,,,,,,
275,,iti,,html-keyboard-response,275,391935,0.0-1.0-55.0-0.0-5.0,0,0,44248,,,,,,53.0,,,,,1.0,,,,,,,,,,,,,,,,,,,,,,,,,,,293.0,1.0,,,,,,
276,,choice,,html-keyboard-response,276,393026,0.0-1.0-56.0-0.0-0.0,0,0,44248,,1088.0,,,68.0,54.0,54.0,1000.0,1000.0,0.0,1.0,1.0,20-20,1.0,,flashlight,flashlight,20.0,20.0,flashlight3,flashlight2,20.0,0.0,sl_tasklight_2l3w.jpg,AV-9 No Battery Flashlight.jpg,/static/Category_learning/Stimuli/Experimental_stims/flashlight/sl_tasklight_2l3w.jpg,/static/Category_learning/Stimuli/Experimental_stims/flashlight/AV-9 No Battery Flashlight.jpg,1.0,flashlight,flashlight,20.0,20.0,flashlight3,flashlight2,20.0,0.0,0.0,294.088,1.088,,,,,,
277,,confirmation,,html-keyboard-response,277,393443,0.0-1.0-56.0-0.0-1.0-0.0,0,0,44248,,,,,,54.0,,,,,1.0,,,,,,,,,,,,,,,,,,,,,,,,,,,294.5,0.412,,,,,,
278,,isi,,html-keyboard-response,278,394445,0.0-1.0-56.0-0.0-2.0,0,0,44248,,,,,,54.0,,,,,1.0,,,,,,,,,,,,,,,,,,,,,,,,,,,295.5,1.0,,,,,,
279,,feedback,,html-keyboard-response,279,395448,0.0-1.0-56.0-0.0-3.0-0.0,0,0,44248,,,,,,54.0,,,,,1.0,,,,,,,,,,,,,,,,,,,,,,,,,,,296.5,1.0,,,,,,
280,,iti,,html-keyboard-response,280,396451,0.0-1.0-56.0-0.0-5.0,0,0,44248,,,,,,54.0,,,,,1.0,,,,,,,,,,,,,,,,,,,,,,,,,,,297.5,1.0,,,,,,
281,,choice,,html-keyboard-response,281,397290,0.0-1.0-57.0-0.0-0.0,0,0,44248,,837.0,,,68.0,55.0,55.0,1000.0,1500.0,0.0,1.0,0.0,20-80,,0.0,flashlight,train,20.0,80.0,flashlight14,train11,20.0,60.0,freeplay-jonta-flashlight.jpg,train1.jpg,/static/Category_learning/Stimuli/Experimental_stims/flashlight/freeplay-jonta-flashlight.jpg,/static/Category_learning/Stimuli/Experimental_stims/train/train1.jpg,1.0,flashlight,train,20.0,80.0,flashlight14,train11,20.0,60.0,0.0,298.337,0.837,,,,,,
282,,confirmation,,html-keyboard-response,282,397957,0.0-1.0-57.0-0.0-1.0-0.0,0,0,44248,,,,,,55.0,,,,,1.0,,,,,,,,,,,,,,,,,,,,,,,,,,,299.0,0.663,,,,,,
283,,isi,,html-keyboard-response,283,398961,0.0-1.0-57.0-0.0-2.0,0,0,44248,,,,,,55.0,,,,,1.0,,,,,,,,,,,,,,,,,,,,,,,,,,,300.0,1.0,,,,,,
284,,feedback,,html-keyboard-response,284,399963,0.0-1.0-57.0-0.0-3.0-0.0,0,0,44248,,,,,,55.0,,,,,1.0,,,,,,,,,,,,,,,,,,,,,,,,,,,301.0,1.0,,,,,,
285,,iti,,html-keyboard-response,285,401465,0.0-1.0-57.0-0.0-5.0,0,0,44248,,,,,,55.0,,,,,1.0,,,,,,,,,,,,,,,,,,,,,,,,,,,302.5,1.5,,,,,,
286,,choice,,html-keyboard-response,286,402026,0.0-1.0-58.0-0.0-0.0,0,0,44248,,558.0,,,75.0,56.0,56.0,1000.0,1500.0,0.0,1.0,0.0,20-80,,0.0,fan,stool,20.0,80.0,fan12,stool9,0.0,100.0,116544_sk_lg.jpg,ASTOOL7.jpg,/static/Category_learning/Stimuli/Experimental_stims/fan/116544_sk_lg.jpg,/static/Category_learning/Stimuli/Experimental_stims/stool/ASTOOL7.jpg,0.0,stool,fan,80.0,20.0,stool9,fan12,100.0,0.0,0.0,303.058,0.558,,,,,,
287,,confirmation,,html-keyboard-response,287,402972,0.0-1.0-58.0-0.0-1.0-0.0,0,0,44248,,,,,,56.0,,,,,1.0,,,,,,,,,,,,,,,,,,,,,,,,,,,304.0,0.942,,,,,,
288,,isi,,html-keyboard-response,288,403974,0.0-1.0-58.0-0.0-2.0,0,0,44248,,,,,,56.0,,,,,1.0,,,,,,,,,,,,,,,,,,,,,,,,,,,305.0,1.0,,,,,,
289,,feedback,,html-keyboard-response,289,404979,0.0-1.0-58.0-0.0-3.0-0.0,0,0,44248,,,,,,56.0,,,,,1.0,,,,,,,,,,,,,,,,,,,,,,,,,,,306.0,1.0,,,,,,
290,,iti,,html-keyboard-response,290,406482,0.0-1.0-58.0-0.0-5.0,0,0,44248,,,,,,56.0,,,,,1.0,,,,,,,,,,,,,,,,,,,,,,,,,,,307.5,1.5,,,,,,
291,,choice,,html-keyboard-response,291,407162,0.0-1.0-59.0-0.0-0.0,0,0,44248,,677.0,,,75.0,57.0,57.0,1500.0,1000.0,0.0,1.0,0.0,20-40,,1.0,motorcycle,bench,40.0,20.0,motorcycle12,bench4,40.0,0.0,motorcycle14.jpg,30892819.thl.jpg,/static/Category_learning/Stimuli/Experimental_stims/motorcycle/motorcycle14.jpg,/static/Category_learning/Stimuli/Experimental_stims/bench/30892819.thl.jpg,0.0,bench,motorcycle,20.0,40.0,bench4,motorcycle12,0.0,40.0,0.0,308.177,0.677,,,,,,
292,,confirmation,,html-keyboard-response,292,407989,0.0-1.0-59.0-0.0-1.0-0.0,0,0,44248,,,,,,57.0,,,,,1.0,,,,,,,,,,,,,,,,,,,,,,,,,,,309.0,0.823,,,,,,
293,,isi,,html-keyboard-response,293,409492,0.0-1.0-59.0-0.0-2.0,0,0,44248,,,,,,57.0,,,,,1.0,,,,,,,,,,,,,,,,,,,,,,,,,,,310.5,1.5,,,,,,
294,,feedback,,html-keyboard-response,294,410495,0.0-1.0-59.0-0.0-3.0-0.0,0,0,44248,,,,,,57.0,,,,,1.0,,,,,,,,,,,,,,,,,,,,,,,,,,,311.5,1.0,,,,,,
295,,iti,,html-keyboard-response,295,411497,0.0-1.0-59.0-0.0-5.0,0,0,44248,,,,,,57.0,,,,,1.0,,,,,,,,,,,,,,,,,,,,,,,,,,,312.5,1.0,,,,,,
296,,choice,,html-keyboard-response,296,412074,0.0-1.0-60.0-0.0-0.0,0,0,44248,,574.0,,,68.0,58.0,58.0,1000.0,2000.0,0.0,1.0,1.0,20-60,0.0,,patio lounge chair,dresser,60.0,20.0,patio lounge chair6,dresser6,60.0,40.0,Lounge_Chair_with_Pillow.jpg,ADRESSE96.jpg,/static/Category_learning/Stimuli/Experimental_stims/patio lounge chair/Lounge_Chair_with_Pillow.jpg,/static/Category_learning/Stimuli/Experimental_stims/dresser/ADRESSE96.jpg,1.0,patio lounge chair,dresser,60.0,20.0,patio lounge chair6,dresser6,60.0,40.0,0.0,313.074,0.574,,,,,,
297,,confirmation,,html-keyboard-response,297,413003,0.0-1.0-60.0-0.0-1.0-0.0,0,0,44248,,,,,,58.0,,,,,1.0,,,,,,,,,,,,,,,,,,,,,,,,,,,314.0,0.926,,,,,,
298,,isi,,html-keyboard-response,298,414007,0.0-1.0-60.0-0.0-2.0,0,0,44248,,,,,,58.0,,,,,1.0,,,,,,,,,,,,,,,,,,,,,,,,,,,315.0,1.0,,,,,,
299,,feedback,,html-keyboard-response,299,415010,0.0-1.0-60.0-0.0-3.0-0.0,0,0,44248,,,,,,58.0,,,,,1.0,,,,,,,,,,,,,,,,,,,,,,,,,,,316.0,1.0,,,,,,
300,,iti,,html-keyboard-response,300,417013,0.0-1.0-60.0-0.0-5.0,0,0,44248,,,,,,58.0,,,,,1.0,,,,,,,,,,,,,,,,,,,,,,,,,,,318.0,2.0,,,,,,
301,,choice,,html-keyboard-response,301,417898,0.0-1.0-61.0-0.0-0.0,0,0,44248,,883.0,,,68.0,59.0,59.0,2000.0,2000.0,0.0,1.0,0.0,40-80,,0.0,microscope,yarn,40.0,80.0,microscope12,yarn2,40.0,60.0,usbdigitalmicroscope1_small1.jpg,Aballofyarn66.jpg,/static/Category_learning/Stimuli/Experimental_stims/microscope/usbdigitalmicroscope1_small1.jpg,/static/Category_learning/Stimuli/Experimental_stims/yarn/Aballofyarn66.jpg,1.0,microscope,yarn,40.0,80.0,microscope12,yarn2,40.0,60.0,0.0,318.883,0.883,,,,,,
302,,confirmation,,html-keyboard-response,302,418519,0.0-1.0-61.0-0.0-1.0-0.0,0,0,44248,,,,,,59.0,,,,,1.0,,,,,,,,,,,,,,,,,,,,,,,,,,,319.5,0.617,,,,,,
303,,isi,,html-keyboard-response,303,420522,0.0-1.0-61.0-0.0-2.0,0,0,44248,,,,,,59.0,,,,,1.0,,,,,,,,,,,,,,,,,,,,,,,,,,,321.5,2.0,,,,,,
304,,feedback,,html-keyboard-response,304,421525,0.0-1.0-61.0-0.0-3.0-0.0,0,0,44248,,,,,,59.0,,,,,1.0,,,,,,,,,,,,,,,,,,,,,,,,,,,322.5,1.0,,,,,,
305,,iti,,html-keyboard-response,305,423527,0.0-1.0-61.0-0.0-5.0,0,0,44248,,,,,,59.0,,,,,1.0,,,,,,,,,,,,,,,,,,,,,,,,,,,324.5,2.0,,,,,,
306,,choice,,html-keyboard-response,306,424490,0.0-1.0-62.0-0.0-0.0,0,0,44248,,961.0,,,75.0,60.0,60.0,1000.0,1500.0,0.0,1.0,0.0,60-60,,,nail polish,necklace,60.0,60.0,nail polish2,necklace8,80.0,40.0,froggy_t.jpg,Anecklace20.jpg,/static/Category_learning/Stimuli/Experimental_stims/nail polish/froggy_t.jpg,/static/Category_learning/Stimuli/Experimental_stims/necklace/Anecklace20.jpg,0.0,necklace,nail polish,60.0,60.0,necklace8,nail polish2,40.0,80.0,0.0,325.461,0.961,,,,,,
307,,confirmation,,html-keyboard-response,307,425032,0.0-1.0-62.0-0.0-1.0-0.0,0,0,44248,,,,,,60.0,,,,,1.0,,,,,,,,,,,,,,,,,,,,,,,,,,,326.0,0.539,,,,,,
308,,isi,,html-keyboard-response,308,426035,0.0-1.0-62.0-0.0-2.0,0,0,44248,,,,,,60.0,,,,,1.0,,,,,,,,,,,,,,,,,,,,,,,,,,,327.0,1.0,,,,,,
309,,feedback,,html-keyboard-response,309,427037,0.0-1.0-62.0-0.0-3.0-0.0,0,0,44248,,,,,,60.0,,,,,1.0,,,,,,,,,,,,,,,,,,,,,,,,,,,328.0,1.0,,,,,,
310,,iti,,html-keyboard-response,310,428540,0.0-1.0-62.0-0.0-5.0,0,0,44248,,,,,,60.0,,,,,1.0,,,,,,,,,,,,,,,,,,,,,,,,,,,329.5,1.5,,,,,,
311,,choice,,html-keyboard-response,311,429258,0.0-1.0-63.0-0.0-0.0,0,0,44248,,716.0,,,68.0,61.0,61.0,1000.0,1500.0,0.0,1.0,0.0,60-80,,1.0,stool,small table,80.0,60.0,stool15,small table6,100.0,80.0,ASTOOL.jpg,ATABLE88.jpg,/static/Category_learning/Stimuli/Experimental_stims/stool/ASTOOL.jpg,/static/Category_learning/Stimuli/Experimental_stims/small table/ATABLE88.jpg,1.0,stool,small table,80.0,60.0,stool15,small table6,100.0,80.0,0.0,330.216,0.716,,,,,,
312,,confirmation,,html-keyboard-response,312,430046,0.0-1.0-63.0-0.0-1.0-0.0,0,0,44248,,,,,,61.0,,,,,1.0,,,,,,,,,,,,,,,,,,,,,,,,,,,331.0,0.784,,,,,,
313,,isi,,html-keyboard-response,313,431050,0.0-1.0-63.0-0.0-2.0,0,0,44248,,,,,,61.0,,,,,1.0,,,,,,,,,,,,,,,,,,,,,,,,,,,332.0,1.0,,,,,,
314,,feedback,,html-keyboard-response,314,432052,0.0-1.0-63.0-0.0-3.0-0.0,0,0,44248,,,,,,61.0,,,,,1.0,,,,,,,,,,,,,,,,,,,,,,,,,,,333.0,1.0,,,,,,
315,,iti,,html-keyboard-response,315,433555,0.0-1.0-63.0-0.0-5.0,0,0,44248,,,,,,61.0,,,,,1.0,,,,,,,,,,,,,,,,,,,,,,,,,,,334.5,1.5,,,,,,
316,,choice,,html-keyboard-response,316,434338,0.0-1.0-64.0-0.0-0.0,0,0,44248,,780.0,,,75.0,62.0,62.0,1000.0,1000.0,0.0,1.0,0.0,40-60,,1.0,seashell,microscope,60.0,40.0,seashell9,microscope11,80.0,20.0,ASEASH5.jpg,konus5604microscope.jpg,/static/Category_learning/Stimuli/Experimental_stims/seashell/ASEASH5.jpg,/static/Category_learning/Stimuli/Experimental_stims/microscope/konus5604microscope.jpg,0.0,microscope,seashell,40.0,60.0,microscope11,seashell9,20.0,80.0,0.0,335.28,0.78,,,,,,
317,,confirmation,,html-keyboard-response,317,435062,0.0-1.0-64.0-0.0-1.0-0.0,0,0,44248,,,,,,62.0,,,,,1.0,,,,,,,,,,,,,,,,,,,,,,,,,,,336.0,0.72,,,,,,
318,,isi,,html-keyboard-response,318,436064,0.0-1.0-64.0-0.0-2.0,0,0,44248,,,,,,62.0,,,,,1.0,,,,,,,,,,,,,,,,,,,,,,,,,,,337.0,1.0,,,,,,
319,,feedback,,html-keyboard-response,319,437066,0.0-1.0-64.0-0.0-3.0-0.0,0,0,44248,,,,,,62.0,,,,,1.0,,,,,,,,,,,,,,,,,,,,,,,,,,,338.0,1.0,,,,,,
320,,iti,,html-keyboard-response,320,438069,0.0-1.0-64.0-0.0-5.0,0,0,44248,,,,,,62.0,,,,,1.0,,,,,,,,,,,,,,,,,,,,,,,,,,,339.0,1.0,,,,,,
321,,choice,,html-keyboard-response,321,438610,0.0-1.0-65.0-0.0-0.0,0,0,44248,,538.0,,,68.0,63.0,63.0,1000.0,1500.0,0.0,1.0,0.0,20-80,,0.0,bowl,stool,20.0,80.0,bowl3,stool5,40.0,60.0,ABOWL8.jpg,ASTOOL23.jpg,/static/Category_learning/Stimuli/Experimental_stims/bowl/ABOWL8.jpg,/static/Category_learning/Stimuli/Experimental_stims/stool/ASTOOL23.jpg,1.0,bowl,stool,20.0,80.0,bowl3,stool5,40.0,60.0,0.0,339.538,0.538,,,,,,
322,,confirmation,,html-keyboard-response,322,439575,0.0-1.0-65.0-0.0-1.0-0.0,0,0,44248,,,,,,63.0,,,,,1.0,,,,,,,,,,,,,,,,,,,,,,,,,,,340.5,0.962,,,,,,
323,,isi,,html-keyboard-response,323,440577,0.0-1.0-65.0-0.0-2.0,0,0,44248,,,,,,63.0,,,,,1.0,,,,,,,,,,,,,,,,,,,,,,,,,,,341.5,1.0,,,,,,
324,,feedback,,html-keyboard-response,324,441580,0.0-1.0-65.0-0.0-3.0-0.0,0,0,44248,,,,,,63.0,,,,,1.0,,,,,,,,,,,,,,,,,,,,,,,,,,,342.5,1.0,,,,,,
325,,iti,,html-keyboard-response,325,443082,0.0-1.0-65.0-0.0-5.0,0,0,44248,,,,,,63.0,,,,,1.0,,,,,,,,,,,,,,,,,,,,,,,,,,,344.0,1.5,,,,,,
326,,choice,,html-keyboard-response,326,443930,0.0-1.0-66.0-0.0-0.0,0,0,44248,,845.0,,,75.0,64.0,64.0,1000.0,3500.0,0.0,1.0,1.0,40-40,1.0,,microscope,microscope,40.0,40.0,microscope11,microscope12,20.0,40.0,konus5604microscope.jpg,usbdigitalmicroscope1_small1.jpg,/static/Category_learning/Stimuli/Experimental_stims/microscope/konus5604microscope.jpg,/static/Category_learning/Stimuli/Experimental_stims/microscope/usbdigitalmicroscope1_small1.jpg,0.0,microscope,microscope,40.0,40.0,microscope12,microscope11,40.0,20.0,0.0,344.845,0.845,,,,,,
327,,confirmation,,html-keyboard-response,327,444591,0.0-1.0-66.0-0.0-1.0-0.0,0,0,44248,,,,,,64.0,,,,,1.0,,,,,,,,,,,,,,,,,,,,,,,,,,,345.5,0.655,,,,,,
328,,isi,,html-keyboard-response,328,445594,0.0-1.0-66.0-0.0-2.0,0,0,44248,,,,,,64.0,,,,,1.0,,,,,,,,,,,,,,,,,,,,,,,,,,,346.5,1.0,,,,,,
329,,feedback,,html-keyboard-response,329,446597,0.0-1.0-66.0-0.0-3.0-0.0,0,0,44248,,,,,,64.0,,,,,1.0,,,,,,,,,,,,,,,,,,,,,,,,,,,347.5,1.0,,,,,,
330,,iti,,html-keyboard-response,330,450100,0.0-1.0-66.0-0.0-5.0,0,0,44248,,,,,,64.0,,,,,1.0,,,,,,,,,,,,,,,,,,,,,,,,,,,351.0,3.5,,,,,,
331,,block_over,,html-keyboard-response,331,459298,0.0-1.0-66.0-0.0-7.0-0.0,0,0,44248,,9193.0,,,68.0,64.0,,,,,,,,,,,,,,,,,,,,,,,,,,,,,,,,,,,,,,,
332,,start_run,,html-keyboard-response,332,461913,0.0-1.0-66.0-0.0-7.0-1.0,0,0,44248,,2614.0,,,84.0,,,,,,,,,,,,,,,,,,,,,,,,,,,,,,,,,,,,,,,,
333,,choice,,html-keyboard-response,333,462625,0.0-1.0-67.0-0.0-0.0,0,0,44248,,709.0,,,75.0,65.0,65.0,1000.0,1000.0,0.0,2.0,0.0,40-80,,1.0,watch,makeup compact,80.0,40.0,watch1,makeup compact9,80.0,40.0,B000B5K8XI.01-A2E7J74KJYV9ZH._AA280_SCLZZZZZZZ_V53007008_.jpg,b_102019.jpg,/static/Category_learning/Stimuli/Experimental_stims/watch/B000B5K8XI.01-A2E7J74KJYV9ZH._AA280_SCLZZZZZZZ_V53007008_.jpg,/static/Category_learning/Stimuli/Experimental_stims/makeup compact/b_102019.jpg,0.0,makeup compact,watch,40.0,80.0,makeup compact9,watch1,40.0,80.0,0.0,0.709,0.709,,,,,,
334,,confirmation,,html-keyboard-response,334,463420,0.0-1.0-67.0-0.0-1.0-0.0,0,0,44248,,,,,,65.0,,,,,2.0,,,,,,,,,,,,,,,,,,,,,,,,,,,1.5,0.791,,,,,,
335,,isi,,html-keyboard-response,335,464423,0.0-1.0-67.0-0.0-2.0,0,0,44248,,,,,,65.0,,,,,2.0,,,,,,,,,,,,,,,,,,,,,,,,,,,2.5,1.0,,,,,,
336,,feedback,,html-keyboard-response,336,465426,0.0-1.0-67.0-0.0-3.0-0.0,0,0,44248,,,,,,65.0,,,,,2.0,,,,,,,,,,,,,,,,,,,,,,,,,,,3.5,1.0,,,,,,
337,,iti,,html-keyboard-response,337,466429,0.0-1.0-67.0-0.0-5.0,0,0,44248,,,,,,65.0,,,,,2.0,,,,,,,,,,,,,,,,,,,,,,,,,,,4.5,1.0,,,,,,
338,,choice,,html-keyboard-response,338,466954,0.0-1.0-68.0-0.0-0.0,0,0,44248,,523.0,,,68.0,66.0,66.0,3500.0,2000.0,0.0,2.0,0.0,20-80,,1.0,vase,bench,80.0,20.0,vase12,bench13,100.0,40.0,Abluevase2.jpg,ABROWNBE4.jpg,/static/Category_learning/Stimuli/Experimental_stims/vase/Abluevase2.jpg,/static/Category_learning/Stimuli/Experimental_stims/bench/ABROWNBE4.jpg,1.0,vase,bench,80.0,20.0,vase12,bench13,100.0,40.0,0.0,5.023,0.523,,,,,,
339,,confirmation,,html-keyboard-response,339,467934,0.0-1.0-68.0-0.0-1.0-0.0,0,0,44248,,,,,,66.0,,,,,2.0,,,,,,,,,,,,,,,,,,,,,,,,,,,6.0,0.977,,,,,,
340,,isi,,html-keyboard-response,340,471436,0.0-1.0-68.0-0.0-2.0,0,0,44248,,,,,,66.0,,,,,2.0,,,,,,,,,,,,,,,,,,,,,,,,,,,9.5,3.5,,,,,,
341,,feedback,,html-keyboard-response,341,472438,0.0-1.0-68.0-0.0-3.0-0.0,0,0,44248,,,,,,66.0,,,,,2.0,,,,,,,,,,,,,,,,,,,,,,,,,,,10.5,1.0,,,,,,
342,,iti,,html-keyboard-response,342,474441,0.0-1.0-68.0-0.0-5.0,0,0,44248,,,,,,66.0,,,,,2.0,,,,,,,,,,,,,,,,,,,,,,,,,,,12.5,2.0,,,,,,
343,,choice,,html-keyboard-response,343,475041,0.0-1.0-69.0-0.0-0.0,0,0,44248,,598.0,,,75.0,67.0,67.0,1000.0,1000.0,0.0,2.0,0.0,20-80,,0.0,fan,trumpet,20.0,80.0,fan2,trumpet12,40.0,80.0,507349_sk_lg.jpg,hornabariton.jpg,/static/Category_learning/Stimuli/Experimental_stims/fan/507349_sk_lg.jpg,/static/Category_learning/Stimuli/Experimental_stims/trumpet/hornabariton.jpg,0.0,trumpet,fan,80.0,20.0,trumpet12,fan2,80.0,40.0,0.0,13.098,0.598,,,,,,
344,,confirmation,,html-keyboard-response,344,475946,0.0-1.0-69.0-0.0-1.0-0.0,0,0,44248,,,,,,67.0,,,,,2.0,,,,,,,,,,,,,,,,,,,,,,,,,,,14.0,0.902,,,,,,
345,,isi,,html-keyboard-response,345,476948,0.0-1.0-69.0-0.0-2.0,0,0,44248,,,,,,67.0,,,,,2.0,,,,,,,,,,,,,,,,,,,,,,,,,,,15.0,1.0,,,,,,
346,,feedback,,html-keyboard-response,346,477951,0.0-1.0-69.0-0.0-3.0-0.0,0,0,44248,,,,,,67.0,,,,,2.0,,,,,,,,,,,,,,,,,,,,,,,,,,,16.0,1.0,,,,,,
347,,iti,,html-keyboard-response,347,478953,0.0-1.0-69.0-0.0-5.0,0,0,44248,,,,,,67.0,,,,,2.0,,,,,,,,,,,,,,,,,,,,,,,,,,,17.0,1.0,,,,,,
348,,choice,,html-keyboard-response,348,479457,0.0-1.0-70.0-0.0-0.0,0,0,44248,,501.0,,,68.0,68.0,68.0,2000.0,1000.0,0.0,2.0,0.0,60-60,,,pen,poker card,60.0,60.0,pen4,poker card9,80.0,80.0,Montblanc_Greta_Garbo_BP copy.jpg,9817230.thl.jpg,/static/Category_learning/Stimuli/Experimental_stims/pen/Montblanc_Greta_Garbo_BP copy.jpg,/static/Category_learning/Stimuli/Experimental_stims/poker card/9817230.thl.jpg,1.0,pen,poker card,60.0,60.0,pen4,poker card9,80.0,80.0,0.0,17.501,0.501,,,,,,
349,,confirmation,,html-keyboard-response,349,480460,0.0-1.0-70.0-0.0-1.0-0.0,0,0,44248,,,,,,68.0,,,,,2.0,,,,,,,,,,,,,,,,,,,,,,,,,,,18.5,0.999,,,,,,
350,,isi,,html-keyboard-response,350,482463,0.0-1.0-70.0-0.0-2.0,0,0,44248,,,,,,68.0,,,,,2.0,,,,,,,,,,,,,,,,,,,,,,,,,,,20.5,2.0,,,,,,
351,,feedback,,html-keyboard-response,351,483467,0.0-1.0-70.0-0.0-3.0-0.0,0,0,44248,,,,,,68.0,,,,,2.0,,,,,,,,,,,,,,,,,,,,,,,,,,,21.5,1.0,,,,,,
352,,iti,,html-keyboard-response,352,484483,0.0-1.0-70.0-0.0-5.0,0,0,44248,,,,,,68.0,,,,,2.0,,,,,,,,,,,,,,,,,,,,,,,,,,,22.5,1.0,,,,,,
353,,choice,,html-keyboard-response,353,484881,0.0-1.0-71.0-0.0-0.0,0,0,44248,,396.0,,,75.0,69.0,69.0,1000.0,1000.0,0.0,2.0,0.0,20-20,,,baby carriage,fan,20.0,20.0,baby carriage9,fan11,0.0,0.0,Antique baby Carriage 7.jpg,n_sf.jpg,/static/Category_learning/Stimuli/Experimental_stims/baby carriage/Antique baby Carriage 7.jpg,/static/Category_learning/Stimuli/Experimental_stims/fan/n_sf.jpg,0.0,fan,baby carriage,20.0,20.0,fan11,baby carriage9,0.0,0.0,0.0,22.896,0.396,,,,,,
354,,confirmation,,html-keyboard-response,354,485988,0.0-1.0-71.0-0.0-1.0-0.0,0,0,44248,,,,,,69.0,,,,,2.0,,,,,,,,,,,,,,,,,,,,,,,,,,,24.0,1.104,,,,,,
355,,isi,,html-keyboard-response,355,486992,0.0-1.0-71.0-0.0-2.0,0,0,44248,,,,,,69.0,,,,,2.0,,,,,,,,,,,,,,,,,,,,,,,,,,,25.0,1.0,,,,,,
356,,feedback,,html-keyboard-response,356,487995,0.0-1.0-71.0-0.0-3.0-0.0,0,0,44248,,,,,,69.0,,,,,2.0,,,,,,,,,,,,,,,,,,,,,,,,,,,26.0,1.0,,,,,,
357,,iti,,html-keyboard-response,357,488999,0.0-1.0-71.0-0.0-5.0,0,0,44248,,,,,,69.0,,,,,2.0,,,,,,,,,,,,,,,,,,,,,,,,,,,27.0,1.0,,,,,,
358,,choice,,html-keyboard-response,358,489370,0.0-1.0-72.0-0.0-0.0,0,0,44248,,368.0,,,68.0,70.0,70.0,1500.0,1000.0,0.0,2.0,0.0,20-80,,1.0,stool,dresser,80.0,20.0,stool2,dresser1,60.0,0.0,ASTOOL46.jpg,ADRESSE52.jpg,/static/Category_learning/Stimuli/Experimental_stims/stool/ASTOOL46.jpg,/static/Category_learning/Stimuli/Experimental_stims/dresser/ADRESSE52.jpg,1.0,stool,dresser,80.0,20.0,stool2,dresser1,60.0,0.0,0.0,27.368,0.368,,,,,,
359,,confirmation,,html-keyboard-response,359,490507,0.0-1.0-72.0-0.0-1.0-0.0,0,0,44248,,,,,,70.0,,,,,2.0,,,,,,,,,,,,,,,,,,,,,,,,,,,28.5,1.132,,,,,,
360,,isi,,html-keyboard-response,360,492013,0.0-1.0-72.0-0.0-2.0,0,0,44248,,,,,,70.0,,,,,2.0,,,,,,,,,,,,,,,,,,,,,,,,,,,30.0,1.5,,,,,,
361,,feedback,,html-keyboard-response,361,493017,0.0-1.0-72.0-0.0-3.0-0.0,0,0,44248,,,,,,70.0,,,,,2.0,,,,,,,,,,,,,,,,,,,,,,,,,,,31.0,1.0,,,,,,
362,,iti,,html-keyboard-response,362,494020,0.0-1.0-72.0-0.0-5.0,0,0,44248,,,,,,70.0,,,,,2.0,,,,,,,,,,,,,,,,,,,,,,,,,,,32.0,1.0,,,,,,
363,,choice,,html-keyboard-response,363,494633,0.0-1.0-73.0-0.0-0.0,0,0,44248,,610.0,,,75.0,71.0,71.0,3500.0,2000.0,0.0,2.0,0.0,20-80,,0.0,desk,stool,20.0,80.0,desk4,stool11,40.0,60.0,AbbeyMiniRadialBIG(1).jpg,ASTOOL28.jpg,/static/Category_learning/Stimuli/Experimental_stims/desk/AbbeyMiniRadialBIG(1).jpg,/static/Category_learning/Stimuli/Experimental_stims/stool/ASTOOL28.jpg,0.0,stool,desk,80.0,20.0,stool11,desk4,60.0,40.0,0.0,32.61,0.61,,,,,,
364,,confirmation,,html-keyboard-response,364,495525,0.0-1.0-73.0-0.0-1.0-0.0,0,0,44248,,,,,,71.0,,,,,2.0,,,,,,,,,,,,,,,,,,,,,,,,,,,33.5,0.89,,,,,,
365,,isi,,html-keyboard-response,365,499028,0.0-1.0-73.0-0.0-2.0,0,0,44248,,,,,,71.0,,,,,2.0,,,,,,,,,,,,,,,,,,,,,,,,,,,37.0,3.5,,,,,,
366,,feedback,,html-keyboard-response,366,500032,0.0-1.0-73.0-0.0-3.0-0.0,0,0,44248,,,,,,71.0,,,,,2.0,,,,,,,,,,,,,,,,,,,,,,,,,,,38.0,1.0,,,,,,
367,,iti,,html-keyboard-response,367,502034,0.0-1.0-73.0-0.0-5.0,0,0,44248,,,,,,71.0,,,,,2.0,,,,,,,,,,,,,,,,,,,,,,,,,,,40.0,2.0,,,,,,
368,,choice,,html-keyboard-response,368,503281,0.0-1.0-74.0-0.0-0.0,0,0,44248,,1245.0,,,68.0,72.0,72.0,2000.0,1500.0,0.0,2.0,0.0,40-60,,0.0,license plate,poker card,40.0,60.0,license plate1,poker card2,40.0,60.0,il-423-3784.jpg,22864716.thl.jpg,/static/Category_learning/Stimuli/Experimental_stims/license plate/il-423-3784.jpg,/static/Category_learning/Stimuli/Experimental_stims/poker card/22864716.thl.jpg,1.0,license plate,poker card,40.0,60.0,license plate1,poker card2,40.0,60.0,0.0,41.245,1.245,,,,,,
369,,confirmation,,html-keyboard-response,369,503540,0.0-1.0-74.0-0.0-1.0-0.0,0,0,44248,,,,,,72.0,,,,,2.0,,,,,,,,,,,,,,,,,,,,,,,,,,,41.5,0.255,,,,,,
370,,isi,,html-keyboard-response,370,505542,0.0-1.0-74.0-0.0-2.0,0,0,44248,,,,,,72.0,,,,,2.0,,,,,,,,,,,,,,,,,,,,,,,,,,,43.5,2.0,,,,,,
371,,feedback,,html-keyboard-response,371,506545,0.0-1.0-74.0-0.0-3.0-0.0,0,0,44248,,,,,,72.0,,,,,2.0,,,,,,,,,,,,,,,,,,,,,,,,,,,44.5,1.0,,,,,,
372,,iti,,html-keyboard-response,372,508047,0.0-1.0-74.0-0.0-5.0,0,0,44248,,,,,,72.0,,,,,2.0,,,,,,,,,,,,,,,,,,,,,,,,,,,46.0,1.5,,,,,,
373,,choice,,html-keyboard-response,373,508666,0.0-1.0-75.0-0.0-0.0,0,0,44248,,615.0,,,68.0,73.0,73.0,1500.0,1500.0,0.0,2.0,1.0,20-20,1.0,,bowl,bowl,20.0,20.0,bowl2,bowl3,40.0,40.0,AMIXBOWL2.jpg,ABOWL8.jpg,/static/Category_learning/Stimuli/Experimental_stims/bowl/AMIXBOWL2.jpg,/static/Category_learning/Stimuli/Experimental_stims/bowl/ABOWL8.jpg,1.0,bowl,bowl,20.0,20.0,bowl2,bowl3,40.0,40.0,0.0,46.615,0.615,,,,,,
374,,confirmation,,html-keyboard-response,374,509557,0.0-1.0-75.0-0.0-1.0-0.0,0,0,44248,,,,,,73.0,,,,,2.0,,,,,,,,,,,,,,,,,,,,,,,,,,,47.5,0.885,,,,,,
375,,isi,,html-keyboard-response,375,511060,0.0-1.0-75.0-0.0-2.0,0,0,44248,,,,,,73.0,,,,,2.0,,,,,,,,,,,,,,,,,,,,,,,,,,,49.0,1.5,,,,,,
376,,feedback,,html-keyboard-response,376,512064,0.0-1.0-75.0-0.0-3.0-0.0,0,0,44248,,,,,,73.0,,,,,2.0,,,,,,,,,,,,,,,,,,,,,,,,,,,50.0,1.0,,,,,,
377,,iti,,html-keyboard-response,377,513567,0.0-1.0-75.0-0.0-5.0,0,0,44248,,,,,,73.0,,,,,2.0,,,,,,,,,,,,,,,,,,,,,,,,,,,51.5,1.5,,,,,,
378,,choice,,html-keyboard-response,378,514442,0.0-1.0-76.0-0.0-0.0,0,0,44248,,872.0,,,75.0,74.0,74.0,1000.0,2000.0,0.0,2.0,0.0,20-60,,0.0,flashlight,poker card,20.0,60.0,flashlight8,poker card12,40.0,80.0,Streamlight-Stinger-Rechargeable-Flashlight-with-Charger-Black-75014-B00008BFSI-L.jpg,22865676.thl.jpg,/static/Category_learning/Stimuli/Experimental_stims/flashlight/Streamlight-Stinger-Rechargeable-Flashlight-with-Charger-Black-75014-B00008BFSI-L.jpg,/static/Category_learning/Stimuli/Experimental_stims/poker card/22865676.thl.jpg,0.0,poker card,flashlight,60.0,20.0,poker card12,flashlight8,80.0,40.0,0.0,52.372,0.872,,,,,,
379,,confirmation,,html-keyboard-response,379,515073,0.0-1.0-76.0-0.0-1.0-0.0,0,0,44248,,,,,,74.0,,,,,2.0,,,,,,,,,,,,,,,,,,,,,,,,,,,53.0,0.628,,,,,,
380,,isi,,html-keyboard-response,380,516077,0.0-1.0-76.0-0.0-2.0,0,0,44248,,,,,,74.0,,,,,2.0,,,,,,,,,,,,,,,,,,,,,,,,,,,54.0,1.0,,,,,,
381,,feedback,,html-keyboard-response,381,517080,0.0-1.0-76.0-0.0-3.0-0.0,0,0,44248,,,,,,74.0,,,,,2.0,,,,,,,,,,,,,,,,,,,,,,,,,,,55.0,1.0,,,,,,
382,,iti,,html-keyboard-response,382,519082,0.0-1.0-76.0-0.0-5.0,0,0,44248,,,,,,74.0,,,,,2.0,,,,,,,,,,,,,,,,,,,,,,,,,,,57.0,2.0,,,,,,
383,,choice,,html-keyboard-response,383,519721,0.0-1.0-77.0-0.0-0.0,0,0,44248,,637.0,,,68.0,75.0,75.0,1500.0,1000.0,0.0,2.0,0.0,20-80,,0.0,bongo,stool,20.0,80.0,bongo3,stool4,20.0,60.0,26390697.thl.jpg,ASTOOL22.jpg,/static/Category_learning/Stimuli/Experimental_stims/bongo/26390697.thl.jpg,/static/Category_learning/Stimuli/Experimental_stims/stool/ASTOOL22.jpg,1.0,bongo,stool,20.0,80.0,bongo3,stool4,20.0,60.0,0.0,57.637,0.637,,,,,,
384,,confirmation,,html-keyboard-response,384,520589,0.0-1.0-77.0-0.0-1.0-0.0,0,0,44248,,,,,,75.0,,,,,2.0,,,,,,,,,,,,,,,,,,,,,,,,,,,58.5,0.863,,,,,,
385,,isi,,html-keyboard-response,385,522093,0.0-1.0-77.0-0.0-2.0,0,0,44248,,,,,,75.0,,,,,2.0,,,,,,,,,,,,,,,,,,,,,,,,,,,60.0,1.5,,,,,,
386,,feedback,,html-keyboard-response,386,523097,0.0-1.0-77.0-0.0-3.0-0.0,0,0,44248,,,,,,75.0,,,,,2.0,,,,,,,,,,,,,,,,,,,,,,,,,,,61.0,1.0,,,,,,
387,,iti,,html-keyboard-response,387,524099,0.0-1.0-77.0-0.0-5.0,0,0,44248,,,,,,75.0,,,,,2.0,,,,,,,,,,,,,,,,,,,,,,,,,,,62.0,1.0,,,,,,
388,,choice,,html-keyboard-response,388,524858,0.0-1.0-78.0-0.0-0.0,0,0,44248,,756.0,,,75.0,76.0,76.0,3000.0,2000.0,0.0,2.0,0.0,40-40,,,makeup compact,motorcycle,40.0,40.0,makeup compact6,motorcycle8,20.0,20.0,P0754_hero.jpg,Motorcycle903425j2.jpg,/static/Category_learning/Stimuli/Experimental_stims/makeup compact/P0754_hero.jpg,/static/Category_learning/Stimuli/Experimental_stims/motorcycle/Motorcycle903425j2.jpg,0.0,motorcycle,makeup compact,40.0,40.0,motorcycle8,makeup compact6,20.0,20.0,0.0,62.756,0.756,,,,,,
389,,confirmation,,html-keyboard-response,389,525606,0.0-1.0-78.0-0.0-1.0-0.0,0,0,44248,,,,,,76.0,,,,,2.0,,,,,,,,,,,,,,,,,,,,,,,,,,,63.5,0.744,,,,,,
390,,isi,,html-keyboard-response,390,528609,0.0-1.0-78.0-0.0-2.0,0,0,44248,,,,,,76.0,,,,,2.0,,,,,,,,,,,,,,,,,,,,,,,,,,,66.5,3.0,,,,,,
391,,feedback,,html-keyboard-response,391,529612,0.0-1.0-78.0-0.0-3.0-0.0,0,0,44248,,,,,,76.0,,,,,2.0,,,,,,,,,,,,,,,,,,,,,,,,,,,67.5,1.0,,,,,,
392,,iti,,html-keyboard-response,392,531627,0.0-1.0-78.0-0.0-5.0,0,0,44248,,,,,,76.0,,,,,2.0,,,,,,,,,,,,,,,,,,,,,,,,,,,69.5,2.0,,,,,,
393,,choice,,html-keyboard-response,393,532362,0.0-1.0-79.0-0.0-0.0,0,0,44248,,732.0,,,75.0,77.0,77.0,3000.0,1000.0,0.0,2.0,1.0,20-20,1.0,,bongo,bongo,20.0,20.0,bongo13,bongo3,0.0,20.0,26388718.thl.jpg,26390697.thl.jpg,/static/Category_learning/Stimuli/Experimental_stims/bongo/26388718.thl.jpg,/static/Category_learning/Stimuli/Experimental_stims/bongo/26390697.thl.jpg,0.0,bongo,bongo,20.0,20.0,bongo3,bongo13,20.0,0.0,0.0,70.232,0.732,,,,,,
394,,confirmation,,html-keyboard-response,394,533133,0.0-1.0-79.0-0.0-1.0-0.0,0,0,44248,,,,,,77.0,,,,,2.0,,,,,,,,,,,,,,,,,,,,,,,,,,,71.0,0.768,,,,,,
395,,isi,,html-keyboard-response,395,536136,0.0-1.0-79.0-0.0-2.0,0,0,44248,,,,,,77.0,,,,,2.0,,,,,,,,,,,,,,,,,,,,,,,,,,,74.0,3.0,,,,,,
396,,feedback,,html-keyboard-response,396,537139,0.0-1.0-79.0-0.0-3.0-0.0,0,0,44248,,,,,,77.0,,,,,2.0,,,,,,,,,,,,,,,,,,,,,,,,,,,75.0,1.0,,,,,,
397,,iti,,html-keyboard-response,397,538141,0.0-1.0-79.0-0.0-5.0,0,0,44248,,,,,,77.0,,,,,2.0,,,,,,,,,,,,,,,,,,,,,,,,,,,76.0,1.0,,,,,,
398,,choice,,html-keyboard-response,398,538914,0.0-1.0-80.0-0.0-0.0,0,0,44248,,770.0,,,68.0,78.0,78.0,1500.0,1000.0,0.0,2.0,0.0,60-60,,,patio lounge chair,pen,60.0,60.0,patio lounge chair9,pen6,60.0,40.0,43-3.jpg,executive_pen2.jpg,/static/Category_learning/Stimuli/Experimental_stims/patio lounge chair/43-3.jpg,/static/Category_learning/Stimuli/Experimental_stims/pen/executive_pen2.jpg,1.0,patio lounge chair,pen,60.0,60.0,patio lounge chair9,pen6,60.0,40.0,0.0,76.77,0.77,,,,,,
399,,confirmation,,html-keyboard-response,399,539646,0.0-1.0-80.0-0.0-1.0-0.0,0,0,44248,,,,,,78.0,,,,,2.0,,,,,,,,,,,,,,,,,,,,,,,,,,,77.5,0.73,,,,,,
400,,isi,,html-keyboard-response,400,541150,0.0-1.0-80.0-0.0-2.0,0,0,44248,,,,,,78.0,,,,,2.0,,,,,,,,,,,,,,,,,,,,,,,,,,,79.0,1.5,,,,,,
401,,feedback,,html-keyboard-response,401,542152,0.0-1.0-80.0-0.0-3.0-0.0,0,0,44248,,,,,,78.0,,,,,2.0,,,,,,,,,,,,,,,,,,,,,,,,,,,80.0,1.0,,,,,,
402,,iti,,html-keyboard-response,402,543155,0.0-1.0-80.0-0.0-5.0,0,0,44248,,,,,,78.0,,,,,2.0,,,,,,,,,,,,,,,,,,,,,,,,,,,81.0,1.0,,,,,,
403,,choice,,html-keyboard-response,403,543850,0.0-1.0-81.0-0.0-0.0,0,0,44248,,692.0,,,68.0,79.0,79.0,1000.0,2000.0,0.0,2.0,1.0,80-80,1.0,,stool,stool,80.0,80.0,stool15,stool2,100.0,60.0,ASTOOL.jpg,ASTOOL46.jpg,/static/Category_learning/Stimuli/Experimental_stims/stool/ASTOOL.jpg,/static/Category_learning/Stimuli/Experimental_stims/stool/ASTOOL46.jpg,1.0,stool,stool,80.0,80.0,stool15,stool2,100.0,60.0,0.0,81.692,0.692,,,,,,
404,,confirmation,,html-keyboard-response,404,544669,0.0-1.0-81.0-0.0-1.0-0.0,0,0,44248,,,,,,79.0,,,,,2.0,,,,,,,,,,,,,,,,,,,,,,,,,,,82.5,0.808,,,,,,
405,,isi,,html-keyboard-response,405,545672,0.0-1.0-81.0-0.0-2.0,0,0,44248,,,,,,79.0,,,,,2.0,,,,,,,,,,,,,,,,,,,,,,,,,,,83.5,1.0,,,,,,
406,,feedback,,html-keyboard-response,406,546674,0.0-1.0-81.0-0.0-3.0-0.0,0,0,44248,,,,,,79.0,,,,,2.0,,,,,,,,,,,,,,,,,,,,,,,,,,,84.5,1.0,,,,,,
407,,iti,,html-keyboard-response,407,548677,0.0-1.0-81.0-0.0-5.0,0,0,44248,,,,,,79.0,,,,,2.0,,,,,,,,,,,,,,,,,,,,,,,,,,,86.5,2.0,,,,,,
408,,choice,,html-keyboard-response,408,549697,0.0-1.0-82.0-0.0-0.0,0,0,44248,,1018.0,,,75.0,80.0,80.0,2000.0,1000.0,0.0,2.0,0.0,20-60,,0.0,bowl,necklace,20.0,60.0,bowl7,necklace4,20.0,40.0,Abowl54.jpg,emerald_diamond_necklace.jpg,/static/Category_learning/Stimuli/Experimental_stims/bowl/Abowl54.jpg,/static/Category_learning/Stimuli/Experimental_stims/necklace/emerald_diamond_necklace.jpg,0.0,necklace,bowl,60.0,20.0,necklace4,bowl7,40.0,20.0,0.0,87.518,1.018,,,,,,
409,,confirmation,,html-keyboard-response,409,550182,0.0-1.0-82.0-0.0-1.0-0.0,0,0,44248,,,,,,80.0,,,,,2.0,,,,,,,,,,,,,,,,,,,,,,,,,,,88.0,0.482,,,,,,
410,,isi,,html-keyboard-response,410,552185,0.0-1.0-82.0-0.0-2.0,0,0,44248,,,,,,80.0,,,,,2.0,,,,,,,,,,,,,,,,,,,,,,,,,,,90.0,2.0,,,,,,
411,,feedback,,html-keyboard-response,411,553188,0.0-1.0-82.0-0.0-3.0-0.0,0,0,44248,,,,,,80.0,,,,,2.0,,,,,,,,,,,,,,,,,,,,,,,,,,,91.0,1.0,,,,,,
412,,iti,,html-keyboard-response,412,554191,0.0-1.0-82.0-0.0-5.0,0,0,44248,,,,,,80.0,,,,,2.0,,,,,,,,,,,,,,,,,,,,,,,,,,,92.0,1.0,,,,,,
413,,choice,,html-keyboard-response,413,554985,0.0-1.0-83.0-0.0-0.0,0,0,44248,,792.0,,,68.0,81.0,81.0,1500.0,1000.0,0.0,2.0,0.0,20-80,,1.0,vase,bongo,80.0,20.0,vase11,bongo12,100.0,40.0,Ethnic_Ceramic_Vase.jpg,26686609.thl.jpg,/static/Category_learning/Stimuli/Experimental_stims/vase/Ethnic_Ceramic_Vase.jpg,/static/Category_learning/Stimuli/Experimental_stims/bongo/26686609.thl.jpg,1.0,vase,bongo,80.0,20.0,vase11,bongo12,100.0,40.0,0.0,92.792,0.792,,,,,,
414,,confirmation,,html-keyboard-response,414,555696,0.0-1.0-83.0-0.0-1.0-0.0,0,0,44248,,,,,,81.0,,,,,2.0,,,,,,,,,,,,,,,,,,,,,,,,,,,93.5,0.708,,,,,,
415,,isi,,html-keyboard-response,415,557200,0.0-1.0-83.0-0.0-2.0,0,0,44248,,,,,,81.0,,,,,2.0,,,,,,,,,,,,,,,,,,,,,,,,,,,95.0,1.5,,,,,,
416,,feedback,,html-keyboard-response,416,558204,0.0-1.0-83.0-0.0-3.0-0.0,0,0,44248,,,,,,81.0,,,,,2.0,,,,,,,,,,,,,,,,,,,,,,,,,,,96.0,1.0,,,,,,
417,,iti,,html-keyboard-response,417,559207,0.0-1.0-83.0-0.0-5.0,0,0,44248,,,,,,81.0,,,,,2.0,,,,,,,,,,,,,,,,,,,,,,,,,,,97.0,1.0,,,,,,
418,,choice,,html-keyboard-response,418,559953,0.0-1.0-84.0-0.0-0.0,0,0,44248,,743.0,,,75.0,82.0,82.0,1000.0,1500.0,0.0,2.0,0.0,40-80,,1.0,yarn,makeup compact,80.0,40.0,yarn10,makeup compact7,60.0,20.0,revelation-yarn.jpg,P187133_hero.jpg,/static/Category_learning/Stimuli/Experimental_stims/yarn/revelation-yarn.jpg,/static/Category_learning/Stimuli/Experimental_stims/makeup compact/P187133_hero.jpg,0.0,makeup compact,yarn,40.0,80.0,makeup compact7,yarn10,20.0,60.0,0.0,97.743,0.743,,,,,,
419,,confirmation,,html-keyboard-response,419,560713,0.0-1.0-84.0-0.0-1.0-0.0,0,0,44248,,,,,,82.0,,,,,2.0,,,,,,,,,,,,,,,,,,,,,,,,,,,98.5,0.757,,,,,,
420,,isi,,html-keyboard-response,420,561716,0.0-1.0-84.0-0.0-2.0,0,0,44248,,,,,,82.0,,,,,2.0,,,,,,,,,,,,,,,,,,,,,,,,,,,99.5,1.0,,,,,,
421,,feedback,,html-keyboard-response,421,562718,0.0-1.0-84.0-0.0-3.0-0.0,0,0,44248,,,,,,82.0,,,,,2.0,,,,,,,,,,,,,,,,,,,,,,,,,,,100.5,1.0,,,,,,
422,,iti,,html-keyboard-response,422,564220,0.0-1.0-84.0-0.0-5.0,0,0,44248,,,,,,82.0,,,,,2.0,,,,,,,,,,,,,,,,,,,,,,,,,,,102.0,1.5,,,,,,
423,,choice,,html-keyboard-response,423,565217,0.0-1.0-85.0-0.0-0.0,0,0,44248,,994.0,,,68.0,83.0,83.0,1000.0,2000.0,0.0,2.0,1.0,40-40,1.0,,makeup compact,makeup compact,40.0,40.0,makeup compact9,makeup compact7,40.0,20.0,b_102019.jpg,P187133_hero.jpg,/static/Category_learning/Stimuli/Experimental_stims/makeup compact/b_102019.jpg,/static/Category_learning/Stimuli/Experimental_stims/makeup compact/P187133_hero.jpg,1.0,makeup compact,makeup compact,40.0,40.0,makeup compact9,makeup compact7,40.0,20.0,0.0,102.994,0.994,,,,,,
424,,confirmation,,html-keyboard-response,424,565727,0.0-1.0-85.0-0.0-1.0-0.0,0,0,44248,,,,,,83.0,,,,,2.0,,,,,,,,,,,,,,,,,,,,,,,,,,,103.5,0.506,,,,,,
425,,isi,,html-keyboard-response,425,566728,0.0-1.0-85.0-0.0-2.0,0,0,44248,,,,,,83.0,,,,,2.0,,,,,,,,,,,,,,,,,,,,,,,,,,,104.5,1.0,,,,,,
426,,feedback,,html-keyboard-response,426,567731,0.0-1.0-85.0-0.0-3.0-0.0,0,0,44248,,,,,,83.0,,,,,2.0,,,,,,,,,,,,,,,,,,,,,,,,,,,105.5,1.0,,,,,,
427,,iti,,html-keyboard-response,427,569734,0.0-1.0-85.0-0.0-5.0,0,0,44248,,,,,,83.0,,,,,2.0,,,,,,,,,,,,,,,,,,,,,,,,,,,107.5,2.0,,,,,,
428,,choice,,html-keyboard-response,428,570521,0.0-1.0-86.0-0.0-0.0,0,0,44248,,785.0,,,75.0,84.0,84.0,1500.0,1000.0,0.0,2.0,0.0,20-60,,1.0,sofa,door knob,60.0,20.0,sofa14,door knob3,40.0,40.0,HENRY-Sofa-falg8068-05-72X34X34.jpg,020f7ec6-df08-40fa-b3a5-0dcfb762f085_4.jpg,/static/Category_learning/Stimuli/Experimental_stims/sofa/HENRY-Sofa-falg8068-05-72X34X34.jpg,/static/Category_learning/Stimuli/Experimental_stims/door knob/020f7ec6-df08-40fa-b3a5-0dcfb762f085_4.jpg,0.0,door knob,sofa,20.0,60.0,door knob3,sofa14,40.0,40.0,0.0,108.285,0.785,,,,,,
429,,confirmation,,html-keyboard-response,429,571240,0.0-1.0-86.0-0.0-1.0-0.0,0,0,44248,,,,,,84.0,,,,,2.0,,,,,,,,,,,,,,,,,,,,,,,,,,,109.0,0.715,,,,,,
430,,isi,,html-keyboard-response,430,572742,0.0-1.0-86.0-0.0-2.0,0,0,44248,,,,,,84.0,,,,,2.0,,,,,,,,,,,,,,,,,,,,,,,,,,,110.5,1.5,,,,,,
431,,feedback,,html-keyboard-response,431,573745,0.0-1.0-86.0-0.0-3.0-0.0,0,0,44248,,,,,,84.0,,,,,2.0,,,,,,,,,,,,,,,,,,,,,,,,,,,111.5,1.0,,,,,,
432,,iti,,html-keyboard-response,432,574747,0.0-1.0-86.0-0.0-5.0,0,0,44248,,,,,,84.0,,,,,2.0,,,,,,,,,,,,,,,,,,,,,,,,,,,112.5,1.0,,,,,,
433,,choice,,html-keyboard-response,433,575481,0.0-1.0-87.0-0.0-0.0,0,0,44248,,732.0,,,68.0,85.0,85.0,3000.0,1000.0,0.0,2.0,1.0,20-20,1.0,,door knob,door knob,20.0,20.0,door knob3,door knob1,40.0,0.0,020f7ec6-df08-40fa-b3a5-0dcfb762f085_4.jpg,Brass_Door_Handle.jpg,/static/Category_learning/Stimuli/Experimental_stims/door knob/020f7ec6-df08-40fa-b3a5-0dcfb762f085_4.jpg,/static/Category_learning/Stimuli/Experimental_stims/door knob/Brass_Door_Handle.jpg,1.0,door knob,door knob,20.0,20.0,door knob3,door knob1,40.0,0.0,0.0,113.232,0.732,,,,,,
434,,confirmation,,html-keyboard-response,434,576252,0.0-1.0-87.0-0.0-1.0-0.0,0,0,44248,,,,,,85.0,,,,,2.0,,,,,,,,,,,,,,,,,,,,,,,,,,,114.0,0.768,,,,,,
435,,isi,,html-keyboard-response,435,579254,0.0-1.0-87.0-0.0-2.0,0,0,44248,,,,,,85.0,,,,,2.0,,,,,,,,,,,,,,,,,,,,,,,,,,,117.0,3.0,,,,,,
436,,feedback,,html-keyboard-response,436,580258,0.0-1.0-87.0-0.0-3.0-0.0,0,0,44248,,,,,,85.0,,,,,2.0,,,,,,,,,,,,,,,,,,,,,,,,,,,118.0,1.0,,,,,,
437,,iti,,html-keyboard-response,437,581261,0.0-1.0-87.0-0.0-5.0,0,0,44248,,,,,,85.0,,,,,2.0,,,,,,,,,,,,,,,,,,,,,,,,,,,119.0,1.0,,,,,,
438,,choice,,html-keyboard-response,438,582017,0.0-1.0-88.0-0.0-0.0,0,0,44248,,753.0,,,75.0,86.0,86.0,2000.0,1500.0,0.0,2.0,0.0,20-20,,,fan,bowl,20.0,20.0,fan3,bowl1,20.0,0.0,CFT401.jpg,ABOWLS6.jpg,/static/Category_learning/Stimuli/Experimental_stims/fan/CFT401.jpg,/static/Category_learning/Stimuli/Experimental_stims/bowl/ABOWLS6.jpg,0.0,bowl,fan,20.0,20.0,bowl1,fan3,0.0,20.0,0.0,119.753,0.753,,,,,,
439,,confirmation,,html-keyboard-response,439,582767,0.0-1.0-88.0-0.0-1.0-0.0,0,0,44248,,,,,,86.0,,,,,2.0,,,,,,,,,,,,,,,,,,,,,,,,,,,120.5,0.747,,,,,,
440,,isi,,html-keyboard-response,440,584771,0.0-1.0-88.0-0.0-2.0,0,0,44248,,,,,,86.0,,,,,2.0,,,,,,,,,,,,,,,,,,,,,,,,,,,122.5,2.0,,,,,,
441,,feedback,,html-keyboard-response,441,585777,0.0-1.0-88.0-0.0-3.0-0.0,0,0,44248,,,,,,86.0,,,,,2.0,,,,,,,,,,,,,,,,,,,,,,,,,,,123.5,1.0,,,,,,
442,,iti,,html-keyboard-response,442,587280,0.0-1.0-88.0-0.0-5.0,0,0,44248,,,,,,86.0,,,,,2.0,,,,,,,,,,,,,,,,,,,,,,,,,,,125.0,1.5,,,,,,
443,,choice,,html-keyboard-response,443,587985,0.0-1.0-89.0-0.0-0.0,0,0,44248,,702.0,,,75.0,87.0,87.0,1000.0,1500.0,0.0,2.0,1.0,80-80,1.0,,vase,vase,80.0,80.0,vase11,vase14,100.0,80.0,Ethnic_Ceramic_Vase.jpg,Avase119.jpg,/static/Category_learning/Stimuli/Experimental_stims/vase/Ethnic_Ceramic_Vase.jpg,/static/Category_learning/Stimuli/Experimental_stims/vase/Avase119.jpg,0.0,vase,vase,80.0,80.0,vase14,vase11,80.0,100.0,0.0,125.702,0.702,,,,,,
444,,confirmation,,html-keyboard-response,444,588786,0.0-1.0-89.0-0.0-1.0-0.0,0,0,44248,,,,,,87.0,,,,,2.0,,,,,,,,,,,,,,,,,,,,,,,,,,,126.5,0.798,,,,,,
445,,isi,,html-keyboard-response,445,589789,0.0-1.0-89.0-0.0-2.0,0,0,44248,,,,,,87.0,,,,,2.0,,,,,,,,,,,,,,,,,,,,,,,,,,,127.5,1.0,,,,,,
446,,feedback,,html-keyboard-response,446,590793,0.0-1.0-89.0-0.0-3.0-0.0,0,0,44248,,,,,,87.0,,,,,2.0,,,,,,,,,,,,,,,,,,,,,,,,,,,128.5,1.0,,,,,,
447,,iti,,html-keyboard-response,447,592295,0.0-1.0-89.0-0.0-5.0,0,0,44248,,,,,,87.0,,,,,2.0,,,,,,,,,,,,,,,,,,,,,,,,,,,130.0,1.5,,,,,,
448,,choice,,html-keyboard-response,448,593145,0.0-1.0-90.0-0.0-0.0,0,0,44248,,848.0,,,68.0,88.0,88.0,1000.0,1000.0,0.0,2.0,0.0,40-60,,0.0,hammer,power strip,40.0,60.0,hammer7,power strip13,60.0,60.0,hammer01.jpg,01dccef1-d4b2-4d2e-a317-f2ed46b70b4b_400.jpg,/static/Category_learning/Stimuli/Experimental_stims/hammer/hammer01.jpg,/static/Category_learning/Stimuli/Experimental_stims/power strip/01dccef1-d4b2-4d2e-a317-f2ed46b70b4b_400.jpg,1.0,hammer,power strip,40.0,60.0,hammer7,power strip13,60.0,60.0,0.0,130.848,0.848,,,,,,
449,,confirmation,,html-keyboard-response,449,593801,0.0-1.0-90.0-0.0-1.0-0.0,0,0,44248,,,,,,88.0,,,,,2.0,,,,,,,,,,,,,,,,,,,,,,,,,,,131.5,0.652,,,,,,
450,,isi,,html-keyboard-response,450,594804,0.0-1.0-90.0-0.0-2.0,0,0,44248,,,,,,88.0,,,,,2.0,,,,,,,,,,,,,,,,,,,,,,,,,,,132.5,1.0,,,,,,
451,,feedback,,html-keyboard-response,451,595808,0.0-1.0-90.0-0.0-3.0-0.0,0,0,44248,,,,,,88.0,,,,,2.0,,,,,,,,,,,,,,,,,,,,,,,,,,,133.5,1.0,,,,,,
452,,iti,,html-keyboard-response,452,596811,0.0-1.0-90.0-0.0-5.0,0,0,44248,,,,,,88.0,,,,,2.0,,,,,,,,,,,,,,,,,,,,,,,,,,,134.5,1.0,,,,,,
453,,choice,,html-keyboard-response,453,597497,0.0-1.0-91.0-0.0-0.0,0,0,44248,,684.0,,,68.0,89.0,89.0,1500.0,3500.0,0.0,2.0,0.0,20-60,,0.0,baby carriage,poker card,20.0,60.0,baby carriage10,poker card7,0.0,80.0,peg_perego_uno_blu.jpg,22864416.thl.jpg,/static/Category_learning/Stimuli/Experimental_stims/baby carriage/peg_perego_uno_blu.jpg,/static/Category_learning/Stimuli/Experimental_stims/poker card/22864416.thl.jpg,1.0,baby carriage,poker card,20.0,60.0,baby carriage10,poker card7,0.0,80.0,0.0,135.184,0.684,,,,,,
454,,confirmation,,html-keyboard-response,454,598316,0.0-1.0-91.0-0.0-1.0-0.0,0,0,44248,,,,,,89.0,,,,,2.0,,,,,,,,,,,,,,,,,,,,,,,,,,,136.0,0.816,,,,,,
455,,isi,,html-keyboard-response,455,599819,0.0-1.0-91.0-0.0-2.0,0,0,44248,,,,,,89.0,,,,,2.0,,,,,,,,,,,,,,,,,,,,,,,,,,,137.5,1.5,,,,,,
456,,feedback,,html-keyboard-response,456,600822,0.0-1.0-91.0-0.0-3.0-0.0,0,0,44248,,,,,,89.0,,,,,2.0,,,,,,,,,,,,,,,,,,,,,,,,,,,138.5,1.0,,,,,,
457,,iti,,html-keyboard-response,457,604324,0.0-1.0-91.0-0.0-5.0,0,0,44248,,,,,,89.0,,,,,2.0,,,,,,,,,,,,,,,,,,,,,,,,,,,142.0,3.5,,,,,,
458,,choice,,html-keyboard-response,458,604921,0.0-1.0-92.0-0.0-0.0,0,0,44248,,593.0,,,68.0,90.0,90.0,1000.0,1000.0,0.0,2.0,0.0,40-80,,1.0,vase,motorcycle,80.0,40.0,vase1,motorcycle9,60.0,40.0,Avase114.jpg,speedbike.jpg,/static/Category_learning/Stimuli/Experimental_stims/vase/Avase114.jpg,/static/Category_learning/Stimuli/Experimental_stims/motorcycle/speedbike.jpg,1.0,vase,motorcycle,80.0,40.0,vase1,motorcycle9,60.0,40.0,0.0,142.593,0.593,,,,,,
459,,confirmation,,html-keyboard-response,459,605833,0.0-1.0-92.0-0.0-1.0-0.0,0,0,44248,,,,,,90.0,,,,,2.0,,,,,,,,,,,,,,,,,,,,,,,,,,,143.5,0.907,,,,,,
460,,isi,,html-keyboard-response,460,606836,0.0-1.0-92.0-0.0-2.0,0,0,44248,,,,,,90.0,,,,,2.0,,,,,,,,,,,,,,,,,,,,,,,,,,,144.5,1.0,,,,,,
461,,feedback,,html-keyboard-response,461,607838,0.0-1.0-92.0-0.0-3.0-0.0,0,0,44248,,,,,,90.0,,,,,2.0,,,,,,,,,,,,,,,,,,,,,,,,,,,145.5,1.0,,,,,,
462,,iti,,html-keyboard-response,462,608841,0.0-1.0-92.0-0.0-5.0,0,0,44248,,,,,,90.0,,,,,2.0,,,,,,,,,,,,,,,,,,,,,,,,,,,146.5,1.0,,,,,,
463,,choice,,html-keyboard-response,463,610057,0.0-1.0-93.0-0.0-0.0,0,0,44248,,1214.0,,,68.0,91.0,91.0,3500.0,3500.0,0.0,2.0,0.0,80-80,,,tent,train,80.0,80.0,tent9,train14,60.0,100.0,Red Canyon Tent.jpg,images-products-childcraft-g83501.jpg,/static/Category_learning/Stimuli/Experimental_stims/tent/Red Canyon Tent.jpg,/static/Category_learning/Stimuli/Experimental_stims/train/images-products-childcraft-g83501.jpg,1.0,tent,train,80.0,80.0,tent9,train14,60.0,100.0,0.0,147.714,1.214,,,,,,
464,,confirmation,,html-keyboard-response,464,610347,0.0-1.0-93.0-0.0-1.0-0.0,0,0,44248,,,,,,91.0,,,,,2.0,,,,,,,,,,,,,,,,,,,,,,,,,,,148.0,0.286,,,,,,
465,,isi,,html-keyboard-response,465,613849,0.0-1.0-93.0-0.0-2.0,0,0,44248,,,,,,91.0,,,,,2.0,,,,,,,,,,,,,,,,,,,,,,,,,,,151.5,3.5,,,,,,
466,,feedback,,html-keyboard-response,466,614852,0.0-1.0-93.0-0.0-3.0-0.0,0,0,44248,,,,,,91.0,,,,,2.0,,,,,,,,,,,,,,,,,,,,,,,,,,,152.5,1.0,,,,,,
467,,iti,,html-keyboard-response,467,618354,0.0-1.0-93.0-0.0-5.0,0,0,44248,,,,,,91.0,,,,,2.0,,,,,,,,,,,,,,,,,,,,,,,,,,,156.0,3.5,,,,,,
468,,choice,,html-keyboard-response,468,619705,0.0-1.0-94.0-0.0-0.0,0,0,44248,,1348.0,,,75.0,92.0,92.0,1000.0,1000.0,0.0,2.0,0.0,20-60,,1.0,patio lounge chair,door knob,60.0,20.0,patio lounge chair5,door knob6,40.0,20.0,Steel_Assembling_Lounge.jpg,30fdcb17-b0fd-4f26-8cd8-11adde46fb79_4.jpg,/static/Category_learning/Stimuli/Experimental_stims/patio lounge chair/Steel_Assembling_Lounge.jpg,/static/Category_learning/Stimuli/Experimental_stims/door knob/30fdcb17-b0fd-4f26-8cd8-11adde46fb79_4.jpg,0.0,door knob,patio lounge chair,20.0,60.0,door knob6,patio lounge chair5,20.0,40.0,0.0,157.348,1.348,,,,,,
469,,confirmation,,html-keyboard-response,469,619861,0.0-1.0-94.0-0.0-1.0-0.0,0,0,44248,,,,,,92.0,,,,,2.0,,,,,,,,,,,,,,,,,,,,,,,,,,,157.5,0.152,,,,,,
470,,isi,,html-keyboard-response,470,620877,0.0-1.0-94.0-0.0-2.0,0,0,44248,,,,,,92.0,,,,,2.0,,,,,,,,,,,,,,,,,,,,,,,,,,,158.5,1.0,,,,,,
471,,feedback,,html-keyboard-response,471,621879,0.0-1.0-94.0-0.0-3.0-0.0,0,0,44248,,,,,,92.0,,,,,2.0,,,,,,,,,,,,,,,,,,,,,,,,,,,159.5,1.0,,,,,,
472,,iti,,html-keyboard-response,472,622882,0.0-1.0-94.0-0.0-5.0,0,0,44248,,,,,,92.0,,,,,2.0,,,,,,,,,,,,,,,,,,,,,,,,,,,160.5,1.0,,,,,,
473,,choice,,html-keyboard-response,473,623817,0.0-1.0-95.0-0.0-0.0,0,0,44248,,933.0,,,75.0,93.0,93.0,1000.0,1000.0,0.0,2.0,1.0,60-60,1.0,,poker card,poker card,60.0,60.0,poker card12,poker card5,80.0,40.0,22865676.thl.jpg,22864800.thl.jpg,/static/Category_learning/Stimuli/Experimental_stims/poker card/22865676.thl.jpg,/static/Category_learning/Stimuli/Experimental_stims/poker card/22864800.thl.jpg,0.0,poker card,poker card,60.0,60.0,poker card5,poker card12,40.0,80.0,0.0,161.433,0.933,,,,,,
474,,confirmation,,html-keyboard-response,474,624387,0.0-1.0-95.0-0.0-1.0-0.0,0,0,44248,,,,,,93.0,,,,,2.0,,,,,,,,,,,,,,,,,,,,,,,,,,,162.0,0.567,,,,,,
475,,isi,,html-keyboard-response,475,625390,0.0-1.0-95.0-0.0-2.0,0,0,44248,,,,,,93.0,,,,,2.0,,,,,,,,,,,,,,,,,,,,,,,,,,,163.0,1.0,,,,,,
476,,feedback,,html-keyboard-response,476,626393,0.0-1.0-95.0-0.0-3.0-0.0,0,0,44248,,,,,,93.0,,,,,2.0,,,,,,,,,,,,,,,,,,,,,,,,,,,164.0,1.0,,,,,,
