,success,ttype,start_time,trial_type,trial_index,time_elapsed,internal_node_id,warning,missed_checkup,PID,view_history,rt,responses,repeat_instructions,key_press,index,trial_num,isi,iti,is_practice,block,old_trial,pair_type,within_category,high_cat_on_left,left_category,right_category,left_category_value,right_category_value,left_exemplar,right_exemplar,left_exemplar_value,right_exemplar_value,left_img,right_img,left_img_path,right_img_path,left_chosen,chosen_category,unchosen_category,chosen_category_value,unchosen_category_value,chosen_exemplar,unchosen_exemplar,chosen_exemplar_value,unchosen_exemplar_value,no_response,onset,duration,end_practice,total_bonus_tally,category,category_group_value,category_value_response,did_not_enter_response
0,True,full_screen,d06072022hr1645,fullscreen,0,12585,0.0-0.0,0,0,46320,,,,,,,,,,,,,,,,,,,,,,,,,,,,,,,,,,,,,,,,,,,,,
1,,category_learning_instructions,,instructions,1,109497,0.0-1.0-0.0-0.0,0,0,46320,"[{""page_index"":0,""viewing_time"":4658},{""page_index"":1,""viewing_time"":23600},{""page_index"":2,""viewing_time"":16850},{""page_index"":3,""viewing_time"":12823},{""page_index"":4,""viewing_time"":19818},{""page_index"":5,""viewing_time"":6591},{""page_index"":6,""viewing_time"":12558}]",96901.0,,,,,,,,,,,,,,,,,,,,,,,,,,,,,,,,,,,,,,,,,,,
2,,category_learning_comprehension_check,,survey-multi-choice,2,153986,0.0-1.0-0.0-1.0,0,0,46320,,44474.0,"{""Q0"":""True"",""Q1"":""True"",""Q2"":""Stay the same"",""Q3"":""D for left and K for right""}",0.0,,,,,,,,,,,,,,,,,,,,,,,,,,,,,,,,,,,,,,,,,
3,,,,html-keyboard-response,3,162766,0.0-1.0-1.0,0,0,46320,,8768.0,,,68.0,,,,,,,,,,,,,,,,,,,,,,,,,,,,,,,,,,,,,,,,
4,,choice,,html-keyboard-response,4,163873,0.0-1.0-2.0-0.0-0.0,0,0,46320,,1098.0,,,68.0,0.0,0.0,1500.0,1000.0,1.0,0.0,0.0,20-80,,0.0,bagel,dumbbell,20.0,80.0,bagel1,dumbbell1,0.0,80.0,bagels_pumpernickel_large.jpg,31B64EN68AL._AA280_.jpg,/static/Category_learning/Stimuli/Practice_stims/bagel/bagels_pumpernickel_large.jpg,/static/Category_learning/Stimuli/Practice_stims/dumbbell/31B64EN68AL._AA280_.jpg,1.0,bagel,dumbbell,20.0,80.0,bagel1,dumbbell1,0.0,80.0,0.0,1.098,1.098,,,,,,
5,,confirmation,,html-keyboard-response,5,164285,0.0-1.0-2.0-0.0-1.0-0.0,0,0,46320,,,,,,0.0,,,,,0.0,,,,,,,,,,,,,,,,,,,,,,,,,,,1.5,0.402,,,,,,
6,,isi,,html-keyboard-response,6,165794,0.0-1.0-2.0-0.0-2.0,0,0,46320,,,,,,0.0,,,,,0.0,,,,,,,,,,,,,,,,,,,,,,,,,,,3.0,1.5,,,,,,
7,,feedback,,html-keyboard-response,7,166806,0.0-1.0-2.0-0.0-3.0-0.0,0,0,46320,,,,,,0.0,,,,,0.0,,,,,,,,,,,,,,,,,,,,,,,,,,,4.0,1.0,,,,,,
8,,iti,,html-keyboard-response,8,167828,0.0-1.0-2.0-0.0-5.0,0,0,46320,,,,,,0.0,,,,,0.0,,,,,,,,,,,,,,,,,,,,,,,,,,,5.0,1.0,,,,,,
9,,choice,,html-keyboard-response,9,168602,0.0-1.0-3.0-0.0-0.0,0,0,46320,,768.0,,,75.0,1.0,1.0,3000.0,1500.0,1.0,0.0,0.0,20-40,,1.0,calculator,bagel,40.0,20.0,calculator2,bagel2,20.0,20.0,22829064.thl.jpg,bagels_cinnraisin_large.jpg,/static/Category_learning/Stimuli/Practice_stims/calculator/22829064.thl.jpg,/static/Category_learning/Stimuli/Practice_stims/bagel/bagels_cinnraisin_large.jpg,0.0,bagel,calculator,20.0,40.0,bagel2,calculator2,20.0,20.0,0.0,5.768,0.768,,,,,,
10,,confirmation,,html-keyboard-response,10,169350,0.0-1.0-3.0-0.0-1.0-0.0,0,0,46320,,,,,,1.0,,,,,0.0,,,,,,,,,,,,,,,,,,,,,,,,,,,6.5,0.732,,,,,,
11,,isi,,html-keyboard-response,11,172361,0.0-1.0-3.0-0.0-2.0,0,0,46320,,,,,,1.0,,,,,0.0,,,,,,,,,,,,,,,,,,,,,,,,,,,9.5,3.0,,,,,,
12,,feedback,,html-keyboard-response,12,173371,0.0-1.0-3.0-0.0-3.0-0.0,0,0,46320,,,,,,1.0,,,,,0.0,,,,,,,,,,,,,,,,,,,,,,,,,,,10.5,1.0,,,,,,
13,,iti,,html-keyboard-response,13,174879,0.0-1.0-3.0-0.0-5.0,0,0,46320,,,,,,1.0,,,,,0.0,,,,,,,,,,,,,,,,,,,,,,,,,,,12.0,1.5,,,,,,
14,,choice,,html-keyboard-response,14,176034,0.0-1.0-4.0-0.0-0.0,0,0,46320,,1144.0,,,68.0,2.0,2.0,2000.0,3000.0,1.0,0.0,0.0,60-80,,0.0,clock,dumbbell,60.0,80.0,clock2,dumbbell2,60.0,100.0,26373355.thl.jpg,31K8MR6TMBL._SS500_.jpg,/static/Category_learning/Stimuli/Practice_stims/clock/26373355.thl.jpg,/static/Category_learning/Stimuli/Practice_stims/dumbbell/31K8MR6TMBL._SS500_.jpg,1.0,clock,dumbbell,60.0,80.0,clock2,dumbbell2,60.0,100.0,0.0,13.144,1.144,,,,,,
15,,confirmation,,html-keyboard-response,15,176399,0.0-1.0-4.0-0.0-1.0-0.0,0,0,46320,,,,,,2.0,,,,,0.0,,,,,,,,,,,,,,,,,,,,,,,,,,,13.5,0.356,,,,,,
16,,isi,,html-keyboard-response,16,178404,0.0-1.0-4.0-0.0-2.0,0,0,46320,,,,,,2.0,,,,,0.0,,,,,,,,,,,,,,,,,,,,,,,,,,,15.5,2.0,,,,,,
17,,feedback,,html-keyboard-response,17,179414,0.0-1.0-4.0-0.0-3.0-0.0,0,0,46320,,,,,,2.0,,,,,0.0,,,,,,,,,,,,,,,,,,,,,,,,,,,16.5,1.0,,,,,,
18,,iti,,html-keyboard-response,18,182423,0.0-1.0-4.0-0.0-5.0,0,0,46320,,,,,,2.0,,,,,0.0,,,,,,,,,,,,,,,,,,,,,,,,,,,19.5,3.0,,,,,,
19,,choice,,html-keyboard-response,19,183549,0.0-1.0-5.0-0.0-0.0,0,0,46320,,1112.0,,,75.0,3.0,3.0,1000.0,2000.0,1.0,0.0,0.0,40-80,,0.0,calculator,clock,40.0,60.0,calculator1,clock1,40.0,40.0,22829184.thl.jpg,Aalarmclock2.jpg,/static/Category_learning/Stimuli/Practice_stims/calculator/22829184.thl.jpg,/static/Category_learning/Stimuli/Practice_stims/clock/Aalarmclock2.jpg,0.0,clock,calculator,60.0,40.0,clock1,calculator1,40.0,40.0,0.0,20.612,1.112,,,,,,
20,,confirmation,,html-keyboard-response,20,183968,0.0-1.0-5.0-0.0-1.0-0.0,0,0,46320,,,,,,3.0,,,,,0.0,,,,,,,,,,,,,,,,,,,,,,,,,,,21.000000000000004,0.388,,,,,,
21,,isi,,html-keyboard-response,21,184975,0.0-1.0-5.0-0.0-2.0,0,0,46320,,,,,,3.0,,,,,0.0,,,,,,,,,,,,,,,,,,,,,,,,,,,22.000000000000004,1.0,,,,,,
22,,feedback,,html-keyboard-response,22,185982,0.0-1.0-5.0-0.0-3.0-0.0,0,0,46320,,,,,,3.0,,,,,0.0,,,,,,,,,,,,,,,,,,,,,,,,,,,23.000000000000004,1.0,,,,,,
23,,iti,,html-keyboard-response,23,187990,0.0-1.0-5.0-0.0-5.0,0,0,46320,,,,,,3.0,,,,,0.0,,,,,,,,,,,,,,,,,,,,,,,,,,,25.000000000000004,2.0,,,,,,
24,,choice,,html-keyboard-response,24,188824,0.0-1.0-6.0-0.0-0.0,0,0,46320,,824.0,,,68.0,4.0,4.0,2500.0,2500.0,1.0,0.0,0.0,20-60,,1.0,dumbbell,bagel,80.0,20.0,dumbbell3,bagel3,100.0,40.0,41K7QVRX50L._SS500_.jpg,photo-169.jpg,/static/Category_learning/Stimuli/Practice_stims/dumbbell/41K7QVRX50L._SS500_.jpg,/static/Category_learning/Stimuli/Practice_stims/bagel/photo-169.jpg,1.0,dumbbell,bagel,80.0,20.0,dumbbell3,bagel3,100.0,40.0,0.0,25.824000000000005,0.824,1.0,,,,,
25,,confirmation,,html-keyboard-response,25,189507,0.0-1.0-6.0-0.0-1.0-0.0,0,0,46320,,,,,,4.0,,,,,0.0,,,,,,,,,,,,,,,,,,,,,,,,,,,26.500000000000004,0.676,,,,,,
26,,isi,,html-keyboard-response,26,192022,0.0-1.0-6.0-0.0-2.0,0,0,46320,,,,,,4.0,,,,,0.0,,,,,,,,,,,,,,,,,,,,,,,,,,,29.000000000000004,2.5,,,,,,
27,,feedback,,html-keyboard-response,27,193034,0.0-1.0-6.0-0.0-3.0-0.0,0,0,46320,,,,,,4.0,,,,,0.0,,,,,,,,,,,,,,,,,,,,,,,,,,,30.000000000000004,1.0,,,,,,
28,,iti,,html-keyboard-response,28,195540,0.0-1.0-6.0-0.0-5.0,0,0,46320,,,,,,4.0,,,,,0.0,,,,,,,,,,,,,,,,,,,,,,,,,,,32.5,2.5,,,,,,
29,,practice_over,,html-keyboard-response,29,212063,0.0-1.0-6.0-0.0-6.0-0.0,0,0,46320,,16512.0,,,68.0,4.0,,,,,,,,,,,,,,,,,,,,,,,,,,,,,,,,,,,,,,,
30,,start_run,,html-keyboard-response,30,219844,0.0-1.0-6.0-0.0-6.0-1.0,0,0,46320,,7764.0,,,84.0,,,,,,,,,,,,,,,,,,,,,,,,,,,,,,,,,,,,,,,,
31,,choice,,html-keyboard-response,31,220986,0.0-1.0-7.0-0.0-0.0,0,0,46320,,1126.0,,,75.0,5.0,5.0,3000.0,2000.0,0.0,1.0,0.0,40-40,,,license plate,hammer,40.0,40.0,license plate13,hammer11,60.0,60.0,usa-rj-9517.jpg,8oz-hammer-copy.jpg,/static/Category_learning/Stimuli/Experimental_stims/license plate/usa-rj-9517.jpg,/static/Category_learning/Stimuli/Experimental_stims/hammer/8oz-hammer-copy.jpg,0.0,hammer,license plate,40.0,40.0,hammer11,license plate13,60.0,60.0,0.0,1.126,1.126,,,,,,
32,,confirmation,,html-keyboard-response,32,221373,0.0-1.0-7.0-0.0-1.0-0.0,0,0,46320,,,,,,5.0,,,,,1.0,,,,,,,,,,,,,,,,,,,,,,,,,,,1.5,0.374,,,,,,
33,,isi,,html-keyboard-response,33,224383,0.0-1.0-7.0-0.0-2.0,0,0,46320,,,,,,5.0,,,,,1.0,,,,,,,,,,,,,,,,,,,,,,,,,,,4.5,3.0,,,,,,
34,,feedback,,html-keyboard-response,34,225391,0.0-1.0-7.0-0.0-3.0-0.0,0,0,46320,,,,,,5.0,,,,,1.0,,,,,,,,,,,,,,,,,,,,,,,,,,,5.5,1.0,,,,,,
35,,iti,,html-keyboard-response,35,227404,0.0-1.0-7.0-0.0-5.0,0,0,46320,,,,,,5.0,,,,,1.0,,,,,,,,,,,,,,,,,,,,,,,,,,,7.5,2.0,,,,,,
36,,choice,,html-keyboard-response,36,228248,0.0-1.0-8.0-0.0-0.0,0,0,46320,,835.0,,,68.0,6.0,6.0,1000.0,1000.0,0.0,1.0,0.0,20-60,,0.0,flashlight,poker card,20.0,60.0,flashlight9,poker card6,40.0,80.0,new06.jpg,22864212.thl.jpg,/static/Category_learning/Stimuli/Experimental_stims/flashlight/new06.jpg,/static/Category_learning/Stimuli/Experimental_stims/poker card/22864212.thl.jpg,1.0,flashlight,poker card,20.0,60.0,flashlight9,poker card6,40.0,80.0,0.0,8.335,0.835,,,,,,
37,,confirmation,,html-keyboard-response,37,228922,0.0-1.0-8.0-0.0-1.0-0.0,0,0,46320,,,,,,6.0,,,,,1.0,,,,,,,,,,,,,,,,,,,,,,,,,,,9.0,0.665,,,,,,
38,,isi,,html-keyboard-response,38,229931,0.0-1.0-8.0-0.0-2.0,0,0,46320,,,,,,6.0,,,,,1.0,,,,,,,,,,,,,,,,,,,,,,,,,,,10.0,1.0,,,,,,
39,,feedback,,html-keyboard-response,39,230995,0.0-1.0-8.0-0.0-3.0-0.0,0,0,46320,,,,,,6.0,,,,,1.0,,,,,,,,,,,,,,,,,,,,,,,,,,,11.0,1.0,,,,,,
40,,iti,,html-keyboard-response,40,232002,0.0-1.0-8.0-0.0-5.0,0,0,46320,,,,,,6.0,,,,,1.0,,,,,,,,,,,,,,,,,,,,,,,,,,,12.0,1.0,,,,,,
41,,choice,,html-keyboard-response,41,232827,0.0-1.0-9.0-0.0-0.0,0,0,46320,,806.0,,,75.0,7.0,7.0,1500.0,3500.0,0.0,1.0,0.0,60-60,,,seashell,nail polish,60.0,60.0,seashell7,nail polish6,60.0,60.0,seashell34.jpg,127_t.jpg,/static/Category_learning/Stimuli/Experimental_stims/seashell/seashell34.jpg,/static/Category_learning/Stimuli/Experimental_stims/nail polish/127_t.jpg,0.0,nail polish,seashell,60.0,60.0,nail polish6,seashell7,60.0,60.0,0.0,12.806,0.806,,,,,,
42,,confirmation,,html-keyboard-response,42,233543,0.0-1.0-9.0-0.0-1.0-0.0,0,0,46320,,,,,,7.0,,,,,1.0,,,,,,,,,,,,,,,,,,,,,,,,,,,13.5,0.694,,,,,,
43,,isi,,html-keyboard-response,43,235050,0.0-1.0-9.0-0.0-2.0,0,0,46320,,,,,,7.0,,,,,1.0,,,,,,,,,,,,,,,,,,,,,,,,,,,15.0,1.5,,,,,,
44,,feedback,,html-keyboard-response,44,236060,0.0-1.0-9.0-0.0-3.0-0.0,0,0,46320,,,,,,7.0,,,,,1.0,,,,,,,,,,,,,,,,,,,,,,,,,,,16.0,1.0,,,,,,
45,,iti,,html-keyboard-response,45,239569,0.0-1.0-9.0-0.0-5.0,0,0,46320,,,,,,7.0,,,,,1.0,,,,,,,,,,,,,,,,,,,,,,,,,,,19.5,3.5,,,,,,
46,,choice,,html-keyboard-response,46,240355,0.0-1.0-10.0-0.0-0.0,0,0,46320,,778.0,,,68.0,8.0,8.0,1500.0,1000.0,0.0,1.0,0.0,40-80,,1.0,telescope,hat,80.0,40.0,telescope3,hat5,100.0,60.0,41V67SB5NJL._SS500_.jpg,AREDHAT4.jpg,/static/Category_learning/Stimuli/Experimental_stims/telescope/41V67SB5NJL._SS500_.jpg,/static/Category_learning/Stimuli/Experimental_stims/hat/AREDHAT4.jpg,1.0,telescope,hat,80.0,40.0,telescope3,hat5,100.0,60.0,0.0,20.278,0.778,,,,,,
47,,confirmation,,html-keyboard-response,47,241087,0.0-1.0-10.0-0.0-1.0-0.0,0,0,46320,,,,,,8.0,,,,,1.0,,,,,,,,,,,,,,,,,,,,,,,,,,,21.0,0.722,,,,,,
48,,isi,,html-keyboard-response,48,242594,0.0-1.0-10.0-0.0-2.0,0,0,46320,,,,,,8.0,,,,,1.0,,,,,,,,,,,,,,,,,,,,,,,,,,,22.5,1.5,,,,,,
49,,feedback,,html-keyboard-response,49,243602,0.0-1.0-10.0-0.0-3.0-0.0,0,0,46320,,,,,,8.0,,,,,1.0,,,,,,,,,,,,,,,,,,,,,,,,,,,23.5,1.0,,,,,,
50,,iti,,html-keyboard-response,50,244611,0.0-1.0-10.0-0.0-5.0,0,0,46320,,,,,,8.0,,,,,1.0,,,,,,,,,,,,,,,,,,,,,,,,,,,24.5,1.0,,,,,,
51,,choice,,html-keyboard-response,51,245777,0.0-1.0-11.0-0.0-0.0,0,0,46320,,1155.0,,,75.0,9.0,9.0,2000.0,3500.0,0.0,1.0,0.0,40-60,,1.0,power strip,makeup compact,60.0,40.0,power strip12,makeup compact1,80.0,60.0,41CXESEH1TL._AA262_.jpg,P190250_hero.jpg,/static/Category_learning/Stimuli/Experimental_stims/power strip/41CXESEH1TL._AA262_.jpg,/static/Category_learning/Stimuli/Experimental_stims/makeup compact/P190250_hero.jpg,0.0,makeup compact,power strip,40.0,60.0,makeup compact1,power strip12,60.0,80.0,0.0,25.655,1.155,,,,,,
52,,confirmation,,html-keyboard-response,52,246137,0.0-1.0-11.0-0.0-1.0-0.0,0,0,46320,,,,,,9.0,,,,,1.0,,,,,,,,,,,,,,,,,,,,,,,,,,,26.0,0.345,,,,,,
53,,isi,,html-keyboard-response,53,248156,0.0-1.0-11.0-0.0-2.0,0,0,46320,,,,,,9.0,,,,,1.0,,,,,,,,,,,,,,,,,,,,,,,,,,,28.0,2.0,,,,,,
54,,feedback,,html-keyboard-response,54,249163,0.0-1.0-11.0-0.0-3.0-0.0,0,0,46320,,,,,,9.0,,,,,1.0,,,,,,,,,,,,,,,,,,,,,,,,,,,29.0,1.0,,,,,,
55,,iti,,html-keyboard-response,55,252675,0.0-1.0-11.0-0.0-5.0,0,0,46320,,,,,,9.0,,,,,1.0,,,,,,,,,,,,,,,,,,,,,,,,,,,32.5,3.5,,,,,,
56,,choice,,html-keyboard-response,56,253429,0.0-1.0-12.0-0.0-0.0,0,0,46320,,740.0,,,68.0,10.0,10.0,1500.0,3500.0,0.0,1.0,1.0,40-60,0.0,,nail polish,hammer,60.0,40.0,nail polish6,hammer11,60.0,60.0,127_t.jpg,8oz-hammer-copy.jpg,/static/Category_learning/Stimuli/Experimental_stims/nail polish/127_t.jpg,/static/Category_learning/Stimuli/Experimental_stims/hammer/8oz-hammer-copy.jpg,1.0,nail polish,hammer,60.0,40.0,nail polish6,hammer11,60.0,60.0,0.0,33.24,0.74,,,,,,
57,,confirmation,,html-keyboard-response,57,254194,0.0-1.0-12.0-0.0-1.0-0.0,0,0,46320,,,,,,10.0,,,,,1.0,,,,,,,,,,,,,,,,,,,,,,,,,,,34.0,0.76,,,,,,
58,,isi,,html-keyboard-response,58,255700,0.0-1.0-12.0-0.0-2.0,0,0,46320,,,,,,10.0,,,,,1.0,,,,,,,,,,,,,,,,,,,,,,,,,,,35.5,1.5,,,,,,
59,,feedback,,html-keyboard-response,59,256709,0.0-1.0-12.0-0.0-3.0-0.0,0,0,46320,,,,,,10.0,,,,,1.0,,,,,,,,,,,,,,,,,,,,,,,,,,,36.5,1.0,,,,,,
60,,iti,,html-keyboard-response,60,260223,0.0-1.0-12.0-0.0-5.0,0,0,46320,,,,,,10.0,,,,,1.0,,,,,,,,,,,,,,,,,,,,,,,,,,,40.0,3.5,,,,,,
61,,choice,,html-keyboard-response,61,261741,0.0-1.0-13.0-0.0-0.0,0,0,46320,,,,,,11.0,11.0,1500.0,1000.0,0.0,1.0,1.0,40-80,0.0,,telescope,makeup compact,80.0,40.0,telescope3,makeup compact1,100.0,60.0,41V67SB5NJL._SS500_.jpg,P190250_hero.jpg,/static/Category_learning/Stimuli/Experimental_stims/telescope/41V67SB5NJL._SS500_.jpg,/static/Category_learning/Stimuli/Experimental_stims/makeup compact/P190250_hero.jpg,,,,,,,,,,1.0,41.5,1.5,,,,,,
62,,isi,,html-keyboard-response,62,263251,0.0-1.0-13.0-0.0-2.0,0,0,46320,,,,,,11.0,,,,,1.0,,,,,,,,,,,,,,,,,,,,,,,,,,,43.0,1.5,,,,,,
63,,no_response,,html-keyboard-response,63,264268,0.0-1.0-13.0-0.0-4.0-0.0,0,0,46320,,,,,,11.0,,,,,1.0,,,,,,,,,,,,,,,,,,,,,,,,,,,44.0,1.0,,,,,,
64,,iti,,html-keyboard-response,64,265349,0.0-1.0-13.0-0.0-5.0,0,0,46320,,,,,,11.0,,,,,1.0,,,,,,,,,,,,,,,,,,,,,,,,,,,45.0,1.0,,,,,,
65,,choice,,html-keyboard-response,65,266002,0.0-1.0-13.0-0.1-0.1,0,0,46320,,645.0,,,75.0,11.0,11.0,1500.0,1000.0,0.0,1.0,1.0,40-80,0.0,,telescope,makeup compact,80.0,40.0,telescope3,makeup compact1,100.0,60.0,41V67SB5NJL._SS500_.jpg,P190250_hero.jpg,/static/Category_learning/Stimuli/Experimental_stims/telescope/41V67SB5NJL._SS500_.jpg,/static/Category_learning/Stimuli/Experimental_stims/makeup compact/P190250_hero.jpg,0.0,makeup compact,telescope,40.0,80.0,makeup compact1,telescope3,60.0,100.0,0.0,45.645,0.645,,,,,,
66,,confirmation,,html-keyboard-response,66,266864,0.0-1.0-13.0-0.1-1.1-0.1,0,0,46320,,,,,,11.0,,,,,1.0,,,,,,,,,,,,,,,,,,,,,,,,,,,46.5,0.855,,,,,,
67,,isi,,html-keyboard-response,67,267871,0.0-1.0-13.0-0.1-2.1,0,0,46320,,,,,,11.0,,,,,1.0,,,,,,,,,,,,,,,,,,,,,,,,,,,47.5,1.0,,,,,,
68,,feedback,,html-keyboard-response,68,268879,0.0-1.0-13.0-0.1-3.1-0.1,0,0,46320,,,,,,11.0,,,,,1.0,,,,,,,,,,,,,,,,,,,,,,,,,,,48.5,1.0,,,,,,
69,,iti,,html-keyboard-response,69,272387,0.0-1.0-13.0-0.1-5.1,0,0,46320,,,,,,11.0,,,,,1.0,,,,,,,,,,,,,,,,,,,,,,,,,,,52.0,3.5,,,,,,
70,,choice,,html-keyboard-response,70,273334,0.0-1.0-14.0-0.0-0.0,0,0,46320,,938.0,,,75.0,12.0,12.0,2000.0,1000.0,0.0,1.0,0.0,40-60,,0.0,key chain,sofa,40.0,60.0,key chain13,sofa6,60.0,80.0,Fancy_Liquid_Column_Shape_Key_Ring_with_Floater.jpg,wilkie-sofa-250h-new-cd.jpg,/static/Category_learning/Stimuli/Experimental_stims/key chain/Fancy_Liquid_Column_Shape_Key_Ring_with_Floater.jpg,/static/Category_learning/Stimuli/Experimental_stims/sofa/wilkie-sofa-250h-new-cd.jpg,0.0,sofa,key chain,60.0,40.0,sofa6,key chain13,80.0,60.0,0.0,52.938,0.938,,,,,,
71,,confirmation,,html-keyboard-response,71,273903,0.0-1.0-14.0-0.0-1.0-0.0,0,0,46320,,,,,,12.0,,,,,1.0,,,,,,,,,,,,,,,,,,,,,,,,,,,53.5,0.562,,,,,,
72,,isi,,html-keyboard-response,72,275919,0.0-1.0-14.0-0.0-2.0,0,0,46320,,,,,,12.0,,,,,1.0,,,,,,,,,,,,,,,,,,,,,,,,,,,55.5,2.0,,,,,,
73,,feedback,,html-keyboard-response,73,276925,0.0-1.0-14.0-0.0-3.0-0.0,0,0,46320,,,,,,12.0,,,,,1.0,,,,,,,,,,,,,,,,,,,,,,,,,,,56.5,1.0,,,,,,
74,,iti,,html-keyboard-response,74,277953,0.0-1.0-14.0-0.0-5.0,0,0,46320,,,,,,12.0,,,,,1.0,,,,,,,,,,,,,,,,,,,,,,,,,,,57.5,1.0,,,,,,
75,,choice,,html-keyboard-response,75,279246,0.0-1.0-15.0-0.0-0.0,0,0,46320,,1283.0,,,75.0,13.0,13.0,1000.0,1000.0,0.0,1.0,0.0,40-80,,1.0,stool,motorcycle,80.0,40.0,stool7,motorcycle7,80.0,20.0,ASTOOL25.jpg,MotoSmall.jpg,/static/Category_learning/Stimuli/Experimental_stims/stool/ASTOOL25.jpg,/static/Category_learning/Stimuli/Experimental_stims/motorcycle/MotoSmall.jpg,0.0,motorcycle,stool,40.0,80.0,motorcycle7,stool7,20.0,80.0,0.0,58.783,1.283,,,,,,
76,,confirmation,,html-keyboard-response,76,279481,0.0-1.0-15.0-0.0-1.0-0.0,0,0,46320,,,,,,13.0,,,,,1.0,,,,,,,,,,,,,,,,,,,,,,,,,,,59.0,0.217,,,,,,
77,,isi,,html-keyboard-response,77,280489,0.0-1.0-15.0-0.0-2.0,0,0,46320,,,,,,13.0,,,,,1.0,,,,,,,,,,,,,,,,,,,,,,,,,,,60.0,1.0,,,,,,
78,,feedback,,html-keyboard-response,78,281500,0.0-1.0-15.0-0.0-3.0-0.0,0,0,46320,,,,,,13.0,,,,,1.0,,,,,,,,,,,,,,,,,,,,,,,,,,,61.0,1.0,,,,,,
79,,iti,,html-keyboard-response,79,282509,0.0-1.0-15.0-0.0-5.0,0,0,46320,,,,,,13.0,,,,,1.0,,,,,,,,,,,,,,,,,,,,,,,,,,,62.0,1.0,,,,,,
80,,choice,,html-keyboard-response,80,283537,0.0-1.0-16.0-0.0-0.0,0,0,46320,,1016.0,,,68.0,14.0,14.0,1500.0,1000.0,0.0,1.0,0.0,40-80,,1.0,tent,hat,80.0,40.0,tent1,hat13,100.0,20.0,Atent8.jpg,Ahatwithfeath.jpg,/static/Category_learning/Stimuli/Experimental_stims/tent/Atent8.jpg,/static/Category_learning/Stimuli/Experimental_stims/hat/Ahatwithfeath.jpg,1.0,tent,hat,80.0,40.0,tent1,hat13,100.0,20.0,0.0,63.016,1.016,,,,,,
81,,confirmation,,html-keyboard-response,81,284028,0.0-1.0-16.0-0.0-1.0-0.0,0,0,46320,,,,,,14.0,,,,,1.0,,,,,,,,,,,,,,,,,,,,,,,,,,,63.5,0.484,,,,,,
82,,isi,,html-keyboard-response,82,285536,0.0-1.0-16.0-0.0-2.0,0,0,46320,,,,,,14.0,,,,,1.0,,,,,,,,,,,,,,,,,,,,,,,,,,,65.0,1.5,,,,,,
83,,feedback,,html-keyboard-response,83,286546,0.0-1.0-16.0-0.0-3.0-0.0,0,0,46320,,,,,,14.0,,,,,1.0,,,,,,,,,,,,,,,,,,,,,,,,,,,66.0,1.0,,,,,,
84,,iti,,html-keyboard-response,84,287559,0.0-1.0-16.0-0.0-5.0,0,0,46320,,,,,,14.0,,,,,1.0,,,,,,,,,,,,,,,,,,,,,,,,,,,67.0,1.0,,,,,,
85,,choice,,html-keyboard-response,85,288596,0.0-1.0-17.0-0.0-0.0,0,0,46320,,1029.0,,,75.0,15.0,15.0,2000.0,1000.0,0.0,1.0,0.0,60-80,,0.0,necklace,watch,60.0,80.0,necklace3,watch13,60.0,80.0,26388201.thl.jpg,RS_3104_lrg.jpg,/static/Category_learning/Stimuli/Experimental_stims/necklace/26388201.thl.jpg,/static/Category_learning/Stimuli/Experimental_stims/watch/RS_3104_lrg.jpg,0.0,watch,necklace,80.0,60.0,watch13,necklace3,80.0,60.0,0.0,68.029,1.029,,,,,,
86,,confirmation,,html-keyboard-response,86,289075,0.0-1.0-17.0-0.0-1.0-0.0,0,0,46320,,,,,,15.0,,,,,1.0,,,,,,,,,,,,,,,,,,,,,,,,,,,68.5,0.471,,,,,,
87,,isi,,html-keyboard-response,87,291085,0.0-1.0-17.0-0.0-2.0,0,0,46320,,,,,,15.0,,,,,1.0,,,,,,,,,,,,,,,,,,,,,,,,,,,70.5,2.0,,,,,,
88,,feedback,,html-keyboard-response,88,292089,0.0-1.0-17.0-0.0-3.0-0.0,0,0,46320,,,,,,15.0,,,,,1.0,,,,,,,,,,,,,,,,,,,,,,,,,,,71.5,1.0,,,,,,
89,,iti,,html-keyboard-response,89,293113,0.0-1.0-17.0-0.0-5.0,0,0,46320,,,,,,15.0,,,,,1.0,,,,,,,,,,,,,,,,,,,,,,,,,,,72.5,1.0,,,,,,
90,,choice,,html-keyboard-response,90,293927,0.0-1.0-18.0-0.0-0.0,0,0,46320,,806.0,,,68.0,16.0,16.0,3500.0,1000.0,0.0,1.0,1.0,80-80,0.0,,watch,tent,80.0,80.0,watch13,tent1,80.0,100.0,RS_3104_lrg.jpg,Atent8.jpg,/static/Category_learning/Stimuli/Experimental_stims/watch/RS_3104_lrg.jpg,/static/Category_learning/Stimuli/Experimental_stims/tent/Atent8.jpg,1.0,watch,tent,80.0,80.0,watch13,tent1,80.0,100.0,0.0,73.306,0.806,,,,,,
91,,confirmation,,html-keyboard-response,91,294627,0.0-1.0-18.0-0.0-1.0-0.0,0,0,46320,,,,,,16.0,,,,,1.0,,,,,,,,,,,,,,,,,,,,,,,,,,,74.0,0.694,,,,,,
92,,isi,,html-keyboard-response,92,298138,0.0-1.0-18.0-0.0-2.0,0,0,46320,,,,,,16.0,,,,,1.0,,,,,,,,,,,,,,,,,,,,,,,,,,,77.5,3.5,,,,,,
93,,feedback,,html-keyboard-response,93,299146,0.0-1.0-18.0-0.0-3.0-0.0,0,0,46320,,,,,,16.0,,,,,1.0,,,,,,,,,,,,,,,,,,,,,,,,,,,78.5,1.0,,,,,,
94,,iti,,html-keyboard-response,94,300154,0.0-1.0-18.0-0.0-5.0,0,0,46320,,,,,,16.0,,,,,1.0,,,,,,,,,,,,,,,,,,,,,,,,,,,79.5,1.0,,,,,,
95,,choice,,html-keyboard-response,95,301240,0.0-1.0-19.0-0.0-0.0,0,0,46320,,1075.0,,,75.0,17.0,17.0,3500.0,2000.0,0.0,1.0,0.0,20-20,,,flashlight,bowl,20.0,20.0,flashlight5,bowl12,0.0,20.0,Streamlight-71001-Jr-Flashlight-W-batteries-black-B00018A3CG-L.jpg,Abowl52.jpg,/static/Category_learning/Stimuli/Experimental_stims/flashlight/Streamlight-71001-Jr-Flashlight-W-batteries-black-B00018A3CG-L.jpg,/static/Category_learning/Stimuli/Experimental_stims/bowl/Abowl52.jpg,0.0,bowl,flashlight,20.0,20.0,bowl12,flashlight5,20.0,0.0,0.0,80.575,1.075,,,,,,
96,,confirmation,,html-keyboard-response,96,301675,0.0-1.0-19.0-0.0-1.0-0.0,0,0,46320,,,,,,17.0,,,,,1.0,,,,,,,,,,,,,,,,,,,,,,,,,,,81.0,0.425,,,,,,
97,,isi,,html-keyboard-response,97,305186,0.0-1.0-19.0-0.0-2.0,0,0,46320,,,,,,17.0,,,,,1.0,,,,,,,,,,,,,,,,,,,,,,,,,,,84.5,3.5,,,,,,
98,,feedback,,html-keyboard-response,98,306196,0.0-1.0-19.0-0.0-3.0-0.0,0,0,46320,,,,,,17.0,,,,,1.0,,,,,,,,,,,,,,,,,,,,,,,,,,,85.5,1.0,,,,,,
99,,iti,,html-keyboard-response,99,308207,0.0-1.0-19.0-0.0-5.0,0,0,46320,,,,,,17.0,,,,,1.0,,,,,,,,,,,,,,,,,,,,,,,,,,,87.5,2.0,,,,,,
100,,choice,,html-keyboard-response,100,309180,0.0-1.0-20.0-0.0-0.0,0,0,46320,,960.0,,,68.0,18.0,18.0,1500.0,1500.0,0.0,1.0,1.0,20-60,0.0,,sofa,bowl,60.0,20.0,sofa6,bowl12,80.0,20.0,wilkie-sofa-250h-new-cd.jpg,Abowl52.jpg,/static/Category_learning/Stimuli/Experimental_stims/sofa/wilkie-sofa-250h-new-cd.jpg,/static/Category_learning/Stimuli/Experimental_stims/bowl/Abowl52.jpg,1.0,sofa,bowl,60.0,20.0,sofa6,bowl12,80.0,20.0,0.0,88.46,0.96,,,,,,
101,,confirmation,,html-keyboard-response,101,309770,0.0-1.0-20.0-0.0-1.0-0.0,0,0,46320,,,,,,18.0,,,,,1.0,,,,,,,,,,,,,,,,,,,,,,,,,,,89.0,0.54,,,,,,
102,,isi,,html-keyboard-response,102,311274,0.0-1.0-20.0-0.0-2.0,0,0,46320,,,,,,18.0,,,,,1.0,,,,,,,,,,,,,,,,,,,,,,,,,,,90.5,1.5,,,,,,
103,,feedback,,html-keyboard-response,103,312282,0.0-1.0-20.0-0.0-3.0-0.0,0,0,46320,,,,,,18.0,,,,,1.0,,,,,,,,,,,,,,,,,,,,,,,,,,,91.5,1.0,,,,,,
104,,iti,,html-keyboard-response,104,313788,0.0-1.0-20.0-0.0-5.0,0,0,46320,,,,,,18.0,,,,,1.0,,,,,,,,,,,,,,,,,,,,,,,,,,,93.0,1.5,,,,,,
105,,choice,,html-keyboard-response,105,314981,0.0-1.0-21.0-0.0-0.0,0,0,46320,,1181.0,,,68.0,19.0,19.0,1000.0,2000.0,0.0,1.0,0.0,40-40,,,frame,license plate,40.0,40.0,frame8,license plate14,60.0,40.0,AFRAME154.jpg,fl-hel-bel.jpg,/static/Category_learning/Stimuli/Experimental_stims/frame/AFRAME154.jpg,/static/Category_learning/Stimuli/Experimental_stims/license plate/fl-hel-bel.jpg,1.0,frame,license plate,40.0,40.0,frame8,license plate14,60.0,40.0,0.0,94.181,1.181,,,,,,
106,,confirmation,,html-keyboard-response,106,315307,0.0-1.0-21.0-0.0-1.0-0.0,0,0,46320,,,,,,19.0,,,,,1.0,,,,,,,,,,,,,,,,,,,,,,,,,,,94.5,0.319,,,,,,
107,,isi,,html-keyboard-response,107,316314,0.0-1.0-21.0-0.0-2.0,0,0,46320,,,,,,19.0,,,,,1.0,,,,,,,,,,,,,,,,,,,,,,,,,,,95.5,1.0,,,,,,
108,,feedback,,html-keyboard-response,108,317321,0.0-1.0-21.0-0.0-3.0-0.0,0,0,46320,,,,,,19.0,,,,,1.0,,,,,,,,,,,,,,,,,,,,,,,,,,,96.5,1.0,,,,,,
109,,iti,,html-keyboard-response,109,319329,0.0-1.0-21.0-0.0-5.0,0,0,46320,,,,,,19.0,,,,,1.0,,,,,,,,,,,,,,,,,,,,,,,,,,,98.5,2.0,,,,,,
110,,choice,,html-keyboard-response,110,320588,0.0-1.0-22.0-0.0-0.0,0,0,46320,,1252.0,,,75.0,20.0,20.0,1000.0,1000.0,0.0,1.0,0.0,20-80,,1.0,vase,desk,80.0,20.0,vase3,desk14,80.0,0.0,vase-006af-1.jpg,26419960.thl.jpg,/static/Category_learning/Stimuli/Experimental_stims/vase/vase-006af-1.jpg,/static/Category_learning/Stimuli/Experimental_stims/desk/26419960.thl.jpg,0.0,desk,vase,20.0,80.0,desk14,vase3,0.0,80.0,0.0,99.752,1.252,,,,,,
111,,confirmation,,html-keyboard-response,111,320841,0.0-1.0-22.0-0.0-1.0-0.0,0,0,46320,,,,,,20.0,,,,,1.0,,,,,,,,,,,,,,,,,,,,,,,,,,,100.0,0.248,,,,,,
112,,isi,,html-keyboard-response,112,321846,0.0-1.0-22.0-0.0-2.0,0,0,46320,,,,,,20.0,,,,,1.0,,,,,,,,,,,,,,,,,,,,,,,,,,,101.0,1.0,,,,,,
113,,feedback,,html-keyboard-response,113,322855,0.0-1.0-22.0-0.0-3.0-0.0,0,0,46320,,,,,,20.0,,,,,1.0,,,,,,,,,,,,,,,,,,,,,,,,,,,102.0,1.0,,,,,,
114,,iti,,html-keyboard-response,114,323864,0.0-1.0-22.0-0.0-5.0,0,0,46320,,,,,,20.0,,,,,1.0,,,,,,,,,,,,,,,,,,,,,,,,,,,103.0,1.0,,,,,,
115,,choice,,html-keyboard-response,115,324901,0.0-1.0-23.0-0.0-0.0,0,0,46320,,1028.0,,,68.0,21.0,21.0,1500.0,2000.0,0.0,1.0,0.0,40-60,,1.0,power strip,frame,60.0,40.0,power strip5,frame1,40.0,20.0,93e4a283-bcd6-4ad1-8add-339658cda0fc_400.jpg,AFRAME127.jpg,/static/Category_learning/Stimuli/Experimental_stims/power strip/93e4a283-bcd6-4ad1-8add-339658cda0fc_400.jpg,/static/Category_learning/Stimuli/Experimental_stims/frame/AFRAME127.jpg,1.0,power strip,frame,60.0,40.0,power strip5,frame1,40.0,20.0,0.0,104.028,1.028,,,,,,
116,,confirmation,,html-keyboard-response,116,325382,0.0-1.0-23.0-0.0-1.0-0.0,0,0,46320,,,,,,21.0,,,,,1.0,,,,,,,,,,,,,,,,,,,,,,,,,,,104.5,0.472,,,,,,
117,,isi,,html-keyboard-response,117,326893,0.0-1.0-23.0-0.0-2.0,0,0,46320,,,,,,21.0,,,,,1.0,,,,,,,,,,,,,,,,,,,,,,,,,,,106.0,1.5,,,,,,
118,,feedback,,html-keyboard-response,118,327902,0.0-1.0-23.0-0.0-3.0-0.0,0,0,46320,,,,,,21.0,,,,,1.0,,,,,,,,,,,,,,,,,,,,,,,,,,,107.0,1.0,,,,,,
119,,iti,,html-keyboard-response,119,329911,0.0-1.0-23.0-0.0-5.0,0,0,46320,,,,,,21.0,,,,,1.0,,,,,,,,,,,,,,,,,,,,,,,,,,,109.0,2.0,,,,,,
120,,choice,,html-keyboard-response,120,330553,0.0-1.0-24.0-0.0-0.0,0,0,46320,,629.0,,,68.0,22.0,22.0,2000.0,1000.0,0.0,1.0,1.0,20-40,0.0,,desk,frame,20.0,40.0,desk14,frame8,0.0,60.0,26419960.thl.jpg,AFRAME154.jpg,/static/Category_learning/Stimuli/Experimental_stims/desk/26419960.thl.jpg,/static/Category_learning/Stimuli/Experimental_stims/frame/AFRAME154.jpg,1.0,desk,frame,20.0,40.0,desk14,frame8,0.0,60.0,0.0,109.629,0.629,,,,,,
121,,confirmation,,html-keyboard-response,121,331445,0.0-1.0-24.0-0.0-1.0-0.0,0,0,46320,,,,,,22.0,,,,,1.0,,,,,,,,,,,,,,,,,,,,,,,,,,,110.5,0.871,,,,,,
122,,isi,,html-keyboard-response,122,333451,0.0-1.0-24.0-0.0-2.0,0,0,46320,,,,,,22.0,,,,,1.0,,,,,,,,,,,,,,,,,,,,,,,,,,,112.5,2.0,,,,,,
123,,feedback,,html-keyboard-response,123,334458,0.0-1.0-24.0-0.0-3.0-0.0,0,0,46320,,,,,,22.0,,,,,1.0,,,,,,,,,,,,,,,,,,,,,,,,,,,113.5,1.0,,,,,,
124,,iti,,html-keyboard-response,124,335463,0.0-1.0-24.0-0.0-5.0,0,0,46320,,,,,,22.0,,,,,1.0,,,,,,,,,,,,,,,,,,,,,,,,,,,114.5,1.0,,,,,,
125,,choice,,html-keyboard-response,125,336167,0.0-1.0-25.0-0.0-0.0,0,0,46320,,699.0,,,75.0,23.0,23.0,1000.0,1000.0,0.0,1.0,0.0,40-60,,0.0,lipstick,small table,40.0,60.0,lipstick7,small table5,60.0,80.0,P101401_hero.jpg,Atable145.jpg,/static/Category_learning/Stimuli/Experimental_stims/lipstick/P101401_hero.jpg,/static/Category_learning/Stimuli/Experimental_stims/small table/Atable145.jpg,0.0,small table,lipstick,60.0,40.0,small table5,lipstick7,80.0,60.0,0.0,115.199,0.699,,,,,,
126,,confirmation,,html-keyboard-response,126,336976,0.0-1.0-25.0-0.0-1.0-0.0,0,0,46320,,,,,,23.0,,,,,1.0,,,,,,,,,,,,,,,,,,,,,,,,,,,116.0,0.801,,,,,,
127,,isi,,html-keyboard-response,127,337994,0.0-1.0-25.0-0.0-2.0,0,0,46320,,,,,,23.0,,,,,1.0,,,,,,,,,,,,,,,,,,,,,,,,,,,117.0,1.0,,,,,,
128,,feedback,,html-keyboard-response,128,339004,0.0-1.0-25.0-0.0-3.0-0.0,0,0,46320,,,,,,23.0,,,,,1.0,,,,,,,,,,,,,,,,,,,,,,,,,,,118.0,1.0,,,,,,
129,,iti,,html-keyboard-response,129,340026,0.0-1.0-25.0-0.0-5.0,0,0,46320,,,,,,23.0,,,,,1.0,,,,,,,,,,,,,,,,,,,,,,,,,,,119.0,1.0,,,,,,
130,,choice,,html-keyboard-response,130,341115,0.0-1.0-26.0-0.0-0.0,0,0,46320,,1084.0,,,75.0,24.0,24.0,3000.0,1500.0,0.0,1.0,0.0,20-80,,1.0,yarn,bowl,80.0,20.0,yarn4,bowl6,60.0,20.0,amethyst dreaming boho hy sml.jpg,Abowl59.jpg,/static/Category_learning/Stimuli/Experimental_stims/yarn/amethyst dreaming boho hy sml.jpg,/static/Category_learning/Stimuli/Experimental_stims/bowl/Abowl59.jpg,0.0,bowl,yarn,20.0,80.0,bowl6,yarn4,20.0,60.0,0.0,120.084,1.084,,,,,,
131,,confirmation,,html-keyboard-response,131,341541,0.0-1.0-26.0-0.0-1.0-0.0,0,0,46320,,,,,,24.0,,,,,1.0,,,,,,,,,,,,,,,,,,,,,,,,,,,120.5,0.416,,,,,,
132,,isi,,html-keyboard-response,132,344551,0.0-1.0-26.0-0.0-2.0,0,0,46320,,,,,,24.0,,,,,1.0,,,,,,,,,,,,,,,,,,,,,,,,,,,123.5,3.0,,,,,,
133,,feedback,,html-keyboard-response,133,345558,0.0-1.0-26.0-0.0-3.0-0.0,0,0,46320,,,,,,24.0,,,,,1.0,,,,,,,,,,,,,,,,,,,,,,,,,,,124.5,1.0,,,,,,
134,,iti,,html-keyboard-response,134,347069,0.0-1.0-26.0-0.0-5.0,0,0,46320,,,,,,24.0,,,,,1.0,,,,,,,,,,,,,,,,,,,,,,,,,,,126.0,1.5,,,,,,
135,,choice,,html-keyboard-response,135,347925,0.0-1.0-27.0-0.0-0.0,0,0,46320,,845.0,,,68.0,25.0,25.0,1000.0,2000.0,0.0,1.0,0.0,80-80,,,watch,trumpet,80.0,80.0,watch10,trumpet9,100.0,80.0,HEU0102124_zoom.jpg,trumpet3.jpg,/static/Category_learning/Stimuli/Experimental_stims/watch/HEU0102124_zoom.jpg,/static/Category_learning/Stimuli/Experimental_stims/trumpet/trumpet3.jpg,1.0,watch,trumpet,80.0,80.0,watch10,trumpet9,100.0,80.0,0.0,126.845,0.845,,,,,,
136,,confirmation,,html-keyboard-response,136,348586,0.0-1.0-27.0-0.0-1.0-0.0,0,0,46320,,,,,,25.0,,,,,1.0,,,,,,,,,,,,,,,,,,,,,,,,,,,127.5,0.655,,,,,,
137,,isi,,html-keyboard-response,137,349592,0.0-1.0-27.0-0.0-2.0,0,0,46320,,,,,,25.0,,,,,1.0,,,,,,,,,,,,,,,,,,,,,,,,,,,128.5,1.0,,,,,,
138,,feedback,,html-keyboard-response,138,350599,0.0-1.0-27.0-0.0-3.0-0.0,0,0,46320,,,,,,25.0,,,,,1.0,,,,,,,,,,,,,,,,,,,,,,,,,,,129.5,1.0,,,,,,
139,,iti,,html-keyboard-response,139,352609,0.0-1.0-27.0-0.0-5.0,0,0,46320,,,,,,25.0,,,,,1.0,,,,,,,,,,,,,,,,,,,,,,,,,,,131.5,2.0,,,,,,
140,,choice,,html-keyboard-response,140,353501,0.0-1.0-28.0-0.0-0.0,0,0,46320,,882.0,,,68.0,26.0,26.0,2000.0,1000.0,0.0,1.0,1.0,60-80,0.0,,watch,small table,80.0,60.0,watch10,small table5,100.0,80.0,HEU0102124_zoom.jpg,Atable145.jpg,/static/Category_learning/Stimuli/Experimental_stims/watch/HEU0102124_zoom.jpg,/static/Category_learning/Stimuli/Experimental_stims/small table/Atable145.jpg,1.0,watch,small table,80.0,60.0,watch10,small table5,100.0,80.0,0.0,132.382,0.882,,,,,,
141,,confirmation,,html-keyboard-response,141,354125,0.0-1.0-28.0-0.0-1.0-0.0,0,0,46320,,,,,,26.0,,,,,1.0,,,,,,,,,,,,,,,,,,,,,,,,,,,133.0,0.618,,,,,,
142,,isi,,html-keyboard-response,142,356132,0.0-1.0-28.0-0.0-2.0,0,0,46320,,,,,,26.0,,,,,1.0,,,,,,,,,,,,,,,,,,,,,,,,,,,135.0,2.0,,,,,,
143,,feedback,,html-keyboard-response,143,357139,0.0-1.0-28.0-0.0-3.0-0.0,0,0,46320,,,,,,26.0,,,,,1.0,,,,,,,,,,,,,,,,,,,,,,,,,,,136.0,1.0,,,,,,
144,,iti,,html-keyboard-response,144,358146,0.0-1.0-28.0-0.0-5.0,0,0,46320,,,,,,26.0,,,,,1.0,,,,,,,,,,,,,,,,,,,,,,,,,,,137.0,1.0,,,,,,
145,,choice,,html-keyboard-response,145,359368,0.0-1.0-29.0-0.0-0.0,0,0,46320,,1210.0,,,75.0,27.0,27.0,3000.0,1500.0,0.0,1.0,0.0,80-80,,,stool,yarn,80.0,80.0,stool12,yarn7,80.0,100.0,henrybar_stool1.jpg,herb garden hy smaller.jpg,/static/Category_learning/Stimuli/Experimental_stims/stool/henrybar_stool1.jpg,/static/Category_learning/Stimuli/Experimental_stims/yarn/herb garden hy smaller.jpg,0.0,yarn,stool,80.0,80.0,yarn7,stool12,100.0,80.0,0.0,138.21,1.21,,,,,,
146,,confirmation,,html-keyboard-response,146,359673,0.0-1.0-29.0-0.0-1.0-0.0,0,0,46320,,,,,,27.0,,,,,1.0,,,,,,,,,,,,,,,,,,,,,,,,,,,138.5,0.29,,,,,,
147,,isi,,html-keyboard-response,147,362681,0.0-1.0-29.0-0.0-2.0,0,0,46320,,,,,,27.0,,,,,1.0,,,,,,,,,,,,,,,,,,,,,,,,,,,141.5,3.0,,,,,,
148,,feedback,,html-keyboard-response,148,363703,0.0-1.0-29.0-0.0-3.0-0.0,0,0,46320,,,,,,27.0,,,,,1.0,,,,,,,,,,,,,,,,,,,,,,,,,,,142.5,1.0,,,,,,
149,,iti,,html-keyboard-response,149,365216,0.0-1.0-29.0-0.0-5.0,0,0,46320,,,,,,27.0,,,,,1.0,,,,,,,,,,,,,,,,,,,,,,,,,,,144.0,1.5,,,,,,
150,,choice,,html-keyboard-response,150,366386,0.0-1.0-30.0-0.0-0.0,0,0,46320,,1157.0,,,75.0,28.0,28.0,2000.0,1500.0,0.0,1.0,0.0,40-60,,1.0,patio lounge chair,makeup compact,60.0,40.0,patio lounge chair6,makeup compact5,60.0,60.0,Lounge_Chair_with_Pillow.jpg,P109965_hero.jpg,/static/Category_learning/Stimuli/Experimental_stims/patio lounge chair/Lounge_Chair_with_Pillow.jpg,/static/Category_learning/Stimuli/Experimental_stims/makeup compact/P109965_hero.jpg,0.0,makeup compact,patio lounge chair,40.0,60.0,makeup compact5,patio lounge chair6,60.0,60.0,0.0,145.157,1.157,,,,,,
151,,confirmation,,html-keyboard-response,151,366740,0.0-1.0-30.0-0.0-1.0-0.0,0,0,46320,,,,,,28.0,,,,,1.0,,,,,,,,,,,,,,,,,,,,,,,,,,,145.5,0.343,,,,,,
152,,isi,,html-keyboard-response,152,368748,0.0-1.0-30.0-0.0-2.0,0,0,46320,,,,,,28.0,,,,,1.0,,,,,,,,,,,,,,,,,,,,,,,,,,,147.5,2.0,,,,,,
153,,feedback,,html-keyboard-response,153,369755,0.0-1.0-30.0-0.0-3.0-0.0,0,0,46320,,,,,,28.0,,,,,1.0,,,,,,,,,,,,,,,,,,,,,,,,,,,148.5,1.0,,,,,,
154,,iti,,html-keyboard-response,154,371262,0.0-1.0-30.0-0.0-5.0,0,0,46320,,,,,,28.0,,,,,1.0,,,,,,,,,,,,,,,,,,,,,,,,,,,150.0,1.5,,,,,,
155,,choice,,html-keyboard-response,155,372332,0.0-1.0-31.0-0.0-0.0,0,0,46320,,1064.0,,,75.0,29.0,29.0,1000.0,3500.0,0.0,1.0,0.0,40-80,,0.0,license plate,tape,40.0,80.0,license plate12,tape7,20.0,80.0,TurtleLicensePlate.jpg,tape dispenser.jpg,/static/Category_learning/Stimuli/Experimental_stims/license plate/TurtleLicensePlate.jpg,/static/Category_learning/Stimuli/Experimental_stims/tape/tape dispenser.jpg,0.0,tape,license plate,80.0,40.0,tape7,license plate12,80.0,20.0,0.0,151.064,1.064,,,,,,
156,,confirmation,,html-keyboard-response,156,372775,0.0-1.0-31.0-0.0-1.0-0.0,0,0,46320,,,,,,29.0,,,,,1.0,,,,,,,,,,,,,,,,,,,,,,,,,,,151.5,0.436,,,,,,
157,,isi,,html-keyboard-response,157,373780,0.0-1.0-31.0-0.0-2.0,0,0,46320,,,,,,29.0,,,,,1.0,,,,,,,,,,,,,,,,,,,,,,,,,,,152.5,1.0,,,,,,
158,,feedback,,html-keyboard-response,158,374788,0.0-1.0-31.0-0.0-3.0-0.0,0,0,46320,,,,,,29.0,,,,,1.0,,,,,,,,,,,,,,,,,,,,,,,,,,,153.5,1.0,,,,,,
159,,iti,,html-keyboard-response,159,378294,0.0-1.0-31.0-0.0-5.0,0,0,46320,,,,,,29.0,,,,,1.0,,,,,,,,,,,,,,,,,,,,,,,,,,,157.0,3.5,,,,,,
160,,choice,,html-keyboard-response,160,379803,0.0-1.0-32.0-0.0-0.0,0,0,46320,,,,,,30.0,30.0,1000.0,1000.0,0.0,1.0,0.0,20-80,,0.0,desk,yarn,20.0,80.0,desk10,yarn3,20.0,100.0,MEX028.jpg,Aballofblueya.jpg,/static/Category_learning/Stimuli/Experimental_stims/desk/MEX028.jpg,/static/Category_learning/Stimuli/Experimental_stims/yarn/Aballofblueya.jpg,,,,,,,,,,1.0,158.5,1.5,,,,,,
161,,isi,,html-keyboard-response,161,380809,0.0-1.0-32.0-0.0-2.0,0,0,46320,,,,,,30.0,,,,,1.0,,,,,,,,,,,,,,,,,,,,,,,,,,,159.5,1.0,,,,,,
162,,no_response,,html-keyboard-response,162,381814,0.0-1.0-32.0-0.0-4.0-0.0,0,0,46320,,,,,,30.0,,,,,1.0,,,,,,,,,,,,,,,,,,,,,,,,,,,160.5,1.0,,,,,,
163,,iti,,html-keyboard-response,163,382854,0.0-1.0-32.0-0.0-5.0,0,0,46320,,,,,,30.0,,,,,1.0,,,,,,,,,,,,,,,,,,,,,,,,,,,161.5,1.0,,,,,,
164,,choice,,html-keyboard-response,164,383601,0.0-1.0-32.0-0.1-0.1,0,0,46320,,739.0,,,68.0,30.0,30.0,1000.0,1000.0,0.0,1.0,0.0,20-80,,0.0,desk,yarn,20.0,80.0,desk10,yarn3,20.0,100.0,MEX028.jpg,Aballofblueya.jpg,/static/Category_learning/Stimuli/Experimental_stims/desk/MEX028.jpg,/static/Category_learning/Stimuli/Experimental_stims/yarn/Aballofblueya.jpg,1.0,desk,yarn,20.0,80.0,desk10,yarn3,20.0,100.0,0.0,162.239,0.739,,,,,,
165,,confirmation,,html-keyboard-response,165,384371,0.0-1.0-32.0-0.1-1.1-0.1,0,0,46320,,,,,,30.0,,,,,1.0,,,,,,,,,,,,,,,,,,,,,,,,,,,163.0,0.761,,,,,,
166,,isi,,html-keyboard-response,166,385376,0.0-1.0-32.0-0.1-2.1,0,0,46320,,,,,,30.0,,,,,1.0,,,,,,,,,,,,,,,,,,,,,,,,,,,164.0,1.0,,,,,,
167,,feedback,,html-keyboard-response,167,386382,0.0-1.0-32.0-0.1-3.1-0.1,0,0,46320,,,,,,30.0,,,,,1.0,,,,,,,,,,,,,,,,,,,,,,,,,,,165.0,1.0,,,,,,
168,,iti,,html-keyboard-response,168,387890,0.0-1.0-32.0-0.1-5.1,0,0,46320,,,,,,30.0,,,,,1.0,,,,,,,,,,,,,,,,,,,,,,,,,,,166.5,1.5,,,,,,
169,,choice,,html-keyboard-response,169,389273,0.0-1.0-33.0-0.0-0.0,0,0,46320,,1374.0,,,68.0,31.0,31.0,1500.0,3000.0,0.0,1.0,0.0,20-60,,0.0,fan,poker card,20.0,60.0,fan14,poker card15,40.0,40.0,124771_sk_lg.jpg,9816946.thl.jpg,/static/Category_learning/Stimuli/Experimental_stims/fan/124771_sk_lg.jpg,/static/Category_learning/Stimuli/Experimental_stims/poker card/9816946.thl.jpg,1.0,fan,poker card,20.0,60.0,fan14,poker card15,40.0,40.0,0.0,167.874,1.374,,,,,,
170,,confirmation,,html-keyboard-response,170,389404,0.0-1.0-33.0-0.0-1.0-0.0,0,0,46320,,,,,,31.0,,,,,1.0,,,,,,,,,,,,,,,,,,,,,,,,,,,168.0,0.126,,,,,,
171,,isi,,html-keyboard-response,171,390910,0.0-1.0-33.0-0.0-2.0,0,0,46320,,,,,,31.0,,,,,1.0,,,,,,,,,,,,,,,,,,,,,,,,,,,169.5,1.5,,,,,,
172,,feedback,,html-keyboard-response,172,391919,0.0-1.0-33.0-0.0-3.0-0.0,0,0,46320,,,,,,31.0,,,,,1.0,,,,,,,,,,,,,,,,,,,,,,,,,,,170.5,1.0,,,,,,
173,,iti,,html-keyboard-response,173,394927,0.0-1.0-33.0-0.0-5.0,0,0,46320,,,,,,31.0,,,,,1.0,,,,,,,,,,,,,,,,,,,,,,,,,,,173.5,3.0,,,,,,
174,,choice,,html-keyboard-response,174,396293,0.0-1.0-34.0-0.0-0.0,0,0,46320,,1349.0,,,75.0,32.0,32.0,2000.0,2000.0,0.0,1.0,0.0,60-80,,0.0,nail polish,tape,60.0,80.0,nail polish11,tape10,80.0,60.0,Revlon_Super_Top_Speed_Chrome_Nail_Polish-resized200.jpg,26377601.thl.jpg,/static/Category_learning/Stimuli/Experimental_stims/nail polish/Revlon_Super_Top_Speed_Chrome_Nail_Polish-resized200.jpg,/static/Category_learning/Stimuli/Experimental_stims/tape/26377601.thl.jpg,0.0,tape,nail polish,80.0,60.0,tape10,nail polish11,60.0,80.0,0.0,174.849,1.349,,,,,,
175,,confirmation,,html-keyboard-response,175,396456,0.0-1.0-34.0-0.0-1.0-0.0,0,0,46320,,,,,,32.0,,,,,1.0,,,,,,,,,,,,,,,,,,,,,,,,,,,175.0,0.151,,,,,,
176,,isi,,html-keyboard-response,176,398538,0.0-1.0-34.0-0.0-2.0,0,0,46320,,,,,,32.0,,,,,1.0,,,,,,,,,,,,,,,,,,,,,,,,,,,177.0,2.0,,,,,,
177,,feedback,,html-keyboard-response,177,399544,0.0-1.0-34.0-0.0-3.0-0.0,0,0,46320,,,,,,32.0,,,,,1.0,,,,,,,,,,,,,,,,,,,,,,,,,,,178.0,1.0,,,,,,
178,,iti,,html-keyboard-response,178,401558,0.0-1.0-34.0-0.0-5.0,0,0,46320,,,,,,32.0,,,,,1.0,,,,,,,,,,,,,,,,,,,,,,,,,,,180.0,2.0,,,,,,
179,,choice,,html-keyboard-response,179,402821,0.0-1.0-35.0-0.0-0.0,0,0,46320,,1257.0,,,68.0,33.0,33.0,1000.0,1000.0,0.0,1.0,0.0,20-60,,0.0,baby carriage,power strip,20.0,60.0,baby carriage5,power strip11,20.0,40.0,Baby_Stroller.jpg,41Bw7Tl1G7L._AA262_.jpg,/static/Category_learning/Stimuli/Experimental_stims/baby carriage/Baby_Stroller.jpg,/static/Category_learning/Stimuli/Experimental_stims/power strip/41Bw7Tl1G7L._AA262_.jpg,1.0,baby carriage,power strip,20.0,60.0,baby carriage5,power strip11,20.0,40.0,0.0,181.257,1.257,,,,,,
180,,confirmation,,html-keyboard-response,180,403073,0.0-1.0-35.0-0.0-1.0-0.0,0,0,46320,,,,,,33.0,,,,,1.0,,,,,,,,,,,,,,,,,,,,,,,,,,,181.5,0.243,,,,,,
181,,isi,,html-keyboard-response,181,404078,0.0-1.0-35.0-0.0-2.0,0,0,46320,,,,,,33.0,,,,,1.0,,,,,,,,,,,,,,,,,,,,,,,,,,,182.5,1.0,,,,,,
182,,feedback,,html-keyboard-response,182,405084,0.0-1.0-35.0-0.0-3.0-0.0,0,0,46320,,,,,,33.0,,,,,1.0,,,,,,,,,,,,,,,,,,,,,,,,,,,183.5,1.0,,,,,,
183,,iti,,html-keyboard-response,183,406091,0.0-1.0-35.0-0.0-5.0,0,0,46320,,,,,,33.0,,,,,1.0,,,,,,,,,,,,,,,,,,,,,,,,,,,184.5,1.0,,,,,,
184,,choice,,html-keyboard-response,184,407044,0.0-1.0-36.0-0.0-0.0,0,0,46320,,944.0,,,75.0,34.0,34.0,3500.0,1500.0,0.0,1.0,0.0,20-20,,,dresser,fan,20.0,20.0,dresser6,fan4,40.0,0.0,ADRESSE96.jpg,AFAN39.jpg,/static/Category_learning/Stimuli/Experimental_stims/dresser/ADRESSE96.jpg,/static/Category_learning/Stimuli/Experimental_stims/fan/AFAN39.jpg,0.0,fan,dresser,20.0,20.0,fan4,dresser6,0.0,40.0,0.0,185.444,0.944,,,,,,
185,,confirmation,,html-keyboard-response,185,407608,0.0-1.0-36.0-0.0-1.0-0.0,0,0,46320,,,,,,34.0,,,,,1.0,,,,,,,,,,,,,,,,,,,,,,,,,,,186.0,0.556,,,,,,
186,,isi,,html-keyboard-response,186,411117,0.0-1.0-36.0-0.0-2.0,0,0,46320,,,,,,34.0,,,,,1.0,,,,,,,,,,,,,,,,,,,,,,,,,,,189.5,3.5,,,,,,
187,,feedback,,html-keyboard-response,187,412124,0.0-1.0-36.0-0.0-3.0-0.0,0,0,46320,,,,,,34.0,,,,,1.0,,,,,,,,,,,,,,,,,,,,,,,,,,,190.5,1.0,,,,,,
188,,iti,,html-keyboard-response,188,413632,0.0-1.0-36.0-0.0-5.0,0,0,46320,,,,,,34.0,,,,,1.0,,,,,,,,,,,,,,,,,,,,,,,,,,,192.0,1.5,,,,,,
189,,choice,,html-keyboard-response,189,414628,0.0-1.0-37.0-0.0-0.0,0,0,46320,,988.0,,,68.0,35.0,35.0,1500.0,1500.0,0.0,1.0,0.0,20-80,,1.0,vase,bowl,80.0,20.0,vase9,bowl2,80.0,40.0,Avasewithang2.jpg,AMIXBOWL2.jpg,/static/Category_learning/Stimuli/Experimental_stims/vase/Avasewithang2.jpg,/static/Category_learning/Stimuli/Experimental_stims/bowl/AMIXBOWL2.jpg,1.0,vase,bowl,80.0,20.0,vase9,bowl2,80.0,40.0,0.0,192.988,0.988,,,,,,
190,,confirmation,,html-keyboard-response,190,415147,0.0-1.0-37.0-0.0-1.0-0.0,0,0,46320,,,,,,35.0,,,,,1.0,,,,,,,,,,,,,,,,,,,,,,,,,,,193.5,0.512,,,,,,
191,,isi,,html-keyboard-response,191,416655,0.0-1.0-37.0-0.0-2.0,0,0,46320,,,,,,35.0,,,,,1.0,,,,,,,,,,,,,,,,,,,,,,,,,,,195.0,1.5,,,,,,
192,,feedback,,html-keyboard-response,192,417664,0.0-1.0-37.0-0.0-3.0-0.0,0,0,46320,,,,,,35.0,,,,,1.0,,,,,,,,,,,,,,,,,,,,,,,,,,,196.0,1.0,,,,,,
193,,iti,,html-keyboard-response,193,419172,0.0-1.0-37.0-0.0-5.0,0,0,46320,,,,,,35.0,,,,,1.0,,,,,,,,,,,,,,,,,,,,,,,,,,,197.5,1.5,,,,,,
194,,choice,,html-keyboard-response,194,420013,0.0-1.0-38.0-0.0-0.0,0,0,46320,,831.0,,,75.0,36.0,36.0,2000.0,1000.0,0.0,1.0,0.0,40-40,,,hammer,lipstick,40.0,40.0,hammer12,lipstick14,20.0,60.0,24oz hammer.jpg,P109907_hero.jpg,/static/Category_learning/Stimuli/Experimental_stims/hammer/24oz hammer.jpg,/static/Category_learning/Stimuli/Experimental_stims/lipstick/P109907_hero.jpg,0.0,lipstick,hammer,40.0,40.0,lipstick14,hammer12,60.0,20.0,0.0,198.331,0.831,,,,,,
195,,confirmation,,html-keyboard-response,195,420690,0.0-1.0-38.0-0.0-1.0-0.0,0,0,46320,,,,,,36.0,,,,,1.0,,,,,,,,,,,,,,,,,,,,,,,,,,,199.0,0.669,,,,,,
196,,isi,,html-keyboard-response,196,422697,0.0-1.0-38.0-0.0-2.0,0,0,46320,,,,,,36.0,,,,,1.0,,,,,,,,,,,,,,,,,,,,,,,,,,,201.0,2.0,,,,,,
197,,feedback,,html-keyboard-response,197,423703,0.0-1.0-38.0-0.0-3.0-0.0,0,0,46320,,,,,,36.0,,,,,1.0,,,,,,,,,,,,,,,,,,,,,,,,,,,202.0,1.0,,,,,,
198,,iti,,html-keyboard-response,198,424708,0.0-1.0-38.0-0.0-5.0,0,0,46320,,,,,,36.0,,,,,1.0,,,,,,,,,,,,,,,,,,,,,,,,,,,203.0,1.0,,,,,,
199,,choice,,html-keyboard-response,199,425642,0.0-1.0-39.0-0.0-0.0,0,0,46320,,926.0,,,75.0,37.0,37.0,3000.0,2000.0,0.0,1.0,1.0,20-20,1.0,,fan,fan,20.0,20.0,fan14,fan4,40.0,0.0,124771_sk_lg.jpg,AFAN39.jpg,/static/Category_learning/Stimuli/Experimental_stims/fan/124771_sk_lg.jpg,/static/Category_learning/Stimuli/Experimental_stims/fan/AFAN39.jpg,0.0,fan,fan,20.0,20.0,fan4,fan14,0.0,40.0,0.0,203.926,0.926,,,,,,
200,,confirmation,,html-keyboard-response,200,426223,0.0-1.0-39.0-0.0-1.0-0.0,0,0,46320,,,,,,37.0,,,,,1.0,,,,,,,,,,,,,,,,,,,,,,,,,,,204.5,0.574,,,,,,
201,,isi,,html-keyboard-response,201,429234,0.0-1.0-39.0-0.0-2.0,0,0,46320,,,,,,37.0,,,,,1.0,,,,,,,,,,,,,,,,,,,,,,,,,,,207.5,3.0,,,,,,
202,,feedback,,html-keyboard-response,202,430241,0.0-1.0-39.0-0.0-3.0-0.0,0,0,46320,,,,,,37.0,,,,,1.0,,,,,,,,,,,,,,,,,,,,,,,,,,,208.5,1.0,,,,,,
203,,iti,,html-keyboard-response,203,432248,0.0-1.0-39.0-0.0-5.0,0,0,46320,,,,,,37.0,,,,,1.0,,,,,,,,,,,,,,,,,,,,,,,,,,,210.5,2.0,,,,,,
204,,choice,,html-keyboard-response,204,432775,0.0-1.0-40.0-0.0-0.0,0,0,46320,,518.0,,,75.0,38.0,38.0,1500.0,3000.0,0.0,1.0,0.0,20-60,,1.0,poker card,door knob,60.0,20.0,poker card13,door knob14,80.0,20.0,9817197.thl.jpg,500_CLANYKAB.jpg,/static/Category_learning/Stimuli/Experimental_stims/poker card/9817197.thl.jpg,/static/Category_learning/Stimuli/Experimental_stims/door knob/500_CLANYKAB.jpg,0.0,door knob,poker card,20.0,60.0,door knob14,poker card13,20.0,80.0,0.0,211.018,0.518,,,,,,
205,,confirmation,,html-keyboard-response,205,433766,0.0-1.0-40.0-0.0-1.0-0.0,0,0,46320,,,,,,38.0,,,,,1.0,,,,,,,,,,,,,,,,,,,,,,,,,,,212.0,0.982,,,,,,
206,,isi,,html-keyboard-response,206,435281,0.0-1.0-40.0-0.0-2.0,0,0,46320,,,,,,38.0,,,,,1.0,,,,,,,,,,,,,,,,,,,,,,,,,,,213.5,1.5,,,,,,
207,,feedback,,html-keyboard-response,207,436291,0.0-1.0-40.0-0.0-3.0-0.0,0,0,46320,,,,,,38.0,,,,,1.0,,,,,,,,,,,,,,,,,,,,,,,,,,,214.5,1.0,,,,,,
208,,iti,,html-keyboard-response,208,439300,0.0-1.0-40.0-0.0-5.0,0,0,46320,,,,,,38.0,,,,,1.0,,,,,,,,,,,,,,,,,,,,,,,,,,,217.5,3.0,,,,,,
209,,choice,,html-keyboard-response,209,439958,0.0-1.0-41.0-0.0-0.0,0,0,46320,,653.0,,,68.0,39.0,39.0,3500.0,1000.0,0.0,1.0,1.0,80-80,1.0,,tape,tape,80.0,80.0,tape7,tape10,80.0,60.0,tape dispenser.jpg,26377601.thl.jpg,/static/Category_learning/Stimuli/Experimental_stims/tape/tape dispenser.jpg,/static/Category_learning/Stimuli/Experimental_stims/tape/26377601.thl.jpg,1.0,tape,tape,80.0,80.0,tape7,tape10,80.0,60.0,0.0,218.153,0.653,,,,,,
210,,confirmation,,html-keyboard-response,210,440818,0.0-1.0-41.0-0.0-1.0-0.0,0,0,46320,,,,,,39.0,,,,,1.0,,,,,,,,,,,,,,,,,,,,,,,,,,,219.0,0.847,,,,,,
211,,isi,,html-keyboard-response,211,444329,0.0-1.0-41.0-0.0-2.0,0,0,46320,,,,,,39.0,,,,,1.0,,,,,,,,,,,,,,,,,,,,,,,,,,,222.5,3.5,,,,,,
212,,feedback,,html-keyboard-response,212,445337,0.0-1.0-41.0-0.0-3.0-0.0,0,0,46320,,,,,,39.0,,,,,1.0,,,,,,,,,,,,,,,,,,,,,,,,,,,223.5,1.0,,,,,,
213,,iti,,html-keyboard-response,213,446344,0.0-1.0-41.0-0.0-5.0,0,0,46320,,,,,,39.0,,,,,1.0,,,,,,,,,,,,,,,,,,,,,,,,,,,224.5,1.0,,,,,,
214,,choice,,html-keyboard-response,214,447252,0.0-1.0-42.0-0.0-0.0,0,0,46320,,893.0,,,75.0,40.0,40.0,2000.0,3000.0,0.0,1.0,1.0,20-40,0.0,,flashlight,lipstick,20.0,40.0,flashlight9,lipstick14,40.0,60.0,new06.jpg,P109907_hero.jpg,/static/Category_learning/Stimuli/Experimental_stims/flashlight/new06.jpg,/static/Category_learning/Stimuli/Experimental_stims/lipstick/P109907_hero.jpg,0.0,lipstick,flashlight,40.0,20.0,lipstick14,flashlight9,60.0,40.0,0.0,225.393,0.893,,,,,,
215,,confirmation,,html-keyboard-response,215,447870,0.0-1.0-42.0-0.0-1.0-0.0,0,0,46320,,,,,,40.0,,,,,1.0,,,,,,,,,,,,,,,,,,,,,,,,,,,226.0,0.607,,,,,,
216,,isi,,html-keyboard-response,216,449883,0.0-1.0-42.0-0.0-2.0,0,0,46320,,,,,,40.0,,,,,1.0,,,,,,,,,,,,,,,,,,,,,,,,,,,228.0,2.0,,,,,,
217,,feedback,,html-keyboard-response,217,450941,0.0-1.0-42.0-0.0-3.0-0.0,0,0,46320,,,,,,40.0,,,,,1.0,,,,,,,,,,,,,,,,,,,,,,,,,,,229.0,1.0,,,,,,
218,,iti,,html-keyboard-response,218,453950,0.0-1.0-42.0-0.0-5.0,0,0,46320,,,,,,40.0,,,,,1.0,,,,,,,,,,,,,,,,,,,,,,,,,,,232.0,3.0,,,,,,
219,,choice,,html-keyboard-response,219,455090,0.0-1.0-43.0-0.0-0.0,0,0,46320,,1131.0,,,68.0,41.0,41.0,1000.0,1000.0,0.0,1.0,0.0,20-60,,1.0,small table,bongo,60.0,20.0,small table4,bongo9,40.0,20.0,ACOFTABLE.jpg,22946035.thl.jpg,/static/Category_learning/Stimuli/Experimental_stims/small table/ACOFTABLE.jpg,/static/Category_learning/Stimuli/Experimental_stims/bongo/22946035.thl.jpg,1.0,small table,bongo,60.0,20.0,small table4,bongo9,40.0,20.0,0.0,233.131,1.131,,,,,,
220,,confirmation,,html-keyboard-response,220,455466,0.0-1.0-43.0-0.0-1.0-0.0,0,0,46320,,,,,,41.0,,,,,1.0,,,,,,,,,,,,,,,,,,,,,,,,,,,233.5,0.369,,,,,,
221,,isi,,html-keyboard-response,221,456474,0.0-1.0-43.0-0.0-2.0,0,0,46320,,,,,,41.0,,,,,1.0,,,,,,,,,,,,,,,,,,,,,,,,,,,234.5,1.0,,,,,,
222,,feedback,,html-keyboard-response,222,457482,0.0-1.0-43.0-0.0-3.0-0.0,0,0,46320,,,,,,41.0,,,,,1.0,,,,,,,,,,,,,,,,,,,,,,,,,,,235.5,1.0,,,,,,
223,,iti,,html-keyboard-response,223,458493,0.0-1.0-43.0-0.0-5.0,0,0,46320,,,,,,41.0,,,,,1.0,,,,,,,,,,,,,,,,,,,,,,,,,,,236.5,1.0,,,,,,
224,,choice,,html-keyboard-response,224,459316,0.0-1.0-44.0-0.0-0.0,0,0,46320,,812.0,,,75.0,42.0,42.0,3500.0,1000.0,0.0,1.0,0.0,60-60,,,necklace,poker card,60.0,60.0,necklace2,poker card5,40.0,40.0,Anecklace7.jpg,22864800.thl.jpg,/static/Category_learning/Stimuli/Experimental_stims/necklace/Anecklace7.jpg,/static/Category_learning/Stimuli/Experimental_stims/poker card/22864800.thl.jpg,0.0,poker card,necklace,60.0,60.0,poker card5,necklace2,40.0,40.0,0.0,237.312,0.812,,,,,,
225,,confirmation,,html-keyboard-response,225,460017,0.0-1.0-44.0-0.0-1.0-0.0,0,0,46320,,,,,,42.0,,,,,1.0,,,,,,,,,,,,,,,,,,,,,,,,,,,238.0,0.688,,,,,,
226,,isi,,html-keyboard-response,226,463528,0.0-1.0-44.0-0.0-2.0,0,0,46320,,,,,,42.0,,,,,1.0,,,,,,,,,,,,,,,,,,,,,,,,,,,241.5,3.5,,,,,,
227,,feedback,,html-keyboard-response,227,464538,0.0-1.0-44.0-0.0-3.0-0.0,0,0,46320,,,,,,42.0,,,,,1.0,,,,,,,,,,,,,,,,,,,,,,,,,,,242.5,1.0,,,,,,
228,,iti,,html-keyboard-response,228,465547,0.0-1.0-44.0-0.0-5.0,0,0,46320,,,,,,42.0,,,,,1.0,,,,,,,,,,,,,,,,,,,,,,,,,,,243.5,1.0,,,,,,
229,,choice,,html-keyboard-response,229,467056,0.0-1.0-45.0-0.0-0.0,0,0,46320,,,,,,43.0,43.0,2000.0,2000.0,0.0,1.0,0.0,40-60,,0.0,lipstick,power strip,40.0,60.0,lipstick10,power strip10,60.0,60.0,21K0D7QKFAL._SS500_.jpg,6bd437c9-6165-4d36-bf75-9a1038783c6a_400.jpg,/static/Category_learning/Stimuli/Experimental_stims/lipstick/21K0D7QKFAL._SS500_.jpg,/static/Category_learning/Stimuli/Experimental_stims/power strip/6bd437c9-6165-4d36-bf75-9a1038783c6a_400.jpg,,,,,,,,,,1.0,245.0,1.5,,,,,,
230,,isi,,html-keyboard-response,230,469070,0.0-1.0-45.0-0.0-2.0,0,0,46320,,,,,,43.0,,,,,1.0,,,,,,,,,,,,,,,,,,,,,,,,,,,247.0,2.0,,,,,,
231,,no_response,,html-keyboard-response,231,470079,0.0-1.0-45.0-0.0-4.0-0.0,0,0,46320,,,,,,43.0,,,,,1.0,,,,,,,,,,,,,,,,,,,,,,,,,,,248.0,1.0,,,,,,
232,,iti,,html-keyboard-response,232,472133,0.0-1.0-45.0-0.0-5.0,0,0,46320,,,,,,43.0,,,,,1.0,,,,,,,,,,,,,,,,,,,,,,,,,,,250.0,2.0,,,,,,
233,,choice,,html-keyboard-response,233,472234,0.0-1.0-45.0-0.1-0.1,0,0,46320,,94.0,,,68.0,43.0,43.0,2000.0,2000.0,0.0,1.0,0.0,40-60,,0.0,lipstick,power strip,40.0,60.0,lipstick10,power strip10,60.0,60.0,21K0D7QKFAL._SS500_.jpg,6bd437c9-6165-4d36-bf75-9a1038783c6a_400.jpg,/static/Category_learning/Stimuli/Experimental_stims/lipstick/21K0D7QKFAL._SS500_.jpg,/static/Category_learning/Stimuli/Experimental_stims/power strip/6bd437c9-6165-4d36-bf75-9a1038783c6a_400.jpg,1.0,lipstick,power strip,40.0,60.0,lipstick10,power strip10,60.0,60.0,0.0,250.094,0.094,,,,,,
234,,confirmation,,html-keyboard-response,234,473650,0.0-1.0-45.0-0.1-1.1-0.1,0,0,46320,,,,,,43.0,,,,,1.0,,,,,,,,,,,,,,,,,,,,,,,,,,,251.5,1.406,,,,,,
235,,isi,,html-keyboard-response,235,474656,0.0-1.0-45.0-0.1-2.1,0,0,46320,,,,,,43.0,,,,,1.0,,,,,,,,,,,,,,,,,,,,,,,,,,,252.5,1.0,,,,,,
236,,feedback,,html-keyboard-response,236,475665,0.0-1.0-45.0-0.1-3.1-0.1,0,0,46320,,,,,,43.0,,,,,1.0,,,,,,,,,,,,,,,,,,,,,,,,,,,253.5,1.0,,,,,,
237,,iti,,html-keyboard-response,237,476672,0.0-1.0-45.0-0.1-5.1,0,0,46320,,,,,,43.0,,,,,1.0,,,,,,,,,,,,,,,,,,,,,,,,,,,254.5,1.0,,,,,,
238,,choice,,html-keyboard-response,238,477556,0.0-1.0-46.0-0.0-0.0,0,0,46320,,866.0,,,75.0,44.0,44.0,1000.0,3000.0,0.0,1.0,1.0,20-60,0.0,,door knob,power strip,20.0,60.0,door knob14,power strip5,20.0,40.0,500_CLANYKAB.jpg,93e4a283-bcd6-4ad1-8add-339658cda0fc_400.jpg,/static/Category_learning/Stimuli/Experimental_stims/door knob/500_CLANYKAB.jpg,/static/Category_learning/Stimuli/Experimental_stims/power strip/93e4a283-bcd6-4ad1-8add-339658cda0fc_400.jpg,0.0,power strip,door knob,60.0,20.0,power strip5,door knob14,40.0,20.0,0.0,255.366,0.866,,,,,,
239,,confirmation,,html-keyboard-response,239,478201,0.0-1.0-46.0-0.0-1.0-0.0,0,0,46320,,,,,,44.0,,,,,1.0,,,,,,,,,,,,,,,,,,,,,,,,,,,256.0,0.634,,,,,,
240,,isi,,html-keyboard-response,240,479547,0.0-1.0-46.0-0.0-2.0,0,0,46320,,,,,,44.0,,,,,1.0,,,,,,,,,,,,,,,,,,,,,,,,,,,257.0,1.0,,,,,,
241,,feedback,,html-keyboard-response,241,480555,0.0-1.0-46.0-0.0-3.0-0.0,0,0,46320,,,,,,44.0,,,,,1.0,,,,,,,,,,,,,,,,,,,,,,,,,,,258.0,1.0,,,,,,
242,,iti,,html-keyboard-response,242,484562,0.0-1.0-46.0-0.0-5.0,0,0,46320,,,,,,44.0,,,,,1.0,,,,,,,,,,,,,,,,,,,,,,,,,,,261.0,3.0,,,,,,
243,,choice,,html-keyboard-response,243,486465,0.0-1.0-47.0-0.0-0.0,0,0,46320,,,,,,45.0,45.0,1500.0,1000.0,0.0,1.0,1.0,20-80,0.0,,vase,desk,80.0,20.0,vase9,desk10,80.0,20.0,Avasewithang2.jpg,MEX028.jpg,/static/Category_learning/Stimuli/Experimental_stims/vase/Avasewithang2.jpg,/static/Category_learning/Stimuli/Experimental_stims/desk/MEX028.jpg,,,,,,,,,,1.0,262.5,1.5,,,,,,
244,,isi,,html-keyboard-response,244,487974,0.0-1.0-47.0-0.0-2.0,0,0,46320,,,,,,45.0,,,,,1.0,,,,,,,,,,,,,,,,,,,,,,,,,,,264.0,1.5,,,,,,
245,,no_response,,html-keyboard-response,245,488987,0.0-1.0-47.0-0.0-4.0-0.0,0,0,46320,,,,,,45.0,,,,,1.0,,,,,,,,,,,,,,,,,,,,,,,,,,,265.0,1.0,,,,,,
246,,iti,,html-keyboard-response,246,490040,0.0-1.0-47.0-0.0-5.0,0,0,46320,,,,,,45.0,,,,,1.0,,,,,,,,,,,,,,,,,,,,,,,,,,,266.0,1.0,,,,,,
247,,choice,,html-keyboard-response,247,490106,0.0-1.0-47.0-0.1-0.1,0,0,46320,,57.0,,,75.0,45.0,45.0,1500.0,1000.0,0.0,1.0,1.0,20-80,0.0,,vase,desk,80.0,20.0,vase9,desk10,80.0,20.0,Avasewithang2.jpg,MEX028.jpg,/static/Category_learning/Stimuli/Experimental_stims/vase/Avasewithang2.jpg,/static/Category_learning/Stimuli/Experimental_stims/desk/MEX028.jpg,0.0,desk,vase,20.0,80.0,desk10,vase9,20.0,80.0,0.0,266.057,0.057,,,,,,
248,,confirmation,,html-keyboard-response,248,491555,0.0-1.0-47.0-0.1-1.1-0.1,0,0,46320,,,,,,45.0,,,,,1.0,,,,,,,,,,,,,,,,,,,,,,,,,,,267.5,1.443,,,,,,
249,,isi,,html-keyboard-response,249,492561,0.0-1.0-47.0-0.1-2.1,0,0,46320,,,,,,45.0,,,,,1.0,,,,,,,,,,,,,,,,,,,,,,,,,,,268.5,1.0,,,,,,
250,,feedback,,html-keyboard-response,250,493570,0.0-1.0-47.0-0.1-3.1-0.1,0,0,46320,,,,,,45.0,,,,,1.0,,,,,,,,,,,,,,,,,,,,,,,,,,,269.5,1.0,,,,,,
251,,iti,,html-keyboard-response,251,495079,0.0-1.0-47.0-0.1-5.1,0,0,46320,,,,,,45.0,,,,,1.0,,,,,,,,,,,,,,,,,,,,,,,,,,,271.0,1.5,,,,,,
252,,choice,,html-keyboard-response,252,495877,0.0-1.0-48.0-0.0-0.0,0,0,46320,,786.0,,,75.0,46.0,46.0,1000.0,1500.0,0.0,1.0,0.0,20-40,,0.0,bongo,hammer,20.0,40.0,bongo13,hammer4,0.0,40.0,26388718.thl.jpg,hammernew01.jpg,/static/Category_learning/Stimuli/Experimental_stims/bongo/26388718.thl.jpg,/static/Category_learning/Stimuli/Experimental_stims/hammer/hammernew01.jpg,0.0,hammer,bongo,40.0,20.0,hammer4,bongo13,40.0,0.0,0.0,271.786,0.786,,,,,,
253,,confirmation,,html-keyboard-response,253,496601,0.0-1.0-48.0-0.0-1.0-0.0,0,0,46320,,,,,,46.0,,,,,1.0,,,,,,,,,,,,,,,,,,,,,,,,,,,272.5,0.714,,,,,,
254,,isi,,html-keyboard-response,254,497606,0.0-1.0-48.0-0.0-2.0,0,0,46320,,,,,,46.0,,,,,1.0,,,,,,,,,,,,,,,,,,,,,,,,,,,273.5,1.0,,,,,,
255,,feedback,,html-keyboard-response,255,498613,0.0-1.0-48.0-0.0-3.0-0.0,0,0,46320,,,,,,46.0,,,,,1.0,,,,,,,,,,,,,,,,,,,,,,,,,,,274.5,1.0,,,,,,
256,,iti,,html-keyboard-response,256,500147,0.0-1.0-48.0-0.0-5.0,0,0,46320,,,,,,46.0,,,,,1.0,,,,,,,,,,,,,,,,,,,,,,,,,,,276.0,1.5,,,,,,
257,,choice,,html-keyboard-response,257,501635,0.0-1.0-49.0-0.0-0.0,0,0,46320,,1477.0,,,75.0,47.0,47.0,1000.0,2000.0,0.0,1.0,0.0,40-80,,1.0,telescope,frame,80.0,40.0,telescope15,frame3,80.0,40.0,VictorianDeskTelescope.jpg,AFRAME132.jpg,/static/Category_learning/Stimuli/Experimental_stims/telescope/VictorianDeskTelescope.jpg,/static/Category_learning/Stimuli/Experimental_stims/frame/AFRAME132.jpg,0.0,frame,telescope,40.0,80.0,frame3,telescope15,40.0,80.0,0.0,277.477,1.477,,,,,,
258,,confirmation,,html-keyboard-response,258,501666,0.0-1.0-49.0-0.0-1.0-0.0,0,0,46320,,,,,,47.0,,,,,1.0,,,,,,,,,,,,,,,,,,,,,,,,,,,277.5,0.023,,,,,,
259,,isi,,html-keyboard-response,259,503545,0.0-1.0-49.0-0.0-2.0,0,0,46320,,,,,,47.0,,,,,1.0,,,,,,,,,,,,,,,,,,,,,,,,,,,278.5,1.0,,,,,,
260,,feedback,,html-keyboard-response,260,504556,0.0-1.0-49.0-0.0-3.0-0.0,0,0,46320,,,,,,47.0,,,,,1.0,,,,,,,,,,,,,,,,,,,,,,,,,,,279.5,1.0,,,,,,
261,,iti,,html-keyboard-response,261,506592,0.0-1.0-49.0-0.0-5.0,0,0,46320,,,,,,47.0,,,,,1.0,,,,,,,,,,,,,,,,,,,,,,,,,,,281.5,2.0,,,,,,
262,,choice,,html-keyboard-response,262,507614,0.0-1.0-50.0-0.0-0.0,0,0,46320,,1015.0,,,75.0,48.0,48.0,1000.0,2000.0,0.0,1.0,0.0,20-20,,,bench,flashlight,20.0,20.0,bench5,flashlight3,0.0,20.0,APARKBEN8.jpg,sl_tasklight_2l3w.jpg,/static/Category_learning/Stimuli/Experimental_stims/bench/APARKBEN8.jpg,/static/Category_learning/Stimuli/Experimental_stims/flashlight/sl_tasklight_2l3w.jpg,0.0,flashlight,bench,20.0,20.0,flashlight3,bench5,20.0,0.0,0.0,282.515,1.015,,,,,,
263,,confirmation,,html-keyboard-response,263,508109,0.0-1.0-50.0-0.0-1.0-0.0,0,0,46320,,,,,,48.0,,,,,1.0,,,,,,,,,,,,,,,,,,,,,,,,,,,283.0,0.485,,,,,,
264,,isi,,html-keyboard-response,264,509117,0.0-1.0-50.0-0.0-2.0,0,0,46320,,,,,,48.0,,,,,1.0,,,,,,,,,,,,,,,,,,,,,,,,,,,284.0,1.0,,,,,,
265,,feedback,,html-keyboard-response,265,510126,0.0-1.0-50.0-0.0-3.0-0.0,0,0,46320,,,,,,48.0,,,,,1.0,,,,,,,,,,,,,,,,,,,,,,,,,,,285.0,1.0,,,,,,
266,,iti,,html-keyboard-response,266,512137,0.0-1.0-50.0-0.0-5.0,0,0,46320,,,,,,48.0,,,,,1.0,,,,,,,,,,,,,,,,,,,,,,,,,,,287.0,2.0,,,,,,
267,,choice,,html-keyboard-response,267,512593,0.0-1.0-51.0-0.0-0.0,0,0,46320,,445.0,,,75.0,49.0,49.0,1500.0,1500.0,0.0,1.0,1.0,20-40,0.0,,frame,flashlight,40.0,20.0,frame3,flashlight3,40.0,20.0,AFRAME132.jpg,sl_tasklight_2l3w.jpg,/static/Category_learning/Stimuli/Experimental_stims/frame/AFRAME132.jpg,/static/Category_learning/Stimuli/Experimental_stims/flashlight/sl_tasklight_2l3w.jpg,0.0,flashlight,frame,20.0,40.0,flashlight3,frame3,20.0,40.0,0.0,287.445,0.445,,,,,,
268,,confirmation,,html-keyboard-response,268,513659,0.0-1.0-51.0-0.0-1.0-0.0,0,0,46320,,,,,,49.0,,,,,1.0,,,,,,,,,,,,,,,,,,,,,,,,,,,288.5,1.055,,,,,,
269,,isi,,html-keyboard-response,269,515166,0.0-1.0-51.0-0.0-2.0,0,0,46320,,,,,,49.0,,,,,1.0,,,,,,,,,,,,,,,,,,,,,,,,,,,290.0,1.5,,,,,,
270,,feedback,,html-keyboard-response,270,516179,0.0-1.0-51.0-0.0-3.0-0.0,0,0,46320,,,,,,49.0,,,,,1.0,,,,,,,,,,,,,,,,,,,,,,,,,,,291.0,1.0,,,,,,
271,,iti,,html-keyboard-response,271,517694,0.0-1.0-51.0-0.0-5.0,0,0,46320,,,,,,49.0,,,,,1.0,,,,,,,,,,,,,,,,,,,,,,,,,,,292.5,1.5,,,,,,
272,,choice,,html-keyboard-response,272,519076,0.0-1.0-52.0-0.0-0.0,0,0,46320,,1361.0,,,75.0,50.0,50.0,1000.0,1500.0,0.0,1.0,0.0,40-80,,0.0,frame,vase,40.0,80.0,frame11,vase14,60.0,80.0,AFRAME139.jpg,Avase119.jpg,/static/Category_learning/Stimuli/Experimental_stims/frame/AFRAME139.jpg,/static/Category_learning/Stimuli/Experimental_stims/vase/Avase119.jpg,0.0,vase,frame,80.0,40.0,vase14,frame11,80.0,60.0,0.0,293.861,1.361,,,,,,
273,,confirmation,,html-keyboard-response,273,519223,0.0-1.0-52.0-0.0-1.0-0.0,0,0,46320,,,,,,50.0,,,,,1.0,,,,,,,,,,,,,,,,,,,,,,,,,,,294.0,0.139,,,,,,
274,,isi,,html-keyboard-response,274,520552,0.0-1.0-52.0-0.0-2.0,0,0,46320,,,,,,50.0,,,,,1.0,,,,,,,,,,,,,,,,,,,,,,,,,,,295.0,1.0,,,,,,
275,,feedback,,html-keyboard-response,275,521695,0.0-1.0-52.0-0.0-3.0-0.0,0,0,46320,,,,,,50.0,,,,,1.0,,,,,,,,,,,,,,,,,,,,,,,,,,,296.0,1.0,,,,,,
276,,iti,,html-keyboard-response,276,523297,0.0-1.0-52.0-0.0-5.0,0,0,46320,,,,,,50.0,,,,,1.0,,,,,,,,,,,,,,,,,,,,,,,,,,,297.5,1.5,,,,,,
277,,choice,,html-keyboard-response,277,524115,0.0-1.0-53.0-0.0-0.0,0,0,46320,,803.0,,,75.0,51.0,51.0,2000.0,2000.0,0.0,1.0,0.0,20-60,,1.0,seashell,door knob,60.0,20.0,seashell11,door knob1,80.0,0.0,ASEASH12.jpg,Brass_Door_Handle.jpg,/static/Category_learning/Stimuli/Experimental_stims/seashell/ASEASH12.jpg,/static/Category_learning/Stimuli/Experimental_stims/door knob/Brass_Door_Handle.jpg,0.0,door knob,seashell,20.0,60.0,door knob1,seashell11,0.0,80.0,0.0,298.303,0.803,,,,,,
278,,confirmation,,html-keyboard-response,278,524823,0.0-1.0-53.0-0.0-1.0-0.0,0,0,46320,,,,,,51.0,,,,,1.0,,,,,,,,,,,,,,,,,,,,,,,,,,,299.0,0.697,,,,,,
279,,isi,,html-keyboard-response,279,526831,0.0-1.0-53.0-0.0-2.0,0,0,46320,,,,,,51.0,,,,,1.0,,,,,,,,,,,,,,,,,,,,,,,,,,,301.0,2.0,,,,,,
280,,feedback,,html-keyboard-response,280,527841,0.0-1.0-53.0-0.0-3.0-0.0,0,0,46320,,,,,,51.0,,,,,1.0,,,,,,,,,,,,,,,,,,,,,,,,,,,302.0,1.0,,,,,,
281,,iti,,html-keyboard-response,281,529851,0.0-1.0-53.0-0.0-5.0,0,0,46320,,,,,,51.0,,,,,1.0,,,,,,,,,,,,,,,,,,,,,,,,,,,304.0,2.0,,,,,,
282,,choice,,html-keyboard-response,282,530205,0.0-1.0-54.0-0.0-0.0,0,0,46320,,344.0,,,68.0,52.0,52.0,2000.0,1000.0,0.0,1.0,0.0,20-40,,0.0,flashlight,makeup compact,20.0,40.0,flashlight2,makeup compact13,0.0,40.0,AV-9 No Battery Flashlight.jpg,31YfapjS3TL._AA250_.jpg,/static/Category_learning/Stimuli/Experimental_stims/flashlight/AV-9 No Battery Flashlight.jpg,/static/Category_learning/Stimuli/Experimental_stims/makeup compact/31YfapjS3TL._AA250_.jpg,1.0,flashlight,makeup compact,20.0,40.0,flashlight2,makeup compact13,0.0,40.0,0.0,304.344,0.344,,,,,,
283,,confirmation,,html-keyboard-response,283,531373,0.0-1.0-54.0-0.0-1.0-0.0,0,0,46320,,,,,,52.0,,,,,1.0,,,,,,,,,,,,,,,,,,,,,,,,,,,305.5,1.156,,,,,,
284,,isi,,html-keyboard-response,284,533383,0.0-1.0-54.0-0.0-2.0,0,0,46320,,,,,,52.0,,,,,1.0,,,,,,,,,,,,,,,,,,,,,,,,,,,307.5,2.0,,,,,,
285,,feedback,,html-keyboard-response,285,534391,0.0-1.0-54.0-0.0-3.0-0.0,0,0,46320,,,,,,52.0,,,,,1.0,,,,,,,,,,,,,,,,,,,,,,,,,,,308.5,1.0,,,,,,
286,,iti,,html-keyboard-response,286,535398,0.0-1.0-54.0-0.0-5.0,0,0,46320,,,,,,52.0,,,,,1.0,,,,,,,,,,,,,,,,,,,,,,,,,,,309.5,1.0,,,,,,
287,,choice,,html-keyboard-response,287,536087,0.0-1.0-55.0-0.0-0.0,0,0,46320,,679.0,,,75.0,53.0,53.0,1500.0,1000.0,0.0,1.0,0.0,20-60,,1.0,sofa,bongo,60.0,20.0,sofa4,bongo4,40.0,0.0,ALOVSEA15.jpg,26390708.thl.jpg,/static/Category_learning/Stimuli/Experimental_stims/sofa/ALOVSEA15.jpg,/static/Category_learning/Stimuli/Experimental_stims/bongo/26390708.thl.jpg,0.0,bongo,sofa,20.0,60.0,bongo4,sofa4,0.0,40.0,0.0,310.179,0.679,,,,,,
288,,confirmation,,html-keyboard-response,288,536919,0.0-1.0-55.0-0.0-1.0-0.0,0,0,46320,,,,,,53.0,,,,,1.0,,,,,,,,,,,,,,,,,,,,,,,,,,,311.0,0.821,,,,,,
289,,isi,,html-keyboard-response,289,538432,0.0-1.0-55.0-0.0-2.0,0,0,46320,,,,,,53.0,,,,,1.0,,,,,,,,,,,,,,,,,,,,,,,,,,,312.5,1.5,,,,,,
290,,feedback,,html-keyboard-response,290,539440,0.0-1.0-55.0-0.0-3.0-0.0,0,0,46320,,,,,,53.0,,,,,1.0,,,,,,,,,,,,,,,,,,,,,,,,,,,313.5,1.0,,,,,,
291,,iti,,html-keyboard-response,291,540455,0.0-1.0-55.0-0.0-5.0,0,0,46320,,,,,,53.0,,,,,1.0,,,,,,,,,,,,,,,,,,,,,,,,,,,314.5,1.0,,,,,,
292,,choice,,html-keyboard-response,292,541064,0.0-1.0-56.0-0.0-0.0,0,0,46320,,599.0,,,68.0,54.0,54.0,1000.0,1000.0,0.0,1.0,1.0,60-80,0.0,,yarn,poker card,80.0,60.0,yarn7,poker card5,100.0,40.0,herb garden hy smaller.jpg,22864800.thl.jpg,/static/Category_learning/Stimuli/Experimental_stims/yarn/herb garden hy smaller.jpg,/static/Category_learning/Stimuli/Experimental_stims/poker card/22864800.thl.jpg,1.0,yarn,poker card,80.0,60.0,yarn7,poker card5,100.0,40.0,0.0,315.099,0.599,,,,,,
293,,confirmation,,html-keyboard-response,293,541990,0.0-1.0-56.0-0.0-1.0-0.0,0,0,46320,,,,,,54.0,,,,,1.0,,,,,,,,,,,,,,,,,,,,,,,,,,,316.0,0.901,,,,,,
294,,isi,,html-keyboard-response,294,542999,0.0-1.0-56.0-0.0-2.0,0,0,46320,,,,,,54.0,,,,,1.0,,,,,,,,,,,,,,,,,,,,,,,,,,,317.0,1.0,,,,,,
295,,feedback,,html-keyboard-response,295,544008,0.0-1.0-56.0-0.0-3.0-0.0,0,0,46320,,,,,,54.0,,,,,1.0,,,,,,,,,,,,,,,,,,,,,,,,,,,318.0,1.0,,,,,,
296,,iti,,html-keyboard-response,296,545024,0.0-1.0-56.0-0.0-5.0,0,0,46320,,,,,,54.0,,,,,1.0,,,,,,,,,,,,,,,,,,,,,,,,,,,319.0,1.0,,,,,,
297,,choice,,html-keyboard-response,297,546313,0.0-1.0-57.0-0.0-0.0,0,0,46320,,1280.0,,,75.0,55.0,55.0,1000.0,1500.0,0.0,1.0,0.0,20-80,,0.0,flashlight,train,20.0,80.0,flashlight14,train11,20.0,60.0,freeplay-jonta-flashlight.jpg,train1.jpg,/static/Category_learning/Stimuli/Experimental_stims/flashlight/freeplay-jonta-flashlight.jpg,/static/Category_learning/Stimuli/Experimental_stims/train/train1.jpg,0.0,train,flashlight,80.0,20.0,train11,flashlight14,60.0,20.0,0.0,320.28,1.28,,,,,,
298,,confirmation,,html-keyboard-response,298,546542,0.0-1.0-57.0-0.0-1.0-0.0,0,0,46320,,,,,,55.0,,,,,1.0,,,,,,,,,,,,,,,,,,,,,,,,,,,320.5,0.22,,,,,,
299,,isi,,html-keyboard-response,299,547550,0.0-1.0-57.0-0.0-2.0,0,0,46320,,,,,,55.0,,,,,1.0,,,,,,,,,,,,,,,,,,,,,,,,,,,321.5,1.0,,,,,,
300,,feedback,,html-keyboard-response,300,548578,0.0-1.0-57.0-0.0-3.0-0.0,0,0,46320,,,,,,55.0,,,,,1.0,,,,,,,,,,,,,,,,,,,,,,,,,,,322.5,1.0,,,,,,
301,,iti,,html-keyboard-response,301,550088,0.0-1.0-57.0-0.0-5.0,0,0,46320,,,,,,55.0,,,,,1.0,,,,,,,,,,,,,,,,,,,,,,,,,,,324.0,1.5,,,,,,
302,,choice,,html-keyboard-response,302,551321,0.0-1.0-58.0-0.0-0.0,0,0,46320,,1224.0,,,68.0,56.0,56.0,1000.0,1500.0,0.0,1.0,0.0,20-80,,0.0,fan,stool,20.0,80.0,fan12,stool9,0.0,100.0,116544_sk_lg.jpg,ASTOOL7.jpg,/static/Category_learning/Stimuli/Experimental_stims/fan/116544_sk_lg.jpg,/static/Category_learning/Stimuli/Experimental_stims/stool/ASTOOL7.jpg,1.0,fan,stool,20.0,80.0,fan12,stool9,0.0,100.0,0.0,325.224,1.224,,,,,,
303,,confirmation,,html-keyboard-response,303,551607,0.0-1.0-58.0-0.0-1.0-0.0,0,0,46320,,,,,,56.0,,,,,1.0,,,,,,,,,,,,,,,,,,,,,,,,,,,325.5,0.276,,,,,,
304,,isi,,html-keyboard-response,304,552613,0.0-1.0-58.0-0.0-2.0,0,0,46320,,,,,,56.0,,,,,1.0,,,,,,,,,,,,,,,,,,,,,,,,,,,326.5,1.0,,,,,,
305,,feedback,,html-keyboard-response,305,553625,0.0-1.0-58.0-0.0-3.0-0.0,0,0,46320,,,,,,56.0,,,,,1.0,,,,,,,,,,,,,,,,,,,,,,,,,,,327.5,1.0,,,,,,
306,,iti,,html-keyboard-response,306,555136,0.0-1.0-58.0-0.0-5.0,0,0,46320,,,,,,56.0,,,,,1.0,,,,,,,,,,,,,,,,,,,,,,,,,,,329.0,1.5,,,,,,
307,,choice,,html-keyboard-response,307,556297,0.0-1.0-59.0-0.0-0.0,0,0,46320,,1152.0,,,75.0,57.0,57.0,1500.0,1000.0,0.0,1.0,0.0,20-40,,1.0,motorcycle,bench,40.0,20.0,motorcycle12,bench4,40.0,0.0,motorcycle14.jpg,30892819.thl.jpg,/static/Category_learning/Stimuli/Experimental_stims/motorcycle/motorcycle14.jpg,/static/Category_learning/Stimuli/Experimental_stims/bench/30892819.thl.jpg,0.0,bench,motorcycle,20.0,40.0,bench4,motorcycle12,0.0,40.0,0.0,330.152,1.152,,,,,,
308,,confirmation,,html-keyboard-response,308,556657,0.0-1.0-59.0-0.0-1.0-0.0,0,0,46320,,,,,,57.0,,,,,1.0,,,,,,,,,,,,,,,,,,,,,,,,,,,330.5,0.348,,,,,,
309,,isi,,html-keyboard-response,309,558164,0.0-1.0-59.0-0.0-2.0,0,0,46320,,,,,,57.0,,,,,1.0,,,,,,,,,,,,,,,,,,,,,,,,,,,332.0,1.5,,,,,,
310,,feedback,,html-keyboard-response,310,559171,0.0-1.0-59.0-0.0-3.0-0.0,0,0,46320,,,,,,57.0,,,,,1.0,,,,,,,,,,,,,,,,,,,,,,,,,,,333.0,1.0,,,,,,
311,,iti,,html-keyboard-response,311,560181,0.0-1.0-59.0-0.0-5.0,0,0,46320,,,,,,57.0,,,,,1.0,,,,,,,,,,,,,,,,,,,,,,,,,,,334.0,1.0,,,,,,
312,,choice,,html-keyboard-response,312,561638,0.0-1.0-60.0-0.0-0.0,0,0,46320,,1420.0,,,68.0,58.0,58.0,1000.0,2000.0,0.0,1.0,1.0,60-80,0.0,,train,small table,80.0,60.0,train11,small table4,60.0,40.0,train1.jpg,ACOFTABLE.jpg,/static/Category_learning/Stimuli/Experimental_stims/train/train1.jpg,/static/Category_learning/Stimuli/Experimental_stims/small table/ACOFTABLE.jpg,1.0,train,small table,80.0,60.0,train11,small table4,60.0,40.0,0.0,335.42,1.42,,,,,,
313,,confirmation,,html-keyboard-response,313,561725,0.0-1.0-60.0-0.0-1.0-0.0,0,0,46320,,,,,,58.0,,,,,1.0,,,,,,,,,,,,,,,,,,,,,,,,,,,335.5,0.08,,,,,,
314,,isi,,html-keyboard-response,314,562733,0.0-1.0-60.0-0.0-2.0,0,0,46320,,,,,,58.0,,,,,1.0,,,,,,,,,,,,,,,,,,,,,,,,,,,336.5,1.0,,,,,,
315,,feedback,,html-keyboard-response,315,563742,0.0-1.0-60.0-0.0-3.0-0.0,0,0,46320,,,,,,58.0,,,,,1.0,,,,,,,,,,,,,,,,,,,,,,,,,,,337.5,1.0,,,,,,
316,,iti,,html-keyboard-response,316,565750,0.0-1.0-60.0-0.0-5.0,0,0,46320,,,,,,58.0,,,,,1.0,,,,,,,,,,,,,,,,,,,,,,,,,,,339.5,2.0,,,,,,
317,,choice,,html-keyboard-response,317,567132,0.0-1.0-61.0-0.0-0.0,0,0,46320,,1374.0,,,75.0,59.0,59.0,2000.0,2000.0,0.0,1.0,0.0,40-80,,0.0,microscope,yarn,40.0,80.0,microscope12,yarn2,40.0,60.0,usbdigitalmicroscope1_small1.jpg,Aballofyarn66.jpg,/static/Category_learning/Stimuli/Experimental_stims/microscope/usbdigitalmicroscope1_small1.jpg,/static/Category_learning/Stimuli/Experimental_stims/yarn/Aballofyarn66.jpg,0.0,yarn,microscope,80.0,40.0,yarn2,microscope12,60.0,40.0,0.0,340.874,1.374,,,,,,
318,,confirmation,,html-keyboard-response,318,567266,0.0-1.0-61.0-0.0-1.0-0.0,0,0,46320,,,,,,59.0,,,,,1.0,,,,,,,,,,,,,,,,,,,,,,,,,,,341.0,0.126,,,,,,
319,,isi,,html-keyboard-response,319,569272,0.0-1.0-61.0-0.0-2.0,0,0,46320,,,,,,59.0,,,,,1.0,,,,,,,,,,,,,,,,,,,,,,,,,,,343.0,2.0,,,,,,
320,,feedback,,html-keyboard-response,320,570291,0.0-1.0-61.0-0.0-3.0-0.0,0,0,46320,,,,,,59.0,,,,,1.0,,,,,,,,,,,,,,,,,,,,,,,,,,,344.0,1.0,,,,,,
321,,iti,,html-keyboard-response,321,572305,0.0-1.0-61.0-0.0-5.0,0,0,46320,,,,,,59.0,,,,,1.0,,,,,,,,,,,,,,,,,,,,,,,,,,,346.0,2.0,,,,,,
322,,choice,,html-keyboard-response,322,573496,0.0-1.0-62.0-0.0-0.0,0,0,46320,,1178.0,,,75.0,60.0,60.0,1000.0,1500.0,0.0,1.0,0.0,60-60,,,nail polish,necklace,60.0,60.0,nail polish2,necklace8,80.0,40.0,froggy_t.jpg,Anecklace20.jpg,/static/Category_learning/Stimuli/Experimental_stims/nail polish/froggy_t.jpg,/static/Category_learning/Stimuli/Experimental_stims/necklace/Anecklace20.jpg,0.0,necklace,nail polish,60.0,60.0,necklace8,nail polish2,40.0,80.0,0.0,347.178,1.178,,,,,,
323,,confirmation,,html-keyboard-response,323,573828,0.0-1.0-62.0-0.0-1.0-0.0,0,0,46320,,,,,,60.0,,,,,1.0,,,,,,,,,,,,,,,,,,,,,,,,,,,347.5,0.322,,,,,,
324,,isi,,html-keyboard-response,324,574840,0.0-1.0-62.0-0.0-2.0,0,0,46320,,,,,,60.0,,,,,1.0,,,,,,,,,,,,,,,,,,,,,,,,,,,348.5,1.0,,,,,,
325,,feedback,,html-keyboard-response,325,575849,0.0-1.0-62.0-0.0-3.0-0.0,0,0,46320,,,,,,60.0,,,,,1.0,,,,,,,,,,,,,,,,,,,,,,,,,,,349.5,1.0,,,,,,
326,,iti,,html-keyboard-response,326,577362,0.0-1.0-62.0-0.0-5.0,0,0,46320,,,,,,60.0,,,,,1.0,,,,,,,,,,,,,,,,,,,,,,,,,,,351.0,1.5,,,,,,
327,,block_over,,html-keyboard-response,327,1315214,0.0-1.0-62.0-0.0-7.0-0.0,0,0,46320,,737832.0,,,68.0,60.0,,,,,,,,,,,,,,,,,,,,,,,,,,,,,,,,,,,,,,,
328,,start_run,,html-keyboard-response,328,1318731,0.0-1.0-62.0-0.0-7.0-1.0,0,0,46320,,3507.0,,,84.0,,,,,,,,,,,,,,,,,,,,,,,,,,,,,,,,,,,,,,,,
329,,choice,,html-keyboard-response,329,1320255,0.0-1.0-63.0-0.0-0.0,0,0,46320,,,,,,61.0,65.0,1000.0,1000.0,0.0,2.0,0.0,40-80,,1.0,watch,makeup compact,80.0,40.0,watch1,makeup compact9,80.0,40.0,B000B5K8XI.01-A2E7J74KJYV9ZH._AA280_SCLZZZZZZZ_V53007008_.jpg,b_102019.jpg,/static/Category_learning/Stimuli/Experimental_stims/watch/B000B5K8XI.01-A2E7J74KJYV9ZH._AA280_SCLZZZZZZZ_V53007008_.jpg,/static/Category_learning/Stimuli/Experimental_stims/makeup compact/b_102019.jpg,,,,,,,,,,1.0,1.5,1.5,,,,,,
330,,isi,,html-keyboard-response,330,1321266,0.0-1.0-63.0-0.0-2.0,0,0,46320,,,,,,61.0,,,,,2.0,,,,,,,,,,,,,,,,,,,,,,,,,,,2.5,1.0,,,,,,
331,,no_response,,html-keyboard-response,331,1322273,0.0-1.0-63.0-0.0-4.0-0.0,0,0,46320,,,,,,61.0,,,,,2.0,,,,,,,,,,,,,,,,,,,,,,,,,,,3.5,1.0,,,,,,
332,,iti,,html-keyboard-response,332,1323321,0.0-1.0-63.0-0.0-5.0,0,0,46320,,,,,,61.0,,,,,2.0,,,,,,,,,,,,,,,,,,,,,,,,,,,4.5,1.0,,,,,,
333,,choice,,html-keyboard-response,333,1324252,0.0-1.0-63.0-0.1-0.1,0,0,46320,,905.0,,,68.0,61.0,65.0,1000.0,1000.0,0.0,2.0,0.0,40-80,,1.0,watch,makeup compact,80.0,40.0,watch1,makeup compact9,80.0,40.0,B000B5K8XI.01-A2E7J74KJYV9ZH._AA280_SCLZZZZZZZ_V53007008_.jpg,b_102019.jpg,/static/Category_learning/Stimuli/Experimental_stims/watch/B000B5K8XI.01-A2E7J74KJYV9ZH._AA280_SCLZZZZZZZ_V53007008_.jpg,/static/Category_learning/Stimuli/Experimental_stims/makeup compact/b_102019.jpg,1.0,watch,makeup compact,80.0,40.0,watch1,makeup compact9,80.0,40.0,0.0,5.405,0.905,,,,,,
334,,confirmation,,html-keyboard-response,334,1324857,0.0-1.0-63.0-0.1-1.1-0.1,0,0,46320,,,,,,61.0,,,,,2.0,,,,,,,,,,,,,,,,,,,,,,,,,,,6.0,0.595,,,,,,
335,,isi,,html-keyboard-response,335,1326365,0.0-1.0-63.0-0.1-2.1,0,0,46320,,,,,,61.0,,,,,2.0,,,,,,,,,,,,,,,,,,,,,,,,,,,7.5,1.5,,,,,,
336,,feedback,,html-keyboard-response,336,1327375,0.0-1.0-63.0-0.1-3.1-0.1,0,0,46320,,,,,,61.0,,,,,2.0,,,,,,,,,,,,,,,,,,,,,,,,,,,8.5,1.0,,,,,,
337,,iti,,html-keyboard-response,337,1330889,0.0-1.0-63.0-0.1-5.1,0,0,46320,,,,,,61.0,,,,,2.0,,,,,,,,,,,,,,,,,,,,,,,,,,,12.0,3.5,,,,,,
338,,choice,,html-keyboard-response,338,1331449,0.0-1.0-64.0-0.0-0.0,0,0,46320,,553.0,,,75.0,62.0,66.0,3500.0,2000.0,0.0,2.0,0.0,20-80,,1.0,vase,bench,80.0,20.0,vase12,bench13,100.0,40.0,Abluevase2.jpg,ABROWNBE4.jpg,/static/Category_learning/Stimuli/Experimental_stims/vase/Abluevase2.jpg,/static/Category_learning/Stimuli/Experimental_stims/bench/ABROWNBE4.jpg,0.0,bench,vase,20.0,80.0,bench13,vase12,40.0,100.0,0.0,12.553,0.553,,,,,,
339,,confirmation,,html-keyboard-response,339,1332410,0.0-1.0-64.0-0.0-1.0-0.0,0,0,46320,,,,,,62.0,,,,,2.0,,,,,,,,,,,,,,,,,,,,,,,,,,,13.5,0.947,,,,,,
340,,isi,,html-keyboard-response,340,1335930,0.0-1.0-64.0-0.0-2.0,0,0,46320,,,,,,62.0,,,,,2.0,,,,,,,,,,,,,,,,,,,,,,,,,,,17.0,3.5,,,,,,
341,,feedback,,html-keyboard-response,341,1336938,0.0-1.0-64.0-0.0-3.0-0.0,0,0,46320,,,,,,62.0,,,,,2.0,,,,,,,,,,,,,,,,,,,,,,,,,,,18.0,1.0,,,,,,
342,,iti,,html-keyboard-response,342,1338947,0.0-1.0-64.0-0.0-5.0,0,0,46320,,,,,,62.0,,,,,2.0,,,,,,,,,,,,,,,,,,,,,,,,,,,20.0,2.0,,,,,,
343,,choice,,html-keyboard-response,343,1339772,0.0-1.0-65.0-0.0-0.0,0,0,46320,,815.0,,,68.0,63.0,67.0,1000.0,1000.0,0.0,2.0,0.0,20-80,,0.0,fan,trumpet,20.0,80.0,fan2,trumpet12,40.0,80.0,507349_sk_lg.jpg,hornabariton.jpg,/static/Category_learning/Stimuli/Experimental_stims/fan/507349_sk_lg.jpg,/static/Category_learning/Stimuli/Experimental_stims/trumpet/hornabariton.jpg,1.0,fan,trumpet,20.0,80.0,fan2,trumpet12,40.0,80.0,0.0,20.815,0.815,,,,,,
344,,confirmation,,html-keyboard-response,344,1340468,0.0-1.0-65.0-0.0-1.0-0.0,0,0,46320,,,,,,63.0,,,,,2.0,,,,,,,,,,,,,,,,,,,,,,,,,,,21.5,0.685,,,,,,
345,,isi,,html-keyboard-response,345,1341538,0.0-1.0-65.0-0.0-2.0,0,0,46320,,,,,,63.0,,,,,2.0,,,,,,,,,,,,,,,,,,,,,,,,,,,22.5,1.0,,,,,,
346,,feedback,,html-keyboard-response,346,1342552,0.0-1.0-65.0-0.0-3.0-0.0,0,0,46320,,,,,,63.0,,,,,2.0,,,,,,,,,,,,,,,,,,,,,,,,,,,23.5,1.0,,,,,,
347,,iti,,html-keyboard-response,347,1343558,0.0-1.0-65.0-0.0-5.0,0,0,46320,,,,,,63.0,,,,,2.0,,,,,,,,,,,,,,,,,,,,,,,,,,,24.5,1.0,,,,,,
348,,choice,,html-keyboard-response,348,1344482,0.0-1.0-66.0-0.0-0.0,0,0,46320,,914.0,,,75.0,64.0,68.0,2000.0,1000.0,0.0,2.0,0.0,60-60,,,pen,poker card,60.0,60.0,pen4,poker card9,80.0,80.0,Montblanc_Greta_Garbo_BP copy.jpg,9817230.thl.jpg,/static/Category_learning/Stimuli/Experimental_stims/pen/Montblanc_Greta_Garbo_BP copy.jpg,/static/Category_learning/Stimuli/Experimental_stims/poker card/9817230.thl.jpg,0.0,poker card,pen,60.0,60.0,poker card9,pen4,80.0,80.0,0.0,25.414,0.914,,,,,,
349,,confirmation,,html-keyboard-response,349,1345074,0.0-1.0-66.0-0.0-1.0-0.0,0,0,46320,,,,,,64.0,,,,,2.0,,,,,,,,,,,,,,,,,,,,,,,,,,,26.0,0.586,,,,,,
350,,isi,,html-keyboard-response,350,1347090,0.0-1.0-66.0-0.0-2.0,0,0,46320,,,,,,64.0,,,,,2.0,,,,,,,,,,,,,,,,,,,,,,,,,,,28.0,2.0,,,,,,
351,,feedback,,html-keyboard-response,351,1348099,0.0-1.0-66.0-0.0-3.0-0.0,0,0,46320,,,,,,64.0,,,,,2.0,,,,,,,,,,,,,,,,,,,,,,,,,,,29.0,1.0,,,,,,
352,,iti,,html-keyboard-response,352,1349108,0.0-1.0-66.0-0.0-5.0,0,0,46320,,,,,,64.0,,,,,2.0,,,,,,,,,,,,,,,,,,,,,,,,,,,30.0,1.0,,,,,,
353,,choice,,html-keyboard-response,353,1349402,0.0-1.0-67.0-0.0-0.0,0,0,46320,,285.0,,,68.0,65.0,69.0,1000.0,1000.0,0.0,2.0,0.0,20-20,,,baby carriage,fan,20.0,20.0,baby carriage9,fan11,0.0,0.0,Antique baby Carriage 7.jpg,n_sf.jpg,/static/Category_learning/Stimuli/Experimental_stims/baby carriage/Antique baby Carriage 7.jpg,/static/Category_learning/Stimuli/Experimental_stims/fan/n_sf.jpg,1.0,baby carriage,fan,20.0,20.0,baby carriage9,fan11,0.0,0.0,0.0,30.285,0.285,,,,,,
354,,confirmation,,html-keyboard-response,354,1350628,0.0-1.0-67.0-0.0-1.0-0.0,0,0,46320,,,,,,65.0,,,,,2.0,,,,,,,,,,,,,,,,,,,,,,,,,,,31.5,1.215,,,,,,
355,,isi,,html-keyboard-response,355,1351651,0.0-1.0-67.0-0.0-2.0,0,0,46320,,,,,,65.0,,,,,2.0,,,,,,,,,,,,,,,,,,,,,,,,,,,32.5,1.0,,,,,,
356,,feedback,,html-keyboard-response,356,1352682,0.0-1.0-67.0-0.0-3.0-0.0,0,0,46320,,,,,,65.0,,,,,2.0,,,,,,,,,,,,,,,,,,,,,,,,,,,33.5,1.0,,,,,,
357,,iti,,html-keyboard-response,357,1353691,0.0-1.0-67.0-0.0-5.0,0,0,46320,,,,,,65.0,,,,,2.0,,,,,,,,,,,,,,,,,,,,,,,,,,,34.5,1.0,,,,,,
358,,choice,,html-keyboard-response,358,1354513,0.0-1.0-68.0-0.0-0.0,0,0,46320,,813.0,,,75.0,66.0,70.0,1500.0,1000.0,0.0,2.0,0.0,20-80,,1.0,stool,dresser,80.0,20.0,stool2,dresser1,60.0,0.0,ASTOOL46.jpg,ADRESSE52.jpg,/static/Category_learning/Stimuli/Experimental_stims/stool/ASTOOL46.jpg,/static/Category_learning/Stimuli/Experimental_stims/dresser/ADRESSE52.jpg,0.0,dresser,stool,20.0,80.0,dresser1,stool2,0.0,60.0,0.0,35.313,0.813,,,,,,
359,,confirmation,,html-keyboard-response,359,1355213,0.0-1.0-68.0-0.0-1.0-0.0,0,0,46320,,,,,,66.0,,,,,2.0,,,,,,,,,,,,,,,,,,,,,,,,,,,36.0,0.687,,,,,,
360,,isi,,html-keyboard-response,360,1356718,0.0-1.0-68.0-0.0-2.0,0,0,46320,,,,,,66.0,,,,,2.0,,,,,,,,,,,,,,,,,,,,,,,,,,,37.5,1.5,,,,,,
361,,feedback,,html-keyboard-response,361,1357729,0.0-1.0-68.0-0.0-3.0-0.0,0,0,46320,,,,,,66.0,,,,,2.0,,,,,,,,,,,,,,,,,,,,,,,,,,,38.5,1.0,,,,,,
362,,iti,,html-keyboard-response,362,1358740,0.0-1.0-68.0-0.0-5.0,0,0,46320,,,,,,66.0,,,,,2.0,,,,,,,,,,,,,,,,,,,,,,,,,,,39.5,1.0,,,,,,
363,,choice,,html-keyboard-response,363,1359600,0.0-1.0-69.0-0.0-0.0,0,0,46320,,848.0,,,75.0,67.0,71.0,3500.0,2000.0,0.0,2.0,0.0,20-80,,0.0,desk,stool,20.0,80.0,desk4,stool11,40.0,60.0,AbbeyMiniRadialBIG(1).jpg,ASTOOL28.jpg,/static/Category_learning/Stimuli/Experimental_stims/desk/AbbeyMiniRadialBIG(1).jpg,/static/Category_learning/Stimuli/Experimental_stims/stool/ASTOOL28.jpg,0.0,stool,desk,80.0,20.0,stool11,desk4,60.0,40.0,0.0,40.348,0.848,,,,,,
364,,confirmation,,html-keyboard-response,364,1360260,0.0-1.0-69.0-0.0-1.0-0.0,0,0,46320,,,,,,67.0,,,,,2.0,,,,,,,,,,,,,,,,,,,,,,,,,,,41.0,0.652,,,,,,
365,,isi,,html-keyboard-response,365,1363769,0.0-1.0-69.0-0.0-2.0,0,0,46320,,,,,,67.0,,,,,2.0,,,,,,,,,,,,,,,,,,,,,,,,,,,44.5,3.5,,,,,,
366,,feedback,,html-keyboard-response,366,1364788,0.0-1.0-69.0-0.0-3.0-0.0,0,0,46320,,,,,,67.0,,,,,2.0,,,,,,,,,,,,,,,,,,,,,,,,,,,45.5,1.0,,,,,,
367,,iti,,html-keyboard-response,367,1366797,0.0-1.0-69.0-0.0-5.0,0,0,46320,,,,,,67.0,,,,,2.0,,,,,,,,,,,,,,,,,,,,,,,,,,,47.5,2.0,,,,,,
368,,choice,,html-keyboard-response,368,1367719,0.0-1.0-70.0-0.0-0.0,0,0,46320,,914.0,,,75.0,68.0,72.0,2000.0,1500.0,0.0,2.0,0.0,40-60,,0.0,license plate,poker card,40.0,60.0,license plate1,poker card2,40.0,60.0,il-423-3784.jpg,22864716.thl.jpg,/static/Category_learning/Stimuli/Experimental_stims/license plate/il-423-3784.jpg,/static/Category_learning/Stimuli/Experimental_stims/poker card/22864716.thl.jpg,0.0,poker card,license plate,60.0,40.0,poker card2,license plate1,60.0,40.0,0.0,48.414,0.914,,,,,,
369,,confirmation,,html-keyboard-response,369,1368314,0.0-1.0-70.0-0.0-1.0-0.0,0,0,46320,,,,,,68.0,,,,,2.0,,,,,,,,,,,,,,,,,,,,,,,,,,,49.0,0.586,,,,,,
370,,isi,,html-keyboard-response,370,1370325,0.0-1.0-70.0-0.0-2.0,0,0,46320,,,,,,68.0,,,,,2.0,,,,,,,,,,,,,,,,,,,,,,,,,,,51.0,2.0,,,,,,
371,,feedback,,html-keyboard-response,371,1371340,0.0-1.0-70.0-0.0-3.0-0.0,0,0,46320,,,,,,68.0,,,,,2.0,,,,,,,,,,,,,,,,,,,,,,,,,,,52.0,1.0,,,,,,
372,,iti,,html-keyboard-response,372,1373541,0.0-1.0-70.0-0.0-5.0,0,0,46320,,,,,,68.0,,,,,2.0,,,,,,,,,,,,,,,,,,,,,,,,,,,53.5,1.5,,,,,,
373,,choice,,html-keyboard-response,373,1374927,0.0-1.0-71.0-0.0-0.0,0,0,46320,,1378.0,,,68.0,69.0,73.0,1500.0,1500.0,0.0,2.0,1.0,60-60,1.0,,poker card,poker card,60.0,60.0,poker card9,poker card2,80.0,60.0,9817230.thl.jpg,22864716.thl.jpg,/static/Category_learning/Stimuli/Experimental_stims/poker card/9817230.thl.jpg,/static/Category_learning/Stimuli/Experimental_stims/poker card/22864716.thl.jpg,1.0,poker card,poker card,60.0,60.0,poker card9,poker card2,80.0,60.0,0.0,54.878,1.378,,,,,,
374,,confirmation,,html-keyboard-response,374,1375061,0.0-1.0-71.0-0.0-1.0-0.0,0,0,46320,,,,,,69.0,,,,,2.0,,,,,,,,,,,,,,,,,,,,,,,,,,,55.0,0.122,,,,,,
375,,isi,,html-keyboard-response,375,1376566,0.0-1.0-71.0-0.0-2.0,0,0,46320,,,,,,69.0,,,,,2.0,,,,,,,,,,,,,,,,,,,,,,,,,,,56.5,1.5,,,,,,
376,,feedback,,html-keyboard-response,376,1377579,0.0-1.0-71.0-0.0-3.0-0.0,0,0,46320,,,,,,69.0,,,,,2.0,,,,,,,,,,,,,,,,,,,,,,,,,,,57.5,1.0,,,,,,
377,,iti,,html-keyboard-response,377,1379105,0.0-1.0-71.0-0.0-5.0,0,0,46320,,,,,,69.0,,,,,2.0,,,,,,,,,,,,,,,,,,,,,,,,,,,59.0,1.5,,,,,,
378,,choice,,html-keyboard-response,378,1379140,0.0-1.0-72.0-0.0-0.0,0,0,46320,,28.0,,,75.0,70.0,74.0,1000.0,2000.0,0.0,2.0,0.0,20-60,,0.0,flashlight,poker card,20.0,60.0,flashlight8,poker card12,40.0,80.0,Streamlight-Stinger-Rechargeable-Flashlight-with-Charger-Black-75014-B00008BFSI-L.jpg,22865676.thl.jpg,/static/Category_learning/Stimuli/Experimental_stims/flashlight/Streamlight-Stinger-Rechargeable-Flashlight-with-Charger-Black-75014-B00008BFSI-L.jpg,/static/Category_learning/Stimuli/Experimental_stims/poker card/22865676.thl.jpg,0.0,poker card,flashlight,60.0,20.0,poker card12,flashlight8,80.0,40.0,0.0,59.028,0.028,,,,,,
379,,confirmation,,html-keyboard-response,379,1380625,0.0-1.0-72.0-0.0-1.0-0.0,0,0,46320,,,,,,70.0,,,,,2.0,,,,,,,,,,,,,,,,,,,,,,,,,,,60.5,1.472,,,,,,
380,,isi,,html-keyboard-response,380,1381635,0.0-1.0-72.0-0.0-2.0,0,0,46320,,,,,,70.0,,,,,2.0,,,,,,,,,,,,,,,,,,,,,,,,,,,61.5,1.0,,,,,,
381,,feedback,,html-keyboard-response,381,1382645,0.0-1.0-72.0-0.0-3.0-0.0,0,0,46320,,,,,,70.0,,,,,2.0,,,,,,,,,,,,,,,,,,,,,,,,,,,62.5,1.0,,,,,,
382,,iti,,html-keyboard-response,382,1384653,0.0-1.0-72.0-0.0-5.0,0,0,46320,,,,,,70.0,,,,,2.0,,,,,,,,,,,,,,,,,,,,,,,,,,,64.5,2.0,,,,,,
383,,choice,,html-keyboard-response,383,1385094,0.0-1.0-73.0-0.0-0.0,0,0,46320,,431.0,,,68.0,71.0,75.0,1500.0,1000.0,0.0,2.0,0.0,20-80,,0.0,bongo,stool,20.0,80.0,bongo3,stool4,20.0,60.0,26390697.thl.jpg,ASTOOL22.jpg,/static/Category_learning/Stimuli/Experimental_stims/bongo/26390697.thl.jpg,/static/Category_learning/Stimuli/Experimental_stims/stool/ASTOOL22.jpg,1.0,bongo,stool,20.0,80.0,bongo3,stool4,20.0,60.0,0.0,64.931,0.431,,,,,,
384,,confirmation,,html-keyboard-response,384,1386177,0.0-1.0-73.0-0.0-1.0-0.0,0,0,46320,,,,,,71.0,,,,,2.0,,,,,,,,,,,,,,,,,,,,,,,,,,,66.0,1.069,,,,,,
385,,isi,,html-keyboard-response,385,1387687,0.0-1.0-73.0-0.0-2.0,0,0,46320,,,,,,71.0,,,,,2.0,,,,,,,,,,,,,,,,,,,,,,,,,,,67.5,1.5,,,,,,
386,,feedback,,html-keyboard-response,386,1388695,0.0-1.0-73.0-0.0-3.0-0.0,0,0,46320,,,,,,71.0,,,,,2.0,,,,,,,,,,,,,,,,,,,,,,,,,,,68.5,1.0,,,,,,
387,,iti,,html-keyboard-response,387,1389703,0.0-1.0-73.0-0.0-5.0,0,0,46320,,,,,,71.0,,,,,2.0,,,,,,,,,,,,,,,,,,,,,,,,,,,69.5,1.0,,,,,,
388,,choice,,html-keyboard-response,388,1391214,0.0-1.0-74.0-0.0-0.0,0,0,46320,,,,,,72.0,76.0,3000.0,2000.0,0.0,2.0,0.0,40-40,,,makeup compact,motorcycle,40.0,40.0,makeup compact6,motorcycle8,20.0,20.0,P0754_hero.jpg,Motorcycle903425j2.jpg,/static/Category_learning/Stimuli/Experimental_stims/makeup compact/P0754_hero.jpg,/static/Category_learning/Stimuli/Experimental_stims/motorcycle/Motorcycle903425j2.jpg,,,,,,,,,,1.0,71.0,1.5,,,,,,
389,,isi,,html-keyboard-response,389,1394227,0.0-1.0-74.0-0.0-2.0,0,0,46320,,,,,,72.0,,,,,2.0,,,,,,,,,,,,,,,,,,,,,,,,,,,74.0,3.0,,,,,,
390,,no_response,,html-keyboard-response,390,1395236,0.0-1.0-74.0-0.0-4.0-0.0,0,0,46320,,,,,,72.0,,,,,2.0,,,,,,,,,,,,,,,,,,,,,,,,,,,75.0,1.0,,,,,,
391,,iti,,html-keyboard-response,391,1397353,0.0-1.0-74.0-0.0-5.0,0,0,46320,,,,,,72.0,,,,,2.0,,,,,,,,,,,,,,,,,,,,,,,,,,,77.0,2.0,,,,,,
392,,choice,,html-keyboard-response,392,1397821,0.0-1.0-74.0-0.1-0.1,0,0,46320,,458.0,,,68.0,72.0,76.0,3000.0,2000.0,0.0,2.0,0.0,40-40,,,makeup compact,motorcycle,40.0,40.0,makeup compact6,motorcycle8,20.0,20.0,P0754_hero.jpg,Motorcycle903425j2.jpg,/static/Category_learning/Stimuli/Experimental_stims/makeup compact/P0754_hero.jpg,/static/Category_learning/Stimuli/Experimental_stims/motorcycle/Motorcycle903425j2.jpg,1.0,makeup compact,motorcycle,40.0,40.0,makeup compact6,motorcycle8,20.0,20.0,0.0,77.458,0.458,,,,,,
393,,confirmation,,html-keyboard-response,393,1398876,0.0-1.0-74.0-0.1-1.1-0.1,0,0,46320,,,,,,72.0,,,,,2.0,,,,,,,,,,,,,,,,,,,,,,,,,,,78.5,1.042,,,,,,
394,,isi,,html-keyboard-response,394,1400886,0.0-1.0-74.0-0.1-2.1,0,0,46320,,,,,,72.0,,,,,2.0,,,,,,,,,,,,,,,,,,,,,,,,,,,80.5,2.0,,,,,,
395,,feedback,,html-keyboard-response,395,1401894,0.0-1.0-74.0-0.1-3.1-0.1,0,0,46320,,,,,,72.0,,,,,2.0,,,,,,,,,,,,,,,,,,,,,,,,,,,81.5,1.0,,,,,,
396,,iti,,html-keyboard-response,396,1403906,0.0-1.0-74.0-0.1-5.1,0,0,46320,,,,,,72.0,,,,,2.0,,,,,,,,,,,,,,,,,,,,,,,,,,,83.5,2.0,,,,,,
397,,choice,,html-keyboard-response,397,1403972,0.0-1.0-75.0-0.0-0.0,0,0,46320,,55.0,,,75.0,73.0,77.0,3000.0,1000.0,0.0,2.0,1.0,20-20,1.0,,fan,fan,20.0,20.0,fan12,fan2,0.0,40.0,116544_sk_lg.jpg,507349_sk_lg.jpg,/static/Category_learning/Stimuli/Experimental_stims/fan/116544_sk_lg.jpg,/static/Category_learning/Stimuli/Experimental_stims/fan/507349_sk_lg.jpg,0.0,fan,fan,20.0,20.0,fan2,fan12,40.0,0.0,0.0,83.555,0.055,,,,,,
398,,confirmation,,html-keyboard-response,398,1405427,0.0-1.0-75.0-0.0-1.0-0.0,0,0,46320,,,,,,73.0,,,,,2.0,,,,,,,,,,,,,,,,,,,,,,,,,,,85.0,1.445,,,,,,
399,,isi,,html-keyboard-response,399,1408440,0.0-1.0-75.0-0.0-2.0,0,0,46320,,,,,,73.0,,,,,2.0,,,,,,,,,,,,,,,,,,,,,,,,,,,88.0,3.0,,,,,,
400,,feedback,,html-keyboard-response,400,1409449,0.0-1.0-75.0-0.0-3.0-0.0,0,0,46320,,,,,,73.0,,,,,2.0,,,,,,,,,,,,,,,,,,,,,,,,,,,89.0,1.0,,,,,,
401,,iti,,html-keyboard-response,401,1410453,0.0-1.0-75.0-0.0-5.0,0,0,46320,,,,,,73.0,,,,,2.0,,,,,,,,,,,,,,,,,,,,,,,,,,,90.0,1.0,,,,,,
402,,choice,,html-keyboard-response,402,1410772,0.0-1.0-76.0-0.0-0.0,0,0,46320,,308.0,,,68.0,74.0,78.0,1500.0,1000.0,0.0,2.0,0.0,60-60,,,patio lounge chair,pen,60.0,60.0,patio lounge chair9,pen6,60.0,40.0,43-3.jpg,executive_pen2.jpg,/static/Category_learning/Stimuli/Experimental_stims/patio lounge chair/43-3.jpg,/static/Category_learning/Stimuli/Experimental_stims/pen/executive_pen2.jpg,1.0,patio lounge chair,pen,60.0,60.0,patio lounge chair9,pen6,60.0,40.0,0.0,90.308,0.308,,,,,,
403,,confirmation,,html-keyboard-response,403,1411976,0.0-1.0-76.0-0.0-1.0-0.0,0,0,46320,,,,,,74.0,,,,,2.0,,,,,,,,,,,,,,,,,,,,,,,,,,,91.5,1.192,,,,,,
404,,isi,,html-keyboard-response,404,1413484,0.0-1.0-76.0-0.0-2.0,0,0,46320,,,,,,74.0,,,,,2.0,,,,,,,,,,,,,,,,,,,,,,,,,,,93.0,1.5,,,,,,
405,,feedback,,html-keyboard-response,405,1414625,0.0-1.0-76.0-0.0-3.0-0.0,0,0,46320,,,,,,74.0,,,,,2.0,,,,,,,,,,,,,,,,,,,,,,,,,,,94.0,1.0,,,,,,
406,,iti,,html-keyboard-response,406,1415636,0.0-1.0-76.0-0.0-5.0,0,0,46320,,,,,,74.0,,,,,2.0,,,,,,,,,,,,,,,,,,,,,,,,,,,95.0,1.0,,,,,,
407,,choice,,html-keyboard-response,407,1416483,0.0-1.0-77.0-0.0-0.0,0,0,46320,,835.0,,,75.0,75.0,79.0,1000.0,2000.0,0.0,2.0,1.0,20-20,1.0,,baby carriage,baby carriage,20.0,20.0,baby carriage5,baby carriage9,20.0,0.0,Baby_Stroller.jpg,Antique baby Carriage 7.jpg,/static/Category_learning/Stimuli/Experimental_stims/baby carriage/Baby_Stroller.jpg,/static/Category_learning/Stimuli/Experimental_stims/baby carriage/Antique baby Carriage 7.jpg,0.0,baby carriage,baby carriage,20.0,20.0,baby carriage9,baby carriage5,0.0,20.0,0.0,95.835,0.835,,,,,,
408,,confirmation,,html-keyboard-response,408,1417156,0.0-1.0-77.0-0.0-1.0-0.0,0,0,46320,,,,,,75.0,,,,,2.0,,,,,,,,,,,,,,,,,,,,,,,,,,,96.5,0.665,,,,,,
409,,isi,,html-keyboard-response,409,1418163,0.0-1.0-77.0-0.0-2.0,0,0,46320,,,,,,75.0,,,,,2.0,,,,,,,,,,,,,,,,,,,,,,,,,,,97.5,1.0,,,,,,
410,,feedback,,html-keyboard-response,410,1419220,0.0-1.0-77.0-0.0-3.0-0.0,0,0,46320,,,,,,75.0,,,,,2.0,,,,,,,,,,,,,,,,,,,,,,,,,,,98.5,1.0,,,,,,
411,,iti,,html-keyboard-response,411,1421225,0.0-1.0-77.0-0.0-5.0,0,0,46320,,,,,,75.0,,,,,2.0,,,,,,,,,,,,,,,,,,,,,,,,,,,100.5,2.0,,,,,,
412,,choice,,html-keyboard-response,412,1422072,0.0-1.0-78.0-0.0-0.0,0,0,46320,,834.0,,,68.0,76.0,80.0,2000.0,1000.0,0.0,2.0,0.0,20-60,,0.0,bowl,necklace,20.0,60.0,bowl7,necklace4,20.0,40.0,Abowl54.jpg,emerald_diamond_necklace.jpg,/static/Category_learning/Stimuli/Experimental_stims/bowl/Abowl54.jpg,/static/Category_learning/Stimuli/Experimental_stims/necklace/emerald_diamond_necklace.jpg,1.0,bowl,necklace,20.0,60.0,bowl7,necklace4,20.0,40.0,0.0,101.334,0.834,,,,,,
413,,confirmation,,html-keyboard-response,413,1422760,0.0-1.0-78.0-0.0-1.0-0.0,0,0,46320,,,,,,76.0,,,,,2.0,,,,,,,,,,,,,,,,,,,,,,,,,,,102.0,0.666,,,,,,
414,,isi,,html-keyboard-response,414,1424766,0.0-1.0-78.0-0.0-2.0,0,0,46320,,,,,,76.0,,,,,2.0,,,,,,,,,,,,,,,,,,,,,,,,,,,104.0,2.0,,,,,,
415,,feedback,,html-keyboard-response,415,1425775,0.0-1.0-78.0-0.0-3.0-0.0,0,0,46320,,,,,,76.0,,,,,2.0,,,,,,,,,,,,,,,,,,,,,,,,,,,105.0,1.0,,,,,,
416,,iti,,html-keyboard-response,416,1426781,0.0-1.0-78.0-0.0-5.0,0,0,46320,,,,,,76.0,,,,,2.0,,,,,,,,,,,,,,,,,,,,,,,,,,,106.0,1.0,,,,,,
417,,choice,,html-keyboard-response,417,1427594,0.0-1.0-79.0-0.0-0.0,0,0,46320,,805.0,,,75.0,77.0,81.0,1500.0,1000.0,0.0,2.0,0.0,20-80,,1.0,vase,bongo,80.0,20.0,vase11,bongo12,100.0,40.0,Ethnic_Ceramic_Vase.jpg,26686609.thl.jpg,/static/Category_learning/Stimuli/Experimental_stims/vase/Ethnic_Ceramic_Vase.jpg,/static/Category_learning/Stimuli/Experimental_stims/bongo/26686609.thl.jpg,0.0,bongo,vase,20.0,80.0,bongo12,vase11,40.0,100.0,0.0,106.805,0.805,,,,,,
418,,confirmation,,html-keyboard-response,418,1428298,0.0-1.0-79.0-0.0-1.0-0.0,0,0,46320,,,,,,77.0,,,,,2.0,,,,,,,,,,,,,,,,,,,,,,,,,,,107.5,0.695,,,,,,
419,,isi,,html-keyboard-response,419,1429829,0.0-1.0-79.0-0.0-2.0,0,0,46320,,,,,,77.0,,,,,2.0,,,,,,,,,,,,,,,,,,,,,,,,,,,109.0,1.5,,,,,,
420,,feedback,,html-keyboard-response,420,1430837,0.0-1.0-79.0-0.0-3.0-0.0,0,0,46320,,,,,,77.0,,,,,2.0,,,,,,,,,,,,,,,,,,,,,,,,,,,110.0,1.0,,,,,,
421,,iti,,html-keyboard-response,421,1431845,0.0-1.0-79.0-0.0-5.0,0,0,46320,,,,,,77.0,,,,,2.0,,,,,,,,,,,,,,,,,,,,,,,,,,,111.0,1.0,,,,,,
422,,choice,,html-keyboard-response,422,1432691,0.0-1.0-80.0-0.0-0.0,0,0,46320,,835.0,,,75.0,78.0,82.0,1000.0,1500.0,0.0,2.0,0.0,40-80,,1.0,yarn,makeup compact,80.0,40.0,yarn10,makeup compact7,60.0,20.0,revelation-yarn.jpg,P187133_hero.jpg,/static/Category_learning/Stimuli/Experimental_stims/yarn/revelation-yarn.jpg,/static/Category_learning/Stimuli/Experimental_stims/makeup compact/P187133_hero.jpg,0.0,makeup compact,yarn,40.0,80.0,makeup compact7,yarn10,20.0,60.0,0.0,111.835,0.835,,,,,,
423,,confirmation,,html-keyboard-response,423,1433364,0.0-1.0-80.0-0.0-1.0-0.0,0,0,46320,,,,,,78.0,,,,,2.0,,,,,,,,,,,,,,,,,,,,,,,,,,,112.5,0.665,,,,,,
424,,isi,,html-keyboard-response,424,1434370,0.0-1.0-80.0-0.0-2.0,0,0,46320,,,,,,78.0,,,,,2.0,,,,,,,,,,,,,,,,,,,,,,,,,,,113.5,1.0,,,,,,
425,,feedback,,html-keyboard-response,425,1435378,0.0-1.0-80.0-0.0-3.0-0.0,0,0,46320,,,,,,78.0,,,,,2.0,,,,,,,,,,,,,,,,,,,,,,,,,,,114.5,1.0,,,,,,
426,,iti,,html-keyboard-response,426,1436887,0.0-1.0-80.0-0.0-5.0,0,0,46320,,,,,,78.0,,,,,2.0,,,,,,,,,,,,,,,,,,,,,,,,,,,116.0,1.5,,,,,,
427,,choice,,html-keyboard-response,427,1437395,0.0-1.0-81.0-0.0-0.0,0,0,46320,,501.0,,,68.0,79.0,83.0,1000.0,2000.0,0.0,2.0,1.0,40-40,1.0,,makeup compact,makeup compact,40.0,40.0,makeup compact6,makeup compact7,20.0,20.0,P0754_hero.jpg,P187133_hero.jpg,/static/Category_learning/Stimuli/Experimental_stims/makeup compact/P0754_hero.jpg,/static/Category_learning/Stimuli/Experimental_stims/makeup compact/P187133_hero.jpg,1.0,makeup compact,makeup compact,40.0,40.0,makeup compact6,makeup compact7,20.0,20.0,0.0,116.501,0.501,,,,,,
428,,confirmation,,html-keyboard-response,428,1438404,0.0-1.0-81.0-0.0-1.0-0.0,0,0,46320,,,,,,79.0,,,,,2.0,,,,,,,,,,,,,,,,,,,,,,,,,,,117.5,0.999,,,,,,
429,,isi,,html-keyboard-response,429,1439411,0.0-1.0-81.0-0.0-2.0,0,0,46320,,,,,,79.0,,,,,2.0,,,,,,,,,,,,,,,,,,,,,,,,,,,118.5,1.0,,,,,,
430,,feedback,,html-keyboard-response,430,1440417,0.0-1.0-81.0-0.0-3.0-0.0,0,0,46320,,,,,,79.0,,,,,2.0,,,,,,,,,,,,,,,,,,,,,,,,,,,119.5,1.0,,,,,,
431,,iti,,html-keyboard-response,431,1442542,0.0-1.0-81.0-0.0-5.0,0,0,46320,,,,,,79.0,,,,,2.0,,,,,,,,,,,,,,,,,,,,,,,,,,,121.5,2.0,,,,,,
432,,choice,,html-keyboard-response,432,1443470,0.0-1.0-82.0-0.0-0.0,0,0,46320,,919.0,,,75.0,80.0,84.0,1500.0,1000.0,0.0,2.0,0.0,20-60,,1.0,sofa,door knob,60.0,20.0,sofa14,door knob3,40.0,40.0,HENRY-Sofa-falg8068-05-72X34X34.jpg,020f7ec6-df08-40fa-b3a5-0dcfb762f085_4.jpg,/static/Category_learning/Stimuli/Experimental_stims/sofa/HENRY-Sofa-falg8068-05-72X34X34.jpg,/static/Category_learning/Stimuli/Experimental_stims/door knob/020f7ec6-df08-40fa-b3a5-0dcfb762f085_4.jpg,0.0,door knob,sofa,20.0,60.0,door knob3,sofa14,40.0,40.0,0.0,122.419,0.919,,,,,,
433,,confirmation,,html-keyboard-response,433,1444065,0.0-1.0-82.0-0.0-1.0-0.0,0,0,46320,,,,,,80.0,,,,,2.0,,,,,,,,,,,,,,,,,,,,,,,,,,,123.0,0.581,,,,,,
434,,isi,,html-keyboard-response,434,1445583,0.0-1.0-82.0-0.0-2.0,0,0,46320,,,,,,80.0,,,,,2.0,,,,,,,,,,,,,,,,,,,,,,,,,,,124.5,1.5,,,,,,
435,,feedback,,html-keyboard-response,435,1446589,0.0-1.0-82.0-0.0-3.0-0.0,0,0,46320,,,,,,80.0,,,,,2.0,,,,,,,,,,,,,,,,,,,,,,,,,,,125.5,1.0,,,,,,
436,,iti,,html-keyboard-response,436,1447596,0.0-1.0-82.0-0.0-5.0,0,0,46320,,,,,,80.0,,,,,2.0,,,,,,,,,,,,,,,,,,,,,,,,,,,126.5,1.0,,,,,,
437,,choice,,html-keyboard-response,437,1448242,0.0-1.0-83.0-0.0-0.0,0,0,46320,,636.0,,,68.0,81.0,85.0,3000.0,1000.0,0.0,2.0,1.0,20-20,1.0,,bowl,bowl,20.0,20.0,bowl6,bowl7,20.0,20.0,Abowl59.jpg,Abowl54.jpg,/static/Category_learning/Stimuli/Experimental_stims/bowl/Abowl59.jpg,/static/Category_learning/Stimuli/Experimental_stims/bowl/Abowl54.jpg,1.0,bowl,bowl,20.0,20.0,bowl6,bowl7,20.0,20.0,0.0,127.136,0.636,,,,,,
438,,confirmation,,html-keyboard-response,438,1449117,0.0-1.0-83.0-0.0-1.0-0.0,0,0,46320,,,,,,81.0,,,,,2.0,,,,,,,,,,,,,,,,,,,,,,,,,,,128.0,0.864,,,,,,
439,,isi,,html-keyboard-response,439,1452132,0.0-1.0-83.0-0.0-2.0,0,0,46320,,,,,,81.0,,,,,2.0,,,,,,,,,,,,,,,,,,,,,,,,,,,131.0,3.0,,,,,,
440,,feedback,,html-keyboard-response,440,1453142,0.0-1.0-83.0-0.0-3.0-0.0,0,0,46320,,,,,,81.0,,,,,2.0,,,,,,,,,,,,,,,,,,,,,,,,,,,132.0,1.0,,,,,,
441,,iti,,html-keyboard-response,441,1454156,0.0-1.0-83.0-0.0-5.0,0,0,46320,,,,,,81.0,,,,,2.0,,,,,,,,,,,,,,,,,,,,,,,,,,,133.0,1.0,,,,,,
442,,choice,,html-keyboard-response,442,1455510,0.0-1.0-84.0-0.0-0.0,0,0,46320,,1345.0,,,75.0,82.0,86.0,2000.0,1500.0,0.0,2.0,0.0,20-20,,,fan,bowl,20.0,20.0,fan3,bowl1,20.0,0.0,CFT401.jpg,ABOWLS6.jpg,/static/Category_learning/Stimuli/Experimental_stims/fan/CFT401.jpg,/static/Category_learning/Stimuli/Experimental_stims/bowl/ABOWLS6.jpg,0.0,bowl,fan,20.0,20.0,bowl1,fan3,0.0,20.0,0.0,134.345,1.345,,,,,,
443,,confirmation,,html-keyboard-response,443,1455672,0.0-1.0-84.0-0.0-1.0-0.0,0,0,46320,,,,,,82.0,,,,,2.0,,,,,,,,,,,,,,,,,,,,,,,,,,,134.5,0.155,,,,,,
444,,isi,,html-keyboard-response,444,1457679,0.0-1.0-84.0-0.0-2.0,0,0,46320,,,,,,82.0,,,,,2.0,,,,,,,,,,,,,,,,,,,,,,,,,,,136.5,2.0,,,,,,
445,,feedback,,html-keyboard-response,445,1458711,0.0-1.0-84.0-0.0-3.0-0.0,0,0,46320,,,,,,82.0,,,,,2.0,,,,,,,,,,,,,,,,,,,,,,,,,,,137.5,1.0,,,,,,
446,,iti,,html-keyboard-response,446,1460260,0.0-1.0-84.0-0.0-5.0,0,0,46320,,,,,,82.0,,,,,2.0,,,,,,,,,,,,,,,,,,,,,,,,,,,139.0,1.5,,,,,,
447,,choice,,html-keyboard-response,447,1461769,0.0-1.0-85.0-0.0-0.0,0,0,46320,,,,,,83.0,87.0,1000.0,1500.0,0.0,2.0,1.0,20-20,1.0,,bench,bench,20.0,20.0,bench13,bench4,40.0,0.0,ABROWNBE4.jpg,30892819.thl.jpg,/static/Category_learning/Stimuli/Experimental_stims/bench/ABROWNBE4.jpg,/static/Category_learning/Stimuli/Experimental_stims/bench/30892819.thl.jpg,,,,,,,,,,1.0,140.5,1.5,,,,,,
448,,isi,,html-keyboard-response,448,1462790,0.0-1.0-85.0-0.0-2.0,0,0,46320,,,,,,83.0,,,,,2.0,,,,,,,,,,,,,,,,,,,,,,,,,,,141.5,1.0,,,,,,
449,,no_response,,html-keyboard-response,449,1463803,0.0-1.0-85.0-0.0-4.0-0.0,0,0,46320,,,,,,83.0,,,,,2.0,,,,,,,,,,,,,,,,,,,,,,,,,,,142.5,1.0,,,,,,
450,,iti,,html-keyboard-response,450,1465360,0.0-1.0-85.0-0.0-5.0,0,0,46320,,,,,,83.0,,,,,2.0,,,,,,,,,,,,,,,,,,,,,,,,,,,144.0,1.5,,,,,,
451,,choice,,html-keyboard-response,451,1466089,0.0-1.0-85.0-0.1-0.1,0,0,46320,,715.0,,,68.0,83.0,87.0,1000.0,1500.0,0.0,2.0,1.0,20-20,1.0,,bench,bench,20.0,20.0,bench13,bench4,40.0,0.0,ABROWNBE4.jpg,30892819.thl.jpg,/static/Category_learning/Stimuli/Experimental_stims/bench/ABROWNBE4.jpg,/static/Category_learning/Stimuli/Experimental_stims/bench/30892819.thl.jpg,1.0,bench,bench,20.0,20.0,bench13,bench4,40.0,0.0,0.0,144.715,0.715,,,,,,
452,,confirmation,,html-keyboard-response,452,1466880,0.0-1.0-85.0-0.1-1.1-0.1,0,0,46320,,,,,,83.0,,,,,2.0,,,,,,,,,,,,,,,,,,,,,,,,,,,145.5,0.785,,,,,,
453,,isi,,html-keyboard-response,453,1468889,0.0-1.0-85.0-0.1-2.1,0,0,46320,,,,,,83.0,,,,,2.0,,,,,,,,,,,,,,,,,,,,,,,,,,,147.5,2.0,,,,,,
454,,feedback,,html-keyboard-response,454,1469897,0.0-1.0-85.0-0.1-3.1-0.1,0,0,46320,,,,,,83.0,,,,,2.0,,,,,,,,,,,,,,,,,,,,,,,,,,,148.5,1.0,,,,,,
455,,iti,,html-keyboard-response,455,1470904,0.0-1.0-85.0-0.1-5.1,0,0,46320,,,,,,83.0,,,,,2.0,,,,,,,,,,,,,,,,,,,,,,,,,,,149.5,1.0,,,,,,
456,,choice,,html-keyboard-response,456,1471690,0.0-1.0-86.0-0.0-0.0,0,0,46320,,776.0,,,75.0,84.0,88.0,1000.0,1000.0,0.0,2.0,0.0,40-60,,0.0,hammer,power strip,40.0,60.0,hammer7,power strip13,60.0,60.0,hammer01.jpg,01dccef1-d4b2-4d2e-a317-f2ed46b70b4b_400.jpg,/static/Category_learning/Stimuli/Experimental_stims/hammer/hammer01.jpg,/static/Category_learning/Stimuli/Experimental_stims/power strip/01dccef1-d4b2-4d2e-a317-f2ed46b70b4b_400.jpg,0.0,power strip,hammer,60.0,40.0,power strip13,hammer7,60.0,60.0,0.0,150.276,0.776,,,,,,
457,,confirmation,,html-keyboard-response,457,1472421,0.0-1.0-86.0-0.0-1.0-0.0,0,0,46320,,,,,,84.0,,,,,2.0,,,,,,,,,,,,,,,,,,,,,,,,,,,151.0,0.724,,,,,,
458,,isi,,html-keyboard-response,458,1473429,0.0-1.0-86.0-0.0-2.0,0,0,46320,,,,,,84.0,,,,,2.0,,,,,,,,,,,,,,,,,,,,,,,,,,,152.0,1.0,,,,,,
459,,feedback,,html-keyboard-response,459,1474436,0.0-1.0-86.0-0.0-3.0-0.0,0,0,46320,,,,,,84.0,,,,,2.0,,,,,,,,,,,,,,,,,,,,,,,,,,,153.0,1.0,,,,,,
460,,iti,,html-keyboard-response,460,1475446,0.0-1.0-86.0-0.0-5.0,0,0,46320,,,,,,84.0,,,,,2.0,,,,,,,,,,,,,,,,,,,,,,,,,,,154.0,1.0,,,,,,
461,,choice,,html-keyboard-response,461,1476471,0.0-1.0-87.0-0.0-0.0,0,0,46320,,1012.0,,,68.0,85.0,89.0,1500.0,3500.0,0.0,2.0,0.0,20-60,,0.0,baby carriage,poker card,20.0,60.0,baby carriage10,poker card7,0.0,80.0,peg_perego_uno_blu.jpg,22864416.thl.jpg,/static/Category_learning/Stimuli/Experimental_stims/baby carriage/peg_perego_uno_blu.jpg,/static/Category_learning/Stimuli/Experimental_stims/poker card/22864416.thl.jpg,1.0,baby carriage,poker card,20.0,60.0,baby carriage10,poker card7,0.0,80.0,0.0,155.012,1.012,,,,,,
462,,confirmation,,html-keyboard-response,462,1476966,0.0-1.0-87.0-0.0-1.0-0.0,0,0,46320,,,,,,85.0,,,,,2.0,,,,,,,,,,,,,,,,,,,,,,,,,,,155.5,0.488,,,,,,
463,,isi,,html-keyboard-response,463,1478474,0.0-1.0-87.0-0.0-2.0,0,0,46320,,,,,,85.0,,,,,2.0,,,,,,,,,,,,,,,,,,,,,,,,,,,157.0,1.5,,,,,,
464,,feedback,,html-keyboard-response,464,1479484,0.0-1.0-87.0-0.0-3.0-0.0,0,0,46320,,,,,,85.0,,,,,2.0,,,,,,,,,,,,,,,,,,,,,,,,,,,158.0,1.0,,,,,,
465,,iti,,html-keyboard-response,465,1482995,0.0-1.0-87.0-0.0-5.0,0,0,46320,,,,,,85.0,,,,,2.0,,,,,,,,,,,,,,,,,,,,,,,,,,,161.5,3.5,,,,,,
466,,choice,,html-keyboard-response,466,1483912,0.0-1.0-88.0-0.0-0.0,0,0,46320,,904.0,,,75.0,86.0,90.0,1000.0,1000.0,0.0,2.0,0.0,40-80,,1.0,vase,motorcycle,80.0,40.0,vase1,motorcycle9,60.0,40.0,Avase114.jpg,speedbike.jpg,/static/Category_learning/Stimuli/Experimental_stims/vase/Avase114.jpg,/static/Category_learning/Stimuli/Experimental_stims/motorcycle/speedbike.jpg,0.0,motorcycle,vase,40.0,80.0,motorcycle9,vase1,40.0,60.0,0.0,162.404,0.904,,,,,,
467,,confirmation,,html-keyboard-response,467,1484516,0.0-1.0-88.0-0.0-1.0-0.0,0,0,46320,,,,,,86.0,,,,,2.0,,,,,,,,,,,,,,,,,,,,,,,,,,,163.0,0.596,,,,,,
468,,isi,,html-keyboard-response,468,1485524,0.0-1.0-88.0-0.0-2.0,0,0,46320,,,,,,86.0,,,,,2.0,,,,,,,,,,,,,,,,,,,,,,,,,,,164.0,1.0,,,,,,
469,,feedback,,html-keyboard-response,469,1486627,0.0-1.0-88.0-0.0-3.0-0.0,0,0,46320,,,,,,86.0,,,,,2.0,,,,,,,,,,,,,,,,,,,,,,,,,,,165.0,1.0,,,,,,
470,,iti,,html-keyboard-response,470,1487642,0.0-1.0-88.0-0.0-5.0,0,0,46320,,,,,,86.0,,,,,2.0,,,,,,,,,,,,,,,,,,,,,,,,,,,166.0,1.0,,,,,,
471,,choice,,html-keyboard-response,471,1488508,0.0-1.0-89.0-0.0-0.0,0,0,46320,,846.0,,,68.0,87.0,91.0,3500.0,3500.0,0.0,2.0,0.0,80-80,,,tent,train,80.0,80.0,tent9,train14,60.0,100.0,Red Canyon Tent.jpg,images-products-childcraft-g83501.jpg,/static/Category_learning/Stimuli/Experimental_stims/tent/Red Canyon Tent.jpg,/static/Category_learning/Stimuli/Experimental_stims/train/images-products-childcraft-g83501.jpg,1.0,tent,train,80.0,80.0,tent9,train14,60.0,100.0,0.0,166.846,0.846,,,,,,
472,,confirmation,,html-keyboard-response,472,1489172,0.0-1.0-89.0-0.0-1.0-0.0,0,0,46320,,,,,,87.0,,,,,2.0,,,,,,,,,,,,,,,,,,,,,,,,,,,167.5,0.654,,,,,,
473,,isi,,html-keyboard-response,473,1492683,0.0-1.0-89.0-0.0-2.0,0,0,46320,,,,,,87.0,,,,,2.0,,,,,,,,,,,,,,,,,,,,,,,,,,,171.0,3.5,,,,,,
474,,feedback,,html-keyboard-response,474,1493692,0.0-1.0-89.0-0.0-3.0-0.0,0,0,46320,,,,,,87.0,,,,,2.0,,,,,,,,,,,,,,,,,,,,,,,,,,,172.0,1.0,,,,,,
475,,iti,,html-keyboard-response,475,1497206,0.0-1.0-89.0-0.0-5.0,0,0,46320,,,,,,87.0,,,,,2.0,,,,,,,,,,,,,,,,,,,,,,,,,,,175.5,3.5,,,,,,
