,success,ttype,start_time,trial_type,trial_index,time_elapsed,internal_node_id,warning,missed_checkup,PID,view_history,rt,responses,repeat_instructions,key_press,index,trial_num,isi,iti,is_practice,block,old_trial,pair_type,within_category,high_cat_on_left,left_category,right_category,left_category_value,right_category_value,left_exemplar,right_exemplar,left_exemplar_value,right_exemplar_value,left_img,right_img,left_img_path,right_img_path,left_chosen,chosen_category,unchosen_category,chosen_category_value,unchosen_category_value,chosen_exemplar,unchosen_exemplar,chosen_exemplar_value,unchosen_exemplar_value,no_response,onset,duration,end_practice,total_bonus_tally,category,category_group_value,category_value_response,did_not_enter_response
0,True,full_screen,d06032022hr1531,fullscreen,0,3198,0.0-0.0,0,0,58537,,,,,,,,,,,,,,,,,,,,,,,,,,,,,,,,,,,,,,,,,,,,,
1,,category_learning_instructions,,instructions,1,41263,0.0-1.0-0.0-0.0,0,0,58537,"[{""page_index"":0,""viewing_time"":18163},{""page_index"":1,""viewing_time"":15191},{""page_index"":2,""viewing_time"":1767},{""page_index"":3,""viewing_time"":910},{""page_index"":4,""viewing_time"":673},{""page_index"":5,""viewing_time"":752},{""page_index"":6,""viewing_time"":600}]",38058.0,,,,,,,,,,,,,,,,,,,,,,,,,,,,,,,,,,,,,,,,,,,
2,,category_learning_comprehension_check,,survey-multi-choice,2,49524,0.0-1.0-0.0-1.0,0,0,58537,,8252.0,"{""Q0"":""True"",""Q1"":""False"",""Q2"":""Stay the same"",""Q3"":""D for left and K for right""}",1.0,,,,,,,,,,,,,,,,,,,,,,,,,,,,,,,,,,,,,,,,,
3,,missed_instruction_checkup,,html-keyboard-response,3,51752,0.0-1.0-0.0-2.0-0.0,0,0,58537,,2219.0,,,68.0,,,,,,,,,,,,,,,,,,,,,,,,,,,,,,,,,,,,,,,,
4,,category_learning_instructions,,instructions,4,67167,0.0-1.0-0.1-0.1,0,0,58537,"[{""page_index"":0,""viewing_time"":6471},{""page_index"":1,""viewing_time"":1178},{""page_index"":2,""viewing_time"":836},{""page_index"":3,""viewing_time"":1373},{""page_index"":4,""viewing_time"":3447},{""page_index"":5,""viewing_time"":1121},{""page_index"":6,""viewing_time"":983}]",15410.0,,,,,,,,,,,,,,,,,,,,,,,,,,,,,,,,,,,,,,,,,,,
5,,category_learning_comprehension_check,,survey-multi-choice,5,80664,0.0-1.0-0.1-1.1,0,0,58537,,13482.0,"{""Q0"":""True"",""Q1"":""True"",""Q2"":""Change"",""Q3"":""D for left and K for right""}",1.0,,,,,,,,,,,,,,,,,,,,,,,,,,,,,,,,,,,,,,,,,
6,,missed_instruction_checkup,,html-keyboard-response,6,84631,0.0-1.0-0.1-2.1-0.1,0,0,58537,,3962.0,,,68.0,,,,,,,,,,,,,,,,,,,,,,,,,,,,,,,,,,,,,,,,
7,,category_learning_instructions,,instructions,7,99968,0.0-1.0-0.2-0.2,0,0,58537,"[{""page_index"":0,""viewing_time"":6921},{""page_index"":1,""viewing_time"":3448},{""page_index"":2,""viewing_time"":63},{""page_index"":3,""viewing_time"":2057},{""page_index"":4,""viewing_time"":1385},{""page_index"":5,""viewing_time"":744},{""page_index"":6,""viewing_time"":712}]",15331.0,,,,,,,,,,,,,,,,,,,,,,,,,,,,,,,,,,,,,,,,,,,
8,,category_learning_comprehension_check,,survey-multi-choice,8,111365,0.0-1.0-0.2-1.2,0,0,58537,,11389.0,"{""Q0"":""False"",""Q1"":""True"",""Q2"":""Change"",""Q3"":""D for left and K for right""}",1.0,,,,,,,,,,,,,,,,,,,,,,,,,,,,,,,,,,,,,,,,,
9,,missed_instruction_checkup,,html-keyboard-response,9,114216,0.0-1.0-0.2-2.2-0.2,0,0,58537,,2844.0,,,68.0,,,,,,,,,,,,,,,,,,,,,,,,,,,,,,,,,,,,,,,,
10,,category_learning_instructions,,instructions,10,155968,0.0-1.0-0.3-0.3,0,0,58537,"[{""page_index"":0,""viewing_time"":5844},{""page_index"":1,""viewing_time"":10846},{""page_index"":2,""viewing_time"":7432},{""page_index"":3,""viewing_time"":7553},{""page_index"":4,""viewing_time"":7959},{""page_index"":5,""viewing_time"":1087},{""page_index"":6,""viewing_time"":1024}]",41745.0,,,,,,,,,,,,,,,,,,,,,,,,,,,,,,,,,,,,,,,,,,,
11,,category_learning_comprehension_check,,survey-multi-choice,11,171274,0.0-1.0-0.3-1.3,0,0,58537,,15296.0,"{""Q0"":""True"",""Q1"":""True"",""Q2"":""Stay the same"",""Q3"":""D for left and K for right""}",0.0,,,,,,,,,,,,,,,,,,,,,,,,,,,,,,,,,,,,,,,,,
12,,,,html-keyboard-response,12,173425,0.0-1.0-1.0,0,0,58537,,2143.0,,,68.0,,,,,,,,,,,,,,,,,,,,,,,,,,,,,,,,,,,,,,,,
13,,choice,,html-keyboard-response,13,174868,0.0-1.0-2.0-0.0-0.0,0,0,58537,,1434.0,,,68.0,0.0,0.0,1500.0,1000.0,1.0,0.0,0.0,20-80,,0.0,bagel,dumbbell,20.0,80.0,bagel1,dumbbell1,0.0,80.0,bagels_pumpernickel_large.jpg,31B64EN68AL._AA280_.jpg,/static/Category_learning/Stimuli/Practice_stims/bagel/bagels_pumpernickel_large.jpg,/static/Category_learning/Stimuli/Practice_stims/dumbbell/31B64EN68AL._AA280_.jpg,1.0,bagel,dumbbell,20.0,80.0,bagel1,dumbbell1,0.0,80.0,0.0,1.434,1.434,,,,,,
14,,confirmation,,html-keyboard-response,14,174945,0.0-1.0-2.0-0.0-1.0-0.0,0,0,58537,,,,,,0.0,,,,,,,,,,,,,,,,,,,,,,,,,,,,,,,,1.5,0.066,,,,,,
15,,isi,,html-keyboard-response,15,176451,0.0-1.0-2.0-0.0-2.0,0,0,58537,,,,,,,,,,,,,,,,,,,,,,,,,,,,,,,,,,,,,,3.0,1.5,,,,,,
16,,feedback,,html-keyboard-response,16,177472,0.0-1.0-2.0-0.0-3.0-0.0,0,0,58537,,,,,,0.0,,,,,,,,,,,,,,,,,,,,,,,,,,,,,,,,4.0,1.0,,,,,,
17,,iti,,html-keyboard-response,17,178481,0.0-1.0-2.0-0.0-5.0,0,0,58537,,,,,,,,,,,,,,,,,,,,,,,,,,,,,,,,,,,,,,5.0,1.0,,,,,,
18,,choice,,html-keyboard-response,18,179609,0.0-1.0-3.0-0.0-0.0,0,0,58537,,1121.0,,,68.0,1.0,1.0,3000.0,1500.0,1.0,0.0,0.0,20-40,,1.0,calculator,bagel,40.0,20.0,calculator2,bagel2,20.0,20.0,22829064.thl.jpg,bagels_cinnraisin_large.jpg,/static/Category_learning/Stimuli/Practice_stims/calculator/22829064.thl.jpg,/static/Category_learning/Stimuli/Practice_stims/bagel/bagels_cinnraisin_large.jpg,1.0,calculator,bagel,40.0,20.0,calculator2,bagel2,20.0,20.0,0.0,6.121,1.121,,,,,,
19,,confirmation,,html-keyboard-response,19,179997,0.0-1.0-3.0-0.0-1.0-0.0,0,0,58537,,,,,,1.0,,,,,,,,,,,,,,,,,,,,,,,,,,,,,,,,6.5,0.379,,,,,,
20,,isi,,html-keyboard-response,20,183004,0.0-1.0-3.0-0.0-2.0,0,0,58537,,,,,,,,,,,,,,,,,,,,,,,,,,,,,,,,,,,,,,9.5,3.0,,,,,,
21,,feedback,,html-keyboard-response,21,184010,0.0-1.0-3.0-0.0-3.0-0.0,0,0,58537,,,,,,1.0,,,,,,,,,,,,,,,,,,,,,,,,,,,,,,,,10.5,1.0,,,,,,
22,,iti,,html-keyboard-response,22,185518,0.0-1.0-3.0-0.0-5.0,0,0,58537,,,,,,,,,,,,,,,,,,,,,,,,,,,,,,,,,,,,,,12.0,1.5,,,,,,
23,,choice,,html-keyboard-response,23,185736,0.0-1.0-4.0-0.0-0.0,0,0,58537,,208.0,,,68.0,2.0,2.0,2000.0,3000.0,1.0,0.0,0.0,60-80,,0.0,clock,dumbbell,60.0,80.0,clock2,dumbbell2,60.0,100.0,26373355.thl.jpg,31K8MR6TMBL._SS500_.jpg,/static/Category_learning/Stimuli/Practice_stims/clock/26373355.thl.jpg,/static/Category_learning/Stimuli/Practice_stims/dumbbell/31K8MR6TMBL._SS500_.jpg,1.0,clock,dumbbell,60.0,80.0,clock2,dumbbell2,60.0,100.0,0.0,12.208,0.208,,,,,,
24,,confirmation,,html-keyboard-response,24,187037,0.0-1.0-4.0-0.0-1.0-0.0,0,0,58537,,,,,,2.0,,,,,,,,,,,,,,,,,,,,,,,,,,,,,,,,13.5,1.292,,,,,,
25,,isi,,html-keyboard-response,25,189043,0.0-1.0-4.0-0.0-2.0,0,0,58537,,,,,,,,,,,,,,,,,,,,,,,,,,,,,,,,,,,,,,15.5,2.0,,,,,,
26,,feedback,,html-keyboard-response,26,190050,0.0-1.0-4.0-0.0-3.0-0.0,0,0,58537,,,,,,2.0,,,,,,,,,,,,,,,,,,,,,,,,,,,,,,,,16.5,1.0,,,,,,
27,,iti,,html-keyboard-response,27,193056,0.0-1.0-4.0-0.0-5.0,0,0,58537,,,,,,,,,,,,,,,,,,,,,,,,,,,,,,,,,,,,,,19.5,3.0,,,,,,
28,,choice,,html-keyboard-response,28,193153,0.0-1.0-5.0-0.0-0.0,0,0,58537,,89.0,,,68.0,3.0,3.0,1000.0,2000.0,1.0,0.0,0.0,40-80,,0.0,calculator,clock,40.0,60.0,calculator1,clock1,40.0,40.0,22829184.thl.jpg,Aalarmclock2.jpg,/static/Category_learning/Stimuli/Practice_stims/calculator/22829184.thl.jpg,/static/Category_learning/Stimuli/Practice_stims/clock/Aalarmclock2.jpg,1.0,calculator,clock,40.0,60.0,calculator1,clock1,40.0,40.0,0.0,19.589,0.089,,,,,,
29,,confirmation,,html-keyboard-response,29,194571,0.0-1.0-5.0-0.0-1.0-0.0,0,0,58537,,,,,,3.0,,,,,,,,,,,,,,,,,,,,,,,,,,,,,,,,21.0,1.411,,,,,,
30,,isi,,html-keyboard-response,30,195578,0.0-1.0-5.0-0.0-2.0,0,0,58537,,,,,,,,,,,,,,,,,,,,,,,,,,,,,,,,,,,,,,22.0,1.0,,,,,,
31,,feedback,,html-keyboard-response,31,196587,0.0-1.0-5.0-0.0-3.0-0.0,0,0,58537,,,,,,3.0,,,,,,,,,,,,,,,,,,,,,,,,,,,,,,,,23.0,1.0,,,,,,
32,,iti,,html-keyboard-response,32,198595,0.0-1.0-5.0-0.0-5.0,0,0,58537,,,,,,,,,,,,,,,,,,,,,,,,,,,,,,,,,,,,,,25.0,2.0,,,,,,
33,,choice,,html-keyboard-response,33,198790,0.0-1.0-6.0-0.0-0.0,0,0,58537,,189.0,,,68.0,4.0,4.0,2500.0,2500.0,1.0,0.0,0.0,20-60,,1.0,dumbbell,bagel,80.0,20.0,dumbbell3,bagel3,100.0,40.0,41K7QVRX50L._SS500_.jpg,photo-169.jpg,/static/Category_learning/Stimuli/Practice_stims/dumbbell/41K7QVRX50L._SS500_.jpg,/static/Category_learning/Stimuli/Practice_stims/bagel/photo-169.jpg,1.0,dumbbell,bagel,80.0,20.0,dumbbell3,bagel3,100.0,40.0,0.0,25.189,0.189,1.0,,,,,
34,,confirmation,,html-keyboard-response,34,200110,0.0-1.0-6.0-0.0-1.0-0.0,0,0,58537,,,,,,4.0,,,,,,,,,,,,,,,,,,,,,,,,,,,,,,,,26.5,1.311,,,,,,
35,,isi,,html-keyboard-response,35,202617,0.0-1.0-6.0-0.0-2.0,0,0,58537,,,,,,,,,,,,,,,,,,,,,,,,,,,,,,,,,,,,,,29.0,2.5,,,,,,
36,,feedback,,html-keyboard-response,36,203635,0.0-1.0-6.0-0.0-3.0-0.0,0,0,58537,,,,,,4.0,,,,,,,,,,,,,,,,,,,,,,,,,,,,,,,,30.0,1.0,,,,,,
37,,iti,,html-keyboard-response,37,206143,0.0-1.0-6.0-0.0-5.0,0,0,58537,,,,,,,,,,,,,,,,,,,,,,,,,,,,,,,,,,,,,,32.5,2.5,,,,,,
38,,practice_over,,html-keyboard-response,38,206322,0.0-1.0-6.0-0.0-6.0-0.0,0,0,58537,,171.0,,,68.0,4.0,,,,,,,,,,,,,,,,,,,,,,,,,,,,,,,,,,,,,,,
39,,start_run,,html-keyboard-response,39,218376,0.0-1.0-6.0-0.0-6.0-1.0,0,0,58537,,12049.0,,,84.0,,,,,,,,,,,,,,,,,,,,,,,,,,,,,,,,,,,,,,,,
40,,choice,,html-keyboard-response,40,219887,0.0-1.0-7.0-0.0-0.0,0,0,58537,,,,,,5.0,5.0,1000.0,1500.0,0.0,1.0,0.0,40-40,,,door knob,desk,40.0,40.0,door knob15,desk9,60.0,20.0,Legacy_oval.jpg,desk 189dr96dr chr.jpg,/static/Category_learning/Stimuli/Experimental_stims/door knob/Legacy_oval.jpg,/static/Category_learning/Stimuli/Experimental_stims/desk/desk 189dr96dr chr.jpg,,,,,,,,,,1.0,1.5,1.5,,,,,,
41,,isi,,html-keyboard-response,41,220900,0.0-1.0-7.0-0.0-2.0,0,0,58537,,,,,,,,,,,,,,,,,,,,,,,,,,,,,,,,,,,,,,2.5,1.0,,,,,,
42,,no_response,,html-keyboard-response,42,221907,0.0-1.0-7.0-0.0-4.0-0.0,0,0,58537,,,,,,,,,,,,,,,,,,,,,,,,,,,,,,,,,,,,,,3.5,1.0,,,,,,
43,,iti,,html-keyboard-response,43,223477,0.0-1.0-7.0-0.0-5.0,0,0,58537,,,,,,,,,,,,,,,,,,,,,,,,,,,,,,,,,,,,,,5.0,1.5,,,,,,
44,,choice,,html-keyboard-response,44,224380,0.0-1.0-7.0-0.1-0.1,0,0,58537,,895.0,,,68.0,5.0,5.0,1000.0,1500.0,0.0,1.0,0.0,40-40,,,door knob,desk,40.0,40.0,door knob15,desk9,60.0,20.0,Legacy_oval.jpg,desk 189dr96dr chr.jpg,/static/Category_learning/Stimuli/Experimental_stims/door knob/Legacy_oval.jpg,/static/Category_learning/Stimuli/Experimental_stims/desk/desk 189dr96dr chr.jpg,1.0,door knob,desk,40.0,40.0,door knob15,desk9,60.0,20.0,0.0,5.895,0.895,,,,,,
45,,confirmation,,html-keyboard-response,45,224996,0.0-1.0-7.0-0.1-1.1-0.1,0,0,58537,,,,,,5.0,,,,,,,,,,,,,,,,,,,,,,,,,,,,,,,,6.5,0.605,,,,,,
46,,isi,,html-keyboard-response,46,226003,0.0-1.0-7.0-0.1-2.1,0,0,58537,,,,,,,,,,,,,,,,,,,,,,,,,,,,,,,,,,,,,,7.5,1.0,,,,,,
47,,feedback,,html-keyboard-response,47,227011,0.0-1.0-7.0-0.1-3.1-0.1,0,0,58537,,,,,,5.0,,,,,,,,,,,,,,,,,,,,,,,,,,,,,,,,8.5,1.0,,,,,,
48,,iti,,html-keyboard-response,48,228518,0.0-1.0-7.0-0.1-5.1,0,0,58537,,,,,,,,,,,,,,,,,,,,,,,,,,,,,,,,,,,,,,10.0,1.5,,,,,,
49,,choice,,html-keyboard-response,49,228537,0.0-1.0-8.0-0.0-0.0,0,0,58537,,13.0,,,68.0,6.0,6.0,1500.0,2000.0,0.0,1.0,0.0,40-80,,1.0,pen,door knob,80.0,40.0,pen12,door knob7,100.0,20.0,pen02.jpg,doorknob2.jpg,/static/Category_learning/Stimuli/Experimental_stims/pen/pen02.jpg,/static/Category_learning/Stimuli/Experimental_stims/door knob/doorknob2.jpg,1.0,pen,door knob,80.0,40.0,pen12,door knob7,100.0,20.0,0.0,10.013,0.013,,,,,,
50,,confirmation,,html-keyboard-response,50,230033,0.0-1.0-8.0-0.0-1.0-0.0,0,0,58537,,,,,,6.0,,,,,,,,,,,,,,,,,,,,,,,,,,,,,,,,11.5,1.487,,,,,,
51,,isi,,html-keyboard-response,51,231541,0.0-1.0-8.0-0.0-2.0,0,0,58537,,,,,,,,,,,,,,,,,,,,,,,,,,,,,,,,,,,,,,13.0,1.5,,,,,,
52,,feedback,,html-keyboard-response,52,232550,0.0-1.0-8.0-0.0-3.0-0.0,0,0,58537,,,,,,6.0,,,,,,,,,,,,,,,,,,,,,,,,,,,,,,,,14.0,1.0,,,,,,
53,,iti,,html-keyboard-response,53,234558,0.0-1.0-8.0-0.0-5.0,0,0,58537,,,,,,,,,,,,,,,,,,,,,,,,,,,,,,,,,,,,,,16.0,2.0,,,,,,
54,,choice,,html-keyboard-response,54,234592,0.0-1.0-9.0-0.0-0.0,0,0,58537,,15.0,,,68.0,7.0,7.0,1000.0,1500.0,0.0,1.0,0.0,80-80,,,seashell,pen,80.0,80.0,seashell3,pen3,80.0,80.0,coquillage.jpg,pen08.jpg,/static/Category_learning/Stimuli/Experimental_stims/seashell/coquillage.jpg,/static/Category_learning/Stimuli/Experimental_stims/pen/pen08.jpg,1.0,seashell,pen,80.0,80.0,seashell3,pen3,80.0,80.0,0.0,16.015,0.015,,,,,,
55,,confirmation,,html-keyboard-response,55,236086,0.0-1.0-9.0-0.0-1.0-0.0,0,0,58537,,,,,,7.0,,,,,,,,,,,,,,,,,,,,,,,,,,,,,,,,17.5,1.485,,,,,,
56,,isi,,html-keyboard-response,56,237095,0.0-1.0-9.0-0.0-2.0,0,0,58537,,,,,,,,,,,,,,,,,,,,,,,,,,,,,,,,,,,,,,18.5,1.0,,,,,,
57,,feedback,,html-keyboard-response,57,238103,0.0-1.0-9.0-0.0-3.0-0.0,0,0,58537,,,,,,7.0,,,,,,,,,,,,,,,,,,,,,,,,,,,,,,,,19.5,1.0,,,,,,
58,,iti,,html-keyboard-response,58,239611,0.0-1.0-9.0-0.0-5.0,0,0,58537,,,,,,,,,,,,,,,,,,,,,,,,,,,,,,,,,,,,,,21.0,1.5,,,,,,
59,,choice,,html-keyboard-response,59,239754,0.0-1.0-10.0-0.0-0.0,0,0,58537,,135.0,,,68.0,8.0,8.0,1000.0,2000.0,0.0,1.0,0.0,60-60,,,lipstick,key chain,60.0,60.0,lipstick10,key chain1,60.0,80.0,21K0D7QKFAL._SS500_.jpg,jm05s16.jpg,/static/Category_learning/Stimuli/Experimental_stims/lipstick/21K0D7QKFAL._SS500_.jpg,/static/Category_learning/Stimuli/Experimental_stims/key chain/jm05s16.jpg,1.0,lipstick,key chain,60.0,60.0,lipstick10,key chain1,60.0,80.0,0.0,21.135,0.135,,,,,,
60,,confirmation,,html-keyboard-response,60,241128,0.0-1.0-10.0-0.0-1.0-0.0,0,0,58537,,,,,,8.0,,,,,,,,,,,,,,,,,,,,,,,,,,,,,,,,22.5,1.365,,,,,,
61,,isi,,html-keyboard-response,61,242137,0.0-1.0-10.0-0.0-2.0,0,0,58537,,,,,,,,,,,,,,,,,,,,,,,,,,,,,,,,,,,,,,23.5,1.0,,,,,,
62,,feedback,,html-keyboard-response,62,243143,0.0-1.0-10.0-0.0-3.0-0.0,0,0,58537,,,,,,8.0,,,,,,,,,,,,,,,,,,,,,,,,,,,,,,,,24.5,1.0,,,,,,
63,,iti,,html-keyboard-response,63,245150,0.0-1.0-10.0-0.0-5.0,0,0,58537,,,,,,,,,,,,,,,,,,,,,,,,,,,,,,,,,,,,,,26.5,2.0,,,,,,
64,,choice,,html-keyboard-response,64,245206,0.0-1.0-11.0-0.0-0.0,0,0,58537,,51.0,,,68.0,9.0,9.0,3000.0,1500.0,0.0,1.0,0.0,60-80,,0.0,makeup compact,patio lounge chair,60.0,80.0,makeup compact4,patio lounge chair15,40.0,60.0,262668_fpx.jpg,phpThumb.jpg,/static/Category_learning/Stimuli/Experimental_stims/makeup compact/262668_fpx.jpg,/static/Category_learning/Stimuli/Experimental_stims/patio lounge chair/phpThumb.jpg,1.0,makeup compact,patio lounge chair,60.0,80.0,makeup compact4,patio lounge chair15,40.0,60.0,0.0,26.551,0.051,,,,,,
65,,confirmation,,html-keyboard-response,65,246663,0.0-1.0-11.0-0.0-1.0-0.0,0,0,58537,,,,,,9.0,,,,,,,,,,,,,,,,,,,,,,,,,,,,,,,,28.0,1.449,,,,,,
66,,isi,,html-keyboard-response,66,249670,0.0-1.0-11.0-0.0-2.0,0,0,58537,,,,,,,,,,,,,,,,,,,,,,,,,,,,,,,,,,,,,,31.0,3.0,,,,,,
67,,feedback,,html-keyboard-response,67,250679,0.0-1.0-11.0-0.0-3.0-0.0,0,0,58537,,,,,,9.0,,,,,,,,,,,,,,,,,,,,,,,,,,,,,,,,32.0,1.0,,,,,,
68,,iti,,html-keyboard-response,68,252186,0.0-1.0-11.0-0.0-5.0,0,0,58537,,,,,,,,,,,,,,,,,,,,,,,,,,,,,,,,,,,,,,33.5,1.5,,,,,,
69,,choice,,html-keyboard-response,69,252205,0.0-1.0-12.0-0.0-0.0,0,0,58537,,14.0,,,68.0,10.0,10.0,2000.0,1500.0,0.0,1.0,1.0,40-60,0.0,,door knob,lipstick,40.0,60.0,door knob15,lipstick10,60.0,60.0,Legacy_oval.jpg,21K0D7QKFAL._SS500_.jpg,/static/Category_learning/Stimuli/Experimental_stims/door knob/Legacy_oval.jpg,/static/Category_learning/Stimuli/Experimental_stims/lipstick/21K0D7QKFAL._SS500_.jpg,1.0,door knob,lipstick,40.0,60.0,door knob15,lipstick10,60.0,60.0,0.0,33.514,0.014,,,,,,
70,,confirmation,,html-keyboard-response,70,253699,0.0-1.0-12.0-0.0-1.0-0.0,0,0,58537,,,,,,10.0,,,,,,,,,,,,,,,,,,,,,,,,,,,,,,,,35.0,1.486,,,,,,
71,,isi,,html-keyboard-response,71,255705,0.0-1.0-12.0-0.0-2.0,0,0,58537,,,,,,,,,,,,,,,,,,,,,,,,,,,,,,,,,,,,,,37.0,2.0,,,,,,
72,,feedback,,html-keyboard-response,72,256713,0.0-1.0-12.0-0.0-3.0-0.0,0,0,58537,,,,,,10.0,,,,,,,,,,,,,,,,,,,,,,,,,,,,,,,,38.0,1.0,,,,,,
73,,iti,,html-keyboard-response,73,258220,0.0-1.0-12.0-0.0-5.0,0,0,58537,,,,,,,,,,,,,,,,,,,,,,,,,,,,,,,,,,,,,,39.5,1.5,,,,,,
74,,choice,,html-keyboard-response,74,258236,0.0-1.0-13.0-0.0-0.0,0,0,58537,,8.0,,,68.0,11.0,11.0,3500.0,1000.0,0.0,1.0,0.0,40-40,,,bongo,flashlight,40.0,40.0,bongo3,flashlight5,60.0,60.0,26390697.thl.jpg,Streamlight-71001-Jr-Flashlight-W-batteries-black-B00018A3CG-L.jpg,/static/Category_learning/Stimuli/Experimental_stims/bongo/26390697.thl.jpg,/static/Category_learning/Stimuli/Experimental_stims/flashlight/Streamlight-71001-Jr-Flashlight-W-batteries-black-B00018A3CG-L.jpg,1.0,bongo,flashlight,40.0,40.0,bongo3,flashlight5,60.0,60.0,0.0,39.508,0.008,,,,,,
75,,confirmation,,html-keyboard-response,75,259737,0.0-1.0-13.0-0.0-1.0-0.0,0,0,58537,,,,,,11.0,,,,,,,,,,,,,,,,,,,,,,,,,,,,,,,,41.0,1.492,,,,,,
76,,isi,,html-keyboard-response,76,263244,0.0-1.0-13.0-0.0-2.0,0,0,58537,,,,,,,,,,,,,,,,,,,,,,,,,,,,,,,,,,,,,,44.5,3.5,,,,,,
77,,feedback,,html-keyboard-response,77,264257,0.0-1.0-13.0-0.0-3.0-0.0,0,0,58537,,,,,,11.0,,,,,,,,,,,,,,,,,,,,,,,,,,,,,,,,45.5,1.0,,,,,,
78,,iti,,html-keyboard-response,78,265264,0.0-1.0-13.0-0.0-5.0,0,0,58537,,,,,,,,,,,,,,,,,,,,,,,,,,,,,,,,,,,,,,46.5,1.0,,,,,,
79,,choice,,html-keyboard-response,79,265586,0.0-1.0-14.0-0.0-0.0,0,0,58537,,312.0,,,68.0,12.0,12.0,1500.0,1000.0,0.0,1.0,1.0,40-60,0.0,,bongo,makeup compact,40.0,60.0,bongo3,makeup compact4,60.0,40.0,26390697.thl.jpg,262668_fpx.jpg,/static/Category_learning/Stimuli/Experimental_stims/bongo/26390697.thl.jpg,/static/Category_learning/Stimuli/Experimental_stims/makeup compact/262668_fpx.jpg,1.0,bongo,makeup compact,40.0,60.0,bongo3,makeup compact4,60.0,40.0,0.0,46.812,0.312,,,,,,
80,,confirmation,,html-keyboard-response,80,266785,0.0-1.0-14.0-0.0-1.0-0.0,0,0,58537,,,,,,12.0,,,,,,,,,,,,,,,,,,,,,,,,,,,,,,,,48.0,1.188,,,,,,
81,,isi,,html-keyboard-response,81,268291,0.0-1.0-14.0-0.0-2.0,0,0,58537,,,,,,,,,,,,,,,,,,,,,,,,,,,,,,,,,,,,,,49.5,1.5,,,,,,
82,,feedback,,html-keyboard-response,82,269301,0.0-1.0-14.0-0.0-3.0-0.0,0,0,58537,,,,,,12.0,,,,,,,,,,,,,,,,,,,,,,,,,,,,,,,,50.5,1.0,,,,,,
83,,iti,,html-keyboard-response,83,270308,0.0-1.0-14.0-0.0-5.0,0,0,58537,,,,,,,,,,,,,,,,,,,,,,,,,,,,,,,,,,,,,,51.5,1.0,,,,,,
84,,choice,,html-keyboard-response,84,270383,0.0-1.0-15.0-0.0-0.0,0,0,58537,,67.0,,,75.0,13.0,13.0,2000.0,1000.0,0.0,1.0,0.0,40-60,,0.0,desk,hammer,40.0,60.0,desk8,hammer2,60.0,40.0,26370118.thl.jpg,hammer04.jpg,/static/Category_learning/Stimuli/Experimental_stims/desk/26370118.thl.jpg,/static/Category_learning/Stimuli/Experimental_stims/hammer/hammer04.jpg,0.0,hammer,desk,60.0,40.0,hammer2,desk8,40.0,60.0,0.0,51.567,0.067,,,,,,
85,,confirmation,,html-keyboard-response,85,271828,0.0-1.0-15.0-0.0-1.0-0.0,0,0,58537,,,,,,13.0,,,,,,,,,,,,,,,,,,,,,,,,,,,,,,,,53.0,1.433,,,,,,
86,,isi,,html-keyboard-response,86,273834,0.0-1.0-15.0-0.0-2.0,0,0,58537,,,,,,,,,,,,,,,,,,,,,,,,,,,,,,,,,,,,,,55.0,2.0,,,,,,
87,,feedback,,html-keyboard-response,87,274842,0.0-1.0-15.0-0.0-3.0-0.0,0,0,58537,,,,,,13.0,,,,,,,,,,,,,,,,,,,,,,,,,,,,,,,,56.0,1.0,,,,,,
88,,iti,,html-keyboard-response,88,275849,0.0-1.0-15.0-0.0-5.0,0,0,58537,,,,,,,,,,,,,,,,,,,,,,,,,,,,,,,,,,,,,,57.0,1.0,,,,,,
89,,choice,,html-keyboard-response,89,276008,0.0-1.0-16.0-0.0-0.0,0,0,58537,,150.0,,,68.0,14.0,14.0,2000.0,2000.0,0.0,1.0,0.0,60-60,,,license plate,hammer,60.0,60.0,license plate2,hammer5,60.0,60.0,ny-u93-8zs.jpg,hammer02.jpg,/static/Category_learning/Stimuli/Experimental_stims/license plate/ny-u93-8zs.jpg,/static/Category_learning/Stimuli/Experimental_stims/hammer/hammer02.jpg,1.0,license plate,hammer,60.0,60.0,license plate2,hammer5,60.0,60.0,0.0,57.15,0.15,,,,,,
90,,confirmation,,html-keyboard-response,90,277367,0.0-1.0-16.0-0.0-1.0-0.0,0,0,58537,,,,,,14.0,,,,,,,,,,,,,,,,,,,,,,,,,,,,,,,,58.5,1.35,,,,,,
91,,isi,,html-keyboard-response,91,279374,0.0-1.0-16.0-0.0-2.0,0,0,58537,,,,,,,,,,,,,,,,,,,,,,,,,,,,,,,,,,,,,,60.5,2.0,,,,,,
92,,feedback,,html-keyboard-response,92,280381,0.0-1.0-16.0-0.0-3.0-0.0,0,0,58537,,,,,,14.0,,,,,,,,,,,,,,,,,,,,,,,,,,,,,,,,61.5,1.0,,,,,,
93,,iti,,html-keyboard-response,93,282387,0.0-1.0-16.0-0.0-5.0,0,0,58537,,,,,,,,,,,,,,,,,,,,,,,,,,,,,,,,,,,,,,63.5,2.0,,,,,,
94,,choice,,html-keyboard-response,94,283894,0.0-1.0-17.0-0.0-0.0,0,0,58537,,,,,,15.0,15.0,1500.0,2000.0,0.0,1.0,0.0,20-20,,,train,tape,20.0,20.0,train9,tape13,20.0,20.0,train2.jpg,920152.jpg,/static/Category_learning/Stimuli/Experimental_stims/train/train2.jpg,/static/Category_learning/Stimuli/Experimental_stims/tape/920152.jpg,,,,,,,,,,1.0,65.0,1.5,,,,,,
95,,isi,,html-keyboard-response,95,285405,0.0-1.0-17.0-0.0-2.0,0,0,58537,,,,,,,,,,,,,,,,,,,,,,,,,,,,,,,,,,,,,,66.5,1.5,,,,,,
96,,no_response,,html-keyboard-response,96,286411,0.0-1.0-17.0-0.0-4.0-0.0,0,0,58537,,,,,,,,,,,,,,,,,,,,,,,,,,,,,,,,,,,,,,67.5,1.0,,,,,,
97,,iti,,html-keyboard-response,97,288488,0.0-1.0-17.0-0.0-5.0,0,0,58537,,,,,,,,,,,,,,,,,,,,,,,,,,,,,,,,,,,,,,69.5,2.0,,,,,,
98,,choice,,html-keyboard-response,98,288580,0.0-1.0-17.0-0.1-0.1,0,0,58537,,87.0,,,75.0,15.0,15.0,1500.0,2000.0,0.0,1.0,0.0,20-20,,,train,tape,20.0,20.0,train9,tape13,20.0,20.0,train2.jpg,920152.jpg,/static/Category_learning/Stimuli/Experimental_stims/train/train2.jpg,/static/Category_learning/Stimuli/Experimental_stims/tape/920152.jpg,0.0,tape,train,20.0,20.0,tape13,train9,20.0,20.0,0.0,69.587,0.087,,,,,,
99,,confirmation,,html-keyboard-response,99,290003,0.0-1.0-17.0-0.1-1.1-0.1,0,0,58537,,,,,,15.0,,,,,,,,,,,,,,,,,,,,,,,,,,,,,,,,71.0,1.413,,,,,,
100,,isi,,html-keyboard-response,100,293015,0.0-1.0-17.0-0.1-2.1,0,0,58537,,,,,,,,,,,,,,,,,,,,,,,,,,,,,,,,,,,,,,74.0,3.0,,,,,,
101,,feedback,,html-keyboard-response,101,294023,0.0-1.0-17.0-0.1-3.1-0.1,0,0,58537,,,,,,15.0,,,,,,,,,,,,,,,,,,,,,,,,,,,,,,,,75.0,1.0,,,,,,
102,,iti,,html-keyboard-response,102,297036,0.0-1.0-17.0-0.1-5.1,0,0,58537,,,,,,,,,,,,,,,,,,,,,,,,,,,,,,,,,,,,,,78.0,3.0,,,,,,
103,,choice,,html-keyboard-response,103,297188,0.0-1.0-18.0-0.0-0.0,0,0,58537,,143.0,,,75.0,16.0,16.0,1500.0,2000.0,0.0,1.0,0.0,20-40,,0.0,trumpet,bongo,20.0,40.0,trumpet10,bongo14,40.0,40.0,trumpet2.jpg,26390667.thl.jpg,/static/Category_learning/Stimuli/Experimental_stims/trumpet/trumpet2.jpg,/static/Category_learning/Stimuli/Experimental_stims/bongo/26390667.thl.jpg,0.0,bongo,trumpet,40.0,20.0,bongo14,trumpet10,40.0,40.0,0.0,78.143,0.143,,,,,,
104,,confirmation,,html-keyboard-response,104,298552,0.0-1.0-18.0-0.0-1.0-0.0,0,0,58537,,,,,,16.0,,,,,,,,,,,,,,,,,,,,,,,,,,,,,,,,79.5,1.357,,,,,,
105,,isi,,html-keyboard-response,105,300057,0.0-1.0-18.0-0.0-2.0,0,0,58537,,,,,,,,,,,,,,,,,,,,,,,,,,,,,,,,,,,,,,81.0,1.5,,,,,,
106,,feedback,,html-keyboard-response,106,301065,0.0-1.0-18.0-0.0-3.0-0.0,0,0,58537,,,,,,16.0,,,,,,,,,,,,,,,,,,,,,,,,,,,,,,,,82.0,1.0,,,,,,
107,,iti,,html-keyboard-response,107,303072,0.0-1.0-18.0-0.0-5.0,0,0,58537,,,,,,,,,,,,,,,,,,,,,,,,,,,,,,,,,,,,,,84.0,2.0,,,,,,
108,,choice,,html-keyboard-response,108,304581,0.0-1.0-19.0-0.0-0.0,0,0,58537,,,,,,17.0,17.0,2000.0,3500.0,0.0,1.0,0.0,20-60,,0.0,trumpet,lipstick,20.0,60.0,trumpet1,lipstick4,40.0,60.0,JUPITER+TROMPETTE+606MRL.JPG,P145703_hero.jpg,/static/Category_learning/Stimuli/Experimental_stims/trumpet/JUPITER+TROMPETTE+606MRL.JPG,/static/Category_learning/Stimuli/Experimental_stims/lipstick/P145703_hero.jpg,,,,,,,,,,1.0,85.5,1.5,,,,,,
109,,isi,,html-keyboard-response,109,306590,0.0-1.0-19.0-0.0-2.0,0,0,58537,,,,,,,,,,,,,,,,,,,,,,,,,,,,,,,,,,,,,,87.5,2.0,,,,,,
110,,no_response,,html-keyboard-response,110,307598,0.0-1.0-19.0-0.0-4.0-0.0,0,0,58537,,,,,,,,,,,,,,,,,,,,,,,,,,,,,,,,,,,,,,88.5,1.0,,,,,,
111,,iti,,html-keyboard-response,111,311146,0.0-1.0-19.0-0.0-5.0,0,0,58537,,,,,,,,,,,,,,,,,,,,,,,,,,,,,,,,,,,,,,92.0,3.5,,,,,,
112,,choice,,html-keyboard-response,112,311335,0.0-1.0-19.0-0.1-0.1,0,0,58537,,180.0,,,75.0,17.0,17.0,2000.0,3500.0,0.0,1.0,0.0,20-60,,0.0,trumpet,lipstick,20.0,60.0,trumpet1,lipstick4,40.0,60.0,JUPITER+TROMPETTE+606MRL.JPG,P145703_hero.jpg,/static/Category_learning/Stimuli/Experimental_stims/trumpet/JUPITER+TROMPETTE+606MRL.JPG,/static/Category_learning/Stimuli/Experimental_stims/lipstick/P145703_hero.jpg,0.0,lipstick,trumpet,60.0,20.0,lipstick4,trumpet1,60.0,40.0,0.0,92.18,0.18,,,,,,
113,,confirmation,,html-keyboard-response,113,312664,0.0-1.0-19.0-0.1-1.1-0.1,0,0,58537,,,,,,17.0,,,,,,,,,,,,,,,,,,,,,,,,,,,,,,,,93.5,1.32,,,,,,
114,,isi,,html-keyboard-response,114,314673,0.0-1.0-19.0-0.1-2.1,0,0,58537,,,,,,,,,,,,,,,,,,,,,,,,,,,,,,,,,,,,,,95.5,2.0,,,,,,
115,,feedback,,html-keyboard-response,115,315681,0.0-1.0-19.0-0.1-3.1-0.1,0,0,58537,,,,,,17.0,,,,,,,,,,,,,,,,,,,,,,,,,,,,,,,,96.5,1.0,,,,,,
116,,iti,,html-keyboard-response,116,317188,0.0-1.0-19.0-0.1-5.1,0,0,58537,,,,,,,,,,,,,,,,,,,,,,,,,,,,,,,,,,,,,,98.0,1.5,,,,,,
117,,choice,,html-keyboard-response,117,317495,0.0-1.0-20.0-0.0-0.0,0,0,58537,,296.0,,,75.0,18.0,18.0,1500.0,2000.0,0.0,1.0,1.0,20-80,0.0,,seashell,tape,80.0,20.0,seashell3,tape13,80.0,20.0,coquillage.jpg,920152.jpg,/static/Category_learning/Stimuli/Experimental_stims/seashell/coquillage.jpg,/static/Category_learning/Stimuli/Experimental_stims/tape/920152.jpg,0.0,tape,seashell,20.0,80.0,tape13,seashell3,20.0,80.0,0.0,98.296,0.296,,,,,,
118,,confirmation,,html-keyboard-response,118,318709,0.0-1.0-20.0-0.0-1.0-0.0,0,0,58537,,,,,,18.0,,,,,,,,,,,,,,,,,,,,,,,,,,,,,,,,99.5,1.204,,,,,,
119,,isi,,html-keyboard-response,119,320216,0.0-1.0-20.0-0.0-2.0,0,0,58537,,,,,,,,,,,,,,,,,,,,,,,,,,,,,,,,,,,,,,101.0,1.5,,,,,,
120,,feedback,,html-keyboard-response,120,321224,0.0-1.0-20.0-0.0-3.0-0.0,0,0,58537,,,,,,18.0,,,,,,,,,,,,,,,,,,,,,,,,,,,,,,,,102.0,1.0,,,,,,
121,,iti,,html-keyboard-response,121,323231,0.0-1.0-20.0-0.0-5.0,0,0,58537,,,,,,,,,,,,,,,,,,,,,,,,,,,,,,,,,,,,,,104.0,2.0,,,,,,
122,,choice,,html-keyboard-response,122,324394,0.0-1.0-21.0-0.0-0.0,0,0,58537,,1152.0,,,75.0,19.0,19.0,1500.0,1000.0,0.0,1.0,0.0,20-60,,0.0,train,motorcycle,20.0,60.0,train6,motorcycle10,0.0,40.0,train9.jpg,motorcycle17.jpg,/static/Category_learning/Stimuli/Experimental_stims/train/train9.jpg,/static/Category_learning/Stimuli/Experimental_stims/motorcycle/motorcycle17.jpg,0.0,motorcycle,train,60.0,20.0,motorcycle10,train6,40.0,0.0,0.0,105.152,1.152,,,,,,
123,,confirmation,,html-keyboard-response,123,324749,0.0-1.0-21.0-0.0-1.0-0.0,0,0,58537,,,,,,19.0,,,,,,,,,,,,,,,,,,,,,,,,,,,,,,,,105.5,0.348,,,,,,
124,,isi,,html-keyboard-response,124,326257,0.0-1.0-21.0-0.0-2.0,0,0,58537,,,,,,,,,,,,,,,,,,,,,,,,,,,,,,,,,,,,,,107.0,1.5,,,,,,
125,,feedback,,html-keyboard-response,125,327267,0.0-1.0-21.0-0.0-3.0-0.0,0,0,58537,,,,,,19.0,,,,,,,,,,,,,,,,,,,,,,,,,,,,,,,,108.0,1.0,,,,,,
126,,iti,,html-keyboard-response,126,328273,0.0-1.0-21.0-0.0-5.0,0,0,58537,,,,,,,,,,,,,,,,,,,,,,,,,,,,,,,,,,,,,,109.0,1.0,,,,,,
127,,choice,,html-keyboard-response,127,328285,0.0-1.0-22.0-0.0-0.0,0,0,58537,,1.0,,,75.0,20.0,20.0,1000.0,3000.0,0.0,1.0,0.0,40-60,,0.0,dresser,license plate,40.0,60.0,dresser9,license plate9,20.0,80.0,ADRESSER.jpg,nm-dhg089.jpg,/static/Category_learning/Stimuli/Experimental_stims/dresser/ADRESSER.jpg,/static/Category_learning/Stimuli/Experimental_stims/license plate/nm-dhg089.jpg,0.0,license plate,dresser,60.0,40.0,license plate9,dresser9,80.0,20.0,0.0,109.001,0.001,,,,,,
128,,confirmation,,html-keyboard-response,128,329792,0.0-1.0-22.0-0.0-1.0-0.0,0,0,58537,,,,,,20.0,,,,,,,,,,,,,,,,,,,,,,,,,,,,,,,,110.5,1.499,,,,,,
129,,isi,,html-keyboard-response,129,330799,0.0-1.0-22.0-0.0-2.0,0,0,58537,,,,,,,,,,,,,,,,,,,,,,,,,,,,,,,,,,,,,,111.5,1.0,,,,,,
130,,feedback,,html-keyboard-response,130,331804,0.0-1.0-22.0-0.0-3.0-0.0,0,0,58537,,,,,,20.0,,,,,,,,,,,,,,,,,,,,,,,,,,,,,,,,112.5,1.0,,,,,,
131,,iti,,html-keyboard-response,131,334811,0.0-1.0-22.0-0.0-5.0,0,0,58537,,,,,,,,,,,,,,,,,,,,,,,,,,,,,,,,,,,,,,115.5,3.0,,,,,,
132,,choice,,html-keyboard-response,132,334885,0.0-1.0-23.0-0.0-0.0,0,0,58537,,65.0,,,75.0,21.0,21.0,2000.0,1000.0,0.0,1.0,0.0,40-80,,1.0,seashell,desk,80.0,40.0,seashell4,desk3,60.0,60.0,seashell.jpg,D-1 Four drawers desk Elm 64x23x33.jpg,/static/Category_learning/Stimuli/Experimental_stims/seashell/seashell.jpg,/static/Category_learning/Stimuli/Experimental_stims/desk/D-1 Four drawers desk Elm 64x23x33.jpg,0.0,desk,seashell,40.0,80.0,desk3,seashell4,60.0,60.0,0.0,115.565,0.065,,,,,,
133,,confirmation,,html-keyboard-response,133,336332,0.0-1.0-23.0-0.0-1.0-0.0,0,0,58537,,,,,,21.0,,,,,,,,,,,,,,,,,,,,,,,,,,,,,,,,117.0,1.435,,,,,,
134,,isi,,html-keyboard-response,134,338339,0.0-1.0-23.0-0.0-2.0,0,0,58537,,,,,,,,,,,,,,,,,,,,,,,,,,,,,,,,,,,,,,119.0,2.0,,,,,,
135,,feedback,,html-keyboard-response,135,339348,0.0-1.0-23.0-0.0-3.0-0.0,0,0,58537,,,,,,21.0,,,,,,,,,,,,,,,,,,,,,,,,,,,,,,,,120.0,1.0,,,,,,
136,,iti,,html-keyboard-response,136,340357,0.0-1.0-23.0-0.0-5.0,0,0,58537,,,,,,,,,,,,,,,,,,,,,,,,,,,,,,,,,,,,,,121.0,1.0,,,,,,
137,,choice,,html-keyboard-response,137,340709,0.0-1.0-24.0-0.0-0.0,0,0,58537,,345.0,,,75.0,22.0,22.0,1000.0,3500.0,0.0,1.0,0.0,20-40,,1.0,bench,yarn,40.0,20.0,bench5,yarn5,20.0,0.0,APARKBEN8.jpg,Aballofyarn14.jpg,/static/Category_learning/Stimuli/Experimental_stims/bench/APARKBEN8.jpg,/static/Category_learning/Stimuli/Experimental_stims/yarn/Aballofyarn14.jpg,0.0,yarn,bench,20.0,40.0,yarn5,bench5,0.0,20.0,0.0,121.345,0.345,,,,,,
138,,confirmation,,html-keyboard-response,138,341873,0.0-1.0-24.0-0.0-1.0-0.0,0,0,58537,,,,,,22.0,,,,,,,,,,,,,,,,,,,,,,,,,,,,,,,,122.5,1.155,,,,,,
139,,isi,,html-keyboard-response,139,342879,0.0-1.0-24.0-0.0-2.0,0,0,58537,,,,,,,,,,,,,,,,,,,,,,,,,,,,,,,,,,,,,,123.5,1.0,,,,,,
140,,feedback,,html-keyboard-response,140,343887,0.0-1.0-24.0-0.0-3.0-0.0,0,0,58537,,,,,,22.0,,,,,,,,,,,,,,,,,,,,,,,,,,,,,,,,124.5,1.0,,,,,,
141,,iti,,html-keyboard-response,141,347395,0.0-1.0-24.0-0.0-5.0,0,0,58537,,,,,,,,,,,,,,,,,,,,,,,,,,,,,,,,,,,,,,128.0,3.5,,,,,,
142,,choice,,html-keyboard-response,142,347579,0.0-1.0-25.0-0.0-0.0,0,0,58537,,177.0,,,68.0,23.0,23.0,2000.0,1500.0,0.0,1.0,0.0,60-80,,1.0,necklace,hammer,80.0,60.0,necklace6,hammer6,100.0,80.0,Agoldnecklace.jpg,hammer03.jpg,/static/Category_learning/Stimuli/Experimental_stims/necklace/Agoldnecklace.jpg,/static/Category_learning/Stimuli/Experimental_stims/hammer/hammer03.jpg,1.0,necklace,hammer,80.0,60.0,necklace6,hammer6,100.0,80.0,0.0,128.177,0.177,,,,,,
143,,confirmation,,html-keyboard-response,143,348911,0.0-1.0-25.0-0.0-1.0-0.0,0,0,58537,,,,,,23.0,,,,,,,,,,,,,,,,,,,,,,,,,,,,,,,,129.5,1.323,,,,,,
144,,isi,,html-keyboard-response,144,350917,0.0-1.0-25.0-0.0-2.0,0,0,58537,,,,,,,,,,,,,,,,,,,,,,,,,,,,,,,,,,,,,,131.5,2.0,,,,,,
145,,feedback,,html-keyboard-response,145,351924,0.0-1.0-25.0-0.0-3.0-0.0,0,0,58537,,,,,,23.0,,,,,,,,,,,,,,,,,,,,,,,,,,,,,,,,132.5,1.0,,,,,,
146,,iti,,html-keyboard-response,146,353434,0.0-1.0-25.0-0.0-5.0,0,0,58537,,,,,,,,,,,,,,,,,,,,,,,,,,,,,,,,,,,,,,134.0,1.5,,,,,,
147,,choice,,html-keyboard-response,147,353483,0.0-1.0-26.0-0.0-0.0,0,0,58537,,42.0,,,75.0,24.0,24.0,3500.0,1500.0,0.0,1.0,0.0,20-20,,,watch,yarn,20.0,20.0,watch4,yarn9,40.0,40.0,B000EI2NBW.01._AA280_SCLZZZZZZZ_.jpg,Aballofyarn26.jpg,/static/Category_learning/Stimuli/Experimental_stims/watch/B000EI2NBW.01._AA280_SCLZZZZZZZ_.jpg,/static/Category_learning/Stimuli/Experimental_stims/yarn/Aballofyarn26.jpg,0.0,yarn,watch,20.0,20.0,yarn9,watch4,40.0,40.0,0.0,134.042,0.042,,,,,,
148,,confirmation,,html-keyboard-response,148,354950,0.0-1.0-26.0-0.0-1.0-0.0,0,0,58537,,,,,,24.0,,,,,,,,,,,,,,,,,,,,,,,,,,,,,,,,135.5,1.458,,,,,,
149,,isi,,html-keyboard-response,149,358456,0.0-1.0-26.0-0.0-2.0,0,0,58537,,,,,,,,,,,,,,,,,,,,,,,,,,,,,,,,,,,,,,139.0,3.5,,,,,,
150,,feedback,,html-keyboard-response,150,359463,0.0-1.0-26.0-0.0-3.0-0.0,0,0,58537,,,,,,24.0,,,,,,,,,,,,,,,,,,,,,,,,,,,,,,,,140.0,1.0,,,,,,
151,,iti,,html-keyboard-response,151,360969,0.0-1.0-26.0-0.0-5.0,0,0,58537,,,,,,,,,,,,,,,,,,,,,,,,,,,,,,,,,,,,,,141.5,1.5,,,,,,
152,,choice,,html-keyboard-response,152,361127,0.0-1.0-27.0-0.0-0.0,0,0,58537,,151.0,,,68.0,25.0,25.0,1000.0,1000.0,0.0,1.0,0.0,40-60,,1.0,motorcycle,door knob,60.0,40.0,motorcycle15,door knob1,80.0,40.0,2006-Buell-LightningXB12Sa.jpg,Brass_Door_Handle.jpg,/static/Category_learning/Stimuli/Experimental_stims/motorcycle/2006-Buell-LightningXB12Sa.jpg,/static/Category_learning/Stimuli/Experimental_stims/door knob/Brass_Door_Handle.jpg,1.0,motorcycle,door knob,60.0,40.0,motorcycle15,door knob1,80.0,40.0,0.0,141.651,0.151,,,,,,
153,,confirmation,,html-keyboard-response,153,362484,0.0-1.0-27.0-0.0-1.0-0.0,0,0,58537,,,,,,25.0,,,,,,,,,,,,,,,,,,,,,,,,,,,,,,,,143.0,1.349,,,,,,
154,,isi,,html-keyboard-response,154,363489,0.0-1.0-27.0-0.0-2.0,0,0,58537,,,,,,,,,,,,,,,,,,,,,,,,,,,,,,,,,,,,,,144.0,1.0,,,,,,
155,,feedback,,html-keyboard-response,155,364495,0.0-1.0-27.0-0.0-3.0-0.0,0,0,58537,,,,,,25.0,,,,,,,,,,,,,,,,,,,,,,,,,,,,,,,,145.0,1.0,,,,,,
156,,iti,,html-keyboard-response,156,365503,0.0-1.0-27.0-0.0-5.0,0,0,58537,,,,,,,,,,,,,,,,,,,,,,,,,,,,,,,,,,,,,,146.0,1.0,,,,,,
157,,choice,,html-keyboard-response,157,366105,0.0-1.0-28.0-0.0-0.0,0,0,58537,,594.0,,,75.0,26.0,26.0,1000.0,1000.0,0.0,1.0,0.0,40-60,,1.0,hammer,door knob,60.0,40.0,hammer8,door knob10,40.0,20.0,ct1006_hammer.jpg,c02a578d-c6cc-44ca-8dd2-de8901e30bd7_4.jpg,/static/Category_learning/Stimuli/Experimental_stims/hammer/ct1006_hammer.jpg,/static/Category_learning/Stimuli/Experimental_stims/door knob/c02a578d-c6cc-44ca-8dd2-de8901e30bd7_4.jpg,0.0,door knob,hammer,40.0,60.0,door knob10,hammer8,20.0,40.0,0.0,146.594,0.594,,,,,,
158,,confirmation,,html-keyboard-response,158,367028,0.0-1.0-28.0-0.0-1.0-0.0,0,0,58537,,,,,,26.0,,,,,,,,,,,,,,,,,,,,,,,,,,,,,,,,147.5,0.906,,,,,,
159,,isi,,html-keyboard-response,159,368036,0.0-1.0-28.0-0.0-2.0,0,0,58537,,,,,,,,,,,,,,,,,,,,,,,,,,,,,,,,,,,,,,148.5,1.0,,,,,,
160,,feedback,,html-keyboard-response,160,369045,0.0-1.0-28.0-0.0-3.0-0.0,0,0,58537,,,,,,26.0,,,,,,,,,,,,,,,,,,,,,,,,,,,,,,,,149.5,1.0,,,,,,
161,,iti,,html-keyboard-response,161,370053,0.0-1.0-28.0-0.0-5.0,0,0,58537,,,,,,,,,,,,,,,,,,,,,,,,,,,,,,,,,,,,,,150.5,1.0,,,,,,
162,,choice,,html-keyboard-response,162,370357,0.0-1.0-29.0-0.0-0.0,0,0,58537,,297.0,,,68.0,27.0,27.0,1500.0,1000.0,0.0,1.0,0.0,20-80,,1.0,small table,vase,80.0,20.0,small table7,vase4,80.0,40.0,ATABLE89.jpg,Avase111.jpg,/static/Category_learning/Stimuli/Experimental_stims/small table/ATABLE89.jpg,/static/Category_learning/Stimuli/Experimental_stims/vase/Avase111.jpg,1.0,small table,vase,80.0,20.0,small table7,vase4,80.0,40.0,0.0,150.797,0.297,,,,,,
163,,confirmation,,html-keyboard-response,163,371572,0.0-1.0-29.0-0.0-1.0-0.0,0,0,58537,,,,,,27.0,,,,,,,,,,,,,,,,,,,,,,,,,,,,,,,,152.0,1.203,,,,,,
164,,isi,,html-keyboard-response,164,373084,0.0-1.0-29.0-0.0-2.0,0,0,58537,,,,,,,,,,,,,,,,,,,,,,,,,,,,,,,,,,,,,,153.5,1.5,,,,,,
165,,feedback,,html-keyboard-response,165,374092,0.0-1.0-29.0-0.0-3.0-0.0,0,0,58537,,,,,,27.0,,,,,,,,,,,,,,,,,,,,,,,,,,,,,,,,154.5,1.0,,,,,,
166,,iti,,html-keyboard-response,166,375098,0.0-1.0-29.0-0.0-5.0,0,0,58537,,,,,,,,,,,,,,,,,,,,,,,,,,,,,,,,,,,,,,155.5,1.0,,,,,,
167,,choice,,html-keyboard-response,167,375430,0.0-1.0-30.0-0.0-0.0,0,0,58537,,325.0,,,68.0,28.0,28.0,1000.0,1000.0,0.0,1.0,1.0,60-60,1.0,,motorcycle,motorcycle,60.0,60.0,motorcycle10,motorcycle15,40.0,80.0,motorcycle17.jpg,2006-Buell-LightningXB12Sa.jpg,/static/Category_learning/Stimuli/Experimental_stims/motorcycle/motorcycle17.jpg,/static/Category_learning/Stimuli/Experimental_stims/motorcycle/2006-Buell-LightningXB12Sa.jpg,1.0,motorcycle,motorcycle,60.0,60.0,motorcycle10,motorcycle15,40.0,80.0,0.0,155.825,0.325,,,,,,
168,,confirmation,,html-keyboard-response,168,376613,0.0-1.0-30.0-0.0-1.0-0.0,0,0,58537,,,,,,28.0,,,,,,,,,,,,,,,,,,,,,,,,,,,,,,,,157.0,1.175,,,,,,
169,,isi,,html-keyboard-response,169,377620,0.0-1.0-30.0-0.0-2.0,0,0,58537,,,,,,,,,,,,,,,,,,,,,,,,,,,,,,,,,,,,,,158.0,1.0,,,,,,
170,,feedback,,html-keyboard-response,170,378628,0.0-1.0-30.0-0.0-3.0-0.0,0,0,58537,,,,,,28.0,,,,,,,,,,,,,,,,,,,,,,,,,,,,,,,,159.0,1.0,,,,,,
171,,iti,,html-keyboard-response,171,379633,0.0-1.0-30.0-0.0-5.0,0,0,58537,,,,,,,,,,,,,,,,,,,,,,,,,,,,,,,,,,,,,,160.0,1.0,,,,,,
172,,choice,,html-keyboard-response,172,379724,0.0-1.0-31.0-0.0-0.0,0,0,58537,,84.0,,,68.0,29.0,29.0,3500.0,1000.0,0.0,1.0,0.0,40-40,,,fan,bench,40.0,40.0,fan5,bench12,20.0,20.0,Table_Fan.jpg,22927976.thl.jpg,/static/Category_learning/Stimuli/Experimental_stims/fan/Table_Fan.jpg,/static/Category_learning/Stimuli/Experimental_stims/bench/22927976.thl.jpg,1.0,fan,bench,40.0,40.0,fan5,bench12,20.0,20.0,0.0,160.084,0.084,,,,,,
173,,confirmation,,html-keyboard-response,173,381149,0.0-1.0-31.0-0.0-1.0-0.0,0,0,58537,,,,,,29.0,,,,,,,,,,,,,,,,,,,,,,,,,,,,,,,,161.5,1.416,,,,,,
174,,isi,,html-keyboard-response,174,384656,0.0-1.0-31.0-0.0-2.0,0,0,58537,,,,,,,,,,,,,,,,,,,,,,,,,,,,,,,,,,,,,,165.0,3.5,,,,,,
175,,feedback,,html-keyboard-response,175,385665,0.0-1.0-31.0-0.0-3.0-0.0,0,0,58537,,,,,,29.0,,,,,,,,,,,,,,,,,,,,,,,,,,,,,,,,166.0,1.0,,,,,,
176,,iti,,html-keyboard-response,176,386672,0.0-1.0-31.0-0.0-5.0,0,0,58537,,,,,,,,,,,,,,,,,,,,,,,,,,,,,,,,,,,,,,167.0,1.0,,,,,,
177,,choice,,html-keyboard-response,177,386821,0.0-1.0-32.0-0.0-0.0,0,0,58537,,142.0,,,68.0,30.0,30.0,1000.0,3000.0,0.0,1.0,1.0,60-60,1.0,,license plate,license plate,60.0,60.0,license plate2,license plate9,60.0,80.0,ny-u93-8zs.jpg,nm-dhg089.jpg,/static/Category_learning/Stimuli/Experimental_stims/license plate/ny-u93-8zs.jpg,/static/Category_learning/Stimuli/Experimental_stims/license plate/nm-dhg089.jpg,1.0,license plate,license plate,60.0,60.0,license plate2,license plate9,60.0,80.0,0.0,167.142,0.142,,,,,,
178,,confirmation,,html-keyboard-response,178,388186,0.0-1.0-32.0-0.0-1.0-0.0,0,0,58537,,,,,,30.0,,,,,,,,,,,,,,,,,,,,,,,,,,,,,,,,168.5,1.358,,,,,,
179,,isi,,html-keyboard-response,179,389196,0.0-1.0-32.0-0.0-2.0,0,0,58537,,,,,,,,,,,,,,,,,,,,,,,,,,,,,,,,,,,,,,169.5,1.0,,,,,,
180,,feedback,,html-keyboard-response,180,390214,0.0-1.0-32.0-0.0-3.0-0.0,0,0,58537,,,,,,30.0,,,,,,,,,,,,,,,,,,,,,,,,,,,,,,,,170.5,1.0,,,,,,
181,,iti,,html-keyboard-response,181,393223,0.0-1.0-32.0-0.0-5.0,0,0,58537,,,,,,,,,,,,,,,,,,,,,,,,,,,,,,,,,,,,,,173.5,3.0,,,,,,
182,,choice,,html-keyboard-response,182,393238,0.0-1.0-33.0-0.0-0.0,0,0,58537,,8.0,,,68.0,31.0,31.0,1500.0,1500.0,0.0,1.0,0.0,80-80,,,sofa,patio lounge chair,80.0,80.0,sofa15,patio lounge chair9,100.0,80.0,APEACHLOV.jpg,43-3.jpg,/static/Category_learning/Stimuli/Experimental_stims/sofa/APEACHLOV.jpg,/static/Category_learning/Stimuli/Experimental_stims/patio lounge chair/43-3.jpg,1.0,sofa,patio lounge chair,80.0,80.0,sofa15,patio lounge chair9,100.0,80.0,0.0,173.508,0.008,,,,,,
183,,confirmation,,html-keyboard-response,183,394738,0.0-1.0-33.0-0.0-1.0-0.0,0,0,58537,,,,,,31.0,,,,,,,,,,,,,,,,,,,,,,,,,,,,,,,,175.0,1.492,,,,,,
184,,isi,,html-keyboard-response,184,396246,0.0-1.0-33.0-0.0-2.0,0,0,58537,,,,,,,,,,,,,,,,,,,,,,,,,,,,,,,,,,,,,,176.5,1.5,,,,,,
185,,feedback,,html-keyboard-response,185,397254,0.0-1.0-33.0-0.0-3.0-0.0,0,0,58537,,,,,,31.0,,,,,,,,,,,,,,,,,,,,,,,,,,,,,,,,177.5,1.0,,,,,,
186,,iti,,html-keyboard-response,186,398761,0.0-1.0-33.0-0.0-5.0,0,0,58537,,,,,,,,,,,,,,,,,,,,,,,,,,,,,,,,,,,,,,179.0,1.5,,,,,,
187,,choice,,html-keyboard-response,187,398928,0.0-1.0-34.0-0.0-0.0,0,0,58537,,159.0,,,75.0,32.0,32.0,1000.0,1000.0,0.0,1.0,0.0,20-80,,1.0,necklace,vase,80.0,20.0,necklace1,vase12,100.0,0.0,26443173.thl.jpg,Abluevase2.jpg,/static/Category_learning/Stimuli/Experimental_stims/necklace/26443173.thl.jpg,/static/Category_learning/Stimuli/Experimental_stims/vase/Abluevase2.jpg,0.0,vase,necklace,20.0,80.0,vase12,necklace1,0.0,100.0,0.0,179.159,0.159,,,,,,
188,,confirmation,,html-keyboard-response,188,400281,0.0-1.0-34.0-0.0-1.0-0.0,0,0,58537,,,,,,32.0,,,,,,,,,,,,,,,,,,,,,,,,,,,,,,,,180.5,1.341,,,,,,
189,,isi,,html-keyboard-response,189,401289,0.0-1.0-34.0-0.0-2.0,0,0,58537,,,,,,,,,,,,,,,,,,,,,,,,,,,,,,,,,,,,,,181.5,1.0,,,,,,
190,,feedback,,html-keyboard-response,190,402297,0.0-1.0-34.0-0.0-3.0-0.0,0,0,58537,,,,,,32.0,,,,,,,,,,,,,,,,,,,,,,,,,,,,,,,,182.5,1.0,,,,,,
191,,iti,,html-keyboard-response,191,403306,0.0-1.0-34.0-0.0-5.0,0,0,58537,,,,,,,,,,,,,,,,,,,,,,,,,,,,,,,,,,,,,,183.5,1.0,,,,,,
192,,choice,,html-keyboard-response,192,403849,0.0-1.0-35.0-0.0-0.0,0,0,58537,,521.0,,,68.0,33.0,33.0,3500.0,1000.0,0.0,1.0,0.0,40-80,,1.0,nail polish,desk,80.0,40.0,nail polish14,desk14,80.0,20.0,38031405.JPG,26419960.thl.jpg,/static/Category_learning/Stimuli/Experimental_stims/nail polish/38031405.JPG,/static/Category_learning/Stimuli/Experimental_stims/desk/26419960.thl.jpg,1.0,nail polish,desk,80.0,40.0,nail polish14,desk14,80.0,20.0,0.0,184.021,0.521,,,,,,
193,,confirmation,,html-keyboard-response,193,404837,0.0-1.0-35.0-0.0-1.0-0.0,0,0,58537,,,,,,33.0,,,,,,,,,,,,,,,,,,,,,,,,,,,,,,,,185.0,0.979,,,,,,
194,,isi,,html-keyboard-response,194,408344,0.0-1.0-35.0-0.0-2.0,0,0,58537,,,,,,,,,,,,,,,,,,,,,,,,,,,,,,,,,,,,,,188.5,3.5,,,,,,
195,,feedback,,html-keyboard-response,195,409351,0.0-1.0-35.0-0.0-3.0-0.0,0,0,58537,,,,,,33.0,,,,,,,,,,,,,,,,,,,,,,,,,,,,,,,,189.5,1.0,,,,,,
196,,iti,,html-keyboard-response,196,410357,0.0-1.0-35.0-0.0-5.0,0,0,58537,,,,,,,,,,,,,,,,,,,,,,,,,,,,,,,,,,,,,,190.5,1.0,,,,,,
197,,choice,,html-keyboard-response,197,410865,0.0-1.0-36.0-0.0-0.0,0,0,58537,,493.0,,,68.0,34.0,34.0,1000.0,1000.0,0.0,1.0,1.0,20-20,1.0,,yarn,yarn,20.0,20.0,yarn5,yarn9,0.0,40.0,Aballofyarn14.jpg,Aballofyarn26.jpg,/static/Category_learning/Stimuli/Experimental_stims/yarn/Aballofyarn14.jpg,/static/Category_learning/Stimuli/Experimental_stims/yarn/Aballofyarn26.jpg,1.0,yarn,yarn,20.0,20.0,yarn5,yarn9,0.0,40.0,0.0,190.993,0.493,,,,,,
198,,confirmation,,html-keyboard-response,198,411887,0.0-1.0-36.0-0.0-1.0-0.0,0,0,58537,,,,,,34.0,,,,,,,,,,,,,,,,,,,,,,,,,,,,,,,,192.0,1.007,,,,,,
199,,isi,,html-keyboard-response,199,412893,0.0-1.0-36.0-0.0-2.0,0,0,58537,,,,,,,,,,,,,,,,,,,,,,,,,,,,,,,,,,,,,,193.0,1.0,,,,,,
200,,feedback,,html-keyboard-response,200,413902,0.0-1.0-36.0-0.0-3.0-0.0,0,0,58537,,,,,,34.0,,,,,,,,,,,,,,,,,,,,,,,,,,,,,,,,194.0,1.0,,,,,,
201,,iti,,html-keyboard-response,201,414908,0.0-1.0-36.0-0.0-5.0,0,0,58537,,,,,,,,,,,,,,,,,,,,,,,,,,,,,,,,,,,,,,195.0,1.0,,,,,,
202,,choice,,html-keyboard-response,202,415134,0.0-1.0-37.0-0.0-0.0,0,0,58537,,220.0,,,68.0,35.0,35.0,1000.0,1500.0,0.0,1.0,1.0,20-40,0.0,,vase,door knob,20.0,40.0,vase12,door knob10,0.0,20.0,Abluevase2.jpg,c02a578d-c6cc-44ca-8dd2-de8901e30bd7_4.jpg,/static/Category_learning/Stimuli/Experimental_stims/vase/Abluevase2.jpg,/static/Category_learning/Stimuli/Experimental_stims/door knob/c02a578d-c6cc-44ca-8dd2-de8901e30bd7_4.jpg,1.0,vase,door knob,20.0,40.0,vase12,door knob10,0.0,20.0,0.0,195.22,0.22,,,,,,
203,,confirmation,,html-keyboard-response,203,416422,0.0-1.0-37.0-0.0-1.0-0.0,0,0,58537,,,,,,35.0,,,,,,,,,,,,,,,,,,,,,,,,,,,,,,,,196.5,1.28,,,,,,
204,,isi,,html-keyboard-response,204,417427,0.0-1.0-37.0-0.0-2.0,0,0,58537,,,,,,,,,,,,,,,,,,,,,,,,,,,,,,,,,,,,,,197.5,1.0,,,,,,
205,,feedback,,html-keyboard-response,205,418436,0.0-1.0-37.0-0.0-3.0-0.0,0,0,58537,,,,,,35.0,,,,,,,,,,,,,,,,,,,,,,,,,,,,,,,,198.5,1.0,,,,,,
206,,iti,,html-keyboard-response,206,419943,0.0-1.0-37.0-0.0-5.0,0,0,58537,,,,,,,,,,,,,,,,,,,,,,,,,,,,,,,,,,,,,,200.0,1.5,,,,,,
207,,choice,,html-keyboard-response,207,420592,0.0-1.0-38.0-0.0-0.0,0,0,58537,,643.0,,,68.0,36.0,36.0,3000.0,3500.0,0.0,1.0,1.0,40-80,0.0,,desk,pen,40.0,80.0,desk3,pen12,60.0,100.0,D-1 Four drawers desk Elm 64x23x33.jpg,pen02.jpg,/static/Category_learning/Stimuli/Experimental_stims/desk/D-1 Four drawers desk Elm 64x23x33.jpg,/static/Category_learning/Stimuli/Experimental_stims/pen/pen02.jpg,1.0,desk,pen,40.0,80.0,desk3,pen12,60.0,100.0,0.0,200.643,0.643,,,,,,
208,,confirmation,,html-keyboard-response,208,421458,0.0-1.0-38.0-0.0-1.0-0.0,0,0,58537,,,,,,36.0,,,,,,,,,,,,,,,,,,,,,,,,,,,,,,,,201.5,0.857,,,,,,
209,,isi,,html-keyboard-response,209,424466,0.0-1.0-38.0-0.0-2.0,0,0,58537,,,,,,,,,,,,,,,,,,,,,,,,,,,,,,,,,,,,,,204.5,3.0,,,,,,
210,,feedback,,html-keyboard-response,210,425473,0.0-1.0-38.0-0.0-3.0-0.0,0,0,58537,,,,,,36.0,,,,,,,,,,,,,,,,,,,,,,,,,,,,,,,,205.5,1.0,,,,,,
211,,iti,,html-keyboard-response,211,428980,0.0-1.0-38.0-0.0-5.0,0,0,58537,,,,,,,,,,,,,,,,,,,,,,,,,,,,,,,,,,,,,,209.0,3.5,,,,,,
212,,choice,,html-keyboard-response,212,429442,0.0-1.0-39.0-0.0-0.0,0,0,58537,,455.0,,,75.0,37.0,37.0,2000.0,1000.0,0.0,1.0,0.0,40-80,,1.0,necklace,flashlight,80.0,40.0,necklace10,flashlight6,60.0,40.0,necklascenew03.jpg,Flashlight.jpg,/static/Category_learning/Stimuli/Experimental_stims/necklace/necklascenew03.jpg,/static/Category_learning/Stimuli/Experimental_stims/flashlight/Flashlight.jpg,0.0,flashlight,necklace,40.0,80.0,flashlight6,necklace10,40.0,60.0,0.0,209.455,0.455,,,,,,
213,,confirmation,,html-keyboard-response,213,430498,0.0-1.0-39.0-0.0-1.0-0.0,0,0,58537,,,,,,37.0,,,,,,,,,,,,,,,,,,,,,,,,,,,,,,,,210.5,1.045,,,,,,
214,,isi,,html-keyboard-response,214,432505,0.0-1.0-39.0-0.0-2.0,0,0,58537,,,,,,,,,,,,,,,,,,,,,,,,,,,,,,,,,,,,,,212.5,2.0,,,,,,
215,,feedback,,html-keyboard-response,215,433534,0.0-1.0-39.0-0.0-3.0-0.0,0,0,58537,,,,,,37.0,,,,,,,,,,,,,,,,,,,,,,,,,,,,,,,,213.5,1.0,,,,,,
216,,iti,,html-keyboard-response,216,434541,0.0-1.0-39.0-0.0-5.0,0,0,58537,,,,,,,,,,,,,,,,,,,,,,,,,,,,,,,,,,,,,,214.5,1.0,,,,,,
217,,choice,,html-keyboard-response,217,434564,0.0-1.0-40.0-0.0-0.0,0,0,58537,,17.0,,,68.0,38.0,38.0,1000.0,1000.0,0.0,1.0,1.0,60-80,0.0,,hammer,sofa,60.0,80.0,hammer2,sofa15,40.0,100.0,hammer04.jpg,APEACHLOV.jpg,/static/Category_learning/Stimuli/Experimental_stims/hammer/hammer04.jpg,/static/Category_learning/Stimuli/Experimental_stims/sofa/APEACHLOV.jpg,1.0,hammer,sofa,60.0,80.0,hammer2,sofa15,40.0,100.0,0.0,214.517,0.017,,,,,,
218,,confirmation,,html-keyboard-response,218,436056,0.0-1.0-40.0-0.0-1.0-0.0,0,0,58537,,,,,,38.0,,,,,,,,,,,,,,,,,,,,,,,,,,,,,,,,216.0,1.483,,,,,,
219,,isi,,html-keyboard-response,219,437064,0.0-1.0-40.0-0.0-2.0,0,0,58537,,,,,,,,,,,,,,,,,,,,,,,,,,,,,,,,,,,,,,217.0,1.0,,,,,,
220,,feedback,,html-keyboard-response,220,438071,0.0-1.0-40.0-0.0-3.0-0.0,0,0,58537,,,,,,38.0,,,,,,,,,,,,,,,,,,,,,,,,,,,,,,,,218.0,1.0,,,,,,
221,,iti,,html-keyboard-response,221,439081,0.0-1.0-40.0-0.0-5.0,0,0,58537,,,,,,,,,,,,,,,,,,,,,,,,,,,,,,,,,,,,,,219.0,1.0,,,,,,
222,,choice,,html-keyboard-response,222,439122,0.0-1.0-41.0-0.0-0.0,0,0,58537,,34.0,,,75.0,39.0,39.0,1000.0,1500.0,0.0,1.0,0.0,20-60,,1.0,hat,stool,60.0,20.0,hat1,stool8,60.0,0.0,AGREENHAT.jpg,ASTOOL33.jpg,/static/Category_learning/Stimuli/Experimental_stims/hat/AGREENHAT.jpg,/static/Category_learning/Stimuli/Experimental_stims/stool/ASTOOL33.jpg,0.0,stool,hat,20.0,60.0,stool8,hat1,0.0,60.0,0.0,219.034,0.034,,,,,,
223,,confirmation,,html-keyboard-response,223,440596,0.0-1.0-41.0-0.0-1.0-0.0,0,0,58537,,,,,,39.0,,,,,,,,,,,,,,,,,,,,,,,,,,,,,,,,220.5,1.466,,,,,,
224,,isi,,html-keyboard-response,224,441601,0.0-1.0-41.0-0.0-2.0,0,0,58537,,,,,,,,,,,,,,,,,,,,,,,,,,,,,,,,,,,,,,221.5,1.0,,,,,,
225,,feedback,,html-keyboard-response,225,442607,0.0-1.0-41.0-0.0-3.0-0.0,0,0,58537,,,,,,39.0,,,,,,,,,,,,,,,,,,,,,,,,,,,,,,,,222.5,1.0,,,,,,
226,,iti,,html-keyboard-response,226,444115,0.0-1.0-41.0-0.0-5.0,0,0,58537,,,,,,,,,,,,,,,,,,,,,,,,,,,,,,,,,,,,,,224.0,1.5,,,,,,
227,,choice,,html-keyboard-response,227,444272,0.0-1.0-42.0-0.0-0.0,0,0,58537,,148.0,,,68.0,40.0,40.0,1000.0,3500.0,0.0,1.0,0.0,20-80,,0.0,tape,power strip,20.0,80.0,tape9,power strip10,40.0,80.0,desk tape disp.jpg,6bd437c9-6165-4d36-bf75-9a1038783c6a_400.jpg,/static/Category_learning/Stimuli/Experimental_stims/tape/desk tape disp.jpg,/static/Category_learning/Stimuli/Experimental_stims/power strip/6bd437c9-6165-4d36-bf75-9a1038783c6a_400.jpg,1.0,tape,power strip,20.0,80.0,tape9,power strip10,40.0,80.0,0.0,224.148,0.148,,,,,,
228,,confirmation,,html-keyboard-response,228,445635,0.0-1.0-42.0-0.0-1.0-0.0,0,0,58537,,,,,,40.0,,,,,,,,,,,,,,,,,,,,,,,,,,,,,,,,225.5,1.352,,,,,,
229,,isi,,html-keyboard-response,229,446644,0.0-1.0-42.0-0.0-2.0,0,0,58537,,,,,,,,,,,,,,,,,,,,,,,,,,,,,,,,,,,,,,226.5,1.0,,,,,,
230,,feedback,,html-keyboard-response,230,447653,0.0-1.0-42.0-0.0-3.0-0.0,0,0,58537,,,,,,40.0,,,,,,,,,,,,,,,,,,,,,,,,,,,,,,,,227.5,1.0,,,,,,
231,,iti,,html-keyboard-response,231,451189,0.0-1.0-42.0-0.0-5.0,0,0,58537,,,,,,,,,,,,,,,,,,,,,,,,,,,,,,,,,,,,,,231.0,3.5,,,,,,
232,,choice,,html-keyboard-response,232,451301,0.0-1.0-43.0-0.0-0.0,0,0,58537,,104.0,,,75.0,41.0,41.0,1500.0,1000.0,0.0,1.0,0.0,20-80,,0.0,tape,poker card,20.0,80.0,tape12,poker card4,40.0,60.0,Frog-Tape-Dispenser_F02218A2.jpg,22864728.thl.jpg,/static/Category_learning/Stimuli/Experimental_stims/tape/Frog-Tape-Dispenser_F02218A2.jpg,/static/Category_learning/Stimuli/Experimental_stims/poker card/22864728.thl.jpg,0.0,poker card,tape,80.0,20.0,poker card4,tape12,60.0,40.0,0.0,231.104,0.104,,,,,,
233,,confirmation,,html-keyboard-response,233,452704,0.0-1.0-43.0-0.0-1.0-0.0,0,0,58537,,,,,,41.0,,,,,,,,,,,,,,,,,,,,,,,,,,,,,,,,232.5,1.396,,,,,,
234,,isi,,html-keyboard-response,234,454212,0.0-1.0-43.0-0.0-2.0,0,0,58537,,,,,,,,,,,,,,,,,,,,,,,,,,,,,,,,,,,,,,234.0,1.5,,,,,,
235,,feedback,,html-keyboard-response,235,455221,0.0-1.0-43.0-0.0-3.0-0.0,0,0,58537,,,,,,41.0,,,,,,,,,,,,,,,,,,,,,,,,,,,,,,,,235.0,1.0,,,,,,
236,,iti,,html-keyboard-response,236,456227,0.0-1.0-43.0-0.0-5.0,0,0,58537,,,,,,,,,,,,,,,,,,,,,,,,,,,,,,,,,,,,,,236.0,1.0,,,,,,
237,,choice,,html-keyboard-response,237,456433,0.0-1.0-44.0-0.0-0.0,0,0,58537,,199.0,,,75.0,42.0,42.0,2000.0,3500.0,0.0,1.0,0.0,20-80,,1.0,power strip,telescope,80.0,20.0,power strip13,telescope2,100.0,40.0,01dccef1-d4b2-4d2e-a317-f2ed46b70b4b_400.jpg,Brass-telescope-60700.jpg,/static/Category_learning/Stimuli/Experimental_stims/power strip/01dccef1-d4b2-4d2e-a317-f2ed46b70b4b_400.jpg,/static/Category_learning/Stimuli/Experimental_stims/telescope/Brass-telescope-60700.jpg,0.0,telescope,power strip,20.0,80.0,telescope2,power strip13,40.0,100.0,0.0,236.199,0.199,,,,,,
238,,confirmation,,html-keyboard-response,238,457746,0.0-1.0-44.0-0.0-1.0-0.0,0,0,58537,,,,,,42.0,,,,,,,,,,,,,,,,,,,,,,,,,,,,,,,,237.5,1.301,,,,,,
239,,isi,,html-keyboard-response,239,459752,0.0-1.0-44.0-0.0-2.0,0,0,58537,,,,,,,,,,,,,,,,,,,,,,,,,,,,,,,,,,,,,,239.5,2.0,,,,,,
240,,feedback,,html-keyboard-response,240,460759,0.0-1.0-44.0-0.0-3.0-0.0,0,0,58537,,,,,,42.0,,,,,,,,,,,,,,,,,,,,,,,,,,,,,,,,240.5,1.0,,,,,,
241,,iti,,html-keyboard-response,241,464266,0.0-1.0-44.0-0.0-5.0,0,0,58537,,,,,,,,,,,,,,,,,,,,,,,,,,,,,,,,,,,,,,244.0,3.5,,,,,,
242,,choice,,html-keyboard-response,242,465774,0.0-1.0-45.0-0.0-0.0,0,0,58537,,,,,,43.0,43.0,1000.0,2000.0,0.0,1.0,0.0,20-60,,0.0,yarn,makeup compact,20.0,60.0,yarn2,makeup compact6,20.0,80.0,Aballofyarn66.jpg,P0754_hero.jpg,/static/Category_learning/Stimuli/Experimental_stims/yarn/Aballofyarn66.jpg,/static/Category_learning/Stimuli/Experimental_stims/makeup compact/P0754_hero.jpg,,,,,,,,,,1.0,245.5,1.5,,,,,,
243,,isi,,html-keyboard-response,243,466782,0.0-1.0-45.0-0.0-2.0,0,0,58537,,,,,,,,,,,,,,,,,,,,,,,,,,,,,,,,,,,,,,246.5,1.0,,,,,,
244,,no_response,,html-keyboard-response,244,467796,0.0-1.0-45.0-0.0-4.0-0.0,0,0,58537,,,,,,,,,,,,,,,,,,,,,,,,,,,,,,,,,,,,,,247.5,1.0,,,,,,
245,,iti,,html-keyboard-response,245,469908,0.0-1.0-45.0-0.0-5.0,0,0,58537,,,,,,,,,,,,,,,,,,,,,,,,,,,,,,,,,,,,,,249.5,2.0,,,,,,
246,,choice,,html-keyboard-response,246,471417,0.0-1.0-45.0-0.1-0.1,0,0,58537,,,,,,43.0,43.0,1000.0,2000.0,0.0,1.0,0.0,20-60,,0.0,yarn,makeup compact,20.0,60.0,yarn2,makeup compact6,20.0,80.0,Aballofyarn66.jpg,P0754_hero.jpg,/static/Category_learning/Stimuli/Experimental_stims/yarn/Aballofyarn66.jpg,/static/Category_learning/Stimuli/Experimental_stims/makeup compact/P0754_hero.jpg,,,,,,,,,,1.0,251.0,1.5,,,,,,
247,,isi,,html-keyboard-response,247,472937,0.0-1.0-45.0-0.1-2.1,0,0,58537,,,,,,,,,,,,,,,,,,,,,,,,,,,,,,,,,,,,,,252.5,1.5,,,,,,
248,,no_response,,html-keyboard-response,248,473945,0.0-1.0-45.0-0.1-4.1-0.1,0,0,58537,,,,,,,,,,,,,,,,,,,,,,,,,,,,,,,,,,,,,,253.5,1.0,,,,,,
249,,iti,,html-keyboard-response,249,474989,0.0-1.0-45.0-0.1-5.1,0,0,58537,,,,,,,,,,,,,,,,,,,,,,,,,,,,,,,,,,,,,,254.5,1.0,,,,,,
250,,choice,,html-keyboard-response,250,476498,0.0-1.0-45.0-0.2-0.2,0,0,58537,,,,,,43.0,43.0,1000.0,2000.0,0.0,1.0,0.0,20-60,,0.0,yarn,makeup compact,20.0,60.0,yarn2,makeup compact6,20.0,80.0,Aballofyarn66.jpg,P0754_hero.jpg,/static/Category_learning/Stimuli/Experimental_stims/yarn/Aballofyarn66.jpg,/static/Category_learning/Stimuli/Experimental_stims/makeup compact/P0754_hero.jpg,,,,,,,,,,1.0,256.0,1.5,,,,,,
251,,isi,,html-keyboard-response,251,478007,0.0-1.0-45.0-0.2-2.2,0,0,58537,,,,,,,,,,,,,,,,,,,,,,,,,,,,,,,,,,,,,,257.5,1.5,,,,,,
252,,no_response,,html-keyboard-response,252,479013,0.0-1.0-45.0-0.2-4.2-0.2,0,0,58537,,,,,,,,,,,,,,,,,,,,,,,,,,,,,,,,,,,,,,258.5,1.0,,,,,,
253,,iti,,html-keyboard-response,253,480578,0.0-1.0-45.0-0.2-5.2,0,0,58537,,,,,,,,,,,,,,,,,,,,,,,,,,,,,,,,,,,,,,260.0,1.5,,,,,,
254,,choice,,html-keyboard-response,254,482088,0.0-1.0-45.0-0.3-0.3,0,0,58537,,,,,,43.0,43.0,1000.0,2000.0,0.0,1.0,0.0,20-60,,0.0,yarn,makeup compact,20.0,60.0,yarn2,makeup compact6,20.0,80.0,Aballofyarn66.jpg,P0754_hero.jpg,/static/Category_learning/Stimuli/Experimental_stims/yarn/Aballofyarn66.jpg,/static/Category_learning/Stimuli/Experimental_stims/makeup compact/P0754_hero.jpg,,,,,,,,,,1.0,261.5,1.5,,,,,,
255,,isi,,html-keyboard-response,255,483106,0.0-1.0-45.0-0.3-2.3,0,0,58537,,,,,,,,,,,,,,,,,,,,,,,,,,,,,,,,,,,,,,262.5,1.0,,,,,,
256,,no_response,,html-keyboard-response,256,484113,0.0-1.0-45.0-0.3-4.3-0.3,0,0,58537,,,,,,,,,,,,,,,,,,,,,,,,,,,,,,,,,,,,,,263.5,1.0,,,,,,
257,,iti,,html-keyboard-response,257,485157,0.0-1.0-45.0-0.3-5.3,0,0,58537,,,,,,,,,,,,,,,,,,,,,,,,,,,,,,,,,,,,,,264.5,1.0,,,,,,
258,,choice,,html-keyboard-response,258,486667,0.0-1.0-45.0-0.4-0.4,0,0,58537,,,,,,43.0,43.0,1000.0,2000.0,0.0,1.0,0.0,20-60,,0.0,yarn,makeup compact,20.0,60.0,yarn2,makeup compact6,20.0,80.0,Aballofyarn66.jpg,P0754_hero.jpg,/static/Category_learning/Stimuli/Experimental_stims/yarn/Aballofyarn66.jpg,/static/Category_learning/Stimuli/Experimental_stims/makeup compact/P0754_hero.jpg,,,,,,,,,,1.0,266.0,1.5,,,,,,
259,,isi,,html-keyboard-response,259,488699,0.0-1.0-45.0-0.4-2.4,0,0,58537,,,,,,,,,,,,,,,,,,,,,,,,,,,,,,,,,,,,,,268.0,2.0,,,,,,
260,,no_response,,html-keyboard-response,260,489708,0.0-1.0-45.0-0.4-4.4-0.4,0,0,58537,,,,,,,,,,,,,,,,,,,,,,,,,,,,,,,,,,,,,,269.0,1.0,,,,,,
261,,iti,,html-keyboard-response,261,491768,0.0-1.0-45.0-0.4-5.4,0,0,58537,,,,,,,,,,,,,,,,,,,,,,,,,,,,,,,,,,,,,,271.0,2.0,,,,,,
262,,choice,,html-keyboard-response,262,493277,0.0-1.0-45.0-0.5-0.5,0,0,58537,,,,,,43.0,43.0,1000.0,2000.0,0.0,1.0,0.0,20-60,,0.0,yarn,makeup compact,20.0,60.0,yarn2,makeup compact6,20.0,80.0,Aballofyarn66.jpg,P0754_hero.jpg,/static/Category_learning/Stimuli/Experimental_stims/yarn/Aballofyarn66.jpg,/static/Category_learning/Stimuli/Experimental_stims/makeup compact/P0754_hero.jpg,,,,,,,,,,1.0,272.5,1.5,,,,,,
263,,isi,,html-keyboard-response,263,496293,0.0-1.0-45.0-0.5-2.5,0,0,58537,,,,,,,,,,,,,,,,,,,,,,,,,,,,,,,,,,,,,,275.5,3.0,,,,,,
264,,no_response,,html-keyboard-response,264,497300,0.0-1.0-45.0-0.5-4.5-0.5,0,0,58537,,,,,,,,,,,,,,,,,,,,,,,,,,,,,,,,,,,,,,276.5,1.0,,,,,,
265,,iti,,html-keyboard-response,265,498369,0.0-1.0-45.0-0.5-5.5,0,0,58537,,,,,,,,,,,,,,,,,,,,,,,,,,,,,,,,,,,,,,277.5,1.0,,,,,,
266,,choice,,html-keyboard-response,266,498401,0.0-1.0-45.0-0.6-0.6,0,0,58537,,19.0,,,68.0,43.0,43.0,1000.0,2000.0,0.0,1.0,0.0,20-60,,0.0,yarn,makeup compact,20.0,60.0,yarn2,makeup compact6,20.0,80.0,Aballofyarn66.jpg,P0754_hero.jpg,/static/Category_learning/Stimuli/Experimental_stims/yarn/Aballofyarn66.jpg,/static/Category_learning/Stimuli/Experimental_stims/makeup compact/P0754_hero.jpg,1.0,yarn,makeup compact,20.0,60.0,yarn2,makeup compact6,20.0,80.0,0.0,277.519,0.019,,,,,,
267,,confirmation,,html-keyboard-response,267,499891,0.0-1.0-45.0-0.6-1.6-0.6,0,0,58537,,,,,,43.0,,,,,,,,,,,,,,,,,,,,,,,,,,,,,,,,279.0,1.481,,,,,,
268,,isi,,html-keyboard-response,268,500897,0.0-1.0-45.0-0.6-2.6,0,0,58537,,,,,,,,,,,,,,,,,,,,,,,,,,,,,,,,,,,,,,280.0,1.0,,,,,,
269,,feedback,,html-keyboard-response,269,501911,0.0-1.0-45.0-0.6-3.6-0.6,0,0,58537,,,,,,43.0,,,,,,,,,,,,,,,,,,,,,,,,,,,,,,,,281.0,1.0,,,,,,
270,,iti,,html-keyboard-response,270,502918,0.0-1.0-45.0-0.6-5.6,0,0,58537,,,,,,,,,,,,,,,,,,,,,,,,,,,,,,,,,,,,,,282.0,1.0,,,,,,
271,,choice,,html-keyboard-response,271,502936,0.0-1.0-46.0-0.0-0.0,0,0,58537,,11.0,,,68.0,44.0,44.0,1000.0,1000.0,0.0,1.0,0.0,20-60,,0.0,stool,makeup compact,20.0,60.0,stool15,makeup compact3,20.0,40.0,ASTOOL.jpg,P181006_hero.jpg,/static/Category_learning/Stimuli/Experimental_stims/stool/ASTOOL.jpg,/static/Category_learning/Stimuli/Experimental_stims/makeup compact/P181006_hero.jpg,1.0,stool,makeup compact,20.0,60.0,stool15,makeup compact3,20.0,40.0,0.0,282.011,0.011,,,,,,
272,,confirmation,,html-keyboard-response,272,504440,0.0-1.0-46.0-0.0-1.0-0.0,0,0,58537,,,,,,44.0,,,,,,,,,,,,,,,,,,,,,,,,,,,,,,,,283.5,1.489,,,,,,
273,,isi,,html-keyboard-response,273,505448,0.0-1.0-46.0-0.0-2.0,0,0,58537,,,,,,,,,,,,,,,,,,,,,,,,,,,,,,,,,,,,,,284.5,1.0,,,,,,
274,,feedback,,html-keyboard-response,274,506456,0.0-1.0-46.0-0.0-3.0-0.0,0,0,58537,,,,,,44.0,,,,,,,,,,,,,,,,,,,,,,,,,,,,,,,,285.5,1.0,,,,,,
275,,iti,,html-keyboard-response,275,507464,0.0-1.0-46.0-0.0-5.0,0,0,58537,,,,,,,,,,,,,,,,,,,,,,,,,,,,,,,,,,,,,,286.5,1.0,,,,,,
276,,choice,,html-keyboard-response,276,508753,0.0-1.0-47.0-0.0-0.0,0,0,58537,,1281.0,,,68.0,45.0,45.0,1000.0,1000.0,0.0,1.0,0.0,20-20,,,tape,watch,20.0,20.0,tape6,watch15,40.0,40.0,1912.jpg,20-171-6.jpg,/static/Category_learning/Stimuli/Experimental_stims/tape/1912.jpg,/static/Category_learning/Stimuli/Experimental_stims/watch/20-171-6.jpg,1.0,tape,watch,20.0,20.0,tape6,watch15,40.0,40.0,0.0,287.781,1.281,,,,,,
277,,confirmation,,html-keyboard-response,277,508983,0.0-1.0-47.0-0.0-1.0-0.0,0,0,58537,,,,,,45.0,,,,,,,,,,,,,,,,,,,,,,,,,,,,,,,,288.0,0.219,,,,,,
278,,isi,,html-keyboard-response,278,509990,0.0-1.0-47.0-0.0-2.0,0,0,58537,,,,,,,,,,,,,,,,,,,,,,,,,,,,,,,,,,,,,,289.0,1.0,,,,,,
279,,feedback,,html-keyboard-response,279,510997,0.0-1.0-47.0-0.0-3.0-0.0,0,0,58537,,,,,,45.0,,,,,,,,,,,,,,,,,,,,,,,,,,,,,,,,290.0,1.0,,,,,,
280,,iti,,html-keyboard-response,280,512006,0.0-1.0-47.0-0.0-5.0,0,0,58537,,,,,,,,,,,,,,,,,,,,,,,,,,,,,,,,,,,,,,291.0,1.0,,,,,,
281,,choice,,html-keyboard-response,281,512263,0.0-1.0-48.0-0.0-0.0,0,0,58537,,248.0,,,68.0,46.0,46.0,1500.0,2000.0,0.0,1.0,0.0,40-80,,1.0,nail polish,fan,80.0,40.0,nail polish6,fan1,60.0,60.0,127_t.jpg,01393.fpx.jpg,/static/Category_learning/Stimuli/Experimental_stims/nail polish/127_t.jpg,/static/Category_learning/Stimuli/Experimental_stims/fan/01393.fpx.jpg,1.0,nail polish,fan,80.0,40.0,nail polish6,fan1,60.0,60.0,0.0,291.248,0.248,,,,,,
282,,confirmation,,html-keyboard-response,282,513524,0.0-1.0-48.0-0.0-1.0-0.0,0,0,58537,,,,,,46.0,,,,,,,,,,,,,,,,,,,,,,,,,,,,,,,,292.5,1.252,,,,,,
283,,isi,,html-keyboard-response,283,515032,0.0-1.0-48.0-0.0-2.0,0,0,58537,,,,,,,,,,,,,,,,,,,,,,,,,,,,,,,,,,,,,,294.0,1.5,,,,,,
284,,feedback,,html-keyboard-response,284,516042,0.0-1.0-48.0-0.0-3.0-0.0,0,0,58537,,,,,,46.0,,,,,,,,,,,,,,,,,,,,,,,,,,,,,,,,295.0,1.0,,,,,,
285,,iti,,html-keyboard-response,285,518054,0.0-1.0-48.0-0.0-5.0,0,0,58537,,,,,,,,,,,,,,,,,,,,,,,,,,,,,,,,,,,,,,297.0,2.0,,,,,,
286,,choice,,html-keyboard-response,286,518092,0.0-1.0-49.0-0.0-0.0,0,0,58537,,32.0,,,68.0,47.0,47.0,1500.0,2000.0,0.0,1.0,0.0,60-80,,1.0,pen,license plate,80.0,60.0,pen10,license plate8,100.0,60.0,VP-Raden-FP-L copy.jpg,dc-vrw-jsw.jpg,/static/Category_learning/Stimuli/Experimental_stims/pen/VP-Raden-FP-L copy.jpg,/static/Category_learning/Stimuli/Experimental_stims/license plate/dc-vrw-jsw.jpg,1.0,pen,license plate,80.0,60.0,pen10,license plate8,100.0,60.0,0.0,297.032,0.032,,,,,,
287,,confirmation,,html-keyboard-response,287,519570,0.0-1.0-49.0-0.0-1.0-0.0,0,0,58537,,,,,,47.0,,,,,,,,,,,,,,,,,,,,,,,,,,,,,,,,298.5,1.468,,,,,,
288,,isi,,html-keyboard-response,288,521079,0.0-1.0-49.0-0.0-2.0,0,0,58537,,,,,,,,,,,,,,,,,,,,,,,,,,,,,,,,,,,,,,300.0,1.5,,,,,,
289,,feedback,,html-keyboard-response,289,522087,0.0-1.0-49.0-0.0-3.0-0.0,0,0,58537,,,,,,47.0,,,,,,,,,,,,,,,,,,,,,,,,,,,,,,,,301.0,1.0,,,,,,
290,,iti,,html-keyboard-response,290,524095,0.0-1.0-49.0-0.0-5.0,0,0,58537,,,,,,,,,,,,,,,,,,,,,,,,,,,,,,,,,,,,,,303.0,2.0,,,,,,
291,,choice,,html-keyboard-response,291,525017,0.0-1.0-50.0-0.0-0.0,0,0,58537,,917.0,,,68.0,48.0,48.0,1500.0,1000.0,0.0,1.0,0.0,40-60,,1.0,frame,bongo,60.0,40.0,frame4,bongo11,60.0,40.0,AFRAME125.jpg,ABONGO6.jpg,/static/Category_learning/Stimuli/Experimental_stims/frame/AFRAME125.jpg,/static/Category_learning/Stimuli/Experimental_stims/bongo/ABONGO6.jpg,1.0,frame,bongo,60.0,40.0,frame4,bongo11,60.0,40.0,0.0,303.917,0.917,,,,,,
292,,confirmation,,html-keyboard-response,292,525609,0.0-1.0-50.0-0.0-1.0-0.0,0,0,58537,,,,,,48.0,,,,,,,,,,,,,,,,,,,,,,,,,,,,,,,,304.5,0.583,,,,,,
293,,isi,,html-keyboard-response,293,527115,0.0-1.0-50.0-0.0-2.0,0,0,58537,,,,,,,,,,,,,,,,,,,,,,,,,,,,,,,,,,,,,,306.0,1.5,,,,,,
294,,feedback,,html-keyboard-response,294,528123,0.0-1.0-50.0-0.0-3.0-0.0,0,0,58537,,,,,,48.0,,,,,,,,,,,,,,,,,,,,,,,,,,,,,,,,307.0,1.0,,,,,,
295,,iti,,html-keyboard-response,295,529132,0.0-1.0-50.0-0.0-5.0,0,0,58537,,,,,,,,,,,,,,,,,,,,,,,,,,,,,,,,,,,,,,308.0,1.0,,,,,,
296,,choice,,html-keyboard-response,296,529210,0.0-1.0-51.0-0.0-0.0,0,0,58537,,73.0,,,68.0,49.0,49.0,2000.0,2000.0,0.0,1.0,0.0,40-60,,0.0,dresser,lipstick,40.0,60.0,dresser3,lipstick1,20.0,80.0,ADRESSE79.jpg,P170102_hero.jpg,/static/Category_learning/Stimuli/Experimental_stims/dresser/ADRESSE79.jpg,/static/Category_learning/Stimuli/Experimental_stims/lipstick/P170102_hero.jpg,1.0,dresser,lipstick,40.0,60.0,dresser3,lipstick1,20.0,80.0,0.0,308.073,0.073,,,,,,
297,,confirmation,,html-keyboard-response,297,530643,0.0-1.0-51.0-0.0-1.0-0.0,0,0,58537,,,,,,49.0,,,,,,,,,,,,,,,,,,,,,,,,,,,,,,,,309.5,1.427,,,,,,
298,,isi,,html-keyboard-response,298,532652,0.0-1.0-51.0-0.0-2.0,0,0,58537,,,,,,,,,,,,,,,,,,,,,,,,,,,,,,,,,,,,,,311.5,2.0,,,,,,
299,,feedback,,html-keyboard-response,299,533661,0.0-1.0-51.0-0.0-3.0-0.0,0,0,58537,,,,,,49.0,,,,,,,,,,,,,,,,,,,,,,,,,,,,,,,,312.5,1.0,,,,,,
300,,iti,,html-keyboard-response,300,535669,0.0-1.0-51.0-0.0-5.0,0,0,58537,,,,,,,,,,,,,,,,,,,,,,,,,,,,,,,,,,,,,,314.5,2.0,,,,,,
301,,choice,,html-keyboard-response,301,535756,0.0-1.0-52.0-0.0-0.0,0,0,58537,,75.0,,,68.0,50.0,50.0,3500.0,1000.0,0.0,1.0,1.0,20-20,1.0,,stool,stool,20.0,20.0,stool15,stool8,20.0,0.0,ASTOOL.jpg,ASTOOL33.jpg,/static/Category_learning/Stimuli/Experimental_stims/stool/ASTOOL.jpg,/static/Category_learning/Stimuli/Experimental_stims/stool/ASTOOL33.jpg,1.0,stool,stool,20.0,20.0,stool15,stool8,20.0,0.0,0.0,314.575,0.075,,,,,,
302,,confirmation,,html-keyboard-response,302,537188,0.0-1.0-52.0-0.0-1.0-0.0,0,0,58537,,,,,,50.0,,,,,,,,,,,,,,,,,,,,,,,,,,,,,,,,316.0,1.425,,,,,,
303,,isi,,html-keyboard-response,303,540695,0.0-1.0-52.0-0.0-2.0,0,0,58537,,,,,,,,,,,,,,,,,,,,,,,,,,,,,,,,,,,,,,319.5,3.5,,,,,,
304,,feedback,,html-keyboard-response,304,541703,0.0-1.0-52.0-0.0-3.0-0.0,0,0,58537,,,,,,50.0,,,,,,,,,,,,,,,,,,,,,,,,,,,,,,,,320.5,1.0,,,,,,
305,,iti,,html-keyboard-response,305,542711,0.0-1.0-52.0-0.0-5.0,0,0,58537,,,,,,,,,,,,,,,,,,,,,,,,,,,,,,,,,,,,,,321.5,1.0,,,,,,
306,,choice,,html-keyboard-response,306,543088,0.0-1.0-53.0-0.0-0.0,0,0,58537,,371.0,,,68.0,51.0,51.0,2000.0,1000.0,0.0,1.0,0.0,60-60,,,makeup compact,microscope,60.0,60.0,makeup compact5,microscope3,40.0,40.0,P109965_hero.jpg,APDB.jpg,/static/Category_learning/Stimuli/Experimental_stims/makeup compact/P109965_hero.jpg,/static/Category_learning/Stimuli/Experimental_stims/microscope/APDB.jpg,1.0,makeup compact,microscope,60.0,60.0,makeup compact5,microscope3,40.0,40.0,0.0,321.871,0.371,,,,,,
307,,confirmation,,html-keyboard-response,307,544226,0.0-1.0-53.0-0.0-1.0-0.0,0,0,58537,,,,,,51.0,,,,,,,,,,,,,,,,,,,,,,,,,,,,,,,,323.0,1.129,,,,,,
308,,isi,,html-keyboard-response,308,546233,0.0-1.0-53.0-0.0-2.0,0,0,58537,,,,,,,,,,,,,,,,,,,,,,,,,,,,,,,,,,,,,,325.0,2.0,,,,,,
309,,feedback,,html-keyboard-response,309,547241,0.0-1.0-53.0-0.0-3.0-0.0,0,0,58537,,,,,,51.0,,,,,,,,,,,,,,,,,,,,,,,,,,,,,,,,326.0,1.0,,,,,,
310,,iti,,html-keyboard-response,310,548248,0.0-1.0-53.0-0.0-5.0,0,0,58537,,,,,,,,,,,,,,,,,,,,,,,,,,,,,,,,,,,,,,327.0,1.0,,,,,,
311,,choice,,html-keyboard-response,311,548399,0.0-1.0-54.0-0.0-0.0,0,0,58537,,144.0,,,68.0,52.0,52.0,1000.0,1500.0,0.0,1.0,0.0,40-80,,0.0,baby carriage,necklace,40.0,80.0,baby carriage9,necklace2,20.0,80.0,Antique baby Carriage 7.jpg,Anecklace7.jpg,/static/Category_learning/Stimuli/Experimental_stims/baby carriage/Antique baby Carriage 7.jpg,/static/Category_learning/Stimuli/Experimental_stims/necklace/Anecklace7.jpg,1.0,baby carriage,necklace,40.0,80.0,baby carriage9,necklace2,20.0,80.0,0.0,327.144,0.144,,,,,,
312,,confirmation,,html-keyboard-response,312,549762,0.0-1.0-54.0-0.0-1.0-0.0,0,0,58537,,,,,,52.0,,,,,,,,,,,,,,,,,,,,,,,,,,,,,,,,328.5,1.356,,,,,,
313,,isi,,html-keyboard-response,313,550767,0.0-1.0-54.0-0.0-2.0,0,0,58537,,,,,,,,,,,,,,,,,,,,,,,,,,,,,,,,,,,,,,329.5,1.0,,,,,,
314,,feedback,,html-keyboard-response,314,551775,0.0-1.0-54.0-0.0-3.0-0.0,0,0,58537,,,,,,52.0,,,,,,,,,,,,,,,,,,,,,,,,,,,,,,,,330.5,1.0,,,,,,
315,,iti,,html-keyboard-response,315,553292,0.0-1.0-54.0-0.0-5.0,0,0,58537,,,,,,,,,,,,,,,,,,,,,,,,,,,,,,,,,,,,,,332.0,1.5,,,,,,
316,,choice,,html-keyboard-response,316,553413,0.0-1.0-55.0-0.0-0.0,0,0,58537,,113.0,,,68.0,53.0,53.0,2000.0,1500.0,0.0,1.0,0.0,20-80,,0.0,watch,small table,20.0,80.0,watch12,small table12,40.0,80.0,snl003_MED.jpg,ATABLE54.jpg,/static/Category_learning/Stimuli/Experimental_stims/watch/snl003_MED.jpg,/static/Category_learning/Stimuli/Experimental_stims/small table/ATABLE54.jpg,1.0,watch,small table,20.0,80.0,watch12,small table12,40.0,80.0,0.0,332.113,0.113,,,,,,
317,,confirmation,,html-keyboard-response,317,554809,0.0-1.0-55.0-0.0-1.0-0.0,0,0,58537,,,,,,53.0,,,,,,,,,,,,,,,,,,,,,,,,,,,,,,,,333.5,1.387,,,,,,
318,,isi,,html-keyboard-response,318,556814,0.0-1.0-55.0-0.0-2.0,0,0,58537,,,,,,,,,,,,,,,,,,,,,,,,,,,,,,,,,,,,,,335.5,2.0,,,,,,
319,,feedback,,html-keyboard-response,319,557821,0.0-1.0-55.0-0.0-3.0-0.0,0,0,58537,,,,,,53.0,,,,,,,,,,,,,,,,,,,,,,,,,,,,,,,,336.5,1.0,,,,,,
320,,iti,,html-keyboard-response,320,559344,0.0-1.0-55.0-0.0-5.0,0,0,58537,,,,,,,,,,,,,,,,,,,,,,,,,,,,,,,,,,,,,,338.0,1.5,,,,,,
321,,choice,,html-keyboard-response,321,559527,0.0-1.0-56.0-0.0-0.0,0,0,58537,,149.0,,,75.0,54.0,54.0,1000.0,2000.0,0.0,1.0,1.0,20-20,1.0,,tape,tape,20.0,20.0,tape6,tape9,40.0,40.0,1912.jpg,desk tape disp.jpg,/static/Category_learning/Stimuli/Experimental_stims/tape/1912.jpg,/static/Category_learning/Stimuli/Experimental_stims/tape/desk tape disp.jpg,0.0,tape,tape,20.0,20.0,tape9,tape6,40.0,40.0,0.0,338.149,0.149,,,,,,
322,,confirmation,,html-keyboard-response,322,560886,0.0-1.0-56.0-0.0-1.0-0.0,0,0,58537,,,,,,54.0,,,,,,,,,,,,,,,,,,,,,,,,,,,,,,,,339.5,1.351,,,,,,
323,,isi,,html-keyboard-response,323,561893,0.0-1.0-56.0-0.0-2.0,0,0,58537,,,,,,,,,,,,,,,,,,,,,,,,,,,,,,,,,,,,,,340.5,1.0,,,,,,
324,,feedback,,html-keyboard-response,324,562902,0.0-1.0-56.0-0.0-3.0-0.0,0,0,58537,,,,,,54.0,,,,,,,,,,,,,,,,,,,,,,,,,,,,,,,,341.5,1.0,,,,,,
325,,iti,,html-keyboard-response,325,564912,0.0-1.0-56.0-0.0-5.0,0,0,58537,,,,,,,,,,,,,,,,,,,,,,,,,,,,,,,,,,,,,,343.5,2.0,,,,,,
326,,choice,,html-keyboard-response,326,564938,0.0-1.0-57.0-0.0-0.0,0,0,58537,,10.0,,,75.0,55.0,55.0,1000.0,3000.0,0.0,1.0,0.0,40-60,,1.0,motorcycle,bench,60.0,40.0,motorcycle13,bench9,60.0,40.0,2005-Buell-FireboltXB12R.jpg,26419898.thl.jpg,/static/Category_learning/Stimuli/Experimental_stims/motorcycle/2005-Buell-FireboltXB12R.jpg,/static/Category_learning/Stimuli/Experimental_stims/bench/26419898.thl.jpg,0.0,bench,motorcycle,40.0,60.0,bench9,motorcycle13,40.0,60.0,0.0,343.51,0.01,,,,,,
327,,confirmation,,html-keyboard-response,327,566437,0.0-1.0-57.0-0.0-1.0-0.0,0,0,58537,,,,,,55.0,,,,,,,,,,,,,,,,,,,,,,,,,,,,,,,,345.0,1.49,,,,,,
328,,isi,,html-keyboard-response,328,567443,0.0-1.0-57.0-0.0-2.0,0,0,58537,,,,,,,,,,,,,,,,,,,,,,,,,,,,,,,,,,,,,,346.0,1.0,,,,,,
329,,feedback,,html-keyboard-response,329,568450,0.0-1.0-57.0-0.0-3.0-0.0,0,0,58537,,,,,,55.0,,,,,,,,,,,,,,,,,,,,,,,,,,,,,,,,347.0,1.0,,,,,,
330,,iti,,html-keyboard-response,330,571458,0.0-1.0-57.0-0.0-5.0,0,0,58537,,,,,,,,,,,,,,,,,,,,,,,,,,,,,,,,,,,,,,350.0,3.0,,,,,,
331,,block_over,,html-keyboard-response,331,578497,0.0-1.0-57.0-0.0-7.0-0.0,0,0,58537,,7028.0,,,68.0,55.0,,,,,,,,,,,,,,,,,,,,,,,,,,,,,,,,,,,,,,,
332,,start_run,,html-keyboard-response,332,580804,0.0-1.0-57.0-0.0-7.0-1.0,0,0,58537,,2301.0,,,84.0,,,,,,,,,,,,,,,,,,,,,,,,,,,,,,,,,,,,,,,,
333,,choice,,html-keyboard-response,333,581941,0.0-1.0-58.0-0.0-0.0,0,0,58537,,1128.0,,,68.0,56.0,65.0,1000.0,1500.0,0.0,2.0,0.0,20-60,,0.0,tent,hammer,20.0,60.0,tent10,hammer4,0.0,60.0,TENT-DUTCH-GD1-1.jpg,hammernew01.jpg,/static/Category_learning/Stimuli/Experimental_stims/tent/TENT-DUTCH-GD1-1.jpg,/static/Category_learning/Stimuli/Experimental_stims/hammer/hammernew01.jpg,1.0,tent,hammer,20.0,60.0,tent10,hammer4,0.0,60.0,0.0,1.128,1.128,,,,,,
334,,confirmation,,html-keyboard-response,334,582321,0.0-1.0-58.0-0.0-1.0-0.0,0,0,58537,,,,,,56.0,,,,,,,,,,,,,,,,,,,,,,,,,,,,,,,,1.5,0.372,,,,,,
335,,isi,,html-keyboard-response,335,583328,0.0-1.0-58.0-0.0-2.0,0,0,58537,,,,,,,,,,,,,,,,,,,,,,,,,,,,,,,,,,,,,,2.5,1.0,,,,,,
336,,feedback,,html-keyboard-response,336,584338,0.0-1.0-58.0-0.0-3.0-0.0,0,0,58537,,,,,,56.0,,,,,,,,,,,,,,,,,,,,,,,,,,,,,,,,3.5,1.0,,,,,,
337,,iti,,html-keyboard-response,337,585846,0.0-1.0-58.0-0.0-5.0,0,0,58537,,,,,,,,,,,,,,,,,,,,,,,,,,,,,,,,,,,,,,5.0,1.5,,,,,,
338,,choice,,html-keyboard-response,338,586006,0.0-1.0-59.0-0.0-0.0,0,0,58537,,154.0,,,75.0,57.0,66.0,3000.0,1000.0,0.0,2.0,0.0,40-80,,1.0,patio lounge chair,bench,80.0,40.0,patio lounge chair11,bench3,100.0,20.0,51830.jpg,26419540.thl.jpg,/static/Category_learning/Stimuli/Experimental_stims/patio lounge chair/51830.jpg,/static/Category_learning/Stimuli/Experimental_stims/bench/26419540.thl.jpg,0.0,bench,patio lounge chair,40.0,80.0,bench3,patio lounge chair11,20.0,100.0,0.0,5.154,0.154,,,,,,
339,,confirmation,,html-keyboard-response,339,587361,0.0-1.0-59.0-0.0-1.0-0.0,0,0,58537,,,,,,57.0,,,,,,,,,,,,,,,,,,,,,,,,,,,,,,,,6.5,1.346,,,,,,
340,,isi,,html-keyboard-response,340,590369,0.0-1.0-59.0-0.0-2.0,0,0,58537,,,,,,,,,,,,,,,,,,,,,,,,,,,,,,,,,,,,,,9.5,3.0,,,,,,
341,,feedback,,html-keyboard-response,341,591377,0.0-1.0-59.0-0.0-3.0-0.0,0,0,58537,,,,,,57.0,,,,,,,,,,,,,,,,,,,,,,,,,,,,,,,,10.5,1.0,,,,,,
342,,iti,,html-keyboard-response,342,592384,0.0-1.0-59.0-0.0-5.0,0,0,58537,,,,,,,,,,,,,,,,,,,,,,,,,,,,,,,,,,,,,,11.5,1.0,,,,,,
343,,choice,,html-keyboard-response,343,592443,0.0-1.0-60.0-0.0-0.0,0,0,58537,,52.0,,,68.0,58.0,67.0,1500.0,1500.0,0.0,2.0,0.0,20-20,,,trumpet,watch,20.0,20.0,trumpet12,watch6,40.0,20.0,hornabariton.jpg,B0000X04VC.01-A4LKQQKJ91IUZ._AA280_SCLZZZZZZZ_.jpg,/static/Category_learning/Stimuli/Experimental_stims/trumpet/hornabariton.jpg,/static/Category_learning/Stimuli/Experimental_stims/watch/B0000X04VC.01-A4LKQQKJ91IUZ._AA280_SCLZZZZZZZ_.jpg,1.0,trumpet,watch,20.0,20.0,trumpet12,watch6,40.0,20.0,0.0,11.552,0.052,,,,,,
344,,confirmation,,html-keyboard-response,344,593900,0.0-1.0-60.0-0.0-1.0-0.0,0,0,58537,,,,,,58.0,,,,,,,,,,,,,,,,,,,,,,,,,,,,,,,,13.0,1.448,,,,,,
345,,isi,,html-keyboard-response,345,595409,0.0-1.0-60.0-0.0-2.0,0,0,58537,,,,,,,,,,,,,,,,,,,,,,,,,,,,,,,,,,,,,,14.5,1.5,,,,,,
346,,feedback,,html-keyboard-response,346,596417,0.0-1.0-60.0-0.0-3.0-0.0,0,0,58537,,,,,,58.0,,,,,,,,,,,,,,,,,,,,,,,,,,,,,,,,15.5,1.0,,,,,,
347,,iti,,html-keyboard-response,347,597924,0.0-1.0-60.0-0.0-5.0,0,0,58537,,,,,,,,,,,,,,,,,,,,,,,,,,,,,,,,,,,,,,17.0,1.5,,,,,,
348,,choice,,html-keyboard-response,348,598006,0.0-1.0-61.0-0.0-0.0,0,0,58537,,75.0,,,68.0,59.0,68.0,2000.0,1500.0,0.0,2.0,0.0,20-80,,0.0,yarn,small table,20.0,80.0,yarn1,small table8,40.0,60.0,corn_yarn.jpg,ATABLE8.jpg,/static/Category_learning/Stimuli/Experimental_stims/yarn/corn_yarn.jpg,/static/Category_learning/Stimuli/Experimental_stims/small table/ATABLE8.jpg,1.0,yarn,small table,20.0,80.0,yarn1,small table8,40.0,60.0,0.0,17.075,0.075,,,,,,
349,,confirmation,,html-keyboard-response,349,599440,0.0-1.0-61.0-0.0-1.0-0.0,0,0,58537,,,,,,59.0,,,,,,,,,,,,,,,,,,,,,,,,,,,,,,,,18.5,1.425,,,,,,
350,,isi,,html-keyboard-response,350,601448,0.0-1.0-61.0-0.0-2.0,0,0,58537,,,,,,,,,,,,,,,,,,,,,,,,,,,,,,,,,,,,,,20.5,2.0,,,,,,
351,,feedback,,html-keyboard-response,351,602456,0.0-1.0-61.0-0.0-3.0-0.0,0,0,58537,,,,,,59.0,,,,,,,,,,,,,,,,,,,,,,,,,,,,,,,,21.5,1.0,,,,,,
352,,iti,,html-keyboard-response,352,603962,0.0-1.0-61.0-0.0-5.0,0,0,58537,,,,,,,,,,,,,,,,,,,,,,,,,,,,,,,,,,,,,,23.0,1.5,,,,,,
353,,choice,,html-keyboard-response,353,603990,0.0-1.0-62.0-0.0-0.0,0,0,58537,,22.0,,,68.0,60.0,69.0,1000.0,2000.0,0.0,2.0,0.0,60-60,,,makeup compact,hat,60.0,60.0,makeup compact12,hat5,80.0,40.0,P139103_hero.jpg,AREDHAT4.jpg,/static/Category_learning/Stimuli/Experimental_stims/makeup compact/P139103_hero.jpg,/static/Category_learning/Stimuli/Experimental_stims/hat/AREDHAT4.jpg,1.0,makeup compact,hat,60.0,60.0,makeup compact12,hat5,80.0,40.0,0.0,23.022,0.022,,,,,,
354,,confirmation,,html-keyboard-response,354,605485,0.0-1.0-62.0-0.0-1.0-0.0,0,0,58537,,,,,,60.0,,,,,,,,,,,,,,,,,,,,,,,,,,,,,,,,24.5,1.478,,,,,,
355,,isi,,html-keyboard-response,355,606492,0.0-1.0-62.0-0.0-2.0,0,0,58537,,,,,,,,,,,,,,,,,,,,,,,,,,,,,,,,,,,,,,25.5,1.0,,,,,,
356,,feedback,,html-keyboard-response,356,607501,0.0-1.0-62.0-0.0-3.0-0.0,0,0,58537,,,,,,60.0,,,,,,,,,,,,,,,,,,,,,,,,,,,,,,,,26.5,1.0,,,,,,
357,,iti,,html-keyboard-response,357,609508,0.0-1.0-62.0-0.0-5.0,0,0,58537,,,,,,,,,,,,,,,,,,,,,,,,,,,,,,,,,,,,,,28.5,2.0,,,,,,
358,,choice,,html-keyboard-response,358,609689,0.0-1.0-63.0-0.0-0.0,0,0,58537,,175.0,,,68.0,61.0,70.0,1000.0,1000.0,0.0,2.0,0.0,40-60,,0.0,dresser,lipstick,40.0,60.0,dresser4,lipstick5,60.0,40.0,ADRESSE40.jpg,P35719_hero.jpg,/static/Category_learning/Stimuli/Experimental_stims/dresser/ADRESSE40.jpg,/static/Category_learning/Stimuli/Experimental_stims/lipstick/P35719_hero.jpg,1.0,dresser,lipstick,40.0,60.0,dresser4,lipstick5,60.0,40.0,0.0,28.675,0.175,,,,,,
359,,confirmation,,html-keyboard-response,359,611025,0.0-1.0-63.0-0.0-1.0-0.0,0,0,58537,,,,,,61.0,,,,,,,,,,,,,,,,,,,,,,,,,,,,,,,,30.0,1.325,,,,,,
360,,isi,,html-keyboard-response,360,612033,0.0-1.0-63.0-0.0-2.0,0,0,58537,,,,,,,,,,,,,,,,,,,,,,,,,,,,,,,,,,,,,,31.0,1.0,,,,,,
361,,feedback,,html-keyboard-response,361,613041,0.0-1.0-63.0-0.0-3.0-0.0,0,0,58537,,,,,,61.0,,,,,,,,,,,,,,,,,,,,,,,,,,,,,,,,32.0,1.0,,,,,,
362,,iti,,html-keyboard-response,362,614048,0.0-1.0-63.0-0.0-5.0,0,0,58537,,,,,,,,,,,,,,,,,,,,,,,,,,,,,,,,,,,,,,33.0,1.0,,,,,,
363,,choice,,html-keyboard-response,363,615458,0.0-1.0-64.0-0.0-0.0,0,0,58537,,1403.0,,,68.0,62.0,71.0,1000.0,1500.0,0.0,2.0,1.0,40-40,1.0,,bench,bench,40.0,40.0,bench3,bench9,20.0,40.0,26419540.thl.jpg,26419898.thl.jpg,/static/Category_learning/Stimuli/Experimental_stims/bench/26419540.thl.jpg,/static/Category_learning/Stimuli/Experimental_stims/bench/26419898.thl.jpg,1.0,bench,bench,40.0,40.0,bench3,bench9,20.0,40.0,0.0,34.403,1.403,,,,,,
364,,confirmation,,html-keyboard-response,364,615569,0.0-1.0-64.0-0.0-1.0-0.0,0,0,58537,,,,,,62.0,,,,,,,,,,,,,,,,,,,,,,,,,,,,,,,,34.5,0.097,,,,,,
365,,isi,,html-keyboard-response,365,616582,0.0-1.0-64.0-0.0-2.0,0,0,58537,,,,,,,,,,,,,,,,,,,,,,,,,,,,,,,,,,,,,,35.5,1.0,,,,,,
366,,feedback,,html-keyboard-response,366,617589,0.0-1.0-64.0-0.0-3.0-0.0,0,0,58537,,,,,,62.0,,,,,,,,,,,,,,,,,,,,,,,,,,,,,,,,36.5,1.0,,,,,,
367,,iti,,html-keyboard-response,367,619097,0.0-1.0-64.0-0.0-5.0,0,0,58537,,,,,,,,,,,,,,,,,,,,,,,,,,,,,,,,,,,,,,38.0,1.5,,,,,,
368,,choice,,html-keyboard-response,368,619410,0.0-1.0-65.0-0.0-0.0,0,0,58537,,298.0,,,68.0,63.0,72.0,2000.0,2000.0,0.0,2.0,0.0,40-60,,1.0,hat,desk,60.0,40.0,hat10,desk11,80.0,60.0,Atornhat3.jpg,Writing_Desk_280_Cutout_Sideview_half.jpg,/static/Category_learning/Stimuli/Experimental_stims/hat/Atornhat3.jpg,/static/Category_learning/Stimuli/Experimental_stims/desk/Writing_Desk_280_Cutout_Sideview_half.jpg,1.0,hat,desk,60.0,40.0,hat10,desk11,80.0,60.0,0.0,38.298,0.298,,,,,,
369,,confirmation,,html-keyboard-response,369,620622,0.0-1.0-65.0-0.0-1.0-0.0,0,0,58537,,,,,,63.0,,,,,,,,,,,,,,,,,,,,,,,,,,,,,,,,39.5,1.202,,,,,,
370,,isi,,html-keyboard-response,370,622632,0.0-1.0-65.0-0.0-2.0,0,0,58537,,,,,,,,,,,,,,,,,,,,,,,,,,,,,,,,,,,,,,41.5,2.0,,,,,,
371,,feedback,,html-keyboard-response,371,623728,0.0-1.0-65.0-0.0-3.0-0.0,0,0,58537,,,,,,63.0,,,,,,,,,,,,,,,,,,,,,,,,,,,,,,,,42.5,1.0,,,,,,
372,,iti,,html-keyboard-response,372,625750,0.0-1.0-65.0-0.0-5.0,0,0,58537,,,,,,,,,,,,,,,,,,,,,,,,,,,,,,,,,,,,,,44.5,2.0,,,,,,
373,,choice,,html-keyboard-response,373,625838,0.0-1.0-66.0-0.0-0.0,0,0,58537,,81.0,,,68.0,64.0,73.0,1500.0,1000.0,0.0,2.0,1.0,60-60,1.0,,makeup compact,makeup compact,60.0,60.0,makeup compact5,makeup compact12,40.0,80.0,P109965_hero.jpg,P139103_hero.jpg,/static/Category_learning/Stimuli/Experimental_stims/makeup compact/P109965_hero.jpg,/static/Category_learning/Stimuli/Experimental_stims/makeup compact/P139103_hero.jpg,1.0,makeup compact,makeup compact,60.0,60.0,makeup compact5,makeup compact12,40.0,80.0,0.0,44.581,0.081,,,,,,
374,,confirmation,,html-keyboard-response,374,627265,0.0-1.0-66.0-0.0-1.0-0.0,0,0,58537,,,,,,64.0,,,,,,,,,,,,,,,,,,,,,,,,,,,,,,,,46.0,1.419,,,,,,
375,,isi,,html-keyboard-response,375,628773,0.0-1.0-66.0-0.0-2.0,0,0,58537,,,,,,,,,,,,,,,,,,,,,,,,,,,,,,,,,,,,,,47.5,1.5,,,,,,
376,,feedback,,html-keyboard-response,376,629792,0.0-1.0-66.0-0.0-3.0-0.0,0,0,58537,,,,,,64.0,,,,,,,,,,,,,,,,,,,,,,,,,,,,,,,,48.5,1.0,,,,,,
377,,iti,,html-keyboard-response,377,630808,0.0-1.0-66.0-0.0-5.0,0,0,58537,,,,,,,,,,,,,,,,,,,,,,,,,,,,,,,,,,,,,,49.5,1.0,,,,,,
378,,choice,,html-keyboard-response,378,630883,0.0-1.0-67.0-0.0-0.0,0,0,58537,,33.0,,,68.0,65.0,74.0,1500.0,1000.0,0.0,2.0,1.0,80-80,1.0,,nail polish,nail polish,80.0,80.0,nail polish6,nail polish14,60.0,80.0,127_t.jpg,38031405.JPG,/static/Category_learning/Stimuli/Experimental_stims/nail polish/127_t.jpg,/static/Category_learning/Stimuli/Experimental_stims/nail polish/38031405.JPG,1.0,nail polish,nail polish,80.0,80.0,nail polish6,nail polish14,60.0,80.0,0.0,49.533,0.033,,,,,,
379,,confirmation,,html-keyboard-response,379,632364,0.0-1.0-67.0-0.0-1.0-0.0,0,0,58537,,,,,,65.0,,,,,,,,,,,,,,,,,,,,,,,,,,,,,,,,51.0,1.467,,,,,,
380,,isi,,html-keyboard-response,380,633870,0.0-1.0-67.0-0.0-2.0,0,0,58537,,,,,,,,,,,,,,,,,,,,,,,,,,,,,,,,,,,,,,52.5,1.5,,,,,,
381,,feedback,,html-keyboard-response,381,634876,0.0-1.0-67.0-0.0-3.0-0.0,0,0,58537,,,,,,65.0,,,,,,,,,,,,,,,,,,,,,,,,,,,,,,,,53.5,1.0,,,,,,
382,,iti,,html-keyboard-response,382,635884,0.0-1.0-67.0-0.0-5.0,0,0,58537,,,,,,,,,,,,,,,,,,,,,,,,,,,,,,,,,,,,,,54.5,1.0,,,,,,
383,,choice,,html-keyboard-response,383,636626,0.0-1.0-68.0-0.0-0.0,0,0,58537,,733.0,,,68.0,66.0,75.0,1000.0,1000.0,0.0,2.0,0.0,60-60,,,microscope,hat,60.0,60.0,microscope8,hat14,60.0,60.0,AMICROS21.jpg,Ahat136.jpg,/static/Category_learning/Stimuli/Experimental_stims/microscope/AMICROS21.jpg,/static/Category_learning/Stimuli/Experimental_stims/hat/Ahat136.jpg,1.0,microscope,hat,60.0,60.0,microscope8,hat14,60.0,60.0,0.0,55.233,0.733,,,,,,
384,,confirmation,,html-keyboard-response,384,637403,0.0-1.0-68.0-0.0-1.0-0.0,0,0,58537,,,,,,66.0,,,,,,,,,,,,,,,,,,,,,,,,,,,,,,,,56.0,0.767,,,,,,
385,,isi,,html-keyboard-response,385,638409,0.0-1.0-68.0-0.0-2.0,0,0,58537,,,,,,,,,,,,,,,,,,,,,,,,,,,,,,,,,,,,,,57.0,1.0,,,,,,
386,,feedback,,html-keyboard-response,386,639423,0.0-1.0-68.0-0.0-3.0-0.0,0,0,58537,,,,,,66.0,,,,,,,,,,,,,,,,,,,,,,,,,,,,,,,,58.0,1.0,,,,,,
387,,iti,,html-keyboard-response,387,640430,0.0-1.0-68.0-0.0-5.0,0,0,58537,,,,,,,,,,,,,,,,,,,,,,,,,,,,,,,,,,,,,,59.0,1.0,,,,,,
388,,choice,,html-keyboard-response,388,640560,0.0-1.0-69.0-0.0-0.0,0,0,58537,,123.0,,,68.0,67.0,76.0,2000.0,2000.0,0.0,2.0,0.0,40-60,,0.0,door knob,frame,40.0,60.0,door knob8,frame10,40.0,80.0,pro_l_116_medeco437ul.jpg,AFRAME107.jpg,/static/Category_learning/Stimuli/Experimental_stims/door knob/pro_l_116_medeco437ul.jpg,/static/Category_learning/Stimuli/Experimental_stims/frame/AFRAME107.jpg,1.0,door knob,frame,40.0,60.0,door knob8,frame10,40.0,80.0,0.0,59.123,0.123,,,,,,
389,,confirmation,,html-keyboard-response,389,641946,0.0-1.0-69.0-0.0-1.0-0.0,0,0,58537,,,,,,67.0,,,,,,,,,,,,,,,,,,,,,,,,,,,,,,,,60.5,1.377,,,,,,
390,,isi,,html-keyboard-response,390,643953,0.0-1.0-69.0-0.0-2.0,0,0,58537,,,,,,,,,,,,,,,,,,,,,,,,,,,,,,,,,,,,,,62.5,2.0,,,,,,
391,,feedback,,html-keyboard-response,391,644961,0.0-1.0-69.0-0.0-3.0-0.0,0,0,58537,,,,,,67.0,,,,,,,,,,,,,,,,,,,,,,,,,,,,,,,,63.5,1.0,,,,,,
392,,iti,,html-keyboard-response,392,646968,0.0-1.0-69.0-0.0-5.0,0,0,58537,,,,,,,,,,,,,,,,,,,,,,,,,,,,,,,,,,,,,,65.5,2.0,,,,,,
393,,choice,,html-keyboard-response,393,647017,0.0-1.0-70.0-0.0-0.0,0,0,58537,,43.0,,,68.0,68.0,77.0,1500.0,2000.0,0.0,2.0,0.0,40-60,,0.0,bench,hat,40.0,60.0,bench6,hat3,20.0,60.0,26370121.thl.jpg,Astrawhat49.jpg,/static/Category_learning/Stimuli/Experimental_stims/bench/26370121.thl.jpg,/static/Category_learning/Stimuli/Experimental_stims/hat/Astrawhat49.jpg,1.0,bench,hat,40.0,60.0,bench6,hat3,20.0,60.0,0.0,65.543,0.043,,,,,,
394,,confirmation,,html-keyboard-response,394,648483,0.0-1.0-70.0-0.0-1.0-0.0,0,0,58537,,,,,,68.0,,,,,,,,,,,,,,,,,,,,,,,,,,,,,,,,67.0,1.457,,,,,,
395,,isi,,html-keyboard-response,395,649990,0.0-1.0-70.0-0.0-2.0,0,0,58537,,,,,,,,,,,,,,,,,,,,,,,,,,,,,,,,,,,,,,68.5,1.5,,,,,,
396,,feedback,,html-keyboard-response,396,650996,0.0-1.0-70.0-0.0-3.0-0.0,0,0,58537,,,,,,68.0,,,,,,,,,,,,,,,,,,,,,,,,,,,,,,,,69.5,1.0,,,,,,
397,,iti,,html-keyboard-response,397,653003,0.0-1.0-70.0-0.0-5.0,0,0,58537,,,,,,,,,,,,,,,,,,,,,,,,,,,,,,,,,,,,,,71.5,2.0,,,,,,
398,,choice,,html-keyboard-response,398,654294,0.0-1.0-71.0-0.0-0.0,0,0,58537,,1284.0,,,68.0,69.0,78.0,2000.0,1500.0,0.0,2.0,0.0,40-80,,1.0,nail polish,baby carriage,80.0,40.0,nail polish15,baby carriage1,60.0,40.0,MA_NP_WSD.jpg,babycarriage16.jpg,/static/Category_learning/Stimuli/Experimental_stims/nail polish/MA_NP_WSD.jpg,/static/Category_learning/Stimuli/Experimental_stims/baby carriage/babycarriage16.jpg,1.0,nail polish,baby carriage,80.0,40.0,nail polish15,baby carriage1,60.0,40.0,0.0,72.784,1.284,,,,,,
399,,confirmation,,html-keyboard-response,399,654521,0.0-1.0-71.0-0.0-1.0-0.0,0,0,58537,,,,,,69.0,,,,,,,,,,,,,,,,,,,,,,,,,,,,,,,,73.0,0.216,,,,,,
400,,isi,,html-keyboard-response,400,656530,0.0-1.0-71.0-0.0-2.0,0,0,58537,,,,,,,,,,,,,,,,,,,,,,,,,,,,,,,,,,,,,,75.0,2.0,,,,,,
401,,feedback,,html-keyboard-response,401,657540,0.0-1.0-71.0-0.0-3.0-0.0,0,0,58537,,,,,,69.0,,,,,,,,,,,,,,,,,,,,,,,,,,,,,,,,76.0,1.0,,,,,,
402,,iti,,html-keyboard-response,402,659045,0.0-1.0-71.0-0.0-5.0,0,0,58537,,,,,,,,,,,,,,,,,,,,,,,,,,,,,,,,,,,,,,77.5,1.5,,,,,,
403,,choice,,html-keyboard-response,403,659258,0.0-1.0-72.0-0.0-0.0,0,0,58537,,204.0,,,68.0,70.0,79.0,1000.0,1500.0,0.0,2.0,0.0,40-80,,1.0,poker card,bongo,80.0,40.0,poker card2,bongo9,100.0,20.0,22864716.thl.jpg,22946035.thl.jpg,/static/Category_learning/Stimuli/Experimental_stims/poker card/22864716.thl.jpg,/static/Category_learning/Stimuli/Experimental_stims/bongo/22946035.thl.jpg,1.0,poker card,bongo,80.0,40.0,poker card2,bongo9,100.0,20.0,0.0,77.704,0.204,,,,,,
404,,confirmation,,html-keyboard-response,404,660563,0.0-1.0-72.0-0.0-1.0-0.0,0,0,58537,,,,,,70.0,,,,,,,,,,,,,,,,,,,,,,,,,,,,,,,,79.0,1.296,,,,,,
405,,isi,,html-keyboard-response,405,661569,0.0-1.0-72.0-0.0-2.0,0,0,58537,,,,,,,,,,,,,,,,,,,,,,,,,,,,,,,,,,,,,,80.0,1.0,,,,,,
406,,feedback,,html-keyboard-response,406,662576,0.0-1.0-72.0-0.0-3.0-0.0,0,0,58537,,,,,,70.0,,,,,,,,,,,,,,,,,,,,,,,,,,,,,,,,81.0,1.0,,,,,,
407,,iti,,html-keyboard-response,407,664083,0.0-1.0-72.0-0.0-5.0,0,0,58537,,,,,,,,,,,,,,,,,,,,,,,,,,,,,,,,,,,,,,82.5,1.5,,,,,,
408,,choice,,html-keyboard-response,408,664383,0.0-1.0-73.0-0.0-0.0,0,0,58537,,290.0,,,68.0,71.0,80.0,1000.0,1000.0,0.0,2.0,0.0,80-80,,,seashell,patio lounge chair,80.0,80.0,seashell6,patio lounge chair3,80.0,60.0,PY2H1461.jpg,Lounge_Chair.jpg,/static/Category_learning/Stimuli/Experimental_stims/seashell/PY2H1461.jpg,/static/Category_learning/Stimuli/Experimental_stims/patio lounge chair/Lounge_Chair.jpg,1.0,seashell,patio lounge chair,80.0,80.0,seashell6,patio lounge chair3,80.0,60.0,0.0,82.79,0.29,,,,,,
409,,confirmation,,html-keyboard-response,409,665601,0.0-1.0-73.0-0.0-1.0-0.0,0,0,58537,,,,,,71.0,,,,,,,,,,,,,,,,,,,,,,,,,,,,,,,,84.0,1.21,,,,,,
410,,isi,,html-keyboard-response,410,666607,0.0-1.0-73.0-0.0-2.0,0,0,58537,,,,,,,,,,,,,,,,,,,,,,,,,,,,,,,,,,,,,,85.0,1.0,,,,,,
411,,feedback,,html-keyboard-response,411,667614,0.0-1.0-73.0-0.0-3.0-0.0,0,0,58537,,,,,,71.0,,,,,,,,,,,,,,,,,,,,,,,,,,,,,,,,86.0,1.0,,,,,,
412,,iti,,html-keyboard-response,412,668622,0.0-1.0-73.0-0.0-5.0,0,0,58537,,,,,,,,,,,,,,,,,,,,,,,,,,,,,,,,,,,,,,87.0,1.0,,,,,,
413,,choice,,html-keyboard-response,413,668713,0.0-1.0-74.0-0.0-0.0,0,0,58537,,82.0,,,68.0,72.0,81.0,1000.0,3500.0,0.0,2.0,0.0,20-80,,0.0,tape,small table,20.0,80.0,tape10,small table10,20.0,100.0,26377601.thl.jpg,ATABLE41.jpg,/static/Category_learning/Stimuli/Experimental_stims/tape/26377601.thl.jpg,/static/Category_learning/Stimuli/Experimental_stims/small table/ATABLE41.jpg,1.0,tape,small table,20.0,80.0,tape10,small table10,20.0,100.0,0.0,87.082,0.082,,,,,,
414,,confirmation,,html-keyboard-response,414,670140,0.0-1.0-74.0-0.0-1.0-0.0,0,0,58537,,,,,,72.0,,,,,,,,,,,,,,,,,,,,,,,,,,,,,,,,88.5,1.418,,,,,,
415,,isi,,html-keyboard-response,415,671147,0.0-1.0-74.0-0.0-2.0,0,0,58537,,,,,,,,,,,,,,,,,,,,,,,,,,,,,,,,,,,,,,89.5,1.0,,,,,,
416,,feedback,,html-keyboard-response,416,672156,0.0-1.0-74.0-0.0-3.0-0.0,0,0,58537,,,,,,72.0,,,,,,,,,,,,,,,,,,,,,,,,,,,,,,,,90.5,1.0,,,,,,
417,,iti,,html-keyboard-response,417,675663,0.0-1.0-74.0-0.0-5.0,0,0,58537,,,,,,,,,,,,,,,,,,,,,,,,,,,,,,,,,,,,,,94.0,3.5,,,,,,
418,,choice,,html-keyboard-response,418,675801,0.0-1.0-75.0-0.0-0.0,0,0,58537,,129.0,,,68.0,73.0,82.0,1000.0,3500.0,0.0,2.0,0.0,20-60,,0.0,stool,frame,20.0,60.0,stool14,frame7,40.0,40.0,hjscott-sbs-b-bar-stool.jpg,AFRAME152.jpg,/static/Category_learning/Stimuli/Experimental_stims/stool/hjscott-sbs-b-bar-stool.jpg,/static/Category_learning/Stimuli/Experimental_stims/frame/AFRAME152.jpg,1.0,stool,frame,20.0,60.0,stool14,frame7,40.0,40.0,0.0,94.129,0.129,,,,,,
419,,confirmation,,html-keyboard-response,419,677180,0.0-1.0-75.0-0.0-1.0-0.0,0,0,58537,,,,,,73.0,,,,,,,,,,,,,,,,,,,,,,,,,,,,,,,,95.5,1.371,,,,,,
420,,isi,,html-keyboard-response,420,678188,0.0-1.0-75.0-0.0-2.0,0,0,58537,,,,,,,,,,,,,,,,,,,,,,,,,,,,,,,,,,,,,,96.5,1.0,,,,,,
421,,feedback,,html-keyboard-response,421,679196,0.0-1.0-75.0-0.0-3.0-0.0,0,0,58537,,,,,,73.0,,,,,,,,,,,,,,,,,,,,,,,,,,,,,,,,97.5,1.0,,,,,,
422,,iti,,html-keyboard-response,422,682705,0.0-1.0-75.0-0.0-5.0,0,0,58537,,,,,,,,,,,,,,,,,,,,,,,,,,,,,,,,,,,,,,101.0,3.5,,,,,,
423,,choice,,html-keyboard-response,423,682860,0.0-1.0-76.0-0.0-0.0,0,0,58537,,146.0,,,68.0,74.0,83.0,3500.0,3000.0,0.0,2.0,0.0,20-60,,0.0,telescope,hammer,20.0,60.0,telescope10,hammer1,40.0,60.0,digimarc.ms02.jpg,fosnaugh.hammer.jpg,/static/Category_learning/Stimuli/Experimental_stims/telescope/digimarc.ms02.jpg,/static/Category_learning/Stimuli/Experimental_stims/hammer/fosnaugh.hammer.jpg,1.0,telescope,hammer,20.0,60.0,telescope10,hammer1,40.0,60.0,0.0,101.146,0.146,,,,,,
424,,confirmation,,html-keyboard-response,424,684223,0.0-1.0-76.0-0.0-1.0-0.0,0,0,58537,,,,,,74.0,,,,,,,,,,,,,,,,,,,,,,,,,,,,,,,,102.5,1.354,,,,,,
425,,isi,,html-keyboard-response,425,687730,0.0-1.0-76.0-0.0-2.0,0,0,58537,,,,,,,,,,,,,,,,,,,,,,,,,,,,,,,,,,,,,,106.0,3.5,,,,,,
426,,feedback,,html-keyboard-response,426,688742,0.0-1.0-76.0-0.0-3.0-0.0,0,0,58537,,,,,,74.0,,,,,,,,,,,,,,,,,,,,,,,,,,,,,,,,107.0,1.0,,,,,,
427,,iti,,html-keyboard-response,427,691752,0.0-1.0-76.0-0.0-5.0,0,0,58537,,,,,,,,,,,,,,,,,,,,,,,,,,,,,,,,,,,,,,110.0,3.0,,,,,,
428,,choice,,html-keyboard-response,428,692347,0.0-1.0-77.0-0.0-0.0,0,0,58537,,586.0,,,75.0,75.0,84.0,1000.0,1500.0,0.0,2.0,0.0,20-80,,1.0,small table,trumpet,80.0,20.0,small table14,trumpet4,100.0,0.0,Awoodtable13.jpg,JUPITER+JTR1000S.jpg,/static/Category_learning/Stimuli/Experimental_stims/small table/Awoodtable13.jpg,/static/Category_learning/Stimuli/Experimental_stims/trumpet/JUPITER+JTR1000S.jpg,0.0,trumpet,small table,20.0,80.0,trumpet4,small table14,0.0,100.0,0.0,110.586,0.586,,,,,,
429,,confirmation,,html-keyboard-response,429,693270,0.0-1.0-77.0-0.0-1.0-0.0,0,0,58537,,,,,,75.0,,,,,,,,,,,,,,,,,,,,,,,,,,,,,,,,111.5,0.914,,,,,,
430,,isi,,html-keyboard-response,430,694283,0.0-1.0-77.0-0.0-2.0,0,0,58537,,,,,,,,,,,,,,,,,,,,,,,,,,,,,,,,,,,,,,112.5,1.0,,,,,,
431,,feedback,,html-keyboard-response,431,695289,0.0-1.0-77.0-0.0-3.0-0.0,0,0,58537,,,,,,75.0,,,,,,,,,,,,,,,,,,,,,,,,,,,,,,,,113.5,1.0,,,,,,
432,,iti,,html-keyboard-response,432,696797,0.0-1.0-77.0-0.0-5.0,0,0,58537,,,,,,,,,,,,,,,,,,,,,,,,,,,,,,,,,,,,,,115.0,1.5,,,,,,
433,,choice,,html-keyboard-response,433,696881,0.0-1.0-78.0-0.0-0.0,0,0,58537,,76.0,,,68.0,76.0,85.0,1500.0,3000.0,0.0,2.0,0.0,40-40,,,baby carriage,flashlight,40.0,40.0,baby carriage15,flashlight14,40.0,40.0,AANBABYC2.jpg,freeplay-jonta-flashlight.jpg,/static/Category_learning/Stimuli/Experimental_stims/baby carriage/AANBABYC2.jpg,/static/Category_learning/Stimuli/Experimental_stims/flashlight/freeplay-jonta-flashlight.jpg,1.0,baby carriage,flashlight,40.0,40.0,baby carriage15,flashlight14,40.0,40.0,0.0,115.076,0.076,,,,,,
434,,confirmation,,html-keyboard-response,434,698316,0.0-1.0-78.0-0.0-1.0-0.0,0,0,58537,,,,,,76.0,,,,,,,,,,,,,,,,,,,,,,,,,,,,,,,,116.5,1.424,,,,,,
435,,isi,,html-keyboard-response,435,699825,0.0-1.0-78.0-0.0-2.0,0,0,58537,,,,,,,,,,,,,,,,,,,,,,,,,,,,,,,,,,,,,,118.0,1.5,,,,,,
436,,feedback,,html-keyboard-response,436,700832,0.0-1.0-78.0-0.0-3.0-0.0,0,0,58537,,,,,,76.0,,,,,,,,,,,,,,,,,,,,,,,,,,,,,,,,119.0,1.0,,,,,,
437,,iti,,html-keyboard-response,437,703840,0.0-1.0-78.0-0.0-5.0,0,0,58537,,,,,,,,,,,,,,,,,,,,,,,,,,,,,,,,,,,,,,122.0,3.0,,,,,,
438,,choice,,html-keyboard-response,438,705350,0.0-1.0-79.0-0.0-0.0,0,0,58537,,,,,,77.0,86.0,2000.0,1000.0,0.0,2.0,1.0,40-40,1.0,,baby carriage,baby carriage,40.0,40.0,baby carriage9,baby carriage15,20.0,40.0,Antique baby Carriage 7.jpg,AANBABYC2.jpg,/static/Category_learning/Stimuli/Experimental_stims/baby carriage/Antique baby Carriage 7.jpg,/static/Category_learning/Stimuli/Experimental_stims/baby carriage/AANBABYC2.jpg,,,,,,,,,,1.0,123.5,1.5,,,,,,
439,,isi,,html-keyboard-response,439,707356,0.0-1.0-79.0-0.0-2.0,0,0,58537,,,,,,,,,,,,,,,,,,,,,,,,,,,,,,,,,,,,,,125.5,2.0,,,,,,
440,,no_response,,html-keyboard-response,440,708365,0.0-1.0-79.0-0.0-4.0-0.0,0,0,58537,,,,,,,,,,,,,,,,,,,,,,,,,,,,,,,,,,,,,,126.5,1.0,,,,,,
441,,iti,,html-keyboard-response,441,709429,0.0-1.0-79.0-0.0-5.0,0,0,58537,,,,,,,,,,,,,,,,,,,,,,,,,,,,,,,,,,,,,,127.5,1.0,,,,,,
442,,choice,,html-keyboard-response,442,710950,0.0-1.0-79.0-0.1-0.1,0,0,58537,,,,,,77.0,86.0,2000.0,1000.0,0.0,2.0,1.0,40-40,1.0,,baby carriage,baby carriage,40.0,40.0,baby carriage9,baby carriage15,20.0,40.0,Antique baby Carriage 7.jpg,AANBABYC2.jpg,/static/Category_learning/Stimuli/Experimental_stims/baby carriage/Antique baby Carriage 7.jpg,/static/Category_learning/Stimuli/Experimental_stims/baby carriage/AANBABYC2.jpg,,,,,,,,,,1.0,129.0,1.5,,,,,,
443,,isi,,html-keyboard-response,443,714461,0.0-1.0-79.0-0.1-2.1,0,0,58537,,,,,,,,,,,,,,,,,,,,,,,,,,,,,,,,,,,,,,132.5,3.5,,,,,,
444,,no_response,,html-keyboard-response,444,715468,0.0-1.0-79.0-0.1-4.1-0.1,0,0,58537,,,,,,,,,,,,,,,,,,,,,,,,,,,,,,,,,,,,,,133.5,1.0,,,,,,
445,,iti,,html-keyboard-response,445,716529,0.0-1.0-79.0-0.1-5.1,0,0,58537,,,,,,,,,,,,,,,,,,,,,,,,,,,,,,,,,,,,,,134.5,1.0,,,,,,
446,,choice,,html-keyboard-response,446,716578,0.0-1.0-79.0-0.2-0.2,0,0,58537,,31.0,,,75.0,77.0,86.0,2000.0,1000.0,0.0,2.0,1.0,40-40,1.0,,baby carriage,baby carriage,40.0,40.0,baby carriage9,baby carriage15,20.0,40.0,Antique baby Carriage 7.jpg,AANBABYC2.jpg,/static/Category_learning/Stimuli/Experimental_stims/baby carriage/Antique baby Carriage 7.jpg,/static/Category_learning/Stimuli/Experimental_stims/baby carriage/AANBABYC2.jpg,0.0,baby carriage,baby carriage,40.0,40.0,baby carriage15,baby carriage9,40.0,20.0,0.0,134.531,0.031,,,,,,
447,,confirmation,,html-keyboard-response,447,718055,0.0-1.0-79.0-0.2-1.2-0.2,0,0,58537,,,,,,77.0,,,,,,,,,,,,,,,,,,,,,,,,,,,,,,,,136.0,1.469,,,,,,
448,,isi,,html-keyboard-response,448,719062,0.0-1.0-79.0-0.2-2.2,0,0,58537,,,,,,,,,,,,,,,,,,,,,,,,,,,,,,,,,,,,,,137.0,1.0,,,,,,
449,,feedback,,html-keyboard-response,449,720074,0.0-1.0-79.0-0.2-3.2-0.2,0,0,58537,,,,,,77.0,,,,,,,,,,,,,,,,,,,,,,,,,,,,,,,,138.0,1.0,,,,,,
450,,iti,,html-keyboard-response,450,721080,0.0-1.0-79.0-0.2-5.2,0,0,58537,,,,,,,,,,,,,,,,,,,,,,,,,,,,,,,,,,,,,,139.0,1.0,,,,,,
451,,choice,,html-keyboard-response,451,721862,0.0-1.0-80.0-0.0-0.0,0,0,58537,,772.0,,,75.0,78.0,87.0,2000.0,1000.0,0.0,2.0,1.0,20-20,1.0,,telescope,telescope,20.0,20.0,telescope2,telescope10,40.0,40.0,Brass-telescope-60700.jpg,digimarc.ms02.jpg,/static/Category_learning/Stimuli/Experimental_stims/telescope/Brass-telescope-60700.jpg,/static/Category_learning/Stimuli/Experimental_stims/telescope/digimarc.ms02.jpg,0.0,telescope,telescope,20.0,20.0,telescope10,telescope2,40.0,40.0,0.0,139.772,0.772,,,,,,
452,,confirmation,,html-keyboard-response,452,722635,0.0-1.0-80.0-0.0-1.0-0.0,0,0,58537,,,,,,78.0,,,,,,,,,,,,,,,,,,,,,,,,,,,,,,,,140.5,0.728,,,,,,
453,,isi,,html-keyboard-response,453,724642,0.0-1.0-80.0-0.0-2.0,0,0,58537,,,,,,,,,,,,,,,,,,,,,,,,,,,,,,,,,,,,,,142.5,2.0,,,,,,
454,,feedback,,html-keyboard-response,454,725648,0.0-1.0-80.0-0.0-3.0-0.0,0,0,58537,,,,,,78.0,,,,,,,,,,,,,,,,,,,,,,,,,,,,,,,,143.5,1.0,,,,,,
455,,iti,,html-keyboard-response,455,726652,0.0-1.0-80.0-0.0-5.0,0,0,58537,,,,,,,,,,,,,,,,,,,,,,,,,,,,,,,,,,,,,,144.5,1.0,,,,,,
456,,choice,,html-keyboard-response,456,726905,0.0-1.0-81.0-0.0-0.0,0,0,58537,,246.0,,,68.0,79.0,88.0,3000.0,1000.0,0.0,2.0,0.0,40-60,,1.0,motorcycle,baby carriage,60.0,40.0,motorcycle8,baby carriage6,80.0,20.0,Motorcycle903425j2.jpg,Baby_Stroller-1.jpg,/static/Category_learning/Stimuli/Experimental_stims/motorcycle/Motorcycle903425j2.jpg,/static/Category_learning/Stimuli/Experimental_stims/baby carriage/Baby_Stroller-1.jpg,1.0,motorcycle,baby carriage,60.0,40.0,motorcycle8,baby carriage6,80.0,20.0,0.0,144.746,0.246,,,,,,
457,,confirmation,,html-keyboard-response,457,728168,0.0-1.0-81.0-0.0-1.0-0.0,0,0,58537,,,,,,79.0,,,,,,,,,,,,,,,,,,,,,,,,,,,,,,,,146.0,1.254,,,,,,
458,,isi,,html-keyboard-response,458,731174,0.0-1.0-81.0-0.0-2.0,0,0,58537,,,,,,,,,,,,,,,,,,,,,,,,,,,,,,,,,,,,,,149.0,3.0,,,,,,
459,,feedback,,html-keyboard-response,459,732184,0.0-1.0-81.0-0.0-3.0-0.0,0,0,58537,,,,,,79.0,,,,,,,,,,,,,,,,,,,,,,,,,,,,,,,,150.0,1.0,,,,,,
460,,iti,,html-keyboard-response,460,733191,0.0-1.0-81.0-0.0-5.0,0,0,58537,,,,,,,,,,,,,,,,,,,,,,,,,,,,,,,,,,,,,,151.0,1.0,,,,,,
461,,choice,,html-keyboard-response,461,733315,0.0-1.0-82.0-0.0-0.0,0,0,58537,,117.0,,,75.0,80.0,89.0,1000.0,1500.0,0.0,2.0,0.0,20-80,,1.0,pen,tent,80.0,20.0,pen9,tent4,60.0,20.0,Aredpen3.jpg,Atent12.jpg,/static/Category_learning/Stimuli/Experimental_stims/pen/Aredpen3.jpg,/static/Category_learning/Stimuli/Experimental_stims/tent/Atent12.jpg,0.0,tent,pen,20.0,80.0,tent4,pen9,20.0,60.0,0.0,151.117,0.117,,,,,,
462,,confirmation,,html-keyboard-response,462,734708,0.0-1.0-82.0-0.0-1.0-0.0,0,0,58537,,,,,,80.0,,,,,,,,,,,,,,,,,,,,,,,,,,,,,,,,152.5,1.383,,,,,,
463,,isi,,html-keyboard-response,463,735716,0.0-1.0-82.0-0.0-2.0,0,0,58537,,,,,,,,,,,,,,,,,,,,,,,,,,,,,,,,,,,,,,153.5,1.0,,,,,,
464,,feedback,,html-keyboard-response,464,736724,0.0-1.0-82.0-0.0-3.0-0.0,0,0,58537,,,,,,80.0,,,,,,,,,,,,,,,,,,,,,,,,,,,,,,,,154.5,1.0,,,,,,
465,,iti,,html-keyboard-response,465,738230,0.0-1.0-82.0-0.0-5.0,0,0,58537,,,,,,,,,,,,,,,,,,,,,,,,,,,,,,,,,,,,,,156.0,1.5,,,,,,
466,,choice,,html-keyboard-response,466,738294,0.0-1.0-83.0-0.0-0.0,0,0,58537,,58.0,,,68.0,81.0,90.0,2000.0,1000.0,0.0,2.0,0.0,20-40,,1.0,bongo,yarn,40.0,20.0,bongo7,yarn6,20.0,20.0,26461075.thl.jpg,edwardian moment hpy sml.jpg,/static/Category_learning/Stimuli/Experimental_stims/bongo/26461075.thl.jpg,/static/Category_learning/Stimuli/Experimental_stims/yarn/edwardian moment hpy sml.jpg,1.0,bongo,yarn,40.0,20.0,bongo7,yarn6,20.0,20.0,0.0,156.058,0.058,,,,,,
467,,confirmation,,html-keyboard-response,467,739744,0.0-1.0-83.0-0.0-1.0-0.0,0,0,58537,,,,,,81.0,,,,,,,,,,,,,,,,,,,,,,,,,,,,,,,,157.5,1.442,,,,,,
468,,isi,,html-keyboard-response,468,741749,0.0-1.0-83.0-0.0-2.0,0,0,58537,,,,,,,,,,,,,,,,,,,,,,,,,,,,,,,,,,,,,,159.5,2.0,,,,,,
469,,feedback,,html-keyboard-response,469,742760,0.0-1.0-83.0-0.0-3.0-0.0,0,0,58537,,,,,,81.0,,,,,,,,,,,,,,,,,,,,,,,,,,,,,,,,160.5,1.0,,,,,,
470,,iti,,html-keyboard-response,470,743766,0.0-1.0-83.0-0.0-5.0,0,0,58537,,,,,,,,,,,,,,,,,,,,,,,,,,,,,,,,,,,,,,161.5,1.0,,,,,,
471,,choice,,html-keyboard-response,471,743793,0.0-1.0-84.0-0.0-0.0,0,0,58537,,18.0,,,75.0,82.0,91.0,3500.0,1000.0,0.0,2.0,0.0,40-40,,,desk,bongo,40.0,40.0,desk2,bongo15,60.0,40.0,AA Luffield Radial crescent Desk 1600mm x 1200mm.jpg,26390728.thl.jpg,/static/Category_learning/Stimuli/Experimental_stims/desk/AA Luffield Radial crescent Desk 1600mm x 1200mm.jpg,/static/Category_learning/Stimuli/Experimental_stims/bongo/26390728.thl.jpg,0.0,bongo,desk,40.0,40.0,bongo15,desk2,40.0,60.0,0.0,161.518,0.018,,,,,,
472,,confirmation,,html-keyboard-response,472,745281,0.0-1.0-84.0-0.0-1.0-0.0,0,0,58537,,,,,,82.0,,,,,,,,,,,,,,,,,,,,,,,,,,,,,,,,163.0,1.482,,,,,,
473,,isi,,html-keyboard-response,473,748790,0.0-1.0-84.0-0.0-2.0,0,0,58537,,,,,,,,,,,,,,,,,,,,,,,,,,,,,,,,,,,,,,166.5,3.5,,,,,,
474,,feedback,,html-keyboard-response,474,749798,0.0-1.0-84.0-0.0-3.0-0.0,0,0,58537,,,,,,82.0,,,,,,,,,,,,,,,,,,,,,,,,,,,,,,,,167.5,1.0,,,,,,
475,,iti,,html-keyboard-response,475,750804,0.0-1.0-84.0-0.0-5.0,0,0,58537,,,,,,,,,,,,,,,,,,,,,,,,,,,,,,,,,,,,,,168.5,1.0,,,,,,
476,,choice,,html-keyboard-response,476,750949,0.0-1.0-85.0-0.0-0.0,0,0,58537,,140.0,,,68.0,83.0,92.0,1500.0,1000.0,0.0,2.0,1.0,20-20,1.0,,tent,tent,20.0,20.0,tent4,tent10,20.0,0.0,Atent12.jpg,TENT-DUTCH-GD1-1.jpg,/static/Category_learning/Stimuli/Experimental_stims/tent/Atent12.jpg,/static/Category_learning/Stimuli/Experimental_stims/tent/TENT-DUTCH-GD1-1.jpg,1.0,tent,tent,20.0,20.0,tent4,tent10,20.0,0.0,0.0,168.64,0.14,,,,,,
477,,confirmation,,html-keyboard-response,477,752318,0.0-1.0-85.0-0.0-1.0-0.0,0,0,58537,,,,,,83.0,,,,,,,,,,,,,,,,,,,,,,,,,,,,,,,,170.0,1.36,,,,,,
478,,isi,,html-keyboard-response,478,753828,0.0-1.0-85.0-0.0-2.0,0,0,58537,,,,,,,,,,,,,,,,,,,,,,,,,,,,,,,,,,,,,,171.5,1.5,,,,,,
479,,feedback,,html-keyboard-response,479,754833,0.0-1.0-85.0-0.0-3.0-0.0,0,0,58537,,,,,,83.0,,,,,,,,,,,,,,,,,,,,,,,,,,,,,,,,172.5,1.0,,,,,,
480,,iti,,html-keyboard-response,480,755840,0.0-1.0-85.0-0.0-5.0,0,0,58537,,,,,,,,,,,,,,,,,,,,,,,,,,,,,,,,,,,,,,173.5,1.0,,,,,,
481,,choice,,html-keyboard-response,481,755847,0.0-1.0-86.0-0.0-0.0,0,0,58537,,0.0,,,75.0,84.0,93.0,3000.0,2000.0,0.0,2.0,1.0,20-20,1.0,,trumpet,trumpet,20.0,20.0,trumpet12,trumpet4,40.0,0.0,hornabariton.jpg,JUPITER+JTR1000S.jpg,/static/Category_learning/Stimuli/Experimental_stims/trumpet/hornabariton.jpg,/static/Category_learning/Stimuli/Experimental_stims/trumpet/JUPITER+JTR1000S.jpg,0.0,trumpet,trumpet,20.0,20.0,trumpet4,trumpet12,0.0,40.0,0.0,173.5,0.0,,,,,,
482,,confirmation,,html-keyboard-response,482,757354,0.0-1.0-86.0-0.0-1.0-0.0,0,0,58537,,,,,,84.0,,,,,,,,,,,,,,,,,,,,,,,,,,,,,,,,175.0,1.5,,,,,,
483,,isi,,html-keyboard-response,483,760383,0.0-1.0-86.0-0.0-2.0,0,0,58537,,,,,,,,,,,,,,,,,,,,,,,,,,,,,,,,,,,,,,178.0,3.0,,,,,,
484,,feedback,,html-keyboard-response,484,761391,0.0-1.0-86.0-0.0-3.0-0.0,0,0,58537,,,,,,84.0,,,,,,,,,,,,,,,,,,,,,,,,,,,,,,,,179.0,1.0,,,,,,
485,,iti,,html-keyboard-response,485,763398,0.0-1.0-86.0-0.0-5.0,0,0,58537,,,,,,,,,,,,,,,,,,,,,,,,,,,,,,,,,,,,,,181.0,2.0,,,,,,
