,success,ttype,start_time,trial_type,trial_index,time_elapsed,internal_node_id,warning,missed_checkup,PID,view_history,rt,responses,repeat_instructions,key_press,index,trial_num,isi,iti,is_practice,block,old_trial,pair_type,within_category,high_cat_on_left,left_category,right_category,left_category_value,right_category_value,left_exemplar,right_exemplar,left_exemplar_value,right_exemplar_value,left_img,right_img,left_img_path,right_img_path,no_response,onset,duration,left_chosen,chosen_category,unchosen_category,chosen_category_value,unchosen_category_value,chosen_exemplar,unchosen_exemplar,chosen_exemplar_value,unchosen_exemplar_value,end_practice,total_bonus_tally,category,category_group_value,category_value_response,did_not_enter_response
0,True,full_screen,d06032022hr1517,fullscreen,0,6320,0.0-0.0,0,0,59346,,,,,,,,,,,,,,,,,,,,,,,,,,,,,,,,,,,,,,,,,,,,,
1,,category_learning_instructions,,instructions,1,101427,0.0-1.0-0.0-0.0,0,0,59346,"[{""page_index"":0,""viewing_time"":19629},{""page_index"":1,""viewing_time"":17805},{""page_index"":2,""viewing_time"":15348},{""page_index"":3,""viewing_time"":14023},{""page_index"":4,""viewing_time"":8981},{""page_index"":5,""viewing_time"":15363},{""page_index"":6,""viewing_time"":3950}]",95100.0,,,,,,,,,,,,,,,,,,,,,,,,,,,,,,,,,,,,,,,,,,,
2,,category_learning_comprehension_check,,survey-multi-choice,2,126771,0.0-1.0-0.0-1.0,0,0,59346,,25330.0,"{""Q0"":""True"",""Q1"":""False"",""Q2"":""Change"",""Q3"":""D for left and K for right""}",1.0,,,,,,,,,,,,,,,,,,,,,,,,,,,,,,,,,,,,,,,,,
3,,missed_instruction_checkup,,html-keyboard-response,3,129856,0.0-1.0-0.0-2.0-0.0,0,0,59346,,3064.0,,,68.0,,,,,,,,,,,,,,,,,,,,,,,,,,,,,,,,,,,,,,,,
4,,category_learning_instructions,,instructions,4,187536,0.0-1.0-0.1-0.1,0,0,59346,"[{""page_index"":0,""viewing_time"":4602},{""page_index"":1,""viewing_time"":23526},{""page_index"":2,""viewing_time"":7318},{""page_index"":3,""viewing_time"":8574},{""page_index"":4,""viewing_time"":7384},{""page_index"":5,""viewing_time"":4405},{""page_index"":6,""viewing_time"":1864}]",57673.0,,,,,,,,,,,,,,,,,,,,,,,,,,,,,,,,,,,,,,,,,,,
5,,category_learning_comprehension_check,,survey-multi-choice,5,308273,0.0-1.0-0.1-1.1,0,0,59346,,120725.0,"{""Q0"":""False"",""Q1"":""False"",""Q2"":""Stay the same"",""Q3"":""D for left and K for right""}",1.0,,,,,,,,,,,,,,,,,,,,,,,,,,,,,,,,,,,,,,,,,
6,,missed_instruction_checkup,,html-keyboard-response,6,310600,0.0-1.0-0.1-2.1-0.1,0,0,59346,,2309.0,,,68.0,,,,,,,,,,,,,,,,,,,,,,,,,,,,,,,,,,,,,,,,
7,,category_learning_instructions,,instructions,7,326166,0.0-1.0-0.2-0.2,0,0,59346,"[{""page_index"":0,""viewing_time"":8762},{""page_index"":1,""viewing_time"":2194},{""page_index"":2,""viewing_time"":1290},{""page_index"":3,""viewing_time"":738},{""page_index"":4,""viewing_time"":738},{""page_index"":5,""viewing_time"":1028},{""page_index"":6,""viewing_time"":807}]",15558.0,,,,,,,,,,,,,,,,,,,,,,,,,,,,,,,,,,,,,,,,,,,
8,,category_learning_comprehension_check,,survey-multi-choice,8,347148,0.0-1.0-0.2-1.2,0,0,59346,,20957.0,"{""Q0"":""True"",""Q1"":""False"",""Q2"":""Stay the same"",""Q3"":""D for left and K for right""}",1.0,,,,,,,,,,,,,,,,,,,,,,,,,,,,,,,,,,,,,,,,,
9,,missed_instruction_checkup,,html-keyboard-response,9,348828,0.0-1.0-0.2-2.2-0.2,0,0,59346,,1664.0,,,68.0,,,,,,,,,,,,,,,,,,,,,,,,,,,,,,,,,,,,,,,,
10,,category_learning_instructions,,instructions,10,354900,0.0-1.0-0.3-0.3,0,0,59346,"[{""page_index"":0,""viewing_time"":2144},{""page_index"":1,""viewing_time"":990},{""page_index"":2,""viewing_time"":621},{""page_index"":3,""viewing_time"":631},{""page_index"":4,""viewing_time"":582},{""page_index"":5,""viewing_time"":495},{""page_index"":6,""viewing_time"":601}]",6065.0,,,,,,,,,,,,,,,,,,,,,,,,,,,,,,,,,,,,,,,,,,,
11,,category_learning_comprehension_check,,survey-multi-choice,11,382818,0.0-1.0-0.3-1.3,0,0,59346,,27907.0,"{""Q0"":""False"",""Q1"":""True"",""Q2"":""Stay the same"",""Q3"":""D for left and K for right""}",1.0,,,,,,,,,,,,,,,,,,,,,,,,,,,,,,,,,,,,,,,,,
12,,missed_instruction_checkup,,html-keyboard-response,12,384625,0.0-1.0-0.3-2.3-0.3,0,0,59346,,1787.0,,,68.0,,,,,,,,,,,,,,,,,,,,,,,,,,,,,,,,,,,,,,,,
13,,category_learning_instructions,,instructions,13,414181,0.0-1.0-0.4-0.4,0,0,59346,"[{""page_index"":0,""viewing_time"":2281},{""page_index"":1,""viewing_time"":747},{""page_index"":2,""viewing_time"":602},{""page_index"":3,""viewing_time"":601},{""page_index"":4,""viewing_time"":893},{""page_index"":3,""viewing_time"":437},{""page_index"":2,""viewing_time"":863},{""page_index"":1,""viewing_time"":4823},{""page_index"":2,""viewing_time"":11306},{""page_index"":3,""viewing_time"":4658},{""page_index"":4,""viewing_time"":786},{""page_index"":5,""viewing_time"":863},{""page_index"":6,""viewing_time"":690}]",29551.0,,,,,,,,,,,,,,,,,,,,,,,,,,,,,,,,,,,,,,,,,,,
14,,category_learning_comprehension_check,,survey-multi-choice,14,461378,0.0-1.0-0.4-1.4,0,0,59346,,47185.0,"{""Q0"":""True"",""Q1"":""True"",""Q2"":""Stay the same"",""Q3"":""D for left and K for right""}",0.0,,,,,,,,,,,,,,,,,,,,,,,,,,,,,,,,,,,,,,,,,
15,,,,html-keyboard-response,15,463601,0.0-1.0-1.0,0,0,59346,,2200.0,,,68.0,,,,,,,,,,,,,,,,,,,,,,,,,,,,,,,,,,,,,,,,
16,,choice,,html-keyboard-response,16,465119,0.0-1.0-2.0-0.0-0.0,0,0,59346,,,,,,0.0,0.0,1500.0,1000.0,1.0,0.0,0.0,20-80,,0.0,bagel,dumbbell,20.0,80.0,bagel1,dumbbell1,0.0,80.0,bagels_pumpernickel_large.jpg,31B64EN68AL._AA280_.jpg,/static/Category_learning/Stimuli/Practice_stims/bagel/bagels_pumpernickel_large.jpg,/static/Category_learning/Stimuli/Practice_stims/dumbbell/31B64EN68AL._AA280_.jpg,1.0,1.5,1.5,,,,,,,,,,,,,,,
17,,isi,,html-keyboard-response,17,466633,0.0-1.0-2.0-0.0-2.0,0,0,59346,,,,,,,,,,,,,,,,,,,,,,,,,,,,,3.0,1.5,,,,,,,,,,,,,,,
18,,no_response,,html-keyboard-response,18,467640,0.0-1.0-2.0-0.0-4.0-0.0,0,0,59346,,,,,,,,,,,,,,,,,,,,,,,,,,,,,4.0,1.0,,,,,,,,,,,,,,,
19,,iti,,html-keyboard-response,19,468658,0.0-1.0-2.0-0.0-5.0,0,0,59346,,,,,,,,,,,,,,,,,,,,,,,,,,,,,5.0,1.0,,,,,,,,,,,,,,,
20,,choice,,html-keyboard-response,20,469532,0.0-1.0-2.0-0.1-0.1,0,0,59346,,866.0,,,68.0,0.0,0.0,1500.0,1000.0,1.0,0.0,0.0,20-80,,0.0,bagel,dumbbell,20.0,80.0,bagel1,dumbbell1,0.0,80.0,bagels_pumpernickel_large.jpg,31B64EN68AL._AA280_.jpg,/static/Category_learning/Stimuli/Practice_stims/bagel/bagels_pumpernickel_large.jpg,/static/Category_learning/Stimuli/Practice_stims/dumbbell/31B64EN68AL._AA280_.jpg,0.0,5.866,0.866,1.0,bagel,dumbbell,20.0,80.0,bagel1,dumbbell1,0.0,80.0,,,,,,
21,,confirmation,,html-keyboard-response,21,470180,0.0-1.0-2.0-0.1-1.1-0.1,0,0,59346,,,,,,0.0,,,,,,,,,,,,,,,,,,,,,,,6.5,0.634,,,,,,,,,,,,,,,
22,,isi,,html-keyboard-response,22,471692,0.0-1.0-2.0-0.1-2.1,0,0,59346,,,,,,,,,,,,,,,,,,,,,,,,,,,,,8.0,1.5,,,,,,,,,,,,,,,
23,,feedback,,html-keyboard-response,23,472711,0.0-1.0-2.0-0.1-3.1-0.1,0,0,59346,,,,,,0.0,,,,,,,,,,,,,,,,,,,,,,,9.0,1.0,,,,,,,,,,,,,,,
24,,iti,,html-keyboard-response,24,473733,0.0-1.0-2.0-0.1-5.1,0,0,59346,,,,,,,,,,,,,,,,,,,,,,,,,,,,,10.0,1.0,,,,,,,,,,,,,,,
25,,choice,,html-keyboard-response,25,474492,0.0-1.0-3.0-0.0-0.0,0,0,59346,,752.0,,,68.0,1.0,1.0,3000.0,1500.0,1.0,0.0,0.0,20-40,,1.0,calculator,bagel,40.0,20.0,calculator2,bagel2,20.0,20.0,22829064.thl.jpg,bagels_cinnraisin_large.jpg,/static/Category_learning/Stimuli/Practice_stims/calculator/22829064.thl.jpg,/static/Category_learning/Stimuli/Practice_stims/bagel/bagels_cinnraisin_large.jpg,0.0,10.752,0.752,1.0,calculator,bagel,40.0,20.0,calculator2,bagel2,20.0,20.0,,,,,,
26,,confirmation,,html-keyboard-response,26,475261,0.0-1.0-3.0-0.0-1.0-0.0,0,0,59346,,,,,,1.0,,,,,,,,,,,,,,,,,,,,,,,11.5,0.748,,,,,,,,,,,,,,,
27,,isi,,html-keyboard-response,27,478284,0.0-1.0-3.0-0.0-2.0,0,0,59346,,,,,,,,,,,,,,,,,,,,,,,,,,,,,14.5,3.0,,,,,,,,,,,,,,,
28,,feedback,,html-keyboard-response,28,479300,0.0-1.0-3.0-0.0-3.0-0.0,0,0,59346,,,,,,1.0,,,,,,,,,,,,,,,,,,,,,,,15.5,1.0,,,,,,,,,,,,,,,
29,,iti,,html-keyboard-response,29,480815,0.0-1.0-3.0-0.0-5.0,0,0,59346,,,,,,,,,,,,,,,,,,,,,,,,,,,,,17.0,1.5,,,,,,,,,,,,,,,
30,,choice,,html-keyboard-response,30,481647,0.0-1.0-4.0-0.0-0.0,0,0,59346,,821.0,,,75.0,2.0,2.0,2000.0,3000.0,1.0,0.0,0.0,60-80,,0.0,clock,dumbbell,60.0,80.0,clock2,dumbbell2,60.0,100.0,26373355.thl.jpg,31K8MR6TMBL._SS500_.jpg,/static/Category_learning/Stimuli/Practice_stims/clock/26373355.thl.jpg,/static/Category_learning/Stimuli/Practice_stims/dumbbell/31K8MR6TMBL._SS500_.jpg,0.0,17.821,0.821,0.0,dumbbell,clock,80.0,60.0,dumbbell2,clock2,100.0,60.0,,,,,,
31,,confirmation,,html-keyboard-response,31,482353,0.0-1.0-4.0-0.0-1.0-0.0,0,0,59346,,,,,,2.0,,,,,,,,,,,,,,,,,,,,,,,18.5,0.679,,,,,,,,,,,,,,,
32,,isi,,html-keyboard-response,32,484371,0.0-1.0-4.0-0.0-2.0,0,0,59346,,,,,,,,,,,,,,,,,,,,,,,,,,,,,20.5,2.0,,,,,,,,,,,,,,,
33,,feedback,,html-keyboard-response,33,485390,0.0-1.0-4.0-0.0-3.0-0.0,0,0,59346,,,,,,2.0,,,,,,,,,,,,,,,,,,,,,,,21.5,1.0,,,,,,,,,,,,,,,
34,,iti,,html-keyboard-response,34,488408,0.0-1.0-4.0-0.0-5.0,0,0,59346,,,,,,,,,,,,,,,,,,,,,,,,,,,,,24.5,3.0,,,,,,,,,,,,,,,
35,,choice,,html-keyboard-response,35,489288,0.0-1.0-5.0-0.0-0.0,0,0,59346,,871.0,,,68.0,3.0,3.0,1000.0,2000.0,1.0,0.0,0.0,40-80,,0.0,calculator,clock,40.0,60.0,calculator1,clock1,40.0,40.0,22829184.thl.jpg,Aalarmclock2.jpg,/static/Category_learning/Stimuli/Practice_stims/calculator/22829184.thl.jpg,/static/Category_learning/Stimuli/Practice_stims/clock/Aalarmclock2.jpg,0.0,25.371,0.871,1.0,calculator,clock,40.0,60.0,calculator1,clock1,40.0,40.0,,,,,,
36,,confirmation,,html-keyboard-response,36,489938,0.0-1.0-5.0-0.0-1.0-0.0,0,0,59346,,,,,,3.0,,,,,,,,,,,,,,,,,,,,,,,26.0,0.629,,,,,,,,,,,,,,,
37,,isi,,html-keyboard-response,37,490951,0.0-1.0-5.0-0.0-2.0,0,0,59346,,,,,,,,,,,,,,,,,,,,,,,,,,,,,27.0,1.0,,,,,,,,,,,,,,,
38,,feedback,,html-keyboard-response,38,491966,0.0-1.0-5.0-0.0-3.0-0.0,0,0,59346,,,,,,3.0,,,,,,,,,,,,,,,,,,,,,,,28.0,1.0,,,,,,,,,,,,,,,
39,,iti,,html-keyboard-response,39,493974,0.0-1.0-5.0-0.0-5.0,0,0,59346,,,,,,,,,,,,,,,,,,,,,,,,,,,,,30.0,2.0,,,,,,,,,,,,,,,
40,,choice,,html-keyboard-response,40,494568,0.0-1.0-6.0-0.0-0.0,0,0,59346,,585.0,,,68.0,4.0,4.0,2500.0,2500.0,1.0,0.0,0.0,20-60,,1.0,dumbbell,bagel,80.0,20.0,dumbbell3,bagel3,100.0,40.0,41K7QVRX50L._SS500_.jpg,photo-169.jpg,/static/Category_learning/Stimuli/Practice_stims/dumbbell/41K7QVRX50L._SS500_.jpg,/static/Category_learning/Stimuli/Practice_stims/bagel/photo-169.jpg,0.0,30.585,0.585,1.0,dumbbell,bagel,80.0,20.0,dumbbell3,bagel3,100.0,40.0,1.0,,,,,
41,,confirmation,,html-keyboard-response,41,495493,0.0-1.0-6.0-0.0-1.0-0.0,0,0,59346,,,,,,4.0,,,,,,,,,,,,,,,,,,,,,,,31.5,0.915,,,,,,,,,,,,,,,
42,,isi,,html-keyboard-response,42,498005,0.0-1.0-6.0-0.0-2.0,0,0,59346,,,,,,,,,,,,,,,,,,,,,,,,,,,,,34.0,2.5,,,,,,,,,,,,,,,
43,,feedback,,html-keyboard-response,43,499021,0.0-1.0-6.0-0.0-3.0-0.0,0,0,59346,,,,,,4.0,,,,,,,,,,,,,,,,,,,,,,,35.0,1.0,,,,,,,,,,,,,,,
44,,iti,,html-keyboard-response,44,501536,0.0-1.0-6.0-0.0-5.0,0,0,59346,,,,,,,,,,,,,,,,,,,,,,,,,,,,,37.5,2.5,,,,,,,,,,,,,,,
45,,practice_over,,html-keyboard-response,45,505165,0.0-1.0-6.0-0.0-6.0-0.0,0,0,59346,,3623.0,,,68.0,4.0,,,,,,,,,,,,,,,,,,,,,,,,,,,,,,,,,,,,,,,
46,,start_run,,html-keyboard-response,46,507846,0.0-1.0-6.0-0.0-6.0-1.0,0,0,59346,,2673.0,,,84.0,,,,,,,,,,,,,,,,,,,,,,,,,,,,,,,,,,,,,,,,
47,,choice,,html-keyboard-response,47,509367,0.0-1.0-7.0-0.0-0.0,0,0,59346,,,,,,5.0,5.0,2000.0,3500.0,0.0,1.0,0.0,20-60,,0.0,necklace,bench,20.0,60.0,necklace15,bench3,40.0,40.0,necklascenew04.jpg,26419540.thl.jpg,/static/Category_learning/Stimuli/Experimental_stims/necklace/necklascenew04.jpg,/static/Category_learning/Stimuli/Experimental_stims/bench/26419540.thl.jpg,1.0,1.5,1.5,,,,,,,,,,,,,,,
48,,isi,,html-keyboard-response,48,511388,0.0-1.0-7.0-0.0-2.0,0,0,59346,,,,,,,,,,,,,,,,,,,,,,,,,,,,,3.5,2.0,,,,,,,,,,,,,,,
49,,no_response,,html-keyboard-response,49,512409,0.0-1.0-7.0-0.0-4.0-0.0,0,0,59346,,,,,,,,,,,,,,,,,,,,,,,,,,,,,4.5,1.0,,,,,,,,,,,,,,,
50,,iti,,html-keyboard-response,50,515963,0.0-1.0-7.0-0.0-5.0,0,0,59346,,,,,,,,,,,,,,,,,,,,,,,,,,,,,8.0,3.5,,,,,,,,,,,,,,,
51,,choice,,html-keyboard-response,51,516256,0.0-1.0-7.0-0.1-0.1,0,0,59346,,283.0,,,75.0,5.0,5.0,2000.0,3500.0,0.0,1.0,0.0,20-60,,0.0,necklace,bench,20.0,60.0,necklace15,bench3,40.0,40.0,necklascenew04.jpg,26419540.thl.jpg,/static/Category_learning/Stimuli/Experimental_stims/necklace/necklascenew04.jpg,/static/Category_learning/Stimuli/Experimental_stims/bench/26419540.thl.jpg,0.0,8.283,0.283,0.0,bench,necklace,60.0,20.0,bench3,necklace15,40.0,40.0,,,,,,
52,,confirmation,,html-keyboard-response,52,517490,0.0-1.0-7.0-0.1-1.1-0.1,0,0,59346,,,,,,5.0,,,,,,,,,,,,,,,,,,,,,,,9.5,1.217,,,,,,,,,,,,,,,
53,,isi,,html-keyboard-response,53,519509,0.0-1.0-7.0-0.1-2.1,0,0,59346,,,,,,,,,,,,,,,,,,,,,,,,,,,,,11.5,2.0,,,,,,,,,,,,,,,
54,,feedback,,html-keyboard-response,54,520518,0.0-1.0-7.0-0.1-3.1-0.1,0,0,59346,,,,,,5.0,,,,,,,,,,,,,,,,,,,,,,,12.5,1.0,,,,,,,,,,,,,,,
55,,iti,,html-keyboard-response,55,522027,0.0-1.0-7.0-0.1-5.1,0,0,59346,,,,,,,,,,,,,,,,,,,,,,,,,,,,,14.0,1.5,,,,,,,,,,,,,,,
56,,choice,,html-keyboard-response,56,522331,0.0-1.0-8.0-0.0-0.0,0,0,59346,,296.0,,,68.0,6.0,6.0,2000.0,1000.0,0.0,1.0,0.0,20-20,,,power strip,seashell,20.0,20.0,power strip8,seashell7,40.0,20.0,3118YGHQWXL._AA262_.jpg,seashell34.jpg,/static/Category_learning/Stimuli/Experimental_stims/power strip/3118YGHQWXL._AA262_.jpg,/static/Category_learning/Stimuli/Experimental_stims/seashell/seashell34.jpg,0.0,14.296,0.296,1.0,power strip,seashell,20.0,20.0,power strip8,seashell7,40.0,20.0,,,,,,
57,,confirmation,,html-keyboard-response,57,523546,0.0-1.0-8.0-0.0-1.0-0.0,0,0,59346,,,,,,6.0,,,,,,,,,,,,,,,,,,,,,,,15.5,1.204,,,,,,,,,,,,,,,
58,,isi,,html-keyboard-response,58,525566,0.0-1.0-8.0-0.0-2.0,0,0,59346,,,,,,,,,,,,,,,,,,,,,,,,,,,,,17.5,2.0,,,,,,,,,,,,,,,
59,,feedback,,html-keyboard-response,59,526581,0.0-1.0-8.0-0.0-3.0-0.0,0,0,59346,,,,,,6.0,,,,,,,,,,,,,,,,,,,,,,,18.5,1.0,,,,,,,,,,,,,,,
60,,iti,,html-keyboard-response,60,527601,0.0-1.0-8.0-0.0-5.0,0,0,59346,,,,,,,,,,,,,,,,,,,,,,,,,,,,,19.5,1.0,,,,,,,,,,,,,,,
61,,choice,,html-keyboard-response,61,528223,0.0-1.0-9.0-0.0-0.0,0,0,59346,,613.0,,,68.0,7.0,7.0,1500.0,2000.0,0.0,1.0,0.0,20-40,,1.0,telescope,poker card,40.0,20.0,telescope1,poker card9,20.0,40.0,celestron nexstar 114 gt reflector telescope.jpg,9817230.thl.jpg,/static/Category_learning/Stimuli/Experimental_stims/telescope/celestron nexstar 114 gt reflector telescope.jpg,/static/Category_learning/Stimuli/Experimental_stims/poker card/9817230.thl.jpg,0.0,20.113,0.613,1.0,telescope,poker card,40.0,20.0,telescope1,poker card9,20.0,40.0,,,,,,
62,,confirmation,,html-keyboard-response,62,529131,0.0-1.0-9.0-0.0-1.0-0.0,0,0,59346,,,,,,7.0,,,,,,,,,,,,,,,,,,,,,,,21.0,0.887,,,,,,,,,,,,,,,
63,,isi,,html-keyboard-response,63,530640,0.0-1.0-9.0-0.0-2.0,0,0,59346,,,,,,,,,,,,,,,,,,,,,,,,,,,,,22.5,1.5,,,,,,,,,,,,,,,
64,,feedback,,html-keyboard-response,64,531656,0.0-1.0-9.0-0.0-3.0-0.0,0,0,59346,,,,,,7.0,,,,,,,,,,,,,,,,,,,,,,,23.5,1.0,,,,,,,,,,,,,,,
65,,iti,,html-keyboard-response,65,533671,0.0-1.0-9.0-0.0-5.0,0,0,59346,,,,,,,,,,,,,,,,,,,,,,,,,,,,,25.5,2.0,,,,,,,,,,,,,,,
66,,choice,,html-keyboard-response,66,534523,0.0-1.0-10.0-0.0-0.0,0,0,59346,,843.0,,,68.0,8.0,8.0,3500.0,1000.0,0.0,1.0,0.0,60-60,,,door knob,dresser,60.0,60.0,door knob7,dresser4,40.0,80.0,doorknob2.jpg,ADRESSE40.jpg,/static/Category_learning/Stimuli/Experimental_stims/door knob/doorknob2.jpg,/static/Category_learning/Stimuli/Experimental_stims/dresser/ADRESSE40.jpg,0.0,26.343,0.843,1.0,door knob,dresser,60.0,60.0,door knob7,dresser4,40.0,80.0,,,,,,
67,,confirmation,,html-keyboard-response,67,535199,0.0-1.0-10.0-0.0-1.0-0.0,0,0,59346,,,,,,8.0,,,,,,,,,,,,,,,,,,,,,,,27.0,0.657,,,,,,,,,,,,,,,
68,,isi,,html-keyboard-response,68,538708,0.0-1.0-10.0-0.0-2.0,0,0,59346,,,,,,,,,,,,,,,,,,,,,,,,,,,,,30.5,3.5,,,,,,,,,,,,,,,
69,,feedback,,html-keyboard-response,69,539728,0.0-1.0-10.0-0.0-3.0-0.0,0,0,59346,,,,,,8.0,,,,,,,,,,,,,,,,,,,,,,,31.5,1.0,,,,,,,,,,,,,,,
70,,iti,,html-keyboard-response,70,540742,0.0-1.0-10.0-0.0-5.0,0,0,59346,,,,,,,,,,,,,,,,,,,,,,,,,,,,,32.5,1.0,,,,,,,,,,,,,,,
71,,choice,,html-keyboard-response,71,541374,0.0-1.0-11.0-0.0-0.0,0,0,59346,,622.0,,,68.0,9.0,9.0,1000.0,1000.0,0.0,1.0,0.0,20-60,,0.0,poker card,desk,20.0,60.0,poker card8,desk13,20.0,80.0,22864392.thl.jpg,26427865.thl.jpg,/static/Category_learning/Stimuli/Experimental_stims/poker card/22864392.thl.jpg,/static/Category_learning/Stimuli/Experimental_stims/desk/26427865.thl.jpg,0.0,33.122,0.622,1.0,poker card,desk,20.0,60.0,poker card8,desk13,20.0,80.0,,,,,,
72,,confirmation,,html-keyboard-response,72,542263,0.0-1.0-11.0-0.0-1.0-0.0,0,0,59346,,,,,,9.0,,,,,,,,,,,,,,,,,,,,,,,34.0,0.878,,,,,,,,,,,,,,,
73,,isi,,html-keyboard-response,73,543281,0.0-1.0-11.0-0.0-2.0,0,0,59346,,,,,,,,,,,,,,,,,,,,,,,,,,,,,35.0,1.0,,,,,,,,,,,,,,,
74,,feedback,,html-keyboard-response,74,544300,0.0-1.0-11.0-0.0-3.0-0.0,0,0,59346,,,,,,9.0,,,,,,,,,,,,,,,,,,,,,,,36.0,1.0,,,,,,,,,,,,,,,
75,,iti,,html-keyboard-response,75,545320,0.0-1.0-11.0-0.0-5.0,0,0,59346,,,,,,,,,,,,,,,,,,,,,,,,,,,,,37.0,1.0,,,,,,,,,,,,,,,
76,,choice,,html-keyboard-response,76,546168,0.0-1.0-12.0-0.0-0.0,0,0,59346,,842.0,,,68.0,10.0,10.0,1000.0,1000.0,0.0,1.0,0.0,20-60,,1.0,bench,nail polish,60.0,20.0,bench8,nail polish6,80.0,0.0,APARKBE14.jpg,127_t.jpg,/static/Category_learning/Stimuli/Experimental_stims/bench/APARKBE14.jpg,/static/Category_learning/Stimuli/Experimental_stims/nail polish/127_t.jpg,0.0,37.842,0.842,1.0,bench,nail polish,60.0,20.0,bench8,nail polish6,80.0,0.0,,,,,,
77,,confirmation,,html-keyboard-response,77,546840,0.0-1.0-12.0-0.0-1.0-0.0,0,0,59346,,,,,,10.0,,,,,,,,,,,,,,,,,,,,,,,38.5,0.658,,,,,,,,,,,,,,,
78,,isi,,html-keyboard-response,78,547853,0.0-1.0-12.0-0.0-2.0,0,0,59346,,,,,,,,,,,,,,,,,,,,,,,,,,,,,39.5,1.0,,,,,,,,,,,,,,,
79,,feedback,,html-keyboard-response,79,548868,0.0-1.0-12.0-0.0-3.0-0.0,0,0,59346,,,,,,10.0,,,,,,,,,,,,,,,,,,,,,,,40.5,1.0,,,,,,,,,,,,,,,
80,,iti,,html-keyboard-response,80,549888,0.0-1.0-12.0-0.0-5.0,0,0,59346,,,,,,,,,,,,,,,,,,,,,,,,,,,,,41.5,1.0,,,,,,,,,,,,,,,
81,,choice,,html-keyboard-response,81,550651,0.0-1.0-13.0-0.0-0.0,0,0,59346,,754.0,,,75.0,11.0,11.0,1500.0,3000.0,0.0,1.0,0.0,20-80,,0.0,pen,microscope,20.0,80.0,pen11,microscope4,0.0,80.0,pen01.jpg,55071208.JPG,/static/Category_learning/Stimuli/Experimental_stims/pen/pen01.jpg,/static/Category_learning/Stimuli/Experimental_stims/microscope/55071208.JPG,0.0,42.254,0.754,0.0,microscope,pen,80.0,20.0,microscope4,pen11,80.0,0.0,,,,,,
82,,confirmation,,html-keyboard-response,82,551415,0.0-1.0-13.0-0.0-1.0-0.0,0,0,59346,,,,,,11.0,,,,,,,,,,,,,,,,,,,,,,,43.0,0.746,,,,,,,,,,,,,,,
83,,isi,,html-keyboard-response,83,552931,0.0-1.0-13.0-0.0-2.0,0,0,59346,,,,,,,,,,,,,,,,,,,,,,,,,,,,,44.5,1.5,,,,,,,,,,,,,,,
84,,feedback,,html-keyboard-response,84,553951,0.0-1.0-13.0-0.0-3.0-0.0,0,0,59346,,,,,,11.0,,,,,,,,,,,,,,,,,,,,,,,45.5,1.0,,,,,,,,,,,,,,,
85,,iti,,html-keyboard-response,85,556969,0.0-1.0-13.0-0.0-5.0,0,0,59346,,,,,,,,,,,,,,,,,,,,,,,,,,,,,48.5,3.0,,,,,,,,,,,,,,,
86,,choice,,html-keyboard-response,86,557720,0.0-1.0-14.0-0.0-0.0,0,0,59346,,743.0,,,68.0,12.0,12.0,1500.0,2000.0,0.0,1.0,0.0,20-60,,0.0,necklace,bowl,20.0,60.0,necklace1,bowl14,0.0,60.0,26443173.thl.jpg,Aredglassbowl.jpg,/static/Category_learning/Stimuli/Experimental_stims/necklace/26443173.thl.jpg,/static/Category_learning/Stimuli/Experimental_stims/bowl/Aredglassbowl.jpg,0.0,49.243,0.743,1.0,necklace,bowl,20.0,60.0,necklace1,bowl14,0.0,60.0,,,,,,
87,,confirmation,,html-keyboard-response,87,558500,0.0-1.0-14.0-0.0-1.0-0.0,0,0,59346,,,,,,12.0,,,,,,,,,,,,,,,,,,,,,,,50.0,0.757,,,,,,,,,,,,,,,
88,,isi,,html-keyboard-response,88,560023,0.0-1.0-14.0-0.0-2.0,0,0,59346,,,,,,,,,,,,,,,,,,,,,,,,,,,,,51.5,1.5,,,,,,,,,,,,,,,
89,,feedback,,html-keyboard-response,89,561042,0.0-1.0-14.0-0.0-3.0-0.0,0,0,59346,,,,,,12.0,,,,,,,,,,,,,,,,,,,,,,,52.5,1.0,,,,,,,,,,,,,,,
90,,iti,,html-keyboard-response,90,563053,0.0-1.0-14.0-0.0-5.0,0,0,59346,,,,,,,,,,,,,,,,,,,,,,,,,,,,,54.5,2.0,,,,,,,,,,,,,,,
91,,choice,,html-keyboard-response,91,563932,0.0-1.0-15.0-0.0-0.0,0,0,59346,,869.0,,,68.0,13.0,13.0,3500.0,3500.0,0.0,1.0,1.0,60-60,1.0,,bench,bench,60.0,60.0,bench8,bench3,80.0,40.0,APARKBE14.jpg,26419540.thl.jpg,/static/Category_learning/Stimuli/Experimental_stims/bench/APARKBE14.jpg,/static/Category_learning/Stimuli/Experimental_stims/bench/26419540.thl.jpg,0.0,55.369,0.869,1.0,bench,bench,60.0,60.0,bench8,bench3,80.0,40.0,,,,,,
92,,confirmation,,html-keyboard-response,92,564586,0.0-1.0-15.0-0.0-1.0-0.0,0,0,59346,,,,,,13.0,,,,,,,,,,,,,,,,,,,,,,,56.0,0.631,,,,,,,,,,,,,,,
93,,isi,,html-keyboard-response,93,568096,0.0-1.0-15.0-0.0-2.0,0,0,59346,,,,,,,,,,,,,,,,,,,,,,,,,,,,,59.5,3.5,,,,,,,,,,,,,,,
94,,feedback,,html-keyboard-response,94,569111,0.0-1.0-15.0-0.0-3.0-0.0,0,0,59346,,,,,,13.0,,,,,,,,,,,,,,,,,,,,,,,60.5,1.0,,,,,,,,,,,,,,,
95,,iti,,html-keyboard-response,95,572626,0.0-1.0-15.0-0.0-5.0,0,0,59346,,,,,,,,,,,,,,,,,,,,,,,,,,,,,64.0,3.5,,,,,,,,,,,,,,,
96,,choice,,html-keyboard-response,96,573426,0.0-1.0-16.0-0.0-0.0,0,0,59346,,791.0,,,75.0,14.0,14.0,1000.0,1000.0,0.0,1.0,0.0,60-80,,1.0,microscope,bench,80.0,60.0,microscope12,bench12,60.0,80.0,usbdigitalmicroscope1_small1.jpg,22927976.thl.jpg,/static/Category_learning/Stimuli/Experimental_stims/microscope/usbdigitalmicroscope1_small1.jpg,/static/Category_learning/Stimuli/Experimental_stims/bench/22927976.thl.jpg,0.0,64.791,0.791,0.0,bench,microscope,60.0,80.0,bench12,microscope12,80.0,60.0,,,,,,
97,,confirmation,,html-keyboard-response,97,574147,0.0-1.0-16.0-0.0-1.0-0.0,0,0,59346,,,,,,14.0,,,,,,,,,,,,,,,,,,,,,,,65.5,0.709,,,,,,,,,,,,,,,
98,,isi,,html-keyboard-response,98,575165,0.0-1.0-16.0-0.0-2.0,0,0,59346,,,,,,,,,,,,,,,,,,,,,,,,,,,,,66.5,1.0,,,,,,,,,,,,,,,
99,,feedback,,html-keyboard-response,99,576183,0.0-1.0-16.0-0.0-3.0-0.0,0,0,59346,,,,,,14.0,,,,,,,,,,,,,,,,,,,,,,,67.5,1.0,,,,,,,,,,,,,,,
100,,iti,,html-keyboard-response,100,577195,0.0-1.0-16.0-0.0-5.0,0,0,59346,,,,,,,,,,,,,,,,,,,,,,,,,,,,,68.5,1.0,,,,,,,,,,,,,,,
101,,choice,,html-keyboard-response,101,577896,0.0-1.0-17.0-0.0-0.0,0,0,59346,,691.0,,,68.0,15.0,15.0,1000.0,1000.0,0.0,1.0,1.0,20-60,0.0,,door knob,power strip,60.0,20.0,door knob7,power strip8,40.0,40.0,doorknob2.jpg,3118YGHQWXL._AA262_.jpg,/static/Category_learning/Stimuli/Experimental_stims/door knob/doorknob2.jpg,/static/Category_learning/Stimuli/Experimental_stims/power strip/3118YGHQWXL._AA262_.jpg,0.0,69.191,0.691,1.0,door knob,power strip,60.0,20.0,door knob7,power strip8,40.0,40.0,,,,,,
102,,confirmation,,html-keyboard-response,102,578722,0.0-1.0-17.0-0.0-1.0-0.0,0,0,59346,,,,,,15.0,,,,,,,,,,,,,,,,,,,,,,,70.0,0.809,,,,,,,,,,,,,,,
103,,isi,,html-keyboard-response,103,579737,0.0-1.0-17.0-0.0-2.0,0,0,59346,,,,,,,,,,,,,,,,,,,,,,,,,,,,,71.0,1.0,,,,,,,,,,,,,,,
104,,feedback,,html-keyboard-response,104,580747,0.0-1.0-17.0-0.0-3.0-0.0,0,0,59346,,,,,,15.0,,,,,,,,,,,,,,,,,,,,,,,72.0,1.0,,,,,,,,,,,,,,,
105,,iti,,html-keyboard-response,105,581768,0.0-1.0-17.0-0.0-5.0,0,0,59346,,,,,,,,,,,,,,,,,,,,,,,,,,,,,73.0,1.0,,,,,,,,,,,,,,,
106,,choice,,html-keyboard-response,106,582556,0.0-1.0-18.0-0.0-0.0,0,0,59346,,779.0,,,75.0,16.0,16.0,1000.0,1000.0,0.0,1.0,0.0,20-40,,0.0,poker card,yarn,20.0,40.0,poker card3,yarn4,0.0,40.0,9817131.thl.jpg,amethyst dreaming boho hy sml.jpg,/static/Category_learning/Stimuli/Experimental_stims/poker card/9817131.thl.jpg,/static/Category_learning/Stimuli/Experimental_stims/yarn/amethyst dreaming boho hy sml.jpg,0.0,73.779,0.779,0.0,yarn,poker card,40.0,20.0,yarn4,poker card3,40.0,0.0,,,,,,
107,,confirmation,,html-keyboard-response,107,583289,0.0-1.0-18.0-0.0-1.0-0.0,0,0,59346,,,,,,16.0,,,,,,,,,,,,,,,,,,,,,,,74.5,0.721,,,,,,,,,,,,,,,
108,,isi,,html-keyboard-response,108,584305,0.0-1.0-18.0-0.0-2.0,0,0,59346,,,,,,,,,,,,,,,,,,,,,,,,,,,,,75.5,1.0,,,,,,,,,,,,,,,
109,,feedback,,html-keyboard-response,109,585321,0.0-1.0-18.0-0.0-3.0-0.0,0,0,59346,,,,,,16.0,,,,,,,,,,,,,,,,,,,,,,,76.5,1.0,,,,,,,,,,,,,,,
110,,iti,,html-keyboard-response,110,586339,0.0-1.0-18.0-0.0-5.0,0,0,59346,,,,,,,,,,,,,,,,,,,,,,,,,,,,,77.5,1.0,,,,,,,,,,,,,,,
111,,choice,,html-keyboard-response,111,586941,0.0-1.0-19.0-0.0-0.0,0,0,59346,,592.0,,,68.0,17.0,17.0,3500.0,1000.0,0.0,1.0,0.0,40-80,,0.0,trumpet,microscope,40.0,80.0,trumpet11,microscope8,20.0,80.0,JUPITER+JTR604L.jpg,AMICROS21.jpg,/static/Category_learning/Stimuli/Experimental_stims/trumpet/JUPITER+JTR604L.jpg,/static/Category_learning/Stimuli/Experimental_stims/microscope/AMICROS21.jpg,0.0,78.092,0.592,1.0,trumpet,microscope,40.0,80.0,trumpet11,microscope8,20.0,80.0,,,,,,
112,,confirmation,,html-keyboard-response,112,587868,0.0-1.0-19.0-0.0-1.0-0.0,0,0,59346,,,,,,17.0,,,,,,,,,,,,,,,,,,,,,,,79.0,0.908,,,,,,,,,,,,,,,
113,,isi,,html-keyboard-response,113,591384,0.0-1.0-19.0-0.0-2.0,0,0,59346,,,,,,,,,,,,,,,,,,,,,,,,,,,,,82.5,3.5,,,,,,,,,,,,,,,
114,,feedback,,html-keyboard-response,114,592402,0.0-1.0-19.0-0.0-3.0-0.0,0,0,59346,,,,,,17.0,,,,,,,,,,,,,,,,,,,,,,,83.5,1.0,,,,,,,,,,,,,,,
115,,iti,,html-keyboard-response,115,593410,0.0-1.0-19.0-0.0-5.0,0,0,59346,,,,,,,,,,,,,,,,,,,,,,,,,,,,,84.5,1.0,,,,,,,,,,,,,,,
116,,choice,,html-keyboard-response,116,594063,0.0-1.0-20.0-0.0-0.0,0,0,59346,,644.0,,,68.0,18.0,18.0,1500.0,1000.0,0.0,1.0,0.0,60-80,,0.0,baby carriage,hammer,60.0,80.0,baby carriage5,hammer8,80.0,80.0,Baby_Stroller.jpg,ct1006_hammer.jpg,/static/Category_learning/Stimuli/Experimental_stims/baby carriage/Baby_Stroller.jpg,/static/Category_learning/Stimuli/Experimental_stims/hammer/ct1006_hammer.jpg,0.0,85.144,0.644,1.0,baby carriage,hammer,60.0,80.0,baby carriage5,hammer8,80.0,80.0,,,,,,
117,,confirmation,,html-keyboard-response,117,594940,0.0-1.0-20.0-0.0-1.0-0.0,0,0,59346,,,,,,18.0,,,,,,,,,,,,,,,,,,,,,,,86.0,0.856,,,,,,,,,,,,,,,
118,,isi,,html-keyboard-response,118,596458,0.0-1.0-20.0-0.0-2.0,0,0,59346,,,,,,,,,,,,,,,,,,,,,,,,,,,,,87.5,1.5,,,,,,,,,,,,,,,
119,,feedback,,html-keyboard-response,119,597481,0.0-1.0-20.0-0.0-3.0-0.0,0,0,59346,,,,,,18.0,,,,,,,,,,,,,,,,,,,,,,,88.5,1.0,,,,,,,,,,,,,,,
120,,iti,,html-keyboard-response,120,598487,0.0-1.0-20.0-0.0-5.0,0,0,59346,,,,,,,,,,,,,,,,,,,,,,,,,,,,,89.5,1.0,,,,,,,,,,,,,,,
121,,choice,,html-keyboard-response,121,599287,0.0-1.0-21.0-0.0-0.0,0,0,59346,,791.0,,,68.0,19.0,19.0,1500.0,3500.0,0.0,1.0,0.0,60-60,,,fan,flashlight,60.0,60.0,fan6,flashlight1,60.0,40.0,30090.fpx.jpg,Graphite3D.jpg,/static/Category_learning/Stimuli/Experimental_stims/fan/30090.fpx.jpg,/static/Category_learning/Stimuli/Experimental_stims/flashlight/Graphite3D.jpg,0.0,90.291,0.791,1.0,fan,flashlight,60.0,60.0,fan6,flashlight1,60.0,40.0,,,,,,
122,,confirmation,,html-keyboard-response,122,600014,0.0-1.0-21.0-0.0-1.0-0.0,0,0,59346,,,,,,19.0,,,,,,,,,,,,,,,,,,,,,,,91.0,0.709,,,,,,,,,,,,,,,
123,,isi,,html-keyboard-response,123,601530,0.0-1.0-21.0-0.0-2.0,0,0,59346,,,,,,,,,,,,,,,,,,,,,,,,,,,,,92.5,1.5,,,,,,,,,,,,,,,
124,,feedback,,html-keyboard-response,124,602548,0.0-1.0-21.0-0.0-3.0-0.0,0,0,59346,,,,,,19.0,,,,,,,,,,,,,,,,,,,,,,,93.5,1.0,,,,,,,,,,,,,,,
125,,iti,,html-keyboard-response,125,606069,0.0-1.0-21.0-0.0-5.0,0,0,59346,,,,,,,,,,,,,,,,,,,,,,,,,,,,,97.0,3.5,,,,,,,,,,,,,,,
126,,choice,,html-keyboard-response,126,606769,0.0-1.0-22.0-0.0-0.0,0,0,59346,,691.0,,,75.0,20.0,20.0,1000.0,1000.0,0.0,1.0,0.0,20-80,,1.0,frame,patio lounge chair,80.0,20.0,frame11,patio lounge chair9,100.0,20.0,AFRAME139.jpg,43-3.jpg,/static/Category_learning/Stimuli/Experimental_stims/frame/AFRAME139.jpg,/static/Category_learning/Stimuli/Experimental_stims/patio lounge chair/43-3.jpg,0.0,97.691,0.691,0.0,patio lounge chair,frame,20.0,80.0,patio lounge chair9,frame11,20.0,100.0,,,,,,
127,,confirmation,,html-keyboard-response,127,607601,0.0-1.0-22.0-0.0-1.0-0.0,0,0,59346,,,,,,20.0,,,,,,,,,,,,,,,,,,,,,,,98.5,0.809,,,,,,,,,,,,,,,
128,,isi,,html-keyboard-response,128,608614,0.0-1.0-22.0-0.0-2.0,0,0,59346,,,,,,,,,,,,,,,,,,,,,,,,,,,,,99.5,1.0,,,,,,,,,,,,,,,
129,,feedback,,html-keyboard-response,129,609633,0.0-1.0-22.0-0.0-3.0-0.0,0,0,59346,,,,,,20.0,,,,,,,,,,,,,,,,,,,,,,,100.5,1.0,,,,,,,,,,,,,,,
130,,iti,,html-keyboard-response,130,610653,0.0-1.0-22.0-0.0-5.0,0,0,59346,,,,,,,,,,,,,,,,,,,,,,,,,,,,,101.5,1.0,,,,,,,,,,,,,,,
131,,choice,,html-keyboard-response,131,611394,0.0-1.0-23.0-0.0-0.0,0,0,59346,,732.0,,,68.0,21.0,21.0,2000.0,1000.0,0.0,1.0,0.0,40-80,,0.0,telescope,license plate,40.0,80.0,telescope11,license plate14,40.0,100.0,digimarc.ms03.jpg,fl-hel-bel.jpg,/static/Category_learning/Stimuli/Experimental_stims/telescope/digimarc.ms03.jpg,/static/Category_learning/Stimuli/Experimental_stims/license plate/fl-hel-bel.jpg,0.0,102.232,0.732,1.0,telescope,license plate,40.0,80.0,telescope11,license plate14,40.0,100.0,,,,,,
132,,confirmation,,html-keyboard-response,132,612176,0.0-1.0-23.0-0.0-1.0-0.0,0,0,59346,,,,,,21.0,,,,,,,,,,,,,,,,,,,,,,,103.0,0.768,,,,,,,,,,,,,,,
133,,isi,,html-keyboard-response,133,614193,0.0-1.0-23.0-0.0-2.0,0,0,59346,,,,,,,,,,,,,,,,,,,,,,,,,,,,,105.0,2.0,,,,,,,,,,,,,,,
134,,feedback,,html-keyboard-response,134,615208,0.0-1.0-23.0-0.0-3.0-0.0,0,0,59346,,,,,,21.0,,,,,,,,,,,,,,,,,,,,,,,106.0,1.0,,,,,,,,,,,,,,,
135,,iti,,html-keyboard-response,135,616226,0.0-1.0-23.0-0.0-5.0,0,0,59346,,,,,,,,,,,,,,,,,,,,,,,,,,,,,107.0,1.0,,,,,,,,,,,,,,,
136,,choice,,html-keyboard-response,136,616872,0.0-1.0-24.0-0.0-0.0,0,0,59346,,637.0,,,68.0,22.0,22.0,1000.0,1500.0,0.0,1.0,1.0,40-40,1.0,,telescope,telescope,40.0,40.0,telescope1,telescope11,20.0,40.0,celestron nexstar 114 gt reflector telescope.jpg,digimarc.ms03.jpg,/static/Category_learning/Stimuli/Experimental_stims/telescope/celestron nexstar 114 gt reflector telescope.jpg,/static/Category_learning/Stimuli/Experimental_stims/telescope/digimarc.ms03.jpg,0.0,107.637,0.637,1.0,telescope,telescope,40.0,40.0,telescope1,telescope11,20.0,40.0,,,,,,
137,,confirmation,,html-keyboard-response,137,617761,0.0-1.0-24.0-0.0-1.0-0.0,0,0,59346,,,,,,22.0,,,,,,,,,,,,,,,,,,,,,,,108.5,0.863,,,,,,,,,,,,,,,
138,,isi,,html-keyboard-response,138,618769,0.0-1.0-24.0-0.0-2.0,0,0,59346,,,,,,,,,,,,,,,,,,,,,,,,,,,,,109.5,1.0,,,,,,,,,,,,,,,
139,,feedback,,html-keyboard-response,139,619782,0.0-1.0-24.0-0.0-3.0-0.0,0,0,59346,,,,,,22.0,,,,,,,,,,,,,,,,,,,,,,,110.5,1.0,,,,,,,,,,,,,,,
140,,iti,,html-keyboard-response,140,621297,0.0-1.0-24.0-0.0-5.0,0,0,59346,,,,,,,,,,,,,,,,,,,,,,,,,,,,,112.0,1.5,,,,,,,,,,,,,,,
141,,choice,,html-keyboard-response,141,622309,0.0-1.0-25.0-0.0-0.0,0,0,59346,,1004.0,,,75.0,23.0,23.0,1000.0,1500.0,0.0,1.0,0.0,40-80,,1.0,license plate,train,80.0,40.0,license plate9,train6,60.0,20.0,nm-dhg089.jpg,train9.jpg,/static/Category_learning/Stimuli/Experimental_stims/license plate/nm-dhg089.jpg,/static/Category_learning/Stimuli/Experimental_stims/train/train9.jpg,0.0,113.004,1.004,0.0,train,license plate,40.0,80.0,train6,license plate9,20.0,60.0,,,,,,
142,,confirmation,,html-keyboard-response,142,622830,0.0-1.0-25.0-0.0-1.0-0.0,0,0,59346,,,,,,23.0,,,,,,,,,,,,,,,,,,,,,,,113.5,0.496,,,,,,,,,,,,,,,
143,,isi,,html-keyboard-response,143,623850,0.0-1.0-25.0-0.0-2.0,0,0,59346,,,,,,,,,,,,,,,,,,,,,,,,,,,,,114.5,1.0,,,,,,,,,,,,,,,
144,,feedback,,html-keyboard-response,144,624867,0.0-1.0-25.0-0.0-3.0-0.0,0,0,59346,,,,,,23.0,,,,,,,,,,,,,,,,,,,,,,,115.5,1.0,,,,,,,,,,,,,,,
145,,iti,,html-keyboard-response,145,626387,0.0-1.0-25.0-0.0-5.0,0,0,59346,,,,,,,,,,,,,,,,,,,,,,,,,,,,,117.0,1.5,,,,,,,,,,,,,,,
146,,choice,,html-keyboard-response,146,627135,0.0-1.0-26.0-0.0-0.0,0,0,59346,,739.0,,,68.0,24.0,24.0,2000.0,1500.0,0.0,1.0,1.0,20-40,0.0,,trumpet,poker card,40.0,20.0,trumpet11,poker card8,20.0,20.0,JUPITER+JTR604L.jpg,22864392.thl.jpg,/static/Category_learning/Stimuli/Experimental_stims/trumpet/JUPITER+JTR604L.jpg,/static/Category_learning/Stimuli/Experimental_stims/poker card/22864392.thl.jpg,0.0,117.739,0.739,1.0,trumpet,poker card,40.0,20.0,trumpet11,poker card8,20.0,20.0,,,,,,
147,,confirmation,,html-keyboard-response,147,627911,0.0-1.0-26.0-0.0-1.0-0.0,0,0,59346,,,,,,24.0,,,,,,,,,,,,,,,,,,,,,,,118.5,0.761,,,,,,,,,,,,,,,
148,,isi,,html-keyboard-response,148,629930,0.0-1.0-26.0-0.0-2.0,0,0,59346,,,,,,,,,,,,,,,,,,,,,,,,,,,,,120.5,2.0,,,,,,,,,,,,,,,
149,,feedback,,html-keyboard-response,149,630951,0.0-1.0-26.0-0.0-3.0-0.0,0,0,59346,,,,,,24.0,,,,,,,,,,,,,,,,,,,,,,,121.5,1.0,,,,,,,,,,,,,,,
150,,iti,,html-keyboard-response,150,632468,0.0-1.0-26.0-0.0-5.0,0,0,59346,,,,,,,,,,,,,,,,,,,,,,,,,,,,,123.0,1.5,,,,,,,,,,,,,,,
151,,choice,,html-keyboard-response,151,633230,0.0-1.0-27.0-0.0-0.0,0,0,59346,,753.0,,,75.0,25.0,25.0,1500.0,2000.0,0.0,1.0,0.0,40-60,,0.0,trumpet,flashlight,40.0,60.0,trumpet4,flashlight2,20.0,60.0,JUPITER+JTR1000S.jpg,AV-9 No Battery Flashlight.jpg,/static/Category_learning/Stimuli/Experimental_stims/trumpet/JUPITER+JTR1000S.jpg,/static/Category_learning/Stimuli/Experimental_stims/flashlight/AV-9 No Battery Flashlight.jpg,0.0,123.753,0.753,0.0,flashlight,trumpet,60.0,40.0,flashlight2,trumpet4,60.0,20.0,,,,,,
152,,confirmation,,html-keyboard-response,152,633998,0.0-1.0-27.0-0.0-1.0-0.0,0,0,59346,,,,,,25.0,,,,,,,,,,,,,,,,,,,,,,,124.5,0.747,,,,,,,,,,,,,,,
153,,isi,,html-keyboard-response,153,635515,0.0-1.0-27.0-0.0-2.0,0,0,59346,,,,,,,,,,,,,,,,,,,,,,,,,,,,,126.0,1.5,,,,,,,,,,,,,,,
154,,feedback,,html-keyboard-response,154,636532,0.0-1.0-27.0-0.0-3.0-0.0,0,0,59346,,,,,,25.0,,,,,,,,,,,,,,,,,,,,,,,127.0,1.0,,,,,,,,,,,,,,,
155,,iti,,html-keyboard-response,155,638553,0.0-1.0-27.0-0.0-5.0,0,0,59346,,,,,,,,,,,,,,,,,,,,,,,,,,,,,129.0,2.0,,,,,,,,,,,,,,,
156,,choice,,html-keyboard-response,156,639213,0.0-1.0-28.0-0.0-0.0,0,0,59346,,651.0,,,68.0,26.0,26.0,1500.0,3000.0,0.0,1.0,0.0,40-60,,0.0,stool,bowl,40.0,60.0,stool9,bowl8,40.0,40.0,ASTOOL7.jpg,ASLVBOWL.jpg,/static/Category_learning/Stimuli/Experimental_stims/stool/ASTOOL7.jpg,/static/Category_learning/Stimuli/Experimental_stims/bowl/ASLVBOWL.jpg,0.0,129.651,0.651,1.0,stool,bowl,40.0,60.0,stool9,bowl8,40.0,40.0,,,,,,
157,,confirmation,,html-keyboard-response,157,640078,0.0-1.0-28.0-0.0-1.0-0.0,0,0,59346,,,,,,26.0,,,,,,,,,,,,,,,,,,,,,,,130.5,0.849,,,,,,,,,,,,,,,
158,,isi,,html-keyboard-response,158,641590,0.0-1.0-28.0-0.0-2.0,0,0,59346,,,,,,,,,,,,,,,,,,,,,,,,,,,,,132.0,1.5,,,,,,,,,,,,,,,
159,,feedback,,html-keyboard-response,159,642608,0.0-1.0-28.0-0.0-3.0-0.0,0,0,59346,,,,,,26.0,,,,,,,,,,,,,,,,,,,,,,,133.0,1.0,,,,,,,,,,,,,,,
160,,iti,,html-keyboard-response,160,645620,0.0-1.0-28.0-0.0-5.0,0,0,59346,,,,,,,,,,,,,,,,,,,,,,,,,,,,,136.0,3.0,,,,,,,,,,,,,,,
161,,choice,,html-keyboard-response,161,646384,0.0-1.0-29.0-0.0-0.0,0,0,59346,,753.0,,,68.0,27.0,27.0,1000.0,1000.0,0.0,1.0,0.0,80-80,,,key chain,lipstick,80.0,80.0,key chain8,lipstick5,100.0,80.0,Keychain01.jpg,P35719_hero.jpg,/static/Category_learning/Stimuli/Experimental_stims/key chain/Keychain01.jpg,/static/Category_learning/Stimuli/Experimental_stims/lipstick/P35719_hero.jpg,0.0,136.753,0.753,1.0,key chain,lipstick,80.0,80.0,key chain8,lipstick5,100.0,80.0,,,,,,
162,,confirmation,,html-keyboard-response,162,647150,0.0-1.0-29.0-0.0-1.0-0.0,0,0,59346,,,,,,27.0,,,,,,,,,,,,,,,,,,,,,,,137.5,0.747,,,,,,,,,,,,,,,
163,,isi,,html-keyboard-response,163,648171,0.0-1.0-29.0-0.0-2.0,0,0,59346,,,,,,,,,,,,,,,,,,,,,,,,,,,,,138.5,1.0,,,,,,,,,,,,,,,
164,,feedback,,html-keyboard-response,164,649193,0.0-1.0-29.0-0.0-3.0-0.0,0,0,59346,,,,,,27.0,,,,,,,,,,,,,,,,,,,,,,,139.5,1.0,,,,,,,,,,,,,,,
165,,iti,,html-keyboard-response,165,650203,0.0-1.0-29.0-0.0-5.0,0,0,59346,,,,,,,,,,,,,,,,,,,,,,,,,,,,,140.5,1.0,,,,,,,,,,,,,,,
166,,choice,,html-keyboard-response,166,650800,0.0-1.0-30.0-0.0-0.0,0,0,59346,,589.0,,,75.0,28.0,28.0,3500.0,1500.0,0.0,1.0,0.0,60-60,,,bench,desk,60.0,60.0,bench7,desk5,40.0,80.0,ACONBENCH.jpg,ADESK6.jpg,/static/Category_learning/Stimuli/Experimental_stims/bench/ACONBENCH.jpg,/static/Category_learning/Stimuli/Experimental_stims/desk/ADESK6.jpg,0.0,141.089,0.589,0.0,desk,bench,60.0,60.0,desk5,bench7,80.0,40.0,,,,,,
167,,confirmation,,html-keyboard-response,167,651732,0.0-1.0-30.0-0.0-1.0-0.0,0,0,59346,,,,,,28.0,,,,,,,,,,,,,,,,,,,,,,,142.0,0.911,,,,,,,,,,,,,,,
168,,isi,,html-keyboard-response,168,655253,0.0-1.0-30.0-0.0-2.0,0,0,59346,,,,,,,,,,,,,,,,,,,,,,,,,,,,,145.5,3.5,,,,,,,,,,,,,,,
169,,feedback,,html-keyboard-response,169,656276,0.0-1.0-30.0-0.0-3.0-0.0,0,0,59346,,,,,,28.0,,,,,,,,,,,,,,,,,,,,,,,146.5,1.0,,,,,,,,,,,,,,,
170,,iti,,html-keyboard-response,170,657785,0.0-1.0-30.0-0.0-5.0,0,0,59346,,,,,,,,,,,,,,,,,,,,,,,,,,,,,148.0,1.5,,,,,,,,,,,,,,,
171,,choice,,html-keyboard-response,171,658402,0.0-1.0-31.0-0.0-0.0,0,0,59346,,607.0,,,68.0,29.0,29.0,2000.0,1000.0,0.0,1.0,1.0,20-40,0.0,,stool,patio lounge chair,40.0,20.0,stool9,patio lounge chair9,40.0,20.0,ASTOOL7.jpg,43-3.jpg,/static/Category_learning/Stimuli/Experimental_stims/stool/ASTOOL7.jpg,/static/Category_learning/Stimuli/Experimental_stims/patio lounge chair/43-3.jpg,0.0,148.607,0.607,1.0,stool,patio lounge chair,40.0,20.0,stool9,patio lounge chair9,40.0,20.0,,,,,,
172,,confirmation,,html-keyboard-response,172,659309,0.0-1.0-31.0-0.0-1.0-0.0,0,0,59346,,,,,,29.0,,,,,,,,,,,,,,,,,,,,,,,149.5,0.893,,,,,,,,,,,,,,,
173,,isi,,html-keyboard-response,173,661331,0.0-1.0-31.0-0.0-2.0,0,0,59346,,,,,,,,,,,,,,,,,,,,,,,,,,,,,151.5,2.0,,,,,,,,,,,,,,,
174,,feedback,,html-keyboard-response,174,662341,0.0-1.0-31.0-0.0-3.0-0.0,0,0,59346,,,,,,29.0,,,,,,,,,,,,,,,,,,,,,,,152.5,1.0,,,,,,,,,,,,,,,
175,,iti,,html-keyboard-response,175,663352,0.0-1.0-31.0-0.0-5.0,0,0,59346,,,,,,,,,,,,,,,,,,,,,,,,,,,,,153.5,1.0,,,,,,,,,,,,,,,
176,,choice,,html-keyboard-response,176,664316,0.0-1.0-32.0-0.0-0.0,0,0,59346,,957.0,,,68.0,30.0,30.0,2000.0,3500.0,0.0,1.0,0.0,40-60,,0.0,stool,dresser,40.0,60.0,stool10,dresser12,60.0,60.0,ASTOOL26.jpg,ADRESSE58.jpg,/static/Category_learning/Stimuli/Experimental_stims/stool/ASTOOL26.jpg,/static/Category_learning/Stimuli/Experimental_stims/dresser/ADRESSE58.jpg,0.0,154.457,0.957,1.0,stool,dresser,40.0,60.0,stool10,dresser12,60.0,60.0,,,,,,
177,,confirmation,,html-keyboard-response,177,664867,0.0-1.0-32.0-0.0-1.0-0.0,0,0,59346,,,,,,30.0,,,,,,,,,,,,,,,,,,,,,,,155.0,0.543,,,,,,,,,,,,,,,
178,,isi,,html-keyboard-response,178,666877,0.0-1.0-32.0-0.0-2.0,0,0,59346,,,,,,,,,,,,,,,,,,,,,,,,,,,,,157.0,2.0,,,,,,,,,,,,,,,
179,,feedback,,html-keyboard-response,179,667893,0.0-1.0-32.0-0.0-3.0-0.0,0,0,59346,,,,,,30.0,,,,,,,,,,,,,,,,,,,,,,,158.0,1.0,,,,,,,,,,,,,,,
180,,iti,,html-keyboard-response,180,671419,0.0-1.0-32.0-0.0-5.0,0,0,59346,,,,,,,,,,,,,,,,,,,,,,,,,,,,,161.5,3.5,,,,,,,,,,,,,,,
181,,choice,,html-keyboard-response,181,672256,0.0-1.0-33.0-0.0-0.0,0,0,59346,,825.0,,,68.0,31.0,31.0,2000.0,2000.0,0.0,1.0,1.0,20-60,0.0,,necklace,baby carriage,20.0,60.0,necklace1,baby carriage5,0.0,80.0,26443173.thl.jpg,Baby_Stroller.jpg,/static/Category_learning/Stimuli/Experimental_stims/necklace/26443173.thl.jpg,/static/Category_learning/Stimuli/Experimental_stims/baby carriage/Baby_Stroller.jpg,0.0,162.325,0.825,1.0,necklace,baby carriage,20.0,60.0,necklace1,baby carriage5,0.0,80.0,,,,,,
182,,confirmation,,html-keyboard-response,182,672948,0.0-1.0-33.0-0.0-1.0-0.0,0,0,59346,,,,,,31.0,,,,,,,,,,,,,,,,,,,,,,,163.0,0.675,,,,,,,,,,,,,,,
183,,isi,,html-keyboard-response,183,674965,0.0-1.0-33.0-0.0-2.0,0,0,59346,,,,,,,,,,,,,,,,,,,,,,,,,,,,,165.0,2.0,,,,,,,,,,,,,,,
184,,feedback,,html-keyboard-response,184,675984,0.0-1.0-33.0-0.0-3.0-0.0,0,0,59346,,,,,,31.0,,,,,,,,,,,,,,,,,,,,,,,166.0,1.0,,,,,,,,,,,,,,,
185,,iti,,html-keyboard-response,185,677999,0.0-1.0-33.0-0.0-5.0,0,0,59346,,,,,,,,,,,,,,,,,,,,,,,,,,,,,168.0,2.0,,,,,,,,,,,,,,,
186,,choice,,html-keyboard-response,186,678696,0.0-1.0-34.0-0.0-0.0,0,0,59346,,689.0,,,68.0,32.0,32.0,1500.0,2000.0,0.0,1.0,0.0,40-40,,,stool,tape,40.0,40.0,stool8,tape9,60.0,40.0,ASTOOL33.jpg,desk tape disp.jpg,/static/Category_learning/Stimuli/Experimental_stims/stool/ASTOOL33.jpg,/static/Category_learning/Stimuli/Experimental_stims/tape/desk tape disp.jpg,0.0,168.689,0.689,1.0,stool,tape,40.0,40.0,stool8,tape9,60.0,40.0,,,,,,
187,,confirmation,,html-keyboard-response,187,679523,0.0-1.0-34.0-0.0-1.0-0.0,0,0,59346,,,,,,32.0,,,,,,,,,,,,,,,,,,,,,,,169.5,0.811,,,,,,,,,,,,,,,
188,,isi,,html-keyboard-response,188,681040,0.0-1.0-34.0-0.0-2.0,0,0,59346,,,,,,,,,,,,,,,,,,,,,,,,,,,,,171.0,1.5,,,,,,,,,,,,,,,
189,,feedback,,html-keyboard-response,189,682054,0.0-1.0-34.0-0.0-3.0-0.0,0,0,59346,,,,,,32.0,,,,,,,,,,,,,,,,,,,,,,,172.0,1.0,,,,,,,,,,,,,,,
190,,iti,,html-keyboard-response,190,684063,0.0-1.0-34.0-0.0-5.0,0,0,59346,,,,,,,,,,,,,,,,,,,,,,,,,,,,,174.0,2.0,,,,,,,,,,,,,,,
191,,choice,,html-keyboard-response,191,684869,0.0-1.0-35.0-0.0-0.0,0,0,59346,,797.0,,,75.0,33.0,33.0,1000.0,3000.0,0.0,1.0,0.0,40-40,,,yarn,tent,40.0,40.0,yarn10,tent5,60.0,60.0,revelation-yarn.jpg,Dome Tentnb87r67.jpg,/static/Category_learning/Stimuli/Experimental_stims/yarn/revelation-yarn.jpg,/static/Category_learning/Stimuli/Experimental_stims/tent/Dome Tentnb87r67.jpg,0.0,174.797,0.797,0.0,tent,yarn,40.0,40.0,tent5,yarn10,60.0,60.0,,,,,,
192,,confirmation,,html-keyboard-response,192,685582,0.0-1.0-35.0-0.0-1.0-0.0,0,0,59346,,,,,,33.0,,,,,,,,,,,,,,,,,,,,,,,175.5,0.703,,,,,,,,,,,,,,,
193,,isi,,html-keyboard-response,193,686598,0.0-1.0-35.0-0.0-2.0,0,0,59346,,,,,,,,,,,,,,,,,,,,,,,,,,,,,176.5,1.0,,,,,,,,,,,,,,,
194,,feedback,,html-keyboard-response,194,687609,0.0-1.0-35.0-0.0-3.0-0.0,0,0,59346,,,,,,33.0,,,,,,,,,,,,,,,,,,,,,,,177.5,1.0,,,,,,,,,,,,,,,
195,,iti,,html-keyboard-response,195,690621,0.0-1.0-35.0-0.0-5.0,0,0,59346,,,,,,,,,,,,,,,,,,,,,,,,,,,,,180.5,3.0,,,,,,,,,,,,,,,
196,,choice,,html-keyboard-response,196,691157,0.0-1.0-36.0-0.0-0.0,0,0,59346,,527.0,,,68.0,34.0,34.0,1000.0,1500.0,0.0,1.0,0.0,20-20,,,pen,nail polish,20.0,20.0,pen2,nail polish3,20.0,40.0,Montblanc-Blu-Starwalker-BP copy.jpg,327636.jpg,/static/Category_learning/Stimuli/Experimental_stims/pen/Montblanc-Blu-Starwalker-BP copy.jpg,/static/Category_learning/Stimuli/Experimental_stims/nail polish/327636.jpg,0.0,181.027,0.527,1.0,pen,nail polish,20.0,20.0,pen2,nail polish3,20.0,40.0,,,,,,
197,,confirmation,,html-keyboard-response,197,692142,0.0-1.0-36.0-0.0-1.0-0.0,0,0,59346,,,,,,34.0,,,,,,,,,,,,,,,,,,,,,,,182.0,0.973,,,,,,,,,,,,,,,
198,,isi,,html-keyboard-response,198,693166,0.0-1.0-36.0-0.0-2.0,0,0,59346,,,,,,,,,,,,,,,,,,,,,,,,,,,,,183.0,1.0,,,,,,,,,,,,,,,
199,,feedback,,html-keyboard-response,199,694184,0.0-1.0-36.0-0.0-3.0-0.0,0,0,59346,,,,,,34.0,,,,,,,,,,,,,,,,,,,,,,,184.0,1.0,,,,,,,,,,,,,,,
200,,iti,,html-keyboard-response,200,695704,0.0-1.0-36.0-0.0-5.0,0,0,59346,,,,,,,,,,,,,,,,,,,,,,,,,,,,,185.5,1.5,,,,,,,,,,,,,,,
201,,choice,,html-keyboard-response,201,696557,0.0-1.0-37.0-0.0-0.0,0,0,59346,,845.0,,,75.0,35.0,35.0,1500.0,1000.0,0.0,1.0,0.0,40-60,,0.0,stool,dresser,40.0,60.0,stool2,dresser14,20.0,60.0,ASTOOL46.jpg,Adressertabl3.jpg,/static/Category_learning/Stimuli/Experimental_stims/stool/ASTOOL46.jpg,/static/Category_learning/Stimuli/Experimental_stims/dresser/Adressertabl3.jpg,0.0,186.345,0.845,0.0,dresser,stool,60.0,40.0,dresser14,stool2,60.0,20.0,,,,,,
202,,confirmation,,html-keyboard-response,202,697221,0.0-1.0-37.0-0.0-1.0-0.0,0,0,59346,,,,,,35.0,,,,,,,,,,,,,,,,,,,,,,,187.0,0.655,,,,,,,,,,,,,,,
203,,isi,,html-keyboard-response,203,698739,0.0-1.0-37.0-0.0-2.0,0,0,59346,,,,,,,,,,,,,,,,,,,,,,,,,,,,,188.5,1.5,,,,,,,,,,,,,,,
204,,feedback,,html-keyboard-response,204,699750,0.0-1.0-37.0-0.0-3.0-0.0,0,0,59346,,,,,,35.0,,,,,,,,,,,,,,,,,,,,,,,189.5,1.0,,,,,,,,,,,,,,,
205,,iti,,html-keyboard-response,205,700765,0.0-1.0-37.0-0.0-5.0,0,0,59346,,,,,,,,,,,,,,,,,,,,,,,,,,,,,190.5,1.0,,,,,,,,,,,,,,,
206,,choice,,html-keyboard-response,206,701652,0.0-1.0-38.0-0.0-0.0,0,0,59346,,879.0,,,75.0,36.0,36.0,1500.0,1000.0,0.0,1.0,0.0,20-80,,0.0,necklace,motorcycle,20.0,80.0,necklace2,motorcycle2,20.0,100.0,Anecklace7.jpg,motorcycle33.jpg,/static/Category_learning/Stimuli/Experimental_stims/necklace/Anecklace7.jpg,/static/Category_learning/Stimuli/Experimental_stims/motorcycle/motorcycle33.jpg,0.0,191.379,0.879,0.0,motorcycle,necklace,80.0,20.0,motorcycle2,necklace2,100.0,20.0,,,,,,
207,,confirmation,,html-keyboard-response,207,702295,0.0-1.0-38.0-0.0-1.0-0.0,0,0,59346,,,,,,36.0,,,,,,,,,,,,,,,,,,,,,,,192.0,0.621,,,,,,,,,,,,,,,
208,,isi,,html-keyboard-response,208,703816,0.0-1.0-38.0-0.0-2.0,0,0,59346,,,,,,,,,,,,,,,,,,,,,,,,,,,,,193.5,1.5,,,,,,,,,,,,,,,
209,,feedback,,html-keyboard-response,209,704826,0.0-1.0-38.0-0.0-3.0-0.0,0,0,59346,,,,,,36.0,,,,,,,,,,,,,,,,,,,,,,,194.5,1.0,,,,,,,,,,,,,,,
210,,iti,,html-keyboard-response,210,705843,0.0-1.0-38.0-0.0-5.0,0,0,59346,,,,,,,,,,,,,,,,,,,,,,,,,,,,,195.5,1.0,,,,,,,,,,,,,,,
211,,choice,,html-keyboard-response,211,706445,0.0-1.0-39.0-0.0-0.0,0,0,59346,,593.0,,,68.0,37.0,37.0,1000.0,1000.0,0.0,1.0,1.0,40-40,1.0,,stool,stool,40.0,40.0,stool10,stool8,60.0,60.0,ASTOOL26.jpg,ASTOOL33.jpg,/static/Category_learning/Stimuli/Experimental_stims/stool/ASTOOL26.jpg,/static/Category_learning/Stimuli/Experimental_stims/stool/ASTOOL33.jpg,0.0,196.093,0.593,1.0,stool,stool,40.0,40.0,stool10,stool8,60.0,60.0,,,,,,
212,,confirmation,,html-keyboard-response,212,707365,0.0-1.0-39.0-0.0-1.0-0.0,0,0,59346,,,,,,37.0,,,,,,,,,,,,,,,,,,,,,,,197.0,0.907,,,,,,,,,,,,,,,
213,,isi,,html-keyboard-response,213,708375,0.0-1.0-39.0-0.0-2.0,0,0,59346,,,,,,,,,,,,,,,,,,,,,,,,,,,,,198.0,1.0,,,,,,,,,,,,,,,
214,,feedback,,html-keyboard-response,214,709391,0.0-1.0-39.0-0.0-3.0-0.0,0,0,59346,,,,,,37.0,,,,,,,,,,,,,,,,,,,,,,,199.0,1.0,,,,,,,,,,,,,,,
215,,iti,,html-keyboard-response,215,710416,0.0-1.0-39.0-0.0-5.0,0,0,59346,,,,,,,,,,,,,,,,,,,,,,,,,,,,,200.0,1.0,,,,,,,,,,,,,,,
216,,choice,,html-keyboard-response,216,711536,0.0-1.0-40.0-0.0-0.0,0,0,59346,,1108.0,,,75.0,38.0,38.0,3000.0,1000.0,0.0,1.0,0.0,20-60,,0.0,sofa,bongo,20.0,60.0,sofa9,bongo12,20.0,40.0,ALOVSEAT9.jpg,26686609.thl.jpg,/static/Category_learning/Stimuli/Experimental_stims/sofa/ALOVSEAT9.jpg,/static/Category_learning/Stimuli/Experimental_stims/bongo/26686609.thl.jpg,0.0,201.108,1.108,0.0,bongo,sofa,60.0,20.0,bongo12,sofa9,40.0,20.0,,,,,,
217,,confirmation,,html-keyboard-response,217,711937,0.0-1.0-40.0-0.0-1.0-0.0,0,0,59346,,,,,,38.0,,,,,,,,,,,,,,,,,,,,,,,201.5,0.392,,,,,,,,,,,,,,,
218,,isi,,html-keyboard-response,218,714950,0.0-1.0-40.0-0.0-2.0,0,0,59346,,,,,,,,,,,,,,,,,,,,,,,,,,,,,204.5,3.0,,,,,,,,,,,,,,,
219,,feedback,,html-keyboard-response,219,715967,0.0-1.0-40.0-0.0-3.0-0.0,0,0,59346,,,,,,38.0,,,,,,,,,,,,,,,,,,,,,,,205.5,1.0,,,,,,,,,,,,,,,
220,,iti,,html-keyboard-response,220,716982,0.0-1.0-40.0-0.0-5.0,0,0,59346,,,,,,,,,,,,,,,,,,,,,,,,,,,,,206.5,1.0,,,,,,,,,,,,,,,
221,,choice,,html-keyboard-response,221,717785,0.0-1.0-41.0-0.0-0.0,0,0,59346,,795.0,,,68.0,39.0,39.0,3000.0,3000.0,0.0,1.0,0.0,20-20,,,patio lounge chair,seashell,20.0,20.0,patio lounge chair14,seashell13,40.0,0.0,2987951.jpg,coquillage22.jpg,/static/Category_learning/Stimuli/Experimental_stims/patio lounge chair/2987951.jpg,/static/Category_learning/Stimuli/Experimental_stims/seashell/coquillage22.jpg,0.0,207.295,0.795,1.0,patio lounge chair,seashell,20.0,20.0,patio lounge chair14,seashell13,40.0,0.0,,,,,,
222,,confirmation,,html-keyboard-response,222,718501,0.0-1.0-41.0-0.0-1.0-0.0,0,0,59346,,,,,,39.0,,,,,,,,,,,,,,,,,,,,,,,208.0,0.705,,,,,,,,,,,,,,,
223,,isi,,html-keyboard-response,223,721521,0.0-1.0-41.0-0.0-2.0,0,0,59346,,,,,,,,,,,,,,,,,,,,,,,,,,,,,211.0,3.0,,,,,,,,,,,,,,,
224,,feedback,,html-keyboard-response,224,722534,0.0-1.0-41.0-0.0-3.0-0.0,0,0,59346,,,,,,39.0,,,,,,,,,,,,,,,,,,,,,,,212.0,1.0,,,,,,,,,,,,,,,
225,,iti,,html-keyboard-response,225,725554,0.0-1.0-41.0-0.0-5.0,0,0,59346,,,,,,,,,,,,,,,,,,,,,,,,,,,,,215.0,3.0,,,,,,,,,,,,,,,
226,,choice,,html-keyboard-response,226,726149,0.0-1.0-42.0-0.0-0.0,0,0,59346,,583.0,,,68.0,40.0,40.0,2000.0,2000.0,0.0,1.0,0.0,60-80,,1.0,makeup compact,flashlight,80.0,60.0,makeup compact9,flashlight10,100.0,80.0,b_102019.jpg,834784_sk_lg.jpg,/static/Category_learning/Stimuli/Experimental_stims/makeup compact/b_102019.jpg,/static/Category_learning/Stimuli/Experimental_stims/flashlight/834784_sk_lg.jpg,0.0,215.583,0.583,1.0,makeup compact,flashlight,80.0,60.0,makeup compact9,flashlight10,100.0,80.0,,,,,,
227,,confirmation,,html-keyboard-response,227,727083,0.0-1.0-42.0-0.0-1.0-0.0,0,0,59346,,,,,,40.0,,,,,,,,,,,,,,,,,,,,,,,216.5,0.917,,,,,,,,,,,,,,,
228,,isi,,html-keyboard-response,228,729100,0.0-1.0-42.0-0.0-2.0,0,0,59346,,,,,,,,,,,,,,,,,,,,,,,,,,,,,218.5,2.0,,,,,,,,,,,,,,,
229,,feedback,,html-keyboard-response,229,730113,0.0-1.0-42.0-0.0-3.0-0.0,0,0,59346,,,,,,40.0,,,,,,,,,,,,,,,,,,,,,,,219.5,1.0,,,,,,,,,,,,,,,
230,,iti,,html-keyboard-response,230,732125,0.0-1.0-42.0-0.0-5.0,0,0,59346,,,,,,,,,,,,,,,,,,,,,,,,,,,,,221.5,2.0,,,,,,,,,,,,,,,
231,,choice,,html-keyboard-response,231,732565,0.0-1.0-43.0-0.0-0.0,0,0,59346,,429.0,,,75.0,41.0,41.0,2000.0,1000.0,0.0,1.0,1.0,20-40,0.0,,patio lounge chair,train,20.0,40.0,patio lounge chair14,train6,40.0,20.0,2987951.jpg,train9.jpg,/static/Category_learning/Stimuli/Experimental_stims/patio lounge chair/2987951.jpg,/static/Category_learning/Stimuli/Experimental_stims/train/train9.jpg,0.0,221.929,0.429,0.0,train,patio lounge chair,40.0,20.0,train6,patio lounge chair14,20.0,40.0,,,,,,
232,,confirmation,,html-keyboard-response,232,733654,0.0-1.0-43.0-0.0-1.0-0.0,0,0,59346,,,,,,41.0,,,,,,,,,,,,,,,,,,,,,,,223.0,1.071,,,,,,,,,,,,,,,
233,,isi,,html-keyboard-response,233,735674,0.0-1.0-43.0-0.0-2.0,0,0,59346,,,,,,,,,,,,,,,,,,,,,,,,,,,,,225.0,2.0,,,,,,,,,,,,,,,
234,,feedback,,html-keyboard-response,234,736688,0.0-1.0-43.0-0.0-3.0-0.0,0,0,59346,,,,,,41.0,,,,,,,,,,,,,,,,,,,,,,,226.0,1.0,,,,,,,,,,,,,,,
235,,iti,,html-keyboard-response,235,737702,0.0-1.0-43.0-0.0-5.0,0,0,59346,,,,,,,,,,,,,,,,,,,,,,,,,,,,,227.0,1.0,,,,,,,,,,,,,,,
236,,choice,,html-keyboard-response,236,738330,0.0-1.0-44.0-0.0-0.0,0,0,59346,,621.0,,,68.0,42.0,42.0,1000.0,1500.0,0.0,1.0,0.0,40-80,,1.0,makeup compact,trumpet,80.0,40.0,makeup compact6,trumpet13,80.0,40.0,P0754_hero.jpg,JUPITER+JTR1600GS.jpg,/static/Category_learning/Stimuli/Experimental_stims/makeup compact/P0754_hero.jpg,/static/Category_learning/Stimuli/Experimental_stims/trumpet/JUPITER+JTR1600GS.jpg,0.0,227.621,0.621,1.0,makeup compact,trumpet,80.0,40.0,makeup compact6,trumpet13,80.0,40.0,,,,,,
237,,confirmation,,html-keyboard-response,237,739230,0.0-1.0-44.0-0.0-1.0-0.0,0,0,59346,,,,,,42.0,,,,,,,,,,,,,,,,,,,,,,,228.5,0.879,,,,,,,,,,,,,,,
238,,isi,,html-keyboard-response,238,740251,0.0-1.0-44.0-0.0-2.0,0,0,59346,,,,,,,,,,,,,,,,,,,,,,,,,,,,,229.5,1.0,,,,,,,,,,,,,,,
239,,feedback,,html-keyboard-response,239,741268,0.0-1.0-44.0-0.0-3.0-0.0,0,0,59346,,,,,,42.0,,,,,,,,,,,,,,,,,,,,,,,230.5,1.0,,,,,,,,,,,,,,,
240,,iti,,html-keyboard-response,240,742782,0.0-1.0-44.0-0.0-5.0,0,0,59346,,,,,,,,,,,,,,,,,,,,,,,,,,,,,232.0,1.5,,,,,,,,,,,,,,,
241,,choice,,html-keyboard-response,241,743726,0.0-1.0-45.0-0.0-0.0,0,0,59346,,936.0,,,75.0,43.0,43.0,1000.0,2000.0,0.0,1.0,0.0,80-80,,,hat,makeup compact,80.0,80.0,hat2,makeup compact10,100.0,60.0,Ahatwithfeat7.jpg,P95108_hero.jpg,/static/Category_learning/Stimuli/Experimental_stims/hat/Ahatwithfeat7.jpg,/static/Category_learning/Stimuli/Experimental_stims/makeup compact/P95108_hero.jpg,0.0,232.936,0.936,0.0,makeup compact,hat,80.0,80.0,makeup compact10,hat2,60.0,100.0,,,,,,
242,,confirmation,,html-keyboard-response,242,744314,0.0-1.0-45.0-0.0-1.0-0.0,0,0,59346,,,,,,43.0,,,,,,,,,,,,,,,,,,,,,,,233.5,0.564,,,,,,,,,,,,,,,
243,,isi,,html-keyboard-response,243,745337,0.0-1.0-45.0-0.0-2.0,0,0,59346,,,,,,,,,,,,,,,,,,,,,,,,,,,,,234.5,1.0,,,,,,,,,,,,,,,
244,,feedback,,html-keyboard-response,244,746358,0.0-1.0-45.0-0.0-3.0-0.0,0,0,59346,,,,,,43.0,,,,,,,,,,,,,,,,,,,,,,,235.5,1.0,,,,,,,,,,,,,,,
245,,iti,,html-keyboard-response,245,748376,0.0-1.0-45.0-0.0-5.0,0,0,59346,,,,,,,,,,,,,,,,,,,,,,,,,,,,,237.5,2.0,,,,,,,,,,,,,,,
246,,choice,,html-keyboard-response,246,748663,0.0-1.0-46.0-0.0-0.0,0,0,59346,,277.0,,,68.0,44.0,44.0,1500.0,1500.0,0.0,1.0,0.0,40-60,,1.0,fan,tent,60.0,40.0,fan1,tent4,80.0,40.0,01393.fpx.jpg,Atent12.jpg,/static/Category_learning/Stimuli/Experimental_stims/fan/01393.fpx.jpg,/static/Category_learning/Stimuli/Experimental_stims/tent/Atent12.jpg,0.0,237.777,0.277,1.0,fan,tent,60.0,40.0,fan1,tent4,80.0,40.0,,,,,,
247,,confirmation,,html-keyboard-response,247,749907,0.0-1.0-46.0-0.0-1.0-0.0,0,0,59346,,,,,,44.0,,,,,,,,,,,,,,,,,,,,,,,239.0,1.223,,,,,,,,,,,,,,,
248,,isi,,html-keyboard-response,248,751419,0.0-1.0-46.0-0.0-2.0,0,0,59346,,,,,,,,,,,,,,,,,,,,,,,,,,,,,240.5,1.5,,,,,,,,,,,,,,,
249,,feedback,,html-keyboard-response,249,752434,0.0-1.0-46.0-0.0-3.0-0.0,0,0,59346,,,,,,44.0,,,,,,,,,,,,,,,,,,,,,,,241.5,1.0,,,,,,,,,,,,,,,
250,,iti,,html-keyboard-response,250,753956,0.0-1.0-46.0-0.0-5.0,0,0,59346,,,,,,,,,,,,,,,,,,,,,,,,,,,,,243.0,1.5,,,,,,,,,,,,,,,
251,,choice,,html-keyboard-response,251,754999,0.0-1.0-47.0-0.0-0.0,0,0,59346,,1033.0,,,75.0,45.0,45.0,2000.0,3500.0,0.0,1.0,1.0,60-60,1.0,,fan,fan,60.0,60.0,fan6,fan1,60.0,80.0,30090.fpx.jpg,01393.fpx.jpg,/static/Category_learning/Stimuli/Experimental_stims/fan/30090.fpx.jpg,/static/Category_learning/Stimuli/Experimental_stims/fan/01393.fpx.jpg,0.0,244.033,1.033,0.0,fan,fan,60.0,60.0,fan1,fan6,80.0,60.0,,,,,,
252,,confirmation,,html-keyboard-response,252,755485,0.0-1.0-47.0-0.0-1.0-0.0,0,0,59346,,,,,,45.0,,,,,,,,,,,,,,,,,,,,,,,244.5,0.467,,,,,,,,,,,,,,,
253,,isi,,html-keyboard-response,253,757502,0.0-1.0-47.0-0.0-2.0,0,0,59346,,,,,,,,,,,,,,,,,,,,,,,,,,,,,246.5,2.0,,,,,,,,,,,,,,,
254,,feedback,,html-keyboard-response,254,758518,0.0-1.0-47.0-0.0-3.0-0.0,0,0,59346,,,,,,45.0,,,,,,,,,,,,,,,,,,,,,,,247.5,1.0,,,,,,,,,,,,,,,
255,,iti,,html-keyboard-response,255,762029,0.0-1.0-47.0-0.0-5.0,0,0,59346,,,,,,,,,,,,,,,,,,,,,,,,,,,,,251.0,3.5,,,,,,,,,,,,,,,
256,,choice,,html-keyboard-response,256,762543,0.0-1.0-48.0-0.0-0.0,0,0,59346,,503.0,,,68.0,46.0,46.0,2000.0,1500.0,0.0,1.0,0.0,40-80,,0.0,yarn,lipstick,40.0,80.0,yarn8,lipstick9,60.0,100.0,smonlineyarn-285x250.jpg,P189145_hero.jpg,/static/Category_learning/Stimuli/Experimental_stims/yarn/smonlineyarn-285x250.jpg,/static/Category_learning/Stimuli/Experimental_stims/lipstick/P189145_hero.jpg,0.0,251.503,0.503,1.0,yarn,lipstick,40.0,80.0,yarn8,lipstick9,60.0,100.0,,,,,,
257,,confirmation,,html-keyboard-response,257,763556,0.0-1.0-48.0-0.0-1.0-0.0,0,0,59346,,,,,,46.0,,,,,,,,,,,,,,,,,,,,,,,252.5,0.997,,,,,,,,,,,,,,,
258,,isi,,html-keyboard-response,258,765576,0.0-1.0-48.0-0.0-2.0,0,0,59346,,,,,,,,,,,,,,,,,,,,,,,,,,,,,254.5,2.0,,,,,,,,,,,,,,,
259,,feedback,,html-keyboard-response,259,766589,0.0-1.0-48.0-0.0-3.0-0.0,0,0,59346,,,,,,46.0,,,,,,,,,,,,,,,,,,,,,,,255.5,1.0,,,,,,,,,,,,,,,
260,,iti,,html-keyboard-response,260,768107,0.0-1.0-48.0-0.0-5.0,0,0,59346,,,,,,,,,,,,,,,,,,,,,,,,,,,,,257.0,1.5,,,,,,,,,,,,,,,
261,,choice,,html-keyboard-response,261,768829,0.0-1.0-49.0-0.0-0.0,0,0,59346,,712.0,,,75.0,47.0,47.0,1000.0,1000.0,0.0,1.0,1.0,40-40,1.0,,yarn,yarn,40.0,40.0,yarn4,yarn8,40.0,60.0,amethyst dreaming boho hy sml.jpg,smonlineyarn-285x250.jpg,/static/Category_learning/Stimuli/Experimental_stims/yarn/amethyst dreaming boho hy sml.jpg,/static/Category_learning/Stimuli/Experimental_stims/yarn/smonlineyarn-285x250.jpg,0.0,257.712,0.712,0.0,yarn,yarn,40.0,40.0,yarn8,yarn4,60.0,40.0,,,,,,
262,,confirmation,,html-keyboard-response,262,769639,0.0-1.0-49.0-0.0-1.0-0.0,0,0,59346,,,,,,47.0,,,,,,,,,,,,,,,,,,,,,,,258.5,0.788,,,,,,,,,,,,,,,
263,,isi,,html-keyboard-response,263,770660,0.0-1.0-49.0-0.0-2.0,0,0,59346,,,,,,,,,,,,,,,,,,,,,,,,,,,,,259.5,1.0,,,,,,,,,,,,,,,
264,,feedback,,html-keyboard-response,264,771680,0.0-1.0-49.0-0.0-3.0-0.0,0,0,59346,,,,,,47.0,,,,,,,,,,,,,,,,,,,,,,,260.5,1.0,,,,,,,,,,,,,,,
265,,iti,,html-keyboard-response,265,772688,0.0-1.0-49.0-0.0-5.0,0,0,59346,,,,,,,,,,,,,,,,,,,,,,,,,,,,,261.5,1.0,,,,,,,,,,,,,,,
266,,choice,,html-keyboard-response,266,773555,0.0-1.0-50.0-0.0-0.0,0,0,59346,,859.0,,,68.0,48.0,48.0,1500.0,1000.0,0.0,1.0,0.0,40-60,,0.0,train,flashlight,40.0,60.0,train8,flashlight12,40.0,60.0,PL51190.jpg,new05.jpg,/static/Category_learning/Stimuli/Experimental_stims/train/PL51190.jpg,/static/Category_learning/Stimuli/Experimental_stims/flashlight/new05.jpg,0.0,262.359,0.859,1.0,train,flashlight,40.0,60.0,train8,flashlight12,40.0,60.0,,,,,,
267,,confirmation,,html-keyboard-response,267,774218,0.0-1.0-50.0-0.0-1.0-0.0,0,0,59346,,,,,,48.0,,,,,,,,,,,,,,,,,,,,,,,263.0,0.641,,,,,,,,,,,,,,,
268,,isi,,html-keyboard-response,268,775736,0.0-1.0-50.0-0.0-2.0,0,0,59346,,,,,,,,,,,,,,,,,,,,,,,,,,,,,264.5,1.5,,,,,,,,,,,,,,,
269,,feedback,,html-keyboard-response,269,776755,0.0-1.0-50.0-0.0-3.0-0.0,0,0,59346,,,,,,48.0,,,,,,,,,,,,,,,,,,,,,,,265.5,1.0,,,,,,,,,,,,,,,
270,,iti,,html-keyboard-response,270,777765,0.0-1.0-50.0-0.0-5.0,0,0,59346,,,,,,,,,,,,,,,,,,,,,,,,,,,,,266.5,1.0,,,,,,,,,,,,,,,
271,,choice,,html-keyboard-response,271,778461,0.0-1.0-51.0-0.0-0.0,0,0,59346,,687.0,,,75.0,49.0,49.0,1000.0,1000.0,0.0,1.0,1.0,80-80,1.0,,makeup compact,makeup compact,80.0,80.0,makeup compact6,makeup compact10,80.0,60.0,P0754_hero.jpg,P95108_hero.jpg,/static/Category_learning/Stimuli/Experimental_stims/makeup compact/P0754_hero.jpg,/static/Category_learning/Stimuli/Experimental_stims/makeup compact/P95108_hero.jpg,0.0,267.187,0.687,0.0,makeup compact,makeup compact,80.0,80.0,makeup compact10,makeup compact6,60.0,80.0,,,,,,
272,,confirmation,,html-keyboard-response,272,779296,0.0-1.0-51.0-0.0-1.0-0.0,0,0,59346,,,,,,49.0,,,,,,,,,,,,,,,,,,,,,,,268.0,0.813,,,,,,,,,,,,,,,
273,,isi,,html-keyboard-response,273,780313,0.0-1.0-51.0-0.0-2.0,0,0,59346,,,,,,,,,,,,,,,,,,,,,,,,,,,,,269.0,1.0,,,,,,,,,,,,,,,
274,,feedback,,html-keyboard-response,274,781333,0.0-1.0-51.0-0.0-3.0-0.0,0,0,59346,,,,,,49.0,,,,,,,,,,,,,,,,,,,,,,,270.0,1.0,,,,,,,,,,,,,,,
275,,iti,,html-keyboard-response,275,782342,0.0-1.0-51.0-0.0-5.0,0,0,59346,,,,,,,,,,,,,,,,,,,,,,,,,,,,,271.0,1.0,,,,,,,,,,,,,,,
276,,choice,,html-keyboard-response,276,782969,0.0-1.0-52.0-0.0-0.0,0,0,59346,,619.0,,,68.0,50.0,50.0,1000.0,2000.0,0.0,1.0,0.0,20-80,,1.0,lipstick,sofa,80.0,20.0,lipstick13,sofa8,60.0,20.0,P184708_hero.jpg,allegro-leather-sofa-med2.jpg,/static/Category_learning/Stimuli/Experimental_stims/lipstick/P184708_hero.jpg,/static/Category_learning/Stimuli/Experimental_stims/sofa/allegro-leather-sofa-med2.jpg,0.0,271.619,0.619,1.0,lipstick,sofa,80.0,20.0,lipstick13,sofa8,60.0,20.0,,,,,,
277,,confirmation,,html-keyboard-response,277,783869,0.0-1.0-52.0-0.0-1.0-0.0,0,0,59346,,,,,,50.0,,,,,,,,,,,,,,,,,,,,,,,272.5,0.881,,,,,,,,,,,,,,,
278,,isi,,html-keyboard-response,278,784884,0.0-1.0-52.0-0.0-2.0,0,0,59346,,,,,,,,,,,,,,,,,,,,,,,,,,,,,273.5,1.0,,,,,,,,,,,,,,,
279,,feedback,,html-keyboard-response,279,785902,0.0-1.0-52.0-0.0-3.0-0.0,0,0,59346,,,,,,50.0,,,,,,,,,,,,,,,,,,,,,,,274.5,1.0,,,,,,,,,,,,,,,
280,,iti,,html-keyboard-response,280,787910,0.0-1.0-52.0-0.0-5.0,0,0,59346,,,,,,,,,,,,,,,,,,,,,,,,,,,,,276.5,2.0,,,,,,,,,,,,,,,
281,,choice,,html-keyboard-response,281,789419,0.0-1.0-53.0-0.0-0.0,0,0,59346,,,,,,51.0,51.0,1000.0,2000.0,0.0,1.0,0.0,40-60,,0.0,stool,baby carriage,40.0,60.0,stool5,baby carriage11,40.0,80.0,ASTOOL23.jpg,Baby_Carriage-2.jpg,/static/Category_learning/Stimuli/Experimental_stims/stool/ASTOOL23.jpg,/static/Category_learning/Stimuli/Experimental_stims/baby carriage/Baby_Carriage-2.jpg,1.0,278.0,1.5,,,,,,,,,,,,,,,
282,,isi,,html-keyboard-response,282,790435,0.0-1.0-53.0-0.0-2.0,0,0,59346,,,,,,,,,,,,,,,,,,,,,,,,,,,,,279.0,1.0,,,,,,,,,,,,,,,
283,,no_response,,html-keyboard-response,283,791456,0.0-1.0-53.0-0.0-4.0-0.0,0,0,59346,,,,,,,,,,,,,,,,,,,,,,,,,,,,,280.0,1.0,,,,,,,,,,,,,,,
284,,iti,,html-keyboard-response,284,793505,0.0-1.0-53.0-0.0-5.0,0,0,59346,,,,,,,,,,,,,,,,,,,,,,,,,,,,,282.0,2.0,,,,,,,,,,,,,,,
285,,choice,,html-keyboard-response,285,794349,0.0-1.0-53.0-0.1-0.1,0,0,59346,,835.0,,,68.0,51.0,51.0,1000.0,2000.0,0.0,1.0,0.0,40-60,,0.0,stool,baby carriage,40.0,60.0,stool5,baby carriage11,40.0,80.0,ASTOOL23.jpg,Baby_Carriage-2.jpg,/static/Category_learning/Stimuli/Experimental_stims/stool/ASTOOL23.jpg,/static/Category_learning/Stimuli/Experimental_stims/baby carriage/Baby_Carriage-2.jpg,0.0,282.835,0.835,1.0,stool,baby carriage,40.0,60.0,stool5,baby carriage11,40.0,80.0,,,,,,
286,,confirmation,,html-keyboard-response,286,795036,0.0-1.0-53.0-0.1-1.1-0.1,0,0,59346,,,,,,51.0,,,,,,,,,,,,,,,,,,,,,,,283.5,0.665,,,,,,,,,,,,,,,
287,,isi,,html-keyboard-response,287,796049,0.0-1.0-53.0-0.1-2.1,0,0,59346,,,,,,,,,,,,,,,,,,,,,,,,,,,,,284.5,1.0,,,,,,,,,,,,,,,
288,,feedback,,html-keyboard-response,288,797065,0.0-1.0-53.0-0.1-3.1-0.1,0,0,59346,,,,,,51.0,,,,,,,,,,,,,,,,,,,,,,,285.5,1.0,,,,,,,,,,,,,,,
289,,iti,,html-keyboard-response,289,799086,0.0-1.0-53.0-0.1-5.1,0,0,59346,,,,,,,,,,,,,,,,,,,,,,,,,,,,,287.5,2.0,,,,,,,,,,,,,,,
290,,choice,,html-keyboard-response,290,799803,0.0-1.0-54.0-0.0-0.0,0,0,59346,,709.0,,,68.0,52.0,52.0,1000.0,2000.0,0.0,1.0,0.0,40-40,,,telescope,vase,40.0,40.0,telescope10,vase4,20.0,60.0,digimarc.ms02.jpg,Avase111.jpg,/static/Category_learning/Stimuli/Experimental_stims/telescope/digimarc.ms02.jpg,/static/Category_learning/Stimuli/Experimental_stims/vase/Avase111.jpg,0.0,288.209,0.709,1.0,telescope,vase,40.0,40.0,telescope10,vase4,20.0,60.0,,,,,,
291,,confirmation,,html-keyboard-response,291,800605,0.0-1.0-54.0-0.0-1.0-0.0,0,0,59346,,,,,,52.0,,,,,,,,,,,,,,,,,,,,,,,289.0,0.791,,,,,,,,,,,,,,,
292,,isi,,html-keyboard-response,292,801617,0.0-1.0-54.0-0.0-2.0,0,0,59346,,,,,,,,,,,,,,,,,,,,,,,,,,,,,290.0,1.0,,,,,,,,,,,,,,,
293,,feedback,,html-keyboard-response,293,802630,0.0-1.0-54.0-0.0-3.0-0.0,0,0,59346,,,,,,52.0,,,,,,,,,,,,,,,,,,,,,,,291.0,1.0,,,,,,,,,,,,,,,
294,,iti,,html-keyboard-response,294,804645,0.0-1.0-54.0-0.0-5.0,0,0,59346,,,,,,,,,,,,,,,,,,,,,,,,,,,,,293.0,2.0,,,,,,,,,,,,,,,
295,,choice,,html-keyboard-response,295,805350,0.0-1.0-55.0-0.0-0.0,0,0,59346,,696.0,,,75.0,53.0,53.0,1000.0,1500.0,0.0,1.0,1.0,20-80,0.0,,lipstick,pen,80.0,20.0,lipstick13,pen2,60.0,20.0,P184708_hero.jpg,Montblanc-Blu-Starwalker-BP copy.jpg,/static/Category_learning/Stimuli/Experimental_stims/lipstick/P184708_hero.jpg,/static/Category_learning/Stimuli/Experimental_stims/pen/Montblanc-Blu-Starwalker-BP copy.jpg,0.0,293.696,0.696,0.0,pen,lipstick,20.0,80.0,pen2,lipstick13,20.0,60.0,,,,,,
296,,confirmation,,html-keyboard-response,296,806178,0.0-1.0-55.0-0.0-1.0-0.0,0,0,59346,,,,,,53.0,,,,,,,,,,,,,,,,,,,,,,,294.5,0.804,,,,,,,,,,,,,,,
297,,isi,,html-keyboard-response,297,807198,0.0-1.0-55.0-0.0-2.0,0,0,59346,,,,,,,,,,,,,,,,,,,,,,,,,,,,,295.5,1.0,,,,,,,,,,,,,,,
298,,feedback,,html-keyboard-response,298,808214,0.0-1.0-55.0-0.0-3.0-0.0,0,0,59346,,,,,,53.0,,,,,,,,,,,,,,,,,,,,,,,296.5,1.0,,,,,,,,,,,,,,,
299,,iti,,html-keyboard-response,299,809732,0.0-1.0-55.0-0.0-5.0,0,0,59346,,,,,,,,,,,,,,,,,,,,,,,,,,,,,298.0,1.5,,,,,,,,,,,,,,,
300,,choice,,html-keyboard-response,300,810529,0.0-1.0-56.0-0.0-0.0,0,0,59346,,787.0,,,75.0,54.0,54.0,2000.0,1500.0,0.0,1.0,0.0,20-80,,1.0,hat,nail polish,80.0,20.0,hat3,nail polish14,100.0,40.0,Astrawhat49.jpg,38031405.JPG,/static/Category_learning/Stimuli/Experimental_stims/hat/Astrawhat49.jpg,/static/Category_learning/Stimuli/Experimental_stims/nail polish/38031405.JPG,0.0,298.787,0.787,0.0,nail polish,hat,20.0,80.0,nail polish14,hat3,40.0,100.0,,,,,,
301,,confirmation,,html-keyboard-response,301,811253,0.0-1.0-56.0-0.0-1.0-0.0,0,0,59346,,,,,,54.0,,,,,,,,,,,,,,,,,,,,,,,299.5,0.713,,,,,,,,,,,,,,,
302,,isi,,html-keyboard-response,302,813262,0.0-1.0-56.0-0.0-2.0,0,0,59346,,,,,,,,,,,,,,,,,,,,,,,,,,,,,301.5,2.0,,,,,,,,,,,,,,,
303,,feedback,,html-keyboard-response,303,814280,0.0-1.0-56.0-0.0-3.0-0.0,0,0,59346,,,,,,54.0,,,,,,,,,,,,,,,,,,,,,,,302.5,1.0,,,,,,,,,,,,,,,
304,,iti,,html-keyboard-response,304,815789,0.0-1.0-56.0-0.0-5.0,0,0,59346,,,,,,,,,,,,,,,,,,,,,,,,,,,,,304.0,1.5,,,,,,,,,,,,,,,
305,,choice,,html-keyboard-response,305,816841,0.0-1.0-57.0-0.0-0.0,0,0,59346,,1043.0,,,68.0,55.0,55.0,3000.0,1000.0,0.0,1.0,0.0,20-60,,0.0,necklace,bench,20.0,60.0,necklace6,bench4,0.0,40.0,Agoldnecklace.jpg,30892819.thl.jpg,/static/Category_learning/Stimuli/Experimental_stims/necklace/Agoldnecklace.jpg,/static/Category_learning/Stimuli/Experimental_stims/bench/30892819.thl.jpg,0.0,305.043,1.043,1.0,necklace,bench,20.0,60.0,necklace6,bench4,0.0,40.0,,,,,,
306,,confirmation,,html-keyboard-response,306,817307,0.0-1.0-57.0-0.0-1.0-0.0,0,0,59346,,,,,,55.0,,,,,,,,,,,,,,,,,,,,,,,305.5,0.457,,,,,,,,,,,,,,,
307,,isi,,html-keyboard-response,307,820316,0.0-1.0-57.0-0.0-2.0,0,0,59346,,,,,,,,,,,,,,,,,,,,,,,,,,,,,308.5,3.0,,,,,,,,,,,,,,,
308,,feedback,,html-keyboard-response,308,821336,0.0-1.0-57.0-0.0-3.0-0.0,0,0,59346,,,,,,55.0,,,,,,,,,,,,,,,,,,,,,,,309.5,1.0,,,,,,,,,,,,,,,
309,,iti,,html-keyboard-response,309,822353,0.0-1.0-57.0-0.0-5.0,0,0,59346,,,,,,,,,,,,,,,,,,,,,,,,,,,,,310.5,1.0,,,,,,,,,,,,,,,
310,,choice,,html-keyboard-response,310,823164,0.0-1.0-58.0-0.0-0.0,0,0,59346,,801.0,,,68.0,56.0,56.0,1000.0,1500.0,0.0,1.0,0.0,20-80,,1.0,key chain,sofa,80.0,20.0,key chain1,sofa13,80.0,40.0,jm05s16.jpg,ACOUCH25.jpg,/static/Category_learning/Stimuli/Experimental_stims/key chain/jm05s16.jpg,/static/Category_learning/Stimuli/Experimental_stims/sofa/ACOUCH25.jpg,0.0,311.301,0.801,1.0,key chain,sofa,80.0,20.0,key chain1,sofa13,80.0,40.0,,,,,,
311,,confirmation,,html-keyboard-response,311,823875,0.0-1.0-58.0-0.0-1.0-0.0,0,0,59346,,,,,,56.0,,,,,,,,,,,,,,,,,,,,,,,312.0,0.699,,,,,,,,,,,,,,,
312,,isi,,html-keyboard-response,312,824892,0.0-1.0-58.0-0.0-2.0,0,0,59346,,,,,,,,,,,,,,,,,,,,,,,,,,,,,313.0,1.0,,,,,,,,,,,,,,,
313,,feedback,,html-keyboard-response,313,825907,0.0-1.0-58.0-0.0-3.0-0.0,0,0,59346,,,,,,56.0,,,,,,,,,,,,,,,,,,,,,,,314.0,1.0,,,,,,,,,,,,,,,
314,,iti,,html-keyboard-response,314,827431,0.0-1.0-58.0-0.0-5.0,0,0,59346,,,,,,,,,,,,,,,,,,,,,,,,,,,,,315.5,1.5,,,,,,,,,,,,,,,
315,,choice,,html-keyboard-response,315,828469,0.0-1.0-59.0-0.0-0.0,0,0,59346,,1029.0,,,68.0,57.0,57.0,1500.0,1000.0,0.0,1.0,1.0,80-80,1.0,,key chain,key chain,80.0,80.0,key chain8,key chain1,100.0,80.0,Keychain01.jpg,jm05s16.jpg,/static/Category_learning/Stimuli/Experimental_stims/key chain/Keychain01.jpg,/static/Category_learning/Stimuli/Experimental_stims/key chain/jm05s16.jpg,0.0,316.529,1.029,1.0,key chain,key chain,80.0,80.0,key chain8,key chain1,100.0,80.0,,,,,,
316,,confirmation,,html-keyboard-response,316,828954,0.0-1.0-59.0-0.0-1.0-0.0,0,0,59346,,,,,,57.0,,,,,,,,,,,,,,,,,,,,,,,317.0,0.471,,,,,,,,,,,,,,,
317,,isi,,html-keyboard-response,317,830469,0.0-1.0-59.0-0.0-2.0,0,0,59346,,,,,,,,,,,,,,,,,,,,,,,,,,,,,318.5,1.5,,,,,,,,,,,,,,,
318,,feedback,,html-keyboard-response,318,831484,0.0-1.0-59.0-0.0-3.0-0.0,0,0,59346,,,,,,57.0,,,,,,,,,,,,,,,,,,,,,,,319.5,1.0,,,,,,,,,,,,,,,
319,,iti,,html-keyboard-response,319,832499,0.0-1.0-59.0-0.0-5.0,0,0,59346,,,,,,,,,,,,,,,,,,,,,,,,,,,,,320.5,1.0,,,,,,,,,,,,,,,
320,,choice,,html-keyboard-response,320,833219,0.0-1.0-60.0-0.0-0.0,0,0,59346,,711.0,,,68.0,58.0,58.0,3000.0,1000.0,0.0,1.0,0.0,40-80,,0.0,tent,hat,40.0,80.0,tent14,hat14,20.0,60.0,inflatable-tent.jpg,Ahat136.jpg,/static/Category_learning/Stimuli/Experimental_stims/tent/inflatable-tent.jpg,/static/Category_learning/Stimuli/Experimental_stims/hat/Ahat136.jpg,0.0,321.211,0.711,1.0,tent,hat,40.0,80.0,tent14,hat14,20.0,60.0,,,,,,
321,,confirmation,,html-keyboard-response,321,834020,0.0-1.0-60.0-0.0-1.0-0.0,0,0,59346,,,,,,58.0,,,,,,,,,,,,,,,,,,,,,,,322.0,0.789,,,,,,,,,,,,,,,
322,,isi,,html-keyboard-response,322,837030,0.0-1.0-60.0-0.0-2.0,0,0,59346,,,,,,,,,,,,,,,,,,,,,,,,,,,,,325.0,3.0,,,,,,,,,,,,,,,
323,,feedback,,html-keyboard-response,323,838042,0.0-1.0-60.0-0.0-3.0-0.0,0,0,59346,,,,,,58.0,,,,,,,,,,,,,,,,,,,,,,,326.0,1.0,,,,,,,,,,,,,,,
324,,iti,,html-keyboard-response,324,839063,0.0-1.0-60.0-0.0-5.0,0,0,59346,,,,,,,,,,,,,,,,,,,,,,,,,,,,,327.0,1.0,,,,,,,,,,,,,,,
325,,choice,,html-keyboard-response,325,840128,0.0-1.0-61.0-0.0-0.0,0,0,59346,,1057.0,,,68.0,59.0,59.0,1500.0,1500.0,0.0,1.0,0.0,20-80,,1.0,frame,sofa,80.0,20.0,frame5,sofa11,60.0,0.0,AFRAME136.jpg,ALOVSEA19.jpg,/static/Category_learning/Stimuli/Experimental_stims/frame/AFRAME136.jpg,/static/Category_learning/Stimuli/Experimental_stims/sofa/ALOVSEA19.jpg,0.0,328.057,1.057,1.0,frame,sofa,80.0,20.0,frame5,sofa11,60.0,0.0,,,,,,
326,,confirmation,,html-keyboard-response,326,840584,0.0-1.0-61.0-0.0-1.0-0.0,0,0,59346,,,,,,59.0,,,,,,,,,,,,,,,,,,,,,,,328.5,0.443,,,,,,,,,,,,,,,
327,,isi,,html-keyboard-response,327,842098,0.0-1.0-61.0-0.0-2.0,0,0,59346,,,,,,,,,,,,,,,,,,,,,,,,,,,,,330.0,1.5,,,,,,,,,,,,,,,
328,,feedback,,html-keyboard-response,328,843117,0.0-1.0-61.0-0.0-3.0-0.0,0,0,59346,,,,,,59.0,,,,,,,,,,,,,,,,,,,,,,,331.0,1.0,,,,,,,,,,,,,,,
329,,iti,,html-keyboard-response,329,844637,0.0-1.0-61.0-0.0-5.0,0,0,59346,,,,,,,,,,,,,,,,,,,,,,,,,,,,,332.5,1.5,,,,,,,,,,,,,,,
330,,choice,,html-keyboard-response,330,845647,0.0-1.0-62.0-0.0-0.0,0,0,59346,,999.0,,,75.0,60.0,60.0,1000.0,2000.0,0.0,1.0,1.0,40-40,1.0,,tent,tent,40.0,40.0,tent14,tent5,20.0,60.0,inflatable-tent.jpg,Dome Tentnb87r67.jpg,/static/Category_learning/Stimuli/Experimental_stims/tent/inflatable-tent.jpg,/static/Category_learning/Stimuli/Experimental_stims/tent/Dome Tentnb87r67.jpg,0.0,333.499,0.999,0.0,tent,tent,40.0,40.0,tent5,tent14,60.0,20.0,,,,,,
331,,confirmation,,html-keyboard-response,331,846175,0.0-1.0-62.0-0.0-1.0-0.0,0,0,59346,,,,,,60.0,,,,,,,,,,,,,,,,,,,,,,,334.0,0.501,,,,,,,,,,,,,,,
332,,isi,,html-keyboard-response,332,847192,0.0-1.0-62.0-0.0-2.0,0,0,59346,,,,,,,,,,,,,,,,,,,,,,,,,,,,,335.0,1.0,,,,,,,,,,,,,,,
333,,feedback,,html-keyboard-response,333,848214,0.0-1.0-62.0-0.0-3.0-0.0,0,0,59346,,,,,,60.0,,,,,,,,,,,,,,,,,,,,,,,336.0,1.0,,,,,,,,,,,,,,,
334,,iti,,html-keyboard-response,334,850221,0.0-1.0-62.0-0.0-5.0,0,0,59346,,,,,,,,,,,,,,,,,,,,,,,,,,,,,338.0,2.0,,,,,,,,,,,,,,,
335,,choice,,html-keyboard-response,335,850984,0.0-1.0-63.0-0.0-0.0,0,0,59346,,754.0,,,68.0,61.0,61.0,3500.0,1500.0,0.0,1.0,0.0,20-40,,0.0,pen,vase,20.0,40.0,pen4,vase9,40.0,40.0,Montblanc_Greta_Garbo_BP copy.jpg,Avasewithang2.jpg,/static/Category_learning/Stimuli/Experimental_stims/pen/Montblanc_Greta_Garbo_BP copy.jpg,/static/Category_learning/Stimuli/Experimental_stims/vase/Avasewithang2.jpg,0.0,338.754,0.754,1.0,pen,vase,20.0,40.0,pen4,vase9,40.0,40.0,,,,,,
336,,confirmation,,html-keyboard-response,336,851750,0.0-1.0-63.0-0.0-1.0-0.0,0,0,59346,,,,,,61.0,,,,,,,,,,,,,,,,,,,,,,,339.5,0.746,,,,,,,,,,,,,,,
337,,isi,,html-keyboard-response,337,855271,0.0-1.0-63.0-0.0-2.0,0,0,59346,,,,,,,,,,,,,,,,,,,,,,,,,,,,,343.0,3.5,,,,,,,,,,,,,,,
338,,feedback,,html-keyboard-response,338,856284,0.0-1.0-63.0-0.0-3.0-0.0,0,0,59346,,,,,,61.0,,,,,,,,,,,,,,,,,,,,,,,344.0,1.0,,,,,,,,,,,,,,,
339,,iti,,html-keyboard-response,339,857795,0.0-1.0-63.0-0.0-5.0,0,0,59346,,,,,,,,,,,,,,,,,,,,,,,,,,,,,345.5,1.5,,,,,,,,,,,,,,,
340,,choice,,html-keyboard-response,340,858413,0.0-1.0-64.0-0.0-0.0,0,0,59346,,609.0,,,68.0,62.0,62.0,1000.0,2000.0,0.0,1.0,1.0,20-80,0.0,,motorcycle,necklace,80.0,20.0,motorcycle2,necklace6,100.0,0.0,motorcycle33.jpg,Agoldnecklace.jpg,/static/Category_learning/Stimuli/Experimental_stims/motorcycle/motorcycle33.jpg,/static/Category_learning/Stimuli/Experimental_stims/necklace/Agoldnecklace.jpg,0.0,346.109,0.609,1.0,motorcycle,necklace,80.0,20.0,motorcycle2,necklace6,100.0,0.0,,,,,,
341,,confirmation,,html-keyboard-response,341,859316,0.0-1.0-64.0-0.0-1.0-0.0,0,0,59346,,,,,,62.0,,,,,,,,,,,,,,,,,,,,,,,347.0,0.891,,,,,,,,,,,,,,,
342,,isi,,html-keyboard-response,342,860334,0.0-1.0-64.0-0.0-2.0,0,0,59346,,,,,,,,,,,,,,,,,,,,,,,,,,,,,348.0,1.0,,,,,,,,,,,,,,,
343,,feedback,,html-keyboard-response,343,861352,0.0-1.0-64.0-0.0-3.0-0.0,0,0,59346,,,,,,62.0,,,,,,,,,,,,,,,,,,,,,,,349.0,1.0,,,,,,,,,,,,,,,
344,,iti,,html-keyboard-response,344,863367,0.0-1.0-64.0-0.0-5.0,0,0,59346,,,,,,,,,,,,,,,,,,,,,,,,,,,,,351.0,2.0,,,,,,,,,,,,,,,
345,,block_over,,html-keyboard-response,345,867691,0.0-1.0-64.0-0.0-7.0-0.0,0,0,59346,,4307.0,,,68.0,62.0,,,,,,,,,,,,,,,,,,,,,,,,,,,,,,,,,,,,,,,
346,,start_run,,html-keyboard-response,346,869450,0.0-1.0-64.0-0.0-7.0-1.0,0,0,59346,,1752.0,,,84.0,,,,,,,,,,,,,,,,,,,,,,,,,,,,,,,,,,,,,,,,
347,,choice,,html-keyboard-response,347,870498,0.0-1.0-65.0-0.0-0.0,0,0,59346,,1039.0,,,68.0,63.0,65.0,3000.0,2000.0,0.0,2.0,0.0,40-40,,,watch,tape,40.0,40.0,watch9,tape2,40.0,20.0,mens-diamond-watches-euro-48733-ab.jpg,Tape_Dispenser.jpg,/static/Category_learning/Stimuli/Experimental_stims/watch/mens-diamond-watches-euro-48733-ab.jpg,/static/Category_learning/Stimuli/Experimental_stims/tape/Tape_Dispenser.jpg,0.0,1.039,1.039,1.0,watch,tape,40.0,40.0,watch9,tape2,40.0,20.0,,,,,,
348,,confirmation,,html-keyboard-response,348,870970,0.0-1.0-65.0-0.0-1.0-0.0,0,0,59346,,,,,,63.0,,,,,,,,,,,,,,,,,,,,,,,1.5,0.461,,,,,,,,,,,,,,,
349,,isi,,html-keyboard-response,349,873990,0.0-1.0-65.0-0.0-2.0,0,0,59346,,,,,,,,,,,,,,,,,,,,,,,,,,,,,4.5,3.0,,,,,,,,,,,,,,,
350,,feedback,,html-keyboard-response,350,875005,0.0-1.0-65.0-0.0-3.0-0.0,0,0,59346,,,,,,63.0,,,,,,,,,,,,,,,,,,,,,,,5.5,1.0,,,,,,,,,,,,,,,
351,,iti,,html-keyboard-response,351,877015,0.0-1.0-65.0-0.0-5.0,0,0,59346,,,,,,,,,,,,,,,,,,,,,,,,,,,,,7.5,2.0,,,,,,,,,,,,,,,
352,,choice,,html-keyboard-response,352,877682,0.0-1.0-66.0-0.0-0.0,0,0,59346,,657.0,,,68.0,64.0,66.0,3000.0,1500.0,0.0,2.0,0.0,20-60,,0.0,pen,bowl,20.0,60.0,pen3,bowl13,0.0,80.0,pen08.jpg,Asoupbowl8.jpg,/static/Category_learning/Stimuli/Experimental_stims/pen/pen08.jpg,/static/Category_learning/Stimuli/Experimental_stims/bowl/Asoupbowl8.jpg,0.0,8.157,0.657,1.0,pen,bowl,20.0,60.0,pen3,bowl13,0.0,80.0,,,,,,
353,,confirmation,,html-keyboard-response,353,878548,0.0-1.0-66.0-0.0-1.0-0.0,0,0,59346,,,,,,64.0,,,,,,,,,,,,,,,,,,,,,,,9.0,0.843,,,,,,,,,,,,,,,
354,,isi,,html-keyboard-response,354,881560,0.0-1.0-66.0-0.0-2.0,0,0,59346,,,,,,,,,,,,,,,,,,,,,,,,,,,,,12.0,3.0,,,,,,,,,,,,,,,
355,,feedback,,html-keyboard-response,355,882575,0.0-1.0-66.0-0.0-3.0-0.0,0,0,59346,,,,,,64.0,,,,,,,,,,,,,,,,,,,,,,,13.0,1.0,,,,,,,,,,,,,,,
356,,iti,,html-keyboard-response,356,884086,0.0-1.0-66.0-0.0-5.0,0,0,59346,,,,,,,,,,,,,,,,,,,,,,,,,,,,,14.5,1.5,,,,,,,,,,,,,,,
357,,choice,,html-keyboard-response,357,884942,0.0-1.0-67.0-0.0-0.0,0,0,59346,,845.0,,,75.0,65.0,67.0,1000.0,3000.0,0.0,2.0,0.0,20-60,,0.0,nail polish,bongo,20.0,60.0,nail polish1,bongo8,20.0,80.0,200.jpg,26390661.thl.jpg,/static/Category_learning/Stimuli/Experimental_stims/nail polish/200.jpg,/static/Category_learning/Stimuli/Experimental_stims/bongo/26390661.thl.jpg,0.0,15.345,0.845,0.0,bongo,nail polish,60.0,20.0,bongo8,nail polish1,80.0,20.0,,,,,,
358,,confirmation,,html-keyboard-response,358,885610,0.0-1.0-67.0-0.0-1.0-0.0,0,0,59346,,,,,,65.0,,,,,,,,,,,,,,,,,,,,,,,16.0,0.655,,,,,,,,,,,,,,,
359,,isi,,html-keyboard-response,359,886631,0.0-1.0-67.0-0.0-2.0,0,0,59346,,,,,,,,,,,,,,,,,,,,,,,,,,,,,17.0,1.0,,,,,,,,,,,,,,,
360,,feedback,,html-keyboard-response,360,887650,0.0-1.0-67.0-0.0-3.0-0.0,0,0,59346,,,,,,65.0,,,,,,,,,,,,,,,,,,,,,,,18.0,1.0,,,,,,,,,,,,,,,
361,,iti,,html-keyboard-response,361,890663,0.0-1.0-67.0-0.0-5.0,0,0,59346,,,,,,,,,,,,,,,,,,,,,,,,,,,,,21.0,3.0,,,,,,,,,,,,,,,
362,,choice,,html-keyboard-response,362,891537,0.0-1.0-68.0-0.0-0.0,0,0,59346,,866.0,,,68.0,66.0,68.0,1000.0,2000.0,0.0,2.0,0.0,20-20,,,power strip,patio lounge chair,20.0,20.0,power strip14,patio lounge chair13,20.0,20.0,88b2c724-e781-44ae-85d5-27b7591f659d_400.jpg,grosfillex-bahia-resin-chaise-lounges.jpg,/static/Category_learning/Stimuli/Experimental_stims/power strip/88b2c724-e781-44ae-85d5-27b7591f659d_400.jpg,/static/Category_learning/Stimuli/Experimental_stims/patio lounge chair/grosfillex-bahia-resin-chaise-lounges.jpg,0.0,21.866,0.866,1.0,power strip,patio lounge chair,20.0,20.0,power strip14,patio lounge chair13,20.0,20.0,,,,,,
363,,confirmation,,html-keyboard-response,363,892182,0.0-1.0-68.0-0.0-1.0-0.0,0,0,59346,,,,,,66.0,,,,,,,,,,,,,,,,,,,,,,,22.5,0.634,,,,,,,,,,,,,,,
364,,isi,,html-keyboard-response,364,893199,0.0-1.0-68.0-0.0-2.0,0,0,59346,,,,,,,,,,,,,,,,,,,,,,,,,,,,,23.5,1.0,,,,,,,,,,,,,,,
365,,feedback,,html-keyboard-response,365,894208,0.0-1.0-68.0-0.0-3.0-0.0,0,0,59346,,,,,,66.0,,,,,,,,,,,,,,,,,,,,,,,24.5,1.0,,,,,,,,,,,,,,,
366,,iti,,html-keyboard-response,366,896224,0.0-1.0-68.0-0.0-5.0,0,0,59346,,,,,,,,,,,,,,,,,,,,,,,,,,,,,26.5,2.0,,,,,,,,,,,,,,,
367,,choice,,html-keyboard-response,367,897308,0.0-1.0-69.0-0.0-0.0,0,0,59346,,1075.0,,,75.0,67.0,69.0,1500.0,1500.0,0.0,2.0,0.0,40-40,,,tent,train,40.0,40.0,tent2,train1,40.0,40.0,Atent16.jpg,Model_Train.jpg,/static/Category_learning/Stimuli/Experimental_stims/tent/Atent16.jpg,/static/Category_learning/Stimuli/Experimental_stims/train/Model_Train.jpg,0.0,27.575,1.075,0.0,train,tent,40.0,40.0,train1,tent2,40.0,40.0,,,,,,
368,,confirmation,,html-keyboard-response,368,897747,0.0-1.0-69.0-0.0-1.0-0.0,0,0,59346,,,,,,67.0,,,,,,,,,,,,,,,,,,,,,,,28.0,0.425,,,,,,,,,,,,,,,
369,,isi,,html-keyboard-response,369,899264,0.0-1.0-69.0-0.0-2.0,0,0,59346,,,,,,,,,,,,,,,,,,,,,,,,,,,,,29.5,1.5,,,,,,,,,,,,,,,
370,,feedback,,html-keyboard-response,370,900282,0.0-1.0-69.0-0.0-3.0-0.0,0,0,59346,,,,,,67.0,,,,,,,,,,,,,,,,,,,,,,,30.5,1.0,,,,,,,,,,,,,,,
371,,iti,,html-keyboard-response,371,901798,0.0-1.0-69.0-0.0-5.0,0,0,59346,,,,,,,,,,,,,,,,,,,,,,,,,,,,,32.0,1.5,,,,,,,,,,,,,,,
372,,choice,,html-keyboard-response,372,902522,0.0-1.0-70.0-0.0-0.0,0,0,59346,,715.0,,,68.0,68.0,70.0,1500.0,1500.0,0.0,2.0,0.0,40-80,,1.0,key chain,vase,80.0,40.0,key chain5,vase7,60.0,60.0,keychain-metal-logo.jpg,8246344.thl.jpg,/static/Category_learning/Stimuli/Experimental_stims/key chain/keychain-metal-logo.jpg,/static/Category_learning/Stimuli/Experimental_stims/vase/8246344.thl.jpg,0.0,32.715,0.715,1.0,key chain,vase,80.0,40.0,key chain5,vase7,60.0,60.0,,,,,,
373,,confirmation,,html-keyboard-response,373,903330,0.0-1.0-70.0-0.0-1.0-0.0,0,0,59346,,,,,,68.0,,,,,,,,,,,,,,,,,,,,,,,33.5,0.785,,,,,,,,,,,,,,,
374,,isi,,html-keyboard-response,374,904847,0.0-1.0-70.0-0.0-2.0,0,0,59346,,,,,,,,,,,,,,,,,,,,,,,,,,,,,35.0,1.5,,,,,,,,,,,,,,,
375,,feedback,,html-keyboard-response,375,905866,0.0-1.0-70.0-0.0-3.0-0.0,0,0,59346,,,,,,68.0,,,,,,,,,,,,,,,,,,,,,,,36.0,1.0,,,,,,,,,,,,,,,
376,,iti,,html-keyboard-response,376,907378,0.0-1.0-70.0-0.0-5.0,0,0,59346,,,,,,,,,,,,,,,,,,,,,,,,,,,,,37.5,1.5,,,,,,,,,,,,,,,
377,,choice,,html-keyboard-response,377,908131,0.0-1.0-71.0-0.0-0.0,0,0,59346,,742.0,,,75.0,69.0,71.0,1000.0,2000.0,0.0,2.0,0.0,20-40,,0.0,power strip,trumpet,20.0,40.0,power strip5,trumpet8,0.0,60.0,93e4a283-bcd6-4ad1-8add-339658cda0fc_400.jpg,trumpet33.jpg,/static/Category_learning/Stimuli/Experimental_stims/power strip/93e4a283-bcd6-4ad1-8add-339658cda0fc_400.jpg,/static/Category_learning/Stimuli/Experimental_stims/trumpet/trumpet33.jpg,0.0,38.242,0.742,0.0,trumpet,power strip,40.0,20.0,trumpet8,power strip5,60.0,0.0,,,,,,
378,,confirmation,,html-keyboard-response,378,908905,0.0-1.0-71.0-0.0-1.0-0.0,0,0,59346,,,,,,69.0,,,,,,,,,,,,,,,,,,,,,,,39.0,0.758,,,,,,,,,,,,,,,
379,,isi,,html-keyboard-response,379,909923,0.0-1.0-71.0-0.0-2.0,0,0,59346,,,,,,,,,,,,,,,,,,,,,,,,,,,,,40.0,1.0,,,,,,,,,,,,,,,
380,,feedback,,html-keyboard-response,380,910932,0.0-1.0-71.0-0.0-3.0-0.0,0,0,59346,,,,,,69.0,,,,,,,,,,,,,,,,,,,,,,,41.0,1.0,,,,,,,,,,,,,,,
381,,iti,,html-keyboard-response,381,912951,0.0-1.0-71.0-0.0-5.0,0,0,59346,,,,,,,,,,,,,,,,,,,,,,,,,,,,,43.0,2.0,,,,,,,,,,,,,,,
382,,choice,,html-keyboard-response,382,913856,0.0-1.0-72.0-0.0-0.0,0,0,59346,,897.0,,,75.0,70.0,72.0,3500.0,1000.0,0.0,2.0,0.0,40-80,,1.0,key chain,watch,80.0,40.0,key chain10,watch3,80.0,60.0,Smurfs_Keychains_Smurf_Row_Boat.jpg,B0000TIIVO.01._SCLZZZZZZZ_V1124920780_.jpg,/static/Category_learning/Stimuli/Experimental_stims/key chain/Smurfs_Keychains_Smurf_Row_Boat.jpg,/static/Category_learning/Stimuli/Experimental_stims/watch/B0000TIIVO.01._SCLZZZZZZZ_V1124920780_.jpg,0.0,43.897,0.897,0.0,watch,key chain,40.0,80.0,watch3,key chain10,60.0,80.0,,,,,,
383,,confirmation,,html-keyboard-response,383,914476,0.0-1.0-72.0-0.0-1.0-0.0,0,0,59346,,,,,,70.0,,,,,,,,,,,,,,,,,,,,,,,44.5,0.603,,,,,,,,,,,,,,,
384,,isi,,html-keyboard-response,384,917984,0.0-1.0-72.0-0.0-2.0,0,0,59346,,,,,,,,,,,,,,,,,,,,,,,,,,,,,48.0,3.5,,,,,,,,,,,,,,,
385,,feedback,,html-keyboard-response,385,919002,0.0-1.0-72.0-0.0-3.0-0.0,0,0,59346,,,,,,70.0,,,,,,,,,,,,,,,,,,,,,,,49.0,1.0,,,,,,,,,,,,,,,
386,,iti,,html-keyboard-response,386,920018,0.0-1.0-72.0-0.0-5.0,0,0,59346,,,,,,,,,,,,,,,,,,,,,,,,,,,,,50.0,1.0,,,,,,,,,,,,,,,
387,,choice,,html-keyboard-response,387,920952,0.0-1.0-73.0-0.0-0.0,0,0,59346,,927.0,,,75.0,71.0,73.0,2000.0,2000.0,0.0,2.0,0.0,20-60,,0.0,small table,baby carriage,20.0,60.0,small table3,baby carriage14,20.0,80.0,Atable122.jpg,peg_perego_uno_verde.jpg,/static/Category_learning/Stimuli/Experimental_stims/small table/Atable122.jpg,/static/Category_learning/Stimuli/Experimental_stims/baby carriage/peg_perego_uno_verde.jpg,0.0,50.927,0.927,0.0,baby carriage,small table,60.0,20.0,baby carriage14,small table3,80.0,20.0,,,,,,
388,,confirmation,,html-keyboard-response,388,921547,0.0-1.0-73.0-0.0-1.0-0.0,0,0,59346,,,,,,71.0,,,,,,,,,,,,,,,,,,,,,,,51.5,0.573,,,,,,,,,,,,,,,
389,,isi,,html-keyboard-response,389,923564,0.0-1.0-73.0-0.0-2.0,0,0,59346,,,,,,,,,,,,,,,,,,,,,,,,,,,,,53.5,2.0,,,,,,,,,,,,,,,
390,,feedback,,html-keyboard-response,390,924582,0.0-1.0-73.0-0.0-3.0-0.0,0,0,59346,,,,,,71.0,,,,,,,,,,,,,,,,,,,,,,,54.5,1.0,,,,,,,,,,,,,,,
391,,iti,,html-keyboard-response,391,926597,0.0-1.0-73.0-0.0-5.0,0,0,59346,,,,,,,,,,,,,,,,,,,,,,,,,,,,,56.5,2.0,,,,,,,,,,,,,,,
392,,choice,,html-keyboard-response,392,927265,0.0-1.0-74.0-0.0-0.0,0,0,59346,,660.0,,,68.0,72.0,74.0,2000.0,3500.0,0.0,2.0,0.0,40-60,,1.0,baby carriage,train,60.0,40.0,baby carriage13,train15,40.0,40.0,300px-Barnevogn2.jpg,master-TD006.jpg,/static/Category_learning/Stimuli/Experimental_stims/baby carriage/300px-Barnevogn2.jpg,/static/Category_learning/Stimuli/Experimental_stims/train/master-TD006.jpg,0.0,57.16,0.66,1.0,baby carriage,train,60.0,40.0,baby carriage13,train15,40.0,40.0,,,,,,
393,,confirmation,,html-keyboard-response,393,928118,0.0-1.0-74.0-0.0-1.0-0.0,0,0,59346,,,,,,72.0,,,,,,,,,,,,,,,,,,,,,,,58.0,0.84,,,,,,,,,,,,,,,
394,,isi,,html-keyboard-response,394,930129,0.0-1.0-74.0-0.0-2.0,0,0,59346,,,,,,,,,,,,,,,,,,,,,,,,,,,,,60.0,2.0,,,,,,,,,,,,,,,
395,,feedback,,html-keyboard-response,395,931148,0.0-1.0-74.0-0.0-3.0-0.0,0,0,59346,,,,,,72.0,,,,,,,,,,,,,,,,,,,,,,,61.0,1.0,,,,,,,,,,,,,,,
396,,iti,,html-keyboard-response,396,934664,0.0-1.0-74.0-0.0-5.0,0,0,59346,,,,,,,,,,,,,,,,,,,,,,,,,,,,,64.5,3.5,,,,,,,,,,,,,,,
397,,choice,,html-keyboard-response,397,935346,0.0-1.0-75.0-0.0-0.0,0,0,59346,,673.0,,,68.0,73.0,75.0,1000.0,1000.0,0.0,2.0,0.0,40-80,,0.0,trumpet,hat,40.0,80.0,trumpet2,hat12,40.0,60.0,Matt-Stevens-Pocket-Trumpet.jpg,Aformalhat5.jpg,/static/Category_learning/Stimuli/Experimental_stims/trumpet/Matt-Stevens-Pocket-Trumpet.jpg,/static/Category_learning/Stimuli/Experimental_stims/hat/Aformalhat5.jpg,0.0,65.173,0.673,1.0,trumpet,hat,40.0,80.0,trumpet2,hat12,40.0,60.0,,,,,,
398,,confirmation,,html-keyboard-response,398,936191,0.0-1.0-75.0-0.0-1.0-0.0,0,0,59346,,,,,,73.0,,,,,,,,,,,,,,,,,,,,,,,66.0,0.827,,,,,,,,,,,,,,,
399,,isi,,html-keyboard-response,399,937205,0.0-1.0-75.0-0.0-2.0,0,0,59346,,,,,,,,,,,,,,,,,,,,,,,,,,,,,67.0,1.0,,,,,,,,,,,,,,,
400,,feedback,,html-keyboard-response,400,938230,0.0-1.0-75.0-0.0-3.0-0.0,0,0,59346,,,,,,73.0,,,,,,,,,,,,,,,,,,,,,,,68.0,1.0,,,,,,,,,,,,,,,
401,,iti,,html-keyboard-response,401,939247,0.0-1.0-75.0-0.0-5.0,0,0,59346,,,,,,,,,,,,,,,,,,,,,,,,,,,,,69.0,1.0,,,,,,,,,,,,,,,
402,,choice,,html-keyboard-response,402,939872,0.0-1.0-76.0-0.0-0.0,0,0,59346,,616.0,,,75.0,74.0,76.0,1000.0,1000.0,0.0,2.0,0.0,20-40,,1.0,trumpet,poker card,40.0,20.0,trumpet1,poker card2,60.0,40.0,JUPITER+TROMPETTE+606MRL.JPG,22864716.thl.jpg,/static/Category_learning/Stimuli/Experimental_stims/trumpet/JUPITER+TROMPETTE+606MRL.JPG,/static/Category_learning/Stimuli/Experimental_stims/poker card/22864716.thl.jpg,0.0,69.616,0.616,0.0,poker card,trumpet,20.0,40.0,poker card2,trumpet1,40.0,60.0,,,,,,
403,,confirmation,,html-keyboard-response,403,940772,0.0-1.0-76.0-0.0-1.0-0.0,0,0,59346,,,,,,74.0,,,,,,,,,,,,,,,,,,,,,,,70.5,0.884,,,,,,,,,,,,,,,
404,,isi,,html-keyboard-response,404,941797,0.0-1.0-76.0-0.0-2.0,0,0,59346,,,,,,,,,,,,,,,,,,,,,,,,,,,,,71.5,1.0,,,,,,,,,,,,,,,
405,,feedback,,html-keyboard-response,405,942815,0.0-1.0-76.0-0.0-3.0-0.0,0,0,59346,,,,,,74.0,,,,,,,,,,,,,,,,,,,,,,,72.5,1.0,,,,,,,,,,,,,,,
406,,iti,,html-keyboard-response,406,943828,0.0-1.0-76.0-0.0-5.0,0,0,59346,,,,,,,,,,,,,,,,,,,,,,,,,,,,,73.5,1.0,,,,,,,,,,,,,,,
407,,choice,,html-keyboard-response,407,944480,0.0-1.0-77.0-0.0-0.0,0,0,59346,,642.0,,,68.0,75.0,77.0,1500.0,1000.0,0.0,2.0,0.0,20-80,,1.0,microscope,necklace,80.0,20.0,microscope5,necklace4,100.0,20.0,emMicroscope.jpg,emerald_diamond_necklace.jpg,/static/Category_learning/Stimuli/Experimental_stims/microscope/emMicroscope.jpg,/static/Category_learning/Stimuli/Experimental_stims/necklace/emerald_diamond_necklace.jpg,0.0,74.142,0.642,1.0,microscope,necklace,80.0,20.0,microscope5,necklace4,100.0,20.0,,,,,,
408,,confirmation,,html-keyboard-response,408,945357,0.0-1.0-77.0-0.0-1.0-0.0,0,0,59346,,,,,,75.0,,,,,,,,,,,,,,,,,,,,,,,75.0,0.858,,,,,,,,,,,,,,,
409,,isi,,html-keyboard-response,409,946874,0.0-1.0-77.0-0.0-2.0,0,0,59346,,,,,,,,,,,,,,,,,,,,,,,,,,,,,76.5,1.5,,,,,,,,,,,,,,,
410,,feedback,,html-keyboard-response,410,947897,0.0-1.0-77.0-0.0-3.0-0.0,0,0,59346,,,,,,75.0,,,,,,,,,,,,,,,,,,,,,,,77.5,1.0,,,,,,,,,,,,,,,
411,,iti,,html-keyboard-response,411,948916,0.0-1.0-77.0-0.0-5.0,0,0,59346,,,,,,,,,,,,,,,,,,,,,,,,,,,,,78.5,1.0,,,,,,,,,,,,,,,
412,,choice,,html-keyboard-response,412,949500,0.0-1.0-78.0-0.0-0.0,0,0,59346,,575.0,,,68.0,76.0,78.0,1500.0,2000.0,0.0,2.0,1.0,60-60,1.0,,baby carriage,baby carriage,60.0,60.0,baby carriage13,baby carriage14,40.0,80.0,300px-Barnevogn2.jpg,peg_perego_uno_verde.jpg,/static/Category_learning/Stimuli/Experimental_stims/baby carriage/300px-Barnevogn2.jpg,/static/Category_learning/Stimuli/Experimental_stims/baby carriage/peg_perego_uno_verde.jpg,0.0,79.075,0.575,1.0,baby carriage,baby carriage,60.0,60.0,baby carriage13,baby carriage14,40.0,80.0,,,,,,
413,,confirmation,,html-keyboard-response,413,950448,0.0-1.0-78.0-0.0-1.0-0.0,0,0,59346,,,,,,76.0,,,,,,,,,,,,,,,,,,,,,,,80.0,0.925,,,,,,,,,,,,,,,
414,,isi,,html-keyboard-response,414,951962,0.0-1.0-78.0-0.0-2.0,0,0,59346,,,,,,,,,,,,,,,,,,,,,,,,,,,,,81.5,1.5,,,,,,,,,,,,,,,
415,,feedback,,html-keyboard-response,415,952980,0.0-1.0-78.0-0.0-3.0-0.0,0,0,59346,,,,,,76.0,,,,,,,,,,,,,,,,,,,,,,,82.5,1.0,,,,,,,,,,,,,,,
416,,iti,,html-keyboard-response,416,954989,0.0-1.0-78.0-0.0-5.0,0,0,59346,,,,,,,,,,,,,,,,,,,,,,,,,,,,,84.5,2.0,,,,,,,,,,,,,,,
417,,choice,,html-keyboard-response,417,955844,0.0-1.0-79.0-0.0-0.0,0,0,59346,,846.0,,,75.0,77.0,79.0,1500.0,3500.0,0.0,2.0,1.0,40-40,1.0,,trumpet,trumpet,40.0,40.0,trumpet8,trumpet2,60.0,40.0,trumpet33.jpg,Matt-Stevens-Pocket-Trumpet.jpg,/static/Category_learning/Stimuli/Experimental_stims/trumpet/trumpet33.jpg,/static/Category_learning/Stimuli/Experimental_stims/trumpet/Matt-Stevens-Pocket-Trumpet.jpg,0.0,85.346,0.846,0.0,trumpet,trumpet,40.0,40.0,trumpet2,trumpet8,40.0,60.0,,,,,,
418,,confirmation,,html-keyboard-response,418,956522,0.0-1.0-79.0-0.0-1.0-0.0,0,0,59346,,,,,,77.0,,,,,,,,,,,,,,,,,,,,,,,86.0,0.654,,,,,,,,,,,,,,,
419,,isi,,html-keyboard-response,419,958043,0.0-1.0-79.0-0.0-2.0,0,0,59346,,,,,,,,,,,,,,,,,,,,,,,,,,,,,87.5,1.5,,,,,,,,,,,,,,,
420,,feedback,,html-keyboard-response,420,959067,0.0-1.0-79.0-0.0-3.0-0.0,0,0,59346,,,,,,77.0,,,,,,,,,,,,,,,,,,,,,,,88.5,1.0,,,,,,,,,,,,,,,
421,,iti,,html-keyboard-response,421,962585,0.0-1.0-79.0-0.0-5.0,0,0,59346,,,,,,,,,,,,,,,,,,,,,,,,,,,,,92.0,3.5,,,,,,,,,,,,,,,
422,,choice,,html-keyboard-response,422,963399,0.0-1.0-80.0-0.0-0.0,0,0,59346,,807.0,,,68.0,78.0,80.0,1000.0,2000.0,0.0,2.0,0.0,20-80,,0.0,pen,key chain,20.0,80.0,pen6,key chain13,40.0,100.0,executive_pen2.jpg,Fancy_Liquid_Column_Shape_Key_Ring_with_Floater.jpg,/static/Category_learning/Stimuli/Experimental_stims/pen/executive_pen2.jpg,/static/Category_learning/Stimuli/Experimental_stims/key chain/Fancy_Liquid_Column_Shape_Key_Ring_with_Floater.jpg,0.0,92.807,0.807,1.0,pen,key chain,20.0,80.0,pen6,key chain13,40.0,100.0,,,,,,
423,,confirmation,,html-keyboard-response,423,964101,0.0-1.0-80.0-0.0-1.0-0.0,0,0,59346,,,,,,78.0,,,,,,,,,,,,,,,,,,,,,,,93.5,0.693,,,,,,,,,,,,,,,
424,,isi,,html-keyboard-response,424,965118,0.0-1.0-80.0-0.0-2.0,0,0,59346,,,,,,,,,,,,,,,,,,,,,,,,,,,,,94.5,1.0,,,,,,,,,,,,,,,
425,,feedback,,html-keyboard-response,425,966126,0.0-1.0-80.0-0.0-3.0-0.0,0,0,59346,,,,,,78.0,,,,,,,,,,,,,,,,,,,,,,,95.5,1.0,,,,,,,,,,,,,,,
426,,iti,,html-keyboard-response,426,968135,0.0-1.0-80.0-0.0-5.0,0,0,59346,,,,,,,,,,,,,,,,,,,,,,,,,,,,,97.5,2.0,,,,,,,,,,,,,,,
427,,choice,,html-keyboard-response,427,968945,0.0-1.0-81.0-0.0-0.0,0,0,59346,,800.0,,,68.0,79.0,81.0,3500.0,2000.0,0.0,2.0,0.0,60-60,,,bowl,bench,60.0,60.0,bowl7,bench2,80.0,60.0,Abowl54.jpg,26369969.thl.jpg,/static/Category_learning/Stimuli/Experimental_stims/bowl/Abowl54.jpg,/static/Category_learning/Stimuli/Experimental_stims/bench/26369969.thl.jpg,0.0,98.3,0.8,1.0,bowl,bench,60.0,60.0,bowl7,bench2,80.0,60.0,,,,,,
428,,confirmation,,html-keyboard-response,428,969653,0.0-1.0-81.0-0.0-1.0-0.0,0,0,59346,,,,,,79.0,,,,,,,,,,,,,,,,,,,,,,,99.0,0.7,,,,,,,,,,,,,,,
429,,isi,,html-keyboard-response,429,973166,0.0-1.0-81.0-0.0-2.0,0,0,59346,,,,,,,,,,,,,,,,,,,,,,,,,,,,,102.5,3.5,,,,,,,,,,,,,,,
430,,feedback,,html-keyboard-response,430,974189,0.0-1.0-81.0-0.0-3.0-0.0,0,0,59346,,,,,,79.0,,,,,,,,,,,,,,,,,,,,,,,103.5,1.0,,,,,,,,,,,,,,,
431,,iti,,html-keyboard-response,431,976211,0.0-1.0-81.0-0.0-5.0,0,0,59346,,,,,,,,,,,,,,,,,,,,,,,,,,,,,105.5,2.0,,,,,,,,,,,,,,,
432,,choice,,html-keyboard-response,432,976899,0.0-1.0-82.0-0.0-0.0,0,0,59346,,679.0,,,75.0,80.0,82.0,1000.0,1500.0,0.0,2.0,0.0,60-80,,1.0,frame,bench,80.0,60.0,frame14,bench1,80.0,40.0,AFRAME129.jpg,26419975.thl.jpg,/static/Category_learning/Stimuli/Experimental_stims/frame/AFRAME129.jpg,/static/Category_learning/Stimuli/Experimental_stims/bench/26419975.thl.jpg,0.0,106.179,0.679,0.0,bench,frame,60.0,80.0,bench1,frame14,40.0,80.0,,,,,,
433,,confirmation,,html-keyboard-response,433,977734,0.0-1.0-82.0-0.0-1.0-0.0,0,0,59346,,,,,,80.0,,,,,,,,,,,,,,,,,,,,,,,107.0,0.821,,,,,,,,,,,,,,,
434,,isi,,html-keyboard-response,434,978749,0.0-1.0-82.0-0.0-2.0,0,0,59346,,,,,,,,,,,,,,,,,,,,,,,,,,,,,108.0,1.0,,,,,,,,,,,,,,,
435,,feedback,,html-keyboard-response,435,979770,0.0-1.0-82.0-0.0-3.0-0.0,0,0,59346,,,,,,80.0,,,,,,,,,,,,,,,,,,,,,,,109.0,1.0,,,,,,,,,,,,,,,
436,,iti,,html-keyboard-response,436,981281,0.0-1.0-82.0-0.0-5.0,0,0,59346,,,,,,,,,,,,,,,,,,,,,,,,,,,,,110.5,1.5,,,,,,,,,,,,,,,
437,,choice,,html-keyboard-response,437,982314,0.0-1.0-83.0-0.0-0.0,0,0,59346,,1023.0,,,75.0,81.0,83.0,1500.0,1000.0,0.0,2.0,0.0,20-80,,1.0,key chain,poker card,80.0,20.0,key chain6,poker card12,80.0,20.0,highboy_keychain_ItemCA75384.jpg,22865676.thl.jpg,/static/Category_learning/Stimuli/Experimental_stims/key chain/highboy_keychain_ItemCA75384.jpg,/static/Category_learning/Stimuli/Experimental_stims/poker card/22865676.thl.jpg,0.0,111.523,1.023,0.0,poker card,key chain,20.0,80.0,poker card12,key chain6,20.0,80.0,,,,,,
438,,confirmation,,html-keyboard-response,438,982815,0.0-1.0-83.0-0.0-1.0-0.0,0,0,59346,,,,,,81.0,,,,,,,,,,,,,,,,,,,,,,,112.0,0.477,,,,,,,,,,,,,,,
439,,isi,,html-keyboard-response,439,984323,0.0-1.0-83.0-0.0-2.0,0,0,59346,,,,,,,,,,,,,,,,,,,,,,,,,,,,,113.5,1.5,,,,,,,,,,,,,,,
440,,feedback,,html-keyboard-response,440,985334,0.0-1.0-83.0-0.0-3.0-0.0,0,0,59346,,,,,,81.0,,,,,,,,,,,,,,,,,,,,,,,114.5,1.0,,,,,,,,,,,,,,,
441,,iti,,html-keyboard-response,441,986353,0.0-1.0-83.0-0.0-5.0,0,0,59346,,,,,,,,,,,,,,,,,,,,,,,,,,,,,115.5,1.0,,,,,,,,,,,,,,,
442,,choice,,html-keyboard-response,442,986926,0.0-1.0-84.0-0.0-0.0,0,0,59346,,565.0,,,68.0,82.0,84.0,2000.0,1500.0,0.0,2.0,0.0,20-60,,0.0,poker card,bowl,20.0,60.0,poker card6,bowl1,40.0,40.0,22864212.thl.jpg,ABOWLS6.jpg,/static/Category_learning/Stimuli/Experimental_stims/poker card/22864212.thl.jpg,/static/Category_learning/Stimuli/Experimental_stims/bowl/ABOWLS6.jpg,0.0,116.065,0.565,1.0,poker card,bowl,20.0,60.0,poker card6,bowl1,40.0,40.0,,,,,,
443,,confirmation,,html-keyboard-response,443,987874,0.0-1.0-84.0-0.0-1.0-0.0,0,0,59346,,,,,,82.0,,,,,,,,,,,,,,,,,,,,,,,117.0,0.935,,,,,,,,,,,,,,,
444,,isi,,html-keyboard-response,444,989888,0.0-1.0-84.0-0.0-2.0,0,0,59346,,,,,,,,,,,,,,,,,,,,,,,,,,,,,119.0,2.0,,,,,,,,,,,,,,,
445,,feedback,,html-keyboard-response,445,990912,0.0-1.0-84.0-0.0-3.0-0.0,0,0,59346,,,,,,82.0,,,,,,,,,,,,,,,,,,,,,,,120.0,1.0,,,,,,,,,,,,,,,
446,,iti,,html-keyboard-response,446,992431,0.0-1.0-84.0-0.0-5.0,0,0,59346,,,,,,,,,,,,,,,,,,,,,,,,,,,,,121.5,1.5,,,,,,,,,,,,,,,
447,,choice,,html-keyboard-response,447,993950,0.0-1.0-85.0-0.0-0.0,0,0,59346,,,,,,83.0,85.0,1500.0,3500.0,0.0,2.0,1.0,40-40,1.0,,train,train,40.0,40.0,train8,train1,40.0,40.0,PL51190.jpg,Model_Train.jpg,/static/Category_learning/Stimuli/Experimental_stims/train/PL51190.jpg,/static/Category_learning/Stimuli/Experimental_stims/train/Model_Train.jpg,1.0,123.0,1.5,,,,,,,,,,,,,,,
448,,isi,,html-keyboard-response,448,995469,0.0-1.0-85.0-0.0-2.0,0,0,59346,,,,,,,,,,,,,,,,,,,,,,,,,,,,,124.5,1.5,,,,,,,,,,,,,,,
449,,no_response,,html-keyboard-response,449,996490,0.0-1.0-85.0-0.0-4.0-0.0,0,0,59346,,,,,,,,,,,,,,,,,,,,,,,,,,,,,125.5,1.0,,,,,,,,,,,,,,,
450,,iti,,html-keyboard-response,450,1000061,0.0-1.0-85.0-0.0-5.0,0,0,59346,,,,,,,,,,,,,,,,,,,,,,,,,,,,,129.0,3.5,,,,,,,,,,,,,,,
451,,choice,,html-keyboard-response,451,1000932,0.0-1.0-85.0-0.1-0.1,0,0,59346,,863.0,,,75.0,83.0,85.0,1500.0,3500.0,0.0,2.0,1.0,40-40,1.0,,train,train,40.0,40.0,train8,train1,40.0,40.0,PL51190.jpg,Model_Train.jpg,/static/Category_learning/Stimuli/Experimental_stims/train/PL51190.jpg,/static/Category_learning/Stimuli/Experimental_stims/train/Model_Train.jpg,0.0,129.863,0.863,0.0,train,train,40.0,40.0,train1,train8,40.0,40.0,,,,,,
452,,confirmation,,html-keyboard-response,452,1001592,0.0-1.0-85.0-0.1-1.1-0.1,0,0,59346,,,,,,83.0,,,,,,,,,,,,,,,,,,,,,,,130.5,0.637,,,,,,,,,,,,,,,
453,,isi,,html-keyboard-response,453,1003115,0.0-1.0-85.0-0.1-2.1,0,0,59346,,,,,,,,,,,,,,,,,,,,,,,,,,,,,132.0,1.5,,,,,,,,,,,,,,,
454,,feedback,,html-keyboard-response,454,1004134,0.0-1.0-85.0-0.1-3.1-0.1,0,0,59346,,,,,,83.0,,,,,,,,,,,,,,,,,,,,,,,133.0,1.0,,,,,,,,,,,,,,,
455,,iti,,html-keyboard-response,455,1005148,0.0-1.0-85.0-0.1-5.1,0,0,59346,,,,,,,,,,,,,,,,,,,,,,,,,,,,,134.0,1.0,,,,,,,,,,,,,,,
456,,choice,,html-keyboard-response,456,1006020,0.0-1.0-86.0-0.0-0.0,0,0,59346,,864.0,,,75.0,84.0,86.0,1000.0,1000.0,0.0,2.0,0.0,40-80,,1.0,frame,tape,80.0,40.0,frame1,tape11,80.0,20.0,AFRAME127.jpg,41FZA73H4JL._AA280_.jpg,/static/Category_learning/Stimuli/Experimental_stims/frame/AFRAME127.jpg,/static/Category_learning/Stimuli/Experimental_stims/tape/41FZA73H4JL._AA280_.jpg,0.0,134.864,0.864,0.0,tape,frame,40.0,80.0,tape11,frame1,20.0,80.0,,,,,,
457,,confirmation,,html-keyboard-response,457,1006664,0.0-1.0-86.0-0.0-1.0-0.0,0,0,59346,,,,,,84.0,,,,,,,,,,,,,,,,,,,,,,,135.5,0.636,,,,,,,,,,,,,,,
458,,isi,,html-keyboard-response,458,1007682,0.0-1.0-86.0-0.0-2.0,0,0,59346,,,,,,,,,,,,,,,,,,,,,,,,,,,,,136.5,1.0,,,,,,,,,,,,,,,
459,,feedback,,html-keyboard-response,459,1008696,0.0-1.0-86.0-0.0-3.0-0.0,0,0,59346,,,,,,84.0,,,,,,,,,,,,,,,,,,,,,,,137.5,1.0,,,,,,,,,,,,,,,
460,,iti,,html-keyboard-response,460,1009712,0.0-1.0-86.0-0.0-5.0,0,0,59346,,,,,,,,,,,,,,,,,,,,,,,,,,,,,138.5,1.0,,,,,,,,,,,,,,,
461,,choice,,html-keyboard-response,461,1010884,0.0-1.0-87.0-0.0-0.0,0,0,59346,,1164.0,,,75.0,85.0,87.0,1500.0,1000.0,0.0,2.0,0.0,20-60,,1.0,bowl,seashell,60.0,20.0,bowl12,seashell1,40.0,0.0,Abowl52.jpg,Aseashe34.jpg,/static/Category_learning/Stimuli/Experimental_stims/bowl/Abowl52.jpg,/static/Category_learning/Stimuli/Experimental_stims/seashell/Aseashe34.jpg,0.0,139.664,1.164,0.0,seashell,bowl,20.0,60.0,seashell1,bowl12,0.0,40.0,,,,,,
462,,confirmation,,html-keyboard-response,462,1011233,0.0-1.0-87.0-0.0-1.0-0.0,0,0,59346,,,,,,85.0,,,,,,,,,,,,,,,,,,,,,,,140.0,0.336,,,,,,,,,,,,,,,
463,,isi,,html-keyboard-response,463,1012747,0.0-1.0-87.0-0.0-2.0,0,0,59346,,,,,,,,,,,,,,,,,,,,,,,,,,,,,141.5,1.5,,,,,,,,,,,,,,,
464,,feedback,,html-keyboard-response,464,1013761,0.0-1.0-87.0-0.0-3.0-0.0,0,0,59346,,,,,,85.0,,,,,,,,,,,,,,,,,,,,,,,142.5,1.0,,,,,,,,,,,,,,,
465,,iti,,html-keyboard-response,465,1014774,0.0-1.0-87.0-0.0-5.0,0,0,59346,,,,,,,,,,,,,,,,,,,,,,,,,,,,,143.5,1.0,,,,,,,,,,,,,,,
466,,choice,,html-keyboard-response,466,1015648,0.0-1.0-88.0-0.0-0.0,0,0,59346,,865.0,,,75.0,86.0,88.0,1500.0,1000.0,0.0,2.0,0.0,40-60,,1.0,desk,watch,60.0,40.0,desk2,watch15,80.0,40.0,AA Luffield Radial crescent Desk 1600mm x 1200mm.jpg,20-171-6.jpg,/static/Category_learning/Stimuli/Experimental_stims/desk/AA Luffield Radial crescent Desk 1600mm x 1200mm.jpg,/static/Category_learning/Stimuli/Experimental_stims/watch/20-171-6.jpg,0.0,144.365,0.865,0.0,watch,desk,40.0,60.0,watch15,desk2,40.0,80.0,,,,,,
467,,confirmation,,html-keyboard-response,467,1016294,0.0-1.0-88.0-0.0-1.0-0.0,0,0,59346,,,,,,86.0,,,,,,,,,,,,,,,,,,,,,,,145.0,0.635,,,,,,,,,,,,,,,
468,,isi,,html-keyboard-response,468,1017810,0.0-1.0-88.0-0.0-2.0,0,0,59346,,,,,,,,,,,,,,,,,,,,,,,,,,,,,146.5,1.5,,,,,,,,,,,,,,,
469,,feedback,,html-keyboard-response,469,1018832,0.0-1.0-88.0-0.0-3.0-0.0,0,0,59346,,,,,,86.0,,,,,,,,,,,,,,,,,,,,,,,147.5,1.0,,,,,,,,,,,,,,,
470,,iti,,html-keyboard-response,470,1019850,0.0-1.0-88.0-0.0-5.0,0,0,59346,,,,,,,,,,,,,,,,,,,,,,,,,,,,,148.5,1.0,,,,,,,,,,,,,,,
471,,choice,,html-keyboard-response,471,1020958,0.0-1.0-89.0-0.0-0.0,0,0,59346,,1099.0,,,75.0,87.0,89.0,1000.0,3000.0,0.0,2.0,1.0,20-20,1.0,,pen,pen,20.0,20.0,pen6,pen3,40.0,0.0,executive_pen2.jpg,pen08.jpg,/static/Category_learning/Stimuli/Experimental_stims/pen/executive_pen2.jpg,/static/Category_learning/Stimuli/Experimental_stims/pen/pen08.jpg,0.0,149.599,1.099,0.0,pen,pen,20.0,20.0,pen3,pen6,0.0,40.0,,,,,,
472,,confirmation,,html-keyboard-response,472,1021377,0.0-1.0-89.0-0.0-1.0-0.0,0,0,59346,,,,,,87.0,,,,,,,,,,,,,,,,,,,,,,,150.0,0.401,,,,,,,,,,,,,,,
473,,isi,,html-keyboard-response,473,1022389,0.0-1.0-89.0-0.0-2.0,0,0,59346,,,,,,,,,,,,,,,,,,,,,,,,,,,,,151.0,1.0,,,,,,,,,,,,,,,
474,,feedback,,html-keyboard-response,474,1023410,0.0-1.0-89.0-0.0-3.0-0.0,0,0,59346,,,,,,87.0,,,,,,,,,,,,,,,,,,,,,,,152.0,1.0,,,,,,,,,,,,,,,
475,,iti,,html-keyboard-response,475,1026427,0.0-1.0-89.0-0.0-5.0,0,0,59346,,,,,,,,,,,,,,,,,,,,,,,,,,,,,155.0,3.0,,,,,,,,,,,,,,,
476,,choice,,html-keyboard-response,476,1027332,0.0-1.0-90.0-0.0-0.0,0,0,59346,,898.0,,,68.0,88.0,90.0,1000.0,1000.0,0.0,2.0,0.0,40-60,,0.0,tape,dresser,40.0,60.0,tape1,dresser2,20.0,80.0,aktotape_01.jpg,ADRESSE46.jpg,/static/Category_learning/Stimuli/Experimental_stims/tape/aktotape_01.jpg,/static/Category_learning/Stimuli/Experimental_stims/dresser/ADRESSE46.jpg,0.0,155.898,0.898,1.0,tape,dresser,40.0,60.0,tape1,dresser2,20.0,80.0,,,,,,
477,,confirmation,,html-keyboard-response,477,1027950,0.0-1.0-90.0-0.0-1.0-0.0,0,0,59346,,,,,,88.0,,,,,,,,,,,,,,,,,,,,,,,156.5,0.602,,,,,,,,,,,,,,,
478,,isi,,html-keyboard-response,478,1028970,0.0-1.0-90.0-0.0-2.0,0,0,59346,,,,,,,,,,,,,,,,,,,,,,,,,,,,,157.5,1.0,,,,,,,,,,,,,,,
479,,feedback,,html-keyboard-response,479,1029988,0.0-1.0-90.0-0.0-3.0-0.0,0,0,59346,,,,,,88.0,,,,,,,,,,,,,,,,,,,,,,,158.5,1.0,,,,,,,,,,,,,,,
480,,iti,,html-keyboard-response,480,1031010,0.0-1.0-90.0-0.0-5.0,0,0,59346,,,,,,,,,,,,,,,,,,,,,,,,,,,,,159.5,1.0,,,,,,,,,,,,,,,
481,,choice,,html-keyboard-response,481,1032086,0.0-1.0-91.0-0.0-0.0,0,0,59346,,1066.0,,,75.0,89.0,91.0,2000.0,1000.0,0.0,2.0,0.0,80-80,,,lipstick,frame,80.0,80.0,lipstick3,frame6,80.0,60.0,31sCvjMS3jL._SS500_.jpg,AFRAME123.jpg,/static/Category_learning/Stimuli/Experimental_stims/lipstick/31sCvjMS3jL._SS500_.jpg,/static/Category_learning/Stimuli/Experimental_stims/frame/AFRAME123.jpg,0.0,160.566,1.066,0.0,frame,lipstick,80.0,80.0,frame6,lipstick3,60.0,80.0,,,,,,
482,,confirmation,,html-keyboard-response,482,1032535,0.0-1.0-91.0-0.0-1.0-0.0,0,0,59346,,,,,,89.0,,,,,,,,,,,,,,,,,,,,,,,161.0,0.434,,,,,,,,,,,,,,,
