,success,ttype,start_time,trial_type,trial_index,time_elapsed,internal_node_id,warning,missed_checkup,PID,view_history,rt,responses,repeat_instructions,key_press,index,trial_num,isi,iti,is_practice,block,old_trial,pair_type,within_category,high_cat_on_left,left_category,right_category,left_category_value,right_category_value,left_exemplar,right_exemplar,left_exemplar_value,right_exemplar_value,left_img,right_img,left_img_path,right_img_path,left_chosen,chosen_category,unchosen_category,chosen_category_value,unchosen_category_value,chosen_exemplar,unchosen_exemplar,chosen_exemplar_value,unchosen_exemplar_value,no_response,onset,duration,end_practice,total_bonus_tally,category,category_group_value,category_value_response,did_not_enter_response
0,True,full_screen,d06072022hr1115,fullscreen,0,7768,0.0-0.0,0,0,15677,,,,,,,,,,,,,,,,,,,,,,,,,,,,,,,,,,,,,,,,,,,,,
1,,category_learning_instructions,,instructions,1,55685,0.0-1.0-0.0-0.0,0,0,15677,"[{""page_index"":0,""viewing_time"":7011},{""page_index"":1,""viewing_time"":14568},{""page_index"":2,""viewing_time"":6752},{""page_index"":3,""viewing_time"":8280},{""page_index"":4,""viewing_time"":7984},{""page_index"":5,""viewing_time"":1720},{""page_index"":6,""viewing_time"":1600}]",47916.0,,,,,,,,,,,,,,,,,,,,,,,,,,,,,,,,,,,,,,,,,,,
2,,category_learning_comprehension_check,,survey-multi-choice,2,67413,0.0-1.0-0.0-1.0,0,0,15677,,11725.0,"{""Q0"":""True"",""Q1"":""True"",""Q2"":""Stay the same"",""Q3"":""D for left and K for right""}",0.0,,,,,,,,,,,,,,,,,,,,,,,,,,,,,,,,,,,,,,,,,
3,,,,html-keyboard-response,3,68937,0.0-1.0-1.0,0,0,15677,,1519.0,,,68.0,,,,,,,,,,,,,,,,,,,,,,,,,,,,,,,,,,,,,,,,
4,,choice,,html-keyboard-response,4,70330,0.0-1.0-2.0-0.0-0.0,0,0,15677,,1388.0,,,75.0,0.0,0.0,1500.0,1000.0,1.0,0.0,0.0,20-80,,0.0,bagel,dumbbell,20.0,80.0,bagel1,dumbbell1,0.0,80.0,bagels_pumpernickel_large.jpg,31B64EN68AL._AA280_.jpg,/static/Category_learning/Stimuli/Practice_stims/bagel/bagels_pumpernickel_large.jpg,/static/Category_learning/Stimuli/Practice_stims/dumbbell/31B64EN68AL._AA280_.jpg,0.0,dumbbell,bagel,80.0,20.0,dumbbell1,bagel1,80.0,0.0,0.0,1.388,1.388,,,,,,
5,,confirmation,,html-keyboard-response,5,70445,0.0-1.0-2.0-0.0-1.0-0.0,0,0,15677,,,,,,0.0,,,,,0.0,,,,,,,,,,,,,,,,,,,,,,,,,,,1.5,0.112,,,,,,
6,,isi,,html-keyboard-response,6,71948,0.0-1.0-2.0-0.0-2.0,0,0,15677,,,,,,0.0,,,,,0.0,,,,,,,,,,,,,,,,,,,,,,,,,,,3.0,1.5,,,,,,
7,,feedback,,html-keyboard-response,7,72951,0.0-1.0-2.0-0.0-3.0-0.0,0,0,15677,,,,,,0.0,,,,,0.0,,,,,,,,,,,,,,,,,,,,,,,,,,,4.0,1.0,,,,,,
8,,iti,,html-keyboard-response,8,73954,0.0-1.0-2.0-0.0-5.0,0,0,15677,,,,,,0.0,,,,,0.0,,,,,,,,,,,,,,,,,,,,,,,,,,,5.0,1.0,,,,,,
9,,choice,,html-keyboard-response,9,75458,0.0-1.0-3.0-0.0-0.0,0,0,15677,,,,,,1.0,1.0,3000.0,1500.0,1.0,0.0,0.0,20-40,,1.0,calculator,bagel,40.0,20.0,calculator2,bagel2,20.0,20.0,22829064.thl.jpg,bagels_cinnraisin_large.jpg,/static/Category_learning/Stimuli/Practice_stims/calculator/22829064.thl.jpg,/static/Category_learning/Stimuli/Practice_stims/bagel/bagels_cinnraisin_large.jpg,,,,,,,,,,1.0,6.5,1.5,,,,,,
10,,isi,,html-keyboard-response,10,78461,0.0-1.0-3.0-0.0-2.0,0,0,15677,,,,,,1.0,,,,,0.0,,,,,,,,,,,,,,,,,,,,,,,,,,,9.5,3.0,,,,,,
11,,no_response,,html-keyboard-response,11,79464,0.0-1.0-3.0-0.0-4.0-0.0,0,0,15677,,,,,,1.0,,,,,0.0,,,,,,,,,,,,,,,,,,,,,,,,,,,10.5,1.0,,,,,,
12,,iti,,html-keyboard-response,12,80968,0.0-1.0-3.0-0.0-5.0,0,0,15677,,,,,,1.0,,,,,0.0,,,,,,,,,,,,,,,,,,,,,,,,,,,12.0,1.5,,,,,,
13,,choice,,html-keyboard-response,13,81731,0.0-1.0-3.0-0.1-0.1,0,0,15677,,759.0,,,68.0,1.0,1.0,3000.0,1500.0,1.0,0.0,0.0,20-40,,1.0,calculator,bagel,40.0,20.0,calculator2,bagel2,20.0,20.0,22829064.thl.jpg,bagels_cinnraisin_large.jpg,/static/Category_learning/Stimuli/Practice_stims/calculator/22829064.thl.jpg,/static/Category_learning/Stimuli/Practice_stims/bagel/bagels_cinnraisin_large.jpg,1.0,calculator,bagel,40.0,20.0,calculator2,bagel2,20.0,20.0,0.0,12.759,0.759,,,,,,
14,,confirmation,,html-keyboard-response,14,82476,0.0-1.0-3.0-0.1-1.1-0.1,0,0,15677,,,,,,1.0,,,,,0.0,,,,,,,,,,,,,,,,,,,,,,,,,,,13.5,0.741,,,,,,
15,,isi,,html-keyboard-response,15,85479,0.0-1.0-3.0-0.1-2.1,0,0,15677,,,,,,1.0,,,,,0.0,,,,,,,,,,,,,,,,,,,,,,,,,,,16.5,3.0,,,,,,
16,,feedback,,html-keyboard-response,16,86483,0.0-1.0-3.0-0.1-3.1-0.1,0,0,15677,,,,,,1.0,,,,,0.0,,,,,,,,,,,,,,,,,,,,,,,,,,,17.5,1.0,,,,,,
17,,iti,,html-keyboard-response,17,87985,0.0-1.0-3.0-0.1-5.1,0,0,15677,,,,,,1.0,,,,,0.0,,,,,,,,,,,,,,,,,,,,,,,,,,,19.0,1.5,,,,,,
18,,choice,,html-keyboard-response,18,88677,0.0-1.0-4.0-0.0-0.0,0,0,15677,,688.0,,,75.0,2.0,2.0,2000.0,3000.0,1.0,0.0,0.0,60-80,,0.0,clock,dumbbell,60.0,80.0,clock2,dumbbell2,60.0,100.0,26373355.thl.jpg,31K8MR6TMBL._SS500_.jpg,/static/Category_learning/Stimuli/Practice_stims/clock/26373355.thl.jpg,/static/Category_learning/Stimuli/Practice_stims/dumbbell/31K8MR6TMBL._SS500_.jpg,0.0,dumbbell,clock,80.0,60.0,dumbbell2,clock2,100.0,60.0,0.0,19.688,0.688,,,,,,
19,,confirmation,,html-keyboard-response,19,89492,0.0-1.0-4.0-0.0-1.0-0.0,0,0,15677,,,,,,2.0,,,,,0.0,,,,,,,,,,,,,,,,,,,,,,,,,,,20.5,0.812,,,,,,
20,,isi,,html-keyboard-response,20,91495,0.0-1.0-4.0-0.0-2.0,0,0,15677,,,,,,2.0,,,,,0.0,,,,,,,,,,,,,,,,,,,,,,,,,,,22.5,2.0,,,,,,
21,,feedback,,html-keyboard-response,21,92498,0.0-1.0-4.0-0.0-3.0-0.0,0,0,15677,,,,,,2.0,,,,,0.0,,,,,,,,,,,,,,,,,,,,,,,,,,,23.5,1.0,,,,,,
22,,iti,,html-keyboard-response,22,95501,0.0-1.0-4.0-0.0-5.0,0,0,15677,,,,,,2.0,,,,,0.0,,,,,,,,,,,,,,,,,,,,,,,,,,,26.5,3.0,,,,,,
23,,choice,,html-keyboard-response,23,96332,0.0-1.0-5.0-0.0-0.0,0,0,15677,,828.0,,,68.0,3.0,3.0,1000.0,2000.0,1.0,0.0,0.0,40-80,,0.0,calculator,clock,40.0,60.0,calculator1,clock1,40.0,40.0,22829184.thl.jpg,Aalarmclock2.jpg,/static/Category_learning/Stimuli/Practice_stims/calculator/22829184.thl.jpg,/static/Category_learning/Stimuli/Practice_stims/clock/Aalarmclock2.jpg,1.0,calculator,clock,40.0,60.0,calculator1,clock1,40.0,40.0,0.0,27.328,0.828,,,,,,
24,,confirmation,,html-keyboard-response,24,97009,0.0-1.0-5.0-0.0-1.0-0.0,0,0,15677,,,,,,3.0,,,,,0.0,,,,,,,,,,,,,,,,,,,,,,,,,,,28.0,0.672,,,,,,
25,,isi,,html-keyboard-response,25,98012,0.0-1.0-5.0-0.0-2.0,0,0,15677,,,,,,3.0,,,,,0.0,,,,,,,,,,,,,,,,,,,,,,,,,,,29.0,1.0,,,,,,
26,,feedback,,html-keyboard-response,26,99015,0.0-1.0-5.0-0.0-3.0-0.0,0,0,15677,,,,,,3.0,,,,,0.0,,,,,,,,,,,,,,,,,,,,,,,,,,,30.0,1.0,,,,,,
27,,iti,,html-keyboard-response,27,101018,0.0-1.0-5.0-0.0-5.0,0,0,15677,,,,,,3.0,,,,,0.0,,,,,,,,,,,,,,,,,,,,,,,,,,,32.0,2.0,,,,,,
28,,choice,,html-keyboard-response,28,101518,0.0-1.0-6.0-0.0-0.0,0,0,15677,,495.0,,,68.0,4.0,4.0,2500.0,2500.0,1.0,0.0,0.0,20-60,,1.0,dumbbell,bagel,80.0,20.0,dumbbell3,bagel3,100.0,40.0,41K7QVRX50L._SS500_.jpg,photo-169.jpg,/static/Category_learning/Stimuli/Practice_stims/dumbbell/41K7QVRX50L._SS500_.jpg,/static/Category_learning/Stimuli/Practice_stims/bagel/photo-169.jpg,1.0,dumbbell,bagel,80.0,20.0,dumbbell3,bagel3,100.0,40.0,0.0,32.495,0.495,1.0,,,,,
29,,confirmation,,html-keyboard-response,29,102526,0.0-1.0-6.0-0.0-1.0-0.0,0,0,15677,,,,,,4.0,,,,,0.0,,,,,,,,,,,,,,,,,,,,,,,,,,,33.5,1.005,,,,,,
30,,isi,,html-keyboard-response,30,105029,0.0-1.0-6.0-0.0-2.0,0,0,15677,,,,,,4.0,,,,,0.0,,,,,,,,,,,,,,,,,,,,,,,,,,,36.0,2.5,,,,,,
31,,feedback,,html-keyboard-response,31,106032,0.0-1.0-6.0-0.0-3.0-0.0,0,0,15677,,,,,,4.0,,,,,0.0,,,,,,,,,,,,,,,,,,,,,,,,,,,37.0,1.0,,,,,,
32,,iti,,html-keyboard-response,32,108535,0.0-1.0-6.0-0.0-5.0,0,0,15677,,,,,,4.0,,,,,0.0,,,,,,,,,,,,,,,,,,,,,,,,,,,39.5,2.5,,,,,,
33,,practice_over,,html-keyboard-response,33,110470,0.0-1.0-6.0-0.0-6.0-0.0,0,0,15677,,1934.0,,,68.0,4.0,,,,,,,,,,,,,,,,,,,,,,,,,,,,,,,,,,,,,,,
34,,start_run,,html-keyboard-response,34,112887,0.0-1.0-6.0-0.0-6.0-1.0,0,0,15677,,2415.0,,,84.0,,,,,,,,,,,,,,,,,,,,,,,,,,,,,,,,,,,,,,,,
35,,choice,,html-keyboard-response,35,113719,0.0-1.0-7.0-0.0-0.0,0,0,15677,,827.0,,,68.0,5.0,5.0,1000.0,1500.0,0.0,1.0,0.0,40-40,,,door knob,desk,40.0,40.0,door knob15,desk9,60.0,20.0,Legacy_oval.jpg,desk 189dr96dr chr.jpg,/static/Category_learning/Stimuli/Experimental_stims/door knob/Legacy_oval.jpg,/static/Category_learning/Stimuli/Experimental_stims/desk/desk 189dr96dr chr.jpg,1.0,door knob,desk,40.0,40.0,door knob15,desk9,60.0,20.0,0.0,0.827,0.827,,,,,,
36,,confirmation,,html-keyboard-response,36,114396,0.0-1.0-7.0-0.0-1.0-0.0,0,0,15677,,,,,,5.0,,,,,1.0,,,,,,,,,,,,,,,,,,,,,,,,,,,1.5,0.673,,,,,,
37,,isi,,html-keyboard-response,37,115400,0.0-1.0-7.0-0.0-2.0,0,0,15677,,,,,,5.0,,,,,1.0,,,,,,,,,,,,,,,,,,,,,,,,,,,2.5,1.0,,,,,,
38,,feedback,,html-keyboard-response,38,116404,0.0-1.0-7.0-0.0-3.0-0.0,0,0,15677,,,,,,5.0,,,,,1.0,,,,,,,,,,,,,,,,,,,,,,,,,,,3.5,1.0,,,,,,
39,,iti,,html-keyboard-response,39,117907,0.0-1.0-7.0-0.0-5.0,0,0,15677,,,,,,5.0,,,,,1.0,,,,,,,,,,,,,,,,,,,,,,,,,,,5.0,1.5,,,,,,
40,,choice,,html-keyboard-response,40,118592,0.0-1.0-8.0-0.0-0.0,0,0,15677,,678.0,,,75.0,6.0,6.0,1500.0,2000.0,0.0,1.0,0.0,40-80,,1.0,pen,door knob,80.0,40.0,pen12,door knob7,100.0,20.0,pen02.jpg,doorknob2.jpg,/static/Category_learning/Stimuli/Experimental_stims/pen/pen02.jpg,/static/Category_learning/Stimuli/Experimental_stims/door knob/doorknob2.jpg,0.0,door knob,pen,40.0,80.0,door knob7,pen12,20.0,100.0,0.0,5.678,0.678,,,,,,
41,,confirmation,,html-keyboard-response,41,119417,0.0-1.0-8.0-0.0-1.0-0.0,0,0,15677,,,,,,6.0,,,,,1.0,,,,,,,,,,,,,,,,,,,,,,,,,,,6.5,0.822,,,,,,
42,,isi,,html-keyboard-response,42,120921,0.0-1.0-8.0-0.0-2.0,0,0,15677,,,,,,6.0,,,,,1.0,,,,,,,,,,,,,,,,,,,,,,,,,,,8.0,1.5,,,,,,
43,,feedback,,html-keyboard-response,43,121926,0.0-1.0-8.0-0.0-3.0-0.0,0,0,15677,,,,,,6.0,,,,,1.0,,,,,,,,,,,,,,,,,,,,,,,,,,,9.0,1.0,,,,,,
44,,iti,,html-keyboard-response,44,123929,0.0-1.0-8.0-0.0-5.0,0,0,15677,,,,,,6.0,,,,,1.0,,,,,,,,,,,,,,,,,,,,,,,,,,,11.0,2.0,,,,,,
45,,choice,,html-keyboard-response,45,124633,0.0-1.0-9.0-0.0-0.0,0,0,15677,,700.0,,,75.0,7.0,7.0,1000.0,1500.0,0.0,1.0,0.0,80-80,,,seashell,pen,80.0,80.0,seashell3,pen3,80.0,80.0,coquillage.jpg,pen08.jpg,/static/Category_learning/Stimuli/Experimental_stims/seashell/coquillage.jpg,/static/Category_learning/Stimuli/Experimental_stims/pen/pen08.jpg,0.0,pen,seashell,80.0,80.0,pen3,seashell3,80.0,80.0,0.0,11.7,0.7,,,,,,
46,,confirmation,,html-keyboard-response,46,125436,0.0-1.0-9.0-0.0-1.0-0.0,0,0,15677,,,,,,7.0,,,,,1.0,,,,,,,,,,,,,,,,,,,,,,,,,,,12.5,0.8,,,,,,
47,,isi,,html-keyboard-response,47,126440,0.0-1.0-9.0-0.0-2.0,0,0,15677,,,,,,7.0,,,,,1.0,,,,,,,,,,,,,,,,,,,,,,,,,,,13.5,1.0,,,,,,
48,,feedback,,html-keyboard-response,48,127443,0.0-1.0-9.0-0.0-3.0-0.0,0,0,15677,,,,,,7.0,,,,,1.0,,,,,,,,,,,,,,,,,,,,,,,,,,,14.5,1.0,,,,,,
49,,iti,,html-keyboard-response,49,128946,0.0-1.0-9.0-0.0-5.0,0,0,15677,,,,,,7.0,,,,,1.0,,,,,,,,,,,,,,,,,,,,,,,,,,,16.0,1.5,,,,,,
50,,choice,,html-keyboard-response,50,129737,0.0-1.0-10.0-0.0-0.0,0,0,15677,,787.0,,,68.0,8.0,8.0,1000.0,2000.0,0.0,1.0,0.0,60-60,,,lipstick,key chain,60.0,60.0,lipstick10,key chain1,60.0,80.0,21K0D7QKFAL._SS500_.jpg,jm05s16.jpg,/static/Category_learning/Stimuli/Experimental_stims/lipstick/21K0D7QKFAL._SS500_.jpg,/static/Category_learning/Stimuli/Experimental_stims/key chain/jm05s16.jpg,1.0,lipstick,key chain,60.0,60.0,lipstick10,key chain1,60.0,80.0,0.0,16.787,0.787,,,,,,
51,,confirmation,,html-keyboard-response,51,130454,0.0-1.0-10.0-0.0-1.0-0.0,0,0,15677,,,,,,8.0,,,,,1.0,,,,,,,,,,,,,,,,,,,,,,,,,,,17.5,0.713,,,,,,
52,,isi,,html-keyboard-response,52,131457,0.0-1.0-10.0-0.0-2.0,0,0,15677,,,,,,8.0,,,,,1.0,,,,,,,,,,,,,,,,,,,,,,,,,,,18.5,1.0,,,,,,
53,,feedback,,html-keyboard-response,53,132462,0.0-1.0-10.0-0.0-3.0-0.0,0,0,15677,,,,,,8.0,,,,,1.0,,,,,,,,,,,,,,,,,,,,,,,,,,,19.5,1.0,,,,,,
54,,iti,,html-keyboard-response,54,134464,0.0-1.0-10.0-0.0-5.0,0,0,15677,,,,,,8.0,,,,,1.0,,,,,,,,,,,,,,,,,,,,,,,,,,,21.5,2.0,,,,,,
55,,choice,,html-keyboard-response,55,135330,0.0-1.0-11.0-0.0-0.0,0,0,15677,,862.0,,,75.0,9.0,9.0,3000.0,1500.0,0.0,1.0,0.0,60-80,,0.0,makeup compact,patio lounge chair,60.0,80.0,makeup compact4,patio lounge chair15,40.0,60.0,262668_fpx.jpg,phpThumb.jpg,/static/Category_learning/Stimuli/Experimental_stims/makeup compact/262668_fpx.jpg,/static/Category_learning/Stimuli/Experimental_stims/patio lounge chair/phpThumb.jpg,0.0,patio lounge chair,makeup compact,80.0,60.0,patio lounge chair15,makeup compact4,60.0,40.0,0.0,22.362,0.862,,,,,,
56,,confirmation,,html-keyboard-response,56,135972,0.0-1.0-11.0-0.0-1.0-0.0,0,0,15677,,,,,,9.0,,,,,1.0,,,,,,,,,,,,,,,,,,,,,,,,,,,23.0,0.638,,,,,,
57,,isi,,html-keyboard-response,57,138977,0.0-1.0-11.0-0.0-2.0,0,0,15677,,,,,,9.0,,,,,1.0,,,,,,,,,,,,,,,,,,,,,,,,,,,26.0,3.0,,,,,,
58,,feedback,,html-keyboard-response,58,139980,0.0-1.0-11.0-0.0-3.0-0.0,0,0,15677,,,,,,9.0,,,,,1.0,,,,,,,,,,,,,,,,,,,,,,,,,,,27.0,1.0,,,,,,
59,,iti,,html-keyboard-response,59,141483,0.0-1.0-11.0-0.0-5.0,0,0,15677,,,,,,9.0,,,,,1.0,,,,,,,,,,,,,,,,,,,,,,,,,,,28.5,1.5,,,,,,
60,,choice,,html-keyboard-response,60,142819,0.0-1.0-12.0-0.0-0.0,0,0,15677,,1332.0,,,75.0,10.0,10.0,2000.0,1500.0,0.0,1.0,1.0,40-40,1.0,,door knob,door knob,40.0,40.0,door knob15,door knob7,60.0,20.0,Legacy_oval.jpg,doorknob2.jpg,/static/Category_learning/Stimuli/Experimental_stims/door knob/Legacy_oval.jpg,/static/Category_learning/Stimuli/Experimental_stims/door knob/doorknob2.jpg,0.0,door knob,door knob,40.0,40.0,door knob7,door knob15,20.0,60.0,0.0,29.832,1.332,,,,,,
61,,confirmation,,html-keyboard-response,61,142989,0.0-1.0-12.0-0.0-1.0-0.0,0,0,15677,,,,,,10.0,,,,,1.0,,,,,,,,,,,,,,,,,,,,,,,,,,,30.0,0.168,,,,,,
62,,isi,,html-keyboard-response,62,144992,0.0-1.0-12.0-0.0-2.0,0,0,15677,,,,,,10.0,,,,,1.0,,,,,,,,,,,,,,,,,,,,,,,,,,,32.0,2.0,,,,,,
63,,feedback,,html-keyboard-response,63,145996,0.0-1.0-12.0-0.0-3.0-0.0,0,0,15677,,,,,,10.0,,,,,1.0,,,,,,,,,,,,,,,,,,,,,,,,,,,33.0,1.0,,,,,,
64,,iti,,html-keyboard-response,64,147500,0.0-1.0-12.0-0.0-5.0,0,0,15677,,,,,,10.0,,,,,1.0,,,,,,,,,,,,,,,,,,,,,,,,,,,34.5,1.5,,,,,,
65,,choice,,html-keyboard-response,65,148324,0.0-1.0-13.0-0.0-0.0,0,0,15677,,820.0,,,75.0,11.0,11.0,3500.0,1000.0,0.0,1.0,0.0,40-40,,,bongo,flashlight,40.0,40.0,bongo3,flashlight5,60.0,60.0,26390697.thl.jpg,Streamlight-71001-Jr-Flashlight-W-batteries-black-B00018A3CG-L.jpg,/static/Category_learning/Stimuli/Experimental_stims/bongo/26390697.thl.jpg,/static/Category_learning/Stimuli/Experimental_stims/flashlight/Streamlight-71001-Jr-Flashlight-W-batteries-black-B00018A3CG-L.jpg,0.0,flashlight,bongo,40.0,40.0,flashlight5,bongo3,60.0,60.0,0.0,35.32,0.82,,,,,,
66,,confirmation,,html-keyboard-response,66,149007,0.0-1.0-13.0-0.0-1.0-0.0,0,0,15677,,,,,,11.0,,,,,1.0,,,,,,,,,,,,,,,,,,,,,,,,,,,36.0,0.68,,,,,,
67,,isi,,html-keyboard-response,67,152510,0.0-1.0-13.0-0.0-2.0,0,0,15677,,,,,,11.0,,,,,1.0,,,,,,,,,,,,,,,,,,,,,,,,,,,39.5,3.5,,,,,,
68,,feedback,,html-keyboard-response,68,153513,0.0-1.0-13.0-0.0-3.0-0.0,0,0,15677,,,,,,11.0,,,,,1.0,,,,,,,,,,,,,,,,,,,,,,,,,,,40.5,1.0,,,,,,
69,,iti,,html-keyboard-response,69,154517,0.0-1.0-13.0-0.0-5.0,0,0,15677,,,,,,11.0,,,,,1.0,,,,,,,,,,,,,,,,,,,,,,,,,,,41.5,1.0,,,,,,
70,,choice,,html-keyboard-response,70,155149,0.0-1.0-14.0-0.0-0.0,0,0,15677,,628.0,,,68.0,12.0,12.0,1500.0,1000.0,0.0,1.0,1.0,60-80,0.0,,lipstick,patio lounge chair,60.0,80.0,lipstick10,patio lounge chair15,60.0,60.0,21K0D7QKFAL._SS500_.jpg,phpThumb.jpg,/static/Category_learning/Stimuli/Experimental_stims/lipstick/21K0D7QKFAL._SS500_.jpg,/static/Category_learning/Stimuli/Experimental_stims/patio lounge chair/phpThumb.jpg,1.0,lipstick,patio lounge chair,60.0,80.0,lipstick10,patio lounge chair15,60.0,60.0,0.0,42.128,0.628,,,,,,
71,,confirmation,,html-keyboard-response,71,156035,0.0-1.0-14.0-0.0-1.0-0.0,0,0,15677,,,,,,12.0,,,,,1.0,,,,,,,,,,,,,,,,,,,,,,,,,,,43.0,0.872,,,,,,
72,,isi,,html-keyboard-response,72,157538,0.0-1.0-14.0-0.0-2.0,0,0,15677,,,,,,12.0,,,,,1.0,,,,,,,,,,,,,,,,,,,,,,,,,,,44.5,1.5,,,,,,
73,,feedback,,html-keyboard-response,73,158540,0.0-1.0-14.0-0.0-3.0-0.0,0,0,15677,,,,,,12.0,,,,,1.0,,,,,,,,,,,,,,,,,,,,,,,,,,,45.5,1.0,,,,,,
74,,iti,,html-keyboard-response,74,159543,0.0-1.0-14.0-0.0-5.0,0,0,15677,,,,,,12.0,,,,,1.0,,,,,,,,,,,,,,,,,,,,,,,,,,,46.5,1.0,,,,,,
75,,choice,,html-keyboard-response,75,160357,0.0-1.0-15.0-0.0-0.0,0,0,15677,,809.0,,,75.0,13.0,13.0,2000.0,1000.0,0.0,1.0,0.0,40-60,,0.0,desk,hammer,40.0,60.0,desk8,hammer2,60.0,40.0,26370118.thl.jpg,hammer04.jpg,/static/Category_learning/Stimuli/Experimental_stims/desk/26370118.thl.jpg,/static/Category_learning/Stimuli/Experimental_stims/hammer/hammer04.jpg,0.0,hammer,desk,60.0,40.0,hammer2,desk8,40.0,60.0,0.0,47.309,0.809,,,,,,
76,,confirmation,,html-keyboard-response,76,161051,0.0-1.0-15.0-0.0-1.0-0.0,0,0,15677,,,,,,13.0,,,,,1.0,,,,,,,,,,,,,,,,,,,,,,,,,,,48.0,0.691,,,,,,
77,,isi,,html-keyboard-response,77,163055,0.0-1.0-15.0-0.0-2.0,0,0,15677,,,,,,13.0,,,,,1.0,,,,,,,,,,,,,,,,,,,,,,,,,,,50.0,2.0,,,,,,
78,,feedback,,html-keyboard-response,78,164059,0.0-1.0-15.0-0.0-3.0-0.0,0,0,15677,,,,,,13.0,,,,,1.0,,,,,,,,,,,,,,,,,,,,,,,,,,,51.0,1.0,,,,,,
79,,iti,,html-keyboard-response,79,165066,0.0-1.0-15.0-0.0-5.0,0,0,15677,,,,,,13.0,,,,,1.0,,,,,,,,,,,,,,,,,,,,,,,,,,,52.0,1.0,,,,,,
80,,choice,,html-keyboard-response,80,165910,0.0-1.0-16.0-0.0-0.0,0,0,15677,,840.0,,,68.0,14.0,14.0,2000.0,2000.0,0.0,1.0,0.0,60-60,,,license plate,hammer,60.0,60.0,license plate2,hammer5,60.0,60.0,ny-u93-8zs.jpg,hammer02.jpg,/static/Category_learning/Stimuli/Experimental_stims/license plate/ny-u93-8zs.jpg,/static/Category_learning/Stimuli/Experimental_stims/hammer/hammer02.jpg,1.0,license plate,hammer,60.0,60.0,license plate2,hammer5,60.0,60.0,0.0,52.84,0.84,,,,,,
81,,confirmation,,html-keyboard-response,81,166575,0.0-1.0-16.0-0.0-1.0-0.0,0,0,15677,,,,,,14.0,,,,,1.0,,,,,,,,,,,,,,,,,,,,,,,,,,,53.5,0.66,,,,,,
82,,isi,,html-keyboard-response,82,168577,0.0-1.0-16.0-0.0-2.0,0,0,15677,,,,,,14.0,,,,,1.0,,,,,,,,,,,,,,,,,,,,,,,,,,,55.5,2.0,,,,,,
83,,feedback,,html-keyboard-response,83,169580,0.0-1.0-16.0-0.0-3.0-0.0,0,0,15677,,,,,,14.0,,,,,1.0,,,,,,,,,,,,,,,,,,,,,,,,,,,56.5,1.0,,,,,,
84,,iti,,html-keyboard-response,84,171583,0.0-1.0-16.0-0.0-5.0,0,0,15677,,,,,,14.0,,,,,1.0,,,,,,,,,,,,,,,,,,,,,,,,,,,58.5,2.0,,,,,,
85,,choice,,html-keyboard-response,85,172583,0.0-1.0-17.0-0.0-0.0,0,0,15677,,996.0,,,68.0,15.0,15.0,1500.0,2000.0,0.0,1.0,0.0,20-20,,,train,tape,20.0,20.0,train9,tape13,20.0,20.0,train2.jpg,920152.jpg,/static/Category_learning/Stimuli/Experimental_stims/train/train2.jpg,/static/Category_learning/Stimuli/Experimental_stims/tape/920152.jpg,1.0,train,tape,20.0,20.0,train9,tape13,20.0,20.0,0.0,59.496,0.996,,,,,,
86,,confirmation,,html-keyboard-response,86,173089,0.0-1.0-17.0-0.0-1.0-0.0,0,0,15677,,,,,,15.0,,,,,1.0,,,,,,,,,,,,,,,,,,,,,,,,,,,60.0,0.504,,,,,,
87,,isi,,html-keyboard-response,87,174594,0.0-1.0-17.0-0.0-2.0,0,0,15677,,,,,,15.0,,,,,1.0,,,,,,,,,,,,,,,,,,,,,,,,,,,61.5,1.5,,,,,,
88,,feedback,,html-keyboard-response,88,175597,0.0-1.0-17.0-0.0-3.0-0.0,0,0,15677,,,,,,15.0,,,,,1.0,,,,,,,,,,,,,,,,,,,,,,,,,,,62.5,1.0,,,,,,
89,,iti,,html-keyboard-response,89,177600,0.0-1.0-17.0-0.0-5.0,0,0,15677,,,,,,15.0,,,,,1.0,,,,,,,,,,,,,,,,,,,,,,,,,,,64.5,2.0,,,,,,
90,,choice,,html-keyboard-response,90,178464,0.0-1.0-18.0-0.0-0.0,0,0,15677,,860.0,,,68.0,16.0,16.0,1500.0,2000.0,0.0,1.0,0.0,20-40,,0.0,trumpet,bongo,20.0,40.0,trumpet10,bongo14,40.0,40.0,trumpet2.jpg,26390667.thl.jpg,/static/Category_learning/Stimuli/Experimental_stims/trumpet/trumpet2.jpg,/static/Category_learning/Stimuli/Experimental_stims/bongo/26390667.thl.jpg,1.0,trumpet,bongo,20.0,40.0,trumpet10,bongo14,40.0,40.0,0.0,65.36,0.86,,,,,,
91,,confirmation,,html-keyboard-response,91,179107,0.0-1.0-18.0-0.0-1.0-0.0,0,0,15677,,,,,,16.0,,,,,1.0,,,,,,,,,,,,,,,,,,,,,,,,,,,66.0,0.64,,,,,,
92,,isi,,html-keyboard-response,92,180611,0.0-1.0-18.0-0.0-2.0,0,0,15677,,,,,,16.0,,,,,1.0,,,,,,,,,,,,,,,,,,,,,,,,,,,67.5,1.5,,,,,,
93,,feedback,,html-keyboard-response,93,181613,0.0-1.0-18.0-0.0-3.0-0.0,0,0,15677,,,,,,16.0,,,,,1.0,,,,,,,,,,,,,,,,,,,,,,,,,,,68.5,1.0,,,,,,
94,,iti,,html-keyboard-response,94,183617,0.0-1.0-18.0-0.0-5.0,0,0,15677,,,,,,16.0,,,,,1.0,,,,,,,,,,,,,,,,,,,,,,,,,,,70.5,2.0,,,,,,
95,,choice,,html-keyboard-response,95,184641,0.0-1.0-19.0-0.0-0.0,0,0,15677,,1020.0,,,75.0,17.0,17.0,2000.0,3500.0,0.0,1.0,0.0,20-60,,0.0,trumpet,lipstick,20.0,60.0,trumpet1,lipstick4,40.0,60.0,JUPITER+TROMPETTE+606MRL.JPG,P145703_hero.jpg,/static/Category_learning/Stimuli/Experimental_stims/trumpet/JUPITER+TROMPETTE+606MRL.JPG,/static/Category_learning/Stimuli/Experimental_stims/lipstick/P145703_hero.jpg,0.0,lipstick,trumpet,60.0,20.0,lipstick4,trumpet1,60.0,40.0,0.0,71.52,1.02,,,,,,
96,,confirmation,,html-keyboard-response,96,185123,0.0-1.0-19.0-0.0-1.0-0.0,0,0,15677,,,,,,17.0,,,,,1.0,,,,,,,,,,,,,,,,,,,,,,,,,,,72.0,0.48,,,,,,
97,,isi,,html-keyboard-response,97,187125,0.0-1.0-19.0-0.0-2.0,0,0,15677,,,,,,17.0,,,,,1.0,,,,,,,,,,,,,,,,,,,,,,,,,,,74.0,2.0,,,,,,
98,,feedback,,html-keyboard-response,98,188127,0.0-1.0-19.0-0.0-3.0-0.0,0,0,15677,,,,,,17.0,,,,,1.0,,,,,,,,,,,,,,,,,,,,,,,,,,,75.0,1.0,,,,,,
99,,iti,,html-keyboard-response,99,191630,0.0-1.0-19.0-0.0-5.0,0,0,15677,,,,,,17.0,,,,,1.0,,,,,,,,,,,,,,,,,,,,,,,,,,,78.5,3.5,,,,,,
100,,choice,,html-keyboard-response,100,192410,0.0-1.0-20.0-0.0-0.0,0,0,15677,,774.0,,,68.0,18.0,18.0,1500.0,2000.0,0.0,1.0,1.0,20-60,0.0,,lipstick,trumpet,60.0,20.0,lipstick4,trumpet10,60.0,40.0,P145703_hero.jpg,trumpet2.jpg,/static/Category_learning/Stimuli/Experimental_stims/lipstick/P145703_hero.jpg,/static/Category_learning/Stimuli/Experimental_stims/trumpet/trumpet2.jpg,1.0,lipstick,trumpet,60.0,20.0,lipstick4,trumpet10,60.0,40.0,0.0,79.274,0.774,,,,,,
101,,confirmation,,html-keyboard-response,101,193141,0.0-1.0-20.0-0.0-1.0-0.0,0,0,15677,,,,,,18.0,,,,,1.0,,,,,,,,,,,,,,,,,,,,,,,,,,,80.0,0.726,,,,,,
102,,isi,,html-keyboard-response,102,194643,0.0-1.0-20.0-0.0-2.0,0,0,15677,,,,,,18.0,,,,,1.0,,,,,,,,,,,,,,,,,,,,,,,,,,,81.5,1.5,,,,,,
103,,feedback,,html-keyboard-response,103,195646,0.0-1.0-20.0-0.0-3.0-0.0,0,0,15677,,,,,,18.0,,,,,1.0,,,,,,,,,,,,,,,,,,,,,,,,,,,82.5,1.0,,,,,,
104,,iti,,html-keyboard-response,104,197649,0.0-1.0-20.0-0.0-5.0,0,0,15677,,,,,,18.0,,,,,1.0,,,,,,,,,,,,,,,,,,,,,,,,,,,84.5,2.0,,,,,,
105,,choice,,html-keyboard-response,105,198595,0.0-1.0-21.0-0.0-0.0,0,0,15677,,941.0,,,68.0,19.0,19.0,1500.0,1000.0,0.0,1.0,0.0,20-60,,0.0,train,motorcycle,20.0,60.0,train6,motorcycle10,0.0,40.0,train9.jpg,motorcycle17.jpg,/static/Category_learning/Stimuli/Experimental_stims/train/train9.jpg,/static/Category_learning/Stimuli/Experimental_stims/motorcycle/motorcycle17.jpg,1.0,train,motorcycle,20.0,60.0,train6,motorcycle10,0.0,40.0,0.0,85.441,0.941,,,,,,
106,,confirmation,,html-keyboard-response,106,199157,0.0-1.0-21.0-0.0-1.0-0.0,0,0,15677,,,,,,19.0,,,,,1.0,,,,,,,,,,,,,,,,,,,,,,,,,,,86.0,0.559,,,,,,
107,,isi,,html-keyboard-response,107,200661,0.0-1.0-21.0-0.0-2.0,0,0,15677,,,,,,19.0,,,,,1.0,,,,,,,,,,,,,,,,,,,,,,,,,,,87.5,1.5,,,,,,
108,,feedback,,html-keyboard-response,108,201665,0.0-1.0-21.0-0.0-3.0-0.0,0,0,15677,,,,,,19.0,,,,,1.0,,,,,,,,,,,,,,,,,,,,,,,,,,,88.5,1.0,,,,,,
109,,iti,,html-keyboard-response,109,202669,0.0-1.0-21.0-0.0-5.0,0,0,15677,,,,,,19.0,,,,,1.0,,,,,,,,,,,,,,,,,,,,,,,,,,,89.5,1.0,,,,,,
110,,choice,,html-keyboard-response,110,203651,0.0-1.0-22.0-0.0-0.0,0,0,15677,,978.0,,,68.0,20.0,20.0,1000.0,3000.0,0.0,1.0,0.0,40-60,,0.0,dresser,license plate,40.0,60.0,dresser9,license plate9,20.0,80.0,ADRESSER.jpg,nm-dhg089.jpg,/static/Category_learning/Stimuli/Experimental_stims/dresser/ADRESSER.jpg,/static/Category_learning/Stimuli/Experimental_stims/license plate/nm-dhg089.jpg,1.0,dresser,license plate,40.0,60.0,dresser9,license plate9,20.0,80.0,0.0,90.478,0.978,,,,,,
111,,confirmation,,html-keyboard-response,111,204176,0.0-1.0-22.0-0.0-1.0-0.0,0,0,15677,,,,,,20.0,,,,,1.0,,,,,,,,,,,,,,,,,,,,,,,,,,,91.0,0.522,,,,,,
112,,isi,,html-keyboard-response,112,205179,0.0-1.0-22.0-0.0-2.0,0,0,15677,,,,,,20.0,,,,,1.0,,,,,,,,,,,,,,,,,,,,,,,,,,,92.0,1.0,,,,,,
113,,feedback,,html-keyboard-response,113,206181,0.0-1.0-22.0-0.0-3.0-0.0,0,0,15677,,,,,,20.0,,,,,1.0,,,,,,,,,,,,,,,,,,,,,,,,,,,93.0,1.0,,,,,,
114,,iti,,html-keyboard-response,114,209185,0.0-1.0-22.0-0.0-5.0,0,0,15677,,,,,,20.0,,,,,1.0,,,,,,,,,,,,,,,,,,,,,,,,,,,96.0,3.0,,,,,,
115,,choice,,html-keyboard-response,115,210173,0.0-1.0-23.0-0.0-0.0,0,0,15677,,984.0,,,68.0,21.0,21.0,2000.0,1000.0,0.0,1.0,0.0,40-80,,1.0,seashell,desk,80.0,40.0,seashell4,desk3,60.0,60.0,seashell.jpg,D-1 Four drawers desk Elm 64x23x33.jpg,/static/Category_learning/Stimuli/Experimental_stims/seashell/seashell.jpg,/static/Category_learning/Stimuli/Experimental_stims/desk/D-1 Four drawers desk Elm 64x23x33.jpg,1.0,seashell,desk,80.0,40.0,seashell4,desk3,60.0,60.0,0.0,96.984,0.984,,,,,,
116,,confirmation,,html-keyboard-response,116,210693,0.0-1.0-23.0-0.0-1.0-0.0,0,0,15677,,,,,,21.0,,,,,1.0,,,,,,,,,,,,,,,,,,,,,,,,,,,97.5,0.516,,,,,,
117,,isi,,html-keyboard-response,117,212696,0.0-1.0-23.0-0.0-2.0,0,0,15677,,,,,,21.0,,,,,1.0,,,,,,,,,,,,,,,,,,,,,,,,,,,99.5,2.0,,,,,,
118,,feedback,,html-keyboard-response,118,213700,0.0-1.0-23.0-0.0-3.0-0.0,0,0,15677,,,,,,21.0,,,,,1.0,,,,,,,,,,,,,,,,,,,,,,,,,,,100.5,1.0,,,,,,
119,,iti,,html-keyboard-response,119,214703,0.0-1.0-23.0-0.0-5.0,0,0,15677,,,,,,21.0,,,,,1.0,,,,,,,,,,,,,,,,,,,,,,,,,,,101.5,1.0,,,,,,
120,,choice,,html-keyboard-response,120,215709,0.0-1.0-24.0-0.0-0.0,0,0,15677,,1001.0,,,68.0,22.0,22.0,1000.0,3500.0,0.0,1.0,0.0,20-40,,1.0,bench,yarn,40.0,20.0,bench5,yarn5,20.0,0.0,APARKBEN8.jpg,Aballofyarn14.jpg,/static/Category_learning/Stimuli/Experimental_stims/bench/APARKBEN8.jpg,/static/Category_learning/Stimuli/Experimental_stims/yarn/Aballofyarn14.jpg,1.0,bench,yarn,40.0,20.0,bench5,yarn5,20.0,0.0,0.0,102.501,1.001,,,,,,
121,,confirmation,,html-keyboard-response,121,216217,0.0-1.0-24.0-0.0-1.0-0.0,0,0,15677,,,,,,22.0,,,,,1.0,,,,,,,,,,,,,,,,,,,,,,,,,,,103.0,0.499,,,,,,
122,,isi,,html-keyboard-response,122,217219,0.0-1.0-24.0-0.0-2.0,0,0,15677,,,,,,22.0,,,,,1.0,,,,,,,,,,,,,,,,,,,,,,,,,,,104.0,1.0,,,,,,
123,,feedback,,html-keyboard-response,123,218223,0.0-1.0-24.0-0.0-3.0-0.0,0,0,15677,,,,,,22.0,,,,,1.0,,,,,,,,,,,,,,,,,,,,,,,,,,,105.0,1.0,,,,,,
124,,iti,,html-keyboard-response,124,221727,0.0-1.0-24.0-0.0-5.0,0,0,15677,,,,,,22.0,,,,,1.0,,,,,,,,,,,,,,,,,,,,,,,,,,,108.5,3.5,,,,,,
125,,choice,,html-keyboard-response,125,222735,0.0-1.0-25.0-0.0-0.0,0,0,15677,,1002.0,,,75.0,23.0,23.0,2000.0,1500.0,0.0,1.0,0.0,60-80,,1.0,necklace,hammer,80.0,60.0,necklace6,hammer6,100.0,80.0,Agoldnecklace.jpg,hammer03.jpg,/static/Category_learning/Stimuli/Experimental_stims/necklace/Agoldnecklace.jpg,/static/Category_learning/Stimuli/Experimental_stims/hammer/hammer03.jpg,0.0,hammer,necklace,60.0,80.0,hammer6,necklace6,80.0,100.0,0.0,109.502,1.002,,,,,,
126,,confirmation,,html-keyboard-response,126,223236,0.0-1.0-25.0-0.0-1.0-0.0,0,0,15677,,,,,,23.0,,,,,1.0,,,,,,,,,,,,,,,,,,,,,,,,,,,110.0,0.498,,,,,,
127,,isi,,html-keyboard-response,127,225238,0.0-1.0-25.0-0.0-2.0,0,0,15677,,,,,,23.0,,,,,1.0,,,,,,,,,,,,,,,,,,,,,,,,,,,112.0,2.0,,,,,,
128,,feedback,,html-keyboard-response,128,226242,0.0-1.0-25.0-0.0-3.0-0.0,0,0,15677,,,,,,23.0,,,,,1.0,,,,,,,,,,,,,,,,,,,,,,,,,,,113.0,1.0,,,,,,
129,,iti,,html-keyboard-response,129,227745,0.0-1.0-25.0-0.0-5.0,0,0,15677,,,,,,23.0,,,,,1.0,,,,,,,,,,,,,,,,,,,,,,,,,,,114.5,1.5,,,,,,
130,,choice,,html-keyboard-response,130,228615,0.0-1.0-26.0-0.0-0.0,0,0,15677,,865.0,,,68.0,24.0,24.0,3500.0,1500.0,0.0,1.0,0.0,20-20,,,watch,yarn,20.0,20.0,watch4,yarn9,40.0,40.0,B000EI2NBW.01._AA280_SCLZZZZZZZ_.jpg,Aballofyarn26.jpg,/static/Category_learning/Stimuli/Experimental_stims/watch/B000EI2NBW.01._AA280_SCLZZZZZZZ_.jpg,/static/Category_learning/Stimuli/Experimental_stims/yarn/Aballofyarn26.jpg,1.0,watch,yarn,20.0,20.0,watch4,yarn9,40.0,40.0,0.0,115.365,0.865,,,,,,
131,,confirmation,,html-keyboard-response,131,229263,0.0-1.0-26.0-0.0-1.0-0.0,0,0,15677,,,,,,24.0,,,,,1.0,,,,,,,,,,,,,,,,,,,,,,,,,,,116.0,0.635,,,,,,
132,,isi,,html-keyboard-response,132,232766,0.0-1.0-26.0-0.0-2.0,0,0,15677,,,,,,24.0,,,,,1.0,,,,,,,,,,,,,,,,,,,,,,,,,,,119.5,3.5,,,,,,
133,,feedback,,html-keyboard-response,133,233769,0.0-1.0-26.0-0.0-3.0-0.0,0,0,15677,,,,,,24.0,,,,,1.0,,,,,,,,,,,,,,,,,,,,,,,,,,,120.5,1.0,,,,,,
134,,iti,,html-keyboard-response,134,235273,0.0-1.0-26.0-0.0-5.0,0,0,15677,,,,,,24.0,,,,,1.0,,,,,,,,,,,,,,,,,,,,,,,,,,,122.0,1.5,,,,,,
135,,choice,,html-keyboard-response,135,236272,0.0-1.0-27.0-0.0-0.0,0,0,15677,,995.0,,,68.0,25.0,25.0,1000.0,1000.0,0.0,1.0,0.0,40-60,,1.0,motorcycle,door knob,60.0,40.0,motorcycle15,door knob1,80.0,40.0,2006-Buell-LightningXB12Sa.jpg,Brass_Door_Handle.jpg,/static/Category_learning/Stimuli/Experimental_stims/motorcycle/2006-Buell-LightningXB12Sa.jpg,/static/Category_learning/Stimuli/Experimental_stims/door knob/Brass_Door_Handle.jpg,1.0,motorcycle,door knob,60.0,40.0,motorcycle15,door knob1,80.0,40.0,0.0,122.995,0.995,,,,,,
136,,confirmation,,html-keyboard-response,136,236781,0.0-1.0-27.0-0.0-1.0-0.0,0,0,15677,,,,,,25.0,,,,,1.0,,,,,,,,,,,,,,,,,,,,,,,,,,,123.5,0.505,,,,,,
137,,isi,,html-keyboard-response,137,237785,0.0-1.0-27.0-0.0-2.0,0,0,15677,,,,,,25.0,,,,,1.0,,,,,,,,,,,,,,,,,,,,,,,,,,,124.5,1.0,,,,,,
138,,feedback,,html-keyboard-response,138,238788,0.0-1.0-27.0-0.0-3.0-0.0,0,0,15677,,,,,,25.0,,,,,1.0,,,,,,,,,,,,,,,,,,,,,,,,,,,125.5,1.0,,,,,,
139,,iti,,html-keyboard-response,139,239792,0.0-1.0-27.0-0.0-5.0,0,0,15677,,,,,,25.0,,,,,1.0,,,,,,,,,,,,,,,,,,,,,,,,,,,126.5,1.0,,,,,,
140,,choice,,html-keyboard-response,140,240440,0.0-1.0-28.0-0.0-0.0,0,0,15677,,644.0,,,68.0,26.0,26.0,1000.0,1000.0,0.0,1.0,0.0,40-60,,1.0,hammer,door knob,60.0,40.0,hammer8,door knob10,40.0,20.0,ct1006_hammer.jpg,c02a578d-c6cc-44ca-8dd2-de8901e30bd7_4.jpg,/static/Category_learning/Stimuli/Experimental_stims/hammer/ct1006_hammer.jpg,/static/Category_learning/Stimuli/Experimental_stims/door knob/c02a578d-c6cc-44ca-8dd2-de8901e30bd7_4.jpg,1.0,hammer,door knob,60.0,40.0,hammer8,door knob10,40.0,20.0,0.0,127.144,0.644,,,,,,
141,,confirmation,,html-keyboard-response,141,241300,0.0-1.0-28.0-0.0-1.0-0.0,0,0,15677,,,,,,26.0,,,,,1.0,,,,,,,,,,,,,,,,,,,,,,,,,,,128.0,0.856,,,,,,
142,,isi,,html-keyboard-response,142,242304,0.0-1.0-28.0-0.0-2.0,0,0,15677,,,,,,26.0,,,,,1.0,,,,,,,,,,,,,,,,,,,,,,,,,,,129.0,1.0,,,,,,
143,,feedback,,html-keyboard-response,143,243308,0.0-1.0-28.0-0.0-3.0-0.0,0,0,15677,,,,,,26.0,,,,,1.0,,,,,,,,,,,,,,,,,,,,,,,,,,,130.0,1.0,,,,,,
144,,iti,,html-keyboard-response,144,244312,0.0-1.0-28.0-0.0-5.0,0,0,15677,,,,,,26.0,,,,,1.0,,,,,,,,,,,,,,,,,,,,,,,,,,,131.0,1.0,,,,,,
145,,choice,,html-keyboard-response,145,245089,0.0-1.0-29.0-0.0-0.0,0,0,15677,,773.0,,,68.0,27.0,27.0,1500.0,1000.0,0.0,1.0,0.0,20-80,,1.0,small table,vase,80.0,20.0,small table7,vase4,80.0,40.0,ATABLE89.jpg,Avase111.jpg,/static/Category_learning/Stimuli/Experimental_stims/small table/ATABLE89.jpg,/static/Category_learning/Stimuli/Experimental_stims/vase/Avase111.jpg,1.0,small table,vase,80.0,20.0,small table7,vase4,80.0,40.0,0.0,131.773,0.773,,,,,,
146,,confirmation,,html-keyboard-response,146,245818,0.0-1.0-29.0-0.0-1.0-0.0,0,0,15677,,,,,,27.0,,,,,1.0,,,,,,,,,,,,,,,,,,,,,,,,,,,132.5,0.727,,,,,,
147,,isi,,html-keyboard-response,147,247322,0.0-1.0-29.0-0.0-2.0,0,0,15677,,,,,,27.0,,,,,1.0,,,,,,,,,,,,,,,,,,,,,,,,,,,134.0,1.5,,,,,,
148,,feedback,,html-keyboard-response,148,248325,0.0-1.0-29.0-0.0-3.0-0.0,0,0,15677,,,,,,27.0,,,,,1.0,,,,,,,,,,,,,,,,,,,,,,,,,,,135.0,1.0,,,,,,
149,,iti,,html-keyboard-response,149,249328,0.0-1.0-29.0-0.0-5.0,0,0,15677,,,,,,27.0,,,,,1.0,,,,,,,,,,,,,,,,,,,,,,,,,,,136.0,1.0,,,,,,
150,,choice,,html-keyboard-response,150,250378,0.0-1.0-30.0-0.0-0.0,0,0,15677,,1045.0,,,68.0,28.0,28.0,1000.0,1000.0,0.0,1.0,1.0,60-60,1.0,,hammer,hammer,60.0,60.0,hammer8,hammer6,40.0,80.0,ct1006_hammer.jpg,hammer03.jpg,/static/Category_learning/Stimuli/Experimental_stims/hammer/ct1006_hammer.jpg,/static/Category_learning/Stimuli/Experimental_stims/hammer/hammer03.jpg,1.0,hammer,hammer,60.0,60.0,hammer8,hammer6,40.0,80.0,0.0,137.045,1.045,,,,,,
151,,confirmation,,html-keyboard-response,151,250836,0.0-1.0-30.0-0.0-1.0-0.0,0,0,15677,,,,,,28.0,,,,,1.0,,,,,,,,,,,,,,,,,,,,,,,,,,,137.5,0.455,,,,,,
152,,isi,,html-keyboard-response,152,251839,0.0-1.0-30.0-0.0-2.0,0,0,15677,,,,,,28.0,,,,,1.0,,,,,,,,,,,,,,,,,,,,,,,,,,,138.5,1.0,,,,,,
153,,feedback,,html-keyboard-response,153,252842,0.0-1.0-30.0-0.0-3.0-0.0,0,0,15677,,,,,,28.0,,,,,1.0,,,,,,,,,,,,,,,,,,,,,,,,,,,139.5,1.0,,,,,,
154,,iti,,html-keyboard-response,154,253844,0.0-1.0-30.0-0.0-5.0,0,0,15677,,,,,,28.0,,,,,1.0,,,,,,,,,,,,,,,,,,,,,,,,,,,140.5,1.0,,,,,,
155,,choice,,html-keyboard-response,155,254986,0.0-1.0-31.0-0.0-0.0,0,0,15677,,1138.0,,,75.0,29.0,29.0,3500.0,1000.0,0.0,1.0,0.0,40-40,,,fan,bench,40.0,40.0,fan5,bench12,20.0,20.0,Table_Fan.jpg,22927976.thl.jpg,/static/Category_learning/Stimuli/Experimental_stims/fan/Table_Fan.jpg,/static/Category_learning/Stimuli/Experimental_stims/bench/22927976.thl.jpg,0.0,bench,fan,40.0,40.0,bench12,fan5,20.0,20.0,0.0,141.638,1.138,,,,,,
156,,confirmation,,html-keyboard-response,156,255352,0.0-1.0-31.0-0.0-1.0-0.0,0,0,15677,,,,,,29.0,,,,,1.0,,,,,,,,,,,,,,,,,,,,,,,,,,,142.0,0.362,,,,,,
157,,isi,,html-keyboard-response,157,258855,0.0-1.0-31.0-0.0-2.0,0,0,15677,,,,,,29.0,,,,,1.0,,,,,,,,,,,,,,,,,,,,,,,,,,,145.5,3.5,,,,,,
158,,feedback,,html-keyboard-response,158,259859,0.0-1.0-31.0-0.0-3.0-0.0,0,0,15677,,,,,,29.0,,,,,1.0,,,,,,,,,,,,,,,,,,,,,,,,,,,146.5,1.0,,,,,,
159,,iti,,html-keyboard-response,159,260862,0.0-1.0-31.0-0.0-5.0,0,0,15677,,,,,,29.0,,,,,1.0,,,,,,,,,,,,,,,,,,,,,,,,,,,147.5,1.0,,,,,,
160,,choice,,html-keyboard-response,160,261627,0.0-1.0-32.0-0.0-0.0,0,0,15677,,762.0,,,68.0,30.0,30.0,1000.0,3000.0,0.0,1.0,1.0,20-20,1.0,,train,train,20.0,20.0,train9,train6,20.0,0.0,train2.jpg,train9.jpg,/static/Category_learning/Stimuli/Experimental_stims/train/train2.jpg,/static/Category_learning/Stimuli/Experimental_stims/train/train9.jpg,1.0,train,train,20.0,20.0,train9,train6,20.0,0.0,0.0,148.262,0.762,,,,,,
161,,confirmation,,html-keyboard-response,161,262370,0.0-1.0-32.0-0.0-1.0-0.0,0,0,15677,,,,,,30.0,,,,,1.0,,,,,,,,,,,,,,,,,,,,,,,,,,,149.0,0.738,,,,,,
162,,isi,,html-keyboard-response,162,263372,0.0-1.0-32.0-0.0-2.0,0,0,15677,,,,,,30.0,,,,,1.0,,,,,,,,,,,,,,,,,,,,,,,,,,,150.0,1.0,,,,,,
163,,feedback,,html-keyboard-response,163,264377,0.0-1.0-32.0-0.0-3.0-0.0,0,0,15677,,,,,,30.0,,,,,1.0,,,,,,,,,,,,,,,,,,,,,,,,,,,151.0,1.0,,,,,,
164,,iti,,html-keyboard-response,164,267386,0.0-1.0-32.0-0.0-5.0,0,0,15677,,,,,,30.0,,,,,1.0,,,,,,,,,,,,,,,,,,,,,,,,,,,154.0,3.0,,,,,,
165,,choice,,html-keyboard-response,165,268661,0.0-1.0-33.0-0.0-0.0,0,0,15677,,1270.0,,,68.0,31.0,31.0,1500.0,1500.0,0.0,1.0,0.0,80-80,,,sofa,patio lounge chair,80.0,80.0,sofa15,patio lounge chair9,100.0,80.0,APEACHLOV.jpg,43-3.jpg,/static/Category_learning/Stimuli/Experimental_stims/sofa/APEACHLOV.jpg,/static/Category_learning/Stimuli/Experimental_stims/patio lounge chair/43-3.jpg,1.0,sofa,patio lounge chair,80.0,80.0,sofa15,patio lounge chair9,100.0,80.0,0.0,155.27,1.27,,,,,,
166,,confirmation,,html-keyboard-response,166,268894,0.0-1.0-33.0-0.0-1.0-0.0,0,0,15677,,,,,,31.0,,,,,1.0,,,,,,,,,,,,,,,,,,,,,,,,,,,155.5,0.23,,,,,,
167,,isi,,html-keyboard-response,167,270397,0.0-1.0-33.0-0.0-2.0,0,0,15677,,,,,,31.0,,,,,1.0,,,,,,,,,,,,,,,,,,,,,,,,,,,157.0,1.5,,,,,,
168,,feedback,,html-keyboard-response,168,271400,0.0-1.0-33.0-0.0-3.0-0.0,0,0,15677,,,,,,31.0,,,,,1.0,,,,,,,,,,,,,,,,,,,,,,,,,,,158.0,1.0,,,,,,
169,,iti,,html-keyboard-response,169,272904,0.0-1.0-33.0-0.0-5.0,0,0,15677,,,,,,31.0,,,,,1.0,,,,,,,,,,,,,,,,,,,,,,,,,,,159.5,1.5,,,,,,
170,,choice,,html-keyboard-response,170,274085,0.0-1.0-34.0-0.0-0.0,0,0,15677,,1176.0,,,75.0,32.0,32.0,1000.0,1000.0,0.0,1.0,0.0,20-80,,1.0,necklace,vase,80.0,20.0,necklace1,vase12,100.0,0.0,26443173.thl.jpg,Abluevase2.jpg,/static/Category_learning/Stimuli/Experimental_stims/necklace/26443173.thl.jpg,/static/Category_learning/Stimuli/Experimental_stims/vase/Abluevase2.jpg,0.0,vase,necklace,20.0,80.0,vase12,necklace1,0.0,100.0,0.0,160.676,1.176,,,,,,
171,,confirmation,,html-keyboard-response,171,274412,0.0-1.0-34.0-0.0-1.0-0.0,0,0,15677,,,,,,32.0,,,,,1.0,,,,,,,,,,,,,,,,,,,,,,,,,,,161.0,0.324,,,,,,
172,,isi,,html-keyboard-response,172,275415,0.0-1.0-34.0-0.0-2.0,0,0,15677,,,,,,32.0,,,,,1.0,,,,,,,,,,,,,,,,,,,,,,,,,,,162.0,1.0,,,,,,
173,,feedback,,html-keyboard-response,173,276419,0.0-1.0-34.0-0.0-3.0-0.0,0,0,15677,,,,,,32.0,,,,,1.0,,,,,,,,,,,,,,,,,,,,,,,,,,,163.0,1.0,,,,,,
174,,iti,,html-keyboard-response,174,277423,0.0-1.0-34.0-0.0-5.0,0,0,15677,,,,,,32.0,,,,,1.0,,,,,,,,,,,,,,,,,,,,,,,,,,,164.0,1.0,,,,,,
175,,choice,,html-keyboard-response,175,278565,0.0-1.0-35.0-0.0-0.0,0,0,15677,,1137.0,,,75.0,33.0,33.0,3500.0,1000.0,0.0,1.0,0.0,40-80,,1.0,nail polish,desk,80.0,40.0,nail polish14,desk14,80.0,20.0,38031405.JPG,26419960.thl.jpg,/static/Category_learning/Stimuli/Experimental_stims/nail polish/38031405.JPG,/static/Category_learning/Stimuli/Experimental_stims/desk/26419960.thl.jpg,0.0,desk,nail polish,40.0,80.0,desk14,nail polish14,20.0,80.0,0.0,165.137,1.137,,,,,,
176,,confirmation,,html-keyboard-response,176,278931,0.0-1.0-35.0-0.0-1.0-0.0,0,0,15677,,,,,,33.0,,,,,1.0,,,,,,,,,,,,,,,,,,,,,,,,,,,165.5,0.363,,,,,,
177,,isi,,html-keyboard-response,177,282436,0.0-1.0-35.0-0.0-2.0,0,0,15677,,,,,,33.0,,,,,1.0,,,,,,,,,,,,,,,,,,,,,,,,,,,169.0,3.5,,,,,,
178,,feedback,,html-keyboard-response,178,283439,0.0-1.0-35.0-0.0-3.0-0.0,0,0,15677,,,,,,33.0,,,,,1.0,,,,,,,,,,,,,,,,,,,,,,,,,,,170.0,1.0,,,,,,
179,,iti,,html-keyboard-response,179,284441,0.0-1.0-35.0-0.0-5.0,0,0,15677,,,,,,33.0,,,,,1.0,,,,,,,,,,,,,,,,,,,,,,,,,,,171.0,1.0,,,,,,
180,,choice,,html-keyboard-response,180,285047,0.0-1.0-36.0-0.0-0.0,0,0,15677,,601.0,,,75.0,34.0,34.0,1000.0,1000.0,0.0,1.0,1.0,40-40,1.0,,bench,bench,40.0,40.0,bench5,bench12,20.0,20.0,APARKBEN8.jpg,22927976.thl.jpg,/static/Category_learning/Stimuli/Experimental_stims/bench/APARKBEN8.jpg,/static/Category_learning/Stimuli/Experimental_stims/bench/22927976.thl.jpg,0.0,bench,bench,40.0,40.0,bench12,bench5,20.0,20.0,0.0,171.601,0.601,,,,,,
181,,confirmation,,html-keyboard-response,181,285950,0.0-1.0-36.0-0.0-1.0-0.0,0,0,15677,,,,,,34.0,,,,,1.0,,,,,,,,,,,,,,,,,,,,,,,,,,,172.5,0.899,,,,,,
182,,isi,,html-keyboard-response,182,286953,0.0-1.0-36.0-0.0-2.0,0,0,15677,,,,,,34.0,,,,,1.0,,,,,,,,,,,,,,,,,,,,,,,,,,,173.5,1.0,,,,,,
183,,feedback,,html-keyboard-response,183,287958,0.0-1.0-36.0-0.0-3.0-0.0,0,0,15677,,,,,,34.0,,,,,1.0,,,,,,,,,,,,,,,,,,,,,,,,,,,174.5,1.0,,,,,,
184,,iti,,html-keyboard-response,184,288961,0.0-1.0-36.0-0.0-5.0,0,0,15677,,,,,,34.0,,,,,1.0,,,,,,,,,,,,,,,,,,,,,,,,,,,175.5,1.0,,,,,,
185,,choice,,html-keyboard-response,185,289711,0.0-1.0-37.0-0.0-0.0,0,0,15677,,745.0,,,75.0,35.0,35.0,1000.0,1500.0,0.0,1.0,1.0,80-80,0.0,,small table,pen,80.0,80.0,small table7,pen3,80.0,80.0,ATABLE89.jpg,pen08.jpg,/static/Category_learning/Stimuli/Experimental_stims/small table/ATABLE89.jpg,/static/Category_learning/Stimuli/Experimental_stims/pen/pen08.jpg,0.0,pen,small table,80.0,80.0,pen3,small table7,80.0,80.0,0.0,176.245,0.745,,,,,,
186,,confirmation,,html-keyboard-response,186,290469,0.0-1.0-37.0-0.0-1.0-0.0,0,0,15677,,,,,,35.0,,,,,1.0,,,,,,,,,,,,,,,,,,,,,,,,,,,177.0,0.755,,,,,,
187,,isi,,html-keyboard-response,187,291471,0.0-1.0-37.0-0.0-2.0,0,0,15677,,,,,,35.0,,,,,1.0,,,,,,,,,,,,,,,,,,,,,,,,,,,178.0,1.0,,,,,,
188,,feedback,,html-keyboard-response,188,292475,0.0-1.0-37.0-0.0-3.0-0.0,0,0,15677,,,,,,35.0,,,,,1.0,,,,,,,,,,,,,,,,,,,,,,,,,,,179.0,1.0,,,,,,
189,,iti,,html-keyboard-response,189,293978,0.0-1.0-37.0-0.0-5.0,0,0,15677,,,,,,35.0,,,,,1.0,,,,,,,,,,,,,,,,,,,,,,,,,,,180.5,1.5,,,,,,
190,,choice,,html-keyboard-response,190,294648,0.0-1.0-38.0-0.0-0.0,0,0,15677,,665.0,,,68.0,36.0,36.0,3000.0,3500.0,0.0,1.0,1.0,60-80,0.0,,motorcycle,seashell,60.0,80.0,motorcycle15,seashell4,80.0,60.0,2006-Buell-LightningXB12Sa.jpg,seashell.jpg,/static/Category_learning/Stimuli/Experimental_stims/motorcycle/2006-Buell-LightningXB12Sa.jpg,/static/Category_learning/Stimuli/Experimental_stims/seashell/seashell.jpg,1.0,motorcycle,seashell,60.0,80.0,motorcycle15,seashell4,80.0,60.0,0.0,181.165,0.665,,,,,,
191,,confirmation,,html-keyboard-response,191,295486,0.0-1.0-38.0-0.0-1.0-0.0,0,0,15677,,,,,,36.0,,,,,1.0,,,,,,,,,,,,,,,,,,,,,,,,,,,182.0,0.835,,,,,,
192,,isi,,html-keyboard-response,192,298490,0.0-1.0-38.0-0.0-2.0,0,0,15677,,,,,,36.0,,,,,1.0,,,,,,,,,,,,,,,,,,,,,,,,,,,185.0,3.0,,,,,,
193,,feedback,,html-keyboard-response,193,299493,0.0-1.0-38.0-0.0-3.0-0.0,0,0,15677,,,,,,36.0,,,,,1.0,,,,,,,,,,,,,,,,,,,,,,,,,,,186.0,1.0,,,,,,
194,,iti,,html-keyboard-response,194,302997,0.0-1.0-38.0-0.0-5.0,0,0,15677,,,,,,36.0,,,,,1.0,,,,,,,,,,,,,,,,,,,,,,,,,,,189.5,3.5,,,,,,
195,,choice,,html-keyboard-response,195,304138,0.0-1.0-39.0-0.0-0.0,0,0,15677,,1137.0,,,75.0,37.0,37.0,2000.0,1000.0,0.0,1.0,0.0,40-80,,1.0,necklace,flashlight,80.0,40.0,necklace10,flashlight6,60.0,40.0,necklascenew03.jpg,Flashlight.jpg,/static/Category_learning/Stimuli/Experimental_stims/necklace/necklascenew03.jpg,/static/Category_learning/Stimuli/Experimental_stims/flashlight/Flashlight.jpg,0.0,flashlight,necklace,40.0,80.0,flashlight6,necklace10,40.0,60.0,0.0,190.637,1.137,,,,,,
196,,confirmation,,html-keyboard-response,196,304505,0.0-1.0-39.0-0.0-1.0-0.0,0,0,15677,,,,,,37.0,,,,,1.0,,,,,,,,,,,,,,,,,,,,,,,,,,,191.0,0.363,,,,,,
197,,isi,,html-keyboard-response,197,306508,0.0-1.0-39.0-0.0-2.0,0,0,15677,,,,,,37.0,,,,,1.0,,,,,,,,,,,,,,,,,,,,,,,,,,,193.0,2.0,,,,,,
198,,feedback,,html-keyboard-response,198,307512,0.0-1.0-39.0-0.0-3.0-0.0,0,0,15677,,,,,,37.0,,,,,1.0,,,,,,,,,,,,,,,,,,,,,,,,,,,194.0,1.0,,,,,,
199,,iti,,html-keyboard-response,199,308515,0.0-1.0-39.0-0.0-5.0,0,0,15677,,,,,,37.0,,,,,1.0,,,,,,,,,,,,,,,,,,,,,,,,,,,195.0,1.0,,,,,,
200,,choice,,html-keyboard-response,200,309858,0.0-1.0-40.0-0.0-0.0,0,0,15677,,1338.0,,,68.0,38.0,38.0,1000.0,1000.0,0.0,1.0,1.0,40-40,1.0,,flashlight,flashlight,40.0,40.0,flashlight5,flashlight6,60.0,40.0,Streamlight-71001-Jr-Flashlight-W-batteries-black-B00018A3CG-L.jpg,Flashlight.jpg,/static/Category_learning/Stimuli/Experimental_stims/flashlight/Streamlight-71001-Jr-Flashlight-W-batteries-black-B00018A3CG-L.jpg,/static/Category_learning/Stimuli/Experimental_stims/flashlight/Flashlight.jpg,1.0,flashlight,flashlight,40.0,40.0,flashlight5,flashlight6,60.0,40.0,0.0,196.338,1.338,,,,,,
201,,confirmation,,html-keyboard-response,201,310025,0.0-1.0-40.0-0.0-1.0-0.0,0,0,15677,,,,,,38.0,,,,,1.0,,,,,,,,,,,,,,,,,,,,,,,,,,,196.5,0.162,,,,,,
202,,isi,,html-keyboard-response,202,311027,0.0-1.0-40.0-0.0-2.0,0,0,15677,,,,,,38.0,,,,,1.0,,,,,,,,,,,,,,,,,,,,,,,,,,,197.5,1.0,,,,,,
203,,feedback,,html-keyboard-response,203,312029,0.0-1.0-40.0-0.0-3.0-0.0,0,0,15677,,,,,,38.0,,,,,1.0,,,,,,,,,,,,,,,,,,,,,,,,,,,198.5,1.0,,,,,,
204,,iti,,html-keyboard-response,204,313032,0.0-1.0-40.0-0.0-5.0,0,0,15677,,,,,,38.0,,,,,1.0,,,,,,,,,,,,,,,,,,,,,,,,,,,199.5,1.0,,,,,,
205,,choice,,html-keyboard-response,205,314058,0.0-1.0-41.0-0.0-0.0,0,0,15677,,1021.0,,,68.0,39.0,39.0,1000.0,1500.0,0.0,1.0,0.0,20-60,,1.0,hat,stool,60.0,20.0,hat1,stool8,60.0,0.0,AGREENHAT.jpg,ASTOOL33.jpg,/static/Category_learning/Stimuli/Experimental_stims/hat/AGREENHAT.jpg,/static/Category_learning/Stimuli/Experimental_stims/stool/ASTOOL33.jpg,1.0,hat,stool,60.0,20.0,hat1,stool8,60.0,0.0,0.0,200.521,1.021,,,,,,
206,,confirmation,,html-keyboard-response,206,314541,0.0-1.0-41.0-0.0-1.0-0.0,0,0,15677,,,,,,39.0,,,,,1.0,,,,,,,,,,,,,,,,,,,,,,,,,,,201.0,0.479,,,,,,
207,,isi,,html-keyboard-response,207,315544,0.0-1.0-41.0-0.0-2.0,0,0,15677,,,,,,39.0,,,,,1.0,,,,,,,,,,,,,,,,,,,,,,,,,,,202.0,1.0,,,,,,
208,,feedback,,html-keyboard-response,208,316548,0.0-1.0-41.0-0.0-3.0-0.0,0,0,15677,,,,,,39.0,,,,,1.0,,,,,,,,,,,,,,,,,,,,,,,,,,,203.0,1.0,,,,,,
209,,iti,,html-keyboard-response,209,318051,0.0-1.0-41.0-0.0-5.0,0,0,15677,,,,,,39.0,,,,,1.0,,,,,,,,,,,,,,,,,,,,,,,,,,,204.5,1.5,,,,,,
210,,choice,,html-keyboard-response,210,319347,0.0-1.0-42.0-0.0-0.0,0,0,15677,,1291.0,,,75.0,40.0,40.0,1000.0,3500.0,0.0,1.0,0.0,20-80,,0.0,tape,power strip,20.0,80.0,tape9,power strip10,40.0,80.0,desk tape disp.jpg,6bd437c9-6165-4d36-bf75-9a1038783c6a_400.jpg,/static/Category_learning/Stimuli/Experimental_stims/tape/desk tape disp.jpg,/static/Category_learning/Stimuli/Experimental_stims/power strip/6bd437c9-6165-4d36-bf75-9a1038783c6a_400.jpg,0.0,power strip,tape,80.0,20.0,power strip10,tape9,80.0,40.0,0.0,205.791,1.291,,,,,,
211,,confirmation,,html-keyboard-response,211,319559,0.0-1.0-42.0-0.0-1.0-0.0,0,0,15677,,,,,,40.0,,,,,1.0,,,,,,,,,,,,,,,,,,,,,,,,,,,206.0,0.209,,,,,,
212,,isi,,html-keyboard-response,212,320562,0.0-1.0-42.0-0.0-2.0,0,0,15677,,,,,,40.0,,,,,1.0,,,,,,,,,,,,,,,,,,,,,,,,,,,207.0,1.0,,,,,,
213,,feedback,,html-keyboard-response,213,321564,0.0-1.0-42.0-0.0-3.0-0.0,0,0,15677,,,,,,40.0,,,,,1.0,,,,,,,,,,,,,,,,,,,,,,,,,,,208.0,1.0,,,,,,
214,,iti,,html-keyboard-response,214,325066,0.0-1.0-42.0-0.0-5.0,0,0,15677,,,,,,40.0,,,,,1.0,,,,,,,,,,,,,,,,,,,,,,,,,,,211.5,3.5,,,,,,
215,,choice,,html-keyboard-response,215,326212,0.0-1.0-43.0-0.0-0.0,0,0,15677,,1141.0,,,68.0,41.0,41.0,1500.0,1000.0,0.0,1.0,0.0,20-80,,0.0,tape,poker card,20.0,80.0,tape12,poker card4,40.0,60.0,Frog-Tape-Dispenser_F02218A2.jpg,22864728.thl.jpg,/static/Category_learning/Stimuli/Experimental_stims/tape/Frog-Tape-Dispenser_F02218A2.jpg,/static/Category_learning/Stimuli/Experimental_stims/poker card/22864728.thl.jpg,1.0,tape,poker card,20.0,80.0,tape12,poker card4,40.0,60.0,0.0,212.641,1.141,,,,,,
216,,confirmation,,html-keyboard-response,216,326575,0.0-1.0-43.0-0.0-1.0-0.0,0,0,15677,,,,,,41.0,,,,,1.0,,,,,,,,,,,,,,,,,,,,,,,,,,,213.0,0.359,,,,,,
217,,isi,,html-keyboard-response,217,328078,0.0-1.0-43.0-0.0-2.0,0,0,15677,,,,,,41.0,,,,,1.0,,,,,,,,,,,,,,,,,,,,,,,,,,,214.5,1.5,,,,,,
218,,feedback,,html-keyboard-response,218,329080,0.0-1.0-43.0-0.0-3.0-0.0,0,0,15677,,,,,,41.0,,,,,1.0,,,,,,,,,,,,,,,,,,,,,,,,,,,215.5,1.0,,,,,,
219,,iti,,html-keyboard-response,219,330084,0.0-1.0-43.0-0.0-5.0,0,0,15677,,,,,,41.0,,,,,1.0,,,,,,,,,,,,,,,,,,,,,,,,,,,216.5,1.0,,,,,,
220,,choice,,html-keyboard-response,220,331181,0.0-1.0-44.0-0.0-0.0,0,0,15677,,1094.0,,,68.0,42.0,42.0,2000.0,3500.0,0.0,1.0,0.0,20-80,,1.0,power strip,telescope,80.0,20.0,power strip13,telescope2,100.0,40.0,01dccef1-d4b2-4d2e-a317-f2ed46b70b4b_400.jpg,Brass-telescope-60700.jpg,/static/Category_learning/Stimuli/Experimental_stims/power strip/01dccef1-d4b2-4d2e-a317-f2ed46b70b4b_400.jpg,/static/Category_learning/Stimuli/Experimental_stims/telescope/Brass-telescope-60700.jpg,1.0,power strip,telescope,80.0,20.0,power strip13,telescope2,100.0,40.0,0.0,217.594,1.094,,,,,,
221,,confirmation,,html-keyboard-response,221,331591,0.0-1.0-44.0-0.0-1.0-0.0,0,0,15677,,,,,,42.0,,,,,1.0,,,,,,,,,,,,,,,,,,,,,,,,,,,218.0,0.406,,,,,,
222,,isi,,html-keyboard-response,222,333594,0.0-1.0-44.0-0.0-2.0,0,0,15677,,,,,,42.0,,,,,1.0,,,,,,,,,,,,,,,,,,,,,,,,,,,220.0,2.0,,,,,,
223,,feedback,,html-keyboard-response,223,334597,0.0-1.0-44.0-0.0-3.0-0.0,0,0,15677,,,,,,42.0,,,,,1.0,,,,,,,,,,,,,,,,,,,,,,,,,,,221.0,1.0,,,,,,
224,,iti,,html-keyboard-response,224,338101,0.0-1.0-44.0-0.0-5.0,0,0,15677,,,,,,42.0,,,,,1.0,,,,,,,,,,,,,,,,,,,,,,,,,,,224.5,3.5,,,,,,
225,,choice,,html-keyboard-response,225,339518,0.0-1.0-45.0-0.0-0.0,0,0,15677,,1412.0,,,68.0,43.0,43.0,1000.0,2000.0,0.0,1.0,0.0,20-60,,0.0,yarn,makeup compact,20.0,60.0,yarn2,makeup compact6,20.0,80.0,Aballofyarn66.jpg,P0754_hero.jpg,/static/Category_learning/Stimuli/Experimental_stims/yarn/Aballofyarn66.jpg,/static/Category_learning/Stimuli/Experimental_stims/makeup compact/P0754_hero.jpg,1.0,yarn,makeup compact,20.0,60.0,yarn2,makeup compact6,20.0,80.0,0.0,225.912,1.412,,,,,,
226,,confirmation,,html-keyboard-response,226,339609,0.0-1.0-45.0-0.0-1.0-0.0,0,0,15677,,,,,,43.0,,,,,1.0,,,,,,,,,,,,,,,,,,,,,,,,,,,226.0,0.088,,,,,,
227,,isi,,html-keyboard-response,227,340612,0.0-1.0-45.0-0.0-2.0,0,0,15677,,,,,,43.0,,,,,1.0,,,,,,,,,,,,,,,,,,,,,,,,,,,227.0,1.0,,,,,,
228,,feedback,,html-keyboard-response,228,341615,0.0-1.0-45.0-0.0-3.0-0.0,0,0,15677,,,,,,43.0,,,,,1.0,,,,,,,,,,,,,,,,,,,,,,,,,,,228.0,1.0,,,,,,
229,,iti,,html-keyboard-response,229,343619,0.0-1.0-45.0-0.0-5.0,0,0,15677,,,,,,43.0,,,,,1.0,,,,,,,,,,,,,,,,,,,,,,,,,,,230.0,2.0,,,,,,
230,,choice,,html-keyboard-response,230,344599,0.0-1.0-46.0-0.0-0.0,0,0,15677,,976.0,,,68.0,44.0,44.0,1000.0,1000.0,0.0,1.0,0.0,20-60,,0.0,stool,makeup compact,20.0,60.0,stool15,makeup compact3,20.0,40.0,ASTOOL.jpg,P181006_hero.jpg,/static/Category_learning/Stimuli/Experimental_stims/stool/ASTOOL.jpg,/static/Category_learning/Stimuli/Experimental_stims/makeup compact/P181006_hero.jpg,1.0,stool,makeup compact,20.0,60.0,stool15,makeup compact3,20.0,40.0,0.0,230.976,0.976,,,,,,
231,,confirmation,,html-keyboard-response,231,345127,0.0-1.0-46.0-0.0-1.0-0.0,0,0,15677,,,,,,44.0,,,,,1.0,,,,,,,,,,,,,,,,,,,,,,,,,,,231.5,0.524,,,,,,
232,,isi,,html-keyboard-response,232,346132,0.0-1.0-46.0-0.0-2.0,0,0,15677,,,,,,44.0,,,,,1.0,,,,,,,,,,,,,,,,,,,,,,,,,,,232.5,1.0,,,,,,
233,,feedback,,html-keyboard-response,233,347135,0.0-1.0-46.0-0.0-3.0-0.0,0,0,15677,,,,,,44.0,,,,,1.0,,,,,,,,,,,,,,,,,,,,,,,,,,,233.5,1.0,,,,,,
234,,iti,,html-keyboard-response,234,348139,0.0-1.0-46.0-0.0-5.0,0,0,15677,,,,,,44.0,,,,,1.0,,,,,,,,,,,,,,,,,,,,,,,,,,,234.5,1.0,,,,,,
235,,choice,,html-keyboard-response,235,349399,0.0-1.0-47.0-0.0-0.0,0,0,15677,,1256.0,,,75.0,45.0,45.0,1000.0,1000.0,0.0,1.0,0.0,20-20,,,tape,watch,20.0,20.0,tape6,watch15,40.0,40.0,1912.jpg,20-171-6.jpg,/static/Category_learning/Stimuli/Experimental_stims/tape/1912.jpg,/static/Category_learning/Stimuli/Experimental_stims/watch/20-171-6.jpg,0.0,watch,tape,20.0,20.0,watch15,tape6,40.0,40.0,0.0,235.756,1.256,,,,,,
236,,confirmation,,html-keyboard-response,236,349647,0.0-1.0-47.0-0.0-1.0-0.0,0,0,15677,,,,,,45.0,,,,,1.0,,,,,,,,,,,,,,,,,,,,,,,,,,,236.0,0.244,,,,,,
237,,isi,,html-keyboard-response,237,350651,0.0-1.0-47.0-0.0-2.0,0,0,15677,,,,,,45.0,,,,,1.0,,,,,,,,,,,,,,,,,,,,,,,,,,,237.0,1.0,,,,,,
238,,feedback,,html-keyboard-response,238,351654,0.0-1.0-47.0-0.0-3.0-0.0,0,0,15677,,,,,,45.0,,,,,1.0,,,,,,,,,,,,,,,,,,,,,,,,,,,238.0,1.0,,,,,,
239,,iti,,html-keyboard-response,239,352656,0.0-1.0-47.0-0.0-5.0,0,0,15677,,,,,,45.0,,,,,1.0,,,,,,,,,,,,,,,,,,,,,,,,,,,239.0,1.0,,,,,,
240,,choice,,html-keyboard-response,240,353744,0.0-1.0-48.0-0.0-0.0,0,0,15677,,1083.0,,,68.0,46.0,46.0,1500.0,2000.0,0.0,1.0,0.0,40-80,,1.0,nail polish,fan,80.0,40.0,nail polish6,fan1,60.0,60.0,127_t.jpg,01393.fpx.jpg,/static/Category_learning/Stimuli/Experimental_stims/nail polish/127_t.jpg,/static/Category_learning/Stimuli/Experimental_stims/fan/01393.fpx.jpg,1.0,nail polish,fan,80.0,40.0,nail polish6,fan1,60.0,60.0,0.0,240.083,1.083,,,,,,
241,,confirmation,,html-keyboard-response,241,354164,0.0-1.0-48.0-0.0-1.0-0.0,0,0,15677,,,,,,46.0,,,,,1.0,,,,,,,,,,,,,,,,,,,,,,,,,,,240.5,0.417,,,,,,
242,,isi,,html-keyboard-response,242,355668,0.0-1.0-48.0-0.0-2.0,0,0,15677,,,,,,46.0,,,,,1.0,,,,,,,,,,,,,,,,,,,,,,,,,,,242.0,1.5,,,,,,
243,,feedback,,html-keyboard-response,243,356671,0.0-1.0-48.0-0.0-3.0-0.0,0,0,15677,,,,,,46.0,,,,,1.0,,,,,,,,,,,,,,,,,,,,,,,,,,,243.0,1.0,,,,,,
244,,iti,,html-keyboard-response,244,358674,0.0-1.0-48.0-0.0-5.0,0,0,15677,,,,,,46.0,,,,,1.0,,,,,,,,,,,,,,,,,,,,,,,,,,,245.0,2.0,,,,,,
245,,choice,,html-keyboard-response,245,359401,0.0-1.0-49.0-0.0-0.0,0,0,15677,,724.0,,,68.0,47.0,47.0,1500.0,2000.0,0.0,1.0,0.0,60-80,,1.0,pen,license plate,80.0,60.0,pen10,license plate8,100.0,60.0,VP-Raden-FP-L copy.jpg,dc-vrw-jsw.jpg,/static/Category_learning/Stimuli/Experimental_stims/pen/VP-Raden-FP-L copy.jpg,/static/Category_learning/Stimuli/Experimental_stims/license plate/dc-vrw-jsw.jpg,1.0,pen,license plate,80.0,60.0,pen10,license plate8,100.0,60.0,0.0,245.724,0.724,,,,,,
246,,confirmation,,html-keyboard-response,246,360181,0.0-1.0-49.0-0.0-1.0-0.0,0,0,15677,,,,,,47.0,,,,,1.0,,,,,,,,,,,,,,,,,,,,,,,,,,,246.5,0.776,,,,,,
247,,isi,,html-keyboard-response,247,361683,0.0-1.0-49.0-0.0-2.0,0,0,15677,,,,,,47.0,,,,,1.0,,,,,,,,,,,,,,,,,,,,,,,,,,,248.0,1.5,,,,,,
248,,feedback,,html-keyboard-response,248,362685,0.0-1.0-49.0-0.0-3.0-0.0,0,0,15677,,,,,,47.0,,,,,1.0,,,,,,,,,,,,,,,,,,,,,,,,,,,249.0,1.0,,,,,,
249,,iti,,html-keyboard-response,249,364690,0.0-1.0-49.0-0.0-5.0,0,0,15677,,,,,,47.0,,,,,1.0,,,,,,,,,,,,,,,,,,,,,,,,,,,251.0,2.0,,,,,,
250,,choice,,html-keyboard-response,250,365898,0.0-1.0-50.0-0.0-0.0,0,0,15677,,1202.0,,,75.0,48.0,48.0,1500.0,1000.0,0.0,1.0,0.0,40-60,,1.0,frame,bongo,60.0,40.0,frame4,bongo11,60.0,40.0,AFRAME125.jpg,ABONGO6.jpg,/static/Category_learning/Stimuli/Experimental_stims/frame/AFRAME125.jpg,/static/Category_learning/Stimuli/Experimental_stims/bongo/ABONGO6.jpg,0.0,bongo,frame,40.0,60.0,bongo11,frame4,40.0,60.0,0.0,252.202,1.202,,,,,,
251,,confirmation,,html-keyboard-response,251,366199,0.0-1.0-50.0-0.0-1.0-0.0,0,0,15677,,,,,,48.0,,,,,1.0,,,,,,,,,,,,,,,,,,,,,,,,,,,252.5,0.298,,,,,,
252,,isi,,html-keyboard-response,252,367702,0.0-1.0-50.0-0.0-2.0,0,0,15677,,,,,,48.0,,,,,1.0,,,,,,,,,,,,,,,,,,,,,,,,,,,254.0,1.5,,,,,,
253,,feedback,,html-keyboard-response,253,368706,0.0-1.0-50.0-0.0-3.0-0.0,0,0,15677,,,,,,48.0,,,,,1.0,,,,,,,,,,,,,,,,,,,,,,,,,,,255.0,1.0,,,,,,
254,,iti,,html-keyboard-response,254,369709,0.0-1.0-50.0-0.0-5.0,0,0,15677,,,,,,48.0,,,,,1.0,,,,,,,,,,,,,,,,,,,,,,,,,,,256.0,1.0,,,,,,
255,,choice,,html-keyboard-response,255,370619,0.0-1.0-51.0-0.0-0.0,0,0,15677,,907.0,,,75.0,49.0,49.0,2000.0,2000.0,0.0,1.0,0.0,40-60,,0.0,dresser,lipstick,40.0,60.0,dresser3,lipstick1,20.0,80.0,ADRESSE79.jpg,P170102_hero.jpg,/static/Category_learning/Stimuli/Experimental_stims/dresser/ADRESSE79.jpg,/static/Category_learning/Stimuli/Experimental_stims/lipstick/P170102_hero.jpg,0.0,lipstick,dresser,60.0,40.0,lipstick1,dresser3,80.0,20.0,0.0,256.907,0.907,,,,,,
256,,confirmation,,html-keyboard-response,256,371231,0.0-1.0-51.0-0.0-1.0-0.0,0,0,15677,,,,,,49.0,,,,,1.0,,,,,,,,,,,,,,,,,,,,,,,,,,,257.5,0.593,,,,,,
257,,isi,,html-keyboard-response,257,373233,0.0-1.0-51.0-0.0-2.0,0,0,15677,,,,,,49.0,,,,,1.0,,,,,,,,,,,,,,,,,,,,,,,,,,,259.5,2.0,,,,,,
258,,feedback,,html-keyboard-response,258,374236,0.0-1.0-51.0-0.0-3.0-0.0,0,0,15677,,,,,,49.0,,,,,1.0,,,,,,,,,,,,,,,,,,,,,,,,,,,260.5,1.0,,,,,,
259,,iti,,html-keyboard-response,259,376240,0.0-1.0-51.0-0.0-5.0,0,0,15677,,,,,,49.0,,,,,1.0,,,,,,,,,,,,,,,,,,,,,,,,,,,262.5,2.0,,,,,,
260,,choice,,html-keyboard-response,260,377587,0.0-1.0-52.0-0.0-0.0,0,0,15677,,1342.0,,,75.0,50.0,50.0,3500.0,1000.0,0.0,1.0,1.0,20-20,1.0,,watch,watch,20.0,20.0,watch4,watch15,40.0,40.0,B000EI2NBW.01._AA280_SCLZZZZZZZ_.jpg,20-171-6.jpg,/static/Category_learning/Stimuli/Experimental_stims/watch/B000EI2NBW.01._AA280_SCLZZZZZZZ_.jpg,/static/Category_learning/Stimuli/Experimental_stims/watch/20-171-6.jpg,0.0,watch,watch,20.0,20.0,watch15,watch4,40.0,40.0,0.0,263.842,1.342,,,,,,
261,,confirmation,,html-keyboard-response,261,377749,0.0-1.0-52.0-0.0-1.0-0.0,0,0,15677,,,,,,50.0,,,,,1.0,,,,,,,,,,,,,,,,,,,,,,,,,,,264.0,0.158,,,,,,
262,,isi,,html-keyboard-response,262,381251,0.0-1.0-52.0-0.0-2.0,0,0,15677,,,,,,50.0,,,,,1.0,,,,,,,,,,,,,,,,,,,,,,,,,,,267.5,3.5,,,,,,
263,,feedback,,html-keyboard-response,263,382255,0.0-1.0-52.0-0.0-3.0-0.0,0,0,15677,,,,,,50.0,,,,,1.0,,,,,,,,,,,,,,,,,,,,,,,,,,,268.5,1.0,,,,,,
264,,iti,,html-keyboard-response,264,383259,0.0-1.0-52.0-0.0-5.0,0,0,15677,,,,,,50.0,,,,,1.0,,,,,,,,,,,,,,,,,,,,,,,,,,,269.5,1.0,,,,,,
265,,choice,,html-keyboard-response,265,384269,0.0-1.0-53.0-0.0-0.0,0,0,15677,,1006.0,,,75.0,51.0,51.0,2000.0,1000.0,0.0,1.0,0.0,60-60,,,makeup compact,microscope,60.0,60.0,makeup compact5,microscope3,40.0,40.0,P109965_hero.jpg,APDB.jpg,/static/Category_learning/Stimuli/Experimental_stims/makeup compact/P109965_hero.jpg,/static/Category_learning/Stimuli/Experimental_stims/microscope/APDB.jpg,0.0,microscope,makeup compact,60.0,60.0,microscope3,makeup compact5,40.0,40.0,0.0,270.506,1.006,,,,,,
266,,confirmation,,html-keyboard-response,266,384767,0.0-1.0-53.0-0.0-1.0-0.0,0,0,15677,,,,,,51.0,,,,,1.0,,,,,,,,,,,,,,,,,,,,,,,,,,,271.0,0.494,,,,,,
267,,isi,,html-keyboard-response,267,386770,0.0-1.0-53.0-0.0-2.0,0,0,15677,,,,,,51.0,,,,,1.0,,,,,,,,,,,,,,,,,,,,,,,,,,,273.0,2.0,,,,,,
268,,feedback,,html-keyboard-response,268,387773,0.0-1.0-53.0-0.0-3.0-0.0,0,0,15677,,,,,,51.0,,,,,1.0,,,,,,,,,,,,,,,,,,,,,,,,,,,274.0,1.0,,,,,,
269,,iti,,html-keyboard-response,269,388777,0.0-1.0-53.0-0.0-5.0,0,0,15677,,,,,,51.0,,,,,1.0,,,,,,,,,,,,,,,,,,,,,,,,,,,275.0,1.0,,,,,,
270,,choice,,html-keyboard-response,270,389869,0.0-1.0-54.0-0.0-0.0,0,0,15677,,1087.0,,,75.0,52.0,52.0,1000.0,1500.0,0.0,1.0,0.0,40-80,,0.0,baby carriage,necklace,40.0,80.0,baby carriage9,necklace2,20.0,80.0,Antique baby Carriage 7.jpg,Anecklace7.jpg,/static/Category_learning/Stimuli/Experimental_stims/baby carriage/Antique baby Carriage 7.jpg,/static/Category_learning/Stimuli/Experimental_stims/necklace/Anecklace7.jpg,0.0,necklace,baby carriage,80.0,40.0,necklace2,baby carriage9,80.0,20.0,0.0,276.087,1.087,,,,,,
271,,confirmation,,html-keyboard-response,271,390285,0.0-1.0-54.0-0.0-1.0-0.0,0,0,15677,,,,,,52.0,,,,,1.0,,,,,,,,,,,,,,,,,,,,,,,,,,,276.5,0.413,,,,,,
272,,isi,,html-keyboard-response,272,391289,0.0-1.0-54.0-0.0-2.0,0,0,15677,,,,,,52.0,,,,,1.0,,,,,,,,,,,,,,,,,,,,,,,,,,,277.5,1.0,,,,,,
273,,feedback,,html-keyboard-response,273,392292,0.0-1.0-54.0-0.0-3.0-0.0,0,0,15677,,,,,,52.0,,,,,1.0,,,,,,,,,,,,,,,,,,,,,,,,,,,278.5,1.0,,,,,,
274,,iti,,html-keyboard-response,274,393795,0.0-1.0-54.0-0.0-5.0,0,0,15677,,,,,,52.0,,,,,1.0,,,,,,,,,,,,,,,,,,,,,,,,,,,280.0,1.5,,,,,,
275,,choice,,html-keyboard-response,275,394550,0.0-1.0-55.0-0.0-0.0,0,0,15677,,750.0,,,68.0,53.0,53.0,2000.0,1500.0,0.0,1.0,0.0,20-80,,0.0,watch,small table,20.0,80.0,watch12,small table12,40.0,80.0,snl003_MED.jpg,ATABLE54.jpg,/static/Category_learning/Stimuli/Experimental_stims/watch/snl003_MED.jpg,/static/Category_learning/Stimuli/Experimental_stims/small table/ATABLE54.jpg,1.0,watch,small table,20.0,80.0,watch12,small table12,40.0,80.0,0.0,280.75,0.75,,,,,,
276,,confirmation,,html-keyboard-response,276,395304,0.0-1.0-55.0-0.0-1.0-0.0,0,0,15677,,,,,,53.0,,,,,1.0,,,,,,,,,,,,,,,,,,,,,,,,,,,281.5,0.75,,,,,,
277,,isi,,html-keyboard-response,277,397308,0.0-1.0-55.0-0.0-2.0,0,0,15677,,,,,,53.0,,,,,1.0,,,,,,,,,,,,,,,,,,,,,,,,,,,283.5,2.0,,,,,,
278,,feedback,,html-keyboard-response,278,398310,0.0-1.0-55.0-0.0-3.0-0.0,0,0,15677,,,,,,53.0,,,,,1.0,,,,,,,,,,,,,,,,,,,,,,,,,,,284.5,1.0,,,,,,
279,,iti,,html-keyboard-response,279,399814,0.0-1.0-55.0-0.0-5.0,0,0,15677,,,,,,53.0,,,,,1.0,,,,,,,,,,,,,,,,,,,,,,,,,,,286.0,1.5,,,,,,
280,,choice,,html-keyboard-response,280,401023,0.0-1.0-56.0-0.0-0.0,0,0,15677,,1204.0,,,68.0,54.0,54.0,1000.0,2000.0,0.0,1.0,1.0,80-80,1.0,,power strip,power strip,80.0,80.0,power strip13,power strip10,100.0,80.0,01dccef1-d4b2-4d2e-a317-f2ed46b70b4b_400.jpg,6bd437c9-6165-4d36-bf75-9a1038783c6a_400.jpg,/static/Category_learning/Stimuli/Experimental_stims/power strip/01dccef1-d4b2-4d2e-a317-f2ed46b70b4b_400.jpg,/static/Category_learning/Stimuli/Experimental_stims/power strip/6bd437c9-6165-4d36-bf75-9a1038783c6a_400.jpg,1.0,power strip,power strip,80.0,80.0,power strip13,power strip10,100.0,80.0,0.0,287.204,1.204,,,,,,
281,,confirmation,,html-keyboard-response,281,401324,0.0-1.0-56.0-0.0-1.0-0.0,0,0,15677,,,,,,54.0,,,,,1.0,,,,,,,,,,,,,,,,,,,,,,,,,,,287.5,0.296,,,,,,
282,,isi,,html-keyboard-response,282,402327,0.0-1.0-56.0-0.0-2.0,0,0,15677,,,,,,54.0,,,,,1.0,,,,,,,,,,,,,,,,,,,,,,,,,,,288.5,1.0,,,,,,
283,,feedback,,html-keyboard-response,283,403332,0.0-1.0-56.0-0.0-3.0-0.0,0,0,15677,,,,,,54.0,,,,,1.0,,,,,,,,,,,,,,,,,,,,,,,,,,,289.5,1.0,,,,,,
284,,iti,,html-keyboard-response,284,405336,0.0-1.0-56.0-0.0-5.0,0,0,15677,,,,,,54.0,,,,,1.0,,,,,,,,,,,,,,,,,,,,,,,,,,,291.5,2.0,,,,,,
285,,choice,,html-keyboard-response,285,406032,0.0-1.0-57.0-0.0-0.0,0,0,15677,,692.0,,,68.0,55.0,55.0,1000.0,3000.0,0.0,1.0,0.0,40-60,,1.0,motorcycle,bench,60.0,40.0,motorcycle13,bench9,60.0,40.0,2005-Buell-FireboltXB12R.jpg,26419898.thl.jpg,/static/Category_learning/Stimuli/Experimental_stims/motorcycle/2005-Buell-FireboltXB12R.jpg,/static/Category_learning/Stimuli/Experimental_stims/bench/26419898.thl.jpg,1.0,motorcycle,bench,60.0,40.0,motorcycle13,bench9,60.0,40.0,0.0,292.192,0.692,,,,,,
286,,confirmation,,html-keyboard-response,286,406844,0.0-1.0-57.0-0.0-1.0-0.0,0,0,15677,,,,,,55.0,,,,,1.0,,,,,,,,,,,,,,,,,,,,,,,,,,,293.0,0.808,,,,,,
287,,isi,,html-keyboard-response,287,407847,0.0-1.0-57.0-0.0-2.0,0,0,15677,,,,,,55.0,,,,,1.0,,,,,,,,,,,,,,,,,,,,,,,,,,,294.0,1.0,,,,,,
288,,feedback,,html-keyboard-response,288,408852,0.0-1.0-57.0-0.0-3.0-0.0,0,0,15677,,,,,,55.0,,,,,1.0,,,,,,,,,,,,,,,,,,,,,,,,,,,295.0,1.0,,,,,,
289,,iti,,html-keyboard-response,289,411856,0.0-1.0-57.0-0.0-5.0,0,0,15677,,,,,,55.0,,,,,1.0,,,,,,,,,,,,,,,,,,,,,,,,,,,298.0,3.0,,,,,,
290,,choice,,html-keyboard-response,290,413209,0.0-1.0-58.0-0.0-0.0,0,0,15677,,1348.0,,,75.0,56.0,56.0,1000.0,1000.0,0.0,1.0,0.0,20-40,,1.0,baby carriage,train,40.0,20.0,baby carriage12,train4,60.0,40.0,Baby_Carriage-1.jpg,After-RHS-2-web.jpg,/static/Category_learning/Stimuli/Experimental_stims/baby carriage/Baby_Carriage-1.jpg,/static/Category_learning/Stimuli/Experimental_stims/train/After-RHS-2-web.jpg,0.0,train,baby carriage,20.0,40.0,train4,baby carriage12,40.0,60.0,0.0,299.348,1.348,,,,,,
291,,confirmation,,html-keyboard-response,291,413365,0.0-1.0-58.0-0.0-1.0-0.0,0,0,15677,,,,,,56.0,,,,,1.0,,,,,,,,,,,,,,,,,,,,,,,,,,,299.5,0.152,,,,,,
292,,isi,,html-keyboard-response,292,414369,0.0-1.0-58.0-0.0-2.0,0,0,15677,,,,,,56.0,,,,,1.0,,,,,,,,,,,,,,,,,,,,,,,,,,,300.5,1.0,,,,,,
293,,feedback,,html-keyboard-response,293,415372,0.0-1.0-58.0-0.0-3.0-0.0,0,0,15677,,,,,,56.0,,,,,1.0,,,,,,,,,,,,,,,,,,,,,,,,,,,301.5,1.0,,,,,,
294,,iti,,html-keyboard-response,294,416376,0.0-1.0-58.0-0.0-5.0,0,0,15677,,,,,,56.0,,,,,1.0,,,,,,,,,,,,,,,,,,,,,,,,,,,302.5,1.0,,,,,,
295,,choice,,html-keyboard-response,295,417770,0.0-1.0-59.0-0.0-0.0,0,0,15677,,1389.0,,,75.0,57.0,57.0,3000.0,2000.0,0.0,1.0,1.0,20-20,0.0,,watch,tape,20.0,20.0,watch12,tape12,40.0,40.0,snl003_MED.jpg,Frog-Tape-Dispenser_F02218A2.jpg,/static/Category_learning/Stimuli/Experimental_stims/watch/snl003_MED.jpg,/static/Category_learning/Stimuli/Experimental_stims/tape/Frog-Tape-Dispenser_F02218A2.jpg,0.0,tape,watch,20.0,20.0,tape12,watch12,40.0,40.0,0.0,303.889,1.389,,,,,,
296,,confirmation,,html-keyboard-response,296,417885,0.0-1.0-59.0-0.0-1.0-0.0,0,0,15677,,,,,,57.0,,,,,1.0,,,,,,,,,,,,,,,,,,,,,,,,,,,304.0,0.111,,,,,,
297,,isi,,html-keyboard-response,297,420887,0.0-1.0-59.0-0.0-2.0,0,0,15677,,,,,,57.0,,,,,1.0,,,,,,,,,,,,,,,,,,,,,,,,,,,307.0,3.0,,,,,,
298,,feedback,,html-keyboard-response,298,421894,0.0-1.0-59.0-0.0-3.0-0.0,0,0,15677,,,,,,57.0,,,,,1.0,,,,,,,,,,,,,,,,,,,,,,,,,,,308.0,1.0,,,,,,
299,,iti,,html-keyboard-response,299,423898,0.0-1.0-59.0-0.0-5.0,0,0,15677,,,,,,57.0,,,,,1.0,,,,,,,,,,,,,,,,,,,,,,,,,,,310.0,2.0,,,,,,
300,,choice,,html-keyboard-response,300,424658,0.0-1.0-60.0-0.0-0.0,0,0,15677,,756.0,,,68.0,58.0,58.0,2000.0,1000.0,0.0,1.0,0.0,40-80,,0.0,flashlight,seashell,40.0,80.0,flashlight13,seashell13,60.0,100.0,834808_sk_lg.jpg,coquillage22.jpg,/static/Category_learning/Stimuli/Experimental_stims/flashlight/834808_sk_lg.jpg,/static/Category_learning/Stimuli/Experimental_stims/seashell/coquillage22.jpg,1.0,flashlight,seashell,40.0,80.0,flashlight13,seashell13,60.0,100.0,0.0,310.756,0.756,,,,,,
301,,confirmation,,html-keyboard-response,301,425406,0.0-1.0-60.0-0.0-1.0-0.0,0,0,15677,,,,,,58.0,,,,,1.0,,,,,,,,,,,,,,,,,,,,,,,,,,,311.5,0.744,,,,,,
302,,isi,,html-keyboard-response,302,427409,0.0-1.0-60.0-0.0-2.0,0,0,15677,,,,,,58.0,,,,,1.0,,,,,,,,,,,,,,,,,,,,,,,,,,,313.5,2.0,,,,,,
303,,feedback,,html-keyboard-response,303,428413,0.0-1.0-60.0-0.0-3.0-0.0,0,0,15677,,,,,,58.0,,,,,1.0,,,,,,,,,,,,,,,,,,,,,,,,,,,314.5,1.0,,,,,,
304,,iti,,html-keyboard-response,304,429417,0.0-1.0-60.0-0.0-5.0,0,0,15677,,,,,,58.0,,,,,1.0,,,,,,,,,,,,,,,,,,,,,,,,,,,315.5,1.0,,,,,,
305,,choice,,html-keyboard-response,305,430467,0.0-1.0-61.0-0.0-0.0,0,0,15677,,1046.0,,,68.0,59.0,59.0,1000.0,1500.0,0.0,1.0,0.0,20-60,,0.0,watch,key chain,20.0,60.0,watch14,key chain14,0.0,40.0,HC06.jpg,Jif Keychain 285.jpg,/static/Category_learning/Stimuli/Experimental_stims/watch/HC06.jpg,/static/Category_learning/Stimuli/Experimental_stims/key chain/Jif Keychain 285.jpg,1.0,watch,key chain,20.0,60.0,watch14,key chain14,0.0,40.0,0.0,316.546,1.046,,,,,,
306,,confirmation,,html-keyboard-response,306,430925,0.0-1.0-61.0-0.0-1.0-0.0,0,0,15677,,,,,,59.0,,,,,1.0,,,,,,,,,,,,,,,,,,,,,,,,,,,317.0,0.454,,,,,,
307,,isi,,html-keyboard-response,307,431929,0.0-1.0-61.0-0.0-2.0,0,0,15677,,,,,,59.0,,,,,1.0,,,,,,,,,,,,,,,,,,,,,,,,,,,318.0,1.0,,,,,,
308,,feedback,,html-keyboard-response,308,432933,0.0-1.0-61.0-0.0-3.0-0.0,0,0,15677,,,,,,59.0,,,,,1.0,,,,,,,,,,,,,,,,,,,,,,,,,,,319.0,1.0,,,,,,
309,,iti,,html-keyboard-response,309,434437,0.0-1.0-61.0-0.0-5.0,0,0,15677,,,,,,59.0,,,,,1.0,,,,,,,,,,,,,,,,,,,,,,,,,,,320.5,1.5,,,,,,
310,,choice,,html-keyboard-response,310,435787,0.0-1.0-62.0-0.0-0.0,0,0,15677,,1346.0,,,68.0,60.0,60.0,1500.0,1000.0,0.0,1.0,0.0,20-80,,0.0,watch,small table,20.0,80.0,watch8,small table2,40.0,100.0,2239.jpg,Atable126.jpg,/static/Category_learning/Stimuli/Experimental_stims/watch/2239.jpg,/static/Category_learning/Stimuli/Experimental_stims/small table/Atable126.jpg,1.0,watch,small table,20.0,80.0,watch8,small table2,40.0,100.0,0.0,321.846,1.346,,,,,,
311,,confirmation,,html-keyboard-response,311,435946,0.0-1.0-62.0-0.0-1.0-0.0,0,0,15677,,,,,,60.0,,,,,1.0,,,,,,,,,,,,,,,,,,,,,,,,,,,322.0,0.154,,,,,,
312,,isi,,html-keyboard-response,312,437449,0.0-1.0-62.0-0.0-2.0,0,0,15677,,,,,,60.0,,,,,1.0,,,,,,,,,,,,,,,,,,,,,,,,,,,323.5,1.5,,,,,,
313,,feedback,,html-keyboard-response,313,438451,0.0-1.0-62.0-0.0-3.0-0.0,0,0,15677,,,,,,60.0,,,,,1.0,,,,,,,,,,,,,,,,,,,,,,,,,,,324.5,1.0,,,,,,
314,,iti,,html-keyboard-response,314,439456,0.0-1.0-62.0-0.0-5.0,0,0,15677,,,,,,60.0,,,,,1.0,,,,,,,,,,,,,,,,,,,,,,,,,,,325.5,1.0,,,,,,
315,,choice,,html-keyboard-response,315,440460,0.0-1.0-63.0-0.0-0.0,0,0,15677,,1000.0,,,68.0,61.0,61.0,1500.0,2000.0,0.0,1.0,1.0,20-20,1.0,,watch,watch,20.0,20.0,watch8,watch14,40.0,0.0,2239.jpg,HC06.jpg,/static/Category_learning/Stimuli/Experimental_stims/watch/2239.jpg,/static/Category_learning/Stimuli/Experimental_stims/watch/HC06.jpg,1.0,watch,watch,20.0,20.0,watch8,watch14,40.0,0.0,0.0,326.5,1.0,,,,,,
316,,confirmation,,html-keyboard-response,316,440963,0.0-1.0-63.0-0.0-1.0-0.0,0,0,15677,,,,,,61.0,,,,,1.0,,,,,,,,,,,,,,,,,,,,,,,,,,,327.0,0.5,,,,,,
317,,isi,,html-keyboard-response,317,442466,0.0-1.0-63.0-0.0-2.0,0,0,15677,,,,,,61.0,,,,,1.0,,,,,,,,,,,,,,,,,,,,,,,,,,,328.5,1.5,,,,,,
318,,feedback,,html-keyboard-response,318,443471,0.0-1.0-63.0-0.0-3.0-0.0,0,0,15677,,,,,,61.0,,,,,1.0,,,,,,,,,,,,,,,,,,,,,,,,,,,329.5,1.0,,,,,,
319,,iti,,html-keyboard-response,319,445475,0.0-1.0-63.0-0.0-5.0,0,0,15677,,,,,,61.0,,,,,1.0,,,,,,,,,,,,,,,,,,,,,,,,,,,331.5,2.0,,,,,,
320,,choice,,html-keyboard-response,320,446373,0.0-1.0-64.0-0.0-0.0,0,0,15677,,893.0,,,68.0,62.0,62.0,2000.0,1500.0,0.0,1.0,1.0,20-80,0.0,,nail polish,stool,80.0,20.0,nail polish6,stool15,60.0,20.0,127_t.jpg,ASTOOL.jpg,/static/Category_learning/Stimuli/Experimental_stims/nail polish/127_t.jpg,/static/Category_learning/Stimuli/Experimental_stims/stool/ASTOOL.jpg,1.0,nail polish,stool,80.0,20.0,nail polish6,stool15,60.0,20.0,0.0,332.393,0.893,,,,,,
321,,confirmation,,html-keyboard-response,321,446984,0.0-1.0-64.0-0.0-1.0-0.0,0,0,15677,,,,,,62.0,,,,,1.0,,,,,,,,,,,,,,,,,,,,,,,,,,,333.0,0.607,,,,,,
322,,isi,,html-keyboard-response,322,448987,0.0-1.0-64.0-0.0-2.0,0,0,15677,,,,,,62.0,,,,,1.0,,,,,,,,,,,,,,,,,,,,,,,,,,,335.0,2.0,,,,,,
323,,feedback,,html-keyboard-response,323,449991,0.0-1.0-64.0-0.0-3.0-0.0,0,0,15677,,,,,,62.0,,,,,1.0,,,,,,,,,,,,,,,,,,,,,,,,,,,336.0,1.0,,,,,,
324,,iti,,html-keyboard-response,324,451495,0.0-1.0-64.0-0.0-5.0,0,0,15677,,,,,,62.0,,,,,1.0,,,,,,,,,,,,,,,,,,,,,,,,,,,337.5,1.5,,,,,,
325,,choice,,html-keyboard-response,325,452878,0.0-1.0-65.0-0.0-0.0,0,0,15677,,1379.0,,,68.0,63.0,63.0,3000.0,3000.0,0.0,1.0,0.0,20-60,,1.0,key chain,stool,60.0,20.0,key chain9,stool12,80.0,0.0,sfx8832-ferrari-shield-keychain.jpg,henrybar_stool1.jpg,/static/Category_learning/Stimuli/Experimental_stims/key chain/sfx8832-ferrari-shield-keychain.jpg,/static/Category_learning/Stimuli/Experimental_stims/stool/henrybar_stool1.jpg,1.0,key chain,stool,60.0,20.0,key chain9,stool12,80.0,0.0,0.0,338.879,1.379,,,,,,
326,,confirmation,,html-keyboard-response,326,453002,0.0-1.0-65.0-0.0-1.0-0.0,0,0,15677,,,,,,63.0,,,,,1.0,,,,,,,,,,,,,,,,,,,,,,,,,,,339.0,0.121,,,,,,
327,,isi,,html-keyboard-response,327,456005,0.0-1.0-65.0-0.0-2.0,0,0,15677,,,,,,63.0,,,,,1.0,,,,,,,,,,,,,,,,,,,,,,,,,,,342.0,3.0,,,,,,
328,,feedback,,html-keyboard-response,328,457009,0.0-1.0-65.0-0.0-3.0-0.0,0,0,15677,,,,,,63.0,,,,,1.0,,,,,,,,,,,,,,,,,,,,,,,,,,,343.0,1.0,,,,,,
329,,iti,,html-keyboard-response,329,460012,0.0-1.0-65.0-0.0-5.0,0,0,15677,,,,,,63.0,,,,,1.0,,,,,,,,,,,,,,,,,,,,,,,,,,,346.0,3.0,,,,,,
330,,choice,,html-keyboard-response,330,460736,0.0-1.0-66.0-0.0-0.0,0,0,15677,,718.0,,,75.0,64.0,64.0,1000.0,1500.0,0.0,1.0,1.0,60-60,0.0,,microscope,motorcycle,60.0,60.0,microscope3,motorcycle13,40.0,60.0,APDB.jpg,2005-Buell-FireboltXB12R.jpg,/static/Category_learning/Stimuli/Experimental_stims/microscope/APDB.jpg,/static/Category_learning/Stimuli/Experimental_stims/motorcycle/2005-Buell-FireboltXB12R.jpg,0.0,motorcycle,microscope,60.0,60.0,motorcycle13,microscope3,60.0,40.0,0.0,346.718,0.718,,,,,,
331,,confirmation,,html-keyboard-response,331,461522,0.0-1.0-66.0-0.0-1.0-0.0,0,0,15677,,,,,,64.0,,,,,1.0,,,,,,,,,,,,,,,,,,,,,,,,,,,347.5,0.782,,,,,,
332,,isi,,html-keyboard-response,332,462525,0.0-1.0-66.0-0.0-2.0,0,0,15677,,,,,,64.0,,,,,1.0,,,,,,,,,,,,,,,,,,,,,,,,,,,348.5,1.0,,,,,,
333,,feedback,,html-keyboard-response,333,463528,0.0-1.0-66.0-0.0-3.0-0.0,0,0,15677,,,,,,64.0,,,,,1.0,,,,,,,,,,,,,,,,,,,,,,,,,,,349.5,1.0,,,,,,
334,,iti,,html-keyboard-response,334,465031,0.0-1.0-66.0-0.0-5.0,0,0,15677,,,,,,64.0,,,,,1.0,,,,,,,,,,,,,,,,,,,,,,,,,,,351.0,1.5,,,,,,
335,,block_over,,html-keyboard-response,335,468944,0.0-1.0-66.0-0.0-7.0-0.0,0,0,15677,,3907.0,,,68.0,64.0,,,,,,,,,,,,,,,,,,,,,,,,,,,,,,,,,,,,,,,
336,,start_run,,html-keyboard-response,336,470224,0.0-1.0-66.0-0.0-7.0-1.0,0,0,15677,,1278.0,,,84.0,,,,,,,,,,,,,,,,,,,,,,,,,,,,,,,,,,,,,,,,
337,,choice,,html-keyboard-response,337,471137,0.0-1.0-67.0-0.0-0.0,0,0,15677,,910.0,,,75.0,65.0,65.0,1000.0,1500.0,0.0,2.0,0.0,20-60,,0.0,tent,hammer,20.0,60.0,tent10,hammer4,0.0,60.0,TENT-DUTCH-GD1-1.jpg,hammernew01.jpg,/static/Category_learning/Stimuli/Experimental_stims/tent/TENT-DUTCH-GD1-1.jpg,/static/Category_learning/Stimuli/Experimental_stims/hammer/hammernew01.jpg,0.0,hammer,tent,60.0,20.0,hammer4,tent10,60.0,0.0,0.0,0.91,0.91,,,,,,
338,,confirmation,,html-keyboard-response,338,471743,0.0-1.0-67.0-0.0-1.0-0.0,0,0,15677,,,,,,65.0,,,,,2.0,,,,,,,,,,,,,,,,,,,,,,,,,,,1.5,0.59,,,,,,
339,,isi,,html-keyboard-response,339,472745,0.0-1.0-67.0-0.0-2.0,0,0,15677,,,,,,65.0,,,,,2.0,,,,,,,,,,,,,,,,,,,,,,,,,,,2.5,1.0,,,,,,
340,,feedback,,html-keyboard-response,340,473748,0.0-1.0-67.0-0.0-3.0-0.0,0,0,15677,,,,,,65.0,,,,,2.0,,,,,,,,,,,,,,,,,,,,,,,,,,,3.5,1.0,,,,,,
341,,iti,,html-keyboard-response,341,475251,0.0-1.0-67.0-0.0-5.0,0,0,15677,,,,,,65.0,,,,,2.0,,,,,,,,,,,,,,,,,,,,,,,,,,,5.0,1.5,,,,,,
342,,choice,,html-keyboard-response,342,475961,0.0-1.0-68.0-0.0-0.0,0,0,15677,,705.0,,,68.0,66.0,66.0,3000.0,1000.0,0.0,2.0,0.0,40-80,,1.0,patio lounge chair,bench,80.0,40.0,patio lounge chair11,bench3,100.0,20.0,51830.jpg,26419540.thl.jpg,/static/Category_learning/Stimuli/Experimental_stims/patio lounge chair/51830.jpg,/static/Category_learning/Stimuli/Experimental_stims/bench/26419540.thl.jpg,1.0,patio lounge chair,bench,80.0,40.0,patio lounge chair11,bench3,100.0,20.0,0.0,5.705,0.705,,,,,,
343,,confirmation,,html-keyboard-response,343,476760,0.0-1.0-68.0-0.0-1.0-0.0,0,0,15677,,,,,,66.0,,,,,2.0,,,,,,,,,,,,,,,,,,,,,,,,,,,6.5,0.795,,,,,,
344,,isi,,html-keyboard-response,344,479762,0.0-1.0-68.0-0.0-2.0,0,0,15677,,,,,,66.0,,,,,2.0,,,,,,,,,,,,,,,,,,,,,,,,,,,9.5,3.0,,,,,,
345,,feedback,,html-keyboard-response,345,480767,0.0-1.0-68.0-0.0-3.0-0.0,0,0,15677,,,,,,66.0,,,,,2.0,,,,,,,,,,,,,,,,,,,,,,,,,,,10.5,1.0,,,,,,
346,,iti,,html-keyboard-response,346,481770,0.0-1.0-68.0-0.0-5.0,0,0,15677,,,,,,66.0,,,,,2.0,,,,,,,,,,,,,,,,,,,,,,,,,,,11.5,1.0,,,,,,
347,,choice,,html-keyboard-response,347,482746,0.0-1.0-69.0-0.0-0.0,0,0,15677,,973.0,,,68.0,67.0,67.0,1500.0,1500.0,0.0,2.0,0.0,20-20,,,trumpet,watch,20.0,20.0,trumpet12,watch6,40.0,20.0,hornabariton.jpg,B0000X04VC.01-A4LKQQKJ91IUZ._AA280_SCLZZZZZZZ_.jpg,/static/Category_learning/Stimuli/Experimental_stims/trumpet/hornabariton.jpg,/static/Category_learning/Stimuli/Experimental_stims/watch/B0000X04VC.01-A4LKQQKJ91IUZ._AA280_SCLZZZZZZZ_.jpg,1.0,trumpet,watch,20.0,20.0,trumpet12,watch6,40.0,20.0,0.0,12.473,0.973,,,,,,
348,,confirmation,,html-keyboard-response,348,483277,0.0-1.0-69.0-0.0-1.0-0.0,0,0,15677,,,,,,67.0,,,,,2.0,,,,,,,,,,,,,,,,,,,,,,,,,,,13.0,0.527,,,,,,
349,,isi,,html-keyboard-response,349,484780,0.0-1.0-69.0-0.0-2.0,0,0,15677,,,,,,67.0,,,,,2.0,,,,,,,,,,,,,,,,,,,,,,,,,,,14.5,1.5,,,,,,
350,,feedback,,html-keyboard-response,350,485785,0.0-1.0-69.0-0.0-3.0-0.0,0,0,15677,,,,,,67.0,,,,,2.0,,,,,,,,,,,,,,,,,,,,,,,,,,,15.5,1.0,,,,,,
351,,iti,,html-keyboard-response,351,487288,0.0-1.0-69.0-0.0-5.0,0,0,15677,,,,,,67.0,,,,,2.0,,,,,,,,,,,,,,,,,,,,,,,,,,,17.0,1.5,,,,,,
352,,choice,,html-keyboard-response,352,488307,0.0-1.0-70.0-0.0-0.0,0,0,15677,,1015.0,,,75.0,68.0,68.0,2000.0,1500.0,0.0,2.0,0.0,20-80,,0.0,yarn,small table,20.0,80.0,yarn1,small table8,40.0,60.0,corn_yarn.jpg,ATABLE8.jpg,/static/Category_learning/Stimuli/Experimental_stims/yarn/corn_yarn.jpg,/static/Category_learning/Stimuli/Experimental_stims/small table/ATABLE8.jpg,0.0,small table,yarn,80.0,20.0,small table8,yarn1,60.0,40.0,0.0,18.015,1.015,,,,,,
353,,confirmation,,html-keyboard-response,353,488796,0.0-1.0-70.0-0.0-1.0-0.0,0,0,15677,,,,,,68.0,,,,,2.0,,,,,,,,,,,,,,,,,,,,,,,,,,,18.5,0.485,,,,,,
354,,isi,,html-keyboard-response,354,490799,0.0-1.0-70.0-0.0-2.0,0,0,15677,,,,,,68.0,,,,,2.0,,,,,,,,,,,,,,,,,,,,,,,,,,,20.5,2.0,,,,,,
355,,feedback,,html-keyboard-response,355,491802,0.0-1.0-70.0-0.0-3.0-0.0,0,0,15677,,,,,,68.0,,,,,2.0,,,,,,,,,,,,,,,,,,,,,,,,,,,21.5,1.0,,,,,,
356,,iti,,html-keyboard-response,356,493305,0.0-1.0-70.0-0.0-5.0,0,0,15677,,,,,,68.0,,,,,2.0,,,,,,,,,,,,,,,,,,,,,,,,,,,23.0,1.5,,,,,,
357,,choice,,html-keyboard-response,357,494156,0.0-1.0-71.0-0.0-0.0,0,0,15677,,847.0,,,68.0,69.0,69.0,1000.0,2000.0,0.0,2.0,0.0,60-60,,,makeup compact,hat,60.0,60.0,makeup compact12,hat5,80.0,40.0,P139103_hero.jpg,AREDHAT4.jpg,/static/Category_learning/Stimuli/Experimental_stims/makeup compact/P139103_hero.jpg,/static/Category_learning/Stimuli/Experimental_stims/hat/AREDHAT4.jpg,1.0,makeup compact,hat,60.0,60.0,makeup compact12,hat5,80.0,40.0,0.0,23.847,0.847,,,,,,
358,,confirmation,,html-keyboard-response,358,494814,0.0-1.0-71.0-0.0-1.0-0.0,0,0,15677,,,,,,69.0,,,,,2.0,,,,,,,,,,,,,,,,,,,,,,,,,,,24.5,0.653,,,,,,
359,,isi,,html-keyboard-response,359,495817,0.0-1.0-71.0-0.0-2.0,0,0,15677,,,,,,69.0,,,,,2.0,,,,,,,,,,,,,,,,,,,,,,,,,,,25.5,1.0,,,,,,
360,,feedback,,html-keyboard-response,360,496822,0.0-1.0-71.0-0.0-3.0-0.0,0,0,15677,,,,,,69.0,,,,,2.0,,,,,,,,,,,,,,,,,,,,,,,,,,,26.5,1.0,,,,,,
361,,iti,,html-keyboard-response,361,498824,0.0-1.0-71.0-0.0-5.0,0,0,15677,,,,,,69.0,,,,,2.0,,,,,,,,,,,,,,,,,,,,,,,,,,,28.5,2.0,,,,,,
362,,choice,,html-keyboard-response,362,499629,0.0-1.0-72.0-0.0-0.0,0,0,15677,,800.0,,,75.0,70.0,70.0,1000.0,1000.0,0.0,2.0,0.0,40-60,,0.0,dresser,lipstick,40.0,60.0,dresser4,lipstick5,60.0,40.0,ADRESSE40.jpg,P35719_hero.jpg,/static/Category_learning/Stimuli/Experimental_stims/dresser/ADRESSE40.jpg,/static/Category_learning/Stimuli/Experimental_stims/lipstick/P35719_hero.jpg,0.0,lipstick,dresser,60.0,40.0,lipstick5,dresser4,40.0,60.0,0.0,29.3,0.8,,,,,,
363,,confirmation,,html-keyboard-response,363,500333,0.0-1.0-72.0-0.0-1.0-0.0,0,0,15677,,,,,,70.0,,,,,2.0,,,,,,,,,,,,,,,,,,,,,,,,,,,30.0,0.7,,,,,,
364,,isi,,html-keyboard-response,364,501337,0.0-1.0-72.0-0.0-2.0,0,0,15677,,,,,,70.0,,,,,2.0,,,,,,,,,,,,,,,,,,,,,,,,,,,31.0,1.0,,,,,,
365,,feedback,,html-keyboard-response,365,502340,0.0-1.0-72.0-0.0-3.0-0.0,0,0,15677,,,,,,70.0,,,,,2.0,,,,,,,,,,,,,,,,,,,,,,,,,,,32.0,1.0,,,,,,
366,,iti,,html-keyboard-response,366,503343,0.0-1.0-72.0-0.0-5.0,0,0,15677,,,,,,70.0,,,,,2.0,,,,,,,,,,,,,,,,,,,,,,,,,,,33.0,1.0,,,,,,
367,,choice,,html-keyboard-response,367,504470,0.0-1.0-73.0-0.0-0.0,0,0,15677,,1121.0,,,75.0,71.0,71.0,1000.0,1500.0,0.0,2.0,1.0,60-60,1.0,,hammer,hammer,60.0,60.0,hammer2,hammer4,40.0,60.0,hammer04.jpg,hammernew01.jpg,/static/Category_learning/Stimuli/Experimental_stims/hammer/hammer04.jpg,/static/Category_learning/Stimuli/Experimental_stims/hammer/hammernew01.jpg,0.0,hammer,hammer,60.0,60.0,hammer4,hammer2,60.0,40.0,0.0,34.121,1.121,,,,,,
368,,confirmation,,html-keyboard-response,368,504853,0.0-1.0-73.0-0.0-1.0-0.0,0,0,15677,,,,,,71.0,,,,,2.0,,,,,,,,,,,,,,,,,,,,,,,,,,,34.5,0.379,,,,,,
369,,isi,,html-keyboard-response,369,505856,0.0-1.0-73.0-0.0-2.0,0,0,15677,,,,,,71.0,,,,,2.0,,,,,,,,,,,,,,,,,,,,,,,,,,,35.5,1.0,,,,,,
370,,feedback,,html-keyboard-response,370,506860,0.0-1.0-73.0-0.0-3.0-0.0,0,0,15677,,,,,,71.0,,,,,2.0,,,,,,,,,,,,,,,,,,,,,,,,,,,36.5,1.0,,,,,,
371,,iti,,html-keyboard-response,371,508363,0.0-1.0-73.0-0.0-5.0,0,0,15677,,,,,,71.0,,,,,2.0,,,,,,,,,,,,,,,,,,,,,,,,,,,38.0,1.5,,,,,,
372,,choice,,html-keyboard-response,372,509406,0.0-1.0-74.0-0.0-0.0,0,0,15677,,1040.0,,,68.0,72.0,72.0,2000.0,2000.0,0.0,2.0,0.0,40-60,,1.0,hat,desk,60.0,40.0,hat10,desk11,80.0,60.0,Atornhat3.jpg,Writing_Desk_280_Cutout_Sideview_half.jpg,/static/Category_learning/Stimuli/Experimental_stims/hat/Atornhat3.jpg,/static/Category_learning/Stimuli/Experimental_stims/desk/Writing_Desk_280_Cutout_Sideview_half.jpg,1.0,hat,desk,60.0,40.0,hat10,desk11,80.0,60.0,0.0,39.04,1.04,,,,,,
373,,confirmation,,html-keyboard-response,373,509868,0.0-1.0-74.0-0.0-1.0-0.0,0,0,15677,,,,,,72.0,,,,,2.0,,,,,,,,,,,,,,,,,,,,,,,,,,,39.5,0.46,,,,,,
374,,isi,,html-keyboard-response,374,511872,0.0-1.0-74.0-0.0-2.0,0,0,15677,,,,,,72.0,,,,,2.0,,,,,,,,,,,,,,,,,,,,,,,,,,,41.5,2.0,,,,,,
375,,feedback,,html-keyboard-response,375,512875,0.0-1.0-74.0-0.0-3.0-0.0,0,0,15677,,,,,,72.0,,,,,2.0,,,,,,,,,,,,,,,,,,,,,,,,,,,42.5,1.0,,,,,,
376,,iti,,html-keyboard-response,376,514878,0.0-1.0-74.0-0.0-5.0,0,0,15677,,,,,,72.0,,,,,2.0,,,,,,,,,,,,,,,,,,,,,,,,,,,44.5,2.0,,,,,,
377,,choice,,html-keyboard-response,377,515783,0.0-1.0-75.0-0.0-0.0,0,0,15677,,901.0,,,75.0,73.0,73.0,1500.0,1000.0,0.0,2.0,1.0,60-60,1.0,,lipstick,lipstick,60.0,60.0,lipstick5,lipstick1,40.0,80.0,P35719_hero.jpg,P170102_hero.jpg,/static/Category_learning/Stimuli/Experimental_stims/lipstick/P35719_hero.jpg,/static/Category_learning/Stimuli/Experimental_stims/lipstick/P170102_hero.jpg,0.0,lipstick,lipstick,60.0,60.0,lipstick1,lipstick5,80.0,40.0,0.0,45.401,0.901,,,,,,
378,,confirmation,,html-keyboard-response,378,516384,0.0-1.0-75.0-0.0-1.0-0.0,0,0,15677,,,,,,73.0,,,,,2.0,,,,,,,,,,,,,,,,,,,,,,,,,,,46.0,0.599,,,,,,
379,,isi,,html-keyboard-response,379,517888,0.0-1.0-75.0-0.0-2.0,0,0,15677,,,,,,73.0,,,,,2.0,,,,,,,,,,,,,,,,,,,,,,,,,,,47.5,1.5,,,,,,
380,,feedback,,html-keyboard-response,380,518892,0.0-1.0-75.0-0.0-3.0-0.0,0,0,15677,,,,,,73.0,,,,,2.0,,,,,,,,,,,,,,,,,,,,,,,,,,,48.5,1.0,,,,,,
381,,iti,,html-keyboard-response,381,519896,0.0-1.0-75.0-0.0-5.0,0,0,15677,,,,,,73.0,,,,,2.0,,,,,,,,,,,,,,,,,,,,,,,,,,,49.5,1.0,,,,,,
382,,choice,,html-keyboard-response,382,520927,0.0-1.0-76.0-0.0-0.0,0,0,15677,,1027.0,,,75.0,74.0,74.0,1500.0,1000.0,0.0,2.0,1.0,60-60,1.0,,hat,hat,60.0,60.0,hat10,hat1,80.0,60.0,Atornhat3.jpg,AGREENHAT.jpg,/static/Category_learning/Stimuli/Experimental_stims/hat/Atornhat3.jpg,/static/Category_learning/Stimuli/Experimental_stims/hat/AGREENHAT.jpg,0.0,hat,hat,60.0,60.0,hat1,hat10,60.0,80.0,0.0,50.527,1.027,,,,,,
383,,confirmation,,html-keyboard-response,383,521403,0.0-1.0-76.0-0.0-1.0-0.0,0,0,15677,,,,,,74.0,,,,,2.0,,,,,,,,,,,,,,,,,,,,,,,,,,,51.0,0.473,,,,,,
384,,isi,,html-keyboard-response,384,522906,0.0-1.0-76.0-0.0-2.0,0,0,15677,,,,,,74.0,,,,,2.0,,,,,,,,,,,,,,,,,,,,,,,,,,,52.5,1.5,,,,,,
385,,feedback,,html-keyboard-response,385,523910,0.0-1.0-76.0-0.0-3.0-0.0,0,0,15677,,,,,,74.0,,,,,2.0,,,,,,,,,,,,,,,,,,,,,,,,,,,53.5,1.0,,,,,,
386,,iti,,html-keyboard-response,386,524914,0.0-1.0-76.0-0.0-5.0,0,0,15677,,,,,,74.0,,,,,2.0,,,,,,,,,,,,,,,,,,,,,,,,,,,54.5,1.0,,,,,,
387,,choice,,html-keyboard-response,387,525704,0.0-1.0-77.0-0.0-0.0,0,0,15677,,786.0,,,68.0,75.0,75.0,1000.0,1000.0,0.0,2.0,0.0,60-60,,,microscope,hat,60.0,60.0,microscope8,hat14,60.0,60.0,AMICROS21.jpg,Ahat136.jpg,/static/Category_learning/Stimuli/Experimental_stims/microscope/AMICROS21.jpg,/static/Category_learning/Stimuli/Experimental_stims/hat/Ahat136.jpg,1.0,microscope,hat,60.0,60.0,microscope8,hat14,60.0,60.0,0.0,55.286,0.786,,,,,,
388,,confirmation,,html-keyboard-response,388,526422,0.0-1.0-77.0-0.0-1.0-0.0,0,0,15677,,,,,,75.0,,,,,2.0,,,,,,,,,,,,,,,,,,,,,,,,,,,56.0,0.714,,,,,,
389,,isi,,html-keyboard-response,389,527425,0.0-1.0-77.0-0.0-2.0,0,0,15677,,,,,,75.0,,,,,2.0,,,,,,,,,,,,,,,,,,,,,,,,,,,57.0,1.0,,,,,,
390,,feedback,,html-keyboard-response,390,528428,0.0-1.0-77.0-0.0-3.0-0.0,0,0,15677,,,,,,75.0,,,,,2.0,,,,,,,,,,,,,,,,,,,,,,,,,,,58.0,1.0,,,,,,
391,,iti,,html-keyboard-response,391,529433,0.0-1.0-77.0-0.0-5.0,0,0,15677,,,,,,75.0,,,,,2.0,,,,,,,,,,,,,,,,,,,,,,,,,,,59.0,1.0,,,,,,
392,,choice,,html-keyboard-response,392,530321,0.0-1.0-78.0-0.0-0.0,0,0,15677,,884.0,,,75.0,76.0,76.0,2000.0,2000.0,0.0,2.0,0.0,40-60,,0.0,door knob,frame,40.0,60.0,door knob8,frame10,40.0,80.0,pro_l_116_medeco437ul.jpg,AFRAME107.jpg,/static/Category_learning/Stimuli/Experimental_stims/door knob/pro_l_116_medeco437ul.jpg,/static/Category_learning/Stimuli/Experimental_stims/frame/AFRAME107.jpg,0.0,frame,door knob,60.0,40.0,frame10,door knob8,80.0,40.0,0.0,59.884,0.884,,,,,,
393,,confirmation,,html-keyboard-response,393,530939,0.0-1.0-78.0-0.0-1.0-0.0,0,0,15677,,,,,,76.0,,,,,2.0,,,,,,,,,,,,,,,,,,,,,,,,,,,60.5,0.616,,,,,,
394,,isi,,html-keyboard-response,394,532941,0.0-1.0-78.0-0.0-2.0,0,0,15677,,,,,,76.0,,,,,2.0,,,,,,,,,,,,,,,,,,,,,,,,,,,62.5,2.0,,,,,,
395,,feedback,,html-keyboard-response,395,533946,0.0-1.0-78.0-0.0-3.0-0.0,0,0,15677,,,,,,76.0,,,,,2.0,,,,,,,,,,,,,,,,,,,,,,,,,,,63.5,1.0,,,,,,
396,,iti,,html-keyboard-response,396,535949,0.0-1.0-78.0-0.0-5.0,0,0,15677,,,,,,76.0,,,,,2.0,,,,,,,,,,,,,,,,,,,,,,,,,,,65.5,2.0,,,,,,
397,,choice,,html-keyboard-response,397,537394,0.0-1.0-79.0-0.0-0.0,0,0,15677,,1439.0,,,68.0,77.0,77.0,1500.0,2000.0,0.0,2.0,0.0,40-60,,0.0,bench,hat,40.0,60.0,bench6,hat3,20.0,60.0,26370121.thl.jpg,Astrawhat49.jpg,/static/Category_learning/Stimuli/Experimental_stims/bench/26370121.thl.jpg,/static/Category_learning/Stimuli/Experimental_stims/hat/Astrawhat49.jpg,1.0,bench,hat,40.0,60.0,bench6,hat3,20.0,60.0,0.0,66.939,1.439,,,,,,
398,,confirmation,,html-keyboard-response,398,537459,0.0-1.0-79.0-0.0-1.0-0.0,0,0,15677,,,,,,77.0,,,,,2.0,,,,,,,,,,,,,,,,,,,,,,,,,,,67.0,0.061,,,,,,
399,,isi,,html-keyboard-response,399,538961,0.0-1.0-79.0-0.0-2.0,0,0,15677,,,,,,77.0,,,,,2.0,,,,,,,,,,,,,,,,,,,,,,,,,,,68.5,1.5,,,,,,
400,,feedback,,html-keyboard-response,400,539966,0.0-1.0-79.0-0.0-3.0-0.0,0,0,15677,,,,,,77.0,,,,,2.0,,,,,,,,,,,,,,,,,,,,,,,,,,,69.5,1.0,,,,,,
401,,iti,,html-keyboard-response,401,541969,0.0-1.0-79.0-0.0-5.0,0,0,15677,,,,,,77.0,,,,,2.0,,,,,,,,,,,,,,,,,,,,,,,,,,,71.5,2.0,,,,,,
402,,choice,,html-keyboard-response,402,542659,0.0-1.0-80.0-0.0-0.0,0,0,15677,,687.0,,,68.0,78.0,78.0,2000.0,1500.0,0.0,2.0,0.0,40-80,,1.0,nail polish,baby carriage,80.0,40.0,nail polish15,baby carriage1,60.0,40.0,MA_NP_WSD.jpg,babycarriage16.jpg,/static/Category_learning/Stimuli/Experimental_stims/nail polish/MA_NP_WSD.jpg,/static/Category_learning/Stimuli/Experimental_stims/baby carriage/babycarriage16.jpg,1.0,nail polish,baby carriage,80.0,40.0,nail polish15,baby carriage1,60.0,40.0,0.0,72.187,0.687,,,,,,
403,,confirmation,,html-keyboard-response,403,543476,0.0-1.0-80.0-0.0-1.0-0.0,0,0,15677,,,,,,78.0,,,,,2.0,,,,,,,,,,,,,,,,,,,,,,,,,,,73.0,0.813,,,,,,
404,,isi,,html-keyboard-response,404,545480,0.0-1.0-80.0-0.0-2.0,0,0,15677,,,,,,78.0,,,,,2.0,,,,,,,,,,,,,,,,,,,,,,,,,,,75.0,2.0,,,,,,
405,,feedback,,html-keyboard-response,405,546485,0.0-1.0-80.0-0.0-3.0-0.0,0,0,15677,,,,,,78.0,,,,,2.0,,,,,,,,,,,,,,,,,,,,,,,,,,,76.0,1.0,,,,,,
406,,iti,,html-keyboard-response,406,547989,0.0-1.0-80.0-0.0-5.0,0,0,15677,,,,,,78.0,,,,,2.0,,,,,,,,,,,,,,,,,,,,,,,,,,,77.5,1.5,,,,,,
407,,choice,,html-keyboard-response,407,548787,0.0-1.0-81.0-0.0-0.0,0,0,15677,,795.0,,,68.0,79.0,79.0,1000.0,1500.0,0.0,2.0,0.0,40-80,,1.0,poker card,bongo,80.0,40.0,poker card2,bongo9,100.0,20.0,22864716.thl.jpg,22946035.thl.jpg,/static/Category_learning/Stimuli/Experimental_stims/poker card/22864716.thl.jpg,/static/Category_learning/Stimuli/Experimental_stims/bongo/22946035.thl.jpg,1.0,poker card,bongo,80.0,40.0,poker card2,bongo9,100.0,20.0,0.0,78.295,0.795,,,,,,
408,,confirmation,,html-keyboard-response,408,549497,0.0-1.0-81.0-0.0-1.0-0.0,0,0,15677,,,,,,79.0,,,,,2.0,,,,,,,,,,,,,,,,,,,,,,,,,,,79.0,0.705,,,,,,
409,,isi,,html-keyboard-response,409,550513,0.0-1.0-81.0-0.0-2.0,0,0,15677,,,,,,79.0,,,,,2.0,,,,,,,,,,,,,,,,,,,,,,,,,,,80.0,1.0,,,,,,
410,,feedback,,html-keyboard-response,410,551518,0.0-1.0-81.0-0.0-3.0-0.0,0,0,15677,,,,,,79.0,,,,,2.0,,,,,,,,,,,,,,,,,,,,,,,,,,,81.0,1.0,,,,,,
411,,iti,,html-keyboard-response,411,553022,0.0-1.0-81.0-0.0-5.0,0,0,15677,,,,,,79.0,,,,,2.0,,,,,,,,,,,,,,,,,,,,,,,,,,,82.5,1.5,,,,,,
412,,choice,,html-keyboard-response,412,553964,0.0-1.0-82.0-0.0-0.0,0,0,15677,,937.0,,,75.0,80.0,80.0,1000.0,1000.0,0.0,2.0,0.0,80-80,,,seashell,patio lounge chair,80.0,80.0,seashell6,patio lounge chair3,80.0,60.0,PY2H1461.jpg,Lounge_Chair.jpg,/static/Category_learning/Stimuli/Experimental_stims/seashell/PY2H1461.jpg,/static/Category_learning/Stimuli/Experimental_stims/patio lounge chair/Lounge_Chair.jpg,0.0,patio lounge chair,seashell,80.0,80.0,patio lounge chair3,seashell6,60.0,80.0,0.0,83.437,0.937,,,,,,
413,,confirmation,,html-keyboard-response,413,554531,0.0-1.0-82.0-0.0-1.0-0.0,0,0,15677,,,,,,80.0,,,,,2.0,,,,,,,,,,,,,,,,,,,,,,,,,,,84.0,0.563,,,,,,
414,,isi,,html-keyboard-response,414,555534,0.0-1.0-82.0-0.0-2.0,0,0,15677,,,,,,80.0,,,,,2.0,,,,,,,,,,,,,,,,,,,,,,,,,,,85.0,1.0,,,,,,
415,,feedback,,html-keyboard-response,415,556537,0.0-1.0-82.0-0.0-3.0-0.0,0,0,15677,,,,,,80.0,,,,,2.0,,,,,,,,,,,,,,,,,,,,,,,,,,,86.0,1.0,,,,,,
416,,iti,,html-keyboard-response,416,557540,0.0-1.0-82.0-0.0-5.0,0,0,15677,,,,,,80.0,,,,,2.0,,,,,,,,,,,,,,,,,,,,,,,,,,,87.0,1.0,,,,,,
417,,choice,,html-keyboard-response,417,558261,0.0-1.0-83.0-0.0-0.0,0,0,15677,,716.0,,,68.0,81.0,81.0,1000.0,3500.0,0.0,2.0,0.0,20-80,,0.0,tape,small table,20.0,80.0,tape10,small table10,20.0,100.0,26377601.thl.jpg,ATABLE41.jpg,/static/Category_learning/Stimuli/Experimental_stims/tape/26377601.thl.jpg,/static/Category_learning/Stimuli/Experimental_stims/small table/ATABLE41.jpg,1.0,tape,small table,20.0,80.0,tape10,small table10,20.0,100.0,0.0,87.716,0.716,,,,,,
418,,confirmation,,html-keyboard-response,418,559049,0.0-1.0-83.0-0.0-1.0-0.0,0,0,15677,,,,,,81.0,,,,,2.0,,,,,,,,,,,,,,,,,,,,,,,,,,,88.5,0.784,,,,,,
419,,isi,,html-keyboard-response,419,560056,0.0-1.0-83.0-0.0-2.0,0,0,15677,,,,,,81.0,,,,,2.0,,,,,,,,,,,,,,,,,,,,,,,,,,,89.5,1.0,,,,,,
420,,feedback,,html-keyboard-response,420,561060,0.0-1.0-83.0-0.0-3.0-0.0,0,0,15677,,,,,,81.0,,,,,2.0,,,,,,,,,,,,,,,,,,,,,,,,,,,90.5,1.0,,,,,,
421,,iti,,html-keyboard-response,421,564563,0.0-1.0-83.0-0.0-5.0,0,0,15677,,,,,,81.0,,,,,2.0,,,,,,,,,,,,,,,,,,,,,,,,,,,94.0,3.5,,,,,,
422,,choice,,html-keyboard-response,422,565494,0.0-1.0-84.0-0.0-0.0,0,0,15677,,927.0,,,68.0,82.0,82.0,1000.0,3500.0,0.0,2.0,0.0,20-60,,0.0,stool,frame,20.0,60.0,stool14,frame7,40.0,40.0,hjscott-sbs-b-bar-stool.jpg,AFRAME152.jpg,/static/Category_learning/Stimuli/Experimental_stims/stool/hjscott-sbs-b-bar-stool.jpg,/static/Category_learning/Stimuli/Experimental_stims/frame/AFRAME152.jpg,1.0,stool,frame,20.0,60.0,stool14,frame7,40.0,40.0,0.0,94.927,0.927,,,,,,
423,,confirmation,,html-keyboard-response,423,566070,0.0-1.0-84.0-0.0-1.0-0.0,0,0,15677,,,,,,82.0,,,,,2.0,,,,,,,,,,,,,,,,,,,,,,,,,,,95.5,0.573,,,,,,
424,,isi,,html-keyboard-response,424,567072,0.0-1.0-84.0-0.0-2.0,0,0,15677,,,,,,82.0,,,,,2.0,,,,,,,,,,,,,,,,,,,,,,,,,,,96.5,1.0,,,,,,
425,,feedback,,html-keyboard-response,425,568077,0.0-1.0-84.0-0.0-3.0-0.0,0,0,15677,,,,,,82.0,,,,,2.0,,,,,,,,,,,,,,,,,,,,,,,,,,,97.5,1.0,,,,,,
426,,iti,,html-keyboard-response,426,571582,0.0-1.0-84.0-0.0-5.0,0,0,15677,,,,,,82.0,,,,,2.0,,,,,,,,,,,,,,,,,,,,,,,,,,,101.0,3.5,,,,,,
427,,choice,,html-keyboard-response,427,572510,0.0-1.0-85.0-0.0-0.0,0,0,15677,,924.0,,,68.0,83.0,83.0,3500.0,3000.0,0.0,2.0,0.0,20-60,,0.0,telescope,hammer,20.0,60.0,telescope10,hammer1,40.0,60.0,digimarc.ms02.jpg,fosnaugh.hammer.jpg,/static/Category_learning/Stimuli/Experimental_stims/telescope/digimarc.ms02.jpg,/static/Category_learning/Stimuli/Experimental_stims/hammer/fosnaugh.hammer.jpg,1.0,telescope,hammer,20.0,60.0,telescope10,hammer1,40.0,60.0,0.0,101.924,0.924,,,,,,
428,,confirmation,,html-keyboard-response,428,573090,0.0-1.0-85.0-0.0-1.0-0.0,0,0,15677,,,,,,83.0,,,,,2.0,,,,,,,,,,,,,,,,,,,,,,,,,,,102.5,0.576,,,,,,
429,,isi,,html-keyboard-response,429,576593,0.0-1.0-85.0-0.0-2.0,0,0,15677,,,,,,83.0,,,,,2.0,,,,,,,,,,,,,,,,,,,,,,,,,,,106.0,3.5,,,,,,
430,,feedback,,html-keyboard-response,430,577597,0.0-1.0-85.0-0.0-3.0-0.0,0,0,15677,,,,,,83.0,,,,,2.0,,,,,,,,,,,,,,,,,,,,,,,,,,,107.0,1.0,,,,,,
431,,iti,,html-keyboard-response,431,580601,0.0-1.0-85.0-0.0-5.0,0,0,15677,,,,,,83.0,,,,,2.0,,,,,,,,,,,,,,,,,,,,,,,,,,,110.0,3.0,,,,,,
432,,choice,,html-keyboard-response,432,581376,0.0-1.0-86.0-0.0-0.0,0,0,15677,,769.0,,,75.0,84.0,84.0,1000.0,1500.0,0.0,2.0,0.0,20-80,,1.0,small table,trumpet,80.0,20.0,small table14,trumpet4,100.0,0.0,Awoodtable13.jpg,JUPITER+JTR1000S.jpg,/static/Category_learning/Stimuli/Experimental_stims/small table/Awoodtable13.jpg,/static/Category_learning/Stimuli/Experimental_stims/trumpet/JUPITER+JTR1000S.jpg,0.0,trumpet,small table,20.0,80.0,trumpet4,small table14,0.0,100.0,0.0,110.769,0.769,,,,,,
433,,confirmation,,html-keyboard-response,433,582111,0.0-1.0-86.0-0.0-1.0-0.0,0,0,15677,,,,,,84.0,,,,,2.0,,,,,,,,,,,,,,,,,,,,,,,,,,,111.5,0.731,,,,,,
434,,isi,,html-keyboard-response,434,583113,0.0-1.0-86.0-0.0-2.0,0,0,15677,,,,,,84.0,,,,,2.0,,,,,,,,,,,,,,,,,,,,,,,,,,,112.5,1.0,,,,,,
435,,feedback,,html-keyboard-response,435,584118,0.0-1.0-86.0-0.0-3.0-0.0,0,0,15677,,,,,,84.0,,,,,2.0,,,,,,,,,,,,,,,,,,,,,,,,,,,113.5,1.0,,,,,,
436,,iti,,html-keyboard-response,436,585621,0.0-1.0-86.0-0.0-5.0,0,0,15677,,,,,,84.0,,,,,2.0,,,,,,,,,,,,,,,,,,,,,,,,,,,115.0,1.5,,,,,,
437,,choice,,html-keyboard-response,437,586784,0.0-1.0-87.0-0.0-0.0,0,0,15677,,1159.0,,,75.0,85.0,85.0,1500.0,3000.0,0.0,2.0,0.0,40-40,,,baby carriage,flashlight,40.0,40.0,baby carriage15,flashlight14,40.0,40.0,AANBABYC2.jpg,freeplay-jonta-flashlight.jpg,/static/Category_learning/Stimuli/Experimental_stims/baby carriage/AANBABYC2.jpg,/static/Category_learning/Stimuli/Experimental_stims/flashlight/freeplay-jonta-flashlight.jpg,0.0,flashlight,baby carriage,40.0,40.0,flashlight14,baby carriage15,40.0,40.0,0.0,116.159,1.159,,,,,,
438,,confirmation,,html-keyboard-response,438,587129,0.0-1.0-87.0-0.0-1.0-0.0,0,0,15677,,,,,,85.0,,,,,2.0,,,,,,,,,,,,,,,,,,,,,,,,,,,116.5,0.341,,,,,,
439,,isi,,html-keyboard-response,439,588633,0.0-1.0-87.0-0.0-2.0,0,0,15677,,,,,,85.0,,,,,2.0,,,,,,,,,,,,,,,,,,,,,,,,,,,118.0,1.5,,,,,,
440,,feedback,,html-keyboard-response,440,589637,0.0-1.0-87.0-0.0-3.0-0.0,0,0,15677,,,,,,85.0,,,,,2.0,,,,,,,,,,,,,,,,,,,,,,,,,,,119.0,1.0,,,,,,
441,,iti,,html-keyboard-response,441,592640,0.0-1.0-87.0-0.0-5.0,0,0,15677,,,,,,85.0,,,,,2.0,,,,,,,,,,,,,,,,,,,,,,,,,,,122.0,3.0,,,,,,
442,,choice,,html-keyboard-response,442,593873,0.0-1.0-88.0-0.0-0.0,0,0,15677,,1227.0,,,68.0,86.0,86.0,2000.0,1000.0,0.0,2.0,1.0,20-20,1.0,,trumpet,trumpet,20.0,20.0,trumpet12,trumpet4,40.0,0.0,hornabariton.jpg,JUPITER+JTR1000S.jpg,/static/Category_learning/Stimuli/Experimental_stims/trumpet/hornabariton.jpg,/static/Category_learning/Stimuli/Experimental_stims/trumpet/JUPITER+JTR1000S.jpg,1.0,trumpet,trumpet,20.0,20.0,trumpet12,trumpet4,40.0,0.0,0.0,123.227,1.227,,,,,,
443,,confirmation,,html-keyboard-response,443,594149,0.0-1.0-88.0-0.0-1.0-0.0,0,0,15677,,,,,,86.0,,,,,2.0,,,,,,,,,,,,,,,,,,,,,,,,,,,123.5,0.273,,,,,,
444,,isi,,html-keyboard-response,444,596152,0.0-1.0-88.0-0.0-2.0,0,0,15677,,,,,,86.0,,,,,2.0,,,,,,,,,,,,,,,,,,,,,,,,,,,125.5,2.0,,,,,,
445,,feedback,,html-keyboard-response,445,597157,0.0-1.0-88.0-0.0-3.0-0.0,0,0,15677,,,,,,86.0,,,,,2.0,,,,,,,,,,,,,,,,,,,,,,,,,,,126.5,1.0,,,,,,
446,,iti,,html-keyboard-response,446,598160,0.0-1.0-88.0-0.0-5.0,0,0,15677,,,,,,86.0,,,,,2.0,,,,,,,,,,,,,,,,,,,,,,,,,,,127.5,1.0,,,,,,
447,,choice,,html-keyboard-response,447,599026,0.0-1.0-89.0-0.0-0.0,0,0,15677,,862.0,,,68.0,87.0,87.0,2000.0,1000.0,0.0,2.0,1.0,80-80,1.0,,patio lounge chair,patio lounge chair,80.0,80.0,patio lounge chair11,patio lounge chair3,100.0,60.0,51830.jpg,Lounge_Chair.jpg,/static/Category_learning/Stimuli/Experimental_stims/patio lounge chair/51830.jpg,/static/Category_learning/Stimuli/Experimental_stims/patio lounge chair/Lounge_Chair.jpg,1.0,patio lounge chair,patio lounge chair,80.0,80.0,patio lounge chair11,patio lounge chair3,100.0,60.0,0.0,128.362,0.862,,,,,,
448,,confirmation,,html-keyboard-response,448,599667,0.0-1.0-89.0-0.0-1.0-0.0,0,0,15677,,,,,,87.0,,,,,2.0,,,,,,,,,,,,,,,,,,,,,,,,,,,129.0,0.638,,,,,,
449,,isi,,html-keyboard-response,449,601670,0.0-1.0-89.0-0.0-2.0,0,0,15677,,,,,,87.0,,,,,2.0,,,,,,,,,,,,,,,,,,,,,,,,,,,131.0,2.0,,,,,,
450,,feedback,,html-keyboard-response,450,602673,0.0-1.0-89.0-0.0-3.0-0.0,0,0,15677,,,,,,87.0,,,,,2.0,,,,,,,,,,,,,,,,,,,,,,,,,,,132.0,1.0,,,,,,
451,,iti,,html-keyboard-response,451,603677,0.0-1.0-89.0-0.0-5.0,0,0,15677,,,,,,87.0,,,,,2.0,,,,,,,,,,,,,,,,,,,,,,,,,,,133.0,1.0,,,,,,
452,,choice,,html-keyboard-response,452,604795,0.0-1.0-90.0-0.0-0.0,0,0,15677,,1115.0,,,68.0,88.0,88.0,3000.0,1000.0,0.0,2.0,0.0,40-60,,1.0,motorcycle,baby carriage,60.0,40.0,motorcycle8,baby carriage6,80.0,20.0,Motorcycle903425j2.jpg,Baby_Stroller-1.jpg,/static/Category_learning/Stimuli/Experimental_stims/motorcycle/Motorcycle903425j2.jpg,/static/Category_learning/Stimuli/Experimental_stims/baby carriage/Baby_Stroller-1.jpg,1.0,motorcycle,baby carriage,60.0,40.0,motorcycle8,baby carriage6,80.0,20.0,0.0,134.115,1.115,,,,,,
453,,confirmation,,html-keyboard-response,453,605184,0.0-1.0-90.0-0.0-1.0-0.0,0,0,15677,,,,,,88.0,,,,,2.0,,,,,,,,,,,,,,,,,,,,,,,,,,,134.5,0.385,,,,,,
454,,isi,,html-keyboard-response,454,608187,0.0-1.0-90.0-0.0-2.0,0,0,15677,,,,,,88.0,,,,,2.0,,,,,,,,,,,,,,,,,,,,,,,,,,,137.5,3.0,,,,,,
455,,feedback,,html-keyboard-response,455,609191,0.0-1.0-90.0-0.0-3.0-0.0,0,0,15677,,,,,,88.0,,,,,2.0,,,,,,,,,,,,,,,,,,,,,,,,,,,138.5,1.0,,,,,,
456,,iti,,html-keyboard-response,456,610194,0.0-1.0-90.0-0.0-5.0,0,0,15677,,,,,,88.0,,,,,2.0,,,,,,,,,,,,,,,,,,,,,,,,,,,139.5,1.0,,,,,,
457,,choice,,html-keyboard-response,457,611140,0.0-1.0-91.0-0.0-0.0,0,0,15677,,942.0,,,68.0,89.0,89.0,1000.0,1500.0,0.0,2.0,0.0,20-80,,1.0,pen,tent,80.0,20.0,pen9,tent4,60.0,20.0,Aredpen3.jpg,Atent12.jpg,/static/Category_learning/Stimuli/Experimental_stims/pen/Aredpen3.jpg,/static/Category_learning/Stimuli/Experimental_stims/tent/Atent12.jpg,1.0,pen,tent,80.0,20.0,pen9,tent4,60.0,20.0,0.0,140.442,0.942,,,,,,
458,,confirmation,,html-keyboard-response,458,611702,0.0-1.0-91.0-0.0-1.0-0.0,0,0,15677,,,,,,89.0,,,,,2.0,,,,,,,,,,,,,,,,,,,,,,,,,,,141.0,0.558,,,,,,
459,,isi,,html-keyboard-response,459,612704,0.0-1.0-91.0-0.0-2.0,0,0,15677,,,,,,89.0,,,,,2.0,,,,,,,,,,,,,,,,,,,,,,,,,,,142.0,1.0,,,,,,
460,,feedback,,html-keyboard-response,460,613709,0.0-1.0-91.0-0.0-3.0-0.0,0,0,15677,,,,,,89.0,,,,,2.0,,,,,,,,,,,,,,,,,,,,,,,,,,,143.0,1.0,,,,,,
461,,iti,,html-keyboard-response,461,615213,0.0-1.0-91.0-0.0-5.0,0,0,15677,,,,,,89.0,,,,,2.0,,,,,,,,,,,,,,,,,,,,,,,,,,,144.5,1.5,,,,,,
462,,choice,,html-keyboard-response,462,616285,0.0-1.0-92.0-0.0-0.0,0,0,15677,,1068.0,,,75.0,90.0,90.0,2000.0,1000.0,0.0,2.0,0.0,20-40,,1.0,bongo,yarn,40.0,20.0,bongo7,yarn6,20.0,20.0,26461075.thl.jpg,edwardian moment hpy sml.jpg,/static/Category_learning/Stimuli/Experimental_stims/bongo/26461075.thl.jpg,/static/Category_learning/Stimuli/Experimental_stims/yarn/edwardian moment hpy sml.jpg,0.0,yarn,bongo,20.0,40.0,yarn6,bongo7,20.0,20.0,0.0,145.568,1.068,,,,,,
463,,confirmation,,html-keyboard-response,463,616720,0.0-1.0-92.0-0.0-1.0-0.0,0,0,15677,,,,,,90.0,,,,,2.0,,,,,,,,,,,,,,,,,,,,,,,,,,,146.0,0.432,,,,,,
464,,isi,,html-keyboard-response,464,618723,0.0-1.0-92.0-0.0-2.0,0,0,15677,,,,,,90.0,,,,,2.0,,,,,,,,,,,,,,,,,,,,,,,,,,,148.0,2.0,,,,,,
465,,feedback,,html-keyboard-response,465,619728,0.0-1.0-92.0-0.0-3.0-0.0,0,0,15677,,,,,,90.0,,,,,2.0,,,,,,,,,,,,,,,,,,,,,,,,,,,149.0,1.0,,,,,,
466,,iti,,html-keyboard-response,466,620731,0.0-1.0-92.0-0.0-5.0,0,0,15677,,,,,,90.0,,,,,2.0,,,,,,,,,,,,,,,,,,,,,,,,,,,150.0,1.0,,,,,,
467,,choice,,html-keyboard-response,467,621796,0.0-1.0-93.0-0.0-0.0,0,0,15677,,1060.0,,,68.0,91.0,91.0,3500.0,1000.0,0.0,2.0,0.0,40-40,,,desk,bongo,40.0,40.0,desk2,bongo15,60.0,40.0,AA Luffield Radial crescent Desk 1600mm x 1200mm.jpg,26390728.thl.jpg,/static/Category_learning/Stimuli/Experimental_stims/desk/AA Luffield Radial crescent Desk 1600mm x 1200mm.jpg,/static/Category_learning/Stimuli/Experimental_stims/bongo/26390728.thl.jpg,1.0,desk,bongo,40.0,40.0,desk2,bongo15,60.0,40.0,0.0,151.06,1.06,,,,,,
468,,confirmation,,html-keyboard-response,468,622239,0.0-1.0-93.0-0.0-1.0-0.0,0,0,15677,,,,,,91.0,,,,,2.0,,,,,,,,,,,,,,,,,,,,,,,,,,,151.5,0.44,,,,,,
469,,isi,,html-keyboard-response,469,625743,0.0-1.0-93.0-0.0-2.0,0,0,15677,,,,,,91.0,,,,,2.0,,,,,,,,,,,,,,,,,,,,,,,,,,,155.0,3.5,,,,,,
470,,feedback,,html-keyboard-response,470,626747,0.0-1.0-93.0-0.0-3.0-0.0,0,0,15677,,,,,,91.0,,,,,2.0,,,,,,,,,,,,,,,,,,,,,,,,,,,156.0,1.0,,,,,,
471,,iti,,html-keyboard-response,471,627751,0.0-1.0-93.0-0.0-5.0,0,0,15677,,,,,,91.0,,,,,2.0,,,,,,,,,,,,,,,,,,,,,,,,,,,157.0,1.0,,,,,,
472,,choice,,html-keyboard-response,472,628798,0.0-1.0-94.0-0.0-0.0,0,0,15677,,1041.0,,,68.0,92.0,92.0,1500.0,1000.0,0.0,2.0,1.0,20-20,1.0,,yarn,yarn,20.0,20.0,yarn2,yarn6,20.0,20.0,Aballofyarn66.jpg,edwardian moment hpy sml.jpg,/static/Category_learning/Stimuli/Experimental_stims/yarn/Aballofyarn66.jpg,/static/Category_learning/Stimuli/Experimental_stims/yarn/edwardian moment hpy sml.jpg,1.0,yarn,yarn,20.0,20.0,yarn2,yarn6,20.0,20.0,0.0,158.041,1.041,,,,,,
473,,confirmation,,html-keyboard-response,473,629260,0.0-1.0-94.0-0.0-1.0-0.0,0,0,15677,,,,,,92.0,,,,,2.0,,,,,,,,,,,,,,,,,,,,,,,,,,,158.5,0.459,,,,,,
474,,isi,,html-keyboard-response,474,630764,0.0-1.0-94.0-0.0-2.0,0,0,15677,,,,,,92.0,,,,,2.0,,,,,,,,,,,,,,,,,,,,,,,,,,,160.0,1.5,,,,,,
475,,feedback,,html-keyboard-response,475,631767,0.0-1.0-94.0-0.0-3.0-0.0,0,0,15677,,,,,,92.0,,,,,2.0,,,,,,,,,,,,,,,,,,,,,,,,,,,161.0,1.0,,,,,,
476,,iti,,html-keyboard-response,476,632770,0.0-1.0-94.0-0.0-5.0,0,0,15677,,,,,,92.0,,,,,2.0,,,,,,,,,,,,,,,,,,,,,,,,,,,162.0,1.0,,,,,,
477,,choice,,html-keyboard-response,477,633879,0.0-1.0-95.0-0.0-0.0,0,0,15677,,1103.0,,,75.0,93.0,93.0,3000.0,2000.0,0.0,2.0,1.0,80-80,1.0,,pen,pen,80.0,80.0,pen9,pen10,60.0,100.0,Aredpen3.jpg,VP-Raden-FP-L copy.jpg,/static/Category_learning/Stimuli/Experimental_stims/pen/Aredpen3.jpg,/static/Category_learning/Stimuli/Experimental_stims/pen/VP-Raden-FP-L copy.jpg,0.0,pen,pen,80.0,80.0,pen10,pen9,100.0,60.0,0.0,163.103,1.103,,,,,,
