,success,ttype,start_time,trial_type,trial_index,time_elapsed,internal_node_id,warning,missed_checkup,PID,view_history,rt,responses,repeat_instructions,key_press,index,trial_num,isi,iti,is_practice,block,old_trial,pair_type,within_category,high_cat_on_left,left_category,right_category,left_category_value,right_category_value,left_exemplar,right_exemplar,left_exemplar_value,right_exemplar_value,left_img,right_img,left_img_path,right_img_path,left_chosen,chosen_category,unchosen_category,chosen_category_value,unchosen_category_value,chosen_exemplar,unchosen_exemplar,chosen_exemplar_value,unchosen_exemplar_value,no_response,onset,duration,end_practice,total_bonus_tally,category,category_group_value,category_value_response,did_not_enter_response
0,True,full_screen,d06042022hr0125,fullscreen,0,10418,0.0-0.0,0,0,26705,,,,,,,,,,,,,,,,,,,,,,,,,,,,,,,,,,,,,,,,,,,,,
1,,category_learning_instructions,,instructions,1,98582,0.0-1.0-0.0-0.0,0,0,26705,"[{""page_index"":0,""viewing_time"":36225},{""page_index"":1,""viewing_time"":9919},{""page_index"":2,""viewing_time"":7153},{""page_index"":3,""viewing_time"":7806},{""page_index"":4,""viewing_time"":10775},{""page_index"":5,""viewing_time"":7447},{""page_index"":6,""viewing_time"":8824}]",88150.0,,,,,,,,,,,,,,,,,,,,,,,,,,,,,,,,,,,,,,,,,,,
2,,category_learning_comprehension_check,,survey-multi-choice,2,323295,0.0-1.0-0.0-1.0,0,0,26705,,224679.0,"{""Q0"":""True"",""Q1"":""True"",""Q2"":""Stay the same"",""Q3"":""D for left and K for right""}",0.0,,,,,,,,,,,,,,,,,,,,,,,,,,,,,,,,,,,,,,,,,
3,,,,html-keyboard-response,3,325767,0.0-1.0-1.0,0,0,26705,,2447.0,,,68.0,,,,,,,,,,,,,,,,,,,,,,,,,,,,,,,,,,,,,,,,
4,,choice,,html-keyboard-response,4,326607,0.0-1.0-2.0-0.0-0.0,0,0,26705,,801.0,,,68.0,0.0,0.0,1500.0,1000.0,1.0,0.0,0.0,20-80,,0.0,bagel,dumbbell,20.0,80.0,bagel1,dumbbell1,0.0,80.0,bagels_pumpernickel_large.jpg,31B64EN68AL._AA280_.jpg,/static/Category_learning/Stimuli/Practice_stims/bagel/bagels_pumpernickel_large.jpg,/static/Category_learning/Stimuli/Practice_stims/dumbbell/31B64EN68AL._AA280_.jpg,1.0,bagel,dumbbell,20.0,80.0,bagel1,dumbbell1,0.0,80.0,0.0,0.801,0.801,,,,,,
5,,confirmation,,html-keyboard-response,5,327320,0.0-1.0-2.0-0.0-1.0-0.0,0,0,26705,,,,,,0.0,,,,,,,,,,,,,,,,,,,,,,,,,,,,,,,,1.5,0.699,,,,,,
6,,isi,,html-keyboard-response,6,328839,0.0-1.0-2.0-0.0-2.0,0,0,26705,,,,,,,,,,,,,,,,,,,,,,,,,,,,,,,,,,,,,,3.0,1.5,,,,,,
7,,feedback,,html-keyboard-response,7,329858,0.0-1.0-2.0-0.0-3.0-0.0,0,0,26705,,,,,,0.0,,,,,,,,,,,,,,,,,,,,,,,,,,,,,,,,4.0,1.0,,,,,,
8,,iti,,html-keyboard-response,8,330878,0.0-1.0-2.0-0.0-5.0,0,0,26705,,,,,,,,,,,,,,,,,,,,,,,,,,,,,,,,,,,,,,5.0,1.0,,,,,,
9,,choice,,html-keyboard-response,9,332244,0.0-1.0-3.0-0.0-0.0,0,0,26705,,1351.0,,,68.0,1.0,1.0,3000.0,1500.0,1.0,0.0,0.0,20-40,,1.0,calculator,bagel,40.0,20.0,calculator2,bagel2,20.0,20.0,22829064.thl.jpg,bagels_cinnraisin_large.jpg,/static/Category_learning/Stimuli/Practice_stims/calculator/22829064.thl.jpg,/static/Category_learning/Stimuli/Practice_stims/bagel/bagels_cinnraisin_large.jpg,1.0,calculator,bagel,40.0,20.0,calculator2,bagel2,20.0,20.0,0.0,6.351,1.351,,,,,,
10,,confirmation,,html-keyboard-response,10,332419,0.0-1.0-3.0-0.0-1.0-0.0,0,0,26705,,,,,,1.0,,,,,,,,,,,,,,,,,,,,,,,,,,,,,,,,6.5,0.149,,,,,,
11,,isi,,html-keyboard-response,11,335431,0.0-1.0-3.0-0.0-2.0,0,0,26705,,,,,,,,,,,,,,,,,,,,,,,,,,,,,,,,,,,,,,9.5,3.0,,,,,,
12,,feedback,,html-keyboard-response,12,336458,0.0-1.0-3.0-0.0-3.0-0.0,0,0,26705,,,,,,1.0,,,,,,,,,,,,,,,,,,,,,,,,,,,,,,,,10.5,1.0,,,,,,
13,,iti,,html-keyboard-response,13,337969,0.0-1.0-3.0-0.0-5.0,0,0,26705,,,,,,,,,,,,,,,,,,,,,,,,,,,,,,,,,,,,,,12.0,1.5,,,,,,
14,,choice,,html-keyboard-response,14,339177,0.0-1.0-4.0-0.0-0.0,0,0,26705,,1195.0,,,75.0,2.0,2.0,2000.0,3000.0,1.0,0.0,0.0,60-80,,0.0,clock,dumbbell,60.0,80.0,clock2,dumbbell2,60.0,100.0,26373355.thl.jpg,31K8MR6TMBL._SS500_.jpg,/static/Category_learning/Stimuli/Practice_stims/clock/26373355.thl.jpg,/static/Category_learning/Stimuli/Practice_stims/dumbbell/31K8MR6TMBL._SS500_.jpg,0.0,dumbbell,clock,80.0,60.0,dumbbell2,clock2,100.0,60.0,0.0,13.195,1.195,,,,,,
15,,confirmation,,html-keyboard-response,15,339501,0.0-1.0-4.0-0.0-1.0-0.0,0,0,26705,,,,,,2.0,,,,,,,,,,,,,,,,,,,,,,,,,,,,,,,,13.5,0.305,,,,,,
16,,isi,,html-keyboard-response,16,341517,0.0-1.0-4.0-0.0-2.0,0,0,26705,,,,,,,,,,,,,,,,,,,,,,,,,,,,,,,,,,,,,,15.5,2.0,,,,,,
17,,feedback,,html-keyboard-response,17,342528,0.0-1.0-4.0-0.0-3.0-0.0,0,0,26705,,,,,,2.0,,,,,,,,,,,,,,,,,,,,,,,,,,,,,,,,16.5,1.0,,,,,,
18,,iti,,html-keyboard-response,18,345550,0.0-1.0-4.0-0.0-5.0,0,0,26705,,,,,,,,,,,,,,,,,,,,,,,,,,,,,,,,,,,,,,19.5,3.0,,,,,,
19,,choice,,html-keyboard-response,19,347071,0.0-1.0-5.0-0.0-0.0,0,0,26705,,,,,,3.0,3.0,1000.0,2000.0,1.0,0.0,0.0,40-80,,0.0,calculator,clock,40.0,60.0,calculator1,clock1,40.0,40.0,22829184.thl.jpg,Aalarmclock2.jpg,/static/Category_learning/Stimuli/Practice_stims/calculator/22829184.thl.jpg,/static/Category_learning/Stimuli/Practice_stims/clock/Aalarmclock2.jpg,,,,,,,,,,1.0,21.0,1.5,,,,,,
20,,isi,,html-keyboard-response,20,348083,0.0-1.0-5.0-0.0-2.0,0,0,26705,,,,,,,,,,,,,,,,,,,,,,,,,,,,,,,,,,,,,,22.0,1.0,,,,,,
21,,no_response,,html-keyboard-response,21,349098,0.0-1.0-5.0-0.0-4.0-0.0,0,0,26705,,,,,,,,,,,,,,,,,,,,,,,,,,,,,,,,,,,,,,23.0,1.0,,,,,,
22,,iti,,html-keyboard-response,22,351107,0.0-1.0-5.0-0.0-5.0,0,0,26705,,,,,,,,,,,,,,,,,,,,,,,,,,,,,,,,,,,,,,25.0,2.0,,,,,,
23,,choice,,html-keyboard-response,23,351468,0.0-1.0-5.0-0.1-0.1,0,0,26705,,350.0,,,75.0,3.0,3.0,1000.0,2000.0,1.0,0.0,0.0,40-80,,0.0,calculator,clock,40.0,60.0,calculator1,clock1,40.0,40.0,22829184.thl.jpg,Aalarmclock2.jpg,/static/Category_learning/Stimuli/Practice_stims/calculator/22829184.thl.jpg,/static/Category_learning/Stimuli/Practice_stims/clock/Aalarmclock2.jpg,0.0,clock,calculator,60.0,40.0,clock1,calculator1,40.0,40.0,0.0,25.35,0.35,,,,,,
24,,confirmation,,html-keyboard-response,24,352631,0.0-1.0-5.0-0.1-1.1-0.1,0,0,26705,,,,,,3.0,,,,,,,,,,,,,,,,,,,,,,,,,,,,,,,,26.5,1.15,,,,,,
25,,isi,,html-keyboard-response,25,353647,0.0-1.0-5.0-0.1-2.1,0,0,26705,,,,,,,,,,,,,,,,,,,,,,,,,,,,,,,,,,,,,,27.5,1.0,,,,,,
26,,feedback,,html-keyboard-response,26,354663,0.0-1.0-5.0-0.1-3.1-0.1,0,0,26705,,,,,,3.0,,,,,,,,,,,,,,,,,,,,,,,,,,,,,,,,28.5,1.0,,,,,,
27,,iti,,html-keyboard-response,27,356684,0.0-1.0-5.0-0.1-5.1,0,0,26705,,,,,,,,,,,,,,,,,,,,,,,,,,,,,,,,,,,,,,30.5,2.0,,,,,,
28,,choice,,html-keyboard-response,28,357409,0.0-1.0-6.0-0.0-0.0,0,0,26705,,715.0,,,68.0,4.0,4.0,2500.0,2500.0,1.0,0.0,0.0,20-60,,1.0,dumbbell,bagel,80.0,20.0,dumbbell3,bagel3,100.0,40.0,41K7QVRX50L._SS500_.jpg,photo-169.jpg,/static/Category_learning/Stimuli/Practice_stims/dumbbell/41K7QVRX50L._SS500_.jpg,/static/Category_learning/Stimuli/Practice_stims/bagel/photo-169.jpg,1.0,dumbbell,bagel,80.0,20.0,dumbbell3,bagel3,100.0,40.0,0.0,31.215,0.715,1.0,,,,,
29,,confirmation,,html-keyboard-response,29,358208,0.0-1.0-6.0-0.0-1.0-0.0,0,0,26705,,,,,,4.0,,,,,,,,,,,,,,,,,,,,,,,,,,,,,,,,32.0,0.785,,,,,,
30,,isi,,html-keyboard-response,30,360718,0.0-1.0-6.0-0.0-2.0,0,0,26705,,,,,,,,,,,,,,,,,,,,,,,,,,,,,,,,,,,,,,34.5,2.5,,,,,,
31,,feedback,,html-keyboard-response,31,361738,0.0-1.0-6.0-0.0-3.0-0.0,0,0,26705,,,,,,4.0,,,,,,,,,,,,,,,,,,,,,,,,,,,,,,,,35.5,1.0,,,,,,
32,,iti,,html-keyboard-response,32,364247,0.0-1.0-6.0-0.0-5.0,0,0,26705,,,,,,,,,,,,,,,,,,,,,,,,,,,,,,,,,,,,,,38.0,2.5,,,,,,
33,,practice_over,,html-keyboard-response,33,366758,0.0-1.0-6.0-0.0-6.0-0.0,0,0,26705,,2503.0,,,68.0,4.0,,,,,,,,,,,,,,,,,,,,,,,,,,,,,,,,,,,,,,,
34,,start_run,,html-keyboard-response,34,368518,0.0-1.0-6.0-0.0-6.0-1.0,0,0,26705,,1751.0,,,84.0,,,,,,,,,,,,,,,,,,,,,,,,,,,,,,,,,,,,,,,,
35,,choice,,html-keyboard-response,35,369521,0.0-1.0-7.0-0.0-0.0,0,0,26705,,990.0,,,68.0,5.0,5.0,1000.0,1500.0,0.0,1.0,0.0,40-40,,,door knob,desk,40.0,40.0,door knob15,desk9,60.0,20.0,Legacy_oval.jpg,desk 189dr96dr chr.jpg,/static/Category_learning/Stimuli/Experimental_stims/door knob/Legacy_oval.jpg,/static/Category_learning/Stimuli/Experimental_stims/desk/desk 189dr96dr chr.jpg,1.0,door knob,desk,40.0,40.0,door knob15,desk9,60.0,20.0,0.0,0.99,0.99,,,,,,
36,,confirmation,,html-keyboard-response,36,370054,0.0-1.0-7.0-0.0-1.0-0.0,0,0,26705,,,,,,5.0,,,,,,,,,,,,,,,,,,,,,,,,,,,,,,,,1.5,0.51,,,,,,
37,,isi,,html-keyboard-response,37,371064,0.0-1.0-7.0-0.0-2.0,0,0,26705,,,,,,,,,,,,,,,,,,,,,,,,,,,,,,,,,,,,,,2.5,1.0,,,,,,
38,,feedback,,html-keyboard-response,38,372078,0.0-1.0-7.0-0.0-3.0-0.0,0,0,26705,,,,,,5.0,,,,,,,,,,,,,,,,,,,,,,,,,,,,,,,,3.5,1.0,,,,,,
39,,iti,,html-keyboard-response,39,373600,0.0-1.0-7.0-0.0-5.0,0,0,26705,,,,,,,,,,,,,,,,,,,,,,,,,,,,,,,,,,,,,,5.0,1.5,,,,,,
40,,choice,,html-keyboard-response,40,374476,0.0-1.0-8.0-0.0-0.0,0,0,26705,,865.0,,,75.0,6.0,6.0,1500.0,2000.0,0.0,1.0,0.0,40-80,,1.0,pen,door knob,80.0,40.0,pen12,door knob7,100.0,20.0,pen02.jpg,doorknob2.jpg,/static/Category_learning/Stimuli/Experimental_stims/pen/pen02.jpg,/static/Category_learning/Stimuli/Experimental_stims/door knob/doorknob2.jpg,0.0,door knob,pen,40.0,80.0,door knob7,pen12,20.0,100.0,0.0,5.865,0.865,,,,,,
41,,confirmation,,html-keyboard-response,41,375138,0.0-1.0-8.0-0.0-1.0-0.0,0,0,26705,,,,,,6.0,,,,,,,,,,,,,,,,,,,,,,,,,,,,,,,,6.5,0.635,,,,,,
42,,isi,,html-keyboard-response,42,376653,0.0-1.0-8.0-0.0-2.0,0,0,26705,,,,,,,,,,,,,,,,,,,,,,,,,,,,,,,,,,,,,,8.0,1.5,,,,,,
43,,feedback,,html-keyboard-response,43,377718,0.0-1.0-8.0-0.0-3.0-0.0,0,0,26705,,,,,,6.0,,,,,,,,,,,,,,,,,,,,,,,,,,,,,,,,9.0,1.0,,,,,,
44,,iti,,html-keyboard-response,44,379732,0.0-1.0-8.0-0.0-5.0,0,0,26705,,,,,,,,,,,,,,,,,,,,,,,,,,,,,,,,,,,,,,11.0,2.0,,,,,,
45,,choice,,html-keyboard-response,45,380315,0.0-1.0-9.0-0.0-0.0,0,0,26705,,571.0,,,68.0,7.0,7.0,1000.0,1500.0,0.0,1.0,0.0,80-80,,,seashell,pen,80.0,80.0,seashell3,pen3,80.0,80.0,coquillage.jpg,pen08.jpg,/static/Category_learning/Stimuli/Experimental_stims/seashell/coquillage.jpg,/static/Category_learning/Stimuli/Experimental_stims/pen/pen08.jpg,1.0,seashell,pen,80.0,80.0,seashell3,pen3,80.0,80.0,0.0,11.571,0.571,,,,,,
46,,confirmation,,html-keyboard-response,46,381258,0.0-1.0-9.0-0.0-1.0-0.0,0,0,26705,,,,,,7.0,,,,,,,,,,,,,,,,,,,,,,,,,,,,,,,,12.5,0.929,,,,,,
47,,isi,,html-keyboard-response,47,382273,0.0-1.0-9.0-0.0-2.0,0,0,26705,,,,,,,,,,,,,,,,,,,,,,,,,,,,,,,,,,,,,,13.5,1.0,,,,,,
48,,feedback,,html-keyboard-response,48,383282,0.0-1.0-9.0-0.0-3.0-0.0,0,0,26705,,,,,,7.0,,,,,,,,,,,,,,,,,,,,,,,,,,,,,,,,14.5,1.0,,,,,,
49,,iti,,html-keyboard-response,49,384802,0.0-1.0-9.0-0.0-5.0,0,0,26705,,,,,,,,,,,,,,,,,,,,,,,,,,,,,,,,,,,,,,16.0,1.5,,,,,,
50,,choice,,html-keyboard-response,50,385628,0.0-1.0-10.0-0.0-0.0,0,0,26705,,809.0,,,68.0,8.0,8.0,1000.0,2000.0,0.0,1.0,0.0,60-60,,,lipstick,key chain,60.0,60.0,lipstick10,key chain1,60.0,80.0,21K0D7QKFAL._SS500_.jpg,jm05s16.jpg,/static/Category_learning/Stimuli/Experimental_stims/lipstick/21K0D7QKFAL._SS500_.jpg,/static/Category_learning/Stimuli/Experimental_stims/key chain/jm05s16.jpg,1.0,lipstick,key chain,60.0,60.0,lipstick10,key chain1,60.0,80.0,0.0,16.809,0.809,,,,,,
51,,confirmation,,html-keyboard-response,51,386336,0.0-1.0-10.0-0.0-1.0-0.0,0,0,26705,,,,,,8.0,,,,,,,,,,,,,,,,,,,,,,,,,,,,,,,,17.5,0.691,,,,,,
52,,isi,,html-keyboard-response,52,387344,0.0-1.0-10.0-0.0-2.0,0,0,26705,,,,,,,,,,,,,,,,,,,,,,,,,,,,,,,,,,,,,,18.5,1.0,,,,,,
53,,feedback,,html-keyboard-response,53,388363,0.0-1.0-10.0-0.0-3.0-0.0,0,0,26705,,,,,,8.0,,,,,,,,,,,,,,,,,,,,,,,,,,,,,,,,19.5,1.0,,,,,,
54,,iti,,html-keyboard-response,54,390387,0.0-1.0-10.0-0.0-5.0,0,0,26705,,,,,,,,,,,,,,,,,,,,,,,,,,,,,,,,,,,,,,21.5,2.0,,,,,,
55,,choice,,html-keyboard-response,55,391104,0.0-1.0-11.0-0.0-0.0,0,0,26705,,706.0,,,68.0,9.0,9.0,3000.0,1500.0,0.0,1.0,0.0,60-80,,0.0,makeup compact,patio lounge chair,60.0,80.0,makeup compact4,patio lounge chair15,40.0,60.0,262668_fpx.jpg,phpThumb.jpg,/static/Category_learning/Stimuli/Experimental_stims/makeup compact/262668_fpx.jpg,/static/Category_learning/Stimuli/Experimental_stims/patio lounge chair/phpThumb.jpg,1.0,makeup compact,patio lounge chair,60.0,80.0,makeup compact4,patio lounge chair15,40.0,60.0,0.0,22.206,0.706,,,,,,
56,,confirmation,,html-keyboard-response,56,391926,0.0-1.0-11.0-0.0-1.0-0.0,0,0,26705,,,,,,9.0,,,,,,,,,,,,,,,,,,,,,,,,,,,,,,,,23.0,0.794,,,,,,
57,,isi,,html-keyboard-response,57,394938,0.0-1.0-11.0-0.0-2.0,0,0,26705,,,,,,,,,,,,,,,,,,,,,,,,,,,,,,,,,,,,,,26.0,3.0,,,,,,
58,,feedback,,html-keyboard-response,58,395957,0.0-1.0-11.0-0.0-3.0-0.0,0,0,26705,,,,,,9.0,,,,,,,,,,,,,,,,,,,,,,,,,,,,,,,,27.0,1.0,,,,,,
59,,iti,,html-keyboard-response,59,397478,0.0-1.0-11.0-0.0-5.0,0,0,26705,,,,,,,,,,,,,,,,,,,,,,,,,,,,,,,,,,,,,,28.5,1.5,,,,,,
60,,choice,,html-keyboard-response,60,398304,0.0-1.0-12.0-0.0-0.0,0,0,26705,,815.0,,,68.0,10.0,10.0,2000.0,1500.0,0.0,1.0,1.0,40-40,1.0,,door knob,door knob,40.0,40.0,door knob15,door knob7,60.0,20.0,Legacy_oval.jpg,doorknob2.jpg,/static/Category_learning/Stimuli/Experimental_stims/door knob/Legacy_oval.jpg,/static/Category_learning/Stimuli/Experimental_stims/door knob/doorknob2.jpg,1.0,door knob,door knob,40.0,40.0,door knob15,door knob7,60.0,20.0,0.0,29.315,0.815,,,,,,
61,,confirmation,,html-keyboard-response,61,399007,0.0-1.0-12.0-0.0-1.0-0.0,0,0,26705,,,,,,10.0,,,,,,,,,,,,,,,,,,,,,,,,,,,,,,,,30.0,0.685,,,,,,
62,,isi,,html-keyboard-response,62,401018,0.0-1.0-12.0-0.0-2.0,0,0,26705,,,,,,,,,,,,,,,,,,,,,,,,,,,,,,,,,,,,,,32.0,2.0,,,,,,
63,,feedback,,html-keyboard-response,63,402038,0.0-1.0-12.0-0.0-3.0-0.0,0,0,26705,,,,,,10.0,,,,,,,,,,,,,,,,,,,,,,,,,,,,,,,,33.0,1.0,,,,,,
64,,iti,,html-keyboard-response,64,403558,0.0-1.0-12.0-0.0-5.0,0,0,26705,,,,,,,,,,,,,,,,,,,,,,,,,,,,,,,,,,,,,,34.5,1.5,,,,,,
65,,choice,,html-keyboard-response,65,404366,0.0-1.0-13.0-0.0-0.0,0,0,26705,,798.0,,,68.0,11.0,11.0,3500.0,1000.0,0.0,1.0,0.0,40-40,,,bongo,flashlight,40.0,40.0,bongo3,flashlight5,60.0,60.0,26390697.thl.jpg,Streamlight-71001-Jr-Flashlight-W-batteries-black-B00018A3CG-L.jpg,/static/Category_learning/Stimuli/Experimental_stims/bongo/26390697.thl.jpg,/static/Category_learning/Stimuli/Experimental_stims/flashlight/Streamlight-71001-Jr-Flashlight-W-batteries-black-B00018A3CG-L.jpg,1.0,bongo,flashlight,40.0,40.0,bongo3,flashlight5,60.0,60.0,0.0,35.298,0.798,,,,,,
66,,confirmation,,html-keyboard-response,66,405090,0.0-1.0-13.0-0.0-1.0-0.0,0,0,26705,,,,,,11.0,,,,,,,,,,,,,,,,,,,,,,,,,,,,,,,,36.0,0.702,,,,,,
67,,isi,,html-keyboard-response,67,408600,0.0-1.0-13.0-0.0-2.0,0,0,26705,,,,,,,,,,,,,,,,,,,,,,,,,,,,,,,,,,,,,,39.5,3.5,,,,,,
68,,feedback,,html-keyboard-response,68,409627,0.0-1.0-13.0-0.0-3.0-0.0,0,0,26705,,,,,,11.0,,,,,,,,,,,,,,,,,,,,,,,,,,,,,,,,40.5,1.0,,,,,,
69,,iti,,html-keyboard-response,69,410639,0.0-1.0-13.0-0.0-5.0,0,0,26705,,,,,,,,,,,,,,,,,,,,,,,,,,,,,,,,,,,,,,41.5,1.0,,,,,,
70,,choice,,html-keyboard-response,70,411466,0.0-1.0-14.0-0.0-0.0,0,0,26705,,815.0,,,68.0,12.0,12.0,1500.0,1000.0,0.0,1.0,1.0,40-80,0.0,,bongo,seashell,40.0,80.0,bongo3,seashell3,60.0,80.0,26390697.thl.jpg,coquillage.jpg,/static/Category_learning/Stimuli/Experimental_stims/bongo/26390697.thl.jpg,/static/Category_learning/Stimuli/Experimental_stims/seashell/coquillage.jpg,1.0,bongo,seashell,40.0,80.0,bongo3,seashell3,60.0,80.0,0.0,42.315,0.815,,,,,,
71,,confirmation,,html-keyboard-response,71,412177,0.0-1.0-14.0-0.0-1.0-0.0,0,0,26705,,,,,,12.0,,,,,,,,,,,,,,,,,,,,,,,,,,,,,,,,43.0,0.685,,,,,,
72,,isi,,html-keyboard-response,72,413695,0.0-1.0-14.0-0.0-2.0,0,0,26705,,,,,,,,,,,,,,,,,,,,,,,,,,,,,,,,,,,,,,44.5,1.5,,,,,,
73,,feedback,,html-keyboard-response,73,414715,0.0-1.0-14.0-0.0-3.0-0.0,0,0,26705,,,,,,12.0,,,,,,,,,,,,,,,,,,,,,,,,,,,,,,,,45.5,1.0,,,,,,
74,,iti,,html-keyboard-response,74,415738,0.0-1.0-14.0-0.0-5.0,0,0,26705,,,,,,,,,,,,,,,,,,,,,,,,,,,,,,,,,,,,,,46.5,1.0,,,,,,
75,,choice,,html-keyboard-response,75,416730,0.0-1.0-15.0-0.0-0.0,0,0,26705,,981.0,,,68.0,13.0,13.0,2000.0,1000.0,0.0,1.0,0.0,40-60,,0.0,desk,hammer,40.0,60.0,desk8,hammer2,60.0,40.0,26370118.thl.jpg,hammer04.jpg,/static/Category_learning/Stimuli/Experimental_stims/desk/26370118.thl.jpg,/static/Category_learning/Stimuli/Experimental_stims/hammer/hammer04.jpg,1.0,desk,hammer,40.0,60.0,desk8,hammer2,60.0,40.0,0.0,47.481,0.981,,,,,,
76,,confirmation,,html-keyboard-response,76,417271,0.0-1.0-15.0-0.0-1.0-0.0,0,0,26705,,,,,,13.0,,,,,,,,,,,,,,,,,,,,,,,,,,,,,,,,48.0,0.519,,,,,,
77,,isi,,html-keyboard-response,77,419283,0.0-1.0-15.0-0.0-2.0,0,0,26705,,,,,,,,,,,,,,,,,,,,,,,,,,,,,,,,,,,,,,50.0,2.0,,,,,,
78,,feedback,,html-keyboard-response,78,420298,0.0-1.0-15.0-0.0-3.0-0.0,0,0,26705,,,,,,13.0,,,,,,,,,,,,,,,,,,,,,,,,,,,,,,,,51.0,1.0,,,,,,
79,,iti,,html-keyboard-response,79,421318,0.0-1.0-15.0-0.0-5.0,0,0,26705,,,,,,,,,,,,,,,,,,,,,,,,,,,,,,,,,,,,,,52.0,1.0,,,,,,
80,,choice,,html-keyboard-response,80,422146,0.0-1.0-16.0-0.0-0.0,0,0,26705,,813.0,,,75.0,14.0,14.0,2000.0,2000.0,0.0,1.0,0.0,60-60,,,license plate,hammer,60.0,60.0,license plate2,hammer5,60.0,60.0,ny-u93-8zs.jpg,hammer02.jpg,/static/Category_learning/Stimuli/Experimental_stims/license plate/ny-u93-8zs.jpg,/static/Category_learning/Stimuli/Experimental_stims/hammer/hammer02.jpg,0.0,hammer,license plate,60.0,60.0,hammer5,license plate2,60.0,60.0,0.0,52.813,0.813,,,,,,
81,,confirmation,,html-keyboard-response,81,422857,0.0-1.0-16.0-0.0-1.0-0.0,0,0,26705,,,,,,14.0,,,,,,,,,,,,,,,,,,,,,,,,,,,,,,,,53.5,0.687,,,,,,
82,,isi,,html-keyboard-response,82,424878,0.0-1.0-16.0-0.0-2.0,0,0,26705,,,,,,,,,,,,,,,,,,,,,,,,,,,,,,,,,,,,,,55.5,2.0,,,,,,
83,,feedback,,html-keyboard-response,83,425898,0.0-1.0-16.0-0.0-3.0-0.0,0,0,26705,,,,,,14.0,,,,,,,,,,,,,,,,,,,,,,,,,,,,,,,,56.5,1.0,,,,,,
84,,iti,,html-keyboard-response,84,427910,0.0-1.0-16.0-0.0-5.0,0,0,26705,,,,,,,,,,,,,,,,,,,,,,,,,,,,,,,,,,,,,,58.5,2.0,,,,,,
85,,choice,,html-keyboard-response,85,428747,0.0-1.0-17.0-0.0-0.0,0,0,26705,,827.0,,,68.0,15.0,15.0,1500.0,2000.0,0.0,1.0,0.0,20-20,,,train,tape,20.0,20.0,train9,tape13,20.0,20.0,train2.jpg,920152.jpg,/static/Category_learning/Stimuli/Experimental_stims/train/train2.jpg,/static/Category_learning/Stimuli/Experimental_stims/tape/920152.jpg,1.0,train,tape,20.0,20.0,train9,tape13,20.0,20.0,0.0,59.327,0.827,,,,,,
86,,confirmation,,html-keyboard-response,86,429437,0.0-1.0-17.0-0.0-1.0-0.0,0,0,26705,,,,,,15.0,,,,,,,,,,,,,,,,,,,,,,,,,,,,,,,,60.0,0.673,,,,,,
87,,isi,,html-keyboard-response,87,430947,0.0-1.0-17.0-0.0-2.0,0,0,26705,,,,,,,,,,,,,,,,,,,,,,,,,,,,,,,,,,,,,,61.5,1.5,,,,,,
88,,feedback,,html-keyboard-response,88,431971,0.0-1.0-17.0-0.0-3.0-0.0,0,0,26705,,,,,,15.0,,,,,,,,,,,,,,,,,,,,,,,,,,,,,,,,62.5,1.0,,,,,,
89,,iti,,html-keyboard-response,89,433999,0.0-1.0-17.0-0.0-5.0,0,0,26705,,,,,,,,,,,,,,,,,,,,,,,,,,,,,,,,,,,,,,64.5,2.0,,,,,,
90,,choice,,html-keyboard-response,90,434789,0.0-1.0-18.0-0.0-0.0,0,0,26705,,779.0,,,68.0,16.0,16.0,1500.0,2000.0,0.0,1.0,0.0,20-40,,0.0,trumpet,bongo,20.0,40.0,trumpet10,bongo14,40.0,40.0,trumpet2.jpg,26390667.thl.jpg,/static/Category_learning/Stimuli/Experimental_stims/trumpet/trumpet2.jpg,/static/Category_learning/Stimuli/Experimental_stims/bongo/26390667.thl.jpg,1.0,trumpet,bongo,20.0,40.0,trumpet10,bongo14,40.0,40.0,0.0,65.279,0.779,,,,,,
91,,confirmation,,html-keyboard-response,91,435540,0.0-1.0-18.0-0.0-1.0-0.0,0,0,26705,,,,,,16.0,,,,,,,,,,,,,,,,,,,,,,,,,,,,,,,,66.0,0.721,,,,,,
92,,isi,,html-keyboard-response,92,437054,0.0-1.0-18.0-0.0-2.0,0,0,26705,,,,,,,,,,,,,,,,,,,,,,,,,,,,,,,,,,,,,,67.5,1.5,,,,,,
93,,feedback,,html-keyboard-response,93,438078,0.0-1.0-18.0-0.0-3.0-0.0,0,0,26705,,,,,,16.0,,,,,,,,,,,,,,,,,,,,,,,,,,,,,,,,68.5,1.0,,,,,,
94,,iti,,html-keyboard-response,94,440110,0.0-1.0-18.0-0.0-5.0,0,0,26705,,,,,,,,,,,,,,,,,,,,,,,,,,,,,,,,,,,,,,70.5,2.0,,,,,,
95,,choice,,html-keyboard-response,95,440883,0.0-1.0-19.0-0.0-0.0,0,0,26705,,720.0,,,68.0,17.0,17.0,2000.0,3500.0,0.0,1.0,0.0,20-60,,0.0,trumpet,lipstick,20.0,60.0,trumpet1,lipstick4,40.0,60.0,JUPITER+TROMPETTE+606MRL.JPG,P145703_hero.jpg,/static/Category_learning/Stimuli/Experimental_stims/trumpet/JUPITER+TROMPETTE+606MRL.JPG,/static/Category_learning/Stimuli/Experimental_stims/lipstick/P145703_hero.jpg,1.0,trumpet,lipstick,20.0,60.0,trumpet1,lipstick4,40.0,60.0,0.0,71.22,0.72,,,,,,
96,,confirmation,,html-keyboard-response,96,441684,0.0-1.0-19.0-0.0-1.0-0.0,0,0,26705,,,,,,17.0,,,,,,,,,,,,,,,,,,,,,,,,,,,,,,,,72.0,0.78,,,,,,
97,,isi,,html-keyboard-response,97,443695,0.0-1.0-19.0-0.0-2.0,0,0,26705,,,,,,,,,,,,,,,,,,,,,,,,,,,,,,,,,,,,,,74.0,2.0,,,,,,
98,,feedback,,html-keyboard-response,98,444716,0.0-1.0-19.0-0.0-3.0-0.0,0,0,26705,,,,,,17.0,,,,,,,,,,,,,,,,,,,,,,,,,,,,,,,,75.0,1.0,,,,,,
99,,iti,,html-keyboard-response,99,448235,0.0-1.0-19.0-0.0-5.0,0,0,26705,,,,,,,,,,,,,,,,,,,,,,,,,,,,,,,,,,,,,,78.5,3.5,,,,,,
100,,choice,,html-keyboard-response,100,449053,0.0-1.0-20.0-0.0-0.0,0,0,26705,,805.0,,,75.0,18.0,18.0,1500.0,2000.0,0.0,1.0,1.0,20-20,1.0,,trumpet,trumpet,20.0,20.0,trumpet1,trumpet10,40.0,40.0,JUPITER+TROMPETTE+606MRL.JPG,trumpet2.jpg,/static/Category_learning/Stimuli/Experimental_stims/trumpet/JUPITER+TROMPETTE+606MRL.JPG,/static/Category_learning/Stimuli/Experimental_stims/trumpet/trumpet2.jpg,0.0,trumpet,trumpet,20.0,20.0,trumpet10,trumpet1,40.0,40.0,0.0,79.305,0.805,,,,,,
101,,confirmation,,html-keyboard-response,101,449772,0.0-1.0-20.0-0.0-1.0-0.0,0,0,26705,,,,,,18.0,,,,,,,,,,,,,,,,,,,,,,,,,,,,,,,,80.0,0.695,,,,,,
102,,isi,,html-keyboard-response,102,451289,0.0-1.0-20.0-0.0-2.0,0,0,26705,,,,,,,,,,,,,,,,,,,,,,,,,,,,,,,,,,,,,,81.5,1.5,,,,,,
103,,feedback,,html-keyboard-response,103,452308,0.0-1.0-20.0-0.0-3.0-0.0,0,0,26705,,,,,,18.0,,,,,,,,,,,,,,,,,,,,,,,,,,,,,,,,82.5,1.0,,,,,,
104,,iti,,html-keyboard-response,104,454321,0.0-1.0-20.0-0.0-5.0,0,0,26705,,,,,,,,,,,,,,,,,,,,,,,,,,,,,,,,,,,,,,84.5,2.0,,,,,,
105,,choice,,html-keyboard-response,105,455040,0.0-1.0-21.0-0.0-0.0,0,0,26705,,705.0,,,68.0,19.0,19.0,1500.0,1000.0,0.0,1.0,0.0,20-60,,0.0,train,motorcycle,20.0,60.0,train6,motorcycle10,0.0,40.0,train9.jpg,motorcycle17.jpg,/static/Category_learning/Stimuli/Experimental_stims/train/train9.jpg,/static/Category_learning/Stimuli/Experimental_stims/motorcycle/motorcycle17.jpg,1.0,train,motorcycle,20.0,60.0,train6,motorcycle10,0.0,40.0,0.0,85.205,0.705,,,,,,
106,,confirmation,,html-keyboard-response,106,455859,0.0-1.0-21.0-0.0-1.0-0.0,0,0,26705,,,,,,19.0,,,,,,,,,,,,,,,,,,,,,,,,,,,,,,,,86.0,0.795,,,,,,
107,,isi,,html-keyboard-response,107,457380,0.0-1.0-21.0-0.0-2.0,0,0,26705,,,,,,,,,,,,,,,,,,,,,,,,,,,,,,,,,,,,,,87.5,1.5,,,,,,
108,,feedback,,html-keyboard-response,108,458398,0.0-1.0-21.0-0.0-3.0-0.0,0,0,26705,,,,,,19.0,,,,,,,,,,,,,,,,,,,,,,,,,,,,,,,,88.5,1.0,,,,,,
109,,iti,,html-keyboard-response,109,459421,0.0-1.0-21.0-0.0-5.0,0,0,26705,,,,,,,,,,,,,,,,,,,,,,,,,,,,,,,,,,,,,,89.5,1.0,,,,,,
110,,choice,,html-keyboard-response,110,460468,0.0-1.0-22.0-0.0-0.0,0,0,26705,,1028.0,,,68.0,20.0,20.0,1000.0,3000.0,0.0,1.0,0.0,40-60,,0.0,dresser,license plate,40.0,60.0,dresser9,license plate9,20.0,80.0,ADRESSER.jpg,nm-dhg089.jpg,/static/Category_learning/Stimuli/Experimental_stims/dresser/ADRESSER.jpg,/static/Category_learning/Stimuli/Experimental_stims/license plate/nm-dhg089.jpg,1.0,dresser,license plate,40.0,60.0,dresser9,license plate9,20.0,80.0,0.0,90.528,1.028,,,,,,
111,,confirmation,,html-keyboard-response,111,460958,0.0-1.0-22.0-0.0-1.0-0.0,0,0,26705,,,,,,20.0,,,,,,,,,,,,,,,,,,,,,,,,,,,,,,,,91.0,0.472,,,,,,
112,,isi,,html-keyboard-response,112,461968,0.0-1.0-22.0-0.0-2.0,0,0,26705,,,,,,,,,,,,,,,,,,,,,,,,,,,,,,,,,,,,,,92.0,1.0,,,,,,
113,,feedback,,html-keyboard-response,113,462989,0.0-1.0-22.0-0.0-3.0-0.0,0,0,26705,,,,,,20.0,,,,,,,,,,,,,,,,,,,,,,,,,,,,,,,,93.0,1.0,,,,,,
114,,iti,,html-keyboard-response,114,465998,0.0-1.0-22.0-0.0-5.0,0,0,26705,,,,,,,,,,,,,,,,,,,,,,,,,,,,,,,,,,,,,,96.0,3.0,,,,,,
115,,choice,,html-keyboard-response,115,466807,0.0-1.0-23.0-0.0-0.0,0,0,26705,,796.0,,,68.0,21.0,21.0,2000.0,1000.0,0.0,1.0,0.0,40-80,,1.0,seashell,desk,80.0,40.0,seashell4,desk3,60.0,60.0,seashell.jpg,D-1 Four drawers desk Elm 64x23x33.jpg,/static/Category_learning/Stimuli/Experimental_stims/seashell/seashell.jpg,/static/Category_learning/Stimuli/Experimental_stims/desk/D-1 Four drawers desk Elm 64x23x33.jpg,1.0,seashell,desk,80.0,40.0,seashell4,desk3,60.0,60.0,0.0,96.796,0.796,,,,,,
116,,confirmation,,html-keyboard-response,116,467528,0.0-1.0-23.0-0.0-1.0-0.0,0,0,26705,,,,,,21.0,,,,,,,,,,,,,,,,,,,,,,,,,,,,,,,,97.5,0.704,,,,,,
117,,isi,,html-keyboard-response,117,469547,0.0-1.0-23.0-0.0-2.0,0,0,26705,,,,,,,,,,,,,,,,,,,,,,,,,,,,,,,,,,,,,,99.5,2.0,,,,,,
118,,feedback,,html-keyboard-response,118,470568,0.0-1.0-23.0-0.0-3.0-0.0,0,0,26705,,,,,,21.0,,,,,,,,,,,,,,,,,,,,,,,,,,,,,,,,100.5,1.0,,,,,,
119,,iti,,html-keyboard-response,119,471578,0.0-1.0-23.0-0.0-5.0,0,0,26705,,,,,,,,,,,,,,,,,,,,,,,,,,,,,,,,,,,,,,101.5,1.0,,,,,,
120,,choice,,html-keyboard-response,120,472288,0.0-1.0-24.0-0.0-0.0,0,0,26705,,693.0,,,68.0,22.0,22.0,1000.0,3500.0,0.0,1.0,0.0,20-40,,1.0,bench,yarn,40.0,20.0,bench5,yarn5,20.0,0.0,APARKBEN8.jpg,Aballofyarn14.jpg,/static/Category_learning/Stimuli/Experimental_stims/bench/APARKBEN8.jpg,/static/Category_learning/Stimuli/Experimental_stims/yarn/Aballofyarn14.jpg,1.0,bench,yarn,40.0,20.0,bench5,yarn5,20.0,0.0,0.0,102.193,0.693,,,,,,
121,,confirmation,,html-keyboard-response,121,473120,0.0-1.0-24.0-0.0-1.0-0.0,0,0,26705,,,,,,22.0,,,,,,,,,,,,,,,,,,,,,,,,,,,,,,,,103.0,0.807,,,,,,
122,,isi,,html-keyboard-response,122,474137,0.0-1.0-24.0-0.0-2.0,0,0,26705,,,,,,,,,,,,,,,,,,,,,,,,,,,,,,,,,,,,,,104.0,1.0,,,,,,
123,,feedback,,html-keyboard-response,123,475155,0.0-1.0-24.0-0.0-3.0-0.0,0,0,26705,,,,,,22.0,,,,,,,,,,,,,,,,,,,,,,,,,,,,,,,,105.0,1.0,,,,,,
124,,iti,,html-keyboard-response,124,478673,0.0-1.0-24.0-0.0-5.0,0,0,26705,,,,,,,,,,,,,,,,,,,,,,,,,,,,,,,,,,,,,,108.5,3.5,,,,,,
125,,choice,,html-keyboard-response,125,479469,0.0-1.0-25.0-0.0-0.0,0,0,26705,,784.0,,,75.0,23.0,23.0,2000.0,1500.0,0.0,1.0,0.0,60-80,,1.0,necklace,hammer,80.0,60.0,necklace6,hammer6,100.0,80.0,Agoldnecklace.jpg,hammer03.jpg,/static/Category_learning/Stimuli/Experimental_stims/necklace/Agoldnecklace.jpg,/static/Category_learning/Stimuli/Experimental_stims/hammer/hammer03.jpg,0.0,hammer,necklace,60.0,80.0,hammer6,necklace6,80.0,100.0,0.0,109.284,0.784,,,,,,
126,,confirmation,,html-keyboard-response,126,480209,0.0-1.0-25.0-0.0-1.0-0.0,0,0,26705,,,,,,23.0,,,,,,,,,,,,,,,,,,,,,,,,,,,,,,,,110.0,0.716,,,,,,
127,,isi,,html-keyboard-response,127,482220,0.0-1.0-25.0-0.0-2.0,0,0,26705,,,,,,,,,,,,,,,,,,,,,,,,,,,,,,,,,,,,,,112.0,2.0,,,,,,
128,,feedback,,html-keyboard-response,128,483241,0.0-1.0-25.0-0.0-3.0-0.0,0,0,26705,,,,,,23.0,,,,,,,,,,,,,,,,,,,,,,,,,,,,,,,,113.0,1.0,,,,,,
129,,iti,,html-keyboard-response,129,484757,0.0-1.0-25.0-0.0-5.0,0,0,26705,,,,,,,,,,,,,,,,,,,,,,,,,,,,,,,,,,,,,,114.5,1.5,,,,,,
130,,choice,,html-keyboard-response,130,485506,0.0-1.0-26.0-0.0-0.0,0,0,26705,,736.0,,,68.0,24.0,24.0,3500.0,1500.0,0.0,1.0,0.0,20-20,,,watch,yarn,20.0,20.0,watch4,yarn9,40.0,40.0,B000EI2NBW.01._AA280_SCLZZZZZZZ_.jpg,Aballofyarn26.jpg,/static/Category_learning/Stimuli/Experimental_stims/watch/B000EI2NBW.01._AA280_SCLZZZZZZZ_.jpg,/static/Category_learning/Stimuli/Experimental_stims/yarn/Aballofyarn26.jpg,1.0,watch,yarn,20.0,20.0,watch4,yarn9,40.0,40.0,0.0,115.236,0.736,,,,,,
131,,confirmation,,html-keyboard-response,131,486294,0.0-1.0-26.0-0.0-1.0-0.0,0,0,26705,,,,,,24.0,,,,,,,,,,,,,,,,,,,,,,,,,,,,,,,,116.0,0.764,,,,,,
132,,isi,,html-keyboard-response,132,489819,0.0-1.0-26.0-0.0-2.0,0,0,26705,,,,,,,,,,,,,,,,,,,,,,,,,,,,,,,,,,,,,,119.5,3.5,,,,,,
133,,feedback,,html-keyboard-response,133,490841,0.0-1.0-26.0-0.0-3.0-0.0,0,0,26705,,,,,,24.0,,,,,,,,,,,,,,,,,,,,,,,,,,,,,,,,120.5,1.0,,,,,,
134,,iti,,html-keyboard-response,134,492362,0.0-1.0-26.0-0.0-5.0,0,0,26705,,,,,,,,,,,,,,,,,,,,,,,,,,,,,,,,,,,,,,122.0,1.5,,,,,,
135,,choice,,html-keyboard-response,135,493256,0.0-1.0-27.0-0.0-0.0,0,0,26705,,883.0,,,75.0,25.0,25.0,1000.0,1000.0,0.0,1.0,0.0,40-60,,1.0,motorcycle,door knob,60.0,40.0,motorcycle15,door knob1,80.0,40.0,2006-Buell-LightningXB12Sa.jpg,Brass_Door_Handle.jpg,/static/Category_learning/Stimuli/Experimental_stims/motorcycle/2006-Buell-LightningXB12Sa.jpg,/static/Category_learning/Stimuli/Experimental_stims/door knob/Brass_Door_Handle.jpg,0.0,door knob,motorcycle,40.0,60.0,door knob1,motorcycle15,40.0,80.0,0.0,122.883,0.883,,,,,,
136,,confirmation,,html-keyboard-response,136,493898,0.0-1.0-27.0-0.0-1.0-0.0,0,0,26705,,,,,,25.0,,,,,,,,,,,,,,,,,,,,,,,,,,,,,,,,123.5,0.617,,,,,,
137,,isi,,html-keyboard-response,137,494918,0.0-1.0-27.0-0.0-2.0,0,0,26705,,,,,,,,,,,,,,,,,,,,,,,,,,,,,,,,,,,,,,124.5,1.0,,,,,,
138,,feedback,,html-keyboard-response,138,495929,0.0-1.0-27.0-0.0-3.0-0.0,0,0,26705,,,,,,25.0,,,,,,,,,,,,,,,,,,,,,,,,,,,,,,,,125.5,1.0,,,,,,
139,,iti,,html-keyboard-response,139,496938,0.0-1.0-27.0-0.0-5.0,0,0,26705,,,,,,,,,,,,,,,,,,,,,,,,,,,,,,,,,,,,,,126.5,1.0,,,,,,
140,,choice,,html-keyboard-response,140,497757,0.0-1.0-28.0-0.0-0.0,0,0,26705,,807.0,,,68.0,26.0,26.0,1000.0,1000.0,0.0,1.0,0.0,40-60,,1.0,hammer,door knob,60.0,40.0,hammer8,door knob10,40.0,20.0,ct1006_hammer.jpg,c02a578d-c6cc-44ca-8dd2-de8901e30bd7_4.jpg,/static/Category_learning/Stimuli/Experimental_stims/hammer/ct1006_hammer.jpg,/static/Category_learning/Stimuli/Experimental_stims/door knob/c02a578d-c6cc-44ca-8dd2-de8901e30bd7_4.jpg,1.0,hammer,door knob,60.0,40.0,hammer8,door knob10,40.0,20.0,0.0,127.307,0.807,,,,,,
141,,confirmation,,html-keyboard-response,141,498472,0.0-1.0-28.0-0.0-1.0-0.0,0,0,26705,,,,,,26.0,,,,,,,,,,,,,,,,,,,,,,,,,,,,,,,,128.0,0.693,,,,,,
142,,isi,,html-keyboard-response,142,499497,0.0-1.0-28.0-0.0-2.0,0,0,26705,,,,,,,,,,,,,,,,,,,,,,,,,,,,,,,,,,,,,,129.0,1.0,,,,,,
143,,feedback,,html-keyboard-response,143,500512,0.0-1.0-28.0-0.0-3.0-0.0,0,0,26705,,,,,,26.0,,,,,,,,,,,,,,,,,,,,,,,,,,,,,,,,130.0,1.0,,,,,,
144,,iti,,html-keyboard-response,144,501523,0.0-1.0-28.0-0.0-5.0,0,0,26705,,,,,,,,,,,,,,,,,,,,,,,,,,,,,,,,,,,,,,131.0,1.0,,,,,,
145,,choice,,html-keyboard-response,145,502345,0.0-1.0-29.0-0.0-0.0,0,0,26705,,814.0,,,68.0,27.0,27.0,1500.0,1000.0,0.0,1.0,0.0,20-80,,1.0,small table,vase,80.0,20.0,small table7,vase4,80.0,40.0,ATABLE89.jpg,Avase111.jpg,/static/Category_learning/Stimuli/Experimental_stims/small table/ATABLE89.jpg,/static/Category_learning/Stimuli/Experimental_stims/vase/Avase111.jpg,1.0,small table,vase,80.0,20.0,small table7,vase4,80.0,40.0,0.0,131.814,0.814,,,,,,
146,,confirmation,,html-keyboard-response,146,503048,0.0-1.0-29.0-0.0-1.0-0.0,0,0,26705,,,,,,27.0,,,,,,,,,,,,,,,,,,,,,,,,,,,,,,,,132.5,0.686,,,,,,
147,,isi,,html-keyboard-response,147,504567,0.0-1.0-29.0-0.0-2.0,0,0,26705,,,,,,,,,,,,,,,,,,,,,,,,,,,,,,,,,,,,,,134.0,1.5,,,,,,
148,,feedback,,html-keyboard-response,148,505581,0.0-1.0-29.0-0.0-3.0-0.0,0,0,26705,,,,,,27.0,,,,,,,,,,,,,,,,,,,,,,,,,,,,,,,,135.0,1.0,,,,,,
149,,iti,,html-keyboard-response,149,506598,0.0-1.0-29.0-0.0-5.0,0,0,26705,,,,,,,,,,,,,,,,,,,,,,,,,,,,,,,,,,,,,,136.0,1.0,,,,,,
150,,choice,,html-keyboard-response,150,507645,0.0-1.0-30.0-0.0-0.0,0,0,26705,,1035.0,,,68.0,28.0,28.0,1000.0,1000.0,0.0,1.0,1.0,60-60,1.0,,hammer,hammer,60.0,60.0,hammer8,hammer5,40.0,60.0,ct1006_hammer.jpg,hammer02.jpg,/static/Category_learning/Stimuli/Experimental_stims/hammer/ct1006_hammer.jpg,/static/Category_learning/Stimuli/Experimental_stims/hammer/hammer02.jpg,1.0,hammer,hammer,60.0,60.0,hammer8,hammer5,40.0,60.0,0.0,137.035,1.035,,,,,,
151,,confirmation,,html-keyboard-response,151,508123,0.0-1.0-30.0-0.0-1.0-0.0,0,0,26705,,,,,,28.0,,,,,,,,,,,,,,,,,,,,,,,,,,,,,,,,137.5,0.465,,,,,,
152,,isi,,html-keyboard-response,152,509132,0.0-1.0-30.0-0.0-2.0,0,0,26705,,,,,,,,,,,,,,,,,,,,,,,,,,,,,,,,,,,,,,138.5,1.0,,,,,,
153,,feedback,,html-keyboard-response,153,510146,0.0-1.0-30.0-0.0-3.0-0.0,0,0,26705,,,,,,28.0,,,,,,,,,,,,,,,,,,,,,,,,,,,,,,,,139.5,1.0,,,,,,
154,,iti,,html-keyboard-response,154,511164,0.0-1.0-30.0-0.0-5.0,0,0,26705,,,,,,,,,,,,,,,,,,,,,,,,,,,,,,,,,,,,,,140.5,1.0,,,,,,
155,,choice,,html-keyboard-response,155,511897,0.0-1.0-31.0-0.0-0.0,0,0,26705,,723.0,,,68.0,29.0,29.0,3500.0,1000.0,0.0,1.0,0.0,40-40,,,fan,bench,40.0,40.0,fan5,bench12,20.0,20.0,Table_Fan.jpg,22927976.thl.jpg,/static/Category_learning/Stimuli/Experimental_stims/fan/Table_Fan.jpg,/static/Category_learning/Stimuli/Experimental_stims/bench/22927976.thl.jpg,1.0,fan,bench,40.0,40.0,fan5,bench12,20.0,20.0,0.0,141.223,0.723,,,,,,
156,,confirmation,,html-keyboard-response,156,512692,0.0-1.0-31.0-0.0-1.0-0.0,0,0,26705,,,,,,29.0,,,,,,,,,,,,,,,,,,,,,,,,,,,,,,,,142.0,0.777,,,,,,
157,,isi,,html-keyboard-response,157,516207,0.0-1.0-31.0-0.0-2.0,0,0,26705,,,,,,,,,,,,,,,,,,,,,,,,,,,,,,,,,,,,,,145.5,3.5,,,,,,
158,,feedback,,html-keyboard-response,158,517223,0.0-1.0-31.0-0.0-3.0-0.0,0,0,26705,,,,,,29.0,,,,,,,,,,,,,,,,,,,,,,,,,,,,,,,,146.5,1.0,,,,,,
159,,iti,,html-keyboard-response,159,518248,0.0-1.0-31.0-0.0-5.0,0,0,26705,,,,,,,,,,,,,,,,,,,,,,,,,,,,,,,,,,,,,,147.5,1.0,,,,,,
160,,choice,,html-keyboard-response,160,519167,0.0-1.0-32.0-0.0-0.0,0,0,26705,,907.0,,,75.0,30.0,30.0,1000.0,3000.0,0.0,1.0,1.0,20-20,1.0,,train,train,20.0,20.0,train6,train9,0.0,20.0,train9.jpg,train2.jpg,/static/Category_learning/Stimuli/Experimental_stims/train/train9.jpg,/static/Category_learning/Stimuli/Experimental_stims/train/train2.jpg,0.0,train,train,20.0,20.0,train9,train6,20.0,0.0,0.0,148.407,0.907,,,,,,
161,,confirmation,,html-keyboard-response,161,519772,0.0-1.0-32.0-0.0-1.0-0.0,0,0,26705,,,,,,30.0,,,,,,,,,,,,,,,,,,,,,,,,,,,,,,,,149.0,0.593,,,,,,
162,,isi,,html-keyboard-response,162,520798,0.0-1.0-32.0-0.0-2.0,0,0,26705,,,,,,,,,,,,,,,,,,,,,,,,,,,,,,,,,,,,,,150.0,1.0,,,,,,
163,,feedback,,html-keyboard-response,163,521812,0.0-1.0-32.0-0.0-3.0-0.0,0,0,26705,,,,,,30.0,,,,,,,,,,,,,,,,,,,,,,,,,,,,,,,,151.0,1.0,,,,,,
164,,iti,,html-keyboard-response,164,524828,0.0-1.0-32.0-0.0-5.0,0,0,26705,,,,,,,,,,,,,,,,,,,,,,,,,,,,,,,,,,,,,,154.0,3.0,,,,,,
165,,choice,,html-keyboard-response,165,525768,0.0-1.0-33.0-0.0-0.0,0,0,26705,,929.0,,,68.0,31.0,31.0,1500.0,1500.0,0.0,1.0,0.0,80-80,,,sofa,patio lounge chair,80.0,80.0,sofa15,patio lounge chair9,100.0,80.0,APEACHLOV.jpg,43-3.jpg,/static/Category_learning/Stimuli/Experimental_stims/sofa/APEACHLOV.jpg,/static/Category_learning/Stimuli/Experimental_stims/patio lounge chair/43-3.jpg,1.0,sofa,patio lounge chair,80.0,80.0,sofa15,patio lounge chair9,100.0,80.0,0.0,154.929,0.929,,,,,,
166,,confirmation,,html-keyboard-response,166,526362,0.0-1.0-33.0-0.0-1.0-0.0,0,0,26705,,,,,,31.0,,,,,,,,,,,,,,,,,,,,,,,,,,,,,,,,155.5,0.571,,,,,,
167,,isi,,html-keyboard-response,167,527883,0.0-1.0-33.0-0.0-2.0,0,0,26705,,,,,,,,,,,,,,,,,,,,,,,,,,,,,,,,,,,,,,157.0,1.5,,,,,,
168,,feedback,,html-keyboard-response,168,528897,0.0-1.0-33.0-0.0-3.0-0.0,0,0,26705,,,,,,31.0,,,,,,,,,,,,,,,,,,,,,,,,,,,,,,,,158.0,1.0,,,,,,
169,,iti,,html-keyboard-response,169,530418,0.0-1.0-33.0-0.0-5.0,0,0,26705,,,,,,,,,,,,,,,,,,,,,,,,,,,,,,,,,,,,,,159.5,1.5,,,,,,
170,,choice,,html-keyboard-response,170,531371,0.0-1.0-34.0-0.0-0.0,0,0,26705,,942.0,,,68.0,32.0,32.0,1000.0,1000.0,0.0,1.0,0.0,20-80,,1.0,necklace,vase,80.0,20.0,necklace1,vase12,100.0,0.0,26443173.thl.jpg,Abluevase2.jpg,/static/Category_learning/Stimuli/Experimental_stims/necklace/26443173.thl.jpg,/static/Category_learning/Stimuli/Experimental_stims/vase/Abluevase2.jpg,1.0,necklace,vase,80.0,20.0,necklace1,vase12,100.0,0.0,0.0,160.442,0.942,,,,,,
171,,confirmation,,html-keyboard-response,171,531948,0.0-1.0-34.0-0.0-1.0-0.0,0,0,26705,,,,,,32.0,,,,,,,,,,,,,,,,,,,,,,,,,,,,,,,,161.0,0.558,,,,,,
172,,isi,,html-keyboard-response,172,532957,0.0-1.0-34.0-0.0-2.0,0,0,26705,,,,,,,,,,,,,,,,,,,,,,,,,,,,,,,,,,,,,,162.0,1.0,,,,,,
173,,feedback,,html-keyboard-response,173,533977,0.0-1.0-34.0-0.0-3.0-0.0,0,0,26705,,,,,,32.0,,,,,,,,,,,,,,,,,,,,,,,,,,,,,,,,163.0,1.0,,,,,,
174,,iti,,html-keyboard-response,174,534992,0.0-1.0-34.0-0.0-5.0,0,0,26705,,,,,,,,,,,,,,,,,,,,,,,,,,,,,,,,,,,,,,164.0,1.0,,,,,,
175,,choice,,html-keyboard-response,175,535842,0.0-1.0-35.0-0.0-0.0,0,0,26705,,839.0,,,75.0,33.0,33.0,3500.0,1000.0,0.0,1.0,0.0,40-80,,1.0,nail polish,desk,80.0,40.0,nail polish14,desk14,80.0,20.0,38031405.JPG,26419960.thl.jpg,/static/Category_learning/Stimuli/Experimental_stims/nail polish/38031405.JPG,/static/Category_learning/Stimuli/Experimental_stims/desk/26419960.thl.jpg,0.0,desk,nail polish,40.0,80.0,desk14,nail polish14,20.0,80.0,0.0,164.839,0.839,,,,,,
176,,confirmation,,html-keyboard-response,176,536524,0.0-1.0-35.0-0.0-1.0-0.0,0,0,26705,,,,,,33.0,,,,,,,,,,,,,,,,,,,,,,,,,,,,,,,,165.5,0.661,,,,,,
177,,isi,,html-keyboard-response,177,540036,0.0-1.0-35.0-0.0-2.0,0,0,26705,,,,,,,,,,,,,,,,,,,,,,,,,,,,,,,,,,,,,,169.0,3.5,,,,,,
178,,feedback,,html-keyboard-response,178,541059,0.0-1.0-35.0-0.0-3.0-0.0,0,0,26705,,,,,,33.0,,,,,,,,,,,,,,,,,,,,,,,,,,,,,,,,170.0,1.0,,,,,,
179,,iti,,html-keyboard-response,179,542077,0.0-1.0-35.0-0.0-5.0,0,0,26705,,,,,,,,,,,,,,,,,,,,,,,,,,,,,,,,,,,,,,171.0,1.0,,,,,,
180,,choice,,html-keyboard-response,180,543129,0.0-1.0-36.0-0.0-0.0,0,0,26705,,1040.0,,,68.0,34.0,34.0,1000.0,1000.0,0.0,1.0,1.0,40-40,1.0,,desk,desk,40.0,40.0,desk8,desk14,60.0,20.0,26370118.thl.jpg,26419960.thl.jpg,/static/Category_learning/Stimuli/Experimental_stims/desk/26370118.thl.jpg,/static/Category_learning/Stimuli/Experimental_stims/desk/26419960.thl.jpg,1.0,desk,desk,40.0,40.0,desk8,desk14,60.0,20.0,0.0,172.04,1.04,,,,,,
181,,confirmation,,html-keyboard-response,181,543613,0.0-1.0-36.0-0.0-1.0-0.0,0,0,26705,,,,,,34.0,,,,,,,,,,,,,,,,,,,,,,,,,,,,,,,,172.5,0.46,,,,,,
182,,isi,,html-keyboard-response,182,544625,0.0-1.0-36.0-0.0-2.0,0,0,26705,,,,,,,,,,,,,,,,,,,,,,,,,,,,,,,,,,,,,,173.5,1.0,,,,,,
183,,feedback,,html-keyboard-response,183,545641,0.0-1.0-36.0-0.0-3.0-0.0,0,0,26705,,,,,,34.0,,,,,,,,,,,,,,,,,,,,,,,,,,,,,,,,174.5,1.0,,,,,,
184,,iti,,html-keyboard-response,184,546659,0.0-1.0-36.0-0.0-5.0,0,0,26705,,,,,,,,,,,,,,,,,,,,,,,,,,,,,,,,,,,,,,175.5,1.0,,,,,,
185,,choice,,html-keyboard-response,185,547697,0.0-1.0-37.0-0.0-0.0,0,0,26705,,1028.0,,,68.0,35.0,35.0,1000.0,1500.0,0.0,1.0,1.0,40-80,0.0,,necklace,dresser,80.0,40.0,necklace1,dresser9,100.0,20.0,26443173.thl.jpg,ADRESSER.jpg,/static/Category_learning/Stimuli/Experimental_stims/necklace/26443173.thl.jpg,/static/Category_learning/Stimuli/Experimental_stims/dresser/ADRESSER.jpg,1.0,necklace,dresser,80.0,40.0,necklace1,dresser9,100.0,20.0,0.0,176.528,1.028,,,,,,
186,,confirmation,,html-keyboard-response,186,548188,0.0-1.0-37.0-0.0-1.0-0.0,0,0,26705,,,,,,35.0,,,,,,,,,,,,,,,,,,,,,,,,,,,,,,,,177.0,0.472,,,,,,
187,,isi,,html-keyboard-response,187,549209,0.0-1.0-37.0-0.0-2.0,0,0,26705,,,,,,,,,,,,,,,,,,,,,,,,,,,,,,,,,,,,,,178.0,1.0,,,,,,
188,,feedback,,html-keyboard-response,188,550226,0.0-1.0-37.0-0.0-3.0-0.0,0,0,26705,,,,,,35.0,,,,,,,,,,,,,,,,,,,,,,,,,,,,,,,,179.0,1.0,,,,,,
189,,iti,,html-keyboard-response,189,551743,0.0-1.0-37.0-0.0-5.0,0,0,26705,,,,,,,,,,,,,,,,,,,,,,,,,,,,,,,,,,,,,,180.5,1.5,,,,,,
190,,choice,,html-keyboard-response,190,552511,0.0-1.0-38.0-0.0-0.0,0,0,26705,,758.0,,,68.0,36.0,36.0,3000.0,3500.0,0.0,1.0,1.0,40-40,0.0,,bench,fan,40.0,40.0,bench5,fan5,20.0,20.0,APARKBEN8.jpg,Table_Fan.jpg,/static/Category_learning/Stimuli/Experimental_stims/bench/APARKBEN8.jpg,/static/Category_learning/Stimuli/Experimental_stims/fan/Table_Fan.jpg,1.0,bench,fan,40.0,40.0,bench5,fan5,20.0,20.0,0.0,181.258,0.758,,,,,,
191,,confirmation,,html-keyboard-response,191,553267,0.0-1.0-38.0-0.0-1.0-0.0,0,0,26705,,,,,,36.0,,,,,,,,,,,,,,,,,,,,,,,,,,,,,,,,182.0,0.742,,,,,,
192,,isi,,html-keyboard-response,192,556278,0.0-1.0-38.0-0.0-2.0,0,0,26705,,,,,,,,,,,,,,,,,,,,,,,,,,,,,,,,,,,,,,185.0,3.0,,,,,,
193,,feedback,,html-keyboard-response,193,557292,0.0-1.0-38.0-0.0-3.0-0.0,0,0,26705,,,,,,36.0,,,,,,,,,,,,,,,,,,,,,,,,,,,,,,,,186.0,1.0,,,,,,
194,,iti,,html-keyboard-response,194,560807,0.0-1.0-38.0-0.0-5.0,0,0,26705,,,,,,,,,,,,,,,,,,,,,,,,,,,,,,,,,,,,,,189.5,3.5,,,,,,
195,,choice,,html-keyboard-response,195,561772,0.0-1.0-39.0-0.0-0.0,0,0,26705,,956.0,,,68.0,37.0,37.0,2000.0,1000.0,0.0,1.0,0.0,40-80,,1.0,necklace,flashlight,80.0,40.0,necklace10,flashlight6,60.0,40.0,necklascenew03.jpg,Flashlight.jpg,/static/Category_learning/Stimuli/Experimental_stims/necklace/necklascenew03.jpg,/static/Category_learning/Stimuli/Experimental_stims/flashlight/Flashlight.jpg,1.0,necklace,flashlight,80.0,40.0,necklace10,flashlight6,60.0,40.0,0.0,190.456,0.956,,,,,,
196,,confirmation,,html-keyboard-response,196,562326,0.0-1.0-39.0-0.0-1.0-0.0,0,0,26705,,,,,,37.0,,,,,,,,,,,,,,,,,,,,,,,,,,,,,,,,191.0,0.544,,,,,,
197,,isi,,html-keyboard-response,197,564336,0.0-1.0-39.0-0.0-2.0,0,0,26705,,,,,,,,,,,,,,,,,,,,,,,,,,,,,,,,,,,,,,193.0,2.0,,,,,,
198,,feedback,,html-keyboard-response,198,565348,0.0-1.0-39.0-0.0-3.0-0.0,0,0,26705,,,,,,37.0,,,,,,,,,,,,,,,,,,,,,,,,,,,,,,,,194.0,1.0,,,,,,
199,,iti,,html-keyboard-response,199,566367,0.0-1.0-39.0-0.0-5.0,0,0,26705,,,,,,,,,,,,,,,,,,,,,,,,,,,,,,,,,,,,,,195.0,1.0,,,,,,
200,,choice,,html-keyboard-response,200,567642,0.0-1.0-40.0-0.0-0.0,0,0,26705,,1266.0,,,68.0,38.0,38.0,1000.0,1000.0,0.0,1.0,1.0,20-80,0.0,,watch,necklace,20.0,80.0,watch4,necklace10,40.0,60.0,B000EI2NBW.01._AA280_SCLZZZZZZZ_.jpg,necklascenew03.jpg,/static/Category_learning/Stimuli/Experimental_stims/watch/B000EI2NBW.01._AA280_SCLZZZZZZZ_.jpg,/static/Category_learning/Stimuli/Experimental_stims/necklace/necklascenew03.jpg,1.0,watch,necklace,20.0,80.0,watch4,necklace10,40.0,60.0,0.0,196.266,1.266,,,,,,
201,,confirmation,,html-keyboard-response,201,567889,0.0-1.0-40.0-0.0-1.0-0.0,0,0,26705,,,,,,38.0,,,,,,,,,,,,,,,,,,,,,,,,,,,,,,,,196.5,0.234,,,,,,
202,,isi,,html-keyboard-response,202,568919,0.0-1.0-40.0-0.0-2.0,0,0,26705,,,,,,,,,,,,,,,,,,,,,,,,,,,,,,,,,,,,,,197.5,1.0,,,,,,
203,,feedback,,html-keyboard-response,203,569928,0.0-1.0-40.0-0.0-3.0-0.0,0,0,26705,,,,,,38.0,,,,,,,,,,,,,,,,,,,,,,,,,,,,,,,,198.5,1.0,,,,,,
204,,iti,,html-keyboard-response,204,570947,0.0-1.0-40.0-0.0-5.0,0,0,26705,,,,,,,,,,,,,,,,,,,,,,,,,,,,,,,,,,,,,,199.5,1.0,,,,,,
205,,choice,,html-keyboard-response,205,571884,0.0-1.0-41.0-0.0-0.0,0,0,26705,,924.0,,,68.0,39.0,39.0,1000.0,1500.0,0.0,1.0,0.0,20-60,,1.0,hat,stool,60.0,20.0,hat1,stool8,60.0,0.0,AGREENHAT.jpg,ASTOOL33.jpg,/static/Category_learning/Stimuli/Experimental_stims/hat/AGREENHAT.jpg,/static/Category_learning/Stimuli/Experimental_stims/stool/ASTOOL33.jpg,1.0,hat,stool,60.0,20.0,hat1,stool8,60.0,0.0,0.0,200.424,0.924,,,,,,
206,,confirmation,,html-keyboard-response,206,572483,0.0-1.0-41.0-0.0-1.0-0.0,0,0,26705,,,,,,39.0,,,,,,,,,,,,,,,,,,,,,,,,,,,,,,,,201.0,0.576,,,,,,
207,,isi,,html-keyboard-response,207,573493,0.0-1.0-41.0-0.0-2.0,0,0,26705,,,,,,,,,,,,,,,,,,,,,,,,,,,,,,,,,,,,,,202.0,1.0,,,,,,
208,,feedback,,html-keyboard-response,208,574508,0.0-1.0-41.0-0.0-3.0-0.0,0,0,26705,,,,,,39.0,,,,,,,,,,,,,,,,,,,,,,,,,,,,,,,,203.0,1.0,,,,,,
209,,iti,,html-keyboard-response,209,576023,0.0-1.0-41.0-0.0-5.0,0,0,26705,,,,,,,,,,,,,,,,,,,,,,,,,,,,,,,,,,,,,,204.5,1.5,,,,,,
210,,choice,,html-keyboard-response,210,576902,0.0-1.0-42.0-0.0-0.0,0,0,26705,,869.0,,,68.0,40.0,40.0,1000.0,3500.0,0.0,1.0,0.0,20-80,,0.0,tape,power strip,20.0,80.0,tape9,power strip10,40.0,80.0,desk tape disp.jpg,6bd437c9-6165-4d36-bf75-9a1038783c6a_400.jpg,/static/Category_learning/Stimuli/Experimental_stims/tape/desk tape disp.jpg,/static/Category_learning/Stimuli/Experimental_stims/power strip/6bd437c9-6165-4d36-bf75-9a1038783c6a_400.jpg,1.0,tape,power strip,20.0,80.0,tape9,power strip10,40.0,80.0,0.0,205.369,0.869,,,,,,
211,,confirmation,,html-keyboard-response,211,577558,0.0-1.0-42.0-0.0-1.0-0.0,0,0,26705,,,,,,40.0,,,,,,,,,,,,,,,,,,,,,,,,,,,,,,,,206.0,0.631,,,,,,
212,,isi,,html-keyboard-response,212,578578,0.0-1.0-42.0-0.0-2.0,0,0,26705,,,,,,,,,,,,,,,,,,,,,,,,,,,,,,,,,,,,,,207.0,1.0,,,,,,
213,,feedback,,html-keyboard-response,213,579600,0.0-1.0-42.0-0.0-3.0-0.0,0,0,26705,,,,,,40.0,,,,,,,,,,,,,,,,,,,,,,,,,,,,,,,,208.0,1.0,,,,,,
214,,iti,,html-keyboard-response,214,583120,0.0-1.0-42.0-0.0-5.0,0,0,26705,,,,,,,,,,,,,,,,,,,,,,,,,,,,,,,,,,,,,,211.5,3.5,,,,,,
215,,choice,,html-keyboard-response,215,583913,0.0-1.0-43.0-0.0-0.0,0,0,26705,,781.0,,,68.0,41.0,41.0,1500.0,1000.0,0.0,1.0,0.0,20-80,,0.0,tape,poker card,20.0,80.0,tape12,poker card4,40.0,60.0,Frog-Tape-Dispenser_F02218A2.jpg,22864728.thl.jpg,/static/Category_learning/Stimuli/Experimental_stims/tape/Frog-Tape-Dispenser_F02218A2.jpg,/static/Category_learning/Stimuli/Experimental_stims/poker card/22864728.thl.jpg,1.0,tape,poker card,20.0,80.0,tape12,poker card4,40.0,60.0,0.0,212.281,0.781,,,,,,
216,,confirmation,,html-keyboard-response,216,584642,0.0-1.0-43.0-0.0-1.0-0.0,0,0,26705,,,,,,41.0,,,,,,,,,,,,,,,,,,,,,,,,,,,,,,,,213.0,0.719,,,,,,
217,,isi,,html-keyboard-response,217,586165,0.0-1.0-43.0-0.0-2.0,0,0,26705,,,,,,,,,,,,,,,,,,,,,,,,,,,,,,,,,,,,,,214.5,1.5,,,,,,
218,,feedback,,html-keyboard-response,218,587187,0.0-1.0-43.0-0.0-3.0-0.0,0,0,26705,,,,,,41.0,,,,,,,,,,,,,,,,,,,,,,,,,,,,,,,,215.5,1.0,,,,,,
219,,iti,,html-keyboard-response,219,588216,0.0-1.0-43.0-0.0-5.0,0,0,26705,,,,,,,,,,,,,,,,,,,,,,,,,,,,,,,,,,,,,,216.5,1.0,,,,,,
220,,choice,,html-keyboard-response,220,589021,0.0-1.0-44.0-0.0-0.0,0,0,26705,,792.0,,,68.0,42.0,42.0,2000.0,3500.0,0.0,1.0,0.0,20-80,,1.0,power strip,telescope,80.0,20.0,power strip13,telescope2,100.0,40.0,01dccef1-d4b2-4d2e-a317-f2ed46b70b4b_400.jpg,Brass-telescope-60700.jpg,/static/Category_learning/Stimuli/Experimental_stims/power strip/01dccef1-d4b2-4d2e-a317-f2ed46b70b4b_400.jpg,/static/Category_learning/Stimuli/Experimental_stims/telescope/Brass-telescope-60700.jpg,1.0,power strip,telescope,80.0,20.0,power strip13,telescope2,100.0,40.0,0.0,217.292,0.792,,,,,,
221,,confirmation,,html-keyboard-response,221,589759,0.0-1.0-44.0-0.0-1.0-0.0,0,0,26705,,,,,,42.0,,,,,,,,,,,,,,,,,,,,,,,,,,,,,,,,218.0,0.708,,,,,,
222,,isi,,html-keyboard-response,222,591778,0.0-1.0-44.0-0.0-2.0,0,0,26705,,,,,,,,,,,,,,,,,,,,,,,,,,,,,,,,,,,,,,220.0,2.0,,,,,,
223,,feedback,,html-keyboard-response,223,592802,0.0-1.0-44.0-0.0-3.0-0.0,0,0,26705,,,,,,42.0,,,,,,,,,,,,,,,,,,,,,,,,,,,,,,,,221.0,1.0,,,,,,
224,,iti,,html-keyboard-response,224,596321,0.0-1.0-44.0-0.0-5.0,0,0,26705,,,,,,,,,,,,,,,,,,,,,,,,,,,,,,,,,,,,,,224.5,3.5,,,,,,
225,,choice,,html-keyboard-response,225,597098,0.0-1.0-45.0-0.0-0.0,0,0,26705,,766.0,,,68.0,43.0,43.0,1000.0,2000.0,0.0,1.0,0.0,20-60,,0.0,yarn,makeup compact,20.0,60.0,yarn2,makeup compact6,20.0,80.0,Aballofyarn66.jpg,P0754_hero.jpg,/static/Category_learning/Stimuli/Experimental_stims/yarn/Aballofyarn66.jpg,/static/Category_learning/Stimuli/Experimental_stims/makeup compact/P0754_hero.jpg,1.0,yarn,makeup compact,20.0,60.0,yarn2,makeup compact6,20.0,80.0,0.0,225.266,0.766,,,,,,
226,,confirmation,,html-keyboard-response,226,597850,0.0-1.0-45.0-0.0-1.0-0.0,0,0,26705,,,,,,43.0,,,,,,,,,,,,,,,,,,,,,,,,,,,,,,,,226.0,0.734,,,,,,
227,,isi,,html-keyboard-response,227,598869,0.0-1.0-45.0-0.0-2.0,0,0,26705,,,,,,,,,,,,,,,,,,,,,,,,,,,,,,,,,,,,,,227.0,1.0,,,,,,
228,,feedback,,html-keyboard-response,228,599887,0.0-1.0-45.0-0.0-3.0-0.0,0,0,26705,,,,,,43.0,,,,,,,,,,,,,,,,,,,,,,,,,,,,,,,,228.0,1.0,,,,,,
229,,iti,,html-keyboard-response,229,601897,0.0-1.0-45.0-0.0-5.0,0,0,26705,,,,,,,,,,,,,,,,,,,,,,,,,,,,,,,,,,,,,,230.0,2.0,,,,,,
230,,choice,,html-keyboard-response,230,602891,0.0-1.0-46.0-0.0-0.0,0,0,26705,,983.0,,,75.0,44.0,44.0,1000.0,1000.0,0.0,1.0,0.0,20-60,,0.0,stool,makeup compact,20.0,60.0,stool15,makeup compact3,20.0,40.0,ASTOOL.jpg,P181006_hero.jpg,/static/Category_learning/Stimuli/Experimental_stims/stool/ASTOOL.jpg,/static/Category_learning/Stimuli/Experimental_stims/makeup compact/P181006_hero.jpg,0.0,makeup compact,stool,60.0,20.0,makeup compact3,stool15,40.0,20.0,0.0,230.983,0.983,,,,,,
231,,confirmation,,html-keyboard-response,231,603424,0.0-1.0-46.0-0.0-1.0-0.0,0,0,26705,,,,,,44.0,,,,,,,,,,,,,,,,,,,,,,,,,,,,,,,,231.5,0.517,,,,,,
232,,isi,,html-keyboard-response,232,604437,0.0-1.0-46.0-0.0-2.0,0,0,26705,,,,,,,,,,,,,,,,,,,,,,,,,,,,,,,,,,,,,,232.5,1.0,,,,,,
233,,feedback,,html-keyboard-response,233,605463,0.0-1.0-46.0-0.0-3.0-0.0,0,0,26705,,,,,,44.0,,,,,,,,,,,,,,,,,,,,,,,,,,,,,,,,233.5,1.0,,,,,,
234,,iti,,html-keyboard-response,234,606487,0.0-1.0-46.0-0.0-5.0,0,0,26705,,,,,,,,,,,,,,,,,,,,,,,,,,,,,,,,,,,,,,234.5,1.0,,,,,,
235,,choice,,html-keyboard-response,235,607379,0.0-1.0-47.0-0.0-0.0,0,0,26705,,882.0,,,68.0,45.0,45.0,1000.0,1000.0,0.0,1.0,0.0,20-20,,,tape,watch,20.0,20.0,tape6,watch15,40.0,40.0,1912.jpg,20-171-6.jpg,/static/Category_learning/Stimuli/Experimental_stims/tape/1912.jpg,/static/Category_learning/Stimuli/Experimental_stims/watch/20-171-6.jpg,1.0,tape,watch,20.0,20.0,tape6,watch15,40.0,40.0,0.0,235.382,0.882,,,,,,
236,,confirmation,,html-keyboard-response,236,608008,0.0-1.0-47.0-0.0-1.0-0.0,0,0,26705,,,,,,45.0,,,,,,,,,,,,,,,,,,,,,,,,,,,,,,,,236.0,0.618,,,,,,
237,,isi,,html-keyboard-response,237,609024,0.0-1.0-47.0-0.0-2.0,0,0,26705,,,,,,,,,,,,,,,,,,,,,,,,,,,,,,,,,,,,,,237.0,1.0,,,,,,
238,,feedback,,html-keyboard-response,238,610037,0.0-1.0-47.0-0.0-3.0-0.0,0,0,26705,,,,,,45.0,,,,,,,,,,,,,,,,,,,,,,,,,,,,,,,,238.0,1.0,,,,,,
239,,iti,,html-keyboard-response,239,611057,0.0-1.0-47.0-0.0-5.0,0,0,26705,,,,,,,,,,,,,,,,,,,,,,,,,,,,,,,,,,,,,,239.0,1.0,,,,,,
240,,choice,,html-keyboard-response,240,611901,0.0-1.0-48.0-0.0-0.0,0,0,26705,,834.0,,,68.0,46.0,46.0,1500.0,2000.0,0.0,1.0,0.0,40-80,,1.0,nail polish,fan,80.0,40.0,nail polish6,fan1,60.0,60.0,127_t.jpg,01393.fpx.jpg,/static/Category_learning/Stimuli/Experimental_stims/nail polish/127_t.jpg,/static/Category_learning/Stimuli/Experimental_stims/fan/01393.fpx.jpg,1.0,nail polish,fan,80.0,40.0,nail polish6,fan1,60.0,60.0,0.0,239.834,0.834,,,,,,
241,,confirmation,,html-keyboard-response,241,612584,0.0-1.0-48.0-0.0-1.0-0.0,0,0,26705,,,,,,46.0,,,,,,,,,,,,,,,,,,,,,,,,,,,,,,,,240.5,0.666,,,,,,
242,,isi,,html-keyboard-response,242,614097,0.0-1.0-48.0-0.0-2.0,0,0,26705,,,,,,,,,,,,,,,,,,,,,,,,,,,,,,,,,,,,,,242.0,1.5,,,,,,
243,,feedback,,html-keyboard-response,243,615107,0.0-1.0-48.0-0.0-3.0-0.0,0,0,26705,,,,,,46.0,,,,,,,,,,,,,,,,,,,,,,,,,,,,,,,,243.0,1.0,,,,,,
244,,iti,,html-keyboard-response,244,617118,0.0-1.0-48.0-0.0-5.0,0,0,26705,,,,,,,,,,,,,,,,,,,,,,,,,,,,,,,,,,,,,,245.0,2.0,,,,,,
245,,choice,,html-keyboard-response,245,618011,0.0-1.0-49.0-0.0-0.0,0,0,26705,,883.0,,,68.0,47.0,47.0,1500.0,2000.0,0.0,1.0,0.0,60-80,,1.0,pen,license plate,80.0,60.0,pen10,license plate8,100.0,60.0,VP-Raden-FP-L copy.jpg,dc-vrw-jsw.jpg,/static/Category_learning/Stimuli/Experimental_stims/pen/VP-Raden-FP-L copy.jpg,/static/Category_learning/Stimuli/Experimental_stims/license plate/dc-vrw-jsw.jpg,1.0,pen,license plate,80.0,60.0,pen10,license plate8,100.0,60.0,0.0,245.883,0.883,,,,,,
246,,confirmation,,html-keyboard-response,246,618642,0.0-1.0-49.0-0.0-1.0-0.0,0,0,26705,,,,,,47.0,,,,,,,,,,,,,,,,,,,,,,,,,,,,,,,,246.5,0.617,,,,,,
247,,isi,,html-keyboard-response,247,620166,0.0-1.0-49.0-0.0-2.0,0,0,26705,,,,,,,,,,,,,,,,,,,,,,,,,,,,,,,,,,,,,,248.0,1.5,,,,,,
248,,feedback,,html-keyboard-response,248,621177,0.0-1.0-49.0-0.0-3.0-0.0,0,0,26705,,,,,,47.0,,,,,,,,,,,,,,,,,,,,,,,,,,,,,,,,249.0,1.0,,,,,,
249,,iti,,html-keyboard-response,249,623209,0.0-1.0-49.0-0.0-5.0,0,0,26705,,,,,,,,,,,,,,,,,,,,,,,,,,,,,,,,,,,,,,251.0,2.0,,,,,,
250,,choice,,html-keyboard-response,250,624111,0.0-1.0-50.0-0.0-0.0,0,0,26705,,889.0,,,68.0,48.0,48.0,1500.0,1000.0,0.0,1.0,0.0,40-60,,1.0,frame,bongo,60.0,40.0,frame4,bongo11,60.0,40.0,AFRAME125.jpg,ABONGO6.jpg,/static/Category_learning/Stimuli/Experimental_stims/frame/AFRAME125.jpg,/static/Category_learning/Stimuli/Experimental_stims/bongo/ABONGO6.jpg,1.0,frame,bongo,60.0,40.0,frame4,bongo11,60.0,40.0,0.0,251.889,0.889,,,,,,
251,,confirmation,,html-keyboard-response,251,624739,0.0-1.0-50.0-0.0-1.0-0.0,0,0,26705,,,,,,48.0,,,,,,,,,,,,,,,,,,,,,,,,,,,,,,,,252.5,0.611,,,,,,
252,,isi,,html-keyboard-response,252,626257,0.0-1.0-50.0-0.0-2.0,0,0,26705,,,,,,,,,,,,,,,,,,,,,,,,,,,,,,,,,,,,,,254.0,1.5,,,,,,
253,,feedback,,html-keyboard-response,253,627272,0.0-1.0-50.0-0.0-3.0-0.0,0,0,26705,,,,,,48.0,,,,,,,,,,,,,,,,,,,,,,,,,,,,,,,,255.0,1.0,,,,,,
254,,iti,,html-keyboard-response,254,628292,0.0-1.0-50.0-0.0-5.0,0,0,26705,,,,,,,,,,,,,,,,,,,,,,,,,,,,,,,,,,,,,,256.0,1.0,,,,,,
255,,choice,,html-keyboard-response,255,628812,0.0-1.0-51.0-0.0-0.0,0,0,26705,,506.0,,,68.0,49.0,49.0,2000.0,2000.0,0.0,1.0,0.0,40-60,,0.0,dresser,lipstick,40.0,60.0,dresser3,lipstick1,20.0,80.0,ADRESSE79.jpg,P170102_hero.jpg,/static/Category_learning/Stimuli/Experimental_stims/dresser/ADRESSE79.jpg,/static/Category_learning/Stimuli/Experimental_stims/lipstick/P170102_hero.jpg,1.0,dresser,lipstick,40.0,60.0,dresser3,lipstick1,20.0,80.0,0.0,256.506,0.506,,,,,,
256,,confirmation,,html-keyboard-response,256,629818,0.0-1.0-51.0-0.0-1.0-0.0,0,0,26705,,,,,,49.0,,,,,,,,,,,,,,,,,,,,,,,,,,,,,,,,257.5,0.994,,,,,,
257,,isi,,html-keyboard-response,257,631833,0.0-1.0-51.0-0.0-2.0,0,0,26705,,,,,,,,,,,,,,,,,,,,,,,,,,,,,,,,,,,,,,259.5,2.0,,,,,,
258,,feedback,,html-keyboard-response,258,632847,0.0-1.0-51.0-0.0-3.0-0.0,0,0,26705,,,,,,49.0,,,,,,,,,,,,,,,,,,,,,,,,,,,,,,,,260.5,1.0,,,,,,
259,,iti,,html-keyboard-response,259,634869,0.0-1.0-51.0-0.0-5.0,0,0,26705,,,,,,,,,,,,,,,,,,,,,,,,,,,,,,,,,,,,,,262.5,2.0,,,,,,
260,,choice,,html-keyboard-response,260,635549,0.0-1.0-52.0-0.0-0.0,0,0,26705,,669.0,,,75.0,50.0,50.0,3500.0,1000.0,0.0,1.0,1.0,20-20,1.0,,tape,tape,20.0,20.0,tape12,tape9,40.0,40.0,Frog-Tape-Dispenser_F02218A2.jpg,desk tape disp.jpg,/static/Category_learning/Stimuli/Experimental_stims/tape/Frog-Tape-Dispenser_F02218A2.jpg,/static/Category_learning/Stimuli/Experimental_stims/tape/desk tape disp.jpg,0.0,tape,tape,20.0,20.0,tape9,tape12,40.0,40.0,0.0,263.169,0.669,,,,,,
261,,confirmation,,html-keyboard-response,261,636396,0.0-1.0-52.0-0.0-1.0-0.0,0,0,26705,,,,,,50.0,,,,,,,,,,,,,,,,,,,,,,,,,,,,,,,,264.0,0.831,,,,,,
262,,isi,,html-keyboard-response,262,639915,0.0-1.0-52.0-0.0-2.0,0,0,26705,,,,,,,,,,,,,,,,,,,,,,,,,,,,,,,,,,,,,,267.5,3.5,,,,,,
263,,feedback,,html-keyboard-response,263,640927,0.0-1.0-52.0-0.0-3.0-0.0,0,0,26705,,,,,,50.0,,,,,,,,,,,,,,,,,,,,,,,,,,,,,,,,268.5,1.0,,,,,,
264,,iti,,html-keyboard-response,264,641949,0.0-1.0-52.0-0.0-5.0,0,0,26705,,,,,,,,,,,,,,,,,,,,,,,,,,,,,,,,,,,,,,269.5,1.0,,,,,,
265,,choice,,html-keyboard-response,265,642796,0.0-1.0-53.0-0.0-0.0,0,0,26705,,836.0,,,68.0,51.0,51.0,2000.0,1000.0,0.0,1.0,0.0,60-60,,,makeup compact,microscope,60.0,60.0,makeup compact5,microscope3,40.0,40.0,P109965_hero.jpg,APDB.jpg,/static/Category_learning/Stimuli/Experimental_stims/makeup compact/P109965_hero.jpg,/static/Category_learning/Stimuli/Experimental_stims/microscope/APDB.jpg,1.0,makeup compact,microscope,60.0,60.0,makeup compact5,microscope3,40.0,40.0,0.0,270.336,0.836,,,,,,
266,,confirmation,,html-keyboard-response,266,643476,0.0-1.0-53.0-0.0-1.0-0.0,0,0,26705,,,,,,51.0,,,,,,,,,,,,,,,,,,,,,,,,,,,,,,,,271.0,0.664,,,,,,
267,,isi,,html-keyboard-response,267,645492,0.0-1.0-53.0-0.0-2.0,0,0,26705,,,,,,,,,,,,,,,,,,,,,,,,,,,,,,,,,,,,,,273.0,2.0,,,,,,
268,,feedback,,html-keyboard-response,268,646511,0.0-1.0-53.0-0.0-3.0-0.0,0,0,26705,,,,,,51.0,,,,,,,,,,,,,,,,,,,,,,,,,,,,,,,,274.0,1.0,,,,,,
269,,iti,,html-keyboard-response,269,647532,0.0-1.0-53.0-0.0-5.0,0,0,26705,,,,,,,,,,,,,,,,,,,,,,,,,,,,,,,,,,,,,,275.0,1.0,,,,,,
270,,choice,,html-keyboard-response,270,648399,0.0-1.0-54.0-0.0-0.0,0,0,26705,,853.0,,,68.0,52.0,52.0,1000.0,1500.0,0.0,1.0,0.0,40-80,,0.0,baby carriage,necklace,40.0,80.0,baby carriage9,necklace2,20.0,80.0,Antique baby Carriage 7.jpg,Anecklace7.jpg,/static/Category_learning/Stimuli/Experimental_stims/baby carriage/Antique baby Carriage 7.jpg,/static/Category_learning/Stimuli/Experimental_stims/necklace/Anecklace7.jpg,1.0,baby carriage,necklace,40.0,80.0,baby carriage9,necklace2,20.0,80.0,0.0,275.853,0.853,,,,,,
271,,confirmation,,html-keyboard-response,271,649064,0.0-1.0-54.0-0.0-1.0-0.0,0,0,26705,,,,,,52.0,,,,,,,,,,,,,,,,,,,,,,,,,,,,,,,,276.5,0.647,,,,,,
272,,isi,,html-keyboard-response,272,650074,0.0-1.0-54.0-0.0-2.0,0,0,26705,,,,,,,,,,,,,,,,,,,,,,,,,,,,,,,,,,,,,,277.5,1.0,,,,,,
273,,feedback,,html-keyboard-response,273,651083,0.0-1.0-54.0-0.0-3.0-0.0,0,0,26705,,,,,,52.0,,,,,,,,,,,,,,,,,,,,,,,,,,,,,,,,278.5,1.0,,,,,,
274,,iti,,html-keyboard-response,274,652606,0.0-1.0-54.0-0.0-5.0,0,0,26705,,,,,,,,,,,,,,,,,,,,,,,,,,,,,,,,,,,,,,280.0,1.5,,,,,,
275,,choice,,html-keyboard-response,275,653518,0.0-1.0-55.0-0.0-0.0,0,0,26705,,897.0,,,68.0,53.0,53.0,2000.0,1500.0,0.0,1.0,0.0,20-80,,0.0,watch,small table,20.0,80.0,watch12,small table12,40.0,80.0,snl003_MED.jpg,ATABLE54.jpg,/static/Category_learning/Stimuli/Experimental_stims/watch/snl003_MED.jpg,/static/Category_learning/Stimuli/Experimental_stims/small table/ATABLE54.jpg,1.0,watch,small table,20.0,80.0,watch12,small table12,40.0,80.0,0.0,280.897,0.897,,,,,,
276,,confirmation,,html-keyboard-response,276,654138,0.0-1.0-55.0-0.0-1.0-0.0,0,0,26705,,,,,,53.0,,,,,,,,,,,,,,,,,,,,,,,,,,,,,,,,281.5,0.603,,,,,,
277,,isi,,html-keyboard-response,277,656160,0.0-1.0-55.0-0.0-2.0,0,0,26705,,,,,,,,,,,,,,,,,,,,,,,,,,,,,,,,,,,,,,283.5,2.0,,,,,,
278,,feedback,,html-keyboard-response,278,657172,0.0-1.0-55.0-0.0-3.0-0.0,0,0,26705,,,,,,53.0,,,,,,,,,,,,,,,,,,,,,,,,,,,,,,,,284.5,1.0,,,,,,
279,,iti,,html-keyboard-response,279,658694,0.0-1.0-55.0-0.0-5.0,0,0,26705,,,,,,,,,,,,,,,,,,,,,,,,,,,,,,,,,,,,,,286.0,1.5,,,,,,
280,,choice,,html-keyboard-response,280,659481,0.0-1.0-56.0-0.0-0.0,0,0,26705,,776.0,,,68.0,54.0,54.0,1000.0,2000.0,0.0,1.0,1.0,60-60,1.0,,makeup compact,makeup compact,60.0,60.0,makeup compact3,makeup compact5,40.0,40.0,P181006_hero.jpg,P109965_hero.jpg,/static/Category_learning/Stimuli/Experimental_stims/makeup compact/P181006_hero.jpg,/static/Category_learning/Stimuli/Experimental_stims/makeup compact/P109965_hero.jpg,1.0,makeup compact,makeup compact,60.0,60.0,makeup compact3,makeup compact5,40.0,40.0,0.0,286.776,0.776,,,,,,
281,,confirmation,,html-keyboard-response,281,660220,0.0-1.0-56.0-0.0-1.0-0.0,0,0,26705,,,,,,54.0,,,,,,,,,,,,,,,,,,,,,,,,,,,,,,,,287.5,0.724,,,,,,
282,,isi,,html-keyboard-response,282,661239,0.0-1.0-56.0-0.0-2.0,0,0,26705,,,,,,,,,,,,,,,,,,,,,,,,,,,,,,,,,,,,,,288.5,1.0,,,,,,
283,,feedback,,html-keyboard-response,283,662261,0.0-1.0-56.0-0.0-3.0-0.0,0,0,26705,,,,,,54.0,,,,,,,,,,,,,,,,,,,,,,,,,,,,,,,,289.5,1.0,,,,,,
284,,iti,,html-keyboard-response,284,664276,0.0-1.0-56.0-0.0-5.0,0,0,26705,,,,,,,,,,,,,,,,,,,,,,,,,,,,,,,,,,,,,,291.5,2.0,,,,,,
285,,choice,,html-keyboard-response,285,665262,0.0-1.0-57.0-0.0-0.0,0,0,26705,,975.0,,,75.0,55.0,55.0,1000.0,3000.0,0.0,1.0,0.0,40-60,,1.0,motorcycle,bench,60.0,40.0,motorcycle13,bench9,60.0,40.0,2005-Buell-FireboltXB12R.jpg,26419898.thl.jpg,/static/Category_learning/Stimuli/Experimental_stims/motorcycle/2005-Buell-FireboltXB12R.jpg,/static/Category_learning/Stimuli/Experimental_stims/bench/26419898.thl.jpg,0.0,bench,motorcycle,40.0,60.0,bench9,motorcycle13,40.0,60.0,0.0,292.475,0.975,,,,,,
286,,confirmation,,html-keyboard-response,286,665798,0.0-1.0-57.0-0.0-1.0-0.0,0,0,26705,,,,,,55.0,,,,,,,,,,,,,,,,,,,,,,,,,,,,,,,,293.0,0.525,,,,,,
287,,isi,,html-keyboard-response,287,666808,0.0-1.0-57.0-0.0-2.0,0,0,26705,,,,,,,,,,,,,,,,,,,,,,,,,,,,,,,,,,,,,,294.0,1.0,,,,,,
288,,feedback,,html-keyboard-response,288,667830,0.0-1.0-57.0-0.0-3.0-0.0,0,0,26705,,,,,,55.0,,,,,,,,,,,,,,,,,,,,,,,,,,,,,,,,295.0,1.0,,,,,,
289,,iti,,html-keyboard-response,289,670841,0.0-1.0-57.0-0.0-5.0,0,0,26705,,,,,,,,,,,,,,,,,,,,,,,,,,,,,,,,,,,,,,298.0,3.0,,,,,,
290,,choice,,html-keyboard-response,290,671596,0.0-1.0-58.0-0.0-0.0,0,0,26705,,746.0,,,68.0,56.0,56.0,1000.0,1000.0,0.0,1.0,0.0,20-40,,1.0,baby carriage,train,40.0,20.0,baby carriage12,train4,60.0,40.0,Baby_Carriage-1.jpg,After-RHS-2-web.jpg,/static/Category_learning/Stimuli/Experimental_stims/baby carriage/Baby_Carriage-1.jpg,/static/Category_learning/Stimuli/Experimental_stims/train/After-RHS-2-web.jpg,1.0,baby carriage,train,40.0,20.0,baby carriage12,train4,60.0,40.0,0.0,298.746,0.746,,,,,,
291,,confirmation,,html-keyboard-response,291,672365,0.0-1.0-58.0-0.0-1.0-0.0,0,0,26705,,,,,,56.0,,,,,,,,,,,,,,,,,,,,,,,,,,,,,,,,299.5,0.754,,,,,,
292,,isi,,html-keyboard-response,292,673387,0.0-1.0-58.0-0.0-2.0,0,0,26705,,,,,,,,,,,,,,,,,,,,,,,,,,,,,,,,,,,,,,300.5,1.0,,,,,,
293,,feedback,,html-keyboard-response,293,674408,0.0-1.0-58.0-0.0-3.0-0.0,0,0,26705,,,,,,56.0,,,,,,,,,,,,,,,,,,,,,,,,,,,,,,,,301.5,1.0,,,,,,
294,,iti,,html-keyboard-response,294,675426,0.0-1.0-58.0-0.0-5.0,0,0,26705,,,,,,,,,,,,,,,,,,,,,,,,,,,,,,,,,,,,,,302.5,1.0,,,,,,
295,,choice,,html-keyboard-response,295,675996,0.0-1.0-59.0-0.0-0.0,0,0,26705,,557.0,,,68.0,57.0,57.0,3000.0,2000.0,0.0,1.0,1.0,40-40,1.0,,baby carriage,baby carriage,40.0,40.0,baby carriage12,baby carriage9,60.0,20.0,Baby_Carriage-1.jpg,Antique baby Carriage 7.jpg,/static/Category_learning/Stimuli/Experimental_stims/baby carriage/Baby_Carriage-1.jpg,/static/Category_learning/Stimuli/Experimental_stims/baby carriage/Antique baby Carriage 7.jpg,1.0,baby carriage,baby carriage,40.0,40.0,baby carriage12,baby carriage9,60.0,20.0,0.0,303.057,0.557,,,,,,
296,,confirmation,,html-keyboard-response,296,676964,0.0-1.0-59.0-0.0-1.0-0.0,0,0,26705,,,,,,57.0,,,,,,,,,,,,,,,,,,,,,,,,,,,,,,,,304.0,0.943,,,,,,
297,,isi,,html-keyboard-response,297,679976,0.0-1.0-59.0-0.0-2.0,0,0,26705,,,,,,,,,,,,,,,,,,,,,,,,,,,,,,,,,,,,,,307.0,3.0,,,,,,
298,,feedback,,html-keyboard-response,298,680998,0.0-1.0-59.0-0.0-3.0-0.0,0,0,26705,,,,,,57.0,,,,,,,,,,,,,,,,,,,,,,,,,,,,,,,,308.0,1.0,,,,,,
299,,iti,,html-keyboard-response,299,683018,0.0-1.0-59.0-0.0-5.0,0,0,26705,,,,,,,,,,,,,,,,,,,,,,,,,,,,,,,,,,,,,,310.0,2.0,,,,,,
300,,choice,,html-keyboard-response,300,683939,0.0-1.0-60.0-0.0-0.0,0,0,26705,,912.0,,,75.0,58.0,58.0,2000.0,1000.0,0.0,1.0,0.0,40-80,,0.0,flashlight,seashell,40.0,80.0,flashlight13,seashell13,60.0,100.0,834808_sk_lg.jpg,coquillage22.jpg,/static/Category_learning/Stimuli/Experimental_stims/flashlight/834808_sk_lg.jpg,/static/Category_learning/Stimuli/Experimental_stims/seashell/coquillage22.jpg,0.0,seashell,flashlight,80.0,40.0,seashell13,flashlight13,100.0,60.0,0.0,310.912,0.912,,,,,,
301,,confirmation,,html-keyboard-response,301,684547,0.0-1.0-60.0-0.0-1.0-0.0,0,0,26705,,,,,,58.0,,,,,,,,,,,,,,,,,,,,,,,,,,,,,,,,311.5,0.588,,,,,,
302,,isi,,html-keyboard-response,302,686563,0.0-1.0-60.0-0.0-2.0,0,0,26705,,,,,,,,,,,,,,,,,,,,,,,,,,,,,,,,,,,,,,313.5,2.0,,,,,,
303,,feedback,,html-keyboard-response,303,687591,0.0-1.0-60.0-0.0-3.0-0.0,0,0,26705,,,,,,58.0,,,,,,,,,,,,,,,,,,,,,,,,,,,,,,,,314.5,1.0,,,,,,
304,,iti,,html-keyboard-response,304,688612,0.0-1.0-60.0-0.0-5.0,0,0,26705,,,,,,,,,,,,,,,,,,,,,,,,,,,,,,,,,,,,,,315.5,1.0,,,,,,
305,,choice,,html-keyboard-response,305,689822,0.0-1.0-61.0-0.0-0.0,0,0,26705,,1199.0,,,75.0,59.0,59.0,1000.0,1500.0,0.0,1.0,0.0,20-60,,0.0,watch,key chain,20.0,60.0,watch14,key chain14,0.0,40.0,HC06.jpg,Jif Keychain 285.jpg,/static/Category_learning/Stimuli/Experimental_stims/watch/HC06.jpg,/static/Category_learning/Stimuli/Experimental_stims/key chain/Jif Keychain 285.jpg,0.0,key chain,watch,60.0,20.0,key chain14,watch14,40.0,0.0,0.0,316.699,1.199,,,,,,
306,,confirmation,,html-keyboard-response,306,690147,0.0-1.0-61.0-0.0-1.0-0.0,0,0,26705,,,,,,59.0,,,,,,,,,,,,,,,,,,,,,,,,,,,,,,,,317.0,0.301,,,,,,
307,,isi,,html-keyboard-response,307,691157,0.0-1.0-61.0-0.0-2.0,0,0,26705,,,,,,,,,,,,,,,,,,,,,,,,,,,,,,,,,,,,,,318.0,1.0,,,,,,
308,,feedback,,html-keyboard-response,308,692177,0.0-1.0-61.0-0.0-3.0-0.0,0,0,26705,,,,,,59.0,,,,,,,,,,,,,,,,,,,,,,,,,,,,,,,,319.0,1.0,,,,,,
309,,iti,,html-keyboard-response,309,693687,0.0-1.0-61.0-0.0-5.0,0,0,26705,,,,,,,,,,,,,,,,,,,,,,,,,,,,,,,,,,,,,,320.5,1.5,,,,,,
310,,choice,,html-keyboard-response,310,694651,0.0-1.0-62.0-0.0-0.0,0,0,26705,,952.0,,,75.0,60.0,60.0,1500.0,1000.0,0.0,1.0,0.0,20-80,,0.0,watch,small table,20.0,80.0,watch8,small table2,40.0,100.0,2239.jpg,Atable126.jpg,/static/Category_learning/Stimuli/Experimental_stims/watch/2239.jpg,/static/Category_learning/Stimuli/Experimental_stims/small table/Atable126.jpg,0.0,small table,watch,80.0,20.0,small table2,watch8,100.0,40.0,0.0,321.452,0.952,,,,,,
311,,confirmation,,html-keyboard-response,311,695228,0.0-1.0-62.0-0.0-1.0-0.0,0,0,26705,,,,,,60.0,,,,,,,,,,,,,,,,,,,,,,,,,,,,,,,,322.0,0.548,,,,,,
312,,isi,,html-keyboard-response,312,696744,0.0-1.0-62.0-0.0-2.0,0,0,26705,,,,,,,,,,,,,,,,,,,,,,,,,,,,,,,,,,,,,,323.5,1.5,,,,,,
313,,feedback,,html-keyboard-response,313,697763,0.0-1.0-62.0-0.0-3.0-0.0,0,0,26705,,,,,,60.0,,,,,,,,,,,,,,,,,,,,,,,,,,,,,,,,324.5,1.0,,,,,,
314,,iti,,html-keyboard-response,314,698778,0.0-1.0-62.0-0.0-5.0,0,0,26705,,,,,,,,,,,,,,,,,,,,,,,,,,,,,,,,,,,,,,325.5,1.0,,,,,,
315,,choice,,html-keyboard-response,315,699756,0.0-1.0-63.0-0.0-0.0,0,0,26705,,966.0,,,68.0,61.0,61.0,1500.0,2000.0,0.0,1.0,1.0,80-80,1.0,,seashell,seashell,80.0,80.0,seashell13,seashell4,100.0,60.0,coquillage22.jpg,seashell.jpg,/static/Category_learning/Stimuli/Experimental_stims/seashell/coquillage22.jpg,/static/Category_learning/Stimuli/Experimental_stims/seashell/seashell.jpg,1.0,seashell,seashell,80.0,80.0,seashell13,seashell4,100.0,60.0,0.0,326.466,0.966,,,,,,
316,,confirmation,,html-keyboard-response,316,700318,0.0-1.0-63.0-0.0-1.0-0.0,0,0,26705,,,,,,61.0,,,,,,,,,,,,,,,,,,,,,,,,,,,,,,,,327.0,0.534,,,,,,
317,,isi,,html-keyboard-response,317,701839,0.0-1.0-63.0-0.0-2.0,0,0,26705,,,,,,,,,,,,,,,,,,,,,,,,,,,,,,,,,,,,,,328.5,1.5,,,,,,
318,,feedback,,html-keyboard-response,318,702865,0.0-1.0-63.0-0.0-3.0-0.0,0,0,26705,,,,,,61.0,,,,,,,,,,,,,,,,,,,,,,,,,,,,,,,,329.5,1.0,,,,,,
319,,iti,,html-keyboard-response,319,704889,0.0-1.0-63.0-0.0-5.0,0,0,26705,,,,,,,,,,,,,,,,,,,,,,,,,,,,,,,,,,,,,,331.5,2.0,,,,,,
320,,choice,,html-keyboard-response,320,705662,0.0-1.0-64.0-0.0-0.0,0,0,26705,,761.0,,,75.0,62.0,62.0,2000.0,1500.0,0.0,1.0,1.0,80-80,1.0,,small table,small table,80.0,80.0,small table7,small table2,80.0,100.0,ATABLE89.jpg,Atable126.jpg,/static/Category_learning/Stimuli/Experimental_stims/small table/ATABLE89.jpg,/static/Category_learning/Stimuli/Experimental_stims/small table/Atable126.jpg,0.0,small table,small table,80.0,80.0,small table2,small table7,100.0,80.0,0.0,332.261,0.761,,,,,,
321,,confirmation,,html-keyboard-response,321,706418,0.0-1.0-64.0-0.0-1.0-0.0,0,0,26705,,,,,,62.0,,,,,,,,,,,,,,,,,,,,,,,,,,,,,,,,333.0,0.739,,,,,,
322,,isi,,html-keyboard-response,322,708427,0.0-1.0-64.0-0.0-2.0,0,0,26705,,,,,,,,,,,,,,,,,,,,,,,,,,,,,,,,,,,,,,335.0,2.0,,,,,,
323,,feedback,,html-keyboard-response,323,709442,0.0-1.0-64.0-0.0-3.0-0.0,0,0,26705,,,,,,62.0,,,,,,,,,,,,,,,,,,,,,,,,,,,,,,,,336.0,1.0,,,,,,
324,,iti,,html-keyboard-response,324,710957,0.0-1.0-64.0-0.0-5.0,0,0,26705,,,,,,,,,,,,,,,,,,,,,,,,,,,,,,,,,,,,,,337.5,1.5,,,,,,
325,,choice,,html-keyboard-response,325,711558,0.0-1.0-65.0-0.0-0.0,0,0,26705,,591.0,,,68.0,63.0,63.0,3000.0,3000.0,0.0,1.0,0.0,20-60,,1.0,key chain,stool,60.0,20.0,key chain9,stool12,80.0,0.0,sfx8832-ferrari-shield-keychain.jpg,henrybar_stool1.jpg,/static/Category_learning/Stimuli/Experimental_stims/key chain/sfx8832-ferrari-shield-keychain.jpg,/static/Category_learning/Stimuli/Experimental_stims/stool/henrybar_stool1.jpg,1.0,key chain,stool,60.0,20.0,key chain9,stool12,80.0,0.0,0.0,338.091,0.591,,,,,,
326,,confirmation,,html-keyboard-response,326,712486,0.0-1.0-65.0-0.0-1.0-0.0,0,0,26705,,,,,,63.0,,,,,,,,,,,,,,,,,,,,,,,,,,,,,,,,339.0,0.909,,,,,,
327,,isi,,html-keyboard-response,327,715509,0.0-1.0-65.0-0.0-2.0,0,0,26705,,,,,,,,,,,,,,,,,,,,,,,,,,,,,,,,,,,,,,342.0,3.0,,,,,,
328,,feedback,,html-keyboard-response,328,716519,0.0-1.0-65.0-0.0-3.0-0.0,0,0,26705,,,,,,63.0,,,,,,,,,,,,,,,,,,,,,,,,,,,,,,,,343.0,1.0,,,,,,
329,,iti,,html-keyboard-response,329,719534,0.0-1.0-65.0-0.0-5.0,0,0,26705,,,,,,,,,,,,,,,,,,,,,,,,,,,,,,,,,,,,,,346.0,3.0,,,,,,
330,,choice,,html-keyboard-response,330,720199,0.0-1.0-66.0-0.0-0.0,0,0,26705,,655.0,,,75.0,64.0,64.0,1000.0,1500.0,0.0,1.0,1.0,60-60,1.0,,key chain,key chain,60.0,60.0,key chain14,key chain9,40.0,80.0,Jif Keychain 285.jpg,sfx8832-ferrari-shield-keychain.jpg,/static/Category_learning/Stimuli/Experimental_stims/key chain/Jif Keychain 285.jpg,/static/Category_learning/Stimuli/Experimental_stims/key chain/sfx8832-ferrari-shield-keychain.jpg,0.0,key chain,key chain,60.0,60.0,key chain9,key chain14,80.0,40.0,0.0,346.655,0.655,,,,,,
331,,confirmation,,html-keyboard-response,331,721057,0.0-1.0-66.0-0.0-1.0-0.0,0,0,26705,,,,,,64.0,,,,,,,,,,,,,,,,,,,,,,,,,,,,,,,,347.5,0.845,,,,,,
332,,isi,,html-keyboard-response,332,722088,0.0-1.0-66.0-0.0-2.0,0,0,26705,,,,,,,,,,,,,,,,,,,,,,,,,,,,,,,,,,,,,,348.5,1.0,,,,,,
333,,feedback,,html-keyboard-response,333,723116,0.0-1.0-66.0-0.0-3.0-0.0,0,0,26705,,,,,,64.0,,,,,,,,,,,,,,,,,,,,,,,,,,,,,,,,349.5,1.0,,,,,,
334,,iti,,html-keyboard-response,334,724630,0.0-1.0-66.0-0.0-5.0,0,0,26705,,,,,,,,,,,,,,,,,,,,,,,,,,,,,,,,,,,,,,351.0,1.5,,,,,,
335,,block_over,,html-keyboard-response,335,827817,0.0-1.0-66.0-0.0-7.0-0.0,0,0,26705,,103154.0,,,68.0,64.0,,,,,,,,,,,,,,,,,,,,,,,,,,,,,,,,,,,,,,,
336,,start_run,,html-keyboard-response,336,830126,0.0-1.0-66.0-0.0-7.0-1.0,0,0,26705,,2295.0,,,84.0,,,,,,,,,,,,,,,,,,,,,,,,,,,,,,,,,,,,,,,,
337,,choice,,html-keyboard-response,337,831053,0.0-1.0-67.0-0.0-0.0,0,0,26705,,916.0,,,68.0,65.0,65.0,1000.0,1500.0,0.0,2.0,0.0,20-60,,0.0,tent,hammer,20.0,60.0,tent10,hammer4,0.0,60.0,TENT-DUTCH-GD1-1.jpg,hammernew01.jpg,/static/Category_learning/Stimuli/Experimental_stims/tent/TENT-DUTCH-GD1-1.jpg,/static/Category_learning/Stimuli/Experimental_stims/hammer/hammernew01.jpg,1.0,tent,hammer,20.0,60.0,tent10,hammer4,0.0,60.0,0.0,0.916,0.916,,,,,,
338,,confirmation,,html-keyboard-response,338,831654,0.0-1.0-67.0-0.0-1.0-0.0,0,0,26705,,,,,,65.0,,,,,,,,,,,,,,,,,,,,,,,,,,,,,,,,1.5,0.584,,,,,,
339,,isi,,html-keyboard-response,339,832676,0.0-1.0-67.0-0.0-2.0,0,0,26705,,,,,,,,,,,,,,,,,,,,,,,,,,,,,,,,,,,,,,2.5,1.0,,,,,,
340,,feedback,,html-keyboard-response,340,833696,0.0-1.0-67.0-0.0-3.0-0.0,0,0,26705,,,,,,65.0,,,,,,,,,,,,,,,,,,,,,,,,,,,,,,,,3.5,1.0,,,,,,
341,,iti,,html-keyboard-response,341,835218,0.0-1.0-67.0-0.0-5.0,0,0,26705,,,,,,,,,,,,,,,,,,,,,,,,,,,,,,,,,,,,,,5.0,1.5,,,,,,
342,,choice,,html-keyboard-response,342,835671,0.0-1.0-68.0-0.0-0.0,0,0,26705,,444.0,,,68.0,66.0,66.0,3000.0,1000.0,0.0,2.0,0.0,40-80,,1.0,patio lounge chair,bench,80.0,40.0,patio lounge chair11,bench3,100.0,20.0,51830.jpg,26419540.thl.jpg,/static/Category_learning/Stimuli/Experimental_stims/patio lounge chair/51830.jpg,/static/Category_learning/Stimuli/Experimental_stims/bench/26419540.thl.jpg,1.0,patio lounge chair,bench,80.0,40.0,patio lounge chair11,bench3,100.0,20.0,0.0,5.444,0.444,,,,,,
343,,confirmation,,html-keyboard-response,343,836751,0.0-1.0-68.0-0.0-1.0-0.0,0,0,26705,,,,,,66.0,,,,,,,,,,,,,,,,,,,,,,,,,,,,,,,,6.5,1.056,,,,,,
344,,isi,,html-keyboard-response,344,839776,0.0-1.0-68.0-0.0-2.0,0,0,26705,,,,,,,,,,,,,,,,,,,,,,,,,,,,,,,,,,,,,,9.5,3.0,,,,,,
345,,feedback,,html-keyboard-response,345,840797,0.0-1.0-68.0-0.0-3.0-0.0,0,0,26705,,,,,,66.0,,,,,,,,,,,,,,,,,,,,,,,,,,,,,,,,10.5,1.0,,,,,,
346,,iti,,html-keyboard-response,346,841806,0.0-1.0-68.0-0.0-5.0,0,0,26705,,,,,,,,,,,,,,,,,,,,,,,,,,,,,,,,,,,,,,11.5,1.0,,,,,,
347,,choice,,html-keyboard-response,347,842320,0.0-1.0-69.0-0.0-0.0,0,0,26705,,504.0,,,75.0,67.0,67.0,1500.0,1500.0,0.0,2.0,0.0,20-20,,,trumpet,watch,20.0,20.0,trumpet12,watch6,40.0,20.0,hornabariton.jpg,B0000X04VC.01-A4LKQQKJ91IUZ._AA280_SCLZZZZZZZ_.jpg,/static/Category_learning/Stimuli/Experimental_stims/trumpet/hornabariton.jpg,/static/Category_learning/Stimuli/Experimental_stims/watch/B0000X04VC.01-A4LKQQKJ91IUZ._AA280_SCLZZZZZZZ_.jpg,0.0,watch,trumpet,20.0,20.0,watch6,trumpet12,20.0,40.0,0.0,12.004,0.504,,,,,,
348,,confirmation,,html-keyboard-response,348,843337,0.0-1.0-69.0-0.0-1.0-0.0,0,0,26705,,,,,,67.0,,,,,,,,,,,,,,,,,,,,,,,,,,,,,,,,13.0,0.996,,,,,,
349,,isi,,html-keyboard-response,349,844850,0.0-1.0-69.0-0.0-2.0,0,0,26705,,,,,,,,,,,,,,,,,,,,,,,,,,,,,,,,,,,,,,14.5,1.5,,,,,,
350,,feedback,,html-keyboard-response,350,845876,0.0-1.0-69.0-0.0-3.0-0.0,0,0,26705,,,,,,67.0,,,,,,,,,,,,,,,,,,,,,,,,,,,,,,,,15.5,1.0,,,,,,
351,,iti,,html-keyboard-response,351,847400,0.0-1.0-69.0-0.0-5.0,0,0,26705,,,,,,,,,,,,,,,,,,,,,,,,,,,,,,,,,,,,,,17.0,1.5,,,,,,
352,,choice,,html-keyboard-response,352,847903,0.0-1.0-70.0-0.0-0.0,0,0,26705,,487.0,,,68.0,68.0,68.0,2000.0,1500.0,0.0,2.0,0.0,20-80,,0.0,yarn,small table,20.0,80.0,yarn1,small table8,40.0,60.0,corn_yarn.jpg,ATABLE8.jpg,/static/Category_learning/Stimuli/Experimental_stims/yarn/corn_yarn.jpg,/static/Category_learning/Stimuli/Experimental_stims/small table/ATABLE8.jpg,1.0,yarn,small table,20.0,80.0,yarn1,small table8,40.0,60.0,0.0,17.487,0.487,,,,,,
353,,confirmation,,html-keyboard-response,353,848939,0.0-1.0-70.0-0.0-1.0-0.0,0,0,26705,,,,,,68.0,,,,,,,,,,,,,,,,,,,,,,,,,,,,,,,,18.5,1.013,,,,,,
354,,isi,,html-keyboard-response,354,850958,0.0-1.0-70.0-0.0-2.0,0,0,26705,,,,,,,,,,,,,,,,,,,,,,,,,,,,,,,,,,,,,,20.5,2.0,,,,,,
355,,feedback,,html-keyboard-response,355,851974,0.0-1.0-70.0-0.0-3.0-0.0,0,0,26705,,,,,,68.0,,,,,,,,,,,,,,,,,,,,,,,,,,,,,,,,21.5,1.0,,,,,,
356,,iti,,html-keyboard-response,356,853496,0.0-1.0-70.0-0.0-5.0,0,0,26705,,,,,,,,,,,,,,,,,,,,,,,,,,,,,,,,,,,,,,23.0,1.5,,,,,,
357,,choice,,html-keyboard-response,357,854078,0.0-1.0-71.0-0.0-0.0,0,0,26705,,573.0,,,68.0,69.0,69.0,1000.0,2000.0,0.0,2.0,0.0,60-60,,,makeup compact,hat,60.0,60.0,makeup compact12,hat5,80.0,40.0,P139103_hero.jpg,AREDHAT4.jpg,/static/Category_learning/Stimuli/Experimental_stims/makeup compact/P139103_hero.jpg,/static/Category_learning/Stimuli/Experimental_stims/hat/AREDHAT4.jpg,1.0,makeup compact,hat,60.0,60.0,makeup compact12,hat5,80.0,40.0,0.0,23.573,0.573,,,,,,
358,,confirmation,,html-keyboard-response,358,855018,0.0-1.0-71.0-0.0-1.0-0.0,0,0,26705,,,,,,69.0,,,,,,,,,,,,,,,,,,,,,,,,,,,,,,,,24.5,0.927,,,,,,
359,,isi,,html-keyboard-response,359,856047,0.0-1.0-71.0-0.0-2.0,0,0,26705,,,,,,,,,,,,,,,,,,,,,,,,,,,,,,,,,,,,,,25.5,1.0,,,,,,
360,,feedback,,html-keyboard-response,360,857067,0.0-1.0-71.0-0.0-3.0-0.0,0,0,26705,,,,,,69.0,,,,,,,,,,,,,,,,,,,,,,,,,,,,,,,,26.5,1.0,,,,,,
361,,iti,,html-keyboard-response,361,859084,0.0-1.0-71.0-0.0-5.0,0,0,26705,,,,,,,,,,,,,,,,,,,,,,,,,,,,,,,,,,,,,,28.5,2.0,,,,,,
362,,choice,,html-keyboard-response,362,859770,0.0-1.0-72.0-0.0-0.0,0,0,26705,,675.0,,,75.0,70.0,70.0,1000.0,1000.0,0.0,2.0,0.0,40-60,,0.0,dresser,lipstick,40.0,60.0,dresser4,lipstick5,60.0,40.0,ADRESSE40.jpg,P35719_hero.jpg,/static/Category_learning/Stimuli/Experimental_stims/dresser/ADRESSE40.jpg,/static/Category_learning/Stimuli/Experimental_stims/lipstick/P35719_hero.jpg,0.0,lipstick,dresser,60.0,40.0,lipstick5,dresser4,40.0,60.0,0.0,29.175,0.675,,,,,,
363,,confirmation,,html-keyboard-response,363,860615,0.0-1.0-72.0-0.0-1.0-0.0,0,0,26705,,,,,,70.0,,,,,,,,,,,,,,,,,,,,,,,,,,,,,,,,30.0,0.825,,,,,,
364,,isi,,html-keyboard-response,364,861636,0.0-1.0-72.0-0.0-2.0,0,0,26705,,,,,,,,,,,,,,,,,,,,,,,,,,,,,,,,,,,,,,31.0,1.0,,,,,,
365,,feedback,,html-keyboard-response,365,862652,0.0-1.0-72.0-0.0-3.0-0.0,0,0,26705,,,,,,70.0,,,,,,,,,,,,,,,,,,,,,,,,,,,,,,,,32.0,1.0,,,,,,
366,,iti,,html-keyboard-response,366,863664,0.0-1.0-72.0-0.0-5.0,0,0,26705,,,,,,,,,,,,,,,,,,,,,,,,,,,,,,,,,,,,,,33.0,1.0,,,,,,
367,,choice,,html-keyboard-response,367,864356,0.0-1.0-73.0-0.0-0.0,0,0,26705,,685.0,,,75.0,71.0,71.0,1000.0,1500.0,0.0,2.0,1.0,60-60,1.0,,lipstick,lipstick,60.0,60.0,lipstick10,lipstick5,60.0,40.0,21K0D7QKFAL._SS500_.jpg,P35719_hero.jpg,/static/Category_learning/Stimuli/Experimental_stims/lipstick/21K0D7QKFAL._SS500_.jpg,/static/Category_learning/Stimuli/Experimental_stims/lipstick/P35719_hero.jpg,0.0,lipstick,lipstick,60.0,60.0,lipstick5,lipstick10,40.0,60.0,0.0,33.685,0.685,,,,,,
368,,confirmation,,html-keyboard-response,368,865194,0.0-1.0-73.0-0.0-1.0-0.0,0,0,26705,,,,,,71.0,,,,,,,,,,,,,,,,,,,,,,,,,,,,,,,,34.5,0.815,,,,,,
369,,isi,,html-keyboard-response,369,866216,0.0-1.0-73.0-0.0-2.0,0,0,26705,,,,,,,,,,,,,,,,,,,,,,,,,,,,,,,,,,,,,,35.5,1.0,,,,,,
370,,feedback,,html-keyboard-response,370,867227,0.0-1.0-73.0-0.0-3.0-0.0,0,0,26705,,,,,,71.0,,,,,,,,,,,,,,,,,,,,,,,,,,,,,,,,36.5,1.0,,,,,,
371,,iti,,html-keyboard-response,371,868737,0.0-1.0-73.0-0.0-5.0,0,0,26705,,,,,,,,,,,,,,,,,,,,,,,,,,,,,,,,,,,,,,38.0,1.5,,,,,,
372,,choice,,html-keyboard-response,372,869481,0.0-1.0-74.0-0.0-0.0,0,0,26705,,731.0,,,68.0,72.0,72.0,2000.0,2000.0,0.0,2.0,0.0,40-60,,1.0,hat,desk,60.0,40.0,hat10,desk11,80.0,60.0,Atornhat3.jpg,Writing_Desk_280_Cutout_Sideview_half.jpg,/static/Category_learning/Stimuli/Experimental_stims/hat/Atornhat3.jpg,/static/Category_learning/Stimuli/Experimental_stims/desk/Writing_Desk_280_Cutout_Sideview_half.jpg,1.0,hat,desk,60.0,40.0,hat10,desk11,80.0,60.0,0.0,38.731,0.731,,,,,,
373,,confirmation,,html-keyboard-response,373,870261,0.0-1.0-74.0-0.0-1.0-0.0,0,0,26705,,,,,,72.0,,,,,,,,,,,,,,,,,,,,,,,,,,,,,,,,39.5,0.769,,,,,,
374,,isi,,html-keyboard-response,374,872276,0.0-1.0-74.0-0.0-2.0,0,0,26705,,,,,,,,,,,,,,,,,,,,,,,,,,,,,,,,,,,,,,41.5,2.0,,,,,,
375,,feedback,,html-keyboard-response,375,873297,0.0-1.0-74.0-0.0-3.0-0.0,0,0,26705,,,,,,72.0,,,,,,,,,,,,,,,,,,,,,,,,,,,,,,,,42.5,1.0,,,,,,
376,,iti,,html-keyboard-response,376,875312,0.0-1.0-74.0-0.0-5.0,0,0,26705,,,,,,,,,,,,,,,,,,,,,,,,,,,,,,,,,,,,,,44.5,2.0,,,,,,
377,,choice,,html-keyboard-response,377,876186,0.0-1.0-75.0-0.0-0.0,0,0,26705,,861.0,,,75.0,73.0,73.0,1500.0,1000.0,0.0,2.0,1.0,20-20,1.0,,yarn,yarn,20.0,20.0,yarn1,yarn2,40.0,20.0,corn_yarn.jpg,Aballofyarn66.jpg,/static/Category_learning/Stimuli/Experimental_stims/yarn/corn_yarn.jpg,/static/Category_learning/Stimuli/Experimental_stims/yarn/Aballofyarn66.jpg,0.0,yarn,yarn,20.0,20.0,yarn2,yarn1,20.0,40.0,0.0,45.361,0.861,,,,,,
378,,confirmation,,html-keyboard-response,378,876848,0.0-1.0-75.0-0.0-1.0-0.0,0,0,26705,,,,,,73.0,,,,,,,,,,,,,,,,,,,,,,,,,,,,,,,,46.0,0.639,,,,,,
379,,isi,,html-keyboard-response,379,878363,0.0-1.0-75.0-0.0-2.0,0,0,26705,,,,,,,,,,,,,,,,,,,,,,,,,,,,,,,,,,,,,,47.5,1.5,,,,,,
380,,feedback,,html-keyboard-response,380,879386,0.0-1.0-75.0-0.0-3.0-0.0,0,0,26705,,,,,,73.0,,,,,,,,,,,,,,,,,,,,,,,,,,,,,,,,48.5,1.0,,,,,,
381,,iti,,html-keyboard-response,381,880401,0.0-1.0-75.0-0.0-5.0,0,0,26705,,,,,,,,,,,,,,,,,,,,,,,,,,,,,,,,,,,,,,49.5,1.0,,,,,,
382,,choice,,html-keyboard-response,382,881122,0.0-1.0-76.0-0.0-0.0,0,0,26705,,711.0,,,68.0,74.0,74.0,1500.0,1000.0,0.0,2.0,1.0,60-60,1.0,,hat,hat,60.0,60.0,hat10,hat1,80.0,60.0,Atornhat3.jpg,AGREENHAT.jpg,/static/Category_learning/Stimuli/Experimental_stims/hat/Atornhat3.jpg,/static/Category_learning/Stimuli/Experimental_stims/hat/AGREENHAT.jpg,1.0,hat,hat,60.0,60.0,hat10,hat1,80.0,60.0,0.0,50.211,0.711,,,,,,
383,,confirmation,,html-keyboard-response,383,881926,0.0-1.0-76.0-0.0-1.0-0.0,0,0,26705,,,,,,74.0,,,,,,,,,,,,,,,,,,,,,,,,,,,,,,,,51.0,0.789,,,,,,
384,,isi,,html-keyboard-response,384,883436,0.0-1.0-76.0-0.0-2.0,0,0,26705,,,,,,,,,,,,,,,,,,,,,,,,,,,,,,,,,,,,,,52.5,1.5,,,,,,
385,,feedback,,html-keyboard-response,385,884457,0.0-1.0-76.0-0.0-3.0-0.0,0,0,26705,,,,,,74.0,,,,,,,,,,,,,,,,,,,,,,,,,,,,,,,,53.5,1.0,,,,,,
386,,iti,,html-keyboard-response,386,885476,0.0-1.0-76.0-0.0-5.0,0,0,26705,,,,,,,,,,,,,,,,,,,,,,,,,,,,,,,,,,,,,,54.5,1.0,,,,,,
387,,choice,,html-keyboard-response,387,886230,0.0-1.0-77.0-0.0-0.0,0,0,26705,,744.0,,,68.0,75.0,75.0,1000.0,1000.0,0.0,2.0,0.0,60-60,,,microscope,hat,60.0,60.0,microscope8,hat14,60.0,60.0,AMICROS21.jpg,Ahat136.jpg,/static/Category_learning/Stimuli/Experimental_stims/microscope/AMICROS21.jpg,/static/Category_learning/Stimuli/Experimental_stims/hat/Ahat136.jpg,1.0,microscope,hat,60.0,60.0,microscope8,hat14,60.0,60.0,0.0,55.244,0.744,,,,,,
388,,confirmation,,html-keyboard-response,388,887015,0.0-1.0-77.0-0.0-1.0-0.0,0,0,26705,,,,,,75.0,,,,,,,,,,,,,,,,,,,,,,,,,,,,,,,,56.0,0.756,,,,,,
389,,isi,,html-keyboard-response,389,888025,0.0-1.0-77.0-0.0-2.0,0,0,26705,,,,,,,,,,,,,,,,,,,,,,,,,,,,,,,,,,,,,,57.0,1.0,,,,,,
390,,feedback,,html-keyboard-response,390,889042,0.0-1.0-77.0-0.0-3.0-0.0,0,0,26705,,,,,,75.0,,,,,,,,,,,,,,,,,,,,,,,,,,,,,,,,58.0,1.0,,,,,,
391,,iti,,html-keyboard-response,391,890061,0.0-1.0-77.0-0.0-5.0,0,0,26705,,,,,,,,,,,,,,,,,,,,,,,,,,,,,,,,,,,,,,59.0,1.0,,,,,,
392,,choice,,html-keyboard-response,392,890799,0.0-1.0-78.0-0.0-0.0,0,0,26705,,727.0,,,75.0,76.0,76.0,2000.0,2000.0,0.0,2.0,0.0,40-60,,0.0,door knob,frame,40.0,60.0,door knob8,frame10,40.0,80.0,pro_l_116_medeco437ul.jpg,AFRAME107.jpg,/static/Category_learning/Stimuli/Experimental_stims/door knob/pro_l_116_medeco437ul.jpg,/static/Category_learning/Stimuli/Experimental_stims/frame/AFRAME107.jpg,0.0,frame,door knob,60.0,40.0,frame10,door knob8,80.0,40.0,0.0,59.727,0.727,,,,,,
393,,confirmation,,html-keyboard-response,393,891601,0.0-1.0-78.0-0.0-1.0-0.0,0,0,26705,,,,,,76.0,,,,,,,,,,,,,,,,,,,,,,,,,,,,,,,,60.5,0.773,,,,,,
394,,isi,,html-keyboard-response,394,893618,0.0-1.0-78.0-0.0-2.0,0,0,26705,,,,,,,,,,,,,,,,,,,,,,,,,,,,,,,,,,,,,,62.5,2.0,,,,,,
395,,feedback,,html-keyboard-response,395,894629,0.0-1.0-78.0-0.0-3.0-0.0,0,0,26705,,,,,,76.0,,,,,,,,,,,,,,,,,,,,,,,,,,,,,,,,63.5,1.0,,,,,,
396,,iti,,html-keyboard-response,396,896656,0.0-1.0-78.0-0.0-5.0,0,0,26705,,,,,,,,,,,,,,,,,,,,,,,,,,,,,,,,,,,,,,65.5,2.0,,,,,,
397,,choice,,html-keyboard-response,397,897412,0.0-1.0-79.0-0.0-0.0,0,0,26705,,746.0,,,68.0,77.0,77.0,1500.0,2000.0,0.0,2.0,0.0,40-60,,0.0,bench,hat,40.0,60.0,bench6,hat3,20.0,60.0,26370121.thl.jpg,Astrawhat49.jpg,/static/Category_learning/Stimuli/Experimental_stims/bench/26370121.thl.jpg,/static/Category_learning/Stimuli/Experimental_stims/hat/Astrawhat49.jpg,1.0,bench,hat,40.0,60.0,bench6,hat3,20.0,60.0,0.0,66.246,0.746,,,,,,
398,,confirmation,,html-keyboard-response,398,898176,0.0-1.0-79.0-0.0-1.0-0.0,0,0,26705,,,,,,77.0,,,,,,,,,,,,,,,,,,,,,,,,,,,,,,,,67.0,0.754,,,,,,
399,,isi,,html-keyboard-response,399,899690,0.0-1.0-79.0-0.0-2.0,0,0,26705,,,,,,,,,,,,,,,,,,,,,,,,,,,,,,,,,,,,,,68.5,1.5,,,,,,
400,,feedback,,html-keyboard-response,400,900753,0.0-1.0-79.0-0.0-3.0-0.0,0,0,26705,,,,,,77.0,,,,,,,,,,,,,,,,,,,,,,,,,,,,,,,,69.5,1.0,,,,,,
401,,iti,,html-keyboard-response,401,902773,0.0-1.0-79.0-0.0-5.0,0,0,26705,,,,,,,,,,,,,,,,,,,,,,,,,,,,,,,,,,,,,,71.5,2.0,,,,,,
402,,choice,,html-keyboard-response,402,903579,0.0-1.0-80.0-0.0-0.0,0,0,26705,,796.0,,,68.0,78.0,78.0,2000.0,1500.0,0.0,2.0,0.0,40-80,,1.0,nail polish,baby carriage,80.0,40.0,nail polish15,baby carriage1,60.0,40.0,MA_NP_WSD.jpg,babycarriage16.jpg,/static/Category_learning/Stimuli/Experimental_stims/nail polish/MA_NP_WSD.jpg,/static/Category_learning/Stimuli/Experimental_stims/baby carriage/babycarriage16.jpg,1.0,nail polish,baby carriage,80.0,40.0,nail polish15,baby carriage1,60.0,40.0,0.0,72.296,0.796,,,,,,
403,,confirmation,,html-keyboard-response,403,904307,0.0-1.0-80.0-0.0-1.0-0.0,0,0,26705,,,,,,78.0,,,,,,,,,,,,,,,,,,,,,,,,,,,,,,,,73.0,0.704,,,,,,
404,,isi,,html-keyboard-response,404,906322,0.0-1.0-80.0-0.0-2.0,0,0,26705,,,,,,,,,,,,,,,,,,,,,,,,,,,,,,,,,,,,,,75.0,2.0,,,,,,
405,,feedback,,html-keyboard-response,405,907336,0.0-1.0-80.0-0.0-3.0-0.0,0,0,26705,,,,,,78.0,,,,,,,,,,,,,,,,,,,,,,,,,,,,,,,,76.0,1.0,,,,,,
406,,iti,,html-keyboard-response,406,908856,0.0-1.0-80.0-0.0-5.0,0,0,26705,,,,,,,,,,,,,,,,,,,,,,,,,,,,,,,,,,,,,,77.5,1.5,,,,,,
407,,choice,,html-keyboard-response,407,909822,0.0-1.0-81.0-0.0-0.0,0,0,26705,,955.0,,,68.0,79.0,79.0,1000.0,1500.0,0.0,2.0,0.0,40-80,,1.0,poker card,bongo,80.0,40.0,poker card2,bongo9,100.0,20.0,22864716.thl.jpg,22946035.thl.jpg,/static/Category_learning/Stimuli/Experimental_stims/poker card/22864716.thl.jpg,/static/Category_learning/Stimuli/Experimental_stims/bongo/22946035.thl.jpg,1.0,poker card,bongo,80.0,40.0,poker card2,bongo9,100.0,20.0,0.0,78.455,0.955,,,,,,
408,,confirmation,,html-keyboard-response,408,910398,0.0-1.0-81.0-0.0-1.0-0.0,0,0,26705,,,,,,79.0,,,,,,,,,,,,,,,,,,,,,,,,,,,,,,,,79.0,0.545,,,,,,
409,,isi,,html-keyboard-response,409,911430,0.0-1.0-81.0-0.0-2.0,0,0,26705,,,,,,,,,,,,,,,,,,,,,,,,,,,,,,,,,,,,,,80.0,1.0,,,,,,
410,,feedback,,html-keyboard-response,410,912448,0.0-1.0-81.0-0.0-3.0-0.0,0,0,26705,,,,,,79.0,,,,,,,,,,,,,,,,,,,,,,,,,,,,,,,,81.0,1.0,,,,,,
411,,iti,,html-keyboard-response,411,913960,0.0-1.0-81.0-0.0-5.0,0,0,26705,,,,,,,,,,,,,,,,,,,,,,,,,,,,,,,,,,,,,,82.5,1.5,,,,,,
412,,choice,,html-keyboard-response,412,914976,0.0-1.0-82.0-0.0-0.0,0,0,26705,,1004.0,,,68.0,80.0,80.0,1000.0,1000.0,0.0,2.0,0.0,80-80,,,seashell,patio lounge chair,80.0,80.0,seashell6,patio lounge chair3,80.0,60.0,PY2H1461.jpg,Lounge_Chair.jpg,/static/Category_learning/Stimuli/Experimental_stims/seashell/PY2H1461.jpg,/static/Category_learning/Stimuli/Experimental_stims/patio lounge chair/Lounge_Chair.jpg,1.0,seashell,patio lounge chair,80.0,80.0,seashell6,patio lounge chair3,80.0,60.0,0.0,83.504,1.004,,,,,,
413,,confirmation,,html-keyboard-response,413,915493,0.0-1.0-82.0-0.0-1.0-0.0,0,0,26705,,,,,,80.0,,,,,,,,,,,,,,,,,,,,,,,,,,,,,,,,84.0,0.496,,,,,,
414,,isi,,html-keyboard-response,414,916507,0.0-1.0-82.0-0.0-2.0,0,0,26705,,,,,,,,,,,,,,,,,,,,,,,,,,,,,,,,,,,,,,85.0,1.0,,,,,,
415,,feedback,,html-keyboard-response,415,917526,0.0-1.0-82.0-0.0-3.0-0.0,0,0,26705,,,,,,80.0,,,,,,,,,,,,,,,,,,,,,,,,,,,,,,,,86.0,1.0,,,,,,
416,,iti,,html-keyboard-response,416,918551,0.0-1.0-82.0-0.0-5.0,0,0,26705,,,,,,,,,,,,,,,,,,,,,,,,,,,,,,,,,,,,,,87.0,1.0,,,,,,
417,,choice,,html-keyboard-response,417,919410,0.0-1.0-83.0-0.0-0.0,0,0,26705,,847.0,,,68.0,81.0,81.0,1000.0,3500.0,0.0,2.0,0.0,20-80,,0.0,tape,small table,20.0,80.0,tape10,small table10,20.0,100.0,26377601.thl.jpg,ATABLE41.jpg,/static/Category_learning/Stimuli/Experimental_stims/tape/26377601.thl.jpg,/static/Category_learning/Stimuli/Experimental_stims/small table/ATABLE41.jpg,1.0,tape,small table,20.0,80.0,tape10,small table10,20.0,100.0,0.0,87.847,0.847,,,,,,
418,,confirmation,,html-keyboard-response,418,920085,0.0-1.0-83.0-0.0-1.0-0.0,0,0,26705,,,,,,81.0,,,,,,,,,,,,,,,,,,,,,,,,,,,,,,,,88.5,0.653,,,,,,
419,,isi,,html-keyboard-response,419,921107,0.0-1.0-83.0-0.0-2.0,0,0,26705,,,,,,,,,,,,,,,,,,,,,,,,,,,,,,,,,,,,,,89.5,1.0,,,,,,
420,,feedback,,html-keyboard-response,420,922131,0.0-1.0-83.0-0.0-3.0-0.0,0,0,26705,,,,,,81.0,,,,,,,,,,,,,,,,,,,,,,,,,,,,,,,,90.5,1.0,,,,,,
421,,iti,,html-keyboard-response,421,925645,0.0-1.0-83.0-0.0-5.0,0,0,26705,,,,,,,,,,,,,,,,,,,,,,,,,,,,,,,,,,,,,,94.0,3.5,,,,,,
422,,choice,,html-keyboard-response,422,926969,0.0-1.0-84.0-0.0-0.0,0,0,26705,,1313.0,,,75.0,82.0,82.0,1000.0,3500.0,0.0,2.0,0.0,20-60,,0.0,stool,frame,20.0,60.0,stool14,frame7,40.0,40.0,hjscott-sbs-b-bar-stool.jpg,AFRAME152.jpg,/static/Category_learning/Stimuli/Experimental_stims/stool/hjscott-sbs-b-bar-stool.jpg,/static/Category_learning/Stimuli/Experimental_stims/frame/AFRAME152.jpg,0.0,frame,stool,60.0,20.0,frame7,stool14,40.0,40.0,0.0,95.313,1.313,,,,,,
423,,confirmation,,html-keyboard-response,423,927176,0.0-1.0-84.0-0.0-1.0-0.0,0,0,26705,,,,,,82.0,,,,,,,,,,,,,,,,,,,,,,,,,,,,,,,,95.5,0.187,,,,,,
424,,isi,,html-keyboard-response,424,928188,0.0-1.0-84.0-0.0-2.0,0,0,26705,,,,,,,,,,,,,,,,,,,,,,,,,,,,,,,,,,,,,,96.5,1.0,,,,,,
425,,feedback,,html-keyboard-response,425,929209,0.0-1.0-84.0-0.0-3.0-0.0,0,0,26705,,,,,,82.0,,,,,,,,,,,,,,,,,,,,,,,,,,,,,,,,97.5,1.0,,,,,,
426,,iti,,html-keyboard-response,426,932732,0.0-1.0-84.0-0.0-5.0,0,0,26705,,,,,,,,,,,,,,,,,,,,,,,,,,,,,,,,,,,,,,101.0,3.5,,,,,,
427,,choice,,html-keyboard-response,427,933515,0.0-1.0-85.0-0.0-0.0,0,0,26705,,771.0,,,68.0,83.0,83.0,3500.0,3000.0,0.0,2.0,0.0,20-60,,0.0,telescope,hammer,20.0,60.0,telescope10,hammer1,40.0,60.0,digimarc.ms02.jpg,fosnaugh.hammer.jpg,/static/Category_learning/Stimuli/Experimental_stims/telescope/digimarc.ms02.jpg,/static/Category_learning/Stimuli/Experimental_stims/hammer/fosnaugh.hammer.jpg,1.0,telescope,hammer,20.0,60.0,telescope10,hammer1,40.0,60.0,0.0,101.771,0.771,,,,,,
428,,confirmation,,html-keyboard-response,428,934269,0.0-1.0-85.0-0.0-1.0-0.0,0,0,26705,,,,,,83.0,,,,,,,,,,,,,,,,,,,,,,,,,,,,,,,,102.5,0.729,,,,,,
429,,isi,,html-keyboard-response,429,937796,0.0-1.0-85.0-0.0-2.0,0,0,26705,,,,,,,,,,,,,,,,,,,,,,,,,,,,,,,,,,,,,,106.0,3.5,,,,,,
430,,feedback,,html-keyboard-response,430,938814,0.0-1.0-85.0-0.0-3.0-0.0,0,0,26705,,,,,,83.0,,,,,,,,,,,,,,,,,,,,,,,,,,,,,,,,107.0,1.0,,,,,,
431,,iti,,html-keyboard-response,431,941837,0.0-1.0-85.0-0.0-5.0,0,0,26705,,,,,,,,,,,,,,,,,,,,,,,,,,,,,,,,,,,,,,110.0,3.0,,,,,,
432,,choice,,html-keyboard-response,432,942571,0.0-1.0-86.0-0.0-0.0,0,0,26705,,723.0,,,75.0,84.0,84.0,1000.0,1500.0,0.0,2.0,0.0,20-80,,1.0,small table,trumpet,80.0,20.0,small table14,trumpet4,100.0,0.0,Awoodtable13.jpg,JUPITER+JTR1000S.jpg,/static/Category_learning/Stimuli/Experimental_stims/small table/Awoodtable13.jpg,/static/Category_learning/Stimuli/Experimental_stims/trumpet/JUPITER+JTR1000S.jpg,0.0,trumpet,small table,20.0,80.0,trumpet4,small table14,0.0,100.0,0.0,110.723,0.723,,,,,,
433,,confirmation,,html-keyboard-response,433,943367,0.0-1.0-86.0-0.0-1.0-0.0,0,0,26705,,,,,,84.0,,,,,,,,,,,,,,,,,,,,,,,,,,,,,,,,111.5,0.777,,,,,,
434,,isi,,html-keyboard-response,434,944396,0.0-1.0-86.0-0.0-2.0,0,0,26705,,,,,,,,,,,,,,,,,,,,,,,,,,,,,,,,,,,,,,112.5,1.0,,,,,,
435,,feedback,,html-keyboard-response,435,945407,0.0-1.0-86.0-0.0-3.0-0.0,0,0,26705,,,,,,84.0,,,,,,,,,,,,,,,,,,,,,,,,,,,,,,,,113.5,1.0,,,,,,
436,,iti,,html-keyboard-response,436,946924,0.0-1.0-86.0-0.0-5.0,0,0,26705,,,,,,,,,,,,,,,,,,,,,,,,,,,,,,,,,,,,,,115.0,1.5,,,,,,
437,,choice,,html-keyboard-response,437,948131,0.0-1.0-87.0-0.0-0.0,0,0,26705,,1196.0,,,75.0,85.0,85.0,1500.0,3000.0,0.0,2.0,0.0,40-40,,,baby carriage,flashlight,40.0,40.0,baby carriage15,flashlight14,40.0,40.0,AANBABYC2.jpg,freeplay-jonta-flashlight.jpg,/static/Category_learning/Stimuli/Experimental_stims/baby carriage/AANBABYC2.jpg,/static/Category_learning/Stimuli/Experimental_stims/flashlight/freeplay-jonta-flashlight.jpg,0.0,flashlight,baby carriage,40.0,40.0,flashlight14,baby carriage15,40.0,40.0,0.0,116.196,1.196,,,,,,
438,,confirmation,,html-keyboard-response,438,948446,0.0-1.0-87.0-0.0-1.0-0.0,0,0,26705,,,,,,85.0,,,,,,,,,,,,,,,,,,,,,,,,,,,,,,,,116.5,0.304,,,,,,
439,,isi,,html-keyboard-response,439,949964,0.0-1.0-87.0-0.0-2.0,0,0,26705,,,,,,,,,,,,,,,,,,,,,,,,,,,,,,,,,,,,,,118.0,1.5,,,,,,
440,,feedback,,html-keyboard-response,440,950976,0.0-1.0-87.0-0.0-3.0-0.0,0,0,26705,,,,,,85.0,,,,,,,,,,,,,,,,,,,,,,,,,,,,,,,,119.0,1.0,,,,,,
441,,iti,,html-keyboard-response,441,953995,0.0-1.0-87.0-0.0-5.0,0,0,26705,,,,,,,,,,,,,,,,,,,,,,,,,,,,,,,,,,,,,,122.0,3.0,,,,,,
442,,choice,,html-keyboard-response,442,954690,0.0-1.0-88.0-0.0-0.0,0,0,26705,,683.0,,,68.0,86.0,86.0,2000.0,1000.0,0.0,2.0,1.0,60-60,1.0,,makeup compact,makeup compact,60.0,60.0,makeup compact12,makeup compact4,80.0,40.0,P139103_hero.jpg,262668_fpx.jpg,/static/Category_learning/Stimuli/Experimental_stims/makeup compact/P139103_hero.jpg,/static/Category_learning/Stimuli/Experimental_stims/makeup compact/262668_fpx.jpg,1.0,makeup compact,makeup compact,60.0,60.0,makeup compact12,makeup compact4,80.0,40.0,0.0,122.683,0.683,,,,,,
443,,confirmation,,html-keyboard-response,443,955522,0.0-1.0-88.0-0.0-1.0-0.0,0,0,26705,,,,,,86.0,,,,,,,,,,,,,,,,,,,,,,,,,,,,,,,,123.5,0.817,,,,,,
444,,isi,,html-keyboard-response,444,957536,0.0-1.0-88.0-0.0-2.0,0,0,26705,,,,,,,,,,,,,,,,,,,,,,,,,,,,,,,,,,,,,,125.5,2.0,,,,,,
445,,feedback,,html-keyboard-response,445,958562,0.0-1.0-88.0-0.0-3.0-0.0,0,0,26705,,,,,,86.0,,,,,,,,,,,,,,,,,,,,,,,,,,,,,,,,126.5,1.0,,,,,,
446,,iti,,html-keyboard-response,446,959575,0.0-1.0-88.0-0.0-5.0,0,0,26705,,,,,,,,,,,,,,,,,,,,,,,,,,,,,,,,,,,,,,127.5,1.0,,,,,,
447,,choice,,html-keyboard-response,447,960169,0.0-1.0-89.0-0.0-0.0,0,0,26705,,582.0,,,68.0,87.0,87.0,2000.0,1000.0,0.0,2.0,1.0,40-40,1.0,,bench,bench,40.0,40.0,bench6,bench9,20.0,40.0,26370121.thl.jpg,26419898.thl.jpg,/static/Category_learning/Stimuli/Experimental_stims/bench/26370121.thl.jpg,/static/Category_learning/Stimuli/Experimental_stims/bench/26419898.thl.jpg,1.0,bench,bench,40.0,40.0,bench6,bench9,20.0,40.0,0.0,128.082,0.582,,,,,,
448,,confirmation,,html-keyboard-response,448,961098,0.0-1.0-89.0-0.0-1.0-0.0,0,0,26705,,,,,,87.0,,,,,,,,,,,,,,,,,,,,,,,,,,,,,,,,129.0,0.918,,,,,,
449,,isi,,html-keyboard-response,449,963108,0.0-1.0-89.0-0.0-2.0,0,0,26705,,,,,,,,,,,,,,,,,,,,,,,,,,,,,,,,,,,,,,131.0,2.0,,,,,,
450,,feedback,,html-keyboard-response,450,964122,0.0-1.0-89.0-0.0-3.0-0.0,0,0,26705,,,,,,87.0,,,,,,,,,,,,,,,,,,,,,,,,,,,,,,,,132.0,1.0,,,,,,
451,,iti,,html-keyboard-response,451,965137,0.0-1.0-89.0-0.0-5.0,0,0,26705,,,,,,,,,,,,,,,,,,,,,,,,,,,,,,,,,,,,,,133.0,1.0,,,,,,
452,,choice,,html-keyboard-response,452,965956,0.0-1.0-90.0-0.0-0.0,0,0,26705,,805.0,,,75.0,88.0,88.0,3000.0,1000.0,0.0,2.0,0.0,40-60,,1.0,motorcycle,baby carriage,60.0,40.0,motorcycle8,baby carriage6,80.0,20.0,Motorcycle903425j2.jpg,Baby_Stroller-1.jpg,/static/Category_learning/Stimuli/Experimental_stims/motorcycle/Motorcycle903425j2.jpg,/static/Category_learning/Stimuli/Experimental_stims/baby carriage/Baby_Stroller-1.jpg,0.0,baby carriage,motorcycle,40.0,60.0,baby carriage6,motorcycle8,20.0,80.0,0.0,133.805,0.805,,,,,,
453,,confirmation,,html-keyboard-response,453,966668,0.0-1.0-90.0-0.0-1.0-0.0,0,0,26705,,,,,,88.0,,,,,,,,,,,,,,,,,,,,,,,,,,,,,,,,134.5,0.695,,,,,,
454,,isi,,html-keyboard-response,454,969680,0.0-1.0-90.0-0.0-2.0,0,0,26705,,,,,,,,,,,,,,,,,,,,,,,,,,,,,,,,,,,,,,137.5,3.0,,,,,,
455,,feedback,,html-keyboard-response,455,970692,0.0-1.0-90.0-0.0-3.0-0.0,0,0,26705,,,,,,88.0,,,,,,,,,,,,,,,,,,,,,,,,,,,,,,,,138.5,1.0,,,,,,
456,,iti,,html-keyboard-response,456,971712,0.0-1.0-90.0-0.0-5.0,0,0,26705,,,,,,,,,,,,,,,,,,,,,,,,,,,,,,,,,,,,,,139.5,1.0,,,,,,
457,,choice,,html-keyboard-response,457,972590,0.0-1.0-91.0-0.0-0.0,0,0,26705,,865.0,,,75.0,89.0,89.0,1000.0,1500.0,0.0,2.0,0.0,20-80,,1.0,pen,tent,80.0,20.0,pen9,tent4,60.0,20.0,Aredpen3.jpg,Atent12.jpg,/static/Category_learning/Stimuli/Experimental_stims/pen/Aredpen3.jpg,/static/Category_learning/Stimuli/Experimental_stims/tent/Atent12.jpg,0.0,tent,pen,20.0,80.0,tent4,pen9,20.0,60.0,0.0,140.365,0.865,,,,,,
458,,confirmation,,html-keyboard-response,458,973246,0.0-1.0-91.0-0.0-1.0-0.0,0,0,26705,,,,,,89.0,,,,,,,,,,,,,,,,,,,,,,,,,,,,,,,,141.0,0.635,,,,,,
459,,isi,,html-keyboard-response,459,974257,0.0-1.0-91.0-0.0-2.0,0,0,26705,,,,,,,,,,,,,,,,,,,,,,,,,,,,,,,,,,,,,,142.0,1.0,,,,,,
460,,feedback,,html-keyboard-response,460,975274,0.0-1.0-91.0-0.0-3.0-0.0,0,0,26705,,,,,,89.0,,,,,,,,,,,,,,,,,,,,,,,,,,,,,,,,143.0,1.0,,,,,,
461,,iti,,html-keyboard-response,461,976795,0.0-1.0-91.0-0.0-5.0,0,0,26705,,,,,,,,,,,,,,,,,,,,,,,,,,,,,,,,,,,,,,144.5,1.5,,,,,,
462,,choice,,html-keyboard-response,462,977978,0.0-1.0-92.0-0.0-0.0,0,0,26705,,1172.0,,,68.0,90.0,90.0,2000.0,1000.0,0.0,2.0,0.0,20-40,,1.0,bongo,yarn,40.0,20.0,bongo7,yarn6,20.0,20.0,26461075.thl.jpg,edwardian moment hpy sml.jpg,/static/Category_learning/Stimuli/Experimental_stims/bongo/26461075.thl.jpg,/static/Category_learning/Stimuli/Experimental_stims/yarn/edwardian moment hpy sml.jpg,1.0,bongo,yarn,40.0,20.0,bongo7,yarn6,20.0,20.0,0.0,145.672,1.172,,,,,,
463,,confirmation,,html-keyboard-response,463,978332,0.0-1.0-92.0-0.0-1.0-0.0,0,0,26705,,,,,,90.0,,,,,,,,,,,,,,,,,,,,,,,,,,,,,,,,146.0,0.328,,,,,,
464,,isi,,html-keyboard-response,464,980347,0.0-1.0-92.0-0.0-2.0,0,0,26705,,,,,,,,,,,,,,,,,,,,,,,,,,,,,,,,,,,,,,148.0,2.0,,,,,,
465,,feedback,,html-keyboard-response,465,981377,0.0-1.0-92.0-0.0-3.0-0.0,0,0,26705,,,,,,90.0,,,,,,,,,,,,,,,,,,,,,,,,,,,,,,,,149.0,1.0,,,,,,
466,,iti,,html-keyboard-response,466,982408,0.0-1.0-92.0-0.0-5.0,0,0,26705,,,,,,,,,,,,,,,,,,,,,,,,,,,,,,,,,,,,,,150.0,1.0,,,,,,
467,,choice,,html-keyboard-response,467,983129,0.0-1.0-93.0-0.0-0.0,0,0,26705,,710.0,,,68.0,91.0,91.0,3500.0,1000.0,0.0,2.0,0.0,40-40,,,desk,bongo,40.0,40.0,desk2,bongo15,60.0,40.0,AA Luffield Radial crescent Desk 1600mm x 1200mm.jpg,26390728.thl.jpg,/static/Category_learning/Stimuli/Experimental_stims/desk/AA Luffield Radial crescent Desk 1600mm x 1200mm.jpg,/static/Category_learning/Stimuli/Experimental_stims/bongo/26390728.thl.jpg,1.0,desk,bongo,40.0,40.0,desk2,bongo15,60.0,40.0,0.0,150.71,0.71,,,,,,
468,,confirmation,,html-keyboard-response,468,983944,0.0-1.0-93.0-0.0-1.0-0.0,0,0,26705,,,,,,91.0,,,,,,,,,,,,,,,,,,,,,,,,,,,,,,,,151.5,0.79,,,,,,
469,,isi,,html-keyboard-response,469,987465,0.0-1.0-93.0-0.0-2.0,0,0,26705,,,,,,,,,,,,,,,,,,,,,,,,,,,,,,,,,,,,,,155.0,3.5,,,,,,
470,,feedback,,html-keyboard-response,470,988479,0.0-1.0-93.0-0.0-3.0-0.0,0,0,26705,,,,,,91.0,,,,,,,,,,,,,,,,,,,,,,,,,,,,,,,,156.0,1.0,,,,,,
471,,iti,,html-keyboard-response,471,989489,0.0-1.0-93.0-0.0-5.0,0,0,26705,,,,,,,,,,,,,,,,,,,,,,,,,,,,,,,,,,,,,,157.0,1.0,,,,,,
472,,choice,,html-keyboard-response,472,990522,0.0-1.0-94.0-0.0-0.0,0,0,26705,,1021.0,,,75.0,92.0,92.0,1500.0,1000.0,0.0,2.0,1.0,20-20,1.0,,watch,watch,20.0,20.0,watch12,watch6,40.0,20.0,snl003_MED.jpg,B0000X04VC.01-A4LKQQKJ91IUZ._AA280_SCLZZZZZZZ_.jpg,/static/Category_learning/Stimuli/Experimental_stims/watch/snl003_MED.jpg,/static/Category_learning/Stimuli/Experimental_stims/watch/B0000X04VC.01-A4LKQQKJ91IUZ._AA280_SCLZZZZZZZ_.jpg,0.0,watch,watch,20.0,20.0,watch6,watch12,20.0,40.0,0.0,158.021,1.021,,,,,,
473,,confirmation,,html-keyboard-response,473,991024,0.0-1.0-94.0-0.0-1.0-0.0,0,0,26705,,,,,,92.0,,,,,,,,,,,,,,,,,,,,,,,,,,,,,,,,158.5,0.479,,,,,,
474,,isi,,html-keyboard-response,474,992536,0.0-1.0-94.0-0.0-2.0,0,0,26705,,,,,,,,,,,,,,,,,,,,,,,,,,,,,,,,,,,,,,160.0,1.5,,,,,,
475,,feedback,,html-keyboard-response,475,993556,0.0-1.0-94.0-0.0-3.0-0.0,0,0,26705,,,,,,92.0,,,,,,,,,,,,,,,,,,,,,,,,,,,,,,,,161.0,1.0,,,,,,
476,,iti,,html-keyboard-response,476,994567,0.0-1.0-94.0-0.0-5.0,0,0,26705,,,,,,,,,,,,,,,,,,,,,,,,,,,,,,,,,,,,,,162.0,1.0,,,,,,
477,,choice,,html-keyboard-response,477,995381,0.0-1.0-95.0-0.0-0.0,0,0,26705,,802.0,,,68.0,93.0,93.0,3000.0,2000.0,0.0,2.0,1.0,80-80,1.0,,nail polish,nail polish,80.0,80.0,nail polish6,nail polish15,60.0,60.0,127_t.jpg,MA_NP_WSD.jpg,/static/Category_learning/Stimuli/Experimental_stims/nail polish/127_t.jpg,/static/Category_learning/Stimuli/Experimental_stims/nail polish/MA_NP_WSD.jpg,1.0,nail polish,nail polish,80.0,80.0,nail polish6,nail polish15,60.0,60.0,0.0,162.802,0.802,,,,,,
478,,confirmation,,html-keyboard-response,478,996106,0.0-1.0-95.0-0.0-1.0-0.0,0,0,26705,,,,,,93.0,,,,,,,,,,,,,,,,,,,,,,,,,,,,,,,,163.5,0.698,,,,,,
479,,isi,,html-keyboard-response,479,999129,0.0-1.0-95.0-0.0-2.0,0,0,26705,,,,,,,,,,,,,,,,,,,,,,,,,,,,,,,,,,,,,,166.5,3.0,,,,,,
480,,feedback,,html-keyboard-response,480,1000155,0.0-1.0-95.0-0.0-3.0-0.0,0,0,26705,,,,,,93.0,,,,,,,,,,,,,,,,,,,,,,,,,,,,,,,,167.5,1.0,,,,,,
481,,iti,,html-keyboard-response,481,1002176,0.0-1.0-95.0-0.0-5.0,0,0,26705,,,,,,,,,,,,,,,,,,,,,,,,,,,,,,,,,,,,,,169.5,2.0,,,,,,
482,,choice,,html-keyboard-response,482,1003078,0.0-1.0-96.0-0.0-0.0,0,0,26705,,890.0,,,75.0,94.0,94.0,1500.0,1500.0,0.0,2.0,0.0,40-80,,1.0,poker card,bowl,80.0,40.0,poker card9,bowl15,80.0,60.0,9817230.thl.jpg,Awhitebowl2.jpg,/static/Category_learning/Stimuli/Experimental_stims/poker card/9817230.thl.jpg,/static/Category_learning/Stimuli/Experimental_stims/bowl/Awhitebowl2.jpg,0.0,bowl,poker card,40.0,80.0,bowl15,poker card9,60.0,80.0,0.0,170.39,0.89,,,,,,
483,,confirmation,,html-keyboard-response,483,1003706,0.0-1.0-96.0-0.0-1.0-0.0,0,0,26705,,,,,,94.0,,,,,,,,,,,,,,,,,,,,,,,,,,,,,,,,171.0,0.61,,,,,,
484,,isi,,html-keyboard-response,484,1005217,0.0-1.0-96.0-0.0-2.0,0,0,26705,,,,,,,,,,,,,,,,,,,,,,,,,,,,,,,,,,,,,,172.5,1.5,,,,,,
485,,feedback,,html-keyboard-response,485,1006247,0.0-1.0-96.0-0.0-3.0-0.0,0,0,26705,,,,,,94.0,,,,,,,,,,,,,,,,,,,,,,,,,,,,,,,,173.5,1.0,,,,,,
486,,iti,,html-keyboard-response,486,1007767,0.0-1.0-96.0-0.0-5.0,0,0,26705,,,,,,,,,,,,,,,,,,,,,,,,,,,,,,,,,,,,,,175.0,1.5,,,,,,
487,,choice,,html-keyboard-response,487,1008578,0.0-1.0-97.0-0.0-0.0,0,0,26705,,800.0,,,68.0,95.0,95.0,1000.0,1500.0,0.0,2.0,0.0,20-20,,,tape,trumpet,20.0,20.0,tape5,trumpet7,20.0,0.0,910372_sk_lg.jpg,JTP-606MRS.jpg,/static/Category_learning/Stimuli/Experimental_stims/tape/910372_sk_lg.jpg,/static/Category_learning/Stimuli/Experimental_stims/trumpet/JTP-606MRS.jpg,1.0,tape,trumpet,20.0,20.0,tape5,trumpet7,20.0,0.0,0.0,175.8,0.8,,,,,,
