,success,ttype,start_time,trial_type,trial_index,time_elapsed,internal_node_id,warning,missed_checkup,PID,view_history,rt,responses,repeat_instructions,key_press,index,trial_num,isi,iti,is_practice,block,old_trial,pair_type,within_category,high_cat_on_left,left_category,right_category,left_category_value,right_category_value,left_exemplar,right_exemplar,left_exemplar_value,right_exemplar_value,left_img,right_img,left_img_path,right_img_path,left_chosen,chosen_category,unchosen_category,chosen_category_value,unchosen_category_value,chosen_exemplar,unchosen_exemplar,chosen_exemplar_value,unchosen_exemplar_value,no_response,onset,duration,end_practice,total_bonus_tally,category,category_group_value,category_value_response,did_not_enter_response
0,True,full_screen,d06012022hr2350,fullscreen,0,2448,0.0-0.0,0,0,96744,,,,,,,,,,,,,,,,,,,,,,,,,,,,,,,,,,,,,,,,,,,,,
1,,category_learning_instructions,,instructions,1,5580,0.0-1.0-0.0-0.0,0,0,96744,"[{""page_index"":0,""viewing_time"":1708},{""page_index"":1,""viewing_time"":173},{""page_index"":2,""viewing_time"":315},{""page_index"":3,""viewing_time"":164},{""page_index"":4,""viewing_time"":165},{""page_index"":5,""viewing_time"":160},{""page_index"":6,""viewing_time"":445}]",3130.0,,,,,,,,,,,,,,,,,,,,,,,,,,,,,,,,,,,,,,,,,,,
2,,category_learning_comprehension_check,,survey-multi-choice,2,13835,0.0-1.0-0.0-1.0,0,0,96744,,8251.0,"{""Q0"":""True"",""Q1"":""True"",""Q2"":""Stay the same"",""Q3"":""D for left and K for right""}",0.0,,,,,,,,,,,,,,,,,,,,,,,,,,,,,,,,,,,,,,,,,
3,,,,html-keyboard-response,3,15462,0.0-1.0-1.0,0,0,96744,,1622.0,,,68.0,,,,,,,,,,,,,,,,,,,,,,,,,,,,,,,,,,,,,,,,
4,,choice,,html-keyboard-response,4,16803,0.0-1.0-2.0-0.0-0.0,0,0,96744,,1337.0,,,75.0,0.0,0.0,1500.0,1000.0,1.0,0.0,0.0,20-80,,0.0,bagel,dumbbell,20.0,80.0,bagel1,dumbbell1,0.0,80.0,bagels_pumpernickel_large.jpg,31B64EN68AL._AA280_.jpg,/static/Category_learning/Stimuli/Practice_stims/bagel/bagels_pumpernickel_large.jpg,/static/Category_learning/Stimuli/Practice_stims/dumbbell/31B64EN68AL._AA280_.jpg,0.0,dumbbell,bagel,80.0,20.0,dumbbell1,bagel1,80.0,0.0,0.0,1.337,1.337,,,,,,
5,,confirmation,,html-keyboard-response,5,16973,0.0-1.0-2.0-0.0-1.0-0.0,0,0,96744,,,,,,0.0,,,,,,,,,,,,,,,,,,,,,,,,,,,,,,,,1.5,0.163,,,,,,
6,,isi,,html-keyboard-response,6,17079,0.0-1.0-2.0-0.0-2.0,0,0,96744,,,,,,,,,,,,,,,,,,,,,,,,,,,,,,,,,,,,,,3.0,1.5,,,,,,
7,,feedback,,html-keyboard-response,7,18085,0.0-1.0-2.0-0.0-3.0-0.0,0,0,96744,,,,,,0.0,,,,,,,,,,,,,,,,,,,,,,,,,,,,,,,,4.0,1.0,,,,,,
8,,iti,,html-keyboard-response,8,18190,0.0-1.0-2.0-0.0-5.0,0,0,96744,,,,,,,,,,,,,,,,,,,,,,,,,,,,,,,,,,,,,,5.0,1.0,,,,,,
9,,choice,,html-keyboard-response,9,18315,0.0-1.0-3.0-0.0-0.0,0,0,96744,,123.0,,,68.0,1.0,1.0,3000.0,1500.0,1.0,0.0,0.0,20-40,,1.0,calculator,bagel,40.0,20.0,calculator2,bagel2,20.0,20.0,22829064.thl.jpg,bagels_cinnraisin_large.jpg,/static/Category_learning/Stimuli/Practice_stims/calculator/22829064.thl.jpg,/static/Category_learning/Stimuli/Practice_stims/bagel/bagels_cinnraisin_large.jpg,1.0,calculator,bagel,40.0,20.0,calculator2,bagel2,20.0,20.0,0.0,5.123,0.123,,,,,,
10,,confirmation,,html-keyboard-response,10,19698,0.0-1.0-3.0-0.0-1.0-0.0,0,0,96744,,,,,,1.0,,,,,,,,,,,,,,,,,,,,,,,,,,,,,,,,6.5,1.377,,,,,,
11,,isi,,html-keyboard-response,11,19803,0.0-1.0-3.0-0.0-2.0,0,0,96744,,,,,,,,,,,,,,,,,,,,,,,,,,,,,,,,,,,,,,9.5,3.0,,,,,,
12,,feedback,,html-keyboard-response,12,20810,0.0-1.0-3.0-0.0-3.0-0.0,0,0,96744,,,,,,1.0,,,,,,,,,,,,,,,,,,,,,,,,,,,,,,,,10.5,1.0,,,,,,
13,,iti,,html-keyboard-response,13,20913,0.0-1.0-3.0-0.0-5.0,0,0,96744,,,,,,,,,,,,,,,,,,,,,,,,,,,,,,,,,,,,,,12.0,1.5,,,,,,
14,,choice,,html-keyboard-response,14,21359,0.0-1.0-4.0-0.0-0.0,0,0,96744,,444.0,,,68.0,2.0,2.0,2000.0,3000.0,1.0,0.0,0.0,60-80,,0.0,clock,dumbbell,60.0,80.0,clock2,dumbbell2,60.0,100.0,26373355.thl.jpg,31K8MR6TMBL._SS500_.jpg,/static/Category_learning/Stimuli/Practice_stims/clock/26373355.thl.jpg,/static/Category_learning/Stimuli/Practice_stims/dumbbell/31K8MR6TMBL._SS500_.jpg,1.0,clock,dumbbell,60.0,80.0,clock2,dumbbell2,60.0,100.0,0.0,12.444,0.444,,,,,,
15,,confirmation,,html-keyboard-response,15,22423,0.0-1.0-4.0-0.0-1.0-0.0,0,0,96744,,,,,,2.0,,,,,,,,,,,,,,,,,,,,,,,,,,,,,,,,13.5,1.056,,,,,,
16,,isi,,html-keyboard-response,16,22530,0.0-1.0-4.0-0.0-2.0,0,0,96744,,,,,,,,,,,,,,,,,,,,,,,,,,,,,,,,,,,,,,15.5,2.0,,,,,,
17,,feedback,,html-keyboard-response,17,23535,0.0-1.0-4.0-0.0-3.0-0.0,0,0,96744,,,,,,2.0,,,,,,,,,,,,,,,,,,,,,,,,,,,,,,,,16.5,1.0,,,,,,
18,,iti,,html-keyboard-response,18,23640,0.0-1.0-4.0-0.0-5.0,0,0,96744,,,,,,,,,,,,,,,,,,,,,,,,,,,,,,,,,,,,,,19.5,3.0,,,,,,
19,,choice,,html-keyboard-response,19,25143,0.0-1.0-5.0-0.0-0.0,0,0,96744,,,,,,3.0,3.0,1000.0,2000.0,1.0,0.0,0.0,40-80,,0.0,calculator,clock,40.0,60.0,calculator1,clock1,40.0,40.0,22829184.thl.jpg,Aalarmclock2.jpg,/static/Category_learning/Stimuli/Practice_stims/calculator/22829184.thl.jpg,/static/Category_learning/Stimuli/Practice_stims/clock/Aalarmclock2.jpg,,,,,,,,,,1.0,21.0,1.5,,,,,,
20,,isi,,html-keyboard-response,20,25249,0.0-1.0-5.0-0.0-2.0,0,0,96744,,,,,,,,,,,,,,,,,,,,,,,,,,,,,,,,,,,,,,22.0,1.0,,,,,,
21,,no_response,,html-keyboard-response,21,26256,0.0-1.0-5.0-0.0-4.0-0.0,0,0,96744,,,,,,,,,,,,,,,,,,,,,,,,,,,,,,,,,,,,,,23.0,1.0,,,,,,
22,,iti,,html-keyboard-response,22,26359,0.0-1.0-5.0-0.0-5.0,0,0,96744,,,,,,,,,,,,,,,,,,,,,,,,,,,,,,,,,,,,,,25.0,2.0,,,,,,
23,,choice,,html-keyboard-response,23,27864,0.0-1.0-5.0-0.1-0.1,0,0,96744,,,,,,3.0,3.0,1000.0,2000.0,1.0,0.0,0.0,40-80,,0.0,calculator,clock,40.0,60.0,calculator1,clock1,40.0,40.0,22829184.thl.jpg,Aalarmclock2.jpg,/static/Category_learning/Stimuli/Practice_stims/calculator/22829184.thl.jpg,/static/Category_learning/Stimuli/Practice_stims/clock/Aalarmclock2.jpg,,,,,,,,,,1.0,26.5,1.5,,,,,,
24,,isi,,html-keyboard-response,24,27969,0.0-1.0-5.0-0.1-2.1,0,0,96744,,,,,,,,,,,,,,,,,,,,,,,,,,,,,,,,,,,,,,27.5,1.0,,,,,,
25,,no_response,,html-keyboard-response,25,28973,0.0-1.0-5.0-0.1-4.1-0.1,0,0,96744,,,,,,,,,,,,,,,,,,,,,,,,,,,,,,,,,,,,,,28.5,1.0,,,,,,
26,,iti,,html-keyboard-response,26,29079,0.0-1.0-5.0-0.1-5.1,0,0,96744,,,,,,,,,,,,,,,,,,,,,,,,,,,,,,,,,,,,,,30.5,2.0,,,,,,
27,,choice,,html-keyboard-response,27,29825,0.0-1.0-5.0-0.2-0.2,0,0,96744,,743.0,,,68.0,3.0,3.0,1000.0,2000.0,1.0,0.0,0.0,40-80,,0.0,calculator,clock,40.0,60.0,calculator1,clock1,40.0,40.0,22829184.thl.jpg,Aalarmclock2.jpg,/static/Category_learning/Stimuli/Practice_stims/calculator/22829184.thl.jpg,/static/Category_learning/Stimuli/Practice_stims/clock/Aalarmclock2.jpg,1.0,calculator,clock,40.0,60.0,calculator1,clock1,40.0,40.0,0.0,31.243,0.743,,,,,,
28,,confirmation,,html-keyboard-response,28,30588,0.0-1.0-5.0-0.2-1.2-0.2,0,0,96744,,,,,,3.0,,,,,,,,,,,,,,,,,,,,,,,,,,,,,,,,32.0,0.757,,,,,,
29,,isi,,html-keyboard-response,29,30695,0.0-1.0-5.0-0.2-2.2,0,0,96744,,,,,,,,,,,,,,,,,,,,,,,,,,,,,,,,,,,,,,33.0,1.0,,,,,,
30,,feedback,,html-keyboard-response,30,31703,0.0-1.0-5.0-0.2-3.2-0.2,0,0,96744,,,,,,3.0,,,,,,,,,,,,,,,,,,,,,,,,,,,,,,,,34.0,1.0,,,,,,
31,,iti,,html-keyboard-response,31,31809,0.0-1.0-5.0-0.2-5.2,0,0,96744,,,,,,,,,,,,,,,,,,,,,,,,,,,,,,,,,,,,,,36.0,2.0,,,,,,
32,,choice,,html-keyboard-response,32,32531,0.0-1.0-6.0-0.0-0.0,0,0,96744,,718.0,,,68.0,4.0,4.0,2500.0,2500.0,1.0,0.0,0.0,20-60,,1.0,dumbbell,bagel,80.0,20.0,dumbbell3,bagel3,100.0,40.0,41K7QVRX50L._SS500_.jpg,photo-169.jpg,/static/Category_learning/Stimuli/Practice_stims/dumbbell/41K7QVRX50L._SS500_.jpg,/static/Category_learning/Stimuli/Practice_stims/bagel/photo-169.jpg,1.0,dumbbell,bagel,80.0,20.0,dumbbell3,bagel3,100.0,40.0,0.0,36.718,0.718,1.0,,,,,
33,,confirmation,,html-keyboard-response,33,33319,0.0-1.0-6.0-0.0-1.0-0.0,0,0,96744,,,,,,4.0,,,,,,,,,,,,,,,,,,,,,,,,,,,,,,,,37.5,0.782,,,,,,
34,,isi,,html-keyboard-response,34,33426,0.0-1.0-6.0-0.0-2.0,0,0,96744,,,,,,,,,,,,,,,,,,,,,,,,,,,,,,,,,,,,,,40.0,2.5,,,,,,
35,,feedback,,html-keyboard-response,35,34433,0.0-1.0-6.0-0.0-3.0-0.0,0,0,96744,,,,,,4.0,,,,,,,,,,,,,,,,,,,,,,,,,,,,,,,,41.0,1.0,,,,,,
36,,iti,,html-keyboard-response,36,34540,0.0-1.0-6.0-0.0-5.0,0,0,96744,,,,,,,,,,,,,,,,,,,,,,,,,,,,,,,,,,,,,,43.5,2.5,,,,,,
37,,practice_over,,html-keyboard-response,37,35777,0.0-1.0-6.0-0.0-6.0-0.0,0,0,96744,,1236.0,,,68.0,4.0,,,,,,,,,,,,,,,,,,,,,,,,,,,,,,,,,,,,,,,
38,,start_run,,html-keyboard-response,38,44223,0.0-1.0-6.0-0.0-6.0-1.0,0,0,96744,,8443.0,,,84.0,,,,,,,,,,,,,,,,,,,,,,,,,,,,,,,,,,,,,,,,
39,,choice,,html-keyboard-response,39,44877,0.0-1.0-7.0-0.0-0.0,0,0,96744,,650.0,,,75.0,5.0,305.0,1500.0,3000.0,0.0,6.0,0.0,20-20,,,flashlight,dresser,20.0,20.0,flashlight11,dresser15,40.0,20.0,new04.jpg,ADRESSE77.jpg,/static/Category_learning/Stimuli/Experimental_stims/flashlight/new04.jpg,/static/Category_learning/Stimuli/Experimental_stims/dresser/ADRESSE77.jpg,0.0,dresser,flashlight,20.0,20.0,dresser15,flashlight11,20.0,40.0,0.0,0.65,0.65,,,,,,
40,,confirmation,,html-keyboard-response,40,45735,0.0-1.0-7.0-0.0-1.0-0.0,0,0,96744,,,,,,5.0,,,,,,,,,,,,,,,,,,,,,,,,,,,,,,,,1.5,0.85,,,,,,
41,,isi,,html-keyboard-response,41,45842,0.0-1.0-7.0-0.0-2.0,0,0,96744,,,,,,,,,,,,,,,,,,,,,,,,,,,,,,,,,,,,,,3.0,1.5,,,,,,
42,,feedback,,html-keyboard-response,42,46845,0.0-1.0-7.0-0.0-3.0-0.0,0,0,96744,,,,,,5.0,,,,,,,,,,,,,,,,,,,,,,,,,,,,,,,,4.0,1.0,,,,,,
43,,iti,,html-keyboard-response,43,46951,0.0-1.0-7.0-0.0-5.0,0,0,96744,,,,,,,,,,,,,,,,,,,,,,,,,,,,,,,,,,,,,,7.0,3.0,,,,,,
44,,choice,,html-keyboard-response,44,47053,0.0-1.0-8.0-0.0-0.0,0,0,96744,,99.0,,,68.0,6.0,306.0,1000.0,3500.0,0.0,6.0,0.0,40-40,,,microscope,lipstick,40.0,40.0,microscope2,lipstick5,40.0,20.0,3090-b.jpg,P35719_hero.jpg,/static/Category_learning/Stimuli/Experimental_stims/microscope/3090-b.jpg,/static/Category_learning/Stimuli/Experimental_stims/lipstick/P35719_hero.jpg,1.0,microscope,lipstick,40.0,40.0,microscope2,lipstick5,40.0,20.0,0.0,7.099,0.099,,,,,,
45,,confirmation,,html-keyboard-response,45,48460,0.0-1.0-8.0-0.0-1.0-0.0,0,0,96744,,,,,,6.0,,,,,,,,,,,,,,,,,,,,,,,,,,,,,,,,8.5,1.401,,,,,,
46,,isi,,html-keyboard-response,46,48568,0.0-1.0-8.0-0.0-2.0,0,0,96744,,,,,,,,,,,,,,,,,,,,,,,,,,,,,,,,,,,,,,9.5,1.0,,,,,,
47,,feedback,,html-keyboard-response,47,49571,0.0-1.0-8.0-0.0-3.0-0.0,0,0,96744,,,,,,6.0,,,,,,,,,,,,,,,,,,,,,,,,,,,,,,,,10.5,1.0,,,,,,
48,,iti,,html-keyboard-response,48,49674,0.0-1.0-8.0-0.0-5.0,0,0,96744,,,,,,,,,,,,,,,,,,,,,,,,,,,,,,,,,,,,,,14.0,3.5,,,,,,
49,,choice,,html-keyboard-response,49,50830,0.0-1.0-9.0-0.0-0.0,0,0,96744,,1153.0,,,75.0,7.0,307.0,3500.0,1500.0,0.0,6.0,0.0,60-80,,1.0,train,nail polish,80.0,60.0,train10,nail polish10,100.0,80.0,train3.jpg,NLM23_opi_nail_polish.jpg,/static/Category_learning/Stimuli/Experimental_stims/train/train3.jpg,/static/Category_learning/Stimuli/Experimental_stims/nail polish/NLM23_opi_nail_polish.jpg,0.0,nail polish,train,60.0,80.0,nail polish10,train10,80.0,100.0,0.0,15.153,1.153,,,,,,
50,,confirmation,,html-keyboard-response,50,51180,0.0-1.0-9.0-0.0-1.0-0.0,0,0,96744,,,,,,7.0,,,,,,,,,,,,,,,,,,,,,,,,,,,,,,,,15.5,0.347,,,,,,
51,,isi,,html-keyboard-response,51,51287,0.0-1.0-9.0-0.0-2.0,0,0,96744,,,,,,,,,,,,,,,,,,,,,,,,,,,,,,,,,,,,,,19.0,3.5,,,,,,
52,,feedback,,html-keyboard-response,52,52290,0.0-1.0-9.0-0.0-3.0-0.0,0,0,96744,,,,,,7.0,,,,,,,,,,,,,,,,,,,,,,,,,,,,,,,,20.0,1.0,,,,,,
53,,iti,,html-keyboard-response,53,52396,0.0-1.0-9.0-0.0-5.0,0,0,96744,,,,,,,,,,,,,,,,,,,,,,,,,,,,,,,,,,,,,,21.5,1.5,,,,,,
54,,choice,,html-keyboard-response,54,53143,0.0-1.0-10.0-0.0-0.0,0,0,96744,,743.0,,,75.0,8.0,308.0,1000.0,2000.0,0.0,6.0,0.0,40-60,,1.0,sofa,key chain,60.0,40.0,sofa5,key chain12,60.0,40.0,ALOVSEA14.jpg,keychain.jpg,/static/Category_learning/Stimuli/Experimental_stims/sofa/ALOVSEA14.jpg,/static/Category_learning/Stimuli/Experimental_stims/key chain/keychain.jpg,0.0,key chain,sofa,40.0,60.0,key chain12,sofa5,40.0,60.0,0.0,22.243,0.743,,,,,,
55,,confirmation,,html-keyboard-response,55,53907,0.0-1.0-10.0-0.0-1.0-0.0,0,0,96744,,,,,,8.0,,,,,,,,,,,,,,,,,,,,,,,,,,,,,,,,23.0,0.757,,,,,,
56,,isi,,html-keyboard-response,56,54013,0.0-1.0-10.0-0.0-2.0,0,0,96744,,,,,,,,,,,,,,,,,,,,,,,,,,,,,,,,,,,,,,24.0,1.0,,,,,,
57,,feedback,,html-keyboard-response,57,55017,0.0-1.0-10.0-0.0-3.0-0.0,0,0,96744,,,,,,8.0,,,,,,,,,,,,,,,,,,,,,,,,,,,,,,,,25.0,1.0,,,,,,
58,,iti,,html-keyboard-response,58,55123,0.0-1.0-10.0-0.0-5.0,0,0,96744,,,,,,,,,,,,,,,,,,,,,,,,,,,,,,,,,,,,,,27.0,2.0,,,,,,
59,,choice,,html-keyboard-response,59,56632,0.0-1.0-11.0-0.0-0.0,0,0,96744,,,,,,9.0,309.0,2000.0,3500.0,0.0,6.0,0.0,20-60,,0.0,bench,patio lounge chair,20.0,60.0,bench11,patio lounge chair11,40.0,80.0,22928468.thl.jpg,51830.jpg,/static/Category_learning/Stimuli/Experimental_stims/bench/22928468.thl.jpg,/static/Category_learning/Stimuli/Experimental_stims/patio lounge chair/51830.jpg,,,,,,,,,,1.0,28.5,1.5,,,,,,
60,,isi,,html-keyboard-response,60,56738,0.0-1.0-11.0-0.0-2.0,0,0,96744,,,,,,,,,,,,,,,,,,,,,,,,,,,,,,,,,,,,,,30.5,2.0,,,,,,
61,,no_response,,html-keyboard-response,61,57740,0.0-1.0-11.0-0.0-4.0-0.0,1,0,96744,,,,,,,,,,,,,,,,,,,,,,,,,,,,,,,,,,,,,,31.5,1.0,,,,,,
62,,iti,,html-keyboard-response,62,57864,0.0-1.0-11.0-0.0-5.0,0,0,96744,,,,,,,,,,,,,,,,,,,,,,,,,,,,,,,,,,,,,,35.0,3.5,,,,,,
63,,choice,,html-keyboard-response,63,58194,0.0-1.0-11.0-0.1-0.1,0,0,96744,,328.0,,,75.0,9.0,309.0,2000.0,3500.0,0.0,6.0,0.0,20-60,,0.0,bench,patio lounge chair,20.0,60.0,bench11,patio lounge chair11,40.0,80.0,22928468.thl.jpg,51830.jpg,/static/Category_learning/Stimuli/Experimental_stims/bench/22928468.thl.jpg,/static/Category_learning/Stimuli/Experimental_stims/patio lounge chair/51830.jpg,0.0,patio lounge chair,bench,60.0,20.0,patio lounge chair11,bench11,80.0,40.0,0.0,35.328,0.328,,,,,,
64,,confirmation,,html-keyboard-response,64,59374,0.0-1.0-11.0-0.1-1.1-0.1,0,0,96744,,,,,,9.0,,,,,,,,,,,,,,,,,,,,,,,,,,,,,,,,36.5,1.172,,,,,,
65,,isi,,html-keyboard-response,65,59480,0.0-1.0-11.0-0.1-2.1,0,0,96744,,,,,,,,,,,,,,,,,,,,,,,,,,,,,,,,,,,,,,38.5,2.0,,,,,,
66,,feedback,,html-keyboard-response,66,60483,0.0-1.0-11.0-0.1-3.1-0.1,0,0,96744,,,,,,9.0,,,,,,,,,,,,,,,,,,,,,,,,,,,,,,,,39.5,1.0,,,,,,
67,,iti,,html-keyboard-response,67,60588,0.0-1.0-11.0-0.1-5.1,0,0,96744,,,,,,,,,,,,,,,,,,,,,,,,,,,,,,,,,,,,,,40.5,1.0,,,,,,
68,,choice,,html-keyboard-response,68,62094,0.0-1.0-12.0-0.0-0.0,0,0,96744,,,,,,10.0,310.0,1000.0,1000.0,0.0,6.0,1.0,40-60,0.0,,key chain,nail polish,40.0,60.0,key chain12,nail polish10,40.0,80.0,keychain.jpg,NLM23_opi_nail_polish.jpg,/static/Category_learning/Stimuli/Experimental_stims/key chain/keychain.jpg,/static/Category_learning/Stimuli/Experimental_stims/nail polish/NLM23_opi_nail_polish.jpg,,,,,,,,,,1.0,42.0,1.5,,,,,,
69,,isi,,html-keyboard-response,69,62200,0.0-1.0-12.0-0.0-2.0,0,0,96744,,,,,,,,,,,,,,,,,,,,,,,,,,,,,,,,,,,,,,43.0,1.0,,,,,,
70,,no_response,,html-keyboard-response,70,63207,0.0-1.0-12.0-0.0-4.0-0.0,1,0,96744,,,,,,,,,,,,,,,,,,,,,,,,,,,,,,,,,,,,,,44.0,1.0,,,,,,
71,,iti,,html-keyboard-response,71,63330,0.0-1.0-12.0-0.0-5.0,0,0,96744,,,,,,,,,,,,,,,,,,,,,,,,,,,,,,,,,,,,,,45.0,1.0,,,,,,
72,,choice,,html-keyboard-response,72,64362,0.0-1.0-12.0-0.1-0.1,0,0,96744,,1028.0,,,75.0,10.0,310.0,1000.0,1000.0,0.0,6.0,1.0,40-60,0.0,,key chain,nail polish,40.0,60.0,key chain12,nail polish10,40.0,80.0,keychain.jpg,NLM23_opi_nail_polish.jpg,/static/Category_learning/Stimuli/Experimental_stims/key chain/keychain.jpg,/static/Category_learning/Stimuli/Experimental_stims/nail polish/NLM23_opi_nail_polish.jpg,0.0,nail polish,key chain,60.0,40.0,nail polish10,key chain12,80.0,40.0,0.0,46.028,1.028,,,,,,
73,,confirmation,,html-keyboard-response,73,64841,0.0-1.0-12.0-0.1-1.1-0.1,0,0,96744,,,,,,10.0,,,,,,,,,,,,,,,,,,,,,,,,,,,,,,,,46.5,0.472,,,,,,
74,,isi,,html-keyboard-response,74,64946,0.0-1.0-12.0-0.1-2.1,0,0,96744,,,,,,,,,,,,,,,,,,,,,,,,,,,,,,,,,,,,,,48.5,2.0,,,,,,
75,,feedback,,html-keyboard-response,75,65949,0.0-1.0-12.0-0.1-3.1-0.1,0,0,96744,,,,,,10.0,,,,,,,,,,,,,,,,,,,,,,,,,,,,,,,,49.5,1.0,,,,,,
76,,iti,,html-keyboard-response,76,66052,0.0-1.0-12.0-0.1-5.1,0,0,96744,,,,,,,,,,,,,,,,,,,,,,,,,,,,,,,,,,,,,,50.5,1.0,,,,,,
77,,choice,,html-keyboard-response,77,66720,0.0-1.0-13.0-0.0-0.0,0,0,96744,,664.0,,,75.0,11.0,311.0,1500.0,2000.0,0.0,6.0,1.0,20-60,0.0,,patio lounge chair,dresser,60.0,20.0,patio lounge chair11,dresser15,80.0,20.0,51830.jpg,ADRESSE77.jpg,/static/Category_learning/Stimuli/Experimental_stims/patio lounge chair/51830.jpg,/static/Category_learning/Stimuli/Experimental_stims/dresser/ADRESSE77.jpg,0.0,dresser,patio lounge chair,20.0,60.0,dresser15,patio lounge chair11,20.0,80.0,0.0,51.164,0.664,,,,,,
78,,confirmation,,html-keyboard-response,78,67560,0.0-1.0-13.0-0.0-1.0-0.0,0,0,96744,,,,,,11.0,,,,,,,,,,,,,,,,,,,,,,,,,,,,,,,,52.0,0.836,,,,,,
79,,isi,,html-keyboard-response,79,67667,0.0-1.0-13.0-0.0-2.0,0,0,96744,,,,,,,,,,,,,,,,,,,,,,,,,,,,,,,,,,,,,,53.5,1.5,,,,,,
80,,feedback,,html-keyboard-response,80,68674,0.0-1.0-13.0-0.0-3.0-0.0,0,0,96744,,,,,,11.0,,,,,,,,,,,,,,,,,,,,,,,,,,,,,,,,54.5,1.0,,,,,,
81,,iti,,html-keyboard-response,81,68781,0.0-1.0-13.0-0.0-5.0,0,0,96744,,,,,,,,,,,,,,,,,,,,,,,,,,,,,,,,,,,,,,56.5,2.0,,,,,,
82,,choice,,html-keyboard-response,82,68951,0.0-1.0-14.0-0.0-0.0,0,0,96744,,166.0,,,75.0,12.0,312.0,1500.0,1000.0,0.0,6.0,0.0,40-60,,0.0,key chain,necklace,40.0,60.0,key chain6,necklace1,40.0,80.0,highboy_keychain_ItemCA75384.jpg,26443173.thl.jpg,/static/Category_learning/Stimuli/Experimental_stims/key chain/highboy_keychain_ItemCA75384.jpg,/static/Category_learning/Stimuli/Experimental_stims/necklace/26443173.thl.jpg,0.0,necklace,key chain,60.0,40.0,necklace1,key chain6,80.0,40.0,0.0,56.666,0.166,,,,,,
83,,confirmation,,html-keyboard-response,83,70291,0.0-1.0-14.0-0.0-1.0-0.0,0,0,96744,,,,,,12.0,,,,,,,,,,,,,,,,,,,,,,,,,,,,,,,,58.0,1.334,,,,,,
84,,isi,,html-keyboard-response,84,70397,0.0-1.0-14.0-0.0-2.0,0,0,96744,,,,,,,,,,,,,,,,,,,,,,,,,,,,,,,,,,,,,,59.5,1.5,,,,,,
85,,feedback,,html-keyboard-response,85,71405,0.0-1.0-14.0-0.0-3.0-0.0,0,0,96744,,,,,,12.0,,,,,,,,,,,,,,,,,,,,,,,,,,,,,,,,60.5,1.0,,,,,,
86,,iti,,html-keyboard-response,86,71512,0.0-1.0-14.0-0.0-5.0,0,0,96744,,,,,,,,,,,,,,,,,,,,,,,,,,,,,,,,,,,,,,61.5,1.0,,,,,,
87,,choice,,html-keyboard-response,87,72669,0.0-1.0-15.0-0.0-0.0,0,0,96744,,1155.0,,,75.0,13.0,313.0,1000.0,1500.0,0.0,6.0,0.0,40-80,,1.0,tent,microscope,80.0,40.0,tent5,microscope10,100.0,20.0,Dome Tentnb87r67.jpg,DS-2.jpg,/static/Category_learning/Stimuli/Experimental_stims/tent/Dome Tentnb87r67.jpg,/static/Category_learning/Stimuli/Experimental_stims/microscope/DS-2.jpg,0.0,microscope,tent,40.0,80.0,microscope10,tent5,20.0,100.0,0.0,62.655,1.155,,,,,,
88,,confirmation,,html-keyboard-response,88,73021,0.0-1.0-15.0-0.0-1.0-0.0,0,0,96744,,,,,,13.0,,,,,,,,,,,,,,,,,,,,,,,,,,,,,,,,63.0,0.345,,,,,,
89,,isi,,html-keyboard-response,89,73127,0.0-1.0-15.0-0.0-2.0,0,0,96744,,,,,,,,,,,,,,,,,,,,,,,,,,,,,,,,,,,,,,64.0,1.0,,,,,,
90,,feedback,,html-keyboard-response,90,74130,0.0-1.0-15.0-0.0-3.0-0.0,0,0,96744,,,,,,13.0,,,,,,,,,,,,,,,,,,,,,,,,,,,,,,,,65.0,1.0,,,,,,
91,,iti,,html-keyboard-response,91,74233,0.0-1.0-15.0-0.0-5.0,0,0,96744,,,,,,,,,,,,,,,,,,,,,,,,,,,,,,,,,,,,,,66.5,1.5,,,,,,
92,,choice,,html-keyboard-response,92,75194,0.0-1.0-16.0-0.0-0.0,0,0,96744,,957.0,,,68.0,14.0,314.0,1000.0,1500.0,0.0,6.0,0.0,60-80,,1.0,tape,poker card,80.0,60.0,tape14,poker card1,60.0,40.0,922544.jpg,22864704.thl.jpg,/static/Category_learning/Stimuli/Experimental_stims/tape/922544.jpg,/static/Category_learning/Stimuli/Experimental_stims/poker card/22864704.thl.jpg,1.0,tape,poker card,80.0,60.0,tape14,poker card1,60.0,40.0,0.0,67.457,0.957,,,,,,
93,,confirmation,,html-keyboard-response,93,75741,0.0-1.0-16.0-0.0-1.0-0.0,0,0,96744,,,,,,14.0,,,,,,,,,,,,,,,,,,,,,,,,,,,,,,,,68.0,0.543,,,,,,
94,,isi,,html-keyboard-response,94,75848,0.0-1.0-16.0-0.0-2.0,0,0,96744,,,,,,,,,,,,,,,,,,,,,,,,,,,,,,,,,,,,,,69.0,1.0,,,,,,
95,,feedback,,html-keyboard-response,95,76854,0.0-1.0-16.0-0.0-3.0-0.0,0,0,96744,,,,,,14.0,,,,,,,,,,,,,,,,,,,,,,,,,,,,,,,,70.0,1.0,,,,,,
96,,iti,,html-keyboard-response,96,76961,0.0-1.0-16.0-0.0-5.0,0,0,96744,,,,,,,,,,,,,,,,,,,,,,,,,,,,,,,,,,,,,,71.5,1.5,,,,,,
97,,choice,,html-keyboard-response,97,78467,0.0-1.0-17.0-0.0-0.0,0,0,96744,,,,,,15.0,315.0,1000.0,1000.0,0.0,6.0,0.0,60-60,,,small table,seashell,60.0,60.0,small table2,seashell8,60.0,40.0,Atable126.jpg,ASEASHEL9.jpg,/static/Category_learning/Stimuli/Experimental_stims/small table/Atable126.jpg,/static/Category_learning/Stimuli/Experimental_stims/seashell/ASEASHEL9.jpg,,,,,,,,,,1.0,73.0,1.5,,,,,,
98,,isi,,html-keyboard-response,98,78574,0.0-1.0-17.0-0.0-2.0,0,0,96744,,,,,,,,,,,,,,,,,,,,,,,,,,,,,,,,,,,,,,74.0,1.0,,,,,,
99,,no_response,,html-keyboard-response,99,79581,0.0-1.0-17.0-0.0-4.0-0.0,1,0,96744,,,,,,,,,,,,,,,,,,,,,,,,,,,,,,,,,,,,,,75.0,1.0,,,,,,
100,,iti,,html-keyboard-response,100,79709,0.0-1.0-17.0-0.0-5.0,0,0,96744,,,,,,,,,,,,,,,,,,,,,,,,,,,,,,,,,,,,,,76.0,1.0,,,,,,
101,,choice,,html-keyboard-response,101,81213,0.0-1.0-17.0-0.1-0.1,0,0,96744,,,,,,15.0,315.0,1000.0,1000.0,0.0,6.0,0.0,60-60,,,small table,seashell,60.0,60.0,small table2,seashell8,60.0,40.0,Atable126.jpg,ASEASHEL9.jpg,/static/Category_learning/Stimuli/Experimental_stims/small table/Atable126.jpg,/static/Category_learning/Stimuli/Experimental_stims/seashell/ASEASHEL9.jpg,,,,,,,,,,1.0,77.5,1.5,,,,,,
102,,isi,,html-keyboard-response,102,81320,0.0-1.0-17.0-0.1-2.1,0,0,96744,,,,,,,,,,,,,,,,,,,,,,,,,,,,,,,,,,,,,,78.5,1.0,,,,,,
103,,no_response,,html-keyboard-response,103,82326,0.0-1.0-17.0-0.1-4.1-0.1,1,0,96744,,,,,,,,,,,,,,,,,,,,,,,,,,,,,,,,,,,,,,79.5,1.0,,,,,,
104,,iti,,html-keyboard-response,104,82446,0.0-1.0-17.0-0.1-5.1,0,0,96744,,,,,,,,,,,,,,,,,,,,,,,,,,,,,,,,,,,,,,81.0,1.5,,,,,,
105,,choice,,html-keyboard-response,105,83954,0.0-1.0-17.0-0.2-0.2,0,0,96744,,,,,,15.0,315.0,1000.0,1000.0,0.0,6.0,0.0,60-60,,,small table,seashell,60.0,60.0,small table2,seashell8,60.0,40.0,Atable126.jpg,ASEASHEL9.jpg,/static/Category_learning/Stimuli/Experimental_stims/small table/Atable126.jpg,/static/Category_learning/Stimuli/Experimental_stims/seashell/ASEASHEL9.jpg,,,,,,,,,,1.0,82.5,1.5,,,,,,
106,,isi,,html-keyboard-response,106,84057,0.0-1.0-17.0-0.2-2.2,0,0,96744,,,,,,,,,,,,,,,,,,,,,,,,,,,,,,,,,,,,,,84.5,2.0,,,,,,
107,,no_response,,html-keyboard-response,107,85064,0.0-1.0-17.0-0.2-4.2-0.2,1,0,96744,,,,,,,,,,,,,,,,,,,,,,,,,,,,,,,,,,,,,,85.5,1.0,,,,,,
108,,iti,,html-keyboard-response,108,85181,0.0-1.0-17.0-0.2-5.2,0,0,96744,,,,,,,,,,,,,,,,,,,,,,,,,,,,,,,,,,,,,,86.5,1.0,,,,,,
109,,choice,,html-keyboard-response,109,85210,0.0-1.0-17.0-0.3-0.3,0,0,96744,,26.0,,,75.0,15.0,315.0,1000.0,1000.0,0.0,6.0,0.0,60-60,,,small table,seashell,60.0,60.0,small table2,seashell8,60.0,40.0,Atable126.jpg,ASEASHEL9.jpg,/static/Category_learning/Stimuli/Experimental_stims/small table/Atable126.jpg,/static/Category_learning/Stimuli/Experimental_stims/seashell/ASEASHEL9.jpg,0.0,seashell,small table,60.0,60.0,seashell8,small table2,40.0,60.0,0.0,86.526,0.026,,,,,,
110,,confirmation,,html-keyboard-response,110,86691,0.0-1.0-17.0-0.3-1.3-0.3,0,0,96744,,,,,,15.0,,,,,,,,,,,,,,,,,,,,,,,,,,,,,,,,88.0,1.474,,,,,,
111,,isi,,html-keyboard-response,111,86797,0.0-1.0-17.0-0.3-2.3,0,0,96744,,,,,,,,,,,,,,,,,,,,,,,,,,,,,,,,,,,,,,89.0,1.0,,,,,,
112,,feedback,,html-keyboard-response,112,87800,0.0-1.0-17.0-0.3-3.3-0.3,0,0,96744,,,,,,15.0,,,,,,,,,,,,,,,,,,,,,,,,,,,,,,,,90.0,1.0,,,,,,
113,,iti,,html-keyboard-response,113,87907,0.0-1.0-17.0-0.3-5.3,0,0,96744,,,,,,,,,,,,,,,,,,,,,,,,,,,,,,,,,,,,,,91.0,1.0,,,,,,
114,,choice,,html-keyboard-response,114,88080,0.0-1.0-18.0-0.0-0.0,0,0,96744,,169.0,,,68.0,16.0,316.0,1500.0,1000.0,0.0,6.0,1.0,40-40,1.0,,microscope,microscope,40.0,40.0,microscope10,microscope2,20.0,40.0,DS-2.jpg,3090-b.jpg,/static/Category_learning/Stimuli/Experimental_stims/microscope/DS-2.jpg,/static/Category_learning/Stimuli/Experimental_stims/microscope/3090-b.jpg,1.0,microscope,microscope,40.0,40.0,microscope10,microscope2,20.0,40.0,0.0,91.169,0.169,,,,,,
115,,confirmation,,html-keyboard-response,115,89416,0.0-1.0-18.0-0.0-1.0-0.0,0,0,96744,,,,,,16.0,,,,,,,,,,,,,,,,,,,,,,,,,,,,,,,,92.5,1.331,,,,,,
116,,isi,,html-keyboard-response,116,89523,0.0-1.0-18.0-0.0-2.0,0,0,96744,,,,,,,,,,,,,,,,,,,,,,,,,,,,,,,,,,,,,,94.0,1.5,,,,,,
117,,feedback,,html-keyboard-response,117,90530,0.0-1.0-18.0-0.0-3.0-0.0,0,0,96744,,,,,,16.0,,,,,,,,,,,,,,,,,,,,,,,,,,,,,,,,95.0,1.0,,,,,,
118,,iti,,html-keyboard-response,118,90637,0.0-1.0-18.0-0.0-5.0,0,0,96744,,,,,,,,,,,,,,,,,,,,,,,,,,,,,,,,,,,,,,96.0,1.0,,,,,,
119,,choice,,html-keyboard-response,119,92040,0.0-1.0-19.0-0.0-0.0,0,0,96744,,1399.0,,,75.0,17.0,317.0,2000.0,2000.0,0.0,6.0,0.0,20-60,,1.0,nail polish,bowl,60.0,20.0,nail polish7,bowl10,40.0,0.0,117BDAkbo5L._AA160_.jpg,Abowl50.jpg,/static/Category_learning/Stimuli/Experimental_stims/nail polish/117BDAkbo5L._AA160_.jpg,/static/Category_learning/Stimuli/Experimental_stims/bowl/Abowl50.jpg,0.0,bowl,nail polish,20.0,60.0,bowl10,nail polish7,0.0,40.0,0.0,97.399,1.399,,,,,,
120,,confirmation,,html-keyboard-response,120,92145,0.0-1.0-19.0-0.0-1.0-0.0,0,0,96744,,,,,,17.0,,,,,,,,,,,,,,,,,,,,,,,,,,,,,,,,97.5,0.101,,,,,,
121,,isi,,html-keyboard-response,121,92248,0.0-1.0-19.0-0.0-2.0,0,0,96744,,,,,,,,,,,,,,,,,,,,,,,,,,,,,,,,,,,,,,99.5,2.0,,,,,,
122,,feedback,,html-keyboard-response,122,93256,0.0-1.0-19.0-0.0-3.0-0.0,0,0,96744,,,,,,17.0,,,,,,,,,,,,,,,,,,,,,,,,,,,,,,,,100.5,1.0,,,,,,
123,,iti,,html-keyboard-response,123,93362,0.0-1.0-19.0-0.0-5.0,0,0,96744,,,,,,,,,,,,,,,,,,,,,,,,,,,,,,,,,,,,,,102.5,2.0,,,,,,
124,,choice,,html-keyboard-response,124,94121,0.0-1.0-20.0-0.0-0.0,0,0,96744,,755.0,,,68.0,18.0,318.0,1000.0,1000.0,0.0,6.0,0.0,20-80,,1.0,trumpet,flashlight,80.0,20.0,trumpet4,flashlight13,60.0,0.0,JUPITER+JTR1000S.jpg,834808_sk_lg.jpg,/static/Category_learning/Stimuli/Experimental_stims/trumpet/JUPITER+JTR1000S.jpg,/static/Category_learning/Stimuli/Experimental_stims/flashlight/834808_sk_lg.jpg,1.0,trumpet,flashlight,80.0,20.0,trumpet4,flashlight13,60.0,0.0,0.0,103.255,0.755,,,,,,
125,,confirmation,,html-keyboard-response,125,94872,0.0-1.0-20.0-0.0-1.0-0.0,0,0,96744,,,,,,18.0,,,,,,,,,,,,,,,,,,,,,,,,,,,,,,,,104.0,0.745,,,,,,
126,,isi,,html-keyboard-response,126,94978,0.0-1.0-20.0-0.0-2.0,0,0,96744,,,,,,,,,,,,,,,,,,,,,,,,,,,,,,,,,,,,,,105.0,1.0,,,,,,
127,,feedback,,html-keyboard-response,127,95986,0.0-1.0-20.0-0.0-3.0-0.0,0,0,96744,,,,,,18.0,,,,,,,,,,,,,,,,,,,,,,,,,,,,,,,,106.0,1.0,,,,,,
128,,iti,,html-keyboard-response,128,96092,0.0-1.0-20.0-0.0-5.0,0,0,96744,,,,,,,,,,,,,,,,,,,,,,,,,,,,,,,,,,,,,,107.0,1.0,,,,,,
129,,choice,,html-keyboard-response,129,97597,0.0-1.0-21.0-0.0-0.0,0,0,96744,,,,,,19.0,319.0,1000.0,2000.0,0.0,6.0,0.0,80-80,,,vase,telescope,80.0,80.0,vase8,telescope10,60.0,100.0,Avase171.jpg,digimarc.ms02.jpg,/static/Category_learning/Stimuli/Experimental_stims/vase/Avase171.jpg,/static/Category_learning/Stimuli/Experimental_stims/telescope/digimarc.ms02.jpg,,,,,,,,,,1.0,108.5,1.5,,,,,,
130,,isi,,html-keyboard-response,130,97704,0.0-1.0-21.0-0.0-2.0,0,0,96744,,,,,,,,,,,,,,,,,,,,,,,,,,,,,,,,,,,,,,109.5,1.0,,,,,,
131,,no_response,,html-keyboard-response,131,98707,0.0-1.0-21.0-0.0-4.0-0.0,1,0,96744,,,,,,,,,,,,,,,,,,,,,,,,,,,,,,,,,,,,,,110.5,1.0,,,,,,
132,,iti,,html-keyboard-response,132,98825,0.0-1.0-21.0-0.0-5.0,0,0,96744,,,,,,,,,,,,,,,,,,,,,,,,,,,,,,,,,,,,,,112.5,2.0,,,,,,
133,,choice,,html-keyboard-response,133,99612,0.0-1.0-21.0-0.1-0.1,0,0,96744,,784.0,,,68.0,19.0,319.0,1000.0,2000.0,0.0,6.0,0.0,80-80,,,vase,telescope,80.0,80.0,vase8,telescope10,60.0,100.0,Avase171.jpg,digimarc.ms02.jpg,/static/Category_learning/Stimuli/Experimental_stims/vase/Avase171.jpg,/static/Category_learning/Stimuli/Experimental_stims/telescope/digimarc.ms02.jpg,1.0,vase,telescope,80.0,80.0,vase8,telescope10,60.0,100.0,0.0,113.284,0.784,,,,,,
134,,confirmation,,html-keyboard-response,134,100333,0.0-1.0-21.0-0.1-1.1-0.1,0,0,96744,,,,,,19.0,,,,,,,,,,,,,,,,,,,,,,,,,,,,,,,,114.0,0.716,,,,,,
135,,isi,,html-keyboard-response,135,100440,0.0-1.0-21.0-0.1-2.1,0,0,96744,,,,,,,,,,,,,,,,,,,,,,,,,,,,,,,,,,,,,,117.0,3.0,,,,,,
136,,feedback,,html-keyboard-response,136,101443,0.0-1.0-21.0-0.1-3.1-0.1,0,0,96744,,,,,,19.0,,,,,,,,,,,,,,,,,,,,,,,,,,,,,,,,118.0,1.0,,,,,,
137,,iti,,html-keyboard-response,137,101549,0.0-1.0-21.0-0.1-5.1,0,0,96744,,,,,,,,,,,,,,,,,,,,,,,,,,,,,,,,,,,,,,121.5,3.5,,,,,,
138,,choice,,html-keyboard-response,138,101795,0.0-1.0-22.0-0.0-0.0,0,0,96744,,243.0,,,68.0,20.0,320.0,1000.0,1000.0,0.0,6.0,0.0,40-80,,0.0,frame,telescope,40.0,80.0,frame15,telescope2,20.0,100.0,AFRAME13.jpg,Brass-telescope-60700.jpg,/static/Category_learning/Stimuli/Experimental_stims/frame/AFRAME13.jpg,/static/Category_learning/Stimuli/Experimental_stims/telescope/Brass-telescope-60700.jpg,1.0,frame,telescope,40.0,80.0,frame15,telescope2,20.0,100.0,0.0,121.743,0.243,,,,,,
139,,confirmation,,html-keyboard-response,139,103059,0.0-1.0-22.0-0.0-1.0-0.0,0,0,96744,,,,,,20.0,,,,,,,,,,,,,,,,,,,,,,,,,,,,,,,,123.0,1.257,,,,,,
140,,isi,,html-keyboard-response,140,103165,0.0-1.0-22.0-0.0-2.0,0,0,96744,,,,,,,,,,,,,,,,,,,,,,,,,,,,,,,,,,,,,,124.0,1.0,,,,,,
141,,feedback,,html-keyboard-response,141,104168,0.0-1.0-22.0-0.0-3.0-0.0,0,0,96744,,,,,,20.0,,,,,,,,,,,,,,,,,,,,,,,,,,,,,,,,125.0,1.0,,,,,,
142,,iti,,html-keyboard-response,142,104275,0.0-1.0-22.0-0.0-5.0,0,0,96744,,,,,,,,,,,,,,,,,,,,,,,,,,,,,,,,,,,,,,126.0,1.0,,,,,,
143,,choice,,html-keyboard-response,143,105778,0.0-1.0-23.0-0.0-0.0,0,0,96744,,,,,,21.0,321.0,1500.0,1500.0,0.0,6.0,0.0,40-40,,,license plate,makeup compact,40.0,40.0,license plate15,makeup compact14,40.0,60.0,hi-hwr-837.jpg,262597_fpx.jpg,/static/Category_learning/Stimuli/Experimental_stims/license plate/hi-hwr-837.jpg,/static/Category_learning/Stimuli/Experimental_stims/makeup compact/262597_fpx.jpg,,,,,,,,,,1.0,127.5,1.5,,,,,,
144,,isi,,html-keyboard-response,144,105885,0.0-1.0-23.0-0.0-2.0,0,0,96744,,,,,,,,,,,,,,,,,,,,,,,,,,,,,,,,,,,,,,129.0,1.5,,,,,,
145,,no_response,,html-keyboard-response,145,106891,0.0-1.0-23.0-0.0-4.0-0.0,1,0,96744,,,,,,,,,,,,,,,,,,,,,,,,,,,,,,,,,,,,,,130.0,1.0,,,,,,
146,,iti,,html-keyboard-response,146,107011,0.0-1.0-23.0-0.0-5.0,0,0,96744,,,,,,,,,,,,,,,,,,,,,,,,,,,,,,,,,,,,,,131.5,1.5,,,,,,
147,,choice,,html-keyboard-response,147,108515,0.0-1.0-23.0-0.1-0.1,0,0,96744,,,,,,21.0,321.0,1500.0,1500.0,0.0,6.0,0.0,40-40,,,license plate,makeup compact,40.0,40.0,license plate15,makeup compact14,40.0,60.0,hi-hwr-837.jpg,262597_fpx.jpg,/static/Category_learning/Stimuli/Experimental_stims/license plate/hi-hwr-837.jpg,/static/Category_learning/Stimuli/Experimental_stims/makeup compact/262597_fpx.jpg,,,,,,,,,,1.0,133.0,1.5,,,,,,
148,,isi,,html-keyboard-response,148,108621,0.0-1.0-23.0-0.1-2.1,0,0,96744,,,,,,,,,,,,,,,,,,,,,,,,,,,,,,,,,,,,,,134.5,1.5,,,,,,
149,,no_response,,html-keyboard-response,149,109624,0.0-1.0-23.0-0.1-4.1-0.1,1,0,96744,,,,,,,,,,,,,,,,,,,,,,,,,,,,,,,,,,,,,,135.5,1.0,,,,,,
150,,iti,,html-keyboard-response,150,109747,0.0-1.0-23.0-0.1-5.1,0,0,96744,,,,,,,,,,,,,,,,,,,,,,,,,,,,,,,,,,,,,,136.5,1.0,,,,,,
151,,choice,,html-keyboard-response,151,110314,0.0-1.0-23.0-0.2-0.2,0,0,96744,,564.0,,,68.0,21.0,321.0,1500.0,1500.0,0.0,6.0,0.0,40-40,,,license plate,makeup compact,40.0,40.0,license plate15,makeup compact14,40.0,60.0,hi-hwr-837.jpg,262597_fpx.jpg,/static/Category_learning/Stimuli/Experimental_stims/license plate/hi-hwr-837.jpg,/static/Category_learning/Stimuli/Experimental_stims/makeup compact/262597_fpx.jpg,1.0,license plate,makeup compact,40.0,40.0,license plate15,makeup compact14,40.0,60.0,0.0,137.064,0.564,,,,,,
152,,confirmation,,html-keyboard-response,152,111256,0.0-1.0-23.0-0.2-1.2-0.2,0,0,96744,,,,,,21.0,,,,,,,,,,,,,,,,,,,,,,,,,,,,,,,,138.0,0.936,,,,,,
153,,isi,,html-keyboard-response,153,111362,0.0-1.0-23.0-0.2-2.2,0,0,96744,,,,,,,,,,,,,,,,,,,,,,,,,,,,,,,,,,,,,,140.0,2.0,,,,,,
154,,feedback,,html-keyboard-response,154,112365,0.0-1.0-23.0-0.2-3.2-0.2,0,0,96744,,,,,,21.0,,,,,,,,,,,,,,,,,,,,,,,,,,,,,,,,141.0,1.0,,,,,,
155,,iti,,html-keyboard-response,155,112472,0.0-1.0-23.0-0.2-5.2,0,0,96744,,,,,,,,,,,,,,,,,,,,,,,,,,,,,,,,,,,,,,142.0,1.0,,,,,,
156,,choice,,html-keyboard-response,156,113978,0.0-1.0-24.0-0.0-0.0,0,0,96744,,,,,,22.0,322.0,3500.0,1500.0,0.0,6.0,0.0,20-40,,1.0,hat,baby carriage,40.0,20.0,hat15,baby carriage7,40.0,0.0,AFISHHAT2.jpg,26423282.thl.jpg,/static/Category_learning/Stimuli/Experimental_stims/hat/AFISHHAT2.jpg,/static/Category_learning/Stimuli/Experimental_stims/baby carriage/26423282.thl.jpg,,,,,,,,,,1.0,143.5,1.5,,,,,,
157,,isi,,html-keyboard-response,157,114083,0.0-1.0-24.0-0.0-2.0,0,0,96744,,,,,,,,,,,,,,,,,,,,,,,,,,,,,,,,,,,,,,147.0,3.5,,,,,,
158,,no_response,,html-keyboard-response,158,115086,0.0-1.0-24.0-0.0-4.0-0.0,1,0,96744,,,,,,,,,,,,,,,,,,,,,,,,,,,,,,,,,,,,,,148.0,1.0,,,,,,
159,,iti,,html-keyboard-response,159,115203,0.0-1.0-24.0-0.0-5.0,0,0,96744,,,,,,,,,,,,,,,,,,,,,,,,,,,,,,,,,,,,,,149.5,1.5,,,,,,
160,,choice,,html-keyboard-response,160,116350,0.0-1.0-24.0-0.1-0.1,0,0,96744,,1144.0,,,68.0,22.0,322.0,3500.0,1500.0,0.0,6.0,0.0,20-40,,1.0,hat,baby carriage,40.0,20.0,hat15,baby carriage7,40.0,0.0,AFISHHAT2.jpg,26423282.thl.jpg,/static/Category_learning/Stimuli/Experimental_stims/hat/AFISHHAT2.jpg,/static/Category_learning/Stimuli/Experimental_stims/baby carriage/26423282.thl.jpg,1.0,hat,baby carriage,40.0,20.0,hat15,baby carriage7,40.0,0.0,0.0,150.644,1.144,,,,,,
161,,confirmation,,html-keyboard-response,161,116712,0.0-1.0-24.0-0.1-1.1-0.1,0,0,96744,,,,,,22.0,,,,,,,,,,,,,,,,,,,,,,,,,,,,,,,,151.0,0.356,,,,,,
162,,isi,,html-keyboard-response,162,116819,0.0-1.0-24.0-0.1-2.1,0,0,96744,,,,,,,,,,,,,,,,,,,,,,,,,,,,,,,,,,,,,,153.0,2.0,,,,,,
163,,feedback,,html-keyboard-response,163,117825,0.0-1.0-24.0-0.1-3.1-0.1,0,0,96744,,,,,,22.0,,,,,,,,,,,,,,,,,,,,,,,,,,,,,,,,154.0,1.0,,,,,,
164,,iti,,html-keyboard-response,164,117932,0.0-1.0-24.0-0.1-5.1,0,0,96744,,,,,,,,,,,,,,,,,,,,,,,,,,,,,,,,,,,,,,155.5,1.5,,,,,,
165,,choice,,html-keyboard-response,165,119437,0.0-1.0-25.0-0.0-0.0,0,0,96744,,,,,,23.0,323.0,3000.0,1000.0,0.0,6.0,0.0,20-60,,0.0,desk,nail polish,20.0,60.0,desk13,nail polish13,0.0,80.0,26427865.thl.jpg,31cR10fzlML._AA280_.jpg,/static/Category_learning/Stimuli/Experimental_stims/desk/26427865.thl.jpg,/static/Category_learning/Stimuli/Experimental_stims/nail polish/31cR10fzlML._AA280_.jpg,,,,,,,,,,1.0,157.0,1.5,,,,,,
166,,isi,,html-keyboard-response,166,119544,0.0-1.0-25.0-0.0-2.0,0,0,96744,,,,,,,,,,,,,,,,,,,,,,,,,,,,,,,,,,,,,,160.0,3.0,,,,,,
167,,no_response,,html-keyboard-response,167,120547,0.0-1.0-25.0-0.0-4.0-0.0,1,0,96744,,,,,,,,,,,,,,,,,,,,,,,,,,,,,,,,,,,,,,161.0,1.0,,,,,,
168,,iti,,html-keyboard-response,168,120669,0.0-1.0-25.0-0.0-5.0,0,0,96744,,,,,,,,,,,,,,,,,,,,,,,,,,,,,,,,,,,,,,162.0,1.0,,,,,,
169,,choice,,html-keyboard-response,169,120968,0.0-1.0-25.0-0.1-0.1,0,0,96744,,296.0,,,68.0,23.0,323.0,3000.0,1000.0,0.0,6.0,0.0,20-60,,0.0,desk,nail polish,20.0,60.0,desk13,nail polish13,0.0,80.0,26427865.thl.jpg,31cR10fzlML._AA280_.jpg,/static/Category_learning/Stimuli/Experimental_stims/desk/26427865.thl.jpg,/static/Category_learning/Stimuli/Experimental_stims/nail polish/31cR10fzlML._AA280_.jpg,1.0,desk,nail polish,20.0,60.0,desk13,nail polish13,0.0,80.0,0.0,162.296,0.296,,,,,,
170,,confirmation,,html-keyboard-response,170,122179,0.0-1.0-25.0-0.1-1.1-0.1,0,0,96744,,,,,,23.0,,,,,,,,,,,,,,,,,,,,,,,,,,,,,,,,163.5,1.204,,,,,,
171,,isi,,html-keyboard-response,171,122285,0.0-1.0-25.0-0.1-2.1,0,0,96744,,,,,,,,,,,,,,,,,,,,,,,,,,,,,,,,,,,,,,167.0,3.5,,,,,,
172,,feedback,,html-keyboard-response,172,123292,0.0-1.0-25.0-0.1-3.1-0.1,0,0,96744,,,,,,23.0,,,,,,,,,,,,,,,,,,,,,,,,,,,,,,,,168.0,1.0,,,,,,
173,,iti,,html-keyboard-response,173,123396,0.0-1.0-25.0-0.1-5.1,0,0,96744,,,,,,,,,,,,,,,,,,,,,,,,,,,,,,,,,,,,,,169.0,1.0,,,,,,
174,,choice,,html-keyboard-response,174,123682,0.0-1.0-26.0-0.0-0.0,0,0,96744,,284.0,,,68.0,24.0,324.0,1000.0,1000.0,0.0,6.0,1.0,40-60,0.0,,frame,necklace,40.0,60.0,frame15,necklace1,20.0,80.0,AFRAME13.jpg,26443173.thl.jpg,/static/Category_learning/Stimuli/Experimental_stims/frame/AFRAME13.jpg,/static/Category_learning/Stimuli/Experimental_stims/necklace/26443173.thl.jpg,1.0,frame,necklace,40.0,60.0,frame15,necklace1,20.0,80.0,0.0,169.284,0.284,,,,,,
175,,confirmation,,html-keyboard-response,175,124904,0.0-1.0-26.0-0.0-1.0-0.0,0,0,96744,,,,,,24.0,,,,,,,,,,,,,,,,,,,,,,,,,,,,,,,,170.5,1.216,,,,,,
176,,isi,,html-keyboard-response,176,125011,0.0-1.0-26.0-0.0-2.0,0,0,96744,,,,,,,,,,,,,,,,,,,,,,,,,,,,,,,,,,,,,,171.5,1.0,,,,,,
177,,feedback,,html-keyboard-response,177,126019,0.0-1.0-26.0-0.0-3.0-0.0,0,0,96744,,,,,,24.0,,,,,,,,,,,,,,,,,,,,,,,,,,,,,,,,172.5,1.0,,,,,,
178,,iti,,html-keyboard-response,178,126125,0.0-1.0-26.0-0.0-5.0,0,0,96744,,,,,,,,,,,,,,,,,,,,,,,,,,,,,,,,,,,,,,173.5,1.0,,,,,,
179,,choice,,html-keyboard-response,179,126528,0.0-1.0-27.0-0.0-0.0,0,0,96744,,400.0,,,75.0,25.0,325.0,1500.0,1000.0,0.0,6.0,0.0,40-60,,1.0,necklace,hammer,60.0,40.0,necklace14,hammer10,80.0,20.0,necklascenew05.jpg,Tabla Hammer.JPG,/static/Category_learning/Stimuli/Experimental_stims/necklace/necklascenew05.jpg,/static/Category_learning/Stimuli/Experimental_stims/hammer/Tabla Hammer.JPG,0.0,hammer,necklace,40.0,60.0,hammer10,necklace14,20.0,80.0,0.0,173.9,0.4,,,,,,
180,,confirmation,,html-keyboard-response,180,127635,0.0-1.0-27.0-0.0-1.0-0.0,0,0,96744,,,,,,25.0,,,,,,,,,,,,,,,,,,,,,,,,,,,,,,,,175.0,1.1,,,,,,
181,,isi,,html-keyboard-response,181,127742,0.0-1.0-27.0-0.0-2.0,0,0,96744,,,,,,,,,,,,,,,,,,,,,,,,,,,,,,,,,,,,,,176.5,1.5,,,,,,
182,,feedback,,html-keyboard-response,182,128747,0.0-1.0-27.0-0.0-3.0-0.0,0,0,96744,,,,,,25.0,,,,,,,,,,,,,,,,,,,,,,,,,,,,,,,,177.5,1.0,,,,,,
183,,iti,,html-keyboard-response,183,128851,0.0-1.0-27.0-0.0-5.0,0,0,96744,,,,,,,,,,,,,,,,,,,,,,,,,,,,,,,,,,,,,,178.5,1.0,,,,,,
184,,choice,,html-keyboard-response,184,129688,0.0-1.0-28.0-0.0-0.0,0,0,96744,,835.0,,,75.0,26.0,326.0,1500.0,1500.0,0.0,6.0,1.0,20-80,0.0,,trumpet,desk,80.0,20.0,trumpet4,desk13,60.0,0.0,JUPITER+JTR1000S.jpg,26427865.thl.jpg,/static/Category_learning/Stimuli/Experimental_stims/trumpet/JUPITER+JTR1000S.jpg,/static/Category_learning/Stimuli/Experimental_stims/desk/26427865.thl.jpg,0.0,desk,trumpet,20.0,80.0,desk13,trumpet4,0.0,60.0,0.0,179.335,0.835,,,,,,
185,,confirmation,,html-keyboard-response,185,130360,0.0-1.0-28.0-0.0-1.0-0.0,0,0,96744,,,,,,26.0,,,,,,,,,,,,,,,,,,,,,,,,,,,,,,,,180.0,0.665,,,,,,
186,,isi,,html-keyboard-response,186,130466,0.0-1.0-28.0-0.0-2.0,0,0,96744,,,,,,,,,,,,,,,,,,,,,,,,,,,,,,,,,,,,,,181.5,1.5,,,,,,
187,,feedback,,html-keyboard-response,187,131471,0.0-1.0-28.0-0.0-3.0-0.0,0,0,96744,,,,,,26.0,,,,,,,,,,,,,,,,,,,,,,,,,,,,,,,,182.5,1.0,,,,,,
188,,iti,,html-keyboard-response,188,131577,0.0-1.0-28.0-0.0-5.0,0,0,96744,,,,,,,,,,,,,,,,,,,,,,,,,,,,,,,,,,,,,,184.0,1.5,,,,,,
189,,choice,,html-keyboard-response,189,132161,0.0-1.0-29.0-0.0-0.0,0,0,96744,,581.0,,,75.0,27.0,327.0,1000.0,1500.0,0.0,6.0,0.0,20-80,,1.0,trumpet,bongo,80.0,20.0,trumpet8,bongo10,80.0,20.0,trumpet33.jpg,22945915.thl.jpg,/static/Category_learning/Stimuli/Experimental_stims/trumpet/trumpet33.jpg,/static/Category_learning/Stimuli/Experimental_stims/bongo/22945915.thl.jpg,0.0,bongo,trumpet,20.0,80.0,bongo10,trumpet8,20.0,80.0,0.0,184.581,0.581,,,,,,
190,,confirmation,,html-keyboard-response,190,133085,0.0-1.0-29.0-0.0-1.0-0.0,0,0,96744,,,,,,27.0,,,,,,,,,,,,,,,,,,,,,,,,,,,,,,,,185.5,0.919,,,,,,
191,,isi,,html-keyboard-response,191,133192,0.0-1.0-29.0-0.0-2.0,0,0,96744,,,,,,,,,,,,,,,,,,,,,,,,,,,,,,,,,,,,,,186.5,1.0,,,,,,
192,,feedback,,html-keyboard-response,192,134196,0.0-1.0-29.0-0.0-3.0-0.0,0,0,96744,,,,,,27.0,,,,,,,,,,,,,,,,,,,,,,,,,,,,,,,,187.5,1.0,,,,,,
193,,iti,,html-keyboard-response,193,134302,0.0-1.0-29.0-0.0-5.0,0,0,96744,,,,,,,,,,,,,,,,,,,,,,,,,,,,,,,,,,,,,,189.0,1.5,,,,,,
194,,choice,,html-keyboard-response,194,134943,0.0-1.0-30.0-0.0-0.0,0,0,96744,,638.0,,,75.0,28.0,328.0,1000.0,2000.0,0.0,6.0,1.0,40-60,0.0,,hammer,seashell,40.0,60.0,hammer10,seashell8,20.0,40.0,Tabla Hammer.JPG,ASEASHEL9.jpg,/static/Category_learning/Stimuli/Experimental_stims/hammer/Tabla Hammer.JPG,/static/Category_learning/Stimuli/Experimental_stims/seashell/ASEASHEL9.jpg,0.0,seashell,hammer,60.0,40.0,seashell8,hammer10,40.0,20.0,0.0,189.638,0.638,,,,,,
195,,confirmation,,html-keyboard-response,195,135811,0.0-1.0-30.0-0.0-1.0-0.0,0,0,96744,,,,,,28.0,,,,,,,,,,,,,,,,,,,,,,,,,,,,,,,,190.5,0.862,,,,,,
196,,isi,,html-keyboard-response,196,135918,0.0-1.0-30.0-0.0-2.0,0,0,96744,,,,,,,,,,,,,,,,,,,,,,,,,,,,,,,,,,,,,,191.5,1.0,,,,,,
197,,feedback,,html-keyboard-response,197,136920,0.0-1.0-30.0-0.0-3.0-0.0,0,0,96744,,,,,,28.0,,,,,,,,,,,,,,,,,,,,,,,,,,,,,,,,192.5,1.0,,,,,,
198,,iti,,html-keyboard-response,198,137026,0.0-1.0-30.0-0.0-5.0,0,0,96744,,,,,,,,,,,,,,,,,,,,,,,,,,,,,,,,,,,,,,194.5,2.0,,,,,,
199,,choice,,html-keyboard-response,199,137478,0.0-1.0-31.0-0.0-0.0,0,0,96744,,448.0,,,75.0,29.0,329.0,2000.0,1000.0,0.0,6.0,0.0,40-60,,0.0,motorcycle,small table,40.0,60.0,motorcycle4,small table15,20.0,40.0,motorcycle46.jpg,ATABLE20.jpg,/static/Category_learning/Stimuli/Experimental_stims/motorcycle/motorcycle46.jpg,/static/Category_learning/Stimuli/Experimental_stims/small table/ATABLE20.jpg,0.0,small table,motorcycle,60.0,40.0,small table15,motorcycle4,40.0,20.0,0.0,194.948,0.448,,,,,,
200,,confirmation,,html-keyboard-response,200,138536,0.0-1.0-31.0-0.0-1.0-0.0,0,0,96744,,,,,,29.0,,,,,,,,,,,,,,,,,,,,,,,,,,,,,,,,196.0,1.052,,,,,,
201,,isi,,html-keyboard-response,201,138643,0.0-1.0-31.0-0.0-2.0,0,0,96744,,,,,,,,,,,,,,,,,,,,,,,,,,,,,,,,,,,,,,198.0,2.0,,,,,,
202,,feedback,,html-keyboard-response,202,139651,0.0-1.0-31.0-0.0-3.0-0.0,0,0,96744,,,,,,29.0,,,,,,,,,,,,,,,,,,,,,,,,,,,,,,,,199.0,1.0,,,,,,
203,,iti,,html-keyboard-response,203,139758,0.0-1.0-31.0-0.0-5.0,0,0,96744,,,,,,,,,,,,,,,,,,,,,,,,,,,,,,,,,,,,,,200.0,1.0,,,,,,
204,,choice,,html-keyboard-response,204,140463,0.0-1.0-32.0-0.0-0.0,0,0,96744,,702.0,,,75.0,30.0,330.0,1000.0,3500.0,0.0,6.0,0.0,40-80,,1.0,tape,hammer,80.0,40.0,tape2,hammer15,100.0,60.0,Tape_Dispenser.jpg,Vaughan-32-oz-Hickory-Handle-Ball-Pein-Hammer-S432-B0001LRUJM-L-ARCQ0EBO8TR73_.jpg,/static/Category_learning/Stimuli/Experimental_stims/tape/Tape_Dispenser.jpg,/static/Category_learning/Stimuli/Experimental_stims/hammer/Vaughan-32-oz-Hickory-Handle-Ball-Pein-Hammer-S432-B0001LRUJM-L-ARCQ0EBO8TR73_.jpg,0.0,hammer,tape,40.0,80.0,hammer15,tape2,60.0,100.0,0.0,200.702,0.702,,,,,,
205,,confirmation,,html-keyboard-response,205,141267,0.0-1.0-32.0-0.0-1.0-0.0,0,0,96744,,,,,,30.0,,,,,,,,,,,,,,,,,,,,,,,,,,,,,,,,201.5,0.798,,,,,,
206,,isi,,html-keyboard-response,206,141374,0.0-1.0-32.0-0.0-2.0,0,0,96744,,,,,,,,,,,,,,,,,,,,,,,,,,,,,,,,,,,,,,202.5,1.0,,,,,,
207,,feedback,,html-keyboard-response,207,142377,0.0-1.0-32.0-0.0-3.0-0.0,0,0,96744,,,,,,30.0,,,,,,,,,,,,,,,,,,,,,,,,,,,,,,,,203.5,1.0,,,,,,
208,,iti,,html-keyboard-response,208,142483,0.0-1.0-32.0-0.0-5.0,0,0,96744,,,,,,,,,,,,,,,,,,,,,,,,,,,,,,,,,,,,,,207.0,3.5,,,,,,
209,,choice,,html-keyboard-response,209,142498,0.0-1.0-33.0-0.0-0.0,0,0,96744,,11.0,,,75.0,31.0,331.0,1000.0,1000.0,0.0,6.0,1.0,60-80,0.0,,vase,small table,80.0,60.0,vase8,small table15,60.0,40.0,Avase171.jpg,ATABLE20.jpg,/static/Category_learning/Stimuli/Experimental_stims/vase/Avase171.jpg,/static/Category_learning/Stimuli/Experimental_stims/small table/ATABLE20.jpg,0.0,small table,vase,60.0,80.0,small table15,vase8,40.0,60.0,0.0,207.011,0.011,,,,,,
210,,confirmation,,html-keyboard-response,210,143990,0.0-1.0-33.0-0.0-1.0-0.0,0,0,96744,,,,,,31.0,,,,,,,,,,,,,,,,,,,,,,,,,,,,,,,,208.5,1.489,,,,,,
211,,isi,,html-keyboard-response,211,144094,0.0-1.0-33.0-0.0-2.0,0,0,96744,,,,,,,,,,,,,,,,,,,,,,,,,,,,,,,,,,,,,,209.5,1.0,,,,,,
212,,feedback,,html-keyboard-response,212,145098,0.0-1.0-33.0-0.0-3.0-0.0,0,0,96744,,,,,,31.0,,,,,,,,,,,,,,,,,,,,,,,,,,,,,,,,210.5,1.0,,,,,,
213,,iti,,html-keyboard-response,213,145203,0.0-1.0-33.0-0.0-5.0,0,0,96744,,,,,,,,,,,,,,,,,,,,,,,,,,,,,,,,,,,,,,211.5,1.0,,,,,,
214,,choice,,html-keyboard-response,214,145696,0.0-1.0-34.0-0.0-0.0,0,0,96744,,489.0,,,75.0,32.0,332.0,1500.0,3500.0,0.0,6.0,0.0,40-60,,0.0,key chain,poker card,40.0,60.0,key chain4,poker card3,20.0,40.0,Gumby_Green-Keychain.jpg,9817131.thl.jpg,/static/Category_learning/Stimuli/Experimental_stims/key chain/Gumby_Green-Keychain.jpg,/static/Category_learning/Stimuli/Experimental_stims/poker card/9817131.thl.jpg,0.0,poker card,key chain,60.0,40.0,poker card3,key chain4,40.0,20.0,0.0,211.989,0.489,,,,,,
215,,confirmation,,html-keyboard-response,215,146712,0.0-1.0-34.0-0.0-1.0-0.0,0,0,96744,,,,,,32.0,,,,,,,,,,,,,,,,,,,,,,,,,,,,,,,,213.0,1.011,,,,,,
216,,isi,,html-keyboard-response,216,146819,0.0-1.0-34.0-0.0-2.0,0,0,96744,,,,,,,,,,,,,,,,,,,,,,,,,,,,,,,,,,,,,,214.5,1.5,,,,,,
217,,feedback,,html-keyboard-response,217,147825,0.0-1.0-34.0-0.0-3.0-0.0,0,0,96744,,,,,,32.0,,,,,,,,,,,,,,,,,,,,,,,,,,,,,,,,215.5,1.0,,,,,,
218,,iti,,html-keyboard-response,218,147928,0.0-1.0-34.0-0.0-5.0,0,0,96744,,,,,,,,,,,,,,,,,,,,,,,,,,,,,,,,,,,,,,219.0,3.5,,,,,,
219,,choice,,html-keyboard-response,219,149139,0.0-1.0-35.0-0.0-0.0,0,0,96744,,1207.0,,,75.0,33.0,333.0,1500.0,2000.0,0.0,6.0,1.0,20-40,0.0,,hat,bongo,40.0,20.0,hat15,bongo10,40.0,20.0,AFISHHAT2.jpg,22945915.thl.jpg,/static/Category_learning/Stimuli/Experimental_stims/hat/AFISHHAT2.jpg,/static/Category_learning/Stimuli/Experimental_stims/bongo/22945915.thl.jpg,0.0,bongo,hat,20.0,40.0,bongo10,hat15,20.0,40.0,0.0,220.207,1.207,,,,,,
220,,confirmation,,html-keyboard-response,220,149438,0.0-1.0-35.0-0.0-1.0-0.0,0,0,96744,,,,,,33.0,,,,,,,,,,,,,,,,,,,,,,,,,,,,,,,,220.5,0.293,,,,,,
221,,isi,,html-keyboard-response,221,149544,0.0-1.0-35.0-0.0-2.0,0,0,96744,,,,,,,,,,,,,,,,,,,,,,,,,,,,,,,,,,,,,,222.0,1.5,,,,,,
222,,feedback,,html-keyboard-response,222,150547,0.0-1.0-35.0-0.0-3.0-0.0,0,0,96744,,,,,,33.0,,,,,,,,,,,,,,,,,,,,,,,,,,,,,,,,223.0,1.0,,,,,,
223,,iti,,html-keyboard-response,223,150654,0.0-1.0-35.0-0.0-5.0,0,0,96744,,,,,,,,,,,,,,,,,,,,,,,,,,,,,,,,,,,,,,225.0,2.0,,,,,,
224,,choice,,html-keyboard-response,224,151346,0.0-1.0-36.0-0.0-0.0,0,0,96744,,689.0,,,75.0,34.0,334.0,1500.0,2000.0,0.0,6.0,0.0,80-80,,,telescope,trumpet,80.0,80.0,telescope8,trumpet6,80.0,60.0,p0006439g.jpg,JUP416S.JPG,/static/Category_learning/Stimuli/Experimental_stims/telescope/p0006439g.jpg,/static/Category_learning/Stimuli/Experimental_stims/trumpet/JUP416S.JPG,0.0,trumpet,telescope,80.0,80.0,trumpet6,telescope8,60.0,80.0,0.0,225.689,0.689,,,,,,
225,,confirmation,,html-keyboard-response,225,152160,0.0-1.0-36.0-0.0-1.0-0.0,0,0,96744,,,,,,34.0,,,,,,,,,,,,,,,,,,,,,,,,,,,,,,,,226.5,0.811,,,,,,
226,,isi,,html-keyboard-response,226,152265,0.0-1.0-36.0-0.0-2.0,0,0,96744,,,,,,,,,,,,,,,,,,,,,,,,,,,,,,,,,,,,,,228.0,1.5,,,,,,
227,,feedback,,html-keyboard-response,227,153271,0.0-1.0-36.0-0.0-3.0-0.0,0,0,96744,,,,,,34.0,,,,,,,,,,,,,,,,,,,,,,,,,,,,,,,,229.0,1.0,,,,,,
228,,iti,,html-keyboard-response,228,153375,0.0-1.0-36.0-0.0-5.0,0,0,96744,,,,,,,,,,,,,,,,,,,,,,,,,,,,,,,,,,,,,,231.0,2.0,,,,,,
229,,choice,,html-keyboard-response,229,153722,0.0-1.0-37.0-0.0-0.0,0,0,96744,,345.0,,,68.0,35.0,335.0,1000.0,1000.0,0.0,6.0,0.0,20-40,,0.0,bowl,hammer,20.0,40.0,bowl14,hammer1,40.0,20.0,Aredglassbowl.jpg,fosnaugh.hammer.jpg,/static/Category_learning/Stimuli/Experimental_stims/bowl/Aredglassbowl.jpg,/static/Category_learning/Stimuli/Experimental_stims/hammer/fosnaugh.hammer.jpg,1.0,bowl,hammer,20.0,40.0,bowl14,hammer1,40.0,20.0,0.0,231.345,0.345,,,,,,
230,,confirmation,,html-keyboard-response,230,154883,0.0-1.0-37.0-0.0-1.0-0.0,0,0,96744,,,,,,35.0,,,,,,,,,,,,,,,,,,,,,,,,,,,,,,,,232.5,1.155,,,,,,
231,,isi,,html-keyboard-response,231,154990,0.0-1.0-37.0-0.0-2.0,0,0,96744,,,,,,,,,,,,,,,,,,,,,,,,,,,,,,,,,,,,,,233.5,1.0,,,,,,
232,,feedback,,html-keyboard-response,232,155997,0.0-1.0-37.0-0.0-3.0-0.0,0,0,96744,,,,,,35.0,,,,,,,,,,,,,,,,,,,,,,,,,,,,,,,,234.5,1.0,,,,,,
233,,iti,,html-keyboard-response,233,156099,0.0-1.0-37.0-0.0-5.0,0,0,96744,,,,,,,,,,,,,,,,,,,,,,,,,,,,,,,,,,,,,,235.5,1.0,,,,,,
234,,choice,,html-keyboard-response,234,156356,0.0-1.0-38.0-0.0-0.0,0,0,96744,,253.0,,,68.0,36.0,336.0,2000.0,1000.0,0.0,6.0,1.0,20-20,1.0,,bowl,bowl,20.0,20.0,bowl14,bowl10,40.0,0.0,Aredglassbowl.jpg,Abowl50.jpg,/static/Category_learning/Stimuli/Experimental_stims/bowl/Aredglassbowl.jpg,/static/Category_learning/Stimuli/Experimental_stims/bowl/Abowl50.jpg,1.0,bowl,bowl,20.0,20.0,bowl14,bowl10,40.0,0.0,0.0,235.753,0.253,,,,,,
235,,confirmation,,html-keyboard-response,235,157609,0.0-1.0-38.0-0.0-1.0-0.0,0,0,96744,,,,,,36.0,,,,,,,,,,,,,,,,,,,,,,,,,,,,,,,,237.0,1.247,,,,,,
236,,isi,,html-keyboard-response,236,157716,0.0-1.0-38.0-0.0-2.0,0,0,96744,,,,,,,,,,,,,,,,,,,,,,,,,,,,,,,,,,,,,,239.0,2.0,,,,,,
237,,feedback,,html-keyboard-response,237,158723,0.0-1.0-38.0-0.0-3.0-0.0,0,0,96744,,,,,,36.0,,,,,,,,,,,,,,,,,,,,,,,,,,,,,,,,240.0,1.0,,,,,,
238,,iti,,html-keyboard-response,238,158830,0.0-1.0-38.0-0.0-5.0,0,0,96744,,,,,,,,,,,,,,,,,,,,,,,,,,,,,,,,,,,,,,241.0,1.0,,,,,,
239,,choice,,html-keyboard-response,239,159133,0.0-1.0-39.0-0.0-0.0,0,0,96744,,300.0,,,75.0,37.0,337.0,1500.0,1000.0,0.0,6.0,0.0,40-80,,0.0,key chain,watch,40.0,80.0,key chain2,watch3,40.0,80.0,superman_returns_pewter_keychain_2.jpg,B0000TIIVO.01._SCLZZZZZZZ_V1124920780_.jpg,/static/Category_learning/Stimuli/Experimental_stims/key chain/superman_returns_pewter_keychain_2.jpg,/static/Category_learning/Stimuli/Experimental_stims/watch/B0000TIIVO.01._SCLZZZZZZZ_V1124920780_.jpg,0.0,watch,key chain,80.0,40.0,watch3,key chain2,80.0,40.0,0.0,241.3,0.3,,,,,,
240,,confirmation,,html-keyboard-response,240,160339,0.0-1.0-39.0-0.0-1.0-0.0,0,0,96744,,,,,,37.0,,,,,,,,,,,,,,,,,,,,,,,,,,,,,,,,242.5,1.2,,,,,,
241,,isi,,html-keyboard-response,241,160442,0.0-1.0-39.0-0.0-2.0,0,0,96744,,,,,,,,,,,,,,,,,,,,,,,,,,,,,,,,,,,,,,244.0,1.5,,,,,,
242,,feedback,,html-keyboard-response,242,161449,0.0-1.0-39.0-0.0-3.0-0.0,0,0,96744,,,,,,37.0,,,,,,,,,,,,,,,,,,,,,,,,,,,,,,,,245.0,1.0,,,,,,
243,,iti,,html-keyboard-response,243,161555,0.0-1.0-39.0-0.0-5.0,0,0,96744,,,,,,,,,,,,,,,,,,,,,,,,,,,,,,,,,,,,,,246.0,1.0,,,,,,
244,,choice,,html-keyboard-response,244,162234,0.0-1.0-40.0-0.0-0.0,0,0,96744,,676.0,,,68.0,38.0,338.0,1000.0,2000.0,0.0,6.0,0.0,20-60,,1.0,small table,baby carriage,60.0,20.0,small table13,baby carriage1,40.0,40.0,ATABLE25.jpg,babycarriage16.jpg,/static/Category_learning/Stimuli/Experimental_stims/small table/ATABLE25.jpg,/static/Category_learning/Stimuli/Experimental_stims/baby carriage/babycarriage16.jpg,1.0,small table,baby carriage,60.0,20.0,small table13,baby carriage1,40.0,40.0,0.0,246.676,0.676,,,,,,
245,,confirmation,,html-keyboard-response,245,163065,0.0-1.0-40.0-0.0-1.0-0.0,0,0,96744,,,,,,38.0,,,,,,,,,,,,,,,,,,,,,,,,,,,,,,,,247.5,0.824,,,,,,
246,,isi,,html-keyboard-response,246,163171,0.0-1.0-40.0-0.0-2.0,0,0,96744,,,,,,,,,,,,,,,,,,,,,,,,,,,,,,,,,,,,,,248.5,1.0,,,,,,
247,,feedback,,html-keyboard-response,247,164176,0.0-1.0-40.0-0.0-3.0-0.0,0,0,96744,,,,,,38.0,,,,,,,,,,,,,,,,,,,,,,,,,,,,,,,,249.5,1.0,,,,,,
248,,iti,,html-keyboard-response,248,164279,0.0-1.0-40.0-0.0-5.0,0,0,96744,,,,,,,,,,,,,,,,,,,,,,,,,,,,,,,,,,,,,,251.5,2.0,,,,,,
249,,choice,,html-keyboard-response,249,165785,0.0-1.0-41.0-0.0-0.0,0,0,96744,,,,,,39.0,339.0,2000.0,1500.0,0.0,6.0,1.0,40-80,0.0,,license plate,tape,40.0,80.0,license plate15,tape14,40.0,60.0,hi-hwr-837.jpg,922544.jpg,/static/Category_learning/Stimuli/Experimental_stims/license plate/hi-hwr-837.jpg,/static/Category_learning/Stimuli/Experimental_stims/tape/922544.jpg,,,,,,,,,,1.0,253.0,1.5,,,,,,
250,,isi,,html-keyboard-response,250,165892,0.0-1.0-41.0-0.0-2.0,0,0,96744,,,,,,,,,,,,,,,,,,,,,,,,,,,,,,,,,,,,,,255.0,2.0,,,,,,
251,,no_response,,html-keyboard-response,251,166899,0.0-1.0-41.0-0.0-4.0-0.0,1,0,96744,,,,,,,,,,,,,,,,,,,,,,,,,,,,,,,,,,,,,,256.0,1.0,,,,,,
252,,iti,,html-keyboard-response,252,167022,0.0-1.0-41.0-0.0-5.0,0,0,96744,,,,,,,,,,,,,,,,,,,,,,,,,,,,,,,,,,,,,,257.5,1.5,,,,,,
253,,choice,,html-keyboard-response,253,167242,0.0-1.0-41.0-0.1-0.1,0,0,96744,,217.0,,,68.0,39.0,339.0,2000.0,1500.0,0.0,6.0,1.0,40-80,0.0,,license plate,tape,40.0,80.0,license plate15,tape14,40.0,60.0,hi-hwr-837.jpg,922544.jpg,/static/Category_learning/Stimuli/Experimental_stims/license plate/hi-hwr-837.jpg,/static/Category_learning/Stimuli/Experimental_stims/tape/922544.jpg,1.0,license plate,tape,40.0,80.0,license plate15,tape14,40.0,60.0,0.0,257.717,0.217,,,,,,
254,,confirmation,,html-keyboard-response,254,168532,0.0-1.0-41.0-0.1-1.1-0.1,0,0,96744,,,,,,39.0,,,,,,,,,,,,,,,,,,,,,,,,,,,,,,,,259.0,1.283,,,,,,
255,,isi,,html-keyboard-response,255,168638,0.0-1.0-41.0-0.1-2.1,0,0,96744,,,,,,,,,,,,,,,,,,,,,,,,,,,,,,,,,,,,,,261.0,2.0,,,,,,
256,,feedback,,html-keyboard-response,256,169642,0.0-1.0-41.0-0.1-3.1-0.1,0,0,96744,,,,,,39.0,,,,,,,,,,,,,,,,,,,,,,,,,,,,,,,,262.0,1.0,,,,,,
257,,iti,,html-keyboard-response,257,169749,0.0-1.0-41.0-0.1-5.1,0,0,96744,,,,,,,,,,,,,,,,,,,,,,,,,,,,,,,,,,,,,,263.0,1.0,,,,,,
258,,choice,,html-keyboard-response,258,170081,0.0-1.0-42.0-0.0-0.0,0,0,96744,,328.0,,,75.0,40.0,340.0,1000.0,2000.0,0.0,6.0,0.0,20-60,,0.0,baby carriage,patio lounge chair,20.0,60.0,baby carriage15,patio lounge chair7,0.0,40.0,AANBABYC2.jpg,lg_Serenity_Riviera[1].jpg,/static/Category_learning/Stimuli/Experimental_stims/baby carriage/AANBABYC2.jpg,/static/Category_learning/Stimuli/Experimental_stims/patio lounge chair/lg_Serenity_Riviera[1].jpg,0.0,patio lounge chair,baby carriage,60.0,20.0,patio lounge chair7,baby carriage15,40.0,0.0,0.0,263.328,0.328,,,,,,
259,,confirmation,,html-keyboard-response,259,171260,0.0-1.0-42.0-0.0-1.0-0.0,0,0,96744,,,,,,40.0,,,,,,,,,,,,,,,,,,,,,,,,,,,,,,,,264.5,1.172,,,,,,
260,,isi,,html-keyboard-response,260,171365,0.0-1.0-42.0-0.0-2.0,0,0,96744,,,,,,,,,,,,,,,,,,,,,,,,,,,,,,,,,,,,,,265.5,1.0,,,,,,
261,,feedback,,html-keyboard-response,261,172371,0.0-1.0-42.0-0.0-3.0-0.0,0,0,96744,,,,,,40.0,,,,,,,,,,,,,,,,,,,,,,,,,,,,,,,,266.5,1.0,,,,,,
262,,iti,,html-keyboard-response,262,172478,0.0-1.0-42.0-0.0-5.0,0,0,96744,,,,,,,,,,,,,,,,,,,,,,,,,,,,,,,,,,,,,,268.5,2.0,,,,,,
263,,choice,,html-keyboard-response,263,172794,0.0-1.0-43.0-0.0-0.0,0,0,96744,,313.0,,,75.0,41.0,341.0,1000.0,1500.0,0.0,6.0,0.0,20-80,,0.0,bench,tape,20.0,80.0,bench2,tape12,20.0,60.0,26369969.thl.jpg,Frog-Tape-Dispenser_F02218A2.jpg,/static/Category_learning/Stimuli/Experimental_stims/bench/26369969.thl.jpg,/static/Category_learning/Stimuli/Experimental_stims/tape/Frog-Tape-Dispenser_F02218A2.jpg,0.0,tape,bench,80.0,20.0,tape12,bench2,60.0,20.0,0.0,268.813,0.313,,,,,,
264,,confirmation,,html-keyboard-response,264,173987,0.0-1.0-43.0-0.0-1.0-0.0,0,0,96744,,,,,,41.0,,,,,,,,,,,,,,,,,,,,,,,,,,,,,,,,270.0,1.187,,,,,,
265,,isi,,html-keyboard-response,265,174094,0.0-1.0-43.0-0.0-2.0,0,0,96744,,,,,,,,,,,,,,,,,,,,,,,,,,,,,,,,,,,,,,271.0,1.0,,,,,,
266,,feedback,,html-keyboard-response,266,175097,0.0-1.0-43.0-0.0-3.0-0.0,0,0,96744,,,,,,41.0,,,,,,,,,,,,,,,,,,,,,,,,,,,,,,,,272.0,1.0,,,,,,
267,,iti,,html-keyboard-response,267,175204,0.0-1.0-43.0-0.0-5.0,0,0,96744,,,,,,,,,,,,,,,,,,,,,,,,,,,,,,,,,,,,,,273.5,1.5,,,,,,
268,,choice,,html-keyboard-response,268,175633,0.0-1.0-44.0-0.0-0.0,0,0,96744,,425.0,,,75.0,42.0,342.0,2000.0,1500.0,0.0,6.0,0.0,20-60,,0.0,baby carriage,sofa,20.0,60.0,baby carriage3,sofa3,20.0,80.0,Stroller.jpg,ACOUCH14.jpg,/static/Category_learning/Stimuli/Experimental_stims/baby carriage/Stroller.jpg,/static/Category_learning/Stimuli/Experimental_stims/sofa/ACOUCH14.jpg,0.0,sofa,baby carriage,60.0,20.0,sofa3,baby carriage3,80.0,20.0,0.0,273.925,0.425,,,,,,
269,,confirmation,,html-keyboard-response,269,176715,0.0-1.0-44.0-0.0-1.0-0.0,0,0,96744,,,,,,42.0,,,,,,,,,,,,,,,,,,,,,,,,,,,,,,,,275.0,1.075,,,,,,
270,,isi,,html-keyboard-response,270,176820,0.0-1.0-44.0-0.0-2.0,0,0,96744,,,,,,,,,,,,,,,,,,,,,,,,,,,,,,,,,,,,,,277.0,2.0,,,,,,
271,,feedback,,html-keyboard-response,271,177822,0.0-1.0-44.0-0.0-3.0-0.0,0,0,96744,,,,,,42.0,,,,,,,,,,,,,,,,,,,,,,,,,,,,,,,,278.0,1.0,,,,,,
272,,iti,,html-keyboard-response,272,177929,0.0-1.0-44.0-0.0-5.0,0,0,96744,,,,,,,,,,,,,,,,,,,,,,,,,,,,,,,,,,,,,,279.5,1.5,,,,,,
273,,choice,,html-keyboard-response,273,178267,0.0-1.0-45.0-0.0-0.0,0,0,96744,,334.0,,,75.0,43.0,343.0,1000.0,1000.0,0.0,6.0,0.0,60-60,,,seashell,nail polish,60.0,60.0,seashell6,nail polish8,80.0,40.0,PY2H1461.jpg,283-ILilacYouALot.jpg,/static/Category_learning/Stimuli/Experimental_stims/seashell/PY2H1461.jpg,/static/Category_learning/Stimuli/Experimental_stims/nail polish/283-ILilacYouALot.jpg,0.0,nail polish,seashell,60.0,60.0,nail polish8,seashell6,40.0,80.0,0.0,279.834,0.334,,,,,,
274,,confirmation,,html-keyboard-response,274,179439,0.0-1.0-45.0-0.0-1.0-0.0,0,0,96744,,,,,,43.0,,,,,,,,,,,,,,,,,,,,,,,,,,,,,,,,281.0,1.166,,,,,,
275,,isi,,html-keyboard-response,275,179544,0.0-1.0-45.0-0.0-2.0,0,0,96744,,,,,,,,,,,,,,,,,,,,,,,,,,,,,,,,,,,,,,282.0,1.0,,,,,,
276,,feedback,,html-keyboard-response,276,180548,0.0-1.0-45.0-0.0-3.0-0.0,0,0,96744,,,,,,43.0,,,,,,,,,,,,,,,,,,,,,,,,,,,,,,,,283.0,1.0,,,,,,
277,,iti,,html-keyboard-response,277,180654,0.0-1.0-45.0-0.0-5.0,0,0,96744,,,,,,,,,,,,,,,,,,,,,,,,,,,,,,,,,,,,,,284.0,1.0,,,,,,
278,,choice,,html-keyboard-response,278,182160,0.0-1.0-46.0-0.0-0.0,0,0,96744,,,,,,44.0,344.0,3500.0,3000.0,0.0,6.0,0.0,40-60,,1.0,power strip,hammer,60.0,40.0,power strip4,hammer2,60.0,60.0,41D3CX96H9L._AA262_.jpg,hammer04.jpg,/static/Category_learning/Stimuli/Experimental_stims/power strip/41D3CX96H9L._AA262_.jpg,/static/Category_learning/Stimuli/Experimental_stims/hammer/hammer04.jpg,,,,,,,,,,1.0,285.5,1.5,,,,,,
279,,isi,,html-keyboard-response,279,182265,0.0-1.0-46.0-0.0-2.0,0,0,96744,,,,,,,,,,,,,,,,,,,,,,,,,,,,,,,,,,,,,,289.0,3.5,,,,,,
280,,no_response,,html-keyboard-response,280,183268,0.0-1.0-46.0-0.0-4.0-0.0,1,0,96744,,,,,,,,,,,,,,,,,,,,,,,,,,,,,,,,,,,,,,290.0,1.0,,,,,,
281,,iti,,html-keyboard-response,281,183390,0.0-1.0-46.0-0.0-5.0,0,0,96744,,,,,,,,,,,,,,,,,,,,,,,,,,,,,,,,,,,,,,293.0,3.0,,,,,,
282,,choice,,html-keyboard-response,282,183859,0.0-1.0-46.0-0.1-0.1,0,0,96744,,466.0,,,75.0,44.0,344.0,3500.0,3000.0,0.0,6.0,0.0,40-60,,1.0,power strip,hammer,60.0,40.0,power strip4,hammer2,60.0,60.0,41D3CX96H9L._AA262_.jpg,hammer04.jpg,/static/Category_learning/Stimuli/Experimental_stims/power strip/41D3CX96H9L._AA262_.jpg,/static/Category_learning/Stimuli/Experimental_stims/hammer/hammer04.jpg,0.0,hammer,power strip,40.0,60.0,hammer2,power strip4,60.0,60.0,0.0,293.466,0.466,,,,,,
283,,confirmation,,html-keyboard-response,283,184900,0.0-1.0-46.0-0.1-1.1-0.1,0,0,96744,,,,,,44.0,,,,,,,,,,,,,,,,,,,,,,,,,,,,,,,,294.5,1.034,,,,,,
284,,isi,,html-keyboard-response,284,185006,0.0-1.0-46.0-0.1-2.1,0,0,96744,,,,,,,,,,,,,,,,,,,,,,,,,,,,,,,,,,,,,,295.5,1.0,,,,,,
285,,feedback,,html-keyboard-response,285,186014,0.0-1.0-46.0-0.1-3.1-0.1,0,0,96744,,,,,,44.0,,,,,,,,,,,,,,,,,,,,,,,,,,,,,,,,296.5,1.0,,,,,,
286,,iti,,html-keyboard-response,286,186118,0.0-1.0-46.0-0.1-5.1,0,0,96744,,,,,,,,,,,,,,,,,,,,,,,,,,,,,,,,,,,,,,298.5,2.0,,,,,,
287,,choice,,html-keyboard-response,287,187626,0.0-1.0-47.0-0.0-0.0,0,0,96744,,,,,,45.0,345.0,3500.0,2000.0,0.0,6.0,0.0,20-20,,,bongo,flashlight,20.0,20.0,bongo1,flashlight4,0.0,0.0,ABONGO22.jpg,new08.jpg,/static/Category_learning/Stimuli/Experimental_stims/bongo/ABONGO22.jpg,/static/Category_learning/Stimuli/Experimental_stims/flashlight/new08.jpg,,,,,,,,,,1.0,300.0,1.5,,,,,,
288,,isi,,html-keyboard-response,288,187732,0.0-1.0-47.0-0.0-2.0,0,0,96744,,,,,,,,,,,,,,,,,,,,,,,,,,,,,,,,,,,,,,303.5,3.5,,,,,,
289,,no_response,,html-keyboard-response,289,188737,0.0-1.0-47.0-0.0-4.0-0.0,1,0,96744,,,,,,,,,,,,,,,,,,,,,,,,,,,,,,,,,,,,,,304.5,1.0,,,,,,
290,,iti,,html-keyboard-response,290,188859,0.0-1.0-47.0-0.0-5.0,0,0,96744,,,,,,,,,,,,,,,,,,,,,,,,,,,,,,,,,,,,,,306.5,2.0,,,,,,
291,,choice,,html-keyboard-response,291,188862,0.0-1.0-47.0-0.1-0.1,0,0,96744,,0.0,,,75.0,45.0,345.0,3500.0,2000.0,0.0,6.0,0.0,20-20,,,bongo,flashlight,20.0,20.0,bongo1,flashlight4,0.0,0.0,ABONGO22.jpg,new08.jpg,/static/Category_learning/Stimuli/Experimental_stims/bongo/ABONGO22.jpg,/static/Category_learning/Stimuli/Experimental_stims/flashlight/new08.jpg,0.0,flashlight,bongo,20.0,20.0,flashlight4,bongo1,0.0,0.0,0.0,306.5,0.0,,,,,,
292,,confirmation,,html-keyboard-response,292,190367,0.0-1.0-47.0-0.1-1.1-0.1,0,0,96744,,,,,,45.0,,,,,,,,,,,,,,,,,,,,,,,,,,,,,,,,308.0,1.5,,,,,,
293,,isi,,html-keyboard-response,293,190473,0.0-1.0-47.0-0.1-2.1,0,0,96744,,,,,,,,,,,,,,,,,,,,,,,,,,,,,,,,,,,,,,311.0,3.0,,,,,,
294,,feedback,,html-keyboard-response,294,191481,0.0-1.0-47.0-0.1-3.1-0.1,0,0,96744,,,,,,45.0,,,,,,,,,,,,,,,,,,,,,,,,,,,,,,,,312.0,1.0,,,,,,
295,,iti,,html-keyboard-response,295,191588,0.0-1.0-47.0-0.1-5.1,0,0,96744,,,,,,,,,,,,,,,,,,,,,,,,,,,,,,,,,,,,,,313.0,1.0,,,,,,
296,,choice,,html-keyboard-response,296,192194,0.0-1.0-48.0-0.0-0.0,0,0,96744,,602.0,,,75.0,46.0,346.0,2000.0,3000.0,0.0,6.0,0.0,20-80,,1.0,tent,bench,80.0,20.0,tent2,bench14,60.0,0.0,Atent16.jpg,APARKBENC.jpg,/static/Category_learning/Stimuli/Experimental_stims/tent/Atent16.jpg,/static/Category_learning/Stimuli/Experimental_stims/bench/APARKBENC.jpg,0.0,bench,tent,20.0,80.0,bench14,tent2,0.0,60.0,0.0,313.602,0.602,,,,,,
297,,confirmation,,html-keyboard-response,297,193097,0.0-1.0-48.0-0.0-1.0-0.0,0,0,96744,,,,,,46.0,,,,,,,,,,,,,,,,,,,,,,,,,,,,,,,,314.5,0.898,,,,,,
298,,isi,,html-keyboard-response,298,193204,0.0-1.0-48.0-0.0-2.0,0,0,96744,,,,,,,,,,,,,,,,,,,,,,,,,,,,,,,,,,,,,,316.5,2.0,,,,,,
299,,feedback,,html-keyboard-response,299,194212,0.0-1.0-48.0-0.0-3.0-0.0,0,0,96744,,,,,,46.0,,,,,,,,,,,,,,,,,,,,,,,,,,,,,,,,317.5,1.0,,,,,,
300,,iti,,html-keyboard-response,300,194319,0.0-1.0-48.0-0.0-5.0,0,0,96744,,,,,,,,,,,,,,,,,,,,,,,,,,,,,,,,,,,,,,320.5,3.0,,,,,,
301,,choice,,html-keyboard-response,301,194948,0.0-1.0-49.0-0.0-0.0,0,0,96744,,625.0,,,75.0,47.0,347.0,1000.0,1500.0,0.0,6.0,0.0,40-60,,0.0,license plate,nail polish,40.0,60.0,license plate8,nail polish4,60.0,40.0,dc-vrw-jsw.jpg,8027_O.jpg,/static/Category_learning/Stimuli/Experimental_stims/license plate/dc-vrw-jsw.jpg,/static/Category_learning/Stimuli/Experimental_stims/nail polish/8027_O.jpg,0.0,nail polish,license plate,60.0,40.0,nail polish4,license plate8,40.0,60.0,0.0,321.125,0.625,,,,,,
302,,confirmation,,html-keyboard-response,302,195828,0.0-1.0-49.0-0.0-1.0-0.0,0,0,96744,,,,,,47.0,,,,,,,,,,,,,,,,,,,,,,,,,,,,,,,,322.0,0.875,,,,,,
303,,isi,,html-keyboard-response,303,195935,0.0-1.0-49.0-0.0-2.0,0,0,96744,,,,,,,,,,,,,,,,,,,,,,,,,,,,,,,,,,,,,,323.0,1.0,,,,,,
304,,feedback,,html-keyboard-response,304,196943,0.0-1.0-49.0-0.0-3.0-0.0,0,0,96744,,,,,,47.0,,,,,,,,,,,,,,,,,,,,,,,,,,,,,,,,324.0,1.0,,,,,,
305,,iti,,html-keyboard-response,305,197049,0.0-1.0-49.0-0.0-5.0,0,0,96744,,,,,,,,,,,,,,,,,,,,,,,,,,,,,,,,,,,,,,325.5,1.5,,,,,,
306,,choice,,html-keyboard-response,306,198324,0.0-1.0-50.0-0.0-0.0,0,0,96744,,1271.0,,,75.0,48.0,348.0,1000.0,1500.0,0.0,6.0,0.0,40-80,,1.0,watch,makeup compact,80.0,40.0,watch11,makeup compact4,80.0,60.0,B00020ODHO.01-A2E7J74KJYV9ZH._AA280_SCLZZZZZZZ_V65957276_.jpg,262668_fpx.jpg,/static/Category_learning/Stimuli/Experimental_stims/watch/B00020ODHO.01-A2E7J74KJYV9ZH._AA280_SCLZZZZZZZ_V65957276_.jpg,/static/Category_learning/Stimuli/Experimental_stims/makeup compact/262668_fpx.jpg,0.0,makeup compact,watch,40.0,80.0,makeup compact4,watch11,60.0,80.0,0.0,326.771,1.271,,,,,,
307,,confirmation,,html-keyboard-response,307,198561,0.0-1.0-50.0-0.0-1.0-0.0,0,0,96744,,,,,,48.0,,,,,,,,,,,,,,,,,,,,,,,,,,,,,,,,327.0,0.229,,,,,,
308,,isi,,html-keyboard-response,308,198664,0.0-1.0-50.0-0.0-2.0,0,0,96744,,,,,,,,,,,,,,,,,,,,,,,,,,,,,,,,,,,,,,328.0,1.0,,,,,,
309,,feedback,,html-keyboard-response,309,199668,0.0-1.0-50.0-0.0-3.0-0.0,0,0,96744,,,,,,48.0,,,,,,,,,,,,,,,,,,,,,,,,,,,,,,,,329.0,1.0,,,,,,
310,,iti,,html-keyboard-response,310,199775,0.0-1.0-50.0-0.0-5.0,0,0,96744,,,,,,,,,,,,,,,,,,,,,,,,,,,,,,,,,,,,,,330.5,1.5,,,,,,
311,,choice,,html-keyboard-response,311,200194,0.0-1.0-51.0-0.0-0.0,0,0,96744,,416.0,,,75.0,49.0,349.0,1500.0,2000.0,0.0,6.0,0.0,40-60,,0.0,key chain,necklace,40.0,60.0,key chain15,necklace5,60.0,60.0,Soft_PVC_Keychain.jpg,necklascenew08.jpg,/static/Category_learning/Stimuli/Experimental_stims/key chain/Soft_PVC_Keychain.jpg,/static/Category_learning/Stimuli/Experimental_stims/necklace/necklascenew08.jpg,0.0,necklace,key chain,60.0,40.0,necklace5,key chain15,60.0,60.0,0.0,330.916,0.416,,,,,,
312,,confirmation,,html-keyboard-response,312,201283,0.0-1.0-51.0-0.0-1.0-0.0,0,0,96744,,,,,,49.0,,,,,,,,,,,,,,,,,,,,,,,,,,,,,,,,332.0,1.084,,,,,,
313,,isi,,html-keyboard-response,313,201387,0.0-1.0-51.0-0.0-2.0,0,0,96744,,,,,,,,,,,,,,,,,,,,,,,,,,,,,,,,,,,,,,333.5,1.5,,,,,,
314,,feedback,,html-keyboard-response,314,202393,0.0-1.0-51.0-0.0-3.0-0.0,0,0,96744,,,,,,49.0,,,,,,,,,,,,,,,,,,,,,,,,,,,,,,,,334.5,1.0,,,,,,
315,,iti,,html-keyboard-response,315,202500,0.0-1.0-51.0-0.0-5.0,0,0,96744,,,,,,,,,,,,,,,,,,,,,,,,,,,,,,,,,,,,,,336.5,2.0,,,,,,
316,,choice,,html-keyboard-response,316,204004,0.0-1.0-52.0-0.0-0.0,0,0,96744,,,,,,50.0,350.0,3000.0,3000.0,0.0,6.0,0.0,20-60,,1.0,poker card,desk,60.0,20.0,poker card10,desk12,40.0,40.0,22864488.thl.jpg,ADESK19.jpg,/static/Category_learning/Stimuli/Experimental_stims/poker card/22864488.thl.jpg,/static/Category_learning/Stimuli/Experimental_stims/desk/ADESK19.jpg,,,,,,,,,,1.0,338.0,1.5,,,,,,
317,,isi,,html-keyboard-response,317,204111,0.0-1.0-52.0-0.0-2.0,0,0,96744,,,,,,,,,,,,,,,,,,,,,,,,,,,,,,,,,,,,,,341.0,3.0,,,,,,
318,,no_response,,html-keyboard-response,318,205115,0.0-1.0-52.0-0.0-4.0-0.0,1,0,96744,,,,,,,,,,,,,,,,,,,,,,,,,,,,,,,,,,,,,,342.0,1.0,,,,,,
319,,iti,,html-keyboard-response,319,205238,0.0-1.0-52.0-0.0-5.0,0,0,96744,,,,,,,,,,,,,,,,,,,,,,,,,,,,,,,,,,,,,,345.0,3.0,,,,,,
320,,choice,,html-keyboard-response,320,205583,0.0-1.0-52.0-0.1-0.1,0,0,96744,,341.0,,,75.0,50.0,350.0,3000.0,3000.0,0.0,6.0,0.0,20-60,,1.0,poker card,desk,60.0,20.0,poker card10,desk12,40.0,40.0,22864488.thl.jpg,ADESK19.jpg,/static/Category_learning/Stimuli/Experimental_stims/poker card/22864488.thl.jpg,/static/Category_learning/Stimuli/Experimental_stims/desk/ADESK19.jpg,0.0,desk,poker card,20.0,60.0,desk12,poker card10,40.0,40.0,0.0,345.341,0.341,,,,,,
321,,confirmation,,html-keyboard-response,321,206745,0.0-1.0-52.0-0.1-1.1-0.1,0,0,96744,,,,,,50.0,,,,,,,,,,,,,,,,,,,,,,,,,,,,,,,,346.5,1.159,,,,,,
322,,isi,,html-keyboard-response,322,206852,0.0-1.0-52.0-0.1-2.1,0,0,96744,,,,,,,,,,,,,,,,,,,,,,,,,,,,,,,,,,,,,,348.0,1.5,,0.87,,,,
323,,final_tally,,html-keyboard-response,323,207960,0.0-2.0-0.0,0,0,96744,,1105.0,,,68.0,,,,,,,,,,,,,,,,,,,,,,,,,,,,,,,,,,,,,,,,
324,,category_memory_instructions,,instructions,324,210455,0.0-3.0-0.0,0,0,96744,"[{""page_index"":0,""viewing_time"":2108},{""page_index"":1,""viewing_time"":178},{""page_index"":2,""viewing_time"":186}]",2473.0,,,,,,,,,,,,,,,,,,,,,,,,,,,,,,,,,,,,,,,,,,,
325,,category_memory,,survey-text,325,213302,0.0-3.0-1.0-0.0,0,0,96744,,2844.0,"{""Q0"":""1""}",,,0.0,,,,,,,,,,,,,,,,,,,,,,,,,,,,,,,,,,,,lipstick,40.0,1.0,
326,,category_memory,,survey-text,326,214328,0.0-3.0-2.0-0.0,0,0,96744,,1022.0,"{""Q0"":""1""}",,,1.0,,,,,,,,,,,,,,,,,,,,,,,,,,,,,,,,,,,,watch,80.0,1.0,
327,,category_memory,,survey-text,327,214998,0.0-3.0-3.0-0.0,0,0,96744,,667.0,"{""Q0"":""1""}",,,2.0,,,,,,,,,,,,,,,,,,,,,,,,,,,,,,,,,,,,small table,60.0,1.0,
328,,category_memory,,survey-text,328,216173,0.0-3.0-4.0-0.0,0,0,96744,,1172.0,"{""Q0"":""1""}",,,3.0,,,,,,,,,,,,,,,,,,,,,,,,,,,,,,,,,,,,makeup compact,40.0,1.0,
329,,category_memory,,survey-text,329,218200,0.0-3.0-5.0-0.0,0,0,96744,,2023.0,"{""Q0"":""11""}",,,4.0,,,,,,,,,,,,,,,,,,,,,,,,,,,,,,,,,,,,tent,80.0,11.0,
330,,category_memory,,survey-text,330,219261,0.0-3.0-6.0-0.0,0,0,96744,,1058.0,"{""Q0"":""1""}",,,5.0,,,,,,,,,,,,,,,,,,,,,,,,,,,,,,,,,,,,desk,20.0,1.0,
331,,category_memory,,survey-text,331,220077,0.0-3.0-7.0-0.0,0,0,96744,,813.0,"{""Q0"":""1""}",,,6.0,,,,,,,,,,,,,,,,,,,,,,,,,,,,,,,,,,,,microscope,40.0,1.0,
332,,category_memory,,survey-text,332,220915,0.0-3.0-8.0-0.0,0,0,96744,,835.0,"{""Q0"":""1""}",,,7.0,,,,,,,,,,,,,,,,,,,,,,,,,,,,,,,,,,,,power strip,60.0,1.0,
333,,category_memory,,survey-text,333,221752,0.0-3.0-9.0-0.0,0,0,96744,,833.0,"{""Q0"":""1""}",,,8.0,,,,,,,,,,,,,,,,,,,,,,,,,,,,,,,,,,,,train,80.0,1.0,
334,,category_memory,,survey-text,334,223921,0.0-3.0-10.0-0.0,0,0,96744,,2165.0,"{""Q0"":""1""}",,,9.0,,,,,,,,,,,,,,,,,,,,,,,,,,,,,,,,,,,,bench,20.0,1.0,
335,,category_memory,,survey-text,335,225593,0.0-3.0-11.0-0.0,0,0,96744,,1669.0,"{""Q0"":""1""}",,,10.0,,,,,,,,,,,,,,,,,,,,,,,,,,,,,,,,,,,,bowl,20.0,1.0,
336,,category_memory,,survey-text,336,226598,0.0-3.0-12.0-0.0,0,0,96744,,1002.0,"{""Q0"":""2""}",,,11.0,,,,,,,,,,,,,,,,,,,,,,,,,,,,,,,,,,,,bongo,20.0,2.0,
337,,category_memory,,survey-text,337,228779,0.0-3.0-13.0-0.0,0,0,96744,,2178.0,"{""Q0"":""2""}",,,12.0,,,,,,,,,,,,,,,,,,,,,,,,,,,,,,,,,,,,motorcycle,40.0,2.0,
338,,category_memory,,survey-text,338,229766,0.0-3.0-14.0-0.0,0,0,96744,,984.0,"{""Q0"":""2""}",,,13.0,,,,,,,,,,,,,,,,,,,,,,,,,,,,,,,,,,,,necklace,60.0,2.0,
339,,category_memory,,survey-text,339,230618,0.0-3.0-15.0-0.0,0,0,96744,,849.0,"{""Q0"":""""}",,,14.0,,,,,,,,,,,,,,,,,,,,,,,,,,,,,,,,,,,,patio lounge chair,60.0,,
340,,enter_reponse,,html-keyboard-response,340,232285,0.0-3.0-15.0-1.0-0.0,1,0,96744,,1664.0,,,68.0,,,,,,,,,,,,,,,,,,,,,,,,,,,,,,,,,,,,,,,,1.0
341,,category_memory,,survey-text,341,233402,0.0-3.0-15.1-0.1,0,0,96744,,1114.0,"{""Q0"":""3""}",,,14.0,,,,,,,,,,,,,,,,,,,,,,,,,,,,,,,,,,,,patio lounge chair,60.0,3.0,
342,,category_memory,,survey-text,342,234787,0.0-3.0-16.0-0.0,0,0,96744,,1382.0,"{""Q0"":""""}",,,15.0,,,,,,,,,,,,,,,,,,,,,,,,,,,,,,,,,,,,hat,40.0,,
343,,enter_reponse,,html-keyboard-response,343,236232,0.0-3.0-16.0-1.0-0.0,1,0,96744,,1443.0,,,68.0,,,,,,,,,,,,,,,,,,,,,,,,,,,,,,,,,,,,,,,,1.0
344,,category_memory,,survey-text,344,237814,0.0-3.0-16.1-0.1,0,0,96744,,1580.0,"{""Q0"":""3""}",,,15.0,,,,,,,,,,,,,,,,,,,,,,,,,,,,,,,,,,,,hat,40.0,3.0,
345,,category_memory,,survey-text,345,240337,0.0-3.0-17.0-0.0,0,0,96744,,2519.0,"{""Q0"":""r""}",,,16.0,,,,,,,,,,,,,,,,,,,,,,,,,,,,,,,,,,,,yarn,80.0,,
346,,enter_reponse,,html-keyboard-response,346,242209,0.0-3.0-17.0-1.0-0.0,1,0,96744,,1869.0,,,68.0,,,,,,,,,,,,,,,,,,,,,,,,,,,,,,,,,,,,,,,,1.0
347,,category_memory,,survey-text,347,245203,0.0-3.0-17.1-0.1,0,0,96744,,2991.0,"{""Q0"":""1""}",,,16.0,,,,,,,,,,,,,,,,,,,,,,,,,,,,,,,,,,,,yarn,80.0,1.0,
348,,category_memory,,survey-text,348,246498,0.0-3.0-18.0-0.0,0,0,96744,,1292.0,"{""Q0"":""2""}",,,17.0,,,,,,,,,,,,,,,,,,,,,,,,,,,,,,,,,,,,flashlight,20.0,2.0,
349,,category_memory,,survey-text,349,247834,0.0-3.0-19.0-0.0,0,0,96744,,1333.0,"{""Q0"":""3""}",,,18.0,,,,,,,,,,,,,,,,,,,,,,,,,,,,,,,,,,,,nail polish,60.0,3.0,
350,,category_memory,,survey-text,350,250345,0.0-3.0-20.0-0.0,0,0,96744,,2508.0,"{""Q0"":""4""}",,,19.0,,,,,,,,,,,,,,,,,,,,,,,,,,,,,,,,,,,,door knob,20.0,4.0,
351,,category_memory,,survey-text,351,251966,0.0-3.0-21.0-0.0,0,0,96744,,1617.0,"{""Q0"":""5""}",,,20.0,,,,,,,,,,,,,,,,,,,,,,,,,,,,,,,,,,,,pen,60.0,5.0,
352,,category_memory,,survey-text,352,253548,0.0-3.0-22.0-0.0,0,0,96744,,1579.0,"{""Q0"":""5""}",,,21.0,,,,,,,,,,,,,,,,,,,,,,,,,,,,,,,,,,,,frame,40.0,5.0,
353,,category_memory,,survey-text,353,255974,0.0-3.0-23.0-0.0,0,0,96744,,2423.0,"{""Q0"":""5""}",,,22.0,,,,,,,,,,,,,,,,,,,,,,,,,,,,,,,,,,,,hammer,40.0,5.0,
354,,category_memory,,survey-text,354,257043,0.0-3.0-24.0-0.0,0,0,96744,,1066.0,"{""Q0"":""5""}",,,23.0,,,,,,,,,,,,,,,,,,,,,,,,,,,,,,,,,,,,seashell,60.0,5.0,
355,,category_memory,,survey-text,355,258165,0.0-3.0-25.0-0.0,0,0,96744,,1118.0,"{""Q0"":""5""}",,,24.0,,,,,,,,,,,,,,,,,,,,,,,,,,,,,,,,,,,,baby carriage,20.0,5.0,
356,,category_memory,,survey-text,356,259572,0.0-3.0-26.0-0.0,0,0,96744,,1404.0,"{""Q0"":""""}",,,25.0,,,,,,,,,,,,,,,,,,,,,,,,,,,,,,,,,,,,vase,80.0,,
357,,enter_reponse,,html-keyboard-response,357,260714,0.0-3.0-26.0-1.0-0.0,1,0,96744,,1140.0,,,68.0,,,,,,,,,,,,,,,,,,,,,,,,,,,,,,,,,,,,,,,,1.0
358,,category_memory,,survey-text,358,262123,0.0-3.0-26.1-0.1,0,0,96744,,1406.0,"{""Q0"":""5""}",,,25.0,,,,,,,,,,,,,,,,,,,,,,,,,,,,,,,,,,,,vase,80.0,5.0,
359,,category_memory,,survey-text,359,266045,0.0-3.0-27.0-0.0,0,0,96744,,3918.0,"{""Q0"":""4""}",,,26.0,,,,,,,,,,,,,,,,,,,,,,,,,,,,,,,,,,,,sofa,60.0,4.0,
360,,category_memory,,survey-text,360,267388,0.0-3.0-28.0-0.0,0,0,96744,,1340.0,"{""Q0"":""4""}",,,27.0,,,,,,,,,,,,,,,,,,,,,,,,,,,,,,,,,,,,key chain,40.0,4.0,
361,,category_memory,,survey-text,361,268567,0.0-3.0-29.0-0.0,0,0,96744,,1176.0,"{""Q0"":""3""}",,,28.0,,,,,,,,,,,,,,,,,,,,,,,,,,,,,,,,,,,,trumpet,80.0,3.0,
362,,category_memory,,survey-text,362,272774,0.0-3.0-30.0-0.0,0,0,96744,,4203.0,"{""Q0"":""2""}",,,29.0,,,,,,,,,,,,,,,,,,,,,,,,,,,,,,,,,,,,dresser,20.0,2.0,
363,,category_memory,,survey-text,363,273112,0.0-3.0-31.0-0.0,0,0,96744,,335.0,"{""Q0"":""""}",,,30.0,,,,,,,,,,,,,,,,,,,,,,,,,,,,,,,,,,,,poker card,60.0,,
364,,enter_reponse,,html-keyboard-response,364,275215,0.0-3.0-31.0-1.0-0.0,1,0,96744,,2101.0,,,68.0,,,,,,,,,,,,,,,,,,,,,,,,,,,,,,,,,,,,,,,,1.0
365,,category_memory,,survey-text,365,276208,0.0-3.0-31.1-0.1,0,0,96744,,990.0,"{""Q0"":""2""}",,,30.0,,,,,,,,,,,,,,,,,,,,,,,,,,,,,,,,,,,,poker card,60.0,2.0,
366,,category_memory,,survey-text,366,277256,0.0-3.0-32.0-0.0,0,0,96744,,1044.0,"{""Q0"":""2""}",,,31.0,,,,,,,,,,,,,,,,,,,,,,,,,,,,,,,,,,,,stool,80.0,2.0,
367,,category_memory,,survey-text,367,278959,0.0-3.0-33.0-0.0,0,0,96744,,1700.0,"{""Q0"":""3""}",,,32.0,,,,,,,,,,,,,,,,,,,,,,,,,,,,,,,,,,,,telescope,80.0,3.0,
368,,category_memory,,survey-text,368,280261,0.0-3.0-34.0-0.0,0,0,96744,,1299.0,"{""Q0"":""4""}",,,33.0,,,,,,,,,,,,,,,,,,,,,,,,,,,,,,,,,,,,fan,20.0,4.0,
369,,category_memory,,survey-text,369,281418,0.0-3.0-35.0-0.0,0,0,96744,,1153.0,"{""Q0"":""5""}",,,34.0,,,,,,,,,,,,,,,,,,,,,,,,,,,,,,,,,,,,tape,80.0,5.0,
370,,category_memory,,survey-text,370,282769,0.0-3.0-36.0-0.0,0,0,96744,,1348.0,"{""Q0"":""3""}",,,35.0,,,,,,,,,,,,,,,,,,,,,,,,,,,,,,,,,,,,license plate,40.0,3.0,
