,success,ttype,start_time,trial_type,trial_index,time_elapsed,internal_node_id,warning,missed_checkup,PID,view_history,rt,responses,repeat_instructions,key_press,index,trial_num,isi,iti,is_practice,block,old_trial,pair_type,within_category,high_cat_on_left,left_category,right_category,left_category_value,right_category_value,left_exemplar,right_exemplar,left_exemplar_value,right_exemplar_value,left_img,right_img,left_img_path,right_img_path,left_chosen,chosen_category,unchosen_category,chosen_category_value,unchosen_category_value,chosen_exemplar,unchosen_exemplar,chosen_exemplar_value,unchosen_exemplar_value,no_response,onset,duration
0,True,full_screen,d05182022hr0049,fullscreen,0,2099,0.0-0.0,0,0,3,,,,,,,,,,,,,,,,,,,,,,,,,,,,,,,,,,,,,,,
1,,category_learning_instructions,,instructions,1,5025,0.0-1.0-0.0-0.0,0,0,3,"[{""page_index"":0,""viewing_time"":1100},{""page_index"":1,""viewing_time"":278},{""page_index"":2,""viewing_time"":214},{""page_index"":3,""viewing_time"":218},{""page_index"":4,""viewing_time"":385},{""page_index"":5,""viewing_time"":493},{""page_index"":6,""viewing_time"":234}]",2923.0,,,,,,,,,,,,,,,,,,,,,,,,,,,,,,,,,,,,,
2,,category_learning_comprehension_check,,survey-multi-choice,2,9756,0.0-1.0-0.0-1.0,0,0,3,,4725.0,"{""Q0"":""True"",""Q1"":""True"",""Q2"":""Stay the same"",""Q3"":""pointer finger for left and middle finger for right""}",0.0,,,,,,,,,,,,,,,,,,,,,,,,,,,,,,,,,,,
3,,,,html-keyboard-response,3,11631,0.0-1.0-1.0,0,0,3,,1871.0,,,50.0,,,,,,,,,,,,,,,,,,,,,,,,,,,,,,,,,,
4,,choice,,html-keyboard-response,4,12332,0.0-1.0-2.0-0.0,0,0,3,,696.0,,,50.0,0.0,0.0,1500.0,1000.0,1.0,0.0,0.0,20-80,,0.0,bagel,dumbbell,20.0,80.0,bagel1,dumbbell1,0.0,80.0,bagels_pumpernickel_large.jpg,31B64EN68AL._AA280_.jpg,/static/Category_learning/Stimuli/Practice_stims/bagel/bagels_pumpernickel_large.jpg,/static/Category_learning/Stimuli/Practice_stims/dumbbell/31B64EN68AL._AA280_.jpg,1.0,bagel,dumbbell,20.0,80.0,bagel1,dumbbell1,0.0,80.0,0.0,0.696,0.696
5,,confirmation,,html-keyboard-response,5,13139,0.0-1.0-2.0-1.0-0.0,0,0,3,,,,,,0.0,,,,,,,,,,,,,,,,,,,,,,,,,,,,,,,,1.5,0.804
6,,isi,,html-keyboard-response,6,13242,0.0-1.0-2.0-2.0,0,0,3,,,,,,,,,,,,,,,,,,,,,,,,,,,,,,,,,,,,,,3.0,1.5
7,,feedback,,html-keyboard-response,7,14249,0.0-1.0-2.0-3.0-0.0,0,0,3,,,,,,0.0,,,,,,,,,,,,,,,,,,,,,,,,,,,,,,,,4.0,1.0
8,,iti,,html-keyboard-response,8,14357,0.0-1.0-2.0-5.0,0,0,3,,,,,,,,,,,,,,,,,,,,,,,,,,,,,,,,,,,,,,5.0,1.0
9,,choice,,html-keyboard-response,9,14374,0.0-1.0-3.0-0.0,0,0,3,,14.0,,,50.0,1.0,1.0,3000.0,1500.0,1.0,0.0,0.0,20-40,,1.0,calculator,bagel,40.0,20.0,calculator2,bagel2,20.0,20.0,22829064.thl.jpg,bagels_cinnraisin_large.jpg,/static/Category_learning/Stimuli/Practice_stims/calculator/22829064.thl.jpg,/static/Category_learning/Stimuli/Practice_stims/bagel/bagels_cinnraisin_large.jpg,1.0,calculator,bagel,40.0,20.0,calculator2,bagel2,20.0,20.0,0.0,5.014,0.014
10,,confirmation,,html-keyboard-response,10,15865,0.0-1.0-3.0-1.0-0.0,0,0,3,,,,,,1.0,,,,,,,,,,,,,,,,,,,,,,,,,,,,,,,,6.5,1.486
11,,isi,,html-keyboard-response,11,15970,0.0-1.0-3.0-2.0,0,0,3,,,,,,,,,,,,,,,,,,,,,,,,,,,,,,,,,,,,,,9.5,3.0
12,,feedback,,html-keyboard-response,12,16977,0.0-1.0-3.0-3.0-0.0,0,0,3,,,,,,1.0,,,,,,,,,,,,,,,,,,,,,,,,,,,,,,,,10.5,1.0
13,,iti,,html-keyboard-response,13,17083,0.0-1.0-3.0-5.0,0,0,3,,,,,,,,,,,,,,,,,,,,,,,,,,,,,,,,,,,,,,12.0,1.5
14,,choice,,html-keyboard-response,14,17086,0.0-1.0-4.0-0.0,0,0,3,,0.0,,,50.0,2.0,2.0,2000.0,3000.0,1.0,0.0,0.0,60-80,,0.0,clock,dumbbell,60.0,80.0,clock2,dumbbell2,60.0,100.0,26373355.thl.jpg,31K8MR6TMBL._SS500_.jpg,/static/Category_learning/Stimuli/Practice_stims/clock/26373355.thl.jpg,/static/Category_learning/Stimuli/Practice_stims/dumbbell/31K8MR6TMBL._SS500_.jpg,1.0,clock,dumbbell,60.0,80.0,clock2,dumbbell2,60.0,100.0,0.0,12.0,0.0
15,,confirmation,,html-keyboard-response,15,18591,0.0-1.0-4.0-1.0-0.0,0,0,3,,,,,,2.0,,,,,,,,,,,,,,,,,,,,,,,,,,,,,,,,13.5,1.5
16,,isi,,html-keyboard-response,16,18696,0.0-1.0-4.0-2.0,0,0,3,,,,,,,,,,,,,,,,,,,,,,,,,,,,,,,,,,,,,,15.5,2.0
17,,feedback,,html-keyboard-response,17,19703,0.0-1.0-4.0-3.0-0.0,0,0,3,,,,,,2.0,,,,,,,,,,,,,,,,,,,,,,,,,,,,,,,,16.5,1.0
18,,iti,,html-keyboard-response,18,19810,0.0-1.0-4.0-5.0,0,0,3,,,,,,,,,,,,,,,,,,,,,,,,,,,,,,,,,,,,,,19.5,3.0
19,,choice,,html-keyboard-response,19,19925,0.0-1.0-5.0-0.0,0,0,3,,111.0,,,50.0,3.0,3.0,1000.0,2000.0,1.0,0.0,0.0,40-80,,0.0,calculator,clock,40.0,60.0,calculator1,clock1,40.0,40.0,22829184.thl.jpg,Aalarmclock2.jpg,/static/Category_learning/Stimuli/Practice_stims/calculator/22829184.thl.jpg,/static/Category_learning/Stimuli/Practice_stims/clock/Aalarmclock2.jpg,1.0,calculator,clock,40.0,60.0,calculator1,clock1,40.0,40.0,0.0,19.611,0.111
20,,confirmation,,html-keyboard-response,20,21322,0.0-1.0-5.0-1.0-0.0,0,0,3,,,,,,3.0,,,,,,,,,,,,,,,,,,,,,,,,,,,,,,,,21.0,1.389
21,,isi,,html-keyboard-response,21,21428,0.0-1.0-5.0-2.0,0,0,3,,,,,,,,,,,,,,,,,,,,,,,,,,,,,,,,,,,,,,22.0,1.0
22,,feedback,,html-keyboard-response,22,22433,0.0-1.0-5.0-3.0-0.0,0,0,3,,,,,,3.0,,,,,,,,,,,,,,,,,,,,,,,,,,,,,,,,23.0,1.0
23,,iti,,html-keyboard-response,23,22540,0.0-1.0-5.0-5.0,0,0,3,,,,,,,,,,,,,,,,,,,,,,,,,,,,,,,,,,,,,,25.0,2.0
24,,choice,,html-keyboard-response,24,22782,0.0-1.0-6.0-0.0,0,0,3,,239.0,,,50.0,4.0,4.0,2500.0,2500.0,1.0,0.0,0.0,20-60,,1.0,dumbbell,bagel,80.0,20.0,dumbbell3,bagel3,100.0,40.0,41K7QVRX50L._SS500_.jpg,photo-169.jpg,/static/Category_learning/Stimuli/Practice_stims/dumbbell/41K7QVRX50L._SS500_.jpg,/static/Category_learning/Stimuli/Practice_stims/bagel/photo-169.jpg,1.0,dumbbell,bagel,80.0,20.0,dumbbell3,bagel3,100.0,40.0,0.0,25.239,0.239
25,,confirmation,,html-keyboard-response,25,24048,0.0-1.0-6.0-1.0-0.0,0,0,3,,,,,,4.0,,,,,,,,,,,,,,,,,,,,,,,,,,,,,,,,26.5,1.261
26,,isi,,html-keyboard-response,26,24151,0.0-1.0-6.0-2.0,0,0,3,,,,,,,,,,,,,,,,,,,,,,,,,,,,,,,,,,,,,,29.0,2.5
27,,feedback,,html-keyboard-response,27,25156,0.0-1.0-6.0-3.0-0.0,0,0,3,,,,,,4.0,,,,,,,,,,,,,,,,,,,,,,,,,,,,,,,,30.0,1.0
28,,iti,,html-keyboard-response,28,25262,0.0-1.0-6.0-5.0,0,0,3,,,,,,,,,,,,,,,,,,,,,,,,,,,,,,,,,,,,,,32.5,2.5
29,,practice_over,,html-keyboard-response,29,26184,0.0-1.0-6.0-6.0-0.0,0,0,3,,918.0,,,50.0,4.0,,,,,,,,,,,,,,,,,,,,,,,,,,,,,,,,,
30,,start_run,,html-keyboard-response,30,27499,0.0-1.0-6.0-6.0-1.0,0,0,3,,1313.0,,,84.0,,,,,,,,,,,,,,,,,,,,,,,,,,,,,,,,,,
31,,choice,,html-keyboard-response,31,27905,0.0-1.0-7.0-0.0,0,0,3,,402.0,,,50.0,5.0,5.0,2000.0,2000.0,0.0,1.0,0.0,40-80,,1.0,desk,patio lounge chair,80.0,40.0,desk1,patio lounge chair15,100.0,40.0,ADESK11.jpg,phpThumb.jpg,/static/Category_learning/Stimuli/Experimental_stims/desk/ADESK11.jpg,/static/Category_learning/Stimuli/Experimental_stims/patio lounge chair/phpThumb.jpg,1.0,desk,patio lounge chair,80.0,40.0,desk1,patio lounge chair15,100.0,40.0,0.0,0.402,0.402
32,,confirmation,,html-keyboard-response,32,29007,0.0-1.0-7.0-1.0-0.0,0,0,3,,,,,,5.0,,,,,,,,,,,,,,,,,,,,,,,,,,,,,,,,1.5,1.098
33,,isi,,html-keyboard-response,33,29115,0.0-1.0-7.0-2.0,0,0,3,,,,,,,,,,,,,,,,,,,,,,,,,,,,,,,,,,,,,,3.5,2.0
34,,feedback,,html-keyboard-response,34,30119,0.0-1.0-7.0-3.0-0.0,0,0,3,,,,,,5.0,,,,,,,,,,,,,,,,,,,,,,,,,,,,,,,,4.5,1.0
35,,iti,,html-keyboard-response,35,30223,0.0-1.0-7.0-5.0,0,0,3,,,,,,,,,,,,,,,,,,,,,,,,,,,,,,,,,,,,,,6.5,2.0
36,,choice,,html-keyboard-response,36,30370,0.0-1.0-8.0-0.0,0,0,3,,144.0,,,50.0,6.0,6.0,3000.0,1500.0,0.0,1.0,0.0,40-60,,0.0,poker card,tent,40.0,60.0,poker card12,tent9,20.0,60.0,22865676.thl.jpg,Red Canyon Tent.jpg,/static/Category_learning/Stimuli/Experimental_stims/poker card/22865676.thl.jpg,/static/Category_learning/Stimuli/Experimental_stims/tent/Red Canyon Tent.jpg,1.0,poker card,tent,40.0,60.0,poker card12,tent9,20.0,60.0,0.0,6.644,0.144
37,,confirmation,,html-keyboard-response,37,31731,0.0-1.0-8.0-1.0-0.0,0,0,3,,,,,,6.0,,,,,,,,,,,,,,,,,,,,,,,,,,,,,,,,8.0,1.356
38,,isi,,html-keyboard-response,38,31837,0.0-1.0-8.0-2.0,0,0,3,,,,,,,,,,,,,,,,,,,,,,,,,,,,,,,,,,,,,,11.0,3.0
39,,feedback,,html-keyboard-response,39,32844,0.0-1.0-8.0-3.0-0.0,0,0,3,,,,,,6.0,,,,,,,,,,,,,,,,,,,,,,,,,,,,,,,,12.0,1.0
40,,iti,,html-keyboard-response,40,32949,0.0-1.0-8.0-5.0,0,0,3,,,,,,,,,,,,,,,,,,,,,,,,,,,,,,,,,,,,,,13.5,1.5
41,,choice,,html-keyboard-response,41,33166,0.0-1.0-9.0-0.0,0,0,3,,213.0,,,50.0,7.0,7.0,2000.0,1000.0,0.0,1.0,0.0,40-60,,0.0,pen,tent,40.0,60.0,pen6,tent6,20.0,80.0,executive_pen2.jpg,lighthouse_tent_edited_1-1.jpg,/static/Category_learning/Stimuli/Experimental_stims/pen/executive_pen2.jpg,/static/Category_learning/Stimuli/Experimental_stims/tent/lighthouse_tent_edited_1-1.jpg,1.0,pen,tent,40.0,60.0,pen6,tent6,20.0,80.0,0.0,13.713,0.213
42,,confirmation,,html-keyboard-response,42,34460,0.0-1.0-9.0-1.0-0.0,0,0,3,,,,,,7.0,,,,,,,,,,,,,,,,,,,,,,,,,,,,,,,,15.0,1.287
43,,isi,,html-keyboard-response,43,34566,0.0-1.0-9.0-2.0,0,0,3,,,,,,,,,,,,,,,,,,,,,,,,,,,,,,,,,,,,,,17.0,2.0
44,,feedback,,html-keyboard-response,44,35569,0.0-1.0-9.0-3.0-0.0,0,0,3,,,,,,7.0,,,,,,,,,,,,,,,,,,,,,,,,,,,,,,,,18.0,1.0
45,,iti,,html-keyboard-response,45,35677,0.0-1.0-9.0-5.0,0,0,3,,,,,,,,,,,,,,,,,,,,,,,,,,,,,,,,,,,,,,19.0,1.0
46,,choice,,html-keyboard-response,46,35925,0.0-1.0-10.0-0.0,0,0,3,,245.0,,,50.0,8.0,8.0,1000.0,1000.0,0.0,1.0,0.0,20-60,,1.0,tent,lipstick,60.0,20.0,tent14,lipstick5,60.0,0.0,inflatable-tent.jpg,P35719_hero.jpg,/static/Category_learning/Stimuli/Experimental_stims/tent/inflatable-tent.jpg,/static/Category_learning/Stimuli/Experimental_stims/lipstick/P35719_hero.jpg,1.0,tent,lipstick,60.0,20.0,tent14,lipstick5,60.0,0.0,0.0,19.245,0.245
47,,confirmation,,html-keyboard-response,47,37189,0.0-1.0-10.0-1.0-0.0,0,0,3,,,,,,8.0,,,,,,,,,,,,,,,,,,,,,,,,,,,,,,,,20.5,1.255
48,,isi,,html-keyboard-response,48,37297,0.0-1.0-10.0-2.0,0,0,3,,,,,,,,,,,,,,,,,,,,,,,,,,,,,,,,,,,,,,21.5,1.0
49,,feedback,,html-keyboard-response,49,38303,0.0-1.0-10.0-3.0-0.0,0,0,3,,,,,,8.0,,,,,,,,,,,,,,,,,,,,,,,,,,,,,,,,22.5,1.0
50,,iti,,html-keyboard-response,50,38411,0.0-1.0-10.0-5.0,0,0,3,,,,,,,,,,,,,,,,,,,,,,,,,,,,,,,,,,,,,,23.5,1.0
51,,choice,,html-keyboard-response,51,38537,0.0-1.0-11.0-0.0,0,0,3,,123.0,,,50.0,9.0,9.0,1000.0,1000.0,0.0,1.0,0.0,20-60,,1.0,watch,frame,60.0,20.0,watch8,frame6,60.0,40.0,2239.jpg,AFRAME123.jpg,/static/Category_learning/Stimuli/Experimental_stims/watch/2239.jpg,/static/Category_learning/Stimuli/Experimental_stims/frame/AFRAME123.jpg,1.0,watch,frame,60.0,20.0,watch8,frame6,60.0,40.0,0.0,23.623,0.123
52,,confirmation,,html-keyboard-response,52,39923,0.0-1.0-11.0-1.0-0.0,0,0,3,,,,,,9.0,,,,,,,,,,,,,,,,,,,,,,,,,,,,,,,,25.0,1.377
53,,isi,,html-keyboard-response,53,40027,0.0-1.0-11.0-2.0,0,0,3,,,,,,,,,,,,,,,,,,,,,,,,,,,,,,,,,,,,,,26.0,1.0
54,,feedback,,html-keyboard-response,54,41034,0.0-1.0-11.0-3.0-0.0,0,0,3,,,,,,9.0,,,,,,,,,,,,,,,,,,,,,,,,,,,,,,,,27.0,1.0
55,,iti,,html-keyboard-response,55,41140,0.0-1.0-11.0-5.0,0,0,3,,,,,,,,,,,,,,,,,,,,,,,,,,,,,,,,,,,,,,28.0,1.0
56,,choice,,html-keyboard-response,56,41402,0.0-1.0-12.0-0.0,0,0,3,,258.0,,,50.0,10.0,10.0,3000.0,2000.0,0.0,1.0,1.0,40-60,0.0,,watch,pen,60.0,40.0,watch8,pen6,60.0,20.0,2239.jpg,executive_pen2.jpg,/static/Category_learning/Stimuli/Experimental_stims/watch/2239.jpg,/static/Category_learning/Stimuli/Experimental_stims/pen/executive_pen2.jpg,1.0,watch,pen,60.0,40.0,watch8,pen6,60.0,20.0,0.0,28.258,0.258
57,,confirmation,,html-keyboard-response,57,42652,0.0-1.0-12.0-1.0-0.0,0,0,3,,,,,,10.0,,,,,,,,,,,,,,,,,,,,,,,,,,,,,,,,29.5,1.242
58,,isi,,html-keyboard-response,58,42759,0.0-1.0-12.0-2.0,0,0,3,,,,,,,,,,,,,,,,,,,,,,,,,,,,,,,,,,,,,,32.5,3.0
59,,feedback,,html-keyboard-response,59,43765,0.0-1.0-12.0-3.0-0.0,0,0,3,,,,,,10.0,,,,,,,,,,,,,,,,,,,,,,,,,,,,,,,,33.5,1.0
60,,iti,,html-keyboard-response,60,43870,0.0-1.0-12.0-5.0,0,0,3,,,,,,,,,,,,,,,,,,,,,,,,,,,,,,,,,,,,,,35.5,2.0
61,,choice,,html-keyboard-response,61,44022,0.0-1.0-13.0-0.0,0,0,3,,148.0,,,50.0,11.0,11.0,1000.0,2000.0,0.0,1.0,0.0,40-60,,1.0,tape,nail polish,60.0,40.0,tape12,nail polish5,60.0,40.0,Frog-Tape-Dispenser_F02218A2.jpg,182_t.jpg,/static/Category_learning/Stimuli/Experimental_stims/tape/Frog-Tape-Dispenser_F02218A2.jpg,/static/Category_learning/Stimuli/Experimental_stims/nail polish/182_t.jpg,1.0,tape,nail polish,60.0,40.0,tape12,nail polish5,60.0,40.0,0.0,35.648,0.148
62,,confirmation,,html-keyboard-response,62,45378,0.0-1.0-13.0-1.0-0.0,0,0,3,,,,,,11.0,,,,,,,,,,,,,,,,,,,,,,,,,,,,,,,,37.0,1.352
63,,isi,,html-keyboard-response,63,45482,0.0-1.0-13.0-2.0,0,0,3,,,,,,,,,,,,,,,,,,,,,,,,,,,,,,,,,,,,,,38.0,1.0
64,,feedback,,html-keyboard-response,64,46486,0.0-1.0-13.0-3.0-0.0,0,0,3,,,,,,11.0,,,,,,,,,,,,,,,,,,,,,,,,,,,,,,,,39.0,1.0
65,,iti,,html-keyboard-response,65,46591,0.0-1.0-13.0-5.0,0,0,3,,,,,,,,,,,,,,,,,,,,,,,,,,,,,,,,,,,,,,41.0,2.0
66,,choice,,html-keyboard-response,66,46855,0.0-1.0-14.0-0.0,0,0,3,,260.0,,,50.0,12.0,12.0,3500.0,1500.0,0.0,1.0,0.0,20-60,,1.0,tape,makeup compact,60.0,20.0,tape7,makeup compact6,60.0,40.0,tape dispenser.jpg,P0754_hero.jpg,/static/Category_learning/Stimuli/Experimental_stims/tape/tape dispenser.jpg,/static/Category_learning/Stimuli/Experimental_stims/makeup compact/P0754_hero.jpg,1.0,tape,makeup compact,60.0,20.0,tape7,makeup compact6,60.0,40.0,0.0,41.26,0.26
67,,confirmation,,html-keyboard-response,67,48101,0.0-1.0-14.0-1.0-0.0,0,0,3,,,,,,12.0,,,,,,,,,,,,,,,,,,,,,,,,,,,,,,,,42.5,1.24
68,,isi,,html-keyboard-response,68,48204,0.0-1.0-14.0-2.0,0,0,3,,,,,,,,,,,,,,,,,,,,,,,,,,,,,,,,,,,,,,46.0,3.5
69,,feedback,,html-keyboard-response,69,49208,0.0-1.0-14.0-3.0-0.0,0,0,3,,,,,,12.0,,,,,,,,,,,,,,,,,,,,,,,,,,,,,,,,47.0,1.0
70,,iti,,html-keyboard-response,70,49314,0.0-1.0-14.0-5.0,0,0,3,,,,,,,,,,,,,,,,,,,,,,,,,,,,,,,,,,,,,,48.5,1.5
71,,choice,,html-keyboard-response,71,49600,0.0-1.0-15.0-0.0,0,0,3,,283.0,,,50.0,13.0,13.0,2000.0,1500.0,0.0,1.0,0.0,20-80,,1.0,bowl,microscope,80.0,20.0,bowl3,microscope15,60.0,40.0,ABOWL8.jpg,Amicroscope23.jpg,/static/Category_learning/Stimuli/Experimental_stims/bowl/ABOWL8.jpg,/static/Category_learning/Stimuli/Experimental_stims/microscope/Amicroscope23.jpg,1.0,bowl,microscope,80.0,20.0,bowl3,microscope15,60.0,40.0,0.0,48.783,0.283
72,,confirmation,,html-keyboard-response,72,50824,0.0-1.0-15.0-1.0-0.0,0,0,3,,,,,,13.0,,,,,,,,,,,,,,,,,,,,,,,,,,,,,,,,50.0,1.217
73,,isi,,html-keyboard-response,73,50930,0.0-1.0-15.0-2.0,0,0,3,,,,,,,,,,,,,,,,,,,,,,,,,,,,,,,,,,,,,,52.0,2.0
74,,feedback,,html-keyboard-response,74,51938,0.0-1.0-15.0-3.0-0.0,0,0,3,,,,,,13.0,,,,,,,,,,,,,,,,,,,,,,,,,,,,,,,,53.0,1.0
75,,iti,,html-keyboard-response,75,52044,0.0-1.0-15.0-5.0,0,0,3,,,,,,,,,,,,,,,,,,,,,,,,,,,,,,,,,,,,,,54.5,1.5
76,,choice,,html-keyboard-response,76,52148,0.0-1.0-16.0-0.0,0,0,3,,100.0,,,50.0,14.0,14.0,1000.0,2000.0,0.0,1.0,0.0,40-80,,1.0,door knob,necklace,80.0,40.0,door knob10,necklace14,80.0,20.0,c02a578d-c6cc-44ca-8dd2-de8901e30bd7_4.jpg,necklascenew05.jpg,/static/Category_learning/Stimuli/Experimental_stims/door knob/c02a578d-c6cc-44ca-8dd2-de8901e30bd7_4.jpg,/static/Category_learning/Stimuli/Experimental_stims/necklace/necklascenew05.jpg,1.0,door knob,necklace,80.0,40.0,door knob10,necklace14,80.0,20.0,0.0,54.6,0.1
77,,confirmation,,html-keyboard-response,77,53553,0.0-1.0-16.0-1.0-0.0,0,0,3,,,,,,14.0,,,,,,,,,,,,,,,,,,,,,,,,,,,,,,,,56.0,1.4
78,,isi,,html-keyboard-response,78,53657,0.0-1.0-16.0-2.0,0,0,3,,,,,,,,,,,,,,,,,,,,,,,,,,,,,,,,,,,,,,57.0,1.0
79,,feedback,,html-keyboard-response,79,54661,0.0-1.0-16.0-3.0-0.0,0,0,3,,,,,,14.0,,,,,,,,,,,,,,,,,,,,,,,,,,,,,,,,58.0,1.0
80,,iti,,html-keyboard-response,80,54766,0.0-1.0-16.0-5.0,0,0,3,,,,,,,,,,,,,,,,,,,,,,,,,,,,,,,,,,,,,,60.0,2.0
81,,choice,,html-keyboard-response,81,54861,0.0-1.0-17.0-0.0,0,0,3,,91.0,,,50.0,15.0,15.0,1000.0,1500.0,0.0,1.0,0.0,20-40,,0.0,motorcycle,sofa,20.0,40.0,motorcycle10,sofa5,20.0,60.0,motorcycle17.jpg,ALOVSEA14.jpg,/static/Category_learning/Stimuli/Experimental_stims/motorcycle/motorcycle17.jpg,/static/Category_learning/Stimuli/Experimental_stims/sofa/ALOVSEA14.jpg,1.0,motorcycle,sofa,20.0,40.0,motorcycle10,sofa5,20.0,60.0,0.0,60.091,0.091
82,,confirmation,,html-keyboard-response,82,56278,0.0-1.0-17.0-1.0-0.0,0,0,3,,,,,,15.0,,,,,,,,,,,,,,,,,,,,,,,,,,,,,,,,61.5,1.409
83,,isi,,html-keyboard-response,83,56383,0.0-1.0-17.0-2.0,0,0,3,,,,,,,,,,,,,,,,,,,,,,,,,,,,,,,,,,,,,,62.5,1.0
84,,feedback,,html-keyboard-response,84,57387,0.0-1.0-17.0-3.0-0.0,0,0,3,,,,,,15.0,,,,,,,,,,,,,,,,,,,,,,,,,,,,,,,,63.5,1.0
85,,iti,,html-keyboard-response,85,57491,0.0-1.0-17.0-5.0,0,0,3,,,,,,,,,,,,,,,,,,,,,,,,,,,,,,,,,,,,,,65.0,1.5
86,,choice,,html-keyboard-response,86,57534,0.0-1.0-18.0-0.0,0,0,3,,40.0,,,50.0,16.0,16.0,1000.0,3000.0,0.0,1.0,0.0,60-60,,,telescope,yarn,60.0,60.0,telescope6,yarn15,80.0,80.0,LO-telescope-89769.jpg,rainbowscarf-600x394.jpg,/static/Category_learning/Stimuli/Experimental_stims/telescope/LO-telescope-89769.jpg,/static/Category_learning/Stimuli/Experimental_stims/yarn/rainbowscarf-600x394.jpg,1.0,telescope,yarn,60.0,60.0,telescope6,yarn15,80.0,80.0,0.0,65.04,0.04
87,,confirmation,,html-keyboard-response,87,58998,0.0-1.0-18.0-1.0-0.0,0,0,3,,,,,,16.0,,,,,,,,,,,,,,,,,,,,,,,,,,,,,,,,66.5,1.46
88,,isi,,html-keyboard-response,88,59102,0.0-1.0-18.0-2.0,0,0,3,,,,,,,,,,,,,,,,,,,,,,,,,,,,,,,,,,,,,,67.5,1.0
89,,feedback,,html-keyboard-response,89,60109,0.0-1.0-18.0-3.0-0.0,0,0,3,,,,,,16.0,,,,,,,,,,,,,,,,,,,,,,,,,,,,,,,,68.5,1.0
90,,iti,,html-keyboard-response,90,60212,0.0-1.0-18.0-5.0,0,0,3,,,,,,,,,,,,,,,,,,,,,,,,,,,,,,,,,,,,,,71.5,3.0
91,,choice,,html-keyboard-response,91,60542,0.0-1.0-19.0-0.0,0,0,3,,326.0,,,50.0,17.0,17.0,1500.0,2000.0,0.0,1.0,0.0,20-20,,,license plate,makeup compact,20.0,20.0,license plate10,makeup compact7,40.0,0.0,pa-nfn-011.jpg,P187133_hero.jpg,/static/Category_learning/Stimuli/Experimental_stims/license plate/pa-nfn-011.jpg,/static/Category_learning/Stimuli/Experimental_stims/makeup compact/P187133_hero.jpg,1.0,license plate,makeup compact,20.0,20.0,license plate10,makeup compact7,40.0,0.0,0.0,71.826,0.326
92,,confirmation,,html-keyboard-response,92,61721,0.0-1.0-19.0-1.0-0.0,0,0,3,,,,,,17.0,,,,,,,,,,,,,,,,,,,,,,,,,,,,,,,,73.0,1.174
93,,isi,,html-keyboard-response,93,61831,0.0-1.0-19.0-2.0,0,0,3,,,,,,,,,,,,,,,,,,,,,,,,,,,,,,,,,,,,,,74.5,1.5
94,,feedback,,html-keyboard-response,94,62836,0.0-1.0-19.0-3.0-0.0,0,0,3,,,,,,17.0,,,,,,,,,,,,,,,,,,,,,,,,,,,,,,,,75.5,1.0
95,,iti,,html-keyboard-response,95,62943,0.0-1.0-19.0-5.0,0,0,3,,,,,,,,,,,,,,,,,,,,,,,,,,,,,,,,,,,,,,77.5,2.0
96,,choice,,html-keyboard-response,96,63135,0.0-1.0-20.0-0.0,0,0,3,,188.0,,,50.0,18.0,18.0,2000.0,2000.0,0.0,1.0,1.0,60-60,1.0,,tape,tape,60.0,60.0,tape12,tape7,60.0,60.0,Frog-Tape-Dispenser_F02218A2.jpg,tape dispenser.jpg,/static/Category_learning/Stimuli/Experimental_stims/tape/Frog-Tape-Dispenser_F02218A2.jpg,/static/Category_learning/Stimuli/Experimental_stims/tape/tape dispenser.jpg,1.0,tape,tape,60.0,60.0,tape12,tape7,60.0,60.0,0.0,77.688,0.188
97,,confirmation,,html-keyboard-response,97,64455,0.0-1.0-20.0-1.0-0.0,0,0,3,,,,,,18.0,,,,,,,,,,,,,,,,,,,,,,,,,,,,,,,,79.0,1.312
98,,isi,,html-keyboard-response,98,64560,0.0-1.0-20.0-2.0,0,0,3,,,,,,,,,,,,,,,,,,,,,,,,,,,,,,,,,,,,,,81.0,2.0
99,,feedback,,html-keyboard-response,99,65566,0.0-1.0-20.0-3.0-0.0,0,0,3,,,,,,18.0,,,,,,,,,,,,,,,,,,,,,,,,,,,,,,,,82.0,1.0
100,,iti,,html-keyboard-response,100,65669,0.0-1.0-20.0-5.0,0,0,3,,,,,,,,,,,,,,,,,,,,,,,,,,,,,,,,,,,,,,84.0,2.0
101,,choice,,html-keyboard-response,101,65938,0.0-1.0-21.0-0.0,0,0,3,,266.0,,,50.0,19.0,19.0,1500.0,1500.0,0.0,1.0,1.0,60-80,0.0,,telescope,bowl,60.0,80.0,telescope6,bowl3,80.0,60.0,LO-telescope-89769.jpg,ABOWL8.jpg,/static/Category_learning/Stimuli/Experimental_stims/telescope/LO-telescope-89769.jpg,/static/Category_learning/Stimuli/Experimental_stims/bowl/ABOWL8.jpg,1.0,telescope,bowl,60.0,80.0,telescope6,bowl3,80.0,60.0,0.0,84.266,0.266
102,,confirmation,,html-keyboard-response,102,67178,0.0-1.0-21.0-1.0-0.0,0,0,3,,,,,,19.0,,,,,,,,,,,,,,,,,,,,,,,,,,,,,,,,85.5,1.234
103,,isi,,html-keyboard-response,103,67283,0.0-1.0-21.0-2.0,0,0,3,,,,,,,,,,,,,,,,,,,,,,,,,,,,,,,,,,,,,,87.0,1.5
104,,feedback,,html-keyboard-response,104,68288,0.0-1.0-21.0-3.0-0.0,0,0,3,,,,,,19.0,,,,,,,,,,,,,,,,,,,,,,,,,,,,,,,,88.0,1.0
105,,iti,,html-keyboard-response,105,68395,0.0-1.0-21.0-5.0,0,0,3,,,,,,,,,,,,,,,,,,,,,,,,,,,,,,,,,,,,,,89.5,1.5
106,,choice,,html-keyboard-response,106,68598,0.0-1.0-22.0-0.0,0,0,3,,199.0,,,50.0,20.0,20.0,2000.0,1000.0,0.0,1.0,0.0,40-80,,0.0,patio lounge chair,bongo,40.0,80.0,patio lounge chair11,bongo1,60.0,100.0,51830.jpg,ABONGO22.jpg,/static/Category_learning/Stimuli/Experimental_stims/patio lounge chair/51830.jpg,/static/Category_learning/Stimuli/Experimental_stims/bongo/ABONGO22.jpg,1.0,patio lounge chair,bongo,40.0,80.0,patio lounge chair11,bongo1,60.0,100.0,0.0,89.699,0.199
107,,confirmation,,html-keyboard-response,107,69908,0.0-1.0-22.0-1.0-0.0,0,0,3,,,,,,20.0,,,,,,,,,,,,,,,,,,,,,,,,,,,,,,,,91.0,1.301
108,,isi,,html-keyboard-response,108,70016,0.0-1.0-22.0-2.0,0,0,3,,,,,,,,,,,,,,,,,,,,,,,,,,,,,,,,,,,,,,93.0,2.0
109,,feedback,,html-keyboard-response,109,71025,0.0-1.0-22.0-3.0-0.0,0,0,3,,,,,,20.0,,,,,,,,,,,,,,,,,,,,,,,,,,,,,,,,94.0,1.0
110,,iti,,html-keyboard-response,110,71128,0.0-1.0-22.0-5.0,0,0,3,,,,,,,,,,,,,,,,,,,,,,,,,,,,,,,,,,,,,,95.0,1.0
111,,choice,,html-keyboard-response,111,71330,0.0-1.0-23.0-0.0,0,0,3,,198.0,,,50.0,21.0,21.0,1500.0,1500.0,0.0,1.0,1.0,20-20,0.0,,license plate,motorcycle,20.0,20.0,license plate10,motorcycle10,40.0,20.0,pa-nfn-011.jpg,motorcycle17.jpg,/static/Category_learning/Stimuli/Experimental_stims/license plate/pa-nfn-011.jpg,/static/Category_learning/Stimuli/Experimental_stims/motorcycle/motorcycle17.jpg,1.0,license plate,motorcycle,20.0,20.0,license plate10,motorcycle10,40.0,20.0,0.0,95.198,0.198
112,,confirmation,,html-keyboard-response,112,72637,0.0-1.0-23.0-1.0-0.0,0,0,3,,,,,,21.0,,,,,,,,,,,,,,,,,,,,,,,,,,,,,,,,96.5,1.302
113,,isi,,html-keyboard-response,113,72740,0.0-1.0-23.0-2.0,0,0,3,,,,,,,,,,,,,,,,,,,,,,,,,,,,,,,,,,,,,,98.0,1.5
114,,feedback,,html-keyboard-response,114,73747,0.0-1.0-23.0-3.0-0.0,0,0,3,,,,,,21.0,,,,,,,,,,,,,,,,,,,,,,,,,,,,,,,,99.0,1.0
115,,iti,,html-keyboard-response,115,73853,0.0-1.0-23.0-5.0,0,0,3,,,,,,,,,,,,,,,,,,,,,,,,,,,,,,,,,,,,,,100.5,1.5
116,,choice,,html-keyboard-response,116,73951,0.0-1.0-24.0-0.0,0,0,3,,93.0,,,50.0,22.0,22.0,2000.0,2000.0,0.0,1.0,0.0,40-80,,1.0,baby carriage,seashell,80.0,40.0,baby carriage6,seashell2,60.0,20.0,Baby_Stroller-1.jpg,ph_stri_seashell.jpg,/static/Category_learning/Stimuli/Experimental_stims/baby carriage/Baby_Stroller-1.jpg,/static/Category_learning/Stimuli/Experimental_stims/seashell/ph_stri_seashell.jpg,1.0,baby carriage,seashell,80.0,40.0,baby carriage6,seashell2,60.0,20.0,0.0,100.593,0.093
117,,confirmation,,html-keyboard-response,117,75364,0.0-1.0-24.0-1.0-0.0,0,0,3,,,,,,22.0,,,,,,,,,,,,,,,,,,,,,,,,,,,,,,,,102.0,1.407
118,,isi,,html-keyboard-response,118,75469,0.0-1.0-24.0-2.0,0,0,3,,,,,,,,,,,,,,,,,,,,,,,,,,,,,,,,,,,,,,104.0,2.0
119,,feedback,,html-keyboard-response,119,76473,0.0-1.0-24.0-3.0-0.0,0,0,3,,,,,,22.0,,,,,,,,,,,,,,,,,,,,,,,,,,,,,,,,105.0,1.0
120,,iti,,html-keyboard-response,120,76581,0.0-1.0-24.0-5.0,0,0,3,,,,,,,,,,,,,,,,,,,,,,,,,,,,,,,,,,,,,,107.0,2.0
121,,choice,,html-keyboard-response,121,76583,0.0-1.0-25.0-0.0,0,0,3,,0.0,,,50.0,23.0,23.0,1000.0,1000.0,0.0,1.0,0.0,20-80,,1.0,dresser,hat,80.0,20.0,dresser12,hat4,80.0,20.0,ADRESSE58.jpg,JS370.jpg,/static/Category_learning/Stimuli/Experimental_stims/dresser/ADRESSE58.jpg,/static/Category_learning/Stimuli/Experimental_stims/hat/JS370.jpg,1.0,dresser,hat,80.0,20.0,dresser12,hat4,80.0,20.0,0.0,107.0,0.0
122,,confirmation,,html-keyboard-response,122,78091,0.0-1.0-25.0-1.0-0.0,0,0,3,,,,,,23.0,,,,,,,,,,,,,,,,,,,,,,,,,,,,,,,,108.5,1.5
123,,isi,,html-keyboard-response,123,78198,0.0-1.0-25.0-2.0,0,0,3,,,,,,,,,,,,,,,,,,,,,,,,,,,,,,,,,,,,,,109.5,1.0
124,,feedback,,html-keyboard-response,124,79202,0.0-1.0-25.0-3.0-0.0,0,0,3,,,,,,23.0,,,,,,,,,,,,,,,,,,,,,,,,,,,,,,,,110.5,1.0
125,,iti,,html-keyboard-response,125,79308,0.0-1.0-25.0-5.0,0,0,3,,,,,,,,,,,,,,,,,,,,,,,,,,,,,,,,,,,,,,111.5,1.0
126,,choice,,html-keyboard-response,126,79494,0.0-1.0-26.0-0.0,0,0,3,,182.0,,,50.0,24.0,24.0,2000.0,2000.0,0.0,1.0,0.0,20-80,,1.0,door knob,hammer,80.0,20.0,door knob13,hammer15,100.0,0.0,500_CLAWALBC.jpg,Vaughan-32-oz-Hickory-Handle-Ball-Pein-Hammer-S432-B0001LRUJM-L-ARCQ0EBO8TR73_.jpg,/static/Category_learning/Stimuli/Experimental_stims/door knob/500_CLAWALBC.jpg,/static/Category_learning/Stimuli/Experimental_stims/hammer/Vaughan-32-oz-Hickory-Handle-Ball-Pein-Hammer-S432-B0001LRUJM-L-ARCQ0EBO8TR73_.jpg,1.0,door knob,hammer,80.0,20.0,door knob13,hammer15,100.0,0.0,0.0,111.682,0.182
127,,confirmation,,html-keyboard-response,127,80819,0.0-1.0-26.0-1.0-0.0,0,0,3,,,,,,24.0,,,,,,,,,,,,,,,,,,,,,,,,,,,,,,,,113.0,1.318
128,,isi,,html-keyboard-response,128,80926,0.0-1.0-26.0-2.0,0,0,3,,,,,,,,,,,,,,,,,,,,,,,,,,,,,,,,,,,,,,115.0,2.0
129,,feedback,,html-keyboard-response,129,81935,0.0-1.0-26.0-3.0-0.0,0,0,3,,,,,,24.0,,,,,,,,,,,,,,,,,,,,,,,,,,,,,,,,116.0,1.0
130,,iti,,html-keyboard-response,130,82040,0.0-1.0-26.0-5.0,0,0,3,,,,,,,,,,,,,,,,,,,,,,,,,,,,,,,,,,,,,,118.0,2.0
131,,choice,,html-keyboard-response,131,82177,0.0-1.0-27.0-0.0,0,0,3,,133.0,,,50.0,25.0,25.0,1000.0,1500.0,0.0,1.0,0.0,20-40,,0.0,hammer,nail polish,20.0,40.0,hammer7,nail polish12,40.0,40.0,hammer01.jpg,laquerdUP.jpg,/static/Category_learning/Stimuli/Experimental_stims/hammer/hammer01.jpg,/static/Category_learning/Stimuli/Experimental_stims/nail polish/laquerdUP.jpg,1.0,hammer,nail polish,20.0,40.0,hammer7,nail polish12,40.0,40.0,0.0,118.133,0.133
132,,confirmation,,html-keyboard-response,132,83553,0.0-1.0-27.0-1.0-0.0,0,0,3,,,,,,25.0,,,,,,,,,,,,,,,,,,,,,,,,,,,,,,,,119.5,1.367
133,,isi,,html-keyboard-response,133,83656,0.0-1.0-27.0-2.0,0,0,3,,,,,,,,,,,,,,,,,,,,,,,,,,,,,,,,,,,,,,120.5,1.0
134,,feedback,,html-keyboard-response,134,84662,0.0-1.0-27.0-3.0-0.0,0,0,3,,,,,,25.0,,,,,,,,,,,,,,,,,,,,,,,,,,,,,,,,121.5,1.0
135,,iti,,html-keyboard-response,135,84770,0.0-1.0-27.0-5.0,0,0,3,,,,,,,,,,,,,,,,,,,,,,,,,,,,,,,,,,,,,,123.0,1.5
136,,choice,,html-keyboard-response,136,85039,0.0-1.0-28.0-0.0,0,0,3,,265.0,,,50.0,26.0,26.0,3500.0,1000.0,0.0,1.0,0.0,20-60,,1.0,stool,makeup compact,60.0,20.0,stool4,makeup compact5,40.0,40.0,ASTOOL22.jpg,P109965_hero.jpg,/static/Category_learning/Stimuli/Experimental_stims/stool/ASTOOL22.jpg,/static/Category_learning/Stimuli/Experimental_stims/makeup compact/P109965_hero.jpg,1.0,stool,makeup compact,60.0,20.0,stool4,makeup compact5,40.0,40.0,0.0,123.265,0.265
137,,confirmation,,html-keyboard-response,137,86277,0.0-1.0-28.0-1.0-0.0,0,0,3,,,,,,26.0,,,,,,,,,,,,,,,,,,,,,,,,,,,,,,,,124.5,1.235
138,,isi,,html-keyboard-response,138,86380,0.0-1.0-28.0-2.0,0,0,3,,,,,,,,,,,,,,,,,,,,,,,,,,,,,,,,,,,,,,128.0,3.5
139,,feedback,,html-keyboard-response,139,87386,0.0-1.0-28.0-3.0-0.0,0,0,3,,,,,,26.0,,,,,,,,,,,,,,,,,,,,,,,,,,,,,,,,129.0,1.0
140,,iti,,html-keyboard-response,140,87492,0.0-1.0-28.0-5.0,0,0,3,,,,,,,,,,,,,,,,,,,,,,,,,,,,,,,,,,,,,,130.0,1.0
141,,choice,,html-keyboard-response,141,87967,0.0-1.0-29.0-0.0,0,0,3,,472.0,,,50.0,27.0,27.0,1500.0,3500.0,0.0,1.0,0.0,40-80,,1.0,flashlight,small table,80.0,40.0,flashlight12,small table8,80.0,60.0,new05.jpg,ATABLE8.jpg,/static/Category_learning/Stimuli/Experimental_stims/flashlight/new05.jpg,/static/Category_learning/Stimuli/Experimental_stims/small table/ATABLE8.jpg,1.0,flashlight,small table,80.0,40.0,flashlight12,small table8,80.0,60.0,0.0,130.472,0.472
142,,confirmation,,html-keyboard-response,142,89004,0.0-1.0-29.0-1.0-0.0,0,0,3,,,,,,27.0,,,,,,,,,,,,,,,,,,,,,,,,,,,,,,,,131.5,1.028
143,,isi,,html-keyboard-response,143,89110,0.0-1.0-29.0-2.0,0,0,3,,,,,,,,,,,,,,,,,,,,,,,,,,,,,,,,,,,,,,133.0,1.5
144,,feedback,,html-keyboard-response,144,90118,0.0-1.0-29.0-3.0-0.0,0,0,3,,,,,,27.0,,,,,,,,,,,,,,,,,,,,,,,,,,,,,,,,134.0,1.0
145,,iti,,html-keyboard-response,145,90224,0.0-1.0-29.0-5.0,0,0,3,,,,,,,,,,,,,,,,,,,,,,,,,,,,,,,,,,,,,,137.5,3.5
146,,choice,,html-keyboard-response,146,90618,0.0-1.0-30.0-0.0,0,0,3,,390.0,,,50.0,28.0,28.0,3000.0,3000.0,0.0,1.0,1.0,80-80,1.0,,door knob,door knob,80.0,80.0,door knob10,door knob13,80.0,100.0,c02a578d-c6cc-44ca-8dd2-de8901e30bd7_4.jpg,500_CLAWALBC.jpg,/static/Category_learning/Stimuli/Experimental_stims/door knob/c02a578d-c6cc-44ca-8dd2-de8901e30bd7_4.jpg,/static/Category_learning/Stimuli/Experimental_stims/door knob/500_CLAWALBC.jpg,1.0,door knob,door knob,80.0,80.0,door knob10,door knob13,80.0,100.0,0.0,137.89,0.39
147,,confirmation,,html-keyboard-response,147,91733,0.0-1.0-30.0-1.0-0.0,0,0,3,,,,,,28.0,,,,,,,,,,,,,,,,,,,,,,,,,,,,,,,,139.0,1.11
148,,isi,,html-keyboard-response,148,91836,0.0-1.0-30.0-2.0,0,0,3,,,,,,,,,,,,,,,,,,,,,,,,,,,,,,,,,,,,,,142.0,3.0
149,,feedback,,html-keyboard-response,149,92844,0.0-1.0-30.0-3.0-0.0,0,0,3,,,,,,28.0,,,,,,,,,,,,,,,,,,,,,,,,,,,,,,,,143.0,1.0
150,,iti,,html-keyboard-response,150,92950,0.0-1.0-30.0-5.0,0,0,3,,,,,,,,,,,,,,,,,,,,,,,,,,,,,,,,,,,,,,146.0,3.0
151,,choice,,html-keyboard-response,151,93072,0.0-1.0-31.0-0.0,0,0,3,,118.0,,,50.0,29.0,29.0,3500.0,1000.0,0.0,1.0,0.0,20-80,,1.0,bongo,key chain,80.0,20.0,bongo8,key chain10,80.0,0.0,26390661.thl.jpg,Smurfs_Keychains_Smurf_Row_Boat.jpg,/static/Category_learning/Stimuli/Experimental_stims/bongo/26390661.thl.jpg,/static/Category_learning/Stimuli/Experimental_stims/key chain/Smurfs_Keychains_Smurf_Row_Boat.jpg,1.0,bongo,key chain,80.0,20.0,bongo8,key chain10,80.0,0.0,0.0,146.118,0.118
152,,confirmation,,html-keyboard-response,152,94461,0.0-1.0-31.0-1.0-0.0,0,0,3,,,,,,29.0,,,,,,,,,,,,,,,,,,,,,,,,,,,,,,,,147.5,1.382
153,,isi,,html-keyboard-response,153,94565,0.0-1.0-31.0-2.0,0,0,3,,,,,,,,,,,,,,,,,,,,,,,,,,,,,,,,,,,,,,151.0,3.5
154,,feedback,,html-keyboard-response,154,95572,0.0-1.0-31.0-3.0-0.0,0,0,3,,,,,,29.0,,,,,,,,,,,,,,,,,,,,,,,,,,,,,,,,152.0,1.0
155,,iti,,html-keyboard-response,155,95679,0.0-1.0-31.0-5.0,0,0,3,,,,,,,,,,,,,,,,,,,,,,,,,,,,,,,,,,,,,,153.0,1.0
156,,choice,,html-keyboard-response,156,96301,0.0-1.0-32.0-0.0,0,0,3,,618.0,,,50.0,30.0,30.0,1000.0,2000.0,0.0,1.0,0.0,60-80,,0.0,tape,baby carriage,60.0,80.0,tape15,baby carriage10,80.0,100.0,MMMC15BK.jpg,peg_perego_uno_blu.jpg,/static/Category_learning/Stimuli/Experimental_stims/tape/MMMC15BK.jpg,/static/Category_learning/Stimuli/Experimental_stims/baby carriage/peg_perego_uno_blu.jpg,1.0,tape,baby carriage,60.0,80.0,tape15,baby carriage10,80.0,100.0,0.0,153.618,0.618
157,,confirmation,,html-keyboard-response,157,97189,0.0-1.0-32.0-1.0-0.0,0,0,3,,,,,,30.0,,,,,,,,,,,,,,,,,,,,,,,,,,,,,,,,154.5,0.882
158,,isi,,html-keyboard-response,158,97292,0.0-1.0-32.0-2.0,0,0,3,,,,,,,,,,,,,,,,,,,,,,,,,,,,,,,,,,,,,,155.5,1.0
159,,feedback,,html-keyboard-response,159,98298,0.0-1.0-32.0-3.0-0.0,0,0,3,,,,,,30.0,,,,,,,,,,,,,,,,,,,,,,,,,,,,,,,,156.5,1.0
160,,iti,,html-keyboard-response,160,98402,0.0-1.0-32.0-5.0,0,0,3,,,,,,,,,,,,,,,,,,,,,,,,,,,,,,,,,,,,,,158.5,2.0
161,,choice,,html-keyboard-response,161,98640,0.0-1.0-33.0-0.0,0,0,3,,234.0,,,50.0,31.0,31.0,1000.0,1000.0,0.0,1.0,1.0,20-40,0.0,,patio lounge chair,hammer,40.0,20.0,patio lounge chair11,hammer7,60.0,40.0,51830.jpg,hammer01.jpg,/static/Category_learning/Stimuli/Experimental_stims/patio lounge chair/51830.jpg,/static/Category_learning/Stimuli/Experimental_stims/hammer/hammer01.jpg,1.0,patio lounge chair,hammer,40.0,20.0,patio lounge chair11,hammer7,60.0,40.0,0.0,158.734,0.234
162,,confirmation,,html-keyboard-response,162,99910,0.0-1.0-33.0-1.0-0.0,0,0,3,,,,,,31.0,,,,,,,,,,,,,,,,,,,,,,,,,,,,,,,,160.0,1.266
163,,isi,,html-keyboard-response,163,100019,0.0-1.0-33.0-2.0,0,0,3,,,,,,,,,,,,,,,,,,,,,,,,,,,,,,,,,,,,,,161.0,1.0
164,,feedback,,html-keyboard-response,164,101026,0.0-1.0-33.0-3.0-0.0,0,0,3,,,,,,31.0,,,,,,,,,,,,,,,,,,,,,,,,,,,,,,,,162.0,1.0
165,,iti,,html-keyboard-response,165,101129,0.0-1.0-33.0-5.0,0,0,3,,,,,,,,,,,,,,,,,,,,,,,,,,,,,,,,,,,,,,163.0,1.0
166,,choice,,html-keyboard-response,166,101539,0.0-1.0-34.0-0.0,0,0,3,,405.0,,,51.0,32.0,32.0,1000.0,1000.0,0.0,1.0,0.0,20-60,,0.0,frame,vase,20.0,60.0,frame4,vase9,40.0,60.0,AFRAME125.jpg,Avasewithang2.jpg,/static/Category_learning/Stimuli/Experimental_stims/frame/AFRAME125.jpg,/static/Category_learning/Stimuli/Experimental_stims/vase/Avasewithang2.jpg,0.0,vase,frame,60.0,20.0,vase9,frame4,60.0,40.0,0.0,163.405,0.405
167,,confirmation,,html-keyboard-response,167,102641,0.0-1.0-34.0-1.0-0.0,0,0,3,,,,,,32.0,,,,,,,,,,,,,,,,,,,,,,,,,,,,,,,,164.5,1.095
168,,isi,,html-keyboard-response,168,102749,0.0-1.0-34.0-2.0,0,0,3,,,,,,,,,,,,,,,,,,,,,,,,,,,,,,,,,,,,,,165.5,1.0
169,,feedback,,html-keyboard-response,169,103754,0.0-1.0-34.0-3.0-0.0,0,0,3,,,,,,32.0,,,,,,,,,,,,,,,,,,,,,,,,,,,,,,,,166.5,1.0
170,,iti,,html-keyboard-response,170,103859,0.0-1.0-34.0-5.0,0,0,3,,,,,,,,,,,,,,,,,,,,,,,,,,,,,,,,,,,,,,167.5,1.0
171,,choice,,html-keyboard-response,171,104503,0.0-1.0-35.0-0.0,0,0,3,,637.0,,,51.0,33.0,33.0,1000.0,1500.0,0.0,1.0,0.0,40-40,,,power strip,necklace,40.0,40.0,power strip5,necklace3,60.0,20.0,93e4a283-bcd6-4ad1-8add-339658cda0fc_400.jpg,26388201.thl.jpg,/static/Category_learning/Stimuli/Experimental_stims/power strip/93e4a283-bcd6-4ad1-8add-339658cda0fc_400.jpg,/static/Category_learning/Stimuli/Experimental_stims/necklace/26388201.thl.jpg,0.0,necklace,power strip,40.0,40.0,necklace3,power strip5,20.0,60.0,0.0,168.137,0.637
172,,confirmation,,html-keyboard-response,172,105371,0.0-1.0-35.0-1.0-0.0,0,0,3,,,,,,33.0,,,,,,,,,,,,,,,,,,,,,,,,,,,,,,,,169.0,0.863
173,,isi,,html-keyboard-response,173,105476,0.0-1.0-35.0-2.0,0,0,3,,,,,,,,,,,,,,,,,,,,,,,,,,,,,,,,,,,,,,170.0,1.0
174,,feedback,,html-keyboard-response,174,106483,0.0-1.0-35.0-3.0-0.0,0,0,3,,,,,,33.0,,,,,,,,,,,,,,,,,,,,,,,,,,,,,,,,171.0,1.0
175,,iti,,html-keyboard-response,175,106589,0.0-1.0-35.0-5.0,0,0,3,,,,,,,,,,,,,,,,,,,,,,,,,,,,,,,,,,,,,,172.5,1.5
176,,choice,,html-keyboard-response,176,106759,0.0-1.0-36.0-0.0,0,0,3,,166.0,,,51.0,34.0,34.0,2000.0,3000.0,0.0,1.0,0.0,40-60,,0.0,patio lounge chair,yarn,40.0,60.0,patio lounge chair14,yarn8,40.0,40.0,2987951.jpg,smonlineyarn-285x250.jpg,/static/Category_learning/Stimuli/Experimental_stims/patio lounge chair/2987951.jpg,/static/Category_learning/Stimuli/Experimental_stims/yarn/smonlineyarn-285x250.jpg,0.0,yarn,patio lounge chair,60.0,40.0,yarn8,patio lounge chair14,40.0,40.0,0.0,172.666,0.166
177,,confirmation,,html-keyboard-response,177,108101,0.0-1.0-36.0-1.0-0.0,0,0,3,,,,,,34.0,,,,,,,,,,,,,,,,,,,,,,,,,,,,,,,,174.0,1.334
178,,isi,,html-keyboard-response,178,108206,0.0-1.0-36.0-2.0,0,0,3,,,,,,,,,,,,,,,,,,,,,,,,,,,,,,,,,,,,,,176.0,2.0
179,,feedback,,html-keyboard-response,179,109210,0.0-1.0-36.0-3.0-0.0,0,0,3,,,,,,34.0,,,,,,,,,,,,,,,,,,,,,,,,,,,,,,,,177.0,1.0
180,,iti,,html-keyboard-response,180,109315,0.0-1.0-36.0-5.0,0,0,3,,,,,,,,,,,,,,,,,,,,,,,,,,,,,,,,,,,,,,180.0,3.0
181,,choice,,html-keyboard-response,181,109647,0.0-1.0-37.0-0.0,0,0,3,,328.0,,,51.0,35.0,35.0,1500.0,3500.0,0.0,1.0,1.0,80-80,0.0,,dresser,desk,80.0,80.0,dresser12,desk1,80.0,100.0,ADRESSE58.jpg,ADESK11.jpg,/static/Category_learning/Stimuli/Experimental_stims/dresser/ADRESSE58.jpg,/static/Category_learning/Stimuli/Experimental_stims/desk/ADESK11.jpg,0.0,desk,dresser,80.0,80.0,desk1,dresser12,100.0,80.0,0.0,180.328,0.328
182,,confirmation,,html-keyboard-response,182,110826,0.0-1.0-37.0-1.0-0.0,0,0,3,,,,,,35.0,,,,,,,,,,,,,,,,,,,,,,,,,,,,,,,,181.5,1.172
183,,isi,,html-keyboard-response,183,110931,0.0-1.0-37.0-2.0,0,0,3,,,,,,,,,,,,,,,,,,,,,,,,,,,,,,,,,,,,,,183.0,1.5
184,,feedback,,html-keyboard-response,184,111934,0.0-1.0-37.0-3.0-0.0,0,0,3,,,,,,35.0,,,,,,,,,,,,,,,,,,,,,,,,,,,,,,,,184.0,1.0
185,,iti,,html-keyboard-response,185,112038,0.0-1.0-37.0-5.0,0,0,3,,,,,,,,,,,,,,,,,,,,,,,,,,,,,,,,,,,,,,187.5,3.5
186,,choice,,html-keyboard-response,186,112357,0.0-1.0-38.0-0.0,0,0,3,,315.0,,,51.0,36.0,36.0,1500.0,2000.0,0.0,1.0,1.0,60-60,0.0,,tape,stool,60.0,60.0,tape15,stool4,80.0,40.0,MMMC15BK.jpg,ASTOOL22.jpg,/static/Category_learning/Stimuli/Experimental_stims/tape/MMMC15BK.jpg,/static/Category_learning/Stimuli/Experimental_stims/stool/ASTOOL22.jpg,0.0,stool,tape,60.0,60.0,stool4,tape15,40.0,80.0,0.0,187.815,0.315
187,,confirmation,,html-keyboard-response,187,113547,0.0-1.0-38.0-1.0-0.0,0,0,3,,,,,,36.0,,,,,,,,,,,,,,,,,,,,,,,,,,,,,,,,189.0,1.185
188,,isi,,html-keyboard-response,188,113653,0.0-1.0-38.0-2.0,0,0,3,,,,,,,,,,,,,,,,,,,,,,,,,,,,,,,,,,,,,,190.5,1.5
189,,feedback,,html-keyboard-response,189,114658,0.0-1.0-38.0-3.0-0.0,0,0,3,,,,,,36.0,,,,,,,,,,,,,,,,,,,,,,,,,,,,,,,,191.5,1.0
190,,iti,,html-keyboard-response,190,114761,0.0-1.0-38.0-5.0,0,0,3,,,,,,,,,,,,,,,,,,,,,,,,,,,,,,,,,,,,,,193.5,2.0
191,,choice,,html-keyboard-response,191,115580,0.0-1.0-39.0-0.0,0,0,3,,814.0,,,51.0,37.0,37.0,1000.0,1000.0,0.0,1.0,0.0,60-60,,,tape,train,60.0,60.0,tape10,train6,80.0,40.0,26377601.thl.jpg,train9.jpg,/static/Category_learning/Stimuli/Experimental_stims/tape/26377601.thl.jpg,/static/Category_learning/Stimuli/Experimental_stims/train/train9.jpg,0.0,train,tape,60.0,60.0,train6,tape10,40.0,80.0,0.0,194.314,0.814
192,,confirmation,,html-keyboard-response,192,116269,0.0-1.0-39.0-1.0-0.0,0,0,3,,,,,,37.0,,,,,,,,,,,,,,,,,,,,,,,,,,,,,,,,195.0,0.686
193,,isi,,html-keyboard-response,193,116374,0.0-1.0-39.0-2.0,0,0,3,,,,,,,,,,,,,,,,,,,,,,,,,,,,,,,,,,,,,,196.0,1.0
194,,feedback,,html-keyboard-response,194,117380,0.0-1.0-39.0-3.0-0.0,0,0,3,,,,,,37.0,,,,,,,,,,,,,,,,,,,,,,,,,,,,,,,,197.0,1.0
195,,iti,,html-keyboard-response,195,117485,0.0-1.0-39.0-5.0,0,0,3,,,,,,,,,,,,,,,,,,,,,,,,,,,,,,,,,,,,,,198.0,1.0
196,,choice,,html-keyboard-response,196,117533,0.0-1.0-40.0-0.0,0,0,3,,44.0,,,51.0,38.0,38.0,1500.0,3500.0,0.0,1.0,0.0,40-80,,0.0,patio lounge chair,bowl,40.0,80.0,patio lounge chair8,bowl6,20.0,80.0,43-1.jpg,Abowl59.jpg,/static/Category_learning/Stimuli/Experimental_stims/patio lounge chair/43-1.jpg,/static/Category_learning/Stimuli/Experimental_stims/bowl/Abowl59.jpg,0.0,bowl,patio lounge chair,80.0,40.0,bowl6,patio lounge chair8,80.0,20.0,0.0,198.044,0.044
197,,confirmation,,html-keyboard-response,197,118994,0.0-1.0-40.0-1.0-0.0,0,0,3,,,,,,38.0,,,,,,,,,,,,,,,,,,,,,,,,,,,,,,,,199.5,1.456
198,,isi,,html-keyboard-response,198,119100,0.0-1.0-40.0-2.0,0,0,3,,,,,,,,,,,,,,,,,,,,,,,,,,,,,,,,,,,,,,201.0,1.5
199,,feedback,,html-keyboard-response,199,120109,0.0-1.0-40.0-3.0-0.0,0,0,3,,,,,,38.0,,,,,,,,,,,,,,,,,,,,,,,,,,,,,,,,202.0,1.0
200,,iti,,html-keyboard-response,200,120214,0.0-1.0-40.0-5.0,0,0,3,,,,,,,,,,,,,,,,,,,,,,,,,,,,,,,,,,,,,,205.5,3.5
201,,choice,,html-keyboard-response,201,121564,0.0-1.0-41.0-0.0,0,0,3,,1346.0,,,51.0,39.0,39.0,2000.0,2000.0,0.0,1.0,1.0,60-80,0.0,,vase,baby carriage,60.0,80.0,vase9,baby carriage6,60.0,60.0,Avasewithang2.jpg,Baby_Stroller-1.jpg,/static/Category_learning/Stimuli/Experimental_stims/vase/Avasewithang2.jpg,/static/Category_learning/Stimuli/Experimental_stims/baby carriage/Baby_Stroller-1.jpg,0.0,baby carriage,vase,80.0,60.0,baby carriage6,vase9,60.0,60.0,0.0,206.846,1.346
202,,confirmation,,html-keyboard-response,202,121725,0.0-1.0-41.0-1.0-0.0,0,0,3,,,,,,39.0,,,,,,,,,,,,,,,,,,,,,,,,,,,,,,,,207.0,0.154
203,,isi,,html-keyboard-response,203,121831,0.0-1.0-41.0-2.0,0,0,3,,,,,,,,,,,,,,,,,,,,,,,,,,,,,,,,,,,,,,209.0,2.0
204,,feedback,,html-keyboard-response,204,122838,0.0-1.0-41.0-3.0-0.0,0,0,3,,,,,,39.0,,,,,,,,,,,,,,,,,,,,,,,,,,,,,,,,210.0,1.0
205,,iti,,html-keyboard-response,205,122941,0.0-1.0-41.0-5.0,0,0,3,,,,,,,,,,,,,,,,,,,,,,,,,,,,,,,,,,,,,,212.0,2.0
206,,choice,,html-keyboard-response,206,123192,0.0-1.0-42.0-0.0,0,0,3,,247.0,,,51.0,40.0,40.0,1000.0,1500.0,0.0,1.0,0.0,40-60,,0.0,nail polish,watch,40.0,60.0,nail polish14,watch15,20.0,80.0,38031405.JPG,20-171-6.jpg,/static/Category_learning/Stimuli/Experimental_stims/nail polish/38031405.JPG,/static/Category_learning/Stimuli/Experimental_stims/watch/20-171-6.jpg,0.0,watch,nail polish,60.0,40.0,watch15,nail polish14,80.0,20.0,0.0,212.247,0.247
207,,confirmation,,html-keyboard-response,207,124453,0.0-1.0-42.0-1.0-0.0,0,0,3,,,,,,40.0,,,,,,,,,,,,,,,,,,,,,,,,,,,,,,,,213.5,1.253
208,,isi,,html-keyboard-response,208,124557,0.0-1.0-42.0-2.0,0,0,3,,,,,,,,,,,,,,,,,,,,,,,,,,,,,,,,,,,,,,214.5,1.0
209,,feedback,,html-keyboard-response,209,125563,0.0-1.0-42.0-3.0-0.0,0,0,3,,,,,,40.0,,,,,,,,,,,,,,,,,,,,,,,,,,,,,,,,215.5,1.0
210,,iti,,html-keyboard-response,210,125668,0.0-1.0-42.0-5.0,0,0,3,,,,,,,,,,,,,,,,,,,,,,,,,,,,,,,,,,,,,,217.0,1.5
211,,choice,,html-keyboard-response,211,125946,0.0-1.0-43.0-0.0,0,0,3,,275.0,,,51.0,41.0,41.0,1500.0,3000.0,0.0,1.0,0.0,20-20,,,hammer,license plate,20.0,20.0,hammer5,license plate14,20.0,0.0,hammer02.jpg,fl-hel-bel.jpg,/static/Category_learning/Stimuli/Experimental_stims/hammer/hammer02.jpg,/static/Category_learning/Stimuli/Experimental_stims/license plate/fl-hel-bel.jpg,0.0,license plate,hammer,20.0,20.0,license plate14,hammer5,0.0,20.0,0.0,217.275,0.275
212,,confirmation,,html-keyboard-response,212,127177,0.0-1.0-43.0-1.0-0.0,0,0,3,,,,,,41.0,,,,,,,,,,,,,,,,,,,,,,,,,,,,,,,,218.5,1.225
213,,isi,,html-keyboard-response,213,127281,0.0-1.0-43.0-2.0,0,0,3,,,,,,,,,,,,,,,,,,,,,,,,,,,,,,,,,,,,,,220.0,1.5
214,,feedback,,html-keyboard-response,214,128289,0.0-1.0-43.0-3.0-0.0,0,0,3,,,,,,41.0,,,,,,,,,,,,,,,,,,,,,,,,,,,,,,,,221.0,1.0
215,,iti,,html-keyboard-response,215,128392,0.0-1.0-43.0-5.0,0,0,3,,,,,,,,,,,,,,,,,,,,,,,,,,,,,,,,,,,,,,224.0,3.0
216,,choice,,html-keyboard-response,216,128414,0.0-1.0-44.0-0.0,0,0,3,,18.0,,,51.0,42.0,42.0,1500.0,1000.0,0.0,1.0,0.0,40-40,,,poker card,necklace,40.0,40.0,poker card15,necklace9,40.0,60.0,9816946.thl.jpg,ANECKLACE.jpg,/static/Category_learning/Stimuli/Experimental_stims/poker card/9816946.thl.jpg,/static/Category_learning/Stimuli/Experimental_stims/necklace/ANECKLACE.jpg,0.0,necklace,poker card,40.0,40.0,necklace9,poker card15,60.0,40.0,0.0,224.018,0.018
217,,confirmation,,html-keyboard-response,217,129902,0.0-1.0-44.0-1.0-0.0,0,0,3,,,,,,42.0,,,,,,,,,,,,,,,,,,,,,,,,,,,,,,,,225.5,1.482
218,,isi,,html-keyboard-response,218,130008,0.0-1.0-44.0-2.0,0,0,3,,,,,,,,,,,,,,,,,,,,,,,,,,,,,,,,,,,,,,227.0,1.5
219,,feedback,,html-keyboard-response,219,131017,0.0-1.0-44.0-3.0-0.0,0,0,3,,,,,,42.0,,,,,,,,,,,,,,,,,,,,,,,,,,,,,,,,228.0,1.0
220,,iti,,html-keyboard-response,220,131124,0.0-1.0-44.0-5.0,0,0,3,,,,,,,,,,,,,,,,,,,,,,,,,,,,,,,,,,,,,,229.0,1.0
221,,choice,,html-keyboard-response,221,131662,0.0-1.0-45.0-0.0,0,0,3,,534.0,,,51.0,43.0,43.0,1000.0,3500.0,0.0,1.0,0.0,20-20,,,microscope,hammer,20.0,20.0,microscope5,hammer11,0.0,0.0,emMicroscope.jpg,8oz-hammer-copy.jpg,/static/Category_learning/Stimuli/Experimental_stims/microscope/emMicroscope.jpg,/static/Category_learning/Stimuli/Experimental_stims/hammer/8oz-hammer-copy.jpg,0.0,hammer,microscope,20.0,20.0,hammer11,microscope5,0.0,0.0,0.0,229.534,0.534
222,,confirmation,,html-keyboard-response,222,132633,0.0-1.0-45.0-1.0-0.0,0,0,3,,,,,,43.0,,,,,,,,,,,,,,,,,,,,,,,,,,,,,,,,230.5,0.966
223,,isi,,html-keyboard-response,223,132738,0.0-1.0-45.0-2.0,0,0,3,,,,,,,,,,,,,,,,,,,,,,,,,,,,,,,,,,,,,,231.5,1.0
224,,feedback,,html-keyboard-response,224,133746,0.0-1.0-45.0-3.0-0.0,0,0,3,,,,,,43.0,,,,,,,,,,,,,,,,,,,,,,,,,,,,,,,,232.5,1.0
225,,iti,,html-keyboard-response,225,133854,0.0-1.0-45.0-5.0,0,0,3,,,,,,,,,,,,,,,,,,,,,,,,,,,,,,,,,,,,,,236.0,3.5
226,,choice,,html-keyboard-response,226,134309,0.0-1.0-46.0-0.0,0,0,3,,451.0,,,51.0,44.0,44.0,1000.0,1000.0,0.0,1.0,1.0,40-40,1.0,,necklace,necklace,40.0,40.0,necklace3,necklace9,20.0,60.0,26388201.thl.jpg,ANECKLACE.jpg,/static/Category_learning/Stimuli/Experimental_stims/necklace/26388201.thl.jpg,/static/Category_learning/Stimuli/Experimental_stims/necklace/ANECKLACE.jpg,0.0,necklace,necklace,40.0,40.0,necklace9,necklace3,60.0,20.0,0.0,236.451,0.451
227,,confirmation,,html-keyboard-response,227,135363,0.0-1.0-46.0-1.0-0.0,0,0,3,,,,,,44.0,,,,,,,,,,,,,,,,,,,,,,,,,,,,,,,,237.5,1.049
228,,isi,,html-keyboard-response,228,135470,0.0-1.0-46.0-2.0,0,0,3,,,,,,,,,,,,,,,,,,,,,,,,,,,,,,,,,,,,,,238.5,1.0
229,,feedback,,html-keyboard-response,229,136477,0.0-1.0-46.0-3.0-0.0,0,0,3,,,,,,44.0,,,,,,,,,,,,,,,,,,,,,,,,,,,,,,,,239.5,1.0
230,,iti,,html-keyboard-response,230,136582,0.0-1.0-46.0-5.0,0,0,3,,,,,,,,,,,,,,,,,,,,,,,,,,,,,,,,,,,,,,240.5,1.0
231,,choice,,html-keyboard-response,231,136867,0.0-1.0-47.0-0.0,0,0,3,,281.0,,,51.0,45.0,45.0,1000.0,1500.0,0.0,1.0,0.0,80-80,,,baby carriage,fan,80.0,80.0,baby carriage8,fan7,60.0,80.0,peg_perego_uno_revi_black.jpg,250679_lg.jpg,/static/Category_learning/Stimuli/Experimental_stims/baby carriage/peg_perego_uno_revi_black.jpg,/static/Category_learning/Stimuli/Experimental_stims/fan/250679_lg.jpg,0.0,fan,baby carriage,80.0,80.0,fan7,baby carriage8,80.0,60.0,0.0,240.781,0.281
232,,confirmation,,html-keyboard-response,232,138094,0.0-1.0-47.0-1.0-0.0,0,0,3,,,,,,45.0,,,,,,,,,,,,,,,,,,,,,,,,,,,,,,,,242.0,1.219
233,,isi,,html-keyboard-response,233,138198,0.0-1.0-47.0-2.0,0,0,3,,,,,,,,,,,,,,,,,,,,,,,,,,,,,,,,,,,,,,243.0,1.0
234,,feedback,,html-keyboard-response,234,139207,0.0-1.0-47.0-3.0-0.0,0,0,3,,,,,,45.0,,,,,,,,,,,,,,,,,,,,,,,,,,,,,,,,244.0,1.0
235,,iti,,html-keyboard-response,235,139314,0.0-1.0-47.0-5.0,0,0,3,,,,,,,,,,,,,,,,,,,,,,,,,,,,,,,,,,,,,,245.5,1.5
236,,choice,,html-keyboard-response,236,140082,0.0-1.0-48.0-0.0,0,0,3,,764.0,,,51.0,46.0,46.0,2000.0,1000.0,0.0,1.0,0.0,40-60,,0.0,seashell,telescope,40.0,60.0,seashell1,telescope12,40.0,40.0,Aseashe34.jpg,Junior Land and Sky Telescope.jpg,/static/Category_learning/Stimuli/Experimental_stims/seashell/Aseashe34.jpg,/static/Category_learning/Stimuli/Experimental_stims/telescope/Junior Land and Sky Telescope.jpg,0.0,telescope,seashell,60.0,40.0,telescope12,seashell1,40.0,40.0,0.0,246.264,0.764
237,,confirmation,,html-keyboard-response,237,140825,0.0-1.0-48.0-1.0-0.0,0,0,3,,,,,,46.0,,,,,,,,,,,,,,,,,,,,,,,,,,,,,,,,247.0,0.736
238,,isi,,html-keyboard-response,238,140930,0.0-1.0-48.0-2.0,0,0,3,,,,,,,,,,,,,,,,,,,,,,,,,,,,,,,,,,,,,,249.0,2.0
239,,feedback,,html-keyboard-response,239,141939,0.0-1.0-48.0-3.0-0.0,0,0,3,,,,,,46.0,,,,,,,,,,,,,,,,,,,,,,,,,,,,,,,,250.0,1.0
240,,iti,,html-keyboard-response,240,142045,0.0-1.0-48.0-5.0,0,0,3,,,,,,,,,,,,,,,,,,,,,,,,,,,,,,,,,,,,,,251.0,1.0
241,,choice,,html-keyboard-response,241,142434,0.0-1.0-49.0-0.0,0,0,3,,384.0,,,51.0,47.0,47.0,2000.0,1000.0,0.0,1.0,0.0,20-40,,1.0,small table,hat,40.0,20.0,small table2,hat7,60.0,20.0,Atable126.jpg,ASTRHATFL.jpg,/static/Category_learning/Stimuli/Experimental_stims/small table/Atable126.jpg,/static/Category_learning/Stimuli/Experimental_stims/hat/ASTRHATFL.jpg,0.0,hat,small table,20.0,40.0,hat7,small table2,20.0,60.0,0.0,251.384,0.384
242,,confirmation,,html-keyboard-response,242,143555,0.0-1.0-49.0-1.0-0.0,0,0,3,,,,,,47.0,,,,,,,,,,,,,,,,,,,,,,,,,,,,,,,,252.5,1.116
243,,isi,,html-keyboard-response,243,143661,0.0-1.0-49.0-2.0,0,0,3,,,,,,,,,,,,,,,,,,,,,,,,,,,,,,,,,,,,,,254.5,2.0
244,,feedback,,html-keyboard-response,244,144668,0.0-1.0-49.0-3.0-0.0,0,0,3,,,,,,47.0,,,,,,,,,,,,,,,,,,,,,,,,,,,,,,,,255.5,1.0
245,,iti,,html-keyboard-response,245,144776,0.0-1.0-49.0-5.0,0,0,3,,,,,,,,,,,,,,,,,,,,,,,,,,,,,,,,,,,,,,256.5,1.0
246,,choice,,html-keyboard-response,246,145128,0.0-1.0-50.0-0.0,0,0,3,,347.0,,,51.0,48.0,48.0,1000.0,1500.0,0.0,1.0,0.0,20-60,,1.0,tape,hammer,60.0,20.0,tape2,hammer10,40.0,40.0,Tape_Dispenser.jpg,Tabla Hammer.JPG,/static/Category_learning/Stimuli/Experimental_stims/tape/Tape_Dispenser.jpg,/static/Category_learning/Stimuli/Experimental_stims/hammer/Tabla Hammer.JPG,0.0,hammer,tape,20.0,60.0,hammer10,tape2,40.0,40.0,0.0,256.847,0.347
247,,confirmation,,html-keyboard-response,247,146286,0.0-1.0-50.0-1.0-0.0,0,0,3,,,,,,48.0,,,,,,,,,,,,,,,,,,,,,,,,,,,,,,,,258.0,1.153
248,,isi,,html-keyboard-response,248,146394,0.0-1.0-50.0-2.0,0,0,3,,,,,,,,,,,,,,,,,,,,,,,,,,,,,,,,,,,,,,259.0,1.0
249,,feedback,,html-keyboard-response,249,147402,0.0-1.0-50.0-3.0-0.0,0,0,3,,,,,,48.0,,,,,,,,,,,,,,,,,,,,,,,,,,,,,,,,260.0,1.0
250,,iti,,html-keyboard-response,250,147508,0.0-1.0-50.0-5.0,0,0,3,,,,,,,,,,,,,,,,,,,,,,,,,,,,,,,,,,,,,,261.5,1.5
251,,choice,,html-keyboard-response,251,147738,0.0-1.0-51.0-0.0,0,0,3,,226.0,,,51.0,49.0,49.0,1500.0,1500.0,0.0,1.0,1.0,20-20,1.0,,hammer,hammer,20.0,20.0,hammer10,hammer11,40.0,0.0,Tabla Hammer.JPG,8oz-hammer-copy.jpg,/static/Category_learning/Stimuli/Experimental_stims/hammer/Tabla Hammer.JPG,/static/Category_learning/Stimuli/Experimental_stims/hammer/8oz-hammer-copy.jpg,0.0,hammer,hammer,20.0,20.0,hammer11,hammer10,0.0,40.0,0.0,261.726,0.226
252,,confirmation,,html-keyboard-response,252,149017,0.0-1.0-51.0-1.0-0.0,0,0,3,,,,,,49.0,,,,,,,,,,,,,,,,,,,,,,,,,,,,,,,,263.0,1.274
253,,isi,,html-keyboard-response,253,149122,0.0-1.0-51.0-2.0,0,0,3,,,,,,,,,,,,,,,,,,,,,,,,,,,,,,,,,,,,,,264.5,1.5
254,,feedback,,html-keyboard-response,254,150128,0.0-1.0-51.0-3.0-0.0,0,0,3,,,,,,49.0,,,,,,,,,,,,,,,,,,,,,,,,,,,,,,,,265.5,1.0
255,,iti,,html-keyboard-response,255,150233,0.0-1.0-51.0-5.0,0,0,3,,,,,,,,,,,,,,,,,,,,,,,,,,,,,,,,,,,,,,267.0,1.5
256,,choice,,html-keyboard-response,256,150632,0.0-1.0-52.0-0.0,0,0,3,,394.0,,,51.0,50.0,50.0,2000.0,1000.0,0.0,1.0,1.0,20-80,0.0,,hat,bongo,20.0,80.0,hat7,bongo8,20.0,80.0,ASTRHATFL.jpg,26390661.thl.jpg,/static/Category_learning/Stimuli/Experimental_stims/hat/ASTRHATFL.jpg,/static/Category_learning/Stimuli/Experimental_stims/bongo/26390661.thl.jpg,0.0,bongo,hat,80.0,20.0,bongo8,hat7,80.0,20.0,0.0,267.394,0.394
257,,confirmation,,html-keyboard-response,257,151743,0.0-1.0-52.0-1.0-0.0,0,0,3,,,,,,50.0,,,,,,,,,,,,,,,,,,,,,,,,,,,,,,,,268.5,1.106
258,,isi,,html-keyboard-response,258,151848,0.0-1.0-52.0-2.0,0,0,3,,,,,,,,,,,,,,,,,,,,,,,,,,,,,,,,,,,,,,270.5,2.0
259,,feedback,,html-keyboard-response,259,152852,0.0-1.0-52.0-3.0-0.0,0,0,3,,,,,,50.0,,,,,,,,,,,,,,,,,,,,,,,,,,,,,,,,271.5,1.0
260,,iti,,html-keyboard-response,260,152957,0.0-1.0-52.0-5.0,0,0,3,,,,,,,,,,,,,,,,,,,,,,,,,,,,,,,,,,,,,,272.5,1.0
261,,choice,,html-keyboard-response,261,153380,0.0-1.0-53.0-0.0,0,0,3,,419.0,,,51.0,51.0,51.0,3500.0,1500.0,0.0,1.0,0.0,20-80,,1.0,bench,frame,80.0,20.0,bench6,frame7,60.0,20.0,26370121.thl.jpg,AFRAME152.jpg,/static/Category_learning/Stimuli/Experimental_stims/bench/26370121.thl.jpg,/static/Category_learning/Stimuli/Experimental_stims/frame/AFRAME152.jpg,0.0,frame,bench,20.0,80.0,frame7,bench6,20.0,60.0,0.0,272.919,0.419
262,,confirmation,,html-keyboard-response,262,154467,0.0-1.0-53.0-1.0-0.0,0,0,3,,,,,,51.0,,,,,,,,,,,,,,,,,,,,,,,,,,,,,,,,274.0,1.081
263,,isi,,html-keyboard-response,263,154575,0.0-1.0-53.0-2.0,0,0,3,,,,,,,,,,,,,,,,,,,,,,,,,,,,,,,,,,,,,,277.5,3.5
264,,feedback,,html-keyboard-response,264,155583,0.0-1.0-53.0-3.0-0.0,0,0,3,,,,,,51.0,,,,,,,,,,,,,,,,,,,,,,,,,,,,,,,,278.5,1.0
265,,iti,,html-keyboard-response,265,155691,0.0-1.0-53.0-5.0,0,0,3,,,,,,,,,,,,,,,,,,,,,,,,,,,,,,,,,,,,,,280.0,1.5
266,,choice,,html-keyboard-response,266,155921,0.0-1.0-54.0-0.0,0,0,3,,226.0,,,51.0,52.0,52.0,1000.0,1000.0,0.0,1.0,0.0,20-80,,1.0,bench,motorcycle,80.0,20.0,bench5,motorcycle7,60.0,20.0,APARKBEN8.jpg,MotoSmall.jpg,/static/Category_learning/Stimuli/Experimental_stims/bench/APARKBEN8.jpg,/static/Category_learning/Stimuli/Experimental_stims/motorcycle/MotoSmall.jpg,0.0,motorcycle,bench,20.0,80.0,motorcycle7,bench5,20.0,60.0,0.0,280.226,0.226
267,,confirmation,,html-keyboard-response,267,157204,0.0-1.0-54.0-1.0-0.0,0,0,3,,,,,,52.0,,,,,,,,,,,,,,,,,,,,,,,,,,,,,,,,281.5,1.274
268,,isi,,html-keyboard-response,268,157310,0.0-1.0-54.0-2.0,0,0,3,,,,,,,,,,,,,,,,,,,,,,,,,,,,,,,,,,,,,,282.5,1.0
269,,feedback,,html-keyboard-response,269,158319,0.0-1.0-54.0-3.0-0.0,0,0,3,,,,,,52.0,,,,,,,,,,,,,,,,,,,,,,,,,,,,,,,,283.5,1.0
270,,iti,,html-keyboard-response,270,158426,0.0-1.0-54.0-5.0,0,0,3,,,,,,,,,,,,,,,,,,,,,,,,,,,,,,,,,,,,,,284.5,1.0
271,,choice,,html-keyboard-response,271,158758,0.0-1.0-55.0-0.0,0,0,3,,328.0,,,51.0,53.0,53.0,2000.0,2000.0,0.0,1.0,0.0,60-60,,,stool,yarn,60.0,60.0,stool9,yarn9,60.0,40.0,ASTOOL7.jpg,Aballofyarn26.jpg,/static/Category_learning/Stimuli/Experimental_stims/stool/ASTOOL7.jpg,/static/Category_learning/Stimuli/Experimental_stims/yarn/Aballofyarn26.jpg,0.0,yarn,stool,60.0,60.0,yarn9,stool9,40.0,60.0,0.0,284.828,0.328
272,,confirmation,,html-keyboard-response,272,159936,0.0-1.0-55.0-1.0-0.0,0,0,3,,,,,,53.0,,,,,,,,,,,,,,,,,,,,,,,,,,,,,,,,286.0,1.172
273,,isi,,html-keyboard-response,273,160042,0.0-1.0-55.0-2.0,0,0,3,,,,,,,,,,,,,,,,,,,,,,,,,,,,,,,,,,,,,,288.0,2.0
274,,feedback,,html-keyboard-response,274,161049,0.0-1.0-55.0-3.0-0.0,0,0,3,,,,,,53.0,,,,,,,,,,,,,,,,,,,,,,,,,,,,,,,,289.0,1.0
275,,iti,,html-keyboard-response,275,161158,0.0-1.0-55.0-5.0,0,0,3,,,,,,,,,,,,,,,,,,,,,,,,,,,,,,,,,,,,,,291.0,2.0
276,,choice,,html-keyboard-response,276,161449,0.0-1.0-56.0-0.0,0,0,3,,287.0,,,51.0,54.0,54.0,1000.0,1000.0,0.0,1.0,0.0,60-80,,0.0,stool,bench,60.0,80.0,stool7,bench7,60.0,100.0,ASTOOL25.jpg,ACONBENCH.jpg,/static/Category_learning/Stimuli/Experimental_stims/stool/ASTOOL25.jpg,/static/Category_learning/Stimuli/Experimental_stims/bench/ACONBENCH.jpg,0.0,bench,stool,80.0,60.0,bench7,stool7,100.0,60.0,0.0,291.287,0.287
277,,confirmation,,html-keyboard-response,277,162672,0.0-1.0-56.0-1.0-0.0,0,0,3,,,,,,54.0,,,,,,,,,,,,,,,,,,,,,,,,,,,,,,,,292.5,1.213
278,,isi,,html-keyboard-response,278,162777,0.0-1.0-56.0-2.0,0,0,3,,,,,,,,,,,,,,,,,,,,,,,,,,,,,,,,,,,,,,293.5,1.0
279,,feedback,,html-keyboard-response,279,163785,0.0-1.0-56.0-3.0-0.0,0,0,3,,,,,,54.0,,,,,,,,,,,,,,,,,,,,,,,,,,,,,,,,294.5,1.0
280,,iti,,html-keyboard-response,280,163889,0.0-1.0-56.0-5.0,0,0,3,,,,,,,,,,,,,,,,,,,,,,,,,,,,,,,,,,,,,,295.5,1.0
281,,choice,,html-keyboard-response,281,163993,0.0-1.0-57.0-0.0,0,0,3,,100.0,,,51.0,55.0,55.0,1000.0,1000.0,0.0,1.0,1.0,60-60,1.0,,yarn,yarn,60.0,60.0,yarn8,yarn9,40.0,40.0,smonlineyarn-285x250.jpg,Aballofyarn26.jpg,/static/Category_learning/Stimuli/Experimental_stims/yarn/smonlineyarn-285x250.jpg,/static/Category_learning/Stimuli/Experimental_stims/yarn/Aballofyarn26.jpg,0.0,yarn,yarn,60.0,60.0,yarn9,yarn8,40.0,40.0,0.0,295.6,0.1
282,,confirmation,,html-keyboard-response,282,165398,0.0-1.0-57.0-1.0-0.0,0,0,3,,,,,,55.0,,,,,,,,,,,,,,,,,,,,,,,,,,,,,,,,297.0,1.4
283,,isi,,html-keyboard-response,283,165501,0.0-1.0-57.0-2.0,0,0,3,,,,,,,,,,,,,,,,,,,,,,,,,,,,,,,,,,,,,,298.0,1.0
284,,feedback,,html-keyboard-response,284,166505,0.0-1.0-57.0-3.0-0.0,0,0,3,,,,,,55.0,,,,,,,,,,,,,,,,,,,,,,,,,,,,,,,,299.0,1.0
285,,iti,,html-keyboard-response,285,166610,0.0-1.0-57.0-5.0,0,0,3,,,,,,,,,,,,,,,,,,,,,,,,,,,,,,,,,,,,,,300.0,1.0
286,,choice,,html-keyboard-response,286,167054,0.0-1.0-58.0-0.0,0,0,3,,441.0,,,51.0,56.0,56.0,3000.0,1000.0,0.0,1.0,0.0,40-60,,1.0,train,poker card,60.0,40.0,train11,poker card6,80.0,40.0,train1.jpg,22864212.thl.jpg,/static/Category_learning/Stimuli/Experimental_stims/train/train1.jpg,/static/Category_learning/Stimuli/Experimental_stims/poker card/22864212.thl.jpg,0.0,poker card,train,40.0,60.0,poker card6,train11,40.0,80.0,0.0,300.441,0.441
287,,confirmation,,html-keyboard-response,287,168120,0.0-1.0-58.0-1.0-0.0,0,0,3,,,,,,56.0,,,,,,,,,,,,,,,,,,,,,,,,,,,,,,,,301.5,1.059
288,,isi,,html-keyboard-response,288,168228,0.0-1.0-58.0-2.0,0,0,3,,,,,,,,,,,,,,,,,,,,,,,,,,,,,,,,,,,,,,304.5,3.0
289,,feedback,,html-keyboard-response,289,169234,0.0-1.0-58.0-3.0-0.0,0,0,3,,,,,,56.0,,,,,,,,,,,,,,,,,,,,,,,,,,,,,,,,305.5,1.0
290,,iti,,html-keyboard-response,290,169342,0.0-1.0-58.0-5.0,0,0,3,,,,,,,,,,,,,,,,,,,,,,,,,,,,,,,,,,,,,,306.5,1.0
291,,choice,,html-keyboard-response,291,169400,0.0-1.0-59.0-0.0,0,0,3,,53.0,,,51.0,57.0,57.0,1000.0,1500.0,0.0,1.0,0.0,80-80,,,door knob,baby carriage,80.0,80.0,door knob7,baby carriage9,60.0,100.0,doorknob2.jpg,Antique baby Carriage 7.jpg,/static/Category_learning/Stimuli/Experimental_stims/door knob/doorknob2.jpg,/static/Category_learning/Stimuli/Experimental_stims/baby carriage/Antique baby Carriage 7.jpg,0.0,baby carriage,door knob,80.0,80.0,baby carriage9,door knob7,100.0,60.0,0.0,306.553,0.053
292,,confirmation,,html-keyboard-response,292,170853,0.0-1.0-59.0-1.0-0.0,0,0,3,,,,,,57.0,,,,,,,,,,,,,,,,,,,,,,,,,,,,,,,,308.0,1.447
293,,isi,,html-keyboard-response,293,170958,0.0-1.0-59.0-2.0,0,0,3,,,,,,,,,,,,,,,,,,,,,,,,,,,,,,,,,,,,,,309.0,1.0
294,,feedback,,html-keyboard-response,294,171964,0.0-1.0-59.0-3.0-0.0,0,0,3,,,,,,57.0,,,,,,,,,,,,,,,,,,,,,,,,,,,,,,,,310.0,1.0
295,,iti,,html-keyboard-response,295,172070,0.0-1.0-59.0-5.0,0,0,3,,,,,,,,,,,,,,,,,,,,,,,,,,,,,,,,,,,,,,311.5,1.5
296,,choice,,html-keyboard-response,296,172212,0.0-1.0-60.0-0.0,0,0,3,,138.0,,,51.0,58.0,58.0,1500.0,1000.0,0.0,1.0,1.0,40-40,1.0,,poker card,poker card,40.0,40.0,poker card6,poker card12,40.0,20.0,22864212.thl.jpg,22865676.thl.jpg,/static/Category_learning/Stimuli/Experimental_stims/poker card/22864212.thl.jpg,/static/Category_learning/Stimuli/Experimental_stims/poker card/22865676.thl.jpg,0.0,poker card,poker card,40.0,40.0,poker card12,poker card6,20.0,40.0,0.0,311.638,0.138
297,,confirmation,,html-keyboard-response,297,173578,0.0-1.0-60.0-1.0-0.0,0,0,3,,,,,,58.0,,,,,,,,,,,,,,,,,,,,,,,,,,,,,,,,313.0,1.362
298,,isi,,html-keyboard-response,298,173685,0.0-1.0-60.0-2.0,0,0,3,,,,,,,,,,,,,,,,,,,,,,,,,,,,,,,,,,,,,,314.5,1.5
299,,feedback,,html-keyboard-response,299,174690,0.0-1.0-60.0-3.0-0.0,0,0,3,,,,,,58.0,,,,,,,,,,,,,,,,,,,,,,,,,,,,,,,,315.5,1.0
300,,iti,,html-keyboard-response,300,174799,0.0-1.0-60.0-5.0,0,0,3,,,,,,,,,,,,,,,,,,,,,,,,,,,,,,,,,,,,,,316.5,1.0
301,,choice,,html-keyboard-response,301,174825,0.0-1.0-61.0-0.0,0,0,3,,16.0,,,51.0,59.0,59.0,3500.0,1000.0,0.0,1.0,0.0,60-80,,0.0,watch,bench,60.0,80.0,watch9,bench10,40.0,100.0,mens-diamond-watches-euro-48733-ab.jpg,APARKBE16.jpg,/static/Category_learning/Stimuli/Experimental_stims/watch/mens-diamond-watches-euro-48733-ab.jpg,/static/Category_learning/Stimuli/Experimental_stims/bench/APARKBE16.jpg,0.0,bench,watch,80.0,60.0,bench10,watch9,100.0,40.0,0.0,316.516,0.016
302,,confirmation,,html-keyboard-response,302,176315,0.0-1.0-61.0-1.0-0.0,0,0,3,,,,,,59.0,,,,,,,,,,,,,,,,,,,,,,,,,,,,,,,,318.0,1.484
303,,isi,,html-keyboard-response,303,176420,0.0-1.0-61.0-2.0,0,0,3,,,,,,,,,,,,,,,,,,,,,,,,,,,,,,,,,,,,,,321.5,3.5
304,,feedback,,html-keyboard-response,304,177428,0.0-1.0-61.0-3.0-0.0,0,0,3,,,,,,59.0,,,,,,,,,,,,,,,,,,,,,,,,,,,,,,,,322.5,1.0
305,,iti,,html-keyboard-response,305,177534,0.0-1.0-61.0-5.0,0,0,3,,,,,,,,,,,,,,,,,,,,,,,,,,,,,,,,,,,,,,323.5,1.0
306,,choice,,html-keyboard-response,306,177616,0.0-1.0-62.0-0.0,0,0,3,,77.0,,,51.0,60.0,60.0,1500.0,1000.0,0.0,1.0,0.0,40-40,,,pen,necklace,40.0,40.0,pen8,necklace12,60.0,40.0,1383_1749_popup copy.jpg,necklascenew07.jpg,/static/Category_learning/Stimuli/Experimental_stims/pen/1383_1749_popup copy.jpg,/static/Category_learning/Stimuli/Experimental_stims/necklace/necklascenew07.jpg,0.0,necklace,pen,40.0,40.0,necklace12,pen8,40.0,60.0,0.0,323.577,0.077
307,,confirmation,,html-keyboard-response,307,179043,0.0-1.0-62.0-1.0-0.0,0,0,3,,,,,,60.0,,,,,,,,,,,,,,,,,,,,,,,,,,,,,,,,325.0,1.423
308,,isi,,html-keyboard-response,308,179149,0.0-1.0-62.0-2.0,0,0,3,,,,,,,,,,,,,,,,,,,,,,,,,,,,,,,,,,,,,,326.5,1.5
309,,feedback,,html-keyboard-response,309,180157,0.0-1.0-62.0-3.0-0.0,0,0,3,,,,,,60.0,,,,,,,,,,,,,,,,,,,,,,,,,,,,,,,,327.5,1.0
310,,iti,,html-keyboard-response,310,180264,0.0-1.0-62.0-5.0,0,0,3,,,,,,,,,,,,,,,,,,,,,,,,,,,,,,,,,,,,,,328.5,1.0
311,,choice,,html-keyboard-response,311,180581,0.0-1.0-63.0-0.0,0,0,3,,313.0,,,51.0,61.0,61.0,1000.0,1000.0,0.0,1.0,0.0,20-60,,1.0,train,hammer,60.0,20.0,train15,hammer14,40.0,40.0,master-TD006.jpg,hammer.jpg,/static/Category_learning/Stimuli/Experimental_stims/train/master-TD006.jpg,/static/Category_learning/Stimuli/Experimental_stims/hammer/hammer.jpg,0.0,hammer,train,20.0,60.0,hammer14,train15,40.0,40.0,0.0,328.813,0.313
312,,confirmation,,html-keyboard-response,312,181777,0.0-1.0-63.0-1.0-0.0,0,0,3,,,,,,61.0,,,,,,,,,,,,,,,,,,,,,,,,,,,,,,,,330.0,1.187
313,,isi,,html-keyboard-response,313,181884,0.0-1.0-63.0-2.0,0,0,3,,,,,,,,,,,,,,,,,,,,,,,,,,,,,,,,,,,,,,331.0,1.0
314,,feedback,,html-keyboard-response,314,182893,0.0-1.0-63.0-3.0-0.0,0,0,3,,,,,,61.0,,,,,,,,,,,,,,,,,,,,,,,,,,,,,,,,332.0,1.0
315,,iti,,html-keyboard-response,315,182998,0.0-1.0-63.0-5.0,0,0,3,,,,,,,,,,,,,,,,,,,,,,,,,,,,,,,,,,,,,,333.0,1.0
316,,choice,,html-keyboard-response,316,183005,0.0-1.0-64.0-0.0,0,0,3,,3.0,,,51.0,62.0,62.0,1000.0,1000.0,0.0,1.0,0.0,20-80,,1.0,dresser,key chain,80.0,20.0,dresser13,key chain7,80.0,40.0,ADRESSE70.jpg,keychain-gentoo-linux.jpg,/static/Category_learning/Stimuli/Experimental_stims/dresser/ADRESSE70.jpg,/static/Category_learning/Stimuli/Experimental_stims/key chain/keychain-gentoo-linux.jpg,0.0,key chain,dresser,20.0,80.0,key chain7,dresser13,40.0,80.0,0.0,333.003,0.003
317,,confirmation,,html-keyboard-response,317,184508,0.0-1.0-64.0-1.0-0.0,0,0,3,,,,,,62.0,,,,,,,,,,,,,,,,,,,,,,,,,,,,,,,,334.5,1.497
318,,isi,,html-keyboard-response,318,184613,0.0-1.0-64.0-2.0,0,0,3,,,,,,,,,,,,,,,,,,,,,,,,,,,,,,,,,,,,,,335.5,1.0
319,,feedback,,html-keyboard-response,319,185618,0.0-1.0-64.0-3.0-0.0,0,0,3,,,,,,62.0,,,,,,,,,,,,,,,,,,,,,,,,,,,,,,,,336.5,1.0
320,,iti,,html-keyboard-response,320,185723,0.0-1.0-64.0-5.0,0,0,3,,,,,,,,,,,,,,,,,,,,,,,,,,,,,,,,,,,,,,337.5,1.0
321,,choice,,html-keyboard-response,321,185907,0.0-1.0-65.0-0.0,0,0,3,,175.0,,,51.0,63.0,63.0,1500.0,3500.0,0.0,1.0,1.0,80-80,1.0,,bench,bench,80.0,80.0,bench7,bench10,100.0,100.0,ACONBENCH.jpg,APARKBE16.jpg,/static/Category_learning/Stimuli/Experimental_stims/bench/ACONBENCH.jpg,/static/Category_learning/Stimuli/Experimental_stims/bench/APARKBE16.jpg,0.0,bench,bench,80.0,80.0,bench10,bench7,100.0,100.0,0.0,337.675,0.175
322,,confirmation,,html-keyboard-response,322,187243,0.0-1.0-65.0-1.0-0.0,0,0,3,,,,,,63.0,,,,,,,,,,,,,,,,,,,,,,,,,,,,,,,,339.0,1.325
323,,isi,,html-keyboard-response,323,187348,0.0-1.0-65.0-2.0,0,0,3,,,,,,,,,,,,,,,,,,,,,,,,,,,,,,,,,,,,,,340.5,1.5
324,,feedback,,html-keyboard-response,324,188353,0.0-1.0-65.0-3.0-0.0,0,0,3,,,,,,63.0,,,,,,,,,,,,,,,,,,,,,,,,,,,,,,,,341.5,1.0
325,,iti,,html-keyboard-response,325,188460,0.0-1.0-65.0-5.0,0,0,3,,,,,,,,,,,,,,,,,,,,,,,,,,,,,,,,,,,,,,345.0,3.5
326,,choice,,html-keyboard-response,326,189091,0.0-1.0-66.0-0.0,0,0,3,,628.0,,,51.0,64.0,64.0,1500.0,2000.0,0.0,1.0,0.0,40-80,,0.0,sofa,fan,40.0,80.0,sofa9,fan15,20.0,60.0,ALOVSEAT9.jpg,n_hsf.jpg,/static/Category_learning/Stimuli/Experimental_stims/sofa/ALOVSEAT9.jpg,/static/Category_learning/Stimuli/Experimental_stims/fan/n_hsf.jpg,0.0,fan,sofa,80.0,40.0,fan15,sofa9,60.0,20.0,0.0,345.628,0.628
327,,confirmation,,html-keyboard-response,327,189972,0.0-1.0-66.0-1.0-0.0,0,0,3,,,,,,64.0,,,,,,,,,,,,,,,,,,,,,,,,,,,,,,,,346.5,0.872
328,,isi,,html-keyboard-response,328,190078,0.0-1.0-66.0-2.0,0,0,3,,,,,,,,,,,,,,,,,,,,,,,,,,,,,,,,,,,,,,348.0,1.5
329,,feedback,,html-keyboard-response,329,191085,0.0-1.0-66.0-3.0-0.0,0,0,3,,,,,,64.0,,,,,,,,,,,,,,,,,,,,,,,,,,,,,,,,349.0,1.0
330,,iti,,html-keyboard-response,330,191192,0.0-1.0-66.0-5.0,0,0,3,,,,,,,,,,,,,,,,,,,,,,,,,,,,,,,,,,,,,,351.0,2.0
331,,block_over,,html-keyboard-response,331,195714,0.0-1.0-66.0-7.0-0.0,0,0,3,,4513.0,,,50.0,64.0,,,,,,,,,,,,,,,,,,,,,,,,,,,,,,,,,
332,,start_run,,html-keyboard-response,332,200384,0.0-1.0-66.0-7.0-1.0,0,0,3,,4667.0,,,84.0,,,,,,,,,,,,,,,,,,,,,,,,,,,,,,,,,,
333,,choice,,html-keyboard-response,333,200899,0.0-1.0-67.0-0.0,0,0,3,,511.0,,,50.0,65.0,65.0,3500.0,1000.0,0.0,2.0,0.0,20-60,,1.0,telescope,key chain,60.0,20.0,telescope4,key chain14,60.0,0.0,TELESCOPE_BLACK_GOOD_SMALL.jpg,Jif Keychain 285.jpg,/static/Category_learning/Stimuli/Experimental_stims/telescope/TELESCOPE_BLACK_GOOD_SMALL.jpg,/static/Category_learning/Stimuli/Experimental_stims/key chain/Jif Keychain 285.jpg,1.0,telescope,key chain,60.0,20.0,telescope4,key chain14,60.0,0.0,0.0,0.511,0.511
334,,confirmation,,html-keyboard-response,334,201892,0.0-1.0-67.0-1.0-0.0,0,0,3,,,,,,65.0,,,,,,,,,,,,,,,,,,,,,,,,,,,,,,,,1.5,0.989
335,,isi,,html-keyboard-response,335,201996,0.0-1.0-67.0-2.0,0,0,3,,,,,,,,,,,,,,,,,,,,,,,,,,,,,,,,,,,,,,5.0,3.5
336,,feedback,,html-keyboard-response,336,203002,0.0-1.0-67.0-3.0-0.0,0,0,3,,,,,,65.0,,,,,,,,,,,,,,,,,,,,,,,,,,,,,,,,6.0,1.0
337,,iti,,html-keyboard-response,337,203111,0.0-1.0-67.0-5.0,0,0,3,,,,,,,,,,,,,,,,,,,,,,,,,,,,,,,,,,,,,,7.0,1.0
338,,choice,,html-keyboard-response,338,203396,0.0-1.0-68.0-0.0,0,0,3,,282.0,,,50.0,66.0,66.0,2000.0,1000.0,0.0,2.0,0.0,20-60,,0.0,key chain,yarn,20.0,60.0,key chain3,yarn2,20.0,80.0,Keychain_Voice_Recorder.jpg,Aballofyarn66.jpg,/static/Category_learning/Stimuli/Experimental_stims/key chain/Keychain_Voice_Recorder.jpg,/static/Category_learning/Stimuli/Experimental_stims/yarn/Aballofyarn66.jpg,1.0,key chain,yarn,20.0,60.0,key chain3,yarn2,20.0,80.0,0.0,7.282,0.282
339,,confirmation,,html-keyboard-response,339,204621,0.0-1.0-68.0-1.0-0.0,0,0,3,,,,,,66.0,,,,,,,,,,,,,,,,,,,,,,,,,,,,,,,,8.5,1.218
340,,isi,,html-keyboard-response,340,204728,0.0-1.0-68.0-2.0,0,0,3,,,,,,,,,,,,,,,,,,,,,,,,,,,,,,,,,,,,,,10.5,2.0
341,,feedback,,html-keyboard-response,341,205736,0.0-1.0-68.0-3.0-0.0,0,0,3,,,,,,66.0,,,,,,,,,,,,,,,,,,,,,,,,,,,,,,,,11.5,1.0
342,,iti,,html-keyboard-response,342,205841,0.0-1.0-68.0-5.0,0,0,3,,,,,,,,,,,,,,,,,,,,,,,,,,,,,,,,,,,,,,12.5,1.0
343,,choice,,html-keyboard-response,343,206326,0.0-1.0-69.0-0.0,0,0,3,,481.0,,,50.0,67.0,67.0,1000.0,1000.0,0.0,2.0,0.0,40-60,,0.0,small table,watch,40.0,60.0,small table15,watch2,60.0,60.0,ATABLE20.jpg,AL0004-03E_MED.jpg,/static/Category_learning/Stimuli/Experimental_stims/small table/ATABLE20.jpg,/static/Category_learning/Stimuli/Experimental_stims/watch/AL0004-03E_MED.jpg,1.0,small table,watch,40.0,60.0,small table15,watch2,60.0,60.0,0.0,12.981,0.481
344,,confirmation,,html-keyboard-response,344,207353,0.0-1.0-69.0-1.0-0.0,0,0,3,,,,,,67.0,,,,,,,,,,,,,,,,,,,,,,,,,,,,,,,,14.0,1.019
345,,isi,,html-keyboard-response,345,207458,0.0-1.0-69.0-2.0,0,0,3,,,,,,,,,,,,,,,,,,,,,,,,,,,,,,,,,,,,,,15.0,1.0
346,,feedback,,html-keyboard-response,346,208465,0.0-1.0-69.0-3.0-0.0,0,0,3,,,,,,67.0,,,,,,,,,,,,,,,,,,,,,,,,,,,,,,,,16.0,1.0
347,,iti,,html-keyboard-response,347,208568,0.0-1.0-69.0-5.0,0,0,3,,,,,,,,,,,,,,,,,,,,,,,,,,,,,,,,,,,,,,17.0,1.0
348,,choice,,html-keyboard-response,348,208984,0.0-1.0-70.0-0.0,0,0,3,,413.0,,,50.0,68.0,68.0,3500.0,1000.0,0.0,2.0,0.0,40-60,,1.0,yarn,necklace,60.0,40.0,yarn11,necklace7,60.0,60.0,Aballofpinky2.jpg,Anecklace12.jpg,/static/Category_learning/Stimuli/Experimental_stims/yarn/Aballofpinky2.jpg,/static/Category_learning/Stimuli/Experimental_stims/necklace/Anecklace12.jpg,1.0,yarn,necklace,60.0,40.0,yarn11,necklace7,60.0,60.0,0.0,17.413,0.413
349,,confirmation,,html-keyboard-response,349,210076,0.0-1.0-70.0-1.0-0.0,0,0,3,,,,,,68.0,,,,,,,,,,,,,,,,,,,,,,,,,,,,,,,,18.5,1.087
350,,isi,,html-keyboard-response,350,210178,0.0-1.0-70.0-2.0,0,0,3,,,,,,,,,,,,,,,,,,,,,,,,,,,,,,,,,,,,,,22.0,3.5
351,,feedback,,html-keyboard-response,351,211184,0.0-1.0-70.0-3.0-0.0,0,0,3,,,,,,68.0,,,,,,,,,,,,,,,,,,,,,,,,,,,,,,,,23.0,1.0
352,,iti,,html-keyboard-response,352,211292,0.0-1.0-70.0-5.0,0,0,3,,,,,,,,,,,,,,,,,,,,,,,,,,,,,,,,,,,,,,24.0,1.0
353,,choice,,html-keyboard-response,353,211509,0.0-1.0-71.0-0.0,0,0,3,,212.0,,,50.0,69.0,69.0,1500.0,1000.0,0.0,2.0,0.0,20-80,,1.0,bongo,hat,80.0,20.0,bongo10,hat3,60.0,0.0,22945915.thl.jpg,Astrawhat49.jpg,/static/Category_learning/Stimuli/Experimental_stims/bongo/22945915.thl.jpg,/static/Category_learning/Stimuli/Experimental_stims/hat/Astrawhat49.jpg,1.0,bongo,hat,80.0,20.0,bongo10,hat3,60.0,0.0,0.0,24.212,0.212
354,,confirmation,,html-keyboard-response,354,212803,0.0-1.0-71.0-1.0-0.0,0,0,3,,,,,,69.0,,,,,,,,,,,,,,,,,,,,,,,,,,,,,,,,25.5,1.288
355,,isi,,html-keyboard-response,355,212911,0.0-1.0-71.0-2.0,0,0,3,,,,,,,,,,,,,,,,,,,,,,,,,,,,,,,,,,,,,,27.0,1.5
356,,feedback,,html-keyboard-response,356,213916,0.0-1.0-71.0-3.0-0.0,0,0,3,,,,,,69.0,,,,,,,,,,,,,,,,,,,,,,,,,,,,,,,,28.0,1.0
357,,iti,,html-keyboard-response,357,214021,0.0-1.0-71.0-5.0,0,0,3,,,,,,,,,,,,,,,,,,,,,,,,,,,,,,,,,,,,,,29.0,1.0
358,,choice,,html-keyboard-response,358,214194,0.0-1.0-72.0-0.0,0,0,3,,169.0,,,50.0,70.0,70.0,1500.0,1500.0,0.0,2.0,1.0,80-80,1.0,,fan,fan,80.0,80.0,fan7,fan15,80.0,60.0,250679_lg.jpg,n_hsf.jpg,/static/Category_learning/Stimuli/Experimental_stims/fan/250679_lg.jpg,/static/Category_learning/Stimuli/Experimental_stims/fan/n_hsf.jpg,1.0,fan,fan,80.0,80.0,fan7,fan15,80.0,60.0,0.0,29.169,0.169
359,,confirmation,,html-keyboard-response,359,215532,0.0-1.0-72.0-1.0-0.0,0,0,3,,,,,,70.0,,,,,,,,,,,,,,,,,,,,,,,,,,,,,,,,30.5,1.331
360,,isi,,html-keyboard-response,360,215636,0.0-1.0-72.0-2.0,0,0,3,,,,,,,,,,,,,,,,,,,,,,,,,,,,,,,,,,,,,,32.0,1.5
361,,feedback,,html-keyboard-response,361,216643,0.0-1.0-72.0-3.0-0.0,0,0,3,,,,,,70.0,,,,,,,,,,,,,,,,,,,,,,,,,,,,,,,,33.0,1.0
362,,iti,,html-keyboard-response,362,216748,0.0-1.0-72.0-5.0,0,0,3,,,,,,,,,,,,,,,,,,,,,,,,,,,,,,,,,,,,,,34.5,1.5
363,,choice,,html-keyboard-response,363,216888,0.0-1.0-73.0-0.0,0,0,3,,137.0,,,50.0,71.0,71.0,1500.0,1000.0,0.0,2.0,1.0,60-60,1.0,,telescope,telescope,60.0,60.0,telescope4,telescope12,60.0,40.0,TELESCOPE_BLACK_GOOD_SMALL.jpg,Junior Land and Sky Telescope.jpg,/static/Category_learning/Stimuli/Experimental_stims/telescope/TELESCOPE_BLACK_GOOD_SMALL.jpg,/static/Category_learning/Stimuli/Experimental_stims/telescope/Junior Land and Sky Telescope.jpg,1.0,telescope,telescope,60.0,60.0,telescope4,telescope12,60.0,40.0,0.0,34.637,0.137
364,,confirmation,,html-keyboard-response,364,218256,0.0-1.0-73.0-1.0-0.0,0,0,3,,,,,,71.0,,,,,,,,,,,,,,,,,,,,,,,,,,,,,,,,36.0,1.363
365,,isi,,html-keyboard-response,365,218359,0.0-1.0-73.0-2.0,0,0,3,,,,,,,,,,,,,,,,,,,,,,,,,,,,,,,,,,,,,,37.5,1.5
366,,feedback,,html-keyboard-response,366,219363,0.0-1.0-73.0-3.0-0.0,0,0,3,,,,,,71.0,,,,,,,,,,,,,,,,,,,,,,,,,,,,,,,,38.5,1.0
367,,iti,,html-keyboard-response,367,219471,0.0-1.0-73.0-5.0,0,0,3,,,,,,,,,,,,,,,,,,,,,,,,,,,,,,,,,,,,,,39.5,1.0
368,,choice,,html-keyboard-response,368,219875,0.0-1.0-74.0-0.0,0,0,3,,400.0,,,50.0,72.0,72.0,1000.0,2000.0,0.0,2.0,0.0,20-60,,0.0,microscope,telescope,20.0,60.0,microscope12,telescope14,0.0,80.0,usbdigitalmicroscope1_small1.jpg,T09748dt.jpg,/static/Category_learning/Stimuli/Experimental_stims/microscope/usbdigitalmicroscope1_small1.jpg,/static/Category_learning/Stimuli/Experimental_stims/telescope/T09748dt.jpg,1.0,microscope,telescope,20.0,60.0,microscope12,telescope14,0.0,80.0,0.0,39.9,0.4
369,,confirmation,,html-keyboard-response,369,220984,0.0-1.0-74.0-1.0-0.0,0,0,3,,,,,,72.0,,,,,,,,,,,,,,,,,,,,,,,,,,,,,,,,41.0,1.1
370,,isi,,html-keyboard-response,370,221091,0.0-1.0-74.0-2.0,0,0,3,,,,,,,,,,,,,,,,,,,,,,,,,,,,,,,,,,,,,,42.0,1.0
371,,feedback,,html-keyboard-response,371,222098,0.0-1.0-74.0-3.0-0.0,0,0,3,,,,,,72.0,,,,,,,,,,,,,,,,,,,,,,,,,,,,,,,,43.0,1.0
372,,iti,,html-keyboard-response,372,222202,0.0-1.0-74.0-5.0,0,0,3,,,,,,,,,,,,,,,,,,,,,,,,,,,,,,,,,,,,,,45.0,2.0
373,,choice,,html-keyboard-response,373,222282,0.0-1.0-75.0-0.0,0,0,3,,75.0,,,50.0,73.0,73.0,1000.0,1000.0,0.0,2.0,0.0,20-80,,1.0,bench,hat,80.0,20.0,bench13,hat14,80.0,0.0,ABROWNBE4.jpg,Ahat136.jpg,/static/Category_learning/Stimuli/Experimental_stims/bench/ABROWNBE4.jpg,/static/Category_learning/Stimuli/Experimental_stims/hat/Ahat136.jpg,1.0,bench,hat,80.0,20.0,bench13,hat14,80.0,0.0,0.0,45.075,0.075
374,,confirmation,,html-keyboard-response,374,223714,0.0-1.0-75.0-1.0-0.0,0,0,3,,,,,,73.0,,,,,,,,,,,,,,,,,,,,,,,,,,,,,,,,46.5,1.425
375,,isi,,html-keyboard-response,375,223820,0.0-1.0-75.0-2.0,0,0,3,,,,,,,,,,,,,,,,,,,,,,,,,,,,,,,,,,,,,,47.5,1.0
376,,feedback,,html-keyboard-response,376,224827,0.0-1.0-75.0-3.0-0.0,0,0,3,,,,,,73.0,,,,,,,,,,,,,,,,,,,,,,,,,,,,,,,,48.5,1.0
377,,iti,,html-keyboard-response,377,224934,0.0-1.0-75.0-5.0,0,0,3,,,,,,,,,,,,,,,,,,,,,,,,,,,,,,,,,,,,,,49.5,1.0
378,,choice,,html-keyboard-response,378,225101,0.0-1.0-76.0-0.0,0,0,3,,162.0,,,50.0,74.0,74.0,1500.0,1000.0,0.0,2.0,1.0,20-20,1.0,,key chain,key chain,20.0,20.0,key chain7,key chain3,40.0,20.0,keychain-gentoo-linux.jpg,Keychain_Voice_Recorder.jpg,/static/Category_learning/Stimuli/Experimental_stims/key chain/keychain-gentoo-linux.jpg,/static/Category_learning/Stimuli/Experimental_stims/key chain/Keychain_Voice_Recorder.jpg,1.0,key chain,key chain,20.0,20.0,key chain7,key chain3,40.0,20.0,0.0,49.662,0.162
379,,confirmation,,html-keyboard-response,379,226443,0.0-1.0-76.0-1.0-0.0,0,0,3,,,,,,74.0,,,,,,,,,,,,,,,,,,,,,,,,,,,,,,,,51.0,1.338
380,,isi,,html-keyboard-response,380,226549,0.0-1.0-76.0-2.0,0,0,3,,,,,,,,,,,,,,,,,,,,,,,,,,,,,,,,,,,,,,52.5,1.5
381,,feedback,,html-keyboard-response,381,227553,0.0-1.0-76.0-3.0-0.0,0,0,3,,,,,,74.0,,,,,,,,,,,,,,,,,,,,,,,,,,,,,,,,53.5,1.0
382,,iti,,html-keyboard-response,382,227658,0.0-1.0-76.0-5.0,0,0,3,,,,,,,,,,,,,,,,,,,,,,,,,,,,,,,,,,,,,,54.5,1.0
383,,choice,,html-keyboard-response,383,227939,0.0-1.0-77.0-0.0,0,0,3,,277.0,,,50.0,75.0,75.0,1000.0,2000.0,0.0,2.0,0.0,20-20,,,motorcycle,hat,20.0,20.0,motorcycle6,hat13,40.0,0.0,motorcycle45364t4t.jpg,Ahatwithfeath.jpg,/static/Category_learning/Stimuli/Experimental_stims/motorcycle/motorcycle45364t4t.jpg,/static/Category_learning/Stimuli/Experimental_stims/hat/Ahatwithfeath.jpg,1.0,motorcycle,hat,20.0,20.0,motorcycle6,hat13,40.0,0.0,0.0,54.777,0.277
384,,confirmation,,html-keyboard-response,384,229167,0.0-1.0-77.0-1.0-0.0,0,0,3,,,,,,75.0,,,,,,,,,,,,,,,,,,,,,,,,,,,,,,,,56.0,1.223
385,,isi,,html-keyboard-response,385,229273,0.0-1.0-77.0-2.0,0,0,3,,,,,,,,,,,,,,,,,,,,,,,,,,,,,,,,,,,,,,57.0,1.0
386,,feedback,,html-keyboard-response,386,230280,0.0-1.0-77.0-3.0-0.0,0,0,3,,,,,,75.0,,,,,,,,,,,,,,,,,,,,,,,,,,,,,,,,58.0,1.0
387,,iti,,html-keyboard-response,387,230385,0.0-1.0-77.0-5.0,0,0,3,,,,,,,,,,,,,,,,,,,,,,,,,,,,,,,,,,,,,,60.0,2.0
388,,choice,,html-keyboard-response,388,230398,0.0-1.0-78.0-0.0,0,0,3,,8.0,,,50.0,76.0,76.0,1000.0,1000.0,0.0,2.0,0.0,40-80,,1.0,desk,patio lounge chair,80.0,40.0,desk4,patio lounge chair13,80.0,20.0,AbbeyMiniRadialBIG(1).jpg,grosfillex-bahia-resin-chaise-lounges.jpg,/static/Category_learning/Stimuli/Experimental_stims/desk/AbbeyMiniRadialBIG(1).jpg,/static/Category_learning/Stimuli/Experimental_stims/patio lounge chair/grosfillex-bahia-resin-chaise-lounges.jpg,1.0,desk,patio lounge chair,80.0,40.0,desk4,patio lounge chair13,80.0,20.0,0.0,60.008,0.008
389,,confirmation,,html-keyboard-response,389,231896,0.0-1.0-78.0-1.0-0.0,0,0,3,,,,,,76.0,,,,,,,,,,,,,,,,,,,,,,,,,,,,,,,,61.5,1.492
390,,isi,,html-keyboard-response,390,232003,0.0-1.0-78.0-2.0,0,0,3,,,,,,,,,,,,,,,,,,,,,,,,,,,,,,,,,,,,,,62.5,1.0
391,,feedback,,html-keyboard-response,391,233011,0.0-1.0-78.0-3.0-0.0,0,0,3,,,,,,76.0,,,,,,,,,,,,,,,,,,,,,,,,,,,,,,,,63.5,1.0
392,,iti,,html-keyboard-response,392,233118,0.0-1.0-78.0-5.0,0,0,3,,,,,,,,,,,,,,,,,,,,,,,,,,,,,,,,,,,,,,64.5,1.0
393,,choice,,html-keyboard-response,393,233329,0.0-1.0-79.0-0.0,0,0,3,,206.0,,,50.0,77.0,77.0,2000.0,1500.0,0.0,2.0,1.0,20-20,1.0,,motorcycle,motorcycle,20.0,20.0,motorcycle7,motorcycle6,20.0,40.0,MotoSmall.jpg,motorcycle45364t4t.jpg,/static/Category_learning/Stimuli/Experimental_stims/motorcycle/MotoSmall.jpg,/static/Category_learning/Stimuli/Experimental_stims/motorcycle/motorcycle45364t4t.jpg,1.0,motorcycle,motorcycle,20.0,20.0,motorcycle7,motorcycle6,20.0,40.0,0.0,64.706,0.206
394,,confirmation,,html-keyboard-response,394,234629,0.0-1.0-79.0-1.0-0.0,0,0,3,,,,,,77.0,,,,,,,,,,,,,,,,,,,,,,,,,,,,,,,,66.0,1.294
395,,isi,,html-keyboard-response,395,234735,0.0-1.0-79.0-2.0,0,0,3,,,,,,,,,,,,,,,,,,,,,,,,,,,,,,,,,,,,,,68.0,2.0
396,,feedback,,html-keyboard-response,396,235741,0.0-1.0-79.0-3.0-0.0,0,0,3,,,,,,77.0,,,,,,,,,,,,,,,,,,,,,,,,,,,,,,,,69.0,1.0
397,,iti,,html-keyboard-response,397,235847,0.0-1.0-79.0-5.0,0,0,3,,,,,,,,,,,,,,,,,,,,,,,,,,,,,,,,,,,,,,70.5,1.5
398,,choice,,html-keyboard-response,398,235900,0.0-1.0-80.0-0.0,0,0,3,,48.0,,,50.0,78.0,78.0,2000.0,1000.0,0.0,2.0,0.0,20-40,,1.0,patio lounge chair,hat,40.0,20.0,patio lounge chair7,hat2,40.0,40.0,lg_Serenity_Riviera[1].jpg,Ahatwithfeat7.jpg,/static/Category_learning/Stimuli/Experimental_stims/patio lounge chair/lg_Serenity_Riviera[1].jpg,/static/Category_learning/Stimuli/Experimental_stims/hat/Ahatwithfeat7.jpg,1.0,patio lounge chair,hat,40.0,20.0,patio lounge chair7,hat2,40.0,40.0,0.0,70.548,0.048
399,,confirmation,,html-keyboard-response,399,237358,0.0-1.0-80.0-1.0-0.0,0,0,3,,,,,,78.0,,,,,,,,,,,,,,,,,,,,,,,,,,,,,,,,72.0,1.452
400,,isi,,html-keyboard-response,400,237462,0.0-1.0-80.0-2.0,0,0,3,,,,,,,,,,,,,,,,,,,,,,,,,,,,,,,,,,,,,,74.0,2.0
401,,feedback,,html-keyboard-response,401,238468,0.0-1.0-80.0-3.0-0.0,0,0,3,,,,,,78.0,,,,,,,,,,,,,,,,,,,,,,,,,,,,,,,,75.0,1.0
402,,iti,,html-keyboard-response,402,238574,0.0-1.0-80.0-5.0,0,0,3,,,,,,,,,,,,,,,,,,,,,,,,,,,,,,,,,,,,,,76.0,1.0
403,,choice,,html-keyboard-response,403,239139,0.0-1.0-81.0-0.0,0,0,3,,561.0,,,50.0,79.0,79.0,1500.0,2000.0,0.0,2.0,1.0,20-80,0.0,,bongo,microscope,80.0,20.0,bongo10,microscope12,60.0,0.0,22945915.thl.jpg,usbdigitalmicroscope1_small1.jpg,/static/Category_learning/Stimuli/Experimental_stims/bongo/22945915.thl.jpg,/static/Category_learning/Stimuli/Experimental_stims/microscope/usbdigitalmicroscope1_small1.jpg,1.0,bongo,microscope,80.0,20.0,bongo10,microscope12,60.0,0.0,0.0,76.561,0.561
404,,confirmation,,html-keyboard-response,404,240085,0.0-1.0-81.0-1.0-0.0,0,0,3,,,,,,79.0,,,,,,,,,,,,,,,,,,,,,,,,,,,,,,,,77.5,0.939
405,,isi,,html-keyboard-response,405,240192,0.0-1.0-81.0-2.0,0,0,3,,,,,,,,,,,,,,,,,,,,,,,,,,,,,,,,,,,,,,79.0,1.5
406,,feedback,,html-keyboard-response,406,241198,0.0-1.0-81.0-3.0-0.0,0,0,3,,,,,,79.0,,,,,,,,,,,,,,,,,,,,,,,,,,,,,,,,80.0,1.0
407,,iti,,html-keyboard-response,407,241303,0.0-1.0-81.0-5.0,0,0,3,,,,,,,,,,,,,,,,,,,,,,,,,,,,,,,,,,,,,,82.0,2.0
408,,choice,,html-keyboard-response,408,241438,0.0-1.0-82.0-0.0,0,0,3,,131.0,,,50.0,80.0,80.0,1000.0,1500.0,0.0,2.0,0.0,20-80,,0.0,hat,flashlight,20.0,80.0,hat9,flashlight7,40.0,60.0,Astrawhat44.jpg,11900.jpg,/static/Category_learning/Stimuli/Experimental_stims/hat/Astrawhat44.jpg,/static/Category_learning/Stimuli/Experimental_stims/flashlight/11900.jpg,1.0,hat,flashlight,20.0,80.0,hat9,flashlight7,40.0,60.0,0.0,82.131,0.131
409,,confirmation,,html-keyboard-response,409,242816,0.0-1.0-82.0-1.0-0.0,0,0,3,,,,,,80.0,,,,,,,,,,,,,,,,,,,,,,,,,,,,,,,,83.5,1.369
410,,isi,,html-keyboard-response,410,242921,0.0-1.0-82.0-2.0,0,0,3,,,,,,,,,,,,,,,,,,,,,,,,,,,,,,,,,,,,,,84.5,1.0
411,,feedback,,html-keyboard-response,411,243929,0.0-1.0-82.0-3.0-0.0,0,0,3,,,,,,80.0,,,,,,,,,,,,,,,,,,,,,,,,,,,,,,,,85.5,1.0
412,,iti,,html-keyboard-response,412,244036,0.0-1.0-82.0-5.0,0,0,3,,,,,,,,,,,,,,,,,,,,,,,,,,,,,,,,,,,,,,87.0,1.5
413,,choice,,html-keyboard-response,413,244505,0.0-1.0-83.0-0.0,0,0,3,,464.0,,,50.0,81.0,81.0,2000.0,1500.0,0.0,2.0,0.0,40-60,,1.0,telescope,sofa,60.0,40.0,telescope2,sofa15,60.0,40.0,Brass-telescope-60700.jpg,APEACHLOV.jpg,/static/Category_learning/Stimuli/Experimental_stims/telescope/Brass-telescope-60700.jpg,/static/Category_learning/Stimuli/Experimental_stims/sofa/APEACHLOV.jpg,1.0,telescope,sofa,60.0,40.0,telescope2,sofa15,60.0,40.0,0.0,87.464,0.464
414,,confirmation,,html-keyboard-response,414,245547,0.0-1.0-83.0-1.0-0.0,0,0,3,,,,,,81.0,,,,,,,,,,,,,,,,,,,,,,,,,,,,,,,,88.5,1.036
415,,isi,,html-keyboard-response,415,245654,0.0-1.0-83.0-2.0,0,0,3,,,,,,,,,,,,,,,,,,,,,,,,,,,,,,,,,,,,,,90.5,2.0
416,,feedback,,html-keyboard-response,416,246660,0.0-1.0-83.0-3.0-0.0,0,0,3,,,,,,81.0,,,,,,,,,,,,,,,,,,,,,,,,,,,,,,,,91.5,1.0
417,,iti,,html-keyboard-response,417,246763,0.0-1.0-83.0-5.0,0,0,3,,,,,,,,,,,,,,,,,,,,,,,,,,,,,,,,,,,,,,93.0,1.5
418,,choice,,html-keyboard-response,418,247502,0.0-1.0-84.0-0.0,0,0,3,,734.0,,,50.0,82.0,82.0,2000.0,1000.0,0.0,2.0,0.0,20-60,,1.0,train,makeup compact,60.0,20.0,train2,makeup compact15,80.0,40.0,iron_train.jpg,05086681402.jpg,/static/Category_learning/Stimuli/Experimental_stims/train/iron_train.jpg,/static/Category_learning/Stimuli/Experimental_stims/makeup compact/05086681402.jpg,1.0,train,makeup compact,60.0,20.0,train2,makeup compact15,80.0,40.0,0.0,93.734,0.734
419,,confirmation,,html-keyboard-response,419,248277,0.0-1.0-84.0-1.0-0.0,0,0,3,,,,,,82.0,,,,,,,,,,,,,,,,,,,,,,,,,,,,,,,,94.5,0.766
420,,isi,,html-keyboard-response,420,248386,0.0-1.0-84.0-2.0,0,0,3,,,,,,,,,,,,,,,,,,,,,,,,,,,,,,,,,,,,,,96.5,2.0
421,,feedback,,html-keyboard-response,421,249393,0.0-1.0-84.0-3.0-0.0,0,0,3,,,,,,82.0,,,,,,,,,,,,,,,,,,,,,,,,,,,,,,,,97.5,1.0
422,,iti,,html-keyboard-response,422,249501,0.0-1.0-84.0-5.0,0,0,3,,,,,,,,,,,,,,,,,,,,,,,,,,,,,,,,,,,,,,98.5,1.0
423,,choice,,html-keyboard-response,423,249584,0.0-1.0-85.0-0.0,0,0,3,,78.0,,,50.0,83.0,83.0,3500.0,1000.0,0.0,2.0,0.0,40-40,,,sofa,power strip,40.0,40.0,sofa4,power strip11,20.0,60.0,ALOVSEA15.jpg,41Bw7Tl1G7L._AA262_.jpg,/static/Category_learning/Stimuli/Experimental_stims/sofa/ALOVSEA15.jpg,/static/Category_learning/Stimuli/Experimental_stims/power strip/41Bw7Tl1G7L._AA262_.jpg,1.0,sofa,power strip,40.0,40.0,sofa4,power strip11,20.0,60.0,0.0,98.578,0.078
424,,confirmation,,html-keyboard-response,424,251012,0.0-1.0-85.0-1.0-0.0,0,0,3,,,,,,83.0,,,,,,,,,,,,,,,,,,,,,,,,,,,,,,,,100.0,1.422
425,,isi,,html-keyboard-response,425,251118,0.0-1.0-85.0-2.0,0,0,3,,,,,,,,,,,,,,,,,,,,,,,,,,,,,,,,,,,,,,103.5,3.5
426,,feedback,,html-keyboard-response,426,252128,0.0-1.0-85.0-3.0-0.0,0,0,3,,,,,,83.0,,,,,,,,,,,,,,,,,,,,,,,,,,,,,,,,104.5,1.0
427,,iti,,html-keyboard-response,427,252232,0.0-1.0-85.0-5.0,0,0,3,,,,,,,,,,,,,,,,,,,,,,,,,,,,,,,,,,,,,,105.5,1.0
428,,choice,,html-keyboard-response,428,252382,0.0-1.0-86.0-0.0,0,0,3,,147.0,,,50.0,84.0,84.0,1500.0,1000.0,0.0,2.0,0.0,20-80,,0.0,hammer,bongo,20.0,80.0,hammer2,bongo3,0.0,100.0,hammer04.jpg,26390697.thl.jpg,/static/Category_learning/Stimuli/Experimental_stims/hammer/hammer04.jpg,/static/Category_learning/Stimuli/Experimental_stims/bongo/26390697.thl.jpg,1.0,hammer,bongo,20.0,80.0,hammer2,bongo3,0.0,100.0,0.0,105.647,0.147
429,,confirmation,,html-keyboard-response,429,253742,0.0-1.0-86.0-1.0-0.0,0,0,3,,,,,,84.0,,,,,,,,,,,,,,,,,,,,,,,,,,,,,,,,107.0,1.353
430,,isi,,html-keyboard-response,430,253849,0.0-1.0-86.0-2.0,0,0,3,,,,,,,,,,,,,,,,,,,,,,,,,,,,,,,,,,,,,,108.5,1.5
431,,feedback,,html-keyboard-response,431,254857,0.0-1.0-86.0-3.0-0.0,0,0,3,,,,,,84.0,,,,,,,,,,,,,,,,,,,,,,,,,,,,,,,,109.5,1.0
432,,iti,,html-keyboard-response,432,254963,0.0-1.0-86.0-5.0,0,0,3,,,,,,,,,,,,,,,,,,,,,,,,,,,,,,,,,,,,,,110.5,1.0
433,,choice,,html-keyboard-response,433,255883,0.0-1.0-87.0-0.0,0,0,3,,916.0,,,50.0,85.0,85.0,1500.0,1000.0,0.0,2.0,0.0,40-60,,1.0,trumpet,power strip,60.0,40.0,trumpet10,power strip15,60.0,20.0,trumpet2.jpg,31oz6aGZN7L._AA262_.jpg,/static/Category_learning/Stimuli/Experimental_stims/trumpet/trumpet2.jpg,/static/Category_learning/Stimuli/Experimental_stims/power strip/31oz6aGZN7L._AA262_.jpg,1.0,trumpet,power strip,60.0,40.0,trumpet10,power strip15,60.0,20.0,0.0,111.416,0.916
434,,confirmation,,html-keyboard-response,434,256474,0.0-1.0-87.0-1.0-0.0,0,0,3,,,,,,85.0,,,,,,,,,,,,,,,,,,,,,,,,,,,,,,,,112.0,0.584
435,,isi,,html-keyboard-response,435,256578,0.0-1.0-87.0-2.0,0,0,3,,,,,,,,,,,,,,,,,,,,,,,,,,,,,,,,,,,,,,113.5,1.5
436,,feedback,,html-keyboard-response,436,257587,0.0-1.0-87.0-3.0-0.0,0,0,3,,,,,,85.0,,,,,,,,,,,,,,,,,,,,,,,,,,,,,,,,114.5,1.0
437,,iti,,html-keyboard-response,437,257694,0.0-1.0-87.0-5.0,0,0,3,,,,,,,,,,,,,,,,,,,,,,,,,,,,,,,,,,,,,,115.5,1.0
438,,choice,,html-keyboard-response,438,258912,0.0-1.0-88.0-0.0,0,0,3,,1214.0,,,50.0,86.0,86.0,1500.0,2000.0,0.0,2.0,1.0,20-20,1.0,,hammer,hammer,20.0,20.0,hammer14,hammer2,40.0,0.0,hammer.jpg,hammer04.jpg,/static/Category_learning/Stimuli/Experimental_stims/hammer/hammer.jpg,/static/Category_learning/Stimuli/Experimental_stims/hammer/hammer04.jpg,1.0,hammer,hammer,20.0,20.0,hammer14,hammer2,40.0,0.0,0.0,116.714,1.214
439,,confirmation,,html-keyboard-response,439,259203,0.0-1.0-88.0-1.0-0.0,0,0,3,,,,,,86.0,,,,,,,,,,,,,,,,,,,,,,,,,,,,,,,,117.0,0.286
440,,isi,,html-keyboard-response,440,259311,0.0-1.0-88.0-2.0,0,0,3,,,,,,,,,,,,,,,,,,,,,,,,,,,,,,,,,,,,,,118.5,1.5
441,,feedback,,html-keyboard-response,441,260316,0.0-1.0-88.0-3.0-0.0,0,0,3,,,,,,86.0,,,,,,,,,,,,,,,,,,,,,,,,,,,,,,,,119.5,1.0
442,,iti,,html-keyboard-response,442,260424,0.0-1.0-88.0-5.0,0,0,3,,,,,,,,,,,,,,,,,,,,,,,,,,,,,,,,,,,,,,121.5,2.0
443,,choice,,html-keyboard-response,443,260663,0.0-1.0-89.0-0.0,0,0,3,,235.0,,,50.0,87.0,87.0,1500.0,1500.0,0.0,2.0,1.0,60-60,1.0,,train,train,60.0,60.0,train2,train6,80.0,40.0,iron_train.jpg,train9.jpg,/static/Category_learning/Stimuli/Experimental_stims/train/iron_train.jpg,/static/Category_learning/Stimuli/Experimental_stims/train/train9.jpg,1.0,train,train,60.0,60.0,train2,train6,80.0,40.0,0.0,121.735,0.235
444,,confirmation,,html-keyboard-response,444,261934,0.0-1.0-89.0-1.0-0.0,0,0,3,,,,,,87.0,,,,,,,,,,,,,,,,,,,,,,,,,,,,,,,,123.0,1.265
445,,isi,,html-keyboard-response,445,262039,0.0-1.0-89.0-2.0,0,0,3,,,,,,,,,,,,,,,,,,,,,,,,,,,,,,,,,,,,,,124.5,1.5
446,,feedback,,html-keyboard-response,446,263044,0.0-1.0-89.0-3.0-0.0,0,0,3,,,,,,87.0,,,,,,,,,,,,,,,,,,,,,,,,,,,,,,,,125.5,1.0
447,,iti,,html-keyboard-response,447,263150,0.0-1.0-89.0-5.0,0,0,3,,,,,,,,,,,,,,,,,,,,,,,,,,,,,,,,,,,,,,127.0,1.5
448,,choice,,html-keyboard-response,448,263768,0.0-1.0-90.0-0.0,0,0,3,,614.0,,,50.0,88.0,88.0,1000.0,1500.0,0.0,2.0,0.0,20-20,,,key chain,motorcycle,20.0,20.0,key chain13,motorcycle14,0.0,20.0,Fancy_Liquid_Column_Shape_Key_Ring_with_Floater.jpg,motorcycle11.jpg,/static/Category_learning/Stimuli/Experimental_stims/key chain/Fancy_Liquid_Column_Shape_Key_Ring_with_Floater.jpg,/static/Category_learning/Stimuli/Experimental_stims/motorcycle/motorcycle11.jpg,1.0,key chain,motorcycle,20.0,20.0,key chain13,motorcycle14,0.0,20.0,0.0,127.614,0.614
449,,confirmation,,html-keyboard-response,449,264659,0.0-1.0-90.0-1.0-0.0,0,0,3,,,,,,88.0,,,,,,,,,,,,,,,,,,,,,,,,,,,,,,,,128.5,0.886
450,,isi,,html-keyboard-response,450,264764,0.0-1.0-90.0-2.0,0,0,3,,,,,,,,,,,,,,,,,,,,,,,,,,,,,,,,,,,,,,129.5,1.0
451,,feedback,,html-keyboard-response,451,265771,0.0-1.0-90.0-3.0-0.0,0,0,3,,,,,,88.0,,,,,,,,,,,,,,,,,,,,,,,,,,,,,,,,130.5,1.0
452,,iti,,html-keyboard-response,452,265879,0.0-1.0-90.0-5.0,0,0,3,,,,,,,,,,,,,,,,,,,,,,,,,,,,,,,,,,,,,,132.0,1.5
453,,choice,,html-keyboard-response,453,266382,0.0-1.0-91.0-0.0,0,0,3,,499.0,,,50.0,89.0,89.0,2000.0,2000.0,0.0,2.0,0.0,40-80,,0.0,small table,fan,40.0,80.0,small table14,fan11,40.0,80.0,Awoodtable13.jpg,n_sf.jpg,/static/Category_learning/Stimuli/Experimental_stims/small table/Awoodtable13.jpg,/static/Category_learning/Stimuli/Experimental_stims/fan/n_sf.jpg,1.0,small table,fan,40.0,80.0,small table14,fan11,40.0,80.0,0.0,132.499,0.499
454,,confirmation,,html-keyboard-response,454,267390,0.0-1.0-91.0-1.0-0.0,0,0,3,,,,,,89.0,,,,,,,,,,,,,,,,,,,,,,,,,,,,,,,,133.5,1.001
455,,isi,,html-keyboard-response,455,267496,0.0-1.0-91.0-2.0,0,0,3,,,,,,,,,,,,,,,,,,,,,,,,,,,,,,,,,,,,,,135.5,2.0
456,,feedback,,html-keyboard-response,456,268503,0.0-1.0-91.0-3.0-0.0,0,0,3,,,,,,89.0,,,,,,,,,,,,,,,,,,,,,,,,,,,,,,,,136.5,1.0
457,,iti,,html-keyboard-response,457,268609,0.0-1.0-91.0-5.0,0,0,3,,,,,,,,,,,,,,,,,,,,,,,,,,,,,,,,,,,,,,138.5,2.0
458,,choice,,html-keyboard-response,458,269082,0.0-1.0-92.0-0.0,0,0,3,,469.0,,,50.0,90.0,90.0,2000.0,3500.0,0.0,2.0,0.0,40-80,,1.0,baby carriage,patio lounge chair,80.0,40.0,baby carriage1,patio lounge chair6,100.0,40.0,babycarriage16.jpg,Lounge_Chair_with_Pillow.jpg,/static/Category_learning/Stimuli/Experimental_stims/baby carriage/babycarriage16.jpg,/static/Category_learning/Stimuli/Experimental_stims/patio lounge chair/Lounge_Chair_with_Pillow.jpg,1.0,baby carriage,patio lounge chair,80.0,40.0,baby carriage1,patio lounge chair6,100.0,40.0,0.0,138.969,0.469
459,,confirmation,,html-keyboard-response,459,270118,0.0-1.0-92.0-1.0-0.0,0,0,3,,,,,,90.0,,,,,,,,,,,,,,,,,,,,,,,,,,,,,,,,140.0,1.031
460,,isi,,html-keyboard-response,460,270226,0.0-1.0-92.0-2.0,0,0,3,,,,,,,,,,,,,,,,,,,,,,,,,,,,,,,,,,,,,,142.0,2.0
461,,feedback,,html-keyboard-response,461,271234,0.0-1.0-92.0-3.0-0.0,0,0,3,,,,,,90.0,,,,,,,,,,,,,,,,,,,,,,,,,,,,,,,,143.0,1.0
462,,iti,,html-keyboard-response,462,271340,0.0-1.0-92.0-5.0,0,0,3,,,,,,,,,,,,,,,,,,,,,,,,,,,,,,,,,,,,,,146.5,3.5
463,,choice,,html-keyboard-response,463,271440,0.0-1.0-93.0-0.0,0,0,3,,95.0,,,50.0,91.0,91.0,1000.0,2000.0,0.0,2.0,0.0,40-80,,0.0,patio lounge chair,bowl,40.0,80.0,patio lounge chair10,bowl2,20.0,100.0,51831.jpg,AMIXBOWL2.jpg,/static/Category_learning/Stimuli/Experimental_stims/patio lounge chair/51831.jpg,/static/Category_learning/Stimuli/Experimental_stims/bowl/AMIXBOWL2.jpg,1.0,patio lounge chair,bowl,40.0,80.0,patio lounge chair10,bowl2,20.0,100.0,0.0,146.595,0.095
464,,confirmation,,html-keyboard-response,464,272854,0.0-1.0-93.0-1.0-0.0,0,0,3,,,,,,91.0,,,,,,,,,,,,,,,,,,,,,,,,,,,,,,,,148.0,1.405
465,,isi,,html-keyboard-response,465,272957,0.0-1.0-93.0-2.0,0,0,3,,,,,,,,,,,,,,,,,,,,,,,,,,,,,,,,,,,,,,149.0,1.0
466,,feedback,,html-keyboard-response,466,273964,0.0-1.0-93.0-3.0-0.0,0,0,3,,,,,,91.0,,,,,,,,,,,,,,,,,,,,,,,,,,,,,,,,150.0,1.0
467,,iti,,html-keyboard-response,467,274069,0.0-1.0-93.0-5.0,0,0,3,,,,,,,,,,,,,,,,,,,,,,,,,,,,,,,,,,,,,,152.0,2.0
468,,choice,,html-keyboard-response,468,274074,0.0-1.0-94.0-0.0,0,0,3,,0.0,,,50.0,92.0,92.0,1500.0,1500.0,0.0,2.0,0.0,60-80,,0.0,tent,dresser,60.0,80.0,tent12,dresser10,40.0,60.0,31316-AZU_m.jpg,ADRESSE14.jpg,/static/Category_learning/Stimuli/Experimental_stims/tent/31316-AZU_m.jpg,/static/Category_learning/Stimuli/Experimental_stims/dresser/ADRESSE14.jpg,1.0,tent,dresser,60.0,80.0,tent12,dresser10,40.0,60.0,0.0,152.0,0.0
469,,confirmation,,html-keyboard-response,469,275578,0.0-1.0-94.0-1.0-0.0,0,0,3,,,,,,92.0,,,,,,,,,,,,,,,,,,,,,,,,,,,,,,,,153.5,1.5
470,,isi,,html-keyboard-response,470,275686,0.0-1.0-94.0-2.0,0,0,3,,,,,,,,,,,,,,,,,,,,,,,,,,,,,,,,,,,,,,155.0,1.5
471,,feedback,,html-keyboard-response,471,276692,0.0-1.0-94.0-3.0-0.0,0,0,3,,,,,,92.0,,,,,,,,,,,,,,,,,,,,,,,,,,,,,,,,156.0,1.0
472,,iti,,html-keyboard-response,472,276798,0.0-1.0-94.0-5.0,0,0,3,,,,,,,,,,,,,,,,,,,,,,,,,,,,,,,,,,,,,,157.5,1.5
473,,choice,,html-keyboard-response,473,276838,0.0-1.0-95.0-0.0,0,0,3,,36.0,,,50.0,93.0,93.0,1000.0,1000.0,0.0,2.0,1.0,60-60,1.0,,tent,tent,60.0,60.0,tent12,tent14,40.0,60.0,31316-AZU_m.jpg,inflatable-tent.jpg,/static/Category_learning/Stimuli/Experimental_stims/tent/31316-AZU_m.jpg,/static/Category_learning/Stimuli/Experimental_stims/tent/inflatable-tent.jpg,1.0,tent,tent,60.0,60.0,tent12,tent14,40.0,60.0,0.0,157.536,0.036
474,,confirmation,,html-keyboard-response,474,278307,0.0-1.0-95.0-1.0-0.0,0,0,3,,,,,,93.0,,,,,,,,,,,,,,,,,,,,,,,,,,,,,,,,159.0,1.464
475,,isi,,html-keyboard-response,475,278415,0.0-1.0-95.0-2.0,0,0,3,,,,,,,,,,,,,,,,,,,,,,,,,,,,,,,,,,,,,,160.0,1.0
476,,feedback,,html-keyboard-response,476,279424,0.0-1.0-95.0-3.0-0.0,0,0,3,,,,,,93.0,,,,,,,,,,,,,,,,,,,,,,,,,,,,,,,,161.0,1.0
477,,iti,,html-keyboard-response,477,279529,0.0-1.0-95.0-5.0,0,0,3,,,,,,,,,,,,,,,,,,,,,,,,,,,,,,,,,,,,,,162.0,1.0
478,,choice,,html-keyboard-response,478,279921,0.0-1.0-96.0-0.0,0,0,3,,388.0,,,50.0,94.0,94.0,1500.0,1000.0,0.0,2.0,0.0,40-80,,0.0,necklace,fan,40.0,80.0,necklace5,fan9,60.0,80.0,necklascenew08.jpg,FT-40A.jpg,/static/Category_learning/Stimuli/Experimental_stims/necklace/necklascenew08.jpg,/static/Category_learning/Stimuli/Experimental_stims/fan/FT-40A.jpg,1.0,necklace,fan,40.0,80.0,necklace5,fan9,60.0,80.0,0.0,162.388,0.388
479,,confirmation,,html-keyboard-response,479,281040,0.0-1.0-96.0-1.0-0.0,0,0,3,,,,,,94.0,,,,,,,,,,,,,,,,,,,,,,,,,,,,,,,,163.5,1.112
480,,isi,,html-keyboard-response,480,281149,0.0-1.0-96.0-2.0,0,0,3,,,,,,,,,,,,,,,,,,,,,,,,,,,,,,,,,,,,,,165.0,1.5
481,,feedback,,html-keyboard-response,481,282158,0.0-1.0-96.0-3.0-0.0,0,0,3,,,,,,94.0,,,,,,,,,,,,,,,,,,,,,,,,,,,,,,,,166.0,1.0
482,,iti,,html-keyboard-response,482,282265,0.0-1.0-96.0-5.0,0,0,3,,,,,,,,,,,,,,,,,,,,,,,,,,,,,,,,,,,,,,167.0,1.0
483,,choice,,html-keyboard-response,483,282527,0.0-1.0-97.0-0.0,0,0,3,,258.0,,,50.0,95.0,95.0,1000.0,1500.0,0.0,2.0,1.0,40-40,1.0,,necklace,necklace,40.0,40.0,necklace5,necklace12,60.0,40.0,necklascenew08.jpg,necklascenew07.jpg,/static/Category_learning/Stimuli/Experimental_stims/necklace/necklascenew08.jpg,/static/Category_learning/Stimuli/Experimental_stims/necklace/necklascenew07.jpg,1.0,necklace,necklace,40.0,40.0,necklace5,necklace12,60.0,40.0,0.0,167.258,0.258
484,,confirmation,,html-keyboard-response,484,283772,0.0-1.0-97.0-1.0-0.0,0,0,3,,,,,,95.0,,,,,,,,,,,,,,,,,,,,,,,,,,,,,,,,168.5,1.242
485,,isi,,html-keyboard-response,485,283878,0.0-1.0-97.0-2.0,0,0,3,,,,,,,,,,,,,,,,,,,,,,,,,,,,,,,,,,,,,,169.5,1.0
486,,feedback,,html-keyboard-response,486,284885,0.0-1.0-97.0-3.0-0.0,0,0,3,,,,,,95.0,,,,,,,,,,,,,,,,,,,,,,,,,,,,,,,,170.5,1.0
487,,iti,,html-keyboard-response,487,284991,0.0-1.0-97.0-5.0,0,0,3,,,,,,,,,,,,,,,,,,,,,,,,,,,,,,,,,,,,,,172.0,1.5
488,,choice,,html-keyboard-response,488,285343,0.0-1.0-98.0-0.0,0,0,3,,348.0,,,50.0,96.0,96.0,2000.0,3500.0,0.0,2.0,0.0,60-60,,,train,watch,60.0,60.0,train10,watch5,60.0,60.0,train3.jpg,B000GB0Q2K.01-A4LKQQKJ91IUZ._AA280_SCLZZZZZZZ_V66976251_.jpg,/static/Category_learning/Stimuli/Experimental_stims/train/train3.jpg,/static/Category_learning/Stimuli/Experimental_stims/watch/B000GB0Q2K.01-A4LKQQKJ91IUZ._AA280_SCLZZZZZZZ_V66976251_.jpg,1.0,train,watch,60.0,60.0,train10,watch5,60.0,60.0,0.0,172.348,0.348
489,,confirmation,,html-keyboard-response,489,286503,0.0-1.0-98.0-1.0-0.0,0,0,3,,,,,,96.0,,,,,,,,,,,,,,,,,,,,,,,,,,,,,,,,173.5,1.152
490,,isi,,html-keyboard-response,490,286609,0.0-1.0-98.0-2.0,0,0,3,,,,,,,,,,,,,,,,,,,,,,,,,,,,,,,,,,,,,,175.5,2.0
491,,feedback,,html-keyboard-response,491,287616,0.0-1.0-98.0-3.0-0.0,0,0,3,,,,,,96.0,,,,,,,,,,,,,,,,,,,,,,,,,,,,,,,,176.5,1.0
492,,iti,,html-keyboard-response,492,287722,0.0-1.0-98.0-5.0,0,0,3,,,,,,,,,,,,,,,,,,,,,,,,,,,,,,,,,,,,,,180.0,3.5
493,,choice,,html-keyboard-response,493,288014,0.0-1.0-99.0-0.0,0,0,3,,289.0,,,50.0,97.0,97.0,1000.0,1500.0,0.0,2.0,0.0,40-60,,0.0,small table,stool,40.0,60.0,small table11,stool14,40.0,40.0,ATABLE83.jpg,hjscott-sbs-b-bar-stool.jpg,/static/Category_learning/Stimuli/Experimental_stims/small table/ATABLE83.jpg,/static/Category_learning/Stimuli/Experimental_stims/stool/hjscott-sbs-b-bar-stool.jpg,1.0,small table,stool,40.0,60.0,small table11,stool14,40.0,40.0,0.0,180.289,0.289
494,,confirmation,,html-keyboard-response,494,289229,0.0-1.0-99.0-1.0-0.0,0,0,3,,,,,,97.0,,,,,,,,,,,,,,,,,,,,,,,,,,,,,,,,181.5,1.211
495,,isi,,html-keyboard-response,495,289333,0.0-1.0-99.0-2.0,0,0,3,,,,,,,,,,,,,,,,,,,,,,,,,,,,,,,,,,,,,,182.5,1.0
496,,feedback,,html-keyboard-response,496,290337,0.0-1.0-99.0-3.0-0.0,0,0,3,,,,,,97.0,,,,,,,,,,,,,,,,,,,,,,,,,,,,,,,,183.5,1.0
497,,iti,,html-keyboard-response,497,290446,0.0-1.0-99.0-5.0,0,0,3,,,,,,,,,,,,,,,,,,,,,,,,,,,,,,,,,,,,,,185.0,1.5
498,,choice,,html-keyboard-response,498,290499,0.0-1.0-100.0-0.0,0,0,3,,48.0,,,50.0,98.0,98.0,1000.0,1000.0,0.0,2.0,0.0,40-60,,0.0,small table,stool,40.0,60.0,small table9,stool8,60.0,80.0,ATABLE79.jpg,ASTOOL33.jpg,/static/Category_learning/Stimuli/Experimental_stims/small table/ATABLE79.jpg,/static/Category_learning/Stimuli/Experimental_stims/stool/ASTOOL33.jpg,1.0,small table,stool,40.0,60.0,small table9,stool8,60.0,80.0,0.0,185.048,0.048
499,,confirmation,,html-keyboard-response,499,291955,0.0-1.0-100.0-1.0-0.0,0,0,3,,,,,,98.0,,,,,,,,,,,,,,,,,,,,,,,,,,,,,,,,186.5,1.452
500,,isi,,html-keyboard-response,500,292059,0.0-1.0-100.0-2.0,0,0,3,,,,,,,,,,,,,,,,,,,,,,,,,,,,,,,,,,,,,,187.5,1.0
501,,feedback,,html-keyboard-response,501,293067,0.0-1.0-100.0-3.0-0.0,0,0,3,,,,,,98.0,,,,,,,,,,,,,,,,,,,,,,,,,,,,,,,,188.5,1.0
502,,iti,,html-keyboard-response,502,293171,0.0-1.0-100.0-5.0,0,0,3,,,,,,,,,,,,,,,,,,,,,,,,,,,,,,,,,,,,,,189.5,1.0
503,,choice,,html-keyboard-response,503,293325,0.0-1.0-101.0-0.0,0,0,3,,149.0,,,50.0,99.0,99.0,1000.0,2000.0,0.0,2.0,0.0,20-60,,1.0,tent,microscope,60.0,20.0,tent5,microscope1,80.0,20.0,Dome Tentnb87r67.jpg,digital-blue-microscope-qx5-md.jpg,/static/Category_learning/Stimuli/Experimental_stims/tent/Dome Tentnb87r67.jpg,/static/Category_learning/Stimuli/Experimental_stims/microscope/digital-blue-microscope-qx5-md.jpg,1.0,tent,microscope,60.0,20.0,tent5,microscope1,80.0,20.0,0.0,189.649,0.149
504,,confirmation,,html-keyboard-response,504,294684,0.0-1.0-101.0-1.0-0.0,0,0,3,,,,,,99.0,,,,,,,,,,,,,,,,,,,,,,,,,,,,,,,,191.0,1.351
505,,isi,,html-keyboard-response,505,294791,0.0-1.0-101.0-2.0,0,0,3,,,,,,,,,,,,,,,,,,,,,,,,,,,,,,,,,,,,,,192.0,1.0
506,,feedback,,html-keyboard-response,506,295796,0.0-1.0-101.0-3.0-0.0,0,0,3,,,,,,99.0,,,,,,,,,,,,,,,,,,,,,,,,,,,,,,,,193.0,1.0
507,,iti,,html-keyboard-response,507,295903,0.0-1.0-101.0-5.0,0,0,3,,,,,,,,,,,,,,,,,,,,,,,,,,,,,,,,,,,,,,195.0,2.0
508,,choice,,html-keyboard-response,508,295917,0.0-1.0-102.0-0.0,0,0,3,,9.0,,,50.0,100.0,100.0,3000.0,1500.0,0.0,2.0,1.0,40-40,1.0,,patio lounge chair,patio lounge chair,40.0,40.0,patio lounge chair7,patio lounge chair10,40.0,20.0,lg_Serenity_Riviera[1].jpg,51831.jpg,/static/Category_learning/Stimuli/Experimental_stims/patio lounge chair/lg_Serenity_Riviera[1].jpg,/static/Category_learning/Stimuli/Experimental_stims/patio lounge chair/51831.jpg,1.0,patio lounge chair,patio lounge chair,40.0,40.0,patio lounge chair7,patio lounge chair10,40.0,20.0,0.0,195.009,0.009
509,,confirmation,,html-keyboard-response,509,297417,0.0-1.0-102.0-1.0-0.0,0,0,3,,,,,,100.0,,,,,,,,,,,,,,,,,,,,,,,,,,,,,,,,196.5,1.491
510,,isi,,html-keyboard-response,510,297523,0.0-1.0-102.0-2.0,0,0,3,,,,,,,,,,,,,,,,,,,,,,,,,,,,,,,,,,,,,,199.5,3.0
511,,feedback,,html-keyboard-response,511,298528,0.0-1.0-102.0-3.0-0.0,0,0,3,,,,,,100.0,,,,,,,,,,,,,,,,,,,,,,,,,,,,,,,,200.5,1.0
512,,iti,,html-keyboard-response,512,298638,0.0-1.0-102.0-5.0,0,0,3,,,,,,,,,,,,,,,,,,,,,,,,,,,,,,,,,,,,,,202.0,1.5
513,,choice,,html-keyboard-response,513,298666,0.0-1.0-103.0-0.0,0,0,3,,23.0,,,50.0,101.0,101.0,1000.0,1000.0,0.0,2.0,0.0,20-60,,1.0,telescope,key chain,60.0,20.0,telescope5,key chain4,80.0,40.0,digimarc.jpg,Gumby_Green-Keychain.jpg,/static/Category_learning/Stimuli/Experimental_stims/telescope/digimarc.jpg,/static/Category_learning/Stimuli/Experimental_stims/key chain/Gumby_Green-Keychain.jpg,1.0,telescope,key chain,60.0,20.0,telescope5,key chain4,80.0,40.0,0.0,202.023,0.023
514,,confirmation,,html-keyboard-response,514,300147,0.0-1.0-103.0-1.0-0.0,0,0,3,,,,,,101.0,,,,,,,,,,,,,,,,,,,,,,,,,,,,,,,,203.5,1.477
515,,isi,,html-keyboard-response,515,300254,0.0-1.0-103.0-2.0,0,0,3,,,,,,,,,,,,,,,,,,,,,,,,,,,,,,,,,,,,,,204.5,1.0
516,,feedback,,html-keyboard-response,516,301259,0.0-1.0-103.0-3.0-0.0,0,0,3,,,,,,101.0,,,,,,,,,,,,,,,,,,,,,,,,,,,,,,,,205.5,1.0
517,,iti,,html-keyboard-response,517,301364,0.0-1.0-103.0-5.0,0,0,3,,,,,,,,,,,,,,,,,,,,,,,,,,,,,,,,,,,,,,206.5,1.0
518,,choice,,html-keyboard-response,518,301821,0.0-1.0-104.0-0.0,0,0,3,,453.0,,,50.0,102.0,102.0,3000.0,2000.0,0.0,2.0,0.0,20-80,,1.0,bongo,motorcycle,80.0,20.0,bongo2,motorcycle13,60.0,0.0,26390663.thl.jpg,2005-Buell-FireboltXB12R.jpg,/static/Category_learning/Stimuli/Experimental_stims/bongo/26390663.thl.jpg,/static/Category_learning/Stimuli/Experimental_stims/motorcycle/2005-Buell-FireboltXB12R.jpg,1.0,bongo,motorcycle,80.0,20.0,bongo2,motorcycle13,60.0,0.0,0.0,206.953,0.453
519,,confirmation,,html-keyboard-response,519,302876,0.0-1.0-104.0-1.0-0.0,0,0,3,,,,,,102.0,,,,,,,,,,,,,,,,,,,,,,,,,,,,,,,,208.0,1.047
520,,isi,,html-keyboard-response,520,302980,0.0-1.0-104.0-2.0,0,0,3,,,,,,,,,,,,,,,,,,,,,,,,,,,,,,,,,,,,,,211.0,3.0
521,,feedback,,html-keyboard-response,521,303989,0.0-1.0-104.0-3.0-0.0,0,0,3,,,,,,102.0,,,,,,,,,,,,,,,,,,,,,,,,,,,,,,,,212.0,1.0
522,,iti,,html-keyboard-response,522,304092,0.0-1.0-104.0-5.0,0,0,3,,,,,,,,,,,,,,,,,,,,,,,,,,,,,,,,,,,,,,214.0,2.0
523,,choice,,html-keyboard-response,523,305302,0.0-1.0-105.0-0.0,0,0,3,,1204.0,,,50.0,103.0,103.0,1000.0,3000.0,0.0,2.0,0.0,20-60,,0.0,microscope,tent,20.0,60.0,microscope9,tent4,20.0,60.0,AMICROS34.jpg,Atent12.jpg,/static/Category_learning/Stimuli/Experimental_stims/microscope/AMICROS34.jpg,/static/Category_learning/Stimuli/Experimental_stims/tent/Atent12.jpg,1.0,microscope,tent,20.0,60.0,microscope9,tent4,20.0,60.0,0.0,215.204,1.204
