,success,ttype,start_time,trial_type,trial_index,time_elapsed,internal_node_id,warning,missed_checkup,PID,view_history,rt,responses,repeat_instructions,key_press,index,trial_num,isi,iti,is_practice,block,old_trial,pair_type,within_category,high_cat_on_left,left_category,right_category,left_category_value,right_category_value,left_exemplar,right_exemplar,left_exemplar_value,right_exemplar_value,left_img,right_img,left_img_path,right_img_path,left_chosen,chosen_category,unchosen_category,chosen_category_value,unchosen_category_value,chosen_exemplar,unchosen_exemplar,chosen_exemplar_value,unchosen_exemplar_value,no_response,onset,duration,end_practice,total_bonus_tally,category,category_group_value,category_value_response
0,True,full_screen,d06012022hr1546,fullscreen,0,2297,0.0-0.0,0,0,32,,,,,,,,,,,,,,,,,,,,,,,,,,,,,,,,,,,,,,,,,,,,
1,,category_learning_instructions,,instructions,1,26000,0.0-1.0-0.0-0.0,0,0,32,"[{""page_index"":0,""viewing_time"":1514},{""page_index"":1,""viewing_time"":3247},{""page_index"":2,""viewing_time"":2197},{""page_index"":3,""viewing_time"":12238},{""page_index"":4,""viewing_time"":1017},{""page_index"":5,""viewing_time"":1910},{""page_index"":6,""viewing_time"":1569}]",23693.0,,,,,,,,,,,,,,,,,,,,,,,,,,,,,,,,,,,,,,,,,,
2,,category_learning_comprehension_check,,survey-multi-choice,2,31381,0.0-1.0-0.0-1.0,0,0,32,,5375.0,"{""Q0"":""True"",""Q1"":""True"",""Q2"":""Stay the same"",""Q3"":""pointer finger for left and middle finger for right""}",0.0,,,,,,,,,,,,,,,,,,,,,,,,,,,,,,,,,,,,,,,,
3,,,,html-keyboard-response,3,33929,0.0-1.0-1.0,0,0,32,,2543.0,,,50.0,,,,,,,,,,,,,,,,,,,,,,,,,,,,,,,,,,,,,,,
4,,choice,,html-keyboard-response,4,34400,0.0-1.0-2.0-0.0-0.0,0,0,32,,467.0,,,50.0,0.0,0.0,1500.0,1000.0,1.0,0.0,0.0,20-80,,0.0,bagel,dumbbell,20.0,80.0,bagel1,dumbbell1,0.0,80.0,bagels_pumpernickel_large.jpg,31B64EN68AL._AA280_.jpg,/static/Category_learning/Stimuli/Practice_stims/bagel/bagels_pumpernickel_large.jpg,/static/Category_learning/Stimuli/Practice_stims/dumbbell/31B64EN68AL._AA280_.jpg,1.0,bagel,dumbbell,20.0,80.0,bagel1,dumbbell1,0.0,80.0,0.0,0.467,0.467,,,,,
5,,confirmation,,html-keyboard-response,5,35444,0.0-1.0-2.0-0.0-1.0-0.0,0,0,32,,,,,,0.0,,,,,,,,,,,,,,,,,,,,,,,,,,,,,,,,1.5,1.033,,,,,
6,,isi,,html-keyboard-response,6,35551,0.0-1.0-2.0-0.0-2.0,0,0,32,,,,,,,,,,,,,,,,,,,,,,,,,,,,,,,,,,,,,,3.0,1.5,,,,,
7,,feedback,,html-keyboard-response,7,36558,0.0-1.0-2.0-0.0-3.0-0.0,0,0,32,,,,,,0.0,,,,,,,,,,,,,,,,,,,,,,,,,,,,,,,,4.0,1.0,,,,,
8,,iti,,html-keyboard-response,8,36664,0.0-1.0-2.0-0.0-5.0,0,0,32,,,,,,,,,,,,,,,,,,,,,,,,,,,,,,,,,,,,,,5.0,1.0,,,,,
9,,choice,,html-keyboard-response,9,36855,0.0-1.0-3.0-0.0-0.0,0,0,32,,186.0,,,50.0,1.0,1.0,3000.0,1500.0,1.0,0.0,0.0,20-40,,1.0,calculator,bagel,40.0,20.0,calculator2,bagel2,20.0,20.0,22829064.thl.jpg,bagels_cinnraisin_large.jpg,/static/Category_learning/Stimuli/Practice_stims/calculator/22829064.thl.jpg,/static/Category_learning/Stimuli/Practice_stims/bagel/bagels_cinnraisin_large.jpg,1.0,calculator,bagel,40.0,20.0,calculator2,bagel2,20.0,20.0,0.0,5.186,0.186,,,,,
10,,confirmation,,html-keyboard-response,10,38177,0.0-1.0-3.0-0.0-1.0-0.0,0,0,32,,,,,,1.0,,,,,,,,,,,,,,,,,,,,,,,,,,,,,,,,6.5,1.314,,,,,
11,,isi,,html-keyboard-response,11,38285,0.0-1.0-3.0-0.0-2.0,0,0,32,,,,,,,,,,,,,,,,,,,,,,,,,,,,,,,,,,,,,,9.5,3.0,,,,,
12,,feedback,,html-keyboard-response,12,39292,0.0-1.0-3.0-0.0-3.0-0.0,0,0,32,,,,,,1.0,,,,,,,,,,,,,,,,,,,,,,,,,,,,,,,,10.5,1.0,,,,,
13,,iti,,html-keyboard-response,13,39398,0.0-1.0-3.0-0.0-5.0,0,0,32,,,,,,,,,,,,,,,,,,,,,,,,,,,,,,,,,,,,,,12.0,1.5,,,,,
14,,choice,,html-keyboard-response,14,39591,0.0-1.0-4.0-0.0-0.0,0,0,32,,190.0,,,50.0,2.0,2.0,2000.0,3000.0,1.0,0.0,0.0,60-80,,0.0,clock,dumbbell,60.0,80.0,clock2,dumbbell2,60.0,100.0,26373355.thl.jpg,31K8MR6TMBL._SS500_.jpg,/static/Category_learning/Stimuli/Practice_stims/clock/26373355.thl.jpg,/static/Category_learning/Stimuli/Practice_stims/dumbbell/31K8MR6TMBL._SS500_.jpg,1.0,clock,dumbbell,60.0,80.0,clock2,dumbbell2,60.0,100.0,0.0,12.19,0.19,,,,,
15,,confirmation,,html-keyboard-response,15,40907,0.0-1.0-4.0-0.0-1.0-0.0,0,0,32,,,,,,2.0,,,,,,,,,,,,,,,,,,,,,,,,,,,,,,,,13.5,1.31,,,,,
16,,isi,,html-keyboard-response,16,41011,0.0-1.0-4.0-0.0-2.0,0,0,32,,,,,,,,,,,,,,,,,,,,,,,,,,,,,,,,,,,,,,15.5,2.0,,,,,
17,,feedback,,html-keyboard-response,17,42017,0.0-1.0-4.0-0.0-3.0-0.0,0,0,32,,,,,,2.0,,,,,,,,,,,,,,,,,,,,,,,,,,,,,,,,16.5,1.0,,,,,
18,,iti,,html-keyboard-response,18,42122,0.0-1.0-4.0-0.0-5.0,0,0,32,,,,,,,,,,,,,,,,,,,,,,,,,,,,,,,,,,,,,,19.5,3.0,,,,,
19,,choice,,html-keyboard-response,19,42339,0.0-1.0-5.0-0.0-0.0,0,0,32,,214.0,,,50.0,3.0,3.0,1000.0,2000.0,1.0,0.0,0.0,40-80,,0.0,calculator,clock,40.0,60.0,calculator1,clock1,40.0,40.0,22829184.thl.jpg,Aalarmclock2.jpg,/static/Category_learning/Stimuli/Practice_stims/calculator/22829184.thl.jpg,/static/Category_learning/Stimuli/Practice_stims/clock/Aalarmclock2.jpg,1.0,calculator,clock,40.0,60.0,calculator1,clock1,40.0,40.0,0.0,19.714,0.214,,,,,
20,,confirmation,,html-keyboard-response,20,43630,0.0-1.0-5.0-0.0-1.0-0.0,0,0,32,,,,,,3.0,,,,,,,,,,,,,,,,,,,,,,,,,,,,,,,,21.0,1.286,,,,,
21,,isi,,html-keyboard-response,21,43736,0.0-1.0-5.0-0.0-2.0,0,0,32,,,,,,,,,,,,,,,,,,,,,,,,,,,,,,,,,,,,,,22.0,1.0,,,,,
22,,feedback,,html-keyboard-response,22,44745,0.0-1.0-5.0-0.0-3.0-0.0,0,0,32,,,,,,3.0,,,,,,,,,,,,,,,,,,,,,,,,,,,,,,,,23.0,1.0,,,,,
23,,iti,,html-keyboard-response,23,44852,0.0-1.0-5.0-0.0-5.0,0,0,32,,,,,,,,,,,,,,,,,,,,,,,,,,,,,,,,,,,,,,25.0,2.0,,,,,
24,,choice,,html-keyboard-response,24,44876,0.0-1.0-6.0-0.0-0.0,0,0,32,,22.0,,,50.0,4.0,4.0,2500.0,2500.0,1.0,0.0,0.0,20-60,,1.0,dumbbell,bagel,80.0,20.0,dumbbell3,bagel3,100.0,40.0,41K7QVRX50L._SS500_.jpg,photo-169.jpg,/static/Category_learning/Stimuli/Practice_stims/dumbbell/41K7QVRX50L._SS500_.jpg,/static/Category_learning/Stimuli/Practice_stims/bagel/photo-169.jpg,1.0,dumbbell,bagel,80.0,20.0,dumbbell3,bagel3,100.0,40.0,0.0,25.022,0.022,1.0,,,,
25,,confirmation,,html-keyboard-response,25,46359,0.0-1.0-6.0-0.0-1.0-0.0,0,0,32,,,,,,4.0,,,,,,,,,,,,,,,,,,,,,,,,,,,,,,,,26.5,1.478,,,,,
26,,isi,,html-keyboard-response,26,46466,0.0-1.0-6.0-0.0-2.0,0,0,32,,,,,,,,,,,,,,,,,,,,,,,,,,,,,,,,,,,,,,29.0,2.5,,,,,
27,,feedback,,html-keyboard-response,27,47474,0.0-1.0-6.0-0.0-3.0-0.0,0,0,32,,,,,,4.0,,,,,,,,,,,,,,,,,,,,,,,,,,,,,,,,30.0,1.0,,,,,
28,,iti,,html-keyboard-response,28,47581,0.0-1.0-6.0-0.0-5.0,0,0,32,,,,,,,,,,,,,,,,,,,,,,,,,,,,,,,,,,,,,,32.5,2.5,,,,,
29,,practice_over,,html-keyboard-response,29,47718,0.0-1.0-6.0-0.0-6.0-0.0,0,0,32,,134.0,,,50.0,4.0,,,,,,,,,,,,,,,,,,,,,,,,,,,,,,,,,,,,,,
30,,start_run,,html-keyboard-response,30,50949,0.0-1.0-6.0-0.0-6.0-1.0,0,0,32,,3229.0,,,84.0,,,,,,,,,,,,,,,,,,,,,,,,,,,,,,,,,,,,,,,
31,,choice,,html-keyboard-response,31,51334,0.0-1.0-7.0-0.0-0.0,0,0,32,,382.0,,,50.0,5.0,305.0,1500.0,3000.0,0.0,6.0,0.0,20-20,,,flashlight,dresser,20.0,20.0,flashlight11,dresser15,40.0,20.0,new04.jpg,ADRESSE77.jpg,/static/Category_learning/Stimuli/Experimental_stims/flashlight/new04.jpg,/static/Category_learning/Stimuli/Experimental_stims/dresser/ADRESSE77.jpg,1.0,flashlight,dresser,20.0,20.0,flashlight11,dresser15,40.0,20.0,0.0,0.382,0.382,,,,,
32,,confirmation,,html-keyboard-response,32,52458,0.0-1.0-7.0-0.0-1.0-0.0,0,0,32,,,,,,5.0,,,,,,,,,,,,,,,,,,,,,,,,,,,,,,,,1.5,1.118,,,,,
33,,isi,,html-keyboard-response,33,52564,0.0-1.0-7.0-0.0-2.0,0,0,32,,,,,,,,,,,,,,,,,,,,,,,,,,,,,,,,,,,,,,3.0,1.5,,,,,
34,,feedback,,html-keyboard-response,34,53571,0.0-1.0-7.0-0.0-3.0-0.0,0,0,32,,,,,,5.0,,,,,,,,,,,,,,,,,,,,,,,,,,,,,,,,4.0,1.0,,,,,
35,,iti,,html-keyboard-response,35,53677,0.0-1.0-7.0-0.0-5.0,0,0,32,,,,,,,,,,,,,,,,,,,,,,,,,,,,,,,,,,,,,,7.0,3.0,,,,,
36,,choice,,html-keyboard-response,36,53822,0.0-1.0-8.0-0.0-0.0,0,0,32,,142.0,,,51.0,6.0,306.0,1000.0,3500.0,0.0,6.0,0.0,40-40,,,microscope,lipstick,40.0,40.0,microscope2,lipstick5,40.0,20.0,3090-b.jpg,P35719_hero.jpg,/static/Category_learning/Stimuli/Experimental_stims/microscope/3090-b.jpg,/static/Category_learning/Stimuli/Experimental_stims/lipstick/P35719_hero.jpg,0.0,lipstick,microscope,40.0,40.0,lipstick5,microscope2,20.0,40.0,0.0,7.142,0.142,,,,,
37,,confirmation,,html-keyboard-response,37,55185,0.0-1.0-8.0-0.0-1.0-0.0,0,0,32,,,,,,6.0,,,,,,,,,,,,,,,,,,,,,,,,,,,,,,,,8.5,1.358,,,,,
38,,isi,,html-keyboard-response,38,55289,0.0-1.0-8.0-0.0-2.0,0,0,32,,,,,,,,,,,,,,,,,,,,,,,,,,,,,,,,,,,,,,9.5,1.0,,,,,
39,,feedback,,html-keyboard-response,39,56294,0.0-1.0-8.0-0.0-3.0-0.0,0,0,32,,,,,,6.0,,,,,,,,,,,,,,,,,,,,,,,,,,,,,,,,10.5,1.0,,,,,
40,,iti,,html-keyboard-response,40,56400,0.0-1.0-8.0-0.0-5.0,0,0,32,,,,,,,,,,,,,,,,,,,,,,,,,,,,,,,,,,,,,,14.0,3.5,,,,,
41,,choice,,html-keyboard-response,41,56436,0.0-1.0-9.0-0.0-0.0,0,0,32,,33.0,,,51.0,7.0,307.0,3500.0,1500.0,0.0,6.0,0.0,60-80,,1.0,train,nail polish,80.0,60.0,train10,nail polish10,100.0,80.0,train3.jpg,NLM23_opi_nail_polish.jpg,/static/Category_learning/Stimuli/Experimental_stims/train/train3.jpg,/static/Category_learning/Stimuli/Experimental_stims/nail polish/NLM23_opi_nail_polish.jpg,0.0,nail polish,train,60.0,80.0,nail polish10,train10,80.0,100.0,0.0,14.033,0.033,,,,,
42,,confirmation,,html-keyboard-response,42,57910,0.0-1.0-9.0-0.0-1.0-0.0,0,0,32,,,,,,7.0,,,,,,,,,,,,,,,,,,,,,,,,,,,,,,,,15.5,1.467,,,,,
43,,isi,,html-keyboard-response,43,58018,0.0-1.0-9.0-0.0-2.0,0,0,32,,,,,,,,,,,,,,,,,,,,,,,,,,,,,,,,,,,,,,19.0,3.5,,,,,
44,,feedback,,html-keyboard-response,44,59022,0.0-1.0-9.0-0.0-3.0-0.0,0,0,32,,,,,,7.0,,,,,,,,,,,,,,,,,,,,,,,,,,,,,,,,20.0,1.0,,,,,
45,,iti,,html-keyboard-response,45,59129,0.0-1.0-9.0-0.0-5.0,0,0,32,,,,,,,,,,,,,,,,,,,,,,,,,,,,,,,,,,,,,,21.5,1.5,,,,,
46,,choice,,html-keyboard-response,46,59455,0.0-1.0-10.0-0.0-0.0,0,0,32,,322.0,,,51.0,8.0,308.0,1000.0,2000.0,0.0,6.0,0.0,40-60,,1.0,sofa,key chain,60.0,40.0,sofa5,key chain12,60.0,40.0,ALOVSEA14.jpg,keychain.jpg,/static/Category_learning/Stimuli/Experimental_stims/sofa/ALOVSEA14.jpg,/static/Category_learning/Stimuli/Experimental_stims/key chain/keychain.jpg,0.0,key chain,sofa,40.0,60.0,key chain12,sofa5,40.0,60.0,0.0,21.822,0.322,,,,,
47,,confirmation,,html-keyboard-response,47,60638,0.0-1.0-10.0-0.0-1.0-0.0,0,0,32,,,,,,8.0,,,,,,,,,,,,,,,,,,,,,,,,,,,,,,,,23.0,1.178,,,,,
48,,isi,,html-keyboard-response,48,60745,0.0-1.0-10.0-0.0-2.0,0,0,32,,,,,,,,,,,,,,,,,,,,,,,,,,,,,,,,,,,,,,24.0,1.0,,,,,
49,,feedback,,html-keyboard-response,49,61751,0.0-1.0-10.0-0.0-3.0-0.0,0,0,32,,,,,,8.0,,,,,,,,,,,,,,,,,,,,,,,,,,,,,,,,25.0,1.0,,,,,
50,,iti,,html-keyboard-response,50,61857,0.0-1.0-10.0-0.0-5.0,0,0,32,,,,,,,,,,,,,,,,,,,,,,,,,,,,,,,,,,,,,,27.0,2.0,,,,,
51,,choice,,html-keyboard-response,51,62093,0.0-1.0-11.0-0.0-0.0,0,0,32,,234.0,,,51.0,9.0,309.0,2000.0,3500.0,0.0,6.0,0.0,20-60,,0.0,bench,patio lounge chair,20.0,60.0,bench11,patio lounge chair11,40.0,80.0,22928468.thl.jpg,51830.jpg,/static/Category_learning/Stimuli/Experimental_stims/bench/22928468.thl.jpg,/static/Category_learning/Stimuli/Experimental_stims/patio lounge chair/51830.jpg,0.0,patio lounge chair,bench,60.0,20.0,patio lounge chair11,bench11,80.0,40.0,0.0,27.234,0.234,,,,,
52,,confirmation,,html-keyboard-response,52,63367,0.0-1.0-11.0-0.0-1.0-0.0,0,0,32,,,,,,9.0,,,,,,,,,,,,,,,,,,,,,,,,,,,,,,,,28.5,1.266,,,,,
53,,isi,,html-keyboard-response,53,63473,0.0-1.0-11.0-0.0-2.0,0,0,32,,,,,,,,,,,,,,,,,,,,,,,,,,,,,,,,,,,,,,30.5,2.0,,,,,
54,,feedback,,html-keyboard-response,54,64477,0.0-1.0-11.0-0.0-3.0-0.0,0,0,32,,,,,,9.0,,,,,,,,,,,,,,,,,,,,,,,,,,,,,,,,31.5,1.0,,,,,
55,,iti,,html-keyboard-response,55,64584,0.0-1.0-11.0-0.0-5.0,0,0,32,,,,,,,,,,,,,,,,,,,,,,,,,,,,,,,,,,,,,,35.0,3.5,,,,,
56,,choice,,html-keyboard-response,56,64746,0.0-1.0-12.0-0.0-0.0,0,0,32,,157.0,,,51.0,10.0,310.0,1000.0,1000.0,0.0,6.0,1.0,40-60,0.0,,patio lounge chair,lipstick,60.0,40.0,patio lounge chair11,lipstick5,80.0,20.0,51830.jpg,P35719_hero.jpg,/static/Category_learning/Stimuli/Experimental_stims/patio lounge chair/51830.jpg,/static/Category_learning/Stimuli/Experimental_stims/lipstick/P35719_hero.jpg,0.0,lipstick,patio lounge chair,40.0,60.0,lipstick5,patio lounge chair11,20.0,80.0,0.0,35.157,0.157,,,,,
57,,confirmation,,html-keyboard-response,57,66095,0.0-1.0-12.0-0.0-1.0-0.0,0,0,32,,,,,,10.0,,,,,,,,,,,,,,,,,,,,,,,,,,,,,,,,36.5,1.343,,,,,
58,,isi,,html-keyboard-response,58,66201,0.0-1.0-12.0-0.0-2.0,0,0,32,,,,,,,,,,,,,,,,,,,,,,,,,,,,,,,,,,,,,,37.5,1.0,,,,,
59,,feedback,,html-keyboard-response,59,67209,0.0-1.0-12.0-0.0-3.0-0.0,0,0,32,,,,,,10.0,,,,,,,,,,,,,,,,,,,,,,,,,,,,,,,,38.5,1.0,,,,,
60,,iti,,html-keyboard-response,60,67316,0.0-1.0-12.0-0.0-5.0,0,0,32,,,,,,,,,,,,,,,,,,,,,,,,,,,,,,,,,,,,,,39.5,1.0,,,,,
61,,choice,,html-keyboard-response,61,67486,0.0-1.0-13.0-0.0-0.0,0,0,32,,166.0,,,51.0,11.0,311.0,1500.0,2000.0,0.0,6.0,1.0,20-60,0.0,,flashlight,nail polish,20.0,60.0,flashlight11,nail polish10,40.0,80.0,new04.jpg,NLM23_opi_nail_polish.jpg,/static/Category_learning/Stimuli/Experimental_stims/flashlight/new04.jpg,/static/Category_learning/Stimuli/Experimental_stims/nail polish/NLM23_opi_nail_polish.jpg,0.0,nail polish,flashlight,60.0,20.0,nail polish10,flashlight11,80.0,40.0,0.0,39.666,0.166,,,,,
62,,confirmation,,html-keyboard-response,62,68828,0.0-1.0-13.0-0.0-1.0-0.0,0,0,32,,,,,,11.0,,,,,,,,,,,,,,,,,,,,,,,,,,,,,,,,41.0,1.334,,,,,
63,,isi,,html-keyboard-response,63,68936,0.0-1.0-13.0-0.0-2.0,0,0,32,,,,,,,,,,,,,,,,,,,,,,,,,,,,,,,,,,,,,,42.5,1.5,,,,,
64,,feedback,,html-keyboard-response,64,69942,0.0-1.0-13.0-0.0-3.0-0.0,0,0,32,,,,,,11.0,,,,,,,,,,,,,,,,,,,,,,,,,,,,,,,,43.5,1.0,,,,,
65,,iti,,html-keyboard-response,65,70047,0.0-1.0-13.0-0.0-5.0,0,0,32,,,,,,,,,,,,,,,,,,,,,,,,,,,,,,,,,,,,,,45.5,2.0,,,,,
66,,choice,,html-keyboard-response,66,70318,0.0-1.0-14.0-0.0-0.0,0,0,32,,268.0,,,51.0,12.0,312.0,1500.0,1000.0,0.0,6.0,0.0,40-60,,0.0,key chain,necklace,40.0,60.0,key chain6,necklace1,40.0,80.0,highboy_keychain_ItemCA75384.jpg,26443173.thl.jpg,/static/Category_learning/Stimuli/Experimental_stims/key chain/highboy_keychain_ItemCA75384.jpg,/static/Category_learning/Stimuli/Experimental_stims/necklace/26443173.thl.jpg,0.0,necklace,key chain,60.0,40.0,necklace1,key chain6,80.0,40.0,0.0,45.768,0.268,,,,,
67,,confirmation,,html-keyboard-response,67,71558,0.0-1.0-14.0-0.0-1.0-0.0,0,0,32,,,,,,12.0,,,,,,,,,,,,,,,,,,,,,,,,,,,,,,,,47.0,1.232,,,,,
68,,isi,,html-keyboard-response,68,71663,0.0-1.0-14.0-0.0-2.0,0,0,32,,,,,,,,,,,,,,,,,,,,,,,,,,,,,,,,,,,,,,48.5,1.5,,,,,
69,,feedback,,html-keyboard-response,69,72670,0.0-1.0-14.0-0.0-3.0-0.0,0,0,32,,,,,,12.0,,,,,,,,,,,,,,,,,,,,,,,,,,,,,,,,49.5,1.0,,,,,
70,,iti,,html-keyboard-response,70,72776,0.0-1.0-14.0-0.0-5.0,0,0,32,,,,,,,,,,,,,,,,,,,,,,,,,,,,,,,,,,,,,,50.5,1.0,,,,,
71,,choice,,html-keyboard-response,71,72998,0.0-1.0-15.0-0.0-0.0,0,0,32,,219.0,,,51.0,13.0,313.0,1000.0,1500.0,0.0,6.0,0.0,40-80,,1.0,tent,microscope,80.0,40.0,tent5,microscope10,100.0,20.0,Dome Tentnb87r67.jpg,DS-2.jpg,/static/Category_learning/Stimuli/Experimental_stims/tent/Dome Tentnb87r67.jpg,/static/Category_learning/Stimuli/Experimental_stims/microscope/DS-2.jpg,0.0,microscope,tent,40.0,80.0,microscope10,tent5,20.0,100.0,0.0,50.719,0.219,,,,,
72,,confirmation,,html-keyboard-response,72,74286,0.0-1.0-15.0-0.0-1.0-0.0,0,0,32,,,,,,13.0,,,,,,,,,,,,,,,,,,,,,,,,,,,,,,,,52.0,1.281,,,,,
73,,isi,,html-keyboard-response,73,74393,0.0-1.0-15.0-0.0-2.0,0,0,32,,,,,,,,,,,,,,,,,,,,,,,,,,,,,,,,,,,,,,53.0,1.0,,,,,
74,,feedback,,html-keyboard-response,74,75400,0.0-1.0-15.0-0.0-3.0-0.0,0,0,32,,,,,,13.0,,,,,,,,,,,,,,,,,,,,,,,,,,,,,,,,54.0,1.0,,,,,
75,,iti,,html-keyboard-response,75,75503,0.0-1.0-15.0-0.0-5.0,0,0,32,,,,,,,,,,,,,,,,,,,,,,,,,,,,,,,,,,,,,,55.5,1.5,,,,,
76,,choice,,html-keyboard-response,76,75990,0.0-1.0-16.0-0.0-0.0,0,0,32,,484.0,,,51.0,14.0,314.0,1000.0,1500.0,0.0,6.0,0.0,60-80,,1.0,tape,poker card,80.0,60.0,tape14,poker card1,60.0,40.0,922544.jpg,22864704.thl.jpg,/static/Category_learning/Stimuli/Experimental_stims/tape/922544.jpg,/static/Category_learning/Stimuli/Experimental_stims/poker card/22864704.thl.jpg,0.0,poker card,tape,60.0,80.0,poker card1,tape14,40.0,60.0,0.0,55.984,0.484,,,,,
77,,confirmation,,html-keyboard-response,77,77012,0.0-1.0-16.0-0.0-1.0-0.0,0,0,32,,,,,,14.0,,,,,,,,,,,,,,,,,,,,,,,,,,,,,,,,57.0,1.016,,,,,
78,,isi,,html-keyboard-response,78,77119,0.0-1.0-16.0-0.0-2.0,0,0,32,,,,,,,,,,,,,,,,,,,,,,,,,,,,,,,,,,,,,,58.0,1.0,,,,,
79,,feedback,,html-keyboard-response,79,78127,0.0-1.0-16.0-0.0-3.0-0.0,0,0,32,,,,,,14.0,,,,,,,,,,,,,,,,,,,,,,,,,,,,,,,,59.0,1.0,,,,,
80,,iti,,html-keyboard-response,80,78234,0.0-1.0-16.0-0.0-5.0,0,0,32,,,,,,,,,,,,,,,,,,,,,,,,,,,,,,,,,,,,,,60.5,1.5,,,,,
81,,choice,,html-keyboard-response,81,78893,0.0-1.0-17.0-0.0-0.0,0,0,32,,656.0,,,51.0,15.0,315.0,1000.0,1000.0,0.0,6.0,0.0,60-60,,,small table,seashell,60.0,60.0,small table2,seashell8,60.0,40.0,Atable126.jpg,ASEASHEL9.jpg,/static/Category_learning/Stimuli/Experimental_stims/small table/Atable126.jpg,/static/Category_learning/Stimuli/Experimental_stims/seashell/ASEASHEL9.jpg,0.0,seashell,small table,60.0,60.0,seashell8,small table2,40.0,60.0,0.0,61.156,0.656,,,,,
82,,confirmation,,html-keyboard-response,82,79741,0.0-1.0-17.0-0.0-1.0-0.0,0,0,32,,,,,,15.0,,,,,,,,,,,,,,,,,,,,,,,,,,,,,,,,62.0,0.844,,,,,
83,,isi,,html-keyboard-response,83,79849,0.0-1.0-17.0-0.0-2.0,0,0,32,,,,,,,,,,,,,,,,,,,,,,,,,,,,,,,,,,,,,,63.0,1.0,,,,,
84,,feedback,,html-keyboard-response,84,80857,0.0-1.0-17.0-0.0-3.0-0.0,0,0,32,,,,,,15.0,,,,,,,,,,,,,,,,,,,,,,,,,,,,,,,,64.0,1.0,,,,,
85,,iti,,html-keyboard-response,85,80963,0.0-1.0-17.0-0.0-5.0,0,0,32,,,,,,,,,,,,,,,,,,,,,,,,,,,,,,,,,,,,,,65.0,1.0,,,,,
86,,choice,,html-keyboard-response,86,80989,0.0-1.0-18.0-0.0-0.0,0,0,32,,24.0,,,51.0,16.0,316.0,1500.0,1000.0,0.0,6.0,1.0,60-60,0.0,,seashell,necklace,60.0,60.0,seashell8,necklace1,40.0,80.0,ASEASHEL9.jpg,26443173.thl.jpg,/static/Category_learning/Stimuli/Experimental_stims/seashell/ASEASHEL9.jpg,/static/Category_learning/Stimuli/Experimental_stims/necklace/26443173.thl.jpg,0.0,necklace,seashell,60.0,60.0,necklace1,seashell8,80.0,40.0,0.0,65.024,0.024,,,,,
87,,confirmation,,html-keyboard-response,87,82474,0.0-1.0-18.0-0.0-1.0-0.0,0,0,32,,,,,,16.0,,,,,,,,,,,,,,,,,,,,,,,,,,,,,,,,66.5,1.476,,,,,
88,,isi,,html-keyboard-response,88,82580,0.0-1.0-18.0-0.0-2.0,0,0,32,,,,,,,,,,,,,,,,,,,,,,,,,,,,,,,,,,,,,,68.0,1.5,,,,,
89,,feedback,,html-keyboard-response,89,83588,0.0-1.0-18.0-0.0-3.0-0.0,0,0,32,,,,,,16.0,,,,,,,,,,,,,,,,,,,,,,,,,,,,,,,,69.0,1.0,,,,,
90,,iti,,html-keyboard-response,90,83694,0.0-1.0-18.0-0.0-5.0,0,0,32,,,,,,,,,,,,,,,,,,,,,,,,,,,,,,,,,,,,,,70.0,1.0,,,,,
91,,choice,,html-keyboard-response,91,84162,0.0-1.0-19.0-0.0-0.0,0,0,32,,466.0,,,51.0,17.0,317.0,2000.0,2000.0,0.0,6.0,0.0,20-60,,1.0,nail polish,bowl,60.0,20.0,nail polish7,bowl10,40.0,0.0,117BDAkbo5L._AA160_.jpg,Abowl50.jpg,/static/Category_learning/Stimuli/Experimental_stims/nail polish/117BDAkbo5L._AA160_.jpg,/static/Category_learning/Stimuli/Experimental_stims/bowl/Abowl50.jpg,0.0,bowl,nail polish,20.0,60.0,bowl10,nail polish7,0.0,40.0,0.0,70.466,0.466,,,,,
92,,confirmation,,html-keyboard-response,92,85202,0.0-1.0-19.0-0.0-1.0-0.0,0,0,32,,,,,,17.0,,,,,,,,,,,,,,,,,,,,,,,,,,,,,,,,71.5,1.034,,,,,
93,,isi,,html-keyboard-response,93,85308,0.0-1.0-19.0-0.0-2.0,0,0,32,,,,,,,,,,,,,,,,,,,,,,,,,,,,,,,,,,,,,,73.5,2.0,,,,,
94,,feedback,,html-keyboard-response,94,86315,0.0-1.0-19.0-0.0-3.0-0.0,0,0,32,,,,,,17.0,,,,,,,,,,,,,,,,,,,,,,,,,,,,,,,,74.5,1.0,,,,,
95,,iti,,html-keyboard-response,95,86420,0.0-1.0-19.0-0.0-5.0,0,0,32,,,,,,,,,,,,,,,,,,,,,,,,,,,,,,,,,,,,,,76.5,2.0,,,,,
96,,choice,,html-keyboard-response,96,86751,0.0-1.0-20.0-0.0-0.0,0,0,32,,327.0,,,51.0,18.0,318.0,1000.0,1000.0,0.0,6.0,0.0,20-80,,1.0,trumpet,flashlight,80.0,20.0,trumpet4,flashlight13,60.0,0.0,JUPITER+JTR1000S.jpg,834808_sk_lg.jpg,/static/Category_learning/Stimuli/Experimental_stims/trumpet/JUPITER+JTR1000S.jpg,/static/Category_learning/Stimuli/Experimental_stims/flashlight/834808_sk_lg.jpg,0.0,flashlight,trumpet,20.0,80.0,flashlight13,trumpet4,0.0,60.0,0.0,76.827,0.327,,,,,
97,,confirmation,,html-keyboard-response,97,87929,0.0-1.0-20.0-0.0-1.0-0.0,0,0,32,,,,,,18.0,,,,,,,,,,,,,,,,,,,,,,,,,,,,,,,,78.0,1.173,,,,,
98,,isi,,html-keyboard-response,98,88034,0.0-1.0-20.0-0.0-2.0,0,0,32,,,,,,,,,,,,,,,,,,,,,,,,,,,,,,,,,,,,,,79.0,1.0,,,,,
99,,feedback,,html-keyboard-response,99,89041,0.0-1.0-20.0-0.0-3.0-0.0,0,0,32,,,,,,18.0,,,,,,,,,,,,,,,,,,,,,,,,,,,,,,,,80.0,1.0,,,,,
100,,iti,,html-keyboard-response,100,89145,0.0-1.0-20.0-0.0-5.0,0,0,32,,,,,,,,,,,,,,,,,,,,,,,,,,,,,,,,,,,,,,81.0,1.0,,,,,
101,,choice,,html-keyboard-response,101,89239,0.0-1.0-21.0-0.0-0.0,0,0,32,,91.0,,,51.0,19.0,319.0,1000.0,2000.0,0.0,6.0,0.0,80-80,,,vase,telescope,80.0,80.0,vase8,telescope10,60.0,100.0,Avase171.jpg,digimarc.ms02.jpg,/static/Category_learning/Stimuli/Experimental_stims/vase/Avase171.jpg,/static/Category_learning/Stimuli/Experimental_stims/telescope/digimarc.ms02.jpg,0.0,telescope,vase,80.0,80.0,telescope10,vase8,100.0,60.0,0.0,81.091,0.091,,,,,
102,,confirmation,,html-keyboard-response,102,90656,0.0-1.0-21.0-0.0-1.0-0.0,0,0,32,,,,,,19.0,,,,,,,,,,,,,,,,,,,,,,,,,,,,,,,,82.5,1.409,,,,,
103,,isi,,html-keyboard-response,103,90761,0.0-1.0-21.0-0.0-2.0,0,0,32,,,,,,,,,,,,,,,,,,,,,,,,,,,,,,,,,,,,,,83.5,1.0,,,,,
104,,feedback,,html-keyboard-response,104,91769,0.0-1.0-21.0-0.0-3.0-0.0,0,0,32,,,,,,19.0,,,,,,,,,,,,,,,,,,,,,,,,,,,,,,,,84.5,1.0,,,,,
105,,iti,,html-keyboard-response,105,91876,0.0-1.0-21.0-0.0-5.0,0,0,32,,,,,,,,,,,,,,,,,,,,,,,,,,,,,,,,,,,,,,86.5,2.0,,,,,
106,,choice,,html-keyboard-response,106,91896,0.0-1.0-22.0-0.0-0.0,0,0,32,,16.0,,,51.0,20.0,320.0,1000.0,1000.0,0.0,6.0,0.0,40-80,,0.0,frame,telescope,40.0,80.0,frame15,telescope2,20.0,100.0,AFRAME13.jpg,Brass-telescope-60700.jpg,/static/Category_learning/Stimuli/Experimental_stims/frame/AFRAME13.jpg,/static/Category_learning/Stimuli/Experimental_stims/telescope/Brass-telescope-60700.jpg,0.0,telescope,frame,80.0,40.0,telescope2,frame15,100.0,20.0,0.0,86.516,0.016,,,,,
107,,confirmation,,html-keyboard-response,107,93384,0.0-1.0-22.0-0.0-1.0-0.0,0,0,32,,,,,,20.0,,,,,,,,,,,,,,,,,,,,,,,,,,,,,,,,88.0,1.484,,,,,
108,,isi,,html-keyboard-response,108,93489,0.0-1.0-22.0-0.0-2.0,0,0,32,,,,,,,,,,,,,,,,,,,,,,,,,,,,,,,,,,,,,,89.0,1.0,,,,,
109,,feedback,,html-keyboard-response,109,94493,0.0-1.0-22.0-0.0-3.0-0.0,0,0,32,,,,,,20.0,,,,,,,,,,,,,,,,,,,,,,,,,,,,,,,,90.0,1.0,,,,,
110,,iti,,html-keyboard-response,110,94601,0.0-1.0-22.0-0.0-5.0,0,0,32,,,,,,,,,,,,,,,,,,,,,,,,,,,,,,,,,,,,,,91.0,1.0,,,,,
111,,choice,,html-keyboard-response,111,94696,0.0-1.0-23.0-0.0-0.0,0,0,32,,91.0,,,51.0,21.0,321.0,1500.0,1500.0,0.0,6.0,0.0,40-40,,,license plate,makeup compact,40.0,40.0,license plate15,makeup compact14,40.0,60.0,hi-hwr-837.jpg,262597_fpx.jpg,/static/Category_learning/Stimuli/Experimental_stims/license plate/hi-hwr-837.jpg,/static/Category_learning/Stimuli/Experimental_stims/makeup compact/262597_fpx.jpg,0.0,makeup compact,license plate,40.0,40.0,makeup compact14,license plate15,60.0,40.0,0.0,91.091,0.091,,,,,
112,,confirmation,,html-keyboard-response,112,96108,0.0-1.0-23.0-0.0-1.0-0.0,0,0,32,,,,,,21.0,,,,,,,,,,,,,,,,,,,,,,,,,,,,,,,,92.5,1.409,,,,,
113,,isi,,html-keyboard-response,113,96213,0.0-1.0-23.0-0.0-2.0,0,0,32,,,,,,,,,,,,,,,,,,,,,,,,,,,,,,,,,,,,,,94.0,1.5,,,,,
114,,feedback,,html-keyboard-response,114,97219,0.0-1.0-23.0-0.0-3.0-0.0,0,0,32,,,,,,21.0,,,,,,,,,,,,,,,,,,,,,,,,,,,,,,,,95.0,1.0,,,,,
115,,iti,,html-keyboard-response,115,97327,0.0-1.0-23.0-0.0-5.0,0,0,32,,,,,,,,,,,,,,,,,,,,,,,,,,,,,,,,,,,,,,96.5,1.5,,,,,
116,,choice,,html-keyboard-response,116,98836,0.0-1.0-24.0-0.0-0.0,0,0,32,,,,,,22.0,322.0,3500.0,1500.0,0.0,6.0,0.0,20-40,,1.0,hat,baby carriage,40.0,20.0,hat15,baby carriage7,40.0,0.0,AFISHHAT2.jpg,26423282.thl.jpg,/static/Category_learning/Stimuli/Experimental_stims/hat/AFISHHAT2.jpg,/static/Category_learning/Stimuli/Experimental_stims/baby carriage/26423282.thl.jpg,,,,,,,,,,1.0,98.0,1.5,,,,,
117,,isi,,html-keyboard-response,117,98942,0.0-1.0-24.0-0.0-2.0,0,0,32,,,,,,,,,,,,,,,,,,,,,,,,,,,,,,,,,,,,,,101.5,3.5,,,,,
118,,no_response,,html-keyboard-response,118,99945,0.0-1.0-24.0-0.0-4.0-0.0,1,0,32,,,,,,,,,,,,,,,,,,,,,,,,,,,,,,,,,,,,,,102.5,1.0,,,,,
119,,iti,,html-keyboard-response,119,100073,0.0-1.0-24.0-0.0-5.0,0,0,32,,,,,,,,,,,,,,,,,,,,,,,,,,,,,,,,,,,,,,104.0,1.5,,,,,
120,,choice,,html-keyboard-response,120,100519,0.0-1.0-24.0-0.1-0.1,0,0,32,,442.0,,,51.0,22.0,322.0,3500.0,1500.0,0.0,6.0,0.0,20-40,,1.0,hat,baby carriage,40.0,20.0,hat15,baby carriage7,40.0,0.0,AFISHHAT2.jpg,26423282.thl.jpg,/static/Category_learning/Stimuli/Experimental_stims/hat/AFISHHAT2.jpg,/static/Category_learning/Stimuli/Experimental_stims/baby carriage/26423282.thl.jpg,0.0,baby carriage,hat,20.0,40.0,baby carriage7,hat15,0.0,40.0,0.0,104.442,0.442,,,,,
121,,confirmation,,html-keyboard-response,121,101580,0.0-1.0-24.0-0.1-1.1-0.1,0,0,32,,,,,,22.0,,,,,,,,,,,,,,,,,,,,,,,,,,,,,,,,105.5,1.058,,,,,
122,,isi,,html-keyboard-response,122,101686,0.0-1.0-24.0-0.1-2.1,0,0,32,,,,,,,,,,,,,,,,,,,,,,,,,,,,,,,,,,,,,,107.5,2.0,,,,,
123,,feedback,,html-keyboard-response,123,102689,0.0-1.0-24.0-0.1-3.1-0.1,0,0,32,,,,,,22.0,,,,,,,,,,,,,,,,,,,,,,,,,,,,,,,,108.5,1.0,,,,,
124,,iti,,html-keyboard-response,124,102792,0.0-1.0-24.0-0.1-5.1,0,0,32,,,,,,,,,,,,,,,,,,,,,,,,,,,,,,,,,,,,,,109.5,1.0,,,,,
125,,choice,,html-keyboard-response,125,103074,0.0-1.0-25.0-0.0-0.0,0,0,32,,279.0,,,51.0,23.0,323.0,3000.0,1000.0,0.0,6.0,0.0,20-60,,0.0,desk,nail polish,20.0,60.0,desk13,nail polish13,0.0,80.0,26427865.thl.jpg,31cR10fzlML._AA280_.jpg,/static/Category_learning/Stimuli/Experimental_stims/desk/26427865.thl.jpg,/static/Category_learning/Stimuli/Experimental_stims/nail polish/31cR10fzlML._AA280_.jpg,0.0,nail polish,desk,60.0,20.0,nail polish13,desk13,80.0,0.0,0.0,109.779,0.279,,,,,
126,,confirmation,,html-keyboard-response,126,104303,0.0-1.0-25.0-0.0-1.0-0.0,0,0,32,,,,,,23.0,,,,,,,,,,,,,,,,,,,,,,,,,,,,,,,,111.0,1.221,,,,,
127,,isi,,html-keyboard-response,127,104406,0.0-1.0-25.0-0.0-2.0,0,0,32,,,,,,,,,,,,,,,,,,,,,,,,,,,,,,,,,,,,,,114.0,3.0,,,,,
128,,feedback,,html-keyboard-response,128,105412,0.0-1.0-25.0-0.0-3.0-0.0,0,0,32,,,,,,23.0,,,,,,,,,,,,,,,,,,,,,,,,,,,,,,,,115.0,1.0,,,,,
129,,iti,,html-keyboard-response,129,105519,0.0-1.0-25.0-0.0-5.0,0,0,32,,,,,,,,,,,,,,,,,,,,,,,,,,,,,,,,,,,,,,116.0,1.0,,,,,
130,,choice,,html-keyboard-response,130,105707,0.0-1.0-26.0-0.0-0.0,0,0,32,,185.0,,,51.0,24.0,324.0,1000.0,1000.0,0.0,6.0,1.0,80-80,1.0,,telescope,telescope,80.0,80.0,telescope10,telescope2,100.0,100.0,digimarc.ms02.jpg,Brass-telescope-60700.jpg,/static/Category_learning/Stimuli/Experimental_stims/telescope/digimarc.ms02.jpg,/static/Category_learning/Stimuli/Experimental_stims/telescope/Brass-telescope-60700.jpg,0.0,telescope,telescope,80.0,80.0,telescope2,telescope10,100.0,100.0,0.0,116.185,0.185,,,,,
131,,confirmation,,html-keyboard-response,131,107029,0.0-1.0-26.0-0.0-1.0-0.0,0,0,32,,,,,,24.0,,,,,,,,,,,,,,,,,,,,,,,,,,,,,,,,117.5,1.315,,,,,
132,,isi,,html-keyboard-response,132,107136,0.0-1.0-26.0-0.0-2.0,0,0,32,,,,,,,,,,,,,,,,,,,,,,,,,,,,,,,,,,,,,,118.5,1.0,,,,,
133,,feedback,,html-keyboard-response,133,108140,0.0-1.0-26.0-0.0-3.0-0.0,0,0,32,,,,,,24.0,,,,,,,,,,,,,,,,,,,,,,,,,,,,,,,,119.5,1.0,,,,,
134,,iti,,html-keyboard-response,134,108244,0.0-1.0-26.0-0.0-5.0,0,0,32,,,,,,,,,,,,,,,,,,,,,,,,,,,,,,,,,,,,,,120.5,1.0,,,,,
135,,choice,,html-keyboard-response,135,108280,0.0-1.0-27.0-0.0-0.0,0,0,32,,33.0,,,51.0,25.0,325.0,1500.0,1000.0,0.0,6.0,0.0,40-60,,1.0,necklace,hammer,60.0,40.0,necklace14,hammer10,80.0,20.0,necklascenew05.jpg,Tabla Hammer.JPG,/static/Category_learning/Stimuli/Experimental_stims/necklace/necklascenew05.jpg,/static/Category_learning/Stimuli/Experimental_stims/hammer/Tabla Hammer.JPG,0.0,hammer,necklace,40.0,60.0,hammer10,necklace14,20.0,80.0,0.0,120.533,0.033,,,,,
136,,confirmation,,html-keyboard-response,136,109755,0.0-1.0-27.0-0.0-1.0-0.0,0,0,32,,,,,,25.0,,,,,,,,,,,,,,,,,,,,,,,,,,,,,,,,122.0,1.467,,,,,
137,,isi,,html-keyboard-response,137,109860,0.0-1.0-27.0-0.0-2.0,0,0,32,,,,,,,,,,,,,,,,,,,,,,,,,,,,,,,,,,,,,,123.5,1.5,,,,,
138,,feedback,,html-keyboard-response,138,110868,0.0-1.0-27.0-0.0-3.0-0.0,0,0,32,,,,,,25.0,,,,,,,,,,,,,,,,,,,,,,,,,,,,,,,,124.5,1.0,,,,,
139,,iti,,html-keyboard-response,139,110976,0.0-1.0-27.0-0.0-5.0,0,0,32,,,,,,,,,,,,,,,,,,,,,,,,,,,,,,,,,,,,,,125.5,1.0,,,,,
140,,choice,,html-keyboard-response,140,111097,0.0-1.0-28.0-0.0-0.0,0,0,32,,118.0,,,51.0,26.0,326.0,1500.0,1500.0,0.0,6.0,1.0,20-60,0.0,,poker card,flashlight,60.0,20.0,poker card1,flashlight13,40.0,0.0,22864704.thl.jpg,834808_sk_lg.jpg,/static/Category_learning/Stimuli/Experimental_stims/poker card/22864704.thl.jpg,/static/Category_learning/Stimuli/Experimental_stims/flashlight/834808_sk_lg.jpg,0.0,flashlight,poker card,20.0,60.0,flashlight13,poker card1,0.0,40.0,0.0,125.618,0.118,,,,,
141,,confirmation,,html-keyboard-response,141,112487,0.0-1.0-28.0-0.0-1.0-0.0,0,0,32,,,,,,26.0,,,,,,,,,,,,,,,,,,,,,,,,,,,,,,,,127.0,1.382,,,,,
142,,isi,,html-keyboard-response,142,112593,0.0-1.0-28.0-0.0-2.0,0,0,32,,,,,,,,,,,,,,,,,,,,,,,,,,,,,,,,,,,,,,128.5,1.5,,,,,
143,,feedback,,html-keyboard-response,143,113600,0.0-1.0-28.0-0.0-3.0-0.0,0,0,32,,,,,,26.0,,,,,,,,,,,,,,,,,,,,,,,,,,,,,,,,129.5,1.0,,,,,
144,,iti,,html-keyboard-response,144,113704,0.0-1.0-28.0-0.0-5.0,0,0,32,,,,,,,,,,,,,,,,,,,,,,,,,,,,,,,,,,,,,,131.0,1.5,,,,,
145,,choice,,html-keyboard-response,145,115211,0.0-1.0-29.0-0.0-0.0,0,0,32,,,,,,27.0,327.0,1000.0,1500.0,0.0,6.0,0.0,20-80,,1.0,trumpet,bongo,80.0,20.0,trumpet8,bongo10,80.0,20.0,trumpet33.jpg,22945915.thl.jpg,/static/Category_learning/Stimuli/Experimental_stims/trumpet/trumpet33.jpg,/static/Category_learning/Stimuli/Experimental_stims/bongo/22945915.thl.jpg,,,,,,,,,,1.0,132.5,1.5,,,,,
146,,isi,,html-keyboard-response,146,115320,0.0-1.0-29.0-0.0-2.0,0,0,32,,,,,,,,,,,,,,,,,,,,,,,,,,,,,,,,,,,,,,133.5,1.0,,,,,
147,,no_response,,html-keyboard-response,147,116327,0.0-1.0-29.0-0.0-4.0-0.0,1,0,32,,,,,,,,,,,,,,,,,,,,,,,,,,,,,,,,,,,,,,134.5,1.0,,,,,
148,,iti,,html-keyboard-response,148,116450,0.0-1.0-29.0-0.0-5.0,0,0,32,,,,,,,,,,,,,,,,,,,,,,,,,,,,,,,,,,,,,,136.0,1.5,,,,,
149,,choice,,html-keyboard-response,149,117039,0.0-1.0-29.0-0.1-0.1,0,0,32,,586.0,,,51.0,27.0,327.0,1000.0,1500.0,0.0,6.0,0.0,20-80,,1.0,trumpet,bongo,80.0,20.0,trumpet8,bongo10,80.0,20.0,trumpet33.jpg,22945915.thl.jpg,/static/Category_learning/Stimuli/Experimental_stims/trumpet/trumpet33.jpg,/static/Category_learning/Stimuli/Experimental_stims/bongo/22945915.thl.jpg,0.0,bongo,trumpet,20.0,80.0,bongo10,trumpet8,20.0,80.0,0.0,136.586,0.586,,,,,
150,,confirmation,,html-keyboard-response,150,117960,0.0-1.0-29.0-0.1-1.1-0.1,0,0,32,,,,,,27.0,,,,,,,,,,,,,,,,,,,,,,,,,,,,,,,,137.5,0.914,,,,,
151,,isi,,html-keyboard-response,151,118068,0.0-1.0-29.0-0.1-2.1,0,0,32,,,,,,,,,,,,,,,,,,,,,,,,,,,,,,,,,,,,,,139.5,2.0,,,,,
152,,feedback,,html-keyboard-response,152,119077,0.0-1.0-29.0-0.1-3.1-0.1,0,0,32,,,,,,27.0,,,,,,,,,,,,,,,,,,,,,,,,,,,,,,,,140.5,1.0,,,,,
153,,iti,,html-keyboard-response,153,119185,0.0-1.0-29.0-0.1-5.1,0,0,32,,,,,,,,,,,,,,,,,,,,,,,,,,,,,,,,,,,,,,141.5,1.0,,,,,
154,,choice,,html-keyboard-response,154,119834,0.0-1.0-30.0-0.0-0.0,0,0,32,,645.0,,,50.0,28.0,328.0,1000.0,2000.0,0.0,6.0,1.0,20-60,0.0,,nail polish,baby carriage,60.0,20.0,nail polish13,baby carriage7,80.0,0.0,31cR10fzlML._AA280_.jpg,26423282.thl.jpg,/static/Category_learning/Stimuli/Experimental_stims/nail polish/31cR10fzlML._AA280_.jpg,/static/Category_learning/Stimuli/Experimental_stims/baby carriage/26423282.thl.jpg,1.0,nail polish,baby carriage,60.0,20.0,nail polish13,baby carriage7,80.0,0.0,0.0,142.145,0.645,,,,,
155,,confirmation,,html-keyboard-response,155,120698,0.0-1.0-30.0-0.0-1.0-0.0,0,0,32,,,,,,28.0,,,,,,,,,,,,,,,,,,,,,,,,,,,,,,,,143.0,0.855,,,,,
156,,isi,,html-keyboard-response,156,120804,0.0-1.0-30.0-0.0-2.0,0,0,32,,,,,,,,,,,,,,,,,,,,,,,,,,,,,,,,,,,,,,144.0,1.0,,,,,
157,,feedback,,html-keyboard-response,157,121812,0.0-1.0-30.0-0.0-3.0-0.0,0,0,32,,,,,,28.0,,,,,,,,,,,,,,,,,,,,,,,,,,,,,,,,145.0,1.0,,,,,
158,,iti,,html-keyboard-response,158,121918,0.0-1.0-30.0-0.0-5.0,0,0,32,,,,,,,,,,,,,,,,,,,,,,,,,,,,,,,,,,,,,,147.0,2.0,,,,,
159,,choice,,html-keyboard-response,159,123427,0.0-1.0-31.0-0.0-0.0,0,0,32,,,,,,29.0,329.0,2000.0,1000.0,0.0,6.0,0.0,40-60,,0.0,motorcycle,small table,40.0,60.0,motorcycle4,small table15,20.0,40.0,motorcycle46.jpg,ATABLE20.jpg,/static/Category_learning/Stimuli/Experimental_stims/motorcycle/motorcycle46.jpg,/static/Category_learning/Stimuli/Experimental_stims/small table/ATABLE20.jpg,,,,,,,,,,1.0,148.5,1.5,,,,,
160,,isi,,html-keyboard-response,160,123535,0.0-1.0-31.0-0.0-2.0,0,0,32,,,,,,,,,,,,,,,,,,,,,,,,,,,,,,,,,,,,,,150.5,2.0,,,,,
161,,no_response,,html-keyboard-response,161,124542,0.0-1.0-31.0-0.0-4.0-0.0,1,0,32,,,,,,,,,,,,,,,,,,,,,,,,,,,,,,,,,,,,,,151.5,1.0,,,,,
162,,iti,,html-keyboard-response,162,124666,0.0-1.0-31.0-0.0-5.0,0,0,32,,,,,,,,,,,,,,,,,,,,,,,,,,,,,,,,,,,,,,152.5,1.0,,,,,
163,,choice,,html-keyboard-response,163,126170,0.0-1.0-31.0-0.1-0.1,0,0,32,,,,,,29.0,329.0,2000.0,1000.0,0.0,6.0,0.0,40-60,,0.0,motorcycle,small table,40.0,60.0,motorcycle4,small table15,20.0,40.0,motorcycle46.jpg,ATABLE20.jpg,/static/Category_learning/Stimuli/Experimental_stims/motorcycle/motorcycle46.jpg,/static/Category_learning/Stimuli/Experimental_stims/small table/ATABLE20.jpg,,,,,,,,,,1.0,154.0,1.5,,,,,
164,,isi,,html-keyboard-response,164,126277,0.0-1.0-31.0-0.1-2.1,0,0,32,,,,,,,,,,,,,,,,,,,,,,,,,,,,,,,,,,,,,,155.0,1.0,,,,,
165,,no_response,,html-keyboard-response,165,127286,0.0-1.0-31.0-0.1-4.1-0.1,1,0,32,,,,,,,,,,,,,,,,,,,,,,,,,,,,,,,,,,,,,,156.0,1.0,,,,,
166,,iti,,html-keyboard-response,166,127409,0.0-1.0-31.0-0.1-5.1,0,0,32,,,,,,,,,,,,,,,,,,,,,,,,,,,,,,,,,,,,,,157.5,1.5,,,,,
167,,choice,,html-keyboard-response,167,127510,0.0-1.0-31.0-0.2-0.2,0,0,32,,99.0,,,50.0,29.0,329.0,2000.0,1000.0,0.0,6.0,0.0,40-60,,0.0,motorcycle,small table,40.0,60.0,motorcycle4,small table15,20.0,40.0,motorcycle46.jpg,ATABLE20.jpg,/static/Category_learning/Stimuli/Experimental_stims/motorcycle/motorcycle46.jpg,/static/Category_learning/Stimuli/Experimental_stims/small table/ATABLE20.jpg,1.0,motorcycle,small table,40.0,60.0,motorcycle4,small table15,20.0,40.0,0.0,157.599,0.099,,,,,
168,,confirmation,,html-keyboard-response,168,128917,0.0-1.0-31.0-0.2-1.2-0.2,0,0,32,,,,,,29.0,,,,,,,,,,,,,,,,,,,,,,,,,,,,,,,,159.0,1.401,,,,,
169,,isi,,html-keyboard-response,169,129022,0.0-1.0-31.0-0.2-2.2,0,0,32,,,,,,,,,,,,,,,,,,,,,,,,,,,,,,,,,,,,,,161.0,2.0,,,,,
170,,feedback,,html-keyboard-response,170,130031,0.0-1.0-31.0-0.2-3.2-0.2,0,0,32,,,,,,29.0,,,,,,,,,,,,,,,,,,,,,,,,,,,,,,,,162.0,1.0,,,,,
171,,iti,,html-keyboard-response,171,130137,0.0-1.0-31.0-0.2-5.2,0,0,32,,,,,,,,,,,,,,,,,,,,,,,,,,,,,,,,,,,,,,163.5,1.5,,,,,
172,,choice,,html-keyboard-response,172,131645,0.0-1.0-32.0-0.0-0.0,0,0,32,,,,,,30.0,330.0,1000.0,3500.0,0.0,6.0,0.0,40-80,,1.0,tape,hammer,80.0,40.0,tape2,hammer15,100.0,60.0,Tape_Dispenser.jpg,Vaughan-32-oz-Hickory-Handle-Ball-Pein-Hammer-S432-B0001LRUJM-L-ARCQ0EBO8TR73_.jpg,/static/Category_learning/Stimuli/Experimental_stims/tape/Tape_Dispenser.jpg,/static/Category_learning/Stimuli/Experimental_stims/hammer/Vaughan-32-oz-Hickory-Handle-Ball-Pein-Hammer-S432-B0001LRUJM-L-ARCQ0EBO8TR73_.jpg,,,,,,,,,,1.0,165.0,1.5,,,,,
173,,isi,,html-keyboard-response,173,131753,0.0-1.0-32.0-0.0-2.0,0,0,32,,,,,,,,,,,,,,,,,,,,,,,,,,,,,,,,,,,,,,166.0,1.0,,,,,
174,,no_response,,html-keyboard-response,174,132761,0.0-1.0-32.0-0.0-4.0-0.0,1,0,32,,,,,,,,,,,,,,,,,,,,,,,,,,,,,,,,,,,,,,167.0,1.0,,,,,
175,,iti,,html-keyboard-response,175,132884,0.0-1.0-32.0-0.0-5.0,0,0,32,,,,,,,,,,,,,,,,,,,,,,,,,,,,,,,,,,,,,,170.5,3.5,,,,,
176,,choice,,html-keyboard-response,176,133739,0.0-1.0-32.0-0.1-0.1,0,0,32,,851.0,,,50.0,30.0,330.0,1000.0,3500.0,0.0,6.0,0.0,40-80,,1.0,tape,hammer,80.0,40.0,tape2,hammer15,100.0,60.0,Tape_Dispenser.jpg,Vaughan-32-oz-Hickory-Handle-Ball-Pein-Hammer-S432-B0001LRUJM-L-ARCQ0EBO8TR73_.jpg,/static/Category_learning/Stimuli/Experimental_stims/tape/Tape_Dispenser.jpg,/static/Category_learning/Stimuli/Experimental_stims/hammer/Vaughan-32-oz-Hickory-Handle-Ball-Pein-Hammer-S432-B0001LRUJM-L-ARCQ0EBO8TR73_.jpg,1.0,tape,hammer,80.0,40.0,tape2,hammer15,100.0,60.0,0.0,171.351,0.851,,,,,
177,,confirmation,,html-keyboard-response,177,134392,0.0-1.0-32.0-0.1-1.1-0.1,0,0,32,,,,,,30.0,,,,,,,,,,,,,,,,,,,,,,,,,,,,,,,,172.0,0.649,,,,,
178,,isi,,html-keyboard-response,178,134499,0.0-1.0-32.0-0.1-2.1,0,0,32,,,,,,,,,,,,,,,,,,,,,,,,,,,,,,,,,,,,,,173.0,1.0,,,,,
179,,feedback,,html-keyboard-response,179,135506,0.0-1.0-32.0-0.1-3.1-0.1,0,0,32,,,,,,30.0,,,,,,,,,,,,,,,,,,,,,,,,,,,,,,,,174.0,1.0,,,,,
180,,iti,,html-keyboard-response,180,135613,0.0-1.0-32.0-0.1-5.1,0,0,32,,,,,,,,,,,,,,,,,,,,,,,,,,,,,,,,,,,,,,175.0,1.0,,,,,
181,,choice,,html-keyboard-response,181,136829,0.0-1.0-33.0-0.0-0.0,0,0,32,,1212.0,,,50.0,31.0,331.0,1000.0,1000.0,0.0,6.0,1.0,40-40,0.0,,makeup compact,microscope,40.0,40.0,makeup compact14,microscope10,60.0,20.0,262597_fpx.jpg,DS-2.jpg,/static/Category_learning/Stimuli/Experimental_stims/makeup compact/262597_fpx.jpg,/static/Category_learning/Stimuli/Experimental_stims/microscope/DS-2.jpg,1.0,makeup compact,microscope,40.0,40.0,makeup compact14,microscope10,60.0,20.0,0.0,176.212,1.212,,,,,
182,,confirmation,,html-keyboard-response,182,137124,0.0-1.0-33.0-0.0-1.0-0.0,0,0,32,,,,,,31.0,,,,,,,,,,,,,,,,,,,,,,,,,,,,,,,,176.5,0.288,,,,,
183,,isi,,html-keyboard-response,183,137230,0.0-1.0-33.0-0.0-2.0,0,0,32,,,,,,,,,,,,,,,,,,,,,,,,,,,,,,,,,,,,,,177.5,1.0,,,,,
184,,feedback,,html-keyboard-response,184,138237,0.0-1.0-33.0-0.0-3.0-0.0,0,0,32,,,,,,31.0,,,,,,,,,,,,,,,,,,,,,,,,,,,,,,,,178.5,1.0,,,,,
185,,iti,,html-keyboard-response,185,138344,0.0-1.0-33.0-0.0-5.0,0,0,32,,,,,,,,,,,,,,,,,,,,,,,,,,,,,,,,,,,,,,179.5,1.0,,,,,
186,,choice,,html-keyboard-response,186,139328,0.0-1.0-34.0-0.0-0.0,0,0,32,,980.0,,,50.0,32.0,332.0,1500.0,3500.0,0.0,6.0,0.0,40-60,,0.0,key chain,poker card,40.0,60.0,key chain4,poker card3,20.0,40.0,Gumby_Green-Keychain.jpg,9817131.thl.jpg,/static/Category_learning/Stimuli/Experimental_stims/key chain/Gumby_Green-Keychain.jpg,/static/Category_learning/Stimuli/Experimental_stims/poker card/9817131.thl.jpg,1.0,key chain,poker card,40.0,60.0,key chain4,poker card3,20.0,40.0,0.0,180.48,0.98,,,,,
187,,confirmation,,html-keyboard-response,187,139854,0.0-1.0-34.0-0.0-1.0-0.0,0,0,32,,,,,,32.0,,,,,,,,,,,,,,,,,,,,,,,,,,,,,,,,181.0,0.52,,,,,
188,,isi,,html-keyboard-response,188,139962,0.0-1.0-34.0-0.0-2.0,0,0,32,,,,,,,,,,,,,,,,,,,,,,,,,,,,,,,,,,,,,,182.5,1.5,,,,,
189,,feedback,,html-keyboard-response,189,140970,0.0-1.0-34.0-0.0-3.0-0.0,0,0,32,,,,,,32.0,,,,,,,,,,,,,,,,,,,,,,,,,,,,,,,,183.5,1.0,,,,,
190,,iti,,html-keyboard-response,190,141078,0.0-1.0-34.0-0.0-5.0,0,0,32,,,,,,,,,,,,,,,,,,,,,,,,,,,,,,,,,,,,,,187.0,3.5,,,,,
191,,choice,,html-keyboard-response,191,141662,0.0-1.0-35.0-0.0-0.0,0,0,32,,582.0,,,50.0,33.0,333.0,1500.0,2000.0,0.0,6.0,1.0,40-40,1.0,,key chain,key chain,40.0,40.0,key chain12,key chain4,40.0,20.0,keychain.jpg,Gumby_Green-Keychain.jpg,/static/Category_learning/Stimuli/Experimental_stims/key chain/keychain.jpg,/static/Category_learning/Stimuli/Experimental_stims/key chain/Gumby_Green-Keychain.jpg,1.0,key chain,key chain,40.0,40.0,key chain12,key chain4,40.0,20.0,0.0,187.582,0.582,,,,,
192,,confirmation,,html-keyboard-response,192,142585,0.0-1.0-35.0-0.0-1.0-0.0,0,0,32,,,,,,33.0,,,,,,,,,,,,,,,,,,,,,,,,,,,,,,,,188.5,0.918,,,,,
193,,isi,,html-keyboard-response,193,142691,0.0-1.0-35.0-0.0-2.0,0,0,32,,,,,,,,,,,,,,,,,,,,,,,,,,,,,,,,,,,,,,190.0,1.5,,,,,
194,,feedback,,html-keyboard-response,194,143698,0.0-1.0-35.0-0.0-3.0-0.0,0,0,32,,,,,,33.0,,,,,,,,,,,,,,,,,,,,,,,,,,,,,,,,191.0,1.0,,,,,
195,,iti,,html-keyboard-response,195,143804,0.0-1.0-35.0-0.0-5.0,0,0,32,,,,,,,,,,,,,,,,,,,,,,,,,,,,,,,,,,,,,,193.0,2.0,,,,,
196,,choice,,html-keyboard-response,196,145312,0.0-1.0-36.0-0.0-0.0,0,0,32,,,,,,34.0,334.0,1500.0,2000.0,0.0,6.0,0.0,80-80,,,telescope,trumpet,80.0,80.0,telescope8,trumpet6,80.0,60.0,p0006439g.jpg,JUP416S.JPG,/static/Category_learning/Stimuli/Experimental_stims/telescope/p0006439g.jpg,/static/Category_learning/Stimuli/Experimental_stims/trumpet/JUP416S.JPG,,,,,,,,,,1.0,194.5,1.5,,,,,
197,,isi,,html-keyboard-response,197,145419,0.0-1.0-36.0-0.0-2.0,0,0,32,,,,,,,,,,,,,,,,,,,,,,,,,,,,,,,,,,,,,,196.0,1.5,,,,,
198,,no_response,,html-keyboard-response,198,146426,0.0-1.0-36.0-0.0-4.0-0.0,1,0,32,,,,,,,,,,,,,,,,,,,,,,,,,,,,,,,,,,,,,,197.0,1.0,,,,,
199,,iti,,html-keyboard-response,199,146549,0.0-1.0-36.0-0.0-5.0,0,0,32,,,,,,,,,,,,,,,,,,,,,,,,,,,,,,,,,,,,,,199.0,2.0,,,,,
200,,choice,,html-keyboard-response,200,148056,0.0-1.0-36.0-0.1-0.1,0,0,32,,,,,,34.0,334.0,1500.0,2000.0,0.0,6.0,0.0,80-80,,,telescope,trumpet,80.0,80.0,telescope8,trumpet6,80.0,60.0,p0006439g.jpg,JUP416S.JPG,/static/Category_learning/Stimuli/Experimental_stims/telescope/p0006439g.jpg,/static/Category_learning/Stimuli/Experimental_stims/trumpet/JUP416S.JPG,,,,,,,,,,1.0,200.5,1.5,,,,,
201,,isi,,html-keyboard-response,201,148162,0.0-1.0-36.0-0.1-2.1,0,0,32,,,,,,,,,,,,,,,,,,,,,,,,,,,,,,,,,,,,,,203.5,3.0,,,,,
202,,no_response,,html-keyboard-response,202,149167,0.0-1.0-36.0-0.1-4.1-0.1,1,0,32,,,,,,,,,,,,,,,,,,,,,,,,,,,,,,,,,,,,,,204.5,1.0,,,,,
203,,iti,,html-keyboard-response,203,149286,0.0-1.0-36.0-0.1-5.1,0,0,32,,,,,,,,,,,,,,,,,,,,,,,,,,,,,,,,,,,,,,205.5,1.0,,,,,
204,,choice,,html-keyboard-response,204,149350,0.0-1.0-36.0-0.2-0.2,0,0,32,,60.0,,,50.0,34.0,334.0,1500.0,2000.0,0.0,6.0,0.0,80-80,,,telescope,trumpet,80.0,80.0,telescope8,trumpet6,80.0,60.0,p0006439g.jpg,JUP416S.JPG,/static/Category_learning/Stimuli/Experimental_stims/telescope/p0006439g.jpg,/static/Category_learning/Stimuli/Experimental_stims/trumpet/JUP416S.JPG,1.0,telescope,trumpet,80.0,80.0,telescope8,trumpet6,80.0,60.0,0.0,205.56,0.06,,,,,
205,,confirmation,,html-keyboard-response,205,150794,0.0-1.0-36.0-0.2-1.2-0.2,0,0,32,,,,,,34.0,,,,,,,,,,,,,,,,,,,,,,,,,,,,,,,,207.0,1.44,,,,,
206,,isi,,html-keyboard-response,206,150901,0.0-1.0-36.0-0.2-2.2,0,0,32,,,,,,,,,,,,,,,,,,,,,,,,,,,,,,,,,,,,,,208.5,1.5,,,,,
207,,feedback,,html-keyboard-response,207,151909,0.0-1.0-36.0-0.2-3.2-0.2,0,0,32,,,,,,34.0,,,,,,,,,,,,,,,,,,,,,,,,,,,,,,,,209.5,1.0,,,,,
208,,iti,,html-keyboard-response,208,152016,0.0-1.0-36.0-0.2-5.2,0,0,32,,,,,,,,,,,,,,,,,,,,,,,,,,,,,,,,,,,,,,210.5,1.0,,,,,
209,,choice,,html-keyboard-response,209,152126,0.0-1.0-37.0-0.0-0.0,0,0,32,,107.0,,,50.0,35.0,335.0,1000.0,1000.0,0.0,6.0,0.0,20-40,,0.0,bowl,hammer,20.0,40.0,bowl14,hammer1,40.0,20.0,Aredglassbowl.jpg,fosnaugh.hammer.jpg,/static/Category_learning/Stimuli/Experimental_stims/bowl/Aredglassbowl.jpg,/static/Category_learning/Stimuli/Experimental_stims/hammer/fosnaugh.hammer.jpg,1.0,bowl,hammer,20.0,40.0,bowl14,hammer1,40.0,20.0,0.0,210.607,0.107,,,,,
210,,confirmation,,html-keyboard-response,210,153524,0.0-1.0-37.0-0.0-1.0-0.0,0,0,32,,,,,,35.0,,,,,,,,,,,,,,,,,,,,,,,,,,,,,,,,212.0,1.393,,,,,
211,,isi,,html-keyboard-response,211,153631,0.0-1.0-37.0-0.0-2.0,0,0,32,,,,,,,,,,,,,,,,,,,,,,,,,,,,,,,,,,,,,,213.0,1.0,,,,,
212,,feedback,,html-keyboard-response,212,154639,0.0-1.0-37.0-0.0-3.0-0.0,0,0,32,,,,,,35.0,,,,,,,,,,,,,,,,,,,,,,,,,,,,,,,,214.0,1.0,,,,,
213,,iti,,html-keyboard-response,213,154788,0.0-1.0-37.0-0.0-5.0,0,0,32,,,,,,,,,,,,,,,,,,,,,,,,,,,,,,,,,,,,,,215.0,1.0,,,,,
214,,choice,,html-keyboard-response,214,154921,0.0-1.0-38.0-0.0-0.0,0,0,32,,130.0,,,50.0,36.0,336.0,2000.0,1000.0,0.0,6.0,1.0,20-20,1.0,,bowl,bowl,20.0,20.0,bowl14,bowl10,40.0,0.0,Aredglassbowl.jpg,Abowl50.jpg,/static/Category_learning/Stimuli/Experimental_stims/bowl/Aredglassbowl.jpg,/static/Category_learning/Stimuli/Experimental_stims/bowl/Abowl50.jpg,1.0,bowl,bowl,20.0,20.0,bowl14,bowl10,40.0,0.0,0.0,215.13,0.13,,,,,
215,,confirmation,,html-keyboard-response,215,156301,0.0-1.0-38.0-0.0-1.0-0.0,0,0,32,,,,,,36.0,,,,,,,,,,,,,,,,,,,,,,,,,,,,,,,,216.5,1.37,,,,,
216,,isi,,html-keyboard-response,216,156405,0.0-1.0-38.0-0.0-2.0,0,0,32,,,,,,,,,,,,,,,,,,,,,,,,,,,,,,,,,,,,,,218.5,2.0,,,,,
217,,feedback,,html-keyboard-response,217,157412,0.0-1.0-38.0-0.0-3.0-0.0,0,0,32,,,,,,36.0,,,,,,,,,,,,,,,,,,,,,,,,,,,,,,,,219.5,1.0,,,,,
218,,iti,,html-keyboard-response,218,157514,0.0-1.0-38.0-0.0-5.0,0,0,32,,,,,,,,,,,,,,,,,,,,,,,,,,,,,,,,,,,,,,220.5,1.0,,,,,
219,,choice,,html-keyboard-response,219,157815,0.0-1.0-39.0-0.0-0.0,0,0,32,,298.0,,,50.0,37.0,337.0,1500.0,1000.0,0.0,6.0,0.0,40-80,,0.0,key chain,watch,40.0,80.0,key chain2,watch3,40.0,80.0,superman_returns_pewter_keychain_2.jpg,B0000TIIVO.01._SCLZZZZZZZ_V1124920780_.jpg,/static/Category_learning/Stimuli/Experimental_stims/key chain/superman_returns_pewter_keychain_2.jpg,/static/Category_learning/Stimuli/Experimental_stims/watch/B0000TIIVO.01._SCLZZZZZZZ_V1124920780_.jpg,1.0,key chain,watch,40.0,80.0,key chain2,watch3,40.0,80.0,0.0,220.798,0.298,,,,,
220,,confirmation,,html-keyboard-response,220,159026,0.0-1.0-39.0-0.0-1.0-0.0,0,0,32,,,,,,37.0,,,,,,,,,,,,,,,,,,,,,,,,,,,,,,,,222.0,1.202,,,,,
221,,isi,,html-keyboard-response,221,159133,0.0-1.0-39.0-0.0-2.0,0,0,32,,,,,,,,,,,,,,,,,,,,,,,,,,,,,,,,,,,,,,223.5,1.5,,,,,
222,,feedback,,html-keyboard-response,222,160139,0.0-1.0-39.0-0.0-3.0-0.0,0,0,32,,,,,,37.0,,,,,,,,,,,,,,,,,,,,,,,,,,,,,,,,224.5,1.0,,,,,
223,,iti,,html-keyboard-response,223,160245,0.0-1.0-39.0-0.0-5.0,0,0,32,,,,,,,,,,,,,,,,,,,,,,,,,,,,,,,,,,,,,,225.5,1.0,,,,,
224,,choice,,html-keyboard-response,224,160426,0.0-1.0-40.0-0.0-0.0,0,0,32,,178.0,,,50.0,38.0,338.0,1000.0,2000.0,0.0,6.0,0.0,20-60,,1.0,small table,baby carriage,60.0,20.0,small table13,baby carriage1,40.0,40.0,ATABLE25.jpg,babycarriage16.jpg,/static/Category_learning/Stimuli/Experimental_stims/small table/ATABLE25.jpg,/static/Category_learning/Stimuli/Experimental_stims/baby carriage/babycarriage16.jpg,1.0,small table,baby carriage,60.0,20.0,small table13,baby carriage1,40.0,40.0,0.0,225.678,0.178,,,,,
225,,confirmation,,html-keyboard-response,225,161753,0.0-1.0-40.0-0.0-1.0-0.0,0,0,32,,,,,,38.0,,,,,,,,,,,,,,,,,,,,,,,,,,,,,,,,227.0,1.322,,,,,
226,,isi,,html-keyboard-response,226,161856,0.0-1.0-40.0-0.0-2.0,0,0,32,,,,,,,,,,,,,,,,,,,,,,,,,,,,,,,,,,,,,,228.0,1.0,,,,,
227,,feedback,,html-keyboard-response,227,162864,0.0-1.0-40.0-0.0-3.0-0.0,0,0,32,,,,,,38.0,,,,,,,,,,,,,,,,,,,,,,,,,,,,,,,,229.0,1.0,,,,,
228,,iti,,html-keyboard-response,228,162972,0.0-1.0-40.0-0.0-5.0,0,0,32,,,,,,,,,,,,,,,,,,,,,,,,,,,,,,,,,,,,,,231.0,2.0,,,,,
229,,choice,,html-keyboard-response,229,163257,0.0-1.0-41.0-0.0-0.0,0,0,32,,281.0,,,50.0,39.0,339.0,2000.0,1500.0,0.0,6.0,1.0,40-80,0.0,,telescope,hammer,80.0,40.0,telescope8,hammer10,80.0,20.0,p0006439g.jpg,Tabla Hammer.JPG,/static/Category_learning/Stimuli/Experimental_stims/telescope/p0006439g.jpg,/static/Category_learning/Stimuli/Experimental_stims/hammer/Tabla Hammer.JPG,1.0,telescope,hammer,80.0,40.0,telescope8,hammer10,80.0,20.0,0.0,231.281,0.281,,,,,
230,,confirmation,,html-keyboard-response,230,164483,0.0-1.0-41.0-0.0-1.0-0.0,0,0,32,,,,,,39.0,,,,,,,,,,,,,,,,,,,,,,,,,,,,,,,,232.5,1.219,,,,,
231,,isi,,html-keyboard-response,231,164591,0.0-1.0-41.0-0.0-2.0,0,0,32,,,,,,,,,,,,,,,,,,,,,,,,,,,,,,,,,,,,,,234.5,2.0,,,,,
232,,feedback,,html-keyboard-response,232,165598,0.0-1.0-41.0-0.0-3.0-0.0,0,0,32,,,,,,39.0,,,,,,,,,,,,,,,,,,,,,,,,,,,,,,,,235.5,1.0,,,,,
233,,iti,,html-keyboard-response,233,165706,0.0-1.0-41.0-0.0-5.0,0,0,32,,,,,,,,,,,,,,,,,,,,,,,,,,,,,,,,,,,,,,237.0,1.5,,,,,
234,,choice,,html-keyboard-response,234,165888,0.0-1.0-42.0-0.0-0.0,0,0,32,,178.0,,,50.0,40.0,340.0,1000.0,2000.0,0.0,6.0,0.0,20-60,,0.0,baby carriage,patio lounge chair,20.0,60.0,baby carriage15,patio lounge chair7,0.0,40.0,AANBABYC2.jpg,lg_Serenity_Riviera[1].jpg,/static/Category_learning/Stimuli/Experimental_stims/baby carriage/AANBABYC2.jpg,/static/Category_learning/Stimuli/Experimental_stims/patio lounge chair/lg_Serenity_Riviera[1].jpg,1.0,baby carriage,patio lounge chair,20.0,60.0,baby carriage15,patio lounge chair7,0.0,40.0,0.0,237.178,0.178,,,,,
235,,confirmation,,html-keyboard-response,235,167217,0.0-1.0-42.0-0.0-1.0-0.0,0,0,32,,,,,,40.0,,,,,,,,,,,,,,,,,,,,,,,,,,,,,,,,238.5,1.322,,,,,
236,,isi,,html-keyboard-response,236,167324,0.0-1.0-42.0-0.0-2.0,0,0,32,,,,,,,,,,,,,,,,,,,,,,,,,,,,,,,,,,,,,,239.5,1.0,,,,,
237,,feedback,,html-keyboard-response,237,168332,0.0-1.0-42.0-0.0-3.0-0.0,0,0,32,,,,,,40.0,,,,,,,,,,,,,,,,,,,,,,,,,,,,,,,,240.5,1.0,,,,,
238,,iti,,html-keyboard-response,238,168437,0.0-1.0-42.0-0.0-5.0,0,0,32,,,,,,,,,,,,,,,,,,,,,,,,,,,,,,,,,,,,,,242.5,2.0,,,,,
239,,choice,,html-keyboard-response,239,168577,0.0-1.0-43.0-0.0-0.0,0,0,32,,137.0,,,50.0,41.0,341.0,1000.0,1500.0,0.0,6.0,0.0,20-80,,0.0,bench,tape,20.0,80.0,bench2,tape12,20.0,60.0,26369969.thl.jpg,Frog-Tape-Dispenser_F02218A2.jpg,/static/Category_learning/Stimuli/Experimental_stims/bench/26369969.thl.jpg,/static/Category_learning/Stimuli/Experimental_stims/tape/Frog-Tape-Dispenser_F02218A2.jpg,1.0,bench,tape,20.0,80.0,bench2,tape12,20.0,60.0,0.0,242.637,0.137,,,,,
240,,confirmation,,html-keyboard-response,240,169946,0.0-1.0-43.0-0.0-1.0-0.0,0,0,32,,,,,,41.0,,,,,,,,,,,,,,,,,,,,,,,,,,,,,,,,244.0,1.363,,,,,
241,,isi,,html-keyboard-response,241,170053,0.0-1.0-43.0-0.0-2.0,0,0,32,,,,,,,,,,,,,,,,,,,,,,,,,,,,,,,,,,,,,,245.0,1.0,,,,,
242,,feedback,,html-keyboard-response,242,171060,0.0-1.0-43.0-0.0-3.0-0.0,0,0,32,,,,,,41.0,,,,,,,,,,,,,,,,,,,,,,,,,,,,,,,,246.0,1.0,,,,,
243,,iti,,html-keyboard-response,243,171166,0.0-1.0-43.0-0.0-5.0,0,0,32,,,,,,,,,,,,,,,,,,,,,,,,,,,,,,,,,,,,,,247.5,1.5,,,,,
244,,choice,,html-keyboard-response,244,171264,0.0-1.0-44.0-0.0-0.0,0,0,32,,94.0,,,50.0,42.0,342.0,2000.0,1500.0,0.0,6.0,0.0,20-60,,0.0,baby carriage,sofa,20.0,60.0,baby carriage3,sofa3,20.0,80.0,Stroller.jpg,ACOUCH14.jpg,/static/Category_learning/Stimuli/Experimental_stims/baby carriage/Stroller.jpg,/static/Category_learning/Stimuli/Experimental_stims/sofa/ACOUCH14.jpg,1.0,baby carriage,sofa,20.0,60.0,baby carriage3,sofa3,20.0,80.0,0.0,247.594,0.094,,,,,
245,,confirmation,,html-keyboard-response,245,172678,0.0-1.0-44.0-0.0-1.0-0.0,0,0,32,,,,,,42.0,,,,,,,,,,,,,,,,,,,,,,,,,,,,,,,,249.0,1.406,,,,,
246,,isi,,html-keyboard-response,246,172786,0.0-1.0-44.0-0.0-2.0,0,0,32,,,,,,,,,,,,,,,,,,,,,,,,,,,,,,,,,,,,,,251.0,2.0,,,,,
247,,feedback,,html-keyboard-response,247,173793,0.0-1.0-44.0-0.0-3.0-0.0,0,0,32,,,,,,42.0,,,,,,,,,,,,,,,,,,,,,,,,,,,,,,,,252.0,1.0,,,,,
248,,iti,,html-keyboard-response,248,173901,0.0-1.0-44.0-0.0-5.0,0,0,32,,,,,,,,,,,,,,,,,,,,,,,,,,,,,,,,,,,,,,253.5,1.5,,,,,
249,,choice,,html-keyboard-response,249,174017,0.0-1.0-45.0-0.0-0.0,0,0,32,,112.0,,,50.0,43.0,343.0,1000.0,1000.0,0.0,6.0,0.0,60-60,,,seashell,nail polish,60.0,60.0,seashell6,nail polish8,80.0,40.0,PY2H1461.jpg,283-ILilacYouALot.jpg,/static/Category_learning/Stimuli/Experimental_stims/seashell/PY2H1461.jpg,/static/Category_learning/Stimuli/Experimental_stims/nail polish/283-ILilacYouALot.jpg,1.0,seashell,nail polish,60.0,60.0,seashell6,nail polish8,80.0,40.0,0.0,253.612,0.112,,,,,
250,,confirmation,,html-keyboard-response,250,175412,0.0-1.0-45.0-0.0-1.0-0.0,0,0,32,,,,,,43.0,,,,,,,,,,,,,,,,,,,,,,,,,,,,,,,,255.0,1.388,,,,,
251,,isi,,html-keyboard-response,251,175519,0.0-1.0-45.0-0.0-2.0,0,0,32,,,,,,,,,,,,,,,,,,,,,,,,,,,,,,,,,,,,,,256.0,1.0,,,,,
252,,feedback,,html-keyboard-response,252,176528,0.0-1.0-45.0-0.0-3.0-0.0,0,0,32,,,,,,43.0,,,,,,,,,,,,,,,,,,,,,,,,,,,,,,,,257.0,1.0,,,,,
253,,iti,,html-keyboard-response,253,176637,0.0-1.0-45.0-0.0-5.0,0,0,32,,,,,,,,,,,,,,,,,,,,,,,,,,,,,,,,,,,,,,258.0,1.0,,,,,
254,,choice,,html-keyboard-response,254,177775,0.0-1.0-46.0-0.0-0.0,0,0,32,,1134.0,,,50.0,44.0,344.0,3500.0,3000.0,0.0,6.0,0.0,40-60,,1.0,power strip,hammer,60.0,40.0,power strip4,hammer2,60.0,60.0,41D3CX96H9L._AA262_.jpg,hammer04.jpg,/static/Category_learning/Stimuli/Experimental_stims/power strip/41D3CX96H9L._AA262_.jpg,/static/Category_learning/Stimuli/Experimental_stims/hammer/hammer04.jpg,1.0,power strip,hammer,60.0,40.0,power strip4,hammer2,60.0,60.0,0.0,259.134,1.134,,,,,
255,,confirmation,,html-keyboard-response,255,178149,0.0-1.0-46.0-0.0-1.0-0.0,0,0,32,,,,,,44.0,,,,,,,,,,,,,,,,,,,,,,,,,,,,,,,,259.5,0.366,,,,,
256,,isi,,html-keyboard-response,256,178252,0.0-1.0-46.0-0.0-2.0,0,0,32,,,,,,,,,,,,,,,,,,,,,,,,,,,,,,,,,,,,,,263.0,3.5,,,,,
257,,feedback,,html-keyboard-response,257,179257,0.0-1.0-46.0-0.0-3.0-0.0,0,0,32,,,,,,44.0,,,,,,,,,,,,,,,,,,,,,,,,,,,,,,,,264.0,1.0,,,,,
258,,iti,,html-keyboard-response,258,179364,0.0-1.0-46.0-0.0-5.0,0,0,32,,,,,,,,,,,,,,,,,,,,,,,,,,,,,,,,,,,,,,267.0,3.0,,,,,
259,,choice,,html-keyboard-response,259,179592,0.0-1.0-47.0-0.0-0.0,0,0,32,,224.0,,,50.0,45.0,345.0,3500.0,2000.0,0.0,6.0,0.0,20-20,,,bongo,flashlight,20.0,20.0,bongo1,flashlight4,0.0,0.0,ABONGO22.jpg,new08.jpg,/static/Category_learning/Stimuli/Experimental_stims/bongo/ABONGO22.jpg,/static/Category_learning/Stimuli/Experimental_stims/flashlight/new08.jpg,1.0,bongo,flashlight,20.0,20.0,bongo1,flashlight4,0.0,0.0,0.0,267.224,0.224,,,,,
260,,confirmation,,html-keyboard-response,260,180874,0.0-1.0-47.0-0.0-1.0-0.0,0,0,32,,,,,,45.0,,,,,,,,,,,,,,,,,,,,,,,,,,,,,,,,268.5,1.276,,,,,
261,,isi,,html-keyboard-response,261,180978,0.0-1.0-47.0-0.0-2.0,0,0,32,,,,,,,,,,,,,,,,,,,,,,,,,,,,,,,,,,,,,,272.0,3.5,,,,,
262,,feedback,,html-keyboard-response,262,181983,0.0-1.0-47.0-0.0-3.0-0.0,0,0,32,,,,,,45.0,,,,,,,,,,,,,,,,,,,,,,,,,,,,,,,,273.0,1.0,,,,,
263,,iti,,html-keyboard-response,263,182091,0.0-1.0-47.0-0.0-5.0,0,0,32,,,,,,,,,,,,,,,,,,,,,,,,,,,,,,,,,,,,,,275.0,2.0,,,,,
264,,choice,,html-keyboard-response,264,182449,0.0-1.0-48.0-0.0-0.0,0,0,32,,354.0,,,50.0,46.0,346.0,2000.0,3000.0,0.0,6.0,0.0,20-80,,1.0,tent,bench,80.0,20.0,tent2,bench14,60.0,0.0,Atent16.jpg,APARKBENC.jpg,/static/Category_learning/Stimuli/Experimental_stims/tent/Atent16.jpg,/static/Category_learning/Stimuli/Experimental_stims/bench/APARKBENC.jpg,1.0,tent,bench,80.0,20.0,tent2,bench14,60.0,0.0,0.0,275.354,0.354,,,,,
265,,confirmation,,html-keyboard-response,265,183603,0.0-1.0-48.0-0.0-1.0-0.0,0,0,32,,,,,,46.0,,,,,,,,,,,,,,,,,,,,,,,,,,,,,,,,276.5,1.146,,,,,
266,,isi,,html-keyboard-response,266,183708,0.0-1.0-48.0-0.0-2.0,0,0,32,,,,,,,,,,,,,,,,,,,,,,,,,,,,,,,,,,,,,,278.5,2.0,,,,,
267,,feedback,,html-keyboard-response,267,184717,0.0-1.0-48.0-0.0-3.0-0.0,0,0,32,,,,,,46.0,,,,,,,,,,,,,,,,,,,,,,,,,,,,,,,,279.5,1.0,,,,,
268,,iti,,html-keyboard-response,268,184824,0.0-1.0-48.0-0.0-5.0,0,0,32,,,,,,,,,,,,,,,,,,,,,,,,,,,,,,,,,,,,,,282.5,3.0,,,,,
269,,choice,,html-keyboard-response,269,184827,0.0-1.0-49.0-0.0-0.0,0,0,32,,0.0,,,50.0,47.0,347.0,1000.0,1500.0,0.0,6.0,0.0,40-60,,0.0,license plate,nail polish,40.0,60.0,license plate8,nail polish4,60.0,40.0,dc-vrw-jsw.jpg,8027_O.jpg,/static/Category_learning/Stimuli/Experimental_stims/license plate/dc-vrw-jsw.jpg,/static/Category_learning/Stimuli/Experimental_stims/nail polish/8027_O.jpg,1.0,license plate,nail polish,40.0,60.0,license plate8,nail polish4,60.0,40.0,0.0,282.5,0.0,,,,,
270,,confirmation,,html-keyboard-response,270,186332,0.0-1.0-49.0-0.0-1.0-0.0,0,0,32,,,,,,47.0,,,,,,,,,,,,,,,,,,,,,,,,,,,,,,,,284.0,1.5,,,,,
271,,isi,,html-keyboard-response,271,186437,0.0-1.0-49.0-0.0-2.0,0,0,32,,,,,,,,,,,,,,,,,,,,,,,,,,,,,,,,,,,,,,285.0,1.0,,,,,
272,,feedback,,html-keyboard-response,272,187444,0.0-1.0-49.0-0.0-3.0-0.0,0,0,32,,,,,,47.0,,,,,,,,,,,,,,,,,,,,,,,,,,,,,,,,286.0,1.0,,,,,
273,,iti,,html-keyboard-response,273,187552,0.0-1.0-49.0-0.0-5.0,0,0,32,,,,,,,,,,,,,,,,,,,,,,,,,,,,,,,,,,,,,,287.5,1.5,,,,,
274,,choice,,html-keyboard-response,274,188055,0.0-1.0-50.0-0.0-0.0,0,0,32,,499.0,,,50.0,48.0,348.0,1000.0,1500.0,0.0,6.0,0.0,40-80,,1.0,watch,makeup compact,80.0,40.0,watch11,makeup compact4,80.0,60.0,B00020ODHO.01-A2E7J74KJYV9ZH._AA280_SCLZZZZZZZ_V65957276_.jpg,262668_fpx.jpg,/static/Category_learning/Stimuli/Experimental_stims/watch/B00020ODHO.01-A2E7J74KJYV9ZH._AA280_SCLZZZZZZZ_V65957276_.jpg,/static/Category_learning/Stimuli/Experimental_stims/makeup compact/262668_fpx.jpg,1.0,watch,makeup compact,80.0,40.0,watch11,makeup compact4,80.0,60.0,0.0,287.999,0.499,,,,,
275,,confirmation,,html-keyboard-response,275,189064,0.0-1.0-50.0-0.0-1.0-0.0,0,0,32,,,,,,48.0,,,,,,,,,,,,,,,,,,,,,,,,,,,,,,,,289.0,1.001,,,,,
276,,isi,,html-keyboard-response,276,189168,0.0-1.0-50.0-0.0-2.0,0,0,32,,,,,,,,,,,,,,,,,,,,,,,,,,,,,,,,,,,,,,290.0,1.0,,,,,
277,,feedback,,html-keyboard-response,277,190174,0.0-1.0-50.0-0.0-3.0-0.0,0,0,32,,,,,,48.0,,,,,,,,,,,,,,,,,,,,,,,,,,,,,,,,291.0,1.0,,,,,
278,,iti,,html-keyboard-response,278,190277,0.0-1.0-50.0-0.0-5.0,0,0,32,,,,,,,,,,,,,,,,,,,,,,,,,,,,,,,,,,,,,,292.5,1.5,,,,,
279,,choice,,html-keyboard-response,279,190696,0.0-1.0-51.0-0.0-0.0,0,0,32,,416.0,,,50.0,49.0,349.0,1500.0,2000.0,0.0,6.0,0.0,40-60,,0.0,key chain,necklace,40.0,60.0,key chain15,necklace5,60.0,60.0,Soft_PVC_Keychain.jpg,necklascenew08.jpg,/static/Category_learning/Stimuli/Experimental_stims/key chain/Soft_PVC_Keychain.jpg,/static/Category_learning/Stimuli/Experimental_stims/necklace/necklascenew08.jpg,1.0,key chain,necklace,40.0,60.0,key chain15,necklace5,60.0,60.0,0.0,292.916,0.416,,,,,
280,,confirmation,,html-keyboard-response,280,191786,0.0-1.0-51.0-0.0-1.0-0.0,0,0,32,,,,,,49.0,,,,,,,,,,,,,,,,,,,,,,,,,,,,,,,,294.0,1.084,,,,,
281,,isi,,html-keyboard-response,281,191893,0.0-1.0-51.0-0.0-2.0,0,0,32,,,,,,,,,,,,,,,,,,,,,,,,,,,,,,,,,,,,,,295.5,1.5,,,,,
282,,feedback,,html-keyboard-response,282,192901,0.0-1.0-51.0-0.0-3.0-0.0,0,0,32,,,,,,49.0,,,,,,,,,,,,,,,,,,,,,,,,,,,,,,,,296.5,1.0,,,,,
283,,iti,,html-keyboard-response,283,193007,0.0-1.0-51.0-0.0-5.0,0,0,32,,,,,,,,,,,,,,,,,,,,,,,,,,,,,,,,,,,,,,298.5,2.0,,,,,
284,,choice,,html-keyboard-response,284,193038,0.0-1.0-52.0-0.0-0.0,0,0,32,,27.0,,,50.0,50.0,350.0,3000.0,3000.0,0.0,6.0,0.0,20-60,,1.0,poker card,desk,60.0,20.0,poker card10,desk12,40.0,40.0,22864488.thl.jpg,ADESK19.jpg,/static/Category_learning/Stimuli/Experimental_stims/poker card/22864488.thl.jpg,/static/Category_learning/Stimuli/Experimental_stims/desk/ADESK19.jpg,1.0,poker card,desk,60.0,20.0,poker card10,desk12,40.0,40.0,0.0,298.527,0.027,,,,,
285,,confirmation,,html-keyboard-response,285,194519,0.0-1.0-52.0-0.0-1.0-0.0,0,0,32,,,,,,50.0,,,,,,,,,,,,,,,,,,,,,,,,,,,,,,,,300.0,1.473,,,,,
286,,isi,,html-keyboard-response,286,194623,0.0-1.0-52.0-0.0-2.0,0,0,32,,,,,,,,,,,,,,,,,,,,,,,,,,,,,,,,,,,,,,303.0,3.0,,,,,
287,,feedback,,html-keyboard-response,287,195630,0.0-1.0-52.0-0.0-3.0-0.0,0,0,32,,,,,,50.0,,,,,,,,,,,,,,,,,,,,,,,,,,,,,,,,304.0,1.0,,,,,
288,,iti,,html-keyboard-response,288,195737,0.0-1.0-52.0-0.0-5.0,0,0,32,,,,,,,,,,,,,,,,,,,,,,,,,,,,,,,,,,,,,,307.0,3.0,,,,,
289,,choice,,html-keyboard-response,289,196098,0.0-1.0-53.0-0.0-0.0,0,0,32,,358.0,,,50.0,51.0,351.0,1500.0,1000.0,0.0,6.0,0.0,20-80,,0.0,door knob,trumpet,20.0,80.0,door knob13,trumpet13,0.0,80.0,500_CLAWALBC.jpg,JUPITER+JTR1600GS.jpg,/static/Category_learning/Stimuli/Experimental_stims/door knob/500_CLAWALBC.jpg,/static/Category_learning/Stimuli/Experimental_stims/trumpet/JUPITER+JTR1600GS.jpg,1.0,door knob,trumpet,20.0,80.0,door knob13,trumpet13,0.0,80.0,0.0,307.358,0.358,,,,,
290,,confirmation,,html-keyboard-response,290,197249,0.0-1.0-53.0-0.0-1.0-0.0,0,0,32,,,,,,51.0,,,,,,,,,,,,,,,,,,,,,,,,,,,,,,,,308.5,1.142,,,,,
291,,isi,,html-keyboard-response,291,197356,0.0-1.0-53.0-0.0-2.0,0,0,32,,,,,,,,,,,,,,,,,,,,,,,,,,,,,,,,,,,,,,310.0,1.5,,,,,
292,,feedback,,html-keyboard-response,292,198361,0.0-1.0-53.0-0.0-3.0-0.0,0,0,32,,,,,,51.0,,,,,,,,,,,,,,,,,,,,,,,,,,,,,,,,311.0,1.0,,,,,
293,,iti,,html-keyboard-response,293,198466,0.0-1.0-53.0-0.0-5.0,0,0,32,,,,,,,,,,,,,,,,,,,,,,,,,,,,,,,,,,,,,,312.0,1.0,,,,,
294,,choice,,html-keyboard-response,294,199336,0.0-1.0-54.0-0.0-0.0,0,0,32,,866.0,,,50.0,52.0,352.0,3000.0,1000.0,0.0,6.0,1.0,20-20,1.0,,baby carriage,baby carriage,20.0,20.0,baby carriage15,baby carriage3,0.0,20.0,AANBABYC2.jpg,Stroller.jpg,/static/Category_learning/Stimuli/Experimental_stims/baby carriage/AANBABYC2.jpg,/static/Category_learning/Stimuli/Experimental_stims/baby carriage/Stroller.jpg,1.0,baby carriage,baby carriage,20.0,20.0,baby carriage15,baby carriage3,0.0,20.0,0.0,312.866,0.866,,,,,
295,,confirmation,,html-keyboard-response,295,199978,0.0-1.0-54.0-0.0-1.0-0.0,0,0,32,,,,,,52.0,,,,,,,,,,,,,,,,,,,,,,,,,,,,,,,,313.5,0.634,,,,,
296,,isi,,html-keyboard-response,296,200084,0.0-1.0-54.0-0.0-2.0,0,0,32,,,,,,,,,,,,,,,,,,,,,,,,,,,,,,,,,,,,,,316.5,3.0,,,,,
297,,feedback,,html-keyboard-response,297,201093,0.0-1.0-54.0-0.0-3.0-0.0,0,0,32,,,,,,52.0,,,,,,,,,,,,,,,,,,,,,,,,,,,,,,,,317.5,1.0,,,,,
298,,iti,,html-keyboard-response,298,201201,0.0-1.0-54.0-0.0-5.0,0,0,32,,,,,,,,,,,,,,,,,,,,,,,,,,,,,,,,,,,,,,318.5,1.0,,,,,
299,,choice,,html-keyboard-response,299,201906,0.0-1.0-55.0-0.0-0.0,0,0,32,,701.0,,,50.0,53.0,353.0,1000.0,2000.0,0.0,6.0,0.0,20-80,,0.0,door knob,watch,20.0,80.0,door knob2,watch2,0.0,60.0,500_DECWHIPB.jpg,AL0004-03E_MED.jpg,/static/Category_learning/Stimuli/Experimental_stims/door knob/500_DECWHIPB.jpg,/static/Category_learning/Stimuli/Experimental_stims/watch/AL0004-03E_MED.jpg,1.0,door knob,watch,20.0,80.0,door knob2,watch2,0.0,60.0,0.0,319.201,0.701,,,,,
300,,confirmation,,html-keyboard-response,300,202711,0.0-1.0-55.0-0.0-1.0-0.0,0,0,32,,,,,,53.0,,,,,,,,,,,,,,,,,,,,,,,,,,,,,,,,320.0,0.799,,,,,
301,,isi,,html-keyboard-response,301,202818,0.0-1.0-55.0-0.0-2.0,0,0,32,,,,,,,,,,,,,,,,,,,,,,,,,,,,,,,,,,,,,,321.0,1.0,,,,,
302,,feedback,,html-keyboard-response,302,203826,0.0-1.0-55.0-0.0-3.0-0.0,0,0,32,,,,,,53.0,,,,,,,,,,,,,,,,,,,,,,,,,,,,,,,,322.0,1.0,,,,,
303,,iti,,html-keyboard-response,303,203933,0.0-1.0-55.0-0.0-5.0,0,0,32,,,,,,,,,,,,,,,,,,,,,,,,,,,,,,,,,,,,,,324.0,2.0,,,,,
304,,choice,,html-keyboard-response,304,204423,0.0-1.0-56.0-0.0-0.0,0,0,32,,487.0,,,50.0,54.0,354.0,2000.0,1000.0,0.0,6.0,0.0,40-80,,1.0,tent,lipstick,80.0,40.0,tent8,lipstick2,80.0,20.0,quechua_tent-1.jpg,11uuoPMY+OL._SS500_.jpg,/static/Category_learning/Stimuli/Experimental_stims/tent/quechua_tent-1.jpg,/static/Category_learning/Stimuli/Experimental_stims/lipstick/11uuoPMY+OL._SS500_.jpg,1.0,tent,lipstick,80.0,40.0,tent8,lipstick2,80.0,20.0,0.0,324.487,0.487,,,,,
305,,confirmation,,html-keyboard-response,305,205445,0.0-1.0-56.0-0.0-1.0-0.0,0,0,32,,,,,,54.0,,,,,,,,,,,,,,,,,,,,,,,,,,,,,,,,325.5,1.013,,,,,
306,,isi,,html-keyboard-response,306,205551,0.0-1.0-56.0-0.0-2.0,0,0,32,,,,,,,,,,,,,,,,,,,,,,,,,,,,,,,,,,,,,,327.5,2.0,,,,,
307,,feedback,,html-keyboard-response,307,206560,0.0-1.0-56.0-0.0-3.0-0.0,0,0,32,,,,,,54.0,,,,,,,,,,,,,,,,,,,,,,,,,,,,,,,,328.5,1.0,,,,,
308,,iti,,html-keyboard-response,308,206667,0.0-1.0-56.0-0.0-5.0,0,0,32,,,,,,,,,,,,,,,,,,,,,,,,,,,,,,,,,,,,,,329.5,1.0,,,,,
309,,choice,,html-keyboard-response,309,207352,0.0-1.0-57.0-0.0-0.0,0,0,32,,682.0,,,50.0,55.0,355.0,3500.0,1000.0,0.0,6.0,0.0,20-80,,0.0,bench,tape,20.0,80.0,bench12,tape1,40.0,100.0,22927976.thl.jpg,aktotape_01.jpg,/static/Category_learning/Stimuli/Experimental_stims/bench/22927976.thl.jpg,/static/Category_learning/Stimuli/Experimental_stims/tape/aktotape_01.jpg,1.0,bench,tape,20.0,80.0,bench12,tape1,40.0,100.0,0.0,330.182,0.682,,,,,
310,,confirmation,,html-keyboard-response,310,208178,0.0-1.0-57.0-0.0-1.0-0.0,0,0,32,,,,,,55.0,,,,,,,,,,,,,,,,,,,,,,,,,,,,,,,,331.0,0.818,,,,,
311,,isi,,html-keyboard-response,311,208283,0.0-1.0-57.0-0.0-2.0,0,0,32,,,,,,,,,,,,,,,,,,,,,,,,,,,,,,,,,,,,,,334.5,3.5,,,,,
312,,feedback,,html-keyboard-response,312,209290,0.0-1.0-57.0-0.0-3.0-0.0,0,0,32,,,,,,55.0,,,,,,,,,,,,,,,,,,,,,,,,,,,,,,,,335.5,1.0,,,,,
313,,iti,,html-keyboard-response,313,209397,0.0-1.0-57.0-0.0-5.0,0,0,32,,,,,,,,,,,,,,,,,,,,,,,,,,,,,,,,,,,,,,336.5,1.0,,,,,
314,,choice,,html-keyboard-response,314,210137,0.0-1.0-58.0-0.0-0.0,0,0,32,,737.0,,,50.0,56.0,356.0,2000.0,1500.0,0.0,6.0,1.0,40-40,1.0,,key chain,key chain,40.0,40.0,key chain2,key chain15,40.0,60.0,superman_returns_pewter_keychain_2.jpg,Soft_PVC_Keychain.jpg,/static/Category_learning/Stimuli/Experimental_stims/key chain/superman_returns_pewter_keychain_2.jpg,/static/Category_learning/Stimuli/Experimental_stims/key chain/Soft_PVC_Keychain.jpg,1.0,key chain,key chain,40.0,40.0,key chain2,key chain15,40.0,60.0,0.0,337.237,0.737,,,,,
315,,confirmation,,html-keyboard-response,315,210906,0.0-1.0-58.0-0.0-1.0-0.0,0,0,32,,,,,,56.0,,,,,,,,,,,,,,,,,,,,,,,,,,,,,,,,338.0,0.763,,,,,
316,,isi,,html-keyboard-response,316,211013,0.0-1.0-58.0-0.0-2.0,0,0,32,,,,,,,,,,,,,,,,,,,,,,,,,,,,,,,,,,,,,,340.0,2.0,,,,,
317,,feedback,,html-keyboard-response,317,212021,0.0-1.0-58.0-0.0-3.0-0.0,0,0,32,,,,,,56.0,,,,,,,,,,,,,,,,,,,,,,,,,,,,,,,,341.0,1.0,,,,,
318,,iti,,html-keyboard-response,318,212128,0.0-1.0-58.0-0.0-5.0,0,0,32,,,,,,,,,,,,,,,,,,,,,,,,,,,,,,,,,,,,,,342.5,1.5,,,,,
319,,choice,,html-keyboard-response,319,212226,0.0-1.0-59.0-0.0-0.0,0,0,32,,94.0,,,50.0,57.0,357.0,2000.0,1000.0,0.0,6.0,0.0,80-80,,,yarn,trumpet,80.0,80.0,yarn15,trumpet11,80.0,60.0,rainbowscarf-600x394.jpg,JUPITER+JTR604L.jpg,/static/Category_learning/Stimuli/Experimental_stims/yarn/rainbowscarf-600x394.jpg,/static/Category_learning/Stimuli/Experimental_stims/trumpet/JUPITER+JTR604L.jpg,1.0,yarn,trumpet,80.0,80.0,yarn15,trumpet11,80.0,60.0,0.0,342.594,0.094,,,,,
320,,confirmation,,html-keyboard-response,320,213638,0.0-1.0-59.0-0.0-1.0-0.0,0,0,32,,,,,,57.0,,,,,,,,,,,,,,,,,,,,,,,,,,,,,,,,344.0,1.406,,,,,
321,,isi,,html-keyboard-response,321,213745,0.0-1.0-59.0-0.0-2.0,0,0,32,,,,,,,,,,,,,,,,,,,,,,,,,,,,,,,,,,,,,,346.0,2.0,,1.07,,,
322,,final_tally,,html-keyboard-response,322,214953,0.0-2.0-0.0,0,0,32,,1205.0,,,50.0,,,,,,,,,,,,,,,,,,,,,,,,,,,,,,,,,,,,,,,
323,,category_memory_instructions,,instructions,323,228960,0.0-3.0-0.0,0,0,32,"[{""page_index"":0,""viewing_time"":8711},{""page_index"":1,""viewing_time"":1784},{""page_index"":2,""viewing_time"":1418},{""page_index"":1,""viewing_time"":1305},{""page_index"":2,""viewing_time"":765}]",13984.0,,,,,,,,,,,,,,,,,,,,,,,,,,,,,,,,,,,,,,,,,,
324,,category_memory,,survey-text,324,234840,0.0-3.0-1.0-0.0,0,0,32,,5876.0,"{""Q0"":""1""}",,,0.0,,,,,,,,,,,,,,,,,,,,,,,,,,,,,,,,,,,,lipstick,40.0,1.0
325,,category_memory,,survey-text,325,236061,0.0-3.0-2.0-0.0,0,0,32,,1218.0,"{""Q0"":""2""}",,,1.0,,,,,,,,,,,,,,,,,,,,,,,,,,,,,,,,,,,,watch,80.0,2.0
326,,category_memory,,survey-text,326,237261,0.0-3.0-3.0-0.0,0,0,32,,1197.0,"{""Q0"":""3""}",,,2.0,,,,,,,,,,,,,,,,,,,,,,,,,,,,,,,,,,,,small table,60.0,3.0
327,,category_memory,,survey-text,327,238475,0.0-3.0-4.0-0.0,0,0,32,,1210.0,"{""Q0"":""33""}",,,3.0,,,,,,,,,,,,,,,,,,,,,,,,,,,,,,,,,,,,makeup compact,40.0,33.0
328,,category_memory,,survey-text,328,239662,0.0-3.0-5.0-0.0,0,0,32,,1183.0,"{""Q0"":""44""}",,,4.0,,,,,,,,,,,,,,,,,,,,,,,,,,,,,,,,,,,,tent,80.0,44.0
329,,category_memory,,survey-text,329,241024,0.0-3.0-6.0-0.0,0,0,32,,1359.0,"{""Q0"":""44""}",,,5.0,,,,,,,,,,,,,,,,,,,,,,,,,,,,,,,,,,,,desk,20.0,44.0
330,,category_memory,,survey-text,330,242271,0.0-3.0-7.0-0.0,0,0,32,,1243.0,"{""Q0"":""43""}",,,6.0,,,,,,,,,,,,,,,,,,,,,,,,,,,,,,,,,,,,microscope,40.0,43.0
331,,category_memory,,survey-text,331,243575,0.0-3.0-8.0-0.0,0,0,32,,1300.0,"{""Q0"":""22""}",,,7.0,,,,,,,,,,,,,,,,,,,,,,,,,,,,,,,,,,,,power strip,60.0,22.0
332,,category_memory,,survey-text,332,245002,0.0-3.0-9.0-0.0,0,0,32,,1422.0,"{""Q0"":""34""}",,,8.0,,,,,,,,,,,,,,,,,,,,,,,,,,,,,,,,,,,,train,80.0,34.0
333,,category_memory,,survey-text,333,246280,0.0-3.0-10.0-0.0,0,0,32,,1276.0,"{""Q0"":""32""}",,,9.0,,,,,,,,,,,,,,,,,,,,,,,,,,,,,,,,,,,,bench,20.0,32.0
334,,category_memory,,survey-text,334,247644,0.0-3.0-11.0-0.0,0,0,32,,1360.0,"{""Q0"":""332""}",,,10.0,,,,,,,,,,,,,,,,,,,,,,,,,,,,,,,,,,,,bowl,20.0,332.0
335,,enter_response_between_range,,html-keyboard-response,335,249657,0.0-3.0-11.0-2.0-0.0,1,0,32,,2010.0,,,50.0,,,,,,,,,,,,,,,,,,,,,,,,,,,,,,,,,,,,,,,
336,,category_memory,,survey-text,336,251204,0.0-3.0-11.1-0.1,0,0,32,,1545.0,"{""Q0"":""1""}",,,10.0,,,,,,,,,,,,,,,,,,,,,,,,,,,,,,,,,,,,bowl,20.0,1.0
337,,category_memory,,survey-text,337,252350,0.0-3.0-12.0-0.0,0,0,32,,1142.0,"{""Q0"":""2""}",,,11.0,,,,,,,,,,,,,,,,,,,,,,,,,,,,,,,,,,,,bongo,20.0,2.0
338,,category_memory,,survey-text,338,253436,0.0-3.0-13.0-0.0,0,0,32,,1083.0,"{""Q0"":""3""}",,,12.0,,,,,,,,,,,,,,,,,,,,,,,,,,,,,,,,,,,,motorcycle,40.0,3.0
339,,category_memory,,survey-text,339,254648,0.0-3.0-14.0-0.0,0,0,32,,1209.0,"{""Q0"":""4""}",,,13.0,,,,,,,,,,,,,,,,,,,,,,,,,,,,,,,,,,,,necklace,60.0,4.0
340,,category_memory,,survey-text,340,256614,0.0-3.0-15.0-0.0,0,0,32,,1962.0,"{""Q0"":""6""}",,,14.0,,,,,,,,,,,,,,,,,,,,,,,,,,,,,,,,,,,,patio lounge chair,60.0,6.0
341,,category_memory,,survey-text,341,257859,0.0-3.0-16.0-0.0,0,0,32,,1242.0,"{""Q0"":""6""}",,,15.0,,,,,,,,,,,,,,,,,,,,,,,,,,,,,,,,,,,,hat,40.0,6.0
342,,category_memory,,survey-text,342,259072,0.0-3.0-17.0-0.0,0,0,32,,1210.0,"{""Q0"":""66""}",,,16.0,,,,,,,,,,,,,,,,,,,,,,,,,,,,,,,,,,,,yarn,80.0,66.0
343,,category_memory,,survey-text,343,260237,0.0-3.0-18.0-0.0,0,0,32,,1162.0,"{""Q0"":""55""}",,,17.0,,,,,,,,,,,,,,,,,,,,,,,,,,,,,,,,,,,,flashlight,20.0,55.0
344,,category_memory,,survey-text,344,261415,0.0-3.0-19.0-0.0,0,0,32,,1175.0,"{""Q0"":""55""}",,,18.0,,,,,,,,,,,,,,,,,,,,,,,,,,,,,,,,,,,,nail polish,60.0,55.0
345,,category_memory,,survey-text,345,262575,0.0-3.0-20.0-0.0,0,0,32,,1157.0,"{""Q0"":""55""}",,,19.0,,,,,,,,,,,,,,,,,,,,,,,,,,,,,,,,,,,,door knob,20.0,55.0
346,,category_memory,,survey-text,346,263725,0.0-3.0-21.0-0.0,0,0,32,,1147.0,"{""Q0"":""55""}",,,20.0,,,,,,,,,,,,,,,,,,,,,,,,,,,,,,,,,,,,pen,60.0,55.0
347,,category_memory,,survey-text,347,264879,0.0-3.0-22.0-0.0,0,0,32,,1151.0,"{""Q0"":""55""}",,,21.0,,,,,,,,,,,,,,,,,,,,,,,,,,,,,,,,,,,,frame,40.0,55.0
348,,category_memory,,survey-text,348,266058,0.0-3.0-23.0-0.0,0,0,32,,1176.0,"{""Q0"":""55""}",,,22.0,,,,,,,,,,,,,,,,,,,,,,,,,,,,,,,,,,,,hammer,40.0,55.0
349,,category_memory,,survey-text,349,267259,0.0-3.0-24.0-0.0,0,0,32,,1197.0,"{""Q0"":""44""}",,,23.0,,,,,,,,,,,,,,,,,,,,,,,,,,,,,,,,,,,,seashell,60.0,44.0
350,,category_memory,,survey-text,350,269112,0.0-3.0-25.0-0.0,0,0,32,,1850.0,"{""Q0"":""44""}",,,24.0,,,,,,,,,,,,,,,,,,,,,,,,,,,,,,,,,,,,baby carriage,20.0,44.0
351,,category_memory,,survey-text,351,270334,0.0-3.0-26.0-0.0,0,0,32,,1219.0,"{""Q0"":""44""}",,,25.0,,,,,,,,,,,,,,,,,,,,,,,,,,,,,,,,,,,,vase,80.0,44.0
352,,category_memory,,survey-text,352,271499,0.0-3.0-27.0-0.0,0,0,32,,1161.0,"{""Q0"":""44""}",,,26.0,,,,,,,,,,,,,,,,,,,,,,,,,,,,,,,,,,,,sofa,60.0,44.0
353,,category_memory,,survey-text,353,272748,0.0-3.0-28.0-0.0,0,0,32,,1246.0,"{""Q0"":""44""}",,,27.0,,,,,,,,,,,,,,,,,,,,,,,,,,,,,,,,,,,,key chain,40.0,44.0
354,,category_memory,,survey-text,354,274543,0.0-3.0-29.0-0.0,0,0,32,,1791.0,"{""Q0"":""55""}",,,28.0,,,,,,,,,,,,,,,,,,,,,,,,,,,,,,,,,,,,trumpet,80.0,55.0
355,,category_memory,,survey-text,355,275856,0.0-3.0-30.0-0.0,0,0,32,,1310.0,"{""Q0"":""66""}",,,29.0,,,,,,,,,,,,,,,,,,,,,,,,,,,,,,,,,,,,dresser,20.0,66.0
356,,category_memory,,survey-text,356,277333,0.0-3.0-31.0-0.0,0,0,32,,1472.0,"{""Q0"":""66""}",,,30.0,,,,,,,,,,,,,,,,,,,,,,,,,,,,,,,,,,,,poker card,60.0,66.0
357,,category_memory,,survey-text,357,278511,0.0-3.0-32.0-0.0,0,0,32,,1173.0,"{""Q0"":""55""}",,,31.0,,,,,,,,,,,,,,,,,,,,,,,,,,,,,,,,,,,,stool,80.0,55.0
358,,category_memory,,survey-text,358,280282,0.0-3.0-33.0-0.0,0,0,32,,1768.0,"{""Q0"":""44""}",,,32.0,,,,,,,,,,,,,,,,,,,,,,,,,,,,,,,,,,,,telescope,80.0,44.0
359,,category_memory,,survey-text,359,281583,0.0-3.0-34.0-0.0,0,0,32,,1298.0,"{""Q0"":""33""}",,,33.0,,,,,,,,,,,,,,,,,,,,,,,,,,,,,,,,,,,,fan,20.0,33.0
360,,category_memory,,survey-text,360,282832,0.0-3.0-35.0-0.0,0,0,32,,1245.0,"{""Q0"":""44""}",,,34.0,,,,,,,,,,,,,,,,,,,,,,,,,,,,,,,,,,,,tape,80.0,44.0
361,,category_memory,,survey-text,361,284180,0.0-3.0-36.0-0.0,0,0,32,,1345.0,"{""Q0"":""55""}",,,35.0,,,,,,,,,,,,,,,,,,,,,,,,,,,,,,,,,,,,license plate,40.0,55.0
