,success,ttype,start_time,trial_type,trial_index,time_elapsed,internal_node_id,warning,missed_checkup,PID,view_history,rt,responses,repeat_instructions,key_press,index,trial_num,isi,iti,is_practice,block,old_trial,pair_type,within_category,high_cat_on_left,left_category,right_category,left_category_value,right_category_value,left_exemplar,right_exemplar,left_exemplar_value,right_exemplar_value,left_img,right_img,left_img_path,right_img_path,left_chosen,chosen_category,unchosen_category,chosen_category_value,unchosen_category_value,chosen_exemplar,unchosen_exemplar,chosen_exemplar_value,unchosen_exemplar_value,no_response,onset,duration,end_practice,total_bonus_tally,category,category_group_value,category_value_response
0,True,full_screen,d05182022hr1943,fullscreen,0,2373,0.0-0.0,0,0,6,,,,,,,,,,,,,,,,,,,,,,,,,,,,,,,,,,,,,,,,,,,,
1,,category_learning_instructions,,instructions,1,6437,0.0-1.0-0.0-0.0,0,0,6,"[{""page_index"":0,""viewing_time"":1897},{""page_index"":1,""viewing_time"":733},{""page_index"":2,""viewing_time"":483},{""page_index"":3,""viewing_time"":316},{""page_index"":4,""viewing_time"":259},{""page_index"":5,""viewing_time"":213},{""page_index"":6,""viewing_time"":162}]",4063.0,,,,,,,,,,,,,,,,,,,,,,,,,,,,,,,,,,,,,,,,,,
2,,category_learning_comprehension_check,,survey-multi-choice,2,11040,0.0-1.0-0.0-1.0,0,0,6,,4598.0,"{""Q0"":""True"",""Q1"":""True"",""Q2"":""Stay the same"",""Q3"":""pointer finger for left and middle finger for right""}",0.0,,,,,,,,,,,,,,,,,,,,,,,,,,,,,,,,,,,,,,,,
3,,,,html-keyboard-response,3,11817,0.0-1.0-1.0,0,0,6,,773.0,,,50.0,,,,,,,,,,,,,,,,,,,,,,,,,,,,,,,,,,,,,,,
4,,choice,,html-keyboard-response,4,12219,0.0-1.0-2.0-0.0-0.0,0,0,6,,398.0,,,50.0,0.0,0.0,1500.0,1000.0,1.0,0.0,0.0,20-80,,0.0,bagel,dumbbell,20.0,80.0,bagel1,dumbbell1,0.0,80.0,bagels_pumpernickel_large.jpg,31B64EN68AL._AA280_.jpg,/static/Category_learning/Stimuli/Practice_stims/bagel/bagels_pumpernickel_large.jpg,/static/Category_learning/Stimuli/Practice_stims/dumbbell/31B64EN68AL._AA280_.jpg,1.0,bagel,dumbbell,20.0,80.0,bagel1,dumbbell1,0.0,80.0,0.0,0.39799999999999996,0.39799999999999996,,,,,
5,,confirmation,,html-keyboard-response,5,13327,0.0-1.0-2.0-0.0-1.0-0.0,0,0,6,,,,,,0.0,,,,,,,,,,,,,,,,,,,,,,,,,,,,,,,,1.5,1.102,,,,,
6,,isi,,html-keyboard-response,6,13432,0.0-1.0-2.0-0.0-2.0,0,0,6,,,,,,,,,,,,,,,,,,,,,,,,,,,,,,,,,,,,,,3.0,1.5,,,,,
7,,feedback,,html-keyboard-response,7,14438,0.0-1.0-2.0-0.0-3.0-0.0,0,0,6,,,,,,0.0,,,,,,,,,,,,,,,,,,,,,,,,,,,,,,,,4.0,1.0,,,,,
8,,iti,,html-keyboard-response,8,14544,0.0-1.0-2.0-0.0-5.0,0,0,6,,,,,,,,,,,,,,,,,,,,,,,,,,,,,,,,,,,,,,5.0,1.0,,,,,
9,,choice,,html-keyboard-response,9,15344,0.0-1.0-3.0-0.0-0.0,0,0,6,,796.0,,,51.0,1.0,1.0,3000.0,1500.0,1.0,0.0,0.0,20-40,,1.0,calculator,bagel,40.0,20.0,calculator2,bagel2,20.0,20.0,22829064.thl.jpg,bagels_cinnraisin_large.jpg,/static/Category_learning/Stimuli/Practice_stims/calculator/22829064.thl.jpg,/static/Category_learning/Stimuli/Practice_stims/bagel/bagels_cinnraisin_large.jpg,0.0,bagel,calculator,20.0,40.0,bagel2,calculator2,20.0,20.0,0.0,5.796,0.7959999999999999,,,,,
10,,confirmation,,html-keyboard-response,10,16056,0.0-1.0-3.0-0.0-1.0-0.0,0,0,6,,,,,,1.0,,,,,,,,,,,,,,,,,,,,,,,,,,,,,,,,6.5,0.7040000000000001,,,,,
11,,isi,,html-keyboard-response,11,16162,0.0-1.0-3.0-0.0-2.0,0,0,6,,,,,,,,,,,,,,,,,,,,,,,,,,,,,,,,,,,,,,9.5,3.0,,,,,
12,,feedback,,html-keyboard-response,12,17165,0.0-1.0-3.0-0.0-3.0-0.0,0,0,6,,,,,,1.0,,,,,,,,,,,,,,,,,,,,,,,,,,,,,,,,10.5,1.0,,,,,
13,,iti,,html-keyboard-response,13,17268,0.0-1.0-3.0-0.0-5.0,0,0,6,,,,,,,,,,,,,,,,,,,,,,,,,,,,,,,,,,,,,,12.0,1.5,,,,,
14,,choice,,html-keyboard-response,14,17707,0.0-1.0-4.0-0.0-0.0,0,0,6,,435.0,,,50.0,2.0,2.0,2000.0,3000.0,1.0,0.0,0.0,60-80,,0.0,clock,dumbbell,60.0,80.0,clock2,dumbbell2,60.0,100.0,26373355.thl.jpg,31K8MR6TMBL._SS500_.jpg,/static/Category_learning/Stimuli/Practice_stims/clock/26373355.thl.jpg,/static/Category_learning/Stimuli/Practice_stims/dumbbell/31K8MR6TMBL._SS500_.jpg,1.0,clock,dumbbell,60.0,80.0,clock2,dumbbell2,60.0,100.0,0.0,12.435,0.435,,,,,
15,,confirmation,,html-keyboard-response,15,18778,0.0-1.0-4.0-0.0-1.0-0.0,0,0,6,,,,,,2.0,,,,,,,,,,,,,,,,,,,,,,,,,,,,,,,,13.5,1.065,,,,,
16,,isi,,html-keyboard-response,16,18882,0.0-1.0-4.0-0.0-2.0,0,0,6,,,,,,,,,,,,,,,,,,,,,,,,,,,,,,,,,,,,,,15.5,2.0,,,,,
17,,feedback,,html-keyboard-response,17,19887,0.0-1.0-4.0-0.0-3.0-0.0,0,0,6,,,,,,2.0,,,,,,,,,,,,,,,,,,,,,,,,,,,,,,,,16.5,1.0,,,,,
18,,iti,,html-keyboard-response,18,19993,0.0-1.0-4.0-0.0-5.0,0,0,6,,,,,,,,,,,,,,,,,,,,,,,,,,,,,,,,,,,,,,19.5,3.0,,,,,
19,,choice,,html-keyboard-response,19,20886,0.0-1.0-5.0-0.0-0.0,0,0,6,,890.0,,,50.0,3.0,3.0,1000.0,2000.0,1.0,0.0,0.0,40-80,,0.0,calculator,clock,40.0,60.0,calculator1,clock1,40.0,40.0,22829184.thl.jpg,Aalarmclock2.jpg,/static/Category_learning/Stimuli/Practice_stims/calculator/22829184.thl.jpg,/static/Category_learning/Stimuli/Practice_stims/clock/Aalarmclock2.jpg,1.0,calculator,clock,40.0,60.0,calculator1,clock1,40.0,40.0,0.0,20.39,0.89,,,,,
20,,confirmation,,html-keyboard-response,20,21502,0.0-1.0-5.0-0.0-1.0-0.0,0,0,6,,,,,,3.0,,,,,,,,,,,,,,,,,,,,,,,,,,,,,,,,21.0,0.61,,,,,
21,,isi,,html-keyboard-response,21,21608,0.0-1.0-5.0-0.0-2.0,0,0,6,,,,,,,,,,,,,,,,,,,,,,,,,,,,,,,,,,,,,,22.0,1.0,,,,,
22,,feedback,,html-keyboard-response,22,22613,0.0-1.0-5.0-0.0-3.0-0.0,0,0,6,,,,,,3.0,,,,,,,,,,,,,,,,,,,,,,,,,,,,,,,,23.0,1.0,,,,,
23,,iti,,html-keyboard-response,23,22720,0.0-1.0-5.0-0.0-5.0,0,0,6,,,,,,,,,,,,,,,,,,,,,,,,,,,,,,,,,,,,,,25.0,2.0,,,,,
24,,choice,,html-keyboard-response,24,23042,0.0-1.0-6.0-0.0-0.0,0,0,6,,319.0,,,50.0,4.0,4.0,2500.0,2500.0,1.0,0.0,0.0,20-60,,1.0,dumbbell,bagel,80.0,20.0,dumbbell3,bagel3,100.0,40.0,41K7QVRX50L._SS500_.jpg,photo-169.jpg,/static/Category_learning/Stimuli/Practice_stims/dumbbell/41K7QVRX50L._SS500_.jpg,/static/Category_learning/Stimuli/Practice_stims/bagel/photo-169.jpg,1.0,dumbbell,bagel,80.0,20.0,dumbbell3,bagel3,100.0,40.0,0.0,25.319000000000003,0.319,1.0,,,,
25,,confirmation,,html-keyboard-response,25,24226,0.0-1.0-6.0-0.0-1.0-0.0,0,0,6,,,,,,4.0,,,,,,,,,,,,,,,,,,,,,,,,,,,,,,,,26.5,1.181,,,,,
26,,isi,,html-keyboard-response,26,24331,0.0-1.0-6.0-0.0-2.0,0,0,6,,,,,,,,,,,,,,,,,,,,,,,,,,,,,,,,,,,,,,29.0,2.5,,,,,
27,,feedback,,html-keyboard-response,27,25339,0.0-1.0-6.0-0.0-3.0-0.0,0,0,6,,,,,,4.0,,,,,,,,,,,,,,,,,,,,,,,,,,,,,,,,30.0,1.0,,,,,
28,,iti,,html-keyboard-response,28,25442,0.0-1.0-6.0-0.0-5.0,0,0,6,,,,,,,,,,,,,,,,,,,,,,,,,,,,,,,,,,,,,,32.5,2.5,,,,,
29,,practice_over,,html-keyboard-response,29,25643,0.0-1.0-6.0-0.0-6.0-0.0,0,0,6,,200.0,,,50.0,4.0,,,,,,,,,,,,,,,,,,,,,,,,,,,,,,,,,,,,,,
30,,start_run,,html-keyboard-response,30,26586,0.0-1.0-6.0-0.0-6.0-1.0,0,0,6,,940.0,,,84.0,,,,,,,,,,,,,,,,,,,,,,,,,,,,,,,,,,,,,,,
31,,choice,,html-keyboard-response,31,27116,0.0-1.0-7.0-0.0-0.0,0,0,6,,527.0,,,50.0,5.0,5.0,2000.0,3500.0,0.0,1.0,0.0,20-60,,0.0,necklace,bench,20.0,60.0,necklace15,bench3,40.0,40.0,necklascenew04.jpg,26419540.thl.jpg,/static/Category_learning/Stimuli/Experimental_stims/necklace/necklascenew04.jpg,/static/Category_learning/Stimuli/Experimental_stims/bench/26419540.thl.jpg,1.0,necklace,bench,20.0,60.0,necklace15,bench3,40.0,40.0,0.0,0.527,0.527,,,,,
32,,confirmation,,html-keyboard-response,32,28092,0.0-1.0-7.0-0.0-1.0-0.0,0,0,6,,,,,,5.0,,,,,,,,,,,,,,,,,,,,,,,,,,,,,,,,1.5,0.973,,,,,
33,,isi,,html-keyboard-response,33,28195,0.0-1.0-7.0-0.0-2.0,0,0,6,,,,,,,,,,,,,,,,,,,,,,,,,,,,,,,,,,,,,,3.5,2.0,,,,,
34,,feedback,,html-keyboard-response,34,29199,0.0-1.0-7.0-0.0-3.0-0.0,0,0,6,,,,,,5.0,,,,,,,,,,,,,,,,,,,,,,,,,,,,,,,,4.5,1.0,,,,,
35,,iti,,html-keyboard-response,35,29304,0.0-1.0-7.0-0.0-5.0,0,0,6,,,,,,,,,,,,,,,,,,,,,,,,,,,,,,,,,,,,,,8.0,3.5,,,,,
36,,choice,,html-keyboard-response,36,29898,0.0-1.0-8.0-0.0-0.0,0,0,6,,591.0,,,50.0,6.0,6.0,2000.0,1000.0,0.0,1.0,0.0,20-20,,,power strip,seashell,20.0,20.0,power strip8,seashell7,40.0,20.0,3118YGHQWXL._AA262_.jpg,seashell34.jpg,/static/Category_learning/Stimuli/Experimental_stims/power strip/3118YGHQWXL._AA262_.jpg,/static/Category_learning/Stimuli/Experimental_stims/seashell/seashell34.jpg,1.0,power strip,seashell,20.0,20.0,power strip8,seashell7,40.0,20.0,0.0,8.591000000000001,0.591,,,,,
37,,confirmation,,html-keyboard-response,37,30812,0.0-1.0-8.0-0.0-1.0-0.0,0,0,6,,,,,,6.0,,,,,,,,,,,,,,,,,,,,,,,,,,,,,,,,9.5,0.909,,,,,
38,,isi,,html-keyboard-response,38,30915,0.0-1.0-8.0-0.0-2.0,0,0,6,,,,,,,,,,,,,,,,,,,,,,,,,,,,,,,,,,,,,,11.5,2.0,,,,,
39,,feedback,,html-keyboard-response,39,31920,0.0-1.0-8.0-0.0-3.0-0.0,0,0,6,,,,,,6.0,,,,,,,,,,,,,,,,,,,,,,,,,,,,,,,,12.5,1.0,,,,,
40,,iti,,html-keyboard-response,40,32025,0.0-1.0-8.0-0.0-5.0,0,0,6,,,,,,,,,,,,,,,,,,,,,,,,,,,,,,,,,,,,,,13.5,1.0,,,,,
41,,choice,,html-keyboard-response,41,33534,0.0-1.0-9.0-0.0-0.0,0,0,6,,,,,,7.0,7.0,1500.0,2000.0,0.0,1.0,0.0,20-40,,1.0,telescope,poker card,40.0,20.0,telescope1,poker card9,20.0,40.0,celestron nexstar 114 gt reflector telescope.jpg,9817230.thl.jpg,/static/Category_learning/Stimuli/Experimental_stims/telescope/celestron nexstar 114 gt reflector telescope.jpg,/static/Category_learning/Stimuli/Experimental_stims/poker card/9817230.thl.jpg,,,,,,,,,,1.0,15.0,1.5,,,,,
42,,isi,,html-keyboard-response,42,33639,0.0-1.0-9.0-0.0-2.0,0,0,6,,,,,,,,,,,,,,,,,,,,,,,,,,,,,,,,,,,,,,16.5,1.5,,,,,
43,,no_response,,html-keyboard-response,43,34647,0.0-1.0-9.0-0.0-4.0-0.0,0,0,6,,,,,,,,,,,,,,,,,,,,,,,,,,,,,,,,,,,,,,17.5,1.0,,,,,
44,,iti,,html-keyboard-response,44,34772,0.0-1.0-9.0-0.0-5.0,0,0,6,,,,,,,,,,,,,,,,,,,,,,,,,,,,,,,,,,,,,,19.5,2.0,,,,,
45,,choice,,html-keyboard-response,45,36279,0.0-1.0-9.0-0.1-0.1,0,0,6,,,,,,7.0,7.0,1500.0,2000.0,0.0,1.0,0.0,20-40,,1.0,telescope,poker card,40.0,20.0,telescope1,poker card9,20.0,40.0,celestron nexstar 114 gt reflector telescope.jpg,9817230.thl.jpg,/static/Category_learning/Stimuli/Experimental_stims/telescope/celestron nexstar 114 gt reflector telescope.jpg,/static/Category_learning/Stimuli/Experimental_stims/poker card/9817230.thl.jpg,,,,,,,,,,1.0,21.0,1.5,,,,,
46,,isi,,html-keyboard-response,46,36385,0.0-1.0-9.0-0.1-2.1,0,0,6,,,,,,,,,,,,,,,,,,,,,,,,,,,,,,,,,,,,,,22.5,1.5,,,,,
47,,no_response,,html-keyboard-response,47,37387,0.0-1.0-9.0-0.1-4.1-0.1,0,0,6,,,,,,,,,,,,,,,,,,,,,,,,,,,,,,,,,,,,,,23.5,1.0,,,,,
48,,iti,,html-keyboard-response,48,37509,0.0-1.0-9.0-0.1-5.1,0,0,6,,,,,,,,,,,,,,,,,,,,,,,,,,,,,,,,,,,,,,25.5,2.0,,,,,
49,,choice,,html-keyboard-response,49,37729,0.0-1.0-9.0-0.2-0.2,0,0,6,,218.0,,,51.0,7.0,7.0,1500.0,2000.0,0.0,1.0,0.0,20-40,,1.0,telescope,poker card,40.0,20.0,telescope1,poker card9,20.0,40.0,celestron nexstar 114 gt reflector telescope.jpg,9817230.thl.jpg,/static/Category_learning/Stimuli/Experimental_stims/telescope/celestron nexstar 114 gt reflector telescope.jpg,/static/Category_learning/Stimuli/Experimental_stims/poker card/9817230.thl.jpg,0.0,poker card,telescope,20.0,40.0,poker card9,telescope1,40.0,20.0,0.0,25.718000000000004,0.218,,,,,
50,,confirmation,,html-keyboard-response,50,39014,0.0-1.0-9.0-0.2-1.2-0.2,0,0,6,,,,,,7.0,,,,,,,,,,,,,,,,,,,,,,,,,,,,,,,,27.0,1.2819999999999998,,,,,
51,,isi,,html-keyboard-response,51,39118,0.0-1.0-9.0-0.2-2.2,0,0,6,,,,,,,,,,,,,,,,,,,,,,,,,,,,,,,,,,,,,,28.5,1.5,,,,,
52,,feedback,,html-keyboard-response,52,40121,0.0-1.0-9.0-0.2-3.2-0.2,0,0,6,,,,,,7.0,,,,,,,,,,,,,,,,,,,,,,,,,,,,,,,,29.5,1.0,,,,,
53,,iti,,html-keyboard-response,53,40224,0.0-1.0-9.0-0.2-5.2,0,0,6,,,,,,,,,,,,,,,,,,,,,,,,,,,,,,,,,,,,,,31.5,2.0,,,,,
54,,choice,,html-keyboard-response,54,40714,0.0-1.0-10.0-0.0-0.0,0,0,6,,487.0,,,50.0,8.0,8.0,3500.0,1000.0,0.0,1.0,0.0,60-60,,,door knob,dresser,60.0,60.0,door knob7,dresser4,40.0,80.0,doorknob2.jpg,ADRESSE40.jpg,/static/Category_learning/Stimuli/Experimental_stims/door knob/doorknob2.jpg,/static/Category_learning/Stimuli/Experimental_stims/dresser/ADRESSE40.jpg,1.0,door knob,dresser,60.0,60.0,door knob7,dresser4,40.0,80.0,0.0,31.987,0.48700000000000004,,,,,
55,,confirmation,,html-keyboard-response,55,41731,0.0-1.0-10.0-0.0-1.0-0.0,0,0,6,,,,,,8.0,,,,,,,,,,,,,,,,,,,,,,,,,,,,,,,,33.0,1.013,,,,,
56,,isi,,html-keyboard-response,56,41837,0.0-1.0-10.0-0.0-2.0,0,0,6,,,,,,,,,,,,,,,,,,,,,,,,,,,,,,,,,,,,,,36.5,3.5,,,,,
57,,feedback,,html-keyboard-response,57,42845,0.0-1.0-10.0-0.0-3.0-0.0,0,0,6,,,,,,8.0,,,,,,,,,,,,,,,,,,,,,,,,,,,,,,,,37.5,1.0,,,,,
58,,iti,,html-keyboard-response,58,42949,0.0-1.0-10.0-0.0-5.0,0,0,6,,,,,,,,,,,,,,,,,,,,,,,,,,,,,,,,,,,,,,38.5,1.0,,,,,
59,,choice,,html-keyboard-response,59,42956,0.0-1.0-11.0-0.0-0.0,0,0,6,,3.0,,,50.0,9.0,9.0,1000.0,1000.0,0.0,1.0,0.0,20-60,,0.0,poker card,desk,20.0,60.0,poker card8,desk13,20.0,80.0,22864392.thl.jpg,26427865.thl.jpg,/static/Category_learning/Stimuli/Experimental_stims/poker card/22864392.thl.jpg,/static/Category_learning/Stimuli/Experimental_stims/desk/26427865.thl.jpg,1.0,poker card,desk,20.0,60.0,poker card8,desk13,20.0,80.0,0.0,38.503,0.003,,,,,
60,,confirmation,,html-keyboard-response,60,44456,0.0-1.0-11.0-0.0-1.0-0.0,0,0,6,,,,,,9.0,,,,,,,,,,,,,,,,,,,,,,,,,,,,,,,,40.0,1.4969999999999999,,,,,
61,,isi,,html-keyboard-response,61,44559,0.0-1.0-11.0-0.0-2.0,0,0,6,,,,,,,,,,,,,,,,,,,,,,,,,,,,,,,,,,,,,,41.0,1.0,,,,,
62,,feedback,,html-keyboard-response,62,45563,0.0-1.0-11.0-0.0-3.0-0.0,0,0,6,,,,,,9.0,,,,,,,,,,,,,,,,,,,,,,,,,,,,,,,,42.0,1.0,,,,,
63,,iti,,html-keyboard-response,63,45668,0.0-1.0-11.0-0.0-5.0,0,0,6,,,,,,,,,,,,,,,,,,,,,,,,,,,,,,,,,,,,,,43.0,1.0,,,,,
64,,choice,,html-keyboard-response,64,45779,0.0-1.0-12.0-0.0-0.0,0,0,6,,107.0,,,50.0,10.0,10.0,1000.0,1000.0,0.0,1.0,0.0,20-60,,1.0,bench,nail polish,60.0,20.0,bench8,nail polish6,80.0,0.0,APARKBE14.jpg,127_t.jpg,/static/Category_learning/Stimuli/Experimental_stims/bench/APARKBE14.jpg,/static/Category_learning/Stimuli/Experimental_stims/nail polish/127_t.jpg,1.0,bench,nail polish,60.0,20.0,bench8,nail polish6,80.0,0.0,0.0,43.107,0.107,,,,,
65,,confirmation,,html-keyboard-response,65,47178,0.0-1.0-12.0-0.0-1.0-0.0,0,0,6,,,,,,10.0,,,,,,,,,,,,,,,,,,,,,,,,,,,,,,,,44.5,1.393,,,,,
66,,isi,,html-keyboard-response,66,47280,0.0-1.0-12.0-0.0-2.0,0,0,6,,,,,,,,,,,,,,,,,,,,,,,,,,,,,,,,,,,,,,45.5,1.0,,,,,
67,,feedback,,html-keyboard-response,67,48283,0.0-1.0-12.0-0.0-3.0-0.0,0,0,6,,,,,,10.0,,,,,,,,,,,,,,,,,,,,,,,,,,,,,,,,46.5,1.0,,,,,
68,,iti,,html-keyboard-response,68,48387,0.0-1.0-12.0-0.0-5.0,0,0,6,,,,,,,,,,,,,,,,,,,,,,,,,,,,,,,,,,,,,,47.5,1.0,,,,,
69,,choice,,html-keyboard-response,69,49629,0.0-1.0-13.0-0.0-0.0,0,0,6,,1238.0,,,50.0,11.0,11.0,1500.0,3000.0,0.0,1.0,0.0,20-80,,0.0,pen,microscope,20.0,80.0,pen11,microscope4,0.0,80.0,pen01.jpg,55071208.JPG,/static/Category_learning/Stimuli/Experimental_stims/pen/pen01.jpg,/static/Category_learning/Stimuli/Experimental_stims/microscope/55071208.JPG,1.0,pen,microscope,20.0,80.0,pen11,microscope4,0.0,80.0,0.0,48.738,1.238,,,,,
70,,confirmation,,html-keyboard-response,70,49897,0.0-1.0-13.0-0.0-1.0-0.0,0,0,6,,,,,,11.0,,,,,,,,,,,,,,,,,,,,,,,,,,,,,,,,49.0,0.262,,,,,
71,,isi,,html-keyboard-response,71,50000,0.0-1.0-13.0-0.0-2.0,0,0,6,,,,,,,,,,,,,,,,,,,,,,,,,,,,,,,,,,,,,,50.5,1.5,,,,,
72,,feedback,,html-keyboard-response,72,51005,0.0-1.0-13.0-0.0-3.0-0.0,0,0,6,,,,,,11.0,,,,,,,,,,,,,,,,,,,,,,,,,,,,,,,,51.5,1.0,,,,,
73,,iti,,html-keyboard-response,73,51112,0.0-1.0-13.0-0.0-5.0,0,0,6,,,,,,,,,,,,,,,,,,,,,,,,,,,,,,,,,,,,,,54.5,3.0,,,,,
74,,choice,,html-keyboard-response,74,51184,0.0-1.0-14.0-0.0-0.0,0,0,6,,70.0,,,50.0,12.0,12.0,1500.0,2000.0,0.0,1.0,0.0,20-60,,0.0,necklace,bowl,20.0,60.0,necklace1,bowl14,0.0,60.0,26443173.thl.jpg,Aredglassbowl.jpg,/static/Category_learning/Stimuli/Experimental_stims/necklace/26443173.thl.jpg,/static/Category_learning/Stimuli/Experimental_stims/bowl/Aredglassbowl.jpg,1.0,necklace,bowl,20.0,60.0,necklace1,bowl14,0.0,60.0,0.0,54.57,0.07,,,,,
75,,confirmation,,html-keyboard-response,75,52618,0.0-1.0-14.0-0.0-1.0-0.0,0,0,6,,,,,,12.0,,,,,,,,,,,,,,,,,,,,,,,,,,,,,,,,56.0,1.43,,,,,
76,,isi,,html-keyboard-response,76,52723,0.0-1.0-14.0-0.0-2.0,0,0,6,,,,,,,,,,,,,,,,,,,,,,,,,,,,,,,,,,,,,,57.5,1.5,,,,,
77,,feedback,,html-keyboard-response,77,53730,0.0-1.0-14.0-0.0-3.0-0.0,0,0,6,,,,,,12.0,,,,,,,,,,,,,,,,,,,,,,,,,,,,,,,,58.5,1.0,,,,,
78,,iti,,html-keyboard-response,78,53835,0.0-1.0-14.0-0.0-5.0,0,0,6,,,,,,,,,,,,,,,,,,,,,,,,,,,,,,,,,,,,,,60.5,2.0,,,,,
79,,choice,,html-keyboard-response,79,55108,0.0-1.0-15.0-0.0-0.0,0,0,6,,1269.0,,,50.0,13.0,13.0,3500.0,3500.0,0.0,1.0,1.0,20-20,1.0,,poker card,poker card,20.0,20.0,poker card9,poker card8,40.0,20.0,9817230.thl.jpg,22864392.thl.jpg,/static/Category_learning/Stimuli/Experimental_stims/poker card/9817230.thl.jpg,/static/Category_learning/Stimuli/Experimental_stims/poker card/22864392.thl.jpg,1.0,poker card,poker card,20.0,20.0,poker card9,poker card8,40.0,20.0,0.0,61.769,1.2690000000000001,,,,,
80,,confirmation,,html-keyboard-response,80,55345,0.0-1.0-15.0-0.0-1.0-0.0,0,0,6,,,,,,13.0,,,,,,,,,,,,,,,,,,,,,,,,,,,,,,,,62.0,0.231,,,,,
81,,isi,,html-keyboard-response,81,55450,0.0-1.0-15.0-0.0-2.0,0,0,6,,,,,,,,,,,,,,,,,,,,,,,,,,,,,,,,,,,,,,65.5,3.5,,,,,
82,,feedback,,html-keyboard-response,82,56457,0.0-1.0-15.0-0.0-3.0-0.0,0,0,6,,,,,,13.0,,,,,,,,,,,,,,,,,,,,,,,,,,,,,,,,66.5,1.0,,,,,
83,,iti,,html-keyboard-response,83,56559,0.0-1.0-15.0-0.0-5.0,0,0,6,,,,,,,,,,,,,,,,,,,,,,,,,,,,,,,,,,,,,,70.0,3.5,,,,,
84,,choice,,html-keyboard-response,84,57140,0.0-1.0-16.0-0.0-0.0,0,0,6,,578.0,,,51.0,14.0,14.0,1000.0,1000.0,0.0,1.0,0.0,60-80,,1.0,microscope,bench,80.0,60.0,microscope12,bench12,60.0,80.0,usbdigitalmicroscope1_small1.jpg,22927976.thl.jpg,/static/Category_learning/Stimuli/Experimental_stims/microscope/usbdigitalmicroscope1_small1.jpg,/static/Category_learning/Stimuli/Experimental_stims/bench/22927976.thl.jpg,0.0,bench,microscope,60.0,80.0,bench12,microscope12,80.0,60.0,0.0,70.578,0.578,,,,,
85,,confirmation,,html-keyboard-response,85,58070,0.0-1.0-16.0-0.0-1.0-0.0,0,0,6,,,,,,14.0,,,,,,,,,,,,,,,,,,,,,,,,,,,,,,,,71.5,0.922,,,,,
86,,isi,,html-keyboard-response,86,58173,0.0-1.0-16.0-0.0-2.0,0,0,6,,,,,,,,,,,,,,,,,,,,,,,,,,,,,,,,,,,,,,72.5,1.0,,,,,
87,,feedback,,html-keyboard-response,87,59178,0.0-1.0-16.0-0.0-3.0-0.0,0,0,6,,,,,,14.0,,,,,,,,,,,,,,,,,,,,,,,,,,,,,,,,73.5,1.0,,,,,
88,,iti,,html-keyboard-response,88,59286,0.0-1.0-16.0-0.0-5.0,0,0,6,,,,,,,,,,,,,,,,,,,,,,,,,,,,,,,,,,,,,,74.5,1.0,,,,,
89,,choice,,html-keyboard-response,89,59649,0.0-1.0-17.0-0.0-0.0,0,0,6,,360.0,,,50.0,15.0,15.0,1000.0,1000.0,0.0,1.0,1.0,60-60,1.0,,bench,bench,60.0,60.0,bench12,bench8,80.0,80.0,22927976.thl.jpg,APARKBE14.jpg,/static/Category_learning/Stimuli/Experimental_stims/bench/22927976.thl.jpg,/static/Category_learning/Stimuli/Experimental_stims/bench/APARKBE14.jpg,1.0,bench,bench,60.0,60.0,bench12,bench8,80.0,80.0,0.0,74.86,0.36,,,,,
90,,confirmation,,html-keyboard-response,90,60796,0.0-1.0-17.0-0.0-1.0-0.0,0,0,6,,,,,,15.0,,,,,,,,,,,,,,,,,,,,,,,,,,,,,,,,76.0,1.14,,,,,
91,,isi,,html-keyboard-response,91,60900,0.0-1.0-17.0-0.0-2.0,0,0,6,,,,,,,,,,,,,,,,,,,,,,,,,,,,,,,,,,,,,,77.0,1.0,,,,,
92,,feedback,,html-keyboard-response,92,61905,0.0-1.0-17.0-0.0-3.0-0.0,0,0,6,,,,,,15.0,,,,,,,,,,,,,,,,,,,,,,,,,,,,,,,,78.0,1.0,,,,,
93,,iti,,html-keyboard-response,93,62009,0.0-1.0-17.0-0.0-5.0,0,0,6,,,,,,,,,,,,,,,,,,,,,,,,,,,,,,,,,,,,,,79.0,1.0,,,,,
94,,choice,,html-keyboard-response,94,62859,0.0-1.0-18.0-0.0-0.0,0,0,6,,848.0,,,51.0,16.0,16.0,1000.0,1000.0,0.0,1.0,0.0,20-40,,0.0,poker card,yarn,20.0,40.0,poker card3,yarn4,0.0,40.0,9817131.thl.jpg,amethyst dreaming boho hy sml.jpg,/static/Category_learning/Stimuli/Experimental_stims/poker card/9817131.thl.jpg,/static/Category_learning/Stimuli/Experimental_stims/yarn/amethyst dreaming boho hy sml.jpg,0.0,yarn,poker card,40.0,20.0,yarn4,poker card3,40.0,0.0,0.0,79.848,0.848,,,,,
95,,confirmation,,html-keyboard-response,95,63519,0.0-1.0-18.0-0.0-1.0-0.0,0,0,6,,,,,,16.0,,,,,,,,,,,,,,,,,,,,,,,,,,,,,,,,80.5,0.652,,,,,
96,,isi,,html-keyboard-response,96,63625,0.0-1.0-18.0-0.0-2.0,0,0,6,,,,,,,,,,,,,,,,,,,,,,,,,,,,,,,,,,,,,,81.5,1.0,,,,,
97,,feedback,,html-keyboard-response,97,64632,0.0-1.0-18.0-0.0-3.0-0.0,0,0,6,,,,,,16.0,,,,,,,,,,,,,,,,,,,,,,,,,,,,,,,,82.5,1.0,,,,,
98,,iti,,html-keyboard-response,98,64740,0.0-1.0-18.0-0.0-5.0,0,0,6,,,,,,,,,,,,,,,,,,,,,,,,,,,,,,,,,,,,,,83.5,1.0,,,,,
99,,choice,,html-keyboard-response,99,65245,0.0-1.0-19.0-0.0-0.0,0,0,6,,502.0,,,50.0,17.0,17.0,3500.0,1000.0,0.0,1.0,0.0,40-80,,0.0,trumpet,microscope,40.0,80.0,trumpet11,microscope8,20.0,80.0,JUPITER+JTR604L.jpg,AMICROS21.jpg,/static/Category_learning/Stimuli/Experimental_stims/trumpet/JUPITER+JTR604L.jpg,/static/Category_learning/Stimuli/Experimental_stims/microscope/AMICROS21.jpg,1.0,trumpet,microscope,40.0,80.0,trumpet11,microscope8,20.0,80.0,0.0,84.00200000000001,0.502,,,,,
100,,confirmation,,html-keyboard-response,100,66250,0.0-1.0-19.0-0.0-1.0-0.0,0,0,6,,,,,,17.0,,,,,,,,,,,,,,,,,,,,,,,,,,,,,,,,85.0,0.998,,,,,
101,,isi,,html-keyboard-response,101,66353,0.0-1.0-19.0-0.0-2.0,0,0,6,,,,,,,,,,,,,,,,,,,,,,,,,,,,,,,,,,,,,,88.5,3.5,,,,,
102,,feedback,,html-keyboard-response,102,67358,0.0-1.0-19.0-0.0-3.0-0.0,0,0,6,,,,,,17.0,,,,,,,,,,,,,,,,,,,,,,,,,,,,,,,,89.5,1.0,,,,,
103,,iti,,html-keyboard-response,103,67466,0.0-1.0-19.0-0.0-5.0,0,0,6,,,,,,,,,,,,,,,,,,,,,,,,,,,,,,,,,,,,,,90.5,1.0,,,,,
104,,choice,,html-keyboard-response,104,68008,0.0-1.0-20.0-0.0-0.0,0,0,6,,539.0,,,51.0,18.0,18.0,1500.0,1000.0,0.0,1.0,0.0,60-80,,0.0,baby carriage,hammer,60.0,80.0,baby carriage5,hammer8,80.0,80.0,Baby_Stroller.jpg,ct1006_hammer.jpg,/static/Category_learning/Stimuli/Experimental_stims/baby carriage/Baby_Stroller.jpg,/static/Category_learning/Stimuli/Experimental_stims/hammer/ct1006_hammer.jpg,0.0,hammer,baby carriage,80.0,60.0,hammer8,baby carriage5,80.0,80.0,0.0,91.039,0.539,,,,,
105,,confirmation,,html-keyboard-response,105,68972,0.0-1.0-20.0-0.0-1.0-0.0,0,0,6,,,,,,18.0,,,,,,,,,,,,,,,,,,,,,,,,,,,,,,,,92.0,0.961,,,,,
106,,isi,,html-keyboard-response,106,69075,0.0-1.0-20.0-0.0-2.0,0,0,6,,,,,,,,,,,,,,,,,,,,,,,,,,,,,,,,,,,,,,93.5,1.5,,,,,
107,,feedback,,html-keyboard-response,107,70078,0.0-1.0-20.0-0.0-3.0-0.0,0,0,6,,,,,,18.0,,,,,,,,,,,,,,,,,,,,,,,,,,,,,,,,94.5,1.0,,,,,
108,,iti,,html-keyboard-response,108,70182,0.0-1.0-20.0-0.0-5.0,0,0,6,,,,,,,,,,,,,,,,,,,,,,,,,,,,,,,,,,,,,,95.5,1.0,,,,,
109,,choice,,html-keyboard-response,109,70727,0.0-1.0-21.0-0.0-0.0,0,0,6,,541.0,,,50.0,19.0,19.0,1500.0,3500.0,0.0,1.0,0.0,60-60,,,fan,flashlight,60.0,60.0,fan6,flashlight1,60.0,40.0,30090.fpx.jpg,Graphite3D.jpg,/static/Category_learning/Stimuli/Experimental_stims/fan/30090.fpx.jpg,/static/Category_learning/Stimuli/Experimental_stims/flashlight/Graphite3D.jpg,1.0,fan,flashlight,60.0,60.0,fan6,flashlight1,60.0,40.0,0.0,96.041,0.541,,,,,
110,,confirmation,,html-keyboard-response,110,71691,0.0-1.0-21.0-0.0-1.0-0.0,0,0,6,,,,,,19.0,,,,,,,,,,,,,,,,,,,,,,,,,,,,,,,,97.0,0.9590000000000001,,,,,
111,,isi,,html-keyboard-response,111,71798,0.0-1.0-21.0-0.0-2.0,0,0,6,,,,,,,,,,,,,,,,,,,,,,,,,,,,,,,,,,,,,,98.5,1.5,,,,,
112,,feedback,,html-keyboard-response,112,72807,0.0-1.0-21.0-0.0-3.0-0.0,0,0,6,,,,,,19.0,,,,,,,,,,,,,,,,,,,,,,,,,,,,,,,,99.5,1.0,,,,,
113,,iti,,html-keyboard-response,113,72910,0.0-1.0-21.0-0.0-5.0,0,0,6,,,,,,,,,,,,,,,,,,,,,,,,,,,,,,,,,,,,,,103.0,3.5,,,,,
114,,choice,,html-keyboard-response,114,74413,0.0-1.0-22.0-0.0-0.0,0,0,6,,,,,,20.0,20.0,1000.0,1000.0,0.0,1.0,0.0,20-80,,1.0,frame,patio lounge chair,80.0,20.0,frame11,patio lounge chair9,100.0,20.0,AFRAME139.jpg,43-3.jpg,/static/Category_learning/Stimuli/Experimental_stims/frame/AFRAME139.jpg,/static/Category_learning/Stimuli/Experimental_stims/patio lounge chair/43-3.jpg,,,,,,,,,,1.0,104.5,1.5,,,,,
115,,isi,,html-keyboard-response,115,74519,0.0-1.0-22.0-0.0-2.0,0,0,6,,,,,,,,,,,,,,,,,,,,,,,,,,,,,,,,,,,,,,105.5,1.0,,,,,
116,,no_response,,html-keyboard-response,116,75525,0.0-1.0-22.0-0.0-4.0-0.0,0,0,6,,,,,,,,,,,,,,,,,,,,,,,,,,,,,,,,,,,,,,106.5,1.0,,,,,
117,,iti,,html-keyboard-response,117,75650,0.0-1.0-22.0-0.0-5.0,0,0,6,,,,,,,,,,,,,,,,,,,,,,,,,,,,,,,,,,,,,,107.5,1.0,,,,,
118,,choice,,html-keyboard-response,118,75828,0.0-1.0-22.0-0.1-0.1,0,0,6,,175.0,,,50.0,20.0,20.0,1000.0,1000.0,0.0,1.0,0.0,20-80,,1.0,frame,patio lounge chair,80.0,20.0,frame11,patio lounge chair9,100.0,20.0,AFRAME139.jpg,43-3.jpg,/static/Category_learning/Stimuli/Experimental_stims/frame/AFRAME139.jpg,/static/Category_learning/Stimuli/Experimental_stims/patio lounge chair/43-3.jpg,1.0,frame,patio lounge chair,80.0,20.0,frame11,patio lounge chair9,100.0,20.0,0.0,107.675,0.175,,,,,
119,,confirmation,,html-keyboard-response,119,77157,0.0-1.0-22.0-0.1-1.1-0.1,0,0,6,,,,,,20.0,,,,,,,,,,,,,,,,,,,,,,,,,,,,,,,,109.0,1.325,,,,,
120,,isi,,html-keyboard-response,120,77261,0.0-1.0-22.0-0.1-2.1,0,0,6,,,,,,,,,,,,,,,,,,,,,,,,,,,,,,,,,,,,,,110.0,1.0,,,,,
121,,feedback,,html-keyboard-response,121,78267,0.0-1.0-22.0-0.1-3.1-0.1,0,0,6,,,,,,20.0,,,,,,,,,,,,,,,,,,,,,,,,,,,,,,,,111.0,1.0,,,,,
122,,iti,,html-keyboard-response,122,78370,0.0-1.0-22.0-0.1-5.1,0,0,6,,,,,,,,,,,,,,,,,,,,,,,,,,,,,,,,,,,,,,112.0,1.0,,,,,
123,,choice,,html-keyboard-response,123,78481,0.0-1.0-23.0-0.0-0.0,0,0,6,,107.0,,,51.0,21.0,21.0,2000.0,1000.0,0.0,1.0,0.0,40-80,,0.0,telescope,license plate,40.0,80.0,telescope11,license plate14,40.0,100.0,digimarc.ms03.jpg,fl-hel-bel.jpg,/static/Category_learning/Stimuli/Experimental_stims/telescope/digimarc.ms03.jpg,/static/Category_learning/Stimuli/Experimental_stims/license plate/fl-hel-bel.jpg,0.0,license plate,telescope,80.0,40.0,license plate14,telescope11,100.0,40.0,0.0,112.10700000000001,0.107,,,,,
124,,confirmation,,html-keyboard-response,124,79879,0.0-1.0-23.0-0.0-1.0-0.0,0,0,6,,,,,,21.0,,,,,,,,,,,,,,,,,,,,,,,,,,,,,,,,113.5,1.393,,,,,
125,,isi,,html-keyboard-response,125,79983,0.0-1.0-23.0-0.0-2.0,0,0,6,,,,,,,,,,,,,,,,,,,,,,,,,,,,,,,,,,,,,,115.5,2.0,,,,,
126,,feedback,,html-keyboard-response,126,80989,0.0-1.0-23.0-0.0-3.0-0.0,0,0,6,,,,,,21.0,,,,,,,,,,,,,,,,,,,,,,,,,,,,,,,,116.5,1.0,,,,,
127,,iti,,html-keyboard-response,127,81092,0.0-1.0-23.0-0.0-5.0,0,0,6,,,,,,,,,,,,,,,,,,,,,,,,,,,,,,,,,,,,,,117.5,1.0,,,,,
128,,choice,,html-keyboard-response,128,81179,0.0-1.0-24.0-0.0-0.0,0,0,6,,83.0,,,50.0,22.0,22.0,1000.0,1500.0,0.0,1.0,1.0,20-20,1.0,,necklace,necklace,20.0,20.0,necklace15,necklace1,40.0,0.0,necklascenew04.jpg,26443173.thl.jpg,/static/Category_learning/Stimuli/Experimental_stims/necklace/necklascenew04.jpg,/static/Category_learning/Stimuli/Experimental_stims/necklace/26443173.thl.jpg,1.0,necklace,necklace,20.0,20.0,necklace15,necklace1,40.0,0.0,0.0,117.583,0.083,,,,,
129,,confirmation,,html-keyboard-response,129,82600,0.0-1.0-24.0-0.0-1.0-0.0,0,0,6,,,,,,22.0,,,,,,,,,,,,,,,,,,,,,,,,,,,,,,,,119.0,1.4169999999999998,,,,,
130,,isi,,html-keyboard-response,130,82706,0.0-1.0-24.0-0.0-2.0,0,0,6,,,,,,,,,,,,,,,,,,,,,,,,,,,,,,,,,,,,,,120.0,1.0,,,,,
131,,feedback,,html-keyboard-response,131,83712,0.0-1.0-24.0-0.0-3.0-0.0,0,0,6,,,,,,22.0,,,,,,,,,,,,,,,,,,,,,,,,,,,,,,,,121.0,1.0,,,,,
132,,iti,,html-keyboard-response,132,83819,0.0-1.0-24.0-0.0-5.0,0,0,6,,,,,,,,,,,,,,,,,,,,,,,,,,,,,,,,,,,,,,122.5,1.5,,,,,
133,,choice,,html-keyboard-response,133,84138,0.0-1.0-25.0-0.0-0.0,0,0,6,,317.0,,,51.0,23.0,23.0,1000.0,1500.0,0.0,1.0,0.0,40-80,,1.0,license plate,train,80.0,40.0,license plate9,train6,60.0,20.0,nm-dhg089.jpg,train9.jpg,/static/Category_learning/Stimuli/Experimental_stims/license plate/nm-dhg089.jpg,/static/Category_learning/Stimuli/Experimental_stims/train/train9.jpg,0.0,train,license plate,40.0,80.0,train6,license plate9,20.0,60.0,0.0,122.81700000000001,0.317,,,,,
134,,confirmation,,html-keyboard-response,134,85328,0.0-1.0-25.0-0.0-1.0-0.0,0,0,6,,,,,,23.0,,,,,,,,,,,,,,,,,,,,,,,,,,,,,,,,124.0,1.183,,,,,
135,,isi,,html-keyboard-response,135,85431,0.0-1.0-25.0-0.0-2.0,0,0,6,,,,,,,,,,,,,,,,,,,,,,,,,,,,,,,,,,,,,,125.0,1.0,,,,,
136,,feedback,,html-keyboard-response,136,86435,0.0-1.0-25.0-0.0-3.0-0.0,0,0,6,,,,,,23.0,,,,,,,,,,,,,,,,,,,,,,,,,,,,,,,,126.0,1.0,,,,,
137,,iti,,html-keyboard-response,137,86542,0.0-1.0-25.0-0.0-5.0,0,0,6,,,,,,,,,,,,,,,,,,,,,,,,,,,,,,,,,,,,,,127.5,1.5,,,,,
138,,choice,,html-keyboard-response,138,87051,0.0-1.0-26.0-0.0-0.0,0,0,6,,506.0,,,50.0,24.0,24.0,2000.0,1500.0,0.0,1.0,1.0,20-60,0.0,,fan,power strip,60.0,20.0,fan6,power strip8,60.0,40.0,30090.fpx.jpg,3118YGHQWXL._AA262_.jpg,/static/Category_learning/Stimuli/Experimental_stims/fan/30090.fpx.jpg,/static/Category_learning/Stimuli/Experimental_stims/power strip/3118YGHQWXL._AA262_.jpg,1.0,fan,power strip,60.0,20.0,fan6,power strip8,60.0,40.0,0.0,128.006,0.506,,,,,
139,,confirmation,,html-keyboard-response,139,88051,0.0-1.0-26.0-0.0-1.0-0.0,0,0,6,,,,,,24.0,,,,,,,,,,,,,,,,,,,,,,,,,,,,,,,,129.0,0.9940000000000001,,,,,
140,,isi,,html-keyboard-response,140,88158,0.0-1.0-26.0-0.0-2.0,0,0,6,,,,,,,,,,,,,,,,,,,,,,,,,,,,,,,,,,,,,,131.0,2.0,,,,,
141,,feedback,,html-keyboard-response,141,89163,0.0-1.0-26.0-0.0-3.0-0.0,0,0,6,,,,,,24.0,,,,,,,,,,,,,,,,,,,,,,,,,,,,,,,,132.0,1.0,,,,,
142,,iti,,html-keyboard-response,142,89270,0.0-1.0-26.0-0.0-5.0,0,0,6,,,,,,,,,,,,,,,,,,,,,,,,,,,,,,,,,,,,,,133.5,1.5,,,,,
143,,choice,,html-keyboard-response,143,89417,0.0-1.0-27.0-0.0-0.0,0,0,6,,144.0,,,51.0,25.0,25.0,1500.0,2000.0,0.0,1.0,0.0,40-60,,0.0,trumpet,flashlight,40.0,60.0,trumpet4,flashlight2,20.0,60.0,JUPITER+JTR1000S.jpg,AV-9 No Battery Flashlight.jpg,/static/Category_learning/Stimuli/Experimental_stims/trumpet/JUPITER+JTR1000S.jpg,/static/Category_learning/Stimuli/Experimental_stims/flashlight/AV-9 No Battery Flashlight.jpg,0.0,flashlight,trumpet,60.0,40.0,flashlight2,trumpet4,60.0,20.0,0.0,133.644,0.14400000000000002,,,,,
144,,confirmation,,html-keyboard-response,144,90777,0.0-1.0-27.0-0.0-1.0-0.0,0,0,6,,,,,,25.0,,,,,,,,,,,,,,,,,,,,,,,,,,,,,,,,135.0,1.3559999999999999,,,,,
145,,isi,,html-keyboard-response,145,90882,0.0-1.0-27.0-0.0-2.0,0,0,6,,,,,,,,,,,,,,,,,,,,,,,,,,,,,,,,,,,,,,136.5,1.5,,,,,
146,,feedback,,html-keyboard-response,146,91888,0.0-1.0-27.0-0.0-3.0-0.0,0,0,6,,,,,,25.0,,,,,,,,,,,,,,,,,,,,,,,,,,,,,,,,137.5,1.0,,,,,
147,,iti,,html-keyboard-response,147,91994,0.0-1.0-27.0-0.0-5.0,0,0,6,,,,,,,,,,,,,,,,,,,,,,,,,,,,,,,,,,,,,,139.5,2.0,,,,,
148,,choice,,html-keyboard-response,148,92309,0.0-1.0-28.0-0.0-0.0,0,0,6,,312.0,,,50.0,26.0,26.0,1500.0,3000.0,0.0,1.0,0.0,40-60,,0.0,stool,bowl,40.0,60.0,stool9,bowl8,40.0,40.0,ASTOOL7.jpg,ASLVBOWL.jpg,/static/Category_learning/Stimuli/Experimental_stims/stool/ASTOOL7.jpg,/static/Category_learning/Stimuli/Experimental_stims/bowl/ASLVBOWL.jpg,1.0,stool,bowl,40.0,60.0,stool9,bowl8,40.0,40.0,0.0,139.812,0.312,,,,,
149,,confirmation,,html-keyboard-response,149,93500,0.0-1.0-28.0-0.0-1.0-0.0,0,0,6,,,,,,26.0,,,,,,,,,,,,,,,,,,,,,,,,,,,,,,,,141.0,1.188,,,,,
150,,isi,,html-keyboard-response,150,93603,0.0-1.0-28.0-0.0-2.0,0,0,6,,,,,,,,,,,,,,,,,,,,,,,,,,,,,,,,,,,,,,142.5,1.5,,,,,
151,,feedback,,html-keyboard-response,151,94609,0.0-1.0-28.0-0.0-3.0-0.0,0,0,6,,,,,,26.0,,,,,,,,,,,,,,,,,,,,,,,,,,,,,,,,143.5,1.0,,,,,
152,,iti,,html-keyboard-response,152,94713,0.0-1.0-28.0-0.0-5.0,0,0,6,,,,,,,,,,,,,,,,,,,,,,,,,,,,,,,,,,,,,,146.5,3.0,,,,,
153,,choice,,html-keyboard-response,153,95033,0.0-1.0-29.0-0.0-0.0,0,0,6,,317.0,,,51.0,27.0,27.0,1000.0,1000.0,0.0,1.0,0.0,80-80,,,key chain,lipstick,80.0,80.0,key chain8,lipstick5,100.0,80.0,Keychain01.jpg,P35719_hero.jpg,/static/Category_learning/Stimuli/Experimental_stims/key chain/Keychain01.jpg,/static/Category_learning/Stimuli/Experimental_stims/lipstick/P35719_hero.jpg,0.0,lipstick,key chain,80.0,80.0,lipstick5,key chain8,80.0,100.0,0.0,146.817,0.317,,,,,
154,,confirmation,,html-keyboard-response,154,96220,0.0-1.0-29.0-0.0-1.0-0.0,0,0,6,,,,,,27.0,,,,,,,,,,,,,,,,,,,,,,,,,,,,,,,,148.0,1.183,,,,,
155,,isi,,html-keyboard-response,155,96326,0.0-1.0-29.0-0.0-2.0,0,0,6,,,,,,,,,,,,,,,,,,,,,,,,,,,,,,,,,,,,,,149.0,1.0,,,,,
156,,feedback,,html-keyboard-response,156,97331,0.0-1.0-29.0-0.0-3.0-0.0,0,0,6,,,,,,27.0,,,,,,,,,,,,,,,,,,,,,,,,,,,,,,,,150.0,1.0,,,,,
157,,iti,,html-keyboard-response,157,97434,0.0-1.0-29.0-0.0-5.0,0,0,6,,,,,,,,,,,,,,,,,,,,,,,,,,,,,,,,,,,,,,151.0,1.0,,,,,
158,,choice,,html-keyboard-response,158,98003,0.0-1.0-30.0-0.0-0.0,0,0,6,,565.0,,,50.0,28.0,28.0,3500.0,1500.0,0.0,1.0,0.0,60-60,,,bench,desk,60.0,60.0,bench7,desk5,40.0,80.0,ACONBENCH.jpg,ADESK6.jpg,/static/Category_learning/Stimuli/Experimental_stims/bench/ACONBENCH.jpg,/static/Category_learning/Stimuli/Experimental_stims/desk/ADESK6.jpg,1.0,bench,desk,60.0,60.0,bench7,desk5,40.0,80.0,0.0,151.565,0.565,,,,,
159,,confirmation,,html-keyboard-response,159,98941,0.0-1.0-30.0-0.0-1.0-0.0,0,0,6,,,,,,28.0,,,,,,,,,,,,,,,,,,,,,,,,,,,,,,,,152.5,0.935,,,,,
160,,isi,,html-keyboard-response,160,99046,0.0-1.0-30.0-0.0-2.0,0,0,6,,,,,,,,,,,,,,,,,,,,,,,,,,,,,,,,,,,,,,156.0,3.5,,,,,
161,,feedback,,html-keyboard-response,161,100050,0.0-1.0-30.0-0.0-3.0-0.0,0,0,6,,,,,,28.0,,,,,,,,,,,,,,,,,,,,,,,,,,,,,,,,157.0,1.0,,,,,
162,,iti,,html-keyboard-response,162,100154,0.0-1.0-30.0-0.0-5.0,0,0,6,,,,,,,,,,,,,,,,,,,,,,,,,,,,,,,,,,,,,,158.5,1.5,,,,,
163,,choice,,html-keyboard-response,163,100583,0.0-1.0-31.0-0.0-0.0,0,0,6,,426.0,,,50.0,29.0,29.0,2000.0,1000.0,0.0,1.0,1.0,20-40,0.0,,pen,stool,20.0,40.0,pen11,stool9,0.0,40.0,pen01.jpg,ASTOOL7.jpg,/static/Category_learning/Stimuli/Experimental_stims/pen/pen01.jpg,/static/Category_learning/Stimuli/Experimental_stims/stool/ASTOOL7.jpg,1.0,pen,stool,20.0,40.0,pen11,stool9,0.0,40.0,0.0,158.92600000000002,0.426,,,,,
164,,confirmation,,html-keyboard-response,164,101663,0.0-1.0-31.0-0.0-1.0-0.0,0,0,6,,,,,,29.0,,,,,,,,,,,,,,,,,,,,,,,,,,,,,,,,160.0,1.074,,,,,
165,,isi,,html-keyboard-response,165,101767,0.0-1.0-31.0-0.0-2.0,0,0,6,,,,,,,,,,,,,,,,,,,,,,,,,,,,,,,,,,,,,,162.0,2.0,,,,,
166,,feedback,,html-keyboard-response,166,102774,0.0-1.0-31.0-0.0-3.0-0.0,0,0,6,,,,,,29.0,,,,,,,,,,,,,,,,,,,,,,,,,,,,,,,,163.0,1.0,,,,,
167,,iti,,html-keyboard-response,167,102879,0.0-1.0-31.0-0.0-5.0,0,0,6,,,,,,,,,,,,,,,,,,,,,,,,,,,,,,,,,,,,,,164.0,1.0,,,,,
168,,choice,,html-keyboard-response,168,103671,0.0-1.0-32.0-0.0-0.0,0,0,6,,789.0,,,51.0,30.0,30.0,2000.0,3500.0,0.0,1.0,0.0,40-60,,0.0,stool,dresser,40.0,60.0,stool10,dresser12,60.0,60.0,ASTOOL26.jpg,ADRESSE58.jpg,/static/Category_learning/Stimuli/Experimental_stims/stool/ASTOOL26.jpg,/static/Category_learning/Stimuli/Experimental_stims/dresser/ADRESSE58.jpg,0.0,dresser,stool,60.0,40.0,dresser12,stool10,60.0,60.0,0.0,164.78900000000002,0.789,,,,,
169,,confirmation,,html-keyboard-response,169,104387,0.0-1.0-32.0-0.0-1.0-0.0,0,0,6,,,,,,30.0,,,,,,,,,,,,,,,,,,,,,,,,,,,,,,,,165.5,0.711,,,,,
170,,isi,,html-keyboard-response,170,104493,0.0-1.0-32.0-0.0-2.0,0,0,6,,,,,,,,,,,,,,,,,,,,,,,,,,,,,,,,,,,,,,167.5,2.0,,,,,
171,,feedback,,html-keyboard-response,171,105498,0.0-1.0-32.0-0.0-3.0-0.0,0,0,6,,,,,,30.0,,,,,,,,,,,,,,,,,,,,,,,,,,,,,,,,168.5,1.0,,,,,
172,,iti,,html-keyboard-response,172,105606,0.0-1.0-32.0-0.0-5.0,0,0,6,,,,,,,,,,,,,,,,,,,,,,,,,,,,,,,,,,,,,,172.0,3.5,,,,,
173,,choice,,html-keyboard-response,173,105615,0.0-1.0-33.0-0.0-0.0,0,0,6,,7.0,,,50.0,31.0,31.0,2000.0,2000.0,0.0,1.0,1.0,60-80,0.0,,bench,hammer,60.0,80.0,bench7,hammer8,40.0,80.0,ACONBENCH.jpg,ct1006_hammer.jpg,/static/Category_learning/Stimuli/Experimental_stims/bench/ACONBENCH.jpg,/static/Category_learning/Stimuli/Experimental_stims/hammer/ct1006_hammer.jpg,1.0,bench,hammer,60.0,80.0,bench7,hammer8,40.0,80.0,0.0,172.007,0.006999999999999999,,,,,
174,,confirmation,,html-keyboard-response,174,107114,0.0-1.0-33.0-0.0-1.0-0.0,0,0,6,,,,,,31.0,,,,,,,,,,,,,,,,,,,,,,,,,,,,,,,,173.5,1.493,,,,,
175,,isi,,html-keyboard-response,175,107217,0.0-1.0-33.0-0.0-2.0,0,0,6,,,,,,,,,,,,,,,,,,,,,,,,,,,,,,,,,,,,,,175.5,2.0,,,,,
176,,feedback,,html-keyboard-response,176,108224,0.0-1.0-33.0-0.0-3.0-0.0,0,0,6,,,,,,31.0,,,,,,,,,,,,,,,,,,,,,,,,,,,,,,,,176.5,1.0,,,,,
177,,iti,,html-keyboard-response,177,108327,0.0-1.0-33.0-0.0-5.0,0,0,6,,,,,,,,,,,,,,,,,,,,,,,,,,,,,,,,,,,,,,178.5,2.0,,,,,
178,,choice,,html-keyboard-response,178,108539,0.0-1.0-34.0-0.0-0.0,0,0,6,,208.0,,,51.0,32.0,32.0,1500.0,2000.0,0.0,1.0,0.0,40-40,,,stool,tape,40.0,40.0,stool8,tape9,60.0,40.0,ASTOOL33.jpg,desk tape disp.jpg,/static/Category_learning/Stimuli/Experimental_stims/stool/ASTOOL33.jpg,/static/Category_learning/Stimuli/Experimental_stims/tape/desk tape disp.jpg,0.0,tape,stool,40.0,40.0,tape9,stool8,40.0,60.0,0.0,178.708,0.20800000000000002,,,,,
179,,confirmation,,html-keyboard-response,179,109834,0.0-1.0-34.0-0.0-1.0-0.0,0,0,6,,,,,,32.0,,,,,,,,,,,,,,,,,,,,,,,,,,,,,,,,180.0,1.2919999999999998,,,,,
180,,isi,,html-keyboard-response,180,109940,0.0-1.0-34.0-0.0-2.0,0,0,6,,,,,,,,,,,,,,,,,,,,,,,,,,,,,,,,,,,,,,181.5,1.5,,,,,
181,,feedback,,html-keyboard-response,181,110945,0.0-1.0-34.0-0.0-3.0-0.0,0,0,6,,,,,,32.0,,,,,,,,,,,,,,,,,,,,,,,,,,,,,,,,182.5,1.0,,,,,
182,,iti,,html-keyboard-response,182,111050,0.0-1.0-34.0-0.0-5.0,0,0,6,,,,,,,,,,,,,,,,,,,,,,,,,,,,,,,,,,,,,,184.5,2.0,,,,,
183,,choice,,html-keyboard-response,183,111545,0.0-1.0-35.0-0.0-0.0,0,0,6,,491.0,,,50.0,33.0,33.0,1000.0,3000.0,0.0,1.0,0.0,40-40,,,yarn,tent,40.0,40.0,yarn10,tent5,60.0,60.0,revelation-yarn.jpg,Dome Tentnb87r67.jpg,/static/Category_learning/Stimuli/Experimental_stims/yarn/revelation-yarn.jpg,/static/Category_learning/Stimuli/Experimental_stims/tent/Dome Tentnb87r67.jpg,1.0,yarn,tent,40.0,40.0,yarn10,tent5,60.0,60.0,0.0,184.99099999999999,0.491,,,,,
184,,confirmation,,html-keyboard-response,184,112557,0.0-1.0-35.0-0.0-1.0-0.0,0,0,6,,,,,,33.0,,,,,,,,,,,,,,,,,,,,,,,,,,,,,,,,186.0,1.0090000000000001,,,,,
185,,isi,,html-keyboard-response,185,112660,0.0-1.0-35.0-0.0-2.0,0,0,6,,,,,,,,,,,,,,,,,,,,,,,,,,,,,,,,,,,,,,187.0,1.0,,,,,
186,,feedback,,html-keyboard-response,186,113666,0.0-1.0-35.0-0.0-3.0-0.0,0,0,6,,,,,,33.0,,,,,,,,,,,,,,,,,,,,,,,,,,,,,,,,188.0,1.0,,,,,
187,,iti,,html-keyboard-response,187,113772,0.0-1.0-35.0-0.0-5.0,0,0,6,,,,,,,,,,,,,,,,,,,,,,,,,,,,,,,,,,,,,,191.0,3.0,,,,,
188,,choice,,html-keyboard-response,188,114165,0.0-1.0-36.0-0.0-0.0,0,0,6,,389.0,,,50.0,34.0,34.0,1000.0,1500.0,0.0,1.0,0.0,20-20,,,pen,nail polish,20.0,20.0,pen2,nail polish3,20.0,40.0,Montblanc-Blu-Starwalker-BP copy.jpg,327636.jpg,/static/Category_learning/Stimuli/Experimental_stims/pen/Montblanc-Blu-Starwalker-BP copy.jpg,/static/Category_learning/Stimuli/Experimental_stims/nail polish/327636.jpg,1.0,pen,nail polish,20.0,20.0,pen2,nail polish3,20.0,40.0,0.0,191.389,0.389,,,,,
189,,confirmation,,html-keyboard-response,189,115279,0.0-1.0-36.0-0.0-1.0-0.0,0,0,6,,,,,,34.0,,,,,,,,,,,,,,,,,,,,,,,,,,,,,,,,192.5,1.111,,,,,
190,,isi,,html-keyboard-response,190,115385,0.0-1.0-36.0-0.0-2.0,0,0,6,,,,,,,,,,,,,,,,,,,,,,,,,,,,,,,,,,,,,,193.5,1.0,,,,,
191,,feedback,,html-keyboard-response,191,116388,0.0-1.0-36.0-0.0-3.0-0.0,0,0,6,,,,,,34.0,,,,,,,,,,,,,,,,,,,,,,,,,,,,,,,,194.5,1.0,,,,,
192,,iti,,html-keyboard-response,192,116495,0.0-1.0-36.0-0.0-5.0,0,0,6,,,,,,,,,,,,,,,,,,,,,,,,,,,,,,,,,,,,,,196.0,1.5,,,,,
193,,choice,,html-keyboard-response,193,117064,0.0-1.0-37.0-0.0-0.0,0,0,6,,566.0,,,50.0,35.0,35.0,1500.0,1000.0,0.0,1.0,0.0,40-60,,0.0,stool,dresser,40.0,60.0,stool2,dresser14,20.0,60.0,ASTOOL46.jpg,Adressertabl3.jpg,/static/Category_learning/Stimuli/Experimental_stims/stool/ASTOOL46.jpg,/static/Category_learning/Stimuli/Experimental_stims/dresser/Adressertabl3.jpg,1.0,stool,dresser,40.0,60.0,stool2,dresser14,20.0,60.0,0.0,196.56599999999997,0.5660000000000001,,,,,
194,,confirmation,,html-keyboard-response,194,118007,0.0-1.0-37.0-0.0-1.0-0.0,0,0,6,,,,,,35.0,,,,,,,,,,,,,,,,,,,,,,,,,,,,,,,,197.5,0.934,,,,,
195,,isi,,html-keyboard-response,195,118113,0.0-1.0-37.0-0.0-2.0,0,0,6,,,,,,,,,,,,,,,,,,,,,,,,,,,,,,,,,,,,,,199.0,1.5,,,,,
196,,feedback,,html-keyboard-response,196,119117,0.0-1.0-37.0-0.0-3.0-0.0,0,0,6,,,,,,35.0,,,,,,,,,,,,,,,,,,,,,,,,,,,,,,,,200.0,1.0,,,,,
197,,iti,,html-keyboard-response,197,119222,0.0-1.0-37.0-0.0-5.0,0,0,6,,,,,,,,,,,,,,,,,,,,,,,,,,,,,,,,,,,,,,201.0,1.0,,,,,
198,,choice,,html-keyboard-response,198,119830,0.0-1.0-38.0-0.0-0.0,0,0,6,,605.0,,,50.0,36.0,36.0,1500.0,1000.0,0.0,1.0,0.0,20-80,,0.0,necklace,motorcycle,20.0,80.0,necklace2,motorcycle2,20.0,100.0,Anecklace7.jpg,motorcycle33.jpg,/static/Category_learning/Stimuli/Experimental_stims/necklace/Anecklace7.jpg,/static/Category_learning/Stimuli/Experimental_stims/motorcycle/motorcycle33.jpg,1.0,necklace,motorcycle,20.0,80.0,necklace2,motorcycle2,20.0,100.0,0.0,201.605,0.605,,,,,
199,,confirmation,,html-keyboard-response,199,120732,0.0-1.0-38.0-0.0-1.0-0.0,0,0,6,,,,,,36.0,,,,,,,,,,,,,,,,,,,,,,,,,,,,,,,,202.5,0.895,,,,,
200,,isi,,html-keyboard-response,200,120836,0.0-1.0-38.0-0.0-2.0,0,0,6,,,,,,,,,,,,,,,,,,,,,,,,,,,,,,,,,,,,,,204.0,1.5,,,,,
201,,feedback,,html-keyboard-response,201,121842,0.0-1.0-38.0-0.0-3.0-0.0,0,0,6,,,,,,36.0,,,,,,,,,,,,,,,,,,,,,,,,,,,,,,,,205.0,1.0,,,,,
202,,iti,,html-keyboard-response,202,121946,0.0-1.0-38.0-0.0-5.0,0,0,6,,,,,,,,,,,,,,,,,,,,,,,,,,,,,,,,,,,,,,206.0,1.0,,,,,
203,,choice,,html-keyboard-response,203,122318,0.0-1.0-39.0-0.0-0.0,0,0,6,,368.0,,,51.0,37.0,37.0,1000.0,1000.0,0.0,1.0,1.0,40-40,1.0,,yarn,yarn,40.0,40.0,yarn4,yarn10,40.0,60.0,amethyst dreaming boho hy sml.jpg,revelation-yarn.jpg,/static/Category_learning/Stimuli/Experimental_stims/yarn/amethyst dreaming boho hy sml.jpg,/static/Category_learning/Stimuli/Experimental_stims/yarn/revelation-yarn.jpg,0.0,yarn,yarn,40.0,40.0,yarn10,yarn4,60.0,40.0,0.0,206.368,0.368,,,,,
204,,confirmation,,html-keyboard-response,204,123456,0.0-1.0-39.0-0.0-1.0-0.0,0,0,6,,,,,,37.0,,,,,,,,,,,,,,,,,,,,,,,,,,,,,,,,207.5,1.1320000000000001,,,,,
205,,isi,,html-keyboard-response,205,123564,0.0-1.0-39.0-0.0-2.0,0,0,6,,,,,,,,,,,,,,,,,,,,,,,,,,,,,,,,,,,,,,208.5,1.0,,,,,
206,,feedback,,html-keyboard-response,206,124570,0.0-1.0-39.0-0.0-3.0-0.0,0,0,6,,,,,,37.0,,,,,,,,,,,,,,,,,,,,,,,,,,,,,,,,209.5,1.0,,,,,
207,,iti,,html-keyboard-response,207,124675,0.0-1.0-39.0-0.0-5.0,0,0,6,,,,,,,,,,,,,,,,,,,,,,,,,,,,,,,,,,,,,,210.5,1.0,,,,,
208,,choice,,html-keyboard-response,208,125247,0.0-1.0-40.0-0.0-0.0,0,0,6,,568.0,,,50.0,38.0,38.0,3000.0,1000.0,0.0,1.0,0.0,20-60,,0.0,sofa,bongo,20.0,60.0,sofa9,bongo12,20.0,40.0,ALOVSEAT9.jpg,26686609.thl.jpg,/static/Category_learning/Stimuli/Experimental_stims/sofa/ALOVSEAT9.jpg,/static/Category_learning/Stimuli/Experimental_stims/bongo/26686609.thl.jpg,1.0,sofa,bongo,20.0,60.0,sofa9,bongo12,20.0,40.0,0.0,211.06799999999998,0.568,,,,,
209,,confirmation,,html-keyboard-response,209,126184,0.0-1.0-40.0-0.0-1.0-0.0,0,0,6,,,,,,38.0,,,,,,,,,,,,,,,,,,,,,,,,,,,,,,,,212.0,0.932,,,,,
210,,isi,,html-keyboard-response,210,126290,0.0-1.0-40.0-0.0-2.0,0,0,6,,,,,,,,,,,,,,,,,,,,,,,,,,,,,,,,,,,,,,215.0,3.0,,,,,
211,,feedback,,html-keyboard-response,211,127297,0.0-1.0-40.0-0.0-3.0-0.0,0,0,6,,,,,,38.0,,,,,,,,,,,,,,,,,,,,,,,,,,,,,,,,216.0,1.0,,,,,
212,,iti,,html-keyboard-response,212,127401,0.0-1.0-40.0-0.0-5.0,0,0,6,,,,,,,,,,,,,,,,,,,,,,,,,,,,,,,,,,,,,,217.0,1.0,,,,,
213,,choice,,html-keyboard-response,213,127948,0.0-1.0-41.0-0.0-0.0,0,0,6,,544.0,,,51.0,39.0,39.0,3000.0,3000.0,0.0,1.0,0.0,20-20,,,patio lounge chair,seashell,20.0,20.0,patio lounge chair14,seashell13,40.0,0.0,2987951.jpg,coquillage22.jpg,/static/Category_learning/Stimuli/Experimental_stims/patio lounge chair/2987951.jpg,/static/Category_learning/Stimuli/Experimental_stims/seashell/coquillage22.jpg,0.0,seashell,patio lounge chair,20.0,20.0,seashell13,patio lounge chair14,0.0,40.0,0.0,217.544,0.544,,,,,
214,,confirmation,,html-keyboard-response,214,128909,0.0-1.0-41.0-0.0-1.0-0.0,0,0,6,,,,,,39.0,,,,,,,,,,,,,,,,,,,,,,,,,,,,,,,,218.5,0.956,,,,,
215,,isi,,html-keyboard-response,215,129013,0.0-1.0-41.0-0.0-2.0,0,0,6,,,,,,,,,,,,,,,,,,,,,,,,,,,,,,,,,,,,,,221.5,3.0,,,,,
216,,feedback,,html-keyboard-response,216,130018,0.0-1.0-41.0-0.0-3.0-0.0,0,0,6,,,,,,39.0,,,,,,,,,,,,,,,,,,,,,,,,,,,,,,,,222.5,1.0,,,,,
217,,iti,,html-keyboard-response,217,130126,0.0-1.0-41.0-0.0-5.0,0,0,6,,,,,,,,,,,,,,,,,,,,,,,,,,,,,,,,,,,,,,225.5,3.0,,,,,
218,,choice,,html-keyboard-response,218,131078,0.0-1.0-42.0-0.0-0.0,0,0,6,,949.0,,,51.0,40.0,40.0,2000.0,2000.0,0.0,1.0,0.0,60-80,,1.0,makeup compact,flashlight,80.0,60.0,makeup compact9,flashlight10,100.0,80.0,b_102019.jpg,834784_sk_lg.jpg,/static/Category_learning/Stimuli/Experimental_stims/makeup compact/b_102019.jpg,/static/Category_learning/Stimuli/Experimental_stims/flashlight/834784_sk_lg.jpg,0.0,flashlight,makeup compact,60.0,80.0,flashlight10,makeup compact9,80.0,100.0,0.0,226.449,0.9490000000000001,,,,,
219,,confirmation,,html-keyboard-response,219,131632,0.0-1.0-42.0-0.0-1.0-0.0,0,0,6,,,,,,40.0,,,,,,,,,,,,,,,,,,,,,,,,,,,,,,,,227.0,0.551,,,,,
220,,isi,,html-keyboard-response,220,131740,0.0-1.0-42.0-0.0-2.0,0,0,6,,,,,,,,,,,,,,,,,,,,,,,,,,,,,,,,,,,,,,229.0,2.0,,,,,
221,,feedback,,html-keyboard-response,221,132746,0.0-1.0-42.0-0.0-3.0-0.0,0,0,6,,,,,,40.0,,,,,,,,,,,,,,,,,,,,,,,,,,,,,,,,230.0,1.0,,,,,
222,,iti,,html-keyboard-response,222,132849,0.0-1.0-42.0-0.0-5.0,0,0,6,,,,,,,,,,,,,,,,,,,,,,,,,,,,,,,,,,,,,,232.0,2.0,,,,,
223,,choice,,html-keyboard-response,223,133444,0.0-1.0-43.0-0.0-0.0,0,0,6,,591.0,,,50.0,41.0,41.0,2000.0,1000.0,0.0,1.0,1.0,60-60,1.0,,flashlight,flashlight,60.0,60.0,flashlight2,flashlight10,60.0,80.0,AV-9 No Battery Flashlight.jpg,834784_sk_lg.jpg,/static/Category_learning/Stimuli/Experimental_stims/flashlight/AV-9 No Battery Flashlight.jpg,/static/Category_learning/Stimuli/Experimental_stims/flashlight/834784_sk_lg.jpg,1.0,flashlight,flashlight,60.0,60.0,flashlight2,flashlight10,60.0,80.0,0.0,232.59099999999998,0.591,,,,,
224,,confirmation,,html-keyboard-response,224,134356,0.0-1.0-43.0-0.0-1.0-0.0,0,0,6,,,,,,41.0,,,,,,,,,,,,,,,,,,,,,,,,,,,,,,,,233.5,0.909,,,,,
225,,isi,,html-keyboard-response,225,134459,0.0-1.0-43.0-0.0-2.0,0,0,6,,,,,,,,,,,,,,,,,,,,,,,,,,,,,,,,,,,,,,235.5,2.0,,,,,
226,,feedback,,html-keyboard-response,226,135466,0.0-1.0-43.0-0.0-3.0-0.0,0,0,6,,,,,,41.0,,,,,,,,,,,,,,,,,,,,,,,,,,,,,,,,236.5,1.0,,,,,
227,,iti,,html-keyboard-response,227,135570,0.0-1.0-43.0-0.0-5.0,0,0,6,,,,,,,,,,,,,,,,,,,,,,,,,,,,,,,,,,,,,,237.5,1.0,,,,,
228,,choice,,html-keyboard-response,228,136764,0.0-1.0-44.0-0.0-0.0,0,0,6,,1191.0,,,51.0,42.0,42.0,1000.0,1500.0,0.0,1.0,0.0,40-80,,1.0,makeup compact,trumpet,80.0,40.0,makeup compact6,trumpet13,80.0,40.0,P0754_hero.jpg,JUPITER+JTR1600GS.jpg,/static/Category_learning/Stimuli/Experimental_stims/makeup compact/P0754_hero.jpg,/static/Category_learning/Stimuli/Experimental_stims/trumpet/JUPITER+JTR1600GS.jpg,0.0,trumpet,makeup compact,40.0,80.0,trumpet13,makeup compact6,40.0,80.0,0.0,238.69099999999997,1.1909999999999998,,,,,
229,,confirmation,,html-keyboard-response,229,137077,0.0-1.0-44.0-0.0-1.0-0.0,0,0,6,,,,,,42.0,,,,,,,,,,,,,,,,,,,,,,,,,,,,,,,,239.0,0.309,,,,,
230,,isi,,html-keyboard-response,230,137183,0.0-1.0-44.0-0.0-2.0,0,0,6,,,,,,,,,,,,,,,,,,,,,,,,,,,,,,,,,,,,,,240.0,1.0,,,,,
231,,feedback,,html-keyboard-response,231,138189,0.0-1.0-44.0-0.0-3.0-0.0,0,0,6,,,,,,42.0,,,,,,,,,,,,,,,,,,,,,,,,,,,,,,,,241.0,1.0,,,,,
232,,iti,,html-keyboard-response,232,138296,0.0-1.0-44.0-0.0-5.0,0,0,6,,,,,,,,,,,,,,,,,,,,,,,,,,,,,,,,,,,,,,242.5,1.5,,,,,
233,,choice,,html-keyboard-response,233,139800,0.0-1.0-45.0-0.0-0.0,0,0,6,,,,,,43.0,43.0,1000.0,2000.0,0.0,1.0,0.0,80-80,,,hat,makeup compact,80.0,80.0,hat2,makeup compact10,100.0,60.0,Ahatwithfeat7.jpg,P95108_hero.jpg,/static/Category_learning/Stimuli/Experimental_stims/hat/Ahatwithfeat7.jpg,/static/Category_learning/Stimuli/Experimental_stims/makeup compact/P95108_hero.jpg,,,,,,,,,,1.0,244.0,1.5,,,,,
234,,isi,,html-keyboard-response,234,139908,0.0-1.0-45.0-0.0-2.0,0,0,6,,,,,,,,,,,,,,,,,,,,,,,,,,,,,,,,,,,,,,245.0,1.0,,,,,
235,,no_response,,html-keyboard-response,235,140916,0.0-1.0-45.0-0.0-4.0-0.0,0,0,6,,,,,,,,,,,,,,,,,,,,,,,,,,,,,,,,,,,,,,246.0,1.0,,,,,
236,,iti,,html-keyboard-response,236,141034,0.0-1.0-45.0-0.0-5.0,0,0,6,,,,,,,,,,,,,,,,,,,,,,,,,,,,,,,,,,,,,,248.0,2.0,,,,,
237,,choice,,html-keyboard-response,237,142540,0.0-1.0-45.0-0.1-0.1,0,0,6,,,,,,43.0,43.0,1000.0,2000.0,0.0,1.0,0.0,80-80,,,hat,makeup compact,80.0,80.0,hat2,makeup compact10,100.0,60.0,Ahatwithfeat7.jpg,P95108_hero.jpg,/static/Category_learning/Stimuli/Experimental_stims/hat/Ahatwithfeat7.jpg,/static/Category_learning/Stimuli/Experimental_stims/makeup compact/P95108_hero.jpg,,,,,,,,,,1.0,249.5,1.5,,,,,
238,,isi,,html-keyboard-response,238,142646,0.0-1.0-45.0-0.1-2.1,0,0,6,,,,,,,,,,,,,,,,,,,,,,,,,,,,,,,,,,,,,,250.5,1.0,,,,,
239,,no_response,,html-keyboard-response,239,143654,0.0-1.0-45.0-0.1-4.1-0.1,0,0,6,,,,,,,,,,,,,,,,,,,,,,,,,,,,,,,,,,,,,,251.5,1.0,,,,,
240,,iti,,html-keyboard-response,240,143772,0.0-1.0-45.0-0.1-5.1,0,0,6,,,,,,,,,,,,,,,,,,,,,,,,,,,,,,,,,,,,,,253.5,2.0,,,,,
241,,choice,,html-keyboard-response,241,144644,0.0-1.0-45.0-0.2-0.2,0,0,6,,868.0,,,51.0,43.0,43.0,1000.0,2000.0,0.0,1.0,0.0,80-80,,,hat,makeup compact,80.0,80.0,hat2,makeup compact10,100.0,60.0,Ahatwithfeat7.jpg,P95108_hero.jpg,/static/Category_learning/Stimuli/Experimental_stims/hat/Ahatwithfeat7.jpg,/static/Category_learning/Stimuli/Experimental_stims/makeup compact/P95108_hero.jpg,0.0,makeup compact,hat,80.0,80.0,makeup compact10,hat2,60.0,100.0,0.0,254.368,0.868,,,,,
242,,confirmation,,html-keyboard-response,242,145279,0.0-1.0-45.0-0.2-1.2-0.2,0,0,6,,,,,,43.0,,,,,,,,,,,,,,,,,,,,,,,,,,,,,,,,255.0,0.632,,,,,
243,,isi,,html-keyboard-response,243,145385,0.0-1.0-45.0-0.2-2.2,0,0,6,,,,,,,,,,,,,,,,,,,,,,,,,,,,,,,,,,,,,,256.0,1.0,,,,,
244,,feedback,,html-keyboard-response,244,146390,0.0-1.0-45.0-0.2-3.2-0.2,0,0,6,,,,,,43.0,,,,,,,,,,,,,,,,,,,,,,,,,,,,,,,,257.0,1.0,,,,,
245,,iti,,html-keyboard-response,245,146492,0.0-1.0-45.0-0.2-5.2,0,0,6,,,,,,,,,,,,,,,,,,,,,,,,,,,,,,,,,,,,,,259.0,2.0,,,,,
246,,choice,,html-keyboard-response,246,146642,0.0-1.0-46.0-0.0-0.0,0,0,6,,146.0,,,51.0,44.0,44.0,1500.0,1500.0,0.0,1.0,0.0,40-60,,1.0,fan,tent,60.0,40.0,fan1,tent4,80.0,40.0,01393.fpx.jpg,Atent12.jpg,/static/Category_learning/Stimuli/Experimental_stims/fan/01393.fpx.jpg,/static/Category_learning/Stimuli/Experimental_stims/tent/Atent12.jpg,0.0,tent,fan,40.0,60.0,tent4,fan1,40.0,80.0,0.0,259.14599999999996,0.146,,,,,
247,,confirmation,,html-keyboard-response,247,148001,0.0-1.0-46.0-0.0-1.0-0.0,0,0,6,,,,,,44.0,,,,,,,,,,,,,,,,,,,,,,,,,,,,,,,,260.5,1.354,,,,,
248,,isi,,html-keyboard-response,248,148109,0.0-1.0-46.0-0.0-2.0,0,0,6,,,,,,,,,,,,,,,,,,,,,,,,,,,,,,,,,,,,,,262.0,1.5,,,,,
249,,feedback,,html-keyboard-response,249,149113,0.0-1.0-46.0-0.0-3.0-0.0,0,0,6,,,,,,44.0,,,,,,,,,,,,,,,,,,,,,,,,,,,,,,,,263.0,1.0,,,,,
250,,iti,,html-keyboard-response,250,149219,0.0-1.0-46.0-0.0-5.0,0,0,6,,,,,,,,,,,,,,,,,,,,,,,,,,,,,,,,,,,,,,264.5,1.5,,,,,
251,,choice,,html-keyboard-response,251,149241,0.0-1.0-47.0-0.0-0.0,0,0,6,,19.0,,,50.0,45.0,45.0,2000.0,3500.0,0.0,1.0,1.0,40-40,1.0,,trumpet,trumpet,40.0,40.0,trumpet13,trumpet11,40.0,20.0,JUPITER+JTR1600GS.jpg,JUPITER+JTR604L.jpg,/static/Category_learning/Stimuli/Experimental_stims/trumpet/JUPITER+JTR1600GS.jpg,/static/Category_learning/Stimuli/Experimental_stims/trumpet/JUPITER+JTR604L.jpg,1.0,trumpet,trumpet,40.0,40.0,trumpet13,trumpet11,40.0,20.0,0.0,264.519,0.019,,,,,
252,,confirmation,,html-keyboard-response,252,150725,0.0-1.0-47.0-0.0-1.0-0.0,0,0,6,,,,,,45.0,,,,,,,,,,,,,,,,,,,,,,,,,,,,,,,,266.0,1.4809999999999999,,,,,
253,,isi,,html-keyboard-response,253,150832,0.0-1.0-47.0-0.0-2.0,0,0,6,,,,,,,,,,,,,,,,,,,,,,,,,,,,,,,,,,,,,,268.0,2.0,,,,,
254,,feedback,,html-keyboard-response,254,151835,0.0-1.0-47.0-0.0-3.0-0.0,0,0,6,,,,,,45.0,,,,,,,,,,,,,,,,,,,,,,,,,,,,,,,,269.0,1.0,,,,,
255,,iti,,html-keyboard-response,255,151939,0.0-1.0-47.0-0.0-5.0,0,0,6,,,,,,,,,,,,,,,,,,,,,,,,,,,,,,,,,,,,,,272.5,3.5,,,,,
256,,choice,,html-keyboard-response,256,152331,0.0-1.0-48.0-0.0-0.0,0,0,6,,388.0,,,51.0,46.0,46.0,2000.0,1500.0,0.0,1.0,0.0,40-80,,0.0,yarn,lipstick,40.0,80.0,yarn8,lipstick9,60.0,100.0,smonlineyarn-285x250.jpg,P189145_hero.jpg,/static/Category_learning/Stimuli/Experimental_stims/yarn/smonlineyarn-285x250.jpg,/static/Category_learning/Stimuli/Experimental_stims/lipstick/P189145_hero.jpg,0.0,lipstick,yarn,80.0,40.0,lipstick9,yarn8,100.0,60.0,0.0,272.888,0.38799999999999996,,,,,
257,,confirmation,,html-keyboard-response,257,153450,0.0-1.0-48.0-0.0-1.0-0.0,0,0,6,,,,,,46.0,,,,,,,,,,,,,,,,,,,,,,,,,,,,,,,,274.0,1.112,,,,,
258,,isi,,html-keyboard-response,258,153554,0.0-1.0-48.0-0.0-2.0,0,0,6,,,,,,,,,,,,,,,,,,,,,,,,,,,,,,,,,,,,,,276.0,2.0,,,,,
259,,feedback,,html-keyboard-response,259,154560,0.0-1.0-48.0-0.0-3.0-0.0,0,0,6,,,,,,46.0,,,,,,,,,,,,,,,,,,,,,,,,,,,,,,,,277.0,1.0,,,,,
260,,iti,,html-keyboard-response,260,154663,0.0-1.0-48.0-0.0-5.0,0,0,6,,,,,,,,,,,,,,,,,,,,,,,,,,,,,,,,,,,,,,278.5,1.5,,,,,
261,,choice,,html-keyboard-response,261,154864,0.0-1.0-49.0-0.0-0.0,0,0,6,,197.0,,,51.0,47.0,47.0,1000.0,1000.0,0.0,1.0,1.0,80-80,1.0,,lipstick,lipstick,80.0,80.0,lipstick9,lipstick5,100.0,80.0,P189145_hero.jpg,P35719_hero.jpg,/static/Category_learning/Stimuli/Experimental_stims/lipstick/P189145_hero.jpg,/static/Category_learning/Stimuli/Experimental_stims/lipstick/P35719_hero.jpg,0.0,lipstick,lipstick,80.0,80.0,lipstick5,lipstick9,80.0,100.0,0.0,278.697,0.19699999999999998,,,,,
262,,confirmation,,html-keyboard-response,262,156171,0.0-1.0-49.0-0.0-1.0-0.0,0,0,6,,,,,,47.0,,,,,,,,,,,,,,,,,,,,,,,,,,,,,,,,280.0,1.3030000000000002,,,,,
263,,isi,,html-keyboard-response,263,156275,0.0-1.0-49.0-0.0-2.0,0,0,6,,,,,,,,,,,,,,,,,,,,,,,,,,,,,,,,,,,,,,281.0,1.0,,,,,
264,,feedback,,html-keyboard-response,264,157283,0.0-1.0-49.0-0.0-3.0-0.0,0,0,6,,,,,,47.0,,,,,,,,,,,,,,,,,,,,,,,,,,,,,,,,282.0,1.0,,,,,
265,,iti,,html-keyboard-response,265,157388,0.0-1.0-49.0-0.0-5.0,0,0,6,,,,,,,,,,,,,,,,,,,,,,,,,,,,,,,,,,,,,,283.0,1.0,,,,,
266,,choice,,html-keyboard-response,266,158895,0.0-1.0-50.0-0.0-0.0,0,0,6,,,,,,48.0,48.0,1500.0,1000.0,0.0,1.0,0.0,40-60,,0.0,train,flashlight,40.0,60.0,train8,flashlight12,40.0,60.0,PL51190.jpg,new05.jpg,/static/Category_learning/Stimuli/Experimental_stims/train/PL51190.jpg,/static/Category_learning/Stimuli/Experimental_stims/flashlight/new05.jpg,,,,,,,,,,1.0,284.5,1.5,,,,,
267,,isi,,html-keyboard-response,267,159000,0.0-1.0-50.0-0.0-2.0,0,0,6,,,,,,,,,,,,,,,,,,,,,,,,,,,,,,,,,,,,,,286.0,1.5,,,,,
268,,no_response,,html-keyboard-response,268,160008,0.0-1.0-50.0-0.0-4.0-0.0,0,0,6,,,,,,,,,,,,,,,,,,,,,,,,,,,,,,,,,,,,,,287.0,1.0,,,,,
269,,iti,,html-keyboard-response,269,160129,0.0-1.0-50.0-0.0-5.0,0,0,6,,,,,,,,,,,,,,,,,,,,,,,,,,,,,,,,,,,,,,288.0,1.0,,,,,
270,,choice,,html-keyboard-response,270,161199,0.0-1.0-50.0-0.1-0.1,0,0,6,,1066.0,,,51.0,48.0,48.0,1500.0,1000.0,0.0,1.0,0.0,40-60,,0.0,train,flashlight,40.0,60.0,train8,flashlight12,40.0,60.0,PL51190.jpg,new05.jpg,/static/Category_learning/Stimuli/Experimental_stims/train/PL51190.jpg,/static/Category_learning/Stimuli/Experimental_stims/flashlight/new05.jpg,0.0,flashlight,train,60.0,40.0,flashlight12,train8,60.0,40.0,0.0,289.066,1.0659999999999998,,,,,
271,,confirmation,,html-keyboard-response,271,161638,0.0-1.0-50.0-0.1-1.1-0.1,0,0,6,,,,,,48.0,,,,,,,,,,,,,,,,,,,,,,,,,,,,,,,,289.5,0.434,,,,,
272,,isi,,html-keyboard-response,272,161743,0.0-1.0-50.0-0.1-2.1,0,0,6,,,,,,,,,,,,,,,,,,,,,,,,,,,,,,,,,,,,,,291.0,1.5,,,,,
273,,feedback,,html-keyboard-response,273,162749,0.0-1.0-50.0-0.1-3.1-0.1,0,0,6,,,,,,48.0,,,,,,,,,,,,,,,,,,,,,,,,,,,,,,,,292.0,1.0,,,,,
274,,iti,,html-keyboard-response,274,162852,0.0-1.0-50.0-0.1-5.1,0,0,6,,,,,,,,,,,,,,,,,,,,,,,,,,,,,,,,,,,,,,293.0,1.0,,,,,
275,,choice,,html-keyboard-response,275,163893,0.0-1.0-51.0-0.0-0.0,0,0,6,,1039.0,,,51.0,49.0,49.0,1000.0,1000.0,0.0,1.0,1.0,20-40,0.0,,pen,stool,20.0,40.0,pen2,stool2,20.0,20.0,Montblanc-Blu-Starwalker-BP copy.jpg,ASTOOL46.jpg,/static/Category_learning/Stimuli/Experimental_stims/pen/Montblanc-Blu-Starwalker-BP copy.jpg,/static/Category_learning/Stimuli/Experimental_stims/stool/ASTOOL46.jpg,0.0,stool,pen,40.0,20.0,stool2,pen2,20.0,20.0,0.0,294.039,1.0390000000000001,,,,,
276,,confirmation,,html-keyboard-response,276,164358,0.0-1.0-51.0-0.0-1.0-0.0,0,0,6,,,,,,49.0,,,,,,,,,,,,,,,,,,,,,,,,,,,,,,,,294.5,0.461,,,,,
277,,isi,,html-keyboard-response,277,164461,0.0-1.0-51.0-0.0-2.0,0,0,6,,,,,,,,,,,,,,,,,,,,,,,,,,,,,,,,,,,,,,295.5,1.0,,,,,
278,,feedback,,html-keyboard-response,278,165468,0.0-1.0-51.0-0.0-3.0-0.0,0,0,6,,,,,,49.0,,,,,,,,,,,,,,,,,,,,,,,,,,,,,,,,296.5,1.0,,,,,
279,,iti,,html-keyboard-response,279,165575,0.0-1.0-51.0-0.0-5.0,0,0,6,,,,,,,,,,,,,,,,,,,,,,,,,,,,,,,,,,,,,,297.5,1.0,,,,,
280,,choice,,html-keyboard-response,280,166100,0.0-1.0-52.0-0.0-0.0,0,0,6,,522.0,,,51.0,50.0,50.0,1000.0,2000.0,0.0,1.0,0.0,20-80,,1.0,lipstick,sofa,80.0,20.0,lipstick13,sofa8,60.0,20.0,P184708_hero.jpg,allegro-leather-sofa-med2.jpg,/static/Category_learning/Stimuli/Experimental_stims/lipstick/P184708_hero.jpg,/static/Category_learning/Stimuli/Experimental_stims/sofa/allegro-leather-sofa-med2.jpg,0.0,sofa,lipstick,20.0,80.0,sofa8,lipstick13,20.0,60.0,0.0,298.022,0.522,,,,,
281,,confirmation,,html-keyboard-response,281,167086,0.0-1.0-52.0-0.0-1.0-0.0,0,0,6,,,,,,50.0,,,,,,,,,,,,,,,,,,,,,,,,,,,,,,,,299.0,0.978,,,,,
282,,isi,,html-keyboard-response,282,167192,0.0-1.0-52.0-0.0-2.0,0,0,6,,,,,,,,,,,,,,,,,,,,,,,,,,,,,,,,,,,,,,300.0,1.0,,,,,
283,,feedback,,html-keyboard-response,283,168201,0.0-1.0-52.0-0.0-3.0-0.0,0,0,6,,,,,,50.0,,,,,,,,,,,,,,,,,,,,,,,,,,,,,,,,301.0,1.0,,,,,
284,,iti,,html-keyboard-response,284,168308,0.0-1.0-52.0-0.0-5.0,0,0,6,,,,,,,,,,,,,,,,,,,,,,,,,,,,,,,,,,,,,,303.0,2.0,,,,,
285,,choice,,html-keyboard-response,285,168753,0.0-1.0-53.0-0.0-0.0,0,0,6,,441.0,,,50.0,51.0,51.0,1000.0,2000.0,0.0,1.0,0.0,40-60,,0.0,stool,baby carriage,40.0,60.0,stool5,baby carriage11,40.0,80.0,ASTOOL23.jpg,Baby_Carriage-2.jpg,/static/Category_learning/Stimuli/Experimental_stims/stool/ASTOOL23.jpg,/static/Category_learning/Stimuli/Experimental_stims/baby carriage/Baby_Carriage-2.jpg,1.0,stool,baby carriage,40.0,60.0,stool5,baby carriage11,40.0,80.0,0.0,303.441,0.441,,,,,
286,,confirmation,,html-keyboard-response,286,169817,0.0-1.0-53.0-0.0-1.0-0.0,0,0,6,,,,,,51.0,,,,,,,,,,,,,,,,,,,,,,,,,,,,,,,,304.5,1.0590000000000002,,,,,
287,,isi,,html-keyboard-response,287,169923,0.0-1.0-53.0-0.0-2.0,0,0,6,,,,,,,,,,,,,,,,,,,,,,,,,,,,,,,,,,,,,,305.5,1.0,,,,,
288,,feedback,,html-keyboard-response,288,170930,0.0-1.0-53.0-0.0-3.0-0.0,0,0,6,,,,,,51.0,,,,,,,,,,,,,,,,,,,,,,,,,,,,,,,,306.5,1.0,,,,,
289,,iti,,html-keyboard-response,289,171035,0.0-1.0-53.0-0.0-5.0,0,0,6,,,,,,,,,,,,,,,,,,,,,,,,,,,,,,,,,,,,,,308.5,2.0,,,,,
290,,choice,,html-keyboard-response,290,171668,0.0-1.0-54.0-0.0-0.0,0,0,6,,631.0,,,51.0,52.0,52.0,1000.0,2000.0,0.0,1.0,0.0,40-40,,,telescope,vase,40.0,40.0,telescope10,vase4,20.0,60.0,digimarc.ms02.jpg,Avase111.jpg,/static/Category_learning/Stimuli/Experimental_stims/telescope/digimarc.ms02.jpg,/static/Category_learning/Stimuli/Experimental_stims/vase/Avase111.jpg,0.0,vase,telescope,40.0,40.0,vase4,telescope10,60.0,20.0,0.0,309.131,0.631,,,,,
291,,confirmation,,html-keyboard-response,291,172544,0.0-1.0-54.0-0.0-1.0-0.0,0,0,6,,,,,,52.0,,,,,,,,,,,,,,,,,,,,,,,,,,,,,,,,310.0,0.8690000000000001,,,,,
292,,isi,,html-keyboard-response,292,172651,0.0-1.0-54.0-0.0-2.0,0,0,6,,,,,,,,,,,,,,,,,,,,,,,,,,,,,,,,,,,,,,311.0,1.0,,,,,
293,,feedback,,html-keyboard-response,293,173657,0.0-1.0-54.0-0.0-3.0-0.0,0,0,6,,,,,,52.0,,,,,,,,,,,,,,,,,,,,,,,,,,,,,,,,312.0,1.0,,,,,
294,,iti,,html-keyboard-response,294,173760,0.0-1.0-54.0-0.0-5.0,0,0,6,,,,,,,,,,,,,,,,,,,,,,,,,,,,,,,,,,,,,,314.0,2.0,,,,,
295,,choice,,html-keyboard-response,295,173821,0.0-1.0-55.0-0.0-0.0,0,0,6,,57.0,,,51.0,53.0,53.0,1000.0,1500.0,0.0,1.0,1.0,20-20,1.0,,sofa,sofa,20.0,20.0,sofa9,sofa8,20.0,20.0,ALOVSEAT9.jpg,allegro-leather-sofa-med2.jpg,/static/Category_learning/Stimuli/Experimental_stims/sofa/ALOVSEAT9.jpg,/static/Category_learning/Stimuli/Experimental_stims/sofa/allegro-leather-sofa-med2.jpg,0.0,sofa,sofa,20.0,20.0,sofa8,sofa9,20.0,20.0,0.0,314.057,0.057,,,,,
296,,confirmation,,html-keyboard-response,296,175268,0.0-1.0-55.0-0.0-1.0-0.0,0,0,6,,,,,,53.0,,,,,,,,,,,,,,,,,,,,,,,,,,,,,,,,315.5,1.443,,,,,
297,,isi,,html-keyboard-response,297,175372,0.0-1.0-55.0-0.0-2.0,0,0,6,,,,,,,,,,,,,,,,,,,,,,,,,,,,,,,,,,,,,,316.5,1.0,,,,,
298,,feedback,,html-keyboard-response,298,176380,0.0-1.0-55.0-0.0-3.0-0.0,0,0,6,,,,,,53.0,,,,,,,,,,,,,,,,,,,,,,,,,,,,,,,,317.5,1.0,,,,,
299,,iti,,html-keyboard-response,299,176483,0.0-1.0-55.0-0.0-5.0,0,0,6,,,,,,,,,,,,,,,,,,,,,,,,,,,,,,,,,,,,,,319.0,1.5,,,,,
300,,choice,,html-keyboard-response,300,177399,0.0-1.0-56.0-0.0-0.0,0,0,6,,913.0,,,50.0,54.0,54.0,2000.0,1500.0,0.0,1.0,0.0,20-80,,1.0,hat,nail polish,80.0,20.0,hat3,nail polish14,100.0,40.0,Astrawhat49.jpg,38031405.JPG,/static/Category_learning/Stimuli/Experimental_stims/hat/Astrawhat49.jpg,/static/Category_learning/Stimuli/Experimental_stims/nail polish/38031405.JPG,1.0,hat,nail polish,80.0,20.0,hat3,nail polish14,100.0,40.0,0.0,319.913,0.9129999999999999,,,,,
301,,confirmation,,html-keyboard-response,301,177994,0.0-1.0-56.0-0.0-1.0-0.0,0,0,6,,,,,,54.0,,,,,,,,,,,,,,,,,,,,,,,,,,,,,,,,320.5,0.5870000000000001,,,,,
302,,isi,,html-keyboard-response,302,178097,0.0-1.0-56.0-0.0-2.0,0,0,6,,,,,,,,,,,,,,,,,,,,,,,,,,,,,,,,,,,,,,322.5,2.0,,,,,
303,,feedback,,html-keyboard-response,303,179103,0.0-1.0-56.0-0.0-3.0-0.0,0,0,6,,,,,,54.0,,,,,,,,,,,,,,,,,,,,,,,,,,,,,,,,323.5,1.0,,,,,
304,,iti,,html-keyboard-response,304,179209,0.0-1.0-56.0-0.0-5.0,0,0,6,,,,,,,,,,,,,,,,,,,,,,,,,,,,,,,,,,,,,,325.0,1.5,,,,,
305,,choice,,html-keyboard-response,305,179218,0.0-1.0-57.0-0.0-0.0,0,0,6,,6.0,,,50.0,55.0,55.0,3000.0,1000.0,0.0,1.0,0.0,20-60,,0.0,necklace,bench,20.0,60.0,necklace6,bench4,0.0,40.0,Agoldnecklace.jpg,30892819.thl.jpg,/static/Category_learning/Stimuli/Experimental_stims/necklace/Agoldnecklace.jpg,/static/Category_learning/Stimuli/Experimental_stims/bench/30892819.thl.jpg,1.0,necklace,bench,20.0,60.0,necklace6,bench4,0.0,40.0,0.0,325.006,0.006,,,,,
306,,confirmation,,html-keyboard-response,306,180718,0.0-1.0-57.0-0.0-1.0-0.0,0,0,6,,,,,,55.0,,,,,,,,,,,,,,,,,,,,,,,,,,,,,,,,326.5,1.494,,,,,
307,,isi,,html-keyboard-response,307,180823,0.0-1.0-57.0-0.0-2.0,0,0,6,,,,,,,,,,,,,,,,,,,,,,,,,,,,,,,,,,,,,,329.5,3.0,,,,,
308,,feedback,,html-keyboard-response,308,181827,0.0-1.0-57.0-0.0-3.0-0.0,0,0,6,,,,,,55.0,,,,,,,,,,,,,,,,,,,,,,,,,,,,,,,,330.5,1.0,,,,,
309,,iti,,html-keyboard-response,309,181932,0.0-1.0-57.0-0.0-5.0,0,0,6,,,,,,,,,,,,,,,,,,,,,,,,,,,,,,,,,,,,,,331.5,1.0,,,,,
310,,choice,,html-keyboard-response,310,182213,0.0-1.0-58.0-0.0-0.0,0,0,6,,277.0,,,51.0,56.0,56.0,1000.0,1500.0,0.0,1.0,0.0,20-80,,1.0,key chain,sofa,80.0,20.0,key chain1,sofa13,80.0,40.0,jm05s16.jpg,ACOUCH25.jpg,/static/Category_learning/Stimuli/Experimental_stims/key chain/jm05s16.jpg,/static/Category_learning/Stimuli/Experimental_stims/sofa/ACOUCH25.jpg,0.0,sofa,key chain,20.0,80.0,sofa13,key chain1,40.0,80.0,0.0,331.777,0.27699999999999997,,,,,
311,,confirmation,,html-keyboard-response,311,183441,0.0-1.0-58.0-0.0-1.0-0.0,0,0,6,,,,,,56.0,,,,,,,,,,,,,,,,,,,,,,,,,,,,,,,,333.0,1.2229999999999999,,,,,
312,,isi,,html-keyboard-response,312,183544,0.0-1.0-58.0-0.0-2.0,0,0,6,,,,,,,,,,,,,,,,,,,,,,,,,,,,,,,,,,,,,,334.0,1.0,,,,,
313,,feedback,,html-keyboard-response,313,184552,0.0-1.0-58.0-0.0-3.0-0.0,0,0,6,,,,,,56.0,,,,,,,,,,,,,,,,,,,,,,,,,,,,,,,,335.0,1.0,,,,,
314,,iti,,html-keyboard-response,314,184654,0.0-1.0-58.0-0.0-5.0,0,0,6,,,,,,,,,,,,,,,,,,,,,,,,,,,,,,,,,,,,,,336.5,1.5,,,,,
315,,choice,,html-keyboard-response,315,185104,0.0-1.0-59.0-0.0-0.0,0,0,6,,446.0,,,51.0,57.0,57.0,1500.0,1000.0,0.0,1.0,1.0,20-20,1.0,,necklace,necklace,20.0,20.0,necklace6,necklace2,0.0,20.0,Agoldnecklace.jpg,Anecklace7.jpg,/static/Category_learning/Stimuli/Experimental_stims/necklace/Agoldnecklace.jpg,/static/Category_learning/Stimuli/Experimental_stims/necklace/Anecklace7.jpg,0.0,necklace,necklace,20.0,20.0,necklace2,necklace6,20.0,0.0,0.0,336.94599999999997,0.446,,,,,
316,,confirmation,,html-keyboard-response,316,186165,0.0-1.0-59.0-0.0-1.0-0.0,0,0,6,,,,,,57.0,,,,,,,,,,,,,,,,,,,,,,,,,,,,,,,,338.0,1.054,,,,,
317,,isi,,html-keyboard-response,317,186268,0.0-1.0-59.0-0.0-2.0,0,0,6,,,,,,,,,,,,,,,,,,,,,,,,,,,,,,,,,,,,,,339.5,1.5,,,,,
318,,feedback,,html-keyboard-response,318,187274,0.0-1.0-59.0-0.0-3.0-0.0,0,0,6,,,,,,57.0,,,,,,,,,,,,,,,,,,,,,,,,,,,,,,,,340.5,1.0,,,,,
319,,iti,,html-keyboard-response,319,187377,0.0-1.0-59.0-0.0-5.0,0,0,6,,,,,,,,,,,,,,,,,,,,,,,,,,,,,,,,,,,,,,341.5,1.0,,,,,
320,,choice,,html-keyboard-response,320,188548,0.0-1.0-60.0-0.0-0.0,0,0,6,,1168.0,,,50.0,58.0,58.0,3000.0,1000.0,0.0,1.0,0.0,40-80,,0.0,tent,hat,40.0,80.0,tent14,hat14,20.0,60.0,inflatable-tent.jpg,Ahat136.jpg,/static/Category_learning/Stimuli/Experimental_stims/tent/inflatable-tent.jpg,/static/Category_learning/Stimuli/Experimental_stims/hat/Ahat136.jpg,1.0,tent,hat,40.0,80.0,tent14,hat14,20.0,60.0,0.0,342.668,1.168,,,,,
321,,confirmation,,html-keyboard-response,321,188884,0.0-1.0-60.0-0.0-1.0-0.0,0,0,6,,,,,,58.0,,,,,,,,,,,,,,,,,,,,,,,,,,,,,,,,343.0,0.332,,,,,
322,,isi,,html-keyboard-response,322,188992,0.0-1.0-60.0-0.0-2.0,0,0,6,,,,,,,,,,,,,,,,,,,,,,,,,,,,,,,,,,,,,,346.0,3.0,,,,,
323,,feedback,,html-keyboard-response,323,189999,0.0-1.0-60.0-0.0-3.0-0.0,0,0,6,,,,,,58.0,,,,,,,,,,,,,,,,,,,,,,,,,,,,,,,,347.0,1.0,,,,,
324,,iti,,html-keyboard-response,324,190101,0.0-1.0-60.0-0.0-5.0,0,0,6,,,,,,,,,,,,,,,,,,,,,,,,,,,,,,,,,,,,,,348.0,1.0,,,,,
325,,block_over,,html-keyboard-response,325,193033,0.0-1.0-60.0-0.0-7.0-0.0,0,0,6,,2909.0,,,50.0,58.0,,,,,,,,,,,,,,,,,,,,,,,,,,,,,,,,,,,,,,
326,,start_run,,html-keyboard-response,326,193769,0.0-1.0-60.0-0.0-7.0-1.0,0,0,6,,733.0,,,84.0,,,,,,,,,,,,,,,,,,,,,,,,,,,,,,,,,,,,,,,
327,,choice,,html-keyboard-response,327,194162,0.0-1.0-61.0-0.0-0.0,0,0,6,,390.0,,,50.0,59.0,65.0,3000.0,2000.0,0.0,2.0,0.0,40-40,,,watch,tape,40.0,40.0,watch9,tape2,40.0,20.0,mens-diamond-watches-euro-48733-ab.jpg,Tape_Dispenser.jpg,/static/Category_learning/Stimuli/Experimental_stims/watch/mens-diamond-watches-euro-48733-ab.jpg,/static/Category_learning/Stimuli/Experimental_stims/tape/Tape_Dispenser.jpg,1.0,watch,tape,40.0,40.0,watch9,tape2,40.0,20.0,0.0,0.39,0.39,,,,,
328,,confirmation,,html-keyboard-response,328,195279,0.0-1.0-61.0-0.0-1.0-0.0,0,0,6,,,,,,59.0,,,,,,,,,,,,,,,,,,,,,,,,,,,,,,,,1.5,1.11,,,,,
329,,isi,,html-keyboard-response,329,195385,0.0-1.0-61.0-0.0-2.0,0,0,6,,,,,,,,,,,,,,,,,,,,,,,,,,,,,,,,,,,,,,4.5,3.0,,,,,
330,,feedback,,html-keyboard-response,330,196388,0.0-1.0-61.0-0.0-3.0-0.0,0,0,6,,,,,,59.0,,,,,,,,,,,,,,,,,,,,,,,,,,,,,,,,5.5,1.0,,,,,
331,,iti,,html-keyboard-response,331,196492,0.0-1.0-61.0-0.0-5.0,0,0,6,,,,,,,,,,,,,,,,,,,,,,,,,,,,,,,,,,,,,,7.5,2.0,,,,,
332,,choice,,html-keyboard-response,332,196503,0.0-1.0-62.0-0.0-0.0,0,0,6,,8.0,,,51.0,60.0,66.0,3000.0,1500.0,0.0,2.0,0.0,20-60,,0.0,pen,bowl,20.0,60.0,pen3,bowl13,0.0,80.0,pen08.jpg,Asoupbowl8.jpg,/static/Category_learning/Stimuli/Experimental_stims/pen/pen08.jpg,/static/Category_learning/Stimuli/Experimental_stims/bowl/Asoupbowl8.jpg,0.0,bowl,pen,60.0,20.0,bowl13,pen3,80.0,0.0,0.0,7.507999999999999,0.008,,,,,
333,,confirmation,,html-keyboard-response,333,198001,0.0-1.0-62.0-0.0-1.0-0.0,0,0,6,,,,,,60.0,,,,,,,,,,,,,,,,,,,,,,,,,,,,,,,,9.0,1.492,,,,,
334,,isi,,html-keyboard-response,334,198107,0.0-1.0-62.0-0.0-2.0,0,0,6,,,,,,,,,,,,,,,,,,,,,,,,,,,,,,,,,,,,,,12.0,3.0,,,,,
335,,feedback,,html-keyboard-response,335,199112,0.0-1.0-62.0-0.0-3.0-0.0,0,0,6,,,,,,60.0,,,,,,,,,,,,,,,,,,,,,,,,,,,,,,,,13.0,1.0,,,,,
336,,iti,,html-keyboard-response,336,199219,0.0-1.0-62.0-0.0-5.0,0,0,6,,,,,,,,,,,,,,,,,,,,,,,,,,,,,,,,,,,,,,14.5,1.5,,,,,
337,,choice,,html-keyboard-response,337,200139,0.0-1.0-63.0-0.0-0.0,0,0,6,,917.0,,,51.0,61.0,67.0,1000.0,3000.0,0.0,2.0,0.0,20-60,,0.0,nail polish,bongo,20.0,60.0,nail polish1,bongo8,20.0,80.0,200.jpg,26390661.thl.jpg,/static/Category_learning/Stimuli/Experimental_stims/nail polish/200.jpg,/static/Category_learning/Stimuli/Experimental_stims/bongo/26390661.thl.jpg,0.0,bongo,nail polish,60.0,20.0,bongo8,nail polish1,80.0,20.0,0.0,15.417,0.917,,,,,
338,,confirmation,,html-keyboard-response,338,200726,0.0-1.0-63.0-0.0-1.0-0.0,0,0,6,,,,,,61.0,,,,,,,,,,,,,,,,,,,,,,,,,,,,,,,,16.0,0.583,,,,,
339,,isi,,html-keyboard-response,339,200831,0.0-1.0-63.0-0.0-2.0,0,0,6,,,,,,,,,,,,,,,,,,,,,,,,,,,,,,,,,,,,,,17.0,1.0,,,,,
340,,feedback,,html-keyboard-response,340,201838,0.0-1.0-63.0-0.0-3.0-0.0,0,0,6,,,,,,61.0,,,,,,,,,,,,,,,,,,,,,,,,,,,,,,,,18.0,1.0,,,,,
341,,iti,,html-keyboard-response,341,201943,0.0-1.0-63.0-0.0-5.0,0,0,6,,,,,,,,,,,,,,,,,,,,,,,,,,,,,,,,,,,,,,21.0,3.0,,,,,
342,,choice,,html-keyboard-response,342,202212,0.0-1.0-64.0-0.0-0.0,0,0,6,,266.0,,,50.0,62.0,68.0,1000.0,2000.0,0.0,2.0,0.0,20-20,,,power strip,patio lounge chair,20.0,20.0,power strip14,patio lounge chair13,20.0,20.0,88b2c724-e781-44ae-85d5-27b7591f659d_400.jpg,grosfillex-bahia-resin-chaise-lounges.jpg,/static/Category_learning/Stimuli/Experimental_stims/power strip/88b2c724-e781-44ae-85d5-27b7591f659d_400.jpg,/static/Category_learning/Stimuli/Experimental_stims/patio lounge chair/grosfillex-bahia-resin-chaise-lounges.jpg,1.0,power strip,patio lounge chair,20.0,20.0,power strip14,patio lounge chair13,20.0,20.0,0.0,21.266,0.266,,,,,
343,,confirmation,,html-keyboard-response,343,203449,0.0-1.0-64.0-0.0-1.0-0.0,0,0,6,,,,,,62.0,,,,,,,,,,,,,,,,,,,,,,,,,,,,,,,,22.5,1.234,,,,,
344,,isi,,html-keyboard-response,344,203553,0.0-1.0-64.0-0.0-2.0,0,0,6,,,,,,,,,,,,,,,,,,,,,,,,,,,,,,,,,,,,,,23.5,1.0,,,,,
345,,feedback,,html-keyboard-response,345,204559,0.0-1.0-64.0-0.0-3.0-0.0,0,0,6,,,,,,62.0,,,,,,,,,,,,,,,,,,,,,,,,,,,,,,,,24.5,1.0,,,,,
346,,iti,,html-keyboard-response,346,204663,0.0-1.0-64.0-0.0-5.0,0,0,6,,,,,,,,,,,,,,,,,,,,,,,,,,,,,,,,,,,,,,26.5,2.0,,,,,
347,,choice,,html-keyboard-response,347,204975,0.0-1.0-65.0-0.0-0.0,0,0,6,,308.0,,,51.0,63.0,69.0,1500.0,1500.0,0.0,2.0,0.0,40-40,,,tent,train,40.0,40.0,tent2,train1,40.0,40.0,Atent16.jpg,Model_Train.jpg,/static/Category_learning/Stimuli/Experimental_stims/tent/Atent16.jpg,/static/Category_learning/Stimuli/Experimental_stims/train/Model_Train.jpg,0.0,train,tent,40.0,40.0,train1,tent2,40.0,40.0,0.0,26.808000000000003,0.308,,,,,
348,,confirmation,,html-keyboard-response,348,206175,0.0-1.0-65.0-0.0-1.0-0.0,0,0,6,,,,,,63.0,,,,,,,,,,,,,,,,,,,,,,,,,,,,,,,,28.0,1.192,,,,,
349,,isi,,html-keyboard-response,349,206279,0.0-1.0-65.0-0.0-2.0,0,0,6,,,,,,,,,,,,,,,,,,,,,,,,,,,,,,,,,,,,,,29.5,1.5,,,,,
350,,feedback,,html-keyboard-response,350,207285,0.0-1.0-65.0-0.0-3.0-0.0,0,0,6,,,,,,63.0,,,,,,,,,,,,,,,,,,,,,,,,,,,,,,,,30.5,1.0,,,,,
351,,iti,,html-keyboard-response,351,207388,0.0-1.0-65.0-0.0-5.0,0,0,6,,,,,,,,,,,,,,,,,,,,,,,,,,,,,,,,,,,,,,32.0,1.5,,,,,
352,,choice,,html-keyboard-response,352,208126,0.0-1.0-66.0-0.0-0.0,0,0,6,,736.0,,,50.0,64.0,70.0,1500.0,1500.0,0.0,2.0,0.0,40-80,,1.0,key chain,vase,80.0,40.0,key chain5,vase7,60.0,60.0,keychain-metal-logo.jpg,8246344.thl.jpg,/static/Category_learning/Stimuli/Experimental_stims/key chain/keychain-metal-logo.jpg,/static/Category_learning/Stimuli/Experimental_stims/vase/8246344.thl.jpg,1.0,key chain,vase,80.0,40.0,key chain5,vase7,60.0,60.0,0.0,32.736,0.736,,,,,
353,,confirmation,,html-keyboard-response,353,208895,0.0-1.0-66.0-0.0-1.0-0.0,0,0,6,,,,,,64.0,,,,,,,,,,,,,,,,,,,,,,,,,,,,,,,,33.5,0.764,,,,,
354,,isi,,html-keyboard-response,354,209000,0.0-1.0-66.0-0.0-2.0,0,0,6,,,,,,,,,,,,,,,,,,,,,,,,,,,,,,,,,,,,,,35.0,1.5,,,,,
355,,feedback,,html-keyboard-response,355,210003,0.0-1.0-66.0-0.0-3.0-0.0,0,0,6,,,,,,64.0,,,,,,,,,,,,,,,,,,,,,,,,,,,,,,,,36.0,1.0,,,,,
356,,iti,,html-keyboard-response,356,210107,0.0-1.0-66.0-0.0-5.0,0,0,6,,,,,,,,,,,,,,,,,,,,,,,,,,,,,,,,,,,,,,37.5,1.5,,,,,
357,,choice,,html-keyboard-response,357,210349,0.0-1.0-67.0-0.0-0.0,0,0,6,,237.0,,,51.0,65.0,71.0,1000.0,2000.0,0.0,2.0,0.0,20-40,,0.0,power strip,trumpet,20.0,40.0,power strip5,trumpet8,0.0,60.0,93e4a283-bcd6-4ad1-8add-339658cda0fc_400.jpg,trumpet33.jpg,/static/Category_learning/Stimuli/Experimental_stims/power strip/93e4a283-bcd6-4ad1-8add-339658cda0fc_400.jpg,/static/Category_learning/Stimuli/Experimental_stims/trumpet/trumpet33.jpg,0.0,trumpet,power strip,40.0,20.0,trumpet8,power strip5,60.0,0.0,0.0,37.736999999999995,0.237,,,,,
358,,confirmation,,html-keyboard-response,358,211616,0.0-1.0-67.0-0.0-1.0-0.0,0,0,6,,,,,,65.0,,,,,,,,,,,,,,,,,,,,,,,,,,,,,,,,39.0,1.263,,,,,
359,,isi,,html-keyboard-response,359,211719,0.0-1.0-67.0-0.0-2.0,0,0,6,,,,,,,,,,,,,,,,,,,,,,,,,,,,,,,,,,,,,,40.0,1.0,,,,,
360,,feedback,,html-keyboard-response,360,212725,0.0-1.0-67.0-0.0-3.0-0.0,0,0,6,,,,,,65.0,,,,,,,,,,,,,,,,,,,,,,,,,,,,,,,,41.0,1.0,,,,,
361,,iti,,html-keyboard-response,361,212832,0.0-1.0-67.0-0.0-5.0,0,0,6,,,,,,,,,,,,,,,,,,,,,,,,,,,,,,,,,,,,,,43.0,2.0,,,,,
362,,choice,,html-keyboard-response,362,213501,0.0-1.0-68.0-0.0-0.0,0,0,6,,667.0,,,50.0,66.0,72.0,3500.0,1000.0,0.0,2.0,0.0,40-80,,1.0,key chain,watch,80.0,40.0,key chain10,watch3,80.0,60.0,Smurfs_Keychains_Smurf_Row_Boat.jpg,B0000TIIVO.01._SCLZZZZZZZ_V1124920780_.jpg,/static/Category_learning/Stimuli/Experimental_stims/key chain/Smurfs_Keychains_Smurf_Row_Boat.jpg,/static/Category_learning/Stimuli/Experimental_stims/watch/B0000TIIVO.01._SCLZZZZZZZ_V1124920780_.jpg,1.0,key chain,watch,80.0,40.0,key chain10,watch3,80.0,60.0,0.0,43.667,0.667,,,,,
363,,confirmation,,html-keyboard-response,363,214340,0.0-1.0-68.0-0.0-1.0-0.0,0,0,6,,,,,,66.0,,,,,,,,,,,,,,,,,,,,,,,,,,,,,,,,44.5,0.833,,,,,
364,,isi,,html-keyboard-response,364,214443,0.0-1.0-68.0-0.0-2.0,0,0,6,,,,,,,,,,,,,,,,,,,,,,,,,,,,,,,,,,,,,,48.0,3.5,,,,,
365,,feedback,,html-keyboard-response,365,215448,0.0-1.0-68.0-0.0-3.0-0.0,0,0,6,,,,,,66.0,,,,,,,,,,,,,,,,,,,,,,,,,,,,,,,,49.0,1.0,,,,,
366,,iti,,html-keyboard-response,366,215553,0.0-1.0-68.0-0.0-5.0,0,0,6,,,,,,,,,,,,,,,,,,,,,,,,,,,,,,,,,,,,,,50.0,1.0,,,,,
367,,choice,,html-keyboard-response,367,215859,0.0-1.0-69.0-0.0-0.0,0,0,6,,303.0,,,51.0,67.0,73.0,2000.0,2000.0,0.0,2.0,0.0,20-60,,0.0,small table,baby carriage,20.0,60.0,small table3,baby carriage14,20.0,80.0,Atable122.jpg,peg_perego_uno_verde.jpg,/static/Category_learning/Stimuli/Experimental_stims/small table/Atable122.jpg,/static/Category_learning/Stimuli/Experimental_stims/baby carriage/peg_perego_uno_verde.jpg,0.0,baby carriage,small table,60.0,20.0,baby carriage14,small table3,80.0,20.0,0.0,50.303000000000004,0.303,,,,,
368,,confirmation,,html-keyboard-response,368,217064,0.0-1.0-69.0-0.0-1.0-0.0,0,0,6,,,,,,67.0,,,,,,,,,,,,,,,,,,,,,,,,,,,,,,,,51.5,1.197,,,,,
369,,isi,,html-keyboard-response,369,217168,0.0-1.0-69.0-0.0-2.0,0,0,6,,,,,,,,,,,,,,,,,,,,,,,,,,,,,,,,,,,,,,53.5,2.0,,,,,
370,,feedback,,html-keyboard-response,370,218175,0.0-1.0-69.0-0.0-3.0-0.0,0,0,6,,,,,,67.0,,,,,,,,,,,,,,,,,,,,,,,,,,,,,,,,54.5,1.0,,,,,
371,,iti,,html-keyboard-response,371,218279,0.0-1.0-69.0-0.0-5.0,0,0,6,,,,,,,,,,,,,,,,,,,,,,,,,,,,,,,,,,,,,,56.5,2.0,,,,,
372,,choice,,html-keyboard-response,372,218710,0.0-1.0-70.0-0.0-0.0,0,0,6,,427.0,,,50.0,68.0,74.0,2000.0,3500.0,0.0,2.0,0.0,40-60,,1.0,baby carriage,train,60.0,40.0,baby carriage13,train15,40.0,40.0,300px-Barnevogn2.jpg,master-TD006.jpg,/static/Category_learning/Stimuli/Experimental_stims/baby carriage/300px-Barnevogn2.jpg,/static/Category_learning/Stimuli/Experimental_stims/train/master-TD006.jpg,1.0,baby carriage,train,60.0,40.0,baby carriage13,train15,40.0,40.0,0.0,56.927,0.42700000000000005,,,,,
373,,confirmation,,html-keyboard-response,373,219787,0.0-1.0-70.0-0.0-1.0-0.0,0,0,6,,,,,,68.0,,,,,,,,,,,,,,,,,,,,,,,,,,,,,,,,58.0,1.073,,,,,
374,,isi,,html-keyboard-response,374,219895,0.0-1.0-70.0-0.0-2.0,0,0,6,,,,,,,,,,,,,,,,,,,,,,,,,,,,,,,,,,,,,,60.0,2.0,,,,,
375,,feedback,,html-keyboard-response,375,220903,0.0-1.0-70.0-0.0-3.0-0.0,0,0,6,,,,,,68.0,,,,,,,,,,,,,,,,,,,,,,,,,,,,,,,,61.0,1.0,,,,,
376,,iti,,html-keyboard-response,376,221010,0.0-1.0-70.0-0.0-5.0,0,0,6,,,,,,,,,,,,,,,,,,,,,,,,,,,,,,,,,,,,,,64.5,3.5,,,,,
377,,choice,,html-keyboard-response,377,221289,0.0-1.0-71.0-0.0-0.0,0,0,6,,275.0,,,50.0,69.0,75.0,1000.0,1000.0,0.0,2.0,0.0,40-80,,0.0,trumpet,hat,40.0,80.0,trumpet2,hat12,40.0,60.0,Matt-Stevens-Pocket-Trumpet.jpg,Aformalhat5.jpg,/static/Category_learning/Stimuli/Experimental_stims/trumpet/Matt-Stevens-Pocket-Trumpet.jpg,/static/Category_learning/Stimuli/Experimental_stims/hat/Aformalhat5.jpg,1.0,trumpet,hat,40.0,80.0,trumpet2,hat12,40.0,60.0,0.0,64.775,0.275,,,,,
378,,confirmation,,html-keyboard-response,378,222519,0.0-1.0-71.0-0.0-1.0-0.0,0,0,6,,,,,,69.0,,,,,,,,,,,,,,,,,,,,,,,,,,,,,,,,66.0,1.225,,,,,
379,,isi,,html-keyboard-response,379,222624,0.0-1.0-71.0-0.0-2.0,0,0,6,,,,,,,,,,,,,,,,,,,,,,,,,,,,,,,,,,,,,,67.0,1.0,,,,,
380,,feedback,,html-keyboard-response,380,223629,0.0-1.0-71.0-0.0-3.0-0.0,0,0,6,,,,,,69.0,,,,,,,,,,,,,,,,,,,,,,,,,,,,,,,,68.0,1.0,,,,,
381,,iti,,html-keyboard-response,381,223733,0.0-1.0-71.0-0.0-5.0,0,0,6,,,,,,,,,,,,,,,,,,,,,,,,,,,,,,,,,,,,,,69.0,1.0,,,,,
382,,choice,,html-keyboard-response,382,224331,0.0-1.0-72.0-0.0-0.0,0,0,6,,595.0,,,50.0,70.0,76.0,1000.0,1000.0,0.0,2.0,0.0,20-40,,1.0,trumpet,poker card,40.0,20.0,trumpet1,poker card2,60.0,40.0,JUPITER+TROMPETTE+606MRL.JPG,22864716.thl.jpg,/static/Category_learning/Stimuli/Experimental_stims/trumpet/JUPITER+TROMPETTE+606MRL.JPG,/static/Category_learning/Stimuli/Experimental_stims/poker card/22864716.thl.jpg,1.0,trumpet,poker card,40.0,20.0,trumpet1,poker card2,60.0,40.0,0.0,69.595,0.595,,,,,
383,,confirmation,,html-keyboard-response,383,225245,0.0-1.0-72.0-0.0-1.0-0.0,0,0,6,,,,,,70.0,,,,,,,,,,,,,,,,,,,,,,,,,,,,,,,,70.5,0.905,,,,,
384,,isi,,html-keyboard-response,384,225351,0.0-1.0-72.0-0.0-2.0,0,0,6,,,,,,,,,,,,,,,,,,,,,,,,,,,,,,,,,,,,,,71.5,1.0,,,,,
385,,feedback,,html-keyboard-response,385,226358,0.0-1.0-72.0-0.0-3.0-0.0,0,0,6,,,,,,70.0,,,,,,,,,,,,,,,,,,,,,,,,,,,,,,,,72.5,1.0,,,,,
386,,iti,,html-keyboard-response,386,226462,0.0-1.0-72.0-0.0-5.0,0,0,6,,,,,,,,,,,,,,,,,,,,,,,,,,,,,,,,,,,,,,73.5,1.0,,,,,
387,,choice,,html-keyboard-response,387,227969,0.0-1.0-73.0-0.0-0.0,0,0,6,,,,,,71.0,77.0,1500.0,1000.0,0.0,2.0,0.0,20-80,,1.0,microscope,necklace,80.0,20.0,microscope5,necklace4,100.0,20.0,emMicroscope.jpg,emerald_diamond_necklace.jpg,/static/Category_learning/Stimuli/Experimental_stims/microscope/emMicroscope.jpg,/static/Category_learning/Stimuli/Experimental_stims/necklace/emerald_diamond_necklace.jpg,,,,,,,,,,1.0,75.0,1.5,,,,,
388,,isi,,html-keyboard-response,388,228074,0.0-1.0-73.0-0.0-2.0,0,0,6,,,,,,,,,,,,,,,,,,,,,,,,,,,,,,,,,,,,,,76.5,1.5,,,,,
389,,no_response,,html-keyboard-response,389,229077,0.0-1.0-73.0-0.0-4.0-0.0,0,0,6,,,,,,,,,,,,,,,,,,,,,,,,,,,,,,,,,,,,,,77.5,1.0,,,,,
390,,iti,,html-keyboard-response,390,229199,0.0-1.0-73.0-0.0-5.0,0,0,6,,,,,,,,,,,,,,,,,,,,,,,,,,,,,,,,,,,,,,78.5,1.0,,,,,
391,,choice,,html-keyboard-response,391,229443,0.0-1.0-73.0-0.1-0.1,0,0,6,,242.0,,,51.0,71.0,77.0,1500.0,1000.0,0.0,2.0,0.0,20-80,,1.0,microscope,necklace,80.0,20.0,microscope5,necklace4,100.0,20.0,emMicroscope.jpg,emerald_diamond_necklace.jpg,/static/Category_learning/Stimuli/Experimental_stims/microscope/emMicroscope.jpg,/static/Category_learning/Stimuli/Experimental_stims/necklace/emerald_diamond_necklace.jpg,0.0,necklace,microscope,20.0,80.0,necklace4,microscope5,20.0,100.0,0.0,78.742,0.242,,,,,
392,,confirmation,,html-keyboard-response,392,230706,0.0-1.0-73.0-0.1-1.1-0.1,0,0,6,,,,,,71.0,,,,,,,,,,,,,,,,,,,,,,,,,,,,,,,,80.0,1.258,,,,,
393,,isi,,html-keyboard-response,393,230810,0.0-1.0-73.0-0.1-2.1,0,0,6,,,,,,,,,,,,,,,,,,,,,,,,,,,,,,,,,,,,,,81.5,1.5,,,,,
394,,feedback,,html-keyboard-response,394,231816,0.0-1.0-73.0-0.1-3.1-0.1,0,0,6,,,,,,71.0,,,,,,,,,,,,,,,,,,,,,,,,,,,,,,,,82.5,1.0,,,,,
395,,iti,,html-keyboard-response,395,231919,0.0-1.0-73.0-0.1-5.1,0,0,6,,,,,,,,,,,,,,,,,,,,,,,,,,,,,,,,,,,,,,83.5,1.0,,,,,
396,,choice,,html-keyboard-response,396,233133,0.0-1.0-74.0-0.0-0.0,0,0,6,,1210.0,,,50.0,72.0,78.0,1500.0,2000.0,0.0,2.0,1.0,40-40,1.0,,train,train,40.0,40.0,train1,train6,40.0,20.0,Model_Train.jpg,train9.jpg,/static/Category_learning/Stimuli/Experimental_stims/train/Model_Train.jpg,/static/Category_learning/Stimuli/Experimental_stims/train/train9.jpg,1.0,train,train,40.0,40.0,train1,train6,40.0,20.0,0.0,84.71,1.21,,,,,
397,,confirmation,,html-keyboard-response,397,233427,0.0-1.0-74.0-0.0-1.0-0.0,0,0,6,,,,,,72.0,,,,,,,,,,,,,,,,,,,,,,,,,,,,,,,,85.0,0.29,,,,,
398,,isi,,html-keyboard-response,398,233534,0.0-1.0-74.0-0.0-2.0,0,0,6,,,,,,,,,,,,,,,,,,,,,,,,,,,,,,,,,,,,,,86.5,1.5,,,,,
399,,feedback,,html-keyboard-response,399,234541,0.0-1.0-74.0-0.0-3.0-0.0,0,0,6,,,,,,72.0,,,,,,,,,,,,,,,,,,,,,,,,,,,,,,,,87.5,1.0,,,,,
400,,iti,,html-keyboard-response,400,234645,0.0-1.0-74.0-0.0-5.0,0,0,6,,,,,,,,,,,,,,,,,,,,,,,,,,,,,,,,,,,,,,89.5,2.0,,,,,
401,,choice,,html-keyboard-response,401,234730,0.0-1.0-75.0-0.0-0.0,0,0,6,,81.0,,,51.0,73.0,79.0,1500.0,3500.0,0.0,2.0,1.0,60-60,1.0,,baby carriage,baby carriage,60.0,60.0,baby carriage14,baby carriage13,80.0,40.0,peg_perego_uno_verde.jpg,300px-Barnevogn2.jpg,/static/Category_learning/Stimuli/Experimental_stims/baby carriage/peg_perego_uno_verde.jpg,/static/Category_learning/Stimuli/Experimental_stims/baby carriage/300px-Barnevogn2.jpg,0.0,baby carriage,baby carriage,60.0,60.0,baby carriage13,baby carriage14,40.0,80.0,0.0,89.581,0.081,,,,,
402,,confirmation,,html-keyboard-response,402,236157,0.0-1.0-75.0-0.0-1.0-0.0,0,0,6,,,,,,73.0,,,,,,,,,,,,,,,,,,,,,,,,,,,,,,,,91.0,1.419,,,,,
403,,isi,,html-keyboard-response,403,236259,0.0-1.0-75.0-0.0-2.0,0,0,6,,,,,,,,,,,,,,,,,,,,,,,,,,,,,,,,,,,,,,92.5,1.5,,,,,
404,,feedback,,html-keyboard-response,404,237265,0.0-1.0-75.0-0.0-3.0-0.0,0,0,6,,,,,,73.0,,,,,,,,,,,,,,,,,,,,,,,,,,,,,,,,93.5,1.0,,,,,
405,,iti,,html-keyboard-response,405,237369,0.0-1.0-75.0-0.0-5.0,0,0,6,,,,,,,,,,,,,,,,,,,,,,,,,,,,,,,,,,,,,,97.0,3.5,,,,,
406,,choice,,html-keyboard-response,406,237504,0.0-1.0-76.0-0.0-0.0,0,0,6,,131.0,,,51.0,74.0,80.0,1000.0,2000.0,0.0,2.0,0.0,20-80,,0.0,pen,key chain,20.0,80.0,pen6,key chain13,40.0,100.0,executive_pen2.jpg,Fancy_Liquid_Column_Shape_Key_Ring_with_Floater.jpg,/static/Category_learning/Stimuli/Experimental_stims/pen/executive_pen2.jpg,/static/Category_learning/Stimuli/Experimental_stims/key chain/Fancy_Liquid_Column_Shape_Key_Ring_with_Floater.jpg,0.0,key chain,pen,80.0,20.0,key chain13,pen6,100.0,40.0,0.0,97.131,0.131,,,,,
407,,confirmation,,html-keyboard-response,407,238877,0.0-1.0-76.0-0.0-1.0-0.0,0,0,6,,,,,,74.0,,,,,,,,,,,,,,,,,,,,,,,,,,,,,,,,98.5,1.369,,,,,
408,,isi,,html-keyboard-response,408,238983,0.0-1.0-76.0-0.0-2.0,0,0,6,,,,,,,,,,,,,,,,,,,,,,,,,,,,,,,,,,,,,,99.5,1.0,,,,,
409,,feedback,,html-keyboard-response,409,239989,0.0-1.0-76.0-0.0-3.0-0.0,0,0,6,,,,,,74.0,,,,,,,,,,,,,,,,,,,,,,,,,,,,,,,,100.5,1.0,,,,,
410,,iti,,html-keyboard-response,410,240093,0.0-1.0-76.0-0.0-5.0,0,0,6,,,,,,,,,,,,,,,,,,,,,,,,,,,,,,,,,,,,,,102.5,2.0,,,,,
411,,choice,,html-keyboard-response,411,240313,0.0-1.0-77.0-0.0-0.0,0,0,6,,216.0,,,50.0,75.0,81.0,3500.0,2000.0,0.0,2.0,0.0,60-60,,,bowl,bench,60.0,60.0,bowl7,bench2,80.0,60.0,Abowl54.jpg,26369969.thl.jpg,/static/Category_learning/Stimuli/Experimental_stims/bowl/Abowl54.jpg,/static/Category_learning/Stimuli/Experimental_stims/bench/26369969.thl.jpg,1.0,bowl,bench,60.0,60.0,bowl7,bench2,80.0,60.0,0.0,102.71600000000001,0.21600000000000003,,,,,
412,,confirmation,,html-keyboard-response,412,241601,0.0-1.0-77.0-0.0-1.0-0.0,0,0,6,,,,,,75.0,,,,,,,,,,,,,,,,,,,,,,,,,,,,,,,,104.0,1.284,,,,,
413,,isi,,html-keyboard-response,413,241709,0.0-1.0-77.0-0.0-2.0,0,0,6,,,,,,,,,,,,,,,,,,,,,,,,,,,,,,,,,,,,,,107.5,3.5,,,,,
414,,feedback,,html-keyboard-response,414,242713,0.0-1.0-77.0-0.0-3.0-0.0,0,0,6,,,,,,75.0,,,,,,,,,,,,,,,,,,,,,,,,,,,,,,,,108.5,1.0,,,,,
415,,iti,,html-keyboard-response,415,242816,0.0-1.0-77.0-0.0-5.0,0,0,6,,,,,,,,,,,,,,,,,,,,,,,,,,,,,,,,,,,,,,110.5,2.0,,,,,
416,,choice,,html-keyboard-response,416,243109,0.0-1.0-78.0-0.0-0.0,0,0,6,,289.0,,,51.0,76.0,82.0,1000.0,1500.0,0.0,2.0,0.0,60-80,,1.0,frame,bench,80.0,60.0,frame14,bench1,80.0,40.0,AFRAME129.jpg,26419975.thl.jpg,/static/Category_learning/Stimuli/Experimental_stims/frame/AFRAME129.jpg,/static/Category_learning/Stimuli/Experimental_stims/bench/26419975.thl.jpg,0.0,bench,frame,60.0,80.0,bench1,frame14,40.0,80.0,0.0,110.789,0.289,,,,,
417,,confirmation,,html-keyboard-response,417,244326,0.0-1.0-78.0-0.0-1.0-0.0,0,0,6,,,,,,76.0,,,,,,,,,,,,,,,,,,,,,,,,,,,,,,,,112.0,1.2109999999999999,,,,,
418,,isi,,html-keyboard-response,418,244434,0.0-1.0-78.0-0.0-2.0,0,0,6,,,,,,,,,,,,,,,,,,,,,,,,,,,,,,,,,,,,,,113.0,1.0,,,,,
419,,feedback,,html-keyboard-response,419,245438,0.0-1.0-78.0-0.0-3.0-0.0,0,0,6,,,,,,76.0,,,,,,,,,,,,,,,,,,,,,,,,,,,,,,,,114.0,1.0,,,,,
420,,iti,,html-keyboard-response,420,245541,0.0-1.0-78.0-0.0-5.0,0,0,6,,,,,,,,,,,,,,,,,,,,,,,,,,,,,,,,,,,,,,115.5,1.5,,,,,
421,,choice,,html-keyboard-response,421,245876,0.0-1.0-79.0-0.0-0.0,0,0,6,,331.0,,,50.0,77.0,83.0,1500.0,1000.0,0.0,2.0,0.0,20-80,,1.0,key chain,poker card,80.0,20.0,key chain6,poker card12,80.0,20.0,highboy_keychain_ItemCA75384.jpg,22865676.thl.jpg,/static/Category_learning/Stimuli/Experimental_stims/key chain/highboy_keychain_ItemCA75384.jpg,/static/Category_learning/Stimuli/Experimental_stims/poker card/22865676.thl.jpg,1.0,key chain,poker card,80.0,20.0,key chain6,poker card12,80.0,20.0,0.0,115.831,0.331,,,,,
422,,confirmation,,html-keyboard-response,422,247054,0.0-1.0-79.0-0.0-1.0-0.0,0,0,6,,,,,,77.0,,,,,,,,,,,,,,,,,,,,,,,,,,,,,,,,117.0,1.169,,,,,
423,,isi,,html-keyboard-response,423,247161,0.0-1.0-79.0-0.0-2.0,0,0,6,,,,,,,,,,,,,,,,,,,,,,,,,,,,,,,,,,,,,,118.5,1.5,,,,,
424,,feedback,,html-keyboard-response,424,248168,0.0-1.0-79.0-0.0-3.0-0.0,0,0,6,,,,,,77.0,,,,,,,,,,,,,,,,,,,,,,,,,,,,,,,,119.5,1.0,,,,,
425,,iti,,html-keyboard-response,425,248270,0.0-1.0-79.0-0.0-5.0,0,0,6,,,,,,,,,,,,,,,,,,,,,,,,,,,,,,,,,,,,,,120.5,1.0,,,,,
426,,choice,,html-keyboard-response,426,248854,0.0-1.0-80.0-0.0-0.0,0,0,6,,580.0,,,51.0,78.0,84.0,2000.0,1500.0,0.0,2.0,0.0,20-60,,0.0,poker card,bowl,20.0,60.0,poker card6,bowl1,40.0,40.0,22864212.thl.jpg,ABOWLS6.jpg,/static/Category_learning/Stimuli/Experimental_stims/poker card/22864212.thl.jpg,/static/Category_learning/Stimuli/Experimental_stims/bowl/ABOWLS6.jpg,0.0,bowl,poker card,60.0,20.0,bowl1,poker card6,40.0,40.0,0.0,121.08,0.58,,,,,
427,,confirmation,,html-keyboard-response,427,249780,0.0-1.0-80.0-0.0-1.0-0.0,0,0,6,,,,,,78.0,,,,,,,,,,,,,,,,,,,,,,,,,,,,,,,,122.0,0.92,,,,,
428,,isi,,html-keyboard-response,428,249886,0.0-1.0-80.0-0.0-2.0,0,0,6,,,,,,,,,,,,,,,,,,,,,,,,,,,,,,,,,,,,,,124.0,2.0,,,,,
429,,feedback,,html-keyboard-response,429,250891,0.0-1.0-80.0-0.0-3.0-0.0,0,0,6,,,,,,78.0,,,,,,,,,,,,,,,,,,,,,,,,,,,,,,,,125.0,1.0,,,,,
430,,iti,,html-keyboard-response,430,250994,0.0-1.0-80.0-0.0-5.0,0,0,6,,,,,,,,,,,,,,,,,,,,,,,,,,,,,,,,,,,,,,126.5,1.5,,,,,
431,,choice,,html-keyboard-response,431,251976,0.0-1.0-81.0-0.0-0.0,0,0,6,,978.0,,,51.0,79.0,85.0,1500.0,3500.0,0.0,2.0,1.0,60-60,1.0,,bowl,bowl,60.0,60.0,bowl7,bowl13,80.0,80.0,Abowl54.jpg,Asoupbowl8.jpg,/static/Category_learning/Stimuli/Experimental_stims/bowl/Abowl54.jpg,/static/Category_learning/Stimuli/Experimental_stims/bowl/Asoupbowl8.jpg,0.0,bowl,bowl,60.0,60.0,bowl13,bowl7,80.0,80.0,0.0,127.478,0.978,,,,,
432,,confirmation,,html-keyboard-response,432,252503,0.0-1.0-81.0-0.0-1.0-0.0,0,0,6,,,,,,79.0,,,,,,,,,,,,,,,,,,,,,,,,,,,,,,,,128.0,0.522,,,,,
433,,isi,,html-keyboard-response,433,252606,0.0-1.0-81.0-0.0-2.0,0,0,6,,,,,,,,,,,,,,,,,,,,,,,,,,,,,,,,,,,,,,129.5,1.5,,,,,
434,,feedback,,html-keyboard-response,434,253612,0.0-1.0-81.0-0.0-3.0-0.0,0,0,6,,,,,,79.0,,,,,,,,,,,,,,,,,,,,,,,,,,,,,,,,130.5,1.0,,,,,
435,,iti,,html-keyboard-response,435,253715,0.0-1.0-81.0-0.0-5.0,0,0,6,,,,,,,,,,,,,,,,,,,,,,,,,,,,,,,,,,,,,,134.0,3.5,,,,,
436,,choice,,html-keyboard-response,436,254310,0.0-1.0-82.0-0.0-0.0,0,0,6,,593.0,,,50.0,80.0,86.0,1000.0,1000.0,0.0,2.0,0.0,40-80,,1.0,frame,tape,80.0,40.0,frame1,tape11,80.0,20.0,AFRAME127.jpg,41FZA73H4JL._AA280_.jpg,/static/Category_learning/Stimuli/Experimental_stims/frame/AFRAME127.jpg,/static/Category_learning/Stimuli/Experimental_stims/tape/41FZA73H4JL._AA280_.jpg,1.0,frame,tape,80.0,40.0,frame1,tape11,80.0,20.0,0.0,134.593,0.593,,,,,
437,,confirmation,,html-keyboard-response,437,255226,0.0-1.0-82.0-0.0-1.0-0.0,0,0,6,,,,,,80.0,,,,,,,,,,,,,,,,,,,,,,,,,,,,,,,,135.5,0.907,,,,,
438,,isi,,html-keyboard-response,438,255331,0.0-1.0-82.0-0.0-2.0,0,0,6,,,,,,,,,,,,,,,,,,,,,,,,,,,,,,,,,,,,,,136.5,1.0,,,,,
439,,feedback,,html-keyboard-response,439,256336,0.0-1.0-82.0-0.0-3.0-0.0,0,0,6,,,,,,80.0,,,,,,,,,,,,,,,,,,,,,,,,,,,,,,,,137.5,1.0,,,,,
440,,iti,,html-keyboard-response,440,256442,0.0-1.0-82.0-0.0-5.0,0,0,6,,,,,,,,,,,,,,,,,,,,,,,,,,,,,,,,,,,,,,138.5,1.0,,,,,
441,,choice,,html-keyboard-response,441,257421,0.0-1.0-83.0-0.0-0.0,0,0,6,,975.0,,,50.0,81.0,87.0,1500.0,1000.0,0.0,2.0,0.0,20-60,,1.0,bowl,seashell,60.0,20.0,bowl12,seashell1,40.0,0.0,Abowl52.jpg,Aseashe34.jpg,/static/Category_learning/Stimuli/Experimental_stims/bowl/Abowl52.jpg,/static/Category_learning/Stimuli/Experimental_stims/seashell/Aseashe34.jpg,1.0,bowl,seashell,60.0,20.0,bowl12,seashell1,40.0,0.0,0.0,139.475,0.975,,,,,
442,,confirmation,,html-keyboard-response,442,257952,0.0-1.0-83.0-0.0-1.0-0.0,0,0,6,,,,,,81.0,,,,,,,,,,,,,,,,,,,,,,,,,,,,,,,,140.0,0.525,,,,,
443,,isi,,html-keyboard-response,443,258059,0.0-1.0-83.0-0.0-2.0,0,0,6,,,,,,,,,,,,,,,,,,,,,,,,,,,,,,,,,,,,,,141.5,1.5,,,,,
444,,feedback,,html-keyboard-response,444,259066,0.0-1.0-83.0-0.0-3.0-0.0,0,0,6,,,,,,81.0,,,,,,,,,,,,,,,,,,,,,,,,,,,,,,,,142.5,1.0,,,,,
445,,iti,,html-keyboard-response,445,259170,0.0-1.0-83.0-0.0-5.0,0,0,6,,,,,,,,,,,,,,,,,,,,,,,,,,,,,,,,,,,,,,143.5,1.0,,,,,
446,,choice,,html-keyboard-response,446,260237,0.0-1.0-84.0-0.0-0.0,0,0,6,,1064.0,,,50.0,82.0,88.0,1500.0,1000.0,0.0,2.0,0.0,40-60,,1.0,desk,watch,60.0,40.0,desk2,watch15,80.0,40.0,AA Luffield Radial crescent Desk 1600mm x 1200mm.jpg,20-171-6.jpg,/static/Category_learning/Stimuli/Experimental_stims/desk/AA Luffield Radial crescent Desk 1600mm x 1200mm.jpg,/static/Category_learning/Stimuli/Experimental_stims/watch/20-171-6.jpg,1.0,desk,watch,60.0,40.0,desk2,watch15,80.0,40.0,0.0,144.564,1.064,,,,,
447,,confirmation,,html-keyboard-response,447,260676,0.0-1.0-84.0-0.0-1.0-0.0,0,0,6,,,,,,82.0,,,,,,,,,,,,,,,,,,,,,,,,,,,,,,,,145.0,0.436,,,,,
448,,isi,,html-keyboard-response,448,260780,0.0-1.0-84.0-0.0-2.0,0,0,6,,,,,,,,,,,,,,,,,,,,,,,,,,,,,,,,,,,,,,146.5,1.5,,,,,
449,,feedback,,html-keyboard-response,449,261787,0.0-1.0-84.0-0.0-3.0-0.0,0,0,6,,,,,,82.0,,,,,,,,,,,,,,,,,,,,,,,,,,,,,,,,147.5,1.0,,,,,
450,,iti,,html-keyboard-response,450,261894,0.0-1.0-84.0-0.0-5.0,0,0,6,,,,,,,,,,,,,,,,,,,,,,,,,,,,,,,,,,,,,,148.5,1.0,,,,,
451,,choice,,html-keyboard-response,451,261952,0.0-1.0-85.0-0.0-0.0,0,0,6,,55.0,,,50.0,83.0,89.0,1000.0,3000.0,0.0,2.0,1.0,80-80,1.0,,key chain,key chain,80.0,80.0,key chain10,key chain13,80.0,100.0,Smurfs_Keychains_Smurf_Row_Boat.jpg,Fancy_Liquid_Column_Shape_Key_Ring_with_Floater.jpg,/static/Category_learning/Stimuli/Experimental_stims/key chain/Smurfs_Keychains_Smurf_Row_Boat.jpg,/static/Category_learning/Stimuli/Experimental_stims/key chain/Fancy_Liquid_Column_Shape_Key_Ring_with_Floater.jpg,1.0,key chain,key chain,80.0,80.0,key chain10,key chain13,80.0,100.0,0.0,148.555,0.055,,,,,
452,,confirmation,,html-keyboard-response,452,263401,0.0-1.0-85.0-0.0-1.0-0.0,0,0,6,,,,,,83.0,,,,,,,,,,,,,,,,,,,,,,,,,,,,,,,,150.0,1.445,,,,,
453,,isi,,html-keyboard-response,453,263506,0.0-1.0-85.0-0.0-2.0,0,0,6,,,,,,,,,,,,,,,,,,,,,,,,,,,,,,,,,,,,,,151.0,1.0,,,,,
454,,feedback,,html-keyboard-response,454,264513,0.0-1.0-85.0-0.0-3.0-0.0,0,0,6,,,,,,83.0,,,,,,,,,,,,,,,,,,,,,,,,,,,,,,,,152.0,1.0,,,,,
455,,iti,,html-keyboard-response,455,264618,0.0-1.0-85.0-0.0-5.0,0,0,6,,,,,,,,,,,,,,,,,,,,,,,,,,,,,,,,,,,,,,155.0,3.0,,,,,
456,,choice,,html-keyboard-response,456,265368,0.0-1.0-86.0-0.0-0.0,0,0,6,,747.0,,,50.0,84.0,90.0,1000.0,1000.0,0.0,2.0,0.0,40-60,,0.0,tape,dresser,40.0,60.0,tape1,dresser2,20.0,80.0,aktotape_01.jpg,ADRESSE46.jpg,/static/Category_learning/Stimuli/Experimental_stims/tape/aktotape_01.jpg,/static/Category_learning/Stimuli/Experimental_stims/dresser/ADRESSE46.jpg,1.0,tape,dresser,40.0,60.0,tape1,dresser2,20.0,80.0,0.0,155.747,0.747,,,,,
457,,confirmation,,html-keyboard-response,457,266125,0.0-1.0-86.0-0.0-1.0-0.0,0,0,6,,,,,,84.0,,,,,,,,,,,,,,,,,,,,,,,,,,,,,,,,156.5,0.753,,,,,
458,,isi,,html-keyboard-response,458,266233,0.0-1.0-86.0-0.0-2.0,0,0,6,,,,,,,,,,,,,,,,,,,,,,,,,,,,,,,,,,,,,,157.5,1.0,,,,,
459,,feedback,,html-keyboard-response,459,267240,0.0-1.0-86.0-0.0-3.0-0.0,0,0,6,,,,,,84.0,,,,,,,,,,,,,,,,,,,,,,,,,,,,,,,,158.5,1.0,,,,,
460,,iti,,html-keyboard-response,460,267343,0.0-1.0-86.0-0.0-5.0,0,0,6,,,,,,,,,,,,,,,,,,,,,,,,,,,,,,,,,,,,,,159.5,1.0,,,,,
461,,choice,,html-keyboard-response,461,267790,0.0-1.0-87.0-0.0-0.0,0,0,6,,443.0,,,50.0,85.0,91.0,2000.0,1000.0,0.0,2.0,0.0,80-80,,,lipstick,frame,80.0,80.0,lipstick3,frame6,80.0,60.0,31sCvjMS3jL._SS500_.jpg,AFRAME123.jpg,/static/Category_learning/Stimuli/Experimental_stims/lipstick/31sCvjMS3jL._SS500_.jpg,/static/Category_learning/Stimuli/Experimental_stims/frame/AFRAME123.jpg,1.0,lipstick,frame,80.0,80.0,lipstick3,frame6,80.0,60.0,0.0,159.94299999999998,0.44299999999999995,,,,,
462,,confirmation,,html-keyboard-response,462,268853,0.0-1.0-87.0-0.0-1.0-0.0,0,0,6,,,,,,85.0,,,,,,,,,,,,,,,,,,,,,,,,,,,,,,,,161.0,1.057,,,,,
463,,isi,,html-keyboard-response,463,268959,0.0-1.0-87.0-0.0-2.0,0,0,6,,,,,,,,,,,,,,,,,,,,,,,,,,,,,,,,,,,,,,163.0,2.0,,,,,
464,,feedback,,html-keyboard-response,464,269965,0.0-1.0-87.0-0.0-3.0-0.0,0,0,6,,,,,,85.0,,,,,,,,,,,,,,,,,,,,,,,,,,,,,,,,164.0,1.0,,,,,
465,,iti,,html-keyboard-response,465,270069,0.0-1.0-87.0-0.0-5.0,0,0,6,,,,,,,,,,,,,,,,,,,,,,,,,,,,,,,,,,,,,,165.0,1.0,,,,,
466,,choice,,html-keyboard-response,466,270529,0.0-1.0-88.0-0.0-0.0,0,0,6,,456.0,,,50.0,86.0,92.0,1500.0,1500.0,0.0,2.0,0.0,40-80,,0.0,yarn,hat,40.0,80.0,yarn9,hat9,60.0,100.0,Aballofyarn26.jpg,Astrawhat44.jpg,/static/Category_learning/Stimuli/Experimental_stims/yarn/Aballofyarn26.jpg,/static/Category_learning/Stimuli/Experimental_stims/hat/Astrawhat44.jpg,1.0,yarn,hat,40.0,80.0,yarn9,hat9,60.0,100.0,0.0,165.456,0.456,,,,,
467,,confirmation,,html-keyboard-response,467,271580,0.0-1.0-88.0-0.0-1.0-0.0,0,0,6,,,,,,86.0,,,,,,,,,,,,,,,,,,,,,,,,,,,,,,,,166.5,1.044,,,,,
468,,isi,,html-keyboard-response,468,271683,0.0-1.0-88.0-0.0-2.0,0,0,6,,,,,,,,,,,,,,,,,,,,,,,,,,,,,,,,,,,,,,168.0,1.5,,,,,
469,,feedback,,html-keyboard-response,469,272689,0.0-1.0-88.0-0.0-3.0-0.0,0,0,6,,,,,,86.0,,,,,,,,,,,,,,,,,,,,,,,,,,,,,,,,169.0,1.0,,,,,
470,,iti,,html-keyboard-response,470,272793,0.0-1.0-88.0-0.0-5.0,0,0,6,,,,,,,,,,,,,,,,,,,,,,,,,,,,,,,,,,,,,,170.5,1.5,,,,,
471,,choice,,html-keyboard-response,471,273489,0.0-1.0-89.0-0.0-0.0,0,0,6,,692.0,,,50.0,87.0,93.0,1000.0,1000.0,0.0,2.0,0.0,20-80,,0.0,power strip,motorcycle,20.0,80.0,power strip7,motorcycle13,20.0,80.0,412YZ25RFBL._AA262_.jpg,2005-Buell-FireboltXB12R.jpg,/static/Category_learning/Stimuli/Experimental_stims/power strip/412YZ25RFBL._AA262_.jpg,/static/Category_learning/Stimuli/Experimental_stims/motorcycle/2005-Buell-FireboltXB12R.jpg,1.0,power strip,motorcycle,20.0,80.0,power strip7,motorcycle13,20.0,80.0,0.0,171.192,0.6920000000000001,,,,,
472,,confirmation,,html-keyboard-response,472,274302,0.0-1.0-89.0-0.0-1.0-0.0,0,0,6,,,,,,87.0,,,,,,,,,,,,,,,,,,,,,,,,,,,,,,,,172.0,0.8079999999999999,,,,,
473,,isi,,html-keyboard-response,473,274409,0.0-1.0-89.0-0.0-2.0,0,0,6,,,,,,,,,,,,,,,,,,,,,,,,,,,,,,,,,,,,,,173.0,1.0,,,,,
474,,feedback,,html-keyboard-response,474,275413,0.0-1.0-89.0-0.0-3.0-0.0,0,0,6,,,,,,87.0,,,,,,,,,,,,,,,,,,,,,,,,,,,,,,,,174.0,1.0,,,,,
475,,iti,,html-keyboard-response,475,275520,0.0-1.0-89.0-0.0-5.0,0,0,6,,,,,,,,,,,,,,,,,,,,,,,,,,,,,,,,,,,,,,175.0,1.0,,,,,
476,,choice,,html-keyboard-response,476,275654,0.0-1.0-90.0-0.0-0.0,0,0,6,,130.0,,,51.0,88.0,94.0,1000.0,2000.0,0.0,2.0,0.0,40-80,,0.0,telescope,makeup compact,40.0,80.0,telescope9,makeup compact11,60.0,100.0,13TELESTAND.jpg,P190255_hero.jpg,/static/Category_learning/Stimuli/Experimental_stims/telescope/13TELESTAND.jpg,/static/Category_learning/Stimuli/Experimental_stims/makeup compact/P190255_hero.jpg,0.0,makeup compact,telescope,80.0,40.0,makeup compact11,telescope9,100.0,60.0,0.0,175.13,0.13,,,,,
477,,confirmation,,html-keyboard-response,477,277032,0.0-1.0-90.0-0.0-1.0-0.0,0,0,6,,,,,,88.0,,,,,,,,,,,,,,,,,,,,,,,,,,,,,,,,176.5,1.37,,,,,
478,,isi,,html-keyboard-response,478,277135,0.0-1.0-90.0-0.0-2.0,0,0,6,,,,,,,,,,,,,,,,,,,,,,,,,,,,,,,,,,,,,,177.5,1.0,,,,,
479,,feedback,,html-keyboard-response,479,278140,0.0-1.0-90.0-0.0-3.0-0.0,0,0,6,,,,,,88.0,,,,,,,,,,,,,,,,,,,,,,,,,,,,,,,,178.5,1.0,,,,,
480,,iti,,html-keyboard-response,480,278244,0.0-1.0-90.0-0.0-5.0,0,0,6,,,,,,,,,,,,,,,,,,,,,,,,,,,,,,,,,,,,,,180.5,2.0,,,,,
481,,choice,,html-keyboard-response,481,278286,0.0-1.0-91.0-0.0-0.0,0,0,6,,39.0,,,50.0,89.0,95.0,1000.0,1000.0,0.0,2.0,0.0,40-60,,1.0,door knob,tape,60.0,40.0,door knob5,tape7,60.0,60.0,Parth_Portofino_500.jpg,tape dispenser.jpg,/static/Category_learning/Stimuli/Experimental_stims/door knob/Parth_Portofino_500.jpg,/static/Category_learning/Stimuli/Experimental_stims/tape/tape dispenser.jpg,1.0,door knob,tape,60.0,40.0,door knob5,tape7,60.0,60.0,0.0,180.53900000000002,0.039,,,,,
482,,confirmation,,html-keyboard-response,482,279753,0.0-1.0-91.0-0.0-1.0-0.0,0,0,6,,,,,,89.0,,,,,,,,,,,,,,,,,,,,,,,,,,,,,,,,182.0,1.4609999999999999,,,,,
483,,isi,,html-keyboard-response,483,279861,0.0-1.0-91.0-0.0-2.0,0,0,6,,,,,,,,,,,,,,,,,,,,,,,,,,,,,,,,,,,,,,183.0,1.0,,,,,
484,,feedback,,html-keyboard-response,484,280864,0.0-1.0-91.0-0.0-3.0-0.0,0,0,6,,,,,,89.0,,,,,,,,,,,,,,,,,,,,,,,,,,,,,,,,184.0,1.0,,,,,
485,,iti,,html-keyboard-response,485,280968,0.0-1.0-91.0-0.0-5.0,0,0,6,,,,,,,,,,,,,,,,,,,,,,,,,,,,,,,,,,,,,,185.0,1.0,,,,,
486,,choice,,html-keyboard-response,486,281520,0.0-1.0-92.0-0.0-0.0,0,0,6,,548.0,,,50.0,90.0,96.0,1500.0,1000.0,0.0,2.0,1.0,80-80,1.0,,makeup compact,makeup compact,80.0,80.0,makeup compact11,makeup compact10,100.0,60.0,P190255_hero.jpg,P95108_hero.jpg,/static/Category_learning/Stimuli/Experimental_stims/makeup compact/P190255_hero.jpg,/static/Category_learning/Stimuli/Experimental_stims/makeup compact/P95108_hero.jpg,1.0,makeup compact,makeup compact,80.0,80.0,makeup compact11,makeup compact10,100.0,60.0,0.0,185.548,0.5479999999999999,,,,,
487,,confirmation,,html-keyboard-response,487,282478,0.0-1.0-92.0-0.0-1.0-0.0,0,0,6,,,,,,90.0,,,,,,,,,,,,,,,,,,,,,,,,,,,,,,,,186.5,0.9520000000000001,,,,,
488,,isi,,html-keyboard-response,488,282583,0.0-1.0-92.0-0.0-2.0,0,0,6,,,,,,,,,,,,,,,,,,,,,,,,,,,,,,,,,,,,,,188.0,1.5,,,,,
489,,feedback,,html-keyboard-response,489,283587,0.0-1.0-92.0-0.0-3.0-0.0,0,0,6,,,,,,90.0,,,,,,,,,,,,,,,,,,,,,,,,,,,,,,,,189.0,1.0,,,,,
490,,iti,,html-keyboard-response,490,283693,0.0-1.0-92.0-0.0-5.0,0,0,6,,,,,,,,,,,,,,,,,,,,,,,,,,,,,,,,,,,,,,190.0,1.0,,,,,
491,,choice,,html-keyboard-response,491,285200,0.0-1.0-93.0-0.0-0.0,0,0,6,,,,,,91.0,97.0,3000.0,1000.0,0.0,2.0,0.0,60-80,,1.0,microscope,desk,80.0,60.0,microscope11,desk1,60.0,40.0,konus5604microscope.jpg,ADESK11.jpg,/static/Category_learning/Stimuli/Experimental_stims/microscope/konus5604microscope.jpg,/static/Category_learning/Stimuli/Experimental_stims/desk/ADESK11.jpg,,,,,,,,,,1.0,191.5,1.5,,,,,
492,,isi,,html-keyboard-response,492,285307,0.0-1.0-93.0-0.0-2.0,0,0,6,,,,,,,,,,,,,,,,,,,,,,,,,,,,,,,,,,,,,,194.5,3.0,,,,,
493,,no_response,,html-keyboard-response,493,286314,0.0-1.0-93.0-0.0-4.0-0.0,0,0,6,,,,,,,,,,,,,,,,,,,,,,,,,,,,,,,,,,,,,,195.5,1.0,,,,,
494,,iti,,html-keyboard-response,494,286437,0.0-1.0-93.0-0.0-5.0,0,0,6,,,,,,,,,,,,,,,,,,,,,,,,,,,,,,,,,,,,,,196.5,1.0,,,,,
495,,choice,,html-keyboard-response,495,286502,0.0-1.0-93.0-0.1-0.1,0,0,6,,63.0,,,50.0,91.0,97.0,3000.0,1000.0,0.0,2.0,0.0,60-80,,1.0,microscope,desk,80.0,60.0,microscope11,desk1,60.0,40.0,konus5604microscope.jpg,ADESK11.jpg,/static/Category_learning/Stimuli/Experimental_stims/microscope/konus5604microscope.jpg,/static/Category_learning/Stimuli/Experimental_stims/desk/ADESK11.jpg,1.0,microscope,desk,80.0,60.0,microscope11,desk1,60.0,40.0,0.0,196.563,0.063,,,,,
496,,confirmation,,html-keyboard-response,496,287946,0.0-1.0-93.0-0.1-1.1-0.1,0,0,6,,,,,,91.0,,,,,,,,,,,,,,,,,,,,,,,,,,,,,,,,198.0,1.4369999999999998,,,,,
