,success,ttype,start_time,trial_type,trial_index,time_elapsed,internal_node_id,warning,missed_checkup,PID,view_history,rt,responses,repeat_instructions,key_press,index,trial_num,isi,iti,is_practice,block,old_trial,pair_type,within_category,high_cat_on_left,left_category,right_category,left_category_value,right_category_value,left_exemplar,right_exemplar,left_exemplar_value,right_exemplar_value,left_img,right_img,left_img_path,right_img_path,left_chosen,chosen_category,unchosen_category,chosen_category_value,unchosen_category_value,chosen_exemplar,unchosen_exemplar,chosen_exemplar_value,unchosen_exemplar_value,no_response,onset,duration
0,TRUE,full_screen,d05172022hr2033,fullscreen,0,1943,0.0-0.0,0,0,2,,,,,,,,,,,,,,,,,,,,,,,,,,,,,,,,,,,,,,,
1,,category_learning_instructions,,instructions,1,3941,0.0-1.0-0.0-0.0,0,0,2,"[{""page_index"":0,""viewing_time"":881},{""page_index"":1,""viewing_time"":206},{""page_index"":2,""viewing_time"":185},{""page_index"":3,""viewing_time"":179},{""page_index"":4,""viewing_time"":173},{""page_index"":5,""viewing_time"":182},{""page_index"":6,""viewing_time"":190}]",1996,,,,,,,,,,,,,,,,,,,,,,,,,,,,,,,,,,,,,
2,,category_learning_comprehension_check,,survey-multi-choice,2,8190,0.0-1.0-0.0-1.0,0,0,2,,4245,"{""Q0"":""True"",""Q1"":""True"",""Q2"":""Stay the same"",""Q3"":""pointer finger for left and middle finger for right""}",0,,,,,,,,,,,,,,,,,,,,,,,,,,,,,,,,,,,
3,,,,html-keyboard-response,3,13359,0.0-1.0-1.0,0,0,2,,5165,,,50,,,,,,,,,,,,,,,,,,,,,,,,,,,,,,,,,,
4,,choice,,html-keyboard-response,4,14034,0.0-1.0-2.0-0.0,0,0,2,,671,,,50,0,0,1500,1000,1,0,0,20-80,,0,bagel,dumbbell,20,80,bagel1,dumbbell1,0,80,bagels_pumpernickel_large.jpg,31B64EN68AL._AA280_.jpg,/static/Category_learning/Stimuli/Practice_stims/bagel/bagels_pumpernickel_large.jpg,/static/Category_learning/Stimuli/Practice_stims/dumbbell/31B64EN68AL._AA280_.jpg,1,bagel,dumbbell,20,80,bagel1,dumbbell1,0,80,0,0.671,0.671
5,,confirmation,,html-keyboard-response,5,14871,0.0-1.0-2.0-1.0-0.0,0,0,2,,,,,,0,,,,,,,,,,,,,,,,,,,,,,,,,,,,,,,,1.5,0.829
6,,isi,,html-keyboard-response,6,14974,0.0-1.0-2.0-2.0,0,0,2,,,,,,,,,,,,,,,,,,,,,,,,,,,,,,,,,,,,,,3,1.5
7,,feedback,,html-keyboard-response,7,15982,0.0-1.0-2.0-3.0-0.0,0,0,2,,,,,,0,,,,,,,,,,,,,,,,,,,,,,,,,,,,,,,,4,1
8,,iti,,html-keyboard-response,8,16091,0.0-1.0-2.0-5.0,0,0,2,,,,,,,,,,,,,,,,,,,,,,,,,,,,,,,,,,,,,,5,1
9,,choice,,html-keyboard-response,9,16351,0.0-1.0-3.0-0.0,0,0,2,,256,,,50,1,1,3000,1500,1,0,0,20-40,,1,calculator,bagel,40,20,calculator2,bagel2,20,20,22829064.thl.jpg,bagels_cinnraisin_large.jpg,/static/Category_learning/Stimuli/Practice_stims/calculator/22829064.thl.jpg,/static/Category_learning/Stimuli/Practice_stims/bagel/bagels_cinnraisin_large.jpg,1,calculator,bagel,40,20,calculator2,bagel2,20,20,0,5.256,0.256
10,,confirmation,,html-keyboard-response,10,17603,0.0-1.0-3.0-1.0-0.0,0,0,2,,,,,,1,,,,,,,,,,,,,,,,,,,,,,,,,,,,,,,,6.5,1.244
11,,isi,,html-keyboard-response,11,17707,0.0-1.0-3.0-2.0,0,0,2,,,,,,,,,,,,,,,,,,,,,,,,,,,,,,,,,,,,,,9.5,3
12,,feedback,,html-keyboard-response,12,18712,0.0-1.0-3.0-3.0-0.0,0,0,2,,,,,,1,,,,,,,,,,,,,,,,,,,,,,,,,,,,,,,,10.5,1
13,,iti,,html-keyboard-response,13,18819,0.0-1.0-3.0-5.0,0,0,2,,,,,,,,,,,,,,,,,,,,,,,,,,,,,,,,,,,,,,12,1.5
14,,choice,,html-keyboard-response,14,19159,0.0-1.0-4.0-0.0,0,0,2,,335,,,50,2,2,2000,3000,1,0,0,60-80,,0,clock,dumbbell,60,80,clock2,dumbbell2,60,100,26373355.thl.jpg,31K8MR6TMBL._SS500_.jpg,/static/Category_learning/Stimuli/Practice_stims/clock/26373355.thl.jpg,/static/Category_learning/Stimuli/Practice_stims/dumbbell/31K8MR6TMBL._SS500_.jpg,1,clock,dumbbell,60,80,clock2,dumbbell2,60,100,0,12.335,0.335
15,,confirmation,,html-keyboard-response,15,20330,0.0-1.0-4.0-1.0-0.0,0,0,2,,,,,,2,,,,,,,,,,,,,,,,,,,,,,,,,,,,,,,,13.5,1.165
16,,isi,,html-keyboard-response,16,20436,0.0-1.0-4.0-2.0,0,0,2,,,,,,,,,,,,,,,,,,,,,,,,,,,,,,,,,,,,,,15.5,2
17,,feedback,,html-keyboard-response,17,21444,0.0-1.0-4.0-3.0-0.0,0,0,2,,,,,,2,,,,,,,,,,,,,,,,,,,,,,,,,,,,,,,,16.5,1
18,,iti,,html-keyboard-response,18,21548,0.0-1.0-4.0-5.0,0,0,2,,,,,,,,,,,,,,,,,,,,,,,,,,,,,,,,,,,,,,19.5,3
19,,choice,,html-keyboard-response,19,23056,0.0-1.0-5.0-0.0,0,0,2,,,,,,3,3,1000,2000,1,0,0,40-80,,0,calculator,clock,40,60,calculator1,clock1,40,40,22829184.thl.jpg,Aalarmclock2.jpg,/static/Category_learning/Stimuli/Practice_stims/calculator/22829184.thl.jpg,/static/Category_learning/Stimuli/Practice_stims/clock/Aalarmclock2.jpg,,,,,,,,,,1,21,1.5
20,,isi,,html-keyboard-response,20,23164,0.0-1.0-5.0-2.0,0,0,2,,,,,,,,,,,,,,,,,,,,,,,,,,,,,,,,,,,,,,22,1
21,,no_response,,html-keyboard-response,21,24169,0.0-1.0-5.0-4.0-0.0,0,0,2,,,,,,,,,,,,,,,,,,,,,,,,,,,,,,,,,,,,,,23,1
22,,iti,,html-keyboard-response,22,24273,0.0-1.0-5.0-5.0,0,0,2,,,,,,,,,,,,,,,,,,,,,,,,,,,,,,,,,,,,,,25,2
23,,choice,,html-keyboard-response,23,25779,0.0-1.0-5.1-0.1,0,0,2,,,,,,3,3,1000,2000,1,0,0,40-80,,0,calculator,clock,40,60,calculator1,clock1,40,40,22829184.thl.jpg,Aalarmclock2.jpg,/static/Category_learning/Stimuli/Practice_stims/calculator/22829184.thl.jpg,/static/Category_learning/Stimuli/Practice_stims/clock/Aalarmclock2.jpg,,,,,,,,,,1,26.5,1.5
24,,isi,,html-keyboard-response,24,25885,0.0-1.0-5.1-2.1,0,0,2,,,,,,,,,,,,,,,,,,,,,,,,,,,,,,,,,,,,,,27.5,1
25,,no_response,,html-keyboard-response,25,26890,0.0-1.0-5.1-4.1-0.1,0,0,2,,,,,,,,,,,,,,,,,,,,,,,,,,,,,,,,,,,,,,28.5,1
26,,iti,,html-keyboard-response,26,26995,0.0-1.0-5.1-5.1,0,0,2,,,,,,,,,,,,,,,,,,,,,,,,,,,,,,,,,,,,,,30.5,2
27,,choice,,html-keyboard-response,27,27539,0.0-1.0-5.2-0.2,0,0,2,,540,,,50,3,3,1000,2000,1,0,0,40-80,,0,calculator,clock,40,60,calculator1,clock1,40,40,22829184.thl.jpg,Aalarmclock2.jpg,/static/Category_learning/Stimuli/Practice_stims/calculator/22829184.thl.jpg,/static/Category_learning/Stimuli/Practice_stims/clock/Aalarmclock2.jpg,1,calculator,clock,40,60,calculator1,clock1,40,40,0,31.04,0.54
28,,confirmation,,html-keyboard-response,28,28503,0.0-1.0-5.2-1.2-0.2,0,0,2,,,,,,3,,,,,,,,,,,,,,,,,,,,,,,,,,,,,,,,32,0.96
29,,isi,,html-keyboard-response,29,28607,0.0-1.0-5.2-2.2,0,0,2,,,,,,,,,,,,,,,,,,,,,,,,,,,,,,,,,,,,,,33,1
30,,feedback,,html-keyboard-response,30,29615,0.0-1.0-5.2-3.2-0.2,0,0,2,,,,,,3,,,,,,,,,,,,,,,,,,,,,,,,,,,,,,,,34,1
31,,iti,,html-keyboard-response,31,29720,0.0-1.0-5.2-5.2,0,0,2,,,,,,,,,,,,,,,,,,,,,,,,,,,,,,,,,,,,,,36,2
32,,choice,,html-keyboard-response,32,30110,0.0-1.0-6.0-0.0,0,0,2,,386,,,50,4,4,2500,2500,1,0,0,20-60,,1,dumbbell,bagel,80,20,dumbbell3,bagel3,100,40,41K7QVRX50L._SS500_.jpg,photo-169.jpg,/static/Category_learning/Stimuli/Practice_stims/dumbbell/41K7QVRX50L._SS500_.jpg,/static/Category_learning/Stimuli/Practice_stims/bagel/photo-169.jpg,1,dumbbell,bagel,80,20,dumbbell3,bagel3,100,40,0,36.386,0.386
33,,confirmation,,html-keyboard-response,33,31232,0.0-1.0-6.0-1.0-0.0,0,0,2,,,,,,4,,,,,,,,,,,,,,,,,,,,,,,,,,,,,,,,37.5,1.114
34,,isi,,html-keyboard-response,34,31336,0.0-1.0-6.0-2.0,0,0,2,,,,,,,,,,,,,,,,,,,,,,,,,,,,,,,,,,,,,,40,2.5
35,,feedback,,html-keyboard-response,35,32342,0.0-1.0-6.0-3.0-0.0,0,0,2,,,,,,4,,,,,,,,,,,,,,,,,,,,,,,,,,,,,,,,41,1
36,,iti,,html-keyboard-response,36,32449,0.0-1.0-6.0-5.0,0,0,2,,,,,,,,,,,,,,,,,,,,,,,,,,,,,,,,,,,,,,43.5,2.5
37,,practice_over,,html-keyboard-response,37,34435,0.0-1.0-6.0-6.0-0.0,0,0,2,,1982,,,50,4,,,,,,,,,,,,,,,,,,,,,,,,,,,,,,,,,
38,,start_run,,html-keyboard-response,38,35622,0.0-1.0-6.0-6.0-1.0,0,0,2,,1185,,,84,,,,,,,,,,,,,,,,,,,,,,,,,,,,,,,,,,
39,,choice,,html-keyboard-response,39,36281,0.0-1.0-7.0-0.0,0,0,2,,655,,,50,5,5,2000,2000,0,1,0,40-80,,1,desk,patio lounge chair,80,40,desk1,patio lounge chair15,100,40,ADESK11.jpg,phpThumb.jpg,/static/Category_learning/Stimuli/Experimental_stims/desk/ADESK11.jpg,/static/Category_learning/Stimuli/Experimental_stims/patio lounge chair/phpThumb.jpg,1,desk,patio lounge chair,80,40,desk1,patio lounge chair15,100,40,0,0.655,0.655
40,,confirmation,,html-keyboard-response,40,37135,0.0-1.0-7.0-1.0-0.0,0,0,2,,,,,,5,,,,,,,,,,,,,,,,,,,,,,,,,,,,,,,,1.5,0.845
41,,isi,,html-keyboard-response,41,37238,0.0-1.0-7.0-2.0,0,0,2,,,,,,,,,,,,,,,,,,,,,,,,,,,,,,,,,,,,,,3.5,2
42,,feedback,,html-keyboard-response,42,38244,0.0-1.0-7.0-3.0-0.0,0,0,2,,,,,,5,,,,,,,,,,,,,,,,,,,,,,,,,,,,,,,,4.5,1
43,,iti,,html-keyboard-response,43,38352,0.0-1.0-7.0-5.0,0,0,2,,,,,,,,,,,,,,,,,,,,,,,,,,,,,,,,,,,,,,6.5,2
44,,choice,,html-keyboard-response,44,39861,0.0-1.0-8.0-0.0,0,0,2,,,,,,6,6,3000,1500,0,1,0,40-60,,0,poker card,tent,40,60,poker card12,tent9,20,60,22865676.thl.jpg,Red Canyon Tent.jpg,/static/Category_learning/Stimuli/Experimental_stims/poker card/22865676.thl.jpg,/static/Category_learning/Stimuli/Experimental_stims/tent/Red Canyon Tent.jpg,,,,,,,,,,1,8,1.5
45,,isi,,html-keyboard-response,45,39969,0.0-1.0-8.0-2.0,0,0,2,,,,,,,,,,,,,,,,,,,,,,,,,,,,,,,,,,,,,,11,3
46,,no_response,,html-keyboard-response,46,40973,0.0-1.0-8.0-4.0-0.0,0,0,2,,,,,,,,,,,,,,,,,,,,,,,,,,,,,,,,,,,,,,12,1
47,,iti,,html-keyboard-response,47,41095,0.0-1.0-8.0-5.0,0,0,2,,,,,,,,,,,,,,,,,,,,,,,,,,,,,,,,,,,,,,13.5,1.5
48,,choice,,html-keyboard-response,48,42601,0.0-1.0-8.1-0.1,0,0,2,,,,,,6,6,3000,1500,0,1,0,40-60,,0,poker card,tent,40,60,poker card12,tent9,20,60,22865676.thl.jpg,Red Canyon Tent.jpg,/static/Category_learning/Stimuli/Experimental_stims/poker card/22865676.thl.jpg,/static/Category_learning/Stimuli/Experimental_stims/tent/Red Canyon Tent.jpg,,,,,,,,,,1,15,1.5
49,,isi,,html-keyboard-response,49,42707,0.0-1.0-8.1-2.1,0,0,2,,,,,,,,,,,,,,,,,,,,,,,,,,,,,,,,,,,,,,18,3
50,,no_response,,html-keyboard-response,50,43711,0.0-1.0-8.1-4.1-0.1,0,0,2,,,,,,,,,,,,,,,,,,,,,,,,,,,,,,,,,,,,,,19,1
51,,iti,,html-keyboard-response,51,43837,0.0-1.0-8.1-5.1,0,0,2,,,,,,,,,,,,,,,,,,,,,,,,,,,,,,,,,,,,,,20.5,1.5
52,,choice,,html-keyboard-response,52,45346,0.0-1.0-8.2-0.2,0,0,2,,,,,,6,6,3000,1500,0,1,0,40-60,,0,poker card,tent,40,60,poker card12,tent9,20,60,22865676.thl.jpg,Red Canyon Tent.jpg,/static/Category_learning/Stimuli/Experimental_stims/poker card/22865676.thl.jpg,/static/Category_learning/Stimuli/Experimental_stims/tent/Red Canyon Tent.jpg,,,,,,,,,,1,22,1.5
53,,isi,,html-keyboard-response,53,45453,0.0-1.0-8.2-2.2,0,0,2,,,,,,,,,,,,,,,,,,,,,,,,,,,,,,,,,,,,,,25,3
54,,no_response,,html-keyboard-response,54,46457,0.0-1.0-8.2-4.2-0.2,0,0,2,,,,,,,,,,,,,,,,,,,,,,,,,,,,,,,,,,,,,,26,1
55,,iti,,html-keyboard-response,55,46577,0.0-1.0-8.2-5.2,0,0,2,,,,,,,,,,,,,,,,,,,,,,,,,,,,,,,,,,,,,,27.5,1.5
56,,choice,,html-keyboard-response,56,48085,0.0-1.0-8.3-0.3,0,0,2,,,,,,6,6,3000,1500,0,1,0,40-60,,0,poker card,tent,40,60,poker card12,tent9,20,60,22865676.thl.jpg,Red Canyon Tent.jpg,/static/Category_learning/Stimuli/Experimental_stims/poker card/22865676.thl.jpg,/static/Category_learning/Stimuli/Experimental_stims/tent/Red Canyon Tent.jpg,,,,,,,,,,1,29,1.5
57,,isi,,html-keyboard-response,57,48191,0.0-1.0-8.3-2.3,0,0,2,,,,,,,,,,,,,,,,,,,,,,,,,,,,,,,,,,,,,,32,3
58,,no_response,,html-keyboard-response,58,49200,0.0-1.0-8.3-4.3-0.3,0,0,2,,,,,,,,,,,,,,,,,,,,,,,,,,,,,,,,,,,,,,33,1
59,,iti,,html-keyboard-response,59,49316,0.0-1.0-8.3-5.3,0,0,2,,,,,,,,,,,,,,,,,,,,,,,,,,,,,,,,,,,,,,34.5,1.5
60,,choice,,html-keyboard-response,60,49640,0.0-1.0-8.4-0.4,0,0,2,,320,,,50,6,6,3000,1500,0,1,0,40-60,,0,poker card,tent,40,60,poker card12,tent9,20,60,22865676.thl.jpg,Red Canyon Tent.jpg,/static/Category_learning/Stimuli/Experimental_stims/poker card/22865676.thl.jpg,/static/Category_learning/Stimuli/Experimental_stims/tent/Red Canyon Tent.jpg,1,poker card,tent,40,60,poker card12,tent9,20,60,0,34.82,0.32
61,,confirmation,,html-keyboard-response,61,50824,0.0-1.0-8.4-1.4-0.4,0,0,2,,,,,,6,,,,,,,,,,,,,,,,,,,,,,,,,,,,,,,,36,1.18
62,,isi,,html-keyboard-response,62,50930,0.0-1.0-8.4-2.4,0,0,2,,,,,,,,,,,,,,,,,,,,,,,,,,,,,,,,,,,,,,39,3
63,,feedback,,html-keyboard-response,63,51936,0.0-1.0-8.4-3.4-0.4,0,0,2,,,,,,6,,,,,,,,,,,,,,,,,,,,,,,,,,,,,,,,40,1
64,,iti,,html-keyboard-response,64,52041,0.0-1.0-8.4-5.4,0,0,2,,,,,,,,,,,,,,,,,,,,,,,,,,,,,,,,,,,,,,41.5,1.5
65,,choice,,html-keyboard-response,65,52118,0.0-1.0-9.0-0.0,0,0,2,,73,,,50,7,7,2000,1000,0,1,0,40-60,,0,pen,tent,40,60,pen6,tent6,20,80,executive_pen2.jpg,lighthouse_tent_edited_1-1.jpg,/static/Category_learning/Stimuli/Experimental_stims/pen/executive_pen2.jpg,/static/Category_learning/Stimuli/Experimental_stims/tent/lighthouse_tent_edited_1-1.jpg,1,pen,tent,40,60,pen6,tent6,20,80,0,41.573,0.073
66,,confirmation,,html-keyboard-response,66,53551,0.0-1.0-9.0-1.0-0.0,0,0,2,,,,,,7,,,,,,,,,,,,,,,,,,,,,,,,,,,,,,,,43,1.427
67,,isi,,html-keyboard-response,67,53654,0.0-1.0-9.0-2.0,0,0,2,,,,,,,,,,,,,,,,,,,,,,,,,,,,,,,,,,,,,,45,2
68,,feedback,,html-keyboard-response,68,54659,0.0-1.0-9.0-3.0-0.0,0,0,2,,,,,,7,,,,,,,,,,,,,,,,,,,,,,,,,,,,,,,,46,1
69,,iti,,html-keyboard-response,69,54768,0.0-1.0-9.0-5.0,0,0,2,,,,,,,,,,,,,,,,,,,,,,,,,,,,,,,,,,,,,,47,1
70,,choice,,html-keyboard-response,70,55027,0.0-1.0-10.0-0.0,0,0,2,,254,,,50,8,8,1000,1000,0,1,0,20-60,,1,tent,lipstick,60,20,tent14,lipstick5,60,0,inflatable-tent.jpg,P35719_hero.jpg,/static/Category_learning/Stimuli/Experimental_stims/tent/inflatable-tent.jpg,/static/Category_learning/Stimuli/Experimental_stims/lipstick/P35719_hero.jpg,1,tent,lipstick,60,20,tent14,lipstick5,60,0,0,47.254,0.254
71,,confirmation,,html-keyboard-response,71,56278,0.0-1.0-10.0-1.0-0.0,0,0,2,,,,,,8,,,,,,,,,,,,,,,,,,,,,,,,,,,,,,,,48.5,1.246
72,,isi,,html-keyboard-response,72,56383,0.0-1.0-10.0-2.0,0,0,2,,,,,,,,,,,,,,,,,,,,,,,,,,,,,,,,,,,,,,49.5,1
73,,feedback,,html-keyboard-response,73,57392,0.0-1.0-10.0-3.0-0.0,0,0,2,,,,,,8,,,,,,,,,,,,,,,,,,,,,,,,,,,,,,,,50.5,1
74,,iti,,html-keyboard-response,74,57501,0.0-1.0-10.0-5.0,0,0,2,,,,,,,,,,,,,,,,,,,,,,,,,,,,,,,,,,,,,,51.5,1
75,,choice,,html-keyboard-response,75,57607,0.0-1.0-11.0-0.0,0,0,2,,102,,,50,9,9,1000,1000,0,1,0,20-60,,1,watch,frame,60,20,watch8,frame6,60,40,2239.jpg,AFRAME123.jpg,/static/Category_learning/Stimuli/Experimental_stims/watch/2239.jpg,/static/Category_learning/Stimuli/Experimental_stims/frame/AFRAME123.jpg,1,watch,frame,60,20,watch8,frame6,60,40,0,51.602,0.102
76,,confirmation,,html-keyboard-response,76,59012,0.0-1.0-11.0-1.0-0.0,0,0,2,,,,,,9,,,,,,,,,,,,,,,,,,,,,,,,,,,,,,,,53,1.398
77,,isi,,html-keyboard-response,77,59118,0.0-1.0-11.0-2.0,0,0,2,,,,,,,,,,,,,,,,,,,,,,,,,,,,,,,,,,,,,,54,1
78,,feedback,,html-keyboard-response,78,60125,0.0-1.0-11.0-3.0-0.0,0,0,2,,,,,,9,,,,,,,,,,,,,,,,,,,,,,,,,,,,,,,,55,1
79,,iti,,html-keyboard-response,79,60233,0.0-1.0-11.0-5.0,0,0,2,,,,,,,,,,,,,,,,,,,,,,,,,,,,,,,,,,,,,,56,1
80,,choice,,html-keyboard-response,80,60557,0.0-1.0-12.0-0.0,0,0,2,,320,,,50,10,10,3000,2000,0,1,1,40-60,0,,tent,pen,60,40,tent14,pen6,60,20,inflatable-tent.jpg,executive_pen2.jpg,/static/Category_learning/Stimuli/Experimental_stims/tent/inflatable-tent.jpg,/static/Category_learning/Stimuli/Experimental_stims/pen/executive_pen2.jpg,1,tent,pen,60,40,tent14,pen6,60,20,0,56.32,0.32
81,,confirmation,,html-keyboard-response,81,61741,0.0-1.0-12.0-1.0-0.0,0,0,2,,,,,,10,,,,,,,,,,,,,,,,,,,,,,,,,,,,,,,,57.5,1.18
82,,isi,,html-keyboard-response,82,61849,0.0-1.0-12.0-2.0,0,0,2,,,,,,,,,,,,,,,,,,,,,,,,,,,,,,,,,,,,,,60.5,3
83,,feedback,,html-keyboard-response,83,62856,0.0-1.0-12.0-3.0-0.0,0,0,2,,,,,,10,,,,,,,,,,,,,,,,,,,,,,,,,,,,,,,,61.5,1
84,,iti,,html-keyboard-response,84,62964,0.0-1.0-12.0-5.0,0,0,2,,,,,,,,,,,,,,,,,,,,,,,,,,,,,,,,,,,,,,63.5,2
85,,choice,,html-keyboard-response,85,63153,0.0-1.0-13.0-0.0,0,0,2,,186,,,50,11,11,1000,2000,0,1,0,40-60,,1,tape,nail polish,60,40,tape12,nail polish5,60,40,Frog-Tape-Dispenser_F02218A2.jpg,182_t.jpg,/static/Category_learning/Stimuli/Experimental_stims/tape/Frog-Tape-Dispenser_F02218A2.jpg,/static/Category_learning/Stimuli/Experimental_stims/nail polish/182_t.jpg,1,tape,nail polish,60,40,tape12,nail polish5,60,40,0,63.686,0.186
86,,confirmation,,html-keyboard-response,86,64474,0.0-1.0-13.0-1.0-0.0,0,0,2,,,,,,11,,,,,,,,,,,,,,,,,,,,,,,,,,,,,,,,65,1.314
87,,isi,,html-keyboard-response,87,64581,0.0-1.0-13.0-2.0,0,0,2,,,,,,,,,,,,,,,,,,,,,,,,,,,,,,,,,,,,,,66,1
88,,feedback,,html-keyboard-response,88,65587,0.0-1.0-13.0-3.0-0.0,0,0,2,,,,,,11,,,,,,,,,,,,,,,,,,,,,,,,,,,,,,,,67,1
89,,iti,,html-keyboard-response,89,65694,0.0-1.0-13.0-5.0,0,0,2,,,,,,,,,,,,,,,,,,,,,,,,,,,,,,,,,,,,,,69,2
90,,choice,,html-keyboard-response,90,65840,0.0-1.0-14.0-0.0,0,0,2,,142,,,50,12,12,3500,1500,0,1,0,20-60,,1,tape,makeup compact,60,20,tape7,makeup compact6,60,40,tape dispenser.jpg,P0754_hero.jpg,/static/Category_learning/Stimuli/Experimental_stims/tape/tape dispenser.jpg,/static/Category_learning/Stimuli/Experimental_stims/makeup compact/P0754_hero.jpg,1,tape,makeup compact,60,20,tape7,makeup compact6,60,40,0,69.142,0.142
91,,confirmation,,html-keyboard-response,91,67202,0.0-1.0-14.0-1.0-0.0,0,0,2,,,,,,12,,,,,,,,,,,,,,,,,,,,,,,,,,,,,,,,70.5,1.358
92,,isi,,html-keyboard-response,92,67308,0.0-1.0-14.0-2.0,0,0,2,,,,,,,,,,,,,,,,,,,,,,,,,,,,,,,,,,,,,,74,3.5
93,,feedback,,html-keyboard-response,93,68316,0.0-1.0-14.0-3.0-0.0,0,0,2,,,,,,12,,,,,,,,,,,,,,,,,,,,,,,,,,,,,,,,75,1
94,,iti,,html-keyboard-response,94,68423,0.0-1.0-14.0-5.0,0,0,2,,,,,,,,,,,,,,,,,,,,,,,,,,,,,,,,,,,,,,76.5,1.5
95,,choice,,html-keyboard-response,95,68710,0.0-1.0-15.0-0.0,0,0,2,,283,,,50,13,13,2000,1500,0,1,0,20-80,,1,bowl,microscope,80,20,bowl3,microscope15,60,40,ABOWL8.jpg,Amicroscope23.jpg,/static/Category_learning/Stimuli/Experimental_stims/bowl/ABOWL8.jpg,/static/Category_learning/Stimuli/Experimental_stims/microscope/Amicroscope23.jpg,1,bowl,microscope,80,20,bowl3,microscope15,60,40,0,76.783,0.283
96,,confirmation,,html-keyboard-response,96,69935,0.0-1.0-15.0-1.0-0.0,0,0,2,,,,,,13,,,,,,,,,,,,,,,,,,,,,,,,,,,,,,,,78,1.217
97,,isi,,html-keyboard-response,97,70040,0.0-1.0-15.0-2.0,0,0,2,,,,,,,,,,,,,,,,,,,,,,,,,,,,,,,,,,,,,,80,2
98,,feedback,,html-keyboard-response,98,71046,0.0-1.0-15.0-3.0-0.0,0,0,2,,,,,,13,,,,,,,,,,,,,,,,,,,,,,,,,,,,,,,,81,1
99,,iti,,html-keyboard-response,99,71151,0.0-1.0-15.0-5.0,0,0,2,,,,,,,,,,,,,,,,,,,,,,,,,,,,,,,,,,,,,,82.5,1.5
100,,choice,,html-keyboard-response,100,71176,0.0-1.0-16.0-0.0,0,0,2,,22,,,50,14,14,1000,2000,0,1,0,40-80,,1,door knob,necklace,80,40,door knob10,necklace14,80,20,c02a578d-c6cc-44ca-8dd2-de8901e30bd7_4.jpg,necklascenew05.jpg,/static/Category_learning/Stimuli/Experimental_stims/door knob/c02a578d-c6cc-44ca-8dd2-de8901e30bd7_4.jpg,/static/Category_learning/Stimuli/Experimental_stims/necklace/necklascenew05.jpg,1,door knob,necklace,80,40,door knob10,necklace14,80,20,0,82.522,0.022
101,,confirmation,,html-keyboard-response,101,72661,0.0-1.0-16.0-1.0-0.0,0,0,2,,,,,,14,,,,,,,,,,,,,,,,,,,,,,,,,,,,,,,,84,1.478
102,,isi,,html-keyboard-response,102,72766,0.0-1.0-16.0-2.0,0,0,2,,,,,,,,,,,,,,,,,,,,,,,,,,,,,,,,,,,,,,85,1
103,,feedback,,html-keyboard-response,103,73771,0.0-1.0-16.0-3.0-0.0,0,0,2,,,,,,14,,,,,,,,,,,,,,,,,,,,,,,,,,,,,,,,86,1
104,,iti,,html-keyboard-response,104,73878,0.0-1.0-16.0-5.0,0,0,2,,,,,,,,,,,,,,,,,,,,,,,,,,,,,,,,,,,,,,88,2
105,,choice,,html-keyboard-response,105,74281,0.0-1.0-17.0-0.0,0,0,2,,400,,,50,15,15,1000,1500,0,1,0,20-40,,0,motorcycle,sofa,20,40,motorcycle10,sofa5,20,60,motorcycle17.jpg,ALOVSEA14.jpg,/static/Category_learning/Stimuli/Experimental_stims/motorcycle/motorcycle17.jpg,/static/Category_learning/Stimuli/Experimental_stims/sofa/ALOVSEA14.jpg,1,motorcycle,sofa,20,40,motorcycle10,sofa5,20,60,0,88.4,0.4
106,,confirmation,,html-keyboard-response,106,75388,0.0-1.0-17.0-1.0-0.0,0,0,2,,,,,,15,,,,,,,,,,,,,,,,,,,,,,,,,,,,,,,,89.5,1.1
107,,isi,,html-keyboard-response,107,75491,0.0-1.0-17.0-2.0,0,0,2,,,,,,,,,,,,,,,,,,,,,,,,,,,,,,,,,,,,,,90.5,1
108,,feedback,,html-keyboard-response,108,76496,0.0-1.0-17.0-3.0-0.0,0,0,2,,,,,,15,,,,,,,,,,,,,,,,,,,,,,,,,,,,,,,,91.5,1
109,,iti,,html-keyboard-response,109,76603,0.0-1.0-17.0-5.0,0,0,2,,,,,,,,,,,,,,,,,,,,,,,,,,,,,,,,,,,,,,93,1.5
110,,choice,,html-keyboard-response,110,76760,0.0-1.0-18.0-0.0,0,0,2,,154,,,50,16,16,1000,3000,0,1,0,60-60,,,telescope,yarn,60,60,telescope6,yarn15,80,80,LO-telescope-89769.jpg,rainbowscarf-600x394.jpg,/static/Category_learning/Stimuli/Experimental_stims/telescope/LO-telescope-89769.jpg,/static/Category_learning/Stimuli/Experimental_stims/yarn/rainbowscarf-600x394.jpg,1,telescope,yarn,60,60,telescope6,yarn15,80,80,0,93.154,0.154
111,,confirmation,,html-keyboard-response,111,78113,0.0-1.0-18.0-1.0-0.0,0,0,2,,,,,,16,,,,,,,,,,,,,,,,,,,,,,,,,,,,,,,,94.5,1.346
112,,isi,,html-keyboard-response,112,78218,0.0-1.0-18.0-2.0,0,0,2,,,,,,,,,,,,,,,,,,,,,,,,,,,,,,,,,,,,,,95.5,1
113,,feedback,,html-keyboard-response,113,79224,0.0-1.0-18.0-3.0-0.0,0,0,2,,,,,,16,,,,,,,,,,,,,,,,,,,,,,,,,,,,,,,,96.5,1
114,,iti,,html-keyboard-response,114,79332,0.0-1.0-18.0-5.0,0,0,2,,,,,,,,,,,,,,,,,,,,,,,,,,,,,,,,,,,,,,99.5,3
115,,choice,,html-keyboard-response,115,79345,0.0-1.0-19.0-0.0,0,0,2,,10,,,50,17,17,1500,2000,0,1,0,20-20,,,license plate,makeup compact,20,20,license plate10,makeup compact7,40,0,pa-nfn-011.jpg,P187133_hero.jpg,/static/Category_learning/Stimuli/Experimental_stims/license plate/pa-nfn-011.jpg,/static/Category_learning/Stimuli/Experimental_stims/makeup compact/P187133_hero.jpg,1,license plate,makeup compact,20,20,license plate10,makeup compact7,40,0,0,99.51,0.01
116,,confirmation,,html-keyboard-response,116,80842,0.0-1.0-19.0-1.0-0.0,0,0,2,,,,,,17,,,,,,,,,,,,,,,,,,,,,,,,,,,,,,,,101,1.49
117,,isi,,html-keyboard-response,117,80949,0.0-1.0-19.0-2.0,0,0,2,,,,,,,,,,,,,,,,,,,,,,,,,,,,,,,,,,,,,,102.5,1.5
118,,feedback,,html-keyboard-response,118,81954,0.0-1.0-19.0-3.0-0.0,0,0,2,,,,,,17,,,,,,,,,,,,,,,,,,,,,,,,,,,,,,,,103.5,1
119,,iti,,html-keyboard-response,119,82061,0.0-1.0-19.0-5.0,0,0,2,,,,,,,,,,,,,,,,,,,,,,,,,,,,,,,,,,,,,,105.5,2
120,,choice,,html-keyboard-response,120,82751,0.0-1.0-20.0-0.0,0,0,2,,685,,,50,18,18,2000,2000,0,1,1,60-60,1,,tape,tape,60,60,tape12,tape7,60,60,Frog-Tape-Dispenser_F02218A2.jpg,tape dispenser.jpg,/static/Category_learning/Stimuli/Experimental_stims/tape/Frog-Tape-Dispenser_F02218A2.jpg,/static/Category_learning/Stimuli/Experimental_stims/tape/tape dispenser.jpg,1,tape,tape,60,60,tape12,tape7,60,60,0,106.185,0.685
121,,confirmation,,html-keyboard-response,121,83573,0.0-1.0-20.0-1.0-0.0,0,0,2,,,,,,18,,,,,,,,,,,,,,,,,,,,,,,,,,,,,,,,107,0.815
122,,isi,,html-keyboard-response,122,83679,0.0-1.0-20.0-2.0,0,0,2,,,,,,,,,,,,,,,,,,,,,,,,,,,,,,,,,,,,,,109,2
123,,feedback,,html-keyboard-response,123,84686,0.0-1.0-20.0-3.0-0.0,0,0,2,,,,,,18,,,,,,,,,,,,,,,,,,,,,,,,,,,,,,,,110,1
124,,iti,,html-keyboard-response,124,84793,0.0-1.0-20.0-5.0,0,0,2,,,,,,,,,,,,,,,,,,,,,,,,,,,,,,,,,,,,,,112,2
125,,choice,,html-keyboard-response,125,85361,0.0-1.0-21.0-0.0,0,0,2,,564,,,50,19,19,1500,1500,0,1,1,60-80,0,,watch,door knob,60,80,watch8,door knob10,60,80,2239.jpg,c02a578d-c6cc-44ca-8dd2-de8901e30bd7_4.jpg,/static/Category_learning/Stimuli/Experimental_stims/watch/2239.jpg,/static/Category_learning/Stimuli/Experimental_stims/door knob/c02a578d-c6cc-44ca-8dd2-de8901e30bd7_4.jpg,1,watch,door knob,60,80,watch8,door knob10,60,80,0,112.564,0.564
126,,confirmation,,html-keyboard-response,126,86303,0.0-1.0-21.0-1.0-0.0,0,0,2,,,,,,19,,,,,,,,,,,,,,,,,,,,,,,,,,,,,,,,113.5,0.936
127,,isi,,html-keyboard-response,127,86409,0.0-1.0-21.0-2.0,0,0,2,,,,,,,,,,,,,,,,,,,,,,,,,,,,,,,,,,,,,,115,1.5
128,,feedback,,html-keyboard-response,128,87416,0.0-1.0-21.0-3.0-0.0,0,0,2,,,,,,19,,,,,,,,,,,,,,,,,,,,,,,,,,,,,,,,116,1
129,,iti,,html-keyboard-response,129,87519,0.0-1.0-21.0-5.0,0,0,2,,,,,,,,,,,,,,,,,,,,,,,,,,,,,,,,,,,,,,117.5,1.5
130,,choice,,html-keyboard-response,130,87704,0.0-1.0-22.0-0.0,0,0,2,,182,,,50,20,20,2000,1000,0,1,0,40-80,,0,patio lounge chair,bongo,40,80,patio lounge chair11,bongo1,60,100,51830.jpg,ABONGO22.jpg,/static/Category_learning/Stimuli/Experimental_stims/patio lounge chair/51830.jpg,/static/Category_learning/Stimuli/Experimental_stims/bongo/ABONGO22.jpg,1,patio lounge chair,bongo,40,80,patio lounge chair11,bongo1,60,100,0,117.682,0.182
131,,confirmation,,html-keyboard-response,131,89028,0.0-1.0-22.0-1.0-0.0,0,0,2,,,,,,20,,,,,,,,,,,,,,,,,,,,,,,,,,,,,,,,119,1.318
132,,isi,,html-keyboard-response,132,89135,0.0-1.0-22.0-2.0,0,0,2,,,,,,,,,,,,,,,,,,,,,,,,,,,,,,,,,,,,,,121,2
133,,feedback,,html-keyboard-response,133,90140,0.0-1.0-22.0-3.0-0.0,0,0,2,,,,,,20,,,,,,,,,,,,,,,,,,,,,,,,,,,,,,,,122,1
134,,iti,,html-keyboard-response,134,90244,0.0-1.0-22.0-5.0,0,0,2,,,,,,,,,,,,,,,,,,,,,,,,,,,,,,,,,,,,,,123,1
135,,choice,,html-keyboard-response,135,90378,0.0-1.0-23.0-0.0,0,0,2,,130,,,50,21,21,1500,1500,0,1,1,20-80,0,,desk,motorcycle,80,20,desk1,motorcycle10,100,20,ADESK11.jpg,motorcycle17.jpg,/static/Category_learning/Stimuli/Experimental_stims/desk/ADESK11.jpg,/static/Category_learning/Stimuli/Experimental_stims/motorcycle/motorcycle17.jpg,1,desk,motorcycle,80,20,desk1,motorcycle10,100,20,0,123.13,0.13
136,,confirmation,,html-keyboard-response,136,91755,0.0-1.0-23.0-1.0-0.0,0,0,2,,,,,,21,,,,,,,,,,,,,,,,,,,,,,,,,,,,,,,,124.5,1.37
137,,isi,,html-keyboard-response,137,91861,0.0-1.0-23.0-2.0,0,0,2,,,,,,,,,,,,,,,,,,,,,,,,,,,,,,,,,,,,,,126,1.5
138,,feedback,,html-keyboard-response,138,92867,0.0-1.0-23.0-3.0-0.0,0,0,2,,,,,,21,,,,,,,,,,,,,,,,,,,,,,,,,,,,,,,,127,1
139,,iti,,html-keyboard-response,139,92970,0.0-1.0-23.0-5.0,0,0,2,,,,,,,,,,,,,,,,,,,,,,,,,,,,,,,,,,,,,,128.5,1.5
140,,choice,,html-keyboard-response,140,93921,0.0-1.0-24.0-0.0,0,0,2,,947,,,50,22,22,2000,2000,0,1,0,40-80,,1,baby carriage,seashell,80,40,baby carriage6,seashell2,60,20,Baby_Stroller-1.jpg,ph_stri_seashell.jpg,/static/Category_learning/Stimuli/Experimental_stims/baby carriage/Baby_Stroller-1.jpg,/static/Category_learning/Stimuli/Experimental_stims/seashell/ph_stri_seashell.jpg,1,baby carriage,seashell,80,40,baby carriage6,seashell2,60,20,0,129.447,0.947
141,,confirmation,,html-keyboard-response,141,94483,0.0-1.0-24.0-1.0-0.0,0,0,2,,,,,,22,,,,,,,,,,,,,,,,,,,,,,,,,,,,,,,,130,0.553
142,,isi,,html-keyboard-response,142,94588,0.0-1.0-24.0-2.0,0,0,2,,,,,,,,,,,,,,,,,,,,,,,,,,,,,,,,,,,,,,132,2
143,,feedback,,html-keyboard-response,143,95595,0.0-1.0-24.0-3.0-0.0,0,0,2,,,,,,22,,,,,,,,,,,,,,,,,,,,,,,,,,,,,,,,133,1
144,,iti,,html-keyboard-response,144,95698,0.0-1.0-24.0-5.0,0,0,2,,,,,,,,,,,,,,,,,,,,,,,,,,,,,,,,,,,,,,135,2
145,,choice,,html-keyboard-response,145,96085,0.0-1.0-25.0-0.0,0,0,2,,384,,,50,23,23,1000,1000,0,1,0,20-80,,1,dresser,hat,80,20,dresser12,hat4,80,20,ADRESSE58.jpg,JS370.jpg,/static/Category_learning/Stimuli/Experimental_stims/dresser/ADRESSE58.jpg,/static/Category_learning/Stimuli/Experimental_stims/hat/JS370.jpg,1,dresser,hat,80,20,dresser12,hat4,80,20,0,135.384,0.384
146,,confirmation,,html-keyboard-response,146,97209,0.0-1.0-25.0-1.0-0.0,0,0,2,,,,,,23,,,,,,,,,,,,,,,,,,,,,,,,,,,,,,,,136.5,1.116
147,,isi,,html-keyboard-response,147,97317,0.0-1.0-25.0-2.0,0,0,2,,,,,,,,,,,,,,,,,,,,,,,,,,,,,,,,,,,,,,137.5,1
148,,feedback,,html-keyboard-response,148,98326,0.0-1.0-25.0-3.0-0.0,0,0,2,,,,,,23,,,,,,,,,,,,,,,,,,,,,,,,,,,,,,,,138.5,1
149,,iti,,html-keyboard-response,149,98434,0.0-1.0-25.0-5.0,0,0,2,,,,,,,,,,,,,,,,,,,,,,,,,,,,,,,,,,,,,,139.5,1
150,,choice,,html-keyboard-response,150,98587,0.0-1.0-26.0-0.0,0,0,2,,149,,,50,24,24,2000,2000,0,1,0,20-80,,1,door knob,hammer,80,20,door knob13,hammer15,100,0,500_CLAWALBC.jpg,Vaughan-32-oz-Hickory-Handle-Ball-Pein-Hammer-S432-B0001LRUJM-L-ARCQ0EBO8TR73_.jpg,/static/Category_learning/Stimuli/Experimental_stims/door knob/500_CLAWALBC.jpg,/static/Category_learning/Stimuli/Experimental_stims/hammer/Vaughan-32-oz-Hickory-Handle-Ball-Pein-Hammer-S432-B0001LRUJM-L-ARCQ0EBO8TR73_.jpg,1,door knob,hammer,80,20,door knob13,hammer15,100,0,0,139.649,0.149
151,,confirmation,,html-keyboard-response,151,99946,0.0-1.0-26.0-1.0-0.0,0,0,2,,,,,,24,,,,,,,,,,,,,,,,,,,,,,,,,,,,,,,,141,1.351
152,,isi,,html-keyboard-response,152,100055,0.0-1.0-26.0-2.0,0,0,2,,,,,,,,,,,,,,,,,,,,,,,,,,,,,,,,,,,,,,143,2
153,,feedback,,html-keyboard-response,153,101061,0.0-1.0-26.0-3.0-0.0,0,0,2,,,,,,24,,,,,,,,,,,,,,,,,,,,,,,,,,,,,,,,144,1
154,,iti,,html-keyboard-response,154,101166,0.0-1.0-26.0-5.0,0,0,2,,,,,,,,,,,,,,,,,,,,,,,,,,,,,,,,,,,,,,146,2
155,,choice,,html-keyboard-response,155,101286,0.0-1.0-27.0-0.0,0,0,2,,117,,,50,25,25,1000,1500,0,1,0,20-40,,0,hammer,nail polish,20,40,hammer7,nail polish12,40,40,hammer01.jpg,laquerdUP.jpg,/static/Category_learning/Stimuli/Experimental_stims/hammer/hammer01.jpg,/static/Category_learning/Stimuli/Experimental_stims/nail polish/laquerdUP.jpg,1,hammer,nail polish,20,40,hammer7,nail polish12,40,40,0,146.117,0.117
156,,confirmation,,html-keyboard-response,156,102672,0.0-1.0-27.0-1.0-0.0,0,0,2,,,,,,25,,,,,,,,,,,,,,,,,,,,,,,,,,,,,,,,147.5,1.383
157,,isi,,html-keyboard-response,157,102777,0.0-1.0-27.0-2.0,0,0,2,,,,,,,,,,,,,,,,,,,,,,,,,,,,,,,,,,,,,,148.5,1
158,,feedback,,html-keyboard-response,158,103786,0.0-1.0-27.0-3.0-0.0,0,0,2,,,,,,25,,,,,,,,,,,,,,,,,,,,,,,,,,,,,,,,149.5,1
159,,iti,,html-keyboard-response,159,103892,0.0-1.0-27.0-5.0,0,0,2,,,,,,,,,,,,,,,,,,,,,,,,,,,,,,,,,,,,,,151,1.5
160,,choice,,html-keyboard-response,160,104033,0.0-1.0-28.0-0.0,0,0,2,,136,,,50,26,26,3500,1000,0,1,0,20-60,,1,stool,makeup compact,60,20,stool4,makeup compact5,40,40,ASTOOL22.jpg,P109965_hero.jpg,/static/Category_learning/Stimuli/Experimental_stims/stool/ASTOOL22.jpg,/static/Category_learning/Stimuli/Experimental_stims/makeup compact/P109965_hero.jpg,1,stool,makeup compact,60,20,stool4,makeup compact5,40,40,0,151.136,0.136
161,,confirmation,,html-keyboard-response,161,105402,0.0-1.0-28.0-1.0-0.0,0,0,2,,,,,,26,,,,,,,,,,,,,,,,,,,,,,,,,,,,,,,,152.5,1.364
162,,isi,,html-keyboard-response,162,105506,0.0-1.0-28.0-2.0,0,0,2,,,,,,,,,,,,,,,,,,,,,,,,,,,,,,,,,,,,,,156,3.5
163,,feedback,,html-keyboard-response,163,106514,0.0-1.0-28.0-3.0-0.0,0,0,2,,,,,,26,,,,,,,,,,,,,,,,,,,,,,,,,,,,,,,,157,1
164,,iti,,html-keyboard-response,164,106619,0.0-1.0-28.0-5.0,0,0,2,,,,,,,,,,,,,,,,,,,,,,,,,,,,,,,,,,,,,,158,1
165,,choice,,html-keyboard-response,165,106836,0.0-1.0-29.0-0.0,0,0,2,,214,,,50,27,27,1500,3500,0,1,0,40-80,,1,flashlight,small table,80,40,flashlight12,small table8,80,60,new05.jpg,ATABLE8.jpg,/static/Category_learning/Stimuli/Experimental_stims/flashlight/new05.jpg,/static/Category_learning/Stimuli/Experimental_stims/small table/ATABLE8.jpg,1,flashlight,small table,80,40,flashlight12,small table8,80,60,0,158.214,0.214
166,,confirmation,,html-keyboard-response,166,108128,0.0-1.0-29.0-1.0-0.0,0,0,2,,,,,,27,,,,,,,,,,,,,,,,,,,,,,,,,,,,,,,,159.5,1.286
167,,isi,,html-keyboard-response,167,108236,0.0-1.0-29.0-2.0,0,0,2,,,,,,,,,,,,,,,,,,,,,,,,,,,,,,,,,,,,,,161,1.5
168,,feedback,,html-keyboard-response,168,109241,0.0-1.0-29.0-3.0-0.0,0,0,2,,,,,,27,,,,,,,,,,,,,,,,,,,,,,,,,,,,,,,,162,1
169,,iti,,html-keyboard-response,169,109348,0.0-1.0-29.0-5.0,0,0,2,,,,,,,,,,,,,,,,,,,,,,,,,,,,,,,,,,,,,,165.5,3.5
170,,choice,,html-keyboard-response,170,109556,0.0-1.0-30.0-0.0,0,0,2,,204,,,50,28,28,3000,3000,0,1,1,60-80,0,,stool,dresser,60,80,stool4,dresser12,40,80,ASTOOL22.jpg,ADRESSE58.jpg,/static/Category_learning/Stimuli/Experimental_stims/stool/ASTOOL22.jpg,/static/Category_learning/Stimuli/Experimental_stims/dresser/ADRESSE58.jpg,1,stool,dresser,60,80,stool4,dresser12,40,80,0,165.704,0.204
171,,confirmation,,html-keyboard-response,171,110857,0.0-1.0-30.0-1.0-0.0,0,0,2,,,,,,28,,,,,,,,,,,,,,,,,,,,,,,,,,,,,,,,167,1.296
172,,isi,,html-keyboard-response,172,110961,0.0-1.0-30.0-2.0,0,0,2,,,,,,,,,,,,,,,,,,,,,,,,,,,,,,,,,,,,,,170,3
173,,feedback,,html-keyboard-response,173,111966,0.0-1.0-30.0-3.0-0.0,0,0,2,,,,,,28,,,,,,,,,,,,,,,,,,,,,,,,,,,,,,,,171,1
174,,iti,,html-keyboard-response,174,112070,0.0-1.0-30.0-5.0,0,0,2,,,,,,,,,,,,,,,,,,,,,,,,,,,,,,,,,,,,,,174,3
175,,choice,,html-keyboard-response,175,112422,0.0-1.0-31.0-0.0,0,0,2,,348,,,50,29,29,3500,1000,0,1,0,20-80,,1,bongo,key chain,80,20,bongo8,key chain10,80,0,26390661.thl.jpg,Smurfs_Keychains_Smurf_Row_Boat.jpg,/static/Category_learning/Stimuli/Experimental_stims/bongo/26390661.thl.jpg,/static/Category_learning/Stimuli/Experimental_stims/key chain/Smurfs_Keychains_Smurf_Row_Boat.jpg,1,bongo,key chain,80,20,bongo8,key chain10,80,0,0,174.348,0.348
176,,confirmation,,html-keyboard-response,176,113578,0.0-1.0-31.0-1.0-0.0,0,0,2,,,,,,29,,,,,,,,,,,,,,,,,,,,,,,,,,,,,,,,175.5,1.152
177,,isi,,html-keyboard-response,177,113686,0.0-1.0-31.0-2.0,0,0,2,,,,,,,,,,,,,,,,,,,,,,,,,,,,,,,,,,,,,,179,3.5
178,,feedback,,html-keyboard-response,178,114693,0.0-1.0-31.0-3.0-0.0,0,0,2,,,,,,29,,,,,,,,,,,,,,,,,,,,,,,,,,,,,,,,180,1
179,,iti,,html-keyboard-response,179,114801,0.0-1.0-31.0-5.0,0,0,2,,,,,,,,,,,,,,,,,,,,,,,,,,,,,,,,,,,,,,181,1
180,,choice,,html-keyboard-response,180,114986,0.0-1.0-32.0-0.0,0,0,2,,181,,,50,30,30,1000,2000,0,1,0,60-80,,0,tape,baby carriage,60,80,tape15,baby carriage10,80,100,MMMC15BK.jpg,peg_perego_uno_blu.jpg,/static/Category_learning/Stimuli/Experimental_stims/tape/MMMC15BK.jpg,/static/Category_learning/Stimuli/Experimental_stims/baby carriage/peg_perego_uno_blu.jpg,1,tape,baby carriage,60,80,tape15,baby carriage10,80,100,0,181.181,0.181
181,,confirmation,,html-keyboard-response,181,116311,0.0-1.0-32.0-1.0-0.0,0,0,2,,,,,,30,,,,,,,,,,,,,,,,,,,,,,,,,,,,,,,,182.5,1.319
182,,isi,,html-keyboard-response,182,116416,0.0-1.0-32.0-2.0,0,0,2,,,,,,,,,,,,,,,,,,,,,,,,,,,,,,,,,,,,,,183.5,1
183,,feedback,,html-keyboard-response,183,117421,0.0-1.0-32.0-3.0-0.0,0,0,2,,,,,,30,,,,,,,,,,,,,,,,,,,,,,,,,,,,,,,,184.5,1
184,,iti,,html-keyboard-response,184,117528,0.0-1.0-32.0-5.0,0,0,2,,,,,,,,,,,,,,,,,,,,,,,,,,,,,,,,,,,,,,186.5,2
185,,choice,,html-keyboard-response,185,117894,0.0-1.0-33.0-0.0,0,0,2,,361,,,51,31,31,1000,1000,0,1,1,80-80,0,,flashlight,bowl,80,80,flashlight12,bowl3,80,60,new05.jpg,ABOWL8.jpg,/static/Category_learning/Stimuli/Experimental_stims/flashlight/new05.jpg,/static/Category_learning/Stimuli/Experimental_stims/bowl/ABOWL8.jpg,0,bowl,flashlight,80,80,bowl3,flashlight12,60,80,0,186.861,0.361
186,,confirmation,,html-keyboard-response,186,119040,0.0-1.0-33.0-1.0-0.0,0,0,2,,,,,,31,,,,,,,,,,,,,,,,,,,,,,,,,,,,,,,,188,1.139
187,,isi,,html-keyboard-response,187,119149,0.0-1.0-33.0-2.0,0,0,2,,,,,,,,,,,,,,,,,,,,,,,,,,,,,,,,,,,,,,189,1
188,,feedback,,html-keyboard-response,188,120157,0.0-1.0-33.0-3.0-0.0,0,0,2,,,,,,31,,,,,,,,,,,,,,,,,,,,,,,,,,,,,,,,190,1
189,,iti,,html-keyboard-response,189,120262,0.0-1.0-33.0-5.0,0,0,2,,,,,,,,,,,,,,,,,,,,,,,,,,,,,,,,,,,,,,191,1
190,,choice,,html-keyboard-response,190,120481,0.0-1.0-34.0-0.0,0,0,2,,215,,,51,32,32,1000,1000,0,1,0,20-60,,0,frame,vase,20,60,frame4,vase9,40,60,AFRAME125.jpg,Avasewithang2.jpg,/static/Category_learning/Stimuli/Experimental_stims/frame/AFRAME125.jpg,/static/Category_learning/Stimuli/Experimental_stims/vase/Avasewithang2.jpg,0,vase,frame,60,20,vase9,frame4,60,40,0,191.215,0.215
191,,confirmation,,html-keyboard-response,191,121775,0.0-1.0-34.0-1.0-0.0,0,0,2,,,,,,32,,,,,,,,,,,,,,,,,,,,,,,,,,,,,,,,192.5,1.285
192,,isi,,html-keyboard-response,192,121881,0.0-1.0-34.0-2.0,0,0,2,,,,,,,,,,,,,,,,,,,,,,,,,,,,,,,,,,,,,,193.5,1
193,,feedback,,html-keyboard-response,193,122885,0.0-1.0-34.0-3.0-0.0,0,0,2,,,,,,32,,,,,,,,,,,,,,,,,,,,,,,,,,,,,,,,194.5,1
194,,iti,,html-keyboard-response,194,122993,0.0-1.0-34.0-5.0,0,0,2,,,,,,,,,,,,,,,,,,,,,,,,,,,,,,,,,,,,,,195.5,1
195,,choice,,html-keyboard-response,195,122999,0.0-1.0-35.0-0.0,0,0,2,,2,,,51,33,33,1000,1500,0,1,0,40-40,,,power strip,necklace,40,40,power strip5,necklace3,60,20,93e4a283-bcd6-4ad1-8add-339658cda0fc_400.jpg,26388201.thl.jpg,/static/Category_learning/Stimuli/Experimental_stims/power strip/93e4a283-bcd6-4ad1-8add-339658cda0fc_400.jpg,/static/Category_learning/Stimuli/Experimental_stims/necklace/26388201.thl.jpg,0,necklace,power strip,40,40,necklace3,power strip5,20,60,0,195.502,0.002
196,,confirmation,,html-keyboard-response,196,124501,0.0-1.0-35.0-1.0-0.0,0,0,2,,,,,,33,,,,,,,,,,,,,,,,,,,,,,,,,,,,,,,,197,1.498
197,,isi,,html-keyboard-response,197,124605,0.0-1.0-35.0-2.0,0,0,2,,,,,,,,,,,,,,,,,,,,,,,,,,,,,,,,,,,,,,198,1
198,,feedback,,html-keyboard-response,198,125611,0.0-1.0-35.0-3.0-0.0,0,0,2,,,,,,33,,,,,,,,,,,,,,,,,,,,,,,,,,,,,,,,199,1
199,,iti,,html-keyboard-response,199,125716,0.0-1.0-35.0-5.0,0,0,2,,,,,,,,,,,,,,,,,,,,,,,,,,,,,,,,,,,,,,200.5,1.5
200,,choice,,html-keyboard-response,200,125893,0.0-1.0-36.0-0.0,0,0,2,,172,,,51,34,34,2000,3000,0,1,0,40-60,,0,patio lounge chair,yarn,40,60,patio lounge chair14,yarn8,40,40,2987951.jpg,smonlineyarn-285x250.jpg,/static/Category_learning/Stimuli/Experimental_stims/patio lounge chair/2987951.jpg,/static/Category_learning/Stimuli/Experimental_stims/yarn/smonlineyarn-285x250.jpg,0,yarn,patio lounge chair,60,40,yarn8,patio lounge chair14,40,40,0,200.672,0.172
201,,confirmation,,html-keyboard-response,201,127229,0.0-1.0-36.0-1.0-0.0,0,0,2,,,,,,34,,,,,,,,,,,,,,,,,,,,,,,,,,,,,,,,202,1.328
202,,isi,,html-keyboard-response,202,127337,0.0-1.0-36.0-2.0,0,0,2,,,,,,,,,,,,,,,,,,,,,,,,,,,,,,,,,,,,,,204,2
203,,feedback,,html-keyboard-response,203,128341,0.0-1.0-36.0-3.0-0.0,0,0,2,,,,,,34,,,,,,,,,,,,,,,,,,,,,,,,,,,,,,,,205,1
204,,iti,,html-keyboard-response,204,128450,0.0-1.0-36.0-5.0,0,0,2,,,,,,,,,,,,,,,,,,,,,,,,,,,,,,,,,,,,,,208,3
205,,choice,,html-keyboard-response,205,129012,0.0-1.0-37.0-0.0,0,0,2,,558,,,51,35,35,1500,3500,0,1,1,20-80,0,,hammer,bongo,20,80,hammer7,bongo8,40,80,hammer01.jpg,26390661.thl.jpg,/static/Category_learning/Stimuli/Experimental_stims/hammer/hammer01.jpg,/static/Category_learning/Stimuli/Experimental_stims/bongo/26390661.thl.jpg,0,bongo,hammer,80,20,bongo8,hammer7,80,40,0,208.558,0.558
206,,confirmation,,html-keyboard-response,206,129961,0.0-1.0-37.0-1.0-0.0,0,0,2,,,,,,35,,,,,,,,,,,,,,,,,,,,,,,,,,,,,,,,209.5,0.942
207,,isi,,html-keyboard-response,207,130067,0.0-1.0-37.0-2.0,0,0,2,,,,,,,,,,,,,,,,,,,,,,,,,,,,,,,,,,,,,,211,1.5
208,,feedback,,html-keyboard-response,208,131072,0.0-1.0-37.0-3.0-0.0,0,0,2,,,,,,35,,,,,,,,,,,,,,,,,,,,,,,,,,,,,,,,212,1
209,,iti,,html-keyboard-response,209,131180,0.0-1.0-37.0-5.0,0,0,2,,,,,,,,,,,,,,,,,,,,,,,,,,,,,,,,,,,,,,215.5,3.5
210,,choice,,html-keyboard-response,210,131579,0.0-1.0-38.0-0.0,0,0,2,,395,,,51,36,36,1500,2000,0,1,1,40-60,0,,patio lounge chair,tape,40,60,patio lounge chair11,tape15,60,80,51830.jpg,MMMC15BK.jpg,/static/Category_learning/Stimuli/Experimental_stims/patio lounge chair/51830.jpg,/static/Category_learning/Stimuli/Experimental_stims/tape/MMMC15BK.jpg,0,tape,patio lounge chair,60,40,tape15,patio lounge chair11,80,60,0,215.895,0.395
211,,confirmation,,html-keyboard-response,211,132688,0.0-1.0-38.0-1.0-0.0,0,0,2,,,,,,36,,,,,,,,,,,,,,,,,,,,,,,,,,,,,,,,217,1.105
212,,isi,,html-keyboard-response,212,132794,0.0-1.0-38.0-2.0,0,0,2,,,,,,,,,,,,,,,,,,,,,,,,,,,,,,,,,,,,,,218.5,1.5
213,,feedback,,html-keyboard-response,213,133800,0.0-1.0-38.0-3.0-0.0,0,0,2,,,,,,36,,,,,,,,,,,,,,,,,,,,,,,,,,,,,,,,219.5,1
214,,iti,,html-keyboard-response,214,133908,0.0-1.0-38.0-5.0,0,0,2,,,,,,,,,,,,,,,,,,,,,,,,,,,,,,,,,,,,,,221.5,2
215,,choice,,html-keyboard-response,215,134123,0.0-1.0-39.0-0.0,0,0,2,,210,,,51,37,37,1000,1000,0,1,0,60-60,,,tape,train,60,60,tape10,train6,80,40,26377601.thl.jpg,train9.jpg,/static/Category_learning/Stimuli/Experimental_stims/tape/26377601.thl.jpg,/static/Category_learning/Stimuli/Experimental_stims/train/train9.jpg,0,train,tape,60,60,train6,tape10,40,80,0,221.71,0.21
216,,confirmation,,html-keyboard-response,216,135417,0.0-1.0-39.0-1.0-0.0,0,0,2,,,,,,37,,,,,,,,,,,,,,,,,,,,,,,,,,,,,,,,223,1.29
217,,isi,,html-keyboard-response,217,135522,0.0-1.0-39.0-2.0,0,0,2,,,,,,,,,,,,,,,,,,,,,,,,,,,,,,,,,,,,,,224,1
218,,feedback,,html-keyboard-response,218,136531,0.0-1.0-39.0-3.0-0.0,0,0,2,,,,,,37,,,,,,,,,,,,,,,,,,,,,,,,,,,,,,,,225,1
219,,iti,,html-keyboard-response,219,136634,0.0-1.0-39.0-5.0,0,0,2,,,,,,,,,,,,,,,,,,,,,,,,,,,,,,,,,,,,,,226,1
220,,choice,,html-keyboard-response,220,136862,0.0-1.0-40.0-0.0,0,0,2,,222,,,51,38,38,1500,3500,0,1,0,40-80,,0,patio lounge chair,bowl,40,80,patio lounge chair8,bowl6,20,80,43-1.jpg,Abowl59.jpg,/static/Category_learning/Stimuli/Experimental_stims/patio lounge chair/43-1.jpg,/static/Category_learning/Stimuli/Experimental_stims/bowl/Abowl59.jpg,0,bowl,patio lounge chair,80,40,bowl6,patio lounge chair8,80,20,0,226.222,0.222
221,,confirmation,,html-keyboard-response,221,138146,0.0-1.0-40.0-1.0-0.0,0,0,2,,,,,,38,,,,,,,,,,,,,,,,,,,,,,,,,,,,,,,,227.5,1.278
222,,isi,,html-keyboard-response,222,138250,0.0-1.0-40.0-2.0,0,0,2,,,,,,,,,,,,,,,,,,,,,,,,,,,,,,,,,,,,,,229,1.5
223,,feedback,,html-keyboard-response,223,139259,0.0-1.0-40.0-3.0-0.0,0,0,2,,,,,,38,,,,,,,,,,,,,,,,,,,,,,,,,,,,,,,,230,1
224,,iti,,html-keyboard-response,224,139366,0.0-1.0-40.0-5.0,0,0,2,,,,,,,,,,,,,,,,,,,,,,,,,,,,,,,,,,,,,,233.5,3.5
225,,choice,,html-keyboard-response,225,139463,0.0-1.0-41.0-0.0,0,0,2,,92,,,51,39,39,2000,2000,0,1,1,80-80,0,,bowl,baby carriage,80,80,bowl6,baby carriage6,80,60,Abowl59.jpg,Baby_Stroller-1.jpg,/static/Category_learning/Stimuli/Experimental_stims/bowl/Abowl59.jpg,/static/Category_learning/Stimuli/Experimental_stims/baby carriage/Baby_Stroller-1.jpg,0,baby carriage,bowl,80,80,baby carriage6,bowl6,60,80,0,233.592,0.092
226,,confirmation,,html-keyboard-response,226,140877,0.0-1.0-41.0-1.0-0.0,0,0,2,,,,,,39,,,,,,,,,,,,,,,,,,,,,,,,,,,,,,,,235,1.408
227,,isi,,html-keyboard-response,227,140984,0.0-1.0-41.0-2.0,0,0,2,,,,,,,,,,,,,,,,,,,,,,,,,,,,,,,,,,,,,,237,2
228,,feedback,,html-keyboard-response,228,141992,0.0-1.0-41.0-3.0-0.0,0,0,2,,,,,,39,,,,,,,,,,,,,,,,,,,,,,,,,,,,,,,,238,1
229,,iti,,html-keyboard-response,229,142097,0.0-1.0-41.0-5.0,0,0,2,,,,,,,,,,,,,,,,,,,,,,,,,,,,,,,,,,,,,,240,2
230,,choice,,html-keyboard-response,230,142699,0.0-1.0-42.0-0.0,0,0,2,,598,,,51,40,40,1000,1500,0,1,0,40-60,,0,nail polish,watch,40,60,nail polish14,watch15,20,80,38031405.JPG,20-171-6.jpg,/static/Category_learning/Stimuli/Experimental_stims/nail polish/38031405.JPG,/static/Category_learning/Stimuli/Experimental_stims/watch/20-171-6.jpg,0,watch,nail polish,60,40,watch15,nail polish14,80,20,0,240.598,0.598
231,,confirmation,,html-keyboard-response,231,143608,0.0-1.0-42.0-1.0-0.0,0,0,2,,,,,,40,,,,,,,,,,,,,,,,,,,,,,,,,,,,,,,,241.5,0.902
232,,isi,,html-keyboard-response,232,143714,0.0-1.0-42.0-2.0,0,0,2,,,,,,,,,,,,,,,,,,,,,,,,,,,,,,,,,,,,,,242.5,1
233,,feedback,,html-keyboard-response,233,144722,0.0-1.0-42.0-3.0-0.0,0,0,2,,,,,,40,,,,,,,,,,,,,,,,,,,,,,,,,,,,,,,,243.5,1
234,,iti,,html-keyboard-response,234,144828,0.0-1.0-42.0-5.0,0,0,2,,,,,,,,,,,,,,,,,,,,,,,,,,,,,,,,,,,,,,245,1.5
235,,choice,,html-keyboard-response,235,144843,0.0-1.0-43.0-0.0,0,0,2,,10,,,51,41,41,1500,3000,0,1,0,20-20,,,hammer,license plate,20,20,hammer5,license plate14,20,0,hammer02.jpg,fl-hel-bel.jpg,/static/Category_learning/Stimuli/Experimental_stims/hammer/hammer02.jpg,/static/Category_learning/Stimuli/Experimental_stims/license plate/fl-hel-bel.jpg,0,license plate,hammer,20,20,license plate14,hammer5,0,20,0,245.01,0.01
236,,confirmation,,html-keyboard-response,236,146337,0.0-1.0-43.0-1.0-0.0,0,0,2,,,,,,41,,,,,,,,,,,,,,,,,,,,,,,,,,,,,,,,246.5,1.49
237,,isi,,html-keyboard-response,237,146442,0.0-1.0-43.0-2.0,0,0,2,,,,,,,,,,,,,,,,,,,,,,,,,,,,,,,,,,,,,,248,1.5
238,,feedback,,html-keyboard-response,238,147447,0.0-1.0-43.0-3.0-0.0,0,0,2,,,,,,41,,,,,,,,,,,,,,,,,,,,,,,,,,,,,,,,249,1
239,,iti,,html-keyboard-response,239,147550,0.0-1.0-43.0-5.0,0,0,2,,,,,,,,,,,,,,,,,,,,,,,,,,,,,,,,,,,,,,252,3
240,,choice,,html-keyboard-response,240,147675,0.0-1.0-44.0-0.0,0,0,2,,122,,,51,42,42,1500,1000,0,1,0,40-40,,,poker card,necklace,40,40,poker card15,necklace9,40,60,9816946.thl.jpg,ANECKLACE.jpg,/static/Category_learning/Stimuli/Experimental_stims/poker card/9816946.thl.jpg,/static/Category_learning/Stimuli/Experimental_stims/necklace/ANECKLACE.jpg,0,necklace,poker card,40,40,necklace9,poker card15,60,40,0,252.122,0.122
241,,confirmation,,html-keyboard-response,241,149058,0.0-1.0-44.0-1.0-0.0,0,0,2,,,,,,42,,,,,,,,,,,,,,,,,,,,,,,,,,,,,,,,253.5,1.378
242,,isi,,html-keyboard-response,242,149165,0.0-1.0-44.0-2.0,0,0,2,,,,,,,,,,,,,,,,,,,,,,,,,,,,,,,,,,,,,,255,1.5
243,,feedback,,html-keyboard-response,243,150174,0.0-1.0-44.0-3.0-0.0,0,0,2,,,,,,42,,,,,,,,,,,,,,,,,,,,,,,,,,,,,,,,256,1
244,,iti,,html-keyboard-response,244,150280,0.0-1.0-44.0-5.0,0,0,2,,,,,,,,,,,,,,,,,,,,,,,,,,,,,,,,,,,,,,257,1
245,,choice,,html-keyboard-response,245,150328,0.0-1.0-45.0-0.0,0,0,2,,43,,,51,43,43,1000,3500,0,1,0,20-20,,,microscope,hammer,20,20,microscope5,hammer11,0,0,emMicroscope.jpg,8oz-hammer-copy.jpg,/static/Category_learning/Stimuli/Experimental_stims/microscope/emMicroscope.jpg,/static/Category_learning/Stimuli/Experimental_stims/hammer/8oz-hammer-copy.jpg,0,hammer,microscope,20,20,hammer11,microscope5,0,0,0,257.043,0.043
246,,confirmation,,html-keyboard-response,246,151792,0.0-1.0-45.0-1.0-0.0,0,0,2,,,,,,43,,,,,,,,,,,,,,,,,,,,,,,,,,,,,,,,258.5,1.457
247,,isi,,html-keyboard-response,247,151898,0.0-1.0-45.0-2.0,0,0,2,,,,,,,,,,,,,,,,,,,,,,,,,,,,,,,,,,,,,,259.5,1
248,,feedback,,html-keyboard-response,248,152904,0.0-1.0-45.0-3.0-0.0,0,0,2,,,,,,43,,,,,,,,,,,,,,,,,,,,,,,,,,,,,,,,260.5,1
249,,iti,,html-keyboard-response,249,153009,0.0-1.0-45.0-5.0,0,0,2,,,,,,,,,,,,,,,,,,,,,,,,,,,,,,,,,,,,,,264,3.5
250,,choice,,html-keyboard-response,250,153319,0.0-1.0-46.0-0.0,0,0,2,,306,,,51,44,44,1000,1000,0,1,1,20-20,1,,license plate,license plate,20,20,license plate14,license plate10,0,40,fl-hel-bel.jpg,pa-nfn-011.jpg,/static/Category_learning/Stimuli/Experimental_stims/license plate/fl-hel-bel.jpg,/static/Category_learning/Stimuli/Experimental_stims/license plate/pa-nfn-011.jpg,0,license plate,license plate,20,20,license plate10,license plate14,40,0,0,264.306,0.306
251,,confirmation,,html-keyboard-response,251,154517,0.0-1.0-46.0-1.0-0.0,0,0,2,,,,,,44,,,,,,,,,,,,,,,,,,,,,,,,,,,,,,,,265.5,1.194
252,,isi,,html-keyboard-response,252,154625,0.0-1.0-46.0-2.0,0,0,2,,,,,,,,,,,,,,,,,,,,,,,,,,,,,,,,,,,,,,266.5,1
253,,feedback,,html-keyboard-response,253,155633,0.0-1.0-46.0-3.0-0.0,0,0,2,,,,,,44,,,,,,,,,,,,,,,,,,,,,,,,,,,,,,,,267.5,1
254,,iti,,html-keyboard-response,254,155737,0.0-1.0-46.0-5.0,0,0,2,,,,,,,,,,,,,,,,,,,,,,,,,,,,,,,,,,,,,,268.5,1
255,,choice,,html-keyboard-response,255,156274,0.0-1.0-47.0-0.0,0,0,2,,533,,,51,45,45,1000,1500,0,1,0,80-80,,,baby carriage,fan,80,80,baby carriage8,fan7,60,80,peg_perego_uno_revi_black.jpg,250679_lg.jpg,/static/Category_learning/Stimuli/Experimental_stims/baby carriage/peg_perego_uno_revi_black.jpg,/static/Category_learning/Stimuli/Experimental_stims/fan/250679_lg.jpg,0,fan,baby carriage,80,80,fan7,baby carriage8,80,60,0,269.033,0.533
256,,confirmation,,html-keyboard-response,256,157246,0.0-1.0-47.0-1.0-0.0,0,0,2,,,,,,45,,,,,,,,,,,,,,,,,,,,,,,,,,,,,,,,270,0.967
257,,isi,,html-keyboard-response,257,157353,0.0-1.0-47.0-2.0,0,0,2,,,,,,,,,,,,,,,,,,,,,,,,,,,,,,,,,,,,,,271,1
258,,feedback,,html-keyboard-response,258,158361,0.0-1.0-47.0-3.0-0.0,0,0,2,,,,,,45,,,,,,,,,,,,,,,,,,,,,,,,,,,,,,,,272,1
259,,iti,,html-keyboard-response,259,158465,0.0-1.0-47.0-5.0,0,0,2,,,,,,,,,,,,,,,,,,,,,,,,,,,,,,,,,,,,,,273.5,1.5
260,,choice,,html-keyboard-response,260,159601,0.0-1.0-48.0-0.0,0,0,2,,1131,,,51,46,46,2000,1000,0,1,0,40-60,,0,seashell,telescope,40,60,seashell1,telescope12,40,40,Aseashe34.jpg,Junior Land and Sky Telescope.jpg,/static/Category_learning/Stimuli/Experimental_stims/seashell/Aseashe34.jpg,/static/Category_learning/Stimuli/Experimental_stims/telescope/Junior Land and Sky Telescope.jpg,0,telescope,seashell,60,40,telescope12,seashell1,40,40,0,274.631,1.131
261,,confirmation,,html-keyboard-response,261,159977,0.0-1.0-48.0-1.0-0.0,0,0,2,,,,,,46,,,,,,,,,,,,,,,,,,,,,,,,,,,,,,,,275,0.369
262,,isi,,html-keyboard-response,262,160083,0.0-1.0-48.0-2.0,0,0,2,,,,,,,,,,,,,,,,,,,,,,,,,,,,,,,,,,,,,,277,2
263,,feedback,,html-keyboard-response,263,161092,0.0-1.0-48.0-3.0-0.0,0,0,2,,,,,,46,,,,,,,,,,,,,,,,,,,,,,,,,,,,,,,,278,1
264,,iti,,html-keyboard-response,264,161196,0.0-1.0-48.0-5.0,0,0,2,,,,,,,,,,,,,,,,,,,,,,,,,,,,,,,,,,,,,,279,1
265,,choice,,html-keyboard-response,265,161560,0.0-1.0-49.0-0.0,0,0,2,,359,,,51,47,47,2000,1000,0,1,0,20-40,,1,small table,hat,40,20,small table2,hat7,60,20,Atable126.jpg,ASTRHATFL.jpg,/static/Category_learning/Stimuli/Experimental_stims/small table/Atable126.jpg,/static/Category_learning/Stimuli/Experimental_stims/hat/ASTRHATFL.jpg,0,hat,small table,20,40,hat7,small table2,20,60,0,279.359,0.359
266,,confirmation,,html-keyboard-response,266,162707,0.0-1.0-49.0-1.0-0.0,0,0,2,,,,,,47,,,,,,,,,,,,,,,,,,,,,,,,,,,,,,,,280.5,1.141
267,,isi,,html-keyboard-response,267,162814,0.0-1.0-49.0-2.0,0,0,2,,,,,,,,,,,,,,,,,,,,,,,,,,,,,,,,,,,,,,282.5,2
268,,feedback,,html-keyboard-response,268,163820,0.0-1.0-49.0-3.0-0.0,0,0,2,,,,,,47,,,,,,,,,,,,,,,,,,,,,,,,,,,,,,,,283.5,1
269,,iti,,html-keyboard-response,269,163928,0.0-1.0-49.0-5.0,0,0,2,,,,,,,,,,,,,,,,,,,,,,,,,,,,,,,,,,,,,,284.5,1
270,,choice,,html-keyboard-response,270,164476,0.0-1.0-50.0-0.0,0,0,2,,543,,,51,48,48,1000,1500,0,1,0,20-60,,1,tape,hammer,60,20,tape2,hammer10,40,40,Tape_Dispenser.jpg,Tabla Hammer.JPG,/static/Category_learning/Stimuli/Experimental_stims/tape/Tape_Dispenser.jpg,/static/Category_learning/Stimuli/Experimental_stims/hammer/Tabla Hammer.JPG,0,hammer,tape,20,60,hammer10,tape2,40,40,0,285.043,0.543
271,,confirmation,,html-keyboard-response,271,165437,0.0-1.0-50.0-1.0-0.0,0,0,2,,,,,,48,,,,,,,,,,,,,,,,,,,,,,,,,,,,,,,,286,0.957
272,,isi,,html-keyboard-response,272,165542,0.0-1.0-50.0-2.0,0,0,2,,,,,,,,,,,,,,,,,,,,,,,,,,,,,,,,,,,,,,287,1
273,,feedback,,html-keyboard-response,273,166550,0.0-1.0-50.0-3.0-0.0,0,0,2,,,,,,48,,,,,,,,,,,,,,,,,,,,,,,,,,,,,,,,288,1
274,,iti,,html-keyboard-response,274,166664,0.0-1.0-50.0-5.0,0,0,2,,,,,,,,,,,,,,,,,,,,,,,,,,,,,,,,,,,,,,289.5,1.5
275,,choice,,html-keyboard-response,275,166800,0.0-1.0-51.0-0.0,0,0,2,,132,,,51,49,49,1500,1500,0,1,1,40-40,1,,necklace,necklace,40,40,necklace9,necklace3,60,20,ANECKLACE.jpg,26388201.thl.jpg,/static/Category_learning/Stimuli/Experimental_stims/necklace/ANECKLACE.jpg,/static/Category_learning/Stimuli/Experimental_stims/necklace/26388201.thl.jpg,0,necklace,necklace,40,40,necklace3,necklace9,20,60,0,289.632,0.132
276,,confirmation,,html-keyboard-response,276,168176,0.0-1.0-51.0-1.0-0.0,0,0,2,,,,,,49,,,,,,,,,,,,,,,,,,,,,,,,,,,,,,,,291,1.368
277,,isi,,html-keyboard-response,277,168284,0.0-1.0-51.0-2.0,0,0,2,,,,,,,,,,,,,,,,,,,,,,,,,,,,,,,,,,,,,,292.5,1.5
278,,feedback,,html-keyboard-response,278,169292,0.0-1.0-51.0-3.0-0.0,0,0,2,,,,,,49,,,,,,,,,,,,,,,,,,,,,,,,,,,,,,,,293.5,1
279,,iti,,html-keyboard-response,279,169398,0.0-1.0-51.0-5.0,0,0,2,,,,,,,,,,,,,,,,,,,,,,,,,,,,,,,,,,,,,,295,1.5
280,,choice,,html-keyboard-response,280,169646,0.0-1.0-52.0-0.0,0,0,2,,243,,,51,50,50,2000,1000,0,1,1,20-20,1,,hammer,hammer,20,20,hammer10,hammer11,40,0,Tabla Hammer.JPG,8oz-hammer-copy.jpg,/static/Category_learning/Stimuli/Experimental_stims/hammer/Tabla Hammer.JPG,/static/Category_learning/Stimuli/Experimental_stims/hammer/8oz-hammer-copy.jpg,0,hammer,hammer,20,20,hammer11,hammer10,0,40,0,295.243,0.243
281,,confirmation,,html-keyboard-response,281,170909,0.0-1.0-52.0-1.0-0.0,0,0,2,,,,,,50,,,,,,,,,,,,,,,,,,,,,,,,,,,,,,,,296.5,1.257
282,,isi,,html-keyboard-response,282,171015,0.0-1.0-52.0-2.0,0,0,2,,,,,,,,,,,,,,,,,,,,,,,,,,,,,,,,,,,,,,298.5,2
283,,feedback,,html-keyboard-response,283,172024,0.0-1.0-52.0-3.0-0.0,0,0,2,,,,,,50,,,,,,,,,,,,,,,,,,,,,,,,,,,,,,,,299.5,1
284,,iti,,html-keyboard-response,284,172129,0.0-1.0-52.0-5.0,0,0,2,,,,,,,,,,,,,,,,,,,,,,,,,,,,,,,,,,,,,,300.5,1
285,,choice,,html-keyboard-response,285,172459,0.0-1.0-53.0-0.0,0,0,2,,327,,,51,51,51,3500,1500,0,1,0,20-80,,1,bench,frame,80,20,bench6,frame7,60,20,26370121.thl.jpg,AFRAME152.jpg,/static/Category_learning/Stimuli/Experimental_stims/bench/26370121.thl.jpg,/static/Category_learning/Stimuli/Experimental_stims/frame/AFRAME152.jpg,0,frame,bench,20,80,frame7,bench6,20,60,0,300.827,0.327
286,,confirmation,,html-keyboard-response,286,173640,0.0-1.0-53.0-1.0-0.0,0,0,2,,,,,,51,,,,,,,,,,,,,,,,,,,,,,,,,,,,,,,,302,1.173
287,,isi,,html-keyboard-response,287,173743,0.0-1.0-53.0-2.0,0,0,2,,,,,,,,,,,,,,,,,,,,,,,,,,,,,,,,,,,,,,305.5,3.5
288,,feedback,,html-keyboard-response,288,174750,0.0-1.0-53.0-3.0-0.0,0,0,2,,,,,,51,,,,,,,,,,,,,,,,,,,,,,,,,,,,,,,,306.5,1
289,,iti,,html-keyboard-response,289,174856,0.0-1.0-53.0-5.0,0,0,2,,,,,,,,,,,,,,,,,,,,,,,,,,,,,,,,,,,,,,308,1.5
290,,choice,,html-keyboard-response,290,175195,0.0-1.0-54.0-0.0,0,0,2,,335,,,51,52,52,1000,1000,0,1,0,20-80,,1,bench,motorcycle,80,20,bench5,motorcycle7,60,20,APARKBEN8.jpg,MotoSmall.jpg,/static/Category_learning/Stimuli/Experimental_stims/bench/APARKBEN8.jpg,/static/Category_learning/Stimuli/Experimental_stims/motorcycle/MotoSmall.jpg,0,motorcycle,bench,20,80,motorcycle7,bench5,20,60,0,308.335,0.335
291,,confirmation,,html-keyboard-response,291,176368,0.0-1.0-54.0-1.0-0.0,0,0,2,,,,,,52,,,,,,,,,,,,,,,,,,,,,,,,,,,,,,,,309.5,1.165
292,,isi,,html-keyboard-response,292,176472,0.0-1.0-54.0-2.0,0,0,2,,,,,,,,,,,,,,,,,,,,,,,,,,,,,,,,,,,,,,310.5,1
293,,feedback,,html-keyboard-response,293,177475,0.0-1.0-54.0-3.0-0.0,0,0,2,,,,,,52,,,,,,,,,,,,,,,,,,,,,,,,,,,,,,,,311.5,1
294,,iti,,html-keyboard-response,294,177582,0.0-1.0-54.0-5.0,0,0,2,,,,,,,,,,,,,,,,,,,,,,,,,,,,,,,,,,,,,,312.5,1
295,,choice,,html-keyboard-response,295,177827,0.0-1.0-55.0-0.0,0,0,2,,241,,,51,53,53,2000,2000,0,1,0,60-60,,,stool,yarn,60,60,stool9,yarn9,60,40,ASTOOL7.jpg,Aballofyarn26.jpg,/static/Category_learning/Stimuli/Experimental_stims/stool/ASTOOL7.jpg,/static/Category_learning/Stimuli/Experimental_stims/yarn/Aballofyarn26.jpg,0,yarn,stool,60,60,yarn9,stool9,40,60,0,312.741,0.241
296,,confirmation,,html-keyboard-response,296,179092,0.0-1.0-55.0-1.0-0.0,0,0,2,,,,,,53,,,,,,,,,,,,,,,,,,,,,,,,,,,,,,,,314,1.259
297,,isi,,html-keyboard-response,297,179200,0.0-1.0-55.0-2.0,0,0,2,,,,,,,,,,,,,,,,,,,,,,,,,,,,,,,,,,,,,,316,2
298,,feedback,,html-keyboard-response,298,180209,0.0-1.0-55.0-3.0-0.0,0,0,2,,,,,,53,,,,,,,,,,,,,,,,,,,,,,,,,,,,,,,,317,1
299,,iti,,html-keyboard-response,299,180312,0.0-1.0-55.0-5.0,0,0,2,,,,,,,,,,,,,,,,,,,,,,,,,,,,,,,,,,,,,,319,2
300,,choice,,html-keyboard-response,300,180946,0.0-1.0-56.0-0.0,0,0,2,,630,,,51,54,54,1000,1000,0,1,0,60-80,,0,stool,bench,60,80,stool7,bench7,60,100,ASTOOL25.jpg,ACONBENCH.jpg,/static/Category_learning/Stimuli/Experimental_stims/stool/ASTOOL25.jpg,/static/Category_learning/Stimuli/Experimental_stims/bench/ACONBENCH.jpg,0,bench,stool,80,60,bench7,stool7,100,60,0,319.63,0.63
301,,confirmation,,html-keyboard-response,301,181824,0.0-1.0-56.0-1.0-0.0,0,0,2,,,,,,54,,,,,,,,,,,,,,,,,,,,,,,,,,,,,,,,320.5,0.87
302,,isi,,html-keyboard-response,302,181932,0.0-1.0-56.0-2.0,0,0,2,,,,,,,,,,,,,,,,,,,,,,,,,,,,,,,,,,,,,,321.5,1
303,,feedback,,html-keyboard-response,303,182940,0.0-1.0-56.0-3.0-0.0,0,0,2,,,,,,54,,,,,,,,,,,,,,,,,,,,,,,,,,,,,,,,322.5,1
304,,iti,,html-keyboard-response,304,183047,0.0-1.0-56.0-5.0,0,0,2,,,,,,,,,,,,,,,,,,,,,,,,,,,,,,,,,,,,,,323.5,1
305,,choice,,html-keyboard-response,305,183322,0.0-1.0-57.0-0.0,0,0,2,,271,,,51,55,55,1000,1000,0,1,1,60-60,1,,telescope,telescope,60,60,telescope12,telescope6,40,80,Junior Land and Sky Telescope.jpg,LO-telescope-89769.jpg,/static/Category_learning/Stimuli/Experimental_stims/telescope/Junior Land and Sky Telescope.jpg,/static/Category_learning/Stimuli/Experimental_stims/telescope/LO-telescope-89769.jpg,0,telescope,telescope,60,60,telescope6,telescope12,80,40,0,323.771,0.271
306,,confirmation,,html-keyboard-response,306,184562,0.0-1.0-57.0-1.0-0.0,0,0,2,,,,,,55,,,,,,,,,,,,,,,,,,,,,,,,,,,,,,,,325,1.229
307,,isi,,html-keyboard-response,307,184667,0.0-1.0-57.0-2.0,0,0,2,,,,,,,,,,,,,,,,,,,,,,,,,,,,,,,,,,,,,,326,1
308,,feedback,,html-keyboard-response,308,185675,0.0-1.0-57.0-3.0-0.0,0,0,2,,,,,,55,,,,,,,,,,,,,,,,,,,,,,,,,,,,,,,,327,1
309,,iti,,html-keyboard-response,309,185782,0.0-1.0-57.0-5.0,0,0,2,,,,,,,,,,,,,,,,,,,,,,,,,,,,,,,,,,,,,,328,1
310,,choice,,html-keyboard-response,310,185916,0.0-1.0-58.0-0.0,0,0,2,,130,,,51,56,56,3000,1000,0,1,0,40-60,,1,train,poker card,60,40,train11,poker card6,80,40,train1.jpg,22864212.thl.jpg,/static/Category_learning/Stimuli/Experimental_stims/train/train1.jpg,/static/Category_learning/Stimuli/Experimental_stims/poker card/22864212.thl.jpg,0,poker card,train,40,60,poker card6,train11,40,80,0,328.13,0.13
311,,confirmation,,html-keyboard-response,311,187293,0.0-1.0-58.0-1.0-0.0,0,0,2,,,,,,56,,,,,,,,,,,,,,,,,,,,,,,,,,,,,,,,329.5,1.37
312,,isi,,html-keyboard-response,312,187399,0.0-1.0-58.0-2.0,0,0,2,,,,,,,,,,,,,,,,,,,,,,,,,,,,,,,,,,,,,,332.5,3
313,,feedback,,html-keyboard-response,313,188407,0.0-1.0-58.0-3.0-0.0,0,0,2,,,,,,56,,,,,,,,,,,,,,,,,,,,,,,,,,,,,,,,333.5,1
314,,iti,,html-keyboard-response,314,188514,0.0-1.0-58.0-5.0,0,0,2,,,,,,,,,,,,,,,,,,,,,,,,,,,,,,,,,,,,,,334.5,1
315,,choice,,html-keyboard-response,315,188676,0.0-1.0-59.0-0.0,0,0,2,,158,,,51,57,57,1000,1500,0,1,0,80-80,,,door knob,baby carriage,80,80,door knob7,baby carriage9,60,100,doorknob2.jpg,Antique baby Carriage 7.jpg,/static/Category_learning/Stimuli/Experimental_stims/door knob/doorknob2.jpg,/static/Category_learning/Stimuli/Experimental_stims/baby carriage/Antique baby Carriage 7.jpg,0,baby carriage,door knob,80,80,baby carriage9,door knob7,100,60,0,334.658,0.158
316,,confirmation,,html-keyboard-response,316,190023,0.0-1.0-59.0-1.0-0.0,0,0,2,,,,,,57,,,,,,,,,,,,,,,,,,,,,,,,,,,,,,,,336,1.342
317,,isi,,html-keyboard-response,317,190129,0.0-1.0-59.0-2.0,0,0,2,,,,,,,,,,,,,,,,,,,,,,,,,,,,,,,,,,,,,,337,1
318,,feedback,,html-keyboard-response,318,191138,0.0-1.0-59.0-3.0-0.0,0,0,2,,,,,,57,,,,,,,,,,,,,,,,,,,,,,,,,,,,,,,,338,1
319,,iti,,html-keyboard-response,319,191243,0.0-1.0-59.0-5.0,0,0,2,,,,,,,,,,,,,,,,,,,,,,,,,,,,,,,,,,,,,,339.5,1.5
320,,choice,,html-keyboard-response,320,191656,0.0-1.0-60.0-0.0,0,0,2,,409,,,50,58,58,1500,1000,0,1,1,60-60,1,,yarn,yarn,60,60,yarn8,yarn9,40,40,smonlineyarn-285x250.jpg,Aballofyarn26.jpg,/static/Category_learning/Stimuli/Experimental_stims/yarn/smonlineyarn-285x250.jpg,/static/Category_learning/Stimuli/Experimental_stims/yarn/Aballofyarn26.jpg,1,yarn,yarn,60,60,yarn8,yarn9,40,40,0,339.909,0.409
321,,confirmation,,html-keyboard-response,321,192755,0.0-1.0-60.0-1.0-0.0,0,0,2,,,,,,58,,,,,,,,,,,,,,,,,,,,,,,,,,,,,,,,341,1.091
322,,isi,,html-keyboard-response,322,192861,0.0-1.0-60.0-2.0,0,0,2,,,,,,,,,,,,,,,,,,,,,,,,,,,,,,,,,,,,,,342.5,1.5
323,,feedback,,html-keyboard-response,323,193868,0.0-1.0-60.0-3.0-0.0,0,0,2,,,,,,58,,,,,,,,,,,,,,,,,,,,,,,,,,,,,,,,343.5,1
324,,iti,,html-keyboard-response,324,193975,0.0-1.0-60.0-5.0,0,0,2,,,,,,,,,,,,,,,,,,,,,,,,,,,,,,,,,,,,,,344.5,1
325,,choice,,html-keyboard-response,325,194695,0.0-1.0-61.0-0.0,0,0,2,,715,,,50,59,59,3500,1000,0,1,0,60-80,,0,watch,bench,60,80,watch9,bench10,40,100,mens-diamond-watches-euro-48733-ab.jpg,APARKBE16.jpg,/static/Category_learning/Stimuli/Experimental_stims/watch/mens-diamond-watches-euro-48733-ab.jpg,/static/Category_learning/Stimuli/Experimental_stims/bench/APARKBE16.jpg,1,watch,bench,60,80,watch9,bench10,40,100,0,345.215,0.715
326,,confirmation,,html-keyboard-response,326,195487,0.0-1.0-61.0-1.0-0.0,0,0,2,,,,,,59,,,,,,,,,,,,,,,,,,,,,,,,,,,,,,,,346,0.785
327,,isi,,html-keyboard-response,327,195590,0.0-1.0-61.0-2.0,0,0,2,,,,,,,,,,,,,,,,,,,,,,,,,,,,,,,,,,,,,,349.5,3.5
328,,feedback,,html-keyboard-response,328,196593,0.0-1.0-61.0-3.0-0.0,0,0,2,,,,,,59,,,,,,,,,,,,,,,,,,,,,,,,,,,,,,,,350.5,1
329,,iti,,html-keyboard-response,329,196700,0.0-1.0-61.0-5.0,0,0,2,,,,,,,,,,,,,,,,,,,,,,,,,,,,,,,,,,,,,,351.5,1
330,,choice,,html-keyboard-response,330,197409,0.0-1.0-62.0-0.0,0,0,2,,705,,,50,60,60,1500,1000,0,1,0,40-40,,,pen,necklace,40,40,pen8,necklace12,60,40,1383_1749_popup copy.jpg,necklascenew07.jpg,/static/Category_learning/Stimuli/Experimental_stims/pen/1383_1749_popup copy.jpg,/static/Category_learning/Stimuli/Experimental_stims/necklace/necklascenew07.jpg,1,pen,necklace,40,40,pen8,necklace12,60,40,0,352.205,0.705
331,,confirmation,,html-keyboard-response,331,198210,0.0-1.0-62.0-1.0-0.0,0,0,2,,,,,,60,,,,,,,,,,,,,,,,,,,,,,,,,,,,,,,,353,0.795
332,,isi,,html-keyboard-response,332,198317,0.0-1.0-62.0-2.0,0,0,2,,,,,,,,,,,,,,,,,,,,,,,,,,,,,,,,,,,,,,354.5,1.5
333,,feedback,,html-keyboard-response,333,199326,0.0-1.0-62.0-3.0-0.0,0,0,2,,,,,,60,,,,,,,,,,,,,,,,,,,,,,,,,,,,,,,,355.5,1
334,,iti,,html-keyboard-response,334,199430,0.0-1.0-62.0-5.0,0,0,2,,,,,,,,,,,,,,,,,,,,,,,,,,,,,,,,,,,,,,356.5,1
335,,block_over,,html-keyboard-response,335,243602,0.0-1.0-62.0-7.0-0.0,0,0,2,,44164,,,50,60,,,,,,,,,,,,,,,,,,,,,,,,,,,,,,,,,
336,,start_run,,html-keyboard-response,336,245006,0.0-1.0-62.0-7.0-1.0,0,0,2,,1400,,,84,,,,,,,,,,,,,,,,,,,,,,,,,,,,,,,,,,
337,,choice,,html-keyboard-response,337,246511,0.0-1.0-63.0-0.0,0,0,2,,,,,,61,65,3500,1000,0,2,0,20-60,,1,telescope,key chain,60,20,telescope4,key chain14,60,0,TELESCOPE_BLACK_GOOD_SMALL.jpg,Jif Keychain 285.jpg,/static/Category_learning/Stimuli/Experimental_stims/telescope/TELESCOPE_BLACK_GOOD_SMALL.jpg,/static/Category_learning/Stimuli/Experimental_stims/key chain/Jif Keychain 285.jpg,,,,,,,,,,1,1.5,1.5
338,,isi,,html-keyboard-response,338,246617,0.0-1.0-63.0-2.0,0,0,2,,,,,,,,,,,,,,,,,,,,,,,,,,,,,,,,,,,,,,5,3.5
339,,no_response,,html-keyboard-response,339,247624,0.0-1.0-63.0-4.0-0.0,0,0,2,,,,,,,,,,,,,,,,,,,,,,,,,,,,,,,,,,,,,,6,1
340,,iti,,html-keyboard-response,340,247748,0.0-1.0-63.0-5.0,0,0,2,,,,,,,,,,,,,,,,,,,,,,,,,,,,,,,,,,,,,,7,1
341,,choice,,html-keyboard-response,341,248108,0.0-1.0-63.1-0.1,0,0,2,,356,,,50,61,65,3500,1000,0,2,0,20-60,,1,telescope,key chain,60,20,telescope4,key chain14,60,0,TELESCOPE_BLACK_GOOD_SMALL.jpg,Jif Keychain 285.jpg,/static/Category_learning/Stimuli/Experimental_stims/telescope/TELESCOPE_BLACK_GOOD_SMALL.jpg,/static/Category_learning/Stimuli/Experimental_stims/key chain/Jif Keychain 285.jpg,1,telescope,key chain,60,20,telescope4,key chain14,60,0,0,7.356,0.356
342,,confirmation,,html-keyboard-response,342,249255,0.0-1.0-63.1-1.1-0.1,0,0,2,,,,,,61,,,,,,,,,,,,,,,,,,,,,,,,,,,,,,,,8.5,1.144
343,,isi,,html-keyboard-response,343,249361,0.0-1.0-63.1-2.1,0,0,2,,,,,,,,,,,,,,,,,,,,,,,,,,,,,,,,,,,,,,12,3.5
344,,feedback,,html-keyboard-response,344,250367,0.0-1.0-63.1-3.1-0.1,0,0,2,,,,,,61,,,,,,,,,,,,,,,,,,,,,,,,,,,,,,,,13,1
345,,iti,,html-keyboard-response,345,250472,0.0-1.0-63.1-5.1,0,0,2,,,,,,,,,,,,,,,,,,,,,,,,,,,,,,,,,,,,,,14,1
346,,choice,,html-keyboard-response,346,250797,0.0-1.0-64.0-0.0,0,0,2,,321,,,50,62,66,2000,1000,0,2,0,20-60,,0,key chain,yarn,20,60,key chain3,yarn2,20,80,Keychain_Voice_Recorder.jpg,Aballofyarn66.jpg,/static/Category_learning/Stimuli/Experimental_stims/key chain/Keychain_Voice_Recorder.jpg,/static/Category_learning/Stimuli/Experimental_stims/yarn/Aballofyarn66.jpg,1,key chain,yarn,20,60,key chain3,yarn2,20,80,0,14.321,0.321
347,,confirmation,,html-keyboard-response,347,251982,0.0-1.0-64.0-1.0-0.0,0,0,2,,,,,,62,,,,,,,,,,,,,,,,,,,,,,,,,,,,,,,,15.5,1.179
348,,isi,,html-keyboard-response,348,252086,0.0-1.0-64.0-2.0,0,0,2,,,,,,,,,,,,,,,,,,,,,,,,,,,,,,,,,,,,,,17.5,2
349,,feedback,,html-keyboard-response,349,253093,0.0-1.0-64.0-3.0-0.0,0,0,2,,,,,,62,,,,,,,,,,,,,,,,,,,,,,,,,,,,,,,,18.5,1
350,,iti,,html-keyboard-response,350,253200,0.0-1.0-64.0-5.0,0,0,2,,,,,,,,,,,,,,,,,,,,,,,,,,,,,,,,,,,,,,19.5,1
351,,choice,,html-keyboard-response,351,253251,0.0-1.0-65.0-0.0,0,0,2,,47,,,50,63,67,1000,1000,0,2,0,40-60,,0,small table,watch,40,60,small table15,watch2,60,60,ATABLE20.jpg,AL0004-03E_MED.jpg,/static/Category_learning/Stimuli/Experimental_stims/small table/ATABLE20.jpg,/static/Category_learning/Stimuli/Experimental_stims/watch/AL0004-03E_MED.jpg,1,small table,watch,40,60,small table15,watch2,60,60,0,19.547,0.047
352,,confirmation,,html-keyboard-response,352,254708,0.0-1.0-65.0-1.0-0.0,0,0,2,,,,,,63,,,,,,,,,,,,,,,,,,,,,,,,,,,,,,,,21,1.453
353,,isi,,html-keyboard-response,353,254814,0.0-1.0-65.0-2.0,0,0,2,,,,,,,,,,,,,,,,,,,,,,,,,,,,,,,,,,,,,,22,1
354,,feedback,,html-keyboard-response,354,255818,0.0-1.0-65.0-3.0-0.0,0,0,2,,,,,,63,,,,,,,,,,,,,,,,,,,,,,,,,,,,,,,,23,1
355,,iti,,html-keyboard-response,355,255924,0.0-1.0-65.0-5.0,0,0,2,,,,,,,,,,,,,,,,,,,,,,,,,,,,,,,,,,,,,,24,1
356,,choice,,html-keyboard-response,356,256469,0.0-1.0-66.0-0.0,0,0,2,,542,,,50,64,68,3500,1000,0,2,0,40-60,,1,yarn,necklace,60,40,yarn11,necklace7,60,60,Aballofpinky2.jpg,Anecklace12.jpg,/static/Category_learning/Stimuli/Experimental_stims/yarn/Aballofpinky2.jpg,/static/Category_learning/Stimuli/Experimental_stims/necklace/Anecklace12.jpg,1,yarn,necklace,60,40,yarn11,necklace7,60,60,0,24.542,0.542
357,,confirmation,,html-keyboard-response,357,257434,0.0-1.0-66.0-1.0-0.0,0,0,2,,,,,,64,,,,,,,,,,,,,,,,,,,,,,,,,,,,,,,,25.5,0.958
358,,isi,,html-keyboard-response,358,257537,0.0-1.0-66.0-2.0,0,0,2,,,,,,,,,,,,,,,,,,,,,,,,,,,,,,,,,,,,,,29,3.5
359,,feedback,,html-keyboard-response,359,258543,0.0-1.0-66.0-3.0-0.0,0,0,2,,,,,,64,,,,,,,,,,,,,,,,,,,,,,,,,,,,,,,,30,1
360,,iti,,html-keyboard-response,360,258647,0.0-1.0-66.0-5.0,0,0,2,,,,,,,,,,,,,,,,,,,,,,,,,,,,,,,,,,,,,,31,1
361,,choice,,html-keyboard-response,361,259276,0.0-1.0-67.0-0.0,0,0,2,,625,,,50,65,69,1500,1000,0,2,0,20-80,,1,bongo,hat,80,20,bongo10,hat3,60,0,22945915.thl.jpg,Astrawhat49.jpg,/static/Category_learning/Stimuli/Experimental_stims/bongo/22945915.thl.jpg,/static/Category_learning/Stimuli/Experimental_stims/hat/Astrawhat49.jpg,1,bongo,hat,80,20,bongo10,hat3,60,0,0,31.625,0.625
362,,confirmation,,html-keyboard-response,362,260159,0.0-1.0-67.0-1.0-0.0,0,0,2,,,,,,65,,,,,,,,,,,,,,,,,,,,,,,,,,,,,,,,32.5,0.875
363,,isi,,html-keyboard-response,363,260265,0.0-1.0-67.0-2.0,0,0,2,,,,,,,,,,,,,,,,,,,,,,,,,,,,,,,,,,,,,,34,1.5
364,,feedback,,html-keyboard-response,364,261270,0.0-1.0-67.0-3.0-0.0,0,0,2,,,,,,65,,,,,,,,,,,,,,,,,,,,,,,,,,,,,,,,35,1
365,,iti,,html-keyboard-response,365,261375,0.0-1.0-67.0-5.0,0,0,2,,,,,,,,,,,,,,,,,,,,,,,,,,,,,,,,,,,,,,36,1
366,,choice,,html-keyboard-response,366,262354,0.0-1.0-68.0-0.0,0,0,2,,974,,,50,66,70,1500,1500,0,2,1,60-60,1,,watch,watch,60,60,watch15,watch9,80,40,20-171-6.jpg,mens-diamond-watches-euro-48733-ab.jpg,/static/Category_learning/Stimuli/Experimental_stims/watch/20-171-6.jpg,/static/Category_learning/Stimuli/Experimental_stims/watch/mens-diamond-watches-euro-48733-ab.jpg,1,watch,watch,60,60,watch15,watch9,80,40,0,36.974,0.974
367,,confirmation,,html-keyboard-response,367,262885,0.0-1.0-68.0-1.0-0.0,0,0,2,,,,,,66,,,,,,,,,,,,,,,,,,,,,,,,,,,,,,,,37.5,0.526
368,,isi,,html-keyboard-response,368,262990,0.0-1.0-68.0-2.0,0,0,2,,,,,,,,,,,,,,,,,,,,,,,,,,,,,,,,,,,,,,39,1.5
369,,feedback,,html-keyboard-response,369,263995,0.0-1.0-68.0-3.0-0.0,0,0,2,,,,,,66,,,,,,,,,,,,,,,,,,,,,,,,,,,,,,,,40,1
370,,iti,,html-keyboard-response,370,264101,0.0-1.0-68.0-5.0,0,0,2,,,,,,,,,,,,,,,,,,,,,,,,,,,,,,,,,,,,,,41.5,1.5
371,,choice,,html-keyboard-response,371,264198,0.0-1.0-69.0-0.0,0,0,2,,93,,,50,67,71,1500,1000,0,2,1,40-40,1,,poker card,poker card,40,40,poker card12,poker card6,20,40,22865676.thl.jpg,22864212.thl.jpg,/static/Category_learning/Stimuli/Experimental_stims/poker card/22865676.thl.jpg,/static/Category_learning/Stimuli/Experimental_stims/poker card/22864212.thl.jpg,1,poker card,poker card,40,40,poker card12,poker card6,20,40,0,41.593,0.093
372,,confirmation,,html-keyboard-response,372,265610,0.0-1.0-69.0-1.0-0.0,0,0,2,,,,,,67,,,,,,,,,,,,,,,,,,,,,,,,,,,,,,,,43,1.407
373,,isi,,html-keyboard-response,373,265714,0.0-1.0-69.0-2.0,0,0,2,,,,,,,,,,,,,,,,,,,,,,,,,,,,,,,,,,,,,,44.5,1.5
374,,feedback,,html-keyboard-response,374,266720,0.0-1.0-69.0-3.0-0.0,0,0,2,,,,,,67,,,,,,,,,,,,,,,,,,,,,,,,,,,,,,,,45.5,1
375,,iti,,html-keyboard-response,375,266825,0.0-1.0-69.0-5.0,0,0,2,,,,,,,,,,,,,,,,,,,,,,,,,,,,,,,,,,,,,,46.5,1
376,,choice,,html-keyboard-response,376,267253,0.0-1.0-70.0-0.0,0,0,2,,425,,,50,68,72,1000,2000,0,2,0,20-60,,0,microscope,telescope,20,60,microscope12,telescope14,0,80,usbdigitalmicroscope1_small1.jpg,T09748dt.jpg,/static/Category_learning/Stimuli/Experimental_stims/microscope/usbdigitalmicroscope1_small1.jpg,/static/Category_learning/Stimuli/Experimental_stims/telescope/T09748dt.jpg,1,microscope,telescope,20,60,microscope12,telescope14,0,80,0,46.925,0.425
377,,confirmation,,html-keyboard-response,377,268333,0.0-1.0-70.0-1.0-0.0,0,0,2,,,,,,68,,,,,,,,,,,,,,,,,,,,,,,,,,,,,,,,48,1.075
378,,isi,,html-keyboard-response,378,268438,0.0-1.0-70.0-2.0,0,0,2,,,,,,,,,,,,,,,,,,,,,,,,,,,,,,,,,,,,,,49,1
379,,feedback,,html-keyboard-response,379,269443,0.0-1.0-70.0-3.0-0.0,0,0,2,,,,,,68,,,,,,,,,,,,,,,,,,,,,,,,,,,,,,,,50,1
380,,iti,,html-keyboard-response,380,269546,0.0-1.0-70.0-5.0,0,0,2,,,,,,,,,,,,,,,,,,,,,,,,,,,,,,,,,,,,,,52,2
381,,choice,,html-keyboard-response,381,269606,0.0-1.0-71.0-0.0,0,0,2,,56,,,50,69,73,1000,1000,0,2,0,20-80,,1,bench,hat,80,20,bench13,hat14,80,0,ABROWNBE4.jpg,Ahat136.jpg,/static/Category_learning/Stimuli/Experimental_stims/bench/ABROWNBE4.jpg,/static/Category_learning/Stimuli/Experimental_stims/hat/Ahat136.jpg,1,bench,hat,80,20,bench13,hat14,80,0,0,52.056,0.056
382,,confirmation,,html-keyboard-response,382,271057,0.0-1.0-71.0-1.0-0.0,0,0,2,,,,,,69,,,,,,,,,,,,,,,,,,,,,,,,,,,,,,,,53.5,1.444
383,,isi,,html-keyboard-response,383,271162,0.0-1.0-71.0-2.0,0,0,2,,,,,,,,,,,,,,,,,,,,,,,,,,,,,,,,,,,,,,54.5,1
384,,feedback,,html-keyboard-response,384,272168,0.0-1.0-71.0-3.0-0.0,0,0,2,,,,,,69,,,,,,,,,,,,,,,,,,,,,,,,,,,,,,,,55.5,1
385,,iti,,html-keyboard-response,385,272274,0.0-1.0-71.0-5.0,0,0,2,,,,,,,,,,,,,,,,,,,,,,,,,,,,,,,,,,,,,,56.5,1
386,,choice,,html-keyboard-response,386,272309,0.0-1.0-72.0-0.0,0,0,2,,31,,,50,70,74,1500,1000,0,2,1,80-80,1,,bench,bench,80,80,bench7,bench13,100,80,ACONBENCH.jpg,ABROWNBE4.jpg,/static/Category_learning/Stimuli/Experimental_stims/bench/ACONBENCH.jpg,/static/Category_learning/Stimuli/Experimental_stims/bench/ABROWNBE4.jpg,1,bench,bench,80,80,bench7,bench13,100,80,0,56.531,0.031
387,,confirmation,,html-keyboard-response,387,273783,0.0-1.0-72.0-1.0-0.0,0,0,2,,,,,,70,,,,,,,,,,,,,,,,,,,,,,,,,,,,,,,,58,1.469
388,,isi,,html-keyboard-response,388,273891,0.0-1.0-72.0-2.0,0,0,2,,,,,,,,,,,,,,,,,,,,,,,,,,,,,,,,,,,,,,59.5,1.5
389,,feedback,,html-keyboard-response,389,274896,0.0-1.0-72.0-3.0-0.0,0,0,2,,,,,,70,,,,,,,,,,,,,,,,,,,,,,,,,,,,,,,,60.5,1
390,,iti,,html-keyboard-response,390,275001,0.0-1.0-72.0-5.0,0,0,2,,,,,,,,,,,,,,,,,,,,,,,,,,,,,,,,,,,,,,61.5,1
391,,choice,,html-keyboard-response,391,275391,0.0-1.0-73.0-0.0,0,0,2,,386,,,50,71,75,1000,2000,0,2,0,20-20,,,motorcycle,hat,20,20,motorcycle6,hat13,40,0,motorcycle45364t4t.jpg,Ahatwithfeath.jpg,/static/Category_learning/Stimuli/Experimental_stims/motorcycle/motorcycle45364t4t.jpg,/static/Category_learning/Stimuli/Experimental_stims/hat/Ahatwithfeath.jpg,1,motorcycle,hat,20,20,motorcycle6,hat13,40,0,0,61.886,0.386
392,,confirmation,,html-keyboard-response,392,276511,0.0-1.0-73.0-1.0-0.0,0,0,2,,,,,,71,,,,,,,,,,,,,,,,,,,,,,,,,,,,,,,,63,1.114
393,,isi,,html-keyboard-response,393,276619,0.0-1.0-73.0-2.0,0,0,2,,,,,,,,,,,,,,,,,,,,,,,,,,,,,,,,,,,,,,64,1
394,,feedback,,html-keyboard-response,394,277629,0.0-1.0-73.0-3.0-0.0,0,0,2,,,,,,71,,,,,,,,,,,,,,,,,,,,,,,,,,,,,,,,65,1
395,,iti,,html-keyboard-response,395,277734,0.0-1.0-73.0-5.0,0,0,2,,,,,,,,,,,,,,,,,,,,,,,,,,,,,,,,,,,,,,67,2
396,,choice,,html-keyboard-response,396,277754,0.0-1.0-74.0-0.0,0,0,2,,16,,,50,72,76,1000,1000,0,2,0,40-80,,1,desk,patio lounge chair,80,40,desk4,patio lounge chair13,80,20,AbbeyMiniRadialBIG(1).jpg,grosfillex-bahia-resin-chaise-lounges.jpg,/static/Category_learning/Stimuli/Experimental_stims/desk/AbbeyMiniRadialBIG(1).jpg,/static/Category_learning/Stimuli/Experimental_stims/patio lounge chair/grosfillex-bahia-resin-chaise-lounges.jpg,1,desk,patio lounge chair,80,40,desk4,patio lounge chair13,80,20,0,67.016,0.016
397,,confirmation,,html-keyboard-response,397,279243,0.0-1.0-74.0-1.0-0.0,0,0,2,,,,,,72,,,,,,,,,,,,,,,,,,,,,,,,,,,,,,,,68.5,1.484
398,,isi,,html-keyboard-response,398,279349,0.0-1.0-74.0-2.0,0,0,2,,,,,,,,,,,,,,,,,,,,,,,,,,,,,,,,,,,,,,69.5,1
399,,feedback,,html-keyboard-response,399,280356,0.0-1.0-74.0-3.0-0.0,0,0,2,,,,,,72,,,,,,,,,,,,,,,,,,,,,,,,,,,,,,,,70.5,1
400,,iti,,html-keyboard-response,400,280463,0.0-1.0-74.0-5.0,0,0,2,,,,,,,,,,,,,,,,,,,,,,,,,,,,,,,,,,,,,,71.5,1
401,,choice,,html-keyboard-response,401,280768,0.0-1.0-75.0-0.0,0,0,2,,300,,,50,73,77,2000,1500,0,2,1,20-20,1,,motorcycle,motorcycle,20,20,motorcycle6,motorcycle7,40,20,motorcycle45364t4t.jpg,MotoSmall.jpg,/static/Category_learning/Stimuli/Experimental_stims/motorcycle/motorcycle45364t4t.jpg,/static/Category_learning/Stimuli/Experimental_stims/motorcycle/MotoSmall.jpg,1,motorcycle,motorcycle,20,20,motorcycle6,motorcycle7,40,20,0,71.8,0.3
402,,confirmation,,html-keyboard-response,402,281971,0.0-1.0-75.0-1.0-0.0,0,0,2,,,,,,73,,,,,,,,,,,,,,,,,,,,,,,,,,,,,,,,73,1.2
403,,isi,,html-keyboard-response,403,282077,0.0-1.0-75.0-2.0,0,0,2,,,,,,,,,,,,,,,,,,,,,,,,,,,,,,,,,,,,,,75,2
404,,feedback,,html-keyboard-response,404,283084,0.0-1.0-75.0-3.0-0.0,0,0,2,,,,,,73,,,,,,,,,,,,,,,,,,,,,,,,,,,,,,,,76,1
405,,iti,,html-keyboard-response,405,283190,0.0-1.0-75.0-5.0,0,0,2,,,,,,,,,,,,,,,,,,,,,,,,,,,,,,,,,,,,,,77.5,1.5
406,,choice,,html-keyboard-response,406,283576,0.0-1.0-76.0-0.0,0,0,2,,381,,,50,74,78,2000,1000,0,2,0,20-40,,1,patio lounge chair,hat,40,20,patio lounge chair7,hat2,40,40,lg_Serenity_Riviera[1].jpg,Ahatwithfeat7.jpg,/static/Category_learning/Stimuli/Experimental_stims/patio lounge chair/lg_Serenity_Riviera[1].jpg,/static/Category_learning/Stimuli/Experimental_stims/hat/Ahatwithfeat7.jpg,1,patio lounge chair,hat,40,20,patio lounge chair7,hat2,40,40,0,77.881,0.381
407,,confirmation,,html-keyboard-response,407,284701,0.0-1.0-76.0-1.0-0.0,0,0,2,,,,,,74,,,,,,,,,,,,,,,,,,,,,,,,,,,,,,,,79,1.119
408,,isi,,html-keyboard-response,408,284804,0.0-1.0-76.0-2.0,0,0,2,,,,,,,,,,,,,,,,,,,,,,,,,,,,,,,,,,,,,,81,2
409,,feedback,,html-keyboard-response,409,285810,0.0-1.0-76.0-3.0-0.0,0,0,2,,,,,,74,,,,,,,,,,,,,,,,,,,,,,,,,,,,,,,,82,1
410,,iti,,html-keyboard-response,410,285916,0.0-1.0-76.0-5.0,0,0,2,,,,,,,,,,,,,,,,,,,,,,,,,,,,,,,,,,,,,,83,1
411,,choice,,html-keyboard-response,411,286275,0.0-1.0-77.0-0.0,0,0,2,,355,,,50,75,79,1500,2000,0,2,1,80-80,0,,door knob,desk,80,80,door knob13,desk4,100,80,500_CLAWALBC.jpg,AbbeyMiniRadialBIG(1).jpg,/static/Category_learning/Stimuli/Experimental_stims/door knob/500_CLAWALBC.jpg,/static/Category_learning/Stimuli/Experimental_stims/desk/AbbeyMiniRadialBIG(1).jpg,1,door knob,desk,80,80,door knob13,desk4,100,80,0,83.355,0.355
412,,confirmation,,html-keyboard-response,412,287429,0.0-1.0-77.0-1.0-0.0,0,0,2,,,,,,75,,,,,,,,,,,,,,,,,,,,,,,,,,,,,,,,84.5,1.145
413,,isi,,html-keyboard-response,413,287535,0.0-1.0-77.0-2.0,0,0,2,,,,,,,,,,,,,,,,,,,,,,,,,,,,,,,,,,,,,,86,1.5
414,,feedback,,html-keyboard-response,414,288544,0.0-1.0-77.0-3.0-0.0,0,0,2,,,,,,75,,,,,,,,,,,,,,,,,,,,,,,,,,,,,,,,87,1
415,,iti,,html-keyboard-response,415,288648,0.0-1.0-77.0-5.0,0,0,2,,,,,,,,,,,,,,,,,,,,,,,,,,,,,,,,,,,,,,89,2
416,,choice,,html-keyboard-response,416,290158,0.0-1.0-78.0-0.0,0,0,2,,,,,,76,80,1000,1500,0,2,0,20-80,,0,hat,flashlight,20,80,hat9,flashlight7,40,60,Astrawhat44.jpg,11900.jpg,/static/Category_learning/Stimuli/Experimental_stims/hat/Astrawhat44.jpg,/static/Category_learning/Stimuli/Experimental_stims/flashlight/11900.jpg,,,,,,,,,,1,90.5,1.5
417,,isi,,html-keyboard-response,417,290264,0.0-1.0-78.0-2.0,0,0,2,,,,,,,,,,,,,,,,,,,,,,,,,,,,,,,,,,,,,,91.5,1
418,,no_response,,html-keyboard-response,418,291269,0.0-1.0-78.0-4.0-0.0,0,0,2,,,,,,,,,,,,,,,,,,,,,,,,,,,,,,,,,,,,,,92.5,1
419,,iti,,html-keyboard-response,419,291394,0.0-1.0-78.0-5.0,0,0,2,,,,,,,,,,,,,,,,,,,,,,,,,,,,,,,,,,,,,,94,1.5
420,,choice,,html-keyboard-response,420,292902,0.0-1.0-78.1-0.1,0,0,2,,,,,,76,80,1000,1500,0,2,0,20-80,,0,hat,flashlight,20,80,hat9,flashlight7,40,60,Astrawhat44.jpg,11900.jpg,/static/Category_learning/Stimuli/Experimental_stims/hat/Astrawhat44.jpg,/static/Category_learning/Stimuli/Experimental_stims/flashlight/11900.jpg,,,,,,,,,,1,95.5,1.5
421,,isi,,html-keyboard-response,421,293007,0.0-1.0-78.1-2.1,0,0,2,,,,,,,,,,,,,,,,,,,,,,,,,,,,,,,,,,,,,,96.5,1
422,,no_response,,html-keyboard-response,422,294014,0.0-1.0-78.1-4.1-0.1,0,0,2,,,,,,,,,,,,,,,,,,,,,,,,,,,,,,,,,,,,,,97.5,1
423,,iti,,html-keyboard-response,423,294133,0.0-1.0-78.1-5.1,0,0,2,,,,,,,,,,,,,,,,,,,,,,,,,,,,,,,,,,,,,,99,1.5
424,,choice,,html-keyboard-response,424,295641,0.0-1.0-78.2-0.2,0,0,2,,,,,,76,80,1000,1500,0,2,0,20-80,,0,hat,flashlight,20,80,hat9,flashlight7,40,60,Astrawhat44.jpg,11900.jpg,/static/Category_learning/Stimuli/Experimental_stims/hat/Astrawhat44.jpg,/static/Category_learning/Stimuli/Experimental_stims/flashlight/11900.jpg,,,,,,,,,,1,100.5,1.5
425,,isi,,html-keyboard-response,425,295746,0.0-1.0-78.2-2.2,0,0,2,,,,,,,,,,,,,,,,,,,,,,,,,,,,,,,,,,,,,,101.5,1
426,,no_response,,html-keyboard-response,426,296752,0.0-1.0-78.2-4.2-0.2,0,0,2,,,,,,,,,,,,,,,,,,,,,,,,,,,,,,,,,,,,,,102.5,1
427,,iti,,html-keyboard-response,427,296873,0.0-1.0-78.2-5.2,0,0,2,,,,,,,,,,,,,,,,,,,,,,,,,,,,,,,,,,,,,,104,1.5
428,,choice,,html-keyboard-response,428,298382,0.0-1.0-78.3-0.3,0,0,2,,,,,,76,80,1000,1500,0,2,0,20-80,,0,hat,flashlight,20,80,hat9,flashlight7,40,60,Astrawhat44.jpg,11900.jpg,/static/Category_learning/Stimuli/Experimental_stims/hat/Astrawhat44.jpg,/static/Category_learning/Stimuli/Experimental_stims/flashlight/11900.jpg,,,,,,,,,,1,105.5,1.5
429,,isi,,html-keyboard-response,429,298489,0.0-1.0-78.3-2.3,0,0,2,,,,,,,,,,,,,,,,,,,,,,,,,,,,,,,,,,,,,,106.5,1
430,,no_response,,html-keyboard-response,430,299496,0.0-1.0-78.3-4.3-0.3,0,0,2,,,,,,,,,,,,,,,,,,,,,,,,,,,,,,,,,,,,,,107.5,1
431,,iti,,html-keyboard-response,431,299617,0.0-1.0-78.3-5.3,0,0,2,,,,,,,,,,,,,,,,,,,,,,,,,,,,,,,,,,,,,,109,1.5
432,,choice,,html-keyboard-response,432,301126,0.0-1.0-78.4-0.4,0,0,2,,,,,,76,80,1000,1500,0,2,0,20-80,,0,hat,flashlight,20,80,hat9,flashlight7,40,60,Astrawhat44.jpg,11900.jpg,/static/Category_learning/Stimuli/Experimental_stims/hat/Astrawhat44.jpg,/static/Category_learning/Stimuli/Experimental_stims/flashlight/11900.jpg,,,,,,,,,,1,110.5,1.5
433,,isi,,html-keyboard-response,433,301231,0.0-1.0-78.4-2.4,0,0,2,,,,,,,,,,,,,,,,,,,,,,,,,,,,,,,,,,,,,,111.5,1
434,,no_response,,html-keyboard-response,434,302235,0.0-1.0-78.4-4.4-0.4,0,0,2,,,,,,,,,,,,,,,,,,,,,,,,,,,,,,,,,,,,,,112.5,1
435,,iti,,html-keyboard-response,435,302356,0.0-1.0-78.4-5.4,0,0,2,,,,,,,,,,,,,,,,,,,,,,,,,,,,,,,,,,,,,,114,1.5
436,,choice,,html-keyboard-response,436,303860,0.0-1.0-78.5-0.5,0,0,2,,,,,,76,80,1000,1500,0,2,0,20-80,,0,hat,flashlight,20,80,hat9,flashlight7,40,60,Astrawhat44.jpg,11900.jpg,/static/Category_learning/Stimuli/Experimental_stims/hat/Astrawhat44.jpg,/static/Category_learning/Stimuli/Experimental_stims/flashlight/11900.jpg,,,,,,,,,,1,115.5,1.5
437,,isi,,html-keyboard-response,437,303968,0.0-1.0-78.5-2.5,0,0,2,,,,,,,,,,,,,,,,,,,,,,,,,,,,,,,,,,,,,,116.5,1
438,,no_response,,html-keyboard-response,438,304972,0.0-1.0-78.5-4.5-0.5,0,0,2,,,,,,,,,,,,,,,,,,,,,,,,,,,,,,,,,,,,,,117.5,1
439,,iti,,html-keyboard-response,439,305094,0.0-1.0-78.5-5.5,0,0,2,,,,,,,,,,,,,,,,,,,,,,,,,,,,,,,,,,,,,,119,1.5
440,,choice,,html-keyboard-response,440,306601,0.0-1.0-78.6-0.6,0,0,2,,,,,,76,80,1000,1500,0,2,0,20-80,,0,hat,flashlight,20,80,hat9,flashlight7,40,60,Astrawhat44.jpg,11900.jpg,/static/Category_learning/Stimuli/Experimental_stims/hat/Astrawhat44.jpg,/static/Category_learning/Stimuli/Experimental_stims/flashlight/11900.jpg,,,,,,,,,,1,120.5,1.5
441,,isi,,html-keyboard-response,441,306706,0.0-1.0-78.6-2.6,0,0,2,,,,,,,,,,,,,,,,,,,,,,,,,,,,,,,,,,,,,,121.5,1
442,,no_response,,html-keyboard-response,442,307708,0.0-1.0-78.6-4.6-0.6,0,0,2,,,,,,,,,,,,,,,,,,,,,,,,,,,,,,,,,,,,,,122.5,1
443,,iti,,html-keyboard-response,443,307825,0.0-1.0-78.6-5.6,0,0,2,,,,,,,,,,,,,,,,,,,,,,,,,,,,,,,,,,,,,,124,1.5
444,,choice,,html-keyboard-response,444,309330,0.0-1.0-78.7-0.7,0,0,2,,,,,,76,80,1000,1500,0,2,0,20-80,,0,hat,flashlight,20,80,hat9,flashlight7,40,60,Astrawhat44.jpg,11900.jpg,/static/Category_learning/Stimuli/Experimental_stims/hat/Astrawhat44.jpg,/static/Category_learning/Stimuli/Experimental_stims/flashlight/11900.jpg,,,,,,,,,,1,125.5,1.5
445,,isi,,html-keyboard-response,445,309435,0.0-1.0-78.7-2.7,0,0,2,,,,,,,,,,,,,,,,,,,,,,,,,,,,,,,,,,,,,,126.5,1
446,,no_response,,html-keyboard-response,446,310444,0.0-1.0-78.7-4.7-0.7,0,0,2,,,,,,,,,,,,,,,,,,,,,,,,,,,,,,,,,,,,,,127.5,1
447,,iti,,html-keyboard-response,447,310563,0.0-1.0-78.7-5.7,0,0,2,,,,,,,,,,,,,,,,,,,,,,,,,,,,,,,,,,,,,,129,1.5
448,,choice,,html-keyboard-response,448,311501,0.0-1.0-78.8-0.8,0,0,2,,933,,,50,76,80,1000,1500,0,2,0,20-80,,0,hat,flashlight,20,80,hat9,flashlight7,40,60,Astrawhat44.jpg,11900.jpg,/static/Category_learning/Stimuli/Experimental_stims/hat/Astrawhat44.jpg,/static/Category_learning/Stimuli/Experimental_stims/flashlight/11900.jpg,1,hat,flashlight,20,80,hat9,flashlight7,40,60,0,129.933,0.933
449,,confirmation,,html-keyboard-response,449,312078,0.0-1.0-78.8-1.8-0.8,0,0,2,,,,,,76,,,,,,,,,,,,,,,,,,,,,,,,,,,,,,,,130.5,0.567
450,,isi,,html-keyboard-response,450,312184,0.0-1.0-78.8-2.8,0,0,2,,,,,,,,,,,,,,,,,,,,,,,,,,,,,,,,,,,,,,131.5,1
451,,feedback,,html-keyboard-response,451,313191,0.0-1.0-78.8-3.8-0.8,0,0,2,,,,,,76,,,,,,,,,,,,,,,,,,,,,,,,,,,,,,,,132.5,1
452,,iti,,html-keyboard-response,452,313294,0.0-1.0-78.8-5.8,0,0,2,,,,,,,,,,,,,,,,,,,,,,,,,,,,,,,,,,,,,,134,1.5
453,,choice,,html-keyboard-response,453,313336,0.0-1.0-79.0-0.0,0,0,2,,38,,,50,77,81,2000,1500,0,2,0,40-60,,1,telescope,sofa,60,40,telescope2,sofa15,60,40,Brass-telescope-60700.jpg,APEACHLOV.jpg,/static/Category_learning/Stimuli/Experimental_stims/telescope/Brass-telescope-60700.jpg,/static/Category_learning/Stimuli/Experimental_stims/sofa/APEACHLOV.jpg,1,telescope,sofa,60,40,telescope2,sofa15,60,40,0,134.038,0.038
454,,confirmation,,html-keyboard-response,454,314808,0.0-1.0-79.0-1.0-0.0,0,0,2,,,,,,77,,,,,,,,,,,,,,,,,,,,,,,,,,,,,,,,135.5,1.462
455,,isi,,html-keyboard-response,455,314910,0.0-1.0-79.0-2.0,0,0,2,,,,,,,,,,,,,,,,,,,,,,,,,,,,,,,,,,,,,,137.5,2
456,,feedback,,html-keyboard-response,456,315918,0.0-1.0-79.0-3.0-0.0,0,0,2,,,,,,77,,,,,,,,,,,,,,,,,,,,,,,,,,,,,,,,138.5,1
457,,iti,,html-keyboard-response,457,316024,0.0-1.0-79.0-5.0,0,0,2,,,,,,,,,,,,,,,,,,,,,,,,,,,,,,,,,,,,,,140,1.5
458,,choice,,html-keyboard-response,458,316225,0.0-1.0-80.0-0.0,0,0,2,,197,,,50,78,82,2000,1000,0,2,0,20-60,,1,train,makeup compact,60,20,train2,makeup compact15,80,40,iron_train.jpg,05086681402.jpg,/static/Category_learning/Stimuli/Experimental_stims/train/iron_train.jpg,/static/Category_learning/Stimuli/Experimental_stims/makeup compact/05086681402.jpg,1,train,makeup compact,60,20,train2,makeup compact15,80,40,0,140.197,0.197
459,,confirmation,,html-keyboard-response,459,317535,0.0-1.0-80.0-1.0-0.0,0,0,2,,,,,,78,,,,,,,,,,,,,,,,,,,,,,,,,,,,,,,,141.5,1.303
460,,isi,,html-keyboard-response,460,317640,0.0-1.0-80.0-2.0,0,0,2,,,,,,,,,,,,,,,,,,,,,,,,,,,,,,,,,,,,,,143.5,2
461,,feedback,,html-keyboard-response,461,318646,0.0-1.0-80.0-3.0-0.0,0,0,2,,,,,,78,,,,,,,,,,,,,,,,,,,,,,,,,,,,,,,,144.5,1
462,,iti,,html-keyboard-response,462,318751,0.0-1.0-80.0-5.0,0,0,2,,,,,,,,,,,,,,,,,,,,,,,,,,,,,,,,,,,,,,145.5,1
463,,choice,,html-keyboard-response,463,318802,0.0-1.0-81.0-0.0,0,0,2,,46,,,50,79,83,3500,1000,0,2,0,40-40,,,sofa,power strip,40,40,sofa4,power strip11,20,60,ALOVSEA15.jpg,41Bw7Tl1G7L._AA262_.jpg,/static/Category_learning/Stimuli/Experimental_stims/sofa/ALOVSEA15.jpg,/static/Category_learning/Stimuli/Experimental_stims/power strip/41Bw7Tl1G7L._AA262_.jpg,1,sofa,power strip,40,40,sofa4,power strip11,20,60,0,145.546,0.046
464,,confirmation,,html-keyboard-response,464,320262,0.0-1.0-81.0-1.0-0.0,0,0,2,,,,,,79,,,,,,,,,,,,,,,,,,,,,,,,,,,,,,,,147,1.454
465,,isi,,html-keyboard-response,465,320364,0.0-1.0-81.0-2.0,0,0,2,,,,,,,,,,,,,,,,,,,,,,,,,,,,,,,,,,,,,,150.5,3.5
466,,feedback,,html-keyboard-response,466,321368,0.0-1.0-81.0-3.0-0.0,0,0,2,,,,,,79,,,,,,,,,,,,,,,,,,,,,,,,,,,,,,,,151.5,1
467,,iti,,html-keyboard-response,467,321476,0.0-1.0-81.0-5.0,0,0,2,,,,,,,,,,,,,,,,,,,,,,,,,,,,,,,,,,,,,,152.5,1
468,,choice,,html-keyboard-response,468,321984,0.0-1.0-82.0-0.0,0,0,2,,505,,,50,80,84,1500,1000,0,2,0,20-80,,0,hammer,bongo,20,80,hammer2,bongo3,0,100,hammer04.jpg,26390697.thl.jpg,/static/Category_learning/Stimuli/Experimental_stims/hammer/hammer04.jpg,/static/Category_learning/Stimuli/Experimental_stims/bongo/26390697.thl.jpg,1,hammer,bongo,20,80,hammer2,bongo3,0,100,0,153.005,0.505
469,,confirmation,,html-keyboard-response,469,322984,0.0-1.0-82.0-1.0-0.0,0,0,2,,,,,,80,,,,,,,,,,,,,,,,,,,,,,,,,,,,,,,,154,0.995
470,,isi,,html-keyboard-response,470,323089,0.0-1.0-82.0-2.0,0,0,2,,,,,,,,,,,,,,,,,,,,,,,,,,,,,,,,,,,,,,155.5,1.5
471,,feedback,,html-keyboard-response,471,324095,0.0-1.0-82.0-3.0-0.0,0,0,2,,,,,,80,,,,,,,,,,,,,,,,,,,,,,,,,,,,,,,,156.5,1
472,,iti,,html-keyboard-response,472,324200,0.0-1.0-82.0-5.0,0,0,2,,,,,,,,,,,,,,,,,,,,,,,,,,,,,,,,,,,,,,157.5,1
473,,choice,,html-keyboard-response,473,324906,0.0-1.0-83.0-0.0,0,0,2,,702,,,50,81,85,1500,1000,0,2,0,40-60,,1,trumpet,power strip,60,40,trumpet10,power strip15,60,20,trumpet2.jpg,31oz6aGZN7L._AA262_.jpg,/static/Category_learning/Stimuli/Experimental_stims/trumpet/trumpet2.jpg,/static/Category_learning/Stimuli/Experimental_stims/power strip/31oz6aGZN7L._AA262_.jpg,1,trumpet,power strip,60,40,trumpet10,power strip15,60,20,0,158.202,0.702
474,,confirmation,,html-keyboard-response,474,325713,0.0-1.0-83.0-1.0-0.0,0,0,2,,,,,,81,,,,,,,,,,,,,,,,,,,,,,,,,,,,,,,,159,0.798
475,,isi,,html-keyboard-response,475,325818,0.0-1.0-83.0-2.0,0,0,2,,,,,,,,,,,,,,,,,,,,,,,,,,,,,,,,,,,,,,160.5,1.5
476,,feedback,,html-keyboard-response,476,326825,0.0-1.0-83.0-3.0-0.0,0,0,2,,,,,,81,,,,,,,,,,,,,,,,,,,,,,,,,,,,,,,,161.5,1
477,,iti,,html-keyboard-response,477,326933,0.0-1.0-83.0-5.0,0,0,2,,,,,,,,,,,,,,,,,,,,,,,,,,,,,,,,,,,,,,162.5,1
478,,choice,,html-keyboard-response,478,326985,0.0-1.0-84.0-0.0,0,0,2,,48,,,50,82,86,1500,2000,0,2,1,60-60,1,,train,train,60,60,train6,train2,40,80,train9.jpg,iron_train.jpg,/static/Category_learning/Stimuli/Experimental_stims/train/train9.jpg,/static/Category_learning/Stimuli/Experimental_stims/train/iron_train.jpg,1,train,train,60,60,train6,train2,40,80,0,162.548,0.048
479,,confirmation,,html-keyboard-response,479,328442,0.0-1.0-84.0-1.0-0.0,0,0,2,,,,,,82,,,,,,,,,,,,,,,,,,,,,,,,,,,,,,,,164,1.452
480,,isi,,html-keyboard-response,480,328546,0.0-1.0-84.0-2.0,0,0,2,,,,,,,,,,,,,,,,,,,,,,,,,,,,,,,,,,,,,,165.5,1.5
481,,feedback,,html-keyboard-response,481,329553,0.0-1.0-84.0-3.0-0.0,0,0,2,,,,,,82,,,,,,,,,,,,,,,,,,,,,,,,,,,,,,,,166.5,1
482,,iti,,html-keyboard-response,482,329661,0.0-1.0-84.0-5.0,0,0,2,,,,,,,,,,,,,,,,,,,,,,,,,,,,,,,,,,,,,,168.5,2
483,,choice,,html-keyboard-response,483,330280,0.0-1.0-85.0-0.0,0,0,2,,615,,,50,83,87,1500,1500,0,2,1,60-60,1,,telescope,telescope,60,60,telescope4,telescope2,60,60,TELESCOPE_BLACK_GOOD_SMALL.jpg,Brass-telescope-60700.jpg,/static/Category_learning/Stimuli/Experimental_stims/telescope/TELESCOPE_BLACK_GOOD_SMALL.jpg,/static/Category_learning/Stimuli/Experimental_stims/telescope/Brass-telescope-60700.jpg,1,telescope,telescope,60,60,telescope4,telescope2,60,60,0,169.115,0.615
484,,confirmation,,html-keyboard-response,484,331168,0.0-1.0-85.0-1.0-0.0,0,0,2,,,,,,83,,,,,,,,,,,,,,,,,,,,,,,,,,,,,,,,170,0.885
485,,isi,,html-keyboard-response,485,331273,0.0-1.0-85.0-2.0,0,0,2,,,,,,,,,,,,,,,,,,,,,,,,,,,,,,,,,,,,,,171.5,1.5
486,,feedback,,html-keyboard-response,486,332281,0.0-1.0-85.0-3.0-0.0,0,0,2,,,,,,83,,,,,,,,,,,,,,,,,,,,,,,,,,,,,,,,172.5,1
487,,iti,,html-keyboard-response,487,332390,0.0-1.0-85.0-5.0,0,0,2,,,,,,,,,,,,,,,,,,,,,,,,,,,,,,,,,,,,,,174,1.5
488,,choice,,html-keyboard-response,488,333896,0.0-1.0-86.0-0.0,0,0,2,,,,,,84,88,1000,1500,0,2,0,20-20,,,key chain,motorcycle,20,20,key chain13,motorcycle14,0,20,Fancy_Liquid_Column_Shape_Key_Ring_with_Floater.jpg,motorcycle11.jpg,/static/Category_learning/Stimuli/Experimental_stims/key chain/Fancy_Liquid_Column_Shape_Key_Ring_with_Floater.jpg,/static/Category_learning/Stimuli/Experimental_stims/motorcycle/motorcycle11.jpg,,,,,,,,,,1,175.5,1.5
489,,isi,,html-keyboard-response,489,333999,0.0-1.0-86.0-2.0,0,0,2,,,,,,,,,,,,,,,,,,,,,,,,,,,,,,,,,,,,,,176.5,1
490,,no_response,,html-keyboard-response,490,335002,0.0-1.0-86.0-4.0-0.0,0,0,2,,,,,,,,,,,,,,,,,,,,,,,,,,,,,,,,,,,,,,177.5,1
491,,iti,,html-keyboard-response,491,335123,0.0-1.0-86.0-5.0,0,0,2,,,,,,,,,,,,,,,,,,,,,,,,,,,,,,,,,,,,,,179,1.5
492,,choice,,html-keyboard-response,492,335756,0.0-1.0-86.1-0.1,0,0,2,,629,,,50,84,88,1000,1500,0,2,0,20-20,,,key chain,motorcycle,20,20,key chain13,motorcycle14,0,20,Fancy_Liquid_Column_Shape_Key_Ring_with_Floater.jpg,motorcycle11.jpg,/static/Category_learning/Stimuli/Experimental_stims/key chain/Fancy_Liquid_Column_Shape_Key_Ring_with_Floater.jpg,/static/Category_learning/Stimuli/Experimental_stims/motorcycle/motorcycle11.jpg,1,key chain,motorcycle,20,20,key chain13,motorcycle14,0,20,0,179.629,0.629
493,,confirmation,,html-keyboard-response,493,336631,0.0-1.0-86.1-1.1-0.1,0,0,2,,,,,,84,,,,,,,,,,,,,,,,,,,,,,,,,,,,,,,,180.5,0.871
494,,isi,,html-keyboard-response,494,336734,0.0-1.0-86.1-2.1,0,0,2,,,,,,,,,,,,,,,,,,,,,,,,,,,,,,,,,,,,,,181.5,1
495,,feedback,,html-keyboard-response,495,337741,0.0-1.0-86.1-3.1-0.1,0,0,2,,,,,,84,,,,,,,,,,,,,,,,,,,,,,,,,,,,,,,,182.5,1
496,,iti,,html-keyboard-response,496,337850,0.0-1.0-86.1-5.1,0,0,2,,,,,,,,,,,,,,,,,,,,,,,,,,,,,,,,,,,,,,184,1.5
497,,choice,,html-keyboard-response,497,338680,0.0-1.0-87.0-0.0,0,0,2,,826,,,50,85,89,2000,2000,0,2,0,40-80,,0,small table,fan,40,80,small table14,fan11,40,80,Awoodtable13.jpg,n_sf.jpg,/static/Category_learning/Stimuli/Experimental_stims/small table/Awoodtable13.jpg,/static/Category_learning/Stimuli/Experimental_stims/fan/n_sf.jpg,1,small table,fan,40,80,small table14,fan11,40,80,0,184.826,0.826
498,,confirmation,,html-keyboard-response,498,339359,0.0-1.0-87.0-1.0-0.0,0,0,2,,,,,,85,,,,,,,,,,,,,,,,,,,,,,,,,,,,,,,,185.5,0.674
499,,isi,,html-keyboard-response,499,339464,0.0-1.0-87.0-2.0,0,0,2,,,,,,,,,,,,,,,,,,,,,,,,,,,,,,,,,,,,,,187.5,2
500,,feedback,,html-keyboard-response,500,340469,0.0-1.0-87.0-3.0-0.0,0,0,2,,,,,,85,,,,,,,,,,,,,,,,,,,,,,,,,,,,,,,,188.5,1
501,,iti,,html-keyboard-response,501,340576,0.0-1.0-87.0-5.0,0,0,2,,,,,,,,,,,,,,,,,,,,,,,,,,,,,,,,,,,,,,190.5,2
502,,choice,,html-keyboard-response,502,342083,0.0-1.0-88.0-0.0,0,0,2,,,,,,86,90,2000,3500,0,2,0,40-80,,1,baby carriage,patio lounge chair,80,40,baby carriage1,patio lounge chair6,100,40,babycarriage16.jpg,Lounge_Chair_with_Pillow.jpg,/static/Category_learning/Stimuli/Experimental_stims/baby carriage/babycarriage16.jpg,/static/Category_learning/Stimuli/Experimental_stims/patio lounge chair/Lounge_Chair_with_Pillow.jpg,,,,,,,,,,1,192,1.5
503,,isi,,html-keyboard-response,503,342188,0.0-1.0-88.0-2.0,0,0,2,,,,,,,,,,,,,,,,,,,,,,,,,,,,,,,,,,,,,,194,2
504,,no_response,,html-keyboard-response,504,343194,0.0-1.0-88.0-4.0-0.0,0,0,2,,,,,,,,,,,,,,,,,,,,,,,,,,,,,,,,,,,,,,195,1
505,,iti,,html-keyboard-response,505,343317,0.0-1.0-88.0-5.0,0,0,2,,,,,,,,,,,,,,,,,,,,,,,,,,,,,,,,,,,,,,198.5,3.5
506,,choice,,html-keyboard-response,506,344209,0.0-1.0-88.1-0.1,0,0,2,,888,,,50,86,90,2000,3500,0,2,0,40-80,,1,baby carriage,patio lounge chair,80,40,baby carriage1,patio lounge chair6,100,40,babycarriage16.jpg,Lounge_Chair_with_Pillow.jpg,/static/Category_learning/Stimuli/Experimental_stims/baby carriage/babycarriage16.jpg,/static/Category_learning/Stimuli/Experimental_stims/patio lounge chair/Lounge_Chair_with_Pillow.jpg,1,baby carriage,patio lounge chair,80,40,baby carriage1,patio lounge chair6,100,40,0,199.388,0.888
507,,confirmation,,html-keyboard-response,507,344828,0.0-1.0-88.1-1.1-0.1,0,0,2,,,,,,86,,,,,,,,,,,,,,,,,,,,,,,,,,,,,,,,200,0.612
508,,isi,,html-keyboard-response,508,344933,0.0-1.0-88.1-2.1,0,0,2,,,,,,,,,,,,,,,,,,,,,,,,,,,,,,,,,,,,,,202,2
509,,feedback,,html-keyboard-response,509,345942,0.0-1.0-88.1-3.1-0.1,0,0,2,,,,,,86,,,,,,,,,,,,,,,,,,,,,,,,,,,,,,,,203,1
510,,iti,,html-keyboard-response,510,346049,0.0-1.0-88.1-5.1,0,0,2,,,,,,,,,,,,,,,,,,,,,,,,,,,,,,,,,,,,,,206.5,3.5
511,,choice,,html-keyboard-response,511,346961,0.0-1.0-89.0-0.0,0,0,2,,908,,,50,87,91,1000,2000,0,2,0,40-80,,0,patio lounge chair,bowl,40,80,patio lounge chair10,bowl2,20,100,51831.jpg,AMIXBOWL2.jpg,/static/Category_learning/Stimuli/Experimental_stims/patio lounge chair/51831.jpg,/static/Category_learning/Stimuli/Experimental_stims/bowl/AMIXBOWL2.jpg,1,patio lounge chair,bowl,40,80,patio lounge chair10,bowl2,20,100,0,207.408,0.908
512,,confirmation,,html-keyboard-response,512,347561,0.0-1.0-89.0-1.0-0.0,0,0,2,,,,,,87,,,,,,,,,,,,,,,,,,,,,,,,,,,,,,,,208,0.592
513,,isi,,html-keyboard-response,513,347665,0.0-1.0-89.0-2.0,0,0,2,,,,,,,,,,,,,,,,,,,,,,,,,,,,,,,,,,,,,,209,1
514,,feedback,,html-keyboard-response,514,348671,0.0-1.0-89.0-3.0-0.0,0,0,2,,,,,,87,,,,,,,,,,,,,,,,,,,,,,,,,,,,,,,,210,1
515,,iti,,html-keyboard-response,515,348776,0.0-1.0-89.0-5.0,0,0,2,,,,,,,,,,,,,,,,,,,,,,,,,,,,,,,,,,,,,,212,2
516,,choice,,html-keyboard-response,516,349574,0.0-1.0-90.0-0.0,0,0,2,,794,,,50,88,92,1500,1500,0,2,0,60-80,,0,tent,dresser,60,80,tent12,dresser10,40,60,31316-AZU_m.jpg,ADRESSE14.jpg,/static/Category_learning/Stimuli/Experimental_stims/tent/31316-AZU_m.jpg,/static/Category_learning/Stimuli/Experimental_stims/dresser/ADRESSE14.jpg,1,tent,dresser,60,80,tent12,dresser10,40,60,0,212.794,0.794
517,,confirmation,,html-keyboard-response,517,350288,0.0-1.0-90.0-1.0-0.0,0,0,2,,,,,,88,,,,,,,,,,,,,,,,,,,,,,,,,,,,,,,,213.5,0.706
518,,isi,,html-keyboard-response,518,350394,0.0-1.0-90.0-2.0,0,0,2,,,,,,,,,,,,,,,,,,,,,,,,,,,,,,,,,,,,,,215,1.5
519,,feedback,,html-keyboard-response,519,351400,0.0-1.0-90.0-3.0-0.0,0,0,2,,,,,,88,,,,,,,,,,,,,,,,,,,,,,,,,,,,,,,,216,1
520,,iti,,html-keyboard-response,520,351506,0.0-1.0-90.0-5.0,0,0,2,,,,,,,,,,,,,,,,,,,,,,,,,,,,,,,,,,,,,,217.5,1.5
521,,choice,,html-keyboard-response,521,351787,0.0-1.0-91.0-0.0,0,0,2,,278,,,50,89,93,1000,1000,0,2,1,40-40,1,,small table,small table,40,40,small table15,small table14,60,40,ATABLE20.jpg,Awoodtable13.jpg,/static/Category_learning/Stimuli/Experimental_stims/small table/ATABLE20.jpg,/static/Category_learning/Stimuli/Experimental_stims/small table/Awoodtable13.jpg,1,small table,small table,40,40,small table15,small table14,60,40,0,217.778,0.278
522,,confirmation,,html-keyboard-response,522,353015,0.0-1.0-91.0-1.0-0.0,0,0,2,,,,,,89,,,,,,,,,,,,,,,,,,,,,,,,,,,,,,,,219,1.222
523,,isi,,html-keyboard-response,523,353117,0.0-1.0-91.0-2.0,0,0,2,,,,,,,,,,,,,,,,,,,,,,,,,,,,,,,,,,,,,,220,1
524,,feedback,,html-keyboard-response,524,354120,0.0-1.0-91.0-3.0-0.0,0,0,2,,,,,,89,,,,,,,,,,,,,,,,,,,,,,,,,,,,,,,,221,1
525,,iti,,html-keyboard-response,525,354224,0.0-1.0-91.0-5.0,0,0,2,,,,,,,,,,,,,,,,,,,,,,,,,,,,,,,,,,,,,,222,1
526,,choice,,html-keyboard-response,526,354475,0.0-1.0-92.0-0.0,0,0,2,,247,,,50,90,94,1500,1000,0,2,0,40-80,,0,necklace,fan,40,80,necklace5,fan9,60,80,necklascenew08.jpg,FT-40A.jpg,/static/Category_learning/Stimuli/Experimental_stims/necklace/necklascenew08.jpg,/static/Category_learning/Stimuli/Experimental_stims/fan/FT-40A.jpg,1,necklace,fan,40,80,necklace5,fan9,60,80,0,222.247,0.247
527,,confirmation,,html-keyboard-response,527,355732,0.0-1.0-92.0-1.0-0.0,0,0,2,,,,,,90,,,,,,,,,,,,,,,,,,,,,,,,,,,,,,,,223.5,1.253
528,,isi,,html-keyboard-response,528,355838,0.0-1.0-92.0-2.0,0,0,2,,,,,,,,,,,,,,,,,,,,,,,,,,,,,,,,,,,,,,225,1.5
529,,feedback,,html-keyboard-response,529,356845,0.0-1.0-92.0-3.0-0.0,0,0,2,,,,,,90,,,,,,,,,,,,,,,,,,,,,,,,,,,,,,,,226,1
530,,iti,,html-keyboard-response,530,356952,0.0-1.0-92.0-5.0,0,0,2,,,,,,,,,,,,,,,,,,,,,,,,,,,,,,,,,,,,,,227,1
531,,choice,,html-keyboard-response,531,357092,0.0-1.0-93.0-0.0,0,0,2,,136,,,50,91,95,1000,1500,0,2,1,80-80,1,,baby carriage,baby carriage,80,80,baby carriage1,baby carriage9,100,100,babycarriage16.jpg,Antique baby Carriage 7.jpg,/static/Category_learning/Stimuli/Experimental_stims/baby carriage/babycarriage16.jpg,/static/Category_learning/Stimuli/Experimental_stims/baby carriage/Antique baby Carriage 7.jpg,1,baby carriage,baby carriage,80,80,baby carriage1,baby carriage9,100,100,0,227.136,0.136
532,,confirmation,,html-keyboard-response,532,358461,0.0-1.0-93.0-1.0-0.0,0,0,2,,,,,,91,,,,,,,,,,,,,,,,,,,,,,,,,,,,,,,,228.5,1.364
533,,isi,,html-keyboard-response,533,358568,0.0-1.0-93.0-2.0,0,0,2,,,,,,,,,,,,,,,,,,,,,,,,,,,,,,,,,,,,,,229.5,1
534,,feedback,,html-keyboard-response,534,359571,0.0-1.0-93.0-3.0-0.0,0,0,2,,,,,,91,,,,,,,,,,,,,,,,,,,,,,,,,,,,,,,,230.5,1
535,,iti,,html-keyboard-response,535,359677,0.0-1.0-93.0-5.0,0,0,2,,,,,,,,,,,,,,,,,,,,,,,,,,,,,,,,,,,,,,232,1.5
536,,choice,,html-keyboard-response,536,360264,0.0-1.0-94.0-0.0,0,0,2,,583,,,50,92,96,2000,3500,0,2,0,60-60,,,train,watch,60,60,train10,watch5,60,60,train3.jpg,B000GB0Q2K.01-A4LKQQKJ91IUZ._AA280_SCLZZZZZZZ_V66976251_.jpg,/static/Category_learning/Stimuli/Experimental_stims/train/train3.jpg,/static/Category_learning/Stimuli/Experimental_stims/watch/B000GB0Q2K.01-A4LKQQKJ91IUZ._AA280_SCLZZZZZZZ_V66976251_.jpg,1,train,watch,60,60,train10,watch5,60,60,0,232.583,0.583
537,,confirmation,,html-keyboard-response,537,361189,0.0-1.0-94.0-1.0-0.0,0,0,2,,,,,,92,,,,,,,,,,,,,,,,,,,,,,,,,,,,,,,,233.5,0.917
538,,isi,,html-keyboard-response,538,361294,0.0-1.0-94.0-2.0,0,0,2,,,,,,,,,,,,,,,,,,,,,,,,,,,,,,,,,,,,,,235.5,2
539,,feedback,,html-keyboard-response,539,362302,0.0-1.0-94.0-3.0-0.0,0,0,2,,,,,,92,,,,,,,,,,,,,,,,,,,,,,,,,,,,,,,,236.5,1
540,,iti,,html-keyboard-response,540,362410,0.0-1.0-94.0-5.0,0,0,2,,,,,,,,,,,,,,,,,,,,,,,,,,,,,,,,,,,,,,240,3.5
541,,choice,,html-keyboard-response,541,362477,0.0-1.0-95.0-0.0,0,0,2,,63,,,50,93,97,1000,1500,0,2,0,40-60,,0,small table,stool,40,60,small table11,stool14,40,40,ATABLE83.jpg,hjscott-sbs-b-bar-stool.jpg,/static/Category_learning/Stimuli/Experimental_stims/small table/ATABLE83.jpg,/static/Category_learning/Stimuli/Experimental_stims/stool/hjscott-sbs-b-bar-stool.jpg,1,small table,stool,40,60,small table11,stool14,40,40,0,240.063,0.063
542,,confirmation,,html-keyboard-response,542,363919,0.0-1.0-95.0-1.0-0.0,0,0,2,,,,,,93,,,,,,,,,,,,,,,,,,,,,,,,,,,,,,,,241.5,1.437
543,,isi,,html-keyboard-response,543,364025,0.0-1.0-95.0-2.0,0,0,2,,,,,,,,,,,,,,,,,,,,,,,,,,,,,,,,,,,,,,242.5,1
544,,feedback,,html-keyboard-response,544,365033,0.0-1.0-95.0-3.0-0.0,0,0,2,,,,,,93,,,,,,,,,,,,,,,,,,,,,,,,,,,,,,,,243.5,1
545,,iti,,html-keyboard-response,545,365140,0.0-1.0-95.0-5.0,0,0,2,,,,,,,,,,,,,,,,,,,,,,,,,,,,,,,,,,,,,,245,1.5
546,,choice,,html-keyboard-response,546,365566,0.0-1.0-96.0-0.0,0,0,2,,422,,,50,94,98,1000,1000,0,2,0,40-60,,0,small table,stool,40,60,small table9,stool8,60,80,ATABLE79.jpg,ASTOOL33.jpg,/static/Category_learning/Stimuli/Experimental_stims/small table/ATABLE79.jpg,/static/Category_learning/Stimuli/Experimental_stims/stool/ASTOOL33.jpg,1,small table,stool,40,60,small table9,stool8,60,80,0,245.422,0.422
547,,confirmation,,html-keyboard-response,547,366649,0.0-1.0-96.0-1.0-0.0,0,0,2,,,,,,94,,,,,,,,,,,,,,,,,,,,,,,,,,,,,,,,246.5,1.078
548,,isi,,html-keyboard-response,548,366757,0.0-1.0-96.0-2.0,0,0,2,,,,,,,,,,,,,,,,,,,,,,,,,,,,,,,,,,,,,,247.5,1
549,,feedback,,html-keyboard-response,549,367763,0.0-1.0-96.0-3.0-0.0,0,0,2,,,,,,94,,,,,,,,,,,,,,,,,,,,,,,,,,,,,,,,248.5,1
550,,iti,,html-keyboard-response,550,367870,0.0-1.0-96.0-5.0,0,0,2,,,,,,,,,,,,,,,,,,,,,,,,,,,,,,,,,,,,,,249.5,1
