,success,ttype,start_time,trial_type,trial_index,time_elapsed,internal_node_id,warning,missed_checkup,PID,view_history,rt,responses,repeat_instructions,key_press,index,trial_num,isi,iti,is_practice,block,old_trial,pair_type,within_category,high_cat_on_left,left_category,right_category,left_category_value,right_category_value,left_exemplar,right_exemplar,left_exemplar_value,right_exemplar_value,left_img,right_img,left_img_path,right_img_path,left_chosen,chosen_category,unchosen_category,chosen_category_value,unchosen_category_value,chosen_exemplar,unchosen_exemplar,chosen_exemplar_value,unchosen_exemplar_value,no_response,onset,duration,end_practice,total_bonus_tally,category,category_group_value,category_value_response,did_not_enter_response
0,True,full_screen,d06022022hr1421,fullscreen,0,2027,0.0-0.0,0,0,1,,,,,,,,,,,,,,,,,,,,,,,,,,,,,,,,,,,,,,,,,,,,,
1,,category_learning_instructions,,instructions,1,4062,0.0-1.0-0.0-0.0,0,0,1,"[{""page_index"":0,""viewing_time"":899},{""page_index"":1,""viewing_time"":140},{""page_index"":2,""viewing_time"":189},{""page_index"":3,""viewing_time"":188},{""page_index"":4,""viewing_time"":156},{""page_index"":5,""viewing_time"":204},{""page_index"":6,""viewing_time"":256}]",2032.0,,,,,,,,,,,,,,,,,,,,,,,,,,,,,,,,,,,,,,,,,,,
2,,category_learning_comprehension_check,,survey-multi-choice,2,9693,0.0-1.0-0.0-1.0,0,0,1,,5627.0,"{""Q0"":""True"",""Q1"":""True"",""Q2"":""Stay the same"",""Q3"":""pointer finger for left and middle finger for right""}",0.0,,,,,,,,,,,,,,,,,,,,,,,,,,,,,,,,,,,,,,,,,
3,,,,html-keyboard-response,3,11039,0.0-1.0-1.0,0,0,1,,1342.0,,,50.0,,,,,,,,,,,,,,,,,,,,,,,,,,,,,,,,,,,,,,,,
4,,choice,,html-keyboard-response,4,11881,0.0-1.0-2.0-0.0-0.0,0,0,1,,838.0,,,51.0,0.0,0.0,1500.0,1000.0,1.0,0.0,0.0,20-80,,0.0,bagel,dumbbell,20.0,80.0,bagel1,dumbbell1,0.0,80.0,bagels_pumpernickel_large.jpg,31B64EN68AL._AA280_.jpg,/static/Category_learning/Stimuli/Practice_stims/bagel/bagels_pumpernickel_large.jpg,/static/Category_learning/Stimuli/Practice_stims/dumbbell/31B64EN68AL._AA280_.jpg,0.0,dumbbell,bagel,80.0,20.0,dumbbell1,bagel1,80.0,0.0,0.0,0.838,0.838,,,,,,
5,,confirmation,,html-keyboard-response,5,12551,0.0-1.0-2.0-0.0-1.0-0.0,0,0,1,,,,,,0.0,,,,,,,,,,,,,,,,,,,,,,,,,,,,,,,,1.5,0.662,,,,,,
6,,isi,,html-keyboard-response,6,12658,0.0-1.0-2.0-0.0-2.0,0,0,1,,,,,,,,,,,,,,,,,,,,,,,,,,,,,,,,,,,,,,3.0,1.5,,,,,,
7,,feedback,,html-keyboard-response,7,13662,0.0-1.0-2.0-0.0-3.0-0.0,0,0,1,,,,,,0.0,,,,,,,,,,,,,,,,,,,,,,,,,,,,,,,,4.0,1.0,,,,,,
8,,iti,,html-keyboard-response,8,13767,0.0-1.0-2.0-0.0-5.0,0,0,1,,,,,,,,,,,,,,,,,,,,,,,,,,,,,,,,,,,,,,5.0,1.0,,,,,,
9,,choice,,html-keyboard-response,9,14224,0.0-1.0-3.0-0.0-0.0,0,0,1,,453.0,,,50.0,1.0,1.0,3000.0,1500.0,1.0,0.0,0.0,20-40,,1.0,calculator,bagel,40.0,20.0,calculator2,bagel2,20.0,20.0,22829064.thl.jpg,bagels_cinnraisin_large.jpg,/static/Category_learning/Stimuli/Practice_stims/calculator/22829064.thl.jpg,/static/Category_learning/Stimuli/Practice_stims/bagel/bagels_cinnraisin_large.jpg,1.0,calculator,bagel,40.0,20.0,calculator2,bagel2,20.0,20.0,0.0,5.453,0.453,,,,,,
10,,confirmation,,html-keyboard-response,10,15276,0.0-1.0-3.0-0.0-1.0-0.0,0,0,1,,,,,,1.0,,,,,,,,,,,,,,,,,,,,,,,,,,,,,,,,6.5,1.047,,,,,,
11,,isi,,html-keyboard-response,11,15383,0.0-1.0-3.0-0.0-2.0,0,0,1,,,,,,,,,,,,,,,,,,,,,,,,,,,,,,,,,,,,,,9.5,3.0,,,,,,
12,,feedback,,html-keyboard-response,12,16391,0.0-1.0-3.0-0.0-3.0-0.0,0,0,1,,,,,,1.0,,,,,,,,,,,,,,,,,,,,,,,,,,,,,,,,10.5,1.0,,,,,,
13,,iti,,html-keyboard-response,13,16498,0.0-1.0-3.0-0.0-5.0,0,0,1,,,,,,,,,,,,,,,,,,,,,,,,,,,,,,,,,,,,,,12.0,1.5,,,,,,
14,,choice,,html-keyboard-response,14,17166,0.0-1.0-4.0-0.0-0.0,0,0,1,,666.0,,,50.0,2.0,2.0,2000.0,3000.0,1.0,0.0,0.0,60-80,,0.0,clock,dumbbell,60.0,80.0,clock2,dumbbell2,60.0,100.0,26373355.thl.jpg,31K8MR6TMBL._SS500_.jpg,/static/Category_learning/Stimuli/Practice_stims/clock/26373355.thl.jpg,/static/Category_learning/Stimuli/Practice_stims/dumbbell/31K8MR6TMBL._SS500_.jpg,1.0,clock,dumbbell,60.0,80.0,clock2,dumbbell2,60.0,100.0,0.0,12.666,0.666,,,,,,
15,,confirmation,,html-keyboard-response,15,18007,0.0-1.0-4.0-0.0-1.0-0.0,0,0,1,,,,,,2.0,,,,,,,,,,,,,,,,,,,,,,,,,,,,,,,,13.5,0.834,,,,,,
16,,isi,,html-keyboard-response,16,18114,0.0-1.0-4.0-0.0-2.0,0,0,1,,,,,,,,,,,,,,,,,,,,,,,,,,,,,,,,,,,,,,15.5,2.0,,,,,,
17,,feedback,,html-keyboard-response,17,19122,0.0-1.0-4.0-0.0-3.0-0.0,0,0,1,,,,,,2.0,,,,,,,,,,,,,,,,,,,,,,,,,,,,,,,,16.5,1.0,,,,,,
18,,iti,,html-keyboard-response,18,19229,0.0-1.0-4.0-0.0-5.0,0,0,1,,,,,,,,,,,,,,,,,,,,,,,,,,,,,,,,,,,,,,19.5,3.0,,,,,,
19,,choice,,html-keyboard-response,19,19931,0.0-1.0-5.0-0.0-0.0,0,0,1,,699.0,,,50.0,3.0,3.0,1000.0,2000.0,1.0,0.0,0.0,40-80,,0.0,calculator,clock,40.0,60.0,calculator1,clock1,40.0,40.0,22829184.thl.jpg,Aalarmclock2.jpg,/static/Category_learning/Stimuli/Practice_stims/calculator/22829184.thl.jpg,/static/Category_learning/Stimuli/Practice_stims/clock/Aalarmclock2.jpg,1.0,calculator,clock,40.0,60.0,calculator1,clock1,40.0,40.0,0.0,20.199,0.699,,,,,,
20,,confirmation,,html-keyboard-response,20,20738,0.0-1.0-5.0-0.0-1.0-0.0,0,0,1,,,,,,3.0,,,,,,,,,,,,,,,,,,,,,,,,,,,,,,,,21.0,0.801,,,,,,
21,,isi,,html-keyboard-response,21,20845,0.0-1.0-5.0-0.0-2.0,0,0,1,,,,,,,,,,,,,,,,,,,,,,,,,,,,,,,,,,,,,,22.0,1.0,,,,,,
22,,feedback,,html-keyboard-response,22,21853,0.0-1.0-5.0-0.0-3.0-0.0,0,0,1,,,,,,3.0,,,,,,,,,,,,,,,,,,,,,,,,,,,,,,,,23.0,1.0,,,,,,
23,,iti,,html-keyboard-response,23,21959,0.0-1.0-5.0-0.0-5.0,0,0,1,,,,,,,,,,,,,,,,,,,,,,,,,,,,,,,,,,,,,,25.0,2.0,,,,,,
24,,choice,,html-keyboard-response,24,22620,0.0-1.0-6.0-0.0-0.0,0,0,1,,657.0,,,51.0,4.0,4.0,2500.0,2500.0,1.0,0.0,0.0,20-60,,1.0,dumbbell,bagel,80.0,20.0,dumbbell3,bagel3,100.0,40.0,41K7QVRX50L._SS500_.jpg,photo-169.jpg,/static/Category_learning/Stimuli/Practice_stims/dumbbell/41K7QVRX50L._SS500_.jpg,/static/Category_learning/Stimuli/Practice_stims/bagel/photo-169.jpg,0.0,bagel,dumbbell,20.0,80.0,bagel3,dumbbell3,40.0,100.0,0.0,25.657,0.657,1.0,,,,,
25,,confirmation,,html-keyboard-response,25,23471,0.0-1.0-6.0-0.0-1.0-0.0,0,0,1,,,,,,4.0,,,,,,,,,,,,,,,,,,,,,,,,,,,,,,,,26.5,0.843,,,,,,
26,,isi,,html-keyboard-response,26,23577,0.0-1.0-6.0-0.0-2.0,0,0,1,,,,,,,,,,,,,,,,,,,,,,,,,,,,,,,,,,,,,,29.0,2.5,,,,,,
27,,feedback,,html-keyboard-response,27,24583,0.0-1.0-6.0-0.0-3.0-0.0,0,0,1,,,,,,4.0,,,,,,,,,,,,,,,,,,,,,,,,,,,,,,,,30.0,1.0,,,,,,
28,,iti,,html-keyboard-response,28,24690,0.0-1.0-6.0-0.0-5.0,0,0,1,,,,,,,,,,,,,,,,,,,,,,,,,,,,,,,,,,,,,,32.5,2.5,,,,,,
29,,practice_over,,html-keyboard-response,29,25839,0.0-1.0-6.0-0.0-6.0-0.0,0,0,1,,1147.0,,,50.0,4.0,,,,,,,,,,,,,,,,,,,,,,,,,,,,,,,,,,,,,,,
30,,start_run,,html-keyboard-response,30,27357,0.0-1.0-6.0-0.0-6.0-1.0,0,0,1,,1517.0,,,84.0,,,,,,,,,,,,,,,,,,,,,,,,,,,,,,,,,,,,,,,,
31,,choice,,html-keyboard-response,31,27848,0.0-1.0-7.0-0.0-0.0,0,0,1,,488.0,,,51.0,5.0,305.0,3500.0,1000.0,0.0,6.0,0.0,20-60,,1.0,key chain,vase,60.0,20.0,key chain5,vase14,40.0,0.0,keychain-metal-logo.jpg,Avase119.jpg,/static/Category_learning/Stimuli/Experimental_stims/key chain/keychain-metal-logo.jpg,/static/Category_learning/Stimuli/Experimental_stims/vase/Avase119.jpg,0.0,vase,key chain,20.0,60.0,vase14,key chain5,0.0,40.0,0.0,0.488,0.488,,,,,,
32,,confirmation,,html-keyboard-response,32,28866,0.0-1.0-7.0-0.0-1.0-0.0,0,0,1,,,,,,5.0,,,,,,,,,,,,,,,,,,,,,,,,,,,,,,,,1.5,1.012,,,,,,
33,,isi,,html-keyboard-response,33,28973,0.0-1.0-7.0-0.0-2.0,0,0,1,,,,,,,,,,,,,,,,,,,,,,,,,,,,,,,,,,,,,,5.0,3.5,,,,,,
34,,feedback,,html-keyboard-response,34,29981,0.0-1.0-7.0-0.0-3.0-0.0,0,0,1,,,,,,5.0,,,,,,,,,,,,,,,,,,,,,,,,,,,,,,,,6.0,1.0,,,,,,
35,,iti,,html-keyboard-response,35,30087,0.0-1.0-7.0-0.0-5.0,0,0,1,,,,,,,,,,,,,,,,,,,,,,,,,,,,,,,,,,,,,,7.0,1.0,,,,,,
36,,choice,,html-keyboard-response,36,30181,0.0-1.0-8.0-0.0-0.0,0,0,1,,90.0,,,50.0,6.0,306.0,1000.0,3500.0,0.0,6.0,0.0,40-60,,0.0,door knob,license plate,40.0,60.0,door knob4,license plate1,40.0,80.0,chrome scroll latch handle.jpg,il-423-3784.jpg,/static/Category_learning/Stimuli/Experimental_stims/door knob/chrome scroll latch handle.jpg,/static/Category_learning/Stimuli/Experimental_stims/license plate/il-423-3784.jpg,1.0,door knob,license plate,40.0,60.0,door knob4,license plate1,40.0,80.0,0.0,7.09,0.09,,,,,,
37,,confirmation,,html-keyboard-response,37,31596,0.0-1.0-8.0-0.0-1.0-0.0,0,0,1,,,,,,6.0,,,,,,,,,,,,,,,,,,,,,,,,,,,,,,,,8.5,1.41,,,,,,
38,,isi,,html-keyboard-response,38,31703,0.0-1.0-8.0-0.0-2.0,0,0,1,,,,,,,,,,,,,,,,,,,,,,,,,,,,,,,,,,,,,,9.5,1.0,,,,,,
39,,feedback,,html-keyboard-response,39,32711,0.0-1.0-8.0-0.0-3.0-0.0,0,0,1,,,,,,6.0,,,,,,,,,,,,,,,,,,,,,,,,,,,,,,,,10.5,1.0,,,,,,
40,,iti,,html-keyboard-response,40,32818,0.0-1.0-8.0-0.0-5.0,0,0,1,,,,,,,,,,,,,,,,,,,,,,,,,,,,,,,,,,,,,,14.0,3.5,,,,,,
41,,choice,,html-keyboard-response,41,32875,0.0-1.0-9.0-0.0-0.0,0,0,1,,54.0,,,51.0,7.0,307.0,1000.0,2000.0,0.0,6.0,0.0,40-80,,1.0,necklace,baby carriage,80.0,40.0,necklace5,baby carriage10,80.0,20.0,necklascenew08.jpg,peg_perego_uno_blu.jpg,/static/Category_learning/Stimuli/Experimental_stims/necklace/necklascenew08.jpg,/static/Category_learning/Stimuli/Experimental_stims/baby carriage/peg_perego_uno_blu.jpg,0.0,baby carriage,necklace,40.0,80.0,baby carriage10,necklace5,20.0,80.0,0.0,14.054,0.054,,,,,,
42,,confirmation,,html-keyboard-response,42,34327,0.0-1.0-9.0-0.0-1.0-0.0,0,0,1,,,,,,7.0,,,,,,,,,,,,,,,,,,,,,,,,,,,,,,,,15.5,1.446,,,,,,
43,,isi,,html-keyboard-response,43,34434,0.0-1.0-9.0-0.0-2.0,0,0,1,,,,,,,,,,,,,,,,,,,,,,,,,,,,,,,,,,,,,,16.5,1.0,,,,,,
44,,feedback,,html-keyboard-response,44,35442,0.0-1.0-9.0-0.0-3.0-0.0,0,0,1,,,,,,7.0,,,,,,,,,,,,,,,,,,,,,,,,,,,,,,,,17.5,1.0,,,,,,
45,,iti,,html-keyboard-response,45,35548,0.0-1.0-9.0-0.0-5.0,0,0,1,,,,,,,,,,,,,,,,,,,,,,,,,,,,,,,,,,,,,,19.5,2.0,,,,,,
46,,choice,,html-keyboard-response,46,35853,0.0-1.0-10.0-0.0-0.0,0,0,1,,301.0,,,50.0,8.0,308.0,1500.0,1500.0,0.0,6.0,0.0,20-80,,1.0,nail polish,trumpet,80.0,20.0,nail polish12,trumpet13,80.0,20.0,laquerdUP.jpg,JUPITER+JTR1600GS.jpg,/static/Category_learning/Stimuli/Experimental_stims/nail polish/laquerdUP.jpg,/static/Category_learning/Stimuli/Experimental_stims/trumpet/JUPITER+JTR1600GS.jpg,1.0,nail polish,trumpet,80.0,20.0,nail polish12,trumpet13,80.0,20.0,0.0,19.801,0.301,,,,,,
47,,confirmation,,html-keyboard-response,47,37058,0.0-1.0-10.0-0.0-1.0-0.0,0,0,1,,,,,,8.0,,,,,,,,,,,,,,,,,,,,,,,,,,,,,,,,21.0,1.199,,,,,,
48,,isi,,html-keyboard-response,48,37165,0.0-1.0-10.0-0.0-2.0,0,0,1,,,,,,,,,,,,,,,,,,,,,,,,,,,,,,,,,,,,,,22.5,1.5,,,,,,
49,,feedback,,html-keyboard-response,49,38172,0.0-1.0-10.0-0.0-3.0-0.0,0,0,1,,,,,,8.0,,,,,,,,,,,,,,,,,,,,,,,,,,,,,,,,23.5,1.0,,,,,,
50,,iti,,html-keyboard-response,50,38279,0.0-1.0-10.0-0.0-5.0,0,0,1,,,,,,,,,,,,,,,,,,,,,,,,,,,,,,,,,,,,,,25.0,1.5,,,,,,
51,,choice,,html-keyboard-response,51,38595,0.0-1.0-11.0-0.0-0.0,0,0,1,,312.0,,,51.0,9.0,309.0,1000.0,1000.0,0.0,6.0,0.0,20-80,,1.0,pen,train,80.0,20.0,pen1,train12,60.0,0.0,pen09.jpg,02565 ride on train.jpg,/static/Category_learning/Stimuli/Experimental_stims/pen/pen09.jpg,/static/Category_learning/Stimuli/Experimental_stims/train/02565 ride on train.jpg,0.0,train,pen,20.0,80.0,train12,pen1,0.0,60.0,0.0,25.312,0.312,,,,,,
52,,confirmation,,html-keyboard-response,52,39789,0.0-1.0-11.0-0.0-1.0-0.0,0,0,1,,,,,,9.0,,,,,,,,,,,,,,,,,,,,,,,,,,,,,,,,26.5,1.188,,,,,,
53,,isi,,html-keyboard-response,53,39891,0.0-1.0-11.0-0.0-2.0,0,0,1,,,,,,,,,,,,,,,,,,,,,,,,,,,,,,,,,,,,,,27.5,1.0,,,,,,
54,,feedback,,html-keyboard-response,54,40899,0.0-1.0-11.0-0.0-3.0-0.0,0,0,1,,,,,,9.0,,,,,,,,,,,,,,,,,,,,,,,,,,,,,,,,28.5,1.0,,,,,,
55,,iti,,html-keyboard-response,55,41004,0.0-1.0-11.0-0.0-5.0,0,0,1,,,,,,,,,,,,,,,,,,,,,,,,,,,,,,,,,,,,,,29.5,1.0,,,,,,
56,,choice,,html-keyboard-response,56,41129,0.0-1.0-12.0-0.0-0.0,0,0,1,,122.0,,,50.0,10.0,310.0,3000.0,1000.0,0.0,6.0,0.0,20-80,,0.0,watch,necklace,20.0,80.0,watch10,necklace11,0.0,100.0,HEU0102124_zoom.jpg,necklascenew06.jpg,/static/Category_learning/Stimuli/Experimental_stims/watch/HEU0102124_zoom.jpg,/static/Category_learning/Stimuli/Experimental_stims/necklace/necklascenew06.jpg,1.0,watch,necklace,20.0,80.0,watch10,necklace11,0.0,100.0,0.0,29.622,0.122,,,,,,
57,,confirmation,,html-keyboard-response,57,42514,0.0-1.0-12.0-0.0-1.0-0.0,0,0,1,,,,,,10.0,,,,,,,,,,,,,,,,,,,,,,,,,,,,,,,,31.0,1.378,,,,,,
58,,isi,,html-keyboard-response,58,42620,0.0-1.0-12.0-0.0-2.0,0,0,1,,,,,,,,,,,,,,,,,,,,,,,,,,,,,,,,,,,,,,34.0,3.0,,,,,,
59,,feedback,,html-keyboard-response,59,43623,0.0-1.0-12.0-0.0-3.0-0.0,0,0,1,,,,,,10.0,,,,,,,,,,,,,,,,,,,,,,,,,,,,,,,,35.0,1.0,,,,,,
60,,iti,,html-keyboard-response,60,43730,0.0-1.0-12.0-0.0-5.0,0,0,1,,,,,,,,,,,,,,,,,,,,,,,,,,,,,,,,,,,,,,36.0,1.0,,,,,,
61,,choice,,html-keyboard-response,61,43907,0.0-1.0-13.0-0.0-0.0,0,0,1,,174.0,,,51.0,11.0,311.0,1000.0,1500.0,0.0,6.0,0.0,20-80,,0.0,stool,power strip,20.0,80.0,stool2,power strip15,40.0,100.0,ASTOOL46.jpg,31oz6aGZN7L._AA262_.jpg,/static/Category_learning/Stimuli/Experimental_stims/stool/ASTOOL46.jpg,/static/Category_learning/Stimuli/Experimental_stims/power strip/31oz6aGZN7L._AA262_.jpg,0.0,power strip,stool,80.0,20.0,power strip15,stool2,100.0,40.0,0.0,36.174,0.174,,,,,,
62,,confirmation,,html-keyboard-response,62,45239,0.0-1.0-13.0-0.0-1.0-0.0,0,0,1,,,,,,11.0,,,,,,,,,,,,,,,,,,,,,,,,,,,,,,,,37.5,1.326,,,,,,
63,,isi,,html-keyboard-response,63,45345,0.0-1.0-13.0-0.0-2.0,0,0,1,,,,,,,,,,,,,,,,,,,,,,,,,,,,,,,,,,,,,,38.5,1.0,,,,,,
64,,feedback,,html-keyboard-response,64,46352,0.0-1.0-13.0-0.0-3.0-0.0,0,0,1,,,,,,11.0,,,,,,,,,,,,,,,,,,,,,,,,,,,,,,,,39.5,1.0,,,,,,
65,,iti,,html-keyboard-response,65,46456,0.0-1.0-13.0-0.0-5.0,0,0,1,,,,,,,,,,,,,,,,,,,,,,,,,,,,,,,,,,,,,,41.0,1.5,,,,,,
66,,choice,,html-keyboard-response,66,47959,0.0-1.0-14.0-0.0-0.0,0,0,1,,,,,,12.0,312.0,3000.0,3000.0,0.0,6.0,0.0,60-80,,1.0,seashell,lipstick,80.0,60.0,seashell5,lipstick2,80.0,40.0,429345994_b87bb03366.jpg,11uuoPMY+OL._SS500_.jpg,/static/Category_learning/Stimuli/Experimental_stims/seashell/429345994_b87bb03366.jpg,/static/Category_learning/Stimuli/Experimental_stims/lipstick/11uuoPMY+OL._SS500_.jpg,,,,,,,,,,1.0,42.5,1.5,,,,,,
67,,isi,,html-keyboard-response,67,48065,0.0-1.0-14.0-0.0-2.0,0,0,1,,,,,,,,,,,,,,,,,,,,,,,,,,,,,,,,,,,,,,45.5,3.0,,,,,,
68,,no_response,,html-keyboard-response,68,49070,0.0-1.0-14.0-0.0-4.0-0.0,1,0,1,,,,,,,,,,,,,,,,,,,,,,,,,,,,,,,,,,,,,,46.5,1.0,,,,,,
69,,iti,,html-keyboard-response,69,49197,0.0-1.0-14.0-0.0-5.0,0,0,1,,,,,,,,,,,,,,,,,,,,,,,,,,,,,,,,,,,,,,49.5,3.0,,,,,,
70,,choice,,html-keyboard-response,70,50701,0.0-1.0-14.0-0.1-0.1,0,0,1,,,,,,12.0,312.0,3000.0,3000.0,0.0,6.0,0.0,60-80,,1.0,seashell,lipstick,80.0,60.0,seashell5,lipstick2,80.0,40.0,429345994_b87bb03366.jpg,11uuoPMY+OL._SS500_.jpg,/static/Category_learning/Stimuli/Experimental_stims/seashell/429345994_b87bb03366.jpg,/static/Category_learning/Stimuli/Experimental_stims/lipstick/11uuoPMY+OL._SS500_.jpg,,,,,,,,,,1.0,51.0,1.5,,,,,,
71,,isi,,html-keyboard-response,71,50807,0.0-1.0-14.0-0.1-2.1,0,0,1,,,,,,,,,,,,,,,,,,,,,,,,,,,,,,,,,,,,,,53.0,2.0,,,,,,
72,,no_response,,html-keyboard-response,72,51812,0.0-1.0-14.0-0.1-4.1-0.1,1,0,1,,,,,,,,,,,,,,,,,,,,,,,,,,,,,,,,,,,,,,54.0,1.0,,,,,,
73,,iti,,html-keyboard-response,73,51938,0.0-1.0-14.0-0.1-5.1,0,0,1,,,,,,,,,,,,,,,,,,,,,,,,,,,,,,,,,,,,,,55.5,1.5,,,,,,
74,,choice,,html-keyboard-response,74,53445,0.0-1.0-14.0-0.2-0.2,0,0,1,,,,,,12.0,312.0,3000.0,3000.0,0.0,6.0,0.0,60-80,,1.0,seashell,lipstick,80.0,60.0,seashell5,lipstick2,80.0,40.0,429345994_b87bb03366.jpg,11uuoPMY+OL._SS500_.jpg,/static/Category_learning/Stimuli/Experimental_stims/seashell/429345994_b87bb03366.jpg,/static/Category_learning/Stimuli/Experimental_stims/lipstick/11uuoPMY+OL._SS500_.jpg,,,,,,,,,,1.0,57.0,1.5,,,,,,
75,,isi,,html-keyboard-response,75,53548,0.0-1.0-14.0-0.2-2.2,0,0,1,,,,,,,,,,,,,,,,,,,,,,,,,,,,,,,,,,,,,,58.5,1.5,,,,,,
76,,no_response,,html-keyboard-response,76,54551,0.0-1.0-14.0-0.2-4.2-0.2,1,0,1,,,,,,,,,,,,,,,,,,,,,,,,,,,,,,,,,,,,,,59.5,1.0,,,,,,
77,,iti,,html-keyboard-response,77,54672,0.0-1.0-14.0-0.2-5.2,0,0,1,,,,,,,,,,,,,,,,,,,,,,,,,,,,,,,,,,,,,,61.5,2.0,,,,,,
78,,choice,,html-keyboard-response,78,56178,0.0-1.0-14.0-0.3-0.3,0,0,1,,,,,,12.0,312.0,3000.0,3000.0,0.0,6.0,0.0,60-80,,1.0,seashell,lipstick,80.0,60.0,seashell5,lipstick2,80.0,40.0,429345994_b87bb03366.jpg,11uuoPMY+OL._SS500_.jpg,/static/Category_learning/Stimuli/Experimental_stims/seashell/429345994_b87bb03366.jpg,/static/Category_learning/Stimuli/Experimental_stims/lipstick/11uuoPMY+OL._SS500_.jpg,,,,,,,,,,1.0,63.0,1.5,,,,,,
79,,isi,,html-keyboard-response,79,56284,0.0-1.0-14.0-0.3-2.3,0,0,1,,,,,,,,,,,,,,,,,,,,,,,,,,,,,,,,,,,,,,64.0,1.0,,,,,,
80,,no_response,,html-keyboard-response,80,57290,0.0-1.0-14.0-0.3-4.3-0.3,1,0,1,,,,,,,,,,,,,,,,,,,,,,,,,,,,,,,,,,,,,,65.0,1.0,,,,,,
81,,iti,,html-keyboard-response,81,57412,0.0-1.0-14.0-0.3-5.3,0,0,1,,,,,,,,,,,,,,,,,,,,,,,,,,,,,,,,,,,,,,66.0,1.0,,,,,,
82,,choice,,html-keyboard-response,82,58919,0.0-1.0-14.0-0.4-0.4,0,0,1,,,,,,12.0,312.0,3000.0,3000.0,0.0,6.0,0.0,60-80,,1.0,seashell,lipstick,80.0,60.0,seashell5,lipstick2,80.0,40.0,429345994_b87bb03366.jpg,11uuoPMY+OL._SS500_.jpg,/static/Category_learning/Stimuli/Experimental_stims/seashell/429345994_b87bb03366.jpg,/static/Category_learning/Stimuli/Experimental_stims/lipstick/11uuoPMY+OL._SS500_.jpg,,,,,,,,,,1.0,67.5,1.5,,,,,,
83,,isi,,html-keyboard-response,83,59026,0.0-1.0-14.0-0.4-2.4,0,0,1,,,,,,,,,,,,,,,,,,,,,,,,,,,,,,,,,,,,,,68.5,1.0,,,,,,
84,,no_response,,html-keyboard-response,84,60028,0.0-1.0-14.0-0.4-4.4-0.4,1,0,1,,,,,,,,,,,,,,,,,,,,,,,,,,,,,,,,,,,,,,69.5,1.0,,,,,,
85,,iti,,html-keyboard-response,85,60152,0.0-1.0-14.0-0.4-5.4,0,0,1,,,,,,,,,,,,,,,,,,,,,,,,,,,,,,,,,,,,,,71.0,1.5,,,,,,
86,,choice,,html-keyboard-response,86,61660,0.0-1.0-14.0-0.5-0.5,0,0,1,,,,,,12.0,312.0,3000.0,3000.0,0.0,6.0,0.0,60-80,,1.0,seashell,lipstick,80.0,60.0,seashell5,lipstick2,80.0,40.0,429345994_b87bb03366.jpg,11uuoPMY+OL._SS500_.jpg,/static/Category_learning/Stimuli/Experimental_stims/seashell/429345994_b87bb03366.jpg,/static/Category_learning/Stimuli/Experimental_stims/lipstick/11uuoPMY+OL._SS500_.jpg,,,,,,,,,,1.0,72.5,1.5,,,,,,
87,,isi,,html-keyboard-response,87,61767,0.0-1.0-14.0-0.5-2.5,0,0,1,,,,,,,,,,,,,,,,,,,,,,,,,,,,,,,,,,,,,,74.5,2.0,,,,,,
88,,no_response,,html-keyboard-response,88,62772,0.0-1.0-14.0-0.5-4.5-0.5,1,0,1,,,,,,,,,,,,,,,,,,,,,,,,,,,,,,,,,,,,,,75.5,1.0,,,,,,
89,,iti,,html-keyboard-response,89,62891,0.0-1.0-14.0-0.5-5.5,0,0,1,,,,,,,,,,,,,,,,,,,,,,,,,,,,,,,,,,,,,,77.5,2.0,,,,,,
90,,choice,,html-keyboard-response,90,64396,0.0-1.0-14.0-0.6-0.6,0,0,1,,,,,,12.0,312.0,3000.0,3000.0,0.0,6.0,0.0,60-80,,1.0,seashell,lipstick,80.0,60.0,seashell5,lipstick2,80.0,40.0,429345994_b87bb03366.jpg,11uuoPMY+OL._SS500_.jpg,/static/Category_learning/Stimuli/Experimental_stims/seashell/429345994_b87bb03366.jpg,/static/Category_learning/Stimuli/Experimental_stims/lipstick/11uuoPMY+OL._SS500_.jpg,,,,,,,,,,1.0,79.0,1.5,,,,,,
91,,isi,,html-keyboard-response,91,64503,0.0-1.0-14.0-0.6-2.6,0,0,1,,,,,,,,,,,,,,,,,,,,,,,,,,,,,,,,,,,,,,80.0,1.0,,,,,,
92,,no_response,,html-keyboard-response,92,65510,0.0-1.0-14.0-0.6-4.6-0.6,1,0,1,,,,,,,,,,,,,,,,,,,,,,,,,,,,,,,,,,,,,,81.0,1.0,,,,,,
93,,iti,,html-keyboard-response,93,65634,0.0-1.0-14.0-0.6-5.6,0,0,1,,,,,,,,,,,,,,,,,,,,,,,,,,,,,,,,,,,,,,82.0,1.0,,,,,,
94,,choice,,html-keyboard-response,94,67141,0.0-1.0-14.0-0.7-0.7,0,0,1,,,,,,12.0,312.0,3000.0,3000.0,0.0,6.0,0.0,60-80,,1.0,seashell,lipstick,80.0,60.0,seashell5,lipstick2,80.0,40.0,429345994_b87bb03366.jpg,11uuoPMY+OL._SS500_.jpg,/static/Category_learning/Stimuli/Experimental_stims/seashell/429345994_b87bb03366.jpg,/static/Category_learning/Stimuli/Experimental_stims/lipstick/11uuoPMY+OL._SS500_.jpg,,,,,,,,,,1.0,83.5,1.5,,,,,,
95,,isi,,html-keyboard-response,95,67244,0.0-1.0-14.0-0.7-2.7,0,0,1,,,,,,,,,,,,,,,,,,,,,,,,,,,,,,,,,,,,,,85.0,1.5,,,,,,
96,,no_response,,html-keyboard-response,96,68247,0.0-1.0-14.0-0.7-4.7-0.7,1,0,1,,,,,,,,,,,,,,,,,,,,,,,,,,,,,,,,,,,,,,86.0,1.0,,,,,,
97,,iti,,html-keyboard-response,97,68367,0.0-1.0-14.0-0.7-5.7,0,0,1,,,,,,,,,,,,,,,,,,,,,,,,,,,,,,,,,,,,,,88.0,2.0,,,,,,
98,,choice,,html-keyboard-response,98,69874,0.0-1.0-14.0-0.8-0.8,0,0,1,,,,,,12.0,312.0,3000.0,3000.0,0.0,6.0,0.0,60-80,,1.0,seashell,lipstick,80.0,60.0,seashell5,lipstick2,80.0,40.0,429345994_b87bb03366.jpg,11uuoPMY+OL._SS500_.jpg,/static/Category_learning/Stimuli/Experimental_stims/seashell/429345994_b87bb03366.jpg,/static/Category_learning/Stimuli/Experimental_stims/lipstick/11uuoPMY+OL._SS500_.jpg,,,,,,,,,,1.0,89.5,1.5,,,,,,
99,,isi,,html-keyboard-response,99,69980,0.0-1.0-14.0-0.8-2.8,0,0,1,,,,,,,,,,,,,,,,,,,,,,,,,,,,,,,,,,,,,,91.5,2.0,,,,,,
100,,no_response,,html-keyboard-response,100,70983,0.0-1.0-14.0-0.8-4.8-0.8,1,0,1,,,,,,,,,,,,,,,,,,,,,,,,,,,,,,,,,,,,,,92.5,1.0,,,,,,
101,,iti,,html-keyboard-response,101,71102,0.0-1.0-14.0-0.8-5.8,0,0,1,,,,,,,,,,,,,,,,,,,,,,,,,,,,,,,,,,,,,,93.5,1.0,,,,,,
102,,choice,,html-keyboard-response,102,72609,0.0-1.0-14.0-0.9-0.9,0,0,1,,,,,,12.0,312.0,3000.0,3000.0,0.0,6.0,0.0,60-80,,1.0,seashell,lipstick,80.0,60.0,seashell5,lipstick2,80.0,40.0,429345994_b87bb03366.jpg,11uuoPMY+OL._SS500_.jpg,/static/Category_learning/Stimuli/Experimental_stims/seashell/429345994_b87bb03366.jpg,/static/Category_learning/Stimuli/Experimental_stims/lipstick/11uuoPMY+OL._SS500_.jpg,,,,,,,,,,1.0,95.0,1.5,,,,,,
103,,isi,,html-keyboard-response,103,72716,0.0-1.0-14.0-0.9-2.9,0,0,1,,,,,,,,,,,,,,,,,,,,,,,,,,,,,,,,,,,,,,96.5,1.5,,,,,,
104,,no_response,,html-keyboard-response,104,73719,0.0-1.0-14.0-0.9-4.9-0.9,1,0,1,,,,,,,,,,,,,,,,,,,,,,,,,,,,,,,,,,,,,,97.5,1.0,,,,,,
105,,iti,,html-keyboard-response,105,73852,0.0-1.0-14.0-0.9-5.9,0,0,1,,,,,,,,,,,,,,,,,,,,,,,,,,,,,,,,,,,,,,101.0,3.5,,,,,,
106,,choice,,html-keyboard-response,106,75359,0.0-1.0-14.0-0.10-0.10,0,0,1,,,,,,12.0,312.0,3000.0,3000.0,0.0,6.0,0.0,60-80,,1.0,seashell,lipstick,80.0,60.0,seashell5,lipstick2,80.0,40.0,429345994_b87bb03366.jpg,11uuoPMY+OL._SS500_.jpg,/static/Category_learning/Stimuli/Experimental_stims/seashell/429345994_b87bb03366.jpg,/static/Category_learning/Stimuli/Experimental_stims/lipstick/11uuoPMY+OL._SS500_.jpg,,,,,,,,,,1.0,102.5,1.5,,,,,,
107,,isi,,html-keyboard-response,107,75466,0.0-1.0-14.0-0.10-2.10,0,0,1,,,,,,,,,,,,,,,,,,,,,,,,,,,,,,,,,,,,,,104.0,1.5,,,,,,
108,,no_response,,html-keyboard-response,108,76471,0.0-1.0-14.0-0.10-4.10-0.10,1,0,1,,,,,,,,,,,,,,,,,,,,,,,,,,,,,,,,,,,,,,105.0,1.0,,,,,,
109,,iti,,html-keyboard-response,109,76591,0.0-1.0-14.0-0.10-5.10,0,0,1,,,,,,,,,,,,,,,,,,,,,,,,,,,,,,,,,,,,,,107.0,2.0,,,,,,
110,,choice,,html-keyboard-response,110,78097,0.0-1.0-14.0-0.11-0.11,0,0,1,,,,,,12.0,312.0,3000.0,3000.0,0.0,6.0,0.0,60-80,,1.0,seashell,lipstick,80.0,60.0,seashell5,lipstick2,80.0,40.0,429345994_b87bb03366.jpg,11uuoPMY+OL._SS500_.jpg,/static/Category_learning/Stimuli/Experimental_stims/seashell/429345994_b87bb03366.jpg,/static/Category_learning/Stimuli/Experimental_stims/lipstick/11uuoPMY+OL._SS500_.jpg,,,,,,,,,,1.0,108.5,1.5,,,,,,
111,,isi,,html-keyboard-response,111,78204,0.0-1.0-14.0-0.11-2.11,0,0,1,,,,,,,,,,,,,,,,,,,,,,,,,,,,,,,,,,,,,,109.5,1.0,,,,,,
112,,no_response,,html-keyboard-response,112,79207,0.0-1.0-14.0-0.11-4.11-0.11,1,0,1,,,,,,,,,,,,,,,,,,,,,,,,,,,,,,,,,,,,,,110.5,1.0,,,,,,
113,,iti,,html-keyboard-response,113,79324,0.0-1.0-14.0-0.11-5.11,0,0,1,,,,,,,,,,,,,,,,,,,,,,,,,,,,,,,,,,,,,,112.0,1.5,,,,,,
114,,choice,,html-keyboard-response,114,80828,0.0-1.0-14.0-0.12-0.12,0,0,1,,,,,,12.0,312.0,3000.0,3000.0,0.0,6.0,0.0,60-80,,1.0,seashell,lipstick,80.0,60.0,seashell5,lipstick2,80.0,40.0,429345994_b87bb03366.jpg,11uuoPMY+OL._SS500_.jpg,/static/Category_learning/Stimuli/Experimental_stims/seashell/429345994_b87bb03366.jpg,/static/Category_learning/Stimuli/Experimental_stims/lipstick/11uuoPMY+OL._SS500_.jpg,,,,,,,,,,1.0,113.5,1.5,,,,,,
115,,isi,,html-keyboard-response,115,80935,0.0-1.0-14.0-0.12-2.12,0,0,1,,,,,,,,,,,,,,,,,,,,,,,,,,,,,,,,,,,,,,114.5,1.0,,,,,,
116,,no_response,,html-keyboard-response,116,81940,0.0-1.0-14.0-0.12-4.12-0.12,1,0,1,,,,,,,,,,,,,,,,,,,,,,,,,,,,,,,,,,,,,,115.5,1.0,,,,,,
117,,iti,,html-keyboard-response,117,82055,0.0-1.0-14.0-0.12-5.12,0,0,1,,,,,,,,,,,,,,,,,,,,,,,,,,,,,,,,,,,,,,117.0,1.5,,,,,,
118,,choice,,html-keyboard-response,118,83559,0.0-1.0-14.0-0.13-0.13,0,0,1,,,,,,12.0,312.0,3000.0,3000.0,0.0,6.0,0.0,60-80,,1.0,seashell,lipstick,80.0,60.0,seashell5,lipstick2,80.0,40.0,429345994_b87bb03366.jpg,11uuoPMY+OL._SS500_.jpg,/static/Category_learning/Stimuli/Experimental_stims/seashell/429345994_b87bb03366.jpg,/static/Category_learning/Stimuli/Experimental_stims/lipstick/11uuoPMY+OL._SS500_.jpg,,,,,,,,,,1.0,118.5,1.5,,,,,,
119,,isi,,html-keyboard-response,119,83666,0.0-1.0-14.0-0.13-2.13,0,0,1,,,,,,,,,,,,,,,,,,,,,,,,,,,,,,,,,,,,,,120.5,2.0,,,,,,
120,,no_response,,html-keyboard-response,120,84671,0.0-1.0-14.0-0.13-4.13-0.13,1,0,1,,,,,,,,,,,,,,,,,,,,,,,,,,,,,,,,,,,,,,121.5,1.0,,,,,,
121,,iti,,html-keyboard-response,121,84791,0.0-1.0-14.0-0.13-5.13,0,0,1,,,,,,,,,,,,,,,,,,,,,,,,,,,,,,,,,,,,,,122.5,1.0,,,,,,
122,,choice,,html-keyboard-response,122,86299,0.0-1.0-14.0-0.14-0.14,0,0,1,,,,,,12.0,312.0,3000.0,3000.0,0.0,6.0,0.0,60-80,,1.0,seashell,lipstick,80.0,60.0,seashell5,lipstick2,80.0,40.0,429345994_b87bb03366.jpg,11uuoPMY+OL._SS500_.jpg,/static/Category_learning/Stimuli/Experimental_stims/seashell/429345994_b87bb03366.jpg,/static/Category_learning/Stimuli/Experimental_stims/lipstick/11uuoPMY+OL._SS500_.jpg,,,,,,,,,,1.0,124.0,1.5,,,,,,
123,,isi,,html-keyboard-response,123,86404,0.0-1.0-14.0-0.14-2.14,0,0,1,,,,,,,,,,,,,,,,,,,,,,,,,,,,,,,,,,,,,,125.0,1.0,,,,,,
124,,no_response,,html-keyboard-response,124,87410,0.0-1.0-14.0-0.14-4.14-0.14,1,0,1,,,,,,,,,,,,,,,,,,,,,,,,,,,,,,,,,,,,,,126.0,1.0,,,,,,
125,,iti,,html-keyboard-response,125,87529,0.0-1.0-14.0-0.14-5.14,0,0,1,,,,,,,,,,,,,,,,,,,,,,,,,,,,,,,,,,,,,,129.5,3.5,,,,,,
126,,choice,,html-keyboard-response,126,89036,0.0-1.0-14.0-0.15-0.15,0,0,1,,,,,,12.0,312.0,3000.0,3000.0,0.0,6.0,0.0,60-80,,1.0,seashell,lipstick,80.0,60.0,seashell5,lipstick2,80.0,40.0,429345994_b87bb03366.jpg,11uuoPMY+OL._SS500_.jpg,/static/Category_learning/Stimuli/Experimental_stims/seashell/429345994_b87bb03366.jpg,/static/Category_learning/Stimuli/Experimental_stims/lipstick/11uuoPMY+OL._SS500_.jpg,,,,,,,,,,1.0,131.0,1.5,,,,,,
127,,isi,,html-keyboard-response,127,89143,0.0-1.0-14.0-0.15-2.15,0,0,1,,,,,,,,,,,,,,,,,,,,,,,,,,,,,,,,,,,,,,132.0,1.0,,,,,,
128,,no_response,,html-keyboard-response,128,90146,0.0-1.0-14.0-0.15-4.15-0.15,1,0,1,,,,,,,,,,,,,,,,,,,,,,,,,,,,,,,,,,,,,,133.0,1.0,,,,,,
129,,iti,,html-keyboard-response,129,90263,0.0-1.0-14.0-0.15-5.15,0,0,1,,,,,,,,,,,,,,,,,,,,,,,,,,,,,,,,,,,,,,134.0,1.0,,,,,,
130,,choice,,html-keyboard-response,130,91767,0.0-1.0-14.0-0.16-0.16,0,0,1,,,,,,12.0,312.0,3000.0,3000.0,0.0,6.0,0.0,60-80,,1.0,seashell,lipstick,80.0,60.0,seashell5,lipstick2,80.0,40.0,429345994_b87bb03366.jpg,11uuoPMY+OL._SS500_.jpg,/static/Category_learning/Stimuli/Experimental_stims/seashell/429345994_b87bb03366.jpg,/static/Category_learning/Stimuli/Experimental_stims/lipstick/11uuoPMY+OL._SS500_.jpg,,,,,,,,,,1.0,135.5,1.5,,,,,,
131,,isi,,html-keyboard-response,131,91873,0.0-1.0-14.0-0.16-2.16,0,0,1,,,,,,,,,,,,,,,,,,,,,,,,,,,,,,,,,,,,,,136.5,1.0,,,,,,
132,,no_response,,html-keyboard-response,132,92877,0.0-1.0-14.0-0.16-4.16-0.16,1,0,1,,,,,,,,,,,,,,,,,,,,,,,,,,,,,,,,,,,,,,137.5,1.0,,,,,,
133,,iti,,html-keyboard-response,133,92993,0.0-1.0-14.0-0.16-5.16,0,0,1,,,,,,,,,,,,,,,,,,,,,,,,,,,,,,,,,,,,,,138.5,1.0,,,,,,
134,,choice,,html-keyboard-response,134,94498,0.0-1.0-14.0-0.17-0.17,0,0,1,,,,,,12.0,312.0,3000.0,3000.0,0.0,6.0,0.0,60-80,,1.0,seashell,lipstick,80.0,60.0,seashell5,lipstick2,80.0,40.0,429345994_b87bb03366.jpg,11uuoPMY+OL._SS500_.jpg,/static/Category_learning/Stimuli/Experimental_stims/seashell/429345994_b87bb03366.jpg,/static/Category_learning/Stimuli/Experimental_stims/lipstick/11uuoPMY+OL._SS500_.jpg,,,,,,,,,,1.0,140.0,1.5,,,,,,
135,,isi,,html-keyboard-response,135,94604,0.0-1.0-14.0-0.17-2.17,0,0,1,,,,,,,,,,,,,,,,,,,,,,,,,,,,,,,,,,,,,,142.0,2.0,,,,,,
136,,no_response,,html-keyboard-response,136,95607,0.0-1.0-14.0-0.17-4.17-0.17,1,0,1,,,,,,,,,,,,,,,,,,,,,,,,,,,,,,,,,,,,,,143.0,1.0,,,,,,
137,,iti,,html-keyboard-response,137,95724,0.0-1.0-14.0-0.17-5.17,0,0,1,,,,,,,,,,,,,,,,,,,,,,,,,,,,,,,,,,,,,,144.5,1.5,,,,,,
138,,choice,,html-keyboard-response,138,97229,0.0-1.0-14.0-0.18-0.18,0,0,1,,,,,,12.0,312.0,3000.0,3000.0,0.0,6.0,0.0,60-80,,1.0,seashell,lipstick,80.0,60.0,seashell5,lipstick2,80.0,40.0,429345994_b87bb03366.jpg,11uuoPMY+OL._SS500_.jpg,/static/Category_learning/Stimuli/Experimental_stims/seashell/429345994_b87bb03366.jpg,/static/Category_learning/Stimuli/Experimental_stims/lipstick/11uuoPMY+OL._SS500_.jpg,,,,,,,,,,1.0,146.0,1.5,,,,,,
139,,isi,,html-keyboard-response,139,97335,0.0-1.0-14.0-0.18-2.18,0,0,1,,,,,,,,,,,,,,,,,,,,,,,,,,,,,,,,,,,,,,147.5,1.5,,,,,,
140,,no_response,,html-keyboard-response,140,98340,0.0-1.0-14.0-0.18-4.18-0.18,1,0,1,,,,,,,,,,,,,,,,,,,,,,,,,,,,,,,,,,,,,,148.5,1.0,,,,,,
141,,iti,,html-keyboard-response,141,98460,0.0-1.0-14.0-0.18-5.18,0,0,1,,,,,,,,,,,,,,,,,,,,,,,,,,,,,,,,,,,,,,150.0,1.5,,,,,,
142,,choice,,html-keyboard-response,142,99964,0.0-1.0-14.0-0.19-0.19,0,0,1,,,,,,12.0,312.0,3000.0,3000.0,0.0,6.0,0.0,60-80,,1.0,seashell,lipstick,80.0,60.0,seashell5,lipstick2,80.0,40.0,429345994_b87bb03366.jpg,11uuoPMY+OL._SS500_.jpg,/static/Category_learning/Stimuli/Experimental_stims/seashell/429345994_b87bb03366.jpg,/static/Category_learning/Stimuli/Experimental_stims/lipstick/11uuoPMY+OL._SS500_.jpg,,,,,,,,,,1.0,151.5,1.5,,,,,,
143,,isi,,html-keyboard-response,143,100071,0.0-1.0-14.0-0.19-2.19,0,0,1,,,,,,,,,,,,,,,,,,,,,,,,,,,,,,,,,,,,,,153.0,1.5,,,,,,
144,,no_response,,html-keyboard-response,144,101078,0.0-1.0-14.0-0.19-4.19-0.19,1,0,1,,,,,,,,,,,,,,,,,,,,,,,,,,,,,,,,,,,,,,154.0,1.0,,,,,,
145,,iti,,html-keyboard-response,145,101207,0.0-1.0-14.0-0.19-5.19,0,0,1,,,,,,,,,,,,,,,,,,,,,,,,,,,,,,,,,,,,,,155.0,1.0,,,,,,
146,,choice,,html-keyboard-response,146,102715,0.0-1.0-14.0-0.20-0.20,0,0,1,,,,,,12.0,312.0,3000.0,3000.0,0.0,6.0,0.0,60-80,,1.0,seashell,lipstick,80.0,60.0,seashell5,lipstick2,80.0,40.0,429345994_b87bb03366.jpg,11uuoPMY+OL._SS500_.jpg,/static/Category_learning/Stimuli/Experimental_stims/seashell/429345994_b87bb03366.jpg,/static/Category_learning/Stimuli/Experimental_stims/lipstick/11uuoPMY+OL._SS500_.jpg,,,,,,,,,,1.0,156.5,1.5,,,,,,
147,,isi,,html-keyboard-response,147,102820,0.0-1.0-14.0-0.20-2.20,0,0,1,,,,,,,,,,,,,,,,,,,,,,,,,,,,,,,,,,,,,,158.5,2.0,,,,,,
148,,no_response,,html-keyboard-response,148,103826,0.0-1.0-14.0-0.20-4.20-0.20,1,0,1,,,,,,,,,,,,,,,,,,,,,,,,,,,,,,,,,,,,,,159.5,1.0,,,,,,
149,,iti,,html-keyboard-response,149,103941,0.0-1.0-14.0-0.20-5.20,0,0,1,,,,,,,,,,,,,,,,,,,,,,,,,,,,,,,,,,,,,,161.5,2.0,,,,,,
150,,choice,,html-keyboard-response,150,105448,0.0-1.0-14.0-0.21-0.21,0,0,1,,,,,,12.0,312.0,3000.0,3000.0,0.0,6.0,0.0,60-80,,1.0,seashell,lipstick,80.0,60.0,seashell5,lipstick2,80.0,40.0,429345994_b87bb03366.jpg,11uuoPMY+OL._SS500_.jpg,/static/Category_learning/Stimuli/Experimental_stims/seashell/429345994_b87bb03366.jpg,/static/Category_learning/Stimuli/Experimental_stims/lipstick/11uuoPMY+OL._SS500_.jpg,,,,,,,,,,1.0,163.0,1.5,,,,,,
151,,isi,,html-keyboard-response,151,105554,0.0-1.0-14.0-0.21-2.21,0,0,1,,,,,,,,,,,,,,,,,,,,,,,,,,,,,,,,,,,,,,164.0,1.0,,,,,,
152,,no_response,,html-keyboard-response,152,106562,0.0-1.0-14.0-0.21-4.21-0.21,1,0,1,,,,,,,,,,,,,,,,,,,,,,,,,,,,,,,,,,,,,,165.0,1.0,,,,,,
153,,iti,,html-keyboard-response,153,106680,0.0-1.0-14.0-0.21-5.21,0,0,1,,,,,,,,,,,,,,,,,,,,,,,,,,,,,,,,,,,,,,166.5,1.5,,,,,,
154,,choice,,html-keyboard-response,154,108189,0.0-1.0-14.0-0.22-0.22,0,0,1,,,,,,12.0,312.0,3000.0,3000.0,0.0,6.0,0.0,60-80,,1.0,seashell,lipstick,80.0,60.0,seashell5,lipstick2,80.0,40.0,429345994_b87bb03366.jpg,11uuoPMY+OL._SS500_.jpg,/static/Category_learning/Stimuli/Experimental_stims/seashell/429345994_b87bb03366.jpg,/static/Category_learning/Stimuli/Experimental_stims/lipstick/11uuoPMY+OL._SS500_.jpg,,,,,,,,,,1.0,168.0,1.5,,,,,,
155,,isi,,html-keyboard-response,155,108296,0.0-1.0-14.0-0.22-2.22,0,0,1,,,,,,,,,,,,,,,,,,,,,,,,,,,,,,,,,,,,,,169.0,1.0,,,,,,
156,,no_response,,html-keyboard-response,156,109299,0.0-1.0-14.0-0.22-4.22-0.22,1,0,1,,,,,,,,,,,,,,,,,,,,,,,,,,,,,,,,,,,,,,170.0,1.0,,,,,,
157,,iti,,html-keyboard-response,157,109416,0.0-1.0-14.0-0.22-5.22,0,0,1,,,,,,,,,,,,,,,,,,,,,,,,,,,,,,,,,,,,,,171.5,1.5,,,,,,
158,,choice,,html-keyboard-response,158,110925,0.0-1.0-14.0-0.23-0.23,0,0,1,,,,,,12.0,312.0,3000.0,3000.0,0.0,6.0,0.0,60-80,,1.0,seashell,lipstick,80.0,60.0,seashell5,lipstick2,80.0,40.0,429345994_b87bb03366.jpg,11uuoPMY+OL._SS500_.jpg,/static/Category_learning/Stimuli/Experimental_stims/seashell/429345994_b87bb03366.jpg,/static/Category_learning/Stimuli/Experimental_stims/lipstick/11uuoPMY+OL._SS500_.jpg,,,,,,,,,,1.0,173.0,1.5,,,,,,
159,,isi,,html-keyboard-response,159,111028,0.0-1.0-14.0-0.23-2.23,0,0,1,,,,,,,,,,,,,,,,,,,,,,,,,,,,,,,,,,,,,,175.0,2.0,,,,,,
160,,no_response,,html-keyboard-response,160,112036,0.0-1.0-14.0-0.23-4.23-0.23,1,0,1,,,,,,,,,,,,,,,,,,,,,,,,,,,,,,,,,,,,,,176.0,1.0,,,,,,
161,,iti,,html-keyboard-response,161,112154,0.0-1.0-14.0-0.23-5.23,0,0,1,,,,,,,,,,,,,,,,,,,,,,,,,,,,,,,,,,,,,,177.0,1.0,,,,,,
162,,choice,,html-keyboard-response,162,113659,0.0-1.0-14.0-0.24-0.24,0,0,1,,,,,,12.0,312.0,3000.0,3000.0,0.0,6.0,0.0,60-80,,1.0,seashell,lipstick,80.0,60.0,seashell5,lipstick2,80.0,40.0,429345994_b87bb03366.jpg,11uuoPMY+OL._SS500_.jpg,/static/Category_learning/Stimuli/Experimental_stims/seashell/429345994_b87bb03366.jpg,/static/Category_learning/Stimuli/Experimental_stims/lipstick/11uuoPMY+OL._SS500_.jpg,,,,,,,,,,1.0,178.5,1.5,,,,,,
163,,isi,,html-keyboard-response,163,113765,0.0-1.0-14.0-0.24-2.24,0,0,1,,,,,,,,,,,,,,,,,,,,,,,,,,,,,,,,,,,,,,179.5,1.0,,,,,,
164,,no_response,,html-keyboard-response,164,114769,0.0-1.0-14.0-0.24-4.24-0.24,1,0,1,,,,,,,,,,,,,,,,,,,,,,,,,,,,,,,,,,,,,,180.5,1.0,,,,,,
165,,iti,,html-keyboard-response,165,114886,0.0-1.0-14.0-0.24-5.24,0,0,1,,,,,,,,,,,,,,,,,,,,,,,,,,,,,,,,,,,,,,183.5,3.0,,,,,,
166,,choice,,html-keyboard-response,166,116390,0.0-1.0-14.0-0.25-0.25,0,0,1,,,,,,12.0,312.0,3000.0,3000.0,0.0,6.0,0.0,60-80,,1.0,seashell,lipstick,80.0,60.0,seashell5,lipstick2,80.0,40.0,429345994_b87bb03366.jpg,11uuoPMY+OL._SS500_.jpg,/static/Category_learning/Stimuli/Experimental_stims/seashell/429345994_b87bb03366.jpg,/static/Category_learning/Stimuli/Experimental_stims/lipstick/11uuoPMY+OL._SS500_.jpg,,,,,,,,,,1.0,185.0,1.5,,,,,,
167,,isi,,html-keyboard-response,167,116497,0.0-1.0-14.0-0.25-2.25,0,0,1,,,,,,,,,,,,,,,,,,,,,,,,,,,,,,,,,,,,,,186.0,1.0,,,,,,
168,,no_response,,html-keyboard-response,168,117500,0.0-1.0-14.0-0.25-4.25-0.25,1,0,1,,,,,,,,,,,,,,,,,,,,,,,,,,,,,,,,,,,,,,187.0,1.0,,,,,,
169,,iti,,html-keyboard-response,169,117623,0.0-1.0-14.0-0.25-5.25,0,0,1,,,,,,,,,,,,,,,,,,,,,,,,,,,,,,,,,,,,,,188.5,1.5,,,,,,
170,,choice,,html-keyboard-response,170,119129,0.0-1.0-14.0-0.26-0.26,0,0,1,,,,,,12.0,312.0,3000.0,3000.0,0.0,6.0,0.0,60-80,,1.0,seashell,lipstick,80.0,60.0,seashell5,lipstick2,80.0,40.0,429345994_b87bb03366.jpg,11uuoPMY+OL._SS500_.jpg,/static/Category_learning/Stimuli/Experimental_stims/seashell/429345994_b87bb03366.jpg,/static/Category_learning/Stimuli/Experimental_stims/lipstick/11uuoPMY+OL._SS500_.jpg,,,,,,,,,,1.0,190.0,1.5,,,,,,
171,,isi,,html-keyboard-response,171,119236,0.0-1.0-14.0-0.26-2.26,0,0,1,,,,,,,,,,,,,,,,,,,,,,,,,,,,,,,,,,,,,,191.5,1.5,,,,,,
172,,no_response,,html-keyboard-response,172,120242,0.0-1.0-14.0-0.26-4.26-0.26,1,0,1,,,,,,,,,,,,,,,,,,,,,,,,,,,,,,,,,,,,,,192.5,1.0,,,,,,
173,,iti,,html-keyboard-response,173,120360,0.0-1.0-14.0-0.26-5.26,0,0,1,,,,,,,,,,,,,,,,,,,,,,,,,,,,,,,,,,,,,,194.5,2.0,,,,,,
174,,choice,,html-keyboard-response,174,121867,0.0-1.0-14.0-0.27-0.27,0,0,1,,,,,,12.0,312.0,3000.0,3000.0,0.0,6.0,0.0,60-80,,1.0,seashell,lipstick,80.0,60.0,seashell5,lipstick2,80.0,40.0,429345994_b87bb03366.jpg,11uuoPMY+OL._SS500_.jpg,/static/Category_learning/Stimuli/Experimental_stims/seashell/429345994_b87bb03366.jpg,/static/Category_learning/Stimuli/Experimental_stims/lipstick/11uuoPMY+OL._SS500_.jpg,,,,,,,,,,1.0,196.0,1.5,,,,,,
175,,isi,,html-keyboard-response,175,121971,0.0-1.0-14.0-0.27-2.27,0,0,1,,,,,,,,,,,,,,,,,,,,,,,,,,,,,,,,,,,,,,199.5,3.5,,,,,,
176,,no_response,,html-keyboard-response,176,122978,0.0-1.0-14.0-0.27-4.27-0.27,1,0,1,,,,,,,,,,,,,,,,,,,,,,,,,,,,,,,,,,,,,,200.5,1.0,,,,,,
177,,iti,,html-keyboard-response,177,123096,0.0-1.0-14.0-0.27-5.27,0,0,1,,,,,,,,,,,,,,,,,,,,,,,,,,,,,,,,,,,,,,202.5,2.0,,,,,,
178,,choice,,html-keyboard-response,178,124602,0.0-1.0-14.0-0.28-0.28,0,0,1,,,,,,12.0,312.0,3000.0,3000.0,0.0,6.0,0.0,60-80,,1.0,seashell,lipstick,80.0,60.0,seashell5,lipstick2,80.0,40.0,429345994_b87bb03366.jpg,11uuoPMY+OL._SS500_.jpg,/static/Category_learning/Stimuli/Experimental_stims/seashell/429345994_b87bb03366.jpg,/static/Category_learning/Stimuli/Experimental_stims/lipstick/11uuoPMY+OL._SS500_.jpg,,,,,,,,,,1.0,204.0,1.5,,,,,,
179,,isi,,html-keyboard-response,179,124708,0.0-1.0-14.0-0.28-2.28,0,0,1,,,,,,,,,,,,,,,,,,,,,,,,,,,,,,,,,,,,,,205.0,1.0,,,,,,
180,,no_response,,html-keyboard-response,180,125714,0.0-1.0-14.0-0.28-4.28-0.28,1,0,1,,,,,,,,,,,,,,,,,,,,,,,,,,,,,,,,,,,,,,206.0,1.0,,,,,,
181,,iti,,html-keyboard-response,181,125832,0.0-1.0-14.0-0.28-5.28,0,0,1,,,,,,,,,,,,,,,,,,,,,,,,,,,,,,,,,,,,,,208.0,2.0,,,,,,
182,,choice,,html-keyboard-response,182,127341,0.0-1.0-14.0-0.29-0.29,0,0,1,,,,,,12.0,312.0,3000.0,3000.0,0.0,6.0,0.0,60-80,,1.0,seashell,lipstick,80.0,60.0,seashell5,lipstick2,80.0,40.0,429345994_b87bb03366.jpg,11uuoPMY+OL._SS500_.jpg,/static/Category_learning/Stimuli/Experimental_stims/seashell/429345994_b87bb03366.jpg,/static/Category_learning/Stimuli/Experimental_stims/lipstick/11uuoPMY+OL._SS500_.jpg,,,,,,,,,,1.0,209.5,1.5,,,,,,
183,,isi,,html-keyboard-response,183,127444,0.0-1.0-14.0-0.29-2.29,0,0,1,,,,,,,,,,,,,,,,,,,,,,,,,,,,,,,,,,,,,,211.5,2.0,,,,,,
184,,no_response,,html-keyboard-response,184,128452,0.0-1.0-14.0-0.29-4.29-0.29,1,0,1,,,,,,,,,,,,,,,,,,,,,,,,,,,,,,,,,,,,,,212.5,1.0,,,,,,
185,,iti,,html-keyboard-response,185,128569,0.0-1.0-14.0-0.29-5.29,0,0,1,,,,,,,,,,,,,,,,,,,,,,,,,,,,,,,,,,,,,,214.0,1.5,,,,,,
186,,choice,,html-keyboard-response,186,130073,0.0-1.0-14.0-0.30-0.30,0,0,1,,,,,,12.0,312.0,3000.0,3000.0,0.0,6.0,0.0,60-80,,1.0,seashell,lipstick,80.0,60.0,seashell5,lipstick2,80.0,40.0,429345994_b87bb03366.jpg,11uuoPMY+OL._SS500_.jpg,/static/Category_learning/Stimuli/Experimental_stims/seashell/429345994_b87bb03366.jpg,/static/Category_learning/Stimuli/Experimental_stims/lipstick/11uuoPMY+OL._SS500_.jpg,,,,,,,,,,1.0,215.5,1.5,,,,,,
187,,isi,,html-keyboard-response,187,130180,0.0-1.0-14.0-0.30-2.30,0,0,1,,,,,,,,,,,,,,,,,,,,,,,,,,,,,,,,,,,,,,217.0,1.5,,,,,,
188,,no_response,,html-keyboard-response,188,131183,0.0-1.0-14.0-0.30-4.30-0.30,1,0,1,,,,,,,,,,,,,,,,,,,,,,,,,,,,,,,,,,,,,,218.0,1.0,,,,,,
189,,iti,,html-keyboard-response,189,131301,0.0-1.0-14.0-0.30-5.30,0,0,1,,,,,,,,,,,,,,,,,,,,,,,,,,,,,,,,,,,,,,219.0,1.0,,,,,,
190,,choice,,html-keyboard-response,190,132806,0.0-1.0-14.0-0.31-0.31,0,0,1,,,,,,12.0,312.0,3000.0,3000.0,0.0,6.0,0.0,60-80,,1.0,seashell,lipstick,80.0,60.0,seashell5,lipstick2,80.0,40.0,429345994_b87bb03366.jpg,11uuoPMY+OL._SS500_.jpg,/static/Category_learning/Stimuli/Experimental_stims/seashell/429345994_b87bb03366.jpg,/static/Category_learning/Stimuli/Experimental_stims/lipstick/11uuoPMY+OL._SS500_.jpg,,,,,,,,,,1.0,220.5,1.5,,,,,,
191,,isi,,html-keyboard-response,191,132911,0.0-1.0-14.0-0.31-2.31,0,0,1,,,,,,,,,,,,,,,,,,,,,,,,,,,,,,,,,,,,,,221.5,1.0,,,,,,
192,,no_response,,html-keyboard-response,192,133917,0.0-1.0-14.0-0.31-4.31-0.31,1,0,1,,,,,,,,,,,,,,,,,,,,,,,,,,,,,,,,,,,,,,222.5,1.0,,,,,,
193,,iti,,html-keyboard-response,193,134037,0.0-1.0-14.0-0.31-5.31,0,0,1,,,,,,,,,,,,,,,,,,,,,,,,,,,,,,,,,,,,,,225.5,3.0,,,,,,
194,,choice,,html-keyboard-response,194,135542,0.0-1.0-14.0-0.32-0.32,0,0,1,,,,,,12.0,312.0,3000.0,3000.0,0.0,6.0,0.0,60-80,,1.0,seashell,lipstick,80.0,60.0,seashell5,lipstick2,80.0,40.0,429345994_b87bb03366.jpg,11uuoPMY+OL._SS500_.jpg,/static/Category_learning/Stimuli/Experimental_stims/seashell/429345994_b87bb03366.jpg,/static/Category_learning/Stimuli/Experimental_stims/lipstick/11uuoPMY+OL._SS500_.jpg,,,,,,,,,,1.0,227.0,1.5,,,,,,
195,,isi,,html-keyboard-response,195,135648,0.0-1.0-14.0-0.32-2.32,0,0,1,,,,,,,,,,,,,,,,,,,,,,,,,,,,,,,,,,,,,,228.0,1.0,,,,,,
196,,no_response,,html-keyboard-response,196,136651,0.0-1.0-14.0-0.32-4.32-0.32,1,0,1,,,,,,,,,,,,,,,,,,,,,,,,,,,,,,,,,,,,,,229.0,1.0,,,,,,
197,,iti,,html-keyboard-response,197,136770,0.0-1.0-14.0-0.32-5.32,0,0,1,,,,,,,,,,,,,,,,,,,,,,,,,,,,,,,,,,,,,,231.0,2.0,,,,,,
198,,choice,,html-keyboard-response,198,137692,0.0-1.0-14.0-0.33-0.33,0,0,1,,919.0,,,50.0,12.0,312.0,3000.0,3000.0,0.0,6.0,0.0,60-80,,1.0,seashell,lipstick,80.0,60.0,seashell5,lipstick2,80.0,40.0,429345994_b87bb03366.jpg,11uuoPMY+OL._SS500_.jpg,/static/Category_learning/Stimuli/Experimental_stims/seashell/429345994_b87bb03366.jpg,/static/Category_learning/Stimuli/Experimental_stims/lipstick/11uuoPMY+OL._SS500_.jpg,1.0,seashell,lipstick,80.0,60.0,seashell5,lipstick2,80.0,40.0,0.0,231.919,0.919,,,,,,
199,,confirmation,,html-keyboard-response,199,138277,0.0-1.0-14.0-0.33-1.33-0.33,0,0,1,,,,,,12.0,,,,,,,,,,,,,,,,,,,,,,,,,,,,,,,,232.5,0.581,,,,,,
200,,isi,,html-keyboard-response,200,138380,0.0-1.0-14.0-0.33-2.33,0,0,1,,,,,,,,,,,,,,,,,,,,,,,,,,,,,,,,,,,,,,234.0,1.5,,,,,,
201,,feedback,,html-keyboard-response,201,139387,0.0-1.0-14.0-0.33-3.33-0.33,0,0,1,,,,,,12.0,,,,,,,,,,,,,,,,,,,,,,,,,,,,,,,,235.0,1.0,,,,,,
202,,iti,,html-keyboard-response,202,139494,0.0-1.0-14.0-0.33-5.33,0,0,1,,,,,,,,,,,,,,,,,,,,,,,,,,,,,,,,,,,,,,237.0,2.0,,,,,,
203,,choice,,html-keyboard-response,203,141003,0.0-1.0-15.0-0.0-0.0,0,0,1,,,,,,13.0,313.0,3000.0,1000.0,0.0,6.0,0.0,40-40,,,bowl,flashlight,40.0,40.0,bowl8,flashlight15,20.0,40.0,ASLVBOWL.jpg,freeplay-xray-wind-up-led-flashlight.jpg,/static/Category_learning/Stimuli/Experimental_stims/bowl/ASLVBOWL.jpg,/static/Category_learning/Stimuli/Experimental_stims/flashlight/freeplay-xray-wind-up-led-flashlight.jpg,,,,,,,,,,1.0,238.5,1.5,,,,,,
204,,isi,,html-keyboard-response,204,141109,0.0-1.0-15.0-0.0-2.0,0,0,1,,,,,,,,,,,,,,,,,,,,,,,,,,,,,,,,,,,,,,241.5,3.0,,,,,,
205,,no_response,,html-keyboard-response,205,142112,0.0-1.0-15.0-0.0-4.0-0.0,1,0,1,,,,,,,,,,,,,,,,,,,,,,,,,,,,,,,,,,,,,,242.5,1.0,,,,,,
206,,iti,,html-keyboard-response,206,142232,0.0-1.0-15.0-0.0-5.0,0,0,1,,,,,,,,,,,,,,,,,,,,,,,,,,,,,,,,,,,,,,243.5,1.0,,,,,,
207,,choice,,html-keyboard-response,207,143739,0.0-1.0-15.0-0.1-0.1,0,0,1,,,,,,13.0,313.0,3000.0,1000.0,0.0,6.0,0.0,40-40,,,bowl,flashlight,40.0,40.0,bowl8,flashlight15,20.0,40.0,ASLVBOWL.jpg,freeplay-xray-wind-up-led-flashlight.jpg,/static/Category_learning/Stimuli/Experimental_stims/bowl/ASLVBOWL.jpg,/static/Category_learning/Stimuli/Experimental_stims/flashlight/freeplay-xray-wind-up-led-flashlight.jpg,,,,,,,,,,1.0,245.0,1.5,,,,,,
208,,isi,,html-keyboard-response,208,143847,0.0-1.0-15.0-0.1-2.1,0,0,1,,,,,,,,,,,,,,,,,,,,,,,,,,,,,,,,,,,,,,246.0,1.0,,,,,,
209,,no_response,,html-keyboard-response,209,144853,0.0-1.0-15.0-0.1-4.1-0.1,1,0,1,,,,,,,,,,,,,,,,,,,,,,,,,,,,,,,,,,,,,,247.0,1.0,,,,,,
210,,iti,,html-keyboard-response,210,144977,0.0-1.0-15.0-0.1-5.1,0,0,1,,,,,,,,,,,,,,,,,,,,,,,,,,,,,,,,,,,,,,250.5,3.5,,,,,,
211,,choice,,html-keyboard-response,211,146483,0.0-1.0-15.0-0.2-0.2,0,0,1,,,,,,13.0,313.0,3000.0,1000.0,0.0,6.0,0.0,40-40,,,bowl,flashlight,40.0,40.0,bowl8,flashlight15,20.0,40.0,ASLVBOWL.jpg,freeplay-xray-wind-up-led-flashlight.jpg,/static/Category_learning/Stimuli/Experimental_stims/bowl/ASLVBOWL.jpg,/static/Category_learning/Stimuli/Experimental_stims/flashlight/freeplay-xray-wind-up-led-flashlight.jpg,,,,,,,,,,1.0,252.0,1.5,,,,,,
212,,isi,,html-keyboard-response,212,146587,0.0-1.0-15.0-0.2-2.2,0,0,1,,,,,,,,,,,,,,,,,,,,,,,,,,,,,,,,,,,,,,253.5,1.5,,,,,,
213,,no_response,,html-keyboard-response,213,147591,0.0-1.0-15.0-0.2-4.2-0.2,1,0,1,,,,,,,,,,,,,,,,,,,,,,,,,,,,,,,,,,,,,,254.5,1.0,,,,,,
214,,iti,,html-keyboard-response,214,147711,0.0-1.0-15.0-0.2-5.2,0,0,1,,,,,,,,,,,,,,,,,,,,,,,,,,,,,,,,,,,,,,255.5,1.0,,,,,,
215,,choice,,html-keyboard-response,215,149216,0.0-1.0-15.0-0.3-0.3,0,0,1,,,,,,13.0,313.0,3000.0,1000.0,0.0,6.0,0.0,40-40,,,bowl,flashlight,40.0,40.0,bowl8,flashlight15,20.0,40.0,ASLVBOWL.jpg,freeplay-xray-wind-up-led-flashlight.jpg,/static/Category_learning/Stimuli/Experimental_stims/bowl/ASLVBOWL.jpg,/static/Category_learning/Stimuli/Experimental_stims/flashlight/freeplay-xray-wind-up-led-flashlight.jpg,,,,,,,,,,1.0,257.0,1.5,,,,,,
216,,isi,,html-keyboard-response,216,149323,0.0-1.0-15.0-0.3-2.3,0,0,1,,,,,,,,,,,,,,,,,,,,,,,,,,,,,,,,,,,,,,259.0,2.0,,,,,,
217,,no_response,,html-keyboard-response,217,150329,0.0-1.0-15.0-0.3-4.3-0.3,1,0,1,,,,,,,,,,,,,,,,,,,,,,,,,,,,,,,,,,,,,,260.0,1.0,,,,,,
218,,iti,,html-keyboard-response,218,150449,0.0-1.0-15.0-0.3-5.3,0,0,1,,,,,,,,,,,,,,,,,,,,,,,,,,,,,,,,,,,,,,261.0,1.0,,,,,,
219,,choice,,html-keyboard-response,219,151953,0.0-1.0-15.0-0.4-0.4,0,0,1,,,,,,13.0,313.0,3000.0,1000.0,0.0,6.0,0.0,40-40,,,bowl,flashlight,40.0,40.0,bowl8,flashlight15,20.0,40.0,ASLVBOWL.jpg,freeplay-xray-wind-up-led-flashlight.jpg,/static/Category_learning/Stimuli/Experimental_stims/bowl/ASLVBOWL.jpg,/static/Category_learning/Stimuli/Experimental_stims/flashlight/freeplay-xray-wind-up-led-flashlight.jpg,,,,,,,,,,1.0,262.5,1.5,,,,,,
220,,isi,,html-keyboard-response,220,152059,0.0-1.0-15.0-0.4-2.4,0,0,1,,,,,,,,,,,,,,,,,,,,,,,,,,,,,,,,,,,,,,264.0,1.5,,,,,,
221,,no_response,,html-keyboard-response,221,153065,0.0-1.0-15.0-0.4-4.4-0.4,1,0,1,,,,,,,,,,,,,,,,,,,,,,,,,,,,,,,,,,,,,,265.0,1.0,,,,,,
222,,iti,,html-keyboard-response,222,153185,0.0-1.0-15.0-0.4-5.4,0,0,1,,,,,,,,,,,,,,,,,,,,,,,,,,,,,,,,,,,,,,266.0,1.0,,,,,,
223,,choice,,html-keyboard-response,223,154693,0.0-1.0-15.0-0.5-0.5,0,0,1,,,,,,13.0,313.0,3000.0,1000.0,0.0,6.0,0.0,40-40,,,bowl,flashlight,40.0,40.0,bowl8,flashlight15,20.0,40.0,ASLVBOWL.jpg,freeplay-xray-wind-up-led-flashlight.jpg,/static/Category_learning/Stimuli/Experimental_stims/bowl/ASLVBOWL.jpg,/static/Category_learning/Stimuli/Experimental_stims/flashlight/freeplay-xray-wind-up-led-flashlight.jpg,,,,,,,,,,1.0,267.5,1.5,,,,,,
224,,isi,,html-keyboard-response,224,154801,0.0-1.0-15.0-0.5-2.5,0,0,1,,,,,,,,,,,,,,,,,,,,,,,,,,,,,,,,,,,,,,271.0,3.5,,,,,,
225,,no_response,,html-keyboard-response,225,155803,0.0-1.0-15.0-0.5-4.5-0.5,1,0,1,,,,,,,,,,,,,,,,,,,,,,,,,,,,,,,,,,,,,,272.0,1.0,,,,,,
226,,iti,,html-keyboard-response,226,155921,0.0-1.0-15.0-0.5-5.5,0,0,1,,,,,,,,,,,,,,,,,,,,,,,,,,,,,,,,,,,,,,273.5,1.5,,,,,,
227,,choice,,html-keyboard-response,227,157427,0.0-1.0-15.0-0.6-0.6,0,0,1,,,,,,13.0,313.0,3000.0,1000.0,0.0,6.0,0.0,40-40,,,bowl,flashlight,40.0,40.0,bowl8,flashlight15,20.0,40.0,ASLVBOWL.jpg,freeplay-xray-wind-up-led-flashlight.jpg,/static/Category_learning/Stimuli/Experimental_stims/bowl/ASLVBOWL.jpg,/static/Category_learning/Stimuli/Experimental_stims/flashlight/freeplay-xray-wind-up-led-flashlight.jpg,,,,,,,,,,1.0,275.0,1.5,,,,,,
228,,isi,,html-keyboard-response,228,157533,0.0-1.0-15.0-0.6-2.6,0,0,1,,,,,,,,,,,,,,,,,,,,,,,,,,,,,,,,,,,,,,277.0,2.0,,,,,,
229,,no_response,,html-keyboard-response,229,158540,0.0-1.0-15.0-0.6-4.6-0.6,1,0,1,,,,,,,,,,,,,,,,,,,,,,,,,,,,,,,,,,,,,,278.0,1.0,,,,,,
230,,iti,,html-keyboard-response,230,158657,0.0-1.0-15.0-0.6-5.6,0,0,1,,,,,,,,,,,,,,,,,,,,,,,,,,,,,,,,,,,,,,280.0,2.0,,,,,,
231,,choice,,html-keyboard-response,231,160165,0.0-1.0-15.0-0.7-0.7,0,0,1,,,,,,13.0,313.0,3000.0,1000.0,0.0,6.0,0.0,40-40,,,bowl,flashlight,40.0,40.0,bowl8,flashlight15,20.0,40.0,ASLVBOWL.jpg,freeplay-xray-wind-up-led-flashlight.jpg,/static/Category_learning/Stimuli/Experimental_stims/bowl/ASLVBOWL.jpg,/static/Category_learning/Stimuli/Experimental_stims/flashlight/freeplay-xray-wind-up-led-flashlight.jpg,,,,,,,,,,1.0,281.5,1.5,,,,,,
232,,isi,,html-keyboard-response,232,160273,0.0-1.0-15.0-0.7-2.7,0,0,1,,,,,,,,,,,,,,,,,,,,,,,,,,,,,,,,,,,,,,282.5,1.0,,,,,,
233,,no_response,,html-keyboard-response,233,161280,0.0-1.0-15.0-0.7-4.7-0.7,1,0,1,,,,,,,,,,,,,,,,,,,,,,,,,,,,,,,,,,,,,,283.5,1.0,,,,,,
234,,iti,,html-keyboard-response,234,161398,0.0-1.0-15.0-0.7-5.7,0,0,1,,,,,,,,,,,,,,,,,,,,,,,,,,,,,,,,,,,,,,285.5,2.0,,,,,,
235,,choice,,html-keyboard-response,235,162905,0.0-1.0-15.0-0.8-0.8,0,0,1,,,,,,13.0,313.0,3000.0,1000.0,0.0,6.0,0.0,40-40,,,bowl,flashlight,40.0,40.0,bowl8,flashlight15,20.0,40.0,ASLVBOWL.jpg,freeplay-xray-wind-up-led-flashlight.jpg,/static/Category_learning/Stimuli/Experimental_stims/bowl/ASLVBOWL.jpg,/static/Category_learning/Stimuli/Experimental_stims/flashlight/freeplay-xray-wind-up-led-flashlight.jpg,,,,,,,,,,1.0,287.0,1.5,,,,,,
236,,isi,,html-keyboard-response,236,163009,0.0-1.0-15.0-0.8-2.8,0,0,1,,,,,,,,,,,,,,,,,,,,,,,,,,,,,,,,,,,,,,288.5,1.5,,,,,,
237,,no_response,,html-keyboard-response,237,164011,0.0-1.0-15.0-0.8-4.8-0.8,1,0,1,,,,,,,,,,,,,,,,,,,,,,,,,,,,,,,,,,,,,,289.5,1.0,,,,,,
238,,iti,,html-keyboard-response,238,164134,0.0-1.0-15.0-0.8-5.8,0,0,1,,,,,,,,,,,,,,,,,,,,,,,,,,,,,,,,,,,,,,291.5,2.0,,,,,,
239,,choice,,html-keyboard-response,239,165643,0.0-1.0-15.0-0.9-0.9,0,0,1,,,,,,13.0,313.0,3000.0,1000.0,0.0,6.0,0.0,40-40,,,bowl,flashlight,40.0,40.0,bowl8,flashlight15,20.0,40.0,ASLVBOWL.jpg,freeplay-xray-wind-up-led-flashlight.jpg,/static/Category_learning/Stimuli/Experimental_stims/bowl/ASLVBOWL.jpg,/static/Category_learning/Stimuli/Experimental_stims/flashlight/freeplay-xray-wind-up-led-flashlight.jpg,,,,,,,,,,1.0,293.0,1.5,,,,,,
240,,isi,,html-keyboard-response,240,165751,0.0-1.0-15.0-0.9-2.9,0,0,1,,,,,,,,,,,,,,,,,,,,,,,,,,,,,,,,,,,,,,296.5,3.5,,,,,,
241,,no_response,,html-keyboard-response,241,166758,0.0-1.0-15.0-0.9-4.9-0.9,1,0,1,,,,,,,,,,,,,,,,,,,,,,,,,,,,,,,,,,,,,,297.5,1.0,,,,,,
242,,iti,,html-keyboard-response,242,166876,0.0-1.0-15.0-0.9-5.9,0,0,1,,,,,,,,,,,,,,,,,,,,,,,,,,,,,,,,,,,,,,298.5,1.0,,,,,,
243,,choice,,html-keyboard-response,243,168383,0.0-1.0-15.0-0.10-0.10,0,0,1,,,,,,13.0,313.0,3000.0,1000.0,0.0,6.0,0.0,40-40,,,bowl,flashlight,40.0,40.0,bowl8,flashlight15,20.0,40.0,ASLVBOWL.jpg,freeplay-xray-wind-up-led-flashlight.jpg,/static/Category_learning/Stimuli/Experimental_stims/bowl/ASLVBOWL.jpg,/static/Category_learning/Stimuli/Experimental_stims/flashlight/freeplay-xray-wind-up-led-flashlight.jpg,,,,,,,,,,1.0,300.0,1.5,,,,,,
244,,isi,,html-keyboard-response,244,168489,0.0-1.0-15.0-0.10-2.10,0,0,1,,,,,,,,,,,,,,,,,,,,,,,,,,,,,,,,,,,,,,301.5,1.5,,,,,,
245,,no_response,,html-keyboard-response,245,169494,0.0-1.0-15.0-0.10-4.10-0.10,1,0,1,,,,,,,,,,,,,,,,,,,,,,,,,,,,,,,,,,,,,,302.5,1.0,,,,,,
246,,iti,,html-keyboard-response,246,169611,0.0-1.0-15.0-0.10-5.10,0,0,1,,,,,,,,,,,,,,,,,,,,,,,,,,,,,,,,,,,,,,303.5,1.0,,,,,,
247,,choice,,html-keyboard-response,247,171117,0.0-1.0-15.0-0.11-0.11,0,0,1,,,,,,13.0,313.0,3000.0,1000.0,0.0,6.0,0.0,40-40,,,bowl,flashlight,40.0,40.0,bowl8,flashlight15,20.0,40.0,ASLVBOWL.jpg,freeplay-xray-wind-up-led-flashlight.jpg,/static/Category_learning/Stimuli/Experimental_stims/bowl/ASLVBOWL.jpg,/static/Category_learning/Stimuli/Experimental_stims/flashlight/freeplay-xray-wind-up-led-flashlight.jpg,,,,,,,,,,1.0,305.0,1.5,,,,,,
248,,isi,,html-keyboard-response,248,171224,0.0-1.0-15.0-0.11-2.11,0,0,1,,,,,,,,,,,,,,,,,,,,,,,,,,,,,,,,,,,,,,307.0,2.0,,,,,,
249,,no_response,,html-keyboard-response,249,172230,0.0-1.0-15.0-0.11-4.11-0.11,1,0,1,,,,,,,,,,,,,,,,,,,,,,,,,,,,,,,,,,,,,,308.0,1.0,,,,,,
250,,iti,,html-keyboard-response,250,172349,0.0-1.0-15.0-0.11-5.11,0,0,1,,,,,,,,,,,,,,,,,,,,,,,,,,,,,,,,,,,,,,309.0,1.0,,,,,,
251,,choice,,html-keyboard-response,251,173856,0.0-1.0-15.0-0.12-0.12,0,0,1,,,,,,13.0,313.0,3000.0,1000.0,0.0,6.0,0.0,40-40,,,bowl,flashlight,40.0,40.0,bowl8,flashlight15,20.0,40.0,ASLVBOWL.jpg,freeplay-xray-wind-up-led-flashlight.jpg,/static/Category_learning/Stimuli/Experimental_stims/bowl/ASLVBOWL.jpg,/static/Category_learning/Stimuli/Experimental_stims/flashlight/freeplay-xray-wind-up-led-flashlight.jpg,,,,,,,,,,1.0,310.5,1.5,,,,,,
252,,isi,,html-keyboard-response,252,173964,0.0-1.0-15.0-0.12-2.12,0,0,1,,,,,,,,,,,,,,,,,,,,,,,,,,,,,,,,,,,,,,311.5,1.0,,,,,,
253,,no_response,,html-keyboard-response,253,174969,0.0-1.0-15.0-0.12-4.12-0.12,1,0,1,,,,,,,,,,,,,,,,,,,,,,,,,,,,,,,,,,,,,,312.5,1.0,,,,,,
254,,iti,,html-keyboard-response,254,175084,0.0-1.0-15.0-0.12-5.12,0,0,1,,,,,,,,,,,,,,,,,,,,,,,,,,,,,,,,,,,,,,315.5,3.0,,,,,,
255,,choice,,html-keyboard-response,255,176589,0.0-1.0-15.0-0.13-0.13,0,0,1,,,,,,13.0,313.0,3000.0,1000.0,0.0,6.0,0.0,40-40,,,bowl,flashlight,40.0,40.0,bowl8,flashlight15,20.0,40.0,ASLVBOWL.jpg,freeplay-xray-wind-up-led-flashlight.jpg,/static/Category_learning/Stimuli/Experimental_stims/bowl/ASLVBOWL.jpg,/static/Category_learning/Stimuli/Experimental_stims/flashlight/freeplay-xray-wind-up-led-flashlight.jpg,,,,,,,,,,1.0,317.0,1.5,,,,,,
256,,isi,,html-keyboard-response,256,176697,0.0-1.0-15.0-0.13-2.13,0,0,1,,,,,,,,,,,,,,,,,,,,,,,,,,,,,,,,,,,,,,319.0,2.0,,,,,,
257,,no_response,,html-keyboard-response,257,177702,0.0-1.0-15.0-0.13-4.13-0.13,1,0,1,,,,,,,,,,,,,,,,,,,,,,,,,,,,,,,,,,,,,,320.0,1.0,,,,,,
258,,iti,,html-keyboard-response,258,177820,0.0-1.0-15.0-0.13-5.13,0,0,1,,,,,,,,,,,,,,,,,,,,,,,,,,,,,,,,,,,,,,321.0,1.0,,,,,,
259,,choice,,html-keyboard-response,259,179327,0.0-1.0-15.0-0.14-0.14,0,0,1,,,,,,13.0,313.0,3000.0,1000.0,0.0,6.0,0.0,40-40,,,bowl,flashlight,40.0,40.0,bowl8,flashlight15,20.0,40.0,ASLVBOWL.jpg,freeplay-xray-wind-up-led-flashlight.jpg,/static/Category_learning/Stimuli/Experimental_stims/bowl/ASLVBOWL.jpg,/static/Category_learning/Stimuli/Experimental_stims/flashlight/freeplay-xray-wind-up-led-flashlight.jpg,,,,,,,,,,1.0,322.5,1.5,,,,,,
260,,isi,,html-keyboard-response,260,179434,0.0-1.0-15.0-0.14-2.14,0,0,1,,,,,,,,,,,,,,,,,,,,,,,,,,,,,,,,,,,,,,323.5,1.0,,,,,,
261,,no_response,,html-keyboard-response,261,180439,0.0-1.0-15.0-0.14-4.14-0.14,1,0,1,,,,,,,,,,,,,,,,,,,,,,,,,,,,,,,,,,,,,,324.5,1.0,,,,,,
262,,iti,,html-keyboard-response,262,180556,0.0-1.0-15.0-0.14-5.14,0,0,1,,,,,,,,,,,,,,,,,,,,,,,,,,,,,,,,,,,,,,325.5,1.0,,,,,,
263,,choice,,html-keyboard-response,263,182060,0.0-1.0-15.0-0.15-0.15,0,0,1,,,,,,13.0,313.0,3000.0,1000.0,0.0,6.0,0.0,40-40,,,bowl,flashlight,40.0,40.0,bowl8,flashlight15,20.0,40.0,ASLVBOWL.jpg,freeplay-xray-wind-up-led-flashlight.jpg,/static/Category_learning/Stimuli/Experimental_stims/bowl/ASLVBOWL.jpg,/static/Category_learning/Stimuli/Experimental_stims/flashlight/freeplay-xray-wind-up-led-flashlight.jpg,,,,,,,,,,1.0,327.0,1.5,,,,,,
264,,isi,,html-keyboard-response,264,182167,0.0-1.0-15.0-0.15-2.15,0,0,1,,,,,,,,,,,,,,,,,,,,,,,,,,,,,,,,,,,,,,329.0,2.0,,,,,,
265,,no_response,,html-keyboard-response,265,183173,0.0-1.0-15.0-0.15-4.15-0.15,1,0,1,,,,,,,,,,,,,,,,,,,,,,,,,,,,,,,,,,,,,,330.0,1.0,,,,,,
266,,iti,,html-keyboard-response,266,183291,0.0-1.0-15.0-0.15-5.15,0,0,1,,,,,,,,,,,,,,,,,,,,,,,,,,,,,,,,,,,,,,331.0,1.0,,,,,,
267,,choice,,html-keyboard-response,267,184797,0.0-1.0-15.0-0.16-0.16,0,0,1,,,,,,13.0,313.0,3000.0,1000.0,0.0,6.0,0.0,40-40,,,bowl,flashlight,40.0,40.0,bowl8,flashlight15,20.0,40.0,ASLVBOWL.jpg,freeplay-xray-wind-up-led-flashlight.jpg,/static/Category_learning/Stimuli/Experimental_stims/bowl/ASLVBOWL.jpg,/static/Category_learning/Stimuli/Experimental_stims/flashlight/freeplay-xray-wind-up-led-flashlight.jpg,,,,,,,,,,1.0,332.5,1.5,,,,,,
268,,isi,,html-keyboard-response,268,184902,0.0-1.0-15.0-0.16-2.16,0,0,1,,,,,,,,,,,,,,,,,,,,,,,,,,,,,,,,,,,,,,333.5,1.0,,,,,,
269,,no_response,,html-keyboard-response,269,185906,0.0-1.0-15.0-0.16-4.16-0.16,1,0,1,,,,,,,,,,,,,,,,,,,,,,,,,,,,,,,,,,,,,,334.5,1.0,,,,,,
270,,iti,,html-keyboard-response,270,186022,0.0-1.0-15.0-0.16-5.16,0,0,1,,,,,,,,,,,,,,,,,,,,,,,,,,,,,,,,,,,,,,338.0,3.5,,,,,,
271,,choice,,html-keyboard-response,271,187527,0.0-1.0-15.0-0.17-0.17,0,0,1,,,,,,13.0,313.0,3000.0,1000.0,0.0,6.0,0.0,40-40,,,bowl,flashlight,40.0,40.0,bowl8,flashlight15,20.0,40.0,ASLVBOWL.jpg,freeplay-xray-wind-up-led-flashlight.jpg,/static/Category_learning/Stimuli/Experimental_stims/bowl/ASLVBOWL.jpg,/static/Category_learning/Stimuli/Experimental_stims/flashlight/freeplay-xray-wind-up-led-flashlight.jpg,,,,,,,,,,1.0,339.5,1.5,,,,,,
272,,isi,,html-keyboard-response,272,187633,0.0-1.0-15.0-0.17-2.17,0,0,1,,,,,,,,,,,,,,,,,,,,,,,,,,,,,,,,,,,,,,342.5,3.0,,,,,,
273,,no_response,,html-keyboard-response,273,188636,0.0-1.0-15.0-0.17-4.17-0.17,1,0,1,,,,,,,,,,,,,,,,,,,,,,,,,,,,,,,,,,,,,,343.5,1.0,,,,,,
274,,iti,,html-keyboard-response,274,188754,0.0-1.0-15.0-0.17-5.17,0,0,1,,,,,,,,,,,,,,,,,,,,,,,,,,,,,,,,,,,,,,344.5,1.0,,,,,,
275,,choice,,html-keyboard-response,275,190262,0.0-1.0-15.0-0.18-0.18,0,0,1,,,,,,13.0,313.0,3000.0,1000.0,0.0,6.0,0.0,40-40,,,bowl,flashlight,40.0,40.0,bowl8,flashlight15,20.0,40.0,ASLVBOWL.jpg,freeplay-xray-wind-up-led-flashlight.jpg,/static/Category_learning/Stimuli/Experimental_stims/bowl/ASLVBOWL.jpg,/static/Category_learning/Stimuli/Experimental_stims/flashlight/freeplay-xray-wind-up-led-flashlight.jpg,,,,,,,,,,1.0,346.0,1.5,,,,,,
276,,isi,,html-keyboard-response,276,190369,0.0-1.0-15.0-0.18-2.18,0,0,1,,,,,,,,,,,,,,,,,,,,,,,,,,,,,,,,,,,,,,349.5,3.5,,0.22,,,,
277,,final_tally,,html-keyboard-response,277,194165,0.0-2.0-0.0,0,0,1,,3792.0,,,50.0,,,,,,,,,,,,,,,,,,,,,,,,,,,,,,,,,,,,,,,,
278,,category_memory_instructions,,instructions,278,195703,0.0-3.0-0.0,0,0,1,"[{""page_index"":0,""viewing_time"":1150},{""page_index"":1,""viewing_time"":203},{""page_index"":2,""viewing_time"":165}]",1518.0,,,,,,,,,,,,,,,,,,,,,,,,,,,,,,,,,,,,,,,,,,,
279,,category_memory,,survey-text,279,198353,0.0-3.0-1.0-0.0,0,0,1,,2647.0,"{""Q0"":""0""}",,,0.0,,,,,,,,,,,,,,,,,,,,,,,,,,,,,,,,,,,,desk,40.0,0.0,
280,,category_memory,,survey-text,280,199373,0.0-3.0-2.0-0.0,0,0,1,,1017.0,"{""Q0"":""0""}",,,1.0,,,,,,,,,,,,,,,,,,,,,,,,,,,,,,,,,,,,power strip,80.0,0.0,
281,,category_memory,,survey-text,281,200499,0.0-3.0-3.0-0.0,0,0,1,,1123.0,"{""Q0"":""0""}",,,2.0,,,,,,,,,,,,,,,,,,,,,,,,,,,,,,,,,,,,tent,20.0,0.0,
282,,category_memory,,survey-text,282,201608,0.0-3.0-4.0-0.0,0,0,1,,1106.0,"{""Q0"":""0""}",,,3.0,,,,,,,,,,,,,,,,,,,,,,,,,,,,,,,,,,,,dresser,40.0,0.0,
283,,category_memory,,survey-text,283,203688,0.0-3.0-5.0-0.0,0,0,1,,2077.0,"{""Q0"":""""}",,,4.0,,,,,,,,,,,,,,,,,,,,,,,,,,,,,,,,,,,,poker card,80.0,,
284,,enter_reponse,,html-keyboard-response,284,205022,0.0-3.0-5.0-1.0-0.0,1,0,1,,1332.0,,,50.0,,,,,,,,,,,,,,,,,,,,,,,,,,,,,,,,,,,,,,,,1.0
285,,category_memory,,survey-text,285,206321,0.0-3.0-5.1-0.1,0,0,1,,1296.0,"{""Q0"":""0""}",,,4.0,,,,,,,,,,,,,,,,,,,,,,,,,,,,,,,,,,,,poker card,80.0,0.0,
286,,category_memory,,survey-text,286,207327,0.0-3.0-6.0-0.0,0,0,1,,1003.0,"{""Q0"":""0""}",,,5.0,,,,,,,,,,,,,,,,,,,,,,,,,,,,,,,,,,,,small table,80.0,0.0,
287,,category_memory,,survey-text,287,208376,0.0-3.0-7.0-0.0,0,0,1,,1046.0,"{""Q0"":""0""}",,,6.0,,,,,,,,,,,,,,,,,,,,,,,,,,,,,,,,,,,,frame,60.0,0.0,
288,,category_memory,,survey-text,288,209635,0.0-3.0-8.0-0.0,0,0,1,,1256.0,"{""Q0"":""0""}",,,7.0,,,,,,,,,,,,,,,,,,,,,,,,,,,,,,,,,,,,seashell,80.0,0.0,
289,,category_memory,,survey-text,289,210891,0.0-3.0-9.0-0.0,0,0,1,,1254.0,"{""Q0"":""0""}",,,8.0,,,,,,,,,,,,,,,,,,,,,,,,,,,,,,,,,,,,tape,20.0,0.0,
290,,category_memory,,survey-text,290,211734,0.0-3.0-10.0-0.0,0,0,1,,841.0,"{""Q0"":""0""}",,,9.0,,,,,,,,,,,,,,,,,,,,,,,,,,,,,,,,,,,,door knob,40.0,0.0,
291,,category_memory,,survey-text,291,213172,0.0-3.0-11.0-0.0,0,0,1,,1435.0,"{""Q0"":""0""}",,,10.0,,,,,,,,,,,,,,,,,,,,,,,,,,,,,,,,,,,,trumpet,20.0,0.0,
292,,category_memory,,survey-text,292,214026,0.0-3.0-12.0-0.0,0,0,1,,851.0,"{""Q0"":""0""}",,,11.0,,,,,,,,,,,,,,,,,,,,,,,,,,,,,,,,,,,,makeup compact,60.0,0.0,
293,,category_memory,,survey-text,293,214971,0.0-3.0-13.0-0.0,0,0,1,,941.0,"{""Q0"":""0""}",,,12.0,,,,,,,,,,,,,,,,,,,,,,,,,,,,,,,,,,,,vase,20.0,0.0,
294,,category_memory,,survey-text,294,215799,0.0-3.0-14.0-0.0,0,0,1,,825.0,"{""Q0"":""0""}",,,13.0,,,,,,,,,,,,,,,,,,,,,,,,,,,,,,,,,,,,patio lounge chair,80.0,0.0,
295,,category_memory,,survey-text,295,216905,0.0-3.0-15.0-0.0,0,0,1,,1102.0,"{""Q0"":""0""}",,,14.0,,,,,,,,,,,,,,,,,,,,,,,,,,,,,,,,,,,,train,20.0,0.0,
296,,category_memory,,survey-text,296,218032,0.0-3.0-16.0-0.0,0,0,1,,1124.0,"{""Q0"":""0""}",,,15.0,,,,,,,,,,,,,,,,,,,,,,,,,,,,,,,,,,,,nail polish,80.0,0.0,
297,,category_memory,,survey-text,297,219101,0.0-3.0-17.0-0.0,0,0,1,,1066.0,"{""Q0"":""0""}",,,16.0,,,,,,,,,,,,,,,,,,,,,,,,,,,,,,,,,,,,fan,40.0,0.0,
298,,category_memory,,survey-text,298,220210,0.0-3.0-18.0-0.0,0,0,1,,1106.0,"{""Q0"":""0""}",,,17.0,,,,,,,,,,,,,,,,,,,,,,,,,,,,,,,,,,,,motorcycle,60.0,0.0,
299,,category_memory,,survey-text,299,221293,0.0-3.0-19.0-0.0,0,0,1,,1080.0,"{""Q0"":""0""}",,,18.0,,,,,,,,,,,,,,,,,,,,,,,,,,,,,,,,,,,,hammer,60.0,0.0,
300,,category_memory,,survey-text,300,222306,0.0-3.0-20.0-0.0,0,0,1,,1010.0,"{""Q0"":""0""}",,,19.0,,,,,,,,,,,,,,,,,,,,,,,,,,,,,,,,,,,,watch,20.0,0.0,
301,,category_memory,,survey-text,301,223407,0.0-3.0-21.0-0.0,0,0,1,,1098.0,"{""Q0"":""0""}",,,20.0,,,,,,,,,,,,,,,,,,,,,,,,,,,,,,,,,,,,baby carriage,40.0,0.0,
302,,category_memory,,survey-text,302,224656,0.0-3.0-22.0-0.0,0,0,1,,1246.0,"{""Q0"":""0""}",,,21.0,,,,,,,,,,,,,,,,,,,,,,,,,,,,,,,,,,,,key chain,60.0,0.0,
303,,category_memory,,survey-text,303,225667,0.0-3.0-23.0-0.0,0,0,1,,1008.0,"{""Q0"":""0""}",,,22.0,,,,,,,,,,,,,,,,,,,,,,,,,,,,,,,,,,,,stool,20.0,0.0,
304,,category_memory,,survey-text,304,226678,0.0-3.0-24.0-0.0,0,0,1,,1008.0,"{""Q0"":""0""}",,,23.0,,,,,,,,,,,,,,,,,,,,,,,,,,,,,,,,,,,,flashlight,40.0,0.0,
305,,category_memory,,survey-text,305,227594,0.0-3.0-25.0-0.0,0,0,1,,913.0,"{""Q0"":""0""}",,,24.0,,,,,,,,,,,,,,,,,,,,,,,,,,,,,,,,,,,,bench,40.0,0.0,
306,,category_memory,,survey-text,306,228797,0.0-3.0-26.0-0.0,0,0,1,,1200.0,"{""Q0"":""0""}",,,25.0,,,,,,,,,,,,,,,,,,,,,,,,,,,,,,,,,,,,lipstick,60.0,0.0,
307,,category_memory,,survey-text,307,229737,0.0-3.0-27.0-0.0,0,0,1,,937.0,"{""Q0"":""0""}",,,26.0,,,,,,,,,,,,,,,,,,,,,,,,,,,,,,,,,,,,sofa,80.0,0.0,
308,,category_memory,,survey-text,308,230813,0.0-3.0-28.0-0.0,0,0,1,,1073.0,"{""Q0"":""0""}",,,27.0,,,,,,,,,,,,,,,,,,,,,,,,,,,,,,,,,,,,pen,80.0,0.0,
309,,category_memory,,survey-text,309,231817,0.0-3.0-29.0-0.0,0,0,1,,1002.0,"{""Q0"":""0""}",,,28.0,,,,,,,,,,,,,,,,,,,,,,,,,,,,,,,,,,,,telescope,20.0,0.0,
310,,category_memory,,survey-text,310,233321,0.0-3.0-30.0-0.0,0,0,1,,1500.0,"{""Q0"":""0""}",,,29.0,,,,,,,,,,,,,,,,,,,,,,,,,,,,,,,,,,,,hat,60.0,0.0,
311,,category_memory,,survey-text,311,234275,0.0-3.0-31.0-0.0,0,0,1,,951.0,"{""Q0"":""0""}",,,30.0,,,,,,,,,,,,,,,,,,,,,,,,,,,,,,,,,,,,necklace,80.0,0.0,
312,,category_memory,,survey-text,312,235477,0.0-3.0-32.0-0.0,0,0,1,,1199.0,"{""Q0"":""0""}",,,31.0,,,,,,,,,,,,,,,,,,,,,,,,,,,,,,,,,,,,bowl,40.0,0.0,
313,,category_memory,,survey-text,313,236647,0.0-3.0-33.0-0.0,0,0,1,,1167.0,"{""Q0"":""0""}",,,32.0,,,,,,,,,,,,,,,,,,,,,,,,,,,,,,,,,,,,microscope,60.0,0.0,
314,,category_memory,,survey-text,314,237722,0.0-3.0-34.0-0.0,0,0,1,,1072.0,"{""Q0"":""0""}",,,33.0,,,,,,,,,,,,,,,,,,,,,,,,,,,,,,,,,,,,license plate,60.0,0.0,
315,,category_memory,,survey-text,315,239185,0.0-3.0-35.0-0.0,0,0,1,,1460.0,"{""Q0"":""0""}",,,34.0,,,,,,,,,,,,,,,,,,,,,,,,,,,,,,,,,,,,yarn,20.0,0.0,
316,,category_memory,,survey-text,316,240655,0.0-3.0-36.0-0.0,0,0,1,,1466.0,"{""Q0"":""0""}",,,35.0,,,,,,,,,,,,,,,,,,,,,,,,,,,,,,,,,,,,bongo,40.0,0.0,
