,success,ttype,start_time,trial_type,trial_index,time_elapsed,internal_node_id,warning,missed_checkup,PID,view_history,rt,responses,repeat_instructions,key_press,index,trial_num,isi,iti,is_practice,block,old_trial,pair_type,within_category,high_cat_on_left,left_category,right_category,left_category_value,right_category_value,left_exemplar,right_exemplar,left_exemplar_value,right_exemplar_value,left_img,right_img,left_img_path,right_img_path,left_chosen,chosen_category,unchosen_category,chosen_category_value,unchosen_category_value,chosen_exemplar,unchosen_exemplar,chosen_exemplar_value,unchosen_exemplar_value,no_response,onset,duration,end_practice,total_bonus_tally
0,True,full_screen,d05252022hr1507,fullscreen,0,7104,0.0-0.0,0,0,37970,,,,,,,,,,,,,,,,,,,,,,,,,,,,,,,,,,,,,,,,,
1,,category_learning_instructions,,instructions,1,328049,0.0-1.0-0.0-0.0,0,0,37970,"[{""page_index"":0,""viewing_time"":2085},{""page_index"":1,""viewing_time"":182},{""page_index"":2,""viewing_time"":205},{""page_index"":3,""viewing_time"":182},{""page_index"":4,""viewing_time"":183512},{""page_index"":5,""viewing_time"":3153},{""page_index"":6,""viewing_time"":131623}]",320943.0,,,,,,,,,,,,,,,,,,,,,,,,,,,,,,,,,,,,,,,
2,,category_learning_comprehension_check,,survey-multi-choice,2,334723,0.0-1.0-0.0-1.0,0,0,37970,,6667.0,"{""Q0"":""True"",""Q1"":""True"",""Q2"":""Stay the same"",""Q3"":""D for left and K for right""}",0.0,,,,,,,,,,,,,,,,,,,,,,,,,,,,,,,,,,,,,
3,,,,html-keyboard-response,3,336885,0.0-1.0-1.0,0,0,37970,,2156.0,,,68.0,,,,,,,,,,,,,,,,,,,,,,,,,,,,,,,,,,,,
4,,choice,,html-keyboard-response,4,338186,0.0-1.0-2.0-0.0-0.0,0,0,37970,,1297.0,,,68.0,0.0,0.0,1500.0,1000.0,1.0,0.0,0.0,20-80,,0.0,bagel,dumbbell,20.0,80.0,bagel1,dumbbell1,0.0,80.0,bagels_pumpernickel_large.jpg,31B64EN68AL._AA280_.jpg,/static/Category_learning/Stimuli/Practice_stims/bagel/bagels_pumpernickel_large.jpg,/static/Category_learning/Stimuli/Practice_stims/dumbbell/31B64EN68AL._AA280_.jpg,1.0,bagel,dumbbell,20.0,80.0,bagel1,dumbbell1,0.0,80.0,0.0,1.297,1.297,,
5,,confirmation,,html-keyboard-response,5,338398,0.0-1.0-2.0-0.0-1.0-0.0,0,0,37970,,,,,,0.0,,,,,,,,,,,,,,,,,,,,,,,,,,,,,,,,1.5,0.203,,
6,,isi,,html-keyboard-response,6,338505,0.0-1.0-2.0-0.0-2.0,0,0,37970,,,,,,,,,,,,,,,,,,,,,,,,,,,,,,,,,,,,,,3.0,1.5,,
7,,feedback,,html-keyboard-response,7,339512,0.0-1.0-2.0-0.0-3.0-0.0,0,0,37970,,,,,,0.0,,,,,,,,,,,,,,,,,,,,,,,,,,,,,,,,4.0,1.0,,
8,,iti,,html-keyboard-response,8,339620,0.0-1.0-2.0-0.0-5.0,0,0,37970,,,,,,,,,,,,,,,,,,,,,,,,,,,,,,,,,,,,,,5.0,1.0,,
9,,choice,,html-keyboard-response,9,339930,0.0-1.0-3.0-0.0-0.0,0,0,37970,,306.0,,,75.0,1.0,1.0,3000.0,1500.0,1.0,0.0,0.0,20-40,,1.0,calculator,bagel,40.0,20.0,calculator2,bagel2,20.0,20.0,22829064.thl.jpg,bagels_cinnraisin_large.jpg,/static/Category_learning/Stimuli/Practice_stims/calculator/22829064.thl.jpg,/static/Category_learning/Stimuli/Practice_stims/bagel/bagels_cinnraisin_large.jpg,0.0,bagel,calculator,20.0,40.0,bagel2,calculator2,20.0,20.0,0.0,5.306,0.306,,
10,,confirmation,,html-keyboard-response,10,341130,0.0-1.0-3.0-0.0-1.0-0.0,0,0,37970,,,,,,1.0,,,,,,,,,,,,,,,,,,,,,,,,,,,,,,,,6.5,1.194,,
11,,isi,,html-keyboard-response,11,341236,0.0-1.0-3.0-0.0-2.0,0,0,37970,,,,,,,,,,,,,,,,,,,,,,,,,,,,,,,,,,,,,,9.5,3.0,,
12,,feedback,,html-keyboard-response,12,342244,0.0-1.0-3.0-0.0-3.0-0.0,0,0,37970,,,,,,1.0,,,,,,,,,,,,,,,,,,,,,,,,,,,,,,,,10.5,1.0,,
13,,iti,,html-keyboard-response,13,342350,0.0-1.0-3.0-0.0-5.0,0,0,37970,,,,,,,,,,,,,,,,,,,,,,,,,,,,,,,,,,,,,,12.0,1.5,,
14,,choice,,html-keyboard-response,14,342539,0.0-1.0-4.0-0.0-0.0,0,0,37970,,186.0,,,68.0,2.0,2.0,2000.0,3000.0,1.0,0.0,0.0,60-80,,0.0,clock,dumbbell,60.0,80.0,clock2,dumbbell2,60.0,100.0,26373355.thl.jpg,31K8MR6TMBL._SS500_.jpg,/static/Category_learning/Stimuli/Practice_stims/clock/26373355.thl.jpg,/static/Category_learning/Stimuli/Practice_stims/dumbbell/31K8MR6TMBL._SS500_.jpg,1.0,clock,dumbbell,60.0,80.0,clock2,dumbbell2,60.0,100.0,0.0,12.186,0.186,,
15,,confirmation,,html-keyboard-response,15,343861,0.0-1.0-4.0-0.0-1.0-0.0,0,0,37970,,,,,,2.0,,,,,,,,,,,,,,,,,,,,,,,,,,,,,,,,13.5,1.314,,
16,,isi,,html-keyboard-response,16,343967,0.0-1.0-4.0-0.0-2.0,0,0,37970,,,,,,,,,,,,,,,,,,,,,,,,,,,,,,,,,,,,,,15.5,2.0,,
17,,feedback,,html-keyboard-response,17,344975,0.0-1.0-4.0-0.0-3.0-0.0,0,0,37970,,,,,,2.0,,,,,,,,,,,,,,,,,,,,,,,,,,,,,,,,16.5,1.0,,
18,,iti,,html-keyboard-response,18,345081,0.0-1.0-4.0-0.0-5.0,0,0,37970,,,,,,,,,,,,,,,,,,,,,,,,,,,,,,,,,,,,,,19.5,3.0,,
19,,choice,,html-keyboard-response,19,345297,0.0-1.0-5.0-0.0-0.0,0,0,37970,,212.0,,,75.0,3.0,3.0,1000.0,2000.0,1.0,0.0,0.0,40-80,,0.0,calculator,clock,40.0,60.0,calculator1,clock1,40.0,40.0,22829184.thl.jpg,Aalarmclock2.jpg,/static/Category_learning/Stimuli/Practice_stims/calculator/22829184.thl.jpg,/static/Category_learning/Stimuli/Practice_stims/clock/Aalarmclock2.jpg,0.0,clock,calculator,60.0,40.0,clock1,calculator1,40.0,40.0,0.0,19.712,0.212,,
20,,confirmation,,html-keyboard-response,20,346593,0.0-1.0-5.0-0.0-1.0-0.0,0,0,37970,,,,,,3.0,,,,,,,,,,,,,,,,,,,,,,,,,,,,,,,,21.0,1.288,,
21,,isi,,html-keyboard-response,21,346698,0.0-1.0-5.0-0.0-2.0,0,0,37970,,,,,,,,,,,,,,,,,,,,,,,,,,,,,,,,,,,,,,22.0,1.0,,
22,,feedback,,html-keyboard-response,22,347705,0.0-1.0-5.0-0.0-3.0-0.0,0,0,37970,,,,,,3.0,,,,,,,,,,,,,,,,,,,,,,,,,,,,,,,,23.0,1.0,,
23,,iti,,html-keyboard-response,23,347813,0.0-1.0-5.0-0.0-5.0,0,0,37970,,,,,,,,,,,,,,,,,,,,,,,,,,,,,,,,,,,,,,25.0,2.0,,
24,,choice,,html-keyboard-response,24,348225,0.0-1.0-6.0-0.0-0.0,0,0,37970,,409.0,,,75.0,4.0,4.0,2500.0,2500.0,1.0,0.0,0.0,20-60,,1.0,dumbbell,bagel,80.0,20.0,dumbbell3,bagel3,100.0,40.0,41K7QVRX50L._SS500_.jpg,photo-169.jpg,/static/Category_learning/Stimuli/Practice_stims/dumbbell/41K7QVRX50L._SS500_.jpg,/static/Category_learning/Stimuli/Practice_stims/bagel/photo-169.jpg,0.0,bagel,dumbbell,20.0,80.0,bagel3,dumbbell3,40.0,100.0,0.0,25.409,0.409,1.0,
25,,confirmation,,html-keyboard-response,25,349322,0.0-1.0-6.0-0.0-1.0-0.0,0,0,37970,,,,,,4.0,,,,,,,,,,,,,,,,,,,,,,,,,,,,,,,,26.5,1.091,,
26,,isi,,html-keyboard-response,26,349430,0.0-1.0-6.0-0.0-2.0,0,0,37970,,,,,,,,,,,,,,,,,,,,,,,,,,,,,,,,,,,,,,29.0,2.5,,
27,,feedback,,html-keyboard-response,27,350436,0.0-1.0-6.0-0.0-3.0-0.0,0,0,37970,,,,,,4.0,,,,,,,,,,,,,,,,,,,,,,,,,,,,,,,,30.0,1.0,,
28,,iti,,html-keyboard-response,28,350544,0.0-1.0-6.0-0.0-5.0,0,0,37970,,,,,,,,,,,,,,,,,,,,,,,,,,,,,,,,,,,,,,32.5,2.5,,
29,,practice_over,,html-keyboard-response,29,354516,0.0-1.0-6.0-0.0-6.0-0.0,0,0,37970,,3968.0,,,68.0,4.0,,,,,,,,,,,,,,,,,,,,,,,,,,,,,,,,,,,
30,,start_run,,html-keyboard-response,30,358449,0.0-1.0-6.0-0.0-6.0-1.0,0,0,37970,,3931.0,,,84.0,,,,,,,,,,,,,,,,,,,,,,,,,,,,,,,,,,,,
31,,choice,,html-keyboard-response,31,359037,0.0-1.0-7.0-0.0-0.0,0,0,37970,,584.0,,,68.0,5.0,5.0,2000.0,3500.0,0.0,1.0,0.0,20-60,,0.0,necklace,bench,20.0,60.0,necklace15,bench3,40.0,40.0,necklascenew04.jpg,26419540.thl.jpg,/static/Category_learning/Stimuli/Experimental_stims/necklace/necklascenew04.jpg,/static/Category_learning/Stimuli/Experimental_stims/bench/26419540.thl.jpg,1.0,necklace,bench,20.0,60.0,necklace15,bench3,40.0,40.0,0.0,0.584,0.584,,
32,,confirmation,,html-keyboard-response,32,359959,0.0-1.0-7.0-0.0-1.0-0.0,0,0,37970,,,,,,5.0,,,,,,,,,,,,,,,,,,,,,,,,,,,,,,,,1.5,0.916,,
33,,isi,,html-keyboard-response,33,360062,0.0-1.0-7.0-0.0-2.0,0,0,37970,,,,,,,,,,,,,,,,,,,,,,,,,,,,,,,,,,,,,,3.5,2.0,,
34,,feedback,,html-keyboard-response,34,361066,0.0-1.0-7.0-0.0-3.0-0.0,0,0,37970,,,,,,5.0,,,,,,,,,,,,,,,,,,,,,,,,,,,,,,,,4.5,1.0,,
35,,iti,,html-keyboard-response,35,361174,0.0-1.0-7.0-0.0-5.0,0,0,37970,,,,,,,,,,,,,,,,,,,,,,,,,,,,,,,,,,,,,,8.0,3.5,,
36,,choice,,html-keyboard-response,36,362485,0.0-1.0-8.0-0.0-0.0,0,0,37970,,1307.0,,,68.0,6.0,6.0,2000.0,1000.0,0.0,1.0,0.0,20-20,,,power strip,seashell,20.0,20.0,power strip8,seashell7,40.0,20.0,3118YGHQWXL._AA262_.jpg,seashell34.jpg,/static/Category_learning/Stimuli/Experimental_stims/power strip/3118YGHQWXL._AA262_.jpg,/static/Category_learning/Stimuli/Experimental_stims/seashell/seashell34.jpg,1.0,power strip,seashell,20.0,20.0,power strip8,seashell7,40.0,20.0,0.0,9.307,1.307,,
37,,confirmation,,html-keyboard-response,37,362685,0.0-1.0-8.0-0.0-1.0-0.0,0,0,37970,,,,,,6.0,,,,,,,,,,,,,,,,,,,,,,,,,,,,,,,,9.5,0.193,,
38,,isi,,html-keyboard-response,38,362789,0.0-1.0-8.0-0.0-2.0,0,0,37970,,,,,,,,,,,,,,,,,,,,,,,,,,,,,,,,,,,,,,11.5,2.0,,
39,,feedback,,html-keyboard-response,39,363797,0.0-1.0-8.0-0.0-3.0-0.0,0,0,37970,,,,,,6.0,,,,,,,,,,,,,,,,,,,,,,,,,,,,,,,,12.5,1.0,,
40,,iti,,html-keyboard-response,40,363904,0.0-1.0-8.0-0.0-5.0,0,0,37970,,,,,,,,,,,,,,,,,,,,,,,,,,,,,,,,,,,,,,13.5,1.0,,
41,,choice,,html-keyboard-response,41,365413,0.0-1.0-9.0-0.0-0.0,0,0,37970,,,,,,7.0,7.0,1500.0,2000.0,0.0,1.0,0.0,20-40,,1.0,telescope,poker card,40.0,20.0,telescope1,poker card9,20.0,40.0,celestron nexstar 114 gt reflector telescope.jpg,9817230.thl.jpg,/static/Category_learning/Stimuli/Experimental_stims/telescope/celestron nexstar 114 gt reflector telescope.jpg,/static/Category_learning/Stimuli/Experimental_stims/poker card/9817230.thl.jpg,,,,,,,,,,1.0,15.0,1.5,,
42,,isi,,html-keyboard-response,42,365519,0.0-1.0-9.0-0.0-2.0,0,0,37970,,,,,,,,,,,,,,,,,,,,,,,,,,,,,,,,,,,,,,16.5,1.5,,
43,,no_response,,html-keyboard-response,43,366522,0.0-1.0-9.0-0.0-4.0-0.0,0,0,37970,,,,,,,,,,,,,,,,,,,,,,,,,,,,,,,,,,,,,,17.5,1.0,,
44,,iti,,html-keyboard-response,44,366645,0.0-1.0-9.0-0.0-5.0,0,0,37970,,,,,,,,,,,,,,,,,,,,,,,,,,,,,,,,,,,,,,19.5,2.0,,
45,,choice,,html-keyboard-response,45,367254,0.0-1.0-9.0-0.1-0.1,0,0,37970,,605.0,,,68.0,7.0,7.0,1500.0,2000.0,0.0,1.0,0.0,20-40,,1.0,telescope,poker card,40.0,20.0,telescope1,poker card9,20.0,40.0,celestron nexstar 114 gt reflector telescope.jpg,9817230.thl.jpg,/static/Category_learning/Stimuli/Experimental_stims/telescope/celestron nexstar 114 gt reflector telescope.jpg,/static/Category_learning/Stimuli/Experimental_stims/poker card/9817230.thl.jpg,1.0,telescope,poker card,40.0,20.0,telescope1,poker card9,20.0,40.0,0.0,20.105,0.605,,
46,,confirmation,,html-keyboard-response,46,368157,0.0-1.0-9.0-0.1-1.1-0.1,0,0,37970,,,,,,7.0,,,,,,,,,,,,,,,,,,,,,,,,,,,,,,,,21.0,0.895,,
47,,isi,,html-keyboard-response,47,368264,0.0-1.0-9.0-0.1-2.1,0,0,37970,,,,,,,,,,,,,,,,,,,,,,,,,,,,,,,,,,,,,,23.0,2.0,,
48,,feedback,,html-keyboard-response,48,369269,0.0-1.0-9.0-0.1-3.1-0.1,0,0,37970,,,,,,7.0,,,,,,,,,,,,,,,,,,,,,,,,,,,,,,,,24.0,1.0,,
49,,iti,,html-keyboard-response,49,369376,0.0-1.0-9.0-0.1-5.1,0,0,37970,,,,,,,,,,,,,,,,,,,,,,,,,,,,,,,,,,,,,,25.5,1.5,,
50,,choice,,html-keyboard-response,50,370885,0.0-1.0-10.0-0.0-0.0,0,0,37970,,,,,,8.0,8.0,3500.0,1000.0,0.0,1.0,0.0,60-60,,,door knob,dresser,60.0,60.0,door knob7,dresser4,40.0,80.0,doorknob2.jpg,ADRESSE40.jpg,/static/Category_learning/Stimuli/Experimental_stims/door knob/doorknob2.jpg,/static/Category_learning/Stimuli/Experimental_stims/dresser/ADRESSE40.jpg,,,,,,,,,,1.0,27.0,1.5,,
51,,isi,,html-keyboard-response,51,370993,0.0-1.0-10.0-0.0-2.0,0,0,37970,,,,,,,,,,,,,,,,,,,,,,,,,,,,,,,,,,,,,,30.5,3.5,,
52,,no_response,,html-keyboard-response,52,371998,0.0-1.0-10.0-0.0-4.0-0.0,0,0,37970,,,,,,,,,,,,,,,,,,,,,,,,,,,,,,,,,,,,,,31.5,1.0,,
53,,iti,,html-keyboard-response,53,372120,0.0-1.0-10.0-0.0-5.0,0,0,37970,,,,,,,,,,,,,,,,,,,,,,,,,,,,,,,,,,,,,,32.5,1.0,,
54,,choice,,html-keyboard-response,54,372484,0.0-1.0-10.0-0.1-0.1,0,0,37970,,360.0,,,68.0,8.0,8.0,3500.0,1000.0,0.0,1.0,0.0,60-60,,,door knob,dresser,60.0,60.0,door knob7,dresser4,40.0,80.0,doorknob2.jpg,ADRESSE40.jpg,/static/Category_learning/Stimuli/Experimental_stims/door knob/doorknob2.jpg,/static/Category_learning/Stimuli/Experimental_stims/dresser/ADRESSE40.jpg,1.0,door knob,dresser,60.0,60.0,door knob7,dresser4,40.0,80.0,0.0,32.86,0.36,,
55,,confirmation,,html-keyboard-response,55,373632,0.0-1.0-10.0-0.1-1.1-0.1,0,0,37970,,,,,,8.0,,,,,,,,,,,,,,,,,,,,,,,,,,,,,,,,34.0,1.14,,
56,,isi,,html-keyboard-response,56,373738,0.0-1.0-10.0-0.1-2.1,0,0,37970,,,,,,,,,,,,,,,,,,,,,,,,,,,,,,,,,,,,,,35.0,1.0,,
57,,feedback,,html-keyboard-response,57,374747,0.0-1.0-10.0-0.1-3.1-0.1,0,0,37970,,,,,,8.0,,,,,,,,,,,,,,,,,,,,,,,,,,,,,,,,36.0,1.0,,
58,,iti,,html-keyboard-response,58,374855,0.0-1.0-10.0-0.1-5.1,0,0,37970,,,,,,,,,,,,,,,,,,,,,,,,,,,,,,,,,,,,,,38.0,2.0,,
59,,choice,,html-keyboard-response,59,374931,0.0-1.0-11.0-0.0-0.0,0,0,37970,,72.0,,,68.0,9.0,9.0,1000.0,1000.0,0.0,1.0,0.0,20-60,,0.0,poker card,desk,20.0,60.0,poker card8,desk13,20.0,80.0,22864392.thl.jpg,26427865.thl.jpg,/static/Category_learning/Stimuli/Experimental_stims/poker card/22864392.thl.jpg,/static/Category_learning/Stimuli/Experimental_stims/desk/26427865.thl.jpg,1.0,poker card,desk,20.0,60.0,poker card8,desk13,20.0,80.0,0.0,38.072,0.072,,
60,,confirmation,,html-keyboard-response,60,376366,0.0-1.0-11.0-0.0-1.0-0.0,0,0,37970,,,,,,9.0,,,,,,,,,,,,,,,,,,,,,,,,,,,,,,,,39.5,1.428,,
61,,isi,,html-keyboard-response,61,376470,0.0-1.0-11.0-0.0-2.0,0,0,37970,,,,,,,,,,,,,,,,,,,,,,,,,,,,,,,,,,,,,,40.5,1.0,,
62,,feedback,,html-keyboard-response,62,377476,0.0-1.0-11.0-0.0-3.0-0.0,0,0,37970,,,,,,9.0,,,,,,,,,,,,,,,,,,,,,,,,,,,,,,,,41.5,1.0,,
63,,iti,,html-keyboard-response,63,377583,0.0-1.0-11.0-0.0-5.0,0,0,37970,,,,,,,,,,,,,,,,,,,,,,,,,,,,,,,,,,,,,,42.5,1.0,,
64,,choice,,html-keyboard-response,64,377877,0.0-1.0-12.0-0.0-0.0,0,0,37970,,291.0,,,68.0,10.0,10.0,1000.0,1000.0,0.0,1.0,0.0,20-60,,1.0,bench,nail polish,60.0,20.0,bench8,nail polish6,80.0,0.0,APARKBE14.jpg,127_t.jpg,/static/Category_learning/Stimuli/Experimental_stims/bench/APARKBE14.jpg,/static/Category_learning/Stimuli/Experimental_stims/nail polish/127_t.jpg,1.0,bench,nail polish,60.0,20.0,bench8,nail polish6,80.0,0.0,0.0,42.791,0.291,,
65,,confirmation,,html-keyboard-response,65,379093,0.0-1.0-12.0-0.0-1.0-0.0,0,0,37970,,,,,,10.0,,,,,,,,,,,,,,,,,,,,,,,,,,,,,,,,44.0,1.209,,
66,,isi,,html-keyboard-response,66,379197,0.0-1.0-12.0-0.0-2.0,0,0,37970,,,,,,,,,,,,,,,,,,,,,,,,,,,,,,,,,,,,,,45.0,1.0,,
67,,feedback,,html-keyboard-response,67,380203,0.0-1.0-12.0-0.0-3.0-0.0,0,0,37970,,,,,,10.0,,,,,,,,,,,,,,,,,,,,,,,,,,,,,,,,46.0,1.0,,
68,,iti,,html-keyboard-response,68,380308,0.0-1.0-12.0-0.0-5.0,0,0,37970,,,,,,,,,,,,,,,,,,,,,,,,,,,,,,,,,,,,,,47.0,1.0,,
69,,choice,,html-keyboard-response,69,380678,0.0-1.0-13.0-0.0-0.0,0,0,37970,,367.0,,,68.0,11.0,11.0,1500.0,3000.0,0.0,1.0,0.0,20-80,,0.0,pen,microscope,20.0,80.0,pen11,microscope4,0.0,80.0,pen01.jpg,55071208.JPG,/static/Category_learning/Stimuli/Experimental_stims/pen/pen01.jpg,/static/Category_learning/Stimuli/Experimental_stims/microscope/55071208.JPG,1.0,pen,microscope,20.0,80.0,pen11,microscope4,0.0,80.0,0.0,47.367,0.367,,
70,,confirmation,,html-keyboard-response,70,381819,0.0-1.0-13.0-0.0-1.0-0.0,0,0,37970,,,,,,11.0,,,,,,,,,,,,,,,,,,,,,,,,,,,,,,,,48.5,1.133,,
71,,isi,,html-keyboard-response,71,381927,0.0-1.0-13.0-0.0-2.0,0,0,37970,,,,,,,,,,,,,,,,,,,,,,,,,,,,,,,,,,,,,,50.0,1.5,,
72,,feedback,,html-keyboard-response,72,382934,0.0-1.0-13.0-0.0-3.0-0.0,0,0,37970,,,,,,11.0,,,,,,,,,,,,,,,,,,,,,,,,,,,,,,,,51.0,1.0,,
73,,iti,,html-keyboard-response,73,383041,0.0-1.0-13.0-0.0-5.0,0,0,37970,,,,,,,,,,,,,,,,,,,,,,,,,,,,,,,,,,,,,,54.0,3.0,,
74,,choice,,html-keyboard-response,74,383276,0.0-1.0-14.0-0.0-0.0,0,0,37970,,232.0,,,68.0,12.0,12.0,1500.0,2000.0,0.0,1.0,0.0,20-60,,0.0,necklace,bowl,20.0,60.0,necklace1,bowl14,0.0,60.0,26443173.thl.jpg,Aredglassbowl.jpg,/static/Category_learning/Stimuli/Experimental_stims/necklace/26443173.thl.jpg,/static/Category_learning/Stimuli/Experimental_stims/bowl/Aredglassbowl.jpg,1.0,necklace,bowl,20.0,60.0,necklace1,bowl14,0.0,60.0,0.0,54.232,0.232,,
75,,confirmation,,html-keyboard-response,75,384550,0.0-1.0-14.0-0.0-1.0-0.0,0,0,37970,,,,,,12.0,,,,,,,,,,,,,,,,,,,,,,,,,,,,,,,,55.5,1.268,,
76,,isi,,html-keyboard-response,76,384657,0.0-1.0-14.0-0.0-2.0,0,0,37970,,,,,,,,,,,,,,,,,,,,,,,,,,,,,,,,,,,,,,57.0,1.5,,
77,,feedback,,html-keyboard-response,77,385662,0.0-1.0-14.0-0.0-3.0-0.0,0,0,37970,,,,,,12.0,,,,,,,,,,,,,,,,,,,,,,,,,,,,,,,,58.0,1.0,,
78,,iti,,html-keyboard-response,78,385768,0.0-1.0-14.0-0.0-5.0,0,0,37970,,,,,,,,,,,,,,,,,,,,,,,,,,,,,,,,,,,,,,60.0,2.0,,
79,,choice,,html-keyboard-response,79,385949,0.0-1.0-15.0-0.0-0.0,0,0,37970,,175.0,,,68.0,13.0,13.0,3500.0,3500.0,0.0,1.0,1.0,20-20,1.0,,necklace,necklace,20.0,20.0,necklace15,necklace1,40.0,0.0,necklascenew04.jpg,26443173.thl.jpg,/static/Category_learning/Stimuli/Experimental_stims/necklace/necklascenew04.jpg,/static/Category_learning/Stimuli/Experimental_stims/necklace/26443173.thl.jpg,1.0,necklace,necklace,20.0,20.0,necklace15,necklace1,40.0,0.0,0.0,60.175,0.175,,
80,,confirmation,,html-keyboard-response,80,387279,0.0-1.0-15.0-0.0-1.0-0.0,0,0,37970,,,,,,13.0,,,,,,,,,,,,,,,,,,,,,,,,,,,,,,,,61.5,1.325,,
81,,isi,,html-keyboard-response,81,387387,0.0-1.0-15.0-0.0-2.0,0,0,37970,,,,,,,,,,,,,,,,,,,,,,,,,,,,,,,,,,,,,,65.0,3.5,,
82,,feedback,,html-keyboard-response,82,388395,0.0-1.0-15.0-0.0-3.0-0.0,0,0,37970,,,,,,13.0,,,,,,,,,,,,,,,,,,,,,,,,,,,,,,,,66.0,1.0,,
83,,iti,,html-keyboard-response,83,388509,0.0-1.0-15.0-0.0-5.0,0,0,37970,,,,,,,,,,,,,,,,,,,,,,,,,,,,,,,,,,,,,,69.5,3.5,,
84,,choice,,html-keyboard-response,84,388859,0.0-1.0-16.0-0.0-0.0,0,0,37970,,346.0,,,68.0,14.0,14.0,1000.0,1000.0,0.0,1.0,0.0,60-80,,1.0,microscope,bench,80.0,60.0,microscope12,bench12,60.0,80.0,usbdigitalmicroscope1_small1.jpg,22927976.thl.jpg,/static/Category_learning/Stimuli/Experimental_stims/microscope/usbdigitalmicroscope1_small1.jpg,/static/Category_learning/Stimuli/Experimental_stims/bench/22927976.thl.jpg,1.0,microscope,bench,80.0,60.0,microscope12,bench12,60.0,80.0,0.0,69.846,0.346,,
85,,confirmation,,html-keyboard-response,85,390016,0.0-1.0-16.0-0.0-1.0-0.0,0,0,37970,,,,,,14.0,,,,,,,,,,,,,,,,,,,,,,,,,,,,,,,,71.0,1.154,,
86,,isi,,html-keyboard-response,86,390123,0.0-1.0-16.0-0.0-2.0,0,0,37970,,,,,,,,,,,,,,,,,,,,,,,,,,,,,,,,,,,,,,72.0,1.0,,
87,,feedback,,html-keyboard-response,87,391127,0.0-1.0-16.0-0.0-3.0-0.0,0,0,37970,,,,,,14.0,,,,,,,,,,,,,,,,,,,,,,,,,,,,,,,,73.0,1.0,,
88,,iti,,html-keyboard-response,88,391234,0.0-1.0-16.0-0.0-5.0,0,0,37970,,,,,,,,,,,,,,,,,,,,,,,,,,,,,,,,,,,,,,74.0,1.0,,
89,,choice,,html-keyboard-response,89,391306,0.0-1.0-17.0-0.0-0.0,0,0,37970,,67.0,,,68.0,15.0,15.0,1000.0,1000.0,0.0,1.0,1.0,20-20,0.0,,poker card,pen,20.0,20.0,poker card8,pen11,20.0,0.0,22864392.thl.jpg,pen01.jpg,/static/Category_learning/Stimuli/Experimental_stims/poker card/22864392.thl.jpg,/static/Category_learning/Stimuli/Experimental_stims/pen/pen01.jpg,1.0,poker card,pen,20.0,20.0,poker card8,pen11,20.0,0.0,0.0,74.067,0.067,,
90,,confirmation,,html-keyboard-response,90,392746,0.0-1.0-17.0-0.0-1.0-0.0,0,0,37970,,,,,,15.0,,,,,,,,,,,,,,,,,,,,,,,,,,,,,,,,75.5,1.433,,
91,,isi,,html-keyboard-response,91,392854,0.0-1.0-17.0-0.0-2.0,0,0,37970,,,,,,,,,,,,,,,,,,,,,,,,,,,,,,,,,,,,,,76.5,1.0,,
92,,feedback,,html-keyboard-response,92,393861,0.0-1.0-17.0-0.0-3.0-0.0,0,0,37970,,,,,,15.0,,,,,,,,,,,,,,,,,,,,,,,,,,,,,,,,77.5,1.0,,
93,,iti,,html-keyboard-response,93,393969,0.0-1.0-17.0-0.0-5.0,0,0,37970,,,,,,,,,,,,,,,,,,,,,,,,,,,,,,,,,,,,,,78.5,1.0,,
94,,choice,,html-keyboard-response,94,394430,0.0-1.0-18.0-0.0-0.0,0,0,37970,,457.0,,,68.0,16.0,16.0,1000.0,1000.0,0.0,1.0,0.0,20-40,,0.0,poker card,yarn,20.0,40.0,poker card3,yarn4,0.0,40.0,9817131.thl.jpg,amethyst dreaming boho hy sml.jpg,/static/Category_learning/Stimuli/Experimental_stims/poker card/9817131.thl.jpg,/static/Category_learning/Stimuli/Experimental_stims/yarn/amethyst dreaming boho hy sml.jpg,1.0,poker card,yarn,20.0,40.0,poker card3,yarn4,0.0,40.0,0.0,78.957,0.457,,
95,,confirmation,,html-keyboard-response,95,395480,0.0-1.0-18.0-0.0-1.0-0.0,0,0,37970,,,,,,16.0,,,,,,,,,,,,,,,,,,,,,,,,,,,,,,,,80.0,1.043,,
96,,isi,,html-keyboard-response,96,395583,0.0-1.0-18.0-0.0-2.0,0,0,37970,,,,,,,,,,,,,,,,,,,,,,,,,,,,,,,,,,,,,,81.0,1.0,,
97,,feedback,,html-keyboard-response,97,396589,0.0-1.0-18.0-0.0-3.0-0.0,0,0,37970,,,,,,16.0,,,,,,,,,,,,,,,,,,,,,,,,,,,,,,,,82.0,1.0,,
98,,iti,,html-keyboard-response,98,396698,0.0-1.0-18.0-0.0-5.0,0,0,37970,,,,,,,,,,,,,,,,,,,,,,,,,,,,,,,,,,,,,,83.0,1.0,,
99,,choice,,html-keyboard-response,99,396852,0.0-1.0-19.0-0.0-0.0,0,0,37970,,152.0,,,68.0,17.0,17.0,3500.0,1000.0,0.0,1.0,0.0,40-80,,0.0,trumpet,microscope,40.0,80.0,trumpet11,microscope8,20.0,80.0,JUPITER+JTR604L.jpg,AMICROS21.jpg,/static/Category_learning/Stimuli/Experimental_stims/trumpet/JUPITER+JTR604L.jpg,/static/Category_learning/Stimuli/Experimental_stims/microscope/AMICROS21.jpg,1.0,trumpet,microscope,40.0,80.0,trumpet11,microscope8,20.0,80.0,0.0,83.152,0.152,,
100,,confirmation,,html-keyboard-response,100,398208,0.0-1.0-19.0-0.0-1.0-0.0,0,0,37970,,,,,,17.0,,,,,,,,,,,,,,,,,,,,,,,,,,,,,,,,84.5,1.348,,
101,,isi,,html-keyboard-response,101,398315,0.0-1.0-19.0-0.0-2.0,0,0,37970,,,,,,,,,,,,,,,,,,,,,,,,,,,,,,,,,,,,,,88.0,3.5,,
102,,feedback,,html-keyboard-response,102,399323,0.0-1.0-19.0-0.0-3.0-0.0,0,0,37970,,,,,,17.0,,,,,,,,,,,,,,,,,,,,,,,,,,,,,,,,89.0,1.0,,
103,,iti,,html-keyboard-response,103,399431,0.0-1.0-19.0-0.0-5.0,0,0,37970,,,,,,,,,,,,,,,,,,,,,,,,,,,,,,,,,,,,,,90.0,1.0,,
104,,choice,,html-keyboard-response,104,400005,0.0-1.0-20.0-0.0-0.0,0,0,37970,,572.0,,,68.0,18.0,18.0,1500.0,1000.0,0.0,1.0,0.0,60-80,,0.0,baby carriage,hammer,60.0,80.0,baby carriage5,hammer8,80.0,80.0,Baby_Stroller.jpg,ct1006_hammer.jpg,/static/Category_learning/Stimuli/Experimental_stims/baby carriage/Baby_Stroller.jpg,/static/Category_learning/Stimuli/Experimental_stims/hammer/ct1006_hammer.jpg,1.0,baby carriage,hammer,60.0,80.0,baby carriage5,hammer8,80.0,80.0,0.0,90.572,0.572,,
105,,confirmation,,html-keyboard-response,105,400939,0.0-1.0-20.0-0.0-1.0-0.0,0,0,37970,,,,,,18.0,,,,,,,,,,,,,,,,,,,,,,,,,,,,,,,,91.5,0.928,,
106,,isi,,html-keyboard-response,106,401046,0.0-1.0-20.0-0.0-2.0,0,0,37970,,,,,,,,,,,,,,,,,,,,,,,,,,,,,,,,,,,,,,93.0,1.5,,
107,,feedback,,html-keyboard-response,107,402053,0.0-1.0-20.0-0.0-3.0-0.0,0,0,37970,,,,,,18.0,,,,,,,,,,,,,,,,,,,,,,,,,,,,,,,,94.0,1.0,,
108,,iti,,html-keyboard-response,108,402157,0.0-1.0-20.0-0.0-5.0,0,0,37970,,,,,,,,,,,,,,,,,,,,,,,,,,,,,,,,,,,,,,95.0,1.0,,
109,,choice,,html-keyboard-response,109,402380,0.0-1.0-21.0-0.0-0.0,0,0,37970,,219.0,,,68.0,19.0,19.0,1500.0,3500.0,0.0,1.0,0.0,60-60,,,fan,flashlight,60.0,60.0,fan6,flashlight1,60.0,40.0,30090.fpx.jpg,Graphite3D.jpg,/static/Category_learning/Stimuli/Experimental_stims/fan/30090.fpx.jpg,/static/Category_learning/Stimuli/Experimental_stims/flashlight/Graphite3D.jpg,1.0,fan,flashlight,60.0,60.0,fan6,flashlight1,60.0,40.0,0.0,95.219,0.219,,
110,,confirmation,,html-keyboard-response,110,403665,0.0-1.0-21.0-0.0-1.0-0.0,0,0,37970,,,,,,19.0,,,,,,,,,,,,,,,,,,,,,,,,,,,,,,,,96.5,1.281,,
111,,isi,,html-keyboard-response,111,403771,0.0-1.0-21.0-0.0-2.0,0,0,37970,,,,,,,,,,,,,,,,,,,,,,,,,,,,,,,,,,,,,,98.0,1.5,,
112,,feedback,,html-keyboard-response,112,404776,0.0-1.0-21.0-0.0-3.0-0.0,0,0,37970,,,,,,19.0,,,,,,,,,,,,,,,,,,,,,,,,,,,,,,,,99.0,1.0,,
113,,iti,,html-keyboard-response,113,404881,0.0-1.0-21.0-0.0-5.0,0,0,37970,,,,,,,,,,,,,,,,,,,,,,,,,,,,,,,,,,,,,,102.5,3.5,,
114,,choice,,html-keyboard-response,114,405263,0.0-1.0-22.0-0.0-0.0,0,0,37970,,379.0,,,68.0,20.0,20.0,1000.0,1000.0,0.0,1.0,0.0,20-80,,1.0,frame,patio lounge chair,80.0,20.0,frame11,patio lounge chair9,100.0,20.0,AFRAME139.jpg,43-3.jpg,/static/Category_learning/Stimuli/Experimental_stims/frame/AFRAME139.jpg,/static/Category_learning/Stimuli/Experimental_stims/patio lounge chair/43-3.jpg,1.0,frame,patio lounge chair,80.0,20.0,frame11,patio lounge chair9,100.0,20.0,0.0,102.879,0.379,,
115,,confirmation,,html-keyboard-response,115,406390,0.0-1.0-22.0-0.0-1.0-0.0,0,0,37970,,,,,,20.0,,,,,,,,,,,,,,,,,,,,,,,,,,,,,,,,104.0,1.121,,
116,,isi,,html-keyboard-response,116,406498,0.0-1.0-22.0-0.0-2.0,0,0,37970,,,,,,,,,,,,,,,,,,,,,,,,,,,,,,,,,,,,,,105.0,1.0,,
117,,feedback,,html-keyboard-response,117,407508,0.0-1.0-22.0-0.0-3.0-0.0,0,0,37970,,,,,,20.0,,,,,,,,,,,,,,,,,,,,,,,,,,,,,,,,106.0,1.0,,
118,,iti,,html-keyboard-response,118,407614,0.0-1.0-22.0-0.0-5.0,0,0,37970,,,,,,,,,,,,,,,,,,,,,,,,,,,,,,,,,,,,,,107.0,1.0,,
119,,choice,,html-keyboard-response,119,408219,0.0-1.0-23.0-0.0-0.0,0,0,37970,,601.0,,,68.0,21.0,21.0,2000.0,1000.0,0.0,1.0,0.0,40-80,,0.0,telescope,license plate,40.0,80.0,telescope11,license plate14,40.0,100.0,digimarc.ms03.jpg,fl-hel-bel.jpg,/static/Category_learning/Stimuli/Experimental_stims/telescope/digimarc.ms03.jpg,/static/Category_learning/Stimuli/Experimental_stims/license plate/fl-hel-bel.jpg,1.0,telescope,license plate,40.0,80.0,telescope11,license plate14,40.0,100.0,0.0,107.601,0.601,,
120,,confirmation,,html-keyboard-response,120,409126,0.0-1.0-23.0-0.0-1.0-0.0,0,0,37970,,,,,,21.0,,,,,,,,,,,,,,,,,,,,,,,,,,,,,,,,108.5,0.899,,
121,,isi,,html-keyboard-response,121,409232,0.0-1.0-23.0-0.0-2.0,0,0,37970,,,,,,,,,,,,,,,,,,,,,,,,,,,,,,,,,,,,,,110.5,2.0,,
122,,feedback,,html-keyboard-response,122,410239,0.0-1.0-23.0-0.0-3.0-0.0,0,0,37970,,,,,,21.0,,,,,,,,,,,,,,,,,,,,,,,,,,,,,,,,111.5,1.0,,
123,,iti,,html-keyboard-response,123,410342,0.0-1.0-23.0-0.0-5.0,0,0,37970,,,,,,,,,,,,,,,,,,,,,,,,,,,,,,,,,,,,,,112.5,1.0,,
124,,choice,,html-keyboard-response,124,410733,0.0-1.0-24.0-0.0-0.0,0,0,37970,,387.0,,,68.0,22.0,22.0,1000.0,1500.0,0.0,1.0,1.0,40-40,1.0,,telescope,telescope,40.0,40.0,telescope11,telescope1,40.0,20.0,digimarc.ms03.jpg,celestron nexstar 114 gt reflector telescope.jpg,/static/Category_learning/Stimuli/Experimental_stims/telescope/digimarc.ms03.jpg,/static/Category_learning/Stimuli/Experimental_stims/telescope/celestron nexstar 114 gt reflector telescope.jpg,1.0,telescope,telescope,40.0,40.0,telescope11,telescope1,40.0,20.0,0.0,112.887,0.387,,
125,,confirmation,,html-keyboard-response,125,411855,0.0-1.0-24.0-0.0-1.0-0.0,0,0,37970,,,,,,22.0,,,,,,,,,,,,,,,,,,,,,,,,,,,,,,,,114.0,1.113,,
126,,isi,,html-keyboard-response,126,411963,0.0-1.0-24.0-0.0-2.0,0,0,37970,,,,,,,,,,,,,,,,,,,,,,,,,,,,,,,,,,,,,,115.0,1.0,,
127,,feedback,,html-keyboard-response,127,412971,0.0-1.0-24.0-0.0-3.0-0.0,0,0,37970,,,,,,22.0,,,,,,,,,,,,,,,,,,,,,,,,,,,,,,,,116.0,1.0,,
128,,iti,,html-keyboard-response,128,413077,0.0-1.0-24.0-0.0-5.0,0,0,37970,,,,,,,,,,,,,,,,,,,,,,,,,,,,,,,,,,,,,,117.5,1.5,,
129,,choice,,html-keyboard-response,129,413296,0.0-1.0-25.0-0.0-0.0,0,0,37970,,215.0,,,68.0,23.0,23.0,1000.0,1500.0,0.0,1.0,0.0,40-80,,1.0,license plate,train,80.0,40.0,license plate9,train6,60.0,20.0,nm-dhg089.jpg,train9.jpg,/static/Category_learning/Stimuli/Experimental_stims/license plate/nm-dhg089.jpg,/static/Category_learning/Stimuli/Experimental_stims/train/train9.jpg,1.0,license plate,train,80.0,40.0,license plate9,train6,60.0,20.0,0.0,117.715,0.215,,
130,,confirmation,,html-keyboard-response,130,414587,0.0-1.0-25.0-0.0-1.0-0.0,0,0,37970,,,,,,23.0,,,,,,,,,,,,,,,,,,,,,,,,,,,,,,,,119.0,1.285,,
131,,isi,,html-keyboard-response,131,414695,0.0-1.0-25.0-0.0-2.0,0,0,37970,,,,,,,,,,,,,,,,,,,,,,,,,,,,,,,,,,,,,,120.0,1.0,,
132,,feedback,,html-keyboard-response,132,415703,0.0-1.0-25.0-0.0-3.0-0.0,0,0,37970,,,,,,23.0,,,,,,,,,,,,,,,,,,,,,,,,,,,,,,,,121.0,1.0,,
133,,iti,,html-keyboard-response,133,415809,0.0-1.0-25.0-0.0-5.0,0,0,37970,,,,,,,,,,,,,,,,,,,,,,,,,,,,,,,,,,,,,,122.5,1.5,,
134,,choice,,html-keyboard-response,134,416413,0.0-1.0-26.0-0.0-0.0,0,0,37970,,600.0,,,68.0,24.0,24.0,2000.0,1500.0,0.0,1.0,1.0,20-80,0.0,,poker card,frame,20.0,80.0,poker card3,frame11,0.0,100.0,9817131.thl.jpg,AFRAME139.jpg,/static/Category_learning/Stimuli/Experimental_stims/poker card/9817131.thl.jpg,/static/Category_learning/Stimuli/Experimental_stims/frame/AFRAME139.jpg,1.0,poker card,frame,20.0,80.0,poker card3,frame11,0.0,100.0,0.0,123.1,0.6,,
135,,confirmation,,html-keyboard-response,135,417318,0.0-1.0-26.0-0.0-1.0-0.0,0,0,37970,,,,,,24.0,,,,,,,,,,,,,,,,,,,,,,,,,,,,,,,,124.0,0.9,,
136,,isi,,html-keyboard-response,136,417425,0.0-1.0-26.0-0.0-2.0,0,0,37970,,,,,,,,,,,,,,,,,,,,,,,,,,,,,,,,,,,,,,126.0,2.0,,
137,,feedback,,html-keyboard-response,137,418433,0.0-1.0-26.0-0.0-3.0-0.0,0,0,37970,,,,,,24.0,,,,,,,,,,,,,,,,,,,,,,,,,,,,,,,,127.0,1.0,,
138,,iti,,html-keyboard-response,138,418540,0.0-1.0-26.0-0.0-5.0,0,0,37970,,,,,,,,,,,,,,,,,,,,,,,,,,,,,,,,,,,,,,128.5,1.5,,
139,,choice,,html-keyboard-response,139,419335,0.0-1.0-27.0-0.0-0.0,0,0,37970,,792.0,,,68.0,25.0,25.0,1500.0,2000.0,0.0,1.0,0.0,40-60,,0.0,trumpet,flashlight,40.0,60.0,trumpet4,flashlight2,20.0,60.0,JUPITER+JTR1000S.jpg,AV-9 No Battery Flashlight.jpg,/static/Category_learning/Stimuli/Experimental_stims/trumpet/JUPITER+JTR1000S.jpg,/static/Category_learning/Stimuli/Experimental_stims/flashlight/AV-9 No Battery Flashlight.jpg,1.0,trumpet,flashlight,40.0,60.0,trumpet4,flashlight2,20.0,60.0,0.0,129.292,0.792,,
140,,confirmation,,html-keyboard-response,140,420049,0.0-1.0-27.0-0.0-1.0-0.0,0,0,37970,,,,,,25.0,,,,,,,,,,,,,,,,,,,,,,,,,,,,,,,,130.0,0.708,,
141,,isi,,html-keyboard-response,141,420155,0.0-1.0-27.0-0.0-2.0,0,0,37970,,,,,,,,,,,,,,,,,,,,,,,,,,,,,,,,,,,,,,131.5,1.5,,
142,,feedback,,html-keyboard-response,142,421164,0.0-1.0-27.0-0.0-3.0-0.0,0,0,37970,,,,,,25.0,,,,,,,,,,,,,,,,,,,,,,,,,,,,,,,,132.5,1.0,,
143,,iti,,html-keyboard-response,143,421270,0.0-1.0-27.0-0.0-5.0,0,0,37970,,,,,,,,,,,,,,,,,,,,,,,,,,,,,,,,,,,,,,134.5,2.0,,
144,,choice,,html-keyboard-response,144,421856,0.0-1.0-28.0-0.0-0.0,0,0,37970,,582.0,,,68.0,26.0,26.0,1500.0,3000.0,0.0,1.0,0.0,40-60,,0.0,stool,bowl,40.0,60.0,stool9,bowl8,40.0,40.0,ASTOOL7.jpg,ASLVBOWL.jpg,/static/Category_learning/Stimuli/Experimental_stims/stool/ASTOOL7.jpg,/static/Category_learning/Stimuli/Experimental_stims/bowl/ASLVBOWL.jpg,1.0,stool,bowl,40.0,60.0,stool9,bowl8,40.0,40.0,0.0,135.082,0.582,,
145,,confirmation,,html-keyboard-response,145,422781,0.0-1.0-28.0-0.0-1.0-0.0,0,0,37970,,,,,,26.0,,,,,,,,,,,,,,,,,,,,,,,,,,,,,,,,136.0,0.918,,
146,,isi,,html-keyboard-response,146,422888,0.0-1.0-28.0-0.0-2.0,0,0,37970,,,,,,,,,,,,,,,,,,,,,,,,,,,,,,,,,,,,,,137.5,1.5,,
147,,feedback,,html-keyboard-response,147,423894,0.0-1.0-28.0-0.0-3.0-0.0,0,0,37970,,,,,,26.0,,,,,,,,,,,,,,,,,,,,,,,,,,,,,,,,138.5,1.0,,
148,,iti,,html-keyboard-response,148,424001,0.0-1.0-28.0-0.0-5.0,0,0,37970,,,,,,,,,,,,,,,,,,,,,,,,,,,,,,,,,,,,,,141.5,3.0,,
149,,choice,,html-keyboard-response,149,424339,0.0-1.0-29.0-0.0-0.0,0,0,37970,,334.0,,,68.0,27.0,27.0,1000.0,1000.0,0.0,1.0,0.0,80-80,,,key chain,lipstick,80.0,80.0,key chain8,lipstick5,100.0,80.0,Keychain01.jpg,P35719_hero.jpg,/static/Category_learning/Stimuli/Experimental_stims/key chain/Keychain01.jpg,/static/Category_learning/Stimuli/Experimental_stims/lipstick/P35719_hero.jpg,1.0,key chain,lipstick,80.0,80.0,key chain8,lipstick5,100.0,80.0,0.0,141.834,0.334,,
150,,confirmation,,html-keyboard-response,150,425511,0.0-1.0-29.0-0.0-1.0-0.0,0,0,37970,,,,,,27.0,,,,,,,,,,,,,,,,,,,,,,,,,,,,,,,,143.0,1.166,,
151,,isi,,html-keyboard-response,151,425617,0.0-1.0-29.0-0.0-2.0,0,0,37970,,,,,,,,,,,,,,,,,,,,,,,,,,,,,,,,,,,,,,144.0,1.0,,
152,,feedback,,html-keyboard-response,152,426622,0.0-1.0-29.0-0.0-3.0-0.0,0,0,37970,,,,,,27.0,,,,,,,,,,,,,,,,,,,,,,,,,,,,,,,,145.0,1.0,,
153,,iti,,html-keyboard-response,153,426726,0.0-1.0-29.0-0.0-5.0,0,0,37970,,,,,,,,,,,,,,,,,,,,,,,,,,,,,,,,,,,,,,146.0,1.0,,
154,,choice,,html-keyboard-response,154,427006,0.0-1.0-30.0-0.0-0.0,0,0,37970,,276.0,,,75.0,28.0,28.0,3500.0,1500.0,0.0,1.0,0.0,60-60,,,bench,desk,60.0,60.0,bench7,desk5,40.0,80.0,ACONBENCH.jpg,ADESK6.jpg,/static/Category_learning/Stimuli/Experimental_stims/bench/ACONBENCH.jpg,/static/Category_learning/Stimuli/Experimental_stims/desk/ADESK6.jpg,0.0,desk,bench,60.0,60.0,desk5,bench7,80.0,40.0,0.0,146.276,0.276,,
155,,confirmation,,html-keyboard-response,155,428236,0.0-1.0-30.0-0.0-1.0-0.0,0,0,37970,,,,,,28.0,,,,,,,,,,,,,,,,,,,,,,,,,,,,,,,,147.5,1.224,,
156,,isi,,html-keyboard-response,156,428343,0.0-1.0-30.0-0.0-2.0,0,0,37970,,,,,,,,,,,,,,,,,,,,,,,,,,,,,,,,,,,,,,151.0,3.5,,
157,,feedback,,html-keyboard-response,157,429351,0.0-1.0-30.0-0.0-3.0-0.0,0,0,37970,,,,,,28.0,,,,,,,,,,,,,,,,,,,,,,,,,,,,,,,,152.0,1.0,,
158,,iti,,html-keyboard-response,158,429457,0.0-1.0-30.0-0.0-5.0,0,0,37970,,,,,,,,,,,,,,,,,,,,,,,,,,,,,,,,,,,,,,153.5,1.5,,
159,,choice,,html-keyboard-response,159,429758,0.0-1.0-31.0-0.0-0.0,0,0,37970,,297.0,,,75.0,29.0,29.0,2000.0,1000.0,0.0,1.0,1.0,40-40,1.0,,trumpet,trumpet,40.0,40.0,trumpet4,trumpet11,20.0,20.0,JUPITER+JTR1000S.jpg,JUPITER+JTR604L.jpg,/static/Category_learning/Stimuli/Experimental_stims/trumpet/JUPITER+JTR1000S.jpg,/static/Category_learning/Stimuli/Experimental_stims/trumpet/JUPITER+JTR604L.jpg,0.0,trumpet,trumpet,40.0,40.0,trumpet11,trumpet4,20.0,20.0,0.0,153.797,0.297,,
160,,confirmation,,html-keyboard-response,160,430967,0.0-1.0-31.0-0.0-1.0-0.0,0,0,37970,,,,,,29.0,,,,,,,,,,,,,,,,,,,,,,,,,,,,,,,,155.0,1.203,,
161,,isi,,html-keyboard-response,161,431073,0.0-1.0-31.0-0.0-2.0,0,0,37970,,,,,,,,,,,,,,,,,,,,,,,,,,,,,,,,,,,,,,157.0,2.0,,
162,,feedback,,html-keyboard-response,162,432081,0.0-1.0-31.0-0.0-3.0-0.0,0,0,37970,,,,,,29.0,,,,,,,,,,,,,,,,,,,,,,,,,,,,,,,,158.0,1.0,,
163,,iti,,html-keyboard-response,163,432188,0.0-1.0-31.0-0.0-5.0,0,0,37970,,,,,,,,,,,,,,,,,,,,,,,,,,,,,,,,,,,,,,159.0,1.0,,
164,,choice,,html-keyboard-response,164,433319,0.0-1.0-32.0-0.0-0.0,0,0,37970,,1127.0,,,75.0,30.0,30.0,2000.0,3500.0,0.0,1.0,0.0,40-60,,0.0,stool,dresser,40.0,60.0,stool10,dresser12,60.0,60.0,ASTOOL26.jpg,ADRESSE58.jpg,/static/Category_learning/Stimuli/Experimental_stims/stool/ASTOOL26.jpg,/static/Category_learning/Stimuli/Experimental_stims/dresser/ADRESSE58.jpg,0.0,dresser,stool,60.0,40.0,dresser12,stool10,60.0,60.0,0.0,160.127,1.127,,
165,,confirmation,,html-keyboard-response,165,433696,0.0-1.0-32.0-0.0-1.0-0.0,0,0,37970,,,,,,30.0,,,,,,,,,,,,,,,,,,,,,,,,,,,,,,,,160.5,0.373,,
166,,isi,,html-keyboard-response,166,433799,0.0-1.0-32.0-0.0-2.0,0,0,37970,,,,,,,,,,,,,,,,,,,,,,,,,,,,,,,,,,,,,,162.5,2.0,,
167,,feedback,,html-keyboard-response,167,434806,0.0-1.0-32.0-0.0-3.0-0.0,0,0,37970,,,,,,30.0,,,,,,,,,,,,,,,,,,,,,,,,,,,,,,,,163.5,1.0,,
168,,iti,,html-keyboard-response,168,434910,0.0-1.0-32.0-0.0-5.0,0,0,37970,,,,,,,,,,,,,,,,,,,,,,,,,,,,,,,,,,,,,,167.0,3.5,,
169,,choice,,html-keyboard-response,169,435179,0.0-1.0-33.0-0.0-0.0,0,0,37970,,266.0,,,75.0,31.0,31.0,2000.0,2000.0,0.0,1.0,1.0,40-60,0.0,,stool,desk,40.0,60.0,stool9,desk5,40.0,80.0,ASTOOL7.jpg,ADESK6.jpg,/static/Category_learning/Stimuli/Experimental_stims/stool/ASTOOL7.jpg,/static/Category_learning/Stimuli/Experimental_stims/desk/ADESK6.jpg,0.0,desk,stool,60.0,40.0,desk5,stool9,80.0,40.0,0.0,167.266,0.266,,
170,,confirmation,,html-keyboard-response,170,436420,0.0-1.0-33.0-0.0-1.0-0.0,0,0,37970,,,,,,31.0,,,,,,,,,,,,,,,,,,,,,,,,,,,,,,,,168.5,1.234,,
171,,isi,,html-keyboard-response,171,436525,0.0-1.0-33.0-0.0-2.0,0,0,37970,,,,,,,,,,,,,,,,,,,,,,,,,,,,,,,,,,,,,,170.5,2.0,,
172,,feedback,,html-keyboard-response,172,437531,0.0-1.0-33.0-0.0-3.0-0.0,0,0,37970,,,,,,31.0,,,,,,,,,,,,,,,,,,,,,,,,,,,,,,,,171.5,1.0,,
173,,iti,,html-keyboard-response,173,437638,0.0-1.0-33.0-0.0-5.0,0,0,37970,,,,,,,,,,,,,,,,,,,,,,,,,,,,,,,,,,,,,,173.5,2.0,,
174,,choice,,html-keyboard-response,174,437770,0.0-1.0-34.0-0.0-0.0,0,0,37970,,129.0,,,75.0,32.0,32.0,1500.0,2000.0,0.0,1.0,0.0,40-40,,,stool,tape,40.0,40.0,stool8,tape9,60.0,40.0,ASTOOL33.jpg,desk tape disp.jpg,/static/Category_learning/Stimuli/Experimental_stims/stool/ASTOOL33.jpg,/static/Category_learning/Stimuli/Experimental_stims/tape/desk tape disp.jpg,0.0,tape,stool,40.0,40.0,tape9,stool8,40.0,60.0,0.0,173.629,0.129,,
175,,confirmation,,html-keyboard-response,175,439147,0.0-1.0-34.0-0.0-1.0-0.0,0,0,37970,,,,,,32.0,,,,,,,,,,,,,,,,,,,,,,,,,,,,,,,,175.0,1.371,,
176,,isi,,html-keyboard-response,176,439251,0.0-1.0-34.0-0.0-2.0,0,0,37970,,,,,,,,,,,,,,,,,,,,,,,,,,,,,,,,,,,,,,176.5,1.5,,
177,,feedback,,html-keyboard-response,177,440258,0.0-1.0-34.0-0.0-3.0-0.0,0,0,37970,,,,,,32.0,,,,,,,,,,,,,,,,,,,,,,,,,,,,,,,,177.5,1.0,,
178,,iti,,html-keyboard-response,178,440364,0.0-1.0-34.0-0.0-5.0,0,0,37970,,,,,,,,,,,,,,,,,,,,,,,,,,,,,,,,,,,,,,179.5,2.0,,
179,,choice,,html-keyboard-response,179,440436,0.0-1.0-35.0-0.0-0.0,0,0,37970,,68.0,,,75.0,33.0,33.0,1000.0,3000.0,0.0,1.0,0.0,40-40,,,yarn,tent,40.0,40.0,yarn10,tent5,60.0,60.0,revelation-yarn.jpg,Dome Tentnb87r67.jpg,/static/Category_learning/Stimuli/Experimental_stims/yarn/revelation-yarn.jpg,/static/Category_learning/Stimuli/Experimental_stims/tent/Dome Tentnb87r67.jpg,0.0,tent,yarn,40.0,40.0,tent5,yarn10,60.0,60.0,0.0,179.568,0.068,,
180,,confirmation,,html-keyboard-response,180,441873,0.0-1.0-35.0-0.0-1.0-0.0,0,0,37970,,,,,,33.0,,,,,,,,,,,,,,,,,,,,,,,,,,,,,,,,181.0,1.432,,
181,,isi,,html-keyboard-response,181,441981,0.0-1.0-35.0-0.0-2.0,0,0,37970,,,,,,,,,,,,,,,,,,,,,,,,,,,,,,,,,,,,,,182.0,1.0,,
182,,feedback,,html-keyboard-response,182,442986,0.0-1.0-35.0-0.0-3.0-0.0,0,0,37970,,,,,,33.0,,,,,,,,,,,,,,,,,,,,,,,,,,,,,,,,183.0,1.0,,
183,,iti,,html-keyboard-response,183,443089,0.0-1.0-35.0-0.0-5.0,0,0,37970,,,,,,,,,,,,,,,,,,,,,,,,,,,,,,,,,,,,,,186.0,3.0,,
184,,choice,,html-keyboard-response,184,443502,0.0-1.0-36.0-0.0-0.0,0,0,37970,,410.0,,,75.0,34.0,34.0,1000.0,1500.0,0.0,1.0,0.0,20-20,,,pen,nail polish,20.0,20.0,pen2,nail polish3,20.0,40.0,Montblanc-Blu-Starwalker-BP copy.jpg,327636.jpg,/static/Category_learning/Stimuli/Experimental_stims/pen/Montblanc-Blu-Starwalker-BP copy.jpg,/static/Category_learning/Stimuli/Experimental_stims/nail polish/327636.jpg,0.0,nail polish,pen,20.0,20.0,nail polish3,pen2,40.0,20.0,0.0,186.41,0.41,,
185,,confirmation,,html-keyboard-response,185,444599,0.0-1.0-36.0-0.0-1.0-0.0,0,0,37970,,,,,,34.0,,,,,,,,,,,,,,,,,,,,,,,,,,,,,,,,187.5,1.09,,
186,,isi,,html-keyboard-response,186,444706,0.0-1.0-36.0-0.0-2.0,0,0,37970,,,,,,,,,,,,,,,,,,,,,,,,,,,,,,,,,,,,,,188.5,1.0,,
187,,feedback,,html-keyboard-response,187,445714,0.0-1.0-36.0-0.0-3.0-0.0,0,0,37970,,,,,,34.0,,,,,,,,,,,,,,,,,,,,,,,,,,,,,,,,189.5,1.0,,
188,,iti,,html-keyboard-response,188,445820,0.0-1.0-36.0-0.0-5.0,0,0,37970,,,,,,,,,,,,,,,,,,,,,,,,,,,,,,,,,,,,,,191.0,1.5,,
189,,choice,,html-keyboard-response,189,446116,0.0-1.0-37.0-0.0-0.0,0,0,37970,,294.0,,,75.0,35.0,35.0,1500.0,1000.0,0.0,1.0,0.0,40-60,,0.0,stool,dresser,40.0,60.0,stool2,dresser14,20.0,60.0,ASTOOL46.jpg,Adressertabl3.jpg,/static/Category_learning/Stimuli/Experimental_stims/stool/ASTOOL46.jpg,/static/Category_learning/Stimuli/Experimental_stims/dresser/Adressertabl3.jpg,0.0,dresser,stool,60.0,40.0,dresser14,stool2,60.0,20.0,0.0,191.294,0.294,,
190,,confirmation,,html-keyboard-response,190,447330,0.0-1.0-37.0-0.0-1.0-0.0,0,0,37970,,,,,,35.0,,,,,,,,,,,,,,,,,,,,,,,,,,,,,,,,192.5,1.206,,
191,,isi,,html-keyboard-response,191,447438,0.0-1.0-37.0-0.0-2.0,0,0,37970,,,,,,,,,,,,,,,,,,,,,,,,,,,,,,,,,,,,,,194.0,1.5,,
192,,feedback,,html-keyboard-response,192,448445,0.0-1.0-37.0-0.0-3.0-0.0,0,0,37970,,,,,,35.0,,,,,,,,,,,,,,,,,,,,,,,,,,,,,,,,195.0,1.0,,
193,,iti,,html-keyboard-response,193,448551,0.0-1.0-37.0-0.0-5.0,0,0,37970,,,,,,,,,,,,,,,,,,,,,,,,,,,,,,,,,,,,,,196.0,1.0,,
194,,choice,,html-keyboard-response,194,448947,0.0-1.0-38.0-0.0-0.0,0,0,37970,,392.0,,,75.0,36.0,36.0,1500.0,1000.0,0.0,1.0,0.0,20-80,,0.0,necklace,motorcycle,20.0,80.0,necklace2,motorcycle2,20.0,100.0,Anecklace7.jpg,motorcycle33.jpg,/static/Category_learning/Stimuli/Experimental_stims/necklace/Anecklace7.jpg,/static/Category_learning/Stimuli/Experimental_stims/motorcycle/motorcycle33.jpg,0.0,motorcycle,necklace,80.0,20.0,motorcycle2,necklace2,100.0,20.0,0.0,196.392,0.392,,
195,,confirmation,,html-keyboard-response,195,450059,0.0-1.0-38.0-0.0-1.0-0.0,0,0,37970,,,,,,36.0,,,,,,,,,,,,,,,,,,,,,,,,,,,,,,,,197.5,1.108,,
196,,isi,,html-keyboard-response,196,450168,0.0-1.0-38.0-0.0-2.0,0,0,37970,,,,,,,,,,,,,,,,,,,,,,,,,,,,,,,,,,,,,,199.0,1.5,,
197,,feedback,,html-keyboard-response,197,451175,0.0-1.0-38.0-0.0-3.0-0.0,0,0,37970,,,,,,36.0,,,,,,,,,,,,,,,,,,,,,,,,,,,,,,,,200.0,1.0,,
198,,iti,,html-keyboard-response,198,451280,0.0-1.0-38.0-0.0-5.0,0,0,37970,,,,,,,,,,,,,,,,,,,,,,,,,,,,,,,,,,,,,,201.0,1.0,,
199,,choice,,html-keyboard-response,199,451605,0.0-1.0-39.0-0.0-0.0,0,0,37970,,321.0,,,75.0,37.0,37.0,1000.0,1000.0,0.0,1.0,1.0,60-60,1.0,,dresser,dresser,60.0,60.0,dresser12,dresser14,60.0,60.0,ADRESSE58.jpg,Adressertabl3.jpg,/static/Category_learning/Stimuli/Experimental_stims/dresser/ADRESSE58.jpg,/static/Category_learning/Stimuli/Experimental_stims/dresser/Adressertabl3.jpg,0.0,dresser,dresser,60.0,60.0,dresser14,dresser12,60.0,60.0,0.0,201.321,0.321,,
200,,confirmation,,html-keyboard-response,200,452792,0.0-1.0-39.0-0.0-1.0-0.0,0,0,37970,,,,,,37.0,,,,,,,,,,,,,,,,,,,,,,,,,,,,,,,,202.5,1.179,,
201,,isi,,html-keyboard-response,201,452898,0.0-1.0-39.0-0.0-2.0,0,0,37970,,,,,,,,,,,,,,,,,,,,,,,,,,,,,,,,,,,,,,203.5,1.0,,
202,,feedback,,html-keyboard-response,202,453907,0.0-1.0-39.0-0.0-3.0-0.0,0,0,37970,,,,,,37.0,,,,,,,,,,,,,,,,,,,,,,,,,,,,,,,,204.5,1.0,,
203,,iti,,html-keyboard-response,203,454015,0.0-1.0-39.0-0.0-5.0,0,0,37970,,,,,,,,,,,,,,,,,,,,,,,,,,,,,,,,,,,,,,205.5,1.0,,
204,,choice,,html-keyboard-response,204,454113,0.0-1.0-40.0-0.0-0.0,0,0,37970,,93.0,,,75.0,38.0,38.0,3000.0,1000.0,0.0,1.0,0.0,20-60,,0.0,sofa,bongo,20.0,60.0,sofa9,bongo12,20.0,40.0,ALOVSEAT9.jpg,26686609.thl.jpg,/static/Category_learning/Stimuli/Experimental_stims/sofa/ALOVSEAT9.jpg,/static/Category_learning/Stimuli/Experimental_stims/bongo/26686609.thl.jpg,0.0,bongo,sofa,60.0,20.0,bongo12,sofa9,40.0,20.0,0.0,205.593,0.093,,
205,,confirmation,,html-keyboard-response,205,455523,0.0-1.0-40.0-0.0-1.0-0.0,0,0,37970,,,,,,38.0,,,,,,,,,,,,,,,,,,,,,,,,,,,,,,,,207.0,1.407,,
206,,isi,,html-keyboard-response,206,455627,0.0-1.0-40.0-0.0-2.0,0,0,37970,,,,,,,,,,,,,,,,,,,,,,,,,,,,,,,,,,,,,,210.0,3.0,,
207,,feedback,,html-keyboard-response,207,456631,0.0-1.0-40.0-0.0-3.0-0.0,0,0,37970,,,,,,38.0,,,,,,,,,,,,,,,,,,,,,,,,,,,,,,,,211.0,1.0,,
208,,iti,,html-keyboard-response,208,456737,0.0-1.0-40.0-0.0-5.0,0,0,37970,,,,,,,,,,,,,,,,,,,,,,,,,,,,,,,,,,,,,,212.0,1.0,,
209,,choice,,html-keyboard-response,209,456956,0.0-1.0-41.0-0.0-0.0,0,0,37970,,215.0,,,75.0,39.0,39.0,3000.0,3000.0,0.0,1.0,0.0,20-20,,,patio lounge chair,seashell,20.0,20.0,patio lounge chair14,seashell13,40.0,0.0,2987951.jpg,coquillage22.jpg,/static/Category_learning/Stimuli/Experimental_stims/patio lounge chair/2987951.jpg,/static/Category_learning/Stimuli/Experimental_stims/seashell/coquillage22.jpg,0.0,seashell,patio lounge chair,20.0,20.0,seashell13,patio lounge chair14,0.0,40.0,0.0,212.215,0.215,,
210,,confirmation,,html-keyboard-response,210,458248,0.0-1.0-41.0-0.0-1.0-0.0,0,0,37970,,,,,,39.0,,,,,,,,,,,,,,,,,,,,,,,,,,,,,,,,213.5,1.285,,
211,,isi,,html-keyboard-response,211,458354,0.0-1.0-41.0-0.0-2.0,0,0,37970,,,,,,,,,,,,,,,,,,,,,,,,,,,,,,,,,,,,,,216.5,3.0,,
212,,feedback,,html-keyboard-response,212,459362,0.0-1.0-41.0-0.0-3.0-0.0,0,0,37970,,,,,,39.0,,,,,,,,,,,,,,,,,,,,,,,,,,,,,,,,217.5,1.0,,
213,,iti,,html-keyboard-response,213,459468,0.0-1.0-41.0-0.0-5.0,0,0,37970,,,,,,,,,,,,,,,,,,,,,,,,,,,,,,,,,,,,,,220.5,3.0,,
214,,choice,,html-keyboard-response,214,459631,0.0-1.0-42.0-0.0-0.0,0,0,37970,,158.0,,,75.0,40.0,40.0,2000.0,2000.0,0.0,1.0,0.0,60-80,,1.0,makeup compact,flashlight,80.0,60.0,makeup compact9,flashlight10,100.0,80.0,b_102019.jpg,834784_sk_lg.jpg,/static/Category_learning/Stimuli/Experimental_stims/makeup compact/b_102019.jpg,/static/Category_learning/Stimuli/Experimental_stims/flashlight/834784_sk_lg.jpg,0.0,flashlight,makeup compact,60.0,80.0,flashlight10,makeup compact9,80.0,100.0,0.0,220.658,0.158,,
215,,confirmation,,html-keyboard-response,215,460981,0.0-1.0-42.0-0.0-1.0-0.0,0,0,37970,,,,,,40.0,,,,,,,,,,,,,,,,,,,,,,,,,,,,,,,,222.0,1.342,,
216,,isi,,html-keyboard-response,216,461086,0.0-1.0-42.0-0.0-2.0,0,0,37970,,,,,,,,,,,,,,,,,,,,,,,,,,,,,,,,,,,,,,224.0,2.0,,
217,,feedback,,html-keyboard-response,217,462092,0.0-1.0-42.0-0.0-3.0-0.0,0,0,37970,,,,,,40.0,,,,,,,,,,,,,,,,,,,,,,,,,,,,,,,,225.0,1.0,,
218,,iti,,html-keyboard-response,218,462200,0.0-1.0-42.0-0.0-5.0,0,0,37970,,,,,,,,,,,,,,,,,,,,,,,,,,,,,,,,,,,,,,227.0,2.0,,
219,,choice,,html-keyboard-response,219,462349,0.0-1.0-43.0-0.0-0.0,0,0,37970,,146.0,,,75.0,41.0,41.0,2000.0,1000.0,0.0,1.0,1.0,40-80,0.0,,tent,key chain,40.0,80.0,tent5,key chain8,60.0,100.0,Dome Tentnb87r67.jpg,Keychain01.jpg,/static/Category_learning/Stimuli/Experimental_stims/tent/Dome Tentnb87r67.jpg,/static/Category_learning/Stimuli/Experimental_stims/key chain/Keychain01.jpg,0.0,key chain,tent,80.0,40.0,key chain8,tent5,100.0,60.0,0.0,227.146,0.146,,
220,,confirmation,,html-keyboard-response,220,463709,0.0-1.0-43.0-0.0-1.0-0.0,0,0,37970,,,,,,41.0,,,,,,,,,,,,,,,,,,,,,,,,,,,,,,,,228.5,1.354,,
221,,isi,,html-keyboard-response,221,463818,0.0-1.0-43.0-0.0-2.0,0,0,37970,,,,,,,,,,,,,,,,,,,,,,,,,,,,,,,,,,,,,,230.5,2.0,,
222,,feedback,,html-keyboard-response,222,464823,0.0-1.0-43.0-0.0-3.0-0.0,0,0,37970,,,,,,41.0,,,,,,,,,,,,,,,,,,,,,,,,,,,,,,,,231.5,1.0,,
223,,iti,,html-keyboard-response,223,464927,0.0-1.0-43.0-0.0-5.0,0,0,37970,,,,,,,,,,,,,,,,,,,,,,,,,,,,,,,,,,,,,,232.5,1.0,,
224,,choice,,html-keyboard-response,224,465213,0.0-1.0-44.0-0.0-0.0,0,0,37970,,282.0,,,75.0,42.0,42.0,1000.0,1500.0,0.0,1.0,0.0,40-80,,1.0,makeup compact,trumpet,80.0,40.0,makeup compact6,trumpet13,80.0,40.0,P0754_hero.jpg,JUPITER+JTR1600GS.jpg,/static/Category_learning/Stimuli/Experimental_stims/makeup compact/P0754_hero.jpg,/static/Category_learning/Stimuli/Experimental_stims/trumpet/JUPITER+JTR1600GS.jpg,0.0,trumpet,makeup compact,40.0,80.0,trumpet13,makeup compact6,40.0,80.0,0.0,232.782,0.282,,
225,,confirmation,,html-keyboard-response,225,466438,0.0-1.0-44.0-0.0-1.0-0.0,0,0,37970,,,,,,42.0,,,,,,,,,,,,,,,,,,,,,,,,,,,,,,,,234.0,1.218,,
226,,isi,,html-keyboard-response,226,466546,0.0-1.0-44.0-0.0-2.0,0,0,37970,,,,,,,,,,,,,,,,,,,,,,,,,,,,,,,,,,,,,,235.0,1.0,,
227,,feedback,,html-keyboard-response,227,467551,0.0-1.0-44.0-0.0-3.0-0.0,0,0,37970,,,,,,42.0,,,,,,,,,,,,,,,,,,,,,,,,,,,,,,,,236.0,1.0,,
228,,iti,,html-keyboard-response,228,467656,0.0-1.0-44.0-0.0-5.0,0,0,37970,,,,,,,,,,,,,,,,,,,,,,,,,,,,,,,,,,,,,,237.5,1.5,,
229,,choice,,html-keyboard-response,229,468055,0.0-1.0-45.0-0.0-0.0,0,0,37970,,395.0,,,75.0,43.0,43.0,1000.0,2000.0,0.0,1.0,0.0,80-80,,,hat,makeup compact,80.0,80.0,hat2,makeup compact10,100.0,60.0,Ahatwithfeat7.jpg,P95108_hero.jpg,/static/Category_learning/Stimuli/Experimental_stims/hat/Ahatwithfeat7.jpg,/static/Category_learning/Stimuli/Experimental_stims/makeup compact/P95108_hero.jpg,0.0,makeup compact,hat,80.0,80.0,makeup compact10,hat2,60.0,100.0,0.0,237.895,0.395,,
230,,confirmation,,html-keyboard-response,230,469165,0.0-1.0-45.0-0.0-1.0-0.0,0,0,37970,,,,,,43.0,,,,,,,,,,,,,,,,,,,,,,,,,,,,,,,,239.0,1.105,,
231,,isi,,html-keyboard-response,231,469270,0.0-1.0-45.0-0.0-2.0,0,0,37970,,,,,,,,,,,,,,,,,,,,,,,,,,,,,,,,,,,,,,240.0,1.0,,
232,,feedback,,html-keyboard-response,232,470275,0.0-1.0-45.0-0.0-3.0-0.0,0,0,37970,,,,,,43.0,,,,,,,,,,,,,,,,,,,,,,,,,,,,,,,,241.0,1.0,,
233,,iti,,html-keyboard-response,233,470383,0.0-1.0-45.0-0.0-5.0,0,0,37970,,,,,,,,,,,,,,,,,,,,,,,,,,,,,,,,,,,,,,243.0,2.0,,
234,,choice,,html-keyboard-response,234,470429,0.0-1.0-46.0-0.0-0.0,0,0,37970,,43.0,,,75.0,44.0,44.0,1500.0,1500.0,0.0,1.0,0.0,40-60,,1.0,fan,tent,60.0,40.0,fan1,tent4,80.0,40.0,01393.fpx.jpg,Atent12.jpg,/static/Category_learning/Stimuli/Experimental_stims/fan/01393.fpx.jpg,/static/Category_learning/Stimuli/Experimental_stims/tent/Atent12.jpg,0.0,tent,fan,40.0,60.0,tent4,fan1,40.0,80.0,0.0,243.043,0.043,,
235,,confirmation,,html-keyboard-response,235,471889,0.0-1.0-46.0-0.0-1.0-0.0,0,0,37970,,,,,,44.0,,,,,,,,,,,,,,,,,,,,,,,,,,,,,,,,244.5,1.457,,
236,,isi,,html-keyboard-response,236,471997,0.0-1.0-46.0-0.0-2.0,0,0,37970,,,,,,,,,,,,,,,,,,,,,,,,,,,,,,,,,,,,,,246.0,1.5,,
237,,feedback,,html-keyboard-response,237,473005,0.0-1.0-46.0-0.0-3.0-0.0,0,0,37970,,,,,,44.0,,,,,,,,,,,,,,,,,,,,,,,,,,,,,,,,247.0,1.0,,
238,,iti,,html-keyboard-response,238,473112,0.0-1.0-46.0-0.0-5.0,0,0,37970,,,,,,,,,,,,,,,,,,,,,,,,,,,,,,,,,,,,,,248.5,1.5,,
239,,choice,,html-keyboard-response,239,473367,0.0-1.0-47.0-0.0-0.0,0,0,37970,,251.0,,,75.0,45.0,45.0,2000.0,3500.0,0.0,1.0,1.0,40-80,0.0,,tent,microscope,40.0,80.0,tent4,microscope12,40.0,60.0,Atent12.jpg,usbdigitalmicroscope1_small1.jpg,/static/Category_learning/Stimuli/Experimental_stims/tent/Atent12.jpg,/static/Category_learning/Stimuli/Experimental_stims/microscope/usbdigitalmicroscope1_small1.jpg,0.0,microscope,tent,80.0,40.0,microscope12,tent4,60.0,40.0,0.0,248.751,0.251,,
240,,confirmation,,html-keyboard-response,240,474626,0.0-1.0-47.0-0.0-1.0-0.0,0,0,37970,,,,,,45.0,,,,,,,,,,,,,,,,,,,,,,,,,,,,,,,,250.0,1.249,,
241,,isi,,html-keyboard-response,241,474734,0.0-1.0-47.0-0.0-2.0,0,0,37970,,,,,,,,,,,,,,,,,,,,,,,,,,,,,,,,,,,,,,252.0,2.0,,
242,,feedback,,html-keyboard-response,242,475741,0.0-1.0-47.0-0.0-3.0-0.0,0,0,37970,,,,,,45.0,,,,,,,,,,,,,,,,,,,,,,,,,,,,,,,,253.0,1.0,,
243,,iti,,html-keyboard-response,243,475849,0.0-1.0-47.0-0.0-5.0,0,0,37970,,,,,,,,,,,,,,,,,,,,,,,,,,,,,,,,,,,,,,256.5,3.5,,
244,,choice,,html-keyboard-response,244,476204,0.0-1.0-48.0-0.0-0.0,0,0,37970,,351.0,,,75.0,46.0,46.0,2000.0,1500.0,0.0,1.0,0.0,40-80,,0.0,yarn,lipstick,40.0,80.0,yarn8,lipstick9,60.0,100.0,smonlineyarn-285x250.jpg,P189145_hero.jpg,/static/Category_learning/Stimuli/Experimental_stims/yarn/smonlineyarn-285x250.jpg,/static/Category_learning/Stimuli/Experimental_stims/lipstick/P189145_hero.jpg,0.0,lipstick,yarn,80.0,40.0,lipstick9,yarn8,100.0,60.0,0.0,256.851,0.351,,
245,,confirmation,,html-keyboard-response,245,477359,0.0-1.0-48.0-0.0-1.0-0.0,0,0,37970,,,,,,46.0,,,,,,,,,,,,,,,,,,,,,,,,,,,,,,,,258.0,1.149,,
246,,isi,,html-keyboard-response,246,477465,0.0-1.0-48.0-0.0-2.0,0,0,37970,,,,,,,,,,,,,,,,,,,,,,,,,,,,,,,,,,,,,,260.0,2.0,,
247,,feedback,,html-keyboard-response,247,478472,0.0-1.0-48.0-0.0-3.0-0.0,0,0,37970,,,,,,46.0,,,,,,,,,,,,,,,,,,,,,,,,,,,,,,,,261.0,1.0,,
248,,iti,,html-keyboard-response,248,478579,0.0-1.0-48.0-0.0-5.0,0,0,37970,,,,,,,,,,,,,,,,,,,,,,,,,,,,,,,,,,,,,,262.5,1.5,,
249,,choice,,html-keyboard-response,249,479052,0.0-1.0-49.0-0.0-0.0,0,0,37970,,469.0,,,75.0,47.0,47.0,1000.0,1000.0,0.0,1.0,1.0,60-80,0.0,,flashlight,license plate,60.0,80.0,flashlight10,license plate9,80.0,60.0,834784_sk_lg.jpg,nm-dhg089.jpg,/static/Category_learning/Stimuli/Experimental_stims/flashlight/834784_sk_lg.jpg,/static/Category_learning/Stimuli/Experimental_stims/license plate/nm-dhg089.jpg,0.0,license plate,flashlight,80.0,60.0,license plate9,flashlight10,60.0,80.0,0.0,262.969,0.469,,
250,,confirmation,,html-keyboard-response,250,480089,0.0-1.0-49.0-0.0-1.0-0.0,0,0,37970,,,,,,47.0,,,,,,,,,,,,,,,,,,,,,,,,,,,,,,,,264.0,1.031,,
251,,isi,,html-keyboard-response,251,480195,0.0-1.0-49.0-0.0-2.0,0,0,37970,,,,,,,,,,,,,,,,,,,,,,,,,,,,,,,,,,,,,,265.0,1.0,,
252,,feedback,,html-keyboard-response,252,481203,0.0-1.0-49.0-0.0-3.0-0.0,0,0,37970,,,,,,47.0,,,,,,,,,,,,,,,,,,,,,,,,,,,,,,,,266.0,1.0,,
253,,iti,,html-keyboard-response,253,481310,0.0-1.0-49.0-0.0-5.0,0,0,37970,,,,,,,,,,,,,,,,,,,,,,,,,,,,,,,,,,,,,,267.0,1.0,,
254,,choice,,html-keyboard-response,254,481633,0.0-1.0-50.0-0.0-0.0,0,0,37970,,320.0,,,75.0,48.0,48.0,1500.0,1000.0,0.0,1.0,0.0,40-60,,0.0,train,flashlight,40.0,60.0,train8,flashlight12,40.0,60.0,PL51190.jpg,new05.jpg,/static/Category_learning/Stimuli/Experimental_stims/train/PL51190.jpg,/static/Category_learning/Stimuli/Experimental_stims/flashlight/new05.jpg,0.0,flashlight,train,60.0,40.0,flashlight12,train8,60.0,40.0,0.0,267.32,0.32,,
255,,confirmation,,html-keyboard-response,255,482819,0.0-1.0-50.0-0.0-1.0-0.0,0,0,37970,,,,,,48.0,,,,,,,,,,,,,,,,,,,,,,,,,,,,,,,,268.5,1.18,,
256,,isi,,html-keyboard-response,256,482926,0.0-1.0-50.0-0.0-2.0,0,0,37970,,,,,,,,,,,,,,,,,,,,,,,,,,,,,,,,,,,,,,270.0,1.5,,
257,,feedback,,html-keyboard-response,257,483934,0.0-1.0-50.0-0.0-3.0-0.0,0,0,37970,,,,,,48.0,,,,,,,,,,,,,,,,,,,,,,,,,,,,,,,,271.0,1.0,,
258,,iti,,html-keyboard-response,258,484039,0.0-1.0-50.0-0.0-5.0,0,0,37970,,,,,,,,,,,,,,,,,,,,,,,,,,,,,,,,,,,,,,272.0,1.0,,
259,,choice,,html-keyboard-response,259,484662,0.0-1.0-51.0-0.0-0.0,0,0,37970,,620.0,,,75.0,49.0,49.0,1000.0,1000.0,0.0,1.0,1.0,60-80,0.0,,bongo,makeup compact,60.0,80.0,bongo12,makeup compact10,40.0,60.0,26686609.thl.jpg,P95108_hero.jpg,/static/Category_learning/Stimuli/Experimental_stims/bongo/26686609.thl.jpg,/static/Category_learning/Stimuli/Experimental_stims/makeup compact/P95108_hero.jpg,0.0,makeup compact,bongo,80.0,60.0,makeup compact10,bongo12,60.0,40.0,0.0,272.62,0.62,,
260,,confirmation,,html-keyboard-response,260,485549,0.0-1.0-51.0-0.0-1.0-0.0,0,0,37970,,,,,,49.0,,,,,,,,,,,,,,,,,,,,,,,,,,,,,,,,273.5,0.88,,
261,,isi,,html-keyboard-response,261,485654,0.0-1.0-51.0-0.0-2.0,0,0,37970,,,,,,,,,,,,,,,,,,,,,,,,,,,,,,,,,,,,,,274.5,1.0,,
262,,feedback,,html-keyboard-response,262,486659,0.0-1.0-51.0-0.0-3.0-0.0,0,0,37970,,,,,,49.0,,,,,,,,,,,,,,,,,,,,,,,,,,,,,,,,275.5,1.0,,
263,,iti,,html-keyboard-response,263,486764,0.0-1.0-51.0-0.0-5.0,0,0,37970,,,,,,,,,,,,,,,,,,,,,,,,,,,,,,,,,,,,,,276.5,1.0,,
264,,choice,,html-keyboard-response,264,487239,0.0-1.0-52.0-0.0-0.0,0,0,37970,,472.0,,,75.0,50.0,50.0,1000.0,2000.0,0.0,1.0,0.0,20-80,,1.0,lipstick,sofa,80.0,20.0,lipstick13,sofa8,60.0,20.0,P184708_hero.jpg,allegro-leather-sofa-med2.jpg,/static/Category_learning/Stimuli/Experimental_stims/lipstick/P184708_hero.jpg,/static/Category_learning/Stimuli/Experimental_stims/sofa/allegro-leather-sofa-med2.jpg,0.0,sofa,lipstick,20.0,80.0,sofa8,lipstick13,20.0,60.0,0.0,276.972,0.472,,
265,,confirmation,,html-keyboard-response,265,488271,0.0-1.0-52.0-0.0-1.0-0.0,0,0,37970,,,,,,50.0,,,,,,,,,,,,,,,,,,,,,,,,,,,,,,,,278.0,1.028,,
266,,isi,,html-keyboard-response,266,488376,0.0-1.0-52.0-0.0-2.0,0,0,37970,,,,,,,,,,,,,,,,,,,,,,,,,,,,,,,,,,,,,,279.0,1.0,,
267,,feedback,,html-keyboard-response,267,489384,0.0-1.0-52.0-0.0-3.0-0.0,0,0,37970,,,,,,50.0,,,,,,,,,,,,,,,,,,,,,,,,,,,,,,,,280.0,1.0,,
268,,iti,,html-keyboard-response,268,489491,0.0-1.0-52.0-0.0-5.0,0,0,37970,,,,,,,,,,,,,,,,,,,,,,,,,,,,,,,,,,,,,,282.0,2.0,,
269,,choice,,html-keyboard-response,269,490575,0.0-1.0-53.0-0.0-0.0,0,0,37970,,1081.0,,,75.0,51.0,51.0,1000.0,2000.0,0.0,1.0,0.0,40-60,,0.0,stool,baby carriage,40.0,60.0,stool5,baby carriage11,40.0,80.0,ASTOOL23.jpg,Baby_Carriage-2.jpg,/static/Category_learning/Stimuli/Experimental_stims/stool/ASTOOL23.jpg,/static/Category_learning/Stimuli/Experimental_stims/baby carriage/Baby_Carriage-2.jpg,0.0,baby carriage,stool,60.0,40.0,baby carriage11,stool5,80.0,40.0,0.0,283.081,1.081,,
270,,confirmation,,html-keyboard-response,270,491001,0.0-1.0-53.0-0.0-1.0-0.0,0,0,37970,,,,,,51.0,,,,,,,,,,,,,,,,,,,,,,,,,,,,,,,,283.5,0.419,,
271,,isi,,html-keyboard-response,271,491108,0.0-1.0-53.0-0.0-2.0,0,0,37970,,,,,,,,,,,,,,,,,,,,,,,,,,,,,,,,,,,,,,284.5,1.0,,
272,,feedback,,html-keyboard-response,272,492114,0.0-1.0-53.0-0.0-3.0-0.0,0,0,37970,,,,,,51.0,,,,,,,,,,,,,,,,,,,,,,,,,,,,,,,,285.5,1.0,,
273,,iti,,html-keyboard-response,273,492222,0.0-1.0-53.0-0.0-5.0,0,0,37970,,,,,,,,,,,,,,,,,,,,,,,,,,,,,,,,,,,,,,287.5,2.0,,
274,,choice,,html-keyboard-response,274,492572,0.0-1.0-54.0-0.0-0.0,0,0,37970,,346.0,,,75.0,52.0,52.0,1000.0,2000.0,0.0,1.0,0.0,40-40,,,telescope,vase,40.0,40.0,telescope10,vase4,20.0,60.0,digimarc.ms02.jpg,Avase111.jpg,/static/Category_learning/Stimuli/Experimental_stims/telescope/digimarc.ms02.jpg,/static/Category_learning/Stimuli/Experimental_stims/vase/Avase111.jpg,0.0,vase,telescope,40.0,40.0,vase4,telescope10,60.0,20.0,0.0,287.846,0.346,,
275,,confirmation,,html-keyboard-response,275,493730,0.0-1.0-54.0-0.0-1.0-0.0,0,0,37970,,,,,,52.0,,,,,,,,,,,,,,,,,,,,,,,,,,,,,,,,289.0,1.154,,
276,,isi,,html-keyboard-response,276,493838,0.0-1.0-54.0-0.0-2.0,0,0,37970,,,,,,,,,,,,,,,,,,,,,,,,,,,,,,,,,,,,,,290.0,1.0,,
277,,feedback,,html-keyboard-response,277,494846,0.0-1.0-54.0-0.0-3.0-0.0,0,0,37970,,,,,,52.0,,,,,,,,,,,,,,,,,,,,,,,,,,,,,,,,291.0,1.0,,
278,,iti,,html-keyboard-response,278,494952,0.0-1.0-54.0-0.0-5.0,0,0,37970,,,,,,,,,,,,,,,,,,,,,,,,,,,,,,,,,,,,,,293.0,2.0,,
279,,choice,,html-keyboard-response,279,495417,0.0-1.0-55.0-0.0-0.0,0,0,37970,,462.0,,,75.0,53.0,53.0,1000.0,1500.0,0.0,1.0,1.0,60-60,1.0,,baby carriage,baby carriage,60.0,60.0,baby carriage5,baby carriage11,80.0,80.0,Baby_Stroller.jpg,Baby_Carriage-2.jpg,/static/Category_learning/Stimuli/Experimental_stims/baby carriage/Baby_Stroller.jpg,/static/Category_learning/Stimuli/Experimental_stims/baby carriage/Baby_Carriage-2.jpg,0.0,baby carriage,baby carriage,60.0,60.0,baby carriage11,baby carriage5,80.0,80.0,0.0,293.462,0.462,,
280,,confirmation,,html-keyboard-response,280,496462,0.0-1.0-55.0-0.0-1.0-0.0,0,0,37970,,,,,,53.0,,,,,,,,,,,,,,,,,,,,,,,,,,,,,,,,294.5,1.038,,
281,,isi,,html-keyboard-response,281,496568,0.0-1.0-55.0-0.0-2.0,0,0,37970,,,,,,,,,,,,,,,,,,,,,,,,,,,,,,,,,,,,,,295.5,1.0,,
282,,feedback,,html-keyboard-response,282,497575,0.0-1.0-55.0-0.0-3.0-0.0,0,0,37970,,,,,,53.0,,,,,,,,,,,,,,,,,,,,,,,,,,,,,,,,296.5,1.0,,
283,,iti,,html-keyboard-response,283,497682,0.0-1.0-55.0-0.0-5.0,0,0,37970,,,,,,,,,,,,,,,,,,,,,,,,,,,,,,,,,,,,,,298.0,1.5,,
284,,choice,,html-keyboard-response,284,497869,0.0-1.0-56.0-0.0-0.0,0,0,37970,,184.0,,,75.0,54.0,54.0,2000.0,1500.0,0.0,1.0,0.0,20-80,,1.0,hat,nail polish,80.0,20.0,hat3,nail polish14,100.0,40.0,Astrawhat49.jpg,38031405.JPG,/static/Category_learning/Stimuli/Experimental_stims/hat/Astrawhat49.jpg,/static/Category_learning/Stimuli/Experimental_stims/nail polish/38031405.JPG,0.0,nail polish,hat,20.0,80.0,nail polish14,hat3,40.0,100.0,0.0,298.184,0.184,,
285,,confirmation,,html-keyboard-response,285,499192,0.0-1.0-56.0-0.0-1.0-0.0,0,0,37970,,,,,,54.0,,,,,,,,,,,,,,,,,,,,,,,,,,,,,,,,299.5,1.316,,
286,,isi,,html-keyboard-response,286,499299,0.0-1.0-56.0-0.0-2.0,0,0,37970,,,,,,,,,,,,,,,,,,,,,,,,,,,,,,,,,,,,,,301.5,2.0,,
287,,feedback,,html-keyboard-response,287,500305,0.0-1.0-56.0-0.0-3.0-0.0,0,0,37970,,,,,,54.0,,,,,,,,,,,,,,,,,,,,,,,,,,,,,,,,302.5,1.0,,
288,,iti,,html-keyboard-response,288,500409,0.0-1.0-56.0-0.0-5.0,0,0,37970,,,,,,,,,,,,,,,,,,,,,,,,,,,,,,,,,,,,,,304.0,1.5,,
289,,choice,,html-keyboard-response,289,500775,0.0-1.0-57.0-0.0-0.0,0,0,37970,,362.0,,,75.0,55.0,55.0,3000.0,1000.0,0.0,1.0,0.0,20-60,,0.0,necklace,bench,20.0,60.0,necklace6,bench4,0.0,40.0,Agoldnecklace.jpg,30892819.thl.jpg,/static/Category_learning/Stimuli/Experimental_stims/necklace/Agoldnecklace.jpg,/static/Category_learning/Stimuli/Experimental_stims/bench/30892819.thl.jpg,0.0,bench,necklace,60.0,20.0,bench4,necklace6,40.0,0.0,0.0,304.362,0.362,,
290,,confirmation,,html-keyboard-response,290,501923,0.0-1.0-57.0-0.0-1.0-0.0,0,0,37970,,,,,,55.0,,,,,,,,,,,,,,,,,,,,,,,,,,,,,,,,305.5,1.138,,
291,,isi,,html-keyboard-response,291,502030,0.0-1.0-57.0-0.0-2.0,0,0,37970,,,,,,,,,,,,,,,,,,,,,,,,,,,,,,,,,,,,,,308.5,3.0,,
292,,feedback,,html-keyboard-response,292,503039,0.0-1.0-57.0-0.0-3.0-0.0,0,0,37970,,,,,,55.0,,,,,,,,,,,,,,,,,,,,,,,,,,,,,,,,309.5,1.0,,
293,,iti,,html-keyboard-response,293,503147,0.0-1.0-57.0-0.0-5.0,0,0,37970,,,,,,,,,,,,,,,,,,,,,,,,,,,,,,,,,,,,,,310.5,1.0,,
294,,choice,,html-keyboard-response,294,503505,0.0-1.0-58.0-0.0-0.0,0,0,37970,,353.0,,,75.0,56.0,56.0,1000.0,1500.0,0.0,1.0,0.0,20-80,,1.0,key chain,sofa,80.0,20.0,key chain1,sofa13,80.0,40.0,jm05s16.jpg,ACOUCH25.jpg,/static/Category_learning/Stimuli/Experimental_stims/key chain/jm05s16.jpg,/static/Category_learning/Stimuli/Experimental_stims/sofa/ACOUCH25.jpg,0.0,sofa,key chain,20.0,80.0,sofa13,key chain1,40.0,80.0,0.0,310.853,0.353,,
295,,confirmation,,html-keyboard-response,295,504659,0.0-1.0-58.0-0.0-1.0-0.0,0,0,37970,,,,,,56.0,,,,,,,,,,,,,,,,,,,,,,,,,,,,,,,,312.0,1.147,,
296,,isi,,html-keyboard-response,296,504766,0.0-1.0-58.0-0.0-2.0,0,0,37970,,,,,,,,,,,,,,,,,,,,,,,,,,,,,,,,,,,,,,313.0,1.0,,
297,,feedback,,html-keyboard-response,297,505774,0.0-1.0-58.0-0.0-3.0-0.0,0,0,37970,,,,,,56.0,,,,,,,,,,,,,,,,,,,,,,,,,,,,,,,,314.0,1.0,,
298,,iti,,html-keyboard-response,298,505881,0.0-1.0-58.0-0.0-5.0,0,0,37970,,,,,,,,,,,,,,,,,,,,,,,,,,,,,,,,,,,,,,315.5,1.5,,
299,,choice,,html-keyboard-response,299,506706,0.0-1.0-59.0-0.0-0.0,0,0,37970,,821.0,,,75.0,57.0,57.0,1500.0,1000.0,0.0,1.0,1.0,60-60,1.0,,bench,bench,60.0,60.0,bench8,bench4,80.0,40.0,APARKBE14.jpg,30892819.thl.jpg,/static/Category_learning/Stimuli/Experimental_stims/bench/APARKBE14.jpg,/static/Category_learning/Stimuli/Experimental_stims/bench/30892819.thl.jpg,0.0,bench,bench,60.0,60.0,bench4,bench8,40.0,80.0,0.0,316.321,0.821,,
300,,confirmation,,html-keyboard-response,300,507389,0.0-1.0-59.0-0.0-1.0-0.0,0,0,37970,,,,,,57.0,,,,,,,,,,,,,,,,,,,,,,,,,,,,,,,,317.0,0.679,,
301,,isi,,html-keyboard-response,301,507496,0.0-1.0-59.0-0.0-2.0,0,0,37970,,,,,,,,,,,,,,,,,,,,,,,,,,,,,,,,,,,,,,318.5,1.5,,
302,,feedback,,html-keyboard-response,302,508503,0.0-1.0-59.0-0.0-3.0-0.0,0,0,37970,,,,,,57.0,,,,,,,,,,,,,,,,,,,,,,,,,,,,,,,,319.5,1.0,,
303,,iti,,html-keyboard-response,303,508605,0.0-1.0-59.0-0.0-5.0,0,0,37970,,,,,,,,,,,,,,,,,,,,,,,,,,,,,,,,,,,,,,320.5,1.0,,
304,,choice,,html-keyboard-response,304,509296,0.0-1.0-60.0-0.0-0.0,0,0,37970,,688.0,,,75.0,58.0,58.0,3000.0,1000.0,0.0,1.0,0.0,40-80,,0.0,tent,hat,40.0,80.0,tent14,hat14,20.0,60.0,inflatable-tent.jpg,Ahat136.jpg,/static/Category_learning/Stimuli/Experimental_stims/tent/inflatable-tent.jpg,/static/Category_learning/Stimuli/Experimental_stims/hat/Ahat136.jpg,0.0,hat,tent,80.0,40.0,hat14,tent14,60.0,20.0,0.0,321.188,0.688,,
305,,confirmation,,html-keyboard-response,305,510116,0.0-1.0-60.0-0.0-1.0-0.0,0,0,37970,,,,,,58.0,,,,,,,,,,,,,,,,,,,,,,,,,,,,,,,,322.0,0.812,,
306,,isi,,html-keyboard-response,306,510222,0.0-1.0-60.0-0.0-2.0,0,0,37970,,,,,,,,,,,,,,,,,,,,,,,,,,,,,,,,,,,,,,325.0,3.0,,
307,,feedback,,html-keyboard-response,307,511231,0.0-1.0-60.0-0.0-3.0-0.0,0,0,37970,,,,,,58.0,,,,,,,,,,,,,,,,,,,,,,,,,,,,,,,,326.0,1.0,,
308,,iti,,html-keyboard-response,308,511336,0.0-1.0-60.0-0.0-5.0,0,0,37970,,,,,,,,,,,,,,,,,,,,,,,,,,,,,,,,,,,,,,327.0,1.0,,
309,,choice,,html-keyboard-response,309,511407,0.0-1.0-61.0-0.0-0.0,0,0,37970,,68.0,,,75.0,59.0,59.0,1500.0,1500.0,0.0,1.0,0.0,20-80,,1.0,frame,sofa,80.0,20.0,frame5,sofa11,60.0,0.0,AFRAME136.jpg,ALOVSEA19.jpg,/static/Category_learning/Stimuli/Experimental_stims/frame/AFRAME136.jpg,/static/Category_learning/Stimuli/Experimental_stims/sofa/ALOVSEA19.jpg,0.0,sofa,frame,20.0,80.0,sofa11,frame5,0.0,60.0,0.0,327.068,0.068,,
310,,confirmation,,html-keyboard-response,310,512846,0.0-1.0-61.0-0.0-1.0-0.0,0,0,37970,,,,,,59.0,,,,,,,,,,,,,,,,,,,,,,,,,,,,,,,,328.5,1.432,,
311,,isi,,html-keyboard-response,311,512952,0.0-1.0-61.0-0.0-2.0,0,0,37970,,,,,,,,,,,,,,,,,,,,,,,,,,,,,,,,,,,,,,330.0,1.5,,
312,,feedback,,html-keyboard-response,312,513959,0.0-1.0-61.0-0.0-3.0-0.0,0,0,37970,,,,,,59.0,,,,,,,,,,,,,,,,,,,,,,,,,,,,,,,,331.0,1.0,,
313,,iti,,html-keyboard-response,313,514066,0.0-1.0-61.0-0.0-5.0,0,0,37970,,,,,,,,,,,,,,,,,,,,,,,,,,,,,,,,,,,,,,332.5,1.5,,
314,,choice,,html-keyboard-response,314,514294,0.0-1.0-62.0-0.0-0.0,0,0,37970,,225.0,,,75.0,60.0,60.0,1000.0,2000.0,0.0,1.0,1.0,20-20,1.0,,sofa,sofa,20.0,20.0,sofa8,sofa11,20.0,0.0,allegro-leather-sofa-med2.jpg,ALOVSEA19.jpg,/static/Category_learning/Stimuli/Experimental_stims/sofa/allegro-leather-sofa-med2.jpg,/static/Category_learning/Stimuli/Experimental_stims/sofa/ALOVSEA19.jpg,0.0,sofa,sofa,20.0,20.0,sofa11,sofa8,0.0,20.0,0.0,332.725,0.225,,
315,,confirmation,,html-keyboard-response,315,515576,0.0-1.0-62.0-0.0-1.0-0.0,0,0,37970,,,,,,60.0,,,,,,,,,,,,,,,,,,,,,,,,,,,,,,,,334.0,1.275,,
316,,isi,,html-keyboard-response,316,515680,0.0-1.0-62.0-0.0-2.0,0,0,37970,,,,,,,,,,,,,,,,,,,,,,,,,,,,,,,,,,,,,,335.0,1.0,,
317,,feedback,,html-keyboard-response,317,516686,0.0-1.0-62.0-0.0-3.0-0.0,0,0,37970,,,,,,60.0,,,,,,,,,,,,,,,,,,,,,,,,,,,,,,,,336.0,1.0,,
318,,iti,,html-keyboard-response,318,516792,0.0-1.0-62.0-0.0-5.0,0,0,37970,,,,,,,,,,,,,,,,,,,,,,,,,,,,,,,,,,,,,,338.0,2.0,,
319,,choice,,html-keyboard-response,319,516822,0.0-1.0-63.0-0.0-0.0,0,0,37970,,26.0,,,75.0,61.0,61.0,3500.0,1500.0,0.0,1.0,0.0,20-40,,0.0,pen,vase,20.0,40.0,pen4,vase9,40.0,40.0,Montblanc_Greta_Garbo_BP copy.jpg,Avasewithang2.jpg,/static/Category_learning/Stimuli/Experimental_stims/pen/Montblanc_Greta_Garbo_BP copy.jpg,/static/Category_learning/Stimuli/Experimental_stims/vase/Avasewithang2.jpg,0.0,vase,pen,40.0,20.0,vase9,pen4,40.0,40.0,0.0,338.026,0.026,,
320,,confirmation,,html-keyboard-response,320,518301,0.0-1.0-63.0-0.0-1.0-0.0,0,0,37970,,,,,,61.0,,,,,,,,,,,,,,,,,,,,,,,,,,,,,,,,339.5,1.474,,
321,,isi,,html-keyboard-response,321,518410,0.0-1.0-63.0-0.0-2.0,0,0,37970,,,,,,,,,,,,,,,,,,,,,,,,,,,,,,,,,,,,,,343.0,3.5,,
322,,feedback,,html-keyboard-response,322,519418,0.0-1.0-63.0-0.0-3.0-0.0,0,0,37970,,,,,,61.0,,,,,,,,,,,,,,,,,,,,,,,,,,,,,,,,344.0,1.0,,
323,,iti,,html-keyboard-response,323,519524,0.0-1.0-63.0-0.0-5.0,0,0,37970,,,,,,,,,,,,,,,,,,,,,,,,,,,,,,,,,,,,,,345.5,1.5,,
324,,choice,,html-keyboard-response,324,519695,0.0-1.0-64.0-0.0-0.0,0,0,37970,,167.0,,,75.0,62.0,62.0,1000.0,2000.0,0.0,1.0,1.0,40-40,1.0,,vase,vase,40.0,40.0,vase4,vase9,60.0,40.0,Avase111.jpg,Avasewithang2.jpg,/static/Category_learning/Stimuli/Experimental_stims/vase/Avase111.jpg,/static/Category_learning/Stimuli/Experimental_stims/vase/Avasewithang2.jpg,0.0,vase,vase,40.0,40.0,vase9,vase4,40.0,60.0,0.0,345.667,0.167,,
325,,confirmation,,html-keyboard-response,325,521034,0.0-1.0-64.0-0.0-1.0-0.0,0,0,37970,,,,,,62.0,,,,,,,,,,,,,,,,,,,,,,,,,,,,,,,,347.0,1.333,,
326,,isi,,html-keyboard-response,326,521140,0.0-1.0-64.0-0.0-2.0,0,0,37970,,,,,,,,,,,,,,,,,,,,,,,,,,,,,,,,,,,,,,348.0,1.0,,
327,,feedback,,html-keyboard-response,327,522148,0.0-1.0-64.0-0.0-3.0-0.0,0,0,37970,,,,,,62.0,,,,,,,,,,,,,,,,,,,,,,,,,,,,,,,,349.0,1.0,,
328,,iti,,html-keyboard-response,328,522254,0.0-1.0-64.0-0.0-5.0,0,0,37970,,,,,,,,,,,,,,,,,,,,,,,,,,,,,,,,,,,,,,351.0,2.0,,
329,,block_over,,html-keyboard-response,329,529461,0.0-1.0-64.0-0.0-7.0-0.0,0,0,37970,,7201.0,,,68.0,62.0,,,,,,,,,,,,,,,,,,,,,,,,,,,,,,,,,,,
330,,start_run,,html-keyboard-response,330,555634,0.0-1.0-64.0-0.0-7.0-1.0,0,0,37970,,26170.0,,,84.0,,,,,,,,,,,,,,,,,,,,,,,,,,,,,,,,,,,,
331,,choice,,html-keyboard-response,331,557142,0.0-1.0-65.0-0.0-0.0,0,0,37970,,,,,,63.0,65.0,3000.0,2000.0,0.0,2.0,0.0,40-40,,,watch,tape,40.0,40.0,watch9,tape2,40.0,20.0,mens-diamond-watches-euro-48733-ab.jpg,Tape_Dispenser.jpg,/static/Category_learning/Stimuli/Experimental_stims/watch/mens-diamond-watches-euro-48733-ab.jpg,/static/Category_learning/Stimuli/Experimental_stims/tape/Tape_Dispenser.jpg,,,,,,,,,,1.0,1.5,1.5,,
332,,isi,,html-keyboard-response,332,557250,0.0-1.0-65.0-0.0-2.0,0,0,37970,,,,,,,,,,,,,,,,,,,,,,,,,,,,,,,,,,,,,,4.5,3.0,,
333,,no_response,,html-keyboard-response,333,558258,0.0-1.0-65.0-0.0-4.0-0.0,0,0,37970,,,,,,,,,,,,,,,,,,,,,,,,,,,,,,,,,,,,,,5.5,1.0,,
334,,iti,,html-keyboard-response,334,558380,0.0-1.0-65.0-0.0-5.0,0,0,37970,,,,,,,,,,,,,,,,,,,,,,,,,,,,,,,,,,,,,,7.5,2.0,,
335,,choice,,html-keyboard-response,335,558650,0.0-1.0-65.0-0.1-0.1,0,0,37970,,266.0,,,68.0,63.0,65.0,3000.0,2000.0,0.0,2.0,0.0,40-40,,,watch,tape,40.0,40.0,watch9,tape2,40.0,20.0,mens-diamond-watches-euro-48733-ab.jpg,Tape_Dispenser.jpg,/static/Category_learning/Stimuli/Experimental_stims/watch/mens-diamond-watches-euro-48733-ab.jpg,/static/Category_learning/Stimuli/Experimental_stims/tape/Tape_Dispenser.jpg,1.0,watch,tape,40.0,40.0,watch9,tape2,40.0,20.0,0.0,7.766,0.266,,
336,,confirmation,,html-keyboard-response,336,559889,0.0-1.0-65.0-0.1-1.1-0.1,0,0,37970,,,,,,63.0,,,,,,,,,,,,,,,,,,,,,,,,,,,,,,,,9.0,1.234,,
337,,isi,,html-keyboard-response,337,559993,0.0-1.0-65.0-0.1-2.1,0,0,37970,,,,,,,,,,,,,,,,,,,,,,,,,,,,,,,,,,,,,,10.5,1.5,,
338,,feedback,,html-keyboard-response,338,561000,0.0-1.0-65.0-0.1-3.1-0.1,0,0,37970,,,,,,63.0,,,,,,,,,,,,,,,,,,,,,,,,,,,,,,,,11.5,1.0,,
339,,iti,,html-keyboard-response,339,561108,0.0-1.0-65.0-0.1-5.1,0,0,37970,,,,,,,,,,,,,,,,,,,,,,,,,,,,,,,,,,,,,,12.5,1.0,,
340,,choice,,html-keyboard-response,340,561425,0.0-1.0-66.0-0.0-0.0,0,0,37970,,313.0,,,68.0,64.0,66.0,3000.0,1500.0,0.0,2.0,0.0,20-60,,0.0,pen,bowl,20.0,60.0,pen3,bowl13,0.0,80.0,pen08.jpg,Asoupbowl8.jpg,/static/Category_learning/Stimuli/Experimental_stims/pen/pen08.jpg,/static/Category_learning/Stimuli/Experimental_stims/bowl/Asoupbowl8.jpg,1.0,pen,bowl,20.0,60.0,pen3,bowl13,0.0,80.0,0.0,12.813,0.313,,
341,,confirmation,,html-keyboard-response,341,562618,0.0-1.0-66.0-0.0-1.0-0.0,0,0,37970,,,,,,64.0,,,,,,,,,,,,,,,,,,,,,,,,,,,,,,,,14.0,1.187,,
342,,isi,,html-keyboard-response,342,562725,0.0-1.0-66.0-0.0-2.0,0,0,37970,,,,,,,,,,,,,,,,,,,,,,,,,,,,,,,,,,,,,,17.0,3.0,,
343,,feedback,,html-keyboard-response,343,563733,0.0-1.0-66.0-0.0-3.0-0.0,0,0,37970,,,,,,64.0,,,,,,,,,,,,,,,,,,,,,,,,,,,,,,,,18.0,1.0,,
344,,iti,,html-keyboard-response,344,563841,0.0-1.0-66.0-0.0-5.0,0,0,37970,,,,,,,,,,,,,,,,,,,,,,,,,,,,,,,,,,,,,,19.5,1.5,,
345,,choice,,html-keyboard-response,345,564011,0.0-1.0-67.0-0.0-0.0,0,0,37970,,167.0,,,68.0,65.0,67.0,1000.0,3000.0,0.0,2.0,0.0,20-60,,0.0,nail polish,bongo,20.0,60.0,nail polish1,bongo8,20.0,80.0,200.jpg,26390661.thl.jpg,/static/Category_learning/Stimuli/Experimental_stims/nail polish/200.jpg,/static/Category_learning/Stimuli/Experimental_stims/bongo/26390661.thl.jpg,1.0,nail polish,bongo,20.0,60.0,nail polish1,bongo8,20.0,80.0,0.0,19.667,0.167,,
346,,confirmation,,html-keyboard-response,346,565350,0.0-1.0-67.0-0.0-1.0-0.0,0,0,37970,,,,,,65.0,,,,,,,,,,,,,,,,,,,,,,,,,,,,,,,,21.0,1.333,,
347,,isi,,html-keyboard-response,347,565456,0.0-1.0-67.0-0.0-2.0,0,0,37970,,,,,,,,,,,,,,,,,,,,,,,,,,,,,,,,,,,,,,22.0,1.0,,
348,,feedback,,html-keyboard-response,348,566460,0.0-1.0-67.0-0.0-3.0-0.0,0,0,37970,,,,,,65.0,,,,,,,,,,,,,,,,,,,,,,,,,,,,,,,,23.0,1.0,,
349,,iti,,html-keyboard-response,349,566563,0.0-1.0-67.0-0.0-5.0,0,0,37970,,,,,,,,,,,,,,,,,,,,,,,,,,,,,,,,,,,,,,26.0,3.0,,
350,,choice,,html-keyboard-response,350,566833,0.0-1.0-68.0-0.0-0.0,0,0,37970,,266.0,,,68.0,66.0,68.0,1000.0,2000.0,0.0,2.0,0.0,20-20,,,power strip,patio lounge chair,20.0,20.0,power strip14,patio lounge chair13,20.0,20.0,88b2c724-e781-44ae-85d5-27b7591f659d_400.jpg,grosfillex-bahia-resin-chaise-lounges.jpg,/static/Category_learning/Stimuli/Experimental_stims/power strip/88b2c724-e781-44ae-85d5-27b7591f659d_400.jpg,/static/Category_learning/Stimuli/Experimental_stims/patio lounge chair/grosfillex-bahia-resin-chaise-lounges.jpg,1.0,power strip,patio lounge chair,20.0,20.0,power strip14,patio lounge chair13,20.0,20.0,0.0,26.266,0.266,,
351,,confirmation,,html-keyboard-response,351,568075,0.0-1.0-68.0-0.0-1.0-0.0,0,0,37970,,,,,,66.0,,,,,,,,,,,,,,,,,,,,,,,,,,,,,,,,27.5,1.234,,
352,,isi,,html-keyboard-response,352,568181,0.0-1.0-68.0-0.0-2.0,0,0,37970,,,,,,,,,,,,,,,,,,,,,,,,,,,,,,,,,,,,,,28.5,1.0,,
353,,feedback,,html-keyboard-response,353,569189,0.0-1.0-68.0-0.0-3.0-0.0,0,0,37970,,,,,,66.0,,,,,,,,,,,,,,,,,,,,,,,,,,,,,,,,29.5,1.0,,
354,,iti,,html-keyboard-response,354,569296,0.0-1.0-68.0-0.0-5.0,0,0,37970,,,,,,,,,,,,,,,,,,,,,,,,,,,,,,,,,,,,,,31.5,2.0,,
355,,choice,,html-keyboard-response,355,569673,0.0-1.0-69.0-0.0-0.0,0,0,37970,,373.0,,,68.0,67.0,69.0,1500.0,1500.0,0.0,2.0,0.0,40-40,,,tent,train,40.0,40.0,tent2,train1,40.0,40.0,Atent16.jpg,Model_Train.jpg,/static/Category_learning/Stimuli/Experimental_stims/tent/Atent16.jpg,/static/Category_learning/Stimuli/Experimental_stims/train/Model_Train.jpg,1.0,tent,train,40.0,40.0,tent2,train1,40.0,40.0,0.0,31.873,0.373,,
356,,confirmation,,html-keyboard-response,356,570809,0.0-1.0-69.0-0.0-1.0-0.0,0,0,37970,,,,,,67.0,,,,,,,,,,,,,,,,,,,,,,,,,,,,,,,,33.0,1.127,,
357,,isi,,html-keyboard-response,357,570916,0.0-1.0-69.0-0.0-2.0,0,0,37970,,,,,,,,,,,,,,,,,,,,,,,,,,,,,,,,,,,,,,34.5,1.5,,
358,,feedback,,html-keyboard-response,358,571920,0.0-1.0-69.0-0.0-3.0-0.0,0,0,37970,,,,,,67.0,,,,,,,,,,,,,,,,,,,,,,,,,,,,,,,,35.5,1.0,,
359,,iti,,html-keyboard-response,359,572027,0.0-1.0-69.0-0.0-5.0,0,0,37970,,,,,,,,,,,,,,,,,,,,,,,,,,,,,,,,,,,,,,37.0,1.5,,
360,,choice,,html-keyboard-response,360,572186,0.0-1.0-70.0-0.0-0.0,0,0,37970,,155.0,,,68.0,68.0,70.0,1500.0,1500.0,0.0,2.0,0.0,40-80,,1.0,key chain,vase,80.0,40.0,key chain5,vase7,60.0,60.0,keychain-metal-logo.jpg,8246344.thl.jpg,/static/Category_learning/Stimuli/Experimental_stims/key chain/keychain-metal-logo.jpg,/static/Category_learning/Stimuli/Experimental_stims/vase/8246344.thl.jpg,1.0,key chain,vase,80.0,40.0,key chain5,vase7,60.0,60.0,0.0,37.155,0.155,,
361,,confirmation,,html-keyboard-response,361,573536,0.0-1.0-70.0-0.0-1.0-0.0,0,0,37970,,,,,,68.0,,,,,,,,,,,,,,,,,,,,,,,,,,,,,,,,38.5,1.345,,
362,,isi,,html-keyboard-response,362,573644,0.0-1.0-70.0-0.0-2.0,0,0,37970,,,,,,,,,,,,,,,,,,,,,,,,,,,,,,,,,,,,,,40.0,1.5,,
363,,feedback,,html-keyboard-response,363,574651,0.0-1.0-70.0-0.0-3.0-0.0,0,0,37970,,,,,,68.0,,,,,,,,,,,,,,,,,,,,,,,,,,,,,,,,41.0,1.0,,
364,,iti,,html-keyboard-response,364,574757,0.0-1.0-70.0-0.0-5.0,0,0,37970,,,,,,,,,,,,,,,,,,,,,,,,,,,,,,,,,,,,,,42.5,1.5,,
365,,choice,,html-keyboard-response,365,574811,0.0-1.0-71.0-0.0-0.0,0,0,37970,,50.0,,,68.0,69.0,71.0,1000.0,2000.0,0.0,2.0,0.0,20-40,,0.0,power strip,trumpet,20.0,40.0,power strip5,trumpet8,0.0,60.0,93e4a283-bcd6-4ad1-8add-339658cda0fc_400.jpg,trumpet33.jpg,/static/Category_learning/Stimuli/Experimental_stims/power strip/93e4a283-bcd6-4ad1-8add-339658cda0fc_400.jpg,/static/Category_learning/Stimuli/Experimental_stims/trumpet/trumpet33.jpg,1.0,power strip,trumpet,20.0,40.0,power strip5,trumpet8,0.0,60.0,0.0,42.55,0.05,,
366,,confirmation,,html-keyboard-response,366,576264,0.0-1.0-71.0-0.0-1.0-0.0,0,0,37970,,,,,,69.0,,,,,,,,,,,,,,,,,,,,,,,,,,,,,,,,44.0,1.45,,
367,,isi,,html-keyboard-response,367,576367,0.0-1.0-71.0-0.0-2.0,0,0,37970,,,,,,,,,,,,,,,,,,,,,,,,,,,,,,,,,,,,,,45.0,1.0,,
368,,feedback,,html-keyboard-response,368,577371,0.0-1.0-71.0-0.0-3.0-0.0,0,0,37970,,,,,,69.0,,,,,,,,,,,,,,,,,,,,,,,,,,,,,,,,46.0,1.0,,
369,,iti,,html-keyboard-response,369,577475,0.0-1.0-71.0-0.0-5.0,0,0,37970,,,,,,,,,,,,,,,,,,,,,,,,,,,,,,,,,,,,,,48.0,2.0,,
370,,choice,,html-keyboard-response,370,577817,0.0-1.0-72.0-0.0-0.0,0,0,37970,,338.0,,,68.0,70.0,72.0,3500.0,1000.0,0.0,2.0,0.0,40-80,,1.0,key chain,watch,80.0,40.0,key chain10,watch3,80.0,60.0,Smurfs_Keychains_Smurf_Row_Boat.jpg,B0000TIIVO.01._SCLZZZZZZZ_V1124920780_.jpg,/static/Category_learning/Stimuli/Experimental_stims/key chain/Smurfs_Keychains_Smurf_Row_Boat.jpg,/static/Category_learning/Stimuli/Experimental_stims/watch/B0000TIIVO.01._SCLZZZZZZZ_V1124920780_.jpg,1.0,key chain,watch,80.0,40.0,key chain10,watch3,80.0,60.0,0.0,48.338,0.338,,
371,,confirmation,,html-keyboard-response,371,578987,0.0-1.0-72.0-0.0-1.0-0.0,0,0,37970,,,,,,70.0,,,,,,,,,,,,,,,,,,,,,,,,,,,,,,,,49.5,1.162,,
372,,isi,,html-keyboard-response,372,579094,0.0-1.0-72.0-0.0-2.0,0,0,37970,,,,,,,,,,,,,,,,,,,,,,,,,,,,,,,,,,,,,,53.0,3.5,,
373,,feedback,,html-keyboard-response,373,580102,0.0-1.0-72.0-0.0-3.0-0.0,0,0,37970,,,,,,70.0,,,,,,,,,,,,,,,,,,,,,,,,,,,,,,,,54.0,1.0,,
374,,iti,,html-keyboard-response,374,580209,0.0-1.0-72.0-0.0-5.0,0,0,37970,,,,,,,,,,,,,,,,,,,,,,,,,,,,,,,,,,,,,,55.0,1.0,,
375,,choice,,html-keyboard-response,375,580527,0.0-1.0-73.0-0.0-0.0,0,0,37970,,315.0,,,68.0,71.0,73.0,2000.0,2000.0,0.0,2.0,0.0,20-60,,0.0,small table,baby carriage,20.0,60.0,small table3,baby carriage14,20.0,80.0,Atable122.jpg,peg_perego_uno_verde.jpg,/static/Category_learning/Stimuli/Experimental_stims/small table/Atable122.jpg,/static/Category_learning/Stimuli/Experimental_stims/baby carriage/peg_perego_uno_verde.jpg,1.0,small table,baby carriage,20.0,60.0,small table3,baby carriage14,20.0,80.0,0.0,55.315,0.315,,
376,,confirmation,,html-keyboard-response,376,581718,0.0-1.0-73.0-0.0-1.0-0.0,0,0,37970,,,,,,71.0,,,,,,,,,,,,,,,,,,,,,,,,,,,,,,,,56.5,1.185,,
377,,isi,,html-keyboard-response,377,581823,0.0-1.0-73.0-0.0-2.0,0,0,37970,,,,,,,,,,,,,,,,,,,,,,,,,,,,,,,,,,,,,,58.5,2.0,,
378,,feedback,,html-keyboard-response,378,582829,0.0-1.0-73.0-0.0-3.0-0.0,0,0,37970,,,,,,71.0,,,,,,,,,,,,,,,,,,,,,,,,,,,,,,,,59.5,1.0,,
379,,iti,,html-keyboard-response,379,582935,0.0-1.0-73.0-0.0-5.0,0,0,37970,,,,,,,,,,,,,,,,,,,,,,,,,,,,,,,,,,,,,,61.5,2.0,,
380,,choice,,html-keyboard-response,380,582951,0.0-1.0-74.0-0.0-0.0,0,0,37970,,13.0,,,75.0,72.0,74.0,2000.0,3500.0,0.0,2.0,0.0,40-60,,1.0,baby carriage,train,60.0,40.0,baby carriage13,train15,40.0,40.0,300px-Barnevogn2.jpg,master-TD006.jpg,/static/Category_learning/Stimuli/Experimental_stims/baby carriage/300px-Barnevogn2.jpg,/static/Category_learning/Stimuli/Experimental_stims/train/master-TD006.jpg,0.0,train,baby carriage,40.0,60.0,train15,baby carriage13,40.0,40.0,0.0,61.513,0.013,,
381,,confirmation,,html-keyboard-response,381,584445,0.0-1.0-74.0-0.0-1.0-0.0,0,0,37970,,,,,,72.0,,,,,,,,,,,,,,,,,,,,,,,,,,,,,,,,63.0,1.487,,
382,,isi,,html-keyboard-response,382,584550,0.0-1.0-74.0-0.0-2.0,0,0,37970,,,,,,,,,,,,,,,,,,,,,,,,,,,,,,,,,,,,,,65.0,2.0,,
383,,feedback,,html-keyboard-response,383,585559,0.0-1.0-74.0-0.0-3.0-0.0,0,0,37970,,,,,,72.0,,,,,,,,,,,,,,,,,,,,,,,,,,,,,,,,66.0,1.0,,
384,,iti,,html-keyboard-response,384,585667,0.0-1.0-74.0-0.0-5.0,0,0,37970,,,,,,,,,,,,,,,,,,,,,,,,,,,,,,,,,,,,,,69.5,3.5,,
385,,choice,,html-keyboard-response,385,586291,0.0-1.0-75.0-0.0-0.0,0,0,37970,,620.0,,,75.0,73.0,75.0,1000.0,1000.0,0.0,2.0,0.0,40-80,,0.0,trumpet,hat,40.0,80.0,trumpet2,hat12,40.0,60.0,Matt-Stevens-Pocket-Trumpet.jpg,Aformalhat5.jpg,/static/Category_learning/Stimuli/Experimental_stims/trumpet/Matt-Stevens-Pocket-Trumpet.jpg,/static/Category_learning/Stimuli/Experimental_stims/hat/Aformalhat5.jpg,0.0,hat,trumpet,80.0,40.0,hat12,trumpet2,60.0,40.0,0.0,70.12,0.62,,
386,,confirmation,,html-keyboard-response,386,587180,0.0-1.0-75.0-0.0-1.0-0.0,0,0,37970,,,,,,73.0,,,,,,,,,,,,,,,,,,,,,,,,,,,,,,,,71.0,0.88,,
387,,isi,,html-keyboard-response,387,587288,0.0-1.0-75.0-0.0-2.0,0,0,37970,,,,,,,,,,,,,,,,,,,,,,,,,,,,,,,,,,,,,,72.0,1.0,,
388,,feedback,,html-keyboard-response,388,588294,0.0-1.0-75.0-0.0-3.0-0.0,0,0,37970,,,,,,73.0,,,,,,,,,,,,,,,,,,,,,,,,,,,,,,,,73.0,1.0,,
389,,iti,,html-keyboard-response,389,588398,0.0-1.0-75.0-0.0-5.0,0,0,37970,,,,,,,,,,,,,,,,,,,,,,,,,,,,,,,,,,,,,,74.0,1.0,,
390,,choice,,html-keyboard-response,390,588715,0.0-1.0-76.0-0.0-0.0,0,0,37970,,312.0,,,75.0,74.0,76.0,1000.0,1000.0,0.0,2.0,0.0,20-40,,1.0,trumpet,poker card,40.0,20.0,trumpet1,poker card2,60.0,40.0,JUPITER+TROMPETTE+606MRL.JPG,22864716.thl.jpg,/static/Category_learning/Stimuli/Experimental_stims/trumpet/JUPITER+TROMPETTE+606MRL.JPG,/static/Category_learning/Stimuli/Experimental_stims/poker card/22864716.thl.jpg,0.0,poker card,trumpet,20.0,40.0,poker card2,trumpet1,40.0,60.0,0.0,74.312,0.312,,
391,,confirmation,,html-keyboard-response,391,589910,0.0-1.0-76.0-0.0-1.0-0.0,0,0,37970,,,,,,74.0,,,,,,,,,,,,,,,,,,,,,,,,,,,,,,,,75.5,1.188,,
392,,isi,,html-keyboard-response,392,590018,0.0-1.0-76.0-0.0-2.0,0,0,37970,,,,,,,,,,,,,,,,,,,,,,,,,,,,,,,,,,,,,,76.5,1.0,,
393,,feedback,,html-keyboard-response,393,591023,0.0-1.0-76.0-0.0-3.0-0.0,0,0,37970,,,,,,74.0,,,,,,,,,,,,,,,,,,,,,,,,,,,,,,,,77.5,1.0,,
394,,iti,,html-keyboard-response,394,591128,0.0-1.0-76.0-0.0-5.0,0,0,37970,,,,,,,,,,,,,,,,,,,,,,,,,,,,,,,,,,,,,,78.5,1.0,,
395,,choice,,html-keyboard-response,395,591745,0.0-1.0-77.0-0.0-0.0,0,0,37970,,613.0,,,75.0,75.0,77.0,1500.0,1000.0,0.0,2.0,0.0,20-80,,1.0,microscope,necklace,80.0,20.0,microscope5,necklace4,100.0,20.0,emMicroscope.jpg,emerald_diamond_necklace.jpg,/static/Category_learning/Stimuli/Experimental_stims/microscope/emMicroscope.jpg,/static/Category_learning/Stimuli/Experimental_stims/necklace/emerald_diamond_necklace.jpg,0.0,necklace,microscope,20.0,80.0,necklace4,microscope5,20.0,100.0,0.0,79.113,0.613,,
396,,confirmation,,html-keyboard-response,396,592641,0.0-1.0-77.0-0.0-1.0-0.0,0,0,37970,,,,,,75.0,,,,,,,,,,,,,,,,,,,,,,,,,,,,,,,,80.0,0.887,,
397,,isi,,html-keyboard-response,397,592747,0.0-1.0-77.0-0.0-2.0,0,0,37970,,,,,,,,,,,,,,,,,,,,,,,,,,,,,,,,,,,,,,81.5,1.5,,
398,,feedback,,html-keyboard-response,398,593755,0.0-1.0-77.0-0.0-3.0-0.0,0,0,37970,,,,,,75.0,,,,,,,,,,,,,,,,,,,,,,,,,,,,,,,,82.5,1.0,,
399,,iti,,html-keyboard-response,399,593862,0.0-1.0-77.0-0.0-5.0,0,0,37970,,,,,,,,,,,,,,,,,,,,,,,,,,,,,,,,,,,,,,83.5,1.0,,
400,,choice,,html-keyboard-response,400,594050,0.0-1.0-78.0-0.0-0.0,0,0,37970,,183.0,,,75.0,76.0,78.0,1500.0,2000.0,0.0,2.0,1.0,20-20,1.0,,nail polish,nail polish,20.0,20.0,nail polish3,nail polish1,40.0,20.0,327636.jpg,200.jpg,/static/Category_learning/Stimuli/Experimental_stims/nail polish/327636.jpg,/static/Category_learning/Stimuli/Experimental_stims/nail polish/200.jpg,0.0,nail polish,nail polish,20.0,20.0,nail polish1,nail polish3,20.0,40.0,0.0,83.683,0.183,,
401,,confirmation,,html-keyboard-response,401,595372,0.0-1.0-78.0-0.0-1.0-0.0,0,0,37970,,,,,,76.0,,,,,,,,,,,,,,,,,,,,,,,,,,,,,,,,85.0,1.317,,
402,,isi,,html-keyboard-response,402,595474,0.0-1.0-78.0-0.0-2.0,0,0,37970,,,,,,,,,,,,,,,,,,,,,,,,,,,,,,,,,,,,,,86.5,1.5,,
403,,feedback,,html-keyboard-response,403,596481,0.0-1.0-78.0-0.0-3.0-0.0,0,0,37970,,,,,,76.0,,,,,,,,,,,,,,,,,,,,,,,,,,,,,,,,87.5,1.0,,
404,,iti,,html-keyboard-response,404,596590,0.0-1.0-78.0-0.0-5.0,0,0,37970,,,,,,,,,,,,,,,,,,,,,,,,,,,,,,,,,,,,,,89.5,2.0,,
405,,choice,,html-keyboard-response,405,596740,0.0-1.0-79.0-0.0-0.0,0,0,37970,,146.0,,,75.0,77.0,79.0,1500.0,3500.0,0.0,2.0,1.0,20-20,1.0,,power strip,power strip,20.0,20.0,power strip8,power strip5,40.0,0.0,3118YGHQWXL._AA262_.jpg,93e4a283-bcd6-4ad1-8add-339658cda0fc_400.jpg,/static/Category_learning/Stimuli/Experimental_stims/power strip/3118YGHQWXL._AA262_.jpg,/static/Category_learning/Stimuli/Experimental_stims/power strip/93e4a283-bcd6-4ad1-8add-339658cda0fc_400.jpg,0.0,power strip,power strip,20.0,20.0,power strip5,power strip8,0.0,40.0,0.0,89.646,0.146,,
406,,confirmation,,html-keyboard-response,406,598102,0.0-1.0-79.0-0.0-1.0-0.0,0,0,37970,,,,,,77.0,,,,,,,,,,,,,,,,,,,,,,,,,,,,,,,,91.0,1.354,,
407,,isi,,html-keyboard-response,407,598209,0.0-1.0-79.0-0.0-2.0,0,0,37970,,,,,,,,,,,,,,,,,,,,,,,,,,,,,,,,,,,,,,92.5,1.5,,
408,,feedback,,html-keyboard-response,408,599217,0.0-1.0-79.0-0.0-3.0-0.0,0,0,37970,,,,,,77.0,,,,,,,,,,,,,,,,,,,,,,,,,,,,,,,,93.5,1.0,,
409,,iti,,html-keyboard-response,409,599323,0.0-1.0-79.0-0.0-5.0,0,0,37970,,,,,,,,,,,,,,,,,,,,,,,,,,,,,,,,,,,,,,97.0,3.5,,
410,,choice,,html-keyboard-response,410,599498,0.0-1.0-80.0-0.0-0.0,0,0,37970,,171.0,,,75.0,78.0,80.0,1000.0,2000.0,0.0,2.0,0.0,20-80,,0.0,pen,key chain,20.0,80.0,pen6,key chain13,40.0,100.0,executive_pen2.jpg,Fancy_Liquid_Column_Shape_Key_Ring_with_Floater.jpg,/static/Category_learning/Stimuli/Experimental_stims/pen/executive_pen2.jpg,/static/Category_learning/Stimuli/Experimental_stims/key chain/Fancy_Liquid_Column_Shape_Key_Ring_with_Floater.jpg,0.0,key chain,pen,80.0,20.0,key chain13,pen6,100.0,40.0,0.0,97.171,0.171,,
411,,confirmation,,html-keyboard-response,411,600834,0.0-1.0-80.0-0.0-1.0-0.0,0,0,37970,,,,,,78.0,,,,,,,,,,,,,,,,,,,,,,,,,,,,,,,,98.5,1.329,,
412,,isi,,html-keyboard-response,412,600942,0.0-1.0-80.0-0.0-2.0,0,0,37970,,,,,,,,,,,,,,,,,,,,,,,,,,,,,,,,,,,,,,99.5,1.0,,
413,,feedback,,html-keyboard-response,413,601950,0.0-1.0-80.0-0.0-3.0-0.0,0,0,37970,,,,,,78.0,,,,,,,,,,,,,,,,,,,,,,,,,,,,,,,,100.5,1.0,,
414,,iti,,html-keyboard-response,414,602054,0.0-1.0-80.0-0.0-5.0,0,0,37970,,,,,,,,,,,,,,,,,,,,,,,,,,,,,,,,,,,,,,102.5,2.0,,
415,,choice,,html-keyboard-response,415,602344,0.0-1.0-81.0-0.0-0.0,0,0,37970,,286.0,,,75.0,79.0,81.0,3500.0,2000.0,0.0,2.0,0.0,60-60,,,bowl,bench,60.0,60.0,bowl7,bench2,80.0,60.0,Abowl54.jpg,26369969.thl.jpg,/static/Category_learning/Stimuli/Experimental_stims/bowl/Abowl54.jpg,/static/Category_learning/Stimuli/Experimental_stims/bench/26369969.thl.jpg,0.0,bench,bowl,60.0,60.0,bench2,bowl7,60.0,80.0,0.0,102.786,0.286,,
416,,confirmation,,html-keyboard-response,416,603565,0.0-1.0-81.0-0.0-1.0-0.0,0,0,37970,,,,,,79.0,,,,,,,,,,,,,,,,,,,,,,,,,,,,,,,,104.0,1.214,,
417,,isi,,html-keyboard-response,417,603672,0.0-1.0-81.0-0.0-2.0,0,0,37970,,,,,,,,,,,,,,,,,,,,,,,,,,,,,,,,,,,,,,107.5,3.5,,
418,,feedback,,html-keyboard-response,418,604678,0.0-1.0-81.0-0.0-3.0-0.0,0,0,37970,,,,,,79.0,,,,,,,,,,,,,,,,,,,,,,,,,,,,,,,,108.5,1.0,,
419,,iti,,html-keyboard-response,419,604785,0.0-1.0-81.0-0.0-5.0,0,0,37970,,,,,,,,,,,,,,,,,,,,,,,,,,,,,,,,,,,,,,110.5,2.0,,
420,,choice,,html-keyboard-response,420,605249,0.0-1.0-82.0-0.0-0.0,0,0,37970,,460.0,,,75.0,80.0,82.0,1000.0,1500.0,0.0,2.0,0.0,60-80,,1.0,frame,bench,80.0,60.0,frame14,bench1,80.0,40.0,AFRAME129.jpg,26419975.thl.jpg,/static/Category_learning/Stimuli/Experimental_stims/frame/AFRAME129.jpg,/static/Category_learning/Stimuli/Experimental_stims/bench/26419975.thl.jpg,0.0,bench,frame,60.0,80.0,bench1,frame14,40.0,80.0,0.0,110.96,0.46,,
421,,confirmation,,html-keyboard-response,421,606296,0.0-1.0-82.0-0.0-1.0-0.0,0,0,37970,,,,,,80.0,,,,,,,,,,,,,,,,,,,,,,,,,,,,,,,,112.0,1.04,,
422,,isi,,html-keyboard-response,422,606400,0.0-1.0-82.0-0.0-2.0,0,0,37970,,,,,,,,,,,,,,,,,,,,,,,,,,,,,,,,,,,,,,113.0,1.0,,
423,,feedback,,html-keyboard-response,423,607404,0.0-1.0-82.0-0.0-3.0-0.0,0,0,37970,,,,,,80.0,,,,,,,,,,,,,,,,,,,,,,,,,,,,,,,,114.0,1.0,,
424,,iti,,html-keyboard-response,424,607510,0.0-1.0-82.0-0.0-5.0,0,0,37970,,,,,,,,,,,,,,,,,,,,,,,,,,,,,,,,,,,,,,115.5,1.5,,
425,,choice,,html-keyboard-response,425,607907,0.0-1.0-83.0-0.0-0.0,0,0,37970,,393.0,,,75.0,81.0,83.0,1500.0,1000.0,0.0,2.0,0.0,20-80,,1.0,key chain,poker card,80.0,20.0,key chain6,poker card12,80.0,20.0,highboy_keychain_ItemCA75384.jpg,22865676.thl.jpg,/static/Category_learning/Stimuli/Experimental_stims/key chain/highboy_keychain_ItemCA75384.jpg,/static/Category_learning/Stimuli/Experimental_stims/poker card/22865676.thl.jpg,0.0,poker card,key chain,20.0,80.0,poker card12,key chain6,20.0,80.0,0.0,115.893,0.393,,
426,,confirmation,,html-keyboard-response,426,609020,0.0-1.0-83.0-0.0-1.0-0.0,0,0,37970,,,,,,81.0,,,,,,,,,,,,,,,,,,,,,,,,,,,,,,,,117.0,1.107,,
427,,isi,,html-keyboard-response,427,609124,0.0-1.0-83.0-0.0-2.0,0,0,37970,,,,,,,,,,,,,,,,,,,,,,,,,,,,,,,,,,,,,,118.5,1.5,,
428,,feedback,,html-keyboard-response,428,610132,0.0-1.0-83.0-0.0-3.0-0.0,0,0,37970,,,,,,81.0,,,,,,,,,,,,,,,,,,,,,,,,,,,,,,,,119.5,1.0,,
429,,iti,,html-keyboard-response,429,610239,0.0-1.0-83.0-0.0-5.0,0,0,37970,,,,,,,,,,,,,,,,,,,,,,,,,,,,,,,,,,,,,,120.5,1.0,,
430,,choice,,html-keyboard-response,430,610273,0.0-1.0-84.0-0.0-0.0,0,0,37970,,30.0,,,75.0,82.0,84.0,2000.0,1500.0,0.0,2.0,0.0,20-60,,0.0,poker card,bowl,20.0,60.0,poker card6,bowl1,40.0,40.0,22864212.thl.jpg,ABOWLS6.jpg,/static/Category_learning/Stimuli/Experimental_stims/poker card/22864212.thl.jpg,/static/Category_learning/Stimuli/Experimental_stims/bowl/ABOWLS6.jpg,0.0,bowl,poker card,60.0,20.0,bowl1,poker card6,40.0,40.0,0.0,120.53,0.03,,
431,,confirmation,,html-keyboard-response,431,611750,0.0-1.0-84.0-0.0-1.0-0.0,0,0,37970,,,,,,82.0,,,,,,,,,,,,,,,,,,,,,,,,,,,,,,,,122.0,1.47,,
432,,isi,,html-keyboard-response,432,611856,0.0-1.0-84.0-0.0-2.0,0,0,37970,,,,,,,,,,,,,,,,,,,,,,,,,,,,,,,,,,,,,,124.0,2.0,,
433,,feedback,,html-keyboard-response,433,612863,0.0-1.0-84.0-0.0-3.0-0.0,0,0,37970,,,,,,82.0,,,,,,,,,,,,,,,,,,,,,,,,,,,,,,,,125.0,1.0,,
434,,iti,,html-keyboard-response,434,612968,0.0-1.0-84.0-0.0-5.0,0,0,37970,,,,,,,,,,,,,,,,,,,,,,,,,,,,,,,,,,,,,,126.5,1.5,,
435,,choice,,html-keyboard-response,435,613226,0.0-1.0-85.0-0.0-0.0,0,0,37970,,254.0,,,75.0,83.0,85.0,1500.0,3500.0,0.0,2.0,1.0,80-80,1.0,,key chain,key chain,80.0,80.0,key chain5,key chain10,60.0,80.0,keychain-metal-logo.jpg,Smurfs_Keychains_Smurf_Row_Boat.jpg,/static/Category_learning/Stimuli/Experimental_stims/key chain/keychain-metal-logo.jpg,/static/Category_learning/Stimuli/Experimental_stims/key chain/Smurfs_Keychains_Smurf_Row_Boat.jpg,0.0,key chain,key chain,80.0,80.0,key chain10,key chain5,80.0,60.0,0.0,126.754,0.254,,
436,,confirmation,,html-keyboard-response,436,614477,0.0-1.0-85.0-0.0-1.0-0.0,0,0,37970,,,,,,83.0,,,,,,,,,,,,,,,,,,,,,,,,,,,,,,,,128.0,1.246,,
437,,isi,,html-keyboard-response,437,614584,0.0-1.0-85.0-0.0-2.0,0,0,37970,,,,,,,,,,,,,,,,,,,,,,,,,,,,,,,,,,,,,,129.5,1.5,,
438,,feedback,,html-keyboard-response,438,615593,0.0-1.0-85.0-0.0-3.0-0.0,0,0,37970,,,,,,83.0,,,,,,,,,,,,,,,,,,,,,,,,,,,,,,,,130.5,1.0,,
439,,iti,,html-keyboard-response,439,615701,0.0-1.0-85.0-0.0-5.0,0,0,37970,,,,,,,,,,,,,,,,,,,,,,,,,,,,,,,,,,,,,,134.0,3.5,,
440,,choice,,html-keyboard-response,440,616019,0.0-1.0-86.0-0.0-0.0,0,0,37970,,314.0,,,75.0,84.0,86.0,1000.0,1000.0,0.0,2.0,0.0,40-80,,1.0,frame,tape,80.0,40.0,frame1,tape11,80.0,20.0,AFRAME127.jpg,41FZA73H4JL._AA280_.jpg,/static/Category_learning/Stimuli/Experimental_stims/frame/AFRAME127.jpg,/static/Category_learning/Stimuli/Experimental_stims/tape/41FZA73H4JL._AA280_.jpg,0.0,tape,frame,40.0,80.0,tape11,frame1,20.0,80.0,0.0,134.314,0.314,,
441,,confirmation,,html-keyboard-response,441,617211,0.0-1.0-86.0-0.0-1.0-0.0,0,0,37970,,,,,,84.0,,,,,,,,,,,,,,,,,,,,,,,,,,,,,,,,135.5,1.186,,
442,,isi,,html-keyboard-response,442,617318,0.0-1.0-86.0-0.0-2.0,0,0,37970,,,,,,,,,,,,,,,,,,,,,,,,,,,,,,,,,,,,,,136.5,1.0,,
443,,feedback,,html-keyboard-response,443,618321,0.0-1.0-86.0-0.0-3.0-0.0,0,0,37970,,,,,,84.0,,,,,,,,,,,,,,,,,,,,,,,,,,,,,,,,137.5,1.0,,
444,,iti,,html-keyboard-response,444,618427,0.0-1.0-86.0-0.0-5.0,0,0,37970,,,,,,,,,,,,,,,,,,,,,,,,,,,,,,,,,,,,,,138.5,1.0,,
445,,choice,,html-keyboard-response,445,618932,0.0-1.0-87.0-0.0-0.0,0,0,37970,,500.0,,,68.0,85.0,87.0,1500.0,1000.0,0.0,2.0,0.0,20-60,,1.0,bowl,seashell,60.0,20.0,bowl12,seashell1,40.0,0.0,Abowl52.jpg,Aseashe34.jpg,/static/Category_learning/Stimuli/Experimental_stims/bowl/Abowl52.jpg,/static/Category_learning/Stimuli/Experimental_stims/seashell/Aseashe34.jpg,1.0,bowl,seashell,60.0,20.0,bowl12,seashell1,40.0,0.0,0.0,139.0,0.5,,
446,,confirmation,,html-keyboard-response,446,619937,0.0-1.0-87.0-0.0-1.0-0.0,0,0,37970,,,,,,85.0,,,,,,,,,,,,,,,,,,,,,,,,,,,,,,,,140.0,1.0,,
447,,isi,,html-keyboard-response,447,620044,0.0-1.0-87.0-0.0-2.0,0,0,37970,,,,,,,,,,,,,,,,,,,,,,,,,,,,,,,,,,,,,,141.5,1.5,,
448,,feedback,,html-keyboard-response,448,621052,0.0-1.0-87.0-0.0-3.0-0.0,0,0,37970,,,,,,85.0,,,,,,,,,,,,,,,,,,,,,,,,,,,,,,,,142.5,1.0,,
449,,iti,,html-keyboard-response,449,621158,0.0-1.0-87.0-0.0-5.0,0,0,37970,,,,,,,,,,,,,,,,,,,,,,,,,,,,,,,,,,,,,,143.5,1.0,,
450,,choice,,html-keyboard-response,450,621297,0.0-1.0-88.0-0.0-0.0,0,0,37970,,136.0,,,68.0,86.0,88.0,1500.0,1000.0,0.0,2.0,0.0,40-60,,1.0,desk,watch,60.0,40.0,desk2,watch15,80.0,40.0,AA Luffield Radial crescent Desk 1600mm x 1200mm.jpg,20-171-6.jpg,/static/Category_learning/Stimuli/Experimental_stims/desk/AA Luffield Radial crescent Desk 1600mm x 1200mm.jpg,/static/Category_learning/Stimuli/Experimental_stims/watch/20-171-6.jpg,1.0,desk,watch,60.0,40.0,desk2,watch15,80.0,40.0,0.0,143.636,0.136,,
451,,confirmation,,html-keyboard-response,451,622668,0.0-1.0-88.0-0.0-1.0-0.0,0,0,37970,,,,,,86.0,,,,,,,,,,,,,,,,,,,,,,,,,,,,,,,,145.0,1.364,,
452,,isi,,html-keyboard-response,452,622774,0.0-1.0-88.0-0.0-2.0,0,0,37970,,,,,,,,,,,,,,,,,,,,,,,,,,,,,,,,,,,,,,146.5,1.5,,
453,,feedback,,html-keyboard-response,453,623782,0.0-1.0-88.0-0.0-3.0-0.0,0,0,37970,,,,,,86.0,,,,,,,,,,,,,,,,,,,,,,,,,,,,,,,,147.5,1.0,,
454,,iti,,html-keyboard-response,454,623891,0.0-1.0-88.0-0.0-5.0,0,0,37970,,,,,,,,,,,,,,,,,,,,,,,,,,,,,,,,,,,,,,148.5,1.0,,
455,,choice,,html-keyboard-response,455,624140,0.0-1.0-89.0-0.0-0.0,0,0,37970,,244.0,,,68.0,87.0,89.0,1000.0,3000.0,0.0,2.0,1.0,40-40,1.0,,tape,tape,40.0,40.0,tape9,tape11,40.0,20.0,desk tape disp.jpg,41FZA73H4JL._AA280_.jpg,/static/Category_learning/Stimuli/Experimental_stims/tape/desk tape disp.jpg,/static/Category_learning/Stimuli/Experimental_stims/tape/41FZA73H4JL._AA280_.jpg,1.0,tape,tape,40.0,40.0,tape9,tape11,40.0,20.0,0.0,148.744,0.244,,
456,,confirmation,,html-keyboard-response,456,625405,0.0-1.0-89.0-0.0-1.0-0.0,0,0,37970,,,,,,87.0,,,,,,,,,,,,,,,,,,,,,,,,,,,,,,,,150.0,1.256,,
457,,isi,,html-keyboard-response,457,625511,0.0-1.0-89.0-0.0-2.0,0,0,37970,,,,,,,,,,,,,,,,,,,,,,,,,,,,,,,,,,,,,,151.0,1.0,,
458,,feedback,,html-keyboard-response,458,626519,0.0-1.0-89.0-0.0-3.0-0.0,0,0,37970,,,,,,87.0,,,,,,,,,,,,,,,,,,,,,,,,,,,,,,,,152.0,1.0,,
459,,iti,,html-keyboard-response,459,626626,0.0-1.0-89.0-0.0-5.0,0,0,37970,,,,,,,,,,,,,,,,,,,,,,,,,,,,,,,,,,,,,,155.0,3.0,,
460,,choice,,html-keyboard-response,460,626876,0.0-1.0-90.0-0.0-0.0,0,0,37970,,246.0,,,68.0,88.0,90.0,1000.0,1000.0,0.0,2.0,0.0,40-60,,0.0,tape,dresser,40.0,60.0,tape1,dresser2,20.0,80.0,aktotape_01.jpg,ADRESSE46.jpg,/static/Category_learning/Stimuli/Experimental_stims/tape/aktotape_01.jpg,/static/Category_learning/Stimuli/Experimental_stims/dresser/ADRESSE46.jpg,1.0,tape,dresser,40.0,60.0,tape1,dresser2,20.0,80.0,0.0,155.246,0.246,,
461,,confirmation,,html-keyboard-response,461,628140,0.0-1.0-90.0-0.0-1.0-0.0,0,0,37970,,,,,,88.0,,,,,,,,,,,,,,,,,,,,,,,,,,,,,,,,156.5,1.254,,
462,,isi,,html-keyboard-response,462,628246,0.0-1.0-90.0-0.0-2.0,0,0,37970,,,,,,,,,,,,,,,,,,,,,,,,,,,,,,,,,,,,,,157.5,1.0,,
463,,feedback,,html-keyboard-response,463,629253,0.0-1.0-90.0-0.0-3.0-0.0,0,0,37970,,,,,,88.0,,,,,,,,,,,,,,,,,,,,,,,,,,,,,,,,158.5,1.0,,
464,,iti,,html-keyboard-response,464,629358,0.0-1.0-90.0-0.0-5.0,0,0,37970,,,,,,,,,,,,,,,,,,,,,,,,,,,,,,,,,,,,,,159.5,1.0,,
465,,choice,,html-keyboard-response,465,629650,0.0-1.0-91.0-0.0-0.0,0,0,37970,,289.0,,,68.0,89.0,91.0,2000.0,1000.0,0.0,2.0,0.0,80-80,,,lipstick,frame,80.0,80.0,lipstick3,frame6,80.0,60.0,31sCvjMS3jL._SS500_.jpg,AFRAME123.jpg,/static/Category_learning/Stimuli/Experimental_stims/lipstick/31sCvjMS3jL._SS500_.jpg,/static/Category_learning/Stimuli/Experimental_stims/frame/AFRAME123.jpg,1.0,lipstick,frame,80.0,80.0,lipstick3,frame6,80.0,60.0,0.0,159.789,0.289,,
466,,confirmation,,html-keyboard-response,466,630867,0.0-1.0-91.0-0.0-1.0-0.0,0,0,37970,,,,,,89.0,,,,,,,,,,,,,,,,,,,,,,,,,,,,,,,,161.0,1.211,,
467,,isi,,html-keyboard-response,467,630971,0.0-1.0-91.0-0.0-2.0,0,0,37970,,,,,,,,,,,,,,,,,,,,,,,,,,,,,,,,,,,,,,163.0,2.0,,
468,,feedback,,html-keyboard-response,468,631980,0.0-1.0-91.0-0.0-3.0-0.0,0,0,37970,,,,,,89.0,,,,,,,,,,,,,,,,,,,,,,,,,,,,,,,,164.0,1.0,,
469,,iti,,html-keyboard-response,469,632088,0.0-1.0-91.0-0.0-5.0,0,0,37970,,,,,,,,,,,,,,,,,,,,,,,,,,,,,,,,,,,,,,165.0,1.0,,
470,,choice,,html-keyboard-response,470,632650,0.0-1.0-92.0-0.0-0.0,0,0,37970,,558.0,,,68.0,90.0,92.0,1500.0,1500.0,0.0,2.0,0.0,40-80,,0.0,yarn,hat,40.0,80.0,yarn9,hat9,60.0,100.0,Aballofyarn26.jpg,Astrawhat44.jpg,/static/Category_learning/Stimuli/Experimental_stims/yarn/Aballofyarn26.jpg,/static/Category_learning/Stimuli/Experimental_stims/hat/Astrawhat44.jpg,1.0,yarn,hat,40.0,80.0,yarn9,hat9,60.0,100.0,0.0,165.558,0.558,,
471,,confirmation,,html-keyboard-response,471,633595,0.0-1.0-92.0-0.0-1.0-0.0,0,0,37970,,,,,,90.0,,,,,,,,,,,,,,,,,,,,,,,,,,,,,,,,166.5,0.942,,
472,,isi,,html-keyboard-response,472,633700,0.0-1.0-92.0-0.0-2.0,0,0,37970,,,,,,,,,,,,,,,,,,,,,,,,,,,,,,,,,,,,,,168.0,1.5,,
473,,feedback,,html-keyboard-response,473,634705,0.0-1.0-92.0-0.0-3.0-0.0,0,0,37970,,,,,,90.0,,,,,,,,,,,,,,,,,,,,,,,,,,,,,,,,169.0,1.0,,
474,,iti,,html-keyboard-response,474,634812,0.0-1.0-92.0-0.0-5.0,0,0,37970,,,,,,,,,,,,,,,,,,,,,,,,,,,,,,,,,,,,,,170.5,1.5,,
475,,choice,,html-keyboard-response,475,635090,0.0-1.0-93.0-0.0-0.0,0,0,37970,,275.0,,,68.0,91.0,93.0,1000.0,1000.0,0.0,2.0,0.0,20-80,,0.0,power strip,motorcycle,20.0,80.0,power strip7,motorcycle13,20.0,80.0,412YZ25RFBL._AA262_.jpg,2005-Buell-FireboltXB12R.jpg,/static/Category_learning/Stimuli/Experimental_stims/power strip/412YZ25RFBL._AA262_.jpg,/static/Category_learning/Stimuli/Experimental_stims/motorcycle/2005-Buell-FireboltXB12R.jpg,1.0,power strip,motorcycle,20.0,80.0,power strip7,motorcycle13,20.0,80.0,0.0,170.775,0.275,,
476,,confirmation,,html-keyboard-response,476,636322,0.0-1.0-93.0-0.0-1.0-0.0,0,0,37970,,,,,,91.0,,,,,,,,,,,,,,,,,,,,,,,,,,,,,,,,172.0,1.225,,
477,,isi,,html-keyboard-response,477,636430,0.0-1.0-93.0-0.0-2.0,0,0,37970,,,,,,,,,,,,,,,,,,,,,,,,,,,,,,,,,,,,,,173.0,1.0,,
478,,feedback,,html-keyboard-response,478,637436,0.0-1.0-93.0-0.0-3.0-0.0,0,0,37970,,,,,,91.0,,,,,,,,,,,,,,,,,,,,,,,,,,,,,,,,174.0,1.0,,
479,,iti,,html-keyboard-response,479,637542,0.0-1.0-93.0-0.0-5.0,0,0,37970,,,,,,,,,,,,,,,,,,,,,,,,,,,,,,,,,,,,,,175.0,1.0,,
480,,choice,,html-keyboard-response,480,637909,0.0-1.0-94.0-0.0-0.0,0,0,37970,,363.0,,,75.0,92.0,94.0,1000.0,2000.0,0.0,2.0,0.0,40-80,,0.0,telescope,makeup compact,40.0,80.0,telescope9,makeup compact11,60.0,100.0,13TELESTAND.jpg,P190255_hero.jpg,/static/Category_learning/Stimuli/Experimental_stims/telescope/13TELESTAND.jpg,/static/Category_learning/Stimuli/Experimental_stims/makeup compact/P190255_hero.jpg,0.0,makeup compact,telescope,80.0,40.0,makeup compact11,telescope9,100.0,60.0,0.0,175.363,0.363,,
481,,confirmation,,html-keyboard-response,481,639053,0.0-1.0-94.0-0.0-1.0-0.0,0,0,37970,,,,,,92.0,,,,,,,,,,,,,,,,,,,,,,,,,,,,,,,,176.5,1.137,,
482,,isi,,html-keyboard-response,482,639161,0.0-1.0-94.0-0.0-2.0,0,0,37970,,,,,,,,,,,,,,,,,,,,,,,,,,,,,,,,,,,,,,177.5,1.0,,
483,,feedback,,html-keyboard-response,483,640167,0.0-1.0-94.0-0.0-3.0-0.0,0,0,37970,,,,,,92.0,,,,,,,,,,,,,,,,,,,,,,,,,,,,,,,,178.5,1.0,,
484,,iti,,html-keyboard-response,484,640276,0.0-1.0-94.0-0.0-5.0,0,0,37970,,,,,,,,,,,,,,,,,,,,,,,,,,,,,,,,,,,,,,180.5,2.0,,
485,,choice,,html-keyboard-response,485,640304,0.0-1.0-95.0-0.0-0.0,0,0,37970,,23.0,,,75.0,93.0,95.0,1000.0,1000.0,0.0,2.0,0.0,40-60,,1.0,door knob,tape,60.0,40.0,door knob5,tape7,60.0,60.0,Parth_Portofino_500.jpg,tape dispenser.jpg,/static/Category_learning/Stimuli/Experimental_stims/door knob/Parth_Portofino_500.jpg,/static/Category_learning/Stimuli/Experimental_stims/tape/tape dispenser.jpg,0.0,tape,door knob,40.0,60.0,tape7,door knob5,60.0,60.0,0.0,180.523,0.023,,
486,,confirmation,,html-keyboard-response,486,641789,0.0-1.0-95.0-0.0-1.0-0.0,0,0,37970,,,,,,93.0,,,,,,,,,,,,,,,,,,,,,,,,,,,,,,,,182.0,1.477,,
487,,isi,,html-keyboard-response,487,641896,0.0-1.0-95.0-0.0-2.0,0,0,37970,,,,,,,,,,,,,,,,,,,,,,,,,,,,,,,,,,,,,,183.0,1.0,,
488,,feedback,,html-keyboard-response,488,642904,0.0-1.0-95.0-0.0-3.0-0.0,0,0,37970,,,,,,93.0,,,,,,,,,,,,,,,,,,,,,,,,,,,,,,,,184.0,1.0,,
489,,iti,,html-keyboard-response,489,643010,0.0-1.0-95.0-0.0-5.0,0,0,37970,,,,,,,,,,,,,,,,,,,,,,,,,,,,,,,,,,,,,,185.0,1.0,,
490,,choice,,html-keyboard-response,490,643282,0.0-1.0-96.0-0.0-0.0,0,0,37970,,268.0,,,75.0,94.0,96.0,1500.0,1000.0,0.0,2.0,1.0,80-80,1.0,,hat,hat,80.0,80.0,hat14,hat12,60.0,60.0,Ahat136.jpg,Aformalhat5.jpg,/static/Category_learning/Stimuli/Experimental_stims/hat/Ahat136.jpg,/static/Category_learning/Stimuli/Experimental_stims/hat/Aformalhat5.jpg,0.0,hat,hat,80.0,80.0,hat12,hat14,60.0,60.0,0.0,185.268,0.268,,
491,,confirmation,,html-keyboard-response,491,644519,0.0-1.0-96.0-0.0-1.0-0.0,0,0,37970,,,,,,94.0,,,,,,,,,,,,,,,,,,,,,,,,,,,,,,,,186.5,1.232,,
492,,isi,,html-keyboard-response,492,644625,0.0-1.0-96.0-0.0-2.0,0,0,37970,,,,,,,,,,,,,,,,,,,,,,,,,,,,,,,,,,,,,,188.0,1.5,,
493,,feedback,,html-keyboard-response,493,645629,0.0-1.0-96.0-0.0-3.0-0.0,0,0,37970,,,,,,94.0,,,,,,,,,,,,,,,,,,,,,,,,,,,,,,,,189.0,1.0,,
494,,iti,,html-keyboard-response,494,645735,0.0-1.0-96.0-0.0-5.0,0,0,37970,,,,,,,,,,,,,,,,,,,,,,,,,,,,,,,,,,,,,,190.0,1.0,,
495,,choice,,html-keyboard-response,495,646071,0.0-1.0-97.0-0.0-0.0,0,0,37970,,332.0,,,75.0,95.0,97.0,3000.0,1000.0,0.0,2.0,0.0,60-80,,1.0,microscope,desk,80.0,60.0,microscope11,desk1,60.0,40.0,konus5604microscope.jpg,ADESK11.jpg,/static/Category_learning/Stimuli/Experimental_stims/microscope/konus5604microscope.jpg,/static/Category_learning/Stimuli/Experimental_stims/desk/ADESK11.jpg,0.0,desk,microscope,60.0,80.0,desk1,microscope11,40.0,60.0,0.0,190.332,0.332,,
496,,confirmation,,html-keyboard-response,496,647245,0.0-1.0-97.0-0.0-1.0-0.0,0,0,37970,,,,,,95.0,,,,,,,,,,,,,,,,,,,,,,,,,,,,,,,,191.5,1.168,,
497,,isi,,html-keyboard-response,497,647351,0.0-1.0-97.0-0.0-2.0,0,0,37970,,,,,,,,,,,,,,,,,,,,,,,,,,,,,,,,,,,,,,194.5,3.0,,
498,,feedback,,html-keyboard-response,498,648359,0.0-1.0-97.0-0.0-3.0-0.0,0,0,37970,,,,,,95.0,,,,,,,,,,,,,,,,,,,,,,,,,,,,,,,,195.5,1.0,,
