,success,ttype,start_time,trial_type,trial_index,time_elapsed,internal_node_id,warning,missed_checkup,PID,view_history,rt,responses,repeat_instructions,key_press,index,trial_num,isi,iti,is_practice,block,old_trial,pair_type,within_category,high_cat_on_left,left_category,right_category,left_category_value,right_category_value,left_exemplar,right_exemplar,left_exemplar_value,right_exemplar_value,left_img,right_img,left_img_path,right_img_path,left_chosen,chosen_category,unchosen_category,chosen_category_value,unchosen_category_value,chosen_exemplar,unchosen_exemplar,chosen_exemplar_value,unchosen_exemplar_value,no_response,onset,duration,end_practice,total_bonus_tally,category,category_group_value,category_value_response,did_not_enter_response
0,True,full_screen,d06012022hr1937,fullscreen,0,2236,0.0-0.0,0,0,85937,,,,,,,,,,,,,,,,,,,,,,,,,,,,,,,,,,,,,,,,,,,,,
1,,category_learning_instructions,,instructions,1,6814,0.0-1.0-0.0-0.0,0,0,85937,"[{""page_index"":0,""viewing_time"":2492},{""page_index"":1,""viewing_time"":932},{""page_index"":2,""viewing_time"":284},{""page_index"":3,""viewing_time"":184},{""page_index"":4,""viewing_time"":150},{""page_index"":5,""viewing_time"":134},{""page_index"":6,""viewing_time"":399}]",4575.0,,,,,,,,,,,,,,,,,,,,,,,,,,,,,,,,,,,,,,,,,,,
2,,category_learning_comprehension_check,,survey-multi-choice,2,14129,0.0-1.0-0.0-1.0,0,0,85937,,7312.0,"{""Q0"":""True"",""Q1"":""True"",""Q2"":""Stay the same"",""Q3"":""D for left and K for right""}",0.0,,,,,,,,,,,,,,,,,,,,,,,,,,,,,,,,,,,,,,,,,
3,,,,html-keyboard-response,3,15296,0.0-1.0-1.0,0,0,85937,,1163.0,,,68.0,,,,,,,,,,,,,,,,,,,,,,,,,,,,,,,,,,,,,,,,
4,,choice,,html-keyboard-response,4,15916,0.0-1.0-2.0-0.0-0.0,0,0,85937,,617.0,,,68.0,0.0,0.0,1500.0,1000.0,1.0,0.0,0.0,20-80,,0.0,bagel,dumbbell,20.0,80.0,bagel1,dumbbell1,0.0,80.0,bagels_pumpernickel_large.jpg,31B64EN68AL._AA280_.jpg,/static/Category_learning/Stimuli/Practice_stims/bagel/bagels_pumpernickel_large.jpg,/static/Category_learning/Stimuli/Practice_stims/dumbbell/31B64EN68AL._AA280_.jpg,1.0,bagel,dumbbell,20.0,80.0,bagel1,dumbbell1,0.0,80.0,0.0,0.617,0.617,,,,,,
5,,confirmation,,html-keyboard-response,5,16802,0.0-1.0-2.0-0.0-1.0-0.0,0,0,85937,,,,,,0.0,,,,,,,,,,,,,,,,,,,,,,,,,,,,,,,,1.5,0.883,,,,,,
6,,isi,,html-keyboard-response,6,16908,0.0-1.0-2.0-0.0-2.0,0,0,85937,,,,,,,,,,,,,,,,,,,,,,,,,,,,,,,,,,,,,,3.0,1.5,,,,,,
7,,feedback,,html-keyboard-response,7,17915,0.0-1.0-2.0-0.0-3.0-0.0,0,0,85937,,,,,,0.0,,,,,,,,,,,,,,,,,,,,,,,,,,,,,,,,4.0,1.0,,,,,,
8,,iti,,html-keyboard-response,8,18020,0.0-1.0-2.0-0.0-5.0,0,0,85937,,,,,,,,,,,,,,,,,,,,,,,,,,,,,,,,,,,,,,5.0,1.0,,,,,,
9,,choice,,html-keyboard-response,9,18571,0.0-1.0-3.0-0.0-0.0,0,0,85937,,547.0,,,68.0,1.0,1.0,3000.0,1500.0,1.0,0.0,0.0,20-40,,1.0,calculator,bagel,40.0,20.0,calculator2,bagel2,20.0,20.0,22829064.thl.jpg,bagels_cinnraisin_large.jpg,/static/Category_learning/Stimuli/Practice_stims/calculator/22829064.thl.jpg,/static/Category_learning/Stimuli/Practice_stims/bagel/bagels_cinnraisin_large.jpg,1.0,calculator,bagel,40.0,20.0,calculator2,bagel2,20.0,20.0,0.0,5.547,0.547,,,,,,
10,,confirmation,,html-keyboard-response,10,19529,0.0-1.0-3.0-0.0-1.0-0.0,0,0,85937,,,,,,1.0,,,,,,,,,,,,,,,,,,,,,,,,,,,,,,,,6.5,0.953,,,,,,
11,,isi,,html-keyboard-response,11,19636,0.0-1.0-3.0-0.0-2.0,0,0,85937,,,,,,,,,,,,,,,,,,,,,,,,,,,,,,,,,,,,,,9.5,3.0,,,,,,
12,,feedback,,html-keyboard-response,12,20641,0.0-1.0-3.0-0.0-3.0-0.0,0,0,85937,,,,,,1.0,,,,,,,,,,,,,,,,,,,,,,,,,,,,,,,,10.5,1.0,,,,,,
13,,iti,,html-keyboard-response,13,20747,0.0-1.0-3.0-0.0-5.0,0,0,85937,,,,,,,,,,,,,,,,,,,,,,,,,,,,,,,,,,,,,,12.0,1.5,,,,,,
14,,choice,,html-keyboard-response,14,21368,0.0-1.0-4.0-0.0-0.0,0,0,85937,,618.0,,,75.0,2.0,2.0,2000.0,3000.0,1.0,0.0,0.0,60-80,,0.0,clock,dumbbell,60.0,80.0,clock2,dumbbell2,60.0,100.0,26373355.thl.jpg,31K8MR6TMBL._SS500_.jpg,/static/Category_learning/Stimuli/Practice_stims/clock/26373355.thl.jpg,/static/Category_learning/Stimuli/Practice_stims/dumbbell/31K8MR6TMBL._SS500_.jpg,0.0,dumbbell,clock,80.0,60.0,dumbbell2,clock2,100.0,60.0,0.0,12.618,0.618,,,,,,
15,,confirmation,,html-keyboard-response,15,22254,0.0-1.0-4.0-0.0-1.0-0.0,0,0,85937,,,,,,2.0,,,,,,,,,,,,,,,,,,,,,,,,,,,,,,,,13.5,0.882,,,,,,
16,,isi,,html-keyboard-response,16,22359,0.0-1.0-4.0-0.0-2.0,0,0,85937,,,,,,,,,,,,,,,,,,,,,,,,,,,,,,,,,,,,,,15.5,2.0,,,,,,
17,,feedback,,html-keyboard-response,17,23362,0.0-1.0-4.0-0.0-3.0-0.0,0,0,85937,,,,,,2.0,,,,,,,,,,,,,,,,,,,,,,,,,,,,,,,,16.5,1.0,,,,,,
18,,iti,,html-keyboard-response,18,23464,0.0-1.0-4.0-0.0-5.0,0,0,85937,,,,,,,,,,,,,,,,,,,,,,,,,,,,,,,,,,,,,,19.5,3.0,,,,,,
19,,choice,,html-keyboard-response,19,23942,0.0-1.0-5.0-0.0-0.0,0,0,85937,,475.0,,,75.0,3.0,3.0,1000.0,2000.0,1.0,0.0,0.0,40-80,,0.0,calculator,clock,40.0,60.0,calculator1,clock1,40.0,40.0,22829184.thl.jpg,Aalarmclock2.jpg,/static/Category_learning/Stimuli/Practice_stims/calculator/22829184.thl.jpg,/static/Category_learning/Stimuli/Practice_stims/clock/Aalarmclock2.jpg,0.0,clock,calculator,60.0,40.0,clock1,calculator1,40.0,40.0,0.0,19.975,0.475,,,,,,
20,,confirmation,,html-keyboard-response,20,24973,0.0-1.0-5.0-0.0-1.0-0.0,0,0,85937,,,,,,3.0,,,,,,,,,,,,,,,,,,,,,,,,,,,,,,,,21.0,1.025,,,,,,
21,,isi,,html-keyboard-response,21,25080,0.0-1.0-5.0-0.0-2.0,0,0,85937,,,,,,,,,,,,,,,,,,,,,,,,,,,,,,,,,,,,,,22.0,1.0,,,,,,
22,,feedback,,html-keyboard-response,22,26086,0.0-1.0-5.0-0.0-3.0-0.0,0,0,85937,,,,,,3.0,,,,,,,,,,,,,,,,,,,,,,,,,,,,,,,,23.0,1.0,,,,,,
23,,iti,,html-keyboard-response,23,26190,0.0-1.0-5.0-0.0-5.0,0,0,85937,,,,,,,,,,,,,,,,,,,,,,,,,,,,,,,,,,,,,,25.0,2.0,,,,,,
24,,choice,,html-keyboard-response,24,26752,0.0-1.0-6.0-0.0-0.0,0,0,85937,,560.0,,,68.0,4.0,4.0,2500.0,2500.0,1.0,0.0,0.0,20-60,,1.0,dumbbell,bagel,80.0,20.0,dumbbell3,bagel3,100.0,40.0,41K7QVRX50L._SS500_.jpg,photo-169.jpg,/static/Category_learning/Stimuli/Practice_stims/dumbbell/41K7QVRX50L._SS500_.jpg,/static/Category_learning/Stimuli/Practice_stims/bagel/photo-169.jpg,1.0,dumbbell,bagel,80.0,20.0,dumbbell3,bagel3,100.0,40.0,0.0,25.56,0.56,1.0,,,,,
25,,confirmation,,html-keyboard-response,25,27699,0.0-1.0-6.0-0.0-1.0-0.0,0,0,85937,,,,,,4.0,,,,,,,,,,,,,,,,,,,,,,,,,,,,,,,,26.5,0.94,,,,,,
26,,isi,,html-keyboard-response,26,27806,0.0-1.0-6.0-0.0-2.0,0,0,85937,,,,,,,,,,,,,,,,,,,,,,,,,,,,,,,,,,,,,,29.0,2.5,,,,,,
27,,feedback,,html-keyboard-response,27,28812,0.0-1.0-6.0-0.0-3.0-0.0,0,0,85937,,,,,,4.0,,,,,,,,,,,,,,,,,,,,,,,,,,,,,,,,30.0,1.0,,,,,,
28,,iti,,html-keyboard-response,28,28919,0.0-1.0-6.0-0.0-5.0,0,0,85937,,,,,,,,,,,,,,,,,,,,,,,,,,,,,,,,,,,,,,32.5,2.5,,,,,,
29,,practice_over,,html-keyboard-response,29,30036,0.0-1.0-6.0-0.0-6.0-0.0,0,0,85937,,1114.0,,,68.0,4.0,,,,,,,,,,,,,,,,,,,,,,,,,,,,,,,,,,,,,,,
30,,start_run,,html-keyboard-response,30,31597,0.0-1.0-6.0-0.0-6.0-1.0,0,0,85937,,1559.0,,,84.0,,,,,,,,,,,,,,,,,,,,,,,,,,,,,,,,,,,,,,,,
31,,choice,,html-keyboard-response,31,32177,0.0-1.0-7.0-0.0-0.0,0,0,85937,,577.0,,,68.0,5.0,305.0,3500.0,1000.0,0.0,6.0,0.0,20-60,,1.0,key chain,vase,60.0,20.0,key chain5,vase14,40.0,0.0,keychain-metal-logo.jpg,Avase119.jpg,/static/Category_learning/Stimuli/Experimental_stims/key chain/keychain-metal-logo.jpg,/static/Category_learning/Stimuli/Experimental_stims/vase/Avase119.jpg,1.0,key chain,vase,60.0,20.0,key chain5,vase14,40.0,0.0,0.0,0.577,0.577,,,,,,
32,,confirmation,,html-keyboard-response,32,33107,0.0-1.0-7.0-0.0-1.0-0.0,0,0,85937,,,,,,5.0,,,,,,,,,,,,,,,,,,,,,,,,,,,,,,,,1.5,0.923,,,,,,
33,,isi,,html-keyboard-response,33,33213,0.0-1.0-7.0-0.0-2.0,0,0,85937,,,,,,,,,,,,,,,,,,,,,,,,,,,,,,,,,,,,,,5.0,3.5,,,,,,
34,,feedback,,html-keyboard-response,34,34220,0.0-1.0-7.0-0.0-3.0-0.0,0,0,85937,,,,,,5.0,,,,,,,,,,,,,,,,,,,,,,,,,,,,,,,,6.0,1.0,,,,,,
35,,iti,,html-keyboard-response,35,34327,0.0-1.0-7.0-0.0-5.0,0,0,85937,,,,,,,,,,,,,,,,,,,,,,,,,,,,,,,,,,,,,,7.0,1.0,,,,,,
36,,choice,,html-keyboard-response,36,34697,0.0-1.0-8.0-0.0-0.0,0,0,85937,,367.0,,,75.0,6.0,306.0,1000.0,3500.0,0.0,6.0,0.0,40-60,,0.0,door knob,license plate,40.0,60.0,door knob4,license plate1,40.0,80.0,chrome scroll latch handle.jpg,il-423-3784.jpg,/static/Category_learning/Stimuli/Experimental_stims/door knob/chrome scroll latch handle.jpg,/static/Category_learning/Stimuli/Experimental_stims/license plate/il-423-3784.jpg,0.0,license plate,door knob,60.0,40.0,license plate1,door knob4,80.0,40.0,0.0,7.367,0.367,,,,,,
37,,confirmation,,html-keyboard-response,37,35837,0.0-1.0-8.0-0.0-1.0-0.0,0,0,85937,,,,,,6.0,,,,,,,,,,,,,,,,,,,,,,,,,,,,,,,,8.5,1.133,,,,,,
38,,isi,,html-keyboard-response,38,35944,0.0-1.0-8.0-0.0-2.0,0,0,85937,,,,,,,,,,,,,,,,,,,,,,,,,,,,,,,,,,,,,,9.5,1.0,,,,,,
39,,feedback,,html-keyboard-response,39,36947,0.0-1.0-8.0-0.0-3.0-0.0,0,0,85937,,,,,,6.0,,,,,,,,,,,,,,,,,,,,,,,,,,,,,,,,10.5,1.0,,,,,,
40,,iti,,html-keyboard-response,40,37053,0.0-1.0-8.0-0.0-5.0,0,0,85937,,,,,,,,,,,,,,,,,,,,,,,,,,,,,,,,,,,,,,14.0,3.5,,,,,,
41,,choice,,html-keyboard-response,41,37616,0.0-1.0-9.0-0.0-0.0,0,0,85937,,561.0,,,68.0,7.0,307.0,1000.0,2000.0,0.0,6.0,0.0,40-80,,1.0,necklace,baby carriage,80.0,40.0,necklace5,baby carriage10,80.0,20.0,necklascenew08.jpg,peg_perego_uno_blu.jpg,/static/Category_learning/Stimuli/Experimental_stims/necklace/necklascenew08.jpg,/static/Category_learning/Stimuli/Experimental_stims/baby carriage/peg_perego_uno_blu.jpg,1.0,necklace,baby carriage,80.0,40.0,necklace5,baby carriage10,80.0,20.0,0.0,14.561,0.561,,,,,,
42,,confirmation,,html-keyboard-response,42,38563,0.0-1.0-9.0-0.0-1.0-0.0,0,0,85937,,,,,,7.0,,,,,,,,,,,,,,,,,,,,,,,,,,,,,,,,15.5,0.939,,,,,,
43,,isi,,html-keyboard-response,43,38670,0.0-1.0-9.0-0.0-2.0,0,0,85937,,,,,,,,,,,,,,,,,,,,,,,,,,,,,,,,,,,,,,16.5,1.0,,,,,,
44,,feedback,,html-keyboard-response,44,39676,0.0-1.0-9.0-0.0-3.0-0.0,0,0,85937,,,,,,7.0,,,,,,,,,,,,,,,,,,,,,,,,,,,,,,,,17.5,1.0,,,,,,
45,,iti,,html-keyboard-response,45,39782,0.0-1.0-9.0-0.0-5.0,0,0,85937,,,,,,,,,,,,,,,,,,,,,,,,,,,,,,,,,,,,,,19.5,2.0,,,,,,
46,,choice,,html-keyboard-response,46,40279,0.0-1.0-10.0-0.0-0.0,0,0,85937,,494.0,,,68.0,8.0,308.0,1500.0,1500.0,0.0,6.0,0.0,20-80,,1.0,nail polish,trumpet,80.0,20.0,nail polish12,trumpet13,80.0,20.0,laquerdUP.jpg,JUPITER+JTR1600GS.jpg,/static/Category_learning/Stimuli/Experimental_stims/nail polish/laquerdUP.jpg,/static/Category_learning/Stimuli/Experimental_stims/trumpet/JUPITER+JTR1600GS.jpg,1.0,nail polish,trumpet,80.0,20.0,nail polish12,trumpet13,80.0,20.0,0.0,19.994,0.494,,,,,,
47,,confirmation,,html-keyboard-response,47,41288,0.0-1.0-10.0-0.0-1.0-0.0,0,0,85937,,,,,,8.0,,,,,,,,,,,,,,,,,,,,,,,,,,,,,,,,21.0,1.006,,,,,,
48,,isi,,html-keyboard-response,48,41395,0.0-1.0-10.0-0.0-2.0,0,0,85937,,,,,,,,,,,,,,,,,,,,,,,,,,,,,,,,,,,,,,22.5,1.5,,,,,,
49,,feedback,,html-keyboard-response,49,42403,0.0-1.0-10.0-0.0-3.0-0.0,0,0,85937,,,,,,8.0,,,,,,,,,,,,,,,,,,,,,,,,,,,,,,,,23.5,1.0,,,,,,
50,,iti,,html-keyboard-response,50,42509,0.0-1.0-10.0-0.0-5.0,0,0,85937,,,,,,,,,,,,,,,,,,,,,,,,,,,,,,,,,,,,,,25.0,1.5,,,,,,
51,,choice,,html-keyboard-response,51,42989,0.0-1.0-11.0-0.0-0.0,0,0,85937,,477.0,,,68.0,9.0,309.0,1000.0,1000.0,0.0,6.0,0.0,20-80,,1.0,pen,train,80.0,20.0,pen1,train12,60.0,0.0,pen09.jpg,02565 ride on train.jpg,/static/Category_learning/Stimuli/Experimental_stims/pen/pen09.jpg,/static/Category_learning/Stimuli/Experimental_stims/train/02565 ride on train.jpg,1.0,pen,train,80.0,20.0,pen1,train12,60.0,0.0,0.0,25.477,0.477,,,,,,
52,,confirmation,,html-keyboard-response,52,44019,0.0-1.0-11.0-0.0-1.0-0.0,0,0,85937,,,,,,9.0,,,,,,,,,,,,,,,,,,,,,,,,,,,,,,,,26.5,1.023,,,,,,
53,,isi,,html-keyboard-response,53,44125,0.0-1.0-11.0-0.0-2.0,0,0,85937,,,,,,,,,,,,,,,,,,,,,,,,,,,,,,,,,,,,,,27.5,1.0,,,,,,
54,,feedback,,html-keyboard-response,54,45133,0.0-1.0-11.0-0.0-3.0-0.0,0,0,85937,,,,,,9.0,,,,,,,,,,,,,,,,,,,,,,,,,,,,,,,,28.5,1.0,,,,,,
55,,iti,,html-keyboard-response,55,45240,0.0-1.0-11.0-0.0-5.0,0,0,85937,,,,,,,,,,,,,,,,,,,,,,,,,,,,,,,,,,,,,,29.5,1.0,,,,,,
56,,choice,,html-keyboard-response,56,45570,0.0-1.0-12.0-0.0-0.0,0,0,85937,,327.0,,,68.0,10.0,310.0,3000.0,1000.0,0.0,6.0,0.0,20-80,,0.0,watch,necklace,20.0,80.0,watch10,necklace11,0.0,100.0,HEU0102124_zoom.jpg,necklascenew06.jpg,/static/Category_learning/Stimuli/Experimental_stims/watch/HEU0102124_zoom.jpg,/static/Category_learning/Stimuli/Experimental_stims/necklace/necklascenew06.jpg,1.0,watch,necklace,20.0,80.0,watch10,necklace11,0.0,100.0,0.0,29.827,0.327,,,,,,
57,,confirmation,,html-keyboard-response,57,46749,0.0-1.0-12.0-0.0-1.0-0.0,0,0,85937,,,,,,10.0,,,,,,,,,,,,,,,,,,,,,,,,,,,,,,,,31.0,1.173,,,,,,
58,,isi,,html-keyboard-response,58,46856,0.0-1.0-12.0-0.0-2.0,0,0,85937,,,,,,,,,,,,,,,,,,,,,,,,,,,,,,,,,,,,,,34.0,3.0,,,,,,
59,,feedback,,html-keyboard-response,59,47859,0.0-1.0-12.0-0.0-3.0-0.0,0,0,85937,,,,,,10.0,,,,,,,,,,,,,,,,,,,,,,,,,,,,,,,,35.0,1.0,,,,,,
60,,iti,,html-keyboard-response,60,47965,0.0-1.0-12.0-0.0-5.0,0,0,85937,,,,,,,,,,,,,,,,,,,,,,,,,,,,,,,,,,,,,,36.0,1.0,,,,,,
61,,choice,,html-keyboard-response,61,48572,0.0-1.0-13.0-0.0-0.0,0,0,85937,,603.0,,,68.0,11.0,311.0,1000.0,1500.0,0.0,6.0,0.0,20-80,,0.0,stool,power strip,20.0,80.0,stool2,power strip15,40.0,100.0,ASTOOL46.jpg,31oz6aGZN7L._AA262_.jpg,/static/Category_learning/Stimuli/Experimental_stims/stool/ASTOOL46.jpg,/static/Category_learning/Stimuli/Experimental_stims/power strip/31oz6aGZN7L._AA262_.jpg,1.0,stool,power strip,20.0,80.0,stool2,power strip15,40.0,100.0,0.0,36.603,0.603,,,,,,
62,,confirmation,,html-keyboard-response,62,49477,0.0-1.0-13.0-0.0-1.0-0.0,0,0,85937,,,,,,11.0,,,,,,,,,,,,,,,,,,,,,,,,,,,,,,,,37.5,0.897,,,,,,
63,,isi,,html-keyboard-response,63,49582,0.0-1.0-13.0-0.0-2.0,0,0,85937,,,,,,,,,,,,,,,,,,,,,,,,,,,,,,,,,,,,,,38.5,1.0,,,,,,
64,,feedback,,html-keyboard-response,64,50586,0.0-1.0-13.0-0.0-3.0-0.0,0,0,85937,,,,,,11.0,,,,,,,,,,,,,,,,,,,,,,,,,,,,,,,,39.5,1.0,,,,,,
65,,iti,,html-keyboard-response,65,50690,0.0-1.0-13.0-0.0-5.0,0,0,85937,,,,,,,,,,,,,,,,,,,,,,,,,,,,,,,,,,,,,,41.0,1.5,,,,,,
66,,choice,,html-keyboard-response,66,52328,0.0-1.0-14.0-0.0-0.0,0,0,85937,,,,,,12.0,312.0,3000.0,3000.0,0.0,6.0,0.0,60-80,,1.0,seashell,lipstick,80.0,60.0,seashell5,lipstick2,80.0,40.0,429345994_b87bb03366.jpg,11uuoPMY+OL._SS500_.jpg,/static/Category_learning/Stimuli/Experimental_stims/seashell/429345994_b87bb03366.jpg,/static/Category_learning/Stimuli/Experimental_stims/lipstick/11uuoPMY+OL._SS500_.jpg,,,,,,,,,,1.0,42.5,1.5,,,,,,
67,,isi,,html-keyboard-response,67,52431,0.0-1.0-14.0-0.0-2.0,0,0,85937,,,,,,,,,,,,,,,,,,,,,,,,,,,,,,,,,,,,,,45.5,3.0,,,,,,
68,,no_response,,html-keyboard-response,68,53438,0.0-1.0-14.0-0.0-4.0-0.0,1,0,85937,,,,,,,,,,,,,,,,,,,,,,,,,,,,,,,,,,,,,,46.5,1.0,,,,,,
69,,iti,,html-keyboard-response,69,53559,0.0-1.0-14.0-0.0-5.0,0,0,85937,,,,,,,,,,,,,,,,,,,,,,,,,,,,,,,,,,,,,,49.5,3.0,,,,,,
70,,choice,,html-keyboard-response,70,55064,0.0-1.0-14.0-0.1-0.1,0,0,85937,,,,,,12.0,312.0,3000.0,3000.0,0.0,6.0,0.0,60-80,,1.0,seashell,lipstick,80.0,60.0,seashell5,lipstick2,80.0,40.0,429345994_b87bb03366.jpg,11uuoPMY+OL._SS500_.jpg,/static/Category_learning/Stimuli/Experimental_stims/seashell/429345994_b87bb03366.jpg,/static/Category_learning/Stimuli/Experimental_stims/lipstick/11uuoPMY+OL._SS500_.jpg,,,,,,,,,,1.0,51.0,1.5,,,,,,
71,,isi,,html-keyboard-response,71,55170,0.0-1.0-14.0-0.1-2.1,0,0,85937,,,,,,,,,,,,,,,,,,,,,,,,,,,,,,,,,,,,,,53.0,2.0,,,,,,
72,,no_response,,html-keyboard-response,72,56173,0.0-1.0-14.0-0.1-4.1-0.1,1,0,85937,,,,,,,,,,,,,,,,,,,,,,,,,,,,,,,,,,,,,,54.0,1.0,,,,,,
73,,iti,,html-keyboard-response,73,56292,0.0-1.0-14.0-0.1-5.1,0,0,85937,,,,,,,,,,,,,,,,,,,,,,,,,,,,,,,,,,,,,,55.5,1.5,,,,,,
74,,choice,,html-keyboard-response,74,57796,0.0-1.0-14.0-0.2-0.2,0,0,85937,,,,,,12.0,312.0,3000.0,3000.0,0.0,6.0,0.0,60-80,,1.0,seashell,lipstick,80.0,60.0,seashell5,lipstick2,80.0,40.0,429345994_b87bb03366.jpg,11uuoPMY+OL._SS500_.jpg,/static/Category_learning/Stimuli/Experimental_stims/seashell/429345994_b87bb03366.jpg,/static/Category_learning/Stimuli/Experimental_stims/lipstick/11uuoPMY+OL._SS500_.jpg,,,,,,,,,,1.0,57.0,1.5,,,,,,
75,,isi,,html-keyboard-response,75,57903,0.0-1.0-14.0-0.2-2.2,0,0,85937,,,,,,,,,,,,,,,,,,,,,,,,,,,,,,,,,,,,,,58.5,1.5,,,,,,
76,,no_response,,html-keyboard-response,76,58909,0.0-1.0-14.0-0.2-4.2-0.2,1,0,85937,,,,,,,,,,,,,,,,,,,,,,,,,,,,,,,,,,,,,,59.5,1.0,,,,,,
77,,iti,,html-keyboard-response,77,59030,0.0-1.0-14.0-0.2-5.2,0,0,85937,,,,,,,,,,,,,,,,,,,,,,,,,,,,,,,,,,,,,,61.5,2.0,,,,,,
78,,choice,,html-keyboard-response,78,60520,0.0-1.0-14.0-0.3-0.3,0,0,85937,,1487.0,,,68.0,12.0,312.0,3000.0,3000.0,0.0,6.0,0.0,60-80,,1.0,seashell,lipstick,80.0,60.0,seashell5,lipstick2,80.0,40.0,429345994_b87bb03366.jpg,11uuoPMY+OL._SS500_.jpg,/static/Category_learning/Stimuli/Experimental_stims/seashell/429345994_b87bb03366.jpg,/static/Category_learning/Stimuli/Experimental_stims/lipstick/11uuoPMY+OL._SS500_.jpg,1.0,seashell,lipstick,80.0,60.0,seashell5,lipstick2,80.0,40.0,0.0,62.987,1.487,,,,,,
79,,confirmation,,html-keyboard-response,79,60536,0.0-1.0-14.0-0.3-1.3-0.3,0,0,85937,,,,,,12.0,,,,,,,,,,,,,,,,,,,,,,,,,,,,,,,,63.0,0.013,,,,,,
80,,isi,,html-keyboard-response,80,60640,0.0-1.0-14.0-0.3-2.3,0,0,85937,,,,,,,,,,,,,,,,,,,,,,,,,,,,,,,,,,,,,,64.0,1.0,,,,,,
81,,feedback,,html-keyboard-response,81,61647,0.0-1.0-14.0-0.3-3.3-0.3,0,0,85937,,,,,,12.0,,,,,,,,,,,,,,,,,,,,,,,,,,,,,,,,65.0,1.0,,,,,,
82,,iti,,html-keyboard-response,82,61753,0.0-1.0-14.0-0.3-5.3,0,0,85937,,,,,,,,,,,,,,,,,,,,,,,,,,,,,,,,,,,,,,67.0,2.0,,,,,,
83,,choice,,html-keyboard-response,83,62528,0.0-1.0-15.0-0.0-0.0,0,0,85937,,772.0,,,75.0,13.0,313.0,3000.0,1000.0,0.0,6.0,0.0,40-40,,,bowl,flashlight,40.0,40.0,bowl8,flashlight15,20.0,40.0,ASLVBOWL.jpg,freeplay-xray-wind-up-led-flashlight.jpg,/static/Category_learning/Stimuli/Experimental_stims/bowl/ASLVBOWL.jpg,/static/Category_learning/Stimuli/Experimental_stims/flashlight/freeplay-xray-wind-up-led-flashlight.jpg,0.0,flashlight,bowl,40.0,40.0,flashlight15,bowl8,40.0,20.0,0.0,67.772,0.772,,,,,,
84,,confirmation,,html-keyboard-response,84,63262,0.0-1.0-15.0-0.0-1.0-0.0,0,0,85937,,,,,,13.0,,,,,,,,,,,,,,,,,,,,,,,,,,,,,,,,68.5,0.728,,,,,,
85,,isi,,html-keyboard-response,85,63370,0.0-1.0-15.0-0.0-2.0,0,0,85937,,,,,,,,,,,,,,,,,,,,,,,,,,,,,,,,,,,,,,71.5,3.0,,,,,,
86,,feedback,,html-keyboard-response,86,64377,0.0-1.0-15.0-0.0-3.0-0.0,0,0,85937,,,,,,13.0,,,,,,,,,,,,,,,,,,,,,,,,,,,,,,,,72.5,1.0,,,,,,
87,,iti,,html-keyboard-response,87,64483,0.0-1.0-15.0-0.0-5.0,0,0,85937,,,,,,,,,,,,,,,,,,,,,,,,,,,,,,,,,,,,,,73.5,1.0,,,,,,
88,,choice,,html-keyboard-response,88,64742,0.0-1.0-16.0-0.0-0.0,0,0,85937,,257.0,,,68.0,14.0,314.0,3500.0,1000.0,0.0,6.0,0.0,40-40,,,fan,bench,40.0,40.0,fan10,bench15,60.0,60.0,n_sf_1666.jpg,Abench12.jpg,/static/Category_learning/Stimuli/Experimental_stims/fan/n_sf_1666.jpg,/static/Category_learning/Stimuli/Experimental_stims/bench/Abench12.jpg,1.0,fan,bench,40.0,40.0,fan10,bench15,60.0,60.0,0.0,73.757,0.257,,,,,,
89,,confirmation,,html-keyboard-response,89,65991,0.0-1.0-16.0-0.0-1.0-0.0,0,0,85937,,,,,,14.0,,,,,,,,,,,,,,,,,,,,,,,,,,,,,,,,75.0,1.243,,,,,,
90,,isi,,html-keyboard-response,90,66094,0.0-1.0-16.0-0.0-2.0,0,0,85937,,,,,,,,,,,,,,,,,,,,,,,,,,,,,,,,,,,,,,78.5,3.5,,,,,,
91,,feedback,,html-keyboard-response,91,67102,0.0-1.0-16.0-0.0-3.0-0.0,0,0,85937,,,,,,14.0,,,,,,,,,,,,,,,,,,,,,,,,,,,,,,,,79.5,1.0,,,,,,
92,,iti,,html-keyboard-response,92,67208,0.0-1.0-16.0-0.0-5.0,0,0,85937,,,,,,,,,,,,,,,,,,,,,,,,,,,,,,,,,,,,,,80.5,1.0,,,,,,
93,,choice,,html-keyboard-response,93,67493,0.0-1.0-17.0-0.0-0.0,0,0,85937,,281.0,,,68.0,15.0,315.0,3000.0,3500.0,0.0,6.0,1.0,40-60,0.0,,flashlight,license plate,40.0,60.0,flashlight15,license plate1,40.0,80.0,freeplay-xray-wind-up-led-flashlight.jpg,il-423-3784.jpg,/static/Category_learning/Stimuli/Experimental_stims/flashlight/freeplay-xray-wind-up-led-flashlight.jpg,/static/Category_learning/Stimuli/Experimental_stims/license plate/il-423-3784.jpg,1.0,flashlight,license plate,40.0,60.0,flashlight15,license plate1,40.0,80.0,0.0,80.781,0.281,,,,,,
94,,confirmation,,html-keyboard-response,94,68719,0.0-1.0-17.0-0.0-1.0-0.0,0,0,85937,,,,,,15.0,,,,,,,,,,,,,,,,,,,,,,,,,,,,,,,,82.0,1.219,,,,,,
95,,isi,,html-keyboard-response,95,68824,0.0-1.0-17.0-0.0-2.0,0,0,85937,,,,,,,,,,,,,,,,,,,,,,,,,,,,,,,,,,,,,,85.0,3.0,,,,,,
96,,feedback,,html-keyboard-response,96,69832,0.0-1.0-17.0-0.0-3.0-0.0,0,0,85937,,,,,,15.0,,,,,,,,,,,,,,,,,,,,,,,,,,,,,,,,86.0,1.0,,,,,,
97,,iti,,html-keyboard-response,97,69939,0.0-1.0-17.0-0.0-5.0,0,0,85937,,,,,,,,,,,,,,,,,,,,,,,,,,,,,,,,,,,,,,89.5,3.5,,,,,,
98,,choice,,html-keyboard-response,98,71245,0.0-1.0-18.0-0.0-0.0,0,0,85937,,1303.0,,,68.0,16.0,316.0,1000.0,1000.0,0.0,6.0,0.0,20-40,,1.0,dresser,watch,40.0,20.0,dresser13,watch13,60.0,0.0,ADRESSE70.jpg,RS_3104_lrg.jpg,/static/Category_learning/Stimuli/Experimental_stims/dresser/ADRESSE70.jpg,/static/Category_learning/Stimuli/Experimental_stims/watch/RS_3104_lrg.jpg,1.0,dresser,watch,40.0,20.0,dresser13,watch13,60.0,0.0,0.0,90.803,1.303,,,,,,
99,,confirmation,,html-keyboard-response,99,71448,0.0-1.0-18.0-0.0-1.0-0.0,0,0,85937,,,,,,16.0,,,,,,,,,,,,,,,,,,,,,,,,,,,,,,,,91.0,0.197,,,,,,
100,,isi,,html-keyboard-response,100,71555,0.0-1.0-18.0-0.0-2.0,0,0,85937,,,,,,,,,,,,,,,,,,,,,,,,,,,,,,,,,,,,,,92.0,1.0,,,,,,
101,,feedback,,html-keyboard-response,101,72562,0.0-1.0-18.0-0.0-3.0-0.0,0,0,85937,,,,,,16.0,,,,,,,,,,,,,,,,,,,,,,,,,,,,,,,,93.0,1.0,,,,,,
102,,iti,,html-keyboard-response,102,72670,0.0-1.0-18.0-0.0-5.0,0,0,85937,,,,,,,,,,,,,,,,,,,,,,,,,,,,,,,,,,,,,,94.0,1.0,,,,,,
103,,choice,,html-keyboard-response,103,73065,0.0-1.0-19.0-0.0-0.0,0,0,85937,,392.0,,,68.0,17.0,317.0,2000.0,1000.0,0.0,6.0,1.0,40-80,0.0,,pen,dresser,80.0,40.0,pen1,dresser13,60.0,60.0,pen09.jpg,ADRESSE70.jpg,/static/Category_learning/Stimuli/Experimental_stims/pen/pen09.jpg,/static/Category_learning/Stimuli/Experimental_stims/dresser/ADRESSE70.jpg,1.0,pen,dresser,80.0,40.0,pen1,dresser13,60.0,60.0,0.0,94.392,0.392,,,,,,
104,,confirmation,,html-keyboard-response,104,74179,0.0-1.0-19.0-0.0-1.0-0.0,0,0,85937,,,,,,17.0,,,,,,,,,,,,,,,,,,,,,,,,,,,,,,,,95.5,1.108,,,,,,
105,,isi,,html-keyboard-response,105,74286,0.0-1.0-19.0-0.0-2.0,0,0,85937,,,,,,,,,,,,,,,,,,,,,,,,,,,,,,,,,,,,,,97.5,2.0,,,,,,
106,,feedback,,html-keyboard-response,106,75293,0.0-1.0-19.0-0.0-3.0-0.0,0,0,85937,,,,,,17.0,,,,,,,,,,,,,,,,,,,,,,,,,,,,,,,,98.5,1.0,,,,,,
107,,iti,,html-keyboard-response,107,75400,0.0-1.0-19.0-0.0-5.0,0,0,85937,,,,,,,,,,,,,,,,,,,,,,,,,,,,,,,,,,,,,,99.5,1.0,,,,,,
108,,choice,,html-keyboard-response,108,75939,0.0-1.0-20.0-0.0-0.0,0,0,85937,,535.0,,,68.0,18.0,318.0,1000.0,1000.0,0.0,6.0,0.0,20-60,,0.0,telescope,license plate,20.0,60.0,telescope9,license plate4,40.0,40.0,13TELESTAND.jpg,ca-2flt842.jpg,/static/Category_learning/Stimuli/Experimental_stims/telescope/13TELESTAND.jpg,/static/Category_learning/Stimuli/Experimental_stims/license plate/ca-2flt842.jpg,1.0,telescope,license plate,20.0,60.0,telescope9,license plate4,40.0,40.0,0.0,100.035,0.535,,,,,,
109,,confirmation,,html-keyboard-response,109,76909,0.0-1.0-20.0-0.0-1.0-0.0,0,0,85937,,,,,,18.0,,,,,,,,,,,,,,,,,,,,,,,,,,,,,,,,101.0,0.965,,,,,,
110,,isi,,html-keyboard-response,110,77016,0.0-1.0-20.0-0.0-2.0,0,0,85937,,,,,,,,,,,,,,,,,,,,,,,,,,,,,,,,,,,,,,102.0,1.0,,,,,,
111,,feedback,,html-keyboard-response,111,78025,0.0-1.0-20.0-0.0-3.0-0.0,0,0,85937,,,,,,18.0,,,,,,,,,,,,,,,,,,,,,,,,,,,,,,,,103.0,1.0,,,,,,
112,,iti,,html-keyboard-response,112,78131,0.0-1.0-20.0-0.0-5.0,0,0,85937,,,,,,,,,,,,,,,,,,,,,,,,,,,,,,,,,,,,,,104.0,1.0,,,,,,
113,,choice,,html-keyboard-response,113,78529,0.0-1.0-21.0-0.0-0.0,0,0,85937,,395.0,,,68.0,19.0,319.0,2000.0,3000.0,0.0,6.0,1.0,20-80,0.0,,necklace,stool,80.0,20.0,necklace5,stool2,80.0,40.0,necklascenew08.jpg,ASTOOL46.jpg,/static/Category_learning/Stimuli/Experimental_stims/necklace/necklascenew08.jpg,/static/Category_learning/Stimuli/Experimental_stims/stool/ASTOOL46.jpg,1.0,necklace,stool,80.0,20.0,necklace5,stool2,80.0,40.0,0.0,104.395,0.395,,,,,,
114,,confirmation,,html-keyboard-response,114,79640,0.0-1.0-21.0-0.0-1.0-0.0,0,0,85937,,,,,,19.0,,,,,,,,,,,,,,,,,,,,,,,,,,,,,,,,105.5,1.105,,,,,,
115,,isi,,html-keyboard-response,115,79746,0.0-1.0-21.0-0.0-2.0,0,0,85937,,,,,,,,,,,,,,,,,,,,,,,,,,,,,,,,,,,,,,107.5,2.0,,,,,,
116,,feedback,,html-keyboard-response,116,80753,0.0-1.0-21.0-0.0-3.0-0.0,0,0,85937,,,,,,19.0,,,,,,,,,,,,,,,,,,,,,,,,,,,,,,,,108.5,1.0,,,,,,
117,,iti,,html-keyboard-response,117,80856,0.0-1.0-21.0-0.0-5.0,0,0,85937,,,,,,,,,,,,,,,,,,,,,,,,,,,,,,,,,,,,,,111.5,3.0,,,,,,
118,,choice,,html-keyboard-response,118,80977,0.0-1.0-22.0-0.0-0.0,0,0,85937,,117.0,,,68.0,20.0,320.0,1000.0,1000.0,0.0,6.0,0.0,40-80,,1.0,power strip,door knob,80.0,40.0,power strip12,door knob6,60.0,20.0,41CXESEH1TL._AA262_.jpg,30fdcb17-b0fd-4f26-8cd8-11adde46fb79_4.jpg,/static/Category_learning/Stimuli/Experimental_stims/power strip/41CXESEH1TL._AA262_.jpg,/static/Category_learning/Stimuli/Experimental_stims/door knob/30fdcb17-b0fd-4f26-8cd8-11adde46fb79_4.jpg,1.0,power strip,door knob,80.0,40.0,power strip12,door knob6,60.0,20.0,0.0,111.617,0.117,,,,,,
119,,confirmation,,html-keyboard-response,119,82365,0.0-1.0-22.0-0.0-1.0-0.0,0,0,85937,,,,,,20.0,,,,,,,,,,,,,,,,,,,,,,,,,,,,,,,,113.0,1.383,,,,,,
120,,isi,,html-keyboard-response,120,82472,0.0-1.0-22.0-0.0-2.0,0,0,85937,,,,,,,,,,,,,,,,,,,,,,,,,,,,,,,,,,,,,,114.0,1.0,,,,,,
121,,feedback,,html-keyboard-response,121,83477,0.0-1.0-22.0-0.0-3.0-0.0,0,0,85937,,,,,,20.0,,,,,,,,,,,,,,,,,,,,,,,,,,,,,,,,115.0,1.0,,,,,,
122,,iti,,html-keyboard-response,122,83581,0.0-1.0-22.0-0.0-5.0,0,0,85937,,,,,,,,,,,,,,,,,,,,,,,,,,,,,,,,,,,,,,116.0,1.0,,,,,,
123,,choice,,html-keyboard-response,123,83638,0.0-1.0-23.0-0.0-0.0,0,0,85937,,54.0,,,68.0,21.0,321.0,2000.0,1000.0,0.0,6.0,1.0,20-40,0.0,,telescope,fan,20.0,40.0,telescope9,fan10,40.0,60.0,13TELESTAND.jpg,n_sf_1666.jpg,/static/Category_learning/Stimuli/Experimental_stims/telescope/13TELESTAND.jpg,/static/Category_learning/Stimuli/Experimental_stims/fan/n_sf_1666.jpg,1.0,telescope,fan,20.0,40.0,telescope9,fan10,40.0,60.0,0.0,116.054,0.054,,,,,,
124,,confirmation,,html-keyboard-response,124,85088,0.0-1.0-23.0-0.0-1.0-0.0,0,0,85937,,,,,,21.0,,,,,,,,,,,,,,,,,,,,,,,,,,,,,,,,117.5,1.446,,,,,,
125,,isi,,html-keyboard-response,125,85192,0.0-1.0-23.0-0.0-2.0,0,0,85937,,,,,,,,,,,,,,,,,,,,,,,,,,,,,,,,,,,,,,119.5,2.0,,,,,,
126,,feedback,,html-keyboard-response,126,86197,0.0-1.0-23.0-0.0-3.0-0.0,0,0,85937,,,,,,21.0,,,,,,,,,,,,,,,,,,,,,,,,,,,,,,,,120.5,1.0,,,,,,
127,,iti,,html-keyboard-response,127,86303,0.0-1.0-23.0-0.0-5.0,0,0,85937,,,,,,,,,,,,,,,,,,,,,,,,,,,,,,,,,,,,,,121.5,1.0,,,,,,
128,,choice,,html-keyboard-response,128,87810,0.0-1.0-24.0-0.0-0.0,0,0,85937,,,,,,22.0,322.0,1500.0,1000.0,0.0,6.0,0.0,40-60,,1.0,makeup compact,desk,60.0,40.0,makeup compact1,desk5,60.0,60.0,P190250_hero.jpg,ADESK6.jpg,/static/Category_learning/Stimuli/Experimental_stims/makeup compact/P190250_hero.jpg,/static/Category_learning/Stimuli/Experimental_stims/desk/ADESK6.jpg,,,,,,,,,,1.0,123.0,1.5,,,,,,
129,,isi,,html-keyboard-response,129,87917,0.0-1.0-24.0-0.0-2.0,0,0,85937,,,,,,,,,,,,,,,,,,,,,,,,,,,,,,,,,,,,,,124.5,1.5,,,,,,
130,,no_response,,html-keyboard-response,130,88920,0.0-1.0-24.0-0.0-4.0-0.0,1,0,85937,,,,,,,,,,,,,,,,,,,,,,,,,,,,,,,,,,,,,,125.5,1.0,,,,,,
131,,iti,,html-keyboard-response,131,89038,0.0-1.0-24.0-0.0-5.0,0,0,85937,,,,,,,,,,,,,,,,,,,,,,,,,,,,,,,,,,,,,,126.5,1.0,,,,,,
132,,choice,,html-keyboard-response,132,90544,0.0-1.0-24.0-0.1-0.1,0,0,85937,,,,,,22.0,322.0,1500.0,1000.0,0.0,6.0,0.0,40-60,,1.0,makeup compact,desk,60.0,40.0,makeup compact1,desk5,60.0,60.0,P190250_hero.jpg,ADESK6.jpg,/static/Category_learning/Stimuli/Experimental_stims/makeup compact/P190250_hero.jpg,/static/Category_learning/Stimuli/Experimental_stims/desk/ADESK6.jpg,,,,,,,,,,1.0,128.0,1.5,,,,,,
133,,isi,,html-keyboard-response,133,90649,0.0-1.0-24.0-0.1-2.1,0,0,85937,,,,,,,,,,,,,,,,,,,,,,,,,,,,,,,,,,,,,,129.0,1.0,,,,,,
134,,no_response,,html-keyboard-response,134,91656,0.0-1.0-24.0-0.1-4.1-0.1,1,0,85937,,,,,,,,,,,,,,,,,,,,,,,,,,,,,,,,,,,,,,130.0,1.0,,,,,,
135,,iti,,html-keyboard-response,135,91774,0.0-1.0-24.0-0.1-5.1,0,0,85937,,,,,,,,,,,,,,,,,,,,,,,,,,,,,,,,,,,,,,131.5,1.5,,,,,,
136,,choice,,html-keyboard-response,136,93281,0.0-1.0-24.0-0.2-0.2,0,0,85937,,,,,,22.0,322.0,1500.0,1000.0,0.0,6.0,0.0,40-60,,1.0,makeup compact,desk,60.0,40.0,makeup compact1,desk5,60.0,60.0,P190250_hero.jpg,ADESK6.jpg,/static/Category_learning/Stimuli/Experimental_stims/makeup compact/P190250_hero.jpg,/static/Category_learning/Stimuli/Experimental_stims/desk/ADESK6.jpg,,,,,,,,,,1.0,133.0,1.5,,,,,,
137,,isi,,html-keyboard-response,137,93386,0.0-1.0-24.0-0.2-2.2,0,0,85937,,,,,,,,,,,,,,,,,,,,,,,,,,,,,,,,,,,,,,135.0,2.0,,,,,,
138,,no_response,,html-keyboard-response,138,94388,0.0-1.0-24.0-0.2-4.2-0.2,1,0,85937,,,,,,,,,,,,,,,,,,,,,,,,,,,,,,,,,,,,,,136.0,1.0,,,,,,
139,,iti,,html-keyboard-response,139,94510,0.0-1.0-24.0-0.2-5.2,0,0,85937,,,,,,,,,,,,,,,,,,,,,,,,,,,,,,,,,,,,,,138.0,2.0,,,,,,
140,,choice,,html-keyboard-response,140,96013,0.0-1.0-24.0-0.3-0.3,0,0,85937,,,,,,22.0,322.0,1500.0,1000.0,0.0,6.0,0.0,40-60,,1.0,makeup compact,desk,60.0,40.0,makeup compact1,desk5,60.0,60.0,P190250_hero.jpg,ADESK6.jpg,/static/Category_learning/Stimuli/Experimental_stims/makeup compact/P190250_hero.jpg,/static/Category_learning/Stimuli/Experimental_stims/desk/ADESK6.jpg,,,,,,,,,,1.0,139.5,1.5,,,,,,
141,,isi,,html-keyboard-response,141,96120,0.0-1.0-24.0-0.3-2.3,0,0,85937,,,,,,,,,,,,,,,,,,,,,,,,,,,,,,,,,,,,,,140.5,1.0,,,,,,
142,,no_response,,html-keyboard-response,142,97126,0.0-1.0-24.0-0.3-4.3-0.3,1,0,85937,,,,,,,,,,,,,,,,,,,,,,,,,,,,,,,,,,,,,,141.5,1.0,,,,,,
143,,iti,,html-keyboard-response,143,97246,0.0-1.0-24.0-0.3-5.3,0,0,85937,,,,,,,,,,,,,,,,,,,,,,,,,,,,,,,,,,,,,,142.5,1.0,,,,,,
144,,choice,,html-keyboard-response,144,98753,0.0-1.0-24.0-0.4-0.4,0,0,85937,,,,,,22.0,322.0,1500.0,1000.0,0.0,6.0,0.0,40-60,,1.0,makeup compact,desk,60.0,40.0,makeup compact1,desk5,60.0,60.0,P190250_hero.jpg,ADESK6.jpg,/static/Category_learning/Stimuli/Experimental_stims/makeup compact/P190250_hero.jpg,/static/Category_learning/Stimuli/Experimental_stims/desk/ADESK6.jpg,,,,,,,,,,1.0,144.0,1.5,,,,,,
145,,isi,,html-keyboard-response,145,98859,0.0-1.0-24.0-0.4-2.4,0,0,85937,,,,,,,,,,,,,,,,,,,,,,,,,,,,,,,,,,,,,,145.5,1.5,,,,,,
146,,no_response,,html-keyboard-response,146,99864,0.0-1.0-24.0-0.4-4.4-0.4,1,0,85937,,,,,,,,,,,,,,,,,,,,,,,,,,,,,,,,,,,,,,146.5,1.0,,,,,,
147,,iti,,html-keyboard-response,147,99981,0.0-1.0-24.0-0.4-5.4,0,0,85937,,,,,,,,,,,,,,,,,,,,,,,,,,,,,,,,,,,,,,148.5,2.0,,,,,,
148,,choice,,html-keyboard-response,148,101489,0.0-1.0-24.0-0.5-0.5,0,0,85937,,,,,,22.0,322.0,1500.0,1000.0,0.0,6.0,0.0,40-60,,1.0,makeup compact,desk,60.0,40.0,makeup compact1,desk5,60.0,60.0,P190250_hero.jpg,ADESK6.jpg,/static/Category_learning/Stimuli/Experimental_stims/makeup compact/P190250_hero.jpg,/static/Category_learning/Stimuli/Experimental_stims/desk/ADESK6.jpg,,,,,,,,,,1.0,150.0,1.5,,,,,,
149,,isi,,html-keyboard-response,149,101592,0.0-1.0-24.0-0.5-2.5,0,0,85937,,,,,,,,,,,,,,,,,,,,,,,,,,,,,,,,,,,,,,152.0,2.0,,,,,,
150,,no_response,,html-keyboard-response,150,102595,0.0-1.0-24.0-0.5-4.5-0.5,1,0,85937,,,,,,,,,,,,,,,,,,,,,,,,,,,,,,,,,,,,,,153.0,1.0,,,,,,
151,,iti,,html-keyboard-response,151,102708,0.0-1.0-24.0-0.5-5.5,0,0,85937,,,,,,,,,,,,,,,,,,,,,,,,,,,,,,,,,,,,,,154.0,1.0,,,,,,
152,,choice,,html-keyboard-response,152,104216,0.0-1.0-24.0-0.6-0.6,0,0,85937,,,,,,22.0,322.0,1500.0,1000.0,0.0,6.0,0.0,40-60,,1.0,makeup compact,desk,60.0,40.0,makeup compact1,desk5,60.0,60.0,P190250_hero.jpg,ADESK6.jpg,/static/Category_learning/Stimuli/Experimental_stims/makeup compact/P190250_hero.jpg,/static/Category_learning/Stimuli/Experimental_stims/desk/ADESK6.jpg,,,,,,,,,,1.0,155.5,1.5,,,,,,
153,,isi,,html-keyboard-response,153,104323,0.0-1.0-24.0-0.6-2.6,0,0,85937,,,,,,,,,,,,,,,,,,,,,,,,,,,,,,,,,,,,,,157.0,1.5,,,,,,
154,,no_response,,html-keyboard-response,154,105330,0.0-1.0-24.0-0.6-4.6-0.6,1,0,85937,,,,,,,,,,,,,,,,,,,,,,,,,,,,,,,,,,,,,,158.0,1.0,,,,,,
155,,iti,,html-keyboard-response,155,105448,0.0-1.0-24.0-0.6-5.6,0,0,85937,,,,,,,,,,,,,,,,,,,,,,,,,,,,,,,,,,,,,,161.5,3.5,,,,,,
156,,choice,,html-keyboard-response,156,106953,0.0-1.0-24.0-0.7-0.7,0,0,85937,,,,,,22.0,322.0,1500.0,1000.0,0.0,6.0,0.0,40-60,,1.0,makeup compact,desk,60.0,40.0,makeup compact1,desk5,60.0,60.0,P190250_hero.jpg,ADESK6.jpg,/static/Category_learning/Stimuli/Experimental_stims/makeup compact/P190250_hero.jpg,/static/Category_learning/Stimuli/Experimental_stims/desk/ADESK6.jpg,,,,,,,,,,1.0,163.0,1.5,,,,,,
157,,isi,,html-keyboard-response,157,107059,0.0-1.0-24.0-0.7-2.7,0,0,85937,,,,,,,,,,,,,,,,,,,,,,,,,,,,,,,,,,,,,,164.5,1.5,,,,,,
158,,no_response,,html-keyboard-response,158,108067,0.0-1.0-24.0-0.7-4.7-0.7,1,0,85937,,,,,,,,,,,,,,,,,,,,,,,,,,,,,,,,,,,,,,165.5,1.0,,,,,,
159,,iti,,html-keyboard-response,159,108186,0.0-1.0-24.0-0.7-5.7,0,0,85937,,,,,,,,,,,,,,,,,,,,,,,,,,,,,,,,,,,,,,167.5,2.0,,,,,,
160,,choice,,html-keyboard-response,160,109694,0.0-1.0-24.0-0.8-0.8,0,0,85937,,,,,,22.0,322.0,1500.0,1000.0,0.0,6.0,0.0,40-60,,1.0,makeup compact,desk,60.0,40.0,makeup compact1,desk5,60.0,60.0,P190250_hero.jpg,ADESK6.jpg,/static/Category_learning/Stimuli/Experimental_stims/makeup compact/P190250_hero.jpg,/static/Category_learning/Stimuli/Experimental_stims/desk/ADESK6.jpg,,,,,,,,,,1.0,169.0,1.5,,,,,,
161,,isi,,html-keyboard-response,161,109800,0.0-1.0-24.0-0.8-2.8,0,0,85937,,,,,,,,,,,,,,,,,,,,,,,,,,,,,,,,,,,,,,170.0,1.0,,,,,,
162,,no_response,,html-keyboard-response,162,110803,0.0-1.0-24.0-0.8-4.8-0.8,1,0,85937,,,,,,,,,,,,,,,,,,,,,,,,,,,,,,,,,,,,,,171.0,1.0,,,,,,
163,,iti,,html-keyboard-response,163,110924,0.0-1.0-24.0-0.8-5.8,0,0,85937,,,,,,,,,,,,,,,,,,,,,,,,,,,,,,,,,,,,,,172.5,1.5,,,,,,
164,,choice,,html-keyboard-response,164,112429,0.0-1.0-24.0-0.9-0.9,0,0,85937,,,,,,22.0,322.0,1500.0,1000.0,0.0,6.0,0.0,40-60,,1.0,makeup compact,desk,60.0,40.0,makeup compact1,desk5,60.0,60.0,P190250_hero.jpg,ADESK6.jpg,/static/Category_learning/Stimuli/Experimental_stims/makeup compact/P190250_hero.jpg,/static/Category_learning/Stimuli/Experimental_stims/desk/ADESK6.jpg,,,,,,,,,,1.0,174.0,1.5,,,,,,
165,,isi,,html-keyboard-response,165,112536,0.0-1.0-24.0-0.9-2.9,0,0,85937,,,,,,,,,,,,,,,,,,,,,,,,,,,,,,,,,,,,,,175.0,1.0,,,,,,
166,,no_response,,html-keyboard-response,166,113539,0.0-1.0-24.0-0.9-4.9-0.9,1,0,85937,,,,,,,,,,,,,,,,,,,,,,,,,,,,,,,,,,,,,,176.0,1.0,,,,,,
167,,iti,,html-keyboard-response,167,113656,0.0-1.0-24.0-0.9-5.9,0,0,85937,,,,,,,,,,,,,,,,,,,,,,,,,,,,,,,,,,,,,,177.5,1.5,,,,,,
168,,choice,,html-keyboard-response,168,115159,0.0-1.0-24.0-0.10-0.10,0,0,85937,,,,,,22.0,322.0,1500.0,1000.0,0.0,6.0,0.0,40-60,,1.0,makeup compact,desk,60.0,40.0,makeup compact1,desk5,60.0,60.0,P190250_hero.jpg,ADESK6.jpg,/static/Category_learning/Stimuli/Experimental_stims/makeup compact/P190250_hero.jpg,/static/Category_learning/Stimuli/Experimental_stims/desk/ADESK6.jpg,,,,,,,,,,1.0,179.0,1.5,,,,,,
169,,isi,,html-keyboard-response,169,115267,0.0-1.0-24.0-0.10-2.10,0,0,85937,,,,,,,,,,,,,,,,,,,,,,,,,,,,,,,,,,,,,,181.0,2.0,,,,,,
170,,no_response,,html-keyboard-response,170,116270,0.0-1.0-24.0-0.10-4.10-0.10,1,0,85937,,,,,,,,,,,,,,,,,,,,,,,,,,,,,,,,,,,,,,182.0,1.0,,,,,,
171,,iti,,html-keyboard-response,171,116390,0.0-1.0-24.0-0.10-5.10,0,0,85937,,,,,,,,,,,,,,,,,,,,,,,,,,,,,,,,,,,,,,183.0,1.0,,,,,,
172,,choice,,html-keyboard-response,172,117896,0.0-1.0-24.0-0.11-0.11,0,0,85937,,,,,,22.0,322.0,1500.0,1000.0,0.0,6.0,0.0,40-60,,1.0,makeup compact,desk,60.0,40.0,makeup compact1,desk5,60.0,60.0,P190250_hero.jpg,ADESK6.jpg,/static/Category_learning/Stimuli/Experimental_stims/makeup compact/P190250_hero.jpg,/static/Category_learning/Stimuli/Experimental_stims/desk/ADESK6.jpg,,,,,,,,,,1.0,184.5,1.5,,,,,,
173,,isi,,html-keyboard-response,173,118003,0.0-1.0-24.0-0.11-2.11,0,0,85937,,,,,,,,,,,,,,,,,,,,,,,,,,,,,,,,,,,,,,185.5,1.0,,,,,,
174,,no_response,,html-keyboard-response,174,119008,0.0-1.0-24.0-0.11-4.11-0.11,1,0,85937,,,,,,,,,,,,,,,,,,,,,,,,,,,,,,,,,,,,,,186.5,1.0,,,,,,
175,,iti,,html-keyboard-response,175,119128,0.0-1.0-24.0-0.11-5.11,0,0,85937,,,,,,,,,,,,,,,,,,,,,,,,,,,,,,,,,,,,,,190.0,3.5,,,,,,
176,,choice,,html-keyboard-response,176,120637,0.0-1.0-24.0-0.12-0.12,0,0,85937,,,,,,22.0,322.0,1500.0,1000.0,0.0,6.0,0.0,40-60,,1.0,makeup compact,desk,60.0,40.0,makeup compact1,desk5,60.0,60.0,P190250_hero.jpg,ADESK6.jpg,/static/Category_learning/Stimuli/Experimental_stims/makeup compact/P190250_hero.jpg,/static/Category_learning/Stimuli/Experimental_stims/desk/ADESK6.jpg,,,,,,,,,,1.0,191.5,1.5,,,,,,
177,,isi,,html-keyboard-response,177,120744,0.0-1.0-24.0-0.12-2.12,0,0,85937,,,,,,,,,,,,,,,,,,,,,,,,,,,,,,,,,,,,,,192.5,1.0,,,,,,
178,,no_response,,html-keyboard-response,178,121751,0.0-1.0-24.0-0.12-4.12-0.12,1,0,85937,,,,,,,,,,,,,,,,,,,,,,,,,,,,,,,,,,,,,,193.5,1.0,,,,,,
179,,iti,,html-keyboard-response,179,121867,0.0-1.0-24.0-0.12-5.12,0,0,85937,,,,,,,,,,,,,,,,,,,,,,,,,,,,,,,,,,,,,,194.5,1.0,,,,,,
180,,choice,,html-keyboard-response,180,123373,0.0-1.0-24.0-0.13-0.13,0,0,85937,,,,,,22.0,322.0,1500.0,1000.0,0.0,6.0,0.0,40-60,,1.0,makeup compact,desk,60.0,40.0,makeup compact1,desk5,60.0,60.0,P190250_hero.jpg,ADESK6.jpg,/static/Category_learning/Stimuli/Experimental_stims/makeup compact/P190250_hero.jpg,/static/Category_learning/Stimuli/Experimental_stims/desk/ADESK6.jpg,,,,,,,,,,1.0,196.0,1.5,,,,,,
181,,isi,,html-keyboard-response,181,123480,0.0-1.0-24.0-0.13-2.13,0,0,85937,,,,,,,,,,,,,,,,,,,,,,,,,,,,,,,,,,,,,,197.0,1.0,,,,,,
182,,no_response,,html-keyboard-response,182,124486,0.0-1.0-24.0-0.13-4.13-0.13,1,0,85937,,,,,,,,,,,,,,,,,,,,,,,,,,,,,,,,,,,,,,198.0,1.0,,,,,,
183,,iti,,html-keyboard-response,183,124606,0.0-1.0-24.0-0.13-5.13,0,0,85937,,,,,,,,,,,,,,,,,,,,,,,,,,,,,,,,,,,,,,199.0,1.0,,,,,,
184,,choice,,html-keyboard-response,184,126114,0.0-1.0-24.0-0.14-0.14,0,0,85937,,,,,,22.0,322.0,1500.0,1000.0,0.0,6.0,0.0,40-60,,1.0,makeup compact,desk,60.0,40.0,makeup compact1,desk5,60.0,60.0,P190250_hero.jpg,ADESK6.jpg,/static/Category_learning/Stimuli/Experimental_stims/makeup compact/P190250_hero.jpg,/static/Category_learning/Stimuli/Experimental_stims/desk/ADESK6.jpg,,,,,,,,,,1.0,200.5,1.5,,,,,,
185,,isi,,html-keyboard-response,185,126220,0.0-1.0-24.0-0.14-2.14,0,0,85937,,,,,,,,,,,,,,,,,,,,,,,,,,,,,,,,,,,,,,202.5,2.0,,,,,,
186,,no_response,,html-keyboard-response,186,127227,0.0-1.0-24.0-0.14-4.14-0.14,1,0,85937,,,,,,,,,,,,,,,,,,,,,,,,,,,,,,,,,,,,,,203.5,1.0,,,,,,
187,,iti,,html-keyboard-response,187,127342,0.0-1.0-24.0-0.14-5.14,0,0,85937,,,,,,,,,,,,,,,,,,,,,,,,,,,,,,,,,,,,,,205.0,1.5,,,,,,
188,,choice,,html-keyboard-response,188,128850,0.0-1.0-24.0-0.15-0.15,0,0,85937,,,,,,22.0,322.0,1500.0,1000.0,0.0,6.0,0.0,40-60,,1.0,makeup compact,desk,60.0,40.0,makeup compact1,desk5,60.0,60.0,P190250_hero.jpg,ADESK6.jpg,/static/Category_learning/Stimuli/Experimental_stims/makeup compact/P190250_hero.jpg,/static/Category_learning/Stimuli/Experimental_stims/desk/ADESK6.jpg,,,,,,,,,,1.0,206.5,1.5,,,,,,
189,,isi,,html-keyboard-response,189,128957,0.0-1.0-24.0-0.15-2.15,0,0,85937,,,,,,,,,,,,,,,,,,,,,,,,,,,,,,,,,,,,,,208.0,1.5,,,,,,
190,,no_response,,html-keyboard-response,190,129961,0.0-1.0-24.0-0.15-4.15-0.15,1,0,85937,,,,,,,,,,,,,,,,,,,,,,,,,,,,,,,,,,,,,,209.0,1.0,,,,,,
191,,iti,,html-keyboard-response,191,130077,0.0-1.0-24.0-0.15-5.15,0,0,85937,,,,,,,,,,,,,,,,,,,,,,,,,,,,,,,,,,,,,,210.5,1.5,,,,,,
192,,choice,,html-keyboard-response,192,131582,0.0-1.0-24.0-0.16-0.16,0,0,85937,,,,,,22.0,322.0,1500.0,1000.0,0.0,6.0,0.0,40-60,,1.0,makeup compact,desk,60.0,40.0,makeup compact1,desk5,60.0,60.0,P190250_hero.jpg,ADESK6.jpg,/static/Category_learning/Stimuli/Experimental_stims/makeup compact/P190250_hero.jpg,/static/Category_learning/Stimuli/Experimental_stims/desk/ADESK6.jpg,,,,,,,,,,1.0,212.0,1.5,,,,,,
193,,isi,,html-keyboard-response,193,131688,0.0-1.0-24.0-0.16-2.16,0,0,85937,,,,,,,,,,,,,,,,,,,,,,,,,,,,,,,,,,,,,,213.5,1.5,,,,,,
194,,no_response,,html-keyboard-response,194,132691,0.0-1.0-24.0-0.16-4.16-0.16,1,0,85937,,,,,,,,,,,,,,,,,,,,,,,,,,,,,,,,,,,,,,214.5,1.0,,,,,,
195,,iti,,html-keyboard-response,195,132808,0.0-1.0-24.0-0.16-5.16,0,0,85937,,,,,,,,,,,,,,,,,,,,,,,,,,,,,,,,,,,,,,215.5,1.0,,,,,,
196,,choice,,html-keyboard-response,196,134313,0.0-1.0-24.0-0.17-0.17,0,0,85937,,,,,,22.0,322.0,1500.0,1000.0,0.0,6.0,0.0,40-60,,1.0,makeup compact,desk,60.0,40.0,makeup compact1,desk5,60.0,60.0,P190250_hero.jpg,ADESK6.jpg,/static/Category_learning/Stimuli/Experimental_stims/makeup compact/P190250_hero.jpg,/static/Category_learning/Stimuli/Experimental_stims/desk/ADESK6.jpg,,,,,,,,,,1.0,217.0,1.5,,,,,,
197,,isi,,html-keyboard-response,197,134420,0.0-1.0-24.0-0.17-2.17,0,0,85937,,,,,,,,,,,,,,,,,,,,,,,,,,,,,,,,,,,,,,219.0,2.0,,,,,,
198,,no_response,,html-keyboard-response,198,135426,0.0-1.0-24.0-0.17-4.17-0.17,1,0,85937,,,,,,,,,,,,,,,,,,,,,,,,,,,,,,,,,,,,,,220.0,1.0,,,,,,
199,,iti,,html-keyboard-response,199,135547,0.0-1.0-24.0-0.17-5.17,0,0,85937,,,,,,,,,,,,,,,,,,,,,,,,,,,,,,,,,,,,,,222.0,2.0,,,,,,
200,,choice,,html-keyboard-response,200,137053,0.0-1.0-24.0-0.18-0.18,0,0,85937,,,,,,22.0,322.0,1500.0,1000.0,0.0,6.0,0.0,40-60,,1.0,makeup compact,desk,60.0,40.0,makeup compact1,desk5,60.0,60.0,P190250_hero.jpg,ADESK6.jpg,/static/Category_learning/Stimuli/Experimental_stims/makeup compact/P190250_hero.jpg,/static/Category_learning/Stimuli/Experimental_stims/desk/ADESK6.jpg,,,,,,,,,,1.0,223.5,1.5,,,,,,
201,,isi,,html-keyboard-response,201,137160,0.0-1.0-24.0-0.18-2.18,0,0,85937,,,,,,,,,,,,,,,,,,,,,,,,,,,,,,,,,,,,,,224.5,1.0,,,,,,
202,,no_response,,html-keyboard-response,202,138166,0.0-1.0-24.0-0.18-4.18-0.18,1,0,85937,,,,,,,,,,,,,,,,,,,,,,,,,,,,,,,,,,,,,,225.5,1.0,,,,,,
203,,iti,,html-keyboard-response,203,138286,0.0-1.0-24.0-0.18-5.18,0,0,85937,,,,,,,,,,,,,,,,,,,,,,,,,,,,,,,,,,,,,,227.0,1.5,,,,,,
204,,choice,,html-keyboard-response,204,139789,0.0-1.0-24.0-0.19-0.19,0,0,85937,,,,,,22.0,322.0,1500.0,1000.0,0.0,6.0,0.0,40-60,,1.0,makeup compact,desk,60.0,40.0,makeup compact1,desk5,60.0,60.0,P190250_hero.jpg,ADESK6.jpg,/static/Category_learning/Stimuli/Experimental_stims/makeup compact/P190250_hero.jpg,/static/Category_learning/Stimuli/Experimental_stims/desk/ADESK6.jpg,,,,,,,,,,1.0,228.5,1.5,,,,,,
205,,isi,,html-keyboard-response,205,139896,0.0-1.0-24.0-0.19-2.19,0,0,85937,,,,,,,,,,,,,,,,,,,,,,,,,,,,,,,,,,,,,,229.5,1.0,,,,,,
206,,no_response,,html-keyboard-response,206,140903,0.0-1.0-24.0-0.19-4.19-0.19,1,0,85937,,,,,,,,,,,,,,,,,,,,,,,,,,,,,,,,,,,,,,230.5,1.0,,,,,,
207,,iti,,html-keyboard-response,207,141020,0.0-1.0-24.0-0.19-5.19,0,0,85937,,,,,,,,,,,,,,,,,,,,,,,,,,,,,,,,,,,,,,232.0,1.5,,,,,,
208,,choice,,html-keyboard-response,208,142525,0.0-1.0-24.0-0.20-0.20,0,0,85937,,,,,,22.0,322.0,1500.0,1000.0,0.0,6.0,0.0,40-60,,1.0,makeup compact,desk,60.0,40.0,makeup compact1,desk5,60.0,60.0,P190250_hero.jpg,ADESK6.jpg,/static/Category_learning/Stimuli/Experimental_stims/makeup compact/P190250_hero.jpg,/static/Category_learning/Stimuli/Experimental_stims/desk/ADESK6.jpg,,,,,,,,,,1.0,233.5,1.5,,,,,,
209,,isi,,html-keyboard-response,209,142630,0.0-1.0-24.0-0.20-2.20,0,0,85937,,,,,,,,,,,,,,,,,,,,,,,,,,,,,,,,,,,,,,235.5,2.0,,,,,,
210,,no_response,,html-keyboard-response,210,143637,0.0-1.0-24.0-0.20-4.20-0.20,1,0,85937,,,,,,,,,,,,,,,,,,,,,,,,,,,,,,,,,,,,,,236.5,1.0,,,,,,
211,,iti,,html-keyboard-response,211,143754,0.0-1.0-24.0-0.20-5.20,0,0,85937,,,,,,,,,,,,,,,,,,,,,,,,,,,,,,,,,,,,,,237.5,1.0,,,,,,
212,,choice,,html-keyboard-response,212,145262,0.0-1.0-24.0-0.21-0.21,0,0,85937,,,,,,22.0,322.0,1500.0,1000.0,0.0,6.0,0.0,40-60,,1.0,makeup compact,desk,60.0,40.0,makeup compact1,desk5,60.0,60.0,P190250_hero.jpg,ADESK6.jpg,/static/Category_learning/Stimuli/Experimental_stims/makeup compact/P190250_hero.jpg,/static/Category_learning/Stimuli/Experimental_stims/desk/ADESK6.jpg,,,,,,,,,,1.0,239.0,1.5,,,,,,
213,,isi,,html-keyboard-response,213,145369,0.0-1.0-24.0-0.21-2.21,0,0,85937,,,,,,,,,,,,,,,,,,,,,,,,,,,,,,,,,,,,,,240.0,1.0,,,,,,
214,,no_response,,html-keyboard-response,214,146376,0.0-1.0-24.0-0.21-4.21-0.21,1,0,85937,,,,,,,,,,,,,,,,,,,,,,,,,,,,,,,,,,,,,,241.0,1.0,,,,,,
215,,iti,,html-keyboard-response,215,146488,0.0-1.0-24.0-0.21-5.21,0,0,85937,,,,,,,,,,,,,,,,,,,,,,,,,,,,,,,,,,,,,,244.0,3.0,,,,,,
216,,choice,,html-keyboard-response,216,147992,0.0-1.0-24.0-0.22-0.22,0,0,85937,,,,,,22.0,322.0,1500.0,1000.0,0.0,6.0,0.0,40-60,,1.0,makeup compact,desk,60.0,40.0,makeup compact1,desk5,60.0,60.0,P190250_hero.jpg,ADESK6.jpg,/static/Category_learning/Stimuli/Experimental_stims/makeup compact/P190250_hero.jpg,/static/Category_learning/Stimuli/Experimental_stims/desk/ADESK6.jpg,,,,,,,,,,1.0,245.5,1.5,,,,,,
217,,isi,,html-keyboard-response,217,148098,0.0-1.0-24.0-0.22-2.22,0,0,85937,,,,,,,,,,,,,,,,,,,,,,,,,,,,,,,,,,,,,,246.5,1.0,,,,,,
218,,no_response,,html-keyboard-response,218,149104,0.0-1.0-24.0-0.22-4.22-0.22,1,0,85937,,,,,,,,,,,,,,,,,,,,,,,,,,,,,,,,,,,,,,247.5,1.0,,,,,,
219,,iti,,html-keyboard-response,219,149220,0.0-1.0-24.0-0.22-5.22,0,0,85937,,,,,,,,,,,,,,,,,,,,,,,,,,,,,,,,,,,,,,249.0,1.5,,,,,,
220,,choice,,html-keyboard-response,220,150728,0.0-1.0-24.0-0.23-0.23,0,0,85937,,,,,,22.0,322.0,1500.0,1000.0,0.0,6.0,0.0,40-60,,1.0,makeup compact,desk,60.0,40.0,makeup compact1,desk5,60.0,60.0,P190250_hero.jpg,ADESK6.jpg,/static/Category_learning/Stimuli/Experimental_stims/makeup compact/P190250_hero.jpg,/static/Category_learning/Stimuli/Experimental_stims/desk/ADESK6.jpg,,,,,,,,,,1.0,250.5,1.5,,,,,,
221,,isi,,html-keyboard-response,221,150835,0.0-1.0-24.0-0.23-2.23,0,0,85937,,,,,,,,,,,,,,,,,,,,,,,,,,,,,,,,,,,,,,252.0,1.5,,,,,,
222,,no_response,,html-keyboard-response,222,151841,0.0-1.0-24.0-0.23-4.23-0.23,1,0,85937,,,,,,,,,,,,,,,,,,,,,,,,,,,,,,,,,,,,,,253.0,1.0,,,,,,
223,,iti,,html-keyboard-response,223,151960,0.0-1.0-24.0-0.23-5.23,0,0,85937,,,,,,,,,,,,,,,,,,,,,,,,,,,,,,,,,,,,,,255.0,2.0,,,,,,
224,,choice,,html-keyboard-response,224,153464,0.0-1.0-24.0-0.24-0.24,0,0,85937,,,,,,22.0,322.0,1500.0,1000.0,0.0,6.0,0.0,40-60,,1.0,makeup compact,desk,60.0,40.0,makeup compact1,desk5,60.0,60.0,P190250_hero.jpg,ADESK6.jpg,/static/Category_learning/Stimuli/Experimental_stims/makeup compact/P190250_hero.jpg,/static/Category_learning/Stimuli/Experimental_stims/desk/ADESK6.jpg,,,,,,,,,,1.0,256.5,1.5,,,,,,
225,,isi,,html-keyboard-response,225,153571,0.0-1.0-24.0-0.24-2.24,0,0,85937,,,,,,,,,,,,,,,,,,,,,,,,,,,,,,,,,,,,,,260.0,3.5,,,,,,
226,,no_response,,html-keyboard-response,226,154578,0.0-1.0-24.0-0.24-4.24-0.24,1,0,85937,,,,,,,,,,,,,,,,,,,,,,,,,,,,,,,,,,,,,,261.0,1.0,,,,,,
227,,iti,,html-keyboard-response,227,154696,0.0-1.0-24.0-0.24-5.24,0,0,85937,,,,,,,,,,,,,,,,,,,,,,,,,,,,,,,,,,,,,,263.0,2.0,,,,,,
228,,choice,,html-keyboard-response,228,156203,0.0-1.0-24.0-0.25-0.25,0,0,85937,,,,,,22.0,322.0,1500.0,1000.0,0.0,6.0,0.0,40-60,,1.0,makeup compact,desk,60.0,40.0,makeup compact1,desk5,60.0,60.0,P190250_hero.jpg,ADESK6.jpg,/static/Category_learning/Stimuli/Experimental_stims/makeup compact/P190250_hero.jpg,/static/Category_learning/Stimuli/Experimental_stims/desk/ADESK6.jpg,,,,,,,,,,1.0,264.5,1.5,,,,,,
229,,isi,,html-keyboard-response,229,156308,0.0-1.0-24.0-0.25-2.25,0,0,85937,,,,,,,,,,,,,,,,,,,,,,,,,,,,,,,,,,,,,,265.5,1.0,,,,,,
230,,no_response,,html-keyboard-response,230,157314,0.0-1.0-24.0-0.25-4.25-0.25,1,0,85937,,,,,,,,,,,,,,,,,,,,,,,,,,,,,,,,,,,,,,266.5,1.0,,,,,,
231,,iti,,html-keyboard-response,231,157431,0.0-1.0-24.0-0.25-5.25,0,0,85937,,,,,,,,,,,,,,,,,,,,,,,,,,,,,,,,,,,,,,268.5,2.0,,,,,,
232,,choice,,html-keyboard-response,232,158937,0.0-1.0-24.0-0.26-0.26,0,0,85937,,,,,,22.0,322.0,1500.0,1000.0,0.0,6.0,0.0,40-60,,1.0,makeup compact,desk,60.0,40.0,makeup compact1,desk5,60.0,60.0,P190250_hero.jpg,ADESK6.jpg,/static/Category_learning/Stimuli/Experimental_stims/makeup compact/P190250_hero.jpg,/static/Category_learning/Stimuli/Experimental_stims/desk/ADESK6.jpg,,,,,,,,,,1.0,270.0,1.5,,,,,,
233,,isi,,html-keyboard-response,233,159043,0.0-1.0-24.0-0.26-2.26,0,0,85937,,,,,,,,,,,,,,,,,,,,,,,,,,,,,,,,,,,,,,272.0,2.0,,,,,,
234,,no_response,,html-keyboard-response,234,160046,0.0-1.0-24.0-0.26-4.26-0.26,1,0,85937,,,,,,,,,,,,,,,,,,,,,,,,,,,,,,,,,,,,,,273.0,1.0,,,,,,
235,,iti,,html-keyboard-response,235,160165,0.0-1.0-24.0-0.26-5.26,0,0,85937,,,,,,,,,,,,,,,,,,,,,,,,,,,,,,,,,,,,,,274.5,1.5,,,,,,
236,,choice,,html-keyboard-response,236,161672,0.0-1.0-24.0-0.27-0.27,0,0,85937,,,,,,22.0,322.0,1500.0,1000.0,0.0,6.0,0.0,40-60,,1.0,makeup compact,desk,60.0,40.0,makeup compact1,desk5,60.0,60.0,P190250_hero.jpg,ADESK6.jpg,/static/Category_learning/Stimuli/Experimental_stims/makeup compact/P190250_hero.jpg,/static/Category_learning/Stimuli/Experimental_stims/desk/ADESK6.jpg,,,,,,,,,,1.0,276.0,1.5,,,,,,
237,,isi,,html-keyboard-response,237,161779,0.0-1.0-24.0-0.27-2.27,0,0,85937,,,,,,,,,,,,,,,,,,,,,,,,,,,,,,,,,,,,,,277.5,1.5,,,,,,
238,,no_response,,html-keyboard-response,238,162784,0.0-1.0-24.0-0.27-4.27-0.27,1,0,85937,,,,,,,,,,,,,,,,,,,,,,,,,,,,,,,,,,,,,,278.5,1.0,,,,,,
239,,iti,,html-keyboard-response,239,162904,0.0-1.0-24.0-0.27-5.27,0,0,85937,,,,,,,,,,,,,,,,,,,,,,,,,,,,,,,,,,,,,,279.5,1.0,,,,,,
240,,choice,,html-keyboard-response,240,164408,0.0-1.0-24.0-0.28-0.28,0,0,85937,,,,,,22.0,322.0,1500.0,1000.0,0.0,6.0,0.0,40-60,,1.0,makeup compact,desk,60.0,40.0,makeup compact1,desk5,60.0,60.0,P190250_hero.jpg,ADESK6.jpg,/static/Category_learning/Stimuli/Experimental_stims/makeup compact/P190250_hero.jpg,/static/Category_learning/Stimuli/Experimental_stims/desk/ADESK6.jpg,,,,,,,,,,1.0,281.0,1.5,,,,,,
241,,isi,,html-keyboard-response,241,164511,0.0-1.0-24.0-0.28-2.28,0,0,85937,,,,,,,,,,,,,,,,,,,,,,,,,,,,,,,,,,,,,,282.0,1.0,,,,,,
242,,no_response,,html-keyboard-response,242,165517,0.0-1.0-24.0-0.28-4.28-0.28,1,0,85937,,,,,,,,,,,,,,,,,,,,,,,,,,,,,,,,,,,,,,283.0,1.0,,,,,,
243,,iti,,html-keyboard-response,243,165637,0.0-1.0-24.0-0.28-5.28,0,0,85937,,,,,,,,,,,,,,,,,,,,,,,,,,,,,,,,,,,,,,286.0,3.0,,,,,,
244,,choice,,html-keyboard-response,244,167144,0.0-1.0-24.0-0.29-0.29,0,0,85937,,,,,,22.0,322.0,1500.0,1000.0,0.0,6.0,0.0,40-60,,1.0,makeup compact,desk,60.0,40.0,makeup compact1,desk5,60.0,60.0,P190250_hero.jpg,ADESK6.jpg,/static/Category_learning/Stimuli/Experimental_stims/makeup compact/P190250_hero.jpg,/static/Category_learning/Stimuli/Experimental_stims/desk/ADESK6.jpg,,,,,,,,,,1.0,287.5,1.5,,,,,,
245,,isi,,html-keyboard-response,245,167250,0.0-1.0-24.0-0.29-2.29,0,0,85937,,,,,,,,,,,,,,,,,,,,,,,,,,,,,,,,,,,,,,288.5,1.0,,,,,,
246,,no_response,,html-keyboard-response,246,168257,0.0-1.0-24.0-0.29-4.29-0.29,1,0,85937,,,,,,,,,,,,,,,,,,,,,,,,,,,,,,,,,,,,,,289.5,1.0,,,,,,
247,,iti,,html-keyboard-response,247,168371,0.0-1.0-24.0-0.29-5.29,0,0,85937,,,,,,,,,,,,,,,,,,,,,,,,,,,,,,,,,,,,,,291.5,2.0,,,,,,
248,,choice,,html-keyboard-response,248,169875,0.0-1.0-24.0-0.30-0.30,0,0,85937,,,,,,22.0,322.0,1500.0,1000.0,0.0,6.0,0.0,40-60,,1.0,makeup compact,desk,60.0,40.0,makeup compact1,desk5,60.0,60.0,P190250_hero.jpg,ADESK6.jpg,/static/Category_learning/Stimuli/Experimental_stims/makeup compact/P190250_hero.jpg,/static/Category_learning/Stimuli/Experimental_stims/desk/ADESK6.jpg,,,,,,,,,,1.0,293.0,1.5,,,,,,
249,,isi,,html-keyboard-response,249,169981,0.0-1.0-24.0-0.30-2.30,0,0,85937,,,,,,,,,,,,,,,,,,,,,,,,,,,,,,,,,,,,,,294.5,1.5,,,,,,
250,,no_response,,html-keyboard-response,250,170987,0.0-1.0-24.0-0.30-4.30-0.30,1,0,85937,,,,,,,,,,,,,,,,,,,,,,,,,,,,,,,,,,,,,,295.5,1.0,,,,,,
251,,iti,,html-keyboard-response,251,171105,0.0-1.0-24.0-0.30-5.30,0,0,85937,,,,,,,,,,,,,,,,,,,,,,,,,,,,,,,,,,,,,,296.5,1.0,,,,,,
252,,choice,,html-keyboard-response,252,172611,0.0-1.0-24.0-0.31-0.31,0,0,85937,,,,,,22.0,322.0,1500.0,1000.0,0.0,6.0,0.0,40-60,,1.0,makeup compact,desk,60.0,40.0,makeup compact1,desk5,60.0,60.0,P190250_hero.jpg,ADESK6.jpg,/static/Category_learning/Stimuli/Experimental_stims/makeup compact/P190250_hero.jpg,/static/Category_learning/Stimuli/Experimental_stims/desk/ADESK6.jpg,,,,,,,,,,1.0,298.0,1.5,,,,,,
253,,isi,,html-keyboard-response,253,172717,0.0-1.0-24.0-0.31-2.31,0,0,85937,,,,,,,,,,,,,,,,,,,,,,,,,,,,,,,,,,,,,,299.0,1.0,,,,,,
254,,no_response,,html-keyboard-response,254,173723,0.0-1.0-24.0-0.31-4.31-0.31,1,0,85937,,,,,,,,,,,,,,,,,,,,,,,,,,,,,,,,,,,,,,300.0,1.0,,,,,,
255,,iti,,html-keyboard-response,255,173839,0.0-1.0-24.0-0.31-5.31,0,0,85937,,,,,,,,,,,,,,,,,,,,,,,,,,,,,,,,,,,,,,303.5,3.5,,,,,,
256,,choice,,html-keyboard-response,256,175347,0.0-1.0-24.0-0.32-0.32,0,0,85937,,,,,,22.0,322.0,1500.0,1000.0,0.0,6.0,0.0,40-60,,1.0,makeup compact,desk,60.0,40.0,makeup compact1,desk5,60.0,60.0,P190250_hero.jpg,ADESK6.jpg,/static/Category_learning/Stimuli/Experimental_stims/makeup compact/P190250_hero.jpg,/static/Category_learning/Stimuli/Experimental_stims/desk/ADESK6.jpg,,,,,,,,,,1.0,305.0,1.5,,,,,,
257,,isi,,html-keyboard-response,257,175454,0.0-1.0-24.0-0.32-2.32,0,0,85937,,,,,,,,,,,,,,,,,,,,,,,,,,,,,,,,,,,,,,306.5,1.5,,,,,,
258,,no_response,,html-keyboard-response,258,176457,0.0-1.0-24.0-0.32-4.32-0.32,1,0,85937,,,,,,,,,,,,,,,,,,,,,,,,,,,,,,,,,,,,,,307.5,1.0,,,,,,
259,,iti,,html-keyboard-response,259,176574,0.0-1.0-24.0-0.32-5.32,0,0,85937,,,,,,,,,,,,,,,,,,,,,,,,,,,,,,,,,,,,,,308.5,1.0,,,,,,
260,,choice,,html-keyboard-response,260,178078,0.0-1.0-24.0-0.33-0.33,0,0,85937,,,,,,22.0,322.0,1500.0,1000.0,0.0,6.0,0.0,40-60,,1.0,makeup compact,desk,60.0,40.0,makeup compact1,desk5,60.0,60.0,P190250_hero.jpg,ADESK6.jpg,/static/Category_learning/Stimuli/Experimental_stims/makeup compact/P190250_hero.jpg,/static/Category_learning/Stimuli/Experimental_stims/desk/ADESK6.jpg,,,,,,,,,,1.0,310.0,1.5,,,,,,
261,,isi,,html-keyboard-response,261,178184,0.0-1.0-24.0-0.33-2.33,0,0,85937,,,,,,,,,,,,,,,,,,,,,,,,,,,,,,,,,,,,,,312.0,2.0,,,,,,
262,,no_response,,html-keyboard-response,262,179188,0.0-1.0-24.0-0.33-4.33-0.33,1,0,85937,,,,,,,,,,,,,,,,,,,,,,,,,,,,,,,,,,,,,,313.0,1.0,,,,,,
263,,iti,,html-keyboard-response,263,179318,0.0-1.0-24.0-0.33-5.33,0,0,85937,,,,,,,,,,,,,,,,,,,,,,,,,,,,,,,,,,,,,,314.0,1.0,,,,,,
264,,choice,,html-keyboard-response,264,180825,0.0-1.0-24.0-0.34-0.34,0,0,85937,,,,,,22.0,322.0,1500.0,1000.0,0.0,6.0,0.0,40-60,,1.0,makeup compact,desk,60.0,40.0,makeup compact1,desk5,60.0,60.0,P190250_hero.jpg,ADESK6.jpg,/static/Category_learning/Stimuli/Experimental_stims/makeup compact/P190250_hero.jpg,/static/Category_learning/Stimuli/Experimental_stims/desk/ADESK6.jpg,,,,,,,,,,1.0,315.5,1.5,,,,,,
265,,isi,,html-keyboard-response,265,180931,0.0-1.0-24.0-0.34-2.34,0,0,85937,,,,,,,,,,,,,,,,,,,,,,,,,,,,,,,,,,,,,,317.0,1.5,,,,,,
266,,no_response,,html-keyboard-response,266,181936,0.0-1.0-24.0-0.34-4.34-0.34,1,0,85937,,,,,,,,,,,,,,,,,,,,,,,,,,,,,,,,,,,,,,318.0,1.0,,,,,,
267,,iti,,html-keyboard-response,267,182051,0.0-1.0-24.0-0.34-5.34,0,0,85937,,,,,,,,,,,,,,,,,,,,,,,,,,,,,,,,,,,,,,319.0,1.0,,,,,,
268,,choice,,html-keyboard-response,268,183557,0.0-1.0-24.0-0.35-0.35,0,0,85937,,,,,,22.0,322.0,1500.0,1000.0,0.0,6.0,0.0,40-60,,1.0,makeup compact,desk,60.0,40.0,makeup compact1,desk5,60.0,60.0,P190250_hero.jpg,ADESK6.jpg,/static/Category_learning/Stimuli/Experimental_stims/makeup compact/P190250_hero.jpg,/static/Category_learning/Stimuli/Experimental_stims/desk/ADESK6.jpg,,,,,,,,,,1.0,320.5,1.5,,,,,,
269,,isi,,html-keyboard-response,269,183662,0.0-1.0-24.0-0.35-2.35,0,0,85937,,,,,,,,,,,,,,,,,,,,,,,,,,,,,,,,,,,,,,324.0,3.5,,,,,,
270,,no_response,,html-keyboard-response,270,184669,0.0-1.0-24.0-0.35-4.35-0.35,1,0,85937,,,,,,,,,,,,,,,,,,,,,,,,,,,,,,,,,,,,,,325.0,1.0,,,,,,
271,,iti,,html-keyboard-response,271,184784,0.0-1.0-24.0-0.35-5.35,0,0,85937,,,,,,,,,,,,,,,,,,,,,,,,,,,,,,,,,,,,,,326.5,1.5,,,,,,
272,,choice,,html-keyboard-response,272,185057,0.0-1.0-24.0-0.36-0.36,0,0,85937,,270.0,,,68.0,22.0,322.0,1500.0,1000.0,0.0,6.0,0.0,40-60,,1.0,makeup compact,desk,60.0,40.0,makeup compact1,desk5,60.0,60.0,P190250_hero.jpg,ADESK6.jpg,/static/Category_learning/Stimuli/Experimental_stims/makeup compact/P190250_hero.jpg,/static/Category_learning/Stimuli/Experimental_stims/desk/ADESK6.jpg,1.0,makeup compact,desk,60.0,40.0,makeup compact1,desk5,60.0,60.0,0.0,326.77,0.27,,,,,,
273,,confirmation,,html-keyboard-response,273,186292,0.0-1.0-24.0-0.36-1.36-0.36,0,0,85937,,,,,,22.0,,,,,,,,,,,,,,,,,,,,,,,,,,,,,,,,328.0,1.23,,,,,,
274,,isi,,html-keyboard-response,274,186397,0.0-1.0-24.0-0.36-2.36,0,0,85937,,,,,,,,,,,,,,,,,,,,,,,,,,,,,,,,,,,,,,330.0,2.0,,,,,,
275,,feedback,,html-keyboard-response,275,187403,0.0-1.0-24.0-0.36-3.36-0.36,0,0,85937,,,,,,22.0,,,,,,,,,,,,,,,,,,,,,,,,,,,,,,,,331.0,1.0,,,,,,
276,,iti,,html-keyboard-response,276,187507,0.0-1.0-24.0-0.36-5.36,0,0,85937,,,,,,,,,,,,,,,,,,,,,,,,,,,,,,,,,,,,,,332.5,1.5,,,,,,
277,,choice,,html-keyboard-response,277,187517,0.0-1.0-25.0-0.0-0.0,0,0,85937,,8.0,,,75.0,23.0,323.0,3500.0,2000.0,0.0,6.0,0.0,20-20,,,tent,telescope,20.0,20.0,tent7,telescope12,0.0,0.0,9238gh948h.jpg,Junior Land and Sky Telescope.jpg,/static/Category_learning/Stimuli/Experimental_stims/tent/9238gh948h.jpg,/static/Category_learning/Stimuli/Experimental_stims/telescope/Junior Land and Sky Telescope.jpg,0.0,telescope,tent,20.0,20.0,telescope12,tent7,0.0,0.0,0.0,332.508,0.008,,,,,,
278,,confirmation,,html-keyboard-response,278,189012,0.0-1.0-25.0-0.0-1.0-0.0,0,0,85937,,,,,,23.0,,,,,,,,,,,,,,,,,,,,,,,,,,,,,,,,334.0,1.492,,,,,,
279,,isi,,html-keyboard-response,279,189119,0.0-1.0-25.0-0.0-2.0,0,0,85937,,,,,,,,,,,,,,,,,,,,,,,,,,,,,,,,,,,,,,337.5,3.5,,,,,,
280,,feedback,,html-keyboard-response,280,190125,0.0-1.0-25.0-0.0-3.0-0.0,0,0,85937,,,,,,23.0,,,,,,,,,,,,,,,,,,,,,,,,,,,,,,,,338.5,1.0,,,,,,
281,,iti,,html-keyboard-response,281,190232,0.0-1.0-25.0-0.0-5.0,0,0,85937,,,,,,,,,,,,,,,,,,,,,,,,,,,,,,,,,,,,,,340.5,2.0,,,,,,
282,,choice,,html-keyboard-response,282,190242,0.0-1.0-26.0-0.0-0.0,0,0,85937,,8.0,,,68.0,24.0,324.0,1500.0,2000.0,0.0,6.0,0.0,80-80,,,seashell,nail polish,80.0,80.0,seashell10,nail polish10,80.0,100.0,ASEASHE47.jpg,NLM23_opi_nail_polish.jpg,/static/Category_learning/Stimuli/Experimental_stims/seashell/ASEASHE47.jpg,/static/Category_learning/Stimuli/Experimental_stims/nail polish/NLM23_opi_nail_polish.jpg,1.0,seashell,nail polish,80.0,80.0,seashell10,nail polish10,80.0,100.0,0.0,340.508,0.008,,,,,,
283,,confirmation,,html-keyboard-response,283,191742,0.0-1.0-26.0-0.0-1.0-0.0,0,0,85937,,,,,,24.0,,,,,,,,,,,,,,,,,,,,,,,,,,,,,,,,342.0,1.492,,,,,,
284,,isi,,html-keyboard-response,284,191848,0.0-1.0-26.0-0.0-2.0,0,0,85937,,,,,,,,,,,,,,,,,,,,,,,,,,,,,,,,,,,,,,343.5,1.5,,,,,,
285,,feedback,,html-keyboard-response,285,192853,0.0-1.0-26.0-0.0-3.0-0.0,0,0,85937,,,,,,24.0,,,,,,,,,,,,,,,,,,,,,,,,,,,,,,,,344.5,1.0,,,,,,
286,,iti,,html-keyboard-response,286,192958,0.0-1.0-26.0-0.0-5.0,0,0,85937,,,,,,,,,,,,,,,,,,,,,,,,,,,,,,,,,,,,,,346.5,2.0,,,,,,
287,,choice,,html-keyboard-response,287,194463,0.0-1.0-27.0-0.0-0.0,0,0,85937,,,,,,25.0,325.0,1000.0,2000.0,0.0,6.0,1.0,80-80,1.0,,seashell,seashell,80.0,80.0,seashell10,seashell5,80.0,80.0,ASEASHE47.jpg,429345994_b87bb03366.jpg,/static/Category_learning/Stimuli/Experimental_stims/seashell/ASEASHE47.jpg,/static/Category_learning/Stimuli/Experimental_stims/seashell/429345994_b87bb03366.jpg,,,,,,,,,,1.0,348.0,1.5,,,,,,
288,,isi,,html-keyboard-response,288,194568,0.0-1.0-27.0-0.0-2.0,0,0,85937,,,,,,,,,,,,,,,,,,,,,,,,,,,,,,,,,,,,,,349.0,1.0,,0.54,,,,
289,,final_tally,,html-keyboard-response,289,196212,0.0-2.0-0.0,0,0,85937,,1641.0,,,68.0,,,,,,,,,,,,,,,,,,,,,,,,,,,,,,,,,,,,,,,,
290,,category_memory_instructions,,instructions,290,208686,0.0-3.0-0.0,0,0,85937,"[{""page_index"":0,""viewing_time"":11282},{""page_index"":1,""viewing_time"":678},{""page_index"":2,""viewing_time"":498}]",12458.0,,,,,,,,,,,,,,,,,,,,,,,,,,,,,,,,,,,,,,,,,,,
291,,category_memory,,survey-text,291,212133,0.0-3.0-1.0-0.0,0,0,85937,,3444.0,"{""Q0"":""0\n""}",,,0.0,,,,,,,,,,,,,,,,,,,,,,,,,,,,,,,,,,,,desk,40.0,0.0,
292,,category_memory,,survey-text,292,213250,0.0-3.0-2.0-0.0,0,0,85937,,1114.0,"{""Q0"":""0""}",,,1.0,,,,,,,,,,,,,,,,,,,,,,,,,,,,,,,,,,,,power strip,80.0,0.0,
293,,category_memory,,survey-text,293,214333,0.0-3.0-3.0-0.0,0,0,85937,,1081.0,"{""Q0"":""0""}",,,2.0,,,,,,,,,,,,,,,,,,,,,,,,,,,,,,,,,,,,tent,20.0,0.0,
294,,category_memory,,survey-text,294,215266,0.0-3.0-4.0-0.0,0,0,85937,,930.0,"{""Q0"":""0""}",,,3.0,,,,,,,,,,,,,,,,,,,,,,,,,,,,,,,,,,,,dresser,40.0,0.0,
295,,category_memory,,survey-text,295,216216,0.0-3.0-5.0-0.0,0,0,85937,,947.0,"{""Q0"":""0""}",,,4.0,,,,,,,,,,,,,,,,,,,,,,,,,,,,,,,,,,,,poker card,80.0,0.0,
296,,category_memory,,survey-text,296,217199,0.0-3.0-6.0-0.0,0,0,85937,,981.0,"{""Q0"":""0""}",,,5.0,,,,,,,,,,,,,,,,,,,,,,,,,,,,,,,,,,,,small table,80.0,0.0,
297,,category_memory,,survey-text,297,218199,0.0-3.0-7.0-0.0,0,0,85937,,997.0,"{""Q0"":""0""}",,,6.0,,,,,,,,,,,,,,,,,,,,,,,,,,,,,,,,,,,,frame,60.0,0.0,
298,,category_memory,,survey-text,298,219083,0.0-3.0-8.0-0.0,0,0,85937,,881.0,"{""Q0"":""0""}",,,7.0,,,,,,,,,,,,,,,,,,,,,,,,,,,,,,,,,,,,seashell,80.0,0.0,
299,,category_memory,,survey-text,299,220017,0.0-3.0-9.0-0.0,0,0,85937,,930.0,"{""Q0"":""0""}",,,8.0,,,,,,,,,,,,,,,,,,,,,,,,,,,,,,,,,,,,tape,20.0,0.0,
300,,category_memory,,survey-text,300,220901,0.0-3.0-10.0-0.0,0,0,85937,,880.0,"{""Q0"":""0""}",,,9.0,,,,,,,,,,,,,,,,,,,,,,,,,,,,,,,,,,,,door knob,40.0,0.0,
301,,category_memory,,survey-text,301,221833,0.0-3.0-11.0-0.0,0,0,85937,,929.0,"{""Q0"":""0""}",,,10.0,,,,,,,,,,,,,,,,,,,,,,,,,,,,,,,,,,,,trumpet,20.0,0.0,
302,,category_memory,,survey-text,302,222883,0.0-3.0-12.0-0.0,0,0,85937,,1047.0,"{""Q0"":""0""}",,,11.0,,,,,,,,,,,,,,,,,,,,,,,,,,,,,,,,,,,,makeup compact,60.0,0.0,
303,,category_memory,,survey-text,303,223833,0.0-3.0-13.0-0.0,0,0,85937,,948.0,"{""Q0"":""0""}",,,12.0,,,,,,,,,,,,,,,,,,,,,,,,,,,,,,,,,,,,vase,20.0,0.0,
304,,category_memory,,survey-text,304,225167,0.0-3.0-14.0-0.0,0,0,85937,,1332.0,"{""Q0"":""0""}",,,13.0,,,,,,,,,,,,,,,,,,,,,,,,,,,,,,,,,,,,patio lounge chair,80.0,0.0,
305,,category_memory,,survey-text,305,226116,0.0-3.0-15.0-0.0,0,0,85937,,946.0,"{""Q0"":""0""}",,,14.0,,,,,,,,,,,,,,,,,,,,,,,,,,,,,,,,,,,,train,20.0,0.0,
306,,category_memory,,survey-text,306,227700,0.0-3.0-16.0-0.0,0,0,85937,,1582.0,"{""Q0"":""0""}",,,15.0,,,,,,,,,,,,,,,,,,,,,,,,,,,,,,,,,,,,nail polish,80.0,0.0,
307,,category_memory,,survey-text,307,228850,0.0-3.0-17.0-0.0,0,0,85937,,1147.0,"{""Q0"":""0""}",,,16.0,,,,,,,,,,,,,,,,,,,,,,,,,,,,,,,,,,,,fan,40.0,0.0,
308,,category_memory,,survey-text,308,229866,0.0-3.0-18.0-0.0,0,0,85937,,1014.0,"{""Q0"":""0""}",,,17.0,,,,,,,,,,,,,,,,,,,,,,,,,,,,,,,,,,,,motorcycle,60.0,0.0,
309,,category_memory,,survey-text,309,230900,0.0-3.0-19.0-0.0,0,0,85937,,1031.0,"{""Q0"":""0""}",,,18.0,,,,,,,,,,,,,,,,,,,,,,,,,,,,,,,,,,,,hammer,60.0,0.0,
310,,category_memory,,survey-text,310,231367,0.0-3.0-20.0-0.0,0,0,85937,,464.0,"{""Q0"":""""}",,,19.0,,,,,,,,,,,,,,,,,,,,,,,,,,,,,,,,,,,,watch,20.0,,
311,,enter_reponse,,html-keyboard-response,311,232505,0.0-3.0-20.0-1.0-0.0,1,0,85937,,1136.0,,,68.0,,,,,,,,,,,,,,,,,,,,,,,,,,,,,,,,,,,,,,,,1.0
312,,category_memory,,survey-text,312,234550,0.0-3.0-20.1-0.1,0,0,85937,,2042.0,"{""Q0"":""0""}",,,19.0,,,,,,,,,,,,,,,,,,,,,,,,,,,,,,,,,,,,watch,20.0,0.0,
313,,category_memory,,survey-text,313,236817,0.0-3.0-21.0-0.0,0,0,85937,,2264.0,"{""Q0"":""0""}",,,20.0,,,,,,,,,,,,,,,,,,,,,,,,,,,,,,,,,,,,baby carriage,40.0,0.0,
314,,category_memory,,survey-text,314,237550,0.0-3.0-22.0-0.0,0,0,85937,,730.0,"{""Q0"":""""}",,,21.0,,,,,,,,,,,,,,,,,,,,,,,,,,,,,,,,,,,,key chain,60.0,,
315,,enter_reponse,,html-keyboard-response,315,238622,0.0-3.0-22.0-1.0-0.0,1,0,85937,,1070.0,,,68.0,,,,,,,,,,,,,,,,,,,,,,,,,,,,,,,,,,,,,,,,1.0
316,,category_memory,,survey-text,316,240400,0.0-3.0-22.1-0.1,0,0,85937,,1775.0,"{""Q0"":""0""}",,,21.0,,,,,,,,,,,,,,,,,,,,,,,,,,,,,,,,,,,,key chain,60.0,0.0,
317,,category_memory,,survey-text,317,241516,0.0-3.0-23.0-0.0,0,0,85937,,1114.0,"{""Q0"":""0""}",,,22.0,,,,,,,,,,,,,,,,,,,,,,,,,,,,,,,,,,,,stool,20.0,0.0,
318,,category_memory,,survey-text,318,242950,0.0-3.0-24.0-0.0,0,0,85937,,1431.0,"{""Q0"":""0""}",,,23.0,,,,,,,,,,,,,,,,,,,,,,,,,,,,,,,,,,,,flashlight,40.0,0.0,
319,,category_memory,,survey-text,319,244050,0.0-3.0-25.0-0.0,0,0,85937,,1098.0,"{""Q0"":""0""}",,,24.0,,,,,,,,,,,,,,,,,,,,,,,,,,,,,,,,,,,,bench,40.0,0.0,
320,,category_memory,,survey-text,320,245450,0.0-3.0-26.0-0.0,0,0,85937,,1398.0,"{""Q0"":""0""}",,,25.0,,,,,,,,,,,,,,,,,,,,,,,,,,,,,,,,,,,,lipstick,60.0,0.0,
321,,category_memory,,survey-text,321,246500,0.0-3.0-27.0-0.0,0,0,85937,,1047.0,"{""Q0"":""0""}",,,26.0,,,,,,,,,,,,,,,,,,,,,,,,,,,,,,,,,,,,sofa,80.0,0.0,
322,,category_memory,,survey-text,322,247683,0.0-3.0-28.0-0.0,0,0,85937,,1181.0,"{""Q0"":""0""}",,,27.0,,,,,,,,,,,,,,,,,,,,,,,,,,,,,,,,,,,,pen,80.0,0.0,
323,,category_memory,,survey-text,323,248700,0.0-3.0-29.0-0.0,0,0,85937,,1014.0,"{""Q0"":""0""}",,,28.0,,,,,,,,,,,,,,,,,,,,,,,,,,,,,,,,,,,,telescope,20.0,0.0,
324,,category_memory,,survey-text,324,250216,0.0-3.0-30.0-0.0,0,0,85937,,1514.0,"{""Q0"":""0""}",,,29.0,,,,,,,,,,,,,,,,,,,,,,,,,,,,,,,,,,,,hat,60.0,0.0,
325,,category_memory,,survey-text,325,251333,0.0-3.0-31.0-0.0,0,0,85937,,1114.0,"{""Q0"":""0""}",,,30.0,,,,,,,,,,,,,,,,,,,,,,,,,,,,,,,,,,,,necklace,80.0,0.0,
326,,category_memory,,survey-text,326,252283,0.0-3.0-32.0-0.0,0,0,85937,,947.0,"{""Q0"":""0""}",,,31.0,,,,,,,,,,,,,,,,,,,,,,,,,,,,,,,,,,,,bowl,40.0,0.0,
327,,category_memory,,survey-text,327,253217,0.0-3.0-33.0-0.0,0,0,85937,,931.0,"{""Q0"":""0""}",,,32.0,,,,,,,,,,,,,,,,,,,,,,,,,,,,,,,,,,,,microscope,60.0,0.0,
328,,category_memory,,survey-text,328,254601,0.0-3.0-34.0-0.0,0,0,85937,,1381.0,"{""Q0"":""0""}",,,33.0,,,,,,,,,,,,,,,,,,,,,,,,,,,,,,,,,,,,license plate,60.0,0.0,
329,,category_memory,,survey-text,329,255669,0.0-3.0-35.0-0.0,0,0,85937,,1064.0,"{""Q0"":""0""}",,,34.0,,,,,,,,,,,,,,,,,,,,,,,,,,,,,,,,,,,,yarn,20.0,0.0,
330,,category_memory,,survey-text,330,256768,0.0-3.0-36.0-0.0,0,0,85937,,1095.0,"{""Q0"":""0""}",,,35.0,,,,,,,,,,,,,,,,,,,,,,,,,,,,,,,,,,,,bongo,40.0,0.0,
