,success,ttype,start_time,trial_type,trial_index,time_elapsed,internal_node_id,warning,missed_checkup,PID,view_history,rt,responses,repeat_instructions,key_press,index,trial_num,isi,iti,is_practice,block,old_trial,pair_type,within_category,high_cat_on_left,left_category,right_category,left_category_value,right_category_value,left_exemplar,right_exemplar,left_exemplar_value,right_exemplar_value,left_img,right_img,left_img_path,right_img_path,left_chosen,chosen_category,unchosen_category,chosen_category_value,unchosen_category_value,chosen_exemplar,unchosen_exemplar,chosen_exemplar_value,unchosen_exemplar_value,no_response,onset,duration,end_practice,total_bonus_tally,category,category_group_value,category_value_response,did_not_enter_response
0,True,full_screen,d06022022hr0053,fullscreen,0,54563,0.0-0.0,0,0,30311,,,,,,,,,,,,,,,,,,,,,,,,,,,,,,,,,,,,,,,,,,,,,
1,,category_learning_instructions,,instructions,1,56854,0.0-1.0-0.0-0.0,0,0,30311,"[{""page_index"":0,""viewing_time"":1107},{""page_index"":1,""viewing_time"":156},{""page_index"":2,""viewing_time"":171},{""page_index"":3,""viewing_time"":338},{""page_index"":4,""viewing_time"":156},{""page_index"":5,""viewing_time"":171},{""page_index"":6,""viewing_time"":189}]",2288.0,,,,,,,,,,,,,,,,,,,,,,,,,,,,,,,,,,,,,,,,,,,
2,,category_learning_comprehension_check,,survey-multi-choice,2,62823,0.0-1.0-0.0-1.0,0,0,30311,,5964.0,"{""Q0"":""True"",""Q1"":""True"",""Q2"":""Stay the same"",""Q3"":""D for left and K for right""}",0.0,,,,,,,,,,,,,,,,,,,,,,,,,,,,,,,,,,,,,,,,,
3,,,,html-keyboard-response,3,63860,0.0-1.0-1.0,0,0,30311,,1032.0,,,68.0,,,,,,,,,,,,,,,,,,,,,,,,,,,,,,,,,,,,,,,,
4,,choice,,html-keyboard-response,4,64652,0.0-1.0-2.0-0.0-0.0,0,0,30311,,788.0,,,75.0,0.0,0.0,1500.0,1000.0,1.0,0.0,0.0,20-80,,0.0,bagel,dumbbell,20.0,80.0,bagel1,dumbbell1,0.0,80.0,bagels_pumpernickel_large.jpg,31B64EN68AL._AA280_.jpg,/static/Category_learning/Stimuli/Practice_stims/bagel/bagels_pumpernickel_large.jpg,/static/Category_learning/Stimuli/Practice_stims/dumbbell/31B64EN68AL._AA280_.jpg,0.0,dumbbell,bagel,80.0,20.0,dumbbell1,bagel1,80.0,0.0,0.0,0.788,0.788,,,,,,
5,,confirmation,,html-keyboard-response,5,65368,0.0-1.0-2.0-0.0-1.0-0.0,0,0,30311,,,,,,0.0,,,,,,,,,,,,,,,,,,,,,,,,,,,,,,,,1.5,0.712,,,,,,
6,,isi,,html-keyboard-response,6,65474,0.0-1.0-2.0-0.0-2.0,0,0,30311,,,,,,,,,,,,,,,,,,,,,,,,,,,,,,,,,,,,,,3.0,1.5,,,,,,
7,,feedback,,html-keyboard-response,7,66478,0.0-1.0-2.0-0.0-3.0-0.0,0,0,30311,,,,,,0.0,,,,,,,,,,,,,,,,,,,,,,,,,,,,,,,,4.0,1.0,,,,,,
8,,iti,,html-keyboard-response,8,66582,0.0-1.0-2.0-0.0-5.0,0,0,30311,,,,,,,,,,,,,,,,,,,,,,,,,,,,,,,,,,,,,,5.0,1.0,,,,,,
9,,choice,,html-keyboard-response,9,66729,0.0-1.0-3.0-0.0-0.0,0,0,30311,,145.0,,,68.0,1.0,1.0,3000.0,1500.0,1.0,0.0,0.0,20-40,,1.0,calculator,bagel,40.0,20.0,calculator2,bagel2,20.0,20.0,22829064.thl.jpg,bagels_cinnraisin_large.jpg,/static/Category_learning/Stimuli/Practice_stims/calculator/22829064.thl.jpg,/static/Category_learning/Stimuli/Practice_stims/bagel/bagels_cinnraisin_large.jpg,1.0,calculator,bagel,40.0,20.0,calculator2,bagel2,20.0,20.0,0.0,5.145,0.145,,,,,,
10,,confirmation,,html-keyboard-response,10,68090,0.0-1.0-3.0-0.0-1.0-0.0,0,0,30311,,,,,,1.0,,,,,,,,,,,,,,,,,,,,,,,,,,,,,,,,6.5,1.355,,,,,,
11,,isi,,html-keyboard-response,11,68195,0.0-1.0-3.0-0.0-2.0,0,0,30311,,,,,,,,,,,,,,,,,,,,,,,,,,,,,,,,,,,,,,9.5,3.0,,,,,,
12,,feedback,,html-keyboard-response,12,69201,0.0-1.0-3.0-0.0-3.0-0.0,0,0,30311,,,,,,1.0,,,,,,,,,,,,,,,,,,,,,,,,,,,,,,,,10.5,1.0,,,,,,
13,,iti,,html-keyboard-response,13,69304,0.0-1.0-3.0-0.0-5.0,0,0,30311,,,,,,,,,,,,,,,,,,,,,,,,,,,,,,,,,,,,,,12.0,1.5,,,,,,
14,,choice,,html-keyboard-response,14,70812,0.0-1.0-4.0-0.0-0.0,0,0,30311,,,,,,2.0,2.0,2000.0,3000.0,1.0,0.0,0.0,60-80,,0.0,clock,dumbbell,60.0,80.0,clock2,dumbbell2,60.0,100.0,26373355.thl.jpg,31K8MR6TMBL._SS500_.jpg,/static/Category_learning/Stimuli/Practice_stims/clock/26373355.thl.jpg,/static/Category_learning/Stimuli/Practice_stims/dumbbell/31K8MR6TMBL._SS500_.jpg,,,,,,,,,,1.0,13.5,1.5,,,,,,
15,,isi,,html-keyboard-response,15,70917,0.0-1.0-4.0-0.0-2.0,0,0,30311,,,,,,,,,,,,,,,,,,,,,,,,,,,,,,,,,,,,,,15.5,2.0,,,,,,
16,,no_response,,html-keyboard-response,16,71923,0.0-1.0-4.0-0.0-4.0-0.0,0,0,30311,,,,,,,,,,,,,,,,,,,,,,,,,,,,,,,,,,,,,,16.5,1.0,,,,,,
17,,iti,,html-keyboard-response,17,72030,0.0-1.0-4.0-0.0-5.0,0,0,30311,,,,,,,,,,,,,,,,,,,,,,,,,,,,,,,,,,,,,,19.5,3.0,,,,,,
18,,choice,,html-keyboard-response,18,73536,0.0-1.0-4.0-0.1-0.1,0,0,30311,,,,,,2.0,2.0,2000.0,3000.0,1.0,0.0,0.0,60-80,,0.0,clock,dumbbell,60.0,80.0,clock2,dumbbell2,60.0,100.0,26373355.thl.jpg,31K8MR6TMBL._SS500_.jpg,/static/Category_learning/Stimuli/Practice_stims/clock/26373355.thl.jpg,/static/Category_learning/Stimuli/Practice_stims/dumbbell/31K8MR6TMBL._SS500_.jpg,,,,,,,,,,1.0,21.0,1.5,,,,,,
19,,isi,,html-keyboard-response,19,73640,0.0-1.0-4.0-0.1-2.1,0,0,30311,,,,,,,,,,,,,,,,,,,,,,,,,,,,,,,,,,,,,,23.0,2.0,,,,,,
20,,no_response,,html-keyboard-response,20,74644,0.0-1.0-4.0-0.1-4.1-0.1,0,0,30311,,,,,,,,,,,,,,,,,,,,,,,,,,,,,,,,,,,,,,24.0,1.0,,,,,,
21,,iti,,html-keyboard-response,21,74750,0.0-1.0-4.0-0.1-5.1,0,0,30311,,,,,,,,,,,,,,,,,,,,,,,,,,,,,,,,,,,,,,27.0,3.0,,,,,,
22,,choice,,html-keyboard-response,22,76254,0.0-1.0-4.0-0.2-0.2,0,0,30311,,,,,,2.0,2.0,2000.0,3000.0,1.0,0.0,0.0,60-80,,0.0,clock,dumbbell,60.0,80.0,clock2,dumbbell2,60.0,100.0,26373355.thl.jpg,31K8MR6TMBL._SS500_.jpg,/static/Category_learning/Stimuli/Practice_stims/clock/26373355.thl.jpg,/static/Category_learning/Stimuli/Practice_stims/dumbbell/31K8MR6TMBL._SS500_.jpg,,,,,,,,,,1.0,28.5,1.5,,,,,,
23,,isi,,html-keyboard-response,23,76360,0.0-1.0-4.0-0.2-2.2,0,0,30311,,,,,,,,,,,,,,,,,,,,,,,,,,,,,,,,,,,,,,30.5,2.0,,,,,,
24,,no_response,,html-keyboard-response,24,77367,0.0-1.0-4.0-0.2-4.2-0.2,0,0,30311,,,,,,,,,,,,,,,,,,,,,,,,,,,,,,,,,,,,,,31.5,1.0,,,,,,
25,,iti,,html-keyboard-response,25,77470,0.0-1.0-4.0-0.2-5.2,0,0,30311,,,,,,,,,,,,,,,,,,,,,,,,,,,,,,,,,,,,,,34.5,3.0,,,,,,
26,,choice,,html-keyboard-response,26,78975,0.0-1.0-4.0-0.3-0.3,0,0,30311,,,,,,2.0,2.0,2000.0,3000.0,1.0,0.0,0.0,60-80,,0.0,clock,dumbbell,60.0,80.0,clock2,dumbbell2,60.0,100.0,26373355.thl.jpg,31K8MR6TMBL._SS500_.jpg,/static/Category_learning/Stimuli/Practice_stims/clock/26373355.thl.jpg,/static/Category_learning/Stimuli/Practice_stims/dumbbell/31K8MR6TMBL._SS500_.jpg,,,,,,,,,,1.0,36.0,1.5,,,,,,
27,,isi,,html-keyboard-response,27,79080,0.0-1.0-4.0-0.3-2.3,0,0,30311,,,,,,,,,,,,,,,,,,,,,,,,,,,,,,,,,,,,,,38.0,2.0,,,,,,
28,,no_response,,html-keyboard-response,28,80087,0.0-1.0-4.0-0.3-4.3-0.3,0,0,30311,,,,,,,,,,,,,,,,,,,,,,,,,,,,,,,,,,,,,,39.0,1.0,,,,,,
29,,iti,,html-keyboard-response,29,80190,0.0-1.0-4.0-0.3-5.3,0,0,30311,,,,,,,,,,,,,,,,,,,,,,,,,,,,,,,,,,,,,,42.0,3.0,,,,,,
30,,choice,,html-keyboard-response,30,80292,0.0-1.0-4.0-0.4-0.4,0,0,30311,,98.0,,,68.0,2.0,2.0,2000.0,3000.0,1.0,0.0,0.0,60-80,,0.0,clock,dumbbell,60.0,80.0,clock2,dumbbell2,60.0,100.0,26373355.thl.jpg,31K8MR6TMBL._SS500_.jpg,/static/Category_learning/Stimuli/Practice_stims/clock/26373355.thl.jpg,/static/Category_learning/Stimuli/Practice_stims/dumbbell/31K8MR6TMBL._SS500_.jpg,1.0,clock,dumbbell,60.0,80.0,clock2,dumbbell2,60.0,100.0,0.0,42.098,0.098,,,,,,
31,,confirmation,,html-keyboard-response,31,81699,0.0-1.0-4.0-0.4-1.4-0.4,0,0,30311,,,,,,2.0,,,,,,,,,,,,,,,,,,,,,,,,,,,,,,,,43.5,1.402,,,,,,
32,,isi,,html-keyboard-response,32,81805,0.0-1.0-4.0-0.4-2.4,0,0,30311,,,,,,,,,,,,,,,,,,,,,,,,,,,,,,,,,,,,,,45.5,2.0,,,,,,
33,,feedback,,html-keyboard-response,33,82812,0.0-1.0-4.0-0.4-3.4-0.4,0,0,30311,,,,,,2.0,,,,,,,,,,,,,,,,,,,,,,,,,,,,,,,,46.5,1.0,,,,,,
34,,iti,,html-keyboard-response,34,82917,0.0-1.0-4.0-0.4-5.4,0,0,30311,,,,,,,,,,,,,,,,,,,,,,,,,,,,,,,,,,,,,,49.5,3.0,,,,,,
35,,choice,,html-keyboard-response,35,83018,0.0-1.0-5.0-0.0-0.0,0,0,30311,,97.0,,,75.0,3.0,3.0,1000.0,2000.0,1.0,0.0,0.0,40-80,,0.0,calculator,clock,40.0,60.0,calculator1,clock1,40.0,40.0,22829184.thl.jpg,Aalarmclock2.jpg,/static/Category_learning/Stimuli/Practice_stims/calculator/22829184.thl.jpg,/static/Category_learning/Stimuli/Practice_stims/clock/Aalarmclock2.jpg,0.0,clock,calculator,60.0,40.0,clock1,calculator1,40.0,40.0,0.0,49.597,0.097,,,,,,
36,,confirmation,,html-keyboard-response,36,84424,0.0-1.0-5.0-0.0-1.0-0.0,0,0,30311,,,,,,3.0,,,,,,,,,,,,,,,,,,,,,,,,,,,,,,,,51.0,1.403,,,,,,
37,,isi,,html-keyboard-response,37,84531,0.0-1.0-5.0-0.0-2.0,0,0,30311,,,,,,,,,,,,,,,,,,,,,,,,,,,,,,,,,,,,,,52.0,1.0,,,,,,
38,,feedback,,html-keyboard-response,38,85539,0.0-1.0-5.0-0.0-3.0-0.0,0,0,30311,,,,,,3.0,,,,,,,,,,,,,,,,,,,,,,,,,,,,,,,,53.0,1.0,,,,,,
39,,iti,,html-keyboard-response,39,85646,0.0-1.0-5.0-0.0-5.0,0,0,30311,,,,,,,,,,,,,,,,,,,,,,,,,,,,,,,,,,,,,,55.0,2.0,,,,,,
40,,choice,,html-keyboard-response,40,85723,0.0-1.0-6.0-0.0-0.0,0,0,30311,,73.0,,,75.0,4.0,4.0,2500.0,2500.0,1.0,0.0,0.0,20-60,,1.0,dumbbell,bagel,80.0,20.0,dumbbell3,bagel3,100.0,40.0,41K7QVRX50L._SS500_.jpg,photo-169.jpg,/static/Category_learning/Stimuli/Practice_stims/dumbbell/41K7QVRX50L._SS500_.jpg,/static/Category_learning/Stimuli/Practice_stims/bagel/photo-169.jpg,0.0,bagel,dumbbell,20.0,80.0,bagel3,dumbbell3,40.0,100.0,0.0,55.073,0.073,1.0,,,,,
41,,confirmation,,html-keyboard-response,41,87155,0.0-1.0-6.0-0.0-1.0-0.0,0,0,30311,,,,,,4.0,,,,,,,,,,,,,,,,,,,,,,,,,,,,,,,,56.5,1.427,,,,,,
42,,isi,,html-keyboard-response,42,87262,0.0-1.0-6.0-0.0-2.0,0,0,30311,,,,,,,,,,,,,,,,,,,,,,,,,,,,,,,,,,,,,,59.0,2.5,,,,,,
43,,feedback,,html-keyboard-response,43,88269,0.0-1.0-6.0-0.0-3.0-0.0,0,0,30311,,,,,,4.0,,,,,,,,,,,,,,,,,,,,,,,,,,,,,,,,60.0,1.0,,,,,,
44,,iti,,html-keyboard-response,44,88376,0.0-1.0-6.0-0.0-5.0,0,0,30311,,,,,,,,,,,,,,,,,,,,,,,,,,,,,,,,,,,,,,62.5,2.5,,,,,,
45,,practice_over,,html-keyboard-response,45,88464,0.0-1.0-6.0-0.0-6.0-0.0,0,0,30311,,85.0,,,68.0,4.0,,,,,,,,,,,,,,,,,,,,,,,,,,,,,,,,,,,,,,,
46,,start_run,,html-keyboard-response,46,95649,0.0-1.0-6.0-0.0-6.0-1.0,0,0,30311,,7182.0,,,84.0,,,,,,,,,,,,,,,,,,,,,,,,,,,,,,,,,,,,,,,,
47,,choice,,html-keyboard-response,47,95981,0.0-1.0-7.0-0.0-0.0,0,0,30311,,327.0,,,75.0,5.0,305.0,1500.0,1000.0,0.0,6.0,0.0,20-80,,1.0,dresser,frame,80.0,20.0,dresser5,frame12,100.0,0.0,ADRESSE55.jpg,AFRAME138.jpg,/static/Category_learning/Stimuli/Experimental_stims/dresser/ADRESSE55.jpg,/static/Category_learning/Stimuli/Experimental_stims/frame/AFRAME138.jpg,0.0,frame,dresser,20.0,80.0,frame12,dresser5,0.0,100.0,0.0,0.327,0.327,,,,,,
48,,confirmation,,html-keyboard-response,48,97160,0.0-1.0-7.0-0.0-1.0-0.0,0,0,30311,,,,,,5.0,,,,,,,,,,,,,,,,,,,,,,,,,,,,,,,,1.5,1.173,,,,,,
49,,isi,,html-keyboard-response,49,97265,0.0-1.0-7.0-0.0-2.0,0,0,30311,,,,,,,,,,,,,,,,,,,,,,,,,,,,,,,,,,,,,,3.0,1.5,,,,,,
50,,feedback,,html-keyboard-response,50,98272,0.0-1.0-7.0-0.0-3.0-0.0,0,0,30311,,,,,,5.0,,,,,,,,,,,,,,,,,,,,,,,,,,,,,,,,4.0,1.0,,,,,,
51,,iti,,html-keyboard-response,51,98376,0.0-1.0-7.0-0.0-5.0,0,0,30311,,,,,,,,,,,,,,,,,,,,,,,,,,,,,,,,,,,,,,5.0,1.0,,,,,,
52,,choice,,html-keyboard-response,52,98418,0.0-1.0-8.0-0.0-0.0,0,0,30311,,39.0,,,75.0,6.0,306.0,2000.0,1000.0,0.0,6.0,0.0,20-60,,1.0,stool,makeup compact,60.0,20.0,stool11,makeup compact1,60.0,0.0,ASTOOL28.jpg,P190250_hero.jpg,/static/Category_learning/Stimuli/Experimental_stims/stool/ASTOOL28.jpg,/static/Category_learning/Stimuli/Experimental_stims/makeup compact/P190250_hero.jpg,0.0,makeup compact,stool,20.0,60.0,makeup compact1,stool11,0.0,60.0,0.0,5.039,0.039,,,,,,
53,,confirmation,,html-keyboard-response,53,99885,0.0-1.0-8.0-0.0-1.0-0.0,0,0,30311,,,,,,6.0,,,,,,,,,,,,,,,,,,,,,,,,,,,,,,,,6.5,1.461,,,,,,
54,,isi,,html-keyboard-response,54,99993,0.0-1.0-8.0-0.0-2.0,0,0,30311,,,,,,,,,,,,,,,,,,,,,,,,,,,,,,,,,,,,,,8.5,2.0,,,,,,
55,,feedback,,html-keyboard-response,55,101000,0.0-1.0-8.0-0.0-3.0-0.0,0,0,30311,,,,,,6.0,,,,,,,,,,,,,,,,,,,,,,,,,,,,,,,,9.5,1.0,,,,,,
56,,iti,,html-keyboard-response,56,101107,0.0-1.0-8.0-0.0-5.0,0,0,30311,,,,,,,,,,,,,,,,,,,,,,,,,,,,,,,,,,,,,,10.5,1.0,,,,,,
57,,choice,,html-keyboard-response,57,102069,0.0-1.0-9.0-0.0-0.0,0,0,30311,,959.0,,,68.0,7.0,307.0,1000.0,1000.0,0.0,6.0,0.0,40-60,,0.0,poker card,stool,40.0,60.0,poker card5,stool13,60.0,60.0,22864800.thl.jpg,ASTOOL38.jpg,/static/Category_learning/Stimuli/Experimental_stims/poker card/22864800.thl.jpg,/static/Category_learning/Stimuli/Experimental_stims/stool/ASTOOL38.jpg,1.0,poker card,stool,40.0,60.0,poker card5,stool13,60.0,60.0,0.0,11.459,0.959,,,,,,
58,,confirmation,,html-keyboard-response,58,102616,0.0-1.0-9.0-0.0-1.0-0.0,0,0,30311,,,,,,7.0,,,,,,,,,,,,,,,,,,,,,,,,,,,,,,,,12.0,0.541,,,,,,
59,,isi,,html-keyboard-response,59,102723,0.0-1.0-9.0-0.0-2.0,0,0,30311,,,,,,,,,,,,,,,,,,,,,,,,,,,,,,,,,,,,,,13.0,1.0,,,,,,
60,,feedback,,html-keyboard-response,60,103729,0.0-1.0-9.0-0.0-3.0-0.0,0,0,30311,,,,,,7.0,,,,,,,,,,,,,,,,,,,,,,,,,,,,,,,,14.0,1.0,,,,,,
61,,iti,,html-keyboard-response,61,103836,0.0-1.0-9.0-0.0-5.0,0,0,30311,,,,,,,,,,,,,,,,,,,,,,,,,,,,,,,,,,,,,,15.0,1.0,,,,,,
62,,choice,,html-keyboard-response,62,105026,0.0-1.0-10.0-0.0-0.0,0,0,30311,,1188.0,,,75.0,8.0,308.0,1000.0,3500.0,0.0,6.0,0.0,20-60,,0.0,hammer,trumpet,20.0,60.0,hammer13,trumpet11,20.0,80.0,hammer2.jpg,JUPITER+JTR604L.jpg,/static/Category_learning/Stimuli/Experimental_stims/hammer/hammer2.jpg,/static/Category_learning/Stimuli/Experimental_stims/trumpet/JUPITER+JTR604L.jpg,0.0,trumpet,hammer,60.0,20.0,trumpet11,hammer13,80.0,20.0,0.0,16.188,1.188,,,,,,
63,,confirmation,,html-keyboard-response,63,105342,0.0-1.0-10.0-0.0-1.0-0.0,0,0,30311,,,,,,8.0,,,,,,,,,,,,,,,,,,,,,,,,,,,,,,,,16.5,0.312,,,,,,
64,,isi,,html-keyboard-response,64,105448,0.0-1.0-10.0-0.0-2.0,0,0,30311,,,,,,,,,,,,,,,,,,,,,,,,,,,,,,,,,,,,,,17.5,1.0,,,,,,
65,,feedback,,html-keyboard-response,65,106454,0.0-1.0-10.0-0.0-3.0-0.0,0,0,30311,,,,,,8.0,,,,,,,,,,,,,,,,,,,,,,,,,,,,,,,,18.5,1.0,,,,,,
66,,iti,,html-keyboard-response,66,106557,0.0-1.0-10.0-0.0-5.0,0,0,30311,,,,,,,,,,,,,,,,,,,,,,,,,,,,,,,,,,,,,,22.0,3.5,,,,,,
67,,choice,,html-keyboard-response,67,106765,0.0-1.0-11.0-0.0-0.0,0,0,30311,,204.0,,,68.0,9.0,309.0,2000.0,1000.0,0.0,6.0,0.0,40-60,,0.0,necklace,tent,40.0,60.0,necklace6,tent1,60.0,40.0,Agoldnecklace.jpg,Atent8.jpg,/static/Category_learning/Stimuli/Experimental_stims/necklace/Agoldnecklace.jpg,/static/Category_learning/Stimuli/Experimental_stims/tent/Atent8.jpg,1.0,necklace,tent,40.0,60.0,necklace6,tent1,60.0,40.0,0.0,22.204,0.204,,,,,,
68,,confirmation,,html-keyboard-response,68,108064,0.0-1.0-11.0-0.0-1.0-0.0,0,0,30311,,,,,,9.0,,,,,,,,,,,,,,,,,,,,,,,,,,,,,,,,23.5,1.296,,,,,,
69,,isi,,html-keyboard-response,69,108173,0.0-1.0-11.0-0.0-2.0,0,0,30311,,,,,,,,,,,,,,,,,,,,,,,,,,,,,,,,,,,,,,25.5,2.0,,,,,,
70,,feedback,,html-keyboard-response,70,109182,0.0-1.0-11.0-0.0-3.0-0.0,0,0,30311,,,,,,9.0,,,,,,,,,,,,,,,,,,,,,,,,,,,,,,,,26.5,1.0,,,,,,
71,,iti,,html-keyboard-response,71,109289,0.0-1.0-11.0-0.0-5.0,0,0,30311,,,,,,,,,,,,,,,,,,,,,,,,,,,,,,,,,,,,,,27.5,1.0,,,,,,
72,,choice,,html-keyboard-response,72,109714,0.0-1.0-12.0-0.0-0.0,0,0,30311,,421.0,,,75.0,10.0,310.0,1500.0,1500.0,0.0,6.0,1.0,20-40,0.0,,poker card,makeup compact,40.0,20.0,poker card5,makeup compact1,60.0,0.0,22864800.thl.jpg,P190250_hero.jpg,/static/Category_learning/Stimuli/Experimental_stims/poker card/22864800.thl.jpg,/static/Category_learning/Stimuli/Experimental_stims/makeup compact/P190250_hero.jpg,0.0,makeup compact,poker card,20.0,40.0,makeup compact1,poker card5,0.0,60.0,0.0,27.921,0.421,,,,,,
73,,confirmation,,html-keyboard-response,73,110800,0.0-1.0-12.0-0.0-1.0-0.0,0,0,30311,,,,,,10.0,,,,,,,,,,,,,,,,,,,,,,,,,,,,,,,,29.0,1.079,,,,,,
74,,isi,,html-keyboard-response,74,110906,0.0-1.0-12.0-0.0-2.0,0,0,30311,,,,,,,,,,,,,,,,,,,,,,,,,,,,,,,,,,,,,,30.5,1.5,,,,,,
75,,feedback,,html-keyboard-response,75,111911,0.0-1.0-12.0-0.0-3.0-0.0,0,0,30311,,,,,,10.0,,,,,,,,,,,,,,,,,,,,,,,,,,,,,,,,31.5,1.0,,,,,,
76,,iti,,html-keyboard-response,76,112014,0.0-1.0-12.0-0.0-5.0,0,0,30311,,,,,,,,,,,,,,,,,,,,,,,,,,,,,,,,,,,,,,33.0,1.5,,,,,,
77,,choice,,html-keyboard-response,77,112364,0.0-1.0-13.0-0.0-0.0,0,0,30311,,347.0,,,75.0,11.0,311.0,2000.0,1500.0,0.0,6.0,1.0,20-60,0.0,,trumpet,frame,60.0,20.0,trumpet11,frame12,80.0,0.0,JUPITER+JTR604L.jpg,AFRAME138.jpg,/static/Category_learning/Stimuli/Experimental_stims/trumpet/JUPITER+JTR604L.jpg,/static/Category_learning/Stimuli/Experimental_stims/frame/AFRAME138.jpg,0.0,frame,trumpet,20.0,60.0,frame12,trumpet11,0.0,80.0,0.0,33.347,0.347,,,,,,
78,,confirmation,,html-keyboard-response,78,113523,0.0-1.0-13.0-0.0-1.0-0.0,0,0,30311,,,,,,11.0,,,,,,,,,,,,,,,,,,,,,,,,,,,,,,,,34.5,1.153,,,,,,
79,,isi,,html-keyboard-response,79,113630,0.0-1.0-13.0-0.0-2.0,0,0,30311,,,,,,,,,,,,,,,,,,,,,,,,,,,,,,,,,,,,,,36.5,2.0,,,,,,
80,,feedback,,html-keyboard-response,80,114637,0.0-1.0-13.0-0.0-3.0-0.0,0,0,30311,,,,,,11.0,,,,,,,,,,,,,,,,,,,,,,,,,,,,,,,,37.5,1.0,,,,,,
81,,iti,,html-keyboard-response,81,114744,0.0-1.0-13.0-0.0-5.0,0,0,30311,,,,,,,,,,,,,,,,,,,,,,,,,,,,,,,,,,,,,,39.0,1.5,,,,,,
82,,choice,,html-keyboard-response,82,114923,0.0-1.0-14.0-0.0-0.0,0,0,30311,,175.0,,,68.0,12.0,312.0,1000.0,1000.0,0.0,6.0,0.0,80-80,,,bowl,fan,80.0,80.0,bowl4,fan1,80.0,60.0,Abowl77.jpg,01393.fpx.jpg,/static/Category_learning/Stimuli/Experimental_stims/bowl/Abowl77.jpg,/static/Category_learning/Stimuli/Experimental_stims/fan/01393.fpx.jpg,1.0,bowl,fan,80.0,80.0,bowl4,fan1,80.0,60.0,0.0,39.175,0.175,,,,,,
83,,confirmation,,html-keyboard-response,83,116253,0.0-1.0-14.0-0.0-1.0-0.0,0,0,30311,,,,,,12.0,,,,,,,,,,,,,,,,,,,,,,,,,,,,,,,,40.5,1.325,,,,,,
84,,isi,,html-keyboard-response,84,116360,0.0-1.0-14.0-0.0-2.0,0,0,30311,,,,,,,,,,,,,,,,,,,,,,,,,,,,,,,,,,,,,,41.5,1.0,,,,,,
85,,feedback,,html-keyboard-response,85,117363,0.0-1.0-14.0-0.0-3.0-0.0,0,0,30311,,,,,,12.0,,,,,,,,,,,,,,,,,,,,,,,,,,,,,,,,42.5,1.0,,,,,,
86,,iti,,html-keyboard-response,86,117470,0.0-1.0-14.0-0.0-5.0,0,0,30311,,,,,,,,,,,,,,,,,,,,,,,,,,,,,,,,,,,,,,43.5,1.0,,,,,,
87,,choice,,html-keyboard-response,87,117521,0.0-1.0-15.0-0.0-0.0,0,0,30311,,47.0,,,75.0,13.0,313.0,3500.0,2000.0,0.0,6.0,0.0,20-60,,1.0,tent,hat,60.0,20.0,tent8,hat8,60.0,20.0,quechua_tent-1.jpg,ABLUEHAT.jpg,/static/Category_learning/Stimuli/Experimental_stims/tent/quechua_tent-1.jpg,/static/Category_learning/Stimuli/Experimental_stims/hat/ABLUEHAT.jpg,0.0,hat,tent,20.0,60.0,hat8,tent8,20.0,60.0,0.0,43.547,0.047,,,,,,
88,,confirmation,,html-keyboard-response,88,118978,0.0-1.0-15.0-0.0-1.0-0.0,0,0,30311,,,,,,13.0,,,,,,,,,,,,,,,,,,,,,,,,,,,,,,,,45.0,1.453,,,,,,
89,,isi,,html-keyboard-response,89,119081,0.0-1.0-15.0-0.0-2.0,0,0,30311,,,,,,,,,,,,,,,,,,,,,,,,,,,,,,,,,,,,,,48.5,3.5,,,,,,
90,,feedback,,html-keyboard-response,90,120086,0.0-1.0-15.0-0.0-3.0-0.0,0,0,30311,,,,,,13.0,,,,,,,,,,,,,,,,,,,,,,,,,,,,,,,,49.5,1.0,,,,,,
91,,iti,,html-keyboard-response,91,120191,0.0-1.0-15.0-0.0-5.0,0,0,30311,,,,,,,,,,,,,,,,,,,,,,,,,,,,,,,,,,,,,,51.5,2.0,,,,,,
92,,choice,,html-keyboard-response,92,121501,0.0-1.0-16.0-0.0-0.0,0,0,30311,,1307.0,,,75.0,14.0,314.0,2000.0,1500.0,0.0,6.0,0.0,20-60,,0.0,motorcycle,telescope,20.0,60.0,motorcycle1,telescope3,0.0,40.0,motorcycle30.jpg,41V67SB5NJL._SS500_.jpg,/static/Category_learning/Stimuli/Experimental_stims/motorcycle/motorcycle30.jpg,/static/Category_learning/Stimuli/Experimental_stims/telescope/41V67SB5NJL._SS500_.jpg,0.0,telescope,motorcycle,60.0,20.0,telescope3,motorcycle1,40.0,0.0,0.0,52.807,1.307,,,,,,
93,,confirmation,,html-keyboard-response,93,121698,0.0-1.0-16.0-0.0-1.0-0.0,0,0,30311,,,,,,14.0,,,,,,,,,,,,,,,,,,,,,,,,,,,,,,,,53.0,0.193,,,,,,
94,,isi,,html-keyboard-response,94,121802,0.0-1.0-16.0-0.0-2.0,0,0,30311,,,,,,,,,,,,,,,,,,,,,,,,,,,,,,,,,,,,,,55.0,2.0,,,,,,
95,,feedback,,html-keyboard-response,95,122808,0.0-1.0-16.0-0.0-3.0-0.0,0,0,30311,,,,,,14.0,,,,,,,,,,,,,,,,,,,,,,,,,,,,,,,,56.0,1.0,,,,,,
96,,iti,,html-keyboard-response,96,122916,0.0-1.0-16.0-0.0-5.0,0,0,30311,,,,,,,,,,,,,,,,,,,,,,,,,,,,,,,,,,,,,,57.5,1.5,,,,,,
97,,choice,,html-keyboard-response,97,122976,0.0-1.0-17.0-0.0-0.0,0,0,30311,,57.0,,,68.0,15.0,315.0,1000.0,3000.0,0.0,6.0,0.0,20-20,,,key chain,frame,20.0,20.0,key chain11,frame1,20.0,0.0,31H95JKXWNL._SS500_.jpg,AFRAME127.jpg,/static/Category_learning/Stimuli/Experimental_stims/key chain/31H95JKXWNL._SS500_.jpg,/static/Category_learning/Stimuli/Experimental_stims/frame/AFRAME127.jpg,1.0,key chain,frame,20.0,20.0,key chain11,frame1,20.0,0.0,0.0,57.557,0.057,,,,,,
98,,confirmation,,html-keyboard-response,98,124425,0.0-1.0-17.0-0.0-1.0-0.0,0,0,30311,,,,,,15.0,,,,,,,,,,,,,,,,,,,,,,,,,,,,,,,,59.0,1.443,,,,,,
99,,isi,,html-keyboard-response,99,124528,0.0-1.0-17.0-0.0-2.0,0,0,30311,,,,,,,,,,,,,,,,,,,,,,,,,,,,,,,,,,,,,,60.0,1.0,,,,,,
100,,feedback,,html-keyboard-response,100,125534,0.0-1.0-17.0-0.0-3.0-0.0,0,0,30311,,,,,,15.0,,,,,,,,,,,,,,,,,,,,,,,,,,,,,,,,61.0,1.0,,,,,,
101,,iti,,html-keyboard-response,101,125640,0.0-1.0-17.0-0.0-5.0,0,0,30311,,,,,,,,,,,,,,,,,,,,,,,,,,,,,,,,,,,,,,64.0,3.0,,,,,,
102,,choice,,html-keyboard-response,102,126887,0.0-1.0-18.0-0.0-0.0,0,0,30311,,1243.0,,,75.0,16.0,316.0,3500.0,2000.0,0.0,6.0,1.0,60-80,0.0,,bowl,telescope,80.0,60.0,bowl4,telescope3,80.0,40.0,Abowl77.jpg,41V67SB5NJL._SS500_.jpg,/static/Category_learning/Stimuli/Experimental_stims/bowl/Abowl77.jpg,/static/Category_learning/Stimuli/Experimental_stims/telescope/41V67SB5NJL._SS500_.jpg,0.0,telescope,bowl,60.0,80.0,telescope3,bowl4,40.0,80.0,0.0,65.243,1.243,,,,,,
103,,confirmation,,html-keyboard-response,103,127150,0.0-1.0-18.0-0.0-1.0-0.0,0,0,30311,,,,,,16.0,,,,,,,,,,,,,,,,,,,,,,,,,,,,,,,,65.5,0.257,,,,,,
104,,isi,,html-keyboard-response,104,127255,0.0-1.0-18.0-0.0-2.0,0,0,30311,,,,,,,,,,,,,,,,,,,,,,,,,,,,,,,,,,,,,,69.0,3.5,,,,,,
105,,feedback,,html-keyboard-response,105,128262,0.0-1.0-18.0-0.0-3.0-0.0,0,0,30311,,,,,,16.0,,,,,,,,,,,,,,,,,,,,,,,,,,,,,,,,70.0,1.0,,,,,,
106,,iti,,html-keyboard-response,106,128366,0.0-1.0-18.0-0.0-5.0,0,0,30311,,,,,,,,,,,,,,,,,,,,,,,,,,,,,,,,,,,,,,72.0,2.0,,,,,,
107,,choice,,html-keyboard-response,107,128738,0.0-1.0-19.0-0.0-0.0,0,0,30311,,369.0,,,68.0,17.0,317.0,1000.0,1000.0,0.0,6.0,0.0,40-80,,0.0,necklace,baby carriage,40.0,80.0,necklace8,baby carriage11,40.0,80.0,Anecklace20.jpg,Baby_Carriage-2.jpg,/static/Category_learning/Stimuli/Experimental_stims/necklace/Anecklace20.jpg,/static/Category_learning/Stimuli/Experimental_stims/baby carriage/Baby_Carriage-2.jpg,1.0,necklace,baby carriage,40.0,80.0,necklace8,baby carriage11,40.0,80.0,0.0,72.369,0.369,,,,,,
108,,confirmation,,html-keyboard-response,108,129875,0.0-1.0-19.0-0.0-1.0-0.0,0,0,30311,,,,,,17.0,,,,,,,,,,,,,,,,,,,,,,,,,,,,,,,,73.5,1.131,,,,,,
109,,isi,,html-keyboard-response,109,129982,0.0-1.0-19.0-0.0-2.0,0,0,30311,,,,,,,,,,,,,,,,,,,,,,,,,,,,,,,,,,,,,,74.5,1.0,,,,,,
110,,feedback,,html-keyboard-response,110,130984,0.0-1.0-19.0-0.0-3.0-0.0,0,0,30311,,,,,,17.0,,,,,,,,,,,,,,,,,,,,,,,,,,,,,,,,75.5,1.0,,,,,,
111,,iti,,html-keyboard-response,111,131091,0.0-1.0-19.0-0.0-5.0,0,0,30311,,,,,,,,,,,,,,,,,,,,,,,,,,,,,,,,,,,,,,76.5,1.0,,,,,,
112,,choice,,html-keyboard-response,112,131268,0.0-1.0-20.0-0.0-0.0,0,0,30311,,173.0,,,68.0,18.0,318.0,2000.0,2000.0,0.0,6.0,0.0,40-80,,1.0,flashlight,power strip,80.0,40.0,flashlight13,power strip2,100.0,60.0,834808_sk_lg.jpg,59d69605-c8c8-4899-bd98-2ef78045147e_300.jpg,/static/Category_learning/Stimuli/Experimental_stims/flashlight/834808_sk_lg.jpg,/static/Category_learning/Stimuli/Experimental_stims/power strip/59d69605-c8c8-4899-bd98-2ef78045147e_300.jpg,1.0,flashlight,power strip,80.0,40.0,flashlight13,power strip2,100.0,60.0,0.0,76.673,0.173,,,,,,
113,,confirmation,,html-keyboard-response,113,132600,0.0-1.0-20.0-0.0-1.0-0.0,0,0,30311,,,,,,18.0,,,,,,,,,,,,,,,,,,,,,,,,,,,,,,,,78.0,1.327,,,,,,
114,,isi,,html-keyboard-response,114,132708,0.0-1.0-20.0-0.0-2.0,0,0,30311,,,,,,,,,,,,,,,,,,,,,,,,,,,,,,,,,,,,,,80.0,2.0,,,,,,
115,,feedback,,html-keyboard-response,115,133715,0.0-1.0-20.0-0.0-3.0-0.0,0,0,30311,,,,,,18.0,,,,,,,,,,,,,,,,,,,,,,,,,,,,,,,,81.0,1.0,,,,,,
116,,iti,,html-keyboard-response,116,133822,0.0-1.0-20.0-0.0-5.0,0,0,30311,,,,,,,,,,,,,,,,,,,,,,,,,,,,,,,,,,,,,,83.0,2.0,,,,,,
117,,choice,,html-keyboard-response,117,133955,0.0-1.0-21.0-0.0-0.0,0,0,30311,,129.0,,,75.0,19.0,319.0,2000.0,1000.0,0.0,6.0,0.0,60-60,,,stool,yarn,60.0,60.0,stool5,yarn6,80.0,80.0,ASTOOL23.jpg,edwardian moment hpy sml.jpg,/static/Category_learning/Stimuli/Experimental_stims/stool/ASTOOL23.jpg,/static/Category_learning/Stimuli/Experimental_stims/yarn/edwardian moment hpy sml.jpg,0.0,yarn,stool,60.0,60.0,yarn6,stool5,80.0,80.0,0.0,83.129,0.129,,,,,,
118,,confirmation,,html-keyboard-response,118,135331,0.0-1.0-21.0-0.0-1.0-0.0,0,0,30311,,,,,,19.0,,,,,,,,,,,,,,,,,,,,,,,,,,,,,,,,84.5,1.371,,,,,,
119,,isi,,html-keyboard-response,119,135438,0.0-1.0-21.0-0.0-2.0,0,0,30311,,,,,,,,,,,,,,,,,,,,,,,,,,,,,,,,,,,,,,86.5,2.0,,,,,,
120,,feedback,,html-keyboard-response,120,136446,0.0-1.0-21.0-0.0-3.0-0.0,0,0,30311,,,,,,19.0,,,,,,,,,,,,,,,,,,,,,,,,,,,,,,,,87.5,1.0,,,,,,
121,,iti,,html-keyboard-response,121,136553,0.0-1.0-21.0-0.0-5.0,0,0,30311,,,,,,,,,,,,,,,,,,,,,,,,,,,,,,,,,,,,,,88.5,1.0,,,,,,
122,,choice,,html-keyboard-response,122,136650,0.0-1.0-22.0-0.0-0.0,0,0,30311,,95.0,,,68.0,20.0,320.0,1500.0,1500.0,0.0,6.0,0.0,20-80,,0.0,makeup compact,door knob,20.0,80.0,makeup compact13,door knob15,20.0,100.0,31YfapjS3TL._AA250_.jpg,Legacy_oval.jpg,/static/Category_learning/Stimuli/Experimental_stims/makeup compact/31YfapjS3TL._AA250_.jpg,/static/Category_learning/Stimuli/Experimental_stims/door knob/Legacy_oval.jpg,1.0,makeup compact,door knob,20.0,80.0,makeup compact13,door knob15,20.0,100.0,0.0,88.595,0.095,,,,,,
123,,confirmation,,html-keyboard-response,123,138059,0.0-1.0-22.0-0.0-1.0-0.0,0,0,30311,,,,,,20.0,,,,,,,,,,,,,,,,,,,,,,,,,,,,,,,,90.0,1.405,,,,,,
124,,isi,,html-keyboard-response,124,138163,0.0-1.0-22.0-0.0-2.0,0,0,30311,,,,,,,,,,,,,,,,,,,,,,,,,,,,,,,,,,,,,,91.5,1.5,,,,,,
125,,feedback,,html-keyboard-response,125,139168,0.0-1.0-22.0-0.0-3.0-0.0,0,0,30311,,,,,,20.0,,,,,,,,,,,,,,,,,,,,,,,,,,,,,,,,92.5,1.0,,,,,,
126,,iti,,html-keyboard-response,126,139273,0.0-1.0-22.0-0.0-5.0,0,0,30311,,,,,,,,,,,,,,,,,,,,,,,,,,,,,,,,,,,,,,94.0,1.5,,,,,,
127,,choice,,html-keyboard-response,127,139349,0.0-1.0-23.0-0.0-0.0,0,0,30311,,73.0,,,75.0,21.0,321.0,1500.0,2000.0,0.0,6.0,1.0,40-40,1.0,,necklace,necklace,40.0,40.0,necklace8,necklace6,40.0,60.0,Anecklace20.jpg,Agoldnecklace.jpg,/static/Category_learning/Stimuli/Experimental_stims/necklace/Anecklace20.jpg,/static/Category_learning/Stimuli/Experimental_stims/necklace/Agoldnecklace.jpg,0.0,necklace,necklace,40.0,40.0,necklace6,necklace8,60.0,40.0,0.0,94.073,0.073,,,,,,
128,,confirmation,,html-keyboard-response,128,140780,0.0-1.0-23.0-0.0-1.0-0.0,0,0,30311,,,,,,21.0,,,,,,,,,,,,,,,,,,,,,,,,,,,,,,,,95.5,1.427,,,,,,
129,,isi,,html-keyboard-response,129,140882,0.0-1.0-23.0-0.0-2.0,0,0,30311,,,,,,,,,,,,,,,,,,,,,,,,,,,,,,,,,,,,,,97.0,1.5,,,,,,
130,,feedback,,html-keyboard-response,130,141888,0.0-1.0-23.0-0.0-3.0-0.0,0,0,30311,,,,,,21.0,,,,,,,,,,,,,,,,,,,,,,,,,,,,,,,,98.0,1.0,,,,,,
131,,iti,,html-keyboard-response,131,141993,0.0-1.0-23.0-0.0-5.0,0,0,30311,,,,,,,,,,,,,,,,,,,,,,,,,,,,,,,,,,,,,,100.0,2.0,,,,,,
132,,choice,,html-keyboard-response,132,142019,0.0-1.0-24.0-0.0-0.0,0,0,30311,,24.0,,,68.0,22.0,322.0,3500.0,1000.0,0.0,6.0,0.0,60-80,,1.0,baby carriage,vase,80.0,60.0,baby carriage15,vase1,100.0,80.0,AANBABYC2.jpg,Avase114.jpg,/static/Category_learning/Stimuli/Experimental_stims/baby carriage/AANBABYC2.jpg,/static/Category_learning/Stimuli/Experimental_stims/vase/Avase114.jpg,1.0,baby carriage,vase,80.0,60.0,baby carriage15,vase1,100.0,80.0,0.0,100.024,0.024,,,,,,
133,,confirmation,,html-keyboard-response,133,143502,0.0-1.0-24.0-0.0-1.0-0.0,0,0,30311,,,,,,22.0,,,,,,,,,,,,,,,,,,,,,,,,,,,,,,,,101.5,1.476,,,,,,
134,,isi,,html-keyboard-response,134,143609,0.0-1.0-24.0-0.0-2.0,0,0,30311,,,,,,,,,,,,,,,,,,,,,,,,,,,,,,,,,,,,,,105.0,3.5,,,,,,
135,,feedback,,html-keyboard-response,135,144616,0.0-1.0-24.0-0.0-3.0-0.0,0,0,30311,,,,,,22.0,,,,,,,,,,,,,,,,,,,,,,,,,,,,,,,,106.0,1.0,,,,,,
136,,iti,,html-keyboard-response,136,144724,0.0-1.0-24.0-0.0-5.0,0,0,30311,,,,,,,,,,,,,,,,,,,,,,,,,,,,,,,,,,,,,,107.0,1.0,,,,,,
137,,choice,,html-keyboard-response,137,144931,0.0-1.0-25.0-0.0-0.0,0,0,30311,,204.0,,,75.0,23.0,323.0,1500.0,2000.0,0.0,6.0,0.0,20-60,,0.0,frame,telescope,20.0,60.0,frame14,telescope11,20.0,60.0,AFRAME129.jpg,digimarc.ms03.jpg,/static/Category_learning/Stimuli/Experimental_stims/frame/AFRAME129.jpg,/static/Category_learning/Stimuli/Experimental_stims/telescope/digimarc.ms03.jpg,0.0,telescope,frame,60.0,20.0,telescope11,frame14,60.0,20.0,0.0,107.204,0.204,,,,,,
138,,confirmation,,html-keyboard-response,138,146233,0.0-1.0-25.0-0.0-1.0-0.0,0,0,30311,,,,,,23.0,,,,,,,,,,,,,,,,,,,,,,,,,,,,,,,,108.5,1.296,,,,,,
139,,isi,,html-keyboard-response,139,146340,0.0-1.0-25.0-0.0-2.0,0,0,30311,,,,,,,,,,,,,,,,,,,,,,,,,,,,,,,,,,,,,,110.0,1.5,,,,,,
140,,feedback,,html-keyboard-response,140,147348,0.0-1.0-25.0-0.0-3.0-0.0,0,0,30311,,,,,,23.0,,,,,,,,,,,,,,,,,,,,,,,,,,,,,,,,111.0,1.0,,,,,,
141,,iti,,html-keyboard-response,141,147454,0.0-1.0-25.0-0.0-5.0,0,0,30311,,,,,,,,,,,,,,,,,,,,,,,,,,,,,,,,,,,,,,113.0,2.0,,,,,,
142,,choice,,html-keyboard-response,142,147599,0.0-1.0-26.0-0.0-0.0,0,0,30311,,141.0,,,75.0,24.0,324.0,3000.0,1500.0,0.0,6.0,0.0,20-20,,,license plate,lipstick,20.0,20.0,license plate11,lipstick13,20.0,40.0,az-942-atg.jpg,P184708_hero.jpg,/static/Category_learning/Stimuli/Experimental_stims/license plate/az-942-atg.jpg,/static/Category_learning/Stimuli/Experimental_stims/lipstick/P184708_hero.jpg,0.0,lipstick,license plate,20.0,20.0,lipstick13,license plate11,40.0,20.0,0.0,113.141,0.141,,,,,,
143,,confirmation,,html-keyboard-response,143,148964,0.0-1.0-26.0-0.0-1.0-0.0,0,0,30311,,,,,,24.0,,,,,,,,,,,,,,,,,,,,,,,,,,,,,,,,114.5,1.359,,,,,,
144,,isi,,html-keyboard-response,144,149068,0.0-1.0-26.0-0.0-2.0,0,0,30311,,,,,,,,,,,,,,,,,,,,,,,,,,,,,,,,,,,,,,117.5,3.0,,,,,,
145,,feedback,,html-keyboard-response,145,150075,0.0-1.0-26.0-0.0-3.0-0.0,0,0,30311,,,,,,24.0,,,,,,,,,,,,,,,,,,,,,,,,,,,,,,,,118.5,1.0,,,,,,
146,,iti,,html-keyboard-response,146,150179,0.0-1.0-26.0-0.0-5.0,0,0,30311,,,,,,,,,,,,,,,,,,,,,,,,,,,,,,,,,,,,,,120.0,1.5,,,,,,
147,,choice,,html-keyboard-response,147,150327,0.0-1.0-27.0-0.0-0.0,0,0,30311,,145.0,,,68.0,25.0,325.0,1500.0,1500.0,0.0,6.0,0.0,80-80,,,flashlight,dresser,80.0,80.0,flashlight5,dresser4,80.0,100.0,Streamlight-71001-Jr-Flashlight-W-batteries-black-B00018A3CG-L.jpg,ADRESSE40.jpg,/static/Category_learning/Stimuli/Experimental_stims/flashlight/Streamlight-71001-Jr-Flashlight-W-batteries-black-B00018A3CG-L.jpg,/static/Category_learning/Stimuli/Experimental_stims/dresser/ADRESSE40.jpg,1.0,flashlight,dresser,80.0,80.0,flashlight5,dresser4,80.0,100.0,0.0,120.145,0.145,,,,,,
148,,confirmation,,html-keyboard-response,148,151686,0.0-1.0-27.0-0.0-1.0-0.0,0,0,30311,,,,,,25.0,,,,,,,,,,,,,,,,,,,,,,,,,,,,,,,,121.5,1.355,,,,,,
149,,isi,,html-keyboard-response,149,151790,0.0-1.0-27.0-0.0-2.0,0,0,30311,,,,,,,,,,,,,,,,,,,,,,,,,,,,,,,,,,,,,,123.0,1.5,,,,,,
150,,feedback,,html-keyboard-response,150,152798,0.0-1.0-27.0-0.0-3.0-0.0,0,0,30311,,,,,,25.0,,,,,,,,,,,,,,,,,,,,,,,,,,,,,,,,124.0,1.0,,,,,,
151,,iti,,html-keyboard-response,151,152905,0.0-1.0-27.0-0.0-5.0,0,0,30311,,,,,,,,,,,,,,,,,,,,,,,,,,,,,,,,,,,,,,125.5,1.5,,,,,,
152,,choice,,html-keyboard-response,152,153137,0.0-1.0-28.0-0.0-0.0,0,0,30311,,229.0,,,68.0,26.0,326.0,1500.0,2000.0,0.0,6.0,0.0,20-80,,1.0,bowl,license plate,80.0,20.0,bowl9,license plate7,80.0,0.0,21123_285.jpg,co-825-fjf.jpg,/static/Category_learning/Stimuli/Experimental_stims/bowl/21123_285.jpg,/static/Category_learning/Stimuli/Experimental_stims/license plate/co-825-fjf.jpg,1.0,bowl,license plate,80.0,20.0,bowl9,license plate7,80.0,0.0,0.0,125.729,0.229,,,,,,
153,,confirmation,,html-keyboard-response,153,154414,0.0-1.0-28.0-0.0-1.0-0.0,0,0,30311,,,,,,26.0,,,,,,,,,,,,,,,,,,,,,,,,,,,,,,,,127.0,1.271,,,,,,
154,,isi,,html-keyboard-response,154,154521,0.0-1.0-28.0-0.0-2.0,0,0,30311,,,,,,,,,,,,,,,,,,,,,,,,,,,,,,,,,,,,,,128.5,1.5,,,,,,
155,,feedback,,html-keyboard-response,155,155526,0.0-1.0-28.0-0.0-3.0-0.0,0,0,30311,,,,,,26.0,,,,,,,,,,,,,,,,,,,,,,,,,,,,,,,,129.5,1.0,,,,,,
156,,iti,,html-keyboard-response,156,155631,0.0-1.0-28.0-0.0-5.0,0,0,30311,,,,,,,,,,,,,,,,,,,,,,,,,,,,,,,,,,,,,,131.5,2.0,,,,,,
157,,choice,,html-keyboard-response,157,155772,0.0-1.0-29.0-0.0-0.0,0,0,30311,,138.0,,,75.0,27.0,327.0,1000.0,1500.0,0.0,6.0,0.0,20-60,,0.0,key chain,stool,20.0,60.0,key chain1,stool2,40.0,40.0,jm05s16.jpg,ASTOOL46.jpg,/static/Category_learning/Stimuli/Experimental_stims/key chain/jm05s16.jpg,/static/Category_learning/Stimuli/Experimental_stims/stool/ASTOOL46.jpg,0.0,stool,key chain,60.0,20.0,stool2,key chain1,40.0,40.0,0.0,131.638,0.138,,,,,,
158,,confirmation,,html-keyboard-response,158,157137,0.0-1.0-29.0-0.0-1.0-0.0,0,0,30311,,,,,,27.0,,,,,,,,,,,,,,,,,,,,,,,,,,,,,,,,133.0,1.362,,,,,,
159,,isi,,html-keyboard-response,159,157242,0.0-1.0-29.0-0.0-2.0,0,0,30311,,,,,,,,,,,,,,,,,,,,,,,,,,,,,,,,,,,,,,134.0,1.0,,,,,,
160,,feedback,,html-keyboard-response,160,158249,0.0-1.0-29.0-0.0-3.0-0.0,0,0,30311,,,,,,27.0,,,,,,,,,,,,,,,,,,,,,,,,,,,,,,,,135.0,1.0,,,,,,
161,,iti,,html-keyboard-response,161,158356,0.0-1.0-29.0-0.0-5.0,0,0,30311,,,,,,,,,,,,,,,,,,,,,,,,,,,,,,,,,,,,,,136.5,1.5,,,,,,
162,,choice,,html-keyboard-response,162,158897,0.0-1.0-30.0-0.0-0.0,0,0,30311,,537.0,,,75.0,28.0,328.0,1000.0,1000.0,0.0,6.0,1.0,80-80,1.0,,flashlight,flashlight,80.0,80.0,flashlight5,flashlight13,80.0,100.0,Streamlight-71001-Jr-Flashlight-W-batteries-black-B00018A3CG-L.jpg,834808_sk_lg.jpg,/static/Category_learning/Stimuli/Experimental_stims/flashlight/Streamlight-71001-Jr-Flashlight-W-batteries-black-B00018A3CG-L.jpg,/static/Category_learning/Stimuli/Experimental_stims/flashlight/834808_sk_lg.jpg,0.0,flashlight,flashlight,80.0,80.0,flashlight13,flashlight5,100.0,80.0,0.0,137.037,0.537,,,,,,
163,,confirmation,,html-keyboard-response,163,159867,0.0-1.0-30.0-0.0-1.0-0.0,0,0,30311,,,,,,28.0,,,,,,,,,,,,,,,,,,,,,,,,,,,,,,,,138.0,0.963,,,,,,
164,,isi,,html-keyboard-response,164,159972,0.0-1.0-30.0-0.0-2.0,0,0,30311,,,,,,,,,,,,,,,,,,,,,,,,,,,,,,,,,,,,,,139.0,1.0,,,,,,
165,,feedback,,html-keyboard-response,165,160979,0.0-1.0-30.0-0.0-3.0-0.0,0,0,30311,,,,,,28.0,,,,,,,,,,,,,,,,,,,,,,,,,,,,,,,,140.0,1.0,,,,,,
166,,iti,,html-keyboard-response,166,161086,0.0-1.0-30.0-0.0-5.0,0,0,30311,,,,,,,,,,,,,,,,,,,,,,,,,,,,,,,,,,,,,,141.0,1.0,,,,,,
167,,choice,,html-keyboard-response,167,161099,0.0-1.0-31.0-0.0-0.0,0,0,30311,,9.0,,,75.0,29.0,329.0,2000.0,1000.0,0.0,6.0,0.0,20-80,,0.0,lipstick,bench,20.0,80.0,lipstick3,bench11,0.0,80.0,31sCvjMS3jL._SS500_.jpg,22928468.thl.jpg,/static/Category_learning/Stimuli/Experimental_stims/lipstick/31sCvjMS3jL._SS500_.jpg,/static/Category_learning/Stimuli/Experimental_stims/bench/22928468.thl.jpg,0.0,bench,lipstick,80.0,20.0,bench11,lipstick3,80.0,0.0,0.0,141.009,0.009,,,,,,
168,,confirmation,,html-keyboard-response,168,162595,0.0-1.0-31.0-0.0-1.0-0.0,0,0,30311,,,,,,29.0,,,,,,,,,,,,,,,,,,,,,,,,,,,,,,,,142.5,1.491,,,,,,
169,,isi,,html-keyboard-response,169,162702,0.0-1.0-31.0-0.0-2.0,0,0,30311,,,,,,,,,,,,,,,,,,,,,,,,,,,,,,,,,,,,,,144.5,2.0,,,,,,
170,,feedback,,html-keyboard-response,170,163709,0.0-1.0-31.0-0.0-3.0-0.0,0,0,30311,,,,,,29.0,,,,,,,,,,,,,,,,,,,,,,,,,,,,,,,,145.5,1.0,,,,,,
171,,iti,,html-keyboard-response,171,163816,0.0-1.0-31.0-0.0-5.0,0,0,30311,,,,,,,,,,,,,,,,,,,,,,,,,,,,,,,,,,,,,,146.5,1.0,,,,,,
172,,choice,,html-keyboard-response,172,164114,0.0-1.0-32.0-0.0-0.0,0,0,30311,,295.0,,,68.0,30.0,330.0,1000.0,1000.0,0.0,6.0,0.0,20-80,,1.0,bench,license plate,80.0,20.0,bench15,license plate2,80.0,40.0,Abench12.jpg,ny-u93-8zs.jpg,/static/Category_learning/Stimuli/Experimental_stims/bench/Abench12.jpg,/static/Category_learning/Stimuli/Experimental_stims/license plate/ny-u93-8zs.jpg,1.0,bench,license plate,80.0,20.0,bench15,license plate2,80.0,40.0,0.0,146.795,0.295,,,,,,
173,,confirmation,,html-keyboard-response,173,165327,0.0-1.0-32.0-0.0-1.0-0.0,0,0,30311,,,,,,30.0,,,,,,,,,,,,,,,,,,,,,,,,,,,,,,,,148.0,1.205,,,,,,
174,,isi,,html-keyboard-response,174,165431,0.0-1.0-32.0-0.0-2.0,0,0,30311,,,,,,,,,,,,,,,,,,,,,,,,,,,,,,,,,,,,,,149.0,1.0,,,,,,
175,,feedback,,html-keyboard-response,175,166436,0.0-1.0-32.0-0.0-3.0-0.0,0,0,30311,,,,,,30.0,,,,,,,,,,,,,,,,,,,,,,,,,,,,,,,,150.0,1.0,,,,,,
176,,iti,,html-keyboard-response,176,166542,0.0-1.0-32.0-0.0-5.0,0,0,30311,,,,,,,,,,,,,,,,,,,,,,,,,,,,,,,,,,,,,,151.0,1.0,,,,,,
177,,choice,,html-keyboard-response,177,166571,0.0-1.0-33.0-0.0-0.0,0,0,30311,,26.0,,,75.0,31.0,331.0,2000.0,1000.0,0.0,6.0,0.0,40-40,,,necklace,sofa,40.0,40.0,necklace2,sofa11,20.0,60.0,Anecklace7.jpg,ALOVSEA19.jpg,/static/Category_learning/Stimuli/Experimental_stims/necklace/Anecklace7.jpg,/static/Category_learning/Stimuli/Experimental_stims/sofa/ALOVSEA19.jpg,0.0,sofa,necklace,40.0,40.0,sofa11,necklace2,60.0,20.0,0.0,151.026,0.026,,,,,,
178,,confirmation,,html-keyboard-response,178,168048,0.0-1.0-33.0-0.0-1.0-0.0,0,0,30311,,,,,,31.0,,,,,,,,,,,,,,,,,,,,,,,,,,,,,,,,152.5,1.474,,,,,,
179,,isi,,html-keyboard-response,179,168153,0.0-1.0-33.0-0.0-2.0,0,0,30311,,,,,,,,,,,,,,,,,,,,,,,,,,,,,,,,,,,,,,154.5,2.0,,,,,,
180,,feedback,,html-keyboard-response,180,169157,0.0-1.0-33.0-0.0-3.0-0.0,0,0,30311,,,,,,31.0,,,,,,,,,,,,,,,,,,,,,,,,,,,,,,,,155.5,1.0,,,,,,
181,,iti,,html-keyboard-response,181,169262,0.0-1.0-33.0-0.0-5.0,0,0,30311,,,,,,,,,,,,,,,,,,,,,,,,,,,,,,,,,,,,,,156.5,1.0,,,,,,
182,,choice,,html-keyboard-response,182,169312,0.0-1.0-34.0-0.0-0.0,0,0,30311,,46.0,,,75.0,32.0,332.0,1000.0,1000.0,0.0,6.0,1.0,80-80,1.0,,bench,bench,80.0,80.0,bench11,bench15,80.0,80.0,22928468.thl.jpg,Abench12.jpg,/static/Category_learning/Stimuli/Experimental_stims/bench/22928468.thl.jpg,/static/Category_learning/Stimuli/Experimental_stims/bench/Abench12.jpg,0.0,bench,bench,80.0,80.0,bench15,bench11,80.0,80.0,0.0,156.546,0.046,,,,,,
183,,confirmation,,html-keyboard-response,183,170771,0.0-1.0-34.0-0.0-1.0-0.0,0,0,30311,,,,,,32.0,,,,,,,,,,,,,,,,,,,,,,,,,,,,,,,,158.0,1.454,,,,,,
184,,isi,,html-keyboard-response,184,170879,0.0-1.0-34.0-0.0-2.0,0,0,30311,,,,,,,,,,,,,,,,,,,,,,,,,,,,,,,,,,,,,,159.0,1.0,,,,,,
185,,feedback,,html-keyboard-response,185,171887,0.0-1.0-34.0-0.0-3.0-0.0,0,0,30311,,,,,,32.0,,,,,,,,,,,,,,,,,,,,,,,,,,,,,,,,160.0,1.0,,,,,,
186,,iti,,html-keyboard-response,186,171993,0.0-1.0-34.0-0.0-5.0,0,0,30311,,,,,,,,,,,,,,,,,,,,,,,,,,,,,,,,,,,,,,161.0,1.0,,,,,,
187,,choice,,html-keyboard-response,187,172501,0.0-1.0-35.0-0.0-0.0,0,0,30311,,505.0,,,75.0,33.0,333.0,1500.0,1500.0,0.0,6.0,0.0,60-80,,0.0,tent,dresser,60.0,80.0,tent7,dresser6,80.0,80.0,9238gh948h.jpg,ADRESSE96.jpg,/static/Category_learning/Stimuli/Experimental_stims/tent/9238gh948h.jpg,/static/Category_learning/Stimuli/Experimental_stims/dresser/ADRESSE96.jpg,0.0,dresser,tent,80.0,60.0,dresser6,tent7,80.0,80.0,0.0,161.505,0.505,,,,,,
188,,confirmation,,html-keyboard-response,188,173503,0.0-1.0-35.0-0.0-1.0-0.0,0,0,30311,,,,,,33.0,,,,,,,,,,,,,,,,,,,,,,,,,,,,,,,,162.5,0.995,,,,,,
189,,isi,,html-keyboard-response,189,173609,0.0-1.0-35.0-0.0-2.0,0,0,30311,,,,,,,,,,,,,,,,,,,,,,,,,,,,,,,,,,,,,,164.0,1.5,,,,,,
190,,feedback,,html-keyboard-response,190,174612,0.0-1.0-35.0-0.0-3.0-0.0,0,0,30311,,,,,,33.0,,,,,,,,,,,,,,,,,,,,,,,,,,,,,,,,165.0,1.0,,,,,,
191,,iti,,html-keyboard-response,191,174716,0.0-1.0-35.0-0.0-5.0,0,0,30311,,,,,,,,,,,,,,,,,,,,,,,,,,,,,,,,,,,,,,166.5,1.5,,,,,,
192,,choice,,html-keyboard-response,192,174898,0.0-1.0-36.0-0.0-0.0,0,0,30311,,178.0,,,75.0,34.0,334.0,1000.0,1500.0,0.0,6.0,0.0,40-80,,0.0,necklace,desk,40.0,80.0,necklace1,desk14,40.0,60.0,26443173.thl.jpg,26419960.thl.jpg,/static/Category_learning/Stimuli/Experimental_stims/necklace/26443173.thl.jpg,/static/Category_learning/Stimuli/Experimental_stims/desk/26419960.thl.jpg,0.0,desk,necklace,80.0,40.0,desk14,necklace1,60.0,40.0,0.0,166.678,0.178,,,,,,
193,,confirmation,,html-keyboard-response,193,176228,0.0-1.0-36.0-0.0-1.0-0.0,0,0,30311,,,,,,34.0,,,,,,,,,,,,,,,,,,,,,,,,,,,,,,,,168.0,1.322,,,,,,
194,,isi,,html-keyboard-response,194,176331,0.0-1.0-36.0-0.0-2.0,0,0,30311,,,,,,,,,,,,,,,,,,,,,,,,,,,,,,,,,,,,,,169.0,1.0,,,,,,
195,,feedback,,html-keyboard-response,195,177336,0.0-1.0-36.0-0.0-3.0-0.0,0,0,30311,,,,,,34.0,,,,,,,,,,,,,,,,,,,,,,,,,,,,,,,,170.0,1.0,,,,,,
196,,iti,,html-keyboard-response,196,177439,0.0-1.0-36.0-0.0-5.0,0,0,30311,,,,,,,,,,,,,,,,,,,,,,,,,,,,,,,,,,,,,,171.5,1.5,,,,,,
197,,choice,,html-keyboard-response,197,177545,0.0-1.0-37.0-0.0-0.0,0,0,30311,,103.0,,,68.0,35.0,335.0,1000.0,3500.0,0.0,6.0,0.0,40-80,,1.0,fan,sofa,80.0,40.0,fan13,sofa3,80.0,40.0,511976_sk_lg.jpg,ACOUCH14.jpg,/static/Category_learning/Stimuli/Experimental_stims/fan/511976_sk_lg.jpg,/static/Category_learning/Stimuli/Experimental_stims/sofa/ACOUCH14.jpg,1.0,fan,sofa,80.0,40.0,fan13,sofa3,80.0,40.0,0.0,171.603,0.103,,,,,,
198,,confirmation,,html-keyboard-response,198,178946,0.0-1.0-37.0-0.0-1.0-0.0,0,0,30311,,,,,,35.0,,,,,,,,,,,,,,,,,,,,,,,,,,,,,,,,173.0,1.397,,,,,,
199,,isi,,html-keyboard-response,199,179054,0.0-1.0-37.0-0.0-2.0,0,0,30311,,,,,,,,,,,,,,,,,,,,,,,,,,,,,,,,,,,,,,174.0,1.0,,,,,,
200,,feedback,,html-keyboard-response,200,180062,0.0-1.0-37.0-0.0-3.0-0.0,0,0,30311,,,,,,35.0,,,,,,,,,,,,,,,,,,,,,,,,,,,,,,,,175.0,1.0,,,,,,
201,,iti,,html-keyboard-response,201,180169,0.0-1.0-37.0-0.0-5.0,0,0,30311,,,,,,,,,,,,,,,,,,,,,,,,,,,,,,,,,,,,,,178.5,3.5,,,,,,
202,,choice,,html-keyboard-response,202,180199,0.0-1.0-38.0-0.0-0.0,0,0,30311,,26.0,,,68.0,36.0,336.0,1500.0,3000.0,0.0,6.0,1.0,40-80,0.0,,sofa,fan,40.0,80.0,sofa11,fan13,60.0,80.0,ALOVSEA19.jpg,511976_sk_lg.jpg,/static/Category_learning/Stimuli/Experimental_stims/sofa/ALOVSEA19.jpg,/static/Category_learning/Stimuli/Experimental_stims/fan/511976_sk_lg.jpg,1.0,sofa,fan,40.0,80.0,sofa11,fan13,60.0,80.0,0.0,178.526,0.026,,,,,,
203,,confirmation,,html-keyboard-response,203,181676,0.0-1.0-38.0-0.0-1.0-0.0,0,0,30311,,,,,,36.0,,,,,,,,,,,,,,,,,,,,,,,,,,,,,,,,180.0,1.474,,,,,,
204,,isi,,html-keyboard-response,204,181780,0.0-1.0-38.0-0.0-2.0,0,0,30311,,,,,,,,,,,,,,,,,,,,,,,,,,,,,,,,,,,,,,181.5,1.5,,,,,,
205,,feedback,,html-keyboard-response,205,182787,0.0-1.0-38.0-0.0-3.0-0.0,0,0,30311,,,,,,36.0,,,,,,,,,,,,,,,,,,,,,,,,,,,,,,,,182.5,1.0,,,,,,
206,,iti,,html-keyboard-response,206,182894,0.0-1.0-38.0-0.0-5.0,0,0,30311,,,,,,,,,,,,,,,,,,,,,,,,,,,,,,,,,,,,,,185.5,3.0,,,,,,
207,,choice,,html-keyboard-response,207,182979,0.0-1.0-39.0-0.0-0.0,0,0,30311,,81.0,,,75.0,37.0,337.0,1500.0,1000.0,0.0,6.0,0.0,40-60,,1.0,trumpet,poker card,60.0,40.0,trumpet7,poker card10,60.0,20.0,JTP-606MRS.jpg,22864488.thl.jpg,/static/Category_learning/Stimuli/Experimental_stims/trumpet/JTP-606MRS.jpg,/static/Category_learning/Stimuli/Experimental_stims/poker card/22864488.thl.jpg,0.0,poker card,trumpet,40.0,60.0,poker card10,trumpet7,20.0,60.0,0.0,185.581,0.081,,,,,,
208,,confirmation,,html-keyboard-response,208,184404,0.0-1.0-39.0-0.0-1.0-0.0,0,0,30311,,,,,,37.0,,,,,,,,,,,,,,,,,,,,,,,,,,,,,,,,187.0,1.419,,,,,,
209,,isi,,html-keyboard-response,209,184510,0.0-1.0-39.0-0.0-2.0,0,0,30311,,,,,,,,,,,,,,,,,,,,,,,,,,,,,,,,,,,,,,188.5,1.5,,,,,,
210,,feedback,,html-keyboard-response,210,185518,0.0-1.0-39.0-0.0-3.0-0.0,0,0,30311,,,,,,37.0,,,,,,,,,,,,,,,,,,,,,,,,,,,,,,,,189.5,1.0,,,,,,
211,,iti,,html-keyboard-response,211,185625,0.0-1.0-39.0-0.0-5.0,0,0,30311,,,,,,,,,,,,,,,,,,,,,,,,,,,,,,,,,,,,,,190.5,1.0,,,,,,
212,,choice,,html-keyboard-response,212,185721,0.0-1.0-40.0-0.0-0.0,0,0,30311,,92.0,,,75.0,38.0,338.0,1000.0,1000.0,0.0,6.0,0.0,20-80,,0.0,frame,bowl,20.0,80.0,frame8,bowl5,20.0,100.0,AFRAME154.jpg,AWOODBOWL.jpg,/static/Category_learning/Stimuli/Experimental_stims/frame/AFRAME154.jpg,/static/Category_learning/Stimuli/Experimental_stims/bowl/AWOODBOWL.jpg,0.0,bowl,frame,80.0,20.0,bowl5,frame8,100.0,20.0,0.0,190.592,0.092,,,,,,
213,,confirmation,,html-keyboard-response,213,187134,0.0-1.0-40.0-0.0-1.0-0.0,0,0,30311,,,,,,38.0,,,,,,,,,,,,,,,,,,,,,,,,,,,,,,,,192.0,1.408,,,,,,
214,,isi,,html-keyboard-response,214,187239,0.0-1.0-40.0-0.0-2.0,0,0,30311,,,,,,,,,,,,,,,,,,,,,,,,,,,,,,,,,,,,,,193.0,1.0,,,,,,
215,,feedback,,html-keyboard-response,215,188244,0.0-1.0-40.0-0.0-3.0-0.0,0,0,30311,,,,,,38.0,,,,,,,,,,,,,,,,,,,,,,,,,,,,,,,,194.0,1.0,,,,,,
216,,iti,,html-keyboard-response,216,188347,0.0-1.0-40.0-0.0-5.0,0,0,30311,,,,,,,,,,,,,,,,,,,,,,,,,,,,,,,,,,,,,,195.0,1.0,,,,,,
217,,choice,,html-keyboard-response,217,188465,0.0-1.0-41.0-0.0-0.0,0,0,30311,,115.0,,,68.0,39.0,339.0,3500.0,1000.0,0.0,6.0,1.0,80-80,1.0,,bowl,bowl,80.0,80.0,bowl5,bowl9,100.0,80.0,AWOODBOWL.jpg,21123_285.jpg,/static/Category_learning/Stimuli/Experimental_stims/bowl/AWOODBOWL.jpg,/static/Category_learning/Stimuli/Experimental_stims/bowl/21123_285.jpg,1.0,bowl,bowl,80.0,80.0,bowl5,bowl9,100.0,80.0,0.0,195.115,0.115,,,,,,
218,,confirmation,,html-keyboard-response,218,189854,0.0-1.0-41.0-0.0-1.0-0.0,0,0,30311,,,,,,39.0,,,,,,,,,,,,,,,,,,,,,,,,,,,,,,,,196.5,1.385,,,,,,
219,,isi,,html-keyboard-response,219,189961,0.0-1.0-41.0-0.0-2.0,0,0,30311,,,,,,,,,,,,,,,,,,,,,,,,,,,,,,,,,,,,,,200.0,3.5,,,,,,
220,,feedback,,html-keyboard-response,220,190965,0.0-1.0-41.0-0.0-3.0-0.0,0,0,30311,,,,,,39.0,,,,,,,,,,,,,,,,,,,,,,,,,,,,,,,,201.0,1.0,,,,,,
221,,iti,,html-keyboard-response,221,191070,0.0-1.0-41.0-0.0-5.0,0,0,30311,,,,,,,,,,,,,,,,,,,,,,,,,,,,,,,,,,,,,,202.0,1.0,,,,,,
222,,choice,,html-keyboard-response,222,191106,0.0-1.0-42.0-0.0-0.0,0,0,30311,,33.0,,,75.0,40.0,340.0,1000.0,3500.0,0.0,6.0,0.0,40-80,,0.0,poker card,bongo,40.0,80.0,poker card14,bongo14,60.0,60.0,22864248.thl.jpg,26390667.thl.jpg,/static/Category_learning/Stimuli/Experimental_stims/poker card/22864248.thl.jpg,/static/Category_learning/Stimuli/Experimental_stims/bongo/26390667.thl.jpg,0.0,bongo,poker card,80.0,40.0,bongo14,poker card14,60.0,60.0,0.0,202.033,0.033,,,,,,
223,,confirmation,,html-keyboard-response,223,192580,0.0-1.0-42.0-0.0-1.0-0.0,0,0,30311,,,,,,40.0,,,,,,,,,,,,,,,,,,,,,,,,,,,,,,,,203.5,1.467,,,,,,
224,,isi,,html-keyboard-response,224,192686,0.0-1.0-42.0-0.0-2.0,0,0,30311,,,,,,,,,,,,,,,,,,,,,,,,,,,,,,,,,,,,,,204.5,1.0,,,,,,
225,,feedback,,html-keyboard-response,225,193690,0.0-1.0-42.0-0.0-3.0-0.0,0,0,30311,,,,,,40.0,,,,,,,,,,,,,,,,,,,,,,,,,,,,,,,,205.5,1.0,,,,,,
226,,iti,,html-keyboard-response,226,193792,0.0-1.0-42.0-0.0-5.0,0,0,30311,,,,,,,,,,,,,,,,,,,,,,,,,,,,,,,,,,,,,,209.0,3.5,,,,,,
227,,choice,,html-keyboard-response,227,193827,0.0-1.0-43.0-0.0-0.0,0,0,30311,,31.0,,,68.0,41.0,341.0,2000.0,1000.0,0.0,6.0,1.0,20-80,0.0,,dresser,lipstick,80.0,20.0,dresser6,lipstick13,80.0,40.0,ADRESSE96.jpg,P184708_hero.jpg,/static/Category_learning/Stimuli/Experimental_stims/dresser/ADRESSE96.jpg,/static/Category_learning/Stimuli/Experimental_stims/lipstick/P184708_hero.jpg,1.0,dresser,lipstick,80.0,20.0,dresser6,lipstick13,80.0,40.0,0.0,209.031,0.031,,,,,,
228,,confirmation,,html-keyboard-response,228,195300,0.0-1.0-43.0-0.0-1.0-0.0,0,0,30311,,,,,,41.0,,,,,,,,,,,,,,,,,,,,,,,,,,,,,,,,210.5,1.469,,,,,,
229,,isi,,html-keyboard-response,229,195404,0.0-1.0-43.0-0.0-2.0,0,0,30311,,,,,,,,,,,,,,,,,,,,,,,,,,,,,,,,,,,,,,212.5,2.0,,,,,,
230,,feedback,,html-keyboard-response,230,196409,0.0-1.0-43.0-0.0-3.0-0.0,0,0,30311,,,,,,41.0,,,,,,,,,,,,,,,,,,,,,,,,,,,,,,,,213.5,1.0,,,,,,
231,,iti,,html-keyboard-response,231,196512,0.0-1.0-43.0-0.0-5.0,0,0,30311,,,,,,,,,,,,,,,,,,,,,,,,,,,,,,,,,,,,,,214.5,1.0,,,,,,
232,,choice,,html-keyboard-response,232,196516,0.0-1.0-44.0-0.0-0.0,0,0,30311,,0.0,,,75.0,42.0,342.0,1500.0,1000.0,0.0,6.0,1.0,60-80,0.0,,bongo,telescope,80.0,60.0,bongo14,telescope11,60.0,60.0,26390667.thl.jpg,digimarc.ms03.jpg,/static/Category_learning/Stimuli/Experimental_stims/bongo/26390667.thl.jpg,/static/Category_learning/Stimuli/Experimental_stims/telescope/digimarc.ms03.jpg,0.0,telescope,bongo,60.0,80.0,telescope11,bongo14,60.0,60.0,0.0,214.5,0.0,,,,,,
233,,confirmation,,html-keyboard-response,233,198023,0.0-1.0-44.0-0.0-1.0-0.0,0,0,30311,,,,,,42.0,,,,,,,,,,,,,,,,,,,,,,,,,,,,,,,,216.0,1.5,,,,,,
234,,isi,,html-keyboard-response,234,198126,0.0-1.0-44.0-0.0-2.0,0,0,30311,,,,,,,,,,,,,,,,,,,,,,,,,,,,,,,,,,,,,,217.5,1.5,,,,,,
235,,feedback,,html-keyboard-response,235,199129,0.0-1.0-44.0-0.0-3.0-0.0,0,0,30311,,,,,,42.0,,,,,,,,,,,,,,,,,,,,,,,,,,,,,,,,218.5,1.0,,,,,,
236,,iti,,html-keyboard-response,236,199237,0.0-1.0-44.0-0.0-5.0,0,0,30311,,,,,,,,,,,,,,,,,,,,,,,,,,,,,,,,,,,,,,219.5,1.0,,,,,,
237,,choice,,html-keyboard-response,237,199251,0.0-1.0-45.0-0.0-0.0,0,0,30311,,11.0,,,75.0,43.0,343.0,1000.0,2000.0,0.0,6.0,0.0,20-80,,1.0,dresser,hat,80.0,20.0,dresser1,hat15,60.0,0.0,ADRESSE52.jpg,AFISHHAT2.jpg,/static/Category_learning/Stimuli/Experimental_stims/dresser/ADRESSE52.jpg,/static/Category_learning/Stimuli/Experimental_stims/hat/AFISHHAT2.jpg,0.0,hat,dresser,20.0,80.0,hat15,dresser1,0.0,60.0,0.0,219.511,0.011,,,,,,
238,,confirmation,,html-keyboard-response,238,200745,0.0-1.0-45.0-0.0-1.0-0.0,0,0,30311,,,,,,43.0,,,,,,,,,,,,,,,,,,,,,,,,,,,,,,,,221.0,1.489,,,,,,
239,,isi,,html-keyboard-response,239,200852,0.0-1.0-45.0-0.0-2.0,0,0,30311,,,,,,,,,,,,,,,,,,,,,,,,,,,,,,,,,,,,,,222.0,1.0,,,,,,
240,,feedback,,html-keyboard-response,240,201856,0.0-1.0-45.0-0.0-3.0-0.0,0,0,30311,,,,,,43.0,,,,,,,,,,,,,,,,,,,,,,,,,,,,,,,,223.0,1.0,,,,,,
241,,iti,,html-keyboard-response,241,201961,0.0-1.0-45.0-0.0-5.0,0,0,30311,,,,,,,,,,,,,,,,,,,,,,,,,,,,,,,,,,,,,,225.0,2.0,,,,,,
242,,choice,,html-keyboard-response,242,202200,0.0-1.0-46.0-0.0-0.0,0,0,30311,,235.0,,,68.0,44.0,344.0,1000.0,3000.0,0.0,6.0,1.0,20-20,1.0,,hat,hat,20.0,20.0,hat15,hat8,0.0,20.0,AFISHHAT2.jpg,ABLUEHAT.jpg,/static/Category_learning/Stimuli/Experimental_stims/hat/AFISHHAT2.jpg,/static/Category_learning/Stimuli/Experimental_stims/hat/ABLUEHAT.jpg,1.0,hat,hat,20.0,20.0,hat15,hat8,0.0,20.0,0.0,225.235,0.235,,,,,,
243,,confirmation,,html-keyboard-response,243,203468,0.0-1.0-46.0-0.0-1.0-0.0,0,0,30311,,,,,,44.0,,,,,,,,,,,,,,,,,,,,,,,,,,,,,,,,226.5,1.265,,,,,,
244,,isi,,html-keyboard-response,244,203571,0.0-1.0-46.0-0.0-2.0,0,0,30311,,,,,,,,,,,,,,,,,,,,,,,,,,,,,,,,,,,,,,227.5,1.0,,,,,,
245,,feedback,,html-keyboard-response,245,204574,0.0-1.0-46.0-0.0-3.0-0.0,0,0,30311,,,,,,44.0,,,,,,,,,,,,,,,,,,,,,,,,,,,,,,,,228.5,1.0,,,,,,
246,,iti,,html-keyboard-response,246,204678,0.0-1.0-46.0-0.0-5.0,0,0,30311,,,,,,,,,,,,,,,,,,,,,,,,,,,,,,,,,,,,,,231.5,3.0,,,,,,
247,,choice,,html-keyboard-response,247,204736,0.0-1.0-47.0-0.0-0.0,0,0,30311,,54.0,,,75.0,45.0,345.0,1000.0,2000.0,0.0,6.0,0.0,40-80,,0.0,power strip,fan,40.0,80.0,power strip1,fan8,20.0,100.0,6a30daf6-943c-4ced-bfa0-c42f35b22380_400.jpg,f_tf1224_angle.jpg,/static/Category_learning/Stimuli/Experimental_stims/power strip/6a30daf6-943c-4ced-bfa0-c42f35b22380_400.jpg,/static/Category_learning/Stimuli/Experimental_stims/fan/f_tf1224_angle.jpg,0.0,fan,power strip,80.0,40.0,fan8,power strip1,100.0,20.0,0.0,231.554,0.054,,,,,,
248,,confirmation,,html-keyboard-response,248,206186,0.0-1.0-47.0-0.0-1.0-0.0,0,0,30311,,,,,,45.0,,,,,,,,,,,,,,,,,,,,,,,,,,,,,,,,233.0,1.446,,,,,,
249,,isi,,html-keyboard-response,249,206292,0.0-1.0-47.0-0.0-2.0,0,0,30311,,,,,,,,,,,,,,,,,,,,,,,,,,,,,,,,,,,,,,234.0,1.0,,,,,,
250,,feedback,,html-keyboard-response,250,207300,0.0-1.0-47.0-0.0-3.0-0.0,0,0,30311,,,,,,45.0,,,,,,,,,,,,,,,,,,,,,,,,,,,,,,,,235.0,1.0,,,,,,
251,,iti,,html-keyboard-response,251,207407,0.0-1.0-47.0-0.0-5.0,0,0,30311,,,,,,,,,,,,,,,,,,,,,,,,,,,,,,,,,,,,,,237.0,2.0,,,,,,
252,,choice,,html-keyboard-response,252,207740,0.0-1.0-48.0-0.0-0.0,0,0,30311,,329.0,,,75.0,46.0,346.0,3000.0,3000.0,0.0,6.0,0.0,40-80,,0.0,patio lounge chair,bench,40.0,80.0,patio lounge chair1,bench3,60.0,60.0,product1-s.jpg,26419540.thl.jpg,/static/Category_learning/Stimuli/Experimental_stims/patio lounge chair/product1-s.jpg,/static/Category_learning/Stimuli/Experimental_stims/bench/26419540.thl.jpg,0.0,bench,patio lounge chair,80.0,40.0,bench3,patio lounge chair1,60.0,60.0,0.0,237.329,0.329,,,,,,
253,,confirmation,,html-keyboard-response,253,208917,0.0-1.0-48.0-0.0-1.0-0.0,0,0,30311,,,,,,46.0,,,,,,,,,,,,,,,,,,,,,,,,,,,,,,,,238.5,1.171,,,,,,
254,,isi,,html-keyboard-response,254,209023,0.0-1.0-48.0-0.0-2.0,0,0,30311,,,,,,,,,,,,,,,,,,,,,,,,,,,,,,,,,,,,,,241.5,3.0,,,,,,
255,,feedback,,html-keyboard-response,255,210030,0.0-1.0-48.0-0.0-3.0-0.0,0,0,30311,,,,,,46.0,,,,,,,,,,,,,,,,,,,,,,,,,,,,,,,,242.5,1.0,,,,,,
256,,iti,,html-keyboard-response,256,210138,0.0-1.0-48.0-0.0-5.0,0,0,30311,,,,,,,,,,,,,,,,,,,,,,,,,,,,,,,,,,,,,,245.5,3.0,,,,,,
257,,choice,,html-keyboard-response,257,210706,0.0-1.0-49.0-0.0-0.0,0,0,30311,,565.0,,,75.0,47.0,347.0,1500.0,1000.0,0.0,6.0,0.0,20-60,,0.0,frame,stool,20.0,60.0,frame10,stool1,0.0,80.0,AFRAME107.jpg,ASTOOL42.jpg,/static/Category_learning/Stimuli/Experimental_stims/frame/AFRAME107.jpg,/static/Category_learning/Stimuli/Experimental_stims/stool/ASTOOL42.jpg,0.0,stool,frame,60.0,20.0,stool1,frame10,80.0,0.0,0.0,246.065,0.565,,,,,,
258,,confirmation,,html-keyboard-response,258,211646,0.0-1.0-49.0-0.0-1.0-0.0,0,0,30311,,,,,,47.0,,,,,,,,,,,,,,,,,,,,,,,,,,,,,,,,247.0,0.935,,,,,,
259,,isi,,html-keyboard-response,259,211753,0.0-1.0-49.0-0.0-2.0,0,0,30311,,,,,,,,,,,,,,,,,,,,,,,,,,,,,,,,,,,,,,248.5,1.5,,,,,,
260,,feedback,,html-keyboard-response,260,212756,0.0-1.0-49.0-0.0-3.0-0.0,0,0,30311,,,,,,47.0,,,,,,,,,,,,,,,,,,,,,,,,,,,,,,,,249.5,1.0,,,,,,
261,,iti,,html-keyboard-response,261,212863,0.0-1.0-49.0-0.0-5.0,0,0,30311,,,,,,,,,,,,,,,,,,,,,,,,,,,,,,,,,,,,,,250.5,1.0,,,,,,
262,,choice,,html-keyboard-response,262,214367,0.0-1.0-50.0-0.0-0.0,0,0,30311,,,,,,48.0,348.0,2000.0,1500.0,0.0,6.0,1.0,60-60,1.0,,stool,stool,60.0,60.0,stool1,stool2,80.0,40.0,ASTOOL42.jpg,ASTOOL46.jpg,/static/Category_learning/Stimuli/Experimental_stims/stool/ASTOOL42.jpg,/static/Category_learning/Stimuli/Experimental_stims/stool/ASTOOL46.jpg,,,,,,,,,,1.0,252.0,1.5,,,,,,
263,,isi,,html-keyboard-response,263,214473,0.0-1.0-50.0-0.0-2.0,0,0,30311,,,,,,,,,,,,,,,,,,,,,,,,,,,,,,,,,,,,,,254.0,2.0,,,,,,
264,,no_response,,html-keyboard-response,264,215476,0.0-1.0-50.0-0.0-4.0-0.0,1,0,30311,,,,,,,,,,,,,,,,,,,,,,,,,,,,,,,,,,,,,,255.0,1.0,,,,,,
265,,iti,,html-keyboard-response,265,215599,0.0-1.0-50.0-0.0-5.0,0,0,30311,,,,,,,,,,,,,,,,,,,,,,,,,,,,,,,,,,,,,,256.5,1.5,,,,,,
266,,choice,,html-keyboard-response,266,216764,0.0-1.0-50.0-0.1-0.1,0,0,30311,,1162.0,,,75.0,48.0,348.0,2000.0,1500.0,0.0,6.0,1.0,60-60,1.0,,stool,stool,60.0,60.0,stool1,stool2,80.0,40.0,ASTOOL42.jpg,ASTOOL46.jpg,/static/Category_learning/Stimuli/Experimental_stims/stool/ASTOOL42.jpg,/static/Category_learning/Stimuli/Experimental_stims/stool/ASTOOL46.jpg,0.0,stool,stool,60.0,60.0,stool2,stool1,40.0,80.0,0.0,257.662,1.162,,,,,,
267,,confirmation,,html-keyboard-response,267,217108,0.0-1.0-50.0-0.1-1.1-0.1,0,0,30311,,,,,,48.0,,,,,,,,,,,,,,,,,,,,,,,,,,,,,,,,258.0,0.338,,,,,,
268,,isi,,html-keyboard-response,268,217215,0.0-1.0-50.0-0.1-2.1,0,0,30311,,,,,,,,,,,,,,,,,,,,,,,,,,,,,,,,,,,,,,259.0,1.0,,,,,,
269,,feedback,,html-keyboard-response,269,218218,0.0-1.0-50.0-0.1-3.1-0.1,0,0,30311,,,,,,48.0,,,,,,,,,,,,,,,,,,,,,,,,,,,,,,,,260.0,1.0,,,,,,
270,,iti,,html-keyboard-response,270,218324,0.0-1.0-50.0-0.1-5.1,0,0,30311,,,,,,,,,,,,,,,,,,,,,,,,,,,,,,,,,,,,,,263.5,3.5,,,,,,
271,,choice,,html-keyboard-response,271,218417,0.0-1.0-51.0-0.0-0.0,0,0,30311,,90.0,,,75.0,49.0,349.0,2000.0,1500.0,0.0,6.0,0.0,20-80,,1.0,bowl,motorcycle,80.0,20.0,bowl11,motorcycle12,60.0,40.0,Abowl46.jpg,motorcycle14.jpg,/static/Category_learning/Stimuli/Experimental_stims/bowl/Abowl46.jpg,/static/Category_learning/Stimuli/Experimental_stims/motorcycle/motorcycle14.jpg,0.0,motorcycle,bowl,20.0,80.0,motorcycle12,bowl11,40.0,60.0,0.0,263.59,0.09,,,,,,
272,,confirmation,,html-keyboard-response,272,219833,0.0-1.0-51.0-0.0-1.0-0.0,0,0,30311,,,,,,49.0,,,,,,,,,,,,,,,,,,,,,,,,,,,,,,,,265.0,1.41,,,,,,
273,,isi,,html-keyboard-response,273,219939,0.0-1.0-51.0-0.0-2.0,0,0,30311,,,,,,,,,,,,,,,,,,,,,,,,,,,,,,,,,,,,,,267.0,2.0,,,,,,
274,,feedback,,html-keyboard-response,274,220943,0.0-1.0-51.0-0.0-3.0-0.0,0,0,30311,,,,,,49.0,,,,,,,,,,,,,,,,,,,,,,,,,,,,,,,,268.0,1.0,,,,,,
275,,iti,,html-keyboard-response,275,221050,0.0-1.0-51.0-0.0-5.0,0,0,30311,,,,,,,,,,,,,,,,,,,,,,,,,,,,,,,,,,,,,,269.5,1.5,,,,,,
276,,choice,,html-keyboard-response,276,221144,0.0-1.0-52.0-0.0-0.0,0,0,30311,,91.0,,,68.0,50.0,350.0,1500.0,1000.0,0.0,6.0,0.0,40-60,,1.0,trumpet,sofa,60.0,40.0,trumpet9,sofa13,80.0,20.0,trumpet3.jpg,ACOUCH25.jpg,/static/Category_learning/Stimuli/Experimental_stims/trumpet/trumpet3.jpg,/static/Category_learning/Stimuli/Experimental_stims/sofa/ACOUCH25.jpg,1.0,trumpet,sofa,60.0,40.0,trumpet9,sofa13,80.0,20.0,0.0,269.591,0.091,,,,,,
277,,confirmation,,html-keyboard-response,277,222559,0.0-1.0-52.0-0.0-1.0-0.0,0,0,30311,,,,,,50.0,,,,,,,,,,,,,,,,,,,,,,,,,,,,,,,,271.0,1.409,,,,,,
278,,isi,,html-keyboard-response,278,222665,0.0-1.0-52.0-0.0-2.0,0,0,30311,,,,,,,,,,,,,,,,,,,,,,,,,,,,,,,,,,,,,,272.5,1.5,,,,,,
279,,feedback,,html-keyboard-response,279,223670,0.0-1.0-52.0-0.0-3.0-0.0,0,0,30311,,,,,,50.0,,,,,,,,,,,,,,,,,,,,,,,,,,,,,,,,273.5,1.0,,,,,,
280,,iti,,html-keyboard-response,280,223776,0.0-1.0-52.0-0.0-5.0,0,0,30311,,,,,,,,,,,,,,,,,,,,,,,,,,,,,,,,,,,,,,274.5,1.0,,,,,,
281,,choice,,html-keyboard-response,281,223869,0.0-1.0-53.0-0.0-0.0,0,0,30311,,91.0,,,75.0,51.0,351.0,1000.0,3500.0,0.0,6.0,0.0,80-80,,,desk,door knob,80.0,80.0,desk11,door knob8,80.0,60.0,Writing_Desk_280_Cutout_Sideview_half.jpg,pro_l_116_medeco437ul.jpg,/static/Category_learning/Stimuli/Experimental_stims/desk/Writing_Desk_280_Cutout_Sideview_half.jpg,/static/Category_learning/Stimuli/Experimental_stims/door knob/pro_l_116_medeco437ul.jpg,0.0,door knob,desk,80.0,80.0,door knob8,desk11,60.0,80.0,0.0,274.591,0.091,,,,,,
282,,confirmation,,html-keyboard-response,282,225284,0.0-1.0-53.0-0.0-1.0-0.0,0,0,30311,,,,,,51.0,,,,,,,,,,,,,,,,,,,,,,,,,,,,,,,,276.0,1.409,,,,,,
283,,isi,,html-keyboard-response,283,225389,0.0-1.0-53.0-0.0-2.0,0,0,30311,,,,,,,,,,,,,,,,,,,,,,,,,,,,,,,,,,,,,,277.0,1.0,,,,,,
284,,feedback,,html-keyboard-response,284,226393,0.0-1.0-53.0-0.0-3.0-0.0,0,0,30311,,,,,,51.0,,,,,,,,,,,,,,,,,,,,,,,,,,,,,,,,278.0,1.0,,,,,,
285,,iti,,html-keyboard-response,285,226500,0.0-1.0-53.0-0.0-5.0,0,0,30311,,,,,,,,,,,,,,,,,,,,,,,,,,,,,,,,,,,,,,281.5,3.5,,,,,,
286,,choice,,html-keyboard-response,286,226543,0.0-1.0-54.0-0.0-0.0,0,0,30311,,40.0,,,68.0,52.0,352.0,3500.0,2000.0,0.0,6.0,0.0,40-60,,0.0,poker card,train,40.0,60.0,poker card9,train5,60.0,40.0,9817230.thl.jpg,thumb-briolightsoundsteamengine.jpg,/static/Category_learning/Stimuli/Experimental_stims/poker card/9817230.thl.jpg,/static/Category_learning/Stimuli/Experimental_stims/train/thumb-briolightsoundsteamengine.jpg,1.0,poker card,train,40.0,60.0,poker card9,train5,60.0,40.0,0.0,281.54,0.04,,,,,,
287,,confirmation,,html-keyboard-response,287,228009,0.0-1.0-54.0-0.0-1.0-0.0,0,0,30311,,,,,,52.0,,,,,,,,,,,,,,,,,,,,,,,,,,,,,,,,283.0,1.46,,,,,,
288,,isi,,html-keyboard-response,288,228116,0.0-1.0-54.0-0.0-2.0,0,0,30311,,,,,,,,,,,,,,,,,,,,,,,,,,,,,,,,,,,,,,286.5,3.5,,,,,,
289,,feedback,,html-keyboard-response,289,229119,0.0-1.0-54.0-0.0-3.0-0.0,0,0,30311,,,,,,52.0,,,,,,,,,,,,,,,,,,,,,,,,,,,,,,,,287.5,1.0,,,,,,
290,,iti,,html-keyboard-response,290,229225,0.0-1.0-54.0-0.0-5.0,0,0,30311,,,,,,,,,,,,,,,,,,,,,,,,,,,,,,,,,,,,,,289.5,2.0,,,,,,
291,,choice,,html-keyboard-response,291,229986,0.0-1.0-55.0-0.0-0.0,0,0,30311,,758.0,,,68.0,53.0,353.0,1000.0,1000.0,0.0,6.0,0.0,60-60,,,yarn,telescope,60.0,60.0,yarn12,telescope1,40.0,60.0,Aballofyarn35.jpg,celestron nexstar 114 gt reflector telescope.jpg,/static/Category_learning/Stimuli/Experimental_stims/yarn/Aballofyarn35.jpg,/static/Category_learning/Stimuli/Experimental_stims/telescope/celestron nexstar 114 gt reflector telescope.jpg,1.0,yarn,telescope,60.0,60.0,yarn12,telescope1,40.0,60.0,0.0,290.258,0.758,,,,,,
292,,confirmation,,html-keyboard-response,292,230735,0.0-1.0-55.0-0.0-1.0-0.0,0,0,30311,,,,,,53.0,,,,,,,,,,,,,,,,,,,,,,,,,,,,,,,,291.0,0.742,,,,,,
293,,isi,,html-keyboard-response,293,230837,0.0-1.0-55.0-0.0-2.0,0,0,30311,,,,,,,,,,,,,,,,,,,,,,,,,,,,,,,,,,,,,,292.0,1.0,,,,,,
294,,feedback,,html-keyboard-response,294,231844,0.0-1.0-55.0-0.0-3.0-0.0,0,0,30311,,,,,,53.0,,,,,,,,,,,,,,,,,,,,,,,,,,,,,,,,293.0,1.0,,,,,,
295,,iti,,html-keyboard-response,295,231951,0.0-1.0-55.0-0.0-5.0,0,0,30311,,,,,,,,,,,,,,,,,,,,,,,,,,,,,,,,,,,,,,294.0,1.0,,,,,,
296,,choice,,html-keyboard-response,296,232649,0.0-1.0-56.0-0.0-0.0,0,0,30311,,694.0,,,68.0,54.0,354.0,1000.0,1500.0,0.0,6.0,0.0,40-60,,1.0,tent,necklace,60.0,40.0,tent13,necklace15,80.0,40.0,camping-tent-north-star.jpg,necklascenew04.jpg,/static/Category_learning/Stimuli/Experimental_stims/tent/camping-tent-north-star.jpg,/static/Category_learning/Stimuli/Experimental_stims/necklace/necklascenew04.jpg,1.0,tent,necklace,60.0,40.0,tent13,necklace15,80.0,40.0,0.0,294.694,0.694,,,,,,
297,,confirmation,,html-keyboard-response,297,233462,0.0-1.0-56.0-0.0-1.0-0.0,0,0,30311,,,,,,54.0,,,,,,,,,,,,,,,,,,,,,,,,,,,,,,,,295.5,0.806,,,,,,
298,,isi,,html-keyboard-response,298,233566,0.0-1.0-56.0-0.0-2.0,0,0,30311,,,,,,,,,,,,,,,,,,,,,,,,,,,,,,,,,,,,,,296.5,1.0,,,,,,
299,,feedback,,html-keyboard-response,299,234569,0.0-1.0-56.0-0.0-3.0-0.0,0,0,30311,,,,,,54.0,,,,,,,,,,,,,,,,,,,,,,,,,,,,,,,,297.5,1.0,,,,,,
300,,iti,,html-keyboard-response,300,234676,0.0-1.0-56.0-0.0-5.0,0,0,30311,,,,,,,,,,,,,,,,,,,,,,,,,,,,,,,,,,,,,,299.0,1.5,,,,,,
301,,choice,,html-keyboard-response,301,234693,0.0-1.0-57.0-0.0-0.0,0,0,30311,,14.0,,,68.0,55.0,355.0,1000.0,1000.0,0.0,6.0,0.0,20-40,,1.0,nail polish,motorcycle,40.0,20.0,nail polish1,motorcycle3,60.0,40.0,200.jpg,motorcycle40.jpg,/static/Category_learning/Stimuli/Experimental_stims/nail polish/200.jpg,/static/Category_learning/Stimuli/Experimental_stims/motorcycle/motorcycle40.jpg,1.0,nail polish,motorcycle,40.0,20.0,nail polish1,motorcycle3,60.0,40.0,0.0,299.014,0.014,,,,,,
302,,confirmation,,html-keyboard-response,302,236187,0.0-1.0-57.0-0.0-1.0-0.0,0,0,30311,,,,,,55.0,,,,,,,,,,,,,,,,,,,,,,,,,,,,,,,,300.5,1.486,,,,,,
303,,isi,,html-keyboard-response,303,236292,0.0-1.0-57.0-0.0-2.0,0,0,30311,,,,,,,,,,,,,,,,,,,,,,,,,,,,,,,,,,,,,,301.5,1.0,,,,,,
304,,feedback,,html-keyboard-response,304,237300,0.0-1.0-57.0-0.0-3.0-0.0,0,0,30311,,,,,,55.0,,,,,,,,,,,,,,,,,,,,,,,,,,,,,,,,302.5,1.0,,,,,,
305,,iti,,html-keyboard-response,305,237407,0.0-1.0-57.0-0.0-5.0,0,0,30311,,,,,,,,,,,,,,,,,,,,,,,,,,,,,,,,,,,,,,303.5,1.0,,,,,,
306,,choice,,html-keyboard-response,306,238916,0.0-1.0-58.0-0.0-0.0,0,0,30311,,,,,,56.0,356.0,1000.0,1500.0,0.0,6.0,0.0,40-40,,,necklace,nail polish,40.0,40.0,necklace4,nail polish6,60.0,20.0,emerald_diamond_necklace.jpg,127_t.jpg,/static/Category_learning/Stimuli/Experimental_stims/necklace/emerald_diamond_necklace.jpg,/static/Category_learning/Stimuli/Experimental_stims/nail polish/127_t.jpg,,,,,,,,,,1.0,305.0,1.5,,,,,,
307,,isi,,html-keyboard-response,307,239023,0.0-1.0-58.0-0.0-2.0,0,0,30311,,,,,,,,,,,,,,,,,,,,,,,,,,,,,,,,,,,,,,306.0,1.0,,,,,,
308,,no_response,,html-keyboard-response,308,240031,0.0-1.0-58.0-0.0-4.0-0.0,1,0,30311,,,,,,,,,,,,,,,,,,,,,,,,,,,,,,,,,,,,,,307.0,1.0,,,,,,
309,,iti,,html-keyboard-response,309,240154,0.0-1.0-58.0-0.0-5.0,0,0,30311,,,,,,,,,,,,,,,,,,,,,,,,,,,,,,,,,,,,,,308.5,1.5,,,,,,
310,,choice,,html-keyboard-response,310,240350,0.0-1.0-58.0-0.1-0.1,0,0,30311,,193.0,,,75.0,56.0,356.0,1000.0,1500.0,0.0,6.0,0.0,40-40,,,necklace,nail polish,40.0,40.0,necklace4,nail polish6,60.0,20.0,emerald_diamond_necklace.jpg,127_t.jpg,/static/Category_learning/Stimuli/Experimental_stims/necklace/emerald_diamond_necklace.jpg,/static/Category_learning/Stimuli/Experimental_stims/nail polish/127_t.jpg,0.0,nail polish,necklace,40.0,40.0,nail polish6,necklace4,20.0,60.0,0.0,308.693,0.193,,,,,,
311,,confirmation,,html-keyboard-response,311,241663,0.0-1.0-58.0-0.1-1.1-0.1,0,0,30311,,,,,,56.0,,,,,,,,,,,,,,,,,,,,,,,,,,,,,,,,310.0,1.307,,,,,,
312,,isi,,html-keyboard-response,312,241770,0.0-1.0-58.0-0.1-2.1,0,0,30311,,,,,,,,,,,,,,,,,,,,,,,,,,,,,,,,,,,,,,311.5,1.5,,,,,,
313,,feedback,,html-keyboard-response,313,242773,0.0-1.0-58.0-0.1-3.1-0.1,0,0,30311,,,,,,56.0,,,,,,,,,,,,,,,,,,,,,,,,,,,,,,,,312.5,1.0,,,,,,
314,,iti,,html-keyboard-response,314,242879,0.0-1.0-58.0-0.1-5.1,0,0,30311,,,,,,,,,,,,,,,,,,,,,,,,,,,,,,,,,,,,,,314.5,2.0,,,,,,
315,,choice,,html-keyboard-response,315,243520,0.0-1.0-59.0-0.0-0.0,0,0,30311,,637.0,,,75.0,57.0,357.0,1000.0,1000.0,0.0,6.0,1.0,40-40,1.0,,nail polish,nail polish,40.0,40.0,nail polish6,nail polish1,20.0,60.0,127_t.jpg,200.jpg,/static/Category_learning/Stimuli/Experimental_stims/nail polish/127_t.jpg,/static/Category_learning/Stimuli/Experimental_stims/nail polish/200.jpg,0.0,nail polish,nail polish,40.0,40.0,nail polish1,nail polish6,60.0,20.0,0.0,315.137,0.637,,,,,,
316,,confirmation,,html-keyboard-response,316,244390,0.0-1.0-59.0-0.0-1.0-0.0,0,0,30311,,,,,,57.0,,,,,,,,,,,,,,,,,,,,,,,,,,,,,,,,316.0,0.863,,,,,,
317,,isi,,html-keyboard-response,317,244495,0.0-1.0-59.0-0.0-2.0,0,0,30311,,,,,,,,,,,,,,,,,,,,,,,,,,,,,,,,,,,,,,317.0,1.0,,,,,,
318,,feedback,,html-keyboard-response,318,245499,0.0-1.0-59.0-0.0-3.0-0.0,0,0,30311,,,,,,57.0,,,,,,,,,,,,,,,,,,,,,,,,,,,,,,,,318.0,1.0,,,,,,
319,,iti,,html-keyboard-response,319,245605,0.0-1.0-59.0-0.0-5.0,0,0,30311,,,,,,,,,,,,,,,,,,,,,,,,,,,,,,,,,,,,,,319.0,1.0,,,,,,
320,,choice,,html-keyboard-response,320,246072,0.0-1.0-60.0-0.0-0.0,0,0,30311,,463.0,,,75.0,58.0,358.0,3000.0,2000.0,0.0,6.0,1.0,60-60,1.0,,yarn,yarn,60.0,60.0,yarn6,yarn12,80.0,40.0,edwardian moment hpy sml.jpg,Aballofyarn35.jpg,/static/Category_learning/Stimuli/Experimental_stims/yarn/edwardian moment hpy sml.jpg,/static/Category_learning/Stimuli/Experimental_stims/yarn/Aballofyarn35.jpg,0.0,yarn,yarn,60.0,60.0,yarn12,yarn6,40.0,80.0,0.0,319.463,0.463,,,,,,
321,,confirmation,,html-keyboard-response,321,247114,0.0-1.0-60.0-0.0-1.0-0.0,0,0,30311,,,,,,58.0,,,,,,,,,,,,,,,,,,,,,,,,,,,,,,,,320.5,1.037,,,,,,
322,,isi,,html-keyboard-response,322,247218,0.0-1.0-60.0-0.0-2.0,0,0,30311,,,,,,,,,,,,,,,,,,,,,,,,,,,,,,,,,,,,,,323.5,3.0,,,,,,
323,,feedback,,html-keyboard-response,323,248222,0.0-1.0-60.0-0.0-3.0-0.0,0,0,30311,,,,,,58.0,,,,,,,,,,,,,,,,,,,,,,,,,,,,,,,,324.5,1.0,,,,,,
324,,iti,,html-keyboard-response,324,248330,0.0-1.0-60.0-0.0-5.0,0,0,30311,,,,,,,,,,,,,,,,,,,,,,,,,,,,,,,,,,,,,,326.5,2.0,,,,,,
325,,choice,,html-keyboard-response,325,248788,0.0-1.0-61.0-0.0-0.0,0,0,30311,,455.0,,,75.0,59.0,359.0,3000.0,1000.0,0.0,6.0,0.0,40-60,,0.0,seashell,watch,40.0,60.0,seashell6,watch12,40.0,80.0,PY2H1461.jpg,snl003_MED.jpg,/static/Category_learning/Stimuli/Experimental_stims/seashell/PY2H1461.jpg,/static/Category_learning/Stimuli/Experimental_stims/watch/snl003_MED.jpg,0.0,watch,seashell,60.0,40.0,watch12,seashell6,80.0,40.0,0.0,326.955,0.455,,,,,,
326,,confirmation,,html-keyboard-response,326,249837,0.0-1.0-61.0-0.0-1.0-0.0,0,0,30311,,,,,,59.0,,,,,,,,,,,,,,,,,,,,,,,,,,,,,,,,328.0,1.045,,,,,,
327,,isi,,html-keyboard-response,327,249940,0.0-1.0-61.0-0.0-2.0,0,0,30311,,,,,,,,,,,,,,,,,,,,,,,,,,,,,,,,,,,,,,331.0,3.0,,,,,,
328,,feedback,,html-keyboard-response,328,250943,0.0-1.0-61.0-0.0-3.0-0.0,0,0,30311,,,,,,59.0,,,,,,,,,,,,,,,,,,,,,,,,,,,,,,,,332.0,1.0,,,,,,
329,,iti,,html-keyboard-response,329,251049,0.0-1.0-61.0-0.0-5.0,0,0,30311,,,,,,,,,,,,,,,,,,,,,,,,,,,,,,,,,,,,,,333.0,1.0,,,,,,
330,,choice,,html-keyboard-response,330,252253,0.0-1.0-62.0-0.0-0.0,0,0,30311,,1201.0,,,75.0,60.0,360.0,2000.0,1500.0,0.0,6.0,1.0,40-40,1.0,,poker card,poker card,40.0,40.0,poker card10,poker card9,20.0,60.0,22864488.thl.jpg,9817230.thl.jpg,/static/Category_learning/Stimuli/Experimental_stims/poker card/22864488.thl.jpg,/static/Category_learning/Stimuli/Experimental_stims/poker card/9817230.thl.jpg,0.0,poker card,poker card,40.0,40.0,poker card9,poker card10,60.0,20.0,0.0,334.201,1.201,,,,,,
331,,confirmation,,html-keyboard-response,331,252559,0.0-1.0-62.0-0.0-1.0-0.0,0,0,30311,,,,,,60.0,,,,,,,,,,,,,,,,,,,,,,,,,,,,,,,,334.5,0.299,,,,,,
332,,isi,,html-keyboard-response,332,252666,0.0-1.0-62.0-0.0-2.0,0,0,30311,,,,,,,,,,,,,,,,,,,,,,,,,,,,,,,,,,,,,,336.5,2.0,,,,,,
333,,feedback,,html-keyboard-response,333,253669,0.0-1.0-62.0-0.0-3.0-0.0,0,0,30311,,,,,,60.0,,,,,,,,,,,,,,,,,,,,,,,,,,,,,,,,337.5,1.0,,,,,,
334,,iti,,html-keyboard-response,334,253775,0.0-1.0-62.0-0.0-5.0,0,0,30311,,,,,,,,,,,,,,,,,,,,,,,,,,,,,,,,,,,,,,339.0,1.5,,,,,,
335,,choice,,html-keyboard-response,335,253858,0.0-1.0-63.0-0.0-0.0,0,0,30311,,79.0,,,75.0,61.0,361.0,2000.0,2000.0,0.0,6.0,0.0,40-60,,1.0,watch,sofa,60.0,40.0,watch1,sofa2,80.0,40.0,B000B5K8XI.01-A2E7J74KJYV9ZH._AA280_SCLZZZZZZZ_V53007008_.jpg,ALOVSEA12.jpg,/static/Category_learning/Stimuli/Experimental_stims/watch/B000B5K8XI.01-A2E7J74KJYV9ZH._AA280_SCLZZZZZZZ_V53007008_.jpg,/static/Category_learning/Stimuli/Experimental_stims/sofa/ALOVSEA12.jpg,0.0,sofa,watch,40.0,60.0,sofa2,watch1,40.0,80.0,0.0,339.079,0.079,,,,,,
336,,confirmation,,html-keyboard-response,336,255285,0.0-1.0-63.0-0.0-1.0-0.0,0,0,30311,,,,,,61.0,,,,,,,,,,,,,,,,,,,,,,,,,,,,,,,,340.5,1.421,,,,,,
337,,isi,,html-keyboard-response,337,255390,0.0-1.0-63.0-0.0-2.0,0,0,30311,,,,,,,,,,,,,,,,,,,,,,,,,,,,,,,,,,,,,,342.5,2.0,,,,,,
338,,feedback,,html-keyboard-response,338,256396,0.0-1.0-63.0-0.0-3.0-0.0,0,0,30311,,,,,,61.0,,,,,,,,,,,,,,,,,,,,,,,,,,,,,,,,343.5,1.0,,,,,,
339,,iti,,html-keyboard-response,339,256500,0.0-1.0-63.0-0.0-5.0,0,0,30311,,,,,,,,,,,,,,,,,,,,,,,,,,,,,,,,,,,,,,345.5,2.0,,,,,,
340,,choice,,html-keyboard-response,340,256678,0.0-1.0-64.0-0.0-0.0,0,0,30311,,174.0,,,75.0,62.0,362.0,1000.0,2000.0,0.0,6.0,0.0,20-60,,0.0,frame,train,20.0,60.0,frame11,train3,0.0,60.0,AFRAME139.jpg,stackloco.jpg,/static/Category_learning/Stimuli/Experimental_stims/frame/AFRAME139.jpg,/static/Category_learning/Stimuli/Experimental_stims/train/stackloco.jpg,0.0,train,frame,60.0,20.0,train3,frame11,60.0,0.0,0.0,345.674,0.174,,,,,,
341,,confirmation,,html-keyboard-response,341,258009,0.0-1.0-64.0-0.0-1.0-0.0,0,0,30311,,,,,,62.0,,,,,,,,,,,,,,,,,,,,,,,,,,,,,,,,347.0,1.326,,,,,,
342,,isi,,html-keyboard-response,342,258114,0.0-1.0-64.0-0.0-2.0,0,0,30311,,,,,,,,,,,,,,,,,,,,,,,,,,,,,,,,,,,,,,348.0,1.0,,1.4,,,,
343,,final_tally,,html-keyboard-response,343,258332,0.0-2.0-0.0,0,0,30311,,215.0,,,68.0,,,,,,,,,,,,,,,,,,,,,,,,,,,,,,,,,,,,,,,,
344,,category_memory_instructions,,instructions,344,263626,0.0-3.0-0.0,0,0,30311,"[{""page_index"":0,""viewing_time"":4903},{""page_index"":1,""viewing_time"":207},{""page_index"":2,""viewing_time"":161}]",5271.0,,,,,,,,,,,,,,,,,,,,,,,,,,,,,,,,,,,,,,,,,,,
345,,category_memory,,survey-text,345,265273,0.0-3.0-1.0-0.0,0,0,30311,,1645.0,"{""Q0"":""1""}",,,0.0,,,,,,,,,,,,,,,,,,,,,,,,,,,,,,,,,,,,license plate,20.0,1.0,
346,,category_memory,,survey-text,346,266197,0.0-3.0-2.0-0.0,0,0,30311,,919.0,"{""Q0"":""1""}",,,1.0,,,,,,,,,,,,,,,,,,,,,,,,,,,,,,,,,,,,sofa,40.0,1.0,
347,,category_memory,,survey-text,347,266965,0.0-3.0-3.0-0.0,0,0,30311,,764.0,"{""Q0"":""1""}",,,2.0,,,,,,,,,,,,,,,,,,,,,,,,,,,,,,,,,,,,bongo,80.0,1.0,
348,,category_memory,,survey-text,348,267689,0.0-3.0-4.0-0.0,0,0,30311,,720.0,"{""Q0"":""1""}",,,3.0,,,,,,,,,,,,,,,,,,,,,,,,,,,,,,,,,,,,tent,60.0,1.0,
349,,category_memory,,survey-text,349,268567,0.0-3.0-5.0-0.0,0,0,30311,,874.0,"{""Q0"":""1""}",,,4.0,,,,,,,,,,,,,,,,,,,,,,,,,,,,,,,,,,,,necklace,40.0,1.0,
350,,category_memory,,survey-text,350,269401,0.0-3.0-6.0-0.0,0,0,30311,,830.0,"{""Q0"":""1""}",,,5.0,,,,,,,,,,,,,,,,,,,,,,,,,,,,,,,,,,,,seashell,40.0,1.0,
351,,category_memory,,survey-text,351,270207,0.0-3.0-7.0-0.0,0,0,30311,,803.0,"{""Q0"":""1""}",,,6.0,,,,,,,,,,,,,,,,,,,,,,,,,,,,,,,,,,,,makeup compact,20.0,1.0,
352,,category_memory,,survey-text,352,270942,0.0-3.0-8.0-0.0,0,0,30311,,732.0,"{""Q0"":""1""}",,,7.0,,,,,,,,,,,,,,,,,,,,,,,,,,,,,,,,,,,,dresser,80.0,1.0,
353,,category_memory,,survey-text,353,271676,0.0-3.0-9.0-0.0,0,0,30311,,730.0,"{""Q0"":""1""}",,,8.0,,,,,,,,,,,,,,,,,,,,,,,,,,,,,,,,,,,,baby carriage,80.0,1.0,
354,,category_memory,,survey-text,354,272612,0.0-3.0-10.0-0.0,0,0,30311,,933.0,"{""Q0"":""1""}",,,9.0,,,,,,,,,,,,,,,,,,,,,,,,,,,,,,,,,,,,microscope,20.0,1.0,
355,,category_memory,,survey-text,355,273425,0.0-3.0-11.0-0.0,0,0,30311,,810.0,"{""Q0"":""1""}",,,10.0,,,,,,,,,,,,,,,,,,,,,,,,,,,,,,,,,,,,flashlight,80.0,1.0,
356,,category_memory,,survey-text,356,274227,0.0-3.0-12.0-0.0,0,0,30311,,799.0,"{""Q0"":""1""}",,,11.0,,,,,,,,,,,,,,,,,,,,,,,,,,,,,,,,,,,,lipstick,20.0,1.0,
357,,category_memory,,survey-text,357,275058,0.0-3.0-13.0-0.0,0,0,30311,,828.0,"{""Q0"":""1""}",,,12.0,,,,,,,,,,,,,,,,,,,,,,,,,,,,,,,,,,,,frame,20.0,1.0,
358,,category_memory,,survey-text,358,275844,0.0-3.0-14.0-0.0,0,0,30311,,782.0,"{""Q0"":""1""}",,,13.0,,,,,,,,,,,,,,,,,,,,,,,,,,,,,,,,,,,,desk,80.0,1.0,
359,,category_memory,,survey-text,359,276895,0.0-3.0-15.0-0.0,0,0,30311,,1048.0,"{""Q0"":""1""}",,,14.0,,,,,,,,,,,,,,,,,,,,,,,,,,,,,,,,,,,,poker card,40.0,1.0,
360,,category_memory,,survey-text,360,277583,0.0-3.0-16.0-0.0,0,0,30311,,685.0,"{""Q0"":""1""}",,,15.0,,,,,,,,,,,,,,,,,,,,,,,,,,,,,,,,,,,,motorcycle,20.0,1.0,
361,,category_memory,,survey-text,361,278688,0.0-3.0-17.0-0.0,0,0,30311,,1102.0,"{""Q0"":""1""}",,,16.0,,,,,,,,,,,,,,,,,,,,,,,,,,,,,,,,,,,,train,60.0,1.0,
362,,category_memory,,survey-text,362,279501,0.0-3.0-18.0-0.0,0,0,30311,,810.0,"{""Q0"":""1""}",,,17.0,,,,,,,,,,,,,,,,,,,,,,,,,,,,,,,,,,,,key chain,20.0,1.0,
363,,category_memory,,survey-text,363,280266,0.0-3.0-19.0-0.0,0,0,30311,,762.0,"{""Q0"":""1""}",,,18.0,,,,,,,,,,,,,,,,,,,,,,,,,,,,,,,,,,,,trumpet,60.0,1.0,
364,,category_memory,,survey-text,364,281050,0.0-3.0-20.0-0.0,0,0,30311,,780.0,"{""Q0"":""1""}",,,19.0,,,,,,,,,,,,,,,,,,,,,,,,,,,,,,,,,,,,small table,40.0,1.0,
365,,category_memory,,survey-text,365,281990,0.0-3.0-21.0-0.0,0,0,30311,,936.0,"{""Q0"":""1""}",,,20.0,,,,,,,,,,,,,,,,,,,,,,,,,,,,,,,,,,,,power strip,40.0,1.0,
366,,category_memory,,survey-text,366,282880,0.0-3.0-22.0-0.0,0,0,30311,,887.0,"{""Q0"":""1""}",,,21.0,,,,,,,,,,,,,,,,,,,,,,,,,,,,,,,,,,,,hammer,20.0,1.0,
367,,category_memory,,survey-text,367,283666,0.0-3.0-23.0-0.0,0,0,30311,,783.0,"{""Q0"":""1""}",,,22.0,,,,,,,,,,,,,,,,,,,,,,,,,,,,,,,,,,,,door knob,80.0,1.0,
368,,category_memory,,survey-text,368,284436,0.0-3.0-24.0-0.0,0,0,30311,,767.0,"{""Q0"":""1""}",,,23.0,,,,,,,,,,,,,,,,,,,,,,,,,,,,,,,,,,,,pen,40.0,1.0,
369,,category_memory,,survey-text,369,285204,0.0-3.0-25.0-0.0,0,0,30311,,764.0,"{""Q0"":""1""}",,,24.0,,,,,,,,,,,,,,,,,,,,,,,,,,,,,,,,,,,,stool,60.0,1.0,
370,,category_memory,,survey-text,370,285904,0.0-3.0-26.0-0.0,0,0,30311,,697.0,"{""Q0"":""1""}",,,25.0,,,,,,,,,,,,,,,,,,,,,,,,,,,,,,,,,,,,nail polish,40.0,1.0,
371,,category_memory,,survey-text,371,287110,0.0-3.0-27.0-0.0,0,0,30311,,1202.0,"{""Q0"":""1""}",,,26.0,,,,,,,,,,,,,,,,,,,,,,,,,,,,,,,,,,,,bowl,80.0,1.0,
372,,category_memory,,survey-text,372,288019,0.0-3.0-28.0-0.0,0,0,30311,,905.0,"{""Q0"":""1""}",,,27.0,,,,,,,,,,,,,,,,,,,,,,,,,,,,,,,,,,,,bench,80.0,1.0,
373,,category_memory,,survey-text,373,289139,0.0-3.0-29.0-0.0,0,0,30311,,1117.0,"{""Q0"":""1""}",,,28.0,,,,,,,,,,,,,,,,,,,,,,,,,,,,,,,,,,,,fan,80.0,1.0,
374,,category_memory,,survey-text,374,290084,0.0-3.0-30.0-0.0,0,0,30311,,939.0,"{""Q0"":""1""}",,,29.0,,,,,,,,,,,,,,,,,,,,,,,,,,,,,,,,,,,,yarn,60.0,1.0,
375,,category_memory,,survey-text,375,290808,0.0-3.0-31.0-0.0,0,0,30311,,720.0,"{""Q0"":""1""}",,,30.0,,,,,,,,,,,,,,,,,,,,,,,,,,,,,,,,,,,,vase,60.0,1.0,
376,,category_memory,,survey-text,376,291542,0.0-3.0-32.0-0.0,0,0,30311,,731.0,"{""Q0"":""1""}",,,31.0,,,,,,,,,,,,,,,,,,,,,,,,,,,,,,,,,,,,hat,20.0,1.0,
377,,category_memory,,survey-text,377,292527,0.0-3.0-33.0-0.0,0,0,30311,,982.0,"{""Q0"":""1""}",,,32.0,,,,,,,,,,,,,,,,,,,,,,,,,,,,,,,,,,,,watch,60.0,1.0,
378,,category_memory,,survey-text,378,293362,0.0-3.0-34.0-0.0,0,0,30311,,832.0,"{""Q0"":""1""}",,,33.0,,,,,,,,,,,,,,,,,,,,,,,,,,,,,,,,,,,,patio lounge chair,40.0,1.0,
379,,category_memory,,survey-text,379,294423,0.0-3.0-35.0-0.0,0,0,30311,,1058.0,"{""Q0"":""1""}",,,34.0,,,,,,,,,,,,,,,,,,,,,,,,,,,,,,,,,,,,telescope,60.0,1.0,
380,,category_memory,,survey-text,380,295299,0.0-3.0-36.0-0.0,0,0,30311,,873.0,"{""Q0"":""""}",,,35.0,,,,,,,,,,,,,,,,,,,,,,,,,,,,,,,,,,,,tape,60.0,,
381,,enter_reponse,,html-keyboard-response,381,296290,0.0-3.0-36.0-1.0-0.0,1,0,30311,,989.0,,,68.0,,,,,,,,,,,,,,,,,,,,,,,,,,,,,,,,,,,,,,,,1.0
382,,category_memory,,survey-text,382,297215,0.0-3.0-36.1-0.1,0,0,30311,,922.0,"{""Q0"":""1""}",,,35.0,,,,,,,,,,,,,,,,,,,,,,,,,,,,,,,,,,,,tape,60.0,1.0,
