,success,ttype,start_time,trial_type,trial_index,time_elapsed,internal_node_id,warning,missed_checkup,PID,view_history,rt,responses,repeat_instructions,key_press,index,trial_num,isi,iti,is_practice,block,old_trial,pair_type,within_category,high_cat_on_left,left_category,right_category,left_category_value,right_category_value,left_exemplar,right_exemplar,left_exemplar_value,right_exemplar_value,left_img,right_img,left_img_path,right_img_path,left_chosen,chosen_category,unchosen_category,chosen_category_value,unchosen_category_value,chosen_exemplar,unchosen_exemplar,chosen_exemplar_value,unchosen_exemplar_value,no_response,onset,duration,end_practice,total_bonus_tally,category,category_group_value,category_value_response,did_not_enter_response
0,True,full_screen,d06012022hr2029,fullscreen,0,1841,0.0-0.0,0,0,50795,,,,,,,,,,,,,,,,,,,,,,,,,,,,,,,,,,,,,,,,,,,,,
1,,category_learning_instructions,,instructions,1,3960,0.0-1.0-0.0-0.0,0,0,50795,"[{""page_index"":0,""viewing_time"":1109},{""page_index"":1,""viewing_time"":197},{""page_index"":2,""viewing_time"":150},{""page_index"":3,""viewing_time"":149},{""page_index"":4,""viewing_time"":169},{""page_index"":5,""viewing_time"":155},{""page_index"":6,""viewing_time"":187}]",2116.0,,,,,,,,,,,,,,,,,,,,,,,,,,,,,,,,,,,,,,,,,,,
2,,category_learning_comprehension_check,,survey-multi-choice,2,8172,0.0-1.0-0.0-1.0,0,0,50795,,4208.0,"{""Q0"":""True"",""Q1"":""True"",""Q2"":""Stay the same"",""Q3"":""D for left and K for right""}",0.0,,,,,,,,,,,,,,,,,,,,,,,,,,,,,,,,,,,,,,,,,
3,,,,html-keyboard-response,3,9087,0.0-1.0-1.0,0,0,50795,,910.0,,,68.0,,,,,,,,,,,,,,,,,,,,,,,,,,,,,,,,,,,,,,,,
4,,choice,,html-keyboard-response,4,9522,0.0-1.0-2.0-0.0-0.0,0,0,50795,,431.0,,,68.0,0.0,0.0,1500.0,1000.0,1.0,0.0,0.0,20-80,,0.0,bagel,dumbbell,20.0,80.0,bagel1,dumbbell1,0.0,80.0,bagels_pumpernickel_large.jpg,31B64EN68AL._AA280_.jpg,/static/Category_learning/Stimuli/Practice_stims/bagel/bagels_pumpernickel_large.jpg,/static/Category_learning/Stimuli/Practice_stims/dumbbell/31B64EN68AL._AA280_.jpg,1.0,bagel,dumbbell,20.0,80.0,bagel1,dumbbell1,0.0,80.0,0.0,0.431,0.431,,,,,,
5,,confirmation,,html-keyboard-response,5,10595,0.0-1.0-2.0-0.0-1.0-0.0,0,0,50795,,,,,,0.0,,,,,,,,,,,,,,,,,,,,,,,,,,,,,,,,1.5,1.069,,,,,,
6,,isi,,html-keyboard-response,6,10699,0.0-1.0-2.0-0.0-2.0,0,0,50795,,,,,,,,,,,,,,,,,,,,,,,,,,,,,,,,,,,,,,3.0,1.5,,,,,,
7,,feedback,,html-keyboard-response,7,11704,0.0-1.0-2.0-0.0-3.0-0.0,0,0,50795,,,,,,0.0,,,,,,,,,,,,,,,,,,,,,,,,,,,,,,,,4.0,1.0,,,,,,
8,,iti,,html-keyboard-response,8,11809,0.0-1.0-2.0-0.0-5.0,0,0,50795,,,,,,,,,,,,,,,,,,,,,,,,,,,,,,,,,,,,,,5.0,1.0,,,,,,
9,,choice,,html-keyboard-response,9,12287,0.0-1.0-3.0-0.0-0.0,0,0,50795,,475.0,,,68.0,1.0,1.0,3000.0,1500.0,1.0,0.0,0.0,20-40,,1.0,calculator,bagel,40.0,20.0,calculator2,bagel2,20.0,20.0,22829064.thl.jpg,bagels_cinnraisin_large.jpg,/static/Category_learning/Stimuli/Practice_stims/calculator/22829064.thl.jpg,/static/Category_learning/Stimuli/Practice_stims/bagel/bagels_cinnraisin_large.jpg,1.0,calculator,bagel,40.0,20.0,calculator2,bagel2,20.0,20.0,0.0,5.475,0.475,,,,,,
10,,confirmation,,html-keyboard-response,10,13319,0.0-1.0-3.0-0.0-1.0-0.0,0,0,50795,,,,,,1.0,,,,,,,,,,,,,,,,,,,,,,,,,,,,,,,,6.5,1.025,,,,,,
11,,isi,,html-keyboard-response,11,13422,0.0-1.0-3.0-0.0-2.0,0,0,50795,,,,,,,,,,,,,,,,,,,,,,,,,,,,,,,,,,,,,,9.5,3.0,,,,,,
12,,feedback,,html-keyboard-response,12,14427,0.0-1.0-3.0-0.0-3.0-0.0,0,0,50795,,,,,,1.0,,,,,,,,,,,,,,,,,,,,,,,,,,,,,,,,10.5,1.0,,,,,,
13,,iti,,html-keyboard-response,13,14533,0.0-1.0-3.0-0.0-5.0,0,0,50795,,,,,,,,,,,,,,,,,,,,,,,,,,,,,,,,,,,,,,12.0,1.5,,,,,,
14,,choice,,html-keyboard-response,14,15355,0.0-1.0-4.0-0.0-0.0,0,0,50795,,820.0,,,75.0,2.0,2.0,2000.0,3000.0,1.0,0.0,0.0,60-80,,0.0,clock,dumbbell,60.0,80.0,clock2,dumbbell2,60.0,100.0,26373355.thl.jpg,31K8MR6TMBL._SS500_.jpg,/static/Category_learning/Stimuli/Practice_stims/clock/26373355.thl.jpg,/static/Category_learning/Stimuli/Practice_stims/dumbbell/31K8MR6TMBL._SS500_.jpg,0.0,dumbbell,clock,80.0,60.0,dumbbell2,clock2,100.0,60.0,0.0,12.82,0.82,,,,,,
15,,confirmation,,html-keyboard-response,15,16043,0.0-1.0-4.0-0.0-1.0-0.0,0,0,50795,,,,,,2.0,,,,,,,,,,,,,,,,,,,,,,,,,,,,,,,,13.5,0.68,,,,,,
16,,isi,,html-keyboard-response,16,16149,0.0-1.0-4.0-0.0-2.0,0,0,50795,,,,,,,,,,,,,,,,,,,,,,,,,,,,,,,,,,,,,,15.5,2.0,,,,,,
17,,feedback,,html-keyboard-response,17,17152,0.0-1.0-4.0-0.0-3.0-0.0,0,0,50795,,,,,,2.0,,,,,,,,,,,,,,,,,,,,,,,,,,,,,,,,16.5,1.0,,,,,,
18,,iti,,html-keyboard-response,18,17254,0.0-1.0-4.0-0.0-5.0,0,0,50795,,,,,,,,,,,,,,,,,,,,,,,,,,,,,,,,,,,,,,19.5,3.0,,,,,,
19,,choice,,html-keyboard-response,19,18485,0.0-1.0-5.0-0.0-0.0,0,0,50795,,1228.0,,,75.0,3.0,3.0,1000.0,2000.0,1.0,0.0,0.0,40-80,,0.0,calculator,clock,40.0,60.0,calculator1,clock1,40.0,40.0,22829184.thl.jpg,Aalarmclock2.jpg,/static/Category_learning/Stimuli/Practice_stims/calculator/22829184.thl.jpg,/static/Category_learning/Stimuli/Practice_stims/clock/Aalarmclock2.jpg,0.0,clock,calculator,60.0,40.0,clock1,calculator1,40.0,40.0,0.0,20.728,1.228,,,,,,
20,,confirmation,,html-keyboard-response,20,18765,0.0-1.0-5.0-0.0-1.0-0.0,0,0,50795,,,,,,3.0,,,,,,,,,,,,,,,,,,,,,,,,,,,,,,,,21.0,0.272,,,,,,
21,,isi,,html-keyboard-response,21,18867,0.0-1.0-5.0-0.0-2.0,0,0,50795,,,,,,,,,,,,,,,,,,,,,,,,,,,,,,,,,,,,,,22.0,1.0,,,,,,
22,,feedback,,html-keyboard-response,22,19873,0.0-1.0-5.0-0.0-3.0-0.0,0,0,50795,,,,,,3.0,,,,,,,,,,,,,,,,,,,,,,,,,,,,,,,,23.0,1.0,,,,,,
23,,iti,,html-keyboard-response,23,19980,0.0-1.0-5.0-0.0-5.0,0,0,50795,,,,,,,,,,,,,,,,,,,,,,,,,,,,,,,,,,,,,,25.0,2.0,,,,,,
24,,choice,,html-keyboard-response,24,20551,0.0-1.0-6.0-0.0-0.0,0,0,50795,,568.0,,,68.0,4.0,4.0,2500.0,2500.0,1.0,0.0,0.0,20-60,,1.0,dumbbell,bagel,80.0,20.0,dumbbell3,bagel3,100.0,40.0,41K7QVRX50L._SS500_.jpg,photo-169.jpg,/static/Category_learning/Stimuli/Practice_stims/dumbbell/41K7QVRX50L._SS500_.jpg,/static/Category_learning/Stimuli/Practice_stims/bagel/photo-169.jpg,1.0,dumbbell,bagel,80.0,20.0,dumbbell3,bagel3,100.0,40.0,0.0,25.568,0.568,1.0,,,,,
25,,confirmation,,html-keyboard-response,25,21489,0.0-1.0-6.0-0.0-1.0-0.0,0,0,50795,,,,,,4.0,,,,,,,,,,,,,,,,,,,,,,,,,,,,,,,,26.5,0.932,,,,,,
26,,isi,,html-keyboard-response,26,21595,0.0-1.0-6.0-0.0-2.0,0,0,50795,,,,,,,,,,,,,,,,,,,,,,,,,,,,,,,,,,,,,,29.0,2.5,,,,,,
27,,feedback,,html-keyboard-response,27,22601,0.0-1.0-6.0-0.0-3.0-0.0,0,0,50795,,,,,,4.0,,,,,,,,,,,,,,,,,,,,,,,,,,,,,,,,30.0,1.0,,,,,,
28,,iti,,html-keyboard-response,28,22705,0.0-1.0-6.0-0.0-5.0,0,0,50795,,,,,,,,,,,,,,,,,,,,,,,,,,,,,,,,,,,,,,32.5,2.5,,,,,,
29,,practice_over,,html-keyboard-response,29,23420,0.0-1.0-6.0-0.0-6.0-0.0,0,0,50795,,713.0,,,68.0,4.0,,,,,,,,,,,,,,,,,,,,,,,,,,,,,,,,,,,,,,,
30,,start_run,,html-keyboard-response,30,24189,0.0-1.0-6.0-0.0-6.0-1.0,0,0,50795,,768.0,,,84.0,,,,,,,,,,,,,,,,,,,,,,,,,,,,,,,,,,,,,,,,
31,,choice,,html-keyboard-response,31,24504,0.0-1.0-7.0-0.0-0.0,0,0,50795,,311.0,,,68.0,5.0,305.0,1500.0,1000.0,0.0,6.0,0.0,20-80,,1.0,dresser,frame,80.0,20.0,dresser5,frame12,100.0,0.0,ADRESSE55.jpg,AFRAME138.jpg,/static/Category_learning/Stimuli/Experimental_stims/dresser/ADRESSE55.jpg,/static/Category_learning/Stimuli/Experimental_stims/frame/AFRAME138.jpg,1.0,dresser,frame,80.0,20.0,dresser5,frame12,100.0,0.0,0.0,0.311,0.311,,,,,,
32,,confirmation,,html-keyboard-response,32,25699,0.0-1.0-7.0-0.0-1.0-0.0,0,0,50795,,,,,,5.0,,,,,,,,,,,,,,,,,,,,,,,,,,,,,,,,1.5,1.189,,,,,,
33,,isi,,html-keyboard-response,33,25802,0.0-1.0-7.0-0.0-2.0,0,0,50795,,,,,,,,,,,,,,,,,,,,,,,,,,,,,,,,,,,,,,3.0,1.5,,,,,,
34,,feedback,,html-keyboard-response,34,26807,0.0-1.0-7.0-0.0-3.0-0.0,0,0,50795,,,,,,5.0,,,,,,,,,,,,,,,,,,,,,,,,,,,,,,,,4.0,1.0,,,,,,
35,,iti,,html-keyboard-response,35,26911,0.0-1.0-7.0-0.0-5.0,0,0,50795,,,,,,,,,,,,,,,,,,,,,,,,,,,,,,,,,,,,,,5.0,1.0,,,,,,
36,,choice,,html-keyboard-response,36,27035,0.0-1.0-8.0-0.0-0.0,0,0,50795,,121.0,,,75.0,6.0,306.0,2000.0,1000.0,0.0,6.0,0.0,20-60,,1.0,stool,makeup compact,60.0,20.0,stool11,makeup compact1,60.0,0.0,ASTOOL28.jpg,P190250_hero.jpg,/static/Category_learning/Stimuli/Experimental_stims/stool/ASTOOL28.jpg,/static/Category_learning/Stimuli/Experimental_stims/makeup compact/P190250_hero.jpg,0.0,makeup compact,stool,20.0,60.0,makeup compact1,stool11,0.0,60.0,0.0,5.121,0.121,,,,,,
37,,confirmation,,html-keyboard-response,37,28417,0.0-1.0-8.0-0.0-1.0-0.0,0,0,50795,,,,,,6.0,,,,,,,,,,,,,,,,,,,,,,,,,,,,,,,,6.5,1.379,,,,,,
38,,isi,,html-keyboard-response,38,28521,0.0-1.0-8.0-0.0-2.0,0,0,50795,,,,,,,,,,,,,,,,,,,,,,,,,,,,,,,,,,,,,,8.5,2.0,,,,,,
39,,feedback,,html-keyboard-response,39,29527,0.0-1.0-8.0-0.0-3.0-0.0,0,0,50795,,,,,,6.0,,,,,,,,,,,,,,,,,,,,,,,,,,,,,,,,9.5,1.0,,,,,,
40,,iti,,html-keyboard-response,40,29629,0.0-1.0-8.0-0.0-5.0,0,0,50795,,,,,,,,,,,,,,,,,,,,,,,,,,,,,,,,,,,,,,10.5,1.0,,,,,,
41,,choice,,html-keyboard-response,41,29756,0.0-1.0-9.0-0.0-0.0,0,0,50795,,125.0,,,75.0,7.0,307.0,1000.0,1000.0,0.0,6.0,0.0,40-60,,0.0,poker card,stool,40.0,60.0,poker card5,stool13,60.0,60.0,22864800.thl.jpg,ASTOOL38.jpg,/static/Category_learning/Stimuli/Experimental_stims/poker card/22864800.thl.jpg,/static/Category_learning/Stimuli/Experimental_stims/stool/ASTOOL38.jpg,0.0,stool,poker card,60.0,40.0,stool13,poker card5,60.0,60.0,0.0,10.625,0.125,,,,,,
42,,confirmation,,html-keyboard-response,42,31138,0.0-1.0-9.0-0.0-1.0-0.0,0,0,50795,,,,,,7.0,,,,,,,,,,,,,,,,,,,,,,,,,,,,,,,,12.0,1.375,,,,,,
43,,isi,,html-keyboard-response,43,31241,0.0-1.0-9.0-0.0-2.0,0,0,50795,,,,,,,,,,,,,,,,,,,,,,,,,,,,,,,,,,,,,,13.0,1.0,,,,,,
44,,feedback,,html-keyboard-response,44,32244,0.0-1.0-9.0-0.0-3.0-0.0,0,0,50795,,,,,,7.0,,,,,,,,,,,,,,,,,,,,,,,,,,,,,,,,14.0,1.0,,,,,,
45,,iti,,html-keyboard-response,45,32348,0.0-1.0-9.0-0.0-5.0,0,0,50795,,,,,,,,,,,,,,,,,,,,,,,,,,,,,,,,,,,,,,15.0,1.0,,,,,,
46,,choice,,html-keyboard-response,46,32397,0.0-1.0-10.0-0.0-0.0,0,0,50795,,46.0,,,68.0,8.0,308.0,1000.0,3500.0,0.0,6.0,0.0,20-60,,0.0,hammer,trumpet,20.0,60.0,hammer13,trumpet11,20.0,80.0,hammer2.jpg,JUPITER+JTR604L.jpg,/static/Category_learning/Stimuli/Experimental_stims/hammer/hammer2.jpg,/static/Category_learning/Stimuli/Experimental_stims/trumpet/JUPITER+JTR604L.jpg,1.0,hammer,trumpet,20.0,60.0,hammer13,trumpet11,20.0,80.0,0.0,15.046,0.046,,,,,,
47,,confirmation,,html-keyboard-response,47,33858,0.0-1.0-10.0-0.0-1.0-0.0,0,0,50795,,,,,,8.0,,,,,,,,,,,,,,,,,,,,,,,,,,,,,,,,16.5,1.454,,,,,,
48,,isi,,html-keyboard-response,48,33961,0.0-1.0-10.0-0.0-2.0,0,0,50795,,,,,,,,,,,,,,,,,,,,,,,,,,,,,,,,,,,,,,17.5,1.0,,,,,,
49,,feedback,,html-keyboard-response,49,34966,0.0-1.0-10.0-0.0-3.0-0.0,0,0,50795,,,,,,8.0,,,,,,,,,,,,,,,,,,,,,,,,,,,,,,,,18.5,1.0,,,,,,
50,,iti,,html-keyboard-response,50,35070,0.0-1.0-10.0-0.0-5.0,0,0,50795,,,,,,,,,,,,,,,,,,,,,,,,,,,,,,,,,,,,,,22.0,3.5,,,,,,
51,,choice,,html-keyboard-response,51,35237,0.0-1.0-11.0-0.0-0.0,0,0,50795,,164.0,,,68.0,9.0,309.0,2000.0,1000.0,0.0,6.0,0.0,40-60,,0.0,necklace,tent,40.0,60.0,necklace6,tent1,60.0,40.0,Agoldnecklace.jpg,Atent8.jpg,/static/Category_learning/Stimuli/Experimental_stims/necklace/Agoldnecklace.jpg,/static/Category_learning/Stimuli/Experimental_stims/tent/Atent8.jpg,1.0,necklace,tent,40.0,60.0,necklace6,tent1,60.0,40.0,0.0,22.164,0.16399999999999998,,,,,,
52,,confirmation,,html-keyboard-response,52,36578,0.0-1.0-11.0-0.0-1.0-0.0,0,0,50795,,,,,,9.0,,,,,,,,,,,,,,,,,,,,,,,,,,,,,,,,23.5,1.3359999999999999,,,,,,
53,,isi,,html-keyboard-response,53,36683,0.0-1.0-11.0-0.0-2.0,0,0,50795,,,,,,,,,,,,,,,,,,,,,,,,,,,,,,,,,,,,,,25.5,2.0,,,,,,
54,,feedback,,html-keyboard-response,54,37687,0.0-1.0-11.0-0.0-3.0-0.0,0,0,50795,,,,,,9.0,,,,,,,,,,,,,,,,,,,,,,,,,,,,,,,,26.5,1.0,,,,,,
55,,iti,,html-keyboard-response,55,37793,0.0-1.0-11.0-0.0-5.0,0,0,50795,,,,,,,,,,,,,,,,,,,,,,,,,,,,,,,,,,,,,,27.5,1.0,,,,,,
56,,choice,,html-keyboard-response,56,37798,0.0-1.0-12.0-0.0-0.0,0,0,50795,,1.0,,,75.0,10.0,310.0,1500.0,1500.0,0.0,6.0,1.0,20-40,0.0,,necklace,hammer,40.0,20.0,necklace6,hammer13,60.0,20.0,Agoldnecklace.jpg,hammer2.jpg,/static/Category_learning/Stimuli/Experimental_stims/necklace/Agoldnecklace.jpg,/static/Category_learning/Stimuli/Experimental_stims/hammer/hammer2.jpg,0.0,hammer,necklace,20.0,40.0,hammer13,necklace6,20.0,60.0,0.0,27.500999999999998,0.001,,,,,,
57,,confirmation,,html-keyboard-response,57,39303,0.0-1.0-12.0-0.0-1.0-0.0,0,0,50795,,,,,,10.0,,,,,,,,,,,,,,,,,,,,,,,,,,,,,,,,29.0,1.499,,,,,,
58,,isi,,html-keyboard-response,58,39410,0.0-1.0-12.0-0.0-2.0,0,0,50795,,,,,,,,,,,,,,,,,,,,,,,,,,,,,,,,,,,,,,30.5,1.5,,,,,,
59,,feedback,,html-keyboard-response,59,40417,0.0-1.0-12.0-0.0-3.0-0.0,0,0,50795,,,,,,10.0,,,,,,,,,,,,,,,,,,,,,,,,,,,,,,,,31.5,1.0,,,,,,
60,,iti,,html-keyboard-response,60,40520,0.0-1.0-12.0-0.0-5.0,0,0,50795,,,,,,,,,,,,,,,,,,,,,,,,,,,,,,,,,,,,,,33.0,1.5,,,,,,
61,,choice,,html-keyboard-response,61,40596,0.0-1.0-13.0-0.0-0.0,0,0,50795,,72.0,,,68.0,11.0,311.0,2000.0,1500.0,0.0,6.0,1.0,20-80,0.0,,dresser,makeup compact,80.0,20.0,dresser5,makeup compact1,100.0,0.0,ADRESSE55.jpg,P190250_hero.jpg,/static/Category_learning/Stimuli/Experimental_stims/dresser/ADRESSE55.jpg,/static/Category_learning/Stimuli/Experimental_stims/makeup compact/P190250_hero.jpg,1.0,dresser,makeup compact,80.0,20.0,dresser5,makeup compact1,100.0,0.0,0.0,33.071999999999996,0.07200000000000001,,,,,,
62,,confirmation,,html-keyboard-response,62,42030,0.0-1.0-13.0-0.0-1.0-0.0,0,0,50795,,,,,,11.0,,,,,,,,,,,,,,,,,,,,,,,,,,,,,,,,34.5,1.4280000000000002,,,,,,
63,,isi,,html-keyboard-response,63,42135,0.0-1.0-13.0-0.0-2.0,0,0,50795,,,,,,,,,,,,,,,,,,,,,,,,,,,,,,,,,,,,,,36.5,2.0,,,,,,
64,,feedback,,html-keyboard-response,64,43143,0.0-1.0-13.0-0.0-3.0-0.0,0,0,50795,,,,,,11.0,,,,,,,,,,,,,,,,,,,,,,,,,,,,,,,,37.5,1.0,,,,,,
65,,iti,,html-keyboard-response,65,43250,0.0-1.0-13.0-0.0-5.0,0,0,50795,,,,,,,,,,,,,,,,,,,,,,,,,,,,,,,,,,,,,,39.0,1.5,,,,,,
66,,choice,,html-keyboard-response,66,43269,0.0-1.0-14.0-0.0-0.0,0,0,50795,,16.0,,,75.0,12.0,312.0,1000.0,1000.0,0.0,6.0,0.0,80-80,,,bowl,fan,80.0,80.0,bowl4,fan1,80.0,60.0,Abowl77.jpg,01393.fpx.jpg,/static/Category_learning/Stimuli/Experimental_stims/bowl/Abowl77.jpg,/static/Category_learning/Stimuli/Experimental_stims/fan/01393.fpx.jpg,0.0,fan,bowl,80.0,80.0,fan1,bowl4,60.0,80.0,0.0,39.016,0.016,,,,,,
67,,confirmation,,html-keyboard-response,67,44759,0.0-1.0-14.0-0.0-1.0-0.0,0,0,50795,,,,,,12.0,,,,,,,,,,,,,,,,,,,,,,,,,,,,,,,,40.5,1.484,,,,,,
68,,isi,,html-keyboard-response,68,44862,0.0-1.0-14.0-0.0-2.0,0,0,50795,,,,,,,,,,,,,,,,,,,,,,,,,,,,,,,,,,,,,,41.5,1.0,,,,,,
69,,feedback,,html-keyboard-response,69,45869,0.0-1.0-14.0-0.0-3.0-0.0,0,0,50795,,,,,,12.0,,,,,,,,,,,,,,,,,,,,,,,,,,,,,,,,42.5,1.0,,,,,,
70,,iti,,html-keyboard-response,70,45975,0.0-1.0-14.0-0.0-5.0,0,0,50795,,,,,,,,,,,,,,,,,,,,,,,,,,,,,,,,,,,,,,43.5,1.0,,,,,,
71,,choice,,html-keyboard-response,71,48104,0.0-1.0-15.0-0.0-0.0,0,0,50795,,,,,,13.0,313.0,3500.0,2000.0,0.0,6.0,0.0,20-60,,1.0,tent,hat,60.0,20.0,tent8,hat8,60.0,20.0,quechua_tent-1.jpg,ABLUEHAT.jpg,/static/Category_learning/Stimuli/Experimental_stims/tent/quechua_tent-1.jpg,/static/Category_learning/Stimuli/Experimental_stims/hat/ABLUEHAT.jpg,,,,,,,,,,1.0,45.0,1.5,,,,,,
72,,isi,,html-keyboard-response,72,48791,0.0-1.0-15.0-0.0-2.0,0,0,50795,,,,,,,,,,,,,,,,,,,,,,,,,,,,,,,,,,,,,,48.5,3.5,,,,,,
73,,no_response,,html-keyboard-response,73,49797,0.0-1.0-15.0-0.0-4.0-0.0,1,0,50795,,,,,,,,,,,,,,,,,,,,,,,,,,,,,,,,,,,,,,49.5,1.0,,,,,,
74,,iti,,html-keyboard-response,74,49917,0.0-1.0-15.0-0.0-5.0,0,0,50795,,,,,,,,,,,,,,,,,,,,,,,,,,,,,,,,,,,,,,51.5,2.0,,,,,,
75,,choice,,html-keyboard-response,75,50386,0.0-1.0-15.0-0.1-0.1,0,0,50795,,467.0,,,68.0,13.0,313.0,3500.0,2000.0,0.0,6.0,0.0,20-60,,1.0,tent,hat,60.0,20.0,tent8,hat8,60.0,20.0,quechua_tent-1.jpg,ABLUEHAT.jpg,/static/Category_learning/Stimuli/Experimental_stims/tent/quechua_tent-1.jpg,/static/Category_learning/Stimuli/Experimental_stims/hat/ABLUEHAT.jpg,1.0,tent,hat,60.0,20.0,tent8,hat8,60.0,20.0,0.0,51.967,0.467,,,,,,
76,,confirmation,,html-keyboard-response,76,51426,0.0-1.0-15.0-0.1-1.1-0.1,0,0,50795,,,,,,13.0,,,,,,,,,,,,,,,,,,,,,,,,,,,,,,,,53.0,1.033,,,,,,
77,,isi,,html-keyboard-response,77,51529,0.0-1.0-15.0-0.1-2.1,0,0,50795,,,,,,,,,,,,,,,,,,,,,,,,,,,,,,,,,,,,,,54.0,1.0,,,,,,
78,,feedback,,html-keyboard-response,78,52535,0.0-1.0-15.0-0.1-3.1-0.1,0,0,50795,,,,,,13.0,,,,,,,,,,,,,,,,,,,,,,,,,,,,,,,,55.0,1.0,,,,,,
79,,iti,,html-keyboard-response,79,52642,0.0-1.0-15.0-0.1-5.1,0,0,50795,,,,,,,,,,,,,,,,,,,,,,,,,,,,,,,,,,,,,,58.5,3.5,,,,,,
80,,choice,,html-keyboard-response,80,52728,0.0-1.0-16.0-0.0-0.0,0,0,50795,,83.0,,,75.0,14.0,314.0,2000.0,1500.0,0.0,6.0,0.0,20-60,,0.0,motorcycle,telescope,20.0,60.0,motorcycle1,telescope3,0.0,40.0,motorcycle30.jpg,41V67SB5NJL._SS500_.jpg,/static/Category_learning/Stimuli/Experimental_stims/motorcycle/motorcycle30.jpg,/static/Category_learning/Stimuli/Experimental_stims/telescope/41V67SB5NJL._SS500_.jpg,0.0,telescope,motorcycle,60.0,20.0,telescope3,motorcycle1,40.0,0.0,0.0,58.583,0.083,,,,,,
81,,confirmation,,html-keyboard-response,81,54151,0.0-1.0-16.0-0.0-1.0-0.0,0,0,50795,,,,,,14.0,,,,,,,,,,,,,,,,,,,,,,,,,,,,,,,,60.0,1.4169999999999998,,,,,,
82,,isi,,html-keyboard-response,82,54258,0.0-1.0-16.0-0.0-2.0,0,0,50795,,,,,,,,,,,,,,,,,,,,,,,,,,,,,,,,,,,,,,62.0,2.0,,,,,,
83,,feedback,,html-keyboard-response,83,55266,0.0-1.0-16.0-0.0-3.0-0.0,0,0,50795,,,,,,14.0,,,,,,,,,,,,,,,,,,,,,,,,,,,,,,,,63.0,1.0,,,,,,
84,,iti,,html-keyboard-response,84,55373,0.0-1.0-16.0-0.0-5.0,0,0,50795,,,,,,,,,,,,,,,,,,,,,,,,,,,,,,,,,,,,,,64.5,1.5,,,,,,
85,,choice,,html-keyboard-response,85,56877,0.0-1.0-17.0-0.0-0.0,0,0,50795,,,,,,15.0,315.0,1000.0,3000.0,0.0,6.0,0.0,20-20,,,key chain,frame,20.0,20.0,key chain11,frame1,20.0,0.0,31H95JKXWNL._SS500_.jpg,AFRAME127.jpg,/static/Category_learning/Stimuli/Experimental_stims/key chain/31H95JKXWNL._SS500_.jpg,/static/Category_learning/Stimuli/Experimental_stims/frame/AFRAME127.jpg,,,,,,,,,,1.0,66.0,1.5,,,,,,
86,,isi,,html-keyboard-response,86,56984,0.0-1.0-17.0-0.0-2.0,0,0,50795,,,,,,,,,,,,,,,,,,,,,,,,,,,,,,,,,,,,,,67.0,1.0,,,,,,
87,,no_response,,html-keyboard-response,87,57987,0.0-1.0-17.0-0.0-4.0-0.0,1,0,50795,,,,,,,,,,,,,,,,,,,,,,,,,,,,,,,,,,,,,,68.0,1.0,,,,,,
88,,iti,,html-keyboard-response,88,58109,0.0-1.0-17.0-0.0-5.0,0,0,50795,,,,,,,,,,,,,,,,,,,,,,,,,,,,,,,,,,,,,,71.0,3.0,,,,,,
89,,choice,,html-keyboard-response,89,59618,0.0-1.0-17.0-0.1-0.1,0,0,50795,,,,,,15.0,315.0,1000.0,3000.0,0.0,6.0,0.0,20-20,,,key chain,frame,20.0,20.0,key chain11,frame1,20.0,0.0,31H95JKXWNL._SS500_.jpg,AFRAME127.jpg,/static/Category_learning/Stimuli/Experimental_stims/key chain/31H95JKXWNL._SS500_.jpg,/static/Category_learning/Stimuli/Experimental_stims/frame/AFRAME127.jpg,,,,,,,,,,1.0,72.5,1.5,,,,,,
90,,isi,,html-keyboard-response,90,59725,0.0-1.0-17.0-0.1-2.1,0,0,50795,,,,,,,,,,,,,,,,,,,,,,,,,,,,,,,,,,,,,,74.0,1.5,,,,,,
91,,no_response,,html-keyboard-response,91,60728,0.0-1.0-17.0-0.1-4.1-0.1,1,0,50795,,,,,,,,,,,,,,,,,,,,,,,,,,,,,,,,,,,,,,75.0,1.0,,,,,,
92,,iti,,html-keyboard-response,92,60845,0.0-1.0-17.0-0.1-5.1,0,0,50795,,,,,,,,,,,,,,,,,,,,,,,,,,,,,,,,,,,,,,77.0,2.0,,,,,,
93,,choice,,html-keyboard-response,93,62351,0.0-1.0-17.0-0.2-0.2,0,0,50795,,,,,,15.0,315.0,1000.0,3000.0,0.0,6.0,0.0,20-20,,,key chain,frame,20.0,20.0,key chain11,frame1,20.0,0.0,31H95JKXWNL._SS500_.jpg,AFRAME127.jpg,/static/Category_learning/Stimuli/Experimental_stims/key chain/31H95JKXWNL._SS500_.jpg,/static/Category_learning/Stimuli/Experimental_stims/frame/AFRAME127.jpg,,,,,,,,,,1.0,78.5,1.5,,,,,,
94,,isi,,html-keyboard-response,94,62455,0.0-1.0-17.0-0.2-2.2,0,0,50795,,,,,,,,,,,,,,,,,,,,,,,,,,,,,,,,,,,,,,79.5,1.0,,,,,,
95,,no_response,,html-keyboard-response,95,63462,0.0-1.0-17.0-0.2-4.2-0.2,1,0,50795,,,,,,,,,,,,,,,,,,,,,,,,,,,,,,,,,,,,,,80.5,1.0,,,,,,
96,,iti,,html-keyboard-response,96,63581,0.0-1.0-17.0-0.2-5.2,0,0,50795,,,,,,,,,,,,,,,,,,,,,,,,,,,,,,,,,,,,,,82.5,2.0,,,,,,
97,,choice,,html-keyboard-response,97,65084,0.0-1.0-17.0-0.3-0.3,0,0,50795,,,,,,15.0,315.0,1000.0,3000.0,0.0,6.0,0.0,20-20,,,key chain,frame,20.0,20.0,key chain11,frame1,20.0,0.0,31H95JKXWNL._SS500_.jpg,AFRAME127.jpg,/static/Category_learning/Stimuli/Experimental_stims/key chain/31H95JKXWNL._SS500_.jpg,/static/Category_learning/Stimuli/Experimental_stims/frame/AFRAME127.jpg,,,,,,,,,,1.0,84.0,1.5,,,,,,
98,,isi,,html-keyboard-response,98,65192,0.0-1.0-17.0-0.3-2.3,0,0,50795,,,,,,,,,,,,,,,,,,,,,,,,,,,,,,,,,,,,,,86.0,2.0,,,,,,
99,,no_response,,html-keyboard-response,99,66195,0.0-1.0-17.0-0.3-4.3-0.3,1,0,50795,,,,,,,,,,,,,,,,,,,,,,,,,,,,,,,,,,,,,,87.0,1.0,,,,,,
100,,iti,,html-keyboard-response,100,66318,0.0-1.0-17.0-0.3-5.3,0,0,50795,,,,,,,,,,,,,,,,,,,,,,,,,,,,,,,,,,,,,,88.5,1.5,,,,,,
101,,choice,,html-keyboard-response,101,67821,0.0-1.0-17.0-0.4-0.4,0,0,50795,,,,,,15.0,315.0,1000.0,3000.0,0.0,6.0,0.0,20-20,,,key chain,frame,20.0,20.0,key chain11,frame1,20.0,0.0,31H95JKXWNL._SS500_.jpg,AFRAME127.jpg,/static/Category_learning/Stimuli/Experimental_stims/key chain/31H95JKXWNL._SS500_.jpg,/static/Category_learning/Stimuli/Experimental_stims/frame/AFRAME127.jpg,,,,,,,,,,1.0,90.0,1.5,,,,,,
102,,isi,,html-keyboard-response,102,67928,0.0-1.0-17.0-0.4-2.4,0,0,50795,,,,,,,,,,,,,,,,,,,,,,,,,,,,,,,,,,,,,,92.0,2.0,,,,,,
103,,no_response,,html-keyboard-response,103,68936,0.0-1.0-17.0-0.4-4.4-0.4,1,0,50795,,,,,,,,,,,,,,,,,,,,,,,,,,,,,,,,,,,,,,93.0,1.0,,,,,,
104,,iti,,html-keyboard-response,104,69058,0.0-1.0-17.0-0.4-5.4,0,0,50795,,,,,,,,,,,,,,,,,,,,,,,,,,,,,,,,,,,,,,94.0,1.0,,,,,,
105,,choice,,html-keyboard-response,105,70563,0.0-1.0-17.0-0.5-0.5,0,0,50795,,,,,,15.0,315.0,1000.0,3000.0,0.0,6.0,0.0,20-20,,,key chain,frame,20.0,20.0,key chain11,frame1,20.0,0.0,31H95JKXWNL._SS500_.jpg,AFRAME127.jpg,/static/Category_learning/Stimuli/Experimental_stims/key chain/31H95JKXWNL._SS500_.jpg,/static/Category_learning/Stimuli/Experimental_stims/frame/AFRAME127.jpg,,,,,,,,,,1.0,95.5,1.5,,,,,,
106,,isi,,html-keyboard-response,106,70669,0.0-1.0-17.0-0.5-2.5,0,0,50795,,,,,,,,,,,,,,,,,,,,,,,,,,,,,,,,,,,,,,98.5,3.0,,,,,,
107,,no_response,,html-keyboard-response,107,71672,0.0-1.0-17.0-0.5-4.5-0.5,1,0,50795,,,,,,,,,,,,,,,,,,,,,,,,,,,,,,,,,,,,,,99.5,1.0,,,,,,
108,,iti,,html-keyboard-response,108,71789,0.0-1.0-17.0-0.5-5.5,0,0,50795,,,,,,,,,,,,,,,,,,,,,,,,,,,,,,,,,,,,,,101.5,2.0,,,,,,
109,,choice,,html-keyboard-response,109,73293,0.0-1.0-17.0-0.6-0.6,0,0,50795,,,,,,15.0,315.0,1000.0,3000.0,0.0,6.0,0.0,20-20,,,key chain,frame,20.0,20.0,key chain11,frame1,20.0,0.0,31H95JKXWNL._SS500_.jpg,AFRAME127.jpg,/static/Category_learning/Stimuli/Experimental_stims/key chain/31H95JKXWNL._SS500_.jpg,/static/Category_learning/Stimuli/Experimental_stims/frame/AFRAME127.jpg,,,,,,,,,,1.0,103.0,1.5,,,,,,
110,,isi,,html-keyboard-response,110,73400,0.0-1.0-17.0-0.6-2.6,0,0,50795,,,,,,,,,,,,,,,,,,,,,,,,,,,,,,,,,,,,,,106.0,3.0,,,,,,
111,,no_response,,html-keyboard-response,111,74404,0.0-1.0-17.0-0.6-4.6-0.6,1,0,50795,,,,,,,,,,,,,,,,,,,,,,,,,,,,,,,,,,,,,,107.0,1.0,,,,,,
112,,iti,,html-keyboard-response,112,74520,0.0-1.0-17.0-0.6-5.6,0,0,50795,,,,,,,,,,,,,,,,,,,,,,,,,,,,,,,,,,,,,,108.0,1.0,,,,,,
113,,choice,,html-keyboard-response,113,76025,0.0-1.0-17.0-0.7-0.7,0,0,50795,,,,,,15.0,315.0,1000.0,3000.0,0.0,6.0,0.0,20-20,,,key chain,frame,20.0,20.0,key chain11,frame1,20.0,0.0,31H95JKXWNL._SS500_.jpg,AFRAME127.jpg,/static/Category_learning/Stimuli/Experimental_stims/key chain/31H95JKXWNL._SS500_.jpg,/static/Category_learning/Stimuli/Experimental_stims/frame/AFRAME127.jpg,,,,,,,,,,1.0,109.5,1.5,,,,,,
114,,isi,,html-keyboard-response,114,76131,0.0-1.0-17.0-0.7-2.7,0,0,50795,,,,,,,,,,,,,,,,,,,,,,,,,,,,,,,,,,,,,,110.5,1.0,,,,,,
115,,no_response,,html-keyboard-response,115,77136,0.0-1.0-17.0-0.7-4.7-0.7,1,0,50795,,,,,,,,,,,,,,,,,,,,,,,,,,,,,,,,,,,,,,111.5,1.0,,,,,,
116,,iti,,html-keyboard-response,116,77251,0.0-1.0-17.0-0.7-5.7,0,0,50795,,,,,,,,,,,,,,,,,,,,,,,,,,,,,,,,,,,,,,113.0,1.5,,,,,,
117,,choice,,html-keyboard-response,117,78755,0.0-1.0-17.0-0.8-0.8,0,0,50795,,,,,,15.0,315.0,1000.0,3000.0,0.0,6.0,0.0,20-20,,,key chain,frame,20.0,20.0,key chain11,frame1,20.0,0.0,31H95JKXWNL._SS500_.jpg,AFRAME127.jpg,/static/Category_learning/Stimuli/Experimental_stims/key chain/31H95JKXWNL._SS500_.jpg,/static/Category_learning/Stimuli/Experimental_stims/frame/AFRAME127.jpg,,,,,,,,,,1.0,114.5,1.5,,,,,,
118,,isi,,html-keyboard-response,118,78861,0.0-1.0-17.0-0.8-2.8,0,0,50795,,,,,,,,,,,,,,,,,,,,,,,,,,,,,,,,,,,,,,115.5,1.0,,,,,,
119,,no_response,,html-keyboard-response,119,79868,0.0-1.0-17.0-0.8-4.8-0.8,1,0,50795,,,,,,,,,,,,,,,,,,,,,,,,,,,,,,,,,,,,,,116.5,1.0,,,,,,
120,,iti,,html-keyboard-response,120,79987,0.0-1.0-17.0-0.8-5.8,0,0,50795,,,,,,,,,,,,,,,,,,,,,,,,,,,,,,,,,,,,,,117.5,1.0,,,,,,
121,,choice,,html-keyboard-response,121,81491,0.0-1.0-17.0-0.9-0.9,0,0,50795,,,,,,15.0,315.0,1000.0,3000.0,0.0,6.0,0.0,20-20,,,key chain,frame,20.0,20.0,key chain11,frame1,20.0,0.0,31H95JKXWNL._SS500_.jpg,AFRAME127.jpg,/static/Category_learning/Stimuli/Experimental_stims/key chain/31H95JKXWNL._SS500_.jpg,/static/Category_learning/Stimuli/Experimental_stims/frame/AFRAME127.jpg,,,,,,,,,,1.0,119.0,1.5,,,,,,
122,,isi,,html-keyboard-response,122,81598,0.0-1.0-17.0-0.9-2.9,0,0,50795,,,,,,,,,,,,,,,,,,,,,,,,,,,,,,,,,,,,,,120.0,1.0,,,,,,
123,,no_response,,html-keyboard-response,123,82606,0.0-1.0-17.0-0.9-4.9-0.9,1,0,50795,,,,,,,,,,,,,,,,,,,,,,,,,,,,,,,,,,,,,,121.0,1.0,,,,,,
124,,iti,,html-keyboard-response,124,82723,0.0-1.0-17.0-0.9-5.9,0,0,50795,,,,,,,,,,,,,,,,,,,,,,,,,,,,,,,,,,,,,,122.5,1.5,,,,,,
125,,choice,,html-keyboard-response,125,84230,0.0-1.0-17.0-0.10-0.10,0,0,50795,,,,,,15.0,315.0,1000.0,3000.0,0.0,6.0,0.0,20-20,,,key chain,frame,20.0,20.0,key chain11,frame1,20.0,0.0,31H95JKXWNL._SS500_.jpg,AFRAME127.jpg,/static/Category_learning/Stimuli/Experimental_stims/key chain/31H95JKXWNL._SS500_.jpg,/static/Category_learning/Stimuli/Experimental_stims/frame/AFRAME127.jpg,,,,,,,,,,1.0,124.0,1.5,,,,,,
126,,isi,,html-keyboard-response,126,84336,0.0-1.0-17.0-0.10-2.10,0,0,50795,,,,,,,,,,,,,,,,,,,,,,,,,,,,,,,,,,,,,,125.0,1.0,,,,,,
127,,no_response,,html-keyboard-response,127,85342,0.0-1.0-17.0-0.10-4.10-0.10,1,0,50795,,,,,,,,,,,,,,,,,,,,,,,,,,,,,,,,,,,,,,126.0,1.0,,,,,,
128,,iti,,html-keyboard-response,128,85462,0.0-1.0-17.0-0.10-5.10,0,0,50795,,,,,,,,,,,,,,,,,,,,,,,,,,,,,,,,,,,,,,127.0,1.0,,,,,,
129,,choice,,html-keyboard-response,129,86968,0.0-1.0-17.0-0.11-0.11,0,0,50795,,,,,,15.0,315.0,1000.0,3000.0,0.0,6.0,0.0,20-20,,,key chain,frame,20.0,20.0,key chain11,frame1,20.0,0.0,31H95JKXWNL._SS500_.jpg,AFRAME127.jpg,/static/Category_learning/Stimuli/Experimental_stims/key chain/31H95JKXWNL._SS500_.jpg,/static/Category_learning/Stimuli/Experimental_stims/frame/AFRAME127.jpg,,,,,,,,,,1.0,128.5,1.5,,,,,,
130,,isi,,html-keyboard-response,130,87075,0.0-1.0-17.0-0.11-2.11,0,0,50795,,,,,,,,,,,,,,,,,,,,,,,,,,,,,,,,,,,,,,129.5,1.0,,,,,,
131,,no_response,,html-keyboard-response,131,88081,0.0-1.0-17.0-0.11-4.11-0.11,1,0,50795,,,,,,,,,,,,,,,,,,,,,,,,,,,,,,,,,,,,,,130.5,1.0,,,,,,
132,,iti,,html-keyboard-response,132,88204,0.0-1.0-17.0-0.11-5.11,0,0,50795,,,,,,,,,,,,,,,,,,,,,,,,,,,,,,,,,,,,,,132.5,2.0,,,,,,
133,,choice,,html-keyboard-response,133,89710,0.0-1.0-17.0-0.12-0.12,0,0,50795,,,,,,15.0,315.0,1000.0,3000.0,0.0,6.0,0.0,20-20,,,key chain,frame,20.0,20.0,key chain11,frame1,20.0,0.0,31H95JKXWNL._SS500_.jpg,AFRAME127.jpg,/static/Category_learning/Stimuli/Experimental_stims/key chain/31H95JKXWNL._SS500_.jpg,/static/Category_learning/Stimuli/Experimental_stims/frame/AFRAME127.jpg,,,,,,,,,,1.0,134.0,1.5,,,,,,
134,,isi,,html-keyboard-response,134,89816,0.0-1.0-17.0-0.12-2.12,0,0,50795,,,,,,,,,,,,,,,,,,,,,,,,,,,,,,,,,,,,,,137.5,3.5,,,,,,
135,,no_response,,html-keyboard-response,135,90824,0.0-1.0-17.0-0.12-4.12-0.12,1,0,50795,,,,,,,,,,,,,,,,,,,,,,,,,,,,,,,,,,,,,,138.5,1.0,,,,,,
136,,iti,,html-keyboard-response,136,90942,0.0-1.0-17.0-0.12-5.12,0,0,50795,,,,,,,,,,,,,,,,,,,,,,,,,,,,,,,,,,,,,,142.0,3.5,,,,,,
137,,choice,,html-keyboard-response,137,92449,0.0-1.0-17.0-0.13-0.13,0,0,50795,,,,,,15.0,315.0,1000.0,3000.0,0.0,6.0,0.0,20-20,,,key chain,frame,20.0,20.0,key chain11,frame1,20.0,0.0,31H95JKXWNL._SS500_.jpg,AFRAME127.jpg,/static/Category_learning/Stimuli/Experimental_stims/key chain/31H95JKXWNL._SS500_.jpg,/static/Category_learning/Stimuli/Experimental_stims/frame/AFRAME127.jpg,,,,,,,,,,1.0,143.5,1.5,,,,,,
138,,isi,,html-keyboard-response,138,92552,0.0-1.0-17.0-0.13-2.13,0,0,50795,,,,,,,,,,,,,,,,,,,,,,,,,,,,,,,,,,,,,,144.5,1.0,,,,,,
139,,no_response,,html-keyboard-response,139,93554,0.0-1.0-17.0-0.13-4.13-0.13,1,0,50795,,,,,,,,,,,,,,,,,,,,,,,,,,,,,,,,,,,,,,145.5,1.0,,,,,,
140,,iti,,html-keyboard-response,140,93673,0.0-1.0-17.0-0.13-5.13,0,0,50795,,,,,,,,,,,,,,,,,,,,,,,,,,,,,,,,,,,,,,146.5,1.0,,,,,,
141,,choice,,html-keyboard-response,141,95180,0.0-1.0-17.0-0.14-0.14,0,0,50795,,,,,,15.0,315.0,1000.0,3000.0,0.0,6.0,0.0,20-20,,,key chain,frame,20.0,20.0,key chain11,frame1,20.0,0.0,31H95JKXWNL._SS500_.jpg,AFRAME127.jpg,/static/Category_learning/Stimuli/Experimental_stims/key chain/31H95JKXWNL._SS500_.jpg,/static/Category_learning/Stimuli/Experimental_stims/frame/AFRAME127.jpg,,,,,,,,,,1.0,148.0,1.5,,,,,,
142,,isi,,html-keyboard-response,142,95287,0.0-1.0-17.0-0.14-2.14,0,0,50795,,,,,,,,,,,,,,,,,,,,,,,,,,,,,,,,,,,,,,149.5,1.5,,,,,,
143,,no_response,,html-keyboard-response,143,96291,0.0-1.0-17.0-0.14-4.14-0.14,1,0,50795,,,,,,,,,,,,,,,,,,,,,,,,,,,,,,,,,,,,,,150.5,1.0,,,,,,
144,,iti,,html-keyboard-response,144,96409,0.0-1.0-17.0-0.14-5.14,0,0,50795,,,,,,,,,,,,,,,,,,,,,,,,,,,,,,,,,,,,,,152.0,1.5,,,,,,
145,,choice,,html-keyboard-response,145,97912,0.0-1.0-17.0-0.15-0.15,0,0,50795,,,,,,15.0,315.0,1000.0,3000.0,0.0,6.0,0.0,20-20,,,key chain,frame,20.0,20.0,key chain11,frame1,20.0,0.0,31H95JKXWNL._SS500_.jpg,AFRAME127.jpg,/static/Category_learning/Stimuli/Experimental_stims/key chain/31H95JKXWNL._SS500_.jpg,/static/Category_learning/Stimuli/Experimental_stims/frame/AFRAME127.jpg,,,,,,,,,,1.0,153.5,1.5,,,,,,
146,,isi,,html-keyboard-response,146,98019,0.0-1.0-17.0-0.15-2.15,0,0,50795,,,,,,,,,,,,,,,,,,,,,,,,,,,,,,,,,,,,,,155.5,2.0,,,,,,
147,,no_response,,html-keyboard-response,147,99021,0.0-1.0-17.0-0.15-4.15-0.15,1,0,50795,,,,,,,,,,,,,,,,,,,,,,,,,,,,,,,,,,,,,,156.5,1.0,,,,,,
148,,iti,,html-keyboard-response,148,99139,0.0-1.0-17.0-0.15-5.15,0,0,50795,,,,,,,,,,,,,,,,,,,,,,,,,,,,,,,,,,,,,,158.0,1.5,,,,,,
149,,choice,,html-keyboard-response,149,100643,0.0-1.0-17.0-0.16-0.16,0,0,50795,,,,,,15.0,315.0,1000.0,3000.0,0.0,6.0,0.0,20-20,,,key chain,frame,20.0,20.0,key chain11,frame1,20.0,0.0,31H95JKXWNL._SS500_.jpg,AFRAME127.jpg,/static/Category_learning/Stimuli/Experimental_stims/key chain/31H95JKXWNL._SS500_.jpg,/static/Category_learning/Stimuli/Experimental_stims/frame/AFRAME127.jpg,,,,,,,,,,1.0,159.5,1.5,,,,,,
150,,isi,,html-keyboard-response,150,100750,0.0-1.0-17.0-0.16-2.16,0,0,50795,,,,,,,,,,,,,,,,,,,,,,,,,,,,,,,,,,,,,,161.5,2.0,,,,,,
151,,no_response,,html-keyboard-response,151,101756,0.0-1.0-17.0-0.16-4.16-0.16,1,0,50795,,,,,,,,,,,,,,,,,,,,,,,,,,,,,,,,,,,,,,162.5,1.0,,,,,,
152,,iti,,html-keyboard-response,152,101875,0.0-1.0-17.0-0.16-5.16,0,0,50795,,,,,,,,,,,,,,,,,,,,,,,,,,,,,,,,,,,,,,163.5,1.0,,,,,,
153,,choice,,html-keyboard-response,153,103379,0.0-1.0-17.0-0.17-0.17,0,0,50795,,,,,,15.0,315.0,1000.0,3000.0,0.0,6.0,0.0,20-20,,,key chain,frame,20.0,20.0,key chain11,frame1,20.0,0.0,31H95JKXWNL._SS500_.jpg,AFRAME127.jpg,/static/Category_learning/Stimuli/Experimental_stims/key chain/31H95JKXWNL._SS500_.jpg,/static/Category_learning/Stimuli/Experimental_stims/frame/AFRAME127.jpg,,,,,,,,,,1.0,165.0,1.5,,,,,,
154,,isi,,html-keyboard-response,154,103486,0.0-1.0-17.0-0.17-2.17,0,0,50795,,,,,,,,,,,,,,,,,,,,,,,,,,,,,,,,,,,,,,166.5,1.5,,,,,,
155,,no_response,,html-keyboard-response,155,104491,0.0-1.0-17.0-0.17-4.17-0.17,1,0,50795,,,,,,,,,,,,,,,,,,,,,,,,,,,,,,,,,,,,,,167.5,1.0,,,,,,
156,,iti,,html-keyboard-response,156,104612,0.0-1.0-17.0-0.17-5.17,0,0,50795,,,,,,,,,,,,,,,,,,,,,,,,,,,,,,,,,,,,,,170.5,3.0,,,,,,
157,,choice,,html-keyboard-response,157,106119,0.0-1.0-17.0-0.18-0.18,0,0,50795,,,,,,15.0,315.0,1000.0,3000.0,0.0,6.0,0.0,20-20,,,key chain,frame,20.0,20.0,key chain11,frame1,20.0,0.0,31H95JKXWNL._SS500_.jpg,AFRAME127.jpg,/static/Category_learning/Stimuli/Experimental_stims/key chain/31H95JKXWNL._SS500_.jpg,/static/Category_learning/Stimuli/Experimental_stims/frame/AFRAME127.jpg,,,,,,,,,,1.0,172.0,1.5,,,,,,
158,,isi,,html-keyboard-response,158,106222,0.0-1.0-17.0-0.18-2.18,0,0,50795,,,,,,,,,,,,,,,,,,,,,,,,,,,,,,,,,,,,,,175.0,3.0,,,,,,
159,,no_response,,html-keyboard-response,159,107227,0.0-1.0-17.0-0.18-4.18-0.18,1,0,50795,,,,,,,,,,,,,,,,,,,,,,,,,,,,,,,,,,,,,,176.0,1.0,,,,,,
160,,iti,,html-keyboard-response,160,107349,0.0-1.0-17.0-0.18-5.18,0,0,50795,,,,,,,,,,,,,,,,,,,,,,,,,,,,,,,,,,,,,,178.0,2.0,,,,,,
161,,choice,,html-keyboard-response,161,108856,0.0-1.0-17.0-0.19-0.19,0,0,50795,,,,,,15.0,315.0,1000.0,3000.0,0.0,6.0,0.0,20-20,,,key chain,frame,20.0,20.0,key chain11,frame1,20.0,0.0,31H95JKXWNL._SS500_.jpg,AFRAME127.jpg,/static/Category_learning/Stimuli/Experimental_stims/key chain/31H95JKXWNL._SS500_.jpg,/static/Category_learning/Stimuli/Experimental_stims/frame/AFRAME127.jpg,,,,,,,,,,1.0,179.5,1.5,,,,,,
162,,isi,,html-keyboard-response,162,108963,0.0-1.0-17.0-0.19-2.19,0,0,50795,,,,,,,,,,,,,,,,,,,,,,,,,,,,,,,,,,,,,,180.5,1.0,,,,,,
163,,no_response,,html-keyboard-response,163,109969,0.0-1.0-17.0-0.19-4.19-0.19,1,0,50795,,,,,,,,,,,,,,,,,,,,,,,,,,,,,,,,,,,,,,181.5,1.0,,,,,,
164,,iti,,html-keyboard-response,164,110086,0.0-1.0-17.0-0.19-5.19,0,0,50795,,,,,,,,,,,,,,,,,,,,,,,,,,,,,,,,,,,,,,184.5,3.0,,,,,,
165,,choice,,html-keyboard-response,165,111592,0.0-1.0-17.0-0.20-0.20,0,0,50795,,,,,,15.0,315.0,1000.0,3000.0,0.0,6.0,0.0,20-20,,,key chain,frame,20.0,20.0,key chain11,frame1,20.0,0.0,31H95JKXWNL._SS500_.jpg,AFRAME127.jpg,/static/Category_learning/Stimuli/Experimental_stims/key chain/31H95JKXWNL._SS500_.jpg,/static/Category_learning/Stimuli/Experimental_stims/frame/AFRAME127.jpg,,,,,,,,,,1.0,186.0,1.5,,,,,,
166,,isi,,html-keyboard-response,166,111699,0.0-1.0-17.0-0.20-2.20,0,0,50795,,,,,,,,,,,,,,,,,,,,,,,,,,,,,,,,,,,,,,187.0,1.0,,,,,,
167,,no_response,,html-keyboard-response,167,112702,0.0-1.0-17.0-0.20-4.20-0.20,1,0,50795,,,,,,,,,,,,,,,,,,,,,,,,,,,,,,,,,,,,,,188.0,1.0,,,,,,
168,,iti,,html-keyboard-response,168,112819,0.0-1.0-17.0-0.20-5.20,0,0,50795,,,,,,,,,,,,,,,,,,,,,,,,,,,,,,,,,,,,,,190.0,2.0,,,,,,
169,,choice,,html-keyboard-response,169,114323,0.0-1.0-17.0-0.21-0.21,0,0,50795,,,,,,15.0,315.0,1000.0,3000.0,0.0,6.0,0.0,20-20,,,key chain,frame,20.0,20.0,key chain11,frame1,20.0,0.0,31H95JKXWNL._SS500_.jpg,AFRAME127.jpg,/static/Category_learning/Stimuli/Experimental_stims/key chain/31H95JKXWNL._SS500_.jpg,/static/Category_learning/Stimuli/Experimental_stims/frame/AFRAME127.jpg,,,,,,,,,,1.0,191.5,1.5,,,,,,
170,,isi,,html-keyboard-response,170,114430,0.0-1.0-17.0-0.21-2.21,0,0,50795,,,,,,,,,,,,,,,,,,,,,,,,,,,,,,,,,,,,,,192.5,1.0,,,,,,
171,,no_response,,html-keyboard-response,171,115436,0.0-1.0-17.0-0.21-4.21-0.21,1,0,50795,,,,,,,,,,,,,,,,,,,,,,,,,,,,,,,,,,,,,,193.5,1.0,,,,,,
172,,iti,,html-keyboard-response,172,115552,0.0-1.0-17.0-0.21-5.21,0,0,50795,,,,,,,,,,,,,,,,,,,,,,,,,,,,,,,,,,,,,,194.5,1.0,,,,,,
173,,choice,,html-keyboard-response,173,117059,0.0-1.0-17.0-0.22-0.22,0,0,50795,,,,,,15.0,315.0,1000.0,3000.0,0.0,6.0,0.0,20-20,,,key chain,frame,20.0,20.0,key chain11,frame1,20.0,0.0,31H95JKXWNL._SS500_.jpg,AFRAME127.jpg,/static/Category_learning/Stimuli/Experimental_stims/key chain/31H95JKXWNL._SS500_.jpg,/static/Category_learning/Stimuli/Experimental_stims/frame/AFRAME127.jpg,,,,,,,,,,1.0,196.0,1.5,,,,,,
174,,isi,,html-keyboard-response,174,117167,0.0-1.0-17.0-0.22-2.22,0,0,50795,,,,,,,,,,,,,,,,,,,,,,,,,,,,,,,,,,,,,,197.5,1.5,,,,,,
175,,no_response,,html-keyboard-response,175,118173,0.0-1.0-17.0-0.22-4.22-0.22,1,0,50795,,,,,,,,,,,,,,,,,,,,,,,,,,,,,,,,,,,,,,198.5,1.0,,,,,,
176,,iti,,html-keyboard-response,176,118292,0.0-1.0-17.0-0.22-5.22,0,0,50795,,,,,,,,,,,,,,,,,,,,,,,,,,,,,,,,,,,,,,199.5,1.0,,,,,,
177,,choice,,html-keyboard-response,177,119795,0.0-1.0-17.0-0.23-0.23,0,0,50795,,,,,,15.0,315.0,1000.0,3000.0,0.0,6.0,0.0,20-20,,,key chain,frame,20.0,20.0,key chain11,frame1,20.0,0.0,31H95JKXWNL._SS500_.jpg,AFRAME127.jpg,/static/Category_learning/Stimuli/Experimental_stims/key chain/31H95JKXWNL._SS500_.jpg,/static/Category_learning/Stimuli/Experimental_stims/frame/AFRAME127.jpg,,,,,,,,,,1.0,201.0,1.5,,,,,,
178,,isi,,html-keyboard-response,178,119902,0.0-1.0-17.0-0.23-2.23,0,0,50795,,,,,,,,,,,,,,,,,,,,,,,,,,,,,,,,,,,,,,203.0,2.0,,,,,,
179,,no_response,,html-keyboard-response,179,120908,0.0-1.0-17.0-0.23-4.23-0.23,1,0,50795,,,,,,,,,,,,,,,,,,,,,,,,,,,,,,,,,,,,,,204.0,1.0,,,,,,
180,,iti,,html-keyboard-response,180,121028,0.0-1.0-17.0-0.23-5.23,0,0,50795,,,,,,,,,,,,,,,,,,,,,,,,,,,,,,,,,,,,,,207.5,3.5,,,,,,
181,,choice,,html-keyboard-response,181,122536,0.0-1.0-17.0-0.24-0.24,0,0,50795,,,,,,15.0,315.0,1000.0,3000.0,0.0,6.0,0.0,20-20,,,key chain,frame,20.0,20.0,key chain11,frame1,20.0,0.0,31H95JKXWNL._SS500_.jpg,AFRAME127.jpg,/static/Category_learning/Stimuli/Experimental_stims/key chain/31H95JKXWNL._SS500_.jpg,/static/Category_learning/Stimuli/Experimental_stims/frame/AFRAME127.jpg,,,,,,,,,,1.0,209.0,1.5,,,,,,
182,,isi,,html-keyboard-response,182,122643,0.0-1.0-17.0-0.24-2.24,0,0,50795,,,,,,,,,,,,,,,,,,,,,,,,,,,,,,,,,,,,,,210.0,1.0,,,,,,
183,,no_response,,html-keyboard-response,183,123648,0.0-1.0-17.0-0.24-4.24-0.24,1,0,50795,,,,,,,,,,,,,,,,,,,,,,,,,,,,,,,,,,,,,,211.0,1.0,,,,,,
184,,iti,,html-keyboard-response,184,123769,0.0-1.0-17.0-0.24-5.24,0,0,50795,,,,,,,,,,,,,,,,,,,,,,,,,,,,,,,,,,,,,,212.0,1.0,,,,,,
185,,choice,,html-keyboard-response,185,125273,0.0-1.0-17.0-0.25-0.25,0,0,50795,,,,,,15.0,315.0,1000.0,3000.0,0.0,6.0,0.0,20-20,,,key chain,frame,20.0,20.0,key chain11,frame1,20.0,0.0,31H95JKXWNL._SS500_.jpg,AFRAME127.jpg,/static/Category_learning/Stimuli/Experimental_stims/key chain/31H95JKXWNL._SS500_.jpg,/static/Category_learning/Stimuli/Experimental_stims/frame/AFRAME127.jpg,,,,,,,,,,1.0,213.5,1.5,,,,,,
186,,isi,,html-keyboard-response,186,125380,0.0-1.0-17.0-0.25-2.25,0,0,50795,,,,,,,,,,,,,,,,,,,,,,,,,,,,,,,,,,,,,,217.0,3.5,,,,,,
187,,no_response,,html-keyboard-response,187,126386,0.0-1.0-17.0-0.25-4.25-0.25,1,0,50795,,,,,,,,,,,,,,,,,,,,,,,,,,,,,,,,,,,,,,218.0,1.0,,,,,,
188,,iti,,html-keyboard-response,188,126505,0.0-1.0-17.0-0.25-5.25,0,0,50795,,,,,,,,,,,,,,,,,,,,,,,,,,,,,,,,,,,,,,219.0,1.0,,,,,,
189,,choice,,html-keyboard-response,189,128011,0.0-1.0-17.0-0.26-0.26,0,0,50795,,,,,,15.0,315.0,1000.0,3000.0,0.0,6.0,0.0,20-20,,,key chain,frame,20.0,20.0,key chain11,frame1,20.0,0.0,31H95JKXWNL._SS500_.jpg,AFRAME127.jpg,/static/Category_learning/Stimuli/Experimental_stims/key chain/31H95JKXWNL._SS500_.jpg,/static/Category_learning/Stimuli/Experimental_stims/frame/AFRAME127.jpg,,,,,,,,,,1.0,220.5,1.5,,,,,,
190,,isi,,html-keyboard-response,190,128118,0.0-1.0-17.0-0.26-2.26,0,0,50795,,,,,,,,,,,,,,,,,,,,,,,,,,,,,,,,,,,,,,221.5,1.0,,,,,,
191,,no_response,,html-keyboard-response,191,129124,0.0-1.0-17.0-0.26-4.26-0.26,1,0,50795,,,,,,,,,,,,,,,,,,,,,,,,,,,,,,,,,,,,,,222.5,1.0,,,,,,
192,,iti,,html-keyboard-response,192,129241,0.0-1.0-17.0-0.26-5.26,0,0,50795,,,,,,,,,,,,,,,,,,,,,,,,,,,,,,,,,,,,,,223.5,1.0,,,,,,
193,,choice,,html-keyboard-response,193,130745,0.0-1.0-17.0-0.27-0.27,0,0,50795,,,,,,15.0,315.0,1000.0,3000.0,0.0,6.0,0.0,20-20,,,key chain,frame,20.0,20.0,key chain11,frame1,20.0,0.0,31H95JKXWNL._SS500_.jpg,AFRAME127.jpg,/static/Category_learning/Stimuli/Experimental_stims/key chain/31H95JKXWNL._SS500_.jpg,/static/Category_learning/Stimuli/Experimental_stims/frame/AFRAME127.jpg,,,,,,,,,,1.0,225.0,1.5,,,,,,
194,,isi,,html-keyboard-response,194,130853,0.0-1.0-17.0-0.27-2.27,0,0,50795,,,,,,,,,,,,,,,,,,,,,,,,,,,,,,,,,,,,,,226.5,1.5,,,,,,
195,,no_response,,html-keyboard-response,195,131861,0.0-1.0-17.0-0.27-4.27-0.27,1,0,50795,,,,,,,,,,,,,,,,,,,,,,,,,,,,,,,,,,,,,,227.5,1.0,,,,,,
196,,iti,,html-keyboard-response,196,131977,0.0-1.0-17.0-0.27-5.27,0,0,50795,,,,,,,,,,,,,,,,,,,,,,,,,,,,,,,,,,,,,,230.5,3.0,,,,,,
197,,choice,,html-keyboard-response,197,133481,0.0-1.0-17.0-0.28-0.28,0,0,50795,,,,,,15.0,315.0,1000.0,3000.0,0.0,6.0,0.0,20-20,,,key chain,frame,20.0,20.0,key chain11,frame1,20.0,0.0,31H95JKXWNL._SS500_.jpg,AFRAME127.jpg,/static/Category_learning/Stimuli/Experimental_stims/key chain/31H95JKXWNL._SS500_.jpg,/static/Category_learning/Stimuli/Experimental_stims/frame/AFRAME127.jpg,,,,,,,,,,1.0,232.0,1.5,,,,,,
198,,isi,,html-keyboard-response,198,133587,0.0-1.0-17.0-0.28-2.28,0,0,50795,,,,,,,,,,,,,,,,,,,,,,,,,,,,,,,,,,,,,,233.5,1.5,,,,,,
199,,no_response,,html-keyboard-response,199,134591,0.0-1.0-17.0-0.28-4.28-0.28,1,0,50795,,,,,,,,,,,,,,,,,,,,,,,,,,,,,,,,,,,,,,234.5,1.0,,,,,,
200,,iti,,html-keyboard-response,200,134707,0.0-1.0-17.0-0.28-5.28,0,0,50795,,,,,,,,,,,,,,,,,,,,,,,,,,,,,,,,,,,,,,238.0,3.5,,,,,,
201,,choice,,html-keyboard-response,201,136216,0.0-1.0-17.0-0.29-0.29,0,0,50795,,,,,,15.0,315.0,1000.0,3000.0,0.0,6.0,0.0,20-20,,,key chain,frame,20.0,20.0,key chain11,frame1,20.0,0.0,31H95JKXWNL._SS500_.jpg,AFRAME127.jpg,/static/Category_learning/Stimuli/Experimental_stims/key chain/31H95JKXWNL._SS500_.jpg,/static/Category_learning/Stimuli/Experimental_stims/frame/AFRAME127.jpg,,,,,,,,,,1.0,239.5,1.5,,,,,,
202,,isi,,html-keyboard-response,202,136319,0.0-1.0-17.0-0.29-2.29,0,0,50795,,,,,,,,,,,,,,,,,,,,,,,,,,,,,,,,,,,,,,240.5,1.0,,,,,,
203,,no_response,,html-keyboard-response,203,137327,0.0-1.0-17.0-0.29-4.29-0.29,1,0,50795,,,,,,,,,,,,,,,,,,,,,,,,,,,,,,,,,,,,,,241.5,1.0,,,,,,
204,,iti,,html-keyboard-response,204,137444,0.0-1.0-17.0-0.29-5.29,0,0,50795,,,,,,,,,,,,,,,,,,,,,,,,,,,,,,,,,,,,,,243.0,1.5,,,,,,
205,,choice,,html-keyboard-response,205,138948,0.0-1.0-17.0-0.30-0.30,0,0,50795,,,,,,15.0,315.0,1000.0,3000.0,0.0,6.0,0.0,20-20,,,key chain,frame,20.0,20.0,key chain11,frame1,20.0,0.0,31H95JKXWNL._SS500_.jpg,AFRAME127.jpg,/static/Category_learning/Stimuli/Experimental_stims/key chain/31H95JKXWNL._SS500_.jpg,/static/Category_learning/Stimuli/Experimental_stims/frame/AFRAME127.jpg,,,,,,,,,,1.0,244.5,1.5,,,,,,
206,,isi,,html-keyboard-response,206,139055,0.0-1.0-17.0-0.30-2.30,0,0,50795,,,,,,,,,,,,,,,,,,,,,,,,,,,,,,,,,,,,,,245.5,1.0,,,,,,
207,,no_response,,html-keyboard-response,207,140060,0.0-1.0-17.0-0.30-4.30-0.30,1,0,50795,,,,,,,,,,,,,,,,,,,,,,,,,,,,,,,,,,,,,,246.5,1.0,,,,,,
208,,iti,,html-keyboard-response,208,140179,0.0-1.0-17.0-0.30-5.30,0,0,50795,,,,,,,,,,,,,,,,,,,,,,,,,,,,,,,,,,,,,,248.0,1.5,,,,,,
209,,choice,,html-keyboard-response,209,141686,0.0-1.0-17.0-0.31-0.31,0,0,50795,,,,,,15.0,315.0,1000.0,3000.0,0.0,6.0,0.0,20-20,,,key chain,frame,20.0,20.0,key chain11,frame1,20.0,0.0,31H95JKXWNL._SS500_.jpg,AFRAME127.jpg,/static/Category_learning/Stimuli/Experimental_stims/key chain/31H95JKXWNL._SS500_.jpg,/static/Category_learning/Stimuli/Experimental_stims/frame/AFRAME127.jpg,,,,,,,,,,1.0,249.5,1.5,,,,,,
210,,isi,,html-keyboard-response,210,141791,0.0-1.0-17.0-0.31-2.31,0,0,50795,,,,,,,,,,,,,,,,,,,,,,,,,,,,,,,,,,,,,,251.0,1.5,,,,,,
211,,no_response,,html-keyboard-response,211,142793,0.0-1.0-17.0-0.31-4.31-0.31,1,0,50795,,,,,,,,,,,,,,,,,,,,,,,,,,,,,,,,,,,,,,252.0,1.0,,,,,,
212,,iti,,html-keyboard-response,212,142911,0.0-1.0-17.0-0.31-5.31,0,0,50795,,,,,,,,,,,,,,,,,,,,,,,,,,,,,,,,,,,,,,253.0,1.0,,,,,,
213,,choice,,html-keyboard-response,213,144417,0.0-1.0-17.0-0.32-0.32,0,0,50795,,,,,,15.0,315.0,1000.0,3000.0,0.0,6.0,0.0,20-20,,,key chain,frame,20.0,20.0,key chain11,frame1,20.0,0.0,31H95JKXWNL._SS500_.jpg,AFRAME127.jpg,/static/Category_learning/Stimuli/Experimental_stims/key chain/31H95JKXWNL._SS500_.jpg,/static/Category_learning/Stimuli/Experimental_stims/frame/AFRAME127.jpg,,,,,,,,,,1.0,254.5,1.5,,,,,,
214,,isi,,html-keyboard-response,214,144521,0.0-1.0-17.0-0.32-2.32,0,0,50795,,,,,,,,,,,,,,,,,,,,,,,,,,,,,,,,,,,,,,255.5,1.0,,,,,,
215,,no_response,,html-keyboard-response,215,145527,0.0-1.0-17.0-0.32-4.32-0.32,1,0,50795,,,,,,,,,,,,,,,,,,,,,,,,,,,,,,,,,,,,,,256.5,1.0,,,,,,
216,,iti,,html-keyboard-response,216,145648,0.0-1.0-17.0-0.32-5.32,0,0,50795,,,,,,,,,,,,,,,,,,,,,,,,,,,,,,,,,,,,,,257.5,1.0,,,,,,
217,,choice,,html-keyboard-response,217,147156,0.0-1.0-17.0-0.33-0.33,0,0,50795,,,,,,15.0,315.0,1000.0,3000.0,0.0,6.0,0.0,20-20,,,key chain,frame,20.0,20.0,key chain11,frame1,20.0,0.0,31H95JKXWNL._SS500_.jpg,AFRAME127.jpg,/static/Category_learning/Stimuli/Experimental_stims/key chain/31H95JKXWNL._SS500_.jpg,/static/Category_learning/Stimuli/Experimental_stims/frame/AFRAME127.jpg,,,,,,,,,,1.0,259.0,1.5,,,,,,
218,,isi,,html-keyboard-response,218,147263,0.0-1.0-17.0-0.33-2.33,0,0,50795,,,,,,,,,,,,,,,,,,,,,,,,,,,,,,,,,,,,,,261.0,2.0,,,,,,
219,,no_response,,html-keyboard-response,219,148270,0.0-1.0-17.0-0.33-4.33-0.33,1,0,50795,,,,,,,,,,,,,,,,,,,,,,,,,,,,,,,,,,,,,,262.0,1.0,,,,,,
220,,iti,,html-keyboard-response,220,148388,0.0-1.0-17.0-0.33-5.33,0,0,50795,,,,,,,,,,,,,,,,,,,,,,,,,,,,,,,,,,,,,,263.0,1.0,,,,,,
221,,choice,,html-keyboard-response,221,149894,0.0-1.0-17.0-0.34-0.34,0,0,50795,,,,,,15.0,315.0,1000.0,3000.0,0.0,6.0,0.0,20-20,,,key chain,frame,20.0,20.0,key chain11,frame1,20.0,0.0,31H95JKXWNL._SS500_.jpg,AFRAME127.jpg,/static/Category_learning/Stimuli/Experimental_stims/key chain/31H95JKXWNL._SS500_.jpg,/static/Category_learning/Stimuli/Experimental_stims/frame/AFRAME127.jpg,,,,,,,,,,1.0,264.5,1.5,,,,,,
222,,isi,,html-keyboard-response,222,150001,0.0-1.0-17.0-0.34-2.34,0,0,50795,,,,,,,,,,,,,,,,,,,,,,,,,,,,,,,,,,,,,,265.5,1.0,,,,,,
223,,no_response,,html-keyboard-response,223,151006,0.0-1.0-17.0-0.34-4.34-0.34,1,0,50795,,,,,,,,,,,,,,,,,,,,,,,,,,,,,,,,,,,,,,266.5,1.0,,,,,,
224,,iti,,html-keyboard-response,224,151124,0.0-1.0-17.0-0.34-5.34,0,0,50795,,,,,,,,,,,,,,,,,,,,,,,,,,,,,,,,,,,,,,267.5,1.0,,,,,,
225,,choice,,html-keyboard-response,225,152628,0.0-1.0-17.0-0.35-0.35,0,0,50795,,,,,,15.0,315.0,1000.0,3000.0,0.0,6.0,0.0,20-20,,,key chain,frame,20.0,20.0,key chain11,frame1,20.0,0.0,31H95JKXWNL._SS500_.jpg,AFRAME127.jpg,/static/Category_learning/Stimuli/Experimental_stims/key chain/31H95JKXWNL._SS500_.jpg,/static/Category_learning/Stimuli/Experimental_stims/frame/AFRAME127.jpg,,,,,,,,,,1.0,269.0,1.5,,,,,,
226,,isi,,html-keyboard-response,226,152735,0.0-1.0-17.0-0.35-2.35,0,0,50795,,,,,,,,,,,,,,,,,,,,,,,,,,,,,,,,,,,,,,271.0,2.0,,,,,,
227,,no_response,,html-keyboard-response,227,153738,0.0-1.0-17.0-0.35-4.35-0.35,1,0,50795,,,,,,,,,,,,,,,,,,,,,,,,,,,,,,,,,,,,,,272.0,1.0,,,,,,
228,,iti,,html-keyboard-response,228,153855,0.0-1.0-17.0-0.35-5.35,0,0,50795,,,,,,,,,,,,,,,,,,,,,,,,,,,,,,,,,,,,,,273.0,1.0,,,,,,
229,,choice,,html-keyboard-response,229,155359,0.0-1.0-17.0-0.36-0.36,0,0,50795,,,,,,15.0,315.0,1000.0,3000.0,0.0,6.0,0.0,20-20,,,key chain,frame,20.0,20.0,key chain11,frame1,20.0,0.0,31H95JKXWNL._SS500_.jpg,AFRAME127.jpg,/static/Category_learning/Stimuli/Experimental_stims/key chain/31H95JKXWNL._SS500_.jpg,/static/Category_learning/Stimuli/Experimental_stims/frame/AFRAME127.jpg,,,,,,,,,,1.0,274.5,1.5,,,,,,
230,,isi,,html-keyboard-response,230,155466,0.0-1.0-17.0-0.36-2.36,0,0,50795,,,,,,,,,,,,,,,,,,,,,,,,,,,,,,,,,,,,,,275.5,1.0,,,,,,
231,,no_response,,html-keyboard-response,231,156470,0.0-1.0-17.0-0.36-4.36-0.36,1,0,50795,,,,,,,,,,,,,,,,,,,,,,,,,,,,,,,,,,,,,,276.5,1.0,,,,,,
232,,iti,,html-keyboard-response,232,156588,0.0-1.0-17.0-0.36-5.36,0,0,50795,,,,,,,,,,,,,,,,,,,,,,,,,,,,,,,,,,,,,,278.0,1.5,,,,,,
233,,choice,,html-keyboard-response,233,158096,0.0-1.0-17.0-0.37-0.37,0,0,50795,,,,,,15.0,315.0,1000.0,3000.0,0.0,6.0,0.0,20-20,,,key chain,frame,20.0,20.0,key chain11,frame1,20.0,0.0,31H95JKXWNL._SS500_.jpg,AFRAME127.jpg,/static/Category_learning/Stimuli/Experimental_stims/key chain/31H95JKXWNL._SS500_.jpg,/static/Category_learning/Stimuli/Experimental_stims/frame/AFRAME127.jpg,,,,,,,,,,1.0,279.5,1.5,,,,,,
234,,isi,,html-keyboard-response,234,158203,0.0-1.0-17.0-0.37-2.37,0,0,50795,,,,,,,,,,,,,,,,,,,,,,,,,,,,,,,,,,,,,,280.5,1.0,,,,,,
235,,no_response,,html-keyboard-response,235,159210,0.0-1.0-17.0-0.37-4.37-0.37,1,0,50795,,,,,,,,,,,,,,,,,,,,,,,,,,,,,,,,,,,,,,281.5,1.0,,,,,,
236,,iti,,html-keyboard-response,236,159330,0.0-1.0-17.0-0.37-5.37,0,0,50795,,,,,,,,,,,,,,,,,,,,,,,,,,,,,,,,,,,,,,283.5,2.0,,,,,,
237,,choice,,html-keyboard-response,237,160837,0.0-1.0-17.0-0.38-0.38,0,0,50795,,,,,,15.0,315.0,1000.0,3000.0,0.0,6.0,0.0,20-20,,,key chain,frame,20.0,20.0,key chain11,frame1,20.0,0.0,31H95JKXWNL._SS500_.jpg,AFRAME127.jpg,/static/Category_learning/Stimuli/Experimental_stims/key chain/31H95JKXWNL._SS500_.jpg,/static/Category_learning/Stimuli/Experimental_stims/frame/AFRAME127.jpg,,,,,,,,,,1.0,285.0,1.5,,,,,,
238,,isi,,html-keyboard-response,238,160942,0.0-1.0-17.0-0.38-2.38,0,0,50795,,,,,,,,,,,,,,,,,,,,,,,,,,,,,,,,,,,,,,286.5,1.5,,,,,,
239,,no_response,,html-keyboard-response,239,161948,0.0-1.0-17.0-0.38-4.38-0.38,1,0,50795,,,,,,,,,,,,,,,,,,,,,,,,,,,,,,,,,,,,,,287.5,1.0,,,,,,
240,,iti,,html-keyboard-response,240,162070,0.0-1.0-17.0-0.38-5.38,0,0,50795,,,,,,,,,,,,,,,,,,,,,,,,,,,,,,,,,,,,,,289.0,1.5,,,,,,
241,,choice,,html-keyboard-response,241,163578,0.0-1.0-17.0-0.39-0.39,0,0,50795,,,,,,15.0,315.0,1000.0,3000.0,0.0,6.0,0.0,20-20,,,key chain,frame,20.0,20.0,key chain11,frame1,20.0,0.0,31H95JKXWNL._SS500_.jpg,AFRAME127.jpg,/static/Category_learning/Stimuli/Experimental_stims/key chain/31H95JKXWNL._SS500_.jpg,/static/Category_learning/Stimuli/Experimental_stims/frame/AFRAME127.jpg,,,,,,,,,,1.0,290.5,1.5,,,,,,
242,,isi,,html-keyboard-response,242,163685,0.0-1.0-17.0-0.39-2.39,0,0,50795,,,,,,,,,,,,,,,,,,,,,,,,,,,,,,,,,,,,,,292.0,1.5,,,,,,
243,,no_response,,html-keyboard-response,243,164690,0.0-1.0-17.0-0.39-4.39-0.39,1,0,50795,,,,,,,,,,,,,,,,,,,,,,,,,,,,,,,,,,,,,,293.0,1.0,,,,,,
244,,iti,,html-keyboard-response,244,164805,0.0-1.0-17.0-0.39-5.39,0,0,50795,,,,,,,,,,,,,,,,,,,,,,,,,,,,,,,,,,,,,,294.5,1.5,,,,,,
245,,choice,,html-keyboard-response,245,166310,0.0-1.0-17.0-0.40-0.40,0,0,50795,,,,,,15.0,315.0,1000.0,3000.0,0.0,6.0,0.0,20-20,,,key chain,frame,20.0,20.0,key chain11,frame1,20.0,0.0,31H95JKXWNL._SS500_.jpg,AFRAME127.jpg,/static/Category_learning/Stimuli/Experimental_stims/key chain/31H95JKXWNL._SS500_.jpg,/static/Category_learning/Stimuli/Experimental_stims/frame/AFRAME127.jpg,,,,,,,,,,1.0,296.0,1.5,,,,,,
246,,isi,,html-keyboard-response,246,166415,0.0-1.0-17.0-0.40-2.40,0,0,50795,,,,,,,,,,,,,,,,,,,,,,,,,,,,,,,,,,,,,,299.0,3.0,,,,,,
247,,no_response,,html-keyboard-response,247,167420,0.0-1.0-17.0-0.40-4.40-0.40,1,0,50795,,,,,,,,,,,,,,,,,,,,,,,,,,,,,,,,,,,,,,300.0,1.0,,,,,,
248,,iti,,html-keyboard-response,248,167537,0.0-1.0-17.0-0.40-5.40,0,0,50795,,,,,,,,,,,,,,,,,,,,,,,,,,,,,,,,,,,,,,302.0,2.0,,,,,,
249,,choice,,html-keyboard-response,249,169045,0.0-1.0-17.0-0.41-0.41,0,0,50795,,,,,,15.0,315.0,1000.0,3000.0,0.0,6.0,0.0,20-20,,,key chain,frame,20.0,20.0,key chain11,frame1,20.0,0.0,31H95JKXWNL._SS500_.jpg,AFRAME127.jpg,/static/Category_learning/Stimuli/Experimental_stims/key chain/31H95JKXWNL._SS500_.jpg,/static/Category_learning/Stimuli/Experimental_stims/frame/AFRAME127.jpg,,,,,,,,,,1.0,303.5,1.5,,,,,,
250,,isi,,html-keyboard-response,250,169151,0.0-1.0-17.0-0.41-2.41,0,0,50795,,,,,,,,,,,,,,,,,,,,,,,,,,,,,,,,,,,,,,305.0,1.5,,,,,,
251,,no_response,,html-keyboard-response,251,170158,0.0-1.0-17.0-0.41-4.41-0.41,1,0,50795,,,,,,,,,,,,,,,,,,,,,,,,,,,,,,,,,,,,,,306.0,1.0,,,,,,
252,,iti,,html-keyboard-response,252,170277,0.0-1.0-17.0-0.41-5.41,0,0,50795,,,,,,,,,,,,,,,,,,,,,,,,,,,,,,,,,,,,,,307.0,1.0,,,,,,
253,,choice,,html-keyboard-response,253,171781,0.0-1.0-17.0-0.42-0.42,0,0,50795,,,,,,15.0,315.0,1000.0,3000.0,0.0,6.0,0.0,20-20,,,key chain,frame,20.0,20.0,key chain11,frame1,20.0,0.0,31H95JKXWNL._SS500_.jpg,AFRAME127.jpg,/static/Category_learning/Stimuli/Experimental_stims/key chain/31H95JKXWNL._SS500_.jpg,/static/Category_learning/Stimuli/Experimental_stims/frame/AFRAME127.jpg,,,,,,,,,,1.0,308.5,1.5,,,,,,
254,,isi,,html-keyboard-response,254,171887,0.0-1.0-17.0-0.42-2.42,0,0,50795,,,,,,,,,,,,,,,,,,,,,,,,,,,,,,,,,,,,,,312.0,3.5,,,,,,
255,,no_response,,html-keyboard-response,255,172890,0.0-1.0-17.0-0.42-4.42-0.42,1,0,50795,,,,,,,,,,,,,,,,,,,,,,,,,,,,,,,,,,,,,,313.0,1.0,,,,,,
256,,iti,,html-keyboard-response,256,173007,0.0-1.0-17.0-0.42-5.42,0,0,50795,,,,,,,,,,,,,,,,,,,,,,,,,,,,,,,,,,,,,,315.0,2.0,,,,,,
257,,choice,,html-keyboard-response,257,174511,0.0-1.0-17.0-0.43-0.43,0,0,50795,,,,,,15.0,315.0,1000.0,3000.0,0.0,6.0,0.0,20-20,,,key chain,frame,20.0,20.0,key chain11,frame1,20.0,0.0,31H95JKXWNL._SS500_.jpg,AFRAME127.jpg,/static/Category_learning/Stimuli/Experimental_stims/key chain/31H95JKXWNL._SS500_.jpg,/static/Category_learning/Stimuli/Experimental_stims/frame/AFRAME127.jpg,,,,,,,,,,1.0,316.5,1.5,,,,,,
258,,isi,,html-keyboard-response,258,174618,0.0-1.0-17.0-0.43-2.43,0,0,50795,,,,,,,,,,,,,,,,,,,,,,,,,,,,,,,,,,,,,,318.0,1.5,,,,,,
259,,no_response,,html-keyboard-response,259,175624,0.0-1.0-17.0-0.43-4.43-0.43,1,0,50795,,,,,,,,,,,,,,,,,,,,,,,,,,,,,,,,,,,,,,319.0,1.0,,,,,,
260,,iti,,html-keyboard-response,260,175743,0.0-1.0-17.0-0.43-5.43,0,0,50795,,,,,,,,,,,,,,,,,,,,,,,,,,,,,,,,,,,,,,320.5,1.5,,,,,,
261,,choice,,html-keyboard-response,261,177247,0.0-1.0-17.0-0.44-0.44,0,0,50795,,,,,,15.0,315.0,1000.0,3000.0,0.0,6.0,0.0,20-20,,,key chain,frame,20.0,20.0,key chain11,frame1,20.0,0.0,31H95JKXWNL._SS500_.jpg,AFRAME127.jpg,/static/Category_learning/Stimuli/Experimental_stims/key chain/31H95JKXWNL._SS500_.jpg,/static/Category_learning/Stimuli/Experimental_stims/frame/AFRAME127.jpg,,,,,,,,,,1.0,322.0,1.5,,,,,,
262,,isi,,html-keyboard-response,262,177354,0.0-1.0-17.0-0.44-2.44,0,0,50795,,,,,,,,,,,,,,,,,,,,,,,,,,,,,,,,,,,,,,323.5,1.5,,,,,,
263,,no_response,,html-keyboard-response,263,178358,0.0-1.0-17.0-0.44-4.44-0.44,1,0,50795,,,,,,,,,,,,,,,,,,,,,,,,,,,,,,,,,,,,,,324.5,1.0,,,,,,
264,,iti,,html-keyboard-response,264,178474,0.0-1.0-17.0-0.44-5.44,0,0,50795,,,,,,,,,,,,,,,,,,,,,,,,,,,,,,,,,,,,,,325.5,1.0,,,,,,
265,,choice,,html-keyboard-response,265,179981,0.0-1.0-17.0-0.45-0.45,0,0,50795,,,,,,15.0,315.0,1000.0,3000.0,0.0,6.0,0.0,20-20,,,key chain,frame,20.0,20.0,key chain11,frame1,20.0,0.0,31H95JKXWNL._SS500_.jpg,AFRAME127.jpg,/static/Category_learning/Stimuli/Experimental_stims/key chain/31H95JKXWNL._SS500_.jpg,/static/Category_learning/Stimuli/Experimental_stims/frame/AFRAME127.jpg,,,,,,,,,,1.0,327.0,1.5,,,,,,
266,,isi,,html-keyboard-response,266,180088,0.0-1.0-17.0-0.45-2.45,0,0,50795,,,,,,,,,,,,,,,,,,,,,,,,,,,,,,,,,,,,,,329.0,2.0,,,,,,
267,,no_response,,html-keyboard-response,267,181092,0.0-1.0-17.0-0.45-4.45-0.45,1,0,50795,,,,,,,,,,,,,,,,,,,,,,,,,,,,,,,,,,,,,,330.0,1.0,,,,,,
268,,iti,,html-keyboard-response,268,181210,0.0-1.0-17.0-0.45-5.45,0,0,50795,,,,,,,,,,,,,,,,,,,,,,,,,,,,,,,,,,,,,,332.0,2.0,,,,,,
269,,choice,,html-keyboard-response,269,182718,0.0-1.0-17.0-0.46-0.46,0,0,50795,,,,,,15.0,315.0,1000.0,3000.0,0.0,6.0,0.0,20-20,,,key chain,frame,20.0,20.0,key chain11,frame1,20.0,0.0,31H95JKXWNL._SS500_.jpg,AFRAME127.jpg,/static/Category_learning/Stimuli/Experimental_stims/key chain/31H95JKXWNL._SS500_.jpg,/static/Category_learning/Stimuli/Experimental_stims/frame/AFRAME127.jpg,,,,,,,,,,1.0,333.5,1.5,,,,,,
270,,isi,,html-keyboard-response,270,182821,0.0-1.0-17.0-0.46-2.46,0,0,50795,,,,,,,,,,,,,,,,,,,,,,,,,,,,,,,,,,,,,,335.5,2.0,,,,,,
271,,no_response,,html-keyboard-response,271,183824,0.0-1.0-17.0-0.46-4.46-0.46,1,0,50795,,,,,,,,,,,,,,,,,,,,,,,,,,,,,,,,,,,,,,336.5,1.0,,,,,,
272,,iti,,html-keyboard-response,272,183941,0.0-1.0-17.0-0.46-5.46,0,0,50795,,,,,,,,,,,,,,,,,,,,,,,,,,,,,,,,,,,,,,337.5,1.0,,,,,,
273,,choice,,html-keyboard-response,273,185449,0.0-1.0-17.0-0.47-0.47,0,0,50795,,,,,,15.0,315.0,1000.0,3000.0,0.0,6.0,0.0,20-20,,,key chain,frame,20.0,20.0,key chain11,frame1,20.0,0.0,31H95JKXWNL._SS500_.jpg,AFRAME127.jpg,/static/Category_learning/Stimuli/Experimental_stims/key chain/31H95JKXWNL._SS500_.jpg,/static/Category_learning/Stimuli/Experimental_stims/frame/AFRAME127.jpg,,,,,,,,,,1.0,339.0,1.5,,,,,,
274,,isi,,html-keyboard-response,274,185557,0.0-1.0-17.0-0.47-2.47,0,0,50795,,,,,,,,,,,,,,,,,,,,,,,,,,,,,,,,,,,,,,340.0,1.0,,,,,,
275,,no_response,,html-keyboard-response,275,186565,0.0-1.0-17.0-0.47-4.47-0.47,1,0,50795,,,,,,,,,,,,,,,,,,,,,,,,,,,,,,,,,,,,,,341.0,1.0,,,,,,
276,,iti,,html-keyboard-response,276,186693,0.0-1.0-17.0-0.47-5.47,0,0,50795,,,,,,,,,,,,,,,,,,,,,,,,,,,,,,,,,,,,,,343.0,2.0,,,,,,
277,,choice,,html-keyboard-response,277,186769,0.0-1.0-17.0-0.48-0.48,0,0,50795,,73.0,,,75.0,15.0,315.0,1000.0,3000.0,0.0,6.0,0.0,20-20,,,key chain,frame,20.0,20.0,key chain11,frame1,20.0,0.0,31H95JKXWNL._SS500_.jpg,AFRAME127.jpg,/static/Category_learning/Stimuli/Experimental_stims/key chain/31H95JKXWNL._SS500_.jpg,/static/Category_learning/Stimuli/Experimental_stims/frame/AFRAME127.jpg,0.0,frame,key chain,20.0,20.0,frame1,key chain11,0.0,20.0,0.0,343.07300000000004,0.073,,,,,,
278,,confirmation,,html-keyboard-response,278,188204,0.0-1.0-17.0-0.48-1.48-0.48,0,0,50795,,,,,,15.0,,,,,,,,,,,,,,,,,,,,,,,,,,,,,,,,344.5,1.4269999999999998,,,,,,
279,,isi,,html-keyboard-response,279,188309,0.0-1.0-17.0-0.48-2.48,0,0,50795,,,,,,,,,,,,,,,,,,,,,,,,,,,,,,,,,,,,,,348.0,3.5,,0.31,,,,
280,,final_tally,,html-keyboard-response,280,188805,0.0-2.0-0.0,0,0,50795,,493.0,,,68.0,,,,,,,,,,,,,,,,,,,,,,,,,,,,,,,,,,,,,,,,
281,,category_memory_instructions,,instructions,281,212208,0.0-3.0-0.0,0,0,50795,"[{""page_index"":0,""viewing_time"":22923},{""page_index"":1,""viewing_time"":258},{""page_index"":2,""viewing_time"":202}]",23383.0,,,,,,,,,,,,,,,,,,,,,,,,,,,,,,,,,,,,,,,,,,,
282,,category_memory,,survey-text,282,215210,0.0-3.0-1.0-0.0,0,0,50795,,3000.0,"{""Q0"":""0""}",,,0.0,,,,,,,,,,,,,,,,,,,,,,,,,,,,,,,,,,,,license plate,20.0,0.0,
283,,category_memory,,survey-text,283,216260,0.0-3.0-2.0-0.0,0,0,50795,,1046.0,"{""Q0"":""0""}",,,1.0,,,,,,,,,,,,,,,,,,,,,,,,,,,,,,,,,,,,sofa,40.0,0.0,
284,,category_memory,,survey-text,284,217195,0.0-3.0-3.0-0.0,0,0,50795,,931.0,"{""Q0"":""0""}",,,2.0,,,,,,,,,,,,,,,,,,,,,,,,,,,,,,,,,,,,bongo,80.0,0.0,
285,,category_memory,,survey-text,285,218011,0.0-3.0-4.0-0.0,0,0,50795,,812.0,"{""Q0"":""0""}",,,3.0,,,,,,,,,,,,,,,,,,,,,,,,,,,,,,,,,,,,tent,60.0,0.0,
286,,category_memory,,survey-text,286,219294,0.0-3.0-5.0-0.0,0,0,50795,,1279.0,"{""Q0"":""0""}",,,4.0,,,,,,,,,,,,,,,,,,,,,,,,,,,,,,,,,,,,necklace,40.0,0.0,
287,,category_memory,,survey-text,287,220494,0.0-3.0-6.0-0.0,0,0,50795,,1197.0,"{""Q0"":""0""}",,,5.0,,,,,,,,,,,,,,,,,,,,,,,,,,,,,,,,,,,,seashell,40.0,0.0,
288,,category_memory,,survey-text,288,221677,0.0-3.0-7.0-0.0,0,0,50795,,1180.0,"{""Q0"":""0""}",,,6.0,,,,,,,,,,,,,,,,,,,,,,,,,,,,,,,,,,,,makeup compact,20.0,0.0,
289,,category_memory,,survey-text,289,224459,0.0-3.0-8.0-0.0,0,0,50795,,2780.0,"{""Q0"":""0""}",,,7.0,,,,,,,,,,,,,,,,,,,,,,,,,,,,,,,,,,,,dresser,80.0,0.0,
290,,category_memory,,survey-text,290,225628,0.0-3.0-9.0-0.0,0,0,50795,,1165.0,"{""Q0"":""0""}",,,8.0,,,,,,,,,,,,,,,,,,,,,,,,,,,,,,,,,,,,baby carriage,80.0,0.0,
291,,category_memory,,survey-text,291,227061,0.0-3.0-10.0-0.0,0,0,50795,,1430.0,"{""Q0"":""0""}",,,9.0,,,,,,,,,,,,,,,,,,,,,,,,,,,,,,,,,,,,microscope,20.0,0.0,
292,,category_memory,,survey-text,292,228345,0.0-3.0-11.0-0.0,0,0,50795,,1280.0,"{""Q0"":""""}",,,10.0,,,,,,,,,,,,,,,,,,,,,,,,,,,,,,,,,,,,flashlight,80.0,,
293,,enter_reponse,,html-keyboard-response,293,230189,0.0-3.0-11.0-1.0-0.0,1,0,50795,,1842.0,,,68.0,,,,,,,,,,,,,,,,,,,,,,,,,,,,,,,,,,,,,,,,1.0
294,,category_memory,,survey-text,294,232744,0.0-3.0-11.1-0.1,0,0,50795,,2551.0,"{""Q0"":""0""}",,,10.0,,,,,,,,,,,,,,,,,,,,,,,,,,,,,,,,,,,,flashlight,80.0,0.0,
295,,category_memory,,survey-text,295,233977,0.0-3.0-12.0-0.0,0,0,50795,,1230.0,"{""Q0"":""0""}",,,11.0,,,,,,,,,,,,,,,,,,,,,,,,,,,,,,,,,,,,lipstick,20.0,0.0,
296,,category_memory,,survey-text,296,235378,0.0-3.0-13.0-0.0,0,0,50795,,1398.0,"{""Q0"":""0""}",,,12.0,,,,,,,,,,,,,,,,,,,,,,,,,,,,,,,,,,,,frame,20.0,0.0,
297,,category_memory,,survey-text,297,236278,0.0-3.0-14.0-0.0,0,0,50795,,896.0,"{""Q0"":""0""}",,,13.0,,,,,,,,,,,,,,,,,,,,,,,,,,,,,,,,,,,,desk,80.0,0.0,
298,,category_memory,,survey-text,298,237227,0.0-3.0-15.0-0.0,0,0,50795,,946.0,"{""Q0"":""0""}",,,14.0,,,,,,,,,,,,,,,,,,,,,,,,,,,,,,,,,,,,poker card,40.0,0.0,
299,,category_memory,,survey-text,299,238111,0.0-3.0-16.0-0.0,0,0,50795,,880.0,"{""Q0"":""0""}",,,15.0,,,,,,,,,,,,,,,,,,,,,,,,,,,,,,,,,,,,motorcycle,20.0,0.0,
300,,category_memory,,survey-text,300,239078,0.0-3.0-17.0-0.0,0,0,50795,,963.0,"{""Q0"":""0""}",,,16.0,,,,,,,,,,,,,,,,,,,,,,,,,,,,,,,,,,,,train,60.0,0.0,
301,,category_memory,,survey-text,301,239995,0.0-3.0-18.0-0.0,0,0,50795,,913.0,"{""Q0"":""0""}",,,17.0,,,,,,,,,,,,,,,,,,,,,,,,,,,,,,,,,,,,key chain,20.0,0.0,
302,,category_memory,,survey-text,302,240895,0.0-3.0-19.0-0.0,0,0,50795,,897.0,"{""Q0"":""0""}",,,18.0,,,,,,,,,,,,,,,,,,,,,,,,,,,,,,,,,,,,trumpet,60.0,0.0,
303,,category_memory,,survey-text,303,241861,0.0-3.0-20.0-0.0,0,0,50795,,962.0,"{""Q0"":""0""}",,,19.0,,,,,,,,,,,,,,,,,,,,,,,,,,,,,,,,,,,,small table,40.0,0.0,
304,,category_memory,,survey-text,304,243144,0.0-3.0-21.0-0.0,0,0,50795,,1280.0,"{""Q0"":""0""}",,,20.0,,,,,,,,,,,,,,,,,,,,,,,,,,,,,,,,,,,,power strip,40.0,0.0,
305,,category_memory,,survey-text,305,244428,0.0-3.0-22.0-0.0,0,0,50795,,1280.0,"{""Q0"":""0""}",,,21.0,,,,,,,,,,,,,,,,,,,,,,,,,,,,,,,,,,,,hammer,20.0,0.0,
306,,category_memory,,survey-text,306,245362,0.0-3.0-23.0-0.0,0,0,50795,,930.0,"{""Q0"":""0""}",,,22.0,,,,,,,,,,,,,,,,,,,,,,,,,,,,,,,,,,,,door knob,80.0,0.0,
307,,category_memory,,survey-text,307,246244,0.0-3.0-24.0-0.0,0,0,50795,,879.0,"{""Q0"":""0""}",,,23.0,,,,,,,,,,,,,,,,,,,,,,,,,,,,,,,,,,,,pen,40.0,0.0,
308,,category_memory,,survey-text,308,247195,0.0-3.0-25.0-0.0,0,0,50795,,947.0,"{""Q0"":""0""}",,,24.0,,,,,,,,,,,,,,,,,,,,,,,,,,,,,,,,,,,,stool,60.0,0.0,
309,,category_memory,,survey-text,309,248078,0.0-3.0-26.0-0.0,0,0,50795,,879.0,"{""Q0"":""0""}",,,25.0,,,,,,,,,,,,,,,,,,,,,,,,,,,,,,,,,,,,nail polish,40.0,0.0,
310,,category_memory,,survey-text,310,249144,0.0-3.0-27.0-0.0,0,0,50795,,1063.0,"{""Q0"":""0""}",,,26.0,,,,,,,,,,,,,,,,,,,,,,,,,,,,,,,,,,,,bowl,80.0,0.0,
311,,category_memory,,survey-text,311,251295,0.0-3.0-28.0-0.0,0,0,50795,,2148.0,"{""Q0"":""""}",,,27.0,,,,,,,,,,,,,,,,,,,,,,,,,,,,,,,,,,,,bench,80.0,,
312,,enter_reponse,,html-keyboard-response,312,252865,0.0-3.0-28.0-1.0-0.0,1,0,50795,,1567.0,,,68.0,,,,,,,,,,,,,,,,,,,,,,,,,,,,,,,,,,,,,,,,1.0
313,,category_memory,,survey-text,313,254379,0.0-3.0-28.1-0.1,0,0,50795,,1510.0,"{""Q0"":""0""}",,,27.0,,,,,,,,,,,,,,,,,,,,,,,,,,,,,,,,,,,,bench,80.0,0.0,
314,,category_memory,,survey-text,314,255661,0.0-3.0-29.0-0.0,0,0,50795,,1279.0,"{""Q0"":""0""}",,,28.0,,,,,,,,,,,,,,,,,,,,,,,,,,,,,,,,,,,,fan,80.0,0.0,
315,,category_memory,,survey-text,315,256595,0.0-3.0-30.0-0.0,0,0,50795,,930.0,"{""Q0"":""0""}",,,29.0,,,,,,,,,,,,,,,,,,,,,,,,,,,,,,,,,,,,yarn,60.0,0.0,
316,,category_memory,,survey-text,316,257478,0.0-3.0-31.0-0.0,0,0,50795,,880.0,"{""Q0"":""0""}",,,30.0,,,,,,,,,,,,,,,,,,,,,,,,,,,,,,,,,,,,vase,60.0,0.0,
317,,category_memory,,survey-text,317,259095,0.0-3.0-32.0-0.0,0,0,50795,,1614.0,"{""Q0"":""0""}",,,31.0,,,,,,,,,,,,,,,,,,,,,,,,,,,,,,,,,,,,hat,20.0,0.0,
318,,category_memory,,survey-text,318,260029,0.0-3.0-33.0-0.0,0,0,50795,,930.0,"{""Q0"":""0""}",,,32.0,,,,,,,,,,,,,,,,,,,,,,,,,,,,,,,,,,,,watch,60.0,0.0,
319,,category_memory,,survey-text,319,261314,0.0-3.0-34.0-0.0,0,0,50795,,1281.0,"{""Q0"":""0""}",,,33.0,,,,,,,,,,,,,,,,,,,,,,,,,,,,,,,,,,,,patio lounge chair,40.0,0.0,
320,,category_memory,,survey-text,320,262595,0.0-3.0-35.0-0.0,0,0,50795,,1277.0,"{""Q0"":""0""}",,,34.0,,,,,,,,,,,,,,,,,,,,,,,,,,,,,,,,,,,,telescope,60.0,0.0,
321,,category_memory,,survey-text,321,264328,0.0-3.0-36.0-0.0,0,0,50795,,1730.0,"{""Q0"":""0""}",,,35.0,,,,,,,,,,,,,,,,,,,,,,,,,,,,,,,,,,,,tape,60.0,0.0,
