,success,ttype,start_time,trial_type,trial_index,time_elapsed,internal_node_id,warning,missed_checkup,PID,view_history,rt,responses,repeat_instructions,key_press,index,trial_num,isi,iti,is_practice,block,old_trial,pair_type,within_category,high_cat_on_left,left_category,right_category,left_category_value,right_category_value,left_exemplar,right_exemplar,left_exemplar_value,right_exemplar_value,left_img,right_img,left_img_path,right_img_path,no_response,onset,duration,left_chosen,chosen_category,unchosen_category,chosen_category_value,unchosen_category_value,chosen_exemplar,unchosen_exemplar,chosen_exemplar_value,unchosen_exemplar_value,end_practice,total_bonus_tally,category,category_group_value,category_value_response,did_not_enter_response
0,True,full_screen,d06022022hr0030,fullscreen,0,2537,0.0-0.0,0,0,31921,,,,,,,,,,,,,,,,,,,,,,,,,,,,,,,,,,,,,,,,,,,,,
1,,category_learning_instructions,,instructions,1,5774,0.0-1.0-0.0-0.0,0,0,31921,"[{""page_index"":0,""viewing_time"":1123},{""page_index"":1,""viewing_time"":346},{""page_index"":2,""viewing_time"":1143},{""page_index"":3,""viewing_time"":156},{""page_index"":4,""viewing_time"":148},{""page_index"":5,""viewing_time"":149},{""page_index"":6,""viewing_time"":170}]",3235.0,,,,,,,,,,,,,,,,,,,,,,,,,,,,,,,,,,,,,,,,,,,
2,,category_learning_comprehension_check,,survey-multi-choice,2,11699,0.0-1.0-0.0-1.0,0,0,31921,,5920.0,"{""Q0"":""True"",""Q1"":""True"",""Q2"":""Stay the same"",""Q3"":""D for left and K for right""}",0.0,,,,,,,,,,,,,,,,,,,,,,,,,,,,,,,,,,,,,,,,,
3,,,,html-keyboard-response,3,12755,0.0-1.0-1.0,0,0,31921,,1052.0,,,68.0,,,,,,,,,,,,,,,,,,,,,,,,,,,,,,,,,,,,,,,,
4,,choice,,html-keyboard-response,4,14260,0.0-1.0-2.0-0.0-0.0,0,0,31921,,,,,,0.0,0.0,1500.0,1000.0,1.0,0.0,0.0,20-80,,0.0,bagel,dumbbell,20.0,80.0,bagel1,dumbbell1,0.0,80.0,bagels_pumpernickel_large.jpg,31B64EN68AL._AA280_.jpg,/static/Category_learning/Stimuli/Practice_stims/bagel/bagels_pumpernickel_large.jpg,/static/Category_learning/Stimuli/Practice_stims/dumbbell/31B64EN68AL._AA280_.jpg,1.0,1.5,1.5,,,,,,,,,,,,,,,
5,,isi,,html-keyboard-response,5,14367,0.0-1.0-2.0-0.0-2.0,0,0,31921,,,,,,,,,,,,,,,,,,,,,,,,,,,,,3.0,1.5,,,,,,,,,,,,,,,
6,,no_response,,html-keyboard-response,6,15370,0.0-1.0-2.0-0.0-4.0-0.0,0,0,31921,,,,,,,,,,,,,,,,,,,,,,,,,,,,,4.0,1.0,,,,,,,,,,,,,,,
7,,iti,,html-keyboard-response,7,15474,0.0-1.0-2.0-0.0-5.0,0,0,31921,,,,,,,,,,,,,,,,,,,,,,,,,,,,,5.0,1.0,,,,,,,,,,,,,,,
8,,choice,,html-keyboard-response,8,15566,0.0-1.0-2.0-0.1-0.1,0,0,31921,,90.0,,,75.0,0.0,0.0,1500.0,1000.0,1.0,0.0,0.0,20-80,,0.0,bagel,dumbbell,20.0,80.0,bagel1,dumbbell1,0.0,80.0,bagels_pumpernickel_large.jpg,31B64EN68AL._AA280_.jpg,/static/Category_learning/Stimuli/Practice_stims/bagel/bagels_pumpernickel_large.jpg,/static/Category_learning/Stimuli/Practice_stims/dumbbell/31B64EN68AL._AA280_.jpg,0.0,5.09,0.09,0.0,dumbbell,bagel,80.0,20.0,dumbbell1,bagel1,80.0,0.0,,,,,,
9,,confirmation,,html-keyboard-response,9,16982,0.0-1.0-2.0-0.1-1.1-0.1,0,0,31921,,,,,,0.0,,,,,,,,,,,,,,,,,,,,,,,6.5,1.41,,,,,,,,,,,,,,,
10,,isi,,html-keyboard-response,10,17087,0.0-1.0-2.0-0.1-2.1,0,0,31921,,,,,,,,,,,,,,,,,,,,,,,,,,,,,8.0,1.5,,,,,,,,,,,,,,,
11,,feedback,,html-keyboard-response,11,18092,0.0-1.0-2.0-0.1-3.1-0.1,0,0,31921,,,,,,0.0,,,,,,,,,,,,,,,,,,,,,,,9.0,1.0,,,,,,,,,,,,,,,
12,,iti,,html-keyboard-response,12,18199,0.0-1.0-2.0-0.1-5.1,0,0,31921,,,,,,,,,,,,,,,,,,,,,,,,,,,,,10.0,1.0,,,,,,,,,,,,,,,
13,,choice,,html-keyboard-response,13,18452,0.0-1.0-3.0-0.0-0.0,0,0,31921,,249.0,,,75.0,1.0,1.0,3000.0,1500.0,1.0,0.0,0.0,20-40,,1.0,calculator,bagel,40.0,20.0,calculator2,bagel2,20.0,20.0,22829064.thl.jpg,bagels_cinnraisin_large.jpg,/static/Category_learning/Stimuli/Practice_stims/calculator/22829064.thl.jpg,/static/Category_learning/Stimuli/Practice_stims/bagel/bagels_cinnraisin_large.jpg,0.0,10.249,0.249,0.0,bagel,calculator,20.0,40.0,bagel2,calculator2,20.0,20.0,,,,,,
14,,confirmation,,html-keyboard-response,14,19711,0.0-1.0-3.0-0.0-1.0-0.0,0,0,31921,,,,,,1.0,,,,,,,,,,,,,,,,,,,,,,,11.5,1.251,,,,,,,,,,,,,,,
15,,isi,,html-keyboard-response,15,19818,0.0-1.0-3.0-0.0-2.0,0,0,31921,,,,,,,,,,,,,,,,,,,,,,,,,,,,,14.5,3.0,,,,,,,,,,,,,,,
16,,feedback,,html-keyboard-response,16,20825,0.0-1.0-3.0-0.0-3.0-0.0,0,0,31921,,,,,,1.0,,,,,,,,,,,,,,,,,,,,,,,15.5,1.0,,,,,,,,,,,,,,,
17,,iti,,html-keyboard-response,17,20932,0.0-1.0-3.0-0.0-5.0,0,0,31921,,,,,,,,,,,,,,,,,,,,,,,,,,,,,17.0,1.5,,,,,,,,,,,,,,,
18,,choice,,html-keyboard-response,18,22438,0.0-1.0-4.0-0.0-0.0,0,0,31921,,,,,,2.0,2.0,2000.0,3000.0,1.0,0.0,0.0,60-80,,0.0,clock,dumbbell,60.0,80.0,clock2,dumbbell2,60.0,100.0,26373355.thl.jpg,31K8MR6TMBL._SS500_.jpg,/static/Category_learning/Stimuli/Practice_stims/clock/26373355.thl.jpg,/static/Category_learning/Stimuli/Practice_stims/dumbbell/31K8MR6TMBL._SS500_.jpg,1.0,18.5,1.5,,,,,,,,,,,,,,,
19,,isi,,html-keyboard-response,19,22543,0.0-1.0-4.0-0.0-2.0,0,0,31921,,,,,,,,,,,,,,,,,,,,,,,,,,,,,20.5,2.0,,,,,,,,,,,,,,,
20,,no_response,,html-keyboard-response,20,23549,0.0-1.0-4.0-0.0-4.0-0.0,0,0,31921,,,,,,,,,,,,,,,,,,,,,,,,,,,,,21.5,1.0,,,,,,,,,,,,,,,
21,,iti,,html-keyboard-response,21,23656,0.0-1.0-4.0-0.0-5.0,0,0,31921,,,,,,,,,,,,,,,,,,,,,,,,,,,,,24.5,3.0,,,,,,,,,,,,,,,
22,,choice,,html-keyboard-response,22,25161,0.0-1.0-4.0-0.1-0.1,0,0,31921,,,,,,2.0,2.0,2000.0,3000.0,1.0,0.0,0.0,60-80,,0.0,clock,dumbbell,60.0,80.0,clock2,dumbbell2,60.0,100.0,26373355.thl.jpg,31K8MR6TMBL._SS500_.jpg,/static/Category_learning/Stimuli/Practice_stims/clock/26373355.thl.jpg,/static/Category_learning/Stimuli/Practice_stims/dumbbell/31K8MR6TMBL._SS500_.jpg,1.0,26.0,1.5,,,,,,,,,,,,,,,
23,,isi,,html-keyboard-response,23,25266,0.0-1.0-4.0-0.1-2.1,0,0,31921,,,,,,,,,,,,,,,,,,,,,,,,,,,,,28.0,2.0,,,,,,,,,,,,,,,
24,,no_response,,html-keyboard-response,24,26271,0.0-1.0-4.0-0.1-4.1-0.1,0,0,31921,,,,,,,,,,,,,,,,,,,,,,,,,,,,,29.0,1.0,,,,,,,,,,,,,,,
25,,iti,,html-keyboard-response,25,26378,0.0-1.0-4.0-0.1-5.1,0,0,31921,,,,,,,,,,,,,,,,,,,,,,,,,,,,,32.0,3.0,,,,,,,,,,,,,,,
26,,choice,,html-keyboard-response,26,27883,0.0-1.0-4.0-0.2-0.2,0,0,31921,,,,,,2.0,2.0,2000.0,3000.0,1.0,0.0,0.0,60-80,,0.0,clock,dumbbell,60.0,80.0,clock2,dumbbell2,60.0,100.0,26373355.thl.jpg,31K8MR6TMBL._SS500_.jpg,/static/Category_learning/Stimuli/Practice_stims/clock/26373355.thl.jpg,/static/Category_learning/Stimuli/Practice_stims/dumbbell/31K8MR6TMBL._SS500_.jpg,1.0,33.5,1.5,,,,,,,,,,,,,,,
27,,isi,,html-keyboard-response,27,27990,0.0-1.0-4.0-0.2-2.2,0,0,31921,,,,,,,,,,,,,,,,,,,,,,,,,,,,,35.5,2.0,,,,,,,,,,,,,,,
28,,no_response,,html-keyboard-response,28,28996,0.0-1.0-4.0-0.2-4.2-0.2,0,0,31921,,,,,,,,,,,,,,,,,,,,,,,,,,,,,36.5,1.0,,,,,,,,,,,,,,,
29,,iti,,html-keyboard-response,29,29104,0.0-1.0-4.0-0.2-5.2,0,0,31921,,,,,,,,,,,,,,,,,,,,,,,,,,,,,39.5,3.0,,,,,,,,,,,,,,,
30,,choice,,html-keyboard-response,30,30607,0.0-1.0-4.0-0.3-0.3,0,0,31921,,,,,,2.0,2.0,2000.0,3000.0,1.0,0.0,0.0,60-80,,0.0,clock,dumbbell,60.0,80.0,clock2,dumbbell2,60.0,100.0,26373355.thl.jpg,31K8MR6TMBL._SS500_.jpg,/static/Category_learning/Stimuli/Practice_stims/clock/26373355.thl.jpg,/static/Category_learning/Stimuli/Practice_stims/dumbbell/31K8MR6TMBL._SS500_.jpg,1.0,41.0,1.5,,,,,,,,,,,,,,,
31,,isi,,html-keyboard-response,31,30714,0.0-1.0-4.0-0.3-2.3,0,0,31921,,,,,,,,,,,,,,,,,,,,,,,,,,,,,43.0,2.0,,,,,,,,,,,,,,,
32,,no_response,,html-keyboard-response,32,31717,0.0-1.0-4.0-0.3-4.3-0.3,0,0,31921,,,,,,,,,,,,,,,,,,,,,,,,,,,,,44.0,1.0,,,,,,,,,,,,,,,
33,,iti,,html-keyboard-response,33,31823,0.0-1.0-4.0-0.3-5.3,0,0,31921,,,,,,,,,,,,,,,,,,,,,,,,,,,,,47.0,3.0,,,,,,,,,,,,,,,
34,,choice,,html-keyboard-response,34,33327,0.0-1.0-4.0-0.4-0.4,0,0,31921,,,,,,2.0,2.0,2000.0,3000.0,1.0,0.0,0.0,60-80,,0.0,clock,dumbbell,60.0,80.0,clock2,dumbbell2,60.0,100.0,26373355.thl.jpg,31K8MR6TMBL._SS500_.jpg,/static/Category_learning/Stimuli/Practice_stims/clock/26373355.thl.jpg,/static/Category_learning/Stimuli/Practice_stims/dumbbell/31K8MR6TMBL._SS500_.jpg,1.0,48.5,1.5,,,,,,,,,,,,,,,
35,,isi,,html-keyboard-response,35,33434,0.0-1.0-4.0-0.4-2.4,0,0,31921,,,,,,,,,,,,,,,,,,,,,,,,,,,,,50.5,2.0,,,,,,,,,,,,,,,
36,,no_response,,html-keyboard-response,36,34439,0.0-1.0-4.0-0.4-4.4-0.4,0,0,31921,,,,,,,,,,,,,,,,,,,,,,,,,,,,,51.5,1.0,,,,,,,,,,,,,,,
37,,iti,,html-keyboard-response,37,34544,0.0-1.0-4.0-0.4-5.4,0,0,31921,,,,,,,,,,,,,,,,,,,,,,,,,,,,,54.5,3.0,,,,,,,,,,,,,,,
38,,choice,,html-keyboard-response,38,34956,0.0-1.0-4.0-0.5-0.5,0,0,31921,,408.0,,,68.0,2.0,2.0,2000.0,3000.0,1.0,0.0,0.0,60-80,,0.0,clock,dumbbell,60.0,80.0,clock2,dumbbell2,60.0,100.0,26373355.thl.jpg,31K8MR6TMBL._SS500_.jpg,/static/Category_learning/Stimuli/Practice_stims/clock/26373355.thl.jpg,/static/Category_learning/Stimuli/Practice_stims/dumbbell/31K8MR6TMBL._SS500_.jpg,0.0,54.908,0.408,1.0,clock,dumbbell,60.0,80.0,clock2,dumbbell2,60.0,100.0,,,,,,
39,,confirmation,,html-keyboard-response,39,36052,0.0-1.0-4.0-0.5-1.5-0.5,0,0,31921,,,,,,2.0,,,,,,,,,,,,,,,,,,,,,,,56.0,1.092,,,,,,,,,,,,,,,
40,,isi,,html-keyboard-response,40,36159,0.0-1.0-4.0-0.5-2.5,0,0,31921,,,,,,,,,,,,,,,,,,,,,,,,,,,,,58.0,2.0,,,,,,,,,,,,,,,
41,,feedback,,html-keyboard-response,41,37166,0.0-1.0-4.0-0.5-3.5-0.5,0,0,31921,,,,,,2.0,,,,,,,,,,,,,,,,,,,,,,,59.0,1.0,,,,,,,,,,,,,,,
42,,iti,,html-keyboard-response,42,37269,0.0-1.0-4.0-0.5-5.5,0,0,31921,,,,,,,,,,,,,,,,,,,,,,,,,,,,,62.0,3.0,,,,,,,,,,,,,,,
43,,choice,,html-keyboard-response,43,37342,0.0-1.0-5.0-0.0-0.0,0,0,31921,,70.0,,,68.0,3.0,3.0,1000.0,2000.0,1.0,0.0,0.0,40-80,,0.0,calculator,clock,40.0,60.0,calculator1,clock1,40.0,40.0,22829184.thl.jpg,Aalarmclock2.jpg,/static/Category_learning/Stimuli/Practice_stims/calculator/22829184.thl.jpg,/static/Category_learning/Stimuli/Practice_stims/clock/Aalarmclock2.jpg,0.0,62.07,0.07,1.0,calculator,clock,40.0,60.0,calculator1,clock1,40.0,40.0,,,,,,
44,,confirmation,,html-keyboard-response,44,38778,0.0-1.0-5.0-0.0-1.0-0.0,0,0,31921,,,,,,3.0,,,,,,,,,,,,,,,,,,,,,,,63.5,1.43,,,,,,,,,,,,,,,
45,,isi,,html-keyboard-response,45,38884,0.0-1.0-5.0-0.0-2.0,0,0,31921,,,,,,,,,,,,,,,,,,,,,,,,,,,,,64.5,1.0,,,,,,,,,,,,,,,
46,,feedback,,html-keyboard-response,46,39887,0.0-1.0-5.0-0.0-3.0-0.0,0,0,31921,,,,,,3.0,,,,,,,,,,,,,,,,,,,,,,,65.5,1.0,,,,,,,,,,,,,,,
47,,iti,,html-keyboard-response,47,39994,0.0-1.0-5.0-0.0-5.0,0,0,31921,,,,,,,,,,,,,,,,,,,,,,,,,,,,,67.5,2.0,,,,,,,,,,,,,,,
48,,choice,,html-keyboard-response,48,40843,0.0-1.0-6.0-0.0-0.0,0,0,31921,,845.0,,,75.0,4.0,4.0,2500.0,2500.0,1.0,0.0,0.0,20-60,,1.0,dumbbell,bagel,80.0,20.0,dumbbell3,bagel3,100.0,40.0,41K7QVRX50L._SS500_.jpg,photo-169.jpg,/static/Category_learning/Stimuli/Practice_stims/dumbbell/41K7QVRX50L._SS500_.jpg,/static/Category_learning/Stimuli/Practice_stims/bagel/photo-169.jpg,0.0,68.345,0.845,0.0,bagel,dumbbell,20.0,80.0,bagel3,dumbbell3,40.0,100.0,1.0,,,,,
49,,confirmation,,html-keyboard-response,49,41504,0.0-1.0-6.0-0.0-1.0-0.0,0,0,31921,,,,,,4.0,,,,,,,,,,,,,,,,,,,,,,,69.0,0.655,,,,,,,,,,,,,,,
50,,isi,,html-keyboard-response,50,41610,0.0-1.0-6.0-0.0-2.0,0,0,31921,,,,,,,,,,,,,,,,,,,,,,,,,,,,,71.5,2.5,,,,,,,,,,,,,,,
51,,feedback,,html-keyboard-response,51,42618,0.0-1.0-6.0-0.0-3.0-0.0,0,0,31921,,,,,,4.0,,,,,,,,,,,,,,,,,,,,,,,72.5,1.0,,,,,,,,,,,,,,,
52,,iti,,html-keyboard-response,52,42723,0.0-1.0-6.0-0.0-5.0,0,0,31921,,,,,,,,,,,,,,,,,,,,,,,,,,,,,75.0,2.5,,,,,,,,,,,,,,,
53,,practice_over,,html-keyboard-response,53,43099,0.0-1.0-6.0-0.0-6.0-0.0,0,0,31921,,374.0,,,68.0,4.0,,,,,,,,,,,,,,,,,,,,,,,,,,,,,,,,,,,,,,,
54,,start_run,,html-keyboard-response,54,45290,0.0-1.0-6.0-0.0-6.0-1.0,0,0,31921,,2189.0,,,84.0,,,,,,,,,,,,,,,,,,,,,,,,,,,,,,,,,,,,,,,,
55,,choice,,html-keyboard-response,55,45683,0.0-1.0-7.0-0.0-0.0,0,0,31921,,389.0,,,68.0,5.0,305.0,3500.0,1000.0,0.0,6.0,0.0,20-60,,1.0,key chain,vase,60.0,20.0,key chain5,vase14,40.0,0.0,keychain-metal-logo.jpg,Avase119.jpg,/static/Category_learning/Stimuli/Experimental_stims/key chain/keychain-metal-logo.jpg,/static/Category_learning/Stimuli/Experimental_stims/vase/Avase119.jpg,0.0,0.389,0.389,1.0,key chain,vase,60.0,20.0,key chain5,vase14,40.0,0.0,,,,,,
56,,confirmation,,html-keyboard-response,56,46799,0.0-1.0-7.0-0.0-1.0-0.0,0,0,31921,,,,,,5.0,,,,,,,,,,,,,,,,,,,,,,,1.5,1.111,,,,,,,,,,,,,,,
57,,isi,,html-keyboard-response,57,46906,0.0-1.0-7.0-0.0-2.0,0,0,31921,,,,,,,,,,,,,,,,,,,,,,,,,,,,,5.0,3.5,,,,,,,,,,,,,,,
58,,feedback,,html-keyboard-response,58,47913,0.0-1.0-7.0-0.0-3.0-0.0,0,0,31921,,,,,,5.0,,,,,,,,,,,,,,,,,,,,,,,6.0,1.0,,,,,,,,,,,,,,,
59,,iti,,html-keyboard-response,59,48021,0.0-1.0-7.0-0.0-5.0,0,0,31921,,,,,,,,,,,,,,,,,,,,,,,,,,,,,7.0,1.0,,,,,,,,,,,,,,,
60,,choice,,html-keyboard-response,60,49197,0.0-1.0-8.0-0.0-0.0,0,0,31921,,1172.0,,,75.0,6.0,306.0,1000.0,3500.0,0.0,6.0,0.0,40-60,,0.0,door knob,license plate,40.0,60.0,door knob4,license plate1,40.0,80.0,chrome scroll latch handle.jpg,il-423-3784.jpg,/static/Category_learning/Stimuli/Experimental_stims/door knob/chrome scroll latch handle.jpg,/static/Category_learning/Stimuli/Experimental_stims/license plate/il-423-3784.jpg,0.0,8.172,1.172,0.0,license plate,door knob,60.0,40.0,license plate1,door knob4,80.0,40.0,,,,,,
61,,confirmation,,html-keyboard-response,61,49533,0.0-1.0-8.0-0.0-1.0-0.0,0,0,31921,,,,,,6.0,,,,,,,,,,,,,,,,,,,,,,,8.5,0.32799999999999996,,,,,,,,,,,,,,,
62,,isi,,html-keyboard-response,62,49639,0.0-1.0-8.0-0.0-2.0,0,0,31921,,,,,,,,,,,,,,,,,,,,,,,,,,,,,9.5,1.0,,,,,,,,,,,,,,,
63,,feedback,,html-keyboard-response,63,50644,0.0-1.0-8.0-0.0-3.0-0.0,0,0,31921,,,,,,6.0,,,,,,,,,,,,,,,,,,,,,,,10.5,1.0,,,,,,,,,,,,,,,
64,,iti,,html-keyboard-response,64,50751,0.0-1.0-8.0-0.0-5.0,0,0,31921,,,,,,,,,,,,,,,,,,,,,,,,,,,,,14.0,3.5,,,,,,,,,,,,,,,
65,,choice,,html-keyboard-response,65,50948,0.0-1.0-9.0-0.0-0.0,0,0,31921,,194.0,,,68.0,7.0,307.0,1000.0,2000.0,0.0,6.0,0.0,40-80,,1.0,necklace,baby carriage,80.0,40.0,necklace5,baby carriage10,80.0,20.0,necklascenew08.jpg,peg_perego_uno_blu.jpg,/static/Category_learning/Stimuli/Experimental_stims/necklace/necklascenew08.jpg,/static/Category_learning/Stimuli/Experimental_stims/baby carriage/peg_perego_uno_blu.jpg,0.0,14.194,0.19399999999999998,1.0,necklace,baby carriage,80.0,40.0,necklace5,baby carriage10,80.0,20.0,,,,,,
66,,confirmation,,html-keyboard-response,66,52260,0.0-1.0-9.0-0.0-1.0-0.0,0,0,31921,,,,,,7.0,,,,,,,,,,,,,,,,,,,,,,,15.5,1.306,,,,,,,,,,,,,,,
67,,isi,,html-keyboard-response,67,52367,0.0-1.0-9.0-0.0-2.0,0,0,31921,,,,,,,,,,,,,,,,,,,,,,,,,,,,,16.5,1.0,,,,,,,,,,,,,,,
68,,feedback,,html-keyboard-response,68,53375,0.0-1.0-9.0-0.0-3.0-0.0,0,0,31921,,,,,,7.0,,,,,,,,,,,,,,,,,,,,,,,17.5,1.0,,,,,,,,,,,,,,,
69,,iti,,html-keyboard-response,69,53483,0.0-1.0-9.0-0.0-5.0,0,0,31921,,,,,,,,,,,,,,,,,,,,,,,,,,,,,19.5,2.0,,,,,,,,,,,,,,,
70,,choice,,html-keyboard-response,70,54742,0.0-1.0-10.0-0.0-0.0,0,0,31921,,1257.0,,,75.0,8.0,308.0,1500.0,1500.0,0.0,6.0,0.0,20-80,,1.0,nail polish,trumpet,80.0,20.0,nail polish12,trumpet13,80.0,20.0,laquerdUP.jpg,JUPITER+JTR1600GS.jpg,/static/Category_learning/Stimuli/Experimental_stims/nail polish/laquerdUP.jpg,/static/Category_learning/Stimuli/Experimental_stims/trumpet/JUPITER+JTR1600GS.jpg,0.0,20.756999999999998,1.2570000000000001,0.0,trumpet,nail polish,20.0,80.0,trumpet13,nail polish12,20.0,80.0,,,,,,
71,,confirmation,,html-keyboard-response,71,54991,0.0-1.0-10.0-0.0-1.0-0.0,0,0,31921,,,,,,8.0,,,,,,,,,,,,,,,,,,,,,,,21.0,0.243,,,,,,,,,,,,,,,
72,,isi,,html-keyboard-response,72,55095,0.0-1.0-10.0-0.0-2.0,0,0,31921,,,,,,,,,,,,,,,,,,,,,,,,,,,,,22.5,1.5,,,,,,,,,,,,,,,
73,,feedback,,html-keyboard-response,73,56101,0.0-1.0-10.0-0.0-3.0-0.0,0,0,31921,,,,,,8.0,,,,,,,,,,,,,,,,,,,,,,,23.5,1.0,,,,,,,,,,,,,,,
74,,iti,,html-keyboard-response,74,56207,0.0-1.0-10.0-0.0-5.0,0,0,31921,,,,,,,,,,,,,,,,,,,,,,,,,,,,,25.0,1.5,,,,,,,,,,,,,,,
75,,choice,,html-keyboard-response,75,57714,0.0-1.0-11.0-0.0-0.0,0,0,31921,,,,,,9.0,309.0,1000.0,1000.0,0.0,6.0,0.0,20-80,,1.0,pen,train,80.0,20.0,pen1,train12,60.0,0.0,pen09.jpg,02565 ride on train.jpg,/static/Category_learning/Stimuli/Experimental_stims/pen/pen09.jpg,/static/Category_learning/Stimuli/Experimental_stims/train/02565 ride on train.jpg,1.0,26.5,1.5,,,,,,,,,,,,,,,
76,,isi,,html-keyboard-response,76,57818,0.0-1.0-11.0-0.0-2.0,0,0,31921,,,,,,,,,,,,,,,,,,,,,,,,,,,,,27.5,1.0,,,,,,,,,,,,,,,
77,,no_response,,html-keyboard-response,77,58825,0.0-1.0-11.0-0.0-4.0-0.0,1,0,31921,,,,,,,,,,,,,,,,,,,,,,,,,,,,,28.5,1.0,,,,,,,,,,,,,,,
78,,iti,,html-keyboard-response,78,58950,0.0-1.0-11.0-0.0-5.0,0,0,31921,,,,,,,,,,,,,,,,,,,,,,,,,,,,,29.5,1.0,,,,,,,,,,,,,,,
79,,choice,,html-keyboard-response,79,60457,0.0-1.0-11.0-0.1-0.1,0,0,31921,,,,,,9.0,309.0,1000.0,1000.0,0.0,6.0,0.0,20-80,,1.0,pen,train,80.0,20.0,pen1,train12,60.0,0.0,pen09.jpg,02565 ride on train.jpg,/static/Category_learning/Stimuli/Experimental_stims/pen/pen09.jpg,/static/Category_learning/Stimuli/Experimental_stims/train/02565 ride on train.jpg,1.0,31.0,1.5,,,,,,,,,,,,,,,
80,,isi,,html-keyboard-response,80,60565,0.0-1.0-11.0-0.1-2.1,0,0,31921,,,,,,,,,,,,,,,,,,,,,,,,,,,,,33.0,2.0,,,,,,,,,,,,,,,
81,,no_response,,html-keyboard-response,81,61572,0.0-1.0-11.0-0.1-4.1-0.1,1,0,31921,,,,,,,,,,,,,,,,,,,,,,,,,,,,,34.0,1.0,,,,,,,,,,,,,,,
82,,iti,,html-keyboard-response,82,61696,0.0-1.0-11.0-0.1-5.1,0,0,31921,,,,,,,,,,,,,,,,,,,,,,,,,,,,,35.5,1.5,,,,,,,,,,,,,,,
83,,choice,,html-keyboard-response,83,61842,0.0-1.0-11.0-0.2-0.2,0,0,31921,,142.0,,,75.0,9.0,309.0,1000.0,1000.0,0.0,6.0,0.0,20-80,,1.0,pen,train,80.0,20.0,pen1,train12,60.0,0.0,pen09.jpg,02565 ride on train.jpg,/static/Category_learning/Stimuli/Experimental_stims/pen/pen09.jpg,/static/Category_learning/Stimuli/Experimental_stims/train/02565 ride on train.jpg,0.0,35.641999999999996,0.142,0.0,train,pen,20.0,80.0,train12,pen1,0.0,60.0,,,,,,
84,,confirmation,,html-keyboard-response,84,63204,0.0-1.0-11.0-0.2-1.2-0.2,0,0,31921,,,,,,9.0,,,,,,,,,,,,,,,,,,,,,,,37.0,1.358,,,,,,,,,,,,,,,
85,,isi,,html-keyboard-response,85,63308,0.0-1.0-11.0-0.2-2.2,0,0,31921,,,,,,,,,,,,,,,,,,,,,,,,,,,,,38.5,1.5,,,,,,,,,,,,,,,
86,,feedback,,html-keyboard-response,86,64316,0.0-1.0-11.0-0.2-3.2-0.2,0,0,31921,,,,,,9.0,,,,,,,,,,,,,,,,,,,,,,,39.5,1.0,,,,,,,,,,,,,,,
87,,iti,,html-keyboard-response,87,64421,0.0-1.0-11.0-0.2-5.2,0,0,31921,,,,,,,,,,,,,,,,,,,,,,,,,,,,,41.0,1.5,,,,,,,,,,,,,,,
88,,choice,,html-keyboard-response,88,64433,0.0-1.0-12.0-0.0-0.0,0,0,31921,,8.0,,,68.0,10.0,310.0,3000.0,1000.0,0.0,6.0,0.0,20-80,,0.0,watch,necklace,20.0,80.0,watch10,necklace11,0.0,100.0,HEU0102124_zoom.jpg,necklascenew06.jpg,/static/Category_learning/Stimuli/Experimental_stims/watch/HEU0102124_zoom.jpg,/static/Category_learning/Stimuli/Experimental_stims/necklace/necklascenew06.jpg,0.0,41.008,0.008,1.0,watch,necklace,20.0,80.0,watch10,necklace11,0.0,100.0,,,,,,
89,,confirmation,,html-keyboard-response,89,65933,0.0-1.0-12.0-0.0-1.0-0.0,0,0,31921,,,,,,10.0,,,,,,,,,,,,,,,,,,,,,,,42.5,1.492,,,,,,,,,,,,,,,
90,,isi,,html-keyboard-response,90,66040,0.0-1.0-12.0-0.0-2.0,0,0,31921,,,,,,,,,,,,,,,,,,,,,,,,,,,,,45.5,3.0,,,,,,,,,,,,,,,
91,,feedback,,html-keyboard-response,91,67043,0.0-1.0-12.0-0.0-3.0-0.0,0,0,31921,,,,,,10.0,,,,,,,,,,,,,,,,,,,,,,,46.5,1.0,,,,,,,,,,,,,,,
92,,iti,,html-keyboard-response,92,67149,0.0-1.0-12.0-0.0-5.0,0,0,31921,,,,,,,,,,,,,,,,,,,,,,,,,,,,,47.5,1.0,,,,,,,,,,,,,,,
93,,choice,,html-keyboard-response,93,68643,0.0-1.0-13.0-0.0-0.0,0,0,31921,,1490.0,,,75.0,11.0,311.0,1000.0,1500.0,0.0,6.0,0.0,20-80,,0.0,stool,power strip,20.0,80.0,stool2,power strip15,40.0,100.0,ASTOOL46.jpg,31oz6aGZN7L._AA262_.jpg,/static/Category_learning/Stimuli/Experimental_stims/stool/ASTOOL46.jpg,/static/Category_learning/Stimuli/Experimental_stims/power strip/31oz6aGZN7L._AA262_.jpg,0.0,48.99,1.49,0.0,power strip,stool,80.0,20.0,power strip15,stool2,100.0,40.0,,,,,,
94,,confirmation,,html-keyboard-response,94,68657,0.0-1.0-13.0-0.0-1.0-0.0,0,0,31921,,,,,,11.0,,,,,,,,,,,,,,,,,,,,,,,49.0,0.01,,,,,,,,,,,,,,,
95,,isi,,html-keyboard-response,95,68762,0.0-1.0-13.0-0.0-2.0,0,0,31921,,,,,,,,,,,,,,,,,,,,,,,,,,,,,50.0,1.0,,,,,,,,,,,,,,,
96,,feedback,,html-keyboard-response,96,69766,0.0-1.0-13.0-0.0-3.0-0.0,0,0,31921,,,,,,11.0,,,,,,,,,,,,,,,,,,,,,,,51.0,1.0,,,,,,,,,,,,,,,
97,,iti,,html-keyboard-response,97,69870,0.0-1.0-13.0-0.0-5.0,0,0,31921,,,,,,,,,,,,,,,,,,,,,,,,,,,,,52.5,1.5,,,,,,,,,,,,,,,
98,,choice,,html-keyboard-response,98,69905,0.0-1.0-14.0-0.0-0.0,0,0,31921,,32.0,,,75.0,12.0,312.0,3000.0,3000.0,0.0,6.0,0.0,60-80,,1.0,seashell,lipstick,80.0,60.0,seashell5,lipstick2,80.0,40.0,429345994_b87bb03366.jpg,11uuoPMY+OL._SS500_.jpg,/static/Category_learning/Stimuli/Experimental_stims/seashell/429345994_b87bb03366.jpg,/static/Category_learning/Stimuli/Experimental_stims/lipstick/11uuoPMY+OL._SS500_.jpg,0.0,52.532,0.032,0.0,lipstick,seashell,60.0,80.0,lipstick2,seashell5,40.0,80.0,,,,,,
99,,confirmation,,html-keyboard-response,99,71376,0.0-1.0-14.0-0.0-1.0-0.0,0,0,31921,,,,,,12.0,,,,,,,,,,,,,,,,,,,,,,,54.0,1.4680000000000002,,,,,,,,,,,,,,,
100,,isi,,html-keyboard-response,100,71483,0.0-1.0-14.0-0.0-2.0,0,0,31921,,,,,,,,,,,,,,,,,,,,,,,,,,,,,57.0,3.0,,,,,,,,,,,,,,,
101,,feedback,,html-keyboard-response,101,72487,0.0-1.0-14.0-0.0-3.0-0.0,0,0,31921,,,,,,12.0,,,,,,,,,,,,,,,,,,,,,,,58.0,1.0,,,,,,,,,,,,,,,
102,,iti,,html-keyboard-response,102,72591,0.0-1.0-14.0-0.0-5.0,0,0,31921,,,,,,,,,,,,,,,,,,,,,,,,,,,,,61.0,3.0,,,,,,,,,,,,,,,
103,,choice,,html-keyboard-response,103,72729,0.0-1.0-15.0-0.0-0.0,0,0,31921,,136.0,,,75.0,13.0,313.0,3000.0,1000.0,0.0,6.0,0.0,40-40,,,bowl,flashlight,40.0,40.0,bowl8,flashlight15,20.0,40.0,ASLVBOWL.jpg,freeplay-xray-wind-up-led-flashlight.jpg,/static/Category_learning/Stimuli/Experimental_stims/bowl/ASLVBOWL.jpg,/static/Category_learning/Stimuli/Experimental_stims/flashlight/freeplay-xray-wind-up-led-flashlight.jpg,0.0,61.136,0.136,0.0,flashlight,bowl,40.0,40.0,flashlight15,bowl8,40.0,20.0,,,,,,
104,,confirmation,,html-keyboard-response,104,74100,0.0-1.0-15.0-0.0-1.0-0.0,0,0,31921,,,,,,13.0,,,,,,,,,,,,,,,,,,,,,,,62.5,1.364,,,,,,,,,,,,,,,
105,,isi,,html-keyboard-response,105,74207,0.0-1.0-15.0-0.0-2.0,0,0,31921,,,,,,,,,,,,,,,,,,,,,,,,,,,,,65.5,3.0,,,,,,,,,,,,,,,
106,,feedback,,html-keyboard-response,106,75213,0.0-1.0-15.0-0.0-3.0-0.0,0,0,31921,,,,,,13.0,,,,,,,,,,,,,,,,,,,,,,,66.5,1.0,,,,,,,,,,,,,,,
107,,iti,,html-keyboard-response,107,75318,0.0-1.0-15.0-0.0-5.0,0,0,31921,,,,,,,,,,,,,,,,,,,,,,,,,,,,,67.5,1.0,,,,,,,,,,,,,,,
108,,choice,,html-keyboard-response,108,75402,0.0-1.0-16.0-0.0-0.0,0,0,31921,,81.0,,,75.0,14.0,314.0,3500.0,1000.0,0.0,6.0,0.0,40-40,,,fan,bench,40.0,40.0,fan10,bench15,60.0,60.0,n_sf_1666.jpg,Abench12.jpg,/static/Category_learning/Stimuli/Experimental_stims/fan/n_sf_1666.jpg,/static/Category_learning/Stimuli/Experimental_stims/bench/Abench12.jpg,0.0,67.581,0.081,0.0,bench,fan,40.0,40.0,bench15,fan10,60.0,60.0,,,,,,
109,,confirmation,,html-keyboard-response,109,76824,0.0-1.0-16.0-0.0-1.0-0.0,0,0,31921,,,,,,14.0,,,,,,,,,,,,,,,,,,,,,,,69.0,1.419,,,,,,,,,,,,,,,
110,,isi,,html-keyboard-response,110,76930,0.0-1.0-16.0-0.0-2.0,0,0,31921,,,,,,,,,,,,,,,,,,,,,,,,,,,,,72.5,3.5,,,,,,,,,,,,,,,
111,,feedback,,html-keyboard-response,111,77935,0.0-1.0-16.0-0.0-3.0-0.0,0,0,31921,,,,,,14.0,,,,,,,,,,,,,,,,,,,,,,,73.5,1.0,,,,,,,,,,,,,,,
112,,iti,,html-keyboard-response,112,78039,0.0-1.0-16.0-0.0-5.0,0,0,31921,,,,,,,,,,,,,,,,,,,,,,,,,,,,,74.5,1.0,,,,,,,,,,,,,,,
113,,choice,,html-keyboard-response,113,79091,0.0-1.0-17.0-0.0-0.0,0,0,31921,,1049.0,,,68.0,15.0,315.0,3000.0,3500.0,0.0,6.0,1.0,20-60,0.0,,watch,license plate,20.0,60.0,watch10,license plate1,0.0,80.0,HEU0102124_zoom.jpg,il-423-3784.jpg,/static/Category_learning/Stimuli/Experimental_stims/watch/HEU0102124_zoom.jpg,/static/Category_learning/Stimuli/Experimental_stims/license plate/il-423-3784.jpg,0.0,75.54899999999999,1.0490000000000002,1.0,watch,license plate,20.0,60.0,watch10,license plate1,0.0,80.0,,,,,,
114,,confirmation,,html-keyboard-response,114,79550,0.0-1.0-17.0-0.0-1.0-0.0,0,0,31921,,,,,,15.0,,,,,,,,,,,,,,,,,,,,,,,76.0,0.451,,,,,,,,,,,,,,,
115,,isi,,html-keyboard-response,115,79656,0.0-1.0-17.0-0.0-2.0,0,0,31921,,,,,,,,,,,,,,,,,,,,,,,,,,,,,79.0,3.0,,,,,,,,,,,,,,,
116,,feedback,,html-keyboard-response,116,80661,0.0-1.0-17.0-0.0-3.0-0.0,0,0,31921,,,,,,15.0,,,,,,,,,,,,,,,,,,,,,,,80.0,1.0,,,,,,,,,,,,,,,
117,,iti,,html-keyboard-response,117,80767,0.0-1.0-17.0-0.0-5.0,0,0,31921,,,,,,,,,,,,,,,,,,,,,,,,,,,,,83.5,3.5,,,,,,,,,,,,,,,
118,,choice,,html-keyboard-response,118,80805,0.0-1.0-18.0-0.0-0.0,0,0,31921,,34.0,,,68.0,16.0,316.0,1000.0,1000.0,0.0,6.0,0.0,20-40,,1.0,dresser,watch,40.0,20.0,dresser13,watch13,60.0,0.0,ADRESSE70.jpg,RS_3104_lrg.jpg,/static/Category_learning/Stimuli/Experimental_stims/dresser/ADRESSE70.jpg,/static/Category_learning/Stimuli/Experimental_stims/watch/RS_3104_lrg.jpg,0.0,83.53399999999999,0.034,1.0,dresser,watch,40.0,20.0,dresser13,watch13,60.0,0.0,,,,,,
119,,confirmation,,html-keyboard-response,119,82276,0.0-1.0-18.0-0.0-1.0-0.0,0,0,31921,,,,,,16.0,,,,,,,,,,,,,,,,,,,,,,,85.0,1.466,,,,,,,,,,,,,,,
120,,isi,,html-keyboard-response,120,82379,0.0-1.0-18.0-0.0-2.0,0,0,31921,,,,,,,,,,,,,,,,,,,,,,,,,,,,,86.0,1.0,,,,,,,,,,,,,,,
121,,feedback,,html-keyboard-response,121,83383,0.0-1.0-18.0-0.0-3.0-0.0,0,0,31921,,,,,,16.0,,,,,,,,,,,,,,,,,,,,,,,87.0,1.0,,,,,,,,,,,,,,,
122,,iti,,html-keyboard-response,122,83487,0.0-1.0-18.0-0.0-5.0,0,0,31921,,,,,,,,,,,,,,,,,,,,,,,,,,,,,88.0,1.0,,,,,,,,,,,,,,,
123,,choice,,html-keyboard-response,123,83514,0.0-1.0-19.0-0.0-0.0,0,0,31921,,23.0,,,68.0,17.0,317.0,2000.0,1000.0,0.0,6.0,1.0,20-20,0.0,,train,trumpet,20.0,20.0,train12,trumpet13,0.0,20.0,02565 ride on train.jpg,JUPITER+JTR1600GS.jpg,/static/Category_learning/Stimuli/Experimental_stims/train/02565 ride on train.jpg,/static/Category_learning/Stimuli/Experimental_stims/trumpet/JUPITER+JTR1600GS.jpg,0.0,88.023,0.023,1.0,train,trumpet,20.0,20.0,train12,trumpet13,0.0,20.0,,,,,,
124,,confirmation,,html-keyboard-response,124,84996,0.0-1.0-19.0-0.0-1.0-0.0,0,0,31921,,,,,,17.0,,,,,,,,,,,,,,,,,,,,,,,89.5,1.4769999999999999,,,,,,,,,,,,,,,
125,,isi,,html-keyboard-response,125,85103,0.0-1.0-19.0-0.0-2.0,0,0,31921,,,,,,,,,,,,,,,,,,,,,,,,,,,,,91.5,2.0,,,,,,,,,,,,,,,
126,,feedback,,html-keyboard-response,126,86106,0.0-1.0-19.0-0.0-3.0-0.0,0,0,31921,,,,,,17.0,,,,,,,,,,,,,,,,,,,,,,,92.5,1.0,,,,,,,,,,,,,,,
127,,iti,,html-keyboard-response,127,86212,0.0-1.0-19.0-0.0-5.0,0,0,31921,,,,,,,,,,,,,,,,,,,,,,,,,,,,,93.5,1.0,,,,,,,,,,,,,,,
128,,choice,,html-keyboard-response,128,86322,0.0-1.0-20.0-0.0-0.0,0,0,31921,,107.0,,,75.0,18.0,318.0,1000.0,1000.0,0.0,6.0,0.0,20-60,,0.0,telescope,license plate,20.0,60.0,telescope9,license plate4,40.0,40.0,13TELESTAND.jpg,ca-2flt842.jpg,/static/Category_learning/Stimuli/Experimental_stims/telescope/13TELESTAND.jpg,/static/Category_learning/Stimuli/Experimental_stims/license plate/ca-2flt842.jpg,0.0,93.60700000000001,0.107,0.0,license plate,telescope,60.0,20.0,license plate4,telescope9,40.0,40.0,,,,,,
129,,confirmation,,html-keyboard-response,129,87718,0.0-1.0-20.0-0.0-1.0-0.0,0,0,31921,,,,,,18.0,,,,,,,,,,,,,,,,,,,,,,,95.0,1.393,,,,,,,,,,,,,,,
130,,isi,,html-keyboard-response,130,87823,0.0-1.0-20.0-0.0-2.0,0,0,31921,,,,,,,,,,,,,,,,,,,,,,,,,,,,,96.0,1.0,,,,,,,,,,,,,,,
131,,feedback,,html-keyboard-response,131,88829,0.0-1.0-20.0-0.0-3.0-0.0,0,0,31921,,,,,,18.0,,,,,,,,,,,,,,,,,,,,,,,97.0,1.0,,,,,,,,,,,,,,,
132,,iti,,html-keyboard-response,132,88933,0.0-1.0-20.0-0.0-5.0,0,0,31921,,,,,,,,,,,,,,,,,,,,,,,,,,,,,98.0,1.0,,,,,,,,,,,,,,,
133,,choice,,html-keyboard-response,133,89013,0.0-1.0-21.0-0.0-0.0,0,0,31921,,77.0,,,68.0,19.0,319.0,2000.0,3000.0,0.0,6.0,1.0,60-80,0.0,,license plate,power strip,60.0,80.0,license plate4,power strip15,40.0,100.0,ca-2flt842.jpg,31oz6aGZN7L._AA262_.jpg,/static/Category_learning/Stimuli/Experimental_stims/license plate/ca-2flt842.jpg,/static/Category_learning/Stimuli/Experimental_stims/power strip/31oz6aGZN7L._AA262_.jpg,0.0,98.07700000000001,0.077,1.0,license plate,power strip,60.0,80.0,license plate4,power strip15,40.0,100.0,,,,,,
134,,confirmation,,html-keyboard-response,134,90442,0.0-1.0-21.0-0.0-1.0-0.0,0,0,31921,,,,,,19.0,,,,,,,,,,,,,,,,,,,,,,,99.5,1.423,,,,,,,,,,,,,,,
135,,isi,,html-keyboard-response,135,90548,0.0-1.0-21.0-0.0-2.0,0,0,31921,,,,,,,,,,,,,,,,,,,,,,,,,,,,,101.5,2.0,,,,,,,,,,,,,,,
136,,feedback,,html-keyboard-response,136,91551,0.0-1.0-21.0-0.0-3.0-0.0,0,0,31921,,,,,,19.0,,,,,,,,,,,,,,,,,,,,,,,102.5,1.0,,,,,,,,,,,,,,,
137,,iti,,html-keyboard-response,137,91654,0.0-1.0-21.0-0.0-5.0,0,0,31921,,,,,,,,,,,,,,,,,,,,,,,,,,,,,105.5,3.0,,,,,,,,,,,,,,,
138,,choice,,html-keyboard-response,138,91658,0.0-1.0-22.0-0.0-0.0,0,0,31921,,1.0,,,75.0,20.0,320.0,1000.0,1000.0,0.0,6.0,0.0,40-80,,1.0,power strip,door knob,80.0,40.0,power strip12,door knob6,60.0,20.0,41CXESEH1TL._AA262_.jpg,30fdcb17-b0fd-4f26-8cd8-11adde46fb79_4.jpg,/static/Category_learning/Stimuli/Experimental_stims/power strip/41CXESEH1TL._AA262_.jpg,/static/Category_learning/Stimuli/Experimental_stims/door knob/30fdcb17-b0fd-4f26-8cd8-11adde46fb79_4.jpg,0.0,105.501,0.001,0.0,door knob,power strip,40.0,80.0,door knob6,power strip12,20.0,60.0,,,,,,
139,,confirmation,,html-keyboard-response,139,93161,0.0-1.0-22.0-0.0-1.0-0.0,0,0,31921,,,,,,20.0,,,,,,,,,,,,,,,,,,,,,,,107.0,1.499,,,,,,,,,,,,,,,
140,,isi,,html-keyboard-response,140,93269,0.0-1.0-22.0-0.0-2.0,0,0,31921,,,,,,,,,,,,,,,,,,,,,,,,,,,,,108.0,1.0,,,,,,,,,,,,,,,
141,,feedback,,html-keyboard-response,141,94273,0.0-1.0-22.0-0.0-3.0-0.0,0,0,31921,,,,,,20.0,,,,,,,,,,,,,,,,,,,,,,,109.0,1.0,,,,,,,,,,,,,,,
142,,iti,,html-keyboard-response,142,94376,0.0-1.0-22.0-0.0-5.0,0,0,31921,,,,,,,,,,,,,,,,,,,,,,,,,,,,,110.0,1.0,,,,,,,,,,,,,,,
143,,choice,,html-keyboard-response,143,94519,0.0-1.0-23.0-0.0-0.0,0,0,31921,,140.0,,,75.0,21.0,321.0,2000.0,1000.0,0.0,6.0,1.0,60-80,0.0,,necklace,lipstick,80.0,60.0,necklace5,lipstick2,80.0,40.0,necklascenew08.jpg,11uuoPMY+OL._SS500_.jpg,/static/Category_learning/Stimuli/Experimental_stims/necklace/necklascenew08.jpg,/static/Category_learning/Stimuli/Experimental_stims/lipstick/11uuoPMY+OL._SS500_.jpg,0.0,110.14,0.14,0.0,lipstick,necklace,60.0,80.0,lipstick2,necklace5,40.0,80.0,,,,,,
144,,confirmation,,html-keyboard-response,144,95883,0.0-1.0-23.0-0.0-1.0-0.0,0,0,31921,,,,,,21.0,,,,,,,,,,,,,,,,,,,,,,,111.5,1.36,,,,,,,,,,,,,,,
145,,isi,,html-keyboard-response,145,95988,0.0-1.0-23.0-0.0-2.0,0,0,31921,,,,,,,,,,,,,,,,,,,,,,,,,,,,,113.5,2.0,,,,,,,,,,,,,,,
146,,feedback,,html-keyboard-response,146,96991,0.0-1.0-23.0-0.0-3.0-0.0,0,0,31921,,,,,,21.0,,,,,,,,,,,,,,,,,,,,,,,114.5,1.0,,,,,,,,,,,,,,,
147,,iti,,html-keyboard-response,147,97098,0.0-1.0-23.0-0.0-5.0,0,0,31921,,,,,,,,,,,,,,,,,,,,,,,,,,,,,115.5,1.0,,,,,,,,,,,,,,,
148,,choice,,html-keyboard-response,148,97616,0.0-1.0-24.0-0.0-0.0,0,0,31921,,514.0,,,75.0,22.0,322.0,1500.0,1000.0,0.0,6.0,0.0,40-60,,1.0,makeup compact,desk,60.0,40.0,makeup compact1,desk5,60.0,60.0,P190250_hero.jpg,ADESK6.jpg,/static/Category_learning/Stimuli/Experimental_stims/makeup compact/P190250_hero.jpg,/static/Category_learning/Stimuli/Experimental_stims/desk/ADESK6.jpg,0.0,116.014,0.514,0.0,desk,makeup compact,40.0,60.0,desk5,makeup compact1,60.0,60.0,,,,,,
149,,confirmation,,html-keyboard-response,149,98607,0.0-1.0-24.0-0.0-1.0-0.0,0,0,31921,,,,,,22.0,,,,,,,,,,,,,,,,,,,,,,,117.0,0.986,,,,,,,,,,,,,,,
150,,isi,,html-keyboard-response,150,98713,0.0-1.0-24.0-0.0-2.0,0,0,31921,,,,,,,,,,,,,,,,,,,,,,,,,,,,,118.5,1.5,,,,,,,,,,,,,,,
151,,feedback,,html-keyboard-response,151,99717,0.0-1.0-24.0-0.0-3.0-0.0,0,0,31921,,,,,,22.0,,,,,,,,,,,,,,,,,,,,,,,119.5,1.0,,,,,,,,,,,,,,,
152,,iti,,html-keyboard-response,152,99822,0.0-1.0-24.0-0.0-5.0,0,0,31921,,,,,,,,,,,,,,,,,,,,,,,,,,,,,120.5,1.0,,,,,,,,,,,,,,,
153,,choice,,html-keyboard-response,153,99830,0.0-1.0-25.0-0.0-0.0,0,0,31921,,4.0,,,75.0,23.0,323.0,3500.0,2000.0,0.0,6.0,0.0,20-20,,,tent,telescope,20.0,20.0,tent7,telescope12,0.0,0.0,9238gh948h.jpg,Junior Land and Sky Telescope.jpg,/static/Category_learning/Stimuli/Experimental_stims/tent/9238gh948h.jpg,/static/Category_learning/Stimuli/Experimental_stims/telescope/Junior Land and Sky Telescope.jpg,0.0,120.50399999999999,0.004,0.0,telescope,tent,20.0,20.0,telescope12,tent7,0.0,0.0,,,,,,
154,,confirmation,,html-keyboard-response,154,101333,0.0-1.0-25.0-0.0-1.0-0.0,0,0,31921,,,,,,23.0,,,,,,,,,,,,,,,,,,,,,,,122.0,1.496,,,,,,,,,,,,,,,
155,,isi,,html-keyboard-response,155,101439,0.0-1.0-25.0-0.0-2.0,0,0,31921,,,,,,,,,,,,,,,,,,,,,,,,,,,,,125.5,3.5,,,,,,,,,,,,,,,
156,,feedback,,html-keyboard-response,156,102442,0.0-1.0-25.0-0.0-3.0-0.0,0,0,31921,,,,,,23.0,,,,,,,,,,,,,,,,,,,,,,,126.5,1.0,,,,,,,,,,,,,,,
157,,iti,,html-keyboard-response,157,102545,0.0-1.0-25.0-0.0-5.0,0,0,31921,,,,,,,,,,,,,,,,,,,,,,,,,,,,,128.5,2.0,,,,,,,,,,,,,,,
158,,choice,,html-keyboard-response,158,103087,0.0-1.0-26.0-0.0-0.0,0,0,31921,,539.0,,,75.0,24.0,324.0,1500.0,2000.0,0.0,6.0,0.0,80-80,,,seashell,nail polish,80.0,80.0,seashell10,nail polish10,80.0,100.0,ASEASHE47.jpg,NLM23_opi_nail_polish.jpg,/static/Category_learning/Stimuli/Experimental_stims/seashell/ASEASHE47.jpg,/static/Category_learning/Stimuli/Experimental_stims/nail polish/NLM23_opi_nail_polish.jpg,0.0,129.039,0.539,0.0,nail polish,seashell,80.0,80.0,nail polish10,seashell10,100.0,80.0,,,,,,
159,,confirmation,,html-keyboard-response,159,104054,0.0-1.0-26.0-0.0-1.0-0.0,0,0,31921,,,,,,24.0,,,,,,,,,,,,,,,,,,,,,,,130.0,0.961,,,,,,,,,,,,,,,
160,,isi,,html-keyboard-response,160,104160,0.0-1.0-26.0-0.0-2.0,0,0,31921,,,,,,,,,,,,,,,,,,,,,,,,,,,,,131.5,1.5,,,,,,,,,,,,,,,
161,,feedback,,html-keyboard-response,161,105164,0.0-1.0-26.0-0.0-3.0-0.0,0,0,31921,,,,,,24.0,,,,,,,,,,,,,,,,,,,,,,,132.5,1.0,,,,,,,,,,,,,,,
162,,iti,,html-keyboard-response,162,105268,0.0-1.0-26.0-0.0-5.0,0,0,31921,,,,,,,,,,,,,,,,,,,,,,,,,,,,,134.5,2.0,,,,,,,,,,,,,,,
163,,choice,,html-keyboard-response,163,106772,0.0-1.0-27.0-0.0-0.0,0,0,31921,,,,,,25.0,325.0,1000.0,2000.0,0.0,6.0,1.0,40-40,0.0,,desk,flashlight,40.0,40.0,desk5,flashlight15,60.0,40.0,ADESK6.jpg,freeplay-xray-wind-up-led-flashlight.jpg,/static/Category_learning/Stimuli/Experimental_stims/desk/ADESK6.jpg,/static/Category_learning/Stimuli/Experimental_stims/flashlight/freeplay-xray-wind-up-led-flashlight.jpg,1.0,136.0,1.5,,,,,,,,,,,,,,,
164,,isi,,html-keyboard-response,164,106875,0.0-1.0-27.0-0.0-2.0,0,0,31921,,,,,,,,,,,,,,,,,,,,,,,,,,,,,137.0,1.0,,,,,,,,,,,,,,,
165,,no_response,,html-keyboard-response,165,107882,0.0-1.0-27.0-0.0-4.0-0.0,1,0,31921,,,,,,,,,,,,,,,,,,,,,,,,,,,,,138.0,1.0,,,,,,,,,,,,,,,
166,,iti,,html-keyboard-response,166,108004,0.0-1.0-27.0-0.0-5.0,0,0,31921,,,,,,,,,,,,,,,,,,,,,,,,,,,,,140.0,2.0,,,,,,,,,,,,,,,
167,,choice,,html-keyboard-response,167,108007,0.0-1.0-27.0-0.1-0.1,0,0,31921,,1.0,,,75.0,25.0,325.0,1000.0,2000.0,0.0,6.0,1.0,40-40,0.0,,desk,flashlight,40.0,40.0,desk5,flashlight15,60.0,40.0,ADESK6.jpg,freeplay-xray-wind-up-led-flashlight.jpg,/static/Category_learning/Stimuli/Experimental_stims/desk/ADESK6.jpg,/static/Category_learning/Stimuli/Experimental_stims/flashlight/freeplay-xray-wind-up-led-flashlight.jpg,0.0,140.001,0.001,0.0,flashlight,desk,40.0,40.0,flashlight15,desk5,40.0,60.0,,,,,,
168,,confirmation,,html-keyboard-response,168,109513,0.0-1.0-27.0-0.1-1.1-0.1,0,0,31921,,,,,,25.0,,,,,,,,,,,,,,,,,,,,,,,141.5,1.499,,,,,,,,,,,,,,,
169,,isi,,html-keyboard-response,169,109620,0.0-1.0-27.0-0.1-2.1,0,0,31921,,,,,,,,,,,,,,,,,,,,,,,,,,,,,142.5,1.0,,,,,,,,,,,,,,,
170,,feedback,,html-keyboard-response,170,110628,0.0-1.0-27.0-0.1-3.1-0.1,0,0,31921,,,,,,25.0,,,,,,,,,,,,,,,,,,,,,,,143.5,1.0,,,,,,,,,,,,,,,
171,,iti,,html-keyboard-response,171,110734,0.0-1.0-27.0-0.1-5.1,0,0,31921,,,,,,,,,,,,,,,,,,,,,,,,,,,,,145.5,2.0,,,,,,,,,,,,,,,
172,,choice,,html-keyboard-response,172,112239,0.0-1.0-28.0-0.0-0.0,0,0,31921,,,,,,26.0,326.0,2000.0,1500.0,0.0,6.0,0.0,20-80,,0.0,vase,small table,20.0,80.0,vase8,small table6,20.0,100.0,Avase171.jpg,ATABLE88.jpg,/static/Category_learning/Stimuli/Experimental_stims/vase/Avase171.jpg,/static/Category_learning/Stimuli/Experimental_stims/small table/ATABLE88.jpg,1.0,147.0,1.5,,,,,,,,,,,,,,,
173,,isi,,html-keyboard-response,173,112345,0.0-1.0-28.0-0.0-2.0,0,0,31921,,,,,,,,,,,,,,,,,,,,,,,,,,,,,149.0,2.0,,,,,,,,,,,,,,,
174,,no_response,,html-keyboard-response,174,113350,0.0-1.0-28.0-0.0-4.0-0.0,1,0,31921,,,,,,,,,,,,,,,,,,,,,,,,,,,,,150.0,1.0,,,,,,,,,,,,,,,
175,,iti,,html-keyboard-response,175,113471,0.0-1.0-28.0-0.0-5.0,0,0,31921,,,,,,,,,,,,,,,,,,,,,,,,,,,,,151.5,1.5,,,,,,,,,,,,,,,
176,,choice,,html-keyboard-response,176,114499,0.0-1.0-28.0-0.1-0.1,0,0,31921,,1024.0,,,75.0,26.0,326.0,2000.0,1500.0,0.0,6.0,0.0,20-80,,0.0,vase,small table,20.0,80.0,vase8,small table6,20.0,100.0,Avase171.jpg,ATABLE88.jpg,/static/Category_learning/Stimuli/Experimental_stims/vase/Avase171.jpg,/static/Category_learning/Stimuli/Experimental_stims/small table/ATABLE88.jpg,0.0,152.524,1.024,0.0,small table,vase,80.0,20.0,small table6,vase8,100.0,20.0,,,,,,
177,,confirmation,,html-keyboard-response,177,114980,0.0-1.0-28.0-0.1-1.1-0.1,0,0,31921,,,,,,26.0,,,,,,,,,,,,,,,,,,,,,,,153.0,0.47600000000000003,,,,,,,,,,,,,,,
178,,isi,,html-keyboard-response,178,115087,0.0-1.0-28.0-0.1-2.1,0,0,31921,,,,,,,,,,,,,,,,,,,,,,,,,,,,,154.0,1.0,,,,,,,,,,,,,,,
179,,feedback,,html-keyboard-response,179,116091,0.0-1.0-28.0-0.1-3.1-0.1,0,0,31921,,,,,,26.0,,,,,,,,,,,,,,,,,,,,,,,155.0,1.0,,,,,,,,,,,,,,,
180,,iti,,html-keyboard-response,180,116195,0.0-1.0-28.0-0.1-5.1,0,0,31921,,,,,,,,,,,,,,,,,,,,,,,,,,,,,156.0,1.0,,,,,,,,,,,,,,,
181,,choice,,html-keyboard-response,181,116614,0.0-1.0-29.0-0.0-0.0,0,0,31921,,415.0,,,68.0,27.0,327.0,3500.0,1000.0,0.0,6.0,0.0,40-60,,0.0,baby carriage,license plate,40.0,60.0,baby carriage4,license plate13,60.0,60.0,26373711.thl.jpg,usa-rj-9517.jpg,/static/Category_learning/Stimuli/Experimental_stims/baby carriage/26373711.thl.jpg,/static/Category_learning/Stimuli/Experimental_stims/license plate/usa-rj-9517.jpg,0.0,156.415,0.415,1.0,baby carriage,license plate,40.0,60.0,baby carriage4,license plate13,60.0,60.0,,,,,,
182,,confirmation,,html-keyboard-response,182,117706,0.0-1.0-29.0-0.0-1.0-0.0,0,0,31921,,,,,,27.0,,,,,,,,,,,,,,,,,,,,,,,157.5,1.085,,,,,,,,,,,,,,,
183,,isi,,html-keyboard-response,183,117810,0.0-1.0-29.0-0.0-2.0,0,0,31921,,,,,,,,,,,,,,,,,,,,,,,,,,,,,161.0,3.5,,,,,,,,,,,,,,,
184,,feedback,,html-keyboard-response,184,118816,0.0-1.0-29.0-0.0-3.0-0.0,0,0,31921,,,,,,27.0,,,,,,,,,,,,,,,,,,,,,,,162.0,1.0,,,,,,,,,,,,,,,
185,,iti,,html-keyboard-response,185,118923,0.0-1.0-29.0-0.0-5.0,0,0,31921,,,,,,,,,,,,,,,,,,,,,,,,,,,,,163.0,1.0,,,,,,,,,,,,,,,
186,,choice,,html-keyboard-response,186,119600,0.0-1.0-30.0-0.0-0.0,0,0,31921,,674.0,,,75.0,28.0,328.0,1500.0,1000.0,0.0,6.0,0.0,20-60,,0.0,stool,key chain,20.0,60.0,stool10,key chain2,40.0,80.0,ASTOOL26.jpg,superman_returns_pewter_keychain_2.jpg,/static/Category_learning/Stimuli/Experimental_stims/stool/ASTOOL26.jpg,/static/Category_learning/Stimuli/Experimental_stims/key chain/superman_returns_pewter_keychain_2.jpg,0.0,163.674,0.674,0.0,key chain,stool,60.0,20.0,key chain2,stool10,80.0,40.0,,,,,,
187,,confirmation,,html-keyboard-response,187,120433,0.0-1.0-30.0-0.0-1.0-0.0,0,0,31921,,,,,,28.0,,,,,,,,,,,,,,,,,,,,,,,164.5,0.826,,,,,,,,,,,,,,,
188,,isi,,html-keyboard-response,188,120540,0.0-1.0-30.0-0.0-2.0,0,0,31921,,,,,,,,,,,,,,,,,,,,,,,,,,,,,166.0,1.5,,,,,,,,,,,,,,,
189,,feedback,,html-keyboard-response,189,121546,0.0-1.0-30.0-0.0-3.0-0.0,0,0,31921,,,,,,28.0,,,,,,,,,,,,,,,,,,,,,,,167.0,1.0,,,,,,,,,,,,,,,
190,,iti,,html-keyboard-response,190,121652,0.0-1.0-30.0-0.0-5.0,0,0,31921,,,,,,,,,,,,,,,,,,,,,,,,,,,,,168.0,1.0,,,,,,,,,,,,,,,
191,,choice,,html-keyboard-response,191,122193,0.0-1.0-31.0-0.0-0.0,0,0,31921,,538.0,,,75.0,29.0,329.0,2000.0,1000.0,0.0,6.0,1.0,60-60,1.0,,key chain,key chain,60.0,60.0,key chain5,key chain2,40.0,80.0,keychain-metal-logo.jpg,superman_returns_pewter_keychain_2.jpg,/static/Category_learning/Stimuli/Experimental_stims/key chain/keychain-metal-logo.jpg,/static/Category_learning/Stimuli/Experimental_stims/key chain/superman_returns_pewter_keychain_2.jpg,0.0,168.53799999999998,0.5379999999999999,0.0,key chain,key chain,60.0,60.0,key chain2,key chain5,80.0,40.0,,,,,,
192,,confirmation,,html-keyboard-response,192,123159,0.0-1.0-31.0-0.0-1.0-0.0,0,0,31921,,,,,,29.0,,,,,,,,,,,,,,,,,,,,,,,169.5,0.9620000000000001,,,,,,,,,,,,,,,
193,,isi,,html-keyboard-response,193,123267,0.0-1.0-31.0-0.0-2.0,0,0,31921,,,,,,,,,,,,,,,,,,,,,,,,,,,,,171.5,2.0,,,,,,,,,,,,,,,
194,,feedback,,html-keyboard-response,194,124271,0.0-1.0-31.0-0.0-3.0-0.0,0,0,31921,,,,,,29.0,,,,,,,,,,,,,,,,,,,,,,,172.5,1.0,,,,,,,,,,,,,,,
195,,iti,,html-keyboard-response,195,124377,0.0-1.0-31.0-0.0-5.0,0,0,31921,,,,,,,,,,,,,,,,,,,,,,,,,,,,,173.5,1.0,,,,,,,,,,,,,,,
196,,choice,,html-keyboard-response,196,125091,0.0-1.0-32.0-0.0-0.0,0,0,31921,,710.0,,,75.0,30.0,330.0,1500.0,3500.0,0.0,6.0,0.0,80-80,,,necklace,patio lounge chair,80.0,80.0,necklace9,patio lounge chair12,60.0,80.0,ANECKLACE.jpg,rw-mendocinoultrachaisepc032-lg.jpg,/static/Category_learning/Stimuli/Experimental_stims/necklace/ANECKLACE.jpg,/static/Category_learning/Stimuli/Experimental_stims/patio lounge chair/rw-mendocinoultrachaisepc032-lg.jpg,0.0,174.21,0.71,0.0,patio lounge chair,necklace,80.0,80.0,patio lounge chair12,necklace9,80.0,60.0,,,,,,
197,,confirmation,,html-keyboard-response,197,125887,0.0-1.0-32.0-0.0-1.0-0.0,0,0,31921,,,,,,30.0,,,,,,,,,,,,,,,,,,,,,,,175.0,0.79,,,,,,,,,,,,,,,
198,,isi,,html-keyboard-response,198,125994,0.0-1.0-32.0-0.0-2.0,0,0,31921,,,,,,,,,,,,,,,,,,,,,,,,,,,,,176.5,1.5,,,,,,,,,,,,,,,
199,,feedback,,html-keyboard-response,199,126999,0.0-1.0-32.0-0.0-3.0-0.0,0,0,31921,,,,,,30.0,,,,,,,,,,,,,,,,,,,,,,,177.5,1.0,,,,,,,,,,,,,,,
200,,iti,,html-keyboard-response,200,127103,0.0-1.0-32.0-0.0-5.0,0,0,31921,,,,,,,,,,,,,,,,,,,,,,,,,,,,,181.0,3.5,,,,,,,,,,,,,,,
201,,choice,,html-keyboard-response,201,127474,0.0-1.0-33.0-0.0-0.0,0,0,31921,,367.0,,,75.0,31.0,331.0,1000.0,1000.0,0.0,6.0,0.0,40-80,,0.0,bowl,nail polish,40.0,80.0,bowl5,nail polish5,20.0,100.0,AWOODBOWL.jpg,182_t.jpg,/static/Category_learning/Stimuli/Experimental_stims/bowl/AWOODBOWL.jpg,/static/Category_learning/Stimuli/Experimental_stims/nail polish/182_t.jpg,0.0,181.36700000000002,0.36700000000000005,0.0,nail polish,bowl,80.0,40.0,nail polish5,bowl5,100.0,20.0,,,,,,
202,,confirmation,,html-keyboard-response,202,128612,0.0-1.0-33.0-0.0-1.0-0.0,0,0,31921,,,,,,31.0,,,,,,,,,,,,,,,,,,,,,,,182.5,1.133,,,,,,,,,,,,,,,
203,,isi,,html-keyboard-response,203,128716,0.0-1.0-33.0-0.0-2.0,0,0,31921,,,,,,,,,,,,,,,,,,,,,,,,,,,,,183.5,1.0,,,,,,,,,,,,,,,
204,,feedback,,html-keyboard-response,204,129720,0.0-1.0-33.0-0.0-3.0-0.0,0,0,31921,,,,,,31.0,,,,,,,,,,,,,,,,,,,,,,,184.5,1.0,,,,,,,,,,,,,,,
205,,iti,,html-keyboard-response,205,129828,0.0-1.0-33.0-0.0-5.0,0,0,31921,,,,,,,,,,,,,,,,,,,,,,,,,,,,,185.5,1.0,,,,,,,,,,,,,,,
206,,choice,,html-keyboard-response,206,130063,0.0-1.0-34.0-0.0-0.0,0,0,31921,,232.0,,,75.0,32.0,332.0,1500.0,2000.0,0.0,6.0,0.0,40-60,,0.0,flashlight,lipstick,40.0,60.0,flashlight9,lipstick11,20.0,80.0,new06.jpg,21SS8DBWDQL._SS500_.jpg,/static/Category_learning/Stimuli/Experimental_stims/flashlight/new06.jpg,/static/Category_learning/Stimuli/Experimental_stims/lipstick/21SS8DBWDQL._SS500_.jpg,0.0,185.732,0.23199999999999998,0.0,lipstick,flashlight,60.0,40.0,lipstick11,flashlight9,80.0,20.0,,,,,,
207,,confirmation,,html-keyboard-response,207,131339,0.0-1.0-34.0-0.0-1.0-0.0,0,0,31921,,,,,,32.0,,,,,,,,,,,,,,,,,,,,,,,187.0,1.268,,,,,,,,,,,,,,,
208,,isi,,html-keyboard-response,208,131444,0.0-1.0-34.0-0.0-2.0,0,0,31921,,,,,,,,,,,,,,,,,,,,,,,,,,,,,188.5,1.5,,,,,,,,,,,,,,,
209,,feedback,,html-keyboard-response,209,132450,0.0-1.0-34.0-0.0-3.0-0.0,0,0,31921,,,,,,32.0,,,,,,,,,,,,,,,,,,,,,,,189.5,1.0,,,,,,,,,,,,,,,
210,,iti,,html-keyboard-response,210,132556,0.0-1.0-34.0-0.0-5.0,0,0,31921,,,,,,,,,,,,,,,,,,,,,,,,,,,,,191.5,2.0,,,,,,,,,,,,,,,
211,,choice,,html-keyboard-response,211,133053,0.0-1.0-35.0-0.0-0.0,0,0,31921,,493.0,,,75.0,33.0,333.0,1000.0,3000.0,0.0,6.0,1.0,80-80,1.0,,nail polish,nail polish,80.0,80.0,nail polish5,nail polish10,100.0,100.0,182_t.jpg,NLM23_opi_nail_polish.jpg,/static/Category_learning/Stimuli/Experimental_stims/nail polish/182_t.jpg,/static/Category_learning/Stimuli/Experimental_stims/nail polish/NLM23_opi_nail_polish.jpg,0.0,191.993,0.493,0.0,nail polish,nail polish,80.0,80.0,nail polish10,nail polish5,100.0,100.0,,,,,,
212,,confirmation,,html-keyboard-response,212,134068,0.0-1.0-35.0-0.0-1.0-0.0,0,0,31921,,,,,,33.0,,,,,,,,,,,,,,,,,,,,,,,193.0,1.0070000000000001,,,,,,,,,,,,,,,
213,,isi,,html-keyboard-response,213,134175,0.0-1.0-35.0-0.0-2.0,0,0,31921,,,,,,,,,,,,,,,,,,,,,,,,,,,,,194.0,1.0,,,,,,,,,,,,,,,
214,,feedback,,html-keyboard-response,214,135179,0.0-1.0-35.0-0.0-3.0-0.0,0,0,31921,,,,,,33.0,,,,,,,,,,,,,,,,,,,,,,,195.0,1.0,,,,,,,,,,,,,,,
215,,iti,,html-keyboard-response,215,135284,0.0-1.0-35.0-0.0-5.0,0,0,31921,,,,,,,,,,,,,,,,,,,,,,,,,,,,,198.0,3.0,,,,,,,,,,,,,,,
216,,choice,,html-keyboard-response,216,135323,0.0-1.0-36.0-0.0-0.0,0,0,31921,,36.0,,,68.0,34.0,334.0,1000.0,1000.0,0.0,6.0,0.0,60-60,,,microscope,key chain,60.0,60.0,microscope4,key chain15,80.0,40.0,55071208.JPG,Soft_PVC_Keychain.jpg,/static/Category_learning/Stimuli/Experimental_stims/microscope/55071208.JPG,/static/Category_learning/Stimuli/Experimental_stims/key chain/Soft_PVC_Keychain.jpg,0.0,198.03599999999997,0.036000000000000004,1.0,microscope,key chain,60.0,60.0,microscope4,key chain15,80.0,40.0,,,,,,
217,,confirmation,,html-keyboard-response,217,136792,0.0-1.0-36.0-0.0-1.0-0.0,0,0,31921,,,,,,34.0,,,,,,,,,,,,,,,,,,,,,,,199.5,1.464,,,,,,,,,,,,,,,
218,,isi,,html-keyboard-response,218,136898,0.0-1.0-36.0-0.0-2.0,0,0,31921,,,,,,,,,,,,,,,,,,,,,,,,,,,,,200.5,1.0,,,,,,,,,,,,,,,
219,,feedback,,html-keyboard-response,219,137900,0.0-1.0-36.0-0.0-3.0-0.0,0,0,31921,,,,,,34.0,,,,,,,,,,,,,,,,,,,,,,,201.5,1.0,,,,,,,,,,,,,,,
220,,iti,,html-keyboard-response,220,138005,0.0-1.0-36.0-0.0-5.0,0,0,31921,,,,,,,,,,,,,,,,,,,,,,,,,,,,,202.5,1.0,,,,,,,,,,,,,,,
221,,choice,,html-keyboard-response,221,138052,0.0-1.0-37.0-0.0-0.0,0,0,31921,,43.0,,,68.0,35.0,335.0,1500.0,1500.0,0.0,6.0,1.0,40-60,0.0,,microscope,baby carriage,60.0,40.0,microscope4,baby carriage4,80.0,60.0,55071208.JPG,26373711.thl.jpg,/static/Category_learning/Stimuli/Experimental_stims/microscope/55071208.JPG,/static/Category_learning/Stimuli/Experimental_stims/baby carriage/26373711.thl.jpg,0.0,202.543,0.043,1.0,microscope,baby carriage,60.0,40.0,microscope4,baby carriage4,80.0,60.0,,,,,,
222,,confirmation,,html-keyboard-response,222,139517,0.0-1.0-37.0-0.0-1.0-0.0,0,0,31921,,,,,,35.0,,,,,,,,,,,,,,,,,,,,,,,204.0,1.4569999999999999,,,,,,,,,,,,,,,
223,,isi,,html-keyboard-response,223,139622,0.0-1.0-37.0-0.0-2.0,0,0,31921,,,,,,,,,,,,,,,,,,,,,,,,,,,,,205.5,1.5,,,,,,,,,,,,,,,
224,,feedback,,html-keyboard-response,224,140629,0.0-1.0-37.0-0.0-3.0-0.0,0,0,31921,,,,,,35.0,,,,,,,,,,,,,,,,,,,,,,,206.5,1.0,,,,,,,,,,,,,,,
225,,iti,,html-keyboard-response,225,140735,0.0-1.0-37.0-0.0-5.0,0,0,31921,,,,,,,,,,,,,,,,,,,,,,,,,,,,,208.0,1.5,,,,,,,,,,,,,,,
226,,choice,,html-keyboard-response,226,140841,0.0-1.0-38.0-0.0-0.0,0,0,31921,,102.0,,,75.0,36.0,336.0,2000.0,2000.0,0.0,6.0,0.0,80-80,,,nail polish,necklace,80.0,80.0,nail polish2,necklace14,80.0,80.0,froggy_t.jpg,necklascenew05.jpg,/static/Category_learning/Stimuli/Experimental_stims/nail polish/froggy_t.jpg,/static/Category_learning/Stimuli/Experimental_stims/necklace/necklascenew05.jpg,0.0,208.102,0.102,0.0,necklace,nail polish,80.0,80.0,necklace14,nail polish2,80.0,80.0,,,,,,
227,,confirmation,,html-keyboard-response,227,142244,0.0-1.0-38.0-0.0-1.0-0.0,0,0,31921,,,,,,36.0,,,,,,,,,,,,,,,,,,,,,,,209.5,1.3980000000000001,,,,,,,,,,,,,,,
228,,isi,,html-keyboard-response,228,142350,0.0-1.0-38.0-0.0-2.0,0,0,31921,,,,,,,,,,,,,,,,,,,,,,,,,,,,,211.5,2.0,,,,,,,,,,,,,,,
229,,feedback,,html-keyboard-response,229,143355,0.0-1.0-38.0-0.0-3.0-0.0,0,0,31921,,,,,,36.0,,,,,,,,,,,,,,,,,,,,,,,212.5,1.0,,,,,,,,,,,,,,,
230,,iti,,html-keyboard-response,230,143459,0.0-1.0-38.0-0.0-5.0,0,0,31921,,,,,,,,,,,,,,,,,,,,,,,,,,,,,214.5,2.0,,,,,,,,,,,,,,,
231,,choice,,html-keyboard-response,231,143727,0.0-1.0-39.0-0.0-0.0,0,0,31921,,265.0,,,75.0,37.0,337.0,1000.0,2000.0,0.0,6.0,0.0,40-60,,0.0,fan,motorcycle,40.0,60.0,fan6,motorcycle4,40.0,40.0,30090.fpx.jpg,motorcycle46.jpg,/static/Category_learning/Stimuli/Experimental_stims/fan/30090.fpx.jpg,/static/Category_learning/Stimuli/Experimental_stims/motorcycle/motorcycle46.jpg,0.0,214.765,0.265,0.0,motorcycle,fan,60.0,40.0,motorcycle4,fan6,40.0,40.0,,,,,,
232,,confirmation,,html-keyboard-response,232,144969,0.0-1.0-39.0-0.0-1.0-0.0,0,0,31921,,,,,,37.0,,,,,,,,,,,,,,,,,,,,,,,216.0,1.235,,,,,,,,,,,,,,,
233,,isi,,html-keyboard-response,233,145076,0.0-1.0-39.0-0.0-2.0,0,0,31921,,,,,,,,,,,,,,,,,,,,,,,,,,,,,217.0,1.0,,,,,,,,,,,,,,,
234,,feedback,,html-keyboard-response,234,146083,0.0-1.0-39.0-0.0-3.0-0.0,0,0,31921,,,,,,37.0,,,,,,,,,,,,,,,,,,,,,,,218.0,1.0,,,,,,,,,,,,,,,
235,,iti,,html-keyboard-response,235,146187,0.0-1.0-39.0-0.0-5.0,0,0,31921,,,,,,,,,,,,,,,,,,,,,,,,,,,,,220.0,2.0,,,,,,,,,,,,,,,
236,,choice,,html-keyboard-response,236,146366,0.0-1.0-40.0-0.0-0.0,0,0,31921,,176.0,,,75.0,38.0,338.0,3500.0,2000.0,0.0,6.0,0.0,40-60,,0.0,bench,lipstick,40.0,60.0,bench8,lipstick13,60.0,40.0,APARKBE14.jpg,P184708_hero.jpg,/static/Category_learning/Stimuli/Experimental_stims/bench/APARKBE14.jpg,/static/Category_learning/Stimuli/Experimental_stims/lipstick/P184708_hero.jpg,0.0,220.176,0.17600000000000002,0.0,lipstick,bench,60.0,40.0,lipstick13,bench8,40.0,60.0,,,,,,
237,,confirmation,,html-keyboard-response,237,147694,0.0-1.0-40.0-0.0-1.0-0.0,0,0,31921,,,,,,38.0,,,,,,,,,,,,,,,,,,,,,,,221.5,1.324,,,,,,,,,,,,,,,
238,,isi,,html-keyboard-response,238,147800,0.0-1.0-40.0-0.0-2.0,0,0,31921,,,,,,,,,,,,,,,,,,,,,,,,,,,,,225.0,3.5,,,,,,,,,,,,,,,
239,,feedback,,html-keyboard-response,239,148804,0.0-1.0-40.0-0.0-3.0-0.0,0,0,31921,,,,,,38.0,,,,,,,,,,,,,,,,,,,,,,,226.0,1.0,,,,,,,,,,,,,,,
240,,iti,,html-keyboard-response,240,148911,0.0-1.0-40.0-0.0-5.0,0,0,31921,,,,,,,,,,,,,,,,,,,,,,,,,,,,,228.0,2.0,,,,,,,,,,,,,,,
241,,choice,,html-keyboard-response,241,149033,0.0-1.0-41.0-0.0-0.0,0,0,31921,,118.0,,,75.0,39.0,339.0,1500.0,1500.0,0.0,6.0,1.0,60-60,1.0,,lipstick,lipstick,60.0,60.0,lipstick11,lipstick13,80.0,40.0,21SS8DBWDQL._SS500_.jpg,P184708_hero.jpg,/static/Category_learning/Stimuli/Experimental_stims/lipstick/21SS8DBWDQL._SS500_.jpg,/static/Category_learning/Stimuli/Experimental_stims/lipstick/P184708_hero.jpg,0.0,228.118,0.11800000000000001,0.0,lipstick,lipstick,60.0,60.0,lipstick13,lipstick11,40.0,80.0,,,,,,
242,,confirmation,,html-keyboard-response,242,150420,0.0-1.0-41.0-0.0-1.0-0.0,0,0,31921,,,,,,39.0,,,,,,,,,,,,,,,,,,,,,,,229.5,1.382,,,,,,,,,,,,,,,
243,,isi,,html-keyboard-response,243,150527,0.0-1.0-41.0-0.0-2.0,0,0,31921,,,,,,,,,,,,,,,,,,,,,,,,,,,,,231.0,1.5,,,,,,,,,,,,,,,
244,,feedback,,html-keyboard-response,244,151533,0.0-1.0-41.0-0.0-3.0-0.0,0,0,31921,,,,,,39.0,,,,,,,,,,,,,,,,,,,,,,,232.0,1.0,,,,,,,,,,,,,,,
245,,iti,,html-keyboard-response,245,151639,0.0-1.0-41.0-0.0-5.0,0,0,31921,,,,,,,,,,,,,,,,,,,,,,,,,,,,,233.5,1.5,,,,,,,,,,,,,,,
246,,choice,,html-keyboard-response,246,152259,0.0-1.0-42.0-0.0-0.0,0,0,31921,,616.0,,,75.0,40.0,340.0,1000.0,3000.0,0.0,6.0,0.0,40-80,,0.0,door knob,sofa,40.0,80.0,door knob3,sofa7,60.0,80.0,020f7ec6-df08-40fa-b3a5-0dcfb762f085_4.jpg,JACKSON-MS6007loveseat59X36X33.jpg,/static/Category_learning/Stimuli/Experimental_stims/door knob/020f7ec6-df08-40fa-b3a5-0dcfb762f085_4.jpg,/static/Category_learning/Stimuli/Experimental_stims/sofa/JACKSON-MS6007loveseat59X36X33.jpg,0.0,234.11599999999999,0.616,0.0,sofa,door knob,80.0,40.0,sofa7,door knob3,80.0,60.0,,,,,,
247,,confirmation,,html-keyboard-response,247,153150,0.0-1.0-42.0-0.0-1.0-0.0,0,0,31921,,,,,,40.0,,,,,,,,,,,,,,,,,,,,,,,235.0,0.884,,,,,,,,,,,,,,,
248,,isi,,html-keyboard-response,248,153257,0.0-1.0-42.0-0.0-2.0,0,0,31921,,,,,,,,,,,,,,,,,,,,,,,,,,,,,236.0,1.0,,,,,,,,,,,,,,,
249,,feedback,,html-keyboard-response,249,154260,0.0-1.0-42.0-0.0-3.0-0.0,0,0,31921,,,,,,40.0,,,,,,,,,,,,,,,,,,,,,,,237.0,1.0,,,,,,,,,,,,,,,
250,,iti,,html-keyboard-response,250,154365,0.0-1.0-42.0-0.0-5.0,0,0,31921,,,,,,,,,,,,,,,,,,,,,,,,,,,,,240.0,3.0,,,,,,,,,,,,,,,
251,,choice,,html-keyboard-response,251,154864,0.0-1.0-43.0-0.0-0.0,0,0,31921,,495.0,,,68.0,41.0,341.0,1000.0,1000.0,0.0,6.0,1.0,40-60,0.0,,motorcycle,bench,60.0,40.0,motorcycle4,bench15,40.0,60.0,motorcycle46.jpg,Abench12.jpg,/static/Category_learning/Stimuli/Experimental_stims/motorcycle/motorcycle46.jpg,/static/Category_learning/Stimuli/Experimental_stims/bench/Abench12.jpg,0.0,240.495,0.495,1.0,motorcycle,bench,60.0,40.0,motorcycle4,bench15,40.0,60.0,,,,,,
252,,confirmation,,html-keyboard-response,252,155876,0.0-1.0-43.0-0.0-1.0-0.0,0,0,31921,,,,,,41.0,,,,,,,,,,,,,,,,,,,,,,,241.5,1.005,,,,,,,,,,,,,,,
253,,isi,,html-keyboard-response,253,155982,0.0-1.0-43.0-0.0-2.0,0,0,31921,,,,,,,,,,,,,,,,,,,,,,,,,,,,,242.5,1.0,,,,,,,,,,,,,,,
254,,feedback,,html-keyboard-response,254,156985,0.0-1.0-43.0-0.0-3.0-0.0,0,0,31921,,,,,,41.0,,,,,,,,,,,,,,,,,,,,,,,243.5,1.0,,,,,,,,,,,,,,,
255,,iti,,html-keyboard-response,255,157090,0.0-1.0-43.0-0.0-5.0,0,0,31921,,,,,,,,,,,,,,,,,,,,,,,,,,,,,244.5,1.0,,,,,,,,,,,,,,,
256,,choice,,html-keyboard-response,256,157496,0.0-1.0-44.0-0.0-0.0,0,0,31921,,402.0,,,68.0,42.0,342.0,2000.0,1500.0,0.0,6.0,0.0,20-60,,1.0,lipstick,yarn,60.0,20.0,lipstick8,yarn15,80.0,40.0,P174215_hero.jpg,rainbowscarf-600x394.jpg,/static/Category_learning/Stimuli/Experimental_stims/lipstick/P174215_hero.jpg,/static/Category_learning/Stimuli/Experimental_stims/yarn/rainbowscarf-600x394.jpg,0.0,244.90200000000002,0.402,1.0,lipstick,yarn,60.0,20.0,lipstick8,yarn15,80.0,40.0,,,,,,
257,,confirmation,,html-keyboard-response,257,158602,0.0-1.0-44.0-0.0-1.0-0.0,0,0,31921,,,,,,42.0,,,,,,,,,,,,,,,,,,,,,,,246.0,1.0979999999999999,,,,,,,,,,,,,,,
258,,isi,,html-keyboard-response,258,158708,0.0-1.0-44.0-0.0-2.0,0,0,31921,,,,,,,,,,,,,,,,,,,,,,,,,,,,,248.0,2.0,,,,,,,,,,,,,,,
259,,feedback,,html-keyboard-response,259,159712,0.0-1.0-44.0-0.0-3.0-0.0,0,0,31921,,,,,,42.0,,,,,,,,,,,,,,,,,,,,,,,249.0,1.0,,,,,,,,,,,,,,,
260,,iti,,html-keyboard-response,260,159817,0.0-1.0-44.0-0.0-5.0,0,0,31921,,,,,,,,,,,,,,,,,,,,,,,,,,,,,250.5,1.5,,,,,,,,,,,,,,,
261,,choice,,html-keyboard-response,261,159909,0.0-1.0-45.0-0.0-0.0,0,0,31921,,89.0,,,75.0,43.0,343.0,1000.0,1500.0,0.0,6.0,1.0,60-80,0.0,,necklace,lipstick,80.0,60.0,necklace14,lipstick8,80.0,80.0,necklascenew05.jpg,P174215_hero.jpg,/static/Category_learning/Stimuli/Experimental_stims/necklace/necklascenew05.jpg,/static/Category_learning/Stimuli/Experimental_stims/lipstick/P174215_hero.jpg,0.0,250.58900000000003,0.08900000000000001,0.0,lipstick,necklace,60.0,80.0,lipstick8,necklace14,80.0,80.0,,,,,,
262,,confirmation,,html-keyboard-response,262,161326,0.0-1.0-45.0-0.0-1.0-0.0,0,0,31921,,,,,,43.0,,,,,,,,,,,,,,,,,,,,,,,252.0,1.411,,,,,,,,,,,,,,,
263,,isi,,html-keyboard-response,263,161433,0.0-1.0-45.0-0.0-2.0,0,0,31921,,,,,,,,,,,,,,,,,,,,,,,,,,,,,253.0,1.0,,,,,,,,,,,,,,,
264,,feedback,,html-keyboard-response,264,162438,0.0-1.0-45.0-0.0-3.0-0.0,0,0,31921,,,,,,43.0,,,,,,,,,,,,,,,,,,,,,,,254.0,1.0,,,,,,,,,,,,,,,
265,,iti,,html-keyboard-response,265,162543,0.0-1.0-45.0-0.0-5.0,0,0,31921,,,,,,,,,,,,,,,,,,,,,,,,,,,,,255.5,1.5,,,,,,,,,,,,,,,
266,,choice,,html-keyboard-response,266,162668,0.0-1.0-46.0-0.0-0.0,0,0,31921,,121.0,,,75.0,44.0,344.0,1000.0,2000.0,0.0,6.0,1.0,40-80,0.0,,patio lounge chair,dresser,80.0,40.0,patio lounge chair12,dresser13,80.0,60.0,rw-mendocinoultrachaisepc032-lg.jpg,ADRESSE70.jpg,/static/Category_learning/Stimuli/Experimental_stims/patio lounge chair/rw-mendocinoultrachaisepc032-lg.jpg,/static/Category_learning/Stimuli/Experimental_stims/dresser/ADRESSE70.jpg,0.0,255.62099999999998,0.121,0.0,dresser,patio lounge chair,40.0,80.0,dresser13,patio lounge chair12,60.0,80.0,,,,,,
267,,confirmation,,html-keyboard-response,267,164054,0.0-1.0-46.0-0.0-1.0-0.0,0,0,31921,,,,,,44.0,,,,,,,,,,,,,,,,,,,,,,,257.0,1.379,,,,,,,,,,,,,,,
268,,isi,,html-keyboard-response,268,164158,0.0-1.0-46.0-0.0-2.0,0,0,31921,,,,,,,,,,,,,,,,,,,,,,,,,,,,,258.0,1.0,,,,,,,,,,,,,,,
269,,feedback,,html-keyboard-response,269,165166,0.0-1.0-46.0-0.0-3.0-0.0,0,0,31921,,,,,,44.0,,,,,,,,,,,,,,,,,,,,,,,259.0,1.0,,,,,,,,,,,,,,,
270,,iti,,html-keyboard-response,270,165269,0.0-1.0-46.0-0.0-5.0,0,0,31921,,,,,,,,,,,,,,,,,,,,,,,,,,,,,261.0,2.0,,,,,,,,,,,,,,,
271,,choice,,html-keyboard-response,271,165430,0.0-1.0-47.0-0.0-0.0,0,0,31921,,158.0,,,68.0,45.0,345.0,2000.0,1000.0,0.0,6.0,0.0,20-60,,1.0,lipstick,yarn,60.0,20.0,lipstick15,yarn11,80.0,20.0,P9436_hero.jpg,Aballofpinky2.jpg,/static/Category_learning/Stimuli/Experimental_stims/lipstick/P9436_hero.jpg,/static/Category_learning/Stimuli/Experimental_stims/yarn/Aballofpinky2.jpg,0.0,261.158,0.158,1.0,lipstick,yarn,60.0,20.0,lipstick15,yarn11,80.0,20.0,,,,,,
272,,confirmation,,html-keyboard-response,272,166777,0.0-1.0-47.0-0.0-1.0-0.0,0,0,31921,,,,,,45.0,,,,,,,,,,,,,,,,,,,,,,,262.5,1.3419999999999999,,,,,,,,,,,,,,,
273,,isi,,html-keyboard-response,273,166884,0.0-1.0-47.0-0.0-2.0,0,0,31921,,,,,,,,,,,,,,,,,,,,,,,,,,,,,264.5,2.0,,,,,,,,,,,,,,,
274,,feedback,,html-keyboard-response,274,167892,0.0-1.0-47.0-0.0-3.0-0.0,0,0,31921,,,,,,45.0,,,,,,,,,,,,,,,,,,,,,,,265.5,1.0,,,,,,,,,,,,,,,
275,,iti,,html-keyboard-response,275,167999,0.0-1.0-47.0-0.0-5.0,0,0,31921,,,,,,,,,,,,,,,,,,,,,,,,,,,,,266.5,1.0,,,,,,,,,,,,,,,
276,,choice,,html-keyboard-response,276,168599,0.0-1.0-48.0-0.0-0.0,0,0,31921,,598.0,,,75.0,46.0,346.0,1500.0,1500.0,0.0,6.0,0.0,20-60,,1.0,motorcycle,trumpet,60.0,20.0,motorcycle7,trumpet11,40.0,40.0,MotoSmall.jpg,JUPITER+JTR604L.jpg,/static/Category_learning/Stimuli/Experimental_stims/motorcycle/MotoSmall.jpg,/static/Category_learning/Stimuli/Experimental_stims/trumpet/JUPITER+JTR604L.jpg,0.0,267.098,0.598,0.0,trumpet,motorcycle,20.0,60.0,trumpet11,motorcycle7,40.0,40.0,,,,,,
277,,confirmation,,html-keyboard-response,277,169509,0.0-1.0-48.0-0.0-1.0-0.0,0,0,31921,,,,,,46.0,,,,,,,,,,,,,,,,,,,,,,,268.0,0.902,,,,,,,,,,,,,,,
278,,isi,,html-keyboard-response,278,169615,0.0-1.0-48.0-0.0-2.0,0,0,31921,,,,,,,,,,,,,,,,,,,,,,,,,,,,,269.5,1.5,,,,,,,,,,,,,,,
279,,feedback,,html-keyboard-response,279,170622,0.0-1.0-48.0-0.0-3.0-0.0,0,0,31921,,,,,,46.0,,,,,,,,,,,,,,,,,,,,,,,270.5,1.0,,,,,,,,,,,,,,,
280,,iti,,html-keyboard-response,280,170730,0.0-1.0-48.0-0.0-5.0,0,0,31921,,,,,,,,,,,,,,,,,,,,,,,,,,,,,272.0,1.5,,,,,,,,,,,,,,,
281,,choice,,html-keyboard-response,281,171308,0.0-1.0-49.0-0.0-0.0,0,0,31921,,576.0,,,68.0,47.0,347.0,1500.0,1500.0,0.0,6.0,0.0,40-80,,1.0,pen,dresser,80.0,40.0,pen2,dresser2,80.0,40.0,Montblanc-Blu-Starwalker-BP copy.jpg,ADRESSE46.jpg,/static/Category_learning/Stimuli/Experimental_stims/pen/Montblanc-Blu-Starwalker-BP copy.jpg,/static/Category_learning/Stimuli/Experimental_stims/dresser/ADRESSE46.jpg,0.0,272.57599999999996,0.5760000000000001,1.0,pen,dresser,80.0,40.0,pen2,dresser2,80.0,40.0,,,,,,
282,,confirmation,,html-keyboard-response,282,172238,0.0-1.0-49.0-0.0-1.0-0.0,0,0,31921,,,,,,47.0,,,,,,,,,,,,,,,,,,,,,,,273.5,0.924,,,,,,,,,,,,,,,
283,,isi,,html-keyboard-response,283,172345,0.0-1.0-49.0-0.0-2.0,0,0,31921,,,,,,,,,,,,,,,,,,,,,,,,,,,,,275.0,1.5,,,,,,,,,,,,,,,
284,,feedback,,html-keyboard-response,284,173350,0.0-1.0-49.0-0.0-3.0-0.0,0,0,31921,,,,,,47.0,,,,,,,,,,,,,,,,,,,,,,,276.0,1.0,,,,,,,,,,,,,,,
285,,iti,,html-keyboard-response,285,173454,0.0-1.0-49.0-0.0-5.0,0,0,31921,,,,,,,,,,,,,,,,,,,,,,,,,,,,,277.5,1.5,,,,,,,,,,,,,,,
286,,choice,,html-keyboard-response,286,174959,0.0-1.0-50.0-0.0-0.0,0,0,31921,,,,,,48.0,348.0,2000.0,1000.0,0.0,6.0,0.0,40-80,,0.0,fan,pen,40.0,80.0,fan2,pen15,40.0,100.0,507349_sk_lg.jpg,pen04.jpg,/static/Category_learning/Stimuli/Experimental_stims/fan/507349_sk_lg.jpg,/static/Category_learning/Stimuli/Experimental_stims/pen/pen04.jpg,1.0,279.0,1.5,,,,,,,,,,,,,,,
287,,isi,,html-keyboard-response,287,175063,0.0-1.0-50.0-0.0-2.0,0,0,31921,,,,,,,,,,,,,,,,,,,,,,,,,,,,,281.0,2.0,,,,,,,,,,,,,,,
288,,no_response,,html-keyboard-response,288,176068,0.0-1.0-50.0-0.0-4.0-0.0,1,0,31921,,,,,,,,,,,,,,,,,,,,,,,,,,,,,282.0,1.0,,,,,,,,,,,,,,,
289,,iti,,html-keyboard-response,289,176190,0.0-1.0-50.0-0.0-5.0,0,0,31921,,,,,,,,,,,,,,,,,,,,,,,,,,,,,283.0,1.0,,,,,,,,,,,,,,,
290,,choice,,html-keyboard-response,290,176555,0.0-1.0-50.0-0.1-0.1,0,0,31921,,361.0,,,68.0,48.0,348.0,2000.0,1000.0,0.0,6.0,0.0,40-80,,0.0,fan,pen,40.0,80.0,fan2,pen15,40.0,100.0,507349_sk_lg.jpg,pen04.jpg,/static/Category_learning/Stimuli/Experimental_stims/fan/507349_sk_lg.jpg,/static/Category_learning/Stimuli/Experimental_stims/pen/pen04.jpg,0.0,283.361,0.361,1.0,fan,pen,40.0,80.0,fan2,pen15,40.0,100.0,,,,,,
291,,confirmation,,html-keyboard-response,291,177700,0.0-1.0-50.0-0.1-1.1-0.1,0,0,31921,,,,,,48.0,,,,,,,,,,,,,,,,,,,,,,,284.5,1.139,,,,,,,,,,,,,,,
292,,isi,,html-keyboard-response,292,177807,0.0-1.0-50.0-0.1-2.1,0,0,31921,,,,,,,,,,,,,,,,,,,,,,,,,,,,,286.5,2.0,,,,,,,,,,,,,,,
293,,feedback,,html-keyboard-response,293,178814,0.0-1.0-50.0-0.1-3.1-0.1,0,0,31921,,,,,,48.0,,,,,,,,,,,,,,,,,,,,,,,287.5,1.0,,,,,,,,,,,,,,,
294,,iti,,html-keyboard-response,294,178921,0.0-1.0-50.0-0.1-5.1,0,0,31921,,,,,,,,,,,,,,,,,,,,,,,,,,,,,289.0,1.5,,,,,,,,,,,,,,,
295,,choice,,html-keyboard-response,295,179187,0.0-1.0-51.0-0.0-0.0,0,0,31921,,262.0,,,75.0,49.0,349.0,1000.0,1000.0,0.0,6.0,0.0,40-60,,0.0,fan,motorcycle,40.0,60.0,fan11,motorcycle12,20.0,80.0,n_sf.jpg,motorcycle14.jpg,/static/Category_learning/Stimuli/Experimental_stims/fan/n_sf.jpg,/static/Category_learning/Stimuli/Experimental_stims/motorcycle/motorcycle14.jpg,0.0,289.262,0.262,0.0,motorcycle,fan,60.0,40.0,motorcycle12,fan11,80.0,20.0,,,,,,
296,,confirmation,,html-keyboard-response,296,180431,0.0-1.0-51.0-0.0-1.0-0.0,0,0,31921,,,,,,49.0,,,,,,,,,,,,,,,,,,,,,,,290.5,1.238,,,,,,,,,,,,,,,
297,,isi,,html-keyboard-response,297,180537,0.0-1.0-51.0-0.0-2.0,0,0,31921,,,,,,,,,,,,,,,,,,,,,,,,,,,,,291.5,1.0,,,,,,,,,,,,,,,
298,,feedback,,html-keyboard-response,298,181540,0.0-1.0-51.0-0.0-3.0-0.0,0,0,31921,,,,,,49.0,,,,,,,,,,,,,,,,,,,,,,,292.5,1.0,,,,,,,,,,,,,,,
299,,iti,,html-keyboard-response,299,181647,0.0-1.0-51.0-0.0-5.0,0,0,31921,,,,,,,,,,,,,,,,,,,,,,,,,,,,,293.5,1.0,,,,,,,,,,,,,,,
300,,choice,,html-keyboard-response,300,182727,0.0-1.0-52.0-0.0-0.0,0,0,31921,,1078.0,,,75.0,50.0,350.0,1000.0,3500.0,0.0,6.0,0.0,60-80,,0.0,lipstick,small table,60.0,80.0,lipstick7,small table15,60.0,80.0,P101401_hero.jpg,ATABLE20.jpg,/static/Category_learning/Stimuli/Experimental_stims/lipstick/P101401_hero.jpg,/static/Category_learning/Stimuli/Experimental_stims/small table/ATABLE20.jpg,0.0,294.578,1.078,0.0,small table,lipstick,80.0,60.0,small table15,lipstick7,80.0,60.0,,,,,,
301,,confirmation,,html-keyboard-response,301,183156,0.0-1.0-52.0-0.0-1.0-0.0,0,0,31921,,,,,,50.0,,,,,,,,,,,,,,,,,,,,,,,295.0,0.42200000000000004,,,,,,,,,,,,,,,
302,,isi,,html-keyboard-response,302,183262,0.0-1.0-52.0-0.0-2.0,0,0,31921,,,,,,,,,,,,,,,,,,,,,,,,,,,,,296.0,1.0,,,,,,,,,,,,,,,
303,,feedback,,html-keyboard-response,303,184267,0.0-1.0-52.0-0.0-3.0-0.0,0,0,31921,,,,,,50.0,,,,,,,,,,,,,,,,,,,,,,,297.0,1.0,,,,,,,,,,,,,,,
304,,iti,,html-keyboard-response,304,184371,0.0-1.0-52.0-0.0-5.0,0,0,31921,,,,,,,,,,,,,,,,,,,,,,,,,,,,,300.5,3.5,,,,,,,,,,,,,,,
305,,choice,,html-keyboard-response,305,184554,0.0-1.0-53.0-0.0-0.0,0,0,31921,,181.0,,,68.0,51.0,351.0,1000.0,1000.0,0.0,6.0,1.0,80-80,1.0,,small table,small table,80.0,80.0,small table15,small table6,80.0,100.0,ATABLE20.jpg,ATABLE88.jpg,/static/Category_learning/Stimuli/Experimental_stims/small table/ATABLE20.jpg,/static/Category_learning/Stimuli/Experimental_stims/small table/ATABLE88.jpg,0.0,300.681,0.18100000000000002,1.0,small table,small table,80.0,80.0,small table15,small table6,80.0,100.0,,,,,,
306,,confirmation,,html-keyboard-response,306,185881,0.0-1.0-53.0-0.0-1.0-0.0,0,0,31921,,,,,,51.0,,,,,,,,,,,,,,,,,,,,,,,302.0,1.319,,,,,,,,,,,,,,,
307,,isi,,html-keyboard-response,307,185988,0.0-1.0-53.0-0.0-2.0,0,0,31921,,,,,,,,,,,,,,,,,,,,,,,,,,,,,303.0,1.0,,,,,,,,,,,,,,,
308,,feedback,,html-keyboard-response,308,186994,0.0-1.0-53.0-0.0-3.0-0.0,0,0,31921,,,,,,51.0,,,,,,,,,,,,,,,,,,,,,,,304.0,1.0,,,,,,,,,,,,,,,
309,,iti,,html-keyboard-response,309,187100,0.0-1.0-53.0-0.0-5.0,0,0,31921,,,,,,,,,,,,,,,,,,,,,,,,,,,,,305.0,1.0,,,,,,,,,,,,,,,
310,,choice,,html-keyboard-response,310,187422,0.0-1.0-54.0-0.0-0.0,0,0,31921,,319.0,,,75.0,52.0,352.0,2000.0,1500.0,0.0,6.0,0.0,20-60,,1.0,lipstick,trumpet,60.0,20.0,lipstick14,trumpet6,80.0,0.0,P109907_hero.jpg,JUP416S.JPG,/static/Category_learning/Stimuli/Experimental_stims/lipstick/P109907_hero.jpg,/static/Category_learning/Stimuli/Experimental_stims/trumpet/JUP416S.JPG,0.0,305.319,0.319,0.0,trumpet,lipstick,20.0,60.0,trumpet6,lipstick14,0.0,80.0,,,,,,
311,,confirmation,,html-keyboard-response,311,188606,0.0-1.0-54.0-0.0-1.0-0.0,0,0,31921,,,,,,52.0,,,,,,,,,,,,,,,,,,,,,,,306.5,1.181,,,,,,,,,,,,,,,
312,,isi,,html-keyboard-response,312,188714,0.0-1.0-54.0-0.0-2.0,0,0,31921,,,,,,,,,,,,,,,,,,,,,,,,,,,,,308.5,2.0,,,,,,,,,,,,,,,
313,,feedback,,html-keyboard-response,313,189721,0.0-1.0-54.0-0.0-3.0-0.0,0,0,31921,,,,,,52.0,,,,,,,,,,,,,,,,,,,,,,,309.5,1.0,,,,,,,,,,,,,,,
314,,iti,,html-keyboard-response,314,189828,0.0-1.0-54.0-0.0-5.0,0,0,31921,,,,,,,,,,,,,,,,,,,,,,,,,,,,,311.0,1.5,,,,,,,,,,,,,,,
315,,choice,,html-keyboard-response,315,189880,0.0-1.0-55.0-0.0-0.0,0,0,31921,,49.0,,,75.0,53.0,353.0,1000.0,1500.0,0.0,6.0,1.0,20-20,1.0,,trumpet,trumpet,20.0,20.0,trumpet6,trumpet11,0.0,40.0,JUP416S.JPG,JUPITER+JTR604L.jpg,/static/Category_learning/Stimuli/Experimental_stims/trumpet/JUP416S.JPG,/static/Category_learning/Stimuli/Experimental_stims/trumpet/JUPITER+JTR604L.jpg,0.0,311.04900000000004,0.049,0.0,trumpet,trumpet,20.0,20.0,trumpet11,trumpet6,40.0,0.0,,,,,,
316,,confirmation,,html-keyboard-response,316,191339,0.0-1.0-55.0-0.0-1.0-0.0,0,0,31921,,,,,,53.0,,,,,,,,,,,,,,,,,,,,,,,312.5,1.4509999999999998,,,,,,,,,,,,,,,
317,,isi,,html-keyboard-response,317,191444,0.0-1.0-55.0-0.0-2.0,0,0,31921,,,,,,,,,,,,,,,,,,,,,,,,,,,,,313.5,1.0,,,,,,,,,,,,,,,
318,,feedback,,html-keyboard-response,318,192450,0.0-1.0-55.0-0.0-3.0-0.0,0,0,31921,,,,,,53.0,,,,,,,,,,,,,,,,,,,,,,,314.5,1.0,,,,,,,,,,,,,,,
319,,iti,,html-keyboard-response,319,192556,0.0-1.0-55.0-0.0-5.0,0,0,31921,,,,,,,,,,,,,,,,,,,,,,,,,,,,,316.0,1.5,,,,,,,,,,,,,,,
320,,choice,,html-keyboard-response,320,193286,0.0-1.0-56.0-0.0-0.0,0,0,31921,,727.0,,,75.0,54.0,354.0,1000.0,2000.0,0.0,6.0,0.0,20-60,,1.0,motorcycle,watch,60.0,20.0,motorcycle5,watch5,80.0,40.0,motorcycle101.jpg,B000GB0Q2K.01-A4LKQQKJ91IUZ._AA280_SCLZZZZZZZ_V66976251_.jpg,/static/Category_learning/Stimuli/Experimental_stims/motorcycle/motorcycle101.jpg,/static/Category_learning/Stimuli/Experimental_stims/watch/B000GB0Q2K.01-A4LKQQKJ91IUZ._AA280_SCLZZZZZZZ_V66976251_.jpg,0.0,316.72700000000003,0.727,0.0,watch,motorcycle,20.0,60.0,watch5,motorcycle5,40.0,80.0,,,,,,
321,,confirmation,,html-keyboard-response,321,194067,0.0-1.0-56.0-0.0-1.0-0.0,0,0,31921,,,,,,54.0,,,,,,,,,,,,,,,,,,,,,,,317.5,0.773,,,,,,,,,,,,,,,
322,,isi,,html-keyboard-response,322,194170,0.0-1.0-56.0-0.0-2.0,0,0,31921,,,,,,,,,,,,,,,,,,,,,,,,,,,,,318.5,1.0,,,,,,,,,,,,,,,
323,,feedback,,html-keyboard-response,323,195177,0.0-1.0-56.0-0.0-3.0-0.0,0,0,31921,,,,,,54.0,,,,,,,,,,,,,,,,,,,,,,,319.5,1.0,,,,,,,,,,,,,,,
324,,iti,,html-keyboard-response,324,195284,0.0-1.0-56.0-0.0-5.0,0,0,31921,,,,,,,,,,,,,,,,,,,,,,,,,,,,,321.5,2.0,,,,,,,,,,,,,,,
325,,choice,,html-keyboard-response,325,195475,0.0-1.0-57.0-0.0-0.0,0,0,31921,,187.0,,,75.0,55.0,355.0,1500.0,3500.0,0.0,6.0,0.0,60-60,,,microscope,makeup compact,60.0,60.0,microscope12,makeup compact15,80.0,60.0,usbdigitalmicroscope1_small1.jpg,05086681402.jpg,/static/Category_learning/Stimuli/Experimental_stims/microscope/usbdigitalmicroscope1_small1.jpg,/static/Category_learning/Stimuli/Experimental_stims/makeup compact/05086681402.jpg,0.0,321.687,0.187,0.0,makeup compact,microscope,60.0,60.0,makeup compact15,microscope12,60.0,80.0,,,,,,
326,,confirmation,,html-keyboard-response,326,196795,0.0-1.0-57.0-0.0-1.0-0.0,0,0,31921,,,,,,55.0,,,,,,,,,,,,,,,,,,,,,,,323.0,1.3130000000000002,,,,,,,,,,,,,,,
327,,isi,,html-keyboard-response,327,196901,0.0-1.0-57.0-0.0-2.0,0,0,31921,,,,,,,,,,,,,,,,,,,,,,,,,,,,,324.5,1.5,,,,,,,,,,,,,,,
328,,feedback,,html-keyboard-response,328,197908,0.0-1.0-57.0-0.0-3.0-0.0,0,0,31921,,,,,,55.0,,,,,,,,,,,,,,,,,,,,,,,325.5,1.0,,,,,,,,,,,,,,,
329,,iti,,html-keyboard-response,329,198014,0.0-1.0-57.0-0.0-5.0,0,0,31921,,,,,,,,,,,,,,,,,,,,,,,,,,,,,329.0,3.5,,,,,,,,,,,,,,,
330,,choice,,html-keyboard-response,330,198663,0.0-1.0-58.0-0.0-0.0,0,0,31921,,646.0,,,75.0,56.0,356.0,1500.0,1000.0,0.0,6.0,0.0,20-80,,1.0,power strip,tape,80.0,20.0,power strip9,tape2,100.0,20.0,9ad9cb76-bc97-4f44-999c-27e7aa039743_400.jpg,Tape_Dispenser.jpg,/static/Category_learning/Stimuli/Experimental_stims/power strip/9ad9cb76-bc97-4f44-999c-27e7aa039743_400.jpg,/static/Category_learning/Stimuli/Experimental_stims/tape/Tape_Dispenser.jpg,0.0,329.64599999999996,0.6459999999999999,0.0,tape,power strip,20.0,80.0,tape2,power strip9,20.0,100.0,,,,,,
331,,confirmation,,html-keyboard-response,331,199524,0.0-1.0-58.0-0.0-1.0-0.0,0,0,31921,,,,,,56.0,,,,,,,,,,,,,,,,,,,,,,,330.5,0.8540000000000001,,,,,,,,,,,,,,,
332,,isi,,html-keyboard-response,332,199631,0.0-1.0-58.0-0.0-2.0,0,0,31921,,,,,,,,,,,,,,,,,,,,,,,,,,,,,332.0,1.5,,,,,,,,,,,,,,,
333,,feedback,,html-keyboard-response,333,200639,0.0-1.0-58.0-0.0-3.0-0.0,0,0,31921,,,,,,56.0,,,,,,,,,,,,,,,,,,,,,,,333.0,1.0,,,,,,,,,,,,,,,
334,,iti,,html-keyboard-response,334,200745,0.0-1.0-58.0-0.0-5.0,0,0,31921,,,,,,,,,,,,,,,,,,,,,,,,,,,,,334.0,1.0,,,,,,,,,,,,,,,
335,,choice,,html-keyboard-response,335,202250,0.0-1.0-59.0-0.0-0.0,0,0,31921,,,,,,57.0,357.0,2000.0,2000.0,0.0,6.0,0.0,20-40,,1.0,bongo,train,40.0,20.0,bongo10,train10,20.0,20.0,22945915.thl.jpg,train3.jpg,/static/Category_learning/Stimuli/Experimental_stims/bongo/22945915.thl.jpg,/static/Category_learning/Stimuli/Experimental_stims/train/train3.jpg,1.0,335.5,1.5,,,,,,,,,,,,,,,
336,,isi,,html-keyboard-response,336,202356,0.0-1.0-59.0-0.0-2.0,0,0,31921,,,,,,,,,,,,,,,,,,,,,,,,,,,,,337.5,2.0,,,,,,,,,,,,,,,
337,,no_response,,html-keyboard-response,337,203360,0.0-1.0-59.0-0.0-4.0-0.0,1,0,31921,,,,,,,,,,,,,,,,,,,,,,,,,,,,,338.5,1.0,,,,,,,,,,,,,,,
338,,iti,,html-keyboard-response,338,203481,0.0-1.0-59.0-0.0-5.0,0,0,31921,,,,,,,,,,,,,,,,,,,,,,,,,,,,,340.5,2.0,,,,,,,,,,,,,,,
339,,choice,,html-keyboard-response,339,203672,0.0-1.0-59.0-0.1-0.1,0,0,31921,,189.0,,,75.0,57.0,357.0,2000.0,2000.0,0.0,6.0,0.0,20-40,,1.0,bongo,train,40.0,20.0,bongo10,train10,20.0,20.0,22945915.thl.jpg,train3.jpg,/static/Category_learning/Stimuli/Experimental_stims/bongo/22945915.thl.jpg,/static/Category_learning/Stimuli/Experimental_stims/train/train3.jpg,0.0,340.689,0.18899999999999997,0.0,train,bongo,20.0,40.0,train10,bongo10,20.0,20.0,,,,,,
340,,confirmation,,html-keyboard-response,340,204991,0.0-1.0-59.0-0.1-1.1-0.1,0,0,31921,,,,,,57.0,,,,,,,,,,,,,,,,,,,,,,,342.0,1.311,,,,,,,,,,,,,,,
341,,isi,,html-keyboard-response,341,205097,0.0-1.0-59.0-0.1-2.1,0,0,31921,,,,,,,,,,,,,,,,,,,,,,,,,,,,,343.0,1.0,,,,,,,,,,,,,,,
342,,feedback,,html-keyboard-response,342,206105,0.0-1.0-59.0-0.1-3.1-0.1,0,0,31921,,,,,,57.0,,,,,,,,,,,,,,,,,,,,,,,344.0,1.0,,,,,,,,,,,,,,,
343,,iti,,html-keyboard-response,343,206212,0.0-1.0-59.0-0.1-5.1,0,0,31921,,,,,,,,,,,,,,,,,,,,,,,,,,,,,346.0,2.0,,,,,,,,,,,,,,,
344,,choice,,html-keyboard-response,344,206827,0.0-1.0-60.0-0.0-0.0,0,0,31921,,611.0,,,75.0,58.0,358.0,1500.0,1000.0,0.0,6.0,0.0,20-80,,0.0,tape,seashell,20.0,80.0,tape3,seashell7,0.0,100.0,ATAPEDIS7.jpg,seashell34.jpg,/static/Category_learning/Stimuli/Experimental_stims/tape/ATAPEDIS7.jpg,/static/Category_learning/Stimuli/Experimental_stims/seashell/seashell34.jpg,0.0,346.611,0.611,0.0,seashell,tape,80.0,20.0,seashell7,tape3,100.0,0.0,,,,,,
345,,confirmation,,html-keyboard-response,345,207723,0.0-1.0-60.0-0.0-1.0-0.0,0,0,31921,,,,,,58.0,,,,,,,,,,,,,,,,,,,,,,,347.5,0.889,,,,,,,,,,,,,,,
346,,isi,,html-keyboard-response,346,207829,0.0-1.0-60.0-0.0-2.0,0,0,31921,,,,,,,,,,,,,,,,,,,,,,,,,,,,,349.0,1.5,,,,,,,,,,,1.3,,,,
347,,final_tally,,html-keyboard-response,347,209801,0.0-2.0-0.0,0,0,31921,,1970.0,,,68.0,,,,,,,,,,,,,,,,,,,,,,,,,,,,,,,,,,,,,,,,
348,,category_memory_instructions,,instructions,348,211367,0.0-3.0-0.0,0,0,31921,"[{""page_index"":0,""viewing_time"":1148},{""page_index"":1,""viewing_time"":223},{""page_index"":2,""viewing_time"":172}]",1543.0,,,,,,,,,,,,,,,,,,,,,,,,,,,,,,,,,,,,,,,,,,,
349,,category_memory,,survey-text,349,216501,0.0-3.0-1.0-0.0,0,0,31921,,5131.0,"{""Q0"":""32""}",,,0.0,,,,,,,,,,,,,,,,,,,,,,,,,,,,,,,,,,,,desk,40.0,32.0,
350,,category_memory,,survey-text,350,217462,0.0-3.0-2.0-0.0,0,0,31921,,957.0,"{""Q0"":""1""}",,,1.0,,,,,,,,,,,,,,,,,,,,,,,,,,,,,,,,,,,,power strip,80.0,1.0,
351,,category_memory,,survey-text,351,218321,0.0-3.0-3.0-0.0,0,0,31921,,856.0,"{""Q0"":""1""}",,,2.0,,,,,,,,,,,,,,,,,,,,,,,,,,,,,,,,,,,,tent,20.0,1.0,
352,,category_memory,,survey-text,352,219309,0.0-3.0-4.0-0.0,0,0,31921,,984.0,"{""Q0"":""1""}",,,3.0,,,,,,,,,,,,,,,,,,,,,,,,,,,,,,,,,,,,dresser,40.0,1.0,
353,,category_memory,,survey-text,353,220115,0.0-3.0-5.0-0.0,0,0,31921,,803.0,"{""Q0"":""1""}",,,4.0,,,,,,,,,,,,,,,,,,,,,,,,,,,,,,,,,,,,poker card,80.0,1.0,
354,,category_memory,,survey-text,354,221267,0.0-3.0-6.0-0.0,0,0,31921,,1149.0,"{""Q0"":""1""}",,,5.0,,,,,,,,,,,,,,,,,,,,,,,,,,,,,,,,,,,,small table,80.0,1.0,
355,,category_memory,,survey-text,355,221825,0.0-3.0-7.0-0.0,0,0,31921,,555.0,"{""Q0"":""""}",,,6.0,,,,,,,,,,,,,,,,,,,,,,,,,,,,,,,,,,,,frame,60.0,,
356,,enter_reponse,,html-keyboard-response,356,222738,0.0-3.0-7.0-1.0-0.0,1,0,31921,,910.0,,,68.0,,,,,,,,,,,,,,,,,,,,,,,,,,,,,,,,,,,,,,,,1.0
357,,category_memory,,survey-text,357,223899,0.0-3.0-7.1-0.1,0,0,31921,,1158.0,"{""Q0"":""1""}",,,6.0,,,,,,,,,,,,,,,,,,,,,,,,,,,,,,,,,,,,frame,60.0,1.0,
358,,category_memory,,survey-text,358,224970,0.0-3.0-8.0-0.0,0,0,31921,,1068.0,"{""Q0"":""1""}",,,7.0,,,,,,,,,,,,,,,,,,,,,,,,,,,,,,,,,,,,seashell,80.0,1.0,
359,,category_memory,,survey-text,359,226187,0.0-3.0-9.0-0.0,0,0,31921,,1214.0,"{""Q0"":""1""}",,,8.0,,,,,,,,,,,,,,,,,,,,,,,,,,,,,,,,,,,,tape,20.0,1.0,
360,,category_memory,,survey-text,360,227604,0.0-3.0-10.0-0.0,0,0,31921,,1414.0,"{""Q0"":""1""}",,,9.0,,,,,,,,,,,,,,,,,,,,,,,,,,,,,,,,,,,,door knob,40.0,1.0,
361,,category_memory,,survey-text,361,228902,0.0-3.0-11.0-0.0,0,0,31921,,1295.0,"{""Q0"":""2""}",,,10.0,,,,,,,,,,,,,,,,,,,,,,,,,,,,,,,,,,,,trumpet,20.0,2.0,
362,,category_memory,,survey-text,362,229897,0.0-3.0-12.0-0.0,0,0,31921,,992.0,"{""Q0"":""1""}",,,11.0,,,,,,,,,,,,,,,,,,,,,,,,,,,,,,,,,,,,makeup compact,60.0,1.0,
363,,category_memory,,survey-text,363,230717,0.0-3.0-13.0-0.0,0,0,31921,,816.0,"{""Q0"":""1""}",,,12.0,,,,,,,,,,,,,,,,,,,,,,,,,,,,,,,,,,,,vase,20.0,1.0,
364,,category_memory,,survey-text,364,231519,0.0-3.0-14.0-0.0,0,0,31921,,799.0,"{""Q0"":""1""}",,,13.0,,,,,,,,,,,,,,,,,,,,,,,,,,,,,,,,,,,,patio lounge chair,80.0,1.0,
365,,category_memory,,survey-text,365,232256,0.0-3.0-15.0-0.0,0,0,31921,,734.0,"{""Q0"":""1""}",,,14.0,,,,,,,,,,,,,,,,,,,,,,,,,,,,,,,,,,,,train,20.0,1.0,
366,,category_memory,,survey-text,366,233008,0.0-3.0-16.0-0.0,0,0,31921,,748.0,"{""Q0"":""1""}",,,15.0,,,,,,,,,,,,,,,,,,,,,,,,,,,,,,,,,,,,nail polish,80.0,1.0,
367,,category_memory,,survey-text,367,233692,0.0-3.0-17.0-0.0,0,0,31921,,681.0,"{""Q0"":""1""}",,,16.0,,,,,,,,,,,,,,,,,,,,,,,,,,,,,,,,,,,,fan,40.0,1.0,
368,,category_memory,,survey-text,368,234412,0.0-3.0-18.0-0.0,0,0,31921,,716.0,"{""Q0"":""""}",,,17.0,,,,,,,,,,,,,,,,,,,,,,,,,,,,,,,,,,,,motorcycle,60.0,,
369,,enter_reponse,,html-keyboard-response,369,235537,0.0-3.0-18.0-1.0-0.0,1,0,31921,,1123.0,,,68.0,,,,,,,,,,,,,,,,,,,,,,,,,,,,,,,,,,,,,,,,1.0
370,,category_memory,,survey-text,370,236464,0.0-3.0-18.1-0.1,0,0,31921,,924.0,"{""Q0"":""1""}",,,17.0,,,,,,,,,,,,,,,,,,,,,,,,,,,,,,,,,,,,motorcycle,60.0,1.0,
371,,category_memory,,survey-text,371,237253,0.0-3.0-19.0-0.0,0,0,31921,,785.0,"{""Q0"":""1""}",,,18.0,,,,,,,,,,,,,,,,,,,,,,,,,,,,,,,,,,,,hammer,60.0,1.0,
372,,category_memory,,survey-text,372,237976,0.0-3.0-20.0-0.0,0,0,31921,,720.0,"{""Q0"":""1""}",,,19.0,,,,,,,,,,,,,,,,,,,,,,,,,,,,,,,,,,,,watch,20.0,1.0,
373,,category_memory,,survey-text,373,238677,0.0-3.0-21.0-0.0,0,0,31921,,698.0,"{""Q0"":""1""}",,,20.0,,,,,,,,,,,,,,,,,,,,,,,,,,,,,,,,,,,,baby carriage,40.0,1.0,
374,,category_memory,,survey-text,374,239379,0.0-3.0-22.0-0.0,0,0,31921,,698.0,"{""Q0"":""1""}",,,21.0,,,,,,,,,,,,,,,,,,,,,,,,,,,,,,,,,,,,key chain,60.0,1.0,
375,,category_memory,,survey-text,375,240281,0.0-3.0-23.0-0.0,0,0,31921,,899.0,"{""Q0"":""1""}",,,22.0,,,,,,,,,,,,,,,,,,,,,,,,,,,,,,,,,,,,stool,20.0,1.0,
376,,category_memory,,survey-text,376,241000,0.0-3.0-24.0-0.0,0,0,31921,,716.0,"{""Q0"":""1""}",,,23.0,,,,,,,,,,,,,,,,,,,,,,,,,,,,,,,,,,,,flashlight,40.0,1.0,
377,,category_memory,,survey-text,377,241769,0.0-3.0-25.0-0.0,0,0,31921,,766.0,"{""Q0"":""1""}",,,24.0,,,,,,,,,,,,,,,,,,,,,,,,,,,,,,,,,,,,bench,40.0,1.0,
378,,category_memory,,survey-text,378,242517,0.0-3.0-26.0-0.0,0,0,31921,,745.0,"{""Q0"":""1""}",,,25.0,,,,,,,,,,,,,,,,,,,,,,,,,,,,,,,,,,,,lipstick,60.0,1.0,
379,,category_memory,,survey-text,379,243237,0.0-3.0-27.0-0.0,0,0,31921,,716.0,"{""Q0"":""1""}",,,26.0,,,,,,,,,,,,,,,,,,,,,,,,,,,,,,,,,,,,sofa,80.0,1.0,
380,,category_memory,,survey-text,380,243923,0.0-3.0-28.0-0.0,0,0,31921,,683.0,"{""Q0"":""1""}",,,27.0,,,,,,,,,,,,,,,,,,,,,,,,,,,,,,,,,,,,pen,80.0,1.0,
381,,category_memory,,survey-text,381,244625,0.0-3.0-29.0-0.0,0,0,31921,,699.0,"{""Q0"":""1""}",,,28.0,,,,,,,,,,,,,,,,,,,,,,,,,,,,,,,,,,,,telescope,20.0,1.0,
382,,category_memory,,survey-text,382,245428,0.0-3.0-30.0-0.0,0,0,31921,,800.0,"{""Q0"":""1""}",,,29.0,,,,,,,,,,,,,,,,,,,,,,,,,,,,,,,,,,,,hat,60.0,1.0,
383,,category_memory,,survey-text,383,246112,0.0-3.0-31.0-0.0,0,0,31921,,680.0,"{""Q0"":""1""}",,,30.0,,,,,,,,,,,,,,,,,,,,,,,,,,,,,,,,,,,,necklace,80.0,1.0,
384,,category_memory,,survey-text,384,246928,0.0-3.0-32.0-0.0,0,0,31921,,813.0,"{""Q0"":""1""}",,,31.0,,,,,,,,,,,,,,,,,,,,,,,,,,,,,,,,,,,,bowl,40.0,1.0,
385,,category_memory,,survey-text,385,247664,0.0-3.0-33.0-0.0,0,0,31921,,733.0,"{""Q0"":""1""}",,,32.0,,,,,,,,,,,,,,,,,,,,,,,,,,,,,,,,,,,,microscope,60.0,1.0,
386,,category_memory,,survey-text,386,248548,0.0-3.0-34.0-0.0,0,0,31921,,881.0,"{""Q0"":""1""}",,,33.0,,,,,,,,,,,,,,,,,,,,,,,,,,,,,,,,,,,,license plate,60.0,1.0,
387,,category_memory,,survey-text,387,250374,0.0-3.0-35.0-0.0,0,0,31921,,1823.0,"{""Q0"":""1""}",,,34.0,,,,,,,,,,,,,,,,,,,,,,,,,,,,,,,,,,,,yarn,20.0,1.0,
388,,category_memory,,survey-text,388,251433,0.0-3.0-36.0-0.0,0,0,31921,,1055.0,"{""Q0"":""1""}",,,35.0,,,,,,,,,,,,,,,,,,,,,,,,,,,,,,,,,,,,bongo,40.0,1.0,
