,success,ttype,start_time,trial_type,trial_index,time_elapsed,internal_node_id,warning,missed_checkup,PID,view_history,rt,responses,repeat_instructions,key_press,index,trial_num,isi,iti,is_practice,block,old_trial,pair_type,within_category,high_cat_on_left,left_category,right_category,left_category_value,right_category_value,left_exemplar,right_exemplar,left_exemplar_value,right_exemplar_value,left_img,right_img,left_img_path,right_img_path,left_chosen,chosen_category,unchosen_category,chosen_category_value,unchosen_category_value,chosen_exemplar,unchosen_exemplar,chosen_exemplar_value,unchosen_exemplar_value,no_response,onset,duration,end_practice,total_bonus_tally,category,category_group_value,category_value_response
0,True,full_screen,d05182022hr1911,fullscreen,0,1964,0.0-0.0,0,0,4,,,,,,,,,,,,,,,,,,,,,,,,,,,,,,,,,,,,,,,,,,,,
1,,category_learning_instructions,,instructions,1,4623,0.0-1.0-0.0-0.0,0,0,4,"[{""page_index"":0,""viewing_time"":1080},{""page_index"":1,""viewing_time"":50},{""page_index"":2,""viewing_time"":260},{""page_index"":3,""viewing_time"":279},{""page_index"":4,""viewing_time"":321},{""page_index"":5,""viewing_time"":378},{""page_index"":6,""viewing_time"":288}]",2657.0,,,,,,,,,,,,,,,,,,,,,,,,,,,,,,,,,,,,,,,,,,
2,,category_learning_comprehension_check,,survey-multi-choice,2,12480,0.0-1.0-0.0-1.0,0,0,4,,7853.0,"{""Q0"":""True"",""Q1"":""True"",""Q2"":""Stay the same"",""Q3"":""pointer finger for left and middle finger for right""}",0.0,,,,,,,,,,,,,,,,,,,,,,,,,,,,,,,,,,,,,,,,
3,,,,html-keyboard-response,3,13184,0.0-1.0-1.0,0,0,4,,700.0,,,50.0,,,,,,,,,,,,,,,,,,,,,,,,,,,,,,,,,,,,,,,
4,,choice,,html-keyboard-response,4,13799,0.0-1.0-2.0-0.0-0.0,0,0,4,,611.0,,,50.0,0.0,0.0,1500.0,1000.0,1.0,0.0,0.0,20-80,,0.0,bagel,dumbbell,20.0,80.0,bagel1,dumbbell1,0.0,80.0,bagels_pumpernickel_large.jpg,31B64EN68AL._AA280_.jpg,/static/Category_learning/Stimuli/Practice_stims/bagel/bagels_pumpernickel_large.jpg,/static/Category_learning/Stimuli/Practice_stims/dumbbell/31B64EN68AL._AA280_.jpg,1.0,bagel,dumbbell,20.0,80.0,bagel1,dumbbell1,0.0,80.0,0.0,0.611,0.611,,,,,
5,,confirmation,,html-keyboard-response,5,14694,0.0-1.0-2.0-0.0-1.0-0.0,0,0,4,,,,,,0.0,,,,,,,,,,,,,,,,,,,,,,,,,,,,,,,,1.5,0.889,,,,,
6,,isi,,html-keyboard-response,6,14801,0.0-1.0-2.0-0.0-2.0,0,0,4,,,,,,,,,,,,,,,,,,,,,,,,,,,,,,,,,,,,,,3.0,1.5,,,,,
7,,feedback,,html-keyboard-response,7,15806,0.0-1.0-2.0-0.0-3.0-0.0,0,0,4,,,,,,0.0,,,,,,,,,,,,,,,,,,,,,,,,,,,,,,,,4.0,1.0,,,,,
8,,iti,,html-keyboard-response,8,15909,0.0-1.0-2.0-0.0-5.0,0,0,4,,,,,,,,,,,,,,,,,,,,,,,,,,,,,,,,,,,,,,5.0,1.0,,,,,
9,,choice,,html-keyboard-response,9,16490,0.0-1.0-3.0-0.0-0.0,0,0,4,,577.0,,,50.0,1.0,1.0,3000.0,1500.0,1.0,0.0,0.0,20-40,,1.0,calculator,bagel,40.0,20.0,calculator2,bagel2,20.0,20.0,22829064.thl.jpg,bagels_cinnraisin_large.jpg,/static/Category_learning/Stimuli/Practice_stims/calculator/22829064.thl.jpg,/static/Category_learning/Stimuli/Practice_stims/bagel/bagels_cinnraisin_large.jpg,1.0,calculator,bagel,40.0,20.0,calculator2,bagel2,20.0,20.0,0.0,5.577000000000001,0.5770000000000001,,,,,
10,,confirmation,,html-keyboard-response,10,17416,0.0-1.0-3.0-0.0-1.0-0.0,0,0,4,,,,,,1.0,,,,,,,,,,,,,,,,,,,,,,,,,,,,,,,,6.5,0.9229999999999999,,,,,
11,,isi,,html-keyboard-response,11,17523,0.0-1.0-3.0-0.0-2.0,0,0,4,,,,,,,,,,,,,,,,,,,,,,,,,,,,,,,,,,,,,,9.5,3.0,,,,,
12,,feedback,,html-keyboard-response,12,18531,0.0-1.0-3.0-0.0-3.0-0.0,0,0,4,,,,,,1.0,,,,,,,,,,,,,,,,,,,,,,,,,,,,,,,,10.5,1.0,,,,,
13,,iti,,html-keyboard-response,13,18635,0.0-1.0-3.0-0.0-5.0,0,0,4,,,,,,,,,,,,,,,,,,,,,,,,,,,,,,,,,,,,,,12.0,1.5,,,,,
14,,choice,,html-keyboard-response,14,19228,0.0-1.0-4.0-0.0-0.0,0,0,4,,590.0,,,51.0,2.0,2.0,2000.0,3000.0,1.0,0.0,0.0,60-80,,0.0,clock,dumbbell,60.0,80.0,clock2,dumbbell2,60.0,100.0,26373355.thl.jpg,31K8MR6TMBL._SS500_.jpg,/static/Category_learning/Stimuli/Practice_stims/clock/26373355.thl.jpg,/static/Category_learning/Stimuli/Practice_stims/dumbbell/31K8MR6TMBL._SS500_.jpg,0.0,dumbbell,clock,80.0,60.0,dumbbell2,clock2,100.0,60.0,0.0,12.59,0.59,,,,,
15,,confirmation,,html-keyboard-response,15,20145,0.0-1.0-4.0-0.0-1.0-0.0,0,0,4,,,,,,2.0,,,,,,,,,,,,,,,,,,,,,,,,,,,,,,,,13.5,0.91,,,,,
16,,isi,,html-keyboard-response,16,20252,0.0-1.0-4.0-0.0-2.0,0,0,4,,,,,,,,,,,,,,,,,,,,,,,,,,,,,,,,,,,,,,15.5,2.0,,,,,
17,,feedback,,html-keyboard-response,17,21257,0.0-1.0-4.0-0.0-3.0-0.0,0,0,4,,,,,,2.0,,,,,,,,,,,,,,,,,,,,,,,,,,,,,,,,16.5,1.0,,,,,
18,,iti,,html-keyboard-response,18,21365,0.0-1.0-4.0-0.0-5.0,0,0,4,,,,,,,,,,,,,,,,,,,,,,,,,,,,,,,,,,,,,,19.5,3.0,,,,,
19,,choice,,html-keyboard-response,19,22125,0.0-1.0-5.0-0.0-0.0,0,0,4,,758.0,,,50.0,3.0,3.0,1000.0,2000.0,1.0,0.0,0.0,40-80,,0.0,calculator,clock,40.0,60.0,calculator1,clock1,40.0,40.0,22829184.thl.jpg,Aalarmclock2.jpg,/static/Category_learning/Stimuli/Practice_stims/calculator/22829184.thl.jpg,/static/Category_learning/Stimuli/Practice_stims/clock/Aalarmclock2.jpg,1.0,calculator,clock,40.0,60.0,calculator1,clock1,40.0,40.0,0.0,20.258,0.758,,,,,
20,,confirmation,,html-keyboard-response,20,22876,0.0-1.0-5.0-0.0-1.0-0.0,0,0,4,,,,,,3.0,,,,,,,,,,,,,,,,,,,,,,,,,,,,,,,,21.0,0.742,,,,,
21,,isi,,html-keyboard-response,21,22983,0.0-1.0-5.0-0.0-2.0,0,0,4,,,,,,,,,,,,,,,,,,,,,,,,,,,,,,,,,,,,,,22.0,1.0,,,,,
22,,feedback,,html-keyboard-response,22,23990,0.0-1.0-5.0-0.0-3.0-0.0,0,0,4,,,,,,3.0,,,,,,,,,,,,,,,,,,,,,,,,,,,,,,,,23.0,1.0,,,,,
23,,iti,,html-keyboard-response,23,24095,0.0-1.0-5.0-0.0-5.0,0,0,4,,,,,,,,,,,,,,,,,,,,,,,,,,,,,,,,,,,,,,25.0,2.0,,,,,
24,,choice,,html-keyboard-response,24,25571,0.0-1.0-6.0-0.0-0.0,0,0,4,,1473.0,,,50.0,4.0,4.0,2500.0,2500.0,1.0,0.0,0.0,20-60,,1.0,dumbbell,bagel,80.0,20.0,dumbbell3,bagel3,100.0,40.0,41K7QVRX50L._SS500_.jpg,photo-169.jpg,/static/Category_learning/Stimuli/Practice_stims/dumbbell/41K7QVRX50L._SS500_.jpg,/static/Category_learning/Stimuli/Practice_stims/bagel/photo-169.jpg,1.0,dumbbell,bagel,80.0,20.0,dumbbell3,bagel3,100.0,40.0,0.0,26.473000000000003,1.473,1.0,,,,
25,,confirmation,,html-keyboard-response,25,25602,0.0-1.0-6.0-0.0-1.0-0.0,0,0,4,,,,,,4.0,,,,,,,,,,,,,,,,,,,,,,,,,,,,,,,,26.5,0.027000000000000003,,,,,
26,,isi,,html-keyboard-response,26,25705,0.0-1.0-6.0-0.0-2.0,0,0,4,,,,,,,,,,,,,,,,,,,,,,,,,,,,,,,,,,,,,,29.0,2.5,,,,,
27,,feedback,,html-keyboard-response,27,26713,0.0-1.0-6.0-0.0-3.0-0.0,0,0,4,,,,,,4.0,,,,,,,,,,,,,,,,,,,,,,,,,,,,,,,,30.0,1.0,,,,,
28,,iti,,html-keyboard-response,28,26819,0.0-1.0-6.0-0.0-5.0,0,0,4,,,,,,,,,,,,,,,,,,,,,,,,,,,,,,,,,,,,,,32.5,2.5,,,,,
29,,practice_over,,html-keyboard-response,29,28953,0.0-1.0-6.0-0.0-6.0-0.0,0,0,4,,2132.0,,,50.0,4.0,,,,,,,,,,,,,,,,,,,,,,,,,,,,,,,,,,,,,,
30,,start_run,,html-keyboard-response,30,30091,0.0-1.0-6.0-0.0-6.0-1.0,0,0,4,,1136.0,,,84.0,,,,,,,,,,,,,,,,,,,,,,,,,,,,,,,,,,,,,,,
31,,choice,,html-keyboard-response,31,30988,0.0-1.0-7.0-0.0-0.0,0,0,4,,893.0,,,51.0,5.0,5.0,3000.0,2000.0,0.0,1.0,0.0,40-40,,,license plate,hammer,40.0,40.0,license plate13,hammer11,60.0,60.0,usa-rj-9517.jpg,8oz-hammer-copy.jpg,/static/Category_learning/Stimuli/Experimental_stims/license plate/usa-rj-9517.jpg,/static/Category_learning/Stimuli/Experimental_stims/hammer/8oz-hammer-copy.jpg,0.0,hammer,license plate,40.0,40.0,hammer11,license plate13,60.0,60.0,0.0,0.893,0.893,,,,,
32,,confirmation,,html-keyboard-response,32,31598,0.0-1.0-7.0-0.0-1.0-0.0,0,0,4,,,,,,5.0,,,,,,,,,,,,,,,,,,,,,,,,,,,,,,,,1.5,0.607,,,,,
33,,isi,,html-keyboard-response,33,31705,0.0-1.0-7.0-0.0-2.0,0,0,4,,,,,,,,,,,,,,,,,,,,,,,,,,,,,,,,,,,,,,4.5,3.0,,,,,
34,,feedback,,html-keyboard-response,34,32711,0.0-1.0-7.0-0.0-3.0-0.0,0,0,4,,,,,,5.0,,,,,,,,,,,,,,,,,,,,,,,,,,,,,,,,5.5,1.0,,,,,
35,,iti,,html-keyboard-response,35,32814,0.0-1.0-7.0-0.0-5.0,0,0,4,,,,,,,,,,,,,,,,,,,,,,,,,,,,,,,,,,,,,,7.5,2.0,,,,,
36,,choice,,html-keyboard-response,36,33492,0.0-1.0-8.0-0.0-0.0,0,0,4,,674.0,,,50.0,6.0,6.0,1000.0,1000.0,0.0,1.0,0.0,20-60,,0.0,flashlight,poker card,20.0,60.0,flashlight9,poker card6,40.0,80.0,new06.jpg,22864212.thl.jpg,/static/Category_learning/Stimuli/Experimental_stims/flashlight/new06.jpg,/static/Category_learning/Stimuli/Experimental_stims/poker card/22864212.thl.jpg,1.0,flashlight,poker card,20.0,60.0,flashlight9,poker card6,40.0,80.0,0.0,8.174,0.674,,,,,
37,,confirmation,,html-keyboard-response,37,34326,0.0-1.0-8.0-0.0-1.0-0.0,0,0,4,,,,,,6.0,,,,,,,,,,,,,,,,,,,,,,,,,,,,,,,,9.0,0.826,,,,,
38,,isi,,html-keyboard-response,38,34434,0.0-1.0-8.0-0.0-2.0,0,0,4,,,,,,,,,,,,,,,,,,,,,,,,,,,,,,,,,,,,,,10.0,1.0,,,,,
39,,feedback,,html-keyboard-response,39,35439,0.0-1.0-8.0-0.0-3.0-0.0,0,0,4,,,,,,6.0,,,,,,,,,,,,,,,,,,,,,,,,,,,,,,,,11.0,1.0,,,,,
40,,iti,,html-keyboard-response,40,35545,0.0-1.0-8.0-0.0-5.0,0,0,4,,,,,,,,,,,,,,,,,,,,,,,,,,,,,,,,,,,,,,12.0,1.0,,,,,
41,,choice,,html-keyboard-response,41,36451,0.0-1.0-9.0-0.0-0.0,0,0,4,,904.0,,,50.0,7.0,7.0,1500.0,3500.0,0.0,1.0,0.0,60-60,,,seashell,nail polish,60.0,60.0,seashell7,nail polish6,60.0,60.0,seashell34.jpg,127_t.jpg,/static/Category_learning/Stimuli/Experimental_stims/seashell/seashell34.jpg,/static/Category_learning/Stimuli/Experimental_stims/nail polish/127_t.jpg,1.0,seashell,nail polish,60.0,60.0,seashell7,nail polish6,60.0,60.0,0.0,12.904000000000002,0.904,,,,,
42,,confirmation,,html-keyboard-response,42,37053,0.0-1.0-9.0-0.0-1.0-0.0,0,0,4,,,,,,7.0,,,,,,,,,,,,,,,,,,,,,,,,,,,,,,,,13.5,0.596,,,,,
43,,isi,,html-keyboard-response,43,37157,0.0-1.0-9.0-0.0-2.0,0,0,4,,,,,,,,,,,,,,,,,,,,,,,,,,,,,,,,,,,,,,15.0,1.5,,,,,
44,,feedback,,html-keyboard-response,44,38163,0.0-1.0-9.0-0.0-3.0-0.0,0,0,4,,,,,,7.0,,,,,,,,,,,,,,,,,,,,,,,,,,,,,,,,16.0,1.0,,,,,
45,,iti,,html-keyboard-response,45,38269,0.0-1.0-9.0-0.0-5.0,0,0,4,,,,,,,,,,,,,,,,,,,,,,,,,,,,,,,,,,,,,,19.5,3.5,,,,,
46,,choice,,html-keyboard-response,46,38852,0.0-1.0-10.0-0.0-0.0,0,0,4,,580.0,,,51.0,8.0,8.0,1500.0,1000.0,0.0,1.0,0.0,40-80,,1.0,telescope,hat,80.0,40.0,telescope3,hat5,100.0,60.0,41V67SB5NJL._SS500_.jpg,AREDHAT4.jpg,/static/Category_learning/Stimuli/Experimental_stims/telescope/41V67SB5NJL._SS500_.jpg,/static/Category_learning/Stimuli/Experimental_stims/hat/AREDHAT4.jpg,0.0,hat,telescope,40.0,80.0,hat5,telescope3,60.0,100.0,0.0,20.08,0.58,,,,,
47,,confirmation,,html-keyboard-response,47,39777,0.0-1.0-10.0-0.0-1.0-0.0,0,0,4,,,,,,8.0,,,,,,,,,,,,,,,,,,,,,,,,,,,,,,,,21.0,0.92,,,,,
48,,isi,,html-keyboard-response,48,39883,0.0-1.0-10.0-0.0-2.0,0,0,4,,,,,,,,,,,,,,,,,,,,,,,,,,,,,,,,,,,,,,22.5,1.5,,,,,
49,,feedback,,html-keyboard-response,49,40889,0.0-1.0-10.0-0.0-3.0-0.0,0,0,4,,,,,,8.0,,,,,,,,,,,,,,,,,,,,,,,,,,,,,,,,23.5,1.0,,,,,
50,,iti,,html-keyboard-response,50,40992,0.0-1.0-10.0-0.0-5.0,0,0,4,,,,,,,,,,,,,,,,,,,,,,,,,,,,,,,,,,,,,,24.5,1.0,,,,,
51,,choice,,html-keyboard-response,51,41783,0.0-1.0-11.0-0.0-0.0,0,0,4,,787.0,,,51.0,9.0,9.0,2000.0,3500.0,0.0,1.0,0.0,40-60,,1.0,power strip,makeup compact,60.0,40.0,power strip12,makeup compact1,80.0,60.0,41CXESEH1TL._AA262_.jpg,P190250_hero.jpg,/static/Category_learning/Stimuli/Experimental_stims/power strip/41CXESEH1TL._AA262_.jpg,/static/Category_learning/Stimuli/Experimental_stims/makeup compact/P190250_hero.jpg,0.0,makeup compact,power strip,40.0,60.0,makeup compact1,power strip12,60.0,80.0,0.0,25.287,0.787,,,,,
52,,confirmation,,html-keyboard-response,52,42503,0.0-1.0-11.0-0.0-1.0-0.0,0,0,4,,,,,,9.0,,,,,,,,,,,,,,,,,,,,,,,,,,,,,,,,26.0,0.713,,,,,
53,,isi,,html-keyboard-response,53,42609,0.0-1.0-11.0-0.0-2.0,0,0,4,,,,,,,,,,,,,,,,,,,,,,,,,,,,,,,,,,,,,,28.0,2.0,,,,,
54,,feedback,,html-keyboard-response,54,43612,0.0-1.0-11.0-0.0-3.0-0.0,0,0,4,,,,,,9.0,,,,,,,,,,,,,,,,,,,,,,,,,,,,,,,,29.0,1.0,,,,,
55,,iti,,html-keyboard-response,55,43719,0.0-1.0-11.0-0.0-5.0,0,0,4,,,,,,,,,,,,,,,,,,,,,,,,,,,,,,,,,,,,,,32.5,3.5,,,,,
56,,choice,,html-keyboard-response,56,44822,0.0-1.0-12.0-0.0-0.0,0,0,4,,1099.0,,,50.0,10.0,10.0,1500.0,3500.0,0.0,1.0,1.0,20-40,0.0,,hammer,flashlight,40.0,20.0,hammer11,flashlight9,60.0,40.0,8oz-hammer-copy.jpg,new06.jpg,/static/Category_learning/Stimuli/Experimental_stims/hammer/8oz-hammer-copy.jpg,/static/Category_learning/Stimuli/Experimental_stims/flashlight/new06.jpg,1.0,hammer,flashlight,40.0,20.0,hammer11,flashlight9,60.0,40.0,0.0,33.599000000000004,1.099,,,,,
57,,confirmation,,html-keyboard-response,57,45231,0.0-1.0-12.0-0.0-1.0-0.0,0,0,4,,,,,,10.0,,,,,,,,,,,,,,,,,,,,,,,,,,,,,,,,34.0,0.401,,,,,
58,,isi,,html-keyboard-response,58,45336,0.0-1.0-12.0-0.0-2.0,0,0,4,,,,,,,,,,,,,,,,,,,,,,,,,,,,,,,,,,,,,,35.5,1.5,,,,,
59,,feedback,,html-keyboard-response,59,46341,0.0-1.0-12.0-0.0-3.0-0.0,0,0,4,,,,,,10.0,,,,,,,,,,,,,,,,,,,,,,,,,,,,,,,,36.5,1.0,,,,,
60,,iti,,html-keyboard-response,60,46448,0.0-1.0-12.0-0.0-5.0,0,0,4,,,,,,,,,,,,,,,,,,,,,,,,,,,,,,,,,,,,,,40.0,3.5,,,,,
61,,choice,,html-keyboard-response,61,47410,0.0-1.0-13.0-0.0-0.0,0,0,4,,959.0,,,51.0,11.0,11.0,1500.0,1000.0,0.0,1.0,1.0,40-60,0.0,,hat,seashell,40.0,60.0,hat5,seashell7,60.0,60.0,AREDHAT4.jpg,seashell34.jpg,/static/Category_learning/Stimuli/Experimental_stims/hat/AREDHAT4.jpg,/static/Category_learning/Stimuli/Experimental_stims/seashell/seashell34.jpg,0.0,seashell,hat,60.0,40.0,seashell7,hat5,60.0,60.0,0.0,40.959,0.9590000000000001,,,,,
62,,confirmation,,html-keyboard-response,62,47954,0.0-1.0-13.0-0.0-1.0-0.0,0,0,4,,,,,,11.0,,,,,,,,,,,,,,,,,,,,,,,,,,,,,,,,41.5,0.541,,,,,
63,,isi,,html-keyboard-response,63,48059,0.0-1.0-13.0-0.0-2.0,0,0,4,,,,,,,,,,,,,,,,,,,,,,,,,,,,,,,,,,,,,,43.0,1.5,,,,,
64,,feedback,,html-keyboard-response,64,49064,0.0-1.0-13.0-0.0-3.0-0.0,0,0,4,,,,,,11.0,,,,,,,,,,,,,,,,,,,,,,,,,,,,,,,,44.0,1.0,,,,,
65,,iti,,html-keyboard-response,65,49168,0.0-1.0-13.0-0.0-5.0,0,0,4,,,,,,,,,,,,,,,,,,,,,,,,,,,,,,,,,,,,,,45.0,1.0,,,,,
66,,choice,,html-keyboard-response,66,49936,0.0-1.0-14.0-0.0-0.0,0,0,4,,765.0,,,51.0,12.0,12.0,2000.0,1000.0,0.0,1.0,0.0,40-60,,0.0,key chain,sofa,40.0,60.0,key chain13,sofa6,60.0,80.0,Fancy_Liquid_Column_Shape_Key_Ring_with_Floater.jpg,wilkie-sofa-250h-new-cd.jpg,/static/Category_learning/Stimuli/Experimental_stims/key chain/Fancy_Liquid_Column_Shape_Key_Ring_with_Floater.jpg,/static/Category_learning/Stimuli/Experimental_stims/sofa/wilkie-sofa-250h-new-cd.jpg,0.0,sofa,key chain,60.0,40.0,sofa6,key chain13,80.0,60.0,0.0,45.765,0.765,,,,,
67,,confirmation,,html-keyboard-response,67,50674,0.0-1.0-14.0-0.0-1.0-0.0,0,0,4,,,,,,12.0,,,,,,,,,,,,,,,,,,,,,,,,,,,,,,,,46.5,0.735,,,,,
68,,isi,,html-keyboard-response,68,50780,0.0-1.0-14.0-0.0-2.0,0,0,4,,,,,,,,,,,,,,,,,,,,,,,,,,,,,,,,,,,,,,48.5,2.0,,,,,
69,,feedback,,html-keyboard-response,69,51784,0.0-1.0-14.0-0.0-3.0-0.0,0,0,4,,,,,,12.0,,,,,,,,,,,,,,,,,,,,,,,,,,,,,,,,49.5,1.0,,,,,
70,,iti,,html-keyboard-response,70,51888,0.0-1.0-14.0-0.0-5.0,0,0,4,,,,,,,,,,,,,,,,,,,,,,,,,,,,,,,,,,,,,,50.5,1.0,,,,,
71,,choice,,html-keyboard-response,71,52832,0.0-1.0-15.0-0.0-0.0,0,0,4,,940.0,,,51.0,13.0,13.0,1000.0,1000.0,0.0,1.0,0.0,40-80,,1.0,stool,motorcycle,80.0,40.0,stool7,motorcycle7,80.0,20.0,ASTOOL25.jpg,MotoSmall.jpg,/static/Category_learning/Stimuli/Experimental_stims/stool/ASTOOL25.jpg,/static/Category_learning/Stimuli/Experimental_stims/motorcycle/MotoSmall.jpg,0.0,motorcycle,stool,40.0,80.0,motorcycle7,stool7,20.0,80.0,0.0,51.44,0.94,,,,,
72,,confirmation,,html-keyboard-response,72,53398,0.0-1.0-15.0-0.0-1.0-0.0,0,0,4,,,,,,13.0,,,,,,,,,,,,,,,,,,,,,,,,,,,,,,,,52.0,0.56,,,,,
73,,isi,,html-keyboard-response,73,53502,0.0-1.0-15.0-0.0-2.0,0,0,4,,,,,,,,,,,,,,,,,,,,,,,,,,,,,,,,,,,,,,53.0,1.0,,,,,
74,,feedback,,html-keyboard-response,74,54505,0.0-1.0-15.0-0.0-3.0-0.0,0,0,4,,,,,,13.0,,,,,,,,,,,,,,,,,,,,,,,,,,,,,,,,54.0,1.0,,,,,
75,,iti,,html-keyboard-response,75,54610,0.0-1.0-15.0-0.0-5.0,0,0,4,,,,,,,,,,,,,,,,,,,,,,,,,,,,,,,,,,,,,,55.0,1.0,,,,,
76,,choice,,html-keyboard-response,76,55215,0.0-1.0-16.0-0.0-0.0,0,0,4,,601.0,,,50.0,14.0,14.0,1500.0,1000.0,0.0,1.0,0.0,40-80,,1.0,tent,hat,80.0,40.0,tent1,hat13,100.0,20.0,Atent8.jpg,Ahatwithfeath.jpg,/static/Category_learning/Stimuli/Experimental_stims/tent/Atent8.jpg,/static/Category_learning/Stimuli/Experimental_stims/hat/Ahatwithfeath.jpg,1.0,tent,hat,80.0,40.0,tent1,hat13,100.0,20.0,0.0,55.601000000000006,0.601,,,,,
77,,confirmation,,html-keyboard-response,77,56120,0.0-1.0-16.0-0.0-1.0-0.0,0,0,4,,,,,,14.0,,,,,,,,,,,,,,,,,,,,,,,,,,,,,,,,56.5,0.899,,,,,
78,,isi,,html-keyboard-response,78,56225,0.0-1.0-16.0-0.0-2.0,0,0,4,,,,,,,,,,,,,,,,,,,,,,,,,,,,,,,,,,,,,,58.0,1.5,,,,,
79,,feedback,,html-keyboard-response,79,57232,0.0-1.0-16.0-0.0-3.0-0.0,0,0,4,,,,,,14.0,,,,,,,,,,,,,,,,,,,,,,,,,,,,,,,,59.0,1.0,,,,,
80,,iti,,html-keyboard-response,80,57335,0.0-1.0-16.0-0.0-5.0,0,0,4,,,,,,,,,,,,,,,,,,,,,,,,,,,,,,,,,,,,,,60.0,1.0,,,,,
81,,choice,,html-keyboard-response,81,58055,0.0-1.0-17.0-0.0-0.0,0,0,4,,717.0,,,51.0,15.0,15.0,2000.0,1000.0,0.0,1.0,0.0,60-80,,0.0,necklace,watch,60.0,80.0,necklace3,watch13,60.0,80.0,26388201.thl.jpg,RS_3104_lrg.jpg,/static/Category_learning/Stimuli/Experimental_stims/necklace/26388201.thl.jpg,/static/Category_learning/Stimuli/Experimental_stims/watch/RS_3104_lrg.jpg,0.0,watch,necklace,80.0,60.0,watch13,necklace3,80.0,60.0,0.0,60.717,0.7170000000000001,,,,,
82,,confirmation,,html-keyboard-response,82,58845,0.0-1.0-17.0-0.0-1.0-0.0,0,0,4,,,,,,15.0,,,,,,,,,,,,,,,,,,,,,,,,,,,,,,,,61.5,0.7829999999999999,,,,,
83,,isi,,html-keyboard-response,83,58949,0.0-1.0-17.0-0.0-2.0,0,0,4,,,,,,,,,,,,,,,,,,,,,,,,,,,,,,,,,,,,,,63.5,2.0,,,,,
84,,feedback,,html-keyboard-response,84,59954,0.0-1.0-17.0-0.0-3.0-0.0,0,0,4,,,,,,15.0,,,,,,,,,,,,,,,,,,,,,,,,,,,,,,,,64.5,1.0,,,,,
85,,iti,,html-keyboard-response,85,60057,0.0-1.0-17.0-0.0-5.0,0,0,4,,,,,,,,,,,,,,,,,,,,,,,,,,,,,,,,,,,,,,65.5,1.0,,,,,
86,,choice,,html-keyboard-response,86,60750,0.0-1.0-18.0-0.0-0.0,0,0,4,,691.0,,,50.0,16.0,16.0,3500.0,1000.0,0.0,1.0,1.0,60-80,0.0,,sofa,watch,60.0,80.0,sofa6,watch13,80.0,80.0,wilkie-sofa-250h-new-cd.jpg,RS_3104_lrg.jpg,/static/Category_learning/Stimuli/Experimental_stims/sofa/wilkie-sofa-250h-new-cd.jpg,/static/Category_learning/Stimuli/Experimental_stims/watch/RS_3104_lrg.jpg,1.0,sofa,watch,60.0,80.0,sofa6,watch13,80.0,80.0,0.0,66.191,0.691,,,,,
87,,confirmation,,html-keyboard-response,87,61565,0.0-1.0-18.0-0.0-1.0-0.0,0,0,4,,,,,,16.0,,,,,,,,,,,,,,,,,,,,,,,,,,,,,,,,67.0,0.809,,,,,
88,,isi,,html-keyboard-response,88,61669,0.0-1.0-18.0-0.0-2.0,0,0,4,,,,,,,,,,,,,,,,,,,,,,,,,,,,,,,,,,,,,,70.5,3.5,,,,,
89,,feedback,,html-keyboard-response,89,62677,0.0-1.0-18.0-0.0-3.0-0.0,0,0,4,,,,,,16.0,,,,,,,,,,,,,,,,,,,,,,,,,,,,,,,,71.5,1.0,,,,,
90,,iti,,html-keyboard-response,90,62784,0.0-1.0-18.0-0.0-5.0,0,0,4,,,,,,,,,,,,,,,,,,,,,,,,,,,,,,,,,,,,,,72.5,1.0,,,,,
91,,choice,,html-keyboard-response,91,63908,0.0-1.0-19.0-0.0-0.0,0,0,4,,1121.0,,,50.0,17.0,17.0,3500.0,2000.0,0.0,1.0,0.0,20-20,,,flashlight,bowl,20.0,20.0,flashlight5,bowl12,0.0,20.0,Streamlight-71001-Jr-Flashlight-W-batteries-black-B00018A3CG-L.jpg,Abowl52.jpg,/static/Category_learning/Stimuli/Experimental_stims/flashlight/Streamlight-71001-Jr-Flashlight-W-batteries-black-B00018A3CG-L.jpg,/static/Category_learning/Stimuli/Experimental_stims/bowl/Abowl52.jpg,1.0,flashlight,bowl,20.0,20.0,flashlight5,bowl12,0.0,20.0,0.0,73.62100000000001,1.121,,,,,
92,,confirmation,,html-keyboard-response,92,64291,0.0-1.0-19.0-0.0-1.0-0.0,0,0,4,,,,,,17.0,,,,,,,,,,,,,,,,,,,,,,,,,,,,,,,,74.0,0.379,,,,,
93,,isi,,html-keyboard-response,93,64396,0.0-1.0-19.0-0.0-2.0,0,0,4,,,,,,,,,,,,,,,,,,,,,,,,,,,,,,,,,,,,,,77.5,3.5,,,,,
94,,feedback,,html-keyboard-response,94,65404,0.0-1.0-19.0-0.0-3.0-0.0,0,0,4,,,,,,17.0,,,,,,,,,,,,,,,,,,,,,,,,,,,,,,,,78.5,1.0,,,,,
95,,iti,,html-keyboard-response,95,65509,0.0-1.0-19.0-0.0-5.0,0,0,4,,,,,,,,,,,,,,,,,,,,,,,,,,,,,,,,,,,,,,80.5,2.0,,,,,
96,,choice,,html-keyboard-response,96,66634,0.0-1.0-20.0-0.0-0.0,0,0,4,,1122.0,,,50.0,18.0,18.0,1500.0,1500.0,0.0,1.0,1.0,40-40,0.0,,motorcycle,makeup compact,40.0,40.0,motorcycle7,makeup compact1,20.0,60.0,MotoSmall.jpg,P190250_hero.jpg,/static/Category_learning/Stimuli/Experimental_stims/motorcycle/MotoSmall.jpg,/static/Category_learning/Stimuli/Experimental_stims/makeup compact/P190250_hero.jpg,1.0,motorcycle,makeup compact,40.0,40.0,motorcycle7,makeup compact1,20.0,60.0,0.0,81.622,1.122,,,,,
97,,confirmation,,html-keyboard-response,97,67018,0.0-1.0-20.0-0.0-1.0-0.0,0,0,4,,,,,,18.0,,,,,,,,,,,,,,,,,,,,,,,,,,,,,,,,82.0,0.37799999999999995,,,,,
98,,isi,,html-keyboard-response,98,67122,0.0-1.0-20.0-0.0-2.0,0,0,4,,,,,,,,,,,,,,,,,,,,,,,,,,,,,,,,,,,,,,83.5,1.5,,,,,
99,,feedback,,html-keyboard-response,99,68131,0.0-1.0-20.0-0.0-3.0-0.0,0,0,4,,,,,,18.0,,,,,,,,,,,,,,,,,,,,,,,,,,,,,,,,84.5,1.0,,,,,
100,,iti,,html-keyboard-response,100,68238,0.0-1.0-20.0-0.0-5.0,0,0,4,,,,,,,,,,,,,,,,,,,,,,,,,,,,,,,,,,,,,,86.0,1.5,,,,,
101,,choice,,html-keyboard-response,101,68991,0.0-1.0-21.0-0.0-0.0,0,0,4,,749.0,,,51.0,19.0,19.0,1000.0,2000.0,0.0,1.0,0.0,40-40,,,frame,license plate,40.0,40.0,frame8,license plate14,60.0,40.0,AFRAME154.jpg,fl-hel-bel.jpg,/static/Category_learning/Stimuli/Experimental_stims/frame/AFRAME154.jpg,/static/Category_learning/Stimuli/Experimental_stims/license plate/fl-hel-bel.jpg,0.0,license plate,frame,40.0,40.0,license plate14,frame8,40.0,60.0,0.0,86.749,0.7490000000000001,,,,,
102,,confirmation,,html-keyboard-response,102,69750,0.0-1.0-21.0-0.0-1.0-0.0,0,0,4,,,,,,19.0,,,,,,,,,,,,,,,,,,,,,,,,,,,,,,,,87.5,0.7509999999999999,,,,,
103,,isi,,html-keyboard-response,103,69856,0.0-1.0-21.0-0.0-2.0,0,0,4,,,,,,,,,,,,,,,,,,,,,,,,,,,,,,,,,,,,,,88.5,1.0,,,,,
104,,feedback,,html-keyboard-response,104,70860,0.0-1.0-21.0-0.0-3.0-0.0,0,0,4,,,,,,19.0,,,,,,,,,,,,,,,,,,,,,,,,,,,,,,,,89.5,1.0,,,,,
105,,iti,,html-keyboard-response,105,70967,0.0-1.0-21.0-0.0-5.0,0,0,4,,,,,,,,,,,,,,,,,,,,,,,,,,,,,,,,,,,,,,91.5,2.0,,,,,
106,,choice,,html-keyboard-response,106,71715,0.0-1.0-22.0-0.0-0.0,0,0,4,,745.0,,,51.0,20.0,20.0,1000.0,1000.0,0.0,1.0,0.0,20-80,,1.0,vase,desk,80.0,20.0,vase3,desk14,80.0,0.0,vase-006af-1.jpg,26419960.thl.jpg,/static/Category_learning/Stimuli/Experimental_stims/vase/vase-006af-1.jpg,/static/Category_learning/Stimuli/Experimental_stims/desk/26419960.thl.jpg,0.0,desk,vase,20.0,80.0,desk14,vase3,0.0,80.0,0.0,92.245,0.745,,,,,
107,,confirmation,,html-keyboard-response,107,72474,0.0-1.0-22.0-0.0-1.0-0.0,0,0,4,,,,,,20.0,,,,,,,,,,,,,,,,,,,,,,,,,,,,,,,,93.0,0.755,,,,,
108,,isi,,html-keyboard-response,108,72578,0.0-1.0-22.0-0.0-2.0,0,0,4,,,,,,,,,,,,,,,,,,,,,,,,,,,,,,,,,,,,,,94.0,1.0,,,,,
109,,feedback,,html-keyboard-response,109,73584,0.0-1.0-22.0-0.0-3.0-0.0,0,0,4,,,,,,20.0,,,,,,,,,,,,,,,,,,,,,,,,,,,,,,,,95.0,1.0,,,,,
110,,iti,,html-keyboard-response,110,73691,0.0-1.0-22.0-0.0-5.0,0,0,4,,,,,,,,,,,,,,,,,,,,,,,,,,,,,,,,,,,,,,96.0,1.0,,,,,
111,,choice,,html-keyboard-response,111,74541,0.0-1.0-23.0-0.0-0.0,0,0,4,,846.0,,,51.0,21.0,21.0,1500.0,2000.0,0.0,1.0,0.0,40-60,,1.0,power strip,frame,60.0,40.0,power strip5,frame1,40.0,20.0,93e4a283-bcd6-4ad1-8add-339658cda0fc_400.jpg,AFRAME127.jpg,/static/Category_learning/Stimuli/Experimental_stims/power strip/93e4a283-bcd6-4ad1-8add-339658cda0fc_400.jpg,/static/Category_learning/Stimuli/Experimental_stims/frame/AFRAME127.jpg,0.0,frame,power strip,40.0,60.0,frame1,power strip5,20.0,40.0,0.0,96.846,0.846,,,,,
112,,confirmation,,html-keyboard-response,112,75202,0.0-1.0-23.0-0.0-1.0-0.0,0,0,4,,,,,,21.0,,,,,,,,,,,,,,,,,,,,,,,,,,,,,,,,97.5,0.654,,,,,
113,,isi,,html-keyboard-response,113,75307,0.0-1.0-23.0-0.0-2.0,0,0,4,,,,,,,,,,,,,,,,,,,,,,,,,,,,,,,,,,,,,,99.0,1.5,,,,,
114,,feedback,,html-keyboard-response,114,76312,0.0-1.0-23.0-0.0-3.0-0.0,0,0,4,,,,,,21.0,,,,,,,,,,,,,,,,,,,,,,,,,,,,,,,,100.0,1.0,,,,,
115,,iti,,html-keyboard-response,115,76420,0.0-1.0-23.0-0.0-5.0,0,0,4,,,,,,,,,,,,,,,,,,,,,,,,,,,,,,,,,,,,,,102.0,2.0,,,,,
116,,choice,,html-keyboard-response,116,77285,0.0-1.0-24.0-0.0-0.0,0,0,4,,861.0,,,50.0,22.0,22.0,2000.0,1000.0,0.0,1.0,1.0,20-80,0.0,,tent,desk,80.0,20.0,tent1,desk14,100.0,0.0,Atent8.jpg,26419960.thl.jpg,/static/Category_learning/Stimuli/Experimental_stims/tent/Atent8.jpg,/static/Category_learning/Stimuli/Experimental_stims/desk/26419960.thl.jpg,1.0,tent,desk,80.0,20.0,tent1,desk14,100.0,0.0,0.0,102.861,0.861,,,,,
117,,confirmation,,html-keyboard-response,117,77932,0.0-1.0-24.0-0.0-1.0-0.0,0,0,4,,,,,,22.0,,,,,,,,,,,,,,,,,,,,,,,,,,,,,,,,103.5,0.639,,,,,
118,,isi,,html-keyboard-response,118,78039,0.0-1.0-24.0-0.0-2.0,0,0,4,,,,,,,,,,,,,,,,,,,,,,,,,,,,,,,,,,,,,,105.5,2.0,,,,,
119,,feedback,,html-keyboard-response,119,79042,0.0-1.0-24.0-0.0-3.0-0.0,0,0,4,,,,,,22.0,,,,,,,,,,,,,,,,,,,,,,,,,,,,,,,,106.5,1.0,,,,,
120,,iti,,html-keyboard-response,120,79146,0.0-1.0-24.0-0.0-5.0,0,0,4,,,,,,,,,,,,,,,,,,,,,,,,,,,,,,,,,,,,,,107.5,1.0,,,,,
121,,choice,,html-keyboard-response,121,79980,0.0-1.0-25.0-0.0-0.0,0,0,4,,831.0,,,50.0,23.0,23.0,1000.0,1000.0,0.0,1.0,0.0,40-60,,0.0,lipstick,small table,40.0,60.0,lipstick7,small table5,60.0,80.0,P101401_hero.jpg,Atable145.jpg,/static/Category_learning/Stimuli/Experimental_stims/lipstick/P101401_hero.jpg,/static/Category_learning/Stimuli/Experimental_stims/small table/Atable145.jpg,1.0,lipstick,small table,40.0,60.0,lipstick7,small table5,60.0,80.0,0.0,108.331,0.831,,,,,
122,,confirmation,,html-keyboard-response,122,80654,0.0-1.0-25.0-0.0-1.0-0.0,0,0,4,,,,,,23.0,,,,,,,,,,,,,,,,,,,,,,,,,,,,,,,,109.0,0.669,,,,,
123,,isi,,html-keyboard-response,123,80757,0.0-1.0-25.0-0.0-2.0,0,0,4,,,,,,,,,,,,,,,,,,,,,,,,,,,,,,,,,,,,,,110.0,1.0,,,,,
124,,feedback,,html-keyboard-response,124,81760,0.0-1.0-25.0-0.0-3.0-0.0,0,0,4,,,,,,23.0,,,,,,,,,,,,,,,,,,,,,,,,,,,,,,,,111.0,1.0,,,,,
125,,iti,,html-keyboard-response,125,81866,0.0-1.0-25.0-0.0-5.0,0,0,4,,,,,,,,,,,,,,,,,,,,,,,,,,,,,,,,,,,,,,112.0,1.0,,,,,
126,,choice,,html-keyboard-response,126,82617,0.0-1.0-26.0-0.0-0.0,0,0,4,,747.0,,,51.0,24.0,24.0,3000.0,1500.0,0.0,1.0,0.0,20-80,,1.0,yarn,bowl,80.0,20.0,yarn4,bowl6,60.0,20.0,amethyst dreaming boho hy sml.jpg,Abowl59.jpg,/static/Category_learning/Stimuli/Experimental_stims/yarn/amethyst dreaming boho hy sml.jpg,/static/Category_learning/Stimuli/Experimental_stims/bowl/Abowl59.jpg,0.0,bowl,yarn,20.0,80.0,bowl6,yarn4,20.0,60.0,0.0,112.74700000000001,0.747,,,,,
127,,confirmation,,html-keyboard-response,127,83373,0.0-1.0-26.0-0.0-1.0-0.0,0,0,4,,,,,,24.0,,,,,,,,,,,,,,,,,,,,,,,,,,,,,,,,113.5,0.753,,,,,
128,,isi,,html-keyboard-response,128,83476,0.0-1.0-26.0-0.0-2.0,0,0,4,,,,,,,,,,,,,,,,,,,,,,,,,,,,,,,,,,,,,,116.5,3.0,,,,,
129,,feedback,,html-keyboard-response,129,84482,0.0-1.0-26.0-0.0-3.0-0.0,0,0,4,,,,,,24.0,,,,,,,,,,,,,,,,,,,,,,,,,,,,,,,,117.5,1.0,,,,,
130,,iti,,html-keyboard-response,130,84585,0.0-1.0-26.0-0.0-5.0,0,0,4,,,,,,,,,,,,,,,,,,,,,,,,,,,,,,,,,,,,,,119.0,1.5,,,,,
131,,choice,,html-keyboard-response,131,85537,0.0-1.0-27.0-0.0-0.0,0,0,4,,948.0,,,51.0,25.0,25.0,1000.0,2000.0,0.0,1.0,0.0,80-80,,,watch,trumpet,80.0,80.0,watch10,trumpet9,100.0,80.0,HEU0102124_zoom.jpg,trumpet3.jpg,/static/Category_learning/Stimuli/Experimental_stims/watch/HEU0102124_zoom.jpg,/static/Category_learning/Stimuli/Experimental_stims/trumpet/trumpet3.jpg,0.0,trumpet,watch,80.0,80.0,trumpet9,watch10,80.0,100.0,0.0,119.948,0.948,,,,,
132,,confirmation,,html-keyboard-response,132,86092,0.0-1.0-27.0-0.0-1.0-0.0,0,0,4,,,,,,25.0,,,,,,,,,,,,,,,,,,,,,,,,,,,,,,,,120.5,0.552,,,,,
133,,isi,,html-keyboard-response,133,86197,0.0-1.0-27.0-0.0-2.0,0,0,4,,,,,,,,,,,,,,,,,,,,,,,,,,,,,,,,,,,,,,121.5,1.0,,,,,
134,,feedback,,html-keyboard-response,134,87204,0.0-1.0-27.0-0.0-3.0-0.0,0,0,4,,,,,,25.0,,,,,,,,,,,,,,,,,,,,,,,,,,,,,,,,122.5,1.0,,,,,
135,,iti,,html-keyboard-response,135,87309,0.0-1.0-27.0-0.0-5.0,0,0,4,,,,,,,,,,,,,,,,,,,,,,,,,,,,,,,,,,,,,,124.5,2.0,,,,,
136,,choice,,html-keyboard-response,136,88017,0.0-1.0-28.0-0.0-0.0,0,0,4,,704.0,,,50.0,26.0,26.0,2000.0,1000.0,0.0,1.0,1.0,40-40,0.0,,frame,lipstick,40.0,40.0,frame1,lipstick7,20.0,60.0,AFRAME127.jpg,P101401_hero.jpg,/static/Category_learning/Stimuli/Experimental_stims/frame/AFRAME127.jpg,/static/Category_learning/Stimuli/Experimental_stims/lipstick/P101401_hero.jpg,1.0,frame,lipstick,40.0,40.0,frame1,lipstick7,20.0,60.0,0.0,125.204,0.7040000000000001,,,,,
137,,confirmation,,html-keyboard-response,137,88819,0.0-1.0-28.0-0.0-1.0-0.0,0,0,4,,,,,,26.0,,,,,,,,,,,,,,,,,,,,,,,,,,,,,,,,126.0,0.7959999999999999,,,,,
138,,isi,,html-keyboard-response,138,88922,0.0-1.0-28.0-0.0-2.0,0,0,4,,,,,,,,,,,,,,,,,,,,,,,,,,,,,,,,,,,,,,128.0,2.0,,,,,
139,,feedback,,html-keyboard-response,139,89930,0.0-1.0-28.0-0.0-3.0-0.0,0,0,4,,,,,,26.0,,,,,,,,,,,,,,,,,,,,,,,,,,,,,,,,129.0,1.0,,,,,
140,,iti,,html-keyboard-response,140,90037,0.0-1.0-28.0-0.0-5.0,0,0,4,,,,,,,,,,,,,,,,,,,,,,,,,,,,,,,,,,,,,,130.0,1.0,,,,,
141,,choice,,html-keyboard-response,141,90827,0.0-1.0-29.0-0.0-0.0,0,0,4,,787.0,,,51.0,27.0,27.0,3000.0,1500.0,0.0,1.0,0.0,80-80,,,stool,yarn,80.0,80.0,stool12,yarn7,80.0,100.0,henrybar_stool1.jpg,herb garden hy smaller.jpg,/static/Category_learning/Stimuli/Experimental_stims/stool/henrybar_stool1.jpg,/static/Category_learning/Stimuli/Experimental_stims/yarn/herb garden hy smaller.jpg,0.0,yarn,stool,80.0,80.0,yarn7,stool12,100.0,80.0,0.0,130.787,0.787,,,,,
142,,confirmation,,html-keyboard-response,142,91547,0.0-1.0-29.0-0.0-1.0-0.0,0,0,4,,,,,,27.0,,,,,,,,,,,,,,,,,,,,,,,,,,,,,,,,131.5,0.713,,,,,
143,,isi,,html-keyboard-response,143,91654,0.0-1.0-29.0-0.0-2.0,0,0,4,,,,,,,,,,,,,,,,,,,,,,,,,,,,,,,,,,,,,,134.5,3.0,,,,,
144,,feedback,,html-keyboard-response,144,92659,0.0-1.0-29.0-0.0-3.0-0.0,0,0,4,,,,,,27.0,,,,,,,,,,,,,,,,,,,,,,,,,,,,,,,,135.5,1.0,,,,,
145,,iti,,html-keyboard-response,145,92766,0.0-1.0-29.0-0.0-5.0,0,0,4,,,,,,,,,,,,,,,,,,,,,,,,,,,,,,,,,,,,,,137.0,1.5,,,,,
146,,choice,,html-keyboard-response,146,93409,0.0-1.0-30.0-0.0-0.0,0,0,4,,640.0,,,51.0,28.0,28.0,2000.0,1500.0,0.0,1.0,0.0,40-60,,1.0,patio lounge chair,makeup compact,60.0,40.0,patio lounge chair6,makeup compact5,60.0,60.0,Lounge_Chair_with_Pillow.jpg,P109965_hero.jpg,/static/Category_learning/Stimuli/Experimental_stims/patio lounge chair/Lounge_Chair_with_Pillow.jpg,/static/Category_learning/Stimuli/Experimental_stims/makeup compact/P109965_hero.jpg,0.0,makeup compact,patio lounge chair,40.0,60.0,makeup compact5,patio lounge chair6,60.0,60.0,0.0,137.64,0.64,,,,,
147,,confirmation,,html-keyboard-response,147,94273,0.0-1.0-30.0-0.0-1.0-0.0,0,0,4,,,,,,28.0,,,,,,,,,,,,,,,,,,,,,,,,,,,,,,,,138.5,0.86,,,,,
148,,isi,,html-keyboard-response,148,94376,0.0-1.0-30.0-0.0-2.0,0,0,4,,,,,,,,,,,,,,,,,,,,,,,,,,,,,,,,,,,,,,140.5,2.0,,,,,
149,,feedback,,html-keyboard-response,149,95382,0.0-1.0-30.0-0.0-3.0-0.0,0,0,4,,,,,,28.0,,,,,,,,,,,,,,,,,,,,,,,,,,,,,,,,141.5,1.0,,,,,
150,,iti,,html-keyboard-response,150,95489,0.0-1.0-30.0-0.0-5.0,0,0,4,,,,,,,,,,,,,,,,,,,,,,,,,,,,,,,,,,,,,,143.0,1.5,,,,,
151,,choice,,html-keyboard-response,151,96086,0.0-1.0-31.0-0.0-0.0,0,0,4,,594.0,,,50.0,29.0,29.0,1000.0,3500.0,0.0,1.0,0.0,40-80,,0.0,license plate,tape,40.0,80.0,license plate12,tape7,20.0,80.0,TurtleLicensePlate.jpg,tape dispenser.jpg,/static/Category_learning/Stimuli/Experimental_stims/license plate/TurtleLicensePlate.jpg,/static/Category_learning/Stimuli/Experimental_stims/tape/tape dispenser.jpg,1.0,license plate,tape,40.0,80.0,license plate12,tape7,20.0,80.0,0.0,143.594,0.594,,,,,
152,,confirmation,,html-keyboard-response,152,96999,0.0-1.0-31.0-0.0-1.0-0.0,0,0,4,,,,,,29.0,,,,,,,,,,,,,,,,,,,,,,,,,,,,,,,,144.5,0.9059999999999999,,,,,
153,,isi,,html-keyboard-response,153,97104,0.0-1.0-31.0-0.0-2.0,0,0,4,,,,,,,,,,,,,,,,,,,,,,,,,,,,,,,,,,,,,,145.5,1.0,,,,,
154,,feedback,,html-keyboard-response,154,98109,0.0-1.0-31.0-0.0-3.0-0.0,0,0,4,,,,,,29.0,,,,,,,,,,,,,,,,,,,,,,,,,,,,,,,,146.5,1.0,,,,,
155,,iti,,html-keyboard-response,155,98216,0.0-1.0-31.0-0.0-5.0,0,0,4,,,,,,,,,,,,,,,,,,,,,,,,,,,,,,,,,,,,,,150.0,3.5,,,,,
156,,choice,,html-keyboard-response,156,99042,0.0-1.0-32.0-0.0-0.0,0,0,4,,824.0,,,51.0,30.0,30.0,1000.0,1000.0,0.0,1.0,0.0,20-80,,0.0,desk,yarn,20.0,80.0,desk10,yarn3,20.0,100.0,MEX028.jpg,Aballofblueya.jpg,/static/Category_learning/Stimuli/Experimental_stims/desk/MEX028.jpg,/static/Category_learning/Stimuli/Experimental_stims/yarn/Aballofblueya.jpg,0.0,yarn,desk,80.0,20.0,yarn3,desk10,100.0,20.0,0.0,150.82399999999998,0.8240000000000001,,,,,
157,,confirmation,,html-keyboard-response,157,99724,0.0-1.0-32.0-0.0-1.0-0.0,0,0,4,,,,,,30.0,,,,,,,,,,,,,,,,,,,,,,,,,,,,,,,,151.5,0.6759999999999999,,,,,
158,,isi,,html-keyboard-response,158,99827,0.0-1.0-32.0-0.0-2.0,0,0,4,,,,,,,,,,,,,,,,,,,,,,,,,,,,,,,,,,,,,,152.5,1.0,,,,,
159,,feedback,,html-keyboard-response,159,100830,0.0-1.0-32.0-0.0-3.0-0.0,0,0,4,,,,,,30.0,,,,,,,,,,,,,,,,,,,,,,,,,,,,,,,,153.5,1.0,,,,,
160,,iti,,html-keyboard-response,160,100937,0.0-1.0-32.0-0.0-5.0,0,0,4,,,,,,,,,,,,,,,,,,,,,,,,,,,,,,,,,,,,,,154.5,1.0,,,,,
161,,choice,,html-keyboard-response,161,102160,0.0-1.0-33.0-0.0-0.0,0,0,4,,1220.0,,,51.0,31.0,31.0,1500.0,3000.0,0.0,1.0,0.0,20-60,,0.0,fan,poker card,20.0,60.0,fan14,poker card15,40.0,40.0,124771_sk_lg.jpg,9816946.thl.jpg,/static/Category_learning/Stimuli/Experimental_stims/fan/124771_sk_lg.jpg,/static/Category_learning/Stimuli/Experimental_stims/poker card/9816946.thl.jpg,0.0,poker card,fan,60.0,20.0,poker card15,fan14,40.0,40.0,0.0,155.72,1.22,,,,,
162,,confirmation,,html-keyboard-response,162,102447,0.0-1.0-33.0-0.0-1.0-0.0,0,0,4,,,,,,31.0,,,,,,,,,,,,,,,,,,,,,,,,,,,,,,,,156.0,0.28,,,,,
163,,isi,,html-keyboard-response,163,102551,0.0-1.0-33.0-0.0-2.0,0,0,4,,,,,,,,,,,,,,,,,,,,,,,,,,,,,,,,,,,,,,157.5,1.5,,,,,
164,,feedback,,html-keyboard-response,164,103557,0.0-1.0-33.0-0.0-3.0-0.0,0,0,4,,,,,,31.0,,,,,,,,,,,,,,,,,,,,,,,,,,,,,,,,158.5,1.0,,,,,
165,,iti,,html-keyboard-response,165,103660,0.0-1.0-33.0-0.0-5.0,0,0,4,,,,,,,,,,,,,,,,,,,,,,,,,,,,,,,,,,,,,,161.5,3.0,,,,,
166,,choice,,html-keyboard-response,166,104263,0.0-1.0-34.0-0.0-0.0,0,0,4,,601.0,,,50.0,32.0,32.0,2000.0,2000.0,0.0,1.0,0.0,60-80,,0.0,nail polish,tape,60.0,80.0,nail polish11,tape10,80.0,60.0,Revlon_Super_Top_Speed_Chrome_Nail_Polish-resized200.jpg,26377601.thl.jpg,/static/Category_learning/Stimuli/Experimental_stims/nail polish/Revlon_Super_Top_Speed_Chrome_Nail_Polish-resized200.jpg,/static/Category_learning/Stimuli/Experimental_stims/tape/26377601.thl.jpg,1.0,nail polish,tape,60.0,80.0,nail polish11,tape10,80.0,60.0,0.0,162.101,0.601,,,,,
167,,confirmation,,html-keyboard-response,167,105166,0.0-1.0-34.0-0.0-1.0-0.0,0,0,4,,,,,,32.0,,,,,,,,,,,,,,,,,,,,,,,,,,,,,,,,163.0,0.899,,,,,
168,,isi,,html-keyboard-response,168,105269,0.0-1.0-34.0-0.0-2.0,0,0,4,,,,,,,,,,,,,,,,,,,,,,,,,,,,,,,,,,,,,,165.0,2.0,,,,,
169,,feedback,,html-keyboard-response,169,106275,0.0-1.0-34.0-0.0-3.0-0.0,0,0,4,,,,,,32.0,,,,,,,,,,,,,,,,,,,,,,,,,,,,,,,,166.0,1.0,,,,,
170,,iti,,html-keyboard-response,170,106380,0.0-1.0-34.0-0.0-5.0,0,0,4,,,,,,,,,,,,,,,,,,,,,,,,,,,,,,,,,,,,,,168.0,2.0,,,,,
171,,choice,,html-keyboard-response,171,107443,0.0-1.0-35.0-0.0-0.0,0,0,4,,1061.0,,,50.0,33.0,33.0,1000.0,1000.0,0.0,1.0,0.0,20-60,,0.0,baby carriage,power strip,20.0,60.0,baby carriage5,power strip11,20.0,40.0,Baby_Stroller.jpg,41Bw7Tl1G7L._AA262_.jpg,/static/Category_learning/Stimuli/Experimental_stims/baby carriage/Baby_Stroller.jpg,/static/Category_learning/Stimuli/Experimental_stims/power strip/41Bw7Tl1G7L._AA262_.jpg,1.0,baby carriage,power strip,20.0,60.0,baby carriage5,power strip11,20.0,40.0,0.0,169.06099999999998,1.061,,,,,
172,,confirmation,,html-keyboard-response,172,107887,0.0-1.0-35.0-0.0-1.0-0.0,0,0,4,,,,,,33.0,,,,,,,,,,,,,,,,,,,,,,,,,,,,,,,,169.5,0.439,,,,,
173,,isi,,html-keyboard-response,173,107991,0.0-1.0-35.0-0.0-2.0,0,0,4,,,,,,,,,,,,,,,,,,,,,,,,,,,,,,,,,,,,,,170.5,1.0,,,,,
174,,feedback,,html-keyboard-response,174,108997,0.0-1.0-35.0-0.0-3.0-0.0,0,0,4,,,,,,33.0,,,,,,,,,,,,,,,,,,,,,,,,,,,,,,,,171.5,1.0,,,,,
175,,iti,,html-keyboard-response,175,109104,0.0-1.0-35.0-0.0-5.0,0,0,4,,,,,,,,,,,,,,,,,,,,,,,,,,,,,,,,,,,,,,172.5,1.0,,,,,
176,,choice,,html-keyboard-response,176,109966,0.0-1.0-36.0-0.0-0.0,0,0,4,,859.0,,,51.0,34.0,34.0,3500.0,1500.0,0.0,1.0,0.0,20-20,,,dresser,fan,20.0,20.0,dresser6,fan4,40.0,0.0,ADRESSE96.jpg,AFAN39.jpg,/static/Category_learning/Stimuli/Experimental_stims/dresser/ADRESSE96.jpg,/static/Category_learning/Stimuli/Experimental_stims/fan/AFAN39.jpg,0.0,fan,dresser,20.0,20.0,fan4,dresser6,0.0,40.0,0.0,173.359,0.8590000000000001,,,,,
177,,confirmation,,html-keyboard-response,177,110615,0.0-1.0-36.0-0.0-1.0-0.0,0,0,4,,,,,,34.0,,,,,,,,,,,,,,,,,,,,,,,,,,,,,,,,174.0,0.6409999999999999,,,,,
178,,isi,,html-keyboard-response,178,110719,0.0-1.0-36.0-0.0-2.0,0,0,4,,,,,,,,,,,,,,,,,,,,,,,,,,,,,,,,,,,,,,177.5,3.5,,,,,
179,,feedback,,html-keyboard-response,179,111725,0.0-1.0-36.0-0.0-3.0-0.0,0,0,4,,,,,,34.0,,,,,,,,,,,,,,,,,,,,,,,,,,,,,,,,178.5,1.0,,,,,
180,,iti,,html-keyboard-response,180,111831,0.0-1.0-36.0-0.0-5.0,0,0,4,,,,,,,,,,,,,,,,,,,,,,,,,,,,,,,,,,,,,,180.0,1.5,,,,,
181,,choice,,html-keyboard-response,181,112457,0.0-1.0-37.0-0.0-0.0,0,0,4,,623.0,,,50.0,35.0,35.0,1500.0,1500.0,0.0,1.0,0.0,20-80,,1.0,vase,bowl,80.0,20.0,vase9,bowl2,80.0,40.0,Avasewithang2.jpg,AMIXBOWL2.jpg,/static/Category_learning/Stimuli/Experimental_stims/vase/Avasewithang2.jpg,/static/Category_learning/Stimuli/Experimental_stims/bowl/AMIXBOWL2.jpg,1.0,vase,bowl,80.0,20.0,vase9,bowl2,80.0,40.0,0.0,180.623,0.623,,,,,
182,,confirmation,,html-keyboard-response,182,113340,0.0-1.0-37.0-0.0-1.0-0.0,0,0,4,,,,,,35.0,,,,,,,,,,,,,,,,,,,,,,,,,,,,,,,,181.5,0.877,,,,,
183,,isi,,html-keyboard-response,183,113443,0.0-1.0-37.0-0.0-2.0,0,0,4,,,,,,,,,,,,,,,,,,,,,,,,,,,,,,,,,,,,,,183.0,1.5,,,,,
184,,feedback,,html-keyboard-response,184,114449,0.0-1.0-37.0-0.0-3.0-0.0,0,0,4,,,,,,35.0,,,,,,,,,,,,,,,,,,,,,,,,,,,,,,,,184.0,1.0,,,,,
185,,iti,,html-keyboard-response,185,114552,0.0-1.0-37.0-0.0-5.0,0,0,4,,,,,,,,,,,,,,,,,,,,,,,,,,,,,,,,,,,,,,185.5,1.5,,,,,
186,,choice,,html-keyboard-response,186,115258,0.0-1.0-38.0-0.0-0.0,0,0,4,,702.0,,,50.0,36.0,36.0,2000.0,1000.0,0.0,1.0,0.0,40-40,,,hammer,lipstick,40.0,40.0,hammer12,lipstick14,20.0,60.0,24oz hammer.jpg,P109907_hero.jpg,/static/Category_learning/Stimuli/Experimental_stims/hammer/24oz hammer.jpg,/static/Category_learning/Stimuli/Experimental_stims/lipstick/P109907_hero.jpg,1.0,hammer,lipstick,40.0,40.0,hammer12,lipstick14,20.0,60.0,0.0,186.202,0.7020000000000001,,,,,
187,,confirmation,,html-keyboard-response,187,116063,0.0-1.0-38.0-0.0-1.0-0.0,0,0,4,,,,,,36.0,,,,,,,,,,,,,,,,,,,,,,,,,,,,,,,,187.0,0.7979999999999999,,,,,
188,,isi,,html-keyboard-response,188,116171,0.0-1.0-38.0-0.0-2.0,0,0,4,,,,,,,,,,,,,,,,,,,,,,,,,,,,,,,,,,,,,,189.0,2.0,,,,,
189,,feedback,,html-keyboard-response,189,117177,0.0-1.0-38.0-0.0-3.0-0.0,0,0,4,,,,,,36.0,,,,,,,,,,,,,,,,,,,,,,,,,,,,,,,,190.0,1.0,,,,,
190,,iti,,html-keyboard-response,190,117284,0.0-1.0-38.0-0.0-5.0,0,0,4,,,,,,,,,,,,,,,,,,,,,,,,,,,,,,,,,,,,,,191.0,1.0,,,,,
191,,choice,,html-keyboard-response,191,117939,0.0-1.0-39.0-0.0-0.0,0,0,4,,651.0,,,51.0,37.0,37.0,3000.0,2000.0,0.0,1.0,1.0,40-40,1.0,,license plate,license plate,40.0,40.0,license plate14,license plate12,40.0,20.0,fl-hel-bel.jpg,TurtleLicensePlate.jpg,/static/Category_learning/Stimuli/Experimental_stims/license plate/fl-hel-bel.jpg,/static/Category_learning/Stimuli/Experimental_stims/license plate/TurtleLicensePlate.jpg,0.0,license plate,license plate,40.0,40.0,license plate12,license plate14,20.0,40.0,0.0,191.65099999999998,0.6509999999999999,,,,,
192,,confirmation,,html-keyboard-response,192,118792,0.0-1.0-39.0-0.0-1.0-0.0,0,0,4,,,,,,37.0,,,,,,,,,,,,,,,,,,,,,,,,,,,,,,,,192.5,0.8490000000000001,,,,,
193,,isi,,html-keyboard-response,193,118898,0.0-1.0-39.0-0.0-2.0,0,0,4,,,,,,,,,,,,,,,,,,,,,,,,,,,,,,,,,,,,,,195.5,3.0,,,,,
194,,feedback,,html-keyboard-response,194,119904,0.0-1.0-39.0-0.0-3.0-0.0,0,0,4,,,,,,37.0,,,,,,,,,,,,,,,,,,,,,,,,,,,,,,,,196.5,1.0,,,,,
195,,iti,,html-keyboard-response,195,120009,0.0-1.0-39.0-0.0-5.0,0,0,4,,,,,,,,,,,,,,,,,,,,,,,,,,,,,,,,,,,,,,198.5,2.0,,,,,
196,,choice,,html-keyboard-response,196,120737,0.0-1.0-40.0-0.0-0.0,0,0,4,,724.0,,,50.0,38.0,38.0,1500.0,3000.0,0.0,1.0,0.0,20-60,,1.0,poker card,door knob,60.0,20.0,poker card13,door knob14,80.0,20.0,9817197.thl.jpg,500_CLANYKAB.jpg,/static/Category_learning/Stimuli/Experimental_stims/poker card/9817197.thl.jpg,/static/Category_learning/Stimuli/Experimental_stims/door knob/500_CLANYKAB.jpg,1.0,poker card,door knob,60.0,20.0,poker card13,door knob14,80.0,20.0,0.0,199.22400000000002,0.7240000000000001,,,,,
197,,confirmation,,html-keyboard-response,197,121520,0.0-1.0-40.0-0.0-1.0-0.0,0,0,4,,,,,,38.0,,,,,,,,,,,,,,,,,,,,,,,,,,,,,,,,200.0,0.7759999999999999,,,,,
198,,isi,,html-keyboard-response,198,121626,0.0-1.0-40.0-0.0-2.0,0,0,4,,,,,,,,,,,,,,,,,,,,,,,,,,,,,,,,,,,,,,201.5,1.5,,,,,
199,,feedback,,html-keyboard-response,199,122629,0.0-1.0-40.0-0.0-3.0-0.0,0,0,4,,,,,,38.0,,,,,,,,,,,,,,,,,,,,,,,,,,,,,,,,202.5,1.0,,,,,
200,,iti,,html-keyboard-response,200,122734,0.0-1.0-40.0-0.0-5.0,0,0,4,,,,,,,,,,,,,,,,,,,,,,,,,,,,,,,,,,,,,,205.5,3.0,,,,,
201,,choice,,html-keyboard-response,201,123433,0.0-1.0-41.0-0.0-0.0,0,0,4,,696.0,,,51.0,39.0,39.0,3500.0,1000.0,0.0,1.0,1.0,80-80,1.0,,yarn,yarn,80.0,80.0,yarn7,yarn3,100.0,100.0,herb garden hy smaller.jpg,Aballofblueya.jpg,/static/Category_learning/Stimuli/Experimental_stims/yarn/herb garden hy smaller.jpg,/static/Category_learning/Stimuli/Experimental_stims/yarn/Aballofblueya.jpg,0.0,yarn,yarn,80.0,80.0,yarn3,yarn7,100.0,100.0,0.0,206.196,0.696,,,,,
202,,confirmation,,html-keyboard-response,202,124241,0.0-1.0-41.0-0.0-1.0-0.0,0,0,4,,,,,,39.0,,,,,,,,,,,,,,,,,,,,,,,,,,,,,,,,207.0,0.804,,,,,
203,,isi,,html-keyboard-response,203,124347,0.0-1.0-41.0-0.0-2.0,0,0,4,,,,,,,,,,,,,,,,,,,,,,,,,,,,,,,,,,,,,,210.5,3.5,,,,,
204,,feedback,,html-keyboard-response,204,125352,0.0-1.0-41.0-0.0-3.0-0.0,0,0,4,,,,,,39.0,,,,,,,,,,,,,,,,,,,,,,,,,,,,,,,,211.5,1.0,,,,,
205,,iti,,html-keyboard-response,205,125459,0.0-1.0-41.0-0.0-5.0,0,0,4,,,,,,,,,,,,,,,,,,,,,,,,,,,,,,,,,,,,,,212.5,1.0,,,,,
206,,choice,,html-keyboard-response,206,126129,0.0-1.0-42.0-0.0-0.0,0,0,4,,666.0,,,51.0,40.0,40.0,2000.0,3000.0,0.0,1.0,1.0,60-60,1.0,,poker card,poker card,60.0,60.0,poker card15,poker card13,40.0,80.0,9816946.thl.jpg,9817197.thl.jpg,/static/Category_learning/Stimuli/Experimental_stims/poker card/9816946.thl.jpg,/static/Category_learning/Stimuli/Experimental_stims/poker card/9817197.thl.jpg,0.0,poker card,poker card,60.0,60.0,poker card13,poker card15,80.0,40.0,0.0,213.166,0.6659999999999999,,,,,
207,,confirmation,,html-keyboard-response,207,126969,0.0-1.0-42.0-0.0-1.0-0.0,0,0,4,,,,,,40.0,,,,,,,,,,,,,,,,,,,,,,,,,,,,,,,,214.0,0.8340000000000001,,,,,
208,,isi,,html-keyboard-response,208,127071,0.0-1.0-42.0-0.0-2.0,0,0,4,,,,,,,,,,,,,,,,,,,,,,,,,,,,,,,,,,,,,,216.0,2.0,,,,,
209,,feedback,,html-keyboard-response,209,128077,0.0-1.0-42.0-0.0-3.0-0.0,0,0,4,,,,,,40.0,,,,,,,,,,,,,,,,,,,,,,,,,,,,,,,,217.0,1.0,,,,,
210,,iti,,html-keyboard-response,210,128185,0.0-1.0-42.0-0.0-5.0,0,0,4,,,,,,,,,,,,,,,,,,,,,,,,,,,,,,,,,,,,,,220.0,3.0,,,,,
211,,choice,,html-keyboard-response,211,128989,0.0-1.0-43.0-0.0-0.0,0,0,4,,801.0,,,50.0,41.0,41.0,1000.0,1000.0,0.0,1.0,0.0,20-60,,1.0,small table,bongo,60.0,20.0,small table4,bongo9,40.0,20.0,ACOFTABLE.jpg,22946035.thl.jpg,/static/Category_learning/Stimuli/Experimental_stims/small table/ACOFTABLE.jpg,/static/Category_learning/Stimuli/Experimental_stims/bongo/22946035.thl.jpg,1.0,small table,bongo,60.0,20.0,small table4,bongo9,40.0,20.0,0.0,220.801,0.8009999999999999,,,,,
212,,confirmation,,html-keyboard-response,212,129696,0.0-1.0-43.0-0.0-1.0-0.0,0,0,4,,,,,,41.0,,,,,,,,,,,,,,,,,,,,,,,,,,,,,,,,221.5,0.6990000000000001,,,,,
213,,isi,,html-keyboard-response,213,129800,0.0-1.0-43.0-0.0-2.0,0,0,4,,,,,,,,,,,,,,,,,,,,,,,,,,,,,,,,,,,,,,222.5,1.0,,,,,
214,,feedback,,html-keyboard-response,214,130803,0.0-1.0-43.0-0.0-3.0-0.0,0,0,4,,,,,,41.0,,,,,,,,,,,,,,,,,,,,,,,,,,,,,,,,223.5,1.0,,,,,
215,,iti,,html-keyboard-response,215,130906,0.0-1.0-43.0-0.0-5.0,0,0,4,,,,,,,,,,,,,,,,,,,,,,,,,,,,,,,,,,,,,,224.5,1.0,,,,,
216,,choice,,html-keyboard-response,216,131641,0.0-1.0-44.0-0.0-0.0,0,0,4,,732.0,,,50.0,42.0,42.0,3500.0,1000.0,0.0,1.0,0.0,60-60,,,necklace,poker card,60.0,60.0,necklace2,poker card5,40.0,40.0,Anecklace7.jpg,22864800.thl.jpg,/static/Category_learning/Stimuli/Experimental_stims/necklace/Anecklace7.jpg,/static/Category_learning/Stimuli/Experimental_stims/poker card/22864800.thl.jpg,1.0,necklace,poker card,60.0,60.0,necklace2,poker card5,40.0,40.0,0.0,225.232,0.732,,,,,
217,,confirmation,,html-keyboard-response,217,132415,0.0-1.0-44.0-0.0-1.0-0.0,0,0,4,,,,,,42.0,,,,,,,,,,,,,,,,,,,,,,,,,,,,,,,,226.0,0.768,,,,,
218,,isi,,html-keyboard-response,218,132520,0.0-1.0-44.0-0.0-2.0,0,0,4,,,,,,,,,,,,,,,,,,,,,,,,,,,,,,,,,,,,,,229.5,3.5,,,,,
219,,feedback,,html-keyboard-response,219,133527,0.0-1.0-44.0-0.0-3.0-0.0,0,0,4,,,,,,42.0,,,,,,,,,,,,,,,,,,,,,,,,,,,,,,,,230.5,1.0,,,,,
220,,iti,,html-keyboard-response,220,133635,0.0-1.0-44.0-0.0-5.0,0,0,4,,,,,,,,,,,,,,,,,,,,,,,,,,,,,,,,,,,,,,231.5,1.0,,,,,
221,,choice,,html-keyboard-response,221,134106,0.0-1.0-45.0-0.0-0.0,0,0,4,,469.0,,,51.0,43.0,43.0,2000.0,2000.0,0.0,1.0,0.0,40-60,,0.0,lipstick,power strip,40.0,60.0,lipstick10,power strip10,60.0,60.0,21K0D7QKFAL._SS500_.jpg,6bd437c9-6165-4d36-bf75-9a1038783c6a_400.jpg,/static/Category_learning/Stimuli/Experimental_stims/lipstick/21K0D7QKFAL._SS500_.jpg,/static/Category_learning/Stimuli/Experimental_stims/power strip/6bd437c9-6165-4d36-bf75-9a1038783c6a_400.jpg,0.0,power strip,lipstick,60.0,40.0,power strip10,lipstick10,60.0,60.0,0.0,231.96900000000002,0.469,,,,,
222,,confirmation,,html-keyboard-response,222,135142,0.0-1.0-45.0-0.0-1.0-0.0,0,0,4,,,,,,43.0,,,,,,,,,,,,,,,,,,,,,,,,,,,,,,,,233.0,1.031,,,,,
223,,isi,,html-keyboard-response,223,135245,0.0-1.0-45.0-0.0-2.0,0,0,4,,,,,,,,,,,,,,,,,,,,,,,,,,,,,,,,,,,,,,235.0,2.0,,,,,
224,,feedback,,html-keyboard-response,224,136248,0.0-1.0-45.0-0.0-3.0-0.0,0,0,4,,,,,,43.0,,,,,,,,,,,,,,,,,,,,,,,,,,,,,,,,236.0,1.0,,,,,
225,,iti,,html-keyboard-response,225,136355,0.0-1.0-45.0-0.0-5.0,0,0,4,,,,,,,,,,,,,,,,,,,,,,,,,,,,,,,,,,,,,,238.0,2.0,,,,,
226,,choice,,html-keyboard-response,226,137076,0.0-1.0-46.0-0.0-0.0,0,0,4,,717.0,,,50.0,44.0,44.0,1000.0,3000.0,0.0,1.0,1.0,60-60,0.0,,necklace,power strip,60.0,60.0,necklace2,power strip10,40.0,60.0,Anecklace7.jpg,6bd437c9-6165-4d36-bf75-9a1038783c6a_400.jpg,/static/Category_learning/Stimuli/Experimental_stims/necklace/Anecklace7.jpg,/static/Category_learning/Stimuli/Experimental_stims/power strip/6bd437c9-6165-4d36-bf75-9a1038783c6a_400.jpg,1.0,necklace,power strip,60.0,60.0,necklace2,power strip10,40.0,60.0,0.0,238.717,0.7170000000000001,,,,,
227,,confirmation,,html-keyboard-response,227,137867,0.0-1.0-46.0-0.0-1.0-0.0,0,0,4,,,,,,44.0,,,,,,,,,,,,,,,,,,,,,,,,,,,,,,,,239.5,0.7829999999999999,,,,,
228,,isi,,html-keyboard-response,228,137970,0.0-1.0-46.0-0.0-2.0,0,0,4,,,,,,,,,,,,,,,,,,,,,,,,,,,,,,,,,,,,,,240.5,1.0,,,,,
229,,feedback,,html-keyboard-response,229,138976,0.0-1.0-46.0-0.0-3.0-0.0,0,0,4,,,,,,44.0,,,,,,,,,,,,,,,,,,,,,,,,,,,,,,,,241.5,1.0,,,,,
230,,iti,,html-keyboard-response,230,139079,0.0-1.0-46.0-0.0-5.0,0,0,4,,,,,,,,,,,,,,,,,,,,,,,,,,,,,,,,,,,,,,244.5,3.0,,,,,
231,,choice,,html-keyboard-response,231,139938,0.0-1.0-47.0-0.0-0.0,0,0,4,,855.0,,,51.0,45.0,45.0,1500.0,1000.0,0.0,1.0,1.0,20-60,0.0,,nail polish,baby carriage,60.0,20.0,nail polish11,baby carriage5,80.0,20.0,Revlon_Super_Top_Speed_Chrome_Nail_Polish-resized200.jpg,Baby_Stroller.jpg,/static/Category_learning/Stimuli/Experimental_stims/nail polish/Revlon_Super_Top_Speed_Chrome_Nail_Polish-resized200.jpg,/static/Category_learning/Stimuli/Experimental_stims/baby carriage/Baby_Stroller.jpg,0.0,baby carriage,nail polish,20.0,60.0,baby carriage5,nail polish11,20.0,80.0,0.0,245.355,0.855,,,,,
232,,confirmation,,html-keyboard-response,232,140590,0.0-1.0-47.0-0.0-1.0-0.0,0,0,4,,,,,,45.0,,,,,,,,,,,,,,,,,,,,,,,,,,,,,,,,246.0,0.645,,,,,
233,,isi,,html-keyboard-response,233,140693,0.0-1.0-47.0-0.0-2.0,0,0,4,,,,,,,,,,,,,,,,,,,,,,,,,,,,,,,,,,,,,,247.5,1.5,,,,,
234,,feedback,,html-keyboard-response,234,141697,0.0-1.0-47.0-0.0-3.0-0.0,0,0,4,,,,,,45.0,,,,,,,,,,,,,,,,,,,,,,,,,,,,,,,,248.5,1.0,,,,,
235,,iti,,html-keyboard-response,235,141803,0.0-1.0-47.0-0.0-5.0,0,0,4,,,,,,,,,,,,,,,,,,,,,,,,,,,,,,,,,,,,,,249.5,1.0,,,,,
236,,choice,,html-keyboard-response,236,142943,0.0-1.0-48.0-0.0-0.0,0,0,4,,1137.0,,,51.0,46.0,46.0,1000.0,1500.0,0.0,1.0,0.0,20-40,,0.0,bongo,hammer,20.0,40.0,bongo13,hammer4,0.0,40.0,26388718.thl.jpg,hammernew01.jpg,/static/Category_learning/Stimuli/Experimental_stims/bongo/26388718.thl.jpg,/static/Category_learning/Stimuli/Experimental_stims/hammer/hammernew01.jpg,0.0,hammer,bongo,40.0,20.0,hammer4,bongo13,40.0,0.0,0.0,250.637,1.137,,,,,
237,,confirmation,,html-keyboard-response,237,143314,0.0-1.0-48.0-0.0-1.0-0.0,0,0,4,,,,,,46.0,,,,,,,,,,,,,,,,,,,,,,,,,,,,,,,,251.0,0.363,,,,,
238,,isi,,html-keyboard-response,238,143418,0.0-1.0-48.0-0.0-2.0,0,0,4,,,,,,,,,,,,,,,,,,,,,,,,,,,,,,,,,,,,,,252.0,1.0,,,,,
239,,feedback,,html-keyboard-response,239,144423,0.0-1.0-48.0-0.0-3.0-0.0,0,0,4,,,,,,46.0,,,,,,,,,,,,,,,,,,,,,,,,,,,,,,,,253.0,1.0,,,,,
240,,iti,,html-keyboard-response,240,144529,0.0-1.0-48.0-0.0-5.0,0,0,4,,,,,,,,,,,,,,,,,,,,,,,,,,,,,,,,,,,,,,254.5,1.5,,,,,
241,,choice,,html-keyboard-response,241,145475,0.0-1.0-49.0-0.0-0.0,0,0,4,,943.0,,,51.0,47.0,47.0,1000.0,2000.0,0.0,1.0,0.0,40-80,,1.0,telescope,frame,80.0,40.0,telescope15,frame3,80.0,40.0,VictorianDeskTelescope.jpg,AFRAME132.jpg,/static/Category_learning/Stimuli/Experimental_stims/telescope/VictorianDeskTelescope.jpg,/static/Category_learning/Stimuli/Experimental_stims/frame/AFRAME132.jpg,0.0,frame,telescope,40.0,80.0,frame3,telescope15,40.0,80.0,0.0,255.44299999999998,0.943,,,,,
242,,confirmation,,html-keyboard-response,242,146040,0.0-1.0-49.0-0.0-1.0-0.0,0,0,4,,,,,,47.0,,,,,,,,,,,,,,,,,,,,,,,,,,,,,,,,256.0,0.557,,,,,
243,,isi,,html-keyboard-response,243,146144,0.0-1.0-49.0-0.0-2.0,0,0,4,,,,,,,,,,,,,,,,,,,,,,,,,,,,,,,,,,,,,,257.0,1.0,,,,,
244,,feedback,,html-keyboard-response,244,147150,0.0-1.0-49.0-0.0-3.0-0.0,0,0,4,,,,,,47.0,,,,,,,,,,,,,,,,,,,,,,,,,,,,,,,,258.0,1.0,,,,,
245,,iti,,html-keyboard-response,245,147254,0.0-1.0-49.0-0.0-5.0,0,0,4,,,,,,,,,,,,,,,,,,,,,,,,,,,,,,,,,,,,,,260.0,2.0,,,,,
246,,choice,,html-keyboard-response,246,148154,0.0-1.0-50.0-0.0-0.0,0,0,4,,896.0,,,50.0,48.0,48.0,1000.0,2000.0,0.0,1.0,0.0,20-20,,,bench,flashlight,20.0,20.0,bench5,flashlight3,0.0,20.0,APARKBEN8.jpg,sl_tasklight_2l3w.jpg,/static/Category_learning/Stimuli/Experimental_stims/bench/APARKBEN8.jpg,/static/Category_learning/Stimuli/Experimental_stims/flashlight/sl_tasklight_2l3w.jpg,1.0,bench,flashlight,20.0,20.0,bench5,flashlight3,0.0,20.0,0.0,260.89599999999996,0.8959999999999999,,,,,
247,,confirmation,,html-keyboard-response,247,148764,0.0-1.0-50.0-0.0-1.0-0.0,0,0,4,,,,,,48.0,,,,,,,,,,,,,,,,,,,,,,,,,,,,,,,,261.5,0.604,,,,,
248,,isi,,html-keyboard-response,248,148866,0.0-1.0-50.0-0.0-2.0,0,0,4,,,,,,,,,,,,,,,,,,,,,,,,,,,,,,,,,,,,,,262.5,1.0,,,,,
249,,feedback,,html-keyboard-response,249,149871,0.0-1.0-50.0-0.0-3.0-0.0,0,0,4,,,,,,48.0,,,,,,,,,,,,,,,,,,,,,,,,,,,,,,,,263.5,1.0,,,,,
250,,iti,,html-keyboard-response,250,149976,0.0-1.0-50.0-0.0-5.0,0,0,4,,,,,,,,,,,,,,,,,,,,,,,,,,,,,,,,,,,,,,265.5,2.0,,,,,
251,,choice,,html-keyboard-response,251,150695,0.0-1.0-51.0-0.0-0.0,0,0,4,,715.0,,,51.0,49.0,49.0,1500.0,1500.0,0.0,1.0,1.0,40-40,1.0,,hammer,hammer,40.0,40.0,hammer12,hammer4,20.0,40.0,24oz hammer.jpg,hammernew01.jpg,/static/Category_learning/Stimuli/Experimental_stims/hammer/24oz hammer.jpg,/static/Category_learning/Stimuli/Experimental_stims/hammer/hammernew01.jpg,0.0,hammer,hammer,40.0,40.0,hammer4,hammer12,40.0,20.0,0.0,266.215,0.715,,,,,
252,,confirmation,,html-keyboard-response,252,151485,0.0-1.0-51.0-0.0-1.0-0.0,0,0,4,,,,,,49.0,,,,,,,,,,,,,,,,,,,,,,,,,,,,,,,,267.0,0.785,,,,,
253,,isi,,html-keyboard-response,253,151590,0.0-1.0-51.0-0.0-2.0,0,0,4,,,,,,,,,,,,,,,,,,,,,,,,,,,,,,,,,,,,,,268.5,1.5,,,,,
254,,feedback,,html-keyboard-response,254,152597,0.0-1.0-51.0-0.0-3.0-0.0,0,0,4,,,,,,49.0,,,,,,,,,,,,,,,,,,,,,,,,,,,,,,,,269.5,1.0,,,,,
255,,iti,,html-keyboard-response,255,152704,0.0-1.0-51.0-0.0-5.0,0,0,4,,,,,,,,,,,,,,,,,,,,,,,,,,,,,,,,,,,,,,271.0,1.5,,,,,
256,,choice,,html-keyboard-response,256,153460,0.0-1.0-52.0-0.0-0.0,0,0,4,,752.0,,,51.0,50.0,50.0,1000.0,1500.0,0.0,1.0,0.0,40-80,,0.0,frame,vase,40.0,80.0,frame11,vase14,60.0,80.0,AFRAME139.jpg,Avase119.jpg,/static/Category_learning/Stimuli/Experimental_stims/frame/AFRAME139.jpg,/static/Category_learning/Stimuli/Experimental_stims/vase/Avase119.jpg,0.0,vase,frame,80.0,40.0,vase14,frame11,80.0,60.0,0.0,271.752,0.752,,,,,
257,,confirmation,,html-keyboard-response,257,154211,0.0-1.0-52.0-0.0-1.0-0.0,0,0,4,,,,,,50.0,,,,,,,,,,,,,,,,,,,,,,,,,,,,,,,,272.5,0.748,,,,,
258,,isi,,html-keyboard-response,258,154318,0.0-1.0-52.0-0.0-2.0,0,0,4,,,,,,,,,,,,,,,,,,,,,,,,,,,,,,,,,,,,,,273.5,1.0,,,,,
259,,feedback,,html-keyboard-response,259,155326,0.0-1.0-52.0-0.0-3.0-0.0,0,0,4,,,,,,50.0,,,,,,,,,,,,,,,,,,,,,,,,,,,,,,,,274.5,1.0,,,,,
260,,iti,,html-keyboard-response,260,155429,0.0-1.0-52.0-0.0-5.0,0,0,4,,,,,,,,,,,,,,,,,,,,,,,,,,,,,,,,,,,,,,276.0,1.5,,,,,
261,,choice,,html-keyboard-response,261,156396,0.0-1.0-53.0-0.0-0.0,0,0,4,,963.0,,,50.0,51.0,51.0,2000.0,2000.0,0.0,1.0,0.0,20-60,,1.0,seashell,door knob,60.0,20.0,seashell11,door knob1,80.0,0.0,ASEASH12.jpg,Brass_Door_Handle.jpg,/static/Category_learning/Stimuli/Experimental_stims/seashell/ASEASH12.jpg,/static/Category_learning/Stimuli/Experimental_stims/door knob/Brass_Door_Handle.jpg,1.0,seashell,door knob,60.0,20.0,seashell11,door knob1,80.0,0.0,0.0,276.96299999999997,0.963,,,,,
262,,confirmation,,html-keyboard-response,262,156940,0.0-1.0-53.0-0.0-1.0-0.0,0,0,4,,,,,,51.0,,,,,,,,,,,,,,,,,,,,,,,,,,,,,,,,277.5,0.537,,,,,
263,,isi,,html-keyboard-response,263,157045,0.0-1.0-53.0-0.0-2.0,0,0,4,,,,,,,,,,,,,,,,,,,,,,,,,,,,,,,,,,,,,,279.5,2.0,,,,,
264,,feedback,,html-keyboard-response,264,158051,0.0-1.0-53.0-0.0-3.0-0.0,0,0,4,,,,,,51.0,,,,,,,,,,,,,,,,,,,,,,,,,,,,,,,,280.5,1.0,,,,,
265,,iti,,html-keyboard-response,265,158155,0.0-1.0-53.0-0.0-5.0,0,0,4,,,,,,,,,,,,,,,,,,,,,,,,,,,,,,,,,,,,,,282.5,2.0,,,,,
266,,choice,,html-keyboard-response,266,158904,0.0-1.0-54.0-0.0-0.0,0,0,4,,745.0,,,51.0,52.0,52.0,2000.0,1000.0,0.0,1.0,0.0,20-40,,0.0,flashlight,makeup compact,20.0,40.0,flashlight2,makeup compact13,0.0,40.0,AV-9 No Battery Flashlight.jpg,31YfapjS3TL._AA250_.jpg,/static/Category_learning/Stimuli/Experimental_stims/flashlight/AV-9 No Battery Flashlight.jpg,/static/Category_learning/Stimuli/Experimental_stims/makeup compact/31YfapjS3TL._AA250_.jpg,0.0,makeup compact,flashlight,40.0,20.0,makeup compact13,flashlight2,40.0,0.0,0.0,283.245,0.745,,,,,
267,,confirmation,,html-keyboard-response,267,159662,0.0-1.0-54.0-0.0-1.0-0.0,0,0,4,,,,,,52.0,,,,,,,,,,,,,,,,,,,,,,,,,,,,,,,,284.0,0.755,,,,,
268,,isi,,html-keyboard-response,268,159769,0.0-1.0-54.0-0.0-2.0,0,0,4,,,,,,,,,,,,,,,,,,,,,,,,,,,,,,,,,,,,,,286.0,2.0,,,,,
269,,feedback,,html-keyboard-response,269,160776,0.0-1.0-54.0-0.0-3.0-0.0,0,0,4,,,,,,52.0,,,,,,,,,,,,,,,,,,,,,,,,,,,,,,,,287.0,1.0,,,,,
270,,iti,,html-keyboard-response,270,160884,0.0-1.0-54.0-0.0-5.0,0,0,4,,,,,,,,,,,,,,,,,,,,,,,,,,,,,,,,,,,,,,288.0,1.0,,,,,
271,,choice,,html-keyboard-response,271,161614,0.0-1.0-55.0-0.0-0.0,0,0,4,,727.0,,,51.0,53.0,53.0,1500.0,1000.0,0.0,1.0,0.0,20-60,,1.0,sofa,bongo,60.0,20.0,sofa4,bongo4,40.0,0.0,ALOVSEA15.jpg,26390708.thl.jpg,/static/Category_learning/Stimuli/Experimental_stims/sofa/ALOVSEA15.jpg,/static/Category_learning/Stimuli/Experimental_stims/bongo/26390708.thl.jpg,0.0,bongo,sofa,20.0,60.0,bongo4,sofa4,0.0,40.0,0.0,288.72700000000003,0.727,,,,,
272,,confirmation,,html-keyboard-response,272,162395,0.0-1.0-55.0-0.0-1.0-0.0,0,0,4,,,,,,53.0,,,,,,,,,,,,,,,,,,,,,,,,,,,,,,,,289.5,0.773,,,,,
273,,isi,,html-keyboard-response,273,162500,0.0-1.0-55.0-0.0-2.0,0,0,4,,,,,,,,,,,,,,,,,,,,,,,,,,,,,,,,,,,,,,291.0,1.5,,,,,
274,,feedback,,html-keyboard-response,274,163505,0.0-1.0-55.0-0.0-3.0-0.0,0,0,4,,,,,,53.0,,,,,,,,,,,,,,,,,,,,,,,,,,,,,,,,292.0,1.0,,,,,
275,,iti,,html-keyboard-response,275,163612,0.0-1.0-55.0-0.0-5.0,0,0,4,,,,,,,,,,,,,,,,,,,,,,,,,,,,,,,,,,,,,,293.0,1.0,,,,,
276,,choice,,html-keyboard-response,276,164244,0.0-1.0-56.0-0.0-0.0,0,0,4,,629.0,,,50.0,54.0,54.0,1000.0,1000.0,0.0,1.0,1.0,80-80,1.0,,vase,vase,80.0,80.0,vase9,vase14,80.0,80.0,Avasewithang2.jpg,Avase119.jpg,/static/Category_learning/Stimuli/Experimental_stims/vase/Avasewithang2.jpg,/static/Category_learning/Stimuli/Experimental_stims/vase/Avase119.jpg,1.0,vase,vase,80.0,80.0,vase9,vase14,80.0,80.0,0.0,293.629,0.629,,,,,
277,,confirmation,,html-keyboard-response,277,165120,0.0-1.0-56.0-0.0-1.0-0.0,0,0,4,,,,,,54.0,,,,,,,,,,,,,,,,,,,,,,,,,,,,,,,,294.5,0.871,,,,,
278,,isi,,html-keyboard-response,278,165224,0.0-1.0-56.0-0.0-2.0,0,0,4,,,,,,,,,,,,,,,,,,,,,,,,,,,,,,,,,,,,,,295.5,1.0,,,,,
279,,feedback,,html-keyboard-response,279,166228,0.0-1.0-56.0-0.0-3.0-0.0,0,0,4,,,,,,54.0,,,,,,,,,,,,,,,,,,,,,,,,,,,,,,,,296.5,1.0,,,,,
280,,iti,,html-keyboard-response,280,166331,0.0-1.0-56.0-0.0-5.0,0,0,4,,,,,,,,,,,,,,,,,,,,,,,,,,,,,,,,,,,,,,297.5,1.0,,,,,
281,,choice,,html-keyboard-response,281,167077,0.0-1.0-57.0-0.0-0.0,0,0,4,,743.0,,,51.0,55.0,55.0,1000.0,1500.0,0.0,1.0,0.0,20-80,,0.0,flashlight,train,20.0,80.0,flashlight14,train11,20.0,60.0,freeplay-jonta-flashlight.jpg,train1.jpg,/static/Category_learning/Stimuli/Experimental_stims/flashlight/freeplay-jonta-flashlight.jpg,/static/Category_learning/Stimuli/Experimental_stims/train/train1.jpg,0.0,train,flashlight,80.0,20.0,train11,flashlight14,60.0,20.0,0.0,298.243,0.743,,,,,
282,,confirmation,,html-keyboard-response,282,167841,0.0-1.0-57.0-0.0-1.0-0.0,0,0,4,,,,,,55.0,,,,,,,,,,,,,,,,,,,,,,,,,,,,,,,,299.0,0.757,,,,,
283,,isi,,html-keyboard-response,283,167945,0.0-1.0-57.0-0.0-2.0,0,0,4,,,,,,,,,,,,,,,,,,,,,,,,,,,,,,,,,,,,,,300.0,1.0,,,,,
284,,feedback,,html-keyboard-response,284,168952,0.0-1.0-57.0-0.0-3.0-0.0,0,0,4,,,,,,55.0,,,,,,,,,,,,,,,,,,,,,,,,,,,,,,,,301.0,1.0,,,,,
285,,iti,,html-keyboard-response,285,169058,0.0-1.0-57.0-0.0-5.0,0,0,4,,,,,,,,,,,,,,,,,,,,,,,,,,,,,,,,,,,,,,302.5,1.5,,,,,
286,,choice,,html-keyboard-response,286,169687,0.0-1.0-58.0-0.0-0.0,0,0,4,,627.0,,,51.0,56.0,56.0,1000.0,1500.0,0.0,1.0,0.0,20-80,,0.0,fan,stool,20.0,80.0,fan12,stool9,0.0,100.0,116544_sk_lg.jpg,ASTOOL7.jpg,/static/Category_learning/Stimuli/Experimental_stims/fan/116544_sk_lg.jpg,/static/Category_learning/Stimuli/Experimental_stims/stool/ASTOOL7.jpg,0.0,stool,fan,80.0,20.0,stool9,fan12,100.0,0.0,0.0,303.127,0.627,,,,,
287,,confirmation,,html-keyboard-response,287,170567,0.0-1.0-58.0-0.0-1.0-0.0,0,0,4,,,,,,56.0,,,,,,,,,,,,,,,,,,,,,,,,,,,,,,,,304.0,0.873,,,,,
288,,isi,,html-keyboard-response,288,170672,0.0-1.0-58.0-0.0-2.0,0,0,4,,,,,,,,,,,,,,,,,,,,,,,,,,,,,,,,,,,,,,305.0,1.0,,,,,
289,,feedback,,html-keyboard-response,289,171676,0.0-1.0-58.0-0.0-3.0-0.0,0,0,4,,,,,,56.0,,,,,,,,,,,,,,,,,,,,,,,,,,,,,,,,306.0,1.0,,,,,
290,,iti,,html-keyboard-response,290,171779,0.0-1.0-58.0-0.0-5.0,0,0,4,,,,,,,,,,,,,,,,,,,,,,,,,,,,,,,,,,,,,,307.5,1.5,,,,,
291,,choice,,html-keyboard-response,291,172301,0.0-1.0-59.0-0.0-0.0,0,0,4,,519.0,,,51.0,57.0,57.0,1500.0,1000.0,0.0,1.0,0.0,20-40,,1.0,motorcycle,bench,40.0,20.0,motorcycle12,bench4,40.0,0.0,motorcycle14.jpg,30892819.thl.jpg,/static/Category_learning/Stimuli/Experimental_stims/motorcycle/motorcycle14.jpg,/static/Category_learning/Stimuli/Experimental_stims/bench/30892819.thl.jpg,0.0,bench,motorcycle,20.0,40.0,bench4,motorcycle12,0.0,40.0,0.0,308.019,0.519,,,,,
292,,confirmation,,html-keyboard-response,292,173290,0.0-1.0-59.0-0.0-1.0-0.0,0,0,4,,,,,,57.0,,,,,,,,,,,,,,,,,,,,,,,,,,,,,,,,309.0,0.981,,,,,
293,,isi,,html-keyboard-response,293,173392,0.0-1.0-59.0-0.0-2.0,0,0,4,,,,,,,,,,,,,,,,,,,,,,,,,,,,,,,,,,,,,,310.5,1.5,,,,,
294,,feedback,,html-keyboard-response,294,174398,0.0-1.0-59.0-0.0-3.0-0.0,0,0,4,,,,,,57.0,,,,,,,,,,,,,,,,,,,,,,,,,,,,,,,,311.5,1.0,,,,,
295,,iti,,html-keyboard-response,295,174501,0.0-1.0-59.0-0.0-5.0,0,0,4,,,,,,,,,,,,,,,,,,,,,,,,,,,,,,,,,,,,,,312.5,1.0,,,,,
296,,choice,,html-keyboard-response,296,175635,0.0-1.0-60.0-0.0-0.0,0,0,4,,1129.0,,,51.0,58.0,58.0,1000.0,2000.0,0.0,1.0,1.0,20-20,1.0,,bench,bench,20.0,20.0,bench4,bench5,0.0,0.0,30892819.thl.jpg,APARKBEN8.jpg,/static/Category_learning/Stimuli/Experimental_stims/bench/30892819.thl.jpg,/static/Category_learning/Stimuli/Experimental_stims/bench/APARKBEN8.jpg,0.0,bench,bench,20.0,20.0,bench5,bench4,0.0,0.0,0.0,313.629,1.129,,,,,
297,,confirmation,,html-keyboard-response,297,176012,0.0-1.0-60.0-0.0-1.0-0.0,0,0,4,,,,,,58.0,,,,,,,,,,,,,,,,,,,,,,,,,,,,,,,,314.0,0.371,,,,,
298,,isi,,html-keyboard-response,298,176116,0.0-1.0-60.0-0.0-2.0,0,0,4,,,,,,,,,,,,,,,,,,,,,,,,,,,,,,,,,,,,,,315.0,1.0,,,,,
299,,feedback,,html-keyboard-response,299,177124,0.0-1.0-60.0-0.0-3.0-0.0,0,0,4,,,,,,58.0,,,,,,,,,,,,,,,,,,,,,,,,,,,,,,,,316.0,1.0,,,,,
300,,iti,,html-keyboard-response,300,177229,0.0-1.0-60.0-0.0-5.0,0,0,4,,,,,,,,,,,,,,,,,,,,,,,,,,,,,,,,,,,,,,318.0,2.0,,,,,
301,,choice,,html-keyboard-response,301,178175,0.0-1.0-61.0-0.0-0.0,0,0,4,,943.0,,,51.0,59.0,59.0,2000.0,2000.0,0.0,1.0,0.0,40-80,,0.0,microscope,yarn,40.0,80.0,microscope12,yarn2,40.0,60.0,usbdigitalmicroscope1_small1.jpg,Aballofyarn66.jpg,/static/Category_learning/Stimuli/Experimental_stims/microscope/usbdigitalmicroscope1_small1.jpg,/static/Category_learning/Stimuli/Experimental_stims/yarn/Aballofyarn66.jpg,0.0,yarn,microscope,80.0,40.0,yarn2,microscope12,60.0,40.0,0.0,318.943,0.943,,,,,
302,,confirmation,,html-keyboard-response,302,178737,0.0-1.0-61.0-0.0-1.0-0.0,0,0,4,,,,,,59.0,,,,,,,,,,,,,,,,,,,,,,,,,,,,,,,,319.5,0.557,,,,,
303,,isi,,html-keyboard-response,303,178841,0.0-1.0-61.0-0.0-2.0,0,0,4,,,,,,,,,,,,,,,,,,,,,,,,,,,,,,,,,,,,,,321.5,2.0,,,,,
304,,feedback,,html-keyboard-response,304,179847,0.0-1.0-61.0-0.0-3.0-0.0,0,0,4,,,,,,59.0,,,,,,,,,,,,,,,,,,,,,,,,,,,,,,,,322.5,1.0,,,,,
305,,iti,,html-keyboard-response,305,179954,0.0-1.0-61.0-0.0-5.0,0,0,4,,,,,,,,,,,,,,,,,,,,,,,,,,,,,,,,,,,,,,324.5,2.0,,,,,
306,,choice,,html-keyboard-response,306,180926,0.0-1.0-62.0-0.0-0.0,0,0,4,,969.0,,,50.0,60.0,60.0,1000.0,1500.0,0.0,1.0,0.0,60-60,,,nail polish,necklace,60.0,60.0,nail polish2,necklace8,80.0,40.0,froggy_t.jpg,Anecklace20.jpg,/static/Category_learning/Stimuli/Experimental_stims/nail polish/froggy_t.jpg,/static/Category_learning/Stimuli/Experimental_stims/necklace/Anecklace20.jpg,1.0,nail polish,necklace,60.0,60.0,nail polish2,necklace8,80.0,40.0,0.0,325.469,0.9690000000000001,,,,,
307,,confirmation,,html-keyboard-response,307,181461,0.0-1.0-62.0-0.0-1.0-0.0,0,0,4,,,,,,60.0,,,,,,,,,,,,,,,,,,,,,,,,,,,,,,,,326.0,0.531,,,,,
308,,isi,,html-keyboard-response,308,181565,0.0-1.0-62.0-0.0-2.0,0,0,4,,,,,,,,,,,,,,,,,,,,,,,,,,,,,,,,,,,,,,327.0,1.0,,,,,
309,,feedback,,html-keyboard-response,309,182569,0.0-1.0-62.0-0.0-3.0-0.0,0,0,4,,,,,,60.0,,,,,,,,,,,,,,,,,,,,,,,,,,,,,,,,328.0,1.0,,,,,
310,,iti,,html-keyboard-response,310,182673,0.0-1.0-62.0-0.0-5.0,0,0,4,,,,,,,,,,,,,,,,,,,,,,,,,,,,,,,,,,,,,,329.5,1.5,,,,,
311,,choice,,html-keyboard-response,311,183512,0.0-1.0-63.0-0.0-0.0,0,0,4,,835.0,,,51.0,61.0,61.0,1000.0,1500.0,0.0,1.0,0.0,60-80,,1.0,stool,small table,80.0,60.0,stool15,small table6,100.0,80.0,ASTOOL.jpg,ATABLE88.jpg,/static/Category_learning/Stimuli/Experimental_stims/stool/ASTOOL.jpg,/static/Category_learning/Stimuli/Experimental_stims/small table/ATABLE88.jpg,0.0,small table,stool,60.0,80.0,small table6,stool15,80.0,100.0,0.0,330.335,0.835,,,,,
312,,confirmation,,html-keyboard-response,312,184184,0.0-1.0-63.0-0.0-1.0-0.0,0,0,4,,,,,,61.0,,,,,,,,,,,,,,,,,,,,,,,,,,,,,,,,331.0,0.665,,,,,
313,,isi,,html-keyboard-response,313,184289,0.0-1.0-63.0-0.0-2.0,0,0,4,,,,,,,,,,,,,,,,,,,,,,,,,,,,,,,,,,,,,,332.0,1.0,,,,,
314,,feedback,,html-keyboard-response,314,185295,0.0-1.0-63.0-0.0-3.0-0.0,0,0,4,,,,,,61.0,,,,,,,,,,,,,,,,,,,,,,,,,,,,,,,,333.0,1.0,,,,,
315,,iti,,html-keyboard-response,315,185398,0.0-1.0-63.0-0.0-5.0,0,0,4,,,,,,,,,,,,,,,,,,,,,,,,,,,,,,,,,,,,,,334.5,1.5,,,,,
316,,choice,,html-keyboard-response,316,186142,0.0-1.0-64.0-0.0-0.0,0,0,4,,741.0,,,51.0,62.0,62.0,1000.0,1000.0,0.0,1.0,0.0,40-60,,1.0,seashell,microscope,60.0,40.0,seashell9,microscope11,80.0,20.0,ASEASH5.jpg,konus5604microscope.jpg,/static/Category_learning/Stimuli/Experimental_stims/seashell/ASEASH5.jpg,/static/Category_learning/Stimuli/Experimental_stims/microscope/konus5604microscope.jpg,0.0,microscope,seashell,40.0,60.0,microscope11,seashell9,20.0,80.0,0.0,335.241,0.741,,,,,
317,,confirmation,,html-keyboard-response,317,186908,0.0-1.0-64.0-0.0-1.0-0.0,0,0,4,,,,,,62.0,,,,,,,,,,,,,,,,,,,,,,,,,,,,,,,,336.0,0.759,,,,,
318,,isi,,html-keyboard-response,318,187011,0.0-1.0-64.0-0.0-2.0,0,0,4,,,,,,,,,,,,,,,,,,,,,,,,,,,,,,,,,,,,,,337.0,1.0,,,,,
319,,feedback,,html-keyboard-response,319,188017,0.0-1.0-64.0-0.0-3.0-0.0,0,0,4,,,,,,62.0,,,,,,,,,,,,,,,,,,,,,,,,,,,,,,,,338.0,1.0,,,,,
320,,iti,,html-keyboard-response,320,188122,0.0-1.0-64.0-0.0-5.0,0,0,4,,,,,,,,,,,,,,,,,,,,,,,,,,,,,,,,,,,,,,339.0,1.0,,,,,
321,,choice,,html-keyboard-response,321,188813,0.0-1.0-65.0-0.0-0.0,0,0,4,,688.0,,,51.0,63.0,63.0,1000.0,1500.0,0.0,1.0,0.0,20-80,,0.0,bowl,stool,20.0,80.0,bowl3,stool5,40.0,60.0,ABOWL8.jpg,ASTOOL23.jpg,/static/Category_learning/Stimuli/Experimental_stims/bowl/ABOWL8.jpg,/static/Category_learning/Stimuli/Experimental_stims/stool/ASTOOL23.jpg,0.0,stool,bowl,80.0,20.0,stool5,bowl3,60.0,40.0,0.0,339.68800000000005,0.688,,,,,
322,,confirmation,,html-keyboard-response,322,189632,0.0-1.0-65.0-0.0-1.0-0.0,0,0,4,,,,,,63.0,,,,,,,,,,,,,,,,,,,,,,,,,,,,,,,,340.5,0.812,,,,,
323,,isi,,html-keyboard-response,323,189739,0.0-1.0-65.0-0.0-2.0,0,0,4,,,,,,,,,,,,,,,,,,,,,,,,,,,,,,,,,,,,,,341.5,1.0,,,,,
324,,feedback,,html-keyboard-response,324,190746,0.0-1.0-65.0-0.0-3.0-0.0,0,0,4,,,,,,63.0,,,,,,,,,,,,,,,,,,,,,,,,,,,,,,,,342.5,1.0,,,,,
325,,iti,,html-keyboard-response,325,190850,0.0-1.0-65.0-0.0-5.0,0,0,4,,,,,,,,,,,,,,,,,,,,,,,,,,,,,,,,,,,,,,344.0,1.5,,,,,
326,,choice,,html-keyboard-response,326,191930,0.0-1.0-66.0-0.0-0.0,0,0,4,,1076.0,,,50.0,64.0,64.0,1000.0,3500.0,0.0,1.0,1.0,40-40,1.0,,makeup compact,makeup compact,40.0,40.0,makeup compact13,makeup compact5,40.0,60.0,31YfapjS3TL._AA250_.jpg,P109965_hero.jpg,/static/Category_learning/Stimuli/Experimental_stims/makeup compact/31YfapjS3TL._AA250_.jpg,/static/Category_learning/Stimuli/Experimental_stims/makeup compact/P109965_hero.jpg,1.0,makeup compact,makeup compact,40.0,40.0,makeup compact13,makeup compact5,40.0,60.0,0.0,345.07599999999996,1.0759999999999998,,,,,
327,,confirmation,,html-keyboard-response,327,192363,0.0-1.0-66.0-0.0-1.0-0.0,0,0,4,,,,,,64.0,,,,,,,,,,,,,,,,,,,,,,,,,,,,,,,,345.5,0.424,,,,,
328,,isi,,html-keyboard-response,328,192471,0.0-1.0-66.0-0.0-2.0,0,0,4,,,,,,,,,,,,,,,,,,,,,,,,,,,,,,,,,,,,,,346.5,1.0,,,,,
329,,feedback,,html-keyboard-response,329,193473,0.0-1.0-66.0-0.0-3.0-0.0,0,0,4,,,,,,64.0,,,,,,,,,,,,,,,,,,,,,,,,,,,,,,,,347.5,1.0,,,,,
330,,iti,,html-keyboard-response,330,193579,0.0-1.0-66.0-0.0-5.0,0,0,4,,,,,,,,,,,,,,,,,,,,,,,,,,,,,,,,,,,,,,351.0,3.5,,,,,
331,,block_over,,html-keyboard-response,331,195069,0.0-1.0-66.0-0.0-7.0-0.0,0,0,4,,1466.0,,,50.0,64.0,,,,,,,,,,,,,,,,,,,,,,,,,,,,,,,,,,,,,,
332,,start_run,,html-keyboard-response,332,195995,0.0-1.0-66.0-0.0-7.0-1.0,0,0,4,,924.0,,,84.0,,,,,,,,,,,,,,,,,,,,,,,,,,,,,,,,,,,,,,,
333,,choice,,html-keyboard-response,333,196627,0.0-1.0-67.0-0.0-0.0,0,0,4,,628.0,,,51.0,65.0,65.0,1000.0,1000.0,0.0,2.0,0.0,40-80,,1.0,watch,makeup compact,80.0,40.0,watch1,makeup compact9,80.0,40.0,B000B5K8XI.01-A2E7J74KJYV9ZH._AA280_SCLZZZZZZZ_V53007008_.jpg,b_102019.jpg,/static/Category_learning/Stimuli/Experimental_stims/watch/B000B5K8XI.01-A2E7J74KJYV9ZH._AA280_SCLZZZZZZZ_V53007008_.jpg,/static/Category_learning/Stimuli/Experimental_stims/makeup compact/b_102019.jpg,0.0,makeup compact,watch,40.0,80.0,makeup compact9,watch1,40.0,80.0,0.0,0.628,0.628,,,,,
334,,confirmation,,html-keyboard-response,334,197506,0.0-1.0-67.0-0.0-1.0-0.0,0,0,4,,,,,,65.0,,,,,,,,,,,,,,,,,,,,,,,,,,,,,,,,1.5,0.872,,,,,
335,,isi,,html-keyboard-response,335,197612,0.0-1.0-67.0-0.0-2.0,0,0,4,,,,,,,,,,,,,,,,,,,,,,,,,,,,,,,,,,,,,,2.5,1.0,,,,,
336,,feedback,,html-keyboard-response,336,198620,0.0-1.0-67.0-0.0-3.0-0.0,0,0,4,,,,,,65.0,,,,,,,,,,,,,,,,,,,,,,,,,,,,,,,,3.5,1.0,,,,,
337,,iti,,html-keyboard-response,337,198725,0.0-1.0-67.0-0.0-5.0,0,0,4,,,,,,,,,,,,,,,,,,,,,,,,,,,,,,,,,,,,,,4.5,1.0,,,,,
338,,choice,,html-keyboard-response,338,199278,0.0-1.0-68.0-0.0-0.0,0,0,4,,550.0,,,50.0,66.0,66.0,3500.0,2000.0,0.0,2.0,0.0,20-80,,1.0,vase,bench,80.0,20.0,vase12,bench13,100.0,40.0,Abluevase2.jpg,ABROWNBE4.jpg,/static/Category_learning/Stimuli/Experimental_stims/vase/Abluevase2.jpg,/static/Category_learning/Stimuli/Experimental_stims/bench/ABROWNBE4.jpg,1.0,vase,bench,80.0,20.0,vase12,bench13,100.0,40.0,0.0,5.05,0.55,,,,,
339,,confirmation,,html-keyboard-response,339,200235,0.0-1.0-68.0-0.0-1.0-0.0,0,0,4,,,,,,66.0,,,,,,,,,,,,,,,,,,,,,,,,,,,,,,,,6.0,0.95,,,,,
340,,isi,,html-keyboard-response,340,200337,0.0-1.0-68.0-0.0-2.0,0,0,4,,,,,,,,,,,,,,,,,,,,,,,,,,,,,,,,,,,,,,9.5,3.5,,,,,
341,,feedback,,html-keyboard-response,341,201344,0.0-1.0-68.0-0.0-3.0-0.0,0,0,4,,,,,,66.0,,,,,,,,,,,,,,,,,,,,,,,,,,,,,,,,10.5,1.0,,,,,
342,,iti,,html-keyboard-response,342,201452,0.0-1.0-68.0-0.0-5.0,0,0,4,,,,,,,,,,,,,,,,,,,,,,,,,,,,,,,,,,,,,,12.5,2.0,,,,,
343,,choice,,html-keyboard-response,343,202344,0.0-1.0-69.0-0.0-0.0,0,0,4,,890.0,,,50.0,67.0,67.0,1000.0,1000.0,0.0,2.0,0.0,20-80,,0.0,fan,trumpet,20.0,80.0,fan2,trumpet12,40.0,80.0,507349_sk_lg.jpg,hornabariton.jpg,/static/Category_learning/Stimuli/Experimental_stims/fan/507349_sk_lg.jpg,/static/Category_learning/Stimuli/Experimental_stims/trumpet/hornabariton.jpg,1.0,fan,trumpet,20.0,80.0,fan2,trumpet12,40.0,80.0,0.0,13.39,0.89,,,,,
344,,confirmation,,html-keyboard-response,344,202959,0.0-1.0-69.0-0.0-1.0-0.0,0,0,4,,,,,,67.0,,,,,,,,,,,,,,,,,,,,,,,,,,,,,,,,14.0,0.61,,,,,
345,,isi,,html-keyboard-response,345,203063,0.0-1.0-69.0-0.0-2.0,0,0,4,,,,,,,,,,,,,,,,,,,,,,,,,,,,,,,,,,,,,,15.0,1.0,,,,,
346,,feedback,,html-keyboard-response,346,204069,0.0-1.0-69.0-0.0-3.0-0.0,0,0,4,,,,,,67.0,,,,,,,,,,,,,,,,,,,,,,,,,,,,,,,,16.0,1.0,,,,,
347,,iti,,html-keyboard-response,347,204173,0.0-1.0-69.0-0.0-5.0,0,0,4,,,,,,,,,,,,,,,,,,,,,,,,,,,,,,,,,,,,,,17.0,1.0,,,,,
348,,choice,,html-keyboard-response,348,204753,0.0-1.0-70.0-0.0-0.0,0,0,4,,577.0,,,51.0,68.0,68.0,2000.0,1000.0,0.0,2.0,0.0,60-60,,,pen,poker card,60.0,60.0,pen4,poker card9,80.0,80.0,Montblanc_Greta_Garbo_BP copy.jpg,9817230.thl.jpg,/static/Category_learning/Stimuli/Experimental_stims/pen/Montblanc_Greta_Garbo_BP copy.jpg,/static/Category_learning/Stimuli/Experimental_stims/poker card/9817230.thl.jpg,0.0,poker card,pen,60.0,60.0,poker card9,pen4,80.0,80.0,0.0,17.576999999999998,0.5770000000000001,,,,,
349,,confirmation,,html-keyboard-response,349,205684,0.0-1.0-70.0-0.0-1.0-0.0,0,0,4,,,,,,68.0,,,,,,,,,,,,,,,,,,,,,,,,,,,,,,,,18.5,0.9229999999999999,,,,,
350,,isi,,html-keyboard-response,350,205789,0.0-1.0-70.0-0.0-2.0,0,0,4,,,,,,,,,,,,,,,,,,,,,,,,,,,,,,,,,,,,,,20.5,2.0,,,,,
351,,feedback,,html-keyboard-response,351,206795,0.0-1.0-70.0-0.0-3.0-0.0,0,0,4,,,,,,68.0,,,,,,,,,,,,,,,,,,,,,,,,,,,,,,,,21.5,1.0,,,,,
352,,iti,,html-keyboard-response,352,206899,0.0-1.0-70.0-0.0-5.0,0,0,4,,,,,,,,,,,,,,,,,,,,,,,,,,,,,,,,,,,,,,22.5,1.0,,,,,
353,,choice,,html-keyboard-response,353,207492,0.0-1.0-71.0-0.0-0.0,0,0,4,,590.0,,,51.0,69.0,69.0,1000.0,1000.0,0.0,2.0,0.0,20-20,,,baby carriage,fan,20.0,20.0,baby carriage9,fan11,0.0,0.0,Antique baby Carriage 7.jpg,n_sf.jpg,/static/Category_learning/Stimuli/Experimental_stims/baby carriage/Antique baby Carriage 7.jpg,/static/Category_learning/Stimuli/Experimental_stims/fan/n_sf.jpg,0.0,fan,baby carriage,20.0,20.0,fan11,baby carriage9,0.0,0.0,0.0,23.09,0.59,,,,,
354,,confirmation,,html-keyboard-response,354,208406,0.0-1.0-71.0-0.0-1.0-0.0,0,0,4,,,,,,69.0,,,,,,,,,,,,,,,,,,,,,,,,,,,,,,,,24.0,0.91,,,,,
355,,isi,,html-keyboard-response,355,208510,0.0-1.0-71.0-0.0-2.0,0,0,4,,,,,,,,,,,,,,,,,,,,,,,,,,,,,,,,,,,,,,25.0,1.0,,,,,
356,,feedback,,html-keyboard-response,356,209516,0.0-1.0-71.0-0.0-3.0-0.0,0,0,4,,,,,,69.0,,,,,,,,,,,,,,,,,,,,,,,,,,,,,,,,26.0,1.0,,,,,
357,,iti,,html-keyboard-response,357,209623,0.0-1.0-71.0-0.0-5.0,0,0,4,,,,,,,,,,,,,,,,,,,,,,,,,,,,,,,,,,,,,,27.0,1.0,,,,,
358,,choice,,html-keyboard-response,358,210317,0.0-1.0-72.0-0.0-0.0,0,0,4,,690.0,,,51.0,70.0,70.0,1500.0,1000.0,0.0,2.0,0.0,20-80,,1.0,stool,dresser,80.0,20.0,stool2,dresser1,60.0,0.0,ASTOOL46.jpg,ADRESSE52.jpg,/static/Category_learning/Stimuli/Experimental_stims/stool/ASTOOL46.jpg,/static/Category_learning/Stimuli/Experimental_stims/dresser/ADRESSE52.jpg,0.0,dresser,stool,20.0,80.0,dresser1,stool2,0.0,60.0,0.0,27.69,0.69,,,,,
359,,confirmation,,html-keyboard-response,359,211130,0.0-1.0-72.0-0.0-1.0-0.0,0,0,4,,,,,,70.0,,,,,,,,,,,,,,,,,,,,,,,,,,,,,,,,28.5,0.81,,,,,
360,,isi,,html-keyboard-response,360,211232,0.0-1.0-72.0-0.0-2.0,0,0,4,,,,,,,,,,,,,,,,,,,,,,,,,,,,,,,,,,,,,,30.0,1.5,,,,,
361,,feedback,,html-keyboard-response,361,212241,0.0-1.0-72.0-0.0-3.0-0.0,0,0,4,,,,,,70.0,,,,,,,,,,,,,,,,,,,,,,,,,,,,,,,,31.0,1.0,,,,,
362,,iti,,html-keyboard-response,362,212345,0.0-1.0-72.0-0.0-5.0,0,0,4,,,,,,,,,,,,,,,,,,,,,,,,,,,,,,,,,,,,,,32.0,1.0,,,,,
363,,choice,,html-keyboard-response,363,213009,0.0-1.0-73.0-0.0-0.0,0,0,4,,660.0,,,51.0,71.0,71.0,3500.0,2000.0,0.0,2.0,0.0,20-80,,0.0,desk,stool,20.0,80.0,desk4,stool11,40.0,60.0,AbbeyMiniRadialBIG(1).jpg,ASTOOL28.jpg,/static/Category_learning/Stimuli/Experimental_stims/desk/AbbeyMiniRadialBIG(1).jpg,/static/Category_learning/Stimuli/Experimental_stims/stool/ASTOOL28.jpg,0.0,stool,desk,80.0,20.0,stool11,desk4,60.0,40.0,0.0,32.66,0.66,,,,,
364,,confirmation,,html-keyboard-response,364,213856,0.0-1.0-73.0-0.0-1.0-0.0,0,0,4,,,,,,71.0,,,,,,,,,,,,,,,,,,,,,,,,,,,,,,,,33.5,0.84,,,,,
365,,isi,,html-keyboard-response,365,213960,0.0-1.0-73.0-0.0-2.0,0,0,4,,,,,,,,,,,,,,,,,,,,,,,,,,,,,,,,,,,,,,37.0,3.5,,,,,
366,,feedback,,html-keyboard-response,366,214967,0.0-1.0-73.0-0.0-3.0-0.0,0,0,4,,,,,,71.0,,,,,,,,,,,,,,,,,,,,,,,,,,,,,,,,38.0,1.0,,,,,
367,,iti,,html-keyboard-response,367,215073,0.0-1.0-73.0-0.0-5.0,0,0,4,,,,,,,,,,,,,,,,,,,,,,,,,,,,,,,,,,,,,,40.0,2.0,,,,,
368,,choice,,html-keyboard-response,368,216060,0.0-1.0-74.0-0.0-0.0,0,0,4,,983.0,,,50.0,72.0,72.0,2000.0,1500.0,0.0,2.0,0.0,40-60,,0.0,license plate,poker card,40.0,60.0,license plate1,poker card2,40.0,60.0,il-423-3784.jpg,22864716.thl.jpg,/static/Category_learning/Stimuli/Experimental_stims/license plate/il-423-3784.jpg,/static/Category_learning/Stimuli/Experimental_stims/poker card/22864716.thl.jpg,1.0,license plate,poker card,40.0,60.0,license plate1,poker card2,40.0,60.0,0.0,40.983000000000004,0.983,,,,,
369,,confirmation,,html-keyboard-response,369,216581,0.0-1.0-74.0-0.0-1.0-0.0,0,0,4,,,,,,72.0,,,,,,,,,,,,,,,,,,,,,,,,,,,,,,,,41.5,0.517,,,,,
370,,isi,,html-keyboard-response,370,216686,0.0-1.0-74.0-0.0-2.0,0,0,4,,,,,,,,,,,,,,,,,,,,,,,,,,,,,,,,,,,,,,43.5,2.0,,,,,
371,,feedback,,html-keyboard-response,371,217691,0.0-1.0-74.0-0.0-3.0-0.0,0,0,4,,,,,,72.0,,,,,,,,,,,,,,,,,,,,,,,,,,,,,,,,44.5,1.0,,,,,
372,,iti,,html-keyboard-response,372,217796,0.0-1.0-74.0-0.0-5.0,0,0,4,,,,,,,,,,,,,,,,,,,,,,,,,,,,,,,,,,,,,,46.0,1.5,,,,,
373,,choice,,html-keyboard-response,373,219301,0.0-1.0-75.0-0.0-0.0,0,0,4,,,,,,73.0,73.0,1500.0,1500.0,0.0,2.0,1.0,20-20,1.0,,fan,fan,20.0,20.0,fan2,fan4,40.0,0.0,507349_sk_lg.jpg,AFAN39.jpg,/static/Category_learning/Stimuli/Experimental_stims/fan/507349_sk_lg.jpg,/static/Category_learning/Stimuli/Experimental_stims/fan/AFAN39.jpg,,,,,,,,,,1.0,47.5,1.5,,,,,
374,,isi,,html-keyboard-response,374,219406,0.0-1.0-75.0-0.0-2.0,0,0,4,,,,,,,,,,,,,,,,,,,,,,,,,,,,,,,,,,,,,,49.0,1.5,,,,,
375,,no_response,,html-keyboard-response,375,220411,0.0-1.0-75.0-0.0-4.0-0.0,0,0,4,,,,,,,,,,,,,,,,,,,,,,,,,,,,,,,,,,,,,,50.0,1.0,,,,,
376,,iti,,html-keyboard-response,376,220531,0.0-1.0-75.0-0.0-5.0,0,0,4,,,,,,,,,,,,,,,,,,,,,,,,,,,,,,,,,,,,,,51.5,1.5,,,,,
377,,choice,,html-keyboard-response,377,221165,0.0-1.0-75.0-0.1-0.1,0,0,4,,631.0,,,51.0,73.0,73.0,1500.0,1500.0,0.0,2.0,1.0,20-20,1.0,,fan,fan,20.0,20.0,fan2,fan4,40.0,0.0,507349_sk_lg.jpg,AFAN39.jpg,/static/Category_learning/Stimuli/Experimental_stims/fan/507349_sk_lg.jpg,/static/Category_learning/Stimuli/Experimental_stims/fan/AFAN39.jpg,0.0,fan,fan,20.0,20.0,fan4,fan2,0.0,40.0,0.0,52.131,0.631,,,,,
378,,confirmation,,html-keyboard-response,378,222037,0.0-1.0-75.0-0.1-1.1-0.1,0,0,4,,,,,,73.0,,,,,,,,,,,,,,,,,,,,,,,,,,,,,,,,53.0,0.8690000000000001,,,,,
379,,isi,,html-keyboard-response,379,222139,0.0-1.0-75.0-0.1-2.1,0,0,4,,,,,,,,,,,,,,,,,,,,,,,,,,,,,,,,,,,,,,54.5,1.5,,,,,
380,,feedback,,html-keyboard-response,380,223145,0.0-1.0-75.0-0.1-3.1-0.1,0,0,4,,,,,,73.0,,,,,,,,,,,,,,,,,,,,,,,,,,,,,,,,55.5,1.0,,,,,
381,,iti,,html-keyboard-response,381,223248,0.0-1.0-75.0-0.1-5.1,0,0,4,,,,,,,,,,,,,,,,,,,,,,,,,,,,,,,,,,,,,,57.0,1.5,,,,,
382,,choice,,html-keyboard-response,382,224073,0.0-1.0-76.0-0.0-0.0,0,0,4,,822.0,,,51.0,74.0,74.0,1000.0,2000.0,0.0,2.0,0.0,20-60,,0.0,flashlight,poker card,20.0,60.0,flashlight8,poker card12,40.0,80.0,Streamlight-Stinger-Rechargeable-Flashlight-with-Charger-Black-75014-B00008BFSI-L.jpg,22865676.thl.jpg,/static/Category_learning/Stimuli/Experimental_stims/flashlight/Streamlight-Stinger-Rechargeable-Flashlight-with-Charger-Black-75014-B00008BFSI-L.jpg,/static/Category_learning/Stimuli/Experimental_stims/poker card/22865676.thl.jpg,0.0,poker card,flashlight,60.0,20.0,poker card12,flashlight8,80.0,40.0,0.0,57.821999999999996,0.8220000000000001,,,,,
383,,confirmation,,html-keyboard-response,383,224757,0.0-1.0-76.0-0.0-1.0-0.0,0,0,4,,,,,,74.0,,,,,,,,,,,,,,,,,,,,,,,,,,,,,,,,58.5,0.6779999999999999,,,,,
384,,isi,,html-keyboard-response,384,224861,0.0-1.0-76.0-0.0-2.0,0,0,4,,,,,,,,,,,,,,,,,,,,,,,,,,,,,,,,,,,,,,59.5,1.0,,,,,
385,,feedback,,html-keyboard-response,385,225868,0.0-1.0-76.0-0.0-3.0-0.0,0,0,4,,,,,,74.0,,,,,,,,,,,,,,,,,,,,,,,,,,,,,,,,60.5,1.0,,,,,
386,,iti,,html-keyboard-response,386,225972,0.0-1.0-76.0-0.0-5.0,0,0,4,,,,,,,,,,,,,,,,,,,,,,,,,,,,,,,,,,,,,,62.5,2.0,,,,,
387,,choice,,html-keyboard-response,387,226765,0.0-1.0-77.0-0.0-0.0,0,0,4,,790.0,,,51.0,75.0,75.0,1500.0,1000.0,0.0,2.0,0.0,20-80,,0.0,bongo,stool,20.0,80.0,bongo3,stool4,20.0,60.0,26390697.thl.jpg,ASTOOL22.jpg,/static/Category_learning/Stimuli/Experimental_stims/bongo/26390697.thl.jpg,/static/Category_learning/Stimuli/Experimental_stims/stool/ASTOOL22.jpg,0.0,stool,bongo,80.0,20.0,stool4,bongo3,60.0,20.0,0.0,63.29,0.79,,,,,
388,,confirmation,,html-keyboard-response,388,227480,0.0-1.0-77.0-0.0-1.0-0.0,0,0,4,,,,,,75.0,,,,,,,,,,,,,,,,,,,,,,,,,,,,,,,,64.0,0.71,,,,,
389,,isi,,html-keyboard-response,389,227586,0.0-1.0-77.0-0.0-2.0,0,0,4,,,,,,,,,,,,,,,,,,,,,,,,,,,,,,,,,,,,,,65.5,1.5,,,,,
390,,feedback,,html-keyboard-response,390,228590,0.0-1.0-77.0-0.0-3.0-0.0,0,0,4,,,,,,75.0,,,,,,,,,,,,,,,,,,,,,,,,,,,,,,,,66.5,1.0,,,,,
391,,iti,,html-keyboard-response,391,228692,0.0-1.0-77.0-0.0-5.0,0,0,4,,,,,,,,,,,,,,,,,,,,,,,,,,,,,,,,,,,,,,67.5,1.0,,,,,
392,,choice,,html-keyboard-response,392,229516,0.0-1.0-78.0-0.0-0.0,0,0,4,,822.0,,,51.0,76.0,76.0,3000.0,2000.0,0.0,2.0,0.0,40-40,,,makeup compact,motorcycle,40.0,40.0,makeup compact6,motorcycle8,20.0,20.0,P0754_hero.jpg,Motorcycle903425j2.jpg,/static/Category_learning/Stimuli/Experimental_stims/makeup compact/P0754_hero.jpg,/static/Category_learning/Stimuli/Experimental_stims/motorcycle/Motorcycle903425j2.jpg,0.0,motorcycle,makeup compact,40.0,40.0,motorcycle8,makeup compact6,20.0,20.0,0.0,68.322,0.8220000000000001,,,,,
393,,confirmation,,html-keyboard-response,393,230198,0.0-1.0-78.0-0.0-1.0-0.0,0,0,4,,,,,,76.0,,,,,,,,,,,,,,,,,,,,,,,,,,,,,,,,69.0,0.6779999999999999,,,,,
394,,isi,,html-keyboard-response,394,230301,0.0-1.0-78.0-0.0-2.0,0,0,4,,,,,,,,,,,,,,,,,,,,,,,,,,,,,,,,,,,,,,72.0,3.0,,,,,
395,,feedback,,html-keyboard-response,395,231304,0.0-1.0-78.0-0.0-3.0-0.0,0,0,4,,,,,,76.0,,,,,,,,,,,,,,,,,,,,,,,,,,,,,,,,73.0,1.0,,,,,
396,,iti,,html-keyboard-response,396,231406,0.0-1.0-78.0-0.0-5.0,0,0,4,,,,,,,,,,,,,,,,,,,,,,,,,,,,,,,,,,,,,,75.0,2.0,,,,,
397,,choice,,html-keyboard-response,397,232130,0.0-1.0-79.0-0.0-0.0,0,0,4,,722.0,,,51.0,77.0,77.0,3000.0,1000.0,0.0,2.0,1.0,60-60,1.0,,poker card,poker card,60.0,60.0,poker card9,poker card12,80.0,80.0,9817230.thl.jpg,22865676.thl.jpg,/static/Category_learning/Stimuli/Experimental_stims/poker card/9817230.thl.jpg,/static/Category_learning/Stimuli/Experimental_stims/poker card/22865676.thl.jpg,0.0,poker card,poker card,60.0,60.0,poker card12,poker card9,80.0,80.0,0.0,75.722,0.722,,,,,
398,,confirmation,,html-keyboard-response,398,232913,0.0-1.0-79.0-0.0-1.0-0.0,0,0,4,,,,,,77.0,,,,,,,,,,,,,,,,,,,,,,,,,,,,,,,,76.5,0.778,,,,,
399,,isi,,html-keyboard-response,399,233017,0.0-1.0-79.0-0.0-2.0,0,0,4,,,,,,,,,,,,,,,,,,,,,,,,,,,,,,,,,,,,,,79.5,3.0,,,,,
400,,feedback,,html-keyboard-response,400,234022,0.0-1.0-79.0-0.0-3.0-0.0,0,0,4,,,,,,77.0,,,,,,,,,,,,,,,,,,,,,,,,,,,,,,,,80.5,1.0,,,,,
401,,iti,,html-keyboard-response,401,234124,0.0-1.0-79.0-0.0-5.0,0,0,4,,,,,,,,,,,,,,,,,,,,,,,,,,,,,,,,,,,,,,81.5,1.0,,,,,
402,,choice,,html-keyboard-response,402,234934,0.0-1.0-80.0-0.0-0.0,0,0,4,,807.0,,,50.0,78.0,78.0,1500.0,1000.0,0.0,2.0,0.0,60-60,,,patio lounge chair,pen,60.0,60.0,patio lounge chair9,pen6,60.0,40.0,43-3.jpg,executive_pen2.jpg,/static/Category_learning/Stimuli/Experimental_stims/patio lounge chair/43-3.jpg,/static/Category_learning/Stimuli/Experimental_stims/pen/executive_pen2.jpg,1.0,patio lounge chair,pen,60.0,60.0,patio lounge chair9,pen6,60.0,40.0,0.0,82.307,0.807,,,,,
403,,confirmation,,html-keyboard-response,403,235630,0.0-1.0-80.0-0.0-1.0-0.0,0,0,4,,,,,,78.0,,,,,,,,,,,,,,,,,,,,,,,,,,,,,,,,83.0,0.693,,,,,
404,,isi,,html-keyboard-response,404,235737,0.0-1.0-80.0-0.0-2.0,0,0,4,,,,,,,,,,,,,,,,,,,,,,,,,,,,,,,,,,,,,,84.5,1.5,,,,,
405,,feedback,,html-keyboard-response,405,236741,0.0-1.0-80.0-0.0-3.0-0.0,0,0,4,,,,,,78.0,,,,,,,,,,,,,,,,,,,,,,,,,,,,,,,,85.5,1.0,,,,,
406,,iti,,html-keyboard-response,406,236846,0.0-1.0-80.0-0.0-5.0,0,0,4,,,,,,,,,,,,,,,,,,,,,,,,,,,,,,,,,,,,,,86.5,1.0,,,,,
407,,choice,,html-keyboard-response,407,237559,0.0-1.0-81.0-0.0-0.0,0,0,4,,709.0,,,51.0,79.0,79.0,1000.0,2000.0,0.0,2.0,1.0,80-80,1.0,,stool,stool,80.0,80.0,stool9,stool11,100.0,60.0,ASTOOL7.jpg,ASTOOL28.jpg,/static/Category_learning/Stimuli/Experimental_stims/stool/ASTOOL7.jpg,/static/Category_learning/Stimuli/Experimental_stims/stool/ASTOOL28.jpg,0.0,stool,stool,80.0,80.0,stool11,stool9,60.0,100.0,0.0,87.209,0.7090000000000001,,,,,
408,,confirmation,,html-keyboard-response,408,238356,0.0-1.0-81.0-0.0-1.0-0.0,0,0,4,,,,,,79.0,,,,,,,,,,,,,,,,,,,,,,,,,,,,,,,,88.0,0.7909999999999999,,,,,
409,,isi,,html-keyboard-response,409,238459,0.0-1.0-81.0-0.0-2.0,0,0,4,,,,,,,,,,,,,,,,,,,,,,,,,,,,,,,,,,,,,,89.0,1.0,,,,,
410,,feedback,,html-keyboard-response,410,239466,0.0-1.0-81.0-0.0-3.0-0.0,0,0,4,,,,,,79.0,,,,,,,,,,,,,,,,,,,,,,,,,,,,,,,,90.0,1.0,,,,,
411,,iti,,html-keyboard-response,411,239569,0.0-1.0-81.0-0.0-5.0,0,0,4,,,,,,,,,,,,,,,,,,,,,,,,,,,,,,,,,,,,,,92.0,2.0,,,,,
412,,choice,,html-keyboard-response,412,240198,0.0-1.0-82.0-0.0-0.0,0,0,4,,626.0,,,51.0,80.0,80.0,2000.0,1000.0,0.0,2.0,0.0,20-60,,0.0,bowl,necklace,20.0,60.0,bowl7,necklace4,20.0,40.0,Abowl54.jpg,emerald_diamond_necklace.jpg,/static/Category_learning/Stimuli/Experimental_stims/bowl/Abowl54.jpg,/static/Category_learning/Stimuli/Experimental_stims/necklace/emerald_diamond_necklace.jpg,0.0,necklace,bowl,60.0,20.0,necklace4,bowl7,40.0,20.0,0.0,92.626,0.626,,,,,
413,,confirmation,,html-keyboard-response,413,241080,0.0-1.0-82.0-0.0-1.0-0.0,0,0,4,,,,,,80.0,,,,,,,,,,,,,,,,,,,,,,,,,,,,,,,,93.5,0.8740000000000001,,,,,
414,,isi,,html-keyboard-response,414,241187,0.0-1.0-82.0-0.0-2.0,0,0,4,,,,,,,,,,,,,,,,,,,,,,,,,,,,,,,,,,,,,,95.5,2.0,,,,,
415,,feedback,,html-keyboard-response,415,242192,0.0-1.0-82.0-0.0-3.0-0.0,0,0,4,,,,,,80.0,,,,,,,,,,,,,,,,,,,,,,,,,,,,,,,,96.5,1.0,,,,,
416,,iti,,html-keyboard-response,416,242299,0.0-1.0-82.0-0.0-5.0,0,0,4,,,,,,,,,,,,,,,,,,,,,,,,,,,,,,,,,,,,,,97.5,1.0,,,,,
417,,choice,,html-keyboard-response,417,243382,0.0-1.0-83.0-0.0-0.0,0,0,4,,1080.0,,,50.0,81.0,81.0,1500.0,1000.0,0.0,2.0,0.0,20-80,,1.0,vase,bongo,80.0,20.0,vase11,bongo12,100.0,40.0,Ethnic_Ceramic_Vase.jpg,26686609.thl.jpg,/static/Category_learning/Stimuli/Experimental_stims/vase/Ethnic_Ceramic_Vase.jpg,/static/Category_learning/Stimuli/Experimental_stims/bongo/26686609.thl.jpg,1.0,vase,bongo,80.0,20.0,vase11,bongo12,100.0,40.0,0.0,98.58,1.08,,,,,
418,,confirmation,,html-keyboard-response,418,243807,0.0-1.0-83.0-0.0-1.0-0.0,0,0,4,,,,,,81.0,,,,,,,,,,,,,,,,,,,,,,,,,,,,,,,,99.0,0.42,,,,,
419,,isi,,html-keyboard-response,419,243911,0.0-1.0-83.0-0.0-2.0,0,0,4,,,,,,,,,,,,,,,,,,,,,,,,,,,,,,,,,,,,,,100.5,1.5,,,,,
420,,feedback,,html-keyboard-response,420,244918,0.0-1.0-83.0-0.0-3.0-0.0,0,0,4,,,,,,81.0,,,,,,,,,,,,,,,,,,,,,,,,,,,,,,,,101.5,1.0,,,,,
421,,iti,,html-keyboard-response,421,245024,0.0-1.0-83.0-0.0-5.0,0,0,4,,,,,,,,,,,,,,,,,,,,,,,,,,,,,,,,,,,,,,102.5,1.0,,,,,
422,,choice,,html-keyboard-response,422,245927,0.0-1.0-84.0-0.0-0.0,0,0,4,,899.0,,,50.0,82.0,82.0,1000.0,1500.0,0.0,2.0,0.0,40-80,,1.0,yarn,makeup compact,80.0,40.0,yarn10,makeup compact7,60.0,20.0,revelation-yarn.jpg,P187133_hero.jpg,/static/Category_learning/Stimuli/Experimental_stims/yarn/revelation-yarn.jpg,/static/Category_learning/Stimuli/Experimental_stims/makeup compact/P187133_hero.jpg,1.0,yarn,makeup compact,80.0,40.0,yarn10,makeup compact7,60.0,20.0,0.0,103.399,0.899,,,,,
423,,confirmation,,html-keyboard-response,423,246532,0.0-1.0-84.0-0.0-1.0-0.0,0,0,4,,,,,,82.0,,,,,,,,,,,,,,,,,,,,,,,,,,,,,,,,104.0,0.601,,,,,
424,,isi,,html-keyboard-response,424,246637,0.0-1.0-84.0-0.0-2.0,0,0,4,,,,,,,,,,,,,,,,,,,,,,,,,,,,,,,,,,,,,,105.0,1.0,,,,,
425,,feedback,,html-keyboard-response,425,247643,0.0-1.0-84.0-0.0-3.0-0.0,0,0,4,,,,,,82.0,,,,,,,,,,,,,,,,,,,,,,,,,,,,,,,,106.0,1.0,,,,,
426,,iti,,html-keyboard-response,426,247750,0.0-1.0-84.0-0.0-5.0,0,0,4,,,,,,,,,,,,,,,,,,,,,,,,,,,,,,,,,,,,,,107.5,1.5,,,,,
427,,choice,,html-keyboard-response,427,248685,0.0-1.0-85.0-0.0-0.0,0,0,4,,931.0,,,51.0,83.0,83.0,1000.0,2000.0,0.0,2.0,1.0,80-80,1.0,,yarn,yarn,80.0,80.0,yarn10,yarn2,60.0,60.0,revelation-yarn.jpg,Aballofyarn66.jpg,/static/Category_learning/Stimuli/Experimental_stims/yarn/revelation-yarn.jpg,/static/Category_learning/Stimuli/Experimental_stims/yarn/Aballofyarn66.jpg,0.0,yarn,yarn,80.0,80.0,yarn2,yarn10,60.0,60.0,0.0,108.431,0.9309999999999999,,,,,
428,,confirmation,,html-keyboard-response,428,249257,0.0-1.0-85.0-0.0-1.0-0.0,0,0,4,,,,,,83.0,,,,,,,,,,,,,,,,,,,,,,,,,,,,,,,,109.0,0.569,,,,,
429,,isi,,html-keyboard-response,429,249364,0.0-1.0-85.0-0.0-2.0,0,0,4,,,,,,,,,,,,,,,,,,,,,,,,,,,,,,,,,,,,,,110.0,1.0,,,,,
430,,feedback,,html-keyboard-response,430,250371,0.0-1.0-85.0-0.0-3.0-0.0,0,0,4,,,,,,83.0,,,,,,,,,,,,,,,,,,,,,,,,,,,,,,,,111.0,1.0,,,,,
431,,iti,,html-keyboard-response,431,250477,0.0-1.0-85.0-0.0-5.0,0,0,4,,,,,,,,,,,,,,,,,,,,,,,,,,,,,,,,,,,,,,113.0,2.0,,,,,
432,,choice,,html-keyboard-response,432,251179,0.0-1.0-86.0-0.0-0.0,0,0,4,,698.0,,,50.0,84.0,84.0,1500.0,1000.0,0.0,2.0,0.0,20-60,,1.0,sofa,door knob,60.0,20.0,sofa14,door knob3,40.0,40.0,HENRY-Sofa-falg8068-05-72X34X34.jpg,020f7ec6-df08-40fa-b3a5-0dcfb762f085_4.jpg,/static/Category_learning/Stimuli/Experimental_stims/sofa/HENRY-Sofa-falg8068-05-72X34X34.jpg,/static/Category_learning/Stimuli/Experimental_stims/door knob/020f7ec6-df08-40fa-b3a5-0dcfb762f085_4.jpg,1.0,sofa,door knob,60.0,20.0,sofa14,door knob3,40.0,40.0,0.0,113.698,0.698,,,,,
433,,confirmation,,html-keyboard-response,433,251988,0.0-1.0-86.0-0.0-1.0-0.0,0,0,4,,,,,,84.0,,,,,,,,,,,,,,,,,,,,,,,,,,,,,,,,114.5,0.802,,,,,
434,,isi,,html-keyboard-response,434,252091,0.0-1.0-86.0-0.0-2.0,0,0,4,,,,,,,,,,,,,,,,,,,,,,,,,,,,,,,,,,,,,,116.0,1.5,,,,,
435,,feedback,,html-keyboard-response,435,253097,0.0-1.0-86.0-0.0-3.0-0.0,0,0,4,,,,,,84.0,,,,,,,,,,,,,,,,,,,,,,,,,,,,,,,,117.0,1.0,,,,,
436,,iti,,html-keyboard-response,436,253202,0.0-1.0-86.0-0.0-5.0,0,0,4,,,,,,,,,,,,,,,,,,,,,,,,,,,,,,,,,,,,,,118.0,1.0,,,,,
437,,choice,,html-keyboard-response,437,254236,0.0-1.0-87.0-0.0-0.0,0,0,4,,1031.0,,,51.0,85.0,85.0,3000.0,1000.0,0.0,2.0,1.0,60-60,1.0,,small table,small table,60.0,60.0,small table4,small table6,40.0,80.0,ACOFTABLE.jpg,ATABLE88.jpg,/static/Category_learning/Stimuli/Experimental_stims/small table/ACOFTABLE.jpg,/static/Category_learning/Stimuli/Experimental_stims/small table/ATABLE88.jpg,0.0,small table,small table,60.0,60.0,small table6,small table4,80.0,40.0,0.0,119.031,1.031,,,,,
438,,confirmation,,html-keyboard-response,438,254709,0.0-1.0-87.0-0.0-1.0-0.0,0,0,4,,,,,,85.0,,,,,,,,,,,,,,,,,,,,,,,,,,,,,,,,119.5,0.469,,,,,
439,,isi,,html-keyboard-response,439,254814,0.0-1.0-87.0-0.0-2.0,0,0,4,,,,,,,,,,,,,,,,,,,,,,,,,,,,,,,,,,,,,,122.5,3.0,,,,,
440,,feedback,,html-keyboard-response,440,255821,0.0-1.0-87.0-0.0-3.0-0.0,0,0,4,,,,,,85.0,,,,,,,,,,,,,,,,,,,,,,,,,,,,,,,,123.5,1.0,,,,,
441,,iti,,html-keyboard-response,441,255928,0.0-1.0-87.0-0.0-5.0,0,0,4,,,,,,,,,,,,,,,,,,,,,,,,,,,,,,,,,,,,,,124.5,1.0,,,,,
442,,choice,,html-keyboard-response,442,257252,0.0-1.0-88.0-0.0-0.0,0,0,4,,1321.0,,,50.0,86.0,86.0,2000.0,1500.0,0.0,2.0,0.0,20-20,,,fan,bowl,20.0,20.0,fan3,bowl1,20.0,0.0,CFT401.jpg,ABOWLS6.jpg,/static/Category_learning/Stimuli/Experimental_stims/fan/CFT401.jpg,/static/Category_learning/Stimuli/Experimental_stims/bowl/ABOWLS6.jpg,1.0,fan,bowl,20.0,20.0,fan3,bowl1,20.0,0.0,0.0,125.821,1.321,,,,,
443,,confirmation,,html-keyboard-response,443,257436,0.0-1.0-88.0-0.0-1.0-0.0,0,0,4,,,,,,86.0,,,,,,,,,,,,,,,,,,,,,,,,,,,,,,,,126.0,0.179,,,,,
444,,isi,,html-keyboard-response,444,257540,0.0-1.0-88.0-0.0-2.0,0,0,4,,,,,,,,,,,,,,,,,,,,,,,,,,,,,,,,,,,,,,128.0,2.0,,,,,
445,,feedback,,html-keyboard-response,445,258546,0.0-1.0-88.0-0.0-3.0-0.0,0,0,4,,,,,,86.0,,,,,,,,,,,,,,,,,,,,,,,,,,,,,,,,129.0,1.0,,,,,
446,,iti,,html-keyboard-response,446,258653,0.0-1.0-88.0-0.0-5.0,0,0,4,,,,,,,,,,,,,,,,,,,,,,,,,,,,,,,,,,,,,,130.5,1.5,,,,,
447,,choice,,html-keyboard-response,447,259572,0.0-1.0-89.0-0.0-0.0,0,0,4,,915.0,,,51.0,87.0,87.0,1000.0,1500.0,0.0,2.0,1.0,20-20,1.0,,fan,fan,20.0,20.0,fan11,fan3,0.0,20.0,n_sf.jpg,CFT401.jpg,/static/Category_learning/Stimuli/Experimental_stims/fan/n_sf.jpg,/static/Category_learning/Stimuli/Experimental_stims/fan/CFT401.jpg,0.0,fan,fan,20.0,20.0,fan3,fan11,20.0,0.0,0.0,131.415,0.915,,,,,
448,,confirmation,,html-keyboard-response,448,260162,0.0-1.0-89.0-0.0-1.0-0.0,0,0,4,,,,,,87.0,,,,,,,,,,,,,,,,,,,,,,,,,,,,,,,,132.0,0.585,,,,,
449,,isi,,html-keyboard-response,449,260268,0.0-1.0-89.0-0.0-2.0,0,0,4,,,,,,,,,,,,,,,,,,,,,,,,,,,,,,,,,,,,,,133.0,1.0,,,,,
450,,feedback,,html-keyboard-response,450,261271,0.0-1.0-89.0-0.0-3.0-0.0,0,0,4,,,,,,87.0,,,,,,,,,,,,,,,,,,,,,,,,,,,,,,,,134.0,1.0,,,,,
451,,iti,,html-keyboard-response,451,261374,0.0-1.0-89.0-0.0-5.0,0,0,4,,,,,,,,,,,,,,,,,,,,,,,,,,,,,,,,,,,,,,135.5,1.5,,,,,
452,,choice,,html-keyboard-response,452,262175,0.0-1.0-90.0-0.0-0.0,0,0,4,,797.0,,,51.0,88.0,88.0,1000.0,1000.0,0.0,2.0,0.0,40-60,,0.0,hammer,power strip,40.0,60.0,hammer7,power strip13,60.0,60.0,hammer01.jpg,01dccef1-d4b2-4d2e-a317-f2ed46b70b4b_400.jpg,/static/Category_learning/Stimuli/Experimental_stims/hammer/hammer01.jpg,/static/Category_learning/Stimuli/Experimental_stims/power strip/01dccef1-d4b2-4d2e-a317-f2ed46b70b4b_400.jpg,0.0,power strip,hammer,60.0,40.0,power strip13,hammer7,60.0,60.0,0.0,136.297,0.797,,,,,
453,,confirmation,,html-keyboard-response,453,262883,0.0-1.0-90.0-0.0-1.0-0.0,0,0,4,,,,,,88.0,,,,,,,,,,,,,,,,,,,,,,,,,,,,,,,,137.0,0.703,,,,,
454,,isi,,html-keyboard-response,454,262987,0.0-1.0-90.0-0.0-2.0,0,0,4,,,,,,,,,,,,,,,,,,,,,,,,,,,,,,,,,,,,,,138.0,1.0,,,,,
455,,feedback,,html-keyboard-response,455,263991,0.0-1.0-90.0-0.0-3.0-0.0,0,0,4,,,,,,88.0,,,,,,,,,,,,,,,,,,,,,,,,,,,,,,,,139.0,1.0,,,,,
456,,iti,,html-keyboard-response,456,264095,0.0-1.0-90.0-0.0-5.0,0,0,4,,,,,,,,,,,,,,,,,,,,,,,,,,,,,,,,,,,,,,140.0,1.0,,,,,
457,,choice,,html-keyboard-response,457,265002,0.0-1.0-91.0-0.0-0.0,0,0,4,,904.0,,,51.0,89.0,89.0,1500.0,3500.0,0.0,2.0,0.0,20-60,,0.0,baby carriage,poker card,20.0,60.0,baby carriage10,poker card7,0.0,80.0,peg_perego_uno_blu.jpg,22864416.thl.jpg,/static/Category_learning/Stimuli/Experimental_stims/baby carriage/peg_perego_uno_blu.jpg,/static/Category_learning/Stimuli/Experimental_stims/poker card/22864416.thl.jpg,0.0,poker card,baby carriage,60.0,20.0,poker card7,baby carriage10,80.0,0.0,0.0,140.904,0.904,,,,,
458,,confirmation,,html-keyboard-response,458,265605,0.0-1.0-91.0-0.0-1.0-0.0,0,0,4,,,,,,89.0,,,,,,,,,,,,,,,,,,,,,,,,,,,,,,,,141.5,0.596,,,,,
459,,isi,,html-keyboard-response,459,265710,0.0-1.0-91.0-0.0-2.0,0,0,4,,,,,,,,,,,,,,,,,,,,,,,,,,,,,,,,,,,,,,143.0,1.5,,,,,
460,,feedback,,html-keyboard-response,460,266716,0.0-1.0-91.0-0.0-3.0-0.0,0,0,4,,,,,,89.0,,,,,,,,,,,,,,,,,,,,,,,,,,,,,,,,144.0,1.0,,,,,
461,,iti,,html-keyboard-response,461,266822,0.0-1.0-91.0-0.0-5.0,0,0,4,,,,,,,,,,,,,,,,,,,,,,,,,,,,,,,,,,,,,,147.5,3.5,,,,,
462,,choice,,html-keyboard-response,462,267640,0.0-1.0-92.0-0.0-0.0,0,0,4,,814.0,,,50.0,90.0,90.0,1000.0,1000.0,0.0,2.0,0.0,40-80,,1.0,vase,motorcycle,80.0,40.0,vase1,motorcycle9,60.0,40.0,Avase114.jpg,speedbike.jpg,/static/Category_learning/Stimuli/Experimental_stims/vase/Avase114.jpg,/static/Category_learning/Stimuli/Experimental_stims/motorcycle/speedbike.jpg,1.0,vase,motorcycle,80.0,40.0,vase1,motorcycle9,60.0,40.0,0.0,148.314,0.8140000000000001,,,,,
463,,confirmation,,html-keyboard-response,463,268332,0.0-1.0-92.0-0.0-1.0-0.0,0,0,4,,,,,,90.0,,,,,,,,,,,,,,,,,,,,,,,,,,,,,,,,149.0,0.6859999999999999,,,,,
464,,isi,,html-keyboard-response,464,268440,0.0-1.0-92.0-0.0-2.0,0,0,4,,,,,,,,,,,,,,,,,,,,,,,,,,,,,,,,,,,,,,150.0,1.0,,,,,
465,,feedback,,html-keyboard-response,465,269447,0.0-1.0-92.0-0.0-3.0-0.0,0,0,4,,,,,,90.0,,,,,,,,,,,,,,,,,,,,,,,,,,,,,,,,151.0,1.0,,,,,
466,,iti,,html-keyboard-response,466,269551,0.0-1.0-92.0-0.0-5.0,0,0,4,,,,,,,,,,,,,,,,,,,,,,,,,,,,,,,,,,,,,,152.0,1.0,,,,,
467,,choice,,html-keyboard-response,467,271055,0.0-1.0-93.0-0.0-0.0,0,0,4,,,,,,91.0,91.0,3500.0,3500.0,0.0,2.0,0.0,80-80,,,tent,train,80.0,80.0,tent9,train14,60.0,100.0,Red Canyon Tent.jpg,images-products-childcraft-g83501.jpg,/static/Category_learning/Stimuli/Experimental_stims/tent/Red Canyon Tent.jpg,/static/Category_learning/Stimuli/Experimental_stims/train/images-products-childcraft-g83501.jpg,,,,,,,,,,1.0,153.5,1.5,,,,,
468,,isi,,html-keyboard-response,468,271160,0.0-1.0-93.0-0.0-2.0,0,0,4,,,,,,,,,,,,,,,,,,,,,,,,,,,,,,,,,,,,,,157.0,3.5,,,,,
469,,no_response,,html-keyboard-response,469,272167,0.0-1.0-93.0-0.0-4.0-0.0,0,0,4,,,,,,,,,,,,,,,,,,,,,,,,,,,,,,,,,,,,,,158.0,1.0,,,,,
470,,iti,,html-keyboard-response,470,272288,0.0-1.0-93.0-0.0-5.0,0,0,4,,,,,,,,,,,,,,,,,,,,,,,,,,,,,,,,,,,,,,161.5,3.5,,,,,
471,,choice,,html-keyboard-response,471,272419,0.0-1.0-93.0-0.1-0.1,0,0,4,,128.0,,,50.0,91.0,91.0,3500.0,3500.0,0.0,2.0,0.0,80-80,,,tent,train,80.0,80.0,tent9,train14,60.0,100.0,Red Canyon Tent.jpg,images-products-childcraft-g83501.jpg,/static/Category_learning/Stimuli/Experimental_stims/tent/Red Canyon Tent.jpg,/static/Category_learning/Stimuli/Experimental_stims/train/images-products-childcraft-g83501.jpg,1.0,tent,train,80.0,80.0,tent9,train14,60.0,100.0,0.0,161.628,0.128,,,,,
472,,confirmation,,html-keyboard-response,472,273797,0.0-1.0-93.0-0.1-1.1-0.1,0,0,4,,,,,,91.0,,,,,,,,,,,,,,,,,,,,,,,,,,,,,,,,163.0,1.3719999999999999,,,,,
473,,isi,,html-keyboard-response,473,273902,0.0-1.0-93.0-0.1-2.1,0,0,4,,,,,,,,,,,,,,,,,,,,,,,,,,,,,,,,,,,,,,166.5,3.5,,,,,
474,,feedback,,html-keyboard-response,474,274907,0.0-1.0-93.0-0.1-3.1-0.1,0,0,4,,,,,,91.0,,,,,,,,,,,,,,,,,,,,,,,,,,,,,,,,167.5,1.0,,,,,
475,,iti,,html-keyboard-response,475,275015,0.0-1.0-93.0-0.1-5.1,0,0,4,,,,,,,,,,,,,,,,,,,,,,,,,,,,,,,,,,,,,,171.0,3.5,,,,,
476,,choice,,html-keyboard-response,476,275850,0.0-1.0-94.0-0.0-0.0,0,0,4,,832.0,,,50.0,92.0,92.0,1000.0,1000.0,0.0,2.0,0.0,20-60,,1.0,patio lounge chair,door knob,60.0,20.0,patio lounge chair5,door knob6,40.0,20.0,Steel_Assembling_Lounge.jpg,30fdcb17-b0fd-4f26-8cd8-11adde46fb79_4.jpg,/static/Category_learning/Stimuli/Experimental_stims/patio lounge chair/Steel_Assembling_Lounge.jpg,/static/Category_learning/Stimuli/Experimental_stims/door knob/30fdcb17-b0fd-4f26-8cd8-11adde46fb79_4.jpg,1.0,patio lounge chair,door knob,60.0,20.0,patio lounge chair5,door knob6,40.0,20.0,0.0,171.832,0.8320000000000001,,,,,
477,,confirmation,,html-keyboard-response,477,276523,0.0-1.0-94.0-0.0-1.0-0.0,0,0,4,,,,,,92.0,,,,,,,,,,,,,,,,,,,,,,,,,,,,,,,,172.5,0.6679999999999999,,,,,
478,,isi,,html-keyboard-response,478,276629,0.0-1.0-94.0-0.0-2.0,0,0,4,,,,,,,,,,,,,,,,,,,,,,,,,,,,,,,,,,,,,,173.5,1.0,,,,,
479,,feedback,,html-keyboard-response,479,277632,0.0-1.0-94.0-0.0-3.0-0.0,0,0,4,,,,,,92.0,,,,,,,,,,,,,,,,,,,,,,,,,,,,,,,,174.5,1.0,,,,,
480,,iti,,html-keyboard-response,480,277738,0.0-1.0-94.0-0.0-5.0,0,0,4,,,,,,,,,,,,,,,,,,,,,,,,,,,,,,,,,,,,,,175.5,1.0,,,,,
481,,choice,,html-keyboard-response,481,278663,0.0-1.0-95.0-0.0-0.0,0,0,4,,920.0,,,51.0,93.0,93.0,1000.0,1000.0,0.0,2.0,1.0,80-80,1.0,,stool,stool,80.0,80.0,stool4,stool5,60.0,60.0,ASTOOL22.jpg,ASTOOL23.jpg,/static/Category_learning/Stimuli/Experimental_stims/stool/ASTOOL22.jpg,/static/Category_learning/Stimuli/Experimental_stims/stool/ASTOOL23.jpg,0.0,stool,stool,80.0,80.0,stool5,stool4,60.0,60.0,0.0,176.42,0.92,,,,,
482,,confirmation,,html-keyboard-response,482,279247,0.0-1.0-95.0-0.0-1.0-0.0,0,0,4,,,,,,93.0,,,,,,,,,,,,,,,,,,,,,,,,,,,,,,,,177.0,0.58,,,,,
483,,isi,,html-keyboard-response,483,279353,0.0-1.0-95.0-0.0-2.0,0,0,4,,,,,,,,,,,,,,,,,,,,,,,,,,,,,,,,,,,,,,178.0,1.0,,,,,
484,,feedback,,html-keyboard-response,484,280360,0.0-1.0-95.0-0.0-3.0-0.0,0,0,4,,,,,,93.0,,,,,,,,,,,,,,,,,,,,,,,,,,,,,,,,179.0,1.0,,,,,
485,,iti,,html-keyboard-response,485,280465,0.0-1.0-95.0-0.0-5.0,0,0,4,,,,,,,,,,,,,,,,,,,,,,,,,,,,,,,,,,,,,,180.0,1.0,,,,,
486,,choice,,html-keyboard-response,486,281265,0.0-1.0-96.0-0.0-0.0,0,0,4,,796.0,,,51.0,94.0,94.0,2000.0,1500.0,0.0,2.0,0.0,40-80,,0.0,hat,yarn,40.0,80.0,hat3,yarn13,20.0,100.0,Astrawhat49.jpg,cool blue 2 hpy 2 sml.jpg,/static/Category_learning/Stimuli/Experimental_stims/hat/Astrawhat49.jpg,/static/Category_learning/Stimuli/Experimental_stims/yarn/cool blue 2 hpy 2 sml.jpg,0.0,yarn,hat,80.0,40.0,yarn13,hat3,100.0,20.0,0.0,180.796,0.7959999999999999,,,,,
487,,confirmation,,html-keyboard-response,487,281973,0.0-1.0-96.0-0.0-1.0-0.0,0,0,4,,,,,,94.0,,,,,,,,,,,,,,,,,,,,,,,,,,,,,,,,181.5,0.7040000000000001,,,,,
488,,isi,,html-keyboard-response,488,282081,0.0-1.0-96.0-0.0-2.0,0,0,4,,,,,,,,,,,,,,,,,,,,,,,,,,,,,,,,,,,,,,183.5,2.0,,,,,
489,,feedback,,html-keyboard-response,489,283087,0.0-1.0-96.0-0.0-3.0-0.0,0,0,4,,,,,,94.0,,,,,,,,,,,,,,,,,,,,,,,,,,,,,,,,184.5,1.0,,,,,
490,,iti,,html-keyboard-response,490,283191,0.0-1.0-96.0-0.0-5.0,0,0,4,,,,,,,,,,,,,,,,,,,,,,,,,,,,,,,,,,,,,,186.0,1.5,,,,,
491,,choice,,html-keyboard-response,491,284696,0.0-1.0-97.0-0.0-0.0,0,0,4,,,,,,95.0,95.0,1000.0,1500.0,0.0,2.0,0.0,40-60,,0.0,motorcycle,poker card,40.0,60.0,motorcycle11,poker card11,40.0,60.0,sportmotorcycle.jpg,9817013.thl.jpg,/static/Category_learning/Stimuli/Experimental_stims/motorcycle/sportmotorcycle.jpg,/static/Category_learning/Stimuli/Experimental_stims/poker card/9817013.thl.jpg,,,,,,,,,,1.0,187.5,1.5,,,,,
492,,isi,,html-keyboard-response,492,284801,0.0-1.0-97.0-0.0-2.0,0,0,4,,,,,,,,,,,,,,,,,,,,,,,,,,,,,,,,,,,,,,188.5,1.0,,,,,
493,,no_response,,html-keyboard-response,493,285806,0.0-1.0-97.0-0.0-4.0-0.0,0,0,4,,,,,,,,,,,,,,,,,,,,,,,,,,,,,,,,,,,,,,189.5,1.0,,,,,
494,,iti,,html-keyboard-response,494,285924,0.0-1.0-97.0-0.0-5.0,0,0,4,,,,,,,,,,,,,,,,,,,,,,,,,,,,,,,,,,,,,,191.0,1.5,,,,,
