,success,ttype,start_time,trial_type,trial_index,time_elapsed,internal_node_id,warning,missed_checkup,PID,view_history,rt,responses,repeat_instructions,key_press,index,trial_num,isi,iti,is_practice,block,old_trial,pair_type,within_category,high_cat_on_left,left_category,right_category,left_category_value,right_category_value,left_exemplar,right_exemplar,left_exemplar_value,right_exemplar_value,left_img,right_img,left_img_path,right_img_path,left_chosen,chosen_category,unchosen_category,chosen_category_value,unchosen_category_value,chosen_exemplar,unchosen_exemplar,chosen_exemplar_value,unchosen_exemplar_value,no_response,onset,duration,end_practice
0,True,full_screen,d05182022hr1314,fullscreen,0,1866,0.0-0.0,0,0,3,,,,,,,,,,,,,,,,,,,,,,,,,,,,,,,,,,,,,,,,
1,,category_learning_instructions,,instructions,1,4357,0.0-1.0-0.0-0.0,0,0,3,"[{""page_index"":0,""viewing_time"":1464},{""page_index"":1,""viewing_time"":190},{""page_index"":2,""viewing_time"":168},{""page_index"":3,""viewing_time"":168},{""page_index"":4,""viewing_time"":165},{""page_index"":5,""viewing_time"":167},{""page_index"":6,""viewing_time"":166}]",2489.0,,,,,,,,,,,,,,,,,,,,,,,,,,,,,,,,,,,,,,
2,,category_learning_comprehension_check,,survey-multi-choice,2,8521,0.0-1.0-0.0-1.0,0,0,3,,4159.0,"{""Q0"":""True"",""Q1"":""True"",""Q2"":""Stay the same"",""Q3"":""pointer finger for left and middle finger for right""}",0.0,,,,,,,,,,,,,,,,,,,,,,,,,,,,,,,,,,,,
3,,,,html-keyboard-response,3,9977,0.0-1.0-1.0,0,0,3,,1453.0,,,50.0,,,,,,,,,,,,,,,,,,,,,,,,,,,,,,,,,,,
4,,choice,,html-keyboard-response,4,10550,0.0-1.0-2.0-0.0,0,0,3,,569.0,,,50.0,0.0,0.0,1500.0,1000.0,1.0,0.0,0.0,20-80,,0.0,bagel,dumbbell,20.0,80.0,bagel1,dumbbell1,0.0,80.0,bagels_pumpernickel_large.jpg,31B64EN68AL._AA280_.jpg,/static/Category_learning/Stimuli/Practice_stims/bagel/bagels_pumpernickel_large.jpg,/static/Category_learning/Stimuli/Practice_stims/dumbbell/31B64EN68AL._AA280_.jpg,1.0,bagel,dumbbell,20.0,80.0,bagel1,dumbbell1,0.0,80.0,0.0,0.569,0.569,
5,,confirmation,,html-keyboard-response,5,11485,0.0-1.0-2.0-1.0-0.0,0,0,3,,,,,,0.0,,,,,,,,,,,,,,,,,,,,,,,,,,,,,,,,1.5,0.931,
6,,isi,,html-keyboard-response,6,11592,0.0-1.0-2.0-2.0,0,0,3,,,,,,,,,,,,,,,,,,,,,,,,,,,,,,,,,,,,,,3.0,1.5,
7,,feedback,,html-keyboard-response,7,12600,0.0-1.0-2.0-3.0-0.0,0,0,3,,,,,,0.0,,,,,,,,,,,,,,,,,,,,,,,,,,,,,,,,4.0,1.0,
8,,iti,,html-keyboard-response,8,12709,0.0-1.0-2.0-5.0,0,0,3,,,,,,,,,,,,,,,,,,,,,,,,,,,,,,,,,,,,,,5.0,1.0,
9,,choice,,html-keyboard-response,9,12925,0.0-1.0-3.0-0.0,0,0,3,,213.0,,,50.0,1.0,1.0,3000.0,1500.0,1.0,0.0,0.0,20-40,,1.0,calculator,bagel,40.0,20.0,calculator2,bagel2,20.0,20.0,22829064.thl.jpg,bagels_cinnraisin_large.jpg,/static/Category_learning/Stimuli/Practice_stims/calculator/22829064.thl.jpg,/static/Category_learning/Stimuli/Practice_stims/bagel/bagels_cinnraisin_large.jpg,1.0,calculator,bagel,40.0,20.0,calculator2,bagel2,20.0,20.0,0.0,5.213,0.213,
10,,confirmation,,html-keyboard-response,10,14220,0.0-1.0-3.0-1.0-0.0,0,0,3,,,,,,1.0,,,,,,,,,,,,,,,,,,,,,,,,,,,,,,,,6.5,1.287,
11,,isi,,html-keyboard-response,11,14328,0.0-1.0-3.0-2.0,0,0,3,,,,,,,,,,,,,,,,,,,,,,,,,,,,,,,,,,,,,,9.5,3.0,
12,,feedback,,html-keyboard-response,12,15335,0.0-1.0-3.0-3.0-0.0,0,0,3,,,,,,1.0,,,,,,,,,,,,,,,,,,,,,,,,,,,,,,,,10.5,1.0,
13,,iti,,html-keyboard-response,13,15440,0.0-1.0-3.0-5.0,0,0,3,,,,,,,,,,,,,,,,,,,,,,,,,,,,,,,,,,,,,,12.0,1.5,
14,,choice,,html-keyboard-response,14,16947,0.0-1.0-4.0-0.0,0,0,3,,,,,,2.0,2.0,2000.0,3000.0,1.0,0.0,0.0,60-80,,0.0,clock,dumbbell,60.0,80.0,clock2,dumbbell2,60.0,100.0,26373355.thl.jpg,31K8MR6TMBL._SS500_.jpg,/static/Category_learning/Stimuli/Practice_stims/clock/26373355.thl.jpg,/static/Category_learning/Stimuli/Practice_stims/dumbbell/31K8MR6TMBL._SS500_.jpg,,,,,,,,,,1.0,13.5,1.5,
15,,isi,,html-keyboard-response,15,17054,0.0-1.0-4.0-2.0,0,0,3,,,,,,,,,,,,,,,,,,,,,,,,,,,,,,,,,,,,,,15.5,2.0,
16,,no_response,,html-keyboard-response,16,18063,0.0-1.0-4.0-4.0-0.0,0,0,3,,,,,,,,,,,,,,,,,,,,,,,,,,,,,,,,,,,,,,16.5,1.0,
17,,iti,,html-keyboard-response,17,18169,0.0-1.0-4.0-5.0,0,0,3,,,,,,,,,,,,,,,,,,,,,,,,,,,,,,,,,,,,,,19.5,3.0,
18,,choice,,html-keyboard-response,18,18533,0.0-1.0-4.1-0.1,0,0,3,,361.0,,,50.0,2.0,2.0,2000.0,3000.0,1.0,0.0,0.0,60-80,,0.0,clock,dumbbell,60.0,80.0,clock2,dumbbell2,60.0,100.0,26373355.thl.jpg,31K8MR6TMBL._SS500_.jpg,/static/Category_learning/Stimuli/Practice_stims/clock/26373355.thl.jpg,/static/Category_learning/Stimuli/Practice_stims/dumbbell/31K8MR6TMBL._SS500_.jpg,1.0,clock,dumbbell,60.0,80.0,clock2,dumbbell2,60.0,100.0,0.0,19.861,0.361,
19,,confirmation,,html-keyboard-response,19,19678,0.0-1.0-4.1-1.1-0.1,0,0,3,,,,,,2.0,,,,,,,,,,,,,,,,,,,,,,,,,,,,,,,,21.0,1.139,
20,,isi,,html-keyboard-response,20,19784,0.0-1.0-4.1-2.1,0,0,3,,,,,,,,,,,,,,,,,,,,,,,,,,,,,,,,,,,,,,23.0,2.0,
21,,feedback,,html-keyboard-response,21,20793,0.0-1.0-4.1-3.1-0.1,0,0,3,,,,,,2.0,,,,,,,,,,,,,,,,,,,,,,,,,,,,,,,,24.0,1.0,
22,,iti,,html-keyboard-response,22,20899,0.0-1.0-4.1-5.1,0,0,3,,,,,,,,,,,,,,,,,,,,,,,,,,,,,,,,,,,,,,27.0,3.0,
23,,choice,,html-keyboard-response,23,21253,0.0-1.0-5.0-0.0,0,0,3,,351.0,,,50.0,3.0,3.0,1000.0,2000.0,1.0,0.0,0.0,40-80,,0.0,calculator,clock,40.0,60.0,calculator1,clock1,40.0,40.0,22829184.thl.jpg,Aalarmclock2.jpg,/static/Category_learning/Stimuli/Practice_stims/calculator/22829184.thl.jpg,/static/Category_learning/Stimuli/Practice_stims/clock/Aalarmclock2.jpg,1.0,calculator,clock,40.0,60.0,calculator1,clock1,40.0,40.0,0.0,27.351,0.351,
24,,confirmation,,html-keyboard-response,24,22411,0.0-1.0-5.0-1.0-0.0,0,0,3,,,,,,3.0,,,,,,,,,,,,,,,,,,,,,,,,,,,,,,,,28.5,1.149,
25,,isi,,html-keyboard-response,25,22516,0.0-1.0-5.0-2.0,0,0,3,,,,,,,,,,,,,,,,,,,,,,,,,,,,,,,,,,,,,,29.5,1.0,
26,,feedback,,html-keyboard-response,26,23523,0.0-1.0-5.0-3.0-0.0,0,0,3,,,,,,3.0,,,,,,,,,,,,,,,,,,,,,,,,,,,,,,,,30.5,1.0,
27,,iti,,html-keyboard-response,27,23629,0.0-1.0-5.0-5.0,0,0,3,,,,,,,,,,,,,,,,,,,,,,,,,,,,,,,,,,,,,,32.5,2.0,
28,,choice,,html-keyboard-response,28,23773,0.0-1.0-6.0-0.0,0,0,3,,141.0,,,50.0,4.0,4.0,2500.0,2500.0,1.0,0.0,0.0,20-60,,1.0,dumbbell,bagel,80.0,20.0,dumbbell3,bagel3,100.0,40.0,41K7QVRX50L._SS500_.jpg,photo-169.jpg,/static/Category_learning/Stimuli/Practice_stims/dumbbell/41K7QVRX50L._SS500_.jpg,/static/Category_learning/Stimuli/Practice_stims/bagel/photo-169.jpg,1.0,dumbbell,bagel,80.0,20.0,dumbbell3,bagel3,100.0,40.0,0.0,32.641,0.141,1.0
29,,confirmation,,html-keyboard-response,29,25140,0.0-1.0-6.0-1.0-0.0,0,0,3,,,,,,4.0,,,,,,,,,,,,,,,,,,,,,,,,,,,,,,,,34.0,1.359,
30,,isi,,html-keyboard-response,30,25246,0.0-1.0-6.0-2.0,0,0,3,,,,,,,,,,,,,,,,,,,,,,,,,,,,,,,,,,,,,,36.5,2.5,
31,,feedback,,html-keyboard-response,31,26253,0.0-1.0-6.0-3.0-0.0,0,0,3,,,,,,4.0,,,,,,,,,,,,,,,,,,,,,,,,,,,,,,,,37.5,1.0,
32,,iti,,html-keyboard-response,32,26360,0.0-1.0-6.0-5.0,0,0,3,,,,,,,,,,,,,,,,,,,,,,,,,,,,,,,,,,,,,,40.0,2.5,
33,,practice_over,,html-keyboard-response,33,26453,0.0-1.0-6.0-6.0-0.0,0,0,3,,91.0,,,50.0,4.0,,,,,,,,,,,,,,,,,,,,,,,,,,,,,,,,,,
34,,start_run,,html-keyboard-response,34,27859,0.0-1.0-6.0-6.0-1.0,0,0,3,,1404.0,,,84.0,,,,,,,,,,,,,,,,,,,,,,,,,,,,,,,,,,,
35,,choice,,html-keyboard-response,35,28254,0.0-1.0-7.0-0.0,0,0,3,,392.0,,,50.0,5.0,5.0,2000.0,2000.0,0.0,1.0,0.0,40-80,,1.0,desk,patio lounge chair,80.0,40.0,desk1,patio lounge chair15,100.0,40.0,ADESK11.jpg,phpThumb.jpg,/static/Category_learning/Stimuli/Experimental_stims/desk/ADESK11.jpg,/static/Category_learning/Stimuli/Experimental_stims/patio lounge chair/phpThumb.jpg,1.0,desk,patio lounge chair,80.0,40.0,desk1,patio lounge chair15,100.0,40.0,0.0,0.392,0.392,
36,,confirmation,,html-keyboard-response,36,29369,0.0-1.0-7.0-1.0-0.0,0,0,3,,,,,,5.0,,,,,,,,,,,,,,,,,,,,,,,,,,,,,,,,1.5,1.108,
37,,isi,,html-keyboard-response,37,29475,0.0-1.0-7.0-2.0,0,0,3,,,,,,,,,,,,,,,,,,,,,,,,,,,,,,,,,,,,,,3.5,2.0,
38,,feedback,,html-keyboard-response,38,30484,0.0-1.0-7.0-3.0-0.0,0,0,3,,,,,,5.0,,,,,,,,,,,,,,,,,,,,,,,,,,,,,,,,4.5,1.0,
39,,iti,,html-keyboard-response,39,30590,0.0-1.0-7.0-5.0,0,0,3,,,,,,,,,,,,,,,,,,,,,,,,,,,,,,,,,,,,,,6.5,2.0,
40,,choice,,html-keyboard-response,40,30700,0.0-1.0-8.0-0.0,0,0,3,,107.0,,,50.0,6.0,6.0,3000.0,1500.0,0.0,1.0,0.0,40-60,,0.0,poker card,tent,40.0,60.0,poker card12,tent9,20.0,60.0,22865676.thl.jpg,Red Canyon Tent.jpg,/static/Category_learning/Stimuli/Experimental_stims/poker card/22865676.thl.jpg,/static/Category_learning/Stimuli/Experimental_stims/tent/Red Canyon Tent.jpg,1.0,poker card,tent,40.0,60.0,poker card12,tent9,20.0,60.0,0.0,6.607,0.107,
41,,confirmation,,html-keyboard-response,41,32100,0.0-1.0-8.0-1.0-0.0,0,0,3,,,,,,6.0,,,,,,,,,,,,,,,,,,,,,,,,,,,,,,,,8.0,1.393,
42,,isi,,html-keyboard-response,42,32206,0.0-1.0-8.0-2.0,0,0,3,,,,,,,,,,,,,,,,,,,,,,,,,,,,,,,,,,,,,,11.0,3.0,
43,,feedback,,html-keyboard-response,43,33215,0.0-1.0-8.0-3.0-0.0,0,0,3,,,,,,6.0,,,,,,,,,,,,,,,,,,,,,,,,,,,,,,,,12.0,1.0,
44,,iti,,html-keyboard-response,44,33321,0.0-1.0-8.0-5.0,0,0,3,,,,,,,,,,,,,,,,,,,,,,,,,,,,,,,,,,,,,,13.5,1.5,
45,,choice,,html-keyboard-response,45,33386,0.0-1.0-9.0-0.0,0,0,3,,62.0,,,50.0,7.0,7.0,2000.0,1000.0,0.0,1.0,0.0,40-60,,0.0,pen,tent,40.0,60.0,pen6,tent6,20.0,80.0,executive_pen2.jpg,lighthouse_tent_edited_1-1.jpg,/static/Category_learning/Stimuli/Experimental_stims/pen/executive_pen2.jpg,/static/Category_learning/Stimuli/Experimental_stims/tent/lighthouse_tent_edited_1-1.jpg,1.0,pen,tent,40.0,60.0,pen6,tent6,20.0,80.0,0.0,13.562,0.062,
46,,confirmation,,html-keyboard-response,46,34831,0.0-1.0-9.0-1.0-0.0,0,0,3,,,,,,7.0,,,,,,,,,,,,,,,,,,,,,,,,,,,,,,,,15.0,1.438,
47,,isi,,html-keyboard-response,47,34937,0.0-1.0-9.0-2.0,0,0,3,,,,,,,,,,,,,,,,,,,,,,,,,,,,,,,,,,,,,,17.0,2.0,
48,,feedback,,html-keyboard-response,48,35944,0.0-1.0-9.0-3.0-0.0,0,0,3,,,,,,7.0,,,,,,,,,,,,,,,,,,,,,,,,,,,,,,,,18.0,1.0,
49,,iti,,html-keyboard-response,49,36047,0.0-1.0-9.0-5.0,0,0,3,,,,,,,,,,,,,,,,,,,,,,,,,,,,,,,,,,,,,,19.0,1.0,
50,,choice,,html-keyboard-response,50,36398,0.0-1.0-10.0-0.0,0,0,3,,347.0,,,50.0,8.0,8.0,1000.0,1000.0,0.0,1.0,0.0,20-60,,1.0,tent,lipstick,60.0,20.0,tent14,lipstick5,60.0,0.0,inflatable-tent.jpg,P35719_hero.jpg,/static/Category_learning/Stimuli/Experimental_stims/tent/inflatable-tent.jpg,/static/Category_learning/Stimuli/Experimental_stims/lipstick/P35719_hero.jpg,1.0,tent,lipstick,60.0,20.0,tent14,lipstick5,60.0,0.0,0.0,19.347,0.347,
51,,confirmation,,html-keyboard-response,51,37555,0.0-1.0-10.0-1.0-0.0,0,0,3,,,,,,8.0,,,,,,,,,,,,,,,,,,,,,,,,,,,,,,,,20.5,1.153,
52,,isi,,html-keyboard-response,52,37662,0.0-1.0-10.0-2.0,0,0,3,,,,,,,,,,,,,,,,,,,,,,,,,,,,,,,,,,,,,,21.5,1.0,
53,,feedback,,html-keyboard-response,53,38665,0.0-1.0-10.0-3.0-0.0,0,0,3,,,,,,8.0,,,,,,,,,,,,,,,,,,,,,,,,,,,,,,,,22.5,1.0,
54,,iti,,html-keyboard-response,54,38770,0.0-1.0-10.0-5.0,0,0,3,,,,,,,,,,,,,,,,,,,,,,,,,,,,,,,,,,,,,,23.5,1.0,
55,,choice,,html-keyboard-response,55,39365,0.0-1.0-11.0-0.0,0,0,3,,592.0,,,50.0,9.0,9.0,1000.0,1000.0,0.0,1.0,0.0,20-60,,1.0,watch,frame,60.0,20.0,watch8,frame6,60.0,40.0,2239.jpg,AFRAME123.jpg,/static/Category_learning/Stimuli/Experimental_stims/watch/2239.jpg,/static/Category_learning/Stimuli/Experimental_stims/frame/AFRAME123.jpg,1.0,watch,frame,60.0,20.0,watch8,frame6,60.0,40.0,0.0,24.092,0.592,
56,,confirmation,,html-keyboard-response,56,40280,0.0-1.0-11.0-1.0-0.0,0,0,3,,,,,,9.0,,,,,,,,,,,,,,,,,,,,,,,,,,,,,,,,25.0,0.908,
57,,isi,,html-keyboard-response,57,40387,0.0-1.0-11.0-2.0,0,0,3,,,,,,,,,,,,,,,,,,,,,,,,,,,,,,,,,,,,,,26.0,1.0,
58,,feedback,,html-keyboard-response,58,41395,0.0-1.0-11.0-3.0-0.0,0,0,3,,,,,,9.0,,,,,,,,,,,,,,,,,,,,,,,,,,,,,,,,27.0,1.0,
59,,iti,,html-keyboard-response,59,41500,0.0-1.0-11.0-5.0,0,0,3,,,,,,,,,,,,,,,,,,,,,,,,,,,,,,,,,,,,,,28.0,1.0,
60,,choice,,html-keyboard-response,60,41723,0.0-1.0-12.0-0.0,0,0,3,,220.0,,,50.0,10.0,10.0,3000.0,2000.0,0.0,1.0,1.0,40-60,0.0,,pen,watch,40.0,60.0,pen6,watch8,20.0,60.0,executive_pen2.jpg,2239.jpg,/static/Category_learning/Stimuli/Experimental_stims/pen/executive_pen2.jpg,/static/Category_learning/Stimuli/Experimental_stims/watch/2239.jpg,1.0,pen,watch,40.0,60.0,pen6,watch8,20.0,60.0,0.0,28.22,0.22,
61,,confirmation,,html-keyboard-response,61,43011,0.0-1.0-12.0-1.0-0.0,0,0,3,,,,,,10.0,,,,,,,,,,,,,,,,,,,,,,,,,,,,,,,,29.5,1.28,
62,,isi,,html-keyboard-response,62,43114,0.0-1.0-12.0-2.0,0,0,3,,,,,,,,,,,,,,,,,,,,,,,,,,,,,,,,,,,,,,32.5,3.0,
63,,feedback,,html-keyboard-response,63,44120,0.0-1.0-12.0-3.0-0.0,0,0,3,,,,,,10.0,,,,,,,,,,,,,,,,,,,,,,,,,,,,,,,,33.5,1.0,
64,,iti,,html-keyboard-response,64,44227,0.0-1.0-12.0-5.0,0,0,3,,,,,,,,,,,,,,,,,,,,,,,,,,,,,,,,,,,,,,35.5,2.0,
65,,choice,,html-keyboard-response,65,44555,0.0-1.0-13.0-0.0,0,0,3,,326.0,,,50.0,11.0,11.0,1000.0,2000.0,0.0,1.0,0.0,40-60,,1.0,tape,nail polish,60.0,40.0,tape12,nail polish5,60.0,40.0,Frog-Tape-Dispenser_F02218A2.jpg,182_t.jpg,/static/Category_learning/Stimuli/Experimental_stims/tape/Frog-Tape-Dispenser_F02218A2.jpg,/static/Category_learning/Stimuli/Experimental_stims/nail polish/182_t.jpg,1.0,tape,nail polish,60.0,40.0,tape12,nail polish5,60.0,40.0,0.0,35.826,0.326,
66,,confirmation,,html-keyboard-response,66,45737,0.0-1.0-13.0-1.0-0.0,0,0,3,,,,,,11.0,,,,,,,,,,,,,,,,,,,,,,,,,,,,,,,,37.0,1.174,
67,,isi,,html-keyboard-response,67,45844,0.0-1.0-13.0-2.0,0,0,3,,,,,,,,,,,,,,,,,,,,,,,,,,,,,,,,,,,,,,38.0,1.0,
68,,feedback,,html-keyboard-response,68,46851,0.0-1.0-13.0-3.0-0.0,0,0,3,,,,,,11.0,,,,,,,,,,,,,,,,,,,,,,,,,,,,,,,,39.0,1.0,
69,,iti,,html-keyboard-response,69,46957,0.0-1.0-13.0-5.0,0,0,3,,,,,,,,,,,,,,,,,,,,,,,,,,,,,,,,,,,,,,41.0,2.0,
70,,choice,,html-keyboard-response,70,48043,0.0-1.0-14.0-0.0,0,0,3,,1083.0,,,50.0,12.0,12.0,3500.0,1500.0,0.0,1.0,0.0,20-60,,1.0,tape,makeup compact,60.0,20.0,tape7,makeup compact6,60.0,40.0,tape dispenser.jpg,P0754_hero.jpg,/static/Category_learning/Stimuli/Experimental_stims/tape/tape dispenser.jpg,/static/Category_learning/Stimuli/Experimental_stims/makeup compact/P0754_hero.jpg,1.0,tape,makeup compact,60.0,20.0,tape7,makeup compact6,60.0,40.0,0.0,42.083,1.083,
71,,confirmation,,html-keyboard-response,71,48467,0.0-1.0-14.0-1.0-0.0,0,0,3,,,,,,12.0,,,,,,,,,,,,,,,,,,,,,,,,,,,,,,,,42.5,0.417,
72,,isi,,html-keyboard-response,72,48573,0.0-1.0-14.0-2.0,0,0,3,,,,,,,,,,,,,,,,,,,,,,,,,,,,,,,,,,,,,,46.0,3.5,
73,,feedback,,html-keyboard-response,73,49578,0.0-1.0-14.0-3.0-0.0,0,0,3,,,,,,12.0,,,,,,,,,,,,,,,,,,,,,,,,,,,,,,,,47.0,1.0,
74,,iti,,html-keyboard-response,74,49685,0.0-1.0-14.0-5.0,0,0,3,,,,,,,,,,,,,,,,,,,,,,,,,,,,,,,,,,,,,,48.5,1.5,
75,,choice,,html-keyboard-response,75,49997,0.0-1.0-15.0-0.0,0,0,3,,308.0,,,50.0,13.0,13.0,2000.0,1500.0,0.0,1.0,0.0,20-80,,1.0,bowl,microscope,80.0,20.0,bowl3,microscope15,60.0,40.0,ABOWL8.jpg,Amicroscope23.jpg,/static/Category_learning/Stimuli/Experimental_stims/bowl/ABOWL8.jpg,/static/Category_learning/Stimuli/Experimental_stims/microscope/Amicroscope23.jpg,1.0,bowl,microscope,80.0,20.0,bowl3,microscope15,60.0,40.0,0.0,48.808,0.308,
76,,confirmation,,html-keyboard-response,76,51194,0.0-1.0-15.0-1.0-0.0,0,0,3,,,,,,13.0,,,,,,,,,,,,,,,,,,,,,,,,,,,,,,,,50.0,1.192,
77,,isi,,html-keyboard-response,77,51301,0.0-1.0-15.0-2.0,0,0,3,,,,,,,,,,,,,,,,,,,,,,,,,,,,,,,,,,,,,,52.0,2.0,
78,,feedback,,html-keyboard-response,78,52310,0.0-1.0-15.0-3.0-0.0,0,0,3,,,,,,13.0,,,,,,,,,,,,,,,,,,,,,,,,,,,,,,,,53.0,1.0,
79,,iti,,html-keyboard-response,79,52418,0.0-1.0-15.0-5.0,0,0,3,,,,,,,,,,,,,,,,,,,,,,,,,,,,,,,,,,,,,,54.5,1.5,
80,,choice,,html-keyboard-response,80,52615,0.0-1.0-16.0-0.0,0,0,3,,193.0,,,50.0,14.0,14.0,1000.0,2000.0,0.0,1.0,0.0,40-80,,1.0,door knob,necklace,80.0,40.0,door knob10,necklace14,80.0,20.0,c02a578d-c6cc-44ca-8dd2-de8901e30bd7_4.jpg,necklascenew05.jpg,/static/Category_learning/Stimuli/Experimental_stims/door knob/c02a578d-c6cc-44ca-8dd2-de8901e30bd7_4.jpg,/static/Category_learning/Stimuli/Experimental_stims/necklace/necklascenew05.jpg,1.0,door knob,necklace,80.0,40.0,door knob10,necklace14,80.0,20.0,0.0,54.693,0.193,
81,,confirmation,,html-keyboard-response,81,53931,0.0-1.0-16.0-1.0-0.0,0,0,3,,,,,,14.0,,,,,,,,,,,,,,,,,,,,,,,,,,,,,,,,56.0,1.307,
82,,isi,,html-keyboard-response,82,54038,0.0-1.0-16.0-2.0,0,0,3,,,,,,,,,,,,,,,,,,,,,,,,,,,,,,,,,,,,,,57.0,1.0,
83,,feedback,,html-keyboard-response,83,55043,0.0-1.0-16.0-3.0-0.0,0,0,3,,,,,,14.0,,,,,,,,,,,,,,,,,,,,,,,,,,,,,,,,58.0,1.0,
84,,iti,,html-keyboard-response,84,55145,0.0-1.0-16.0-5.0,0,0,3,,,,,,,,,,,,,,,,,,,,,,,,,,,,,,,,,,,,,,60.0,2.0,
85,,choice,,html-keyboard-response,85,56653,0.0-1.0-17.0-0.0,0,0,3,,,,,,15.0,15.0,1000.0,1500.0,0.0,1.0,0.0,20-40,,0.0,motorcycle,sofa,20.0,40.0,motorcycle10,sofa5,20.0,60.0,motorcycle17.jpg,ALOVSEA14.jpg,/static/Category_learning/Stimuli/Experimental_stims/motorcycle/motorcycle17.jpg,/static/Category_learning/Stimuli/Experimental_stims/sofa/ALOVSEA14.jpg,,,,,,,,,,1.0,61.5,1.5,
86,,isi,,html-keyboard-response,86,56759,0.0-1.0-17.0-2.0,0,0,3,,,,,,,,,,,,,,,,,,,,,,,,,,,,,,,,,,,,,,62.5,1.0,
87,,no_response,,html-keyboard-response,87,57765,0.0-1.0-17.0-4.0-0.0,0,0,3,,,,,,,,,,,,,,,,,,,,,,,,,,,,,,,,,,,,,,63.5,1.0,
88,,iti,,html-keyboard-response,88,57883,0.0-1.0-17.0-5.0,0,0,3,,,,,,,,,,,,,,,,,,,,,,,,,,,,,,,,,,,,,,65.0,1.5,
89,,choice,,html-keyboard-response,89,58364,0.0-1.0-17.1-0.1,0,0,3,,478.0,,,50.0,15.0,15.0,1000.0,1500.0,0.0,1.0,0.0,20-40,,0.0,motorcycle,sofa,20.0,40.0,motorcycle10,sofa5,20.0,60.0,motorcycle17.jpg,ALOVSEA14.jpg,/static/Category_learning/Stimuli/Experimental_stims/motorcycle/motorcycle17.jpg,/static/Category_learning/Stimuli/Experimental_stims/sofa/ALOVSEA14.jpg,1.0,motorcycle,sofa,20.0,40.0,motorcycle10,sofa5,20.0,60.0,0.0,65.478,0.478,
90,,confirmation,,html-keyboard-response,90,59389,0.0-1.0-17.1-1.1-0.1,0,0,3,,,,,,15.0,,,,,,,,,,,,,,,,,,,,,,,,,,,,,,,,66.5,1.022,
91,,isi,,html-keyboard-response,91,59491,0.0-1.0-17.1-2.1,0,0,3,,,,,,,,,,,,,,,,,,,,,,,,,,,,,,,,,,,,,,67.5,1.0,
92,,feedback,,html-keyboard-response,92,60495,0.0-1.0-17.1-3.1-0.1,0,0,3,,,,,,15.0,,,,,,,,,,,,,,,,,,,,,,,,,,,,,,,,68.5,1.0,
93,,iti,,html-keyboard-response,93,60600,0.0-1.0-17.1-5.1,0,0,3,,,,,,,,,,,,,,,,,,,,,,,,,,,,,,,,,,,,,,70.0,1.5,
94,,choice,,html-keyboard-response,94,60868,0.0-1.0-18.0-0.0,0,0,3,,265.0,,,50.0,16.0,16.0,1000.0,3000.0,0.0,1.0,0.0,60-60,,,telescope,yarn,60.0,60.0,telescope6,yarn15,80.0,80.0,LO-telescope-89769.jpg,rainbowscarf-600x394.jpg,/static/Category_learning/Stimuli/Experimental_stims/telescope/LO-telescope-89769.jpg,/static/Category_learning/Stimuli/Experimental_stims/yarn/rainbowscarf-600x394.jpg,1.0,telescope,yarn,60.0,60.0,telescope6,yarn15,80.0,80.0,0.0,70.265,0.265,
95,,confirmation,,html-keyboard-response,95,62109,0.0-1.0-18.0-1.0-0.0,0,0,3,,,,,,16.0,,,,,,,,,,,,,,,,,,,,,,,,,,,,,,,,71.5,1.235,
96,,isi,,html-keyboard-response,96,62215,0.0-1.0-18.0-2.0,0,0,3,,,,,,,,,,,,,,,,,,,,,,,,,,,,,,,,,,,,,,72.5,1.0,
97,,feedback,,html-keyboard-response,97,63221,0.0-1.0-18.0-3.0-0.0,0,0,3,,,,,,16.0,,,,,,,,,,,,,,,,,,,,,,,,,,,,,,,,73.5,1.0,
98,,iti,,html-keyboard-response,98,63326,0.0-1.0-18.0-5.0,0,0,3,,,,,,,,,,,,,,,,,,,,,,,,,,,,,,,,,,,,,,76.5,3.0,
99,,choice,,html-keyboard-response,99,63959,0.0-1.0-19.0-0.0,0,0,3,,630.0,,,50.0,17.0,17.0,1500.0,2000.0,0.0,1.0,0.0,20-20,,,license plate,makeup compact,20.0,20.0,license plate10,makeup compact7,40.0,0.0,pa-nfn-011.jpg,P187133_hero.jpg,/static/Category_learning/Stimuli/Experimental_stims/license plate/pa-nfn-011.jpg,/static/Category_learning/Stimuli/Experimental_stims/makeup compact/P187133_hero.jpg,1.0,license plate,makeup compact,20.0,20.0,license plate10,makeup compact7,40.0,0.0,0.0,77.13,0.63,
100,,confirmation,,html-keyboard-response,100,64836,0.0-1.0-19.0-1.0-0.0,0,0,3,,,,,,17.0,,,,,,,,,,,,,,,,,,,,,,,,,,,,,,,,78.0,0.87,
101,,isi,,html-keyboard-response,101,64943,0.0-1.0-19.0-2.0,0,0,3,,,,,,,,,,,,,,,,,,,,,,,,,,,,,,,,,,,,,,79.5,1.5,
102,,feedback,,html-keyboard-response,102,65951,0.0-1.0-19.0-3.0-0.0,0,0,3,,,,,,17.0,,,,,,,,,,,,,,,,,,,,,,,,,,,,,,,,80.5,1.0,
103,,iti,,html-keyboard-response,103,66057,0.0-1.0-19.0-5.0,0,0,3,,,,,,,,,,,,,,,,,,,,,,,,,,,,,,,,,,,,,,82.5,2.0,
104,,choice,,html-keyboard-response,104,66136,0.0-1.0-20.0-0.0,0,0,3,,75.0,,,50.0,18.0,18.0,2000.0,2000.0,0.0,1.0,1.0,60-60,1.0,,tape,tape,60.0,60.0,tape12,tape7,60.0,60.0,Frog-Tape-Dispenser_F02218A2.jpg,tape dispenser.jpg,/static/Category_learning/Stimuli/Experimental_stims/tape/Frog-Tape-Dispenser_F02218A2.jpg,/static/Category_learning/Stimuli/Experimental_stims/tape/tape dispenser.jpg,1.0,tape,tape,60.0,60.0,tape12,tape7,60.0,60.0,0.0,82.575,0.075,
105,,confirmation,,html-keyboard-response,105,67569,0.0-1.0-20.0-1.0-0.0,0,0,3,,,,,,18.0,,,,,,,,,,,,,,,,,,,,,,,,,,,,,,,,84.0,1.425,
106,,isi,,html-keyboard-response,106,67672,0.0-1.0-20.0-2.0,0,0,3,,,,,,,,,,,,,,,,,,,,,,,,,,,,,,,,,,,,,,86.0,2.0,
107,,feedback,,html-keyboard-response,107,68676,0.0-1.0-20.0-3.0-0.0,0,0,3,,,,,,18.0,,,,,,,,,,,,,,,,,,,,,,,,,,,,,,,,87.0,1.0,
108,,iti,,html-keyboard-response,108,68783,0.0-1.0-20.0-5.0,0,0,3,,,,,,,,,,,,,,,,,,,,,,,,,,,,,,,,,,,,,,89.0,2.0,
109,,choice,,html-keyboard-response,109,69817,0.0-1.0-21.0-0.0,0,0,3,,1031.0,,,50.0,19.0,19.0,1500.0,1500.0,0.0,1.0,1.0,20-80,0.0,,license plate,desk,20.0,80.0,license plate10,desk1,40.0,100.0,pa-nfn-011.jpg,ADESK11.jpg,/static/Category_learning/Stimuli/Experimental_stims/license plate/pa-nfn-011.jpg,/static/Category_learning/Stimuli/Experimental_stims/desk/ADESK11.jpg,1.0,license plate,desk,20.0,80.0,license plate10,desk1,40.0,100.0,0.0,90.031,1.031,
110,,confirmation,,html-keyboard-response,110,70294,0.0-1.0-21.0-1.0-0.0,0,0,3,,,,,,19.0,,,,,,,,,,,,,,,,,,,,,,,,,,,,,,,,90.5,0.469,
111,,isi,,html-keyboard-response,111,70401,0.0-1.0-21.0-2.0,0,0,3,,,,,,,,,,,,,,,,,,,,,,,,,,,,,,,,,,,,,,92.0,1.5,
112,,feedback,,html-keyboard-response,112,71408,0.0-1.0-21.0-3.0-0.0,0,0,3,,,,,,19.0,,,,,,,,,,,,,,,,,,,,,,,,,,,,,,,,93.0,1.0,
113,,iti,,html-keyboard-response,113,71513,0.0-1.0-21.0-5.0,0,0,3,,,,,,,,,,,,,,,,,,,,,,,,,,,,,,,,,,,,,,94.5,1.5,
114,,choice,,html-keyboard-response,114,72053,0.0-1.0-22.0-0.0,0,0,3,,537.0,,,50.0,20.0,20.0,2000.0,1000.0,0.0,1.0,0.0,40-80,,0.0,patio lounge chair,bongo,40.0,80.0,patio lounge chair11,bongo1,60.0,100.0,51830.jpg,ABONGO22.jpg,/static/Category_learning/Stimuli/Experimental_stims/patio lounge chair/51830.jpg,/static/Category_learning/Stimuli/Experimental_stims/bongo/ABONGO22.jpg,1.0,patio lounge chair,bongo,40.0,80.0,patio lounge chair11,bongo1,60.0,100.0,0.0,95.037,0.537,
115,,confirmation,,html-keyboard-response,115,73023,0.0-1.0-22.0-1.0-0.0,0,0,3,,,,,,20.0,,,,,,,,,,,,,,,,,,,,,,,,,,,,,,,,96.0,0.963,
116,,isi,,html-keyboard-response,116,73130,0.0-1.0-22.0-2.0,0,0,3,,,,,,,,,,,,,,,,,,,,,,,,,,,,,,,,,,,,,,98.0,2.0,
117,,feedback,,html-keyboard-response,117,74136,0.0-1.0-22.0-3.0-0.0,0,0,3,,,,,,20.0,,,,,,,,,,,,,,,,,,,,,,,,,,,,,,,,99.0,1.0,
118,,iti,,html-keyboard-response,118,74242,0.0-1.0-22.0-5.0,0,0,3,,,,,,,,,,,,,,,,,,,,,,,,,,,,,,,,,,,,,,100.0,1.0,
119,,choice,,html-keyboard-response,119,74278,0.0-1.0-23.0-0.0,0,0,3,,32.0,,,50.0,21.0,21.0,1500.0,1500.0,0.0,1.0,1.0,40-60,0.0,,patio lounge chair,tent,40.0,60.0,patio lounge chair11,tent14,60.0,60.0,51830.jpg,inflatable-tent.jpg,/static/Category_learning/Stimuli/Experimental_stims/patio lounge chair/51830.jpg,/static/Category_learning/Stimuli/Experimental_stims/tent/inflatable-tent.jpg,1.0,patio lounge chair,tent,40.0,60.0,patio lounge chair11,tent14,60.0,60.0,0.0,100.032,0.032,
120,,confirmation,,html-keyboard-response,120,75752,0.0-1.0-23.0-1.0-0.0,0,0,3,,,,,,21.0,,,,,,,,,,,,,,,,,,,,,,,,,,,,,,,,101.5,1.468,
121,,isi,,html-keyboard-response,121,75856,0.0-1.0-23.0-2.0,0,0,3,,,,,,,,,,,,,,,,,,,,,,,,,,,,,,,,,,,,,,103.0,1.5,
122,,feedback,,html-keyboard-response,122,76861,0.0-1.0-23.0-3.0-0.0,0,0,3,,,,,,21.0,,,,,,,,,,,,,,,,,,,,,,,,,,,,,,,,104.0,1.0,
123,,iti,,html-keyboard-response,123,76968,0.0-1.0-23.0-5.0,0,0,3,,,,,,,,,,,,,,,,,,,,,,,,,,,,,,,,,,,,,,105.5,1.5,
124,,choice,,html-keyboard-response,124,77185,0.0-1.0-24.0-0.0,0,0,3,,213.0,,,50.0,22.0,22.0,2000.0,2000.0,0.0,1.0,0.0,40-80,,1.0,baby carriage,seashell,80.0,40.0,baby carriage6,seashell2,60.0,20.0,Baby_Stroller-1.jpg,ph_stri_seashell.jpg,/static/Category_learning/Stimuli/Experimental_stims/baby carriage/Baby_Stroller-1.jpg,/static/Category_learning/Stimuli/Experimental_stims/seashell/ph_stri_seashell.jpg,1.0,baby carriage,seashell,80.0,40.0,baby carriage6,seashell2,60.0,20.0,0.0,105.713,0.213,
125,,confirmation,,html-keyboard-response,125,78479,0.0-1.0-24.0-1.0-0.0,0,0,3,,,,,,22.0,,,,,,,,,,,,,,,,,,,,,,,,,,,,,,,,107.0,1.287,
126,,isi,,html-keyboard-response,126,78585,0.0-1.0-24.0-2.0,0,0,3,,,,,,,,,,,,,,,,,,,,,,,,,,,,,,,,,,,,,,109.0,2.0,
127,,feedback,,html-keyboard-response,127,79591,0.0-1.0-24.0-3.0-0.0,0,0,3,,,,,,22.0,,,,,,,,,,,,,,,,,,,,,,,,,,,,,,,,110.0,1.0,
128,,iti,,html-keyboard-response,128,79697,0.0-1.0-24.0-5.0,0,0,3,,,,,,,,,,,,,,,,,,,,,,,,,,,,,,,,,,,,,,112.0,2.0,
129,,choice,,html-keyboard-response,129,81206,0.0-1.0-25.0-0.0,0,0,3,,,,,,23.0,23.0,1000.0,1000.0,0.0,1.0,0.0,20-80,,1.0,dresser,hat,80.0,20.0,dresser12,hat4,80.0,20.0,ADRESSE58.jpg,JS370.jpg,/static/Category_learning/Stimuli/Experimental_stims/dresser/ADRESSE58.jpg,/static/Category_learning/Stimuli/Experimental_stims/hat/JS370.jpg,,,,,,,,,,1.0,113.5,1.5,
130,,isi,,html-keyboard-response,130,81311,0.0-1.0-25.0-2.0,0,0,3,,,,,,,,,,,,,,,,,,,,,,,,,,,,,,,,,,,,,,114.5,1.0,
131,,no_response,,html-keyboard-response,131,82317,0.0-1.0-25.0-4.0-0.0,0,0,3,,,,,,,,,,,,,,,,,,,,,,,,,,,,,,,,,,,,,,115.5,1.0,
132,,iti,,html-keyboard-response,132,82439,0.0-1.0-25.0-5.0,0,0,3,,,,,,,,,,,,,,,,,,,,,,,,,,,,,,,,,,,,,,116.5,1.0,
133,,choice,,html-keyboard-response,133,83946,0.0-1.0-25.1-0.1,0,0,3,,,,,,23.0,23.0,1000.0,1000.0,0.0,1.0,0.0,20-80,,1.0,dresser,hat,80.0,20.0,dresser12,hat4,80.0,20.0,ADRESSE58.jpg,JS370.jpg,/static/Category_learning/Stimuli/Experimental_stims/dresser/ADRESSE58.jpg,/static/Category_learning/Stimuli/Experimental_stims/hat/JS370.jpg,,,,,,,,,,1.0,118.0,1.5,
134,,isi,,html-keyboard-response,134,84053,0.0-1.0-25.1-2.1,0,0,3,,,,,,,,,,,,,,,,,,,,,,,,,,,,,,,,,,,,,,119.0,1.0,
135,,no_response,,html-keyboard-response,135,85060,0.0-1.0-25.1-4.1-0.1,0,0,3,,,,,,,,,,,,,,,,,,,,,,,,,,,,,,,,,,,,,,120.0,1.0,
136,,iti,,html-keyboard-response,136,85180,0.0-1.0-25.1-5.1,0,0,3,,,,,,,,,,,,,,,,,,,,,,,,,,,,,,,,,,,,,,121.0,1.0,
137,,choice,,html-keyboard-response,137,86689,0.0-1.0-25.2-0.2,0,0,3,,,,,,23.0,23.0,1000.0,1000.0,0.0,1.0,0.0,20-80,,1.0,dresser,hat,80.0,20.0,dresser12,hat4,80.0,20.0,ADRESSE58.jpg,JS370.jpg,/static/Category_learning/Stimuli/Experimental_stims/dresser/ADRESSE58.jpg,/static/Category_learning/Stimuli/Experimental_stims/hat/JS370.jpg,,,,,,,,,,1.0,122.5,1.5,
138,,isi,,html-keyboard-response,138,86795,0.0-1.0-25.2-2.2,0,0,3,,,,,,,,,,,,,,,,,,,,,,,,,,,,,,,,,,,,,,123.5,1.0,
139,,no_response,,html-keyboard-response,139,87801,0.0-1.0-25.2-4.2-0.2,0,0,3,,,,,,,,,,,,,,,,,,,,,,,,,,,,,,,,,,,,,,124.5,1.0,
140,,iti,,html-keyboard-response,140,87922,0.0-1.0-25.2-5.2,0,0,3,,,,,,,,,,,,,,,,,,,,,,,,,,,,,,,,,,,,,,125.5,1.0,
141,,choice,,html-keyboard-response,141,89429,0.0-1.0-25.3-0.3,0,0,3,,,,,,23.0,23.0,1000.0,1000.0,0.0,1.0,0.0,20-80,,1.0,dresser,hat,80.0,20.0,dresser12,hat4,80.0,20.0,ADRESSE58.jpg,JS370.jpg,/static/Category_learning/Stimuli/Experimental_stims/dresser/ADRESSE58.jpg,/static/Category_learning/Stimuli/Experimental_stims/hat/JS370.jpg,,,,,,,,,,1.0,127.0,1.5,
142,,isi,,html-keyboard-response,142,89538,0.0-1.0-25.3-2.3,0,0,3,,,,,,,,,,,,,,,,,,,,,,,,,,,,,,,,,,,,,,128.0,1.0,
143,,no_response,,html-keyboard-response,143,90546,0.0-1.0-25.3-4.3-0.3,0,0,3,,,,,,,,,,,,,,,,,,,,,,,,,,,,,,,,,,,,,,129.0,1.0,
144,,iti,,html-keyboard-response,144,90664,0.0-1.0-25.3-5.3,0,0,3,,,,,,,,,,,,,,,,,,,,,,,,,,,,,,,,,,,,,,130.0,1.0,
145,,choice,,html-keyboard-response,145,92171,0.0-1.0-25.4-0.4,0,0,3,,,,,,23.0,23.0,1000.0,1000.0,0.0,1.0,0.0,20-80,,1.0,dresser,hat,80.0,20.0,dresser12,hat4,80.0,20.0,ADRESSE58.jpg,JS370.jpg,/static/Category_learning/Stimuli/Experimental_stims/dresser/ADRESSE58.jpg,/static/Category_learning/Stimuli/Experimental_stims/hat/JS370.jpg,,,,,,,,,,1.0,131.5,1.5,
146,,isi,,html-keyboard-response,146,92279,0.0-1.0-25.4-2.4,0,0,3,,,,,,,,,,,,,,,,,,,,,,,,,,,,,,,,,,,,,,132.5,1.0,
147,,no_response,,html-keyboard-response,147,93282,0.0-1.0-25.4-4.4-0.4,0,0,3,,,,,,,,,,,,,,,,,,,,,,,,,,,,,,,,,,,,,,133.5,1.0,
148,,iti,,html-keyboard-response,148,93396,0.0-1.0-25.4-5.4,0,0,3,,,,,,,,,,,,,,,,,,,,,,,,,,,,,,,,,,,,,,134.5,1.0,
149,,choice,,html-keyboard-response,149,94904,0.0-1.0-25.5-0.5,0,0,3,,,,,,23.0,23.0,1000.0,1000.0,0.0,1.0,0.0,20-80,,1.0,dresser,hat,80.0,20.0,dresser12,hat4,80.0,20.0,ADRESSE58.jpg,JS370.jpg,/static/Category_learning/Stimuli/Experimental_stims/dresser/ADRESSE58.jpg,/static/Category_learning/Stimuli/Experimental_stims/hat/JS370.jpg,,,,,,,,,,1.0,136.0,1.5,
150,,isi,,html-keyboard-response,150,95013,0.0-1.0-25.5-2.5,0,0,3,,,,,,,,,,,,,,,,,,,,,,,,,,,,,,,,,,,,,,137.0,1.0,
151,,no_response,,html-keyboard-response,151,96018,0.0-1.0-25.5-4.5-0.5,0,0,3,,,,,,,,,,,,,,,,,,,,,,,,,,,,,,,,,,,,,,138.0,1.0,
152,,iti,,html-keyboard-response,152,96142,0.0-1.0-25.5-5.5,0,0,3,,,,,,,,,,,,,,,,,,,,,,,,,,,,,,,,,,,,,,139.0,1.0,
153,,choice,,html-keyboard-response,153,97645,0.0-1.0-25.6-0.6,0,0,3,,,,,,23.0,23.0,1000.0,1000.0,0.0,1.0,0.0,20-80,,1.0,dresser,hat,80.0,20.0,dresser12,hat4,80.0,20.0,ADRESSE58.jpg,JS370.jpg,/static/Category_learning/Stimuli/Experimental_stims/dresser/ADRESSE58.jpg,/static/Category_learning/Stimuli/Experimental_stims/hat/JS370.jpg,,,,,,,,,,1.0,140.5,1.5,
154,,isi,,html-keyboard-response,154,97753,0.0-1.0-25.6-2.6,0,0,3,,,,,,,,,,,,,,,,,,,,,,,,,,,,,,,,,,,,,,141.5,1.0,
155,,no_response,,html-keyboard-response,155,98760,0.0-1.0-25.6-4.6-0.6,0,0,3,,,,,,,,,,,,,,,,,,,,,,,,,,,,,,,,,,,,,,142.5,1.0,
156,,iti,,html-keyboard-response,156,98878,0.0-1.0-25.6-5.6,0,0,3,,,,,,,,,,,,,,,,,,,,,,,,,,,,,,,,,,,,,,143.5,1.0,
157,,choice,,html-keyboard-response,157,100385,0.0-1.0-25.7-0.7,0,0,3,,,,,,23.0,23.0,1000.0,1000.0,0.0,1.0,0.0,20-80,,1.0,dresser,hat,80.0,20.0,dresser12,hat4,80.0,20.0,ADRESSE58.jpg,JS370.jpg,/static/Category_learning/Stimuli/Experimental_stims/dresser/ADRESSE58.jpg,/static/Category_learning/Stimuli/Experimental_stims/hat/JS370.jpg,,,,,,,,,,1.0,145.0,1.5,
158,,isi,,html-keyboard-response,158,100493,0.0-1.0-25.7-2.7,0,0,3,,,,,,,,,,,,,,,,,,,,,,,,,,,,,,,,,,,,,,146.0,1.0,
159,,no_response,,html-keyboard-response,159,101500,0.0-1.0-25.7-4.7-0.7,0,0,3,,,,,,,,,,,,,,,,,,,,,,,,,,,,,,,,,,,,,,147.0,1.0,
160,,iti,,html-keyboard-response,160,101621,0.0-1.0-25.7-5.7,0,0,3,,,,,,,,,,,,,,,,,,,,,,,,,,,,,,,,,,,,,,148.0,1.0,
161,,choice,,html-keyboard-response,161,103130,0.0-1.0-25.8-0.8,0,0,3,,,,,,23.0,23.0,1000.0,1000.0,0.0,1.0,0.0,20-80,,1.0,dresser,hat,80.0,20.0,dresser12,hat4,80.0,20.0,ADRESSE58.jpg,JS370.jpg,/static/Category_learning/Stimuli/Experimental_stims/dresser/ADRESSE58.jpg,/static/Category_learning/Stimuli/Experimental_stims/hat/JS370.jpg,,,,,,,,,,1.0,149.5,1.5,
162,,isi,,html-keyboard-response,162,103240,0.0-1.0-25.8-2.8,0,0,3,,,,,,,,,,,,,,,,,,,,,,,,,,,,,,,,,,,,,,150.5,1.0,
163,,no_response,,html-keyboard-response,163,104880,0.0-1.0-25.8-4.8-0.8,0,0,3,,,,,,,,,,,,,,,,,,,,,,,,,,,,,,,,,,,,,,151.5,1.0,
164,,iti,,html-keyboard-response,164,105885,0.0-1.0-25.8-5.8,0,0,3,,,,,,,,,,,,,,,,,,,,,,,,,,,,,,,,,,,,,,152.5,1.0,
165,,choice,,html-keyboard-response,165,108519,0.0-1.0-25.9-0.9,0,0,3,,,,,,23.0,23.0,1000.0,1000.0,0.0,1.0,0.0,20-80,,1.0,dresser,hat,80.0,20.0,dresser12,hat4,80.0,20.0,ADRESSE58.jpg,JS370.jpg,/static/Category_learning/Stimuli/Experimental_stims/dresser/ADRESSE58.jpg,/static/Category_learning/Stimuli/Experimental_stims/hat/JS370.jpg,,,,,,,,,,1.0,154.0,1.5,
166,,isi,,html-keyboard-response,166,109005,0.0-1.0-25.9-2.9,0,0,3,,,,,,,,,,,,,,,,,,,,,,,,,,,,,,,,,,,,,,155.0,1.0,
167,,no_response,,html-keyboard-response,167,111005,0.0-1.0-25.9-4.9-0.9,0,0,3,,,,,,,,,,,,,,,,,,,,,,,,,,,,,,,,,,,,,,156.0,1.0,
168,,iti,,html-keyboard-response,168,111960,0.0-1.0-25.9-5.9,0,0,3,,,,,,,,,,,,,,,,,,,,,,,,,,,,,,,,,,,,,,157.0,1.0,
169,,choice,,html-keyboard-response,169,113935,0.0-1.0-25.10-0.10,0,0,3,,,,,,23.0,23.0,1000.0,1000.0,0.0,1.0,0.0,20-80,,1.0,dresser,hat,80.0,20.0,dresser12,hat4,80.0,20.0,ADRESSE58.jpg,JS370.jpg,/static/Category_learning/Stimuli/Experimental_stims/dresser/ADRESSE58.jpg,/static/Category_learning/Stimuli/Experimental_stims/hat/JS370.jpg,,,,,,,,,,1.0,158.5,1.5,
170,,isi,,html-keyboard-response,170,115330,0.0-1.0-25.10-2.10,0,0,3,,,,,,,,,,,,,,,,,,,,,,,,,,,,,,,,,,,,,,159.5,1.0,
171,,no_response,,html-keyboard-response,171,116880,0.0-1.0-25.10-4.10-0.10,0,0,3,,,,,,,,,,,,,,,,,,,,,,,,,,,,,,,,,,,,,,160.5,1.0,
172,,iti,,html-keyboard-response,172,117878,0.0-1.0-25.10-5.10,0,0,3,,,,,,,,,,,,,,,,,,,,,,,,,,,,,,,,,,,,,,161.5,1.0,
173,,choice,,html-keyboard-response,173,120376,0.0-1.0-25.11-0.11,0,0,3,,,,,,23.0,23.0,1000.0,1000.0,0.0,1.0,0.0,20-80,,1.0,dresser,hat,80.0,20.0,dresser12,hat4,80.0,20.0,ADRESSE58.jpg,JS370.jpg,/static/Category_learning/Stimuli/Experimental_stims/dresser/ADRESSE58.jpg,/static/Category_learning/Stimuli/Experimental_stims/hat/JS370.jpg,,,,,,,,,,1.0,163.0,1.5,
174,,isi,,html-keyboard-response,174,121126,0.0-1.0-25.11-2.11,0,0,3,,,,,,,,,,,,,,,,,,,,,,,,,,,,,,,,,,,,,,164.0,1.0,
175,,no_response,,html-keyboard-response,175,123002,0.0-1.0-25.11-4.11-0.11,0,0,3,,,,,,,,,,,,,,,,,,,,,,,,,,,,,,,,,,,,,,165.0,1.0,
176,,iti,,html-keyboard-response,176,124078,0.0-1.0-25.11-5.11,0,0,3,,,,,,,,,,,,,,,,,,,,,,,,,,,,,,,,,,,,,,166.0,1.0,
177,,choice,,html-keyboard-response,177,126075,0.0-1.0-25.12-0.12,0,0,3,,,,,,23.0,23.0,1000.0,1000.0,0.0,1.0,0.0,20-80,,1.0,dresser,hat,80.0,20.0,dresser12,hat4,80.0,20.0,ADRESSE58.jpg,JS370.jpg,/static/Category_learning/Stimuli/Experimental_stims/dresser/ADRESSE58.jpg,/static/Category_learning/Stimuli/Experimental_stims/hat/JS370.jpg,,,,,,,,,,1.0,167.5,1.5,
178,,isi,,html-keyboard-response,178,126879,0.0-1.0-25.12-2.12,0,0,3,,,,,,,,,,,,,,,,,,,,,,,,,,,,,,,,,,,,,,168.5,1.0,
179,,no_response,,html-keyboard-response,179,129469,0.0-1.0-25.12-4.12-0.12,0,0,3,,,,,,,,,,,,,,,,,,,,,,,,,,,,,,,,,,,,,,169.5,1.0,
180,,iti,,html-keyboard-response,180,129917,0.0-1.0-25.12-5.12,0,0,3,,,,,,,,,,,,,,,,,,,,,,,,,,,,,,,,,,,,,,170.5,1.0,
181,,choice,,html-keyboard-response,181,131882,0.0-1.0-25.13-0.13,0,0,3,,,,,,23.0,23.0,1000.0,1000.0,0.0,1.0,0.0,20-80,,1.0,dresser,hat,80.0,20.0,dresser12,hat4,80.0,20.0,ADRESSE58.jpg,JS370.jpg,/static/Category_learning/Stimuli/Experimental_stims/dresser/ADRESSE58.jpg,/static/Category_learning/Stimuli/Experimental_stims/hat/JS370.jpg,,,,,,,,,,1.0,172.0,1.5,
182,,isi,,html-keyboard-response,182,132879,0.0-1.0-25.13-2.13,0,0,3,,,,,,,,,,,,,,,,,,,,,,,,,,,,,,,,,,,,,,173.0,1.0,
183,,no_response,,html-keyboard-response,183,134878,0.0-1.0-25.13-4.13-0.13,0,0,3,,,,,,,,,,,,,,,,,,,,,,,,,,,,,,,,,,,,,,174.0,1.0,
184,,iti,,html-keyboard-response,184,135878,0.0-1.0-25.13-5.13,0,0,3,,,,,,,,,,,,,,,,,,,,,,,,,,,,,,,,,,,,,,175.0,1.0,
185,,choice,,html-keyboard-response,185,137878,0.0-1.0-25.14-0.14,0,0,3,,,,,,23.0,23.0,1000.0,1000.0,0.0,1.0,0.0,20-80,,1.0,dresser,hat,80.0,20.0,dresser12,hat4,80.0,20.0,ADRESSE58.jpg,JS370.jpg,/static/Category_learning/Stimuli/Experimental_stims/dresser/ADRESSE58.jpg,/static/Category_learning/Stimuli/Experimental_stims/hat/JS370.jpg,,,,,,,,,,1.0,176.5,1.5,
186,,isi,,html-keyboard-response,186,139093,0.0-1.0-25.14-2.14,0,0,3,,,,,,,,,,,,,,,,,,,,,,,,,,,,,,,,,,,,,,177.5,1.0,
187,,no_response,,html-keyboard-response,187,141092,0.0-1.0-25.14-4.14-0.14,0,0,3,,,,,,,,,,,,,,,,,,,,,,,,,,,,,,,,,,,,,,178.5,1.0,
188,,iti,,html-keyboard-response,188,141879,0.0-1.0-25.14-5.14,0,0,3,,,,,,,,,,,,,,,,,,,,,,,,,,,,,,,,,,,,,,179.5,1.0,
189,,choice,,html-keyboard-response,189,143384,0.0-1.0-25.15-0.15,0,0,3,,,,,,23.0,23.0,1000.0,1000.0,0.0,1.0,0.0,20-80,,1.0,dresser,hat,80.0,20.0,dresser12,hat4,80.0,20.0,ADRESSE58.jpg,JS370.jpg,/static/Category_learning/Stimuli/Experimental_stims/dresser/ADRESSE58.jpg,/static/Category_learning/Stimuli/Experimental_stims/hat/JS370.jpg,,,,,,,,,,1.0,181.0,1.5,
190,,isi,,html-keyboard-response,190,143490,0.0-1.0-25.15-2.15,0,0,3,,,,,,,,,,,,,,,,,,,,,,,,,,,,,,,,,,,,,,182.0,1.0,
191,,no_response,,html-keyboard-response,191,144498,0.0-1.0-25.15-4.15-0.15,0,0,3,,,,,,,,,,,,,,,,,,,,,,,,,,,,,,,,,,,,,,183.0,1.0,
192,,iti,,html-keyboard-response,192,144616,0.0-1.0-25.15-5.15,0,0,3,,,,,,,,,,,,,,,,,,,,,,,,,,,,,,,,,,,,,,184.0,1.0,
193,,choice,,html-keyboard-response,193,144854,0.0-1.0-25.16-0.16,0,0,3,,235.0,,,50.0,23.0,23.0,1000.0,1000.0,0.0,1.0,0.0,20-80,,1.0,dresser,hat,80.0,20.0,dresser12,hat4,80.0,20.0,ADRESSE58.jpg,JS370.jpg,/static/Category_learning/Stimuli/Experimental_stims/dresser/ADRESSE58.jpg,/static/Category_learning/Stimuli/Experimental_stims/hat/JS370.jpg,1.0,dresser,hat,80.0,20.0,dresser12,hat4,80.0,20.0,0.0,184.235,0.235,
194,,confirmation,,html-keyboard-response,194,146125,0.0-1.0-25.16-1.16-0.16,0,0,3,,,,,,23.0,,,,,,,,,,,,,,,,,,,,,,,,,,,,,,,,185.5,1.265,
195,,isi,,html-keyboard-response,195,146232,0.0-1.0-25.16-2.16,0,0,3,,,,,,,,,,,,,,,,,,,,,,,,,,,,,,,,,,,,,,186.5,1.0,
196,,feedback,,html-keyboard-response,196,147236,0.0-1.0-25.16-3.16-0.16,0,0,3,,,,,,23.0,,,,,,,,,,,,,,,,,,,,,,,,,,,,,,,,187.5,1.0,
197,,iti,,html-keyboard-response,197,147341,0.0-1.0-25.16-5.16,0,0,3,,,,,,,,,,,,,,,,,,,,,,,,,,,,,,,,,,,,,,188.5,1.0,
198,,choice,,html-keyboard-response,198,147482,0.0-1.0-26.0-0.0,0,0,3,,138.0,,,50.0,24.0,24.0,2000.0,2000.0,0.0,1.0,0.0,20-80,,1.0,door knob,hammer,80.0,20.0,door knob13,hammer15,100.0,0.0,500_CLAWALBC.jpg,Vaughan-32-oz-Hickory-Handle-Ball-Pein-Hammer-S432-B0001LRUJM-L-ARCQ0EBO8TR73_.jpg,/static/Category_learning/Stimuli/Experimental_stims/door knob/500_CLAWALBC.jpg,/static/Category_learning/Stimuli/Experimental_stims/hammer/Vaughan-32-oz-Hickory-Handle-Ball-Pein-Hammer-S432-B0001LRUJM-L-ARCQ0EBO8TR73_.jpg,1.0,door knob,hammer,80.0,20.0,door knob13,hammer15,100.0,0.0,0.0,188.638,0.138,
199,,confirmation,,html-keyboard-response,199,148851,0.0-1.0-26.0-1.0-0.0,0,0,3,,,,,,24.0,,,,,,,,,,,,,,,,,,,,,,,,,,,,,,,,190.0,1.362,
200,,isi,,html-keyboard-response,200,148959,0.0-1.0-26.0-2.0,0,0,3,,,,,,,,,,,,,,,,,,,,,,,,,,,,,,,,,,,,,,192.0,2.0,
201,,feedback,,html-keyboard-response,201,149966,0.0-1.0-26.0-3.0-0.0,0,0,3,,,,,,24.0,,,,,,,,,,,,,,,,,,,,,,,,,,,,,,,,193.0,1.0,
202,,iti,,html-keyboard-response,202,150072,0.0-1.0-26.0-5.0,0,0,3,,,,,,,,,,,,,,,,,,,,,,,,,,,,,,,,,,,,,,195.0,2.0,
203,,choice,,html-keyboard-response,203,150123,0.0-1.0-27.0-0.0,0,0,3,,49.0,,,50.0,25.0,25.0,1000.0,1500.0,0.0,1.0,0.0,20-40,,0.0,hammer,nail polish,20.0,40.0,hammer7,nail polish12,40.0,40.0,hammer01.jpg,laquerdUP.jpg,/static/Category_learning/Stimuli/Experimental_stims/hammer/hammer01.jpg,/static/Category_learning/Stimuli/Experimental_stims/nail polish/laquerdUP.jpg,1.0,hammer,nail polish,20.0,40.0,hammer7,nail polish12,40.0,40.0,0.0,195.049,0.049,
204,,confirmation,,html-keyboard-response,204,151582,0.0-1.0-27.0-1.0-0.0,0,0,3,,,,,,25.0,,,,,,,,,,,,,,,,,,,,,,,,,,,,,,,,196.5,1.451,
205,,isi,,html-keyboard-response,205,151687,0.0-1.0-27.0-2.0,0,0,3,,,,,,,,,,,,,,,,,,,,,,,,,,,,,,,,,,,,,,197.5,1.0,
206,,feedback,,html-keyboard-response,206,152692,0.0-1.0-27.0-3.0-0.0,0,0,3,,,,,,25.0,,,,,,,,,,,,,,,,,,,,,,,,,,,,,,,,198.5,1.0,
207,,iti,,html-keyboard-response,207,152796,0.0-1.0-27.0-5.0,0,0,3,,,,,,,,,,,,,,,,,,,,,,,,,,,,,,,,,,,,,,200.0,1.5,
208,,choice,,html-keyboard-response,208,153085,0.0-1.0-28.0-0.0,0,0,3,,286.0,,,50.0,26.0,26.0,3500.0,1000.0,0.0,1.0,0.0,20-60,,1.0,stool,makeup compact,60.0,20.0,stool4,makeup compact5,40.0,40.0,ASTOOL22.jpg,P109965_hero.jpg,/static/Category_learning/Stimuli/Experimental_stims/stool/ASTOOL22.jpg,/static/Category_learning/Stimuli/Experimental_stims/makeup compact/P109965_hero.jpg,1.0,stool,makeup compact,60.0,20.0,stool4,makeup compact5,40.0,40.0,0.0,200.286,0.286,
209,,confirmation,,html-keyboard-response,209,154304,0.0-1.0-28.0-1.0-0.0,0,0,3,,,,,,26.0,,,,,,,,,,,,,,,,,,,,,,,,,,,,,,,,201.5,1.214,
210,,isi,,html-keyboard-response,210,154409,0.0-1.0-28.0-2.0,0,0,3,,,,,,,,,,,,,,,,,,,,,,,,,,,,,,,,,,,,,,205.0,3.5,
211,,feedback,,html-keyboard-response,211,155416,0.0-1.0-28.0-3.0-0.0,0,0,3,,,,,,26.0,,,,,,,,,,,,,,,,,,,,,,,,,,,,,,,,206.0,1.0,
212,,iti,,html-keyboard-response,212,155519,0.0-1.0-28.0-5.0,0,0,3,,,,,,,,,,,,,,,,,,,,,,,,,,,,,,,,,,,,,,207.0,1.0,
213,,choice,,html-keyboard-response,213,155681,0.0-1.0-29.0-0.0,0,0,3,,160.0,,,50.0,27.0,27.0,1500.0,3500.0,0.0,1.0,0.0,40-80,,1.0,flashlight,small table,80.0,40.0,flashlight12,small table8,80.0,60.0,new05.jpg,ATABLE8.jpg,/static/Category_learning/Stimuli/Experimental_stims/flashlight/new05.jpg,/static/Category_learning/Stimuli/Experimental_stims/small table/ATABLE8.jpg,1.0,flashlight,small table,80.0,40.0,flashlight12,small table8,80.0,60.0,0.0,207.16,0.16,
214,,confirmation,,html-keyboard-response,214,157026,0.0-1.0-29.0-1.0-0.0,0,0,3,,,,,,27.0,,,,,,,,,,,,,,,,,,,,,,,,,,,,,,,,208.5,1.34,
215,,isi,,html-keyboard-response,215,157130,0.0-1.0-29.0-2.0,0,0,3,,,,,,,,,,,,,,,,,,,,,,,,,,,,,,,,,,,,,,210.0,1.5,
216,,feedback,,html-keyboard-response,216,158137,0.0-1.0-29.0-3.0-0.0,0,0,3,,,,,,27.0,,,,,,,,,,,,,,,,,,,,,,,,,,,,,,,,211.0,1.0,
217,,iti,,html-keyboard-response,217,158243,0.0-1.0-29.0-5.0,0,0,3,,,,,,,,,,,,,,,,,,,,,,,,,,,,,,,,,,,,,,214.5,3.5,
218,,choice,,html-keyboard-response,218,158375,0.0-1.0-30.0-0.0,0,0,3,,128.0,,,50.0,28.0,28.0,3000.0,3000.0,0.0,1.0,1.0,80-80,1.0,,door knob,door knob,80.0,80.0,door knob10,door knob13,80.0,100.0,c02a578d-c6cc-44ca-8dd2-de8901e30bd7_4.jpg,500_CLAWALBC.jpg,/static/Category_learning/Stimuli/Experimental_stims/door knob/c02a578d-c6cc-44ca-8dd2-de8901e30bd7_4.jpg,/static/Category_learning/Stimuli/Experimental_stims/door knob/500_CLAWALBC.jpg,1.0,door knob,door knob,80.0,80.0,door knob10,door knob13,80.0,100.0,0.0,214.628,0.128,
219,,confirmation,,html-keyboard-response,219,159756,0.0-1.0-30.0-1.0-0.0,0,0,3,,,,,,28.0,,,,,,,,,,,,,,,,,,,,,,,,,,,,,,,,216.0,1.372,
220,,isi,,html-keyboard-response,220,159864,0.0-1.0-30.0-2.0,0,0,3,,,,,,,,,,,,,,,,,,,,,,,,,,,,,,,,,,,,,,219.0,3.0,
221,,feedback,,html-keyboard-response,221,160871,0.0-1.0-30.0-3.0-0.0,0,0,3,,,,,,28.0,,,,,,,,,,,,,,,,,,,,,,,,,,,,,,,,220.0,1.0,
222,,iti,,html-keyboard-response,222,160974,0.0-1.0-30.0-5.0,0,0,3,,,,,,,,,,,,,,,,,,,,,,,,,,,,,,,,,,,,,,223.0,3.0,
223,,choice,,html-keyboard-response,223,161837,0.0-1.0-31.0-0.0,0,0,3,,860.0,,,50.0,29.0,29.0,3500.0,1000.0,0.0,1.0,0.0,20-80,,1.0,bongo,key chain,80.0,20.0,bongo8,key chain10,80.0,0.0,26390661.thl.jpg,Smurfs_Keychains_Smurf_Row_Boat.jpg,/static/Category_learning/Stimuli/Experimental_stims/bongo/26390661.thl.jpg,/static/Category_learning/Stimuli/Experimental_stims/key chain/Smurfs_Keychains_Smurf_Row_Boat.jpg,1.0,bongo,key chain,80.0,20.0,bongo8,key chain10,80.0,0.0,0.0,223.86,0.86,
224,,confirmation,,html-keyboard-response,224,162482,0.0-1.0-31.0-1.0-0.0,0,0,3,,,,,,29.0,,,,,,,,,,,,,,,,,,,,,,,,,,,,,,,,224.5,0.64,
225,,isi,,html-keyboard-response,225,162585,0.0-1.0-31.0-2.0,0,0,3,,,,,,,,,,,,,,,,,,,,,,,,,,,,,,,,,,,,,,228.0,3.5,
226,,feedback,,html-keyboard-response,226,163592,0.0-1.0-31.0-3.0-0.0,0,0,3,,,,,,29.0,,,,,,,,,,,,,,,,,,,,,,,,,,,,,,,,229.0,1.0,
227,,iti,,html-keyboard-response,227,163699,0.0-1.0-31.0-5.0,0,0,3,,,,,,,,,,,,,,,,,,,,,,,,,,,,,,,,,,,,,,230.0,1.0,
228,,choice,,html-keyboard-response,228,164182,0.0-1.0-32.0-0.0,0,0,3,,481.0,,,50.0,30.0,30.0,1000.0,2000.0,0.0,1.0,0.0,60-80,,0.0,tape,baby carriage,60.0,80.0,tape15,baby carriage10,80.0,100.0,MMMC15BK.jpg,peg_perego_uno_blu.jpg,/static/Category_learning/Stimuli/Experimental_stims/tape/MMMC15BK.jpg,/static/Category_learning/Stimuli/Experimental_stims/baby carriage/peg_perego_uno_blu.jpg,1.0,tape,baby carriage,60.0,80.0,tape15,baby carriage10,80.0,100.0,0.0,230.481,0.481,
229,,confirmation,,html-keyboard-response,229,165209,0.0-1.0-32.0-1.0-0.0,0,0,3,,,,,,30.0,,,,,,,,,,,,,,,,,,,,,,,,,,,,,,,,231.5,1.019,
230,,isi,,html-keyboard-response,230,165315,0.0-1.0-32.0-2.0,0,0,3,,,,,,,,,,,,,,,,,,,,,,,,,,,,,,,,,,,,,,232.5,1.0,
231,,feedback,,html-keyboard-response,231,166322,0.0-1.0-32.0-3.0-0.0,0,0,3,,,,,,30.0,,,,,,,,,,,,,,,,,,,,,,,,,,,,,,,,233.5,1.0,
232,,iti,,html-keyboard-response,232,166429,0.0-1.0-32.0-5.0,0,0,3,,,,,,,,,,,,,,,,,,,,,,,,,,,,,,,,,,,,,,235.5,2.0,
233,,choice,,html-keyboard-response,233,166941,0.0-1.0-33.0-0.0,0,0,3,,509.0,,,50.0,31.0,31.0,1000.0,1000.0,0.0,1.0,1.0,40-80,0.0,,bowl,poker card,80.0,40.0,bowl3,poker card12,60.0,20.0,ABOWL8.jpg,22865676.thl.jpg,/static/Category_learning/Stimuli/Experimental_stims/bowl/ABOWL8.jpg,/static/Category_learning/Stimuli/Experimental_stims/poker card/22865676.thl.jpg,1.0,bowl,poker card,80.0,40.0,bowl3,poker card12,60.0,20.0,0.0,236.009,0.509,
234,,confirmation,,html-keyboard-response,234,167938,0.0-1.0-33.0-1.0-0.0,0,0,3,,,,,,31.0,,,,,,,,,,,,,,,,,,,,,,,,,,,,,,,,237.0,0.991,
235,,isi,,html-keyboard-response,235,168046,0.0-1.0-33.0-2.0,0,0,3,,,,,,,,,,,,,,,,,,,,,,,,,,,,,,,,,,,,,,238.0,1.0,
236,,feedback,,html-keyboard-response,236,169053,0.0-1.0-33.0-3.0-0.0,0,0,3,,,,,,31.0,,,,,,,,,,,,,,,,,,,,,,,,,,,,,,,,239.0,1.0,
237,,iti,,html-keyboard-response,237,169160,0.0-1.0-33.0-5.0,0,0,3,,,,,,,,,,,,,,,,,,,,,,,,,,,,,,,,,,,,,,240.0,1.0,
238,,choice,,html-keyboard-response,238,169456,0.0-1.0-34.0-0.0,0,0,3,,293.0,,,50.0,32.0,32.0,1000.0,1000.0,0.0,1.0,0.0,20-60,,0.0,frame,vase,20.0,60.0,frame4,vase9,40.0,60.0,AFRAME125.jpg,Avasewithang2.jpg,/static/Category_learning/Stimuli/Experimental_stims/frame/AFRAME125.jpg,/static/Category_learning/Stimuli/Experimental_stims/vase/Avasewithang2.jpg,1.0,frame,vase,20.0,60.0,frame4,vase9,40.0,60.0,0.0,240.293,0.293,
239,,confirmation,,html-keyboard-response,239,170669,0.0-1.0-34.0-1.0-0.0,0,0,3,,,,,,32.0,,,,,,,,,,,,,,,,,,,,,,,,,,,,,,,,241.5,1.207,
240,,isi,,html-keyboard-response,240,170775,0.0-1.0-34.0-2.0,0,0,3,,,,,,,,,,,,,,,,,,,,,,,,,,,,,,,,,,,,,,242.5,1.0,
241,,feedback,,html-keyboard-response,241,171784,0.0-1.0-34.0-3.0-0.0,0,0,3,,,,,,32.0,,,,,,,,,,,,,,,,,,,,,,,,,,,,,,,,243.5,1.0,
242,,iti,,html-keyboard-response,242,171891,0.0-1.0-34.0-5.0,0,0,3,,,,,,,,,,,,,,,,,,,,,,,,,,,,,,,,,,,,,,244.5,1.0,
243,,choice,,html-keyboard-response,243,172150,0.0-1.0-35.0-0.0,0,0,3,,255.0,,,50.0,33.0,33.0,1000.0,1500.0,0.0,1.0,0.0,40-40,,,power strip,necklace,40.0,40.0,power strip5,necklace3,60.0,20.0,93e4a283-bcd6-4ad1-8add-339658cda0fc_400.jpg,26388201.thl.jpg,/static/Category_learning/Stimuli/Experimental_stims/power strip/93e4a283-bcd6-4ad1-8add-339658cda0fc_400.jpg,/static/Category_learning/Stimuli/Experimental_stims/necklace/26388201.thl.jpg,1.0,power strip,necklace,40.0,40.0,power strip5,necklace3,60.0,20.0,0.0,244.755,0.255,
244,,confirmation,,html-keyboard-response,244,173401,0.0-1.0-35.0-1.0-0.0,0,0,3,,,,,,33.0,,,,,,,,,,,,,,,,,,,,,,,,,,,,,,,,246.0,1.245,
245,,isi,,html-keyboard-response,245,173508,0.0-1.0-35.0-2.0,0,0,3,,,,,,,,,,,,,,,,,,,,,,,,,,,,,,,,,,,,,,247.0,1.0,
246,,feedback,,html-keyboard-response,246,174515,0.0-1.0-35.0-3.0-0.0,0,0,3,,,,,,33.0,,,,,,,,,,,,,,,,,,,,,,,,,,,,,,,,248.0,1.0,
247,,iti,,html-keyboard-response,247,174621,0.0-1.0-35.0-5.0,0,0,3,,,,,,,,,,,,,,,,,,,,,,,,,,,,,,,,,,,,,,249.5,1.5,
248,,choice,,html-keyboard-response,248,175479,0.0-1.0-36.0-0.0,0,0,3,,853.0,,,50.0,34.0,34.0,2000.0,3000.0,0.0,1.0,0.0,40-60,,0.0,patio lounge chair,yarn,40.0,60.0,patio lounge chair14,yarn8,40.0,40.0,2987951.jpg,smonlineyarn-285x250.jpg,/static/Category_learning/Stimuli/Experimental_stims/patio lounge chair/2987951.jpg,/static/Category_learning/Stimuli/Experimental_stims/yarn/smonlineyarn-285x250.jpg,1.0,patio lounge chair,yarn,40.0,60.0,patio lounge chair14,yarn8,40.0,40.0,0.0,250.353,0.853,
249,,confirmation,,html-keyboard-response,249,176130,0.0-1.0-36.0-1.0-0.0,0,0,3,,,,,,34.0,,,,,,,,,,,,,,,,,,,,,,,,,,,,,,,,251.0,0.647,
250,,isi,,html-keyboard-response,250,176237,0.0-1.0-36.0-2.0,0,0,3,,,,,,,,,,,,,,,,,,,,,,,,,,,,,,,,,,,,,,253.0,2.0,
251,,feedback,,html-keyboard-response,251,177242,0.0-1.0-36.0-3.0-0.0,0,0,3,,,,,,34.0,,,,,,,,,,,,,,,,,,,,,,,,,,,,,,,,254.0,1.0,
252,,iti,,html-keyboard-response,252,177347,0.0-1.0-36.0-5.0,0,0,3,,,,,,,,,,,,,,,,,,,,,,,,,,,,,,,,,,,,,,257.0,3.0,
253,,choice,,html-keyboard-response,253,177995,0.0-1.0-37.0-0.0,0,0,3,,645.0,,,50.0,35.0,35.0,1500.0,3500.0,0.0,1.0,1.0,40-80,0.0,,power strip,bongo,40.0,80.0,power strip5,bongo8,60.0,80.0,93e4a283-bcd6-4ad1-8add-339658cda0fc_400.jpg,26390661.thl.jpg,/static/Category_learning/Stimuli/Experimental_stims/power strip/93e4a283-bcd6-4ad1-8add-339658cda0fc_400.jpg,/static/Category_learning/Stimuli/Experimental_stims/bongo/26390661.thl.jpg,1.0,power strip,bongo,40.0,80.0,power strip5,bongo8,60.0,80.0,0.0,257.645,0.645,
254,,confirmation,,html-keyboard-response,254,178858,0.0-1.0-37.0-1.0-0.0,0,0,3,,,,,,35.0,,,,,,,,,,,,,,,,,,,,,,,,,,,,,,,,258.5,0.855,
255,,isi,,html-keyboard-response,255,178963,0.0-1.0-37.0-2.0,0,0,3,,,,,,,,,,,,,,,,,,,,,,,,,,,,,,,,,,,,,,260.0,1.5,
256,,feedback,,html-keyboard-response,256,179971,0.0-1.0-37.0-3.0-0.0,0,0,3,,,,,,35.0,,,,,,,,,,,,,,,,,,,,,,,,,,,,,,,,261.0,1.0,
257,,iti,,html-keyboard-response,257,180075,0.0-1.0-37.0-5.0,0,0,3,,,,,,,,,,,,,,,,,,,,,,,,,,,,,,,,,,,,,,264.5,3.5,
258,,choice,,html-keyboard-response,258,180318,0.0-1.0-38.0-0.0,0,0,3,,239.0,,,50.0,36.0,36.0,1500.0,2000.0,0.0,1.0,1.0,80-80,0.0,,dresser,flashlight,80.0,80.0,dresser12,flashlight12,80.0,80.0,ADRESSE58.jpg,new05.jpg,/static/Category_learning/Stimuli/Experimental_stims/dresser/ADRESSE58.jpg,/static/Category_learning/Stimuli/Experimental_stims/flashlight/new05.jpg,1.0,dresser,flashlight,80.0,80.0,dresser12,flashlight12,80.0,80.0,0.0,264.739,0.239,
259,,confirmation,,html-keyboard-response,259,181584,0.0-1.0-38.0-1.0-0.0,0,0,3,,,,,,36.0,,,,,,,,,,,,,,,,,,,,,,,,,,,,,,,,266.0,1.261,
260,,isi,,html-keyboard-response,260,181691,0.0-1.0-38.0-2.0,0,0,3,,,,,,,,,,,,,,,,,,,,,,,,,,,,,,,,,,,,,,267.5,1.5,
261,,feedback,,html-keyboard-response,261,182696,0.0-1.0-38.0-3.0-0.0,0,0,3,,,,,,36.0,,,,,,,,,,,,,,,,,,,,,,,,,,,,,,,,268.5,1.0,
262,,iti,,html-keyboard-response,262,182800,0.0-1.0-38.0-5.0,0,0,3,,,,,,,,,,,,,,,,,,,,,,,,,,,,,,,,,,,,,,270.5,2.0,
263,,choice,,html-keyboard-response,263,182819,0.0-1.0-39.0-0.0,0,0,3,,16.0,,,50.0,37.0,37.0,1000.0,1000.0,0.0,1.0,0.0,60-60,,,tape,train,60.0,60.0,tape10,train6,80.0,40.0,26377601.thl.jpg,train9.jpg,/static/Category_learning/Stimuli/Experimental_stims/tape/26377601.thl.jpg,/static/Category_learning/Stimuli/Experimental_stims/train/train9.jpg,1.0,tape,train,60.0,60.0,tape10,train6,80.0,40.0,0.0,270.516,0.016,
264,,confirmation,,html-keyboard-response,264,184310,0.0-1.0-39.0-1.0-0.0,0,0,3,,,,,,37.0,,,,,,,,,,,,,,,,,,,,,,,,,,,,,,,,272.0,1.484,
265,,isi,,html-keyboard-response,265,184413,0.0-1.0-39.0-2.0,0,0,3,,,,,,,,,,,,,,,,,,,,,,,,,,,,,,,,,,,,,,273.0,1.0,
266,,feedback,,html-keyboard-response,266,185418,0.0-1.0-39.0-3.0-0.0,0,0,3,,,,,,37.0,,,,,,,,,,,,,,,,,,,,,,,,,,,,,,,,274.0,1.0,
267,,iti,,html-keyboard-response,267,185525,0.0-1.0-39.0-5.0,0,0,3,,,,,,,,,,,,,,,,,,,,,,,,,,,,,,,,,,,,,,275.0,1.0,
268,,choice,,html-keyboard-response,268,186196,0.0-1.0-40.0-0.0,0,0,3,,668.0,,,50.0,38.0,38.0,1500.0,3500.0,0.0,1.0,0.0,40-80,,0.0,patio lounge chair,bowl,40.0,80.0,patio lounge chair8,bowl6,20.0,80.0,43-1.jpg,Abowl59.jpg,/static/Category_learning/Stimuli/Experimental_stims/patio lounge chair/43-1.jpg,/static/Category_learning/Stimuli/Experimental_stims/bowl/Abowl59.jpg,1.0,patio lounge chair,bowl,40.0,80.0,patio lounge chair8,bowl6,20.0,80.0,0.0,275.668,0.668,
269,,confirmation,,html-keyboard-response,269,187032,0.0-1.0-40.0-1.0-0.0,0,0,3,,,,,,38.0,,,,,,,,,,,,,,,,,,,,,,,,,,,,,,,,276.5,0.832,
270,,isi,,html-keyboard-response,270,187139,0.0-1.0-40.0-2.0,0,0,3,,,,,,,,,,,,,,,,,,,,,,,,,,,,,,,,,,,,,,278.0,1.5,
271,,feedback,,html-keyboard-response,271,188142,0.0-1.0-40.0-3.0-0.0,0,0,3,,,,,,38.0,,,,,,,,,,,,,,,,,,,,,,,,,,,,,,,,279.0,1.0,
272,,iti,,html-keyboard-response,272,188247,0.0-1.0-40.0-5.0,0,0,3,,,,,,,,,,,,,,,,,,,,,,,,,,,,,,,,,,,,,,282.5,3.5,
273,,choice,,html-keyboard-response,273,188708,0.0-1.0-41.0-0.0,0,0,3,,457.0,,,50.0,39.0,39.0,2000.0,2000.0,0.0,1.0,1.0,40-40,1.0,,patio lounge chair,patio lounge chair,40.0,40.0,patio lounge chair14,patio lounge chair8,40.0,20.0,2987951.jpg,43-1.jpg,/static/Category_learning/Stimuli/Experimental_stims/patio lounge chair/2987951.jpg,/static/Category_learning/Stimuli/Experimental_stims/patio lounge chair/43-1.jpg,1.0,patio lounge chair,patio lounge chair,40.0,40.0,patio lounge chair14,patio lounge chair8,40.0,20.0,0.0,282.957,0.457,
274,,confirmation,,html-keyboard-response,274,189758,0.0-1.0-41.0-1.0-0.0,0,0,3,,,,,,39.0,,,,,,,,,,,,,,,,,,,,,,,,,,,,,,,,284.0,1.043,
275,,isi,,html-keyboard-response,275,189864,0.0-1.0-41.0-2.0,0,0,3,,,,,,,,,,,,,,,,,,,,,,,,,,,,,,,,,,,,,,286.0,2.0,
276,,feedback,,html-keyboard-response,276,190868,0.0-1.0-41.0-3.0-0.0,0,0,3,,,,,,39.0,,,,,,,,,,,,,,,,,,,,,,,,,,,,,,,,287.0,1.0,
277,,iti,,html-keyboard-response,277,190975,0.0-1.0-41.0-5.0,0,0,3,,,,,,,,,,,,,,,,,,,,,,,,,,,,,,,,,,,,,,289.0,2.0,
278,,choice,,html-keyboard-response,278,191138,0.0-1.0-42.0-0.0,0,0,3,,159.0,,,50.0,40.0,40.0,1000.0,1500.0,0.0,1.0,0.0,40-60,,0.0,nail polish,watch,40.0,60.0,nail polish14,watch15,20.0,80.0,38031405.JPG,20-171-6.jpg,/static/Category_learning/Stimuli/Experimental_stims/nail polish/38031405.JPG,/static/Category_learning/Stimuli/Experimental_stims/watch/20-171-6.jpg,1.0,nail polish,watch,40.0,60.0,nail polish14,watch15,20.0,80.0,0.0,289.159,0.159,
279,,confirmation,,html-keyboard-response,279,192488,0.0-1.0-42.0-1.0-0.0,0,0,3,,,,,,40.0,,,,,,,,,,,,,,,,,,,,,,,,,,,,,,,,290.5,1.341,
280,,isi,,html-keyboard-response,280,192594,0.0-1.0-42.0-2.0,0,0,3,,,,,,,,,,,,,,,,,,,,,,,,,,,,,,,,,,,,,,291.5,1.0,
281,,feedback,,html-keyboard-response,281,193602,0.0-1.0-42.0-3.0-0.0,0,0,3,,,,,,40.0,,,,,,,,,,,,,,,,,,,,,,,,,,,,,,,,292.5,1.0,
282,,iti,,html-keyboard-response,282,193709,0.0-1.0-42.0-5.0,0,0,3,,,,,,,,,,,,,,,,,,,,,,,,,,,,,,,,,,,,,,294.0,1.5,
283,,choice,,html-keyboard-response,283,193878,0.0-1.0-43.0-0.0,0,0,3,,165.0,,,50.0,41.0,41.0,1500.0,3000.0,0.0,1.0,0.0,20-20,,,hammer,license plate,20.0,20.0,hammer5,license plate14,20.0,0.0,hammer02.jpg,fl-hel-bel.jpg,/static/Category_learning/Stimuli/Experimental_stims/hammer/hammer02.jpg,/static/Category_learning/Stimuli/Experimental_stims/license plate/fl-hel-bel.jpg,1.0,hammer,license plate,20.0,20.0,hammer5,license plate14,20.0,0.0,0.0,294.165,0.165,
284,,confirmation,,html-keyboard-response,284,195221,0.0-1.0-43.0-1.0-0.0,0,0,3,,,,,,41.0,,,,,,,,,,,,,,,,,,,,,,,,,,,,,,,,295.5,1.335,
285,,isi,,html-keyboard-response,285,195325,0.0-1.0-43.0-2.0,0,0,3,,,,,,,,,,,,,,,,,,,,,,,,,,,,,,,,,,,,,,297.0,1.5,
286,,feedback,,html-keyboard-response,286,196334,0.0-1.0-43.0-3.0-0.0,0,0,3,,,,,,41.0,,,,,,,,,,,,,,,,,,,,,,,,,,,,,,,,298.0,1.0,
287,,iti,,html-keyboard-response,287,196441,0.0-1.0-43.0-5.0,0,0,3,,,,,,,,,,,,,,,,,,,,,,,,,,,,,,,,,,,,,,301.0,3.0,
288,,choice,,html-keyboard-response,288,196459,0.0-1.0-44.0-0.0,0,0,3,,14.0,,,50.0,42.0,42.0,1500.0,1000.0,0.0,1.0,0.0,40-40,,,poker card,necklace,40.0,40.0,poker card15,necklace9,40.0,60.0,9816946.thl.jpg,ANECKLACE.jpg,/static/Category_learning/Stimuli/Experimental_stims/poker card/9816946.thl.jpg,/static/Category_learning/Stimuli/Experimental_stims/necklace/ANECKLACE.jpg,1.0,poker card,necklace,40.0,40.0,poker card15,necklace9,40.0,60.0,0.0,301.014,0.014,
289,,confirmation,,html-keyboard-response,289,197950,0.0-1.0-44.0-1.0-0.0,0,0,3,,,,,,42.0,,,,,,,,,,,,,,,,,,,,,,,,,,,,,,,,302.5,1.486,
290,,isi,,html-keyboard-response,290,198056,0.0-1.0-44.0-2.0,0,0,3,,,,,,,,,,,,,,,,,,,,,,,,,,,,,,,,,,,,,,304.0,1.5,
291,,feedback,,html-keyboard-response,291,199060,0.0-1.0-44.0-3.0-0.0,0,0,3,,,,,,42.0,,,,,,,,,,,,,,,,,,,,,,,,,,,,,,,,305.0,1.0,
292,,iti,,html-keyboard-response,292,199163,0.0-1.0-44.0-5.0,0,0,3,,,,,,,,,,,,,,,,,,,,,,,,,,,,,,,,,,,,,,306.0,1.0,
293,,choice,,html-keyboard-response,293,199485,0.0-1.0-45.0-0.0,0,0,3,,319.0,,,50.0,43.0,43.0,1000.0,3500.0,0.0,1.0,0.0,20-20,,,microscope,hammer,20.0,20.0,microscope5,hammer11,0.0,0.0,emMicroscope.jpg,8oz-hammer-copy.jpg,/static/Category_learning/Stimuli/Experimental_stims/microscope/emMicroscope.jpg,/static/Category_learning/Stimuli/Experimental_stims/hammer/8oz-hammer-copy.jpg,1.0,microscope,hammer,20.0,20.0,microscope5,hammer11,0.0,0.0,0.0,306.319,0.319,
294,,confirmation,,html-keyboard-response,294,200675,0.0-1.0-45.0-1.0-0.0,0,0,3,,,,,,43.0,,,,,,,,,,,,,,,,,,,,,,,,,,,,,,,,307.5,1.181,
295,,isi,,html-keyboard-response,295,200781,0.0-1.0-45.0-2.0,0,0,3,,,,,,,,,,,,,,,,,,,,,,,,,,,,,,,,,,,,,,308.5,1.0,
296,,feedback,,html-keyboard-response,296,201787,0.0-1.0-45.0-3.0-0.0,0,0,3,,,,,,43.0,,,,,,,,,,,,,,,,,,,,,,,,,,,,,,,,309.5,1.0,
297,,iti,,html-keyboard-response,297,201892,0.0-1.0-45.0-5.0,0,0,3,,,,,,,,,,,,,,,,,,,,,,,,,,,,,,,,,,,,,,313.0,3.5,
298,,choice,,html-keyboard-response,298,202014,0.0-1.0-46.0-0.0,0,0,3,,118.0,,,50.0,44.0,44.0,1000.0,1000.0,0.0,1.0,1.0,60-60,1.0,,tape,tape,60.0,60.0,tape15,tape10,80.0,80.0,MMMC15BK.jpg,26377601.thl.jpg,/static/Category_learning/Stimuli/Experimental_stims/tape/MMMC15BK.jpg,/static/Category_learning/Stimuli/Experimental_stims/tape/26377601.thl.jpg,1.0,tape,tape,60.0,60.0,tape15,tape10,80.0,80.0,0.0,313.118,0.118,
299,,confirmation,,html-keyboard-response,299,203400,0.0-1.0-46.0-1.0-0.0,0,0,3,,,,,,44.0,,,,,,,,,,,,,,,,,,,,,,,,,,,,,,,,314.5,1.382,
300,,isi,,html-keyboard-response,300,203508,0.0-1.0-46.0-2.0,0,0,3,,,,,,,,,,,,,,,,,,,,,,,,,,,,,,,,,,,,,,315.5,1.0,
301,,feedback,,html-keyboard-response,301,204514,0.0-1.0-46.0-3.0-0.0,0,0,3,,,,,,44.0,,,,,,,,,,,,,,,,,,,,,,,,,,,,,,,,316.5,1.0,
302,,iti,,html-keyboard-response,302,204621,0.0-1.0-46.0-5.0,0,0,3,,,,,,,,,,,,,,,,,,,,,,,,,,,,,,,,,,,,,,317.5,1.0,
303,,choice,,html-keyboard-response,303,204763,0.0-1.0-47.0-0.0,0,0,3,,139.0,,,50.0,45.0,45.0,1000.0,1500.0,0.0,1.0,0.0,80-80,,,baby carriage,fan,80.0,80.0,baby carriage8,fan7,60.0,80.0,peg_perego_uno_revi_black.jpg,250679_lg.jpg,/static/Category_learning/Stimuli/Experimental_stims/baby carriage/peg_perego_uno_revi_black.jpg,/static/Category_learning/Stimuli/Experimental_stims/fan/250679_lg.jpg,1.0,baby carriage,fan,80.0,80.0,baby carriage8,fan7,60.0,80.0,0.0,317.639,0.139,
304,,confirmation,,html-keyboard-response,304,206130,0.0-1.0-47.0-1.0-0.0,0,0,3,,,,,,45.0,,,,,,,,,,,,,,,,,,,,,,,,,,,,,,,,319.0,1.361,
305,,isi,,html-keyboard-response,305,206237,0.0-1.0-47.0-2.0,0,0,3,,,,,,,,,,,,,,,,,,,,,,,,,,,,,,,,,,,,,,320.0,1.0,
306,,feedback,,html-keyboard-response,306,207244,0.0-1.0-47.0-3.0-0.0,0,0,3,,,,,,45.0,,,,,,,,,,,,,,,,,,,,,,,,,,,,,,,,321.0,1.0,
307,,iti,,html-keyboard-response,307,207351,0.0-1.0-47.0-5.0,0,0,3,,,,,,,,,,,,,,,,,,,,,,,,,,,,,,,,,,,,,,322.5,1.5,
308,,choice,,html-keyboard-response,308,207594,0.0-1.0-48.0-0.0,0,0,3,,240.0,,,50.0,46.0,46.0,2000.0,1000.0,0.0,1.0,0.0,40-60,,0.0,seashell,telescope,40.0,60.0,seashell1,telescope12,40.0,40.0,Aseashe34.jpg,Junior Land and Sky Telescope.jpg,/static/Category_learning/Stimuli/Experimental_stims/seashell/Aseashe34.jpg,/static/Category_learning/Stimuli/Experimental_stims/telescope/Junior Land and Sky Telescope.jpg,1.0,seashell,telescope,40.0,60.0,seashell1,telescope12,40.0,40.0,0.0,322.74,0.24,
309,,confirmation,,html-keyboard-response,309,208862,0.0-1.0-48.0-1.0-0.0,0,0,3,,,,,,46.0,,,,,,,,,,,,,,,,,,,,,,,,,,,,,,,,324.0,1.26,
310,,isi,,html-keyboard-response,310,208968,0.0-1.0-48.0-2.0,0,0,3,,,,,,,,,,,,,,,,,,,,,,,,,,,,,,,,,,,,,,326.0,2.0,
311,,feedback,,html-keyboard-response,311,209976,0.0-1.0-48.0-3.0-0.0,0,0,3,,,,,,46.0,,,,,,,,,,,,,,,,,,,,,,,,,,,,,,,,327.0,1.0,
312,,iti,,html-keyboard-response,312,210082,0.0-1.0-48.0-5.0,0,0,3,,,,,,,,,,,,,,,,,,,,,,,,,,,,,,,,,,,,,,328.0,1.0,
313,,choice,,html-keyboard-response,313,211572,0.0-1.0-49.0-0.0,0,0,3,,1487.0,,,50.0,47.0,47.0,2000.0,1000.0,0.0,1.0,0.0,20-40,,1.0,small table,hat,40.0,20.0,small table2,hat7,60.0,20.0,Atable126.jpg,ASTRHATFL.jpg,/static/Category_learning/Stimuli/Experimental_stims/small table/Atable126.jpg,/static/Category_learning/Stimuli/Experimental_stims/hat/ASTRHATFL.jpg,1.0,small table,hat,40.0,20.0,small table2,hat7,60.0,20.0,0.0,329.487,1.487,
314,,confirmation,,html-keyboard-response,314,211591,0.0-1.0-49.0-1.0-0.0,0,0,3,,,,,,47.0,,,,,,,,,,,,,,,,,,,,,,,,,,,,,,,,329.5,0.013,
315,,isi,,html-keyboard-response,315,211696,0.0-1.0-49.0-2.0,0,0,3,,,,,,,,,,,,,,,,,,,,,,,,,,,,,,,,,,,,,,331.5,2.0,
316,,feedback,,html-keyboard-response,316,212702,0.0-1.0-49.0-3.0-0.0,0,0,3,,,,,,47.0,,,,,,,,,,,,,,,,,,,,,,,,,,,,,,,,332.5,1.0,
317,,iti,,html-keyboard-response,317,212808,0.0-1.0-49.0-5.0,0,0,3,,,,,,,,,,,,,,,,,,,,,,,,,,,,,,,,,,,,,,333.5,1.0,
318,,block_over,,html-keyboard-response,318,215469,0.0-1.0-49.0-7.0-0.0,0,0,3,,2655.0,,,50.0,47.0,,,,,,,,,,,,,,,,,,,,,,,,,,,,,,,,,,
319,,start_run,,html-keyboard-response,319,216630,0.0-1.0-49.0-7.0-1.0,0,0,3,,1158.0,,,84.0,,,,,,,,,,,,,,,,,,,,,,,,,,,,,,,,,,,
320,,choice,,html-keyboard-response,320,217258,0.0-1.0-50.0-0.0,0,0,3,,625.0,,,50.0,48.0,65.0,3500.0,1000.0,0.0,2.0,0.0,20-60,,1.0,telescope,key chain,60.0,20.0,telescope4,key chain14,60.0,0.0,TELESCOPE_BLACK_GOOD_SMALL.jpg,Jif Keychain 285.jpg,/static/Category_learning/Stimuli/Experimental_stims/telescope/TELESCOPE_BLACK_GOOD_SMALL.jpg,/static/Category_learning/Stimuli/Experimental_stims/key chain/Jif Keychain 285.jpg,1.0,telescope,key chain,60.0,20.0,telescope4,key chain14,60.0,0.0,0.0,0.625,0.625,
321,,confirmation,,html-keyboard-response,321,218140,0.0-1.0-50.0-1.0-0.0,0,0,3,,,,,,48.0,,,,,,,,,,,,,,,,,,,,,,,,,,,,,,,,1.5,0.875,
322,,isi,,html-keyboard-response,322,218243,0.0-1.0-50.0-2.0,0,0,3,,,,,,,,,,,,,,,,,,,,,,,,,,,,,,,,,,,,,,5.0,3.5,
323,,feedback,,html-keyboard-response,323,219250,0.0-1.0-50.0-3.0-0.0,0,0,3,,,,,,48.0,,,,,,,,,,,,,,,,,,,,,,,,,,,,,,,,6.0,1.0,
324,,iti,,html-keyboard-response,324,219353,0.0-1.0-50.0-5.0,0,0,3,,,,,,,,,,,,,,,,,,,,,,,,,,,,,,,,,,,,,,7.0,1.0,
325,,choice,,html-keyboard-response,325,219475,0.0-1.0-51.0-0.0,0,0,3,,118.0,,,50.0,49.0,66.0,2000.0,1000.0,0.0,2.0,0.0,20-60,,0.0,key chain,yarn,20.0,60.0,key chain3,yarn2,20.0,80.0,Keychain_Voice_Recorder.jpg,Aballofyarn66.jpg,/static/Category_learning/Stimuli/Experimental_stims/key chain/Keychain_Voice_Recorder.jpg,/static/Category_learning/Stimuli/Experimental_stims/yarn/Aballofyarn66.jpg,1.0,key chain,yarn,20.0,60.0,key chain3,yarn2,20.0,80.0,0.0,7.118,0.118,
326,,confirmation,,html-keyboard-response,326,220864,0.0-1.0-51.0-1.0-0.0,0,0,3,,,,,,49.0,,,,,,,,,,,,,,,,,,,,,,,,,,,,,,,,8.5,1.382,
327,,isi,,html-keyboard-response,327,220970,0.0-1.0-51.0-2.0,0,0,3,,,,,,,,,,,,,,,,,,,,,,,,,,,,,,,,,,,,,,10.5,2.0,
328,,feedback,,html-keyboard-response,328,221976,0.0-1.0-51.0-3.0-0.0,0,0,3,,,,,,49.0,,,,,,,,,,,,,,,,,,,,,,,,,,,,,,,,11.5,1.0,
329,,iti,,html-keyboard-response,329,222083,0.0-1.0-51.0-5.0,0,0,3,,,,,,,,,,,,,,,,,,,,,,,,,,,,,,,,,,,,,,12.5,1.0,
330,,choice,,html-keyboard-response,330,222384,0.0-1.0-52.0-0.0,0,0,3,,298.0,,,50.0,50.0,67.0,1000.0,1000.0,0.0,2.0,0.0,40-60,,0.0,small table,watch,40.0,60.0,small table15,watch2,60.0,60.0,ATABLE20.jpg,AL0004-03E_MED.jpg,/static/Category_learning/Stimuli/Experimental_stims/small table/ATABLE20.jpg,/static/Category_learning/Stimuli/Experimental_stims/watch/AL0004-03E_MED.jpg,1.0,small table,watch,40.0,60.0,small table15,watch2,60.0,60.0,0.0,12.798,0.298,
331,,confirmation,,html-keyboard-response,331,223592,0.0-1.0-52.0-1.0-0.0,0,0,3,,,,,,50.0,,,,,,,,,,,,,,,,,,,,,,,,,,,,,,,,14.0,1.202,
332,,isi,,html-keyboard-response,332,223699,0.0-1.0-52.0-2.0,0,0,3,,,,,,,,,,,,,,,,,,,,,,,,,,,,,,,,,,,,,,15.0,1.0,
333,,feedback,,html-keyboard-response,333,224707,0.0-1.0-52.0-3.0-0.0,0,0,3,,,,,,50.0,,,,,,,,,,,,,,,,,,,,,,,,,,,,,,,,16.0,1.0,
334,,iti,,html-keyboard-response,334,224813,0.0-1.0-52.0-5.0,0,0,3,,,,,,,,,,,,,,,,,,,,,,,,,,,,,,,,,,,,,,17.0,1.0,
335,,choice,,html-keyboard-response,335,225949,0.0-1.0-53.0-0.0,0,0,3,,1132.0,,,50.0,51.0,68.0,3500.0,1000.0,0.0,2.0,0.0,40-60,,1.0,yarn,necklace,60.0,40.0,yarn11,necklace7,60.0,60.0,Aballofpinky2.jpg,Anecklace12.jpg,/static/Category_learning/Stimuli/Experimental_stims/yarn/Aballofpinky2.jpg,/static/Category_learning/Stimuli/Experimental_stims/necklace/Anecklace12.jpg,1.0,yarn,necklace,60.0,40.0,yarn11,necklace7,60.0,60.0,0.0,18.132,1.132,
336,,confirmation,,html-keyboard-response,336,226324,0.0-1.0-53.0-1.0-0.0,0,0,3,,,,,,51.0,,,,,,,,,,,,,,,,,,,,,,,,,,,,,,,,18.5,0.368,
337,,isi,,html-keyboard-response,337,226430,0.0-1.0-53.0-2.0,0,0,3,,,,,,,,,,,,,,,,,,,,,,,,,,,,,,,,,,,,,,22.0,3.5,
338,,feedback,,html-keyboard-response,338,227438,0.0-1.0-53.0-3.0-0.0,0,0,3,,,,,,51.0,,,,,,,,,,,,,,,,,,,,,,,,,,,,,,,,23.0,1.0,
339,,iti,,html-keyboard-response,339,227546,0.0-1.0-53.0-5.0,0,0,3,,,,,,,,,,,,,,,,,,,,,,,,,,,,,,,,,,,,,,24.0,1.0,
340,,choice,,html-keyboard-response,340,227676,0.0-1.0-54.0-0.0,0,0,3,,126.0,,,50.0,52.0,69.0,1500.0,1000.0,0.0,2.0,0.0,20-80,,1.0,bongo,hat,80.0,20.0,bongo10,hat3,60.0,0.0,22945915.thl.jpg,Astrawhat49.jpg,/static/Category_learning/Stimuli/Experimental_stims/bongo/22945915.thl.jpg,/static/Category_learning/Stimuli/Experimental_stims/hat/Astrawhat49.jpg,1.0,bongo,hat,80.0,20.0,bongo10,hat3,60.0,0.0,0.0,24.126,0.126,
341,,confirmation,,html-keyboard-response,341,229057,0.0-1.0-54.0-1.0-0.0,0,0,3,,,,,,52.0,,,,,,,,,,,,,,,,,,,,,,,,,,,,,,,,25.5,1.374,
342,,isi,,html-keyboard-response,342,229160,0.0-1.0-54.0-2.0,0,0,3,,,,,,,,,,,,,,,,,,,,,,,,,,,,,,,,,,,,,,27.0,1.5,
343,,feedback,,html-keyboard-response,343,230926,0.0-1.0-54.0-3.0-0.0,0,0,3,,,,,,52.0,,,,,,,,,,,,,,,,,,,,,,,,,,,,,,,,28.0,1.0,
344,,iti,,html-keyboard-response,344,232247,0.0-1.0-54.0-5.0,0,0,3,,,,,,,,,,,,,,,,,,,,,,,,,,,,,,,,,,,,,,29.0,1.0,
345,,choice,,html-keyboard-response,345,233878,0.0-1.0-55.0-0.0,0,0,3,,,,,,53.0,70.0,1500.0,1500.0,0.0,2.0,1.0,20-20,1.0,,hammer,hammer,20.0,20.0,hammer5,hammer7,20.0,40.0,hammer02.jpg,hammer01.jpg,/static/Category_learning/Stimuli/Experimental_stims/hammer/hammer02.jpg,/static/Category_learning/Stimuli/Experimental_stims/hammer/hammer01.jpg,,,,,,,,,,1.0,30.5,1.5,
346,,isi,,html-keyboard-response,346,234878,0.0-1.0-55.0-2.0,0,0,3,,,,,,,,,,,,,,,,,,,,,,,,,,,,,,,,,,,,,,32.0,1.5,
347,,no_response,,html-keyboard-response,347,237261,0.0-1.0-55.0-4.0-0.0,0,0,3,,,,,,,,,,,,,,,,,,,,,,,,,,,,,,,,,,,,,,33.0,1.0,
348,,iti,,html-keyboard-response,348,238156,0.0-1.0-55.0-5.0,0,0,3,,,,,,,,,,,,,,,,,,,,,,,,,,,,,,,,,,,,,,34.5,1.5,
349,,choice,,html-keyboard-response,349,239921,0.0-1.0-55.1-0.1,0,0,3,,,,,,53.0,70.0,1500.0,1500.0,0.0,2.0,1.0,20-20,1.0,,hammer,hammer,20.0,20.0,hammer5,hammer7,20.0,40.0,hammer02.jpg,hammer01.jpg,/static/Category_learning/Stimuli/Experimental_stims/hammer/hammer02.jpg,/static/Category_learning/Stimuli/Experimental_stims/hammer/hammer01.jpg,,,,,,,,,,1.0,36.0,1.5,
350,,isi,,html-keyboard-response,350,240878,0.0-1.0-55.1-2.1,0,0,3,,,,,,,,,,,,,,,,,,,,,,,,,,,,,,,,,,,,,,37.5,1.5,
351,,no_response,,html-keyboard-response,351,242878,0.0-1.0-55.1-4.1-0.1,0,0,3,,,,,,,,,,,,,,,,,,,,,,,,,,,,,,,,,,,,,,38.5,1.0,
352,,iti,,html-keyboard-response,352,243879,0.0-1.0-55.1-5.1,0,0,3,,,,,,,,,,,,,,,,,,,,,,,,,,,,,,,,,,,,,,40.0,1.5,
353,,choice,,html-keyboard-response,353,246023,0.0-1.0-55.2-0.2,0,0,3,,,,,,53.0,70.0,1500.0,1500.0,0.0,2.0,1.0,20-20,1.0,,hammer,hammer,20.0,20.0,hammer5,hammer7,20.0,40.0,hammer02.jpg,hammer01.jpg,/static/Category_learning/Stimuli/Experimental_stims/hammer/hammer02.jpg,/static/Category_learning/Stimuli/Experimental_stims/hammer/hammer01.jpg,,,,,,,,,,1.0,41.5,1.5,
354,,isi,,html-keyboard-response,354,246878,0.0-1.0-55.2-2.2,0,0,3,,,,,,,,,,,,,,,,,,,,,,,,,,,,,,,,,,,,,,43.0,1.5,
355,,no_response,,html-keyboard-response,355,247885,0.0-1.0-55.2-4.2-0.2,0,0,3,,,,,,,,,,,,,,,,,,,,,,,,,,,,,,,,,,,,,,44.0,1.0,
356,,iti,,html-keyboard-response,356,248005,0.0-1.0-55.2-5.2,0,0,3,,,,,,,,,,,,,,,,,,,,,,,,,,,,,,,,,,,,,,45.5,1.5,
357,,choice,,html-keyboard-response,357,249513,0.0-1.0-55.3-0.3,0,0,3,,,,,,53.0,70.0,1500.0,1500.0,0.0,2.0,1.0,20-20,1.0,,hammer,hammer,20.0,20.0,hammer5,hammer7,20.0,40.0,hammer02.jpg,hammer01.jpg,/static/Category_learning/Stimuli/Experimental_stims/hammer/hammer02.jpg,/static/Category_learning/Stimuli/Experimental_stims/hammer/hammer01.jpg,,,,,,,,,,1.0,47.0,1.5,
358,,isi,,html-keyboard-response,358,249621,0.0-1.0-55.3-2.3,0,0,3,,,,,,,,,,,,,,,,,,,,,,,,,,,,,,,,,,,,,,48.5,1.5,
359,,no_response,,html-keyboard-response,359,250628,0.0-1.0-55.3-4.3-0.3,0,0,3,,,,,,,,,,,,,,,,,,,,,,,,,,,,,,,,,,,,,,49.5,1.0,
360,,iti,,html-keyboard-response,360,250746,0.0-1.0-55.3-5.3,0,0,3,,,,,,,,,,,,,,,,,,,,,,,,,,,,,,,,,,,,,,51.0,1.5,
361,,choice,,html-keyboard-response,361,252254,0.0-1.0-55.4-0.4,0,0,3,,,,,,53.0,70.0,1500.0,1500.0,0.0,2.0,1.0,20-20,1.0,,hammer,hammer,20.0,20.0,hammer5,hammer7,20.0,40.0,hammer02.jpg,hammer01.jpg,/static/Category_learning/Stimuli/Experimental_stims/hammer/hammer02.jpg,/static/Category_learning/Stimuli/Experimental_stims/hammer/hammer01.jpg,,,,,,,,,,1.0,52.5,1.5,
362,,isi,,html-keyboard-response,362,252360,0.0-1.0-55.4-2.4,0,0,3,,,,,,,,,,,,,,,,,,,,,,,,,,,,,,,,,,,,,,54.0,1.5,
363,,no_response,,html-keyboard-response,363,253369,0.0-1.0-55.4-4.4-0.4,0,0,3,,,,,,,,,,,,,,,,,,,,,,,,,,,,,,,,,,,,,,55.0,1.0,
364,,iti,,html-keyboard-response,364,253485,0.0-1.0-55.4-5.4,0,0,3,,,,,,,,,,,,,,,,,,,,,,,,,,,,,,,,,,,,,,56.5,1.5,
365,,choice,,html-keyboard-response,365,254992,0.0-1.0-55.5-0.5,0,0,3,,,,,,53.0,70.0,1500.0,1500.0,0.0,2.0,1.0,20-20,1.0,,hammer,hammer,20.0,20.0,hammer5,hammer7,20.0,40.0,hammer02.jpg,hammer01.jpg,/static/Category_learning/Stimuli/Experimental_stims/hammer/hammer02.jpg,/static/Category_learning/Stimuli/Experimental_stims/hammer/hammer01.jpg,,,,,,,,,,1.0,58.0,1.5,
366,,isi,,html-keyboard-response,366,255097,0.0-1.0-55.5-2.5,0,0,3,,,,,,,,,,,,,,,,,,,,,,,,,,,,,,,,,,,,,,59.5,1.5,
367,,no_response,,html-keyboard-response,367,256104,0.0-1.0-55.5-4.5-0.5,0,0,3,,,,,,,,,,,,,,,,,,,,,,,,,,,,,,,,,,,,,,60.5,1.0,
368,,iti,,html-keyboard-response,368,256224,0.0-1.0-55.5-5.5,0,0,3,,,,,,,,,,,,,,,,,,,,,,,,,,,,,,,,,,,,,,62.0,1.5,
369,,choice,,html-keyboard-response,369,257731,0.0-1.0-55.6-0.6,0,0,3,,,,,,53.0,70.0,1500.0,1500.0,0.0,2.0,1.0,20-20,1.0,,hammer,hammer,20.0,20.0,hammer5,hammer7,20.0,40.0,hammer02.jpg,hammer01.jpg,/static/Category_learning/Stimuli/Experimental_stims/hammer/hammer02.jpg,/static/Category_learning/Stimuli/Experimental_stims/hammer/hammer01.jpg,,,,,,,,,,1.0,63.5,1.5,
370,,isi,,html-keyboard-response,370,257837,0.0-1.0-55.6-2.6,0,0,3,,,,,,,,,,,,,,,,,,,,,,,,,,,,,,,,,,,,,,65.0,1.5,
371,,no_response,,html-keyboard-response,371,258845,0.0-1.0-55.6-4.6-0.6,0,0,3,,,,,,,,,,,,,,,,,,,,,,,,,,,,,,,,,,,,,,66.0,1.0,
372,,iti,,html-keyboard-response,372,258956,0.0-1.0-55.6-5.6,0,0,3,,,,,,,,,,,,,,,,,,,,,,,,,,,,,,,,,,,,,,67.5,1.5,
373,,choice,,html-keyboard-response,373,260463,0.0-1.0-55.7-0.7,0,0,3,,,,,,53.0,70.0,1500.0,1500.0,0.0,2.0,1.0,20-20,1.0,,hammer,hammer,20.0,20.0,hammer5,hammer7,20.0,40.0,hammer02.jpg,hammer01.jpg,/static/Category_learning/Stimuli/Experimental_stims/hammer/hammer02.jpg,/static/Category_learning/Stimuli/Experimental_stims/hammer/hammer01.jpg,,,,,,,,,,1.0,69.0,1.5,
374,,isi,,html-keyboard-response,374,260569,0.0-1.0-55.7-2.7,0,0,3,,,,,,,,,,,,,,,,,,,,,,,,,,,,,,,,,,,,,,70.5,1.5,
375,,no_response,,html-keyboard-response,375,261576,0.0-1.0-55.7-4.7-0.7,0,0,3,,,,,,,,,,,,,,,,,,,,,,,,,,,,,,,,,,,,,,71.5,1.0,
376,,iti,,html-keyboard-response,376,261696,0.0-1.0-55.7-5.7,0,0,3,,,,,,,,,,,,,,,,,,,,,,,,,,,,,,,,,,,,,,73.0,1.5,
377,,choice,,html-keyboard-response,377,263202,0.0-1.0-55.8-0.8,0,0,3,,,,,,53.0,70.0,1500.0,1500.0,0.0,2.0,1.0,20-20,1.0,,hammer,hammer,20.0,20.0,hammer5,hammer7,20.0,40.0,hammer02.jpg,hammer01.jpg,/static/Category_learning/Stimuli/Experimental_stims/hammer/hammer02.jpg,/static/Category_learning/Stimuli/Experimental_stims/hammer/hammer01.jpg,,,,,,,,,,1.0,74.5,1.5,
378,,isi,,html-keyboard-response,378,263310,0.0-1.0-55.8-2.8,0,0,3,,,,,,,,,,,,,,,,,,,,,,,,,,,,,,,,,,,,,,76.0,1.5,
379,,no_response,,html-keyboard-response,379,264318,0.0-1.0-55.8-4.8-0.8,0,0,3,,,,,,,,,,,,,,,,,,,,,,,,,,,,,,,,,,,,,,77.0,1.0,
380,,iti,,html-keyboard-response,380,264437,0.0-1.0-55.8-5.8,0,0,3,,,,,,,,,,,,,,,,,,,,,,,,,,,,,,,,,,,,,,78.5,1.5,
381,,choice,,html-keyboard-response,381,265945,0.0-1.0-55.9-0.9,0,0,3,,,,,,53.0,70.0,1500.0,1500.0,0.0,2.0,1.0,20-20,1.0,,hammer,hammer,20.0,20.0,hammer5,hammer7,20.0,40.0,hammer02.jpg,hammer01.jpg,/static/Category_learning/Stimuli/Experimental_stims/hammer/hammer02.jpg,/static/Category_learning/Stimuli/Experimental_stims/hammer/hammer01.jpg,,,,,,,,,,1.0,80.0,1.5,
382,,isi,,html-keyboard-response,382,266052,0.0-1.0-55.9-2.9,0,0,3,,,,,,,,,,,,,,,,,,,,,,,,,,,,,,,,,,,,,,81.5,1.5,
383,,no_response,,html-keyboard-response,383,267059,0.0-1.0-55.9-4.9-0.9,0,0,3,,,,,,,,,,,,,,,,,,,,,,,,,,,,,,,,,,,,,,82.5,1.0,
384,,iti,,html-keyboard-response,384,267176,0.0-1.0-55.9-5.9,0,0,3,,,,,,,,,,,,,,,,,,,,,,,,,,,,,,,,,,,,,,84.0,1.5,
385,,choice,,html-keyboard-response,385,268684,0.0-1.0-55.10-0.10,0,0,3,,,,,,53.0,70.0,1500.0,1500.0,0.0,2.0,1.0,20-20,1.0,,hammer,hammer,20.0,20.0,hammer5,hammer7,20.0,40.0,hammer02.jpg,hammer01.jpg,/static/Category_learning/Stimuli/Experimental_stims/hammer/hammer02.jpg,/static/Category_learning/Stimuli/Experimental_stims/hammer/hammer01.jpg,,,,,,,,,,1.0,85.5,1.5,
386,,isi,,html-keyboard-response,386,268792,0.0-1.0-55.10-2.10,0,0,3,,,,,,,,,,,,,,,,,,,,,,,,,,,,,,,,,,,,,,87.0,1.5,
387,,no_response,,html-keyboard-response,387,269801,0.0-1.0-55.10-4.10-0.10,0,0,3,,,,,,,,,,,,,,,,,,,,,,,,,,,,,,,,,,,,,,88.0,1.0,
388,,iti,,html-keyboard-response,388,269923,0.0-1.0-55.10-5.10,0,0,3,,,,,,,,,,,,,,,,,,,,,,,,,,,,,,,,,,,,,,89.5,1.5,
389,,choice,,html-keyboard-response,389,271432,0.0-1.0-55.11-0.11,0,0,3,,,,,,53.0,70.0,1500.0,1500.0,0.0,2.0,1.0,20-20,1.0,,hammer,hammer,20.0,20.0,hammer5,hammer7,20.0,40.0,hammer02.jpg,hammer01.jpg,/static/Category_learning/Stimuli/Experimental_stims/hammer/hammer02.jpg,/static/Category_learning/Stimuli/Experimental_stims/hammer/hammer01.jpg,,,,,,,,,,1.0,91.0,1.5,
390,,isi,,html-keyboard-response,390,271541,0.0-1.0-55.11-2.11,0,0,3,,,,,,,,,,,,,,,,,,,,,,,,,,,,,,,,,,,,,,92.5,1.5,
391,,no_response,,html-keyboard-response,391,272547,0.0-1.0-55.11-4.11-0.11,0,0,3,,,,,,,,,,,,,,,,,,,,,,,,,,,,,,,,,,,,,,93.5,1.0,
392,,iti,,html-keyboard-response,392,272664,0.0-1.0-55.11-5.11,0,0,3,,,,,,,,,,,,,,,,,,,,,,,,,,,,,,,,,,,,,,95.0,1.5,
393,,choice,,html-keyboard-response,393,274173,0.0-1.0-55.12-0.12,0,0,3,,,,,,53.0,70.0,1500.0,1500.0,0.0,2.0,1.0,20-20,1.0,,hammer,hammer,20.0,20.0,hammer5,hammer7,20.0,40.0,hammer02.jpg,hammer01.jpg,/static/Category_learning/Stimuli/Experimental_stims/hammer/hammer02.jpg,/static/Category_learning/Stimuli/Experimental_stims/hammer/hammer01.jpg,,,,,,,,,,1.0,96.5,1.5,
394,,isi,,html-keyboard-response,394,274281,0.0-1.0-55.12-2.12,0,0,3,,,,,,,,,,,,,,,,,,,,,,,,,,,,,,,,,,,,,,98.0,1.5,
395,,no_response,,html-keyboard-response,395,275289,0.0-1.0-55.12-4.12-0.12,0,0,3,,,,,,,,,,,,,,,,,,,,,,,,,,,,,,,,,,,,,,99.0,1.0,
396,,iti,,html-keyboard-response,396,275410,0.0-1.0-55.12-5.12,0,0,3,,,,,,,,,,,,,,,,,,,,,,,,,,,,,,,,,,,,,,100.5,1.5,
397,,choice,,html-keyboard-response,397,276916,0.0-1.0-55.13-0.13,0,0,3,,,,,,53.0,70.0,1500.0,1500.0,0.0,2.0,1.0,20-20,1.0,,hammer,hammer,20.0,20.0,hammer5,hammer7,20.0,40.0,hammer02.jpg,hammer01.jpg,/static/Category_learning/Stimuli/Experimental_stims/hammer/hammer02.jpg,/static/Category_learning/Stimuli/Experimental_stims/hammer/hammer01.jpg,,,,,,,,,,1.0,102.0,1.5,
398,,isi,,html-keyboard-response,398,277024,0.0-1.0-55.13-2.13,0,0,3,,,,,,,,,,,,,,,,,,,,,,,,,,,,,,,,,,,,,,103.5,1.5,
399,,no_response,,html-keyboard-response,399,278028,0.0-1.0-55.13-4.13-0.13,0,0,3,,,,,,,,,,,,,,,,,,,,,,,,,,,,,,,,,,,,,,104.5,1.0,
400,,iti,,html-keyboard-response,400,278141,0.0-1.0-55.13-5.13,0,0,3,,,,,,,,,,,,,,,,,,,,,,,,,,,,,,,,,,,,,,106.0,1.5,
401,,choice,,html-keyboard-response,401,279647,0.0-1.0-55.14-0.14,0,0,3,,,,,,53.0,70.0,1500.0,1500.0,0.0,2.0,1.0,20-20,1.0,,hammer,hammer,20.0,20.0,hammer5,hammer7,20.0,40.0,hammer02.jpg,hammer01.jpg,/static/Category_learning/Stimuli/Experimental_stims/hammer/hammer02.jpg,/static/Category_learning/Stimuli/Experimental_stims/hammer/hammer01.jpg,,,,,,,,,,1.0,107.5,1.5,
402,,isi,,html-keyboard-response,402,279753,0.0-1.0-55.14-2.14,0,0,3,,,,,,,,,,,,,,,,,,,,,,,,,,,,,,,,,,,,,,109.0,1.5,
403,,no_response,,html-keyboard-response,403,280760,0.0-1.0-55.14-4.14-0.14,0,0,3,,,,,,,,,,,,,,,,,,,,,,,,,,,,,,,,,,,,,,110.0,1.0,
404,,iti,,html-keyboard-response,404,280880,0.0-1.0-55.14-5.14,0,0,3,,,,,,,,,,,,,,,,,,,,,,,,,,,,,,,,,,,,,,111.5,1.5,
405,,choice,,html-keyboard-response,405,282387,0.0-1.0-55.15-0.15,0,0,3,,,,,,53.0,70.0,1500.0,1500.0,0.0,2.0,1.0,20-20,1.0,,hammer,hammer,20.0,20.0,hammer5,hammer7,20.0,40.0,hammer02.jpg,hammer01.jpg,/static/Category_learning/Stimuli/Experimental_stims/hammer/hammer02.jpg,/static/Category_learning/Stimuli/Experimental_stims/hammer/hammer01.jpg,,,,,,,,,,1.0,113.0,1.5,
406,,isi,,html-keyboard-response,406,282494,0.0-1.0-55.15-2.15,0,0,3,,,,,,,,,,,,,,,,,,,,,,,,,,,,,,,,,,,,,,114.5,1.5,
407,,no_response,,html-keyboard-response,407,283501,0.0-1.0-55.15-4.15-0.15,0,0,3,,,,,,,,,,,,,,,,,,,,,,,,,,,,,,,,,,,,,,115.5,1.0,
408,,iti,,html-keyboard-response,408,283615,0.0-1.0-55.15-5.15,0,0,3,,,,,,,,,,,,,,,,,,,,,,,,,,,,,,,,,,,,,,117.0,1.5,
409,,choice,,html-keyboard-response,409,285122,0.0-1.0-55.16-0.16,0,0,3,,,,,,53.0,70.0,1500.0,1500.0,0.0,2.0,1.0,20-20,1.0,,hammer,hammer,20.0,20.0,hammer5,hammer7,20.0,40.0,hammer02.jpg,hammer01.jpg,/static/Category_learning/Stimuli/Experimental_stims/hammer/hammer02.jpg,/static/Category_learning/Stimuli/Experimental_stims/hammer/hammer01.jpg,,,,,,,,,,1.0,118.5,1.5,
410,,isi,,html-keyboard-response,410,285229,0.0-1.0-55.16-2.16,0,0,3,,,,,,,,,,,,,,,,,,,,,,,,,,,,,,,,,,,,,,120.0,1.5,
411,,no_response,,html-keyboard-response,411,286238,0.0-1.0-55.16-4.16-0.16,0,0,3,,,,,,,,,,,,,,,,,,,,,,,,,,,,,,,,,,,,,,121.0,1.0,
412,,iti,,html-keyboard-response,412,286357,0.0-1.0-55.16-5.16,0,0,3,,,,,,,,,,,,,,,,,,,,,,,,,,,,,,,,,,,,,,122.5,1.5,
413,,choice,,html-keyboard-response,413,287865,0.0-1.0-55.17-0.17,0,0,3,,,,,,53.0,70.0,1500.0,1500.0,0.0,2.0,1.0,20-20,1.0,,hammer,hammer,20.0,20.0,hammer5,hammer7,20.0,40.0,hammer02.jpg,hammer01.jpg,/static/Category_learning/Stimuli/Experimental_stims/hammer/hammer02.jpg,/static/Category_learning/Stimuli/Experimental_stims/hammer/hammer01.jpg,,,,,,,,,,1.0,124.0,1.5,
414,,isi,,html-keyboard-response,414,287971,0.0-1.0-55.17-2.17,0,0,3,,,,,,,,,,,,,,,,,,,,,,,,,,,,,,,,,,,,,,125.5,1.5,
415,,no_response,,html-keyboard-response,415,288979,0.0-1.0-55.17-4.17-0.17,0,0,3,,,,,,,,,,,,,,,,,,,,,,,,,,,,,,,,,,,,,,126.5,1.0,
416,,iti,,html-keyboard-response,416,289096,0.0-1.0-55.17-5.17,0,0,3,,,,,,,,,,,,,,,,,,,,,,,,,,,,,,,,,,,,,,128.0,1.5,
417,,choice,,html-keyboard-response,417,290601,0.0-1.0-55.18-0.18,0,0,3,,,,,,53.0,70.0,1500.0,1500.0,0.0,2.0,1.0,20-20,1.0,,hammer,hammer,20.0,20.0,hammer5,hammer7,20.0,40.0,hammer02.jpg,hammer01.jpg,/static/Category_learning/Stimuli/Experimental_stims/hammer/hammer02.jpg,/static/Category_learning/Stimuli/Experimental_stims/hammer/hammer01.jpg,,,,,,,,,,1.0,129.5,1.5,
418,,isi,,html-keyboard-response,418,290707,0.0-1.0-55.18-2.18,0,0,3,,,,,,,,,,,,,,,,,,,,,,,,,,,,,,,,,,,,,,131.0,1.5,
419,,no_response,,html-keyboard-response,419,291715,0.0-1.0-55.18-4.18-0.18,0,0,3,,,,,,,,,,,,,,,,,,,,,,,,,,,,,,,,,,,,,,132.0,1.0,
420,,iti,,html-keyboard-response,420,291832,0.0-1.0-55.18-5.18,0,0,3,,,,,,,,,,,,,,,,,,,,,,,,,,,,,,,,,,,,,,133.5,1.5,
421,,choice,,html-keyboard-response,421,293340,0.0-1.0-55.19-0.19,0,0,3,,,,,,53.0,70.0,1500.0,1500.0,0.0,2.0,1.0,20-20,1.0,,hammer,hammer,20.0,20.0,hammer5,hammer7,20.0,40.0,hammer02.jpg,hammer01.jpg,/static/Category_learning/Stimuli/Experimental_stims/hammer/hammer02.jpg,/static/Category_learning/Stimuli/Experimental_stims/hammer/hammer01.jpg,,,,,,,,,,1.0,135.0,1.5,
422,,isi,,html-keyboard-response,422,293448,0.0-1.0-55.19-2.19,0,0,3,,,,,,,,,,,,,,,,,,,,,,,,,,,,,,,,,,,,,,136.5,1.5,
423,,no_response,,html-keyboard-response,423,294455,0.0-1.0-55.19-4.19-0.19,0,0,3,,,,,,,,,,,,,,,,,,,,,,,,,,,,,,,,,,,,,,137.5,1.0,
424,,iti,,html-keyboard-response,424,294578,0.0-1.0-55.19-5.19,0,0,3,,,,,,,,,,,,,,,,,,,,,,,,,,,,,,,,,,,,,,139.0,1.5,
425,,choice,,html-keyboard-response,425,296084,0.0-1.0-55.20-0.20,0,0,3,,,,,,53.0,70.0,1500.0,1500.0,0.0,2.0,1.0,20-20,1.0,,hammer,hammer,20.0,20.0,hammer5,hammer7,20.0,40.0,hammer02.jpg,hammer01.jpg,/static/Category_learning/Stimuli/Experimental_stims/hammer/hammer02.jpg,/static/Category_learning/Stimuli/Experimental_stims/hammer/hammer01.jpg,,,,,,,,,,1.0,140.5,1.5,
426,,isi,,html-keyboard-response,426,296191,0.0-1.0-55.20-2.20,0,0,3,,,,,,,,,,,,,,,,,,,,,,,,,,,,,,,,,,,,,,142.0,1.5,
427,,no_response,,html-keyboard-response,427,297199,0.0-1.0-55.20-4.20-0.20,0,0,3,,,,,,,,,,,,,,,,,,,,,,,,,,,,,,,,,,,,,,143.0,1.0,
428,,iti,,html-keyboard-response,428,297317,0.0-1.0-55.20-5.20,0,0,3,,,,,,,,,,,,,,,,,,,,,,,,,,,,,,,,,,,,,,144.5,1.5,
429,,choice,,html-keyboard-response,429,298826,0.0-1.0-55.21-0.21,0,0,3,,,,,,53.0,70.0,1500.0,1500.0,0.0,2.0,1.0,20-20,1.0,,hammer,hammer,20.0,20.0,hammer5,hammer7,20.0,40.0,hammer02.jpg,hammer01.jpg,/static/Category_learning/Stimuli/Experimental_stims/hammer/hammer02.jpg,/static/Category_learning/Stimuli/Experimental_stims/hammer/hammer01.jpg,,,,,,,,,,1.0,146.0,1.5,
430,,isi,,html-keyboard-response,430,298932,0.0-1.0-55.21-2.21,0,0,3,,,,,,,,,,,,,,,,,,,,,,,,,,,,,,,,,,,,,,147.5,1.5,
431,,no_response,,html-keyboard-response,431,299939,0.0-1.0-55.21-4.21-0.21,0,0,3,,,,,,,,,,,,,,,,,,,,,,,,,,,,,,,,,,,,,,148.5,1.0,
432,,iti,,html-keyboard-response,432,300056,0.0-1.0-55.21-5.21,0,0,3,,,,,,,,,,,,,,,,,,,,,,,,,,,,,,,,,,,,,,150.0,1.5,
433,,choice,,html-keyboard-response,433,301563,0.0-1.0-55.22-0.22,0,0,3,,,,,,53.0,70.0,1500.0,1500.0,0.0,2.0,1.0,20-20,1.0,,hammer,hammer,20.0,20.0,hammer5,hammer7,20.0,40.0,hammer02.jpg,hammer01.jpg,/static/Category_learning/Stimuli/Experimental_stims/hammer/hammer02.jpg,/static/Category_learning/Stimuli/Experimental_stims/hammer/hammer01.jpg,,,,,,,,,,1.0,151.5,1.5,
434,,isi,,html-keyboard-response,434,301670,0.0-1.0-55.22-2.22,0,0,3,,,,,,,,,,,,,,,,,,,,,,,,,,,,,,,,,,,,,,153.0,1.5,
435,,no_response,,html-keyboard-response,435,302674,0.0-1.0-55.22-4.22-0.22,0,0,3,,,,,,,,,,,,,,,,,,,,,,,,,,,,,,,,,,,,,,154.0,1.0,
436,,iti,,html-keyboard-response,436,302792,0.0-1.0-55.22-5.22,0,0,3,,,,,,,,,,,,,,,,,,,,,,,,,,,,,,,,,,,,,,155.5,1.5,
437,,choice,,html-keyboard-response,437,304299,0.0-1.0-55.23-0.23,0,0,3,,,,,,53.0,70.0,1500.0,1500.0,0.0,2.0,1.0,20-20,1.0,,hammer,hammer,20.0,20.0,hammer5,hammer7,20.0,40.0,hammer02.jpg,hammer01.jpg,/static/Category_learning/Stimuli/Experimental_stims/hammer/hammer02.jpg,/static/Category_learning/Stimuli/Experimental_stims/hammer/hammer01.jpg,,,,,,,,,,1.0,157.0,1.5,
438,,isi,,html-keyboard-response,438,304406,0.0-1.0-55.23-2.23,0,0,3,,,,,,,,,,,,,,,,,,,,,,,,,,,,,,,,,,,,,,158.5,1.5,
439,,no_response,,html-keyboard-response,439,305412,0.0-1.0-55.23-4.23-0.23,0,0,3,,,,,,,,,,,,,,,,,,,,,,,,,,,,,,,,,,,,,,159.5,1.0,
440,,iti,,html-keyboard-response,440,305530,0.0-1.0-55.23-5.23,0,0,3,,,,,,,,,,,,,,,,,,,,,,,,,,,,,,,,,,,,,,161.0,1.5,
441,,choice,,html-keyboard-response,441,307036,0.0-1.0-55.24-0.24,0,0,3,,,,,,53.0,70.0,1500.0,1500.0,0.0,2.0,1.0,20-20,1.0,,hammer,hammer,20.0,20.0,hammer5,hammer7,20.0,40.0,hammer02.jpg,hammer01.jpg,/static/Category_learning/Stimuli/Experimental_stims/hammer/hammer02.jpg,/static/Category_learning/Stimuli/Experimental_stims/hammer/hammer01.jpg,,,,,,,,,,1.0,162.5,1.5,
442,,isi,,html-keyboard-response,442,307144,0.0-1.0-55.24-2.24,0,0,3,,,,,,,,,,,,,,,,,,,,,,,,,,,,,,,,,,,,,,164.0,1.5,
443,,no_response,,html-keyboard-response,443,308149,0.0-1.0-55.24-4.24-0.24,0,0,3,,,,,,,,,,,,,,,,,,,,,,,,,,,,,,,,,,,,,,165.0,1.0,
444,,iti,,html-keyboard-response,444,308267,0.0-1.0-55.24-5.24,0,0,3,,,,,,,,,,,,,,,,,,,,,,,,,,,,,,,,,,,,,,166.5,1.5,
445,,choice,,html-keyboard-response,445,309777,0.0-1.0-55.25-0.25,0,0,3,,,,,,53.0,70.0,1500.0,1500.0,0.0,2.0,1.0,20-20,1.0,,hammer,hammer,20.0,20.0,hammer5,hammer7,20.0,40.0,hammer02.jpg,hammer01.jpg,/static/Category_learning/Stimuli/Experimental_stims/hammer/hammer02.jpg,/static/Category_learning/Stimuli/Experimental_stims/hammer/hammer01.jpg,,,,,,,,,,1.0,168.0,1.5,
446,,isi,,html-keyboard-response,446,309883,0.0-1.0-55.25-2.25,0,0,3,,,,,,,,,,,,,,,,,,,,,,,,,,,,,,,,,,,,,,169.5,1.5,
447,,no_response,,html-keyboard-response,447,310889,0.0-1.0-55.25-4.25-0.25,0,0,3,,,,,,,,,,,,,,,,,,,,,,,,,,,,,,,,,,,,,,170.5,1.0,
448,,iti,,html-keyboard-response,448,311005,0.0-1.0-55.25-5.25,0,0,3,,,,,,,,,,,,,,,,,,,,,,,,,,,,,,,,,,,,,,172.0,1.5,
449,,choice,,html-keyboard-response,449,312513,0.0-1.0-55.26-0.26,0,0,3,,,,,,53.0,70.0,1500.0,1500.0,0.0,2.0,1.0,20-20,1.0,,hammer,hammer,20.0,20.0,hammer5,hammer7,20.0,40.0,hammer02.jpg,hammer01.jpg,/static/Category_learning/Stimuli/Experimental_stims/hammer/hammer02.jpg,/static/Category_learning/Stimuli/Experimental_stims/hammer/hammer01.jpg,,,,,,,,,,1.0,173.5,1.5,
450,,isi,,html-keyboard-response,450,312619,0.0-1.0-55.26-2.26,0,0,3,,,,,,,,,,,,,,,,,,,,,,,,,,,,,,,,,,,,,,175.0,1.5,
451,,no_response,,html-keyboard-response,451,313627,0.0-1.0-55.26-4.26-0.26,0,0,3,,,,,,,,,,,,,,,,,,,,,,,,,,,,,,,,,,,,,,176.0,1.0,
452,,iti,,html-keyboard-response,452,313746,0.0-1.0-55.26-5.26,0,0,3,,,,,,,,,,,,,,,,,,,,,,,,,,,,,,,,,,,,,,177.5,1.5,
453,,choice,,html-keyboard-response,453,315255,0.0-1.0-55.27-0.27,0,0,3,,,,,,53.0,70.0,1500.0,1500.0,0.0,2.0,1.0,20-20,1.0,,hammer,hammer,20.0,20.0,hammer5,hammer7,20.0,40.0,hammer02.jpg,hammer01.jpg,/static/Category_learning/Stimuli/Experimental_stims/hammer/hammer02.jpg,/static/Category_learning/Stimuli/Experimental_stims/hammer/hammer01.jpg,,,,,,,,,,1.0,179.0,1.5,
454,,isi,,html-keyboard-response,454,315363,0.0-1.0-55.27-2.27,0,0,3,,,,,,,,,,,,,,,,,,,,,,,,,,,,,,,,,,,,,,180.5,1.5,
455,,no_response,,html-keyboard-response,455,316371,0.0-1.0-55.27-4.27-0.27,0,0,3,,,,,,,,,,,,,,,,,,,,,,,,,,,,,,,,,,,,,,181.5,1.0,
456,,iti,,html-keyboard-response,456,316493,0.0-1.0-55.27-5.27,0,0,3,,,,,,,,,,,,,,,,,,,,,,,,,,,,,,,,,,,,,,183.0,1.5,
457,,choice,,html-keyboard-response,457,317997,0.0-1.0-55.28-0.28,0,0,3,,,,,,53.0,70.0,1500.0,1500.0,0.0,2.0,1.0,20-20,1.0,,hammer,hammer,20.0,20.0,hammer5,hammer7,20.0,40.0,hammer02.jpg,hammer01.jpg,/static/Category_learning/Stimuli/Experimental_stims/hammer/hammer02.jpg,/static/Category_learning/Stimuli/Experimental_stims/hammer/hammer01.jpg,,,,,,,,,,1.0,184.5,1.5,
458,,isi,,html-keyboard-response,458,318104,0.0-1.0-55.28-2.28,0,0,3,,,,,,,,,,,,,,,,,,,,,,,,,,,,,,,,,,,,,,186.0,1.5,
459,,no_response,,html-keyboard-response,459,319112,0.0-1.0-55.28-4.28-0.28,0,0,3,,,,,,,,,,,,,,,,,,,,,,,,,,,,,,,,,,,,,,187.0,1.0,
460,,iti,,html-keyboard-response,460,319235,0.0-1.0-55.28-5.28,0,0,3,,,,,,,,,,,,,,,,,,,,,,,,,,,,,,,,,,,,,,188.5,1.5,
461,,choice,,html-keyboard-response,461,320744,0.0-1.0-55.29-0.29,0,0,3,,,,,,53.0,70.0,1500.0,1500.0,0.0,2.0,1.0,20-20,1.0,,hammer,hammer,20.0,20.0,hammer5,hammer7,20.0,40.0,hammer02.jpg,hammer01.jpg,/static/Category_learning/Stimuli/Experimental_stims/hammer/hammer02.jpg,/static/Category_learning/Stimuli/Experimental_stims/hammer/hammer01.jpg,,,,,,,,,,1.0,190.0,1.5,
462,,isi,,html-keyboard-response,462,320851,0.0-1.0-55.29-2.29,0,0,3,,,,,,,,,,,,,,,,,,,,,,,,,,,,,,,,,,,,,,191.5,1.5,
463,,no_response,,html-keyboard-response,463,321859,0.0-1.0-55.29-4.29-0.29,0,0,3,,,,,,,,,,,,,,,,,,,,,,,,,,,,,,,,,,,,,,192.5,1.0,
464,,iti,,html-keyboard-response,464,321976,0.0-1.0-55.29-5.29,0,0,3,,,,,,,,,,,,,,,,,,,,,,,,,,,,,,,,,,,,,,194.0,1.5,
465,,choice,,html-keyboard-response,465,323481,0.0-1.0-55.30-0.30,0,0,3,,,,,,53.0,70.0,1500.0,1500.0,0.0,2.0,1.0,20-20,1.0,,hammer,hammer,20.0,20.0,hammer5,hammer7,20.0,40.0,hammer02.jpg,hammer01.jpg,/static/Category_learning/Stimuli/Experimental_stims/hammer/hammer02.jpg,/static/Category_learning/Stimuli/Experimental_stims/hammer/hammer01.jpg,,,,,,,,,,1.0,195.5,1.5,
466,,isi,,html-keyboard-response,466,323587,0.0-1.0-55.30-2.30,0,0,3,,,,,,,,,,,,,,,,,,,,,,,,,,,,,,,,,,,,,,197.0,1.5,
467,,no_response,,html-keyboard-response,467,324594,0.0-1.0-55.30-4.30-0.30,0,0,3,,,,,,,,,,,,,,,,,,,,,,,,,,,,,,,,,,,,,,198.0,1.0,
468,,iti,,html-keyboard-response,468,324713,0.0-1.0-55.30-5.30,0,0,3,,,,,,,,,,,,,,,,,,,,,,,,,,,,,,,,,,,,,,199.5,1.5,
469,,choice,,html-keyboard-response,469,326220,0.0-1.0-55.31-0.31,0,0,3,,,,,,53.0,70.0,1500.0,1500.0,0.0,2.0,1.0,20-20,1.0,,hammer,hammer,20.0,20.0,hammer5,hammer7,20.0,40.0,hammer02.jpg,hammer01.jpg,/static/Category_learning/Stimuli/Experimental_stims/hammer/hammer02.jpg,/static/Category_learning/Stimuli/Experimental_stims/hammer/hammer01.jpg,,,,,,,,,,1.0,201.0,1.5,
470,,isi,,html-keyboard-response,470,326328,0.0-1.0-55.31-2.31,0,0,3,,,,,,,,,,,,,,,,,,,,,,,,,,,,,,,,,,,,,,202.5,1.5,
471,,no_response,,html-keyboard-response,471,327331,0.0-1.0-55.31-4.31-0.31,0,0,3,,,,,,,,,,,,,,,,,,,,,,,,,,,,,,,,,,,,,,203.5,1.0,
472,,iti,,html-keyboard-response,472,327445,0.0-1.0-55.31-5.31,0,0,3,,,,,,,,,,,,,,,,,,,,,,,,,,,,,,,,,,,,,,205.0,1.5,
473,,choice,,html-keyboard-response,473,328954,0.0-1.0-55.32-0.32,0,0,3,,,,,,53.0,70.0,1500.0,1500.0,0.0,2.0,1.0,20-20,1.0,,hammer,hammer,20.0,20.0,hammer5,hammer7,20.0,40.0,hammer02.jpg,hammer01.jpg,/static/Category_learning/Stimuli/Experimental_stims/hammer/hammer02.jpg,/static/Category_learning/Stimuli/Experimental_stims/hammer/hammer01.jpg,,,,,,,,,,1.0,206.5,1.5,
474,,isi,,html-keyboard-response,474,329061,0.0-1.0-55.32-2.32,0,0,3,,,,,,,,,,,,,,,,,,,,,,,,,,,,,,,,,,,,,,208.0,1.5,
475,,no_response,,html-keyboard-response,475,330066,0.0-1.0-55.32-4.32-0.32,0,0,3,,,,,,,,,,,,,,,,,,,,,,,,,,,,,,,,,,,,,,209.0,1.0,
476,,iti,,html-keyboard-response,476,330183,0.0-1.0-55.32-5.32,0,0,3,,,,,,,,,,,,,,,,,,,,,,,,,,,,,,,,,,,,,,210.5,1.5,
477,,choice,,html-keyboard-response,477,331689,0.0-1.0-55.33-0.33,0,0,3,,,,,,53.0,70.0,1500.0,1500.0,0.0,2.0,1.0,20-20,1.0,,hammer,hammer,20.0,20.0,hammer5,hammer7,20.0,40.0,hammer02.jpg,hammer01.jpg,/static/Category_learning/Stimuli/Experimental_stims/hammer/hammer02.jpg,/static/Category_learning/Stimuli/Experimental_stims/hammer/hammer01.jpg,,,,,,,,,,1.0,212.0,1.5,
478,,isi,,html-keyboard-response,478,331795,0.0-1.0-55.33-2.33,0,0,3,,,,,,,,,,,,,,,,,,,,,,,,,,,,,,,,,,,,,,213.5,1.5,
479,,no_response,,html-keyboard-response,479,332802,0.0-1.0-55.33-4.33-0.33,0,0,3,,,,,,,,,,,,,,,,,,,,,,,,,,,,,,,,,,,,,,214.5,1.0,
480,,iti,,html-keyboard-response,480,332921,0.0-1.0-55.33-5.33,0,0,3,,,,,,,,,,,,,,,,,,,,,,,,,,,,,,,,,,,,,,216.0,1.5,
481,,choice,,html-keyboard-response,481,334429,0.0-1.0-55.34-0.34,0,0,3,,,,,,53.0,70.0,1500.0,1500.0,0.0,2.0,1.0,20-20,1.0,,hammer,hammer,20.0,20.0,hammer5,hammer7,20.0,40.0,hammer02.jpg,hammer01.jpg,/static/Category_learning/Stimuli/Experimental_stims/hammer/hammer02.jpg,/static/Category_learning/Stimuli/Experimental_stims/hammer/hammer01.jpg,,,,,,,,,,1.0,217.5,1.5,
482,,isi,,html-keyboard-response,482,334536,0.0-1.0-55.34-2.34,0,0,3,,,,,,,,,,,,,,,,,,,,,,,,,,,,,,,,,,,,,,219.0,1.5,
483,,no_response,,html-keyboard-response,483,335544,0.0-1.0-55.34-4.34-0.34,0,0,3,,,,,,,,,,,,,,,,,,,,,,,,,,,,,,,,,,,,,,220.0,1.0,
484,,iti,,html-keyboard-response,484,335661,0.0-1.0-55.34-5.34,0,0,3,,,,,,,,,,,,,,,,,,,,,,,,,,,,,,,,,,,,,,221.5,1.5,
485,,choice,,html-keyboard-response,485,337166,0.0-1.0-55.35-0.35,0,0,3,,,,,,53.0,70.0,1500.0,1500.0,0.0,2.0,1.0,20-20,1.0,,hammer,hammer,20.0,20.0,hammer5,hammer7,20.0,40.0,hammer02.jpg,hammer01.jpg,/static/Category_learning/Stimuli/Experimental_stims/hammer/hammer02.jpg,/static/Category_learning/Stimuli/Experimental_stims/hammer/hammer01.jpg,,,,,,,,,,1.0,223.0,1.5,
486,,isi,,html-keyboard-response,486,337273,0.0-1.0-55.35-2.35,0,0,3,,,,,,,,,,,,,,,,,,,,,,,,,,,,,,,,,,,,,,224.5,1.5,
487,,no_response,,html-keyboard-response,487,338279,0.0-1.0-55.35-4.35-0.35,0,0,3,,,,,,,,,,,,,,,,,,,,,,,,,,,,,,,,,,,,,,225.5,1.0,
488,,iti,,html-keyboard-response,488,338397,0.0-1.0-55.35-5.35,0,0,3,,,,,,,,,,,,,,,,,,,,,,,,,,,,,,,,,,,,,,227.0,1.5,
489,,choice,,html-keyboard-response,489,339905,0.0-1.0-55.36-0.36,0,0,3,,,,,,53.0,70.0,1500.0,1500.0,0.0,2.0,1.0,20-20,1.0,,hammer,hammer,20.0,20.0,hammer5,hammer7,20.0,40.0,hammer02.jpg,hammer01.jpg,/static/Category_learning/Stimuli/Experimental_stims/hammer/hammer02.jpg,/static/Category_learning/Stimuli/Experimental_stims/hammer/hammer01.jpg,,,,,,,,,,1.0,228.5,1.5,
490,,isi,,html-keyboard-response,490,340011,0.0-1.0-55.36-2.36,0,0,3,,,,,,,,,,,,,,,,,,,,,,,,,,,,,,,,,,,,,,230.0,1.5,
491,,no_response,,html-keyboard-response,491,341016,0.0-1.0-55.36-4.36-0.36,0,0,3,,,,,,,,,,,,,,,,,,,,,,,,,,,,,,,,,,,,,,231.0,1.0,
492,,iti,,html-keyboard-response,492,341135,0.0-1.0-55.36-5.36,0,0,3,,,,,,,,,,,,,,,,,,,,,,,,,,,,,,,,,,,,,,232.5,1.5,
493,,choice,,html-keyboard-response,493,342643,0.0-1.0-55.37-0.37,0,0,3,,,,,,53.0,70.0,1500.0,1500.0,0.0,2.0,1.0,20-20,1.0,,hammer,hammer,20.0,20.0,hammer5,hammer7,20.0,40.0,hammer02.jpg,hammer01.jpg,/static/Category_learning/Stimuli/Experimental_stims/hammer/hammer02.jpg,/static/Category_learning/Stimuli/Experimental_stims/hammer/hammer01.jpg,,,,,,,,,,1.0,234.0,1.5,
494,,isi,,html-keyboard-response,494,342751,0.0-1.0-55.37-2.37,0,0,3,,,,,,,,,,,,,,,,,,,,,,,,,,,,,,,,,,,,,,235.5,1.5,
495,,no_response,,html-keyboard-response,495,343758,0.0-1.0-55.37-4.37-0.37,0,0,3,,,,,,,,,,,,,,,,,,,,,,,,,,,,,,,,,,,,,,236.5,1.0,
496,,iti,,html-keyboard-response,496,343881,0.0-1.0-55.37-5.37,0,0,3,,,,,,,,,,,,,,,,,,,,,,,,,,,,,,,,,,,,,,238.0,1.5,
497,,choice,,html-keyboard-response,497,345390,0.0-1.0-55.38-0.38,0,0,3,,,,,,53.0,70.0,1500.0,1500.0,0.0,2.0,1.0,20-20,1.0,,hammer,hammer,20.0,20.0,hammer5,hammer7,20.0,40.0,hammer02.jpg,hammer01.jpg,/static/Category_learning/Stimuli/Experimental_stims/hammer/hammer02.jpg,/static/Category_learning/Stimuli/Experimental_stims/hammer/hammer01.jpg,,,,,,,,,,1.0,239.5,1.5,
498,,isi,,html-keyboard-response,498,345498,0.0-1.0-55.38-2.38,0,0,3,,,,,,,,,,,,,,,,,,,,,,,,,,,,,,,,,,,,,,241.0,1.5,
499,,no_response,,html-keyboard-response,499,346507,0.0-1.0-55.38-4.38-0.38,0,0,3,,,,,,,,,,,,,,,,,,,,,,,,,,,,,,,,,,,,,,242.0,1.0,
500,,iti,,html-keyboard-response,500,346623,0.0-1.0-55.38-5.38,0,0,3,,,,,,,,,,,,,,,,,,,,,,,,,,,,,,,,,,,,,,243.5,1.5,
501,,choice,,html-keyboard-response,501,348130,0.0-1.0-55.39-0.39,0,0,3,,,,,,53.0,70.0,1500.0,1500.0,0.0,2.0,1.0,20-20,1.0,,hammer,hammer,20.0,20.0,hammer5,hammer7,20.0,40.0,hammer02.jpg,hammer01.jpg,/static/Category_learning/Stimuli/Experimental_stims/hammer/hammer02.jpg,/static/Category_learning/Stimuli/Experimental_stims/hammer/hammer01.jpg,,,,,,,,,,1.0,245.0,1.5,
502,,isi,,html-keyboard-response,502,348237,0.0-1.0-55.39-2.39,0,0,3,,,,,,,,,,,,,,,,,,,,,,,,,,,,,,,,,,,,,,246.5,1.5,
503,,no_response,,html-keyboard-response,503,349245,0.0-1.0-55.39-4.39-0.39,0,0,3,,,,,,,,,,,,,,,,,,,,,,,,,,,,,,,,,,,,,,247.5,1.0,
504,,iti,,html-keyboard-response,504,349362,0.0-1.0-55.39-5.39,0,0,3,,,,,,,,,,,,,,,,,,,,,,,,,,,,,,,,,,,,,,249.0,1.5,
505,,choice,,html-keyboard-response,505,350870,0.0-1.0-55.40-0.40,0,0,3,,,,,,53.0,70.0,1500.0,1500.0,0.0,2.0,1.0,20-20,1.0,,hammer,hammer,20.0,20.0,hammer5,hammer7,20.0,40.0,hammer02.jpg,hammer01.jpg,/static/Category_learning/Stimuli/Experimental_stims/hammer/hammer02.jpg,/static/Category_learning/Stimuli/Experimental_stims/hammer/hammer01.jpg,,,,,,,,,,1.0,250.5,1.5,
506,,isi,,html-keyboard-response,506,350981,0.0-1.0-55.40-2.40,0,0,3,,,,,,,,,,,,,,,,,,,,,,,,,,,,,,,,,,,,,,252.0,1.5,
507,,no_response,,html-keyboard-response,507,351986,0.0-1.0-55.40-4.40-0.40,0,0,3,,,,,,,,,,,,,,,,,,,,,,,,,,,,,,,,,,,,,,253.0,1.0,
508,,iti,,html-keyboard-response,508,352099,0.0-1.0-55.40-5.40,0,0,3,,,,,,,,,,,,,,,,,,,,,,,,,,,,,,,,,,,,,,254.5,1.5,
509,,choice,,html-keyboard-response,509,353608,0.0-1.0-55.41-0.41,0,0,3,,,,,,53.0,70.0,1500.0,1500.0,0.0,2.0,1.0,20-20,1.0,,hammer,hammer,20.0,20.0,hammer5,hammer7,20.0,40.0,hammer02.jpg,hammer01.jpg,/static/Category_learning/Stimuli/Experimental_stims/hammer/hammer02.jpg,/static/Category_learning/Stimuli/Experimental_stims/hammer/hammer01.jpg,,,,,,,,,,1.0,256.0,1.5,
510,,isi,,html-keyboard-response,510,353716,0.0-1.0-55.41-2.41,0,0,3,,,,,,,,,,,,,,,,,,,,,,,,,,,,,,,,,,,,,,257.5,1.5,
511,,no_response,,html-keyboard-response,511,354723,0.0-1.0-55.41-4.41-0.41,0,0,3,,,,,,,,,,,,,,,,,,,,,,,,,,,,,,,,,,,,,,258.5,1.0,
512,,iti,,html-keyboard-response,512,354840,0.0-1.0-55.41-5.41,0,0,3,,,,,,,,,,,,,,,,,,,,,,,,,,,,,,,,,,,,,,260.0,1.5,
513,,choice,,html-keyboard-response,513,356349,0.0-1.0-55.42-0.42,0,0,3,,,,,,53.0,70.0,1500.0,1500.0,0.0,2.0,1.0,20-20,1.0,,hammer,hammer,20.0,20.0,hammer5,hammer7,20.0,40.0,hammer02.jpg,hammer01.jpg,/static/Category_learning/Stimuli/Experimental_stims/hammer/hammer02.jpg,/static/Category_learning/Stimuli/Experimental_stims/hammer/hammer01.jpg,,,,,,,,,,1.0,261.5,1.5,
514,,isi,,html-keyboard-response,514,356457,0.0-1.0-55.42-2.42,0,0,3,,,,,,,,,,,,,,,,,,,,,,,,,,,,,,,,,,,,,,263.0,1.5,
515,,no_response,,html-keyboard-response,515,357463,0.0-1.0-55.42-4.42-0.42,0,0,3,,,,,,,,,,,,,,,,,,,,,,,,,,,,,,,,,,,,,,264.0,1.0,
516,,iti,,html-keyboard-response,516,357577,0.0-1.0-55.42-5.42,0,0,3,,,,,,,,,,,,,,,,,,,,,,,,,,,,,,,,,,,,,,265.5,1.5,
517,,choice,,html-keyboard-response,517,359085,0.0-1.0-55.43-0.43,0,0,3,,,,,,53.0,70.0,1500.0,1500.0,0.0,2.0,1.0,20-20,1.0,,hammer,hammer,20.0,20.0,hammer5,hammer7,20.0,40.0,hammer02.jpg,hammer01.jpg,/static/Category_learning/Stimuli/Experimental_stims/hammer/hammer02.jpg,/static/Category_learning/Stimuli/Experimental_stims/hammer/hammer01.jpg,,,,,,,,,,1.0,267.0,1.5,
518,,isi,,html-keyboard-response,518,359192,0.0-1.0-55.43-2.43,0,0,3,,,,,,,,,,,,,,,,,,,,,,,,,,,,,,,,,,,,,,268.5,1.5,
519,,no_response,,html-keyboard-response,519,360201,0.0-1.0-55.43-4.43-0.43,0,0,3,,,,,,,,,,,,,,,,,,,,,,,,,,,,,,,,,,,,,,269.5,1.0,
520,,iti,,html-keyboard-response,520,360316,0.0-1.0-55.43-5.43,0,0,3,,,,,,,,,,,,,,,,,,,,,,,,,,,,,,,,,,,,,,271.0,1.5,
521,,choice,,html-keyboard-response,521,361822,0.0-1.0-55.44-0.44,0,0,3,,,,,,53.0,70.0,1500.0,1500.0,0.0,2.0,1.0,20-20,1.0,,hammer,hammer,20.0,20.0,hammer5,hammer7,20.0,40.0,hammer02.jpg,hammer01.jpg,/static/Category_learning/Stimuli/Experimental_stims/hammer/hammer02.jpg,/static/Category_learning/Stimuli/Experimental_stims/hammer/hammer01.jpg,,,,,,,,,,1.0,272.5,1.5,
522,,isi,,html-keyboard-response,522,361929,0.0-1.0-55.44-2.44,0,0,3,,,,,,,,,,,,,,,,,,,,,,,,,,,,,,,,,,,,,,274.0,1.5,
523,,no_response,,html-keyboard-response,523,362937,0.0-1.0-55.44-4.44-0.44,0,0,3,,,,,,,,,,,,,,,,,,,,,,,,,,,,,,,,,,,,,,275.0,1.0,
524,,iti,,html-keyboard-response,524,363055,0.0-1.0-55.44-5.44,0,0,3,,,,,,,,,,,,,,,,,,,,,,,,,,,,,,,,,,,,,,276.5,1.5,
525,,choice,,html-keyboard-response,525,364564,0.0-1.0-55.45-0.45,0,0,3,,,,,,53.0,70.0,1500.0,1500.0,0.0,2.0,1.0,20-20,1.0,,hammer,hammer,20.0,20.0,hammer5,hammer7,20.0,40.0,hammer02.jpg,hammer01.jpg,/static/Category_learning/Stimuli/Experimental_stims/hammer/hammer02.jpg,/static/Category_learning/Stimuli/Experimental_stims/hammer/hammer01.jpg,,,,,,,,,,1.0,278.0,1.5,
526,,isi,,html-keyboard-response,526,364669,0.0-1.0-55.45-2.45,0,0,3,,,,,,,,,,,,,,,,,,,,,,,,,,,,,,,,,,,,,,279.5,1.5,
527,,no_response,,html-keyboard-response,527,365678,0.0-1.0-55.45-4.45-0.45,0,0,3,,,,,,,,,,,,,,,,,,,,,,,,,,,,,,,,,,,,,,280.5,1.0,
528,,iti,,html-keyboard-response,528,365794,0.0-1.0-55.45-5.45,0,0,3,,,,,,,,,,,,,,,,,,,,,,,,,,,,,,,,,,,,,,282.0,1.5,
529,,choice,,html-keyboard-response,529,367298,0.0-1.0-55.46-0.46,0,0,3,,,,,,53.0,70.0,1500.0,1500.0,0.0,2.0,1.0,20-20,1.0,,hammer,hammer,20.0,20.0,hammer5,hammer7,20.0,40.0,hammer02.jpg,hammer01.jpg,/static/Category_learning/Stimuli/Experimental_stims/hammer/hammer02.jpg,/static/Category_learning/Stimuli/Experimental_stims/hammer/hammer01.jpg,,,,,,,,,,1.0,283.5,1.5,
530,,isi,,html-keyboard-response,530,367405,0.0-1.0-55.46-2.46,0,0,3,,,,,,,,,,,,,,,,,,,,,,,,,,,,,,,,,,,,,,285.0,1.5,
531,,no_response,,html-keyboard-response,531,368411,0.0-1.0-55.46-4.46-0.46,0,0,3,,,,,,,,,,,,,,,,,,,,,,,,,,,,,,,,,,,,,,286.0,1.0,
532,,iti,,html-keyboard-response,532,368531,0.0-1.0-55.46-5.46,0,0,3,,,,,,,,,,,,,,,,,,,,,,,,,,,,,,,,,,,,,,287.5,1.5,
