,success,ttype,start_time,trial_type,trial_index,time_elapsed,internal_node_id,warning,missed_checkup,PID,view_history,rt,responses,repeat_instructions,key_press,index,trial_num,isi,iti,is_practice,block,old_trial,pair_type,within_category,high_cat_on_left,left_category,right_category,left_category_value,right_category_value,left_exemplar,right_exemplar,left_exemplar_value,right_exemplar_value,left_img,right_img,left_img_path,right_img_path,left_chosen,chosen_category,unchosen_category,chosen_category_value,unchosen_category_value,chosen_exemplar,unchosen_exemplar,chosen_exemplar_value,unchosen_exemplar_value,no_response,onset,duration,end_practice
0,True,full_screen,d05192022hr2115,fullscreen,0,1753,0.0-0.0,0,0,3,,,,,,,,,,,,,,,,,,,,,,,,,,,,,,,,,,,,,,,,
1,,category_learning_instructions,,instructions,1,5096,0.0-1.0-0.0-0.0,0,0,3,"[{""page_index"":0,""viewing_time"":710},{""page_index"":1,""viewing_time"":191},{""page_index"":2,""viewing_time"":159},{""page_index"":3,""viewing_time"":173},{""page_index"":4,""viewing_time"":1188},{""page_index"":5,""viewing_time"":449},{""page_index"":6,""viewing_time"":471}]",3341.0,,,,,,,,,,,,,,,,,,,,,,,,,,,,,,,,,,,,,,
2,,category_learning_comprehension_check,,survey-multi-choice,2,9238,0.0-1.0-0.0-1.0,0,0,3,,4138.0,"{""Q0"":""True"",""Q1"":""True"",""Q2"":""Stay the same"",""Q3"":""pointer finger for left and middle finger for right""}",0.0,,,,,,,,,,,,,,,,,,,,,,,,,,,,,,,,,,,,
3,,,,html-keyboard-response,3,10487,0.0-1.0-1.0,0,0,3,,1245.0,,,50.0,,,,,,,,,,,,,,,,,,,,,,,,,,,,,,,,,,,
4,,choice,,html-keyboard-response,4,10907,0.0-1.0-2.0-0.0-0.0,0,0,3,,416.0,,,50.0,0.0,0.0,1500.0,1000.0,1.0,0.0,0.0,20-80,,0.0,bagel,dumbbell,20.0,80.0,bagel1,dumbbell1,0.0,80.0,bagels_pumpernickel_large.jpg,31B64EN68AL._AA280_.jpg,/static/Category_learning/Stimuli/Practice_stims/bagel/bagels_pumpernickel_large.jpg,/static/Category_learning/Stimuli/Practice_stims/dumbbell/31B64EN68AL._AA280_.jpg,1.0,bagel,dumbbell,20.0,80.0,bagel1,dumbbell1,0.0,80.0,0.0,0.416,0.416,
5,,confirmation,,html-keyboard-response,5,11998,0.0-1.0-2.0-0.0-1.0-0.0,0,0,3,,,,,,0.0,,,,,,,,,,,,,,,,,,,,,,,,,,,,,,,,1.5,1.084,
6,,isi,,html-keyboard-response,6,12105,0.0-1.0-2.0-0.0-2.0,0,0,3,,,,,,,,,,,,,,,,,,,,,,,,,,,,,,,,,,,,,,3.0,1.5,
7,,feedback,,html-keyboard-response,7,13114,0.0-1.0-2.0-0.0-3.0-0.0,0,0,3,,,,,,0.0,,,,,,,,,,,,,,,,,,,,,,,,,,,,,,,,4.0,1.0,
8,,iti,,html-keyboard-response,8,13221,0.0-1.0-2.0-0.0-5.0,0,0,3,,,,,,,,,,,,,,,,,,,,,,,,,,,,,,,,,,,,,,5.0,1.0,
9,,choice,,html-keyboard-response,9,13536,0.0-1.0-3.0-0.0-0.0,0,0,3,,311.0,,,50.0,1.0,1.0,3000.0,1500.0,1.0,0.0,0.0,20-40,,1.0,calculator,bagel,40.0,20.0,calculator2,bagel2,20.0,20.0,22829064.thl.jpg,bagels_cinnraisin_large.jpg,/static/Category_learning/Stimuli/Practice_stims/calculator/22829064.thl.jpg,/static/Category_learning/Stimuli/Practice_stims/bagel/bagels_cinnraisin_large.jpg,1.0,calculator,bagel,40.0,20.0,calculator2,bagel2,20.0,20.0,0.0,5.311,0.311,
10,,confirmation,,html-keyboard-response,10,14732,0.0-1.0-3.0-0.0-1.0-0.0,0,0,3,,,,,,1.0,,,,,,,,,,,,,,,,,,,,,,,,,,,,,,,,6.5,1.189,
11,,isi,,html-keyboard-response,11,14836,0.0-1.0-3.0-0.0-2.0,0,0,3,,,,,,,,,,,,,,,,,,,,,,,,,,,,,,,,,,,,,,9.5,3.0,
12,,feedback,,html-keyboard-response,12,15840,0.0-1.0-3.0-0.0-3.0-0.0,0,0,3,,,,,,1.0,,,,,,,,,,,,,,,,,,,,,,,,,,,,,,,,10.5,1.0,
13,,iti,,html-keyboard-response,13,15947,0.0-1.0-3.0-0.0-5.0,0,0,3,,,,,,,,,,,,,,,,,,,,,,,,,,,,,,,,,,,,,,12.0,1.5,
14,,choice,,html-keyboard-response,14,16303,0.0-1.0-4.0-0.0-0.0,0,0,3,,353.0,,,50.0,2.0,2.0,2000.0,3000.0,1.0,0.0,0.0,60-80,,0.0,clock,dumbbell,60.0,80.0,clock2,dumbbell2,60.0,100.0,26373355.thl.jpg,31K8MR6TMBL._SS500_.jpg,/static/Category_learning/Stimuli/Practice_stims/clock/26373355.thl.jpg,/static/Category_learning/Stimuli/Practice_stims/dumbbell/31K8MR6TMBL._SS500_.jpg,1.0,clock,dumbbell,60.0,80.0,clock2,dumbbell2,60.0,100.0,0.0,12.353,0.353,
15,,confirmation,,html-keyboard-response,15,17453,0.0-1.0-4.0-0.0-1.0-0.0,0,0,3,,,,,,2.0,,,,,,,,,,,,,,,,,,,,,,,,,,,,,,,,13.5,1.147,
16,,isi,,html-keyboard-response,16,17556,0.0-1.0-4.0-0.0-2.0,0,0,3,,,,,,,,,,,,,,,,,,,,,,,,,,,,,,,,,,,,,,15.5,2.0,
17,,feedback,,html-keyboard-response,17,18561,0.0-1.0-4.0-0.0-3.0-0.0,0,0,3,,,,,,2.0,,,,,,,,,,,,,,,,,,,,,,,,,,,,,,,,16.5,1.0,
18,,iti,,html-keyboard-response,18,18666,0.0-1.0-4.0-0.0-5.0,0,0,3,,,,,,,,,,,,,,,,,,,,,,,,,,,,,,,,,,,,,,19.5,3.0,
19,,choice,,html-keyboard-response,19,18930,0.0-1.0-5.0-0.0-0.0,0,0,3,,260.0,,,50.0,3.0,3.0,1000.0,2000.0,1.0,0.0,0.0,40-80,,0.0,calculator,clock,40.0,60.0,calculator1,clock1,40.0,40.0,22829184.thl.jpg,Aalarmclock2.jpg,/static/Category_learning/Stimuli/Practice_stims/calculator/22829184.thl.jpg,/static/Category_learning/Stimuli/Practice_stims/clock/Aalarmclock2.jpg,1.0,calculator,clock,40.0,60.0,calculator1,clock1,40.0,40.0,0.0,19.76,0.26,
20,,confirmation,,html-keyboard-response,20,20178,0.0-1.0-5.0-0.0-1.0-0.0,0,0,3,,,,,,3.0,,,,,,,,,,,,,,,,,,,,,,,,,,,,,,,,21.0,1.24,
21,,isi,,html-keyboard-response,21,20284,0.0-1.0-5.0-0.0-2.0,0,0,3,,,,,,,,,,,,,,,,,,,,,,,,,,,,,,,,,,,,,,22.0,1.0,
22,,feedback,,html-keyboard-response,22,21290,0.0-1.0-5.0-0.0-3.0-0.0,0,0,3,,,,,,3.0,,,,,,,,,,,,,,,,,,,,,,,,,,,,,,,,23.0,1.0,
23,,iti,,html-keyboard-response,23,21398,0.0-1.0-5.0-0.0-5.0,0,0,3,,,,,,,,,,,,,,,,,,,,,,,,,,,,,,,,,,,,,,25.0,2.0,
24,,choice,,html-keyboard-response,24,21749,0.0-1.0-6.0-0.0-0.0,0,0,3,,347.0,,,50.0,4.0,4.0,2500.0,2500.0,1.0,0.0,0.0,20-60,,1.0,dumbbell,bagel,80.0,20.0,dumbbell3,bagel3,100.0,40.0,41K7QVRX50L._SS500_.jpg,photo-169.jpg,/static/Category_learning/Stimuli/Practice_stims/dumbbell/41K7QVRX50L._SS500_.jpg,/static/Category_learning/Stimuli/Practice_stims/bagel/photo-169.jpg,1.0,dumbbell,bagel,80.0,20.0,dumbbell3,bagel3,100.0,40.0,0.0,25.347,0.347,1.0
25,,confirmation,,html-keyboard-response,25,22906,0.0-1.0-6.0-0.0-1.0-0.0,0,0,3,,,,,,4.0,,,,,,,,,,,,,,,,,,,,,,,,,,,,,,,,26.5,1.153,
26,,isi,,html-keyboard-response,26,23013,0.0-1.0-6.0-0.0-2.0,0,0,3,,,,,,,,,,,,,,,,,,,,,,,,,,,,,,,,,,,,,,29.0,2.5,
27,,feedback,,html-keyboard-response,27,24016,0.0-1.0-6.0-0.0-3.0-0.0,0,0,3,,,,,,4.0,,,,,,,,,,,,,,,,,,,,,,,,,,,,,,,,30.0,1.0,
28,,iti,,html-keyboard-response,28,24122,0.0-1.0-6.0-0.0-5.0,0,0,3,,,,,,,,,,,,,,,,,,,,,,,,,,,,,,,,,,,,,,32.5,2.5,
29,,practice_over,,html-keyboard-response,29,24428,0.0-1.0-6.0-0.0-6.0-0.0,0,0,3,,303.0,,,50.0,4.0,,,,,,,,,,,,,,,,,,,,,,,,,,,,,,,,,,
30,,start_run,,html-keyboard-response,30,25295,0.0-1.0-6.0-0.0-6.0-1.0,0,0,3,,864.0,,,84.0,,,,,,,,,,,,,,,,,,,,,,,,,,,,,,,,,,,
31,,choice,,html-keyboard-response,31,26028,0.0-1.0-7.0-0.0-0.0,0,0,3,,728.0,,,50.0,5.0,5.0,2000.0,2000.0,0.0,1.0,0.0,40-80,,1.0,desk,patio lounge chair,80.0,40.0,desk1,patio lounge chair15,100.0,40.0,ADESK11.jpg,phpThumb.jpg,/static/Category_learning/Stimuli/Experimental_stims/desk/ADESK11.jpg,/static/Category_learning/Stimuli/Experimental_stims/patio lounge chair/phpThumb.jpg,1.0,desk,patio lounge chair,80.0,40.0,desk1,patio lounge chair15,100.0,40.0,0.0,0.728,0.728,
32,,confirmation,,html-keyboard-response,32,26808,0.0-1.0-7.0-0.0-1.0-0.0,0,0,3,,,,,,5.0,,,,,,,,,,,,,,,,,,,,,,,,,,,,,,,,1.5,0.772,
33,,isi,,html-keyboard-response,33,26915,0.0-1.0-7.0-0.0-2.0,0,0,3,,,,,,,,,,,,,,,,,,,,,,,,,,,,,,,,,,,,,,3.5,2.0,
34,,feedback,,html-keyboard-response,34,27922,0.0-1.0-7.0-0.0-3.0-0.0,0,0,3,,,,,,5.0,,,,,,,,,,,,,,,,,,,,,,,,,,,,,,,,4.5,1.0,
35,,iti,,html-keyboard-response,35,28028,0.0-1.0-7.0-0.0-5.0,0,0,3,,,,,,,,,,,,,,,,,,,,,,,,,,,,,,,,,,,,,,6.5,2.0,
36,,choice,,html-keyboard-response,36,29533,0.0-1.0-8.0-0.0-0.0,0,0,3,,,,,,6.0,6.0,3000.0,1500.0,0.0,1.0,0.0,40-60,,0.0,poker card,tent,40.0,60.0,poker card12,tent9,20.0,60.0,22865676.thl.jpg,Red Canyon Tent.jpg,/static/Category_learning/Stimuli/Experimental_stims/poker card/22865676.thl.jpg,/static/Category_learning/Stimuli/Experimental_stims/tent/Red Canyon Tent.jpg,,,,,,,,,,1.0,8.0,1.5,
37,,isi,,html-keyboard-response,37,29637,0.0-1.0-8.0-0.0-2.0,0,0,3,,,,,,,,,,,,,,,,,,,,,,,,,,,,,,,,,,,,,,11.0,3.0,
38,,no_response,,html-keyboard-response,38,30643,0.0-1.0-8.0-0.0-4.0-0.0,1,0,3,,,,,,,,,,,,,,,,,,,,,,,,,,,,,,,,,,,,,,12.0,1.0,
39,,iti,,html-keyboard-response,39,30766,0.0-1.0-8.0-0.0-5.0,0,0,3,,,,,,,,,,,,,,,,,,,,,,,,,,,,,,,,,,,,,,13.5,1.5,
40,,choice,,html-keyboard-response,40,32274,0.0-1.0-8.0-0.1-0.1,0,0,3,,,,,,6.0,6.0,3000.0,1500.0,0.0,1.0,0.0,40-60,,0.0,poker card,tent,40.0,60.0,poker card12,tent9,20.0,60.0,22865676.thl.jpg,Red Canyon Tent.jpg,/static/Category_learning/Stimuli/Experimental_stims/poker card/22865676.thl.jpg,/static/Category_learning/Stimuli/Experimental_stims/tent/Red Canyon Tent.jpg,,,,,,,,,,1.0,15.0,1.5,
41,,isi,,html-keyboard-response,41,32380,0.0-1.0-8.0-0.1-2.1,0,0,3,,,,,,,,,,,,,,,,,,,,,,,,,,,,,,,,,,,,,,16.5,1.5,
42,,no_response,,html-keyboard-response,42,33384,0.0-1.0-8.0-0.1-4.1-0.1,1,0,3,,,,,,,,,,,,,,,,,,,,,,,,,,,,,,,,,,,,,,17.5,1.0,
43,,iti,,html-keyboard-response,43,33500,0.0-1.0-8.0-0.1-5.1,0,0,3,,,,,,,,,,,,,,,,,,,,,,,,,,,,,,,,,,,,,,21.0,3.5,
44,,choice,,html-keyboard-response,44,35004,0.0-1.0-8.0-0.2-0.2,0,0,3,,,,,,6.0,6.0,3000.0,1500.0,0.0,1.0,0.0,40-60,,0.0,poker card,tent,40.0,60.0,poker card12,tent9,20.0,60.0,22865676.thl.jpg,Red Canyon Tent.jpg,/static/Category_learning/Stimuli/Experimental_stims/poker card/22865676.thl.jpg,/static/Category_learning/Stimuli/Experimental_stims/tent/Red Canyon Tent.jpg,,,,,,,,,,1.0,22.5,1.5,
45,,isi,,html-keyboard-response,45,35108,0.0-1.0-8.0-0.2-2.2,0,0,3,,,,,,,,,,,,,,,,,,,,,,,,,,,,,,,,,,,,,,24.0,1.5,
46,,no_response,,html-keyboard-response,46,36112,0.0-1.0-8.0-0.2-4.2-0.2,1,0,3,,,,,,,,,,,,,,,,,,,,,,,,,,,,,,,,,,,,,,25.0,1.0,
47,,iti,,html-keyboard-response,47,36233,0.0-1.0-8.0-0.2-5.2,0,0,3,,,,,,,,,,,,,,,,,,,,,,,,,,,,,,,,,,,,,,26.0,1.0,
48,,choice,,html-keyboard-response,48,37740,0.0-1.0-8.0-0.3-0.3,0,0,3,,,,,,6.0,6.0,3000.0,1500.0,0.0,1.0,0.0,40-60,,0.0,poker card,tent,40.0,60.0,poker card12,tent9,20.0,60.0,22865676.thl.jpg,Red Canyon Tent.jpg,/static/Category_learning/Stimuli/Experimental_stims/poker card/22865676.thl.jpg,/static/Category_learning/Stimuli/Experimental_stims/tent/Red Canyon Tent.jpg,,,,,,,,,,1.0,27.5,1.5,
49,,isi,,html-keyboard-response,49,37849,0.0-1.0-8.0-0.3-2.3,0,0,3,,,,,,,,,,,,,,,,,,,,,,,,,,,,,,,,,,,,,,28.5,1.0,
50,,no_response,,html-keyboard-response,50,38855,0.0-1.0-8.0-0.3-4.3-0.3,1,0,3,,,,,,,,,,,,,,,,,,,,,,,,,,,,,,,,,,,,,,29.5,1.0,
51,,iti,,html-keyboard-response,51,38974,0.0-1.0-8.0-0.3-5.3,0,0,3,,,,,,,,,,,,,,,,,,,,,,,,,,,,,,,,,,,,,,30.5,1.0,
52,,choice,,html-keyboard-response,52,40478,0.0-1.0-8.0-0.4-0.4,0,0,3,,,,,,6.0,6.0,3000.0,1500.0,0.0,1.0,0.0,40-60,,0.0,poker card,tent,40.0,60.0,poker card12,tent9,20.0,60.0,22865676.thl.jpg,Red Canyon Tent.jpg,/static/Category_learning/Stimuli/Experimental_stims/poker card/22865676.thl.jpg,/static/Category_learning/Stimuli/Experimental_stims/tent/Red Canyon Tent.jpg,,,,,,,,,,1.0,32.0,1.5,
53,,isi,,html-keyboard-response,53,40585,0.0-1.0-8.0-0.4-2.4,0,0,3,,,,,,,,,,,,,,,,,,,,,,,,,,,,,,,,,,,,,,33.0,1.0,
54,,no_response,,html-keyboard-response,54,41591,0.0-1.0-8.0-0.4-4.4-0.4,1,0,3,,,,,,,,,,,,,,,,,,,,,,,,,,,,,,,,,,,,,,34.0,1.0,
55,,iti,,html-keyboard-response,55,41711,0.0-1.0-8.0-0.4-5.4,0,0,3,,,,,,,,,,,,,,,,,,,,,,,,,,,,,,,,,,,,,,35.0,1.0,
56,,choice,,html-keyboard-response,56,43215,0.0-1.0-8.0-0.5-0.5,0,0,3,,,,,,6.0,6.0,3000.0,1500.0,0.0,1.0,0.0,40-60,,0.0,poker card,tent,40.0,60.0,poker card12,tent9,20.0,60.0,22865676.thl.jpg,Red Canyon Tent.jpg,/static/Category_learning/Stimuli/Experimental_stims/poker card/22865676.thl.jpg,/static/Category_learning/Stimuli/Experimental_stims/tent/Red Canyon Tent.jpg,,,,,,,,,,1.0,36.5,1.5,
57,,isi,,html-keyboard-response,57,43321,0.0-1.0-8.0-0.5-2.5,0,0,3,,,,,,,,,,,,,,,,,,,,,,,,,,,,,,,,,,,,,,38.0,1.5,
58,,no_response,,html-keyboard-response,58,44328,0.0-1.0-8.0-0.5-4.5-0.5,1,0,3,,,,,,,,,,,,,,,,,,,,,,,,,,,,,,,,,,,,,,39.0,1.0,
59,,iti,,html-keyboard-response,59,44447,0.0-1.0-8.0-0.5-5.5,0,0,3,,,,,,,,,,,,,,,,,,,,,,,,,,,,,,,,,,,,,,40.0,1.0,
60,,choice,,html-keyboard-response,60,45954,0.0-1.0-8.0-0.6-0.6,0,0,3,,,,,,6.0,6.0,3000.0,1500.0,0.0,1.0,0.0,40-60,,0.0,poker card,tent,40.0,60.0,poker card12,tent9,20.0,60.0,22865676.thl.jpg,Red Canyon Tent.jpg,/static/Category_learning/Stimuli/Experimental_stims/poker card/22865676.thl.jpg,/static/Category_learning/Stimuli/Experimental_stims/tent/Red Canyon Tent.jpg,,,,,,,,,,1.0,41.5,1.5,
61,,isi,,html-keyboard-response,61,46058,0.0-1.0-8.0-0.6-2.6,0,0,3,,,,,,,,,,,,,,,,,,,,,,,,,,,,,,,,,,,,,,45.0,3.5,
62,,no_response,,html-keyboard-response,62,47065,0.0-1.0-8.0-0.6-4.6-0.6,1,0,3,,,,,,,,,,,,,,,,,,,,,,,,,,,,,,,,,,,,,,46.0,1.0,
63,,iti,,html-keyboard-response,63,47182,0.0-1.0-8.0-0.6-5.6,0,0,3,,,,,,,,,,,,,,,,,,,,,,,,,,,,,,,,,,,,,,47.0,1.0,
64,,choice,,html-keyboard-response,64,48689,0.0-1.0-8.0-0.7-0.7,0,0,3,,,,,,6.0,6.0,3000.0,1500.0,0.0,1.0,0.0,40-60,,0.0,poker card,tent,40.0,60.0,poker card12,tent9,20.0,60.0,22865676.thl.jpg,Red Canyon Tent.jpg,/static/Category_learning/Stimuli/Experimental_stims/poker card/22865676.thl.jpg,/static/Category_learning/Stimuli/Experimental_stims/tent/Red Canyon Tent.jpg,,,,,,,,,,1.0,48.5,1.5,
65,,isi,,html-keyboard-response,65,48793,0.0-1.0-8.0-0.7-2.7,0,0,3,,,,,,,,,,,,,,,,,,,,,,,,,,,,,,,,,,,,,,50.0,1.5,
66,,no_response,,html-keyboard-response,66,49799,0.0-1.0-8.0-0.7-4.7-0.7,1,0,3,,,,,,,,,,,,,,,,,,,,,,,,,,,,,,,,,,,,,,51.0,1.0,
67,,iti,,html-keyboard-response,67,49920,0.0-1.0-8.0-0.7-5.7,0,0,3,,,,,,,,,,,,,,,,,,,,,,,,,,,,,,,,,,,,,,52.5,1.5,
68,,choice,,html-keyboard-response,68,51428,0.0-1.0-8.0-0.8-0.8,0,0,3,,,,,,6.0,6.0,3000.0,1500.0,0.0,1.0,0.0,40-60,,0.0,poker card,tent,40.0,60.0,poker card12,tent9,20.0,60.0,22865676.thl.jpg,Red Canyon Tent.jpg,/static/Category_learning/Stimuli/Experimental_stims/poker card/22865676.thl.jpg,/static/Category_learning/Stimuli/Experimental_stims/tent/Red Canyon Tent.jpg,,,,,,,,,,1.0,54.0,1.5,
69,,isi,,html-keyboard-response,69,51534,0.0-1.0-8.0-0.8-2.8,0,0,3,,,,,,,,,,,,,,,,,,,,,,,,,,,,,,,,,,,,,,55.0,1.0,
70,,no_response,,html-keyboard-response,70,52542,0.0-1.0-8.0-0.8-4.8-0.8,1,0,3,,,,,,,,,,,,,,,,,,,,,,,,,,,,,,,,,,,,,,56.0,1.0,
71,,iti,,html-keyboard-response,71,52661,0.0-1.0-8.0-0.8-5.8,0,0,3,,,,,,,,,,,,,,,,,,,,,,,,,,,,,,,,,,,,,,57.0,1.0,
72,,choice,,html-keyboard-response,72,54169,0.0-1.0-8.0-0.9-0.9,0,0,3,,,,,,6.0,6.0,3000.0,1500.0,0.0,1.0,0.0,40-60,,0.0,poker card,tent,40.0,60.0,poker card12,tent9,20.0,60.0,22865676.thl.jpg,Red Canyon Tent.jpg,/static/Category_learning/Stimuli/Experimental_stims/poker card/22865676.thl.jpg,/static/Category_learning/Stimuli/Experimental_stims/tent/Red Canyon Tent.jpg,,,,,,,,,,1.0,58.5,1.5,
73,,isi,,html-keyboard-response,73,54273,0.0-1.0-8.0-0.9-2.9,0,0,3,,,,,,,,,,,,,,,,,,,,,,,,,,,,,,,,,,,,,,61.5,3.0,
74,,no_response,,html-keyboard-response,74,55280,0.0-1.0-8.0-0.9-4.9-0.9,1,0,3,,,,,,,,,,,,,,,,,,,,,,,,,,,,,,,,,,,,,,62.5,1.0,
75,,iti,,html-keyboard-response,75,55404,0.0-1.0-8.0-0.9-5.9,0,0,3,,,,,,,,,,,,,,,,,,,,,,,,,,,,,,,,,,,,,,63.5,1.0,
76,,choice,,html-keyboard-response,76,56913,0.0-1.0-8.0-0.10-0.10,0,0,3,,,,,,6.0,6.0,3000.0,1500.0,0.0,1.0,0.0,40-60,,0.0,poker card,tent,40.0,60.0,poker card12,tent9,20.0,60.0,22865676.thl.jpg,Red Canyon Tent.jpg,/static/Category_learning/Stimuli/Experimental_stims/poker card/22865676.thl.jpg,/static/Category_learning/Stimuli/Experimental_stims/tent/Red Canyon Tent.jpg,,,,,,,,,,1.0,65.0,1.5,
77,,isi,,html-keyboard-response,77,57017,0.0-1.0-8.0-0.10-2.10,0,0,3,,,,,,,,,,,,,,,,,,,,,,,,,,,,,,,,,,,,,,66.0,1.0,
78,,no_response,,html-keyboard-response,78,58023,0.0-1.0-8.0-0.10-4.10-0.10,1,0,3,,,,,,,,,,,,,,,,,,,,,,,,,,,,,,,,,,,,,,67.0,1.0,
79,,iti,,html-keyboard-response,79,58145,0.0-1.0-8.0-0.10-5.10,0,0,3,,,,,,,,,,,,,,,,,,,,,,,,,,,,,,,,,,,,,,68.0,1.0,
80,,choice,,html-keyboard-response,80,59653,0.0-1.0-8.0-0.11-0.11,0,0,3,,,,,,6.0,6.0,3000.0,1500.0,0.0,1.0,0.0,40-60,,0.0,poker card,tent,40.0,60.0,poker card12,tent9,20.0,60.0,22865676.thl.jpg,Red Canyon Tent.jpg,/static/Category_learning/Stimuli/Experimental_stims/poker card/22865676.thl.jpg,/static/Category_learning/Stimuli/Experimental_stims/tent/Red Canyon Tent.jpg,,,,,,,,,,1.0,69.5,1.5,
81,,isi,,html-keyboard-response,81,59757,0.0-1.0-8.0-0.11-2.11,0,0,3,,,,,,,,,,,,,,,,,,,,,,,,,,,,,,,,,,,,,,70.5,1.0,
82,,no_response,,html-keyboard-response,82,60763,0.0-1.0-8.0-0.11-4.11-0.11,1,0,3,,,,,,,,,,,,,,,,,,,,,,,,,,,,,,,,,,,,,,71.5,1.0,
83,,iti,,html-keyboard-response,83,60888,0.0-1.0-8.0-0.11-5.11,0,0,3,,,,,,,,,,,,,,,,,,,,,,,,,,,,,,,,,,,,,,73.5,2.0,
84,,choice,,html-keyboard-response,84,62398,0.0-1.0-8.0-0.12-0.12,0,0,3,,,,,,6.0,6.0,3000.0,1500.0,0.0,1.0,0.0,40-60,,0.0,poker card,tent,40.0,60.0,poker card12,tent9,20.0,60.0,22865676.thl.jpg,Red Canyon Tent.jpg,/static/Category_learning/Stimuli/Experimental_stims/poker card/22865676.thl.jpg,/static/Category_learning/Stimuli/Experimental_stims/tent/Red Canyon Tent.jpg,,,,,,,,,,1.0,75.0,1.5,
85,,isi,,html-keyboard-response,85,62505,0.0-1.0-8.0-0.12-2.12,0,0,3,,,,,,,,,,,,,,,,,,,,,,,,,,,,,,,,,,,,,,77.0,2.0,
86,,no_response,,html-keyboard-response,86,63511,0.0-1.0-8.0-0.12-4.12-0.12,1,0,3,,,,,,,,,,,,,,,,,,,,,,,,,,,,,,,,,,,,,,78.0,1.0,
87,,iti,,html-keyboard-response,87,63630,0.0-1.0-8.0-0.12-5.12,0,0,3,,,,,,,,,,,,,,,,,,,,,,,,,,,,,,,,,,,,,,79.0,1.0,
88,,choice,,html-keyboard-response,88,65138,0.0-1.0-8.0-0.13-0.13,0,0,3,,,,,,6.0,6.0,3000.0,1500.0,0.0,1.0,0.0,40-60,,0.0,poker card,tent,40.0,60.0,poker card12,tent9,20.0,60.0,22865676.thl.jpg,Red Canyon Tent.jpg,/static/Category_learning/Stimuli/Experimental_stims/poker card/22865676.thl.jpg,/static/Category_learning/Stimuli/Experimental_stims/tent/Red Canyon Tent.jpg,,,,,,,,,,1.0,80.5,1.5,
89,,isi,,html-keyboard-response,89,65246,0.0-1.0-8.0-0.13-2.13,0,0,3,,,,,,,,,,,,,,,,,,,,,,,,,,,,,,,,,,,,,,81.5,1.0,
90,,no_response,,html-keyboard-response,90,66254,0.0-1.0-8.0-0.13-4.13-0.13,1,0,3,,,,,,,,,,,,,,,,,,,,,,,,,,,,,,,,,,,,,,82.5,1.0,
91,,iti,,html-keyboard-response,91,66373,0.0-1.0-8.0-0.13-5.13,0,0,3,,,,,,,,,,,,,,,,,,,,,,,,,,,,,,,,,,,,,,84.0,1.5,
92,,choice,,html-keyboard-response,92,67878,0.0-1.0-8.0-0.14-0.14,0,0,3,,,,,,6.0,6.0,3000.0,1500.0,0.0,1.0,0.0,40-60,,0.0,poker card,tent,40.0,60.0,poker card12,tent9,20.0,60.0,22865676.thl.jpg,Red Canyon Tent.jpg,/static/Category_learning/Stimuli/Experimental_stims/poker card/22865676.thl.jpg,/static/Category_learning/Stimuli/Experimental_stims/tent/Red Canyon Tent.jpg,,,,,,,,,,1.0,85.5,1.5,
93,,isi,,html-keyboard-response,93,67987,0.0-1.0-8.0-0.14-2.14,0,0,3,,,,,,,,,,,,,,,,,,,,,,,,,,,,,,,,,,,,,,89.0,3.5,
94,,no_response,,html-keyboard-response,94,68996,0.0-1.0-8.0-0.14-4.14-0.14,1,0,3,,,,,,,,,,,,,,,,,,,,,,,,,,,,,,,,,,,,,,90.0,1.0,
95,,iti,,html-keyboard-response,95,69118,0.0-1.0-8.0-0.14-5.14,0,0,3,,,,,,,,,,,,,,,,,,,,,,,,,,,,,,,,,,,,,,91.0,1.0,
96,,choice,,html-keyboard-response,96,70624,0.0-1.0-8.0-0.15-0.15,0,0,3,,,,,,6.0,6.0,3000.0,1500.0,0.0,1.0,0.0,40-60,,0.0,poker card,tent,40.0,60.0,poker card12,tent9,20.0,60.0,22865676.thl.jpg,Red Canyon Tent.jpg,/static/Category_learning/Stimuli/Experimental_stims/poker card/22865676.thl.jpg,/static/Category_learning/Stimuli/Experimental_stims/tent/Red Canyon Tent.jpg,,,,,,,,,,1.0,92.5,1.5,
97,,isi,,html-keyboard-response,97,70728,0.0-1.0-8.0-0.15-2.15,0,0,3,,,,,,,,,,,,,,,,,,,,,,,,,,,,,,,,,,,,,,94.5,2.0,
98,,no_response,,html-keyboard-response,98,71734,0.0-1.0-8.0-0.15-4.15-0.15,1,0,3,,,,,,,,,,,,,,,,,,,,,,,,,,,,,,,,,,,,,,95.5,1.0,
99,,iti,,html-keyboard-response,99,71852,0.0-1.0-8.0-0.15-5.15,0,0,3,,,,,,,,,,,,,,,,,,,,,,,,,,,,,,,,,,,,,,97.0,1.5,
100,,choice,,html-keyboard-response,100,73361,0.0-1.0-8.0-0.16-0.16,0,0,3,,,,,,6.0,6.0,3000.0,1500.0,0.0,1.0,0.0,40-60,,0.0,poker card,tent,40.0,60.0,poker card12,tent9,20.0,60.0,22865676.thl.jpg,Red Canyon Tent.jpg,/static/Category_learning/Stimuli/Experimental_stims/poker card/22865676.thl.jpg,/static/Category_learning/Stimuli/Experimental_stims/tent/Red Canyon Tent.jpg,,,,,,,,,,1.0,98.5,1.5,
101,,isi,,html-keyboard-response,101,73469,0.0-1.0-8.0-0.16-2.16,0,0,3,,,,,,,,,,,,,,,,,,,,,,,,,,,,,,,,,,,,,,100.0,1.5,
102,,no_response,,html-keyboard-response,102,74476,0.0-1.0-8.0-0.16-4.16-0.16,1,0,3,,,,,,,,,,,,,,,,,,,,,,,,,,,,,,,,,,,,,,101.0,1.0,
103,,iti,,html-keyboard-response,103,74594,0.0-1.0-8.0-0.16-5.16,0,0,3,,,,,,,,,,,,,,,,,,,,,,,,,,,,,,,,,,,,,,102.5,1.5,
104,,choice,,html-keyboard-response,104,76102,0.0-1.0-8.0-0.17-0.17,0,0,3,,,,,,6.0,6.0,3000.0,1500.0,0.0,1.0,0.0,40-60,,0.0,poker card,tent,40.0,60.0,poker card12,tent9,20.0,60.0,22865676.thl.jpg,Red Canyon Tent.jpg,/static/Category_learning/Stimuli/Experimental_stims/poker card/22865676.thl.jpg,/static/Category_learning/Stimuli/Experimental_stims/tent/Red Canyon Tent.jpg,,,,,,,,,,1.0,104.0,1.5,
105,,isi,,html-keyboard-response,105,76207,0.0-1.0-8.0-0.17-2.17,0,0,3,,,,,,,,,,,,,,,,,,,,,,,,,,,,,,,,,,,,,,105.0,1.0,
106,,no_response,,html-keyboard-response,106,77214,0.0-1.0-8.0-0.17-4.17-0.17,1,0,3,,,,,,,,,,,,,,,,,,,,,,,,,,,,,,,,,,,,,,106.0,1.0,
107,,iti,,html-keyboard-response,107,77334,0.0-1.0-8.0-0.17-5.17,0,0,3,,,,,,,,,,,,,,,,,,,,,,,,,,,,,,,,,,,,,,107.0,1.0,
108,,choice,,html-keyboard-response,108,78841,0.0-1.0-8.0-0.18-0.18,0,0,3,,,,,,6.0,6.0,3000.0,1500.0,0.0,1.0,0.0,40-60,,0.0,poker card,tent,40.0,60.0,poker card12,tent9,20.0,60.0,22865676.thl.jpg,Red Canyon Tent.jpg,/static/Category_learning/Stimuli/Experimental_stims/poker card/22865676.thl.jpg,/static/Category_learning/Stimuli/Experimental_stims/tent/Red Canyon Tent.jpg,,,,,,,,,,1.0,108.5,1.5,
109,,isi,,html-keyboard-response,109,78946,0.0-1.0-8.0-0.18-2.18,0,0,3,,,,,,,,,,,,,,,,,,,,,,,,,,,,,,,,,,,,,,110.5,2.0,
110,,no_response,,html-keyboard-response,110,79952,0.0-1.0-8.0-0.18-4.18-0.18,1,0,3,,,,,,,,,,,,,,,,,,,,,,,,,,,,,,,,,,,,,,111.5,1.0,
111,,iti,,html-keyboard-response,111,80072,0.0-1.0-8.0-0.18-5.18,0,0,3,,,,,,,,,,,,,,,,,,,,,,,,,,,,,,,,,,,,,,112.5,1.0,
112,,choice,,html-keyboard-response,112,81577,0.0-1.0-8.0-0.19-0.19,0,0,3,,,,,,6.0,6.0,3000.0,1500.0,0.0,1.0,0.0,40-60,,0.0,poker card,tent,40.0,60.0,poker card12,tent9,20.0,60.0,22865676.thl.jpg,Red Canyon Tent.jpg,/static/Category_learning/Stimuli/Experimental_stims/poker card/22865676.thl.jpg,/static/Category_learning/Stimuli/Experimental_stims/tent/Red Canyon Tent.jpg,,,,,,,,,,1.0,114.0,1.5,
113,,isi,,html-keyboard-response,113,81682,0.0-1.0-8.0-0.19-2.19,0,0,3,,,,,,,,,,,,,,,,,,,,,,,,,,,,,,,,,,,,,,116.0,2.0,
114,,no_response,,html-keyboard-response,114,82691,0.0-1.0-8.0-0.19-4.19-0.19,1,0,3,,,,,,,,,,,,,,,,,,,,,,,,,,,,,,,,,,,,,,117.0,1.0,
115,,iti,,html-keyboard-response,115,82812,0.0-1.0-8.0-0.19-5.19,0,0,3,,,,,,,,,,,,,,,,,,,,,,,,,,,,,,,,,,,,,,118.5,1.5,
116,,choice,,html-keyboard-response,116,84321,0.0-1.0-8.0-0.20-0.20,0,0,3,,,,,,6.0,6.0,3000.0,1500.0,0.0,1.0,0.0,40-60,,0.0,poker card,tent,40.0,60.0,poker card12,tent9,20.0,60.0,22865676.thl.jpg,Red Canyon Tent.jpg,/static/Category_learning/Stimuli/Experimental_stims/poker card/22865676.thl.jpg,/static/Category_learning/Stimuli/Experimental_stims/tent/Red Canyon Tent.jpg,,,,,,,,,,1.0,120.0,1.5,
117,,isi,,html-keyboard-response,117,84428,0.0-1.0-8.0-0.20-2.20,0,0,3,,,,,,,,,,,,,,,,,,,,,,,,,,,,,,,,,,,,,,121.0,1.0,
118,,no_response,,html-keyboard-response,118,85434,0.0-1.0-8.0-0.20-4.20-0.20,1,0,3,,,,,,,,,,,,,,,,,,,,,,,,,,,,,,,,,,,,,,122.0,1.0,
119,,iti,,html-keyboard-response,119,85556,0.0-1.0-8.0-0.20-5.20,0,0,3,,,,,,,,,,,,,,,,,,,,,,,,,,,,,,,,,,,,,,123.0,1.0,
120,,choice,,html-keyboard-response,120,87062,0.0-1.0-8.0-0.21-0.21,0,0,3,,,,,,6.0,6.0,3000.0,1500.0,0.0,1.0,0.0,40-60,,0.0,poker card,tent,40.0,60.0,poker card12,tent9,20.0,60.0,22865676.thl.jpg,Red Canyon Tent.jpg,/static/Category_learning/Stimuli/Experimental_stims/poker card/22865676.thl.jpg,/static/Category_learning/Stimuli/Experimental_stims/tent/Red Canyon Tent.jpg,,,,,,,,,,1.0,124.5,1.5,
121,,isi,,html-keyboard-response,121,87171,0.0-1.0-8.0-0.21-2.21,0,0,3,,,,,,,,,,,,,,,,,,,,,,,,,,,,,,,,,,,,,,125.5,1.0,
122,,no_response,,html-keyboard-response,122,88178,0.0-1.0-8.0-0.21-4.21-0.21,1,0,3,,,,,,,,,,,,,,,,,,,,,,,,,,,,,,,,,,,,,,126.5,1.0,
123,,iti,,html-keyboard-response,123,88299,0.0-1.0-8.0-0.21-5.21,0,0,3,,,,,,,,,,,,,,,,,,,,,,,,,,,,,,,,,,,,,,130.0,3.5,
124,,choice,,html-keyboard-response,124,89805,0.0-1.0-8.0-0.22-0.22,0,0,3,,,,,,6.0,6.0,3000.0,1500.0,0.0,1.0,0.0,40-60,,0.0,poker card,tent,40.0,60.0,poker card12,tent9,20.0,60.0,22865676.thl.jpg,Red Canyon Tent.jpg,/static/Category_learning/Stimuli/Experimental_stims/poker card/22865676.thl.jpg,/static/Category_learning/Stimuli/Experimental_stims/tent/Red Canyon Tent.jpg,,,,,,,,,,1.0,131.5,1.5,
125,,isi,,html-keyboard-response,125,89913,0.0-1.0-8.0-0.22-2.22,0,0,3,,,,,,,,,,,,,,,,,,,,,,,,,,,,,,,,,,,,,,132.5,1.0,
126,,no_response,,html-keyboard-response,126,90920,0.0-1.0-8.0-0.22-4.22-0.22,1,0,3,,,,,,,,,,,,,,,,,,,,,,,,,,,,,,,,,,,,,,133.5,1.0,
127,,iti,,html-keyboard-response,127,91040,0.0-1.0-8.0-0.22-5.22,0,0,3,,,,,,,,,,,,,,,,,,,,,,,,,,,,,,,,,,,,,,134.5,1.0,
128,,choice,,html-keyboard-response,128,92544,0.0-1.0-8.0-0.23-0.23,0,0,3,,,,,,6.0,6.0,3000.0,1500.0,0.0,1.0,0.0,40-60,,0.0,poker card,tent,40.0,60.0,poker card12,tent9,20.0,60.0,22865676.thl.jpg,Red Canyon Tent.jpg,/static/Category_learning/Stimuli/Experimental_stims/poker card/22865676.thl.jpg,/static/Category_learning/Stimuli/Experimental_stims/tent/Red Canyon Tent.jpg,,,,,,,,,,1.0,136.0,1.5,
129,,isi,,html-keyboard-response,129,92650,0.0-1.0-8.0-0.23-2.23,0,0,3,,,,,,,,,,,,,,,,,,,,,,,,,,,,,,,,,,,,,,137.5,1.5,
130,,no_response,,html-keyboard-response,130,93658,0.0-1.0-8.0-0.23-4.23-0.23,1,0,3,,,,,,,,,,,,,,,,,,,,,,,,,,,,,,,,,,,,,,138.5,1.0,
131,,iti,,html-keyboard-response,131,93780,0.0-1.0-8.0-0.23-5.23,0,0,3,,,,,,,,,,,,,,,,,,,,,,,,,,,,,,,,,,,,,,141.5,3.0,
132,,choice,,html-keyboard-response,132,95284,0.0-1.0-8.0-0.24-0.24,0,0,3,,,,,,6.0,6.0,3000.0,1500.0,0.0,1.0,0.0,40-60,,0.0,poker card,tent,40.0,60.0,poker card12,tent9,20.0,60.0,22865676.thl.jpg,Red Canyon Tent.jpg,/static/Category_learning/Stimuli/Experimental_stims/poker card/22865676.thl.jpg,/static/Category_learning/Stimuli/Experimental_stims/tent/Red Canyon Tent.jpg,,,,,,,,,,1.0,143.0,1.5,
133,,isi,,html-keyboard-response,133,95391,0.0-1.0-8.0-0.24-2.24,0,0,3,,,,,,,,,,,,,,,,,,,,,,,,,,,,,,,,,,,,,,144.5,1.5,
134,,no_response,,html-keyboard-response,134,96399,0.0-1.0-8.0-0.24-4.24-0.24,1,0,3,,,,,,,,,,,,,,,,,,,,,,,,,,,,,,,,,,,,,,145.5,1.0,
135,,iti,,html-keyboard-response,135,96520,0.0-1.0-8.0-0.24-5.24,0,0,3,,,,,,,,,,,,,,,,,,,,,,,,,,,,,,,,,,,,,,147.0,1.5,
136,,choice,,html-keyboard-response,136,98028,0.0-1.0-8.0-0.25-0.25,0,0,3,,,,,,6.0,6.0,3000.0,1500.0,0.0,1.0,0.0,40-60,,0.0,poker card,tent,40.0,60.0,poker card12,tent9,20.0,60.0,22865676.thl.jpg,Red Canyon Tent.jpg,/static/Category_learning/Stimuli/Experimental_stims/poker card/22865676.thl.jpg,/static/Category_learning/Stimuli/Experimental_stims/tent/Red Canyon Tent.jpg,,,,,,,,,,1.0,148.5,1.5,
137,,isi,,html-keyboard-response,137,98133,0.0-1.0-8.0-0.25-2.25,0,0,3,,,,,,,,,,,,,,,,,,,,,,,,,,,,,,,,,,,,,,149.5,1.0,
138,,no_response,,html-keyboard-response,138,99139,0.0-1.0-8.0-0.25-4.25-0.25,1,0,3,,,,,,,,,,,,,,,,,,,,,,,,,,,,,,,,,,,,,,150.5,1.0,
139,,iti,,html-keyboard-response,139,99258,0.0-1.0-8.0-0.25-5.25,0,0,3,,,,,,,,,,,,,,,,,,,,,,,,,,,,,,,,,,,,,,152.5,2.0,
140,,choice,,html-keyboard-response,140,100767,0.0-1.0-8.0-0.26-0.26,0,0,3,,,,,,6.0,6.0,3000.0,1500.0,0.0,1.0,0.0,40-60,,0.0,poker card,tent,40.0,60.0,poker card12,tent9,20.0,60.0,22865676.thl.jpg,Red Canyon Tent.jpg,/static/Category_learning/Stimuli/Experimental_stims/poker card/22865676.thl.jpg,/static/Category_learning/Stimuli/Experimental_stims/tent/Red Canyon Tent.jpg,,,,,,,,,,1.0,154.0,1.5,
141,,isi,,html-keyboard-response,141,100875,0.0-1.0-8.0-0.26-2.26,0,0,3,,,,,,,,,,,,,,,,,,,,,,,,,,,,,,,,,,,,,,156.0,2.0,
142,,no_response,,html-keyboard-response,142,101880,0.0-1.0-8.0-0.26-4.26-0.26,1,0,3,,,,,,,,,,,,,,,,,,,,,,,,,,,,,,,,,,,,,,157.0,1.0,
143,,iti,,html-keyboard-response,143,101996,0.0-1.0-8.0-0.26-5.26,0,0,3,,,,,,,,,,,,,,,,,,,,,,,,,,,,,,,,,,,,,,160.5,3.5,
144,,choice,,html-keyboard-response,144,103505,0.0-1.0-8.0-0.27-0.27,0,0,3,,,,,,6.0,6.0,3000.0,1500.0,0.0,1.0,0.0,40-60,,0.0,poker card,tent,40.0,60.0,poker card12,tent9,20.0,60.0,22865676.thl.jpg,Red Canyon Tent.jpg,/static/Category_learning/Stimuli/Experimental_stims/poker card/22865676.thl.jpg,/static/Category_learning/Stimuli/Experimental_stims/tent/Red Canyon Tent.jpg,,,,,,,,,,1.0,162.0,1.5,
145,,isi,,html-keyboard-response,145,103613,0.0-1.0-8.0-0.27-2.27,0,0,3,,,,,,,,,,,,,,,,,,,,,,,,,,,,,,,,,,,,,,163.5,1.5,
146,,no_response,,html-keyboard-response,146,104620,0.0-1.0-8.0-0.27-4.27-0.27,1,0,3,,,,,,,,,,,,,,,,,,,,,,,,,,,,,,,,,,,,,,164.5,1.0,
147,,iti,,html-keyboard-response,147,104743,0.0-1.0-8.0-0.27-5.27,0,0,3,,,,,,,,,,,,,,,,,,,,,,,,,,,,,,,,,,,,,,165.5,1.0,
148,,choice,,html-keyboard-response,148,106253,0.0-1.0-8.0-0.28-0.28,0,0,3,,,,,,6.0,6.0,3000.0,1500.0,0.0,1.0,0.0,40-60,,0.0,poker card,tent,40.0,60.0,poker card12,tent9,20.0,60.0,22865676.thl.jpg,Red Canyon Tent.jpg,/static/Category_learning/Stimuli/Experimental_stims/poker card/22865676.thl.jpg,/static/Category_learning/Stimuli/Experimental_stims/tent/Red Canyon Tent.jpg,,,,,,,,,,1.0,167.0,1.5,
149,,isi,,html-keyboard-response,149,106358,0.0-1.0-8.0-0.28-2.28,0,0,3,,,,,,,,,,,,,,,,,,,,,,,,,,,,,,,,,,,,,,168.0,1.0,
150,,no_response,,html-keyboard-response,150,107362,0.0-1.0-8.0-0.28-4.28-0.28,1,0,3,,,,,,,,,,,,,,,,,,,,,,,,,,,,,,,,,,,,,,169.0,1.0,
151,,iti,,html-keyboard-response,151,107483,0.0-1.0-8.0-0.28-5.28,0,0,3,,,,,,,,,,,,,,,,,,,,,,,,,,,,,,,,,,,,,,171.0,2.0,
152,,choice,,html-keyboard-response,152,108988,0.0-1.0-8.0-0.29-0.29,0,0,3,,,,,,6.0,6.0,3000.0,1500.0,0.0,1.0,0.0,40-60,,0.0,poker card,tent,40.0,60.0,poker card12,tent9,20.0,60.0,22865676.thl.jpg,Red Canyon Tent.jpg,/static/Category_learning/Stimuli/Experimental_stims/poker card/22865676.thl.jpg,/static/Category_learning/Stimuli/Experimental_stims/tent/Red Canyon Tent.jpg,,,,,,,,,,1.0,172.5,1.5,
153,,isi,,html-keyboard-response,153,109094,0.0-1.0-8.0-0.29-2.29,0,0,3,,,,,,,,,,,,,,,,,,,,,,,,,,,,,,,,,,,,,,174.0,1.5,
154,,no_response,,html-keyboard-response,154,110100,0.0-1.0-8.0-0.29-4.29-0.29,1,0,3,,,,,,,,,,,,,,,,,,,,,,,,,,,,,,,,,,,,,,175.0,1.0,
155,,iti,,html-keyboard-response,155,110218,0.0-1.0-8.0-0.29-5.29,0,0,3,,,,,,,,,,,,,,,,,,,,,,,,,,,,,,,,,,,,,,178.5,3.5,
156,,choice,,html-keyboard-response,156,111727,0.0-1.0-8.0-0.30-0.30,0,0,3,,,,,,6.0,6.0,3000.0,1500.0,0.0,1.0,0.0,40-60,,0.0,poker card,tent,40.0,60.0,poker card12,tent9,20.0,60.0,22865676.thl.jpg,Red Canyon Tent.jpg,/static/Category_learning/Stimuli/Experimental_stims/poker card/22865676.thl.jpg,/static/Category_learning/Stimuli/Experimental_stims/tent/Red Canyon Tent.jpg,,,,,,,,,,1.0,180.0,1.5,
157,,isi,,html-keyboard-response,157,111832,0.0-1.0-8.0-0.30-2.30,0,0,3,,,,,,,,,,,,,,,,,,,,,,,,,,,,,,,,,,,,,,181.5,1.5,
158,,no_response,,html-keyboard-response,158,112841,0.0-1.0-8.0-0.30-4.30-0.30,1,0,3,,,,,,,,,,,,,,,,,,,,,,,,,,,,,,,,,,,,,,182.5,1.0,
159,,iti,,html-keyboard-response,159,112960,0.0-1.0-8.0-0.30-5.30,0,0,3,,,,,,,,,,,,,,,,,,,,,,,,,,,,,,,,,,,,,,185.5,3.0,
160,,choice,,html-keyboard-response,160,114467,0.0-1.0-8.0-0.31-0.31,0,0,3,,,,,,6.0,6.0,3000.0,1500.0,0.0,1.0,0.0,40-60,,0.0,poker card,tent,40.0,60.0,poker card12,tent9,20.0,60.0,22865676.thl.jpg,Red Canyon Tent.jpg,/static/Category_learning/Stimuli/Experimental_stims/poker card/22865676.thl.jpg,/static/Category_learning/Stimuli/Experimental_stims/tent/Red Canyon Tent.jpg,,,,,,,,,,1.0,187.0,1.5,
161,,isi,,html-keyboard-response,161,114574,0.0-1.0-8.0-0.31-2.31,0,0,3,,,,,,,,,,,,,,,,,,,,,,,,,,,,,,,,,,,,,,189.0,2.0,
162,,no_response,,html-keyboard-response,162,115578,0.0-1.0-8.0-0.31-4.31-0.31,1,0,3,,,,,,,,,,,,,,,,,,,,,,,,,,,,,,,,,,,,,,190.0,1.0,
163,,iti,,html-keyboard-response,163,115695,0.0-1.0-8.0-0.31-5.31,0,0,3,,,,,,,,,,,,,,,,,,,,,,,,,,,,,,,,,,,,,,191.5,1.5,
164,,choice,,html-keyboard-response,164,117203,0.0-1.0-8.0-0.32-0.32,0,0,3,,,,,,6.0,6.0,3000.0,1500.0,0.0,1.0,0.0,40-60,,0.0,poker card,tent,40.0,60.0,poker card12,tent9,20.0,60.0,22865676.thl.jpg,Red Canyon Tent.jpg,/static/Category_learning/Stimuli/Experimental_stims/poker card/22865676.thl.jpg,/static/Category_learning/Stimuli/Experimental_stims/tent/Red Canyon Tent.jpg,,,,,,,,,,1.0,193.0,1.5,
165,,isi,,html-keyboard-response,165,117309,0.0-1.0-8.0-0.32-2.32,0,0,3,,,,,,,,,,,,,,,,,,,,,,,,,,,,,,,,,,,,,,194.0,1.0,
166,,no_response,,html-keyboard-response,166,118315,0.0-1.0-8.0-0.32-4.32-0.32,1,0,3,,,,,,,,,,,,,,,,,,,,,,,,,,,,,,,,,,,,,,195.0,1.0,
167,,iti,,html-keyboard-response,167,118432,0.0-1.0-8.0-0.32-5.32,0,0,3,,,,,,,,,,,,,,,,,,,,,,,,,,,,,,,,,,,,,,196.0,1.0,
168,,choice,,html-keyboard-response,168,119941,0.0-1.0-8.0-0.33-0.33,0,0,3,,,,,,6.0,6.0,3000.0,1500.0,0.0,1.0,0.0,40-60,,0.0,poker card,tent,40.0,60.0,poker card12,tent9,20.0,60.0,22865676.thl.jpg,Red Canyon Tent.jpg,/static/Category_learning/Stimuli/Experimental_stims/poker card/22865676.thl.jpg,/static/Category_learning/Stimuli/Experimental_stims/tent/Red Canyon Tent.jpg,,,,,,,,,,1.0,197.5,1.5,
169,,isi,,html-keyboard-response,169,120050,0.0-1.0-8.0-0.33-2.33,0,0,3,,,,,,,,,,,,,,,,,,,,,,,,,,,,,,,,,,,,,,198.5,1.0,
170,,no_response,,html-keyboard-response,170,121058,0.0-1.0-8.0-0.33-4.33-0.33,1,0,3,,,,,,,,,,,,,,,,,,,,,,,,,,,,,,,,,,,,,,199.5,1.0,
171,,iti,,html-keyboard-response,171,121177,0.0-1.0-8.0-0.33-5.33,0,0,3,,,,,,,,,,,,,,,,,,,,,,,,,,,,,,,,,,,,,,200.5,1.0,
172,,choice,,html-keyboard-response,172,122681,0.0-1.0-8.0-0.34-0.34,0,0,3,,,,,,6.0,6.0,3000.0,1500.0,0.0,1.0,0.0,40-60,,0.0,poker card,tent,40.0,60.0,poker card12,tent9,20.0,60.0,22865676.thl.jpg,Red Canyon Tent.jpg,/static/Category_learning/Stimuli/Experimental_stims/poker card/22865676.thl.jpg,/static/Category_learning/Stimuli/Experimental_stims/tent/Red Canyon Tent.jpg,,,,,,,,,,1.0,202.0,1.5,
173,,isi,,html-keyboard-response,173,122785,0.0-1.0-8.0-0.34-2.34,0,0,3,,,,,,,,,,,,,,,,,,,,,,,,,,,,,,,,,,,,,,203.0,1.0,
174,,no_response,,html-keyboard-response,174,123792,0.0-1.0-8.0-0.34-4.34-0.34,1,0,3,,,,,,,,,,,,,,,,,,,,,,,,,,,,,,,,,,,,,,204.0,1.0,
175,,iti,,html-keyboard-response,175,123912,0.0-1.0-8.0-0.34-5.34,0,0,3,,,,,,,,,,,,,,,,,,,,,,,,,,,,,,,,,,,,,,206.0,2.0,
176,,choice,,html-keyboard-response,176,125418,0.0-1.0-8.0-0.35-0.35,0,0,3,,,,,,6.0,6.0,3000.0,1500.0,0.0,1.0,0.0,40-60,,0.0,poker card,tent,40.0,60.0,poker card12,tent9,20.0,60.0,22865676.thl.jpg,Red Canyon Tent.jpg,/static/Category_learning/Stimuli/Experimental_stims/poker card/22865676.thl.jpg,/static/Category_learning/Stimuli/Experimental_stims/tent/Red Canyon Tent.jpg,,,,,,,,,,1.0,207.5,1.5,
177,,isi,,html-keyboard-response,177,125527,0.0-1.0-8.0-0.35-2.35,0,0,3,,,,,,,,,,,,,,,,,,,,,,,,,,,,,,,,,,,,,,208.5,1.0,
178,,no_response,,html-keyboard-response,178,126535,0.0-1.0-8.0-0.35-4.35-0.35,1,0,3,,,,,,,,,,,,,,,,,,,,,,,,,,,,,,,,,,,,,,209.5,1.0,
179,,iti,,html-keyboard-response,179,126653,0.0-1.0-8.0-0.35-5.35,0,0,3,,,,,,,,,,,,,,,,,,,,,,,,,,,,,,,,,,,,,,210.5,1.0,
180,,choice,,html-keyboard-response,180,128162,0.0-1.0-8.0-0.36-0.36,0,0,3,,,,,,6.0,6.0,3000.0,1500.0,0.0,1.0,0.0,40-60,,0.0,poker card,tent,40.0,60.0,poker card12,tent9,20.0,60.0,22865676.thl.jpg,Red Canyon Tent.jpg,/static/Category_learning/Stimuli/Experimental_stims/poker card/22865676.thl.jpg,/static/Category_learning/Stimuli/Experimental_stims/tent/Red Canyon Tent.jpg,,,,,,,,,,1.0,212.0,1.5,
181,,isi,,html-keyboard-response,181,128268,0.0-1.0-8.0-0.36-2.36,0,0,3,,,,,,,,,,,,,,,,,,,,,,,,,,,,,,,,,,,,,,215.5,3.5,
182,,no_response,,html-keyboard-response,182,129272,0.0-1.0-8.0-0.36-4.36-0.36,1,0,3,,,,,,,,,,,,,,,,,,,,,,,,,,,,,,,,,,,,,,216.5,1.0,
183,,iti,,html-keyboard-response,183,129396,0.0-1.0-8.0-0.36-5.36,0,0,3,,,,,,,,,,,,,,,,,,,,,,,,,,,,,,,,,,,,,,219.5,3.0,
184,,choice,,html-keyboard-response,184,130905,0.0-1.0-8.0-0.37-0.37,0,0,3,,,,,,6.0,6.0,3000.0,1500.0,0.0,1.0,0.0,40-60,,0.0,poker card,tent,40.0,60.0,poker card12,tent9,20.0,60.0,22865676.thl.jpg,Red Canyon Tent.jpg,/static/Category_learning/Stimuli/Experimental_stims/poker card/22865676.thl.jpg,/static/Category_learning/Stimuli/Experimental_stims/tent/Red Canyon Tent.jpg,,,,,,,,,,1.0,221.0,1.5,
185,,isi,,html-keyboard-response,185,131012,0.0-1.0-8.0-0.37-2.37,0,0,3,,,,,,,,,,,,,,,,,,,,,,,,,,,,,,,,,,,,,,224.0,3.0,
186,,no_response,,html-keyboard-response,186,132016,0.0-1.0-8.0-0.37-4.37-0.37,1,0,3,,,,,,,,,,,,,,,,,,,,,,,,,,,,,,,,,,,,,,225.0,1.0,
187,,iti,,html-keyboard-response,187,132137,0.0-1.0-8.0-0.37-5.37,0,0,3,,,,,,,,,,,,,,,,,,,,,,,,,,,,,,,,,,,,,,228.5,3.5,
188,,choice,,html-keyboard-response,188,133644,0.0-1.0-8.0-0.38-0.38,0,0,3,,,,,,6.0,6.0,3000.0,1500.0,0.0,1.0,0.0,40-60,,0.0,poker card,tent,40.0,60.0,poker card12,tent9,20.0,60.0,22865676.thl.jpg,Red Canyon Tent.jpg,/static/Category_learning/Stimuli/Experimental_stims/poker card/22865676.thl.jpg,/static/Category_learning/Stimuli/Experimental_stims/tent/Red Canyon Tent.jpg,,,,,,,,,,1.0,230.0,1.5,
189,,isi,,html-keyboard-response,189,133753,0.0-1.0-8.0-0.38-2.38,0,0,3,,,,,,,,,,,,,,,,,,,,,,,,,,,,,,,,,,,,,,231.5,1.5,
190,,no_response,,html-keyboard-response,190,134761,0.0-1.0-8.0-0.38-4.38-0.38,1,0,3,,,,,,,,,,,,,,,,,,,,,,,,,,,,,,,,,,,,,,232.5,1.0,
191,,iti,,html-keyboard-response,191,134882,0.0-1.0-8.0-0.38-5.38,0,0,3,,,,,,,,,,,,,,,,,,,,,,,,,,,,,,,,,,,,,,233.5,1.0,
192,,choice,,html-keyboard-response,192,136388,0.0-1.0-8.0-0.39-0.39,0,0,3,,,,,,6.0,6.0,3000.0,1500.0,0.0,1.0,0.0,40-60,,0.0,poker card,tent,40.0,60.0,poker card12,tent9,20.0,60.0,22865676.thl.jpg,Red Canyon Tent.jpg,/static/Category_learning/Stimuli/Experimental_stims/poker card/22865676.thl.jpg,/static/Category_learning/Stimuli/Experimental_stims/tent/Red Canyon Tent.jpg,,,,,,,,,,1.0,235.0,1.5,
193,,isi,,html-keyboard-response,193,136495,0.0-1.0-8.0-0.39-2.39,0,0,3,,,,,,,,,,,,,,,,,,,,,,,,,,,,,,,,,,,,,,238.5,3.5,
194,,no_response,,html-keyboard-response,194,137501,0.0-1.0-8.0-0.39-4.39-0.39,1,0,3,,,,,,,,,,,,,,,,,,,,,,,,,,,,,,,,,,,,,,239.5,1.0,
195,,iti,,html-keyboard-response,195,137621,0.0-1.0-8.0-0.39-5.39,0,0,3,,,,,,,,,,,,,,,,,,,,,,,,,,,,,,,,,,,,,,241.0,1.5,
196,,choice,,html-keyboard-response,196,139129,0.0-1.0-8.0-0.40-0.40,0,0,3,,,,,,6.0,6.0,3000.0,1500.0,0.0,1.0,0.0,40-60,,0.0,poker card,tent,40.0,60.0,poker card12,tent9,20.0,60.0,22865676.thl.jpg,Red Canyon Tent.jpg,/static/Category_learning/Stimuli/Experimental_stims/poker card/22865676.thl.jpg,/static/Category_learning/Stimuli/Experimental_stims/tent/Red Canyon Tent.jpg,,,,,,,,,,1.0,242.5,1.5,
197,,isi,,html-keyboard-response,197,139236,0.0-1.0-8.0-0.40-2.40,0,0,3,,,,,,,,,,,,,,,,,,,,,,,,,,,,,,,,,,,,,,243.5,1.0,
198,,no_response,,html-keyboard-response,198,140240,0.0-1.0-8.0-0.40-4.40-0.40,1,0,3,,,,,,,,,,,,,,,,,,,,,,,,,,,,,,,,,,,,,,244.5,1.0,
199,,iti,,html-keyboard-response,199,140358,0.0-1.0-8.0-0.40-5.40,0,0,3,,,,,,,,,,,,,,,,,,,,,,,,,,,,,,,,,,,,,,246.5,2.0,
200,,choice,,html-keyboard-response,200,141867,0.0-1.0-8.0-0.41-0.41,0,0,3,,,,,,6.0,6.0,3000.0,1500.0,0.0,1.0,0.0,40-60,,0.0,poker card,tent,40.0,60.0,poker card12,tent9,20.0,60.0,22865676.thl.jpg,Red Canyon Tent.jpg,/static/Category_learning/Stimuli/Experimental_stims/poker card/22865676.thl.jpg,/static/Category_learning/Stimuli/Experimental_stims/tent/Red Canyon Tent.jpg,,,,,,,,,,1.0,248.0,1.5,
201,,isi,,html-keyboard-response,201,141972,0.0-1.0-8.0-0.41-2.41,0,0,3,,,,,,,,,,,,,,,,,,,,,,,,,,,,,,,,,,,,,,250.0,2.0,
202,,no_response,,html-keyboard-response,202,142977,0.0-1.0-8.0-0.41-4.41-0.41,1,0,3,,,,,,,,,,,,,,,,,,,,,,,,,,,,,,,,,,,,,,251.0,1.0,
203,,iti,,html-keyboard-response,203,143093,0.0-1.0-8.0-0.41-5.41,0,0,3,,,,,,,,,,,,,,,,,,,,,,,,,,,,,,,,,,,,,,252.0,1.0,
204,,choice,,html-keyboard-response,204,144598,0.0-1.0-8.0-0.42-0.42,0,0,3,,,,,,6.0,6.0,3000.0,1500.0,0.0,1.0,0.0,40-60,,0.0,poker card,tent,40.0,60.0,poker card12,tent9,20.0,60.0,22865676.thl.jpg,Red Canyon Tent.jpg,/static/Category_learning/Stimuli/Experimental_stims/poker card/22865676.thl.jpg,/static/Category_learning/Stimuli/Experimental_stims/tent/Red Canyon Tent.jpg,,,,,,,,,,1.0,253.5,1.5,
205,,isi,,html-keyboard-response,205,144702,0.0-1.0-8.0-0.42-2.42,0,0,3,,,,,,,,,,,,,,,,,,,,,,,,,,,,,,,,,,,,,,254.5,1.0,
206,,no_response,,html-keyboard-response,206,145708,0.0-1.0-8.0-0.42-4.42-0.42,1,0,3,,,,,,,,,,,,,,,,,,,,,,,,,,,,,,,,,,,,,,255.5,1.0,
207,,iti,,html-keyboard-response,207,145827,0.0-1.0-8.0-0.42-5.42,0,0,3,,,,,,,,,,,,,,,,,,,,,,,,,,,,,,,,,,,,,,257.5,2.0,
208,,choice,,html-keyboard-response,208,147335,0.0-1.0-8.0-0.43-0.43,0,0,3,,,,,,6.0,6.0,3000.0,1500.0,0.0,1.0,0.0,40-60,,0.0,poker card,tent,40.0,60.0,poker card12,tent9,20.0,60.0,22865676.thl.jpg,Red Canyon Tent.jpg,/static/Category_learning/Stimuli/Experimental_stims/poker card/22865676.thl.jpg,/static/Category_learning/Stimuli/Experimental_stims/tent/Red Canyon Tent.jpg,,,,,,,,,,1.0,259.0,1.5,
209,,isi,,html-keyboard-response,209,147442,0.0-1.0-8.0-0.43-2.43,0,0,3,,,,,,,,,,,,,,,,,,,,,,,,,,,,,,,,,,,,,,261.0,2.0,
210,,no_response,,html-keyboard-response,210,148448,0.0-1.0-8.0-0.43-4.43-0.43,1,0,3,,,,,,,,,,,,,,,,,,,,,,,,,,,,,,,,,,,,,,262.0,1.0,
211,,iti,,html-keyboard-response,211,148566,0.0-1.0-8.0-0.43-5.43,0,0,3,,,,,,,,,,,,,,,,,,,,,,,,,,,,,,,,,,,,,,263.5,1.5,
212,,choice,,html-keyboard-response,212,150074,0.0-1.0-8.0-0.44-0.44,0,0,3,,,,,,6.0,6.0,3000.0,1500.0,0.0,1.0,0.0,40-60,,0.0,poker card,tent,40.0,60.0,poker card12,tent9,20.0,60.0,22865676.thl.jpg,Red Canyon Tent.jpg,/static/Category_learning/Stimuli/Experimental_stims/poker card/22865676.thl.jpg,/static/Category_learning/Stimuli/Experimental_stims/tent/Red Canyon Tent.jpg,,,,,,,,,,1.0,265.0,1.5,
213,,isi,,html-keyboard-response,213,150178,0.0-1.0-8.0-0.44-2.44,0,0,3,,,,,,,,,,,,,,,,,,,,,,,,,,,,,,,,,,,,,,266.5,1.5,
214,,no_response,,html-keyboard-response,214,151185,0.0-1.0-8.0-0.44-4.44-0.44,1,0,3,,,,,,,,,,,,,,,,,,,,,,,,,,,,,,,,,,,,,,267.5,1.0,
215,,iti,,html-keyboard-response,215,151305,0.0-1.0-8.0-0.44-5.44,0,0,3,,,,,,,,,,,,,,,,,,,,,,,,,,,,,,,,,,,,,,268.5,1.0,
216,,choice,,html-keyboard-response,216,152815,0.0-1.0-8.0-0.45-0.45,0,0,3,,,,,,6.0,6.0,3000.0,1500.0,0.0,1.0,0.0,40-60,,0.0,poker card,tent,40.0,60.0,poker card12,tent9,20.0,60.0,22865676.thl.jpg,Red Canyon Tent.jpg,/static/Category_learning/Stimuli/Experimental_stims/poker card/22865676.thl.jpg,/static/Category_learning/Stimuli/Experimental_stims/tent/Red Canyon Tent.jpg,,,,,,,,,,1.0,270.0,1.5,
217,,isi,,html-keyboard-response,217,152920,0.0-1.0-8.0-0.45-2.45,0,0,3,,,,,,,,,,,,,,,,,,,,,,,,,,,,,,,,,,,,,,272.0,2.0,
218,,no_response,,html-keyboard-response,218,153928,0.0-1.0-8.0-0.45-4.45-0.45,1,0,3,,,,,,,,,,,,,,,,,,,,,,,,,,,,,,,,,,,,,,273.0,1.0,
219,,iti,,html-keyboard-response,219,154048,0.0-1.0-8.0-0.45-5.45,0,0,3,,,,,,,,,,,,,,,,,,,,,,,,,,,,,,,,,,,,,,274.5,1.5,
220,,choice,,html-keyboard-response,220,155555,0.0-1.0-8.0-0.46-0.46,0,0,3,,,,,,6.0,6.0,3000.0,1500.0,0.0,1.0,0.0,40-60,,0.0,poker card,tent,40.0,60.0,poker card12,tent9,20.0,60.0,22865676.thl.jpg,Red Canyon Tent.jpg,/static/Category_learning/Stimuli/Experimental_stims/poker card/22865676.thl.jpg,/static/Category_learning/Stimuli/Experimental_stims/tent/Red Canyon Tent.jpg,,,,,,,,,,1.0,276.0,1.5,
221,,isi,,html-keyboard-response,221,155661,0.0-1.0-8.0-0.46-2.46,0,0,3,,,,,,,,,,,,,,,,,,,,,,,,,,,,,,,,,,,,,,277.5,1.5,
222,,no_response,,html-keyboard-response,222,156669,0.0-1.0-8.0-0.46-4.46-0.46,1,0,3,,,,,,,,,,,,,,,,,,,,,,,,,,,,,,,,,,,,,,278.5,1.0,
223,,iti,,html-keyboard-response,223,156789,0.0-1.0-8.0-0.46-5.46,0,0,3,,,,,,,,,,,,,,,,,,,,,,,,,,,,,,,,,,,,,,280.5,2.0,
224,,choice,,html-keyboard-response,224,158300,0.0-1.0-8.0-0.47-0.47,0,0,3,,,,,,6.0,6.0,3000.0,1500.0,0.0,1.0,0.0,40-60,,0.0,poker card,tent,40.0,60.0,poker card12,tent9,20.0,60.0,22865676.thl.jpg,Red Canyon Tent.jpg,/static/Category_learning/Stimuli/Experimental_stims/poker card/22865676.thl.jpg,/static/Category_learning/Stimuli/Experimental_stims/tent/Red Canyon Tent.jpg,,,,,,,,,,1.0,282.0,1.5,
225,,isi,,html-keyboard-response,225,158406,0.0-1.0-8.0-0.47-2.47,0,0,3,,,,,,,,,,,,,,,,,,,,,,,,,,,,,,,,,,,,,,284.0,2.0,
226,,no_response,,html-keyboard-response,226,159410,0.0-1.0-8.0-0.47-4.47-0.47,1,0,3,,,,,,,,,,,,,,,,,,,,,,,,,,,,,,,,,,,,,,285.0,1.0,
227,,iti,,html-keyboard-response,227,159526,0.0-1.0-8.0-0.47-5.47,0,0,3,,,,,,,,,,,,,,,,,,,,,,,,,,,,,,,,,,,,,,287.0,2.0,
228,,choice,,html-keyboard-response,228,161032,0.0-1.0-8.0-0.48-0.48,0,0,3,,,,,,6.0,6.0,3000.0,1500.0,0.0,1.0,0.0,40-60,,0.0,poker card,tent,40.0,60.0,poker card12,tent9,20.0,60.0,22865676.thl.jpg,Red Canyon Tent.jpg,/static/Category_learning/Stimuli/Experimental_stims/poker card/22865676.thl.jpg,/static/Category_learning/Stimuli/Experimental_stims/tent/Red Canyon Tent.jpg,,,,,,,,,,1.0,288.5,1.5,
229,,isi,,html-keyboard-response,229,161140,0.0-1.0-8.0-0.48-2.48,0,0,3,,,,,,,,,,,,,,,,,,,,,,,,,,,,,,,,,,,,,,290.0,1.5,
230,,no_response,,html-keyboard-response,230,162144,0.0-1.0-8.0-0.48-4.48-0.48,1,0,3,,,,,,,,,,,,,,,,,,,,,,,,,,,,,,,,,,,,,,291.0,1.0,
231,,iti,,html-keyboard-response,231,162261,0.0-1.0-8.0-0.48-5.48,0,0,3,,,,,,,,,,,,,,,,,,,,,,,,,,,,,,,,,,,,,,294.0,3.0,
232,,choice,,html-keyboard-response,232,163767,0.0-1.0-8.0-0.49-0.49,0,0,3,,,,,,6.0,6.0,3000.0,1500.0,0.0,1.0,0.0,40-60,,0.0,poker card,tent,40.0,60.0,poker card12,tent9,20.0,60.0,22865676.thl.jpg,Red Canyon Tent.jpg,/static/Category_learning/Stimuli/Experimental_stims/poker card/22865676.thl.jpg,/static/Category_learning/Stimuli/Experimental_stims/tent/Red Canyon Tent.jpg,,,,,,,,,,1.0,295.5,1.5,
233,,isi,,html-keyboard-response,233,163875,0.0-1.0-8.0-0.49-2.49,0,0,3,,,,,,,,,,,,,,,,,,,,,,,,,,,,,,,,,,,,,,296.5,1.0,
234,,no_response,,html-keyboard-response,234,164879,0.0-1.0-8.0-0.49-4.49-0.49,1,0,3,,,,,,,,,,,,,,,,,,,,,,,,,,,,,,,,,,,,,,297.5,1.0,
235,,iti,,html-keyboard-response,235,164996,0.0-1.0-8.0-0.49-5.49,0,0,3,,,,,,,,,,,,,,,,,,,,,,,,,,,,,,,,,,,,,,299.0,1.5,
236,,choice,,html-keyboard-response,236,166506,0.0-1.0-8.0-0.50-0.50,0,0,3,,,,,,6.0,6.0,3000.0,1500.0,0.0,1.0,0.0,40-60,,0.0,poker card,tent,40.0,60.0,poker card12,tent9,20.0,60.0,22865676.thl.jpg,Red Canyon Tent.jpg,/static/Category_learning/Stimuli/Experimental_stims/poker card/22865676.thl.jpg,/static/Category_learning/Stimuli/Experimental_stims/tent/Red Canyon Tent.jpg,,,,,,,,,,1.0,300.5,1.5,
237,,isi,,html-keyboard-response,237,166611,0.0-1.0-8.0-0.50-2.50,0,0,3,,,,,,,,,,,,,,,,,,,,,,,,,,,,,,,,,,,,,,301.5,1.0,
238,,no_response,,html-keyboard-response,238,167614,0.0-1.0-8.0-0.50-4.50-0.50,1,0,3,,,,,,,,,,,,,,,,,,,,,,,,,,,,,,,,,,,,,,302.5,1.0,
239,,iti,,html-keyboard-response,239,167732,0.0-1.0-8.0-0.50-5.50,0,0,3,,,,,,,,,,,,,,,,,,,,,,,,,,,,,,,,,,,,,,304.5,2.0,
240,,choice,,html-keyboard-response,240,169241,0.0-1.0-8.0-0.51-0.51,0,0,3,,,,,,6.0,6.0,3000.0,1500.0,0.0,1.0,0.0,40-60,,0.0,poker card,tent,40.0,60.0,poker card12,tent9,20.0,60.0,22865676.thl.jpg,Red Canyon Tent.jpg,/static/Category_learning/Stimuli/Experimental_stims/poker card/22865676.thl.jpg,/static/Category_learning/Stimuli/Experimental_stims/tent/Red Canyon Tent.jpg,,,,,,,,,,1.0,306.0,1.5,
241,,isi,,html-keyboard-response,241,169348,0.0-1.0-8.0-0.51-2.51,0,0,3,,,,,,,,,,,,,,,,,,,,,,,,,,,,,,,,,,,,,,307.0,1.0,
242,,no_response,,html-keyboard-response,242,170353,0.0-1.0-8.0-0.51-4.51-0.51,1,0,3,,,,,,,,,,,,,,,,,,,,,,,,,,,,,,,,,,,,,,308.0,1.0,
243,,iti,,html-keyboard-response,243,170475,0.0-1.0-8.0-0.51-5.51,0,0,3,,,,,,,,,,,,,,,,,,,,,,,,,,,,,,,,,,,,,,309.5,1.5,
244,,choice,,html-keyboard-response,244,171983,0.0-1.0-8.0-0.52-0.52,0,0,3,,,,,,6.0,6.0,3000.0,1500.0,0.0,1.0,0.0,40-60,,0.0,poker card,tent,40.0,60.0,poker card12,tent9,20.0,60.0,22865676.thl.jpg,Red Canyon Tent.jpg,/static/Category_learning/Stimuli/Experimental_stims/poker card/22865676.thl.jpg,/static/Category_learning/Stimuli/Experimental_stims/tent/Red Canyon Tent.jpg,,,,,,,,,,1.0,311.0,1.5,
245,,isi,,html-keyboard-response,245,172089,0.0-1.0-8.0-0.52-2.52,0,0,3,,,,,,,,,,,,,,,,,,,,,,,,,,,,,,,,,,,,,,313.0,2.0,
246,,no_response,,html-keyboard-response,246,173095,0.0-1.0-8.0-0.52-4.52-0.52,1,0,3,,,,,,,,,,,,,,,,,,,,,,,,,,,,,,,,,,,,,,314.0,1.0,
247,,iti,,html-keyboard-response,247,173215,0.0-1.0-8.0-0.52-5.52,0,0,3,,,,,,,,,,,,,,,,,,,,,,,,,,,,,,,,,,,,,,315.5,1.5,
248,,choice,,html-keyboard-response,248,174723,0.0-1.0-8.0-0.53-0.53,0,0,3,,,,,,6.0,6.0,3000.0,1500.0,0.0,1.0,0.0,40-60,,0.0,poker card,tent,40.0,60.0,poker card12,tent9,20.0,60.0,22865676.thl.jpg,Red Canyon Tent.jpg,/static/Category_learning/Stimuli/Experimental_stims/poker card/22865676.thl.jpg,/static/Category_learning/Stimuli/Experimental_stims/tent/Red Canyon Tent.jpg,,,,,,,,,,1.0,317.0,1.5,
249,,isi,,html-keyboard-response,249,174832,0.0-1.0-8.0-0.53-2.53,0,0,3,,,,,,,,,,,,,,,,,,,,,,,,,,,,,,,,,,,,,,320.5,3.5,
250,,no_response,,html-keyboard-response,250,175839,0.0-1.0-8.0-0.53-4.53-0.53,1,0,3,,,,,,,,,,,,,,,,,,,,,,,,,,,,,,,,,,,,,,321.5,1.0,
251,,iti,,html-keyboard-response,251,175955,0.0-1.0-8.0-0.53-5.53,0,0,3,,,,,,,,,,,,,,,,,,,,,,,,,,,,,,,,,,,,,,323.5,2.0,
252,,choice,,html-keyboard-response,252,177464,0.0-1.0-8.0-0.54-0.54,0,0,3,,,,,,6.0,6.0,3000.0,1500.0,0.0,1.0,0.0,40-60,,0.0,poker card,tent,40.0,60.0,poker card12,tent9,20.0,60.0,22865676.thl.jpg,Red Canyon Tent.jpg,/static/Category_learning/Stimuli/Experimental_stims/poker card/22865676.thl.jpg,/static/Category_learning/Stimuli/Experimental_stims/tent/Red Canyon Tent.jpg,,,,,,,,,,1.0,325.0,1.5,
253,,isi,,html-keyboard-response,253,177569,0.0-1.0-8.0-0.54-2.54,0,0,3,,,,,,,,,,,,,,,,,,,,,,,,,,,,,,,,,,,,,,326.0,1.0,
254,,no_response,,html-keyboard-response,254,178575,0.0-1.0-8.0-0.54-4.54-0.54,1,0,3,,,,,,,,,,,,,,,,,,,,,,,,,,,,,,,,,,,,,,327.0,1.0,
255,,iti,,html-keyboard-response,255,178695,0.0-1.0-8.0-0.54-5.54,0,0,3,,,,,,,,,,,,,,,,,,,,,,,,,,,,,,,,,,,,,,329.0,2.0,
256,,choice,,html-keyboard-response,256,180201,0.0-1.0-8.0-0.55-0.55,0,0,3,,,,,,6.0,6.0,3000.0,1500.0,0.0,1.0,0.0,40-60,,0.0,poker card,tent,40.0,60.0,poker card12,tent9,20.0,60.0,22865676.thl.jpg,Red Canyon Tent.jpg,/static/Category_learning/Stimuli/Experimental_stims/poker card/22865676.thl.jpg,/static/Category_learning/Stimuli/Experimental_stims/tent/Red Canyon Tent.jpg,,,,,,,,,,1.0,330.5,1.5,
257,,isi,,html-keyboard-response,257,180311,0.0-1.0-8.0-0.55-2.55,0,0,3,,,,,,,,,,,,,,,,,,,,,,,,,,,,,,,,,,,,,,333.5,3.0,
258,,no_response,,html-keyboard-response,258,181318,0.0-1.0-8.0-0.55-4.55-0.55,1,0,3,,,,,,,,,,,,,,,,,,,,,,,,,,,,,,,,,,,,,,334.5,1.0,
259,,iti,,html-keyboard-response,259,181435,0.0-1.0-8.0-0.55-5.55,0,0,3,,,,,,,,,,,,,,,,,,,,,,,,,,,,,,,,,,,,,,335.5,1.0,
260,,choice,,html-keyboard-response,260,182941,0.0-1.0-8.0-0.56-0.56,0,0,3,,,,,,6.0,6.0,3000.0,1500.0,0.0,1.0,0.0,40-60,,0.0,poker card,tent,40.0,60.0,poker card12,tent9,20.0,60.0,22865676.thl.jpg,Red Canyon Tent.jpg,/static/Category_learning/Stimuli/Experimental_stims/poker card/22865676.thl.jpg,/static/Category_learning/Stimuli/Experimental_stims/tent/Red Canyon Tent.jpg,,,,,,,,,,1.0,337.0,1.5,
261,,isi,,html-keyboard-response,261,183045,0.0-1.0-8.0-0.56-2.56,0,0,3,,,,,,,,,,,,,,,,,,,,,,,,,,,,,,,,,,,,,,338.0,1.0,
262,,no_response,,html-keyboard-response,262,184049,0.0-1.0-8.0-0.56-4.56-0.56,1,0,3,,,,,,,,,,,,,,,,,,,,,,,,,,,,,,,,,,,,,,339.0,1.0,
263,,iti,,html-keyboard-response,263,184169,0.0-1.0-8.0-0.56-5.56,0,0,3,,,,,,,,,,,,,,,,,,,,,,,,,,,,,,,,,,,,,,340.0,1.0,
264,,choice,,html-keyboard-response,264,185677,0.0-1.0-8.0-0.57-0.57,0,0,3,,,,,,6.0,6.0,3000.0,1500.0,0.0,1.0,0.0,40-60,,0.0,poker card,tent,40.0,60.0,poker card12,tent9,20.0,60.0,22865676.thl.jpg,Red Canyon Tent.jpg,/static/Category_learning/Stimuli/Experimental_stims/poker card/22865676.thl.jpg,/static/Category_learning/Stimuli/Experimental_stims/tent/Red Canyon Tent.jpg,,,,,,,,,,1.0,341.5,1.5,
265,,isi,,html-keyboard-response,265,185783,0.0-1.0-8.0-0.57-2.57,0,0,3,,,,,,,,,,,,,,,,,,,,,,,,,,,,,,,,,,,,,,342.5,1.0,
266,,no_response,,html-keyboard-response,266,186790,0.0-1.0-8.0-0.57-4.57-0.57,1,0,3,,,,,,,,,,,,,,,,,,,,,,,,,,,,,,,,,,,,,,343.5,1.0,
267,,iti,,html-keyboard-response,267,186915,0.0-1.0-8.0-0.57-5.57,0,0,3,,,,,,,,,,,,,,,,,,,,,,,,,,,,,,,,,,,,,,344.5,1.0,
268,,choice,,html-keyboard-response,268,188423,0.0-1.0-8.0-0.58-0.58,0,0,3,,,,,,6.0,6.0,3000.0,1500.0,0.0,1.0,0.0,40-60,,0.0,poker card,tent,40.0,60.0,poker card12,tent9,20.0,60.0,22865676.thl.jpg,Red Canyon Tent.jpg,/static/Category_learning/Stimuli/Experimental_stims/poker card/22865676.thl.jpg,/static/Category_learning/Stimuli/Experimental_stims/tent/Red Canyon Tent.jpg,,,,,,,,,,1.0,346.0,1.5,
269,,isi,,html-keyboard-response,269,188528,0.0-1.0-8.0-0.58-2.58,0,0,3,,,,,,,,,,,,,,,,,,,,,,,,,,,,,,,,,,,,,,348.0,2.0,
270,,no_response,,html-keyboard-response,270,189533,0.0-1.0-8.0-0.58-4.58-0.58,1,0,3,,,,,,,,,,,,,,,,,,,,,,,,,,,,,,,,,,,,,,349.0,1.0,
271,,iti,,html-keyboard-response,271,189653,0.0-1.0-8.0-0.58-5.58,0,0,3,,,,,,,,,,,,,,,,,,,,,,,,,,,,,,,,,,,,,,350.5,1.5,
