,success,ttype,start_time,trial_type,trial_index,time_elapsed,internal_node_id,warning,missed_checkup,PID,view_history,rt,responses,repeat_instructions,key_press,index,trial_num,isi,iti,is_practice,block,old_trial,pair_type,within_category,high_cat_on_left,left_category,right_category,left_category_value,right_category_value,left_exemplar,right_exemplar,left_exemplar_value,right_exemplar_value,left_img,right_img,left_img_path,right_img_path,left_chosen,chosen_category,unchosen_category,chosen_category_value,unchosen_category_value,chosen_exemplar,unchosen_exemplar,chosen_exemplar_value,unchosen_exemplar_value,no_response,onset,duration,end_practice
0,True,full_screen,d05232022hr1453,fullscreen,0,1839,0.0-0.0,0,0,3,,,,,,,,,,,,,,,,,,,,,,,,,,,,,,,,,,,,,,,,
1,,category_learning_instructions,,instructions,1,12401,0.0-1.0-0.0-0.0,0,0,3,"[{""page_index"":0,""viewing_time"":992},{""page_index"":1,""viewing_time"":179},{""page_index"":2,""viewing_time"":161},{""page_index"":3,""viewing_time"":180},{""page_index"":4,""viewing_time"":460},{""page_index"":5,""viewing_time"":1042},{""page_index"":4,""viewing_time"":5412},{""page_index"":5,""viewing_time"":1213},{""page_index"":6,""viewing_time"":920}]",10560.0,,,,,,,,,,,,,,,,,,,,,,,,,,,,,,,,,,,,,,
2,,category_learning_comprehension_check,,survey-multi-choice,2,17025,0.0-1.0-0.0-1.0,0,0,3,,4618.0,"{""Q0"":""True"",""Q1"":""True"",""Q2"":""Stay the same"",""Q3"":""pointer finger for left and middle finger for right""}",0.0,,,,,,,,,,,,,,,,,,,,,,,,,,,,,,,,,,,,
3,,,,html-keyboard-response,3,19029,0.0-1.0-1.0,0,0,3,,1999.0,,,50.0,,,,,,,,,,,,,,,,,,,,,,,,,,,,,,,,,,,
4,,choice,,html-keyboard-response,4,19553,0.0-1.0-2.0-0.0-0.0,0,0,3,,520.0,,,50.0,0.0,0.0,1500.0,1000.0,1.0,0.0,0.0,20-80,,0.0,bagel,dumbbell,20.0,80.0,bagel1,dumbbell1,0.0,80.0,bagels_pumpernickel_large.jpg,31B64EN68AL._AA280_.jpg,/static/Category_learning/Stimuli/Practice_stims/bagel/bagels_pumpernickel_large.jpg,/static/Category_learning/Stimuli/Practice_stims/dumbbell/31B64EN68AL._AA280_.jpg,1.0,bagel,dumbbell,20.0,80.0,bagel1,dumbbell1,0.0,80.0,0.0,0.52,0.52,
5,,confirmation,,html-keyboard-response,5,20548,0.0-1.0-2.0-0.0-1.0-0.0,0,0,3,,,,,,0.0,,,,,,,,,,,,,,,,,,,,,,,,,,,,,,,,1.5,0.98,
6,,isi,,html-keyboard-response,6,20655,0.0-1.0-2.0-0.0-2.0,0,0,3,,,,,,,,,,,,,,,,,,,,,,,,,,,,,,,,,,,,,,3.0,1.5,
7,,feedback,,html-keyboard-response,7,21664,0.0-1.0-2.0-0.0-3.0-0.0,0,0,3,,,,,,0.0,,,,,,,,,,,,,,,,,,,,,,,,,,,,,,,,4.0,1.0,
8,,iti,,html-keyboard-response,8,21770,0.0-1.0-2.0-0.0-5.0,0,0,3,,,,,,,,,,,,,,,,,,,,,,,,,,,,,,,,,,,,,,5.0,1.0,
9,,choice,,html-keyboard-response,9,21937,0.0-1.0-3.0-0.0-0.0,0,0,3,,162.0,,,50.0,1.0,1.0,3000.0,1500.0,1.0,0.0,0.0,20-40,,1.0,calculator,bagel,40.0,20.0,calculator2,bagel2,20.0,20.0,22829064.thl.jpg,bagels_cinnraisin_large.jpg,/static/Category_learning/Stimuli/Practice_stims/calculator/22829064.thl.jpg,/static/Category_learning/Stimuli/Practice_stims/bagel/bagels_cinnraisin_large.jpg,1.0,calculator,bagel,40.0,20.0,calculator2,bagel2,20.0,20.0,0.0,5.162,0.162,
10,,confirmation,,html-keyboard-response,10,23280,0.0-1.0-3.0-0.0-1.0-0.0,0,0,3,,,,,,1.0,,,,,,,,,,,,,,,,,,,,,,,,,,,,,,,,6.5,1.338,
11,,isi,,html-keyboard-response,11,23386,0.0-1.0-3.0-0.0-2.0,0,0,3,,,,,,,,,,,,,,,,,,,,,,,,,,,,,,,,,,,,,,9.5,3.0,
12,,feedback,,html-keyboard-response,12,24391,0.0-1.0-3.0-0.0-3.0-0.0,0,0,3,,,,,,1.0,,,,,,,,,,,,,,,,,,,,,,,,,,,,,,,,10.5,1.0,
13,,iti,,html-keyboard-response,13,24496,0.0-1.0-3.0-0.0-5.0,0,0,3,,,,,,,,,,,,,,,,,,,,,,,,,,,,,,,,,,,,,,12.0,1.5,
14,,choice,,html-keyboard-response,14,24741,0.0-1.0-4.0-0.0-0.0,0,0,3,,242.0,,,50.0,2.0,2.0,2000.0,3000.0,1.0,0.0,0.0,60-80,,0.0,clock,dumbbell,60.0,80.0,clock2,dumbbell2,60.0,100.0,26373355.thl.jpg,31K8MR6TMBL._SS500_.jpg,/static/Category_learning/Stimuli/Practice_stims/clock/26373355.thl.jpg,/static/Category_learning/Stimuli/Practice_stims/dumbbell/31K8MR6TMBL._SS500_.jpg,1.0,clock,dumbbell,60.0,80.0,clock2,dumbbell2,60.0,100.0,0.0,12.242,0.242,
15,,confirmation,,html-keyboard-response,15,26003,0.0-1.0-4.0-0.0-1.0-0.0,0,0,3,,,,,,2.0,,,,,,,,,,,,,,,,,,,,,,,,,,,,,,,,13.5,1.258,
16,,isi,,html-keyboard-response,16,26107,0.0-1.0-4.0-0.0-2.0,0,0,3,,,,,,,,,,,,,,,,,,,,,,,,,,,,,,,,,,,,,,15.5,2.0,
17,,feedback,,html-keyboard-response,17,27115,0.0-1.0-4.0-0.0-3.0-0.0,0,0,3,,,,,,2.0,,,,,,,,,,,,,,,,,,,,,,,,,,,,,,,,16.5,1.0,
18,,iti,,html-keyboard-response,18,27221,0.0-1.0-4.0-0.0-5.0,0,0,3,,,,,,,,,,,,,,,,,,,,,,,,,,,,,,,,,,,,,,19.5,3.0,
19,,choice,,html-keyboard-response,19,27528,0.0-1.0-5.0-0.0-0.0,0,0,3,,302.0,,,50.0,3.0,3.0,1000.0,2000.0,1.0,0.0,0.0,40-80,,0.0,calculator,clock,40.0,60.0,calculator1,clock1,40.0,40.0,22829184.thl.jpg,Aalarmclock2.jpg,/static/Category_learning/Stimuli/Practice_stims/calculator/22829184.thl.jpg,/static/Category_learning/Stimuli/Practice_stims/clock/Aalarmclock2.jpg,1.0,calculator,clock,40.0,60.0,calculator1,clock1,40.0,40.0,0.0,19.802,0.302,
20,,confirmation,,html-keyboard-response,20,28735,0.0-1.0-5.0-0.0-1.0-0.0,0,0,3,,,,,,3.0,,,,,,,,,,,,,,,,,,,,,,,,,,,,,,,,21.0,1.198,
21,,isi,,html-keyboard-response,21,28840,0.0-1.0-5.0-0.0-2.0,0,0,3,,,,,,,,,,,,,,,,,,,,,,,,,,,,,,,,,,,,,,22.0,1.0,
22,,feedback,,html-keyboard-response,22,29846,0.0-1.0-5.0-0.0-3.0-0.0,0,0,3,,,,,,3.0,,,,,,,,,,,,,,,,,,,,,,,,,,,,,,,,23.0,1.0,
23,,iti,,html-keyboard-response,23,29951,0.0-1.0-5.0-0.0-5.0,0,0,3,,,,,,,,,,,,,,,,,,,,,,,,,,,,,,,,,,,,,,25.0,2.0,
24,,choice,,html-keyboard-response,24,30102,0.0-1.0-6.0-0.0-0.0,0,0,3,,147.0,,,50.0,4.0,4.0,2500.0,2500.0,1.0,0.0,0.0,20-60,,1.0,dumbbell,bagel,80.0,20.0,dumbbell3,bagel3,100.0,40.0,41K7QVRX50L._SS500_.jpg,photo-169.jpg,/static/Category_learning/Stimuli/Practice_stims/dumbbell/41K7QVRX50L._SS500_.jpg,/static/Category_learning/Stimuli/Practice_stims/bagel/photo-169.jpg,1.0,dumbbell,bagel,80.0,20.0,dumbbell3,bagel3,100.0,40.0,0.0,25.147,0.147,1.0
25,,confirmation,,html-keyboard-response,25,31465,0.0-1.0-6.0-0.0-1.0-0.0,0,0,3,,,,,,4.0,,,,,,,,,,,,,,,,,,,,,,,,,,,,,,,,26.5,1.353,
26,,isi,,html-keyboard-response,26,31569,0.0-1.0-6.0-0.0-2.0,0,0,3,,,,,,,,,,,,,,,,,,,,,,,,,,,,,,,,,,,,,,29.0,2.5,
27,,feedback,,html-keyboard-response,27,32577,0.0-1.0-6.0-0.0-3.0-0.0,0,0,3,,,,,,4.0,,,,,,,,,,,,,,,,,,,,,,,,,,,,,,,,30.0,1.0,
28,,iti,,html-keyboard-response,28,32685,0.0-1.0-6.0-0.0-5.0,0,0,3,,,,,,,,,,,,,,,,,,,,,,,,,,,,,,,,,,,,,,32.5,2.5,
29,,practice_over,,html-keyboard-response,29,33079,0.0-1.0-6.0-0.0-6.0-0.0,0,0,3,,391.0,,,50.0,4.0,,,,,,,,,,,,,,,,,,,,,,,,,,,,,,,,,,
30,,start_run,,html-keyboard-response,30,38010,0.0-1.0-6.0-0.0-6.0-1.0,0,0,3,,4929.0,,,84.0,,,,,,,,,,,,,,,,,,,,,,,,,,,,,,,,,,,
31,,choice,,html-keyboard-response,31,38473,0.0-1.0-7.0-0.0-0.0,0,0,3,,459.0,,,50.0,5.0,5.0,2000.0,2000.0,0.0,1.0,0.0,40-80,,1.0,desk,patio lounge chair,80.0,40.0,desk1,patio lounge chair15,100.0,40.0,ADESK11.jpg,phpThumb.jpg,/static/Category_learning/Stimuli/Experimental_stims/desk/ADESK11.jpg,/static/Category_learning/Stimuli/Experimental_stims/patio lounge chair/phpThumb.jpg,1.0,desk,patio lounge chair,80.0,40.0,desk1,patio lounge chair15,100.0,40.0,0.0,0.459,0.459,
32,,confirmation,,html-keyboard-response,32,39523,0.0-1.0-7.0-0.0-1.0-0.0,0,0,3,,,,,,5.0,,,,,,,,,,,,,,,,,,,,,,,,,,,,,,,,1.5,1.041,
33,,isi,,html-keyboard-response,33,39629,0.0-1.0-7.0-0.0-2.0,0,0,3,,,,,,,,,,,,,,,,,,,,,,,,,,,,,,,,,,,,,,3.5,2.0,
34,,feedback,,html-keyboard-response,34,40637,0.0-1.0-7.0-0.0-3.0-0.0,0,0,3,,,,,,5.0,,,,,,,,,,,,,,,,,,,,,,,,,,,,,,,,4.5,1.0,
35,,iti,,html-keyboard-response,35,40742,0.0-1.0-7.0-0.0-5.0,0,0,3,,,,,,,,,,,,,,,,,,,,,,,,,,,,,,,,,,,,,,6.5,2.0,
36,,choice,,html-keyboard-response,36,40984,0.0-1.0-8.0-0.0-0.0,0,0,3,,238.0,,,50.0,6.0,6.0,3000.0,1500.0,0.0,1.0,0.0,40-60,,0.0,poker card,tent,40.0,60.0,poker card12,tent9,20.0,60.0,22865676.thl.jpg,Red Canyon Tent.jpg,/static/Category_learning/Stimuli/Experimental_stims/poker card/22865676.thl.jpg,/static/Category_learning/Stimuli/Experimental_stims/tent/Red Canyon Tent.jpg,1.0,poker card,tent,40.0,60.0,poker card12,tent9,20.0,60.0,0.0,6.738,0.238,
37,,confirmation,,html-keyboard-response,37,42254,0.0-1.0-8.0-0.0-1.0-0.0,0,0,3,,,,,,6.0,,,,,,,,,,,,,,,,,,,,,,,,,,,,,,,,8.0,1.262,
38,,isi,,html-keyboard-response,38,42363,0.0-1.0-8.0-0.0-2.0,0,0,3,,,,,,,,,,,,,,,,,,,,,,,,,,,,,,,,,,,,,,11.0,3.0,
39,,feedback,,html-keyboard-response,39,43370,0.0-1.0-8.0-0.0-3.0-0.0,0,0,3,,,,,,6.0,,,,,,,,,,,,,,,,,,,,,,,,,,,,,,,,12.0,1.0,
40,,iti,,html-keyboard-response,40,43476,0.0-1.0-8.0-0.0-5.0,0,0,3,,,,,,,,,,,,,,,,,,,,,,,,,,,,,,,,,,,,,,13.5,1.5,
41,,choice,,html-keyboard-response,41,43907,0.0-1.0-9.0-0.0-0.0,0,0,3,,427.0,,,50.0,7.0,7.0,2000.0,1000.0,0.0,1.0,0.0,40-60,,0.0,pen,tent,40.0,60.0,pen6,tent6,20.0,80.0,executive_pen2.jpg,lighthouse_tent_edited_1-1.jpg,/static/Category_learning/Stimuli/Experimental_stims/pen/executive_pen2.jpg,/static/Category_learning/Stimuli/Experimental_stims/tent/lighthouse_tent_edited_1-1.jpg,1.0,pen,tent,40.0,60.0,pen6,tent6,20.0,80.0,0.0,13.927,0.427,
42,,confirmation,,html-keyboard-response,42,44989,0.0-1.0-9.0-0.0-1.0-0.0,0,0,3,,,,,,7.0,,,,,,,,,,,,,,,,,,,,,,,,,,,,,,,,15.0,1.073,
43,,isi,,html-keyboard-response,43,45093,0.0-1.0-9.0-0.0-2.0,0,0,3,,,,,,,,,,,,,,,,,,,,,,,,,,,,,,,,,,,,,,17.0,2.0,
44,,feedback,,html-keyboard-response,44,46102,0.0-1.0-9.0-0.0-3.0-0.0,0,0,3,,,,,,7.0,,,,,,,,,,,,,,,,,,,,,,,,,,,,,,,,18.0,1.0,
45,,iti,,html-keyboard-response,45,46209,0.0-1.0-9.0-0.0-5.0,0,0,3,,,,,,,,,,,,,,,,,,,,,,,,,,,,,,,,,,,,,,19.0,1.0,
46,,choice,,html-keyboard-response,46,46397,0.0-1.0-10.0-0.0-0.0,0,0,3,,184.0,,,50.0,8.0,8.0,1000.0,1000.0,0.0,1.0,0.0,20-60,,1.0,tent,lipstick,60.0,20.0,tent14,lipstick5,60.0,0.0,inflatable-tent.jpg,P35719_hero.jpg,/static/Category_learning/Stimuli/Experimental_stims/tent/inflatable-tent.jpg,/static/Category_learning/Stimuli/Experimental_stims/lipstick/P35719_hero.jpg,1.0,tent,lipstick,60.0,20.0,tent14,lipstick5,60.0,0.0,0.0,19.184,0.184,
47,,confirmation,,html-keyboard-response,47,47721,0.0-1.0-10.0-0.0-1.0-0.0,0,0,3,,,,,,8.0,,,,,,,,,,,,,,,,,,,,,,,,,,,,,,,,20.5,1.316,
48,,isi,,html-keyboard-response,48,47825,0.0-1.0-10.0-0.0-2.0,0,0,3,,,,,,,,,,,,,,,,,,,,,,,,,,,,,,,,,,,,,,21.5,1.0,
49,,feedback,,html-keyboard-response,49,48832,0.0-1.0-10.0-0.0-3.0-0.0,0,0,3,,,,,,8.0,,,,,,,,,,,,,,,,,,,,,,,,,,,,,,,,22.5,1.0,
50,,iti,,html-keyboard-response,50,48937,0.0-1.0-10.0-0.0-5.0,0,0,3,,,,,,,,,,,,,,,,,,,,,,,,,,,,,,,,,,,,,,23.5,1.0,
51,,choice,,html-keyboard-response,51,49117,0.0-1.0-11.0-0.0-0.0,0,0,3,,175.0,,,50.0,9.0,9.0,1000.0,1000.0,0.0,1.0,0.0,20-60,,1.0,watch,frame,60.0,20.0,watch8,frame6,60.0,40.0,2239.jpg,AFRAME123.jpg,/static/Category_learning/Stimuli/Experimental_stims/watch/2239.jpg,/static/Category_learning/Stimuli/Experimental_stims/frame/AFRAME123.jpg,1.0,watch,frame,60.0,20.0,watch8,frame6,60.0,40.0,0.0,23.675,0.175,
52,,confirmation,,html-keyboard-response,52,50450,0.0-1.0-11.0-0.0-1.0-0.0,0,0,3,,,,,,9.0,,,,,,,,,,,,,,,,,,,,,,,,,,,,,,,,25.0,1.325,
53,,isi,,html-keyboard-response,53,50556,0.0-1.0-11.0-0.0-2.0,0,0,3,,,,,,,,,,,,,,,,,,,,,,,,,,,,,,,,,,,,,,26.0,1.0,
54,,feedback,,html-keyboard-response,54,51565,0.0-1.0-11.0-0.0-3.0-0.0,0,0,3,,,,,,9.0,,,,,,,,,,,,,,,,,,,,,,,,,,,,,,,,27.0,1.0,
55,,iti,,html-keyboard-response,55,51673,0.0-1.0-11.0-0.0-5.0,0,0,3,,,,,,,,,,,,,,,,,,,,,,,,,,,,,,,,,,,,,,28.0,1.0,
56,,choice,,html-keyboard-response,56,51685,0.0-1.0-12.0-0.0-0.0,0,0,3,,8.0,,,50.0,10.0,10.0,3000.0,2000.0,0.0,1.0,1.0,40-60,0.0,,pen,tent,40.0,60.0,pen6,tent14,20.0,60.0,executive_pen2.jpg,inflatable-tent.jpg,/static/Category_learning/Stimuli/Experimental_stims/pen/executive_pen2.jpg,/static/Category_learning/Stimuli/Experimental_stims/tent/inflatable-tent.jpg,1.0,pen,tent,40.0,60.0,pen6,tent14,20.0,60.0,0.0,28.008,0.008,
57,,confirmation,,html-keyboard-response,57,53182,0.0-1.0-12.0-0.0-1.0-0.0,0,0,3,,,,,,10.0,,,,,,,,,,,,,,,,,,,,,,,,,,,,,,,,29.5,1.492,
58,,isi,,html-keyboard-response,58,53285,0.0-1.0-12.0-0.0-2.0,0,0,3,,,,,,,,,,,,,,,,,,,,,,,,,,,,,,,,,,,,,,32.5,3.0,
59,,feedback,,html-keyboard-response,59,54290,0.0-1.0-12.0-0.0-3.0-0.0,0,0,3,,,,,,10.0,,,,,,,,,,,,,,,,,,,,,,,,,,,,,,,,33.5,1.0,
60,,iti,,html-keyboard-response,60,54397,0.0-1.0-12.0-0.0-5.0,0,0,3,,,,,,,,,,,,,,,,,,,,,,,,,,,,,,,,,,,,,,35.5,2.0,
61,,choice,,html-keyboard-response,61,54635,0.0-1.0-13.0-0.0-0.0,0,0,3,,233.0,,,51.0,11.0,11.0,1000.0,2000.0,0.0,1.0,0.0,40-60,,1.0,tape,nail polish,60.0,40.0,tape12,nail polish5,60.0,40.0,Frog-Tape-Dispenser_F02218A2.jpg,182_t.jpg,/static/Category_learning/Stimuli/Experimental_stims/tape/Frog-Tape-Dispenser_F02218A2.jpg,/static/Category_learning/Stimuli/Experimental_stims/nail polish/182_t.jpg,0.0,nail polish,tape,40.0,60.0,nail polish5,tape12,40.0,60.0,0.0,35.733,0.233,
62,,confirmation,,html-keyboard-response,62,55909,0.0-1.0-13.0-0.0-1.0-0.0,0,0,3,,,,,,11.0,,,,,,,,,,,,,,,,,,,,,,,,,,,,,,,,37.0,1.267,
63,,isi,,html-keyboard-response,63,56015,0.0-1.0-13.0-0.0-2.0,0,0,3,,,,,,,,,,,,,,,,,,,,,,,,,,,,,,,,,,,,,,38.0,1.0,
64,,feedback,,html-keyboard-response,64,57022,0.0-1.0-13.0-0.0-3.0-0.0,0,0,3,,,,,,11.0,,,,,,,,,,,,,,,,,,,,,,,,,,,,,,,,39.0,1.0,
65,,iti,,html-keyboard-response,65,57128,0.0-1.0-13.0-0.0-5.0,0,0,3,,,,,,,,,,,,,,,,,,,,,,,,,,,,,,,,,,,,,,41.0,2.0,
66,,choice,,html-keyboard-response,66,57389,0.0-1.0-14.0-0.0-0.0,0,0,3,,257.0,,,51.0,12.0,12.0,3500.0,1500.0,0.0,1.0,0.0,20-60,,1.0,tape,makeup compact,60.0,20.0,tape7,makeup compact6,60.0,40.0,tape dispenser.jpg,P0754_hero.jpg,/static/Category_learning/Stimuli/Experimental_stims/tape/tape dispenser.jpg,/static/Category_learning/Stimuli/Experimental_stims/makeup compact/P0754_hero.jpg,0.0,makeup compact,tape,20.0,60.0,makeup compact6,tape7,40.0,60.0,0.0,41.257,0.257,
67,,confirmation,,html-keyboard-response,67,58637,0.0-1.0-14.0-0.0-1.0-0.0,0,0,3,,,,,,12.0,,,,,,,,,,,,,,,,,,,,,,,,,,,,,,,,42.5,1.243,
68,,isi,,html-keyboard-response,68,58745,0.0-1.0-14.0-0.0-2.0,0,0,3,,,,,,,,,,,,,,,,,,,,,,,,,,,,,,,,,,,,,,46.0,3.5,
69,,feedback,,html-keyboard-response,69,59752,0.0-1.0-14.0-0.0-3.0-0.0,0,0,3,,,,,,12.0,,,,,,,,,,,,,,,,,,,,,,,,,,,,,,,,47.0,1.0,
70,,iti,,html-keyboard-response,70,59858,0.0-1.0-14.0-0.0-5.0,0,0,3,,,,,,,,,,,,,,,,,,,,,,,,,,,,,,,,,,,,,,48.5,1.5,
71,,choice,,html-keyboard-response,71,59952,0.0-1.0-15.0-0.0-0.0,0,0,3,,92.0,,,51.0,13.0,13.0,2000.0,1500.0,0.0,1.0,0.0,20-80,,1.0,bowl,microscope,80.0,20.0,bowl3,microscope15,60.0,40.0,ABOWL8.jpg,Amicroscope23.jpg,/static/Category_learning/Stimuli/Experimental_stims/bowl/ABOWL8.jpg,/static/Category_learning/Stimuli/Experimental_stims/microscope/Amicroscope23.jpg,0.0,microscope,bowl,20.0,80.0,microscope15,bowl3,40.0,60.0,0.0,48.592,0.092,
72,,confirmation,,html-keyboard-response,72,61369,0.0-1.0-15.0-0.0-1.0-0.0,0,0,3,,,,,,13.0,,,,,,,,,,,,,,,,,,,,,,,,,,,,,,,,50.0,1.408,
73,,isi,,html-keyboard-response,73,61476,0.0-1.0-15.0-0.0-2.0,0,0,3,,,,,,,,,,,,,,,,,,,,,,,,,,,,,,,,,,,,,,52.0,2.0,
74,,feedback,,html-keyboard-response,74,62486,0.0-1.0-15.0-0.0-3.0-0.0,0,0,3,,,,,,13.0,,,,,,,,,,,,,,,,,,,,,,,,,,,,,,,,53.0,1.0,
75,,iti,,html-keyboard-response,75,62591,0.0-1.0-15.0-0.0-5.0,0,0,3,,,,,,,,,,,,,,,,,,,,,,,,,,,,,,,,,,,,,,54.5,1.5,
76,,choice,,html-keyboard-response,76,63427,0.0-1.0-16.0-0.0-0.0,0,0,3,,832.0,,,51.0,14.0,14.0,1000.0,2000.0,0.0,1.0,0.0,40-80,,1.0,door knob,necklace,80.0,40.0,door knob10,necklace14,80.0,20.0,c02a578d-c6cc-44ca-8dd2-de8901e30bd7_4.jpg,necklascenew05.jpg,/static/Category_learning/Stimuli/Experimental_stims/door knob/c02a578d-c6cc-44ca-8dd2-de8901e30bd7_4.jpg,/static/Category_learning/Stimuli/Experimental_stims/necklace/necklascenew05.jpg,0.0,necklace,door knob,40.0,80.0,necklace14,door knob10,20.0,80.0,0.0,55.332,0.832,
77,,confirmation,,html-keyboard-response,77,64104,0.0-1.0-16.0-0.0-1.0-0.0,0,0,3,,,,,,14.0,,,,,,,,,,,,,,,,,,,,,,,,,,,,,,,,56.0,0.668,
78,,isi,,html-keyboard-response,78,64209,0.0-1.0-16.0-0.0-2.0,0,0,3,,,,,,,,,,,,,,,,,,,,,,,,,,,,,,,,,,,,,,57.0,1.0,
79,,feedback,,html-keyboard-response,79,65216,0.0-1.0-16.0-0.0-3.0-0.0,0,0,3,,,,,,14.0,,,,,,,,,,,,,,,,,,,,,,,,,,,,,,,,58.0,1.0,
80,,iti,,html-keyboard-response,80,65321,0.0-1.0-16.0-0.0-5.0,0,0,3,,,,,,,,,,,,,,,,,,,,,,,,,,,,,,,,,,,,,,60.0,2.0,
81,,choice,,html-keyboard-response,81,66384,0.0-1.0-17.0-0.0-0.0,0,0,3,,1059.0,,,51.0,15.0,15.0,1000.0,1500.0,0.0,1.0,0.0,20-40,,0.0,motorcycle,sofa,20.0,40.0,motorcycle10,sofa5,20.0,60.0,motorcycle17.jpg,ALOVSEA14.jpg,/static/Category_learning/Stimuli/Experimental_stims/motorcycle/motorcycle17.jpg,/static/Category_learning/Stimuli/Experimental_stims/sofa/ALOVSEA14.jpg,0.0,sofa,motorcycle,40.0,20.0,sofa5,motorcycle10,60.0,20.0,0.0,61.059,1.059,
82,,confirmation,,html-keyboard-response,82,66834,0.0-1.0-17.0-0.0-1.0-0.0,0,0,3,,,,,,15.0,,,,,,,,,,,,,,,,,,,,,,,,,,,,,,,,61.5,0.441,
83,,isi,,html-keyboard-response,83,66939,0.0-1.0-17.0-0.0-2.0,0,0,3,,,,,,,,,,,,,,,,,,,,,,,,,,,,,,,,,,,,,,62.5,1.0,
84,,feedback,,html-keyboard-response,84,67947,0.0-1.0-17.0-0.0-3.0-0.0,0,0,3,,,,,,15.0,,,,,,,,,,,,,,,,,,,,,,,,,,,,,,,,63.5,1.0,
85,,iti,,html-keyboard-response,85,68051,0.0-1.0-17.0-0.0-5.0,0,0,3,,,,,,,,,,,,,,,,,,,,,,,,,,,,,,,,,,,,,,65.0,1.5,
86,,choice,,html-keyboard-response,86,68271,0.0-1.0-18.0-0.0-0.0,0,0,3,,217.0,,,51.0,16.0,16.0,1000.0,3000.0,0.0,1.0,0.0,60-60,,,telescope,yarn,60.0,60.0,telescope6,yarn15,80.0,80.0,LO-telescope-89769.jpg,rainbowscarf-600x394.jpg,/static/Category_learning/Stimuli/Experimental_stims/telescope/LO-telescope-89769.jpg,/static/Category_learning/Stimuli/Experimental_stims/yarn/rainbowscarf-600x394.jpg,0.0,yarn,telescope,60.0,60.0,yarn15,telescope6,80.0,80.0,0.0,65.217,0.217,
87,,confirmation,,html-keyboard-response,87,69562,0.0-1.0-18.0-0.0-1.0-0.0,0,0,3,,,,,,16.0,,,,,,,,,,,,,,,,,,,,,,,,,,,,,,,,66.5,1.283,
88,,isi,,html-keyboard-response,88,69667,0.0-1.0-18.0-0.0-2.0,0,0,3,,,,,,,,,,,,,,,,,,,,,,,,,,,,,,,,,,,,,,67.5,1.0,
89,,feedback,,html-keyboard-response,89,70676,0.0-1.0-18.0-0.0-3.0-0.0,0,0,3,,,,,,16.0,,,,,,,,,,,,,,,,,,,,,,,,,,,,,,,,68.5,1.0,
90,,iti,,html-keyboard-response,90,70779,0.0-1.0-18.0-0.0-5.0,0,0,3,,,,,,,,,,,,,,,,,,,,,,,,,,,,,,,,,,,,,,71.5,3.0,
91,,choice,,html-keyboard-response,91,70800,0.0-1.0-19.0-0.0-0.0,0,0,3,,17.0,,,51.0,17.0,17.0,1500.0,2000.0,0.0,1.0,0.0,20-20,,,license plate,makeup compact,20.0,20.0,license plate10,makeup compact7,40.0,0.0,pa-nfn-011.jpg,P187133_hero.jpg,/static/Category_learning/Stimuli/Experimental_stims/license plate/pa-nfn-011.jpg,/static/Category_learning/Stimuli/Experimental_stims/makeup compact/P187133_hero.jpg,0.0,makeup compact,license plate,20.0,20.0,makeup compact7,license plate10,0.0,40.0,0.0,71.517,0.017,
92,,confirmation,,html-keyboard-response,92,72288,0.0-1.0-19.0-0.0-1.0-0.0,0,0,3,,,,,,17.0,,,,,,,,,,,,,,,,,,,,,,,,,,,,,,,,73.0,1.483,
93,,isi,,html-keyboard-response,93,72391,0.0-1.0-19.0-0.0-2.0,0,0,3,,,,,,,,,,,,,,,,,,,,,,,,,,,,,,,,,,,,,,74.5,1.5,
94,,feedback,,html-keyboard-response,94,73398,0.0-1.0-19.0-0.0-3.0-0.0,0,0,3,,,,,,17.0,,,,,,,,,,,,,,,,,,,,,,,,,,,,,,,,75.5,1.0,
95,,iti,,html-keyboard-response,95,73503,0.0-1.0-19.0-0.0-5.0,0,0,3,,,,,,,,,,,,,,,,,,,,,,,,,,,,,,,,,,,,,,77.5,2.0,
96,,choice,,html-keyboard-response,96,74195,0.0-1.0-20.0-0.0-0.0,0,0,3,,688.0,,,51.0,18.0,18.0,2000.0,2000.0,0.0,1.0,1.0,20-20,1.0,,makeup compact,makeup compact,20.0,20.0,makeup compact6,makeup compact7,40.0,0.0,P0754_hero.jpg,P187133_hero.jpg,/static/Category_learning/Stimuli/Experimental_stims/makeup compact/P0754_hero.jpg,/static/Category_learning/Stimuli/Experimental_stims/makeup compact/P187133_hero.jpg,0.0,makeup compact,makeup compact,20.0,20.0,makeup compact7,makeup compact6,0.0,40.0,0.0,78.188,0.688,
97,,confirmation,,html-keyboard-response,97,75016,0.0-1.0-20.0-0.0-1.0-0.0,0,0,3,,,,,,18.0,,,,,,,,,,,,,,,,,,,,,,,,,,,,,,,,79.0,0.812,
98,,isi,,html-keyboard-response,98,75120,0.0-1.0-20.0-0.0-2.0,0,0,3,,,,,,,,,,,,,,,,,,,,,,,,,,,,,,,,,,,,,,81.0,2.0,
99,,feedback,,html-keyboard-response,99,76129,0.0-1.0-20.0-0.0-3.0-0.0,0,0,3,,,,,,18.0,,,,,,,,,,,,,,,,,,,,,,,,,,,,,,,,82.0,1.0,
100,,iti,,html-keyboard-response,100,76234,0.0-1.0-20.0-0.0-5.0,0,0,3,,,,,,,,,,,,,,,,,,,,,,,,,,,,,,,,,,,,,,84.0,2.0,
101,,choice,,html-keyboard-response,101,76649,0.0-1.0-21.0-0.0-0.0,0,0,3,,412.0,,,51.0,19.0,19.0,1500.0,1500.0,0.0,1.0,1.0,40-60,0.0,,yarn,necklace,60.0,40.0,yarn15,necklace14,80.0,20.0,rainbowscarf-600x394.jpg,necklascenew05.jpg,/static/Category_learning/Stimuli/Experimental_stims/yarn/rainbowscarf-600x394.jpg,/static/Category_learning/Stimuli/Experimental_stims/necklace/necklascenew05.jpg,0.0,necklace,yarn,40.0,60.0,necklace14,yarn15,20.0,80.0,0.0,84.412,0.412,
102,,confirmation,,html-keyboard-response,102,77743,0.0-1.0-21.0-0.0-1.0-0.0,0,0,3,,,,,,19.0,,,,,,,,,,,,,,,,,,,,,,,,,,,,,,,,85.5,1.088,
103,,isi,,html-keyboard-response,103,77849,0.0-1.0-21.0-0.0-2.0,0,0,3,,,,,,,,,,,,,,,,,,,,,,,,,,,,,,,,,,,,,,87.0,1.5,
104,,feedback,,html-keyboard-response,104,78855,0.0-1.0-21.0-0.0-3.0-0.0,0,0,3,,,,,,19.0,,,,,,,,,,,,,,,,,,,,,,,,,,,,,,,,88.0,1.0,
105,,iti,,html-keyboard-response,105,78962,0.0-1.0-21.0-0.0-5.0,0,0,3,,,,,,,,,,,,,,,,,,,,,,,,,,,,,,,,,,,,,,89.5,1.5,
106,,choice,,html-keyboard-response,106,79418,0.0-1.0-22.0-0.0-0.0,0,0,3,,453.0,,,51.0,20.0,20.0,2000.0,1000.0,0.0,1.0,0.0,40-80,,0.0,patio lounge chair,bongo,40.0,80.0,patio lounge chair11,bongo1,60.0,100.0,51830.jpg,ABONGO22.jpg,/static/Category_learning/Stimuli/Experimental_stims/patio lounge chair/51830.jpg,/static/Category_learning/Stimuli/Experimental_stims/bongo/ABONGO22.jpg,0.0,bongo,patio lounge chair,80.0,40.0,bongo1,patio lounge chair11,100.0,60.0,0.0,89.953,0.453,
107,,confirmation,,html-keyboard-response,107,80469,0.0-1.0-22.0-0.0-1.0-0.0,0,0,3,,,,,,20.0,,,,,,,,,,,,,,,,,,,,,,,,,,,,,,,,91.0,1.047,
108,,isi,,html-keyboard-response,108,80575,0.0-1.0-22.0-0.0-2.0,0,0,3,,,,,,,,,,,,,,,,,,,,,,,,,,,,,,,,,,,,,,93.0,2.0,
109,,feedback,,html-keyboard-response,109,81583,0.0-1.0-22.0-0.0-3.0-0.0,0,0,3,,,,,,20.0,,,,,,,,,,,,,,,,,,,,,,,,,,,,,,,,94.0,1.0,
110,,iti,,html-keyboard-response,110,81688,0.0-1.0-22.0-0.0-5.0,0,0,3,,,,,,,,,,,,,,,,,,,,,,,,,,,,,,,,,,,,,,95.0,1.0,
111,,choice,,html-keyboard-response,111,81773,0.0-1.0-23.0-0.0-0.0,0,0,3,,81.0,,,51.0,21.0,21.0,1500.0,1500.0,0.0,1.0,1.0,80-80,0.0,,desk,bongo,80.0,80.0,desk1,bongo1,100.0,100.0,ADESK11.jpg,ABONGO22.jpg,/static/Category_learning/Stimuli/Experimental_stims/desk/ADESK11.jpg,/static/Category_learning/Stimuli/Experimental_stims/bongo/ABONGO22.jpg,0.0,bongo,desk,80.0,80.0,bongo1,desk1,100.0,100.0,0.0,95.081,0.081,
112,,confirmation,,html-keyboard-response,112,83199,0.0-1.0-23.0-0.0-1.0-0.0,0,0,3,,,,,,21.0,,,,,,,,,,,,,,,,,,,,,,,,,,,,,,,,96.5,1.419,
113,,isi,,html-keyboard-response,113,83304,0.0-1.0-23.0-0.0-2.0,0,0,3,,,,,,,,,,,,,,,,,,,,,,,,,,,,,,,,,,,,,,98.0,1.5,
114,,feedback,,html-keyboard-response,114,84312,0.0-1.0-23.0-0.0-3.0-0.0,0,0,3,,,,,,21.0,,,,,,,,,,,,,,,,,,,,,,,,,,,,,,,,99.0,1.0,
115,,iti,,html-keyboard-response,115,84416,0.0-1.0-23.0-0.0-5.0,0,0,3,,,,,,,,,,,,,,,,,,,,,,,,,,,,,,,,,,,,,,100.5,1.5,
116,,choice,,html-keyboard-response,116,84793,0.0-1.0-24.0-0.0-0.0,0,0,3,,374.0,,,51.0,22.0,22.0,2000.0,2000.0,0.0,1.0,0.0,40-80,,1.0,baby carriage,seashell,80.0,40.0,baby carriage6,seashell2,60.0,20.0,Baby_Stroller-1.jpg,ph_stri_seashell.jpg,/static/Category_learning/Stimuli/Experimental_stims/baby carriage/Baby_Stroller-1.jpg,/static/Category_learning/Stimuli/Experimental_stims/seashell/ph_stri_seashell.jpg,0.0,seashell,baby carriage,40.0,80.0,seashell2,baby carriage6,20.0,60.0,0.0,100.874,0.374,
117,,confirmation,,html-keyboard-response,117,85926,0.0-1.0-24.0-0.0-1.0-0.0,0,0,3,,,,,,22.0,,,,,,,,,,,,,,,,,,,,,,,,,,,,,,,,102.0,1.126,
118,,isi,,html-keyboard-response,118,86030,0.0-1.0-24.0-0.0-2.0,0,0,3,,,,,,,,,,,,,,,,,,,,,,,,,,,,,,,,,,,,,,104.0,2.0,
119,,feedback,,html-keyboard-response,119,87035,0.0-1.0-24.0-0.0-3.0-0.0,0,0,3,,,,,,22.0,,,,,,,,,,,,,,,,,,,,,,,,,,,,,,,,105.0,1.0,
120,,iti,,html-keyboard-response,120,87141,0.0-1.0-24.0-0.0-5.0,0,0,3,,,,,,,,,,,,,,,,,,,,,,,,,,,,,,,,,,,,,,107.0,2.0,
121,,choice,,html-keyboard-response,121,87268,0.0-1.0-25.0-0.0-0.0,0,0,3,,123.0,,,51.0,23.0,23.0,1000.0,1000.0,0.0,1.0,0.0,20-80,,1.0,dresser,hat,80.0,20.0,dresser12,hat4,80.0,20.0,ADRESSE58.jpg,JS370.jpg,/static/Category_learning/Stimuli/Experimental_stims/dresser/ADRESSE58.jpg,/static/Category_learning/Stimuli/Experimental_stims/hat/JS370.jpg,0.0,hat,dresser,20.0,80.0,hat4,dresser12,20.0,80.0,0.0,107.123,0.123,
122,,confirmation,,html-keyboard-response,122,88649,0.0-1.0-25.0-0.0-1.0-0.0,0,0,3,,,,,,23.0,,,,,,,,,,,,,,,,,,,,,,,,,,,,,,,,108.5,1.377,
123,,isi,,html-keyboard-response,123,88752,0.0-1.0-25.0-0.0-2.0,0,0,3,,,,,,,,,,,,,,,,,,,,,,,,,,,,,,,,,,,,,,109.5,1.0,
124,,feedback,,html-keyboard-response,124,89758,0.0-1.0-25.0-0.0-3.0-0.0,0,0,3,,,,,,23.0,,,,,,,,,,,,,,,,,,,,,,,,,,,,,,,,110.5,1.0,
125,,iti,,html-keyboard-response,125,89867,0.0-1.0-25.0-0.0-5.0,0,0,3,,,,,,,,,,,,,,,,,,,,,,,,,,,,,,,,,,,,,,111.5,1.0,
126,,choice,,html-keyboard-response,126,90033,0.0-1.0-26.0-0.0-0.0,0,0,3,,162.0,,,51.0,24.0,24.0,2000.0,2000.0,0.0,1.0,0.0,20-80,,1.0,door knob,hammer,80.0,20.0,door knob13,hammer15,100.0,0.0,500_CLAWALBC.jpg,Vaughan-32-oz-Hickory-Handle-Ball-Pein-Hammer-S432-B0001LRUJM-L-ARCQ0EBO8TR73_.jpg,/static/Category_learning/Stimuli/Experimental_stims/door knob/500_CLAWALBC.jpg,/static/Category_learning/Stimuli/Experimental_stims/hammer/Vaughan-32-oz-Hickory-Handle-Ball-Pein-Hammer-S432-B0001LRUJM-L-ARCQ0EBO8TR73_.jpg,0.0,hammer,door knob,20.0,80.0,hammer15,door knob13,0.0,100.0,0.0,111.662,0.162,
127,,confirmation,,html-keyboard-response,127,91379,0.0-1.0-26.0-0.0-1.0-0.0,0,0,3,,,,,,24.0,,,,,,,,,,,,,,,,,,,,,,,,,,,,,,,,113.0,1.338,
128,,isi,,html-keyboard-response,128,91487,0.0-1.0-26.0-0.0-2.0,0,0,3,,,,,,,,,,,,,,,,,,,,,,,,,,,,,,,,,,,,,,115.0,2.0,
129,,feedback,,html-keyboard-response,129,92492,0.0-1.0-26.0-0.0-3.0-0.0,0,0,3,,,,,,24.0,,,,,,,,,,,,,,,,,,,,,,,,,,,,,,,,116.0,1.0,
130,,iti,,html-keyboard-response,130,92600,0.0-1.0-26.0-0.0-5.0,0,0,3,,,,,,,,,,,,,,,,,,,,,,,,,,,,,,,,,,,,,,118.0,2.0,
131,,choice,,html-keyboard-response,131,92926,0.0-1.0-27.0-0.0-0.0,0,0,3,,321.0,,,51.0,25.0,25.0,1000.0,1500.0,0.0,1.0,0.0,20-40,,0.0,hammer,nail polish,20.0,40.0,hammer7,nail polish12,40.0,40.0,hammer01.jpg,laquerdUP.jpg,/static/Category_learning/Stimuli/Experimental_stims/hammer/hammer01.jpg,/static/Category_learning/Stimuli/Experimental_stims/nail polish/laquerdUP.jpg,0.0,nail polish,hammer,40.0,20.0,nail polish12,hammer7,40.0,40.0,0.0,118.321,0.321,
132,,confirmation,,html-keyboard-response,132,94111,0.0-1.0-27.0-0.0-1.0-0.0,0,0,3,,,,,,25.0,,,,,,,,,,,,,,,,,,,,,,,,,,,,,,,,119.5,1.179,
133,,isi,,html-keyboard-response,133,94218,0.0-1.0-27.0-0.0-2.0,0,0,3,,,,,,,,,,,,,,,,,,,,,,,,,,,,,,,,,,,,,,120.5,1.0,
134,,feedback,,html-keyboard-response,134,95223,0.0-1.0-27.0-0.0-3.0-0.0,0,0,3,,,,,,25.0,,,,,,,,,,,,,,,,,,,,,,,,,,,,,,,,121.5,1.0,
135,,iti,,html-keyboard-response,135,95326,0.0-1.0-27.0-0.0-5.0,0,0,3,,,,,,,,,,,,,,,,,,,,,,,,,,,,,,,,,,,,,,123.0,1.5,
136,,choice,,html-keyboard-response,136,96253,0.0-1.0-28.0-0.0-0.0,0,0,3,,924.0,,,51.0,26.0,26.0,3500.0,1000.0,0.0,1.0,0.0,20-60,,1.0,stool,makeup compact,60.0,20.0,stool4,makeup compact5,40.0,40.0,ASTOOL22.jpg,P109965_hero.jpg,/static/Category_learning/Stimuli/Experimental_stims/stool/ASTOOL22.jpg,/static/Category_learning/Stimuli/Experimental_stims/makeup compact/P109965_hero.jpg,0.0,makeup compact,stool,20.0,60.0,makeup compact5,stool4,40.0,40.0,0.0,123.924,0.924,
137,,confirmation,,html-keyboard-response,137,96835,0.0-1.0-28.0-0.0-1.0-0.0,0,0,3,,,,,,26.0,,,,,,,,,,,,,,,,,,,,,,,,,,,,,,,,124.5,0.576,
138,,isi,,html-keyboard-response,138,96942,0.0-1.0-28.0-0.0-2.0,0,0,3,,,,,,,,,,,,,,,,,,,,,,,,,,,,,,,,,,,,,,128.0,3.5,
139,,feedback,,html-keyboard-response,139,97947,0.0-1.0-28.0-0.0-3.0-0.0,0,0,3,,,,,,26.0,,,,,,,,,,,,,,,,,,,,,,,,,,,,,,,,129.0,1.0,
140,,iti,,html-keyboard-response,140,98051,0.0-1.0-28.0-0.0-5.0,0,0,3,,,,,,,,,,,,,,,,,,,,,,,,,,,,,,,,,,,,,,130.0,1.0,
141,,choice,,html-keyboard-response,141,98396,0.0-1.0-29.0-0.0-0.0,0,0,3,,341.0,,,51.0,27.0,27.0,1500.0,3500.0,0.0,1.0,0.0,40-80,,1.0,flashlight,small table,80.0,40.0,flashlight12,small table8,80.0,60.0,new05.jpg,ATABLE8.jpg,/static/Category_learning/Stimuli/Experimental_stims/flashlight/new05.jpg,/static/Category_learning/Stimuli/Experimental_stims/small table/ATABLE8.jpg,0.0,small table,flashlight,40.0,80.0,small table8,flashlight12,60.0,80.0,0.0,130.341,0.341,
142,,confirmation,,html-keyboard-response,142,99566,0.0-1.0-29.0-0.0-1.0-0.0,0,0,3,,,,,,27.0,,,,,,,,,,,,,,,,,,,,,,,,,,,,,,,,131.5,1.159,
143,,isi,,html-keyboard-response,143,99671,0.0-1.0-29.0-0.0-2.0,0,0,3,,,,,,,,,,,,,,,,,,,,,,,,,,,,,,,,,,,,,,133.0,1.5,
144,,feedback,,html-keyboard-response,144,100679,0.0-1.0-29.0-0.0-3.0-0.0,0,0,3,,,,,,27.0,,,,,,,,,,,,,,,,,,,,,,,,,,,,,,,,134.0,1.0,
145,,iti,,html-keyboard-response,145,100785,0.0-1.0-29.0-0.0-5.0,0,0,3,,,,,,,,,,,,,,,,,,,,,,,,,,,,,,,,,,,,,,137.5,3.5,
146,,choice,,html-keyboard-response,146,100935,0.0-1.0-30.0-0.0-0.0,0,0,3,,146.0,,,51.0,28.0,28.0,3000.0,3000.0,0.0,1.0,1.0,40-40,1.0,,nail polish,nail polish,40.0,40.0,nail polish5,nail polish12,40.0,40.0,182_t.jpg,laquerdUP.jpg,/static/Category_learning/Stimuli/Experimental_stims/nail polish/182_t.jpg,/static/Category_learning/Stimuli/Experimental_stims/nail polish/laquerdUP.jpg,0.0,nail polish,nail polish,40.0,40.0,nail polish12,nail polish5,40.0,40.0,0.0,137.646,0.146,
147,,confirmation,,html-keyboard-response,147,102295,0.0-1.0-30.0-0.0-1.0-0.0,0,0,3,,,,,,28.0,,,,,,,,,,,,,,,,,,,,,,,,,,,,,,,,139.0,1.354,
148,,isi,,html-keyboard-response,148,102398,0.0-1.0-30.0-0.0-2.0,0,0,3,,,,,,,,,,,,,,,,,,,,,,,,,,,,,,,,,,,,,,142.0,3.0,
149,,feedback,,html-keyboard-response,149,103406,0.0-1.0-30.0-0.0-3.0-0.0,0,0,3,,,,,,28.0,,,,,,,,,,,,,,,,,,,,,,,,,,,,,,,,143.0,1.0,
150,,iti,,html-keyboard-response,150,103512,0.0-1.0-30.0-0.0-5.0,0,0,3,,,,,,,,,,,,,,,,,,,,,,,,,,,,,,,,,,,,,,146.0,3.0,
151,,choice,,html-keyboard-response,151,104410,0.0-1.0-31.0-0.0-0.0,0,0,3,,894.0,,,51.0,29.0,29.0,3500.0,1000.0,0.0,1.0,0.0,20-80,,1.0,bongo,key chain,80.0,20.0,bongo8,key chain10,80.0,0.0,26390661.thl.jpg,Smurfs_Keychains_Smurf_Row_Boat.jpg,/static/Category_learning/Stimuli/Experimental_stims/bongo/26390661.thl.jpg,/static/Category_learning/Stimuli/Experimental_stims/key chain/Smurfs_Keychains_Smurf_Row_Boat.jpg,0.0,key chain,bongo,20.0,80.0,key chain10,bongo8,0.0,80.0,0.0,146.894,0.894,
152,,confirmation,,html-keyboard-response,152,105023,0.0-1.0-31.0-0.0-1.0-0.0,0,0,3,,,,,,29.0,,,,,,,,,,,,,,,,,,,,,,,,,,,,,,,,147.5,0.606,
153,,isi,,html-keyboard-response,153,105125,0.0-1.0-31.0-0.0-2.0,0,0,3,,,,,,,,,,,,,,,,,,,,,,,,,,,,,,,,,,,,,,151.0,3.5,
154,,feedback,,html-keyboard-response,154,106129,0.0-1.0-31.0-0.0-3.0-0.0,0,0,3,,,,,,29.0,,,,,,,,,,,,,,,,,,,,,,,,,,,,,,,,152.0,1.0,
155,,iti,,html-keyboard-response,155,106238,0.0-1.0-31.0-0.0-5.0,0,0,3,,,,,,,,,,,,,,,,,,,,,,,,,,,,,,,,,,,,,,153.0,1.0,
156,,choice,,html-keyboard-response,156,106349,0.0-1.0-32.0-0.0-0.0,0,0,3,,107.0,,,51.0,30.0,30.0,1000.0,2000.0,0.0,1.0,0.0,60-80,,0.0,tape,baby carriage,60.0,80.0,tape15,baby carriage10,80.0,100.0,MMMC15BK.jpg,peg_perego_uno_blu.jpg,/static/Category_learning/Stimuli/Experimental_stims/tape/MMMC15BK.jpg,/static/Category_learning/Stimuli/Experimental_stims/baby carriage/peg_perego_uno_blu.jpg,0.0,baby carriage,tape,80.0,60.0,baby carriage10,tape15,100.0,80.0,0.0,153.107,0.107,
157,,confirmation,,html-keyboard-response,157,107751,0.0-1.0-32.0-0.0-1.0-0.0,0,0,3,,,,,,30.0,,,,,,,,,,,,,,,,,,,,,,,,,,,,,,,,154.5,1.393,
158,,isi,,html-keyboard-response,158,107856,0.0-1.0-32.0-0.0-2.0,0,0,3,,,,,,,,,,,,,,,,,,,,,,,,,,,,,,,,,,,,,,155.5,1.0,
159,,feedback,,html-keyboard-response,159,108860,0.0-1.0-32.0-0.0-3.0-0.0,0,0,3,,,,,,30.0,,,,,,,,,,,,,,,,,,,,,,,,,,,,,,,,156.5,1.0,
160,,iti,,html-keyboard-response,160,108964,0.0-1.0-32.0-0.0-5.0,0,0,3,,,,,,,,,,,,,,,,,,,,,,,,,,,,,,,,,,,,,,158.5,2.0,
161,,choice,,html-keyboard-response,161,109442,0.0-1.0-33.0-0.0-0.0,0,0,3,,474.0,,,51.0,31.0,31.0,1000.0,1000.0,0.0,1.0,1.0,20-40,0.0,,small table,makeup compact,40.0,20.0,small table8,makeup compact5,60.0,40.0,ATABLE8.jpg,P109965_hero.jpg,/static/Category_learning/Stimuli/Experimental_stims/small table/ATABLE8.jpg,/static/Category_learning/Stimuli/Experimental_stims/makeup compact/P109965_hero.jpg,0.0,makeup compact,small table,20.0,40.0,makeup compact5,small table8,40.0,60.0,0.0,158.974,0.474,
162,,confirmation,,html-keyboard-response,162,110474,0.0-1.0-33.0-0.0-1.0-0.0,0,0,3,,,,,,31.0,,,,,,,,,,,,,,,,,,,,,,,,,,,,,,,,160.0,1.026,
163,,isi,,html-keyboard-response,163,110583,0.0-1.0-33.0-0.0-2.0,0,0,3,,,,,,,,,,,,,,,,,,,,,,,,,,,,,,,,,,,,,,161.0,1.0,
164,,feedback,,html-keyboard-response,164,111589,0.0-1.0-33.0-0.0-3.0-0.0,0,0,3,,,,,,31.0,,,,,,,,,,,,,,,,,,,,,,,,,,,,,,,,162.0,1.0,
165,,iti,,html-keyboard-response,165,111697,0.0-1.0-33.0-0.0-5.0,0,0,3,,,,,,,,,,,,,,,,,,,,,,,,,,,,,,,,,,,,,,163.0,1.0,
166,,choice,,html-keyboard-response,166,112012,0.0-1.0-34.0-0.0-0.0,0,0,3,,310.0,,,51.0,32.0,32.0,1000.0,1000.0,0.0,1.0,0.0,20-60,,0.0,frame,vase,20.0,60.0,frame4,vase9,40.0,60.0,AFRAME125.jpg,Avasewithang2.jpg,/static/Category_learning/Stimuli/Experimental_stims/frame/AFRAME125.jpg,/static/Category_learning/Stimuli/Experimental_stims/vase/Avasewithang2.jpg,0.0,vase,frame,60.0,20.0,vase9,frame4,60.0,40.0,0.0,163.31,0.31,
167,,confirmation,,html-keyboard-response,167,113211,0.0-1.0-34.0-0.0-1.0-0.0,0,0,3,,,,,,32.0,,,,,,,,,,,,,,,,,,,,,,,,,,,,,,,,164.5,1.19,
168,,isi,,html-keyboard-response,168,113320,0.0-1.0-34.0-0.0-2.0,0,0,3,,,,,,,,,,,,,,,,,,,,,,,,,,,,,,,,,,,,,,165.5,1.0,
169,,feedback,,html-keyboard-response,169,114330,0.0-1.0-34.0-0.0-3.0-0.0,0,0,3,,,,,,32.0,,,,,,,,,,,,,,,,,,,,,,,,,,,,,,,,166.5,1.0,
170,,iti,,html-keyboard-response,170,114436,0.0-1.0-34.0-0.0-5.0,0,0,3,,,,,,,,,,,,,,,,,,,,,,,,,,,,,,,,,,,,,,167.5,1.0,
171,,choice,,html-keyboard-response,171,114677,0.0-1.0-35.0-0.0-0.0,0,0,3,,237.0,,,51.0,33.0,33.0,1000.0,1500.0,0.0,1.0,0.0,40-40,,,power strip,necklace,40.0,40.0,power strip5,necklace3,60.0,20.0,93e4a283-bcd6-4ad1-8add-339658cda0fc_400.jpg,26388201.thl.jpg,/static/Category_learning/Stimuli/Experimental_stims/power strip/93e4a283-bcd6-4ad1-8add-339658cda0fc_400.jpg,/static/Category_learning/Stimuli/Experimental_stims/necklace/26388201.thl.jpg,0.0,necklace,power strip,40.0,40.0,necklace3,power strip5,20.0,60.0,0.0,167.737,0.237,
172,,confirmation,,html-keyboard-response,172,115949,0.0-1.0-35.0-0.0-1.0-0.0,0,0,3,,,,,,33.0,,,,,,,,,,,,,,,,,,,,,,,,,,,,,,,,169.0,1.263,
173,,isi,,html-keyboard-response,173,116057,0.0-1.0-35.0-0.0-2.0,0,0,3,,,,,,,,,,,,,,,,,,,,,,,,,,,,,,,,,,,,,,170.0,1.0,
174,,feedback,,html-keyboard-response,174,117065,0.0-1.0-35.0-0.0-3.0-0.0,0,0,3,,,,,,33.0,,,,,,,,,,,,,,,,,,,,,,,,,,,,,,,,171.0,1.0,
175,,iti,,html-keyboard-response,175,117170,0.0-1.0-35.0-0.0-5.0,0,0,3,,,,,,,,,,,,,,,,,,,,,,,,,,,,,,,,,,,,,,172.5,1.5,
176,,choice,,html-keyboard-response,176,117295,0.0-1.0-36.0-0.0-0.0,0,0,3,,121.0,,,51.0,34.0,34.0,2000.0,3000.0,0.0,1.0,0.0,40-60,,0.0,patio lounge chair,yarn,40.0,60.0,patio lounge chair14,yarn8,40.0,40.0,2987951.jpg,smonlineyarn-285x250.jpg,/static/Category_learning/Stimuli/Experimental_stims/patio lounge chair/2987951.jpg,/static/Category_learning/Stimuli/Experimental_stims/yarn/smonlineyarn-285x250.jpg,0.0,yarn,patio lounge chair,60.0,40.0,yarn8,patio lounge chair14,40.0,40.0,0.0,172.621,0.121,
177,,confirmation,,html-keyboard-response,177,118684,0.0-1.0-36.0-0.0-1.0-0.0,0,0,3,,,,,,34.0,,,,,,,,,,,,,,,,,,,,,,,,,,,,,,,,174.0,1.379,
178,,isi,,html-keyboard-response,178,118788,0.0-1.0-36.0-0.0-2.0,0,0,3,,,,,,,,,,,,,,,,,,,,,,,,,,,,,,,,,,,,,,176.0,2.0,
179,,feedback,,html-keyboard-response,179,119796,0.0-1.0-36.0-0.0-3.0-0.0,0,0,3,,,,,,34.0,,,,,,,,,,,,,,,,,,,,,,,,,,,,,,,,177.0,1.0,
180,,iti,,html-keyboard-response,180,119904,0.0-1.0-36.0-0.0-5.0,0,0,3,,,,,,,,,,,,,,,,,,,,,,,,,,,,,,,,,,,,,,180.0,3.0,
181,,choice,,html-keyboard-response,181,120230,0.0-1.0-37.0-0.0-0.0,0,0,3,,322.0,,,51.0,35.0,35.0,1500.0,3500.0,0.0,1.0,1.0,20-80,0.0,,baby carriage,key chain,80.0,20.0,baby carriage10,key chain10,100.0,0.0,peg_perego_uno_blu.jpg,Smurfs_Keychains_Smurf_Row_Boat.jpg,/static/Category_learning/Stimuli/Experimental_stims/baby carriage/peg_perego_uno_blu.jpg,/static/Category_learning/Stimuli/Experimental_stims/key chain/Smurfs_Keychains_Smurf_Row_Boat.jpg,0.0,key chain,baby carriage,20.0,80.0,key chain10,baby carriage10,0.0,100.0,0.0,180.322,0.322,
182,,confirmation,,html-keyboard-response,182,121417,0.0-1.0-37.0-0.0-1.0-0.0,0,0,3,,,,,,35.0,,,,,,,,,,,,,,,,,,,,,,,,,,,,,,,,181.5,1.178,
183,,isi,,html-keyboard-response,183,121524,0.0-1.0-37.0-0.0-2.0,0,0,3,,,,,,,,,,,,,,,,,,,,,,,,,,,,,,,,,,,,,,183.0,1.5,
184,,feedback,,html-keyboard-response,184,122531,0.0-1.0-37.0-0.0-3.0-0.0,0,0,3,,,,,,35.0,,,,,,,,,,,,,,,,,,,,,,,,,,,,,,,,184.0,1.0,
185,,iti,,html-keyboard-response,185,122637,0.0-1.0-37.0-0.0-5.0,0,0,3,,,,,,,,,,,,,,,,,,,,,,,,,,,,,,,,,,,,,,187.5,3.5,
186,,choice,,html-keyboard-response,186,122677,0.0-1.0-38.0-0.0-0.0,0,0,3,,36.0,,,51.0,36.0,36.0,1500.0,2000.0,0.0,1.0,1.0,20-60,0.0,,watch,hammer,60.0,20.0,watch8,hammer15,60.0,0.0,2239.jpg,Vaughan-32-oz-Hickory-Handle-Ball-Pein-Hammer-S432-B0001LRUJM-L-ARCQ0EBO8TR73_.jpg,/static/Category_learning/Stimuli/Experimental_stims/watch/2239.jpg,/static/Category_learning/Stimuli/Experimental_stims/hammer/Vaughan-32-oz-Hickory-Handle-Ball-Pein-Hammer-S432-B0001LRUJM-L-ARCQ0EBO8TR73_.jpg,0.0,hammer,watch,20.0,60.0,hammer15,watch8,0.0,60.0,0.0,187.536,0.036,
187,,confirmation,,html-keyboard-response,187,124147,0.0-1.0-38.0-0.0-1.0-0.0,0,0,3,,,,,,36.0,,,,,,,,,,,,,,,,,,,,,,,,,,,,,,,,189.0,1.464,
188,,isi,,html-keyboard-response,188,124253,0.0-1.0-38.0-0.0-2.0,0,0,3,,,,,,,,,,,,,,,,,,,,,,,,,,,,,,,,,,,,,,190.5,1.5,
189,,feedback,,html-keyboard-response,189,125262,0.0-1.0-38.0-0.0-3.0-0.0,0,0,3,,,,,,36.0,,,,,,,,,,,,,,,,,,,,,,,,,,,,,,,,191.5,1.0,
190,,iti,,html-keyboard-response,190,125371,0.0-1.0-38.0-0.0-5.0,0,0,3,,,,,,,,,,,,,,,,,,,,,,,,,,,,,,,,,,,,,,193.5,2.0,
191,,choice,,html-keyboard-response,191,125623,0.0-1.0-39.0-0.0-0.0,0,0,3,,245.0,,,51.0,37.0,37.0,1000.0,1000.0,0.0,1.0,0.0,60-60,,,tape,train,60.0,60.0,tape10,train6,80.0,40.0,26377601.thl.jpg,train9.jpg,/static/Category_learning/Stimuli/Experimental_stims/tape/26377601.thl.jpg,/static/Category_learning/Stimuli/Experimental_stims/train/train9.jpg,0.0,train,tape,60.0,60.0,train6,tape10,40.0,80.0,0.0,193.745,0.245,
192,,confirmation,,html-keyboard-response,192,126887,0.0-1.0-39.0-0.0-1.0-0.0,0,0,3,,,,,,37.0,,,,,,,,,,,,,,,,,,,,,,,,,,,,,,,,195.0,1.255,
193,,isi,,html-keyboard-response,193,126992,0.0-1.0-39.0-0.0-2.0,0,0,3,,,,,,,,,,,,,,,,,,,,,,,,,,,,,,,,,,,,,,196.0,1.0,
194,,feedback,,html-keyboard-response,194,127997,0.0-1.0-39.0-0.0-3.0-0.0,0,0,3,,,,,,37.0,,,,,,,,,,,,,,,,,,,,,,,,,,,,,,,,197.0,1.0,
195,,iti,,html-keyboard-response,195,128105,0.0-1.0-39.0-0.0-5.0,0,0,3,,,,,,,,,,,,,,,,,,,,,,,,,,,,,,,,,,,,,,198.0,1.0,
196,,choice,,html-keyboard-response,196,128442,0.0-1.0-40.0-0.0-0.0,0,0,3,,333.0,,,51.0,38.0,38.0,1500.0,3500.0,0.0,1.0,0.0,40-80,,0.0,patio lounge chair,bowl,40.0,80.0,patio lounge chair8,bowl6,20.0,80.0,43-1.jpg,Abowl59.jpg,/static/Category_learning/Stimuli/Experimental_stims/patio lounge chair/43-1.jpg,/static/Category_learning/Stimuli/Experimental_stims/bowl/Abowl59.jpg,0.0,bowl,patio lounge chair,80.0,40.0,bowl6,patio lounge chair8,80.0,20.0,0.0,198.333,0.333,
197,,confirmation,,html-keyboard-response,197,129618,0.0-1.0-40.0-0.0-1.0-0.0,0,0,3,,,,,,38.0,,,,,,,,,,,,,,,,,,,,,,,,,,,,,,,,199.5,1.167,
198,,isi,,html-keyboard-response,198,129724,0.0-1.0-40.0-0.0-2.0,0,0,3,,,,,,,,,,,,,,,,,,,,,,,,,,,,,,,,,,,,,,201.0,1.5,
199,,feedback,,html-keyboard-response,199,130730,0.0-1.0-40.0-0.0-3.0-0.0,0,0,3,,,,,,38.0,,,,,,,,,,,,,,,,,,,,,,,,,,,,,,,,202.0,1.0,
200,,iti,,html-keyboard-response,200,130835,0.0-1.0-40.0-0.0-5.0,0,0,3,,,,,,,,,,,,,,,,,,,,,,,,,,,,,,,,,,,,,,205.5,3.5,
201,,choice,,html-keyboard-response,201,130925,0.0-1.0-41.0-0.0-0.0,0,0,3,,85.0,,,51.0,39.0,39.0,2000.0,2000.0,0.0,1.0,1.0,40-60,0.0,,sofa,vase,40.0,60.0,sofa5,vase9,60.0,60.0,ALOVSEA14.jpg,Avasewithang2.jpg,/static/Category_learning/Stimuli/Experimental_stims/sofa/ALOVSEA14.jpg,/static/Category_learning/Stimuli/Experimental_stims/vase/Avasewithang2.jpg,0.0,vase,sofa,60.0,40.0,vase9,sofa5,60.0,60.0,0.0,205.585,0.085,
202,,confirmation,,html-keyboard-response,202,132346,0.0-1.0-41.0-0.0-1.0-0.0,0,0,3,,,,,,39.0,,,,,,,,,,,,,,,,,,,,,,,,,,,,,,,,207.0,1.415,
203,,isi,,html-keyboard-response,203,132454,0.0-1.0-41.0-0.0-2.0,0,0,3,,,,,,,,,,,,,,,,,,,,,,,,,,,,,,,,,,,,,,209.0,2.0,
204,,feedback,,html-keyboard-response,204,133461,0.0-1.0-41.0-0.0-3.0-0.0,0,0,3,,,,,,39.0,,,,,,,,,,,,,,,,,,,,,,,,,,,,,,,,210.0,1.0,
205,,iti,,html-keyboard-response,205,133570,0.0-1.0-41.0-0.0-5.0,0,0,3,,,,,,,,,,,,,,,,,,,,,,,,,,,,,,,,,,,,,,212.0,2.0,
206,,choice,,html-keyboard-response,206,134634,0.0-1.0-42.0-0.0-0.0,0,0,3,,1060.0,,,51.0,40.0,40.0,1000.0,1500.0,0.0,1.0,0.0,40-60,,0.0,nail polish,watch,40.0,60.0,nail polish14,watch15,20.0,80.0,38031405.JPG,20-171-6.jpg,/static/Category_learning/Stimuli/Experimental_stims/nail polish/38031405.JPG,/static/Category_learning/Stimuli/Experimental_stims/watch/20-171-6.jpg,0.0,watch,nail polish,60.0,40.0,watch15,nail polish14,80.0,20.0,0.0,213.06,1.06,
207,,confirmation,,html-keyboard-response,207,135080,0.0-1.0-42.0-0.0-1.0-0.0,0,0,3,,,,,,40.0,,,,,,,,,,,,,,,,,,,,,,,,,,,,,,,,213.5,0.44,
208,,isi,,html-keyboard-response,208,135186,0.0-1.0-42.0-0.0-2.0,0,0,3,,,,,,,,,,,,,,,,,,,,,,,,,,,,,,,,,,,,,,214.5,1.0,
209,,feedback,,html-keyboard-response,209,136190,0.0-1.0-42.0-0.0-3.0-0.0,0,0,3,,,,,,40.0,,,,,,,,,,,,,,,,,,,,,,,,,,,,,,,,215.5,1.0,
210,,iti,,html-keyboard-response,210,136295,0.0-1.0-42.0-0.0-5.0,0,0,3,,,,,,,,,,,,,,,,,,,,,,,,,,,,,,,,,,,,,,217.0,1.5,
211,,choice,,html-keyboard-response,211,136744,0.0-1.0-43.0-0.0-0.0,0,0,3,,444.0,,,51.0,41.0,41.0,1500.0,3000.0,0.0,1.0,0.0,20-20,,,hammer,license plate,20.0,20.0,hammer5,license plate14,20.0,0.0,hammer02.jpg,fl-hel-bel.jpg,/static/Category_learning/Stimuli/Experimental_stims/hammer/hammer02.jpg,/static/Category_learning/Stimuli/Experimental_stims/license plate/fl-hel-bel.jpg,0.0,license plate,hammer,20.0,20.0,license plate14,hammer5,0.0,20.0,0.0,217.444,0.444,
212,,confirmation,,html-keyboard-response,212,137810,0.0-1.0-43.0-0.0-1.0-0.0,0,0,3,,,,,,41.0,,,,,,,,,,,,,,,,,,,,,,,,,,,,,,,,218.5,1.056,
213,,isi,,html-keyboard-response,213,137916,0.0-1.0-43.0-0.0-2.0,0,0,3,,,,,,,,,,,,,,,,,,,,,,,,,,,,,,,,,,,,,,220.0,1.5,
214,,feedback,,html-keyboard-response,214,138921,0.0-1.0-43.0-0.0-3.0-0.0,0,0,3,,,,,,41.0,,,,,,,,,,,,,,,,,,,,,,,,,,,,,,,,221.0,1.0,
215,,iti,,html-keyboard-response,215,139025,0.0-1.0-43.0-0.0-5.0,0,0,3,,,,,,,,,,,,,,,,,,,,,,,,,,,,,,,,,,,,,,224.0,3.0,
216,,choice,,html-keyboard-response,216,139336,0.0-1.0-44.0-0.0-0.0,0,0,3,,307.0,,,51.0,42.0,42.0,1500.0,1000.0,0.0,1.0,0.0,40-40,,,poker card,necklace,40.0,40.0,poker card15,necklace9,40.0,60.0,9816946.thl.jpg,ANECKLACE.jpg,/static/Category_learning/Stimuli/Experimental_stims/poker card/9816946.thl.jpg,/static/Category_learning/Stimuli/Experimental_stims/necklace/ANECKLACE.jpg,0.0,necklace,poker card,40.0,40.0,necklace9,poker card15,60.0,40.0,0.0,224.307,0.307,
217,,confirmation,,html-keyboard-response,217,140537,0.0-1.0-44.0-0.0-1.0-0.0,0,0,3,,,,,,42.0,,,,,,,,,,,,,,,,,,,,,,,,,,,,,,,,225.5,1.193,
218,,isi,,html-keyboard-response,218,140641,0.0-1.0-44.0-0.0-2.0,0,0,3,,,,,,,,,,,,,,,,,,,,,,,,,,,,,,,,,,,,,,227.0,1.5,
219,,feedback,,html-keyboard-response,219,141649,0.0-1.0-44.0-0.0-3.0-0.0,0,0,3,,,,,,42.0,,,,,,,,,,,,,,,,,,,,,,,,,,,,,,,,228.0,1.0,
220,,iti,,html-keyboard-response,220,141755,0.0-1.0-44.0-0.0-5.0,0,0,3,,,,,,,,,,,,,,,,,,,,,,,,,,,,,,,,,,,,,,229.0,1.0,
221,,choice,,html-keyboard-response,221,142155,0.0-1.0-45.0-0.0-0.0,0,0,3,,396.0,,,51.0,43.0,43.0,1000.0,3500.0,0.0,1.0,0.0,20-20,,,microscope,hammer,20.0,20.0,microscope5,hammer11,0.0,0.0,emMicroscope.jpg,8oz-hammer-copy.jpg,/static/Category_learning/Stimuli/Experimental_stims/microscope/emMicroscope.jpg,/static/Category_learning/Stimuli/Experimental_stims/hammer/8oz-hammer-copy.jpg,0.0,hammer,microscope,20.0,20.0,hammer11,microscope5,0.0,0.0,0.0,229.396,0.396,
222,,confirmation,,html-keyboard-response,222,143264,0.0-1.0-45.0-0.0-1.0-0.0,0,0,3,,,,,,43.0,,,,,,,,,,,,,,,,,,,,,,,,,,,,,,,,230.5,1.104,
223,,isi,,html-keyboard-response,223,143372,0.0-1.0-45.0-0.0-2.0,0,0,3,,,,,,,,,,,,,,,,,,,,,,,,,,,,,,,,,,,,,,231.5,1.0,
224,,feedback,,html-keyboard-response,224,144378,0.0-1.0-45.0-0.0-3.0-0.0,0,0,3,,,,,,43.0,,,,,,,,,,,,,,,,,,,,,,,,,,,,,,,,232.5,1.0,
225,,iti,,html-keyboard-response,225,144484,0.0-1.0-45.0-0.0-5.0,0,0,3,,,,,,,,,,,,,,,,,,,,,,,,,,,,,,,,,,,,,,236.0,3.5,
226,,choice,,html-keyboard-response,226,144489,0.0-1.0-46.0-0.0-0.0,0,0,3,,1.0,,,51.0,44.0,44.0,1000.0,1000.0,0.0,1.0,1.0,40-40,1.0,,necklace,necklace,40.0,40.0,necklace3,necklace9,20.0,60.0,26388201.thl.jpg,ANECKLACE.jpg,/static/Category_learning/Stimuli/Experimental_stims/necklace/26388201.thl.jpg,/static/Category_learning/Stimuli/Experimental_stims/necklace/ANECKLACE.jpg,0.0,necklace,necklace,40.0,40.0,necklace9,necklace3,60.0,20.0,0.0,236.001,0.001,
227,,confirmation,,html-keyboard-response,227,145993,0.0-1.0-46.0-0.0-1.0-0.0,0,0,3,,,,,,44.0,,,,,,,,,,,,,,,,,,,,,,,,,,,,,,,,237.5,1.499,
228,,isi,,html-keyboard-response,228,146100,0.0-1.0-46.0-0.0-2.0,0,0,3,,,,,,,,,,,,,,,,,,,,,,,,,,,,,,,,,,,,,,238.5,1.0,
229,,feedback,,html-keyboard-response,229,147109,0.0-1.0-46.0-0.0-3.0-0.0,0,0,3,,,,,,44.0,,,,,,,,,,,,,,,,,,,,,,,,,,,,,,,,239.5,1.0,
230,,iti,,html-keyboard-response,230,147217,0.0-1.0-46.0-0.0-5.0,0,0,3,,,,,,,,,,,,,,,,,,,,,,,,,,,,,,,,,,,,,,240.5,1.0,
231,,choice,,html-keyboard-response,231,147529,0.0-1.0-47.0-0.0-0.0,0,0,3,,307.0,,,51.0,45.0,45.0,1000.0,1500.0,0.0,1.0,0.0,80-80,,,baby carriage,fan,80.0,80.0,baby carriage8,fan7,60.0,80.0,peg_perego_uno_revi_black.jpg,250679_lg.jpg,/static/Category_learning/Stimuli/Experimental_stims/baby carriage/peg_perego_uno_revi_black.jpg,/static/Category_learning/Stimuli/Experimental_stims/fan/250679_lg.jpg,0.0,fan,baby carriage,80.0,80.0,fan7,baby carriage8,80.0,60.0,0.0,240.807,0.307,
232,,confirmation,,html-keyboard-response,232,148728,0.0-1.0-47.0-0.0-1.0-0.0,0,0,3,,,,,,45.0,,,,,,,,,,,,,,,,,,,,,,,,,,,,,,,,242.0,1.193,
233,,isi,,html-keyboard-response,233,148832,0.0-1.0-47.0-0.0-2.0,0,0,3,,,,,,,,,,,,,,,,,,,,,,,,,,,,,,,,,,,,,,243.0,1.0,
234,,feedback,,html-keyboard-response,234,149842,0.0-1.0-47.0-0.0-3.0-0.0,0,0,3,,,,,,45.0,,,,,,,,,,,,,,,,,,,,,,,,,,,,,,,,244.0,1.0,
235,,iti,,html-keyboard-response,235,149946,0.0-1.0-47.0-0.0-5.0,0,0,3,,,,,,,,,,,,,,,,,,,,,,,,,,,,,,,,,,,,,,245.5,1.5,
236,,choice,,html-keyboard-response,236,150220,0.0-1.0-48.0-0.0-0.0,0,0,3,,270.0,,,51.0,46.0,46.0,2000.0,1000.0,0.0,1.0,0.0,40-60,,0.0,seashell,telescope,40.0,60.0,seashell1,telescope12,40.0,40.0,Aseashe34.jpg,Junior Land and Sky Telescope.jpg,/static/Category_learning/Stimuli/Experimental_stims/seashell/Aseashe34.jpg,/static/Category_learning/Stimuli/Experimental_stims/telescope/Junior Land and Sky Telescope.jpg,0.0,telescope,seashell,60.0,40.0,telescope12,seashell1,40.0,40.0,0.0,245.77,0.27,
237,,confirmation,,html-keyboard-response,237,151455,0.0-1.0-48.0-0.0-1.0-0.0,0,0,3,,,,,,46.0,,,,,,,,,,,,,,,,,,,,,,,,,,,,,,,,247.0,1.23,
238,,isi,,html-keyboard-response,238,151562,0.0-1.0-48.0-0.0-2.0,0,0,3,,,,,,,,,,,,,,,,,,,,,,,,,,,,,,,,,,,,,,249.0,2.0,
239,,feedback,,html-keyboard-response,239,152568,0.0-1.0-48.0-0.0-3.0-0.0,0,0,3,,,,,,46.0,,,,,,,,,,,,,,,,,,,,,,,,,,,,,,,,250.0,1.0,
240,,iti,,html-keyboard-response,240,152673,0.0-1.0-48.0-0.0-5.0,0,0,3,,,,,,,,,,,,,,,,,,,,,,,,,,,,,,,,,,,,,,251.0,1.0,
241,,choice,,html-keyboard-response,241,153180,0.0-1.0-49.0-0.0-0.0,0,0,3,,503.0,,,51.0,47.0,47.0,2000.0,1000.0,0.0,1.0,0.0,20-40,,1.0,small table,hat,40.0,20.0,small table2,hat7,60.0,20.0,Atable126.jpg,ASTRHATFL.jpg,/static/Category_learning/Stimuli/Experimental_stims/small table/Atable126.jpg,/static/Category_learning/Stimuli/Experimental_stims/hat/ASTRHATFL.jpg,0.0,hat,small table,20.0,40.0,hat7,small table2,20.0,60.0,0.0,251.503,0.503,
242,,confirmation,,html-keyboard-response,242,154184,0.0-1.0-49.0-0.0-1.0-0.0,0,0,3,,,,,,47.0,,,,,,,,,,,,,,,,,,,,,,,,,,,,,,,,252.5,0.997,
243,,isi,,html-keyboard-response,243,154292,0.0-1.0-49.0-0.0-2.0,0,0,3,,,,,,,,,,,,,,,,,,,,,,,,,,,,,,,,,,,,,,254.5,2.0,
244,,feedback,,html-keyboard-response,244,155301,0.0-1.0-49.0-0.0-3.0-0.0,0,0,3,,,,,,47.0,,,,,,,,,,,,,,,,,,,,,,,,,,,,,,,,255.5,1.0,
245,,iti,,html-keyboard-response,245,155406,0.0-1.0-49.0-0.0-5.0,0,0,3,,,,,,,,,,,,,,,,,,,,,,,,,,,,,,,,,,,,,,256.5,1.0,
246,,choice,,html-keyboard-response,246,155414,0.0-1.0-50.0-0.0-0.0,0,0,3,,2.0,,,51.0,48.0,48.0,1000.0,1500.0,0.0,1.0,0.0,20-60,,1.0,tape,hammer,60.0,20.0,tape2,hammer10,40.0,40.0,Tape_Dispenser.jpg,Tabla Hammer.JPG,/static/Category_learning/Stimuli/Experimental_stims/tape/Tape_Dispenser.jpg,/static/Category_learning/Stimuli/Experimental_stims/hammer/Tabla Hammer.JPG,0.0,hammer,tape,20.0,60.0,hammer10,tape2,40.0,40.0,0.0,256.502,0.002,
247,,confirmation,,html-keyboard-response,247,156922,0.0-1.0-50.0-0.0-1.0-0.0,0,0,3,,,,,,48.0,,,,,,,,,,,,,,,,,,,,,,,,,,,,,,,,258.0,1.498,
248,,isi,,html-keyboard-response,248,157025,0.0-1.0-50.0-0.0-2.0,0,0,3,,,,,,,,,,,,,,,,,,,,,,,,,,,,,,,,,,,,,,259.0,1.0,
249,,feedback,,html-keyboard-response,249,158030,0.0-1.0-50.0-0.0-3.0-0.0,0,0,3,,,,,,48.0,,,,,,,,,,,,,,,,,,,,,,,,,,,,,,,,260.0,1.0,
250,,iti,,html-keyboard-response,250,158135,0.0-1.0-50.0-0.0-5.0,0,0,3,,,,,,,,,,,,,,,,,,,,,,,,,,,,,,,,,,,,,,261.5,1.5,
251,,choice,,html-keyboard-response,251,158341,0.0-1.0-51.0-0.0-0.0,0,0,3,,201.0,,,51.0,49.0,49.0,1500.0,1500.0,0.0,1.0,1.0,20-20,1.0,,hammer,hammer,20.0,20.0,hammer11,hammer10,0.0,40.0,8oz-hammer-copy.jpg,Tabla Hammer.JPG,/static/Category_learning/Stimuli/Experimental_stims/hammer/8oz-hammer-copy.jpg,/static/Category_learning/Stimuli/Experimental_stims/hammer/Tabla Hammer.JPG,0.0,hammer,hammer,20.0,20.0,hammer10,hammer11,40.0,0.0,0.0,261.701,0.201,
252,,confirmation,,html-keyboard-response,252,159646,0.0-1.0-51.0-0.0-1.0-0.0,0,0,3,,,,,,49.0,,,,,,,,,,,,,,,,,,,,,,,,,,,,,,,,263.0,1.299,
253,,isi,,html-keyboard-response,253,159753,0.0-1.0-51.0-0.0-2.0,0,0,3,,,,,,,,,,,,,,,,,,,,,,,,,,,,,,,,,,,,,,264.5,1.5,
254,,feedback,,html-keyboard-response,254,160758,0.0-1.0-51.0-0.0-3.0-0.0,0,0,3,,,,,,49.0,,,,,,,,,,,,,,,,,,,,,,,,,,,,,,,,265.5,1.0,
255,,iti,,html-keyboard-response,255,160866,0.0-1.0-51.0-0.0-5.0,0,0,3,,,,,,,,,,,,,,,,,,,,,,,,,,,,,,,,,,,,,,267.0,1.5,
256,,choice,,html-keyboard-response,256,161157,0.0-1.0-52.0-0.0-0.0,0,0,3,,288.0,,,51.0,50.0,50.0,2000.0,1000.0,0.0,1.0,1.0,20-20,1.0,,hat,hat,20.0,20.0,hat4,hat7,20.0,20.0,JS370.jpg,ASTRHATFL.jpg,/static/Category_learning/Stimuli/Experimental_stims/hat/JS370.jpg,/static/Category_learning/Stimuli/Experimental_stims/hat/ASTRHATFL.jpg,0.0,hat,hat,20.0,20.0,hat7,hat4,20.0,20.0,0.0,267.288,0.288,
257,,confirmation,,html-keyboard-response,257,162377,0.0-1.0-52.0-0.0-1.0-0.0,0,0,3,,,,,,50.0,,,,,,,,,,,,,,,,,,,,,,,,,,,,,,,,268.5,1.212,
258,,isi,,html-keyboard-response,258,162481,0.0-1.0-52.0-0.0-2.0,0,0,3,,,,,,,,,,,,,,,,,,,,,,,,,,,,,,,,,,,,,,270.5,2.0,
259,,feedback,,html-keyboard-response,259,163488,0.0-1.0-52.0-0.0-3.0-0.0,0,0,3,,,,,,50.0,,,,,,,,,,,,,,,,,,,,,,,,,,,,,,,,271.5,1.0,
260,,iti,,html-keyboard-response,260,163597,0.0-1.0-52.0-0.0-5.0,0,0,3,,,,,,,,,,,,,,,,,,,,,,,,,,,,,,,,,,,,,,272.5,1.0,
261,,choice,,html-keyboard-response,261,163645,0.0-1.0-53.0-0.0-0.0,0,0,3,,44.0,,,51.0,51.0,51.0,3500.0,1500.0,0.0,1.0,0.0,20-80,,1.0,bench,frame,80.0,20.0,bench6,frame7,60.0,20.0,26370121.thl.jpg,AFRAME152.jpg,/static/Category_learning/Stimuli/Experimental_stims/bench/26370121.thl.jpg,/static/Category_learning/Stimuli/Experimental_stims/frame/AFRAME152.jpg,0.0,frame,bench,20.0,80.0,frame7,bench6,20.0,60.0,0.0,272.544,0.044,
262,,confirmation,,html-keyboard-response,262,165108,0.0-1.0-53.0-0.0-1.0-0.0,0,0,3,,,,,,51.0,,,,,,,,,,,,,,,,,,,,,,,,,,,,,,,,274.0,1.456,
263,,isi,,html-keyboard-response,263,165215,0.0-1.0-53.0-0.0-2.0,0,0,3,,,,,,,,,,,,,,,,,,,,,,,,,,,,,,,,,,,,,,277.5,3.5,
264,,feedback,,html-keyboard-response,264,166221,0.0-1.0-53.0-0.0-3.0-0.0,0,0,3,,,,,,51.0,,,,,,,,,,,,,,,,,,,,,,,,,,,,,,,,278.5,1.0,
265,,iti,,html-keyboard-response,265,166326,0.0-1.0-53.0-0.0-5.0,0,0,3,,,,,,,,,,,,,,,,,,,,,,,,,,,,,,,,,,,,,,280.0,1.5,
266,,choice,,html-keyboard-response,266,166711,0.0-1.0-54.0-0.0-0.0,0,0,3,,380.0,,,51.0,52.0,52.0,1000.0,1000.0,0.0,1.0,0.0,20-80,,1.0,bench,motorcycle,80.0,20.0,bench5,motorcycle7,60.0,20.0,APARKBEN8.jpg,MotoSmall.jpg,/static/Category_learning/Stimuli/Experimental_stims/bench/APARKBEN8.jpg,/static/Category_learning/Stimuli/Experimental_stims/motorcycle/MotoSmall.jpg,0.0,motorcycle,bench,20.0,80.0,motorcycle7,bench5,20.0,60.0,0.0,280.38,0.38,
267,,confirmation,,html-keyboard-response,267,167837,0.0-1.0-54.0-0.0-1.0-0.0,0,0,3,,,,,,52.0,,,,,,,,,,,,,,,,,,,,,,,,,,,,,,,,281.5,1.12,
268,,isi,,html-keyboard-response,268,167945,0.0-1.0-54.0-0.0-2.0,0,0,3,,,,,,,,,,,,,,,,,,,,,,,,,,,,,,,,,,,,,,282.5,1.0,
269,,feedback,,html-keyboard-response,269,168958,0.0-1.0-54.0-0.0-3.0-0.0,0,0,3,,,,,,52.0,,,,,,,,,,,,,,,,,,,,,,,,,,,,,,,,283.5,1.0,
270,,iti,,html-keyboard-response,270,169065,0.0-1.0-54.0-0.0-5.0,0,0,3,,,,,,,,,,,,,,,,,,,,,,,,,,,,,,,,,,,,,,284.5,1.0,
271,,choice,,html-keyboard-response,271,169350,0.0-1.0-55.0-0.0-0.0,0,0,3,,281.0,,,51.0,53.0,53.0,2000.0,2000.0,0.0,1.0,0.0,60-60,,,stool,yarn,60.0,60.0,stool9,yarn9,60.0,40.0,ASTOOL7.jpg,Aballofyarn26.jpg,/static/Category_learning/Stimuli/Experimental_stims/stool/ASTOOL7.jpg,/static/Category_learning/Stimuli/Experimental_stims/yarn/Aballofyarn26.jpg,0.0,yarn,stool,60.0,60.0,yarn9,stool9,40.0,60.0,0.0,284.781,0.281,
272,,confirmation,,html-keyboard-response,272,170579,0.0-1.0-55.0-0.0-1.0-0.0,0,0,3,,,,,,53.0,,,,,,,,,,,,,,,,,,,,,,,,,,,,,,,,286.0,1.219,
273,,isi,,html-keyboard-response,273,170687,0.0-1.0-55.0-0.0-2.0,0,0,3,,,,,,,,,,,,,,,,,,,,,,,,,,,,,,,,,,,,,,288.0,2.0,
274,,feedback,,html-keyboard-response,274,171696,0.0-1.0-55.0-0.0-3.0-0.0,0,0,3,,,,,,53.0,,,,,,,,,,,,,,,,,,,,,,,,,,,,,,,,289.0,1.0,
275,,iti,,html-keyboard-response,275,171803,0.0-1.0-55.0-0.0-5.0,0,0,3,,,,,,,,,,,,,,,,,,,,,,,,,,,,,,,,,,,,,,291.0,2.0,
276,,choice,,html-keyboard-response,276,172224,0.0-1.0-56.0-0.0-0.0,0,0,3,,417.0,,,51.0,54.0,54.0,1000.0,1000.0,0.0,1.0,0.0,60-80,,0.0,stool,bench,60.0,80.0,stool7,bench7,60.0,100.0,ASTOOL25.jpg,ACONBENCH.jpg,/static/Category_learning/Stimuli/Experimental_stims/stool/ASTOOL25.jpg,/static/Category_learning/Stimuli/Experimental_stims/bench/ACONBENCH.jpg,0.0,bench,stool,80.0,60.0,bench7,stool7,100.0,60.0,0.0,291.417,0.417,
277,,confirmation,,html-keyboard-response,277,173316,0.0-1.0-56.0-0.0-1.0-0.0,0,0,3,,,,,,54.0,,,,,,,,,,,,,,,,,,,,,,,,,,,,,,,,292.5,1.083,
278,,isi,,html-keyboard-response,278,173421,0.0-1.0-56.0-0.0-2.0,0,0,3,,,,,,,,,,,,,,,,,,,,,,,,,,,,,,,,,,,,,,293.5,1.0,
279,,feedback,,html-keyboard-response,279,174426,0.0-1.0-56.0-0.0-3.0-0.0,0,0,3,,,,,,54.0,,,,,,,,,,,,,,,,,,,,,,,,,,,,,,,,294.5,1.0,
280,,iti,,html-keyboard-response,280,174531,0.0-1.0-56.0-0.0-5.0,0,0,3,,,,,,,,,,,,,,,,,,,,,,,,,,,,,,,,,,,,,,295.5,1.0,
281,,choice,,html-keyboard-response,281,174959,0.0-1.0-57.0-0.0-0.0,0,0,3,,423.0,,,51.0,55.0,55.0,1000.0,1000.0,0.0,1.0,1.0,60-60,1.0,,yarn,yarn,60.0,60.0,yarn8,yarn9,40.0,40.0,smonlineyarn-285x250.jpg,Aballofyarn26.jpg,/static/Category_learning/Stimuli/Experimental_stims/yarn/smonlineyarn-285x250.jpg,/static/Category_learning/Stimuli/Experimental_stims/yarn/Aballofyarn26.jpg,0.0,yarn,yarn,60.0,60.0,yarn9,yarn8,40.0,40.0,0.0,295.923,0.423,
282,,confirmation,,html-keyboard-response,282,176044,0.0-1.0-57.0-0.0-1.0-0.0,0,0,3,,,,,,55.0,,,,,,,,,,,,,,,,,,,,,,,,,,,,,,,,297.0,1.077,
283,,isi,,html-keyboard-response,283,176148,0.0-1.0-57.0-0.0-2.0,0,0,3,,,,,,,,,,,,,,,,,,,,,,,,,,,,,,,,,,,,,,298.0,1.0,
284,,feedback,,html-keyboard-response,284,177152,0.0-1.0-57.0-0.0-3.0-0.0,0,0,3,,,,,,55.0,,,,,,,,,,,,,,,,,,,,,,,,,,,,,,,,299.0,1.0,
285,,iti,,html-keyboard-response,285,177257,0.0-1.0-57.0-0.0-5.0,0,0,3,,,,,,,,,,,,,,,,,,,,,,,,,,,,,,,,,,,,,,300.0,1.0,
286,,choice,,html-keyboard-response,286,177363,0.0-1.0-58.0-0.0-0.0,0,0,3,,98.0,,,51.0,56.0,56.0,3000.0,1000.0,0.0,1.0,0.0,40-60,,1.0,train,poker card,60.0,40.0,train11,poker card6,80.0,40.0,train1.jpg,22864212.thl.jpg,/static/Category_learning/Stimuli/Experimental_stims/train/train1.jpg,/static/Category_learning/Stimuli/Experimental_stims/poker card/22864212.thl.jpg,0.0,poker card,train,40.0,60.0,poker card6,train11,40.0,80.0,0.0,300.098,0.098,
287,,confirmation,,html-keyboard-response,287,178769,0.0-1.0-58.0-0.0-1.0-0.0,0,0,3,,,,,,56.0,,,,,,,,,,,,,,,,,,,,,,,,,,,,,,,,301.5,1.402,
288,,isi,,html-keyboard-response,288,178874,0.0-1.0-58.0-0.0-2.0,0,0,3,,,,,,,,,,,,,,,,,,,,,,,,,,,,,,,,,,,,,,304.5,3.0,
289,,feedback,,html-keyboard-response,289,179879,0.0-1.0-58.0-0.0-3.0-0.0,0,0,3,,,,,,56.0,,,,,,,,,,,,,,,,,,,,,,,,,,,,,,,,305.5,1.0,
290,,iti,,html-keyboard-response,290,179984,0.0-1.0-58.0-0.0-5.0,0,0,3,,,,,,,,,,,,,,,,,,,,,,,,,,,,,,,,,,,,,,306.5,1.0,
291,,choice,,html-keyboard-response,291,180081,0.0-1.0-59.0-0.0-0.0,0,0,3,,93.0,,,51.0,57.0,57.0,1000.0,1500.0,0.0,1.0,0.0,80-80,,,door knob,baby carriage,80.0,80.0,door knob7,baby carriage9,60.0,100.0,doorknob2.jpg,Antique baby Carriage 7.jpg,/static/Category_learning/Stimuli/Experimental_stims/door knob/doorknob2.jpg,/static/Category_learning/Stimuli/Experimental_stims/baby carriage/Antique baby Carriage 7.jpg,0.0,baby carriage,door knob,80.0,80.0,baby carriage9,door knob7,100.0,60.0,0.0,306.593,0.093,
292,,confirmation,,html-keyboard-response,292,181495,0.0-1.0-59.0-0.0-1.0-0.0,0,0,3,,,,,,57.0,,,,,,,,,,,,,,,,,,,,,,,,,,,,,,,,308.0,1.407,
293,,isi,,html-keyboard-response,293,181600,0.0-1.0-59.0-0.0-2.0,0,0,3,,,,,,,,,,,,,,,,,,,,,,,,,,,,,,,,,,,,,,309.0,1.0,
294,,feedback,,html-keyboard-response,294,182607,0.0-1.0-59.0-0.0-3.0-0.0,0,0,3,,,,,,57.0,,,,,,,,,,,,,,,,,,,,,,,,,,,,,,,,310.0,1.0,
295,,iti,,html-keyboard-response,295,182711,0.0-1.0-59.0-0.0-5.0,0,0,3,,,,,,,,,,,,,,,,,,,,,,,,,,,,,,,,,,,,,,311.5,1.5,
296,,choice,,html-keyboard-response,296,183111,0.0-1.0-60.0-0.0-0.0,0,0,3,,396.0,,,51.0,58.0,58.0,1500.0,1000.0,0.0,1.0,1.0,40-40,1.0,,poker card,poker card,40.0,40.0,poker card12,poker card6,20.0,40.0,22865676.thl.jpg,22864212.thl.jpg,/static/Category_learning/Stimuli/Experimental_stims/poker card/22865676.thl.jpg,/static/Category_learning/Stimuli/Experimental_stims/poker card/22864212.thl.jpg,0.0,poker card,poker card,40.0,40.0,poker card6,poker card12,40.0,20.0,0.0,311.896,0.396,
297,,confirmation,,html-keyboard-response,297,184222,0.0-1.0-60.0-0.0-1.0-0.0,0,0,3,,,,,,58.0,,,,,,,,,,,,,,,,,,,,,,,,,,,,,,,,313.0,1.104,
298,,isi,,html-keyboard-response,298,184330,0.0-1.0-60.0-0.0-2.0,0,0,3,,,,,,,,,,,,,,,,,,,,,,,,,,,,,,,,,,,,,,314.5,1.5,
299,,feedback,,html-keyboard-response,299,185338,0.0-1.0-60.0-0.0-3.0-0.0,0,0,3,,,,,,58.0,,,,,,,,,,,,,,,,,,,,,,,,,,,,,,,,315.5,1.0,
300,,iti,,html-keyboard-response,300,185445,0.0-1.0-60.0-0.0-5.0,0,0,3,,,,,,,,,,,,,,,,,,,,,,,,,,,,,,,,,,,,,,316.5,1.0,
301,,choice,,html-keyboard-response,301,185815,0.0-1.0-61.0-0.0-0.0,0,0,3,,365.0,,,51.0,59.0,59.0,3500.0,1000.0,0.0,1.0,0.0,60-80,,0.0,watch,bench,60.0,80.0,watch9,bench10,40.0,100.0,mens-diamond-watches-euro-48733-ab.jpg,APARKBE16.jpg,/static/Category_learning/Stimuli/Experimental_stims/watch/mens-diamond-watches-euro-48733-ab.jpg,/static/Category_learning/Stimuli/Experimental_stims/bench/APARKBE16.jpg,0.0,bench,watch,80.0,60.0,bench10,watch9,100.0,40.0,0.0,316.865,0.365,
302,,confirmation,,html-keyboard-response,302,186956,0.0-1.0-61.0-0.0-1.0-0.0,0,0,3,,,,,,59.0,,,,,,,,,,,,,,,,,,,,,,,,,,,,,,,,318.0,1.135,
303,,isi,,html-keyboard-response,303,187064,0.0-1.0-61.0-0.0-2.0,0,0,3,,,,,,,,,,,,,,,,,,,,,,,,,,,,,,,,,,,,,,321.5,3.5,
304,,feedback,,html-keyboard-response,304,188073,0.0-1.0-61.0-0.0-3.0-0.0,0,0,3,,,,,,59.0,,,,,,,,,,,,,,,,,,,,,,,,,,,,,,,,322.5,1.0,
305,,iti,,html-keyboard-response,305,188179,0.0-1.0-61.0-0.0-5.0,0,0,3,,,,,,,,,,,,,,,,,,,,,,,,,,,,,,,,,,,,,,323.5,1.0,
306,,choice,,html-keyboard-response,306,188436,0.0-1.0-62.0-0.0-0.0,0,0,3,,254.0,,,50.0,60.0,60.0,1500.0,1000.0,0.0,1.0,0.0,40-40,,,pen,necklace,40.0,40.0,pen8,necklace12,60.0,40.0,1383_1749_popup copy.jpg,necklascenew07.jpg,/static/Category_learning/Stimuli/Experimental_stims/pen/1383_1749_popup copy.jpg,/static/Category_learning/Stimuli/Experimental_stims/necklace/necklascenew07.jpg,1.0,pen,necklace,40.0,40.0,pen8,necklace12,60.0,40.0,0.0,323.754,0.254,
307,,confirmation,,html-keyboard-response,307,189692,0.0-1.0-62.0-0.0-1.0-0.0,0,0,3,,,,,,60.0,,,,,,,,,,,,,,,,,,,,,,,,,,,,,,,,325.0,1.246,
308,,isi,,html-keyboard-response,308,189797,0.0-1.0-62.0-0.0-2.0,0,0,3,,,,,,,,,,,,,,,,,,,,,,,,,,,,,,,,,,,,,,326.5,1.5,
309,,feedback,,html-keyboard-response,309,190807,0.0-1.0-62.0-0.0-3.0-0.0,0,0,3,,,,,,60.0,,,,,,,,,,,,,,,,,,,,,,,,,,,,,,,,327.5,1.0,
310,,iti,,html-keyboard-response,310,190915,0.0-1.0-62.0-0.0-5.0,0,0,3,,,,,,,,,,,,,,,,,,,,,,,,,,,,,,,,,,,,,,328.5,1.0,
311,,choice,,html-keyboard-response,311,191097,0.0-1.0-63.0-0.0-0.0,0,0,3,,178.0,,,50.0,61.0,61.0,1000.0,1000.0,0.0,1.0,0.0,20-60,,1.0,train,hammer,60.0,20.0,train15,hammer14,40.0,40.0,master-TD006.jpg,hammer.jpg,/static/Category_learning/Stimuli/Experimental_stims/train/master-TD006.jpg,/static/Category_learning/Stimuli/Experimental_stims/hammer/hammer.jpg,1.0,train,hammer,60.0,20.0,train15,hammer14,40.0,40.0,0.0,328.678,0.178,
312,,confirmation,,html-keyboard-response,312,192426,0.0-1.0-63.0-0.0-1.0-0.0,0,0,3,,,,,,61.0,,,,,,,,,,,,,,,,,,,,,,,,,,,,,,,,330.0,1.322,
313,,isi,,html-keyboard-response,313,192532,0.0-1.0-63.0-0.0-2.0,0,0,3,,,,,,,,,,,,,,,,,,,,,,,,,,,,,,,,,,,,,,331.0,1.0,
314,,feedback,,html-keyboard-response,314,193540,0.0-1.0-63.0-0.0-3.0-0.0,0,0,3,,,,,,61.0,,,,,,,,,,,,,,,,,,,,,,,,,,,,,,,,332.0,1.0,
315,,iti,,html-keyboard-response,315,193648,0.0-1.0-63.0-0.0-5.0,0,0,3,,,,,,,,,,,,,,,,,,,,,,,,,,,,,,,,,,,,,,333.0,1.0,
316,,choice,,html-keyboard-response,316,193927,0.0-1.0-64.0-0.0-0.0,0,0,3,,274.0,,,50.0,62.0,62.0,1000.0,1000.0,0.0,1.0,0.0,20-80,,1.0,dresser,key chain,80.0,20.0,dresser13,key chain7,80.0,40.0,ADRESSE70.jpg,keychain-gentoo-linux.jpg,/static/Category_learning/Stimuli/Experimental_stims/dresser/ADRESSE70.jpg,/static/Category_learning/Stimuli/Experimental_stims/key chain/keychain-gentoo-linux.jpg,1.0,dresser,key chain,80.0,20.0,dresser13,key chain7,80.0,40.0,0.0,333.274,0.274,
317,,confirmation,,html-keyboard-response,317,195158,0.0-1.0-64.0-0.0-1.0-0.0,0,0,3,,,,,,62.0,,,,,,,,,,,,,,,,,,,,,,,,,,,,,,,,334.5,1.226,
318,,isi,,html-keyboard-response,318,195267,0.0-1.0-64.0-0.0-2.0,0,0,3,,,,,,,,,,,,,,,,,,,,,,,,,,,,,,,,,,,,,,335.5,1.0,
319,,feedback,,html-keyboard-response,319,196273,0.0-1.0-64.0-0.0-3.0-0.0,0,0,3,,,,,,62.0,,,,,,,,,,,,,,,,,,,,,,,,,,,,,,,,336.5,1.0,
320,,iti,,html-keyboard-response,320,196379,0.0-1.0-64.0-0.0-5.0,0,0,3,,,,,,,,,,,,,,,,,,,,,,,,,,,,,,,,,,,,,,337.5,1.0,
321,,choice,,html-keyboard-response,321,196503,0.0-1.0-65.0-0.0-0.0,0,0,3,,120.0,,,50.0,63.0,63.0,1500.0,3500.0,0.0,1.0,1.0,60-60,1.0,,train,train,60.0,60.0,train6,train15,40.0,40.0,train9.jpg,master-TD006.jpg,/static/Category_learning/Stimuli/Experimental_stims/train/train9.jpg,/static/Category_learning/Stimuli/Experimental_stims/train/master-TD006.jpg,1.0,train,train,60.0,60.0,train6,train15,40.0,40.0,0.0,337.62,0.12,
322,,confirmation,,html-keyboard-response,322,197890,0.0-1.0-65.0-0.0-1.0-0.0,0,0,3,,,,,,63.0,,,,,,,,,,,,,,,,,,,,,,,,,,,,,,,,339.0,1.38,
323,,isi,,html-keyboard-response,323,197992,0.0-1.0-65.0-0.0-2.0,0,0,3,,,,,,,,,,,,,,,,,,,,,,,,,,,,,,,,,,,,,,340.5,1.5,
324,,feedback,,html-keyboard-response,324,198998,0.0-1.0-65.0-0.0-3.0-0.0,0,0,3,,,,,,63.0,,,,,,,,,,,,,,,,,,,,,,,,,,,,,,,,341.5,1.0,
325,,iti,,html-keyboard-response,325,199105,0.0-1.0-65.0-0.0-5.0,0,0,3,,,,,,,,,,,,,,,,,,,,,,,,,,,,,,,,,,,,,,345.0,3.5,
326,,choice,,html-keyboard-response,326,199360,0.0-1.0-66.0-0.0-0.0,0,0,3,,250.0,,,50.0,64.0,64.0,1500.0,2000.0,0.0,1.0,0.0,40-80,,0.0,sofa,fan,40.0,80.0,sofa9,fan15,20.0,60.0,ALOVSEAT9.jpg,n_hsf.jpg,/static/Category_learning/Stimuli/Experimental_stims/sofa/ALOVSEAT9.jpg,/static/Category_learning/Stimuli/Experimental_stims/fan/n_hsf.jpg,1.0,sofa,fan,40.0,80.0,sofa9,fan15,20.0,60.0,0.0,345.25,0.25,
327,,confirmation,,html-keyboard-response,327,200619,0.0-1.0-66.0-0.0-1.0-0.0,0,0,3,,,,,,64.0,,,,,,,,,,,,,,,,,,,,,,,,,,,,,,,,346.5,1.25,
328,,isi,,html-keyboard-response,328,200726,0.0-1.0-66.0-0.0-2.0,0,0,3,,,,,,,,,,,,,,,,,,,,,,,,,,,,,,,,,,,,,,348.0,1.5,
329,,feedback,,html-keyboard-response,329,201731,0.0-1.0-66.0-0.0-3.0-0.0,0,0,3,,,,,,64.0,,,,,,,,,,,,,,,,,,,,,,,,,,,,,,,,349.0,1.0,
330,,iti,,html-keyboard-response,330,201835,0.0-1.0-66.0-0.0-5.0,0,0,3,,,,,,,,,,,,,,,,,,,,,,,,,,,,,,,,,,,,,,351.0,2.0,
331,,block_over,,html-keyboard-response,331,202216,0.0-1.0-66.0-0.0-7.0-0.0,0,0,3,,351.0,,,50.0,64.0,,,,,,,,,,,,,,,,,,,,,,,,,,,,,,,,,,
332,,start_run,,html-keyboard-response,332,203577,0.0-1.0-66.0-0.0-7.0-1.0,0,0,3,,1359.0,,,84.0,,,,,,,,,,,,,,,,,,,,,,,,,,,,,,,,,,,
333,,choice,,html-keyboard-response,333,204014,0.0-1.0-67.0-0.0-0.0,0,0,3,,433.0,,,50.0,65.0,65.0,3500.0,1000.0,0.0,2.0,0.0,20-60,,1.0,telescope,key chain,60.0,20.0,telescope4,key chain14,60.0,0.0,TELESCOPE_BLACK_GOOD_SMALL.jpg,Jif Keychain 285.jpg,/static/Category_learning/Stimuli/Experimental_stims/telescope/TELESCOPE_BLACK_GOOD_SMALL.jpg,/static/Category_learning/Stimuli/Experimental_stims/key chain/Jif Keychain 285.jpg,1.0,telescope,key chain,60.0,20.0,telescope4,key chain14,60.0,0.0,0.0,0.433,0.433,
334,,confirmation,,html-keyboard-response,334,205085,0.0-1.0-67.0-0.0-1.0-0.0,0,0,3,,,,,,65.0,,,,,,,,,,,,,,,,,,,,,,,,,,,,,,,,1.5,1.067,
335,,isi,,html-keyboard-response,335,205193,0.0-1.0-67.0-0.0-2.0,0,0,3,,,,,,,,,,,,,,,,,,,,,,,,,,,,,,,,,,,,,,5.0,3.5,
336,,feedback,,html-keyboard-response,336,206202,0.0-1.0-67.0-0.0-3.0-0.0,0,0,3,,,,,,65.0,,,,,,,,,,,,,,,,,,,,,,,,,,,,,,,,6.0,1.0,
337,,iti,,html-keyboard-response,337,206307,0.0-1.0-67.0-0.0-5.0,0,0,3,,,,,,,,,,,,,,,,,,,,,,,,,,,,,,,,,,,,,,7.0,1.0,
338,,choice,,html-keyboard-response,338,207190,0.0-1.0-68.0-0.0-0.0,0,0,3,,879.0,,,50.0,66.0,66.0,2000.0,1000.0,0.0,2.0,0.0,20-60,,0.0,key chain,yarn,20.0,60.0,key chain3,yarn2,20.0,80.0,Keychain_Voice_Recorder.jpg,Aballofyarn66.jpg,/static/Category_learning/Stimuli/Experimental_stims/key chain/Keychain_Voice_Recorder.jpg,/static/Category_learning/Stimuli/Experimental_stims/yarn/Aballofyarn66.jpg,1.0,key chain,yarn,20.0,60.0,key chain3,yarn2,20.0,80.0,0.0,7.879,0.879,
339,,confirmation,,html-keyboard-response,339,207814,0.0-1.0-68.0-0.0-1.0-0.0,0,0,3,,,,,,66.0,,,,,,,,,,,,,,,,,,,,,,,,,,,,,,,,8.5,0.621,
340,,isi,,html-keyboard-response,340,207917,0.0-1.0-68.0-0.0-2.0,0,0,3,,,,,,,,,,,,,,,,,,,,,,,,,,,,,,,,,,,,,,10.5,2.0,
341,,feedback,,html-keyboard-response,341,208922,0.0-1.0-68.0-0.0-3.0-0.0,0,0,3,,,,,,66.0,,,,,,,,,,,,,,,,,,,,,,,,,,,,,,,,11.5,1.0,
342,,iti,,html-keyboard-response,342,209029,0.0-1.0-68.0-0.0-5.0,0,0,3,,,,,,,,,,,,,,,,,,,,,,,,,,,,,,,,,,,,,,12.5,1.0,
343,,choice,,html-keyboard-response,343,209446,0.0-1.0-69.0-0.0-0.0,0,0,3,,413.0,,,50.0,67.0,67.0,1000.0,1000.0,0.0,2.0,0.0,40-60,,0.0,small table,watch,40.0,60.0,small table15,watch2,60.0,60.0,ATABLE20.jpg,AL0004-03E_MED.jpg,/static/Category_learning/Stimuli/Experimental_stims/small table/ATABLE20.jpg,/static/Category_learning/Stimuli/Experimental_stims/watch/AL0004-03E_MED.jpg,1.0,small table,watch,40.0,60.0,small table15,watch2,60.0,60.0,0.0,12.913,0.413,
344,,confirmation,,html-keyboard-response,344,210538,0.0-1.0-69.0-0.0-1.0-0.0,0,0,3,,,,,,67.0,,,,,,,,,,,,,,,,,,,,,,,,,,,,,,,,14.0,1.087,
345,,isi,,html-keyboard-response,345,210643,0.0-1.0-69.0-0.0-2.0,0,0,3,,,,,,,,,,,,,,,,,,,,,,,,,,,,,,,,,,,,,,15.0,1.0,
346,,feedback,,html-keyboard-response,346,211650,0.0-1.0-69.0-0.0-3.0-0.0,0,0,3,,,,,,67.0,,,,,,,,,,,,,,,,,,,,,,,,,,,,,,,,16.0,1.0,
347,,iti,,html-keyboard-response,347,211754,0.0-1.0-69.0-0.0-5.0,0,0,3,,,,,,,,,,,,,,,,,,,,,,,,,,,,,,,,,,,,,,17.0,1.0,
348,,choice,,html-keyboard-response,348,211813,0.0-1.0-70.0-0.0-0.0,0,0,3,,54.0,,,50.0,68.0,68.0,3500.0,1000.0,0.0,2.0,0.0,40-60,,1.0,yarn,necklace,60.0,40.0,yarn11,necklace7,60.0,60.0,Aballofpinky2.jpg,Anecklace12.jpg,/static/Category_learning/Stimuli/Experimental_stims/yarn/Aballofpinky2.jpg,/static/Category_learning/Stimuli/Experimental_stims/necklace/Anecklace12.jpg,1.0,yarn,necklace,60.0,40.0,yarn11,necklace7,60.0,60.0,0.0,17.054,0.054,
349,,confirmation,,html-keyboard-response,349,213264,0.0-1.0-70.0-0.0-1.0-0.0,0,0,3,,,,,,68.0,,,,,,,,,,,,,,,,,,,,,,,,,,,,,,,,18.5,1.446,
350,,isi,,html-keyboard-response,350,213371,0.0-1.0-70.0-0.0-2.0,0,0,3,,,,,,,,,,,,,,,,,,,,,,,,,,,,,,,,,,,,,,22.0,3.5,
351,,feedback,,html-keyboard-response,351,214378,0.0-1.0-70.0-0.0-3.0-0.0,0,0,3,,,,,,68.0,,,,,,,,,,,,,,,,,,,,,,,,,,,,,,,,23.0,1.0,
352,,iti,,html-keyboard-response,352,214483,0.0-1.0-70.0-0.0-5.0,0,0,3,,,,,,,,,,,,,,,,,,,,,,,,,,,,,,,,,,,,,,24.0,1.0,
353,,choice,,html-keyboard-response,353,214536,0.0-1.0-71.0-0.0-0.0,0,0,3,,50.0,,,50.0,69.0,69.0,1500.0,1000.0,0.0,2.0,0.0,20-80,,1.0,bongo,hat,80.0,20.0,bongo10,hat3,60.0,0.0,22945915.thl.jpg,Astrawhat49.jpg,/static/Category_learning/Stimuli/Experimental_stims/bongo/22945915.thl.jpg,/static/Category_learning/Stimuli/Experimental_stims/hat/Astrawhat49.jpg,1.0,bongo,hat,80.0,20.0,bongo10,hat3,60.0,0.0,0.0,24.05,0.05,
354,,confirmation,,html-keyboard-response,354,215992,0.0-1.0-71.0-0.0-1.0-0.0,0,0,3,,,,,,69.0,,,,,,,,,,,,,,,,,,,,,,,,,,,,,,,,25.5,1.45,
355,,isi,,html-keyboard-response,355,216101,0.0-1.0-71.0-0.0-2.0,0,0,3,,,,,,,,,,,,,,,,,,,,,,,,,,,,,,,,,,,,,,27.0,1.5,
356,,feedback,,html-keyboard-response,356,217109,0.0-1.0-71.0-0.0-3.0-0.0,0,0,3,,,,,,69.0,,,,,,,,,,,,,,,,,,,,,,,,,,,,,,,,28.0,1.0,
357,,iti,,html-keyboard-response,357,217216,0.0-1.0-71.0-0.0-5.0,0,0,3,,,,,,,,,,,,,,,,,,,,,,,,,,,,,,,,,,,,,,29.0,1.0,
358,,choice,,html-keyboard-response,358,218028,0.0-1.0-72.0-0.0-0.0,0,0,3,,808.0,,,50.0,70.0,70.0,1500.0,1500.0,0.0,2.0,1.0,80-80,1.0,,bench,bench,80.0,80.0,bench7,bench10,100.0,100.0,ACONBENCH.jpg,APARKBE16.jpg,/static/Category_learning/Stimuli/Experimental_stims/bench/ACONBENCH.jpg,/static/Category_learning/Stimuli/Experimental_stims/bench/APARKBE16.jpg,1.0,bench,bench,80.0,80.0,bench7,bench10,100.0,100.0,0.0,29.808,0.808,
359,,confirmation,,html-keyboard-response,359,218728,0.0-1.0-72.0-0.0-1.0-0.0,0,0,3,,,,,,70.0,,,,,,,,,,,,,,,,,,,,,,,,,,,,,,,,30.5,0.692,
360,,isi,,html-keyboard-response,360,218834,0.0-1.0-72.0-0.0-2.0,0,0,3,,,,,,,,,,,,,,,,,,,,,,,,,,,,,,,,,,,,,,32.0,1.5,
361,,feedback,,html-keyboard-response,361,219838,0.0-1.0-72.0-0.0-3.0-0.0,0,0,3,,,,,,70.0,,,,,,,,,,,,,,,,,,,,,,,,,,,,,,,,33.0,1.0,
362,,iti,,html-keyboard-response,362,219947,0.0-1.0-72.0-0.0-5.0,0,0,3,,,,,,,,,,,,,,,,,,,,,,,,,,,,,,,,,,,,,,34.5,1.5,
363,,choice,,html-keyboard-response,363,220353,0.0-1.0-73.0-0.0-0.0,0,0,3,,402.0,,,50.0,71.0,71.0,1500.0,1000.0,0.0,2.0,1.0,60-60,1.0,,telescope,telescope,60.0,60.0,telescope4,telescope12,60.0,40.0,TELESCOPE_BLACK_GOOD_SMALL.jpg,Junior Land and Sky Telescope.jpg,/static/Category_learning/Stimuli/Experimental_stims/telescope/TELESCOPE_BLACK_GOOD_SMALL.jpg,/static/Category_learning/Stimuli/Experimental_stims/telescope/Junior Land and Sky Telescope.jpg,1.0,telescope,telescope,60.0,60.0,telescope4,telescope12,60.0,40.0,0.0,34.902,0.402,
364,,confirmation,,html-keyboard-response,364,221460,0.0-1.0-73.0-0.0-1.0-0.0,0,0,3,,,,,,71.0,,,,,,,,,,,,,,,,,,,,,,,,,,,,,,,,36.0,1.098,
365,,isi,,html-keyboard-response,365,221567,0.0-1.0-73.0-0.0-2.0,0,0,3,,,,,,,,,,,,,,,,,,,,,,,,,,,,,,,,,,,,,,37.5,1.5,
366,,feedback,,html-keyboard-response,366,222572,0.0-1.0-73.0-0.0-3.0-0.0,0,0,3,,,,,,71.0,,,,,,,,,,,,,,,,,,,,,,,,,,,,,,,,38.5,1.0,
367,,iti,,html-keyboard-response,367,222677,0.0-1.0-73.0-0.0-5.0,0,0,3,,,,,,,,,,,,,,,,,,,,,,,,,,,,,,,,,,,,,,39.5,1.0,
368,,choice,,html-keyboard-response,368,222961,0.0-1.0-74.0-0.0-0.0,0,0,3,,280.0,,,50.0,72.0,72.0,1000.0,2000.0,0.0,2.0,0.0,20-60,,0.0,microscope,telescope,20.0,60.0,microscope12,telescope14,0.0,80.0,usbdigitalmicroscope1_small1.jpg,T09748dt.jpg,/static/Category_learning/Stimuli/Experimental_stims/microscope/usbdigitalmicroscope1_small1.jpg,/static/Category_learning/Stimuli/Experimental_stims/telescope/T09748dt.jpg,1.0,microscope,telescope,20.0,60.0,microscope12,telescope14,0.0,80.0,0.0,39.78,0.28,
369,,confirmation,,html-keyboard-response,369,224191,0.0-1.0-74.0-0.0-1.0-0.0,0,0,3,,,,,,72.0,,,,,,,,,,,,,,,,,,,,,,,,,,,,,,,,41.0,1.22,
370,,isi,,html-keyboard-response,370,224297,0.0-1.0-74.0-0.0-2.0,0,0,3,,,,,,,,,,,,,,,,,,,,,,,,,,,,,,,,,,,,,,42.0,1.0,
371,,feedback,,html-keyboard-response,371,225302,0.0-1.0-74.0-0.0-3.0-0.0,0,0,3,,,,,,72.0,,,,,,,,,,,,,,,,,,,,,,,,,,,,,,,,43.0,1.0,
372,,iti,,html-keyboard-response,372,225410,0.0-1.0-74.0-0.0-5.0,0,0,3,,,,,,,,,,,,,,,,,,,,,,,,,,,,,,,,,,,,,,45.0,2.0,
373,,choice,,html-keyboard-response,373,225625,0.0-1.0-75.0-0.0-0.0,0,0,3,,210.0,,,50.0,73.0,73.0,1000.0,1000.0,0.0,2.0,0.0,20-80,,1.0,bench,hat,80.0,20.0,bench13,hat14,80.0,0.0,ABROWNBE4.jpg,Ahat136.jpg,/static/Category_learning/Stimuli/Experimental_stims/bench/ABROWNBE4.jpg,/static/Category_learning/Stimuli/Experimental_stims/hat/Ahat136.jpg,1.0,bench,hat,80.0,20.0,bench13,hat14,80.0,0.0,0.0,45.21,0.21,
374,,confirmation,,html-keyboard-response,374,226922,0.0-1.0-75.0-0.0-1.0-0.0,0,0,3,,,,,,73.0,,,,,,,,,,,,,,,,,,,,,,,,,,,,,,,,46.5,1.29,
375,,isi,,html-keyboard-response,375,227026,0.0-1.0-75.0-0.0-2.0,0,0,3,,,,,,,,,,,,,,,,,,,,,,,,,,,,,,,,,,,,,,47.5,1.0,
376,,feedback,,html-keyboard-response,376,228033,0.0-1.0-75.0-0.0-3.0-0.0,0,0,3,,,,,,73.0,,,,,,,,,,,,,,,,,,,,,,,,,,,,,,,,48.5,1.0,
377,,iti,,html-keyboard-response,377,228142,0.0-1.0-75.0-0.0-5.0,0,0,3,,,,,,,,,,,,,,,,,,,,,,,,,,,,,,,,,,,,,,49.5,1.0,
378,,choice,,html-keyboard-response,378,228320,0.0-1.0-76.0-0.0-0.0,0,0,3,,173.0,,,50.0,74.0,74.0,1500.0,1000.0,0.0,2.0,1.0,20-20,1.0,,microscope,microscope,20.0,20.0,microscope12,microscope15,0.0,40.0,usbdigitalmicroscope1_small1.jpg,Amicroscope23.jpg,/static/Category_learning/Stimuli/Experimental_stims/microscope/usbdigitalmicroscope1_small1.jpg,/static/Category_learning/Stimuli/Experimental_stims/microscope/Amicroscope23.jpg,1.0,microscope,microscope,20.0,20.0,microscope12,microscope15,0.0,40.0,0.0,49.673,0.173,
379,,confirmation,,html-keyboard-response,379,229653,0.0-1.0-76.0-0.0-1.0-0.0,0,0,3,,,,,,74.0,,,,,,,,,,,,,,,,,,,,,,,,,,,,,,,,51.0,1.327,
380,,isi,,html-keyboard-response,380,229759,0.0-1.0-76.0-0.0-2.0,0,0,3,,,,,,,,,,,,,,,,,,,,,,,,,,,,,,,,,,,,,,52.5,1.5,
381,,feedback,,html-keyboard-response,381,230768,0.0-1.0-76.0-0.0-3.0-0.0,0,0,3,,,,,,74.0,,,,,,,,,,,,,,,,,,,,,,,,,,,,,,,,53.5,1.0,
382,,iti,,html-keyboard-response,382,230876,0.0-1.0-76.0-0.0-5.0,0,0,3,,,,,,,,,,,,,,,,,,,,,,,,,,,,,,,,,,,,,,54.5,1.0,
383,,choice,,html-keyboard-response,383,231652,0.0-1.0-77.0-0.0-0.0,0,0,3,,772.0,,,50.0,75.0,75.0,1000.0,2000.0,0.0,2.0,0.0,20-20,,,motorcycle,hat,20.0,20.0,motorcycle6,hat13,40.0,0.0,motorcycle45364t4t.jpg,Ahatwithfeath.jpg,/static/Category_learning/Stimuli/Experimental_stims/motorcycle/motorcycle45364t4t.jpg,/static/Category_learning/Stimuli/Experimental_stims/hat/Ahatwithfeath.jpg,1.0,motorcycle,hat,20.0,20.0,motorcycle6,hat13,40.0,0.0,0.0,55.272,0.772,
384,,confirmation,,html-keyboard-response,384,232386,0.0-1.0-77.0-0.0-1.0-0.0,0,0,3,,,,,,75.0,,,,,,,,,,,,,,,,,,,,,,,,,,,,,,,,56.0,0.728,
385,,isi,,html-keyboard-response,385,232491,0.0-1.0-77.0-0.0-2.0,0,0,3,,,,,,,,,,,,,,,,,,,,,,,,,,,,,,,,,,,,,,57.0,1.0,
386,,feedback,,html-keyboard-response,386,233501,0.0-1.0-77.0-0.0-3.0-0.0,0,0,3,,,,,,75.0,,,,,,,,,,,,,,,,,,,,,,,,,,,,,,,,58.0,1.0,
387,,iti,,html-keyboard-response,387,233606,0.0-1.0-77.0-0.0-5.0,0,0,3,,,,,,,,,,,,,,,,,,,,,,,,,,,,,,,,,,,,,,60.0,2.0,
388,,choice,,html-keyboard-response,388,233948,0.0-1.0-78.0-0.0-0.0,0,0,3,,338.0,,,50.0,76.0,76.0,1000.0,1000.0,0.0,2.0,0.0,40-80,,1.0,desk,patio lounge chair,80.0,40.0,desk4,patio lounge chair13,80.0,20.0,AbbeyMiniRadialBIG(1).jpg,grosfillex-bahia-resin-chaise-lounges.jpg,/static/Category_learning/Stimuli/Experimental_stims/desk/AbbeyMiniRadialBIG(1).jpg,/static/Category_learning/Stimuli/Experimental_stims/patio lounge chair/grosfillex-bahia-resin-chaise-lounges.jpg,1.0,desk,patio lounge chair,80.0,40.0,desk4,patio lounge chair13,80.0,20.0,0.0,60.338,0.338,
389,,confirmation,,html-keyboard-response,389,235116,0.0-1.0-78.0-0.0-1.0-0.0,0,0,3,,,,,,76.0,,,,,,,,,,,,,,,,,,,,,,,,,,,,,,,,61.5,1.162,
390,,isi,,html-keyboard-response,390,235222,0.0-1.0-78.0-0.0-2.0,0,0,3,,,,,,,,,,,,,,,,,,,,,,,,,,,,,,,,,,,,,,62.5,1.0,
391,,feedback,,html-keyboard-response,391,236229,0.0-1.0-78.0-0.0-3.0-0.0,0,0,3,,,,,,76.0,,,,,,,,,,,,,,,,,,,,,,,,,,,,,,,,63.5,1.0,
392,,iti,,html-keyboard-response,392,236335,0.0-1.0-78.0-0.0-5.0,0,0,3,,,,,,,,,,,,,,,,,,,,,,,,,,,,,,,,,,,,,,64.5,1.0,
393,,choice,,html-keyboard-response,393,236629,0.0-1.0-79.0-0.0-0.0,0,0,3,,290.0,,,50.0,77.0,77.0,2000.0,1500.0,0.0,2.0,1.0,20-20,1.0,,motorcycle,motorcycle,20.0,20.0,motorcycle7,motorcycle6,20.0,40.0,MotoSmall.jpg,motorcycle45364t4t.jpg,/static/Category_learning/Stimuli/Experimental_stims/motorcycle/MotoSmall.jpg,/static/Category_learning/Stimuli/Experimental_stims/motorcycle/motorcycle45364t4t.jpg,1.0,motorcycle,motorcycle,20.0,20.0,motorcycle7,motorcycle6,20.0,40.0,0.0,64.79,0.29,
394,,confirmation,,html-keyboard-response,394,237849,0.0-1.0-79.0-0.0-1.0-0.0,0,0,3,,,,,,77.0,,,,,,,,,,,,,,,,,,,,,,,,,,,,,,,,66.0,1.21,
395,,isi,,html-keyboard-response,395,237956,0.0-1.0-79.0-0.0-2.0,0,0,3,,,,,,,,,,,,,,,,,,,,,,,,,,,,,,,,,,,,,,68.0,2.0,
396,,feedback,,html-keyboard-response,396,238961,0.0-1.0-79.0-0.0-3.0-0.0,0,0,3,,,,,,77.0,,,,,,,,,,,,,,,,,,,,,,,,,,,,,,,,69.0,1.0,
397,,iti,,html-keyboard-response,397,239064,0.0-1.0-79.0-0.0-5.0,0,0,3,,,,,,,,,,,,,,,,,,,,,,,,,,,,,,,,,,,,,,70.5,1.5,
398,,choice,,html-keyboard-response,398,239188,0.0-1.0-80.0-0.0-0.0,0,0,3,,120.0,,,50.0,78.0,78.0,2000.0,1000.0,0.0,2.0,0.0,20-40,,1.0,patio lounge chair,hat,40.0,20.0,patio lounge chair7,hat2,40.0,40.0,lg_Serenity_Riviera[1].jpg,Ahatwithfeat7.jpg,/static/Category_learning/Stimuli/Experimental_stims/patio lounge chair/lg_Serenity_Riviera[1].jpg,/static/Category_learning/Stimuli/Experimental_stims/hat/Ahatwithfeat7.jpg,1.0,patio lounge chair,hat,40.0,20.0,patio lounge chair7,hat2,40.0,40.0,0.0,70.62,0.12,
399,,confirmation,,html-keyboard-response,399,240575,0.0-1.0-80.0-0.0-1.0-0.0,0,0,3,,,,,,78.0,,,,,,,,,,,,,,,,,,,,,,,,,,,,,,,,72.0,1.38,
400,,isi,,html-keyboard-response,400,240681,0.0-1.0-80.0-0.0-2.0,0,0,3,,,,,,,,,,,,,,,,,,,,,,,,,,,,,,,,,,,,,,74.0,2.0,
401,,feedback,,html-keyboard-response,401,241689,0.0-1.0-80.0-0.0-3.0-0.0,0,0,3,,,,,,78.0,,,,,,,,,,,,,,,,,,,,,,,,,,,,,,,,75.0,1.0,
402,,iti,,html-keyboard-response,402,241798,0.0-1.0-80.0-0.0-5.0,0,0,3,,,,,,,,,,,,,,,,,,,,,,,,,,,,,,,,,,,,,,76.0,1.0,
403,,choice,,html-keyboard-response,403,241948,0.0-1.0-81.0-0.0-0.0,0,0,3,,146.0,,,50.0,79.0,79.0,1500.0,2000.0,0.0,2.0,1.0,40-80,0.0,,sofa,baby carriage,40.0,80.0,sofa9,baby carriage9,20.0,100.0,ALOVSEAT9.jpg,Antique baby Carriage 7.jpg,/static/Category_learning/Stimuli/Experimental_stims/sofa/ALOVSEAT9.jpg,/static/Category_learning/Stimuli/Experimental_stims/baby carriage/Antique baby Carriage 7.jpg,1.0,sofa,baby carriage,40.0,80.0,sofa9,baby carriage9,20.0,100.0,0.0,76.146,0.146,
404,,confirmation,,html-keyboard-response,404,243306,0.0-1.0-81.0-0.0-1.0-0.0,0,0,3,,,,,,79.0,,,,,,,,,,,,,,,,,,,,,,,,,,,,,,,,77.5,1.354,
405,,isi,,html-keyboard-response,405,243413,0.0-1.0-81.0-0.0-2.0,0,0,3,,,,,,,,,,,,,,,,,,,,,,,,,,,,,,,,,,,,,,79.0,1.5,
406,,feedback,,html-keyboard-response,406,244419,0.0-1.0-81.0-0.0-3.0-0.0,0,0,3,,,,,,79.0,,,,,,,,,,,,,,,,,,,,,,,,,,,,,,,,80.0,1.0,
407,,iti,,html-keyboard-response,407,244525,0.0-1.0-81.0-0.0-5.0,0,0,3,,,,,,,,,,,,,,,,,,,,,,,,,,,,,,,,,,,,,,82.0,2.0,
408,,choice,,html-keyboard-response,408,245054,0.0-1.0-82.0-0.0-0.0,0,0,3,,525.0,,,50.0,80.0,80.0,1000.0,1500.0,0.0,2.0,0.0,20-80,,0.0,hat,flashlight,20.0,80.0,hat9,flashlight7,40.0,60.0,Astrawhat44.jpg,11900.jpg,/static/Category_learning/Stimuli/Experimental_stims/hat/Astrawhat44.jpg,/static/Category_learning/Stimuli/Experimental_stims/flashlight/11900.jpg,1.0,hat,flashlight,20.0,80.0,hat9,flashlight7,40.0,60.0,0.0,82.525,0.525,
409,,confirmation,,html-keyboard-response,409,246036,0.0-1.0-82.0-0.0-1.0-0.0,0,0,3,,,,,,80.0,,,,,,,,,,,,,,,,,,,,,,,,,,,,,,,,83.5,0.975,
410,,isi,,html-keyboard-response,410,246145,0.0-1.0-82.0-0.0-2.0,0,0,3,,,,,,,,,,,,,,,,,,,,,,,,,,,,,,,,,,,,,,84.5,1.0,
411,,feedback,,html-keyboard-response,411,247153,0.0-1.0-82.0-0.0-3.0-0.0,0,0,3,,,,,,80.0,,,,,,,,,,,,,,,,,,,,,,,,,,,,,,,,85.5,1.0,
412,,iti,,html-keyboard-response,412,247262,0.0-1.0-82.0-0.0-5.0,0,0,3,,,,,,,,,,,,,,,,,,,,,,,,,,,,,,,,,,,,,,87.0,1.5,
413,,choice,,html-keyboard-response,413,247592,0.0-1.0-83.0-0.0-0.0,0,0,3,,325.0,,,50.0,81.0,81.0,2000.0,1500.0,0.0,2.0,0.0,40-60,,1.0,telescope,sofa,60.0,40.0,telescope2,sofa15,60.0,40.0,Brass-telescope-60700.jpg,APEACHLOV.jpg,/static/Category_learning/Stimuli/Experimental_stims/telescope/Brass-telescope-60700.jpg,/static/Category_learning/Stimuli/Experimental_stims/sofa/APEACHLOV.jpg,1.0,telescope,sofa,60.0,40.0,telescope2,sofa15,60.0,40.0,0.0,87.325,0.325,
414,,confirmation,,html-keyboard-response,414,248773,0.0-1.0-83.0-0.0-1.0-0.0,0,0,3,,,,,,81.0,,,,,,,,,,,,,,,,,,,,,,,,,,,,,,,,88.5,1.175,
415,,isi,,html-keyboard-response,415,248879,0.0-1.0-83.0-0.0-2.0,0,0,3,,,,,,,,,,,,,,,,,,,,,,,,,,,,,,,,,,,,,,90.5,2.0,
416,,feedback,,html-keyboard-response,416,249888,0.0-1.0-83.0-0.0-3.0-0.0,0,0,3,,,,,,81.0,,,,,,,,,,,,,,,,,,,,,,,,,,,,,,,,91.5,1.0,
417,,iti,,html-keyboard-response,417,249994,0.0-1.0-83.0-0.0-5.0,0,0,3,,,,,,,,,,,,,,,,,,,,,,,,,,,,,,,,,,,,,,93.0,1.5,
418,,choice,,html-keyboard-response,418,250033,0.0-1.0-84.0-0.0-0.0,0,0,3,,35.0,,,50.0,82.0,82.0,2000.0,1000.0,0.0,2.0,0.0,20-60,,1.0,train,makeup compact,60.0,20.0,train2,makeup compact15,80.0,40.0,iron_train.jpg,05086681402.jpg,/static/Category_learning/Stimuli/Experimental_stims/train/iron_train.jpg,/static/Category_learning/Stimuli/Experimental_stims/makeup compact/05086681402.jpg,1.0,train,makeup compact,60.0,20.0,train2,makeup compact15,80.0,40.0,0.0,93.035,0.035,
419,,confirmation,,html-keyboard-response,419,251503,0.0-1.0-84.0-0.0-1.0-0.0,0,0,3,,,,,,82.0,,,,,,,,,,,,,,,,,,,,,,,,,,,,,,,,94.5,1.465,
420,,isi,,html-keyboard-response,420,251608,0.0-1.0-84.0-0.0-2.0,0,0,3,,,,,,,,,,,,,,,,,,,,,,,,,,,,,,,,,,,,,,96.5,2.0,
421,,feedback,,html-keyboard-response,421,252615,0.0-1.0-84.0-0.0-3.0-0.0,0,0,3,,,,,,82.0,,,,,,,,,,,,,,,,,,,,,,,,,,,,,,,,97.5,1.0,
422,,iti,,html-keyboard-response,422,252719,0.0-1.0-84.0-0.0-5.0,0,0,3,,,,,,,,,,,,,,,,,,,,,,,,,,,,,,,,,,,,,,98.5,1.0,
423,,choice,,html-keyboard-response,423,252781,0.0-1.0-85.0-0.0-0.0,0,0,3,,58.0,,,50.0,83.0,83.0,3500.0,1000.0,0.0,2.0,0.0,40-40,,,sofa,power strip,40.0,40.0,sofa4,power strip11,20.0,60.0,ALOVSEA15.jpg,41Bw7Tl1G7L._AA262_.jpg,/static/Category_learning/Stimuli/Experimental_stims/sofa/ALOVSEA15.jpg,/static/Category_learning/Stimuli/Experimental_stims/power strip/41Bw7Tl1G7L._AA262_.jpg,1.0,sofa,power strip,40.0,40.0,sofa4,power strip11,20.0,60.0,0.0,98.558,0.058,
424,,confirmation,,html-keyboard-response,424,254228,0.0-1.0-85.0-0.0-1.0-0.0,0,0,3,,,,,,83.0,,,,,,,,,,,,,,,,,,,,,,,,,,,,,,,,100.0,1.442,
425,,isi,,html-keyboard-response,425,254334,0.0-1.0-85.0-0.0-2.0,0,0,3,,,,,,,,,,,,,,,,,,,,,,,,,,,,,,,,,,,,,,103.5,3.5,
426,,feedback,,html-keyboard-response,426,255338,0.0-1.0-85.0-0.0-3.0-0.0,0,0,3,,,,,,83.0,,,,,,,,,,,,,,,,,,,,,,,,,,,,,,,,104.5,1.0,
427,,iti,,html-keyboard-response,427,255444,0.0-1.0-85.0-0.0-5.0,0,0,3,,,,,,,,,,,,,,,,,,,,,,,,,,,,,,,,,,,,,,105.5,1.0,
428,,choice,,html-keyboard-response,428,255454,0.0-1.0-86.0-0.0-0.0,0,0,3,,6.0,,,50.0,84.0,84.0,1500.0,1000.0,0.0,2.0,0.0,20-80,,0.0,hammer,bongo,20.0,80.0,hammer2,bongo3,0.0,100.0,hammer04.jpg,26390697.thl.jpg,/static/Category_learning/Stimuli/Experimental_stims/hammer/hammer04.jpg,/static/Category_learning/Stimuli/Experimental_stims/bongo/26390697.thl.jpg,1.0,hammer,bongo,20.0,80.0,hammer2,bongo3,0.0,100.0,0.0,105.506,0.006,
429,,confirmation,,html-keyboard-response,429,256955,0.0-1.0-86.0-0.0-1.0-0.0,0,0,3,,,,,,84.0,,,,,,,,,,,,,,,,,,,,,,,,,,,,,,,,107.0,1.494,
430,,isi,,html-keyboard-response,430,257062,0.0-1.0-86.0-0.0-2.0,0,0,3,,,,,,,,,,,,,,,,,,,,,,,,,,,,,,,,,,,,,,108.5,1.5,
431,,feedback,,html-keyboard-response,431,258070,0.0-1.0-86.0-0.0-3.0-0.0,0,0,3,,,,,,84.0,,,,,,,,,,,,,,,,,,,,,,,,,,,,,,,,109.5,1.0,
432,,iti,,html-keyboard-response,432,258177,0.0-1.0-86.0-0.0-5.0,0,0,3,,,,,,,,,,,,,,,,,,,,,,,,,,,,,,,,,,,,,,110.5,1.0,
433,,choice,,html-keyboard-response,433,258187,0.0-1.0-87.0-0.0-0.0,0,0,3,,6.0,,,50.0,85.0,85.0,1500.0,1000.0,0.0,2.0,0.0,40-60,,1.0,trumpet,power strip,60.0,40.0,trumpet10,power strip15,60.0,20.0,trumpet2.jpg,31oz6aGZN7L._AA262_.jpg,/static/Category_learning/Stimuli/Experimental_stims/trumpet/trumpet2.jpg,/static/Category_learning/Stimuli/Experimental_stims/power strip/31oz6aGZN7L._AA262_.jpg,1.0,trumpet,power strip,60.0,40.0,trumpet10,power strip15,60.0,20.0,0.0,110.506,0.006,
434,,confirmation,,html-keyboard-response,434,259689,0.0-1.0-87.0-0.0-1.0-0.0,0,0,3,,,,,,85.0,,,,,,,,,,,,,,,,,,,,,,,,,,,,,,,,112.0,1.494,
435,,isi,,html-keyboard-response,435,259796,0.0-1.0-87.0-0.0-2.0,0,0,3,,,,,,,,,,,,,,,,,,,,,,,,,,,,,,,,,,,,,,113.5,1.5,
436,,feedback,,html-keyboard-response,436,260803,0.0-1.0-87.0-0.0-3.0-0.0,0,0,3,,,,,,85.0,,,,,,,,,,,,,,,,,,,,,,,,,,,,,,,,114.5,1.0,
437,,iti,,html-keyboard-response,437,260911,0.0-1.0-87.0-0.0-5.0,0,0,3,,,,,,,,,,,,,,,,,,,,,,,,,,,,,,,,,,,,,,115.5,1.0,
438,,choice,,html-keyboard-response,438,261142,0.0-1.0-88.0-0.0-0.0,0,0,3,,226.0,,,50.0,86.0,86.0,1500.0,2000.0,0.0,2.0,1.0,20-60,0.0,,license plate,watch,20.0,60.0,license plate14,watch15,0.0,80.0,fl-hel-bel.jpg,20-171-6.jpg,/static/Category_learning/Stimuli/Experimental_stims/license plate/fl-hel-bel.jpg,/static/Category_learning/Stimuli/Experimental_stims/watch/20-171-6.jpg,1.0,license plate,watch,20.0,60.0,license plate14,watch15,0.0,80.0,0.0,115.726,0.226,
439,,confirmation,,html-keyboard-response,439,262425,0.0-1.0-88.0-0.0-1.0-0.0,0,0,3,,,,,,86.0,,,,,,,,,,,,,,,,,,,,,,,,,,,,,,,,117.0,1.274,
440,,isi,,html-keyboard-response,440,262530,0.0-1.0-88.0-0.0-2.0,0,0,3,,,,,,,,,,,,,,,,,,,,,,,,,,,,,,,,,,,,,,118.5,1.5,
441,,feedback,,html-keyboard-response,441,263537,0.0-1.0-88.0-0.0-3.0-0.0,0,0,3,,,,,,86.0,,,,,,,,,,,,,,,,,,,,,,,,,,,,,,,,119.5,1.0,
442,,iti,,html-keyboard-response,442,263645,0.0-1.0-88.0-0.0-5.0,0,0,3,,,,,,,,,,,,,,,,,,,,,,,,,,,,,,,,,,,,,,121.5,2.0,
443,,choice,,html-keyboard-response,443,263670,0.0-1.0-89.0-0.0-0.0,0,0,3,,20.0,,,50.0,87.0,87.0,1500.0,1500.0,0.0,2.0,1.0,40-60,0.0,,telescope,patio lounge chair,60.0,40.0,telescope2,patio lounge chair7,60.0,40.0,Brass-telescope-60700.jpg,lg_Serenity_Riviera[1].jpg,/static/Category_learning/Stimuli/Experimental_stims/telescope/Brass-telescope-60700.jpg,/static/Category_learning/Stimuli/Experimental_stims/patio lounge chair/lg_Serenity_Riviera[1].jpg,1.0,telescope,patio lounge chair,60.0,40.0,telescope2,patio lounge chair7,60.0,40.0,0.0,121.52,0.02,
444,,confirmation,,html-keyboard-response,444,265159,0.0-1.0-89.0-0.0-1.0-0.0,0,0,3,,,,,,87.0,,,,,,,,,,,,,,,,,,,,,,,,,,,,,,,,123.0,1.48,
445,,isi,,html-keyboard-response,445,265265,0.0-1.0-89.0-0.0-2.0,0,0,3,,,,,,,,,,,,,,,,,,,,,,,,,,,,,,,,,,,,,,124.5,1.5,
446,,feedback,,html-keyboard-response,446,266270,0.0-1.0-89.0-0.0-3.0-0.0,0,0,3,,,,,,87.0,,,,,,,,,,,,,,,,,,,,,,,,,,,,,,,,125.5,1.0,
447,,iti,,html-keyboard-response,447,266374,0.0-1.0-89.0-0.0-5.0,0,0,3,,,,,,,,,,,,,,,,,,,,,,,,,,,,,,,,,,,,,,127.0,1.5,
448,,choice,,html-keyboard-response,448,266378,0.0-1.0-90.0-0.0-0.0,0,0,3,,0.0,,,50.0,88.0,88.0,1000.0,1500.0,0.0,2.0,0.0,20-20,,,key chain,motorcycle,20.0,20.0,key chain13,motorcycle14,0.0,20.0,Fancy_Liquid_Column_Shape_Key_Ring_with_Floater.jpg,motorcycle11.jpg,/static/Category_learning/Stimuli/Experimental_stims/key chain/Fancy_Liquid_Column_Shape_Key_Ring_with_Floater.jpg,/static/Category_learning/Stimuli/Experimental_stims/motorcycle/motorcycle11.jpg,1.0,key chain,motorcycle,20.0,20.0,key chain13,motorcycle14,0.0,20.0,0.0,127.0,0.0,
449,,confirmation,,html-keyboard-response,449,267886,0.0-1.0-90.0-0.0-1.0-0.0,0,0,3,,,,,,88.0,,,,,,,,,,,,,,,,,,,,,,,,,,,,,,,,128.5,1.5,
450,,isi,,html-keyboard-response,450,267992,0.0-1.0-90.0-0.0-2.0,0,0,3,,,,,,,,,,,,,,,,,,,,,,,,,,,,,,,,,,,,,,129.5,1.0,
451,,feedback,,html-keyboard-response,451,268999,0.0-1.0-90.0-0.0-3.0-0.0,0,0,3,,,,,,88.0,,,,,,,,,,,,,,,,,,,,,,,,,,,,,,,,130.5,1.0,
452,,iti,,html-keyboard-response,452,269107,0.0-1.0-90.0-0.0-5.0,0,0,3,,,,,,,,,,,,,,,,,,,,,,,,,,,,,,,,,,,,,,132.0,1.5,
453,,choice,,html-keyboard-response,453,269384,0.0-1.0-91.0-0.0-0.0,0,0,3,,272.0,,,50.0,89.0,89.0,2000.0,2000.0,0.0,2.0,0.0,40-80,,0.0,small table,fan,40.0,80.0,small table14,fan11,40.0,80.0,Awoodtable13.jpg,n_sf.jpg,/static/Category_learning/Stimuli/Experimental_stims/small table/Awoodtable13.jpg,/static/Category_learning/Stimuli/Experimental_stims/fan/n_sf.jpg,1.0,small table,fan,40.0,80.0,small table14,fan11,40.0,80.0,0.0,132.272,0.272,
454,,confirmation,,html-keyboard-response,454,270620,0.0-1.0-91.0-0.0-1.0-0.0,0,0,3,,,,,,89.0,,,,,,,,,,,,,,,,,,,,,,,,,,,,,,,,133.5,1.228,
455,,isi,,html-keyboard-response,455,270725,0.0-1.0-91.0-0.0-2.0,0,0,3,,,,,,,,,,,,,,,,,,,,,,,,,,,,,,,,,,,,,,135.5,2.0,
456,,feedback,,html-keyboard-response,456,271732,0.0-1.0-91.0-0.0-3.0-0.0,0,0,3,,,,,,89.0,,,,,,,,,,,,,,,,,,,,,,,,,,,,,,,,136.5,1.0,
457,,iti,,html-keyboard-response,457,271838,0.0-1.0-91.0-0.0-5.0,0,0,3,,,,,,,,,,,,,,,,,,,,,,,,,,,,,,,,,,,,,,138.5,2.0,
458,,choice,,html-keyboard-response,458,272576,0.0-1.0-92.0-0.0-0.0,0,0,3,,734.0,,,51.0,90.0,90.0,2000.0,3500.0,0.0,2.0,0.0,40-80,,1.0,baby carriage,patio lounge chair,80.0,40.0,baby carriage1,patio lounge chair6,100.0,40.0,babycarriage16.jpg,Lounge_Chair_with_Pillow.jpg,/static/Category_learning/Stimuli/Experimental_stims/baby carriage/babycarriage16.jpg,/static/Category_learning/Stimuli/Experimental_stims/patio lounge chair/Lounge_Chair_with_Pillow.jpg,0.0,patio lounge chair,baby carriage,40.0,80.0,patio lounge chair6,baby carriage1,40.0,100.0,0.0,139.234,0.734,
459,,confirmation,,html-keyboard-response,459,273357,0.0-1.0-92.0-0.0-1.0-0.0,0,0,3,,,,,,90.0,,,,,,,,,,,,,,,,,,,,,,,,,,,,,,,,140.0,0.766,
460,,isi,,html-keyboard-response,460,273462,0.0-1.0-92.0-0.0-2.0,0,0,3,,,,,,,,,,,,,,,,,,,,,,,,,,,,,,,,,,,,,,142.0,2.0,
461,,feedback,,html-keyboard-response,461,274467,0.0-1.0-92.0-0.0-3.0-0.0,0,0,3,,,,,,90.0,,,,,,,,,,,,,,,,,,,,,,,,,,,,,,,,143.0,1.0,
462,,iti,,html-keyboard-response,462,274570,0.0-1.0-92.0-0.0-5.0,0,0,3,,,,,,,,,,,,,,,,,,,,,,,,,,,,,,,,,,,,,,146.5,3.5,
463,,choice,,html-keyboard-response,463,274773,0.0-1.0-93.0-0.0-0.0,0,0,3,,200.0,,,51.0,91.0,91.0,1000.0,2000.0,0.0,2.0,0.0,40-80,,0.0,patio lounge chair,bowl,40.0,80.0,patio lounge chair10,bowl2,20.0,100.0,51831.jpg,AMIXBOWL2.jpg,/static/Category_learning/Stimuli/Experimental_stims/patio lounge chair/51831.jpg,/static/Category_learning/Stimuli/Experimental_stims/bowl/AMIXBOWL2.jpg,0.0,bowl,patio lounge chair,80.0,40.0,bowl2,patio lounge chair10,100.0,20.0,0.0,146.7,0.2,
464,,confirmation,,html-keyboard-response,464,276078,0.0-1.0-93.0-0.0-1.0-0.0,0,0,3,,,,,,91.0,,,,,,,,,,,,,,,,,,,,,,,,,,,,,,,,148.0,1.3,
465,,isi,,html-keyboard-response,465,276182,0.0-1.0-93.0-0.0-2.0,0,0,3,,,,,,,,,,,,,,,,,,,,,,,,,,,,,,,,,,,,,,149.0,1.0,
466,,feedback,,html-keyboard-response,466,277189,0.0-1.0-93.0-0.0-3.0-0.0,0,0,3,,,,,,91.0,,,,,,,,,,,,,,,,,,,,,,,,,,,,,,,,150.0,1.0,
467,,iti,,html-keyboard-response,467,277296,0.0-1.0-93.0-0.0-5.0,0,0,3,,,,,,,,,,,,,,,,,,,,,,,,,,,,,,,,,,,,,,152.0,2.0,
468,,choice,,html-keyboard-response,468,277581,0.0-1.0-94.0-0.0-0.0,0,0,3,,280.0,,,51.0,92.0,92.0,1500.0,1500.0,0.0,2.0,0.0,60-80,,0.0,tent,dresser,60.0,80.0,tent12,dresser10,40.0,60.0,31316-AZU_m.jpg,ADRESSE14.jpg,/static/Category_learning/Stimuli/Experimental_stims/tent/31316-AZU_m.jpg,/static/Category_learning/Stimuli/Experimental_stims/dresser/ADRESSE14.jpg,0.0,dresser,tent,80.0,60.0,dresser10,tent12,60.0,40.0,0.0,152.28,0.28,
469,,confirmation,,html-keyboard-response,469,278806,0.0-1.0-94.0-0.0-1.0-0.0,0,0,3,,,,,,92.0,,,,,,,,,,,,,,,,,,,,,,,,,,,,,,,,153.5,1.22,
470,,isi,,html-keyboard-response,470,278915,0.0-1.0-94.0-0.0-2.0,0,0,3,,,,,,,,,,,,,,,,,,,,,,,,,,,,,,,,,,,,,,155.0,1.5,
471,,feedback,,html-keyboard-response,471,279924,0.0-1.0-94.0-0.0-3.0-0.0,0,0,3,,,,,,92.0,,,,,,,,,,,,,,,,,,,,,,,,,,,,,,,,156.0,1.0,
472,,iti,,html-keyboard-response,472,280029,0.0-1.0-94.0-0.0-5.0,0,0,3,,,,,,,,,,,,,,,,,,,,,,,,,,,,,,,,,,,,,,157.5,1.5,
473,,choice,,html-keyboard-response,473,280034,0.0-1.0-95.0-0.0-0.0,0,0,3,,2.0,,,51.0,93.0,93.0,1000.0,1000.0,0.0,2.0,1.0,40-40,1.0,,small table,small table,40.0,40.0,small table14,small table15,40.0,60.0,Awoodtable13.jpg,ATABLE20.jpg,/static/Category_learning/Stimuli/Experimental_stims/small table/Awoodtable13.jpg,/static/Category_learning/Stimuli/Experimental_stims/small table/ATABLE20.jpg,0.0,small table,small table,40.0,40.0,small table15,small table14,60.0,40.0,0.0,157.502,0.002,
474,,confirmation,,html-keyboard-response,474,281541,0.0-1.0-95.0-0.0-1.0-0.0,0,0,3,,,,,,93.0,,,,,,,,,,,,,,,,,,,,,,,,,,,,,,,,159.0,1.498,
475,,isi,,html-keyboard-response,475,281649,0.0-1.0-95.0-0.0-2.0,0,0,3,,,,,,,,,,,,,,,,,,,,,,,,,,,,,,,,,,,,,,160.0,1.0,
476,,feedback,,html-keyboard-response,476,282656,0.0-1.0-95.0-0.0-3.0-0.0,0,0,3,,,,,,93.0,,,,,,,,,,,,,,,,,,,,,,,,,,,,,,,,161.0,1.0,
477,,iti,,html-keyboard-response,477,282764,0.0-1.0-95.0-0.0-5.0,0,0,3,,,,,,,,,,,,,,,,,,,,,,,,,,,,,,,,,,,,,,162.0,1.0,
478,,choice,,html-keyboard-response,478,282819,0.0-1.0-96.0-0.0-0.0,0,0,3,,51.0,,,51.0,94.0,94.0,1500.0,1000.0,0.0,2.0,0.0,40-80,,0.0,necklace,fan,40.0,80.0,necklace5,fan9,60.0,80.0,necklascenew08.jpg,FT-40A.jpg,/static/Category_learning/Stimuli/Experimental_stims/necklace/necklascenew08.jpg,/static/Category_learning/Stimuli/Experimental_stims/fan/FT-40A.jpg,0.0,fan,necklace,80.0,40.0,fan9,necklace5,80.0,60.0,0.0,162.051,0.051,
479,,confirmation,,html-keyboard-response,479,284278,0.0-1.0-96.0-0.0-1.0-0.0,0,0,3,,,,,,94.0,,,,,,,,,,,,,,,,,,,,,,,,,,,,,,,,163.5,1.449,
480,,isi,,html-keyboard-response,480,284384,0.0-1.0-96.0-0.0-2.0,0,0,3,,,,,,,,,,,,,,,,,,,,,,,,,,,,,,,,,,,,,,165.0,1.5,
481,,feedback,,html-keyboard-response,481,285392,0.0-1.0-96.0-0.0-3.0-0.0,0,0,3,,,,,,94.0,,,,,,,,,,,,,,,,,,,,,,,,,,,,,,,,166.0,1.0,
482,,iti,,html-keyboard-response,482,285498,0.0-1.0-96.0-0.0-5.0,0,0,3,,,,,,,,,,,,,,,,,,,,,,,,,,,,,,,,,,,,,,167.0,1.0,
483,,choice,,html-keyboard-response,483,285661,0.0-1.0-97.0-0.0-0.0,0,0,3,,158.0,,,51.0,95.0,95.0,1000.0,1500.0,0.0,2.0,1.0,20-20,1.0,,key chain,key chain,20.0,20.0,key chain13,key chain3,0.0,20.0,Fancy_Liquid_Column_Shape_Key_Ring_with_Floater.jpg,Keychain_Voice_Recorder.jpg,/static/Category_learning/Stimuli/Experimental_stims/key chain/Fancy_Liquid_Column_Shape_Key_Ring_with_Floater.jpg,/static/Category_learning/Stimuli/Experimental_stims/key chain/Keychain_Voice_Recorder.jpg,0.0,key chain,key chain,20.0,20.0,key chain3,key chain13,20.0,0.0,0.0,167.158,0.158,
484,,confirmation,,html-keyboard-response,484,287009,0.0-1.0-97.0-0.0-1.0-0.0,0,0,3,,,,,,95.0,,,,,,,,,,,,,,,,,,,,,,,,,,,,,,,,168.5,1.342,
485,,isi,,html-keyboard-response,485,287114,0.0-1.0-97.0-0.0-2.0,0,0,3,,,,,,,,,,,,,,,,,,,,,,,,,,,,,,,,,,,,,,169.5,1.0,
486,,feedback,,html-keyboard-response,486,288124,0.0-1.0-97.0-0.0-3.0-0.0,0,0,3,,,,,,95.0,,,,,,,,,,,,,,,,,,,,,,,,,,,,,,,,170.5,1.0,
487,,iti,,html-keyboard-response,487,288233,0.0-1.0-97.0-0.0-5.0,0,0,3,,,,,,,,,,,,,,,,,,,,,,,,,,,,,,,,,,,,,,172.0,1.5,
488,,choice,,html-keyboard-response,488,288605,0.0-1.0-98.0-0.0-0.0,0,0,3,,366.0,,,51.0,96.0,96.0,2000.0,3500.0,0.0,2.0,0.0,60-60,,,train,watch,60.0,60.0,train10,watch5,60.0,60.0,train3.jpg,B000GB0Q2K.01-A4LKQQKJ91IUZ._AA280_SCLZZZZZZZ_V66976251_.jpg,/static/Category_learning/Stimuli/Experimental_stims/train/train3.jpg,/static/Category_learning/Stimuli/Experimental_stims/watch/B000GB0Q2K.01-A4LKQQKJ91IUZ._AA280_SCLZZZZZZZ_V66976251_.jpg,0.0,watch,train,60.0,60.0,watch5,train10,60.0,60.0,0.0,172.366,0.366,
489,,confirmation,,html-keyboard-response,489,289749,0.0-1.0-98.0-0.0-1.0-0.0,0,0,3,,,,,,96.0,,,,,,,,,,,,,,,,,,,,,,,,,,,,,,,,173.5,1.134,
490,,isi,,html-keyboard-response,490,289856,0.0-1.0-98.0-0.0-2.0,0,0,3,,,,,,,,,,,,,,,,,,,,,,,,,,,,,,,,,,,,,,175.5,2.0,
491,,feedback,,html-keyboard-response,491,290864,0.0-1.0-98.0-0.0-3.0-0.0,0,0,3,,,,,,96.0,,,,,,,,,,,,,,,,,,,,,,,,,,,,,,,,176.5,1.0,
492,,iti,,html-keyboard-response,492,290968,0.0-1.0-98.0-0.0-5.0,0,0,3,,,,,,,,,,,,,,,,,,,,,,,,,,,,,,,,,,,,,,180.0,3.5,
493,,choice,,html-keyboard-response,493,291331,0.0-1.0-99.0-0.0-0.0,0,0,3,,358.0,,,51.0,97.0,97.0,1000.0,1500.0,0.0,2.0,0.0,40-60,,0.0,small table,stool,40.0,60.0,small table11,stool14,40.0,40.0,ATABLE83.jpg,hjscott-sbs-b-bar-stool.jpg,/static/Category_learning/Stimuli/Experimental_stims/small table/ATABLE83.jpg,/static/Category_learning/Stimuli/Experimental_stims/stool/hjscott-sbs-b-bar-stool.jpg,0.0,stool,small table,60.0,40.0,stool14,small table11,40.0,40.0,0.0,180.358,0.358,
494,,confirmation,,html-keyboard-response,494,292483,0.0-1.0-99.0-0.0-1.0-0.0,0,0,3,,,,,,97.0,,,,,,,,,,,,,,,,,,,,,,,,,,,,,,,,181.5,1.142,
495,,isi,,html-keyboard-response,495,292588,0.0-1.0-99.0-0.0-2.0,0,0,3,,,,,,,,,,,,,,,,,,,,,,,,,,,,,,,,,,,,,,182.5,1.0,
496,,feedback,,html-keyboard-response,496,293596,0.0-1.0-99.0-0.0-3.0-0.0,0,0,3,,,,,,97.0,,,,,,,,,,,,,,,,,,,,,,,,,,,,,,,,183.5,1.0,
497,,iti,,html-keyboard-response,497,293700,0.0-1.0-99.0-0.0-5.0,0,0,3,,,,,,,,,,,,,,,,,,,,,,,,,,,,,,,,,,,,,,185.0,1.5,
498,,choice,,html-keyboard-response,498,294974,0.0-1.0-100.0-0.0-0.0,0,0,3,,1270.0,,,51.0,98.0,98.0,1000.0,1000.0,0.0,2.0,0.0,40-60,,0.0,small table,stool,40.0,60.0,small table9,stool8,60.0,80.0,ATABLE79.jpg,ASTOOL33.jpg,/static/Category_learning/Stimuli/Experimental_stims/small table/ATABLE79.jpg,/static/Category_learning/Stimuli/Experimental_stims/stool/ASTOOL33.jpg,0.0,stool,small table,60.0,40.0,stool8,small table9,80.0,60.0,0.0,186.27,1.27,
499,,confirmation,,html-keyboard-response,499,295220,0.0-1.0-100.0-0.0-1.0-0.0,0,0,3,,,,,,98.0,,,,,,,,,,,,,,,,,,,,,,,,,,,,,,,,186.5,0.23,
500,,isi,,html-keyboard-response,500,295329,0.0-1.0-100.0-0.0-2.0,0,0,3,,,,,,,,,,,,,,,,,,,,,,,,,,,,,,,,,,,,,,187.5,1.0,
501,,feedback,,html-keyboard-response,501,296334,0.0-1.0-100.0-0.0-3.0-0.0,0,0,3,,,,,,98.0,,,,,,,,,,,,,,,,,,,,,,,,,,,,,,,,188.5,1.0,
502,,iti,,html-keyboard-response,502,296443,0.0-1.0-100.0-0.0-5.0,0,0,3,,,,,,,,,,,,,,,,,,,,,,,,,,,,,,,,,,,,,,189.5,1.0,
503,,choice,,html-keyboard-response,503,297953,0.0-1.0-101.0-0.0-0.0,0,0,3,,,,,,99.0,99.0,1000.0,2000.0,0.0,2.0,0.0,20-60,,1.0,tent,microscope,60.0,20.0,tent5,microscope1,80.0,20.0,Dome Tentnb87r67.jpg,digital-blue-microscope-qx5-md.jpg,/static/Category_learning/Stimuli/Experimental_stims/tent/Dome Tentnb87r67.jpg,/static/Category_learning/Stimuli/Experimental_stims/microscope/digital-blue-microscope-qx5-md.jpg,,,,,,,,,,1.0,191.0,1.5,
504,,isi,,html-keyboard-response,504,298059,0.0-1.0-101.0-0.0-2.0,0,0,3,,,,,,,,,,,,,,,,,,,,,,,,,,,,,,,,,,,,,,192.0,1.0,
505,,no_response,,html-keyboard-response,505,299067,0.0-1.0-101.0-0.0-4.0-0.0,0,0,3,,,,,,,,,,,,,,,,,,,,,,,,,,,,,,,,,,,,,,193.0,1.0,
506,,iti,,html-keyboard-response,506,299217,0.0-1.0-101.0-0.0-5.0,0,0,3,,,,,,,,,,,,,,,,,,,,,,,,,,,,,,,,,,,,,,195.0,2.0,
507,,choice,,html-keyboard-response,507,299762,0.0-1.0-101.0-0.1-0.1,0,0,3,,541.0,,,51.0,99.0,99.0,1000.0,2000.0,0.0,2.0,0.0,20-60,,1.0,tent,microscope,60.0,20.0,tent5,microscope1,80.0,20.0,Dome Tentnb87r67.jpg,digital-blue-microscope-qx5-md.jpg,/static/Category_learning/Stimuli/Experimental_stims/tent/Dome Tentnb87r67.jpg,/static/Category_learning/Stimuli/Experimental_stims/microscope/digital-blue-microscope-qx5-md.jpg,0.0,microscope,tent,20.0,60.0,microscope1,tent5,20.0,80.0,0.0,195.541,0.541,
