success,PID,ttype,start_time,trial_type,trial_index,time_elapsed,internal_node_id,view_history,rt,responses,repeat_instructions,key_press,index,trial_num,isi,iti,is_practice,block,old_trial,pair_type,within_category,high_cat_on_left,left_category,right_category,left_category_value,right_category_value,left_exemplar,right_exemplar,left_exemplar_value,right_exemplar_value,left_img,right_img,left_img_path,right_img_path,left_chosen,chosen_category,unchosen_category,chosen_category_value,unchosen_category_value,chosen_exemplar,unchosen_exemplar,chosen_exemplar_value,unchosen_exemplar_value,no_response,onset,duration,warning,total_bonus_tally,category,category_group_value,category_value_response,did_not_enter_response
TRUE,5,full_screen,d05182022hr1816,fullscreen,0,3796,0.0-0.0,,,,,,,,,,,,,,,,,,,,,,,,,,,,,,,,,,,,,,,,,,,,,
,5,category_learning_instructions,,instructions,1,6970,0.0-1.0-0.0-0.0,"[{""page_index"":0,""viewing_time"":1499},{""page_index"":1,""viewing_time"":410},{""page_index"":2,""viewing_time"":261},{""page_index"":3,""viewing_time"":194},{""page_index"":4,""viewing_time"":181},{""page_index"":5,""viewing_time"":190},{""page_index"":6,""viewing_time"":437}]",3172,,,,,,,,,,,,,,,,,,,,,,,,,,,,,,,,,,,,,,,,,,,
,5,category_learning_comprehension_check,,survey-multi-choice,2,11458,0.0-1.0-0.0-1.0,,4483,"{""Q0"":""True"",""Q1"":""True"",""Q2"":""Stay the same"",""Q3"":""pointer finger for left and middle finger for right""}",0,,,,,,,,,,,,,,,,,,,,,,,,,,,,,,,,,,,,,,,,,
,5,,,html-keyboard-response,3,12255,0.0-1.0-1.0,,793,,,50,,,,,,,,,,,,,,,,,,,,,,,,,,,,,,,,,,,,,,,,
,5,choice,,html-keyboard-response,4,12755,0.0-1.0-2.0-0.0-0.0,,495,,,50,0,305,1500,1000,0,6,0,20-80,,1,dresser,frame,80,20,dresser5,frame12,100,0,ADRESSE55.jpg,AFRAME138.jpg,/static/Category_learning/Stimuli/Experimental_stims/dresser/ADRESSE55.jpg,/static/Category_learning/Stimuli/Experimental_stims/frame/AFRAME138.jpg,1,dresser,frame,80,20,dresser5,frame12,100,0,0,0.495,0.495,,,,,,
,5,confirmation,,html-keyboard-response,5,13767,0.0-1.0-2.0-0.0-1.0-0.0,,null,,,null,0,,,,,,,,,,,,,,,,,,,,,,,,,,,,,,,,1.5,1.005,,,,,,
,5,isi,,html-keyboard-response,6,13870,0.0-1.0-2.0-0.0-2.0,,null,,,null,,,,,,,,,,,,,,,,,,,,,,,,,,,,,,,,,3,1.5,,,,,,
,5,feedback,,html-keyboard-response,7,14875,0.0-1.0-2.0-0.0-3.0-0.0,,null,,,null,0,,,,,,,,,,,,,,,,,,,,,,,,,,,,,,,,4,1,,,,,,
,5,iti,,html-keyboard-response,8,14979,0.0-1.0-2.0-0.0-5.0,,null,,,null,,,,,,,,,,,,,,,,,,,,,,,,,,,,,,,,,5,1,,,,,,
,5,choice,,html-keyboard-response,9,15230,0.0-1.0-3.0-0.0-0.0,,247,,,50,1,306,2000,1000,0,6,0,20-60,,1,stool,makeup compact,60,20,stool11,makeup compact1,60,0,ASTOOL28.jpg,P190250_hero.jpg,/static/Category_learning/Stimuli/Experimental_stims/stool/ASTOOL28.jpg,/static/Category_learning/Stimuli/Experimental_stims/makeup compact/P190250_hero.jpg,1,stool,makeup compact,60,20,stool11,makeup compact1,60,0,0,5.247,0.247,,,,,,
,5,confirmation,,html-keyboard-response,10,16490,0.0-1.0-3.0-0.0-1.0-0.0,,null,,,null,1,,,,,,,,,,,,,,,,,,,,,,,,,,,,,,,,6.5,1.253,,,,,,
,5,isi,,html-keyboard-response,11,16598,0.0-1.0-3.0-0.0-2.0,,null,,,null,,,,,,,,,,,,,,,,,,,,,,,,,,,,,,,,,8.5,2,,,,,,
,5,feedback,,html-keyboard-response,12,17605,0.0-1.0-3.0-0.0-3.0-0.0,,null,,,null,1,,,,,,,,,,,,,,,,,,,,,,,,,,,,,,,,9.5,1,,,,,,
,5,iti,,html-keyboard-response,13,17712,0.0-1.0-3.0-0.0-5.0,,null,,,null,,,,,,,,,,,,,,,,,,,,,,,,,,,,,,,,,10.5,1,,,,,,
,5,choice,,html-keyboard-response,14,17934,0.0-1.0-4.0-0.0-0.0,,217,,,50,2,307,1000,1000,0,6,0,40-60,,0,poker card,stool,40,60,poker card5,stool13,60,60,22864800.thl.jpg,ASTOOL38.jpg,/static/Category_learning/Stimuli/Experimental_stims/poker card/22864800.thl.jpg,/static/Category_learning/Stimuli/Experimental_stims/stool/ASTOOL38.jpg,1,poker card,stool,40,60,poker card5,stool13,60,60,0,10.717,0.217,,,,,,
,5,confirmation,,html-keyboard-response,15,19224,0.0-1.0-4.0-0.0-1.0-0.0,,null,,,null,2,,,,,,,,,,,,,,,,,,,,,,,,,,,,,,,,12,1.283,,,,,,
,5,isi,,html-keyboard-response,16,19327,0.0-1.0-4.0-0.0-2.0,,null,,,null,,,,,,,,,,,,,,,,,,,,,,,,,,,,,,,,,13,1,,,,,,
,5,feedback,,html-keyboard-response,17,20333,0.0-1.0-4.0-0.0-3.0-0.0,,null,,,null,2,,,,,,,,,,,,,,,,,,,,,,,,,,,,,,,,14,1,,,,,,
,5,iti,,html-keyboard-response,18,20439,0.0-1.0-4.0-0.0-5.0,,null,,,null,,,,,,,,,,,,,,,,,,,,,,,,,,,,,,,,,15,1,,,,,,
,5,choice,,html-keyboard-response,19,20729,0.0-1.0-5.0-0.0-0.0,,286,,,50,3,308,1000,3500,0,6,0,20-60,,0,hammer,trumpet,20,60,hammer13,trumpet11,20,80,hammer2.jpg,JUPITER+JTR604L.jpg,/static/Category_learning/Stimuli/Experimental_stims/hammer/hammer2.jpg,/static/Category_learning/Stimuli/Experimental_stims/trumpet/JUPITER+JTR604L.jpg,1,hammer,trumpet,20,60,hammer13,trumpet11,20,80,0,15.286,0.286,,,,,,
,5,confirmation,,html-keyboard-response,20,21952,0.0-1.0-5.0-0.0-1.0-0.0,,null,,,null,3,,,,,,,,,,,,,,,,,,,,,,,,,,,,,,,,16.5,1.214,,,,,,
,5,isi,,html-keyboard-response,21,22055,0.0-1.0-5.0-0.0-2.0,,null,,,null,,,,,,,,,,,,,,,,,,,,,,,,,,,,,,,,,17.5,1,,,,,,
,5,feedback,,html-keyboard-response,22,23064,0.0-1.0-5.0-0.0-3.0-0.0,,null,,,null,3,,,,,,,,,,,,,,,,,,,,,,,,,,,,,,,,18.5,1,,,,,,
,5,iti,,html-keyboard-response,23,23172,0.0-1.0-5.0-0.0-5.0,,null,,,null,,,,,,,,,,,,,,,,,,,,,,,,,,,,,,,,,22,3.5,,,,,,
,5,choice,,html-keyboard-response,24,23411,0.0-1.0-6.0-0.0-0.0,,235,,,50,4,309,2000,1000,0,6,0,40-60,,0,necklace,tent,40,60,necklace6,tent1,60,40,Agoldnecklace.jpg,Atent8.jpg,/static/Category_learning/Stimuli/Experimental_stims/necklace/Agoldnecklace.jpg,/static/Category_learning/Stimuli/Experimental_stims/tent/Atent8.jpg,1,necklace,tent,40,60,necklace6,tent1,60,40,0,22.235,0.235,,,,,,
,5,confirmation,,html-keyboard-response,25,24680,0.0-1.0-6.0-0.0-1.0-0.0,,null,,,null,4,,,,,,,,,,,,,,,,,,,,,,,,,,,,,,,,23.5,1.265,,,,,,
,5,isi,,html-keyboard-response,26,24785,0.0-1.0-6.0-0.0-2.0,,null,,,null,,,,,,,,,,,,,,,,,,,,,,,,,,,,,,,,,25.5,2,,,,,,
,5,feedback,,html-keyboard-response,27,25789,0.0-1.0-6.0-0.0-3.0-0.0,,null,,,null,4,,,,,,,,,,,,,,,,,,,,,,,,,,,,,,,,26.5,1,,,,,,
,5,iti,,html-keyboard-response,28,25896,0.0-1.0-6.0-0.0-5.0,,null,,,null,,,,,,,,,,,,,,,,,,,,,,,,,,,,,,,,,27.5,1,,,,,,
,5,choice,,html-keyboard-response,29,26271,0.0-1.0-7.0-0.0-0.0,,370,,,50,5,310,1500,1500,0,6,1,20-60,0,NaN,stool,hammer,60,20,stool11,hammer13,60,20,ASTOOL28.jpg,hammer2.jpg,/static/Category_learning/Stimuli/Experimental_stims/stool/ASTOOL28.jpg,/static/Category_learning/Stimuli/Experimental_stims/hammer/hammer2.jpg,1,stool,hammer,60,20,stool11,hammer13,60,20,0,27.87,0.37,,,,,,
,5,confirmation,,html-keyboard-response,30,27407,0.0-1.0-7.0-0.0-1.0-0.0,,null,,,null,5,,,,,,,,,,,,,,,,,,,,,,,,,,,,,,,,29,1.13,,,,,,
,5,isi,,html-keyboard-response,31,27514,0.0-1.0-7.0-0.0-2.0,,null,,,null,,,,,,,,,,,,,,,,,,,,,,,,,,,,,,,,,30.5,1.5,,,,,,
,5,feedback,,html-keyboard-response,32,28522,0.0-1.0-7.0-0.0-3.0-0.0,,null,,,null,5,,,,,,,,,,,,,,,,,,,,,,,,,,,,,,,,31.5,1,,,,,,
,5,iti,,html-keyboard-response,33,28631,0.0-1.0-7.0-0.0-5.0,,null,,,null,,,,,,,,,,,,,,,,,,,,,,,,,,,,,,,,,33,1.5,,,,,,
,5,choice,,html-keyboard-response,34,30139,0.0-1.0-8.0-0.0-0.0,,null,,,null,6,311,2000,1500,0,6,1,40-80,0,NaN,dresser,necklace,80,40,dresser5,necklace6,100,60,ADRESSE55.jpg,Agoldnecklace.jpg,/static/Category_learning/Stimuli/Experimental_stims/dresser/ADRESSE55.jpg,/static/Category_learning/Stimuli/Experimental_stims/necklace/Agoldnecklace.jpg,,,,,,,,,,1,34.5,1.5,,,,,,
,5,isi,,html-keyboard-response,35,30247,0.0-1.0-8.0-0.0-2.0,,null,,,null,,,,,,,,,,,,,,,,,,,,,,,,,,,,,,,,,36.5,2,,,,,,
,5,no_response,,html-keyboard-response,36,31252,0.0-1.0-8.0-0.0-4.0-0.0,,null,,,null,,,,,,,,,,,,,,,,,,,,,,,,,,,,,,,,,37.5,1,1,,,,,
,5,iti,,html-keyboard-response,37,31376,0.0-1.0-8.0-0.0-5.0,,null,,,null,,,,,,,,,,,,,,,,,,,,,,,,,,,,,,,,,39,1.5,,,,,,
,5,choice,,html-keyboard-response,38,32716,0.0-1.0-8.0-0.1-0.1,,1335,,,50,6,311,2000,1500,0,6,1,40-80,0,NaN,dresser,necklace,80,40,dresser5,necklace6,100,60,ADRESSE55.jpg,Agoldnecklace.jpg,/static/Category_learning/Stimuli/Experimental_stims/dresser/ADRESSE55.jpg,/static/Category_learning/Stimuli/Experimental_stims/necklace/Agoldnecklace.jpg,1,dresser,necklace,80,40,dresser5,necklace6,100,60,0,40.335,1.335,,,,,,
,5,confirmation,,html-keyboard-response,39,32886,0.0-1.0-8.0-0.1-1.1-0.1,,null,,,null,6,,,,,,,,,,,,,,,,,,,,,,,,,,,,,,,,40.5,0.165,,,,,,
,5,isi,,html-keyboard-response,40,32991,0.0-1.0-8.0-0.1-2.1,,null,,,null,,,,,,,,,,,,,,,,,,,,,,,,,,,,,,,,,42.5,2,,,,,,
,5,feedback,,html-keyboard-response,41,33998,0.0-1.0-8.0-0.1-3.1-0.1,,null,,,null,6,,,,,,,,,,,,,,,,,,,,,,,,,,,,,,,,43.5,1,,,,,,
,5,iti,,html-keyboard-response,42,34102,0.0-1.0-8.0-0.1-5.1,,null,,,null,,,,,,,,,,,,,,,,,,,,,,,,,,,,,,,,,45,1.5,,,,,,
,5,choice,,html-keyboard-response,43,34113,0.0-1.0-9.0-0.0-0.0,,7,,,51,7,312,1000,1000,0,6,0,80-80,,NaN,bowl,fan,80,80,bowl4,fan1,80,60,Abowl77.jpg,01393.fpx.jpg,/static/Category_learning/Stimuli/Experimental_stims/bowl/Abowl77.jpg,/static/Category_learning/Stimuli/Experimental_stims/fan/01393.fpx.jpg,0,fan,bowl,80,80,fan1,bowl4,60,80,0,45.007,0.007,,,,,,
,5,confirmation,,html-keyboard-response,44,35611,0.0-1.0-9.0-0.0-1.0-0.0,,null,,,null,7,,,,,,,,,,,,,,,,,,,,,,,,,,,,,,,,46.5,1.493,,,,,,
,5,isi,,html-keyboard-response,45,35717,0.0-1.0-9.0-0.0-2.0,,null,,,null,,,,,,,,,,,,,,,,,,,,,,,,,,,,,,,,,47.5,1,,,,,,
,5,feedback,,html-keyboard-response,46,36725,0.0-1.0-9.0-0.0-3.0-0.0,,null,,,null,7,,,,,,,,,,,,,,,,,,,,,,,,,,,,,,,,48.5,1,,,,,,
,5,iti,,html-keyboard-response,47,36831,0.0-1.0-9.0-0.0-5.0,,null,,,null,,,,,,,,,,,,,,,,,,,,,,,,,,,,,,,,,49.5,1,,,,,,
,5,choice,,html-keyboard-response,48,37111,0.0-1.0-10.0-0.0-0.0,,277,,,51,8,313,3500,2000,0,6,0,20-60,,1,tent,hat,60,20,tent8,hat8,60,20,quechua_tent-1.jpg,ABLUEHAT.jpg,/static/Category_learning/Stimuli/Experimental_stims/tent/quechua_tent-1.jpg,/static/Category_learning/Stimuli/Experimental_stims/hat/ABLUEHAT.jpg,0,hat,tent,20,60,hat8,tent8,20,60,0,49.777,0.277,,,,,,
,5,confirmation,,html-keyboard-response,49,38340,0.0-1.0-10.0-0.0-1.0-0.0,,null,,,null,8,,,,,,,,,,,,,,,,,,,,,,,,,,,,,,,,51,1.223,,,,,,
,5,isi,,html-keyboard-response,50,38446,0.0-1.0-10.0-0.0-2.0,,null,,,null,,,,,,,,,,,,,,,,,,,,,,,,,,,,,,,,,54.5,3.5,,,,,,
,5,feedback,,html-keyboard-response,51,39450,0.0-1.0-10.0-0.0-3.0-0.0,,null,,,null,8,,,,,,,,,,,,,,,,,,,,,,,,,,,,,,,,55.5,1,,,,,,
,5,iti,,html-keyboard-response,52,39554,0.0-1.0-10.0-0.0-5.0,,null,,,null,,,,,,,,,,,,,,,,,,,,,,,,,,,,,,,,,57.5,2,,,,,,
,5,choice,,html-keyboard-response,53,39662,0.0-1.0-11.0-0.0-0.0,,105,,,50,9,314,2000,1500,0,6,0,20-60,,0,motorcycle,telescope,20,60,motorcycle1,telescope3,0,40,motorcycle30.jpg,41V67SB5NJL._SS500_.jpg,/static/Category_learning/Stimuli/Experimental_stims/motorcycle/motorcycle30.jpg,/static/Category_learning/Stimuli/Experimental_stims/telescope/41V67SB5NJL._SS500_.jpg,1,motorcycle,telescope,20,60,motorcycle1,telescope3,0,40,0,57.605,0.105,,,,,,
,5,confirmation,,html-keyboard-response,54,41064,0.0-1.0-11.0-0.0-1.0-0.0,,null,,,null,9,,,,,,,,,,,,,,,,,,,,,,,,,,,,,,,,59,1.395,,,,,,
,5,isi,,html-keyboard-response,55,41167,0.0-1.0-11.0-0.0-2.0,,null,,,null,,,,,,,,,,,,,,,,,,,,,,,,,,,,,,,,,61,2,,,,,,
,5,feedback,,html-keyboard-response,56,42174,0.0-1.0-11.0-0.0-3.0-0.0,,null,,,null,9,,,,,,,,,,,,,,,,,,,,,,,,,,,,,,,,62,1,,,,,,
,5,iti,,html-keyboard-response,57,42282,0.0-1.0-11.0-0.0-5.0,,null,,,null,,,,,,,,,,,,,,,,,,,,,,,,,,,,,,,,,63.5,1.5,,,,,,
,5,choice,,html-keyboard-response,58,42473,0.0-1.0-12.0-0.0-0.0,,187,,,50,10,315,1000,3000,0,6,0,20-20,,NaN,key chain,frame,20,20,key chain11,frame1,20,0,31H95JKXWNL._SS500_.jpg,AFRAME127.jpg,/static/Category_learning/Stimuli/Experimental_stims/key chain/31H95JKXWNL._SS500_.jpg,/static/Category_learning/Stimuli/Experimental_stims/frame/AFRAME127.jpg,1,key chain,frame,20,20,key chain11,frame1,20,0,0,63.687,0.187,,,,,,
,5,confirmation,,html-keyboard-response,59,43793,0.0-1.0-12.0-0.0-1.0-0.0,,null,,,null,10,,,,,,,,,,,,,,,,,,,,,,,,,,,,,,,,65,1.313,,,,,,
,5,isi,,html-keyboard-response,60,43899,0.0-1.0-12.0-0.0-2.0,,null,,,null,,,,,,,,,,,,,,,,,,,,,,,,,,,,,,,,,66,1,,,,,,
,5,feedback,,html-keyboard-response,61,44906,0.0-1.0-12.0-0.0-3.0-0.0,,null,,,null,10,,,,,,,,,,,,,,,,,,,,,,,,,,,,,,,,67,1,,,,,,
,5,iti,,html-keyboard-response,62,45010,0.0-1.0-12.0-0.0-5.0,,null,,,null,,,,,,,,,,,,,,,,,,,,,,,,,,,,,,,,,70,3,,,,,,
,5,choice,,html-keyboard-response,63,45212,0.0-1.0-13.0-0.0-0.0,,197,,,50,11,316,3500,2000,0,6,1,20-40,0,NaN,motorcycle,poker card,20,40,motorcycle1,poker card5,0,60,motorcycle30.jpg,22864800.thl.jpg,/static/Category_learning/Stimuli/Experimental_stims/motorcycle/motorcycle30.jpg,/static/Category_learning/Stimuli/Experimental_stims/poker card/22864800.thl.jpg,1,motorcycle,poker card,20,40,motorcycle1,poker card5,0,60,0,70.197,0.197,,,,,,
,5,confirmation,,html-keyboard-response,64,46518,0.0-1.0-13.0-0.0-1.0-0.0,,null,,,null,11,,,,,,,,,,,,,,,,,,,,,,,,,,,,,,,,71.5,1.303,,,,,,
,5,isi,,html-keyboard-response,65,46623,0.0-1.0-13.0-0.0-2.0,,null,,,null,,,,,,,,,,,,,,,,,,,,,,,,,,,,,,,,,75,3.5,,,,,,
,5,feedback,,html-keyboard-response,66,47631,0.0-1.0-13.0-0.0-3.0-0.0,,null,,,null,11,,,,,,,,,,,,,,,,,,,,,,,,,,,,,,,,76,1,,,,,,
,5,iti,,html-keyboard-response,67,47734,0.0-1.0-13.0-0.0-5.0,,null,,,null,,,,,,,,,,,,,,,,,,,,,,,,,,,,,,,,,78,2,,,,,,
,5,choice,,html-keyboard-response,68,48169,0.0-1.0-14.0-0.0-0.0,,432,,,50,12,317,1000,1000,0,6,0,40-80,,0,necklace,baby carriage,40,80,necklace8,baby carriage11,40,80,Anecklace20.jpg,Baby_Carriage-2.jpg,/static/Category_learning/Stimuli/Experimental_stims/necklace/Anecklace20.jpg,/static/Category_learning/Stimuli/Experimental_stims/baby carriage/Baby_Carriage-2.jpg,1,necklace,baby carriage,40,80,necklace8,baby carriage11,40,80,0,78.432,0.432,,,,,,
,5,confirmation,,html-keyboard-response,69,49247,0.0-1.0-14.0-0.0-1.0-0.0,,null,,,null,12,,,,,,,,,,,,,,,,,,,,,,,,,,,,,,,,79.5,1.068,,,,,,
,5,isi,,html-keyboard-response,70,49352,0.0-1.0-14.0-0.0-2.0,,null,,,null,,,,,,,,,,,,,,,,,,,,,,,,,,,,,,,,,80.5,1,,,,,,
,5,feedback,,html-keyboard-response,71,50359,0.0-1.0-14.0-0.0-3.0-0.0,,null,,,null,12,,,,,,,,,,,,,,,,,,,,,,,,,,,,,,,,81.5,1,,,,,,
,5,iti,,html-keyboard-response,72,50464,0.0-1.0-14.0-0.0-5.0,,null,,,null,,,,,,,,,,,,,,,,,,,,,,,,,,,,,,,,,82.5,1,,,,,,
,5,choice,,html-keyboard-response,73,51038,0.0-1.0-15.0-0.0-0.0,,569,,,50,13,318,2000,2000,0,6,0,40-80,,1,flashlight,power strip,80,40,flashlight13,power strip2,100,60,834808_sk_lg.jpg,59d69605-c8c8-4899-bd98-2ef78045147e_300.jpg,/static/Category_learning/Stimuli/Experimental_stims/flashlight/834808_sk_lg.jpg,/static/Category_learning/Stimuli/Experimental_stims/power strip/59d69605-c8c8-4899-bd98-2ef78045147e_300.jpg,1,flashlight,power strip,80,40,flashlight13,power strip2,100,60,0,83.069,0.569,,,,,,
,5,confirmation,,html-keyboard-response,74,51976,0.0-1.0-15.0-0.0-1.0-0.0,,null,,,null,13,,,,,,,,,,,,,,,,,,,,,,,,,,,,,,,,84,0.931,,,,,,
,5,isi,,html-keyboard-response,75,52081,0.0-1.0-15.0-0.0-2.0,,null,,,null,,,,,,,,,,,,,,,,,,,,,,,,,,,,,,,,,86,2,,,,,,
,5,feedback,,html-keyboard-response,76,53088,0.0-1.0-15.0-0.0-3.0-0.0,,null,,,null,13,,,,,,,,,,,,,,,,,,,,,,,,,,,,,,,,87,1,,,,,,
,5,iti,,html-keyboard-response,77,53194,0.0-1.0-15.0-0.0-5.0,,null,,,null,,,,,,,,,,,,,,,,,,,,,,,,,,,,,,,,,89,2,,,,,,
,5,choice,,html-keyboard-response,78,53226,0.0-1.0-16.0-0.0-0.0,,28,,,50,14,319,2000,1000,0,6,0,60-60,,NaN,stool,yarn,60,60,stool5,yarn6,80,80,ASTOOL23.jpg,edwardian moment hpy sml.jpg,/static/Category_learning/Stimuli/Experimental_stims/stool/ASTOOL23.jpg,/static/Category_learning/Stimuli/Experimental_stims/yarn/edwardian moment hpy sml.jpg,1,stool,yarn,60,60,stool5,yarn6,80,80,0,89.028,0.028,,,,,,
,5,confirmation,,html-keyboard-response,79,54703,0.0-1.0-16.0-0.0-1.0-0.0,,null,,,null,14,,,,,,,,,,,,,,,,,,,,,,,,,,,,,,,,90.5,1.472,,,,,,
,5,isi,,html-keyboard-response,80,54808,0.0-1.0-16.0-0.0-2.0,,null,,,null,,,,,,,,,,,,,,,,,,,,,,,,,,,,,,,,,92.5,2,,,,,,
,5,feedback,,html-keyboard-response,81,55816,0.0-1.0-16.0-0.0-3.0-0.0,,null,,,null,14,,,,,,,,,,,,,,,,,,,,,,,,,,,,,,,,93.5,1,,,,,,
,5,iti,,html-keyboard-response,82,55921,0.0-1.0-16.0-0.0-5.0,,null,,,null,,,,,,,,,,,,,,,,,,,,,,,,,,,,,,,,,94.5,1,,,,,,
,5,choice,,html-keyboard-response,83,56284,0.0-1.0-17.0-0.0-0.0,,357,,,50,15,320,1500,1500,0,6,0,20-80,,0,makeup compact,door knob,20,80,makeup compact13,door knob15,20,100,31YfapjS3TL._AA250_.jpg,Legacy_oval.jpg,/static/Category_learning/Stimuli/Experimental_stims/makeup compact/31YfapjS3TL._AA250_.jpg,/static/Category_learning/Stimuli/Experimental_stims/door knob/Legacy_oval.jpg,1,makeup compact,door knob,20,80,makeup compact13,door knob15,20,100,0,94.857,0.357,,,,,,
,5,confirmation,,html-keyboard-response,84,57431,0.0-1.0-17.0-0.0-1.0-0.0,,null,,,null,15,,,,,,,,,,,,,,,,,,,,,,,,,,,,,,,,96,1.143,,,,,,
,5,isi,,html-keyboard-response,85,57536,0.0-1.0-17.0-0.0-2.0,,null,,,null,,,,,,,,,,,,,,,,,,,,,,,,,,,,,,,,,97.5,1.5,,,,,,
,5,feedback,,html-keyboard-response,86,58544,0.0-1.0-17.0-0.0-3.0-0.0,,null,,,null,15,,,,,,,,,,,,,,,,,,,,,,,,,,,,,,,,98.5,1,,,,,,
,5,iti,,html-keyboard-response,87,58647,0.0-1.0-17.0-0.0-5.0,,null,,,null,,,,,,,,,,,,,,,,,,,,,,,,,,,,,,,,,100,1.5,,,,,,
,5,choice,,html-keyboard-response,88,58978,0.0-1.0-18.0-0.0-0.0,,325,,,50,16,321,1500,2000,0,6,1,20-20,0,NaN,hat,makeup compact,20,20,hat8,makeup compact13,20,20,ABLUEHAT.jpg,31YfapjS3TL._AA250_.jpg,/static/Category_learning/Stimuli/Experimental_stims/hat/ABLUEHAT.jpg,/static/Category_learning/Stimuli/Experimental_stims/makeup compact/31YfapjS3TL._AA250_.jpg,1,hat,makeup compact,20,20,hat8,makeup compact13,20,20,0,100.325,0.325,,,,,,
,5,confirmation,,html-keyboard-response,89,60157,0.0-1.0-18.0-0.0-1.0-0.0,,null,,,null,16,,,,,,,,,,,,,,,,,,,,,,,,,,,,,,,,101.5,1.175,,,,,,
,5,isi,,html-keyboard-response,90,60263,0.0-1.0-18.0-0.0-2.0,,null,,,null,,,,,,,,,,,,,,,,,,,,,,,,,,,,,,,,,103,1.5,,,,,,
,5,feedback,,html-keyboard-response,91,61271,0.0-1.0-18.0-0.0-3.0-0.0,,null,,,null,16,,,,,,,,,,,,,,,,,,,,,,,,,,,,,,,,104,1,,,,,,
,5,iti,,html-keyboard-response,92,61377,0.0-1.0-18.0-0.0-5.0,,null,,,null,,,,,,,,,,,,,,,,,,,,,,,,,,,,,,,,,106,2,,,,,,
,5,choice,,html-keyboard-response,93,61656,0.0-1.0-19.0-0.0-0.0,,275,,,50,17,322,3500,1000,0,6,0,60-80,,1,baby carriage,vase,80,60,baby carriage15,vase1,100,80,AANBABYC2.jpg,Avase114.jpg,/static/Category_learning/Stimuli/Experimental_stims/baby carriage/AANBABYC2.jpg,/static/Category_learning/Stimuli/Experimental_stims/vase/Avase114.jpg,1,baby carriage,vase,80,60,baby carriage15,vase1,100,80,0,106.275,0.275,,,,,,
,5,confirmation,,html-keyboard-response,94,62890,0.0-1.0-19.0-0.0-1.0-0.0,,null,,,null,17,,,,,,,,,,,,,,,,,,,,,,,,,,,,,,,,107.5,1.225,,,,,,
,5,isi,,html-keyboard-response,95,62998,0.0-1.0-19.0-0.0-2.0,,null,,,null,,,,,,,,,,,,,,,,,,,,,,,,,,,,,,,,,111,3.5,,,,,,
,5,feedback,,html-keyboard-response,96,64006,0.0-1.0-19.0-0.0-3.0-0.0,,null,,,null,17,,,,,,,,,,,,,,,,,,,,,,,,,,,,,,,,112,1,,,,,,
,5,iti,,html-keyboard-response,97,64113,0.0-1.0-19.0-0.0-5.0,,null,,,null,,,,,,,,,,,,,,,,,,,,,,,,,,,,,,,,,113,1,,,,,,
,5,choice,,html-keyboard-response,98,64413,0.0-1.0-20.0-0.0-0.0,,295,,,50,18,323,1500,2000,0,6,0,20-60,,0,frame,telescope,20,60,frame14,telescope11,20,60,AFRAME129.jpg,digimarc.ms03.jpg,/static/Category_learning/Stimuli/Experimental_stims/frame/AFRAME129.jpg,/static/Category_learning/Stimuli/Experimental_stims/telescope/digimarc.ms03.jpg,1,frame,telescope,20,60,frame14,telescope11,20,60,0,113.295,0.295,,,,,,
,5,confirmation,,html-keyboard-response,99,65625,0.0-1.0-20.0-0.0-1.0-0.0,,null,,,null,18,,,,,,,,,,,,,,,,,,,,,,,,,,,,,,,,114.5,1.205,,,,,,
,5,isi,,html-keyboard-response,100,65731,0.0-1.0-20.0-0.0-2.0,,null,,,null,,,,,,,,,,,,,,,,,,,,,,,,,,,,,,,,,116,1.5,,,,,,
,5,feedback,,html-keyboard-response,101,66739,0.0-1.0-20.0-0.0-3.0-0.0,,null,,,null,18,,,,,,,,,,,,,,,,,,,,,,,,,,,,,,,,117,1,,,,,,
,5,iti,,html-keyboard-response,102,66847,0.0-1.0-20.0-0.0-5.0,,null,,,null,,,,,,,,,,,,,,,,,,,,,,,,,,,,,,,,,119,2,,,,,,
,5,choice,,html-keyboard-response,103,68352,0.0-1.0-21.0-0.0-0.0,,null,,,null,19,324,3000,1500,0,6,0,20-20,,NaN,license plate,lipstick,20,20,license plate11,lipstick13,20,40,az-942-atg.jpg,P184708_hero.jpg,/static/Category_learning/Stimuli/Experimental_stims/license plate/az-942-atg.jpg,/static/Category_learning/Stimuli/Experimental_stims/lipstick/P184708_hero.jpg,,,,,,,,,,1,120.5,1.5,,,,,,
,5,isi,,html-keyboard-response,104,68461,0.0-1.0-21.0-0.0-2.0,,null,,,null,,,,,,,,,,,,,,,,,,,,,,,,,,,,,,,,,123.5,3,,,,,,
,5,no_response,,html-keyboard-response,105,69465,0.0-1.0-21.0-0.0-4.0-0.0,,null,,,null,,,,,,,,,,,,,,,,,,,,,,,,,,,,,,,,,124.5,1,1,,,,,
,5,iti,,html-keyboard-response,106,69589,0.0-1.0-21.0-0.0-5.0,,null,,,null,,,,,,,,,,,,,,,,,,,,,,,,,,,,,,,,,126,1.5,,,,,,
,5,choice,,html-keyboard-response,107,69868,0.0-1.0-21.0-0.1-0.1,,275,,,50,19,324,3000,1500,0,6,0,20-20,,NaN,license plate,lipstick,20,20,license plate11,lipstick13,20,40,az-942-atg.jpg,P184708_hero.jpg,/static/Category_learning/Stimuli/Experimental_stims/license plate/az-942-atg.jpg,/static/Category_learning/Stimuli/Experimental_stims/lipstick/P184708_hero.jpg,1,license plate,lipstick,20,20,license plate11,lipstick13,20,40,0,126.275,0.275,,,,,,
,5,confirmation,,html-keyboard-response,108,71102,0.0-1.0-21.0-0.1-1.1-0.1,,null,,,null,19,,,,,,,,,,,,,,,,,,,,,,,,,,,,,,,,127.5,1.225,,,,,,
,5,isi,,html-keyboard-response,109,71209,0.0-1.0-21.0-0.1-2.1,,null,,,null,,,,,,,,,,,,,,,,,,,,,,,,,,,,,,,,,130.5,3,,,,,,
,5,feedback,,html-keyboard-response,110,72216,0.0-1.0-21.0-0.1-3.1-0.1,,null,,,null,19,,,,,,,,,,,,,,,,,,,,,,,,,,,,,,,,131.5,1,,,,,,
,5,iti,,html-keyboard-response,111,72321,0.0-1.0-21.0-0.1-5.1,,null,,,null,,,,,,,,,,,,,,,,,,,,,,,,,,,,,,,,,133,1.5,,,,,,
,5,choice,,html-keyboard-response,112,72469,0.0-1.0-22.0-0.0-0.0,,144,,,50,20,325,1500,1500,0,6,0,80-80,,NaN,flashlight,dresser,80,80,flashlight5,dresser4,80,100,Streamlight-71001-Jr-Flashlight-W-batteries-black-B00018A3CG-L.jpg,ADRESSE40.jpg,/static/Category_learning/Stimuli/Experimental_stims/flashlight/Streamlight-71001-Jr-Flashlight-W-batteries-black-B00018A3CG-L.jpg,/static/Category_learning/Stimuli/Experimental_stims/dresser/ADRESSE40.jpg,1,flashlight,dresser,80,80,flashlight5,dresser4,80,100,0,133.144,0.144,,,,,,
,5,confirmation,,html-keyboard-response,113,73832,0.0-1.0-22.0-0.0-1.0-0.0,,null,,,null,20,,,,,,,,,,,,,,,,,,,,,,,,,,,,,,,,134.5,1.356,,,,,,
,5,isi,,html-keyboard-response,114,73936,0.0-1.0-22.0-0.0-2.0,,null,,,null,,,,,,,,,,,,,,,,,,,,,,,,,,,,,,,,,136,1.5,,,,,,
,5,feedback,,html-keyboard-response,115,74941,0.0-1.0-22.0-0.0-3.0-0.0,,null,,,null,20,,,,,,,,,,,,,,,,,,,,,,,,,,,,,,,,137,1,,,,,,
,5,iti,,html-keyboard-response,116,75047,0.0-1.0-22.0-0.0-5.0,,null,,,null,,,,,,,,,,,,,,,,,,,,,,,,,,,,,,,,,138.5,1.5,,,,,,
,5,choice,,html-keyboard-response,117,75165,0.0-1.0-23.0-0.0-0.0,,113,,,50,21,326,1500,2000,0,6,0,20-80,,1,bowl,license plate,80,20,bowl9,license plate7,80,0,21123_285.jpg,co-825-fjf.jpg,/static/Category_learning/Stimuli/Experimental_stims/bowl/21123_285.jpg,/static/Category_learning/Stimuli/Experimental_stims/license plate/co-825-fjf.jpg,1,bowl,license plate,80,20,bowl9,license plate7,80,0,0,138.613,0.113,,,,,,
,5,confirmation,,html-keyboard-response,118,76560,0.0-1.0-23.0-0.0-1.0-0.0,,null,,,null,21,,,,,,,,,,,,,,,,,,,,,,,,,,,,,,,,140,1.387,,,,,,
,5,isi,,html-keyboard-response,119,76666,0.0-1.0-23.0-0.0-2.0,,null,,,null,,,,,,,,,,,,,,,,,,,,,,,,,,,,,,,,,141.5,1.5,,,,,,
,5,feedback,,html-keyboard-response,120,77673,0.0-1.0-23.0-0.0-3.0-0.0,,null,,,null,21,,,,,,,,,,,,,,,,,,,,,,,,,,,,,,,,142.5,1,,,,,,
,5,iti,,html-keyboard-response,121,77777,0.0-1.0-23.0-0.0-5.0,,null,,,null,,,,,,,,,,,,,,,,,,,,,,,,,,,,,,,,,144.5,2,,,,,,
,5,choice,,html-keyboard-response,122,78045,0.0-1.0-24.0-0.0-0.0,,263,,,50,22,327,1000,1500,0,6,0,20-60,,0,key chain,stool,20,60,key chain1,stool2,40,40,jm05s16.jpg,ASTOOL46.jpg,/static/Category_learning/Stimuli/Experimental_stims/key chain/jm05s16.jpg,/static/Category_learning/Stimuli/Experimental_stims/stool/ASTOOL46.jpg,1,key chain,stool,20,60,key chain1,stool2,40,40,0,144.763,0.263,,,,,,
,5,confirmation,,html-keyboard-response,123,79291,0.0-1.0-24.0-0.0-1.0-0.0,,null,,,null,22,,,,,,,,,,,,,,,,,,,,,,,,,,,,,,,,146,1.237,,,,,,
,5,isi,,html-keyboard-response,124,79398,0.0-1.0-24.0-0.0-2.0,,null,,,null,,,,,,,,,,,,,,,,,,,,,,,,,,,,,,,,,147,1,,,,,,
,5,feedback,,html-keyboard-response,125,80403,0.0-1.0-24.0-0.0-3.0-0.0,,null,,,null,22,,,,,,,,,,,,,,,,,,,,,,,,,,,,,,,,148,1,,,,,,
,5,iti,,html-keyboard-response,126,80506,0.0-1.0-24.0-0.0-5.0,,null,,,null,,,,,,,,,,,,,,,,,,,,,,,,,,,,,,,,,149.5,1.5,,,,,,
,5,choice,,html-keyboard-response,127,80655,0.0-1.0-25.0-0.0-0.0,,145,,,50,23,328,1000,1000,0,6,1,20-20,1,NaN,key chain,key chain,20,20,key chain1,key chain11,40,20,jm05s16.jpg,31H95JKXWNL._SS500_.jpg,/static/Category_learning/Stimuli/Experimental_stims/key chain/jm05s16.jpg,/static/Category_learning/Stimuli/Experimental_stims/key chain/31H95JKXWNL._SS500_.jpg,1,key chain,key chain,20,20,key chain1,key chain11,40,20,0,149.645,0.145,,,,,,
,5,confirmation,,html-keyboard-response,128,82017,0.0-1.0-25.0-0.0-1.0-0.0,,null,,,null,23,,,,,,,,,,,,,,,,,,,,,,,,,,,,,,,,151,1.355,,,,,,
,5,isi,,html-keyboard-response,129,82121,0.0-1.0-25.0-0.0-2.0,,null,,,null,,,,,,,,,,,,,,,,,,,,,,,,,,,,,,,,,152,1,,,,,,
,5,feedback,,html-keyboard-response,130,83129,0.0-1.0-25.0-0.0-3.0-0.0,,null,,,null,23,,,,,,,,,,,,,,,,,,,,,,,,,,,,,,,,153,1,,,,,,
,5,iti,,html-keyboard-response,131,83233,0.0-1.0-25.0-0.0-5.0,,null,,,null,,,,,,,,,,,,,,,,,,,,,,,,,,,,,,,,,154,1,,,,,,
,5,choice,,html-keyboard-response,132,83310,0.0-1.0-26.0-0.0-0.0,,73,,,50,24,329,2000,1000,0,6,0,20-80,,0,lipstick,bench,20,80,lipstick3,bench11,0,80,31sCvjMS3jL._SS500_.jpg,22928468.thl.jpg,/static/Category_learning/Stimuli/Experimental_stims/lipstick/31sCvjMS3jL._SS500_.jpg,/static/Category_learning/Stimuli/Experimental_stims/bench/22928468.thl.jpg,1,lipstick,bench,20,80,lipstick3,bench11,0,80,0,154.073,0.073,,,,,,
,5,confirmation,,html-keyboard-response,133,84741,0.0-1.0-26.0-0.0-1.0-0.0,,null,,,null,24,,,,,,,,,,,,,,,,,,,,,,,,,,,,,,,,155.5,1.427,,,,,,
,5,isi,,html-keyboard-response,134,84845,0.0-1.0-26.0-0.0-2.0,,null,,,null,,,,,,,,,,,,,,,,,,,,,,,,,,,,,,,,,157.5,2,,,,,,
,5,feedback,,html-keyboard-response,135,85853,0.0-1.0-26.0-0.0-3.0-0.0,,null,,,null,24,,,,,,,,,,,,,,,,,,,,,,,,,,,,,,,,158.5,1,,,,,,
,5,iti,,html-keyboard-response,136,85961,0.0-1.0-26.0-0.0-5.0,,null,,,null,,,,,,,,,,,,,,,,,,,,,,,,,,,,,,,,,159.5,1,,,,,,
,5,choice,,html-keyboard-response,137,86538,0.0-1.0-27.0-0.0-0.0,,573,,,50,25,330,1000,1000,0,6,0,20-80,,1,bench,license plate,80,20,bench15,license plate2,80,40,Abench12.jpg,ny-u93-8zs.jpg,/static/Category_learning/Stimuli/Experimental_stims/bench/Abench12.jpg,/static/Category_learning/Stimuli/Experimental_stims/license plate/ny-u93-8zs.jpg,1,bench,license plate,80,20,bench15,license plate2,80,40,0,160.073,0.573,,,,,,
,5,confirmation,,html-keyboard-response,138,87474,0.0-1.0-27.0-0.0-1.0-0.0,,null,,,null,25,,,,,,,,,,,,,,,,,,,,,,,,,,,,,,,,161,0.927,,,,,,
,5,isi,,html-keyboard-response,139,87580,0.0-1.0-27.0-0.0-2.0,,null,,,null,,,,,,,,,,,,,,,,,,,,,,,,,,,,,,,,,162,1,,,,,,
,5,feedback,,html-keyboard-response,140,88587,0.0-1.0-27.0-0.0-3.0-0.0,,null,,,null,25,,,,,,,,,,,,,,,,,,,,,,,,,,,,,,,,163,1,,,,,,
,5,iti,,html-keyboard-response,141,88696,0.0-1.0-27.0-0.0-5.0,,null,,,null,,,,,,,,,,,,,,,,,,,,,,,,,,,,,,,,,164,1,,,,,,
,5,choice,,html-keyboard-response,142,88732,0.0-1.0-28.0-0.0-0.0,,31,,,50,26,331,2000,1000,0,6,0,40-40,,NaN,necklace,sofa,40,40,necklace2,sofa11,20,60,Anecklace7.jpg,ALOVSEA19.jpg,/static/Category_learning/Stimuli/Experimental_stims/necklace/Anecklace7.jpg,/static/Category_learning/Stimuli/Experimental_stims/sofa/ALOVSEA19.jpg,1,necklace,sofa,40,40,necklace2,sofa11,20,60,0,164.031,0.031,,,,,,
,5,confirmation,,html-keyboard-response,143,90205,0.0-1.0-28.0-0.0-1.0-0.0,,null,,,null,26,,,,,,,,,,,,,,,,,,,,,,,,,,,,,,,,165.5,1.469,,,,,,
,5,isi,,html-keyboard-response,144,90313,0.0-1.0-28.0-0.0-2.0,,null,,,null,,,,,,,,,,,,,,,,,,,,,,,,,,,,,,,,,167.5,2,,,,,,
,5,feedback,,html-keyboard-response,145,91321,0.0-1.0-28.0-0.0-3.0-0.0,,null,,,null,26,,,,,,,,,,,,,,,,,,,,,,,,,,,,,,,,168.5,1,,,,,,
,5,iti,,html-keyboard-response,146,91426,0.0-1.0-28.0-0.0-5.0,,null,,,null,,,,,,,,,,,,,,,,,,,,,,,,,,,,,,,,,169.5,1,,,,,,
,5,choice,,html-keyboard-response,147,91500,0.0-1.0-29.0-0.0-0.0,,69,,,50,27,332,1000,1000,0,6,1,80-80,1,NaN,flashlight,flashlight,80,80,flashlight5,flashlight13,80,100,Streamlight-71001-Jr-Flashlight-W-batteries-black-B00018A3CG-L.jpg,834808_sk_lg.jpg,/static/Category_learning/Stimuli/Experimental_stims/flashlight/Streamlight-71001-Jr-Flashlight-W-batteries-black-B00018A3CG-L.jpg,/static/Category_learning/Stimuli/Experimental_stims/flashlight/834808_sk_lg.jpg,1,flashlight,flashlight,80,80,flashlight5,flashlight13,80,100,0,169.569,0.069,,,,,,
,5,confirmation,,html-keyboard-response,148,92937,0.0-1.0-29.0-0.0-1.0-0.0,,null,,,null,27,,,,,,,,,,,,,,,,,,,,,,,,,,,,,,,,171,1.431,,,,,,
,5,isi,,html-keyboard-response,149,93041,0.0-1.0-29.0-0.0-2.0,,null,,,null,,,,,,,,,,,,,,,,,,,,,,,,,,,,,,,,,172,1,,,,,,
,5,feedback,,html-keyboard-response,150,94047,0.0-1.0-29.0-0.0-3.0-0.0,,null,,,null,27,,,,,,,,,,,,,,,,,,,,,,,,,,,,,,,,173,1,,,,,,
,5,iti,,html-keyboard-response,151,94152,0.0-1.0-29.0-0.0-5.0,,null,,,null,,,,,,,,,,,,,,,,,,,,,,,,,,,,,,,,,174,1,,,,,,
,5,choice,,html-keyboard-response,152,94446,0.0-1.0-30.0-0.0-0.0,,290,,,50,28,333,1500,1500,0,6,0,60-80,,0,tent,dresser,60,80,tent7,dresser6,80,80,9238gh948h.jpg,ADRESSE96.jpg,/static/Category_learning/Stimuli/Experimental_stims/tent/9238gh948h.jpg,/static/Category_learning/Stimuli/Experimental_stims/dresser/ADRESSE96.jpg,1,tent,dresser,60,80,tent7,dresser6,80,80,0,174.29,0.29,,,,,,
,5,confirmation,,html-keyboard-response,153,95665,0.0-1.0-30.0-0.0-1.0-0.0,,null,,,null,28,,,,,,,,,,,,,,,,,,,,,,,,,,,,,,,,175.5,1.21,,,,,,
,5,isi,,html-keyboard-response,154,95770,0.0-1.0-30.0-0.0-2.0,,null,,,null,,,,,,,,,,,,,,,,,,,,,,,,,,,,,,,,,177,1.5,,,,,,
,5,feedback,,html-keyboard-response,155,96778,0.0-1.0-30.0-0.0-3.0-0.0,,null,,,null,28,,,,,,,,,,,,,,,,,,,,,,,,,,,,,,,,178,1,,,,,,
,5,iti,,html-keyboard-response,156,96886,0.0-1.0-30.0-0.0-5.0,,null,,,null,,,,,,,,,,,,,,,,,,,,,,,,,,,,,,,,,179.5,1.5,,,,,,
,5,choice,,html-keyboard-response,157,96937,0.0-1.0-31.0-0.0-0.0,,47,,,50,29,334,1000,1500,0,6,0,40-80,,0,necklace,desk,40,80,necklace1,desk14,40,60,26443173.thl.jpg,26419960.thl.jpg,/static/Category_learning/Stimuli/Experimental_stims/necklace/26443173.thl.jpg,/static/Category_learning/Stimuli/Experimental_stims/desk/26419960.thl.jpg,1,necklace,desk,40,80,necklace1,desk14,40,60,0,179.547,0.047,,,,,,
,5,confirmation,,html-keyboard-response,158,98394,0.0-1.0-31.0-0.0-1.0-0.0,,null,,,null,29,,,,,,,,,,,,,,,,,,,,,,,,,,,,,,,,181,1.453,,,,,,
,5,isi,,html-keyboard-response,159,98499,0.0-1.0-31.0-0.0-2.0,,null,,,null,,,,,,,,,,,,,,,,,,,,,,,,,,,,,,,,,182,1,,,,,,
,5,feedback,,html-keyboard-response,160,99505,0.0-1.0-31.0-0.0-3.0-0.0,,null,,,null,29,,,,,,,,,,,,,,,,,,,,,,,,,,,,,,,,183,1,,,,,,
,5,iti,,html-keyboard-response,161,99611,0.0-1.0-31.0-0.0-5.0,,null,,,null,,,,,,,,,,,,,,,,,,,,,,,,,,,,,,,,,184.5,1.5,,,,,,
,5,choice,,html-keyboard-response,162,99930,0.0-1.0-32.0-0.0-0.0,,315,,,50,30,335,1000,3500,0,6,0,40-80,,1,fan,sofa,80,40,fan13,sofa3,80,40,511976_sk_lg.jpg,ACOUCH14.jpg,/static/Category_learning/Stimuli/Experimental_stims/fan/511976_sk_lg.jpg,/static/Category_learning/Stimuli/Experimental_stims/sofa/ACOUCH14.jpg,1,fan,sofa,80,40,fan13,sofa3,80,40,0,184.815,0.315,,,,,,
,5,confirmation,,html-keyboard-response,163,101119,0.0-1.0-32.0-0.0-1.0-0.0,,null,,,null,30,,,,,,,,,,,,,,,,,,,,,,,,,,,,,,,,186,1.185,,,,,,
,5,isi,,html-keyboard-response,164,101223,0.0-1.0-32.0-0.0-2.0,,null,,,null,,,,,,,,,,,,,,,,,,,,,,,,,,,,,,,,,187,1,,,,,,
,5,feedback,,html-keyboard-response,165,102228,0.0-1.0-32.0-0.0-3.0-0.0,,null,,,null,30,,,,,,,,,,,,,,,,,,,,,,,,,,,,,,,,188,1,,,,,,
,5,iti,,html-keyboard-response,166,102333,0.0-1.0-32.0-0.0-5.0,,null,,,null,,,,,,,,,,,,,,,,,,,,,,,,,,,,,,,,,191.5,3.5,,,,,,
,5,choice,,html-keyboard-response,167,102464,0.0-1.0-33.0-0.0-0.0,,126,,,50,31,336,1500,3000,0,6,1,40-40,1,NaN,necklace,necklace,40,40,necklace2,necklace8,20,40,Anecklace7.jpg,Anecklace20.jpg,/static/Category_learning/Stimuli/Experimental_stims/necklace/Anecklace7.jpg,/static/Category_learning/Stimuli/Experimental_stims/necklace/Anecklace20.jpg,1,necklace,necklace,40,40,necklace2,necklace8,20,40,0,191.626,0.126,,,,,,
,5,confirmation,,html-keyboard-response,168,103845,0.0-1.0-33.0-0.0-1.0-0.0,,null,,,null,31,,,,,,,,,,,,,,,,,,,,,,,,,,,,,,,,193,1.374,,,,,,
,5,isi,,html-keyboard-response,169,103953,0.0-1.0-33.0-0.0-2.0,,null,,,null,,,,,,,,,,,,,,,,,,,,,,,,,,,,,,,,,194.5,1.5,,,,,,
,5,feedback,,html-keyboard-response,170,104960,0.0-1.0-33.0-0.0-3.0-0.0,,null,,,null,31,,,,,,,,,,,,,,,,,,,,,,,,,,,,,,,,195.5,1,,,,,,
,5,iti,,html-keyboard-response,171,105068,0.0-1.0-33.0-0.0-5.0,,null,,,null,,,,,,,,,,,,,,,,,,,,,,,,,,,,,,,,,198.5,3,,,,,,
,5,choice,,html-keyboard-response,172,105315,0.0-1.0-34.0-0.0-0.0,,240,,,50,32,337,1500,1000,0,6,0,40-60,,1,trumpet,poker card,60,40,trumpet7,poker card10,60,20,JTP-606MRS.jpg,22864488.thl.jpg,/static/Category_learning/Stimuli/Experimental_stims/trumpet/JTP-606MRS.jpg,/static/Category_learning/Stimuli/Experimental_stims/poker card/22864488.thl.jpg,1,trumpet,poker card,60,40,trumpet7,poker card10,60,20,0,198.74,0.24,,,,,,
,5,confirmation,,html-keyboard-response,173,106584,0.0-1.0-34.0-0.0-1.0-0.0,,null,,,null,32,,,,,,,,,,,,,,,,,,,,,,,,,,,,,,,,200,1.26,,,,,,
,5,isi,,html-keyboard-response,174,106690,0.0-1.0-34.0-0.0-2.0,,null,,,null,,,,,,,,,,,,,,,,,,,,,,,,,,,,,,,,,201.5,1.5,,,,,,
,5,feedback,,html-keyboard-response,175,107698,0.0-1.0-34.0-0.0-3.0-0.0,,null,,,null,32,,,,,,,,,,,,,,,,,,,,,,,,,,,,,,,,202.5,1,,,,,,
,5,iti,,html-keyboard-response,176,107801,0.0-1.0-34.0-0.0-5.0,,null,,,null,,,,,,,,,,,,,,,,,,,,,,,,,,,,,,,,,203.5,1,,,,,,
,5,choice,,html-keyboard-response,177,108141,0.0-1.0-35.0-0.0-0.0,,336,,,50,33,338,1000,1000,0,6,0,20-80,,0,frame,bowl,20,80,frame8,bowl5,20,100,AFRAME154.jpg,AWOODBOWL.jpg,/static/Category_learning/Stimuli/Experimental_stims/frame/AFRAME154.jpg,/static/Category_learning/Stimuli/Experimental_stims/bowl/AWOODBOWL.jpg,1,frame,bowl,20,80,frame8,bowl5,20,100,0,203.836,0.336,,,,,,
,5,confirmation,,html-keyboard-response,178,109309,0.0-1.0-35.0-0.0-1.0-0.0,,null,,,null,33,,,,,,,,,,,,,,,,,,,,,,,,,,,,,,,,205,1.164,,,,,,
,5,isi,,html-keyboard-response,179,109413,0.0-1.0-35.0-0.0-2.0,,null,,,null,,,,,,,,,,,,,,,,,,,,,,,,,,,,,,,,,206,1,,,,,,
,5,feedback,,html-keyboard-response,180,110419,0.0-1.0-35.0-0.0-3.0-0.0,,null,,,null,33,,,,,,,,,,,,,,,,,,,,,,,,,,,,,,,,207,1,,,,,,
,5,iti,,html-keyboard-response,181,110525,0.0-1.0-35.0-0.0-5.0,,null,,,null,,,,,,,,,,,,,,,,,,,,,,,,,,,,,,,,,208,1,,,,,,
,5,choice,,html-keyboard-response,182,110603,0.0-1.0-36.0-0.0-0.0,,74,,,50,34,339,3500,1000,0,6,1,80-80,1,NaN,fan,fan,80,80,fan1,fan13,60,80,01393.fpx.jpg,511976_sk_lg.jpg,/static/Category_learning/Stimuli/Experimental_stims/fan/01393.fpx.jpg,/static/Category_learning/Stimuli/Experimental_stims/fan/511976_sk_lg.jpg,1,fan,fan,80,80,fan1,fan13,60,80,0,208.074,0.074,,,,,,
,5,confirmation,,html-keyboard-response,183,112036,0.0-1.0-36.0-0.0-1.0-0.0,,null,,,null,34,,,,,,,,,,,,,,,,,,,,,,,,,,,,,,,,209.5,1.426,,,,,,
,5,isi,,html-keyboard-response,184,112140,0.0-1.0-36.0-0.0-2.0,,null,,,null,,,,,,,,,,,,,,,,,,,,,,,,,,,,,,,,,213,3.5,,,,,,
,5,feedback,,html-keyboard-response,185,113145,0.0-1.0-36.0-0.0-3.0-0.0,,null,,,null,34,,,,,,,,,,,,,,,,,,,,,,,,,,,,,,,,214,1,,,,,,
,5,iti,,html-keyboard-response,186,113252,0.0-1.0-36.0-0.0-5.0,,null,,,null,,,,,,,,,,,,,,,,,,,,,,,,,,,,,,,,,215,1,,,,,,
,5,choice,,html-keyboard-response,187,113524,0.0-1.0-37.0-0.0-0.0,,267,,,50,35,340,1000,3500,0,6,0,40-80,,0,poker card,bongo,40,80,poker card14,bongo14,60,60,22864248.thl.jpg,26390667.thl.jpg,/static/Category_learning/Stimuli/Experimental_stims/poker card/22864248.thl.jpg,/static/Category_learning/Stimuli/Experimental_stims/bongo/26390667.thl.jpg,1,poker card,bongo,40,80,poker card14,bongo14,60,60,0,215.267,0.267,,,,,,
,5,confirmation,,html-keyboard-response,188,114761,0.0-1.0-37.0-0.0-1.0-0.0,,null,,,null,35,,,,,,,,,,,,,,,,,,,,,,,,,,,,,,,,216.5,1.233,,,,,,
,5,isi,,html-keyboard-response,189,114865,0.0-1.0-37.0-0.0-2.0,,null,,,null,,,,,,,,,,,,,,,,,,,,,,,,,,,,,,,,,217.5,1,,,,,,
,5,feedback,,html-keyboard-response,190,115870,0.0-1.0-37.0-0.0-3.0-0.0,,null,,,null,35,,,,,,,,,,,,,,,,,,,,,,,,,,,,,,,,218.5,1,,,,,,
,5,iti,,html-keyboard-response,191,115978,0.0-1.0-37.0-0.0-5.0,,null,,,null,,,,,,,,,,,,,,,,,,,,,,,,,,,,,,,,,222,3.5,,,,,,
,5,choice,,html-keyboard-response,192,116127,0.0-1.0-38.0-0.0-0.0,,143,,,50,36,341,2000,1000,0,6,1,20-20,1,NaN,frame,frame,20,20,frame14,frame8,20,20,AFRAME129.jpg,AFRAME154.jpg,/static/Category_learning/Stimuli/Experimental_stims/frame/AFRAME129.jpg,/static/Category_learning/Stimuli/Experimental_stims/frame/AFRAME154.jpg,1,frame,frame,20,20,frame14,frame8,20,20,0,222.143,0.143,,,,,,
,5,confirmation,,html-keyboard-response,193,117489,0.0-1.0-38.0-0.0-1.0-0.0,,null,,,null,36,,,,,,,,,,,,,,,,,,,,,,,,,,,,,,,,223.5,1.357,,,,,,
,5,isi,,html-keyboard-response,194,117593,0.0-1.0-38.0-0.0-2.0,,null,,,null,,,,,,,,,,,,,,,,,,,,,,,,,,,,,,,,,225.5,2,,,,,,
,5,feedback,,html-keyboard-response,195,118601,0.0-1.0-38.0-0.0-3.0-0.0,,null,,,null,36,,,,,,,,,,,,,,,,,,,,,,,,,,,,,,,,226.5,1,,,,,,
,5,iti,,html-keyboard-response,196,118707,0.0-1.0-38.0-0.0-5.0,,null,,,null,,,,,,,,,,,,,,,,,,,,,,,,,,,,,,,,,227.5,1,,,,,,
,5,choice,,html-keyboard-response,197,118736,0.0-1.0-39.0-0.0-0.0,,24,,,51,37,342,1500,1000,0,6,1,40-80,0,NaN,bench,necklace,80,40,bench15,necklace1,80,40,Abench12.jpg,26443173.thl.jpg,/static/Category_learning/Stimuli/Experimental_stims/bench/Abench12.jpg,/static/Category_learning/Stimuli/Experimental_stims/necklace/26443173.thl.jpg,0,necklace,bench,40,80,necklace1,bench15,40,80,0,227.524,0.024,,,,,,
,5,confirmation,,html-keyboard-response,198,120221,0.0-1.0-39.0-0.0-1.0-0.0,,null,,,null,37,,,,,,,,,,,,,,,,,,,,,,,,,,,,,,,,229,1.476,,,,,,
,5,isi,,html-keyboard-response,199,120328,0.0-1.0-39.0-0.0-2.0,,null,,,null,,,,,,,,,,,,,,,,,,,,,,,,,,,,,,,,,230.5,1.5,,,,,,
,5,feedback,,html-keyboard-response,200,121332,0.0-1.0-39.0-0.0-3.0-0.0,,null,,,null,37,,,,,,,,,,,,,,,,,,,,,,,,,,,,,,,,231.5,1,,,,,,
,5,iti,,html-keyboard-response,201,121435,0.0-1.0-39.0-0.0-5.0,,null,,,null,,,,,,,,,,,,,,,,,,,,,,,,,,,,,,,,,232.5,1,,,,,,
,5,choice,,html-keyboard-response,202,121609,0.0-1.0-40.0-0.0-0.0,,170,,,51,38,343,1000,2000,0,6,0,20-80,,1,dresser,hat,80,20,dresser1,hat15,60,0,ADRESSE52.jpg,AFISHHAT2.jpg,/static/Category_learning/Stimuli/Experimental_stims/dresser/ADRESSE52.jpg,/static/Category_learning/Stimuli/Experimental_stims/hat/AFISHHAT2.jpg,0,hat,dresser,20,80,hat15,dresser1,0,60,0,232.67,0.17,,,,,,
,5,confirmation,,html-keyboard-response,203,122947,0.0-1.0-40.0-0.0-1.0-0.0,,null,,,null,38,,,,,,,,,,,,,,,,,,,,,,,,,,,,,,,,234,1.33,,,,,,
,5,isi,,html-keyboard-response,204,123053,0.0-1.0-40.0-0.0-2.0,,null,,,null,,,,,,,,,,,,,,,,,,,,,,,,,,,,,,,,,235,1,,,,,,
,5,feedback,,html-keyboard-response,205,124061,0.0-1.0-40.0-0.0-3.0-0.0,,null,,,null,38,,,,,,,,,,,,,,,,,,,,,,,,,,,,,,,,236,1,,,,,,
,5,iti,,html-keyboard-response,206,124166,0.0-1.0-40.0-0.0-5.0,,null,,,null,,,,,,,,,,,,,,,,,,,,,,,,,,,,,,,,,238,2,,,,,,
,5,choice,,html-keyboard-response,207,124457,0.0-1.0-41.0-0.0-0.0,,288,,,51,39,344,1000,3000,0,6,1,20-80,0,NaN,hat,bowl,20,80,hat15,bowl9,0,80,AFISHHAT2.jpg,21123_285.jpg,/static/Category_learning/Stimuli/Experimental_stims/hat/AFISHHAT2.jpg,/static/Category_learning/Stimuli/Experimental_stims/bowl/21123_285.jpg,0,bowl,hat,80,20,bowl9,hat15,80,0,0,238.288,0.288,,,,,,
,5,confirmation,,html-keyboard-response,208,125677,0.0-1.0-41.0-0.0-1.0-0.0,,null,,,null,39,,,,,,,,,,,,,,,,,,,,,,,,,,,,,,,,239.5,1.212,,,,,,
,5,isi,,html-keyboard-response,209,125783,0.0-1.0-41.0-0.0-2.0,,null,,,null,,,,,,,,,,,,,,,,,,,,,,,,,,,,,,,,,240.5,1,,,,,,
,5,feedback,,html-keyboard-response,210,126788,0.0-1.0-41.0-0.0-3.0-0.0,,null,,,null,39,,,,,,,,,,,,,,,,,,,,,,,,,,,,,,,,241.5,1,,,,,,
,5,iti,,html-keyboard-response,211,126893,0.0-1.0-41.0-0.0-5.0,,null,,,null,,,,,,,,,,,,,,,,,,,,,,,,,,,,,,,,,244.5,3,,,,,,
,5,choice,,html-keyboard-response,212,127088,0.0-1.0-42.0-0.0-0.0,,192,,,51,40,345,1000,2000,0,6,0,40-80,,0,power strip,fan,40,80,power strip1,fan8,20,100,6a30daf6-943c-4ced-bfa0-c42f35b22380_400.jpg,f_tf1224_angle.jpg,/static/Category_learning/Stimuli/Experimental_stims/power strip/6a30daf6-943c-4ced-bfa0-c42f35b22380_400.jpg,/static/Category_learning/Stimuli/Experimental_stims/fan/f_tf1224_angle.jpg,0,fan,power strip,80,40,fan8,power strip1,100,20,0,244.692,0.192,,,,,,
,5,confirmation,,html-keyboard-response,213,128403,0.0-1.0-42.0-0.0-1.0-0.0,,null,,,null,40,,,,,,,,,,,,,,,,,,,,,,,,,,,,,,,,246,1.308,,,,,,
,5,isi,,html-keyboard-response,214,128510,0.0-1.0-42.0-0.0-2.0,,null,,,null,,,,,,,,,,,,,,,,,,,,,,,,,,,,,,,,,247,1,,,,,,
,5,feedback,,html-keyboard-response,215,129519,0.0-1.0-42.0-0.0-3.0-0.0,,null,,,null,40,,,,,,,,,,,,,,,,,,,,,,,,,,,,,,,,248,1,,,,,,
,5,iti,,html-keyboard-response,216,129624,0.0-1.0-42.0-0.0-5.0,,null,,,null,,,,,,,,,,,,,,,,,,,,,,,,,,,,,,,,,250,2,,,,,,
,5,choice,,html-keyboard-response,217,129768,0.0-1.0-43.0-0.0-0.0,,139,,,51,41,346,3000,3000,0,6,0,40-80,,0,patio lounge chair,bench,40,80,patio lounge chair1,bench3,60,60,product1-s.jpg,26419540.thl.jpg,/static/Category_learning/Stimuli/Experimental_stims/patio lounge chair/product1-s.jpg,/static/Category_learning/Stimuli/Experimental_stims/bench/26419540.thl.jpg,0,bench,patio lounge chair,80,40,bench3,patio lounge chair1,60,60,0,250.139,0.139,,,,,,
,5,confirmation,,html-keyboard-response,218,131135,0.0-1.0-43.0-0.0-1.0-0.0,,null,,,null,41,,,,,,,,,,,,,,,,,,,,,,,,,,,,,,,,251.5,1.361,,,,,,
,5,isi,,html-keyboard-response,219,131239,0.0-1.0-43.0-0.0-2.0,,null,,,null,,,,,,,,,,,,,,,,,,,,,,,,,,,,,,,,,254.5,3,,,,,,
,5,feedback,,html-keyboard-response,220,132245,0.0-1.0-43.0-0.0-3.0-0.0,,null,,,null,41,,,,,,,,,,,,,,,,,,,,,,,,,,,,,,,,255.5,1,,,,,,
,5,iti,,html-keyboard-response,221,132352,0.0-1.0-43.0-0.0-5.0,,null,,,null,,,,,,,,,,,,,,,,,,,,,,,,,,,,,,,,,258.5,3,,,,,,
,5,choice,,html-keyboard-response,222,132845,0.0-1.0-44.0-0.0-0.0,,490,,,51,42,347,1500,1000,0,6,0,20-60,,0,frame,stool,20,60,frame10,stool1,0,80,AFRAME107.jpg,ASTOOL42.jpg,/static/Category_learning/Stimuli/Experimental_stims/frame/AFRAME107.jpg,/static/Category_learning/Stimuli/Experimental_stims/stool/ASTOOL42.jpg,0,stool,frame,60,20,stool1,frame10,80,0,0,258.99,0.49,,,,,,
,5,confirmation,,html-keyboard-response,223,133861,0.0-1.0-44.0-0.0-1.0-0.0,,null,,,null,42,,,,,,,,,,,,,,,,,,,,,,,,,,,,,,,,260,1.01,,,,,,
,5,isi,,html-keyboard-response,224,133965,0.0-1.0-44.0-0.0-2.0,,null,,,null,,,,,,,,,,,,,,,,,,,,,,,,,,,,,,,,,261.5,1.5,,,,,,
,5,feedback,,html-keyboard-response,225,134969,0.0-1.0-44.0-0.0-3.0-0.0,,null,,,null,42,,,,,,,,,,,,,,,,,,,,,,,,,,,,,,,,262.5,1,,,,,,
,5,iti,,html-keyboard-response,226,135074,0.0-1.0-44.0-0.0-5.0,,null,,,null,,,,,,,,,,,,,,,,,,,,,,,,,,,,,,,,,263.5,1,,,,,,
,5,choice,,html-keyboard-response,227,135350,0.0-1.0-45.0-0.0-0.0,,272,,,51,43,348,2000,1500,0,6,1,60-60,1,NaN,stool,stool,60,60,stool5,stool1,80,80,ASTOOL23.jpg,ASTOOL42.jpg,/static/Category_learning/Stimuli/Experimental_stims/stool/ASTOOL23.jpg,/static/Category_learning/Stimuli/Experimental_stims/stool/ASTOOL42.jpg,0,stool,stool,60,60,stool1,stool5,80,80,0,263.772,0.272,,,,,,
,5,confirmation,,html-keyboard-response,228,136583,0.0-1.0-45.0-0.0-1.0-0.0,,null,,,null,43,,,,,,,,,,,,,,,,,,,,,,,,,,,,,,,,265,1.228,,,,,,
,5,isi,,html-keyboard-response,229,136691,0.0-1.0-45.0-0.0-2.0,,null,,,null,,,,,,,,,,,,,,,,,,,,,,,,,,,,,,,,,267,2,,,,,,
,5,feedback,,html-keyboard-response,230,137696,0.0-1.0-45.0-0.0-3.0-0.0,,null,,,null,43,,,,,,,,,,,,,,,,,,,,,,,,,,,,,,,,268,1,,,,,,
,5,iti,,html-keyboard-response,231,137803,0.0-1.0-45.0-0.0-5.0,,null,,,null,,,,,,,,,,,,,,,,,,,,,,,,,,,,,,,,,269.5,1.5,,,,,,
,5,choice,,html-keyboard-response,232,137813,0.0-1.0-46.0-0.0-0.0,,6,,,51,44,349,2000,1500,0,6,0,20-80,,1,bowl,motorcycle,80,20,bowl11,motorcycle12,60,40,Abowl46.jpg,motorcycle14.jpg,/static/Category_learning/Stimuli/Experimental_stims/bowl/Abowl46.jpg,/static/Category_learning/Stimuli/Experimental_stims/motorcycle/motorcycle14.jpg,0,motorcycle,bowl,20,80,motorcycle12,bowl11,40,60,0,269.506,0.006,,,,,,
,5,confirmation,,html-keyboard-response,233,139312,0.0-1.0-46.0-0.0-1.0-0.0,,null,,,null,44,,,,,,,,,,,,,,,,,,,,,,,,,,,,,,,,271,1.494,,,,,,
,5,isi,,html-keyboard-response,234,139420,0.0-1.0-46.0-0.0-2.0,,null,,,null,,,,,,,,,,,,,,,,,,,,,,,,,,,,,,,,,273,2,,,,,,
,5,feedback,,html-keyboard-response,235,140427,0.0-1.0-46.0-0.0-3.0-0.0,,null,,,null,44,,,,,,,,,,,,,,,,,,,,,,,,,,,,,,,,274,1,,,,,,
,5,iti,,html-keyboard-response,236,140531,0.0-1.0-46.0-0.0-5.0,,null,,,null,,,,,,,,,,,,,,,,,,,,,,,,,,,,,,,,,275.5,1.5,,,,,,
,5,choice,,html-keyboard-response,237,140733,0.0-1.0-47.0-0.0-0.0,,198,,,51,45,350,1500,1000,0,6,0,40-60,,1,trumpet,sofa,60,40,trumpet9,sofa13,80,20,trumpet3.jpg,ACOUCH25.jpg,/static/Category_learning/Stimuli/Experimental_stims/trumpet/trumpet3.jpg,/static/Category_learning/Stimuli/Experimental_stims/sofa/ACOUCH25.jpg,0,sofa,trumpet,40,60,sofa13,trumpet9,20,80,0,275.698,0.198,,,,,,
,5,confirmation,,html-keyboard-response,238,142044,0.0-1.0-47.0-0.0-1.0-0.0,,null,,,null,45,,,,,,,,,,,,,,,,,,,,,,,,,,,,,,,,277,1.302,,,,,,
,5,isi,,html-keyboard-response,239,142152,0.0-1.0-47.0-0.0-2.0,,null,,,null,,,,,,,,,,,,,,,,,,,,,,,,,,,,,,,,,278.5,1.5,,,,,,
,5,feedback,,html-keyboard-response,240,143161,0.0-1.0-47.0-0.0-3.0-0.0,,null,,,null,45,,,,,,,,,,,,,,,,,,,,,,,,,,,,,,,,279.5,1,,,,,,
,5,iti,,html-keyboard-response,241,143267,0.0-1.0-47.0-0.0-5.0,,null,,,null,,,,,,,,,,,,,,,,,,,,,,,,,,,,,,,,,280.5,1,,,,,,
,5,choice,,html-keyboard-response,242,143599,0.0-1.0-48.0-0.0-0.0,,329,,,51,46,351,1000,3500,0,6,0,80-80,,NaN,desk,door knob,80,80,desk11,door knob8,80,60,Writing_Desk_280_Cutout_Sideview_half.jpg,pro_l_116_medeco437ul.jpg,/static/Category_learning/Stimuli/Experimental_stims/desk/Writing_Desk_280_Cutout_Sideview_half.jpg,/static/Category_learning/Stimuli/Experimental_stims/door knob/pro_l_116_medeco437ul.jpg,0,door knob,desk,80,80,door knob8,desk11,60,80,0,280.829,0.329,,,,,,
,5,confirmation,,html-keyboard-response,243,144779,0.0-1.0-48.0-0.0-1.0-0.0,,null,,,null,46,,,,,,,,,,,,,,,,,,,,,,,,,,,,,,,,282,1.171,,,,,,
,5,isi,,html-keyboard-response,244,144885,0.0-1.0-48.0-0.0-2.0,,null,,,null,,,,,,,,,,,,,,,,,,,,,,,,,,,,,,,,,283,1,,,,,,
,5,feedback,,html-keyboard-response,245,145894,0.0-1.0-48.0-0.0-3.0-0.0,,null,,,null,46,,,,,,,,,,,,,,,,,,,,,,,,,,,,,,,,284,1,,,,,,
,5,iti,,html-keyboard-response,246,146000,0.0-1.0-48.0-0.0-5.0,,null,,,null,,,,,,,,,,,,,,,,,,,,,,,,,,,,,,,,,287.5,3.5,,,,,,
,5,choice,,html-keyboard-response,247,146282,0.0-1.0-49.0-0.0-0.0,,276,,,51,47,352,3500,2000,0,6,0,40-60,,0,poker card,train,40,60,poker card9,train5,60,40,9817230.thl.jpg,thumb-briolightsoundsteamengine.jpg,/static/Category_learning/Stimuli/Experimental_stims/poker card/9817230.thl.jpg,/static/Category_learning/Stimuli/Experimental_stims/train/thumb-briolightsoundsteamengine.jpg,0,train,poker card,60,40,train5,poker card9,40,60,0,287.776,0.276,,,,,,
,5,confirmation,,html-keyboard-response,248,147512,0.0-1.0-49.0-0.0-1.0-0.0,,null,,,null,47,,,,,,,,,,,,,,,,,,,,,,,,,,,,,,,,289,1.224,,,,,,
,5,isi,,html-keyboard-response,249,147620,0.0-1.0-49.0-0.0-2.0,,null,,,null,,,,,,,,,,,,,,,,,,,,,,,,,,,,,,,,,292.5,3.5,,,,,,
,5,feedback,,html-keyboard-response,250,148627,0.0-1.0-49.0-0.0-3.0-0.0,,null,,,null,47,,,,,,,,,,,,,,,,,,,,,,,,,,,,,,,,293.5,1,,,,,,
,5,iti,,html-keyboard-response,251,148731,0.0-1.0-49.0-0.0-5.0,,null,,,null,,,,,,,,,,,,,,,,,,,,,,,,,,,,,,,,,295.5,2,,,,,,
,5,choice,,html-keyboard-response,252,148889,0.0-1.0-50.0-0.0-0.0,,155,,,51,48,353,1000,1000,0,6,0,60-60,,NaN,yarn,telescope,60,60,yarn12,telescope1,40,60,Aballofyarn35.jpg,celestron nexstar 114 gt reflector telescope.jpg,/static/Category_learning/Stimuli/Experimental_stims/yarn/Aballofyarn35.jpg,/static/Category_learning/Stimuli/Experimental_stims/telescope/celestron nexstar 114 gt reflector telescope.jpg,0,telescope,yarn,60,60,telescope1,yarn12,60,40,0,295.655,0.155,,,,,,
,5,confirmation,,html-keyboard-response,253,150238,0.0-1.0-50.0-0.0-1.0-0.0,,null,,,null,48,,,,,,,,,,,,,,,,,,,,,,,,,,,,,,,,297,1.345,,,,,,
,5,isi,,html-keyboard-response,254,150345,0.0-1.0-50.0-0.0-2.0,,null,,,null,,,,,,,,,,,,,,,,,,,,,,,,,,,,,,,,,298,1,,,,,,
,5,feedback,,html-keyboard-response,255,151353,0.0-1.0-50.0-0.0-3.0-0.0,,null,,,null,48,,,,,,,,,,,,,,,,,,,,,,,,,,,,,,,,299,1,,,,,,
,5,iti,,html-keyboard-response,256,151457,0.0-1.0-50.0-0.0-5.0,,null,,,null,,,,,,,,,,,,,,,,,,,,,,,,,,,,,,,,,300,1,,,,,,
,5,choice,,html-keyboard-response,257,151634,0.0-1.0-51.0-0.0-0.0,,174,,,51,49,354,1000,1500,0,6,0,40-60,,1,tent,necklace,60,40,tent13,necklace15,80,40,camping-tent-north-star.jpg,necklascenew04.jpg,/static/Category_learning/Stimuli/Experimental_stims/tent/camping-tent-north-star.jpg,/static/Category_learning/Stimuli/Experimental_stims/necklace/necklascenew04.jpg,0,necklace,tent,40,60,necklace15,tent13,40,80,0,300.174,0.174,,,,,,
,5,confirmation,,html-keyboard-response,258,152965,0.0-1.0-51.0-0.0-1.0-0.0,,null,,,null,49,,,,,,,,,,,,,,,,,,,,,,,,,,,,,,,,301.5,1.326,,,,,,
,5,isi,,html-keyboard-response,259,153069,0.0-1.0-51.0-0.0-2.0,,null,,,null,,,,,,,,,,,,,,,,,,,,,,,,,,,,,,,,,302.5,1,,,,,,
,5,feedback,,html-keyboard-response,260,154079,0.0-1.0-51.0-0.0-3.0-0.0,,null,,,null,49,,,,,,,,,,,,,,,,,,,,,,,,,,,,,,,,303.5,1,,,,,,
,5,iti,,html-keyboard-response,261,154184,0.0-1.0-51.0-0.0-5.0,,null,,,null,,,,,,,,,,,,,,,,,,,,,,,,,,,,,,,,,305,1.5,,,,,,
,5,choice,,html-keyboard-response,262,154310,0.0-1.0-52.0-0.0-0.0,,122,,,51,50,355,1000,1000,0,6,0,20-40,,1,nail polish,motorcycle,40,20,nail polish1,motorcycle3,60,40,200.jpg,motorcycle40.jpg,/static/Category_learning/Stimuli/Experimental_stims/nail polish/200.jpg,/static/Category_learning/Stimuli/Experimental_stims/motorcycle/motorcycle40.jpg,0,motorcycle,nail polish,20,40,motorcycle3,nail polish1,40,60,0,305.122,0.122,,,,,,
,5,confirmation,,html-keyboard-response,263,155693,0.0-1.0-52.0-0.0-1.0-0.0,,null,,,null,50,,,,,,,,,,,,,,,,,,,,,,,,,,,,,,,,306.5,1.378,,,,,,
,5,isi,,html-keyboard-response,264,155798,0.0-1.0-52.0-0.0-2.0,,null,,,null,,,,,,,,,,,,,,,,,,,,,,,,,,,,,,,,,307.5,1,,,,,,
,5,feedback,,html-keyboard-response,265,156806,0.0-1.0-52.0-0.0-3.0-0.0,,null,,,null,50,,,,,,,,,,,,,,,,,,,,,,,,,,,,,,,,308.5,1,,,,,,
,5,iti,,html-keyboard-response,266,156915,0.0-1.0-52.0-0.0-5.0,,null,,,null,,,,,,,,,,,,,,,,,,,,,,,,,,,,,,,,,309.5,1,,,,,,
,5,choice,,html-keyboard-response,267,157016,0.0-1.0-53.0-0.0-0.0,,97,,,51,51,356,1000,1500,0,6,0,40-40,,NaN,necklace,nail polish,40,40,necklace4,nail polish6,60,20,emerald_diamond_necklace.jpg,127_t.jpg,/static/Category_learning/Stimuli/Experimental_stims/necklace/emerald_diamond_necklace.jpg,/static/Category_learning/Stimuli/Experimental_stims/nail polish/127_t.jpg,0,nail polish,necklace,40,40,nail polish6,necklace4,20,60,0,309.597,0.097,,,,,,
,5,confirmation,,html-keyboard-response,268,158428,0.0-1.0-53.0-0.0-1.0-0.0,,null,,,null,51,,,,,,,,,,,,,,,,,,,,,,,,,,,,,,,,311,1.403,,,,,,
,5,isi,,html-keyboard-response,269,158535,0.0-1.0-53.0-0.0-2.0,,null,,,null,,,,,,,,,,,,,,,,,,,,,,,,,,,,,,,,,312,1,,,,,,
,5,feedback,,html-keyboard-response,270,159541,0.0-1.0-53.0-0.0-3.0-0.0,,null,,,null,51,,,,,,,,,,,,,,,,,,,,,,,,,,,,,,,,313,1,,,,,,
,5,iti,,html-keyboard-response,271,159648,0.0-1.0-53.0-0.0-5.0,,null,,,null,,,,,,,,,,,,,,,,,,,,,,,,,,,,,,,,,314.5,1.5,,,,,,
,5,choice,,html-keyboard-response,272,159905,0.0-1.0-54.0-0.0-0.0,,252,,,51,52,357,1000,1000,0,6,1,20-20,1,NaN,motorcycle,motorcycle,20,20,motorcycle12,motorcycle3,40,40,motorcycle14.jpg,motorcycle40.jpg,/static/Category_learning/Stimuli/Experimental_stims/motorcycle/motorcycle14.jpg,/static/Category_learning/Stimuli/Experimental_stims/motorcycle/motorcycle40.jpg,0,motorcycle,motorcycle,20,20,motorcycle3,motorcycle12,40,40,0,314.752,0.252,,,,,,
,5,confirmation,,html-keyboard-response,273,161159,0.0-1.0-54.0-0.0-1.0-0.0,,null,,,null,52,,,,,,,,,,,,,,,,,,,,,,,,,,,,,,,,316,1.248,,,,,,
,5,isi,,html-keyboard-response,274,161265,0.0-1.0-54.0-0.0-2.0,,null,,,null,,,,,,,,,,,,,,,,,,,,,,,,,,,,,,,,,317,1,,,,,,
,5,feedback,,html-keyboard-response,275,162270,0.0-1.0-54.0-0.0-3.0-0.0,,null,,,null,52,,,,,,,,,,,,,,,,,,,,,,,,,,,,,,,,318,1,,,,,,
,5,iti,,html-keyboard-response,276,162376,0.0-1.0-54.0-0.0-5.0,,null,,,null,,,,,,,,,,,,,,,,,,,,,,,,,,,,,,,,,319,1,,,,,,
,5,choice,,html-keyboard-response,277,162673,0.0-1.0-55.0-0.0-0.0,,293,,,51,53,358,3000,2000,0,6,1,40-80,0,NaN,sofa,door knob,40,80,sofa13,door knob8,20,60,ACOUCH25.jpg,pro_l_116_medeco437ul.jpg,/static/Category_learning/Stimuli/Experimental_stims/sofa/ACOUCH25.jpg,/static/Category_learning/Stimuli/Experimental_stims/door knob/pro_l_116_medeco437ul.jpg,0,door knob,sofa,80,40,door knob8,sofa13,60,20,0,319.293,0.293,,,,,,
,5,confirmation,,html-keyboard-response,278,163887,0.0-1.0-55.0-0.0-1.0-0.0,,null,,,null,53,,,,,,,,,,,,,,,,,,,,,,,,,,,,,,,,320.5,1.207,,,,,,
,5,isi,,html-keyboard-response,279,163992,0.0-1.0-55.0-0.0-2.0,,null,,,null,,,,,,,,,,,,,,,,,,,,,,,,,,,,,,,,,323.5,3,,,,,,
,5,feedback,,html-keyboard-response,280,165000,0.0-1.0-55.0-0.0-3.0-0.0,,null,,,null,53,,,,,,,,,,,,,,,,,,,,,,,,,,,,,,,,324.5,1,,,,,,
,5,iti,,html-keyboard-response,281,165106,0.0-1.0-55.0-0.0-5.0,,null,,,null,,,,,,,,,,,,,,,,,,,,,,,,,,,,,,,,,326.5,2,,,,,,
,5,choice,,html-keyboard-response,282,165354,0.0-1.0-56.0-0.0-0.0,,243,,,51,54,359,3000,1000,0,6,0,40-60,,0,seashell,watch,40,60,seashell6,watch12,40,80,PY2H1461.jpg,snl003_MED.jpg,/static/Category_learning/Stimuli/Experimental_stims/seashell/PY2H1461.jpg,/static/Category_learning/Stimuli/Experimental_stims/watch/snl003_MED.jpg,0,watch,seashell,60,40,watch12,seashell6,80,40,0,326.743,0.243,,,,,,
,5,confirmation,,html-keyboard-response,283,166619,0.0-1.0-56.0-0.0-1.0-0.0,,null,,,null,54,,,,,,,,,,,,,,,,,,,,,,,,,,,,,,,,328,1.257,,,,,,
,5,isi,,html-keyboard-response,284,166727,0.0-1.0-56.0-0.0-2.0,,null,,,null,,,,,,,,,,,,,,,,,,,,,,,,,,,,,,,,,331,3,,,,,,
,5,feedback,,html-keyboard-response,285,167734,0.0-1.0-56.0-0.0-3.0-0.0,,null,,,null,54,,,,,,,,,,,,,,,,,,,,,,,,,,,,,,,,332,1,,,,,,
,5,iti,,html-keyboard-response,286,167842,0.0-1.0-56.0-0.0-5.0,,null,,,null,,,,,,,,,,,,,,,,,,,,,,,,,,,,,,,,,333,1,,,,,,
,5,choice,,html-keyboard-response,287,168968,0.0-1.0-57.0-0.0-0.0,,1122,,,51,55,360,2000,1500,0,6,1,40-60,0,NaN,nail polish,trumpet,40,60,nail polish6,trumpet7,20,60,127_t.jpg,JTP-606MRS.jpg,/static/Category_learning/Stimuli/Experimental_stims/nail polish/127_t.jpg,/static/Category_learning/Stimuli/Experimental_stims/trumpet/JTP-606MRS.jpg,0,trumpet,nail polish,60,40,trumpet7,nail polish6,60,20,0,334.122,1.122,,,,,,
,5,confirmation,,html-keyboard-response,288,169356,0.0-1.0-57.0-0.0-1.0-0.0,,null,,,null,55,,,,,,,,,,,,,,,,,,,,,,,,,,,,,,,,334.5,0.378,,,,,,
,5,isi,,html-keyboard-response,289,169464,0.0-1.0-57.0-0.0-2.0,,null,,,null,,,,,,,,,,,,,,,,,,,,,,,,,,,,,,,,,336.5,2,,,,,,
,5,feedback,,html-keyboard-response,290,170472,0.0-1.0-57.0-0.0-3.0-0.0,,null,,,null,55,,,,,,,,,,,,,,,,,,,,,,,,,,,,,,,,337.5,1,,,,,,
,5,iti,,html-keyboard-response,291,170579,0.0-1.0-57.0-0.0-5.0,,null,,,null,,,,,,,,,,,,,,,,,,,,,,,,,,,,,,,,,339,1.5,,,,,,
,5,choice,,html-keyboard-response,292,171151,0.0-1.0-58.0-0.0-0.0,,568,,,51,56,361,2000,2000,0,6,0,40-60,,1,watch,sofa,60,40,watch1,sofa2,80,40,B000B5K8XI.01-A2E7J74KJYV9ZH._AA280_SCLZZZZZZZ_V53007008_.jpg,ALOVSEA12.jpg,/static/Category_learning/Stimuli/Experimental_stims/watch/B000B5K8XI.01-A2E7J74KJYV9ZH._AA280_SCLZZZZZZZ_V53007008_.jpg,/static/Category_learning/Stimuli/Experimental_stims/sofa/ALOVSEA12.jpg,0,sofa,watch,40,60,sofa2,watch1,40,80,0,339.568,0.568,,,,,,
,5,confirmation,,html-keyboard-response,293,172090,0.0-1.0-58.0-0.0-1.0-0.0,,null,,,null,56,,,,,,,,,,,,,,,,,,,,,,,,,,,,,,,,340.5,0.932,,,,,,
,5,isi,,html-keyboard-response,294,172194,0.0-1.0-58.0-0.0-2.0,,null,,,null,,,,,,,,,,,,,,,,,,,,,,,,,,,,,,,,,342.5,2,,,,,,
,5,feedback,,html-keyboard-response,295,173199,0.0-1.0-58.0-0.0-3.0-0.0,,null,,,null,56,,,,,,,,,,,,,,,,,,,,,,,,,,,,,,,,343.5,1,,,,,,
,5,iti,,html-keyboard-response,296,173303,0.0-1.0-58.0-0.0-5.0,,null,,,null,,,,,,,,,,,,,,,,,,,,,,,,,,,,,,,,,345.5,2,,,,,,
,5,choice,,html-keyboard-response,297,174492,0.0-1.0-59.0-0.0-0.0,,1185,,,51,57,362,1000,2000,0,6,0,20-60,,0,frame,train,20,60,frame11,train3,0,60,AFRAME139.jpg,stackloco.jpg,/static/Category_learning/Stimuli/Experimental_stims/frame/AFRAME139.jpg,/static/Category_learning/Stimuli/Experimental_stims/train/stackloco.jpg,0,train,frame,60,20,train3,frame11,60,0,0,346.685,1.185,,,,,,
,5,confirmation,,html-keyboard-response,298,174813,0.0-1.0-59.0-0.0-1.0-0.0,,null,,,null,57,,,,,,,,,,,,,,,,,,,,,,,,,,,,,,,,347,0.315,,,,,,
,5,isi,,html-keyboard-response,299,174920,0.0-1.0-59.0-0.0-2.0,,null,,,null,,,,,,,,,,,,,,,,,,,,,,,,,,,,,,,,,348,1,,,,,,
,5,feedback,,html-keyboard-response,300,175928,0.0-1.0-59.0-0.0-3.0-0.0,,null,,,null,57,,,,,,,,,,,,,,,,,,,,,,,,,,,,,,,,349,1,,,,,,
,5,iti,,html-keyboard-response,301,176032,0.0-1.0-59.0-0.0-5.0,,null,,,null,,,,,,,,,,,,,,,,,,,,,,,,,,,,,,,,,351,2,,1.46,,,,
,5,final_tally,,html-keyboard-response,302,179922,0.0-2.0-0.0,,3887,,,50,,,,,,,,,,,,,,,,,,,,,,,,,,,,,,,,,,,,,,,,
,5,category_memory_instructions,,instructions,303,181640,0.0-3.0-0.0,"[{""page_index"":0,""viewing_time"":1321},{""page_index"":1,""viewing_time"":194},{""page_index"":2,""viewing_time"":201}]",1716,,,,,,,,,,,,,,,,,,,,,,,,,,,,,,,,,,,,,,,,,,,
,5,category_memory,,survey-text,304,183571,0.0-3.0-1.0-0.0,,1927,"{""Q0"":""""}",,,0,,,,,,,,,,,,,,,,,,,,,,,,,,,,,,,,,,,,license plate,20,NaN,
,5,enter_reponse,,html-keyboard-response,305,779134,0.0-3.0-1.0-1.0-0.0,,595560,,,50,,,,,,,,,,,,,,,,,,,,,,,,,,,,,,,,,,,1,,,,,1
,5,category_memory,,survey-text,306,781559,0.0-3.0-1.1-0.1,,2420,"{""Q0"":""12""}",,,0,,,,,,,,,,,,,,,,,,,,,,,,,,,,,,,,,,,,license plate,20,12,
,5,category_memory,,survey-text,307,782766,0.0-3.0-2.0-0.0,,1201,"{""Q0"":""22""}",,,1,,,,,,,,,,,,,,,,,,,,,,,,,,,,,,,,,,,,sofa,40,22,
,5,category_memory,,survey-text,308,783836,0.0-3.0-3.0-0.0,,1065,"{""Q0"":""1""}",,,2,,,,,,,,,,,,,,,,,,,,,,,,,,,,,,,,,,,,bongo,80,1,
,5,category_memory,,survey-text,309,784798,0.0-3.0-4.0-0.0,,955,"{""Q0"":""2""}",,,3,,,,,,,,,,,,,,,,,,,,,,,,,,,,,,,,,,,,tent,60,2,
,5,category_memory,,survey-text,310,785736,0.0-3.0-5.0-0.0,,932,"{""Q0"":""3""}",,,4,,,,,,,,,,,,,,,,,,,,,,,,,,,,,,,,,,,,necklace,40,3,
,5,category_memory,,survey-text,311,786964,0.0-3.0-6.0-0.0,,1223,"{""Q0"":""44""}",,,5,,,,,,,,,,,,,,,,,,,,,,,,,,,,,,,,,,,,seashell,40,44,
,5,category_memory,,survey-text,312,788435,0.0-3.0-7.0-0.0,,1465,"{""Q0"":""33""}",,,6,,,,,,,,,,,,,,,,,,,,,,,,,,,,,,,,,,,,makeup compact,20,33,
,5,category_memory,,survey-text,313,790072,0.0-3.0-8.0-0.0,,1633,"{""Q0"":""444""}",,,7,,,,,,,,,,,,,,,,,,,,,,,,,,,,,,,,,,,,dresser,80,444,
,5,enter_response_between_range,,html-keyboard-response,314,792030,0.0-3.0-8.0-2.0-0.0,,1954,,,50,,,,,,,,,,,,,,,,,,,,,,,,,,,,,,,,,,,1,,,,,
,5,category_memory,,survey-text,315,793618,0.0-3.0-8.1-0.1,,1585,"{""Q0"":""5""}",,,7,,,,,,,,,,,,,,,,,,,,,,,,,,,,,,,,,,,,dresser,80,5,
,5,category_memory,,survey-text,316,794835,0.0-3.0-9.0-0.0,,1213,"{""Q0"":""55""}",,,8,,,,,,,,,,,,,,,,,,,,,,,,,,,,,,,,,,,,baby carriage,80,55,
,5,category_memory,,survey-text,317,796581,0.0-3.0-10.0-0.0,,1742,"{""Q0"":""12""}",,,9,,,,,,,,,,,,,,,,,,,,,,,,,,,,,,,,,,,,microscope,20,12,
,5,category_memory,,survey-text,318,798908,0.0-3.0-11.0-0.0,,2324,"{""Q0"":""23""}",,,10,,,,,,,,,,,,,,,,,,,,,,,,,,,,,,,,,,,,flashlight,80,23,
,5,category_memory,,survey-text,319,800793,0.0-3.0-12.0-0.0,,1880,"{""Q0"":""34""}",,,11,,,,,,,,,,,,,,,,,,,,,,,,,,,,,,,,,,,,lipstick,20,34,
,5,category_memory,,survey-text,320,803994,0.0-3.0-13.0-0.0,,3196,"{""Q0"":""4""}",,,12,,,,,,,,,,,,,,,,,,,,,,,,,,,,,,,,,,,,frame,20,4,
,5,category_memory,,survey-text,321,805974,0.0-3.0-14.0-0.0,,1975,"{""Q0"":""45""}",,,13,,,,,,,,,,,,,,,,,,,,,,,,,,,,,,,,,,,,desk,80,45,
,5,category_memory,,survey-text,322,815610,0.0-3.0-15.0-0.0,,9633,"{""Q0"":""66""}",,,14,,,,,,,,,,,,,,,,,,,,,,,,,,,,,,,,,,,,poker card,40,66,
,5,category_memory,,survey-text,323,817624,0.0-3.0-16.0-0.0,,2008,"{""Q0"":""76""}",,,15,,,,,,,,,,,,,,,,,,,,,,,,,,,,,,,,,,,,motorcycle,20,76,
,5,category_memory,,survey-text,324,819501,0.0-3.0-17.0-0.0,,1871,"{""Q0"":""88""}",,,16,,,,,,,,,,,,,,,,,,,,,,,,,,,,,,,,,,,,train,60,88,
,5,category_memory,,survey-text,325,821414,0.0-3.0-18.0-0.0,,1907,"{""Q0"":""45""}",,,17,,,,,,,,,,,,,,,,,,,,,,,,,,,,,,,,,,,,key chain,20,45,
,5,category_memory,,survey-text,326,822873,0.0-3.0-19.0-0.0,,1456,"{""Q0"":""34""}",,,18,,,,,,,,,,,,,,,,,,,,,,,,,,,,,,,,,,,,trumpet,60,34,
,5,category_memory,,survey-text,327,825133,0.0-3.0-20.0-0.0,,2254,"{""Q0"":""14""}",,,19,,,,,,,,,,,,,,,,,,,,,,,,,,,,,,,,,,,,small table,40,14,
,5,category_memory,,survey-text,328,826961,0.0-3.0-21.0-0.0,,1822,"{""Q0"":""45""}",,,20,,,,,,,,,,,,,,,,,,,,,,,,,,,,,,,,,,,,power strip,40,45,
,5,category_memory,,survey-text,329,829270,0.0-3.0-22.0-0.0,,2305,"{""Q0"":""45""}",,,21,,,,,,,,,,,,,,,,,,,,,,,,,,,,,,,,,,,,hammer,20,45,
,5,category_memory,,survey-text,330,833251,0.0-3.0-23.0-0.0,,3978,"{""Q0"":""34""}",,,22,,,,,,,,,,,,,,,,,,,,,,,,,,,,,,,,,,,,door knob,80,34,
,5,category_memory,,survey-text,331,834652,0.0-3.0-24.0-0.0,,1397,"{""Q0"":""33""}",,,23,,,,,,,,,,,,,,,,,,,,,,,,,,,,,,,,,,,,pen,40,33,
,5,category_memory,,survey-text,332,836809,0.0-3.0-25.0-0.0,,2153,"{""Q0"":""33""}",,,24,,,,,,,,,,,,,,,,,,,,,,,,,,,,,,,,,,,,stool,60,33,
,5,category_memory,,survey-text,333,838736,0.0-3.0-26.0-0.0,,1923,"{""Q0"":""12""}",,,25,,,,,,,,,,,,,,,,,,,,,,,,,,,,,,,,,,,,nail polish,40,12,
,5,category_memory,,survey-text,334,843820,0.0-3.0-27.0-0.0,,5081,"{""Q0"":""100""}",,,26,,,,,,,,,,,,,,,,,,,,,,,,,,,,,,,,,,,,bowl,80,100,
,5,category_memory,,survey-text,335,845960,0.0-3.0-28.0-0.0,,2135,"{""Q0"":""98""}",,,27,,,,,,,,,,,,,,,,,,,,,,,,,,,,,,,,,,,,bench,80,98,
,5,category_memory,,survey-text,336,849373,0.0-3.0-29.0-0.0,,3409,"{""Q0"":""89""}",,,28,,,,,,,,,,,,,,,,,,,,,,,,,,,,,,,,,,,,fan,80,89,
,5,category_memory,,survey-text,337,851480,0.0-3.0-30.0-0.0,,2104,"{""Q0"":""1""}",,,29,,,,,,,,,,,,,,,,,,,,,,,,,,,,,,,,,,,,yarn,60,1,
,5,category_memory,,survey-text,338,853323,0.0-3.0-31.0-0.0,,1840,"{""Q0"":""0""}",,,30,,,,,,,,,,,,,,,,,,,,,,,,,,,,,,,,,,,,vase,60,0,
,5,category_memory,,survey-text,339,854945,0.0-3.0-32.0-0.0,,1616,"{""Q0"":""12""}",,,31,,,,,,,,,,,,,,,,,,,,,,,,,,,,,,,,,,,,hat,20,12,
,5,category_memory,,survey-text,340,856542,0.0-3.0-33.0-0.0,,1594,"{""Q0"":""23""}",,,32,,,,,,,,,,,,,,,,,,,,,,,,,,,,,,,,,,,,watch,60,23,
,5,category_memory,,survey-text,341,858626,0.0-3.0-34.0-0.0,,2081,"{""Q0"":""55""}",,,33,,,,,,,,,,,,,,,,,,,,,,,,,,,,,,,,,,,,patio lounge chair,40,55,
,5,category_memory,,survey-text,342,860310,0.0-3.0-35.0-0.0,,1679,"{""Q0"":""67""}",,,34,,,,,,,,,,,,,,,,,,,,,,,,,,,,,,,,,,,,telescope,60,67,
,5,category_memory,,survey-text,343,861903,0.0-3.0-36.0-0.0,,1588,"{""Q0"":""45""}",,,35,,,,,,,,,,,,,,,,,,,,,,,,,,,,,,,,,,,,tape,60,45,