,success,ttype,start_time,trial_type,trial_index,time_elapsed,internal_node_id,warning,missed_checkup,PID,view_history,rt,responses,repeat_instructions,key_press,index,trial_num,isi,iti,is_practice,block,old_trial,pair_type,within_category,high_cat_on_left,left_category,right_category,left_category_value,right_category_value,left_exemplar,right_exemplar,left_exemplar_value,right_exemplar_value,left_img,right_img,left_img_path,right_img_path,left_chosen,chosen_category,unchosen_category,chosen_category_value,unchosen_category_value,chosen_exemplar,unchosen_exemplar,chosen_exemplar_value,unchosen_exemplar_value,no_response,onset,duration,end_practice,total_bonus_tally,category,category_group_value,category_value_response,did_not_enter_response
0,True,full_screen,d05202022hr1540,fullscreen,0,5326,0.0-0.0,0,0,1,,,,,,,,,,,,,,,,,,,,,,,,,,,,,,,,,,,,,,,,,,,,,
1,,category_learning_instructions,,instructions,1,10986,0.0-1.0-0.0-0.0,0,0,1,"[{""page_index"":0,""viewing_time"":1353},{""page_index"":1,""viewing_time"":1109},{""page_index"":2,""viewing_time"":613},{""page_index"":3,""viewing_time"":592},{""page_index"":4,""viewing_time"":676},{""page_index"":5,""viewing_time"":616},{""page_index"":6,""viewing_time"":698}]",5657.0,,,,,,,,,,,,,,,,,,,,,,,,,,,,,,,,,,,,,,,,,,,
2,,category_learning_comprehension_check,,survey-multi-choice,2,15672,0.0-1.0-0.0-1.0,0,0,1,,4682.0,"{""Q0"":""True"",""Q1"":""True"",""Q2"":""Stay the same"",""Q3"":""pointer finger for left and middle finger for right""}",0.0,,,,,,,,,,,,,,,,,,,,,,,,,,,,,,,,,,,,,,,,,
3,,,,html-keyboard-response,3,16490,0.0-1.0-1.0,0,0,1,,814.0,,,50.0,,,,,,,,,,,,,,,,,,,,,,,,,,,,,,,,,,,,,,,,
4,,choice,,html-keyboard-response,4,17086,0.0-1.0-2.0-0.0-0.0,0,0,1,,594.0,,,50.0,0.0,0.0,1500.0,1000.0,1.0,0.0,0.0,20-80,,0.0,bagel,dumbbell,20.0,80.0,bagel1,dumbbell1,0.0,80.0,bagels_pumpernickel_large.jpg,31B64EN68AL._AA280_.jpg,/static/Category_learning/Stimuli/Practice_stims/bagel/bagels_pumpernickel_large.jpg,/static/Category_learning/Stimuli/Practice_stims/dumbbell/31B64EN68AL._AA280_.jpg,1.0,bagel,dumbbell,20.0,80.0,bagel1,dumbbell1,0.0,80.0,0.0,0.594,0.594,,,,,,
5,,confirmation,,html-keyboard-response,5,17998,0.0-1.0-2.0-0.0-1.0-0.0,0,0,1,,,,,,0.0,,,,,,,,,,,,,,,,,,,,,,,,,,,,,,,,1.5,0.9059999999999999,,,,,,
6,,isi,,html-keyboard-response,6,18103,0.0-1.0-2.0-0.0-2.0,0,0,1,,,,,,,,,,,,,,,,,,,,,,,,,,,,,,,,,,,,,,3.0,1.5,,,,,,
7,,feedback,,html-keyboard-response,7,19106,0.0-1.0-2.0-0.0-3.0-0.0,0,0,1,,,,,,0.0,,,,,,,,,,,,,,,,,,,,,,,,,,,,,,,,4.0,1.0,,,,,,
8,,iti,,html-keyboard-response,8,19212,0.0-1.0-2.0-0.0-5.0,0,0,1,,,,,,,,,,,,,,,,,,,,,,,,,,,,,,,,,,,,,,5.0,1.0,,,,,,
9,,choice,,html-keyboard-response,9,19959,0.0-1.0-3.0-0.0-0.0,0,0,1,,744.0,,,50.0,1.0,1.0,3000.0,1500.0,1.0,0.0,0.0,20-40,,1.0,calculator,bagel,40.0,20.0,calculator2,bagel2,20.0,20.0,22829064.thl.jpg,bagels_cinnraisin_large.jpg,/static/Category_learning/Stimuli/Practice_stims/calculator/22829064.thl.jpg,/static/Category_learning/Stimuli/Practice_stims/bagel/bagels_cinnraisin_large.jpg,1.0,calculator,bagel,40.0,20.0,calculator2,bagel2,20.0,20.0,0.0,5.744,0.7440000000000001,,,,,,
10,,confirmation,,html-keyboard-response,10,20720,0.0-1.0-3.0-0.0-1.0-0.0,0,0,1,,,,,,1.0,,,,,,,,,,,,,,,,,,,,,,,,,,,,,,,,6.5,0.7559999999999999,,,,,,
11,,isi,,html-keyboard-response,11,20823,0.0-1.0-3.0-0.0-2.0,0,0,1,,,,,,,,,,,,,,,,,,,,,,,,,,,,,,,,,,,,,,9.5,3.0,,,,,,
12,,feedback,,html-keyboard-response,12,21829,0.0-1.0-3.0-0.0-3.0-0.0,0,0,1,,,,,,1.0,,,,,,,,,,,,,,,,,,,,,,,,,,,,,,,,10.5,1.0,,,,,,
13,,iti,,html-keyboard-response,13,21936,0.0-1.0-3.0-0.0-5.0,0,0,1,,,,,,,,,,,,,,,,,,,,,,,,,,,,,,,,,,,,,,12.0,1.5,,,,,,
14,,choice,,html-keyboard-response,14,22791,0.0-1.0-4.0-0.0-0.0,0,0,1,,852.0,,,51.0,2.0,2.0,2000.0,3000.0,1.0,0.0,0.0,60-80,,0.0,clock,dumbbell,60.0,80.0,clock2,dumbbell2,60.0,100.0,26373355.thl.jpg,31K8MR6TMBL._SS500_.jpg,/static/Category_learning/Stimuli/Practice_stims/clock/26373355.thl.jpg,/static/Category_learning/Stimuli/Practice_stims/dumbbell/31K8MR6TMBL._SS500_.jpg,0.0,dumbbell,clock,80.0,60.0,dumbbell2,clock2,100.0,60.0,0.0,12.852,0.852,,,,,,
15,,confirmation,,html-keyboard-response,15,23446,0.0-1.0-4.0-0.0-1.0-0.0,0,0,1,,,,,,2.0,,,,,,,,,,,,,,,,,,,,,,,,,,,,,,,,13.5,0.648,,,,,,
16,,isi,,html-keyboard-response,16,23553,0.0-1.0-4.0-0.0-2.0,0,0,1,,,,,,,,,,,,,,,,,,,,,,,,,,,,,,,,,,,,,,15.5,2.0,,,,,,
17,,feedback,,html-keyboard-response,17,24558,0.0-1.0-4.0-0.0-3.0-0.0,0,0,1,,,,,,2.0,,,,,,,,,,,,,,,,,,,,,,,,,,,,,,,,16.5,1.0,,,,,,
18,,iti,,html-keyboard-response,18,24663,0.0-1.0-4.0-0.0-5.0,0,0,1,,,,,,,,,,,,,,,,,,,,,,,,,,,,,,,,,,,,,,19.5,3.0,,,,,,
19,,choice,,html-keyboard-response,19,25446,0.0-1.0-5.0-0.0-0.0,0,0,1,,780.0,,,51.0,3.0,3.0,1000.0,2000.0,1.0,0.0,0.0,40-80,,0.0,calculator,clock,40.0,60.0,calculator1,clock1,40.0,40.0,22829184.thl.jpg,Aalarmclock2.jpg,/static/Category_learning/Stimuli/Practice_stims/calculator/22829184.thl.jpg,/static/Category_learning/Stimuli/Practice_stims/clock/Aalarmclock2.jpg,0.0,clock,calculator,60.0,40.0,clock1,calculator1,40.0,40.0,0.0,20.28,0.78,,,,,,
20,,confirmation,,html-keyboard-response,20,26170,0.0-1.0-5.0-0.0-1.0-0.0,0,0,1,,,,,,3.0,,,,,,,,,,,,,,,,,,,,,,,,,,,,,,,,21.0,0.72,,,,,,
21,,isi,,html-keyboard-response,21,26273,0.0-1.0-5.0-0.0-2.0,0,0,1,,,,,,,,,,,,,,,,,,,,,,,,,,,,,,,,,,,,,,22.0,1.0,,,,,,
22,,feedback,,html-keyboard-response,22,27276,0.0-1.0-5.0-0.0-3.0-0.0,0,0,1,,,,,,3.0,,,,,,,,,,,,,,,,,,,,,,,,,,,,,,,,23.0,1.0,,,,,,
23,,iti,,html-keyboard-response,23,27383,0.0-1.0-5.0-0.0-5.0,0,0,1,,,,,,,,,,,,,,,,,,,,,,,,,,,,,,,,,,,,,,25.0,2.0,,,,,,
24,,choice,,html-keyboard-response,24,28018,0.0-1.0-6.0-0.0-0.0,0,0,1,,632.0,,,50.0,4.0,4.0,2500.0,2500.0,1.0,0.0,0.0,20-60,,1.0,dumbbell,bagel,80.0,20.0,dumbbell3,bagel3,100.0,40.0,41K7QVRX50L._SS500_.jpg,photo-169.jpg,/static/Category_learning/Stimuli/Practice_stims/dumbbell/41K7QVRX50L._SS500_.jpg,/static/Category_learning/Stimuli/Practice_stims/bagel/photo-169.jpg,1.0,dumbbell,bagel,80.0,20.0,dumbbell3,bagel3,100.0,40.0,0.0,25.631999999999998,0.632,1.0,,,,,
25,,confirmation,,html-keyboard-response,25,28892,0.0-1.0-6.0-0.0-1.0-0.0,0,0,1,,,,,,4.0,,,,,,,,,,,,,,,,,,,,,,,,,,,,,,,,26.5,0.868,,,,,,
26,,isi,,html-keyboard-response,26,29000,0.0-1.0-6.0-0.0-2.0,0,0,1,,,,,,,,,,,,,,,,,,,,,,,,,,,,,,,,,,,,,,29.0,2.5,,,,,,
27,,feedback,,html-keyboard-response,27,30005,0.0-1.0-6.0-0.0-3.0-0.0,0,0,1,,,,,,4.0,,,,,,,,,,,,,,,,,,,,,,,,,,,,,,,,30.0,1.0,,,,,,
28,,iti,,html-keyboard-response,28,30112,0.0-1.0-6.0-0.0-5.0,0,0,1,,,,,,,,,,,,,,,,,,,,,,,,,,,,,,,,,,,,,,32.5,2.5,,,,,,
29,,practice_over,,html-keyboard-response,29,31036,0.0-1.0-6.0-0.0-6.0-0.0,0,0,1,,921.0,,,50.0,4.0,,,,,,,,,,,,,,,,,,,,,,,,,,,,,,,,,,,,,,,
30,,start_run,,html-keyboard-response,30,32108,0.0-1.0-6.0-0.0-6.0-1.0,0,0,1,,1070.0,,,84.0,,,,,,,,,,,,,,,,,,,,,,,,,,,,,,,,,,,,,,,,
31,,choice,,html-keyboard-response,31,32873,0.0-1.0-7.0-0.0-0.0,0,0,1,,762.0,,,51.0,5.0,5.0,1000.0,1500.0,0.0,1.0,0.0,40-40,,,door knob,desk,40.0,40.0,door knob15,desk9,60.0,20.0,Legacy_oval.jpg,desk 189dr96dr chr.jpg,/static/Category_learning/Stimuli/Experimental_stims/door knob/Legacy_oval.jpg,/static/Category_learning/Stimuli/Experimental_stims/desk/desk 189dr96dr chr.jpg,0.0,desk,door knob,40.0,40.0,desk9,door knob15,20.0,60.0,0.0,0.762,0.762,,,,,,
32,,confirmation,,html-keyboard-response,32,33618,0.0-1.0-7.0-0.0-1.0-0.0,0,0,1,,,,,,5.0,,,,,,,,,,,,,,,,,,,,,,,,,,,,,,,,1.5,0.738,,,,,,
33,,isi,,html-keyboard-response,33,33725,0.0-1.0-7.0-0.0-2.0,0,0,1,,,,,,,,,,,,,,,,,,,,,,,,,,,,,,,,,,,,,,2.5,1.0,,,,,,
34,,feedback,,html-keyboard-response,34,34732,0.0-1.0-7.0-0.0-3.0-0.0,0,0,1,,,,,,5.0,,,,,,,,,,,,,,,,,,,,,,,,,,,,,,,,3.5,1.0,,,,,,
35,,iti,,html-keyboard-response,35,34836,0.0-1.0-7.0-0.0-5.0,0,0,1,,,,,,,,,,,,,,,,,,,,,,,,,,,,,,,,,,,,,,5.0,1.5,,,,,,
36,,choice,,html-keyboard-response,36,35645,0.0-1.0-8.0-0.0-0.0,0,0,1,,806.0,,,51.0,6.0,6.0,1500.0,2000.0,0.0,1.0,0.0,40-80,,1.0,pen,door knob,80.0,40.0,pen12,door knob7,100.0,20.0,pen02.jpg,doorknob2.jpg,/static/Category_learning/Stimuli/Experimental_stims/pen/pen02.jpg,/static/Category_learning/Stimuli/Experimental_stims/door knob/doorknob2.jpg,0.0,door knob,pen,40.0,80.0,door knob7,pen12,20.0,100.0,0.0,5.806,0.8059999999999999,,,,,,
37,,confirmation,,html-keyboard-response,37,36344,0.0-1.0-8.0-0.0-1.0-0.0,0,0,1,,,,,,6.0,,,,,,,,,,,,,,,,,,,,,,,,,,,,,,,,6.5,0.6940000000000001,,,,,,
38,,isi,,html-keyboard-response,38,36451,0.0-1.0-8.0-0.0-2.0,0,0,1,,,,,,,,,,,,,,,,,,,,,,,,,,,,,,,,,,,,,,8.0,1.5,,,,,,
39,,feedback,,html-keyboard-response,39,37458,0.0-1.0-8.0-0.0-3.0-0.0,0,0,1,,,,,,6.0,,,,,,,,,,,,,,,,,,,,,,,,,,,,,,,,9.0,1.0,,,,,,
40,,iti,,html-keyboard-response,40,37566,0.0-1.0-8.0-0.0-5.0,0,0,1,,,,,,,,,,,,,,,,,,,,,,,,,,,,,,,,,,,,,,11.0,2.0,,,,,,
41,,choice,,html-keyboard-response,41,38264,0.0-1.0-9.0-0.0-0.0,0,0,1,,696.0,,,50.0,7.0,7.0,1000.0,1500.0,0.0,1.0,0.0,80-80,,,seashell,pen,80.0,80.0,seashell3,pen3,80.0,80.0,coquillage.jpg,pen08.jpg,/static/Category_learning/Stimuli/Experimental_stims/seashell/coquillage.jpg,/static/Category_learning/Stimuli/Experimental_stims/pen/pen08.jpg,1.0,seashell,pen,80.0,80.0,seashell3,pen3,80.0,80.0,0.0,11.696,0.696,,,,,,
42,,confirmation,,html-keyboard-response,42,39074,0.0-1.0-9.0-0.0-1.0-0.0,0,0,1,,,,,,7.0,,,,,,,,,,,,,,,,,,,,,,,,,,,,,,,,12.5,0.804,,,,,,
43,,isi,,html-keyboard-response,43,39181,0.0-1.0-9.0-0.0-2.0,0,0,1,,,,,,,,,,,,,,,,,,,,,,,,,,,,,,,,,,,,,,13.5,1.0,,,,,,
44,,feedback,,html-keyboard-response,44,40188,0.0-1.0-9.0-0.0-3.0-0.0,0,0,1,,,,,,7.0,,,,,,,,,,,,,,,,,,,,,,,,,,,,,,,,14.5,1.0,,,,,,
45,,iti,,html-keyboard-response,45,40293,0.0-1.0-9.0-0.0-5.0,0,0,1,,,,,,,,,,,,,,,,,,,,,,,,,,,,,,,,,,,,,,16.0,1.5,,,,,,
46,,choice,,html-keyboard-response,46,41110,0.0-1.0-10.0-0.0-0.0,0,0,1,,813.0,,,51.0,8.0,8.0,1000.0,2000.0,0.0,1.0,0.0,60-60,,,lipstick,key chain,60.0,60.0,lipstick10,key chain1,60.0,80.0,21K0D7QKFAL._SS500_.jpg,jm05s16.jpg,/static/Category_learning/Stimuli/Experimental_stims/lipstick/21K0D7QKFAL._SS500_.jpg,/static/Category_learning/Stimuli/Experimental_stims/key chain/jm05s16.jpg,0.0,key chain,lipstick,60.0,60.0,key chain1,lipstick10,80.0,60.0,0.0,16.813,0.813,,,,,,
47,,confirmation,,html-keyboard-response,47,41800,0.0-1.0-10.0-0.0-1.0-0.0,0,0,1,,,,,,8.0,,,,,,,,,,,,,,,,,,,,,,,,,,,,,,,,17.5,0.687,,,,,,
48,,isi,,html-keyboard-response,48,41906,0.0-1.0-10.0-0.0-2.0,0,0,1,,,,,,,,,,,,,,,,,,,,,,,,,,,,,,,,,,,,,,18.5,1.0,,,,,,
49,,feedback,,html-keyboard-response,49,42909,0.0-1.0-10.0-0.0-3.0-0.0,0,0,1,,,,,,8.0,,,,,,,,,,,,,,,,,,,,,,,,,,,,,,,,19.5,1.0,,,,,,
50,,iti,,html-keyboard-response,50,43016,0.0-1.0-10.0-0.0-5.0,0,0,1,,,,,,,,,,,,,,,,,,,,,,,,,,,,,,,,,,,,,,21.5,2.0,,,,,,
51,,choice,,html-keyboard-response,51,43826,0.0-1.0-11.0-0.0-0.0,0,0,1,,807.0,,,51.0,9.0,9.0,3000.0,1500.0,0.0,1.0,0.0,60-80,,0.0,makeup compact,patio lounge chair,60.0,80.0,makeup compact4,patio lounge chair15,40.0,60.0,262668_fpx.jpg,phpThumb.jpg,/static/Category_learning/Stimuli/Experimental_stims/makeup compact/262668_fpx.jpg,/static/Category_learning/Stimuli/Experimental_stims/patio lounge chair/phpThumb.jpg,0.0,patio lounge chair,makeup compact,80.0,60.0,patio lounge chair15,makeup compact4,60.0,40.0,0.0,22.307,0.807,,,,,,
52,,confirmation,,html-keyboard-response,52,44525,0.0-1.0-11.0-0.0-1.0-0.0,0,0,1,,,,,,9.0,,,,,,,,,,,,,,,,,,,,,,,,,,,,,,,,23.0,0.693,,,,,,
53,,isi,,html-keyboard-response,53,44632,0.0-1.0-11.0-0.0-2.0,0,0,1,,,,,,,,,,,,,,,,,,,,,,,,,,,,,,,,,,,,,,26.0,3.0,,,,,,
54,,feedback,,html-keyboard-response,54,45635,0.0-1.0-11.0-0.0-3.0-0.0,0,0,1,,,,,,9.0,,,,,,,,,,,,,,,,,,,,,,,,,,,,,,,,27.0,1.0,,,,,,
55,,iti,,html-keyboard-response,55,45741,0.0-1.0-11.0-0.0-5.0,0,0,1,,,,,,,,,,,,,,,,,,,,,,,,,,,,,,,,,,,,,,28.5,1.5,,,,,,
56,,choice,,html-keyboard-response,56,46386,0.0-1.0-12.0-0.0-0.0,0,0,1,,641.0,,,50.0,10.0,10.0,2000.0,1500.0,0.0,1.0,1.0,60-80,0.0,,seashell,key chain,80.0,60.0,seashell3,key chain1,80.0,80.0,coquillage.jpg,jm05s16.jpg,/static/Category_learning/Stimuli/Experimental_stims/seashell/coquillage.jpg,/static/Category_learning/Stimuli/Experimental_stims/key chain/jm05s16.jpg,1.0,seashell,key chain,80.0,60.0,seashell3,key chain1,80.0,80.0,0.0,29.141,0.6409999999999999,,,,,,
57,,confirmation,,html-keyboard-response,57,47251,0.0-1.0-12.0-0.0-1.0-0.0,0,0,1,,,,,,10.0,,,,,,,,,,,,,,,,,,,,,,,,,,,,,,,,30.0,0.8590000000000001,,,,,,
58,,isi,,html-keyboard-response,58,47357,0.0-1.0-12.0-0.0-2.0,0,0,1,,,,,,,,,,,,,,,,,,,,,,,,,,,,,,,,,,,,,,32.0,2.0,,,,,,
59,,feedback,,html-keyboard-response,59,48360,0.0-1.0-12.0-0.0-3.0-0.0,0,0,1,,,,,,10.0,,,,,,,,,,,,,,,,,,,,,,,,,,,,,,,,33.0,1.0,,,,,,
60,,iti,,html-keyboard-response,60,48465,0.0-1.0-12.0-0.0-5.0,0,0,1,,,,,,,,,,,,,,,,,,,,,,,,,,,,,,,,,,,,,,34.5,1.5,,,,,,
61,,choice,,html-keyboard-response,61,49019,0.0-1.0-13.0-0.0-0.0,0,0,1,,551.0,,,51.0,11.0,11.0,3500.0,1000.0,0.0,1.0,0.0,40-40,,,bongo,flashlight,40.0,40.0,bongo3,flashlight5,60.0,60.0,26390697.thl.jpg,Streamlight-71001-Jr-Flashlight-W-batteries-black-B00018A3CG-L.jpg,/static/Category_learning/Stimuli/Experimental_stims/bongo/26390697.thl.jpg,/static/Category_learning/Stimuli/Experimental_stims/flashlight/Streamlight-71001-Jr-Flashlight-W-batteries-black-B00018A3CG-L.jpg,0.0,flashlight,bongo,40.0,40.0,flashlight5,bongo3,60.0,60.0,0.0,35.051,0.551,,,,,,
62,,confirmation,,html-keyboard-response,62,49974,0.0-1.0-13.0-0.0-1.0-0.0,0,0,1,,,,,,11.0,,,,,,,,,,,,,,,,,,,,,,,,,,,,,,,,36.0,0.9490000000000001,,,,,,
63,,isi,,html-keyboard-response,63,50077,0.0-1.0-13.0-0.0-2.0,0,0,1,,,,,,,,,,,,,,,,,,,,,,,,,,,,,,,,,,,,,,39.5,3.5,,,,,,
64,,feedback,,html-keyboard-response,64,51080,0.0-1.0-13.0-0.0-3.0-0.0,0,0,1,,,,,,11.0,,,,,,,,,,,,,,,,,,,,,,,,,,,,,,,,40.5,1.0,,,,,,
65,,iti,,html-keyboard-response,65,51187,0.0-1.0-13.0-0.0-5.0,0,0,1,,,,,,,,,,,,,,,,,,,,,,,,,,,,,,,,,,,,,,41.5,1.0,,,,,,
66,,choice,,html-keyboard-response,66,51807,0.0-1.0-14.0-0.0-0.0,0,0,1,,617.0,,,51.0,12.0,12.0,1500.0,1000.0,0.0,1.0,1.0,40-80,0.0,,patio lounge chair,door knob,80.0,40.0,patio lounge chair15,door knob7,60.0,20.0,phpThumb.jpg,doorknob2.jpg,/static/Category_learning/Stimuli/Experimental_stims/patio lounge chair/phpThumb.jpg,/static/Category_learning/Stimuli/Experimental_stims/door knob/doorknob2.jpg,0.0,door knob,patio lounge chair,40.0,80.0,door knob7,patio lounge chair15,20.0,60.0,0.0,42.117,0.617,,,,,,
67,,confirmation,,html-keyboard-response,67,52696,0.0-1.0-14.0-0.0-1.0-0.0,0,0,1,,,,,,12.0,,,,,,,,,,,,,,,,,,,,,,,,,,,,,,,,43.0,0.883,,,,,,
68,,isi,,html-keyboard-response,68,52803,0.0-1.0-14.0-0.0-2.0,0,0,1,,,,,,,,,,,,,,,,,,,,,,,,,,,,,,,,,,,,,,44.5,1.5,,,,,,
69,,feedback,,html-keyboard-response,69,53810,0.0-1.0-14.0-0.0-3.0-0.0,0,0,1,,,,,,12.0,,,,,,,,,,,,,,,,,,,,,,,,,,,,,,,,45.5,1.0,,,,,,
70,,iti,,html-keyboard-response,70,53918,0.0-1.0-14.0-0.0-5.0,0,0,1,,,,,,,,,,,,,,,,,,,,,,,,,,,,,,,,,,,,,,46.5,1.0,,,,,,
71,,choice,,html-keyboard-response,71,54900,0.0-1.0-15.0-0.0-0.0,0,0,1,,980.0,,,51.0,13.0,13.0,2000.0,1000.0,0.0,1.0,0.0,40-60,,0.0,desk,hammer,40.0,60.0,desk8,hammer2,60.0,40.0,26370118.thl.jpg,hammer04.jpg,/static/Category_learning/Stimuli/Experimental_stims/desk/26370118.thl.jpg,/static/Category_learning/Stimuli/Experimental_stims/hammer/hammer04.jpg,0.0,hammer,desk,60.0,40.0,hammer2,desk8,40.0,60.0,0.0,47.48,0.98,,,,,,
72,,confirmation,,html-keyboard-response,72,55427,0.0-1.0-15.0-0.0-1.0-0.0,0,0,1,,,,,,13.0,,,,,,,,,,,,,,,,,,,,,,,,,,,,,,,,48.0,0.52,,,,,,
73,,isi,,html-keyboard-response,73,55533,0.0-1.0-15.0-0.0-2.0,0,0,1,,,,,,,,,,,,,,,,,,,,,,,,,,,,,,,,,,,,,,50.0,2.0,,,,,,
74,,feedback,,html-keyboard-response,74,56541,0.0-1.0-15.0-0.0-3.0-0.0,0,0,1,,,,,,13.0,,,,,,,,,,,,,,,,,,,,,,,,,,,,,,,,51.0,1.0,,,,,,
75,,iti,,html-keyboard-response,75,56643,0.0-1.0-15.0-0.0-5.0,0,0,1,,,,,,,,,,,,,,,,,,,,,,,,,,,,,,,,,,,,,,52.0,1.0,,,,,,
76,,choice,,html-keyboard-response,76,57238,0.0-1.0-16.0-0.0-0.0,0,0,1,,591.0,,,50.0,14.0,14.0,2000.0,2000.0,0.0,1.0,0.0,60-60,,,license plate,hammer,60.0,60.0,license plate2,hammer5,60.0,60.0,ny-u93-8zs.jpg,hammer02.jpg,/static/Category_learning/Stimuli/Experimental_stims/license plate/ny-u93-8zs.jpg,/static/Category_learning/Stimuli/Experimental_stims/hammer/hammer02.jpg,1.0,license plate,hammer,60.0,60.0,license plate2,hammer5,60.0,60.0,0.0,52.591,0.591,,,,,,
77,,confirmation,,html-keyboard-response,77,58152,0.0-1.0-16.0-0.0-1.0-0.0,0,0,1,,,,,,14.0,,,,,,,,,,,,,,,,,,,,,,,,,,,,,,,,53.5,0.909,,,,,,
78,,isi,,html-keyboard-response,78,58259,0.0-1.0-16.0-0.0-2.0,0,0,1,,,,,,,,,,,,,,,,,,,,,,,,,,,,,,,,,,,,,,55.5,2.0,,,,,,
79,,feedback,,html-keyboard-response,79,59262,0.0-1.0-16.0-0.0-3.0-0.0,0,0,1,,,,,,14.0,,,,,,,,,,,,,,,,,,,,,,,,,,,,,,,,56.5,1.0,,,,,,
80,,iti,,html-keyboard-response,80,59368,0.0-1.0-16.0-0.0-5.0,0,0,1,,,,,,,,,,,,,,,,,,,,,,,,,,,,,,,,,,,,,,58.5,2.0,,,,,,
81,,choice,,html-keyboard-response,81,59971,0.0-1.0-17.0-0.0-0.0,0,0,1,,600.0,,,51.0,15.0,15.0,1500.0,2000.0,0.0,1.0,0.0,20-20,,,train,tape,20.0,20.0,train9,tape13,20.0,20.0,train2.jpg,920152.jpg,/static/Category_learning/Stimuli/Experimental_stims/train/train2.jpg,/static/Category_learning/Stimuli/Experimental_stims/tape/920152.jpg,0.0,tape,train,20.0,20.0,tape13,train9,20.0,20.0,0.0,59.1,0.6,,,,,,
82,,confirmation,,html-keyboard-response,82,60877,0.0-1.0-17.0-0.0-1.0-0.0,0,0,1,,,,,,15.0,,,,,,,,,,,,,,,,,,,,,,,,,,,,,,,,60.0,0.9,,,,,,
83,,isi,,html-keyboard-response,83,60981,0.0-1.0-17.0-0.0-2.0,0,0,1,,,,,,,,,,,,,,,,,,,,,,,,,,,,,,,,,,,,,,61.5,1.5,,,,,,
84,,feedback,,html-keyboard-response,84,61987,0.0-1.0-17.0-0.0-3.0-0.0,0,0,1,,,,,,15.0,,,,,,,,,,,,,,,,,,,,,,,,,,,,,,,,62.5,1.0,,,,,,
85,,iti,,html-keyboard-response,85,62094,0.0-1.0-17.0-0.0-5.0,0,0,1,,,,,,,,,,,,,,,,,,,,,,,,,,,,,,,,,,,,,,64.5,2.0,,,,,,
86,,choice,,html-keyboard-response,86,62687,0.0-1.0-18.0-0.0-0.0,0,0,1,,590.0,,,51.0,16.0,16.0,1500.0,2000.0,0.0,1.0,0.0,20-40,,0.0,trumpet,bongo,20.0,40.0,trumpet10,bongo14,40.0,40.0,trumpet2.jpg,26390667.thl.jpg,/static/Category_learning/Stimuli/Experimental_stims/trumpet/trumpet2.jpg,/static/Category_learning/Stimuli/Experimental_stims/bongo/26390667.thl.jpg,0.0,bongo,trumpet,40.0,20.0,bongo14,trumpet10,40.0,40.0,0.0,65.09,0.59,,,,,,
87,,confirmation,,html-keyboard-response,87,63603,0.0-1.0-18.0-0.0-1.0-0.0,0,0,1,,,,,,16.0,,,,,,,,,,,,,,,,,,,,,,,,,,,,,,,,66.0,0.91,,,,,,
88,,isi,,html-keyboard-response,88,63709,0.0-1.0-18.0-0.0-2.0,0,0,1,,,,,,,,,,,,,,,,,,,,,,,,,,,,,,,,,,,,,,67.5,1.5,,,,,,
89,,feedback,,html-keyboard-response,89,64713,0.0-1.0-18.0-0.0-3.0-0.0,0,0,1,,,,,,16.0,,,,,,,,,,,,,,,,,,,,,,,,,,,,,,,,68.5,1.0,,,,,,
90,,iti,,html-keyboard-response,90,64818,0.0-1.0-18.0-0.0-5.0,0,0,1,,,,,,,,,,,,,,,,,,,,,,,,,,,,,,,,,,,,,,70.5,2.0,,,,,,
91,,choice,,html-keyboard-response,91,65673,0.0-1.0-19.0-0.0-0.0,0,0,1,,852.0,,,51.0,17.0,17.0,2000.0,3500.0,0.0,1.0,0.0,20-60,,0.0,trumpet,lipstick,20.0,60.0,trumpet1,lipstick4,40.0,60.0,JUPITER+TROMPETTE+606MRL.JPG,P145703_hero.jpg,/static/Category_learning/Stimuli/Experimental_stims/trumpet/JUPITER+TROMPETTE+606MRL.JPG,/static/Category_learning/Stimuli/Experimental_stims/lipstick/P145703_hero.jpg,0.0,lipstick,trumpet,60.0,20.0,lipstick4,trumpet1,60.0,40.0,0.0,71.352,0.852,,,,,,
92,,confirmation,,html-keyboard-response,92,66324,0.0-1.0-19.0-0.0-1.0-0.0,0,0,1,,,,,,17.0,,,,,,,,,,,,,,,,,,,,,,,,,,,,,,,,72.0,0.648,,,,,,
93,,isi,,html-keyboard-response,93,66430,0.0-1.0-19.0-0.0-2.0,0,0,1,,,,,,,,,,,,,,,,,,,,,,,,,,,,,,,,,,,,,,74.0,2.0,,,,,,
94,,feedback,,html-keyboard-response,94,67432,0.0-1.0-19.0-0.0-3.0-0.0,0,0,1,,,,,,17.0,,,,,,,,,,,,,,,,,,,,,,,,,,,,,,,,75.0,1.0,,,,,,
95,,iti,,html-keyboard-response,95,67539,0.0-1.0-19.0-0.0-5.0,0,0,1,,,,,,,,,,,,,,,,,,,,,,,,,,,,,,,,,,,,,,78.5,3.5,,,,,,
96,,choice,,html-keyboard-response,96,68152,0.0-1.0-20.0-0.0-0.0,0,0,1,,609.0,,,50.0,18.0,18.0,1500.0,2000.0,0.0,1.0,1.0,20-40,0.0,,bongo,tape,40.0,20.0,bongo14,tape13,40.0,20.0,26390667.thl.jpg,920152.jpg,/static/Category_learning/Stimuli/Experimental_stims/bongo/26390667.thl.jpg,/static/Category_learning/Stimuli/Experimental_stims/tape/920152.jpg,1.0,bongo,tape,40.0,20.0,bongo14,tape13,40.0,20.0,0.0,79.109,0.609,,,,,,
97,,confirmation,,html-keyboard-response,97,69049,0.0-1.0-20.0-0.0-1.0-0.0,0,0,1,,,,,,18.0,,,,,,,,,,,,,,,,,,,,,,,,,,,,,,,,80.0,0.8909999999999999,,,,,,
98,,isi,,html-keyboard-response,98,69155,0.0-1.0-20.0-0.0-2.0,0,0,1,,,,,,,,,,,,,,,,,,,,,,,,,,,,,,,,,,,,,,81.5,1.5,,,,,,
99,,feedback,,html-keyboard-response,99,70161,0.0-1.0-20.0-0.0-3.0-0.0,0,0,1,,,,,,18.0,,,,,,,,,,,,,,,,,,,,,,,,,,,,,,,,82.5,1.0,,,,,,
100,,iti,,html-keyboard-response,100,70264,0.0-1.0-20.0-0.0-5.0,0,0,1,,,,,,,,,,,,,,,,,,,,,,,,,,,,,,,,,,,,,,84.5,2.0,,,,,,
101,,choice,,html-keyboard-response,101,71025,0.0-1.0-21.0-0.0-0.0,0,0,1,,757.0,,,51.0,19.0,19.0,1500.0,1000.0,0.0,1.0,0.0,20-60,,0.0,train,motorcycle,20.0,60.0,train6,motorcycle10,0.0,40.0,train9.jpg,motorcycle17.jpg,/static/Category_learning/Stimuli/Experimental_stims/train/train9.jpg,/static/Category_learning/Stimuli/Experimental_stims/motorcycle/motorcycle17.jpg,0.0,motorcycle,train,60.0,20.0,motorcycle10,train6,40.0,0.0,0.0,85.257,0.757,,,,,,
102,,confirmation,,html-keyboard-response,102,71774,0.0-1.0-21.0-0.0-1.0-0.0,0,0,1,,,,,,19.0,,,,,,,,,,,,,,,,,,,,,,,,,,,,,,,,86.0,0.743,,,,,,
103,,isi,,html-keyboard-response,103,71880,0.0-1.0-21.0-0.0-2.0,0,0,1,,,,,,,,,,,,,,,,,,,,,,,,,,,,,,,,,,,,,,87.5,1.5,,,,,,
104,,feedback,,html-keyboard-response,104,72886,0.0-1.0-21.0-0.0-3.0-0.0,0,0,1,,,,,,19.0,,,,,,,,,,,,,,,,,,,,,,,,,,,,,,,,88.5,1.0,,,,,,
105,,iti,,html-keyboard-response,105,72992,0.0-1.0-21.0-0.0-5.0,0,0,1,,,,,,,,,,,,,,,,,,,,,,,,,,,,,,,,,,,,,,89.5,1.0,,,,,,
106,,choice,,html-keyboard-response,106,73937,0.0-1.0-22.0-0.0-0.0,0,0,1,,942.0,,,51.0,20.0,20.0,1000.0,3000.0,0.0,1.0,0.0,40-60,,0.0,dresser,license plate,40.0,60.0,dresser9,license plate9,20.0,80.0,ADRESSER.jpg,nm-dhg089.jpg,/static/Category_learning/Stimuli/Experimental_stims/dresser/ADRESSER.jpg,/static/Category_learning/Stimuli/Experimental_stims/license plate/nm-dhg089.jpg,0.0,license plate,dresser,60.0,40.0,license plate9,dresser9,80.0,20.0,0.0,90.44200000000001,0.9420000000000001,,,,,,
107,,confirmation,,html-keyboard-response,107,74499,0.0-1.0-22.0-0.0-1.0-0.0,0,0,1,,,,,,20.0,,,,,,,,,,,,,,,,,,,,,,,,,,,,,,,,91.0,0.5579999999999999,,,,,,
108,,isi,,html-keyboard-response,108,74606,0.0-1.0-22.0-0.0-2.0,0,0,1,,,,,,,,,,,,,,,,,,,,,,,,,,,,,,,,,,,,,,92.0,1.0,,,,,,
109,,feedback,,html-keyboard-response,109,75613,0.0-1.0-22.0-0.0-3.0-0.0,0,0,1,,,,,,20.0,,,,,,,,,,,,,,,,,,,,,,,,,,,,,,,,93.0,1.0,,,,,,
110,,iti,,html-keyboard-response,110,75715,0.0-1.0-22.0-0.0-5.0,0,0,1,,,,,,,,,,,,,,,,,,,,,,,,,,,,,,,,,,,,,,96.0,3.0,,,,,,
111,,choice,,html-keyboard-response,111,76437,0.0-1.0-23.0-0.0-0.0,0,0,1,,721.0,,,50.0,21.0,21.0,2000.0,1000.0,0.0,1.0,0.0,40-80,,1.0,seashell,desk,80.0,40.0,seashell4,desk3,60.0,60.0,seashell.jpg,D-1 Four drawers desk Elm 64x23x33.jpg,/static/Category_learning/Stimuli/Experimental_stims/seashell/seashell.jpg,/static/Category_learning/Stimuli/Experimental_stims/desk/D-1 Four drawers desk Elm 64x23x33.jpg,1.0,seashell,desk,80.0,40.0,seashell4,desk3,60.0,60.0,0.0,96.721,0.721,,,,,,
112,,confirmation,,html-keyboard-response,112,77219,0.0-1.0-23.0-0.0-1.0-0.0,0,0,1,,,,,,21.0,,,,,,,,,,,,,,,,,,,,,,,,,,,,,,,,97.5,0.779,,,,,,
113,,isi,,html-keyboard-response,113,77326,0.0-1.0-23.0-0.0-2.0,0,0,1,,,,,,,,,,,,,,,,,,,,,,,,,,,,,,,,,,,,,,99.5,2.0,,,,,,
114,,feedback,,html-keyboard-response,114,78329,0.0-1.0-23.0-0.0-3.0-0.0,0,0,1,,,,,,21.0,,,,,,,,,,,,,,,,,,,,,,,,,,,,,,,,100.5,1.0,,,,,,
115,,iti,,html-keyboard-response,115,78435,0.0-1.0-23.0-0.0-5.0,0,0,1,,,,,,,,,,,,,,,,,,,,,,,,,,,,,,,,,,,,,,101.5,1.0,,,,,,
116,,choice,,html-keyboard-response,116,79295,0.0-1.0-24.0-0.0-0.0,0,0,1,,857.0,,,51.0,22.0,22.0,1000.0,3500.0,0.0,1.0,0.0,20-40,,1.0,bench,yarn,40.0,20.0,bench5,yarn5,20.0,0.0,APARKBEN8.jpg,Aballofyarn14.jpg,/static/Category_learning/Stimuli/Experimental_stims/bench/APARKBEN8.jpg,/static/Category_learning/Stimuli/Experimental_stims/yarn/Aballofyarn14.jpg,0.0,yarn,bench,20.0,40.0,yarn5,bench5,0.0,20.0,0.0,102.35700000000001,0.857,,,,,,
117,,confirmation,,html-keyboard-response,117,79944,0.0-1.0-24.0-0.0-1.0-0.0,0,0,1,,,,,,22.0,,,,,,,,,,,,,,,,,,,,,,,,,,,,,,,,103.0,0.643,,,,,,
118,,isi,,html-keyboard-response,118,80051,0.0-1.0-24.0-0.0-2.0,0,0,1,,,,,,,,,,,,,,,,,,,,,,,,,,,,,,,,,,,,,,104.0,1.0,,,,,,
119,,feedback,,html-keyboard-response,119,81059,0.0-1.0-24.0-0.0-3.0-0.0,0,0,1,,,,,,22.0,,,,,,,,,,,,,,,,,,,,,,,,,,,,,,,,105.0,1.0,,,,,,
120,,iti,,html-keyboard-response,120,81166,0.0-1.0-24.0-0.0-5.0,0,0,1,,,,,,,,,,,,,,,,,,,,,,,,,,,,,,,,,,,,,,108.5,3.5,,,,,,
121,,choice,,html-keyboard-response,121,81773,0.0-1.0-25.0-0.0-0.0,0,0,1,,605.0,,,51.0,23.0,23.0,2000.0,1500.0,0.0,1.0,0.0,60-80,,1.0,necklace,hammer,80.0,60.0,necklace6,hammer6,100.0,80.0,Agoldnecklace.jpg,hammer03.jpg,/static/Category_learning/Stimuli/Experimental_stims/necklace/Agoldnecklace.jpg,/static/Category_learning/Stimuli/Experimental_stims/hammer/hammer03.jpg,0.0,hammer,necklace,60.0,80.0,hammer6,necklace6,80.0,100.0,0.0,109.105,0.605,,,,,,
122,,confirmation,,html-keyboard-response,122,82675,0.0-1.0-25.0-0.0-1.0-0.0,0,0,1,,,,,,23.0,,,,,,,,,,,,,,,,,,,,,,,,,,,,,,,,110.0,0.895,,,,,,
123,,isi,,html-keyboard-response,123,82782,0.0-1.0-25.0-0.0-2.0,0,0,1,,,,,,,,,,,,,,,,,,,,,,,,,,,,,,,,,,,,,,112.0,2.0,,,,,,
124,,feedback,,html-keyboard-response,124,83787,0.0-1.0-25.0-0.0-3.0-0.0,0,0,1,,,,,,23.0,,,,,,,,,,,,,,,,,,,,,,,,,,,,,,,,113.0,1.0,,,,,,
125,,iti,,html-keyboard-response,125,83892,0.0-1.0-25.0-0.0-5.0,0,0,1,,,,,,,,,,,,,,,,,,,,,,,,,,,,,,,,,,,,,,114.5,1.5,,,,,,
126,,choice,,html-keyboard-response,126,84490,0.0-1.0-26.0-0.0-0.0,0,0,1,,595.0,,,51.0,24.0,24.0,3500.0,1500.0,0.0,1.0,0.0,20-20,,,watch,yarn,20.0,20.0,watch4,yarn9,40.0,40.0,B000EI2NBW.01._AA280_SCLZZZZZZZ_.jpg,Aballofyarn26.jpg,/static/Category_learning/Stimuli/Experimental_stims/watch/B000EI2NBW.01._AA280_SCLZZZZZZZ_.jpg,/static/Category_learning/Stimuli/Experimental_stims/yarn/Aballofyarn26.jpg,0.0,yarn,watch,20.0,20.0,yarn9,watch4,40.0,40.0,0.0,115.095,0.595,,,,,,
127,,confirmation,,html-keyboard-response,127,85401,0.0-1.0-26.0-0.0-1.0-0.0,0,0,1,,,,,,24.0,,,,,,,,,,,,,,,,,,,,,,,,,,,,,,,,116.0,0.905,,,,,,
128,,isi,,html-keyboard-response,128,85507,0.0-1.0-26.0-0.0-2.0,0,0,1,,,,,,,,,,,,,,,,,,,,,,,,,,,,,,,,,,,,,,119.5,3.5,,,,,,
129,,feedback,,html-keyboard-response,129,86510,0.0-1.0-26.0-0.0-3.0-0.0,0,0,1,,,,,,24.0,,,,,,,,,,,,,,,,,,,,,,,,,,,,,,,,120.5,1.0,,,,,,
130,,iti,,html-keyboard-response,130,86617,0.0-1.0-26.0-0.0-5.0,0,0,1,,,,,,,,,,,,,,,,,,,,,,,,,,,,,,,,,,,,,,122.0,1.5,,,,,,
131,,choice,,html-keyboard-response,131,87201,0.0-1.0-27.0-0.0-0.0,0,0,1,,581.0,,,50.0,25.0,25.0,1000.0,1000.0,0.0,1.0,0.0,40-60,,1.0,motorcycle,door knob,60.0,40.0,motorcycle15,door knob1,80.0,40.0,2006-Buell-LightningXB12Sa.jpg,Brass_Door_Handle.jpg,/static/Category_learning/Stimuli/Experimental_stims/motorcycle/2006-Buell-LightningXB12Sa.jpg,/static/Category_learning/Stimuli/Experimental_stims/door knob/Brass_Door_Handle.jpg,1.0,motorcycle,door knob,60.0,40.0,motorcycle15,door knob1,80.0,40.0,0.0,122.581,0.581,,,,,,
132,,confirmation,,html-keyboard-response,132,88125,0.0-1.0-27.0-0.0-1.0-0.0,0,0,1,,,,,,25.0,,,,,,,,,,,,,,,,,,,,,,,,,,,,,,,,123.5,0.919,,,,,,
133,,isi,,html-keyboard-response,133,88232,0.0-1.0-27.0-0.0-2.0,0,0,1,,,,,,,,,,,,,,,,,,,,,,,,,,,,,,,,,,,,,,124.5,1.0,,,,,,
134,,feedback,,html-keyboard-response,134,89236,0.0-1.0-27.0-0.0-3.0-0.0,0,0,1,,,,,,25.0,,,,,,,,,,,,,,,,,,,,,,,,,,,,,,,,125.5,1.0,,,,,,
135,,iti,,html-keyboard-response,135,89342,0.0-1.0-27.0-0.0-5.0,0,0,1,,,,,,,,,,,,,,,,,,,,,,,,,,,,,,,,,,,,,,126.5,1.0,,,,,,
136,,choice,,html-keyboard-response,136,90395,0.0-1.0-28.0-0.0-0.0,0,0,1,,1050.0,,,50.0,26.0,26.0,1000.0,1000.0,0.0,1.0,0.0,40-60,,1.0,hammer,door knob,60.0,40.0,hammer8,door knob10,40.0,20.0,ct1006_hammer.jpg,c02a578d-c6cc-44ca-8dd2-de8901e30bd7_4.jpg,/static/Category_learning/Stimuli/Experimental_stims/hammer/ct1006_hammer.jpg,/static/Category_learning/Stimuli/Experimental_stims/door knob/c02a578d-c6cc-44ca-8dd2-de8901e30bd7_4.jpg,1.0,hammer,door knob,60.0,40.0,hammer8,door knob10,40.0,20.0,0.0,127.55,1.05,,,,,,
137,,confirmation,,html-keyboard-response,137,90851,0.0-1.0-28.0-0.0-1.0-0.0,0,0,1,,,,,,26.0,,,,,,,,,,,,,,,,,,,,,,,,,,,,,,,,128.0,0.45,,,,,,
138,,isi,,html-keyboard-response,138,90958,0.0-1.0-28.0-0.0-2.0,0,0,1,,,,,,,,,,,,,,,,,,,,,,,,,,,,,,,,,,,,,,129.0,1.0,,,,,,
139,,feedback,,html-keyboard-response,139,91961,0.0-1.0-28.0-0.0-3.0-0.0,0,0,1,,,,,,26.0,,,,,,,,,,,,,,,,,,,,,,,,,,,,,,,,130.0,1.0,,,,,,
140,,iti,,html-keyboard-response,140,92067,0.0-1.0-28.0-0.0-5.0,0,0,1,,,,,,,,,,,,,,,,,,,,,,,,,,,,,,,,,,,,,,131.0,1.0,,,,,,
141,,choice,,html-keyboard-response,141,93398,0.0-1.0-29.0-0.0-0.0,0,0,1,,1328.0,,,50.0,27.0,27.0,1500.0,1000.0,0.0,1.0,0.0,20-80,,1.0,small table,vase,80.0,20.0,small table7,vase4,80.0,40.0,ATABLE89.jpg,Avase111.jpg,/static/Category_learning/Stimuli/Experimental_stims/small table/ATABLE89.jpg,/static/Category_learning/Stimuli/Experimental_stims/vase/Avase111.jpg,1.0,small table,vase,80.0,20.0,small table7,vase4,80.0,40.0,0.0,132.328,1.328,,,,,,
142,,confirmation,,html-keyboard-response,142,93577,0.0-1.0-29.0-0.0-1.0-0.0,0,0,1,,,,,,27.0,,,,,,,,,,,,,,,,,,,,,,,,,,,,,,,,132.5,0.172,,,,,,
143,,isi,,html-keyboard-response,143,93684,0.0-1.0-29.0-0.0-2.0,0,0,1,,,,,,,,,,,,,,,,,,,,,,,,,,,,,,,,,,,,,,134.0,1.5,,,,,,
144,,feedback,,html-keyboard-response,144,94686,0.0-1.0-29.0-0.0-3.0-0.0,0,0,1,,,,,,27.0,,,,,,,,,,,,,,,,,,,,,,,,,,,,,,,,135.0,1.0,,,,,,
145,,iti,,html-keyboard-response,145,94793,0.0-1.0-29.0-0.0-5.0,0,0,1,,,,,,,,,,,,,,,,,,,,,,,,,,,,,,,,,,,,,,136.0,1.0,,,,,,
146,,choice,,html-keyboard-response,146,95795,0.0-1.0-30.0-0.0-0.0,0,0,1,,998.0,,,51.0,28.0,28.0,1000.0,1000.0,0.0,1.0,1.0,60-60,1.0,,motorcycle,motorcycle,60.0,60.0,motorcycle10,motorcycle15,40.0,80.0,motorcycle17.jpg,2006-Buell-LightningXB12Sa.jpg,/static/Category_learning/Stimuli/Experimental_stims/motorcycle/motorcycle17.jpg,/static/Category_learning/Stimuli/Experimental_stims/motorcycle/2006-Buell-LightningXB12Sa.jpg,0.0,motorcycle,motorcycle,60.0,60.0,motorcycle15,motorcycle10,80.0,40.0,0.0,136.998,0.998,,,,,,
147,,confirmation,,html-keyboard-response,147,96300,0.0-1.0-30.0-0.0-1.0-0.0,0,0,1,,,,,,28.0,,,,,,,,,,,,,,,,,,,,,,,,,,,,,,,,137.5,0.502,,,,,,
148,,isi,,html-keyboard-response,148,96404,0.0-1.0-30.0-0.0-2.0,0,0,1,,,,,,,,,,,,,,,,,,,,,,,,,,,,,,,,,,,,,,138.5,1.0,,,,,,
149,,feedback,,html-keyboard-response,149,97406,0.0-1.0-30.0-0.0-3.0-0.0,0,0,1,,,,,,28.0,,,,,,,,,,,,,,,,,,,,,,,,,,,,,,,,139.5,1.0,,,,,,
150,,iti,,html-keyboard-response,150,97513,0.0-1.0-30.0-0.0-5.0,0,0,1,,,,,,,,,,,,,,,,,,,,,,,,,,,,,,,,,,,,,,140.5,1.0,,,,,,
151,,choice,,html-keyboard-response,151,98223,0.0-1.0-31.0-0.0-0.0,0,0,1,,707.0,,,50.0,29.0,29.0,3500.0,1000.0,0.0,1.0,0.0,40-40,,,fan,bench,40.0,40.0,fan5,bench12,20.0,20.0,Table_Fan.jpg,22927976.thl.jpg,/static/Category_learning/Stimuli/Experimental_stims/fan/Table_Fan.jpg,/static/Category_learning/Stimuli/Experimental_stims/bench/22927976.thl.jpg,1.0,fan,bench,40.0,40.0,fan5,bench12,20.0,20.0,0.0,141.207,0.7070000000000001,,,,,,
152,,confirmation,,html-keyboard-response,152,99022,0.0-1.0-31.0-0.0-1.0-0.0,0,0,1,,,,,,29.0,,,,,,,,,,,,,,,,,,,,,,,,,,,,,,,,142.0,0.7929999999999999,,,,,,
153,,isi,,html-keyboard-response,153,99129,0.0-1.0-31.0-0.0-2.0,0,0,1,,,,,,,,,,,,,,,,,,,,,,,,,,,,,,,,,,,,,,145.5,3.5,,,,,,
154,,feedback,,html-keyboard-response,154,100134,0.0-1.0-31.0-0.0-3.0-0.0,0,0,1,,,,,,29.0,,,,,,,,,,,,,,,,,,,,,,,,,,,,,,,,146.5,1.0,,,,,,
155,,iti,,html-keyboard-response,155,100239,0.0-1.0-31.0-0.0-5.0,0,0,1,,,,,,,,,,,,,,,,,,,,,,,,,,,,,,,,,,,,,,147.5,1.0,,,,,,
156,,choice,,html-keyboard-response,156,100986,0.0-1.0-32.0-0.0-0.0,0,0,1,,744.0,,,51.0,30.0,30.0,1000.0,3000.0,0.0,1.0,1.0,60-60,1.0,,license plate,license plate,60.0,60.0,license plate9,license plate2,80.0,60.0,nm-dhg089.jpg,ny-u93-8zs.jpg,/static/Category_learning/Stimuli/Experimental_stims/license plate/nm-dhg089.jpg,/static/Category_learning/Stimuli/Experimental_stims/license plate/ny-u93-8zs.jpg,0.0,license plate,license plate,60.0,60.0,license plate2,license plate9,60.0,80.0,0.0,148.244,0.7440000000000001,,,,,,
157,,confirmation,,html-keyboard-response,157,101748,0.0-1.0-32.0-0.0-1.0-0.0,0,0,1,,,,,,30.0,,,,,,,,,,,,,,,,,,,,,,,,,,,,,,,,149.0,0.7559999999999999,,,,,,
158,,isi,,html-keyboard-response,158,101854,0.0-1.0-32.0-0.0-2.0,0,0,1,,,,,,,,,,,,,,,,,,,,,,,,,,,,,,,,,,,,,,150.0,1.0,,,,,,
159,,feedback,,html-keyboard-response,159,102857,0.0-1.0-32.0-0.0-3.0-0.0,0,0,1,,,,,,30.0,,,,,,,,,,,,,,,,,,,,,,,,,,,,,,,,151.0,1.0,,,,,,
160,,iti,,html-keyboard-response,160,102964,0.0-1.0-32.0-0.0-5.0,0,0,1,,,,,,,,,,,,,,,,,,,,,,,,,,,,,,,,,,,,,,154.0,3.0,,,,,,
161,,choice,,html-keyboard-response,161,103569,0.0-1.0-33.0-0.0-0.0,0,0,1,,603.0,,,50.0,31.0,31.0,1500.0,1500.0,0.0,1.0,0.0,80-80,,,sofa,patio lounge chair,80.0,80.0,sofa15,patio lounge chair9,100.0,80.0,APEACHLOV.jpg,43-3.jpg,/static/Category_learning/Stimuli/Experimental_stims/sofa/APEACHLOV.jpg,/static/Category_learning/Stimuli/Experimental_stims/patio lounge chair/43-3.jpg,1.0,sofa,patio lounge chair,80.0,80.0,sofa15,patio lounge chair9,100.0,80.0,0.0,154.60299999999998,0.603,,,,,,
162,,confirmation,,html-keyboard-response,162,104473,0.0-1.0-33.0-0.0-1.0-0.0,0,0,1,,,,,,31.0,,,,,,,,,,,,,,,,,,,,,,,,,,,,,,,,155.5,0.897,,,,,,
163,,isi,,html-keyboard-response,163,104580,0.0-1.0-33.0-0.0-2.0,0,0,1,,,,,,,,,,,,,,,,,,,,,,,,,,,,,,,,,,,,,,157.0,1.5,,,,,,
164,,feedback,,html-keyboard-response,164,105586,0.0-1.0-33.0-0.0-3.0-0.0,0,0,1,,,,,,31.0,,,,,,,,,,,,,,,,,,,,,,,,,,,,,,,,158.0,1.0,,,,,,
165,,iti,,html-keyboard-response,165,105689,0.0-1.0-33.0-0.0-5.0,0,0,1,,,,,,,,,,,,,,,,,,,,,,,,,,,,,,,,,,,,,,159.5,1.5,,,,,,
166,,choice,,html-keyboard-response,166,106967,0.0-1.0-34.0-0.0-0.0,0,0,1,,1275.0,,,50.0,32.0,32.0,1000.0,1000.0,0.0,1.0,0.0,20-80,,1.0,necklace,vase,80.0,20.0,necklace1,vase12,100.0,0.0,26443173.thl.jpg,Abluevase2.jpg,/static/Category_learning/Stimuli/Experimental_stims/necklace/26443173.thl.jpg,/static/Category_learning/Stimuli/Experimental_stims/vase/Abluevase2.jpg,1.0,necklace,vase,80.0,20.0,necklace1,vase12,100.0,0.0,0.0,160.775,1.275,,,,,,
167,,confirmation,,html-keyboard-response,167,107199,0.0-1.0-34.0-0.0-1.0-0.0,0,0,1,,,,,,32.0,,,,,,,,,,,,,,,,,,,,,,,,,,,,,,,,161.0,0.225,,,,,,
168,,isi,,html-keyboard-response,168,107305,0.0-1.0-34.0-0.0-2.0,0,0,1,,,,,,,,,,,,,,,,,,,,,,,,,,,,,,,,,,,,,,162.0,1.0,,,,,,
169,,feedback,,html-keyboard-response,169,108313,0.0-1.0-34.0-0.0-3.0-0.0,0,0,1,,,,,,32.0,,,,,,,,,,,,,,,,,,,,,,,,,,,,,,,,163.0,1.0,,,,,,
170,,iti,,html-keyboard-response,170,108420,0.0-1.0-34.0-0.0-5.0,0,0,1,,,,,,,,,,,,,,,,,,,,,,,,,,,,,,,,,,,,,,164.0,1.0,,,,,,
171,,choice,,html-keyboard-response,171,109634,0.0-1.0-35.0-0.0-0.0,0,0,1,,1211.0,,,50.0,33.0,33.0,3500.0,1000.0,0.0,1.0,0.0,40-80,,1.0,nail polish,desk,80.0,40.0,nail polish14,desk14,80.0,20.0,38031405.JPG,26419960.thl.jpg,/static/Category_learning/Stimuli/Experimental_stims/nail polish/38031405.JPG,/static/Category_learning/Stimuli/Experimental_stims/desk/26419960.thl.jpg,1.0,nail polish,desk,80.0,40.0,nail polish14,desk14,80.0,20.0,0.0,165.21099999999998,1.2109999999999999,,,,,,
172,,confirmation,,html-keyboard-response,172,109929,0.0-1.0-35.0-0.0-1.0-0.0,0,0,1,,,,,,33.0,,,,,,,,,,,,,,,,,,,,,,,,,,,,,,,,165.5,0.289,,,,,,
173,,isi,,html-keyboard-response,173,110036,0.0-1.0-35.0-0.0-2.0,0,0,1,,,,,,,,,,,,,,,,,,,,,,,,,,,,,,,,,,,,,,169.0,3.5,,,,,,
174,,feedback,,html-keyboard-response,174,111042,0.0-1.0-35.0-0.0-3.0-0.0,0,0,1,,,,,,33.0,,,,,,,,,,,,,,,,,,,,,,,,,,,,,,,,170.0,1.0,,,,,,
175,,iti,,html-keyboard-response,175,111145,0.0-1.0-35.0-0.0-5.0,0,0,1,,,,,,,,,,,,,,,,,,,,,,,,,,,,,,,,,,,,,,171.0,1.0,,,,,,
176,,choice,,html-keyboard-response,176,112009,0.0-1.0-36.0-0.0-0.0,0,0,1,,861.0,,,51.0,34.0,34.0,1000.0,1000.0,0.0,1.0,1.0,20-20,1.0,,yarn,yarn,20.0,20.0,yarn5,yarn9,0.0,40.0,Aballofyarn14.jpg,Aballofyarn26.jpg,/static/Category_learning/Stimuli/Experimental_stims/yarn/Aballofyarn14.jpg,/static/Category_learning/Stimuli/Experimental_stims/yarn/Aballofyarn26.jpg,0.0,yarn,yarn,20.0,20.0,yarn9,yarn5,40.0,0.0,0.0,171.861,0.861,,,,,,
177,,confirmation,,html-keyboard-response,177,112651,0.0-1.0-36.0-0.0-1.0-0.0,0,0,1,,,,,,34.0,,,,,,,,,,,,,,,,,,,,,,,,,,,,,,,,172.5,0.639,,,,,,
178,,isi,,html-keyboard-response,178,112756,0.0-1.0-36.0-0.0-2.0,0,0,1,,,,,,,,,,,,,,,,,,,,,,,,,,,,,,,,,,,,,,173.5,1.0,,,,,,
179,,feedback,,html-keyboard-response,179,113762,0.0-1.0-36.0-0.0-3.0-0.0,0,0,1,,,,,,34.0,,,,,,,,,,,,,,,,,,,,,,,,,,,,,,,,174.5,1.0,,,,,,
180,,iti,,html-keyboard-response,180,113865,0.0-1.0-36.0-0.0-5.0,0,0,1,,,,,,,,,,,,,,,,,,,,,,,,,,,,,,,,,,,,,,175.5,1.0,,,,,,
181,,choice,,html-keyboard-response,181,114527,0.0-1.0-37.0-0.0-0.0,0,0,1,,658.0,,,50.0,35.0,35.0,1000.0,1500.0,0.0,1.0,1.0,60-60,1.0,,hammer,hammer,60.0,60.0,hammer2,hammer6,40.0,80.0,hammer04.jpg,hammer03.jpg,/static/Category_learning/Stimuli/Experimental_stims/hammer/hammer04.jpg,/static/Category_learning/Stimuli/Experimental_stims/hammer/hammer03.jpg,1.0,hammer,hammer,60.0,60.0,hammer2,hammer6,40.0,80.0,0.0,176.158,0.6579999999999999,,,,,,
182,,confirmation,,html-keyboard-response,182,115375,0.0-1.0-37.0-0.0-1.0-0.0,0,0,1,,,,,,35.0,,,,,,,,,,,,,,,,,,,,,,,,,,,,,,,,177.0,0.8420000000000001,,,,,,
183,,isi,,html-keyboard-response,183,115482,0.0-1.0-37.0-0.0-2.0,0,0,1,,,,,,,,,,,,,,,,,,,,,,,,,,,,,,,,,,,,,,178.0,1.0,,,,,,
184,,feedback,,html-keyboard-response,184,116489,0.0-1.0-37.0-0.0-3.0-0.0,0,0,1,,,,,,35.0,,,,,,,,,,,,,,,,,,,,,,,,,,,,,,,,179.0,1.0,,,,,,
185,,iti,,html-keyboard-response,185,116596,0.0-1.0-37.0-0.0-5.0,0,0,1,,,,,,,,,,,,,,,,,,,,,,,,,,,,,,,,,,,,,,180.5,1.5,,,,,,
186,,choice,,html-keyboard-response,186,117543,0.0-1.0-38.0-0.0-0.0,0,0,1,,944.0,,,50.0,36.0,36.0,3000.0,3500.0,0.0,1.0,1.0,60-80,0.0,,lipstick,nail polish,60.0,80.0,lipstick4,nail polish14,60.0,80.0,P145703_hero.jpg,38031405.JPG,/static/Category_learning/Stimuli/Experimental_stims/lipstick/P145703_hero.jpg,/static/Category_learning/Stimuli/Experimental_stims/nail polish/38031405.JPG,1.0,lipstick,nail polish,60.0,80.0,lipstick4,nail polish14,60.0,80.0,0.0,181.44400000000002,0.9440000000000001,,,,,,
187,,confirmation,,html-keyboard-response,187,118105,0.0-1.0-38.0-0.0-1.0-0.0,0,0,1,,,,,,36.0,,,,,,,,,,,,,,,,,,,,,,,,,,,,,,,,182.0,0.556,,,,,,
188,,isi,,html-keyboard-response,188,118212,0.0-1.0-38.0-0.0-2.0,0,0,1,,,,,,,,,,,,,,,,,,,,,,,,,,,,,,,,,,,,,,185.0,3.0,,,,,,
189,,feedback,,html-keyboard-response,189,119218,0.0-1.0-38.0-0.0-3.0-0.0,0,0,1,,,,,,36.0,,,,,,,,,,,,,,,,,,,,,,,,,,,,,,,,186.0,1.0,,,,,,
190,,iti,,html-keyboard-response,190,119321,0.0-1.0-38.0-0.0-5.0,0,0,1,,,,,,,,,,,,,,,,,,,,,,,,,,,,,,,,,,,,,,189.5,3.5,,,,,,
191,,choice,,html-keyboard-response,191,120216,0.0-1.0-39.0-0.0-0.0,0,0,1,,892.0,,,50.0,37.0,37.0,2000.0,1000.0,0.0,1.0,0.0,40-80,,1.0,necklace,flashlight,80.0,40.0,necklace10,flashlight6,60.0,40.0,necklascenew03.jpg,Flashlight.jpg,/static/Category_learning/Stimuli/Experimental_stims/necklace/necklascenew03.jpg,/static/Category_learning/Stimuli/Experimental_stims/flashlight/Flashlight.jpg,1.0,necklace,flashlight,80.0,40.0,necklace10,flashlight6,60.0,40.0,0.0,190.392,0.892,,,,,,
192,,confirmation,,html-keyboard-response,192,120831,0.0-1.0-39.0-0.0-1.0-0.0,0,0,1,,,,,,37.0,,,,,,,,,,,,,,,,,,,,,,,,,,,,,,,,191.0,0.608,,,,,,
193,,isi,,html-keyboard-response,193,120938,0.0-1.0-39.0-0.0-2.0,0,0,1,,,,,,,,,,,,,,,,,,,,,,,,,,,,,,,,,,,,,,193.0,2.0,,,,,,
194,,feedback,,html-keyboard-response,194,121943,0.0-1.0-39.0-0.0-3.0-0.0,0,0,1,,,,,,37.0,,,,,,,,,,,,,,,,,,,,,,,,,,,,,,,,194.0,1.0,,,,,,
195,,iti,,html-keyboard-response,195,122047,0.0-1.0-39.0-0.0-5.0,0,0,1,,,,,,,,,,,,,,,,,,,,,,,,,,,,,,,,,,,,,,195.0,1.0,,,,,,
196,,choice,,html-keyboard-response,196,122893,0.0-1.0-40.0-0.0-0.0,0,0,1,,844.0,,,50.0,38.0,38.0,1000.0,1000.0,0.0,1.0,1.0,80-80,1.0,,necklace,necklace,80.0,80.0,necklace1,necklace10,100.0,60.0,26443173.thl.jpg,necklascenew03.jpg,/static/Category_learning/Stimuli/Experimental_stims/necklace/26443173.thl.jpg,/static/Category_learning/Stimuli/Experimental_stims/necklace/necklascenew03.jpg,1.0,necklace,necklace,80.0,80.0,necklace1,necklace10,100.0,60.0,0.0,195.84400000000002,0.8440000000000001,,,,,,
197,,confirmation,,html-keyboard-response,197,123556,0.0-1.0-40.0-0.0-1.0-0.0,0,0,1,,,,,,38.0,,,,,,,,,,,,,,,,,,,,,,,,,,,,,,,,196.5,0.6559999999999999,,,,,,
198,,isi,,html-keyboard-response,198,123663,0.0-1.0-40.0-0.0-2.0,0,0,1,,,,,,,,,,,,,,,,,,,,,,,,,,,,,,,,,,,,,,197.5,1.0,,,,,,
199,,feedback,,html-keyboard-response,199,124668,0.0-1.0-40.0-0.0-3.0-0.0,0,0,1,,,,,,38.0,,,,,,,,,,,,,,,,,,,,,,,,,,,,,,,,198.5,1.0,,,,,,
200,,iti,,html-keyboard-response,200,124774,0.0-1.0-40.0-0.0-5.0,0,0,1,,,,,,,,,,,,,,,,,,,,,,,,,,,,,,,,,,,,,,199.5,1.0,,,,,,
201,,choice,,html-keyboard-response,201,125491,0.0-1.0-41.0-0.0-0.0,0,0,1,,713.0,,,50.0,39.0,39.0,1000.0,1500.0,0.0,1.0,0.0,20-60,,1.0,hat,stool,60.0,20.0,hat1,stool8,60.0,0.0,AGREENHAT.jpg,ASTOOL33.jpg,/static/Category_learning/Stimuli/Experimental_stims/hat/AGREENHAT.jpg,/static/Category_learning/Stimuli/Experimental_stims/stool/ASTOOL33.jpg,1.0,hat,stool,60.0,20.0,hat1,stool8,60.0,0.0,0.0,200.213,0.713,,,,,,
202,,confirmation,,html-keyboard-response,202,126285,0.0-1.0-41.0-0.0-1.0-0.0,0,0,1,,,,,,39.0,,,,,,,,,,,,,,,,,,,,,,,,,,,,,,,,201.0,0.787,,,,,,
203,,isi,,html-keyboard-response,203,126390,0.0-1.0-41.0-0.0-2.0,0,0,1,,,,,,,,,,,,,,,,,,,,,,,,,,,,,,,,,,,,,,202.0,1.0,,,,,,
204,,feedback,,html-keyboard-response,204,127397,0.0-1.0-41.0-0.0-3.0-0.0,0,0,1,,,,,,39.0,,,,,,,,,,,,,,,,,,,,,,,,,,,,,,,,203.0,1.0,,,,,,
205,,iti,,html-keyboard-response,205,127502,0.0-1.0-41.0-0.0-5.0,0,0,1,,,,,,,,,,,,,,,,,,,,,,,,,,,,,,,,,,,,,,204.5,1.5,,,,,,
206,,choice,,html-keyboard-response,206,128273,0.0-1.0-42.0-0.0-0.0,0,0,1,,768.0,,,50.0,40.0,40.0,1000.0,3500.0,0.0,1.0,0.0,20-80,,0.0,tape,power strip,20.0,80.0,tape9,power strip10,40.0,80.0,desk tape disp.jpg,6bd437c9-6165-4d36-bf75-9a1038783c6a_400.jpg,/static/Category_learning/Stimuli/Experimental_stims/tape/desk tape disp.jpg,/static/Category_learning/Stimuli/Experimental_stims/power strip/6bd437c9-6165-4d36-bf75-9a1038783c6a_400.jpg,1.0,tape,power strip,20.0,80.0,tape9,power strip10,40.0,80.0,0.0,205.268,0.768,,,,,,
207,,confirmation,,html-keyboard-response,207,129012,0.0-1.0-42.0-0.0-1.0-0.0,0,0,1,,,,,,40.0,,,,,,,,,,,,,,,,,,,,,,,,,,,,,,,,206.0,0.732,,,,,,
208,,isi,,html-keyboard-response,208,129119,0.0-1.0-42.0-0.0-2.0,0,0,1,,,,,,,,,,,,,,,,,,,,,,,,,,,,,,,,,,,,,,207.0,1.0,,,,,,
209,,feedback,,html-keyboard-response,209,130122,0.0-1.0-42.0-0.0-3.0-0.0,0,0,1,,,,,,40.0,,,,,,,,,,,,,,,,,,,,,,,,,,,,,,,,208.0,1.0,,,,,,
210,,iti,,html-keyboard-response,210,130229,0.0-1.0-42.0-0.0-5.0,0,0,1,,,,,,,,,,,,,,,,,,,,,,,,,,,,,,,,,,,,,,211.5,3.5,,,,,,
211,,choice,,html-keyboard-response,211,131036,0.0-1.0-43.0-0.0-0.0,0,0,1,,804.0,,,50.0,41.0,41.0,1500.0,1000.0,0.0,1.0,0.0,20-80,,0.0,tape,poker card,20.0,80.0,tape12,poker card4,40.0,60.0,Frog-Tape-Dispenser_F02218A2.jpg,22864728.thl.jpg,/static/Category_learning/Stimuli/Experimental_stims/tape/Frog-Tape-Dispenser_F02218A2.jpg,/static/Category_learning/Stimuli/Experimental_stims/poker card/22864728.thl.jpg,1.0,tape,poker card,20.0,80.0,tape12,poker card4,40.0,60.0,0.0,212.304,0.804,,,,,,
212,,confirmation,,html-keyboard-response,212,131738,0.0-1.0-43.0-0.0-1.0-0.0,0,0,1,,,,,,41.0,,,,,,,,,,,,,,,,,,,,,,,,,,,,,,,,213.0,0.696,,,,,,
213,,isi,,html-keyboard-response,213,131844,0.0-1.0-43.0-0.0-2.0,0,0,1,,,,,,,,,,,,,,,,,,,,,,,,,,,,,,,,,,,,,,214.5,1.5,,,,,,
214,,feedback,,html-keyboard-response,214,132849,0.0-1.0-43.0-0.0-3.0-0.0,0,0,1,,,,,,41.0,,,,,,,,,,,,,,,,,,,,,,,,,,,,,,,,215.5,1.0,,,,,,
215,,iti,,html-keyboard-response,215,132953,0.0-1.0-43.0-0.0-5.0,0,0,1,,,,,,,,,,,,,,,,,,,,,,,,,,,,,,,,,,,,,,216.5,1.0,,,,,,
216,,choice,,html-keyboard-response,216,134021,0.0-1.0-44.0-0.0-0.0,0,0,1,,1065.0,,,50.0,42.0,42.0,2000.0,3500.0,0.0,1.0,0.0,20-80,,1.0,power strip,telescope,80.0,20.0,power strip13,telescope2,100.0,40.0,01dccef1-d4b2-4d2e-a317-f2ed46b70b4b_400.jpg,Brass-telescope-60700.jpg,/static/Category_learning/Stimuli/Experimental_stims/power strip/01dccef1-d4b2-4d2e-a317-f2ed46b70b4b_400.jpg,/static/Category_learning/Stimuli/Experimental_stims/telescope/Brass-telescope-60700.jpg,1.0,power strip,telescope,80.0,20.0,power strip13,telescope2,100.0,40.0,0.0,217.565,1.065,,,,,,
217,,confirmation,,html-keyboard-response,217,134463,0.0-1.0-44.0-0.0-1.0-0.0,0,0,1,,,,,,42.0,,,,,,,,,,,,,,,,,,,,,,,,,,,,,,,,218.0,0.435,,,,,,
218,,isi,,html-keyboard-response,218,134569,0.0-1.0-44.0-0.0-2.0,0,0,1,,,,,,,,,,,,,,,,,,,,,,,,,,,,,,,,,,,,,,220.0,2.0,,,,,,
219,,feedback,,html-keyboard-response,219,135576,0.0-1.0-44.0-0.0-3.0-0.0,0,0,1,,,,,,42.0,,,,,,,,,,,,,,,,,,,,,,,,,,,,,,,,221.0,1.0,,,,,,
220,,iti,,html-keyboard-response,220,135680,0.0-1.0-44.0-0.0-5.0,0,0,1,,,,,,,,,,,,,,,,,,,,,,,,,,,,,,,,,,,,,,224.5,3.5,,,,,,
221,,choice,,html-keyboard-response,221,136639,0.0-1.0-45.0-0.0-0.0,0,0,1,,956.0,,,51.0,43.0,43.0,1000.0,2000.0,0.0,1.0,0.0,20-60,,0.0,yarn,makeup compact,20.0,60.0,yarn2,makeup compact6,20.0,80.0,Aballofyarn66.jpg,P0754_hero.jpg,/static/Category_learning/Stimuli/Experimental_stims/yarn/Aballofyarn66.jpg,/static/Category_learning/Stimuli/Experimental_stims/makeup compact/P0754_hero.jpg,0.0,makeup compact,yarn,60.0,20.0,makeup compact6,yarn2,80.0,20.0,0.0,225.456,0.956,,,,,,
222,,confirmation,,html-keyboard-response,222,137188,0.0-1.0-45.0-0.0-1.0-0.0,0,0,1,,,,,,43.0,,,,,,,,,,,,,,,,,,,,,,,,,,,,,,,,226.0,0.544,,,,,,
223,,isi,,html-keyboard-response,223,137295,0.0-1.0-45.0-0.0-2.0,0,0,1,,,,,,,,,,,,,,,,,,,,,,,,,,,,,,,,,,,,,,227.0,1.0,,,,,,
224,,feedback,,html-keyboard-response,224,138297,0.0-1.0-45.0-0.0-3.0-0.0,0,0,1,,,,,,43.0,,,,,,,,,,,,,,,,,,,,,,,,,,,,,,,,228.0,1.0,,,,,,
225,,iti,,html-keyboard-response,225,138404,0.0-1.0-45.0-0.0-5.0,0,0,1,,,,,,,,,,,,,,,,,,,,,,,,,,,,,,,,,,,,,,230.0,2.0,,,,,,
226,,choice,,html-keyboard-response,226,139360,0.0-1.0-46.0-0.0-0.0,0,0,1,,953.0,,,50.0,44.0,44.0,1000.0,1000.0,0.0,1.0,0.0,20-60,,0.0,stool,makeup compact,20.0,60.0,stool15,makeup compact3,20.0,40.0,ASTOOL.jpg,P181006_hero.jpg,/static/Category_learning/Stimuli/Experimental_stims/stool/ASTOOL.jpg,/static/Category_learning/Stimuli/Experimental_stims/makeup compact/P181006_hero.jpg,1.0,stool,makeup compact,20.0,60.0,stool15,makeup compact3,20.0,40.0,0.0,230.953,0.953,,,,,,
227,,confirmation,,html-keyboard-response,227,139914,0.0-1.0-46.0-0.0-1.0-0.0,0,0,1,,,,,,44.0,,,,,,,,,,,,,,,,,,,,,,,,,,,,,,,,231.5,0.547,,,,,,
228,,isi,,html-keyboard-response,228,140020,0.0-1.0-46.0-0.0-2.0,0,0,1,,,,,,,,,,,,,,,,,,,,,,,,,,,,,,,,,,,,,,232.5,1.0,,,,,,
229,,feedback,,html-keyboard-response,229,141027,0.0-1.0-46.0-0.0-3.0-0.0,0,0,1,,,,,,44.0,,,,,,,,,,,,,,,,,,,,,,,,,,,,,,,,233.5,1.0,,,,,,
230,,iti,,html-keyboard-response,230,141130,0.0-1.0-46.0-0.0-5.0,0,0,1,,,,,,,,,,,,,,,,,,,,,,,,,,,,,,,,,,,,,,234.5,1.0,,,,,,
231,,choice,,html-keyboard-response,231,142459,0.0-1.0-47.0-0.0-0.0,0,0,1,,1327.0,,,50.0,45.0,45.0,1000.0,1000.0,0.0,1.0,0.0,20-20,,,tape,watch,20.0,20.0,tape6,watch15,40.0,40.0,1912.jpg,20-171-6.jpg,/static/Category_learning/Stimuli/Experimental_stims/tape/1912.jpg,/static/Category_learning/Stimuli/Experimental_stims/watch/20-171-6.jpg,1.0,tape,watch,20.0,20.0,tape6,watch15,40.0,40.0,0.0,235.827,1.327,,,,,,
232,,confirmation,,html-keyboard-response,232,142639,0.0-1.0-47.0-0.0-1.0-0.0,0,0,1,,,,,,45.0,,,,,,,,,,,,,,,,,,,,,,,,,,,,,,,,236.0,0.17300000000000001,,,,,,
233,,isi,,html-keyboard-response,233,142744,0.0-1.0-47.0-0.0-2.0,0,0,1,,,,,,,,,,,,,,,,,,,,,,,,,,,,,,,,,,,,,,237.0,1.0,,,,,,
234,,feedback,,html-keyboard-response,234,143748,0.0-1.0-47.0-0.0-3.0-0.0,0,0,1,,,,,,45.0,,,,,,,,,,,,,,,,,,,,,,,,,,,,,,,,238.0,1.0,,,,,,
235,,iti,,html-keyboard-response,235,143855,0.0-1.0-47.0-0.0-5.0,0,0,1,,,,,,,,,,,,,,,,,,,,,,,,,,,,,,,,,,,,,,239.0,1.0,,,,,,
236,,choice,,html-keyboard-response,236,144604,0.0-1.0-48.0-0.0-0.0,0,0,1,,748.0,,,50.0,46.0,46.0,1500.0,2000.0,0.0,1.0,0.0,40-80,,1.0,nail polish,fan,80.0,40.0,nail polish6,fan1,60.0,60.0,127_t.jpg,01393.fpx.jpg,/static/Category_learning/Stimuli/Experimental_stims/nail polish/127_t.jpg,/static/Category_learning/Stimuli/Experimental_stims/fan/01393.fpx.jpg,1.0,nail polish,fan,80.0,40.0,nail polish6,fan1,60.0,60.0,0.0,239.748,0.748,,,,,,
237,,confirmation,,html-keyboard-response,237,145359,0.0-1.0-48.0-0.0-1.0-0.0,0,0,1,,,,,,46.0,,,,,,,,,,,,,,,,,,,,,,,,,,,,,,,,240.5,0.752,,,,,,
238,,isi,,html-keyboard-response,238,145466,0.0-1.0-48.0-0.0-2.0,0,0,1,,,,,,,,,,,,,,,,,,,,,,,,,,,,,,,,,,,,,,242.0,1.5,,,,,,
239,,feedback,,html-keyboard-response,239,146468,0.0-1.0-48.0-0.0-3.0-0.0,0,0,1,,,,,,46.0,,,,,,,,,,,,,,,,,,,,,,,,,,,,,,,,243.0,1.0,,,,,,
240,,iti,,html-keyboard-response,240,146571,0.0-1.0-48.0-0.0-5.0,0,0,1,,,,,,,,,,,,,,,,,,,,,,,,,,,,,,,,,,,,,,245.0,2.0,,,,,,
241,,choice,,html-keyboard-response,241,147652,0.0-1.0-49.0-0.0-0.0,0,0,1,,1079.0,,,50.0,47.0,47.0,1500.0,2000.0,0.0,1.0,0.0,60-80,,1.0,pen,license plate,80.0,60.0,pen10,license plate8,100.0,60.0,VP-Raden-FP-L copy.jpg,dc-vrw-jsw.jpg,/static/Category_learning/Stimuli/Experimental_stims/pen/VP-Raden-FP-L copy.jpg,/static/Category_learning/Stimuli/Experimental_stims/license plate/dc-vrw-jsw.jpg,1.0,pen,license plate,80.0,60.0,pen10,license plate8,100.0,60.0,0.0,246.079,1.079,,,,,,
242,,confirmation,,html-keyboard-response,242,148078,0.0-1.0-49.0-0.0-1.0-0.0,0,0,1,,,,,,47.0,,,,,,,,,,,,,,,,,,,,,,,,,,,,,,,,246.5,0.42100000000000004,,,,,,
243,,isi,,html-keyboard-response,243,148184,0.0-1.0-49.0-0.0-2.0,0,0,1,,,,,,,,,,,,,,,,,,,,,,,,,,,,,,,,,,,,,,248.0,1.5,,,,,,
244,,feedback,,html-keyboard-response,244,149188,0.0-1.0-49.0-0.0-3.0-0.0,0,0,1,,,,,,47.0,,,,,,,,,,,,,,,,,,,,,,,,,,,,,,,,249.0,1.0,,,,,,
245,,iti,,html-keyboard-response,245,149295,0.0-1.0-49.0-0.0-5.0,0,0,1,,,,,,,,,,,,,,,,,,,,,,,,,,,,,,,,,,,,,,251.0,2.0,,,,,,
246,,choice,,html-keyboard-response,246,150072,0.0-1.0-50.0-0.0-0.0,0,0,1,,775.0,,,51.0,48.0,48.0,1500.0,1000.0,0.0,1.0,0.0,40-60,,1.0,frame,bongo,60.0,40.0,frame4,bongo11,60.0,40.0,AFRAME125.jpg,ABONGO6.jpg,/static/Category_learning/Stimuli/Experimental_stims/frame/AFRAME125.jpg,/static/Category_learning/Stimuli/Experimental_stims/bongo/ABONGO6.jpg,0.0,bongo,frame,40.0,60.0,bongo11,frame4,40.0,60.0,0.0,251.775,0.775,,,,,,
247,,confirmation,,html-keyboard-response,247,150804,0.0-1.0-50.0-0.0-1.0-0.0,0,0,1,,,,,,48.0,,,,,,,,,,,,,,,,,,,,,,,,,,,,,,,,252.5,0.725,,,,,,
248,,isi,,html-keyboard-response,248,150911,0.0-1.0-50.0-0.0-2.0,0,0,1,,,,,,,,,,,,,,,,,,,,,,,,,,,,,,,,,,,,,,254.0,1.5,,,,,,
249,,feedback,,html-keyboard-response,249,151914,0.0-1.0-50.0-0.0-3.0-0.0,0,0,1,,,,,,48.0,,,,,,,,,,,,,,,,,,,,,,,,,,,,,,,,255.0,1.0,,,,,,
250,,iti,,html-keyboard-response,250,152020,0.0-1.0-50.0-0.0-5.0,0,0,1,,,,,,,,,,,,,,,,,,,,,,,,,,,,,,,,,,,,,,256.0,1.0,,,,,,
251,,choice,,html-keyboard-response,251,152719,0.0-1.0-51.0-0.0-0.0,0,0,1,,697.0,,,50.0,49.0,49.0,2000.0,2000.0,0.0,1.0,0.0,40-60,,0.0,dresser,lipstick,40.0,60.0,dresser3,lipstick1,20.0,80.0,ADRESSE79.jpg,P170102_hero.jpg,/static/Category_learning/Stimuli/Experimental_stims/dresser/ADRESSE79.jpg,/static/Category_learning/Stimuli/Experimental_stims/lipstick/P170102_hero.jpg,1.0,dresser,lipstick,40.0,60.0,dresser3,lipstick1,20.0,80.0,0.0,256.697,0.6970000000000001,,,,,,
252,,confirmation,,html-keyboard-response,252,153525,0.0-1.0-51.0-0.0-1.0-0.0,0,0,1,,,,,,49.0,,,,,,,,,,,,,,,,,,,,,,,,,,,,,,,,257.5,0.8029999999999999,,,,,,
253,,isi,,html-keyboard-response,253,153631,0.0-1.0-51.0-0.0-2.0,0,0,1,,,,,,,,,,,,,,,,,,,,,,,,,,,,,,,,,,,,,,259.5,2.0,,,,,,
254,,feedback,,html-keyboard-response,254,154634,0.0-1.0-51.0-0.0-3.0-0.0,0,0,1,,,,,,49.0,,,,,,,,,,,,,,,,,,,,,,,,,,,,,,,,260.5,1.0,,,,,,
255,,iti,,html-keyboard-response,255,154741,0.0-1.0-51.0-0.0-5.0,0,0,1,,,,,,,,,,,,,,,,,,,,,,,,,,,,,,,,,,,,,,262.5,2.0,,,,,,
256,,choice,,html-keyboard-response,256,155763,0.0-1.0-52.0-0.0-0.0,0,0,1,,1019.0,,,50.0,50.0,50.0,3500.0,1000.0,0.0,1.0,1.0,20-20,1.0,,tape,tape,20.0,20.0,tape6,tape12,40.0,40.0,1912.jpg,Frog-Tape-Dispenser_F02218A2.jpg,/static/Category_learning/Stimuli/Experimental_stims/tape/1912.jpg,/static/Category_learning/Stimuli/Experimental_stims/tape/Frog-Tape-Dispenser_F02218A2.jpg,1.0,tape,tape,20.0,20.0,tape6,tape12,40.0,40.0,0.0,263.519,1.0190000000000001,,,,,,
257,,confirmation,,html-keyboard-response,257,156250,0.0-1.0-52.0-0.0-1.0-0.0,0,0,1,,,,,,50.0,,,,,,,,,,,,,,,,,,,,,,,,,,,,,,,,264.0,0.48100000000000004,,,,,,
258,,isi,,html-keyboard-response,258,156357,0.0-1.0-52.0-0.0-2.0,0,0,1,,,,,,,,,,,,,,,,,,,,,,,,,,,,,,,,,,,,,,267.5,3.5,,,,,,
259,,feedback,,html-keyboard-response,259,157363,0.0-1.0-52.0-0.0-3.0-0.0,0,0,1,,,,,,50.0,,,,,,,,,,,,,,,,,,,,,,,,,,,,,,,,268.5,1.0,,,,,,
260,,iti,,html-keyboard-response,260,157466,0.0-1.0-52.0-0.0-5.0,0,0,1,,,,,,,,,,,,,,,,,,,,,,,,,,,,,,,,,,,,,,269.5,1.0,,,,,,
261,,choice,,html-keyboard-response,261,158421,0.0-1.0-53.0-0.0-0.0,0,0,1,,953.0,,,50.0,51.0,51.0,2000.0,1000.0,0.0,1.0,0.0,60-60,,,makeup compact,microscope,60.0,60.0,makeup compact5,microscope3,40.0,40.0,P109965_hero.jpg,APDB.jpg,/static/Category_learning/Stimuli/Experimental_stims/makeup compact/P109965_hero.jpg,/static/Category_learning/Stimuli/Experimental_stims/microscope/APDB.jpg,1.0,makeup compact,microscope,60.0,60.0,makeup compact5,microscope3,40.0,40.0,0.0,270.453,0.953,,,,,,
262,,confirmation,,html-keyboard-response,262,158976,0.0-1.0-53.0-0.0-1.0-0.0,0,0,1,,,,,,51.0,,,,,,,,,,,,,,,,,,,,,,,,,,,,,,,,271.0,0.547,,,,,,
263,,isi,,html-keyboard-response,263,159082,0.0-1.0-53.0-0.0-2.0,0,0,1,,,,,,,,,,,,,,,,,,,,,,,,,,,,,,,,,,,,,,273.0,2.0,,,,,,
264,,feedback,,html-keyboard-response,264,160088,0.0-1.0-53.0-0.0-3.0-0.0,0,0,1,,,,,,51.0,,,,,,,,,,,,,,,,,,,,,,,,,,,,,,,,274.0,1.0,,,,,,
265,,iti,,html-keyboard-response,265,160192,0.0-1.0-53.0-0.0-5.0,0,0,1,,,,,,,,,,,,,,,,,,,,,,,,,,,,,,,,,,,,,,275.0,1.0,,,,,,
266,,choice,,html-keyboard-response,266,160868,0.0-1.0-54.0-0.0-0.0,0,0,1,,673.0,,,50.0,52.0,52.0,1000.0,1500.0,0.0,1.0,0.0,40-80,,0.0,baby carriage,necklace,40.0,80.0,baby carriage9,necklace2,20.0,80.0,Antique baby Carriage 7.jpg,Anecklace7.jpg,/static/Category_learning/Stimuli/Experimental_stims/baby carriage/Antique baby Carriage 7.jpg,/static/Category_learning/Stimuli/Experimental_stims/necklace/Anecklace7.jpg,1.0,baby carriage,necklace,40.0,80.0,baby carriage9,necklace2,20.0,80.0,0.0,275.673,0.6729999999999999,,,,,,
267,,confirmation,,html-keyboard-response,267,161701,0.0-1.0-54.0-0.0-1.0-0.0,0,0,1,,,,,,52.0,,,,,,,,,,,,,,,,,,,,,,,,,,,,,,,,276.5,0.8270000000000001,,,,,,
268,,isi,,html-keyboard-response,268,161808,0.0-1.0-54.0-0.0-2.0,0,0,1,,,,,,,,,,,,,,,,,,,,,,,,,,,,,,,,,,,,,,277.5,1.0,,,,,,
269,,feedback,,html-keyboard-response,269,162813,0.0-1.0-54.0-0.0-3.0-0.0,0,0,1,,,,,,52.0,,,,,,,,,,,,,,,,,,,,,,,,,,,,,,,,278.5,1.0,,,,,,
270,,iti,,html-keyboard-response,270,162917,0.0-1.0-54.0-0.0-5.0,0,0,1,,,,,,,,,,,,,,,,,,,,,,,,,,,,,,,,,,,,,,280.0,1.5,,,,,,
271,,choice,,html-keyboard-response,271,164060,0.0-1.0-55.0-0.0-0.0,0,0,1,,1139.0,,,50.0,53.0,53.0,2000.0,1500.0,0.0,1.0,0.0,20-80,,0.0,watch,small table,20.0,80.0,watch12,small table12,40.0,80.0,snl003_MED.jpg,ATABLE54.jpg,/static/Category_learning/Stimuli/Experimental_stims/watch/snl003_MED.jpg,/static/Category_learning/Stimuli/Experimental_stims/small table/ATABLE54.jpg,1.0,watch,small table,20.0,80.0,watch12,small table12,40.0,80.0,0.0,281.139,1.139,,,,,,
272,,confirmation,,html-keyboard-response,272,164427,0.0-1.0-55.0-0.0-1.0-0.0,0,0,1,,,,,,53.0,,,,,,,,,,,,,,,,,,,,,,,,,,,,,,,,281.5,0.361,,,,,,
273,,isi,,html-keyboard-response,273,164531,0.0-1.0-55.0-0.0-2.0,0,0,1,,,,,,,,,,,,,,,,,,,,,,,,,,,,,,,,,,,,,,283.5,2.0,,,,,,
274,,feedback,,html-keyboard-response,274,165536,0.0-1.0-55.0-0.0-3.0-0.0,0,0,1,,,,,,53.0,,,,,,,,,,,,,,,,,,,,,,,,,,,,,,,,284.5,1.0,,,,,,
275,,iti,,html-keyboard-response,275,165643,0.0-1.0-55.0-0.0-5.0,0,0,1,,,,,,,,,,,,,,,,,,,,,,,,,,,,,,,,,,,,,,286.0,1.5,,,,,,
276,,choice,,html-keyboard-response,276,166541,0.0-1.0-56.0-0.0-0.0,0,0,1,,896.0,,,51.0,54.0,54.0,1000.0,2000.0,0.0,1.0,1.0,60-60,1.0,,makeup compact,makeup compact,60.0,60.0,makeup compact5,makeup compact6,40.0,80.0,P109965_hero.jpg,P0754_hero.jpg,/static/Category_learning/Stimuli/Experimental_stims/makeup compact/P109965_hero.jpg,/static/Category_learning/Stimuli/Experimental_stims/makeup compact/P0754_hero.jpg,0.0,makeup compact,makeup compact,60.0,60.0,makeup compact6,makeup compact5,80.0,40.0,0.0,286.89599999999996,0.8959999999999999,,,,,,
277,,confirmation,,html-keyboard-response,277,167152,0.0-1.0-56.0-0.0-1.0-0.0,0,0,1,,,,,,54.0,,,,,,,,,,,,,,,,,,,,,,,,,,,,,,,,287.5,0.604,,,,,,
278,,isi,,html-keyboard-response,278,167259,0.0-1.0-56.0-0.0-2.0,0,0,1,,,,,,,,,,,,,,,,,,,,,,,,,,,,,,,,,,,,,,288.5,1.0,,,,,,
279,,feedback,,html-keyboard-response,279,168267,0.0-1.0-56.0-0.0-3.0-0.0,0,0,1,,,,,,54.0,,,,,,,,,,,,,,,,,,,,,,,,,,,,,,,,289.5,1.0,,,,,,
280,,iti,,html-keyboard-response,280,168373,0.0-1.0-56.0-0.0-5.0,0,0,1,,,,,,,,,,,,,,,,,,,,,,,,,,,,,,,,,,,,,,291.5,2.0,,,,,,
281,,choice,,html-keyboard-response,281,169456,0.0-1.0-57.0-0.0-0.0,0,0,1,,1079.0,,,51.0,55.0,55.0,1000.0,3000.0,0.0,1.0,0.0,40-60,,1.0,motorcycle,bench,60.0,40.0,motorcycle13,bench9,60.0,40.0,2005-Buell-FireboltXB12R.jpg,26419898.thl.jpg,/static/Category_learning/Stimuli/Experimental_stims/motorcycle/2005-Buell-FireboltXB12R.jpg,/static/Category_learning/Stimuli/Experimental_stims/bench/26419898.thl.jpg,0.0,bench,motorcycle,40.0,60.0,bench9,motorcycle13,40.0,60.0,0.0,292.579,1.079,,,,,,
282,,confirmation,,html-keyboard-response,282,169882,0.0-1.0-57.0-0.0-1.0-0.0,0,0,1,,,,,,55.0,,,,,,,,,,,,,,,,,,,,,,,,,,,,,,,,293.0,0.42100000000000004,,,,,,
283,,isi,,html-keyboard-response,283,169990,0.0-1.0-57.0-0.0-2.0,0,0,1,,,,,,,,,,,,,,,,,,,,,,,,,,,,,,,,,,,,,,294.0,1.0,,,,,,
284,,feedback,,html-keyboard-response,284,170997,0.0-1.0-57.0-0.0-3.0-0.0,0,0,1,,,,,,55.0,,,,,,,,,,,,,,,,,,,,,,,,,,,,,,,,295.0,1.0,,,,,,
285,,iti,,html-keyboard-response,285,171104,0.0-1.0-57.0-0.0-5.0,0,0,1,,,,,,,,,,,,,,,,,,,,,,,,,,,,,,,,,,,,,,298.0,3.0,,,,,,
286,,choice,,html-keyboard-response,286,172197,0.0-1.0-58.0-0.0-0.0,0,0,1,,1090.0,,,50.0,56.0,56.0,1000.0,1000.0,0.0,1.0,0.0,20-40,,1.0,baby carriage,train,40.0,20.0,baby carriage12,train4,60.0,40.0,Baby_Carriage-1.jpg,After-RHS-2-web.jpg,/static/Category_learning/Stimuli/Experimental_stims/baby carriage/Baby_Carriage-1.jpg,/static/Category_learning/Stimuli/Experimental_stims/train/After-RHS-2-web.jpg,1.0,baby carriage,train,40.0,20.0,baby carriage12,train4,60.0,40.0,0.0,299.09,1.09,,,,,,
287,,confirmation,,html-keyboard-response,287,172614,0.0-1.0-58.0-0.0-1.0-0.0,0,0,1,,,,,,56.0,,,,,,,,,,,,,,,,,,,,,,,,,,,,,,,,299.5,0.41,,,,,,
288,,isi,,html-keyboard-response,288,172719,0.0-1.0-58.0-0.0-2.0,0,0,1,,,,,,,,,,,,,,,,,,,,,,,,,,,,,,,,,,,,,,300.5,1.0,,,,,,
289,,feedback,,html-keyboard-response,289,173722,0.0-1.0-58.0-0.0-3.0-0.0,0,0,1,,,,,,56.0,,,,,,,,,,,,,,,,,,,,,,,,,,,,,,,,301.5,1.0,,,,,,
290,,iti,,html-keyboard-response,290,173826,0.0-1.0-58.0-0.0-5.0,0,0,1,,,,,,,,,,,,,,,,,,,,,,,,,,,,,,,,,,,,,,302.5,1.0,,,,,,
291,,choice,,html-keyboard-response,291,175234,0.0-1.0-59.0-0.0-0.0,0,0,1,,1405.0,,,50.0,57.0,57.0,3000.0,2000.0,0.0,1.0,1.0,40-40,1.0,,baby carriage,baby carriage,40.0,40.0,baby carriage9,baby carriage12,20.0,60.0,Antique baby Carriage 7.jpg,Baby_Carriage-1.jpg,/static/Category_learning/Stimuli/Experimental_stims/baby carriage/Antique baby Carriage 7.jpg,/static/Category_learning/Stimuli/Experimental_stims/baby carriage/Baby_Carriage-1.jpg,1.0,baby carriage,baby carriage,40.0,40.0,baby carriage9,baby carriage12,20.0,60.0,0.0,303.905,1.405,,,,,,
292,,confirmation,,html-keyboard-response,292,175333,0.0-1.0-59.0-0.0-1.0-0.0,0,0,1,,,,,,57.0,,,,,,,,,,,,,,,,,,,,,,,,,,,,,,,,304.0,0.095,,,,,,
293,,isi,,html-keyboard-response,293,175440,0.0-1.0-59.0-0.0-2.0,0,0,1,,,,,,,,,,,,,,,,,,,,,,,,,,,,,,,,,,,,,,307.0,3.0,,,,,,
294,,feedback,,html-keyboard-response,294,176443,0.0-1.0-59.0-0.0-3.0-0.0,0,0,1,,,,,,57.0,,,,,,,,,,,,,,,,,,,,,,,,,,,,,,,,308.0,1.0,,,,,,
295,,iti,,html-keyboard-response,295,176549,0.0-1.0-59.0-0.0-5.0,0,0,1,,,,,,,,,,,,,,,,,,,,,,,,,,,,,,,,,,,,,,310.0,2.0,,,,,,
296,,choice,,html-keyboard-response,296,178053,0.0-1.0-60.0-0.0-0.0,0,0,1,,,,,,58.0,58.0,2000.0,1000.0,0.0,1.0,0.0,40-80,,0.0,flashlight,seashell,40.0,80.0,flashlight13,seashell13,60.0,100.0,834808_sk_lg.jpg,coquillage22.jpg,/static/Category_learning/Stimuli/Experimental_stims/flashlight/834808_sk_lg.jpg,/static/Category_learning/Stimuli/Experimental_stims/seashell/coquillage22.jpg,,,,,,,,,,1.0,311.5,1.5,,,,,,
297,,isi,,html-keyboard-response,297,178160,0.0-1.0-60.0-0.0-2.0,0,0,1,,,,,,,,,,,,,,,,,,,,,,,,,,,,,,,,,,,,,,313.5,2.0,,,,,,
298,,no_response,,html-keyboard-response,298,179163,0.0-1.0-60.0-0.0-4.0-0.0,0,0,1,,,,,,,,,,,,,,,,,,,,,,,,,,,,,,,,,,,,,,314.5,1.0,,,,,,
299,,iti,,html-keyboard-response,299,179285,0.0-1.0-60.0-0.0-5.0,0,0,1,,,,,,,,,,,,,,,,,,,,,,,,,,,,,,,,,,,,,,315.5,1.0,,,,,,
300,,choice,,html-keyboard-response,300,180099,0.0-1.0-60.0-0.1-0.1,0,0,1,,810.0,,,51.0,58.0,58.0,2000.0,1000.0,0.0,1.0,0.0,40-80,,0.0,flashlight,seashell,40.0,80.0,flashlight13,seashell13,60.0,100.0,834808_sk_lg.jpg,coquillage22.jpg,/static/Category_learning/Stimuli/Experimental_stims/flashlight/834808_sk_lg.jpg,/static/Category_learning/Stimuli/Experimental_stims/seashell/coquillage22.jpg,0.0,seashell,flashlight,80.0,40.0,seashell13,flashlight13,100.0,60.0,0.0,316.31,0.81,,,,,,
301,,confirmation,,html-keyboard-response,301,180795,0.0-1.0-60.0-0.1-1.1-0.1,0,0,1,,,,,,58.0,,,,,,,,,,,,,,,,,,,,,,,,,,,,,,,,317.0,0.69,,,,,,
302,,isi,,html-keyboard-response,302,180901,0.0-1.0-60.0-0.1-2.1,0,0,1,,,,,,,,,,,,,,,,,,,,,,,,,,,,,,,,,,,,,,318.0,1.0,,,,,,
303,,feedback,,html-keyboard-response,303,181904,0.0-1.0-60.0-0.1-3.1-0.1,0,0,1,,,,,,58.0,,,,,,,,,,,,,,,,,,,,,,,,,,,,,,,,319.0,1.0,,,,,,
304,,iti,,html-keyboard-response,304,182011,0.0-1.0-60.0-0.1-5.1,0,0,1,,,,,,,,,,,,,,,,,,,,,,,,,,,,,,,,,,,,,,320.5,1.5,,,,,,
305,,choice,,html-keyboard-response,305,182841,0.0-1.0-61.0-0.0-0.0,0,0,1,,827.0,,,51.0,59.0,59.0,1000.0,1500.0,0.0,1.0,0.0,20-60,,0.0,watch,key chain,20.0,60.0,watch14,key chain14,0.0,40.0,HC06.jpg,Jif Keychain 285.jpg,/static/Category_learning/Stimuli/Experimental_stims/watch/HC06.jpg,/static/Category_learning/Stimuli/Experimental_stims/key chain/Jif Keychain 285.jpg,0.0,key chain,watch,60.0,20.0,key chain14,watch14,40.0,0.0,0.0,321.327,0.8270000000000001,,,,,,
306,,confirmation,,html-keyboard-response,306,183520,0.0-1.0-61.0-0.0-1.0-0.0,0,0,1,,,,,,59.0,,,,,,,,,,,,,,,,,,,,,,,,,,,,,,,,322.0,0.6729999999999999,,,,,,
307,,isi,,html-keyboard-response,307,183627,0.0-1.0-61.0-0.0-2.0,0,0,1,,,,,,,,,,,,,,,,,,,,,,,,,,,,,,,,,,,,,,323.0,1.0,,,,,,
308,,feedback,,html-keyboard-response,308,184633,0.0-1.0-61.0-0.0-3.0-0.0,0,0,1,,,,,,59.0,,,,,,,,,,,,,,,,,,,,,,,,,,,,,,,,324.0,1.0,,,,,,
309,,iti,,html-keyboard-response,309,184737,0.0-1.0-61.0-0.0-5.0,0,0,1,,,,,,,,,,,,,,,,,,,,,,,,,,,,,,,,,,,,,,325.5,1.5,,,,,,
310,,choice,,html-keyboard-response,310,185746,0.0-1.0-62.0-0.0-0.0,0,0,1,,1006.0,,,51.0,60.0,60.0,1500.0,1000.0,0.0,1.0,0.0,20-80,,0.0,watch,small table,20.0,80.0,watch8,small table2,40.0,100.0,2239.jpg,Atable126.jpg,/static/Category_learning/Stimuli/Experimental_stims/watch/2239.jpg,/static/Category_learning/Stimuli/Experimental_stims/small table/Atable126.jpg,0.0,small table,watch,80.0,20.0,small table2,watch8,100.0,40.0,0.0,326.506,1.006,,,,,,
311,,confirmation,,html-keyboard-response,311,186247,0.0-1.0-62.0-0.0-1.0-0.0,0,0,1,,,,,,60.0,,,,,,,,,,,,,,,,,,,,,,,,,,,,,,,,327.0,0.494,,,,,,
312,,isi,,html-keyboard-response,312,186352,0.0-1.0-62.0-0.0-2.0,0,0,1,,,,,,,,,,,,,,,,,,,,,,,,,,,,,,,,,,,,,,328.5,1.5,,,,,,
313,,feedback,,html-keyboard-response,313,187357,0.0-1.0-62.0-0.0-3.0-0.0,0,0,1,,,,,,60.0,,,,,,,,,,,,,,,,,,,,,,,,,,,,,,,,329.5,1.0,,,,,,
314,,iti,,html-keyboard-response,314,187462,0.0-1.0-62.0-0.0-5.0,0,0,1,,,,,,,,,,,,,,,,,,,,,,,,,,,,,,,,,,,,,,330.5,1.0,,,,,,
315,,choice,,html-keyboard-response,315,188272,0.0-1.0-63.0-0.0-0.0,0,0,1,,807.0,,,51.0,61.0,61.0,1500.0,2000.0,0.0,1.0,1.0,80-80,1.0,,seashell,seashell,80.0,80.0,seashell4,seashell13,60.0,100.0,seashell.jpg,coquillage22.jpg,/static/Category_learning/Stimuli/Experimental_stims/seashell/seashell.jpg,/static/Category_learning/Stimuli/Experimental_stims/seashell/coquillage22.jpg,0.0,seashell,seashell,80.0,80.0,seashell13,seashell4,100.0,60.0,0.0,331.30699999999996,0.807,,,,,,
316,,confirmation,,html-keyboard-response,316,188971,0.0-1.0-63.0-0.0-1.0-0.0,0,0,1,,,,,,61.0,,,,,,,,,,,,,,,,,,,,,,,,,,,,,,,,332.0,0.693,,,,,,
317,,isi,,html-keyboard-response,317,189077,0.0-1.0-63.0-0.0-2.0,0,0,1,,,,,,,,,,,,,,,,,,,,,,,,,,,,,,,,,,,,,,333.5,1.5,,,,,,
318,,feedback,,html-keyboard-response,318,190081,0.0-1.0-63.0-0.0-3.0-0.0,0,0,1,,,,,,61.0,,,,,,,,,,,,,,,,,,,,,,,,,,,,,,,,334.5,1.0,,,,,,
319,,iti,,html-keyboard-response,319,190187,0.0-1.0-63.0-0.0-5.0,0,0,1,,,,,,,,,,,,,,,,,,,,,,,,,,,,,,,,,,,,,,336.5,2.0,,,,,,
320,,choice,,html-keyboard-response,320,191137,0.0-1.0-64.0-0.0-0.0,0,0,1,,946.0,,,51.0,62.0,62.0,2000.0,1500.0,0.0,1.0,1.0,80-80,1.0,,small table,small table,80.0,80.0,small table2,small table7,100.0,80.0,Atable126.jpg,ATABLE89.jpg,/static/Category_learning/Stimuli/Experimental_stims/small table/Atable126.jpg,/static/Category_learning/Stimuli/Experimental_stims/small table/ATABLE89.jpg,0.0,small table,small table,80.0,80.0,small table7,small table2,80.0,100.0,0.0,337.44599999999997,0.946,,,,,,
321,,confirmation,,html-keyboard-response,321,191696,0.0-1.0-64.0-0.0-1.0-0.0,0,0,1,,,,,,62.0,,,,,,,,,,,,,,,,,,,,,,,,,,,,,,,,338.0,0.5539999999999999,,,,,,
322,,isi,,html-keyboard-response,322,191803,0.0-1.0-64.0-0.0-2.0,0,0,1,,,,,,,,,,,,,,,,,,,,,,,,,,,,,,,,,,,,,,340.0,2.0,,,,,,
323,,feedback,,html-keyboard-response,323,192811,0.0-1.0-64.0-0.0-3.0-0.0,0,0,1,,,,,,62.0,,,,,,,,,,,,,,,,,,,,,,,,,,,,,,,,341.0,1.0,,,,,,
324,,iti,,html-keyboard-response,324,192918,0.0-1.0-64.0-0.0-5.0,0,0,1,,,,,,,,,,,,,,,,,,,,,,,,,,,,,,,,,,,,,,342.5,1.5,,,,,,
325,,choice,,html-keyboard-response,325,193972,0.0-1.0-65.0-0.0-0.0,0,0,1,,1052.0,,,51.0,63.0,63.0,3000.0,3000.0,0.0,1.0,0.0,20-60,,1.0,key chain,stool,60.0,20.0,key chain9,stool12,80.0,0.0,sfx8832-ferrari-shield-keychain.jpg,henrybar_stool1.jpg,/static/Category_learning/Stimuli/Experimental_stims/key chain/sfx8832-ferrari-shield-keychain.jpg,/static/Category_learning/Stimuli/Experimental_stims/stool/henrybar_stool1.jpg,0.0,stool,key chain,20.0,60.0,stool12,key chain9,0.0,80.0,0.0,343.55199999999996,1.052,,,,,,
326,,confirmation,,html-keyboard-response,326,194426,0.0-1.0-65.0-0.0-1.0-0.0,0,0,1,,,,,,63.0,,,,,,,,,,,,,,,,,,,,,,,,,,,,,,,,344.0,0.44799999999999995,,,,,,
327,,isi,,html-keyboard-response,327,194531,0.0-1.0-65.0-0.0-2.0,0,0,1,,,,,,,,,,,,,,,,,,,,,,,,,,,,,,,,,,,,,,347.0,3.0,,,,,,
328,,feedback,,html-keyboard-response,328,195535,0.0-1.0-65.0-0.0-3.0-0.0,0,0,1,,,,,,63.0,,,,,,,,,,,,,,,,,,,,,,,,,,,,,,,,348.0,1.0,,,,,,
329,,iti,,html-keyboard-response,329,195638,0.0-1.0-65.0-0.0-5.0,0,0,1,,,,,,,,,,,,,,,,,,,,,,,,,,,,,,,,,,,,,,351.0,3.0,,,,,,
330,,block_over,,html-keyboard-response,330,197083,0.0-1.0-65.0-0.0-7.0-0.0,0,0,1,,1426.0,,,50.0,63.0,,,,,,,,,,,,,,,,,,,,,,,,,,,,,,,,,,,,,,,
331,,start_run,,html-keyboard-response,331,198801,0.0-1.0-65.0-0.0-7.0-1.0,0,0,1,,1716.0,,,84.0,,,,,,,,,,,,,,,,,,,,,,,,,,,,,,,,,,,,,,,,
332,,choice,,html-keyboard-response,332,200309,0.0-1.0-66.0-0.0-0.0,0,0,1,,,,,,64.0,65.0,1000.0,1500.0,0.0,2.0,0.0,20-60,,0.0,tent,hammer,20.0,60.0,tent10,hammer4,0.0,60.0,TENT-DUTCH-GD1-1.jpg,hammernew01.jpg,/static/Category_learning/Stimuli/Experimental_stims/tent/TENT-DUTCH-GD1-1.jpg,/static/Category_learning/Stimuli/Experimental_stims/hammer/hammernew01.jpg,,,,,,,,,,1.0,1.5,1.5,,,,,,
333,,isi,,html-keyboard-response,333,200416,0.0-1.0-66.0-0.0-2.0,0,0,1,,,,,,,,,,,,,,,,,,,,,,,,,,,,,,,,,,,,,,2.5,1.0,,,,,,
334,,no_response,,html-keyboard-response,334,201421,0.0-1.0-66.0-0.0-4.0-0.0,0,0,1,,,,,,,,,,,,,,,,,,,,,,,,,,,,,,,,,,,,,,3.5,1.0,,,,,,
335,,iti,,html-keyboard-response,335,201542,0.0-1.0-66.0-0.0-5.0,0,0,1,,,,,,,,,,,,,,,,,,,,,,,,,,,,,,,,,,,,,,5.0,1.5,,,,,,
336,,choice,,html-keyboard-response,336,202096,0.0-1.0-66.0-0.1-0.1,0,0,1,,551.0,,,50.0,64.0,65.0,1000.0,1500.0,0.0,2.0,0.0,20-60,,0.0,tent,hammer,20.0,60.0,tent10,hammer4,0.0,60.0,TENT-DUTCH-GD1-1.jpg,hammernew01.jpg,/static/Category_learning/Stimuli/Experimental_stims/tent/TENT-DUTCH-GD1-1.jpg,/static/Category_learning/Stimuli/Experimental_stims/hammer/hammernew01.jpg,1.0,tent,hammer,20.0,60.0,tent10,hammer4,0.0,60.0,0.0,5.551,0.551,,,,,,
337,,confirmation,,html-keyboard-response,337,203051,0.0-1.0-66.0-0.1-1.1-0.1,0,0,1,,,,,,64.0,,,,,,,,,,,,,,,,,,,,,,,,,,,,,,,,6.5,0.9490000000000001,,,,,,
338,,isi,,html-keyboard-response,338,203158,0.0-1.0-66.0-0.1-2.1,0,0,1,,,,,,,,,,,,,,,,,,,,,,,,,,,,,,,,,,,,,,10.0,3.5,,,,,,
339,,feedback,,html-keyboard-response,339,204164,0.0-1.0-66.0-0.1-3.1-0.1,0,0,1,,,,,,64.0,,,,,,,,,,,,,,,,,,,,,,,,,,,,,,,,11.0,1.0,,,,,,
340,,iti,,html-keyboard-response,340,204266,0.0-1.0-66.0-0.1-5.1,0,0,1,,,,,,,,,,,,,,,,,,,,,,,,,,,,,,,,,,,,,,12.0,1.0,,,,,,
341,,choice,,html-keyboard-response,341,205067,0.0-1.0-67.0-0.0-0.0,0,0,1,,797.0,,,50.0,65.0,66.0,3000.0,1000.0,0.0,2.0,0.0,40-80,,1.0,patio lounge chair,bench,80.0,40.0,patio lounge chair11,bench3,100.0,20.0,51830.jpg,26419540.thl.jpg,/static/Category_learning/Stimuli/Experimental_stims/patio lounge chair/51830.jpg,/static/Category_learning/Stimuli/Experimental_stims/bench/26419540.thl.jpg,1.0,patio lounge chair,bench,80.0,40.0,patio lounge chair11,bench3,100.0,20.0,0.0,12.797,0.797,,,,,,
342,,confirmation,,html-keyboard-response,342,205777,0.0-1.0-67.0-0.0-1.0-0.0,0,0,1,,,,,,65.0,,,,,,,,,,,,,,,,,,,,,,,,,,,,,,,,13.5,0.703,,,,,,
343,,isi,,html-keyboard-response,343,205883,0.0-1.0-67.0-0.0-2.0,0,0,1,,,,,,,,,,,,,,,,,,,,,,,,,,,,,,,,,,,,,,16.5,3.0,,,,,,
344,,feedback,,html-keyboard-response,344,206886,0.0-1.0-67.0-0.0-3.0-0.0,0,0,1,,,,,,65.0,,,,,,,,,,,,,,,,,,,,,,,,,,,,,,,,17.5,1.0,,,,,,
345,,iti,,html-keyboard-response,345,206992,0.0-1.0-67.0-0.0-5.0,0,0,1,,,,,,,,,,,,,,,,,,,,,,,,,,,,,,,,,,,,,,18.5,1.0,,,,,,
346,,choice,,html-keyboard-response,346,208212,0.0-1.0-68.0-0.0-0.0,0,0,1,,1216.0,,,50.0,66.0,67.0,1500.0,1500.0,0.0,2.0,0.0,20-20,,,trumpet,watch,20.0,20.0,trumpet12,watch6,40.0,20.0,hornabariton.jpg,B0000X04VC.01-A4LKQQKJ91IUZ._AA280_SCLZZZZZZZ_.jpg,/static/Category_learning/Stimuli/Experimental_stims/trumpet/hornabariton.jpg,/static/Category_learning/Stimuli/Experimental_stims/watch/B0000X04VC.01-A4LKQQKJ91IUZ._AA280_SCLZZZZZZZ_.jpg,1.0,trumpet,watch,20.0,20.0,trumpet12,watch6,40.0,20.0,0.0,19.715999999999998,1.216,,,,,,
347,,confirmation,,html-keyboard-response,347,208502,0.0-1.0-68.0-0.0-1.0-0.0,0,0,1,,,,,,66.0,,,,,,,,,,,,,,,,,,,,,,,,,,,,,,,,20.0,0.284,,,,,,
348,,isi,,html-keyboard-response,348,208609,0.0-1.0-68.0-0.0-2.0,0,0,1,,,,,,,,,,,,,,,,,,,,,,,,,,,,,,,,,,,,,,21.5,1.5,,,,,,
349,,feedback,,html-keyboard-response,349,209612,0.0-1.0-68.0-0.0-3.0-0.0,0,0,1,,,,,,66.0,,,,,,,,,,,,,,,,,,,,,,,,,,,,,,,,22.5,1.0,,,,,,
350,,iti,,html-keyboard-response,350,209718,0.0-1.0-68.0-0.0-5.0,0,0,1,,,,,,,,,,,,,,,,,,,,,,,,,,,,,,,,,,,,,,24.0,1.5,,,,,,
351,,choice,,html-keyboard-response,351,210372,0.0-1.0-69.0-0.0-0.0,0,0,1,,652.0,,,51.0,67.0,68.0,2000.0,1500.0,0.0,2.0,0.0,20-80,,0.0,yarn,small table,20.0,80.0,yarn1,small table8,40.0,60.0,corn_yarn.jpg,ATABLE8.jpg,/static/Category_learning/Stimuli/Experimental_stims/yarn/corn_yarn.jpg,/static/Category_learning/Stimuli/Experimental_stims/small table/ATABLE8.jpg,0.0,small table,yarn,80.0,20.0,small table8,yarn1,60.0,40.0,0.0,24.651999999999997,0.652,,,,,,
352,,confirmation,,html-keyboard-response,352,211227,0.0-1.0-69.0-0.0-1.0-0.0,0,0,1,,,,,,67.0,,,,,,,,,,,,,,,,,,,,,,,,,,,,,,,,25.5,0.848,,,,,,
353,,isi,,html-keyboard-response,353,211334,0.0-1.0-69.0-0.0-2.0,0,0,1,,,,,,,,,,,,,,,,,,,,,,,,,,,,,,,,,,,,,,27.5,2.0,,,,,,
354,,feedback,,html-keyboard-response,354,212342,0.0-1.0-69.0-0.0-3.0-0.0,0,0,1,,,,,,67.0,,,,,,,,,,,,,,,,,,,,,,,,,,,,,,,,28.5,1.0,,,,,,
355,,iti,,html-keyboard-response,355,212449,0.0-1.0-69.0-0.0-5.0,0,0,1,,,,,,,,,,,,,,,,,,,,,,,,,,,,,,,,,,,,,,30.0,1.5,,,,,,
356,,choice,,html-keyboard-response,356,213280,0.0-1.0-70.0-0.0-0.0,0,0,1,,828.0,,,51.0,68.0,69.0,1000.0,2000.0,0.0,2.0,0.0,60-60,,,makeup compact,hat,60.0,60.0,makeup compact12,hat5,80.0,40.0,P139103_hero.jpg,AREDHAT4.jpg,/static/Category_learning/Stimuli/Experimental_stims/makeup compact/P139103_hero.jpg,/static/Category_learning/Stimuli/Experimental_stims/hat/AREDHAT4.jpg,0.0,hat,makeup compact,60.0,60.0,hat5,makeup compact12,40.0,80.0,0.0,30.828000000000003,0.828,,,,,,
357,,confirmation,,html-keyboard-response,357,213960,0.0-1.0-70.0-0.0-1.0-0.0,0,0,1,,,,,,68.0,,,,,,,,,,,,,,,,,,,,,,,,,,,,,,,,31.5,0.672,,,,,,
358,,isi,,html-keyboard-response,358,214065,0.0-1.0-70.0-0.0-2.0,0,0,1,,,,,,,,,,,,,,,,,,,,,,,,,,,,,,,,,,,,,,32.5,1.0,,,,,,
359,,feedback,,html-keyboard-response,359,215069,0.0-1.0-70.0-0.0-3.0-0.0,0,0,1,,,,,,68.0,,,,,,,,,,,,,,,,,,,,,,,,,,,,,,,,33.5,1.0,,,,,,
360,,iti,,html-keyboard-response,360,215174,0.0-1.0-70.0-0.0-5.0,0,0,1,,,,,,,,,,,,,,,,,,,,,,,,,,,,,,,,,,,,,,35.5,2.0,,,,,,
361,,choice,,html-keyboard-response,361,216421,0.0-1.0-71.0-0.0-0.0,0,0,1,,1244.0,,,51.0,69.0,70.0,1000.0,1000.0,0.0,2.0,0.0,40-60,,0.0,dresser,lipstick,40.0,60.0,dresser4,lipstick5,60.0,40.0,ADRESSE40.jpg,P35719_hero.jpg,/static/Category_learning/Stimuli/Experimental_stims/dresser/ADRESSE40.jpg,/static/Category_learning/Stimuli/Experimental_stims/lipstick/P35719_hero.jpg,0.0,lipstick,dresser,60.0,40.0,lipstick5,dresser4,40.0,60.0,0.0,36.744,1.244,,,,,,
362,,confirmation,,html-keyboard-response,362,216683,0.0-1.0-71.0-0.0-1.0-0.0,0,0,1,,,,,,69.0,,,,,,,,,,,,,,,,,,,,,,,,,,,,,,,,37.0,0.256,,,,,,
363,,isi,,html-keyboard-response,363,216790,0.0-1.0-71.0-0.0-2.0,0,0,1,,,,,,,,,,,,,,,,,,,,,,,,,,,,,,,,,,,,,,38.0,1.0,,,,,,
364,,feedback,,html-keyboard-response,364,217798,0.0-1.0-71.0-0.0-3.0-0.0,0,0,1,,,,,,69.0,,,,,,,,,,,,,,,,,,,,,,,,,,,,,,,,39.0,1.0,,,,,,
365,,iti,,html-keyboard-response,365,217905,0.0-1.0-71.0-0.0-5.0,0,0,1,,,,,,,,,,,,,,,,,,,,,,,,,,,,,,,,,,,,,,40.0,1.0,,,,,,
366,,choice,,html-keyboard-response,366,218614,0.0-1.0-72.0-0.0-0.0,0,0,1,,706.0,,,50.0,70.0,71.0,1000.0,1500.0,0.0,2.0,1.0,20-20,1.0,,stool,stool,20.0,20.0,stool12,stool15,0.0,20.0,henrybar_stool1.jpg,ASTOOL.jpg,/static/Category_learning/Stimuli/Experimental_stims/stool/henrybar_stool1.jpg,/static/Category_learning/Stimuli/Experimental_stims/stool/ASTOOL.jpg,1.0,stool,stool,20.0,20.0,stool12,stool15,0.0,20.0,0.0,40.705999999999996,0.706,,,,,,
367,,confirmation,,html-keyboard-response,367,219413,0.0-1.0-72.0-0.0-1.0-0.0,0,0,1,,,,,,70.0,,,,,,,,,,,,,,,,,,,,,,,,,,,,,,,,41.5,0.794,,,,,,
368,,isi,,html-keyboard-response,368,219520,0.0-1.0-72.0-0.0-2.0,0,0,1,,,,,,,,,,,,,,,,,,,,,,,,,,,,,,,,,,,,,,42.5,1.0,,,,,,
369,,feedback,,html-keyboard-response,369,220524,0.0-1.0-72.0-0.0-3.0-0.0,0,0,1,,,,,,70.0,,,,,,,,,,,,,,,,,,,,,,,,,,,,,,,,43.5,1.0,,,,,,
370,,iti,,html-keyboard-response,370,220630,0.0-1.0-72.0-0.0-5.0,0,0,1,,,,,,,,,,,,,,,,,,,,,,,,,,,,,,,,,,,,,,45.0,1.5,,,,,,
371,,choice,,html-keyboard-response,371,221381,0.0-1.0-73.0-0.0-0.0,0,0,1,,746.0,,,51.0,71.0,72.0,2000.0,2000.0,0.0,2.0,0.0,40-60,,1.0,hat,desk,60.0,40.0,hat10,desk11,80.0,60.0,Atornhat3.jpg,Writing_Desk_280_Cutout_Sideview_half.jpg,/static/Category_learning/Stimuli/Experimental_stims/hat/Atornhat3.jpg,/static/Category_learning/Stimuli/Experimental_stims/desk/Writing_Desk_280_Cutout_Sideview_half.jpg,0.0,desk,hat,40.0,60.0,desk11,hat10,60.0,80.0,0.0,45.746,0.746,,,,,,
372,,confirmation,,html-keyboard-response,372,222141,0.0-1.0-73.0-0.0-1.0-0.0,0,0,1,,,,,,71.0,,,,,,,,,,,,,,,,,,,,,,,,,,,,,,,,46.5,0.754,,,,,,
373,,isi,,html-keyboard-response,373,222246,0.0-1.0-73.0-0.0-2.0,0,0,1,,,,,,,,,,,,,,,,,,,,,,,,,,,,,,,,,,,,,,48.5,2.0,,,,,,
374,,feedback,,html-keyboard-response,374,223251,0.0-1.0-73.0-0.0-3.0-0.0,0,0,1,,,,,,71.0,,,,,,,,,,,,,,,,,,,,,,,,,,,,,,,,49.5,1.0,,,,,,
375,,iti,,html-keyboard-response,375,223355,0.0-1.0-73.0-0.0-5.0,0,0,1,,,,,,,,,,,,,,,,,,,,,,,,,,,,,,,,,,,,,,51.5,2.0,,,,,,
376,,choice,,html-keyboard-response,376,224185,0.0-1.0-74.0-0.0-0.0,0,0,1,,826.0,,,50.0,72.0,73.0,1500.0,1000.0,0.0,2.0,1.0,40-40,1.0,,desk,desk,40.0,40.0,desk11,desk9,60.0,20.0,Writing_Desk_280_Cutout_Sideview_half.jpg,desk 189dr96dr chr.jpg,/static/Category_learning/Stimuli/Experimental_stims/desk/Writing_Desk_280_Cutout_Sideview_half.jpg,/static/Category_learning/Stimuli/Experimental_stims/desk/desk 189dr96dr chr.jpg,1.0,desk,desk,40.0,40.0,desk11,desk9,60.0,20.0,0.0,52.326,0.826,,,,,,
377,,confirmation,,html-keyboard-response,377,224865,0.0-1.0-74.0-0.0-1.0-0.0,0,0,1,,,,,,72.0,,,,,,,,,,,,,,,,,,,,,,,,,,,,,,,,53.0,0.674,,,,,,
378,,isi,,html-keyboard-response,378,224971,0.0-1.0-74.0-0.0-2.0,0,0,1,,,,,,,,,,,,,,,,,,,,,,,,,,,,,,,,,,,,,,54.5,1.5,,,,,,
379,,feedback,,html-keyboard-response,379,225977,0.0-1.0-74.0-0.0-3.0-0.0,0,0,1,,,,,,72.0,,,,,,,,,,,,,,,,,,,,,,,,,,,,,,,,55.5,1.0,,,,,,
380,,iti,,html-keyboard-response,380,226081,0.0-1.0-74.0-0.0-5.0,0,0,1,,,,,,,,,,,,,,,,,,,,,,,,,,,,,,,,,,,,,,56.5,1.0,,,,,,
381,,choice,,html-keyboard-response,381,226915,0.0-1.0-75.0-0.0-0.0,0,0,1,,831.0,,,50.0,73.0,74.0,1500.0,1000.0,0.0,2.0,1.0,60-60,1.0,,hat,hat,60.0,60.0,hat5,hat1,40.0,60.0,AREDHAT4.jpg,AGREENHAT.jpg,/static/Category_learning/Stimuli/Experimental_stims/hat/AREDHAT4.jpg,/static/Category_learning/Stimuli/Experimental_stims/hat/AGREENHAT.jpg,1.0,hat,hat,60.0,60.0,hat5,hat1,40.0,60.0,0.0,57.331,0.831,,,,,,
382,,confirmation,,html-keyboard-response,382,227590,0.0-1.0-75.0-0.0-1.0-0.0,0,0,1,,,,,,73.0,,,,,,,,,,,,,,,,,,,,,,,,,,,,,,,,58.0,0.669,,,,,,
383,,isi,,html-keyboard-response,383,227697,0.0-1.0-75.0-0.0-2.0,0,0,1,,,,,,,,,,,,,,,,,,,,,,,,,,,,,,,,,,,,,,59.5,1.5,,,,,,
384,,feedback,,html-keyboard-response,384,228701,0.0-1.0-75.0-0.0-3.0-0.0,0,0,1,,,,,,73.0,,,,,,,,,,,,,,,,,,,,,,,,,,,,,,,,60.5,1.0,,,,,,
385,,iti,,html-keyboard-response,385,228806,0.0-1.0-75.0-0.0-5.0,0,0,1,,,,,,,,,,,,,,,,,,,,,,,,,,,,,,,,,,,,,,61.5,1.0,,,,,,
386,,choice,,html-keyboard-response,386,229669,0.0-1.0-76.0-0.0-0.0,0,0,1,,860.0,,,51.0,74.0,75.0,1000.0,1000.0,0.0,2.0,0.0,60-60,,,microscope,hat,60.0,60.0,microscope8,hat14,60.0,60.0,AMICROS21.jpg,Ahat136.jpg,/static/Category_learning/Stimuli/Experimental_stims/microscope/AMICROS21.jpg,/static/Category_learning/Stimuli/Experimental_stims/hat/Ahat136.jpg,0.0,hat,microscope,60.0,60.0,hat14,microscope8,60.0,60.0,0.0,62.36,0.86,,,,,,
387,,confirmation,,html-keyboard-response,387,230316,0.0-1.0-76.0-0.0-1.0-0.0,0,0,1,,,,,,74.0,,,,,,,,,,,,,,,,,,,,,,,,,,,,,,,,63.0,0.64,,,,,,
388,,isi,,html-keyboard-response,388,230422,0.0-1.0-76.0-0.0-2.0,0,0,1,,,,,,,,,,,,,,,,,,,,,,,,,,,,,,,,,,,,,,64.0,1.0,,,,,,
389,,feedback,,html-keyboard-response,389,231426,0.0-1.0-76.0-0.0-3.0-0.0,0,0,1,,,,,,74.0,,,,,,,,,,,,,,,,,,,,,,,,,,,,,,,,65.0,1.0,,,,,,
390,,iti,,html-keyboard-response,390,231532,0.0-1.0-76.0-0.0-5.0,0,0,1,,,,,,,,,,,,,,,,,,,,,,,,,,,,,,,,,,,,,,66.0,1.0,,,,,,
391,,choice,,html-keyboard-response,391,232375,0.0-1.0-77.0-0.0-0.0,0,0,1,,841.0,,,50.0,75.0,76.0,2000.0,2000.0,0.0,2.0,0.0,40-60,,0.0,door knob,frame,40.0,60.0,door knob8,frame10,40.0,80.0,pro_l_116_medeco437ul.jpg,AFRAME107.jpg,/static/Category_learning/Stimuli/Experimental_stims/door knob/pro_l_116_medeco437ul.jpg,/static/Category_learning/Stimuli/Experimental_stims/frame/AFRAME107.jpg,1.0,door knob,frame,40.0,60.0,door knob8,frame10,40.0,80.0,0.0,66.84100000000001,0.841,,,,,,
392,,confirmation,,html-keyboard-response,392,233041,0.0-1.0-77.0-0.0-1.0-0.0,0,0,1,,,,,,75.0,,,,,,,,,,,,,,,,,,,,,,,,,,,,,,,,67.5,0.659,,,,,,
393,,isi,,html-keyboard-response,393,233148,0.0-1.0-77.0-0.0-2.0,0,0,1,,,,,,,,,,,,,,,,,,,,,,,,,,,,,,,,,,,,,,69.5,2.0,,,,,,
394,,feedback,,html-keyboard-response,394,234150,0.0-1.0-77.0-0.0-3.0-0.0,0,0,1,,,,,,75.0,,,,,,,,,,,,,,,,,,,,,,,,,,,,,,,,70.5,1.0,,,,,,
395,,iti,,html-keyboard-response,395,234258,0.0-1.0-77.0-0.0-5.0,0,0,1,,,,,,,,,,,,,,,,,,,,,,,,,,,,,,,,,,,,,,72.5,2.0,,,,,,
396,,choice,,html-keyboard-response,396,235048,0.0-1.0-78.0-0.0-0.0,0,0,1,,787.0,,,51.0,76.0,77.0,1500.0,2000.0,0.0,2.0,0.0,40-60,,0.0,bench,hat,40.0,60.0,bench6,hat3,20.0,60.0,26370121.thl.jpg,Astrawhat49.jpg,/static/Category_learning/Stimuli/Experimental_stims/bench/26370121.thl.jpg,/static/Category_learning/Stimuli/Experimental_stims/hat/Astrawhat49.jpg,0.0,hat,bench,60.0,40.0,hat3,bench6,60.0,20.0,0.0,73.28699999999999,0.787,,,,,,
397,,confirmation,,html-keyboard-response,397,235766,0.0-1.0-78.0-0.0-1.0-0.0,0,0,1,,,,,,76.0,,,,,,,,,,,,,,,,,,,,,,,,,,,,,,,,74.0,0.713,,,,,,
398,,isi,,html-keyboard-response,398,235873,0.0-1.0-78.0-0.0-2.0,0,0,1,,,,,,,,,,,,,,,,,,,,,,,,,,,,,,,,,,,,,,75.5,1.5,,,,,,
399,,feedback,,html-keyboard-response,399,236877,0.0-1.0-78.0-0.0-3.0-0.0,0,0,1,,,,,,76.0,,,,,,,,,,,,,,,,,,,,,,,,,,,,,,,,76.5,1.0,,,,,,
400,,iti,,html-keyboard-response,400,236982,0.0-1.0-78.0-0.0-5.0,0,0,1,,,,,,,,,,,,,,,,,,,,,,,,,,,,,,,,,,,,,,78.5,2.0,,,,,,
401,,choice,,html-keyboard-response,401,237731,0.0-1.0-79.0-0.0-0.0,0,0,1,,745.0,,,51.0,77.0,78.0,2000.0,1500.0,0.0,2.0,0.0,40-80,,1.0,nail polish,baby carriage,80.0,40.0,nail polish15,baby carriage1,60.0,40.0,MA_NP_WSD.jpg,babycarriage16.jpg,/static/Category_learning/Stimuli/Experimental_stims/nail polish/MA_NP_WSD.jpg,/static/Category_learning/Stimuli/Experimental_stims/baby carriage/babycarriage16.jpg,0.0,baby carriage,nail polish,40.0,80.0,baby carriage1,nail polish15,40.0,60.0,0.0,79.245,0.745,,,,,,
402,,confirmation,,html-keyboard-response,402,238492,0.0-1.0-79.0-0.0-1.0-0.0,0,0,1,,,,,,77.0,,,,,,,,,,,,,,,,,,,,,,,,,,,,,,,,80.0,0.755,,,,,,
403,,isi,,html-keyboard-response,403,238598,0.0-1.0-79.0-0.0-2.0,0,0,1,,,,,,,,,,,,,,,,,,,,,,,,,,,,,,,,,,,,,,82.0,2.0,,,,,,
404,,feedback,,html-keyboard-response,404,239602,0.0-1.0-79.0-0.0-3.0-0.0,0,0,1,,,,,,77.0,,,,,,,,,,,,,,,,,,,,,,,,,,,,,,,,83.0,1.0,,,,,,
405,,iti,,html-keyboard-response,405,239708,0.0-1.0-79.0-0.0-5.0,0,0,1,,,,,,,,,,,,,,,,,,,,,,,,,,,,,,,,,,,,,,84.5,1.5,,,,,,
406,,choice,,html-keyboard-response,406,240350,0.0-1.0-80.0-0.0-0.0,0,0,1,,639.0,,,50.0,78.0,79.0,1000.0,1500.0,0.0,2.0,0.0,40-80,,1.0,poker card,bongo,80.0,40.0,poker card2,bongo9,100.0,20.0,22864716.thl.jpg,22946035.thl.jpg,/static/Category_learning/Stimuli/Experimental_stims/poker card/22864716.thl.jpg,/static/Category_learning/Stimuli/Experimental_stims/bongo/22946035.thl.jpg,1.0,poker card,bongo,80.0,40.0,poker card2,bongo9,100.0,20.0,0.0,85.139,0.639,,,,,,
407,,confirmation,,html-keyboard-response,407,241218,0.0-1.0-80.0-0.0-1.0-0.0,0,0,1,,,,,,78.0,,,,,,,,,,,,,,,,,,,,,,,,,,,,,,,,86.0,0.861,,,,,,
408,,isi,,html-keyboard-response,408,241324,0.0-1.0-80.0-0.0-2.0,0,0,1,,,,,,,,,,,,,,,,,,,,,,,,,,,,,,,,,,,,,,87.0,1.0,,,,,,
409,,feedback,,html-keyboard-response,409,242330,0.0-1.0-80.0-0.0-3.0-0.0,0,0,1,,,,,,78.0,,,,,,,,,,,,,,,,,,,,,,,,,,,,,,,,88.0,1.0,,,,,,
410,,iti,,html-keyboard-response,410,242433,0.0-1.0-80.0-0.0-5.0,0,0,1,,,,,,,,,,,,,,,,,,,,,,,,,,,,,,,,,,,,,,89.5,1.5,,,,,,
411,,choice,,html-keyboard-response,411,243090,0.0-1.0-81.0-0.0-0.0,0,0,1,,654.0,,,50.0,79.0,80.0,1000.0,1000.0,0.0,2.0,0.0,80-80,,,seashell,patio lounge chair,80.0,80.0,seashell6,patio lounge chair3,80.0,60.0,PY2H1461.jpg,Lounge_Chair.jpg,/static/Category_learning/Stimuli/Experimental_stims/seashell/PY2H1461.jpg,/static/Category_learning/Stimuli/Experimental_stims/patio lounge chair/Lounge_Chair.jpg,1.0,seashell,patio lounge chair,80.0,80.0,seashell6,patio lounge chair3,80.0,60.0,0.0,90.154,0.654,,,,,,
412,,confirmation,,html-keyboard-response,412,243939,0.0-1.0-81.0-0.0-1.0-0.0,0,0,1,,,,,,79.0,,,,,,,,,,,,,,,,,,,,,,,,,,,,,,,,91.0,0.846,,,,,,
413,,isi,,html-keyboard-response,413,244044,0.0-1.0-81.0-0.0-2.0,0,0,1,,,,,,,,,,,,,,,,,,,,,,,,,,,,,,,,,,,,,,92.0,1.0,,,,,,
414,,feedback,,html-keyboard-response,414,245049,0.0-1.0-81.0-0.0-3.0-0.0,0,0,1,,,,,,79.0,,,,,,,,,,,,,,,,,,,,,,,,,,,,,,,,93.0,1.0,,,,,,
415,,iti,,html-keyboard-response,415,245153,0.0-1.0-81.0-0.0-5.0,0,0,1,,,,,,,,,,,,,,,,,,,,,,,,,,,,,,,,,,,,,,94.0,1.0,,,,,,
416,,choice,,html-keyboard-response,416,246543,0.0-1.0-82.0-0.0-0.0,0,0,1,,1387.0,,,50.0,80.0,81.0,1000.0,3500.0,0.0,2.0,0.0,20-80,,0.0,tape,small table,20.0,80.0,tape10,small table10,20.0,100.0,26377601.thl.jpg,ATABLE41.jpg,/static/Category_learning/Stimuli/Experimental_stims/tape/26377601.thl.jpg,/static/Category_learning/Stimuli/Experimental_stims/small table/ATABLE41.jpg,1.0,tape,small table,20.0,80.0,tape10,small table10,20.0,100.0,0.0,95.387,1.3869999999999998,,,,,,
417,,confirmation,,html-keyboard-response,417,246663,0.0-1.0-82.0-0.0-1.0-0.0,0,0,1,,,,,,80.0,,,,,,,,,,,,,,,,,,,,,,,,,,,,,,,,95.5,0.113,,,,,,
418,,isi,,html-keyboard-response,418,246770,0.0-1.0-82.0-0.0-2.0,0,0,1,,,,,,,,,,,,,,,,,,,,,,,,,,,,,,,,,,,,,,96.5,1.0,,,,,,
419,,feedback,,html-keyboard-response,419,247778,0.0-1.0-82.0-0.0-3.0-0.0,0,0,1,,,,,,80.0,,,,,,,,,,,,,,,,,,,,,,,,,,,,,,,,97.5,1.0,,,,,,
420,,iti,,html-keyboard-response,420,247884,0.0-1.0-82.0-0.0-5.0,0,0,1,,,,,,,,,,,,,,,,,,,,,,,,,,,,,,,,,,,,,,101.0,3.5,,,,,,
421,,choice,,html-keyboard-response,421,248940,0.0-1.0-83.0-0.0-0.0,0,0,1,,1054.0,,,50.0,81.0,82.0,1000.0,3500.0,0.0,2.0,0.0,20-60,,0.0,stool,frame,20.0,60.0,stool14,frame7,40.0,40.0,hjscott-sbs-b-bar-stool.jpg,AFRAME152.jpg,/static/Category_learning/Stimuli/Experimental_stims/stool/hjscott-sbs-b-bar-stool.jpg,/static/Category_learning/Stimuli/Experimental_stims/frame/AFRAME152.jpg,1.0,stool,frame,20.0,60.0,stool14,frame7,40.0,40.0,0.0,102.054,1.054,,,,,,
422,,confirmation,,html-keyboard-response,422,249393,0.0-1.0-83.0-0.0-1.0-0.0,0,0,1,,,,,,81.0,,,,,,,,,,,,,,,,,,,,,,,,,,,,,,,,102.5,0.446,,,,,,
423,,isi,,html-keyboard-response,423,249500,0.0-1.0-83.0-0.0-2.0,0,0,1,,,,,,,,,,,,,,,,,,,,,,,,,,,,,,,,,,,,,,103.5,1.0,,,,,,
424,,feedback,,html-keyboard-response,424,250505,0.0-1.0-83.0-0.0-3.0-0.0,0,0,1,,,,,,81.0,,,,,,,,,,,,,,,,,,,,,,,,,,,,,,,,104.5,1.0,,,,,,
425,,iti,,html-keyboard-response,425,250609,0.0-1.0-83.0-0.0-5.0,0,0,1,,,,,,,,,,,,,,,,,,,,,,,,,,,,,,,,,,,,,,108.0,3.5,,,,,,
426,,choice,,html-keyboard-response,426,251840,0.0-1.0-84.0-0.0-0.0,0,0,1,,1228.0,,,51.0,82.0,83.0,3500.0,3000.0,0.0,2.0,0.0,20-60,,0.0,telescope,hammer,20.0,60.0,telescope10,hammer1,40.0,60.0,digimarc.ms02.jpg,fosnaugh.hammer.jpg,/static/Category_learning/Stimuli/Experimental_stims/telescope/digimarc.ms02.jpg,/static/Category_learning/Stimuli/Experimental_stims/hammer/fosnaugh.hammer.jpg,0.0,hammer,telescope,60.0,20.0,hammer1,telescope10,60.0,40.0,0.0,109.228,1.228,,,,,,
427,,confirmation,,html-keyboard-response,427,252119,0.0-1.0-84.0-0.0-1.0-0.0,0,0,1,,,,,,82.0,,,,,,,,,,,,,,,,,,,,,,,,,,,,,,,,109.5,0.272,,,,,,
428,,isi,,html-keyboard-response,428,252226,0.0-1.0-84.0-0.0-2.0,0,0,1,,,,,,,,,,,,,,,,,,,,,,,,,,,,,,,,,,,,,,113.0,3.5,,,,,,
429,,feedback,,html-keyboard-response,429,253233,0.0-1.0-84.0-0.0-3.0-0.0,0,0,1,,,,,,82.0,,,,,,,,,,,,,,,,,,,,,,,,,,,,,,,,114.0,1.0,,,,,,
430,,iti,,html-keyboard-response,430,253341,0.0-1.0-84.0-0.0-5.0,0,0,1,,,,,,,,,,,,,,,,,,,,,,,,,,,,,,,,,,,,,,117.0,3.0,,,,,,
431,,choice,,html-keyboard-response,431,254342,0.0-1.0-85.0-0.0-0.0,0,0,1,,998.0,,,51.0,83.0,84.0,1000.0,1500.0,0.0,2.0,0.0,20-80,,1.0,small table,trumpet,80.0,20.0,small table14,trumpet4,100.0,0.0,Awoodtable13.jpg,JUPITER+JTR1000S.jpg,/static/Category_learning/Stimuli/Experimental_stims/small table/Awoodtable13.jpg,/static/Category_learning/Stimuli/Experimental_stims/trumpet/JUPITER+JTR1000S.jpg,0.0,trumpet,small table,20.0,80.0,trumpet4,small table14,0.0,100.0,0.0,117.99799999999999,0.998,,,,,,
432,,confirmation,,html-keyboard-response,432,254848,0.0-1.0-85.0-0.0-1.0-0.0,0,0,1,,,,,,83.0,,,,,,,,,,,,,,,,,,,,,,,,,,,,,,,,118.5,0.502,,,,,,
433,,isi,,html-keyboard-response,433,254951,0.0-1.0-85.0-0.0-2.0,0,0,1,,,,,,,,,,,,,,,,,,,,,,,,,,,,,,,,,,,,,,119.5,1.0,,,,,,
434,,feedback,,html-keyboard-response,434,255953,0.0-1.0-85.0-0.0-3.0-0.0,0,0,1,,,,,,83.0,,,,,,,,,,,,,,,,,,,,,,,,,,,,,,,,120.5,1.0,,,,,,
435,,iti,,html-keyboard-response,435,256060,0.0-1.0-85.0-0.0-5.0,0,0,1,,,,,,,,,,,,,,,,,,,,,,,,,,,,,,,,,,,,,,122.0,1.5,,,,,,
436,,choice,,html-keyboard-response,436,256899,0.0-1.0-86.0-0.0-0.0,0,0,1,,836.0,,,50.0,84.0,85.0,1500.0,3000.0,0.0,2.0,0.0,40-40,,,baby carriage,flashlight,40.0,40.0,baby carriage15,flashlight14,40.0,40.0,AANBABYC2.jpg,freeplay-jonta-flashlight.jpg,/static/Category_learning/Stimuli/Experimental_stims/baby carriage/AANBABYC2.jpg,/static/Category_learning/Stimuli/Experimental_stims/flashlight/freeplay-jonta-flashlight.jpg,1.0,baby carriage,flashlight,40.0,40.0,baby carriage15,flashlight14,40.0,40.0,0.0,122.836,0.836,,,,,,
437,,confirmation,,html-keyboard-response,437,257569,0.0-1.0-86.0-0.0-1.0-0.0,0,0,1,,,,,,84.0,,,,,,,,,,,,,,,,,,,,,,,,,,,,,,,,123.5,0.664,,,,,,
438,,isi,,html-keyboard-response,438,257674,0.0-1.0-86.0-0.0-2.0,0,0,1,,,,,,,,,,,,,,,,,,,,,,,,,,,,,,,,,,,,,,125.0,1.5,,,,,,
439,,feedback,,html-keyboard-response,439,258678,0.0-1.0-86.0-0.0-3.0-0.0,0,0,1,,,,,,84.0,,,,,,,,,,,,,,,,,,,,,,,,,,,,,,,,126.0,1.0,,,,,,
440,,iti,,html-keyboard-response,440,258784,0.0-1.0-86.0-0.0-5.0,0,0,1,,,,,,,,,,,,,,,,,,,,,,,,,,,,,,,,,,,,,,129.0,3.0,,,,,,
441,,choice,,html-keyboard-response,441,259458,0.0-1.0-87.0-0.0-0.0,0,0,1,,672.0,,,50.0,85.0,86.0,2000.0,1000.0,0.0,2.0,1.0,20-20,1.0,,tape,tape,20.0,20.0,tape9,tape10,40.0,20.0,desk tape disp.jpg,26377601.thl.jpg,/static/Category_learning/Stimuli/Experimental_stims/tape/desk tape disp.jpg,/static/Category_learning/Stimuli/Experimental_stims/tape/26377601.thl.jpg,1.0,tape,tape,20.0,20.0,tape9,tape10,40.0,20.0,0.0,129.672,0.672,,,,,,
442,,confirmation,,html-keyboard-response,442,260292,0.0-1.0-87.0-0.0-1.0-0.0,0,0,1,,,,,,85.0,,,,,,,,,,,,,,,,,,,,,,,,,,,,,,,,130.5,0.828,,,,,,
443,,isi,,html-keyboard-response,443,260396,0.0-1.0-87.0-0.0-2.0,0,0,1,,,,,,,,,,,,,,,,,,,,,,,,,,,,,,,,,,,,,,132.5,2.0,,,,,,
444,,feedback,,html-keyboard-response,444,261398,0.0-1.0-87.0-0.0-3.0-0.0,0,0,1,,,,,,85.0,,,,,,,,,,,,,,,,,,,,,,,,,,,,,,,,133.5,1.0,,,,,,
445,,iti,,html-keyboard-response,445,261503,0.0-1.0-87.0-0.0-5.0,0,0,1,,,,,,,,,,,,,,,,,,,,,,,,,,,,,,,,,,,,,,134.5,1.0,,,,,,
446,,choice,,html-keyboard-response,446,262989,0.0-1.0-88.0-0.0-0.0,0,0,1,,1484.0,,,50.0,86.0,87.0,2000.0,1000.0,0.0,2.0,1.0,20-20,1.0,,trumpet,trumpet,20.0,20.0,trumpet4,trumpet12,0.0,40.0,JUPITER+JTR1000S.jpg,hornabariton.jpg,/static/Category_learning/Stimuli/Experimental_stims/trumpet/JUPITER+JTR1000S.jpg,/static/Category_learning/Stimuli/Experimental_stims/trumpet/hornabariton.jpg,1.0,trumpet,trumpet,20.0,20.0,trumpet4,trumpet12,0.0,40.0,0.0,135.984,1.484,,,,,,
447,,confirmation,,html-keyboard-response,447,263009,0.0-1.0-88.0-0.0-1.0-0.0,0,0,1,,,,,,86.0,,,,,,,,,,,,,,,,,,,,,,,,,,,,,,,,136.0,0.016,,,,,,
448,,isi,,html-keyboard-response,448,263113,0.0-1.0-88.0-0.0-2.0,0,0,1,,,,,,,,,,,,,,,,,,,,,,,,,,,,,,,,,,,,,,138.0,2.0,,,,,,
449,,feedback,,html-keyboard-response,449,264118,0.0-1.0-88.0-0.0-3.0-0.0,0,0,1,,,,,,86.0,,,,,,,,,,,,,,,,,,,,,,,,,,,,,,,,139.0,1.0,,,,,,
450,,iti,,html-keyboard-response,450,264225,0.0-1.0-88.0-0.0-5.0,0,0,1,,,,,,,,,,,,,,,,,,,,,,,,,,,,,,,,,,,,,,140.0,1.0,,,,,,
451,,choice,,html-keyboard-response,451,264974,0.0-1.0-89.0-0.0-0.0,0,0,1,,746.0,,,51.0,87.0,88.0,3000.0,1000.0,0.0,2.0,0.0,40-60,,1.0,motorcycle,baby carriage,60.0,40.0,motorcycle8,baby carriage6,80.0,20.0,Motorcycle903425j2.jpg,Baby_Stroller-1.jpg,/static/Category_learning/Stimuli/Experimental_stims/motorcycle/Motorcycle903425j2.jpg,/static/Category_learning/Stimuli/Experimental_stims/baby carriage/Baby_Stroller-1.jpg,0.0,baby carriage,motorcycle,40.0,60.0,baby carriage6,motorcycle8,20.0,80.0,0.0,140.746,0.746,,,,,,
452,,confirmation,,html-keyboard-response,452,265734,0.0-1.0-89.0-0.0-1.0-0.0,0,0,1,,,,,,87.0,,,,,,,,,,,,,,,,,,,,,,,,,,,,,,,,141.5,0.754,,,,,,
453,,isi,,html-keyboard-response,453,265839,0.0-1.0-89.0-0.0-2.0,0,0,1,,,,,,,,,,,,,,,,,,,,,,,,,,,,,,,,,,,,,,144.5,3.0,,,,,,
454,,feedback,,html-keyboard-response,454,266843,0.0-1.0-89.0-0.0-3.0-0.0,0,0,1,,,,,,87.0,,,,,,,,,,,,,,,,,,,,,,,,,,,,,,,,145.5,1.0,,,,,,
455,,iti,,html-keyboard-response,455,266949,0.0-1.0-89.0-0.0-5.0,0,0,1,,,,,,,,,,,,,,,,,,,,,,,,,,,,,,,,,,,,,,146.5,1.0,,,,,,
456,,choice,,html-keyboard-response,456,267613,0.0-1.0-90.0-0.0-0.0,0,0,1,,662.0,,,51.0,88.0,89.0,1000.0,1500.0,0.0,2.0,0.0,20-80,,1.0,pen,tent,80.0,20.0,pen9,tent4,60.0,20.0,Aredpen3.jpg,Atent12.jpg,/static/Category_learning/Stimuli/Experimental_stims/pen/Aredpen3.jpg,/static/Category_learning/Stimuli/Experimental_stims/tent/Atent12.jpg,0.0,tent,pen,20.0,80.0,tent4,pen9,20.0,60.0,0.0,147.162,0.662,,,,,,
457,,confirmation,,html-keyboard-response,457,268456,0.0-1.0-90.0-0.0-1.0-0.0,0,0,1,,,,,,88.0,,,,,,,,,,,,,,,,,,,,,,,,,,,,,,,,148.0,0.838,,,,,,
458,,isi,,html-keyboard-response,458,268562,0.0-1.0-90.0-0.0-2.0,0,0,1,,,,,,,,,,,,,,,,,,,,,,,,,,,,,,,,,,,,,,149.0,1.0,,,,,,
459,,feedback,,html-keyboard-response,459,269566,0.0-1.0-90.0-0.0-3.0-0.0,0,0,1,,,,,,88.0,,,,,,,,,,,,,,,,,,,,,,,,,,,,,,,,150.0,1.0,,,,,,
460,,iti,,html-keyboard-response,460,269672,0.0-1.0-90.0-0.0-5.0,0,0,1,,,,,,,,,,,,,,,,,,,,,,,,,,,,,,,,,,,,,,151.5,1.5,,,,,,
461,,choice,,html-keyboard-response,461,271177,0.0-1.0-91.0-0.0-0.0,0,0,1,,,,,,89.0,90.0,2000.0,1000.0,0.0,2.0,0.0,20-40,,1.0,bongo,yarn,40.0,20.0,bongo7,yarn6,20.0,20.0,26461075.thl.jpg,edwardian moment hpy sml.jpg,/static/Category_learning/Stimuli/Experimental_stims/bongo/26461075.thl.jpg,/static/Category_learning/Stimuli/Experimental_stims/yarn/edwardian moment hpy sml.jpg,,,,,,,,,,1.0,153.0,1.5,,,,,,
462,,isi,,html-keyboard-response,462,271281,0.0-1.0-91.0-0.0-2.0,0,0,1,,,,,,,,,,,,,,,,,,,,,,,,,,,,,,,,,,,,,,155.0,2.0,,,,,,
463,,no_response,,html-keyboard-response,463,272283,0.0-1.0-91.0-0.0-4.0-0.0,0,0,1,,,,,,,,,,,,,,,,,,,,,,,,,,,,,,,,,,,,,,156.0,1.0,,,,,,
464,,iti,,html-keyboard-response,464,272406,0.0-1.0-91.0-0.0-5.0,0,0,1,,,,,,,,,,,,,,,,,,,,,,,,,,,,,,,,,,,,,,157.0,1.0,,,,,,
465,,choice,,html-keyboard-response,465,273910,0.0-1.0-91.0-0.1-0.1,0,0,1,,,,,,89.0,90.0,2000.0,1000.0,0.0,2.0,0.0,20-40,,1.0,bongo,yarn,40.0,20.0,bongo7,yarn6,20.0,20.0,26461075.thl.jpg,edwardian moment hpy sml.jpg,/static/Category_learning/Stimuli/Experimental_stims/bongo/26461075.thl.jpg,/static/Category_learning/Stimuli/Experimental_stims/yarn/edwardian moment hpy sml.jpg,,,,,,,,,,1.0,158.5,1.5,,,,,,
466,,isi,,html-keyboard-response,466,274013,0.0-1.0-91.0-0.1-2.1,0,0,1,,,,,,,,,,,,,,,,,,,,,,,,,,,,,,,,,,,,,,159.5,1.0,,,,,,
467,,no_response,,html-keyboard-response,467,275015,0.0-1.0-91.0-0.1-4.1-0.1,0,0,1,,,,,,,,,,,,,,,,,,,,,,,,,,,,,,,,,,,,,,160.5,1.0,,,,,,
468,,iti,,html-keyboard-response,468,275131,0.0-1.0-91.0-0.1-5.1,0,0,1,,,,,,,,,,,,,,,,,,,,,,,,,,,,,,,,,,,,,,161.5,1.0,,,,,,
469,,choice,,html-keyboard-response,469,275941,0.0-1.0-91.0-0.2-0.2,0,0,1,,807.0,,,50.0,89.0,90.0,2000.0,1000.0,0.0,2.0,0.0,20-40,,1.0,bongo,yarn,40.0,20.0,bongo7,yarn6,20.0,20.0,26461075.thl.jpg,edwardian moment hpy sml.jpg,/static/Category_learning/Stimuli/Experimental_stims/bongo/26461075.thl.jpg,/static/Category_learning/Stimuli/Experimental_stims/yarn/edwardian moment hpy sml.jpg,1.0,bongo,yarn,40.0,20.0,bongo7,yarn6,20.0,20.0,0.0,162.30700000000002,0.807,,,,,,
470,,confirmation,,html-keyboard-response,470,276638,0.0-1.0-91.0-0.2-1.2-0.2,0,0,1,,,,,,89.0,,,,,,,,,,,,,,,,,,,,,,,,,,,,,,,,163.0,0.693,,,,,,
471,,isi,,html-keyboard-response,471,276742,0.0-1.0-91.0-0.2-2.2,0,0,1,,,,,,,,,,,,,,,,,,,,,,,,,,,,,,,,,,,,,,164.0,1.0,,,,,,
472,,feedback,,html-keyboard-response,472,277748,0.0-1.0-91.0-0.2-3.2-0.2,0,0,1,,,,,,89.0,,,,,,,,,,,,,,,,,,,,,,,,,,,,,,,,165.0,1.0,,,,,,
473,,iti,,html-keyboard-response,473,277852,0.0-1.0-91.0-0.2-5.2,0,0,1,,,,,,,,,,,,,,,,,,,,,,,,,,,,,,,,,,,,,,166.0,1.0,,,,,,
474,,choice,,html-keyboard-response,474,278620,0.0-1.0-92.0-0.0-0.0,0,0,1,,765.0,,,50.0,90.0,91.0,3500.0,1000.0,0.0,2.0,0.0,40-40,,,desk,bongo,40.0,40.0,desk2,bongo15,60.0,40.0,AA Luffield Radial crescent Desk 1600mm x 1200mm.jpg,26390728.thl.jpg,/static/Category_learning/Stimuli/Experimental_stims/desk/AA Luffield Radial crescent Desk 1600mm x 1200mm.jpg,/static/Category_learning/Stimuli/Experimental_stims/bongo/26390728.thl.jpg,1.0,desk,bongo,40.0,40.0,desk2,bongo15,60.0,40.0,0.0,166.765,0.765,,,,,,
475,,confirmation,,html-keyboard-response,475,279361,0.0-1.0-92.0-0.0-1.0-0.0,0,0,1,,,,,,90.0,,,,,,,,,,,,,,,,,,,,,,,,,,,,,,,,167.5,0.735,,,,,,
476,,isi,,html-keyboard-response,476,279465,0.0-1.0-92.0-0.0-2.0,0,0,1,,,,,,,,,,,,,,,,,,,,,,,,,,,,,,,,,,,,,,171.0,3.5,,,,,,
477,,feedback,,html-keyboard-response,477,280471,0.0-1.0-92.0-0.0-3.0-0.0,0,0,1,,,,,,90.0,,,,,,,,,,,,,,,,,,,,,,,,,,,,,,,,172.0,1.0,,,,,,
478,,iti,,html-keyboard-response,478,280578,0.0-1.0-92.0-0.0-5.0,0,0,1,,,,,,,,,,,,,,,,,,,,,,,,,,,,,,,,,,,,,,173.0,1.0,,,,,,
479,,choice,,html-keyboard-response,479,280870,0.0-1.0-93.0-0.0-0.0,0,0,1,,290.0,,,50.0,91.0,92.0,1500.0,1000.0,0.0,2.0,1.0,60-60,1.0,,hammer,hammer,60.0,60.0,hammer1,hammer8,60.0,40.0,fosnaugh.hammer.jpg,ct1006_hammer.jpg,/static/Category_learning/Stimuli/Experimental_stims/hammer/fosnaugh.hammer.jpg,/static/Category_learning/Stimuli/Experimental_stims/hammer/ct1006_hammer.jpg,1.0,hammer,hammer,60.0,60.0,hammer1,hammer8,60.0,40.0,0.0,173.29,0.29,,,,,,
480,,confirmation,,html-keyboard-response,480,282087,0.0-1.0-93.0-0.0-1.0-0.0,0,0,1,,,,,,91.0,,,,,,,,,,,,,,,,,,,,,,,,,,,,,,,,174.5,1.21,,,,,,
481,,isi,,html-keyboard-response,481,282193,0.0-1.0-93.0-0.0-2.0,0,0,1,,,,,,,,,,,,,,,,,,,,,,,,,,,,,,,,,,,,,,176.0,1.5,,,,,,
482,,feedback,,html-keyboard-response,482,283196,0.0-1.0-93.0-0.0-3.0-0.0,0,0,1,,,,,,91.0,,,,,,,,,,,,,,,,,,,,,,,,,,,,,,,,177.0,1.0,,,,,,
483,,iti,,html-keyboard-response,483,283297,0.0-1.0-93.0-0.0-5.0,0,0,1,,,,,,,,,,,,,,,,,,,,,,,,,,,,,,,,,,,,,,178.0,1.0,,,,,,
484,,choice,,html-keyboard-response,484,283986,0.0-1.0-94.0-0.0-0.0,0,0,1,,686.0,,,50.0,92.0,93.0,3000.0,2000.0,0.0,2.0,1.0,40-40,1.0,,baby carriage,baby carriage,40.0,40.0,baby carriage1,baby carriage6,40.0,20.0,babycarriage16.jpg,Baby_Stroller-1.jpg,/static/Category_learning/Stimuli/Experimental_stims/baby carriage/babycarriage16.jpg,/static/Category_learning/Stimuli/Experimental_stims/baby carriage/Baby_Stroller-1.jpg,1.0,baby carriage,baby carriage,40.0,40.0,baby carriage1,baby carriage6,40.0,20.0,0.0,178.68599999999998,0.6859999999999999,,,,,,
485,,confirmation,,html-keyboard-response,485,284806,0.0-1.0-94.0-0.0-1.0-0.0,0,0,1,,,,,,92.0,,,,,,,,,,,,,,,,,,,,,,,,,,,,,,,,179.5,0.8140000000000001,,,,,,
486,,isi,,html-keyboard-response,486,284908,0.0-1.0-94.0-0.0-2.0,0,0,1,,,,,,,,,,,,,,,,,,,,,,,,,,,,,,,,,,,,,,182.5,3.0,,,,,,
487,,feedback,,html-keyboard-response,487,285914,0.0-1.0-94.0-0.0-3.0-0.0,0,0,1,,,,,,92.0,,,,,,,,,,,,,,,,,,,,,,,,,,,,,,,,183.5,1.0,,,,,,
488,,iti,,html-keyboard-response,488,286017,0.0-1.0-94.0-0.0-5.0,0,0,1,,,,,,,,,,,,,,,,,,,,,,,,,,,,,,,,,,,,,,185.5,2.0,,,,,,
489,,choice,,html-keyboard-response,489,287428,0.0-1.0-95.0-0.0-0.0,0,0,1,,1407.0,,,50.0,93.0,94.0,1500.0,1500.0,0.0,2.0,0.0,40-80,,1.0,poker card,bowl,80.0,40.0,poker card9,bowl15,80.0,60.0,9817230.thl.jpg,Awhitebowl2.jpg,/static/Category_learning/Stimuli/Experimental_stims/poker card/9817230.thl.jpg,/static/Category_learning/Stimuli/Experimental_stims/bowl/Awhitebowl2.jpg,1.0,poker card,bowl,80.0,40.0,poker card9,bowl15,80.0,60.0,0.0,186.907,1.4069999999999998,,,,,,
490,,confirmation,,html-keyboard-response,490,287527,0.0-1.0-95.0-0.0-1.0-0.0,0,0,1,,,,,,93.0,,,,,,,,,,,,,,,,,,,,,,,,,,,,,,,,187.0,0.09300000000000001,,,,,,
491,,isi,,html-keyboard-response,491,287634,0.0-1.0-95.0-0.0-2.0,0,0,1,,,,,,,,,,,,,,,,,,,,,,,,,,,,,,,,,,,,,,188.5,1.5,,,,,,
492,,feedback,,html-keyboard-response,492,288636,0.0-1.0-95.0-0.0-3.0-0.0,0,0,1,,,,,,93.0,,,,,,,,,,,,,,,,,,,,,,,,,,,,,,,,189.5,1.0,,,,,,
493,,iti,,html-keyboard-response,493,288738,0.0-1.0-95.0-0.0-5.0,0,0,1,,,,,,,,,,,,,,,,,,,,,,,,,,,,,,,,,,,,,,191.0,1.5,,,,,,
