,success,ttype,start_time,trial_type,trial_index,time_elapsed,internal_node_id,warning,missed_checkup,PID,view_history,rt,responses,repeat_instructions,key_press,index,trial_num,isi,iti,is_practice,block,old_trial,pair_type,within_category,high_cat_on_left,left_category,right_category,left_category_value,right_category_value,left_exemplar,right_exemplar,left_exemplar_value,right_exemplar_value,left_img,right_img,left_img_path,right_img_path,left_chosen,chosen_category,unchosen_category,chosen_category_value,unchosen_category_value,chosen_exemplar,unchosen_exemplar,chosen_exemplar_value,unchosen_exemplar_value,no_response,onset,duration,end_practice,total_bonus_tally,category,category_group_value,category_value_response,did_not_enter_response
0,True,full_screen,d06062022hr1753,fullscreen,0,2085,0.0-0.0,0,0,44,,,,,,,,,,,,,,,,,,,,,,,,,,,,,,,,,,,,,,,,,,,,,
1,,category_learning_instructions,,instructions,1,5435,0.0-1.0-0.0-0.0,0,0,44,"[{""page_index"":0,""viewing_time"":1876},{""page_index"":1,""viewing_time"":152},{""page_index"":2,""viewing_time"":161},{""page_index"":3,""viewing_time"":163},{""page_index"":4,""viewing_time"":184},{""page_index"":5,""viewing_time"":406},{""page_index"":6,""viewing_time"":405}]",3348.0,,,,,,,,,,,,,,,,,,,,,,,,,,,,,,,,,,,,,,,,,,,
2,,category_learning_comprehension_check,,survey-multi-choice,2,9662,0.0-1.0-0.0-1.0,0,0,44,,4222.0,"{""Q0"":""True"",""Q1"":""True"",""Q2"":""Stay the same"",""Q3"":""pointer finger for left and middle finger for right""}",0.0,,,,,,,,,,,,,,,,,,,,,,,,,,,,,,,,,,,,,,,,,
3,,,,html-keyboard-response,3,11327,0.0-1.0-1.0,0,0,44,,1662.0,,,50.0,,,,,,,,,,,,,,,,,,,,,,,,,,,,,,,,,,,,,,,,
4,,choice,,html-keyboard-response,4,12422,0.0-1.0-2.0-0.0-0.0,0,0,44,,1092.0,,,50.0,0.0,0.0,1500.0,1000.0,1.0,0.0,0.0,20-80,,0.0,bagel,dumbbell,20.0,80.0,bagel1,dumbbell1,0.0,80.0,bagels_pumpernickel_large.jpg,31B64EN68AL._AA280_.jpg,/static/Category_learning/Stimuli/Practice_stims/bagel/bagels_pumpernickel_large.jpg,/static/Category_learning/Stimuli/Practice_stims/dumbbell/31B64EN68AL._AA280_.jpg,1.0,bagel,dumbbell,20.0,80.0,bagel1,dumbbell1,0.0,80.0,0.0,1.092,1.092,,,,,,
5,,confirmation,,html-keyboard-response,5,12834,0.0-1.0-2.0-0.0-1.0-0.0,0,0,44,,,,,,0.0,,,,,,,,,,,,,,,,,,,,,,,,,,,,,,,,1.5,0.408,,,,,,
6,,isi,,html-keyboard-response,6,12937,0.0-1.0-2.0-0.0-2.0,0,0,44,,,,,,,,,,,,,,,,,,,,,,,,,,,,,,,,,,,,,,3.0,1.5,,,,,,
7,,feedback,,html-keyboard-response,7,13940,0.0-1.0-2.0-0.0-3.0-0.0,0,0,44,,,,,,0.0,,,,,,,,,,,,,,,,,,,,,,,,,,,,,,,,4.0,1.0,,,,,,
8,,iti,,html-keyboard-response,8,14043,0.0-1.0-2.0-0.0-5.0,0,0,44,,,,,,,,,,,,,,,,,,,,,,,,,,,,,,,,,,,,,,5.0,1.0,,,,,,
9,,choice,,html-keyboard-response,9,14153,0.0-1.0-3.0-0.0-0.0,0,0,44,,107.0,,,50.0,1.0,1.0,3000.0,1500.0,1.0,0.0,0.0,20-40,,1.0,calculator,bagel,40.0,20.0,calculator2,bagel2,20.0,20.0,22829064.thl.jpg,bagels_cinnraisin_large.jpg,/static/Category_learning/Stimuli/Practice_stims/calculator/22829064.thl.jpg,/static/Category_learning/Stimuli/Practice_stims/bagel/bagels_cinnraisin_large.jpg,1.0,calculator,bagel,40.0,20.0,calculator2,bagel2,20.0,20.0,0.0,5.107,0.107,,,,,,
10,,confirmation,,html-keyboard-response,10,15549,0.0-1.0-3.0-0.0-1.0-0.0,0,0,44,,,,,,1.0,,,,,,,,,,,,,,,,,,,,,,,,,,,,,,,,6.5,1.393,,,,,,
11,,isi,,html-keyboard-response,11,15654,0.0-1.0-3.0-0.0-2.0,0,0,44,,,,,,,,,,,,,,,,,,,,,,,,,,,,,,,,,,,,,,9.5,3.0,,,,,,
12,,feedback,,html-keyboard-response,12,16659,0.0-1.0-3.0-0.0-3.0-0.0,0,0,44,,,,,,1.0,,,,,,,,,,,,,,,,,,,,,,,,,,,,,,,,10.5,1.0,,,,,,
13,,iti,,html-keyboard-response,13,16761,0.0-1.0-3.0-0.0-5.0,0,0,44,,,,,,,,,,,,,,,,,,,,,,,,,,,,,,,,,,,,,,12.0,1.5,,,,,,
14,,choice,,html-keyboard-response,14,16771,0.0-1.0-4.0-0.0-0.0,0,0,44,,7.0,,,50.0,2.0,2.0,2000.0,3000.0,1.0,0.0,0.0,60-80,,0.0,clock,dumbbell,60.0,80.0,clock2,dumbbell2,60.0,100.0,26373355.thl.jpg,31K8MR6TMBL._SS500_.jpg,/static/Category_learning/Stimuli/Practice_stims/clock/26373355.thl.jpg,/static/Category_learning/Stimuli/Practice_stims/dumbbell/31K8MR6TMBL._SS500_.jpg,1.0,clock,dumbbell,60.0,80.0,clock2,dumbbell2,60.0,100.0,0.0,12.007,0.007,,,,,,
15,,confirmation,,html-keyboard-response,15,18266,0.0-1.0-4.0-0.0-1.0-0.0,0,0,44,,,,,,2.0,,,,,,,,,,,,,,,,,,,,,,,,,,,,,,,,13.5,1.493,,,,,,
16,,isi,,html-keyboard-response,16,18369,0.0-1.0-4.0-0.0-2.0,0,0,44,,,,,,,,,,,,,,,,,,,,,,,,,,,,,,,,,,,,,,15.5,2.0,,,,,,
17,,feedback,,html-keyboard-response,17,19371,0.0-1.0-4.0-0.0-3.0-0.0,0,0,44,,,,,,2.0,,,,,,,,,,,,,,,,,,,,,,,,,,,,,,,,16.5,1.0,,,,,,
18,,iti,,html-keyboard-response,18,19474,0.0-1.0-4.0-0.0-5.0,0,0,44,,,,,,,,,,,,,,,,,,,,,,,,,,,,,,,,,,,,,,19.5,3.0,,,,,,
19,,choice,,html-keyboard-response,19,19615,0.0-1.0-5.0-0.0-0.0,0,0,44,,139.0,,,50.0,3.0,3.0,1000.0,2000.0,1.0,0.0,0.0,40-80,,0.0,calculator,clock,40.0,60.0,calculator1,clock1,40.0,40.0,22829184.thl.jpg,Aalarmclock2.jpg,/static/Category_learning/Stimuli/Practice_stims/calculator/22829184.thl.jpg,/static/Category_learning/Stimuli/Practice_stims/clock/Aalarmclock2.jpg,1.0,calculator,clock,40.0,60.0,calculator1,clock1,40.0,40.0,0.0,19.639,0.139,,,,,,
20,,confirmation,,html-keyboard-response,20,20979,0.0-1.0-5.0-0.0-1.0-0.0,0,0,44,,,,,,3.0,,,,,,,,,,,,,,,,,,,,,,,,,,,,,,,,21.0,1.361,,,,,,
21,,isi,,html-keyboard-response,21,21081,0.0-1.0-5.0-0.0-2.0,0,0,44,,,,,,,,,,,,,,,,,,,,,,,,,,,,,,,,,,,,,,22.0,1.0,,,,,,
22,,feedback,,html-keyboard-response,22,22084,0.0-1.0-5.0-0.0-3.0-0.0,0,0,44,,,,,,3.0,,,,,,,,,,,,,,,,,,,,,,,,,,,,,,,,23.0,1.0,,,,,,
23,,iti,,html-keyboard-response,23,22189,0.0-1.0-5.0-0.0-5.0,0,0,44,,,,,,,,,,,,,,,,,,,,,,,,,,,,,,,,,,,,,,25.0,2.0,,,,,,
24,,choice,,html-keyboard-response,24,22422,0.0-1.0-6.0-0.0-0.0,0,0,44,,229.0,,,50.0,4.0,4.0,2500.0,2500.0,1.0,0.0,0.0,20-60,,1.0,dumbbell,bagel,80.0,20.0,dumbbell3,bagel3,100.0,40.0,41K7QVRX50L._SS500_.jpg,photo-169.jpg,/static/Category_learning/Stimuli/Practice_stims/dumbbell/41K7QVRX50L._SS500_.jpg,/static/Category_learning/Stimuli/Practice_stims/bagel/photo-169.jpg,1.0,dumbbell,bagel,80.0,20.0,dumbbell3,bagel3,100.0,40.0,0.0,25.229,0.229,1.0,,,,,
25,,confirmation,,html-keyboard-response,25,23696,0.0-1.0-6.0-0.0-1.0-0.0,0,0,44,,,,,,4.0,,,,,,,,,,,,,,,,,,,,,,,,,,,,,,,,26.5,1.271,,,,,,
26,,isi,,html-keyboard-response,26,23800,0.0-1.0-6.0-0.0-2.0,0,0,44,,,,,,,,,,,,,,,,,,,,,,,,,,,,,,,,,,,,,,29.0,2.5,,,,,,
27,,feedback,,html-keyboard-response,27,24804,0.0-1.0-6.0-0.0-3.0-0.0,0,0,44,,,,,,4.0,,,,,,,,,,,,,,,,,,,,,,,,,,,,,,,,30.0,1.0,,,,,,
28,,iti,,html-keyboard-response,28,24908,0.0-1.0-6.0-0.0-5.0,0,0,44,,,,,,,,,,,,,,,,,,,,,,,,,,,,,,,,,,,,,,32.5,2.5,,,,,,
29,,practice_over,,html-keyboard-response,29,25132,0.0-1.0-6.0-0.0-6.0-0.0,0,0,44,,222.0,,,50.0,4.0,,,,,,,,,,,,,,,,,,,,,,,,,,,,,,,,,,,,,,,
30,,start_run,,html-keyboard-response,30,26352,0.0-1.0-6.0-0.0-6.0-1.0,0,0,44,,1217.0,,,84.0,,,,,,,,,,,,,,,,,,,,,,,,,,,,,,,,,,,,,,,,
31,,choice,,html-keyboard-response,31,26746,0.0-1.0-7.0-0.0-0.0,0,0,44,,392.0,,,50.0,5.0,305.0,1500.0,3000.0,0.0,6.0,0.0,20-20,,,flashlight,dresser,20.0,20.0,flashlight11,dresser15,40.0,20.0,new04.jpg,ADRESSE77.jpg,/static/Category_learning/Stimuli/Experimental_stims/flashlight/new04.jpg,/static/Category_learning/Stimuli/Experimental_stims/dresser/ADRESSE77.jpg,1.0,flashlight,dresser,20.0,20.0,flashlight11,dresser15,40.0,20.0,0.0,0.392,0.392,,,,,,
32,,confirmation,,html-keyboard-response,32,27858,0.0-1.0-7.0-0.0-1.0-0.0,0,0,44,,,,,,5.0,,,,,,,,,,,,,,,,,,,,,,,,,,,,,,,,1.5,1.108,,,,,,
33,,isi,,html-keyboard-response,33,27962,0.0-1.0-7.0-0.0-2.0,0,0,44,,,,,,,,,,,,,,,,,,,,,,,,,,,,,,,,,,,,,,3.0,1.5,,,,,,
34,,feedback,,html-keyboard-response,34,28966,0.0-1.0-7.0-0.0-3.0-0.0,0,0,44,,,,,,5.0,,,,,,,,,,,,,,,,,,,,,,,,,,,,,,,,4.0,1.0,,,,,,
35,,iti,,html-keyboard-response,35,29068,0.0-1.0-7.0-0.0-5.0,0,0,44,,,,,,,,,,,,,,,,,,,,,,,,,,,,,,,,,,,,,,7.0,3.0,,,,,,
36,,choice,,html-keyboard-response,36,29183,0.0-1.0-8.0-0.0-0.0,0,0,44,,113.0,,,50.0,6.0,306.0,1000.0,3500.0,0.0,6.0,0.0,40-40,,,microscope,lipstick,40.0,40.0,microscope2,lipstick5,40.0,20.0,3090-b.jpg,P35719_hero.jpg,/static/Category_learning/Stimuli/Experimental_stims/microscope/3090-b.jpg,/static/Category_learning/Stimuli/Experimental_stims/lipstick/P35719_hero.jpg,1.0,microscope,lipstick,40.0,40.0,microscope2,lipstick5,40.0,20.0,0.0,7.113,0.113,,,,,,
37,,confirmation,,html-keyboard-response,37,30574,0.0-1.0-8.0-0.0-1.0-0.0,0,0,44,,,,,,6.0,,,,,,,,,,,,,,,,,,,,,,,,,,,,,,,,8.5,1.387,,,,,,
38,,isi,,html-keyboard-response,38,30676,0.0-1.0-8.0-0.0-2.0,0,0,44,,,,,,,,,,,,,,,,,,,,,,,,,,,,,,,,,,,,,,9.5,1.0,,,,,,
39,,feedback,,html-keyboard-response,39,31679,0.0-1.0-8.0-0.0-3.0-0.0,0,0,44,,,,,,6.0,,,,,,,,,,,,,,,,,,,,,,,,,,,,,,,,10.5,1.0,,,,,,
40,,iti,,html-keyboard-response,40,31782,0.0-1.0-8.0-0.0-5.0,0,0,44,,,,,,,,,,,,,,,,,,,,,,,,,,,,,,,,,,,,,,14.0,3.5,,,,,,
41,,choice,,html-keyboard-response,41,33285,0.0-1.0-9.0-0.0-0.0,0,0,44,,,,,,7.0,307.0,3500.0,1500.0,0.0,6.0,0.0,60-80,,1.0,train,nail polish,80.0,60.0,train10,nail polish10,100.0,80.0,train3.jpg,NLM23_opi_nail_polish.jpg,/static/Category_learning/Stimuli/Experimental_stims/train/train3.jpg,/static/Category_learning/Stimuli/Experimental_stims/nail polish/NLM23_opi_nail_polish.jpg,,,,,,,,,,1.0,15.5,1.5,,,,,,
42,,isi,,html-keyboard-response,42,34180,0.0-1.0-9.0-0.0-2.0,0,0,44,,,,,,,,,,,,,,,,,,,,,,,,,,,,,,,,,,,,,,19.0,3.5,,,,,,
43,,no_response,,html-keyboard-response,43,36882,0.0-1.0-9.0-0.0-4.0-0.0,1,0,44,,,,,,,,,,,,,,,,,,,,,,,,,,,,,,,,,,,,,,20.0,1.0,,,,,,
44,,iti,,html-keyboard-response,44,38882,0.0-1.0-9.0-0.0-5.0,0,0,44,,,,,,,,,,,,,,,,,,,,,,,,,,,,,,,,,,,,,,21.5,1.5,,,,,,
45,,choice,,html-keyboard-response,45,42523,0.0-1.0-9.0-0.1-0.1,0,0,44,,,,,,7.0,307.0,3500.0,1500.0,0.0,6.0,0.0,60-80,,1.0,train,nail polish,80.0,60.0,train10,nail polish10,100.0,80.0,train3.jpg,NLM23_opi_nail_polish.jpg,/static/Category_learning/Stimuli/Experimental_stims/train/train3.jpg,/static/Category_learning/Stimuli/Experimental_stims/nail polish/NLM23_opi_nail_polish.jpg,,,,,,,,,,1.0,23.0,1.5,,,,,,
46,,isi,,html-keyboard-response,46,50499,0.0-1.0-9.0-0.1-2.1,0,0,44,,,,,,,,,,,,,,,,,,,,,,,,,,,,,,,,,,,,,,25.0,2.0,,,,,,
47,,no_response,,html-keyboard-response,47,57398,0.0-1.0-9.0-0.1-4.1-0.1,1,0,44,,,,,,,,,,,,,,,,,,,,,,,,,,,,,,,,,,,,,,26.0,1.0,,,,,,
48,,iti,,html-keyboard-response,48,75449,0.0-1.0-9.0-0.1-5.1,0,0,44,,,,,,,,,,,,,,,,,,,,,,,,,,,,,,,,,,,,,,27.0,1.0,,,,,,
49,,choice,,html-keyboard-response,49,107305,0.0-1.0-9.0-0.2-0.2,0,0,44,,,,,,7.0,307.0,3500.0,1500.0,0.0,6.0,0.0,60-80,,1.0,train,nail polish,80.0,60.0,train10,nail polish10,100.0,80.0,train3.jpg,NLM23_opi_nail_polish.jpg,/static/Category_learning/Stimuli/Experimental_stims/train/train3.jpg,/static/Category_learning/Stimuli/Experimental_stims/nail polish/NLM23_opi_nail_polish.jpg,,,,,,,,,,1.0,28.5,1.5,,,,,,
50,,isi,,html-keyboard-response,50,165456,0.0-1.0-9.0-0.2-2.2,0,0,44,,,,,,,,,,,,,,,,,,,,,,,,,,,,,,,,,,,,,,30.5,2.0,,,,,,
51,,no_response,,html-keyboard-response,51,221645,0.0-1.0-9.0-0.2-4.2-0.2,1,0,44,,,,,,,,,,,,,,,,,,,,,,,,,,,,,,,,,,,,,,31.5,1.0,,,,,,
52,,iti,,html-keyboard-response,52,221767,0.0-1.0-9.0-0.2-5.2,0,0,44,,,,,,,,,,,,,,,,,,,,,,,,,,,,,,,,,,,,,,33.5,2.0,,,,,,
53,,choice,,html-keyboard-response,53,223270,0.0-1.0-9.0-0.3-0.3,0,0,44,,,,,,7.0,307.0,3500.0,1500.0,0.0,6.0,0.0,60-80,,1.0,train,nail polish,80.0,60.0,train10,nail polish10,100.0,80.0,train3.jpg,NLM23_opi_nail_polish.jpg,/static/Category_learning/Stimuli/Experimental_stims/train/train3.jpg,/static/Category_learning/Stimuli/Experimental_stims/nail polish/NLM23_opi_nail_polish.jpg,,,,,,,,,,1.0,35.0,1.5,,,,,,
54,,isi,,html-keyboard-response,54,223372,0.0-1.0-9.0-0.3-2.3,0,0,44,,,,,,,,,,,,,,,,,,,,,,,,,,,,,,,,,,,,,,36.0,1.0,,,,,,
55,,no_response,,html-keyboard-response,55,224374,0.0-1.0-9.0-0.3-4.3-0.3,1,0,44,,,,,,,,,,,,,,,,,,,,,,,,,,,,,,,,,,,,,,37.0,1.0,,,,,,
56,,iti,,html-keyboard-response,56,225031,0.0-1.0-9.0-0.3-5.3,0,0,44,,,,,,,,,,,,,,,,,,,,,,,,,,,,,,,,,,,,,,38.5,1.5,,,,,,
57,,choice,,html-keyboard-response,57,226707,0.0-1.0-9.0-0.4-0.4,0,0,44,,,,,,7.0,307.0,3500.0,1500.0,0.0,6.0,0.0,60-80,,1.0,train,nail polish,80.0,60.0,train10,nail polish10,100.0,80.0,train3.jpg,NLM23_opi_nail_polish.jpg,/static/Category_learning/Stimuli/Experimental_stims/train/train3.jpg,/static/Category_learning/Stimuli/Experimental_stims/nail polish/NLM23_opi_nail_polish.jpg,,,,,,,,,,1.0,40.0,1.5,,,,,,
58,,isi,,html-keyboard-response,58,227336,0.0-1.0-9.0-0.4-2.4,0,0,44,,,,,,,,,,,,,,,,,,,,,,,,,,,,,,,,,,,,,,42.0,2.0,,,,,,
59,,no_response,,html-keyboard-response,59,230884,0.0-1.0-9.0-0.4-4.4-0.4,1,0,44,,,,,,,,,,,,,,,,,,,,,,,,,,,,,,,,,,,,,,43.0,1.0,,,,,,
60,,iti,,html-keyboard-response,60,231491,0.0-1.0-9.0-0.4-5.4,0,0,44,,,,,,,,,,,,,,,,,,,,,,,,,,,,,,,,,,,,,,44.0,1.0,,,,,,
61,,choice,,html-keyboard-response,61,236881,0.0-1.0-9.0-0.5-0.5,0,0,44,,,,,,7.0,307.0,3500.0,1500.0,0.0,6.0,0.0,60-80,,1.0,train,nail polish,80.0,60.0,train10,nail polish10,100.0,80.0,train3.jpg,NLM23_opi_nail_polish.jpg,/static/Category_learning/Stimuli/Experimental_stims/train/train3.jpg,/static/Category_learning/Stimuli/Experimental_stims/nail polish/NLM23_opi_nail_polish.jpg,,,,,,,,,,1.0,45.5,1.5,,,,,,
62,,isi,,html-keyboard-response,62,244253,0.0-1.0-9.0-0.5-2.5,0,0,44,,,,,,,,,,,,,,,,,,,,,,,,,,,,,,,,,,,,,,46.5,1.0,,,,,,
63,,no_response,,html-keyboard-response,63,252003,0.0-1.0-9.0-0.5-4.5-0.5,1,0,44,,,,,,,,,,,,,,,,,,,,,,,,,,,,,,,,,,,,,,47.5,1.0,,,,,,
64,,iti,,html-keyboard-response,64,269486,0.0-1.0-9.0-0.5-5.5,0,0,44,,,,,,,,,,,,,,,,,,,,,,,,,,,,,,,,,,,,,,51.0,3.5,,,,,,
65,,choice,,html-keyboard-response,65,277328,0.0-1.0-9.0-0.6-0.6,0,0,44,,,,,,7.0,307.0,3500.0,1500.0,0.0,6.0,0.0,60-80,,1.0,train,nail polish,80.0,60.0,train10,nail polish10,100.0,80.0,train3.jpg,NLM23_opi_nail_polish.jpg,/static/Category_learning/Stimuli/Experimental_stims/train/train3.jpg,/static/Category_learning/Stimuli/Experimental_stims/nail polish/NLM23_opi_nail_polish.jpg,,,,,,,,,,1.0,52.5,1.5,,,,,,
66,,isi,,html-keyboard-response,66,312296,0.0-1.0-9.0-0.6-2.6,0,0,44,,,,,,,,,,,,,,,,,,,,,,,,,,,,,,,,,,,,,,55.5,3.0,,,,,,
67,,no_response,,html-keyboard-response,67,368903,0.0-1.0-9.0-0.6-4.6-0.6,1,0,44,,,,,,,,,,,,,,,,,,,,,,,,,,,,,,,,,,,,,,56.5,1.0,,,,,,
68,,iti,,html-keyboard-response,68,409822,0.0-1.0-9.0-0.6-5.6,0,0,44,,,,,,,,,,,,,,,,,,,,,,,,,,,,,,,,,,,,,,57.5,1.0,,,,,,
69,,choice,,html-keyboard-response,69,460261,0.0-1.0-9.0-0.7-0.7,0,0,44,,,,,,7.0,307.0,3500.0,1500.0,0.0,6.0,0.0,60-80,,1.0,train,nail polish,80.0,60.0,train10,nail polish10,100.0,80.0,train3.jpg,NLM23_opi_nail_polish.jpg,/static/Category_learning/Stimuli/Experimental_stims/train/train3.jpg,/static/Category_learning/Stimuli/Experimental_stims/nail polish/NLM23_opi_nail_polish.jpg,,,,,,,,,,1.0,59.0,1.5,,,,,,
70,,isi,,html-keyboard-response,70,460366,0.0-1.0-9.0-0.7-2.7,0,0,44,,,,,,,,,,,,,,,,,,,,,,,,,,,,,,,,,,,,,,60.5,1.5,,,,,,
71,,no_response,,html-keyboard-response,71,461369,0.0-1.0-9.0-0.7-4.7-0.7,1,0,44,,,,,,,,,,,,,,,,,,,,,,,,,,,,,,,,,,,,,,61.5,1.0,,,,,,
72,,iti,,html-keyboard-response,72,461486,0.0-1.0-9.0-0.7-5.7,0,0,44,,,,,,,,,,,,,,,,,,,,,,,,,,,,,,,,,,,,,,62.5,1.0,,,,,,
73,,choice,,html-keyboard-response,73,462993,0.0-1.0-9.0-0.8-0.8,0,0,44,,,,,,7.0,307.0,3500.0,1500.0,0.0,6.0,0.0,60-80,,1.0,train,nail polish,80.0,60.0,train10,nail polish10,100.0,80.0,train3.jpg,NLM23_opi_nail_polish.jpg,/static/Category_learning/Stimuli/Experimental_stims/train/train3.jpg,/static/Category_learning/Stimuli/Experimental_stims/nail polish/NLM23_opi_nail_polish.jpg,,,,,,,,,,1.0,64.0,1.5,,,,,,
74,,isi,,html-keyboard-response,74,463098,0.0-1.0-9.0-0.8-2.8,0,0,44,,,,,,,,,,,,,,,,,,,,,,,,,,,,,,,,,,,,,,66.0,2.0,,,,,,
75,,no_response,,html-keyboard-response,75,464101,0.0-1.0-9.0-0.8-4.8-0.8,1,0,44,,,,,,,,,,,,,,,,,,,,,,,,,,,,,,,,,,,,,,67.0,1.0,,,,,,
76,,iti,,html-keyboard-response,76,464218,0.0-1.0-9.0-0.8-5.8,0,0,44,,,,,,,,,,,,,,,,,,,,,,,,,,,,,,,,,,,,,,68.5,1.5,,,,,,
77,,choice,,html-keyboard-response,77,465722,0.0-1.0-9.0-0.9-0.9,0,0,44,,,,,,7.0,307.0,3500.0,1500.0,0.0,6.0,0.0,60-80,,1.0,train,nail polish,80.0,60.0,train10,nail polish10,100.0,80.0,train3.jpg,NLM23_opi_nail_polish.jpg,/static/Category_learning/Stimuli/Experimental_stims/train/train3.jpg,/static/Category_learning/Stimuli/Experimental_stims/nail polish/NLM23_opi_nail_polish.jpg,,,,,,,,,,1.0,70.0,1.5,,,,,,
78,,isi,,html-keyboard-response,78,465826,0.0-1.0-9.0-0.9-2.9,0,0,44,,,,,,,,,,,,,,,,,,,,,,,,,,,,,,,,,,,,,,72.0,2.0,,,,,,
79,,no_response,,html-keyboard-response,79,466828,0.0-1.0-9.0-0.9-4.9-0.9,1,0,44,,,,,,,,,,,,,,,,,,,,,,,,,,,,,,,,,,,,,,73.0,1.0,,,,,,
80,,iti,,html-keyboard-response,80,466943,0.0-1.0-9.0-0.9-5.9,0,0,44,,,,,,,,,,,,,,,,,,,,,,,,,,,,,,,,,,,,,,74.0,1.0,,,,,,
81,,choice,,html-keyboard-response,81,468447,0.0-1.0-9.0-0.10-0.10,0,0,44,,,,,,7.0,307.0,3500.0,1500.0,0.0,6.0,0.0,60-80,,1.0,train,nail polish,80.0,60.0,train10,nail polish10,100.0,80.0,train3.jpg,NLM23_opi_nail_polish.jpg,/static/Category_learning/Stimuli/Experimental_stims/train/train3.jpg,/static/Category_learning/Stimuli/Experimental_stims/nail polish/NLM23_opi_nail_polish.jpg,,,,,,,,,,1.0,75.5,1.5,,,,,,
82,,isi,,html-keyboard-response,82,468549,0.0-1.0-9.0-0.10-2.10,0,0,44,,,,,,,,,,,,,,,,,,,,,,,,,,,,,,,,,,,,,,79.0,3.5,,,,,,
83,,no_response,,html-keyboard-response,83,469552,0.0-1.0-9.0-0.10-4.10-0.10,1,0,44,,,,,,,,,,,,,,,,,,,,,,,,,,,,,,,,,,,,,,80.0,1.0,,,,,,
84,,iti,,html-keyboard-response,84,469670,0.0-1.0-9.0-0.10-5.10,0,0,44,,,,,,,,,,,,,,,,,,,,,,,,,,,,,,,,,,,,,,81.0,1.0,,,,,,
85,,choice,,html-keyboard-response,85,471172,0.0-1.0-9.0-0.11-0.11,0,0,44,,,,,,7.0,307.0,3500.0,1500.0,0.0,6.0,0.0,60-80,,1.0,train,nail polish,80.0,60.0,train10,nail polish10,100.0,80.0,train3.jpg,NLM23_opi_nail_polish.jpg,/static/Category_learning/Stimuli/Experimental_stims/train/train3.jpg,/static/Category_learning/Stimuli/Experimental_stims/nail polish/NLM23_opi_nail_polish.jpg,,,,,,,,,,1.0,82.5,1.5,,,,,,
86,,isi,,html-keyboard-response,86,471276,0.0-1.0-9.0-0.11-2.11,0,0,44,,,,,,,,,,,,,,,,,,,,,,,,,,,,,,,,,,,,,,84.5,2.0,,,,,,
87,,no_response,,html-keyboard-response,87,472278,0.0-1.0-9.0-0.11-4.11-0.11,1,0,44,,,,,,,,,,,,,,,,,,,,,,,,,,,,,,,,,,,,,,85.5,1.0,,,,,,
88,,iti,,html-keyboard-response,88,472389,0.0-1.0-9.0-0.11-5.11,0,0,44,,,,,,,,,,,,,,,,,,,,,,,,,,,,,,,,,,,,,,87.5,2.0,,,,,,
89,,choice,,html-keyboard-response,89,473892,0.0-1.0-9.0-0.12-0.12,0,0,44,,,,,,7.0,307.0,3500.0,1500.0,0.0,6.0,0.0,60-80,,1.0,train,nail polish,80.0,60.0,train10,nail polish10,100.0,80.0,train3.jpg,NLM23_opi_nail_polish.jpg,/static/Category_learning/Stimuli/Experimental_stims/train/train3.jpg,/static/Category_learning/Stimuli/Experimental_stims/nail polish/NLM23_opi_nail_polish.jpg,,,,,,,,,,1.0,89.0,1.5,,,,,,
90,,isi,,html-keyboard-response,90,473999,0.0-1.0-9.0-0.12-2.12,0,0,44,,,,,,,,,,,,,,,,,,,,,,,,,,,,,,,,,,,,,,90.0,1.0,,,,,,
91,,no_response,,html-keyboard-response,91,475002,0.0-1.0-9.0-0.12-4.12-0.12,1,0,44,,,,,,,,,,,,,,,,,,,,,,,,,,,,,,,,,,,,,,91.0,1.0,,,,,,
92,,iti,,html-keyboard-response,92,475118,0.0-1.0-9.0-0.12-5.12,0,0,44,,,,,,,,,,,,,,,,,,,,,,,,,,,,,,,,,,,,,,92.0,1.0,,,,,,
93,,choice,,html-keyboard-response,93,476625,0.0-1.0-9.0-0.13-0.13,0,0,44,,,,,,7.0,307.0,3500.0,1500.0,0.0,6.0,0.0,60-80,,1.0,train,nail polish,80.0,60.0,train10,nail polish10,100.0,80.0,train3.jpg,NLM23_opi_nail_polish.jpg,/static/Category_learning/Stimuli/Experimental_stims/train/train3.jpg,/static/Category_learning/Stimuli/Experimental_stims/nail polish/NLM23_opi_nail_polish.jpg,,,,,,,,,,1.0,93.5,1.5,,,,,,
94,,isi,,html-keyboard-response,94,476729,0.0-1.0-9.0-0.13-2.13,0,0,44,,,,,,,,,,,,,,,,,,,,,,,,,,,,,,,,,,,,,,96.5,3.0,,,,,,
95,,no_response,,html-keyboard-response,95,477733,0.0-1.0-9.0-0.13-4.13-0.13,1,0,44,,,,,,,,,,,,,,,,,,,,,,,,,,,,,,,,,,,,,,97.5,1.0,,,,,,
96,,iti,,html-keyboard-response,96,477853,0.0-1.0-9.0-0.13-5.13,0,0,44,,,,,,,,,,,,,,,,,,,,,,,,,,,,,,,,,,,,,,98.5,1.0,,,,,,
97,,choice,,html-keyboard-response,97,479357,0.0-1.0-9.0-0.14-0.14,0,0,44,,,,,,7.0,307.0,3500.0,1500.0,0.0,6.0,0.0,60-80,,1.0,train,nail polish,80.0,60.0,train10,nail polish10,100.0,80.0,train3.jpg,NLM23_opi_nail_polish.jpg,/static/Category_learning/Stimuli/Experimental_stims/train/train3.jpg,/static/Category_learning/Stimuli/Experimental_stims/nail polish/NLM23_opi_nail_polish.jpg,,,,,,,,,,1.0,100.0,1.5,,,,,,
98,,isi,,html-keyboard-response,98,479461,0.0-1.0-9.0-0.14-2.14,0,0,44,,,,,,,,,,,,,,,,,,,,,,,,,,,,,,,,,,,,,,101.5,1.5,,,,,,
99,,no_response,,html-keyboard-response,99,480466,0.0-1.0-9.0-0.14-4.14-0.14,1,0,44,,,,,,,,,,,,,,,,,,,,,,,,,,,,,,,,,,,,,,102.5,1.0,,,,,,
100,,iti,,html-keyboard-response,100,480582,0.0-1.0-9.0-0.14-5.14,0,0,44,,,,,,,,,,,,,,,,,,,,,,,,,,,,,,,,,,,,,,105.5,3.0,,,,,,
101,,choice,,html-keyboard-response,101,482087,0.0-1.0-9.0-0.15-0.15,0,0,44,,,,,,7.0,307.0,3500.0,1500.0,0.0,6.0,0.0,60-80,,1.0,train,nail polish,80.0,60.0,train10,nail polish10,100.0,80.0,train3.jpg,NLM23_opi_nail_polish.jpg,/static/Category_learning/Stimuli/Experimental_stims/train/train3.jpg,/static/Category_learning/Stimuli/Experimental_stims/nail polish/NLM23_opi_nail_polish.jpg,,,,,,,,,,1.0,107.0,1.5,,,,,,
102,,isi,,html-keyboard-response,102,482192,0.0-1.0-9.0-0.15-2.15,0,0,44,,,,,,,,,,,,,,,,,,,,,,,,,,,,,,,,,,,,,,110.0,3.0,,,,,,
103,,no_response,,html-keyboard-response,103,483195,0.0-1.0-9.0-0.15-4.15-0.15,1,0,44,,,,,,,,,,,,,,,,,,,,,,,,,,,,,,,,,,,,,,111.0,1.0,,,,,,
104,,iti,,html-keyboard-response,104,483311,0.0-1.0-9.0-0.15-5.15,0,0,44,,,,,,,,,,,,,,,,,,,,,,,,,,,,,,,,,,,,,,113.0,2.0,,,,,,
105,,choice,,html-keyboard-response,105,484817,0.0-1.0-9.0-0.16-0.16,0,0,44,,,,,,7.0,307.0,3500.0,1500.0,0.0,6.0,0.0,60-80,,1.0,train,nail polish,80.0,60.0,train10,nail polish10,100.0,80.0,train3.jpg,NLM23_opi_nail_polish.jpg,/static/Category_learning/Stimuli/Experimental_stims/train/train3.jpg,/static/Category_learning/Stimuli/Experimental_stims/nail polish/NLM23_opi_nail_polish.jpg,,,,,,,,,,1.0,114.5,1.5,,,,,,
106,,isi,,html-keyboard-response,106,484920,0.0-1.0-9.0-0.16-2.16,0,0,44,,,,,,,,,,,,,,,,,,,,,,,,,,,,,,,,,,,,,,116.0,1.5,,,,,,
107,,no_response,,html-keyboard-response,107,485927,0.0-1.0-9.0-0.16-4.16-0.16,1,0,44,,,,,,,,,,,,,,,,,,,,,,,,,,,,,,,,,,,,,,117.0,1.0,,,,,,
108,,iti,,html-keyboard-response,108,486043,0.0-1.0-9.0-0.16-5.16,0,0,44,,,,,,,,,,,,,,,,,,,,,,,,,,,,,,,,,,,,,,118.5,1.5,,,,,,
109,,choice,,html-keyboard-response,109,487547,0.0-1.0-9.0-0.17-0.17,0,0,44,,,,,,7.0,307.0,3500.0,1500.0,0.0,6.0,0.0,60-80,,1.0,train,nail polish,80.0,60.0,train10,nail polish10,100.0,80.0,train3.jpg,NLM23_opi_nail_polish.jpg,/static/Category_learning/Stimuli/Experimental_stims/train/train3.jpg,/static/Category_learning/Stimuli/Experimental_stims/nail polish/NLM23_opi_nail_polish.jpg,,,,,,,,,,1.0,120.0,1.5,,,,,,
110,,isi,,html-keyboard-response,110,487651,0.0-1.0-9.0-0.17-2.17,0,0,44,,,,,,,,,,,,,,,,,,,,,,,,,,,,,,,,,,,,,,121.0,1.0,,,,,,
111,,no_response,,html-keyboard-response,111,488654,0.0-1.0-9.0-0.17-4.17-0.17,1,0,44,,,,,,,,,,,,,,,,,,,,,,,,,,,,,,,,,,,,,,122.0,1.0,,,,,,
112,,iti,,html-keyboard-response,112,488775,0.0-1.0-9.0-0.17-5.17,0,0,44,,,,,,,,,,,,,,,,,,,,,,,,,,,,,,,,,,,,,,123.5,1.5,,,,,,
113,,choice,,html-keyboard-response,113,490278,0.0-1.0-9.0-0.18-0.18,0,0,44,,,,,,7.0,307.0,3500.0,1500.0,0.0,6.0,0.0,60-80,,1.0,train,nail polish,80.0,60.0,train10,nail polish10,100.0,80.0,train3.jpg,NLM23_opi_nail_polish.jpg,/static/Category_learning/Stimuli/Experimental_stims/train/train3.jpg,/static/Category_learning/Stimuli/Experimental_stims/nail polish/NLM23_opi_nail_polish.jpg,,,,,,,,,,1.0,125.0,1.5,,,,,,
114,,isi,,html-keyboard-response,114,490381,0.0-1.0-9.0-0.18-2.18,0,0,44,,,,,,,,,,,,,,,,,,,,,,,,,,,,,,,,,,,,,,126.0,1.0,,,,,,
115,,no_response,,html-keyboard-response,115,491387,0.0-1.0-9.0-0.18-4.18-0.18,1,0,44,,,,,,,,,,,,,,,,,,,,,,,,,,,,,,,,,,,,,,127.0,1.0,,,,,,
116,,iti,,html-keyboard-response,116,491504,0.0-1.0-9.0-0.18-5.18,0,0,44,,,,,,,,,,,,,,,,,,,,,,,,,,,,,,,,,,,,,,130.0,3.0,,,,,,
117,,choice,,html-keyboard-response,117,493010,0.0-1.0-9.0-0.19-0.19,0,0,44,,,,,,7.0,307.0,3500.0,1500.0,0.0,6.0,0.0,60-80,,1.0,train,nail polish,80.0,60.0,train10,nail polish10,100.0,80.0,train3.jpg,NLM23_opi_nail_polish.jpg,/static/Category_learning/Stimuli/Experimental_stims/train/train3.jpg,/static/Category_learning/Stimuli/Experimental_stims/nail polish/NLM23_opi_nail_polish.jpg,,,,,,,,,,1.0,131.5,1.5,,,,,,
118,,isi,,html-keyboard-response,118,494087,0.0-1.0-9.0-0.19-2.19,0,0,44,,,,,,,,,,,,,,,,,,,,,,,,,,,,,,,,,,,,,,133.5,2.0,,,,,,
119,,no_response,,html-keyboard-response,119,495151,0.0-1.0-9.0-0.19-4.19-0.19,1,0,44,,,,,,,,,,,,,,,,,,,,,,,,,,,,,,,,,,,,,,134.5,1.0,,,,,,
120,,iti,,html-keyboard-response,120,495958,0.0-1.0-9.0-0.19-5.19,0,0,44,,,,,,,,,,,,,,,,,,,,,,,,,,,,,,,,,,,,,,136.5,2.0,,,,,,
121,,choice,,html-keyboard-response,121,497958,0.0-1.0-9.0-0.20-0.20,0,0,44,,,,,,7.0,307.0,3500.0,1500.0,0.0,6.0,0.0,60-80,,1.0,train,nail polish,80.0,60.0,train10,nail polish10,100.0,80.0,train3.jpg,NLM23_opi_nail_polish.jpg,/static/Category_learning/Stimuli/Experimental_stims/train/train3.jpg,/static/Category_learning/Stimuli/Experimental_stims/nail polish/NLM23_opi_nail_polish.jpg,,,,,,,,,,1.0,138.0,1.5,,,,,,
122,,isi,,html-keyboard-response,122,498353,0.0-1.0-9.0-0.20-2.20,0,0,44,,,,,,,,,,,,,,,,,,,,,,,,,,,,,,,,,,,,,,141.5,3.5,,,,,,
123,,no_response,,html-keyboard-response,123,502937,0.0-1.0-9.0-0.20-4.20-0.20,1,0,44,,,,,,,,,,,,,,,,,,,,,,,,,,,,,,,,,,,,,,142.5,1.0,,,,,,
124,,iti,,html-keyboard-response,124,511224,0.0-1.0-9.0-0.20-5.20,0,0,44,,,,,,,,,,,,,,,,,,,,,,,,,,,,,,,,,,,,,,145.5,3.0,,,,,,
125,,choice,,html-keyboard-response,125,523600,0.0-1.0-9.0-0.21-0.21,0,0,44,,,,,,7.0,307.0,3500.0,1500.0,0.0,6.0,0.0,60-80,,1.0,train,nail polish,80.0,60.0,train10,nail polish10,100.0,80.0,train3.jpg,NLM23_opi_nail_polish.jpg,/static/Category_learning/Stimuli/Experimental_stims/train/train3.jpg,/static/Category_learning/Stimuli/Experimental_stims/nail polish/NLM23_opi_nail_polish.jpg,,,,,,,,,,1.0,147.0,1.5,,,,,,
126,,isi,,html-keyboard-response,126,540473,0.0-1.0-9.0-0.21-2.21,0,0,44,,,,,,,,,,,,,,,,,,,,,,,,,,,,,,,,,,,,,,150.5,3.5,,,,,,
127,,no_response,,html-keyboard-response,127,552987,0.0-1.0-9.0-0.21-4.21-0.21,1,0,44,,,,,,,,,,,,,,,,,,,,,,,,,,,,,,,,,,,,,,151.5,1.0,,,,,,
128,,iti,,html-keyboard-response,128,586732,0.0-1.0-9.0-0.21-5.21,0,0,44,,,,,,,,,,,,,,,,,,,,,,,,,,,,,,,,,,,,,,152.5,1.0,,,,,,
129,,choice,,html-keyboard-response,129,640697,0.0-1.0-9.0-0.22-0.22,0,0,44,,,,,,7.0,307.0,3500.0,1500.0,0.0,6.0,0.0,60-80,,1.0,train,nail polish,80.0,60.0,train10,nail polish10,100.0,80.0,train3.jpg,NLM23_opi_nail_polish.jpg,/static/Category_learning/Stimuli/Experimental_stims/train/train3.jpg,/static/Category_learning/Stimuli/Experimental_stims/nail polish/NLM23_opi_nail_polish.jpg,,,,,,,,,,1.0,154.0,1.5,,,,,,
130,,isi,,html-keyboard-response,130,679367,0.0-1.0-9.0-0.22-2.22,0,0,44,,,,,,,,,,,,,,,,,,,,,,,,,,,,,,,,,,,,,,155.0,1.0,,,,,,
131,,no_response,,html-keyboard-response,131,814355,0.0-1.0-9.0-0.22-4.22-0.22,1,0,44,,,,,,,,,,,,,,,,,,,,,,,,,,,,,,,,,,,,,,156.0,1.0,,,,,,
132,,iti,,html-keyboard-response,132,824721,0.0-1.0-9.0-0.22-5.22,0,0,44,,,,,,,,,,,,,,,,,,,,,,,,,,,,,,,,,,,,,,157.5,1.5,,,,,,
133,,choice,,html-keyboard-response,133,826226,0.0-1.0-9.0-0.23-0.23,0,0,44,,,,,,7.0,307.0,3500.0,1500.0,0.0,6.0,0.0,60-80,,1.0,train,nail polish,80.0,60.0,train10,nail polish10,100.0,80.0,train3.jpg,NLM23_opi_nail_polish.jpg,/static/Category_learning/Stimuli/Experimental_stims/train/train3.jpg,/static/Category_learning/Stimuli/Experimental_stims/nail polish/NLM23_opi_nail_polish.jpg,,,,,,,,,,1.0,159.0,1.5,,,,,,
134,,isi,,html-keyboard-response,134,826331,0.0-1.0-9.0-0.23-2.23,0,0,44,,,,,,,,,,,,,,,,,,,,,,,,,,,,,,,,,,,,,,161.0,2.0,,,,,,
135,,no_response,,html-keyboard-response,135,827335,0.0-1.0-9.0-0.23-4.23-0.23,1,0,44,,,,,,,,,,,,,,,,,,,,,,,,,,,,,,,,,,,,,,162.0,1.0,,,,,,
136,,iti,,html-keyboard-response,136,827452,0.0-1.0-9.0-0.23-5.23,0,0,44,,,,,,,,,,,,,,,,,,,,,,,,,,,,,,,,,,,,,,163.5,1.5,,,,,,
137,,choice,,html-keyboard-response,137,828958,0.0-1.0-9.0-0.24-0.24,0,0,44,,,,,,7.0,307.0,3500.0,1500.0,0.0,6.0,0.0,60-80,,1.0,train,nail polish,80.0,60.0,train10,nail polish10,100.0,80.0,train3.jpg,NLM23_opi_nail_polish.jpg,/static/Category_learning/Stimuli/Experimental_stims/train/train3.jpg,/static/Category_learning/Stimuli/Experimental_stims/nail polish/NLM23_opi_nail_polish.jpg,,,,,,,,,,1.0,165.0,1.5,,,,,,
138,,isi,,html-keyboard-response,138,829062,0.0-1.0-9.0-0.24-2.24,0,0,44,,,,,,,,,,,,,,,,,,,,,,,,,,,,,,,,,,,,,,166.0,1.0,,,,,,
139,,no_response,,html-keyboard-response,139,830064,0.0-1.0-9.0-0.24-4.24-0.24,1,0,44,,,,,,,,,,,,,,,,,,,,,,,,,,,,,,,,,,,,,,167.0,1.0,,,,,,
140,,iti,,html-keyboard-response,140,830179,0.0-1.0-9.0-0.24-5.24,0,0,44,,,,,,,,,,,,,,,,,,,,,,,,,,,,,,,,,,,,,,169.0,2.0,,,,,,
141,,choice,,html-keyboard-response,141,831688,0.0-1.0-9.0-0.25-0.25,0,0,44,,,,,,7.0,307.0,3500.0,1500.0,0.0,6.0,0.0,60-80,,1.0,train,nail polish,80.0,60.0,train10,nail polish10,100.0,80.0,train3.jpg,NLM23_opi_nail_polish.jpg,/static/Category_learning/Stimuli/Experimental_stims/train/train3.jpg,/static/Category_learning/Stimuli/Experimental_stims/nail polish/NLM23_opi_nail_polish.jpg,,,,,,,,,,1.0,170.5,1.5,,,,,,
142,,isi,,html-keyboard-response,142,831793,0.0-1.0-9.0-0.25-2.25,0,0,44,,,,,,,,,,,,,,,,,,,,,,,,,,,,,,,,,,,,,,171.5,1.0,,,,,,
143,,no_response,,html-keyboard-response,143,832797,0.0-1.0-9.0-0.25-4.25-0.25,1,0,44,,,,,,,,,,,,,,,,,,,,,,,,,,,,,,,,,,,,,,172.5,1.0,,,,,,
144,,iti,,html-keyboard-response,144,832914,0.0-1.0-9.0-0.25-5.25,0,0,44,,,,,,,,,,,,,,,,,,,,,,,,,,,,,,,,,,,,,,174.0,1.5,,,,,,
145,,choice,,html-keyboard-response,145,834419,0.0-1.0-9.0-0.26-0.26,0,0,44,,,,,,7.0,307.0,3500.0,1500.0,0.0,6.0,0.0,60-80,,1.0,train,nail polish,80.0,60.0,train10,nail polish10,100.0,80.0,train3.jpg,NLM23_opi_nail_polish.jpg,/static/Category_learning/Stimuli/Experimental_stims/train/train3.jpg,/static/Category_learning/Stimuli/Experimental_stims/nail polish/NLM23_opi_nail_polish.jpg,,,,,,,,,,1.0,175.5,1.5,,,,,,
146,,isi,,html-keyboard-response,146,834524,0.0-1.0-9.0-0.26-2.26,0,0,44,,,,,,,,,,,,,,,,,,,,,,,,,,,,,,,,,,,,,,177.5,2.0,,,,,,
147,,no_response,,html-keyboard-response,147,835527,0.0-1.0-9.0-0.26-4.26-0.26,1,0,44,,,,,,,,,,,,,,,,,,,,,,,,,,,,,,,,,,,,,,178.5,1.0,,,,,,
148,,iti,,html-keyboard-response,148,835642,0.0-1.0-9.0-0.26-5.26,0,0,44,,,,,,,,,,,,,,,,,,,,,,,,,,,,,,,,,,,,,,180.5,2.0,,,,,,
149,,choice,,html-keyboard-response,149,836644,0.0-1.0-9.0-0.27-0.27,0,0,44,,1000.0,,,50.0,7.0,307.0,3500.0,1500.0,0.0,6.0,0.0,60-80,,1.0,train,nail polish,80.0,60.0,train10,nail polish10,100.0,80.0,train3.jpg,NLM23_opi_nail_polish.jpg,/static/Category_learning/Stimuli/Experimental_stims/train/train3.jpg,/static/Category_learning/Stimuli/Experimental_stims/nail polish/NLM23_opi_nail_polish.jpg,1.0,train,nail polish,80.0,60.0,train10,nail polish10,100.0,80.0,0.0,181.5,1.0,,,,,,
150,,confirmation,,html-keyboard-response,150,837152,0.0-1.0-9.0-0.27-1.27-0.27,0,0,44,,,,,,7.0,,,,,,,,,,,,,,,,,,,,,,,,,,,,,,,,182.0,0.5,,,,,,
151,,isi,,html-keyboard-response,151,837256,0.0-1.0-9.0-0.27-2.27,0,0,44,,,,,,,,,,,,,,,,,,,,,,,,,,,,,,,,,,,,,,183.0,1.0,,,,,,
152,,feedback,,html-keyboard-response,152,838261,0.0-1.0-9.0-0.27-3.27-0.27,0,0,44,,,,,,7.0,,,,,,,,,,,,,,,,,,,,,,,,,,,,,,,,184.0,1.0,,,,,,
153,,iti,,html-keyboard-response,153,838367,0.0-1.0-9.0-0.27-5.27,0,0,44,,,,,,,,,,,,,,,,,,,,,,,,,,,,,,,,,,,,,,186.0,2.0,,,,,,
154,,choice,,html-keyboard-response,154,838581,0.0-1.0-10.0-0.0-0.0,0,0,44,,211.0,,,50.0,8.0,308.0,1000.0,2000.0,0.0,6.0,0.0,40-60,,1.0,sofa,key chain,60.0,40.0,sofa5,key chain12,60.0,40.0,ALOVSEA14.jpg,keychain.jpg,/static/Category_learning/Stimuli/Experimental_stims/sofa/ALOVSEA14.jpg,/static/Category_learning/Stimuli/Experimental_stims/key chain/keychain.jpg,1.0,sofa,key chain,60.0,40.0,sofa5,key chain12,60.0,40.0,0.0,186.211,0.211,,,,,,
155,,confirmation,,html-keyboard-response,155,839874,0.0-1.0-10.0-0.0-1.0-0.0,0,0,44,,,,,,8.0,,,,,,,,,,,,,,,,,,,,,,,,,,,,,,,,187.5,1.289,,,,,,
156,,isi,,html-keyboard-response,156,839977,0.0-1.0-10.0-0.0-2.0,0,0,44,,,,,,,,,,,,,,,,,,,,,,,,,,,,,,,,,,,,,,188.5,1.0,,,,,,
157,,feedback,,html-keyboard-response,157,840980,0.0-1.0-10.0-0.0-3.0-0.0,0,0,44,,,,,,8.0,,,,,,,,,,,,,,,,,,,,,,,,,,,,,,,,189.5,1.0,,,,,,
158,,iti,,html-keyboard-response,158,841086,0.0-1.0-10.0-0.0-5.0,0,0,44,,,,,,,,,,,,,,,,,,,,,,,,,,,,,,,,,,,,,,191.5,2.0,,,,,,
159,,choice,,html-keyboard-response,159,841279,0.0-1.0-11.0-0.0-0.0,0,0,44,,187.0,,,50.0,9.0,309.0,2000.0,3500.0,0.0,6.0,0.0,20-60,,0.0,bench,patio lounge chair,20.0,60.0,bench11,patio lounge chair11,40.0,80.0,22928468.thl.jpg,51830.jpg,/static/Category_learning/Stimuli/Experimental_stims/bench/22928468.thl.jpg,/static/Category_learning/Stimuli/Experimental_stims/patio lounge chair/51830.jpg,1.0,bench,patio lounge chair,20.0,60.0,bench11,patio lounge chair11,40.0,80.0,0.0,191.687,0.187,,,,,,
160,,confirmation,,html-keyboard-response,160,842596,0.0-1.0-11.0-0.0-1.0-0.0,0,0,44,,,,,,9.0,,,,,,,,,,,,,,,,,,,,,,,,,,,,,,,,193.0,1.313,,,,,,
161,,isi,,html-keyboard-response,161,842698,0.0-1.0-11.0-0.0-2.0,0,0,44,,,,,,,,,,,,,,,,,,,,,,,,,,,,,,,,,,,,,,195.0,2.0,,,,,,
162,,feedback,,html-keyboard-response,162,843703,0.0-1.0-11.0-0.0-3.0-0.0,0,0,44,,,,,,9.0,,,,,,,,,,,,,,,,,,,,,,,,,,,,,,,,196.0,1.0,,,,,,
163,,iti,,html-keyboard-response,163,843805,0.0-1.0-11.0-0.0-5.0,0,0,44,,,,,,,,,,,,,,,,,,,,,,,,,,,,,,,,,,,,,,199.5,3.5,,,,,,
164,,choice,,html-keyboard-response,164,844017,0.0-1.0-12.0-0.0-0.0,0,0,44,,208.0,,,50.0,10.0,310.0,1000.0,1000.0,0.0,6.0,1.0,20-40,0.0,,microscope,flashlight,40.0,20.0,microscope2,flashlight11,40.0,40.0,3090-b.jpg,new04.jpg,/static/Category_learning/Stimuli/Experimental_stims/microscope/3090-b.jpg,/static/Category_learning/Stimuli/Experimental_stims/flashlight/new04.jpg,1.0,microscope,flashlight,40.0,20.0,microscope2,flashlight11,40.0,40.0,0.0,199.708,0.208,,,,,,
165,,confirmation,,html-keyboard-response,165,845313,0.0-1.0-12.0-0.0-1.0-0.0,0,0,44,,,,,,10.0,,,,,,,,,,,,,,,,,,,,,,,,,,,,,,,,201.0,1.292,,,,,,
166,,isi,,html-keyboard-response,166,845415,0.0-1.0-12.0-0.0-2.0,0,0,44,,,,,,,,,,,,,,,,,,,,,,,,,,,,,,,,,,,,,,202.0,1.0,,,,,,
167,,feedback,,html-keyboard-response,167,846419,0.0-1.0-12.0-0.0-3.0-0.0,0,0,44,,,,,,10.0,,,,,,,,,,,,,,,,,,,,,,,,,,,,,,,,203.0,1.0,,,,,,
168,,iti,,html-keyboard-response,168,846522,0.0-1.0-12.0-0.0-5.0,0,0,44,,,,,,,,,,,,,,,,,,,,,,,,,,,,,,,,,,,,,,204.0,1.0,,,,,,
169,,choice,,html-keyboard-response,169,846679,0.0-1.0-13.0-0.0-0.0,0,0,44,,153.0,,,50.0,11.0,311.0,1500.0,2000.0,0.0,6.0,1.0,20-60,0.0,,bench,sofa,20.0,60.0,bench11,sofa5,40.0,60.0,22928468.thl.jpg,ALOVSEA14.jpg,/static/Category_learning/Stimuli/Experimental_stims/bench/22928468.thl.jpg,/static/Category_learning/Stimuli/Experimental_stims/sofa/ALOVSEA14.jpg,1.0,bench,sofa,20.0,60.0,bench11,sofa5,40.0,60.0,0.0,204.153,0.153,,,,,,
170,,confirmation,,html-keyboard-response,170,848030,0.0-1.0-13.0-0.0-1.0-0.0,0,0,44,,,,,,11.0,,,,,,,,,,,,,,,,,,,,,,,,,,,,,,,,205.5,1.347,,,,,,
171,,isi,,html-keyboard-response,171,848134,0.0-1.0-13.0-0.0-2.0,0,0,44,,,,,,,,,,,,,,,,,,,,,,,,,,,,,,,,,,,,,,207.0,1.5,,,,,,
172,,feedback,,html-keyboard-response,172,849139,0.0-1.0-13.0-0.0-3.0-0.0,0,0,44,,,,,,11.0,,,,,,,,,,,,,,,,,,,,,,,,,,,,,,,,208.0,1.0,,,,,,
173,,iti,,html-keyboard-response,173,849243,0.0-1.0-13.0-0.0-5.0,0,0,44,,,,,,,,,,,,,,,,,,,,,,,,,,,,,,,,,,,,,,210.0,2.0,,,,,,
174,,choice,,html-keyboard-response,174,849540,0.0-1.0-14.0-0.0-0.0,0,0,44,,294.0,,,50.0,12.0,312.0,1500.0,1000.0,0.0,6.0,0.0,40-60,,0.0,key chain,necklace,40.0,60.0,key chain6,necklace1,40.0,80.0,highboy_keychain_ItemCA75384.jpg,26443173.thl.jpg,/static/Category_learning/Stimuli/Experimental_stims/key chain/highboy_keychain_ItemCA75384.jpg,/static/Category_learning/Stimuli/Experimental_stims/necklace/26443173.thl.jpg,1.0,key chain,necklace,40.0,60.0,key chain6,necklace1,40.0,80.0,0.0,210.294,0.294,,,,,,
175,,confirmation,,html-keyboard-response,175,850751,0.0-1.0-14.0-0.0-1.0-0.0,0,0,44,,,,,,12.0,,,,,,,,,,,,,,,,,,,,,,,,,,,,,,,,211.5,1.206,,,,,,
176,,isi,,html-keyboard-response,176,850855,0.0-1.0-14.0-0.0-2.0,0,0,44,,,,,,,,,,,,,,,,,,,,,,,,,,,,,,,,,,,,,,213.0,1.5,,,,,,
177,,feedback,,html-keyboard-response,177,851859,0.0-1.0-14.0-0.0-3.0-0.0,0,0,44,,,,,,12.0,,,,,,,,,,,,,,,,,,,,,,,,,,,,,,,,214.0,1.0,,,,,,
178,,iti,,html-keyboard-response,178,851963,0.0-1.0-14.0-0.0-5.0,0,0,44,,,,,,,,,,,,,,,,,,,,,,,,,,,,,,,,,,,,,,215.0,1.0,,,,,,
179,,choice,,html-keyboard-response,179,852396,0.0-1.0-15.0-0.0-0.0,0,0,44,,427.0,,,50.0,13.0,313.0,1000.0,1500.0,0.0,6.0,0.0,40-80,,1.0,tent,microscope,80.0,40.0,tent5,microscope10,100.0,20.0,Dome Tentnb87r67.jpg,DS-2.jpg,/static/Category_learning/Stimuli/Experimental_stims/tent/Dome Tentnb87r67.jpg,/static/Category_learning/Stimuli/Experimental_stims/microscope/DS-2.jpg,1.0,tent,microscope,80.0,40.0,tent5,microscope10,100.0,20.0,0.0,215.427,0.427,,,,,,
180,,confirmation,,html-keyboard-response,180,853473,0.0-1.0-15.0-0.0-1.0-0.0,0,0,44,,,,,,13.0,,,,,,,,,,,,,,,,,,,,,,,,,,,,,,,,216.5,1.073,,,,,,
181,,isi,,html-keyboard-response,181,853579,0.0-1.0-15.0-0.0-2.0,0,0,44,,,,,,,,,,,,,,,,,,,,,,,,,,,,,,,,,,,,,,217.5,1.0,,,,,,
182,,feedback,,html-keyboard-response,182,854583,0.0-1.0-15.0-0.0-3.0-0.0,0,0,44,,,,,,13.0,,,,,,,,,,,,,,,,,,,,,,,,,,,,,,,,218.5,1.0,,,,,,
183,,iti,,html-keyboard-response,183,854685,0.0-1.0-15.0-0.0-5.0,0,0,44,,,,,,,,,,,,,,,,,,,,,,,,,,,,,,,,,,,,,,220.0,1.5,,,,,,
184,,choice,,html-keyboard-response,184,855047,0.0-1.0-16.0-0.0-0.0,0,0,44,,356.0,,,50.0,14.0,314.0,1000.0,1500.0,0.0,6.0,0.0,60-80,,1.0,tape,poker card,80.0,60.0,tape14,poker card1,60.0,40.0,922544.jpg,22864704.thl.jpg,/static/Category_learning/Stimuli/Experimental_stims/tape/922544.jpg,/static/Category_learning/Stimuli/Experimental_stims/poker card/22864704.thl.jpg,1.0,tape,poker card,80.0,60.0,tape14,poker card1,60.0,40.0,0.0,220.356,0.356,,,,,,
185,,confirmation,,html-keyboard-response,185,856197,0.0-1.0-16.0-0.0-1.0-0.0,0,0,44,,,,,,14.0,,,,,,,,,,,,,,,,,,,,,,,,,,,,,,,,221.5,1.144,,,,,,
186,,isi,,html-keyboard-response,186,856299,0.0-1.0-16.0-0.0-2.0,0,0,44,,,,,,,,,,,,,,,,,,,,,,,,,,,,,,,,,,,,,,222.5,1.0,,,,,,
187,,feedback,,html-keyboard-response,187,857303,0.0-1.0-16.0-0.0-3.0-0.0,0,0,44,,,,,,14.0,,,,,,,,,,,,,,,,,,,,,,,,,,,,,,,,223.5,1.0,,,,,,
188,,iti,,html-keyboard-response,188,857407,0.0-1.0-16.0-0.0-5.0,0,0,44,,,,,,,,,,,,,,,,,,,,,,,,,,,,,,,,,,,,,,225.0,1.5,,,,,,
189,,choice,,html-keyboard-response,189,857484,0.0-1.0-17.0-0.0-0.0,0,0,44,,73.0,,,50.0,15.0,315.0,1000.0,1000.0,0.0,6.0,0.0,60-60,,,small table,seashell,60.0,60.0,small table2,seashell8,60.0,40.0,Atable126.jpg,ASEASHEL9.jpg,/static/Category_learning/Stimuli/Experimental_stims/small table/Atable126.jpg,/static/Category_learning/Stimuli/Experimental_stims/seashell/ASEASHEL9.jpg,1.0,small table,seashell,60.0,60.0,small table2,seashell8,60.0,40.0,0.0,225.073,0.073,,,,,,
190,,confirmation,,html-keyboard-response,190,858916,0.0-1.0-17.0-0.0-1.0-0.0,0,0,44,,,,,,15.0,,,,,,,,,,,,,,,,,,,,,,,,,,,,,,,,226.5,1.427,,,,,,
191,,isi,,html-keyboard-response,191,859021,0.0-1.0-17.0-0.0-2.0,0,0,44,,,,,,,,,,,,,,,,,,,,,,,,,,,,,,,,,,,,,,227.5,1.0,,,,,,
192,,feedback,,html-keyboard-response,192,860024,0.0-1.0-17.0-0.0-3.0-0.0,0,0,44,,,,,,15.0,,,,,,,,,,,,,,,,,,,,,,,,,,,,,,,,228.5,1.0,,,,,,
193,,iti,,html-keyboard-response,193,860128,0.0-1.0-17.0-0.0-5.0,0,0,44,,,,,,,,,,,,,,,,,,,,,,,,,,,,,,,,,,,,,,229.5,1.0,,,,,,
194,,choice,,html-keyboard-response,194,861322,0.0-1.0-18.0-0.0-0.0,0,0,44,,1190.0,,,50.0,16.0,316.0,1500.0,1000.0,0.0,6.0,1.0,40-80,0.0,,key chain,tent,40.0,80.0,key chain6,tent5,40.0,100.0,highboy_keychain_ItemCA75384.jpg,Dome Tentnb87r67.jpg,/static/Category_learning/Stimuli/Experimental_stims/key chain/highboy_keychain_ItemCA75384.jpg,/static/Category_learning/Stimuli/Experimental_stims/tent/Dome Tentnb87r67.jpg,1.0,key chain,tent,40.0,80.0,key chain6,tent5,40.0,100.0,0.0,230.69,1.19,,,,,,
195,,confirmation,,html-keyboard-response,195,861638,0.0-1.0-18.0-0.0-1.0-0.0,0,0,44,,,,,,16.0,,,,,,,,,,,,,,,,,,,,,,,,,,,,,,,,231.0,0.31,,,,,,
196,,isi,,html-keyboard-response,196,861742,0.0-1.0-18.0-0.0-2.0,0,0,44,,,,,,,,,,,,,,,,,,,,,,,,,,,,,,,,,,,,,,232.5,1.5,,,,,,
197,,feedback,,html-keyboard-response,197,862746,0.0-1.0-18.0-0.0-3.0-0.0,0,0,44,,,,,,16.0,,,,,,,,,,,,,,,,,,,,,,,,,,,,,,,,233.5,1.0,,,,,,
198,,iti,,html-keyboard-response,198,862849,0.0-1.0-18.0-0.0-5.0,0,0,44,,,,,,,,,,,,,,,,,,,,,,,,,,,,,,,,,,,,,,234.5,1.0,,,,,,
199,,choice,,html-keyboard-response,199,863613,0.0-1.0-19.0-0.0-0.0,0,0,44,,761.0,,,50.0,17.0,317.0,2000.0,2000.0,0.0,6.0,0.0,20-60,,1.0,nail polish,bowl,60.0,20.0,nail polish7,bowl10,40.0,0.0,117BDAkbo5L._AA160_.jpg,Abowl50.jpg,/static/Category_learning/Stimuli/Experimental_stims/nail polish/117BDAkbo5L._AA160_.jpg,/static/Category_learning/Stimuli/Experimental_stims/bowl/Abowl50.jpg,1.0,nail polish,bowl,60.0,20.0,nail polish7,bowl10,40.0,0.0,0.0,235.261,0.761,,,,,,
200,,confirmation,,html-keyboard-response,200,864357,0.0-1.0-19.0-0.0-1.0-0.0,0,0,44,,,,,,17.0,,,,,,,,,,,,,,,,,,,,,,,,,,,,,,,,236.0,0.739,,,,,,
201,,isi,,html-keyboard-response,201,864462,0.0-1.0-19.0-0.0-2.0,0,0,44,,,,,,,,,,,,,,,,,,,,,,,,,,,,,,,,,,,,,,238.0,2.0,,,,,,
202,,feedback,,html-keyboard-response,202,865465,0.0-1.0-19.0-0.0-3.0-0.0,0,0,44,,,,,,17.0,,,,,,,,,,,,,,,,,,,,,,,,,,,,,,,,239.0,1.0,,,,,,
203,,iti,,html-keyboard-response,203,865568,0.0-1.0-19.0-0.0-5.0,0,0,44,,,,,,,,,,,,,,,,,,,,,,,,,,,,,,,,,,,,,,241.0,2.0,,,,,,
204,,choice,,html-keyboard-response,204,867072,0.0-1.0-20.0-0.0-0.0,0,0,44,,,,,,18.0,318.0,1000.0,1000.0,0.0,6.0,0.0,20-80,,1.0,trumpet,flashlight,80.0,20.0,trumpet4,flashlight13,60.0,0.0,JUPITER+JTR1000S.jpg,834808_sk_lg.jpg,/static/Category_learning/Stimuli/Experimental_stims/trumpet/JUPITER+JTR1000S.jpg,/static/Category_learning/Stimuli/Experimental_stims/flashlight/834808_sk_lg.jpg,,,,,,,,,,1.0,242.5,1.5,,,,,,
205,,isi,,html-keyboard-response,205,867178,0.0-1.0-20.0-0.0-2.0,0,0,44,,,,,,,,,,,,,,,,,,,,,,,,,,,,,,,,,,,,,,243.5,1.0,,,,,,
206,,no_response,,html-keyboard-response,206,868182,0.0-1.0-20.0-0.0-4.0-0.0,1,0,44,,,,,,,,,,,,,,,,,,,,,,,,,,,,,,,,,,,,,,244.5,1.0,,,,,,
207,,iti,,html-keyboard-response,207,868298,0.0-1.0-20.0-0.0-5.0,0,0,44,,,,,,,,,,,,,,,,,,,,,,,,,,,,,,,,,,,,,,245.5,1.0,,,,,,
208,,choice,,html-keyboard-response,208,869770,0.0-1.0-20.0-0.1-0.1,0,0,44,,1470.0,,,50.0,18.0,318.0,1000.0,1000.0,0.0,6.0,0.0,20-80,,1.0,trumpet,flashlight,80.0,20.0,trumpet4,flashlight13,60.0,0.0,JUPITER+JTR1000S.jpg,834808_sk_lg.jpg,/static/Category_learning/Stimuli/Experimental_stims/trumpet/JUPITER+JTR1000S.jpg,/static/Category_learning/Stimuli/Experimental_stims/flashlight/834808_sk_lg.jpg,1.0,trumpet,flashlight,80.0,20.0,trumpet4,flashlight13,60.0,0.0,0.0,246.97,1.47,,,,,,
209,,confirmation,,html-keyboard-response,209,869804,0.0-1.0-20.0-0.1-1.1-0.1,0,0,44,,,,,,18.0,,,,,,,,,,,,,,,,,,,,,,,,,,,,,,,,247.0,0.03,,,,,,
210,,isi,,html-keyboard-response,210,869907,0.0-1.0-20.0-0.1-2.1,0,0,44,,,,,,,,,,,,,,,,,,,,,,,,,,,,,,,,,,,,,,248.5,1.5,,,,,,
211,,feedback,,html-keyboard-response,211,870910,0.0-1.0-20.0-0.1-3.1-0.1,0,0,44,,,,,,18.0,,,,,,,,,,,,,,,,,,,,,,,,,,,,,,,,249.5,1.0,,,,,,
212,,iti,,html-keyboard-response,212,871015,0.0-1.0-20.0-0.1-5.1,0,0,44,,,,,,,,,,,,,,,,,,,,,,,,,,,,,,,,,,,,,,250.5,1.0,,,,,,
213,,choice,,html-keyboard-response,213,872521,0.0-1.0-21.0-0.0-0.0,0,0,44,,,,,,19.0,319.0,1000.0,2000.0,0.0,6.0,0.0,80-80,,,vase,telescope,80.0,80.0,vase8,telescope10,60.0,100.0,Avase171.jpg,digimarc.ms02.jpg,/static/Category_learning/Stimuli/Experimental_stims/vase/Avase171.jpg,/static/Category_learning/Stimuli/Experimental_stims/telescope/digimarc.ms02.jpg,,,,,,,,,,1.0,252.0,1.5,,,,,,
214,,isi,,html-keyboard-response,214,872624,0.0-1.0-21.0-0.0-2.0,0,0,44,,,,,,,,,,,,,,,,,,,,,,,,,,,,,,,,,,,,,,253.0,1.0,,,,,,
215,,no_response,,html-keyboard-response,215,873627,0.0-1.0-21.0-0.0-4.0-0.0,1,0,44,,,,,,,,,,,,,,,,,,,,,,,,,,,,,,,,,,,,,,254.0,1.0,,,,,,
216,,iti,,html-keyboard-response,216,873744,0.0-1.0-21.0-0.0-5.0,0,0,44,,,,,,,,,,,,,,,,,,,,,,,,,,,,,,,,,,,,,,256.0,2.0,,,,,,
217,,choice,,html-keyboard-response,217,874054,0.0-1.0-21.0-0.1-0.1,0,0,44,,306.0,,,50.0,19.0,319.0,1000.0,2000.0,0.0,6.0,0.0,80-80,,,vase,telescope,80.0,80.0,vase8,telescope10,60.0,100.0,Avase171.jpg,digimarc.ms02.jpg,/static/Category_learning/Stimuli/Experimental_stims/vase/Avase171.jpg,/static/Category_learning/Stimuli/Experimental_stims/telescope/digimarc.ms02.jpg,1.0,vase,telescope,80.0,80.0,vase8,telescope10,60.0,100.0,0.0,256.306,0.306,,,,,,
218,,confirmation,,html-keyboard-response,218,875252,0.0-1.0-21.0-0.1-1.1-0.1,0,0,44,,,,,,19.0,,,,,,,,,,,,,,,,,,,,,,,,,,,,,,,,257.5,1.194,,,,,,
219,,isi,,html-keyboard-response,219,875355,0.0-1.0-21.0-0.1-2.1,0,0,44,,,,,,,,,,,,,,,,,,,,,,,,,,,,,,,,,,,,,,259.5,2.0,,,,,,
220,,feedback,,html-keyboard-response,220,876359,0.0-1.0-21.0-0.1-3.1-0.1,0,0,44,,,,,,19.0,,,,,,,,,,,,,,,,,,,,,,,,,,,,,,,,260.5,1.0,,,,,,
221,,iti,,html-keyboard-response,221,876462,0.0-1.0-21.0-0.1-5.1,0,0,44,,,,,,,,,,,,,,,,,,,,,,,,,,,,,,,,,,,,,,261.5,1.0,,,,,,
222,,choice,,html-keyboard-response,222,876770,0.0-1.0-22.0-0.0-0.0,0,0,44,,306.0,,,50.0,20.0,320.0,1000.0,1000.0,0.0,6.0,0.0,40-80,,0.0,frame,telescope,40.0,80.0,frame15,telescope2,20.0,100.0,AFRAME13.jpg,Brass-telescope-60700.jpg,/static/Category_learning/Stimuli/Experimental_stims/frame/AFRAME13.jpg,/static/Category_learning/Stimuli/Experimental_stims/telescope/Brass-telescope-60700.jpg,1.0,frame,telescope,40.0,80.0,frame15,telescope2,20.0,100.0,0.0,261.806,0.306,,,,,,
223,,confirmation,,html-keyboard-response,223,877967,0.0-1.0-22.0-0.0-1.0-0.0,0,0,44,,,,,,20.0,,,,,,,,,,,,,,,,,,,,,,,,,,,,,,,,263.0,1.194,,,,,,
224,,isi,,html-keyboard-response,224,878070,0.0-1.0-22.0-0.0-2.0,0,0,44,,,,,,,,,,,,,,,,,,,,,,,,,,,,,,,,,,,,,,264.0,1.0,,,,,,
225,,feedback,,html-keyboard-response,225,879075,0.0-1.0-22.0-0.0-3.0-0.0,0,0,44,,,,,,20.0,,,,,,,,,,,,,,,,,,,,,,,,,,,,,,,,265.0,1.0,,,,,,
226,,iti,,html-keyboard-response,226,879179,0.0-1.0-22.0-0.0-5.0,0,0,44,,,,,,,,,,,,,,,,,,,,,,,,,,,,,,,,,,,,,,266.0,1.0,,,,,,
227,,choice,,html-keyboard-response,227,880386,0.0-1.0-23.0-0.0-0.0,0,0,44,,1202.0,,,50.0,21.0,321.0,1500.0,1500.0,0.0,6.0,0.0,40-40,,,license plate,makeup compact,40.0,40.0,license plate15,makeup compact14,40.0,60.0,hi-hwr-837.jpg,262597_fpx.jpg,/static/Category_learning/Stimuli/Experimental_stims/license plate/hi-hwr-837.jpg,/static/Category_learning/Stimuli/Experimental_stims/makeup compact/262597_fpx.jpg,1.0,license plate,makeup compact,40.0,40.0,license plate15,makeup compact14,40.0,60.0,0.0,267.202,1.202,,,,,,
228,,confirmation,,html-keyboard-response,228,880688,0.0-1.0-23.0-0.0-1.0-0.0,0,0,44,,,,,,21.0,,,,,,,,,,,,,,,,,,,,,,,,,,,,,,,,267.5,0.298,,,,,,
229,,isi,,html-keyboard-response,229,880793,0.0-1.0-23.0-0.0-2.0,0,0,44,,,,,,,,,,,,,,,,,,,,,,,,,,,,,,,,,,,,,,269.0,1.5,,,,,,
230,,feedback,,html-keyboard-response,230,881798,0.0-1.0-23.0-0.0-3.0-0.0,0,0,44,,,,,,21.0,,,,,,,,,,,,,,,,,,,,,,,,,,,,,,,,270.0,1.0,,,,,,
231,,iti,,html-keyboard-response,231,881902,0.0-1.0-23.0-0.0-5.0,0,0,44,,,,,,,,,,,,,,,,,,,,,,,,,,,,,,,,,,,,,,271.5,1.5,,,,,,
232,,choice,,html-keyboard-response,232,882062,0.0-1.0-24.0-0.0-0.0,0,0,44,,155.0,,,50.0,22.0,322.0,3500.0,1500.0,0.0,6.0,0.0,20-40,,1.0,hat,baby carriage,40.0,20.0,hat15,baby carriage7,40.0,0.0,AFISHHAT2.jpg,26423282.thl.jpg,/static/Category_learning/Stimuli/Experimental_stims/hat/AFISHHAT2.jpg,/static/Category_learning/Stimuli/Experimental_stims/baby carriage/26423282.thl.jpg,1.0,hat,baby carriage,40.0,20.0,hat15,baby carriage7,40.0,0.0,0.0,271.655,0.155,,,,,,
233,,confirmation,,html-keyboard-response,233,883414,0.0-1.0-24.0-0.0-1.0-0.0,0,0,44,,,,,,22.0,,,,,,,,,,,,,,,,,,,,,,,,,,,,,,,,273.0,1.345,,,,,,
234,,isi,,html-keyboard-response,234,883517,0.0-1.0-24.0-0.0-2.0,0,0,44,,,,,,,,,,,,,,,,,,,,,,,,,,,,,,,,,,,,,,276.5,3.5,,,,,,
235,,feedback,,html-keyboard-response,235,884521,0.0-1.0-24.0-0.0-3.0-0.0,0,0,44,,,,,,22.0,,,,,,,,,,,,,,,,,,,,,,,,,,,,,,,,277.5,1.0,,,,,,
236,,iti,,html-keyboard-response,236,884625,0.0-1.0-24.0-0.0-5.0,0,0,44,,,,,,,,,,,,,,,,,,,,,,,,,,,,,,,,,,,,,,279.0,1.5,,,,,,
237,,choice,,html-keyboard-response,237,884914,0.0-1.0-25.0-0.0-0.0,0,0,44,,287.0,,,50.0,23.0,323.0,3000.0,1000.0,0.0,6.0,0.0,20-60,,0.0,desk,nail polish,20.0,60.0,desk13,nail polish13,0.0,80.0,26427865.thl.jpg,31cR10fzlML._AA280_.jpg,/static/Category_learning/Stimuli/Experimental_stims/desk/26427865.thl.jpg,/static/Category_learning/Stimuli/Experimental_stims/nail polish/31cR10fzlML._AA280_.jpg,1.0,desk,nail polish,20.0,60.0,desk13,nail polish13,0.0,80.0,0.0,279.287,0.287,,,,,,
238,,confirmation,,html-keyboard-response,238,886131,0.0-1.0-25.0-0.0-1.0-0.0,0,0,44,,,,,,23.0,,,,,,,,,,,,,,,,,,,,,,,,,,,,,,,,280.5,1.213,,,,,,
239,,isi,,html-keyboard-response,239,886237,0.0-1.0-25.0-0.0-2.0,0,0,44,,,,,,,,,,,,,,,,,,,,,,,,,,,,,,,,,,,,,,283.5,3.0,,,,,,
240,,feedback,,html-keyboard-response,240,887242,0.0-1.0-25.0-0.0-3.0-0.0,0,0,44,,,,,,23.0,,,,,,,,,,,,,,,,,,,,,,,,,,,,,,,,284.5,1.0,,,,,,
241,,iti,,html-keyboard-response,241,887345,0.0-1.0-25.0-0.0-5.0,0,0,44,,,,,,,,,,,,,,,,,,,,,,,,,,,,,,,,,,,,,,285.5,1.0,,,,,,
242,,choice,,html-keyboard-response,242,888524,0.0-1.0-26.0-0.0-0.0,0,0,44,,1175.0,,,50.0,24.0,324.0,1000.0,1000.0,0.0,6.0,1.0,40-60,0.0,,frame,nail polish,40.0,60.0,frame15,nail polish7,20.0,40.0,AFRAME13.jpg,117BDAkbo5L._AA160_.jpg,/static/Category_learning/Stimuli/Experimental_stims/frame/AFRAME13.jpg,/static/Category_learning/Stimuli/Experimental_stims/nail polish/117BDAkbo5L._AA160_.jpg,1.0,frame,nail polish,40.0,60.0,frame15,nail polish7,20.0,40.0,0.0,286.675,1.175,,,,,,
243,,confirmation,,html-keyboard-response,243,888852,0.0-1.0-26.0-0.0-1.0-0.0,0,0,44,,,,,,24.0,,,,,,,,,,,,,,,,,,,,,,,,,,,,,,,,287.0,0.325,,,,,,
244,,isi,,html-keyboard-response,244,888957,0.0-1.0-26.0-0.0-2.0,0,0,44,,,,,,,,,,,,,,,,,,,,,,,,,,,,,,,,,,,,,,288.0,1.0,,,,,,
245,,feedback,,html-keyboard-response,245,889963,0.0-1.0-26.0-0.0-3.0-0.0,0,0,44,,,,,,24.0,,,,,,,,,,,,,,,,,,,,,,,,,,,,,,,,289.0,1.0,,,,,,
246,,iti,,html-keyboard-response,246,890066,0.0-1.0-26.0-0.0-5.0,0,0,44,,,,,,,,,,,,,,,,,,,,,,,,,,,,,,,,,,,,,,290.0,1.0,,,,,,
247,,choice,,html-keyboard-response,247,890073,0.0-1.0-27.0-0.0-0.0,0,0,44,,5.0,,,50.0,25.0,325.0,1500.0,1000.0,0.0,6.0,0.0,40-60,,1.0,necklace,hammer,60.0,40.0,necklace14,hammer10,80.0,20.0,necklascenew05.jpg,Tabla Hammer.JPG,/static/Category_learning/Stimuli/Experimental_stims/necklace/necklascenew05.jpg,/static/Category_learning/Stimuli/Experimental_stims/hammer/Tabla Hammer.JPG,1.0,necklace,hammer,60.0,40.0,necklace14,hammer10,80.0,20.0,0.0,290.005,0.005,,,,,,
248,,confirmation,,html-keyboard-response,248,891571,0.0-1.0-27.0-0.0-1.0-0.0,0,0,44,,,,,,25.0,,,,,,,,,,,,,,,,,,,,,,,,,,,,,,,,291.5,1.495,,,,,,
249,,isi,,html-keyboard-response,249,891675,0.0-1.0-27.0-0.0-2.0,0,0,44,,,,,,,,,,,,,,,,,,,,,,,,,,,,,,,,,,,,,,293.0,1.5,,,,,,
250,,feedback,,html-keyboard-response,250,892681,0.0-1.0-27.0-0.0-3.0-0.0,0,0,44,,,,,,25.0,,,,,,,,,,,,,,,,,,,,,,,,,,,,,,,,294.0,1.0,,,,,,
251,,iti,,html-keyboard-response,251,892784,0.0-1.0-27.0-0.0-5.0,0,0,44,,,,,,,,,,,,,,,,,,,,,,,,,,,,,,,,,,,,,,295.0,1.0,,,,,,
252,,choice,,html-keyboard-response,252,892905,0.0-1.0-28.0-0.0-0.0,0,0,44,,118.0,,,50.0,26.0,326.0,1500.0,1500.0,0.0,6.0,1.0,20-40,0.0,,license plate,desk,40.0,20.0,license plate15,desk13,40.0,0.0,hi-hwr-837.jpg,26427865.thl.jpg,/static/Category_learning/Stimuli/Experimental_stims/license plate/hi-hwr-837.jpg,/static/Category_learning/Stimuli/Experimental_stims/desk/26427865.thl.jpg,1.0,license plate,desk,40.0,20.0,license plate15,desk13,40.0,0.0,0.0,295.118,0.118,,,,,,
253,,confirmation,,html-keyboard-response,253,894293,0.0-1.0-28.0-0.0-1.0-0.0,0,0,44,,,,,,26.0,,,,,,,,,,,,,,,,,,,,,,,,,,,,,,,,296.5,1.382,,,,,,
254,,isi,,html-keyboard-response,254,894397,0.0-1.0-28.0-0.0-2.0,0,0,44,,,,,,,,,,,,,,,,,,,,,,,,,,,,,,,,,,,,,,298.0,1.5,,,,,,
255,,feedback,,html-keyboard-response,255,895401,0.0-1.0-28.0-0.0-3.0-0.0,0,0,44,,,,,,26.0,,,,,,,,,,,,,,,,,,,,,,,,,,,,,,,,299.0,1.0,,,,,,
256,,iti,,html-keyboard-response,256,895504,0.0-1.0-28.0-0.0-5.0,0,0,44,,,,,,,,,,,,,,,,,,,,,,,,,,,,,,,,,,,,,,300.5,1.5,,,,,,
257,,choice,,html-keyboard-response,257,896023,0.0-1.0-29.0-0.0-0.0,0,0,44,,516.0,,,50.0,27.0,327.0,1000.0,1500.0,0.0,6.0,0.0,20-80,,1.0,trumpet,bongo,80.0,20.0,trumpet8,bongo10,80.0,20.0,trumpet33.jpg,22945915.thl.jpg,/static/Category_learning/Stimuli/Experimental_stims/trumpet/trumpet33.jpg,/static/Category_learning/Stimuli/Experimental_stims/bongo/22945915.thl.jpg,1.0,trumpet,bongo,80.0,20.0,trumpet8,bongo10,80.0,20.0,0.0,301.016,0.516,,,,,,
258,,confirmation,,html-keyboard-response,258,897011,0.0-1.0-29.0-0.0-1.0-0.0,0,0,44,,,,,,27.0,,,,,,,,,,,,,,,,,,,,,,,,,,,,,,,,302.0,0.984,,,,,,
259,,isi,,html-keyboard-response,259,897115,0.0-1.0-29.0-0.0-2.0,0,0,44,,,,,,,,,,,,,,,,,,,,,,,,,,,,,,,,,,,,,,303.0,1.0,,,,,,
260,,feedback,,html-keyboard-response,260,898120,0.0-1.0-29.0-0.0-3.0-0.0,0,0,44,,,,,,27.0,,,,,,,,,,,,,,,,,,,,,,,,,,,,,,,,304.0,1.0,,,,,,
261,,iti,,html-keyboard-response,261,898223,0.0-1.0-29.0-0.0-5.0,0,0,44,,,,,,,,,,,,,,,,,,,,,,,,,,,,,,,,,,,,,,305.5,1.5,,,,,,
262,,choice,,html-keyboard-response,262,898554,0.0-1.0-30.0-0.0-0.0,0,0,44,,328.0,,,50.0,28.0,328.0,1000.0,2000.0,0.0,6.0,1.0,80-80,1.0,,trumpet,trumpet,80.0,80.0,trumpet4,trumpet8,60.0,80.0,JUPITER+JTR1000S.jpg,trumpet33.jpg,/static/Category_learning/Stimuli/Experimental_stims/trumpet/JUPITER+JTR1000S.jpg,/static/Category_learning/Stimuli/Experimental_stims/trumpet/trumpet33.jpg,1.0,trumpet,trumpet,80.0,80.0,trumpet4,trumpet8,60.0,80.0,0.0,305.828,0.328,,,,,,
263,,confirmation,,html-keyboard-response,263,899730,0.0-1.0-30.0-0.0-1.0-0.0,0,0,44,,,,,,28.0,,,,,,,,,,,,,,,,,,,,,,,,,,,,,,,,307.0,1.172,,,,,,
264,,isi,,html-keyboard-response,264,899833,0.0-1.0-30.0-0.0-2.0,0,0,44,,,,,,,,,,,,,,,,,,,,,,,,,,,,,,,,,,,,,,308.0,1.0,,,,,,
265,,feedback,,html-keyboard-response,265,900838,0.0-1.0-30.0-0.0-3.0-0.0,0,0,44,,,,,,28.0,,,,,,,,,,,,,,,,,,,,,,,,,,,,,,,,309.0,1.0,,,,,,
266,,iti,,html-keyboard-response,266,900941,0.0-1.0-30.0-0.0-5.0,0,0,44,,,,,,,,,,,,,,,,,,,,,,,,,,,,,,,,,,,,,,311.0,2.0,,,,,,
267,,choice,,html-keyboard-response,267,902447,0.0-1.0-31.0-0.0-0.0,0,0,44,,,,,,29.0,329.0,2000.0,1000.0,0.0,6.0,0.0,40-60,,0.0,motorcycle,small table,40.0,60.0,motorcycle4,small table15,20.0,40.0,motorcycle46.jpg,ATABLE20.jpg,/static/Category_learning/Stimuli/Experimental_stims/motorcycle/motorcycle46.jpg,/static/Category_learning/Stimuli/Experimental_stims/small table/ATABLE20.jpg,,,,,,,,,,1.0,312.5,1.5,,,,,,
268,,isi,,html-keyboard-response,268,902551,0.0-1.0-31.0-0.0-2.0,0,0,44,,,,,,,,,,,,,,,,,,,,,,,,,,,,,,,,,,,,,,314.5,2.0,,,,,,
269,,no_response,,html-keyboard-response,269,903555,0.0-1.0-31.0-0.0-4.0-0.0,1,0,44,,,,,,,,,,,,,,,,,,,,,,,,,,,,,,,,,,,,,,315.5,1.0,,,,,,
270,,iti,,html-keyboard-response,270,903673,0.0-1.0-31.0-0.0-5.0,0,0,44,,,,,,,,,,,,,,,,,,,,,,,,,,,,,,,,,,,,,,316.5,1.0,,,,,,
271,,choice,,html-keyboard-response,271,904065,0.0-1.0-31.0-0.1-0.1,0,0,44,,388.0,,,50.0,29.0,329.0,2000.0,1000.0,0.0,6.0,0.0,40-60,,0.0,motorcycle,small table,40.0,60.0,motorcycle4,small table15,20.0,40.0,motorcycle46.jpg,ATABLE20.jpg,/static/Category_learning/Stimuli/Experimental_stims/motorcycle/motorcycle46.jpg,/static/Category_learning/Stimuli/Experimental_stims/small table/ATABLE20.jpg,1.0,motorcycle,small table,40.0,60.0,motorcycle4,small table15,20.0,40.0,0.0,316.888,0.388,,,,,,
272,,confirmation,,html-keyboard-response,272,905182,0.0-1.0-31.0-0.1-1.1-0.1,0,0,44,,,,,,29.0,,,,,,,,,,,,,,,,,,,,,,,,,,,,,,,,318.0,1.112,,,,,,
273,,isi,,html-keyboard-response,273,905285,0.0-1.0-31.0-0.1-2.1,0,0,44,,,,,,,,,,,,,,,,,,,,,,,,,,,,,,,,,,,,,,319.0,1.0,,,,,,
274,,feedback,,html-keyboard-response,274,906289,0.0-1.0-31.0-0.1-3.1-0.1,0,0,44,,,,,,29.0,,,,,,,,,,,,,,,,,,,,,,,,,,,,,,,,320.0,1.0,,,,,,
275,,iti,,html-keyboard-response,275,906392,0.0-1.0-31.0-0.1-5.1,0,0,44,,,,,,,,,,,,,,,,,,,,,,,,,,,,,,,,,,,,,,321.0,1.0,,,,,,
276,,choice,,html-keyboard-response,276,906599,0.0-1.0-32.0-0.0-0.0,0,0,44,,204.0,,,50.0,30.0,330.0,1000.0,3500.0,0.0,6.0,0.0,40-80,,1.0,tape,hammer,80.0,40.0,tape2,hammer15,100.0,60.0,Tape_Dispenser.jpg,Vaughan-32-oz-Hickory-Handle-Ball-Pein-Hammer-S432-B0001LRUJM-L-ARCQ0EBO8TR73_.jpg,/static/Category_learning/Stimuli/Experimental_stims/tape/Tape_Dispenser.jpg,/static/Category_learning/Stimuli/Experimental_stims/hammer/Vaughan-32-oz-Hickory-Handle-Ball-Pein-Hammer-S432-B0001LRUJM-L-ARCQ0EBO8TR73_.jpg,1.0,tape,hammer,80.0,40.0,tape2,hammer15,100.0,60.0,0.0,321.204,0.204,,,,,,
277,,confirmation,,html-keyboard-response,277,907900,0.0-1.0-32.0-0.0-1.0-0.0,0,0,44,,,,,,30.0,,,,,,,,,,,,,,,,,,,,,,,,,,,,,,,,322.5,1.296,,,,,,
278,,isi,,html-keyboard-response,278,908003,0.0-1.0-32.0-0.0-2.0,0,0,44,,,,,,,,,,,,,,,,,,,,,,,,,,,,,,,,,,,,,,323.5,1.0,,,,,,
279,,feedback,,html-keyboard-response,279,909007,0.0-1.0-32.0-0.0-3.0-0.0,0,0,44,,,,,,30.0,,,,,,,,,,,,,,,,,,,,,,,,,,,,,,,,324.5,1.0,,,,,,
280,,iti,,html-keyboard-response,280,909111,0.0-1.0-32.0-0.0-5.0,0,0,44,,,,,,,,,,,,,,,,,,,,,,,,,,,,,,,,,,,,,,328.0,3.5,,,,,,
281,,choice,,html-keyboard-response,281,909465,0.0-1.0-33.0-0.0-0.0,0,0,44,,350.0,,,50.0,31.0,331.0,1000.0,1000.0,0.0,6.0,1.0,80-80,1.0,,tape,tape,80.0,80.0,tape2,tape14,100.0,60.0,Tape_Dispenser.jpg,922544.jpg,/static/Category_learning/Stimuli/Experimental_stims/tape/Tape_Dispenser.jpg,/static/Category_learning/Stimuli/Experimental_stims/tape/922544.jpg,1.0,tape,tape,80.0,80.0,tape2,tape14,100.0,60.0,0.0,328.35,0.35,,,,,,
282,,confirmation,,html-keyboard-response,282,910619,0.0-1.0-33.0-0.0-1.0-0.0,0,0,44,,,,,,31.0,,,,,,,,,,,,,,,,,,,,,,,,,,,,,,,,329.5,1.15,,,,,,
283,,isi,,html-keyboard-response,283,910721,0.0-1.0-33.0-0.0-2.0,0,0,44,,,,,,,,,,,,,,,,,,,,,,,,,,,,,,,,,,,,,,330.5,1.0,,,,,,
284,,feedback,,html-keyboard-response,284,911726,0.0-1.0-33.0-0.0-3.0-0.0,0,0,44,,,,,,31.0,,,,,,,,,,,,,,,,,,,,,,,,,,,,,,,,331.5,1.0,,,,,,
285,,iti,,html-keyboard-response,285,911829,0.0-1.0-33.0-0.0-5.0,0,0,44,,,,,,,,,,,,,,,,,,,,,,,,,,,,,,,,,,,,,,332.5,1.0,,,,,,
286,,choice,,html-keyboard-response,286,912735,0.0-1.0-34.0-0.0-0.0,0,0,44,,901.0,,,50.0,32.0,332.0,1500.0,3500.0,0.0,6.0,0.0,40-60,,0.0,key chain,poker card,40.0,60.0,key chain4,poker card3,20.0,40.0,Gumby_Green-Keychain.jpg,9817131.thl.jpg,/static/Category_learning/Stimuli/Experimental_stims/key chain/Gumby_Green-Keychain.jpg,/static/Category_learning/Stimuli/Experimental_stims/poker card/9817131.thl.jpg,1.0,key chain,poker card,40.0,60.0,key chain4,poker card3,20.0,40.0,0.0,333.401,0.901,,,,,,
287,,confirmation,,html-keyboard-response,287,913339,0.0-1.0-34.0-0.0-1.0-0.0,0,0,44,,,,,,32.0,,,,,,,,,,,,,,,,,,,,,,,,,,,,,,,,334.0,0.599,,,,,,
288,,isi,,html-keyboard-response,288,913441,0.0-1.0-34.0-0.0-2.0,0,0,44,,,,,,,,,,,,,,,,,,,,,,,,,,,,,,,,,,,,,,335.5,1.5,,,,,,
289,,feedback,,html-keyboard-response,289,914445,0.0-1.0-34.0-0.0-3.0-0.0,0,0,44,,,,,,32.0,,,,,,,,,,,,,,,,,,,,,,,,,,,,,,,,336.5,1.0,,,,,,
290,,iti,,html-keyboard-response,290,914548,0.0-1.0-34.0-0.0-5.0,0,0,44,,,,,,,,,,,,,,,,,,,,,,,,,,,,,,,,,,,,,,340.0,3.5,,,,,,
291,,choice,,html-keyboard-response,291,915896,0.0-1.0-35.0-0.0-0.0,0,0,44,,1344.0,,,50.0,33.0,333.0,1500.0,2000.0,0.0,6.0,1.0,60-80,0.0,,train,necklace,80.0,60.0,train10,necklace14,100.0,80.0,train3.jpg,necklascenew05.jpg,/static/Category_learning/Stimuli/Experimental_stims/train/train3.jpg,/static/Category_learning/Stimuli/Experimental_stims/necklace/necklascenew05.jpg,1.0,train,necklace,80.0,60.0,train10,necklace14,100.0,80.0,0.0,341.344,1.344,,,,,,
292,,confirmation,,html-keyboard-response,292,916055,0.0-1.0-35.0-0.0-1.0-0.0,0,0,44,,,,,,33.0,,,,,,,,,,,,,,,,,,,,,,,,,,,,,,,,341.5,0.156,,,,,,
293,,isi,,html-keyboard-response,293,916158,0.0-1.0-35.0-0.0-2.0,0,0,44,,,,,,,,,,,,,,,,,,,,,,,,,,,,,,,,,,,,,,343.0,1.5,,,,,,
294,,feedback,,html-keyboard-response,294,917164,0.0-1.0-35.0-0.0-3.0-0.0,0,0,44,,,,,,33.0,,,,,,,,,,,,,,,,,,,,,,,,,,,,,,,,344.0,1.0,,,,,,
295,,iti,,html-keyboard-response,295,917266,0.0-1.0-35.0-0.0-5.0,0,0,44,,,,,,,,,,,,,,,,,,,,,,,,,,,,,,,,,,,,,,346.0,2.0,,,,,,
296,,choice,,html-keyboard-response,296,917736,0.0-1.0-36.0-0.0-0.0,0,0,44,,467.0,,,50.0,34.0,334.0,1500.0,2000.0,0.0,6.0,0.0,80-80,,,telescope,trumpet,80.0,80.0,telescope8,trumpet6,80.0,60.0,p0006439g.jpg,JUP416S.JPG,/static/Category_learning/Stimuli/Experimental_stims/telescope/p0006439g.jpg,/static/Category_learning/Stimuli/Experimental_stims/trumpet/JUP416S.JPG,1.0,telescope,trumpet,80.0,80.0,telescope8,trumpet6,80.0,60.0,0.0,346.467,0.467,,,,,,
297,,confirmation,,html-keyboard-response,297,918773,0.0-1.0-36.0-0.0-1.0-0.0,0,0,44,,,,,,34.0,,,,,,,,,,,,,,,,,,,,,,,,,,,,,,,,347.5,1.033,,,,,,
298,,isi,,html-keyboard-response,298,918877,0.0-1.0-36.0-0.0-2.0,0,0,44,,,,,,,,,,,,,,,,,,,,,,,,,,,,,,,,,,,,,,349.0,1.5,,0.28,,,,
299,,final_tally,,html-keyboard-response,299,919182,0.0-2.0-0.0,0,0,44,,301.0,,,50.0,,,,,,,,,,,,,,,,,,,,,,,,,,,,,,,,,,,,,,,,
