,success,ttype,start_time,trial_type,trial_index,time_elapsed,internal_node_id,warning,missed_checkup,PID,view_history,rt,responses,repeat_instructions,key_press,index,trial_num,isi,iti,is_practice,block,old_trial,pair_type,within_category,high_cat_on_left,left_category,right_category,left_category_value,right_category_value,left_exemplar,right_exemplar,left_exemplar_value,right_exemplar_value,left_img,right_img,left_img_path,right_img_path,left_chosen,chosen_category,unchosen_category,chosen_category_value,unchosen_category_value,chosen_exemplar,unchosen_exemplar,chosen_exemplar_value,unchosen_exemplar_value,no_response,onset,duration,end_practice,total_bonus_tally
0,True,full_screen,d05272022hr1557,fullscreen,0,8167,0.0-0.0,0,0,95248,,,,,,,,,,,,,,,,,,,,,,,,,,,,,,,,,,,,,,,,,
1,,category_learning_instructions,,instructions,1,80435,0.0-1.0-0.0-0.0,0,0,95248,"[{""page_index"":0,""viewing_time"":5339},{""page_index"":1,""viewing_time"":4208},{""page_index"":0,""viewing_time"":1294},{""page_index"":1,""viewing_time"":11222},{""page_index"":2,""viewing_time"":15740},{""page_index"":3,""viewing_time"":16142},{""page_index"":4,""viewing_time"":10452},{""page_index"":5,""viewing_time"":3898},{""page_index"":6,""viewing_time"":3971}]",72266.0,,,,,,,,,,,,,,,,,,,,,,,,,,,,,,,,,,,,,,,
2,,category_learning_comprehension_check,,survey-multi-choice,2,97941,0.0-1.0-0.0-1.0,0,0,95248,,17501.0,"{""Q0"":""True"",""Q1"":""True"",""Q2"":""Stay the same"",""Q3"":""D for left and K for right""}",0.0,,,,,,,,,,,,,,,,,,,,,,,,,,,,,,,,,,,,,
3,,,,html-keyboard-response,3,99587,0.0-1.0-1.0,0,0,95248,,1638.0,,,68.0,,,,,,,,,,,,,,,,,,,,,,,,,,,,,,,,,,,,
4,,choice,,html-keyboard-response,4,100328,0.0-1.0-2.0-0.0-0.0,0,0,95248,,737.0,,,68.0,0.0,0.0,1500.0,1000.0,1.0,0.0,0.0,20-80,,0.0,bagel,dumbbell,20.0,80.0,bagel1,dumbbell1,0.0,80.0,bagels_pumpernickel_large.jpg,31B64EN68AL._AA280_.jpg,/static/Category_learning/Stimuli/Practice_stims/bagel/bagels_pumpernickel_large.jpg,/static/Category_learning/Stimuli/Practice_stims/dumbbell/31B64EN68AL._AA280_.jpg,1.0,bagel,dumbbell,20.0,80.0,bagel1,dumbbell1,0.0,80.0,0.0,0.737,0.737,,
5,,confirmation,,html-keyboard-response,5,101098,0.0-1.0-2.0-0.0-1.0-0.0,0,0,95248,,,,,,0.0,,,,,,,,,,,,,,,,,,,,,,,,,,,,,,,,1.5,0.763,,
6,,isi,,html-keyboard-response,6,102601,0.0-1.0-2.0-0.0-2.0,0,0,95248,,,,,,,,,,,,,,,,,,,,,,,,,,,,,,,,,,,,,,3.0,1.5,,
7,,feedback,,html-keyboard-response,7,103609,0.0-1.0-2.0-0.0-3.0-0.0,0,0,95248,,,,,,0.0,,,,,,,,,,,,,,,,,,,,,,,,,,,,,,,,4.0,1.0,,
8,,iti,,html-keyboard-response,8,104617,0.0-1.0-2.0-0.0-5.0,0,0,95248,,,,,,,,,,,,,,,,,,,,,,,,,,,,,,,,,,,,,,5.0,1.0,,
9,,choice,,html-keyboard-response,9,105556,0.0-1.0-3.0-0.0-0.0,0,0,95248,,936.0,,,68.0,1.0,1.0,3000.0,1500.0,1.0,0.0,0.0,20-40,,1.0,calculator,bagel,40.0,20.0,calculator2,bagel2,20.0,20.0,22829064.thl.jpg,bagels_cinnraisin_large.jpg,/static/Category_learning/Stimuli/Practice_stims/calculator/22829064.thl.jpg,/static/Category_learning/Stimuli/Practice_stims/bagel/bagels_cinnraisin_large.jpg,1.0,calculator,bagel,40.0,20.0,calculator2,bagel2,20.0,20.0,0.0,5.936,0.936,,
10,,confirmation,,html-keyboard-response,10,106127,0.0-1.0-3.0-0.0-1.0-0.0,0,0,95248,,,,,,1.0,,,,,,,,,,,,,,,,,,,,,,,,,,,,,,,,6.5,0.564,,
11,,isi,,html-keyboard-response,11,109134,0.0-1.0-3.0-0.0-2.0,0,0,95248,,,,,,,,,,,,,,,,,,,,,,,,,,,,,,,,,,,,,,9.5,3.0,,
12,,feedback,,html-keyboard-response,12,110142,0.0-1.0-3.0-0.0-3.0-0.0,0,0,95248,,,,,,1.0,,,,,,,,,,,,,,,,,,,,,,,,,,,,,,,,10.5,1.0,,
13,,iti,,html-keyboard-response,13,111646,0.0-1.0-3.0-0.0-5.0,0,0,95248,,,,,,,,,,,,,,,,,,,,,,,,,,,,,,,,,,,,,,12.0,1.5,,
14,,choice,,html-keyboard-response,14,112446,0.0-1.0-4.0-0.0-0.0,0,0,95248,,795.0,,,68.0,2.0,2.0,2000.0,3000.0,1.0,0.0,0.0,60-80,,0.0,clock,dumbbell,60.0,80.0,clock2,dumbbell2,60.0,100.0,26373355.thl.jpg,31K8MR6TMBL._SS500_.jpg,/static/Category_learning/Stimuli/Practice_stims/clock/26373355.thl.jpg,/static/Category_learning/Stimuli/Practice_stims/dumbbell/31K8MR6TMBL._SS500_.jpg,1.0,clock,dumbbell,60.0,80.0,clock2,dumbbell2,60.0,100.0,0.0,12.795,0.795,,
15,,confirmation,,html-keyboard-response,15,113156,0.0-1.0-4.0-0.0-1.0-0.0,0,0,95248,,,,,,2.0,,,,,,,,,,,,,,,,,,,,,,,,,,,,,,,,13.5,0.705,,
16,,isi,,html-keyboard-response,16,115161,0.0-1.0-4.0-0.0-2.0,0,0,95248,,,,,,,,,,,,,,,,,,,,,,,,,,,,,,,,,,,,,,15.5,2.0,,
17,,feedback,,html-keyboard-response,17,116169,0.0-1.0-4.0-0.0-3.0-0.0,0,0,95248,,,,,,2.0,,,,,,,,,,,,,,,,,,,,,,,,,,,,,,,,16.5,1.0,,
18,,iti,,html-keyboard-response,18,119177,0.0-1.0-4.0-0.0-5.0,0,0,95248,,,,,,,,,,,,,,,,,,,,,,,,,,,,,,,,,,,,,,19.5,3.0,,
19,,choice,,html-keyboard-response,19,120027,0.0-1.0-5.0-0.0-0.0,0,0,95248,,847.0,,,75.0,3.0,3.0,1000.0,2000.0,1.0,0.0,0.0,40-80,,0.0,calculator,clock,40.0,60.0,calculator1,clock1,40.0,40.0,22829184.thl.jpg,Aalarmclock2.jpg,/static/Category_learning/Stimuli/Practice_stims/calculator/22829184.thl.jpg,/static/Category_learning/Stimuli/Practice_stims/clock/Aalarmclock2.jpg,0.0,clock,calculator,60.0,40.0,clock1,calculator1,40.0,40.0,0.0,20.347,0.847,,
20,,confirmation,,html-keyboard-response,20,120689,0.0-1.0-5.0-0.0-1.0-0.0,0,0,95248,,,,,,3.0,,,,,,,,,,,,,,,,,,,,,,,,,,,,,,,,21.0,0.653,,
21,,isi,,html-keyboard-response,21,121697,0.0-1.0-5.0-0.0-2.0,0,0,95248,,,,,,,,,,,,,,,,,,,,,,,,,,,,,,,,,,,,,,22.0,1.0,,
22,,feedback,,html-keyboard-response,22,122704,0.0-1.0-5.0-0.0-3.0-0.0,0,0,95248,,,,,,3.0,,,,,,,,,,,,,,,,,,,,,,,,,,,,,,,,23.0,1.0,,
23,,iti,,html-keyboard-response,23,124707,0.0-1.0-5.0-0.0-5.0,0,0,95248,,,,,,,,,,,,,,,,,,,,,,,,,,,,,,,,,,,,,,25.0,2.0,,
24,,choice,,html-keyboard-response,24,125677,0.0-1.0-6.0-0.0-0.0,0,0,95248,,966.0,,,68.0,4.0,4.0,2500.0,2500.0,1.0,0.0,0.0,20-60,,1.0,dumbbell,bagel,80.0,20.0,dumbbell3,bagel3,100.0,40.0,41K7QVRX50L._SS500_.jpg,photo-169.jpg,/static/Category_learning/Stimuli/Practice_stims/dumbbell/41K7QVRX50L._SS500_.jpg,/static/Category_learning/Stimuli/Practice_stims/bagel/photo-169.jpg,1.0,dumbbell,bagel,80.0,20.0,dumbbell3,bagel3,100.0,40.0,0.0,25.966,0.966,1.0,
25,,confirmation,,html-keyboard-response,25,126220,0.0-1.0-6.0-0.0-1.0-0.0,0,0,95248,,,,,,4.0,,,,,,,,,,,,,,,,,,,,,,,,,,,,,,,,26.5,0.534,,
26,,isi,,html-keyboard-response,26,128724,0.0-1.0-6.0-0.0-2.0,0,0,95248,,,,,,,,,,,,,,,,,,,,,,,,,,,,,,,,,,,,,,29.0,2.5,,
27,,feedback,,html-keyboard-response,27,129732,0.0-1.0-6.0-0.0-3.0-0.0,0,0,95248,,,,,,4.0,,,,,,,,,,,,,,,,,,,,,,,,,,,,,,,,30.0,1.0,,
28,,iti,,html-keyboard-response,28,132239,0.0-1.0-6.0-0.0-5.0,0,0,95248,,,,,,,,,,,,,,,,,,,,,,,,,,,,,,,,,,,,,,32.5,2.5,,
29,,practice_over,,html-keyboard-response,29,135767,0.0-1.0-6.0-0.0-6.0-0.0,0,0,95248,,3525.0,,,68.0,4.0,,,,,,,,,,,,,,,,,,,,,,,,,,,,,,,,,,,
30,,start_run,,html-keyboard-response,30,138219,0.0-1.0-6.0-0.0-6.0-1.0,0,0,95248,,2450.0,,,84.0,,,,,,,,,,,,,,,,,,,,,,,,,,,,,,,,,,,,
31,,choice,,html-keyboard-response,31,139264,0.0-1.0-7.0-0.0-0.0,0,0,95248,,1041.0,,,68.0,5.0,5.0,3000.0,2000.0,0.0,1.0,0.0,40-40,,,license plate,hammer,40.0,40.0,license plate13,hammer11,60.0,60.0,usa-rj-9517.jpg,8oz-hammer-copy.jpg,/static/Category_learning/Stimuli/Experimental_stims/license plate/usa-rj-9517.jpg,/static/Category_learning/Stimuli/Experimental_stims/hammer/8oz-hammer-copy.jpg,1.0,license plate,hammer,40.0,40.0,license plate13,hammer11,60.0,60.0,0.0,1.041,1.041,,
32,,confirmation,,html-keyboard-response,32,139732,0.0-1.0-7.0-0.0-1.0-0.0,0,0,95248,,,,,,5.0,,,,,,,,,,,,,,,,,,,,,,,,,,,,,,,,1.5,0.459,,
33,,isi,,html-keyboard-response,33,142740,0.0-1.0-7.0-0.0-2.0,0,0,95248,,,,,,,,,,,,,,,,,,,,,,,,,,,,,,,,,,,,,,4.5,3.0,,
34,,feedback,,html-keyboard-response,34,143748,0.0-1.0-7.0-0.0-3.0-0.0,0,0,95248,,,,,,5.0,,,,,,,,,,,,,,,,,,,,,,,,,,,,,,,,5.5,1.0,,
35,,iti,,html-keyboard-response,35,145753,0.0-1.0-7.0-0.0-5.0,0,0,95248,,,,,,,,,,,,,,,,,,,,,,,,,,,,,,,,,,,,,,7.5,2.0,,
36,,choice,,html-keyboard-response,36,146481,0.0-1.0-8.0-0.0-0.0,0,0,95248,,725.0,,,75.0,6.0,6.0,1000.0,1000.0,0.0,1.0,0.0,20-60,,0.0,flashlight,poker card,20.0,60.0,flashlight9,poker card6,40.0,80.0,new06.jpg,22864212.thl.jpg,/static/Category_learning/Stimuli/Experimental_stims/flashlight/new06.jpg,/static/Category_learning/Stimuli/Experimental_stims/poker card/22864212.thl.jpg,0.0,poker card,flashlight,60.0,20.0,poker card6,flashlight9,80.0,40.0,0.0,8.225,0.725,,
37,,confirmation,,html-keyboard-response,37,147262,0.0-1.0-8.0-0.0-1.0-0.0,0,0,95248,,,,,,6.0,,,,,,,,,,,,,,,,,,,,,,,,,,,,,,,,9.0,0.775,,
38,,isi,,html-keyboard-response,38,148270,0.0-1.0-8.0-0.0-2.0,0,0,95248,,,,,,,,,,,,,,,,,,,,,,,,,,,,,,,,,,,,,,10.0,1.0,,
39,,feedback,,html-keyboard-response,39,149278,0.0-1.0-8.0-0.0-3.0-0.0,0,0,95248,,,,,,6.0,,,,,,,,,,,,,,,,,,,,,,,,,,,,,,,,11.0,1.0,,
40,,iti,,html-keyboard-response,40,150287,0.0-1.0-8.0-0.0-5.0,0,0,95248,,,,,,,,,,,,,,,,,,,,,,,,,,,,,,,,,,,,,,12.0,1.0,,
41,,choice,,html-keyboard-response,41,151140,0.0-1.0-9.0-0.0-0.0,0,0,95248,,849.0,,,68.0,7.0,7.0,1500.0,3500.0,0.0,1.0,0.0,60-60,,,seashell,nail polish,60.0,60.0,seashell7,nail polish6,60.0,60.0,seashell34.jpg,127_t.jpg,/static/Category_learning/Stimuli/Experimental_stims/seashell/seashell34.jpg,/static/Category_learning/Stimuli/Experimental_stims/nail polish/127_t.jpg,1.0,seashell,nail polish,60.0,60.0,seashell7,nail polish6,60.0,60.0,0.0,12.849,0.849,,
42,,confirmation,,html-keyboard-response,42,151799,0.0-1.0-9.0-0.0-1.0-0.0,0,0,95248,,,,,,7.0,,,,,,,,,,,,,,,,,,,,,,,,,,,,,,,,13.5,0.651,,
43,,isi,,html-keyboard-response,43,153305,0.0-1.0-9.0-0.0-2.0,0,0,95248,,,,,,,,,,,,,,,,,,,,,,,,,,,,,,,,,,,,,,15.0,1.5,,
44,,feedback,,html-keyboard-response,44,154313,0.0-1.0-9.0-0.0-3.0-0.0,0,0,95248,,,,,,7.0,,,,,,,,,,,,,,,,,,,,,,,,,,,,,,,,16.0,1.0,,
45,,iti,,html-keyboard-response,45,157817,0.0-1.0-9.0-0.0-5.0,0,0,95248,,,,,,,,,,,,,,,,,,,,,,,,,,,,,,,,,,,,,,19.5,3.5,,
46,,choice,,html-keyboard-response,46,158613,0.0-1.0-10.0-0.0-0.0,0,0,95248,,792.0,,,68.0,8.0,8.0,1500.0,1000.0,0.0,1.0,0.0,40-80,,1.0,telescope,hat,80.0,40.0,telescope3,hat5,100.0,60.0,41V67SB5NJL._SS500_.jpg,AREDHAT4.jpg,/static/Category_learning/Stimuli/Experimental_stims/telescope/41V67SB5NJL._SS500_.jpg,/static/Category_learning/Stimuli/Experimental_stims/hat/AREDHAT4.jpg,1.0,telescope,hat,80.0,40.0,telescope3,hat5,100.0,60.0,0.0,20.292,0.792,,
47,,confirmation,,html-keyboard-response,47,159326,0.0-1.0-10.0-0.0-1.0-0.0,0,0,95248,,,,,,8.0,,,,,,,,,,,,,,,,,,,,,,,,,,,,,,,,21.0,0.708,,
48,,isi,,html-keyboard-response,48,160830,0.0-1.0-10.0-0.0-2.0,0,0,95248,,,,,,,,,,,,,,,,,,,,,,,,,,,,,,,,,,,,,,22.5,1.5,,
49,,feedback,,html-keyboard-response,49,161838,0.0-1.0-10.0-0.0-3.0-0.0,0,0,95248,,,,,,8.0,,,,,,,,,,,,,,,,,,,,,,,,,,,,,,,,23.5,1.0,,
50,,iti,,html-keyboard-response,50,162846,0.0-1.0-10.0-0.0-5.0,0,0,95248,,,,,,,,,,,,,,,,,,,,,,,,,,,,,,,,,,,,,,24.5,1.0,,
51,,choice,,html-keyboard-response,51,163667,0.0-1.0-11.0-0.0-0.0,0,0,95248,,816.0,,,68.0,9.0,9.0,2000.0,3500.0,0.0,1.0,0.0,40-60,,1.0,power strip,makeup compact,60.0,40.0,power strip12,makeup compact1,80.0,60.0,41CXESEH1TL._AA262_.jpg,P190250_hero.jpg,/static/Category_learning/Stimuli/Experimental_stims/power strip/41CXESEH1TL._AA262_.jpg,/static/Category_learning/Stimuli/Experimental_stims/makeup compact/P190250_hero.jpg,1.0,power strip,makeup compact,60.0,40.0,power strip12,makeup compact1,80.0,60.0,0.0,25.316,0.816,,
52,,confirmation,,html-keyboard-response,52,164356,0.0-1.0-11.0-0.0-1.0-0.0,0,0,95248,,,,,,9.0,,,,,,,,,,,,,,,,,,,,,,,,,,,,,,,,26.0,0.684,,
53,,isi,,html-keyboard-response,53,166361,0.0-1.0-11.0-0.0-2.0,0,0,95248,,,,,,,,,,,,,,,,,,,,,,,,,,,,,,,,,,,,,,28.0,2.0,,
54,,feedback,,html-keyboard-response,54,167369,0.0-1.0-11.0-0.0-3.0-0.0,0,0,95248,,,,,,9.0,,,,,,,,,,,,,,,,,,,,,,,,,,,,,,,,29.0,1.0,,
55,,iti,,html-keyboard-response,55,170874,0.0-1.0-11.0-0.0-5.0,0,0,95248,,,,,,,,,,,,,,,,,,,,,,,,,,,,,,,,,,,,,,32.5,3.5,,
56,,choice,,html-keyboard-response,56,172038,0.0-1.0-12.0-0.0-0.0,0,0,95248,,1159.0,,,75.0,10.0,10.0,1500.0,3500.0,0.0,1.0,1.0,60-60,0.0,,seashell,poker card,60.0,60.0,seashell7,poker card6,60.0,80.0,seashell34.jpg,22864212.thl.jpg,/static/Category_learning/Stimuli/Experimental_stims/seashell/seashell34.jpg,/static/Category_learning/Stimuli/Experimental_stims/poker card/22864212.thl.jpg,0.0,poker card,seashell,60.0,60.0,poker card6,seashell7,80.0,60.0,0.0,33.659,1.159,,
57,,confirmation,,html-keyboard-response,57,172388,0.0-1.0-12.0-0.0-1.0-0.0,0,0,95248,,,,,,10.0,,,,,,,,,,,,,,,,,,,,,,,,,,,,,,,,34.0,0.341,,
58,,isi,,html-keyboard-response,58,173892,0.0-1.0-12.0-0.0-2.0,0,0,95248,,,,,,,,,,,,,,,,,,,,,,,,,,,,,,,,,,,,,,35.5,1.5,,
59,,feedback,,html-keyboard-response,59,174900,0.0-1.0-12.0-0.0-3.0-0.0,0,0,95248,,,,,,10.0,,,,,,,,,,,,,,,,,,,,,,,,,,,,,,,,36.5,1.0,,
60,,iti,,html-keyboard-response,60,178408,0.0-1.0-12.0-0.0-5.0,0,0,95248,,,,,,,,,,,,,,,,,,,,,,,,,,,,,,,,,,,,,,40.0,3.5,,
61,,choice,,html-keyboard-response,61,179395,0.0-1.0-13.0-0.0-0.0,0,0,95248,,983.0,,,68.0,11.0,11.0,1500.0,1000.0,0.0,1.0,1.0,40-80,0.0,,license plate,telescope,40.0,80.0,license plate13,telescope3,60.0,100.0,usa-rj-9517.jpg,41V67SB5NJL._SS500_.jpg,/static/Category_learning/Stimuli/Experimental_stims/license plate/usa-rj-9517.jpg,/static/Category_learning/Stimuli/Experimental_stims/telescope/41V67SB5NJL._SS500_.jpg,1.0,license plate,telescope,40.0,80.0,license plate13,telescope3,60.0,100.0,0.0,40.983,0.983,,
62,,confirmation,,html-keyboard-response,62,179919,0.0-1.0-13.0-0.0-1.0-0.0,0,0,95248,,,,,,11.0,,,,,,,,,,,,,,,,,,,,,,,,,,,,,,,,41.5,0.517,,
63,,isi,,html-keyboard-response,63,181422,0.0-1.0-13.0-0.0-2.0,0,0,95248,,,,,,,,,,,,,,,,,,,,,,,,,,,,,,,,,,,,,,43.0,1.5,,
64,,feedback,,html-keyboard-response,64,182430,0.0-1.0-13.0-0.0-3.0-0.0,0,0,95248,,,,,,11.0,,,,,,,,,,,,,,,,,,,,,,,,,,,,,,,,44.0,1.0,,
65,,iti,,html-keyboard-response,65,183438,0.0-1.0-13.0-0.0-5.0,0,0,95248,,,,,,,,,,,,,,,,,,,,,,,,,,,,,,,,,,,,,,45.0,1.0,,
66,,choice,,html-keyboard-response,66,184892,0.0-1.0-14.0-0.0-0.0,0,0,95248,,1449.0,,,68.0,12.0,12.0,2000.0,1000.0,0.0,1.0,0.0,40-60,,0.0,key chain,sofa,40.0,60.0,key chain13,sofa6,60.0,80.0,Fancy_Liquid_Column_Shape_Key_Ring_with_Floater.jpg,wilkie-sofa-250h-new-cd.jpg,/static/Category_learning/Stimuli/Experimental_stims/key chain/Fancy_Liquid_Column_Shape_Key_Ring_with_Floater.jpg,/static/Category_learning/Stimuli/Experimental_stims/sofa/wilkie-sofa-250h-new-cd.jpg,1.0,key chain,sofa,40.0,60.0,key chain13,sofa6,60.0,80.0,0.0,46.449,1.449,,
67,,confirmation,,html-keyboard-response,67,184950,0.0-1.0-14.0-0.0-1.0-0.0,0,0,95248,,,,,,12.0,,,,,,,,,,,,,,,,,,,,,,,,,,,,,,,,46.5,0.051,,
68,,isi,,html-keyboard-response,68,186959,0.0-1.0-14.0-0.0-2.0,0,0,95248,,,,,,,,,,,,,,,,,,,,,,,,,,,,,,,,,,,,,,48.5,2.0,,
69,,feedback,,html-keyboard-response,69,187966,0.0-1.0-14.0-0.0-3.0-0.0,0,0,95248,,,,,,12.0,,,,,,,,,,,,,,,,,,,,,,,,,,,,,,,,49.5,1.0,,
70,,iti,,html-keyboard-response,70,188974,0.0-1.0-14.0-0.0-5.0,0,0,95248,,,,,,,,,,,,,,,,,,,,,,,,,,,,,,,,,,,,,,50.5,1.0,,
71,,choice,,html-keyboard-response,71,190057,0.0-1.0-15.0-0.0-0.0,0,0,95248,,1080.0,,,75.0,13.0,13.0,1000.0,1000.0,0.0,1.0,0.0,40-80,,1.0,stool,motorcycle,80.0,40.0,stool7,motorcycle7,80.0,20.0,ASTOOL25.jpg,MotoSmall.jpg,/static/Category_learning/Stimuli/Experimental_stims/stool/ASTOOL25.jpg,/static/Category_learning/Stimuli/Experimental_stims/motorcycle/MotoSmall.jpg,0.0,motorcycle,stool,40.0,80.0,motorcycle7,stool7,20.0,80.0,0.0,51.58,1.08,,
72,,confirmation,,html-keyboard-response,72,190484,0.0-1.0-15.0-0.0-1.0-0.0,0,0,95248,,,,,,13.0,,,,,,,,,,,,,,,,,,,,,,,,,,,,,,,,52.0,0.42,,
73,,isi,,html-keyboard-response,73,191492,0.0-1.0-15.0-0.0-2.0,0,0,95248,,,,,,,,,,,,,,,,,,,,,,,,,,,,,,,,,,,,,,53.0,1.0,,
74,,feedback,,html-keyboard-response,74,192499,0.0-1.0-15.0-0.0-3.0-0.0,0,0,95248,,,,,,13.0,,,,,,,,,,,,,,,,,,,,,,,,,,,,,,,,54.0,1.0,,
75,,iti,,html-keyboard-response,75,193503,0.0-1.0-15.0-0.0-5.0,0,0,95248,,,,,,,,,,,,,,,,,,,,,,,,,,,,,,,,,,,,,,55.0,1.0,,
76,,choice,,html-keyboard-response,76,194241,0.0-1.0-16.0-0.0-0.0,0,0,95248,,734.0,,,68.0,14.0,14.0,1500.0,1000.0,0.0,1.0,0.0,40-80,,1.0,tent,hat,80.0,40.0,tent1,hat13,100.0,20.0,Atent8.jpg,Ahatwithfeath.jpg,/static/Category_learning/Stimuli/Experimental_stims/tent/Atent8.jpg,/static/Category_learning/Stimuli/Experimental_stims/hat/Ahatwithfeath.jpg,1.0,tent,hat,80.0,40.0,tent1,hat13,100.0,20.0,0.0,55.734,0.734,,
77,,confirmation,,html-keyboard-response,77,195012,0.0-1.0-16.0-0.0-1.0-0.0,0,0,95248,,,,,,14.0,,,,,,,,,,,,,,,,,,,,,,,,,,,,,,,,56.5,0.766,,
78,,isi,,html-keyboard-response,78,196516,0.0-1.0-16.0-0.0-2.0,0,0,95248,,,,,,,,,,,,,,,,,,,,,,,,,,,,,,,,,,,,,,58.0,1.5,,
79,,feedback,,html-keyboard-response,79,197524,0.0-1.0-16.0-0.0-3.0-0.0,0,0,95248,,,,,,14.0,,,,,,,,,,,,,,,,,,,,,,,,,,,,,,,,59.0,1.0,,
80,,iti,,html-keyboard-response,80,198532,0.0-1.0-16.0-0.0-5.0,0,0,95248,,,,,,,,,,,,,,,,,,,,,,,,,,,,,,,,,,,,,,60.0,1.0,,
81,,choice,,html-keyboard-response,81,199361,0.0-1.0-17.0-0.0-0.0,0,0,95248,,825.0,,,68.0,15.0,15.0,2000.0,1000.0,0.0,1.0,0.0,60-80,,0.0,necklace,watch,60.0,80.0,necklace3,watch13,60.0,80.0,26388201.thl.jpg,RS_3104_lrg.jpg,/static/Category_learning/Stimuli/Experimental_stims/necklace/26388201.thl.jpg,/static/Category_learning/Stimuli/Experimental_stims/watch/RS_3104_lrg.jpg,1.0,necklace,watch,60.0,80.0,necklace3,watch13,60.0,80.0,0.0,60.825,0.825,,
82,,confirmation,,html-keyboard-response,82,200041,0.0-1.0-17.0-0.0-1.0-0.0,0,0,95248,,,,,,15.0,,,,,,,,,,,,,,,,,,,,,,,,,,,,,,,,61.5,0.675,,
83,,isi,,html-keyboard-response,83,202046,0.0-1.0-17.0-0.0-2.0,0,0,95248,,,,,,,,,,,,,,,,,,,,,,,,,,,,,,,,,,,,,,63.5,2.0,,
84,,feedback,,html-keyboard-response,84,203055,0.0-1.0-17.0-0.0-3.0-0.0,0,0,95248,,,,,,15.0,,,,,,,,,,,,,,,,,,,,,,,,,,,,,,,,64.5,1.0,,
85,,iti,,html-keyboard-response,85,204062,0.0-1.0-17.0-0.0-5.0,0,0,95248,,,,,,,,,,,,,,,,,,,,,,,,,,,,,,,,,,,,,,65.5,1.0,,
86,,choice,,html-keyboard-response,86,205446,0.0-1.0-18.0-0.0-0.0,0,0,95248,,1379.0,,,75.0,16.0,16.0,3500.0,1000.0,0.0,1.0,1.0,40-40,0.0,,key chain,motorcycle,40.0,40.0,key chain13,motorcycle7,60.0,20.0,Fancy_Liquid_Column_Shape_Key_Ring_with_Floater.jpg,MotoSmall.jpg,/static/Category_learning/Stimuli/Experimental_stims/key chain/Fancy_Liquid_Column_Shape_Key_Ring_with_Floater.jpg,/static/Category_learning/Stimuli/Experimental_stims/motorcycle/MotoSmall.jpg,0.0,motorcycle,key chain,40.0,40.0,motorcycle7,key chain13,20.0,60.0,0.0,66.879,1.379,,
87,,confirmation,,html-keyboard-response,87,205572,0.0-1.0-18.0-0.0-1.0-0.0,0,0,95248,,,,,,16.0,,,,,,,,,,,,,,,,,,,,,,,,,,,,,,,,67.0,0.121,,
88,,isi,,html-keyboard-response,88,209076,0.0-1.0-18.0-0.0-2.0,0,0,95248,,,,,,,,,,,,,,,,,,,,,,,,,,,,,,,,,,,,,,70.5,3.5,,
89,,feedback,,html-keyboard-response,89,210084,0.0-1.0-18.0-0.0-3.0-0.0,0,0,95248,,,,,,16.0,,,,,,,,,,,,,,,,,,,,,,,,,,,,,,,,71.5,1.0,,
90,,iti,,html-keyboard-response,90,211092,0.0-1.0-18.0-0.0-5.0,0,0,95248,,,,,,,,,,,,,,,,,,,,,,,,,,,,,,,,,,,,,,72.5,1.0,,
91,,choice,,html-keyboard-response,91,211905,0.0-1.0-19.0-0.0-0.0,0,0,95248,,809.0,,,68.0,17.0,17.0,3500.0,2000.0,0.0,1.0,0.0,20-20,,,flashlight,bowl,20.0,20.0,flashlight5,bowl12,0.0,20.0,Streamlight-71001-Jr-Flashlight-W-batteries-black-B00018A3CG-L.jpg,Abowl52.jpg,/static/Category_learning/Stimuli/Experimental_stims/flashlight/Streamlight-71001-Jr-Flashlight-W-batteries-black-B00018A3CG-L.jpg,/static/Category_learning/Stimuli/Experimental_stims/bowl/Abowl52.jpg,1.0,flashlight,bowl,20.0,20.0,flashlight5,bowl12,0.0,20.0,0.0,73.309,0.809,,
92,,confirmation,,html-keyboard-response,92,212601,0.0-1.0-19.0-0.0-1.0-0.0,0,0,95248,,,,,,17.0,,,,,,,,,,,,,,,,,,,,,,,,,,,,,,,,74.0,0.691,,
93,,isi,,html-keyboard-response,93,216108,0.0-1.0-19.0-0.0-2.0,0,0,95248,,,,,,,,,,,,,,,,,,,,,,,,,,,,,,,,,,,,,,77.5,3.5,,
94,,feedback,,html-keyboard-response,94,217113,0.0-1.0-19.0-0.0-3.0-0.0,0,0,95248,,,,,,17.0,,,,,,,,,,,,,,,,,,,,,,,,,,,,,,,,78.5,1.0,,
95,,iti,,html-keyboard-response,95,219118,0.0-1.0-19.0-0.0-5.0,0,0,95248,,,,,,,,,,,,,,,,,,,,,,,,,,,,,,,,,,,,,,80.5,2.0,,
96,,choice,,html-keyboard-response,96,220013,0.0-1.0-20.0-0.0-0.0,0,0,95248,,891.0,,,75.0,18.0,18.0,1500.0,1500.0,0.0,1.0,1.0,20-60,0.0,,flashlight,necklace,20.0,60.0,flashlight5,necklace3,0.0,60.0,Streamlight-71001-Jr-Flashlight-W-batteries-black-B00018A3CG-L.jpg,26388201.thl.jpg,/static/Category_learning/Stimuli/Experimental_stims/flashlight/Streamlight-71001-Jr-Flashlight-W-batteries-black-B00018A3CG-L.jpg,/static/Category_learning/Stimuli/Experimental_stims/necklace/26388201.thl.jpg,0.0,necklace,flashlight,60.0,20.0,necklace3,flashlight5,60.0,0.0,0.0,81.391,0.891,,
97,,confirmation,,html-keyboard-response,97,220628,0.0-1.0-20.0-0.0-1.0-0.0,0,0,95248,,,,,,18.0,,,,,,,,,,,,,,,,,,,,,,,,,,,,,,,,82.0,0.609,,
98,,isi,,html-keyboard-response,98,222132,0.0-1.0-20.0-0.0-2.0,0,0,95248,,,,,,,,,,,,,,,,,,,,,,,,,,,,,,,,,,,,,,83.5,1.5,,
99,,feedback,,html-keyboard-response,99,223140,0.0-1.0-20.0-0.0-3.0-0.0,0,0,95248,,,,,,18.0,,,,,,,,,,,,,,,,,,,,,,,,,,,,,,,,84.5,1.0,,
100,,iti,,html-keyboard-response,100,224647,0.0-1.0-20.0-0.0-5.0,0,0,95248,,,,,,,,,,,,,,,,,,,,,,,,,,,,,,,,,,,,,,86.0,1.5,,
101,,choice,,html-keyboard-response,101,225569,0.0-1.0-21.0-0.0-0.0,0,0,95248,,918.0,,,75.0,19.0,19.0,1000.0,2000.0,0.0,1.0,0.0,40-40,,,frame,license plate,40.0,40.0,frame8,license plate14,60.0,40.0,AFRAME154.jpg,fl-hel-bel.jpg,/static/Category_learning/Stimuli/Experimental_stims/frame/AFRAME154.jpg,/static/Category_learning/Stimuli/Experimental_stims/license plate/fl-hel-bel.jpg,0.0,license plate,frame,40.0,40.0,license plate14,frame8,40.0,60.0,0.0,86.918,0.918,,
102,,confirmation,,html-keyboard-response,102,226156,0.0-1.0-21.0-0.0-1.0-0.0,0,0,95248,,,,,,19.0,,,,,,,,,,,,,,,,,,,,,,,,,,,,,,,,87.5,0.582,,
103,,isi,,html-keyboard-response,103,227161,0.0-1.0-21.0-0.0-2.0,0,0,95248,,,,,,,,,,,,,,,,,,,,,,,,,,,,,,,,,,,,,,88.5,1.0,,
104,,feedback,,html-keyboard-response,104,228166,0.0-1.0-21.0-0.0-3.0-0.0,0,0,95248,,,,,,19.0,,,,,,,,,,,,,,,,,,,,,,,,,,,,,,,,89.5,1.0,,
105,,iti,,html-keyboard-response,105,230171,0.0-1.0-21.0-0.0-5.0,0,0,95248,,,,,,,,,,,,,,,,,,,,,,,,,,,,,,,,,,,,,,91.5,2.0,,
106,,choice,,html-keyboard-response,106,230886,0.0-1.0-22.0-0.0-0.0,0,0,95248,,711.0,,,68.0,20.0,20.0,1000.0,1000.0,0.0,1.0,0.0,20-80,,1.0,vase,desk,80.0,20.0,vase3,desk14,80.0,0.0,vase-006af-1.jpg,26419960.thl.jpg,/static/Category_learning/Stimuli/Experimental_stims/vase/vase-006af-1.jpg,/static/Category_learning/Stimuli/Experimental_stims/desk/26419960.thl.jpg,1.0,vase,desk,80.0,20.0,vase3,desk14,80.0,0.0,0.0,92.211,0.711,,
107,,confirmation,,html-keyboard-response,107,231684,0.0-1.0-22.0-0.0-1.0-0.0,0,0,95248,,,,,,20.0,,,,,,,,,,,,,,,,,,,,,,,,,,,,,,,,93.0,0.789,,
108,,isi,,html-keyboard-response,108,232692,0.0-1.0-22.0-0.0-2.0,0,0,95248,,,,,,,,,,,,,,,,,,,,,,,,,,,,,,,,,,,,,,94.0,1.0,,
109,,feedback,,html-keyboard-response,109,233700,0.0-1.0-22.0-0.0-3.0-0.0,0,0,95248,,,,,,20.0,,,,,,,,,,,,,,,,,,,,,,,,,,,,,,,,95.0,1.0,,
110,,iti,,html-keyboard-response,110,234707,0.0-1.0-22.0-0.0-5.0,0,0,95248,,,,,,,,,,,,,,,,,,,,,,,,,,,,,,,,,,,,,,96.0,1.0,,
111,,choice,,html-keyboard-response,111,235460,0.0-1.0-23.0-0.0-0.0,0,0,95248,,748.0,,,75.0,21.0,21.0,1500.0,2000.0,0.0,1.0,0.0,40-60,,1.0,power strip,frame,60.0,40.0,power strip5,frame1,40.0,20.0,93e4a283-bcd6-4ad1-8add-339658cda0fc_400.jpg,AFRAME127.jpg,/static/Category_learning/Stimuli/Experimental_stims/power strip/93e4a283-bcd6-4ad1-8add-339658cda0fc_400.jpg,/static/Category_learning/Stimuli/Experimental_stims/frame/AFRAME127.jpg,0.0,frame,power strip,40.0,60.0,frame1,power strip5,20.0,40.0,0.0,96.748,0.748,,
112,,confirmation,,html-keyboard-response,112,236217,0.0-1.0-23.0-0.0-1.0-0.0,0,0,95248,,,,,,21.0,,,,,,,,,,,,,,,,,,,,,,,,,,,,,,,,97.5,0.752,,
113,,isi,,html-keyboard-response,113,237721,0.0-1.0-23.0-0.0-2.0,0,0,95248,,,,,,,,,,,,,,,,,,,,,,,,,,,,,,,,,,,,,,99.0,1.5,,
114,,feedback,,html-keyboard-response,114,238729,0.0-1.0-23.0-0.0-3.0-0.0,0,0,95248,,,,,,21.0,,,,,,,,,,,,,,,,,,,,,,,,,,,,,,,,100.0,1.0,,
115,,iti,,html-keyboard-response,115,240734,0.0-1.0-23.0-0.0-5.0,0,0,95248,,,,,,,,,,,,,,,,,,,,,,,,,,,,,,,,,,,,,,102.0,2.0,,
116,,choice,,html-keyboard-response,116,241617,0.0-1.0-24.0-0.0-0.0,0,0,95248,,878.0,,,68.0,22.0,22.0,2000.0,1000.0,0.0,1.0,1.0,40-80,0.0,,frame,tent,40.0,80.0,frame1,tent1,20.0,100.0,AFRAME127.jpg,Atent8.jpg,/static/Category_learning/Stimuli/Experimental_stims/frame/AFRAME127.jpg,/static/Category_learning/Stimuli/Experimental_stims/tent/Atent8.jpg,1.0,frame,tent,40.0,80.0,frame1,tent1,20.0,100.0,0.0,102.878,0.878,,
117,,confirmation,,html-keyboard-response,117,242243,0.0-1.0-24.0-0.0-1.0-0.0,0,0,95248,,,,,,22.0,,,,,,,,,,,,,,,,,,,,,,,,,,,,,,,,103.5,0.622,,
118,,isi,,html-keyboard-response,118,244249,0.0-1.0-24.0-0.0-2.0,0,0,95248,,,,,,,,,,,,,,,,,,,,,,,,,,,,,,,,,,,,,,105.5,2.0,,
119,,feedback,,html-keyboard-response,119,245257,0.0-1.0-24.0-0.0-3.0-0.0,0,0,95248,,,,,,22.0,,,,,,,,,,,,,,,,,,,,,,,,,,,,,,,,106.5,1.0,,
120,,iti,,html-keyboard-response,120,246265,0.0-1.0-24.0-0.0-5.0,0,0,95248,,,,,,,,,,,,,,,,,,,,,,,,,,,,,,,,,,,,,,107.5,1.0,,
121,,choice,,html-keyboard-response,121,247123,0.0-1.0-25.0-0.0-0.0,0,0,95248,,854.0,,,68.0,23.0,23.0,1000.0,1000.0,0.0,1.0,0.0,40-60,,0.0,lipstick,small table,40.0,60.0,lipstick7,small table5,60.0,80.0,P101401_hero.jpg,Atable145.jpg,/static/Category_learning/Stimuli/Experimental_stims/lipstick/P101401_hero.jpg,/static/Category_learning/Stimuli/Experimental_stims/small table/Atable145.jpg,1.0,lipstick,small table,40.0,60.0,lipstick7,small table5,60.0,80.0,0.0,108.354,0.854,,
122,,confirmation,,html-keyboard-response,122,247777,0.0-1.0-25.0-0.0-1.0-0.0,0,0,95248,,,,,,23.0,,,,,,,,,,,,,,,,,,,,,,,,,,,,,,,,109.0,0.646,,
123,,isi,,html-keyboard-response,123,248782,0.0-1.0-25.0-0.0-2.0,0,0,95248,,,,,,,,,,,,,,,,,,,,,,,,,,,,,,,,,,,,,,110.0,1.0,,
124,,feedback,,html-keyboard-response,124,249790,0.0-1.0-25.0-0.0-3.0-0.0,0,0,95248,,,,,,23.0,,,,,,,,,,,,,,,,,,,,,,,,,,,,,,,,111.0,1.0,,
125,,iti,,html-keyboard-response,125,250799,0.0-1.0-25.0-0.0-5.0,0,0,95248,,,,,,,,,,,,,,,,,,,,,,,,,,,,,,,,,,,,,,112.0,1.0,,
126,,choice,,html-keyboard-response,126,251635,0.0-1.0-26.0-0.0-0.0,0,0,95248,,832.0,,,68.0,24.0,24.0,3000.0,1500.0,0.0,1.0,0.0,20-80,,1.0,yarn,bowl,80.0,20.0,yarn4,bowl6,60.0,20.0,amethyst dreaming boho hy sml.jpg,Abowl59.jpg,/static/Category_learning/Stimuli/Experimental_stims/yarn/amethyst dreaming boho hy sml.jpg,/static/Category_learning/Stimuli/Experimental_stims/bowl/Abowl59.jpg,1.0,yarn,bowl,80.0,20.0,yarn4,bowl6,60.0,20.0,0.0,112.832,0.832,,
127,,confirmation,,html-keyboard-response,127,252308,0.0-1.0-26.0-0.0-1.0-0.0,0,0,95248,,,,,,24.0,,,,,,,,,,,,,,,,,,,,,,,,,,,,,,,,113.5,0.668,,
128,,isi,,html-keyboard-response,128,255316,0.0-1.0-26.0-0.0-2.0,0,0,95248,,,,,,,,,,,,,,,,,,,,,,,,,,,,,,,,,,,,,,116.5,3.0,,
129,,feedback,,html-keyboard-response,129,256324,0.0-1.0-26.0-0.0-3.0-0.0,0,0,95248,,,,,,24.0,,,,,,,,,,,,,,,,,,,,,,,,,,,,,,,,117.5,1.0,,
130,,iti,,html-keyboard-response,130,257829,0.0-1.0-26.0-0.0-5.0,0,0,95248,,,,,,,,,,,,,,,,,,,,,,,,,,,,,,,,,,,,,,119.0,1.5,,
131,,choice,,html-keyboard-response,131,258579,0.0-1.0-27.0-0.0-0.0,0,0,95248,,746.0,,,75.0,25.0,25.0,1000.0,2000.0,0.0,1.0,0.0,80-80,,,watch,trumpet,80.0,80.0,watch10,trumpet9,100.0,80.0,HEU0102124_zoom.jpg,trumpet3.jpg,/static/Category_learning/Stimuli/Experimental_stims/watch/HEU0102124_zoom.jpg,/static/Category_learning/Stimuli/Experimental_stims/trumpet/trumpet3.jpg,0.0,trumpet,watch,80.0,80.0,trumpet9,watch10,80.0,100.0,0.0,119.746,0.746,,
132,,confirmation,,html-keyboard-response,132,259337,0.0-1.0-27.0-0.0-1.0-0.0,0,0,95248,,,,,,25.0,,,,,,,,,,,,,,,,,,,,,,,,,,,,,,,,120.5,0.754,,
133,,isi,,html-keyboard-response,133,260340,0.0-1.0-27.0-0.0-2.0,0,0,95248,,,,,,,,,,,,,,,,,,,,,,,,,,,,,,,,,,,,,,121.5,1.0,,
134,,feedback,,html-keyboard-response,134,261345,0.0-1.0-27.0-0.0-3.0-0.0,0,0,95248,,,,,,25.0,,,,,,,,,,,,,,,,,,,,,,,,,,,,,,,,122.5,1.0,,
135,,iti,,html-keyboard-response,135,263348,0.0-1.0-27.0-0.0-5.0,0,0,95248,,,,,,,,,,,,,,,,,,,,,,,,,,,,,,,,,,,,,,124.5,2.0,,
136,,choice,,html-keyboard-response,136,264117,0.0-1.0-28.0-0.0-0.0,0,0,95248,,764.0,,,68.0,26.0,26.0,2000.0,1000.0,0.0,1.0,1.0,40-60,0.0,,license plate,power strip,40.0,60.0,license plate14,power strip12,40.0,80.0,fl-hel-bel.jpg,41CXESEH1TL._AA262_.jpg,/static/Category_learning/Stimuli/Experimental_stims/license plate/fl-hel-bel.jpg,/static/Category_learning/Stimuli/Experimental_stims/power strip/41CXESEH1TL._AA262_.jpg,1.0,license plate,power strip,40.0,60.0,license plate14,power strip12,40.0,80.0,0.0,125.264,0.764,,
137,,confirmation,,html-keyboard-response,137,264863,0.0-1.0-28.0-0.0-1.0-0.0,0,0,95248,,,,,,26.0,,,,,,,,,,,,,,,,,,,,,,,,,,,,,,,,126.0,0.736,,
138,,isi,,html-keyboard-response,138,266870,0.0-1.0-28.0-0.0-2.0,0,0,95248,,,,,,,,,,,,,,,,,,,,,,,,,,,,,,,,,,,,,,128.0,2.0,,
139,,feedback,,html-keyboard-response,139,267875,0.0-1.0-28.0-0.0-3.0-0.0,0,0,95248,,,,,,26.0,,,,,,,,,,,,,,,,,,,,,,,,,,,,,,,,129.0,1.0,,
140,,iti,,html-keyboard-response,140,268883,0.0-1.0-28.0-0.0-5.0,0,0,95248,,,,,,,,,,,,,,,,,,,,,,,,,,,,,,,,,,,,,,130.0,1.0,,
141,,choice,,html-keyboard-response,141,269761,0.0-1.0-29.0-0.0-0.0,0,0,95248,,873.0,,,68.0,27.0,27.0,3000.0,1500.0,0.0,1.0,0.0,80-80,,,stool,yarn,80.0,80.0,stool12,yarn7,80.0,100.0,henrybar_stool1.jpg,herb garden hy smaller.jpg,/static/Category_learning/Stimuli/Experimental_stims/stool/henrybar_stool1.jpg,/static/Category_learning/Stimuli/Experimental_stims/yarn/herb garden hy smaller.jpg,1.0,stool,yarn,80.0,80.0,stool12,yarn7,80.0,100.0,0.0,130.873,0.873,,
142,,confirmation,,html-keyboard-response,142,270395,0.0-1.0-29.0-0.0-1.0-0.0,0,0,95248,,,,,,27.0,,,,,,,,,,,,,,,,,,,,,,,,,,,,,,,,131.5,0.627,,
143,,isi,,html-keyboard-response,143,273403,0.0-1.0-29.0-0.0-2.0,0,0,95248,,,,,,,,,,,,,,,,,,,,,,,,,,,,,,,,,,,,,,134.5,3.0,,
144,,feedback,,html-keyboard-response,144,274409,0.0-1.0-29.0-0.0-3.0-0.0,0,0,95248,,,,,,27.0,,,,,,,,,,,,,,,,,,,,,,,,,,,,,,,,135.5,1.0,,
145,,iti,,html-keyboard-response,145,275913,0.0-1.0-29.0-0.0-5.0,0,0,95248,,,,,,,,,,,,,,,,,,,,,,,,,,,,,,,,,,,,,,137.0,1.5,,
146,,choice,,html-keyboard-response,146,276863,0.0-1.0-30.0-0.0-0.0,0,0,95248,,946.0,,,75.0,28.0,28.0,2000.0,1500.0,0.0,1.0,0.0,40-60,,1.0,patio lounge chair,makeup compact,60.0,40.0,patio lounge chair6,makeup compact5,60.0,60.0,Lounge_Chair_with_Pillow.jpg,P109965_hero.jpg,/static/Category_learning/Stimuli/Experimental_stims/patio lounge chair/Lounge_Chair_with_Pillow.jpg,/static/Category_learning/Stimuli/Experimental_stims/makeup compact/P109965_hero.jpg,0.0,makeup compact,patio lounge chair,40.0,60.0,makeup compact5,patio lounge chair6,60.0,60.0,0.0,137.946,0.946,,
147,,confirmation,,html-keyboard-response,147,277422,0.0-1.0-30.0-0.0-1.0-0.0,0,0,95248,,,,,,28.0,,,,,,,,,,,,,,,,,,,,,,,,,,,,,,,,138.5,0.554,,
148,,isi,,html-keyboard-response,148,279427,0.0-1.0-30.0-0.0-2.0,0,0,95248,,,,,,,,,,,,,,,,,,,,,,,,,,,,,,,,,,,,,,140.5,2.0,,
149,,feedback,,html-keyboard-response,149,280436,0.0-1.0-30.0-0.0-3.0-0.0,0,0,95248,,,,,,28.0,,,,,,,,,,,,,,,,,,,,,,,,,,,,,,,,141.5,1.0,,
150,,iti,,html-keyboard-response,150,281940,0.0-1.0-30.0-0.0-5.0,0,0,95248,,,,,,,,,,,,,,,,,,,,,,,,,,,,,,,,,,,,,,143.0,1.5,,
151,,choice,,html-keyboard-response,151,283098,0.0-1.0-31.0-0.0-0.0,0,0,95248,,1155.0,,,75.0,29.0,29.0,1000.0,3500.0,0.0,1.0,0.0,40-80,,0.0,license plate,tape,40.0,80.0,license plate12,tape7,20.0,80.0,TurtleLicensePlate.jpg,tape dispenser.jpg,/static/Category_learning/Stimuli/Experimental_stims/license plate/TurtleLicensePlate.jpg,/static/Category_learning/Stimuli/Experimental_stims/tape/tape dispenser.jpg,0.0,tape,license plate,80.0,40.0,tape7,license plate12,80.0,20.0,0.0,144.155,1.155,,
152,,confirmation,,html-keyboard-response,152,283449,0.0-1.0-31.0-0.0-1.0-0.0,0,0,95248,,,,,,29.0,,,,,,,,,,,,,,,,,,,,,,,,,,,,,,,,144.5,0.345,,
153,,isi,,html-keyboard-response,153,284453,0.0-1.0-31.0-0.0-2.0,0,0,95248,,,,,,,,,,,,,,,,,,,,,,,,,,,,,,,,,,,,,,145.5,1.0,,
154,,feedback,,html-keyboard-response,154,285458,0.0-1.0-31.0-0.0-3.0-0.0,0,0,95248,,,,,,29.0,,,,,,,,,,,,,,,,,,,,,,,,,,,,,,,,146.5,1.0,,
155,,iti,,html-keyboard-response,155,288966,0.0-1.0-31.0-0.0-5.0,0,0,95248,,,,,,,,,,,,,,,,,,,,,,,,,,,,,,,,,,,,,,150.0,3.5,,
156,,choice,,html-keyboard-response,156,289818,0.0-1.0-32.0-0.0-0.0,0,0,95248,,849.0,,,68.0,30.0,30.0,1000.0,1000.0,0.0,1.0,0.0,20-80,,0.0,desk,yarn,20.0,80.0,desk10,yarn3,20.0,100.0,MEX028.jpg,Aballofblueya.jpg,/static/Category_learning/Stimuli/Experimental_stims/desk/MEX028.jpg,/static/Category_learning/Stimuli/Experimental_stims/yarn/Aballofblueya.jpg,1.0,desk,yarn,20.0,80.0,desk10,yarn3,20.0,100.0,0.0,150.849,0.849,,
157,,confirmation,,html-keyboard-response,157,290477,0.0-1.0-32.0-0.0-1.0-0.0,0,0,95248,,,,,,30.0,,,,,,,,,,,,,,,,,,,,,,,,,,,,,,,,151.5,0.651,,
158,,isi,,html-keyboard-response,158,291481,0.0-1.0-32.0-0.0-2.0,0,0,95248,,,,,,,,,,,,,,,,,,,,,,,,,,,,,,,,,,,,,,152.5,1.0,,
159,,feedback,,html-keyboard-response,159,292489,0.0-1.0-32.0-0.0-3.0-0.0,0,0,95248,,,,,,30.0,,,,,,,,,,,,,,,,,,,,,,,,,,,,,,,,153.5,1.0,,
160,,iti,,html-keyboard-response,160,293497,0.0-1.0-32.0-0.0-5.0,0,0,95248,,,,,,,,,,,,,,,,,,,,,,,,,,,,,,,,,,,,,,154.5,1.0,,
161,,choice,,html-keyboard-response,161,294340,0.0-1.0-33.0-0.0-0.0,0,0,95248,,838.0,,,68.0,31.0,31.0,1500.0,3000.0,0.0,1.0,0.0,20-60,,0.0,fan,poker card,20.0,60.0,fan14,poker card15,40.0,40.0,124771_sk_lg.jpg,9816946.thl.jpg,/static/Category_learning/Stimuli/Experimental_stims/fan/124771_sk_lg.jpg,/static/Category_learning/Stimuli/Experimental_stims/poker card/9816946.thl.jpg,1.0,fan,poker card,20.0,60.0,fan14,poker card15,40.0,40.0,0.0,155.338,0.838,,
162,,confirmation,,html-keyboard-response,162,295009,0.0-1.0-33.0-0.0-1.0-0.0,0,0,95248,,,,,,31.0,,,,,,,,,,,,,,,,,,,,,,,,,,,,,,,,156.0,0.662,,
163,,isi,,html-keyboard-response,163,296515,0.0-1.0-33.0-0.0-2.0,0,0,95248,,,,,,,,,,,,,,,,,,,,,,,,,,,,,,,,,,,,,,157.5,1.5,,
164,,feedback,,html-keyboard-response,164,297523,0.0-1.0-33.0-0.0-3.0-0.0,0,0,95248,,,,,,31.0,,,,,,,,,,,,,,,,,,,,,,,,,,,,,,,,158.5,1.0,,
165,,iti,,html-keyboard-response,165,300531,0.0-1.0-33.0-0.0-5.0,0,0,95248,,,,,,,,,,,,,,,,,,,,,,,,,,,,,,,,,,,,,,161.5,3.0,,
166,,choice,,html-keyboard-response,166,301480,0.0-1.0-34.0-0.0-0.0,0,0,95248,,943.0,,,68.0,32.0,32.0,2000.0,2000.0,0.0,1.0,0.0,60-80,,0.0,nail polish,tape,60.0,80.0,nail polish11,tape10,80.0,60.0,Revlon_Super_Top_Speed_Chrome_Nail_Polish-resized200.jpg,26377601.thl.jpg,/static/Category_learning/Stimuli/Experimental_stims/nail polish/Revlon_Super_Top_Speed_Chrome_Nail_Polish-resized200.jpg,/static/Category_learning/Stimuli/Experimental_stims/tape/26377601.thl.jpg,1.0,nail polish,tape,60.0,80.0,nail polish11,tape10,80.0,60.0,0.0,162.443,0.943,,
167,,confirmation,,html-keyboard-response,167,302046,0.0-1.0-34.0-0.0-1.0-0.0,0,0,95248,,,,,,32.0,,,,,,,,,,,,,,,,,,,,,,,,,,,,,,,,163.0,0.557,,
168,,isi,,html-keyboard-response,168,304050,0.0-1.0-34.0-0.0-2.0,0,0,95248,,,,,,,,,,,,,,,,,,,,,,,,,,,,,,,,,,,,,,165.0,2.0,,
169,,feedback,,html-keyboard-response,169,305053,0.0-1.0-34.0-0.0-3.0-0.0,0,0,95248,,,,,,32.0,,,,,,,,,,,,,,,,,,,,,,,,,,,,,,,,166.0,1.0,,
170,,iti,,html-keyboard-response,170,307059,0.0-1.0-34.0-0.0-5.0,0,0,95248,,,,,,,,,,,,,,,,,,,,,,,,,,,,,,,,,,,,,,168.0,2.0,,
171,,choice,,html-keyboard-response,171,307694,0.0-1.0-35.0-0.0-0.0,0,0,95248,,631.0,,,68.0,33.0,33.0,1000.0,1000.0,0.0,1.0,0.0,20-60,,0.0,baby carriage,power strip,20.0,60.0,baby carriage5,power strip11,20.0,40.0,Baby_Stroller.jpg,41Bw7Tl1G7L._AA262_.jpg,/static/Category_learning/Stimuli/Experimental_stims/baby carriage/Baby_Stroller.jpg,/static/Category_learning/Stimuli/Experimental_stims/power strip/41Bw7Tl1G7L._AA262_.jpg,1.0,baby carriage,power strip,20.0,60.0,baby carriage5,power strip11,20.0,40.0,0.0,168.631,0.631,,
172,,confirmation,,html-keyboard-response,172,308572,0.0-1.0-35.0-0.0-1.0-0.0,0,0,95248,,,,,,33.0,,,,,,,,,,,,,,,,,,,,,,,,,,,,,,,,169.5,0.869,,
173,,isi,,html-keyboard-response,173,309577,0.0-1.0-35.0-0.0-2.0,0,0,95248,,,,,,,,,,,,,,,,,,,,,,,,,,,,,,,,,,,,,,170.5,1.0,,
174,,feedback,,html-keyboard-response,174,310585,0.0-1.0-35.0-0.0-3.0-0.0,0,0,95248,,,,,,33.0,,,,,,,,,,,,,,,,,,,,,,,,,,,,,,,,171.5,1.0,,
175,,iti,,html-keyboard-response,175,311593,0.0-1.0-35.0-0.0-5.0,0,0,95248,,,,,,,,,,,,,,,,,,,,,,,,,,,,,,,,,,,,,,172.5,1.0,,
176,,choice,,html-keyboard-response,176,312270,0.0-1.0-36.0-0.0-0.0,0,0,95248,,674.0,,,68.0,34.0,34.0,3500.0,1500.0,0.0,1.0,0.0,20-20,,,dresser,fan,20.0,20.0,dresser6,fan4,40.0,0.0,ADRESSE96.jpg,AFAN39.jpg,/static/Category_learning/Stimuli/Experimental_stims/dresser/ADRESSE96.jpg,/static/Category_learning/Stimuli/Experimental_stims/fan/AFAN39.jpg,1.0,dresser,fan,20.0,20.0,dresser6,fan4,40.0,0.0,0.0,173.174,0.674,,
177,,confirmation,,html-keyboard-response,177,313102,0.0-1.0-36.0-0.0-1.0-0.0,0,0,95248,,,,,,34.0,,,,,,,,,,,,,,,,,,,,,,,,,,,,,,,,174.0,0.826,,
178,,isi,,html-keyboard-response,178,316608,0.0-1.0-36.0-0.0-2.0,0,0,95248,,,,,,,,,,,,,,,,,,,,,,,,,,,,,,,,,,,,,,177.5,3.5,,
179,,feedback,,html-keyboard-response,179,317614,0.0-1.0-36.0-0.0-3.0-0.0,0,0,95248,,,,,,34.0,,,,,,,,,,,,,,,,,,,,,,,,,,,,,,,,178.5,1.0,,
180,,iti,,html-keyboard-response,180,319122,0.0-1.0-36.0-0.0-5.0,0,0,95248,,,,,,,,,,,,,,,,,,,,,,,,,,,,,,,,,,,,,,180.0,1.5,,
181,,choice,,html-keyboard-response,181,320146,0.0-1.0-37.0-0.0-0.0,0,0,95248,,1022.0,,,68.0,35.0,35.0,1500.0,1500.0,0.0,1.0,0.0,20-80,,1.0,vase,bowl,80.0,20.0,vase9,bowl2,80.0,40.0,Avasewithang2.jpg,AMIXBOWL2.jpg,/static/Category_learning/Stimuli/Experimental_stims/vase/Avasewithang2.jpg,/static/Category_learning/Stimuli/Experimental_stims/bowl/AMIXBOWL2.jpg,1.0,vase,bowl,80.0,20.0,vase9,bowl2,80.0,40.0,0.0,181.022,1.022,,
182,,confirmation,,html-keyboard-response,182,320627,0.0-1.0-37.0-0.0-1.0-0.0,0,0,95248,,,,,,35.0,,,,,,,,,,,,,,,,,,,,,,,,,,,,,,,,181.5,0.478,,
183,,isi,,html-keyboard-response,183,322131,0.0-1.0-37.0-0.0-2.0,0,0,95248,,,,,,,,,,,,,,,,,,,,,,,,,,,,,,,,,,,,,,183.0,1.5,,
184,,feedback,,html-keyboard-response,184,323139,0.0-1.0-37.0-0.0-3.0-0.0,0,0,95248,,,,,,35.0,,,,,,,,,,,,,,,,,,,,,,,,,,,,,,,,184.0,1.0,,
185,,iti,,html-keyboard-response,185,324641,0.0-1.0-37.0-0.0-5.0,0,0,95248,,,,,,,,,,,,,,,,,,,,,,,,,,,,,,,,,,,,,,185.5,1.5,,
186,,choice,,html-keyboard-response,186,325293,0.0-1.0-38.0-0.0-0.0,0,0,95248,,648.0,,,68.0,36.0,36.0,2000.0,1000.0,0.0,1.0,0.0,40-40,,,hammer,lipstick,40.0,40.0,hammer12,lipstick14,20.0,60.0,24oz hammer.jpg,P109907_hero.jpg,/static/Category_learning/Stimuli/Experimental_stims/hammer/24oz hammer.jpg,/static/Category_learning/Stimuli/Experimental_stims/lipstick/P109907_hero.jpg,1.0,hammer,lipstick,40.0,40.0,hammer12,lipstick14,20.0,60.0,0.0,186.148,0.648,,
187,,confirmation,,html-keyboard-response,187,326151,0.0-1.0-38.0-0.0-1.0-0.0,0,0,95248,,,,,,36.0,,,,,,,,,,,,,,,,,,,,,,,,,,,,,,,,187.0,0.852,,
188,,isi,,html-keyboard-response,188,328157,0.0-1.0-38.0-0.0-2.0,0,0,95248,,,,,,,,,,,,,,,,,,,,,,,,,,,,,,,,,,,,,,189.0,2.0,,
189,,feedback,,html-keyboard-response,189,329163,0.0-1.0-38.0-0.0-3.0-0.0,0,0,95248,,,,,,36.0,,,,,,,,,,,,,,,,,,,,,,,,,,,,,,,,190.0,1.0,,
190,,iti,,html-keyboard-response,190,330168,0.0-1.0-38.0-0.0-5.0,0,0,95248,,,,,,,,,,,,,,,,,,,,,,,,,,,,,,,,,,,,,,191.0,1.0,,
191,,choice,,html-keyboard-response,191,331348,0.0-1.0-39.0-0.0-0.0,0,0,95248,,1177.0,,,68.0,37.0,37.0,3000.0,2000.0,0.0,1.0,1.0,80-80,1.0,,vase,vase,80.0,80.0,vase9,vase3,80.0,80.0,Avasewithang2.jpg,vase-006af-1.jpg,/static/Category_learning/Stimuli/Experimental_stims/vase/Avasewithang2.jpg,/static/Category_learning/Stimuli/Experimental_stims/vase/vase-006af-1.jpg,1.0,vase,vase,80.0,80.0,vase9,vase3,80.0,80.0,0.0,192.177,1.177,,
192,,confirmation,,html-keyboard-response,192,331677,0.0-1.0-39.0-0.0-1.0-0.0,0,0,95248,,,,,,37.0,,,,,,,,,,,,,,,,,,,,,,,,,,,,,,,,192.5,0.323,,
193,,isi,,html-keyboard-response,193,334682,0.0-1.0-39.0-0.0-2.0,0,0,95248,,,,,,,,,,,,,,,,,,,,,,,,,,,,,,,,,,,,,,195.5,3.0,,
194,,feedback,,html-keyboard-response,194,335690,0.0-1.0-39.0-0.0-3.0-0.0,0,0,95248,,,,,,37.0,,,,,,,,,,,,,,,,,,,,,,,,,,,,,,,,196.5,1.0,,
195,,iti,,html-keyboard-response,195,337693,0.0-1.0-39.0-0.0-5.0,0,0,95248,,,,,,,,,,,,,,,,,,,,,,,,,,,,,,,,,,,,,,198.5,2.0,,
196,,choice,,html-keyboard-response,196,339040,0.0-1.0-40.0-0.0-0.0,0,0,95248,,1344.0,,,68.0,38.0,38.0,1500.0,3000.0,0.0,1.0,0.0,20-60,,1.0,poker card,door knob,60.0,20.0,poker card13,door knob14,80.0,20.0,9817197.thl.jpg,500_CLANYKAB.jpg,/static/Category_learning/Stimuli/Experimental_stims/poker card/9817197.thl.jpg,/static/Category_learning/Stimuli/Experimental_stims/door knob/500_CLANYKAB.jpg,1.0,poker card,door knob,60.0,20.0,poker card13,door knob14,80.0,20.0,0.0,199.844,1.344,,
197,,confirmation,,html-keyboard-response,197,339203,0.0-1.0-40.0-0.0-1.0-0.0,0,0,95248,,,,,,38.0,,,,,,,,,,,,,,,,,,,,,,,,,,,,,,,,200.0,0.156,,
198,,isi,,html-keyboard-response,198,340706,0.0-1.0-40.0-0.0-2.0,0,0,95248,,,,,,,,,,,,,,,,,,,,,,,,,,,,,,,,,,,,,,201.5,1.5,,
199,,feedback,,html-keyboard-response,199,341713,0.0-1.0-40.0-0.0-3.0-0.0,0,0,95248,,,,,,38.0,,,,,,,,,,,,,,,,,,,,,,,,,,,,,,,,202.5,1.0,,
200,,iti,,html-keyboard-response,200,344717,0.0-1.0-40.0-0.0-5.0,0,0,95248,,,,,,,,,,,,,,,,,,,,,,,,,,,,,,,,,,,,,,205.5,3.0,,
201,,choice,,html-keyboard-response,201,345229,0.0-1.0-41.0-0.0-0.0,0,0,95248,,510.0,,,68.0,39.0,39.0,3500.0,1000.0,0.0,1.0,1.0,20-80,0.0,,dresser,stool,20.0,80.0,dresser6,stool12,40.0,80.0,ADRESSE96.jpg,henrybar_stool1.jpg,/static/Category_learning/Stimuli/Experimental_stims/dresser/ADRESSE96.jpg,/static/Category_learning/Stimuli/Experimental_stims/stool/henrybar_stool1.jpg,1.0,dresser,stool,20.0,80.0,dresser6,stool12,40.0,80.0,0.0,206.01,0.51,,
202,,confirmation,,html-keyboard-response,202,346227,0.0-1.0-41.0-0.0-1.0-0.0,0,0,95248,,,,,,39.0,,,,,,,,,,,,,,,,,,,,,,,,,,,,,,,,207.0,0.99,,
203,,isi,,html-keyboard-response,203,349730,0.0-1.0-41.0-0.0-2.0,0,0,95248,,,,,,,,,,,,,,,,,,,,,,,,,,,,,,,,,,,,,,210.5,3.5,,
204,,feedback,,html-keyboard-response,204,350734,0.0-1.0-41.0-0.0-3.0-0.0,0,0,95248,,,,,,39.0,,,,,,,,,,,,,,,,,,,,,,,,,,,,,,,,211.5,1.0,,
205,,iti,,html-keyboard-response,205,351741,0.0-1.0-41.0-0.0-5.0,0,0,95248,,,,,,,,,,,,,,,,,,,,,,,,,,,,,,,,,,,,,,212.5,1.0,,
206,,choice,,html-keyboard-response,206,353248,0.0-1.0-42.0-0.0-0.0,0,0,95248,,,,,,40.0,40.0,2000.0,3000.0,0.0,1.0,1.0,20-60,0.0,,poker card,baby carriage,60.0,20.0,poker card13,baby carriage5,80.0,20.0,9817197.thl.jpg,Baby_Stroller.jpg,/static/Category_learning/Stimuli/Experimental_stims/poker card/9817197.thl.jpg,/static/Category_learning/Stimuli/Experimental_stims/baby carriage/Baby_Stroller.jpg,,,,,,,,,,1.0,214.0,1.5,,
207,,isi,,html-keyboard-response,207,355256,0.0-1.0-42.0-0.0-2.0,0,0,95248,,,,,,,,,,,,,,,,,,,,,,,,,,,,,,,,,,,,,,216.0,2.0,,
208,,no_response,,html-keyboard-response,208,356263,0.0-1.0-42.0-0.0-4.0-0.0,0,0,95248,,,,,,,,,,,,,,,,,,,,,,,,,,,,,,,,,,,,,,217.0,1.0,,
209,,iti,,html-keyboard-response,209,359287,0.0-1.0-42.0-0.0-5.0,0,0,95248,,,,,,,,,,,,,,,,,,,,,,,,,,,,,,,,,,,,,,220.0,3.0,,
210,,choice,,html-keyboard-response,210,359999,0.0-1.0-42.0-0.1-0.1,0,0,95248,,708.0,,,68.0,40.0,40.0,2000.0,3000.0,0.0,1.0,1.0,20-60,0.0,,poker card,baby carriage,60.0,20.0,poker card13,baby carriage5,80.0,20.0,9817197.thl.jpg,Baby_Stroller.jpg,/static/Category_learning/Stimuli/Experimental_stims/poker card/9817197.thl.jpg,/static/Category_learning/Stimuli/Experimental_stims/baby carriage/Baby_Stroller.jpg,1.0,poker card,baby carriage,60.0,20.0,poker card13,baby carriage5,80.0,20.0,0.0,220.708,0.708,,
211,,confirmation,,html-keyboard-response,211,360797,0.0-1.0-42.0-0.1-1.1-0.1,0,0,95248,,,,,,40.0,,,,,,,,,,,,,,,,,,,,,,,,,,,,,,,,221.5,0.792,,
212,,isi,,html-keyboard-response,212,361803,0.0-1.0-42.0-0.1-2.1,0,0,95248,,,,,,,,,,,,,,,,,,,,,,,,,,,,,,,,,,,,,,222.5,1.0,,
213,,feedback,,html-keyboard-response,213,362808,0.0-1.0-42.0-0.1-3.1-0.1,0,0,95248,,,,,,40.0,,,,,,,,,,,,,,,,,,,,,,,,,,,,,,,,223.5,1.0,,
214,,iti,,html-keyboard-response,214,366313,0.0-1.0-42.0-0.1-5.1,0,0,95248,,,,,,,,,,,,,,,,,,,,,,,,,,,,,,,,,,,,,,227.0,3.5,,
215,,choice,,html-keyboard-response,215,366911,0.0-1.0-43.0-0.0-0.0,0,0,95248,,595.0,,,68.0,41.0,41.0,1000.0,1000.0,0.0,1.0,0.0,20-60,,1.0,small table,bongo,60.0,20.0,small table4,bongo9,40.0,20.0,ACOFTABLE.jpg,22946035.thl.jpg,/static/Category_learning/Stimuli/Experimental_stims/small table/ACOFTABLE.jpg,/static/Category_learning/Stimuli/Experimental_stims/bongo/22946035.thl.jpg,1.0,small table,bongo,60.0,20.0,small table4,bongo9,40.0,20.0,0.0,227.595,0.595,,
216,,confirmation,,html-keyboard-response,216,367821,0.0-1.0-43.0-0.0-1.0-0.0,0,0,95248,,,,,,41.0,,,,,,,,,,,,,,,,,,,,,,,,,,,,,,,,228.5,0.905,,
217,,isi,,html-keyboard-response,217,368824,0.0-1.0-43.0-0.0-2.0,0,0,95248,,,,,,,,,,,,,,,,,,,,,,,,,,,,,,,,,,,,,,229.5,1.0,,
218,,feedback,,html-keyboard-response,218,369829,0.0-1.0-43.0-0.0-3.0-0.0,0,0,95248,,,,,,41.0,,,,,,,,,,,,,,,,,,,,,,,,,,,,,,,,230.5,1.0,,
219,,iti,,html-keyboard-response,219,370834,0.0-1.0-43.0-0.0-5.0,0,0,95248,,,,,,,,,,,,,,,,,,,,,,,,,,,,,,,,,,,,,,231.5,1.0,,
220,,choice,,html-keyboard-response,220,371539,0.0-1.0-44.0-0.0-0.0,0,0,95248,,702.0,,,68.0,42.0,42.0,3500.0,1000.0,0.0,1.0,0.0,60-60,,,necklace,poker card,60.0,60.0,necklace2,poker card5,40.0,40.0,Anecklace7.jpg,22864800.thl.jpg,/static/Category_learning/Stimuli/Experimental_stims/necklace/Anecklace7.jpg,/static/Category_learning/Stimuli/Experimental_stims/poker card/22864800.thl.jpg,1.0,necklace,poker card,60.0,60.0,necklace2,poker card5,40.0,40.0,0.0,232.202,0.702,,
221,,confirmation,,html-keyboard-response,221,372341,0.0-1.0-44.0-0.0-1.0-0.0,0,0,95248,,,,,,42.0,,,,,,,,,,,,,,,,,,,,,,,,,,,,,,,,233.0,0.798,,
222,,isi,,html-keyboard-response,222,375848,0.0-1.0-44.0-0.0-2.0,0,0,95248,,,,,,,,,,,,,,,,,,,,,,,,,,,,,,,,,,,,,,236.5,3.5,,
223,,feedback,,html-keyboard-response,223,376851,0.0-1.0-44.0-0.0-3.0-0.0,0,0,95248,,,,,,42.0,,,,,,,,,,,,,,,,,,,,,,,,,,,,,,,,237.5,1.0,,
224,,iti,,html-keyboard-response,224,377859,0.0-1.0-44.0-0.0-5.0,0,0,95248,,,,,,,,,,,,,,,,,,,,,,,,,,,,,,,,,,,,,,238.5,1.0,,
225,,choice,,html-keyboard-response,225,378498,0.0-1.0-45.0-0.0-0.0,0,0,95248,,637.0,,,68.0,43.0,43.0,2000.0,2000.0,0.0,1.0,0.0,40-60,,0.0,lipstick,power strip,40.0,60.0,lipstick10,power strip10,60.0,60.0,21K0D7QKFAL._SS500_.jpg,6bd437c9-6165-4d36-bf75-9a1038783c6a_400.jpg,/static/Category_learning/Stimuli/Experimental_stims/lipstick/21K0D7QKFAL._SS500_.jpg,/static/Category_learning/Stimuli/Experimental_stims/power strip/6bd437c9-6165-4d36-bf75-9a1038783c6a_400.jpg,1.0,lipstick,power strip,40.0,60.0,lipstick10,power strip10,60.0,60.0,0.0,239.137,0.637,,
226,,confirmation,,html-keyboard-response,226,379369,0.0-1.0-45.0-0.0-1.0-0.0,0,0,95248,,,,,,43.0,,,,,,,,,,,,,,,,,,,,,,,,,,,,,,,,240.0,0.863,,
227,,isi,,html-keyboard-response,227,381373,0.0-1.0-45.0-0.0-2.0,0,0,95248,,,,,,,,,,,,,,,,,,,,,,,,,,,,,,,,,,,,,,242.0,2.0,,
228,,feedback,,html-keyboard-response,228,382376,0.0-1.0-45.0-0.0-3.0-0.0,0,0,95248,,,,,,43.0,,,,,,,,,,,,,,,,,,,,,,,,,,,,,,,,243.0,1.0,,
229,,iti,,html-keyboard-response,229,384381,0.0-1.0-45.0-0.0-5.0,0,0,95248,,,,,,,,,,,,,,,,,,,,,,,,,,,,,,,,,,,,,,245.0,2.0,,
230,,choice,,html-keyboard-response,230,385193,0.0-1.0-46.0-0.0-0.0,0,0,95248,,808.0,,,68.0,44.0,44.0,1000.0,3000.0,0.0,1.0,1.0,40-40,1.0,,lipstick,lipstick,40.0,40.0,lipstick7,lipstick10,60.0,60.0,P101401_hero.jpg,21K0D7QKFAL._SS500_.jpg,/static/Category_learning/Stimuli/Experimental_stims/lipstick/P101401_hero.jpg,/static/Category_learning/Stimuli/Experimental_stims/lipstick/21K0D7QKFAL._SS500_.jpg,1.0,lipstick,lipstick,40.0,40.0,lipstick7,lipstick10,60.0,60.0,0.0,245.808,0.808,,
231,,confirmation,,html-keyboard-response,231,385890,0.0-1.0-46.0-0.0-1.0-0.0,0,0,95248,,,,,,44.0,,,,,,,,,,,,,,,,,,,,,,,,,,,,,,,,246.5,0.692,,
232,,isi,,html-keyboard-response,232,386897,0.0-1.0-46.0-0.0-2.0,0,0,95248,,,,,,,,,,,,,,,,,,,,,,,,,,,,,,,,,,,,,,247.5,1.0,,
233,,feedback,,html-keyboard-response,233,387901,0.0-1.0-46.0-0.0-3.0-0.0,0,0,95248,,,,,,44.0,,,,,,,,,,,,,,,,,,,,,,,,,,,,,,,,248.5,1.0,,
234,,iti,,html-keyboard-response,234,390906,0.0-1.0-46.0-0.0-5.0,0,0,95248,,,,,,,,,,,,,,,,,,,,,,,,,,,,,,,,,,,,,,251.5,3.0,,
235,,choice,,html-keyboard-response,235,391790,0.0-1.0-47.0-0.0-0.0,0,0,95248,,881.0,,,68.0,45.0,45.0,1500.0,1000.0,0.0,1.0,1.0,40-60,0.0,,small table,makeup compact,60.0,40.0,small table4,makeup compact5,40.0,60.0,ACOFTABLE.jpg,P109965_hero.jpg,/static/Category_learning/Stimuli/Experimental_stims/small table/ACOFTABLE.jpg,/static/Category_learning/Stimuli/Experimental_stims/makeup compact/P109965_hero.jpg,1.0,small table,makeup compact,60.0,40.0,small table4,makeup compact5,40.0,60.0,0.0,252.381,0.881,,
236,,confirmation,,html-keyboard-response,236,392412,0.0-1.0-47.0-0.0-1.0-0.0,0,0,95248,,,,,,45.0,,,,,,,,,,,,,,,,,,,,,,,,,,,,,,,,253.0,0.619,,
237,,isi,,html-keyboard-response,237,393916,0.0-1.0-47.0-0.0-2.0,0,0,95248,,,,,,,,,,,,,,,,,,,,,,,,,,,,,,,,,,,,,,254.5,1.5,,
238,,feedback,,html-keyboard-response,238,394920,0.0-1.0-47.0-0.0-3.0-0.0,0,0,95248,,,,,,45.0,,,,,,,,,,,,,,,,,,,,,,,,,,,,,,,,255.5,1.0,,
239,,iti,,html-keyboard-response,239,395925,0.0-1.0-47.0-0.0-5.0,0,0,95248,,,,,,,,,,,,,,,,,,,,,,,,,,,,,,,,,,,,,,256.5,1.0,,
240,,choice,,html-keyboard-response,240,397189,0.0-1.0-48.0-0.0-0.0,0,0,95248,,1261.0,,,75.0,46.0,46.0,1000.0,1500.0,0.0,1.0,0.0,20-40,,0.0,bongo,hammer,20.0,40.0,bongo13,hammer4,0.0,40.0,26388718.thl.jpg,hammernew01.jpg,/static/Category_learning/Stimuli/Experimental_stims/bongo/26388718.thl.jpg,/static/Category_learning/Stimuli/Experimental_stims/hammer/hammernew01.jpg,0.0,hammer,bongo,40.0,20.0,hammer4,bongo13,40.0,0.0,0.0,257.761,1.261,,
241,,confirmation,,html-keyboard-response,241,397436,0.0-1.0-48.0-0.0-1.0-0.0,0,0,95248,,,,,,46.0,,,,,,,,,,,,,,,,,,,,,,,,,,,,,,,,258.0,0.239,,
242,,isi,,html-keyboard-response,242,398440,0.0-1.0-48.0-0.0-2.0,0,0,95248,,,,,,,,,,,,,,,,,,,,,,,,,,,,,,,,,,,,,,259.0,1.0,,
243,,feedback,,html-keyboard-response,243,399446,0.0-1.0-48.0-0.0-3.0-0.0,0,0,95248,,,,,,46.0,,,,,,,,,,,,,,,,,,,,,,,,,,,,,,,,260.0,1.0,,
244,,iti,,html-keyboard-response,244,400949,0.0-1.0-48.0-0.0-5.0,0,0,95248,,,,,,,,,,,,,,,,,,,,,,,,,,,,,,,,,,,,,,261.5,1.5,,
245,,choice,,html-keyboard-response,245,401581,0.0-1.0-49.0-0.0-0.0,0,0,95248,,628.0,,,75.0,47.0,47.0,1000.0,2000.0,0.0,1.0,0.0,40-80,,1.0,telescope,frame,80.0,40.0,telescope15,frame3,80.0,40.0,VictorianDeskTelescope.jpg,AFRAME132.jpg,/static/Category_learning/Stimuli/Experimental_stims/telescope/VictorianDeskTelescope.jpg,/static/Category_learning/Stimuli/Experimental_stims/frame/AFRAME132.jpg,0.0,frame,telescope,40.0,80.0,frame3,telescope15,40.0,80.0,0.0,262.128,0.628,,
246,,confirmation,,html-keyboard-response,246,402462,0.0-1.0-49.0-0.0-1.0-0.0,0,0,95248,,,,,,47.0,,,,,,,,,,,,,,,,,,,,,,,,,,,,,,,,263.0,0.872,,
247,,isi,,html-keyboard-response,247,403470,0.0-1.0-49.0-0.0-2.0,0,0,95248,,,,,,,,,,,,,,,,,,,,,,,,,,,,,,,,,,,,,,264.0,1.0,,
248,,feedback,,html-keyboard-response,248,404478,0.0-1.0-49.0-0.0-3.0-0.0,0,0,95248,,,,,,47.0,,,,,,,,,,,,,,,,,,,,,,,,,,,,,,,,265.0,1.0,,
249,,iti,,html-keyboard-response,249,406483,0.0-1.0-49.0-0.0-5.0,0,0,95248,,,,,,,,,,,,,,,,,,,,,,,,,,,,,,,,,,,,,,267.0,2.0,,
250,,choice,,html-keyboard-response,250,407196,0.0-1.0-50.0-0.0-0.0,0,0,95248,,708.0,,,75.0,48.0,48.0,1000.0,2000.0,0.0,1.0,0.0,20-20,,,bench,flashlight,20.0,20.0,bench5,flashlight3,0.0,20.0,APARKBEN8.jpg,sl_tasklight_2l3w.jpg,/static/Category_learning/Stimuli/Experimental_stims/bench/APARKBEN8.jpg,/static/Category_learning/Stimuli/Experimental_stims/flashlight/sl_tasklight_2l3w.jpg,0.0,flashlight,bench,20.0,20.0,flashlight3,bench5,20.0,0.0,0.0,267.708,0.708,,
251,,confirmation,,html-keyboard-response,251,407997,0.0-1.0-50.0-0.0-1.0-0.0,0,0,95248,,,,,,48.0,,,,,,,,,,,,,,,,,,,,,,,,,,,,,,,,268.5,0.792,,
252,,isi,,html-keyboard-response,252,409000,0.0-1.0-50.0-0.0-2.0,0,0,95248,,,,,,,,,,,,,,,,,,,,,,,,,,,,,,,,,,,,,,269.5,1.0,,
253,,feedback,,html-keyboard-response,253,410009,0.0-1.0-50.0-0.0-3.0-0.0,0,0,95248,,,,,,48.0,,,,,,,,,,,,,,,,,,,,,,,,,,,,,,,,270.5,1.0,,
254,,iti,,html-keyboard-response,254,412014,0.0-1.0-50.0-0.0-5.0,0,0,95248,,,,,,,,,,,,,,,,,,,,,,,,,,,,,,,,,,,,,,272.5,2.0,,
255,,choice,,html-keyboard-response,255,412811,0.0-1.0-51.0-0.0-0.0,0,0,95248,,793.0,,,68.0,49.0,49.0,1500.0,1500.0,0.0,1.0,1.0,40-40,1.0,,hammer,hammer,40.0,40.0,hammer4,hammer12,40.0,20.0,hammernew01.jpg,24oz hammer.jpg,/static/Category_learning/Stimuli/Experimental_stims/hammer/hammernew01.jpg,/static/Category_learning/Stimuli/Experimental_stims/hammer/24oz hammer.jpg,1.0,hammer,hammer,40.0,40.0,hammer4,hammer12,40.0,20.0,0.0,273.293,0.793,,
256,,confirmation,,html-keyboard-response,256,413524,0.0-1.0-51.0-0.0-1.0-0.0,0,0,95248,,,,,,49.0,,,,,,,,,,,,,,,,,,,,,,,,,,,,,,,,274.0,0.707,,
257,,isi,,html-keyboard-response,257,415027,0.0-1.0-51.0-0.0-2.0,0,0,95248,,,,,,,,,,,,,,,,,,,,,,,,,,,,,,,,,,,,,,275.5,1.5,,
258,,feedback,,html-keyboard-response,258,416036,0.0-1.0-51.0-0.0-3.0-0.0,0,0,95248,,,,,,49.0,,,,,,,,,,,,,,,,,,,,,,,,,,,,,,,,276.5,1.0,,
259,,iti,,html-keyboard-response,259,417540,0.0-1.0-51.0-0.0-5.0,0,0,95248,,,,,,,,,,,,,,,,,,,,,,,,,,,,,,,,,,,,,,278.0,1.5,,
260,,choice,,html-keyboard-response,260,418100,0.0-1.0-52.0-0.0-0.0,0,0,95248,,556.0,,,75.0,50.0,50.0,1000.0,1500.0,0.0,1.0,0.0,40-80,,0.0,frame,vase,40.0,80.0,frame11,vase14,60.0,80.0,AFRAME139.jpg,Avase119.jpg,/static/Category_learning/Stimuli/Experimental_stims/frame/AFRAME139.jpg,/static/Category_learning/Stimuli/Experimental_stims/vase/Avase119.jpg,0.0,vase,frame,80.0,40.0,vase14,frame11,80.0,60.0,0.0,278.556,0.556,,
261,,confirmation,,html-keyboard-response,261,419049,0.0-1.0-52.0-0.0-1.0-0.0,0,0,95248,,,,,,50.0,,,,,,,,,,,,,,,,,,,,,,,,,,,,,,,,279.5,0.944,,
262,,isi,,html-keyboard-response,262,420053,0.0-1.0-52.0-0.0-2.0,0,0,95248,,,,,,,,,,,,,,,,,,,,,,,,,,,,,,,,,,,,,,280.5,1.0,,
263,,feedback,,html-keyboard-response,263,421058,0.0-1.0-52.0-0.0-3.0-0.0,0,0,95248,,,,,,50.0,,,,,,,,,,,,,,,,,,,,,,,,,,,,,,,,281.5,1.0,,
264,,iti,,html-keyboard-response,264,422566,0.0-1.0-52.0-0.0-5.0,0,0,95248,,,,,,,,,,,,,,,,,,,,,,,,,,,,,,,,,,,,,,283.0,1.5,,
265,,choice,,html-keyboard-response,265,423302,0.0-1.0-53.0-0.0-0.0,0,0,95248,,732.0,,,68.0,51.0,51.0,2000.0,2000.0,0.0,1.0,0.0,20-60,,1.0,seashell,door knob,60.0,20.0,seashell11,door knob1,80.0,0.0,ASEASH12.jpg,Brass_Door_Handle.jpg,/static/Category_learning/Stimuli/Experimental_stims/seashell/ASEASH12.jpg,/static/Category_learning/Stimuli/Experimental_stims/door knob/Brass_Door_Handle.jpg,1.0,seashell,door knob,60.0,20.0,seashell11,door knob1,80.0,0.0,0.0,283.732,0.732,,
266,,confirmation,,html-keyboard-response,266,424074,0.0-1.0-53.0-0.0-1.0-0.0,0,0,95248,,,,,,51.0,,,,,,,,,,,,,,,,,,,,,,,,,,,,,,,,284.5,0.768,,
267,,isi,,html-keyboard-response,267,426078,0.0-1.0-53.0-0.0-2.0,0,0,95248,,,,,,,,,,,,,,,,,,,,,,,,,,,,,,,,,,,,,,286.5,2.0,,
268,,feedback,,html-keyboard-response,268,427086,0.0-1.0-53.0-0.0-3.0-0.0,0,0,95248,,,,,,51.0,,,,,,,,,,,,,,,,,,,,,,,,,,,,,,,,287.5,1.0,,
269,,iti,,html-keyboard-response,269,429092,0.0-1.0-53.0-0.0-5.0,0,0,95248,,,,,,,,,,,,,,,,,,,,,,,,,,,,,,,,,,,,,,289.5,2.0,,
270,,choice,,html-keyboard-response,270,429806,0.0-1.0-54.0-0.0-0.0,0,0,95248,,711.0,,,75.0,52.0,52.0,2000.0,1000.0,0.0,1.0,0.0,20-40,,0.0,flashlight,makeup compact,20.0,40.0,flashlight2,makeup compact13,0.0,40.0,AV-9 No Battery Flashlight.jpg,31YfapjS3TL._AA250_.jpg,/static/Category_learning/Stimuli/Experimental_stims/flashlight/AV-9 No Battery Flashlight.jpg,/static/Category_learning/Stimuli/Experimental_stims/makeup compact/31YfapjS3TL._AA250_.jpg,0.0,makeup compact,flashlight,40.0,20.0,makeup compact13,flashlight2,40.0,0.0,0.0,290.211,0.711,,
271,,confirmation,,html-keyboard-response,271,430601,0.0-1.0-54.0-0.0-1.0-0.0,0,0,95248,,,,,,52.0,,,,,,,,,,,,,,,,,,,,,,,,,,,,,,,,291.0,0.789,,
272,,isi,,html-keyboard-response,272,432607,0.0-1.0-54.0-0.0-2.0,0,0,95248,,,,,,,,,,,,,,,,,,,,,,,,,,,,,,,,,,,,,,293.0,2.0,,
273,,feedback,,html-keyboard-response,273,433614,0.0-1.0-54.0-0.0-3.0-0.0,0,0,95248,,,,,,52.0,,,,,,,,,,,,,,,,,,,,,,,,,,,,,,,,294.0,1.0,,
274,,iti,,html-keyboard-response,274,434622,0.0-1.0-54.0-0.0-5.0,0,0,95248,,,,,,,,,,,,,,,,,,,,,,,,,,,,,,,,,,,,,,295.0,1.0,,
275,,choice,,html-keyboard-response,275,435312,0.0-1.0-55.0-0.0-0.0,0,0,95248,,686.0,,,68.0,53.0,53.0,1500.0,1000.0,0.0,1.0,0.0,20-60,,1.0,sofa,bongo,60.0,20.0,sofa4,bongo4,40.0,0.0,ALOVSEA15.jpg,26390708.thl.jpg,/static/Category_learning/Stimuli/Experimental_stims/sofa/ALOVSEA15.jpg,/static/Category_learning/Stimuli/Experimental_stims/bongo/26390708.thl.jpg,1.0,sofa,bongo,60.0,20.0,sofa4,bongo4,40.0,0.0,0.0,295.686,0.686,,
276,,confirmation,,html-keyboard-response,276,436131,0.0-1.0-55.0-0.0-1.0-0.0,0,0,95248,,,,,,53.0,,,,,,,,,,,,,,,,,,,,,,,,,,,,,,,,296.5,0.814,,
277,,isi,,html-keyboard-response,277,437637,0.0-1.0-55.0-0.0-2.0,0,0,95248,,,,,,,,,,,,,,,,,,,,,,,,,,,,,,,,,,,,,,298.0,1.5,,
278,,feedback,,html-keyboard-response,278,438643,0.0-1.0-55.0-0.0-3.0-0.0,0,0,95248,,,,,,53.0,,,,,,,,,,,,,,,,,,,,,,,,,,,,,,,,299.0,1.0,,
279,,iti,,html-keyboard-response,279,439651,0.0-1.0-55.0-0.0-5.0,0,0,95248,,,,,,,,,,,,,,,,,,,,,,,,,,,,,,,,,,,,,,300.0,1.0,,
280,,choice,,html-keyboard-response,280,440365,0.0-1.0-56.0-0.0-0.0,0,0,95248,,709.0,,,75.0,54.0,54.0,1000.0,1000.0,0.0,1.0,1.0,60-80,0.0,,yarn,seashell,80.0,60.0,yarn4,seashell11,60.0,80.0,amethyst dreaming boho hy sml.jpg,ASEASH12.jpg,/static/Category_learning/Stimuli/Experimental_stims/yarn/amethyst dreaming boho hy sml.jpg,/static/Category_learning/Stimuli/Experimental_stims/seashell/ASEASH12.jpg,0.0,seashell,yarn,60.0,80.0,seashell11,yarn4,80.0,60.0,0.0,300.709,0.709,,
281,,confirmation,,html-keyboard-response,281,441164,0.0-1.0-56.0-0.0-1.0-0.0,0,0,95248,,,,,,54.0,,,,,,,,,,,,,,,,,,,,,,,,,,,,,,,,301.5,0.791,,
282,,isi,,html-keyboard-response,282,442172,0.0-1.0-56.0-0.0-2.0,0,0,95248,,,,,,,,,,,,,,,,,,,,,,,,,,,,,,,,,,,,,,302.5,1.0,,
283,,feedback,,html-keyboard-response,283,443177,0.0-1.0-56.0-0.0-3.0-0.0,0,0,95248,,,,,,54.0,,,,,,,,,,,,,,,,,,,,,,,,,,,,,,,,303.5,1.0,,
284,,iti,,html-keyboard-response,284,444185,0.0-1.0-56.0-0.0-5.0,0,0,95248,,,,,,,,,,,,,,,,,,,,,,,,,,,,,,,,,,,,,,304.5,1.0,,
285,,choice,,html-keyboard-response,285,444872,0.0-1.0-57.0-0.0-0.0,0,0,95248,,683.0,,,68.0,55.0,55.0,1000.0,1500.0,0.0,1.0,0.0,20-80,,0.0,flashlight,train,20.0,80.0,flashlight14,train11,20.0,60.0,freeplay-jonta-flashlight.jpg,train1.jpg,/static/Category_learning/Stimuli/Experimental_stims/flashlight/freeplay-jonta-flashlight.jpg,/static/Category_learning/Stimuli/Experimental_stims/train/train1.jpg,1.0,flashlight,train,20.0,80.0,flashlight14,train11,20.0,60.0,0.0,305.183,0.683,,
286,,confirmation,,html-keyboard-response,286,445694,0.0-1.0-57.0-0.0-1.0-0.0,0,0,95248,,,,,,55.0,,,,,,,,,,,,,,,,,,,,,,,,,,,,,,,,306.0,0.817,,
287,,isi,,html-keyboard-response,287,446700,0.0-1.0-57.0-0.0-2.0,0,0,95248,,,,,,,,,,,,,,,,,,,,,,,,,,,,,,,,,,,,,,307.0,1.0,,
288,,feedback,,html-keyboard-response,288,447704,0.0-1.0-57.0-0.0-3.0-0.0,0,0,95248,,,,,,55.0,,,,,,,,,,,,,,,,,,,,,,,,,,,,,,,,308.0,1.0,,
289,,iti,,html-keyboard-response,289,449208,0.0-1.0-57.0-0.0-5.0,0,0,95248,,,,,,,,,,,,,,,,,,,,,,,,,,,,,,,,,,,,,,309.5,1.5,,
290,,choice,,html-keyboard-response,290,449889,0.0-1.0-58.0-0.0-0.0,0,0,95248,,677.0,,,75.0,56.0,56.0,1000.0,1500.0,0.0,1.0,0.0,20-80,,0.0,fan,stool,20.0,80.0,fan12,stool9,0.0,100.0,116544_sk_lg.jpg,ASTOOL7.jpg,/static/Category_learning/Stimuli/Experimental_stims/fan/116544_sk_lg.jpg,/static/Category_learning/Stimuli/Experimental_stims/stool/ASTOOL7.jpg,0.0,stool,fan,80.0,20.0,stool9,fan12,100.0,0.0,0.0,310.177,0.677,,
291,,confirmation,,html-keyboard-response,291,450717,0.0-1.0-58.0-0.0-1.0-0.0,0,0,95248,,,,,,56.0,,,,,,,,,,,,,,,,,,,,,,,,,,,,,,,,311.0,0.823,,
292,,isi,,html-keyboard-response,292,451720,0.0-1.0-58.0-0.0-2.0,0,0,95248,,,,,,,,,,,,,,,,,,,,,,,,,,,,,,,,,,,,,,312.0,1.0,,
293,,feedback,,html-keyboard-response,293,452729,0.0-1.0-58.0-0.0-3.0-0.0,0,0,95248,,,,,,56.0,,,,,,,,,,,,,,,,,,,,,,,,,,,,,,,,313.0,1.0,,
294,,iti,,html-keyboard-response,294,454233,0.0-1.0-58.0-0.0-5.0,0,0,95248,,,,,,,,,,,,,,,,,,,,,,,,,,,,,,,,,,,,,,314.5,1.5,,
295,,choice,,html-keyboard-response,295,454954,0.0-1.0-59.0-0.0-0.0,0,0,95248,,717.0,,,68.0,57.0,57.0,1500.0,1000.0,0.0,1.0,0.0,20-40,,1.0,motorcycle,bench,40.0,20.0,motorcycle12,bench4,40.0,0.0,motorcycle14.jpg,30892819.thl.jpg,/static/Category_learning/Stimuli/Experimental_stims/motorcycle/motorcycle14.jpg,/static/Category_learning/Stimuli/Experimental_stims/bench/30892819.thl.jpg,1.0,motorcycle,bench,40.0,20.0,motorcycle12,bench4,40.0,0.0,0.0,315.217,0.717,,
296,,confirmation,,html-keyboard-response,296,455742,0.0-1.0-59.0-0.0-1.0-0.0,0,0,95248,,,,,,57.0,,,,,,,,,,,,,,,,,,,,,,,,,,,,,,,,316.0,0.783,,
297,,isi,,html-keyboard-response,297,457249,0.0-1.0-59.0-0.0-2.0,0,0,95248,,,,,,,,,,,,,,,,,,,,,,,,,,,,,,,,,,,,,,317.5,1.5,,
298,,feedback,,html-keyboard-response,298,458254,0.0-1.0-59.0-0.0-3.0-0.0,0,0,95248,,,,,,57.0,,,,,,,,,,,,,,,,,,,,,,,,,,,,,,,,318.5,1.0,,
299,,iti,,html-keyboard-response,299,459262,0.0-1.0-59.0-0.0-5.0,0,0,95248,,,,,,,,,,,,,,,,,,,,,,,,,,,,,,,,,,,,,,319.5,1.0,,
300,,choice,,html-keyboard-response,300,459979,0.0-1.0-60.0-0.0-0.0,0,0,95248,,714.0,,,75.0,58.0,58.0,1000.0,2000.0,0.0,1.0,1.0,20-20,1.0,,flashlight,flashlight,20.0,20.0,flashlight3,flashlight14,20.0,20.0,sl_tasklight_2l3w.jpg,freeplay-jonta-flashlight.jpg,/static/Category_learning/Stimuli/Experimental_stims/flashlight/sl_tasklight_2l3w.jpg,/static/Category_learning/Stimuli/Experimental_stims/flashlight/freeplay-jonta-flashlight.jpg,0.0,flashlight,flashlight,20.0,20.0,flashlight14,flashlight3,20.0,20.0,0.0,320.214,0.714,,
301,,confirmation,,html-keyboard-response,301,460774,0.0-1.0-60.0-0.0-1.0-0.0,0,0,95248,,,,,,58.0,,,,,,,,,,,,,,,,,,,,,,,,,,,,,,,,321.0,0.786,,
302,,isi,,html-keyboard-response,302,461779,0.0-1.0-60.0-0.0-2.0,0,0,95248,,,,,,,,,,,,,,,,,,,,,,,,,,,,,,,,,,,,,,322.0,1.0,,
303,,feedback,,html-keyboard-response,303,462787,0.0-1.0-60.0-0.0-3.0-0.0,0,0,95248,,,,,,58.0,,,,,,,,,,,,,,,,,,,,,,,,,,,,,,,,323.0,1.0,,
304,,iti,,html-keyboard-response,304,464793,0.0-1.0-60.0-0.0-5.0,0,0,95248,,,,,,,,,,,,,,,,,,,,,,,,,,,,,,,,,,,,,,325.0,2.0,,
305,,choice,,html-keyboard-response,305,465386,0.0-1.0-61.0-0.0-0.0,0,0,95248,,589.0,,,75.0,59.0,59.0,2000.0,2000.0,0.0,1.0,0.0,40-80,,0.0,microscope,yarn,40.0,80.0,microscope12,yarn2,40.0,60.0,usbdigitalmicroscope1_small1.jpg,Aballofyarn66.jpg,/static/Category_learning/Stimuli/Experimental_stims/microscope/usbdigitalmicroscope1_small1.jpg,/static/Category_learning/Stimuli/Experimental_stims/yarn/Aballofyarn66.jpg,0.0,yarn,microscope,80.0,40.0,yarn2,microscope12,60.0,40.0,0.0,325.589,0.589,,
306,,confirmation,,html-keyboard-response,306,466302,0.0-1.0-61.0-0.0-1.0-0.0,0,0,95248,,,,,,59.0,,,,,,,,,,,,,,,,,,,,,,,,,,,,,,,,326.5,0.911,,
307,,isi,,html-keyboard-response,307,468307,0.0-1.0-61.0-0.0-2.0,0,0,95248,,,,,,,,,,,,,,,,,,,,,,,,,,,,,,,,,,,,,,328.5,2.0,,
308,,feedback,,html-keyboard-response,308,469316,0.0-1.0-61.0-0.0-3.0-0.0,0,0,95248,,,,,,59.0,,,,,,,,,,,,,,,,,,,,,,,,,,,,,,,,329.5,1.0,,
309,,iti,,html-keyboard-response,309,471320,0.0-1.0-61.0-0.0-5.0,0,0,95248,,,,,,,,,,,,,,,,,,,,,,,,,,,,,,,,,,,,,,331.5,2.0,,
310,,choice,,html-keyboard-response,310,472144,0.0-1.0-62.0-0.0-0.0,0,0,95248,,819.0,,,68.0,60.0,60.0,1000.0,1500.0,0.0,1.0,0.0,60-60,,,nail polish,necklace,60.0,60.0,nail polish2,necklace8,80.0,40.0,froggy_t.jpg,Anecklace20.jpg,/static/Category_learning/Stimuli/Experimental_stims/nail polish/froggy_t.jpg,/static/Category_learning/Stimuli/Experimental_stims/necklace/Anecklace20.jpg,1.0,nail polish,necklace,60.0,60.0,nail polish2,necklace8,80.0,40.0,0.0,332.319,0.819,,
311,,confirmation,,html-keyboard-response,311,472830,0.0-1.0-62.0-0.0-1.0-0.0,0,0,95248,,,,,,60.0,,,,,,,,,,,,,,,,,,,,,,,,,,,,,,,,333.0,0.681,,
312,,isi,,html-keyboard-response,312,473838,0.0-1.0-62.0-0.0-2.0,0,0,95248,,,,,,,,,,,,,,,,,,,,,,,,,,,,,,,,,,,,,,334.0,1.0,,
313,,feedback,,html-keyboard-response,313,474846,0.0-1.0-62.0-0.0-3.0-0.0,0,0,95248,,,,,,60.0,,,,,,,,,,,,,,,,,,,,,,,,,,,,,,,,335.0,1.0,,
314,,iti,,html-keyboard-response,314,476350,0.0-1.0-62.0-0.0-5.0,0,0,95248,,,,,,,,,,,,,,,,,,,,,,,,,,,,,,,,,,,,,,336.5,1.5,,
315,,choice,,html-keyboard-response,315,476903,0.0-1.0-63.0-0.0-0.0,0,0,95248,,549.0,,,75.0,61.0,61.0,1000.0,1500.0,0.0,1.0,0.0,60-80,,1.0,stool,small table,80.0,60.0,stool15,small table6,100.0,80.0,ASTOOL.jpg,ATABLE88.jpg,/static/Category_learning/Stimuli/Experimental_stims/stool/ASTOOL.jpg,/static/Category_learning/Stimuli/Experimental_stims/small table/ATABLE88.jpg,0.0,small table,stool,60.0,80.0,small table6,stool15,80.0,100.0,0.0,337.049,0.549,,
316,,confirmation,,html-keyboard-response,316,477859,0.0-1.0-63.0-0.0-1.0-0.0,0,0,95248,,,,,,61.0,,,,,,,,,,,,,,,,,,,,,,,,,,,,,,,,338.0,0.951,,
317,,isi,,html-keyboard-response,317,478868,0.0-1.0-63.0-0.0-2.0,0,0,95248,,,,,,,,,,,,,,,,,,,,,,,,,,,,,,,,,,,,,,339.0,1.0,,
318,,feedback,,html-keyboard-response,318,479875,0.0-1.0-63.0-0.0-3.0-0.0,0,0,95248,,,,,,61.0,,,,,,,,,,,,,,,,,,,,,,,,,,,,,,,,340.0,1.0,,
319,,iti,,html-keyboard-response,319,481379,0.0-1.0-63.0-0.0-5.0,0,0,95248,,,,,,,,,,,,,,,,,,,,,,,,,,,,,,,,,,,,,,341.5,1.5,,
320,,choice,,html-keyboard-response,320,482052,0.0-1.0-64.0-0.0-0.0,0,0,95248,,669.0,,,68.0,62.0,62.0,1000.0,1000.0,0.0,1.0,0.0,40-60,,1.0,seashell,microscope,60.0,40.0,seashell9,microscope11,80.0,20.0,ASEASH5.jpg,konus5604microscope.jpg,/static/Category_learning/Stimuli/Experimental_stims/seashell/ASEASH5.jpg,/static/Category_learning/Stimuli/Experimental_stims/microscope/konus5604microscope.jpg,1.0,seashell,microscope,60.0,40.0,seashell9,microscope11,80.0,20.0,0.0,342.169,0.669,,
321,,confirmation,,html-keyboard-response,321,482889,0.0-1.0-64.0-0.0-1.0-0.0,0,0,95248,,,,,,62.0,,,,,,,,,,,,,,,,,,,,,,,,,,,,,,,,343.0,0.831,,
322,,isi,,html-keyboard-response,322,483896,0.0-1.0-64.0-0.0-2.0,0,0,95248,,,,,,,,,,,,,,,,,,,,,,,,,,,,,,,,,,,,,,344.0,1.0,,
323,,feedback,,html-keyboard-response,323,484905,0.0-1.0-64.0-0.0-3.0-0.0,0,0,95248,,,,,,62.0,,,,,,,,,,,,,,,,,,,,,,,,,,,,,,,,345.0,1.0,,
324,,iti,,html-keyboard-response,324,485913,0.0-1.0-64.0-0.0-5.0,0,0,95248,,,,,,,,,,,,,,,,,,,,,,,,,,,,,,,,,,,,,,346.0,1.0,,
325,,choice,,html-keyboard-response,325,486507,0.0-1.0-65.0-0.0-0.0,0,0,95248,,590.0,,,68.0,63.0,63.0,1000.0,1500.0,0.0,1.0,0.0,20-80,,0.0,bowl,stool,20.0,80.0,bowl3,stool5,40.0,60.0,ABOWL8.jpg,ASTOOL23.jpg,/static/Category_learning/Stimuli/Experimental_stims/bowl/ABOWL8.jpg,/static/Category_learning/Stimuli/Experimental_stims/stool/ASTOOL23.jpg,1.0,bowl,stool,20.0,80.0,bowl3,stool5,40.0,60.0,0.0,346.59,0.59,,
326,,confirmation,,html-keyboard-response,326,487425,0.0-1.0-65.0-0.0-1.0-0.0,0,0,95248,,,,,,63.0,,,,,,,,,,,,,,,,,,,,,,,,,,,,,,,,347.5,0.91,,
327,,isi,,html-keyboard-response,327,488430,0.0-1.0-65.0-0.0-2.0,0,0,95248,,,,,,,,,,,,,,,,,,,,,,,,,,,,,,,,,,,,,,348.5,1.0,,
328,,feedback,,html-keyboard-response,328,489438,0.0-1.0-65.0-0.0-3.0-0.0,0,0,95248,,,,,,63.0,,,,,,,,,,,,,,,,,,,,,,,,,,,,,,,,349.5,1.0,,
329,,iti,,html-keyboard-response,329,490942,0.0-1.0-65.0-0.0-5.0,0,0,95248,,,,,,,,,,,,,,,,,,,,,,,,,,,,,,,,,,,,,,351.0,1.5,,
330,,block_over,,html-keyboard-response,330,722877,0.0-1.0-65.0-0.0-7.0-0.0,0,0,95248,,231928.0,,,68.0,63.0,,,,,,,,,,,,,,,,,,,,,,,,,,,,,,,,,,,
331,,start_run,,html-keyboard-response,331,725557,0.0-1.0-65.0-0.0-7.0-1.0,0,0,95248,,2678.0,,,84.0,,,,,,,,,,,,,,,,,,,,,,,,,,,,,,,,,,,,
332,,choice,,html-keyboard-response,332,726525,0.0-1.0-66.0-0.0-0.0,0,0,95248,,965.0,,,68.0,64.0,65.0,1000.0,1000.0,0.0,2.0,0.0,40-80,,1.0,watch,makeup compact,80.0,40.0,watch1,makeup compact9,80.0,40.0,B000B5K8XI.01-A2E7J74KJYV9ZH._AA280_SCLZZZZZZZ_V53007008_.jpg,b_102019.jpg,/static/Category_learning/Stimuli/Experimental_stims/watch/B000B5K8XI.01-A2E7J74KJYV9ZH._AA280_SCLZZZZZZZ_V53007008_.jpg,/static/Category_learning/Stimuli/Experimental_stims/makeup compact/b_102019.jpg,1.0,watch,makeup compact,80.0,40.0,watch1,makeup compact9,80.0,40.0,0.0,0.965,0.965,,
333,,confirmation,,html-keyboard-response,333,727065,0.0-1.0-66.0-0.0-1.0-0.0,0,0,95248,,,,,,64.0,,,,,,,,,,,,,,,,,,,,,,,,,,,,,,,,1.5,0.535,,
334,,isi,,html-keyboard-response,334,728073,0.0-1.0-66.0-0.0-2.0,0,0,95248,,,,,,,,,,,,,,,,,,,,,,,,,,,,,,,,,,,,,,2.5,1.0,,
335,,feedback,,html-keyboard-response,335,729081,0.0-1.0-66.0-0.0-3.0-0.0,0,0,95248,,,,,,64.0,,,,,,,,,,,,,,,,,,,,,,,,,,,,,,,,3.5,1.0,,
336,,iti,,html-keyboard-response,336,730089,0.0-1.0-66.0-0.0-5.0,0,0,95248,,,,,,,,,,,,,,,,,,,,,,,,,,,,,,,,,,,,,,4.5,1.0,,
337,,choice,,html-keyboard-response,337,730733,0.0-1.0-67.0-0.0-0.0,0,0,95248,,641.0,,,68.0,65.0,66.0,3500.0,2000.0,0.0,2.0,0.0,20-80,,1.0,vase,bench,80.0,20.0,vase12,bench13,100.0,40.0,Abluevase2.jpg,ABROWNBE4.jpg,/static/Category_learning/Stimuli/Experimental_stims/vase/Abluevase2.jpg,/static/Category_learning/Stimuli/Experimental_stims/bench/ABROWNBE4.jpg,1.0,vase,bench,80.0,20.0,vase12,bench13,100.0,40.0,0.0,5.141,0.641,,
338,,confirmation,,html-keyboard-response,338,731598,0.0-1.0-67.0-0.0-1.0-0.0,0,0,95248,,,,,,65.0,,,,,,,,,,,,,,,,,,,,,,,,,,,,,,,,6.0,0.859,,
339,,isi,,html-keyboard-response,339,735100,0.0-1.0-67.0-0.0-2.0,0,0,95248,,,,,,,,,,,,,,,,,,,,,,,,,,,,,,,,,,,,,,9.5,3.5,,
340,,feedback,,html-keyboard-response,340,736106,0.0-1.0-67.0-0.0-3.0-0.0,0,0,95248,,,,,,65.0,,,,,,,,,,,,,,,,,,,,,,,,,,,,,,,,10.5,1.0,,
341,,iti,,html-keyboard-response,341,738113,0.0-1.0-67.0-0.0-5.0,0,0,95248,,,,,,,,,,,,,,,,,,,,,,,,,,,,,,,,,,,,,,12.5,2.0,,
342,,choice,,html-keyboard-response,342,738748,0.0-1.0-68.0-0.0-0.0,0,0,95248,,632.0,,,68.0,66.0,67.0,1000.0,1000.0,0.0,2.0,0.0,20-80,,0.0,fan,trumpet,20.0,80.0,fan2,trumpet12,40.0,80.0,507349_sk_lg.jpg,hornabariton.jpg,/static/Category_learning/Stimuli/Experimental_stims/fan/507349_sk_lg.jpg,/static/Category_learning/Stimuli/Experimental_stims/trumpet/hornabariton.jpg,1.0,fan,trumpet,20.0,80.0,fan2,trumpet12,40.0,80.0,0.0,13.132,0.632,,
343,,confirmation,,html-keyboard-response,343,739624,0.0-1.0-68.0-0.0-1.0-0.0,0,0,95248,,,,,,66.0,,,,,,,,,,,,,,,,,,,,,,,,,,,,,,,,14.0,0.868,,
344,,isi,,html-keyboard-response,344,740631,0.0-1.0-68.0-0.0-2.0,0,0,95248,,,,,,,,,,,,,,,,,,,,,,,,,,,,,,,,,,,,,,15.0,1.0,,
345,,feedback,,html-keyboard-response,345,741634,0.0-1.0-68.0-0.0-3.0-0.0,0,0,95248,,,,,,66.0,,,,,,,,,,,,,,,,,,,,,,,,,,,,,,,,16.0,1.0,,
346,,iti,,html-keyboard-response,346,742636,0.0-1.0-68.0-0.0-5.0,0,0,95248,,,,,,,,,,,,,,,,,,,,,,,,,,,,,,,,,,,,,,17.0,1.0,,
347,,choice,,html-keyboard-response,347,743362,0.0-1.0-69.0-0.0-0.0,0,0,95248,,722.0,,,75.0,67.0,68.0,2000.0,1000.0,0.0,2.0,0.0,60-60,,,pen,poker card,60.0,60.0,pen4,poker card9,80.0,80.0,Montblanc_Greta_Garbo_BP copy.jpg,9817230.thl.jpg,/static/Category_learning/Stimuli/Experimental_stims/pen/Montblanc_Greta_Garbo_BP copy.jpg,/static/Category_learning/Stimuli/Experimental_stims/poker card/9817230.thl.jpg,0.0,poker card,pen,60.0,60.0,poker card9,pen4,80.0,80.0,0.0,17.722,0.722,,
348,,confirmation,,html-keyboard-response,348,744144,0.0-1.0-69.0-0.0-1.0-0.0,0,0,95248,,,,,,67.0,,,,,,,,,,,,,,,,,,,,,,,,,,,,,,,,18.5,0.778,,
349,,isi,,html-keyboard-response,349,746148,0.0-1.0-69.0-0.0-2.0,0,0,95248,,,,,,,,,,,,,,,,,,,,,,,,,,,,,,,,,,,,,,20.5,2.0,,
350,,feedback,,html-keyboard-response,350,747154,0.0-1.0-69.0-0.0-3.0-0.0,0,0,95248,,,,,,67.0,,,,,,,,,,,,,,,,,,,,,,,,,,,,,,,,21.5,1.0,,
351,,iti,,html-keyboard-response,351,748156,0.0-1.0-69.0-0.0-5.0,0,0,95248,,,,,,,,,,,,,,,,,,,,,,,,,,,,,,,,,,,,,,22.5,1.0,,
352,,choice,,html-keyboard-response,352,749095,0.0-1.0-70.0-0.0-0.0,0,0,95248,,936.0,,,68.0,68.0,69.0,1000.0,1000.0,0.0,2.0,0.0,20-20,,,baby carriage,fan,20.0,20.0,baby carriage9,fan11,0.0,0.0,Antique baby Carriage 7.jpg,n_sf.jpg,/static/Category_learning/Stimuli/Experimental_stims/baby carriage/Antique baby Carriage 7.jpg,/static/Category_learning/Stimuli/Experimental_stims/fan/n_sf.jpg,1.0,baby carriage,fan,20.0,20.0,baby carriage9,fan11,0.0,0.0,0.0,23.436,0.936,,
353,,confirmation,,html-keyboard-response,353,749666,0.0-1.0-70.0-0.0-1.0-0.0,0,0,95248,,,,,,68.0,,,,,,,,,,,,,,,,,,,,,,,,,,,,,,,,24.0,0.564,,
354,,isi,,html-keyboard-response,354,750670,0.0-1.0-70.0-0.0-2.0,0,0,95248,,,,,,,,,,,,,,,,,,,,,,,,,,,,,,,,,,,,,,25.0,1.0,,
355,,feedback,,html-keyboard-response,355,751677,0.0-1.0-70.0-0.0-3.0-0.0,0,0,95248,,,,,,68.0,,,,,,,,,,,,,,,,,,,,,,,,,,,,,,,,26.0,1.0,,
356,,iti,,html-keyboard-response,356,752685,0.0-1.0-70.0-0.0-5.0,0,0,95248,,,,,,,,,,,,,,,,,,,,,,,,,,,,,,,,,,,,,,27.0,1.0,,
357,,choice,,html-keyboard-response,357,753360,0.0-1.0-71.0-0.0-0.0,0,0,95248,,672.0,,,75.0,69.0,70.0,1500.0,1000.0,0.0,2.0,0.0,20-80,,1.0,stool,dresser,80.0,20.0,stool2,dresser1,60.0,0.0,ASTOOL46.jpg,ADRESSE52.jpg,/static/Category_learning/Stimuli/Experimental_stims/stool/ASTOOL46.jpg,/static/Category_learning/Stimuli/Experimental_stims/dresser/ADRESSE52.jpg,0.0,dresser,stool,20.0,80.0,dresser1,stool2,0.0,60.0,0.0,27.672,0.672,,
358,,confirmation,,html-keyboard-response,358,754195,0.0-1.0-71.0-0.0-1.0-0.0,0,0,95248,,,,,,69.0,,,,,,,,,,,,,,,,,,,,,,,,,,,,,,,,28.5,0.828,,
359,,isi,,html-keyboard-response,359,755701,0.0-1.0-71.0-0.0-2.0,0,0,95248,,,,,,,,,,,,,,,,,,,,,,,,,,,,,,,,,,,,,,30.0,1.5,,
360,,feedback,,html-keyboard-response,360,756707,0.0-1.0-71.0-0.0-3.0-0.0,0,0,95248,,,,,,69.0,,,,,,,,,,,,,,,,,,,,,,,,,,,,,,,,31.0,1.0,,
361,,iti,,html-keyboard-response,361,757714,0.0-1.0-71.0-0.0-5.0,0,0,95248,,,,,,,,,,,,,,,,,,,,,,,,,,,,,,,,,,,,,,32.0,1.0,,
362,,choice,,html-keyboard-response,362,758537,0.0-1.0-72.0-0.0-0.0,0,0,95248,,819.0,,,68.0,70.0,71.0,3500.0,2000.0,0.0,2.0,0.0,20-80,,0.0,desk,stool,20.0,80.0,desk4,stool11,40.0,60.0,AbbeyMiniRadialBIG(1).jpg,ASTOOL28.jpg,/static/Category_learning/Stimuli/Experimental_stims/desk/AbbeyMiniRadialBIG(1).jpg,/static/Category_learning/Stimuli/Experimental_stims/stool/ASTOOL28.jpg,1.0,desk,stool,20.0,80.0,desk4,stool11,40.0,60.0,0.0,32.819,0.819,,
363,,confirmation,,html-keyboard-response,363,759223,0.0-1.0-72.0-0.0-1.0-0.0,0,0,95248,,,,,,70.0,,,,,,,,,,,,,,,,,,,,,,,,,,,,,,,,33.5,0.681,,
364,,isi,,html-keyboard-response,364,762727,0.0-1.0-72.0-0.0-2.0,0,0,95248,,,,,,,,,,,,,,,,,,,,,,,,,,,,,,,,,,,,,,37.0,3.5,,
365,,feedback,,html-keyboard-response,365,763733,0.0-1.0-72.0-0.0-3.0-0.0,0,0,95248,,,,,,70.0,,,,,,,,,,,,,,,,,,,,,,,,,,,,,,,,38.0,1.0,,
366,,iti,,html-keyboard-response,366,765740,0.0-1.0-72.0-0.0-5.0,0,0,95248,,,,,,,,,,,,,,,,,,,,,,,,,,,,,,,,,,,,,,40.0,2.0,,
367,,choice,,html-keyboard-response,367,766510,0.0-1.0-73.0-0.0-0.0,0,0,95248,,767.0,,,75.0,71.0,72.0,2000.0,1500.0,0.0,2.0,0.0,40-60,,0.0,license plate,poker card,40.0,60.0,license plate1,poker card2,40.0,60.0,il-423-3784.jpg,22864716.thl.jpg,/static/Category_learning/Stimuli/Experimental_stims/license plate/il-423-3784.jpg,/static/Category_learning/Stimuli/Experimental_stims/poker card/22864716.thl.jpg,0.0,poker card,license plate,60.0,40.0,poker card2,license plate1,60.0,40.0,0.0,40.767,0.767,,
368,,confirmation,,html-keyboard-response,368,767250,0.0-1.0-73.0-0.0-1.0-0.0,0,0,95248,,,,,,71.0,,,,,,,,,,,,,,,,,,,,,,,,,,,,,,,,41.5,0.733,,
369,,isi,,html-keyboard-response,369,769257,0.0-1.0-73.0-0.0-2.0,0,0,95248,,,,,,,,,,,,,,,,,,,,,,,,,,,,,,,,,,,,,,43.5,2.0,,
370,,feedback,,html-keyboard-response,370,770265,0.0-1.0-73.0-0.0-3.0-0.0,0,0,95248,,,,,,71.0,,,,,,,,,,,,,,,,,,,,,,,,,,,,,,,,44.5,1.0,,
371,,iti,,html-keyboard-response,371,771769,0.0-1.0-73.0-0.0-5.0,0,0,95248,,,,,,,,,,,,,,,,,,,,,,,,,,,,,,,,,,,,,,46.0,1.5,,
372,,choice,,html-keyboard-response,372,772715,0.0-1.0-74.0-0.0-0.0,0,0,95248,,942.0,,,68.0,72.0,73.0,1500.0,1500.0,0.0,2.0,1.0,20-20,1.0,,desk,desk,20.0,20.0,desk10,desk4,20.0,40.0,MEX028.jpg,AbbeyMiniRadialBIG(1).jpg,/static/Category_learning/Stimuli/Experimental_stims/desk/MEX028.jpg,/static/Category_learning/Stimuli/Experimental_stims/desk/AbbeyMiniRadialBIG(1).jpg,1.0,desk,desk,20.0,20.0,desk10,desk4,20.0,40.0,0.0,46.942,0.942,,
373,,confirmation,,html-keyboard-response,373,773277,0.0-1.0-74.0-0.0-1.0-0.0,0,0,95248,,,,,,72.0,,,,,,,,,,,,,,,,,,,,,,,,,,,,,,,,47.5,0.558,,
374,,isi,,html-keyboard-response,374,774782,0.0-1.0-74.0-0.0-2.0,0,0,95248,,,,,,,,,,,,,,,,,,,,,,,,,,,,,,,,,,,,,,49.0,1.5,,
375,,feedback,,html-keyboard-response,375,775789,0.0-1.0-74.0-0.0-3.0-0.0,0,0,95248,,,,,,72.0,,,,,,,,,,,,,,,,,,,,,,,,,,,,,,,,50.0,1.0,,
376,,iti,,html-keyboard-response,376,777293,0.0-1.0-74.0-0.0-5.0,0,0,95248,,,,,,,,,,,,,,,,,,,,,,,,,,,,,,,,,,,,,,51.5,1.5,,
377,,choice,,html-keyboard-response,377,777936,0.0-1.0-75.0-0.0-0.0,0,0,95248,,639.0,,,75.0,73.0,74.0,1000.0,2000.0,0.0,2.0,0.0,20-60,,0.0,flashlight,poker card,20.0,60.0,flashlight8,poker card12,40.0,80.0,Streamlight-Stinger-Rechargeable-Flashlight-with-Charger-Black-75014-B00008BFSI-L.jpg,22865676.thl.jpg,/static/Category_learning/Stimuli/Experimental_stims/flashlight/Streamlight-Stinger-Rechargeable-Flashlight-with-Charger-Black-75014-B00008BFSI-L.jpg,/static/Category_learning/Stimuli/Experimental_stims/poker card/22865676.thl.jpg,0.0,poker card,flashlight,60.0,20.0,poker card12,flashlight8,80.0,40.0,0.0,52.139,0.639,,
378,,confirmation,,html-keyboard-response,378,778802,0.0-1.0-75.0-0.0-1.0-0.0,0,0,95248,,,,,,73.0,,,,,,,,,,,,,,,,,,,,,,,,,,,,,,,,53.0,0.861,,
379,,isi,,html-keyboard-response,379,779806,0.0-1.0-75.0-0.0-2.0,0,0,95248,,,,,,,,,,,,,,,,,,,,,,,,,,,,,,,,,,,,,,54.0,1.0,,
380,,feedback,,html-keyboard-response,380,780810,0.0-1.0-75.0-0.0-3.0-0.0,0,0,95248,,,,,,73.0,,,,,,,,,,,,,,,,,,,,,,,,,,,,,,,,55.0,1.0,,
381,,iti,,html-keyboard-response,381,782813,0.0-1.0-75.0-0.0-5.0,0,0,95248,,,,,,,,,,,,,,,,,,,,,,,,,,,,,,,,,,,,,,57.0,2.0,,
382,,choice,,html-keyboard-response,382,783460,0.0-1.0-76.0-0.0-0.0,0,0,95248,,643.0,,,75.0,74.0,75.0,1500.0,1000.0,0.0,2.0,0.0,20-80,,0.0,bongo,stool,20.0,80.0,bongo3,stool4,20.0,60.0,26390697.thl.jpg,ASTOOL22.jpg,/static/Category_learning/Stimuli/Experimental_stims/bongo/26390697.thl.jpg,/static/Category_learning/Stimuli/Experimental_stims/stool/ASTOOL22.jpg,0.0,stool,bongo,80.0,20.0,stool4,bongo3,60.0,20.0,0.0,57.643,0.643,,
383,,confirmation,,html-keyboard-response,383,784322,0.0-1.0-76.0-0.0-1.0-0.0,0,0,95248,,,,,,74.0,,,,,,,,,,,,,,,,,,,,,,,,,,,,,,,,58.5,0.857,,
384,,isi,,html-keyboard-response,384,785826,0.0-1.0-76.0-0.0-2.0,0,0,95248,,,,,,,,,,,,,,,,,,,,,,,,,,,,,,,,,,,,,,60.0,1.5,,
385,,feedback,,html-keyboard-response,385,786829,0.0-1.0-76.0-0.0-3.0-0.0,0,0,95248,,,,,,74.0,,,,,,,,,,,,,,,,,,,,,,,,,,,,,,,,61.0,1.0,,
386,,iti,,html-keyboard-response,386,787837,0.0-1.0-76.0-0.0-5.0,0,0,95248,,,,,,,,,,,,,,,,,,,,,,,,,,,,,,,,,,,,,,62.0,1.0,,
387,,choice,,html-keyboard-response,387,789277,0.0-1.0-77.0-0.0-0.0,0,0,95248,,1436.0,,,68.0,75.0,76.0,3000.0,2000.0,0.0,2.0,0.0,40-40,,,makeup compact,motorcycle,40.0,40.0,makeup compact6,motorcycle8,20.0,20.0,P0754_hero.jpg,Motorcycle903425j2.jpg,/static/Category_learning/Stimuli/Experimental_stims/makeup compact/P0754_hero.jpg,/static/Category_learning/Stimuli/Experimental_stims/motorcycle/Motorcycle903425j2.jpg,1.0,makeup compact,motorcycle,40.0,40.0,makeup compact6,motorcycle8,20.0,20.0,0.0,63.436,1.436,,
388,,confirmation,,html-keyboard-response,388,789344,0.0-1.0-77.0-0.0-1.0-0.0,0,0,95248,,,,,,75.0,,,,,,,,,,,,,,,,,,,,,,,,,,,,,,,,63.5,0.064,,
389,,isi,,html-keyboard-response,389,792350,0.0-1.0-77.0-0.0-2.0,0,0,95248,,,,,,,,,,,,,,,,,,,,,,,,,,,,,,,,,,,,,,66.5,3.0,,
390,,feedback,,html-keyboard-response,390,793357,0.0-1.0-77.0-0.0-3.0-0.0,0,0,95248,,,,,,75.0,,,,,,,,,,,,,,,,,,,,,,,,,,,,,,,,67.5,1.0,,
391,,iti,,html-keyboard-response,391,795364,0.0-1.0-77.0-0.0-5.0,0,0,95248,,,,,,,,,,,,,,,,,,,,,,,,,,,,,,,,,,,,,,69.5,2.0,,
392,,choice,,html-keyboard-response,392,795970,0.0-1.0-78.0-0.0-0.0,0,0,95248,,602.0,,,75.0,76.0,77.0,3000.0,1000.0,0.0,2.0,1.0,60-60,1.0,,poker card,poker card,60.0,60.0,poker card12,poker card2,80.0,60.0,22865676.thl.jpg,22864716.thl.jpg,/static/Category_learning/Stimuli/Experimental_stims/poker card/22865676.thl.jpg,/static/Category_learning/Stimuli/Experimental_stims/poker card/22864716.thl.jpg,0.0,poker card,poker card,60.0,60.0,poker card2,poker card12,60.0,80.0,0.0,70.102,0.602,,
393,,confirmation,,html-keyboard-response,393,796877,0.0-1.0-78.0-0.0-1.0-0.0,0,0,95248,,,,,,76.0,,,,,,,,,,,,,,,,,,,,,,,,,,,,,,,,71.0,0.898,,
394,,isi,,html-keyboard-response,394,799885,0.0-1.0-78.0-0.0-2.0,0,0,95248,,,,,,,,,,,,,,,,,,,,,,,,,,,,,,,,,,,,,,74.0,3.0,,
395,,feedback,,html-keyboard-response,395,800893,0.0-1.0-78.0-0.0-3.0-0.0,0,0,95248,,,,,,76.0,,,,,,,,,,,,,,,,,,,,,,,,,,,,,,,,75.0,1.0,,
396,,iti,,html-keyboard-response,396,801900,0.0-1.0-78.0-0.0-5.0,0,0,95248,,,,,,,,,,,,,,,,,,,,,,,,,,,,,,,,,,,,,,76.0,1.0,,
397,,choice,,html-keyboard-response,397,802648,0.0-1.0-79.0-0.0-0.0,0,0,95248,,745.0,,,68.0,77.0,78.0,1500.0,1000.0,0.0,2.0,0.0,60-60,,,patio lounge chair,pen,60.0,60.0,patio lounge chair9,pen6,60.0,40.0,43-3.jpg,executive_pen2.jpg,/static/Category_learning/Stimuli/Experimental_stims/patio lounge chair/43-3.jpg,/static/Category_learning/Stimuli/Experimental_stims/pen/executive_pen2.jpg,1.0,patio lounge chair,pen,60.0,60.0,patio lounge chair9,pen6,60.0,40.0,0.0,76.745,0.745,,
398,,confirmation,,html-keyboard-response,398,803411,0.0-1.0-79.0-0.0-1.0-0.0,0,0,95248,,,,,,77.0,,,,,,,,,,,,,,,,,,,,,,,,,,,,,,,,77.5,0.755,,
399,,isi,,html-keyboard-response,399,804915,0.0-1.0-79.0-0.0-2.0,0,0,95248,,,,,,,,,,,,,,,,,,,,,,,,,,,,,,,,,,,,,,79.0,1.5,,
400,,feedback,,html-keyboard-response,400,805923,0.0-1.0-79.0-0.0-3.0-0.0,0,0,95248,,,,,,77.0,,,,,,,,,,,,,,,,,,,,,,,,,,,,,,,,80.0,1.0,,
401,,iti,,html-keyboard-response,401,806930,0.0-1.0-79.0-0.0-5.0,0,0,95248,,,,,,,,,,,,,,,,,,,,,,,,,,,,,,,,,,,,,,81.0,1.0,,
402,,choice,,html-keyboard-response,402,807644,0.0-1.0-80.0-0.0-0.0,0,0,95248,,710.0,,,68.0,78.0,79.0,1000.0,2000.0,0.0,2.0,1.0,60-60,1.0,,nail polish,nail polish,60.0,60.0,nail polish11,nail polish2,80.0,80.0,Revlon_Super_Top_Speed_Chrome_Nail_Polish-resized200.jpg,froggy_t.jpg,/static/Category_learning/Stimuli/Experimental_stims/nail polish/Revlon_Super_Top_Speed_Chrome_Nail_Polish-resized200.jpg,/static/Category_learning/Stimuli/Experimental_stims/nail polish/froggy_t.jpg,1.0,nail polish,nail polish,60.0,60.0,nail polish11,nail polish2,80.0,80.0,0.0,81.71,0.71,,
403,,confirmation,,html-keyboard-response,403,808440,0.0-1.0-80.0-0.0-1.0-0.0,0,0,95248,,,,,,78.0,,,,,,,,,,,,,,,,,,,,,,,,,,,,,,,,82.5,0.79,,
404,,isi,,html-keyboard-response,404,809447,0.0-1.0-80.0-0.0-2.0,0,0,95248,,,,,,,,,,,,,,,,,,,,,,,,,,,,,,,,,,,,,,83.5,1.0,,
405,,feedback,,html-keyboard-response,405,810450,0.0-1.0-80.0-0.0-3.0-0.0,0,0,95248,,,,,,78.0,,,,,,,,,,,,,,,,,,,,,,,,,,,,,,,,84.5,1.0,,
406,,iti,,html-keyboard-response,406,812456,0.0-1.0-80.0-0.0-5.0,0,0,95248,,,,,,,,,,,,,,,,,,,,,,,,,,,,,,,,,,,,,,86.5,2.0,,
407,,choice,,html-keyboard-response,407,813104,0.0-1.0-81.0-0.0-0.0,0,0,95248,,644.0,,,68.0,79.0,80.0,2000.0,1000.0,0.0,2.0,0.0,20-60,,0.0,bowl,necklace,20.0,60.0,bowl7,necklace4,20.0,40.0,Abowl54.jpg,emerald_diamond_necklace.jpg,/static/Category_learning/Stimuli/Experimental_stims/bowl/Abowl54.jpg,/static/Category_learning/Stimuli/Experimental_stims/necklace/emerald_diamond_necklace.jpg,1.0,bowl,necklace,20.0,60.0,bowl7,necklace4,20.0,40.0,0.0,87.144,0.644,,
408,,confirmation,,html-keyboard-response,408,813965,0.0-1.0-81.0-0.0-1.0-0.0,0,0,95248,,,,,,79.0,,,,,,,,,,,,,,,,,,,,,,,,,,,,,,,,88.0,0.856,,
409,,isi,,html-keyboard-response,409,815973,0.0-1.0-81.0-0.0-2.0,0,0,95248,,,,,,,,,,,,,,,,,,,,,,,,,,,,,,,,,,,,,,90.0,2.0,,
410,,feedback,,html-keyboard-response,410,816979,0.0-1.0-81.0-0.0-3.0-0.0,0,0,95248,,,,,,79.0,,,,,,,,,,,,,,,,,,,,,,,,,,,,,,,,91.0,1.0,,
411,,iti,,html-keyboard-response,411,817986,0.0-1.0-81.0-0.0-5.0,0,0,95248,,,,,,,,,,,,,,,,,,,,,,,,,,,,,,,,,,,,,,92.0,1.0,,
412,,choice,,html-keyboard-response,412,818896,0.0-1.0-82.0-0.0-0.0,0,0,95248,,906.0,,,75.0,80.0,81.0,1500.0,1000.0,0.0,2.0,0.0,20-80,,1.0,vase,bongo,80.0,20.0,vase11,bongo12,100.0,40.0,Ethnic_Ceramic_Vase.jpg,26686609.thl.jpg,/static/Category_learning/Stimuli/Experimental_stims/vase/Ethnic_Ceramic_Vase.jpg,/static/Category_learning/Stimuli/Experimental_stims/bongo/26686609.thl.jpg,0.0,bongo,vase,20.0,80.0,bongo12,vase11,40.0,100.0,0.0,92.906,0.906,,
413,,confirmation,,html-keyboard-response,413,819495,0.0-1.0-82.0-0.0-1.0-0.0,0,0,95248,,,,,,80.0,,,,,,,,,,,,,,,,,,,,,,,,,,,,,,,,93.5,0.594,,
414,,isi,,html-keyboard-response,414,821000,0.0-1.0-82.0-0.0-2.0,0,0,95248,,,,,,,,,,,,,,,,,,,,,,,,,,,,,,,,,,,,,,95.0,1.5,,
415,,feedback,,html-keyboard-response,415,822008,0.0-1.0-82.0-0.0-3.0-0.0,0,0,95248,,,,,,80.0,,,,,,,,,,,,,,,,,,,,,,,,,,,,,,,,96.0,1.0,,
416,,iti,,html-keyboard-response,416,823015,0.0-1.0-82.0-0.0-5.0,0,0,95248,,,,,,,,,,,,,,,,,,,,,,,,,,,,,,,,,,,,,,97.0,1.0,,
417,,choice,,html-keyboard-response,417,823754,0.0-1.0-83.0-0.0-0.0,0,0,95248,,736.0,,,75.0,81.0,82.0,1000.0,1500.0,0.0,2.0,0.0,40-80,,1.0,yarn,makeup compact,80.0,40.0,yarn10,makeup compact7,60.0,20.0,revelation-yarn.jpg,P187133_hero.jpg,/static/Category_learning/Stimuli/Experimental_stims/yarn/revelation-yarn.jpg,/static/Category_learning/Stimuli/Experimental_stims/makeup compact/P187133_hero.jpg,0.0,makeup compact,yarn,40.0,80.0,makeup compact7,yarn10,20.0,60.0,0.0,97.736,0.736,,
418,,confirmation,,html-keyboard-response,418,824526,0.0-1.0-83.0-0.0-1.0-0.0,0,0,95248,,,,,,81.0,,,,,,,,,,,,,,,,,,,,,,,,,,,,,,,,98.5,0.764,,
419,,isi,,html-keyboard-response,419,825533,0.0-1.0-83.0-0.0-2.0,0,0,95248,,,,,,,,,,,,,,,,,,,,,,,,,,,,,,,,,,,,,,99.5,1.0,,
420,,feedback,,html-keyboard-response,420,826541,0.0-1.0-83.0-0.0-3.0-0.0,0,0,95248,,,,,,81.0,,,,,,,,,,,,,,,,,,,,,,,,,,,,,,,,100.5,1.0,,
421,,iti,,html-keyboard-response,421,828044,0.0-1.0-83.0-0.0-5.0,0,0,95248,,,,,,,,,,,,,,,,,,,,,,,,,,,,,,,,,,,,,,102.0,1.5,,
422,,choice,,html-keyboard-response,422,828791,0.0-1.0-84.0-0.0-0.0,0,0,95248,,744.0,,,75.0,82.0,83.0,1000.0,2000.0,0.0,2.0,1.0,40-40,1.0,,makeup compact,makeup compact,40.0,40.0,makeup compact7,makeup compact13,20.0,40.0,P187133_hero.jpg,31YfapjS3TL._AA250_.jpg,/static/Category_learning/Stimuli/Experimental_stims/makeup compact/P187133_hero.jpg,/static/Category_learning/Stimuli/Experimental_stims/makeup compact/31YfapjS3TL._AA250_.jpg,0.0,makeup compact,makeup compact,40.0,40.0,makeup compact13,makeup compact7,40.0,20.0,0.0,102.744,0.744,,
423,,confirmation,,html-keyboard-response,423,829554,0.0-1.0-84.0-0.0-1.0-0.0,0,0,95248,,,,,,82.0,,,,,,,,,,,,,,,,,,,,,,,,,,,,,,,,103.5,0.756,,
424,,isi,,html-keyboard-response,424,830558,0.0-1.0-84.0-0.0-2.0,0,0,95248,,,,,,,,,,,,,,,,,,,,,,,,,,,,,,,,,,,,,,104.5,1.0,,
425,,feedback,,html-keyboard-response,425,831564,0.0-1.0-84.0-0.0-3.0-0.0,0,0,95248,,,,,,82.0,,,,,,,,,,,,,,,,,,,,,,,,,,,,,,,,105.5,1.0,,
426,,iti,,html-keyboard-response,426,833570,0.0-1.0-84.0-0.0-5.0,0,0,95248,,,,,,,,,,,,,,,,,,,,,,,,,,,,,,,,,,,,,,107.5,2.0,,
427,,choice,,html-keyboard-response,427,834343,0.0-1.0-85.0-0.0-0.0,0,0,95248,,770.0,,,75.0,83.0,84.0,1500.0,1000.0,0.0,2.0,0.0,20-60,,1.0,sofa,door knob,60.0,20.0,sofa14,door knob3,40.0,40.0,HENRY-Sofa-falg8068-05-72X34X34.jpg,020f7ec6-df08-40fa-b3a5-0dcfb762f085_4.jpg,/static/Category_learning/Stimuli/Experimental_stims/sofa/HENRY-Sofa-falg8068-05-72X34X34.jpg,/static/Category_learning/Stimuli/Experimental_stims/door knob/020f7ec6-df08-40fa-b3a5-0dcfb762f085_4.jpg,0.0,door knob,sofa,20.0,60.0,door knob3,sofa14,40.0,40.0,0.0,108.27,0.77,,
428,,confirmation,,html-keyboard-response,428,835080,0.0-1.0-85.0-0.0-1.0-0.0,0,0,95248,,,,,,83.0,,,,,,,,,,,,,,,,,,,,,,,,,,,,,,,,109.0,0.73,,
429,,isi,,html-keyboard-response,429,836585,0.0-1.0-85.0-0.0-2.0,0,0,95248,,,,,,,,,,,,,,,,,,,,,,,,,,,,,,,,,,,,,,110.5,1.5,,
430,,feedback,,html-keyboard-response,430,837592,0.0-1.0-85.0-0.0-3.0-0.0,0,0,95248,,,,,,83.0,,,,,,,,,,,,,,,,,,,,,,,,,,,,,,,,111.5,1.0,,
431,,iti,,html-keyboard-response,431,838600,0.0-1.0-85.0-0.0-5.0,0,0,95248,,,,,,,,,,,,,,,,,,,,,,,,,,,,,,,,,,,,,,112.5,1.0,,
432,,choice,,html-keyboard-response,432,839287,0.0-1.0-86.0-0.0-0.0,0,0,95248,,682.0,,,68.0,84.0,85.0,3000.0,1000.0,0.0,2.0,1.0,80-80,1.0,,vase,vase,80.0,80.0,vase12,vase14,100.0,80.0,Abluevase2.jpg,Avase119.jpg,/static/Category_learning/Stimuli/Experimental_stims/vase/Abluevase2.jpg,/static/Category_learning/Stimuli/Experimental_stims/vase/Avase119.jpg,1.0,vase,vase,80.0,80.0,vase12,vase14,100.0,80.0,0.0,113.182,0.682,,
433,,confirmation,,html-keyboard-response,433,840112,0.0-1.0-86.0-0.0-1.0-0.0,0,0,95248,,,,,,84.0,,,,,,,,,,,,,,,,,,,,,,,,,,,,,,,,114.0,0.818,,
434,,isi,,html-keyboard-response,434,843116,0.0-1.0-86.0-0.0-2.0,0,0,95248,,,,,,,,,,,,,,,,,,,,,,,,,,,,,,,,,,,,,,117.0,3.0,,
435,,feedback,,html-keyboard-response,435,844119,0.0-1.0-86.0-0.0-3.0-0.0,0,0,95248,,,,,,84.0,,,,,,,,,,,,,,,,,,,,,,,,,,,,,,,,118.0,1.0,,
436,,iti,,html-keyboard-response,436,845124,0.0-1.0-86.0-0.0-5.0,0,0,95248,,,,,,,,,,,,,,,,,,,,,,,,,,,,,,,,,,,,,,119.0,1.0,,
437,,choice,,html-keyboard-response,437,845849,0.0-1.0-87.0-0.0-0.0,0,0,95248,,722.0,,,68.0,85.0,86.0,2000.0,1500.0,0.0,2.0,0.0,20-20,,,fan,bowl,20.0,20.0,fan3,bowl1,20.0,0.0,CFT401.jpg,ABOWLS6.jpg,/static/Category_learning/Stimuli/Experimental_stims/fan/CFT401.jpg,/static/Category_learning/Stimuli/Experimental_stims/bowl/ABOWLS6.jpg,1.0,fan,bowl,20.0,20.0,fan3,bowl1,20.0,0.0,0.0,119.722,0.722,,
438,,confirmation,,html-keyboard-response,438,846633,0.0-1.0-87.0-0.0-1.0-0.0,0,0,95248,,,,,,85.0,,,,,,,,,,,,,,,,,,,,,,,,,,,,,,,,120.5,0.778,,
439,,isi,,html-keyboard-response,439,848639,0.0-1.0-87.0-0.0-2.0,0,0,95248,,,,,,,,,,,,,,,,,,,,,,,,,,,,,,,,,,,,,,122.5,2.0,,
440,,feedback,,html-keyboard-response,440,849644,0.0-1.0-87.0-0.0-3.0-0.0,0,0,95248,,,,,,85.0,,,,,,,,,,,,,,,,,,,,,,,,,,,,,,,,123.5,1.0,,
441,,iti,,html-keyboard-response,441,851148,0.0-1.0-87.0-0.0-5.0,0,0,95248,,,,,,,,,,,,,,,,,,,,,,,,,,,,,,,,,,,,,,125.0,1.5,,
442,,choice,,html-keyboard-response,442,851755,0.0-1.0-88.0-0.0-0.0,0,0,95248,,603.0,,,75.0,86.0,87.0,1000.0,1500.0,0.0,2.0,1.0,80-80,1.0,,stool,stool,80.0,80.0,stool4,stool9,60.0,100.0,ASTOOL22.jpg,ASTOOL7.jpg,/static/Category_learning/Stimuli/Experimental_stims/stool/ASTOOL22.jpg,/static/Category_learning/Stimuli/Experimental_stims/stool/ASTOOL7.jpg,0.0,stool,stool,80.0,80.0,stool9,stool4,100.0,60.0,0.0,125.603,0.603,,
443,,confirmation,,html-keyboard-response,443,852655,0.0-1.0-88.0-0.0-1.0-0.0,0,0,95248,,,,,,86.0,,,,,,,,,,,,,,,,,,,,,,,,,,,,,,,,126.5,0.897,,
444,,isi,,html-keyboard-response,444,853658,0.0-1.0-88.0-0.0-2.0,0,0,95248,,,,,,,,,,,,,,,,,,,,,,,,,,,,,,,,,,,,,,127.5,1.0,,
445,,feedback,,html-keyboard-response,445,854662,0.0-1.0-88.0-0.0-3.0-0.0,0,0,95248,,,,,,86.0,,,,,,,,,,,,,,,,,,,,,,,,,,,,,,,,128.5,1.0,,
446,,iti,,html-keyboard-response,446,856168,0.0-1.0-88.0-0.0-5.0,0,0,95248,,,,,,,,,,,,,,,,,,,,,,,,,,,,,,,,,,,,,,130.0,1.5,,
447,,choice,,html-keyboard-response,447,856966,0.0-1.0-89.0-0.0-0.0,0,0,95248,,794.0,,,75.0,87.0,88.0,1000.0,1000.0,0.0,2.0,0.0,40-60,,0.0,hammer,power strip,40.0,60.0,hammer7,power strip13,60.0,60.0,hammer01.jpg,01dccef1-d4b2-4d2e-a317-f2ed46b70b4b_400.jpg,/static/Category_learning/Stimuli/Experimental_stims/hammer/hammer01.jpg,/static/Category_learning/Stimuli/Experimental_stims/power strip/01dccef1-d4b2-4d2e-a317-f2ed46b70b4b_400.jpg,0.0,power strip,hammer,60.0,40.0,power strip13,hammer7,60.0,60.0,0.0,130.794,0.794,,
448,,confirmation,,html-keyboard-response,448,857677,0.0-1.0-89.0-0.0-1.0-0.0,0,0,95248,,,,,,87.0,,,,,,,,,,,,,,,,,,,,,,,,,,,,,,,,131.5,0.706,,
449,,isi,,html-keyboard-response,449,858682,0.0-1.0-89.0-0.0-2.0,0,0,95248,,,,,,,,,,,,,,,,,,,,,,,,,,,,,,,,,,,,,,132.5,1.0,,
450,,feedback,,html-keyboard-response,450,859687,0.0-1.0-89.0-0.0-3.0-0.0,0,0,95248,,,,,,87.0,,,,,,,,,,,,,,,,,,,,,,,,,,,,,,,,133.5,1.0,,
451,,iti,,html-keyboard-response,451,860695,0.0-1.0-89.0-0.0-5.0,0,0,95248,,,,,,,,,,,,,,,,,,,,,,,,,,,,,,,,,,,,,,134.5,1.0,,
452,,choice,,html-keyboard-response,452,861475,0.0-1.0-90.0-0.0-0.0,0,0,95248,,775.0,,,75.0,88.0,89.0,1500.0,3500.0,0.0,2.0,0.0,20-60,,0.0,baby carriage,poker card,20.0,60.0,baby carriage10,poker card7,0.0,80.0,peg_perego_uno_blu.jpg,22864416.thl.jpg,/static/Category_learning/Stimuli/Experimental_stims/baby carriage/peg_perego_uno_blu.jpg,/static/Category_learning/Stimuli/Experimental_stims/poker card/22864416.thl.jpg,0.0,poker card,baby carriage,60.0,20.0,poker card7,baby carriage10,80.0,0.0,0.0,135.275,0.775,,
453,,confirmation,,html-keyboard-response,453,862205,0.0-1.0-90.0-0.0-1.0-0.0,0,0,95248,,,,,,88.0,,,,,,,,,,,,,,,,,,,,,,,,,,,,,,,,136.0,0.725,,
454,,isi,,html-keyboard-response,454,863709,0.0-1.0-90.0-0.0-2.0,0,0,95248,,,,,,,,,,,,,,,,,,,,,,,,,,,,,,,,,,,,,,137.5,1.5,,
455,,feedback,,html-keyboard-response,455,864717,0.0-1.0-90.0-0.0-3.0-0.0,0,0,95248,,,,,,88.0,,,,,,,,,,,,,,,,,,,,,,,,,,,,,,,,138.5,1.0,,
456,,iti,,html-keyboard-response,456,868221,0.0-1.0-90.0-0.0-5.0,0,0,95248,,,,,,,,,,,,,,,,,,,,,,,,,,,,,,,,,,,,,,142.0,3.5,,
457,,choice,,html-keyboard-response,457,868795,0.0-1.0-91.0-0.0-0.0,0,0,95248,,570.0,,,75.0,89.0,90.0,1000.0,1000.0,0.0,2.0,0.0,40-80,,1.0,vase,motorcycle,80.0,40.0,vase1,motorcycle9,60.0,40.0,Avase114.jpg,speedbike.jpg,/static/Category_learning/Stimuli/Experimental_stims/vase/Avase114.jpg,/static/Category_learning/Stimuli/Experimental_stims/motorcycle/speedbike.jpg,0.0,motorcycle,vase,40.0,80.0,motorcycle9,vase1,40.0,60.0,0.0,142.57,0.57,,
458,,confirmation,,html-keyboard-response,458,869730,0.0-1.0-91.0-0.0-1.0-0.0,0,0,95248,,,,,,89.0,,,,,,,,,,,,,,,,,,,,,,,,,,,,,,,,143.5,0.93,,
459,,isi,,html-keyboard-response,459,870739,0.0-1.0-91.0-0.0-2.0,0,0,95248,,,,,,,,,,,,,,,,,,,,,,,,,,,,,,,,,,,,,,144.5,1.0,,
460,,feedback,,html-keyboard-response,460,871746,0.0-1.0-91.0-0.0-3.0-0.0,0,0,95248,,,,,,89.0,,,,,,,,,,,,,,,,,,,,,,,,,,,,,,,,145.5,1.0,,
461,,iti,,html-keyboard-response,461,872754,0.0-1.0-91.0-0.0-5.0,0,0,95248,,,,,,,,,,,,,,,,,,,,,,,,,,,,,,,,,,,,,,146.5,1.0,,
462,,choice,,html-keyboard-response,462,873462,0.0-1.0-92.0-0.0-0.0,0,0,95248,,703.0,,,75.0,90.0,91.0,3500.0,3500.0,0.0,2.0,0.0,80-80,,,tent,train,80.0,80.0,tent9,train14,60.0,100.0,Red Canyon Tent.jpg,images-products-childcraft-g83501.jpg,/static/Category_learning/Stimuli/Experimental_stims/tent/Red Canyon Tent.jpg,/static/Category_learning/Stimuli/Experimental_stims/train/images-products-childcraft-g83501.jpg,0.0,train,tent,80.0,80.0,train14,tent9,100.0,60.0,0.0,147.203,0.703,,
463,,confirmation,,html-keyboard-response,463,874265,0.0-1.0-92.0-0.0-1.0-0.0,0,0,95248,,,,,,90.0,,,,,,,,,,,,,,,,,,,,,,,,,,,,,,,,148.0,0.797,,
464,,isi,,html-keyboard-response,464,877773,0.0-1.0-92.0-0.0-2.0,0,0,95248,,,,,,,,,,,,,,,,,,,,,,,,,,,,,,,,,,,,,,151.5,3.5,,
465,,feedback,,html-keyboard-response,465,878781,0.0-1.0-92.0-0.0-3.0-0.0,0,0,95248,,,,,,90.0,,,,,,,,,,,,,,,,,,,,,,,,,,,,,,,,152.5,1.0,,
466,,iti,,html-keyboard-response,466,882286,0.0-1.0-92.0-0.0-5.0,0,0,95248,,,,,,,,,,,,,,,,,,,,,,,,,,,,,,,,,,,,,,156.0,3.5,,
467,,choice,,html-keyboard-response,467,882984,0.0-1.0-93.0-0.0-0.0,0,0,95248,,694.0,,,75.0,91.0,92.0,1000.0,1000.0,0.0,2.0,0.0,20-60,,1.0,patio lounge chair,door knob,60.0,20.0,patio lounge chair5,door knob6,40.0,20.0,Steel_Assembling_Lounge.jpg,30fdcb17-b0fd-4f26-8cd8-11adde46fb79_4.jpg,/static/Category_learning/Stimuli/Experimental_stims/patio lounge chair/Steel_Assembling_Lounge.jpg,/static/Category_learning/Stimuli/Experimental_stims/door knob/30fdcb17-b0fd-4f26-8cd8-11adde46fb79_4.jpg,0.0,door knob,patio lounge chair,20.0,60.0,door knob6,patio lounge chair5,20.0,40.0,0.0,156.694,0.694,,
468,,confirmation,,html-keyboard-response,468,883795,0.0-1.0-93.0-0.0-1.0-0.0,0,0,95248,,,,,,91.0,,,,,,,,,,,,,,,,,,,,,,,,,,,,,,,,157.5,0.806,,
469,,isi,,html-keyboard-response,469,884802,0.0-1.0-93.0-0.0-2.0,0,0,95248,,,,,,,,,,,,,,,,,,,,,,,,,,,,,,,,,,,,,,158.5,1.0,,
470,,feedback,,html-keyboard-response,470,885812,0.0-1.0-93.0-0.0-3.0-0.0,0,0,95248,,,,,,91.0,,,,,,,,,,,,,,,,,,,,,,,,,,,,,,,,159.5,1.0,,
471,,iti,,html-keyboard-response,471,886817,0.0-1.0-93.0-0.0-5.0,0,0,95248,,,,,,,,,,,,,,,,,,,,,,,,,,,,,,,,,,,,,,160.5,1.0,,
472,,choice,,html-keyboard-response,472,887414,0.0-1.0-94.0-0.0-0.0,0,0,95248,,593.0,,,68.0,92.0,93.0,1000.0,1000.0,0.0,2.0,1.0,20-20,1.0,,bowl,bowl,20.0,20.0,bowl7,bowl3,20.0,40.0,Abowl54.jpg,ABOWL8.jpg,/static/Category_learning/Stimuli/Experimental_stims/bowl/Abowl54.jpg,/static/Category_learning/Stimuli/Experimental_stims/bowl/ABOWL8.jpg,1.0,bowl,bowl,20.0,20.0,bowl7,bowl3,20.0,40.0,0.0,161.093,0.593,,
473,,confirmation,,html-keyboard-response,473,888328,0.0-1.0-94.0-0.0-1.0-0.0,0,0,95248,,,,,,92.0,,,,,,,,,,,,,,,,,,,,,,,,,,,,,,,,162.0,0.907,,
474,,isi,,html-keyboard-response,474,889336,0.0-1.0-94.0-0.0-2.0,0,0,95248,,,,,,,,,,,,,,,,,,,,,,,,,,,,,,,,,,,,,,163.0,1.0,,
475,,feedback,,html-keyboard-response,475,890344,0.0-1.0-94.0-0.0-3.0-0.0,0,0,95248,,,,,,92.0,,,,,,,,,,,,,,,,,,,,,,,,,,,,,,,,164.0,1.0,,
476,,iti,,html-keyboard-response,476,891352,0.0-1.0-94.0-0.0-5.0,0,0,95248,,,,,,,,,,,,,,,,,,,,,,,,,,,,,,,,,,,,,,165.0,1.0,,
477,,choice,,html-keyboard-response,477,891928,0.0-1.0-95.0-0.0-0.0,0,0,95248,,571.0,,,75.0,93.0,94.0,2000.0,1500.0,0.0,2.0,0.0,40-80,,0.0,hat,yarn,40.0,80.0,hat3,yarn13,20.0,100.0,Astrawhat49.jpg,cool blue 2 hpy 2 sml.jpg,/static/Category_learning/Stimuli/Experimental_stims/hat/Astrawhat49.jpg,/static/Category_learning/Stimuli/Experimental_stims/yarn/cool blue 2 hpy 2 sml.jpg,0.0,yarn,hat,80.0,40.0,yarn13,hat3,100.0,20.0,0.0,165.571,0.571,,
478,,confirmation,,html-keyboard-response,478,892865,0.0-1.0-95.0-0.0-1.0-0.0,0,0,95248,,,,,,93.0,,,,,,,,,,,,,,,,,,,,,,,,,,,,,,,,166.5,0.929,,
479,,isi,,html-keyboard-response,479,894871,0.0-1.0-95.0-0.0-2.0,0,0,95248,,,,,,,,,,,,,,,,,,,,,,,,,,,,,,,,,,,,,,168.5,2.0,,
480,,feedback,,html-keyboard-response,480,895880,0.0-1.0-95.0-0.0-3.0-0.0,0,0,95248,,,,,,93.0,,,,,,,,,,,,,,,,,,,,,,,,,,,,,,,,169.5,1.0,,
481,,iti,,html-keyboard-response,481,897384,0.0-1.0-95.0-0.0-5.0,0,0,95248,,,,,,,,,,,,,,,,,,,,,,,,,,,,,,,,,,,,,,171.0,1.5,,
482,,choice,,html-keyboard-response,482,898213,0.0-1.0-96.0-0.0-0.0,0,0,95248,,825.0,,,75.0,94.0,95.0,1000.0,1500.0,0.0,2.0,0.0,40-60,,0.0,motorcycle,poker card,40.0,60.0,motorcycle11,poker card11,40.0,60.0,sportmotorcycle.jpg,9817013.thl.jpg,/static/Category_learning/Stimuli/Experimental_stims/motorcycle/sportmotorcycle.jpg,/static/Category_learning/Stimuli/Experimental_stims/poker card/9817013.thl.jpg,0.0,poker card,motorcycle,60.0,40.0,poker card11,motorcycle11,60.0,40.0,0.0,171.825,0.825,,
483,,confirmation,,html-keyboard-response,483,898894,0.0-1.0-96.0-0.0-1.0-0.0,0,0,95248,,,,,,94.0,,,,,,,,,,,,,,,,,,,,,,,,,,,,,,,,172.5,0.675,,
484,,isi,,html-keyboard-response,484,899897,0.0-1.0-96.0-0.0-2.0,0,0,95248,,,,,,,,,,,,,,,,,,,,,,,,,,,,,,,,,,,,,,173.5,1.0,,
485,,feedback,,html-keyboard-response,485,900900,0.0-1.0-96.0-0.0-3.0-0.0,0,0,95248,,,,,,94.0,,,,,,,,,,,,,,,,,,,,,,,,,,,,,,,,174.5,1.0,,
486,,iti,,html-keyboard-response,486,902408,0.0-1.0-96.0-0.0-5.0,0,0,95248,,,,,,,,,,,,,,,,,,,,,,,,,,,,,,,,,,,,,,176.0,1.5,,
487,,choice,,html-keyboard-response,487,902985,0.0-1.0-97.0-0.0-0.0,0,0,95248,,573.0,,,75.0,95.0,96.0,1500.0,3000.0,0.0,2.0,0.0,20-80,,0.0,baby carriage,telescope,20.0,80.0,baby carriage8,telescope6,20.0,100.0,peg_perego_uno_revi_black.jpg,LO-telescope-89769.jpg,/static/Category_learning/Stimuli/Experimental_stims/baby carriage/peg_perego_uno_revi_black.jpg,/static/Category_learning/Stimuli/Experimental_stims/telescope/LO-telescope-89769.jpg,0.0,telescope,baby carriage,80.0,20.0,telescope6,baby carriage8,100.0,20.0,0.0,176.573,0.573,,
488,,confirmation,,html-keyboard-response,488,903918,0.0-1.0-97.0-0.0-1.0-0.0,0,0,95248,,,,,,95.0,,,,,,,,,,,,,,,,,,,,,,,,,,,,,,,,177.5,0.927,,
489,,isi,,html-keyboard-response,489,905421,0.0-1.0-97.0-0.0-2.0,0,0,95248,,,,,,,,,,,,,,,,,,,,,,,,,,,,,,,,,,,,,,179.0,1.5,,
490,,feedback,,html-keyboard-response,490,906429,0.0-1.0-97.0-0.0-3.0-0.0,0,0,95248,,,,,,95.0,,,,,,,,,,,,,,,,,,,,,,,,,,,,,,,,180.0,1.0,,
491,,iti,,html-keyboard-response,491,909437,0.0-1.0-97.0-0.0-5.0,0,0,95248,,,,,,,,,,,,,,,,,,,,,,,,,,,,,,,,,,,,,,183.0,3.0,,
492,,choice,,html-keyboard-response,492,910022,0.0-1.0-98.0-0.0-0.0,0,0,95248,,580.0,,,68.0,96.0,97.0,2000.0,3500.0,0.0,2.0,0.0,40-60,,0.0,license plate,pen,40.0,60.0,license plate11,pen3,20.0,60.0,az-942-atg.jpg,pen08.jpg,/static/Category_learning/Stimuli/Experimental_stims/license plate/az-942-atg.jpg,/static/Category_learning/Stimuli/Experimental_stims/pen/pen08.jpg,1.0,license plate,pen,40.0,60.0,license plate11,pen3,20.0,60.0,0.0,183.58,0.58,,
