,success,ttype,start_time,trial_type,trial_index,time_elapsed,internal_node_id,warning,missed_checkup,PID,view_history,rt,responses,repeat_instructions,key_press,index,trial_num,block,condition,iti,isi,high_group_on_left,left_group_value,right_group_value,left_item_value,right_item_value,left_img,right_img,left_img_path,right_img_path,left_chosen,chosen_group_value,unchosen_group_value,chosen_item_value,unchosen_item_value,chosen_img,unchosen_img,no_response,onset,duration,no_resposne,total_bonus_tally
0,True,full_screen,d05182022hr1349,fullscreen,0,1005193,0.0-0.0,0,0,1,,,,,,,,,,,,,,,,,,,,,,,,,,,,,,,,
1,,size_instructions,,instructions,1,1018532,0.0-1.0-0.0-0.0,0,0,1,"[{""page_index"":0,""viewing_time"":6142},{""page_index"":1,""viewing_time"":1634},{""page_index"":2,""viewing_time"":1514},{""page_index"":3,""viewing_time"":1158},{""page_index"":4,""viewing_time"":1349},{""page_index"":5,""viewing_time"":1539}]",13336.0,,,,,,,,,,,,,,,,,,,,,,,,,,,,,,
2,,rl_comprehension_check,,survey-multi-choice,2,1023532,0.0-1.0-0.0-1.0,0,0,1,,4997.0,"{""Q0"":""True"",""Q1"":""True"",""Q2"":""pointer finger for left and middle finger for right""}",0.0,,,,,,,,,,,,,,,,,,,,,,,,,,,,
3,,,,html-keyboard-response,3,1025069,0.0-1.0-1.0,0,0,1,,1534.0,,,50.0,,,,,,,,,,,,,,,,,,,,,,,,,,,
4,,rl_choice,,html-keyboard-response,4,1025732,0.0-1.0-2.0,0,0,1,,661.0,,,50.0,0.0,0.0,1.0,easy,1500.0,3000.0,0.0,20.0,80.0,40.0,100.0,A,B,/static/Simple_RL/Stimuli/Fractals_stims/A.jpg,/static/Simple_RL/Stimuli/Fractals_stims/B.jpg,1.0,20.0,80.0,40.0,100.0,A,B,0.0,0.661,0.661,,
5,,rl_choice_confirmation,,html-keyboard-response,5,1026578,0.0-1.0-3.0-0.0,0,0,1,,,,,,0.0,,,,,,,,,,,,,,,,,,,,,,,1.5,0.839,,
6,,isi,,html-keyboard-response,6,1026684,0.0-1.0-5.0,0,0,1,,,,,,,,,,,,,,,,,,,,,,,,,,,,,4.5,3.0,,
7,,feedback,,html-keyboard-response,7,1027689,0.0-1.0-6.0-0.0,0,0,1,,,,,,0.0,,,,,,,,,,,,,,,,,,,,,,,5.5,1.0,,
8,,iti,,html-keyboard-response,8,1027790,0.0-1.0-7.0,0,0,1,,,,,,,,,,,,,,,,,,,,,,,,,,,,,7.0,1.5,,
9,,rl_choice,,html-keyboard-response,9,1027913,0.0-1.0-9.0,0,0,1,,121.0,,,50.0,1.0,1.0,1.0,easy,1000.0,1000.0,0.0,20.0,80.0,0.0,80.0,A,B,/static/Simple_RL/Stimuli/Fractals_stims/A.jpg,/static/Simple_RL/Stimuli/Fractals_stims/B.jpg,1.0,20.0,80.0,0.0,80.0,A,B,0.0,7.121,0.121,,
10,,rl_choice_confirmation,,html-keyboard-response,10,1029298,0.0-1.0-10.0-0.0,0,0,1,,,,,,1.0,,,,,,,,,,,,,,,,,,,,,,,8.5,1.379,,
11,,isi,,html-keyboard-response,11,1029402,0.0-1.0-12.0,0,0,1,,,,,,,,,,,,,,,,,,,,,,,,,,,,,9.5,1.0,,
12,,feedback,,html-keyboard-response,12,1030407,0.0-1.0-13.0-0.0,0,0,1,,,,,,1.0,,,,,,,,,,,,,,,,,,,,,,,10.5,1.0,,
13,,iti,,html-keyboard-response,13,1030511,0.0-1.0-14.0,0,0,1,,,,,,,,,,,,,,,,,,,,,,,,,,,,,11.5,1.0,,
14,,rl_choice,,html-keyboard-response,14,1030677,0.0-1.0-16.0,0,0,1,,163.0,,,50.0,2.0,2.0,1.0,easy,1000.0,1500.0,0.0,20.0,80.0,20.0,60.0,A,B,/static/Simple_RL/Stimuli/Fractals_stims/A.jpg,/static/Simple_RL/Stimuli/Fractals_stims/B.jpg,1.0,20.0,80.0,20.0,60.0,A,B,0.0,11.663,0.163,,
15,,rl_choice_confirmation,,html-keyboard-response,15,1032020,0.0-1.0-17.0-0.0,0,0,1,,,,,,2.0,,,,,,,,,,,,,,,,,,,,,,,13.0,1.337,,
16,,isi,,html-keyboard-response,16,1032127,0.0-1.0-19.0,0,0,1,,,,,,,,,,,,,,,,,,,,,,,,,,,,,14.5,1.5,,
17,,feedback,,html-keyboard-response,17,1033134,0.0-1.0-20.0-0.0,0,0,1,,,,,,2.0,,,,,,,,,,,,,,,,,,,,,,,15.5,1.0,,
18,,iti,,html-keyboard-response,18,1033237,0.0-1.0-21.0,0,0,1,,,,,,,,,,,,,,,,,,,,,,,,,,,,,16.5,1.0,,
19,,rl_choice,,html-keyboard-response,19,1033700,0.0-1.0-23.0,0,0,1,,461.0,,,50.0,3.0,3.0,1.0,hard,1000.0,3000.0,1.0,60.0,40.0,60.0,20.0,D,C,/static/Simple_RL/Stimuli/Fractals_stims/D.jpg,/static/Simple_RL/Stimuli/Fractals_stims/C.jpg,1.0,60.0,40.0,60.0,20.0,D,C,0.0,16.961,0.461,,
20,,rl_choice_confirmation,,html-keyboard-response,20,1034745,0.0-1.0-24.0-0.0,0,0,1,,,,,,3.0,,,,,,,,,,,,,,,,,,,,,,,18.0,1.039,,
21,,isi,,html-keyboard-response,21,1034847,0.0-1.0-26.0,0,0,1,,,,,,,,,,,,,,,,,,,,,,,,,,,,,21.0,3.0,,
22,,feedback,,html-keyboard-response,22,1035854,0.0-1.0-27.0-0.0,0,0,1,,,,,,3.0,,,,,,,,,,,,,,,,,,,,,,,22.0,1.0,,
23,,iti,,html-keyboard-response,23,1035957,0.0-1.0-28.0,0,0,1,,,,,,,,,,,,,,,,,,,,,,,,,,,,,23.0,1.0,,
24,,rl_choice,,html-keyboard-response,24,1036193,0.0-1.0-30.0,0,0,1,,233.0,,,50.0,4.0,4.0,1.0,easy,2000.0,1000.0,0.0,20.0,80.0,0.0,100.0,A,B,/static/Simple_RL/Stimuli/Fractals_stims/A.jpg,/static/Simple_RL/Stimuli/Fractals_stims/B.jpg,1.0,20.0,80.0,0.0,100.0,A,B,0.0,23.233,0.233,,
25,,rl_choice_confirmation,,html-keyboard-response,25,1037465,0.0-1.0-31.0-0.0,0,0,1,,,,,,4.0,,,,,,,,,,,,,,,,,,,,,,,24.5,1.267,,
26,,isi,,html-keyboard-response,26,1037567,0.0-1.0-33.0,0,0,1,,,,,,,,,,,,,,,,,,,,,,,,,,,,,25.5,1.0,,
27,,feedback,,html-keyboard-response,27,1038570,0.0-1.0-34.0-0.0,0,0,1,,,,,,4.0,,,,,,,,,,,,,,,,,,,,,,,26.5,1.0,,
28,,iti,,html-keyboard-response,28,1038674,0.0-1.0-35.0,0,0,1,,,,,,,,,,,,,,,,,,,,,,,,,,,,,28.5,2.0,,
29,,rl_choice,,html-keyboard-response,29,1038909,0.0-1.0-37.0,0,0,1,,232.0,,,50.0,5.0,5.0,1.0,hard,1500.0,3500.0,0.0,40.0,60.0,20.0,60.0,C,D,/static/Simple_RL/Stimuli/Fractals_stims/C.jpg,/static/Simple_RL/Stimuli/Fractals_stims/D.jpg,1.0,40.0,60.0,20.0,60.0,C,D,0.0,28.732,0.232,,
30,,rl_choice_confirmation,,html-keyboard-response,30,1040180,0.0-1.0-38.0-0.0,0,0,1,,,,,,5.0,,,,,,,,,,,,,,,,,,,,,,,30.0,1.268,,
31,,isi,,html-keyboard-response,31,1040281,0.0-1.0-40.0,0,0,1,,,,,,,,,,,,,,,,,,,,,,,,,,,,,33.5,3.5,,
32,,feedback,,html-keyboard-response,32,1041284,0.0-1.0-41.0-0.0,0,0,1,,,,,,5.0,,,,,,,,,,,,,,,,,,,,,,,34.5,1.0,,
33,,iti,,html-keyboard-response,33,1041385,0.0-1.0-42.0,0,0,1,,,,,,,,,,,,,,,,,,,,,,,,,,,,,36.0,1.5,,
34,,rl_choice,,html-keyboard-response,34,1041437,0.0-1.0-44.0,0,0,1,,50.0,,,50.0,6.0,6.0,1.0,easy,1000.0,1500.0,1.0,80.0,20.0,80.0,20.0,B,A,/static/Simple_RL/Stimuli/Fractals_stims/B.jpg,/static/Simple_RL/Stimuli/Fractals_stims/A.jpg,1.0,80.0,20.0,80.0,20.0,B,A,0.0,36.05,0.05,,
35,,rl_choice_confirmation,,html-keyboard-response,35,1042891,0.0-1.0-45.0-0.0,0,0,1,,,,,,6.0,,,,,,,,,,,,,,,,,,,,,,,37.5,1.45,,
36,,isi,,html-keyboard-response,36,1042996,0.0-1.0-47.0,0,0,1,,,,,,,,,,,,,,,,,,,,,,,,,,,,,39.0,1.5,,
37,,feedback,,html-keyboard-response,37,1043999,0.0-1.0-48.0-0.0,0,0,1,,,,,,6.0,,,,,,,,,,,,,,,,,,,,,,,40.0,1.0,,
38,,iti,,html-keyboard-response,38,1044103,0.0-1.0-49.0,0,0,1,,,,,,,,,,,,,,,,,,,,,,,,,,,,,41.0,1.0,,
39,,rl_choice,,html-keyboard-response,39,1044309,0.0-1.0-51.0,0,0,1,,205.0,,,50.0,7.0,7.0,1.0,easy,2000.0,1000.0,1.0,80.0,20.0,80.0,40.0,B,A,/static/Simple_RL/Stimuli/Fractals_stims/B.jpg,/static/Simple_RL/Stimuli/Fractals_stims/A.jpg,1.0,80.0,20.0,80.0,40.0,B,A,0.0,41.205,0.205,,
40,,rl_choice_confirmation,,html-keyboard-response,40,1045607,0.0-1.0-52.0-0.0,0,0,1,,,,,,7.0,,,,,,,,,,,,,,,,,,,,,,,42.5,1.295,,
41,,isi,,html-keyboard-response,41,1045710,0.0-1.0-54.0,0,0,1,,,,,,,,,,,,,,,,,,,,,,,,,,,,,43.5,1.0,,
42,,feedback,,html-keyboard-response,42,1046715,0.0-1.0-55.0-0.0,0,0,1,,,,,,7.0,,,,,,,,,,,,,,,,,,,,,,,44.5,1.0,,
43,,iti,,html-keyboard-response,43,1046820,0.0-1.0-56.0,0,0,1,,,,,,,,,,,,,,,,,,,,,,,,,,,,,46.5,2.0,,
44,,rl_choice,,html-keyboard-response,44,1046974,0.0-1.0-58.0,0,0,1,,151.0,,,50.0,8.0,8.0,1.0,easy,2000.0,1000.0,1.0,80.0,20.0,60.0,20.0,B,A,/static/Simple_RL/Stimuli/Fractals_stims/B.jpg,/static/Simple_RL/Stimuli/Fractals_stims/A.jpg,1.0,80.0,20.0,60.0,20.0,B,A,0.0,46.651,0.151,,
45,,rl_choice_confirmation,,html-keyboard-response,45,1048329,0.0-1.0-59.0-0.0,0,0,1,,,,,,8.0,,,,,,,,,,,,,,,,,,,,,,,48.0,1.349,,
46,,isi,,html-keyboard-response,46,1048433,0.0-1.0-61.0,0,0,1,,,,,,,,,,,,,,,,,,,,,,,,,,,,,49.0,1.0,,
47,,feedback,,html-keyboard-response,47,1049440,0.0-1.0-62.0-0.0,0,0,1,,,,,,8.0,,,,,,,,,,,,,,,,,,,,,,,50.0,1.0,,
48,,iti,,html-keyboard-response,48,1049546,0.0-1.0-63.0,0,0,1,,,,,,,,,,,,,,,,,,,,,,,,,,,,,52.0,2.0,,
49,,rl_choice,,html-keyboard-response,49,1049684,0.0-1.0-65.0,0,0,1,,136.0,,,50.0,9.0,9.0,1.0,easy,3000.0,2000.0,0.0,20.0,80.0,0.0,80.0,A,B,/static/Simple_RL/Stimuli/Fractals_stims/A.jpg,/static/Simple_RL/Stimuli/Fractals_stims/B.jpg,1.0,20.0,80.0,0.0,80.0,A,B,0.0,52.136,0.136,,
50,,rl_choice_confirmation,,html-keyboard-response,50,1051055,0.0-1.0-66.0-0.0,0,0,1,,,,,,9.0,,,,,,,,,,,,,,,,,,,,,,,53.5,1.364,,
51,,isi,,html-keyboard-response,51,1051157,0.0-1.0-68.0,0,0,1,,,,,,,,,,,,,,,,,,,,,,,,,,,,,55.5,2.0,,
52,,feedback,,html-keyboard-response,52,1052162,0.0-1.0-69.0-0.0,0,0,1,,,,,,9.0,,,,,,,,,,,,,,,,,,,,,,,56.5,1.0,,
53,,iti,,html-keyboard-response,53,1052266,0.0-1.0-70.0,0,0,1,,,,,,,,,,,,,,,,,,,,,,,,,,,,,59.5,3.0,,
54,,rl_choice,,html-keyboard-response,54,1052445,0.0-1.0-72.0,0,0,1,,177.0,,,50.0,10.0,10.0,1.0,easy,1500.0,1000.0,1.0,80.0,20.0,60.0,0.0,B,A,/static/Simple_RL/Stimuli/Fractals_stims/B.jpg,/static/Simple_RL/Stimuli/Fractals_stims/A.jpg,1.0,80.0,20.0,60.0,0.0,B,A,0.0,59.677,0.177,,
55,,rl_choice_confirmation,,html-keyboard-response,55,1053774,0.0-1.0-73.0-0.0,0,0,1,,,,,,10.0,,,,,,,,,,,,,,,,,,,,,,,61.0,1.323,,
56,,isi,,html-keyboard-response,56,1053879,0.0-1.0-75.0,0,0,1,,,,,,,,,,,,,,,,,,,,,,,,,,,,,62.0,1.0,,
57,,feedback,,html-keyboard-response,57,1054885,0.0-1.0-76.0-0.0,0,0,1,,,,,,10.0,,,,,,,,,,,,,,,,,,,,,,,63.0,1.0,,
58,,iti,,html-keyboard-response,58,1054991,0.0-1.0-77.0,0,0,1,,,,,,,,,,,,,,,,,,,,,,,,,,,,,64.5,1.5,,
59,,rl_choice,,html-keyboard-response,59,1055116,0.0-1.0-79.0,0,0,1,,123.0,,,50.0,11.0,11.0,1.0,hard,3000.0,1500.0,0.0,40.0,60.0,20.0,60.0,C,D,/static/Simple_RL/Stimuli/Fractals_stims/C.jpg,/static/Simple_RL/Stimuli/Fractals_stims/D.jpg,1.0,40.0,60.0,20.0,60.0,C,D,0.0,64.623,0.123,,
60,,rl_choice_confirmation,,html-keyboard-response,60,1056498,0.0-1.0-80.0-0.0,0,0,1,,,,,,11.0,,,,,,,,,,,,,,,,,,,,,,,66.0,1.377,,
61,,isi,,html-keyboard-response,61,1056602,0.0-1.0-82.0,0,0,1,,,,,,,,,,,,,,,,,,,,,,,,,,,,,67.5,1.5,,
62,,feedback,,html-keyboard-response,62,1057607,0.0-1.0-83.0-0.0,0,0,1,,,,,,11.0,,,,,,,,,,,,,,,,,,,,,,,68.5,1.0,,
63,,iti,,html-keyboard-response,63,1057711,0.0-1.0-84.0,0,0,1,,,,,,,,,,,,,,,,,,,,,,,,,,,,,71.5,3.0,,
64,,rl_choice,,html-keyboard-response,64,1058005,0.0-1.0-86.0,0,0,1,,292.0,,,51.0,12.0,12.0,1.0,hard,1000.0,2000.0,1.0,60.0,40.0,40.0,60.0,D,C,/static/Simple_RL/Stimuli/Fractals_stims/D.jpg,/static/Simple_RL/Stimuli/Fractals_stims/C.jpg,0.0,40.0,60.0,60.0,40.0,C,D,0.0,71.792,0.292,,
65,,rl_choice_confirmation,,html-keyboard-response,65,1059215,0.0-1.0-87.0-0.0,0,0,1,,,,,,12.0,,,,,,,,,,,,,,,,,,,,,,,73.0,1.208,,
66,,isi,,html-keyboard-response,66,1059316,0.0-1.0-89.0,0,0,1,,,,,,,,,,,,,,,,,,,,,,,,,,,,,75.0,2.0,,
67,,feedback,,html-keyboard-response,67,1060319,0.0-1.0-90.0-0.0,0,0,1,,,,,,12.0,,,,,,,,,,,,,,,,,,,,,,,76.0,1.0,,
68,,iti,,html-keyboard-response,68,1060424,0.0-1.0-91.0,0,0,1,,,,,,,,,,,,,,,,,,,,,,,,,,,,,77.0,1.0,,
69,,rl_choice,,html-keyboard-response,69,1061398,0.0-1.0-93.0,0,0,1,,971.0,,,51.0,13.0,13.0,1.0,hard,1000.0,1000.0,1.0,60.0,40.0,60.0,40.0,D,C,/static/Simple_RL/Stimuli/Fractals_stims/D.jpg,/static/Simple_RL/Stimuli/Fractals_stims/C.jpg,0.0,40.0,60.0,40.0,60.0,C,D,0.0,77.971,0.971,,
70,,rl_choice_confirmation,,html-keyboard-response,70,1061930,0.0-1.0-94.0-0.0,0,0,1,,,,,,13.0,,,,,,,,,,,,,,,,,,,,,,,78.5,0.529,,
71,,isi,,html-keyboard-response,71,1062036,0.0-1.0-96.0,0,0,1,,,,,,,,,,,,,,,,,,,,,,,,,,,,,79.5,1.0,,
72,,feedback,,html-keyboard-response,72,1063041,0.0-1.0-97.0-0.0,0,0,1,,,,,,13.0,,,,,,,,,,,,,,,,,,,,,,,80.5,1.0,,
73,,iti,,html-keyboard-response,73,1063146,0.0-1.0-98.0,0,0,1,,,,,,,,,,,,,,,,,,,,,,,,,,,,,81.5,1.0,,
74,,rl_choice,,html-keyboard-response,74,1063284,0.0-1.0-100.0,0,0,1,,137.0,,,51.0,14.0,14.0,1.0,hard,1500.0,1000.0,1.0,60.0,40.0,40.0,60.0,D,C,/static/Simple_RL/Stimuli/Fractals_stims/D.jpg,/static/Simple_RL/Stimuli/Fractals_stims/C.jpg,0.0,40.0,60.0,60.0,40.0,C,D,0.0,81.637,0.137,,
75,,rl_choice_confirmation,,html-keyboard-response,75,1064653,0.0-1.0-101.0-0.0,0,0,1,,,,,,14.0,,,,,,,,,,,,,,,,,,,,,,,83.0,1.363,,
76,,isi,,html-keyboard-response,76,1064757,0.0-1.0-103.0,0,0,1,,,,,,,,,,,,,,,,,,,,,,,,,,,,,84.0,1.0,,
77,,feedback,,html-keyboard-response,77,1065765,0.0-1.0-104.0-0.0,0,0,1,,,,,,14.0,,,,,,,,,,,,,,,,,,,,,,,85.0,1.0,,
78,,iti,,html-keyboard-response,78,1065869,0.0-1.0-105.0,0,0,1,,,,,,,,,,,,,,,,,,,,,,,,,,,,,86.5,1.5,,
79,,rl_choice,,html-keyboard-response,79,1065874,0.0-1.0-107.0,0,0,1,,4.0,,,51.0,15.0,15.0,1.0,hard,1000.0,3000.0,1.0,60.0,40.0,40.0,40.0,D,C,/static/Simple_RL/Stimuli/Fractals_stims/D.jpg,/static/Simple_RL/Stimuli/Fractals_stims/C.jpg,0.0,40.0,60.0,40.0,40.0,C,D,0.0,86.504,0.004,,
80,,rl_choice_confirmation,,html-keyboard-response,80,1067377,0.0-1.0-108.0-0.0,0,0,1,,,,,,15.0,,,,,,,,,,,,,,,,,,,,,,,88.0,1.496,,
81,,isi,,html-keyboard-response,81,1067482,0.0-1.0-110.0,0,0,1,,,,,,,,,,,,,,,,,,,,,,,,,,,,,91.0,3.0,,
82,,feedback,,html-keyboard-response,82,1068486,0.0-1.0-111.0-0.0,0,0,1,,,,,,15.0,,,,,,,,,,,,,,,,,,,,,,,92.0,1.0,,
83,,iti,,html-keyboard-response,83,1068591,0.0-1.0-112.0,0,0,1,,,,,,,,,,,,,,,,,,,,,,,,,,,,,93.0,1.0,,
84,,rl_choice,,html-keyboard-response,84,1068732,0.0-1.0-114.0,0,0,1,,140.0,,,51.0,16.0,16.0,1.0,hard,2000.0,1500.0,1.0,60.0,40.0,40.0,40.0,D,C,/static/Simple_RL/Stimuli/Fractals_stims/D.jpg,/static/Simple_RL/Stimuli/Fractals_stims/C.jpg,0.0,40.0,60.0,40.0,40.0,C,D,0.0,93.14,0.14,,
85,,rl_choice_confirmation,,html-keyboard-response,85,1070095,0.0-1.0-115.0-0.0,0,0,1,,,,,,16.0,,,,,,,,,,,,,,,,,,,,,,,94.5,1.36,,
86,,isi,,html-keyboard-response,86,1070197,0.0-1.0-117.0,0,0,1,,,,,,,,,,,,,,,,,,,,,,,,,,,,,96.0,1.5,,
87,,feedback,,html-keyboard-response,87,1071203,0.0-1.0-118.0-0.0,0,0,1,,,,,,16.0,,,,,,,,,,,,,,,,,,,,,,,97.0,1.0,,
88,,iti,,html-keyboard-response,88,1071308,0.0-1.0-119.0,0,0,1,,,,,,,,,,,,,,,,,,,,,,,,,,,,,99.0,2.0,,
89,,rl_choice,,html-keyboard-response,89,1071479,0.0-1.0-121.0,0,0,1,,168.0,,,51.0,17.0,17.0,1.0,easy,1000.0,2000.0,1.0,80.0,20.0,80.0,40.0,B,A,/static/Simple_RL/Stimuli/Fractals_stims/B.jpg,/static/Simple_RL/Stimuli/Fractals_stims/A.jpg,0.0,20.0,80.0,40.0,80.0,A,B,0.0,99.168,0.168,,
90,,rl_choice_confirmation,,html-keyboard-response,90,1072815,0.0-1.0-122.0-0.0,0,0,1,,,,,,17.0,,,,,,,,,,,,,,,,,,,,,,,100.5,1.332,,
91,,isi,,html-keyboard-response,91,1072916,0.0-1.0-124.0,0,0,1,,,,,,,,,,,,,,,,,,,,,,,,,,,,,102.5,2.0,,
92,,feedback,,html-keyboard-response,92,1073922,0.0-1.0-125.0-0.0,0,0,1,,,,,,17.0,,,,,,,,,,,,,,,,,,,,,,,103.5,1.0,,
93,,iti,,html-keyboard-response,93,1074026,0.0-1.0-126.0,0,0,1,,,,,,,,,,,,,,,,,,,,,,,,,,,,,104.5,1.0,,
94,,rl_choice,,html-keyboard-response,94,1074158,0.0-1.0-128.0,0,0,1,,129.0,,,51.0,18.0,18.0,1.0,hard,2000.0,2000.0,0.0,40.0,60.0,20.0,80.0,C,D,/static/Simple_RL/Stimuli/Fractals_stims/C.jpg,/static/Simple_RL/Stimuli/Fractals_stims/D.jpg,0.0,60.0,40.0,80.0,20.0,D,C,0.0,104.629,0.129,,
95,,rl_choice_confirmation,,html-keyboard-response,95,1075533,0.0-1.0-129.0-0.0,0,0,1,,,,,,18.0,,,,,,,,,,,,,,,,,,,,,,,106.0,1.371,,
96,,isi,,html-keyboard-response,96,1075637,0.0-1.0-131.0,0,0,1,,,,,,,,,,,,,,,,,,,,,,,,,,,,,108.0,2.0,,
97,,feedback,,html-keyboard-response,97,1076642,0.0-1.0-132.0-0.0,0,0,1,,,,,,18.0,,,,,,,,,,,,,,,,,,,,,,,109.0,1.0,,
98,,iti,,html-keyboard-response,98,1076748,0.0-1.0-133.0,0,0,1,,,,,,,,,,,,,,,,,,,,,,,,,,,,,111.0,2.0,,
99,,rl_choice,,html-keyboard-response,99,1076750,0.0-1.0-135.0,0,0,1,,1.0,,,51.0,19.0,19.0,1.0,hard,1500.0,2000.0,0.0,40.0,60.0,20.0,80.0,C,D,/static/Simple_RL/Stimuli/Fractals_stims/C.jpg,/static/Simple_RL/Stimuli/Fractals_stims/D.jpg,0.0,60.0,40.0,80.0,20.0,D,C,0.0,111.001,0.001,,
100,,rl_choice_confirmation,,html-keyboard-response,100,1078253,0.0-1.0-136.0-0.0,0,0,1,,,,,,19.0,,,,,,,,,,,,,,,,,,,,,,,112.5,1.499,,
101,,isi,,html-keyboard-response,101,1078357,0.0-1.0-138.0,0,0,1,,,,,,,,,,,,,,,,,,,,,,,,,,,,,114.5,2.0,,
102,,feedback,,html-keyboard-response,102,1079359,0.0-1.0-139.0-0.0,0,0,1,,,,,,19.0,,,,,,,,,,,,,,,,,,,,,,,115.5,1.0,,
103,,iti,,html-keyboard-response,103,1079461,0.0-1.0-140.0,0,0,1,,,,,,,,,,,,,,,,,,,,,,,,,,,,,117.0,1.5,,
104,,rl_choice,,html-keyboard-response,104,1079588,0.0-1.0-142.0,0,0,1,,124.0,,,51.0,20.0,20.0,1.0,hard,1000.0,1000.0,1.0,60.0,40.0,40.0,40.0,D,C,/static/Simple_RL/Stimuli/Fractals_stims/D.jpg,/static/Simple_RL/Stimuli/Fractals_stims/C.jpg,0.0,40.0,60.0,40.0,40.0,C,D,0.0,117.124,0.124,,
105,,rl_choice_confirmation,,html-keyboard-response,105,1080970,0.0-1.0-143.0-0.0,0,0,1,,,,,,20.0,,,,,,,,,,,,,,,,,,,,,,,118.5,1.376,,
106,,isi,,html-keyboard-response,106,1081074,0.0-1.0-145.0,0,0,1,,,,,,,,,,,,,,,,,,,,,,,,,,,,,119.5,1.0,,
107,,feedback,,html-keyboard-response,107,1082079,0.0-1.0-146.0-0.0,0,0,1,,,,,,20.0,,,,,,,,,,,,,,,,,,,,,,,120.5,1.0,,
108,,iti,,html-keyboard-response,108,1082183,0.0-1.0-147.0,0,0,1,,,,,,,,,,,,,,,,,,,,,,,,,,,,,121.5,1.0,,
109,,rl_choice,,html-keyboard-response,109,1082358,0.0-1.0-149.0,0,0,1,,171.0,,,51.0,21.0,21.0,1.0,easy,1500.0,2000.0,1.0,80.0,20.0,100.0,20.0,B,A,/static/Simple_RL/Stimuli/Fractals_stims/B.jpg,/static/Simple_RL/Stimuli/Fractals_stims/A.jpg,0.0,20.0,80.0,20.0,100.0,A,B,0.0,121.671,0.171,,
110,,rl_choice_confirmation,,html-keyboard-response,110,1083692,0.0-1.0-150.0-0.0,0,0,1,,,,,,21.0,,,,,,,,,,,,,,,,,,,,,,,123.0,1.329,,
111,,isi,,html-keyboard-response,111,1083798,0.0-1.0-152.0,0,0,1,,,,,,,,,,,,,,,,,,,,,,,,,,,,,125.0,2.0,,
112,,feedback,,html-keyboard-response,112,1084803,0.0-1.0-153.0-0.0,0,0,1,,,,,,21.0,,,,,,,,,,,,,,,,,,,,,,,126.0,1.0,,
113,,iti,,html-keyboard-response,113,1084907,0.0-1.0-154.0,0,0,1,,,,,,,,,,,,,,,,,,,,,,,,,,,,,127.5,1.5,,
114,,rl_choice,,html-keyboard-response,114,1085070,0.0-1.0-156.0,0,0,1,,161.0,,,51.0,22.0,22.0,1.0,hard,1500.0,1000.0,1.0,60.0,40.0,40.0,40.0,D,C,/static/Simple_RL/Stimuli/Fractals_stims/D.jpg,/static/Simple_RL/Stimuli/Fractals_stims/C.jpg,0.0,40.0,60.0,40.0,40.0,C,D,0.0,127.661,0.161,,
115,,rl_choice_confirmation,,html-keyboard-response,115,1086416,0.0-1.0-157.0-0.0,0,0,1,,,,,,22.0,,,,,,,,,,,,,,,,,,,,,,,129.0,1.339,,
116,,isi,,html-keyboard-response,116,1086520,0.0-1.0-159.0,0,0,1,,,,,,,,,,,,,,,,,,,,,,,,,,,,,130.0,1.0,,
117,,feedback,,html-keyboard-response,117,1087525,0.0-1.0-160.0-0.0,0,0,1,,,,,,22.0,,,,,,,,,,,,,,,,,,,,,,,131.0,1.0,,
118,,iti,,html-keyboard-response,118,1087630,0.0-1.0-161.0,0,0,1,,,,,,,,,,,,,,,,,,,,,,,,,,,,,132.5,1.5,,
119,,rl_choice,,html-keyboard-response,119,1087830,0.0-1.0-163.0,0,0,1,,198.0,,,50.0,23.0,23.0,1.0,easy,1000.0,1500.0,0.0,20.0,80.0,0.0,80.0,A,B,/static/Simple_RL/Stimuli/Fractals_stims/A.jpg,/static/Simple_RL/Stimuli/Fractals_stims/B.jpg,1.0,20.0,80.0,0.0,80.0,A,B,0.0,132.698,0.198,,
120,,rl_choice_confirmation,,html-keyboard-response,120,1089136,0.0-1.0-164.0-0.0,0,0,1,,,,,,23.0,,,,,,,,,,,,,,,,,,,,,,,134.0,1.302,,
121,,isi,,html-keyboard-response,121,1089241,0.0-1.0-166.0,0,0,1,,,,,,,,,,,,,,,,,,,,,,,,,,,,,135.5,1.5,,
122,,feedback,,html-keyboard-response,122,1090247,0.0-1.0-167.0-0.0,0,0,1,,,,,,23.0,,,,,,,,,,,,,,,,,,,,,,,136.5,1.0,,
123,,iti,,html-keyboard-response,123,1090354,0.0-1.0-168.0,0,0,1,,,,,,,,,,,,,,,,,,,,,,,,,,,,,137.5,1.0,,
124,,rl_choice,,html-keyboard-response,124,1090516,0.0-1.0-170.0,0,0,1,,161.0,,,50.0,24.0,24.0,1.0,hard,3000.0,2000.0,1.0,60.0,40.0,80.0,20.0,D,C,/static/Simple_RL/Stimuli/Fractals_stims/D.jpg,/static/Simple_RL/Stimuli/Fractals_stims/C.jpg,1.0,60.0,40.0,80.0,20.0,D,C,0.0,137.661,0.161,,
125,,rl_choice_confirmation,,html-keyboard-response,125,1091861,0.0-1.0-171.0-0.0,0,0,1,,,,,,24.0,,,,,,,,,,,,,,,,,,,,,,,139.0,1.339,,
126,,isi,,html-keyboard-response,126,1091966,0.0-1.0-173.0,0,0,1,,,,,,,,,,,,,,,,,,,,,,,,,,,,,141.0,2.0,,
127,,feedback,,html-keyboard-response,127,1092970,0.0-1.0-174.0-0.0,0,0,1,,,,,,24.0,,,,,,,,,,,,,,,,,,,,,,,142.0,1.0,,
128,,iti,,html-keyboard-response,128,1093074,0.0-1.0-175.0,0,0,1,,,,,,,,,,,,,,,,,,,,,,,,,,,,,145.0,3.0,,
129,,rl_choice,,html-keyboard-response,129,1093163,0.0-1.0-177.0,0,0,1,,87.0,,,50.0,25.0,25.0,1.0,hard,1000.0,1500.0,1.0,60.0,40.0,60.0,60.0,D,C,/static/Simple_RL/Stimuli/Fractals_stims/D.jpg,/static/Simple_RL/Stimuli/Fractals_stims/C.jpg,1.0,60.0,40.0,60.0,60.0,D,C,0.0,145.087,0.087,,
130,,rl_choice_confirmation,,html-keyboard-response,130,1094581,0.0-1.0-178.0-0.0,0,0,1,,,,,,25.0,,,,,,,,,,,,,,,,,,,,,,,146.5,1.413,,
131,,isi,,html-keyboard-response,131,1094682,0.0-1.0-180.0,0,0,1,,,,,,,,,,,,,,,,,,,,,,,,,,,,,148.0,1.5,,
132,,feedback,,html-keyboard-response,132,1095685,0.0-1.0-181.0-0.0,0,0,1,,,,,,25.0,,,,,,,,,,,,,,,,,,,,,,,149.0,1.0,,
133,,iti,,html-keyboard-response,133,1095791,0.0-1.0-182.0,0,0,1,,,,,,,,,,,,,,,,,,,,,,,,,,,,,150.0,1.0,,
134,,rl_choice,,html-keyboard-response,134,1095939,0.0-1.0-184.0,0,0,1,,147.0,,,50.0,26.0,26.0,1.0,hard,1500.0,1000.0,1.0,60.0,40.0,80.0,60.0,D,C,/static/Simple_RL/Stimuli/Fractals_stims/D.jpg,/static/Simple_RL/Stimuli/Fractals_stims/C.jpg,1.0,60.0,40.0,80.0,60.0,D,C,0.0,150.147,0.147,,
135,,rl_choice_confirmation,,html-keyboard-response,135,1097299,0.0-1.0-185.0-0.0,0,0,1,,,,,,26.0,,,,,,,,,,,,,,,,,,,,,,,151.5,1.353,,
136,,isi,,html-keyboard-response,136,1097404,0.0-1.0-187.0,0,0,1,,,,,,,,,,,,,,,,,,,,,,,,,,,,,152.5,1.0,,
137,,feedback,,html-keyboard-response,137,1098410,0.0-1.0-188.0-0.0,0,0,1,,,,,,26.0,,,,,,,,,,,,,,,,,,,,,,,153.5,1.0,,
138,,iti,,html-keyboard-response,138,1098517,0.0-1.0-189.0,0,0,1,,,,,,,,,,,,,,,,,,,,,,,,,,,,,155.0,1.5,,
139,,rl_choice,,html-keyboard-response,139,1098613,0.0-1.0-191.0,0,0,1,,95.0,,,50.0,27.0,27.0,1.0,easy,1500.0,2000.0,1.0,80.0,20.0,80.0,0.0,B,A,/static/Simple_RL/Stimuli/Fractals_stims/B.jpg,/static/Simple_RL/Stimuli/Fractals_stims/A.jpg,1.0,80.0,20.0,80.0,0.0,B,A,0.0,155.095,0.095,,
140,,rl_choice_confirmation,,html-keyboard-response,140,1100021,0.0-1.0-192.0-0.0,0,0,1,,,,,,27.0,,,,,,,,,,,,,,,,,,,,,,,156.5,1.405,,
141,,isi,,html-keyboard-response,141,1100124,0.0-1.0-194.0,0,0,1,,,,,,,,,,,,,,,,,,,,,,,,,,,,,158.5,2.0,,
142,,feedback,,html-keyboard-response,142,1101131,0.0-1.0-195.0-0.0,0,0,1,,,,,,27.0,,,,,,,,,,,,,,,,,,,,,,,159.5,1.0,,
143,,iti,,html-keyboard-response,143,1101234,0.0-1.0-196.0,0,0,1,,,,,,,,,,,,,,,,,,,,,,,,,,,,,161.0,1.5,,
144,,rl_choice,,html-keyboard-response,144,1101374,0.0-1.0-198.0,0,0,1,,138.0,,,50.0,28.0,28.0,1.0,easy,3500.0,3500.0,0.0,20.0,80.0,0.0,100.0,A,B,/static/Simple_RL/Stimuli/Fractals_stims/A.jpg,/static/Simple_RL/Stimuli/Fractals_stims/B.jpg,1.0,20.0,80.0,0.0,100.0,A,B,0.0,161.138,0.138,,
145,,rl_choice_confirmation,,html-keyboard-response,145,1102741,0.0-1.0-199.0-0.0,0,0,1,,,,,,28.0,,,,,,,,,,,,,,,,,,,,,,,162.5,1.362,,
146,,isi,,html-keyboard-response,146,1102846,0.0-1.0-201.0,0,0,1,,,,,,,,,,,,,,,,,,,,,,,,,,,,,166.0,3.5,,
147,,feedback,,html-keyboard-response,147,1103851,0.0-1.0-202.0-0.0,0,0,1,,,,,,28.0,,,,,,,,,,,,,,,,,,,,,,,167.0,1.0,,
148,,iti,,html-keyboard-response,148,1103957,0.0-1.0-203.0,0,0,1,,,,,,,,,,,,,,,,,,,,,,,,,,,,,170.5,3.5,,
149,,rl_choice,,html-keyboard-response,149,1104070,0.0-1.0-205.0,0,0,1,,111.0,,,50.0,29.0,29.0,1.0,hard,2000.0,1000.0,0.0,40.0,60.0,40.0,60.0,C,D,/static/Simple_RL/Stimuli/Fractals_stims/C.jpg,/static/Simple_RL/Stimuli/Fractals_stims/D.jpg,1.0,40.0,60.0,40.0,60.0,C,D,0.0,170.611,0.111,,
150,,rl_choice_confirmation,,html-keyboard-response,150,1105461,0.0-1.0-206.0-0.0,0,0,1,,,,,,29.0,,,,,,,,,,,,,,,,,,,,,,,172.0,1.389,,
151,,isi,,html-keyboard-response,151,1105568,0.0-1.0-208.0,0,0,1,,,,,,,,,,,,,,,,,,,,,,,,,,,,,173.0,1.0,,
152,,feedback,,html-keyboard-response,152,1106574,0.0-1.0-209.0-0.0,0,0,1,,,,,,29.0,,,,,,,,,,,,,,,,,,,,,,,174.0,1.0,,
153,,iti,,html-keyboard-response,153,1106678,0.0-1.0-210.0,0,0,1,,,,,,,,,,,,,,,,,,,,,,,,,,,,,176.0,2.0,,
154,,rl_choice,,html-keyboard-response,154,1106867,0.0-1.0-212.0,0,0,1,,186.0,,,50.0,30.0,30.0,1.0,easy,1000.0,1000.0,0.0,20.0,80.0,20.0,80.0,A,B,/static/Simple_RL/Stimuli/Fractals_stims/A.jpg,/static/Simple_RL/Stimuli/Fractals_stims/B.jpg,1.0,20.0,80.0,20.0,80.0,A,B,0.0,176.186,0.186,,
155,,rl_choice_confirmation,,html-keyboard-response,155,1108187,0.0-1.0-213.0-0.0,0,0,1,,,,,,30.0,,,,,,,,,,,,,,,,,,,,,,,177.5,1.314,,
156,,isi,,html-keyboard-response,156,1108291,0.0-1.0-215.0,0,0,1,,,,,,,,,,,,,,,,,,,,,,,,,,,,,178.5,1.0,,
157,,feedback,,html-keyboard-response,157,1109296,0.0-1.0-216.0-0.0,0,0,1,,,,,,30.0,,,,,,,,,,,,,,,,,,,,,,,179.5,1.0,,
158,,iti,,html-keyboard-response,158,1109399,0.0-1.0-217.0,0,0,1,,,,,,,,,,,,,,,,,,,,,,,,,,,,,180.5,1.0,,
159,,rl_choice,,html-keyboard-response,159,1109646,0.0-1.0-219.0,0,0,1,,244.0,,,50.0,31.0,31.0,1.0,hard,1000.0,1500.0,0.0,40.0,60.0,20.0,60.0,C,D,/static/Simple_RL/Stimuli/Fractals_stims/C.jpg,/static/Simple_RL/Stimuli/Fractals_stims/D.jpg,1.0,40.0,60.0,20.0,60.0,C,D,0.0,180.744,0.244,,
160,,rl_choice_confirmation,,html-keyboard-response,160,1110907,0.0-1.0-220.0-0.0,0,0,1,,,,,,31.0,,,,,,,,,,,,,,,,,,,,,,,182.0,1.256,,
161,,isi,,html-keyboard-response,161,1111013,0.0-1.0-222.0,0,0,1,,,,,,,,,,,,,,,,,,,,,,,,,,,,,183.5,1.5,,
162,,feedback,,html-keyboard-response,162,1112017,0.0-1.0-223.0-0.0,0,0,1,,,,,,31.0,,,,,,,,,,,,,,,,,,,,,,,184.5,1.0,,
163,,iti,,html-keyboard-response,163,1112123,0.0-1.0-224.0,0,0,1,,,,,,,,,,,,,,,,,,,,,,,,,,,,,185.5,1.0,,
164,,rl_choice,,html-keyboard-response,164,1112372,0.0-1.0-226.0,0,0,1,,248.0,,,50.0,32.0,32.0,1.0,easy,1500.0,1000.0,1.0,80.0,20.0,100.0,20.0,B,A,/static/Simple_RL/Stimuli/Fractals_stims/B.jpg,/static/Simple_RL/Stimuli/Fractals_stims/A.jpg,1.0,80.0,20.0,100.0,20.0,B,A,0.0,185.748,0.248,,
165,,rl_choice_confirmation,,html-keyboard-response,165,1113628,0.0-1.0-227.0-0.0,0,0,1,,,,,,32.0,,,,,,,,,,,,,,,,,,,,,,,187.0,1.252,,
166,,isi,,html-keyboard-response,166,1113732,0.0-1.0-229.0,0,0,1,,,,,,,,,,,,,,,,,,,,,,,,,,,,,188.0,1.0,,
167,,feedback,,html-keyboard-response,167,1114738,0.0-1.0-230.0-0.0,0,0,1,,,,,,32.0,,,,,,,,,,,,,,,,,,,,,,,189.0,1.0,,
168,,iti,,html-keyboard-response,168,1114843,0.0-1.0-231.0,0,0,1,,,,,,,,,,,,,,,,,,,,,,,,,,,,,190.5,1.5,,
169,,rl_choice,,html-keyboard-response,169,1115059,0.0-1.0-233.0,0,0,1,,215.0,,,50.0,33.0,33.0,1.0,easy,3000.0,3000.0,1.0,80.0,20.0,60.0,40.0,B,A,/static/Simple_RL/Stimuli/Fractals_stims/B.jpg,/static/Simple_RL/Stimuli/Fractals_stims/A.jpg,1.0,80.0,20.0,60.0,40.0,B,A,0.0,190.715,0.215,,
170,,rl_choice_confirmation,,html-keyboard-response,170,1116347,0.0-1.0-234.0-0.0,0,0,1,,,,,,33.0,,,,,,,,,,,,,,,,,,,,,,,192.0,1.285,,
171,,isi,,html-keyboard-response,171,1116452,0.0-1.0-236.0,0,0,1,,,,,,,,,,,,,,,,,,,,,,,,,,,,,195.0,3.0,,
172,,feedback,,html-keyboard-response,172,1117462,0.0-1.0-237.0-0.0,0,0,1,,,,,,33.0,,,,,,,,,,,,,,,,,,,,,,,196.0,1.0,,
173,,iti,,html-keyboard-response,173,1117564,0.0-1.0-238.0,0,0,1,,,,,,,,,,,,,,,,,,,,,,,,,,,,,199.0,3.0,,
174,,rl_choice,,html-keyboard-response,174,1117755,0.0-1.0-240.0,0,0,1,,190.0,,,50.0,34.0,34.0,1.0,easy,1000.0,1000.0,0.0,20.0,80.0,20.0,60.0,A,B,/static/Simple_RL/Stimuli/Fractals_stims/A.jpg,/static/Simple_RL/Stimuli/Fractals_stims/B.jpg,1.0,20.0,80.0,20.0,60.0,A,B,0.0,199.19,0.19,,
175,,rl_choice_confirmation,,html-keyboard-response,175,1119068,0.0-1.0-241.0-0.0,0,0,1,,,,,,34.0,,,,,,,,,,,,,,,,,,,,,,,200.5,1.31,,
176,,isi,,html-keyboard-response,176,1119174,0.0-1.0-243.0,0,0,1,,,,,,,,,,,,,,,,,,,,,,,,,,,,,201.5,1.0,,
177,,feedback,,html-keyboard-response,177,1120179,0.0-1.0-244.0-0.0,0,0,1,,,,,,34.0,,,,,,,,,,,,,,,,,,,,,,,202.5,1.0,,
178,,iti,,html-keyboard-response,178,1120283,0.0-1.0-245.0,0,0,1,,,,,,,,,,,,,,,,,,,,,,,,,,,,,203.5,1.0,,
179,,rl_choice,,html-keyboard-response,179,1120843,0.0-1.0-247.0,0,0,1,,559.0,,,50.0,35.0,35.0,1.0,hard,3500.0,1000.0,0.0,40.0,60.0,20.0,80.0,C,D,/static/Simple_RL/Stimuli/Fractals_stims/C.jpg,/static/Simple_RL/Stimuli/Fractals_stims/D.jpg,1.0,40.0,60.0,20.0,80.0,C,D,0.0,204.059,0.559,,
180,,rl_choice_confirmation,,html-keyboard-response,180,1121789,0.0-1.0-248.0-0.0,0,0,1,,,,,,35.0,,,,,,,,,,,,,,,,,,,,,,,205.0,0.941,,
181,,isi,,html-keyboard-response,181,1121895,0.0-1.0-250.0,0,0,1,,,,,,,,,,,,,,,,,,,,,,,,,,,,,206.0,1.0,,
182,,feedback,,html-keyboard-response,182,1122902,0.0-1.0-251.0-0.0,0,0,1,,,,,,35.0,,,,,,,,,,,,,,,,,,,,,,,207.0,1.0,,
183,,iti,,html-keyboard-response,183,1123008,0.0-1.0-252.0,0,0,1,,,,,,,,,,,,,,,,,,,,,,,,,,,,,210.5,3.5,,
184,,rl_choice,,html-keyboard-response,184,1123280,0.0-1.0-254.0,0,0,1,,269.0,,,50.0,36.0,36.0,1.0,easy,1000.0,1500.0,1.0,80.0,20.0,100.0,0.0,B,A,/static/Simple_RL/Stimuli/Fractals_stims/B.jpg,/static/Simple_RL/Stimuli/Fractals_stims/A.jpg,1.0,80.0,20.0,100.0,0.0,B,A,0.0,210.769,0.269,,
185,,rl_choice_confirmation,,html-keyboard-response,185,1124513,0.0-1.0-255.0-0.0,0,0,1,,,,,,36.0,,,,,,,,,,,,,,,,,,,,,,,212.0,1.231,,
186,,isi,,html-keyboard-response,186,1124619,0.0-1.0-257.0,0,0,1,,,,,,,,,,,,,,,,,,,,,,,,,,,,,213.5,1.5,,
187,,feedback,,html-keyboard-response,187,1125624,0.0-1.0-258.0-0.0,0,0,1,,,,,,36.0,,,,,,,,,,,,,,,,,,,,,,,214.5,1.0,,
188,,iti,,html-keyboard-response,188,1125730,0.0-1.0-259.0,0,0,1,,,,,,,,,,,,,,,,,,,,,,,,,,,,,215.5,1.0,,
189,,rl_choice,,html-keyboard-response,189,1126012,0.0-1.0-261.0,0,0,1,,280.0,,,50.0,37.0,37.0,1.0,hard,2000.0,1500.0,0.0,40.0,60.0,40.0,80.0,C,D,/static/Simple_RL/Stimuli/Fractals_stims/C.jpg,/static/Simple_RL/Stimuli/Fractals_stims/D.jpg,1.0,40.0,60.0,40.0,80.0,C,D,0.0,215.78,0.28,,
190,,rl_choice_confirmation,,html-keyboard-response,190,1127238,0.0-1.0-262.0-0.0,0,0,1,,,,,,37.0,,,,,,,,,,,,,,,,,,,,,,,217.0,1.22,,
191,,isi,,html-keyboard-response,191,1127341,0.0-1.0-264.0,0,0,1,,,,,,,,,,,,,,,,,,,,,,,,,,,,,218.5,1.5,,
192,,feedback,,html-keyboard-response,192,1128347,0.0-1.0-265.0-0.0,0,0,1,,,,,,37.0,,,,,,,,,,,,,,,,,,,,,,,219.5,1.0,,
193,,iti,,html-keyboard-response,193,1128450,0.0-1.0-266.0,0,0,1,,,,,,,,,,,,,,,,,,,,,,,,,,,,,221.5,2.0,,
194,,rl_choice,,html-keyboard-response,194,1129095,0.0-1.0-268.0,0,0,1,,643.0,,,50.0,38.0,38.0,1.0,easy,2000.0,1500.0,1.0,80.0,20.0,80.0,20.0,B,A,/static/Simple_RL/Stimuli/Fractals_stims/B.jpg,/static/Simple_RL/Stimuli/Fractals_stims/A.jpg,1.0,80.0,20.0,80.0,20.0,B,A,0.0,222.143,0.643,,
195,,rl_choice_confirmation,,html-keyboard-response,195,1129957,0.0-1.0-269.0-0.0,0,0,1,,,,,,38.0,,,,,,,,,,,,,,,,,,,,,,,223.0,0.857,,
196,,isi,,html-keyboard-response,196,1130062,0.0-1.0-271.0,0,0,1,,,,,,,,,,,,,,,,,,,,,,,,,,,,,224.5,1.5,,
197,,feedback,,html-keyboard-response,197,1131067,0.0-1.0-272.0-0.0,0,0,1,,,,,,38.0,,,,,,,,,,,,,,,,,,,,,,,225.5,1.0,,
198,,iti,,html-keyboard-response,198,1131170,0.0-1.0-273.0,0,0,1,,,,,,,,,,,,,,,,,,,,,,,,,,,,,227.5,2.0,,
199,,rl_choice,,html-keyboard-response,199,1131660,0.0-1.0-275.0,0,0,1,,488.0,,,50.0,39.0,39.0,1.0,hard,1000.0,1000.0,0.0,40.0,60.0,20.0,40.0,C,D,/static/Simple_RL/Stimuli/Fractals_stims/C.jpg,/static/Simple_RL/Stimuli/Fractals_stims/D.jpg,1.0,40.0,60.0,20.0,40.0,C,D,0.0,227.988,0.488,,
200,,rl_choice_confirmation,,html-keyboard-response,200,1132677,0.0-1.0-276.0-0.0,0,0,1,,,,,,39.0,,,,,,,,,,,,,,,,,,,,,,,229.0,1.012,,
201,,isi,,html-keyboard-response,201,1132779,0.0-1.0-278.0,0,0,1,,,,,,,,,,,,,,,,,,,,,,,,,,,,,230.0,1.0,,
202,,feedback,,html-keyboard-response,202,1133782,0.0-1.0-279.0-0.0,0,0,1,,,,,,39.0,,,,,,,,,,,,,,,,,,,,,,,231.0,1.0,,
203,,iti,,html-keyboard-response,203,1133883,0.0-1.0-280.0,0,0,1,,,,,,,,,,,,,,,,,,,,,,,,,,,,,232.0,1.0,,
204,,block_over,,html-keyboard-response,204,1137463,0.0-1.0-281.0-0.0,0,0,1,,3579.0,,,50.0,39.0,,,,,,,,,,,,,,,,,,,,,,,,,,
205,,start_run,,html-keyboard-response,205,1138911,0.0-1.0-281.0-1.0,0,0,1,,1447.0,,,84.0,,,,,,,,,,,,,,,,,,,,,,,,,,,
206,,rl_choice,,html-keyboard-response,206,1139292,0.0-1.0-282.0,0,0,1,,379.0,,,50.0,40.0,40.0,2.0,hard,1000.0,1000.0,1.0,60.0,40.0,60.0,40.0,D,C,/static/Simple_RL/Stimuli/Fractals_stims/D.jpg,/static/Simple_RL/Stimuli/Fractals_stims/C.jpg,1.0,60.0,40.0,60.0,40.0,D,C,0.0,0.379,0.379,,
207,,rl_choice_confirmation,,html-keyboard-response,207,1140417,0.0-1.0-283.0-0.0,0,0,1,,,,,,40.0,,,,,,,,,,,,,,,,,,,,,,,1.5,1.121,,
208,,isi,,html-keyboard-response,208,1140520,0.0-1.0-285.0,0,0,1,,,,,,,,,,,,,,,,,,,,,,,,,,,,,2.5,1.0,,
209,,feedback,,html-keyboard-response,209,1141526,0.0-1.0-286.0-0.0,0,0,1,,,,,,40.0,,,,,,,,,,,,,,,,,,,,,,,3.5,1.0,,
210,,iti,,html-keyboard-response,210,1141630,0.0-1.0-287.0,0,0,1,,,,,,,,,,,,,,,,,,,,,,,,,,,,,4.5,1.0,,
211,,rl_choice,,html-keyboard-response,211,1141829,0.0-1.0-289.0,0,0,1,,197.0,,,50.0,41.0,41.0,2.0,hard,2000.0,2000.0,0.0,40.0,60.0,60.0,60.0,C,D,/static/Simple_RL/Stimuli/Fractals_stims/C.jpg,/static/Simple_RL/Stimuli/Fractals_stims/D.jpg,1.0,40.0,60.0,60.0,60.0,C,D,0.0,4.697,0.197,,
212,,rl_choice_confirmation,,html-keyboard-response,212,1143139,0.0-1.0-290.0-0.0,0,0,1,,,,,,41.0,,,,,,,,,,,,,,,,,,,,,,,6.0,1.303,,
213,,isi,,html-keyboard-response,213,1143244,0.0-1.0-292.0,0,0,1,,,,,,,,,,,,,,,,,,,,,,,,,,,,,8.0,2.0,,
214,,feedback,,html-keyboard-response,214,1144250,0.0-1.0-293.0-0.0,0,0,1,,,,,,41.0,,,,,,,,,,,,,,,,,,,,,,,9.0,1.0,,
215,,iti,,html-keyboard-response,215,1144356,0.0-1.0-294.0,0,0,1,,,,,,,,,,,,,,,,,,,,,,,,,,,,,11.0,2.0,,
216,,rl_choice,,html-keyboard-response,216,1144453,0.0-1.0-296.0,0,0,1,,95.0,,,50.0,42.0,42.0,2.0,hard,3500.0,3000.0,0.0,40.0,60.0,60.0,80.0,C,D,/static/Simple_RL/Stimuli/Fractals_stims/C.jpg,/static/Simple_RL/Stimuli/Fractals_stims/D.jpg,1.0,40.0,60.0,60.0,80.0,C,D,0.0,11.095,0.095,,
217,,rl_choice_confirmation,,html-keyboard-response,217,1145862,0.0-1.0-297.0-0.0,0,0,1,,,,,,42.0,,,,,,,,,,,,,,,,,,,,,,,12.5,1.405,,
218,,isi,,html-keyboard-response,218,1145968,0.0-1.0-299.0,0,0,1,,,,,,,,,,,,,,,,,,,,,,,,,,,,,15.5,3.0,,
219,,feedback,,html-keyboard-response,219,1146971,0.0-1.0-300.0-0.0,0,0,1,,,,,,42.0,,,,,,,,,,,,,,,,,,,,,,,16.5,1.0,,
220,,iti,,html-keyboard-response,220,1147077,0.0-1.0-301.0,0,0,1,,,,,,,,,,,,,,,,,,,,,,,,,,,,,20.0,3.5,,
221,,rl_choice,,html-keyboard-response,221,1147446,0.0-1.0-303.0,0,0,1,,367.0,,,51.0,43.0,43.0,2.0,easy,3000.0,1000.0,0.0,20.0,80.0,0.0,100.0,A,B,/static/Simple_RL/Stimuli/Fractals_stims/A.jpg,/static/Simple_RL/Stimuli/Fractals_stims/B.jpg,0.0,80.0,20.0,100.0,0.0,B,A,0.0,20.367,0.367,,
222,,rl_choice_confirmation,,html-keyboard-response,222,1148582,0.0-1.0-304.0-0.0,0,0,1,,,,,,43.0,,,,,,,,,,,,,,,,,,,,,,,21.5,1.133,,
223,,isi,,html-keyboard-response,223,1148687,0.0-1.0-306.0,0,0,1,,,,,,,,,,,,,,,,,,,,,,,,,,,,,22.5,1.0,,
224,,feedback,,html-keyboard-response,224,1149691,0.0-1.0-307.0-0.0,0,0,1,,,,,,43.0,,,,,,,,,,,,,,,,,,,,,,,23.5,1.0,,
225,,iti,,html-keyboard-response,225,1149793,0.0-1.0-308.0,0,0,1,,,,,,,,,,,,,,,,,,,,,,,,,,,,,26.5,3.0,,
226,,rl_choice,,html-keyboard-response,226,1149895,0.0-1.0-310.0,0,0,1,,100.0,,,51.0,44.0,44.0,2.0,easy,1000.0,1500.0,1.0,80.0,20.0,80.0,0.0,B,A,/static/Simple_RL/Stimuli/Fractals_stims/B.jpg,/static/Simple_RL/Stimuli/Fractals_stims/A.jpg,0.0,20.0,80.0,0.0,80.0,A,B,0.0,26.6,0.1,,
227,,rl_choice_confirmation,,html-keyboard-response,227,1151298,0.0-1.0-311.0-0.0,0,0,1,,,,,,44.0,,,,,,,,,,,,,,,,,,,,,,,28.0,1.4,,
228,,isi,,html-keyboard-response,228,1151403,0.0-1.0-313.0,0,0,1,,,,,,,,,,,,,,,,,,,,,,,,,,,,,29.5,1.5,,
229,,feedback,,html-keyboard-response,229,1152408,0.0-1.0-314.0-0.0,0,0,1,,,,,,44.0,,,,,,,,,,,,,,,,,,,,,,,30.5,1.0,,
230,,iti,,html-keyboard-response,230,1152513,0.0-1.0-315.0,0,0,1,,,,,,,,,,,,,,,,,,,,,,,,,,,,,31.5,1.0,,
231,,rl_choice,,html-keyboard-response,231,1152655,0.0-1.0-317.0,0,0,1,,139.0,,,51.0,45.0,45.0,2.0,easy,1500.0,1000.0,0.0,20.0,80.0,40.0,60.0,A,B,/static/Simple_RL/Stimuli/Fractals_stims/A.jpg,/static/Simple_RL/Stimuli/Fractals_stims/B.jpg,0.0,80.0,20.0,60.0,40.0,B,A,0.0,31.639,0.139,,
232,,rl_choice_confirmation,,html-keyboard-response,232,1154022,0.0-1.0-318.0-0.0,0,0,1,,,,,,45.0,,,,,,,,,,,,,,,,,,,,,,,33.0,1.361,,
233,,isi,,html-keyboard-response,233,1154127,0.0-1.0-320.0,0,0,1,,,,,,,,,,,,,,,,,,,,,,,,,,,,,34.0,1.0,,
234,,feedback,,html-keyboard-response,234,1155131,0.0-1.0-321.0-0.0,0,0,1,,,,,,45.0,,,,,,,,,,,,,,,,,,,,,,,35.0,1.0,,
235,,iti,,html-keyboard-response,235,1155233,0.0-1.0-322.0,0,0,1,,,,,,,,,,,,,,,,,,,,,,,,,,,,,36.5,1.5,,
236,,rl_choice,,html-keyboard-response,236,1155317,0.0-1.0-324.0,0,0,1,,81.0,,,51.0,46.0,46.0,2.0,hard,3000.0,1000.0,0.0,40.0,60.0,60.0,40.0,C,D,/static/Simple_RL/Stimuli/Fractals_stims/C.jpg,/static/Simple_RL/Stimuli/Fractals_stims/D.jpg,0.0,60.0,40.0,40.0,60.0,D,C,0.0,36.581,0.081,,
237,,rl_choice_confirmation,,html-keyboard-response,237,1156742,0.0-1.0-325.0-0.0,0,0,1,,,,,,46.0,,,,,,,,,,,,,,,,,,,,,,,38.0,1.419,,
238,,isi,,html-keyboard-response,238,1156845,0.0-1.0-327.0,0,0,1,,,,,,,,,,,,,,,,,,,,,,,,,,,,,39.0,1.0,,
239,,feedback,,html-keyboard-response,239,1157851,0.0-1.0-328.0-0.0,0,0,1,,,,,,46.0,,,,,,,,,,,,,,,,,,,,,,,40.0,1.0,,
240,,iti,,html-keyboard-response,240,1157954,0.0-1.0-329.0,0,0,1,,,,,,,,,,,,,,,,,,,,,,,,,,,,,43.0,3.0,,
241,,rl_choice,,html-keyboard-response,241,1158286,0.0-1.0-331.0,0,0,1,,330.0,,,51.0,47.0,47.0,2.0,easy,1500.0,1500.0,1.0,80.0,20.0,100.0,20.0,B,A,/static/Simple_RL/Stimuli/Fractals_stims/B.jpg,/static/Simple_RL/Stimuli/Fractals_stims/A.jpg,0.0,20.0,80.0,20.0,100.0,A,B,0.0,43.33,0.33,,
242,,rl_choice_confirmation,,html-keyboard-response,242,1159462,0.0-1.0-332.0-0.0,0,0,1,,,,,,47.0,,,,,,,,,,,,,,,,,,,,,,,44.5,1.17,,
243,,isi,,html-keyboard-response,243,1159569,0.0-1.0-334.0,0,0,1,,,,,,,,,,,,,,,,,,,,,,,,,,,,,46.0,1.5,,
244,,feedback,,html-keyboard-response,244,1160574,0.0-1.0-335.0-0.0,0,0,1,,,,,,47.0,,,,,,,,,,,,,,,,,,,,,,,47.0,1.0,,
245,,iti,,html-keyboard-response,245,1160679,0.0-1.0-336.0,0,0,1,,,,,,,,,,,,,,,,,,,,,,,,,,,,,48.5,1.5,,
246,,rl_choice,,html-keyboard-response,246,1160851,0.0-1.0-338.0,0,0,1,,172.0,,,51.0,48.0,48.0,2.0,hard,1500.0,1000.0,0.0,40.0,60.0,60.0,60.0,C,D,/static/Simple_RL/Stimuli/Fractals_stims/C.jpg,/static/Simple_RL/Stimuli/Fractals_stims/D.jpg,0.0,60.0,40.0,60.0,60.0,D,C,0.0,48.672,0.172,,
247,,rl_choice_confirmation,,html-keyboard-response,247,1162182,0.0-1.0-339.0-0.0,0,0,1,,,,,,48.0,,,,,,,,,,,,,,,,,,,,,,,50.0,1.328,,
248,,isi,,html-keyboard-response,248,1162285,0.0-1.0-341.0,0,0,1,,,,,,,,,,,,,,,,,,,,,,,,,,,,,51.0,1.0,,
249,,feedback,,html-keyboard-response,249,1163292,0.0-1.0-342.0-0.0,0,0,1,,,,,,48.0,,,,,,,,,,,,,,,,,,,,,,,52.0,1.0,,
250,,iti,,html-keyboard-response,250,1163396,0.0-1.0-343.0,0,0,1,,,,,,,,,,,,,,,,,,,,,,,,,,,,,53.5,1.5,,
251,,rl_choice,,html-keyboard-response,251,1163550,0.0-1.0-345.0,0,0,1,,151.0,,,51.0,49.0,49.0,2.0,hard,3000.0,1000.0,0.0,40.0,60.0,20.0,60.0,C,D,/static/Simple_RL/Stimuli/Fractals_stims/C.jpg,/static/Simple_RL/Stimuli/Fractals_stims/D.jpg,0.0,60.0,40.0,60.0,20.0,D,C,0.0,53.651,0.151,,
252,,rl_choice_confirmation,,html-keyboard-response,252,1164905,0.0-1.0-346.0-0.0,0,0,1,,,,,,49.0,,,,,,,,,,,,,,,,,,,,,,,55.0,1.349,,
253,,isi,,html-keyboard-response,253,1165009,0.0-1.0-348.0,0,0,1,,,,,,,,,,,,,,,,,,,,,,,,,,,,,56.0,1.0,,
254,,feedback,,html-keyboard-response,254,1166016,0.0-1.0-349.0-0.0,0,0,1,,,,,,49.0,,,,,,,,,,,,,,,,,,,,,,,57.0,1.0,,
255,,iti,,html-keyboard-response,255,1166118,0.0-1.0-350.0,0,0,1,,,,,,,,,,,,,,,,,,,,,,,,,,,,,60.0,3.0,,
256,,rl_choice,,html-keyboard-response,256,1166471,0.0-1.0-352.0,0,0,1,,351.0,,,51.0,50.0,50.0,2.0,easy,1000.0,1000.0,1.0,80.0,20.0,100.0,40.0,B,A,/static/Simple_RL/Stimuli/Fractals_stims/B.jpg,/static/Simple_RL/Stimuli/Fractals_stims/A.jpg,0.0,20.0,80.0,40.0,100.0,A,B,0.0,60.351,0.351,,
257,,rl_choice_confirmation,,html-keyboard-response,257,1167624,0.0-1.0-353.0-0.0,0,0,1,,,,,,50.0,,,,,,,,,,,,,,,,,,,,,,,61.5,1.149,,
258,,isi,,html-keyboard-response,258,1167729,0.0-1.0-355.0,0,0,1,,,,,,,,,,,,,,,,,,,,,,,,,,,,,62.5,1.0,,
259,,feedback,,html-keyboard-response,259,1168732,0.0-1.0-356.0-0.0,0,0,1,,,,,,50.0,,,,,,,,,,,,,,,,,,,,,,,63.5,1.0,,
260,,iti,,html-keyboard-response,260,1168834,0.0-1.0-357.0,0,0,1,,,,,,,,,,,,,,,,,,,,,,,,,,,,,64.5,1.0,,
261,,rl_choice,,html-keyboard-response,261,1170341,0.0-1.0-359.0,0,0,1,,,,,,51.0,51.0,2.0,easy,2000.0,3000.0,0.0,20.0,80.0,40.0,60.0,A,B,/static/Simple_RL/Stimuli/Fractals_stims/A.jpg,/static/Simple_RL/Stimuli/Fractals_stims/B.jpg,,,,,,,,,66.0,1.5,1.0,
262,,rl_choice_warning,,html-keyboard-response,262,1171346,0.0-1.0-361.0-0.0,1,0,1,,,,,,,,,,,,,,,,,,,,,,,,,,,,,67.0,1.0,,
263,,isi,,html-keyboard-response,263,1171448,0.0-1.0-362.0,0,0,1,,,,,,,,,,,,,,,,,,,,,,,,,,,,,70.0,3.0,,
264,,iti,,html-keyboard-response,264,1171551,0.0-1.0-364.0,0,0,1,,,,,,,,,,,,,,,,,,,,,,,,,,,,,72.0,2.0,,
265,,rl_choice,,html-keyboard-response,265,1171789,0.0-1.0-366.0,0,0,1,,236.0,,,51.0,52.0,52.0,2.0,easy,3500.0,1500.0,1.0,80.0,20.0,60.0,20.0,B,A,/static/Simple_RL/Stimuli/Fractals_stims/B.jpg,/static/Simple_RL/Stimuli/Fractals_stims/A.jpg,0.0,20.0,80.0,20.0,60.0,A,B,0.0,72.236,0.236,,
266,,rl_choice_confirmation,,html-keyboard-response,266,1173057,0.0-1.0-367.0-0.0,0,0,1,,,,,,52.0,,,,,,,,,,,,,,,,,,,,,,,73.5,1.264,,
267,,isi,,html-keyboard-response,267,1173159,0.0-1.0-369.0,0,0,1,,,,,,,,,,,,,,,,,,,,,,,,,,,,,75.0,1.5,,
268,,feedback,,html-keyboard-response,268,1174161,0.0-1.0-370.0-0.0,0,0,1,,,,,,52.0,,,,,,,,,,,,,,,,,,,,,,,76.0,1.0,,
269,,iti,,html-keyboard-response,269,1174263,0.0-1.0-371.0,0,0,1,,,,,,,,,,,,,,,,,,,,,,,,,,,,,79.5,3.5,,
270,,rl_choice,,html-keyboard-response,270,1175022,0.0-1.0-373.0,0,0,1,,757.0,,,51.0,53.0,53.0,2.0,hard,1500.0,1500.0,1.0,60.0,40.0,40.0,40.0,D,C,/static/Simple_RL/Stimuli/Fractals_stims/D.jpg,/static/Simple_RL/Stimuli/Fractals_stims/C.jpg,0.0,40.0,60.0,40.0,40.0,C,D,0.0,80.257,0.757,,
271,,rl_choice_confirmation,,html-keyboard-response,271,1175772,0.0-1.0-374.0-0.0,0,0,1,,,,,,53.0,,,,,,,,,,,,,,,,,,,,,,,81.0,0.743,,
272,,isi,,html-keyboard-response,272,1175876,0.0-1.0-376.0,0,0,1,,,,,,,,,,,,,,,,,,,,,,,,,,,,,82.5,1.5,,
273,,feedback,,html-keyboard-response,273,1176881,0.0-1.0-377.0-0.0,0,0,1,,,,,,53.0,,,,,,,,,,,,,,,,,,,,,,,83.5,1.0,,
274,,iti,,html-keyboard-response,274,1176983,0.0-1.0-378.0,0,0,1,,,,,,,,,,,,,,,,,,,,,,,,,,,,,85.0,1.5,,
275,,rl_choice,,html-keyboard-response,275,1177010,0.0-1.0-380.0,0,0,1,,26.0,,,51.0,54.0,54.0,2.0,hard,2000.0,3000.0,1.0,60.0,40.0,60.0,20.0,D,C,/static/Simple_RL/Stimuli/Fractals_stims/D.jpg,/static/Simple_RL/Stimuli/Fractals_stims/C.jpg,0.0,40.0,60.0,20.0,60.0,C,D,0.0,85.026,0.026,,
276,,rl_choice_confirmation,,html-keyboard-response,276,1178490,0.0-1.0-381.0-0.0,0,0,1,,,,,,54.0,,,,,,,,,,,,,,,,,,,,,,,86.5,1.474,,
277,,isi,,html-keyboard-response,277,1178593,0.0-1.0-383.0,0,0,1,,,,,,,,,,,,,,,,,,,,,,,,,,,,,89.5,3.0,,
278,,feedback,,html-keyboard-response,278,1179596,0.0-1.0-384.0-0.0,0,0,1,,,,,,54.0,,,,,,,,,,,,,,,,,,,,,,,90.5,1.0,,
279,,iti,,html-keyboard-response,279,1179703,0.0-1.0-385.0,0,0,1,,,,,,,,,,,,,,,,,,,,,,,,,,,,,92.5,2.0,,
280,,rl_choice,,html-keyboard-response,280,1179976,0.0-1.0-387.0,0,0,1,,270.0,,,51.0,55.0,55.0,2.0,hard,1500.0,1500.0,1.0,60.0,40.0,60.0,40.0,D,C,/static/Simple_RL/Stimuli/Fractals_stims/D.jpg,/static/Simple_RL/Stimuli/Fractals_stims/C.jpg,0.0,40.0,60.0,40.0,60.0,C,D,0.0,92.77,0.27,,
281,,rl_choice_confirmation,,html-keyboard-response,281,1181211,0.0-1.0-388.0-0.0,0,0,1,,,,,,55.0,,,,,,,,,,,,,,,,,,,,,,,94.0,1.23,,
282,,isi,,html-keyboard-response,282,1181314,0.0-1.0-390.0,0,0,1,,,,,,,,,,,,,,,,,,,,,,,,,,,,,95.5,1.5,,
283,,feedback,,html-keyboard-response,283,1182316,0.0-1.0-391.0-0.0,0,0,1,,,,,,55.0,,,,,,,,,,,,,,,,,,,,,,,96.5,1.0,,
284,,iti,,html-keyboard-response,284,1182418,0.0-1.0-392.0,0,0,1,,,,,,,,,,,,,,,,,,,,,,,,,,,,,98.0,1.5,,
285,,rl_choice,,html-keyboard-response,285,1182719,0.0-1.0-394.0,0,0,1,,300.0,,,51.0,56.0,56.0,2.0,hard,1000.0,2000.0,0.0,40.0,60.0,20.0,40.0,C,D,/static/Simple_RL/Stimuli/Fractals_stims/C.jpg,/static/Simple_RL/Stimuli/Fractals_stims/D.jpg,0.0,60.0,40.0,40.0,20.0,D,C,0.0,98.3,0.3,,
286,,rl_choice_confirmation,,html-keyboard-response,286,1183921,0.0-1.0-395.0-0.0,0,0,1,,,,,,56.0,,,,,,,,,,,,,,,,,,,,,,,99.5,1.2,,
287,,isi,,html-keyboard-response,287,1184025,0.0-1.0-397.0,0,0,1,,,,,,,,,,,,,,,,,,,,,,,,,,,,,101.5,2.0,,
288,,feedback,,html-keyboard-response,288,1185030,0.0-1.0-398.0-0.0,0,0,1,,,,,,56.0,,,,,,,,,,,,,,,,,,,,,,,102.5,1.0,,
289,,iti,,html-keyboard-response,289,1185132,0.0-1.0-399.0,0,0,1,,,,,,,,,,,,,,,,,,,,,,,,,,,,,103.5,1.0,,
290,,rl_choice,,html-keyboard-response,290,1185334,0.0-1.0-401.0,0,0,1,,200.0,,,51.0,57.0,57.0,2.0,easy,1500.0,2000.0,0.0,20.0,80.0,40.0,80.0,A,B,/static/Simple_RL/Stimuli/Fractals_stims/A.jpg,/static/Simple_RL/Stimuli/Fractals_stims/B.jpg,0.0,80.0,20.0,80.0,40.0,B,A,0.0,103.7,0.2,,
291,,rl_choice_confirmation,,html-keyboard-response,291,1186636,0.0-1.0-402.0-0.0,0,0,1,,,,,,57.0,,,,,,,,,,,,,,,,,,,,,,,105.0,1.3,,
292,,isi,,html-keyboard-response,292,1186742,0.0-1.0-404.0,0,0,1,,,,,,,,,,,,,,,,,,,,,,,,,,,,,107.0,2.0,,
293,,feedback,,html-keyboard-response,293,1187746,0.0-1.0-405.0-0.0,0,0,1,,,,,,57.0,,,,,,,,,,,,,,,,,,,,,,,108.0,1.0,,
294,,iti,,html-keyboard-response,294,1187852,0.0-1.0-406.0,0,0,1,,,,,,,,,,,,,,,,,,,,,,,,,,,,,109.5,1.5,,
295,,rl_choice,,html-keyboard-response,295,1188320,0.0-1.0-408.0,0,0,1,,466.0,,,51.0,58.0,58.0,2.0,hard,2000.0,2000.0,0.0,40.0,60.0,40.0,80.0,C,D,/static/Simple_RL/Stimuli/Fractals_stims/C.jpg,/static/Simple_RL/Stimuli/Fractals_stims/D.jpg,0.0,60.0,40.0,80.0,40.0,D,C,0.0,109.966,0.466,,
296,,rl_choice_confirmation,,html-keyboard-response,296,1189358,0.0-1.0-409.0-0.0,0,0,1,,,,,,58.0,,,,,,,,,,,,,,,,,,,,,,,111.0,1.034,,
297,,isi,,html-keyboard-response,297,1189463,0.0-1.0-411.0,0,0,1,,,,,,,,,,,,,,,,,,,,,,,,,,,,,113.0,2.0,,
298,,feedback,,html-keyboard-response,298,1190470,0.0-1.0-412.0-0.0,0,0,1,,,,,,58.0,,,,,,,,,,,,,,,,,,,,,,,114.0,1.0,,
299,,iti,,html-keyboard-response,299,1190574,0.0-1.0-413.0,0,0,1,,,,,,,,,,,,,,,,,,,,,,,,,,,,,116.0,2.0,,
300,,rl_choice,,html-keyboard-response,300,1190876,0.0-1.0-415.0,0,0,1,,300.0,,,51.0,59.0,59.0,2.0,easy,3000.0,2000.0,0.0,20.0,80.0,20.0,60.0,A,B,/static/Simple_RL/Stimuli/Fractals_stims/A.jpg,/static/Simple_RL/Stimuli/Fractals_stims/B.jpg,0.0,80.0,20.0,60.0,20.0,B,A,0.0,116.3,0.3,,
301,,rl_choice_confirmation,,html-keyboard-response,301,1192081,0.0-1.0-416.0-0.0,0,0,1,,,,,,59.0,,,,,,,,,,,,,,,,,,,,,,,117.5,1.2,,
302,,isi,,html-keyboard-response,302,1192183,0.0-1.0-418.0,0,0,1,,,,,,,,,,,,,,,,,,,,,,,,,,,,,119.5,2.0,,
303,,feedback,,html-keyboard-response,303,1193186,0.0-1.0-419.0-0.0,0,0,1,,,,,,59.0,,,,,,,,,,,,,,,,,,,,,,,120.5,1.0,,
304,,iti,,html-keyboard-response,304,1193292,0.0-1.0-420.0,0,0,1,,,,,,,,,,,,,,,,,,,,,,,,,,,,,123.5,3.0,,
305,,rl_choice,,html-keyboard-response,305,1193654,0.0-1.0-422.0,0,0,1,,360.0,,,51.0,60.0,60.0,2.0,hard,1500.0,1000.0,1.0,60.0,40.0,60.0,40.0,D,C,/static/Simple_RL/Stimuli/Fractals_stims/D.jpg,/static/Simple_RL/Stimuli/Fractals_stims/C.jpg,0.0,40.0,60.0,40.0,60.0,C,D,0.0,123.86,0.36,,
306,,rl_choice_confirmation,,html-keyboard-response,306,1194796,0.0-1.0-423.0-0.0,0,0,1,,,,,,60.0,,,,,,,,,,,,,,,,,,,,,,,125.0,1.14,,
307,,isi,,html-keyboard-response,307,1194898,0.0-1.0-425.0,0,0,1,,,,,,,,,,,,,,,,,,,,,,,,,,,,,126.0,1.0,,
308,,feedback,,html-keyboard-response,308,1195906,0.0-1.0-426.0-0.0,0,0,1,,,,,,60.0,,,,,,,,,,,,,,,,,,,,,,,127.0,1.0,,
309,,iti,,html-keyboard-response,309,1196012,0.0-1.0-427.0,0,0,1,,,,,,,,,,,,,,,,,,,,,,,,,,,,,128.5,1.5,,
310,,rl_choice,,html-keyboard-response,310,1196377,0.0-1.0-429.0,0,0,1,,363.0,,,51.0,61.0,61.0,2.0,easy,2000.0,2000.0,0.0,20.0,80.0,20.0,80.0,A,B,/static/Simple_RL/Stimuli/Fractals_stims/A.jpg,/static/Simple_RL/Stimuli/Fractals_stims/B.jpg,0.0,80.0,20.0,80.0,20.0,B,A,0.0,128.863,0.363,,
311,,rl_choice_confirmation,,html-keyboard-response,311,1197519,0.0-1.0-430.0-0.0,0,0,1,,,,,,61.0,,,,,,,,,,,,,,,,,,,,,,,130.0,1.137,,
312,,isi,,html-keyboard-response,312,1197624,0.0-1.0-432.0,0,0,1,,,,,,,,,,,,,,,,,,,,,,,,,,,,,132.0,2.0,,
313,,feedback,,html-keyboard-response,313,1198628,0.0-1.0-433.0-0.0,0,0,1,,,,,,61.0,,,,,,,,,,,,,,,,,,,,,,,133.0,1.0,,
314,,iti,,html-keyboard-response,314,1198732,0.0-1.0-434.0,0,0,1,,,,,,,,,,,,,,,,,,,,,,,,,,,,,135.0,2.0,,
315,,rl_choice,,html-keyboard-response,315,1198757,0.0-1.0-436.0,0,0,1,,23.0,,,51.0,62.0,62.0,2.0,hard,1500.0,3500.0,1.0,60.0,40.0,80.0,40.0,D,C,/static/Simple_RL/Stimuli/Fractals_stims/D.jpg,/static/Simple_RL/Stimuli/Fractals_stims/C.jpg,0.0,40.0,60.0,40.0,80.0,C,D,0.0,135.023,0.023,,
316,,rl_choice_confirmation,,html-keyboard-response,316,1200236,0.0-1.0-437.0-0.0,0,0,1,,,,,,62.0,,,,,,,,,,,,,,,,,,,,,,,136.5,1.477,,
317,,isi,,html-keyboard-response,317,1200338,0.0-1.0-439.0,0,0,1,,,,,,,,,,,,,,,,,,,,,,,,,,,,,140.0,3.5,,
318,,feedback,,html-keyboard-response,318,1201344,0.0-1.0-440.0-0.0,0,0,1,,,,,,62.0,,,,,,,,,,,,,,,,,,,,,,,141.0,1.0,,
319,,iti,,html-keyboard-response,319,1201448,0.0-1.0-441.0,0,0,1,,,,,,,,,,,,,,,,,,,,,,,,,,,,,142.5,1.5,,
320,,rl_choice,,html-keyboard-response,320,1201672,0.0-1.0-443.0,0,0,1,,222.0,,,51.0,63.0,63.0,2.0,hard,1000.0,1500.0,0.0,40.0,60.0,40.0,40.0,C,D,/static/Simple_RL/Stimuli/Fractals_stims/C.jpg,/static/Simple_RL/Stimuli/Fractals_stims/D.jpg,0.0,60.0,40.0,40.0,40.0,D,C,0.0,142.722,0.222,,
321,,rl_choice_confirmation,,html-keyboard-response,321,1202956,0.0-1.0-444.0-0.0,0,0,1,,,,,,63.0,,,,,,,,,,,,,,,,,,,,,,,144.0,1.278,,
322,,isi,,html-keyboard-response,322,1203063,0.0-1.0-446.0,0,0,1,,,,,,,,,,,,,,,,,,,,,,,,,,,,,145.5,1.5,,
323,,feedback,,html-keyboard-response,323,1204069,0.0-1.0-447.0-0.0,0,0,1,,,,,,63.0,,,,,,,,,,,,,,,,,,,,,,,146.5,1.0,,
324,,iti,,html-keyboard-response,324,1204175,0.0-1.0-448.0,0,0,1,,,,,,,,,,,,,,,,,,,,,,,,,,,,,147.5,1.0,,
325,,rl_choice,,html-keyboard-response,325,1204365,0.0-1.0-450.0,0,0,1,,188.0,,,51.0,64.0,64.0,2.0,hard,1000.0,1500.0,1.0,60.0,40.0,60.0,60.0,D,C,/static/Simple_RL/Stimuli/Fractals_stims/D.jpg,/static/Simple_RL/Stimuli/Fractals_stims/C.jpg,0.0,40.0,60.0,60.0,60.0,C,D,0.0,147.688,0.188,,
326,,rl_choice_confirmation,,html-keyboard-response,326,1205683,0.0-1.0-451.0-0.0,0,0,1,,,,,,64.0,,,,,,,,,,,,,,,,,,,,,,,149.0,1.312,,
327,,isi,,html-keyboard-response,327,1205788,0.0-1.0-453.0,0,0,1,,,,,,,,,,,,,,,,,,,,,,,,,,,,,150.5,1.5,,
328,,feedback,,html-keyboard-response,328,1206791,0.0-1.0-454.0-0.0,0,0,1,,,,,,64.0,,,,,,,,,,,,,,,,,,,,,,,151.5,1.0,,
329,,iti,,html-keyboard-response,329,1206898,0.0-1.0-455.0,0,0,1,,,,,,,,,,,,,,,,,,,,,,,,,,,,,152.5,1.0,,
330,,rl_choice,,html-keyboard-response,330,1206904,0.0-1.0-457.0,0,0,1,,3.0,,,51.0,65.0,65.0,2.0,easy,1000.0,1000.0,0.0,20.0,80.0,20.0,100.0,A,B,/static/Simple_RL/Stimuli/Fractals_stims/A.jpg,/static/Simple_RL/Stimuli/Fractals_stims/B.jpg,0.0,80.0,20.0,100.0,20.0,B,A,0.0,152.503,0.003,,
331,,rl_choice_confirmation,,html-keyboard-response,331,1208407,0.0-1.0-458.0-0.0,0,0,1,,,,,,65.0,,,,,,,,,,,,,,,,,,,,,,,154.0,1.497,,
332,,isi,,html-keyboard-response,332,1208514,0.0-1.0-460.0,0,0,1,,,,,,,,,,,,,,,,,,,,,,,,,,,,,155.0,1.0,,
333,,feedback,,html-keyboard-response,333,1209518,0.0-1.0-461.0-0.0,0,0,1,,,,,,65.0,,,,,,,,,,,,,,,,,,,,,,,156.0,1.0,,
334,,iti,,html-keyboard-response,334,1209624,0.0-1.0-462.0,0,0,1,,,,,,,,,,,,,,,,,,,,,,,,,,,,,157.0,1.0,,
335,,rl_choice,,html-keyboard-response,335,1209992,0.0-1.0-464.0,0,0,1,,366.0,,,51.0,66.0,66.0,2.0,easy,1000.0,1500.0,0.0,20.0,80.0,40.0,60.0,A,B,/static/Simple_RL/Stimuli/Fractals_stims/A.jpg,/static/Simple_RL/Stimuli/Fractals_stims/B.jpg,0.0,80.0,20.0,60.0,40.0,B,A,0.0,157.366,0.366,,
336,,rl_choice_confirmation,,html-keyboard-response,336,1211133,0.0-1.0-465.0-0.0,0,0,1,,,,,,66.0,,,,,,,,,,,,,,,,,,,,,,,158.5,1.134,,
337,,isi,,html-keyboard-response,337,1211239,0.0-1.0-467.0,0,0,1,,,,,,,,,,,,,,,,,,,,,,,,,,,,,160.0,1.5,,
338,,feedback,,html-keyboard-response,338,1212244,0.0-1.0-468.0-0.0,0,0,1,,,,,,66.0,,,,,,,,,,,,,,,,,,,,,,,161.0,1.0,,
339,,iti,,html-keyboard-response,339,1212348,0.0-1.0-469.0,0,0,1,,,,,,,,,,,,,,,,,,,,,,,,,,,,,162.0,1.0,,
340,,rl_choice,,html-keyboard-response,340,1212609,0.0-1.0-471.0,0,0,1,,260.0,,,51.0,67.0,67.0,2.0,easy,2000.0,1500.0,0.0,20.0,80.0,0.0,60.0,A,B,/static/Simple_RL/Stimuli/Fractals_stims/A.jpg,/static/Simple_RL/Stimuli/Fractals_stims/B.jpg,0.0,80.0,20.0,60.0,0.0,B,A,0.0,162.26,0.26,,
341,,rl_choice_confirmation,,html-keyboard-response,341,1213855,0.0-1.0-472.0-0.0,0,0,1,,,,,,67.0,,,,,,,,,,,,,,,,,,,,,,,163.5,1.24,,
342,,isi,,html-keyboard-response,342,1213959,0.0-1.0-474.0,0,0,1,,,,,,,,,,,,,,,,,,,,,,,,,,,,,165.0,1.5,,
343,,feedback,,html-keyboard-response,343,1214964,0.0-1.0-475.0-0.0,0,0,1,,,,,,67.0,,,,,,,,,,,,,,,,,,,,,,,166.0,1.0,,
344,,iti,,html-keyboard-response,344,1215069,0.0-1.0-476.0,0,0,1,,,,,,,,,,,,,,,,,,,,,,,,,,,,,168.0,2.0,,
345,,rl_choice,,html-keyboard-response,345,1216168,0.0-1.0-478.0,0,0,1,,1096.0,,,51.0,68.0,68.0,2.0,easy,1500.0,1000.0,1.0,80.0,20.0,80.0,40.0,B,A,/static/Simple_RL/Stimuli/Fractals_stims/B.jpg,/static/Simple_RL/Stimuli/Fractals_stims/A.jpg,0.0,20.0,80.0,40.0,80.0,A,B,0.0,169.096,1.096,,
346,,rl_choice_confirmation,,html-keyboard-response,346,1216577,0.0-1.0-479.0-0.0,0,0,1,,,,,,68.0,,,,,,,,,,,,,,,,,,,,,,,169.5,0.404,,
347,,isi,,html-keyboard-response,347,1216681,0.0-1.0-481.0,0,0,1,,,,,,,,,,,,,,,,,,,,,,,,,,,,,170.5,1.0,,
348,,feedback,,html-keyboard-response,348,1217687,0.0-1.0-482.0-0.0,0,0,1,,,,,,68.0,,,,,,,,,,,,,,,,,,,,,,,171.5,1.0,,
349,,iti,,html-keyboard-response,349,1217791,0.0-1.0-483.0,0,0,1,,,,,,,,,,,,,,,,,,,,,,,,,,,,,173.0,1.5,,
350,,rl_choice,,html-keyboard-response,350,1218352,0.0-1.0-485.0,0,0,1,,559.0,,,51.0,69.0,69.0,2.0,hard,1000.0,1000.0,0.0,40.0,60.0,60.0,80.0,C,D,/static/Simple_RL/Stimuli/Fractals_stims/C.jpg,/static/Simple_RL/Stimuli/Fractals_stims/D.jpg,0.0,60.0,40.0,80.0,60.0,D,C,0.0,173.559,0.559,,
351,,rl_choice_confirmation,,html-keyboard-response,351,1219298,0.0-1.0-486.0-0.0,0,0,1,,,,,,69.0,,,,,,,,,,,,,,,,,,,,,,,174.5,0.941,,
352,,isi,,html-keyboard-response,352,1219403,0.0-1.0-488.0,0,0,1,,,,,,,,,,,,,,,,,,,,,,,,,,,,,175.5,1.0,,
353,,feedback,,html-keyboard-response,353,1220409,0.0-1.0-489.0-0.0,0,0,1,,,,,,69.0,,,,,,,,,,,,,,,,,,,,,,,176.5,1.0,,
354,,iti,,html-keyboard-response,354,1220514,0.0-1.0-490.0,0,0,1,,,,,,,,,,,,,,,,,,,,,,,,,,,,,177.5,1.0,,
355,,rl_choice,,html-keyboard-response,355,1221168,0.0-1.0-492.0,0,0,1,,651.0,,,51.0,70.0,70.0,2.0,easy,1000.0,1000.0,1.0,80.0,20.0,60.0,0.0,B,A,/static/Simple_RL/Stimuli/Fractals_stims/B.jpg,/static/Simple_RL/Stimuli/Fractals_stims/A.jpg,0.0,20.0,80.0,0.0,60.0,A,B,0.0,178.151,0.651,,
356,,rl_choice_confirmation,,html-keyboard-response,356,1222023,0.0-1.0-493.0-0.0,0,0,1,,,,,,70.0,,,,,,,,,,,,,,,,,,,,,,,179.0,0.849,,
357,,isi,,html-keyboard-response,357,1222130,0.0-1.0-495.0,0,0,1,,,,,,,,,,,,,,,,,,,,,,,,,,,,,180.0,1.0,,
358,,feedback,,html-keyboard-response,358,1223133,0.0-1.0-496.0-0.0,0,0,1,,,,,,70.0,,,,,,,,,,,,,,,,,,,,,,,181.0,1.0,,
359,,iti,,html-keyboard-response,359,1223239,0.0-1.0-497.0,0,0,1,,,,,,,,,,,,,,,,,,,,,,,,,,,,,182.0,1.0,,
360,,rl_choice,,html-keyboard-response,360,1223557,0.0-1.0-499.0,0,0,1,,316.0,,,51.0,71.0,71.0,2.0,hard,1000.0,1000.0,0.0,40.0,60.0,40.0,40.0,C,D,/static/Simple_RL/Stimuli/Fractals_stims/C.jpg,/static/Simple_RL/Stimuli/Fractals_stims/D.jpg,0.0,60.0,40.0,40.0,40.0,D,C,0.0,182.316,0.316,,
361,,rl_choice_confirmation,,html-keyboard-response,361,1224743,0.0-1.0-500.0-0.0,0,0,1,,,,,,71.0,,,,,,,,,,,,,,,,,,,,,,,183.5,1.184,,
362,,isi,,html-keyboard-response,362,1224847,0.0-1.0-502.0,0,0,1,,,,,,,,,,,,,,,,,,,,,,,,,,,,,184.5,1.0,,
363,,feedback,,html-keyboard-response,363,1225853,0.0-1.0-503.0-0.0,0,0,1,,,,,,71.0,,,,,,,,,,,,,,,,,,,,,,,185.5,1.0,,
364,,iti,,html-keyboard-response,364,1225958,0.0-1.0-504.0,0,0,1,,,,,,,,,,,,,,,,,,,,,,,,,,,,,186.5,1.0,,
365,,rl_choice,,html-keyboard-response,365,1226921,0.0-1.0-506.0,0,0,1,,954.0,,,51.0,72.0,72.0,2.0,hard,1000.0,1000.0,0.0,40.0,60.0,60.0,80.0,C,D,/static/Simple_RL/Stimuli/Fractals_stims/C.jpg,/static/Simple_RL/Stimuli/Fractals_stims/D.jpg,0.0,60.0,40.0,80.0,60.0,D,C,0.0,187.454,0.954,,
366,,rl_choice_confirmation,,html-keyboard-response,366,1227469,0.0-1.0-507.0-0.0,0,0,1,,,,,,72.0,,,,,,,,,,,,,,,,,,,,,,,188.0,0.546,,
367,,isi,,html-keyboard-response,367,1227575,0.0-1.0-509.0,0,0,1,,,,,,,,,,,,,,,,,,,,,,,,,,,,,189.0,1.0,,
368,,feedback,,html-keyboard-response,368,1228581,0.0-1.0-510.0-0.0,0,0,1,,,,,,72.0,,,,,,,,,,,,,,,,,,,,,,,190.0,1.0,,
369,,iti,,html-keyboard-response,369,1228684,0.0-1.0-511.0,0,0,1,,,,,,,,,,,,,,,,,,,,,,,,,,,,,191.0,1.0,,
370,,rl_choice,,html-keyboard-response,370,1228702,0.0-1.0-513.0,0,0,1,,16.0,,,51.0,73.0,73.0,2.0,easy,1000.0,1000.0,1.0,80.0,20.0,80.0,20.0,B,A,/static/Simple_RL/Stimuli/Fractals_stims/B.jpg,/static/Simple_RL/Stimuli/Fractals_stims/A.jpg,0.0,20.0,80.0,20.0,80.0,A,B,0.0,191.016,0.016,,
371,,rl_choice_confirmation,,html-keyboard-response,371,1230193,0.0-1.0-514.0-0.0,0,0,1,,,,,,73.0,,,,,,,,,,,,,,,,,,,,,,,192.5,1.484,,
372,,isi,,html-keyboard-response,372,1230297,0.0-1.0-516.0,0,0,1,,,,,,,,,,,,,,,,,,,,,,,,,,,,,193.5,1.0,,
373,,feedback,,html-keyboard-response,373,1231303,0.0-1.0-517.0-0.0,0,0,1,,,,,,73.0,,,,,,,,,,,,,,,,,,,,,,,194.5,1.0,,
374,,iti,,html-keyboard-response,374,1231409,0.0-1.0-518.0,0,0,1,,,,,,,,,,,,,,,,,,,,,,,,,,,,,195.5,1.0,,
375,,rl_choice,,html-keyboard-response,375,1231832,0.0-1.0-520.0,0,0,1,,421.0,,,51.0,74.0,74.0,2.0,easy,1500.0,2000.0,1.0,80.0,20.0,80.0,20.0,B,A,/static/Simple_RL/Stimuli/Fractals_stims/B.jpg,/static/Simple_RL/Stimuli/Fractals_stims/A.jpg,0.0,20.0,80.0,20.0,80.0,A,B,0.0,195.921,0.421,,
376,,rl_choice_confirmation,,html-keyboard-response,376,1232916,0.0-1.0-521.0-0.0,0,0,1,,,,,,74.0,,,,,,,,,,,,,,,,,,,,,,,197.0,1.079,,
377,,isi,,html-keyboard-response,377,1233021,0.0-1.0-523.0,0,0,1,,,,,,,,,,,,,,,,,,,,,,,,,,,,,199.0,2.0,,
378,,feedback,,html-keyboard-response,378,1234022,0.0-1.0-524.0-0.0,0,0,1,,,,,,74.0,,,,,,,,,,,,,,,,,,,,,,,200.0,1.0,,
379,,iti,,html-keyboard-response,379,1234126,0.0-1.0-525.0,0,0,1,,,,,,,,,,,,,,,,,,,,,,,,,,,,,201.5,1.5,,
380,,rl_choice,,html-keyboard-response,380,1234488,0.0-1.0-527.0,0,0,1,,357.0,,,51.0,75.0,75.0,2.0,easy,1000.0,3500.0,0.0,20.0,80.0,40.0,80.0,A,B,/static/Simple_RL/Stimuli/Fractals_stims/A.jpg,/static/Simple_RL/Stimuli/Fractals_stims/B.jpg,0.0,80.0,20.0,80.0,40.0,B,A,0.0,201.857,0.357,,
381,,rl_choice_confirmation,,html-keyboard-response,381,1235634,0.0-1.0-528.0-0.0,0,0,1,,,,,,75.0,,,,,,,,,,,,,,,,,,,,,,,203.0,1.143,,
382,,isi,,html-keyboard-response,382,1235741,0.0-1.0-530.0,0,0,1,,,,,,,,,,,,,,,,,,,,,,,,,,,,,206.5,3.5,,
383,,feedback,,html-keyboard-response,383,1236748,0.0-1.0-531.0-0.0,0,0,1,,,,,,75.0,,,,,,,,,,,,,,,,,,,,,,,207.5,1.0,,
384,,iti,,html-keyboard-response,384,1236850,0.0-1.0-532.0,0,0,1,,,,,,,,,,,,,,,,,,,,,,,,,,,,,208.5,1.0,,
385,,rl_choice,,html-keyboard-response,385,1237312,0.0-1.0-534.0,0,0,1,,460.0,,,51.0,76.0,76.0,2.0,easy,1000.0,3000.0,0.0,20.0,80.0,40.0,100.0,A,B,/static/Simple_RL/Stimuli/Fractals_stims/A.jpg,/static/Simple_RL/Stimuli/Fractals_stims/B.jpg,0.0,80.0,20.0,100.0,40.0,B,A,0.0,208.96,0.46,,
386,,rl_choice_confirmation,,html-keyboard-response,386,1238358,0.0-1.0-535.0-0.0,0,0,1,,,,,,76.0,,,,,,,,,,,,,,,,,,,,,,,210.0,1.04,,
387,,isi,,html-keyboard-response,387,1238464,0.0-1.0-537.0,0,0,1,,,,,,,,,,,,,,,,,,,,,,,,,,,,,213.0,3.0,,
388,,feedback,,html-keyboard-response,388,1239469,0.0-1.0-538.0-0.0,0,0,1,,,,,,76.0,,,,,,,,,,,,,,,,,,,,,,,214.0,1.0,,
389,,iti,,html-keyboard-response,389,1239576,0.0-1.0-539.0,0,0,1,,,,,,,,,,,,,,,,,,,,,,,,,,,,,215.0,1.0,,
390,,rl_choice,,html-keyboard-response,390,1239913,0.0-1.0-541.0,0,0,1,,335.0,,,51.0,77.0,77.0,2.0,easy,2000.0,1000.0,1.0,80.0,20.0,100.0,20.0,B,A,/static/Simple_RL/Stimuli/Fractals_stims/B.jpg,/static/Simple_RL/Stimuli/Fractals_stims/A.jpg,0.0,20.0,80.0,20.0,100.0,A,B,0.0,215.335,0.335,,
391,,rl_choice_confirmation,,html-keyboard-response,391,1241081,0.0-1.0-542.0-0.0,0,0,1,,,,,,77.0,,,,,,,,,,,,,,,,,,,,,,,216.5,1.165,,
392,,isi,,html-keyboard-response,392,1241183,0.0-1.0-544.0,0,0,1,,,,,,,,,,,,,,,,,,,,,,,,,,,,,217.5,1.0,,
393,,feedback,,html-keyboard-response,393,1242189,0.0-1.0-545.0-0.0,0,0,1,,,,,,77.0,,,,,,,,,,,,,,,,,,,,,,,218.5,1.0,,
394,,iti,,html-keyboard-response,394,1242296,0.0-1.0-546.0,0,0,1,,,,,,,,,,,,,,,,,,,,,,,,,,,,,220.5,2.0,,
395,,rl_choice,,html-keyboard-response,395,1242712,0.0-1.0-548.0,0,0,1,,414.0,,,51.0,78.0,78.0,2.0,hard,1000.0,1500.0,1.0,60.0,40.0,80.0,40.0,D,C,/static/Simple_RL/Stimuli/Fractals_stims/D.jpg,/static/Simple_RL/Stimuli/Fractals_stims/C.jpg,0.0,40.0,60.0,40.0,80.0,C,D,0.0,220.914,0.414,,
396,,rl_choice_confirmation,,html-keyboard-response,396,1243805,0.0-1.0-549.0-0.0,0,0,1,,,,,,78.0,,,,,,,,,,,,,,,,,,,,,,,222.0,1.086,,
397,,isi,,html-keyboard-response,397,1243911,0.0-1.0-551.0,0,0,1,,,,,,,,,,,,,,,,,,,,,,,,,,,,,223.5,1.5,,
398,,feedback,,html-keyboard-response,398,1244917,0.0-1.0-552.0-0.0,0,0,1,,,,,,78.0,,,,,,,,,,,,,,,,,,,,,,,224.5,1.0,,
399,,iti,,html-keyboard-response,399,1245021,0.0-1.0-553.0,0,0,1,,,,,,,,,,,,,,,,,,,,,,,,,,,,,225.5,1.0,,
400,,rl_choice,,html-keyboard-response,400,1245216,0.0-1.0-555.0,0,0,1,,193.0,,,51.0,79.0,79.0,2.0,hard,2000.0,2000.0,1.0,60.0,40.0,60.0,60.0,D,C,/static/Simple_RL/Stimuli/Fractals_stims/D.jpg,/static/Simple_RL/Stimuli/Fractals_stims/C.jpg,0.0,40.0,60.0,60.0,60.0,C,D,0.0,225.693,0.193,,
401,,rl_choice_confirmation,,html-keyboard-response,401,1246525,0.0-1.0-556.0-0.0,0,0,1,,,,,,79.0,,,,,,,,,,,,,,,,,,,,,,,227.0,1.307,,
402,,isi,,html-keyboard-response,402,1246632,0.0-1.0-558.0,0,0,1,,,,,,,,,,,,,,,,,,,,,,,,,,,,,229.0,2.0,,
403,,feedback,,html-keyboard-response,403,1247638,0.0-1.0-559.0-0.0,0,0,1,,,,,,79.0,,,,,,,,,,,,,,,,,,,,,,,230.0,1.0,,
404,,iti,,html-keyboard-response,404,1247742,0.0-1.0-560.0,0,0,1,,,,,,,,,,,,,,,,,,,,,,,,,,,,,232.0,2.0,,1.9
405,,final_tally,,html-keyboard-response,405,1257130,0.0-2.0,0,0,1,,9385.0,,,50.0,,,,,,,,,,,,,,,,,,,,,,,,,,,
