,success,ttype,start_time,trial_type,trial_index,time_elapsed,internal_node_id,warning,missed_checkup,PID,view_history,rt,responses,repeat_instructions,key_press,index,trial_num,block,condition,iti,isi,high_group_on_left,left_group_value,right_group_value,left_item_value,right_item_value,left_img,right_img,left_img_path,right_img_path,left_chosen,chosen_group_value,unchosen_group_value,chosen_item_value,unchosen_item_value,chosen_img,unchosen_img,onset,duration,no_response,total_bonus_tally
0,True,full_screen,d06012022hr2304,fullscreen,0,21429,0.0-0.0,0,0,97341,,,,,,,,,,,,,,,,,,,,,,,,,,,,,,,
1,,size_instructions,,instructions,1,25242,0.0-1.0-0.0-0.0,0,0,97341,"[{""page_index"":0,""viewing_time"":2078},{""page_index"":1,""viewing_time"":270},{""page_index"":2,""viewing_time"":287},{""page_index"":3,""viewing_time"":193},{""page_index"":4,""viewing_time"":598},{""page_index"":5,""viewing_time"":386}]",3812.0,,,,,,,,,,,,,,,,,,,,,,,,,,,,,
2,,rl_comprehension_check,,survey-multi-choice,2,31463,0.0-1.0-0.0-1.0,0,0,97341,,6218.0,"{""Q0"":""True"",""Q1"":""True"",""Q2"":""D for left and K for right""}",0.0,,,,,,,,,,,,,,,,,,,,,,,,,,,
3,,,,html-keyboard-response,3,32720,0.0-1.0-1.0,0,0,97341,,1255.0,,,68.0,,,,,,,,,,,,,,,,,,,,,,,,,,
4,,rl_choice,,html-keyboard-response,4,33324,0.0-1.0-2.0,0,0,97341,,602.0,,,68.0,0.0,0.0,1.0,hard,3500.0,2000.0,1.0,60.0,40.0,80.0,40.0,A,B,/static/Simple_RL/Stimuli/Fractals_stims/A.jpg,/static/Simple_RL/Stimuli/Fractals_stims/B.jpg,1.0,60.0,40.0,80.0,40.0,A,B,0.602,0.602,0.0,
5,,rl_choice_confirmation,,html-keyboard-response,5,34228,0.0-1.0-3.0-0.0,0,0,97341,,,,,,0.0,,,,,,,,,,,,,,,,,,,,,,1.5,0.898,,
6,,isi,,html-keyboard-response,6,34329,0.0-1.0-5.0,0,0,97341,,,,,,,,,,,,,,,,,,,,,,,,,,,,3.5,2.0,,
7,,feedback,,html-keyboard-response,7,35334,0.0-1.0-6.0-0.0,0,0,97341,,,,,,0.0,,,,,,,,,,,,,,,,,,,,,,4.5,1.0,,
8,,iti,,html-keyboard-response,8,35438,0.0-1.0-7.0,0,0,97341,,,,,,,,,,,,,,,,,,,,,,,,,,,,8.0,3.5,,
9,,rl_choice,,html-keyboard-response,9,36939,0.0-1.0-9.0,0,0,97341,,,,,,1.0,1.0,1.0,hard,1000.0,2000.0,1.0,60.0,40.0,80.0,20.0,A,B,/static/Simple_RL/Stimuli/Fractals_stims/A.jpg,/static/Simple_RL/Stimuli/Fractals_stims/B.jpg,,,,,,,,9.5,1.5,1.0,
10,,rl_choice_warning,,html-keyboard-response,10,37945,0.0-1.0-11.0-0.0,0,0,97341,,,,,,,,,,,,,,,,,,,,,,,,,,,,10.5,1.0,,
11,,isi,,html-keyboard-response,11,38046,0.0-1.0-12.0,0,0,97341,,,,,,,,,,,,,,,,,,,,,,,,,,,,12.5,2.0,,
12,,iti,,html-keyboard-response,12,38147,0.0-1.0-14.0,0,0,97341,,,,,,,,,,,,,,,,,,,,,,,,,,,,13.5,1.0,,
13,,rl_choice,,html-keyboard-response,13,39649,0.0-1.0-16.0,0,0,97341,,,,,,2.0,2.0,1.0,easy,2000.0,2000.0,0.0,20.0,80.0,40.0,100.0,D,C,/static/Simple_RL/Stimuli/Fractals_stims/D.jpg,/static/Simple_RL/Stimuli/Fractals_stims/C.jpg,,,,,,,,15.0,1.5,1.0,
14,,rl_choice_warning,,html-keyboard-response,14,40654,0.0-1.0-18.0-0.0,0,0,97341,,,,,,,,,,,,,,,,,,,,,,,,,,,,16.0,1.0,,
15,,isi,,html-keyboard-response,15,40755,0.0-1.0-19.0,0,0,97341,,,,,,,,,,,,,,,,,,,,,,,,,,,,18.0,2.0,,
16,,iti,,html-keyboard-response,16,40861,0.0-1.0-21.0,0,0,97341,,,,,,,,,,,,,,,,,,,,,,,,,,,,20.0,2.0,,
17,,rl_choice,,html-keyboard-response,17,41120,0.0-1.0-23.0,0,0,97341,,258.0,,,75.0,3.0,3.0,1.0,hard,1500.0,1000.0,0.0,40.0,60.0,20.0,60.0,B,A,/static/Simple_RL/Stimuli/Fractals_stims/B.jpg,/static/Simple_RL/Stimuli/Fractals_stims/A.jpg,0.0,60.0,40.0,60.0,20.0,A,B,20.258,0.258,0.0,
18,,rl_choice_confirmation,,html-keyboard-response,18,42364,0.0-1.0-24.0-0.0,0,0,97341,,,,,,3.0,,,,,,,,,,,,,,,,,,,,,,21.5,1.242,,
19,,isi,,html-keyboard-response,19,42464,0.0-1.0-26.0,0,0,97341,,,,,,,,,,,,,,,,,,,,,,,,,,,,22.5,1.0,,
20,,feedback,,html-keyboard-response,20,43470,0.0-1.0-27.0-0.0,0,0,97341,,,,,,3.0,,,,,,,,,,,,,,,,,,,,,,23.5,1.0,,
21,,iti,,html-keyboard-response,21,43571,0.0-1.0-28.0,0,0,97341,,,,,,,,,,,,,,,,,,,,,,,,,,,,25.0,1.5,,
22,,rl_choice,,html-keyboard-response,22,43826,0.0-1.0-30.0,0,0,97341,,254.0,,,68.0,4.0,4.0,1.0,hard,1500.0,3000.0,0.0,40.0,60.0,40.0,60.0,B,A,/static/Simple_RL/Stimuli/Fractals_stims/B.jpg,/static/Simple_RL/Stimuli/Fractals_stims/A.jpg,1.0,40.0,60.0,40.0,60.0,B,A,25.254,0.254,0.0,
23,,rl_choice_confirmation,,html-keyboard-response,23,45075,0.0-1.0-31.0-0.0,0,0,97341,,,,,,4.0,,,,,,,,,,,,,,,,,,,,,,26.5,1.246,,
24,,isi,,html-keyboard-response,24,45178,0.0-1.0-33.0,0,0,97341,,,,,,,,,,,,,,,,,,,,,,,,,,,,29.5,3.0,,
25,,feedback,,html-keyboard-response,25,46179,0.0-1.0-34.0-0.0,0,0,97341,,,,,,4.0,,,,,,,,,,,,,,,,,,,,,,30.5,1.0,,
26,,iti,,html-keyboard-response,26,46281,0.0-1.0-35.0,0,0,97341,,,,,,,,,,,,,,,,,,,,,,,,,,,,32.0,1.5,,
27,,rl_choice,,html-keyboard-response,27,46584,0.0-1.0-37.0,0,0,97341,,303.0,,,68.0,5.0,5.0,1.0,easy,1500.0,1500.0,1.0,80.0,20.0,80.0,0.0,C,D,/static/Simple_RL/Stimuli/Fractals_stims/C.jpg,/static/Simple_RL/Stimuli/Fractals_stims/D.jpg,1.0,80.0,20.0,80.0,0.0,C,D,32.303,0.303,0.0,
28,,rl_choice_confirmation,,html-keyboard-response,28,47785,0.0-1.0-38.0-0.0,0,0,97341,,,,,,5.0,,,,,,,,,,,,,,,,,,,,,,33.5,1.197,,
29,,isi,,html-keyboard-response,29,47886,0.0-1.0-40.0,0,0,97341,,,,,,,,,,,,,,,,,,,,,,,,,,,,35.0,1.5,,
30,,feedback,,html-keyboard-response,30,48889,0.0-1.0-41.0-0.0,0,0,97341,,,,,,5.0,,,,,,,,,,,,,,,,,,,,,,36.0,1.0,,
31,,iti,,html-keyboard-response,31,48994,0.0-1.0-42.0,0,0,97341,,,,,,,,,,,,,,,,,,,,,,,,,,,,37.5,1.5,,
32,,rl_choice,,html-keyboard-response,32,49397,0.0-1.0-44.0,0,0,97341,,402.0,,,68.0,6.0,6.0,1.0,easy,1000.0,1000.0,1.0,80.0,20.0,60.0,40.0,C,D,/static/Simple_RL/Stimuli/Fractals_stims/C.jpg,/static/Simple_RL/Stimuli/Fractals_stims/D.jpg,1.0,80.0,20.0,60.0,40.0,C,D,37.902,0.402,0.0,
33,,rl_choice_confirmation,,html-keyboard-response,33,50499,0.0-1.0-45.0-0.0,0,0,97341,,,,,,6.0,,,,,,,,,,,,,,,,,,,,,,39.0,1.098,,
34,,isi,,html-keyboard-response,34,50602,0.0-1.0-47.0,0,0,97341,,,,,,,,,,,,,,,,,,,,,,,,,,,,40.0,1.0,,
35,,feedback,,html-keyboard-response,35,51603,0.0-1.0-48.0-0.0,0,0,97341,,,,,,6.0,,,,,,,,,,,,,,,,,,,,,,41.0,1.0,,
36,,iti,,html-keyboard-response,36,51704,0.0-1.0-49.0,0,0,97341,,,,,,,,,,,,,,,,,,,,,,,,,,,,42.0,1.0,,
37,,rl_choice,,html-keyboard-response,37,53209,0.0-1.0-51.0,0,0,97341,,,,,,7.0,7.0,1.0,easy,3000.0,2000.0,0.0,20.0,80.0,0.0,80.0,D,C,/static/Simple_RL/Stimuli/Fractals_stims/D.jpg,/static/Simple_RL/Stimuli/Fractals_stims/C.jpg,,,,,,,,43.5,1.5,1.0,
38,,rl_choice_warning,,html-keyboard-response,38,54209,0.0-1.0-53.0-0.0,0,0,97341,,,,,,,,,,,,,,,,,,,,,,,,,,,,44.5,1.0,,
39,,isi,,html-keyboard-response,39,54313,0.0-1.0-54.0,0,0,97341,,,,,,,,,,,,,,,,,,,,,,,,,,,,46.5,2.0,,
40,,iti,,html-keyboard-response,40,54414,0.0-1.0-56.0,0,0,97341,,,,,,,,,,,,,,,,,,,,,,,,,,,,49.5,3.0,,
41,,rl_choice,,html-keyboard-response,41,54560,0.0-1.0-58.0,0,0,97341,,144.0,,,75.0,8.0,8.0,1.0,hard,2000.0,3500.0,0.0,40.0,60.0,40.0,60.0,B,A,/static/Simple_RL/Stimuli/Fractals_stims/B.jpg,/static/Simple_RL/Stimuli/Fractals_stims/A.jpg,0.0,60.0,40.0,60.0,40.0,A,B,49.644,0.144,0.0,
42,,rl_choice_confirmation,,html-keyboard-response,42,55918,0.0-1.0-59.0-0.0,0,0,97341,,,,,,8.0,,,,,,,,,,,,,,,,,,,,,,51.0,1.356,,
43,,isi,,html-keyboard-response,43,56020,0.0-1.0-61.0,0,0,97341,,,,,,,,,,,,,,,,,,,,,,,,,,,,54.5,3.5,,
44,,feedback,,html-keyboard-response,44,57026,0.0-1.0-62.0-0.0,0,0,97341,,,,,,8.0,,,,,,,,,,,,,,,,,,,,,,55.5,1.0,,
45,,iti,,html-keyboard-response,45,57131,0.0-1.0-63.0,0,0,97341,,,,,,,,,,,,,,,,,,,,,,,,,,,,57.5,2.0,,
46,,rl_choice,,html-keyboard-response,46,58001,0.0-1.0-65.0,0,0,97341,,869.0,,,68.0,9.0,9.0,1.0,hard,2000.0,1000.0,1.0,60.0,40.0,60.0,20.0,A,B,/static/Simple_RL/Stimuli/Fractals_stims/A.jpg,/static/Simple_RL/Stimuli/Fractals_stims/B.jpg,1.0,60.0,40.0,60.0,20.0,A,B,58.369,0.869,0.0,
47,,rl_choice_confirmation,,html-keyboard-response,47,58638,0.0-1.0-66.0-0.0,0,0,97341,,,,,,9.0,,,,,,,,,,,,,,,,,,,,,,59.0,0.631,,
48,,isi,,html-keyboard-response,48,58742,0.0-1.0-68.0,0,0,97341,,,,,,,,,,,,,,,,,,,,,,,,,,,,60.0,1.0,,
49,,feedback,,html-keyboard-response,49,59748,0.0-1.0-69.0-0.0,0,0,97341,,,,,,9.0,,,,,,,,,,,,,,,,,,,,,,61.0,1.0,,
50,,iti,,html-keyboard-response,50,59849,0.0-1.0-70.0,0,0,97341,,,,,,,,,,,,,,,,,,,,,,,,,,,,63.0,2.0,,
51,,rl_choice,,html-keyboard-response,51,60085,0.0-1.0-72.0,0,0,97341,,235.0,,,75.0,10.0,10.0,1.0,easy,1000.0,1000.0,0.0,20.0,80.0,0.0,80.0,D,C,/static/Simple_RL/Stimuli/Fractals_stims/D.jpg,/static/Simple_RL/Stimuli/Fractals_stims/C.jpg,0.0,80.0,20.0,80.0,0.0,C,D,63.235,0.235,0.0,
52,,rl_choice_confirmation,,html-keyboard-response,52,61353,0.0-1.0-73.0-0.0,0,0,97341,,,,,,10.0,,,,,,,,,,,,,,,,,,,,,,64.5,1.265,,
53,,isi,,html-keyboard-response,53,61454,0.0-1.0-75.0,0,0,97341,,,,,,,,,,,,,,,,,,,,,,,,,,,,65.5,1.0,,
54,,feedback,,html-keyboard-response,54,62457,0.0-1.0-76.0-0.0,0,0,97341,,,,,,10.0,,,,,,,,,,,,,,,,,,,,,,66.5,1.0,,
55,,iti,,html-keyboard-response,55,62561,0.0-1.0-77.0,0,0,97341,,,,,,,,,,,,,,,,,,,,,,,,,,,,67.5,1.0,,
56,,rl_choice,,html-keyboard-response,56,62710,0.0-1.0-79.0,0,0,97341,,148.0,,,75.0,11.0,11.0,1.0,hard,1000.0,2000.0,0.0,40.0,60.0,40.0,60.0,B,A,/static/Simple_RL/Stimuli/Fractals_stims/B.jpg,/static/Simple_RL/Stimuli/Fractals_stims/A.jpg,0.0,60.0,40.0,60.0,40.0,A,B,67.648,0.148,0.0,
57,,rl_choice_confirmation,,html-keyboard-response,57,64067,0.0-1.0-80.0-0.0,0,0,97341,,,,,,11.0,,,,,,,,,,,,,,,,,,,,,,69.0,1.352,,
58,,isi,,html-keyboard-response,58,64169,0.0-1.0-82.0,0,0,97341,,,,,,,,,,,,,,,,,,,,,,,,,,,,71.0,2.0,,
59,,feedback,,html-keyboard-response,59,65177,0.0-1.0-83.0-0.0,0,0,97341,,,,,,11.0,,,,,,,,,,,,,,,,,,,,,,72.0,1.0,,
60,,iti,,html-keyboard-response,60,65282,0.0-1.0-84.0,0,0,97341,,,,,,,,,,,,,,,,,,,,,,,,,,,,73.0,1.0,,
61,,rl_choice,,html-keyboard-response,61,65352,0.0-1.0-86.0,0,0,97341,,69.0,,,75.0,12.0,12.0,1.0,hard,1000.0,1000.0,0.0,40.0,60.0,60.0,80.0,B,A,/static/Simple_RL/Stimuli/Fractals_stims/B.jpg,/static/Simple_RL/Stimuli/Fractals_stims/A.jpg,0.0,60.0,40.0,80.0,60.0,A,B,73.069,0.069,0.0,
62,,rl_choice_confirmation,,html-keyboard-response,62,66787,0.0-1.0-87.0-0.0,0,0,97341,,,,,,12.0,,,,,,,,,,,,,,,,,,,,,,74.5,1.431,,
63,,isi,,html-keyboard-response,63,66889,0.0-1.0-89.0,0,0,97341,,,,,,,,,,,,,,,,,,,,,,,,,,,,75.5,1.0,,
64,,feedback,,html-keyboard-response,64,67895,0.0-1.0-90.0-0.0,0,0,97341,,,,,,12.0,,,,,,,,,,,,,,,,,,,,,,76.5,1.0,,
65,,iti,,html-keyboard-response,65,68001,0.0-1.0-91.0,0,0,97341,,,,,,,,,,,,,,,,,,,,,,,,,,,,77.5,1.0,,
66,,rl_choice,,html-keyboard-response,66,68219,0.0-1.0-93.0,0,0,97341,,217.0,,,75.0,13.0,13.0,1.0,hard,3000.0,1500.0,1.0,60.0,40.0,40.0,60.0,A,B,/static/Simple_RL/Stimuli/Fractals_stims/A.jpg,/static/Simple_RL/Stimuli/Fractals_stims/B.jpg,0.0,40.0,60.0,60.0,40.0,B,A,77.717,0.217,0.0,
67,,rl_choice_confirmation,,html-keyboard-response,67,69508,0.0-1.0-94.0-0.0,0,0,97341,,,,,,13.0,,,,,,,,,,,,,,,,,,,,,,79.0,1.283,,
68,,isi,,html-keyboard-response,68,69614,0.0-1.0-96.0,0,0,97341,,,,,,,,,,,,,,,,,,,,,,,,,,,,80.5,1.5,,
69,,feedback,,html-keyboard-response,69,70617,0.0-1.0-97.0-0.0,0,0,97341,,,,,,13.0,,,,,,,,,,,,,,,,,,,,,,81.5,1.0,,
70,,iti,,html-keyboard-response,70,70718,0.0-1.0-98.0,0,0,97341,,,,,,,,,,,,,,,,,,,,,,,,,,,,84.5,3.0,,
71,,rl_choice,,html-keyboard-response,71,70769,0.0-1.0-100.0,0,0,97341,,50.0,,,68.0,14.0,14.0,1.0,easy,1500.0,1000.0,1.0,80.0,20.0,100.0,40.0,C,D,/static/Simple_RL/Stimuli/Fractals_stims/C.jpg,/static/Simple_RL/Stimuli/Fractals_stims/D.jpg,1.0,80.0,20.0,100.0,40.0,C,D,84.55,0.05,0.0,
72,,rl_choice_confirmation,,html-keyboard-response,72,72222,0.0-1.0-101.0-0.0,0,0,97341,,,,,,14.0,,,,,,,,,,,,,,,,,,,,,,86.0,1.45,,
73,,isi,,html-keyboard-response,73,72328,0.0-1.0-103.0,0,0,97341,,,,,,,,,,,,,,,,,,,,,,,,,,,,87.0,1.0,,
74,,feedback,,html-keyboard-response,74,73332,0.0-1.0-104.0-0.0,0,0,97341,,,,,,14.0,,,,,,,,,,,,,,,,,,,,,,88.0,1.0,,
75,,iti,,html-keyboard-response,75,73433,0.0-1.0-105.0,0,0,97341,,,,,,,,,,,,,,,,,,,,,,,,,,,,89.5,1.5,,
76,,rl_choice,,html-keyboard-response,76,74014,0.0-1.0-107.0,0,0,97341,,580.0,,,75.0,15.0,15.0,1.0,hard,1000.0,3000.0,1.0,60.0,40.0,60.0,60.0,A,B,/static/Simple_RL/Stimuli/Fractals_stims/A.jpg,/static/Simple_RL/Stimuli/Fractals_stims/B.jpg,0.0,40.0,60.0,60.0,60.0,B,A,90.08,0.58,0.0,
77,,rl_choice_confirmation,,html-keyboard-response,77,74937,0.0-1.0-108.0-0.0,0,0,97341,,,,,,15.0,,,,,,,,,,,,,,,,,,,,,,91.0,0.92,,
78,,isi,,html-keyboard-response,78,75038,0.0-1.0-110.0,0,0,97341,,,,,,,,,,,,,,,,,,,,,,,,,,,,94.0,3.0,,
79,,feedback,,html-keyboard-response,79,76043,0.0-1.0-111.0-0.0,0,0,97341,,,,,,15.0,,,,,,,,,,,,,,,,,,,,,,95.0,1.0,,
80,,iti,,html-keyboard-response,80,76148,0.0-1.0-112.0,0,0,97341,,,,,,,,,,,,,,,,,,,,,,,,,,,,96.0,1.0,,
81,,rl_choice,,html-keyboard-response,81,76447,0.0-1.0-114.0,0,0,97341,,298.0,,,75.0,16.0,16.0,1.0,hard,1500.0,1000.0,1.0,60.0,40.0,60.0,40.0,A,B,/static/Simple_RL/Stimuli/Fractals_stims/A.jpg,/static/Simple_RL/Stimuli/Fractals_stims/B.jpg,0.0,40.0,60.0,40.0,60.0,B,A,96.298,0.298,0.0,
82,,rl_choice_confirmation,,html-keyboard-response,82,77652,0.0-1.0-115.0-0.0,0,0,97341,,,,,,16.0,,,,,,,,,,,,,,,,,,,,,,97.5,1.202,,
83,,isi,,html-keyboard-response,83,77755,0.0-1.0-117.0,0,0,97341,,,,,,,,,,,,,,,,,,,,,,,,,,,,98.5,1.0,,
84,,feedback,,html-keyboard-response,84,78761,0.0-1.0-118.0-0.0,0,0,97341,,,,,,16.0,,,,,,,,,,,,,,,,,,,,,,99.5,1.0,,
85,,iti,,html-keyboard-response,85,78862,0.0-1.0-119.0,0,0,97341,,,,,,,,,,,,,,,,,,,,,,,,,,,,101.0,1.5,,
86,,rl_choice,,html-keyboard-response,86,79461,0.0-1.0-121.0,0,0,97341,,598.0,,,68.0,17.0,17.0,1.0,easy,2000.0,2000.0,1.0,80.0,20.0,100.0,40.0,C,D,/static/Simple_RL/Stimuli/Fractals_stims/C.jpg,/static/Simple_RL/Stimuli/Fractals_stims/D.jpg,1.0,80.0,20.0,100.0,40.0,C,D,101.598,0.598,0.0,
87,,rl_choice_confirmation,,html-keyboard-response,87,80366,0.0-1.0-122.0-0.0,0,0,97341,,,,,,17.0,,,,,,,,,,,,,,,,,,,,,,102.5,0.902,,
88,,isi,,html-keyboard-response,88,80468,0.0-1.0-124.0,0,0,97341,,,,,,,,,,,,,,,,,,,,,,,,,,,,104.5,2.0,,
89,,feedback,,html-keyboard-response,89,81475,0.0-1.0-125.0-0.0,0,0,97341,,,,,,17.0,,,,,,,,,,,,,,,,,,,,,,105.5,1.0,,
90,,iti,,html-keyboard-response,90,81579,0.0-1.0-126.0,0,0,97341,,,,,,,,,,,,,,,,,,,,,,,,,,,,107.5,2.0,,
91,,rl_choice,,html-keyboard-response,91,81997,0.0-1.0-128.0,0,0,97341,,417.0,,,75.0,18.0,18.0,1.0,hard,1000.0,1500.0,1.0,60.0,40.0,80.0,60.0,A,B,/static/Simple_RL/Stimuli/Fractals_stims/A.jpg,/static/Simple_RL/Stimuli/Fractals_stims/B.jpg,0.0,40.0,60.0,60.0,80.0,B,A,107.917,0.417,0.0,
92,,rl_choice_confirmation,,html-keyboard-response,92,83086,0.0-1.0-129.0-0.0,0,0,97341,,,,,,18.0,,,,,,,,,,,,,,,,,,,,,,109.0,1.083,,
93,,isi,,html-keyboard-response,93,83189,0.0-1.0-131.0,0,0,97341,,,,,,,,,,,,,,,,,,,,,,,,,,,,110.5,1.5,,
94,,feedback,,html-keyboard-response,94,84195,0.0-1.0-132.0-0.0,0,0,97341,,,,,,18.0,,,,,,,,,,,,,,,,,,,,,,111.5,1.0,,
95,,iti,,html-keyboard-response,95,84300,0.0-1.0-133.0,0,0,97341,,,,,,,,,,,,,,,,,,,,,,,,,,,,112.5,1.0,,
96,,rl_choice,,html-keyboard-response,96,84606,0.0-1.0-135.0,0,0,97341,,304.0,,,75.0,19.0,19.0,1.0,hard,1000.0,1000.0,1.0,60.0,40.0,60.0,20.0,A,B,/static/Simple_RL/Stimuli/Fractals_stims/A.jpg,/static/Simple_RL/Stimuli/Fractals_stims/B.jpg,0.0,40.0,60.0,20.0,60.0,B,A,112.804,0.304,0.0,
97,,rl_choice_confirmation,,html-keyboard-response,97,85806,0.0-1.0-136.0-0.0,0,0,97341,,,,,,19.0,,,,,,,,,,,,,,,,,,,,,,114.0,1.196,,
98,,isi,,html-keyboard-response,98,85912,0.0-1.0-138.0,0,0,97341,,,,,,,,,,,,,,,,,,,,,,,,,,,,115.0,1.0,,
99,,feedback,,html-keyboard-response,99,86918,0.0-1.0-139.0-0.0,0,0,97341,,,,,,19.0,,,,,,,,,,,,,,,,,,,,,,116.0,1.0,,
100,,iti,,html-keyboard-response,100,87023,0.0-1.0-140.0,0,0,97341,,,,,,,,,,,,,,,,,,,,,,,,,,,,117.0,1.0,,
101,,rl_choice,,html-keyboard-response,101,87528,0.0-1.0-142.0,0,0,97341,,504.0,,,68.0,20.0,20.0,1.0,easy,1000.0,1000.0,0.0,20.0,80.0,0.0,60.0,D,C,/static/Simple_RL/Stimuli/Fractals_stims/D.jpg,/static/Simple_RL/Stimuli/Fractals_stims/C.jpg,1.0,20.0,80.0,0.0,60.0,D,C,117.504,0.504,0.0,
102,,rl_choice_confirmation,,html-keyboard-response,102,88529,0.0-1.0-143.0-0.0,0,0,97341,,,,,,20.0,,,,,,,,,,,,,,,,,,,,,,118.5,0.996,,
103,,isi,,html-keyboard-response,103,88633,0.0-1.0-145.0,0,0,97341,,,,,,,,,,,,,,,,,,,,,,,,,,,,119.5,1.0,,
104,,feedback,,html-keyboard-response,104,89637,0.0-1.0-146.0-0.0,0,0,97341,,,,,,20.0,,,,,,,,,,,,,,,,,,,,,,120.5,1.0,,
105,,iti,,html-keyboard-response,105,89742,0.0-1.0-147.0,0,0,97341,,,,,,,,,,,,,,,,,,,,,,,,,,,,121.5,1.0,,
106,,rl_choice,,html-keyboard-response,106,89901,0.0-1.0-149.0,0,0,97341,,157.0,,,68.0,21.0,21.0,1.0,easy,2000.0,1500.0,1.0,80.0,20.0,60.0,20.0,C,D,/static/Simple_RL/Stimuli/Fractals_stims/C.jpg,/static/Simple_RL/Stimuli/Fractals_stims/D.jpg,1.0,80.0,20.0,60.0,20.0,C,D,121.657,0.157,0.0,
107,,rl_choice_confirmation,,html-keyboard-response,107,91247,0.0-1.0-150.0-0.0,0,0,97341,,,,,,21.0,,,,,,,,,,,,,,,,,,,,,,123.0,1.343,,
108,,isi,,html-keyboard-response,108,91348,0.0-1.0-152.0,0,0,97341,,,,,,,,,,,,,,,,,,,,,,,,,,,,124.5,1.5,,
109,,feedback,,html-keyboard-response,109,92350,0.0-1.0-153.0-0.0,0,0,97341,,,,,,21.0,,,,,,,,,,,,,,,,,,,,,,125.5,1.0,,
110,,iti,,html-keyboard-response,110,92451,0.0-1.0-154.0,0,0,97341,,,,,,,,,,,,,,,,,,,,,,,,,,,,127.5,2.0,,
111,,rl_choice,,html-keyboard-response,111,93956,0.0-1.0-156.0,0,0,97341,,,,,,22.0,22.0,1.0,easy,1000.0,1000.0,1.0,80.0,20.0,100.0,0.0,C,D,/static/Simple_RL/Stimuli/Fractals_stims/C.jpg,/static/Simple_RL/Stimuli/Fractals_stims/D.jpg,,,,,,,,129.0,1.5,1.0,
112,,rl_choice_warning,,html-keyboard-response,112,94959,0.0-1.0-158.0-0.0,0,0,97341,,,,,,,,,,,,,,,,,,,,,,,,,,,,130.0,1.0,,
113,,isi,,html-keyboard-response,113,95062,0.0-1.0-159.0,0,0,97341,,,,,,,,,,,,,,,,,,,,,,,,,,,,131.0,1.0,,
114,,iti,,html-keyboard-response,114,95166,0.0-1.0-161.0,0,0,97341,,,,,,,,,,,,,,,,,,,,,,,,,,,,132.0,1.0,,
115,,rl_choice,,html-keyboard-response,115,96670,0.0-1.0-163.0,0,0,97341,,,,,,23.0,23.0,1.0,easy,1500.0,3000.0,1.0,80.0,20.0,80.0,20.0,C,D,/static/Simple_RL/Stimuli/Fractals_stims/C.jpg,/static/Simple_RL/Stimuli/Fractals_stims/D.jpg,,,,,,,,133.5,1.5,1.0,
116,,rl_choice_warning,,html-keyboard-response,116,97673,0.0-1.0-165.0-0.0,0,0,97341,,,,,,,,,,,,,,,,,,,,,,,,,,,,134.5,1.0,,
117,,isi,,html-keyboard-response,117,97779,0.0-1.0-166.0,0,0,97341,,,,,,,,,,,,,,,,,,,,,,,,,,,,137.5,3.0,,
118,,iti,,html-keyboard-response,118,97881,0.0-1.0-168.0,0,0,97341,,,,,,,,,,,,,,,,,,,,,,,,,,,,139.0,1.5,,
119,,rl_choice,,html-keyboard-response,119,98446,0.0-1.0-170.0,0,0,97341,,564.0,,,68.0,24.0,24.0,1.0,hard,2000.0,1500.0,0.0,40.0,60.0,40.0,60.0,B,A,/static/Simple_RL/Stimuli/Fractals_stims/B.jpg,/static/Simple_RL/Stimuli/Fractals_stims/A.jpg,1.0,40.0,60.0,40.0,60.0,B,A,139.564,0.564,0.0,
120,,rl_choice_confirmation,,html-keyboard-response,120,99387,0.0-1.0-171.0-0.0,0,0,97341,,,,,,24.0,,,,,,,,,,,,,,,,,,,,,,140.5,0.936,,
121,,isi,,html-keyboard-response,121,99492,0.0-1.0-173.0,0,0,97341,,,,,,,,,,,,,,,,,,,,,,,,,,,,142.0,1.5,,
122,,feedback,,html-keyboard-response,122,100495,0.0-1.0-174.0-0.0,0,0,97341,,,,,,24.0,,,,,,,,,,,,,,,,,,,,,,143.0,1.0,,
123,,iti,,html-keyboard-response,123,100597,0.0-1.0-175.0,0,0,97341,,,,,,,,,,,,,,,,,,,,,,,,,,,,145.0,2.0,,
124,,rl_choice,,html-keyboard-response,124,100671,0.0-1.0-177.0,0,0,97341,,73.0,,,75.0,25.0,25.0,1.0,hard,3000.0,1500.0,1.0,60.0,40.0,40.0,40.0,A,B,/static/Simple_RL/Stimuli/Fractals_stims/A.jpg,/static/Simple_RL/Stimuli/Fractals_stims/B.jpg,0.0,40.0,60.0,40.0,40.0,B,A,145.073,0.073,0.0,
125,,rl_choice_confirmation,,html-keyboard-response,125,102100,0.0-1.0-178.0-0.0,0,0,97341,,,,,,25.0,,,,,,,,,,,,,,,,,,,,,,146.5,1.427,,
126,,isi,,html-keyboard-response,126,102201,0.0-1.0-180.0,0,0,97341,,,,,,,,,,,,,,,,,,,,,,,,,,,,148.0,1.5,,
127,,feedback,,html-keyboard-response,127,103207,0.0-1.0-181.0-0.0,0,0,97341,,,,,,25.0,,,,,,,,,,,,,,,,,,,,,,149.0,1.0,,
128,,iti,,html-keyboard-response,128,103312,0.0-1.0-182.0,0,0,97341,,,,,,,,,,,,,,,,,,,,,,,,,,,,152.0,3.0,,
129,,rl_choice,,html-keyboard-response,129,103845,0.0-1.0-184.0,0,0,97341,,531.0,,,75.0,26.0,26.0,1.0,hard,1000.0,2000.0,0.0,40.0,60.0,40.0,80.0,B,A,/static/Simple_RL/Stimuli/Fractals_stims/B.jpg,/static/Simple_RL/Stimuli/Fractals_stims/A.jpg,0.0,60.0,40.0,80.0,40.0,A,B,152.531,0.531,0.0,
130,,rl_choice_confirmation,,html-keyboard-response,130,104820,0.0-1.0-185.0-0.0,0,0,97341,,,,,,26.0,,,,,,,,,,,,,,,,,,,,,,153.5,0.969,,
131,,isi,,html-keyboard-response,131,104921,0.0-1.0-187.0,0,0,97341,,,,,,,,,,,,,,,,,,,,,,,,,,,,155.5,2.0,,
132,,feedback,,html-keyboard-response,132,105923,0.0-1.0-188.0-0.0,0,0,97341,,,,,,26.0,,,,,,,,,,,,,,,,,,,,,,156.5,1.0,,
133,,iti,,html-keyboard-response,133,106029,0.0-1.0-189.0,0,0,97341,,,,,,,,,,,,,,,,,,,,,,,,,,,,157.5,1.0,,
134,,rl_choice,,html-keyboard-response,134,106467,0.0-1.0-191.0,0,0,97341,,437.0,,,75.0,27.0,27.0,1.0,easy,3000.0,1000.0,1.0,80.0,20.0,80.0,40.0,C,D,/static/Simple_RL/Stimuli/Fractals_stims/C.jpg,/static/Simple_RL/Stimuli/Fractals_stims/D.jpg,0.0,20.0,80.0,40.0,80.0,D,C,157.937,0.437,0.0,
135,,rl_choice_confirmation,,html-keyboard-response,135,107535,0.0-1.0-192.0-0.0,0,0,97341,,,,,,27.0,,,,,,,,,,,,,,,,,,,,,,159.0,1.063,,
136,,isi,,html-keyboard-response,136,107636,0.0-1.0-194.0,0,0,97341,,,,,,,,,,,,,,,,,,,,,,,,,,,,160.0,1.0,,
137,,feedback,,html-keyboard-response,137,108639,0.0-1.0-195.0-0.0,0,0,97341,,,,,,27.0,,,,,,,,,,,,,,,,,,,,,,161.0,1.0,,
138,,iti,,html-keyboard-response,138,108744,0.0-1.0-196.0,0,0,97341,,,,,,,,,,,,,,,,,,,,,,,,,,,,164.0,3.0,,
139,,rl_choice,,html-keyboard-response,139,109762,0.0-1.0-198.0,0,0,97341,,1016.0,,,68.0,28.0,28.0,1.0,easy,1000.0,3500.0,1.0,80.0,20.0,60.0,20.0,C,D,/static/Simple_RL/Stimuli/Fractals_stims/C.jpg,/static/Simple_RL/Stimuli/Fractals_stims/D.jpg,1.0,80.0,20.0,60.0,20.0,C,D,165.016,1.016,0.0,
140,,rl_choice_confirmation,,html-keyboard-response,140,110251,0.0-1.0-199.0-0.0,0,0,97341,,,,,,28.0,,,,,,,,,,,,,,,,,,,,,,165.5,0.484,,
141,,isi,,html-keyboard-response,141,110356,0.0-1.0-201.0,0,0,97341,,,,,,,,,,,,,,,,,,,,,,,,,,,,169.0,3.5,,
142,,feedback,,html-keyboard-response,142,111362,0.0-1.0-202.0-0.0,0,0,97341,,,,,,28.0,,,,,,,,,,,,,,,,,,,,,,170.0,1.0,,
143,,iti,,html-keyboard-response,143,111465,0.0-1.0-203.0,0,0,97341,,,,,,,,,,,,,,,,,,,,,,,,,,,,171.0,1.0,,
144,,rl_choice,,html-keyboard-response,144,112615,0.0-1.0-205.0,0,0,97341,,1148.0,,,75.0,29.0,29.0,1.0,hard,1500.0,1000.0,0.0,40.0,60.0,60.0,40.0,B,A,/static/Simple_RL/Stimuli/Fractals_stims/B.jpg,/static/Simple_RL/Stimuli/Fractals_stims/A.jpg,0.0,60.0,40.0,40.0,60.0,A,B,172.148,1.148,0.0,
145,,rl_choice_confirmation,,html-keyboard-response,145,112969,0.0-1.0-206.0-0.0,0,0,97341,,,,,,29.0,,,,,,,,,,,,,,,,,,,,,,172.5,0.352,,
146,,isi,,html-keyboard-response,146,113071,0.0-1.0-208.0,0,0,97341,,,,,,,,,,,,,,,,,,,,,,,,,,,,173.5,1.0,,
147,,feedback,,html-keyboard-response,147,114074,0.0-1.0-209.0-0.0,0,0,97341,,,,,,29.0,,,,,,,,,,,,,,,,,,,,,,174.5,1.0,,
148,,iti,,html-keyboard-response,148,114179,0.0-1.0-210.0,0,0,97341,,,,,,,,,,,,,,,,,,,,,,,,,,,,176.0,1.5,,
149,,rl_choice,,html-keyboard-response,149,114756,0.0-1.0-212.0,0,0,97341,,576.0,,,75.0,30.0,30.0,1.0,easy,1000.0,1500.0,1.0,80.0,20.0,100.0,20.0,C,D,/static/Simple_RL/Stimuli/Fractals_stims/C.jpg,/static/Simple_RL/Stimuli/Fractals_stims/D.jpg,0.0,20.0,80.0,20.0,100.0,D,C,176.576,0.576,0.0,
150,,rl_choice_confirmation,,html-keyboard-response,150,115684,0.0-1.0-213.0-0.0,0,0,97341,,,,,,30.0,,,,,,,,,,,,,,,,,,,,,,177.5,0.924,,
151,,isi,,html-keyboard-response,151,115785,0.0-1.0-215.0,0,0,97341,,,,,,,,,,,,,,,,,,,,,,,,,,,,179.0,1.5,,
152,,feedback,,html-keyboard-response,152,116788,0.0-1.0-216.0-0.0,0,0,97341,,,,,,30.0,,,,,,,,,,,,,,,,,,,,,,180.0,1.0,,
153,,iti,,html-keyboard-response,153,116889,0.0-1.0-217.0,0,0,97341,,,,,,,,,,,,,,,,,,,,,,,,,,,,181.0,1.0,,
154,,rl_choice,,html-keyboard-response,154,117114,0.0-1.0-219.0,0,0,97341,,223.0,,,75.0,31.0,31.0,1.0,easy,2000.0,1500.0,0.0,20.0,80.0,40.0,100.0,D,C,/static/Simple_RL/Stimuli/Fractals_stims/D.jpg,/static/Simple_RL/Stimuli/Fractals_stims/C.jpg,0.0,80.0,20.0,100.0,40.0,C,D,181.223,0.223,0.0,
155,,rl_choice_confirmation,,html-keyboard-response,155,118396,0.0-1.0-220.0-0.0,0,0,97341,,,,,,31.0,,,,,,,,,,,,,,,,,,,,,,182.5,1.277,,
156,,isi,,html-keyboard-response,156,118500,0.0-1.0-222.0,0,0,97341,,,,,,,,,,,,,,,,,,,,,,,,,,,,184.0,1.5,,
157,,feedback,,html-keyboard-response,157,119502,0.0-1.0-223.0-0.0,0,0,97341,,,,,,31.0,,,,,,,,,,,,,,,,,,,,,,185.0,1.0,,
158,,iti,,html-keyboard-response,158,119604,0.0-1.0-224.0,0,0,97341,,,,,,,,,,,,,,,,,,,,,,,,,,,,187.0,2.0,,
159,,rl_choice,,html-keyboard-response,159,120063,0.0-1.0-226.0,0,0,97341,,457.0,,,75.0,32.0,32.0,1.0,hard,1500.0,1000.0,0.0,40.0,60.0,40.0,80.0,B,A,/static/Simple_RL/Stimuli/Fractals_stims/B.jpg,/static/Simple_RL/Stimuli/Fractals_stims/A.jpg,0.0,60.0,40.0,80.0,40.0,A,B,187.457,0.457,0.0,
160,,rl_choice_confirmation,,html-keyboard-response,160,121108,0.0-1.0-227.0-0.0,0,0,97341,,,,,,32.0,,,,,,,,,,,,,,,,,,,,,,188.5,1.043,,
161,,isi,,html-keyboard-response,161,121212,0.0-1.0-229.0,0,0,97341,,,,,,,,,,,,,,,,,,,,,,,,,,,,189.5,1.0,,
162,,feedback,,html-keyboard-response,162,122215,0.0-1.0-230.0-0.0,0,0,97341,,,,,,32.0,,,,,,,,,,,,,,,,,,,,,,190.5,1.0,,
163,,iti,,html-keyboard-response,163,122320,0.0-1.0-231.0,0,0,97341,,,,,,,,,,,,,,,,,,,,,,,,,,,,192.0,1.5,,
164,,rl_choice,,html-keyboard-response,164,123396,0.0-1.0-233.0,0,0,97341,,1075.0,,,75.0,33.0,33.0,1.0,easy,1000.0,1000.0,0.0,20.0,80.0,40.0,100.0,D,C,/static/Simple_RL/Stimuli/Fractals_stims/D.jpg,/static/Simple_RL/Stimuli/Fractals_stims/C.jpg,0.0,80.0,20.0,100.0,40.0,C,D,193.075,1.075,0.0,
165,,rl_choice_confirmation,,html-keyboard-response,165,123823,0.0-1.0-234.0-0.0,0,0,97341,,,,,,33.0,,,,,,,,,,,,,,,,,,,,,,193.5,0.425,,
166,,isi,,html-keyboard-response,166,123924,0.0-1.0-236.0,0,0,97341,,,,,,,,,,,,,,,,,,,,,,,,,,,,194.5,1.0,,
167,,feedback,,html-keyboard-response,167,124926,0.0-1.0-237.0-0.0,0,0,97341,,,,,,33.0,,,,,,,,,,,,,,,,,,,,,,195.5,1.0,,
168,,iti,,html-keyboard-response,168,125029,0.0-1.0-238.0,0,0,97341,,,,,,,,,,,,,,,,,,,,,,,,,,,,196.5,1.0,,
169,,rl_choice,,html-keyboard-response,169,125114,0.0-1.0-240.0,0,0,97341,,83.0,,,75.0,34.0,34.0,1.0,easy,3500.0,3000.0,1.0,80.0,20.0,80.0,40.0,C,D,/static/Simple_RL/Stimuli/Fractals_stims/C.jpg,/static/Simple_RL/Stimuli/Fractals_stims/D.jpg,0.0,20.0,80.0,40.0,80.0,D,C,196.583,0.083,0.0,
170,,rl_choice_confirmation,,html-keyboard-response,170,126535,0.0-1.0-241.0-0.0,0,0,97341,,,,,,34.0,,,,,,,,,,,,,,,,,,,,,,198.0,1.417,,
171,,isi,,html-keyboard-response,171,126639,0.0-1.0-243.0,0,0,97341,,,,,,,,,,,,,,,,,,,,,,,,,,,,201.0,3.0,,
172,,feedback,,html-keyboard-response,172,127642,0.0-1.0-244.0-0.0,0,0,97341,,,,,,34.0,,,,,,,,,,,,,,,,,,,,,,202.0,1.0,,
173,,iti,,html-keyboard-response,173,127746,0.0-1.0-245.0,0,0,97341,,,,,,,,,,,,,,,,,,,,,,,,,,,,205.5,3.5,,
174,,rl_choice,,html-keyboard-response,174,128015,0.0-1.0-247.0,0,0,97341,,268.0,,,75.0,35.0,35.0,1.0,easy,1500.0,2000.0,1.0,80.0,20.0,60.0,40.0,C,D,/static/Simple_RL/Stimuli/Fractals_stims/C.jpg,/static/Simple_RL/Stimuli/Fractals_stims/D.jpg,0.0,20.0,80.0,40.0,60.0,D,C,205.768,0.268,0.0,
175,,rl_choice_confirmation,,html-keyboard-response,175,129252,0.0-1.0-248.0-0.0,0,0,97341,,,,,,35.0,,,,,,,,,,,,,,,,,,,,,,207.0,1.232,,
176,,isi,,html-keyboard-response,176,129354,0.0-1.0-250.0,0,0,97341,,,,,,,,,,,,,,,,,,,,,,,,,,,,209.0,2.0,,
177,,feedback,,html-keyboard-response,177,130356,0.0-1.0-251.0-0.0,0,0,97341,,,,,,35.0,,,,,,,,,,,,,,,,,,,,,,210.0,1.0,,
178,,iti,,html-keyboard-response,178,130458,0.0-1.0-252.0,0,0,97341,,,,,,,,,,,,,,,,,,,,,,,,,,,,211.5,1.5,,
179,,rl_choice,,html-keyboard-response,179,130761,0.0-1.0-254.0,0,0,97341,,302.0,,,75.0,36.0,36.0,1.0,easy,1500.0,1500.0,0.0,20.0,80.0,20.0,100.0,D,C,/static/Simple_RL/Stimuli/Fractals_stims/D.jpg,/static/Simple_RL/Stimuli/Fractals_stims/C.jpg,0.0,80.0,20.0,100.0,20.0,C,D,211.802,0.302,0.0,
180,,rl_choice_confirmation,,html-keyboard-response,180,131963,0.0-1.0-255.0-0.0,0,0,97341,,,,,,36.0,,,,,,,,,,,,,,,,,,,,,,213.0,1.198,,
181,,isi,,html-keyboard-response,181,132068,0.0-1.0-257.0,0,0,97341,,,,,,,,,,,,,,,,,,,,,,,,,,,,214.5,1.5,,
182,,feedback,,html-keyboard-response,182,133070,0.0-1.0-258.0-0.0,0,0,97341,,,,,,36.0,,,,,,,,,,,,,,,,,,,,,,215.5,1.0,,
183,,iti,,html-keyboard-response,183,133173,0.0-1.0-259.0,0,0,97341,,,,,,,,,,,,,,,,,,,,,,,,,,,,217.0,1.5,,
184,,rl_choice,,html-keyboard-response,184,134676,0.0-1.0-261.0,0,0,97341,,,,,,37.0,37.0,1.0,hard,2000.0,1000.0,1.0,60.0,40.0,60.0,40.0,A,B,/static/Simple_RL/Stimuli/Fractals_stims/A.jpg,/static/Simple_RL/Stimuli/Fractals_stims/B.jpg,,,,,,,,218.5,1.5,1.0,
185,,rl_choice_warning,,html-keyboard-response,185,135680,0.0-1.0-263.0-0.0,0,0,97341,,,,,,,,,,,,,,,,,,,,,,,,,,,,219.5,1.0,,
186,,isi,,html-keyboard-response,186,135781,0.0-1.0-264.0,0,0,97341,,,,,,,,,,,,,,,,,,,,,,,,,,,,220.5,1.0,,
187,,iti,,html-keyboard-response,187,135882,0.0-1.0-266.0,0,0,97341,,,,,,,,,,,,,,,,,,,,,,,,,,,,222.5,2.0,,
188,,rl_choice,,html-keyboard-response,188,136337,0.0-1.0-268.0,0,0,97341,,454.0,,,68.0,38.0,38.0,1.0,hard,1000.0,1500.0,0.0,40.0,60.0,20.0,40.0,B,A,/static/Simple_RL/Stimuli/Fractals_stims/B.jpg,/static/Simple_RL/Stimuli/Fractals_stims/A.jpg,1.0,40.0,60.0,20.0,40.0,B,A,222.954,0.454,0.0,
189,,rl_choice_confirmation,,html-keyboard-response,189,137386,0.0-1.0-269.0-0.0,0,0,97341,,,,,,38.0,,,,,,,,,,,,,,,,,,,,,,224.0,1.046,,
190,,isi,,html-keyboard-response,190,137487,0.0-1.0-271.0,0,0,97341,,,,,,,,,,,,,,,,,,,,,,,,,,,,225.5,1.5,,
191,,feedback,,html-keyboard-response,191,138489,0.0-1.0-272.0-0.0,0,0,97341,,,,,,38.0,,,,,,,,,,,,,,,,,,,,,,226.5,1.0,,
192,,iti,,html-keyboard-response,192,138591,0.0-1.0-273.0,0,0,97341,,,,,,,,,,,,,,,,,,,,,,,,,,,,227.5,1.0,,
193,,rl_choice,,html-keyboard-response,193,138861,0.0-1.0-275.0,0,0,97341,,268.0,,,75.0,39.0,39.0,1.0,easy,1000.0,1000.0,0.0,20.0,80.0,0.0,60.0,D,C,/static/Simple_RL/Stimuli/Fractals_stims/D.jpg,/static/Simple_RL/Stimuli/Fractals_stims/C.jpg,0.0,80.0,20.0,60.0,0.0,C,D,227.768,0.268,0.0,
194,,rl_choice_confirmation,,html-keyboard-response,194,140097,0.0-1.0-276.0-0.0,0,0,97341,,,,,,39.0,,,,,,,,,,,,,,,,,,,,,,229.0,1.232,,
195,,isi,,html-keyboard-response,195,140202,0.0-1.0-278.0,0,0,97341,,,,,,,,,,,,,,,,,,,,,,,,,,,,230.0,1.0,,
196,,feedback,,html-keyboard-response,196,141206,0.0-1.0-279.0-0.0,0,0,97341,,,,,,39.0,,,,,,,,,,,,,,,,,,,,,,231.0,1.0,,
197,,iti,,html-keyboard-response,197,141311,0.0-1.0-280.0,0,0,97341,,,,,,,,,,,,,,,,,,,,,,,,,,,,232.0,1.0,,
198,,block_over,,html-keyboard-response,198,157160,0.0-1.0-281.0-0.0,0,0,97341,,15848.0,,,68.0,39.0,,,,,,,,,,,,,,,,,,,,,,,,,
199,,start_run,,html-keyboard-response,199,157976,0.0-1.0-281.0-1.0,0,0,97341,,814.0,,,84.0,,,,,,,,,,,,,,,,,,,,,,,,,,
200,,rl_choice,,html-keyboard-response,200,158954,0.0-1.0-282.0,0,0,97341,,976.0,,,68.0,40.0,40.0,2.0,easy,1500.0,2000.0,1.0,80.0,20.0,60.0,20.0,C,D,/static/Simple_RL/Stimuli/Fractals_stims/C.jpg,/static/Simple_RL/Stimuli/Fractals_stims/D.jpg,1.0,80.0,20.0,60.0,20.0,C,D,0.976,0.976,0.0,
201,,rl_choice_confirmation,,html-keyboard-response,201,159482,0.0-1.0-283.0-0.0,0,0,97341,,,,,,40.0,,,,,,,,,,,,,,,,,,,,,,1.5,0.524,,
202,,isi,,html-keyboard-response,202,159583,0.0-1.0-285.0,0,0,97341,,,,,,,,,,,,,,,,,,,,,,,,,,,,3.5,2.0,,
203,,feedback,,html-keyboard-response,203,160586,0.0-1.0-286.0-0.0,0,0,97341,,,,,,40.0,,,,,,,,,,,,,,,,,,,,,,4.5,1.0,,
204,,iti,,html-keyboard-response,204,160687,0.0-1.0-287.0,0,0,97341,,,,,,,,,,,,,,,,,,,,,,,,,,,,6.0,1.5,,
205,,rl_choice,,html-keyboard-response,205,161140,0.0-1.0-289.0,0,0,97341,,451.0,,,68.0,41.0,41.0,2.0,hard,1000.0,2000.0,0.0,40.0,60.0,60.0,60.0,B,A,/static/Simple_RL/Stimuli/Fractals_stims/B.jpg,/static/Simple_RL/Stimuli/Fractals_stims/A.jpg,1.0,40.0,60.0,60.0,60.0,B,A,6.451,0.451,0.0,
206,,rl_choice_confirmation,,html-keyboard-response,206,162191,0.0-1.0-290.0-0.0,0,0,97341,,,,,,41.0,,,,,,,,,,,,,,,,,,,,,,7.5,1.049,,
207,,isi,,html-keyboard-response,207,162297,0.0-1.0-292.0,0,0,97341,,,,,,,,,,,,,,,,,,,,,,,,,,,,9.5,2.0,,
208,,feedback,,html-keyboard-response,208,163298,0.0-1.0-293.0-0.0,0,0,97341,,,,,,41.0,,,,,,,,,,,,,,,,,,,,,,10.5,1.0,,
209,,iti,,html-keyboard-response,209,163399,0.0-1.0-294.0,0,0,97341,,,,,,,,,,,,,,,,,,,,,,,,,,,,11.5,1.0,,
210,,rl_choice,,html-keyboard-response,210,163835,0.0-1.0-296.0,0,0,97341,,434.0,,,75.0,42.0,42.0,2.0,hard,1500.0,1000.0,0.0,40.0,60.0,20.0,80.0,B,A,/static/Simple_RL/Stimuli/Fractals_stims/B.jpg,/static/Simple_RL/Stimuli/Fractals_stims/A.jpg,0.0,60.0,40.0,80.0,20.0,A,B,11.934,0.434,0.0,
211,,rl_choice_confirmation,,html-keyboard-response,211,164906,0.0-1.0-297.0-0.0,0,0,97341,,,,,,42.0,,,,,,,,,,,,,,,,,,,,,,13.0,1.066,,
212,,isi,,html-keyboard-response,212,165007,0.0-1.0-299.0,0,0,97341,,,,,,,,,,,,,,,,,,,,,,,,,,,,14.0,1.0,,
213,,feedback,,html-keyboard-response,213,166013,0.0-1.0-300.0-0.0,0,0,97341,,,,,,42.0,,,,,,,,,,,,,,,,,,,,,,15.0,1.0,,
214,,iti,,html-keyboard-response,214,166114,0.0-1.0-301.0,0,0,97341,,,,,,,,,,,,,,,,,,,,,,,,,,,,16.5,1.5,,
215,,rl_choice,,html-keyboard-response,215,166426,0.0-1.0-303.0,0,0,97341,,311.0,,,75.0,43.0,43.0,2.0,hard,1000.0,2000.0,0.0,40.0,60.0,20.0,80.0,B,A,/static/Simple_RL/Stimuli/Fractals_stims/B.jpg,/static/Simple_RL/Stimuli/Fractals_stims/A.jpg,0.0,60.0,40.0,80.0,20.0,A,B,16.811,0.311,0.0,
216,,rl_choice_confirmation,,html-keyboard-response,216,167620,0.0-1.0-304.0-0.0,0,0,97341,,,,,,43.0,,,,,,,,,,,,,,,,,,,,,,18.0,1.189,,
217,,isi,,html-keyboard-response,217,167722,0.0-1.0-306.0,0,0,97341,,,,,,,,,,,,,,,,,,,,,,,,,,,,20.0,2.0,,
218,,feedback,,html-keyboard-response,218,168725,0.0-1.0-307.0-0.0,0,0,97341,,,,,,43.0,,,,,,,,,,,,,,,,,,,,,,21.0,1.0,,
219,,iti,,html-keyboard-response,219,168830,0.0-1.0-308.0,0,0,97341,,,,,,,,,,,,,,,,,,,,,,,,,,,,22.0,1.0,,
220,,rl_choice,,html-keyboard-response,220,169090,0.0-1.0-310.0,0,0,97341,,259.0,,,75.0,44.0,44.0,2.0,hard,1000.0,1000.0,0.0,40.0,60.0,40.0,40.0,B,A,/static/Simple_RL/Stimuli/Fractals_stims/B.jpg,/static/Simple_RL/Stimuli/Fractals_stims/A.jpg,0.0,60.0,40.0,40.0,40.0,A,B,22.259,0.259,0.0,
221,,rl_choice_confirmation,,html-keyboard-response,221,170335,0.0-1.0-311.0-0.0,0,0,97341,,,,,,44.0,,,,,,,,,,,,,,,,,,,,,,23.5,1.241,,
222,,isi,,html-keyboard-response,222,170440,0.0-1.0-313.0,0,0,97341,,,,,,,,,,,,,,,,,,,,,,,,,,,,24.5,1.0,,
223,,feedback,,html-keyboard-response,223,171444,0.0-1.0-314.0-0.0,0,0,97341,,,,,,44.0,,,,,,,,,,,,,,,,,,,,,,25.5,1.0,,
224,,iti,,html-keyboard-response,224,171547,0.0-1.0-315.0,0,0,97341,,,,,,,,,,,,,,,,,,,,,,,,,,,,26.5,1.0,,
225,,rl_choice,,html-keyboard-response,225,171608,0.0-1.0-317.0,0,0,97341,,60.0,,,75.0,45.0,45.0,2.0,hard,2000.0,1500.0,0.0,40.0,60.0,20.0,40.0,B,A,/static/Simple_RL/Stimuli/Fractals_stims/B.jpg,/static/Simple_RL/Stimuli/Fractals_stims/A.jpg,0.0,60.0,40.0,40.0,20.0,A,B,26.56,0.06,0.0,
226,,rl_choice_confirmation,,html-keyboard-response,226,173051,0.0-1.0-318.0-0.0,0,0,97341,,,,,,45.0,,,,,,,,,,,,,,,,,,,,,,28.0,1.44,,
227,,isi,,html-keyboard-response,227,173152,0.0-1.0-320.0,0,0,97341,,,,,,,,,,,,,,,,,,,,,,,,,,,,29.5,1.5,,
228,,feedback,,html-keyboard-response,228,174156,0.0-1.0-321.0-0.0,0,0,97341,,,,,,45.0,,,,,,,,,,,,,,,,,,,,,,30.5,1.0,,
229,,iti,,html-keyboard-response,229,174261,0.0-1.0-322.0,0,0,97341,,,,,,,,,,,,,,,,,,,,,,,,,,,,32.5,2.0,,
230,,rl_choice,,html-keyboard-response,230,174619,0.0-1.0-324.0,0,0,97341,,356.0,,,75.0,46.0,46.0,2.0,easy,1500.0,3000.0,0.0,20.0,80.0,0.0,80.0,D,C,/static/Simple_RL/Stimuli/Fractals_stims/D.jpg,/static/Simple_RL/Stimuli/Fractals_stims/C.jpg,0.0,80.0,20.0,80.0,0.0,C,D,32.856,0.356,0.0,
231,,rl_choice_confirmation,,html-keyboard-response,231,175767,0.0-1.0-325.0-0.0,0,0,97341,,,,,,46.0,,,,,,,,,,,,,,,,,,,,,,34.0,1.144,,
232,,isi,,html-keyboard-response,232,175872,0.0-1.0-327.0,0,0,97341,,,,,,,,,,,,,,,,,,,,,,,,,,,,37.0,3.0,,
233,,feedback,,html-keyboard-response,233,176874,0.0-1.0-328.0-0.0,0,0,97341,,,,,,46.0,,,,,,,,,,,,,,,,,,,,,,38.0,1.0,,
234,,iti,,html-keyboard-response,234,176978,0.0-1.0-329.0,0,0,97341,,,,,,,,,,,,,,,,,,,,,,,,,,,,39.5,1.5,,
235,,rl_choice,,html-keyboard-response,235,177299,0.0-1.0-331.0,0,0,97341,,321.0,,,75.0,47.0,47.0,2.0,easy,1500.0,1000.0,0.0,20.0,80.0,20.0,80.0,D,C,/static/Simple_RL/Stimuli/Fractals_stims/D.jpg,/static/Simple_RL/Stimuli/Fractals_stims/C.jpg,0.0,80.0,20.0,80.0,20.0,C,D,39.821,0.321,0.0,
236,,rl_choice_confirmation,,html-keyboard-response,236,178480,0.0-1.0-332.0-0.0,0,0,97341,,,,,,47.0,,,,,,,,,,,,,,,,,,,,,,41.0,1.179,,
237,,isi,,html-keyboard-response,237,178586,0.0-1.0-334.0,0,0,97341,,,,,,,,,,,,,,,,,,,,,,,,,,,,42.0,1.0,,
238,,feedback,,html-keyboard-response,238,179589,0.0-1.0-335.0-0.0,0,0,97341,,,,,,47.0,,,,,,,,,,,,,,,,,,,,,,43.0,1.0,,
239,,iti,,html-keyboard-response,239,179692,0.0-1.0-336.0,0,0,97341,,,,,,,,,,,,,,,,,,,,,,,,,,,,44.5,1.5,,
240,,rl_choice,,html-keyboard-response,240,179911,0.0-1.0-338.0,0,0,97341,,218.0,,,68.0,48.0,48.0,2.0,easy,2000.0,1000.0,1.0,80.0,20.0,80.0,20.0,C,D,/static/Simple_RL/Stimuli/Fractals_stims/C.jpg,/static/Simple_RL/Stimuli/Fractals_stims/D.jpg,1.0,80.0,20.0,80.0,20.0,C,D,44.718,0.218,0.0,
241,,rl_choice_confirmation,,html-keyboard-response,241,181197,0.0-1.0-339.0-0.0,0,0,97341,,,,,,48.0,,,,,,,,,,,,,,,,,,,,,,46.0,1.282,,
242,,isi,,html-keyboard-response,242,181303,0.0-1.0-341.0,0,0,97341,,,,,,,,,,,,,,,,,,,,,,,,,,,,47.0,1.0,,
243,,feedback,,html-keyboard-response,243,182309,0.0-1.0-342.0-0.0,0,0,97341,,,,,,48.0,,,,,,,,,,,,,,,,,,,,,,48.0,1.0,,
244,,iti,,html-keyboard-response,244,182414,0.0-1.0-343.0,0,0,97341,,,,,,,,,,,,,,,,,,,,,,,,,,,,50.0,2.0,,
245,,rl_choice,,html-keyboard-response,245,182695,0.0-1.0-345.0,0,0,97341,,280.0,,,68.0,49.0,49.0,2.0,hard,1500.0,2000.0,0.0,40.0,60.0,60.0,60.0,B,A,/static/Simple_RL/Stimuli/Fractals_stims/B.jpg,/static/Simple_RL/Stimuli/Fractals_stims/A.jpg,1.0,40.0,60.0,60.0,60.0,B,A,50.28,0.28,0.0,
246,,rl_choice_confirmation,,html-keyboard-response,246,183919,0.0-1.0-346.0-0.0,0,0,97341,,,,,,49.0,,,,,,,,,,,,,,,,,,,,,,51.5,1.22,,
247,,isi,,html-keyboard-response,247,184021,0.0-1.0-348.0,0,0,97341,,,,,,,,,,,,,,,,,,,,,,,,,,,,53.5,2.0,,
248,,feedback,,html-keyboard-response,248,185024,0.0-1.0-349.0-0.0,0,0,97341,,,,,,49.0,,,,,,,,,,,,,,,,,,,,,,54.5,1.0,,
249,,iti,,html-keyboard-response,249,185125,0.0-1.0-350.0,0,0,97341,,,,,,,,,,,,,,,,,,,,,,,,,,,,56.0,1.5,,
250,,rl_choice,,html-keyboard-response,250,185491,0.0-1.0-352.0,0,0,97341,,365.0,,,68.0,50.0,50.0,2.0,easy,1000.0,3500.0,0.0,20.0,80.0,0.0,100.0,D,C,/static/Simple_RL/Stimuli/Fractals_stims/D.jpg,/static/Simple_RL/Stimuli/Fractals_stims/C.jpg,1.0,20.0,80.0,0.0,100.0,D,C,56.365,0.365,0.0,
251,,rl_choice_confirmation,,html-keyboard-response,251,186630,0.0-1.0-353.0-0.0,0,0,97341,,,,,,50.0,,,,,,,,,,,,,,,,,,,,,,57.5,1.135,,
252,,isi,,html-keyboard-response,252,186736,0.0-1.0-355.0,0,0,97341,,,,,,,,,,,,,,,,,,,,,,,,,,,,61.0,3.5,,
253,,feedback,,html-keyboard-response,253,187738,0.0-1.0-356.0-0.0,0,0,97341,,,,,,50.0,,,,,,,,,,,,,,,,,,,,,,62.0,1.0,,
254,,iti,,html-keyboard-response,254,187840,0.0-1.0-357.0,0,0,97341,,,,,,,,,,,,,,,,,,,,,,,,,,,,63.0,1.0,,
255,,rl_choice,,html-keyboard-response,255,188138,0.0-1.0-359.0,0,0,97341,,297.0,,,68.0,51.0,51.0,2.0,easy,1500.0,1000.0,1.0,80.0,20.0,60.0,20.0,C,D,/static/Simple_RL/Stimuli/Fractals_stims/C.jpg,/static/Simple_RL/Stimuli/Fractals_stims/D.jpg,1.0,80.0,20.0,60.0,20.0,C,D,63.297,0.297,0.0,
256,,rl_choice_confirmation,,html-keyboard-response,256,189347,0.0-1.0-360.0-0.0,0,0,97341,,,,,,51.0,,,,,,,,,,,,,,,,,,,,,,64.5,1.203,,
257,,isi,,html-keyboard-response,257,189451,0.0-1.0-362.0,0,0,97341,,,,,,,,,,,,,,,,,,,,,,,,,,,,65.5,1.0,,
258,,feedback,,html-keyboard-response,258,190455,0.0-1.0-363.0-0.0,0,0,97341,,,,,,51.0,,,,,,,,,,,,,,,,,,,,,,66.5,1.0,,
259,,iti,,html-keyboard-response,259,190560,0.0-1.0-364.0,0,0,97341,,,,,,,,,,,,,,,,,,,,,,,,,,,,68.0,1.5,,
260,,rl_choice,,html-keyboard-response,260,190674,0.0-1.0-366.0,0,0,97341,,112.0,,,75.0,52.0,52.0,2.0,hard,2000.0,1500.0,0.0,40.0,60.0,20.0,80.0,B,A,/static/Simple_RL/Stimuli/Fractals_stims/B.jpg,/static/Simple_RL/Stimuli/Fractals_stims/A.jpg,0.0,60.0,40.0,80.0,20.0,A,B,68.112,0.112,0.0,
261,,rl_choice_confirmation,,html-keyboard-response,261,192064,0.0-1.0-367.0-0.0,0,0,97341,,,,,,52.0,,,,,,,,,,,,,,,,,,,,,,69.5,1.388,,
262,,isi,,html-keyboard-response,262,192168,0.0-1.0-369.0,0,0,97341,,,,,,,,,,,,,,,,,,,,,,,,,,,,71.0,1.5,,
263,,feedback,,html-keyboard-response,263,193174,0.0-1.0-370.0-0.0,0,0,97341,,,,,,52.0,,,,,,,,,,,,,,,,,,,,,,72.0,1.0,,
264,,iti,,html-keyboard-response,264,193280,0.0-1.0-371.0,0,0,97341,,,,,,,,,,,,,,,,,,,,,,,,,,,,74.0,2.0,,
265,,rl_choice,,html-keyboard-response,265,193626,0.0-1.0-373.0,0,0,97341,,344.0,,,75.0,53.0,53.0,2.0,hard,3000.0,1500.0,0.0,40.0,60.0,20.0,40.0,B,A,/static/Simple_RL/Stimuli/Fractals_stims/B.jpg,/static/Simple_RL/Stimuli/Fractals_stims/A.jpg,0.0,60.0,40.0,40.0,20.0,A,B,74.344,0.344,0.0,
266,,rl_choice_confirmation,,html-keyboard-response,266,194785,0.0-1.0-374.0-0.0,0,0,97341,,,,,,53.0,,,,,,,,,,,,,,,,,,,,,,75.5,1.156,,
267,,isi,,html-keyboard-response,267,194887,0.0-1.0-376.0,0,0,97341,,,,,,,,,,,,,,,,,,,,,,,,,,,,77.0,1.5,,
268,,feedback,,html-keyboard-response,268,195893,0.0-1.0-377.0-0.0,0,0,97341,,,,,,53.0,,,,,,,,,,,,,,,,,,,,,,78.0,1.0,,
269,,iti,,html-keyboard-response,269,195997,0.0-1.0-378.0,0,0,97341,,,,,,,,,,,,,,,,,,,,,,,,,,,,81.0,3.0,,
270,,rl_choice,,html-keyboard-response,270,196307,0.0-1.0-380.0,0,0,97341,,309.0,,,75.0,54.0,54.0,2.0,easy,3000.0,1500.0,0.0,20.0,80.0,20.0,100.0,D,C,/static/Simple_RL/Stimuli/Fractals_stims/D.jpg,/static/Simple_RL/Stimuli/Fractals_stims/C.jpg,0.0,80.0,20.0,100.0,20.0,C,D,81.309,0.309,0.0,
271,,rl_choice_confirmation,,html-keyboard-response,271,197504,0.0-1.0-381.0-0.0,0,0,97341,,,,,,54.0,,,,,,,,,,,,,,,,,,,,,,82.5,1.191,,
272,,isi,,html-keyboard-response,272,197606,0.0-1.0-383.0,0,0,97341,,,,,,,,,,,,,,,,,,,,,,,,,,,,84.0,1.5,,
273,,feedback,,html-keyboard-response,273,198610,0.0-1.0-384.0-0.0,0,0,97341,,,,,,54.0,,,,,,,,,,,,,,,,,,,,,,85.0,1.0,,
274,,iti,,html-keyboard-response,274,198715,0.0-1.0-385.0,0,0,97341,,,,,,,,,,,,,,,,,,,,,,,,,,,,88.0,3.0,,
275,,rl_choice,,html-keyboard-response,275,199025,0.0-1.0-387.0,0,0,97341,,308.0,,,75.0,55.0,55.0,2.0,easy,1500.0,1500.0,1.0,80.0,20.0,80.0,20.0,C,D,/static/Simple_RL/Stimuli/Fractals_stims/C.jpg,/static/Simple_RL/Stimuli/Fractals_stims/D.jpg,0.0,20.0,80.0,20.0,80.0,D,C,88.308,0.308,0.0,
276,,rl_choice_confirmation,,html-keyboard-response,276,200219,0.0-1.0-388.0-0.0,0,0,97341,,,,,,55.0,,,,,,,,,,,,,,,,,,,,,,89.5,1.192,,
277,,isi,,html-keyboard-response,277,200320,0.0-1.0-390.0,0,0,97341,,,,,,,,,,,,,,,,,,,,,,,,,,,,91.0,1.5,,
278,,feedback,,html-keyboard-response,278,201324,0.0-1.0-391.0-0.0,0,0,97341,,,,,,55.0,,,,,,,,,,,,,,,,,,,,,,92.0,1.0,,
279,,iti,,html-keyboard-response,279,201429,0.0-1.0-392.0,0,0,97341,,,,,,,,,,,,,,,,,,,,,,,,,,,,93.5,1.5,,
280,,rl_choice,,html-keyboard-response,280,201694,0.0-1.0-394.0,0,0,97341,,263.0,,,75.0,56.0,56.0,2.0,easy,2000.0,2000.0,0.0,20.0,80.0,40.0,80.0,D,C,/static/Simple_RL/Stimuli/Fractals_stims/D.jpg,/static/Simple_RL/Stimuli/Fractals_stims/C.jpg,0.0,80.0,20.0,80.0,40.0,C,D,93.763,0.263,0.0,
281,,rl_choice_confirmation,,html-keyboard-response,281,202936,0.0-1.0-395.0-0.0,0,0,97341,,,,,,56.0,,,,,,,,,,,,,,,,,,,,,,95.0,1.237,,
282,,isi,,html-keyboard-response,282,203041,0.0-1.0-397.0,0,0,97341,,,,,,,,,,,,,,,,,,,,,,,,,,,,97.0,2.0,,
283,,feedback,,html-keyboard-response,283,204043,0.0-1.0-398.0-0.0,0,0,97341,,,,,,56.0,,,,,,,,,,,,,,,,,,,,,,98.0,1.0,,
284,,iti,,html-keyboard-response,284,204147,0.0-1.0-399.0,0,0,97341,,,,,,,,,,,,,,,,,,,,,,,,,,,,100.0,2.0,,
285,,rl_choice,,html-keyboard-response,285,204445,0.0-1.0-401.0,0,0,97341,,297.0,,,68.0,57.0,57.0,2.0,easy,1000.0,1000.0,0.0,20.0,80.0,20.0,80.0,D,C,/static/Simple_RL/Stimuli/Fractals_stims/D.jpg,/static/Simple_RL/Stimuli/Fractals_stims/C.jpg,1.0,20.0,80.0,20.0,80.0,D,C,100.297,0.297,0.0,
286,,rl_choice_confirmation,,html-keyboard-response,286,205653,0.0-1.0-402.0-0.0,0,0,97341,,,,,,57.0,,,,,,,,,,,,,,,,,,,,,,101.5,1.203,,
287,,isi,,html-keyboard-response,287,205758,0.0-1.0-404.0,0,0,97341,,,,,,,,,,,,,,,,,,,,,,,,,,,,102.5,1.0,,
288,,feedback,,html-keyboard-response,288,206760,0.0-1.0-405.0-0.0,0,0,97341,,,,,,57.0,,,,,,,,,,,,,,,,,,,,,,103.5,1.0,,
289,,iti,,html-keyboard-response,289,206861,0.0-1.0-406.0,0,0,97341,,,,,,,,,,,,,,,,,,,,,,,,,,,,104.5,1.0,,
290,,rl_choice,,html-keyboard-response,290,207097,0.0-1.0-408.0,0,0,97341,,235.0,,,68.0,58.0,58.0,2.0,easy,1000.0,1000.0,0.0,20.0,80.0,20.0,60.0,D,C,/static/Simple_RL/Stimuli/Fractals_stims/D.jpg,/static/Simple_RL/Stimuli/Fractals_stims/C.jpg,1.0,20.0,80.0,20.0,60.0,D,C,104.735,0.235,0.0,
291,,rl_choice_confirmation,,html-keyboard-response,291,208368,0.0-1.0-409.0-0.0,0,0,97341,,,,,,58.0,,,,,,,,,,,,,,,,,,,,,,106.0,1.265,,
292,,isi,,html-keyboard-response,292,208470,0.0-1.0-411.0,0,0,97341,,,,,,,,,,,,,,,,,,,,,,,,,,,,107.0,1.0,,
293,,feedback,,html-keyboard-response,293,209472,0.0-1.0-412.0-0.0,0,0,97341,,,,,,58.0,,,,,,,,,,,,,,,,,,,,,,108.0,1.0,,
294,,iti,,html-keyboard-response,294,209573,0.0-1.0-413.0,0,0,97341,,,,,,,,,,,,,,,,,,,,,,,,,,,,109.0,1.0,,
295,,rl_choice,,html-keyboard-response,295,209630,0.0-1.0-415.0,0,0,97341,,56.0,,,68.0,59.0,59.0,2.0,hard,1500.0,1000.0,1.0,60.0,40.0,80.0,40.0,A,B,/static/Simple_RL/Stimuli/Fractals_stims/A.jpg,/static/Simple_RL/Stimuli/Fractals_stims/B.jpg,1.0,60.0,40.0,80.0,40.0,A,B,109.056,0.056,0.0,
296,,rl_choice_confirmation,,html-keyboard-response,296,211075,0.0-1.0-416.0-0.0,0,0,97341,,,,,,59.0,,,,,,,,,,,,,,,,,,,,,,110.5,1.444,,
297,,isi,,html-keyboard-response,297,211181,0.0-1.0-418.0,0,0,97341,,,,,,,,,,,,,,,,,,,,,,,,,,,,111.5,1.0,,
298,,feedback,,html-keyboard-response,298,212187,0.0-1.0-419.0-0.0,0,0,97341,,,,,,59.0,,,,,,,,,,,,,,,,,,,,,,112.5,1.0,,
299,,iti,,html-keyboard-response,299,212290,0.0-1.0-420.0,0,0,97341,,,,,,,,,,,,,,,,,,,,,,,,,,,,114.0,1.5,,
300,,rl_choice,,html-keyboard-response,300,213792,0.0-1.0-422.0,0,0,97341,,,,,,60.0,60.0,2.0,hard,1500.0,1000.0,1.0,60.0,40.0,40.0,40.0,A,B,/static/Simple_RL/Stimuli/Fractals_stims/A.jpg,/static/Simple_RL/Stimuli/Fractals_stims/B.jpg,,,,,,,,115.5,1.5,1.0,
301,,rl_choice_warning,,html-keyboard-response,301,214798,0.0-1.0-424.0-0.0,1,0,97341,,,,,,,,,,,,,,,,,,,,,,,,,,,,116.5,1.0,,
302,,isi,,html-keyboard-response,302,214902,0.0-1.0-425.0,0,0,97341,,,,,,,,,,,,,,,,,,,,,,,,,,,,117.5,1.0,,
303,,iti,,html-keyboard-response,303,215003,0.0-1.0-427.0,0,0,97341,,,,,,,,,,,,,,,,,,,,,,,,,,,,119.0,1.5,,
304,,rl_choice,,html-keyboard-response,304,216506,0.0-1.0-429.0,0,0,97341,,,,,,61.0,61.0,2.0,hard,1000.0,1000.0,1.0,60.0,40.0,40.0,60.0,A,B,/static/Simple_RL/Stimuli/Fractals_stims/A.jpg,/static/Simple_RL/Stimuli/Fractals_stims/B.jpg,,,,,,,,120.5,1.5,1.0,
305,,rl_choice_warning,,html-keyboard-response,305,217507,0.0-1.0-431.0-0.0,1,0,97341,,,,,,,,,,,,,,,,,,,,,,,,,,,,121.5,1.0,,
306,,isi,,html-keyboard-response,306,217610,0.0-1.0-432.0,0,0,97341,,,,,,,,,,,,,,,,,,,,,,,,,,,,122.5,1.0,,
307,,iti,,html-keyboard-response,307,217714,0.0-1.0-434.0,0,0,97341,,,,,,,,,,,,,,,,,,,,,,,,,,,,123.5,1.0,,
308,,rl_choice,,html-keyboard-response,308,217747,0.0-1.0-436.0,0,0,97341,,31.0,,,68.0,62.0,62.0,2.0,hard,1000.0,3000.0,1.0,60.0,40.0,60.0,20.0,A,B,/static/Simple_RL/Stimuli/Fractals_stims/A.jpg,/static/Simple_RL/Stimuli/Fractals_stims/B.jpg,1.0,60.0,40.0,60.0,20.0,A,B,123.531,0.031,0.0,
309,,rl_choice_confirmation,,html-keyboard-response,309,219222,0.0-1.0-437.0-0.0,0,0,97341,,,,,,62.0,,,,,,,,,,,,,,,,,,,,,,125.0,1.469,,
310,,isi,,html-keyboard-response,310,219323,0.0-1.0-439.0,0,0,97341,,,,,,,,,,,,,,,,,,,,,,,,,,,,128.0,3.0,,
311,,feedback,,html-keyboard-response,311,220326,0.0-1.0-440.0-0.0,0,0,97341,,,,,,62.0,,,,,,,,,,,,,,,,,,,,,,129.0,1.0,,
312,,iti,,html-keyboard-response,312,220431,0.0-1.0-441.0,0,0,97341,,,,,,,,,,,,,,,,,,,,,,,,,,,,130.0,1.0,,
313,,rl_choice,,html-keyboard-response,313,221222,0.0-1.0-443.0,0,0,97341,,789.0,,,68.0,63.0,63.0,2.0,easy,2000.0,1500.0,0.0,20.0,80.0,20.0,60.0,D,C,/static/Simple_RL/Stimuli/Fractals_stims/D.jpg,/static/Simple_RL/Stimuli/Fractals_stims/C.jpg,1.0,20.0,80.0,20.0,60.0,D,C,130.789,0.789,0.0,
314,,rl_choice_confirmation,,html-keyboard-response,314,221936,0.0-1.0-444.0-0.0,0,0,97341,,,,,,63.0,,,,,,,,,,,,,,,,,,,,,,131.5,0.711,,
315,,isi,,html-keyboard-response,315,222038,0.0-1.0-446.0,0,0,97341,,,,,,,,,,,,,,,,,,,,,,,,,,,,133.0,1.5,,
316,,feedback,,html-keyboard-response,316,223040,0.0-1.0-447.0-0.0,0,0,97341,,,,,,63.0,,,,,,,,,,,,,,,,,,,,,,134.0,1.0,,
317,,iti,,html-keyboard-response,317,223142,0.0-1.0-448.0,0,0,97341,,,,,,,,,,,,,,,,,,,,,,,,,,,,136.0,2.0,,
318,,rl_choice,,html-keyboard-response,318,224648,0.0-1.0-450.0,0,0,97341,,,,,,64.0,64.0,2.0,easy,2000.0,1000.0,1.0,80.0,20.0,100.0,20.0,C,D,/static/Simple_RL/Stimuli/Fractals_stims/C.jpg,/static/Simple_RL/Stimuli/Fractals_stims/D.jpg,,,,,,,,137.5,1.5,1.0,
319,,rl_choice_warning,,html-keyboard-response,319,225653,0.0-1.0-452.0-0.0,1,0,97341,,,,,,,,,,,,,,,,,,,,,,,,,,,,138.5,1.0,,
320,,isi,,html-keyboard-response,320,225758,0.0-1.0-453.0,0,0,97341,,,,,,,,,,,,,,,,,,,,,,,,,,,,139.5,1.0,,
321,,iti,,html-keyboard-response,321,225862,0.0-1.0-455.0,0,0,97341,,,,,,,,,,,,,,,,,,,,,,,,,,,,141.5,2.0,,
322,,rl_choice,,html-keyboard-response,322,227365,0.0-1.0-457.0,0,0,97341,,,,,,65.0,65.0,2.0,hard,2000.0,1500.0,1.0,60.0,40.0,60.0,40.0,A,B,/static/Simple_RL/Stimuli/Fractals_stims/A.jpg,/static/Simple_RL/Stimuli/Fractals_stims/B.jpg,,,,,,,,143.0,1.5,1.0,
323,,rl_choice_warning,,html-keyboard-response,323,228368,0.0-1.0-459.0-0.0,1,0,97341,,,,,,,,,,,,,,,,,,,,,,,,,,,,144.0,1.0,,
324,,isi,,html-keyboard-response,324,228473,0.0-1.0-460.0,0,0,97341,,,,,,,,,,,,,,,,,,,,,,,,,,,,145.5,1.5,,
325,,iti,,html-keyboard-response,325,228577,0.0-1.0-462.0,0,0,97341,,,,,,,,,,,,,,,,,,,,,,,,,,,,147.5,2.0,,
326,,rl_choice,,html-keyboard-response,326,230081,0.0-1.0-464.0,0,0,97341,,,,,,66.0,66.0,2.0,hard,3000.0,1000.0,1.0,60.0,40.0,60.0,20.0,A,B,/static/Simple_RL/Stimuli/Fractals_stims/A.jpg,/static/Simple_RL/Stimuli/Fractals_stims/B.jpg,,,,,,,,149.0,1.5,1.0,
327,,rl_choice_warning,,html-keyboard-response,327,231083,0.0-1.0-466.0-0.0,1,0,97341,,,,,,,,,,,,,,,,,,,,,,,,,,,,150.0,1.0,,
328,,isi,,html-keyboard-response,328,231187,0.0-1.0-467.0,0,0,97341,,,,,,,,,,,,,,,,,,,,,,,,,,,,151.0,1.0,,
329,,iti,,html-keyboard-response,329,231291,0.0-1.0-469.0,0,0,97341,,,,,,,,,,,,,,,,,,,,,,,,,,,,154.0,3.0,,
330,,rl_choice,,html-keyboard-response,330,232795,0.0-1.0-471.0,0,0,97341,,,,,,67.0,67.0,2.0,easy,3500.0,2000.0,1.0,80.0,20.0,60.0,40.0,C,D,/static/Simple_RL/Stimuli/Fractals_stims/C.jpg,/static/Simple_RL/Stimuli/Fractals_stims/D.jpg,,,,,,,,155.5,1.5,1.0,
331,,rl_choice_warning,,html-keyboard-response,331,233798,0.0-1.0-473.0-0.0,1,0,97341,,,,,,,,,,,,,,,,,,,,,,,,,,,,156.5,1.0,,
332,,isi,,html-keyboard-response,332,233904,0.0-1.0-474.0,0,0,97341,,,,,,,,,,,,,,,,,,,,,,,,,,,,158.5,2.0,,
333,,iti,,html-keyboard-response,333,234006,0.0-1.0-476.0,0,0,97341,,,,,,,,,,,,,,,,,,,,,,,,,,,,162.0,3.5,,
334,,rl_choice,,html-keyboard-response,334,235510,0.0-1.0-478.0,0,0,97341,,,,,,68.0,68.0,2.0,easy,3000.0,2000.0,0.0,20.0,80.0,40.0,80.0,D,C,/static/Simple_RL/Stimuli/Fractals_stims/D.jpg,/static/Simple_RL/Stimuli/Fractals_stims/C.jpg,,,,,,,,163.5,1.5,1.0,
335,,rl_choice_warning,,html-keyboard-response,335,236515,0.0-1.0-480.0-0.0,1,0,97341,,,,,,,,,,,,,,,,,,,,,,,,,,,,164.5,1.0,,
336,,isi,,html-keyboard-response,336,236619,0.0-1.0-481.0,0,0,97341,,,,,,,,,,,,,,,,,,,,,,,,,,,,166.5,2.0,,
337,,iti,,html-keyboard-response,337,236723,0.0-1.0-483.0,0,0,97341,,,,,,,,,,,,,,,,,,,,,,,,,,,,169.5,3.0,,
338,,rl_choice,,html-keyboard-response,338,238228,0.0-1.0-485.0,0,0,97341,,,,,,69.0,69.0,2.0,hard,2000.0,1000.0,1.0,60.0,40.0,40.0,60.0,A,B,/static/Simple_RL/Stimuli/Fractals_stims/A.jpg,/static/Simple_RL/Stimuli/Fractals_stims/B.jpg,,,,,,,,171.0,1.5,1.0,
339,,rl_choice_warning,,html-keyboard-response,339,239233,0.0-1.0-487.0-0.0,1,0,97341,,,,,,,,,,,,,,,,,,,,,,,,,,,,172.0,1.0,,
340,,isi,,html-keyboard-response,340,239334,0.0-1.0-488.0,0,0,97341,,,,,,,,,,,,,,,,,,,,,,,,,,,,173.0,1.0,,
341,,iti,,html-keyboard-response,341,239436,0.0-1.0-490.0,0,0,97341,,,,,,,,,,,,,,,,,,,,,,,,,,,,175.0,2.0,,
342,,rl_choice,,html-keyboard-response,342,240939,0.0-1.0-492.0,0,0,97341,,,,,,70.0,70.0,2.0,hard,1000.0,3500.0,1.0,60.0,40.0,80.0,40.0,A,B,/static/Simple_RL/Stimuli/Fractals_stims/A.jpg,/static/Simple_RL/Stimuli/Fractals_stims/B.jpg,,,,,,,,176.5,1.5,1.0,
343,,rl_choice_warning,,html-keyboard-response,343,241942,0.0-1.0-494.0-0.0,1,0,97341,,,,,,,,,,,,,,,,,,,,,,,,,,,,177.5,1.0,,
344,,isi,,html-keyboard-response,344,242046,0.0-1.0-495.0,0,0,97341,,,,,,,,,,,,,,,,,,,,,,,,,,,,181.0,3.5,,
345,,iti,,html-keyboard-response,345,242150,0.0-1.0-497.0,0,0,97341,,,,,,,,,,,,,,,,,,,,,,,,,,,,182.0,1.0,,
346,,rl_choice,,html-keyboard-response,346,243655,0.0-1.0-499.0,0,0,97341,,,,,,71.0,71.0,2.0,hard,1000.0,1500.0,1.0,60.0,40.0,40.0,40.0,A,B,/static/Simple_RL/Stimuli/Fractals_stims/A.jpg,/static/Simple_RL/Stimuli/Fractals_stims/B.jpg,,,,,,,,183.5,1.5,1.0,
347,,rl_choice_warning,,html-keyboard-response,347,244657,0.0-1.0-501.0-0.0,1,0,97341,,,,,,,,,,,,,,,,,,,,,,,,,,,,184.5,1.0,,
348,,isi,,html-keyboard-response,348,244761,0.0-1.0-502.0,0,0,97341,,,,,,,,,,,,,,,,,,,,,,,,,,,,186.0,1.5,,
349,,iti,,html-keyboard-response,349,244865,0.0-1.0-504.0,0,0,97341,,,,,,,,,,,,,,,,,,,,,,,,,,,,187.0,1.0,,
350,,rl_choice,,html-keyboard-response,350,246368,0.0-1.0-506.0,0,0,97341,,,,,,72.0,72.0,2.0,easy,1000.0,1500.0,0.0,20.0,80.0,0.0,80.0,D,C,/static/Simple_RL/Stimuli/Fractals_stims/D.jpg,/static/Simple_RL/Stimuli/Fractals_stims/C.jpg,,,,,,,,188.5,1.5,1.0,
351,,rl_choice_warning,,html-keyboard-response,351,247371,0.0-1.0-508.0-0.0,1,0,97341,,,,,,,,,,,,,,,,,,,,,,,,,,,,189.5,1.0,,
352,,isi,,html-keyboard-response,352,247477,0.0-1.0-509.0,0,0,97341,,,,,,,,,,,,,,,,,,,,,,,,,,,,191.0,1.5,,
353,,iti,,html-keyboard-response,353,247582,0.0-1.0-511.0,0,0,97341,,,,,,,,,,,,,,,,,,,,,,,,,,,,192.0,1.0,,
354,,rl_choice,,html-keyboard-response,354,249084,0.0-1.0-513.0,0,0,97341,,,,,,73.0,73.0,2.0,easy,1000.0,3000.0,1.0,80.0,20.0,60.0,0.0,C,D,/static/Simple_RL/Stimuli/Fractals_stims/C.jpg,/static/Simple_RL/Stimuli/Fractals_stims/D.jpg,,,,,,,,193.5,1.5,1.0,
355,,rl_choice_warning,,html-keyboard-response,355,250086,0.0-1.0-515.0-0.0,1,0,97341,,,,,,,,,,,,,,,,,,,,,,,,,,,,194.5,1.0,,
356,,isi,,html-keyboard-response,356,250189,0.0-1.0-516.0,0,0,97341,,,,,,,,,,,,,,,,,,,,,,,,,,,,197.5,3.0,,
357,,iti,,html-keyboard-response,357,250294,0.0-1.0-518.0,0,0,97341,,,,,,,,,,,,,,,,,,,,,,,,,,,,198.5,1.0,,
358,,rl_choice,,html-keyboard-response,358,251798,0.0-1.0-520.0,0,0,97341,,,,,,74.0,74.0,2.0,hard,3500.0,2000.0,1.0,60.0,40.0,60.0,60.0,A,B,/static/Simple_RL/Stimuli/Fractals_stims/A.jpg,/static/Simple_RL/Stimuli/Fractals_stims/B.jpg,,,,,,,,200.0,1.5,1.0,
359,,rl_choice_warning,,html-keyboard-response,359,252801,0.0-1.0-522.0-0.0,1,0,97341,,,,,,,,,,,,,,,,,,,,,,,,,,,,201.0,1.0,,
360,,isi,,html-keyboard-response,360,252906,0.0-1.0-523.0,0,0,97341,,,,,,,,,,,,,,,,,,,,,,,,,,,,203.0,2.0,,
361,,iti,,html-keyboard-response,361,253009,0.0-1.0-525.0,0,0,97341,,,,,,,,,,,,,,,,,,,,,,,,,,,,206.5,3.5,,
362,,rl_choice,,html-keyboard-response,362,254513,0.0-1.0-527.0,0,0,97341,,,,,,75.0,75.0,2.0,hard,1500.0,3000.0,0.0,40.0,60.0,60.0,80.0,B,A,/static/Simple_RL/Stimuli/Fractals_stims/B.jpg,/static/Simple_RL/Stimuli/Fractals_stims/A.jpg,,,,,,,,208.0,1.5,1.0,
363,,rl_choice_warning,,html-keyboard-response,363,255515,0.0-1.0-529.0-0.0,1,0,97341,,,,,,,,,,,,,,,,,,,,,,,,,,,,209.0,1.0,,
364,,isi,,html-keyboard-response,364,255616,0.0-1.0-530.0,0,0,97341,,,,,,,,,,,,,,,,,,,,,,,,,,,,212.0,3.0,,
365,,iti,,html-keyboard-response,365,255718,0.0-1.0-532.0,0,0,97341,,,,,,,,,,,,,,,,,,,,,,,,,,,,213.5,1.5,,
366,,rl_choice,,html-keyboard-response,366,256442,0.0-1.0-534.0,0,0,97341,,723.0,,,68.0,76.0,76.0,2.0,easy,1000.0,1000.0,0.0,20.0,80.0,20.0,80.0,D,C,/static/Simple_RL/Stimuli/Fractals_stims/D.jpg,/static/Simple_RL/Stimuli/Fractals_stims/C.jpg,1.0,20.0,80.0,20.0,80.0,D,C,214.223,0.723,0.0,
367,,rl_choice_confirmation,,html-keyboard-response,367,257222,0.0-1.0-535.0-0.0,0,0,97341,,,,,,76.0,,,,,,,,,,,,,,,,,,,,,,215.0,0.777,,
368,,isi,,html-keyboard-response,368,257324,0.0-1.0-537.0,0,0,97341,,,,,,,,,,,,,,,,,,,,,,,,,,,,216.0,1.0,,
369,,feedback,,html-keyboard-response,369,258326,0.0-1.0-538.0-0.0,0,0,97341,,,,,,76.0,,,,,,,,,,,,,,,,,,,,,,217.0,1.0,,
370,,iti,,html-keyboard-response,370,258432,0.0-1.0-539.0,0,0,97341,,,,,,,,,,,,,,,,,,,,,,,,,,,,218.0,1.0,,
371,,rl_choice,,html-keyboard-response,371,259858,0.0-1.0-541.0,0,0,97341,,1425.0,,,75.0,77.0,77.0,2.0,hard,1000.0,1000.0,0.0,40.0,60.0,60.0,40.0,B,A,/static/Simple_RL/Stimuli/Fractals_stims/B.jpg,/static/Simple_RL/Stimuli/Fractals_stims/A.jpg,0.0,60.0,40.0,40.0,60.0,A,B,219.425,1.425,0.0,
372,,rl_choice_confirmation,,html-keyboard-response,372,259935,0.0-1.0-542.0-0.0,0,0,97341,,,,,,77.0,,,,,,,,,,,,,,,,,,,,,,219.5,0.075,,
373,,isi,,html-keyboard-response,373,260038,0.0-1.0-544.0,0,0,97341,,,,,,,,,,,,,,,,,,,,,,,,,,,,220.5,1.0,,
374,,feedback,,html-keyboard-response,374,261041,0.0-1.0-545.0-0.0,0,0,97341,,,,,,77.0,,,,,,,,,,,,,,,,,,,,,,221.5,1.0,,
375,,iti,,html-keyboard-response,375,261142,0.0-1.0-546.0,0,0,97341,,,,,,,,,,,,,,,,,,,,,,,,,,,,222.5,1.0,,
376,,rl_choice,,html-keyboard-response,376,261496,0.0-1.0-548.0,0,0,97341,,352.0,,,75.0,78.0,78.0,2.0,easy,1000.0,1500.0,1.0,80.0,20.0,80.0,0.0,C,D,/static/Simple_RL/Stimuli/Fractals_stims/C.jpg,/static/Simple_RL/Stimuli/Fractals_stims/D.jpg,0.0,20.0,80.0,0.0,80.0,D,C,222.852,0.352,0.0,
377,,rl_choice_confirmation,,html-keyboard-response,377,262649,0.0-1.0-549.0-0.0,0,0,97341,,,,,,78.0,,,,,,,,,,,,,,,,,,,,,,224.0,1.148,,
378,,isi,,html-keyboard-response,378,262753,0.0-1.0-551.0,0,0,97341,,,,,,,,,,,,,,,,,,,,,,,,,,,,225.5,1.5,,
379,,feedback,,html-keyboard-response,379,263759,0.0-1.0-552.0-0.0,0,0,97341,,,,,,78.0,,,,,,,,,,,,,,,,,,,,,,226.5,1.0,,
380,,iti,,html-keyboard-response,380,263865,0.0-1.0-553.0,0,0,97341,,,,,,,,,,,,,,,,,,,,,,,,,,,,227.5,1.0,,
381,,rl_choice,,html-keyboard-response,381,264262,0.0-1.0-555.0,0,0,97341,,396.0,,,75.0,79.0,79.0,2.0,easy,1000.0,1000.0,0.0,20.0,80.0,0.0,100.0,D,C,/static/Simple_RL/Stimuli/Fractals_stims/D.jpg,/static/Simple_RL/Stimuli/Fractals_stims/C.jpg,0.0,80.0,20.0,100.0,0.0,C,D,227.896,0.396,0.0,
382,,rl_choice_confirmation,,html-keyboard-response,382,265372,0.0-1.0-556.0-0.0,0,0,97341,,,,,,79.0,,,,,,,,,,,,,,,,,,,,,,229.0,1.104,,
383,,isi,,html-keyboard-response,383,265473,0.0-1.0-558.0,0,0,97341,,,,,,,,,,,,,,,,,,,,,,,,,,,,230.0,1.0,,
384,,feedback,,html-keyboard-response,384,266476,0.0-1.0-559.0-0.0,0,0,97341,,,,,,79.0,,,,,,,,,,,,,,,,,,,,,,231.0,1.0,,
385,,iti,,html-keyboard-response,385,266577,0.0-1.0-560.0,0,0,97341,,,,,,,,,,,,,,,,,,,,,,,,,,,,232.0,1.0,,1.0
386,,final_tally,,html-keyboard-response,386,269563,0.0-2.0,0,0,97341,,2985.0,,,68.0,,,,,,,,,,,,,,,,,,,,,,,,,,
