,success,ttype,start_time,trial_type,trial_index,time_elapsed,internal_node_id,warning,missed_checkup,PID,view_history,rt,responses,repeat_instructions,key_press,index,trial_num,block,condition,iti,isi,high_group_on_left,left_group_value,right_group_value,left_item_value,right_item_value,left_img,right_img,left_img_path,right_img_path,no_resposne,onset,duration,left_chosen,chosen_group_value,unchosen_group_value,chosen_item_value,unchosen_item_value,chosen_img,unchosen_img,no_response,total_bonus_tally
0,True,full_screen,d05252022hr1707,fullscreen,0,10637212,0.0-0.0,0,0,37970,,,,,,,,,,,,,,,,,,,,,,,,,,,,,,,,
1,,size_instructions,,instructions,1,10642250,0.0-1.0-0.0-0.0,0,0,37970,"[{""page_index"":0,""viewing_time"":1474},{""page_index"":1,""viewing_time"":297},{""page_index"":2,""viewing_time"":865},{""page_index"":3,""viewing_time"":560},{""page_index"":4,""viewing_time"":665},{""page_index"":5,""viewing_time"":1166}]",5028.0,,,,,,,,,,,,,,,,,,,,,,,,,,,,,,
2,,rl_comprehension_check,,survey-multi-choice,2,10645951,0.0-1.0-0.0-1.0,0,0,37970,,3691.0,"{""Q0"":""True"",""Q1"":""True"",""Q2"":""D for left and K for right""}",0.0,,,,,,,,,,,,,,,,,,,,,,,,,,,,
3,,,,html-keyboard-response,3,10647541,0.0-1.0-1.0,0,0,37970,,1572.0,,,68.0,,,,,,,,,,,,,,,,,,,,,,,,,,,
4,,rl_choice,,html-keyboard-response,4,10649045,0.0-1.0-2.0,0,0,37970,,,,,,0.0,0.0,1.0,easy,2000.0,1000.0,0.0,20.0,80.0,40.0,80.0,D,C,/static/Simple_RL/Stimuli/Fractals_stims/D.jpg,/static/Simple_RL/Stimuli/Fractals_stims/C.jpg,1.0,1.5,1.5,,,,,,,,,
5,,rl_choice_warning,,html-keyboard-response,5,10650048,0.0-1.0-4.0-0.0,0,0,37970,,,,,,,,,,,,,,,,,,,,,,2.5,1.0,,,,,,,,,
6,,isi,,html-keyboard-response,6,10650153,0.0-1.0-5.0,0,0,37970,,,,,,,,,,,,,,,,,,,,,,3.5,1.0,,,,,,,,,
7,,iti,,html-keyboard-response,7,10650258,0.0-1.0-7.0,0,0,37970,,,,,,,,,,,,,,,,,,,,,,5.5,2.0,,,,,,,,,
8,,rl_choice,,html-keyboard-response,8,10651099,0.0-1.0-9.0,0,0,37970,,839.0,,,68.0,1.0,1.0,1.0,hard,1500.0,2000.0,1.0,60.0,40.0,80.0,60.0,A,B,/static/Simple_RL/Stimuli/Fractals_stims/A.jpg,/static/Simple_RL/Stimuli/Fractals_stims/B.jpg,,6.339,0.839,1.0,60.0,40.0,80.0,60.0,A,B,0.0,
9,,rl_choice_confirmation,,html-keyboard-response,9,10651764,0.0-1.0-10.0-0.0,0,0,37970,,,,,,1.0,,,,,,,,,,,,,,,,7.0,0.661,,,,,,,,,
10,,isi,,html-keyboard-response,10,10651869,0.0-1.0-12.0,0,0,37970,,,,,,,,,,,,,,,,,,,,,,9.0,2.0,,,,,,,,,
11,,feedback,,html-keyboard-response,11,10652873,0.0-1.0-13.0-0.0,0,0,37970,,,,,,1.0,,,,,,,,,,,,,,,,10.0,1.0,,,,,,,,,
12,,iti,,html-keyboard-response,12,10652974,0.0-1.0-14.0,0,0,37970,,,,,,,,,,,,,,,,,,,,,,11.5,1.5,,,,,,,,,
13,,rl_choice,,html-keyboard-response,13,10653132,0.0-1.0-16.0,0,0,37970,,156.0,,,75.0,2.0,2.0,1.0,hard,1000.0,1000.0,0.0,40.0,60.0,40.0,80.0,B,A,/static/Simple_RL/Stimuli/Fractals_stims/B.jpg,/static/Simple_RL/Stimuli/Fractals_stims/A.jpg,,11.656,0.156,0.0,60.0,40.0,80.0,40.0,A,B,0.0,
14,,rl_choice_confirmation,,html-keyboard-response,14,10654480,0.0-1.0-17.0-0.0,0,0,37970,,,,,,2.0,,,,,,,,,,,,,,,,13.0,1.344,,,,,,,,,
15,,isi,,html-keyboard-response,15,10654585,0.0-1.0-19.0,0,0,37970,,,,,,,,,,,,,,,,,,,,,,14.0,1.0,,,,,,,,,
16,,feedback,,html-keyboard-response,16,10655588,0.0-1.0-20.0-0.0,0,0,37970,,,,,,2.0,,,,,,,,,,,,,,,,15.0,1.0,,,,,,,,,
17,,iti,,html-keyboard-response,17,10655693,0.0-1.0-21.0,0,0,37970,,,,,,,,,,,,,,,,,,,,,,16.0,1.0,,,,,,,,,
18,,rl_choice,,html-keyboard-response,18,10655996,0.0-1.0-23.0,0,0,37970,,301.0,,,75.0,3.0,3.0,1.0,hard,2000.0,1500.0,1.0,60.0,40.0,80.0,60.0,A,B,/static/Simple_RL/Stimuli/Fractals_stims/A.jpg,/static/Simple_RL/Stimuli/Fractals_stims/B.jpg,,16.301,0.301,0.0,40.0,60.0,60.0,80.0,B,A,0.0,
19,,rl_choice_confirmation,,html-keyboard-response,19,10657200,0.0-1.0-24.0-0.0,0,0,37970,,,,,,3.0,,,,,,,,,,,,,,,,17.5,1.199,,,,,,,,,
20,,isi,,html-keyboard-response,20,10657303,0.0-1.0-26.0,0,0,37970,,,,,,,,,,,,,,,,,,,,,,19.0,1.5,,,,,,,,,
21,,feedback,,html-keyboard-response,21,10658308,0.0-1.0-27.0-0.0,0,0,37970,,,,,,3.0,,,,,,,,,,,,,,,,20.0,1.0,,,,,,,,,
22,,iti,,html-keyboard-response,22,10658409,0.0-1.0-28.0,0,0,37970,,,,,,,,,,,,,,,,,,,,,,22.0,2.0,,,,,,,,,
23,,rl_choice,,html-keyboard-response,23,10658731,0.0-1.0-30.0,0,0,37970,,320.0,,,75.0,4.0,4.0,1.0,hard,2000.0,2000.0,0.0,40.0,60.0,40.0,40.0,B,A,/static/Simple_RL/Stimuli/Fractals_stims/B.jpg,/static/Simple_RL/Stimuli/Fractals_stims/A.jpg,,22.32,0.32,0.0,60.0,40.0,40.0,40.0,A,B,0.0,
24,,rl_choice_confirmation,,html-keyboard-response,24,10659916,0.0-1.0-31.0-0.0,0,0,37970,,,,,,4.0,,,,,,,,,,,,,,,,23.5,1.18,,,,,,,,,
25,,isi,,html-keyboard-response,25,10660020,0.0-1.0-33.0,0,0,37970,,,,,,,,,,,,,,,,,,,,,,25.5,2.0,,,,,,,,,
26,,feedback,,html-keyboard-response,26,10661025,0.0-1.0-34.0-0.0,0,0,37970,,,,,,4.0,,,,,,,,,,,,,,,,26.5,1.0,,,,,,,,,
27,,iti,,html-keyboard-response,27,10661127,0.0-1.0-35.0,0,0,37970,,,,,,,,,,,,,,,,,,,,,,28.5,2.0,,,,,,,,,
28,,rl_choice,,html-keyboard-response,28,10661709,0.0-1.0-37.0,0,0,37970,,581.0,,,68.0,5.0,5.0,1.0,easy,1500.0,2000.0,1.0,80.0,20.0,100.0,20.0,C,D,/static/Simple_RL/Stimuli/Fractals_stims/C.jpg,/static/Simple_RL/Stimuli/Fractals_stims/D.jpg,,29.081,0.581,1.0,80.0,20.0,100.0,20.0,C,D,0.0,
29,,rl_choice_confirmation,,html-keyboard-response,29,10662634,0.0-1.0-38.0-0.0,0,0,37970,,,,,,5.0,,,,,,,,,,,,,,,,30.0,0.919,,,,,,,,,
30,,isi,,html-keyboard-response,30,10662741,0.0-1.0-40.0,0,0,37970,,,,,,,,,,,,,,,,,,,,,,32.0,2.0,,,,,,,,,
31,,feedback,,html-keyboard-response,31,10663747,0.0-1.0-41.0-0.0,0,0,37970,,,,,,5.0,,,,,,,,,,,,,,,,33.0,1.0,,,,,,,,,
32,,iti,,html-keyboard-response,32,10663851,0.0-1.0-42.0,0,0,37970,,,,,,,,,,,,,,,,,,,,,,34.5,1.5,,,,,,,,,
33,,rl_choice,,html-keyboard-response,33,10664302,0.0-1.0-44.0,0,0,37970,,447.0,,,68.0,6.0,6.0,1.0,easy,2000.0,1500.0,1.0,80.0,20.0,80.0,20.0,C,D,/static/Simple_RL/Stimuli/Fractals_stims/C.jpg,/static/Simple_RL/Stimuli/Fractals_stims/D.jpg,,34.947,0.447,1.0,80.0,20.0,80.0,20.0,C,D,0.0,
34,,rl_choice_confirmation,,html-keyboard-response,34,10665362,0.0-1.0-45.0-0.0,0,0,37970,,,,,,6.0,,,,,,,,,,,,,,,,36.0,1.053,,,,,,,,,
35,,isi,,html-keyboard-response,35,10665467,0.0-1.0-47.0,0,0,37970,,,,,,,,,,,,,,,,,,,,,,37.5,1.5,,,,,,,,,
36,,feedback,,html-keyboard-response,36,10666473,0.0-1.0-48.0-0.0,0,0,37970,,,,,,6.0,,,,,,,,,,,,,,,,38.5,1.0,,,,,,,,,
37,,iti,,html-keyboard-response,37,10666578,0.0-1.0-49.0,0,0,37970,,,,,,,,,,,,,,,,,,,,,,40.5,2.0,,,,,,,,,
38,,rl_choice,,html-keyboard-response,38,10666948,0.0-1.0-51.0,0,0,37970,,368.0,,,68.0,7.0,7.0,1.0,easy,2000.0,3000.0,1.0,80.0,20.0,60.0,20.0,C,D,/static/Simple_RL/Stimuli/Fractals_stims/C.jpg,/static/Simple_RL/Stimuli/Fractals_stims/D.jpg,,40.868,0.368,1.0,80.0,20.0,60.0,20.0,C,D,0.0,
39,,rl_choice_confirmation,,html-keyboard-response,39,10668083,0.0-1.0-52.0-0.0,0,0,37970,,,,,,7.0,,,,,,,,,,,,,,,,42.0,1.132,,,,,,,,,
40,,isi,,html-keyboard-response,40,10668188,0.0-1.0-54.0,0,0,37970,,,,,,,,,,,,,,,,,,,,,,45.0,3.0,,,,,,,,,
41,,feedback,,html-keyboard-response,41,10669193,0.0-1.0-55.0-0.0,0,0,37970,,,,,,7.0,,,,,,,,,,,,,,,,46.0,1.0,,,,,,,,,
42,,iti,,html-keyboard-response,42,10669297,0.0-1.0-56.0,0,0,37970,,,,,,,,,,,,,,,,,,,,,,48.0,2.0,,,,,,,,,
43,,rl_choice,,html-keyboard-response,43,10669715,0.0-1.0-58.0,0,0,37970,,415.0,,,68.0,8.0,8.0,1.0,easy,1500.0,1000.0,1.0,80.0,20.0,100.0,20.0,C,D,/static/Simple_RL/Stimuli/Fractals_stims/C.jpg,/static/Simple_RL/Stimuli/Fractals_stims/D.jpg,,48.415,0.415,1.0,80.0,20.0,100.0,20.0,C,D,0.0,
44,,rl_choice_confirmation,,html-keyboard-response,44,10670806,0.0-1.0-59.0-0.0,0,0,37970,,,,,,8.0,,,,,,,,,,,,,,,,49.5,1.085,,,,,,,,,
45,,isi,,html-keyboard-response,45,10670910,0.0-1.0-61.0,0,0,37970,,,,,,,,,,,,,,,,,,,,,,50.5,1.0,,,,,,,,,
46,,feedback,,html-keyboard-response,46,10671916,0.0-1.0-62.0-0.0,0,0,37970,,,,,,8.0,,,,,,,,,,,,,,,,51.5,1.0,,,,,,,,,
47,,iti,,html-keyboard-response,47,10672019,0.0-1.0-63.0,0,0,37970,,,,,,,,,,,,,,,,,,,,,,53.0,1.5,,,,,,,,,
48,,rl_choice,,html-keyboard-response,48,10672524,0.0-1.0-65.0,0,0,37970,,503.0,,,68.0,9.0,9.0,1.0,hard,1000.0,1000.0,0.0,40.0,60.0,20.0,40.0,B,A,/static/Simple_RL/Stimuli/Fractals_stims/B.jpg,/static/Simple_RL/Stimuli/Fractals_stims/A.jpg,,53.503,0.503,1.0,40.0,60.0,20.0,40.0,B,A,0.0,
49,,rl_choice_confirmation,,html-keyboard-response,49,10673524,0.0-1.0-66.0-0.0,0,0,37970,,,,,,9.0,,,,,,,,,,,,,,,,54.5,0.997,,,,,,,,,
50,,isi,,html-keyboard-response,50,10673626,0.0-1.0-68.0,0,0,37970,,,,,,,,,,,,,,,,,,,,,,55.5,1.0,,,,,,,,,
51,,feedback,,html-keyboard-response,51,10674633,0.0-1.0-69.0-0.0,0,0,37970,,,,,,9.0,,,,,,,,,,,,,,,,56.5,1.0,,,,,,,,,
52,,iti,,html-keyboard-response,52,10674738,0.0-1.0-70.0,0,0,37970,,,,,,,,,,,,,,,,,,,,,,57.5,1.0,,,,,,,,,
53,,rl_choice,,html-keyboard-response,53,10675430,0.0-1.0-72.0,0,0,37970,,690.0,,,75.0,10.0,10.0,1.0,hard,3500.0,1500.0,0.0,40.0,60.0,40.0,60.0,B,A,/static/Simple_RL/Stimuli/Fractals_stims/B.jpg,/static/Simple_RL/Stimuli/Fractals_stims/A.jpg,,58.19,0.69,0.0,60.0,40.0,60.0,40.0,A,B,0.0,
54,,rl_choice_confirmation,,html-keyboard-response,54,10676242,0.0-1.0-73.0-0.0,0,0,37970,,,,,,10.0,,,,,,,,,,,,,,,,59.0,0.81,,,,,,,,,
55,,isi,,html-keyboard-response,55,10676345,0.0-1.0-75.0,0,0,37970,,,,,,,,,,,,,,,,,,,,,,60.5,1.5,,,,,,,,,
56,,feedback,,html-keyboard-response,56,10677347,0.0-1.0-76.0-0.0,0,0,37970,,,,,,10.0,,,,,,,,,,,,,,,,61.5,1.0,,,,,,,,,
57,,iti,,html-keyboard-response,57,10677451,0.0-1.0-77.0,0,0,37970,,,,,,,,,,,,,,,,,,,,,,65.0,3.5,,,,,,,,,
58,,rl_choice,,html-keyboard-response,58,10677992,0.0-1.0-79.0,0,0,37970,,539.0,,,75.0,11.0,11.0,1.0,easy,1500.0,1500.0,0.0,20.0,80.0,20.0,60.0,D,C,/static/Simple_RL/Stimuli/Fractals_stims/D.jpg,/static/Simple_RL/Stimuli/Fractals_stims/C.jpg,,65.539,0.539,0.0,80.0,20.0,60.0,20.0,C,D,0.0,
59,,rl_choice_confirmation,,html-keyboard-response,59,10678957,0.0-1.0-80.0-0.0,0,0,37970,,,,,,11.0,,,,,,,,,,,,,,,,66.5,0.961,,,,,,,,,
60,,isi,,html-keyboard-response,60,10679063,0.0-1.0-82.0,0,0,37970,,,,,,,,,,,,,,,,,,,,,,68.0,1.5,,,,,,,,,
61,,feedback,,html-keyboard-response,61,10680071,0.0-1.0-83.0-0.0,0,0,37970,,,,,,11.0,,,,,,,,,,,,,,,,69.0,1.0,,,,,,,,,
62,,iti,,html-keyboard-response,62,10680176,0.0-1.0-84.0,0,0,37970,,,,,,,,,,,,,,,,,,,,,,70.5,1.5,,,,,,,,,
63,,rl_choice,,html-keyboard-response,63,10680790,0.0-1.0-86.0,0,0,37970,,612.0,,,68.0,12.0,12.0,1.0,hard,2000.0,1000.0,0.0,40.0,60.0,60.0,80.0,B,A,/static/Simple_RL/Stimuli/Fractals_stims/B.jpg,/static/Simple_RL/Stimuli/Fractals_stims/A.jpg,,71.112,0.612,1.0,40.0,60.0,60.0,80.0,B,A,0.0,
64,,rl_choice_confirmation,,html-keyboard-response,64,10681680,0.0-1.0-87.0-0.0,0,0,37970,,,,,,12.0,,,,,,,,,,,,,,,,72.0,0.888,,,,,,,,,
65,,isi,,html-keyboard-response,65,10681781,0.0-1.0-89.0,0,0,37970,,,,,,,,,,,,,,,,,,,,,,73.0,1.0,,,,,,,,,
66,,feedback,,html-keyboard-response,66,10682785,0.0-1.0-90.0-0.0,0,0,37970,,,,,,12.0,,,,,,,,,,,,,,,,74.0,1.0,,,,,,,,,
67,,iti,,html-keyboard-response,67,10682890,0.0-1.0-91.0,0,0,37970,,,,,,,,,,,,,,,,,,,,,,76.0,2.0,,,,,,,,,
68,,rl_choice,,html-keyboard-response,68,10683280,0.0-1.0-93.0,0,0,37970,,389.0,,,75.0,13.0,13.0,1.0,hard,1000.0,3000.0,1.0,60.0,40.0,60.0,60.0,A,B,/static/Simple_RL/Stimuli/Fractals_stims/A.jpg,/static/Simple_RL/Stimuli/Fractals_stims/B.jpg,,76.389,0.389,0.0,40.0,60.0,60.0,60.0,B,A,0.0,
69,,rl_choice_confirmation,,html-keyboard-response,69,10684396,0.0-1.0-94.0-0.0,0,0,37970,,,,,,13.0,,,,,,,,,,,,,,,,77.5,1.111,,,,,,,,,
70,,isi,,html-keyboard-response,70,10684499,0.0-1.0-96.0,0,0,37970,,,,,,,,,,,,,,,,,,,,,,80.5,3.0,,,,,,,,,
71,,feedback,,html-keyboard-response,71,10685504,0.0-1.0-97.0-0.0,0,0,37970,,,,,,13.0,,,,,,,,,,,,,,,,81.5,1.0,,,,,,,,,
72,,iti,,html-keyboard-response,72,10685612,0.0-1.0-98.0,0,0,37970,,,,,,,,,,,,,,,,,,,,,,82.5,1.0,,,,,,,,,
73,,rl_choice,,html-keyboard-response,73,10686055,0.0-1.0-100.0,0,0,37970,,441.0,,,75.0,14.0,14.0,1.0,hard,3000.0,2000.0,1.0,60.0,40.0,60.0,20.0,A,B,/static/Simple_RL/Stimuli/Fractals_stims/A.jpg,/static/Simple_RL/Stimuli/Fractals_stims/B.jpg,,82.941,0.441,0.0,40.0,60.0,20.0,60.0,B,A,0.0,
74,,rl_choice_confirmation,,html-keyboard-response,74,10687120,0.0-1.0-101.0-0.0,0,0,37970,,,,,,14.0,,,,,,,,,,,,,,,,84.0,1.059,,,,,,,,,
75,,isi,,html-keyboard-response,75,10687224,0.0-1.0-103.0,0,0,37970,,,,,,,,,,,,,,,,,,,,,,86.0,2.0,,,,,,,,,
76,,feedback,,html-keyboard-response,76,10688226,0.0-1.0-104.0-0.0,0,0,37970,,,,,,14.0,,,,,,,,,,,,,,,,87.0,1.0,,,,,,,,,
77,,iti,,html-keyboard-response,77,10688331,0.0-1.0-105.0,0,0,37970,,,,,,,,,,,,,,,,,,,,,,90.0,3.0,,,,,,,,,
78,,rl_choice,,html-keyboard-response,78,10688868,0.0-1.0-107.0,0,0,37970,,535.0,,,75.0,15.0,15.0,1.0,hard,1000.0,1000.0,0.0,40.0,60.0,60.0,80.0,B,A,/static/Simple_RL/Stimuli/Fractals_stims/B.jpg,/static/Simple_RL/Stimuli/Fractals_stims/A.jpg,,90.535,0.535,0.0,60.0,40.0,80.0,60.0,A,B,0.0,
79,,rl_choice_confirmation,,html-keyboard-response,79,10689835,0.0-1.0-108.0-0.0,0,0,37970,,,,,,15.0,,,,,,,,,,,,,,,,91.5,0.965,,,,,,,,,
80,,isi,,html-keyboard-response,80,10689939,0.0-1.0-110.0,0,0,37970,,,,,,,,,,,,,,,,,,,,,,92.5,1.0,,,,,,,,,
81,,feedback,,html-keyboard-response,81,10690946,0.0-1.0-111.0-0.0,0,0,37970,,,,,,15.0,,,,,,,,,,,,,,,,93.5,1.0,,,,,,,,,
82,,iti,,html-keyboard-response,82,10691048,0.0-1.0-112.0,0,0,37970,,,,,,,,,,,,,,,,,,,,,,94.5,1.0,,,,,,,,,
83,,rl_choice,,html-keyboard-response,83,10691813,0.0-1.0-114.0,0,0,37970,,764.0,,,75.0,16.0,16.0,1.0,hard,1000.0,1000.0,1.0,60.0,40.0,60.0,60.0,A,B,/static/Simple_RL/Stimuli/Fractals_stims/A.jpg,/static/Simple_RL/Stimuli/Fractals_stims/B.jpg,,95.264,0.764,0.0,40.0,60.0,60.0,60.0,B,A,0.0,
84,,rl_choice_confirmation,,html-keyboard-response,84,10692555,0.0-1.0-115.0-0.0,0,0,37970,,,,,,16.0,,,,,,,,,,,,,,,,96.0,0.736,,,,,,,,,
85,,isi,,html-keyboard-response,85,10692657,0.0-1.0-117.0,0,0,37970,,,,,,,,,,,,,,,,,,,,,,97.0,1.0,,,,,,,,,
86,,feedback,,html-keyboard-response,86,10693658,0.0-1.0-118.0-0.0,0,0,37970,,,,,,16.0,,,,,,,,,,,,,,,,98.0,1.0,,,,,,,,,
87,,iti,,html-keyboard-response,87,10693760,0.0-1.0-119.0,0,0,37970,,,,,,,,,,,,,,,,,,,,,,99.0,1.0,,,,,,,,,
88,,rl_choice,,html-keyboard-response,88,10694518,0.0-1.0-121.0,0,0,37970,,757.0,,,68.0,17.0,17.0,1.0,easy,1000.0,3000.0,0.0,20.0,80.0,40.0,60.0,D,C,/static/Simple_RL/Stimuli/Fractals_stims/D.jpg,/static/Simple_RL/Stimuli/Fractals_stims/C.jpg,,99.757,0.757,1.0,20.0,80.0,40.0,60.0,D,C,0.0,
89,,rl_choice_confirmation,,html-keyboard-response,89,10695266,0.0-1.0-122.0-0.0,0,0,37970,,,,,,17.0,,,,,,,,,,,,,,,,100.5,0.743,,,,,,,,,
90,,isi,,html-keyboard-response,90,10695369,0.0-1.0-124.0,0,0,37970,,,,,,,,,,,,,,,,,,,,,,103.5,3.0,,,,,,,,,
91,,feedback,,html-keyboard-response,91,10696373,0.0-1.0-125.0-0.0,0,0,37970,,,,,,17.0,,,,,,,,,,,,,,,,104.5,1.0,,,,,,,,,
92,,iti,,html-keyboard-response,92,10696474,0.0-1.0-126.0,0,0,37970,,,,,,,,,,,,,,,,,,,,,,105.5,1.0,,,,,,,,,
93,,rl_choice,,html-keyboard-response,93,10697086,0.0-1.0-128.0,0,0,37970,,610.0,,,68.0,18.0,18.0,1.0,easy,1500.0,1500.0,1.0,80.0,20.0,60.0,20.0,C,D,/static/Simple_RL/Stimuli/Fractals_stims/C.jpg,/static/Simple_RL/Stimuli/Fractals_stims/D.jpg,,106.11,0.61,1.0,80.0,20.0,60.0,20.0,C,D,0.0,
94,,rl_choice_confirmation,,html-keyboard-response,94,10697982,0.0-1.0-129.0-0.0,0,0,37970,,,,,,18.0,,,,,,,,,,,,,,,,107.0,0.89,,,,,,,,,
95,,isi,,html-keyboard-response,95,10698085,0.0-1.0-131.0,0,0,37970,,,,,,,,,,,,,,,,,,,,,,108.5,1.5,,,,,,,,,
96,,feedback,,html-keyboard-response,96,10699088,0.0-1.0-132.0-0.0,0,0,37970,,,,,,18.0,,,,,,,,,,,,,,,,109.5,1.0,,,,,,,,,
97,,iti,,html-keyboard-response,97,10699194,0.0-1.0-133.0,0,0,37970,,,,,,,,,,,,,,,,,,,,,,111.0,1.5,,,,,,,,,
98,,rl_choice,,html-keyboard-response,98,10699909,0.0-1.0-135.0,0,0,37970,,713.0,,,68.0,19.0,19.0,1.0,hard,1500.0,2000.0,1.0,60.0,40.0,60.0,40.0,A,B,/static/Simple_RL/Stimuli/Fractals_stims/A.jpg,/static/Simple_RL/Stimuli/Fractals_stims/B.jpg,,111.713,0.713,1.0,60.0,40.0,60.0,40.0,A,B,0.0,
99,,rl_choice_confirmation,,html-keyboard-response,99,10700699,0.0-1.0-136.0-0.0,0,0,37970,,,,,,19.0,,,,,,,,,,,,,,,,112.5,0.787,,,,,,,,,
100,,isi,,html-keyboard-response,100,10700805,0.0-1.0-138.0,0,0,37970,,,,,,,,,,,,,,,,,,,,,,114.5,2.0,,,,,,,,,
101,,feedback,,html-keyboard-response,101,10701811,0.0-1.0-139.0-0.0,0,0,37970,,,,,,19.0,,,,,,,,,,,,,,,,115.5,1.0,,,,,,,,,
102,,iti,,html-keyboard-response,102,10701913,0.0-1.0-140.0,0,0,37970,,,,,,,,,,,,,,,,,,,,,,117.0,1.5,,,,,,,,,
103,,rl_choice,,html-keyboard-response,103,10702805,0.0-1.0-142.0,0,0,37970,,891.0,,,75.0,20.0,20.0,1.0,easy,1000.0,1000.0,0.0,20.0,80.0,0.0,80.0,D,C,/static/Simple_RL/Stimuli/Fractals_stims/D.jpg,/static/Simple_RL/Stimuli/Fractals_stims/C.jpg,,117.891,0.891,0.0,80.0,20.0,80.0,0.0,C,D,0.0,
104,,rl_choice_confirmation,,html-keyboard-response,104,10703419,0.0-1.0-143.0-0.0,0,0,37970,,,,,,20.0,,,,,,,,,,,,,,,,118.5,0.609,,,,,,,,,
105,,isi,,html-keyboard-response,105,10703521,0.0-1.0-145.0,0,0,37970,,,,,,,,,,,,,,,,,,,,,,119.5,1.0,,,,,,,,,
106,,feedback,,html-keyboard-response,106,10704529,0.0-1.0-146.0-0.0,0,0,37970,,,,,,20.0,,,,,,,,,,,,,,,,120.5,1.0,,,,,,,,,
107,,iti,,html-keyboard-response,107,10704633,0.0-1.0-147.0,0,0,37970,,,,,,,,,,,,,,,,,,,,,,121.5,1.0,,,,,,,,,
108,,rl_choice,,html-keyboard-response,108,10705215,0.0-1.0-149.0,0,0,37970,,580.0,,,68.0,21.0,21.0,1.0,hard,1000.0,1000.0,0.0,40.0,60.0,60.0,80.0,B,A,/static/Simple_RL/Stimuli/Fractals_stims/B.jpg,/static/Simple_RL/Stimuli/Fractals_stims/A.jpg,,122.08,0.58,1.0,40.0,60.0,60.0,80.0,B,A,0.0,
109,,rl_choice_confirmation,,html-keyboard-response,109,10706139,0.0-1.0-150.0-0.0,0,0,37970,,,,,,21.0,,,,,,,,,,,,,,,,123.0,0.92,,,,,,,,,
110,,isi,,html-keyboard-response,110,10706243,0.0-1.0-152.0,0,0,37970,,,,,,,,,,,,,,,,,,,,,,124.0,1.0,,,,,,,,,
111,,feedback,,html-keyboard-response,111,10707245,0.0-1.0-153.0-0.0,0,0,37970,,,,,,21.0,,,,,,,,,,,,,,,,125.0,1.0,,,,,,,,,
112,,iti,,html-keyboard-response,112,10707349,0.0-1.0-154.0,0,0,37970,,,,,,,,,,,,,,,,,,,,,,126.0,1.0,,,,,,,,,
113,,rl_choice,,html-keyboard-response,113,10708034,0.0-1.0-156.0,0,0,37970,,683.0,,,75.0,22.0,22.0,1.0,easy,1000.0,2000.0,0.0,20.0,80.0,20.0,100.0,D,C,/static/Simple_RL/Stimuli/Fractals_stims/D.jpg,/static/Simple_RL/Stimuli/Fractals_stims/C.jpg,,126.683,0.683,0.0,80.0,20.0,100.0,20.0,C,D,0.0,
114,,rl_choice_confirmation,,html-keyboard-response,114,10708859,0.0-1.0-157.0-0.0,0,0,37970,,,,,,22.0,,,,,,,,,,,,,,,,127.5,0.817,,,,,,,,,
115,,isi,,html-keyboard-response,115,10708962,0.0-1.0-159.0,0,0,37970,,,,,,,,,,,,,,,,,,,,,,129.5,2.0,,,,,,,,,
116,,feedback,,html-keyboard-response,116,10709968,0.0-1.0-160.0-0.0,0,0,37970,,,,,,22.0,,,,,,,,,,,,,,,,130.5,1.0,,,,,,,,,
117,,iti,,html-keyboard-response,117,10710070,0.0-1.0-161.0,0,0,37970,,,,,,,,,,,,,,,,,,,,,,131.5,1.0,,,,,,,,,
118,,rl_choice,,html-keyboard-response,118,10710477,0.0-1.0-163.0,0,0,37970,,407.0,,,75.0,23.0,23.0,1.0,hard,1000.0,1500.0,0.0,40.0,60.0,40.0,40.0,B,A,/static/Simple_RL/Stimuli/Fractals_stims/B.jpg,/static/Simple_RL/Stimuli/Fractals_stims/A.jpg,,131.907,0.407,0.0,60.0,40.0,40.0,40.0,A,B,0.0,
119,,rl_choice_confirmation,,html-keyboard-response,119,10711572,0.0-1.0-164.0-0.0,0,0,37970,,,,,,23.0,,,,,,,,,,,,,,,,133.0,1.093,,,,,,,,,
120,,isi,,html-keyboard-response,120,10711673,0.0-1.0-166.0,0,0,37970,,,,,,,,,,,,,,,,,,,,,,134.5,1.5,,,,,,,,,
121,,feedback,,html-keyboard-response,121,10712675,0.0-1.0-167.0-0.0,0,0,37970,,,,,,23.0,,,,,,,,,,,,,,,,135.5,1.0,,,,,,,,,
122,,iti,,html-keyboard-response,122,10712779,0.0-1.0-168.0,0,0,37970,,,,,,,,,,,,,,,,,,,,,,136.5,1.0,,,,,,,,,
123,,rl_choice,,html-keyboard-response,123,10713327,0.0-1.0-170.0,0,0,37970,,546.0,,,75.0,24.0,24.0,1.0,hard,1000.0,1000.0,0.0,40.0,60.0,40.0,60.0,B,A,/static/Simple_RL/Stimuli/Fractals_stims/B.jpg,/static/Simple_RL/Stimuli/Fractals_stims/A.jpg,,137.046,0.546,0.0,60.0,40.0,60.0,40.0,A,B,0.0,
124,,rl_choice_confirmation,,html-keyboard-response,124,10714287,0.0-1.0-171.0-0.0,0,0,37970,,,,,,24.0,,,,,,,,,,,,,,,,138.0,0.954,,,,,,,,,
125,,isi,,html-keyboard-response,125,10714390,0.0-1.0-173.0,0,0,37970,,,,,,,,,,,,,,,,,,,,,,139.0,1.0,,,,,,,,,
126,,feedback,,html-keyboard-response,126,10715394,0.0-1.0-174.0-0.0,0,0,37970,,,,,,24.0,,,,,,,,,,,,,,,,140.0,1.0,,,,,,,,,
127,,iti,,html-keyboard-response,127,10715496,0.0-1.0-175.0,0,0,37970,,,,,,,,,,,,,,,,,,,,,,141.0,1.0,,,,,,,,,
128,,rl_choice,,html-keyboard-response,128,10716230,0.0-1.0-177.0,0,0,37970,,731.0,,,68.0,25.0,25.0,1.0,hard,1500.0,3000.0,1.0,60.0,40.0,40.0,40.0,A,B,/static/Simple_RL/Stimuli/Fractals_stims/A.jpg,/static/Simple_RL/Stimuli/Fractals_stims/B.jpg,,141.731,0.731,1.0,60.0,40.0,40.0,40.0,A,B,0.0,
129,,rl_choice_confirmation,,html-keyboard-response,129,10717008,0.0-1.0-178.0-0.0,0,0,37970,,,,,,25.0,,,,,,,,,,,,,,,,142.5,0.769,,,,,,,,,
130,,isi,,html-keyboard-response,130,10717109,0.0-1.0-180.0,0,0,37970,,,,,,,,,,,,,,,,,,,,,,145.5,3.0,,,,,,,,,
131,,feedback,,html-keyboard-response,131,10718113,0.0-1.0-181.0-0.0,0,0,37970,,,,,,25.0,,,,,,,,,,,,,,,,146.5,1.0,,,,,,,,,
132,,iti,,html-keyboard-response,132,10718214,0.0-1.0-182.0,0,0,37970,,,,,,,,,,,,,,,,,,,,,,148.0,1.5,,,,,,,,,
133,,rl_choice,,html-keyboard-response,133,10718940,0.0-1.0-184.0,0,0,37970,,724.0,,,68.0,26.0,26.0,1.0,easy,3000.0,1000.0,1.0,80.0,20.0,60.0,20.0,C,D,/static/Simple_RL/Stimuli/Fractals_stims/C.jpg,/static/Simple_RL/Stimuli/Fractals_stims/D.jpg,,148.724,0.724,1.0,80.0,20.0,60.0,20.0,C,D,0.0,
134,,rl_choice_confirmation,,html-keyboard-response,134,10719719,0.0-1.0-185.0-0.0,0,0,37970,,,,,,26.0,,,,,,,,,,,,,,,,149.5,0.776,,,,,,,,,
135,,isi,,html-keyboard-response,135,10719822,0.0-1.0-187.0,0,0,37970,,,,,,,,,,,,,,,,,,,,,,150.5,1.0,,,,,,,,,
136,,feedback,,html-keyboard-response,136,10720827,0.0-1.0-188.0-0.0,0,0,37970,,,,,,26.0,,,,,,,,,,,,,,,,151.5,1.0,,,,,,,,,
137,,iti,,html-keyboard-response,137,10720929,0.0-1.0-189.0,0,0,37970,,,,,,,,,,,,,,,,,,,,,,154.5,3.0,,,,,,,,,
138,,rl_choice,,html-keyboard-response,138,10721686,0.0-1.0-191.0,0,0,37970,,756.0,,,68.0,27.0,27.0,1.0,easy,3500.0,2000.0,0.0,20.0,80.0,0.0,100.0,D,C,/static/Simple_RL/Stimuli/Fractals_stims/D.jpg,/static/Simple_RL/Stimuli/Fractals_stims/C.jpg,,155.256,0.756,1.0,20.0,80.0,0.0,100.0,D,C,0.0,
139,,rl_choice_confirmation,,html-keyboard-response,139,10722435,0.0-1.0-192.0-0.0,0,0,37970,,,,,,27.0,,,,,,,,,,,,,,,,156.0,0.744,,,,,,,,,
140,,isi,,html-keyboard-response,140,10722539,0.0-1.0-194.0,0,0,37970,,,,,,,,,,,,,,,,,,,,,,158.0,2.0,,,,,,,,,
141,,feedback,,html-keyboard-response,141,10723545,0.0-1.0-195.0-0.0,0,0,37970,,,,,,27.0,,,,,,,,,,,,,,,,159.0,1.0,,,,,,,,,
142,,iti,,html-keyboard-response,142,10723648,0.0-1.0-196.0,0,0,37970,,,,,,,,,,,,,,,,,,,,,,162.5,3.5,,,,,,,,,
143,,rl_choice,,html-keyboard-response,143,10724623,0.0-1.0-198.0,0,0,37970,,972.0,,,68.0,28.0,28.0,1.0,hard,1500.0,1500.0,0.0,40.0,60.0,60.0,40.0,B,A,/static/Simple_RL/Stimuli/Fractals_stims/B.jpg,/static/Simple_RL/Stimuli/Fractals_stims/A.jpg,,163.472,0.972,1.0,40.0,60.0,60.0,40.0,B,A,0.0,
144,,rl_choice_confirmation,,html-keyboard-response,144,10725158,0.0-1.0-199.0-0.0,0,0,37970,,,,,,28.0,,,,,,,,,,,,,,,,164.0,0.528,,,,,,,,,
145,,isi,,html-keyboard-response,145,10725263,0.0-1.0-201.0,0,0,37970,,,,,,,,,,,,,,,,,,,,,,165.5,1.5,,,,,,,,,
146,,feedback,,html-keyboard-response,146,10726268,0.0-1.0-202.0-0.0,0,0,37970,,,,,,28.0,,,,,,,,,,,,,,,,166.5,1.0,,,,,,,,,
147,,iti,,html-keyboard-response,147,10726370,0.0-1.0-203.0,0,0,37970,,,,,,,,,,,,,,,,,,,,,,168.0,1.5,,,,,,,,,
148,,rl_choice,,html-keyboard-response,148,10727118,0.0-1.0-205.0,0,0,37970,,747.0,,,68.0,29.0,29.0,1.0,easy,1000.0,2000.0,1.0,80.0,20.0,60.0,40.0,C,D,/static/Simple_RL/Stimuli/Fractals_stims/C.jpg,/static/Simple_RL/Stimuli/Fractals_stims/D.jpg,,168.747,0.747,1.0,80.0,20.0,60.0,40.0,C,D,0.0,
149,,rl_choice_confirmation,,html-keyboard-response,149,10727876,0.0-1.0-206.0-0.0,0,0,37970,,,,,,29.0,,,,,,,,,,,,,,,,169.5,0.753,,,,,,,,,
150,,isi,,html-keyboard-response,150,10727980,0.0-1.0-208.0,0,0,37970,,,,,,,,,,,,,,,,,,,,,,171.5,2.0,,,,,,,,,
151,,feedback,,html-keyboard-response,151,10728984,0.0-1.0-209.0-0.0,0,0,37970,,,,,,29.0,,,,,,,,,,,,,,,,172.5,1.0,,,,,,,,,
152,,iti,,html-keyboard-response,152,10729093,0.0-1.0-210.0,0,0,37970,,,,,,,,,,,,,,,,,,,,,,173.5,1.0,,,,,,,,,
153,,rl_choice,,html-keyboard-response,153,10730104,0.0-1.0-212.0,0,0,37970,,1008.0,,,75.0,30.0,30.0,1.0,hard,1500.0,1000.0,0.0,40.0,60.0,20.0,80.0,B,A,/static/Simple_RL/Stimuli/Fractals_stims/B.jpg,/static/Simple_RL/Stimuli/Fractals_stims/A.jpg,,174.508,1.008,0.0,60.0,40.0,80.0,20.0,A,B,0.0,
154,,rl_choice_confirmation,,html-keyboard-response,154,10730601,0.0-1.0-213.0-0.0,0,0,37970,,,,,,30.0,,,,,,,,,,,,,,,,175.0,0.492,,,,,,,,,
155,,isi,,html-keyboard-response,155,10730704,0.0-1.0-215.0,0,0,37970,,,,,,,,,,,,,,,,,,,,,,176.0,1.0,,,,,,,,,
156,,feedback,,html-keyboard-response,156,10731710,0.0-1.0-216.0-0.0,0,0,37970,,,,,,30.0,,,,,,,,,,,,,,,,177.0,1.0,,,,,,,,,
157,,iti,,html-keyboard-response,157,10731813,0.0-1.0-217.0,0,0,37970,,,,,,,,,,,,,,,,,,,,,,178.5,1.5,,,,,,,,,
158,,rl_choice,,html-keyboard-response,158,10732621,0.0-1.0-219.0,0,0,37970,,804.0,,,75.0,31.0,31.0,1.0,easy,3000.0,1500.0,0.0,20.0,80.0,0.0,60.0,D,C,/static/Simple_RL/Stimuli/Fractals_stims/D.jpg,/static/Simple_RL/Stimuli/Fractals_stims/C.jpg,,179.304,0.804,0.0,80.0,20.0,60.0,0.0,C,D,0.0,
159,,rl_choice_confirmation,,html-keyboard-response,159,10733325,0.0-1.0-220.0-0.0,0,0,37970,,,,,,31.0,,,,,,,,,,,,,,,,180.0,0.696,,,,,,,,,
160,,isi,,html-keyboard-response,160,10733431,0.0-1.0-222.0,0,0,37970,,,,,,,,,,,,,,,,,,,,,,181.5,1.5,,,,,,,,,
161,,feedback,,html-keyboard-response,161,10734438,0.0-1.0-223.0-0.0,0,0,37970,,,,,,31.0,,,,,,,,,,,,,,,,182.5,1.0,,,,,,,,,
162,,iti,,html-keyboard-response,162,10734542,0.0-1.0-224.0,0,0,37970,,,,,,,,,,,,,,,,,,,,,,185.5,3.0,,,,,,,,,
163,,rl_choice,,html-keyboard-response,163,10735125,0.0-1.0-226.0,0,0,37970,,581.0,,,75.0,32.0,32.0,1.0,easy,2000.0,1500.0,0.0,20.0,80.0,0.0,100.0,D,C,/static/Simple_RL/Stimuli/Fractals_stims/D.jpg,/static/Simple_RL/Stimuli/Fractals_stims/C.jpg,,186.081,0.581,0.0,80.0,20.0,100.0,0.0,C,D,0.0,
164,,rl_choice_confirmation,,html-keyboard-response,164,10736050,0.0-1.0-227.0-0.0,0,0,37970,,,,,,32.0,,,,,,,,,,,,,,,,187.0,0.919,,,,,,,,,
165,,isi,,html-keyboard-response,165,10736153,0.0-1.0-229.0,0,0,37970,,,,,,,,,,,,,,,,,,,,,,188.5,1.5,,,,,,,,,
166,,feedback,,html-keyboard-response,166,10737159,0.0-1.0-230.0-0.0,0,0,37970,,,,,,32.0,,,,,,,,,,,,,,,,189.5,1.0,,,,,,,,,
167,,iti,,html-keyboard-response,167,10737262,0.0-1.0-231.0,0,0,37970,,,,,,,,,,,,,,,,,,,,,,191.5,2.0,,,,,,,,,
168,,rl_choice,,html-keyboard-response,168,10737910,0.0-1.0-233.0,0,0,37970,,647.0,,,68.0,33.0,33.0,1.0,hard,3000.0,3500.0,1.0,60.0,40.0,60.0,20.0,A,B,/static/Simple_RL/Stimuli/Fractals_stims/A.jpg,/static/Simple_RL/Stimuli/Fractals_stims/B.jpg,,192.147,0.647,1.0,60.0,40.0,60.0,20.0,A,B,0.0,
169,,rl_choice_confirmation,,html-keyboard-response,169,10738768,0.0-1.0-234.0-0.0,0,0,37970,,,,,,33.0,,,,,,,,,,,,,,,,193.0,0.853,,,,,,,,,
170,,isi,,html-keyboard-response,170,10738872,0.0-1.0-236.0,0,0,37970,,,,,,,,,,,,,,,,,,,,,,196.5,3.5,,,,,,,,,
171,,feedback,,html-keyboard-response,171,10739876,0.0-1.0-237.0-0.0,0,0,37970,,,,,,33.0,,,,,,,,,,,,,,,,197.5,1.0,,,,,,,,,
172,,iti,,html-keyboard-response,172,10739979,0.0-1.0-238.0,0,0,37970,,,,,,,,,,,,,,,,,,,,,,200.5,3.0,,,,,,,,,
173,,rl_choice,,html-keyboard-response,173,10740690,0.0-1.0-240.0,0,0,37970,,709.0,,,75.0,34.0,34.0,1.0,easy,1000.0,1000.0,0.0,20.0,80.0,40.0,80.0,D,C,/static/Simple_RL/Stimuli/Fractals_stims/D.jpg,/static/Simple_RL/Stimuli/Fractals_stims/C.jpg,,201.209,0.709,0.0,80.0,20.0,80.0,40.0,C,D,0.0,
174,,rl_choice_confirmation,,html-keyboard-response,174,10741487,0.0-1.0-241.0-0.0,0,0,37970,,,,,,34.0,,,,,,,,,,,,,,,,202.0,0.791,,,,,,,,,
175,,isi,,html-keyboard-response,175,10741590,0.0-1.0-243.0,0,0,37970,,,,,,,,,,,,,,,,,,,,,,203.0,1.0,,,,,,,,,
176,,feedback,,html-keyboard-response,176,10742593,0.0-1.0-244.0-0.0,0,0,37970,,,,,,34.0,,,,,,,,,,,,,,,,204.0,1.0,,,,,,,,,
177,,iti,,html-keyboard-response,177,10742700,0.0-1.0-245.0,0,0,37970,,,,,,,,,,,,,,,,,,,,,,205.0,1.0,,,,,,,,,
178,,rl_choice,,html-keyboard-response,178,10743286,0.0-1.0-247.0,0,0,37970,,584.0,,,68.0,35.0,35.0,1.0,easy,1500.0,1000.0,1.0,80.0,20.0,80.0,0.0,C,D,/static/Simple_RL/Stimuli/Fractals_stims/C.jpg,/static/Simple_RL/Stimuli/Fractals_stims/D.jpg,,205.584,0.584,1.0,80.0,20.0,80.0,0.0,C,D,0.0,
179,,rl_choice_confirmation,,html-keyboard-response,179,10744204,0.0-1.0-248.0-0.0,0,0,37970,,,,,,35.0,,,,,,,,,,,,,,,,206.5,0.916,,,,,,,,,
180,,isi,,html-keyboard-response,180,10744310,0.0-1.0-250.0,0,0,37970,,,,,,,,,,,,,,,,,,,,,,207.5,1.0,,,,,,,,,
181,,feedback,,html-keyboard-response,181,10745314,0.0-1.0-251.0-0.0,0,0,37970,,,,,,35.0,,,,,,,,,,,,,,,,208.5,1.0,,,,,,,,,
182,,iti,,html-keyboard-response,182,10745420,0.0-1.0-252.0,0,0,37970,,,,,,,,,,,,,,,,,,,,,,210.0,1.5,,,,,,,,,
183,,rl_choice,,html-keyboard-response,183,10746002,0.0-1.0-254.0,0,0,37970,,580.0,,,75.0,36.0,36.0,1.0,easy,1000.0,3500.0,0.0,20.0,80.0,0.0,60.0,D,C,/static/Simple_RL/Stimuli/Fractals_stims/D.jpg,/static/Simple_RL/Stimuli/Fractals_stims/C.jpg,,210.58,0.58,0.0,80.0,20.0,60.0,0.0,C,D,0.0,
184,,rl_choice_confirmation,,html-keyboard-response,184,10746928,0.0-1.0-255.0-0.0,0,0,37970,,,,,,36.0,,,,,,,,,,,,,,,,211.5,0.92,,,,,,,,,
185,,isi,,html-keyboard-response,185,10747033,0.0-1.0-257.0,0,0,37970,,,,,,,,,,,,,,,,,,,,,,215.0,3.5,,,,,,,,,
186,,feedback,,html-keyboard-response,186,10748042,0.0-1.0-258.0-0.0,0,0,37970,,,,,,36.0,,,,,,,,,,,,,,,,216.0,1.0,,,,,,,,,
187,,iti,,html-keyboard-response,187,10748148,0.0-1.0-259.0,0,0,37970,,,,,,,,,,,,,,,,,,,,,,217.0,1.0,,,,,,,,,
188,,rl_choice,,html-keyboard-response,188,10748655,0.0-1.0-261.0,0,0,37970,,505.0,,,75.0,37.0,37.0,1.0,easy,1000.0,1000.0,0.0,20.0,80.0,40.0,60.0,D,C,/static/Simple_RL/Stimuli/Fractals_stims/D.jpg,/static/Simple_RL/Stimuli/Fractals_stims/C.jpg,,217.505,0.505,0.0,80.0,20.0,60.0,40.0,C,D,0.0,
189,,rl_choice_confirmation,,html-keyboard-response,189,10749652,0.0-1.0-262.0-0.0,0,0,37970,,,,,,37.0,,,,,,,,,,,,,,,,218.5,0.995,,,,,,,,,
190,,isi,,html-keyboard-response,190,10749757,0.0-1.0-264.0,0,0,37970,,,,,,,,,,,,,,,,,,,,,,219.5,1.0,,,,,,,,,
191,,feedback,,html-keyboard-response,191,10750761,0.0-1.0-265.0-0.0,0,0,37970,,,,,,37.0,,,,,,,,,,,,,,,,220.5,1.0,,,,,,,,,
192,,iti,,html-keyboard-response,192,10750862,0.0-1.0-266.0,0,0,37970,,,,,,,,,,,,,,,,,,,,,,221.5,1.0,,,,,,,,,
193,,rl_choice,,html-keyboard-response,193,10751454,0.0-1.0-268.0,0,0,37970,,590.0,,,68.0,38.0,38.0,1.0,hard,2000.0,1500.0,1.0,60.0,40.0,60.0,20.0,A,B,/static/Simple_RL/Stimuli/Fractals_stims/A.jpg,/static/Simple_RL/Stimuli/Fractals_stims/B.jpg,,222.09,0.59,1.0,60.0,40.0,60.0,20.0,A,B,0.0,
194,,rl_choice_confirmation,,html-keyboard-response,194,10752370,0.0-1.0-269.0-0.0,0,0,37970,,,,,,38.0,,,,,,,,,,,,,,,,223.0,0.91,,,,,,,,,
195,,isi,,html-keyboard-response,195,10752476,0.0-1.0-271.0,0,0,37970,,,,,,,,,,,,,,,,,,,,,,224.5,1.5,,,,,,,,,
196,,feedback,,html-keyboard-response,196,10753480,0.0-1.0-272.0-0.0,0,0,37970,,,,,,38.0,,,,,,,,,,,,,,,,225.5,1.0,,,,,,,,,
197,,iti,,html-keyboard-response,197,10753586,0.0-1.0-273.0,0,0,37970,,,,,,,,,,,,,,,,,,,,,,227.5,2.0,,,,,,,,,
198,,rl_choice,,html-keyboard-response,198,10754127,0.0-1.0-275.0,0,0,37970,,538.0,,,68.0,39.0,39.0,1.0,easy,1000.0,1000.0,1.0,80.0,20.0,60.0,0.0,C,D,/static/Simple_RL/Stimuli/Fractals_stims/C.jpg,/static/Simple_RL/Stimuli/Fractals_stims/D.jpg,,228.038,0.538,1.0,80.0,20.0,60.0,0.0,C,D,0.0,
199,,rl_choice_confirmation,,html-keyboard-response,199,10755092,0.0-1.0-276.0-0.0,0,0,37970,,,,,,39.0,,,,,,,,,,,,,,,,229.0,0.962,,,,,,,,,
200,,isi,,html-keyboard-response,200,10755197,0.0-1.0-278.0,0,0,37970,,,,,,,,,,,,,,,,,,,,,,230.0,1.0,,,,,,,,,
201,,feedback,,html-keyboard-response,201,10756203,0.0-1.0-279.0-0.0,0,0,37970,,,,,,39.0,,,,,,,,,,,,,,,,231.0,1.0,,,,,,,,,
202,,iti,,html-keyboard-response,202,10756307,0.0-1.0-280.0,0,0,37970,,,,,,,,,,,,,,,,,,,,,,232.0,1.0,,,,,,,,,
203,,block_over,,html-keyboard-response,203,10760831,0.0-1.0-281.0-0.0,0,0,37970,,4491.0,,,68.0,39.0,,,,,,,,,,,,,,,,,,,,,,,,,,
204,,start_run,,html-keyboard-response,204,10764355,0.0-1.0-281.0-1.0,0,0,37970,,3524.0,,,84.0,,,,,,,,,,,,,,,,,,,,,,,,,,,
205,,rl_choice,,html-keyboard-response,205,10764967,0.0-1.0-282.0,0,0,37970,,610.0,,,75.0,40.0,40.0,2.0,easy,1500.0,1000.0,1.0,80.0,20.0,80.0,20.0,C,D,/static/Simple_RL/Stimuli/Fractals_stims/C.jpg,/static/Simple_RL/Stimuli/Fractals_stims/D.jpg,,0.61,0.61,0.0,20.0,80.0,20.0,80.0,D,C,0.0,
206,,rl_choice_confirmation,,html-keyboard-response,206,10765864,0.0-1.0-283.0-0.0,0,0,37970,,,,,,40.0,,,,,,,,,,,,,,,,1.5,0.89,,,,,,,,,
207,,isi,,html-keyboard-response,207,10765965,0.0-1.0-285.0,0,0,37970,,,,,,,,,,,,,,,,,,,,,,2.5,1.0,,,,,,,,,
208,,feedback,,html-keyboard-response,208,10766967,0.0-1.0-286.0-0.0,0,0,37970,,,,,,40.0,,,,,,,,,,,,,,,,3.5,1.0,,,,,,,,,
209,,iti,,html-keyboard-response,209,10767069,0.0-1.0-287.0,0,0,37970,,,,,,,,,,,,,,,,,,,,,,5.0,1.5,,,,,,,,,
210,,rl_choice,,html-keyboard-response,210,10767294,0.0-1.0-289.0,0,0,37970,,223.0,,,68.0,41.0,41.0,2.0,hard,2000.0,1000.0,1.0,60.0,40.0,60.0,20.0,A,B,/static/Simple_RL/Stimuli/Fractals_stims/A.jpg,/static/Simple_RL/Stimuli/Fractals_stims/B.jpg,,5.223,0.223,1.0,60.0,40.0,60.0,20.0,A,B,0.0,
211,,rl_choice_confirmation,,html-keyboard-response,211,10768578,0.0-1.0-290.0-0.0,0,0,37970,,,,,,41.0,,,,,,,,,,,,,,,,6.5,1.277,,,,,,,,,
212,,isi,,html-keyboard-response,212,10768682,0.0-1.0-292.0,0,0,37970,,,,,,,,,,,,,,,,,,,,,,7.5,1.0,,,,,,,,,
213,,feedback,,html-keyboard-response,213,10769688,0.0-1.0-293.0-0.0,0,0,37970,,,,,,41.0,,,,,,,,,,,,,,,,8.5,1.0,,,,,,,,,
214,,iti,,html-keyboard-response,214,10769791,0.0-1.0-294.0,0,0,37970,,,,,,,,,,,,,,,,,,,,,,10.5,2.0,,,,,,,,,
215,,rl_choice,,html-keyboard-response,215,10770055,0.0-1.0-296.0,0,0,37970,,262.0,,,68.0,42.0,42.0,2.0,hard,1000.0,1000.0,0.0,40.0,60.0,20.0,60.0,B,A,/static/Simple_RL/Stimuli/Fractals_stims/B.jpg,/static/Simple_RL/Stimuli/Fractals_stims/A.jpg,,10.762,0.262,1.0,40.0,60.0,20.0,60.0,B,A,0.0,
216,,rl_choice_confirmation,,html-keyboard-response,216,10771297,0.0-1.0-297.0-0.0,0,0,37970,,,,,,42.0,,,,,,,,,,,,,,,,12.0,1.238,,,,,,,,,
217,,isi,,html-keyboard-response,217,10771400,0.0-1.0-299.0,0,0,37970,,,,,,,,,,,,,,,,,,,,,,13.0,1.0,,,,,,,,,
218,,feedback,,html-keyboard-response,218,10772403,0.0-1.0-300.0-0.0,0,0,37970,,,,,,42.0,,,,,,,,,,,,,,,,14.0,1.0,,,,,,,,,
219,,iti,,html-keyboard-response,219,10772505,0.0-1.0-301.0,0,0,37970,,,,,,,,,,,,,,,,,,,,,,15.0,1.0,,,,,,,,,
220,,rl_choice,,html-keyboard-response,220,10772708,0.0-1.0-303.0,0,0,37970,,201.0,,,68.0,43.0,43.0,2.0,easy,1500.0,1500.0,1.0,80.0,20.0,100.0,40.0,C,D,/static/Simple_RL/Stimuli/Fractals_stims/C.jpg,/static/Simple_RL/Stimuli/Fractals_stims/D.jpg,,15.201,0.201,1.0,80.0,20.0,100.0,40.0,C,D,0.0,
221,,rl_choice_confirmation,,html-keyboard-response,221,10774010,0.0-1.0-304.0-0.0,0,0,37970,,,,,,43.0,,,,,,,,,,,,,,,,16.5,1.299,,,,,,,,,
222,,isi,,html-keyboard-response,222,10774112,0.0-1.0-306.0,0,0,37970,,,,,,,,,,,,,,,,,,,,,,18.0,1.5,,,,,,,,,
223,,feedback,,html-keyboard-response,223,10775119,0.0-1.0-307.0-0.0,0,0,37970,,,,,,43.0,,,,,,,,,,,,,,,,19.0,1.0,,,,,,,,,
224,,iti,,html-keyboard-response,224,10775221,0.0-1.0-308.0,0,0,37970,,,,,,,,,,,,,,,,,,,,,,20.5,1.5,,,,,,,,,
225,,rl_choice,,html-keyboard-response,225,10775719,0.0-1.0-310.0,0,0,37970,,496.0,,,68.0,44.0,44.0,2.0,easy,2000.0,1000.0,0.0,20.0,80.0,20.0,80.0,D,C,/static/Simple_RL/Stimuli/Fractals_stims/D.jpg,/static/Simple_RL/Stimuli/Fractals_stims/C.jpg,,20.996,0.496,1.0,20.0,80.0,20.0,80.0,D,C,0.0,
226,,rl_choice_confirmation,,html-keyboard-response,226,10776729,0.0-1.0-311.0-0.0,0,0,37970,,,,,,44.0,,,,,,,,,,,,,,,,22.0,1.004,,,,,,,,,
227,,isi,,html-keyboard-response,227,10776832,0.0-1.0-313.0,0,0,37970,,,,,,,,,,,,,,,,,,,,,,23.0,1.0,,,,,,,,,
228,,feedback,,html-keyboard-response,228,10777836,0.0-1.0-314.0-0.0,0,0,37970,,,,,,44.0,,,,,,,,,,,,,,,,24.0,1.0,,,,,,,,,
229,,iti,,html-keyboard-response,229,10777941,0.0-1.0-315.0,0,0,37970,,,,,,,,,,,,,,,,,,,,,,26.0,2.0,,,,,,,,,
230,,rl_choice,,html-keyboard-response,230,10778147,0.0-1.0-317.0,0,0,37970,,206.0,,,68.0,45.0,45.0,2.0,easy,1000.0,1500.0,0.0,20.0,80.0,0.0,80.0,D,C,/static/Simple_RL/Stimuli/Fractals_stims/D.jpg,/static/Simple_RL/Stimuli/Fractals_stims/C.jpg,,26.206,0.206,1.0,20.0,80.0,0.0,80.0,D,C,0.0,
231,,rl_choice_confirmation,,html-keyboard-response,231,10779447,0.0-1.0-318.0-0.0,0,0,37970,,,,,,45.0,,,,,,,,,,,,,,,,27.5,1.294,,,,,,,,,
232,,isi,,html-keyboard-response,232,10779549,0.0-1.0-320.0,0,0,37970,,,,,,,,,,,,,,,,,,,,,,29.0,1.5,,,,,,,,,
233,,feedback,,html-keyboard-response,233,10780553,0.0-1.0-321.0-0.0,0,0,37970,,,,,,45.0,,,,,,,,,,,,,,,,30.0,1.0,,,,,,,,,
234,,iti,,html-keyboard-response,234,10780656,0.0-1.0-322.0,0,0,37970,,,,,,,,,,,,,,,,,,,,,,31.0,1.0,,,,,,,,,
235,,rl_choice,,html-keyboard-response,235,10780815,0.0-1.0-324.0,0,0,37970,,157.0,,,68.0,46.0,46.0,2.0,hard,1500.0,1000.0,1.0,60.0,40.0,40.0,40.0,A,B,/static/Simple_RL/Stimuli/Fractals_stims/A.jpg,/static/Simple_RL/Stimuli/Fractals_stims/B.jpg,,31.157,0.157,1.0,60.0,40.0,40.0,40.0,A,B,0.0,
236,,rl_choice_confirmation,,html-keyboard-response,236,10782163,0.0-1.0-325.0-0.0,0,0,37970,,,,,,46.0,,,,,,,,,,,,,,,,32.5,1.343,,,,,,,,,
237,,isi,,html-keyboard-response,237,10782267,0.0-1.0-327.0,0,0,37970,,,,,,,,,,,,,,,,,,,,,,33.5,1.0,,,,,,,,,
238,,feedback,,html-keyboard-response,238,10783269,0.0-1.0-328.0-0.0,0,0,37970,,,,,,46.0,,,,,,,,,,,,,,,,34.5,1.0,,,,,,,,,
239,,iti,,html-keyboard-response,239,10783370,0.0-1.0-329.0,0,0,37970,,,,,,,,,,,,,,,,,,,,,,36.0,1.5,,,,,,,,,
240,,rl_choice,,html-keyboard-response,240,10783598,0.0-1.0-331.0,0,0,37970,,226.0,,,68.0,47.0,47.0,2.0,easy,3000.0,1000.0,0.0,20.0,80.0,40.0,100.0,D,C,/static/Simple_RL/Stimuli/Fractals_stims/D.jpg,/static/Simple_RL/Stimuli/Fractals_stims/C.jpg,,36.226,0.226,1.0,20.0,80.0,40.0,100.0,D,C,0.0,
241,,rl_choice_confirmation,,html-keyboard-response,241,10784877,0.0-1.0-332.0-0.0,0,0,37970,,,,,,47.0,,,,,,,,,,,,,,,,37.5,1.274,,,,,,,,,
242,,isi,,html-keyboard-response,242,10784981,0.0-1.0-334.0,0,0,37970,,,,,,,,,,,,,,,,,,,,,,38.5,1.0,,,,,,,,,
243,,feedback,,html-keyboard-response,243,10785987,0.0-1.0-335.0-0.0,0,0,37970,,,,,,47.0,,,,,,,,,,,,,,,,39.5,1.0,,,,,,,,,
244,,iti,,html-keyboard-response,244,10786089,0.0-1.0-336.0,0,0,37970,,,,,,,,,,,,,,,,,,,,,,42.5,3.0,,,,,,,,,
245,,rl_choice,,html-keyboard-response,245,10787118,0.0-1.0-338.0,0,0,37970,,1027.0,,,68.0,48.0,48.0,2.0,hard,1500.0,1500.0,1.0,60.0,40.0,80.0,20.0,A,B,/static/Simple_RL/Stimuli/Fractals_stims/A.jpg,/static/Simple_RL/Stimuli/Fractals_stims/B.jpg,,43.527,1.027,1.0,60.0,40.0,80.0,20.0,A,B,0.0,
246,,rl_choice_confirmation,,html-keyboard-response,246,10787595,0.0-1.0-339.0-0.0,0,0,37970,,,,,,48.0,,,,,,,,,,,,,,,,44.0,0.473,,,,,,,,,
247,,isi,,html-keyboard-response,247,10787699,0.0-1.0-341.0,0,0,37970,,,,,,,,,,,,,,,,,,,,,,45.5,1.5,,,,,,,,,
248,,feedback,,html-keyboard-response,248,10788705,0.0-1.0-342.0-0.0,0,0,37970,,,,,,48.0,,,,,,,,,,,,,,,,46.5,1.0,,,,,,,,,
249,,iti,,html-keyboard-response,249,10788811,0.0-1.0-343.0,0,0,37970,,,,,,,,,,,,,,,,,,,,,,48.0,1.5,,,,,,,,,
250,,rl_choice,,html-keyboard-response,250,10789052,0.0-1.0-345.0,0,0,37970,,239.0,,,68.0,49.0,49.0,2.0,easy,3500.0,1000.0,1.0,80.0,20.0,100.0,20.0,C,D,/static/Simple_RL/Stimuli/Fractals_stims/C.jpg,/static/Simple_RL/Stimuli/Fractals_stims/D.jpg,,48.239,0.239,1.0,80.0,20.0,100.0,20.0,C,D,0.0,
251,,rl_choice_confirmation,,html-keyboard-response,251,10790314,0.0-1.0-346.0-0.0,0,0,37970,,,,,,49.0,,,,,,,,,,,,,,,,49.5,1.261,,,,,,,,,
252,,isi,,html-keyboard-response,252,10790421,0.0-1.0-348.0,0,0,37970,,,,,,,,,,,,,,,,,,,,,,50.5,1.0,,,,,,,,,
253,,feedback,,html-keyboard-response,253,10791426,0.0-1.0-349.0-0.0,0,0,37970,,,,,,49.0,,,,,,,,,,,,,,,,51.5,1.0,,,,,,,,,
254,,iti,,html-keyboard-response,254,10791530,0.0-1.0-350.0,0,0,37970,,,,,,,,,,,,,,,,,,,,,,55.0,3.5,,,,,,,,,
255,,rl_choice,,html-keyboard-response,255,10791666,0.0-1.0-352.0,0,0,37970,,134.0,,,68.0,50.0,50.0,2.0,hard,1000.0,2000.0,0.0,40.0,60.0,40.0,80.0,B,A,/static/Simple_RL/Stimuli/Fractals_stims/B.jpg,/static/Simple_RL/Stimuli/Fractals_stims/A.jpg,,55.134,0.134,1.0,40.0,60.0,40.0,80.0,B,A,0.0,
256,,rl_choice_confirmation,,html-keyboard-response,256,10793038,0.0-1.0-353.0-0.0,0,0,37970,,,,,,50.0,,,,,,,,,,,,,,,,56.5,1.366,,,,,,,,,
257,,isi,,html-keyboard-response,257,10793144,0.0-1.0-355.0,0,0,37970,,,,,,,,,,,,,,,,,,,,,,58.5,2.0,,,,,,,,,
258,,feedback,,html-keyboard-response,258,10794150,0.0-1.0-356.0-0.0,0,0,37970,,,,,,50.0,,,,,,,,,,,,,,,,59.5,1.0,,,,,,,,,
259,,iti,,html-keyboard-response,259,10794257,0.0-1.0-357.0,0,0,37970,,,,,,,,,,,,,,,,,,,,,,60.5,1.0,,,,,,,,,
260,,rl_choice,,html-keyboard-response,260,10794589,0.0-1.0-359.0,0,0,37970,,330.0,,,68.0,51.0,51.0,2.0,easy,1000.0,1000.0,1.0,80.0,20.0,80.0,40.0,C,D,/static/Simple_RL/Stimuli/Fractals_stims/C.jpg,/static/Simple_RL/Stimuli/Fractals_stims/D.jpg,,60.83,0.33,1.0,80.0,20.0,80.0,40.0,C,D,0.0,
261,,rl_choice_confirmation,,html-keyboard-response,261,10795765,0.0-1.0-360.0-0.0,0,0,37970,,,,,,51.0,,,,,,,,,,,,,,,,62.0,1.17,,,,,,,,,
262,,isi,,html-keyboard-response,262,10795870,0.0-1.0-362.0,0,0,37970,,,,,,,,,,,,,,,,,,,,,,63.0,1.0,,,,,,,,,
263,,feedback,,html-keyboard-response,263,10796877,0.0-1.0-363.0-0.0,0,0,37970,,,,,,51.0,,,,,,,,,,,,,,,,64.0,1.0,,,,,,,,,
264,,iti,,html-keyboard-response,264,10796982,0.0-1.0-364.0,0,0,37970,,,,,,,,,,,,,,,,,,,,,,65.0,1.0,,,,,,,,,
265,,rl_choice,,html-keyboard-response,265,10797236,0.0-1.0-366.0,0,0,37970,,253.0,,,68.0,52.0,52.0,2.0,easy,1000.0,1500.0,0.0,20.0,80.0,20.0,80.0,D,C,/static/Simple_RL/Stimuli/Fractals_stims/D.jpg,/static/Simple_RL/Stimuli/Fractals_stims/C.jpg,,65.253,0.253,1.0,20.0,80.0,20.0,80.0,D,C,0.0,
266,,rl_choice_confirmation,,html-keyboard-response,266,10798485,0.0-1.0-367.0-0.0,0,0,37970,,,,,,52.0,,,,,,,,,,,,,,,,66.5,1.247,,,,,,,,,
267,,isi,,html-keyboard-response,267,10798587,0.0-1.0-369.0,0,0,37970,,,,,,,,,,,,,,,,,,,,,,68.0,1.5,,,,,,,,,
268,,feedback,,html-keyboard-response,268,10799593,0.0-1.0-370.0-0.0,0,0,37970,,,,,,52.0,,,,,,,,,,,,,,,,69.0,1.0,,,,,,,,,
269,,iti,,html-keyboard-response,269,10799697,0.0-1.0-371.0,0,0,37970,,,,,,,,,,,,,,,,,,,,,,70.0,1.0,,,,,,,,,
270,,rl_choice,,html-keyboard-response,270,10800116,0.0-1.0-373.0,0,0,37970,,416.0,,,75.0,53.0,53.0,2.0,hard,1000.0,2000.0,0.0,40.0,60.0,20.0,40.0,B,A,/static/Simple_RL/Stimuli/Fractals_stims/B.jpg,/static/Simple_RL/Stimuli/Fractals_stims/A.jpg,,70.416,0.416,0.0,60.0,40.0,40.0,20.0,A,B,0.0,
271,,rl_choice_confirmation,,html-keyboard-response,271,10801205,0.0-1.0-374.0-0.0,0,0,37970,,,,,,53.0,,,,,,,,,,,,,,,,71.5,1.084,,,,,,,,,
272,,isi,,html-keyboard-response,272,10801310,0.0-1.0-376.0,0,0,37970,,,,,,,,,,,,,,,,,,,,,,73.5,2.0,,,,,,,,,
273,,feedback,,html-keyboard-response,273,10802312,0.0-1.0-377.0-0.0,0,0,37970,,,,,,53.0,,,,,,,,,,,,,,,,74.5,1.0,,,,,,,,,
274,,iti,,html-keyboard-response,274,10802416,0.0-1.0-378.0,0,0,37970,,,,,,,,,,,,,,,,,,,,,,75.5,1.0,,,,,,,,,
275,,rl_choice,,html-keyboard-response,275,10802739,0.0-1.0-380.0,0,0,37970,,322.0,,,75.0,54.0,54.0,2.0,hard,1000.0,1000.0,1.0,60.0,40.0,40.0,20.0,A,B,/static/Simple_RL/Stimuli/Fractals_stims/A.jpg,/static/Simple_RL/Stimuli/Fractals_stims/B.jpg,,75.822,0.322,0.0,40.0,60.0,20.0,40.0,B,A,0.0,
276,,rl_choice_confirmation,,html-keyboard-response,276,10803923,0.0-1.0-381.0-0.0,0,0,37970,,,,,,54.0,,,,,,,,,,,,,,,,77.0,1.178,,,,,,,,,
277,,isi,,html-keyboard-response,277,10804029,0.0-1.0-383.0,0,0,37970,,,,,,,,,,,,,,,,,,,,,,78.0,1.0,,,,,,,,,
278,,feedback,,html-keyboard-response,278,10805036,0.0-1.0-384.0-0.0,0,0,37970,,,,,,54.0,,,,,,,,,,,,,,,,79.0,1.0,,,,,,,,,
279,,iti,,html-keyboard-response,279,10805142,0.0-1.0-385.0,0,0,37970,,,,,,,,,,,,,,,,,,,,,,80.0,1.0,,,,,,,,,
280,,rl_choice,,html-keyboard-response,280,10805323,0.0-1.0-387.0,0,0,37970,,179.0,,,75.0,55.0,55.0,2.0,easy,2000.0,3000.0,0.0,20.0,80.0,0.0,80.0,D,C,/static/Simple_RL/Stimuli/Fractals_stims/D.jpg,/static/Simple_RL/Stimuli/Fractals_stims/C.jpg,,80.179,0.179,0.0,80.0,20.0,80.0,0.0,C,D,0.0,
281,,rl_choice_confirmation,,html-keyboard-response,281,10806651,0.0-1.0-388.0-0.0,0,0,37970,,,,,,55.0,,,,,,,,,,,,,,,,81.5,1.321,,,,,,,,,
282,,isi,,html-keyboard-response,282,10806757,0.0-1.0-390.0,0,0,37970,,,,,,,,,,,,,,,,,,,,,,84.5,3.0,,,,,,,,,
283,,feedback,,html-keyboard-response,283,10807763,0.0-1.0-391.0-0.0,0,0,37970,,,,,,55.0,,,,,,,,,,,,,,,,85.5,1.0,,,,,,,,,
284,,iti,,html-keyboard-response,284,10807868,0.0-1.0-392.0,0,0,37970,,,,,,,,,,,,,,,,,,,,,,87.5,2.0,,,,,,,,,
285,,rl_choice,,html-keyboard-response,285,10808132,0.0-1.0-394.0,0,0,37970,,261.0,,,68.0,56.0,56.0,2.0,hard,3000.0,3000.0,0.0,40.0,60.0,40.0,60.0,B,A,/static/Simple_RL/Stimuli/Fractals_stims/B.jpg,/static/Simple_RL/Stimuli/Fractals_stims/A.jpg,,87.761,0.261,1.0,40.0,60.0,40.0,60.0,B,A,0.0,
286,,rl_choice_confirmation,,html-keyboard-response,286,10809375,0.0-1.0-395.0-0.0,0,0,37970,,,,,,56.0,,,,,,,,,,,,,,,,89.0,1.239,,,,,,,,,
287,,isi,,html-keyboard-response,287,10809480,0.0-1.0-397.0,0,0,37970,,,,,,,,,,,,,,,,,,,,,,92.0,3.0,,,,,,,,,
288,,feedback,,html-keyboard-response,288,10810484,0.0-1.0-398.0-0.0,0,0,37970,,,,,,56.0,,,,,,,,,,,,,,,,93.0,1.0,,,,,,,,,
289,,iti,,html-keyboard-response,289,10810587,0.0-1.0-399.0,0,0,37970,,,,,,,,,,,,,,,,,,,,,,96.0,3.0,,,,,,,,,
290,,rl_choice,,html-keyboard-response,290,10810749,0.0-1.0-401.0,0,0,37970,,159.0,,,75.0,57.0,57.0,2.0,easy,1000.0,2000.0,1.0,80.0,20.0,80.0,40.0,C,D,/static/Simple_RL/Stimuli/Fractals_stims/C.jpg,/static/Simple_RL/Stimuli/Fractals_stims/D.jpg,,96.159,0.159,0.0,20.0,80.0,40.0,80.0,D,C,0.0,
291,,rl_choice_confirmation,,html-keyboard-response,291,10812092,0.0-1.0-402.0-0.0,0,0,37970,,,,,,57.0,,,,,,,,,,,,,,,,97.5,1.341,,,,,,,,,
292,,isi,,html-keyboard-response,292,10812199,0.0-1.0-404.0,0,0,37970,,,,,,,,,,,,,,,,,,,,,,99.5,2.0,,,,,,,,,
293,,feedback,,html-keyboard-response,293,10813205,0.0-1.0-405.0-0.0,0,0,37970,,,,,,57.0,,,,,,,,,,,,,,,,100.5,1.0,,,,,,,,,
294,,iti,,html-keyboard-response,294,10813310,0.0-1.0-406.0,0,0,37970,,,,,,,,,,,,,,,,,,,,,,101.5,1.0,,,,,,,,,
295,,rl_choice,,html-keyboard-response,295,10813562,0.0-1.0-408.0,0,0,37970,,250.0,,,75.0,58.0,58.0,2.0,hard,1000.0,1000.0,0.0,40.0,60.0,40.0,40.0,B,A,/static/Simple_RL/Stimuli/Fractals_stims/B.jpg,/static/Simple_RL/Stimuli/Fractals_stims/A.jpg,,101.75,0.25,0.0,60.0,40.0,40.0,40.0,A,B,0.0,
296,,rl_choice_confirmation,,html-keyboard-response,296,10814817,0.0-1.0-409.0-0.0,0,0,37970,,,,,,58.0,,,,,,,,,,,,,,,,103.0,1.25,,,,,,,,,
297,,isi,,html-keyboard-response,297,10814922,0.0-1.0-411.0,0,0,37970,,,,,,,,,,,,,,,,,,,,,,104.0,1.0,,,,,,,,,
298,,feedback,,html-keyboard-response,298,10815926,0.0-1.0-412.0-0.0,0,0,37970,,,,,,58.0,,,,,,,,,,,,,,,,105.0,1.0,,,,,,,,,
299,,iti,,html-keyboard-response,299,10816028,0.0-1.0-413.0,0,0,37970,,,,,,,,,,,,,,,,,,,,,,106.0,1.0,,,,,,,,,
300,,rl_choice,,html-keyboard-response,300,10816221,0.0-1.0-415.0,0,0,37970,,192.0,,,75.0,59.0,59.0,2.0,hard,1500.0,1500.0,0.0,40.0,60.0,60.0,40.0,B,A,/static/Simple_RL/Stimuli/Fractals_stims/B.jpg,/static/Simple_RL/Stimuli/Fractals_stims/A.jpg,,106.192,0.192,0.0,60.0,40.0,40.0,60.0,A,B,0.0,
301,,rl_choice_confirmation,,html-keyboard-response,301,10817536,0.0-1.0-416.0-0.0,0,0,37970,,,,,,59.0,,,,,,,,,,,,,,,,107.5,1.308,,,,,,,,,
302,,isi,,html-keyboard-response,302,10817641,0.0-1.0-418.0,0,0,37970,,,,,,,,,,,,,,,,,,,,,,109.0,1.5,,,,,,,,,
303,,feedback,,html-keyboard-response,303,10818649,0.0-1.0-419.0-0.0,0,0,37970,,,,,,59.0,,,,,,,,,,,,,,,,110.0,1.0,,,,,,,,,
304,,iti,,html-keyboard-response,304,10818752,0.0-1.0-420.0,0,0,37970,,,,,,,,,,,,,,,,,,,,,,111.5,1.5,,,,,,,,,
305,,rl_choice,,html-keyboard-response,305,10818998,0.0-1.0-422.0,0,0,37970,,245.0,,,68.0,60.0,60.0,2.0,hard,2000.0,1000.0,1.0,60.0,40.0,40.0,60.0,A,B,/static/Simple_RL/Stimuli/Fractals_stims/A.jpg,/static/Simple_RL/Stimuli/Fractals_stims/B.jpg,,111.745,0.245,1.0,60.0,40.0,40.0,60.0,A,B,0.0,
306,,rl_choice_confirmation,,html-keyboard-response,306,10820256,0.0-1.0-423.0-0.0,0,0,37970,,,,,,60.0,,,,,,,,,,,,,,,,113.0,1.255,,,,,,,,,
307,,isi,,html-keyboard-response,307,10820362,0.0-1.0-425.0,0,0,37970,,,,,,,,,,,,,,,,,,,,,,114.0,1.0,,,,,,,,,
308,,feedback,,html-keyboard-response,308,10821369,0.0-1.0-426.0-0.0,0,0,37970,,,,,,60.0,,,,,,,,,,,,,,,,115.0,1.0,,,,,,,,,
309,,iti,,html-keyboard-response,309,10821475,0.0-1.0-427.0,0,0,37970,,,,,,,,,,,,,,,,,,,,,,117.0,2.0,,,,,,,,,
310,,rl_choice,,html-keyboard-response,310,10821743,0.0-1.0-429.0,0,0,37970,,267.0,,,68.0,61.0,61.0,2.0,hard,1000.0,1000.0,1.0,60.0,40.0,40.0,40.0,A,B,/static/Simple_RL/Stimuli/Fractals_stims/A.jpg,/static/Simple_RL/Stimuli/Fractals_stims/B.jpg,,117.267,0.267,1.0,60.0,40.0,40.0,40.0,A,B,0.0,
311,,rl_choice_confirmation,,html-keyboard-response,311,10822982,0.0-1.0-430.0-0.0,0,0,37970,,,,,,61.0,,,,,,,,,,,,,,,,118.5,1.233,,,,,,,,,
312,,isi,,html-keyboard-response,312,10823087,0.0-1.0-432.0,0,0,37970,,,,,,,,,,,,,,,,,,,,,,119.5,1.0,,,,,,,,,
313,,feedback,,html-keyboard-response,313,10824090,0.0-1.0-433.0-0.0,0,0,37970,,,,,,61.0,,,,,,,,,,,,,,,,120.5,1.0,,,,,,,,,
314,,iti,,html-keyboard-response,314,10824193,0.0-1.0-434.0,0,0,37970,,,,,,,,,,,,,,,,,,,,,,121.5,1.0,,,,,,,,,
315,,rl_choice,,html-keyboard-response,315,10825697,0.0-1.0-436.0,0,0,37970,,,,,,62.0,62.0,2.0,easy,2000.0,2000.0,0.0,20.0,80.0,0.0,100.0,D,C,/static/Simple_RL/Stimuli/Fractals_stims/D.jpg,/static/Simple_RL/Stimuli/Fractals_stims/C.jpg,1.0,123.0,1.5,,,,,,,,,
316,,rl_choice_warning,,html-keyboard-response,316,10826702,0.0-1.0-438.0-0.0,1,0,37970,,,,,,,,,,,,,,,,,,,,,,124.0,1.0,,,,,,,,,
317,,isi,,html-keyboard-response,317,10826808,0.0-1.0-439.0,0,0,37970,,,,,,,,,,,,,,,,,,,,,,126.0,2.0,,,,,,,,,
318,,iti,,html-keyboard-response,318,10826910,0.0-1.0-441.0,0,0,37970,,,,,,,,,,,,,,,,,,,,,,128.0,2.0,,,,,,,,,
319,,rl_choice,,html-keyboard-response,319,10828416,0.0-1.0-443.0,0,0,37970,,,,,,63.0,63.0,2.0,easy,1500.0,3000.0,1.0,80.0,20.0,80.0,40.0,C,D,/static/Simple_RL/Stimuli/Fractals_stims/C.jpg,/static/Simple_RL/Stimuli/Fractals_stims/D.jpg,1.0,129.5,1.5,,,,,,,,,
320,,rl_choice_warning,,html-keyboard-response,320,10829419,0.0-1.0-445.0-0.0,1,0,37970,,,,,,,,,,,,,,,,,,,,,,130.5,1.0,,,,,,,,,
321,,isi,,html-keyboard-response,321,10829524,0.0-1.0-446.0,0,0,37970,,,,,,,,,,,,,,,,,,,,,,133.5,3.0,,,,,,,,,
322,,iti,,html-keyboard-response,322,10829629,0.0-1.0-448.0,0,0,37970,,,,,,,,,,,,,,,,,,,,,,135.0,1.5,,,,,,,,,
323,,rl_choice,,html-keyboard-response,323,10829877,0.0-1.0-450.0,0,0,37970,,247.0,,,68.0,64.0,64.0,2.0,easy,3000.0,1500.0,1.0,80.0,20.0,100.0,0.0,C,D,/static/Simple_RL/Stimuli/Fractals_stims/C.jpg,/static/Simple_RL/Stimuli/Fractals_stims/D.jpg,,135.247,0.247,1.0,80.0,20.0,100.0,0.0,C,D,0.0,
324,,rl_choice_confirmation,,html-keyboard-response,324,10831135,0.0-1.0-451.0-0.0,0,0,37970,,,,,,64.0,,,,,,,,,,,,,,,,136.5,1.253,,,,,,,,,
325,,isi,,html-keyboard-response,325,10831239,0.0-1.0-453.0,0,0,37970,,,,,,,,,,,,,,,,,,,,,,138.0,1.5,,,,,,,,,
326,,feedback,,html-keyboard-response,326,10832244,0.0-1.0-454.0-0.0,0,0,37970,,,,,,64.0,,,,,,,,,,,,,,,,139.0,1.0,,,,,,,,,
327,,iti,,html-keyboard-response,327,10832348,0.0-1.0-455.0,0,0,37970,,,,,,,,,,,,,,,,,,,,,,142.0,3.0,,,,,,,,,
328,,rl_choice,,html-keyboard-response,328,10833731,0.0-1.0-457.0,0,0,37970,,1381.0,,,68.0,65.0,65.0,2.0,hard,2000.0,1500.0,0.0,40.0,60.0,40.0,60.0,B,A,/static/Simple_RL/Stimuli/Fractals_stims/B.jpg,/static/Simple_RL/Stimuli/Fractals_stims/A.jpg,,143.381,1.381,1.0,40.0,60.0,40.0,60.0,B,A,0.0,
329,,rl_choice_confirmation,,html-keyboard-response,329,10833854,0.0-1.0-458.0-0.0,0,0,37970,,,,,,65.0,,,,,,,,,,,,,,,,143.5,0.119,,,,,,,,,
330,,isi,,html-keyboard-response,330,10833958,0.0-1.0-460.0,0,0,37970,,,,,,,,,,,,,,,,,,,,,,145.0,1.5,,,,,,,,,
331,,feedback,,html-keyboard-response,331,10834963,0.0-1.0-461.0-0.0,0,0,37970,,,,,,65.0,,,,,,,,,,,,,,,,146.0,1.0,,,,,,,,,
332,,iti,,html-keyboard-response,332,10835069,0.0-1.0-462.0,0,0,37970,,,,,,,,,,,,,,,,,,,,,,148.0,2.0,,,,,,,,,
333,,rl_choice,,html-keyboard-response,333,10836078,0.0-1.0-464.0,0,0,37970,,1006.0,,,68.0,66.0,66.0,2.0,hard,3000.0,1500.0,1.0,60.0,40.0,80.0,40.0,A,B,/static/Simple_RL/Stimuli/Fractals_stims/A.jpg,/static/Simple_RL/Stimuli/Fractals_stims/B.jpg,,149.006,1.006,1.0,60.0,40.0,80.0,40.0,A,B,0.0,
334,,rl_choice_confirmation,,html-keyboard-response,334,10836577,0.0-1.0-465.0-0.0,0,0,37970,,,,,,66.0,,,,,,,,,,,,,,,,149.5,0.494,,,,,,,,,
335,,isi,,html-keyboard-response,335,10836681,0.0-1.0-467.0,0,0,37970,,,,,,,,,,,,,,,,,,,,,,151.0,1.5,,,,,,,,,
336,,feedback,,html-keyboard-response,336,10837686,0.0-1.0-468.0-0.0,0,0,37970,,,,,,66.0,,,,,,,,,,,,,,,,152.0,1.0,,,,,,,,,
337,,iti,,html-keyboard-response,337,10837790,0.0-1.0-469.0,0,0,37970,,,,,,,,,,,,,,,,,,,,,,155.0,3.0,,,,,,,,,
338,,rl_choice,,html-keyboard-response,338,10838154,0.0-1.0-471.0,0,0,37970,,363.0,,,68.0,67.0,67.0,2.0,hard,1000.0,3500.0,1.0,60.0,40.0,60.0,20.0,A,B,/static/Simple_RL/Stimuli/Fractals_stims/A.jpg,/static/Simple_RL/Stimuli/Fractals_stims/B.jpg,,155.363,0.363,1.0,60.0,40.0,60.0,20.0,A,B,0.0,
339,,rl_choice_confirmation,,html-keyboard-response,339,10839297,0.0-1.0-472.0-0.0,0,0,37970,,,,,,67.0,,,,,,,,,,,,,,,,156.5,1.137,,,,,,,,,
340,,isi,,html-keyboard-response,340,10839400,0.0-1.0-474.0,0,0,37970,,,,,,,,,,,,,,,,,,,,,,160.0,3.5,,,,,,,,,
341,,feedback,,html-keyboard-response,341,10840407,0.0-1.0-475.0-0.0,0,0,37970,,,,,,67.0,,,,,,,,,,,,,,,,161.0,1.0,,,,,,,,,
342,,iti,,html-keyboard-response,342,10840511,0.0-1.0-476.0,0,0,37970,,,,,,,,,,,,,,,,,,,,,,162.0,1.0,,,,,,,,,
343,,rl_choice,,html-keyboard-response,343,10841149,0.0-1.0-478.0,0,0,37970,,637.0,,,68.0,68.0,68.0,2.0,easy,1000.0,1000.0,0.0,20.0,80.0,40.0,80.0,D,C,/static/Simple_RL/Stimuli/Fractals_stims/D.jpg,/static/Simple_RL/Stimuli/Fractals_stims/C.jpg,,162.637,0.637,1.0,20.0,80.0,40.0,80.0,D,C,0.0,
344,,rl_choice_confirmation,,html-keyboard-response,344,10842019,0.0-1.0-479.0-0.0,0,0,37970,,,,,,68.0,,,,,,,,,,,,,,,,163.5,0.863,,,,,,,,,
345,,isi,,html-keyboard-response,345,10842121,0.0-1.0-481.0,0,0,37970,,,,,,,,,,,,,,,,,,,,,,164.5,1.0,,,,,,,,,
346,,feedback,,html-keyboard-response,346,10843124,0.0-1.0-482.0-0.0,0,0,37970,,,,,,68.0,,,,,,,,,,,,,,,,165.5,1.0,,,,,,,,,
347,,iti,,html-keyboard-response,347,10843225,0.0-1.0-483.0,0,0,37970,,,,,,,,,,,,,,,,,,,,,,166.5,1.0,,,,,,,,,
348,,rl_choice,,html-keyboard-response,348,10844690,0.0-1.0-485.0,0,0,37970,,1464.0,,,68.0,69.0,69.0,2.0,hard,1000.0,2000.0,0.0,40.0,60.0,60.0,60.0,B,A,/static/Simple_RL/Stimuli/Fractals_stims/B.jpg,/static/Simple_RL/Stimuli/Fractals_stims/A.jpg,,167.964,1.464,1.0,40.0,60.0,60.0,60.0,B,A,0.0,
349,,rl_choice_confirmation,,html-keyboard-response,349,10844731,0.0-1.0-486.0-0.0,0,0,37970,,,,,,69.0,,,,,,,,,,,,,,,,168.0,0.036,,,,,,,,,
350,,isi,,html-keyboard-response,350,10844836,0.0-1.0-488.0,0,0,37970,,,,,,,,,,,,,,,,,,,,,,170.0,2.0,,,,,,,,,
351,,feedback,,html-keyboard-response,351,10845839,0.0-1.0-489.0-0.0,0,0,37970,,,,,,69.0,,,,,,,,,,,,,,,,171.0,1.0,,,,,,,,,
352,,iti,,html-keyboard-response,352,10845944,0.0-1.0-490.0,0,0,37970,,,,,,,,,,,,,,,,,,,,,,172.0,1.0,,,,,,,,,
353,,rl_choice,,html-keyboard-response,353,10846140,0.0-1.0-492.0,0,0,37970,,194.0,,,68.0,70.0,70.0,2.0,hard,3500.0,1000.0,1.0,60.0,40.0,60.0,40.0,A,B,/static/Simple_RL/Stimuli/Fractals_stims/A.jpg,/static/Simple_RL/Stimuli/Fractals_stims/B.jpg,,172.194,0.194,1.0,60.0,40.0,60.0,40.0,A,B,0.0,
354,,rl_choice_confirmation,,html-keyboard-response,354,10847452,0.0-1.0-493.0-0.0,0,0,37970,,,,,,70.0,,,,,,,,,,,,,,,,173.5,1.306,,,,,,,,,
355,,isi,,html-keyboard-response,355,10847554,0.0-1.0-495.0,0,0,37970,,,,,,,,,,,,,,,,,,,,,,174.5,1.0,,,,,,,,,
356,,feedback,,html-keyboard-response,356,10848561,0.0-1.0-496.0-0.0,0,0,37970,,,,,,70.0,,,,,,,,,,,,,,,,175.5,1.0,,,,,,,,,
357,,iti,,html-keyboard-response,357,10848666,0.0-1.0-497.0,0,0,37970,,,,,,,,,,,,,,,,,,,,,,179.0,3.5,,,,,,,,,
358,,rl_choice,,html-keyboard-response,358,10849470,0.0-1.0-499.0,0,0,37970,,803.0,,,68.0,71.0,71.0,2.0,easy,2000.0,1000.0,1.0,80.0,20.0,80.0,20.0,C,D,/static/Simple_RL/Stimuli/Fractals_stims/C.jpg,/static/Simple_RL/Stimuli/Fractals_stims/D.jpg,,179.803,0.803,1.0,80.0,20.0,80.0,20.0,C,D,0.0,
359,,rl_choice_confirmation,,html-keyboard-response,359,10850171,0.0-1.0-500.0-0.0,0,0,37970,,,,,,71.0,,,,,,,,,,,,,,,,180.5,0.697,,,,,,,,,
360,,isi,,html-keyboard-response,360,10850273,0.0-1.0-502.0,0,0,37970,,,,,,,,,,,,,,,,,,,,,,181.5,1.0,,,,,,,,,
361,,feedback,,html-keyboard-response,361,10851277,0.0-1.0-503.0-0.0,0,0,37970,,,,,,71.0,,,,,,,,,,,,,,,,182.5,1.0,,,,,,,,,
362,,iti,,html-keyboard-response,362,10851382,0.0-1.0-504.0,0,0,37970,,,,,,,,,,,,,,,,,,,,,,184.5,2.0,,,,,,,,,
363,,rl_choice,,html-keyboard-response,363,10852888,0.0-1.0-506.0,0,0,37970,,,,,,72.0,72.0,2.0,easy,1000.0,1000.0,1.0,80.0,20.0,60.0,20.0,C,D,/static/Simple_RL/Stimuli/Fractals_stims/C.jpg,/static/Simple_RL/Stimuli/Fractals_stims/D.jpg,1.0,186.0,1.5,,,,,,,,,
364,,rl_choice_warning,,html-keyboard-response,364,10853892,0.0-1.0-508.0-0.0,1,0,37970,,,,,,,,,,,,,,,,,,,,,,187.0,1.0,,,,,,,,,
365,,isi,,html-keyboard-response,365,10853997,0.0-1.0-509.0,0,0,37970,,,,,,,,,,,,,,,,,,,,,,188.0,1.0,,,,,,,,,
366,,iti,,html-keyboard-response,366,10854099,0.0-1.0-511.0,0,0,37970,,,,,,,,,,,,,,,,,,,,,,189.0,1.0,,,,,,,,,
367,,rl_choice,,html-keyboard-response,367,10855604,0.0-1.0-513.0,0,0,37970,,,,,,73.0,73.0,2.0,hard,1500.0,3000.0,0.0,40.0,60.0,40.0,80.0,B,A,/static/Simple_RL/Stimuli/Fractals_stims/B.jpg,/static/Simple_RL/Stimuli/Fractals_stims/A.jpg,1.0,190.5,1.5,,,,,,,,,
368,,rl_choice_warning,,html-keyboard-response,368,10856606,0.0-1.0-515.0-0.0,1,0,37970,,,,,,,,,,,,,,,,,,,,,,191.5,1.0,,,,,,,,,
369,,isi,,html-keyboard-response,369,10856712,0.0-1.0-516.0,0,0,37970,,,,,,,,,,,,,,,,,,,,,,194.5,3.0,,,,,,,,,
370,,iti,,html-keyboard-response,370,10856818,0.0-1.0-518.0,0,0,37970,,,,,,,,,,,,,,,,,,,,,,196.0,1.5,,,,,,,,,
371,,rl_choice,,html-keyboard-response,371,10858320,0.0-1.0-520.0,0,0,37970,,,,,,74.0,74.0,2.0,easy,1000.0,3500.0,0.0,20.0,80.0,20.0,100.0,D,C,/static/Simple_RL/Stimuli/Fractals_stims/D.jpg,/static/Simple_RL/Stimuli/Fractals_stims/C.jpg,1.0,197.5,1.5,,,,,,,,,
372,,rl_choice_warning,,html-keyboard-response,372,10859323,0.0-1.0-522.0-0.0,1,0,37970,,,,,,,,,,,,,,,,,,,,,,198.5,1.0,,,,,,,,,
373,,isi,,html-keyboard-response,373,10859429,0.0-1.0-523.0,0,0,37970,,,,,,,,,,,,,,,,,,,,,,202.0,3.5,,,,,,,,,
374,,iti,,html-keyboard-response,374,10859534,0.0-1.0-525.0,0,0,37970,,,,,,,,,,,,,,,,,,,,,,203.0,1.0,,,,,,,,,
375,,rl_choice,,html-keyboard-response,375,10861036,0.0-1.0-527.0,0,0,37970,,,,,,75.0,75.0,2.0,easy,1500.0,2000.0,1.0,80.0,20.0,100.0,40.0,C,D,/static/Simple_RL/Stimuli/Fractals_stims/C.jpg,/static/Simple_RL/Stimuli/Fractals_stims/D.jpg,1.0,204.5,1.5,,,,,,,,,
376,,rl_choice_warning,,html-keyboard-response,376,10862040,0.0-1.0-529.0-0.0,1,0,37970,,,,,,,,,,,,,,,,,,,,,,205.5,1.0,,,,,,,,,
377,,isi,,html-keyboard-response,377,10862145,0.0-1.0-530.0,0,0,37970,,,,,,,,,,,,,,,,,,,,,,207.5,2.0,,,,,,,,,
378,,iti,,html-keyboard-response,378,10862250,0.0-1.0-532.0,0,0,37970,,,,,,,,,,,,,,,,,,,,,,209.0,1.5,,,,,,,,,
379,,rl_choice,,html-keyboard-response,379,10863598,0.0-1.0-534.0,0,0,37970,,1346.0,,,68.0,76.0,76.0,2.0,hard,2000.0,1500.0,1.0,60.0,40.0,60.0,20.0,A,B,/static/Simple_RL/Stimuli/Fractals_stims/A.jpg,/static/Simple_RL/Stimuli/Fractals_stims/B.jpg,,210.346,1.346,1.0,60.0,40.0,60.0,20.0,A,B,0.0,
380,,rl_choice_confirmation,,html-keyboard-response,380,10863759,0.0-1.0-535.0-0.0,0,0,37970,,,,,,76.0,,,,,,,,,,,,,,,,210.5,0.154,,,,,,,,,
381,,isi,,html-keyboard-response,381,10863865,0.0-1.0-537.0,0,0,37970,,,,,,,,,,,,,,,,,,,,,,212.0,1.5,,,,,,,,,
382,,feedback,,html-keyboard-response,382,10864868,0.0-1.0-538.0-0.0,0,0,37970,,,,,,76.0,,,,,,,,,,,,,,,,213.0,1.0,,,,,,,,,
383,,iti,,html-keyboard-response,383,10864970,0.0-1.0-539.0,0,0,37970,,,,,,,,,,,,,,,,,,,,,,215.0,2.0,,,,,,,,,
384,,rl_choice,,html-keyboard-response,384,10865766,0.0-1.0-541.0,0,0,37970,,796.0,,,68.0,77.0,77.0,2.0,easy,1500.0,2000.0,1.0,80.0,20.0,80.0,0.0,C,D,/static/Simple_RL/Stimuli/Fractals_stims/C.jpg,/static/Simple_RL/Stimuli/Fractals_stims/D.jpg,,215.796,0.796,1.0,80.0,20.0,80.0,0.0,C,D,0.0,
385,,rl_choice_confirmation,,html-keyboard-response,385,10866475,0.0-1.0-542.0-0.0,0,0,37970,,,,,,77.0,,,,,,,,,,,,,,,,216.5,0.704,,,,,,,,,
386,,isi,,html-keyboard-response,386,10866577,0.0-1.0-544.0,0,0,37970,,,,,,,,,,,,,,,,,,,,,,218.5,2.0,,,,,,,,,
387,,feedback,,html-keyboard-response,387,10867582,0.0-1.0-545.0-0.0,0,0,37970,,,,,,77.0,,,,,,,,,,,,,,,,219.5,1.0,,,,,,,,,
388,,iti,,html-keyboard-response,388,10867686,0.0-1.0-546.0,0,0,37970,,,,,,,,,,,,,,,,,,,,,,221.0,1.5,,,,,,,,,
389,,rl_choice,,html-keyboard-response,389,10869191,0.0-1.0-548.0,0,0,37970,,,,,,78.0,78.0,2.0,hard,1500.0,2000.0,1.0,60.0,40.0,80.0,60.0,A,B,/static/Simple_RL/Stimuli/Fractals_stims/A.jpg,/static/Simple_RL/Stimuli/Fractals_stims/B.jpg,1.0,222.5,1.5,,,,,,,,,
390,,rl_choice_warning,,html-keyboard-response,390,10870193,0.0-1.0-550.0-0.0,1,0,37970,,,,,,,,,,,,,,,,,,,,,,223.5,1.0,,,,,,,,,
391,,isi,,html-keyboard-response,391,10870295,0.0-1.0-551.0,0,0,37970,,,,,,,,,,,,,,,,,,,,,,225.5,2.0,,,,,,,,,
392,,iti,,html-keyboard-response,392,10870401,0.0-1.0-553.0,0,0,37970,,,,,,,,,,,,,,,,,,,,,,227.0,1.5,,,,,,,,,
393,,rl_choice,,html-keyboard-response,393,10871614,0.0-1.0-555.0,0,0,37970,,1211.0,,,68.0,79.0,79.0,2.0,easy,1000.0,1500.0,0.0,20.0,80.0,20.0,60.0,D,C,/static/Simple_RL/Stimuli/Fractals_stims/D.jpg,/static/Simple_RL/Stimuli/Fractals_stims/C.jpg,,228.211,1.211,1.0,20.0,80.0,20.0,60.0,D,C,0.0,
394,,rl_choice_confirmation,,html-keyboard-response,394,10871910,0.0-1.0-556.0-0.0,0,0,37970,,,,,,79.0,,,,,,,,,,,,,,,,228.5,0.289,,,,,,,,,
395,,isi,,html-keyboard-response,395,10872015,0.0-1.0-558.0,0,0,37970,,,,,,,,,,,,,,,,,,,,,,230.0,1.5,,,,,,,,,
396,,feedback,,html-keyboard-response,396,10873019,0.0-1.0-559.0-0.0,0,0,37970,,,,,,79.0,,,,,,,,,,,,,,,,231.0,1.0,,,,,,,,,
397,,iti,,html-keyboard-response,397,10873124,0.0-1.0-560.0,0,0,37970,,,,,,,,,,,,,,,,,,,,,,232.0,1.0,,,,,,,,,1.0
398,,final_tally,,html-keyboard-response,398,10874422,0.0-2.0,0,0,37970,,1295.0,,,68.0,,,,,,,,,,,,,,,,,,,,,,,,,,,
