,success,ttype,start_time,trial_type,trial_index,time_elapsed,internal_node_id,warning,missed_checkup,PID,view_history,rt,responses,repeat_instructions,key_press,index,trial_num,block,condition,iti,isi,high_group_on_left,left_group_value,right_group_value,left_item_value,right_item_value,left_img,right_img,left_img_path,right_img_path,left_chosen,chosen_group_value,unchosen_group_value,chosen_item_value,unchosen_item_value,chosen_img,unchosen_img,no_response,onset,duration,no_resposne,total_bonus_tally
0,True,full_screen,d05182022hr2017,fullscreen,0,2146,0.0-0.0,0,0,6,,,,,,,,,,,,,,,,,,,,,,,,,,,,,,,,
1,,size_instructions,,instructions,1,6311,0.0-1.0-0.0-0.0,0,0,6,"[{""page_index"":0,""viewing_time"":947},{""page_index"":1,""viewing_time"":917},{""page_index"":2,""viewing_time"":567},{""page_index"":3,""viewing_time"":583},{""page_index"":4,""viewing_time"":533},{""page_index"":5,""viewing_time"":616}]",4164.0,,,,,,,,,,,,,,,,,,,,,,,,,,,,,,
2,,rl_comprehension_check,,survey-multi-choice,2,11561,0.0-1.0-0.0-1.0,0,0,6,,5247.0,"{""Q0"":""True"",""Q1"":""True"",""Q2"":""pointer finger for left and middle finger for right""}",0.0,,,,,,,,,,,,,,,,,,,,,,,,,,,,
3,,,,html-keyboard-response,3,12168,0.0-1.0-1.0,0,0,6,,604.0,,,50.0,,,,,,,,,,,,,,,,,,,,,,,,,,,
4,,rl_choice,,html-keyboard-response,4,12709,0.0-1.0-2.0,0,0,6,,539.0,,,50.0,0.0,0.0,1.0,easy,2000.0,1000.0,1.0,80.0,20.0,100.0,20.0,C,D,/static/Simple_RL/Stimuli/Fractals_stims/C.jpg,/static/Simple_RL/Stimuli/Fractals_stims/D.jpg,1.0,80.0,20.0,100.0,20.0,C,D,0.0,0.539,0.539,,
5,,rl_choice_confirmation,,html-keyboard-response,5,13676,0.0-1.0-3.0-0.0,0,0,6,,,,,,0.0,,,,,,,,,,,,,,,,,,,,,,,1.5,0.961,,
6,,isi,,html-keyboard-response,6,13778,0.0-1.0-5.0,0,0,6,,,,,,,,,,,,,,,,,,,,,,,,,,,,,2.5,1.0,,
7,,feedback,,html-keyboard-response,7,14784,0.0-1.0-6.0-0.0,0,0,6,,,,,,0.0,,,,,,,,,,,,,,,,,,,,,,,3.5,1.0,,
8,,iti,,html-keyboard-response,8,14886,0.0-1.0-7.0,0,0,6,,,,,,,,,,,,,,,,,,,,,,,,,,,,,5.5,2.0,,
9,,rl_choice,,html-keyboard-response,9,15294,0.0-1.0-9.0,0,0,6,,407.0,,,51.0,1.0,1.0,1.0,easy,2000.0,2000.0,1.0,80.0,20.0,60.0,20.0,C,D,/static/Simple_RL/Stimuli/Fractals_stims/C.jpg,/static/Simple_RL/Stimuli/Fractals_stims/D.jpg,0.0,20.0,80.0,20.0,60.0,D,C,0.0,5.907,0.40700000000000003,,
10,,rl_choice_confirmation,,html-keyboard-response,10,16389,0.0-1.0-10.0-0.0,0,0,6,,,,,,1.0,,,,,,,,,,,,,,,,,,,,,,,7.0,1.093,,
11,,isi,,html-keyboard-response,11,16494,0.0-1.0-12.0,0,0,6,,,,,,,,,,,,,,,,,,,,,,,,,,,,,9.0,2.0,,
12,,feedback,,html-keyboard-response,12,17501,0.0-1.0-13.0-0.0,0,0,6,,,,,,1.0,,,,,,,,,,,,,,,,,,,,,,,10.0,1.0,,
13,,iti,,html-keyboard-response,13,17606,0.0-1.0-14.0,0,0,6,,,,,,,,,,,,,,,,,,,,,,,,,,,,,12.0,2.0,,
14,,rl_choice,,html-keyboard-response,14,17932,0.0-1.0-16.0,0,0,6,,325.0,,,50.0,2.0,2.0,1.0,easy,1500.0,1000.0,1.0,80.0,20.0,80.0,20.0,C,D,/static/Simple_RL/Stimuli/Fractals_stims/C.jpg,/static/Simple_RL/Stimuli/Fractals_stims/D.jpg,1.0,80.0,20.0,80.0,20.0,C,D,0.0,12.325,0.325,,
15,,rl_choice_confirmation,,html-keyboard-response,15,19112,0.0-1.0-17.0-0.0,0,0,6,,,,,,2.0,,,,,,,,,,,,,,,,,,,,,,,13.5,1.175,,
16,,isi,,html-keyboard-response,16,19218,0.0-1.0-19.0,0,0,6,,,,,,,,,,,,,,,,,,,,,,,,,,,,,14.5,1.0,,
17,,feedback,,html-keyboard-response,17,20221,0.0-1.0-20.0-0.0,0,0,6,,,,,,2.0,,,,,,,,,,,,,,,,,,,,,,,15.5,1.0,,
18,,iti,,html-keyboard-response,18,20323,0.0-1.0-21.0,0,0,6,,,,,,,,,,,,,,,,,,,,,,,,,,,,,17.0,1.5,,
19,,rl_choice,,html-keyboard-response,19,20649,0.0-1.0-23.0,0,0,6,,325.0,,,50.0,3.0,3.0,1.0,easy,1000.0,3500.0,1.0,80.0,20.0,100.0,40.0,C,D,/static/Simple_RL/Stimuli/Fractals_stims/C.jpg,/static/Simple_RL/Stimuli/Fractals_stims/D.jpg,1.0,80.0,20.0,100.0,40.0,C,D,0.0,17.325,0.325,,
20,,rl_choice_confirmation,,html-keyboard-response,20,21830,0.0-1.0-24.0-0.0,0,0,6,,,,,,3.0,,,,,,,,,,,,,,,,,,,,,,,18.5,1.175,,
21,,isi,,html-keyboard-response,21,21935,0.0-1.0-26.0,0,0,6,,,,,,,,,,,,,,,,,,,,,,,,,,,,,22.0,3.5,,
22,,feedback,,html-keyboard-response,22,22941,0.0-1.0-27.0-0.0,0,0,6,,,,,,3.0,,,,,,,,,,,,,,,,,,,,,,,23.0,1.0,,
23,,iti,,html-keyboard-response,23,23045,0.0-1.0-28.0,0,0,6,,,,,,,,,,,,,,,,,,,,,,,,,,,,,24.0,1.0,,
24,,rl_choice,,html-keyboard-response,24,23317,0.0-1.0-30.0,0,0,6,,271.0,,,50.0,4.0,4.0,1.0,hard,1000.0,3000.0,0.0,40.0,60.0,20.0,60.0,B,A,/static/Simple_RL/Stimuli/Fractals_stims/B.jpg,/static/Simple_RL/Stimuli/Fractals_stims/A.jpg,1.0,40.0,60.0,20.0,60.0,B,A,0.0,24.271,0.271,,
25,,rl_choice_confirmation,,html-keyboard-response,25,24552,0.0-1.0-31.0-0.0,0,0,6,,,,,,4.0,,,,,,,,,,,,,,,,,,,,,,,25.5,1.229,,
26,,isi,,html-keyboard-response,26,24658,0.0-1.0-33.0,0,0,6,,,,,,,,,,,,,,,,,,,,,,,,,,,,,28.5,3.0,,
27,,feedback,,html-keyboard-response,27,25661,0.0-1.0-34.0-0.0,0,0,6,,,,,,4.0,,,,,,,,,,,,,,,,,,,,,,,29.5,1.0,,
28,,iti,,html-keyboard-response,28,25767,0.0-1.0-35.0,0,0,6,,,,,,,,,,,,,,,,,,,,,,,,,,,,,30.5,1.0,,
29,,rl_choice,,html-keyboard-response,29,26260,0.0-1.0-37.0,0,0,6,,492.0,,,51.0,5.0,5.0,1.0,easy,3000.0,1000.0,0.0,20.0,80.0,40.0,60.0,D,C,/static/Simple_RL/Stimuli/Fractals_stims/D.jpg,/static/Simple_RL/Stimuli/Fractals_stims/C.jpg,0.0,80.0,20.0,60.0,40.0,C,D,0.0,30.991999999999997,0.49200000000000005,,
30,,rl_choice_confirmation,,html-keyboard-response,30,27271,0.0-1.0-38.0-0.0,0,0,6,,,,,,5.0,,,,,,,,,,,,,,,,,,,,,,,32.0,1.008,,
31,,isi,,html-keyboard-response,31,27377,0.0-1.0-40.0,0,0,6,,,,,,,,,,,,,,,,,,,,,,,,,,,,,33.0,1.0,,
32,,feedback,,html-keyboard-response,32,28380,0.0-1.0-41.0-0.0,0,0,6,,,,,,5.0,,,,,,,,,,,,,,,,,,,,,,,34.0,1.0,,
33,,iti,,html-keyboard-response,33,28481,0.0-1.0-42.0,0,0,6,,,,,,,,,,,,,,,,,,,,,,,,,,,,,37.0,3.0,,
34,,rl_choice,,html-keyboard-response,34,29234,0.0-1.0-44.0,0,0,6,,751.0,,,50.0,6.0,6.0,1.0,hard,1500.0,1000.0,1.0,60.0,40.0,60.0,60.0,A,B,/static/Simple_RL/Stimuli/Fractals_stims/A.jpg,/static/Simple_RL/Stimuli/Fractals_stims/B.jpg,1.0,60.0,40.0,60.0,60.0,A,B,0.0,37.751,0.7509999999999999,,
35,,rl_choice_confirmation,,html-keyboard-response,35,29987,0.0-1.0-45.0-0.0,0,0,6,,,,,,6.0,,,,,,,,,,,,,,,,,,,,,,,38.5,0.7490000000000001,,
36,,isi,,html-keyboard-response,36,30091,0.0-1.0-47.0,0,0,6,,,,,,,,,,,,,,,,,,,,,,,,,,,,,39.5,1.0,,
37,,feedback,,html-keyboard-response,37,31096,0.0-1.0-48.0-0.0,0,0,6,,,,,,6.0,,,,,,,,,,,,,,,,,,,,,,,40.5,1.0,,
38,,iti,,html-keyboard-response,38,31200,0.0-1.0-49.0,0,0,6,,,,,,,,,,,,,,,,,,,,,,,,,,,,,42.0,1.5,,
39,,rl_choice,,html-keyboard-response,39,32171,0.0-1.0-51.0,0,0,6,,970.0,,,50.0,7.0,7.0,1.0,easy,1500.0,1000.0,1.0,80.0,20.0,80.0,20.0,C,D,/static/Simple_RL/Stimuli/Fractals_stims/C.jpg,/static/Simple_RL/Stimuli/Fractals_stims/D.jpg,1.0,80.0,20.0,80.0,20.0,C,D,0.0,42.97,0.97,,
40,,rl_choice_confirmation,,html-keyboard-response,40,32704,0.0-1.0-52.0-0.0,0,0,6,,,,,,7.0,,,,,,,,,,,,,,,,,,,,,,,43.5,0.53,,
41,,isi,,html-keyboard-response,41,32810,0.0-1.0-54.0,0,0,6,,,,,,,,,,,,,,,,,,,,,,,,,,,,,44.5,1.0,,
42,,feedback,,html-keyboard-response,42,33815,0.0-1.0-55.0-0.0,0,0,6,,,,,,7.0,,,,,,,,,,,,,,,,,,,,,,,45.5,1.0,,
43,,iti,,html-keyboard-response,43,33917,0.0-1.0-56.0,0,0,6,,,,,,,,,,,,,,,,,,,,,,,,,,,,,47.0,1.5,,
44,,rl_choice,,html-keyboard-response,44,34481,0.0-1.0-58.0,0,0,6,,562.0,,,51.0,8.0,8.0,1.0,easy,3500.0,1500.0,0.0,20.0,80.0,40.0,60.0,D,C,/static/Simple_RL/Stimuli/Fractals_stims/D.jpg,/static/Simple_RL/Stimuli/Fractals_stims/C.jpg,0.0,80.0,20.0,60.0,40.0,C,D,0.0,47.562,0.562,,
45,,rl_choice_confirmation,,html-keyboard-response,45,35423,0.0-1.0-59.0-0.0,0,0,6,,,,,,8.0,,,,,,,,,,,,,,,,,,,,,,,48.5,0.938,,
46,,isi,,html-keyboard-response,46,35526,0.0-1.0-61.0,0,0,6,,,,,,,,,,,,,,,,,,,,,,,,,,,,,50.0,1.5,,
47,,feedback,,html-keyboard-response,47,36531,0.0-1.0-62.0-0.0,0,0,6,,,,,,8.0,,,,,,,,,,,,,,,,,,,,,,,51.0,1.0,,
48,,iti,,html-keyboard-response,48,36634,0.0-1.0-63.0,0,0,6,,,,,,,,,,,,,,,,,,,,,,,,,,,,,54.5,3.5,,
49,,rl_choice,,html-keyboard-response,49,37196,0.0-1.0-65.0,0,0,6,,560.0,,,51.0,9.0,9.0,1.0,easy,1000.0,1500.0,0.0,20.0,80.0,40.0,80.0,D,C,/static/Simple_RL/Stimuli/Fractals_stims/D.jpg,/static/Simple_RL/Stimuli/Fractals_stims/C.jpg,0.0,80.0,20.0,80.0,40.0,C,D,0.0,55.06,0.56,,
50,,rl_choice_confirmation,,html-keyboard-response,50,38140,0.0-1.0-66.0-0.0,0,0,6,,,,,,9.0,,,,,,,,,,,,,,,,,,,,,,,56.0,0.94,,
51,,isi,,html-keyboard-response,51,38244,0.0-1.0-68.0,0,0,6,,,,,,,,,,,,,,,,,,,,,,,,,,,,,57.5,1.5,,
52,,feedback,,html-keyboard-response,52,39249,0.0-1.0-69.0-0.0,0,0,6,,,,,,9.0,,,,,,,,,,,,,,,,,,,,,,,58.5,1.0,,
53,,iti,,html-keyboard-response,53,39352,0.0-1.0-70.0,0,0,6,,,,,,,,,,,,,,,,,,,,,,,,,,,,,59.5,1.0,,
54,,rl_choice,,html-keyboard-response,54,40026,0.0-1.0-72.0,0,0,6,,672.0,,,50.0,10.0,10.0,1.0,hard,2000.0,1000.0,1.0,60.0,40.0,40.0,20.0,A,B,/static/Simple_RL/Stimuli/Fractals_stims/A.jpg,/static/Simple_RL/Stimuli/Fractals_stims/B.jpg,1.0,60.0,40.0,40.0,20.0,A,B,0.0,60.172,0.672,,
55,,rl_choice_confirmation,,html-keyboard-response,55,40859,0.0-1.0-73.0-0.0,0,0,6,,,,,,10.0,,,,,,,,,,,,,,,,,,,,,,,61.0,0.828,,
56,,isi,,html-keyboard-response,56,40963,0.0-1.0-75.0,0,0,6,,,,,,,,,,,,,,,,,,,,,,,,,,,,,62.0,1.0,,
57,,feedback,,html-keyboard-response,57,41968,0.0-1.0-76.0-0.0,0,0,6,,,,,,10.0,,,,,,,,,,,,,,,,,,,,,,,63.0,1.0,,
58,,iti,,html-keyboard-response,58,42070,0.0-1.0-77.0,0,0,6,,,,,,,,,,,,,,,,,,,,,,,,,,,,,65.0,2.0,,
59,,rl_choice,,html-keyboard-response,59,42715,0.0-1.0-79.0,0,0,6,,643.0,,,51.0,11.0,11.0,1.0,easy,1000.0,1500.0,0.0,20.0,80.0,40.0,60.0,D,C,/static/Simple_RL/Stimuli/Fractals_stims/D.jpg,/static/Simple_RL/Stimuli/Fractals_stims/C.jpg,0.0,80.0,20.0,60.0,40.0,C,D,0.0,65.643,0.643,,
60,,rl_choice_confirmation,,html-keyboard-response,60,43578,0.0-1.0-80.0-0.0,0,0,6,,,,,,11.0,,,,,,,,,,,,,,,,,,,,,,,66.5,0.857,,
61,,isi,,html-keyboard-response,61,43681,0.0-1.0-82.0,0,0,6,,,,,,,,,,,,,,,,,,,,,,,,,,,,,68.0,1.5,,
62,,feedback,,html-keyboard-response,62,44686,0.0-1.0-83.0-0.0,0,0,6,,,,,,11.0,,,,,,,,,,,,,,,,,,,,,,,69.0,1.0,,
63,,iti,,html-keyboard-response,63,44790,0.0-1.0-84.0,0,0,6,,,,,,,,,,,,,,,,,,,,,,,,,,,,,70.0,1.0,,
64,,rl_choice,,html-keyboard-response,64,45447,0.0-1.0-86.0,0,0,6,,656.0,,,50.0,12.0,12.0,1.0,hard,1000.0,1500.0,1.0,60.0,40.0,60.0,60.0,A,B,/static/Simple_RL/Stimuli/Fractals_stims/A.jpg,/static/Simple_RL/Stimuli/Fractals_stims/B.jpg,1.0,60.0,40.0,60.0,60.0,A,B,0.0,70.656,0.6559999999999999,,
65,,rl_choice_confirmation,,html-keyboard-response,65,46293,0.0-1.0-87.0-0.0,0,0,6,,,,,,12.0,,,,,,,,,,,,,,,,,,,,,,,71.5,0.8440000000000001,,
66,,isi,,html-keyboard-response,66,46399,0.0-1.0-89.0,0,0,6,,,,,,,,,,,,,,,,,,,,,,,,,,,,,73.0,1.5,,
67,,feedback,,html-keyboard-response,67,47404,0.0-1.0-90.0-0.0,0,0,6,,,,,,12.0,,,,,,,,,,,,,,,,,,,,,,,74.0,1.0,,
68,,iti,,html-keyboard-response,68,47510,0.0-1.0-91.0,0,0,6,,,,,,,,,,,,,,,,,,,,,,,,,,,,,75.0,1.0,,
69,,rl_choice,,html-keyboard-response,69,48384,0.0-1.0-93.0,0,0,6,,873.0,,,50.0,13.0,13.0,1.0,easy,1000.0,1500.0,1.0,80.0,20.0,80.0,0.0,C,D,/static/Simple_RL/Stimuli/Fractals_stims/C.jpg,/static/Simple_RL/Stimuli/Fractals_stims/D.jpg,1.0,80.0,20.0,80.0,0.0,C,D,0.0,75.873,0.873,,
70,,rl_choice_confirmation,,html-keyboard-response,70,49017,0.0-1.0-94.0-0.0,0,0,6,,,,,,13.0,,,,,,,,,,,,,,,,,,,,,,,76.5,0.627,,
71,,isi,,html-keyboard-response,71,49121,0.0-1.0-96.0,0,0,6,,,,,,,,,,,,,,,,,,,,,,,,,,,,,78.0,1.5,,
72,,feedback,,html-keyboard-response,72,50126,0.0-1.0-97.0-0.0,0,0,6,,,,,,13.0,,,,,,,,,,,,,,,,,,,,,,,79.0,1.0,,
73,,iti,,html-keyboard-response,73,50231,0.0-1.0-98.0,0,0,6,,,,,,,,,,,,,,,,,,,,,,,,,,,,,80.0,1.0,,
74,,rl_choice,,html-keyboard-response,74,50904,0.0-1.0-100.0,0,0,6,,672.0,,,51.0,14.0,14.0,1.0,easy,1000.0,2000.0,1.0,80.0,20.0,80.0,0.0,C,D,/static/Simple_RL/Stimuli/Fractals_stims/C.jpg,/static/Simple_RL/Stimuli/Fractals_stims/D.jpg,0.0,20.0,80.0,0.0,80.0,D,C,0.0,80.672,0.672,,
75,,rl_choice_confirmation,,html-keyboard-response,75,51737,0.0-1.0-101.0-0.0,0,0,6,,,,,,14.0,,,,,,,,,,,,,,,,,,,,,,,81.5,0.828,,
76,,isi,,html-keyboard-response,76,51839,0.0-1.0-103.0,0,0,6,,,,,,,,,,,,,,,,,,,,,,,,,,,,,83.5,2.0,,
77,,feedback,,html-keyboard-response,77,52846,0.0-1.0-104.0-0.0,0,0,6,,,,,,14.0,,,,,,,,,,,,,,,,,,,,,,,84.5,1.0,,
78,,iti,,html-keyboard-response,78,52952,0.0-1.0-105.0,0,0,6,,,,,,,,,,,,,,,,,,,,,,,,,,,,,85.5,1.0,,
79,,rl_choice,,html-keyboard-response,79,53742,0.0-1.0-107.0,0,0,6,,789.0,,,51.0,15.0,15.0,1.0,hard,1000.0,1000.0,0.0,40.0,60.0,40.0,60.0,B,A,/static/Simple_RL/Stimuli/Fractals_stims/B.jpg,/static/Simple_RL/Stimuli/Fractals_stims/A.jpg,0.0,60.0,40.0,60.0,40.0,A,B,0.0,86.289,0.789,,
80,,rl_choice_confirmation,,html-keyboard-response,80,54459,0.0-1.0-108.0-0.0,0,0,6,,,,,,15.0,,,,,,,,,,,,,,,,,,,,,,,87.0,0.711,,
81,,isi,,html-keyboard-response,81,54561,0.0-1.0-110.0,0,0,6,,,,,,,,,,,,,,,,,,,,,,,,,,,,,88.0,1.0,,
82,,feedback,,html-keyboard-response,82,55563,0.0-1.0-111.0-0.0,0,0,6,,,,,,15.0,,,,,,,,,,,,,,,,,,,,,,,89.0,1.0,,
83,,iti,,html-keyboard-response,83,55664,0.0-1.0-112.0,0,0,6,,,,,,,,,,,,,,,,,,,,,,,,,,,,,90.0,1.0,,
84,,rl_choice,,html-keyboard-response,84,56250,0.0-1.0-114.0,0,0,6,,585.0,,,50.0,16.0,16.0,1.0,hard,1000.0,2000.0,1.0,60.0,40.0,80.0,60.0,A,B,/static/Simple_RL/Stimuli/Fractals_stims/A.jpg,/static/Simple_RL/Stimuli/Fractals_stims/B.jpg,1.0,60.0,40.0,80.0,60.0,A,B,0.0,90.585,0.585,,
85,,rl_choice_confirmation,,html-keyboard-response,85,57170,0.0-1.0-115.0-0.0,0,0,6,,,,,,16.0,,,,,,,,,,,,,,,,,,,,,,,91.5,0.915,,
86,,isi,,html-keyboard-response,86,57276,0.0-1.0-117.0,0,0,6,,,,,,,,,,,,,,,,,,,,,,,,,,,,,93.5,2.0,,
87,,feedback,,html-keyboard-response,87,58279,0.0-1.0-118.0-0.0,0,0,6,,,,,,16.0,,,,,,,,,,,,,,,,,,,,,,,94.5,1.0,,
88,,iti,,html-keyboard-response,88,58380,0.0-1.0-119.0,0,0,6,,,,,,,,,,,,,,,,,,,,,,,,,,,,,95.5,1.0,,
89,,rl_choice,,html-keyboard-response,89,58870,0.0-1.0-121.0,0,0,6,,488.0,,,51.0,17.0,17.0,1.0,hard,3000.0,2000.0,0.0,40.0,60.0,60.0,40.0,B,A,/static/Simple_RL/Stimuli/Fractals_stims/B.jpg,/static/Simple_RL/Stimuli/Fractals_stims/A.jpg,0.0,60.0,40.0,40.0,60.0,A,B,0.0,95.988,0.488,,
90,,rl_choice_confirmation,,html-keyboard-response,90,59885,0.0-1.0-122.0-0.0,0,0,6,,,,,,17.0,,,,,,,,,,,,,,,,,,,,,,,97.0,1.012,,
91,,isi,,html-keyboard-response,91,59986,0.0-1.0-124.0,0,0,6,,,,,,,,,,,,,,,,,,,,,,,,,,,,,99.0,2.0,,
92,,feedback,,html-keyboard-response,92,60988,0.0-1.0-125.0-0.0,0,0,6,,,,,,17.0,,,,,,,,,,,,,,,,,,,,,,,100.0,1.0,,
93,,iti,,html-keyboard-response,93,61093,0.0-1.0-126.0,0,0,6,,,,,,,,,,,,,,,,,,,,,,,,,,,,,103.0,3.0,,
94,,rl_choice,,html-keyboard-response,94,61569,0.0-1.0-128.0,0,0,6,,475.0,,,50.0,18.0,18.0,1.0,hard,1500.0,1500.0,1.0,60.0,40.0,40.0,20.0,A,B,/static/Simple_RL/Stimuli/Fractals_stims/A.jpg,/static/Simple_RL/Stimuli/Fractals_stims/B.jpg,1.0,60.0,40.0,40.0,20.0,A,B,0.0,103.475,0.475,,
95,,rl_choice_confirmation,,html-keyboard-response,95,62600,0.0-1.0-129.0-0.0,0,0,6,,,,,,18.0,,,,,,,,,,,,,,,,,,,,,,,104.5,1.025,,
96,,isi,,html-keyboard-response,96,62704,0.0-1.0-131.0,0,0,6,,,,,,,,,,,,,,,,,,,,,,,,,,,,,106.0,1.5,,
97,,feedback,,html-keyboard-response,97,63706,0.0-1.0-132.0-0.0,0,0,6,,,,,,18.0,,,,,,,,,,,,,,,,,,,,,,,107.0,1.0,,
98,,iti,,html-keyboard-response,98,63811,0.0-1.0-133.0,0,0,6,,,,,,,,,,,,,,,,,,,,,,,,,,,,,108.5,1.5,,
99,,rl_choice,,html-keyboard-response,99,64577,0.0-1.0-135.0,0,0,6,,765.0,,,51.0,19.0,19.0,1.0,easy,1500.0,3000.0,0.0,20.0,80.0,20.0,80.0,D,C,/static/Simple_RL/Stimuli/Fractals_stims/D.jpg,/static/Simple_RL/Stimuli/Fractals_stims/C.jpg,0.0,80.0,20.0,80.0,20.0,C,D,0.0,109.265,0.765,,
100,,rl_choice_confirmation,,html-keyboard-response,100,65319,0.0-1.0-136.0-0.0,0,0,6,,,,,,19.0,,,,,,,,,,,,,,,,,,,,,,,110.0,0.735,,
101,,isi,,html-keyboard-response,101,65420,0.0-1.0-138.0,0,0,6,,,,,,,,,,,,,,,,,,,,,,,,,,,,,113.0,3.0,,
102,,feedback,,html-keyboard-response,102,66425,0.0-1.0-139.0-0.0,0,0,6,,,,,,19.0,,,,,,,,,,,,,,,,,,,,,,,114.0,1.0,,
103,,iti,,html-keyboard-response,103,66530,0.0-1.0-140.0,0,0,6,,,,,,,,,,,,,,,,,,,,,,,,,,,,,115.5,1.5,,
104,,rl_choice,,html-keyboard-response,104,67203,0.0-1.0-142.0,0,0,6,,672.0,,,50.0,20.0,20.0,1.0,easy,1000.0,1000.0,1.0,80.0,20.0,100.0,20.0,C,D,/static/Simple_RL/Stimuli/Fractals_stims/C.jpg,/static/Simple_RL/Stimuli/Fractals_stims/D.jpg,1.0,80.0,20.0,100.0,20.0,C,D,0.0,116.17200000000001,0.672,,
105,,rl_choice_confirmation,,html-keyboard-response,105,68037,0.0-1.0-143.0-0.0,0,0,6,,,,,,20.0,,,,,,,,,,,,,,,,,,,,,,,117.0,0.828,,
106,,isi,,html-keyboard-response,106,68143,0.0-1.0-145.0,0,0,6,,,,,,,,,,,,,,,,,,,,,,,,,,,,,118.0,1.0,,
107,,feedback,,html-keyboard-response,107,69148,0.0-1.0-146.0-0.0,0,0,6,,,,,,20.0,,,,,,,,,,,,,,,,,,,,,,,119.0,1.0,,
108,,iti,,html-keyboard-response,108,69251,0.0-1.0-147.0,0,0,6,,,,,,,,,,,,,,,,,,,,,,,,,,,,,120.0,1.0,,
109,,rl_choice,,html-keyboard-response,109,69903,0.0-1.0-149.0,0,0,6,,650.0,,,51.0,21.0,21.0,1.0,easy,1500.0,1500.0,0.0,20.0,80.0,0.0,100.0,D,C,/static/Simple_RL/Stimuli/Fractals_stims/D.jpg,/static/Simple_RL/Stimuli/Fractals_stims/C.jpg,0.0,80.0,20.0,100.0,0.0,C,D,0.0,120.65,0.65,,
110,,rl_choice_confirmation,,html-keyboard-response,110,70759,0.0-1.0-150.0-0.0,0,0,6,,,,,,21.0,,,,,,,,,,,,,,,,,,,,,,,121.5,0.85,,
111,,isi,,html-keyboard-response,111,70863,0.0-1.0-152.0,0,0,6,,,,,,,,,,,,,,,,,,,,,,,,,,,,,123.0,1.5,,
112,,feedback,,html-keyboard-response,112,71869,0.0-1.0-153.0-0.0,0,0,6,,,,,,21.0,,,,,,,,,,,,,,,,,,,,,,,124.0,1.0,,
113,,iti,,html-keyboard-response,113,71970,0.0-1.0-154.0,0,0,6,,,,,,,,,,,,,,,,,,,,,,,,,,,,,125.5,1.5,,
114,,rl_choice,,html-keyboard-response,114,72923,0.0-1.0-156.0,0,0,6,,952.0,,,50.0,22.0,22.0,1.0,hard,1500.0,2000.0,0.0,40.0,60.0,40.0,80.0,B,A,/static/Simple_RL/Stimuli/Fractals_stims/B.jpg,/static/Simple_RL/Stimuli/Fractals_stims/A.jpg,1.0,40.0,60.0,40.0,80.0,B,A,0.0,126.45200000000001,0.9520000000000001,,
115,,rl_choice_confirmation,,html-keyboard-response,115,73478,0.0-1.0-157.0-0.0,0,0,6,,,,,,22.0,,,,,,,,,,,,,,,,,,,,,,,127.0,0.5479999999999999,,
116,,isi,,html-keyboard-response,116,73583,0.0-1.0-159.0,0,0,6,,,,,,,,,,,,,,,,,,,,,,,,,,,,,129.0,2.0,,
117,,feedback,,html-keyboard-response,117,74585,0.0-1.0-160.0-0.0,0,0,6,,,,,,22.0,,,,,,,,,,,,,,,,,,,,,,,130.0,1.0,,
118,,iti,,html-keyboard-response,118,74687,0.0-1.0-161.0,0,0,6,,,,,,,,,,,,,,,,,,,,,,,,,,,,,131.5,1.5,,
119,,rl_choice,,html-keyboard-response,119,75110,0.0-1.0-163.0,0,0,6,,422.0,,,51.0,23.0,23.0,1.0,hard,1000.0,1000.0,0.0,40.0,60.0,60.0,80.0,B,A,/static/Simple_RL/Stimuli/Fractals_stims/B.jpg,/static/Simple_RL/Stimuli/Fractals_stims/A.jpg,0.0,60.0,40.0,80.0,60.0,A,B,0.0,131.922,0.42200000000000004,,
120,,rl_choice_confirmation,,html-keyboard-response,120,76191,0.0-1.0-164.0-0.0,0,0,6,,,,,,23.0,,,,,,,,,,,,,,,,,,,,,,,133.0,1.078,,
121,,isi,,html-keyboard-response,121,76292,0.0-1.0-166.0,0,0,6,,,,,,,,,,,,,,,,,,,,,,,,,,,,,134.0,1.0,,
122,,feedback,,html-keyboard-response,122,77297,0.0-1.0-167.0-0.0,0,0,6,,,,,,23.0,,,,,,,,,,,,,,,,,,,,,,,135.0,1.0,,
123,,iti,,html-keyboard-response,123,77403,0.0-1.0-168.0,0,0,6,,,,,,,,,,,,,,,,,,,,,,,,,,,,,136.0,1.0,,
124,,rl_choice,,html-keyboard-response,124,77810,0.0-1.0-170.0,0,0,6,,406.0,,,50.0,24.0,24.0,1.0,hard,2000.0,1500.0,1.0,60.0,40.0,40.0,40.0,A,B,/static/Simple_RL/Stimuli/Fractals_stims/A.jpg,/static/Simple_RL/Stimuli/Fractals_stims/B.jpg,1.0,60.0,40.0,40.0,40.0,A,B,0.0,136.406,0.406,,
125,,rl_choice_confirmation,,html-keyboard-response,125,78909,0.0-1.0-171.0-0.0,0,0,6,,,,,,24.0,,,,,,,,,,,,,,,,,,,,,,,137.5,1.094,,
126,,isi,,html-keyboard-response,126,79010,0.0-1.0-173.0,0,0,6,,,,,,,,,,,,,,,,,,,,,,,,,,,,,139.0,1.5,,
127,,feedback,,html-keyboard-response,127,80015,0.0-1.0-174.0-0.0,0,0,6,,,,,,24.0,,,,,,,,,,,,,,,,,,,,,,,140.0,1.0,,
128,,iti,,html-keyboard-response,128,80120,0.0-1.0-175.0,0,0,6,,,,,,,,,,,,,,,,,,,,,,,,,,,,,142.0,2.0,,
129,,rl_choice,,html-keyboard-response,129,81066,0.0-1.0-177.0,0,0,6,,945.0,,,50.0,25.0,25.0,1.0,easy,2000.0,1000.0,1.0,80.0,20.0,60.0,20.0,C,D,/static/Simple_RL/Stimuli/Fractals_stims/C.jpg,/static/Simple_RL/Stimuli/Fractals_stims/D.jpg,1.0,80.0,20.0,60.0,20.0,C,D,0.0,142.945,0.945,,
130,,rl_choice_confirmation,,html-keyboard-response,130,81626,0.0-1.0-178.0-0.0,0,0,6,,,,,,25.0,,,,,,,,,,,,,,,,,,,,,,,143.5,0.555,,
131,,isi,,html-keyboard-response,131,81728,0.0-1.0-180.0,0,0,6,,,,,,,,,,,,,,,,,,,,,,,,,,,,,144.5,1.0,,
132,,feedback,,html-keyboard-response,132,82733,0.0-1.0-181.0-0.0,0,0,6,,,,,,25.0,,,,,,,,,,,,,,,,,,,,,,,145.5,1.0,,
133,,iti,,html-keyboard-response,133,82836,0.0-1.0-182.0,0,0,6,,,,,,,,,,,,,,,,,,,,,,,,,,,,,147.5,2.0,,
134,,rl_choice,,html-keyboard-response,134,83336,0.0-1.0-184.0,0,0,6,,499.0,,,51.0,26.0,26.0,1.0,hard,2000.0,2000.0,0.0,40.0,60.0,40.0,40.0,B,A,/static/Simple_RL/Stimuli/Fractals_stims/B.jpg,/static/Simple_RL/Stimuli/Fractals_stims/A.jpg,0.0,60.0,40.0,40.0,40.0,A,B,0.0,147.999,0.499,,
135,,rl_choice_confirmation,,html-keyboard-response,135,84342,0.0-1.0-185.0-0.0,0,0,6,,,,,,26.0,,,,,,,,,,,,,,,,,,,,,,,149.0,1.001,,
136,,isi,,html-keyboard-response,136,84443,0.0-1.0-187.0,0,0,6,,,,,,,,,,,,,,,,,,,,,,,,,,,,,151.0,2.0,,
137,,feedback,,html-keyboard-response,137,85448,0.0-1.0-188.0-0.0,0,0,6,,,,,,26.0,,,,,,,,,,,,,,,,,,,,,,,152.0,1.0,,
138,,iti,,html-keyboard-response,138,85552,0.0-1.0-189.0,0,0,6,,,,,,,,,,,,,,,,,,,,,,,,,,,,,154.0,2.0,,
139,,rl_choice,,html-keyboard-response,139,86210,0.0-1.0-191.0,0,0,6,,656.0,,,51.0,27.0,27.0,1.0,easy,1000.0,1000.0,0.0,20.0,80.0,20.0,80.0,D,C,/static/Simple_RL/Stimuli/Fractals_stims/D.jpg,/static/Simple_RL/Stimuli/Fractals_stims/C.jpg,0.0,80.0,20.0,80.0,20.0,C,D,0.0,154.656,0.6559999999999999,,
140,,rl_choice_confirmation,,html-keyboard-response,140,87059,0.0-1.0-192.0-0.0,0,0,6,,,,,,27.0,,,,,,,,,,,,,,,,,,,,,,,155.5,0.8440000000000001,,
141,,isi,,html-keyboard-response,141,87165,0.0-1.0-194.0,0,0,6,,,,,,,,,,,,,,,,,,,,,,,,,,,,,156.5,1.0,,
142,,feedback,,html-keyboard-response,142,88169,0.0-1.0-195.0-0.0,0,0,6,,,,,,27.0,,,,,,,,,,,,,,,,,,,,,,,157.5,1.0,,
143,,iti,,html-keyboard-response,143,88274,0.0-1.0-196.0,0,0,6,,,,,,,,,,,,,,,,,,,,,,,,,,,,,158.5,1.0,,
144,,rl_choice,,html-keyboard-response,144,88778,0.0-1.0-198.0,0,0,6,,502.0,,,50.0,28.0,28.0,1.0,easy,2000.0,3000.0,1.0,80.0,20.0,60.0,40.0,C,D,/static/Simple_RL/Stimuli/Fractals_stims/C.jpg,/static/Simple_RL/Stimuli/Fractals_stims/D.jpg,1.0,80.0,20.0,60.0,40.0,C,D,0.0,159.002,0.502,,
145,,rl_choice_confirmation,,html-keyboard-response,145,89780,0.0-1.0-199.0-0.0,0,0,6,,,,,,28.0,,,,,,,,,,,,,,,,,,,,,,,160.0,0.998,,
146,,isi,,html-keyboard-response,146,89883,0.0-1.0-201.0,0,0,6,,,,,,,,,,,,,,,,,,,,,,,,,,,,,163.0,3.0,,
147,,feedback,,html-keyboard-response,147,90887,0.0-1.0-202.0-0.0,0,0,6,,,,,,28.0,,,,,,,,,,,,,,,,,,,,,,,164.0,1.0,,
148,,iti,,html-keyboard-response,148,90992,0.0-1.0-203.0,0,0,6,,,,,,,,,,,,,,,,,,,,,,,,,,,,,166.0,2.0,,
149,,rl_choice,,html-keyboard-response,149,91505,0.0-1.0-205.0,0,0,6,,512.0,,,50.0,29.0,29.0,1.0,hard,1000.0,1500.0,1.0,60.0,40.0,60.0,20.0,A,B,/static/Simple_RL/Stimuli/Fractals_stims/A.jpg,/static/Simple_RL/Stimuli/Fractals_stims/B.jpg,1.0,60.0,40.0,60.0,20.0,A,B,0.0,166.512,0.512,,
150,,rl_choice_confirmation,,html-keyboard-response,150,92499,0.0-1.0-206.0-0.0,0,0,6,,,,,,29.0,,,,,,,,,,,,,,,,,,,,,,,167.5,0.988,,
151,,isi,,html-keyboard-response,151,92603,0.0-1.0-208.0,0,0,6,,,,,,,,,,,,,,,,,,,,,,,,,,,,,169.0,1.5,,
152,,feedback,,html-keyboard-response,152,93610,0.0-1.0-209.0-0.0,0,0,6,,,,,,29.0,,,,,,,,,,,,,,,,,,,,,,,170.0,1.0,,
153,,iti,,html-keyboard-response,153,93716,0.0-1.0-210.0,0,0,6,,,,,,,,,,,,,,,,,,,,,,,,,,,,,171.0,1.0,,
154,,rl_choice,,html-keyboard-response,154,94243,0.0-1.0-212.0,0,0,6,,526.0,,,50.0,30.0,30.0,1.0,hard,1500.0,1000.0,1.0,60.0,40.0,60.0,40.0,A,B,/static/Simple_RL/Stimuli/Fractals_stims/A.jpg,/static/Simple_RL/Stimuli/Fractals_stims/B.jpg,1.0,60.0,40.0,60.0,40.0,A,B,0.0,171.52599999999998,0.526,,
155,,rl_choice_confirmation,,html-keyboard-response,155,95220,0.0-1.0-213.0-0.0,0,0,6,,,,,,30.0,,,,,,,,,,,,,,,,,,,,,,,172.5,0.9740000000000001,,
156,,isi,,html-keyboard-response,156,95323,0.0-1.0-215.0,0,0,6,,,,,,,,,,,,,,,,,,,,,,,,,,,,,173.5,1.0,,
157,,feedback,,html-keyboard-response,157,96328,0.0-1.0-216.0-0.0,0,0,6,,,,,,30.0,,,,,,,,,,,,,,,,,,,,,,,174.5,1.0,,
158,,iti,,html-keyboard-response,158,96431,0.0-1.0-217.0,0,0,6,,,,,,,,,,,,,,,,,,,,,,,,,,,,,176.0,1.5,,
159,,rl_choice,,html-keyboard-response,159,97076,0.0-1.0-219.0,0,0,6,,644.0,,,50.0,31.0,31.0,1.0,easy,1000.0,1000.0,1.0,80.0,20.0,100.0,40.0,C,D,/static/Simple_RL/Stimuli/Fractals_stims/C.jpg,/static/Simple_RL/Stimuli/Fractals_stims/D.jpg,1.0,80.0,20.0,100.0,40.0,C,D,0.0,176.644,0.644,,
160,,rl_choice_confirmation,,html-keyboard-response,160,97938,0.0-1.0-220.0-0.0,0,0,6,,,,,,31.0,,,,,,,,,,,,,,,,,,,,,,,177.5,0.856,,
161,,isi,,html-keyboard-response,161,98042,0.0-1.0-222.0,0,0,6,,,,,,,,,,,,,,,,,,,,,,,,,,,,,178.5,1.0,,
162,,feedback,,html-keyboard-response,162,99049,0.0-1.0-223.0-0.0,0,0,6,,,,,,31.0,,,,,,,,,,,,,,,,,,,,,,,179.5,1.0,,
163,,iti,,html-keyboard-response,163,99153,0.0-1.0-224.0,0,0,6,,,,,,,,,,,,,,,,,,,,,,,,,,,,,180.5,1.0,,
164,,rl_choice,,html-keyboard-response,164,100110,0.0-1.0-226.0,0,0,6,,956.0,,,51.0,32.0,32.0,1.0,easy,3000.0,2000.0,0.0,20.0,80.0,0.0,80.0,D,C,/static/Simple_RL/Stimuli/Fractals_stims/D.jpg,/static/Simple_RL/Stimuli/Fractals_stims/C.jpg,0.0,80.0,20.0,80.0,0.0,C,D,0.0,181.456,0.956,,
165,,rl_choice_confirmation,,html-keyboard-response,165,100656,0.0-1.0-227.0-0.0,0,0,6,,,,,,32.0,,,,,,,,,,,,,,,,,,,,,,,182.0,0.544,,
166,,isi,,html-keyboard-response,166,100759,0.0-1.0-229.0,0,0,6,,,,,,,,,,,,,,,,,,,,,,,,,,,,,184.0,2.0,,
167,,feedback,,html-keyboard-response,167,101762,0.0-1.0-230.0-0.0,0,0,6,,,,,,32.0,,,,,,,,,,,,,,,,,,,,,,,185.0,1.0,,
168,,iti,,html-keyboard-response,168,101868,0.0-1.0-231.0,0,0,6,,,,,,,,,,,,,,,,,,,,,,,,,,,,,188.0,3.0,,
169,,rl_choice,,html-keyboard-response,169,102440,0.0-1.0-233.0,0,0,6,,569.0,,,50.0,33.0,33.0,1.0,hard,3500.0,1500.0,1.0,60.0,40.0,40.0,60.0,A,B,/static/Simple_RL/Stimuli/Fractals_stims/A.jpg,/static/Simple_RL/Stimuli/Fractals_stims/B.jpg,1.0,60.0,40.0,40.0,60.0,A,B,0.0,188.56900000000002,0.569,,
170,,rl_choice_confirmation,,html-keyboard-response,170,103375,0.0-1.0-234.0-0.0,0,0,6,,,,,,33.0,,,,,,,,,,,,,,,,,,,,,,,189.5,0.9309999999999999,,
171,,isi,,html-keyboard-response,171,103476,0.0-1.0-236.0,0,0,6,,,,,,,,,,,,,,,,,,,,,,,,,,,,,191.0,1.5,,
172,,feedback,,html-keyboard-response,172,104479,0.0-1.0-237.0-0.0,0,0,6,,,,,,33.0,,,,,,,,,,,,,,,,,,,,,,,192.0,1.0,,
173,,iti,,html-keyboard-response,173,104584,0.0-1.0-238.0,0,0,6,,,,,,,,,,,,,,,,,,,,,,,,,,,,,195.5,3.5,,
174,,rl_choice,,html-keyboard-response,174,105064,0.0-1.0-240.0,0,0,6,,479.0,,,51.0,34.0,34.0,1.0,hard,2000.0,3000.0,0.0,40.0,60.0,40.0,60.0,B,A,/static/Simple_RL/Stimuli/Fractals_stims/B.jpg,/static/Simple_RL/Stimuli/Fractals_stims/A.jpg,0.0,60.0,40.0,60.0,40.0,A,B,0.0,195.979,0.479,,
175,,rl_choice_confirmation,,html-keyboard-response,175,106088,0.0-1.0-241.0-0.0,0,0,6,,,,,,34.0,,,,,,,,,,,,,,,,,,,,,,,197.0,1.021,,
176,,isi,,html-keyboard-response,176,106193,0.0-1.0-243.0,0,0,6,,,,,,,,,,,,,,,,,,,,,,,,,,,,,200.0,3.0,,
177,,feedback,,html-keyboard-response,177,107196,0.0-1.0-244.0-0.0,0,0,6,,,,,,34.0,,,,,,,,,,,,,,,,,,,,,,,201.0,1.0,,
178,,iti,,html-keyboard-response,178,107302,0.0-1.0-245.0,0,0,6,,,,,,,,,,,,,,,,,,,,,,,,,,,,,203.0,2.0,,
179,,rl_choice,,html-keyboard-response,179,107765,0.0-1.0-247.0,0,0,6,,461.0,,,51.0,35.0,35.0,1.0,hard,1500.0,1000.0,0.0,40.0,60.0,20.0,60.0,B,A,/static/Simple_RL/Stimuli/Fractals_stims/B.jpg,/static/Simple_RL/Stimuli/Fractals_stims/A.jpg,0.0,60.0,40.0,60.0,20.0,A,B,0.0,203.46099999999998,0.461,,
180,,rl_choice_confirmation,,html-keyboard-response,180,108806,0.0-1.0-248.0-0.0,0,0,6,,,,,,35.0,,,,,,,,,,,,,,,,,,,,,,,204.5,1.0390000000000001,,
181,,isi,,html-keyboard-response,181,108910,0.0-1.0-250.0,0,0,6,,,,,,,,,,,,,,,,,,,,,,,,,,,,,205.5,1.0,,
182,,feedback,,html-keyboard-response,182,109914,0.0-1.0-251.0-0.0,0,0,6,,,,,,35.0,,,,,,,,,,,,,,,,,,,,,,,206.5,1.0,,
183,,iti,,html-keyboard-response,183,110019,0.0-1.0-252.0,0,0,6,,,,,,,,,,,,,,,,,,,,,,,,,,,,,208.0,1.5,,
184,,rl_choice,,html-keyboard-response,184,110451,0.0-1.0-254.0,0,0,6,,430.0,,,50.0,36.0,36.0,1.0,hard,1000.0,3500.0,0.0,40.0,60.0,40.0,60.0,B,A,/static/Simple_RL/Stimuli/Fractals_stims/B.jpg,/static/Simple_RL/Stimuli/Fractals_stims/A.jpg,1.0,40.0,60.0,40.0,60.0,B,A,0.0,208.43,0.43,,
185,,rl_choice_confirmation,,html-keyboard-response,185,111524,0.0-1.0-255.0-0.0,0,0,6,,,,,,36.0,,,,,,,,,,,,,,,,,,,,,,,209.5,1.07,,
186,,isi,,html-keyboard-response,186,111630,0.0-1.0-257.0,0,0,6,,,,,,,,,,,,,,,,,,,,,,,,,,,,,213.0,3.5,,
187,,feedback,,html-keyboard-response,187,112635,0.0-1.0-258.0-0.0,0,0,6,,,,,,36.0,,,,,,,,,,,,,,,,,,,,,,,214.0,1.0,,
188,,iti,,html-keyboard-response,188,112738,0.0-1.0-259.0,0,0,6,,,,,,,,,,,,,,,,,,,,,,,,,,,,,215.0,1.0,,
189,,rl_choice,,html-keyboard-response,189,113226,0.0-1.0-261.0,0,0,6,,487.0,,,50.0,37.0,37.0,1.0,hard,3000.0,1000.0,1.0,60.0,40.0,40.0,20.0,A,B,/static/Simple_RL/Stimuli/Fractals_stims/A.jpg,/static/Simple_RL/Stimuli/Fractals_stims/B.jpg,1.0,60.0,40.0,40.0,20.0,A,B,0.0,215.487,0.48700000000000004,,
190,,rl_choice_confirmation,,html-keyboard-response,190,114243,0.0-1.0-262.0-0.0,0,0,6,,,,,,37.0,,,,,,,,,,,,,,,,,,,,,,,216.5,1.013,,
191,,isi,,html-keyboard-response,191,114347,0.0-1.0-264.0,0,0,6,,,,,,,,,,,,,,,,,,,,,,,,,,,,,217.5,1.0,,
192,,feedback,,html-keyboard-response,192,115350,0.0-1.0-265.0-0.0,0,0,6,,,,,,37.0,,,,,,,,,,,,,,,,,,,,,,,218.5,1.0,,
193,,iti,,html-keyboard-response,193,115453,0.0-1.0-266.0,0,0,6,,,,,,,,,,,,,,,,,,,,,,,,,,,,,221.5,3.0,,
194,,rl_choice,,html-keyboard-response,194,115925,0.0-1.0-268.0,0,0,6,,471.0,,,50.0,38.0,38.0,1.0,hard,1000.0,1000.0,1.0,60.0,40.0,80.0,40.0,A,B,/static/Simple_RL/Stimuli/Fractals_stims/A.jpg,/static/Simple_RL/Stimuli/Fractals_stims/B.jpg,1.0,60.0,40.0,80.0,40.0,A,B,0.0,221.97099999999998,0.47100000000000003,,
195,,rl_choice_confirmation,,html-keyboard-response,195,116961,0.0-1.0-269.0-0.0,0,0,6,,,,,,38.0,,,,,,,,,,,,,,,,,,,,,,,223.0,1.0290000000000001,,
196,,isi,,html-keyboard-response,196,117067,0.0-1.0-271.0,0,0,6,,,,,,,,,,,,,,,,,,,,,,,,,,,,,224.0,1.0,,
197,,feedback,,html-keyboard-response,197,118073,0.0-1.0-272.0-0.0,0,0,6,,,,,,38.0,,,,,,,,,,,,,,,,,,,,,,,225.0,1.0,,
198,,iti,,html-keyboard-response,198,118179,0.0-1.0-273.0,0,0,6,,,,,,,,,,,,,,,,,,,,,,,,,,,,,226.0,1.0,,
199,,rl_choice,,html-keyboard-response,199,118560,0.0-1.0-275.0,0,0,6,,379.0,,,51.0,39.0,39.0,1.0,easy,1500.0,2000.0,0.0,20.0,80.0,20.0,60.0,D,C,/static/Simple_RL/Stimuli/Fractals_stims/D.jpg,/static/Simple_RL/Stimuli/Fractals_stims/C.jpg,0.0,80.0,20.0,60.0,20.0,C,D,0.0,226.37900000000002,0.379,,
200,,rl_choice_confirmation,,html-keyboard-response,200,119688,0.0-1.0-276.0-0.0,0,0,6,,,,,,39.0,,,,,,,,,,,,,,,,,,,,,,,227.5,1.121,,
201,,isi,,html-keyboard-response,201,119789,0.0-1.0-278.0,0,0,6,,,,,,,,,,,,,,,,,,,,,,,,,,,,,229.5,2.0,,
202,,feedback,,html-keyboard-response,202,120794,0.0-1.0-279.0-0.0,0,0,6,,,,,,39.0,,,,,,,,,,,,,,,,,,,,,,,230.5,1.0,,
203,,iti,,html-keyboard-response,203,120900,0.0-1.0-280.0,0,0,6,,,,,,,,,,,,,,,,,,,,,,,,,,,,,232.0,1.5,,
204,,block_over,,html-keyboard-response,204,123290,0.0-1.0-281.0-0.0,0,0,6,,2376.0,,,50.0,39.0,,,,,,,,,,,,,,,,,,,,,,,,,,
205,,start_run,,html-keyboard-response,205,124176,0.0-1.0-281.0-1.0,0,0,6,,886.0,,,84.0,,,,,,,,,,,,,,,,,,,,,,,,,,,
206,,rl_choice,,html-keyboard-response,206,124867,0.0-1.0-282.0,0,0,6,,688.0,,,50.0,40.0,40.0,2.0,hard,3000.0,1500.0,1.0,60.0,40.0,60.0,40.0,A,B,/static/Simple_RL/Stimuli/Fractals_stims/A.jpg,/static/Simple_RL/Stimuli/Fractals_stims/B.jpg,1.0,60.0,40.0,60.0,40.0,A,B,0.0,0.688,0.688,,
207,,rl_choice_confirmation,,html-keyboard-response,207,125684,0.0-1.0-283.0-0.0,0,0,6,,,,,,40.0,,,,,,,,,,,,,,,,,,,,,,,1.5,0.812,,
208,,isi,,html-keyboard-response,208,125786,0.0-1.0-285.0,0,0,6,,,,,,,,,,,,,,,,,,,,,,,,,,,,,3.0,1.5,,
209,,feedback,,html-keyboard-response,209,126789,0.0-1.0-286.0-0.0,0,0,6,,,,,,40.0,,,,,,,,,,,,,,,,,,,,,,,4.0,1.0,,
210,,iti,,html-keyboard-response,210,126891,0.0-1.0-287.0,0,0,6,,,,,,,,,,,,,,,,,,,,,,,,,,,,,7.0,3.0,,
211,,rl_choice,,html-keyboard-response,211,127692,0.0-1.0-289.0,0,0,6,,799.0,,,50.0,41.0,41.0,2.0,hard,2000.0,1500.0,0.0,40.0,60.0,40.0,60.0,B,A,/static/Simple_RL/Stimuli/Fractals_stims/B.jpg,/static/Simple_RL/Stimuli/Fractals_stims/A.jpg,1.0,40.0,60.0,40.0,60.0,B,A,0.0,7.7989999999999995,0.799,,
212,,rl_choice_confirmation,,html-keyboard-response,212,128399,0.0-1.0-290.0-0.0,0,0,6,,,,,,41.0,,,,,,,,,,,,,,,,,,,,,,,8.5,0.701,,
213,,isi,,html-keyboard-response,213,128504,0.0-1.0-292.0,0,0,6,,,,,,,,,,,,,,,,,,,,,,,,,,,,,10.0,1.5,,
214,,feedback,,html-keyboard-response,214,129508,0.0-1.0-293.0-0.0,0,0,6,,,,,,41.0,,,,,,,,,,,,,,,,,,,,,,,11.0,1.0,,
215,,iti,,html-keyboard-response,215,129609,0.0-1.0-294.0,0,0,6,,,,,,,,,,,,,,,,,,,,,,,,,,,,,13.0,2.0,,
216,,rl_choice,,html-keyboard-response,216,131114,0.0-1.0-296.0,0,0,6,,,,,,42.0,42.0,2.0,easy,1500.0,1000.0,0.0,20.0,80.0,20.0,60.0,D,C,/static/Simple_RL/Stimuli/Fractals_stims/D.jpg,/static/Simple_RL/Stimuli/Fractals_stims/C.jpg,,,,,,,,,14.5,1.5,1.0,
217,,rl_choice_warning,,html-keyboard-response,217,132115,0.0-1.0-298.0-0.0,1,0,6,,,,,,,,,,,,,,,,,,,,,,,,,,,,,15.5,1.0,,
218,,isi,,html-keyboard-response,218,132221,0.0-1.0-299.0,0,0,6,,,,,,,,,,,,,,,,,,,,,,,,,,,,,16.5,1.0,,
219,,iti,,html-keyboard-response,219,132324,0.0-1.0-301.0,0,0,6,,,,,,,,,,,,,,,,,,,,,,,,,,,,,18.0,1.5,,
220,,rl_choice,,html-keyboard-response,220,132532,0.0-1.0-303.0,0,0,6,,206.0,,,50.0,43.0,43.0,2.0,easy,1000.0,1500.0,1.0,80.0,20.0,80.0,20.0,C,D,/static/Simple_RL/Stimuli/Fractals_stims/C.jpg,/static/Simple_RL/Stimuli/Fractals_stims/D.jpg,1.0,80.0,20.0,80.0,20.0,C,D,0.0,18.206,0.20600000000000002,,
221,,rl_choice_confirmation,,html-keyboard-response,221,133829,0.0-1.0-304.0-0.0,0,0,6,,,,,,43.0,,,,,,,,,,,,,,,,,,,,,,,19.5,1.294,,
222,,isi,,html-keyboard-response,222,133934,0.0-1.0-306.0,0,0,6,,,,,,,,,,,,,,,,,,,,,,,,,,,,,21.0,1.5,,
223,,feedback,,html-keyboard-response,223,134939,0.0-1.0-307.0-0.0,0,0,6,,,,,,43.0,,,,,,,,,,,,,,,,,,,,,,,22.0,1.0,,
224,,iti,,html-keyboard-response,224,135041,0.0-1.0-308.0,0,0,6,,,,,,,,,,,,,,,,,,,,,,,,,,,,,23.0,1.0,,
225,,rl_choice,,html-keyboard-response,225,136308,0.0-1.0-310.0,0,0,6,,1266.0,,,50.0,44.0,44.0,2.0,easy,3000.0,1000.0,1.0,80.0,20.0,100.0,40.0,C,D,/static/Simple_RL/Stimuli/Fractals_stims/C.jpg,/static/Simple_RL/Stimuli/Fractals_stims/D.jpg,1.0,80.0,20.0,100.0,40.0,C,D,0.0,24.266,1.266,,
226,,rl_choice_confirmation,,html-keyboard-response,226,136547,0.0-1.0-311.0-0.0,0,0,6,,,,,,44.0,,,,,,,,,,,,,,,,,,,,,,,24.5,0.23399999999999999,,
227,,isi,,html-keyboard-response,227,136648,0.0-1.0-313.0,0,0,6,,,,,,,,,,,,,,,,,,,,,,,,,,,,,25.5,1.0,,
228,,feedback,,html-keyboard-response,228,137652,0.0-1.0-314.0-0.0,0,0,6,,,,,,44.0,,,,,,,,,,,,,,,,,,,,,,,26.5,1.0,,
229,,iti,,html-keyboard-response,229,137757,0.0-1.0-315.0,0,0,6,,,,,,,,,,,,,,,,,,,,,,,,,,,,,29.5,3.0,,
230,,rl_choice,,html-keyboard-response,230,138012,0.0-1.0-317.0,0,0,6,,254.0,,,51.0,45.0,45.0,2.0,hard,1500.0,1000.0,0.0,40.0,60.0,20.0,40.0,B,A,/static/Simple_RL/Stimuli/Fractals_stims/B.jpg,/static/Simple_RL/Stimuli/Fractals_stims/A.jpg,0.0,60.0,40.0,40.0,20.0,A,B,0.0,29.754,0.254,,
231,,rl_choice_confirmation,,html-keyboard-response,231,139263,0.0-1.0-318.0-0.0,0,0,6,,,,,,45.0,,,,,,,,,,,,,,,,,,,,,,,31.0,1.246,,
232,,isi,,html-keyboard-response,232,139366,0.0-1.0-320.0,0,0,6,,,,,,,,,,,,,,,,,,,,,,,,,,,,,32.0,1.0,,
233,,feedback,,html-keyboard-response,233,140369,0.0-1.0-321.0-0.0,0,0,6,,,,,,45.0,,,,,,,,,,,,,,,,,,,,,,,33.0,1.0,,
234,,iti,,html-keyboard-response,234,140474,0.0-1.0-322.0,0,0,6,,,,,,,,,,,,,,,,,,,,,,,,,,,,,34.5,1.5,,
235,,rl_choice,,html-keyboard-response,235,141110,0.0-1.0-324.0,0,0,6,,635.0,,,51.0,46.0,46.0,2.0,easy,1000.0,1000.0,0.0,20.0,80.0,20.0,100.0,D,C,/static/Simple_RL/Stimuli/Fractals_stims/D.jpg,/static/Simple_RL/Stimuli/Fractals_stims/C.jpg,0.0,80.0,20.0,100.0,20.0,C,D,0.0,35.135,0.635,,
236,,rl_choice_confirmation,,html-keyboard-response,236,141981,0.0-1.0-325.0-0.0,0,0,6,,,,,,46.0,,,,,,,,,,,,,,,,,,,,,,,36.0,0.865,,
237,,isi,,html-keyboard-response,237,142085,0.0-1.0-327.0,0,0,6,,,,,,,,,,,,,,,,,,,,,,,,,,,,,37.0,1.0,,
238,,feedback,,html-keyboard-response,238,143090,0.0-1.0-328.0-0.0,0,0,6,,,,,,46.0,,,,,,,,,,,,,,,,,,,,,,,38.0,1.0,,
239,,iti,,html-keyboard-response,239,143196,0.0-1.0-329.0,0,0,6,,,,,,,,,,,,,,,,,,,,,,,,,,,,,39.0,1.0,,
240,,rl_choice,,html-keyboard-response,240,143574,0.0-1.0-331.0,0,0,6,,376.0,,,51.0,47.0,47.0,2.0,easy,1000.0,1000.0,0.0,20.0,80.0,0.0,100.0,D,C,/static/Simple_RL/Stimuli/Fractals_stims/D.jpg,/static/Simple_RL/Stimuli/Fractals_stims/C.jpg,0.0,80.0,20.0,100.0,0.0,C,D,0.0,39.376,0.376,,
241,,rl_choice_confirmation,,html-keyboard-response,241,144702,0.0-1.0-332.0-0.0,0,0,6,,,,,,47.0,,,,,,,,,,,,,,,,,,,,,,,40.5,1.124,,
242,,isi,,html-keyboard-response,242,144805,0.0-1.0-334.0,0,0,6,,,,,,,,,,,,,,,,,,,,,,,,,,,,,41.5,1.0,,
243,,feedback,,html-keyboard-response,243,145808,0.0-1.0-335.0-0.0,0,0,6,,,,,,47.0,,,,,,,,,,,,,,,,,,,,,,,42.5,1.0,,
244,,iti,,html-keyboard-response,244,145909,0.0-1.0-336.0,0,0,6,,,,,,,,,,,,,,,,,,,,,,,,,,,,,43.5,1.0,,
245,,rl_choice,,html-keyboard-response,245,146441,0.0-1.0-338.0,0,0,6,,530.0,,,50.0,48.0,48.0,2.0,easy,1000.0,1500.0,1.0,80.0,20.0,60.0,40.0,C,D,/static/Simple_RL/Stimuli/Fractals_stims/C.jpg,/static/Simple_RL/Stimuli/Fractals_stims/D.jpg,1.0,80.0,20.0,60.0,40.0,C,D,0.0,44.03,0.53,,
246,,rl_choice_confirmation,,html-keyboard-response,246,147417,0.0-1.0-339.0-0.0,0,0,6,,,,,,48.0,,,,,,,,,,,,,,,,,,,,,,,45.0,0.97,,
247,,isi,,html-keyboard-response,247,147520,0.0-1.0-341.0,0,0,6,,,,,,,,,,,,,,,,,,,,,,,,,,,,,46.5,1.5,,
248,,feedback,,html-keyboard-response,248,148525,0.0-1.0-342.0-0.0,0,0,6,,,,,,48.0,,,,,,,,,,,,,,,,,,,,,,,47.5,1.0,,
249,,iti,,html-keyboard-response,249,148630,0.0-1.0-343.0,0,0,6,,,,,,,,,,,,,,,,,,,,,,,,,,,,,48.5,1.0,,
250,,rl_choice,,html-keyboard-response,250,149162,0.0-1.0-345.0,0,0,6,,531.0,,,50.0,49.0,49.0,2.0,hard,3500.0,1000.0,1.0,60.0,40.0,80.0,20.0,A,B,/static/Simple_RL/Stimuli/Fractals_stims/A.jpg,/static/Simple_RL/Stimuli/Fractals_stims/B.jpg,1.0,60.0,40.0,80.0,20.0,A,B,0.0,49.031000000000006,0.531,,
251,,rl_choice_confirmation,,html-keyboard-response,251,150136,0.0-1.0-346.0-0.0,0,0,6,,,,,,49.0,,,,,,,,,,,,,,,,,,,,,,,50.0,0.9690000000000001,,
252,,isi,,html-keyboard-response,252,150240,0.0-1.0-348.0,0,0,6,,,,,,,,,,,,,,,,,,,,,,,,,,,,,51.0,1.0,,
253,,feedback,,html-keyboard-response,253,151241,0.0-1.0-349.0-0.0,0,0,6,,,,,,49.0,,,,,,,,,,,,,,,,,,,,,,,52.0,1.0,,
254,,iti,,html-keyboard-response,254,151347,0.0-1.0-350.0,0,0,6,,,,,,,,,,,,,,,,,,,,,,,,,,,,,55.5,3.5,,
255,,rl_choice,,html-keyboard-response,255,151788,0.0-1.0-352.0,0,0,6,,440.0,,,51.0,50.0,50.0,2.0,hard,1500.0,1500.0,0.0,40.0,60.0,60.0,40.0,B,A,/static/Simple_RL/Stimuli/Fractals_stims/B.jpg,/static/Simple_RL/Stimuli/Fractals_stims/A.jpg,0.0,60.0,40.0,40.0,60.0,A,B,0.0,55.94,0.44,,
256,,rl_choice_confirmation,,html-keyboard-response,256,152852,0.0-1.0-353.0-0.0,0,0,6,,,,,,50.0,,,,,,,,,,,,,,,,,,,,,,,57.0,1.06,,
257,,isi,,html-keyboard-response,257,152957,0.0-1.0-355.0,0,0,6,,,,,,,,,,,,,,,,,,,,,,,,,,,,,58.5,1.5,,
258,,feedback,,html-keyboard-response,258,153963,0.0-1.0-356.0-0.0,0,0,6,,,,,,50.0,,,,,,,,,,,,,,,,,,,,,,,59.5,1.0,,
259,,iti,,html-keyboard-response,259,154066,0.0-1.0-357.0,0,0,6,,,,,,,,,,,,,,,,,,,,,,,,,,,,,61.0,1.5,,
260,,rl_choice,,html-keyboard-response,260,154634,0.0-1.0-359.0,0,0,6,,566.0,,,50.0,51.0,51.0,2.0,hard,1000.0,1000.0,1.0,60.0,40.0,80.0,40.0,A,B,/static/Simple_RL/Stimuli/Fractals_stims/A.jpg,/static/Simple_RL/Stimuli/Fractals_stims/B.jpg,1.0,60.0,40.0,80.0,40.0,A,B,0.0,61.566,0.5660000000000001,,
261,,rl_choice_confirmation,,html-keyboard-response,261,155574,0.0-1.0-360.0-0.0,0,0,6,,,,,,51.0,,,,,,,,,,,,,,,,,,,,,,,62.5,0.934,,
262,,isi,,html-keyboard-response,262,155675,0.0-1.0-362.0,0,0,6,,,,,,,,,,,,,,,,,,,,,,,,,,,,,63.5,1.0,,
263,,feedback,,html-keyboard-response,263,156677,0.0-1.0-363.0-0.0,0,0,6,,,,,,51.0,,,,,,,,,,,,,,,,,,,,,,,64.5,1.0,,
264,,iti,,html-keyboard-response,264,156782,0.0-1.0-364.0,0,0,6,,,,,,,,,,,,,,,,,,,,,,,,,,,,,65.5,1.0,,
265,,rl_choice,,html-keyboard-response,265,158152,0.0-1.0-366.0,0,0,6,,1368.0,,,51.0,52.0,52.0,2.0,easy,1500.0,2000.0,1.0,80.0,20.0,80.0,40.0,C,D,/static/Simple_RL/Stimuli/Fractals_stims/C.jpg,/static/Simple_RL/Stimuli/Fractals_stims/D.jpg,0.0,20.0,80.0,40.0,80.0,D,C,0.0,66.868,1.368,,
266,,rl_choice_confirmation,,html-keyboard-response,266,158286,0.0-1.0-367.0-0.0,0,0,6,,,,,,52.0,,,,,,,,,,,,,,,,,,,,,,,67.0,0.132,,
267,,isi,,html-keyboard-response,267,158389,0.0-1.0-369.0,0,0,6,,,,,,,,,,,,,,,,,,,,,,,,,,,,,69.0,2.0,,
268,,feedback,,html-keyboard-response,268,159392,0.0-1.0-370.0-0.0,0,0,6,,,,,,52.0,,,,,,,,,,,,,,,,,,,,,,,70.0,1.0,,
269,,iti,,html-keyboard-response,269,159498,0.0-1.0-371.0,0,0,6,,,,,,,,,,,,,,,,,,,,,,,,,,,,,71.5,1.5,,
270,,rl_choice,,html-keyboard-response,270,160201,0.0-1.0-373.0,0,0,6,,703.0,,,50.0,53.0,53.0,2.0,easy,2000.0,1500.0,0.0,20.0,80.0,20.0,60.0,D,C,/static/Simple_RL/Stimuli/Fractals_stims/D.jpg,/static/Simple_RL/Stimuli/Fractals_stims/C.jpg,1.0,20.0,80.0,20.0,60.0,D,C,0.0,72.203,0.703,,
271,,rl_choice_confirmation,,html-keyboard-response,271,161002,0.0-1.0-374.0-0.0,0,0,6,,,,,,53.0,,,,,,,,,,,,,,,,,,,,,,,73.0,0.797,,
272,,isi,,html-keyboard-response,272,161107,0.0-1.0-376.0,0,0,6,,,,,,,,,,,,,,,,,,,,,,,,,,,,,74.5,1.5,,
273,,feedback,,html-keyboard-response,273,162110,0.0-1.0-377.0-0.0,0,0,6,,,,,,53.0,,,,,,,,,,,,,,,,,,,,,,,75.5,1.0,,
274,,iti,,html-keyboard-response,274,162211,0.0-1.0-378.0,0,0,6,,,,,,,,,,,,,,,,,,,,,,,,,,,,,77.5,2.0,,
275,,rl_choice,,html-keyboard-response,275,162642,0.0-1.0-380.0,0,0,6,,430.0,,,50.0,54.0,54.0,2.0,hard,1000.0,1000.0,1.0,60.0,40.0,60.0,20.0,A,B,/static/Simple_RL/Stimuli/Fractals_stims/A.jpg,/static/Simple_RL/Stimuli/Fractals_stims/B.jpg,1.0,60.0,40.0,60.0,20.0,A,B,0.0,77.93,0.43,,
276,,rl_choice_confirmation,,html-keyboard-response,276,163713,0.0-1.0-381.0-0.0,0,0,6,,,,,,54.0,,,,,,,,,,,,,,,,,,,,,,,79.0,1.07,,
277,,isi,,html-keyboard-response,277,163817,0.0-1.0-383.0,0,0,6,,,,,,,,,,,,,,,,,,,,,,,,,,,,,80.0,1.0,,
278,,feedback,,html-keyboard-response,278,164818,0.0-1.0-384.0-0.0,0,0,6,,,,,,54.0,,,,,,,,,,,,,,,,,,,,,,,81.0,1.0,,
279,,iti,,html-keyboard-response,279,164923,0.0-1.0-385.0,0,0,6,,,,,,,,,,,,,,,,,,,,,,,,,,,,,82.0,1.0,,
280,,rl_choice,,html-keyboard-response,280,165428,0.0-1.0-387.0,0,0,6,,503.0,,,50.0,55.0,55.0,2.0,hard,2000.0,1000.0,1.0,60.0,40.0,80.0,60.0,A,B,/static/Simple_RL/Stimuli/Fractals_stims/A.jpg,/static/Simple_RL/Stimuli/Fractals_stims/B.jpg,1.0,60.0,40.0,80.0,60.0,A,B,0.0,82.50299999999999,0.503,,
281,,rl_choice_confirmation,,html-keyboard-response,281,166429,0.0-1.0-388.0-0.0,0,0,6,,,,,,55.0,,,,,,,,,,,,,,,,,,,,,,,83.5,0.997,,
282,,isi,,html-keyboard-response,282,166530,0.0-1.0-390.0,0,0,6,,,,,,,,,,,,,,,,,,,,,,,,,,,,,84.5,1.0,,
283,,feedback,,html-keyboard-response,283,167536,0.0-1.0-391.0-0.0,0,0,6,,,,,,55.0,,,,,,,,,,,,,,,,,,,,,,,85.5,1.0,,
284,,iti,,html-keyboard-response,284,167639,0.0-1.0-392.0,0,0,6,,,,,,,,,,,,,,,,,,,,,,,,,,,,,87.5,2.0,,
285,,rl_choice,,html-keyboard-response,285,168379,0.0-1.0-394.0,0,0,6,,739.0,,,50.0,56.0,56.0,2.0,hard,2000.0,1000.0,1.0,60.0,40.0,80.0,40.0,A,B,/static/Simple_RL/Stimuli/Fractals_stims/A.jpg,/static/Simple_RL/Stimuli/Fractals_stims/B.jpg,1.0,60.0,40.0,80.0,40.0,A,B,0.0,88.23899999999999,0.7390000000000001,,
286,,rl_choice_confirmation,,html-keyboard-response,286,169146,0.0-1.0-395.0-0.0,0,0,6,,,,,,56.0,,,,,,,,,,,,,,,,,,,,,,,89.0,0.7609999999999999,,
287,,isi,,html-keyboard-response,287,169249,0.0-1.0-397.0,0,0,6,,,,,,,,,,,,,,,,,,,,,,,,,,,,,90.0,1.0,,
288,,feedback,,html-keyboard-response,288,170254,0.0-1.0-398.0-0.0,0,0,6,,,,,,56.0,,,,,,,,,,,,,,,,,,,,,,,91.0,1.0,,
289,,iti,,html-keyboard-response,289,170356,0.0-1.0-399.0,0,0,6,,,,,,,,,,,,,,,,,,,,,,,,,,,,,93.0,2.0,,
290,,rl_choice,,html-keyboard-response,290,170867,0.0-1.0-401.0,0,0,6,,509.0,,,50.0,57.0,57.0,2.0,hard,1000.0,2000.0,1.0,60.0,40.0,60.0,40.0,A,B,/static/Simple_RL/Stimuli/Fractals_stims/A.jpg,/static/Simple_RL/Stimuli/Fractals_stims/B.jpg,1.0,60.0,40.0,60.0,40.0,A,B,0.0,93.509,0.509,,
291,,rl_choice_confirmation,,html-keyboard-response,291,171859,0.0-1.0-402.0-0.0,0,0,6,,,,,,57.0,,,,,,,,,,,,,,,,,,,,,,,94.5,0.991,,
292,,isi,,html-keyboard-response,292,171965,0.0-1.0-404.0,0,0,6,,,,,,,,,,,,,,,,,,,,,,,,,,,,,96.5,2.0,,
293,,feedback,,html-keyboard-response,293,172968,0.0-1.0-405.0-0.0,0,0,6,,,,,,57.0,,,,,,,,,,,,,,,,,,,,,,,97.5,1.0,,
294,,iti,,html-keyboard-response,294,173073,0.0-1.0-406.0,0,0,6,,,,,,,,,,,,,,,,,,,,,,,,,,,,,98.5,1.0,,
295,,rl_choice,,html-keyboard-response,295,173501,0.0-1.0-408.0,0,0,6,,427.0,,,50.0,58.0,58.0,2.0,easy,1500.0,3500.0,1.0,80.0,20.0,80.0,0.0,C,D,/static/Simple_RL/Stimuli/Fractals_stims/C.jpg,/static/Simple_RL/Stimuli/Fractals_stims/D.jpg,1.0,80.0,20.0,80.0,0.0,C,D,0.0,98.927,0.42700000000000005,,
296,,rl_choice_confirmation,,html-keyboard-response,296,174578,0.0-1.0-409.0-0.0,0,0,6,,,,,,58.0,,,,,,,,,,,,,,,,,,,,,,,100.0,1.073,,
297,,isi,,html-keyboard-response,297,174681,0.0-1.0-411.0,0,0,6,,,,,,,,,,,,,,,,,,,,,,,,,,,,,103.5,3.5,,
298,,feedback,,html-keyboard-response,298,175684,0.0-1.0-412.0-0.0,0,0,6,,,,,,58.0,,,,,,,,,,,,,,,,,,,,,,,104.5,1.0,,
299,,iti,,html-keyboard-response,299,175785,0.0-1.0-413.0,0,0,6,,,,,,,,,,,,,,,,,,,,,,,,,,,,,106.0,1.5,,
300,,rl_choice,,html-keyboard-response,300,176212,0.0-1.0-415.0,0,0,6,,426.0,,,50.0,59.0,59.0,2.0,hard,1000.0,2000.0,1.0,60.0,40.0,80.0,40.0,A,B,/static/Simple_RL/Stimuli/Fractals_stims/A.jpg,/static/Simple_RL/Stimuli/Fractals_stims/B.jpg,1.0,60.0,40.0,80.0,40.0,A,B,0.0,106.426,0.426,,
301,,rl_choice_confirmation,,html-keyboard-response,301,177292,0.0-1.0-416.0-0.0,0,0,6,,,,,,59.0,,,,,,,,,,,,,,,,,,,,,,,107.5,1.074,,
302,,isi,,html-keyboard-response,302,177398,0.0-1.0-418.0,0,0,6,,,,,,,,,,,,,,,,,,,,,,,,,,,,,109.5,2.0,,
303,,feedback,,html-keyboard-response,303,178401,0.0-1.0-419.0-0.0,0,0,6,,,,,,59.0,,,,,,,,,,,,,,,,,,,,,,,110.5,1.0,,
304,,iti,,html-keyboard-response,304,178506,0.0-1.0-420.0,0,0,6,,,,,,,,,,,,,,,,,,,,,,,,,,,,,111.5,1.0,,
305,,rl_choice,,html-keyboard-response,305,179016,0.0-1.0-422.0,0,0,6,,509.0,,,50.0,60.0,60.0,2.0,easy,2000.0,1500.0,1.0,80.0,20.0,80.0,20.0,C,D,/static/Simple_RL/Stimuli/Fractals_stims/C.jpg,/static/Simple_RL/Stimuli/Fractals_stims/D.jpg,1.0,80.0,20.0,80.0,20.0,C,D,0.0,112.009,0.509,,
306,,rl_choice_confirmation,,html-keyboard-response,306,180012,0.0-1.0-423.0-0.0,0,0,6,,,,,,60.0,,,,,,,,,,,,,,,,,,,,,,,113.0,0.991,,
307,,isi,,html-keyboard-response,307,180117,0.0-1.0-425.0,0,0,6,,,,,,,,,,,,,,,,,,,,,,,,,,,,,114.5,1.5,,
308,,feedback,,html-keyboard-response,308,181120,0.0-1.0-426.0-0.0,0,0,6,,,,,,60.0,,,,,,,,,,,,,,,,,,,,,,,115.5,1.0,,
309,,iti,,html-keyboard-response,309,181223,0.0-1.0-427.0,0,0,6,,,,,,,,,,,,,,,,,,,,,,,,,,,,,117.5,2.0,,
310,,rl_choice,,html-keyboard-response,310,181636,0.0-1.0-429.0,0,0,6,,413.0,,,51.0,61.0,61.0,2.0,hard,3000.0,3500.0,0.0,40.0,60.0,40.0,60.0,B,A,/static/Simple_RL/Stimuli/Fractals_stims/B.jpg,/static/Simple_RL/Stimuli/Fractals_stims/A.jpg,0.0,60.0,40.0,60.0,40.0,A,B,0.0,117.913,0.413,,
311,,rl_choice_confirmation,,html-keyboard-response,311,182729,0.0-1.0-430.0-0.0,0,0,6,,,,,,61.0,,,,,,,,,,,,,,,,,,,,,,,119.0,1.087,,
312,,isi,,html-keyboard-response,312,182832,0.0-1.0-432.0,0,0,6,,,,,,,,,,,,,,,,,,,,,,,,,,,,,122.5,3.5,,
313,,feedback,,html-keyboard-response,313,183835,0.0-1.0-433.0-0.0,0,0,6,,,,,,61.0,,,,,,,,,,,,,,,,,,,,,,,123.5,1.0,,
314,,iti,,html-keyboard-response,314,183936,0.0-1.0-434.0,0,0,6,,,,,,,,,,,,,,,,,,,,,,,,,,,,,126.5,3.0,,
315,,rl_choice,,html-keyboard-response,315,184382,0.0-1.0-436.0,0,0,6,,444.0,,,51.0,62.0,62.0,2.0,easy,3000.0,3000.0,0.0,20.0,80.0,20.0,80.0,D,C,/static/Simple_RL/Stimuli/Fractals_stims/D.jpg,/static/Simple_RL/Stimuli/Fractals_stims/C.jpg,0.0,80.0,20.0,80.0,20.0,C,D,0.0,126.944,0.444,,
316,,rl_choice_confirmation,,html-keyboard-response,316,185439,0.0-1.0-437.0-0.0,0,0,6,,,,,,62.0,,,,,,,,,,,,,,,,,,,,,,,128.0,1.056,,
317,,isi,,html-keyboard-response,317,185545,0.0-1.0-439.0,0,0,6,,,,,,,,,,,,,,,,,,,,,,,,,,,,,131.0,3.0,,
318,,feedback,,html-keyboard-response,318,186551,0.0-1.0-440.0-0.0,0,0,6,,,,,,62.0,,,,,,,,,,,,,,,,,,,,,,,132.0,1.0,,
319,,iti,,html-keyboard-response,319,186654,0.0-1.0-441.0,0,0,6,,,,,,,,,,,,,,,,,,,,,,,,,,,,,135.0,3.0,,
320,,rl_choice,,html-keyboard-response,320,187468,0.0-1.0-443.0,0,0,6,,813.0,,,50.0,63.0,63.0,2.0,easy,1500.0,1000.0,1.0,80.0,20.0,100.0,0.0,C,D,/static/Simple_RL/Stimuli/Fractals_stims/C.jpg,/static/Simple_RL/Stimuli/Fractals_stims/D.jpg,1.0,80.0,20.0,100.0,0.0,C,D,0.0,135.813,0.813,,
321,,rl_choice_confirmation,,html-keyboard-response,321,188162,0.0-1.0-444.0-0.0,0,0,6,,,,,,63.0,,,,,,,,,,,,,,,,,,,,,,,136.5,0.687,,
322,,isi,,html-keyboard-response,322,188267,0.0-1.0-446.0,0,0,6,,,,,,,,,,,,,,,,,,,,,,,,,,,,,137.5,1.0,,
323,,feedback,,html-keyboard-response,323,189270,0.0-1.0-447.0-0.0,0,0,6,,,,,,63.0,,,,,,,,,,,,,,,,,,,,,,,138.5,1.0,,
324,,iti,,html-keyboard-response,324,189375,0.0-1.0-448.0,0,0,6,,,,,,,,,,,,,,,,,,,,,,,,,,,,,140.0,1.5,,
325,,rl_choice,,html-keyboard-response,325,189531,0.0-1.0-450.0,0,0,6,,155.0,,,51.0,64.0,64.0,2.0,hard,1000.0,2000.0,0.0,40.0,60.0,20.0,60.0,B,A,/static/Simple_RL/Stimuli/Fractals_stims/B.jpg,/static/Simple_RL/Stimuli/Fractals_stims/A.jpg,0.0,60.0,40.0,60.0,20.0,A,B,0.0,140.155,0.155,,
326,,rl_choice_confirmation,,html-keyboard-response,326,190880,0.0-1.0-451.0-0.0,0,0,6,,,,,,64.0,,,,,,,,,,,,,,,,,,,,,,,141.5,1.345,,
327,,isi,,html-keyboard-response,327,190981,0.0-1.0-453.0,0,0,6,,,,,,,,,,,,,,,,,,,,,,,,,,,,,143.5,2.0,,
328,,feedback,,html-keyboard-response,328,191984,0.0-1.0-454.0-0.0,0,0,6,,,,,,64.0,,,,,,,,,,,,,,,,,,,,,,,144.5,1.0,,
329,,iti,,html-keyboard-response,329,192086,0.0-1.0-455.0,0,0,6,,,,,,,,,,,,,,,,,,,,,,,,,,,,,145.5,1.0,,
330,,rl_choice,,html-keyboard-response,330,192653,0.0-1.0-457.0,0,0,6,,566.0,,,51.0,65.0,65.0,2.0,easy,1000.0,2000.0,0.0,20.0,80.0,0.0,80.0,D,C,/static/Simple_RL/Stimuli/Fractals_stims/D.jpg,/static/Simple_RL/Stimuli/Fractals_stims/C.jpg,0.0,80.0,20.0,80.0,0.0,C,D,0.0,146.066,0.5660000000000001,,
331,,rl_choice_confirmation,,html-keyboard-response,331,193591,0.0-1.0-458.0-0.0,0,0,6,,,,,,65.0,,,,,,,,,,,,,,,,,,,,,,,147.0,0.934,,
332,,isi,,html-keyboard-response,332,193692,0.0-1.0-460.0,0,0,6,,,,,,,,,,,,,,,,,,,,,,,,,,,,,149.0,2.0,,
333,,feedback,,html-keyboard-response,333,194697,0.0-1.0-461.0-0.0,0,0,6,,,,,,65.0,,,,,,,,,,,,,,,,,,,,,,,150.0,1.0,,
334,,iti,,html-keyboard-response,334,194800,0.0-1.0-462.0,0,0,6,,,,,,,,,,,,,,,,,,,,,,,,,,,,,151.0,1.0,,
335,,rl_choice,,html-keyboard-response,335,195220,0.0-1.0-464.0,0,0,6,,419.0,,,50.0,66.0,66.0,2.0,easy,1000.0,1500.0,1.0,80.0,20.0,60.0,20.0,C,D,/static/Simple_RL/Stimuli/Fractals_stims/C.jpg,/static/Simple_RL/Stimuli/Fractals_stims/D.jpg,1.0,80.0,20.0,60.0,20.0,C,D,0.0,151.41899999999998,0.419,,
336,,rl_choice_confirmation,,html-keyboard-response,336,196303,0.0-1.0-465.0-0.0,0,0,6,,,,,,66.0,,,,,,,,,,,,,,,,,,,,,,,152.5,1.081,,
337,,isi,,html-keyboard-response,337,196406,0.0-1.0-467.0,0,0,6,,,,,,,,,,,,,,,,,,,,,,,,,,,,,154.0,1.5,,
338,,feedback,,html-keyboard-response,338,197411,0.0-1.0-468.0-0.0,0,0,6,,,,,,66.0,,,,,,,,,,,,,,,,,,,,,,,155.0,1.0,,
339,,iti,,html-keyboard-response,339,197513,0.0-1.0-469.0,0,0,6,,,,,,,,,,,,,,,,,,,,,,,,,,,,,156.0,1.0,,
340,,rl_choice,,html-keyboard-response,340,199019,0.0-1.0-471.0,0,0,6,,,,,,67.0,67.0,2.0,easy,2000.0,2000.0,0.0,20.0,80.0,0.0,100.0,D,C,/static/Simple_RL/Stimuli/Fractals_stims/D.jpg,/static/Simple_RL/Stimuli/Fractals_stims/C.jpg,,,,,,,,,157.5,1.5,1.0,
341,,rl_choice_warning,,html-keyboard-response,341,200025,0.0-1.0-473.0-0.0,1,0,6,,,,,,,,,,,,,,,,,,,,,,,,,,,,,158.5,1.0,,
342,,isi,,html-keyboard-response,342,200127,0.0-1.0-474.0,0,0,6,,,,,,,,,,,,,,,,,,,,,,,,,,,,,160.5,2.0,,
343,,iti,,html-keyboard-response,343,200233,0.0-1.0-476.0,0,0,6,,,,,,,,,,,,,,,,,,,,,,,,,,,,,162.5,2.0,,
344,,rl_choice,,html-keyboard-response,344,200745,0.0-1.0-478.0,0,0,6,,511.0,,,51.0,68.0,68.0,2.0,easy,1000.0,2000.0,0.0,20.0,80.0,0.0,100.0,D,C,/static/Simple_RL/Stimuli/Fractals_stims/D.jpg,/static/Simple_RL/Stimuli/Fractals_stims/C.jpg,0.0,80.0,20.0,100.0,0.0,C,D,0.0,163.011,0.511,,
345,,rl_choice_confirmation,,html-keyboard-response,345,201741,0.0-1.0-479.0-0.0,0,0,6,,,,,,68.0,,,,,,,,,,,,,,,,,,,,,,,164.0,0.9890000000000001,,
346,,isi,,html-keyboard-response,346,201844,0.0-1.0-481.0,0,0,6,,,,,,,,,,,,,,,,,,,,,,,,,,,,,166.0,2.0,,
347,,feedback,,html-keyboard-response,347,202848,0.0-1.0-482.0-0.0,0,0,6,,,,,,68.0,,,,,,,,,,,,,,,,,,,,,,,167.0,1.0,,
348,,iti,,html-keyboard-response,348,202951,0.0-1.0-483.0,0,0,6,,,,,,,,,,,,,,,,,,,,,,,,,,,,,168.0,1.0,,
349,,rl_choice,,html-keyboard-response,349,203529,0.0-1.0-485.0,0,0,6,,577.0,,,51.0,69.0,69.0,2.0,hard,1500.0,3000.0,0.0,40.0,60.0,60.0,80.0,B,A,/static/Simple_RL/Stimuli/Fractals_stims/B.jpg,/static/Simple_RL/Stimuli/Fractals_stims/A.jpg,0.0,60.0,40.0,80.0,60.0,A,B,0.0,168.577,0.5770000000000001,,
350,,rl_choice_confirmation,,html-keyboard-response,350,204455,0.0-1.0-486.0-0.0,0,0,6,,,,,,69.0,,,,,,,,,,,,,,,,,,,,,,,169.5,0.9229999999999999,,
351,,isi,,html-keyboard-response,351,204556,0.0-1.0-488.0,0,0,6,,,,,,,,,,,,,,,,,,,,,,,,,,,,,172.5,3.0,,
352,,feedback,,html-keyboard-response,352,205560,0.0-1.0-489.0-0.0,0,0,6,,,,,,69.0,,,,,,,,,,,,,,,,,,,,,,,173.5,1.0,,
353,,iti,,html-keyboard-response,353,205665,0.0-1.0-490.0,0,0,6,,,,,,,,,,,,,,,,,,,,,,,,,,,,,175.0,1.5,,
354,,rl_choice,,html-keyboard-response,354,206047,0.0-1.0-492.0,0,0,6,,381.0,,,51.0,70.0,70.0,2.0,hard,1000.0,1500.0,0.0,40.0,60.0,20.0,80.0,B,A,/static/Simple_RL/Stimuli/Fractals_stims/B.jpg,/static/Simple_RL/Stimuli/Fractals_stims/A.jpg,0.0,60.0,40.0,80.0,20.0,A,B,0.0,175.38099999999997,0.381,,
355,,rl_choice_confirmation,,html-keyboard-response,355,207169,0.0-1.0-493.0-0.0,0,0,6,,,,,,70.0,,,,,,,,,,,,,,,,,,,,,,,176.5,1.119,,
356,,isi,,html-keyboard-response,356,207275,0.0-1.0-495.0,0,0,6,,,,,,,,,,,,,,,,,,,,,,,,,,,,,178.0,1.5,,
357,,feedback,,html-keyboard-response,357,208278,0.0-1.0-496.0-0.0,0,0,6,,,,,,70.0,,,,,,,,,,,,,,,,,,,,,,,179.0,1.0,,
358,,iti,,html-keyboard-response,358,208382,0.0-1.0-497.0,0,0,6,,,,,,,,,,,,,,,,,,,,,,,,,,,,,180.0,1.0,,
359,,rl_choice,,html-keyboard-response,359,208935,0.0-1.0-499.0,0,0,6,,552.0,,,51.0,71.0,71.0,2.0,easy,1500.0,1000.0,0.0,20.0,80.0,40.0,80.0,D,C,/static/Simple_RL/Stimuli/Fractals_stims/D.jpg,/static/Simple_RL/Stimuli/Fractals_stims/C.jpg,0.0,80.0,20.0,80.0,40.0,C,D,0.0,180.55200000000002,0.552,,
360,,rl_choice_confirmation,,html-keyboard-response,360,209889,0.0-1.0-500.0-0.0,0,0,6,,,,,,71.0,,,,,,,,,,,,,,,,,,,,,,,181.5,0.948,,
361,,isi,,html-keyboard-response,361,209993,0.0-1.0-502.0,0,0,6,,,,,,,,,,,,,,,,,,,,,,,,,,,,,182.5,1.0,,
362,,feedback,,html-keyboard-response,362,210996,0.0-1.0-503.0-0.0,0,0,6,,,,,,71.0,,,,,,,,,,,,,,,,,,,,,,,183.5,1.0,,
363,,iti,,html-keyboard-response,363,211102,0.0-1.0-504.0,0,0,6,,,,,,,,,,,,,,,,,,,,,,,,,,,,,185.0,1.5,,
364,,rl_choice,,html-keyboard-response,364,211787,0.0-1.0-506.0,0,0,6,,684.0,,,51.0,72.0,72.0,2.0,hard,1000.0,1000.0,0.0,40.0,60.0,40.0,40.0,B,A,/static/Simple_RL/Stimuli/Fractals_stims/B.jpg,/static/Simple_RL/Stimuli/Fractals_stims/A.jpg,0.0,60.0,40.0,40.0,40.0,A,B,0.0,185.68400000000003,0.684,,
365,,rl_choice_confirmation,,html-keyboard-response,365,212606,0.0-1.0-507.0-0.0,0,0,6,,,,,,72.0,,,,,,,,,,,,,,,,,,,,,,,186.5,0.816,,
366,,isi,,html-keyboard-response,366,212713,0.0-1.0-509.0,0,0,6,,,,,,,,,,,,,,,,,,,,,,,,,,,,,187.5,1.0,,
367,,feedback,,html-keyboard-response,367,213717,0.0-1.0-510.0-0.0,0,0,6,,,,,,72.0,,,,,,,,,,,,,,,,,,,,,,,188.5,1.0,,
368,,iti,,html-keyboard-response,368,213823,0.0-1.0-511.0,0,0,6,,,,,,,,,,,,,,,,,,,,,,,,,,,,,189.5,1.0,,
369,,rl_choice,,html-keyboard-response,369,214256,0.0-1.0-513.0,0,0,6,,432.0,,,51.0,73.0,73.0,2.0,hard,1000.0,1000.0,0.0,40.0,60.0,20.0,40.0,B,A,/static/Simple_RL/Stimuli/Fractals_stims/B.jpg,/static/Simple_RL/Stimuli/Fractals_stims/A.jpg,0.0,60.0,40.0,40.0,20.0,A,B,0.0,189.93200000000002,0.43200000000000005,,
370,,rl_choice_confirmation,,html-keyboard-response,370,215326,0.0-1.0-514.0-0.0,0,0,6,,,,,,73.0,,,,,,,,,,,,,,,,,,,,,,,191.0,1.068,,
371,,isi,,html-keyboard-response,371,215431,0.0-1.0-516.0,0,0,6,,,,,,,,,,,,,,,,,,,,,,,,,,,,,192.0,1.0,,
372,,feedback,,html-keyboard-response,372,216436,0.0-1.0-517.0-0.0,0,0,6,,,,,,73.0,,,,,,,,,,,,,,,,,,,,,,,193.0,1.0,,
373,,iti,,html-keyboard-response,373,216539,0.0-1.0-518.0,0,0,6,,,,,,,,,,,,,,,,,,,,,,,,,,,,,194.0,1.0,,
374,,rl_choice,,html-keyboard-response,374,216946,0.0-1.0-520.0,0,0,6,,405.0,,,51.0,74.0,74.0,2.0,hard,1500.0,2000.0,0.0,40.0,60.0,60.0,60.0,B,A,/static/Simple_RL/Stimuli/Fractals_stims/B.jpg,/static/Simple_RL/Stimuli/Fractals_stims/A.jpg,0.0,60.0,40.0,60.0,60.0,A,B,0.0,194.405,0.405,,
375,,rl_choice_confirmation,,html-keyboard-response,375,218043,0.0-1.0-521.0-0.0,0,0,6,,,,,,74.0,,,,,,,,,,,,,,,,,,,,,,,195.5,1.095,,
376,,isi,,html-keyboard-response,376,218148,0.0-1.0-523.0,0,0,6,,,,,,,,,,,,,,,,,,,,,,,,,,,,,197.5,2.0,,
377,,feedback,,html-keyboard-response,377,219154,0.0-1.0-524.0-0.0,0,0,6,,,,,,74.0,,,,,,,,,,,,,,,,,,,,,,,198.5,1.0,,
378,,iti,,html-keyboard-response,378,219255,0.0-1.0-525.0,0,0,6,,,,,,,,,,,,,,,,,,,,,,,,,,,,,200.0,1.5,,
379,,rl_choice,,html-keyboard-response,379,219758,0.0-1.0-527.0,0,0,6,,502.0,,,51.0,75.0,75.0,2.0,easy,2000.0,1000.0,0.0,20.0,80.0,0.0,60.0,D,C,/static/Simple_RL/Stimuli/Fractals_stims/D.jpg,/static/Simple_RL/Stimuli/Fractals_stims/C.jpg,0.0,80.0,20.0,60.0,0.0,C,D,0.0,200.502,0.502,,
380,,rl_choice_confirmation,,html-keyboard-response,380,220762,0.0-1.0-528.0-0.0,0,0,6,,,,,,75.0,,,,,,,,,,,,,,,,,,,,,,,201.5,0.998,,
381,,isi,,html-keyboard-response,381,220864,0.0-1.0-530.0,0,0,6,,,,,,,,,,,,,,,,,,,,,,,,,,,,,202.5,1.0,,
382,,feedback,,html-keyboard-response,382,221867,0.0-1.0-531.0-0.0,0,0,6,,,,,,75.0,,,,,,,,,,,,,,,,,,,,,,,203.5,1.0,,
383,,iti,,html-keyboard-response,383,221969,0.0-1.0-532.0,0,0,6,,,,,,,,,,,,,,,,,,,,,,,,,,,,,205.5,2.0,,
384,,rl_choice,,html-keyboard-response,384,222421,0.0-1.0-534.0,0,0,6,,451.0,,,51.0,76.0,76.0,2.0,easy,3500.0,3000.0,0.0,20.0,80.0,0.0,80.0,D,C,/static/Simple_RL/Stimuli/Fractals_stims/D.jpg,/static/Simple_RL/Stimuli/Fractals_stims/C.jpg,0.0,80.0,20.0,80.0,0.0,C,D,0.0,205.951,0.451,,
385,,rl_choice_confirmation,,html-keyboard-response,385,223474,0.0-1.0-535.0-0.0,0,0,6,,,,,,76.0,,,,,,,,,,,,,,,,,,,,,,,207.0,1.0490000000000002,,
386,,isi,,html-keyboard-response,386,223575,0.0-1.0-537.0,0,0,6,,,,,,,,,,,,,,,,,,,,,,,,,,,,,210.0,3.0,,
387,,feedback,,html-keyboard-response,387,224576,0.0-1.0-538.0-0.0,0,0,6,,,,,,76.0,,,,,,,,,,,,,,,,,,,,,,,211.0,1.0,,
388,,iti,,html-keyboard-response,388,224680,0.0-1.0-539.0,0,0,6,,,,,,,,,,,,,,,,,,,,,,,,,,,,,214.5,3.5,,
389,,rl_choice,,html-keyboard-response,389,225198,0.0-1.0-541.0,0,0,6,,516.0,,,50.0,77.0,77.0,2.0,easy,1000.0,1000.0,1.0,80.0,20.0,100.0,40.0,C,D,/static/Simple_RL/Stimuli/Fractals_stims/C.jpg,/static/Simple_RL/Stimuli/Fractals_stims/D.jpg,1.0,80.0,20.0,100.0,40.0,C,D,0.0,215.016,0.516,,
390,,rl_choice_confirmation,,html-keyboard-response,390,226185,0.0-1.0-542.0-0.0,0,0,6,,,,,,77.0,,,,,,,,,,,,,,,,,,,,,,,216.0,0.9840000000000001,,
391,,isi,,html-keyboard-response,391,226287,0.0-1.0-544.0,0,0,6,,,,,,,,,,,,,,,,,,,,,,,,,,,,,217.0,1.0,,
392,,feedback,,html-keyboard-response,392,227292,0.0-1.0-545.0-0.0,0,0,6,,,,,,77.0,,,,,,,,,,,,,,,,,,,,,,,218.0,1.0,,
393,,iti,,html-keyboard-response,393,227395,0.0-1.0-546.0,0,0,6,,,,,,,,,,,,,,,,,,,,,,,,,,,,,219.0,1.0,,
394,,rl_choice,,html-keyboard-response,394,228618,0.0-1.0-548.0,0,0,6,,1222.0,,,50.0,78.0,78.0,2.0,hard,2000.0,1500.0,1.0,60.0,40.0,40.0,60.0,A,B,/static/Simple_RL/Stimuli/Fractals_stims/A.jpg,/static/Simple_RL/Stimuli/Fractals_stims/B.jpg,1.0,60.0,40.0,40.0,60.0,A,B,0.0,220.222,1.222,,
395,,rl_choice_confirmation,,html-keyboard-response,395,228898,0.0-1.0-549.0-0.0,0,0,6,,,,,,78.0,,,,,,,,,,,,,,,,,,,,,,,220.5,0.278,,
396,,isi,,html-keyboard-response,396,229000,0.0-1.0-551.0,0,0,6,,,,,,,,,,,,,,,,,,,,,,,,,,,,,222.0,1.5,,
397,,feedback,,html-keyboard-response,397,230004,0.0-1.0-552.0-0.0,0,0,6,,,,,,78.0,,,,,,,,,,,,,,,,,,,,,,,223.0,1.0,,
398,,iti,,html-keyboard-response,398,230105,0.0-1.0-553.0,0,0,6,,,,,,,,,,,,,,,,,,,,,,,,,,,,,225.0,2.0,,
399,,rl_choice,,html-keyboard-response,399,230812,0.0-1.0-555.0,0,0,6,,706.0,,,51.0,79.0,79.0,2.0,hard,1500.0,3000.0,0.0,40.0,60.0,60.0,80.0,B,A,/static/Simple_RL/Stimuli/Fractals_stims/B.jpg,/static/Simple_RL/Stimuli/Fractals_stims/A.jpg,0.0,60.0,40.0,80.0,60.0,A,B,0.0,225.706,0.706,,
400,,rl_choice_confirmation,,html-keyboard-response,400,231613,0.0-1.0-556.0-0.0,0,0,6,,,,,,79.0,,,,,,,,,,,,,,,,,,,,,,,226.5,0.794,,
401,,isi,,html-keyboard-response,401,231717,0.0-1.0-558.0,0,0,6,,,,,,,,,,,,,,,,,,,,,,,,,,,,,229.5,3.0,,
402,,feedback,,html-keyboard-response,402,232720,0.0-1.0-559.0-0.0,0,0,6,,,,,,79.0,,,,,,,,,,,,,,,,,,,,,,,230.5,1.0,,
403,,iti,,html-keyboard-response,403,232821,0.0-1.0-560.0,0,0,6,,,,,,,,,,,,,,,,,,,,,,,,,,,,,232.0,1.5,,2.56
404,,final_tally,,html-keyboard-response,404,235477,0.0-2.0,0,0,6,,2655.0,,,50.0,,,,,,,,,,,,,,,,,,,,,,,,,,,
