,success,ttype,start_time,trial_type,trial_index,time_elapsed,internal_node_id,warning,missed_checkup,PID,view_history,rt,responses,repeat_instructions,key_press,index,trial_num,block,condition,iti,isi,high_group_on_left,left_group_value,right_group_value,left_item_value,right_item_value,left_img,right_img,left_img_path,right_img_path,left_chosen,chosen_group_value,unchosen_group_value,chosen_item_value,unchosen_item_value,chosen_img,unchosen_img,onset,duration,no_response,total_bonus_tally
0,True,full_screen,d06072022hr1440,fullscreen,0,2105,0.0-0.0,0,0,2000,,,,,,,,,,,,,,,,,,,,,,,,,,,,,,,
1,,size_instructions,,instructions,1,6698,0.0-1.0-0.0-0.0,0,0,2000,"[{""page_index"":0,""viewing_time"":3641},{""page_index"":1,""viewing_time"":5},{""page_index"":2,""viewing_time"":524},{""page_index"":3,""viewing_time"":132},{""page_index"":4,""viewing_time"":154},{""page_index"":5,""viewing_time"":137}]",4593.0,,,,,,,,,,,,,,,,,,,,,,,,,,,,,
2,,rl_comprehension_check,,survey-multi-choice,2,11806,0.0-1.0-0.0-1.0,0,0,2000,,5106.0,"{""Q0"":""True"",""Q1"":""True"",""Q2"":""pointer finger for left and middle finger for right""}",0.0,,,,,,,,,,,,,,,,,,,,,,,,,,,
3,,,,html-keyboard-response,3,13870,0.0-1.0-1.0,0,0,2000,,2062.0,,,50.0,,,,,,,,,,,,,,,,,,,,,,,,,,
4,,rl_choice,,html-keyboard-response,4,14020,0.0-1.0-2.0,0,0,2000,,149.0,,,50.0,0.0,0.0,1.0,hard,1000.0,2000.0,0.0,40.0,60.0,20.0,60.0,C,D,/static/Simple_RL/Stimuli/Fractals_stims/C.jpg,/static/Simple_RL/Stimuli/Fractals_stims/D.jpg,1.0,40.0,60.0,20.0,60.0,C,D,0.149,0.149,0.0,
5,,rl_choice_confirmation,,html-keyboard-response,5,15377,0.0-1.0-3.0-0.0,0,0,2000,,,,,,0.0,,1.0,,,,,,,,,,,,,,,,,,,,1.5,1.351,,
6,,isi,,html-keyboard-response,6,17384,0.0-1.0-5.0,0,0,2000,,,,,,0.0,,1.0,,,,,,,,,,,,,,,,,,,,3.5,2.0,,
7,,feedback,,html-keyboard-response,7,18389,0.0-1.0-6.0-0.0,0,0,2000,,,,,,0.0,,1.0,,,,,,,,,,,,,,,,,,,,4.5,1.0,,
8,,iti,,html-keyboard-response,8,19393,0.0-1.0-7.0,0,0,2000,,,,,,0.0,,1.0,,,,,,,,,,,,,,,,,,,,5.5,1.0,,
9,,rl_choice,,html-keyboard-response,9,19799,0.0-1.0-9.0,0,0,2000,,405.0,,,51.0,1.0,1.0,1.0,easy,1000.0,3000.0,1.0,80.0,20.0,100.0,40.0,B,A,/static/Simple_RL/Stimuli/Fractals_stims/B.jpg,/static/Simple_RL/Stimuli/Fractals_stims/A.jpg,0.0,20.0,80.0,40.0,100.0,A,B,5.905,0.405,0.0,
10,,rl_choice_confirmation,,html-keyboard-response,10,20899,0.0-1.0-10.0-0.0,0,0,2000,,,,,,1.0,,1.0,,,,,,,,,,,,,,,,,,,,7.0,1.095,,
11,,isi,,html-keyboard-response,11,23901,0.0-1.0-12.0,0,0,2000,,,,,,1.0,,1.0,,,,,,,,,,,,,,,,,,,,10.0,3.0,,
12,,feedback,,html-keyboard-response,12,24907,0.0-1.0-13.0-0.0,0,0,2000,,,,,,1.0,,1.0,,,,,,,,,,,,,,,,,,,,11.0,1.0,,
13,,iti,,html-keyboard-response,13,25912,0.0-1.0-14.0,0,0,2000,,,,,,1.0,,1.0,,,,,,,,,,,,,,,,,,,,12.0,1.0,,
14,,rl_choice,,html-keyboard-response,14,27417,0.0-1.0-16.0,0,0,2000,,,,,,2.0,2.0,1.0,hard,3000.0,1000.0,0.0,40.0,60.0,20.0,80.0,C,D,/static/Simple_RL/Stimuli/Fractals_stims/C.jpg,/static/Simple_RL/Stimuli/Fractals_stims/D.jpg,,,,,,,,13.5,1.5,1.0,
15,,rl_choice_warning,,html-keyboard-response,15,28423,0.0-1.0-18.0-0.0,0,0,2000,,,,,,2.0,,1.0,,,,,,,,,,,,,,,,,,,,14.5,1.0,,
16,,isi,,html-keyboard-response,16,29426,0.0-1.0-19.0,0,0,2000,,,,,,2.0,,1.0,,,,,,,,,,,,,,,,,,,,15.5,1.0,,
17,,iti,,html-keyboard-response,17,32431,0.0-1.0-21.0,0,0,2000,,,,,,2.0,,1.0,,,,,,,,,,,,,,,,,,,,18.5,3.0,,
18,,rl_choice,,html-keyboard-response,18,33937,0.0-1.0-23.0,0,0,2000,,,,,,3.0,3.0,1.0,hard,1000.0,3500.0,0.0,40.0,60.0,60.0,60.0,C,D,/static/Simple_RL/Stimuli/Fractals_stims/C.jpg,/static/Simple_RL/Stimuli/Fractals_stims/D.jpg,,,,,,,,20.0,1.5,1.0,
19,,rl_choice_warning,,html-keyboard-response,19,34943,0.0-1.0-25.0-0.0,0,0,2000,,,,,,3.0,,1.0,,,,,,,,,,,,,,,,,,,,21.0,1.0,,
20,,isi,,html-keyboard-response,20,38448,0.0-1.0-26.0,0,0,2000,,,,,,3.0,,1.0,,,,,,,,,,,,,,,,,,,,24.5,3.5,,
21,,iti,,html-keyboard-response,21,39450,0.0-1.0-28.0,0,0,2000,,,,,,3.0,,1.0,,,,,,,,,,,,,,,,,,,,25.5,1.0,,
22,,rl_choice,,html-keyboard-response,22,40954,0.0-1.0-30.0,0,0,2000,,,,,,4.0,4.0,1.0,hard,1500.0,3000.0,0.0,40.0,60.0,20.0,60.0,C,D,/static/Simple_RL/Stimuli/Fractals_stims/C.jpg,/static/Simple_RL/Stimuli/Fractals_stims/D.jpg,,,,,,,,27.0,1.5,1.0,
23,,rl_choice_warning,,html-keyboard-response,23,41957,0.0-1.0-32.0-0.0,0,0,2000,,,,,,4.0,,1.0,,,,,,,,,,,,,,,,,,,,28.0,1.0,,
24,,isi,,html-keyboard-response,24,44960,0.0-1.0-33.0,0,0,2000,,,,,,4.0,,1.0,,,,,,,,,,,,,,,,,,,,31.0,3.0,,
25,,iti,,html-keyboard-response,25,46464,0.0-1.0-35.0,0,0,2000,,,,,,4.0,,1.0,,,,,,,,,,,,,,,,,,,,32.5,1.5,,
26,,rl_choice,,html-keyboard-response,26,47968,0.0-1.0-37.0,0,0,2000,,,,,,5.0,5.0,1.0,easy,2000.0,2000.0,0.0,20.0,80.0,20.0,100.0,A,B,/static/Simple_RL/Stimuli/Fractals_stims/A.jpg,/static/Simple_RL/Stimuli/Fractals_stims/B.jpg,,,,,,,,34.0,1.5,1.0,
27,,rl_choice_warning,,html-keyboard-response,27,48971,0.0-1.0-39.0-0.0,0,0,2000,,,,,,5.0,,1.0,,,,,,,,,,,,,,,,,,,,35.0,1.0,,
28,,isi,,html-keyboard-response,28,50976,0.0-1.0-40.0,0,0,2000,,,,,,5.0,,1.0,,,,,,,,,,,,,,,,,,,,37.0,2.0,,
29,,iti,,html-keyboard-response,29,52981,0.0-1.0-42.0,0,0,2000,,,,,,5.0,,1.0,,,,,,,,,,,,,,,,,,,,39.0,2.0,,
30,,rl_choice,,html-keyboard-response,30,54487,0.0-1.0-44.0,0,0,2000,,,,,,6.0,6.0,1.0,hard,1000.0,1000.0,0.0,40.0,60.0,40.0,80.0,C,D,/static/Simple_RL/Stimuli/Fractals_stims/C.jpg,/static/Simple_RL/Stimuli/Fractals_stims/D.jpg,,,,,,,,40.5,1.5,1.0,
31,,rl_choice_warning,,html-keyboard-response,31,55493,0.0-1.0-46.0-0.0,0,0,2000,,,,,,6.0,,1.0,,,,,,,,,,,,,,,,,,,,41.5,1.0,,
32,,isi,,html-keyboard-response,32,56496,0.0-1.0-47.0,0,0,2000,,,,,,6.0,,1.0,,,,,,,,,,,,,,,,,,,,42.5,1.0,,
33,,iti,,html-keyboard-response,33,57499,0.0-1.0-49.0,0,0,2000,,,,,,6.0,,1.0,,,,,,,,,,,,,,,,,,,,43.5,1.0,,
34,,rl_choice,,html-keyboard-response,34,59001,0.0-1.0-51.0,0,0,2000,,,,,,7.0,7.0,1.0,hard,1500.0,1000.0,0.0,40.0,60.0,60.0,80.0,C,D,/static/Simple_RL/Stimuli/Fractals_stims/C.jpg,/static/Simple_RL/Stimuli/Fractals_stims/D.jpg,,,,,,,,45.0,1.5,1.0,
35,,rl_choice_warning,,html-keyboard-response,35,60005,0.0-1.0-53.0-0.0,0,0,2000,,,,,,7.0,,1.0,,,,,,,,,,,,,,,,,,,,46.0,1.0,,
36,,isi,,html-keyboard-response,36,61008,0.0-1.0-54.0,0,0,2000,,,,,,7.0,,1.0,,,,,,,,,,,,,,,,,,,,47.0,1.0,,
37,,iti,,html-keyboard-response,37,62512,0.0-1.0-56.0,0,0,2000,,,,,,7.0,,1.0,,,,,,,,,,,,,,,,,,,,48.5,1.5,,
38,,rl_choice,,html-keyboard-response,38,64016,0.0-1.0-58.0,0,0,2000,,,,,,8.0,8.0,1.0,easy,1500.0,2000.0,0.0,20.0,80.0,0.0,100.0,A,B,/static/Simple_RL/Stimuli/Fractals_stims/A.jpg,/static/Simple_RL/Stimuli/Fractals_stims/B.jpg,,,,,,,,50.0,1.5,1.0,
39,,rl_choice_warning,,html-keyboard-response,39,65019,0.0-1.0-60.0-0.0,0,0,2000,,,,,,8.0,,1.0,,,,,,,,,,,,,,,,,,,,51.0,1.0,,
40,,isi,,html-keyboard-response,40,67021,0.0-1.0-61.0,0,0,2000,,,,,,8.0,,1.0,,,,,,,,,,,,,,,,,,,,53.0,2.0,,
41,,iti,,html-keyboard-response,41,68523,0.0-1.0-63.0,0,0,2000,,,,,,8.0,,1.0,,,,,,,,,,,,,,,,,,,,54.5,1.5,,
42,,rl_choice,,html-keyboard-response,42,70027,0.0-1.0-65.0,0,0,2000,,,,,,9.0,9.0,1.0,easy,2000.0,1000.0,1.0,80.0,20.0,60.0,0.0,B,A,/static/Simple_RL/Stimuli/Fractals_stims/B.jpg,/static/Simple_RL/Stimuli/Fractals_stims/A.jpg,,,,,,,,56.0,1.5,1.0,
43,,rl_choice_warning,,html-keyboard-response,43,71030,0.0-1.0-67.0-0.0,0,0,2000,,,,,,9.0,,1.0,,,,,,,,,,,,,,,,,,,,57.0,1.0,,
44,,isi,,html-keyboard-response,44,72032,0.0-1.0-68.0,0,0,2000,,,,,,9.0,,1.0,,,,,,,,,,,,,,,,,,,,58.0,1.0,,
45,,iti,,html-keyboard-response,45,74038,0.0-1.0-70.0,0,0,2000,,,,,,9.0,,1.0,,,,,,,,,,,,,,,,,,,,60.0,2.0,,
46,,rl_choice,,html-keyboard-response,46,75543,0.0-1.0-72.0,0,0,2000,,,,,,10.0,10.0,1.0,hard,1000.0,1000.0,1.0,60.0,40.0,40.0,40.0,D,C,/static/Simple_RL/Stimuli/Fractals_stims/D.jpg,/static/Simple_RL/Stimuli/Fractals_stims/C.jpg,,,,,,,,61.5,1.5,1.0,
47,,rl_choice_warning,,html-keyboard-response,47,76548,0.0-1.0-74.0-0.0,0,0,2000,,,,,,10.0,,1.0,,,,,,,,,,,,,,,,,,,,62.5,1.0,,
48,,isi,,html-keyboard-response,48,77552,0.0-1.0-75.0,0,0,2000,,,,,,10.0,,1.0,,,,,,,,,,,,,,,,,,,,63.5,1.0,,
49,,iti,,html-keyboard-response,49,78555,0.0-1.0-77.0,0,0,2000,,,,,,10.0,,1.0,,,,,,,,,,,,,,,,,,,,64.5,1.0,,
50,,rl_choice,,html-keyboard-response,50,80058,0.0-1.0-79.0,0,0,2000,,,,,,11.0,11.0,1.0,easy,1000.0,3000.0,0.0,20.0,80.0,20.0,60.0,A,B,/static/Simple_RL/Stimuli/Fractals_stims/A.jpg,/static/Simple_RL/Stimuli/Fractals_stims/B.jpg,,,,,,,,66.0,1.5,1.0,
51,,rl_choice_warning,,html-keyboard-response,51,81062,0.0-1.0-81.0-0.0,0,0,2000,,,,,,11.0,,1.0,,,,,,,,,,,,,,,,,,,,67.0,1.0,,
52,,isi,,html-keyboard-response,52,84065,0.0-1.0-82.0,0,0,2000,,,,,,11.0,,1.0,,,,,,,,,,,,,,,,,,,,70.0,3.0,,
53,,iti,,html-keyboard-response,53,85067,0.0-1.0-84.0,0,0,2000,,,,,,11.0,,1.0,,,,,,,,,,,,,,,,,,,,71.0,1.0,,
54,,rl_choice,,html-keyboard-response,54,86571,0.0-1.0-86.0,0,0,2000,,,,,,12.0,12.0,1.0,easy,3000.0,1500.0,0.0,20.0,80.0,20.0,80.0,A,B,/static/Simple_RL/Stimuli/Fractals_stims/A.jpg,/static/Simple_RL/Stimuli/Fractals_stims/B.jpg,,,,,,,,72.5,1.5,1.0,
55,,rl_choice_warning,,html-keyboard-response,55,87577,0.0-1.0-88.0-0.0,0,0,2000,,,,,,12.0,,1.0,,,,,,,,,,,,,,,,,,,,73.5,1.0,,
56,,isi,,html-keyboard-response,56,89083,0.0-1.0-89.0,0,0,2000,,,,,,12.0,,1.0,,,,,,,,,,,,,,,,,,,,75.0,1.5,,
57,,iti,,html-keyboard-response,57,92087,0.0-1.0-91.0,0,0,2000,,,,,,12.0,,1.0,,,,,,,,,,,,,,,,,,,,78.0,3.0,,
58,,rl_choice,,html-keyboard-response,58,93590,0.0-1.0-93.0,0,0,2000,,,,,,13.0,13.0,1.0,hard,1000.0,2000.0,0.0,40.0,60.0,40.0,80.0,C,D,/static/Simple_RL/Stimuli/Fractals_stims/C.jpg,/static/Simple_RL/Stimuli/Fractals_stims/D.jpg,,,,,,,,79.5,1.5,1.0,
59,,rl_choice_warning,,html-keyboard-response,59,94595,0.0-1.0-95.0-0.0,0,0,2000,,,,,,13.0,,1.0,,,,,,,,,,,,,,,,,,,,80.5,1.0,,
60,,isi,,html-keyboard-response,60,96598,0.0-1.0-96.0,0,0,2000,,,,,,13.0,,1.0,,,,,,,,,,,,,,,,,,,,82.5,2.0,,
61,,iti,,html-keyboard-response,61,97600,0.0-1.0-98.0,0,0,2000,,,,,,13.0,,1.0,,,,,,,,,,,,,,,,,,,,83.5,1.0,,
62,,rl_choice,,html-keyboard-response,62,99104,0.0-1.0-100.0,0,0,2000,,,,,,14.0,14.0,1.0,easy,1500.0,1500.0,0.0,20.0,80.0,20.0,80.0,A,B,/static/Simple_RL/Stimuli/Fractals_stims/A.jpg,/static/Simple_RL/Stimuli/Fractals_stims/B.jpg,,,,,,,,85.0,1.5,1.0,
63,,rl_choice_warning,,html-keyboard-response,63,100107,0.0-1.0-102.0-0.0,0,0,2000,,,,,,14.0,,1.0,,,,,,,,,,,,,,,,,,,,86.0,1.0,,
64,,isi,,html-keyboard-response,64,101611,0.0-1.0-103.0,0,0,2000,,,,,,14.0,,1.0,,,,,,,,,,,,,,,,,,,,87.5,1.5,,
65,,iti,,html-keyboard-response,65,103115,0.0-1.0-105.0,0,0,2000,,,,,,14.0,,1.0,,,,,,,,,,,,,,,,,,,,89.0,1.5,,
66,,rl_choice,,html-keyboard-response,66,104620,0.0-1.0-107.0,0,0,2000,,,,,,15.0,15.0,1.0,hard,1500.0,2000.0,1.0,60.0,40.0,40.0,60.0,D,C,/static/Simple_RL/Stimuli/Fractals_stims/D.jpg,/static/Simple_RL/Stimuli/Fractals_stims/C.jpg,,,,,,,,90.5,1.5,1.0,
67,,rl_choice_warning,,html-keyboard-response,67,105622,0.0-1.0-109.0-0.0,0,0,2000,,,,,,15.0,,1.0,,,,,,,,,,,,,,,,,,,,91.5,1.0,,
68,,isi,,html-keyboard-response,68,107628,0.0-1.0-110.0,0,0,2000,,,,,,15.0,,1.0,,,,,,,,,,,,,,,,,,,,93.5,2.0,,
69,,iti,,html-keyboard-response,69,109131,0.0-1.0-112.0,0,0,2000,,,,,,15.0,,1.0,,,,,,,,,,,,,,,,,,,,95.0,1.5,,
70,,rl_choice,,html-keyboard-response,70,110635,0.0-1.0-114.0,0,0,2000,,,,,,16.0,16.0,1.0,hard,1000.0,1000.0,1.0,60.0,40.0,60.0,60.0,D,C,/static/Simple_RL/Stimuli/Fractals_stims/D.jpg,/static/Simple_RL/Stimuli/Fractals_stims/C.jpg,,,,,,,,96.5,1.5,1.0,
71,,rl_choice_warning,,html-keyboard-response,71,111638,0.0-1.0-116.0-0.0,0,0,2000,,,,,,16.0,,1.0,,,,,,,,,,,,,,,,,,,,97.5,1.0,,
72,,isi,,html-keyboard-response,72,112643,0.0-1.0-117.0,0,0,2000,,,,,,16.0,,1.0,,,,,,,,,,,,,,,,,,,,98.5,1.0,,
73,,iti,,html-keyboard-response,73,113649,0.0-1.0-119.0,0,0,2000,,,,,,16.0,,1.0,,,,,,,,,,,,,,,,,,,,99.5,1.0,,
74,,rl_choice,,html-keyboard-response,74,115153,0.0-1.0-121.0,0,0,2000,,,,,,17.0,17.0,1.0,easy,3000.0,1500.0,1.0,80.0,20.0,60.0,20.0,B,A,/static/Simple_RL/Stimuli/Fractals_stims/B.jpg,/static/Simple_RL/Stimuli/Fractals_stims/A.jpg,,,,,,,,101.0,1.5,1.0,
75,,rl_choice_warning,,html-keyboard-response,75,116155,0.0-1.0-123.0-0.0,0,0,2000,,,,,,17.0,,1.0,,,,,,,,,,,,,,,,,,,,102.0,1.0,,
76,,isi,,html-keyboard-response,76,117660,0.0-1.0-124.0,0,0,2000,,,,,,17.0,,1.0,,,,,,,,,,,,,,,,,,,,103.5,1.5,,
77,,iti,,html-keyboard-response,77,120662,0.0-1.0-126.0,0,0,2000,,,,,,17.0,,1.0,,,,,,,,,,,,,,,,,,,,106.5,3.0,,
78,,rl_choice,,html-keyboard-response,78,122166,0.0-1.0-128.0,0,0,2000,,,,,,18.0,18.0,1.0,hard,3500.0,1500.0,1.0,60.0,40.0,60.0,60.0,D,C,/static/Simple_RL/Stimuli/Fractals_stims/D.jpg,/static/Simple_RL/Stimuli/Fractals_stims/C.jpg,,,,,,,,108.0,1.5,1.0,
79,,rl_choice_warning,,html-keyboard-response,79,123169,0.0-1.0-130.0-0.0,0,0,2000,,,,,,18.0,,1.0,,,,,,,,,,,,,,,,,,,,109.0,1.0,,
80,,isi,,html-keyboard-response,80,124673,0.0-1.0-131.0,0,0,2000,,,,,,18.0,,1.0,,,,,,,,,,,,,,,,,,,,110.5,1.5,,
81,,iti,,html-keyboard-response,81,128177,0.0-1.0-133.0,0,0,2000,,,,,,18.0,,1.0,,,,,,,,,,,,,,,,,,,,114.0,3.5,,
82,,rl_choice,,html-keyboard-response,82,129682,0.0-1.0-135.0,0,0,2000,,,,,,19.0,19.0,1.0,hard,2000.0,1500.0,1.0,60.0,40.0,60.0,20.0,D,C,/static/Simple_RL/Stimuli/Fractals_stims/D.jpg,/static/Simple_RL/Stimuli/Fractals_stims/C.jpg,,,,,,,,115.5,1.5,1.0,
83,,rl_choice_warning,,html-keyboard-response,83,130688,0.0-1.0-137.0-0.0,0,0,2000,,,,,,19.0,,1.0,,,,,,,,,,,,,,,,,,,,116.5,1.0,,
84,,isi,,html-keyboard-response,84,132189,0.0-1.0-138.0,0,0,2000,,,,,,19.0,,1.0,,,,,,,,,,,,,,,,,,,,118.0,1.5,,
85,,iti,,html-keyboard-response,85,134193,0.0-1.0-140.0,0,0,2000,,,,,,19.0,,1.0,,,,,,,,,,,,,,,,,,,,120.0,2.0,,
86,,rl_choice,,html-keyboard-response,86,135697,0.0-1.0-142.0,0,0,2000,,,,,,20.0,20.0,1.0,easy,2000.0,1000.0,1.0,80.0,20.0,80.0,20.0,B,A,/static/Simple_RL/Stimuli/Fractals_stims/B.jpg,/static/Simple_RL/Stimuli/Fractals_stims/A.jpg,,,,,,,,121.5,1.5,1.0,
87,,rl_choice_warning,,html-keyboard-response,87,136699,0.0-1.0-144.0-0.0,0,0,2000,,,,,,20.0,,1.0,,,,,,,,,,,,,,,,,,,,122.5,1.0,,
88,,isi,,html-keyboard-response,88,137703,0.0-1.0-145.0,0,0,2000,,,,,,20.0,,1.0,,,,,,,,,,,,,,,,,,,,123.5,1.0,,
89,,iti,,html-keyboard-response,89,139708,0.0-1.0-147.0,0,0,2000,,,,,,20.0,,1.0,,,,,,,,,,,,,,,,,,,,125.5,2.0,,
90,,rl_choice,,html-keyboard-response,90,141212,0.0-1.0-149.0,0,0,2000,,,,,,21.0,21.0,1.0,easy,1500.0,2000.0,1.0,80.0,20.0,80.0,20.0,B,A,/static/Simple_RL/Stimuli/Fractals_stims/B.jpg,/static/Simple_RL/Stimuli/Fractals_stims/A.jpg,,,,,,,,127.0,1.5,1.0,
91,,rl_choice_warning,,html-keyboard-response,91,142214,0.0-1.0-151.0-0.0,0,0,2000,,,,,,21.0,,1.0,,,,,,,,,,,,,,,,,,,,128.0,1.0,,
92,,isi,,html-keyboard-response,92,144220,0.0-1.0-152.0,0,0,2000,,,,,,21.0,,1.0,,,,,,,,,,,,,,,,,,,,130.0,2.0,,
93,,iti,,html-keyboard-response,93,145724,0.0-1.0-154.0,0,0,2000,,,,,,21.0,,1.0,,,,,,,,,,,,,,,,,,,,131.5,1.5,,
94,,rl_choice,,html-keyboard-response,94,147228,0.0-1.0-156.0,0,0,2000,,,,,,22.0,22.0,1.0,easy,1000.0,1000.0,0.0,20.0,80.0,0.0,100.0,A,B,/static/Simple_RL/Stimuli/Fractals_stims/A.jpg,/static/Simple_RL/Stimuli/Fractals_stims/B.jpg,,,,,,,,133.0,1.5,1.0,
95,,rl_choice_warning,,html-keyboard-response,95,148230,0.0-1.0-158.0-0.0,0,0,2000,,,,,,22.0,,1.0,,,,,,,,,,,,,,,,,,,,134.0,1.0,,
96,,isi,,html-keyboard-response,96,149233,0.0-1.0-159.0,0,0,2000,,,,,,22.0,,1.0,,,,,,,,,,,,,,,,,,,,135.0,1.0,,
97,,iti,,html-keyboard-response,97,150239,0.0-1.0-161.0,0,0,2000,,,,,,22.0,,1.0,,,,,,,,,,,,,,,,,,,,136.0,1.0,,
98,,rl_choice,,html-keyboard-response,98,151745,0.0-1.0-163.0,0,0,2000,,,,,,23.0,23.0,1.0,hard,2000.0,1000.0,1.0,60.0,40.0,80.0,60.0,D,C,/static/Simple_RL/Stimuli/Fractals_stims/D.jpg,/static/Simple_RL/Stimuli/Fractals_stims/C.jpg,,,,,,,,137.5,1.5,1.0,
99,,rl_choice_warning,,html-keyboard-response,99,152748,0.0-1.0-165.0-0.0,0,0,2000,,,,,,23.0,,1.0,,,,,,,,,,,,,,,,,,,,138.5,1.0,,
100,,isi,,html-keyboard-response,100,153751,0.0-1.0-166.0,0,0,2000,,,,,,23.0,,1.0,,,,,,,,,,,,,,,,,,,,139.5,1.0,,
101,,iti,,html-keyboard-response,101,155756,0.0-1.0-168.0,0,0,2000,,,,,,23.0,,1.0,,,,,,,,,,,,,,,,,,,,141.5,2.0,,
102,,rl_choice,,html-keyboard-response,102,157260,0.0-1.0-170.0,0,0,2000,,,,,,24.0,24.0,1.0,hard,1000.0,3000.0,1.0,60.0,40.0,40.0,60.0,D,C,/static/Simple_RL/Stimuli/Fractals_stims/D.jpg,/static/Simple_RL/Stimuli/Fractals_stims/C.jpg,,,,,,,,143.0,1.5,1.0,
103,,rl_choice_warning,,html-keyboard-response,103,158263,0.0-1.0-172.0-0.0,0,0,2000,,,,,,24.0,,1.0,,,,,,,,,,,,,,,,,,,,144.0,1.0,,
104,,isi,,html-keyboard-response,104,161265,0.0-1.0-173.0,0,0,2000,,,,,,24.0,,1.0,,,,,,,,,,,,,,,,,,,,147.0,3.0,,
105,,iti,,html-keyboard-response,105,162268,0.0-1.0-175.0,0,0,2000,,,,,,24.0,,1.0,,,,,,,,,,,,,,,,,,,,148.0,1.0,,
106,,rl_choice,,html-keyboard-response,106,163772,0.0-1.0-177.0,0,0,2000,,,,,,25.0,25.0,1.0,hard,2000.0,1000.0,1.0,60.0,40.0,40.0,40.0,D,C,/static/Simple_RL/Stimuli/Fractals_stims/D.jpg,/static/Simple_RL/Stimuli/Fractals_stims/C.jpg,,,,,,,,149.5,1.5,1.0,
107,,rl_choice_warning,,html-keyboard-response,107,164777,0.0-1.0-179.0-0.0,0,0,2000,,,,,,25.0,,1.0,,,,,,,,,,,,,,,,,,,,150.5,1.0,,
108,,isi,,html-keyboard-response,108,165783,0.0-1.0-180.0,0,0,2000,,,,,,25.0,,1.0,,,,,,,,,,,,,,,,,,,,151.5,1.0,,
109,,iti,,html-keyboard-response,109,167788,0.0-1.0-182.0,0,0,2000,,,,,,25.0,,1.0,,,,,,,,,,,,,,,,,,,,153.5,2.0,,
110,,rl_choice,,html-keyboard-response,110,169292,0.0-1.0-184.0,0,0,2000,,,,,,26.0,26.0,1.0,easy,1000.0,1000.0,1.0,80.0,20.0,100.0,20.0,B,A,/static/Simple_RL/Stimuli/Fractals_stims/B.jpg,/static/Simple_RL/Stimuli/Fractals_stims/A.jpg,,,,,,,,155.0,1.5,1.0,
111,,rl_choice_warning,,html-keyboard-response,111,170295,0.0-1.0-186.0-0.0,0,0,2000,,,,,,26.0,,1.0,,,,,,,,,,,,,,,,,,,,156.0,1.0,,
112,,isi,,html-keyboard-response,112,171297,0.0-1.0-187.0,0,0,2000,,,,,,26.0,,1.0,,,,,,,,,,,,,,,,,,,,157.0,1.0,,
113,,iti,,html-keyboard-response,113,172300,0.0-1.0-189.0,0,0,2000,,,,,,26.0,,1.0,,,,,,,,,,,,,,,,,,,,158.0,1.0,,
114,,rl_choice,,html-keyboard-response,114,173804,0.0-1.0-191.0,0,0,2000,,,,,,27.0,27.0,1.0,hard,1000.0,1500.0,0.0,40.0,60.0,20.0,80.0,C,D,/static/Simple_RL/Stimuli/Fractals_stims/C.jpg,/static/Simple_RL/Stimuli/Fractals_stims/D.jpg,,,,,,,,159.5,1.5,1.0,
115,,rl_choice_warning,,html-keyboard-response,115,174808,0.0-1.0-193.0-0.0,0,0,2000,,,,,,27.0,,1.0,,,,,,,,,,,,,,,,,,,,160.5,1.0,,
116,,isi,,html-keyboard-response,116,176313,0.0-1.0-194.0,0,0,2000,,,,,,27.0,,1.0,,,,,,,,,,,,,,,,,,,,162.0,1.5,,
117,,iti,,html-keyboard-response,117,177319,0.0-1.0-196.0,0,0,2000,,,,,,27.0,,1.0,,,,,,,,,,,,,,,,,,,,163.0,1.0,,
118,,rl_choice,,html-keyboard-response,118,178823,0.0-1.0-198.0,0,0,2000,,,,,,28.0,28.0,1.0,hard,1500.0,1500.0,0.0,40.0,60.0,40.0,40.0,C,D,/static/Simple_RL/Stimuli/Fractals_stims/C.jpg,/static/Simple_RL/Stimuli/Fractals_stims/D.jpg,,,,,,,,164.5,1.5,1.0,
119,,rl_choice_warning,,html-keyboard-response,119,179826,0.0-1.0-200.0-0.0,0,0,2000,,,,,,28.0,,1.0,,,,,,,,,,,,,,,,,,,,165.5,1.0,,
120,,isi,,html-keyboard-response,120,181330,0.0-1.0-201.0,0,0,2000,,,,,,28.0,,1.0,,,,,,,,,,,,,,,,,,,,167.0,1.5,,
121,,iti,,html-keyboard-response,121,182834,0.0-1.0-203.0,0,0,2000,,,,,,28.0,,1.0,,,,,,,,,,,,,,,,,,,,168.5,1.5,,
122,,rl_choice,,html-keyboard-response,122,182917,0.0-1.0-205.0,0,0,2000,,82.0,,,50.0,29.0,29.0,1.0,easy,1000.0,1000.0,0.0,20.0,80.0,20.0,80.0,A,B,/static/Simple_RL/Stimuli/Fractals_stims/A.jpg,/static/Simple_RL/Stimuli/Fractals_stims/B.jpg,1.0,20.0,80.0,20.0,80.0,A,B,168.582,0.08199999999999999,0.0,
123,,rl_choice_confirmation,,html-keyboard-response,123,184338,0.0-1.0-206.0-0.0,0,0,2000,,,,,,29.0,,1.0,,,,,,,,,,,,,,,,,,,,170.0,1.4180000000000001,,
124,,isi,,html-keyboard-response,124,185340,0.0-1.0-208.0,0,0,2000,,,,,,29.0,,1.0,,,,,,,,,,,,,,,,,,,,171.0,1.0,,
125,,feedback,,html-keyboard-response,125,186343,0.0-1.0-209.0-0.0,0,0,2000,,,,,,29.0,,1.0,,,,,,,,,,,,,,,,,,,,172.0,1.0,,
126,,iti,,html-keyboard-response,126,187346,0.0-1.0-210.0,0,0,2000,,,,,,29.0,,1.0,,,,,,,,,,,,,,,,,,,,173.0,1.0,,
127,,rl_choice,,html-keyboard-response,127,188850,0.0-1.0-212.0,0,0,2000,,,,,,30.0,30.0,1.0,hard,1500.0,2000.0,1.0,60.0,40.0,80.0,60.0,D,C,/static/Simple_RL/Stimuli/Fractals_stims/D.jpg,/static/Simple_RL/Stimuli/Fractals_stims/C.jpg,,,,,,,,174.5,1.5,1.0,
128,,rl_choice_warning,,html-keyboard-response,128,189852,0.0-1.0-214.0-0.0,0,0,2000,,,,,,30.0,,1.0,,,,,,,,,,,,,,,,,,,,175.5,1.0,,
129,,isi,,html-keyboard-response,129,191857,0.0-1.0-215.0,0,0,2000,,,,,,30.0,,1.0,,,,,,,,,,,,,,,,,,,,177.5,2.0,,
130,,iti,,html-keyboard-response,130,193362,0.0-1.0-217.0,0,0,2000,,,,,,30.0,,1.0,,,,,,,,,,,,,,,,,,,,179.0,1.5,,
131,,rl_choice,,html-keyboard-response,131,194863,0.0-1.0-219.0,0,0,2000,,,,,,31.0,31.0,1.0,easy,1000.0,1500.0,1.0,80.0,20.0,80.0,0.0,B,A,/static/Simple_RL/Stimuli/Fractals_stims/B.jpg,/static/Simple_RL/Stimuli/Fractals_stims/A.jpg,,,,,,,,180.5,1.5,1.0,
132,,rl_choice_warning,,html-keyboard-response,132,195868,0.0-1.0-221.0-0.0,0,0,2000,,,,,,31.0,,1.0,,,,,,,,,,,,,,,,,,,,181.5,1.0,,
133,,isi,,html-keyboard-response,133,197372,0.0-1.0-222.0,0,0,2000,,,,,,31.0,,1.0,,,,,,,,,,,,,,,,,,,,183.0,1.5,,
134,,iti,,html-keyboard-response,134,198378,0.0-1.0-224.0,0,0,2000,,,,,,31.0,,1.0,,,,,,,,,,,,,,,,,,,,184.0,1.0,,
135,,rl_choice,,html-keyboard-response,135,199884,0.0-1.0-226.0,0,0,2000,,,,,,32.0,32.0,1.0,easy,1000.0,3500.0,1.0,80.0,20.0,60.0,20.0,B,A,/static/Simple_RL/Stimuli/Fractals_stims/B.jpg,/static/Simple_RL/Stimuli/Fractals_stims/A.jpg,,,,,,,,185.5,1.5,1.0,
136,,rl_choice_warning,,html-keyboard-response,136,200889,0.0-1.0-228.0-0.0,0,0,2000,,,,,,32.0,,1.0,,,,,,,,,,,,,,,,,,,,186.5,1.0,,
137,,isi,,html-keyboard-response,137,204391,0.0-1.0-229.0,0,0,2000,,,,,,32.0,,1.0,,,,,,,,,,,,,,,,,,,,190.0,3.5,,
138,,iti,,html-keyboard-response,138,205394,0.0-1.0-231.0,0,0,2000,,,,,,32.0,,1.0,,,,,,,,,,,,,,,,,,,,191.0,1.0,,
139,,rl_choice,,html-keyboard-response,139,206900,0.0-1.0-233.0,0,0,2000,,,,,,33.0,33.0,1.0,hard,2000.0,1500.0,1.0,60.0,40.0,40.0,20.0,D,C,/static/Simple_RL/Stimuli/Fractals_stims/D.jpg,/static/Simple_RL/Stimuli/Fractals_stims/C.jpg,,,,,,,,192.5,1.5,1.0,
140,,rl_choice_warning,,html-keyboard-response,140,207904,0.0-1.0-235.0-0.0,0,0,2000,,,,,,33.0,,1.0,,,,,,,,,,,,,,,,,,,,193.5,1.0,,
141,,isi,,html-keyboard-response,141,209410,0.0-1.0-236.0,0,0,2000,,,,,,33.0,,1.0,,,,,,,,,,,,,,,,,,,,195.0,1.5,,
142,,iti,,html-keyboard-response,142,211415,0.0-1.0-238.0,0,0,2000,,,,,,33.0,,1.0,,,,,,,,,,,,,,,,,,,,197.0,2.0,,
143,,rl_choice,,html-keyboard-response,143,212919,0.0-1.0-240.0,0,0,2000,,,,,,34.0,34.0,1.0,hard,3000.0,1000.0,0.0,40.0,60.0,20.0,60.0,C,D,/static/Simple_RL/Stimuli/Fractals_stims/C.jpg,/static/Simple_RL/Stimuli/Fractals_stims/D.jpg,,,,,,,,198.5,1.5,1.0,
144,,rl_choice_warning,,html-keyboard-response,144,213922,0.0-1.0-242.0-0.0,0,0,2000,,,,,,34.0,,1.0,,,,,,,,,,,,,,,,,,,,199.5,1.0,,
145,,isi,,html-keyboard-response,145,214925,0.0-1.0-243.0,0,0,2000,,,,,,34.0,,1.0,,,,,,,,,,,,,,,,,,,,200.5,1.0,,
146,,iti,,html-keyboard-response,146,217930,0.0-1.0-245.0,0,0,2000,,,,,,34.0,,1.0,,,,,,,,,,,,,,,,,,,,203.5,3.0,,
147,,rl_choice,,html-keyboard-response,147,219437,0.0-1.0-247.0,0,0,2000,,,,,,35.0,35.0,1.0,easy,1500.0,1000.0,1.0,80.0,20.0,80.0,20.0,B,A,/static/Simple_RL/Stimuli/Fractals_stims/B.jpg,/static/Simple_RL/Stimuli/Fractals_stims/A.jpg,,,,,,,,205.0,1.5,1.0,
148,,rl_choice_warning,,html-keyboard-response,148,220439,0.0-1.0-249.0-0.0,0,0,2000,,,,,,35.0,,1.0,,,,,,,,,,,,,,,,,,,,206.0,1.0,,
149,,isi,,html-keyboard-response,149,221441,0.0-1.0-250.0,0,0,2000,,,,,,35.0,,1.0,,,,,,,,,,,,,,,,,,,,207.0,1.0,,
150,,iti,,html-keyboard-response,150,222946,0.0-1.0-252.0,0,0,2000,,,,,,35.0,,1.0,,,,,,,,,,,,,,,,,,,,208.5,1.5,,
151,,rl_choice,,html-keyboard-response,151,224450,0.0-1.0-254.0,0,0,2000,,,,,,36.0,36.0,1.0,easy,1500.0,2000.0,1.0,80.0,20.0,80.0,40.0,B,A,/static/Simple_RL/Stimuli/Fractals_stims/B.jpg,/static/Simple_RL/Stimuli/Fractals_stims/A.jpg,,,,,,,,210.0,1.5,1.0,
152,,rl_choice_warning,,html-keyboard-response,152,225453,0.0-1.0-256.0-0.0,0,0,2000,,,,,,36.0,,1.0,,,,,,,,,,,,,,,,,,,,211.0,1.0,,
153,,isi,,html-keyboard-response,153,227458,0.0-1.0-257.0,0,0,2000,,,,,,36.0,,1.0,,,,,,,,,,,,,,,,,,,,213.0,2.0,,
154,,iti,,html-keyboard-response,154,228962,0.0-1.0-259.0,0,0,2000,,,,,,36.0,,1.0,,,,,,,,,,,,,,,,,,,,214.5,1.5,,
155,,rl_choice,,html-keyboard-response,155,230466,0.0-1.0-261.0,0,0,2000,,,,,,37.0,37.0,1.0,easy,2000.0,1000.0,1.0,80.0,20.0,60.0,40.0,B,A,/static/Simple_RL/Stimuli/Fractals_stims/B.jpg,/static/Simple_RL/Stimuli/Fractals_stims/A.jpg,,,,,,,,216.0,1.5,1.0,
156,,rl_choice_warning,,html-keyboard-response,156,231470,0.0-1.0-263.0-0.0,0,0,2000,,,,,,37.0,,1.0,,,,,,,,,,,,,,,,,,,,217.0,1.0,,
157,,isi,,html-keyboard-response,157,232477,0.0-1.0-264.0,0,0,2000,,,,,,37.0,,1.0,,,,,,,,,,,,,,,,,,,,218.0,1.0,,
158,,iti,,html-keyboard-response,158,234482,0.0-1.0-266.0,0,0,2000,,,,,,37.0,,1.0,,,,,,,,,,,,,,,,,,,,220.0,2.0,,
159,,rl_choice,,html-keyboard-response,159,235986,0.0-1.0-268.0,0,0,2000,,,,,,38.0,38.0,1.0,easy,3500.0,1500.0,0.0,20.0,80.0,40.0,60.0,A,B,/static/Simple_RL/Stimuli/Fractals_stims/A.jpg,/static/Simple_RL/Stimuli/Fractals_stims/B.jpg,,,,,,,,221.5,1.5,1.0,
160,,rl_choice_warning,,html-keyboard-response,160,236989,0.0-1.0-270.0-0.0,0,0,2000,,,,,,38.0,,1.0,,,,,,,,,,,,,,,,,,,,222.5,1.0,,
161,,isi,,html-keyboard-response,161,238493,0.0-1.0-271.0,0,0,2000,,,,,,38.0,,1.0,,,,,,,,,,,,,,,,,,,,224.0,1.5,,
162,,iti,,html-keyboard-response,162,241997,0.0-1.0-273.0,0,0,2000,,,,,,38.0,,1.0,,,,,,,,,,,,,,,,,,,,227.5,3.5,,
163,,rl_choice,,html-keyboard-response,163,243501,0.0-1.0-275.0,0,0,2000,,,,,,39.0,39.0,1.0,easy,1000.0,1000.0,1.0,80.0,20.0,60.0,20.0,B,A,/static/Simple_RL/Stimuli/Fractals_stims/B.jpg,/static/Simple_RL/Stimuli/Fractals_stims/A.jpg,,,,,,,,229.0,1.5,1.0,
164,,rl_choice_warning,,html-keyboard-response,164,244503,0.0-1.0-277.0-0.0,0,0,2000,,,,,,39.0,,1.0,,,,,,,,,,,,,,,,,,,,230.0,1.0,,
165,,isi,,html-keyboard-response,165,245508,0.0-1.0-278.0,0,0,2000,,,,,,39.0,,1.0,,,,,,,,,,,,,,,,,,,,231.0,1.0,,
166,,iti,,html-keyboard-response,166,246514,0.0-1.0-280.0,0,0,2000,,,,,,39.0,,1.0,,,,,,,,,,,,,,,,,,,,232.0,1.0,,
167,,block_over,,html-keyboard-response,167,254258,0.0-1.0-281.0-0.0,0,0,2000,,7743.0,,,50.0,39.0,,,,,,,,,,,,,,,,,,,,,,,,,
168,,start_run,,html-keyboard-response,168,255256,0.0-1.0-281.0-1.0,0,0,2000,,997.0,,,84.0,,,,,,,,,,,,,,,,,,,,,,,,,,
169,,rl_choice,,html-keyboard-response,169,256759,0.0-1.0-282.0,0,0,2000,,,,,,40.0,40.0,2.0,hard,1000.0,2000.0,0.0,40.0,60.0,40.0,40.0,C,D,/static/Simple_RL/Stimuli/Fractals_stims/C.jpg,/static/Simple_RL/Stimuli/Fractals_stims/D.jpg,,,,,,,,1.5,1.5,1.0,
170,,rl_choice_warning,,html-keyboard-response,170,257762,0.0-1.0-284.0-0.0,1,0,2000,,,,,,40.0,,2.0,,,,,,,,,,,,,,,,,,,,2.5,1.0,,
171,,isi,,html-keyboard-response,171,259767,0.0-1.0-285.0,0,0,2000,,,,,,40.0,,2.0,,,,,,,,,,,,,,,,,,,,4.5,2.0,,
172,,iti,,html-keyboard-response,172,260770,0.0-1.0-287.0,0,0,2000,,,,,,40.0,,2.0,,,,,,,,,,,,,,,,,,,,5.5,1.0,,
173,,rl_choice,,html-keyboard-response,173,262274,0.0-1.0-289.0,0,0,2000,,,,,,41.0,41.0,2.0,hard,1000.0,3000.0,1.0,60.0,40.0,40.0,60.0,D,C,/static/Simple_RL/Stimuli/Fractals_stims/D.jpg,/static/Simple_RL/Stimuli/Fractals_stims/C.jpg,,,,,,,,7.0,1.5,1.0,
174,,rl_choice_warning,,html-keyboard-response,174,263277,0.0-1.0-291.0-0.0,1,0,2000,,,,,,41.0,,2.0,,,,,,,,,,,,,,,,,,,,8.0,1.0,,
175,,isi,,html-keyboard-response,175,266280,0.0-1.0-292.0,0,0,2000,,,,,,41.0,,2.0,,,,,,,,,,,,,,,,,,,,11.0,3.0,,
176,,iti,,html-keyboard-response,176,267283,0.0-1.0-294.0,0,0,2000,,,,,,41.0,,2.0,,,,,,,,,,,,,,,,,,,,12.0,1.0,,
177,,rl_choice,,html-keyboard-response,177,268789,0.0-1.0-296.0,0,0,2000,,,,,,42.0,42.0,2.0,hard,1000.0,1000.0,0.0,40.0,60.0,40.0,40.0,C,D,/static/Simple_RL/Stimuli/Fractals_stims/C.jpg,/static/Simple_RL/Stimuli/Fractals_stims/D.jpg,,,,,,,,13.5,1.5,1.0,
178,,rl_choice_warning,,html-keyboard-response,178,269794,0.0-1.0-298.0-0.0,1,0,2000,,,,,,42.0,,2.0,,,,,,,,,,,,,,,,,,,,14.5,1.0,,
179,,isi,,html-keyboard-response,179,270800,0.0-1.0-299.0,0,0,2000,,,,,,42.0,,2.0,,,,,,,,,,,,,,,,,,,,15.5,1.0,,
180,,iti,,html-keyboard-response,180,271805,0.0-1.0-301.0,0,0,2000,,,,,,42.0,,2.0,,,,,,,,,,,,,,,,,,,,16.5,1.0,,
181,,rl_choice,,html-keyboard-response,181,273309,0.0-1.0-303.0,0,0,2000,,,,,,43.0,43.0,2.0,easy,1500.0,2000.0,0.0,20.0,80.0,0.0,60.0,A,B,/static/Simple_RL/Stimuli/Fractals_stims/A.jpg,/static/Simple_RL/Stimuli/Fractals_stims/B.jpg,,,,,,,,18.0,1.5,1.0,
182,,rl_choice_warning,,html-keyboard-response,182,274311,0.0-1.0-305.0-0.0,1,0,2000,,,,,,43.0,,2.0,,,,,,,,,,,,,,,,,,,,19.0,1.0,,
183,,isi,,html-keyboard-response,183,276316,0.0-1.0-306.0,0,0,2000,,,,,,43.0,,2.0,,,,,,,,,,,,,,,,,,,,21.0,2.0,,
184,,iti,,html-keyboard-response,184,277821,0.0-1.0-308.0,0,0,2000,,,,,,43.0,,2.0,,,,,,,,,,,,,,,,,,,,22.5,1.5,,
185,,rl_choice,,html-keyboard-response,185,279328,0.0-1.0-310.0,0,0,2000,,,,,,44.0,44.0,2.0,hard,1000.0,1500.0,0.0,40.0,60.0,60.0,60.0,C,D,/static/Simple_RL/Stimuli/Fractals_stims/C.jpg,/static/Simple_RL/Stimuli/Fractals_stims/D.jpg,,,,,,,,24.0,1.5,1.0,
186,,rl_choice_warning,,html-keyboard-response,186,280333,0.0-1.0-312.0-0.0,1,0,2000,,,,,,44.0,,2.0,,,,,,,,,,,,,,,,,,,,25.0,1.0,,
187,,isi,,html-keyboard-response,187,281837,0.0-1.0-313.0,0,0,2000,,,,,,44.0,,2.0,,,,,,,,,,,,,,,,,,,,26.5,1.5,,
188,,iti,,html-keyboard-response,188,282840,0.0-1.0-315.0,0,0,2000,,,,,,44.0,,2.0,,,,,,,,,,,,,,,,,,,,27.5,1.0,,
189,,rl_choice,,html-keyboard-response,189,284344,0.0-1.0-317.0,0,0,2000,,,,,,45.0,45.0,2.0,hard,2000.0,2000.0,0.0,40.0,60.0,40.0,60.0,C,D,/static/Simple_RL/Stimuli/Fractals_stims/C.jpg,/static/Simple_RL/Stimuli/Fractals_stims/D.jpg,,,,,,,,29.0,1.5,1.0,
190,,rl_choice_warning,,html-keyboard-response,190,285347,0.0-1.0-319.0-0.0,1,0,2000,,,,,,45.0,,2.0,,,,,,,,,,,,,,,,,,,,30.0,1.0,,
191,,isi,,html-keyboard-response,191,287352,0.0-1.0-320.0,0,0,2000,,,,,,45.0,,2.0,,,,,,,,,,,,,,,,,,,,32.0,2.0,,
192,,iti,,html-keyboard-response,192,289357,0.0-1.0-322.0,0,0,2000,,,,,,45.0,,2.0,,,,,,,,,,,,,,,,,,,,34.0,2.0,,
193,,rl_choice,,html-keyboard-response,193,290861,0.0-1.0-324.0,0,0,2000,,,,,,46.0,46.0,2.0,hard,2000.0,2000.0,0.0,40.0,60.0,40.0,40.0,C,D,/static/Simple_RL/Stimuli/Fractals_stims/C.jpg,/static/Simple_RL/Stimuli/Fractals_stims/D.jpg,,,,,,,,35.5,1.5,1.0,
194,,rl_choice_warning,,html-keyboard-response,194,291863,0.0-1.0-326.0-0.0,1,0,2000,,,,,,46.0,,2.0,,,,,,,,,,,,,,,,,,,,36.5,1.0,,
195,,isi,,html-keyboard-response,195,293869,0.0-1.0-327.0,0,0,2000,,,,,,46.0,,2.0,,,,,,,,,,,,,,,,,,,,38.5,2.0,,
196,,iti,,html-keyboard-response,196,295875,0.0-1.0-329.0,0,0,2000,,,,,,46.0,,2.0,,,,,,,,,,,,,,,,,,,,40.5,2.0,,
197,,rl_choice,,html-keyboard-response,197,297379,0.0-1.0-331.0,0,0,2000,,,,,,47.0,47.0,2.0,hard,1500.0,1500.0,1.0,60.0,40.0,80.0,20.0,D,C,/static/Simple_RL/Stimuli/Fractals_stims/D.jpg,/static/Simple_RL/Stimuli/Fractals_stims/C.jpg,,,,,,,,42.0,1.5,1.0,
198,,rl_choice_warning,,html-keyboard-response,198,298381,0.0-1.0-333.0-0.0,1,0,2000,,,,,,47.0,,2.0,,,,,,,,,,,,,,,,,,,,43.0,1.0,,
199,,isi,,html-keyboard-response,199,299885,0.0-1.0-334.0,0,0,2000,,,,,,47.0,,2.0,,,,,,,,,,,,,,,,,,,,44.5,1.5,,
200,,iti,,html-keyboard-response,200,301389,0.0-1.0-336.0,0,0,2000,,,,,,47.0,,2.0,,,,,,,,,,,,,,,,,,,,46.0,1.5,,
201,,rl_choice,,html-keyboard-response,201,302893,0.0-1.0-338.0,0,0,2000,,,,,,48.0,48.0,2.0,easy,3500.0,1000.0,1.0,80.0,20.0,60.0,0.0,B,A,/static/Simple_RL/Stimuli/Fractals_stims/B.jpg,/static/Simple_RL/Stimuli/Fractals_stims/A.jpg,,,,,,,,47.5,1.5,1.0,
202,,rl_choice_warning,,html-keyboard-response,202,303896,0.0-1.0-340.0-0.0,1,0,2000,,,,,,48.0,,2.0,,,,,,,,,,,,,,,,,,,,48.5,1.0,,
203,,isi,,html-keyboard-response,203,304899,0.0-1.0-341.0,0,0,2000,,,,,,48.0,,2.0,,,,,,,,,,,,,,,,,,,,49.5,1.0,,
204,,iti,,html-keyboard-response,204,308403,0.0-1.0-343.0,0,0,2000,,,,,,48.0,,2.0,,,,,,,,,,,,,,,,,,,,53.0,3.5,,
205,,rl_choice,,html-keyboard-response,205,309907,0.0-1.0-345.0,0,0,2000,,,,,,49.0,49.0,2.0,hard,1000.0,3500.0,1.0,60.0,40.0,80.0,20.0,D,C,/static/Simple_RL/Stimuli/Fractals_stims/D.jpg,/static/Simple_RL/Stimuli/Fractals_stims/C.jpg,,,,,,,,54.5,1.5,1.0,
206,,rl_choice_warning,,html-keyboard-response,206,310910,0.0-1.0-347.0-0.0,1,0,2000,,,,,,49.0,,2.0,,,,,,,,,,,,,,,,,,,,55.5,1.0,,
207,,isi,,html-keyboard-response,207,314414,0.0-1.0-348.0,0,0,2000,,,,,,49.0,,2.0,,,,,,,,,,,,,,,,,,,,59.0,3.5,,
208,,iti,,html-keyboard-response,208,315415,0.0-1.0-350.0,0,0,2000,,,,,,49.0,,2.0,,,,,,,,,,,,,,,,,,,,60.0,1.0,,
209,,rl_choice,,html-keyboard-response,209,316920,0.0-1.0-352.0,0,0,2000,,,,,,50.0,50.0,2.0,easy,1000.0,1500.0,1.0,80.0,20.0,80.0,40.0,B,A,/static/Simple_RL/Stimuli/Fractals_stims/B.jpg,/static/Simple_RL/Stimuli/Fractals_stims/A.jpg,,,,,,,,61.5,1.5,1.0,
210,,rl_choice_warning,,html-keyboard-response,210,317923,0.0-1.0-354.0-0.0,1,0,2000,,,,,,50.0,,2.0,,,,,,,,,,,,,,,,,,,,62.5,1.0,,
211,,isi,,html-keyboard-response,211,319427,0.0-1.0-355.0,0,0,2000,,,,,,50.0,,2.0,,,,,,,,,,,,,,,,,,,,64.0,1.5,,
212,,iti,,html-keyboard-response,212,320430,0.0-1.0-357.0,0,0,2000,,,,,,50.0,,2.0,,,,,,,,,,,,,,,,,,,,65.0,1.0,,
213,,rl_choice,,html-keyboard-response,213,321934,0.0-1.0-359.0,0,0,2000,,,,,,51.0,51.0,2.0,easy,1000.0,2000.0,0.0,20.0,80.0,0.0,100.0,A,B,/static/Simple_RL/Stimuli/Fractals_stims/A.jpg,/static/Simple_RL/Stimuli/Fractals_stims/B.jpg,,,,,,,,66.5,1.5,1.0,
214,,rl_choice_warning,,html-keyboard-response,214,322936,0.0-1.0-361.0-0.0,1,0,2000,,,,,,51.0,,2.0,,,,,,,,,,,,,,,,,,,,67.5,1.0,,
215,,isi,,html-keyboard-response,215,324942,0.0-1.0-362.0,0,0,2000,,,,,,51.0,,2.0,,,,,,,,,,,,,,,,,,,,69.5,2.0,,
216,,iti,,html-keyboard-response,216,325944,0.0-1.0-364.0,0,0,2000,,,,,,51.0,,2.0,,,,,,,,,,,,,,,,,,,,70.5,1.0,,
217,,rl_choice,,html-keyboard-response,217,327448,0.0-1.0-366.0,0,0,2000,,,,,,52.0,52.0,2.0,easy,3000.0,1500.0,0.0,20.0,80.0,40.0,80.0,A,B,/static/Simple_RL/Stimuli/Fractals_stims/A.jpg,/static/Simple_RL/Stimuli/Fractals_stims/B.jpg,,,,,,,,72.0,1.5,1.0,
218,,rl_choice_warning,,html-keyboard-response,218,328451,0.0-1.0-368.0-0.0,1,0,2000,,,,,,52.0,,2.0,,,,,,,,,,,,,,,,,,,,73.0,1.0,,
219,,isi,,html-keyboard-response,219,329955,0.0-1.0-369.0,0,0,2000,,,,,,52.0,,2.0,,,,,,,,,,,,,,,,,,,,74.5,1.5,,
220,,iti,,html-keyboard-response,220,332958,0.0-1.0-371.0,0,0,2000,,,,,,52.0,,2.0,,,,,,,,,,,,,,,,,,,,77.5,3.0,,
221,,rl_choice,,html-keyboard-response,221,334462,0.0-1.0-373.0,0,0,2000,,,,,,53.0,53.0,2.0,hard,2000.0,1000.0,1.0,60.0,40.0,60.0,40.0,D,C,/static/Simple_RL/Stimuli/Fractals_stims/D.jpg,/static/Simple_RL/Stimuli/Fractals_stims/C.jpg,,,,,,,,79.0,1.5,1.0,
222,,rl_choice_warning,,html-keyboard-response,222,335464,0.0-1.0-375.0-0.0,1,0,2000,,,,,,53.0,,2.0,,,,,,,,,,,,,,,,,,,,80.0,1.0,,
223,,isi,,html-keyboard-response,223,336467,0.0-1.0-376.0,0,0,2000,,,,,,53.0,,2.0,,,,,,,,,,,,,,,,,,,,81.0,1.0,,
224,,iti,,html-keyboard-response,224,338472,0.0-1.0-378.0,0,0,2000,,,,,,53.0,,2.0,,,,,,,,,,,,,,,,,,,,83.0,2.0,,
225,,rl_choice,,html-keyboard-response,225,339977,0.0-1.0-380.0,0,0,2000,,,,,,54.0,54.0,2.0,easy,2000.0,1500.0,0.0,20.0,80.0,0.0,100.0,A,B,/static/Simple_RL/Stimuli/Fractals_stims/A.jpg,/static/Simple_RL/Stimuli/Fractals_stims/B.jpg,,,,,,,,84.5,1.5,1.0,
226,,rl_choice_warning,,html-keyboard-response,226,340979,0.0-1.0-382.0-0.0,1,0,2000,,,,,,54.0,,2.0,,,,,,,,,,,,,,,,,,,,85.5,1.0,,
227,,isi,,html-keyboard-response,227,342483,0.0-1.0-383.0,0,0,2000,,,,,,54.0,,2.0,,,,,,,,,,,,,,,,,,,,87.0,1.5,,
228,,iti,,html-keyboard-response,228,344489,0.0-1.0-385.0,0,0,2000,,,,,,54.0,,2.0,,,,,,,,,,,,,,,,,,,,89.0,2.0,,
229,,rl_choice,,html-keyboard-response,229,345993,0.0-1.0-387.0,0,0,2000,,,,,,55.0,55.0,2.0,easy,1000.0,1000.0,0.0,20.0,80.0,40.0,100.0,A,B,/static/Simple_RL/Stimuli/Fractals_stims/A.jpg,/static/Simple_RL/Stimuli/Fractals_stims/B.jpg,,,,,,,,90.5,1.5,1.0,
230,,rl_choice_warning,,html-keyboard-response,230,346995,0.0-1.0-389.0-0.0,1,0,2000,,,,,,55.0,,2.0,,,,,,,,,,,,,,,,,,,,91.5,1.0,,
231,,isi,,html-keyboard-response,231,347998,0.0-1.0-390.0,0,0,2000,,,,,,55.0,,2.0,,,,,,,,,,,,,,,,,,,,92.5,1.0,,
232,,iti,,html-keyboard-response,232,349000,0.0-1.0-392.0,0,0,2000,,,,,,55.0,,2.0,,,,,,,,,,,,,,,,,,,,93.5,1.0,,
233,,rl_choice,,html-keyboard-response,233,350505,0.0-1.0-394.0,0,0,2000,,,,,,56.0,56.0,2.0,hard,2000.0,1000.0,1.0,60.0,40.0,60.0,20.0,D,C,/static/Simple_RL/Stimuli/Fractals_stims/D.jpg,/static/Simple_RL/Stimuli/Fractals_stims/C.jpg,,,,,,,,95.0,1.5,1.0,
234,,rl_choice_warning,,html-keyboard-response,234,351509,0.0-1.0-396.0-0.0,1,0,2000,,,,,,56.0,,2.0,,,,,,,,,,,,,,,,,,,,96.0,1.0,,
235,,isi,,html-keyboard-response,235,352512,0.0-1.0-397.0,0,0,2000,,,,,,56.0,,2.0,,,,,,,,,,,,,,,,,,,,97.0,1.0,,
236,,iti,,html-keyboard-response,236,354515,0.0-1.0-399.0,0,0,2000,,,,,,56.0,,2.0,,,,,,,,,,,,,,,,,,,,99.0,2.0,,
237,,rl_choice,,html-keyboard-response,237,356019,0.0-1.0-401.0,0,0,2000,,,,,,57.0,57.0,2.0,easy,1000.0,2000.0,1.0,80.0,20.0,80.0,0.0,B,A,/static/Simple_RL/Stimuli/Fractals_stims/B.jpg,/static/Simple_RL/Stimuli/Fractals_stims/A.jpg,,,,,,,,100.5,1.5,1.0,
238,,rl_choice_warning,,html-keyboard-response,238,357022,0.0-1.0-403.0-0.0,1,0,2000,,,,,,57.0,,2.0,,,,,,,,,,,,,,,,,,,,101.5,1.0,,
239,,isi,,html-keyboard-response,239,359027,0.0-1.0-404.0,0,0,2000,,,,,,57.0,,2.0,,,,,,,,,,,,,,,,,,,,103.5,2.0,,
240,,iti,,html-keyboard-response,240,360030,0.0-1.0-406.0,0,0,2000,,,,,,57.0,,2.0,,,,,,,,,,,,,,,,,,,,104.5,1.0,,
241,,rl_choice,,html-keyboard-response,241,361534,0.0-1.0-408.0,0,0,2000,,,,,,58.0,58.0,2.0,hard,1000.0,1500.0,1.0,60.0,40.0,60.0,60.0,D,C,/static/Simple_RL/Stimuli/Fractals_stims/D.jpg,/static/Simple_RL/Stimuli/Fractals_stims/C.jpg,,,,,,,,106.0,1.5,1.0,
242,,rl_choice_warning,,html-keyboard-response,242,362537,0.0-1.0-410.0-0.0,1,0,2000,,,,,,58.0,,2.0,,,,,,,,,,,,,,,,,,,,107.0,1.0,,
243,,isi,,html-keyboard-response,243,364040,0.0-1.0-411.0,0,0,2000,,,,,,58.0,,2.0,,,,,,,,,,,,,,,,,,,,108.5,1.5,,
244,,iti,,html-keyboard-response,244,365043,0.0-1.0-413.0,0,0,2000,,,,,,58.0,,2.0,,,,,,,,,,,,,,,,,,,,109.5,1.0,,
245,,rl_choice,,html-keyboard-response,245,366548,0.0-1.0-415.0,0,0,2000,,,,,,59.0,59.0,2.0,easy,1500.0,3000.0,1.0,80.0,20.0,80.0,40.0,B,A,/static/Simple_RL/Stimuli/Fractals_stims/B.jpg,/static/Simple_RL/Stimuli/Fractals_stims/A.jpg,,,,,,,,111.0,1.5,1.0,
246,,rl_choice_warning,,html-keyboard-response,246,367550,0.0-1.0-417.0-0.0,1,0,2000,,,,,,59.0,,2.0,,,,,,,,,,,,,,,,,,,,112.0,1.0,,
247,,isi,,html-keyboard-response,247,370553,0.0-1.0-418.0,0,0,2000,,,,,,59.0,,2.0,,,,,,,,,,,,,,,,,,,,115.0,3.0,,
248,,iti,,html-keyboard-response,248,372057,0.0-1.0-420.0,0,0,2000,,,,,,59.0,,2.0,,,,,,,,,,,,,,,,,,,,116.5,1.5,,
249,,rl_choice,,html-keyboard-response,249,373561,0.0-1.0-422.0,0,0,2000,,,,,,60.0,60.0,2.0,hard,1500.0,2000.0,0.0,40.0,60.0,40.0,80.0,C,D,/static/Simple_RL/Stimuli/Fractals_stims/C.jpg,/static/Simple_RL/Stimuli/Fractals_stims/D.jpg,,,,,,,,118.0,1.5,1.0,
250,,rl_choice_warning,,html-keyboard-response,250,374563,0.0-1.0-424.0-0.0,1,0,2000,,,,,,60.0,,2.0,,,,,,,,,,,,,,,,,,,,119.0,1.0,,
251,,isi,,html-keyboard-response,251,376569,0.0-1.0-425.0,0,0,2000,,,,,,60.0,,2.0,,,,,,,,,,,,,,,,,,,,121.0,2.0,,
252,,iti,,html-keyboard-response,252,378073,0.0-1.0-427.0,0,0,2000,,,,,,60.0,,2.0,,,,,,,,,,,,,,,,,,,,122.5,1.5,,
253,,rl_choice,,html-keyboard-response,253,379577,0.0-1.0-429.0,0,0,2000,,,,,,61.0,61.0,2.0,hard,1000.0,1000.0,1.0,60.0,40.0,40.0,40.0,D,C,/static/Simple_RL/Stimuli/Fractals_stims/D.jpg,/static/Simple_RL/Stimuli/Fractals_stims/C.jpg,,,,,,,,124.0,1.5,1.0,
254,,rl_choice_warning,,html-keyboard-response,254,380580,0.0-1.0-431.0-0.0,1,0,2000,,,,,,61.0,,2.0,,,,,,,,,,,,,,,,,,,,125.0,1.0,,
255,,isi,,html-keyboard-response,255,381582,0.0-1.0-432.0,0,0,2000,,,,,,61.0,,2.0,,,,,,,,,,,,,,,,,,,,126.0,1.0,,
256,,iti,,html-keyboard-response,256,382585,0.0-1.0-434.0,0,0,2000,,,,,,61.0,,2.0,,,,,,,,,,,,,,,,,,,,127.0,1.0,,
257,,rl_choice,,html-keyboard-response,257,384090,0.0-1.0-436.0,0,0,2000,,,,,,62.0,62.0,2.0,easy,3000.0,1500.0,0.0,20.0,80.0,20.0,80.0,A,B,/static/Simple_RL/Stimuli/Fractals_stims/A.jpg,/static/Simple_RL/Stimuli/Fractals_stims/B.jpg,,,,,,,,128.5,1.5,1.0,
258,,rl_choice_warning,,html-keyboard-response,258,385094,0.0-1.0-438.0-0.0,1,0,2000,,,,,,62.0,,2.0,,,,,,,,,,,,,,,,,,,,129.5,1.0,,
259,,isi,,html-keyboard-response,259,386597,0.0-1.0-439.0,0,0,2000,,,,,,62.0,,2.0,,,,,,,,,,,,,,,,,,,,131.0,1.5,,
260,,iti,,html-keyboard-response,260,389603,0.0-1.0-441.0,0,0,2000,,,,,,62.0,,2.0,,,,,,,,,,,,,,,,,,,,134.0,3.0,,
261,,rl_choice,,html-keyboard-response,261,391107,0.0-1.0-443.0,0,0,2000,,,,,,63.0,63.0,2.0,hard,1000.0,1500.0,1.0,60.0,40.0,60.0,40.0,D,C,/static/Simple_RL/Stimuli/Fractals_stims/D.jpg,/static/Simple_RL/Stimuli/Fractals_stims/C.jpg,,,,,,,,135.5,1.5,1.0,
262,,rl_choice_warning,,html-keyboard-response,262,392112,0.0-1.0-445.0-0.0,1,0,2000,,,,,,63.0,,2.0,,,,,,,,,,,,,,,,,,,,136.5,1.0,,
263,,isi,,html-keyboard-response,263,393614,0.0-1.0-446.0,0,0,2000,,,,,,63.0,,2.0,,,,,,,,,,,,,,,,,,,,138.0,1.5,,
264,,iti,,html-keyboard-response,264,394619,0.0-1.0-448.0,0,0,2000,,,,,,63.0,,2.0,,,,,,,,,,,,,,,,,,,,139.0,1.0,,
265,,rl_choice,,html-keyboard-response,265,396125,0.0-1.0-450.0,0,0,2000,,,,,,64.0,64.0,2.0,hard,3500.0,1000.0,0.0,40.0,60.0,60.0,80.0,C,D,/static/Simple_RL/Stimuli/Fractals_stims/C.jpg,/static/Simple_RL/Stimuli/Fractals_stims/D.jpg,,,,,,,,140.5,1.5,1.0,
266,,rl_choice_warning,,html-keyboard-response,266,397128,0.0-1.0-452.0-0.0,1,0,2000,,,,,,64.0,,2.0,,,,,,,,,,,,,,,,,,,,141.5,1.0,,
267,,isi,,html-keyboard-response,267,398131,0.0-1.0-453.0,0,0,2000,,,,,,64.0,,2.0,,,,,,,,,,,,,,,,,,,,142.5,1.0,,
268,,iti,,html-keyboard-response,268,401635,0.0-1.0-455.0,0,0,2000,,,,,,64.0,,2.0,,,,,,,,,,,,,,,,,,,,146.0,3.5,,
269,,rl_choice,,html-keyboard-response,269,403140,0.0-1.0-457.0,0,0,2000,,,,,,65.0,65.0,2.0,easy,1500.0,1000.0,1.0,80.0,20.0,100.0,40.0,B,A,/static/Simple_RL/Stimuli/Fractals_stims/B.jpg,/static/Simple_RL/Stimuli/Fractals_stims/A.jpg,,,,,,,,147.5,1.5,1.0,
270,,rl_choice_warning,,html-keyboard-response,270,404142,0.0-1.0-459.0-0.0,1,0,2000,,,,,,65.0,,2.0,,,,,,,,,,,,,,,,,,,,148.5,1.0,,
271,,isi,,html-keyboard-response,271,405145,0.0-1.0-460.0,0,0,2000,,,,,,65.0,,2.0,,,,,,,,,,,,,,,,,,,,149.5,1.0,,
272,,iti,,html-keyboard-response,272,406648,0.0-1.0-462.0,0,0,2000,,,,,,65.0,,2.0,,,,,,,,,,,,,,,,,,,,151.0,1.5,,
273,,rl_choice,,html-keyboard-response,273,408153,0.0-1.0-464.0,0,0,2000,,,,,,66.0,66.0,2.0,hard,1500.0,3000.0,1.0,60.0,40.0,60.0,40.0,D,C,/static/Simple_RL/Stimuli/Fractals_stims/D.jpg,/static/Simple_RL/Stimuli/Fractals_stims/C.jpg,,,,,,,,152.5,1.5,1.0,
274,,rl_choice_warning,,html-keyboard-response,274,409156,0.0-1.0-466.0-0.0,1,0,2000,,,,,,66.0,,2.0,,,,,,,,,,,,,,,,,,,,153.5,1.0,,
275,,isi,,html-keyboard-response,275,412158,0.0-1.0-467.0,0,0,2000,,,,,,66.0,,2.0,,,,,,,,,,,,,,,,,,,,156.5,3.0,,
276,,iti,,html-keyboard-response,276,413663,0.0-1.0-469.0,0,0,2000,,,,,,66.0,,2.0,,,,,,,,,,,,,,,,,,,,158.0,1.5,,
277,,rl_choice,,html-keyboard-response,277,415166,0.0-1.0-471.0,0,0,2000,,,,,,67.0,67.0,2.0,hard,1500.0,1500.0,0.0,40.0,60.0,20.0,80.0,C,D,/static/Simple_RL/Stimuli/Fractals_stims/C.jpg,/static/Simple_RL/Stimuli/Fractals_stims/D.jpg,,,,,,,,159.5,1.5,1.0,
278,,rl_choice_warning,,html-keyboard-response,278,416169,0.0-1.0-473.0-0.0,1,0,2000,,,,,,67.0,,2.0,,,,,,,,,,,,,,,,,,,,160.5,1.0,,
279,,isi,,html-keyboard-response,279,417673,0.0-1.0-474.0,0,0,2000,,,,,,67.0,,2.0,,,,,,,,,,,,,,,,,,,,162.0,1.5,,
280,,iti,,html-keyboard-response,280,419177,0.0-1.0-476.0,0,0,2000,,,,,,67.0,,2.0,,,,,,,,,,,,,,,,,,,,163.5,1.5,,
281,,rl_choice,,html-keyboard-response,281,420681,0.0-1.0-478.0,0,0,2000,,,,,,68.0,68.0,2.0,hard,3000.0,1000.0,1.0,60.0,40.0,60.0,40.0,D,C,/static/Simple_RL/Stimuli/Fractals_stims/D.jpg,/static/Simple_RL/Stimuli/Fractals_stims/C.jpg,,,,,,,,165.0,1.5,1.0,
282,,rl_choice_warning,,html-keyboard-response,282,421684,0.0-1.0-480.0-0.0,1,0,2000,,,,,,68.0,,2.0,,,,,,,,,,,,,,,,,,,,166.0,1.0,,
283,,isi,,html-keyboard-response,283,422687,0.0-1.0-481.0,0,0,2000,,,,,,68.0,,2.0,,,,,,,,,,,,,,,,,,,,167.0,1.0,,
284,,iti,,html-keyboard-response,284,425690,0.0-1.0-483.0,0,0,2000,,,,,,68.0,,2.0,,,,,,,,,,,,,,,,,,,,170.0,3.0,,
285,,rl_choice,,html-keyboard-response,285,427193,0.0-1.0-485.0,0,0,2000,,,,,,69.0,69.0,2.0,easy,1000.0,1000.0,0.0,20.0,80.0,40.0,80.0,A,B,/static/Simple_RL/Stimuli/Fractals_stims/A.jpg,/static/Simple_RL/Stimuli/Fractals_stims/B.jpg,,,,,,,,171.5,1.5,1.0,
286,,rl_choice_warning,,html-keyboard-response,286,428196,0.0-1.0-487.0-0.0,1,0,2000,,,,,,69.0,,2.0,,,,,,,,,,,,,,,,,,,,172.5,1.0,,
287,,isi,,html-keyboard-response,287,429201,0.0-1.0-488.0,0,0,2000,,,,,,69.0,,2.0,,,,,,,,,,,,,,,,,,,,173.5,1.0,,
288,,iti,,html-keyboard-response,288,430206,0.0-1.0-490.0,0,0,2000,,,,,,69.0,,2.0,,,,,,,,,,,,,,,,,,,,174.5,1.0,,
289,,rl_choice,,html-keyboard-response,289,431710,0.0-1.0-492.0,0,0,2000,,,,,,70.0,70.0,2.0,easy,1500.0,1000.0,1.0,80.0,20.0,80.0,20.0,B,A,/static/Simple_RL/Stimuli/Fractals_stims/B.jpg,/static/Simple_RL/Stimuli/Fractals_stims/A.jpg,,,,,,,,176.0,1.5,1.0,
290,,rl_choice_warning,,html-keyboard-response,290,432713,0.0-1.0-494.0-0.0,1,0,2000,,,,,,70.0,,2.0,,,,,,,,,,,,,,,,,,,,177.0,1.0,,
291,,isi,,html-keyboard-response,291,433716,0.0-1.0-495.0,0,0,2000,,,,,,70.0,,2.0,,,,,,,,,,,,,,,,,,,,178.0,1.0,,
292,,iti,,html-keyboard-response,292,435220,0.0-1.0-497.0,0,0,2000,,,,,,70.0,,2.0,,,,,,,,,,,,,,,,,,,,179.5,1.5,,
293,,rl_choice,,html-keyboard-response,293,436724,0.0-1.0-499.0,0,0,2000,,,,,,71.0,71.0,2.0,easy,1500.0,1000.0,0.0,20.0,80.0,40.0,60.0,A,B,/static/Simple_RL/Stimuli/Fractals_stims/A.jpg,/static/Simple_RL/Stimuli/Fractals_stims/B.jpg,,,,,,,,181.0,1.5,1.0,
294,,rl_choice_warning,,html-keyboard-response,294,437727,0.0-1.0-501.0-0.0,1,0,2000,,,,,,71.0,,2.0,,,,,,,,,,,,,,,,,,,,182.0,1.0,,
295,,isi,,html-keyboard-response,295,438730,0.0-1.0-502.0,0,0,2000,,,,,,71.0,,2.0,,,,,,,,,,,,,,,,,,,,183.0,1.0,,
296,,iti,,html-keyboard-response,296,440235,0.0-1.0-504.0,0,0,2000,,,,,,71.0,,2.0,,,,,,,,,,,,,,,,,,,,184.5,1.5,,
297,,rl_choice,,html-keyboard-response,297,441737,0.0-1.0-506.0,0,0,2000,,,,,,72.0,72.0,2.0,easy,2000.0,3000.0,0.0,20.0,80.0,20.0,100.0,A,B,/static/Simple_RL/Stimuli/Fractals_stims/A.jpg,/static/Simple_RL/Stimuli/Fractals_stims/B.jpg,,,,,,,,186.0,1.5,1.0,
298,,rl_choice_warning,,html-keyboard-response,298,442740,0.0-1.0-508.0-0.0,1,0,2000,,,,,,72.0,,2.0,,,,,,,,,,,,,,,,,,,,187.0,1.0,,
299,,isi,,html-keyboard-response,299,445743,0.0-1.0-509.0,0,0,2000,,,,,,72.0,,2.0,,,,,,,,,,,,,,,,,,,,190.0,3.0,,
300,,iti,,html-keyboard-response,300,447748,0.0-1.0-511.0,0,0,2000,,,,,,72.0,,2.0,,,,,,,,,,,,,,,,,,,,192.0,2.0,,
301,,rl_choice,,html-keyboard-response,301,449252,0.0-1.0-513.0,0,0,2000,,,,,,73.0,73.0,2.0,easy,1000.0,3500.0,0.0,20.0,80.0,40.0,60.0,A,B,/static/Simple_RL/Stimuli/Fractals_stims/A.jpg,/static/Simple_RL/Stimuli/Fractals_stims/B.jpg,,,,,,,,193.5,1.5,1.0,
302,,rl_choice_warning,,html-keyboard-response,302,450254,0.0-1.0-515.0-0.0,1,0,2000,,,,,,73.0,,2.0,,,,,,,,,,,,,,,,,,,,194.5,1.0,,
303,,isi,,html-keyboard-response,303,453755,0.0-1.0-516.0,0,0,2000,,,,,,73.0,,2.0,,,,,,,,,,,,,,,,,,,,198.0,3.5,,
304,,iti,,html-keyboard-response,304,454761,0.0-1.0-518.0,0,0,2000,,,,,,73.0,,2.0,,,,,,,,,,,,,,,,,,,,199.0,1.0,,
305,,rl_choice,,html-keyboard-response,305,455121,0.0-1.0-520.0,0,0,2000,,359.0,,,50.0,74.0,74.0,2.0,hard,3000.0,1000.0,0.0,40.0,60.0,40.0,40.0,C,D,/static/Simple_RL/Stimuli/Fractals_stims/C.jpg,/static/Simple_RL/Stimuli/Fractals_stims/D.jpg,1.0,40.0,60.0,40.0,40.0,C,D,199.359,0.359,0.0,
306,,rl_choice_confirmation,,html-keyboard-response,306,456265,0.0-1.0-521.0-0.0,0,0,2000,,,,,,74.0,,2.0,,,,,,,,,,,,,,,,,,,,200.5,1.141,,
307,,isi,,html-keyboard-response,307,457268,0.0-1.0-523.0,0,0,2000,,,,,,74.0,,2.0,,,,,,,,,,,,,,,,,,,,201.5,1.0,,
308,,feedback,,html-keyboard-response,308,458271,0.0-1.0-524.0-0.0,0,0,2000,,,,,,74.0,,2.0,,,,,,,,,,,,,,,,,,,,202.5,1.0,,
309,,iti,,html-keyboard-response,309,461274,0.0-1.0-525.0,0,0,2000,,,,,,74.0,,2.0,,,,,,,,,,,,,,,,,,,,205.5,3.0,,
310,,rl_choice,,html-keyboard-response,310,461569,0.0-1.0-527.0,0,0,2000,,293.0,,,50.0,75.0,75.0,2.0,easy,1000.0,1000.0,0.0,20.0,80.0,0.0,60.0,A,B,/static/Simple_RL/Stimuli/Fractals_stims/A.jpg,/static/Simple_RL/Stimuli/Fractals_stims/B.jpg,1.0,20.0,80.0,0.0,60.0,A,B,205.793,0.293,0.0,
311,,rl_choice_confirmation,,html-keyboard-response,311,462780,0.0-1.0-528.0-0.0,0,0,2000,,,,,,75.0,,2.0,,,,,,,,,,,,,,,,,,,,207.0,1.207,,
312,,isi,,html-keyboard-response,312,463783,0.0-1.0-530.0,0,0,2000,,,,,,75.0,,2.0,,,,,,,,,,,,,,,,,,,,208.0,1.0,,
313,,feedback,,html-keyboard-response,313,464788,0.0-1.0-531.0-0.0,0,0,2000,,,,,,75.0,,2.0,,,,,,,,,,,,,,,,,,,,209.0,1.0,,
314,,iti,,html-keyboard-response,314,465791,0.0-1.0-532.0,0,0,2000,,,,,,75.0,,2.0,,,,,,,,,,,,,,,,,,,,210.0,1.0,,
315,,rl_choice,,html-keyboard-response,315,465950,0.0-1.0-534.0,0,0,2000,,158.0,,,50.0,76.0,76.0,2.0,easy,2000.0,1500.0,1.0,80.0,20.0,100.0,20.0,B,A,/static/Simple_RL/Stimuli/Fractals_stims/B.jpg,/static/Simple_RL/Stimuli/Fractals_stims/A.jpg,1.0,80.0,20.0,100.0,20.0,B,A,210.158,0.158,0.0,
316,,rl_choice_confirmation,,html-keyboard-response,316,467294,0.0-1.0-535.0-0.0,0,0,2000,,,,,,76.0,,2.0,,,,,,,,,,,,,,,,,,,,211.5,1.3419999999999999,,
317,,isi,,html-keyboard-response,317,468799,0.0-1.0-537.0,0,0,2000,,,,,,76.0,,2.0,,,,,,,,,,,,,,,,,,,,213.0,1.5,,
318,,feedback,,html-keyboard-response,318,469803,0.0-1.0-538.0-0.0,0,0,2000,,,,,,76.0,,2.0,,,,,,,,,,,,,,,,,,,,214.0,1.0,,
319,,iti,,html-keyboard-response,319,471806,0.0-1.0-539.0,0,0,2000,,,,,,76.0,,2.0,,,,,,,,,,,,,,,,,,,,216.0,2.0,,
320,,rl_choice,,html-keyboard-response,320,472078,0.0-1.0-541.0,0,0,2000,,271.0,,,51.0,77.0,77.0,2.0,easy,1000.0,1000.0,0.0,20.0,80.0,0.0,80.0,A,B,/static/Simple_RL/Stimuli/Fractals_stims/A.jpg,/static/Simple_RL/Stimuli/Fractals_stims/B.jpg,0.0,80.0,20.0,80.0,0.0,B,A,216.271,0.271,0.0,
321,,rl_choice_confirmation,,html-keyboard-response,321,473311,0.0-1.0-542.0-0.0,0,0,2000,,,,,,77.0,,2.0,,,,,,,,,,,,,,,,,,,,217.5,1.229,,
322,,isi,,html-keyboard-response,322,474313,0.0-1.0-544.0,0,0,2000,,,,,,77.0,,2.0,,,,,,,,,,,,,,,,,,,,218.5,1.0,,
323,,feedback,,html-keyboard-response,323,475316,0.0-1.0-545.0-0.0,0,0,2000,,,,,,77.0,,2.0,,,,,,,,,,,,,,,,,,,,219.5,1.0,,
324,,iti,,html-keyboard-response,324,476318,0.0-1.0-546.0,0,0,2000,,,,,,77.0,,2.0,,,,,,,,,,,,,,,,,,,,220.5,1.0,,
325,,rl_choice,,html-keyboard-response,325,476649,0.0-1.0-548.0,0,0,2000,,329.0,,,51.0,78.0,78.0,2.0,hard,1500.0,1000.0,0.0,40.0,60.0,20.0,60.0,C,D,/static/Simple_RL/Stimuli/Fractals_stims/C.jpg,/static/Simple_RL/Stimuli/Fractals_stims/D.jpg,0.0,60.0,40.0,60.0,20.0,D,C,220.829,0.32899999999999996,0.0,
326,,rl_choice_confirmation,,html-keyboard-response,326,477824,0.0-1.0-549.0-0.0,0,0,2000,,,,,,78.0,,2.0,,,,,,,,,,,,,,,,,,,,222.0,1.171,,
327,,isi,,html-keyboard-response,327,478825,0.0-1.0-551.0,0,0,2000,,,,,,78.0,,2.0,,,,,,,,,,,,,,,,,,,,223.0,1.0,,
328,,feedback,,html-keyboard-response,328,479829,0.0-1.0-552.0-0.0,0,0,2000,,,,,,78.0,,2.0,,,,,,,,,,,,,,,,,,,,224.0,1.0,,
329,,iti,,html-keyboard-response,329,481333,0.0-1.0-553.0,0,0,2000,,,,,,78.0,,2.0,,,,,,,,,,,,,,,,,,,,225.5,1.5,,
330,,rl_choice,,html-keyboard-response,330,481559,0.0-1.0-555.0,0,0,2000,,225.0,,,51.0,79.0,79.0,2.0,easy,2000.0,2000.0,1.0,80.0,20.0,100.0,0.0,B,A,/static/Simple_RL/Stimuli/Fractals_stims/B.jpg,/static/Simple_RL/Stimuli/Fractals_stims/A.jpg,0.0,20.0,80.0,0.0,100.0,A,B,225.725,0.225,0.0,
331,,rl_choice_confirmation,,html-keyboard-response,331,482836,0.0-1.0-556.0-0.0,0,0,2000,,,,,,79.0,,2.0,,,,,,,,,,,,,,,,,,,,227.0,1.275,,
332,,isi,,html-keyboard-response,332,484842,0.0-1.0-558.0,0,0,2000,,,,,,79.0,,2.0,,,,,,,,,,,,,,,,,,,,229.0,2.0,,
333,,feedback,,html-keyboard-response,333,485844,0.0-1.0-559.0-0.0,0,0,2000,,,,,,79.0,,2.0,,,,,,,,,,,,,,,,,,,,230.0,1.0,,
334,,iti,,html-keyboard-response,334,487850,0.0-1.0-560.0,0,0,2000,,,,,,79.0,,2.0,,,,,,,,,,,,,,,,,,,,232.0,2.0,,0.07
335,,final_tally,,html-keyboard-response,335,488299,0.0-2.0,0,0,2000,,448.0,,,50.0,,,,,,,,,,,,,,,,,,,,,,,,,,
336,,,,html-keyboard-response,336,491655,0.0-3.0,0,0,2000,,3338.0,,,50.0,,,,,,,,,,,,,,,,,,,,,,,,,,
