,success,ttype,start_time,trial_type,trial_index,time_elapsed,internal_node_id,warning,missed_checkup,PID,view_history,rt,responses,repeat_instructions,key_press,index,trial_num,block,condition,iti,isi,high_group_on_left,left_group_value,right_group_value,left_item_value,right_item_value,left_img,right_img,left_img_path,right_img_path,onset,duration,no_response,left_chosen,chosen_group_value,unchosen_group_value,chosen_item_value,unchosen_item_value,chosen_img,unchosen_img,total_bonus_tally
0,True,full_screen,d06032022hr1457,fullscreen,0,4728,0.0-0.0,0,0,83590,,,,,,,,,,,,,,,,,,,,,,,,,,,,,,,
1,,size_instructions,,instructions,1,11721,0.0-1.0-0.0-0.0,0,0,83590,"[{""page_index"":0,""viewing_time"":1447},{""page_index"":1,""viewing_time"":1693},{""page_index"":2,""viewing_time"":1310},{""page_index"":3,""viewing_time"":852},{""page_index"":4,""viewing_time"":720},{""page_index"":5,""viewing_time"":968}]",6991.0,,,,,,,,,,,,,,,,,,,,,,,,,,,,,
2,,rl_comprehension_check,,survey-multi-choice,2,15330,0.0-1.0-0.0-1.0,0,0,83590,,3605.0,"{""Q0"":""True"",""Q1"":""True"",""Q2"":""D for left and K for right""}",0.0,,,,,,,,,,,,,,,,,,,,,,,,,,,
3,,,,html-keyboard-response,3,16581,0.0-1.0-1.0,0,0,83590,,1249.0,,,68.0,,,,,,,,,,,,,,,,,,,,,,,,,,
4,,rl_choice,,html-keyboard-response,4,18088,0.0-1.0-2.0,0,0,83590,,,,,,0.0,0.0,1.0,hard,1500.0,2000.0,1.0,60.0,40.0,80.0,20.0,B,A,/static/Simple_RL/Stimuli/Fractals_stims/B.jpg,/static/Simple_RL/Stimuli/Fractals_stims/A.jpg,1.5,1.5,1.0,,,,,,,,
5,,rl_choice_warning,,html-keyboard-response,5,19090,0.0-1.0-4.0-0.0,0,0,83590,,,,,,,,,,,,,,,,,,,,,2.5,1.0,,,,,,,,,
6,,isi,,html-keyboard-response,6,21093,0.0-1.0-5.0,0,0,83590,,,,,,,,,,,,,,,,,,,,,4.5,2.0,,,,,,,,,
7,,iti,,html-keyboard-response,7,22596,0.0-1.0-7.0,0,0,83590,,,,,,,,,,,,,,,,,,,,,6.0,1.5,,,,,,,,,
8,,rl_choice,,html-keyboard-response,8,23022,0.0-1.0-9.0,0,0,83590,,425.0,,,68.0,1.0,1.0,1.0,easy,1500.0,3000.0,1.0,80.0,20.0,60.0,40.0,D,C,/static/Simple_RL/Stimuli/Fractals_stims/D.jpg,/static/Simple_RL/Stimuli/Fractals_stims/C.jpg,6.425,0.425,0.0,1.0,80.0,20.0,60.0,40.0,D,C,
9,,rl_choice_confirmation,,html-keyboard-response,9,24101,0.0-1.0-10.0-0.0,0,0,83590,,,,,,1.0,,,,,,,,,,,,,,,7.5,1.075,,,,,,,,,
10,,isi,,html-keyboard-response,10,27106,0.0-1.0-12.0,0,0,83590,,,,,,,,,,,,,,,,,,,,,10.5,3.0,,,,,,,,,
11,,feedback,,html-keyboard-response,11,28110,0.0-1.0-13.0-0.0,0,0,83590,,,,,,1.0,,,,,,,,,,,,,,,11.5,1.0,,,,,,,,,
12,,iti,,html-keyboard-response,12,29613,0.0-1.0-14.0,0,0,83590,,,,,,,,,,,,,,,,,,,,,13.0,1.5,,,,,,,,,
13,,rl_choice,,html-keyboard-response,13,29909,0.0-1.0-16.0,0,0,83590,,295.0,,,68.0,2.0,2.0,1.0,hard,2000.0,3000.0,0.0,40.0,60.0,40.0,40.0,A,B,/static/Simple_RL/Stimuli/Fractals_stims/A.jpg,/static/Simple_RL/Stimuli/Fractals_stims/B.jpg,13.295,0.295,0.0,1.0,40.0,60.0,40.0,40.0,A,B,
14,,rl_choice_confirmation,,html-keyboard-response,14,31120,0.0-1.0-17.0-0.0,0,0,83590,,,,,,2.0,,,,,,,,,,,,,,,14.5,1.205,,,,,,,,,
15,,isi,,html-keyboard-response,15,34127,0.0-1.0-19.0,0,0,83590,,,,,,,,,,,,,,,,,,,,,17.5,3.0,,,,,,,,,
16,,feedback,,html-keyboard-response,16,35131,0.0-1.0-20.0-0.0,0,0,83590,,,,,,2.0,,,,,,,,,,,,,,,18.5,1.0,,,,,,,,,
17,,iti,,html-keyboard-response,17,37134,0.0-1.0-21.0,0,0,83590,,,,,,,,,,,,,,,,,,,,,20.5,2.0,,,,,,,,,
18,,rl_choice,,html-keyboard-response,18,37273,0.0-1.0-23.0,0,0,83590,,138.0,,,68.0,3.0,3.0,1.0,hard,1000.0,1000.0,0.0,40.0,60.0,40.0,40.0,A,B,/static/Simple_RL/Stimuli/Fractals_stims/A.jpg,/static/Simple_RL/Stimuli/Fractals_stims/B.jpg,20.638,0.138,0.0,1.0,40.0,60.0,40.0,40.0,A,B,
19,,rl_choice_confirmation,,html-keyboard-response,19,38641,0.0-1.0-24.0-0.0,0,0,83590,,,,,,3.0,,,,,,,,,,,,,,,22.0,1.362,,,,,,,,,
20,,isi,,html-keyboard-response,20,39646,0.0-1.0-26.0,0,0,83590,,,,,,,,,,,,,,,,,,,,,23.0,1.0,,,,,,,,,
21,,feedback,,html-keyboard-response,21,40649,0.0-1.0-27.0-0.0,0,0,83590,,,,,,3.0,,,,,,,,,,,,,,,24.0,1.0,,,,,,,,,
22,,iti,,html-keyboard-response,22,41651,0.0-1.0-28.0,0,0,83590,,,,,,,,,,,,,,,,,,,,,25.0,1.0,,,,,,,,,
23,,rl_choice,,html-keyboard-response,23,41746,0.0-1.0-30.0,0,0,83590,,94.0,,,68.0,4.0,4.0,1.0,hard,3500.0,3500.0,1.0,60.0,40.0,60.0,20.0,B,A,/static/Simple_RL/Stimuli/Fractals_stims/B.jpg,/static/Simple_RL/Stimuli/Fractals_stims/A.jpg,25.094,0.094,0.0,1.0,60.0,40.0,60.0,20.0,B,A,
24,,rl_choice_confirmation,,html-keyboard-response,24,43157,0.0-1.0-31.0-0.0,0,0,83590,,,,,,4.0,,,,,,,,,,,,,,,26.5,1.406,,,,,,,,,
25,,isi,,html-keyboard-response,25,46661,0.0-1.0-33.0,0,0,83590,,,,,,,,,,,,,,,,,,,,,30.0,3.5,,,,,,,,,
26,,feedback,,html-keyboard-response,26,47668,0.0-1.0-34.0-0.0,0,0,83590,,,,,,4.0,,,,,,,,,,,,,,,31.0,1.0,,,,,,,,,
27,,iti,,html-keyboard-response,27,51174,0.0-1.0-35.0,0,0,83590,,,,,,,,,,,,,,,,,,,,,34.5,3.5,,,,,,,,,
28,,rl_choice,,html-keyboard-response,28,51866,0.0-1.0-37.0,0,0,83590,,690.0,,,68.0,5.0,5.0,1.0,hard,1500.0,1000.0,0.0,40.0,60.0,20.0,60.0,A,B,/static/Simple_RL/Stimuli/Fractals_stims/A.jpg,/static/Simple_RL/Stimuli/Fractals_stims/B.jpg,35.19,0.69,0.0,1.0,40.0,60.0,20.0,60.0,A,B,
29,,rl_choice_confirmation,,html-keyboard-response,29,52681,0.0-1.0-38.0-0.0,0,0,83590,,,,,,5.0,,,,,,,,,,,,,,,36.0,0.81,,,,,,,,,
30,,isi,,html-keyboard-response,30,53682,0.0-1.0-40.0,0,0,83590,,,,,,,,,,,,,,,,,,,,,37.0,1.0,,,,,,,,,
31,,feedback,,html-keyboard-response,31,54686,0.0-1.0-41.0-0.0,0,0,83590,,,,,,5.0,,,,,,,,,,,,,,,38.0,1.0,,,,,,,,,
32,,iti,,html-keyboard-response,32,56190,0.0-1.0-42.0,0,0,83590,,,,,,,,,,,,,,,,,,,,,39.5,1.5,,,,,,,,,
33,,rl_choice,,html-keyboard-response,33,56571,0.0-1.0-44.0,0,0,83590,,381.0,,,68.0,6.0,6.0,1.0,hard,1000.0,1000.0,0.0,40.0,60.0,40.0,60.0,A,B,/static/Simple_RL/Stimuli/Fractals_stims/A.jpg,/static/Simple_RL/Stimuli/Fractals_stims/B.jpg,39.881,0.381,0.0,1.0,40.0,60.0,40.0,60.0,A,B,
34,,rl_choice_confirmation,,html-keyboard-response,34,57695,0.0-1.0-45.0-0.0,0,0,83590,,,,,,6.0,,,,,,,,,,,,,,,41.0,1.119,,,,,,,,,
35,,isi,,html-keyboard-response,35,58699,0.0-1.0-47.0,0,0,83590,,,,,,,,,,,,,,,,,,,,,42.0,1.0,,,,,,,,,
36,,feedback,,html-keyboard-response,36,59705,0.0-1.0-48.0-0.0,0,0,83590,,,,,,6.0,,,,,,,,,,,,,,,43.0,1.0,,,,,,,,,
37,,iti,,html-keyboard-response,37,60709,0.0-1.0-49.0,0,0,83590,,,,,,,,,,,,,,,,,,,,,44.0,1.0,,,,,,,,,
38,,rl_choice,,html-keyboard-response,38,60887,0.0-1.0-51.0,0,0,83590,,177.0,,,68.0,7.0,7.0,1.0,hard,3000.0,1500.0,0.0,40.0,60.0,20.0,40.0,A,B,/static/Simple_RL/Stimuli/Fractals_stims/A.jpg,/static/Simple_RL/Stimuli/Fractals_stims/B.jpg,44.177,0.177,0.0,1.0,40.0,60.0,20.0,40.0,A,B,
39,,rl_choice_confirmation,,html-keyboard-response,39,62212,0.0-1.0-52.0-0.0,0,0,83590,,,,,,7.0,,,,,,,,,,,,,,,45.5,1.323,,,,,,,,,
40,,isi,,html-keyboard-response,40,63715,0.0-1.0-54.0,0,0,83590,,,,,,,,,,,,,,,,,,,,,47.0,1.5,,,,,,,,,
41,,feedback,,html-keyboard-response,41,64720,0.0-1.0-55.0-0.0,0,0,83590,,,,,,7.0,,,,,,,,,,,,,,,48.0,1.0,,,,,,,,,
42,,iti,,html-keyboard-response,42,67727,0.0-1.0-56.0,0,0,83590,,,,,,,,,,,,,,,,,,,,,51.0,3.0,,,,,,,,,
43,,rl_choice,,html-keyboard-response,43,68041,0.0-1.0-58.0,0,0,83590,,312.0,,,68.0,8.0,8.0,1.0,hard,1000.0,2000.0,1.0,60.0,40.0,60.0,60.0,B,A,/static/Simple_RL/Stimuli/Fractals_stims/B.jpg,/static/Simple_RL/Stimuli/Fractals_stims/A.jpg,51.312,0.312,0.0,1.0,60.0,40.0,60.0,60.0,B,A,
44,,rl_choice_confirmation,,html-keyboard-response,44,69234,0.0-1.0-59.0-0.0,0,0,83590,,,,,,8.0,,,,,,,,,,,,,,,52.5,1.188,,,,,,,,,
45,,isi,,html-keyboard-response,45,71237,0.0-1.0-61.0,0,0,83590,,,,,,,,,,,,,,,,,,,,,54.5,2.0,,,,,,,,,
46,,feedback,,html-keyboard-response,46,72242,0.0-1.0-62.0-0.0,0,0,83590,,,,,,8.0,,,,,,,,,,,,,,,55.5,1.0,,,,,,,,,
47,,iti,,html-keyboard-response,47,73247,0.0-1.0-63.0,0,0,83590,,,,,,,,,,,,,,,,,,,,,56.5,1.0,,,,,,,,,
48,,rl_choice,,html-keyboard-response,48,73579,0.0-1.0-65.0,0,0,83590,,331.0,,,68.0,9.0,9.0,1.0,hard,2000.0,2000.0,1.0,60.0,40.0,80.0,60.0,B,A,/static/Simple_RL/Stimuli/Fractals_stims/B.jpg,/static/Simple_RL/Stimuli/Fractals_stims/A.jpg,56.831,0.331,0.0,1.0,60.0,40.0,80.0,60.0,B,A,
49,,rl_choice_confirmation,,html-keyboard-response,49,74751,0.0-1.0-66.0-0.0,0,0,83590,,,,,,9.0,,,,,,,,,,,,,,,58.0,1.169,,,,,,,,,
50,,isi,,html-keyboard-response,50,76756,0.0-1.0-68.0,0,0,83590,,,,,,,,,,,,,,,,,,,,,60.0,2.0,,,,,,,,,
51,,feedback,,html-keyboard-response,51,77759,0.0-1.0-69.0-0.0,0,0,83590,,,,,,9.0,,,,,,,,,,,,,,,61.0,1.0,,,,,,,,,
52,,iti,,html-keyboard-response,52,79761,0.0-1.0-70.0,0,0,83590,,,,,,,,,,,,,,,,,,,,,63.0,2.0,,,,,,,,,
53,,rl_choice,,html-keyboard-response,53,79933,0.0-1.0-72.0,0,0,83590,,170.0,,,68.0,10.0,10.0,1.0,hard,2000.0,2000.0,0.0,40.0,60.0,20.0,60.0,A,B,/static/Simple_RL/Stimuli/Fractals_stims/A.jpg,/static/Simple_RL/Stimuli/Fractals_stims/B.jpg,63.17,0.17,0.0,1.0,40.0,60.0,20.0,60.0,A,B,
54,,rl_choice_confirmation,,html-keyboard-response,54,81268,0.0-1.0-73.0-0.0,0,0,83590,,,,,,10.0,,,,,,,,,,,,,,,64.5,1.33,,,,,,,,,
55,,isi,,html-keyboard-response,55,83274,0.0-1.0-75.0,0,0,83590,,,,,,,,,,,,,,,,,,,,,66.5,2.0,,,,,,,,,
56,,feedback,,html-keyboard-response,56,84281,0.0-1.0-76.0-0.0,0,0,83590,,,,,,10.0,,,,,,,,,,,,,,,67.5,1.0,,,,,,,,,
57,,iti,,html-keyboard-response,57,86285,0.0-1.0-77.0,0,0,83590,,,,,,,,,,,,,,,,,,,,,69.5,2.0,,,,,,,,,
58,,rl_choice,,html-keyboard-response,58,86734,0.0-1.0-79.0,0,0,83590,,446.0,,,68.0,11.0,11.0,1.0,easy,1500.0,2000.0,1.0,80.0,20.0,100.0,20.0,D,C,/static/Simple_RL/Stimuli/Fractals_stims/D.jpg,/static/Simple_RL/Stimuli/Fractals_stims/C.jpg,69.946,0.446,0.0,1.0,80.0,20.0,100.0,20.0,D,C,
59,,rl_choice_confirmation,,html-keyboard-response,59,87791,0.0-1.0-80.0-0.0,0,0,83590,,,,,,11.0,,,,,,,,,,,,,,,71.0,1.054,,,,,,,,,
60,,isi,,html-keyboard-response,60,89793,0.0-1.0-82.0,0,0,83590,,,,,,,,,,,,,,,,,,,,,73.0,2.0,,,,,,,,,
61,,feedback,,html-keyboard-response,61,90799,0.0-1.0-83.0-0.0,0,0,83590,,,,,,11.0,,,,,,,,,,,,,,,74.0,1.0,,,,,,,,,
62,,iti,,html-keyboard-response,62,92303,0.0-1.0-84.0,0,0,83590,,,,,,,,,,,,,,,,,,,,,75.5,1.5,,,,,,,,,
63,,rl_choice,,html-keyboard-response,63,92449,0.0-1.0-86.0,0,0,83590,,143.0,,,68.0,12.0,12.0,1.0,hard,1000.0,1500.0,1.0,60.0,40.0,40.0,20.0,B,A,/static/Simple_RL/Stimuli/Fractals_stims/B.jpg,/static/Simple_RL/Stimuli/Fractals_stims/A.jpg,75.643,0.143,0.0,1.0,60.0,40.0,40.0,20.0,B,A,
64,,rl_choice_confirmation,,html-keyboard-response,64,93807,0.0-1.0-87.0-0.0,0,0,83590,,,,,,12.0,,,,,,,,,,,,,,,77.0,1.357,,,,,,,,,
65,,isi,,html-keyboard-response,65,95309,0.0-1.0-89.0,0,0,83590,,,,,,,,,,,,,,,,,,,,,78.5,1.5,,,,,,,,,
66,,feedback,,html-keyboard-response,66,96314,0.0-1.0-90.0-0.0,0,0,83590,,,,,,12.0,,,,,,,,,,,,,,,79.5,1.0,,,,,,,,,
67,,iti,,html-keyboard-response,67,97320,0.0-1.0-91.0,0,0,83590,,,,,,,,,,,,,,,,,,,,,80.5,1.0,,,,,,,,,
68,,rl_choice,,html-keyboard-response,68,97420,0.0-1.0-93.0,0,0,83590,,97.0,,,68.0,13.0,13.0,1.0,easy,1500.0,1500.0,1.0,80.0,20.0,100.0,40.0,D,C,/static/Simple_RL/Stimuli/Fractals_stims/D.jpg,/static/Simple_RL/Stimuli/Fractals_stims/C.jpg,80.597,0.097,0.0,1.0,80.0,20.0,100.0,40.0,D,C,
69,,rl_choice_confirmation,,html-keyboard-response,69,98826,0.0-1.0-94.0-0.0,0,0,83590,,,,,,13.0,,,,,,,,,,,,,,,82.0,1.403,,,,,,,,,
70,,isi,,html-keyboard-response,70,100328,0.0-1.0-96.0,0,0,83590,,,,,,,,,,,,,,,,,,,,,83.5,1.5,,,,,,,,,
71,,feedback,,html-keyboard-response,71,101333,0.0-1.0-97.0-0.0,0,0,83590,,,,,,13.0,,,,,,,,,,,,,,,84.5,1.0,,,,,,,,,
72,,iti,,html-keyboard-response,72,102837,0.0-1.0-98.0,0,0,83590,,,,,,,,,,,,,,,,,,,,,86.0,1.5,,,,,,,,,
73,,rl_choice,,html-keyboard-response,73,102933,0.0-1.0-100.0,0,0,83590,,94.0,,,68.0,14.0,14.0,1.0,easy,1000.0,1000.0,0.0,20.0,80.0,0.0,60.0,C,D,/static/Simple_RL/Stimuli/Fractals_stims/C.jpg,/static/Simple_RL/Stimuli/Fractals_stims/D.jpg,86.094,0.094,0.0,1.0,20.0,80.0,0.0,60.0,C,D,
74,,rl_choice_confirmation,,html-keyboard-response,74,104345,0.0-1.0-101.0-0.0,0,0,83590,,,,,,14.0,,,,,,,,,,,,,,,87.5,1.406,,,,,,,,,
75,,isi,,html-keyboard-response,75,105351,0.0-1.0-103.0,0,0,83590,,,,,,,,,,,,,,,,,,,,,88.5,1.0,,,,,,,,,
76,,feedback,,html-keyboard-response,76,106357,0.0-1.0-104.0-0.0,0,0,83590,,,,,,14.0,,,,,,,,,,,,,,,89.5,1.0,,,,,,,,,
77,,iti,,html-keyboard-response,77,107364,0.0-1.0-105.0,0,0,83590,,,,,,,,,,,,,,,,,,,,,90.5,1.0,,,,,,,,,
78,,rl_choice,,html-keyboard-response,78,107393,0.0-1.0-107.0,0,0,83590,,28.0,,,68.0,15.0,15.0,1.0,easy,1000.0,2000.0,0.0,20.0,80.0,20.0,100.0,C,D,/static/Simple_RL/Stimuli/Fractals_stims/C.jpg,/static/Simple_RL/Stimuli/Fractals_stims/D.jpg,90.528,0.028,0.0,1.0,20.0,80.0,20.0,100.0,C,D,
79,,rl_choice_confirmation,,html-keyboard-response,79,108869,0.0-1.0-108.0-0.0,0,0,83590,,,,,,15.0,,,,,,,,,,,,,,,92.0,1.472,,,,,,,,,
80,,isi,,html-keyboard-response,80,110874,0.0-1.0-110.0,0,0,83590,,,,,,,,,,,,,,,,,,,,,94.0,2.0,,,,,,,,,
81,,feedback,,html-keyboard-response,81,111878,0.0-1.0-111.0-0.0,0,0,83590,,,,,,15.0,,,,,,,,,,,,,,,95.0,1.0,,,,,,,,,
82,,iti,,html-keyboard-response,82,112880,0.0-1.0-112.0,0,0,83590,,,,,,,,,,,,,,,,,,,,,96.0,1.0,,,,,,,,,
83,,rl_choice,,html-keyboard-response,83,113178,0.0-1.0-114.0,0,0,83590,,297.0,,,68.0,16.0,16.0,1.0,hard,1000.0,1000.0,1.0,60.0,40.0,60.0,20.0,B,A,/static/Simple_RL/Stimuli/Fractals_stims/B.jpg,/static/Simple_RL/Stimuli/Fractals_stims/A.jpg,96.297,0.297,0.0,1.0,60.0,40.0,60.0,20.0,B,A,
84,,rl_choice_confirmation,,html-keyboard-response,84,114384,0.0-1.0-115.0-0.0,0,0,83590,,,,,,16.0,,,,,,,,,,,,,,,97.5,1.203,,,,,,,,,
85,,isi,,html-keyboard-response,85,115389,0.0-1.0-117.0,0,0,83590,,,,,,,,,,,,,,,,,,,,,98.5,1.0,,,,,,,,,
86,,feedback,,html-keyboard-response,86,116395,0.0-1.0-118.0-0.0,0,0,83590,,,,,,16.0,,,,,,,,,,,,,,,99.5,1.0,,,,,,,,,
87,,iti,,html-keyboard-response,87,117397,0.0-1.0-119.0,0,0,83590,,,,,,,,,,,,,,,,,,,,,100.5,1.0,,,,,,,,,
88,,rl_choice,,html-keyboard-response,88,117559,0.0-1.0-121.0,0,0,83590,,162.0,,,68.0,17.0,17.0,1.0,easy,1000.0,2000.0,0.0,20.0,80.0,40.0,100.0,C,D,/static/Simple_RL/Stimuli/Fractals_stims/C.jpg,/static/Simple_RL/Stimuli/Fractals_stims/D.jpg,100.662,0.162,0.0,1.0,20.0,80.0,40.0,100.0,C,D,
89,,rl_choice_confirmation,,html-keyboard-response,89,118901,0.0-1.0-122.0-0.0,0,0,83590,,,,,,17.0,,,,,,,,,,,,,,,102.0,1.338,,,,,,,,,
90,,isi,,html-keyboard-response,90,120907,0.0-1.0-124.0,0,0,83590,,,,,,,,,,,,,,,,,,,,,104.0,2.0,,,,,,,,,
91,,feedback,,html-keyboard-response,91,121912,0.0-1.0-125.0-0.0,0,0,83590,,,,,,17.0,,,,,,,,,,,,,,,105.0,1.0,,,,,,,,,
92,,iti,,html-keyboard-response,92,122917,0.0-1.0-126.0,0,0,83590,,,,,,,,,,,,,,,,,,,,,106.0,1.0,,,,,,,,,
93,,rl_choice,,html-keyboard-response,93,123132,0.0-1.0-128.0,0,0,83590,,212.0,,,68.0,18.0,18.0,1.0,easy,2000.0,1000.0,0.0,20.0,80.0,0.0,100.0,C,D,/static/Simple_RL/Stimuli/Fractals_stims/C.jpg,/static/Simple_RL/Stimuli/Fractals_stims/D.jpg,106.212,0.212,0.0,1.0,20.0,80.0,0.0,100.0,C,D,
94,,rl_choice_confirmation,,html-keyboard-response,94,124423,0.0-1.0-129.0-0.0,0,0,83590,,,,,,18.0,,,,,,,,,,,,,,,107.5,1.288,,,,,,,,,
95,,isi,,html-keyboard-response,95,125429,0.0-1.0-131.0,0,0,83590,,,,,,,,,,,,,,,,,,,,,108.5,1.0,,,,,,,,,
96,,feedback,,html-keyboard-response,96,126432,0.0-1.0-132.0-0.0,0,0,83590,,,,,,18.0,,,,,,,,,,,,,,,109.5,1.0,,,,,,,,,
97,,iti,,html-keyboard-response,97,128436,0.0-1.0-133.0,0,0,83590,,,,,,,,,,,,,,,,,,,,,111.5,2.0,,,,,,,,,
98,,rl_choice,,html-keyboard-response,98,128525,0.0-1.0-135.0,0,0,83590,,87.0,,,68.0,19.0,19.0,1.0,hard,1500.0,1500.0,0.0,40.0,60.0,60.0,60.0,A,B,/static/Simple_RL/Stimuli/Fractals_stims/A.jpg,/static/Simple_RL/Stimuli/Fractals_stims/B.jpg,111.587,0.087,0.0,1.0,40.0,60.0,60.0,60.0,A,B,
99,,rl_choice_confirmation,,html-keyboard-response,99,129941,0.0-1.0-136.0-0.0,0,0,83590,,,,,,19.0,,,,,,,,,,,,,,,113.0,1.413,,,,,,,,,
100,,isi,,html-keyboard-response,100,131442,0.0-1.0-138.0,0,0,83590,,,,,,,,,,,,,,,,,,,,,114.5,1.5,,,,,,,,,
101,,feedback,,html-keyboard-response,101,132448,0.0-1.0-139.0-0.0,0,0,83590,,,,,,19.0,,,,,,,,,,,,,,,115.5,1.0,,,,,,,,,
102,,iti,,html-keyboard-response,102,133952,0.0-1.0-140.0,0,0,83590,,,,,,,,,,,,,,,,,,,,,117.0,1.5,,,,,,,,,
103,,rl_choice,,html-keyboard-response,103,134572,0.0-1.0-142.0,0,0,83590,,618.0,,,68.0,20.0,20.0,1.0,easy,1000.0,1000.0,1.0,80.0,20.0,60.0,40.0,D,C,/static/Simple_RL/Stimuli/Fractals_stims/D.jpg,/static/Simple_RL/Stimuli/Fractals_stims/C.jpg,117.618,0.618,0.0,1.0,80.0,20.0,60.0,40.0,D,C,
104,,rl_choice_confirmation,,html-keyboard-response,104,135458,0.0-1.0-143.0-0.0,0,0,83590,,,,,,20.0,,,,,,,,,,,,,,,118.5,0.882,,,,,,,,,
105,,isi,,html-keyboard-response,105,136463,0.0-1.0-145.0,0,0,83590,,,,,,,,,,,,,,,,,,,,,119.5,1.0,,,,,,,,,
106,,feedback,,html-keyboard-response,106,137467,0.0-1.0-146.0-0.0,0,0,83590,,,,,,20.0,,,,,,,,,,,,,,,120.5,1.0,,,,,,,,,
107,,iti,,html-keyboard-response,107,138472,0.0-1.0-147.0,0,0,83590,,,,,,,,,,,,,,,,,,,,,121.5,1.0,,,,,,,,,
108,,rl_choice,,html-keyboard-response,108,138625,0.0-1.0-149.0,0,0,83590,,152.0,,,68.0,21.0,21.0,1.0,easy,3500.0,1000.0,1.0,80.0,20.0,60.0,20.0,D,C,/static/Simple_RL/Stimuli/Fractals_stims/D.jpg,/static/Simple_RL/Stimuli/Fractals_stims/C.jpg,121.652,0.152,0.0,1.0,80.0,20.0,60.0,20.0,D,C,
109,,rl_choice_confirmation,,html-keyboard-response,109,139975,0.0-1.0-150.0-0.0,0,0,83590,,,,,,21.0,,,,,,,,,,,,,,,123.0,1.348,,,,,,,,,
110,,isi,,html-keyboard-response,110,140977,0.0-1.0-152.0,0,0,83590,,,,,,,,,,,,,,,,,,,,,124.0,1.0,,,,,,,,,
111,,feedback,,html-keyboard-response,111,141979,0.0-1.0-153.0-0.0,0,0,83590,,,,,,21.0,,,,,,,,,,,,,,,125.0,1.0,,,,,,,,,
112,,iti,,html-keyboard-response,112,145483,0.0-1.0-154.0,0,0,83590,,,,,,,,,,,,,,,,,,,,,128.5,3.5,,,,,,,,,
113,,rl_choice,,html-keyboard-response,113,145957,0.0-1.0-156.0,0,0,83590,,471.0,,,68.0,22.0,22.0,1.0,easy,1500.0,1500.0,1.0,80.0,20.0,80.0,20.0,D,C,/static/Simple_RL/Stimuli/Fractals_stims/D.jpg,/static/Simple_RL/Stimuli/Fractals_stims/C.jpg,128.971,0.471,0.0,1.0,80.0,20.0,80.0,20.0,D,C,
114,,rl_choice_confirmation,,html-keyboard-response,114,146992,0.0-1.0-157.0-0.0,0,0,83590,,,,,,22.0,,,,,,,,,,,,,,,130.0,1.029,,,,,,,,,
115,,isi,,html-keyboard-response,115,148496,0.0-1.0-159.0,0,0,83590,,,,,,,,,,,,,,,,,,,,,131.5,1.5,,,,,,,,,
116,,feedback,,html-keyboard-response,116,149502,0.0-1.0-160.0-0.0,0,0,83590,,,,,,22.0,,,,,,,,,,,,,,,132.5,1.0,,,,,,,,,
117,,iti,,html-keyboard-response,117,151004,0.0-1.0-161.0,0,0,83590,,,,,,,,,,,,,,,,,,,,,134.0,1.5,,,,,,,,,
118,,rl_choice,,html-keyboard-response,118,151225,0.0-1.0-163.0,0,0,83590,,220.0,,,68.0,23.0,23.0,1.0,easy,2000.0,1500.0,0.0,20.0,80.0,20.0,60.0,C,D,/static/Simple_RL/Stimuli/Fractals_stims/C.jpg,/static/Simple_RL/Stimuli/Fractals_stims/D.jpg,134.22,0.22,0.0,1.0,20.0,80.0,20.0,60.0,C,D,
119,,rl_choice_confirmation,,html-keyboard-response,119,152510,0.0-1.0-164.0-0.0,0,0,83590,,,,,,23.0,,,,,,,,,,,,,,,135.5,1.28,,,,,,,,,
120,,isi,,html-keyboard-response,120,154012,0.0-1.0-166.0,0,0,83590,,,,,,,,,,,,,,,,,,,,,137.0,1.5,,,,,,,,,
121,,feedback,,html-keyboard-response,121,155017,0.0-1.0-167.0-0.0,0,0,83590,,,,,,23.0,,,,,,,,,,,,,,,138.0,1.0,,,,,,,,,
122,,iti,,html-keyboard-response,122,157019,0.0-1.0-168.0,0,0,83590,,,,,,,,,,,,,,,,,,,,,140.0,2.0,,,,,,,,,
123,,rl_choice,,html-keyboard-response,123,157071,0.0-1.0-170.0,0,0,83590,,49.0,,,68.0,24.0,24.0,1.0,hard,1000.0,1000.0,0.0,40.0,60.0,60.0,80.0,A,B,/static/Simple_RL/Stimuli/Fractals_stims/A.jpg,/static/Simple_RL/Stimuli/Fractals_stims/B.jpg,140.049,0.049,0.0,1.0,40.0,60.0,60.0,80.0,A,B,
124,,rl_choice_confirmation,,html-keyboard-response,124,158529,0.0-1.0-171.0-0.0,0,0,83590,,,,,,24.0,,,,,,,,,,,,,,,141.5,1.451,,,,,,,,,
125,,isi,,html-keyboard-response,125,159531,0.0-1.0-173.0,0,0,83590,,,,,,,,,,,,,,,,,,,,,142.5,1.0,,,,,,,,,
126,,feedback,,html-keyboard-response,126,160534,0.0-1.0-174.0-0.0,0,0,83590,,,,,,24.0,,,,,,,,,,,,,,,143.5,1.0,,,,,,,,,
127,,iti,,html-keyboard-response,127,161537,0.0-1.0-175.0,0,0,83590,,,,,,,,,,,,,,,,,,,,,144.5,1.0,,,,,,,,,
128,,rl_choice,,html-keyboard-response,128,161718,0.0-1.0-177.0,0,0,83590,,178.0,,,68.0,25.0,25.0,1.0,easy,1000.0,1500.0,0.0,20.0,80.0,20.0,60.0,C,D,/static/Simple_RL/Stimuli/Fractals_stims/C.jpg,/static/Simple_RL/Stimuli/Fractals_stims/D.jpg,144.678,0.178,0.0,1.0,20.0,80.0,20.0,60.0,C,D,
129,,rl_choice_confirmation,,html-keyboard-response,129,163041,0.0-1.0-178.0-0.0,0,0,83590,,,,,,25.0,,,,,,,,,,,,,,,146.0,1.322,,,,,,,,,
130,,isi,,html-keyboard-response,130,164545,0.0-1.0-180.0,0,0,83590,,,,,,,,,,,,,,,,,,,,,147.5,1.5,,,,,,,,,
131,,feedback,,html-keyboard-response,131,165548,0.0-1.0-181.0-0.0,0,0,83590,,,,,,25.0,,,,,,,,,,,,,,,148.5,1.0,,,,,,,,,
132,,iti,,html-keyboard-response,132,166550,0.0-1.0-182.0,0,0,83590,,,,,,,,,,,,,,,,,,,,,149.5,1.0,,,,,,,,,
133,,rl_choice,,html-keyboard-response,133,166784,0.0-1.0-184.0,0,0,83590,,231.0,,,68.0,26.0,26.0,1.0,easy,2000.0,1000.0,0.0,20.0,80.0,40.0,100.0,C,D,/static/Simple_RL/Stimuli/Fractals_stims/C.jpg,/static/Simple_RL/Stimuli/Fractals_stims/D.jpg,149.731,0.231,0.0,1.0,20.0,80.0,40.0,100.0,C,D,
134,,rl_choice_confirmation,,html-keyboard-response,134,168055,0.0-1.0-185.0-0.0,0,0,83590,,,,,,26.0,,,,,,,,,,,,,,,151.0,1.269,,,,,,,,,
135,,isi,,html-keyboard-response,135,169057,0.0-1.0-187.0,0,0,83590,,,,,,,,,,,,,,,,,,,,,152.0,1.0,,,,,,,,,
136,,feedback,,html-keyboard-response,136,170059,0.0-1.0-188.0-0.0,0,0,83590,,,,,,26.0,,,,,,,,,,,,,,,153.0,1.0,,,,,,,,,
137,,iti,,html-keyboard-response,137,172065,0.0-1.0-189.0,0,0,83590,,,,,,,,,,,,,,,,,,,,,155.0,2.0,,,,,,,,,
138,,rl_choice,,html-keyboard-response,138,172131,0.0-1.0-191.0,0,0,83590,,64.0,,,68.0,27.0,27.0,1.0,hard,1000.0,1000.0,1.0,60.0,40.0,60.0,20.0,B,A,/static/Simple_RL/Stimuli/Fractals_stims/B.jpg,/static/Simple_RL/Stimuli/Fractals_stims/A.jpg,155.064,0.064,0.0,1.0,60.0,40.0,60.0,20.0,B,A,
139,,rl_choice_confirmation,,html-keyboard-response,139,173569,0.0-1.0-192.0-0.0,0,0,83590,,,,,,27.0,,,,,,,,,,,,,,,156.5,1.436,,,,,,,,,
140,,isi,,html-keyboard-response,140,174574,0.0-1.0-194.0,0,0,83590,,,,,,,,,,,,,,,,,,,,,157.5,1.0,,,,,,,,,
141,,feedback,,html-keyboard-response,141,175580,0.0-1.0-195.0-0.0,0,0,83590,,,,,,27.0,,,,,,,,,,,,,,,158.5,1.0,,,,,,,,,
142,,iti,,html-keyboard-response,142,176585,0.0-1.0-196.0,0,0,83590,,,,,,,,,,,,,,,,,,,,,159.5,1.0,,,,,,,,,
143,,rl_choice,,html-keyboard-response,143,176715,0.0-1.0-198.0,0,0,83590,,129.0,,,68.0,28.0,28.0,1.0,easy,1500.0,1500.0,1.0,80.0,20.0,80.0,0.0,D,C,/static/Simple_RL/Stimuli/Fractals_stims/D.jpg,/static/Simple_RL/Stimuli/Fractals_stims/C.jpg,159.629,0.129,0.0,1.0,80.0,20.0,80.0,0.0,D,C,
144,,rl_choice_confirmation,,html-keyboard-response,144,178088,0.0-1.0-199.0-0.0,0,0,83590,,,,,,28.0,,,,,,,,,,,,,,,161.0,1.371,,,,,,,,,
145,,isi,,html-keyboard-response,145,179590,0.0-1.0-201.0,0,0,83590,,,,,,,,,,,,,,,,,,,,,162.5,1.5,,,,,,,,,
146,,feedback,,html-keyboard-response,146,180593,0.0-1.0-202.0-0.0,0,0,83590,,,,,,28.0,,,,,,,,,,,,,,,163.5,1.0,,,,,,,,,
147,,iti,,html-keyboard-response,147,182097,0.0-1.0-203.0,0,0,83590,,,,,,,,,,,,,,,,,,,,,165.0,1.5,,,,,,,,,
148,,rl_choice,,html-keyboard-response,148,182407,0.0-1.0-205.0,0,0,83590,,308.0,,,68.0,29.0,29.0,1.0,easy,2000.0,2000.0,0.0,20.0,80.0,20.0,80.0,C,D,/static/Simple_RL/Stimuli/Fractals_stims/C.jpg,/static/Simple_RL/Stimuli/Fractals_stims/D.jpg,165.308,0.308,0.0,1.0,20.0,80.0,20.0,80.0,C,D,
149,,rl_choice_confirmation,,html-keyboard-response,149,183602,0.0-1.0-206.0-0.0,0,0,83590,,,,,,29.0,,,,,,,,,,,,,,,166.5,1.192,,,,,,,,,
150,,isi,,html-keyboard-response,150,185607,0.0-1.0-208.0,0,0,83590,,,,,,,,,,,,,,,,,,,,,168.5,2.0,,,,,,,,,
151,,feedback,,html-keyboard-response,151,186609,0.0-1.0-209.0-0.0,0,0,83590,,,,,,29.0,,,,,,,,,,,,,,,169.5,1.0,,,,,,,,,
152,,iti,,html-keyboard-response,152,188615,0.0-1.0-210.0,0,0,83590,,,,,,,,,,,,,,,,,,,,,171.5,2.0,,,,,,,,,
153,,rl_choice,,html-keyboard-response,153,188680,0.0-1.0-212.0,0,0,83590,,64.0,,,68.0,30.0,30.0,1.0,hard,1500.0,1500.0,1.0,60.0,40.0,60.0,60.0,B,A,/static/Simple_RL/Stimuli/Fractals_stims/B.jpg,/static/Simple_RL/Stimuli/Fractals_stims/A.jpg,171.564,0.064,0.0,1.0,60.0,40.0,60.0,60.0,B,A,
154,,rl_choice_confirmation,,html-keyboard-response,154,190119,0.0-1.0-213.0-0.0,0,0,83590,,,,,,30.0,,,,,,,,,,,,,,,173.0,1.436,,,,,,,,,
155,,isi,,html-keyboard-response,155,191624,0.0-1.0-215.0,0,0,83590,,,,,,,,,,,,,,,,,,,,,174.5,1.5,,,,,,,,,
156,,feedback,,html-keyboard-response,156,192626,0.0-1.0-216.0-0.0,0,0,83590,,,,,,30.0,,,,,,,,,,,,,,,175.5,1.0,,,,,,,,,
157,,iti,,html-keyboard-response,157,194130,0.0-1.0-217.0,0,0,83590,,,,,,,,,,,,,,,,,,,,,177.0,1.5,,,,,,,,,
158,,rl_choice,,html-keyboard-response,158,194505,0.0-1.0-219.0,0,0,83590,,373.0,,,68.0,31.0,31.0,1.0,easy,3000.0,1000.0,0.0,20.0,80.0,40.0,80.0,C,D,/static/Simple_RL/Stimuli/Fractals_stims/C.jpg,/static/Simple_RL/Stimuli/Fractals_stims/D.jpg,177.373,0.373,0.0,1.0,20.0,80.0,40.0,80.0,C,D,
159,,rl_choice_confirmation,,html-keyboard-response,159,195636,0.0-1.0-220.0-0.0,0,0,83590,,,,,,31.0,,,,,,,,,,,,,,,178.5,1.127,,,,,,,,,
160,,isi,,html-keyboard-response,160,196642,0.0-1.0-222.0,0,0,83590,,,,,,,,,,,,,,,,,,,,,179.5,1.0,,,,,,,,,
161,,feedback,,html-keyboard-response,161,197645,0.0-1.0-223.0-0.0,0,0,83590,,,,,,31.0,,,,,,,,,,,,,,,180.5,1.0,,,,,,,,,
162,,iti,,html-keyboard-response,162,200647,0.0-1.0-224.0,0,0,83590,,,,,,,,,,,,,,,,,,,,,183.5,3.0,,,,,,,,,
163,,rl_choice,,html-keyboard-response,163,200860,0.0-1.0-226.0,0,0,83590,,209.0,,,68.0,32.0,32.0,1.0,easy,1000.0,1000.0,1.0,80.0,20.0,80.0,20.0,D,C,/static/Simple_RL/Stimuli/Fractals_stims/D.jpg,/static/Simple_RL/Stimuli/Fractals_stims/C.jpg,183.709,0.209,0.0,1.0,80.0,20.0,80.0,20.0,D,C,
164,,rl_choice_confirmation,,html-keyboard-response,164,202156,0.0-1.0-227.0-0.0,0,0,83590,,,,,,32.0,,,,,,,,,,,,,,,185.0,1.291,,,,,,,,,
165,,isi,,html-keyboard-response,165,203159,0.0-1.0-229.0,0,0,83590,,,,,,,,,,,,,,,,,,,,,186.0,1.0,,,,,,,,,
166,,feedback,,html-keyboard-response,166,204163,0.0-1.0-230.0-0.0,0,0,83590,,,,,,32.0,,,,,,,,,,,,,,,187.0,1.0,,,,,,,,,
167,,iti,,html-keyboard-response,167,205165,0.0-1.0-231.0,0,0,83590,,,,,,,,,,,,,,,,,,,,,188.0,1.0,,,,,,,,,
168,,rl_choice,,html-keyboard-response,168,205282,0.0-1.0-233.0,0,0,83590,,115.0,,,68.0,33.0,33.0,1.0,easy,1000.0,1000.0,0.0,20.0,80.0,40.0,60.0,C,D,/static/Simple_RL/Stimuli/Fractals_stims/C.jpg,/static/Simple_RL/Stimuli/Fractals_stims/D.jpg,188.115,0.115,0.0,1.0,20.0,80.0,40.0,60.0,C,D,
169,,rl_choice_confirmation,,html-keyboard-response,169,206669,0.0-1.0-234.0-0.0,0,0,83590,,,,,,33.0,,,,,,,,,,,,,,,189.5,1.385,,,,,,,,,
170,,isi,,html-keyboard-response,170,207671,0.0-1.0-236.0,0,0,83590,,,,,,,,,,,,,,,,,,,,,190.5,1.0,,,,,,,,,
171,,feedback,,html-keyboard-response,171,208674,0.0-1.0-237.0-0.0,0,0,83590,,,,,,33.0,,,,,,,,,,,,,,,191.5,1.0,,,,,,,,,
172,,iti,,html-keyboard-response,172,209676,0.0-1.0-238.0,0,0,83590,,,,,,,,,,,,,,,,,,,,,192.5,1.0,,,,,,,,,
173,,rl_choice,,html-keyboard-response,173,209966,0.0-1.0-240.0,0,0,83590,,289.0,,,68.0,34.0,34.0,1.0,hard,1500.0,1000.0,0.0,40.0,60.0,40.0,40.0,A,B,/static/Simple_RL/Stimuli/Fractals_stims/A.jpg,/static/Simple_RL/Stimuli/Fractals_stims/B.jpg,192.789,0.289,0.0,1.0,40.0,60.0,40.0,40.0,A,B,
174,,rl_choice_confirmation,,html-keyboard-response,174,211181,0.0-1.0-241.0-0.0,0,0,83590,,,,,,34.0,,,,,,,,,,,,,,,194.0,1.211,,,,,,,,,
175,,isi,,html-keyboard-response,175,212184,0.0-1.0-243.0,0,0,83590,,,,,,,,,,,,,,,,,,,,,195.0,1.0,,,,,,,,,
176,,feedback,,html-keyboard-response,176,213186,0.0-1.0-244.0-0.0,0,0,83590,,,,,,34.0,,,,,,,,,,,,,,,196.0,1.0,,,,,,,,,
177,,iti,,html-keyboard-response,177,214690,0.0-1.0-245.0,0,0,83590,,,,,,,,,,,,,,,,,,,,,197.5,1.5,,,,,,,,,
178,,rl_choice,,html-keyboard-response,178,214701,0.0-1.0-247.0,0,0,83590,,9.0,,,68.0,35.0,35.0,1.0,hard,1000.0,3000.0,0.0,40.0,60.0,40.0,40.0,A,B,/static/Simple_RL/Stimuli/Fractals_stims/A.jpg,/static/Simple_RL/Stimuli/Fractals_stims/B.jpg,197.509,0.009,0.0,1.0,40.0,60.0,40.0,40.0,A,B,
179,,rl_choice_confirmation,,html-keyboard-response,179,216196,0.0-1.0-248.0-0.0,0,0,83590,,,,,,35.0,,,,,,,,,,,,,,,199.0,1.491,,,,,,,,,
180,,isi,,html-keyboard-response,180,219202,0.0-1.0-250.0,0,0,83590,,,,,,,,,,,,,,,,,,,,,202.0,3.0,,,,,,,,,
181,,feedback,,html-keyboard-response,181,220206,0.0-1.0-251.0-0.0,0,0,83590,,,,,,35.0,,,,,,,,,,,,,,,203.0,1.0,,,,,,,,,
182,,iti,,html-keyboard-response,182,221212,0.0-1.0-252.0,0,0,83590,,,,,,,,,,,,,,,,,,,,,204.0,1.0,,,,,,,,,
183,,rl_choice,,html-keyboard-response,183,221682,0.0-1.0-254.0,0,0,83590,,467.0,,,68.0,36.0,36.0,1.0,easy,1000.0,3500.0,0.0,20.0,80.0,0.0,80.0,C,D,/static/Simple_RL/Stimuli/Fractals_stims/C.jpg,/static/Simple_RL/Stimuli/Fractals_stims/D.jpg,204.467,0.467,0.0,1.0,20.0,80.0,0.0,80.0,C,D,
184,,rl_choice_confirmation,,html-keyboard-response,184,222717,0.0-1.0-255.0-0.0,0,0,83590,,,,,,36.0,,,,,,,,,,,,,,,205.5,1.033,,,,,,,,,
185,,isi,,html-keyboard-response,185,226221,0.0-1.0-257.0,0,0,83590,,,,,,,,,,,,,,,,,,,,,209.0,3.5,,,,,,,,,
186,,feedback,,html-keyboard-response,186,227228,0.0-1.0-258.0-0.0,0,0,83590,,,,,,36.0,,,,,,,,,,,,,,,210.0,1.0,,,,,,,,,
187,,iti,,html-keyboard-response,187,228231,0.0-1.0-259.0,0,0,83590,,,,,,,,,,,,,,,,,,,,,211.0,1.0,,,,,,,,,
188,,rl_choice,,html-keyboard-response,188,228560,0.0-1.0-261.0,0,0,83590,,327.0,,,68.0,37.0,37.0,1.0,hard,2000.0,1500.0,1.0,60.0,40.0,40.0,20.0,B,A,/static/Simple_RL/Stimuli/Fractals_stims/B.jpg,/static/Simple_RL/Stimuli/Fractals_stims/A.jpg,211.327,0.327,0.0,1.0,60.0,40.0,40.0,20.0,B,A,
189,,rl_choice_confirmation,,html-keyboard-response,189,229737,0.0-1.0-262.0-0.0,0,0,83590,,,,,,37.0,,,,,,,,,,,,,,,212.5,1.173,,,,,,,,,
190,,isi,,html-keyboard-response,190,231244,0.0-1.0-264.0,0,0,83590,,,,,,,,,,,,,,,,,,,,,214.0,1.5,,,,,,,,,
191,,feedback,,html-keyboard-response,191,232247,0.0-1.0-265.0-0.0,0,0,83590,,,,,,37.0,,,,,,,,,,,,,,,215.0,1.0,,,,,,,,,
192,,iti,,html-keyboard-response,192,234253,0.0-1.0-266.0,0,0,83590,,,,,,,,,,,,,,,,,,,,,217.0,2.0,,,,,,,,,
193,,rl_choice,,html-keyboard-response,193,234435,0.0-1.0-268.0,0,0,83590,,181.0,,,68.0,38.0,38.0,1.0,hard,3000.0,1000.0,1.0,60.0,40.0,40.0,40.0,B,A,/static/Simple_RL/Stimuli/Fractals_stims/B.jpg,/static/Simple_RL/Stimuli/Fractals_stims/A.jpg,217.181,0.181,0.0,1.0,60.0,40.0,40.0,40.0,B,A,
194,,rl_choice_confirmation,,html-keyboard-response,194,235757,0.0-1.0-269.0-0.0,0,0,83590,,,,,,38.0,,,,,,,,,,,,,,,218.5,1.319,,,,,,,,,
195,,isi,,html-keyboard-response,195,236763,0.0-1.0-271.0,0,0,83590,,,,,,,,,,,,,,,,,,,,,219.5,1.0,,,,,,,,,
196,,feedback,,html-keyboard-response,196,237768,0.0-1.0-272.0-0.0,0,0,83590,,,,,,38.0,,,,,,,,,,,,,,,220.5,1.0,,,,,,,,,
197,,iti,,html-keyboard-response,197,240771,0.0-1.0-273.0,0,0,83590,,,,,,,,,,,,,,,,,,,,,223.5,3.0,,,,,,,,,
198,,rl_choice,,html-keyboard-response,198,241093,0.0-1.0-275.0,0,0,83590,,320.0,,,68.0,39.0,39.0,1.0,easy,3000.0,3000.0,1.0,80.0,20.0,100.0,0.0,D,C,/static/Simple_RL/Stimuli/Fractals_stims/D.jpg,/static/Simple_RL/Stimuli/Fractals_stims/C.jpg,223.82,0.32,0.0,1.0,80.0,20.0,100.0,0.0,D,C,
199,,rl_choice_confirmation,,html-keyboard-response,199,242280,0.0-1.0-276.0-0.0,0,0,83590,,,,,,39.0,,,,,,,,,,,,,,,225.0,1.18,,,,,,,,,
200,,isi,,html-keyboard-response,200,245283,0.0-1.0-278.0,0,0,83590,,,,,,,,,,,,,,,,,,,,,228.0,3.0,,,,,,,,,
201,,feedback,,html-keyboard-response,201,246286,0.0-1.0-279.0-0.0,0,0,83590,,,,,,39.0,,,,,,,,,,,,,,,229.0,1.0,,,,,,,,,
202,,iti,,html-keyboard-response,202,249288,0.0-1.0-280.0,0,0,83590,,,,,,,,,,,,,,,,,,,,,232.0,3.0,,,,,,,,,
203,,block_over,,html-keyboard-response,203,255031,0.0-1.0-281.0-0.0,0,0,83590,,5740.0,,,68.0,39.0,,,,,,,,,,,,,,,,,,,,,,,,,
204,,start_run,,html-keyboard-response,204,256580,0.0-1.0-281.0-1.0,0,0,83590,,1549.0,,,84.0,,,,,,,,,,,,,,,,,,,,,,,,,,
205,,rl_choice,,html-keyboard-response,205,257300,0.0-1.0-282.0,0,0,83590,,717.0,,,68.0,40.0,40.0,2.0,hard,2000.0,1000.0,1.0,60.0,40.0,80.0,40.0,B,A,/static/Simple_RL/Stimuli/Fractals_stims/B.jpg,/static/Simple_RL/Stimuli/Fractals_stims/A.jpg,0.717,0.717,0.0,1.0,60.0,40.0,80.0,40.0,B,A,
206,,rl_choice_confirmation,,html-keyboard-response,206,258088,0.0-1.0-283.0-0.0,0,0,83590,,,,,,40.0,,,,,,,,,,,,,,,1.5,0.783,,,,,,,,,
207,,isi,,html-keyboard-response,207,259090,0.0-1.0-285.0,0,0,83590,,,,,,,,,,,,,,,,,,,,,2.5,1.0,,,,,,,,,
208,,feedback,,html-keyboard-response,208,260095,0.0-1.0-286.0-0.0,0,0,83590,,,,,,40.0,,,,,,,,,,,,,,,3.5,1.0,,,,,,,,,
209,,iti,,html-keyboard-response,209,262099,0.0-1.0-287.0,0,0,83590,,,,,,,,,,,,,,,,,,,,,5.5,2.0,,,,,,,,,
210,,rl_choice,,html-keyboard-response,210,263605,0.0-1.0-289.0,0,0,83590,,,,,,41.0,41.0,2.0,easy,1000.0,2000.0,0.0,20.0,80.0,20.0,80.0,C,D,/static/Simple_RL/Stimuli/Fractals_stims/C.jpg,/static/Simple_RL/Stimuli/Fractals_stims/D.jpg,7.0,1.5,1.0,,,,,,,,
211,,rl_choice_warning,,html-keyboard-response,211,264611,0.0-1.0-291.0-0.0,1,0,83590,,,,,,,,,,,,,,,,,,,,,8.0,1.0,,,,,,,,,
212,,isi,,html-keyboard-response,212,266617,0.0-1.0-292.0,0,0,83590,,,,,,,,,,,,,,,,,,,,,10.0,2.0,,,,,,,,,
213,,iti,,html-keyboard-response,213,267619,0.0-1.0-294.0,0,0,83590,,,,,,,,,,,,,,,,,,,,,11.0,1.0,,,,,,,,,
214,,rl_choice,,html-keyboard-response,214,268055,0.0-1.0-296.0,0,0,83590,,433.0,,,68.0,42.0,42.0,2.0,easy,3500.0,2000.0,1.0,80.0,20.0,100.0,20.0,D,C,/static/Simple_RL/Stimuli/Fractals_stims/D.jpg,/static/Simple_RL/Stimuli/Fractals_stims/C.jpg,11.433,0.433,0.0,1.0,80.0,20.0,100.0,20.0,D,C,
215,,rl_choice_confirmation,,html-keyboard-response,215,269123,0.0-1.0-297.0-0.0,0,0,83590,,,,,,42.0,,,,,,,,,,,,,,,12.5,1.067,,,,,,,,,
216,,isi,,html-keyboard-response,216,271129,0.0-1.0-299.0,0,0,83590,,,,,,,,,,,,,,,,,,,,,14.5,2.0,,,,,,,,,
217,,feedback,,html-keyboard-response,217,272135,0.0-1.0-300.0-0.0,0,0,83590,,,,,,42.0,,,,,,,,,,,,,,,15.5,1.0,,,,,,,,,
218,,iti,,html-keyboard-response,218,275641,0.0-1.0-301.0,0,0,83590,,,,,,,,,,,,,,,,,,,,,19.0,3.5,,,,,,,,,
219,,rl_choice,,html-keyboard-response,219,275832,0.0-1.0-303.0,0,0,83590,,190.0,,,68.0,43.0,43.0,2.0,easy,2000.0,1000.0,0.0,20.0,80.0,20.0,80.0,C,D,/static/Simple_RL/Stimuli/Fractals_stims/C.jpg,/static/Simple_RL/Stimuli/Fractals_stims/D.jpg,19.19,0.19,0.0,1.0,20.0,80.0,20.0,80.0,C,D,
220,,rl_choice_confirmation,,html-keyboard-response,220,277146,0.0-1.0-304.0-0.0,0,0,83590,,,,,,43.0,,,,,,,,,,,,,,,20.5,1.31,,,,,,,,,
221,,isi,,html-keyboard-response,221,278153,0.0-1.0-306.0,0,0,83590,,,,,,,,,,,,,,,,,,,,,21.5,1.0,,,,,,,,,
222,,feedback,,html-keyboard-response,222,279155,0.0-1.0-307.0-0.0,0,0,83590,,,,,,43.0,,,,,,,,,,,,,,,22.5,1.0,,,,,,,,,
223,,iti,,html-keyboard-response,223,281161,0.0-1.0-308.0,0,0,83590,,,,,,,,,,,,,,,,,,,,,24.5,2.0,,,,,,,,,
224,,rl_choice,,html-keyboard-response,224,281260,0.0-1.0-310.0,0,0,83590,,97.0,,,68.0,44.0,44.0,2.0,easy,2000.0,1000.0,0.0,20.0,80.0,40.0,80.0,C,D,/static/Simple_RL/Stimuli/Fractals_stims/C.jpg,/static/Simple_RL/Stimuli/Fractals_stims/D.jpg,24.597,0.097,0.0,1.0,20.0,80.0,40.0,80.0,C,D,
225,,rl_choice_confirmation,,html-keyboard-response,225,282670,0.0-1.0-311.0-0.0,0,0,83590,,,,,,44.0,,,,,,,,,,,,,,,26.0,1.403,,,,,,,,,
226,,isi,,html-keyboard-response,226,283676,0.0-1.0-313.0,0,0,83590,,,,,,,,,,,,,,,,,,,,,27.0,1.0,,,,,,,,,
227,,feedback,,html-keyboard-response,227,284844,0.0-1.0-314.0-0.0,0,0,83590,,,,,,44.0,,,,,,,,,,,,,,,28.0,1.0,,,,,,,,,
228,,iti,,html-keyboard-response,228,286847,0.0-1.0-315.0,0,0,83590,,,,,,,,,,,,,,,,,,,,,30.0,2.0,,,,,,,,,
229,,rl_choice,,html-keyboard-response,229,288351,0.0-1.0-317.0,0,0,83590,,,,,,45.0,45.0,2.0,easy,1000.0,1000.0,1.0,80.0,20.0,100.0,20.0,D,C,/static/Simple_RL/Stimuli/Fractals_stims/D.jpg,/static/Simple_RL/Stimuli/Fractals_stims/C.jpg,31.5,1.5,1.0,,,,,,,,
230,,rl_choice_warning,,html-keyboard-response,230,289356,0.0-1.0-319.0-0.0,1,0,83590,,,,,,,,,,,,,,,,,,,,,32.5,1.0,,,,,,,,,
231,,isi,,html-keyboard-response,231,290361,0.0-1.0-320.0,0,0,83590,,,,,,,,,,,,,,,,,,,,,33.5,1.0,,,,,,,,,
232,,iti,,html-keyboard-response,232,291367,0.0-1.0-322.0,0,0,83590,,,,,,,,,,,,,,,,,,,,,34.5,1.0,,,,,,,,,
233,,rl_choice,,html-keyboard-response,233,292869,0.0-1.0-324.0,0,0,83590,,,,,,46.0,46.0,2.0,easy,1000.0,1500.0,0.0,20.0,80.0,40.0,80.0,C,D,/static/Simple_RL/Stimuli/Fractals_stims/C.jpg,/static/Simple_RL/Stimuli/Fractals_stims/D.jpg,36.0,1.5,1.0,,,,,,,,
234,,rl_choice_warning,,html-keyboard-response,234,293871,0.0-1.0-326.0-0.0,1,0,83590,,,,,,,,,,,,,,,,,,,,,37.0,1.0,,,,,,,,,
235,,isi,,html-keyboard-response,235,295376,0.0-1.0-327.0,0,0,83590,,,,,,,,,,,,,,,,,,,,,38.5,1.5,,,,,,,,,
236,,iti,,html-keyboard-response,236,296379,0.0-1.0-329.0,0,0,83590,,,,,,,,,,,,,,,,,,,,,39.5,1.0,,,,,,,,,
237,,rl_choice,,html-keyboard-response,237,297882,0.0-1.0-331.0,0,0,83590,,,,,,47.0,47.0,2.0,easy,1000.0,3000.0,0.0,20.0,80.0,0.0,100.0,C,D,/static/Simple_RL/Stimuli/Fractals_stims/C.jpg,/static/Simple_RL/Stimuli/Fractals_stims/D.jpg,41.0,1.5,1.0,,,,,,,,
238,,rl_choice_warning,,html-keyboard-response,238,298884,0.0-1.0-333.0-0.0,1,0,83590,,,,,,,,,,,,,,,,,,,,,42.0,1.0,,,,,,,,,
239,,isi,,html-keyboard-response,239,301888,0.0-1.0-334.0,0,0,83590,,,,,,,,,,,,,,,,,,,,,45.0,3.0,,,,,,,,,
240,,iti,,html-keyboard-response,240,302889,0.0-1.0-336.0,0,0,83590,,,,,,,,,,,,,,,,,,,,,46.0,1.0,,,,,,,,,
241,,rl_choice,,html-keyboard-response,241,304397,0.0-1.0-338.0,0,0,83590,,,,,,48.0,48.0,2.0,hard,1000.0,1000.0,0.0,40.0,60.0,60.0,60.0,A,B,/static/Simple_RL/Stimuli/Fractals_stims/A.jpg,/static/Simple_RL/Stimuli/Fractals_stims/B.jpg,47.5,1.5,1.0,,,,,,,,
242,,rl_choice_warning,,html-keyboard-response,242,305404,0.0-1.0-340.0-0.0,1,0,83590,,,,,,,,,,,,,,,,,,,,,48.5,1.0,,,,,,,,,
243,,isi,,html-keyboard-response,243,306409,0.0-1.0-341.0,0,0,83590,,,,,,,,,,,,,,,,,,,,,49.5,1.0,,,,,,,,,
244,,iti,,html-keyboard-response,244,307414,0.0-1.0-343.0,0,0,83590,,,,,,,,,,,,,,,,,,,,,50.5,1.0,,,,,,,,,
245,,rl_choice,,html-keyboard-response,245,308916,0.0-1.0-345.0,0,0,83590,,,,,,49.0,49.0,2.0,easy,1500.0,2000.0,0.0,20.0,80.0,40.0,60.0,C,D,/static/Simple_RL/Stimuli/Fractals_stims/C.jpg,/static/Simple_RL/Stimuli/Fractals_stims/D.jpg,52.0,1.5,1.0,,,,,,,,
246,,rl_choice_warning,,html-keyboard-response,246,309922,0.0-1.0-347.0-0.0,1,0,83590,,,,,,,,,,,,,,,,,,,,,53.0,1.0,,,,,,,,,
247,,isi,,html-keyboard-response,247,311929,0.0-1.0-348.0,0,0,83590,,,,,,,,,,,,,,,,,,,,,55.0,2.0,,,,,,,,,
248,,iti,,html-keyboard-response,248,313440,0.0-1.0-350.0,0,0,83590,,,,,,,,,,,,,,,,,,,,,56.5,1.5,,,,,,,,,
249,,rl_choice,,html-keyboard-response,249,314943,0.0-1.0-352.0,0,0,83590,,,,,,50.0,50.0,2.0,easy,1000.0,1000.0,1.0,80.0,20.0,80.0,0.0,D,C,/static/Simple_RL/Stimuli/Fractals_stims/D.jpg,/static/Simple_RL/Stimuli/Fractals_stims/C.jpg,58.0,1.5,1.0,,,,,,,,
250,,rl_choice_warning,,html-keyboard-response,250,315948,0.0-1.0-354.0-0.0,1,0,83590,,,,,,,,,,,,,,,,,,,,,59.0,1.0,,,,,,,,,
251,,isi,,html-keyboard-response,251,316952,0.0-1.0-355.0,0,0,83590,,,,,,,,,,,,,,,,,,,,,60.0,1.0,,,,,,,,,
252,,iti,,html-keyboard-response,252,317956,0.0-1.0-357.0,0,0,83590,,,,,,,,,,,,,,,,,,,,,61.0,1.0,,,,,,,,,
253,,rl_choice,,html-keyboard-response,253,319461,0.0-1.0-359.0,0,0,83590,,,,,,51.0,51.0,2.0,easy,3000.0,1500.0,0.0,20.0,80.0,20.0,80.0,C,D,/static/Simple_RL/Stimuli/Fractals_stims/C.jpg,/static/Simple_RL/Stimuli/Fractals_stims/D.jpg,62.5,1.5,1.0,,,,,,,,
254,,rl_choice_warning,,html-keyboard-response,254,320463,0.0-1.0-361.0-0.0,1,0,83590,,,,,,,,,,,,,,,,,,,,,63.5,1.0,,,,,,,,,
255,,isi,,html-keyboard-response,255,321971,0.0-1.0-362.0,0,0,83590,,,,,,,,,,,,,,,,,,,,,65.0,1.5,,,,,,,,,
256,,iti,,html-keyboard-response,256,324977,0.0-1.0-364.0,0,0,83590,,,,,,,,,,,,,,,,,,,,,68.0,3.0,,,,,,,,,
257,,rl_choice,,html-keyboard-response,257,326482,0.0-1.0-366.0,0,0,83590,,,,,,52.0,52.0,2.0,hard,1000.0,1000.0,0.0,40.0,60.0,40.0,40.0,A,B,/static/Simple_RL/Stimuli/Fractals_stims/A.jpg,/static/Simple_RL/Stimuli/Fractals_stims/B.jpg,69.5,1.5,1.0,,,,,,,,
258,,rl_choice_warning,,html-keyboard-response,258,327487,0.0-1.0-368.0-0.0,1,0,83590,,,,,,,,,,,,,,,,,,,,,70.5,1.0,,,,,,,,,
259,,isi,,html-keyboard-response,259,328492,0.0-1.0-369.0,0,0,83590,,,,,,,,,,,,,,,,,,,,,71.5,1.0,,,,,,,,,
260,,iti,,html-keyboard-response,260,329498,0.0-1.0-371.0,0,0,83590,,,,,,,,,,,,,,,,,,,,,72.5,1.0,,,,,,,,,
261,,rl_choice,,html-keyboard-response,261,331002,0.0-1.0-373.0,0,0,83590,,,,,,53.0,53.0,2.0,hard,3000.0,1500.0,0.0,40.0,60.0,40.0,40.0,A,B,/static/Simple_RL/Stimuli/Fractals_stims/A.jpg,/static/Simple_RL/Stimuli/Fractals_stims/B.jpg,74.0,1.5,1.0,,,,,,,,
262,,rl_choice_warning,,html-keyboard-response,262,332007,0.0-1.0-375.0-0.0,1,0,83590,,,,,,,,,,,,,,,,,,,,,75.0,1.0,,,,,,,,,
263,,isi,,html-keyboard-response,263,333513,0.0-1.0-376.0,0,0,83590,,,,,,,,,,,,,,,,,,,,,76.5,1.5,,,,,,,,,
264,,iti,,html-keyboard-response,264,336517,0.0-1.0-378.0,0,0,83590,,,,,,,,,,,,,,,,,,,,,79.5,3.0,,,,,,,,,
265,,rl_choice,,html-keyboard-response,265,338022,0.0-1.0-380.0,0,0,83590,,,,,,54.0,54.0,2.0,hard,1500.0,1500.0,0.0,40.0,60.0,20.0,80.0,A,B,/static/Simple_RL/Stimuli/Fractals_stims/A.jpg,/static/Simple_RL/Stimuli/Fractals_stims/B.jpg,81.0,1.5,1.0,,,,,,,,
266,,rl_choice_warning,,html-keyboard-response,266,339029,0.0-1.0-382.0-0.0,1,0,83590,,,,,,,,,,,,,,,,,,,,,82.0,1.0,,,,,,,,,
267,,isi,,html-keyboard-response,267,340535,0.0-1.0-383.0,0,0,83590,,,,,,,,,,,,,,,,,,,,,83.5,1.5,,,,,,,,,
268,,iti,,html-keyboard-response,268,342039,0.0-1.0-385.0,0,0,83590,,,,,,,,,,,,,,,,,,,,,85.0,1.5,,,,,,,,,
269,,rl_choice,,html-keyboard-response,269,343541,0.0-1.0-387.0,0,0,83590,,,,,,55.0,55.0,2.0,easy,1500.0,1500.0,1.0,80.0,20.0,80.0,0.0,D,C,/static/Simple_RL/Stimuli/Fractals_stims/D.jpg,/static/Simple_RL/Stimuli/Fractals_stims/C.jpg,86.5,1.5,1.0,,,,,,,,
270,,rl_choice_warning,,html-keyboard-response,270,344546,0.0-1.0-389.0-0.0,1,0,83590,,,,,,,,,,,,,,,,,,,,,87.5,1.0,,,,,,,,,
271,,isi,,html-keyboard-response,271,346049,0.0-1.0-390.0,0,0,83590,,,,,,,,,,,,,,,,,,,,,89.0,1.5,,,,,,,,,
272,,iti,,html-keyboard-response,272,347551,0.0-1.0-392.0,0,0,83590,,,,,,,,,,,,,,,,,,,,,90.5,1.5,,,,,,,,,
273,,rl_choice,,html-keyboard-response,273,349056,0.0-1.0-394.0,0,0,83590,,,,,,56.0,56.0,2.0,hard,1500.0,2000.0,1.0,60.0,40.0,60.0,60.0,B,A,/static/Simple_RL/Stimuli/Fractals_stims/B.jpg,/static/Simple_RL/Stimuli/Fractals_stims/A.jpg,92.0,1.5,1.0,,,,,,,,
274,,rl_choice_warning,,html-keyboard-response,274,350058,0.0-1.0-396.0-0.0,1,0,83590,,,,,,,,,,,,,,,,,,,,,93.0,1.0,,,,,,,,,
275,,isi,,html-keyboard-response,275,352064,0.0-1.0-397.0,0,0,83590,,,,,,,,,,,,,,,,,,,,,95.0,2.0,,,,,,,,,
276,,iti,,html-keyboard-response,276,353567,0.0-1.0-399.0,0,0,83590,,,,,,,,,,,,,,,,,,,,,96.5,1.5,,,,,,,,,
277,,rl_choice,,html-keyboard-response,277,354761,0.0-1.0-401.0,0,0,83590,,1192.0,,,75.0,57.0,57.0,2.0,hard,1500.0,2000.0,1.0,60.0,40.0,60.0,60.0,B,A,/static/Simple_RL/Stimuli/Fractals_stims/B.jpg,/static/Simple_RL/Stimuli/Fractals_stims/A.jpg,97.692,1.192,0.0,0.0,40.0,60.0,60.0,60.0,A,B,
278,,rl_choice_confirmation,,html-keyboard-response,278,355073,0.0-1.0-402.0-0.0,0,0,83590,,,,,,57.0,,,,,,,,,,,,,,,98.0,0.308,,,,,,,,,
279,,isi,,html-keyboard-response,279,357074,0.0-1.0-404.0,0,0,83590,,,,,,,,,,,,,,,,,,,,,100.0,2.0,,,,,,,,,
280,,feedback,,html-keyboard-response,280,358080,0.0-1.0-405.0-0.0,0,0,83590,,,,,,57.0,,,,,,,,,,,,,,,101.0,1.0,,,,,,,,,
281,,iti,,html-keyboard-response,281,359582,0.0-1.0-406.0,0,0,83590,,,,,,,,,,,,,,,,,,,,,102.5,1.5,,,,,,,,,
282,,rl_choice,,html-keyboard-response,282,359837,0.0-1.0-408.0,0,0,83590,,254.0,,,75.0,58.0,58.0,2.0,easy,1000.0,2000.0,0.0,20.0,80.0,0.0,60.0,C,D,/static/Simple_RL/Stimuli/Fractals_stims/C.jpg,/static/Simple_RL/Stimuli/Fractals_stims/D.jpg,102.754,0.254,0.0,0.0,80.0,20.0,60.0,0.0,D,C,
283,,rl_choice_confirmation,,html-keyboard-response,283,361088,0.0-1.0-409.0-0.0,0,0,83590,,,,,,58.0,,,,,,,,,,,,,,,104.0,1.246,,,,,,,,,
284,,isi,,html-keyboard-response,284,363093,0.0-1.0-411.0,0,0,83590,,,,,,,,,,,,,,,,,,,,,106.0,2.0,,,,,,,,,
285,,feedback,,html-keyboard-response,285,364099,0.0-1.0-412.0-0.0,0,0,83590,,,,,,58.0,,,,,,,,,,,,,,,107.0,1.0,,,,,,,,,
286,,iti,,html-keyboard-response,286,365105,0.0-1.0-413.0,0,0,83590,,,,,,,,,,,,,,,,,,,,,108.0,1.0,,,,,,,,,
287,,rl_choice,,html-keyboard-response,287,365549,0.0-1.0-415.0,0,0,83590,,443.0,,,75.0,59.0,59.0,2.0,easy,1000.0,1000.0,1.0,80.0,20.0,80.0,0.0,D,C,/static/Simple_RL/Stimuli/Fractals_stims/D.jpg,/static/Simple_RL/Stimuli/Fractals_stims/C.jpg,108.443,0.443,0.0,0.0,20.0,80.0,0.0,80.0,C,D,
288,,rl_choice_confirmation,,html-keyboard-response,288,366609,0.0-1.0-416.0-0.0,0,0,83590,,,,,,59.0,,,,,,,,,,,,,,,109.5,1.057,,,,,,,,,
289,,isi,,html-keyboard-response,289,367614,0.0-1.0-418.0,0,0,83590,,,,,,,,,,,,,,,,,,,,,110.5,1.0,,,,,,,,,
290,,feedback,,html-keyboard-response,290,368619,0.0-1.0-419.0-0.0,0,0,83590,,,,,,59.0,,,,,,,,,,,,,,,111.5,1.0,,,,,,,,,
291,,iti,,html-keyboard-response,291,369621,0.0-1.0-420.0,0,0,83590,,,,,,,,,,,,,,,,,,,,,112.5,1.0,,,,,,,,,
292,,rl_choice,,html-keyboard-response,292,369942,0.0-1.0-422.0,0,0,83590,,320.0,,,75.0,60.0,60.0,2.0,easy,3000.0,1500.0,1.0,80.0,20.0,80.0,20.0,D,C,/static/Simple_RL/Stimuli/Fractals_stims/D.jpg,/static/Simple_RL/Stimuli/Fractals_stims/C.jpg,112.82,0.32,0.0,0.0,20.0,80.0,20.0,80.0,C,D,
293,,rl_choice_confirmation,,html-keyboard-response,293,371125,0.0-1.0-423.0-0.0,0,0,83590,,,,,,60.0,,,,,,,,,,,,,,,114.0,1.18,,,,,,,,,
294,,isi,,html-keyboard-response,294,372631,0.0-1.0-425.0,0,0,83590,,,,,,,,,,,,,,,,,,,,,115.5,1.5,,,,,,,,,
295,,feedback,,html-keyboard-response,295,373638,0.0-1.0-426.0-0.0,0,0,83590,,,,,,60.0,,,,,,,,,,,,,,,116.5,1.0,,,,,,,,,
296,,iti,,html-keyboard-response,296,376642,0.0-1.0-427.0,0,0,83590,,,,,,,,,,,,,,,,,,,,,119.5,3.0,,,,,,,,,
297,,rl_choice,,html-keyboard-response,297,377737,0.0-1.0-429.0,0,0,83590,,1093.0,,,68.0,61.0,61.0,2.0,hard,2000.0,1500.0,1.0,60.0,40.0,60.0,40.0,B,A,/static/Simple_RL/Stimuli/Fractals_stims/B.jpg,/static/Simple_RL/Stimuli/Fractals_stims/A.jpg,120.593,1.093,0.0,1.0,60.0,40.0,60.0,40.0,B,A,
298,,rl_choice_confirmation,,html-keyboard-response,298,378149,0.0-1.0-430.0-0.0,0,0,83590,,,,,,61.0,,,,,,,,,,,,,,,121.0,0.407,,,,,,,,,
299,,isi,,html-keyboard-response,299,379650,0.0-1.0-432.0,0,0,83590,,,,,,,,,,,,,,,,,,,,,122.5,1.5,,,,,,,,,
300,,feedback,,html-keyboard-response,300,380655,0.0-1.0-433.0-0.0,0,0,83590,,,,,,61.0,,,,,,,,,,,,,,,123.5,1.0,,,,,,,,,
301,,iti,,html-keyboard-response,301,382659,0.0-1.0-434.0,0,0,83590,,,,,,,,,,,,,,,,,,,,,125.5,2.0,,,,,,,,,
302,,rl_choice,,html-keyboard-response,302,383296,0.0-1.0-436.0,0,0,83590,,635.0,,,68.0,62.0,62.0,2.0,easy,1500.0,3000.0,1.0,80.0,20.0,60.0,40.0,D,C,/static/Simple_RL/Stimuli/Fractals_stims/D.jpg,/static/Simple_RL/Stimuli/Fractals_stims/C.jpg,126.135,0.635,0.0,1.0,80.0,20.0,60.0,40.0,D,C,
303,,rl_choice_confirmation,,html-keyboard-response,303,384166,0.0-1.0-437.0-0.0,0,0,83590,,,,,,62.0,,,,,,,,,,,,,,,127.0,0.865,,,,,,,,,
304,,isi,,html-keyboard-response,304,387171,0.0-1.0-439.0,0,0,83590,,,,,,,,,,,,,,,,,,,,,130.0,3.0,,,,,,,,,
305,,feedback,,html-keyboard-response,305,388177,0.0-1.0-440.0-0.0,0,0,83590,,,,,,62.0,,,,,,,,,,,,,,,131.0,1.0,,,,,,,,,
306,,iti,,html-keyboard-response,306,389680,0.0-1.0-441.0,0,0,83590,,,,,,,,,,,,,,,,,,,,,132.5,1.5,,,,,,,,,
307,,rl_choice,,html-keyboard-response,307,389928,0.0-1.0-443.0,0,0,83590,,246.0,,,68.0,63.0,63.0,2.0,hard,3000.0,3000.0,0.0,40.0,60.0,60.0,80.0,A,B,/static/Simple_RL/Stimuli/Fractals_stims/A.jpg,/static/Simple_RL/Stimuli/Fractals_stims/B.jpg,132.746,0.246,0.0,1.0,40.0,60.0,60.0,80.0,A,B,
308,,rl_choice_confirmation,,html-keyboard-response,308,391186,0.0-1.0-444.0-0.0,0,0,83590,,,,,,63.0,,,,,,,,,,,,,,,134.0,1.254,,,,,,,,,
309,,isi,,html-keyboard-response,309,394188,0.0-1.0-446.0,0,0,83590,,,,,,,,,,,,,,,,,,,,,137.0,3.0,,,,,,,,,
310,,feedback,,html-keyboard-response,310,395193,0.0-1.0-447.0-0.0,0,0,83590,,,,,,63.0,,,,,,,,,,,,,,,138.0,1.0,,,,,,,,,
311,,iti,,html-keyboard-response,311,398198,0.0-1.0-448.0,0,0,83590,,,,,,,,,,,,,,,,,,,,,141.0,3.0,,,,,,,,,
312,,rl_choice,,html-keyboard-response,312,398343,0.0-1.0-450.0,0,0,83590,,142.0,,,68.0,64.0,64.0,2.0,easy,2000.0,3500.0,1.0,80.0,20.0,60.0,0.0,D,C,/static/Simple_RL/Stimuli/Fractals_stims/D.jpg,/static/Simple_RL/Stimuli/Fractals_stims/C.jpg,141.142,0.142,0.0,1.0,80.0,20.0,60.0,0.0,D,C,
313,,rl_choice_confirmation,,html-keyboard-response,313,399706,0.0-1.0-451.0-0.0,0,0,83590,,,,,,64.0,,,,,,,,,,,,,,,142.5,1.358,,,,,,,,,
314,,isi,,html-keyboard-response,314,403211,0.0-1.0-453.0,0,0,83590,,,,,,,,,,,,,,,,,,,,,146.0,3.5,,,,,,,,,
315,,feedback,,html-keyboard-response,315,404217,0.0-1.0-454.0-0.0,0,0,83590,,,,,,64.0,,,,,,,,,,,,,,,147.0,1.0,,,,,,,,,
316,,iti,,html-keyboard-response,316,406219,0.0-1.0-455.0,0,0,83590,,,,,,,,,,,,,,,,,,,,,149.0,2.0,,,,,,,,,
317,,rl_choice,,html-keyboard-response,317,406593,0.0-1.0-457.0,0,0,83590,,372.0,,,68.0,65.0,65.0,2.0,hard,1000.0,3000.0,0.0,40.0,60.0,40.0,40.0,A,B,/static/Simple_RL/Stimuli/Fractals_stims/A.jpg,/static/Simple_RL/Stimuli/Fractals_stims/B.jpg,149.372,0.372,0.0,1.0,40.0,60.0,40.0,40.0,A,B,
318,,rl_choice_confirmation,,html-keyboard-response,318,407726,0.0-1.0-458.0-0.0,0,0,83590,,,,,,65.0,,,,,,,,,,,,,,,150.5,1.128,,,,,,,,,
319,,isi,,html-keyboard-response,319,410732,0.0-1.0-460.0,0,0,83590,,,,,,,,,,,,,,,,,,,,,153.5,3.0,,,,,,,,,
320,,feedback,,html-keyboard-response,320,411739,0.0-1.0-461.0-0.0,0,0,83590,,,,,,65.0,,,,,,,,,,,,,,,154.5,1.0,,,,,,,,,
321,,iti,,html-keyboard-response,321,412743,0.0-1.0-462.0,0,0,83590,,,,,,,,,,,,,,,,,,,,,155.5,1.0,,,,,,,,,
322,,rl_choice,,html-keyboard-response,322,413035,0.0-1.0-464.0,0,0,83590,,291.0,,,68.0,66.0,66.0,2.0,hard,1000.0,1000.0,1.0,60.0,40.0,80.0,60.0,B,A,/static/Simple_RL/Stimuli/Fractals_stims/B.jpg,/static/Simple_RL/Stimuli/Fractals_stims/A.jpg,155.791,0.291,0.0,1.0,60.0,40.0,80.0,60.0,B,A,
323,,rl_choice_confirmation,,html-keyboard-response,323,414247,0.0-1.0-465.0-0.0,0,0,83590,,,,,,66.0,,,,,,,,,,,,,,,157.0,1.209,,,,,,,,,
324,,isi,,html-keyboard-response,324,415253,0.0-1.0-467.0,0,0,83590,,,,,,,,,,,,,,,,,,,,,158.0,1.0,,,,,,,,,
325,,feedback,,html-keyboard-response,325,416258,0.0-1.0-468.0-0.0,0,0,83590,,,,,,66.0,,,,,,,,,,,,,,,159.0,1.0,,,,,,,,,
326,,iti,,html-keyboard-response,326,417261,0.0-1.0-469.0,0,0,83590,,,,,,,,,,,,,,,,,,,,,160.0,1.0,,,,,,,,,
327,,rl_choice,,html-keyboard-response,327,417704,0.0-1.0-471.0,0,0,83590,,440.0,,,68.0,67.0,67.0,2.0,hard,1000.0,1000.0,0.0,40.0,60.0,40.0,80.0,A,B,/static/Simple_RL/Stimuli/Fractals_stims/A.jpg,/static/Simple_RL/Stimuli/Fractals_stims/B.jpg,160.44,0.44,0.0,1.0,40.0,60.0,40.0,80.0,A,B,
328,,rl_choice_confirmation,,html-keyboard-response,328,418766,0.0-1.0-472.0-0.0,0,0,83590,,,,,,67.0,,,,,,,,,,,,,,,161.5,1.06,,,,,,,,,
329,,isi,,html-keyboard-response,329,419772,0.0-1.0-474.0,0,0,83590,,,,,,,,,,,,,,,,,,,,,162.5,1.0,,,,,,,,,
330,,feedback,,html-keyboard-response,330,420775,0.0-1.0-475.0-0.0,0,0,83590,,,,,,67.0,,,,,,,,,,,,,,,163.5,1.0,,,,,,,,,
331,,iti,,html-keyboard-response,331,421779,0.0-1.0-476.0,0,0,83590,,,,,,,,,,,,,,,,,,,,,164.5,1.0,,,,,,,,,
332,,rl_choice,,html-keyboard-response,332,422039,0.0-1.0-478.0,0,0,83590,,258.0,,,68.0,68.0,68.0,2.0,easy,1500.0,1500.0,1.0,80.0,20.0,100.0,40.0,D,C,/static/Simple_RL/Stimuli/Fractals_stims/D.jpg,/static/Simple_RL/Stimuli/Fractals_stims/C.jpg,164.758,0.258,0.0,1.0,80.0,20.0,100.0,40.0,D,C,
333,,rl_choice_confirmation,,html-keyboard-response,333,423284,0.0-1.0-479.0-0.0,0,0,83590,,,,,,68.0,,,,,,,,,,,,,,,166.0,1.242,,,,,,,,,
334,,isi,,html-keyboard-response,334,424789,0.0-1.0-481.0,0,0,83590,,,,,,,,,,,,,,,,,,,,,167.5,1.5,,,,,,,,,
335,,feedback,,html-keyboard-response,335,425793,0.0-1.0-482.0-0.0,0,0,83590,,,,,,68.0,,,,,,,,,,,,,,,168.5,1.0,,,,,,,,,
336,,iti,,html-keyboard-response,336,427298,0.0-1.0-483.0,0,0,83590,,,,,,,,,,,,,,,,,,,,,170.0,1.5,,,,,,,,,
337,,rl_choice,,html-keyboard-response,337,428800,0.0-1.0-485.0,0,0,83590,,,,,,69.0,69.0,2.0,hard,2000.0,1000.0,0.0,40.0,60.0,60.0,60.0,A,B,/static/Simple_RL/Stimuli/Fractals_stims/A.jpg,/static/Simple_RL/Stimuli/Fractals_stims/B.jpg,171.5,1.5,1.0,,,,,,,,
338,,rl_choice_warning,,html-keyboard-response,338,429802,0.0-1.0-487.0-0.0,1,0,83590,,,,,,,,,,,,,,,,,,,,,172.5,1.0,,,,,,,,,
339,,isi,,html-keyboard-response,339,430807,0.0-1.0-488.0,0,0,83590,,,,,,,,,,,,,,,,,,,,,173.5,1.0,,,,,,,,,
340,,iti,,html-keyboard-response,340,432813,0.0-1.0-490.0,0,0,83590,,,,,,,,,,,,,,,,,,,,,175.5,2.0,,,,,,,,,
341,,rl_choice,,html-keyboard-response,341,432904,0.0-1.0-492.0,0,0,83590,,88.0,,,68.0,70.0,70.0,2.0,hard,1000.0,3500.0,1.0,60.0,40.0,80.0,20.0,B,A,/static/Simple_RL/Stimuli/Fractals_stims/B.jpg,/static/Simple_RL/Stimuli/Fractals_stims/A.jpg,175.588,0.088,0.0,1.0,60.0,40.0,80.0,20.0,B,A,
342,,rl_choice_confirmation,,html-keyboard-response,342,434318,0.0-1.0-493.0-0.0,0,0,83590,,,,,,70.0,,,,,,,,,,,,,,,177.0,1.412,,,,,,,,,
343,,isi,,html-keyboard-response,343,437825,0.0-1.0-495.0,0,0,83590,,,,,,,,,,,,,,,,,,,,,180.5,3.5,,,,,,,,,
344,,feedback,,html-keyboard-response,344,438830,0.0-1.0-496.0-0.0,0,0,83590,,,,,,70.0,,,,,,,,,,,,,,,181.5,1.0,,,,,,,,,
345,,iti,,html-keyboard-response,345,439831,0.0-1.0-497.0,0,0,83590,,,,,,,,,,,,,,,,,,,,,182.5,1.0,,,,,,,,,
346,,rl_choice,,html-keyboard-response,346,439914,0.0-1.0-499.0,0,0,83590,,81.0,,,68.0,71.0,71.0,2.0,easy,2000.0,1000.0,1.0,80.0,20.0,100.0,20.0,D,C,/static/Simple_RL/Stimuli/Fractals_stims/D.jpg,/static/Simple_RL/Stimuli/Fractals_stims/C.jpg,182.581,0.081,0.0,1.0,80.0,20.0,100.0,20.0,D,C,
347,,rl_choice_confirmation,,html-keyboard-response,347,441335,0.0-1.0-500.0-0.0,0,0,83590,,,,,,71.0,,,,,,,,,,,,,,,184.0,1.419,,,,,,,,,
348,,isi,,html-keyboard-response,348,442341,0.0-1.0-502.0,0,0,83590,,,,,,,,,,,,,,,,,,,,,185.0,1.0,,,,,,,,,
349,,feedback,,html-keyboard-response,349,443344,0.0-1.0-503.0-0.0,0,0,83590,,,,,,71.0,,,,,,,,,,,,,,,186.0,1.0,,,,,,,,,
350,,iti,,html-keyboard-response,350,445350,0.0-1.0-504.0,0,0,83590,,,,,,,,,,,,,,,,,,,,,188.0,2.0,,,,,,,,,
351,,rl_choice,,html-keyboard-response,351,445495,0.0-1.0-506.0,0,0,83590,,144.0,,,75.0,72.0,72.0,2.0,easy,1500.0,1000.0,0.0,20.0,80.0,20.0,80.0,C,D,/static/Simple_RL/Stimuli/Fractals_stims/C.jpg,/static/Simple_RL/Stimuli/Fractals_stims/D.jpg,188.144,0.144,0.0,0.0,80.0,20.0,80.0,20.0,D,C,
352,,rl_choice_confirmation,,html-keyboard-response,352,446857,0.0-1.0-507.0-0.0,0,0,83590,,,,,,72.0,,,,,,,,,,,,,,,189.5,1.356,,,,,,,,,
353,,isi,,html-keyboard-response,353,447862,0.0-1.0-509.0,0,0,83590,,,,,,,,,,,,,,,,,,,,,190.5,1.0,,,,,,,,,
354,,feedback,,html-keyboard-response,354,448867,0.0-1.0-510.0-0.0,0,0,83590,,,,,,72.0,,,,,,,,,,,,,,,191.5,1.0,,,,,,,,,
355,,iti,,html-keyboard-response,355,450369,0.0-1.0-511.0,0,0,83590,,,,,,,,,,,,,,,,,,,,,193.0,1.5,,,,,,,,,
356,,rl_choice,,html-keyboard-response,356,451874,0.0-1.0-513.0,0,0,83590,,,,,,73.0,73.0,2.0,hard,1500.0,1500.0,0.0,40.0,60.0,40.0,80.0,A,B,/static/Simple_RL/Stimuli/Fractals_stims/A.jpg,/static/Simple_RL/Stimuli/Fractals_stims/B.jpg,194.5,1.5,1.0,,,,,,,,
357,,rl_choice_warning,,html-keyboard-response,357,452878,0.0-1.0-515.0-0.0,1,0,83590,,,,,,,,,,,,,,,,,,,,,195.5,1.0,,,,,,,,,
358,,isi,,html-keyboard-response,358,454383,0.0-1.0-516.0,0,0,83590,,,,,,,,,,,,,,,,,,,,,197.0,1.5,,,,,,,,,
359,,iti,,html-keyboard-response,359,455887,0.0-1.0-518.0,0,0,83590,,,,,,,,,,,,,,,,,,,,,198.5,1.5,,,,,,,,,
360,,rl_choice,,html-keyboard-response,360,457480,0.0-1.0-520.0,0,0,83590,,,,,,74.0,74.0,2.0,hard,2000.0,1000.0,1.0,60.0,40.0,80.0,40.0,B,A,/static/Simple_RL/Stimuli/Fractals_stims/B.jpg,/static/Simple_RL/Stimuli/Fractals_stims/A.jpg,200.0,1.5,1.0,,,,,,,,
361,,rl_choice_warning,,html-keyboard-response,361,459464,0.0-1.0-522.0-0.0,1,0,83590,,,,,,,,,,,,,,,,,,,,,201.0,1.0,,,,,,,,,
362,,isi,,html-keyboard-response,362,461468,0.0-1.0-523.0,0,0,83590,,,,,,,,,,,,,,,,,,,,,202.0,1.0,,,,,,,,,
363,,iti,,html-keyboard-response,363,464464,0.0-1.0-525.0,0,0,83590,,,,,,,,,,,,,,,,,,,,,204.0,2.0,,,,,,,,,
364,,rl_choice,,html-keyboard-response,364,466465,0.0-1.0-527.0,0,0,83590,,,,,,75.0,75.0,2.0,hard,1000.0,1500.0,1.0,60.0,40.0,80.0,40.0,B,A,/static/Simple_RL/Stimuli/Fractals_stims/B.jpg,/static/Simple_RL/Stimuli/Fractals_stims/A.jpg,205.5,1.5,1.0,,,,,,,,
365,,rl_choice_warning,,html-keyboard-response,365,468464,0.0-1.0-529.0-0.0,1,0,83590,,,,,,,,,,,,,,,,,,,,,206.5,1.0,,,,,,,,,
366,,isi,,html-keyboard-response,366,470465,0.0-1.0-530.0,0,0,83590,,,,,,,,,,,,,,,,,,,,,208.0,1.5,,,,,,,,,
367,,iti,,html-keyboard-response,367,472465,0.0-1.0-532.0,0,0,83590,,,,,,,,,,,,,,,,,,,,,209.0,1.0,,,,,,,,,
368,,rl_choice,,html-keyboard-response,368,473971,0.0-1.0-534.0,0,0,83590,,,,,,76.0,76.0,2.0,hard,3500.0,1000.0,0.0,40.0,60.0,40.0,60.0,A,B,/static/Simple_RL/Stimuli/Fractals_stims/A.jpg,/static/Simple_RL/Stimuli/Fractals_stims/B.jpg,210.5,1.5,1.0,,,,,,,,
369,,rl_choice_warning,,html-keyboard-response,369,474974,0.0-1.0-536.0-0.0,1,0,83590,,,,,,,,,,,,,,,,,,,,,211.5,1.0,,,,,,,,,
370,,isi,,html-keyboard-response,370,475978,0.0-1.0-537.0,0,0,83590,,,,,,,,,,,,,,,,,,,,,212.5,1.0,,,,,,,,,
371,,iti,,html-keyboard-response,371,479482,0.0-1.0-539.0,0,0,83590,,,,,,,,,,,,,,,,,,,,,216.0,3.5,,,,,,,,,
372,,rl_choice,,html-keyboard-response,372,480084,0.0-1.0-541.0,0,0,83590,,601.0,,,68.0,77.0,77.0,2.0,easy,1000.0,1000.0,1.0,80.0,20.0,60.0,0.0,D,C,/static/Simple_RL/Stimuli/Fractals_stims/D.jpg,/static/Simple_RL/Stimuli/Fractals_stims/C.jpg,216.601,0.601,0.0,1.0,80.0,20.0,60.0,0.0,D,C,
373,,rl_choice_confirmation,,html-keyboard-response,373,480989,0.0-1.0-542.0-0.0,0,0,83590,,,,,,77.0,,,,,,,,,,,,,,,217.5,0.899,,,,,,,,,
374,,isi,,html-keyboard-response,374,481992,0.0-1.0-544.0,0,0,83590,,,,,,,,,,,,,,,,,,,,,218.5,1.0,,,,,,,,,
375,,feedback,,html-keyboard-response,375,482995,0.0-1.0-545.0-0.0,0,0,83590,,,,,,77.0,,,,,,,,,,,,,,,219.5,1.0,,,,,,,,,
376,,iti,,html-keyboard-response,376,484001,0.0-1.0-546.0,0,0,83590,,,,,,,,,,,,,,,,,,,,,220.5,1.0,,,,,,,,,
377,,rl_choice,,html-keyboard-response,377,484182,0.0-1.0-548.0,0,0,83590,,180.0,,,68.0,78.0,78.0,2.0,hard,1500.0,2000.0,1.0,60.0,40.0,60.0,20.0,B,A,/static/Simple_RL/Stimuli/Fractals_stims/B.jpg,/static/Simple_RL/Stimuli/Fractals_stims/A.jpg,220.68,0.18,0.0,1.0,60.0,40.0,60.0,20.0,B,A,
378,,rl_choice_confirmation,,html-keyboard-response,378,485503,0.0-1.0-549.0-0.0,0,0,83590,,,,,,78.0,,,,,,,,,,,,,,,222.0,1.32,,,,,,,,,
379,,isi,,html-keyboard-response,379,487507,0.0-1.0-551.0,0,0,83590,,,,,,,,,,,,,,,,,,,,,224.0,2.0,,,,,,,,,
380,,feedback,,html-keyboard-response,380,488509,0.0-1.0-552.0-0.0,0,0,83590,,,,,,78.0,,,,,,,,,,,,,,,225.0,1.0,,,,,,,,,
381,,iti,,html-keyboard-response,381,490013,0.0-1.0-553.0,0,0,83590,,,,,,,,,,,,,,,,,,,,,226.5,1.5,,,,,,,,,
382,,rl_choice,,html-keyboard-response,382,490670,0.0-1.0-555.0,0,0,83590,,655.0,,,68.0,79.0,79.0,2.0,hard,1000.0,2000.0,1.0,60.0,40.0,40.0,60.0,B,A,/static/Simple_RL/Stimuli/Fractals_stims/B.jpg,/static/Simple_RL/Stimuli/Fractals_stims/A.jpg,227.155,0.655,0.0,1.0,60.0,40.0,40.0,60.0,B,A,
383,,rl_choice_confirmation,,html-keyboard-response,383,491521,0.0-1.0-556.0-0.0,0,0,83590,,,,,,79.0,,,,,,,,,,,,,,,228.0,0.845,,,,,,,,,
384,,isi,,html-keyboard-response,384,493523,0.0-1.0-558.0,0,0,83590,,,,,,,,,,,,,,,,,,,,,230.0,2.0,,,,,,,,,
385,,feedback,,html-keyboard-response,385,494525,0.0-1.0-559.0-0.0,0,0,83590,,,,,,79.0,,,,,,,,,,,,,,,231.0,1.0,,,,,,,,,
386,,iti,,html-keyboard-response,386,495528,0.0-1.0-560.0,0,0,83590,,,,,,,,,,,,,,,,,,,,,232.0,1.0,,,,,,,,,0.63
387,,final_tally,,html-keyboard-response,387,495893,0.0-2.0,0,0,83590,,364.0,,,68.0,,,,,,,,,,,,,,,,,,,,,,,,,,
388,,debreif_intro,,html-keyboard-response,388,498006,0.0-3.0,0,0,83590,,2089.0,,,68.0,,,,,,,,,,,,,,,,,,,,,,,,,,
389,,debreif_age,,survey-text,389,501044,0.0-4.0,0,0,83590,,3038.0,"{""Q0"":""23""}",,,,,,,,,,,,,,,,,,,,,,,,,,,,
390,,debreif_gender,,survey-multi-choice,390,502544,0.0-5.0,0,0,83590,,1497.0,"{""Q0"":""Female""}",,,,,,,,,,,,,,,,,,,,,,,,,,,,
391,,debreif_dominant_hand,,survey-multi-choice,391,503846,0.0-6.0,0,0,83590,,1300.0,"{""Q0"":""Left""}",,,,,,,,,,,,,,,,,,,,,,,,,,,,
392,,debreif_native_language,,survey-multi-choice,392,505085,0.0-7.0,0,0,83590,,1237.0,"{""Q0"":""Yes""}",,,,,,,,,,,,,,,,,,,,,,,,,,,,
393,,debreif_fluency,,survey-likert,393,506492,0.0-8.0,0,0,83590,,1405.0,"{""Q0"":1}",,,,,,,,,,,,,,,,,,,,,,,,,,,,
394,,debreif_strategy_category_learning,,survey-text,394,508595,0.0-9.0,0,0,83590,,2101.0,"{""Q0"":""ss""}",,,,,,,,,,,,,,,,,,,,,,,,,,,,
395,,debreif_strategy_old_trials,,survey-text,395,513362,0.0-10.0,0,0,83590,,4766.0,"{""Q0"":""ss""}",,,,,,,,,,,,,,,,,,,,,,,,,,,,
396,,debreif_strategy_category_memory,,survey-text,396,516390,0.0-11.0,0,0,83590,,3027.0,"{""Q0"":""saq""}",,,,,,,,,,,,,,,,,,,,,,,,,,,,
397,,debreif_strategy_size,,survey-text,397,518734,0.0-12.0,0,0,83590,,2344.0,"{""Q0"":""ss""}",,,,,,,,,,,,,,,,,,,,,,,,,,,,
398,,debreif_strategy_rl,,survey-text,398,520482,0.0-13.0,0,0,83590,,1747.0,"{""Q0"":""sasq""}",,,,,,,,,,,,,,,,,,,,,,,,,,,,
399,,debreif_clear_instructions,,survey-text,399,523623,0.0-14.0,0,0,83590,,3140.0,"{""Q0"":""sqq""}",,,,,,,,,,,,,,,,,,,,,,,,,,,,
400,,debreif_end,,html-keyboard-response,400,526730,0.0-15.0,0,0,83590,,3105.0,,,32.0,,,,,,,,,,,,,,,,,,,,,,,,,,
