,success,ttype,start_time,trial_type,trial_index,time_elapsed,internal_node_id,warning,missed_checkup,PID,view_history,rt,responses,repeat_instructions,key_press,index,trial_num,block,condition,iti,isi,high_group_on_left,left_group_value,right_group_value,left_item_value,right_item_value,left_img,right_img,left_img_path,right_img_path,left_chosen,chosen_group_value,unchosen_group_value,chosen_item_value,unchosen_item_value,chosen_img,unchosen_img,onset,duration,no_response,total_bonus_tally
0,True,full_screen,d06012022hr1944,fullscreen,0,2509,0.0-0.0,0,0,85937,,,,,,,,,,,,,,,,,,,,,,,,,,,,,,,
1,,size_instructions,,instructions,1,4213,0.0-1.0-0.0-0.0,0,0,85937,"[{""page_index"":0,""viewing_time"":883},{""page_index"":1,""viewing_time"":166},{""page_index"":2,""viewing_time"":143},{""page_index"":3,""viewing_time"":165},{""page_index"":4,""viewing_time"":164},{""page_index"":5,""viewing_time"":182}]",1703.0,,,,,,,,,,,,,,,,,,,,,,,,,,,,,
2,,rl_comprehension_check,,survey-multi-choice,2,8623,0.0-1.0-0.0-1.0,0,0,85937,,4409.0,"{""Q0"":""True"",""Q1"":""True"",""Q2"":""D for left and K for right""}",0.0,,,,,,,,,,,,,,,,,,,,,,,,,,,
3,,,,html-keyboard-response,3,9524,0.0-1.0-1.0,0,0,85937,,899.0,,,68.0,,,,,,,,,,,,,,,,,,,,,,,,,,
4,,rl_choice,,html-keyboard-response,4,9968,0.0-1.0-2.0,0,0,85937,,443.0,,,68.0,0.0,0.0,1.0,hard,3500.0,2000.0,1.0,60.0,40.0,80.0,40.0,A,B,/static/Simple_RL/Stimuli/Fractals_stims/A.jpg,/static/Simple_RL/Stimuli/Fractals_stims/B.jpg,1.0,60.0,40.0,80.0,40.0,A,B,0.443,0.443,0.0,
5,,rl_choice_confirmation,,html-keyboard-response,5,11027,0.0-1.0-3.0-0.0,0,0,85937,,,,,,0.0,,,,,,,,,,,,,,,,,,,,,,1.5,1.057,,
6,,isi,,html-keyboard-response,6,11127,0.0-1.0-5.0,0,0,85937,,,,,,,,,,,,,,,,,,,,,,,,,,,,3.5,2.0,,
7,,feedback,,html-keyboard-response,7,12133,0.0-1.0-6.0-0.0,0,0,85937,,,,,,0.0,,,,,,,,,,,,,,,,,,,,,,4.5,1.0,,
8,,iti,,html-keyboard-response,8,12236,0.0-1.0-7.0,0,0,85937,,,,,,,,,,,,,,,,,,,,,,,,,,,,8.0,3.5,,
9,,rl_choice,,html-keyboard-response,9,12445,0.0-1.0-9.0,0,0,85937,,207.0,,,75.0,1.0,1.0,1.0,hard,1000.0,2000.0,1.0,60.0,40.0,80.0,20.0,A,B,/static/Simple_RL/Stimuli/Fractals_stims/A.jpg,/static/Simple_RL/Stimuli/Fractals_stims/B.jpg,0.0,40.0,60.0,20.0,80.0,B,A,8.207,0.207,0.0,
10,,rl_choice_confirmation,,html-keyboard-response,10,13742,0.0-1.0-10.0-0.0,0,0,85937,,,,,,1.0,,,,,,,,,,,,,,,,,,,,,,9.5,1.293,,
11,,isi,,html-keyboard-response,11,13847,0.0-1.0-12.0,0,0,85937,,,,,,,,,,,,,,,,,,,,,,,,,,,,11.5,2.0,,
12,,feedback,,html-keyboard-response,12,14850,0.0-1.0-13.0-0.0,0,0,85937,,,,,,1.0,,,,,,,,,,,,,,,,,,,,,,12.5,1.0,,
13,,iti,,html-keyboard-response,13,14952,0.0-1.0-14.0,0,0,85937,,,,,,,,,,,,,,,,,,,,,,,,,,,,13.5,1.0,,
14,,rl_choice,,html-keyboard-response,14,15156,0.0-1.0-16.0,0,0,85937,,204.0,,,75.0,2.0,2.0,1.0,easy,2000.0,2000.0,0.0,20.0,80.0,40.0,100.0,D,C,/static/Simple_RL/Stimuli/Fractals_stims/D.jpg,/static/Simple_RL/Stimuli/Fractals_stims/C.jpg,0.0,80.0,20.0,100.0,40.0,C,D,13.704,0.204,0.0,
15,,rl_choice_confirmation,,html-keyboard-response,15,16453,0.0-1.0-17.0-0.0,0,0,85937,,,,,,2.0,,,,,,,,,,,,,,,,,,,,,,15.0,1.296,,
16,,isi,,html-keyboard-response,16,16559,0.0-1.0-19.0,0,0,85937,,,,,,,,,,,,,,,,,,,,,,,,,,,,17.0,2.0,,
17,,feedback,,html-keyboard-response,17,17563,0.0-1.0-20.0-0.0,0,0,85937,,,,,,2.0,,,,,,,,,,,,,,,,,,,,,,18.0,1.0,,
18,,iti,,html-keyboard-response,18,17666,0.0-1.0-21.0,0,0,85937,,,,,,,,,,,,,,,,,,,,,,,,,,,,20.0,2.0,,
19,,rl_choice,,html-keyboard-response,19,17962,0.0-1.0-23.0,0,0,85937,,295.0,,,75.0,3.0,3.0,1.0,hard,1500.0,1000.0,0.0,40.0,60.0,20.0,60.0,B,A,/static/Simple_RL/Stimuli/Fractals_stims/B.jpg,/static/Simple_RL/Stimuli/Fractals_stims/A.jpg,0.0,60.0,40.0,60.0,20.0,A,B,20.295,0.295,0.0,
20,,rl_choice_confirmation,,html-keyboard-response,20,19171,0.0-1.0-24.0-0.0,0,0,85937,,,,,,3.0,,,,,,,,,,,,,,,,,,,,,,21.5,1.205,,
21,,isi,,html-keyboard-response,21,19275,0.0-1.0-26.0,0,0,85937,,,,,,,,,,,,,,,,,,,,,,,,,,,,22.5,1.0,,
22,,feedback,,html-keyboard-response,22,20280,0.0-1.0-27.0-0.0,0,0,85937,,,,,,3.0,,,,,,,,,,,,,,,,,,,,,,23.5,1.0,,
23,,iti,,html-keyboard-response,23,20383,0.0-1.0-28.0,0,0,85937,,,,,,,,,,,,,,,,,,,,,,,,,,,,25.0,1.5,,
24,,rl_choice,,html-keyboard-response,24,20609,0.0-1.0-30.0,0,0,85937,,226.0,,,75.0,4.0,4.0,1.0,hard,1500.0,3000.0,0.0,40.0,60.0,40.0,60.0,B,A,/static/Simple_RL/Stimuli/Fractals_stims/B.jpg,/static/Simple_RL/Stimuli/Fractals_stims/A.jpg,0.0,60.0,40.0,60.0,40.0,A,B,25.226,0.226,0.0,
25,,rl_choice_confirmation,,html-keyboard-response,25,21885,0.0-1.0-31.0-0.0,0,0,85937,,,,,,4.0,,,,,,,,,,,,,,,,,,,,,,26.5,1.274,,
26,,isi,,html-keyboard-response,26,21985,0.0-1.0-33.0,0,0,85937,,,,,,,,,,,,,,,,,,,,,,,,,,,,29.5,3.0,,
27,,feedback,,html-keyboard-response,27,22991,0.0-1.0-34.0-0.0,0,0,85937,,,,,,4.0,,,,,,,,,,,,,,,,,,,,,,30.5,1.0,,
28,,iti,,html-keyboard-response,28,23092,0.0-1.0-35.0,0,0,85937,,,,,,,,,,,,,,,,,,,,,,,,,,,,32.0,1.5,,
29,,rl_choice,,html-keyboard-response,29,23291,0.0-1.0-37.0,0,0,85937,,197.0,,,75.0,5.0,5.0,1.0,easy,1500.0,1500.0,1.0,80.0,20.0,80.0,0.0,C,D,/static/Simple_RL/Stimuli/Fractals_stims/C.jpg,/static/Simple_RL/Stimuli/Fractals_stims/D.jpg,0.0,20.0,80.0,0.0,80.0,D,C,32.197,0.197,0.0,
30,,rl_choice_confirmation,,html-keyboard-response,30,24596,0.0-1.0-38.0-0.0,0,0,85937,,,,,,5.0,,,,,,,,,,,,,,,,,,,,,,33.5,1.303,,
31,,isi,,html-keyboard-response,31,24699,0.0-1.0-40.0,0,0,85937,,,,,,,,,,,,,,,,,,,,,,,,,,,,35.0,1.5,,
32,,feedback,,html-keyboard-response,32,25700,0.0-1.0-41.0-0.0,0,0,85937,,,,,,5.0,,,,,,,,,,,,,,,,,,,,,,36.0,1.0,,
33,,iti,,html-keyboard-response,33,25803,0.0-1.0-42.0,0,0,85937,,,,,,,,,,,,,,,,,,,,,,,,,,,,37.5,1.5,,
34,,rl_choice,,html-keyboard-response,34,25935,0.0-1.0-44.0,0,0,85937,,132.0,,,75.0,6.0,6.0,1.0,easy,1000.0,1000.0,1.0,80.0,20.0,60.0,40.0,C,D,/static/Simple_RL/Stimuli/Fractals_stims/C.jpg,/static/Simple_RL/Stimuli/Fractals_stims/D.jpg,0.0,20.0,80.0,40.0,60.0,D,C,37.632,0.132,0.0,
35,,rl_choice_confirmation,,html-keyboard-response,35,27309,0.0-1.0-45.0-0.0,0,0,85937,,,,,,6.0,,,,,,,,,,,,,,,,,,,,,,39.0,1.368,,
36,,isi,,html-keyboard-response,36,27410,0.0-1.0-47.0,0,0,85937,,,,,,,,,,,,,,,,,,,,,,,,,,,,40.0,1.0,,
37,,feedback,,html-keyboard-response,37,28414,0.0-1.0-48.0-0.0,0,0,85937,,,,,,6.0,,,,,,,,,,,,,,,,,,,,,,41.0,1.0,,
38,,iti,,html-keyboard-response,38,28518,0.0-1.0-49.0,0,0,85937,,,,,,,,,,,,,,,,,,,,,,,,,,,,42.0,1.0,,
39,,rl_choice,,html-keyboard-response,39,28602,0.0-1.0-51.0,0,0,85937,,82.0,,,75.0,7.0,7.0,1.0,easy,3000.0,2000.0,0.0,20.0,80.0,0.0,80.0,D,C,/static/Simple_RL/Stimuli/Fractals_stims/D.jpg,/static/Simple_RL/Stimuli/Fractals_stims/C.jpg,0.0,80.0,20.0,80.0,0.0,C,D,42.082,0.082,0.0,
40,,rl_choice_confirmation,,html-keyboard-response,40,30026,0.0-1.0-52.0-0.0,0,0,85937,,,,,,7.0,,,,,,,,,,,,,,,,,,,,,,43.5,1.418,,
41,,isi,,html-keyboard-response,41,30129,0.0-1.0-54.0,0,0,85937,,,,,,,,,,,,,,,,,,,,,,,,,,,,45.5,2.0,,
42,,feedback,,html-keyboard-response,42,31135,0.0-1.0-55.0-0.0,0,0,85937,,,,,,7.0,,,,,,,,,,,,,,,,,,,,,,46.5,1.0,,
43,,iti,,html-keyboard-response,43,31239,0.0-1.0-56.0,0,0,85937,,,,,,,,,,,,,,,,,,,,,,,,,,,,49.5,3.0,,
44,,rl_choice,,html-keyboard-response,44,31793,0.0-1.0-58.0,0,0,85937,,553.0,,,75.0,8.0,8.0,1.0,hard,2000.0,3500.0,0.0,40.0,60.0,40.0,60.0,B,A,/static/Simple_RL/Stimuli/Fractals_stims/B.jpg,/static/Simple_RL/Stimuli/Fractals_stims/A.jpg,0.0,60.0,40.0,60.0,40.0,A,B,50.053,0.553,0.0,
45,,rl_choice_confirmation,,html-keyboard-response,45,32742,0.0-1.0-59.0-0.0,0,0,85937,,,,,,8.0,,,,,,,,,,,,,,,,,,,,,,51.0,0.947,,
46,,isi,,html-keyboard-response,46,32848,0.0-1.0-61.0,0,0,85937,,,,,,,,,,,,,,,,,,,,,,,,,,,,54.5,3.5,,
47,,feedback,,html-keyboard-response,47,33851,0.0-1.0-62.0-0.0,0,0,85937,,,,,,8.0,,,,,,,,,,,,,,,,,,,,,,55.5,1.0,,
48,,iti,,html-keyboard-response,48,33956,0.0-1.0-63.0,0,0,85937,,,,,,,,,,,,,,,,,,,,,,,,,,,,57.5,2.0,,
49,,rl_choice,,html-keyboard-response,49,34223,0.0-1.0-65.0,0,0,85937,,266.0,,,75.0,9.0,9.0,1.0,hard,2000.0,1000.0,1.0,60.0,40.0,60.0,20.0,A,B,/static/Simple_RL/Stimuli/Fractals_stims/A.jpg,/static/Simple_RL/Stimuli/Fractals_stims/B.jpg,0.0,40.0,60.0,20.0,60.0,B,A,57.766,0.266,0.0,
50,,rl_choice_confirmation,,html-keyboard-response,50,35462,0.0-1.0-66.0-0.0,0,0,85937,,,,,,9.0,,,,,,,,,,,,,,,,,,,,,,59.0,1.234,,
51,,isi,,html-keyboard-response,51,35565,0.0-1.0-68.0,0,0,85937,,,,,,,,,,,,,,,,,,,,,,,,,,,,60.0,1.0,,
52,,feedback,,html-keyboard-response,52,36571,0.0-1.0-69.0-0.0,0,0,85937,,,,,,9.0,,,,,,,,,,,,,,,,,,,,,,61.0,1.0,,
53,,iti,,html-keyboard-response,53,36676,0.0-1.0-70.0,0,0,85937,,,,,,,,,,,,,,,,,,,,,,,,,,,,63.0,2.0,,
54,,rl_choice,,html-keyboard-response,54,36855,0.0-1.0-72.0,0,0,85937,,179.0,,,75.0,10.0,10.0,1.0,easy,1000.0,1000.0,0.0,20.0,80.0,0.0,80.0,D,C,/static/Simple_RL/Stimuli/Fractals_stims/D.jpg,/static/Simple_RL/Stimuli/Fractals_stims/C.jpg,0.0,80.0,20.0,80.0,0.0,C,D,63.179,0.179,0.0,
55,,rl_choice_confirmation,,html-keyboard-response,55,38178,0.0-1.0-73.0-0.0,0,0,85937,,,,,,10.0,,,,,,,,,,,,,,,,,,,,,,64.5,1.321,,
56,,isi,,html-keyboard-response,56,38279,0.0-1.0-75.0,0,0,85937,,,,,,,,,,,,,,,,,,,,,,,,,,,,65.5,1.0,,
57,,feedback,,html-keyboard-response,57,39285,0.0-1.0-76.0-0.0,0,0,85937,,,,,,10.0,,,,,,,,,,,,,,,,,,,,,,66.5,1.0,,
58,,iti,,html-keyboard-response,58,39387,0.0-1.0-77.0,0,0,85937,,,,,,,,,,,,,,,,,,,,,,,,,,,,67.5,1.0,,
59,,rl_choice,,html-keyboard-response,59,39528,0.0-1.0-79.0,0,0,85937,,139.0,,,75.0,11.0,11.0,1.0,hard,1000.0,2000.0,0.0,40.0,60.0,40.0,60.0,B,A,/static/Simple_RL/Stimuli/Fractals_stims/B.jpg,/static/Simple_RL/Stimuli/Fractals_stims/A.jpg,0.0,60.0,40.0,60.0,40.0,A,B,67.639,0.139,0.0,
60,,rl_choice_confirmation,,html-keyboard-response,60,40892,0.0-1.0-80.0-0.0,0,0,85937,,,,,,11.0,,,,,,,,,,,,,,,,,,,,,,69.0,1.361,,
61,,isi,,html-keyboard-response,61,40998,0.0-1.0-82.0,0,0,85937,,,,,,,,,,,,,,,,,,,,,,,,,,,,71.0,2.0,,
62,,feedback,,html-keyboard-response,62,42001,0.0-1.0-83.0-0.0,0,0,85937,,,,,,11.0,,,,,,,,,,,,,,,,,,,,,,72.0,1.0,,
63,,iti,,html-keyboard-response,63,42107,0.0-1.0-84.0,0,0,85937,,,,,,,,,,,,,,,,,,,,,,,,,,,,73.0,1.0,,
64,,rl_choice,,html-keyboard-response,64,42133,0.0-1.0-86.0,0,0,85937,,26.0,,,68.0,12.0,12.0,1.0,hard,1000.0,1000.0,0.0,40.0,60.0,60.0,80.0,B,A,/static/Simple_RL/Stimuli/Fractals_stims/B.jpg,/static/Simple_RL/Stimuli/Fractals_stims/A.jpg,1.0,40.0,60.0,60.0,80.0,B,A,73.026,0.026,0.0,
65,,rl_choice_confirmation,,html-keyboard-response,65,43609,0.0-1.0-87.0-0.0,0,0,85937,,,,,,12.0,,,,,,,,,,,,,,,,,,,,,,74.5,1.474,,
66,,isi,,html-keyboard-response,66,43713,0.0-1.0-89.0,0,0,85937,,,,,,,,,,,,,,,,,,,,,,,,,,,,75.5,1.0,,
67,,feedback,,html-keyboard-response,67,44715,0.0-1.0-90.0-0.0,0,0,85937,,,,,,12.0,,,,,,,,,,,,,,,,,,,,,,76.5,1.0,,
68,,iti,,html-keyboard-response,68,44816,0.0-1.0-91.0,0,0,85937,,,,,,,,,,,,,,,,,,,,,,,,,,,,77.5,1.0,,
69,,rl_choice,,html-keyboard-response,69,45044,0.0-1.0-93.0,0,0,85937,,226.0,,,68.0,13.0,13.0,1.0,hard,3000.0,1500.0,1.0,60.0,40.0,40.0,60.0,A,B,/static/Simple_RL/Stimuli/Fractals_stims/A.jpg,/static/Simple_RL/Stimuli/Fractals_stims/B.jpg,1.0,60.0,40.0,40.0,60.0,A,B,77.726,0.226,0.0,
70,,rl_choice_confirmation,,html-keyboard-response,70,46321,0.0-1.0-94.0-0.0,0,0,85937,,,,,,13.0,,,,,,,,,,,,,,,,,,,,,,79.0,1.274,,
71,,isi,,html-keyboard-response,71,46426,0.0-1.0-96.0,0,0,85937,,,,,,,,,,,,,,,,,,,,,,,,,,,,80.5,1.5,,
72,,feedback,,html-keyboard-response,72,47431,0.0-1.0-97.0-0.0,0,0,85937,,,,,,13.0,,,,,,,,,,,,,,,,,,,,,,81.5,1.0,,
73,,iti,,html-keyboard-response,73,47533,0.0-1.0-98.0,0,0,85937,,,,,,,,,,,,,,,,,,,,,,,,,,,,84.5,3.0,,
74,,rl_choice,,html-keyboard-response,74,47563,0.0-1.0-100.0,0,0,85937,,28.0,,,68.0,14.0,14.0,1.0,easy,1500.0,1000.0,1.0,80.0,20.0,100.0,40.0,C,D,/static/Simple_RL/Stimuli/Fractals_stims/C.jpg,/static/Simple_RL/Stimuli/Fractals_stims/D.jpg,1.0,80.0,20.0,100.0,40.0,C,D,84.528,0.028,0.0,
75,,rl_choice_confirmation,,html-keyboard-response,75,49036,0.0-1.0-101.0-0.0,0,0,85937,,,,,,14.0,,,,,,,,,,,,,,,,,,,,,,86.0,1.472,,
76,,isi,,html-keyboard-response,76,49138,0.0-1.0-103.0,0,0,85937,,,,,,,,,,,,,,,,,,,,,,,,,,,,87.0,1.0,,
77,,feedback,,html-keyboard-response,77,50142,0.0-1.0-104.0-0.0,0,0,85937,,,,,,14.0,,,,,,,,,,,,,,,,,,,,,,88.0,1.0,,
78,,iti,,html-keyboard-response,78,50247,0.0-1.0-105.0,0,0,85937,,,,,,,,,,,,,,,,,,,,,,,,,,,,89.5,1.5,,
79,,rl_choice,,html-keyboard-response,79,50323,0.0-1.0-107.0,0,0,85937,,75.0,,,68.0,15.0,15.0,1.0,hard,1000.0,3000.0,1.0,60.0,40.0,60.0,60.0,A,B,/static/Simple_RL/Stimuli/Fractals_stims/A.jpg,/static/Simple_RL/Stimuli/Fractals_stims/B.jpg,1.0,60.0,40.0,60.0,60.0,A,B,89.575,0.075,0.0,
80,,rl_choice_confirmation,,html-keyboard-response,80,51751,0.0-1.0-108.0-0.0,0,0,85937,,,,,,15.0,,,,,,,,,,,,,,,,,,,,,,91.0,1.425,,
81,,isi,,html-keyboard-response,81,51855,0.0-1.0-110.0,0,0,85937,,,,,,,,,,,,,,,,,,,,,,,,,,,,94.0,3.0,,
82,,feedback,,html-keyboard-response,82,52859,0.0-1.0-111.0-0.0,0,0,85937,,,,,,15.0,,,,,,,,,,,,,,,,,,,,,,95.0,1.0,,
83,,iti,,html-keyboard-response,83,52962,0.0-1.0-112.0,0,0,85937,,,,,,,,,,,,,,,,,,,,,,,,,,,,96.0,1.0,,
84,,rl_choice,,html-keyboard-response,84,53148,0.0-1.0-114.0,0,0,85937,,186.0,,,68.0,16.0,16.0,1.0,hard,1500.0,1000.0,1.0,60.0,40.0,60.0,40.0,A,B,/static/Simple_RL/Stimuli/Fractals_stims/A.jpg,/static/Simple_RL/Stimuli/Fractals_stims/B.jpg,1.0,60.0,40.0,60.0,40.0,A,B,96.186,0.186,0.0,
85,,rl_choice_confirmation,,html-keyboard-response,85,54465,0.0-1.0-115.0-0.0,0,0,85937,,,,,,16.0,,,,,,,,,,,,,,,,,,,,,,97.5,1.314,,
86,,isi,,html-keyboard-response,86,54567,0.0-1.0-117.0,0,0,85937,,,,,,,,,,,,,,,,,,,,,,,,,,,,98.5,1.0,,
87,,feedback,,html-keyboard-response,87,55572,0.0-1.0-118.0-0.0,0,0,85937,,,,,,16.0,,,,,,,,,,,,,,,,,,,,,,99.5,1.0,,
88,,iti,,html-keyboard-response,88,55676,0.0-1.0-119.0,0,0,85937,,,,,,,,,,,,,,,,,,,,,,,,,,,,101.0,1.5,,
89,,rl_choice,,html-keyboard-response,89,55842,0.0-1.0-121.0,0,0,85937,,166.0,,,68.0,17.0,17.0,1.0,easy,2000.0,2000.0,1.0,80.0,20.0,100.0,40.0,C,D,/static/Simple_RL/Stimuli/Fractals_stims/C.jpg,/static/Simple_RL/Stimuli/Fractals_stims/D.jpg,1.0,80.0,20.0,100.0,40.0,C,D,101.166,0.166,0.0,
90,,rl_choice_confirmation,,html-keyboard-response,90,57180,0.0-1.0-122.0-0.0,0,0,85937,,,,,,17.0,,,,,,,,,,,,,,,,,,,,,,102.5,1.334,,
91,,isi,,html-keyboard-response,91,57285,0.0-1.0-124.0,0,0,85937,,,,,,,,,,,,,,,,,,,,,,,,,,,,104.5,2.0,,
92,,feedback,,html-keyboard-response,92,58290,0.0-1.0-125.0-0.0,0,0,85937,,,,,,17.0,,,,,,,,,,,,,,,,,,,,,,105.5,1.0,,
93,,iti,,html-keyboard-response,93,58392,0.0-1.0-126.0,0,0,85937,,,,,,,,,,,,,,,,,,,,,,,,,,,,107.5,2.0,,
94,,rl_choice,,html-keyboard-response,94,59896,0.0-1.0-128.0,0,0,85937,,,,,,18.0,18.0,1.0,hard,1000.0,1500.0,1.0,60.0,40.0,80.0,60.0,A,B,/static/Simple_RL/Stimuli/Fractals_stims/A.jpg,/static/Simple_RL/Stimuli/Fractals_stims/B.jpg,,,,,,,,109.0,1.5,1.0,
95,,rl_choice_warning,,html-keyboard-response,95,60900,0.0-1.0-130.0-0.0,0,0,85937,,,,,,,,,,,,,,,,,,,,,,,,,,,,110.0,1.0,,
96,,isi,,html-keyboard-response,96,61006,0.0-1.0-131.0,0,0,85937,,,,,,,,,,,,,,,,,,,,,,,,,,,,111.5,1.5,,
97,,iti,,html-keyboard-response,97,61111,0.0-1.0-133.0,0,0,85937,,,,,,,,,,,,,,,,,,,,,,,,,,,,112.5,1.0,,
98,,rl_choice,,html-keyboard-response,98,62614,0.0-1.0-135.0,0,0,85937,,,,,,19.0,19.0,1.0,hard,1000.0,1000.0,1.0,60.0,40.0,60.0,20.0,A,B,/static/Simple_RL/Stimuli/Fractals_stims/A.jpg,/static/Simple_RL/Stimuli/Fractals_stims/B.jpg,,,,,,,,114.0,1.5,1.0,
99,,rl_choice_warning,,html-keyboard-response,99,63617,0.0-1.0-137.0-0.0,0,0,85937,,,,,,,,,,,,,,,,,,,,,,,,,,,,115.0,1.0,,
100,,isi,,html-keyboard-response,100,63719,0.0-1.0-138.0,0,0,85937,,,,,,,,,,,,,,,,,,,,,,,,,,,,116.0,1.0,,
101,,iti,,html-keyboard-response,101,63820,0.0-1.0-140.0,0,0,85937,,,,,,,,,,,,,,,,,,,,,,,,,,,,117.0,1.0,,
102,,rl_choice,,html-keyboard-response,102,65326,0.0-1.0-142.0,0,0,85937,,,,,,20.0,20.0,1.0,easy,1000.0,1000.0,0.0,20.0,80.0,0.0,60.0,D,C,/static/Simple_RL/Stimuli/Fractals_stims/D.jpg,/static/Simple_RL/Stimuli/Fractals_stims/C.jpg,,,,,,,,118.5,1.5,1.0,
103,,rl_choice_warning,,html-keyboard-response,103,66330,0.0-1.0-144.0-0.0,0,0,85937,,,,,,,,,,,,,,,,,,,,,,,,,,,,119.5,1.0,,
104,,isi,,html-keyboard-response,104,66434,0.0-1.0-145.0,0,0,85937,,,,,,,,,,,,,,,,,,,,,,,,,,,,120.5,1.0,,
105,,iti,,html-keyboard-response,105,66535,0.0-1.0-147.0,0,0,85937,,,,,,,,,,,,,,,,,,,,,,,,,,,,121.5,1.0,,
106,,rl_choice,,html-keyboard-response,106,67059,0.0-1.0-149.0,0,0,85937,,523.0,,,68.0,21.0,21.0,1.0,easy,2000.0,1500.0,1.0,80.0,20.0,60.0,20.0,C,D,/static/Simple_RL/Stimuli/Fractals_stims/C.jpg,/static/Simple_RL/Stimuli/Fractals_stims/D.jpg,1.0,80.0,20.0,60.0,20.0,C,D,122.023,0.523,0.0,
107,,rl_choice_confirmation,,html-keyboard-response,107,68038,0.0-1.0-150.0-0.0,0,0,85937,,,,,,21.0,,,,,,,,,,,,,,,,,,,,,,123.0,0.977,,
108,,isi,,html-keyboard-response,108,68142,0.0-1.0-152.0,0,0,85937,,,,,,,,,,,,,,,,,,,,,,,,,,,,124.5,1.5,,
109,,feedback,,html-keyboard-response,109,69146,0.0-1.0-153.0-0.0,0,0,85937,,,,,,21.0,,,,,,,,,,,,,,,,,,,,,,125.5,1.0,,
110,,iti,,html-keyboard-response,110,69247,0.0-1.0-154.0,0,0,85937,,,,,,,,,,,,,,,,,,,,,,,,,,,,127.5,2.0,,
111,,rl_choice,,html-keyboard-response,111,69270,0.0-1.0-156.0,0,0,85937,,23.0,,,68.0,22.0,22.0,1.0,easy,1000.0,1000.0,1.0,80.0,20.0,100.0,0.0,C,D,/static/Simple_RL/Stimuli/Fractals_stims/C.jpg,/static/Simple_RL/Stimuli/Fractals_stims/D.jpg,1.0,80.0,20.0,100.0,0.0,C,D,127.523,0.023,0.0,
112,,rl_choice_confirmation,,html-keyboard-response,112,70751,0.0-1.0-157.0-0.0,0,0,85937,,,,,,22.0,,,,,,,,,,,,,,,,,,,,,,129.0,1.477,,
113,,isi,,html-keyboard-response,113,70855,0.0-1.0-159.0,0,0,85937,,,,,,,,,,,,,,,,,,,,,,,,,,,,130.0,1.0,,
114,,feedback,,html-keyboard-response,114,71859,0.0-1.0-160.0-0.0,0,0,85937,,,,,,22.0,,,,,,,,,,,,,,,,,,,,,,131.0,1.0,,
115,,iti,,html-keyboard-response,115,71960,0.0-1.0-161.0,0,0,85937,,,,,,,,,,,,,,,,,,,,,,,,,,,,132.0,1.0,,
116,,rl_choice,,html-keyboard-response,116,72197,0.0-1.0-163.0,0,0,85937,,235.0,,,68.0,23.0,23.0,1.0,easy,1500.0,3000.0,1.0,80.0,20.0,80.0,20.0,C,D,/static/Simple_RL/Stimuli/Fractals_stims/C.jpg,/static/Simple_RL/Stimuli/Fractals_stims/D.jpg,1.0,80.0,20.0,80.0,20.0,C,D,132.235,0.235,0.0,
117,,rl_choice_confirmation,,html-keyboard-response,117,73467,0.0-1.0-164.0-0.0,0,0,85937,,,,,,23.0,,,,,,,,,,,,,,,,,,,,,,133.5,1.265,,
118,,isi,,html-keyboard-response,118,73569,0.0-1.0-166.0,0,0,85937,,,,,,,,,,,,,,,,,,,,,,,,,,,,136.5,3.0,,
119,,feedback,,html-keyboard-response,119,74574,0.0-1.0-167.0-0.0,0,0,85937,,,,,,23.0,,,,,,,,,,,,,,,,,,,,,,137.5,1.0,,
120,,iti,,html-keyboard-response,120,74676,0.0-1.0-168.0,0,0,85937,,,,,,,,,,,,,,,,,,,,,,,,,,,,139.0,1.5,,
121,,rl_choice,,html-keyboard-response,121,74967,0.0-1.0-170.0,0,0,85937,,291.0,,,68.0,24.0,24.0,1.0,hard,2000.0,1500.0,0.0,40.0,60.0,40.0,60.0,B,A,/static/Simple_RL/Stimuli/Fractals_stims/B.jpg,/static/Simple_RL/Stimuli/Fractals_stims/A.jpg,1.0,40.0,60.0,40.0,60.0,B,A,139.291,0.291,0.0,
122,,rl_choice_confirmation,,html-keyboard-response,122,76181,0.0-1.0-171.0-0.0,0,0,85937,,,,,,24.0,,,,,,,,,,,,,,,,,,,,,,140.5,1.209,,
123,,isi,,html-keyboard-response,123,76285,0.0-1.0-173.0,0,0,85937,,,,,,,,,,,,,,,,,,,,,,,,,,,,142.0,1.5,,
124,,feedback,,html-keyboard-response,124,77287,0.0-1.0-174.0-0.0,0,0,85937,,,,,,24.0,,,,,,,,,,,,,,,,,,,,,,143.0,1.0,,
125,,iti,,html-keyboard-response,125,77393,0.0-1.0-175.0,0,0,85937,,,,,,,,,,,,,,,,,,,,,,,,,,,,145.0,2.0,,
126,,rl_choice,,html-keyboard-response,126,77397,0.0-1.0-177.0,0,0,85937,,4.0,,,68.0,25.0,25.0,1.0,hard,3000.0,1500.0,1.0,60.0,40.0,40.0,40.0,A,B,/static/Simple_RL/Stimuli/Fractals_stims/A.jpg,/static/Simple_RL/Stimuli/Fractals_stims/B.jpg,1.0,60.0,40.0,40.0,40.0,A,B,145.004,0.004,0.0,
127,,rl_choice_confirmation,,html-keyboard-response,127,78894,0.0-1.0-178.0-0.0,0,0,85937,,,,,,25.0,,,,,,,,,,,,,,,,,,,,,,146.5,1.496,,
128,,isi,,html-keyboard-response,128,78997,0.0-1.0-180.0,0,0,85937,,,,,,,,,,,,,,,,,,,,,,,,,,,,148.0,1.5,,
129,,feedback,,html-keyboard-response,129,80002,0.0-1.0-181.0-0.0,0,0,85937,,,,,,25.0,,,,,,,,,,,,,,,,,,,,,,149.0,1.0,,
130,,iti,,html-keyboard-response,130,80102,0.0-1.0-182.0,0,0,85937,,,,,,,,,,,,,,,,,,,,,,,,,,,,152.0,3.0,,
131,,rl_choice,,html-keyboard-response,131,80319,0.0-1.0-184.0,0,0,85937,,215.0,,,68.0,26.0,26.0,1.0,hard,1000.0,2000.0,0.0,40.0,60.0,40.0,80.0,B,A,/static/Simple_RL/Stimuli/Fractals_stims/B.jpg,/static/Simple_RL/Stimuli/Fractals_stims/A.jpg,1.0,40.0,60.0,40.0,80.0,B,A,152.215,0.215,0.0,
132,,rl_choice_confirmation,,html-keyboard-response,132,81609,0.0-1.0-185.0-0.0,0,0,85937,,,,,,26.0,,,,,,,,,,,,,,,,,,,,,,153.5,1.285,,
133,,isi,,html-keyboard-response,133,81714,0.0-1.0-187.0,0,0,85937,,,,,,,,,,,,,,,,,,,,,,,,,,,,155.5,2.0,,
134,,feedback,,html-keyboard-response,134,82717,0.0-1.0-188.0-0.0,0,0,85937,,,,,,26.0,,,,,,,,,,,,,,,,,,,,,,156.5,1.0,,
135,,iti,,html-keyboard-response,135,82820,0.0-1.0-189.0,0,0,85937,,,,,,,,,,,,,,,,,,,,,,,,,,,,157.5,1.0,,
136,,rl_choice,,html-keyboard-response,136,83268,0.0-1.0-191.0,0,0,85937,,448.0,,,68.0,27.0,27.0,1.0,easy,3000.0,1000.0,1.0,80.0,20.0,80.0,40.0,C,D,/static/Simple_RL/Stimuli/Fractals_stims/C.jpg,/static/Simple_RL/Stimuli/Fractals_stims/D.jpg,1.0,80.0,20.0,80.0,40.0,C,D,157.948,0.448,0.0,
137,,rl_choice_confirmation,,html-keyboard-response,137,84322,0.0-1.0-192.0-0.0,0,0,85937,,,,,,27.0,,,,,,,,,,,,,,,,,,,,,,159.0,1.052,,
138,,isi,,html-keyboard-response,138,84424,0.0-1.0-194.0,0,0,85937,,,,,,,,,,,,,,,,,,,,,,,,,,,,160.0,1.0,,
139,,feedback,,html-keyboard-response,139,85426,0.0-1.0-195.0-0.0,0,0,85937,,,,,,27.0,,,,,,,,,,,,,,,,,,,,,,161.0,1.0,,
140,,iti,,html-keyboard-response,140,85531,0.0-1.0-196.0,0,0,85937,,,,,,,,,,,,,,,,,,,,,,,,,,,,164.0,3.0,,
141,,rl_choice,,html-keyboard-response,141,85971,0.0-1.0-198.0,0,0,85937,,439.0,,,68.0,28.0,28.0,1.0,easy,1000.0,3500.0,1.0,80.0,20.0,60.0,20.0,C,D,/static/Simple_RL/Stimuli/Fractals_stims/C.jpg,/static/Simple_RL/Stimuli/Fractals_stims/D.jpg,1.0,80.0,20.0,60.0,20.0,C,D,164.439,0.439,0.0,
142,,rl_choice_confirmation,,html-keyboard-response,142,87037,0.0-1.0-199.0-0.0,0,0,85937,,,,,,28.0,,,,,,,,,,,,,,,,,,,,,,165.5,1.061,,
143,,isi,,html-keyboard-response,143,87142,0.0-1.0-201.0,0,0,85937,,,,,,,,,,,,,,,,,,,,,,,,,,,,169.0,3.5,,
144,,feedback,,html-keyboard-response,144,88147,0.0-1.0-202.0-0.0,0,0,85937,,,,,,28.0,,,,,,,,,,,,,,,,,,,,,,170.0,1.0,,
145,,iti,,html-keyboard-response,145,88248,0.0-1.0-203.0,0,0,85937,,,,,,,,,,,,,,,,,,,,,,,,,,,,171.0,1.0,,
146,,rl_choice,,html-keyboard-response,146,88536,0.0-1.0-205.0,0,0,85937,,287.0,,,68.0,29.0,29.0,1.0,hard,1500.0,1000.0,0.0,40.0,60.0,60.0,40.0,B,A,/static/Simple_RL/Stimuli/Fractals_stims/B.jpg,/static/Simple_RL/Stimuli/Fractals_stims/A.jpg,1.0,40.0,60.0,60.0,40.0,B,A,171.287,0.287,0.0,
147,,rl_choice_confirmation,,html-keyboard-response,147,89751,0.0-1.0-206.0-0.0,0,0,85937,,,,,,29.0,,,,,,,,,,,,,,,,,,,,,,172.5,1.213,,
148,,isi,,html-keyboard-response,148,89856,0.0-1.0-208.0,0,0,85937,,,,,,,,,,,,,,,,,,,,,,,,,,,,173.5,1.0,,
149,,feedback,,html-keyboard-response,149,90859,0.0-1.0-209.0-0.0,0,0,85937,,,,,,29.0,,,,,,,,,,,,,,,,,,,,,,174.5,1.0,,
150,,iti,,html-keyboard-response,150,90964,0.0-1.0-210.0,0,0,85937,,,,,,,,,,,,,,,,,,,,,,,,,,,,176.0,1.5,,
151,,rl_choice,,html-keyboard-response,151,91019,0.0-1.0-212.0,0,0,85937,,55.0,,,68.0,30.0,30.0,1.0,easy,1000.0,1500.0,1.0,80.0,20.0,100.0,20.0,C,D,/static/Simple_RL/Stimuli/Fractals_stims/C.jpg,/static/Simple_RL/Stimuli/Fractals_stims/D.jpg,1.0,80.0,20.0,100.0,20.0,C,D,176.055,0.055,0.0,
152,,rl_choice_confirmation,,html-keyboard-response,152,92469,0.0-1.0-213.0-0.0,0,0,85937,,,,,,30.0,,,,,,,,,,,,,,,,,,,,,,177.5,1.445,,
153,,isi,,html-keyboard-response,153,92575,0.0-1.0-215.0,0,0,85937,,,,,,,,,,,,,,,,,,,,,,,,,,,,179.0,1.5,,
154,,feedback,,html-keyboard-response,154,93580,0.0-1.0-216.0-0.0,0,0,85937,,,,,,30.0,,,,,,,,,,,,,,,,,,,,,,180.0,1.0,,
155,,iti,,html-keyboard-response,155,93684,0.0-1.0-217.0,0,0,85937,,,,,,,,,,,,,,,,,,,,,,,,,,,,181.0,1.0,,
156,,rl_choice,,html-keyboard-response,156,93689,0.0-1.0-219.0,0,0,85937,,5.0,,,68.0,31.0,31.0,1.0,easy,2000.0,1500.0,0.0,20.0,80.0,40.0,100.0,D,C,/static/Simple_RL/Stimuli/Fractals_stims/D.jpg,/static/Simple_RL/Stimuli/Fractals_stims/C.jpg,1.0,20.0,80.0,40.0,100.0,D,C,181.005,0.005,0.0,
157,,rl_choice_confirmation,,html-keyboard-response,157,95188,0.0-1.0-220.0-0.0,0,0,85937,,,,,,31.0,,,,,,,,,,,,,,,,,,,,,,182.5,1.495,,
158,,isi,,html-keyboard-response,158,95293,0.0-1.0-222.0,0,0,85937,,,,,,,,,,,,,,,,,,,,,,,,,,,,184.0,1.5,,
159,,feedback,,html-keyboard-response,159,96296,0.0-1.0-223.0-0.0,0,0,85937,,,,,,31.0,,,,,,,,,,,,,,,,,,,,,,185.0,1.0,,
160,,iti,,html-keyboard-response,160,96402,0.0-1.0-224.0,0,0,85937,,,,,,,,,,,,,,,,,,,,,,,,,,,,187.0,2.0,,
161,,rl_choice,,html-keyboard-response,161,96623,0.0-1.0-226.0,0,0,85937,,221.0,,,68.0,32.0,32.0,1.0,hard,1500.0,1000.0,0.0,40.0,60.0,40.0,80.0,B,A,/static/Simple_RL/Stimuli/Fractals_stims/B.jpg,/static/Simple_RL/Stimuli/Fractals_stims/A.jpg,1.0,40.0,60.0,40.0,80.0,B,A,187.221,0.221,0.0,
162,,rl_choice_confirmation,,html-keyboard-response,162,97907,0.0-1.0-227.0-0.0,0,0,85937,,,,,,32.0,,,,,,,,,,,,,,,,,,,,,,188.5,1.279,,
163,,isi,,html-keyboard-response,163,98010,0.0-1.0-229.0,0,0,85937,,,,,,,,,,,,,,,,,,,,,,,,,,,,189.5,1.0,,
164,,feedback,,html-keyboard-response,164,99014,0.0-1.0-230.0-0.0,0,0,85937,,,,,,32.0,,,,,,,,,,,,,,,,,,,,,,190.5,1.0,,
165,,iti,,html-keyboard-response,165,99115,0.0-1.0-231.0,0,0,85937,,,,,,,,,,,,,,,,,,,,,,,,,,,,192.0,1.5,,
166,,rl_choice,,html-keyboard-response,166,99356,0.0-1.0-233.0,0,0,85937,,241.0,,,68.0,33.0,33.0,1.0,easy,1000.0,1000.0,0.0,20.0,80.0,40.0,100.0,D,C,/static/Simple_RL/Stimuli/Fractals_stims/D.jpg,/static/Simple_RL/Stimuli/Fractals_stims/C.jpg,1.0,20.0,80.0,40.0,100.0,D,C,192.241,0.241,0.0,
167,,rl_choice_confirmation,,html-keyboard-response,167,100619,0.0-1.0-234.0-0.0,0,0,85937,,,,,,33.0,,,,,,,,,,,,,,,,,,,,,,193.5,1.259,,
168,,isi,,html-keyboard-response,168,100724,0.0-1.0-236.0,0,0,85937,,,,,,,,,,,,,,,,,,,,,,,,,,,,194.5,1.0,,
169,,feedback,,html-keyboard-response,169,101728,0.0-1.0-237.0-0.0,0,0,85937,,,,,,33.0,,,,,,,,,,,,,,,,,,,,,,195.5,1.0,,
170,,iti,,html-keyboard-response,170,101832,0.0-1.0-238.0,0,0,85937,,,,,,,,,,,,,,,,,,,,,,,,,,,,196.5,1.0,,
171,,rl_choice,,html-keyboard-response,171,103157,0.0-1.0-240.0,0,0,85937,,1323.0,,,68.0,34.0,34.0,1.0,easy,3500.0,3000.0,1.0,80.0,20.0,80.0,40.0,C,D,/static/Simple_RL/Stimuli/Fractals_stims/C.jpg,/static/Simple_RL/Stimuli/Fractals_stims/D.jpg,1.0,80.0,20.0,80.0,40.0,C,D,197.823,1.323,0.0,
172,,rl_choice_confirmation,,html-keyboard-response,172,103335,0.0-1.0-241.0-0.0,0,0,85937,,,,,,34.0,,,,,,,,,,,,,,,,,,,,,,198.0,0.177,,
173,,isi,,html-keyboard-response,173,103436,0.0-1.0-243.0,0,0,85937,,,,,,,,,,,,,,,,,,,,,,,,,,,,201.0,3.0,,
174,,feedback,,html-keyboard-response,174,104440,0.0-1.0-244.0-0.0,0,0,85937,,,,,,34.0,,,,,,,,,,,,,,,,,,,,,,202.0,1.0,,
175,,iti,,html-keyboard-response,175,104543,0.0-1.0-245.0,0,0,85937,,,,,,,,,,,,,,,,,,,,,,,,,,,,205.5,3.5,,
176,,rl_choice,,html-keyboard-response,176,105833,0.0-1.0-247.0,0,0,85937,,1290.0,,,68.0,35.0,35.0,1.0,easy,1500.0,2000.0,1.0,80.0,20.0,60.0,40.0,C,D,/static/Simple_RL/Stimuli/Fractals_stims/C.jpg,/static/Simple_RL/Stimuli/Fractals_stims/D.jpg,1.0,80.0,20.0,60.0,40.0,C,D,206.79,1.29,0.0,
177,,rl_choice_confirmation,,html-keyboard-response,177,106047,0.0-1.0-248.0-0.0,0,0,85937,,,,,,35.0,,,,,,,,,,,,,,,,,,,,,,207.0,0.21,,
178,,isi,,html-keyboard-response,178,106151,0.0-1.0-250.0,0,0,85937,,,,,,,,,,,,,,,,,,,,,,,,,,,,209.0,2.0,,
179,,feedback,,html-keyboard-response,179,107153,0.0-1.0-251.0-0.0,0,0,85937,,,,,,35.0,,,,,,,,,,,,,,,,,,,,,,210.0,1.0,,
180,,iti,,html-keyboard-response,180,107256,0.0-1.0-252.0,0,0,85937,,,,,,,,,,,,,,,,,,,,,,,,,,,,211.5,1.5,,
181,,rl_choice,,html-keyboard-response,181,108050,0.0-1.0-254.0,0,0,85937,,794.0,,,68.0,36.0,36.0,1.0,easy,1500.0,1500.0,0.0,20.0,80.0,20.0,100.0,D,C,/static/Simple_RL/Stimuli/Fractals_stims/D.jpg,/static/Simple_RL/Stimuli/Fractals_stims/C.jpg,1.0,20.0,80.0,20.0,100.0,D,C,212.294,0.794,0.0,
182,,rl_choice_confirmation,,html-keyboard-response,182,108759,0.0-1.0-255.0-0.0,0,0,85937,,,,,,36.0,,,,,,,,,,,,,,,,,,,,,,213.0,0.706,,
183,,isi,,html-keyboard-response,183,108861,0.0-1.0-257.0,0,0,85937,,,,,,,,,,,,,,,,,,,,,,,,,,,,214.5,1.5,,
184,,feedback,,html-keyboard-response,184,109865,0.0-1.0-258.0-0.0,0,0,85937,,,,,,36.0,,,,,,,,,,,,,,,,,,,,,,215.5,1.0,,
185,,iti,,html-keyboard-response,185,109970,0.0-1.0-259.0,0,0,85937,,,,,,,,,,,,,,,,,,,,,,,,,,,,217.0,1.5,,
186,,rl_choice,,html-keyboard-response,186,110756,0.0-1.0-261.0,0,0,85937,,786.0,,,68.0,37.0,37.0,1.0,hard,2000.0,1000.0,1.0,60.0,40.0,60.0,40.0,A,B,/static/Simple_RL/Stimuli/Fractals_stims/A.jpg,/static/Simple_RL/Stimuli/Fractals_stims/B.jpg,1.0,60.0,40.0,60.0,40.0,A,B,217.786,0.786,0.0,
187,,rl_choice_confirmation,,html-keyboard-response,187,111476,0.0-1.0-262.0-0.0,0,0,85937,,,,,,37.0,,,,,,,,,,,,,,,,,,,,,,218.5,0.714,,
188,,isi,,html-keyboard-response,188,111582,0.0-1.0-264.0,0,0,85937,,,,,,,,,,,,,,,,,,,,,,,,,,,,219.5,1.0,,
189,,feedback,,html-keyboard-response,189,112586,0.0-1.0-265.0-0.0,0,0,85937,,,,,,37.0,,,,,,,,,,,,,,,,,,,,,,220.5,1.0,,
190,,iti,,html-keyboard-response,190,112691,0.0-1.0-266.0,0,0,85937,,,,,,,,,,,,,,,,,,,,,,,,,,,,222.5,2.0,,
191,,rl_choice,,html-keyboard-response,191,114193,0.0-1.0-268.0,0,0,85937,,,,,,38.0,38.0,1.0,hard,1000.0,1500.0,0.0,40.0,60.0,20.0,40.0,B,A,/static/Simple_RL/Stimuli/Fractals_stims/B.jpg,/static/Simple_RL/Stimuli/Fractals_stims/A.jpg,,,,,,,,224.0,1.5,1.0,
192,,rl_choice_warning,,html-keyboard-response,192,115197,0.0-1.0-270.0-0.0,0,0,85937,,,,,,,,,,,,,,,,,,,,,,,,,,,,225.0,1.0,,
193,,isi,,html-keyboard-response,193,115302,0.0-1.0-271.0,0,0,85937,,,,,,,,,,,,,,,,,,,,,,,,,,,,226.5,1.5,,
194,,iti,,html-keyboard-response,194,115405,0.0-1.0-273.0,0,0,85937,,,,,,,,,,,,,,,,,,,,,,,,,,,,227.5,1.0,,
195,,rl_choice,,html-keyboard-response,195,115542,0.0-1.0-275.0,0,0,85937,,136.0,,,68.0,39.0,39.0,1.0,easy,1000.0,1000.0,0.0,20.0,80.0,0.0,60.0,D,C,/static/Simple_RL/Stimuli/Fractals_stims/D.jpg,/static/Simple_RL/Stimuli/Fractals_stims/C.jpg,1.0,20.0,80.0,0.0,60.0,D,C,227.636,0.136,0.0,
196,,rl_choice_confirmation,,html-keyboard-response,196,116910,0.0-1.0-276.0-0.0,0,0,85937,,,,,,39.0,,,,,,,,,,,,,,,,,,,,,,229.0,1.364,,
197,,isi,,html-keyboard-response,197,117014,0.0-1.0-278.0,0,0,85937,,,,,,,,,,,,,,,,,,,,,,,,,,,,230.0,1.0,,
198,,feedback,,html-keyboard-response,198,118017,0.0-1.0-279.0-0.0,0,0,85937,,,,,,39.0,,,,,,,,,,,,,,,,,,,,,,231.0,1.0,,
199,,iti,,html-keyboard-response,199,118119,0.0-1.0-280.0,0,0,85937,,,,,,,,,,,,,,,,,,,,,,,,,,,,232.0,1.0,,
200,,block_over,,html-keyboard-response,200,120625,0.0-1.0-281.0-0.0,0,0,85937,,2505.0,,,68.0,39.0,,,,,,,,,,,,,,,,,,,,,,,,,
201,,start_run,,html-keyboard-response,201,121575,0.0-1.0-281.0-1.0,0,0,85937,,950.0,,,84.0,,,,,,,,,,,,,,,,,,,,,,,,,,
202,,rl_choice,,html-keyboard-response,202,122029,0.0-1.0-282.0,0,0,85937,,452.0,,,75.0,40.0,40.0,2.0,easy,1500.0,2000.0,1.0,80.0,20.0,60.0,20.0,C,D,/static/Simple_RL/Stimuli/Fractals_stims/C.jpg,/static/Simple_RL/Stimuli/Fractals_stims/D.jpg,0.0,20.0,80.0,20.0,60.0,D,C,0.452,0.452,0.0,
203,,rl_choice_confirmation,,html-keyboard-response,203,123079,0.0-1.0-283.0-0.0,0,0,85937,,,,,,40.0,,,,,,,,,,,,,,,,,,,,,,1.5,1.048,,
204,,isi,,html-keyboard-response,204,123183,0.0-1.0-285.0,0,0,85937,,,,,,,,,,,,,,,,,,,,,,,,,,,,3.5,2.0,,
205,,feedback,,html-keyboard-response,205,124185,0.0-1.0-286.0-0.0,0,0,85937,,,,,,40.0,,,,,,,,,,,,,,,,,,,,,,4.5,1.0,,
206,,iti,,html-keyboard-response,206,124287,0.0-1.0-287.0,0,0,85937,,,,,,,,,,,,,,,,,,,,,,,,,,,,6.0,1.5,,
207,,rl_choice,,html-keyboard-response,207,124605,0.0-1.0-289.0,0,0,85937,,317.0,,,75.0,41.0,41.0,2.0,hard,1000.0,2000.0,0.0,40.0,60.0,60.0,60.0,B,A,/static/Simple_RL/Stimuli/Fractals_stims/B.jpg,/static/Simple_RL/Stimuli/Fractals_stims/A.jpg,0.0,60.0,40.0,60.0,60.0,A,B,6.317,0.317,0.0,
208,,rl_choice_confirmation,,html-keyboard-response,208,125793,0.0-1.0-290.0-0.0,0,0,85937,,,,,,41.0,,,,,,,,,,,,,,,,,,,,,,7.5,1.183,,
209,,isi,,html-keyboard-response,209,125895,0.0-1.0-292.0,0,0,85937,,,,,,,,,,,,,,,,,,,,,,,,,,,,9.5,2.0,,
210,,feedback,,html-keyboard-response,210,126899,0.0-1.0-293.0-0.0,0,0,85937,,,,,,41.0,,,,,,,,,,,,,,,,,,,,,,10.5,1.0,,
211,,iti,,html-keyboard-response,211,127002,0.0-1.0-294.0,0,0,85937,,,,,,,,,,,,,,,,,,,,,,,,,,,,11.5,1.0,,
212,,rl_choice,,html-keyboard-response,212,127301,0.0-1.0-296.0,0,0,85937,,299.0,,,75.0,42.0,42.0,2.0,hard,1500.0,1000.0,0.0,40.0,60.0,20.0,80.0,B,A,/static/Simple_RL/Stimuli/Fractals_stims/B.jpg,/static/Simple_RL/Stimuli/Fractals_stims/A.jpg,0.0,60.0,40.0,80.0,20.0,A,B,11.799,0.299,0.0,
213,,rl_choice_confirmation,,html-keyboard-response,213,128508,0.0-1.0-297.0-0.0,0,0,85937,,,,,,42.0,,,,,,,,,,,,,,,,,,,,,,13.0,1.201,,
214,,isi,,html-keyboard-response,214,128610,0.0-1.0-299.0,0,0,85937,,,,,,,,,,,,,,,,,,,,,,,,,,,,14.0,1.0,,
215,,feedback,,html-keyboard-response,215,129615,0.0-1.0-300.0-0.0,0,0,85937,,,,,,42.0,,,,,,,,,,,,,,,,,,,,,,15.0,1.0,,
216,,iti,,html-keyboard-response,216,129719,0.0-1.0-301.0,0,0,85937,,,,,,,,,,,,,,,,,,,,,,,,,,,,16.5,1.5,,
217,,rl_choice,,html-keyboard-response,217,129973,0.0-1.0-303.0,0,0,85937,,252.0,,,75.0,43.0,43.0,2.0,hard,1000.0,2000.0,0.0,40.0,60.0,20.0,80.0,B,A,/static/Simple_RL/Stimuli/Fractals_stims/B.jpg,/static/Simple_RL/Stimuli/Fractals_stims/A.jpg,0.0,60.0,40.0,80.0,20.0,A,B,16.752,0.252,0.0,
218,,rl_choice_confirmation,,html-keyboard-response,218,131226,0.0-1.0-304.0-0.0,0,0,85937,,,,,,43.0,,,,,,,,,,,,,,,,,,,,,,18.0,1.248,,
219,,isi,,html-keyboard-response,219,131327,0.0-1.0-306.0,0,0,85937,,,,,,,,,,,,,,,,,,,,,,,,,,,,20.0,2.0,,
220,,feedback,,html-keyboard-response,220,132329,0.0-1.0-307.0-0.0,0,0,85937,,,,,,43.0,,,,,,,,,,,,,,,,,,,,,,21.0,1.0,,
221,,iti,,html-keyboard-response,221,132432,0.0-1.0-308.0,0,0,85937,,,,,,,,,,,,,,,,,,,,,,,,,,,,22.0,1.0,,
222,,rl_choice,,html-keyboard-response,222,133065,0.0-1.0-310.0,0,0,85937,,633.0,,,75.0,44.0,44.0,2.0,hard,1000.0,1000.0,0.0,40.0,60.0,40.0,40.0,B,A,/static/Simple_RL/Stimuli/Fractals_stims/B.jpg,/static/Simple_RL/Stimuli/Fractals_stims/A.jpg,0.0,60.0,40.0,40.0,40.0,A,B,22.633,0.633,0.0,
223,,rl_choice_confirmation,,html-keyboard-response,223,133936,0.0-1.0-311.0-0.0,0,0,85937,,,,,,44.0,,,,,,,,,,,,,,,,,,,,,,23.5,0.867,,
224,,isi,,html-keyboard-response,224,134037,0.0-1.0-313.0,0,0,85937,,,,,,,,,,,,,,,,,,,,,,,,,,,,24.5,1.0,,
225,,feedback,,html-keyboard-response,225,135043,0.0-1.0-314.0-0.0,0,0,85937,,,,,,44.0,,,,,,,,,,,,,,,,,,,,,,25.5,1.0,,
226,,iti,,html-keyboard-response,226,135148,0.0-1.0-315.0,0,0,85937,,,,,,,,,,,,,,,,,,,,,,,,,,,,26.5,1.0,,
227,,rl_choice,,html-keyboard-response,227,135149,0.0-1.0-317.0,0,0,85937,,1.0,,,75.0,45.0,45.0,2.0,hard,2000.0,1500.0,0.0,40.0,60.0,20.0,40.0,B,A,/static/Simple_RL/Stimuli/Fractals_stims/B.jpg,/static/Simple_RL/Stimuli/Fractals_stims/A.jpg,0.0,60.0,40.0,40.0,20.0,A,B,26.501,0.001,0.0,
228,,rl_choice_confirmation,,html-keyboard-response,228,136654,0.0-1.0-318.0-0.0,0,0,85937,,,,,,45.0,,,,,,,,,,,,,,,,,,,,,,28.0,1.499,,
229,,isi,,html-keyboard-response,229,136760,0.0-1.0-320.0,0,0,85937,,,,,,,,,,,,,,,,,,,,,,,,,,,,29.5,1.5,,
230,,feedback,,html-keyboard-response,230,137764,0.0-1.0-321.0-0.0,0,0,85937,,,,,,45.0,,,,,,,,,,,,,,,,,,,,,,30.5,1.0,,
231,,iti,,html-keyboard-response,231,137865,0.0-1.0-322.0,0,0,85937,,,,,,,,,,,,,,,,,,,,,,,,,,,,32.5,2.0,,
232,,rl_choice,,html-keyboard-response,232,138026,0.0-1.0-324.0,0,0,85937,,159.0,,,75.0,46.0,46.0,2.0,easy,1500.0,3000.0,0.0,20.0,80.0,0.0,80.0,D,C,/static/Simple_RL/Stimuli/Fractals_stims/D.jpg,/static/Simple_RL/Stimuli/Fractals_stims/C.jpg,0.0,80.0,20.0,80.0,0.0,C,D,32.659,0.159,0.0,
233,,rl_choice_confirmation,,html-keyboard-response,233,139368,0.0-1.0-325.0-0.0,0,0,85937,,,,,,46.0,,,,,,,,,,,,,,,,,,,,,,34.0,1.341,,
234,,isi,,html-keyboard-response,234,139474,0.0-1.0-327.0,0,0,85937,,,,,,,,,,,,,,,,,,,,,,,,,,,,37.0,3.0,,
235,,feedback,,html-keyboard-response,235,140476,0.0-1.0-328.0-0.0,0,0,85937,,,,,,46.0,,,,,,,,,,,,,,,,,,,,,,38.0,1.0,,
236,,iti,,html-keyboard-response,236,140580,0.0-1.0-329.0,0,0,85937,,,,,,,,,,,,,,,,,,,,,,,,,,,,39.5,1.5,,
237,,rl_choice,,html-keyboard-response,237,140938,0.0-1.0-331.0,0,0,85937,,356.0,,,75.0,47.0,47.0,2.0,easy,1500.0,1000.0,0.0,20.0,80.0,20.0,80.0,D,C,/static/Simple_RL/Stimuli/Fractals_stims/D.jpg,/static/Simple_RL/Stimuli/Fractals_stims/C.jpg,0.0,80.0,20.0,80.0,20.0,C,D,39.856,0.356,0.0,
238,,rl_choice_confirmation,,html-keyboard-response,238,142087,0.0-1.0-332.0-0.0,0,0,85937,,,,,,47.0,,,,,,,,,,,,,,,,,,,,,,41.0,1.144,,
239,,isi,,html-keyboard-response,239,142191,0.0-1.0-334.0,0,0,85937,,,,,,,,,,,,,,,,,,,,,,,,,,,,42.0,1.0,,
240,,feedback,,html-keyboard-response,240,143193,0.0-1.0-335.0-0.0,0,0,85937,,,,,,47.0,,,,,,,,,,,,,,,,,,,,,,43.0,1.0,,
241,,iti,,html-keyboard-response,241,143297,0.0-1.0-336.0,0,0,85937,,,,,,,,,,,,,,,,,,,,,,,,,,,,44.5,1.5,,
242,,rl_choice,,html-keyboard-response,242,144100,0.0-1.0-338.0,0,0,85937,,802.0,,,75.0,48.0,48.0,2.0,easy,2000.0,1000.0,1.0,80.0,20.0,80.0,20.0,C,D,/static/Simple_RL/Stimuli/Fractals_stims/C.jpg,/static/Simple_RL/Stimuli/Fractals_stims/D.jpg,0.0,20.0,80.0,20.0,80.0,D,C,45.302,0.802,0.0,
243,,rl_choice_confirmation,,html-keyboard-response,243,144804,0.0-1.0-339.0-0.0,0,0,85937,,,,,,48.0,,,,,,,,,,,,,,,,,,,,,,46.0,0.698,,
244,,isi,,html-keyboard-response,244,144910,0.0-1.0-341.0,0,0,85937,,,,,,,,,,,,,,,,,,,,,,,,,,,,47.0,1.0,,
245,,feedback,,html-keyboard-response,245,145911,0.0-1.0-342.0-0.0,0,0,85937,,,,,,48.0,,,,,,,,,,,,,,,,,,,,,,48.0,1.0,,
246,,iti,,html-keyboard-response,246,146014,0.0-1.0-343.0,0,0,85937,,,,,,,,,,,,,,,,,,,,,,,,,,,,50.0,2.0,,
247,,rl_choice,,html-keyboard-response,247,146234,0.0-1.0-345.0,0,0,85937,,219.0,,,75.0,49.0,49.0,2.0,hard,1500.0,2000.0,0.0,40.0,60.0,60.0,60.0,B,A,/static/Simple_RL/Stimuli/Fractals_stims/B.jpg,/static/Simple_RL/Stimuli/Fractals_stims/A.jpg,0.0,60.0,40.0,60.0,60.0,A,B,50.219,0.219,0.0,
248,,rl_choice_confirmation,,html-keyboard-response,248,147518,0.0-1.0-346.0-0.0,0,0,85937,,,,,,49.0,,,,,,,,,,,,,,,,,,,,,,51.5,1.281,,
249,,isi,,html-keyboard-response,249,147618,0.0-1.0-348.0,0,0,85937,,,,,,,,,,,,,,,,,,,,,,,,,,,,53.5,2.0,,
250,,feedback,,html-keyboard-response,250,148620,0.0-1.0-349.0-0.0,0,0,85937,,,,,,49.0,,,,,,,,,,,,,,,,,,,,,,54.5,1.0,,
251,,iti,,html-keyboard-response,251,148724,0.0-1.0-350.0,0,0,85937,,,,,,,,,,,,,,,,,,,,,,,,,,,,56.0,1.5,,
252,,rl_choice,,html-keyboard-response,252,148831,0.0-1.0-352.0,0,0,85937,,106.0,,,75.0,50.0,50.0,2.0,easy,1000.0,3500.0,0.0,20.0,80.0,0.0,100.0,D,C,/static/Simple_RL/Stimuli/Fractals_stims/D.jpg,/static/Simple_RL/Stimuli/Fractals_stims/C.jpg,0.0,80.0,20.0,100.0,0.0,C,D,56.106,0.106,0.0,
253,,rl_choice_confirmation,,html-keyboard-response,253,150226,0.0-1.0-353.0-0.0,0,0,85937,,,,,,50.0,,,,,,,,,,,,,,,,,,,,,,57.5,1.394,,
254,,isi,,html-keyboard-response,254,150327,0.0-1.0-355.0,0,0,85937,,,,,,,,,,,,,,,,,,,,,,,,,,,,61.0,3.5,,
255,,feedback,,html-keyboard-response,255,151332,0.0-1.0-356.0-0.0,0,0,85937,,,,,,50.0,,,,,,,,,,,,,,,,,,,,,,62.0,1.0,,
256,,iti,,html-keyboard-response,256,151435,0.0-1.0-357.0,0,0,85937,,,,,,,,,,,,,,,,,,,,,,,,,,,,63.0,1.0,,
257,,rl_choice,,html-keyboard-response,257,151466,0.0-1.0-359.0,0,0,85937,,30.0,,,75.0,51.0,51.0,2.0,easy,1500.0,1000.0,1.0,80.0,20.0,60.0,20.0,C,D,/static/Simple_RL/Stimuli/Fractals_stims/C.jpg,/static/Simple_RL/Stimuli/Fractals_stims/D.jpg,0.0,20.0,80.0,20.0,60.0,D,C,63.03,0.03,0.0,
258,,rl_choice_confirmation,,html-keyboard-response,258,152941,0.0-1.0-360.0-0.0,0,0,85937,,,,,,51.0,,,,,,,,,,,,,,,,,,,,,,64.5,1.47,,
259,,isi,,html-keyboard-response,259,153043,0.0-1.0-362.0,0,0,85937,,,,,,,,,,,,,,,,,,,,,,,,,,,,65.5,1.0,,
260,,feedback,,html-keyboard-response,260,154047,0.0-1.0-363.0-0.0,0,0,85937,,,,,,51.0,,,,,,,,,,,,,,,,,,,,,,66.5,1.0,,
261,,iti,,html-keyboard-response,261,154151,0.0-1.0-364.0,0,0,85937,,,,,,,,,,,,,,,,,,,,,,,,,,,,68.0,1.5,,
262,,rl_choice,,html-keyboard-response,262,154327,0.0-1.0-366.0,0,0,85937,,176.0,,,75.0,52.0,52.0,2.0,hard,2000.0,1500.0,0.0,40.0,60.0,20.0,80.0,B,A,/static/Simple_RL/Stimuli/Fractals_stims/B.jpg,/static/Simple_RL/Stimuli/Fractals_stims/A.jpg,0.0,60.0,40.0,80.0,20.0,A,B,68.176,0.176,0.0,
263,,rl_choice_confirmation,,html-keyboard-response,263,155657,0.0-1.0-367.0-0.0,0,0,85937,,,,,,52.0,,,,,,,,,,,,,,,,,,,,,,69.5,1.324,,
264,,isi,,html-keyboard-response,264,155760,0.0-1.0-369.0,0,0,85937,,,,,,,,,,,,,,,,,,,,,,,,,,,,71.0,1.5,,
265,,feedback,,html-keyboard-response,265,156763,0.0-1.0-370.0-0.0,0,0,85937,,,,,,52.0,,,,,,,,,,,,,,,,,,,,,,72.0,1.0,,
266,,iti,,html-keyboard-response,266,156867,0.0-1.0-371.0,0,0,85937,,,,,,,,,,,,,,,,,,,,,,,,,,,,74.0,2.0,,
267,,rl_choice,,html-keyboard-response,267,157054,0.0-1.0-373.0,0,0,85937,,186.0,,,75.0,53.0,53.0,2.0,hard,3000.0,1500.0,0.0,40.0,60.0,20.0,40.0,B,A,/static/Simple_RL/Stimuli/Fractals_stims/B.jpg,/static/Simple_RL/Stimuli/Fractals_stims/A.jpg,0.0,60.0,40.0,40.0,20.0,A,B,74.186,0.186,0.0,
268,,rl_choice_confirmation,,html-keyboard-response,268,158370,0.0-1.0-374.0-0.0,0,0,85937,,,,,,53.0,,,,,,,,,,,,,,,,,,,,,,75.5,1.314,,
269,,isi,,html-keyboard-response,269,158476,0.0-1.0-376.0,0,0,85937,,,,,,,,,,,,,,,,,,,,,,,,,,,,77.0,1.5,,
270,,feedback,,html-keyboard-response,270,159480,0.0-1.0-377.0-0.0,0,0,85937,,,,,,53.0,,,,,,,,,,,,,,,,,,,,,,78.0,1.0,,
271,,iti,,html-keyboard-response,271,159582,0.0-1.0-378.0,0,0,85937,,,,,,,,,,,,,,,,,,,,,,,,,,,,81.0,3.0,,
272,,rl_choice,,html-keyboard-response,272,159691,0.0-1.0-380.0,0,0,85937,,107.0,,,75.0,54.0,54.0,2.0,easy,3000.0,1500.0,0.0,20.0,80.0,20.0,100.0,D,C,/static/Simple_RL/Stimuli/Fractals_stims/D.jpg,/static/Simple_RL/Stimuli/Fractals_stims/C.jpg,0.0,80.0,20.0,100.0,20.0,C,D,81.107,0.107,0.0,
273,,rl_choice_confirmation,,html-keyboard-response,273,161087,0.0-1.0-381.0-0.0,0,0,85937,,,,,,54.0,,,,,,,,,,,,,,,,,,,,,,82.5,1.393,,
274,,isi,,html-keyboard-response,274,161191,0.0-1.0-383.0,0,0,85937,,,,,,,,,,,,,,,,,,,,,,,,,,,,84.0,1.5,,
275,,feedback,,html-keyboard-response,275,162193,0.0-1.0-384.0-0.0,0,0,85937,,,,,,54.0,,,,,,,,,,,,,,,,,,,,,,85.0,1.0,,
276,,iti,,html-keyboard-response,276,162294,0.0-1.0-385.0,0,0,85937,,,,,,,,,,,,,,,,,,,,,,,,,,,,88.0,3.0,,
277,,rl_choice,,html-keyboard-response,277,162442,0.0-1.0-387.0,0,0,85937,,148.0,,,75.0,55.0,55.0,2.0,easy,1500.0,1500.0,1.0,80.0,20.0,80.0,20.0,C,D,/static/Simple_RL/Stimuli/Fractals_stims/C.jpg,/static/Simple_RL/Stimuli/Fractals_stims/D.jpg,0.0,20.0,80.0,20.0,80.0,D,C,88.148,0.148,0.0,
278,,rl_choice_confirmation,,html-keyboard-response,278,163795,0.0-1.0-388.0-0.0,0,0,85937,,,,,,55.0,,,,,,,,,,,,,,,,,,,,,,89.5,1.352,,
279,,isi,,html-keyboard-response,279,163897,0.0-1.0-390.0,0,0,85937,,,,,,,,,,,,,,,,,,,,,,,,,,,,91.0,1.5,,
280,,feedback,,html-keyboard-response,280,164900,0.0-1.0-391.0-0.0,0,0,85937,,,,,,55.0,,,,,,,,,,,,,,,,,,,,,,92.0,1.0,,
281,,iti,,html-keyboard-response,281,165002,0.0-1.0-392.0,0,0,85937,,,,,,,,,,,,,,,,,,,,,,,,,,,,93.5,1.5,,
282,,rl_choice,,html-keyboard-response,282,165176,0.0-1.0-394.0,0,0,85937,,173.0,,,75.0,56.0,56.0,2.0,easy,2000.0,2000.0,0.0,20.0,80.0,40.0,80.0,D,C,/static/Simple_RL/Stimuli/Fractals_stims/D.jpg,/static/Simple_RL/Stimuli/Fractals_stims/C.jpg,0.0,80.0,20.0,80.0,40.0,C,D,93.673,0.173,0.0,
283,,rl_choice_confirmation,,html-keyboard-response,283,166506,0.0-1.0-395.0-0.0,0,0,85937,,,,,,56.0,,,,,,,,,,,,,,,,,,,,,,95.0,1.327,,
284,,isi,,html-keyboard-response,284,166610,0.0-1.0-397.0,0,0,85937,,,,,,,,,,,,,,,,,,,,,,,,,,,,97.0,2.0,,
285,,feedback,,html-keyboard-response,285,167616,0.0-1.0-398.0-0.0,0,0,85937,,,,,,56.0,,,,,,,,,,,,,,,,,,,,,,98.0,1.0,,
286,,iti,,html-keyboard-response,286,167719,0.0-1.0-399.0,0,0,85937,,,,,,,,,,,,,,,,,,,,,,,,,,,,100.0,2.0,,
287,,rl_choice,,html-keyboard-response,287,167943,0.0-1.0-401.0,0,0,85937,,223.0,,,75.0,57.0,57.0,2.0,easy,1000.0,1000.0,0.0,20.0,80.0,20.0,80.0,D,C,/static/Simple_RL/Stimuli/Fractals_stims/D.jpg,/static/Simple_RL/Stimuli/Fractals_stims/C.jpg,0.0,80.0,20.0,80.0,20.0,C,D,100.223,0.223,0.0,
288,,rl_choice_confirmation,,html-keyboard-response,288,169226,0.0-1.0-402.0-0.0,0,0,85937,,,,,,57.0,,,,,,,,,,,,,,,,,,,,,,101.5,1.277,,
289,,isi,,html-keyboard-response,289,169327,0.0-1.0-404.0,0,0,85937,,,,,,,,,,,,,,,,,,,,,,,,,,,,102.5,1.0,,
290,,feedback,,html-keyboard-response,290,170329,0.0-1.0-405.0-0.0,0,0,85937,,,,,,57.0,,,,,,,,,,,,,,,,,,,,,,103.5,1.0,,
291,,iti,,html-keyboard-response,291,170433,0.0-1.0-406.0,0,0,85937,,,,,,,,,,,,,,,,,,,,,,,,,,,,104.5,1.0,,
292,,rl_choice,,html-keyboard-response,292,170555,0.0-1.0-408.0,0,0,85937,,121.0,,,75.0,58.0,58.0,2.0,easy,1000.0,1000.0,0.0,20.0,80.0,20.0,60.0,D,C,/static/Simple_RL/Stimuli/Fractals_stims/D.jpg,/static/Simple_RL/Stimuli/Fractals_stims/C.jpg,0.0,80.0,20.0,60.0,20.0,C,D,104.621,0.121,0.0,
293,,rl_choice_confirmation,,html-keyboard-response,293,171940,0.0-1.0-409.0-0.0,0,0,85937,,,,,,58.0,,,,,,,,,,,,,,,,,,,,,,106.0,1.379,,
294,,isi,,html-keyboard-response,294,172043,0.0-1.0-411.0,0,0,85937,,,,,,,,,,,,,,,,,,,,,,,,,,,,107.0,1.0,,
295,,feedback,,html-keyboard-response,295,173047,0.0-1.0-412.0-0.0,0,0,85937,,,,,,58.0,,,,,,,,,,,,,,,,,,,,,,108.0,1.0,,
296,,iti,,html-keyboard-response,296,173151,0.0-1.0-413.0,0,0,85937,,,,,,,,,,,,,,,,,,,,,,,,,,,,109.0,1.0,,
297,,rl_choice,,html-keyboard-response,297,173376,0.0-1.0-415.0,0,0,85937,,224.0,,,75.0,59.0,59.0,2.0,hard,1500.0,1000.0,1.0,60.0,40.0,80.0,40.0,A,B,/static/Simple_RL/Stimuli/Fractals_stims/A.jpg,/static/Simple_RL/Stimuli/Fractals_stims/B.jpg,0.0,40.0,60.0,40.0,80.0,B,A,109.224,0.224,0.0,
298,,rl_choice_confirmation,,html-keyboard-response,298,174658,0.0-1.0-416.0-0.0,0,0,85937,,,,,,59.0,,,,,,,,,,,,,,,,,,,,,,110.5,1.276,,
299,,isi,,html-keyboard-response,299,174760,0.0-1.0-418.0,0,0,85937,,,,,,,,,,,,,,,,,,,,,,,,,,,,111.5,1.0,,
300,,feedback,,html-keyboard-response,300,175765,0.0-1.0-419.0-0.0,0,0,85937,,,,,,59.0,,,,,,,,,,,,,,,,,,,,,,112.5,1.0,,
301,,iti,,html-keyboard-response,301,175868,0.0-1.0-420.0,0,0,85937,,,,,,,,,,,,,,,,,,,,,,,,,,,,114.0,1.5,,
302,,rl_choice,,html-keyboard-response,302,176173,0.0-1.0-422.0,0,0,85937,,303.0,,,75.0,60.0,60.0,2.0,hard,1500.0,1000.0,1.0,60.0,40.0,40.0,40.0,A,B,/static/Simple_RL/Stimuli/Fractals_stims/A.jpg,/static/Simple_RL/Stimuli/Fractals_stims/B.jpg,0.0,40.0,60.0,40.0,40.0,B,A,114.303,0.303,0.0,
303,,rl_choice_confirmation,,html-keyboard-response,303,177373,0.0-1.0-423.0-0.0,0,0,85937,,,,,,60.0,,,,,,,,,,,,,,,,,,,,,,115.5,1.197,,
304,,isi,,html-keyboard-response,304,177477,0.0-1.0-425.0,0,0,85937,,,,,,,,,,,,,,,,,,,,,,,,,,,,116.5,1.0,,
305,,feedback,,html-keyboard-response,305,178479,0.0-1.0-426.0-0.0,0,0,85937,,,,,,60.0,,,,,,,,,,,,,,,,,,,,,,117.5,1.0,,
306,,iti,,html-keyboard-response,306,178580,0.0-1.0-427.0,0,0,85937,,,,,,,,,,,,,,,,,,,,,,,,,,,,119.0,1.5,,
307,,rl_choice,,html-keyboard-response,307,178703,0.0-1.0-429.0,0,0,85937,,122.0,,,75.0,61.0,61.0,2.0,hard,1000.0,1000.0,1.0,60.0,40.0,40.0,60.0,A,B,/static/Simple_RL/Stimuli/Fractals_stims/A.jpg,/static/Simple_RL/Stimuli/Fractals_stims/B.jpg,0.0,40.0,60.0,60.0,40.0,B,A,119.122,0.122,0.0,
308,,rl_choice_confirmation,,html-keyboard-response,308,180086,0.0-1.0-430.0-0.0,0,0,85937,,,,,,61.0,,,,,,,,,,,,,,,,,,,,,,120.5,1.378,,
309,,isi,,html-keyboard-response,309,180189,0.0-1.0-432.0,0,0,85937,,,,,,,,,,,,,,,,,,,,,,,,,,,,121.5,1.0,,
310,,feedback,,html-keyboard-response,310,181190,0.0-1.0-433.0-0.0,0,0,85937,,,,,,61.0,,,,,,,,,,,,,,,,,,,,,,122.5,1.0,,
311,,iti,,html-keyboard-response,311,181293,0.0-1.0-434.0,0,0,85937,,,,,,,,,,,,,,,,,,,,,,,,,,,,123.5,1.0,,
312,,rl_choice,,html-keyboard-response,312,181402,0.0-1.0-436.0,0,0,85937,,107.0,,,75.0,62.0,62.0,2.0,hard,1000.0,3000.0,1.0,60.0,40.0,60.0,20.0,A,B,/static/Simple_RL/Stimuli/Fractals_stims/A.jpg,/static/Simple_RL/Stimuli/Fractals_stims/B.jpg,0.0,40.0,60.0,20.0,60.0,B,A,123.607,0.107,0.0,
313,,rl_choice_confirmation,,html-keyboard-response,313,182800,0.0-1.0-437.0-0.0,0,0,85937,,,,,,62.0,,,,,,,,,,,,,,,,,,,,,,125.0,1.393,,
314,,isi,,html-keyboard-response,314,182905,0.0-1.0-439.0,0,0,85937,,,,,,,,,,,,,,,,,,,,,,,,,,,,128.0,3.0,,
315,,feedback,,html-keyboard-response,315,183910,0.0-1.0-440.0-0.0,0,0,85937,,,,,,62.0,,,,,,,,,,,,,,,,,,,,,,129.0,1.0,,
316,,iti,,html-keyboard-response,316,184011,0.0-1.0-441.0,0,0,85937,,,,,,,,,,,,,,,,,,,,,,,,,,,,130.0,1.0,,
317,,rl_choice,,html-keyboard-response,317,184372,0.0-1.0-443.0,0,0,85937,,360.0,,,75.0,63.0,63.0,2.0,easy,2000.0,1500.0,0.0,20.0,80.0,20.0,60.0,D,C,/static/Simple_RL/Stimuli/Fractals_stims/D.jpg,/static/Simple_RL/Stimuli/Fractals_stims/C.jpg,0.0,80.0,20.0,60.0,20.0,C,D,130.36,0.36,0.0,
318,,rl_choice_confirmation,,html-keyboard-response,318,185514,0.0-1.0-444.0-0.0,0,0,85937,,,,,,63.0,,,,,,,,,,,,,,,,,,,,,,131.5,1.14,,
319,,isi,,html-keyboard-response,319,185617,0.0-1.0-446.0,0,0,85937,,,,,,,,,,,,,,,,,,,,,,,,,,,,133.0,1.5,,
320,,feedback,,html-keyboard-response,320,186619,0.0-1.0-447.0-0.0,0,0,85937,,,,,,63.0,,,,,,,,,,,,,,,,,,,,,,134.0,1.0,,
321,,iti,,html-keyboard-response,321,186722,0.0-1.0-448.0,0,0,85937,,,,,,,,,,,,,,,,,,,,,,,,,,,,136.0,2.0,,
322,,rl_choice,,html-keyboard-response,322,186778,0.0-1.0-450.0,0,0,85937,,55.0,,,75.0,64.0,64.0,2.0,easy,2000.0,1000.0,1.0,80.0,20.0,100.0,20.0,C,D,/static/Simple_RL/Stimuli/Fractals_stims/C.jpg,/static/Simple_RL/Stimuli/Fractals_stims/D.jpg,0.0,20.0,80.0,20.0,100.0,D,C,136.055,0.055,0.0,
323,,rl_choice_confirmation,,html-keyboard-response,323,188227,0.0-1.0-451.0-0.0,0,0,85937,,,,,,64.0,,,,,,,,,,,,,,,,,,,,,,137.5,1.445,,
324,,isi,,html-keyboard-response,324,188328,0.0-1.0-453.0,0,0,85937,,,,,,,,,,,,,,,,,,,,,,,,,,,,138.5,1.0,,
325,,feedback,,html-keyboard-response,325,189331,0.0-1.0-454.0-0.0,0,0,85937,,,,,,64.0,,,,,,,,,,,,,,,,,,,,,,139.5,1.0,,
326,,iti,,html-keyboard-response,326,189436,0.0-1.0-455.0,0,0,85937,,,,,,,,,,,,,,,,,,,,,,,,,,,,141.5,2.0,,
327,,rl_choice,,html-keyboard-response,327,189732,0.0-1.0-457.0,0,0,85937,,296.0,,,75.0,65.0,65.0,2.0,hard,2000.0,1500.0,1.0,60.0,40.0,60.0,40.0,A,B,/static/Simple_RL/Stimuli/Fractals_stims/A.jpg,/static/Simple_RL/Stimuli/Fractals_stims/B.jpg,0.0,40.0,60.0,40.0,60.0,B,A,141.796,0.296,0.0,
328,,rl_choice_confirmation,,html-keyboard-response,328,190941,0.0-1.0-458.0-0.0,0,0,85937,,,,,,65.0,,,,,,,,,,,,,,,,,,,,,,143.0,1.204,,
329,,isi,,html-keyboard-response,329,191046,0.0-1.0-460.0,0,0,85937,,,,,,,,,,,,,,,,,,,,,,,,,,,,144.5,1.5,,
330,,feedback,,html-keyboard-response,330,192051,0.0-1.0-461.0-0.0,0,0,85937,,,,,,65.0,,,,,,,,,,,,,,,,,,,,,,145.5,1.0,,
331,,iti,,html-keyboard-response,331,192152,0.0-1.0-462.0,0,0,85937,,,,,,,,,,,,,,,,,,,,,,,,,,,,147.5,2.0,,
332,,rl_choice,,html-keyboard-response,332,192378,0.0-1.0-464.0,0,0,85937,,226.0,,,75.0,66.0,66.0,2.0,hard,3000.0,1000.0,1.0,60.0,40.0,60.0,20.0,A,B,/static/Simple_RL/Stimuli/Fractals_stims/A.jpg,/static/Simple_RL/Stimuli/Fractals_stims/B.jpg,0.0,40.0,60.0,20.0,60.0,B,A,147.726,0.226,0.0,
333,,rl_choice_confirmation,,html-keyboard-response,333,193655,0.0-1.0-465.0-0.0,0,0,85937,,,,,,66.0,,,,,,,,,,,,,,,,,,,,,,149.0,1.274,,
334,,isi,,html-keyboard-response,334,193760,0.0-1.0-467.0,0,0,85937,,,,,,,,,,,,,,,,,,,,,,,,,,,,150.0,1.0,,
335,,feedback,,html-keyboard-response,335,194761,0.0-1.0-468.0-0.0,0,0,85937,,,,,,66.0,,,,,,,,,,,,,,,,,,,,,,151.0,1.0,,
336,,iti,,html-keyboard-response,336,194862,0.0-1.0-469.0,0,0,85937,,,,,,,,,,,,,,,,,,,,,,,,,,,,154.0,3.0,,
337,,rl_choice,,html-keyboard-response,337,194985,0.0-1.0-471.0,0,0,85937,,123.0,,,75.0,67.0,67.0,2.0,easy,3500.0,2000.0,1.0,80.0,20.0,60.0,40.0,C,D,/static/Simple_RL/Stimuli/Fractals_stims/C.jpg,/static/Simple_RL/Stimuli/Fractals_stims/D.jpg,0.0,20.0,80.0,40.0,60.0,D,C,154.123,0.123,0.0,
338,,rl_choice_confirmation,,html-keyboard-response,338,196367,0.0-1.0-472.0-0.0,0,0,85937,,,,,,67.0,,,,,,,,,,,,,,,,,,,,,,155.5,1.377,,
339,,isi,,html-keyboard-response,339,196468,0.0-1.0-474.0,0,0,85937,,,,,,,,,,,,,,,,,,,,,,,,,,,,157.5,2.0,,
340,,feedback,,html-keyboard-response,340,197471,0.0-1.0-475.0-0.0,0,0,85937,,,,,,67.0,,,,,,,,,,,,,,,,,,,,,,158.5,1.0,,
341,,iti,,html-keyboard-response,341,197577,0.0-1.0-476.0,0,0,85937,,,,,,,,,,,,,,,,,,,,,,,,,,,,162.0,3.5,,
342,,rl_choice,,html-keyboard-response,342,197665,0.0-1.0-478.0,0,0,85937,,88.0,,,75.0,68.0,68.0,2.0,easy,3000.0,2000.0,0.0,20.0,80.0,40.0,80.0,D,C,/static/Simple_RL/Stimuli/Fractals_stims/D.jpg,/static/Simple_RL/Stimuli/Fractals_stims/C.jpg,0.0,80.0,20.0,80.0,40.0,C,D,162.088,0.088,0.0,
343,,rl_choice_confirmation,,html-keyboard-response,343,199079,0.0-1.0-479.0-0.0,0,0,85937,,,,,,68.0,,,,,,,,,,,,,,,,,,,,,,163.5,1.412,,
344,,isi,,html-keyboard-response,344,199184,0.0-1.0-481.0,0,0,85937,,,,,,,,,,,,,,,,,,,,,,,,,,,,165.5,2.0,,
345,,feedback,,html-keyboard-response,345,200187,0.0-1.0-482.0-0.0,0,0,85937,,,,,,68.0,,,,,,,,,,,,,,,,,,,,,,166.5,1.0,,
346,,iti,,html-keyboard-response,346,200291,0.0-1.0-483.0,0,0,85937,,,,,,,,,,,,,,,,,,,,,,,,,,,,169.5,3.0,,
347,,rl_choice,,html-keyboard-response,347,200665,0.0-1.0-485.0,0,0,85937,,373.0,,,75.0,69.0,69.0,2.0,hard,2000.0,1000.0,1.0,60.0,40.0,40.0,60.0,A,B,/static/Simple_RL/Stimuli/Fractals_stims/A.jpg,/static/Simple_RL/Stimuli/Fractals_stims/B.jpg,0.0,40.0,60.0,60.0,40.0,B,A,169.873,0.373,0.0,
348,,rl_choice_confirmation,,html-keyboard-response,348,201793,0.0-1.0-486.0-0.0,0,0,85937,,,,,,69.0,,,,,,,,,,,,,,,,,,,,,,171.0,1.127,,
349,,isi,,html-keyboard-response,349,201897,0.0-1.0-488.0,0,0,85937,,,,,,,,,,,,,,,,,,,,,,,,,,,,172.0,1.0,,
350,,feedback,,html-keyboard-response,350,202903,0.0-1.0-489.0-0.0,0,0,85937,,,,,,69.0,,,,,,,,,,,,,,,,,,,,,,173.0,1.0,,
351,,iti,,html-keyboard-response,351,203003,0.0-1.0-490.0,0,0,85937,,,,,,,,,,,,,,,,,,,,,,,,,,,,175.0,2.0,,
352,,rl_choice,,html-keyboard-response,352,203163,0.0-1.0-492.0,0,0,85937,,159.0,,,75.0,70.0,70.0,2.0,hard,1000.0,3500.0,1.0,60.0,40.0,80.0,40.0,A,B,/static/Simple_RL/Stimuli/Fractals_stims/A.jpg,/static/Simple_RL/Stimuli/Fractals_stims/B.jpg,0.0,40.0,60.0,40.0,80.0,B,A,175.159,0.159,0.0,
353,,rl_choice_confirmation,,html-keyboard-response,353,204509,0.0-1.0-493.0-0.0,0,0,85937,,,,,,70.0,,,,,,,,,,,,,,,,,,,,,,176.5,1.341,,
354,,isi,,html-keyboard-response,354,204610,0.0-1.0-495.0,0,0,85937,,,,,,,,,,,,,,,,,,,,,,,,,,,,180.0,3.5,,
355,,feedback,,html-keyboard-response,355,205614,0.0-1.0-496.0-0.0,0,0,85937,,,,,,70.0,,,,,,,,,,,,,,,,,,,,,,181.0,1.0,,
356,,iti,,html-keyboard-response,356,205718,0.0-1.0-497.0,0,0,85937,,,,,,,,,,,,,,,,,,,,,,,,,,,,182.0,1.0,,
357,,rl_choice,,html-keyboard-response,357,205884,0.0-1.0-499.0,0,0,85937,,165.0,,,75.0,71.0,71.0,2.0,hard,1000.0,1500.0,1.0,60.0,40.0,40.0,40.0,A,B,/static/Simple_RL/Stimuli/Fractals_stims/A.jpg,/static/Simple_RL/Stimuli/Fractals_stims/B.jpg,0.0,40.0,60.0,40.0,40.0,B,A,182.165,0.165,0.0,
358,,rl_choice_confirmation,,html-keyboard-response,358,207225,0.0-1.0-500.0-0.0,0,0,85937,,,,,,71.0,,,,,,,,,,,,,,,,,,,,,,183.5,1.335,,
359,,isi,,html-keyboard-response,359,207329,0.0-1.0-502.0,0,0,85937,,,,,,,,,,,,,,,,,,,,,,,,,,,,185.0,1.5,,
360,,feedback,,html-keyboard-response,360,208335,0.0-1.0-503.0-0.0,0,0,85937,,,,,,71.0,,,,,,,,,,,,,,,,,,,,,,186.0,1.0,,
361,,iti,,html-keyboard-response,361,208436,0.0-1.0-504.0,0,0,85937,,,,,,,,,,,,,,,,,,,,,,,,,,,,187.0,1.0,,
362,,rl_choice,,html-keyboard-response,362,209134,0.0-1.0-506.0,0,0,85937,,698.0,,,75.0,72.0,72.0,2.0,easy,1000.0,1500.0,0.0,20.0,80.0,0.0,80.0,D,C,/static/Simple_RL/Stimuli/Fractals_stims/D.jpg,/static/Simple_RL/Stimuli/Fractals_stims/C.jpg,0.0,80.0,20.0,80.0,0.0,C,D,187.698,0.698,0.0,
363,,rl_choice_confirmation,,html-keyboard-response,363,209941,0.0-1.0-507.0-0.0,0,0,85937,,,,,,72.0,,,,,,,,,,,,,,,,,,,,,,188.5,0.802,,
364,,isi,,html-keyboard-response,364,210047,0.0-1.0-509.0,0,0,85937,,,,,,,,,,,,,,,,,,,,,,,,,,,,190.0,1.5,,
365,,feedback,,html-keyboard-response,365,211050,0.0-1.0-510.0-0.0,0,0,85937,,,,,,72.0,,,,,,,,,,,,,,,,,,,,,,191.0,1.0,,
366,,iti,,html-keyboard-response,366,211154,0.0-1.0-511.0,0,0,85937,,,,,,,,,,,,,,,,,,,,,,,,,,,,192.0,1.0,,
367,,rl_choice,,html-keyboard-response,367,211360,0.0-1.0-513.0,0,0,85937,,206.0,,,75.0,73.0,73.0,2.0,easy,1000.0,3000.0,1.0,80.0,20.0,60.0,0.0,C,D,/static/Simple_RL/Stimuli/Fractals_stims/C.jpg,/static/Simple_RL/Stimuli/Fractals_stims/D.jpg,0.0,20.0,80.0,0.0,60.0,D,C,192.206,0.206,0.0,
368,,rl_choice_confirmation,,html-keyboard-response,368,212660,0.0-1.0-514.0-0.0,0,0,85937,,,,,,73.0,,,,,,,,,,,,,,,,,,,,,,193.5,1.294,,
369,,isi,,html-keyboard-response,369,212762,0.0-1.0-516.0,0,0,85937,,,,,,,,,,,,,,,,,,,,,,,,,,,,196.5,3.0,,
370,,feedback,,html-keyboard-response,370,213764,0.0-1.0-517.0-0.0,0,0,85937,,,,,,73.0,,,,,,,,,,,,,,,,,,,,,,197.5,1.0,,
371,,iti,,html-keyboard-response,371,213868,0.0-1.0-518.0,0,0,85937,,,,,,,,,,,,,,,,,,,,,,,,,,,,198.5,1.0,,
372,,rl_choice,,html-keyboard-response,372,213895,0.0-1.0-520.0,0,0,85937,,27.0,,,75.0,74.0,74.0,2.0,hard,3500.0,2000.0,1.0,60.0,40.0,60.0,60.0,A,B,/static/Simple_RL/Stimuli/Fractals_stims/A.jpg,/static/Simple_RL/Stimuli/Fractals_stims/B.jpg,0.0,40.0,60.0,60.0,60.0,B,A,198.527,0.027,0.0,
373,,rl_choice_confirmation,,html-keyboard-response,373,215370,0.0-1.0-521.0-0.0,0,0,85937,,,,,,74.0,,,,,,,,,,,,,,,,,,,,,,200.0,1.473,,
374,,isi,,html-keyboard-response,374,215471,0.0-1.0-523.0,0,0,85937,,,,,,,,,,,,,,,,,,,,,,,,,,,,202.0,2.0,,
375,,feedback,,html-keyboard-response,375,216477,0.0-1.0-524.0-0.0,0,0,85937,,,,,,74.0,,,,,,,,,,,,,,,,,,,,,,203.0,1.0,,
376,,iti,,html-keyboard-response,376,216580,0.0-1.0-525.0,0,0,85937,,,,,,,,,,,,,,,,,,,,,,,,,,,,206.5,3.5,,
377,,rl_choice,,html-keyboard-response,377,216755,0.0-1.0-527.0,0,0,85937,,174.0,,,75.0,75.0,75.0,2.0,hard,1500.0,3000.0,0.0,40.0,60.0,60.0,80.0,B,A,/static/Simple_RL/Stimuli/Fractals_stims/B.jpg,/static/Simple_RL/Stimuli/Fractals_stims/A.jpg,0.0,60.0,40.0,80.0,60.0,A,B,206.674,0.174,0.0,
378,,rl_choice_confirmation,,html-keyboard-response,378,218083,0.0-1.0-528.0-0.0,0,0,85937,,,,,,75.0,,,,,,,,,,,,,,,,,,,,,,208.0,1.326,,
379,,isi,,html-keyboard-response,379,218186,0.0-1.0-530.0,0,0,85937,,,,,,,,,,,,,,,,,,,,,,,,,,,,211.0,3.0,,
380,,feedback,,html-keyboard-response,380,219191,0.0-1.0-531.0-0.0,0,0,85937,,,,,,75.0,,,,,,,,,,,,,,,,,,,,,,212.0,1.0,,
381,,iti,,html-keyboard-response,381,219293,0.0-1.0-532.0,0,0,85937,,,,,,,,,,,,,,,,,,,,,,,,,,,,213.5,1.5,,
382,,rl_choice,,html-keyboard-response,382,219474,0.0-1.0-534.0,0,0,85937,,180.0,,,75.0,76.0,76.0,2.0,easy,1000.0,1000.0,0.0,20.0,80.0,20.0,80.0,D,C,/static/Simple_RL/Stimuli/Fractals_stims/D.jpg,/static/Simple_RL/Stimuli/Fractals_stims/C.jpg,0.0,80.0,20.0,80.0,20.0,C,D,213.68,0.18,0.0,
383,,rl_choice_confirmation,,html-keyboard-response,383,220797,0.0-1.0-535.0-0.0,0,0,85937,,,,,,76.0,,,,,,,,,,,,,,,,,,,,,,215.0,1.32,,
384,,isi,,html-keyboard-response,384,220901,0.0-1.0-537.0,0,0,85937,,,,,,,,,,,,,,,,,,,,,,,,,,,,216.0,1.0,,
385,,feedback,,html-keyboard-response,385,221903,0.0-1.0-538.0-0.0,0,0,85937,,,,,,76.0,,,,,,,,,,,,,,,,,,,,,,217.0,1.0,,
386,,iti,,html-keyboard-response,386,222005,0.0-1.0-539.0,0,0,85937,,,,,,,,,,,,,,,,,,,,,,,,,,,,218.0,1.0,,
387,,rl_choice,,html-keyboard-response,387,222118,0.0-1.0-541.0,0,0,85937,,113.0,,,75.0,77.0,77.0,2.0,hard,1000.0,1000.0,0.0,40.0,60.0,60.0,40.0,B,A,/static/Simple_RL/Stimuli/Fractals_stims/B.jpg,/static/Simple_RL/Stimuli/Fractals_stims/A.jpg,0.0,60.0,40.0,40.0,60.0,A,B,218.113,0.113,0.0,
388,,rl_choice_confirmation,,html-keyboard-response,388,223510,0.0-1.0-542.0-0.0,0,0,85937,,,,,,77.0,,,,,,,,,,,,,,,,,,,,,,219.5,1.387,,
389,,isi,,html-keyboard-response,389,223610,0.0-1.0-544.0,0,0,85937,,,,,,,,,,,,,,,,,,,,,,,,,,,,220.5,1.0,,
390,,feedback,,html-keyboard-response,390,224613,0.0-1.0-545.0-0.0,0,0,85937,,,,,,77.0,,,,,,,,,,,,,,,,,,,,,,221.5,1.0,,
391,,iti,,html-keyboard-response,391,224716,0.0-1.0-546.0,0,0,85937,,,,,,,,,,,,,,,,,,,,,,,,,,,,222.5,1.0,,
392,,rl_choice,,html-keyboard-response,392,224757,0.0-1.0-548.0,0,0,85937,,40.0,,,75.0,78.0,78.0,2.0,easy,1000.0,1500.0,1.0,80.0,20.0,80.0,0.0,C,D,/static/Simple_RL/Stimuli/Fractals_stims/C.jpg,/static/Simple_RL/Stimuli/Fractals_stims/D.jpg,0.0,20.0,80.0,0.0,80.0,D,C,222.54,0.04,0.0,
393,,rl_choice_confirmation,,html-keyboard-response,393,226219,0.0-1.0-549.0-0.0,0,0,85937,,,,,,78.0,,,,,,,,,,,,,,,,,,,,,,224.0,1.46,,
394,,isi,,html-keyboard-response,394,226320,0.0-1.0-551.0,0,0,85937,,,,,,,,,,,,,,,,,,,,,,,,,,,,225.5,1.5,,
395,,feedback,,html-keyboard-response,395,227321,0.0-1.0-552.0-0.0,0,0,85937,,,,,,78.0,,,,,,,,,,,,,,,,,,,,,,226.5,1.0,,
396,,iti,,html-keyboard-response,396,227427,0.0-1.0-553.0,0,0,85937,,,,,,,,,,,,,,,,,,,,,,,,,,,,227.5,1.0,,
397,,rl_choice,,html-keyboard-response,397,227499,0.0-1.0-555.0,0,0,85937,,72.0,,,75.0,79.0,79.0,2.0,easy,1000.0,1000.0,0.0,20.0,80.0,0.0,100.0,D,C,/static/Simple_RL/Stimuli/Fractals_stims/D.jpg,/static/Simple_RL/Stimuli/Fractals_stims/C.jpg,0.0,80.0,20.0,100.0,0.0,C,D,227.572,0.072,0.0,
398,,rl_choice_confirmation,,html-keyboard-response,398,228928,0.0-1.0-556.0-0.0,0,0,85937,,,,,,79.0,,,,,,,,,,,,,,,,,,,,,,229.0,1.428,,
399,,isi,,html-keyboard-response,399,229032,0.0-1.0-558.0,0,0,85937,,,,,,,,,,,,,,,,,,,,,,,,,,,,230.0,1.0,,
400,,feedback,,html-keyboard-response,400,230038,0.0-1.0-559.0-0.0,0,0,85937,,,,,,79.0,,,,,,,,,,,,,,,,,,,,,,231.0,1.0,,
401,,iti,,html-keyboard-response,401,230142,0.0-1.0-560.0,0,0,85937,,,,,,,,,,,,,,,,,,,,,,,,,,,,232.0,1.0,,1.0
402,,final_tally,,html-keyboard-response,402,232100,0.0-2.0,0,0,85937,,1958.0,,,68.0,,,,,,,,,,,,,,,,,,,,,,,,,,
