,success,ttype,start_time,trial_type,trial_index,time_elapsed,internal_node_id,warning,missed_checkup,PID,view_history,rt,responses,repeat_instructions,key_press,index,trial_num,block,condition,iti,isi,high_group_on_left,left_group_value,right_group_value,left_item_value,right_item_value,left_img,right_img,left_img_path,right_img_path,left_chosen,chosen_group_value,unchosen_group_value,chosen_item_value,unchosen_item_value,chosen_img,unchosen_img,no_response,onset,duration,no_resposne,total_bonus_tally
0,True,full_screen,d05202022hr1640,fullscreen,0,15109,0.0-0.0,0,0,1,,,,,,,,,,,,,,,,,,,,,,,,,,,,,,,,
1,,size_instructions,,instructions,1,20003,0.0-1.0-0.0-0.0,0,0,1,"[{""page_index"":0,""viewing_time"":1363},{""page_index"":1,""viewing_time"":1241},{""page_index"":2,""viewing_time"":472},{""page_index"":3,""viewing_time"":791},{""page_index"":4,""viewing_time"":462},{""page_index"":5,""viewing_time"":564}]",4893.0,,,,,,,,,,,,,,,,,,,,,,,,,,,,,,
2,,rl_comprehension_check,,survey-multi-choice,2,24320,0.0-1.0-0.0-1.0,0,0,1,,4314.0,"{""Q0"":""True"",""Q1"":""True"",""Q2"":""pointer finger for left and middle finger for right""}",0.0,,,,,,,,,,,,,,,,,,,,,,,,,,,,
3,,,,html-keyboard-response,3,25397,0.0-1.0-1.0,0,0,1,,1074.0,,,50.0,,,,,,,,,,,,,,,,,,,,,,,,,,,
4,,rl_choice,,html-keyboard-response,4,26050,0.0-1.0-2.0,0,0,1,,650.0,,,50.0,0.0,0.0,1.0,easy,1500.0,3000.0,0.0,20.0,80.0,40.0,100.0,A,B,/static/Simple_RL/Stimuli/Fractals_stims/A.jpg,/static/Simple_RL/Stimuli/Fractals_stims/B.jpg,1.0,20.0,80.0,40.0,100.0,A,B,0.0,0.65,0.65,,
5,,rl_choice_confirmation,,html-keyboard-response,5,26902,0.0-1.0-3.0-0.0,0,0,1,,,,,,0.0,,,,,,,,,,,,,,,,,,,,,,,1.5,0.85,,
6,,isi,,html-keyboard-response,6,27003,0.0-1.0-5.0,0,0,1,,,,,,,,,,,,,,,,,,,,,,,,,,,,,4.5,3.0,,
7,,feedback,,html-keyboard-response,7,28008,0.0-1.0-6.0-0.0,0,0,1,,,,,,0.0,,,,,,,,,,,,,,,,,,,,,,,5.5,1.0,,
8,,iti,,html-keyboard-response,8,28110,0.0-1.0-7.0,0,0,1,,,,,,,,,,,,,,,,,,,,,,,,,,,,,7.0,1.5,,
9,,rl_choice,,html-keyboard-response,9,28578,0.0-1.0-9.0,0,0,1,,467.0,,,51.0,1.0,1.0,1.0,easy,1000.0,1000.0,0.0,20.0,80.0,0.0,80.0,A,B,/static/Simple_RL/Stimuli/Fractals_stims/A.jpg,/static/Simple_RL/Stimuli/Fractals_stims/B.jpg,0.0,80.0,20.0,80.0,0.0,B,A,0.0,7.4670000000000005,0.467,,
10,,rl_choice_confirmation,,html-keyboard-response,10,29615,0.0-1.0-10.0-0.0,0,0,1,,,,,,1.0,,,,,,,,,,,,,,,,,,,,,,,8.5,1.033,,
11,,isi,,html-keyboard-response,11,29716,0.0-1.0-12.0,0,0,1,,,,,,,,,,,,,,,,,,,,,,,,,,,,,9.5,1.0,,
12,,feedback,,html-keyboard-response,12,30719,0.0-1.0-13.0-0.0,0,0,1,,,,,,1.0,,,,,,,,,,,,,,,,,,,,,,,10.5,1.0,,
13,,iti,,html-keyboard-response,13,30821,0.0-1.0-14.0,0,0,1,,,,,,,,,,,,,,,,,,,,,,,,,,,,,11.5,1.0,,
14,,rl_choice,,html-keyboard-response,14,31221,0.0-1.0-16.0,0,0,1,,399.0,,,51.0,2.0,2.0,1.0,easy,1000.0,1500.0,0.0,20.0,80.0,20.0,60.0,A,B,/static/Simple_RL/Stimuli/Fractals_stims/A.jpg,/static/Simple_RL/Stimuli/Fractals_stims/B.jpg,0.0,80.0,20.0,60.0,20.0,B,A,0.0,11.899,0.39899999999999997,,
15,,rl_choice_confirmation,,html-keyboard-response,15,32325,0.0-1.0-17.0-0.0,0,0,1,,,,,,2.0,,,,,,,,,,,,,,,,,,,,,,,13.0,1.101,,
16,,isi,,html-keyboard-response,16,32430,0.0-1.0-19.0,0,0,1,,,,,,,,,,,,,,,,,,,,,,,,,,,,,14.5,1.5,,
17,,feedback,,html-keyboard-response,17,33434,0.0-1.0-20.0-0.0,0,0,1,,,,,,2.0,,,,,,,,,,,,,,,,,,,,,,,15.5,1.0,,
18,,iti,,html-keyboard-response,18,33535,0.0-1.0-21.0,0,0,1,,,,,,,,,,,,,,,,,,,,,,,,,,,,,16.5,1.0,,
19,,rl_choice,,html-keyboard-response,19,34445,0.0-1.0-23.0,0,0,1,,909.0,,,51.0,3.0,3.0,1.0,hard,1000.0,3000.0,1.0,60.0,40.0,60.0,20.0,D,C,/static/Simple_RL/Stimuli/Fractals_stims/D.jpg,/static/Simple_RL/Stimuli/Fractals_stims/C.jpg,0.0,40.0,60.0,20.0,60.0,C,D,0.0,17.409000000000002,0.909,,
20,,rl_choice_confirmation,,html-keyboard-response,20,35039,0.0-1.0-24.0-0.0,0,0,1,,,,,,3.0,,,,,,,,,,,,,,,,,,,,,,,18.0,0.591,,
21,,isi,,html-keyboard-response,21,35141,0.0-1.0-26.0,0,0,1,,,,,,,,,,,,,,,,,,,,,,,,,,,,,21.0,3.0,,
22,,feedback,,html-keyboard-response,22,36144,0.0-1.0-27.0-0.0,0,0,1,,,,,,3.0,,,,,,,,,,,,,,,,,,,,,,,22.0,1.0,,
23,,iti,,html-keyboard-response,23,36245,0.0-1.0-28.0,0,0,1,,,,,,,,,,,,,,,,,,,,,,,,,,,,,23.0,1.0,,
24,,rl_choice,,html-keyboard-response,24,36936,0.0-1.0-30.0,0,0,1,,690.0,,,51.0,4.0,4.0,1.0,easy,2000.0,1000.0,0.0,20.0,80.0,0.0,100.0,A,B,/static/Simple_RL/Stimuli/Fractals_stims/A.jpg,/static/Simple_RL/Stimuli/Fractals_stims/B.jpg,0.0,80.0,20.0,100.0,0.0,B,A,0.0,23.69,0.69,,
25,,rl_choice_confirmation,,html-keyboard-response,25,37749,0.0-1.0-31.0-0.0,0,0,1,,,,,,4.0,,,,,,,,,,,,,,,,,,,,,,,24.5,0.81,,
26,,isi,,html-keyboard-response,26,37850,0.0-1.0-33.0,0,0,1,,,,,,,,,,,,,,,,,,,,,,,,,,,,,25.5,1.0,,
27,,feedback,,html-keyboard-response,27,38852,0.0-1.0-34.0-0.0,0,0,1,,,,,,4.0,,,,,,,,,,,,,,,,,,,,,,,26.5,1.0,,
28,,iti,,html-keyboard-response,28,38954,0.0-1.0-35.0,0,0,1,,,,,,,,,,,,,,,,,,,,,,,,,,,,,28.5,2.0,,
29,,rl_choice,,html-keyboard-response,29,39458,0.0-1.0-37.0,0,0,1,,503.0,,,50.0,5.0,5.0,1.0,hard,1500.0,3500.0,0.0,40.0,60.0,20.0,60.0,C,D,/static/Simple_RL/Stimuli/Fractals_stims/C.jpg,/static/Simple_RL/Stimuli/Fractals_stims/D.jpg,1.0,40.0,60.0,20.0,60.0,C,D,0.0,29.003,0.503,,
30,,rl_choice_confirmation,,html-keyboard-response,30,40458,0.0-1.0-38.0-0.0,0,0,1,,,,,,5.0,,,,,,,,,,,,,,,,,,,,,,,30.0,0.997,,
31,,isi,,html-keyboard-response,31,40559,0.0-1.0-40.0,0,0,1,,,,,,,,,,,,,,,,,,,,,,,,,,,,,33.5,3.5,,
32,,feedback,,html-keyboard-response,32,41562,0.0-1.0-41.0-0.0,0,0,1,,,,,,5.0,,,,,,,,,,,,,,,,,,,,,,,34.5,1.0,,
33,,iti,,html-keyboard-response,33,41663,0.0-1.0-42.0,0,0,1,,,,,,,,,,,,,,,,,,,,,,,,,,,,,36.0,1.5,,
34,,rl_choice,,html-keyboard-response,34,42266,0.0-1.0-44.0,0,0,1,,601.0,,,50.0,6.0,6.0,1.0,easy,1000.0,1500.0,1.0,80.0,20.0,80.0,20.0,B,A,/static/Simple_RL/Stimuli/Fractals_stims/B.jpg,/static/Simple_RL/Stimuli/Fractals_stims/A.jpg,1.0,80.0,20.0,80.0,20.0,B,A,0.0,36.601,0.601,,
35,,rl_choice_confirmation,,html-keyboard-response,35,43167,0.0-1.0-45.0-0.0,0,0,1,,,,,,6.0,,,,,,,,,,,,,,,,,,,,,,,37.5,0.899,,
36,,isi,,html-keyboard-response,36,43269,0.0-1.0-47.0,0,0,1,,,,,,,,,,,,,,,,,,,,,,,,,,,,,39.0,1.5,,
37,,feedback,,html-keyboard-response,37,44272,0.0-1.0-48.0-0.0,0,0,1,,,,,,6.0,,,,,,,,,,,,,,,,,,,,,,,40.0,1.0,,
38,,iti,,html-keyboard-response,38,44373,0.0-1.0-49.0,0,0,1,,,,,,,,,,,,,,,,,,,,,,,,,,,,,41.0,1.0,,
39,,rl_choice,,html-keyboard-response,39,45385,0.0-1.0-51.0,0,0,1,,1010.0,,,50.0,7.0,7.0,1.0,easy,2000.0,1000.0,1.0,80.0,20.0,80.0,40.0,B,A,/static/Simple_RL/Stimuli/Fractals_stims/B.jpg,/static/Simple_RL/Stimuli/Fractals_stims/A.jpg,1.0,80.0,20.0,80.0,40.0,B,A,0.0,42.01,1.01,,
40,,rl_choice_confirmation,,html-keyboard-response,40,45877,0.0-1.0-52.0-0.0,0,0,1,,,,,,7.0,,,,,,,,,,,,,,,,,,,,,,,42.5,0.49,,
41,,isi,,html-keyboard-response,41,45978,0.0-1.0-54.0,0,0,1,,,,,,,,,,,,,,,,,,,,,,,,,,,,,43.5,1.0,,
42,,feedback,,html-keyboard-response,42,46982,0.0-1.0-55.0-0.0,0,0,1,,,,,,7.0,,,,,,,,,,,,,,,,,,,,,,,44.5,1.0,,
43,,iti,,html-keyboard-response,43,47087,0.0-1.0-56.0,0,0,1,,,,,,,,,,,,,,,,,,,,,,,,,,,,,46.5,2.0,,
44,,rl_choice,,html-keyboard-response,44,47614,0.0-1.0-58.0,0,0,1,,525.0,,,50.0,8.0,8.0,1.0,easy,2000.0,1000.0,1.0,80.0,20.0,60.0,20.0,B,A,/static/Simple_RL/Stimuli/Fractals_stims/B.jpg,/static/Simple_RL/Stimuli/Fractals_stims/A.jpg,1.0,80.0,20.0,60.0,20.0,B,A,0.0,47.025,0.525,,
45,,rl_choice_confirmation,,html-keyboard-response,45,48594,0.0-1.0-59.0-0.0,0,0,1,,,,,,8.0,,,,,,,,,,,,,,,,,,,,,,,48.0,0.975,,
46,,isi,,html-keyboard-response,46,48698,0.0-1.0-61.0,0,0,1,,,,,,,,,,,,,,,,,,,,,,,,,,,,,49.0,1.0,,
47,,feedback,,html-keyboard-response,47,49701,0.0-1.0-62.0-0.0,0,0,1,,,,,,8.0,,,,,,,,,,,,,,,,,,,,,,,50.0,1.0,,
48,,iti,,html-keyboard-response,48,49802,0.0-1.0-63.0,0,0,1,,,,,,,,,,,,,,,,,,,,,,,,,,,,,52.0,2.0,,
49,,rl_choice,,html-keyboard-response,49,50375,0.0-1.0-65.0,0,0,1,,572.0,,,51.0,9.0,9.0,1.0,easy,3000.0,2000.0,0.0,20.0,80.0,0.0,80.0,A,B,/static/Simple_RL/Stimuli/Fractals_stims/A.jpg,/static/Simple_RL/Stimuli/Fractals_stims/B.jpg,0.0,80.0,20.0,80.0,0.0,B,A,0.0,52.571999999999996,0.5720000000000001,,
50,,rl_choice_confirmation,,html-keyboard-response,50,51306,0.0-1.0-66.0-0.0,0,0,1,,,,,,9.0,,,,,,,,,,,,,,,,,,,,,,,53.5,0.9279999999999999,,
51,,isi,,html-keyboard-response,51,51407,0.0-1.0-68.0,0,0,1,,,,,,,,,,,,,,,,,,,,,,,,,,,,,55.5,2.0,,
52,,feedback,,html-keyboard-response,52,52410,0.0-1.0-69.0-0.0,0,0,1,,,,,,9.0,,,,,,,,,,,,,,,,,,,,,,,56.5,1.0,,
53,,iti,,html-keyboard-response,53,52513,0.0-1.0-70.0,0,0,1,,,,,,,,,,,,,,,,,,,,,,,,,,,,,59.5,3.0,,
54,,rl_choice,,html-keyboard-response,54,53257,0.0-1.0-72.0,0,0,1,,743.0,,,50.0,10.0,10.0,1.0,easy,1500.0,1000.0,1.0,80.0,20.0,60.0,0.0,B,A,/static/Simple_RL/Stimuli/Fractals_stims/B.jpg,/static/Simple_RL/Stimuli/Fractals_stims/A.jpg,1.0,80.0,20.0,60.0,0.0,B,A,0.0,60.243,0.743,,
55,,rl_choice_confirmation,,html-keyboard-response,55,54018,0.0-1.0-73.0-0.0,0,0,1,,,,,,10.0,,,,,,,,,,,,,,,,,,,,,,,61.0,0.757,,
56,,isi,,html-keyboard-response,56,54122,0.0-1.0-75.0,0,0,1,,,,,,,,,,,,,,,,,,,,,,,,,,,,,62.0,1.0,,
57,,feedback,,html-keyboard-response,57,55127,0.0-1.0-76.0-0.0,0,0,1,,,,,,10.0,,,,,,,,,,,,,,,,,,,,,,,63.0,1.0,,
58,,iti,,html-keyboard-response,58,55231,0.0-1.0-77.0,0,0,1,,,,,,,,,,,,,,,,,,,,,,,,,,,,,64.5,1.5,,
59,,rl_choice,,html-keyboard-response,59,55758,0.0-1.0-79.0,0,0,1,,526.0,,,51.0,11.0,11.0,1.0,hard,3000.0,1500.0,0.0,40.0,60.0,20.0,60.0,C,D,/static/Simple_RL/Stimuli/Fractals_stims/C.jpg,/static/Simple_RL/Stimuli/Fractals_stims/D.jpg,0.0,60.0,40.0,60.0,20.0,D,C,0.0,65.02600000000001,0.526,,
60,,rl_choice_confirmation,,html-keyboard-response,60,56735,0.0-1.0-80.0-0.0,0,0,1,,,,,,11.0,,,,,,,,,,,,,,,,,,,,,,,66.0,0.9740000000000001,,
61,,isi,,html-keyboard-response,61,56837,0.0-1.0-82.0,0,0,1,,,,,,,,,,,,,,,,,,,,,,,,,,,,,67.5,1.5,,
62,,feedback,,html-keyboard-response,62,57839,0.0-1.0-83.0-0.0,0,0,1,,,,,,11.0,,,,,,,,,,,,,,,,,,,,,,,68.5,1.0,,
63,,iti,,html-keyboard-response,63,57941,0.0-1.0-84.0,0,0,1,,,,,,,,,,,,,,,,,,,,,,,,,,,,,71.5,3.0,,
64,,rl_choice,,html-keyboard-response,64,58479,0.0-1.0-86.0,0,0,1,,536.0,,,50.0,12.0,12.0,1.0,hard,1000.0,2000.0,1.0,60.0,40.0,40.0,60.0,D,C,/static/Simple_RL/Stimuli/Fractals_stims/D.jpg,/static/Simple_RL/Stimuli/Fractals_stims/C.jpg,1.0,60.0,40.0,40.0,60.0,D,C,0.0,72.036,0.536,,
65,,rl_choice_confirmation,,html-keyboard-response,65,59444,0.0-1.0-87.0-0.0,0,0,1,,,,,,12.0,,,,,,,,,,,,,,,,,,,,,,,73.0,0.9640000000000001,,
66,,isi,,html-keyboard-response,66,59548,0.0-1.0-89.0,0,0,1,,,,,,,,,,,,,,,,,,,,,,,,,,,,,75.0,2.0,,
67,,feedback,,html-keyboard-response,67,60553,0.0-1.0-90.0-0.0,0,0,1,,,,,,12.0,,,,,,,,,,,,,,,,,,,,,,,76.0,1.0,,
68,,iti,,html-keyboard-response,68,60658,0.0-1.0-91.0,0,0,1,,,,,,,,,,,,,,,,,,,,,,,,,,,,,77.0,1.0,,
69,,rl_choice,,html-keyboard-response,69,61143,0.0-1.0-93.0,0,0,1,,483.0,,,50.0,13.0,13.0,1.0,hard,1000.0,1000.0,1.0,60.0,40.0,60.0,40.0,D,C,/static/Simple_RL/Stimuli/Fractals_stims/D.jpg,/static/Simple_RL/Stimuli/Fractals_stims/C.jpg,1.0,60.0,40.0,60.0,40.0,D,C,0.0,77.483,0.483,,
70,,rl_choice_confirmation,,html-keyboard-response,70,62164,0.0-1.0-94.0-0.0,0,0,1,,,,,,13.0,,,,,,,,,,,,,,,,,,,,,,,78.5,1.0170000000000001,,
71,,isi,,html-keyboard-response,71,62270,0.0-1.0-96.0,0,0,1,,,,,,,,,,,,,,,,,,,,,,,,,,,,,79.5,1.0,,
72,,feedback,,html-keyboard-response,72,63274,0.0-1.0-97.0-0.0,0,0,1,,,,,,13.0,,,,,,,,,,,,,,,,,,,,,,,80.5,1.0,,
73,,iti,,html-keyboard-response,73,63377,0.0-1.0-98.0,0,0,1,,,,,,,,,,,,,,,,,,,,,,,,,,,,,81.5,1.0,,
74,,rl_choice,,html-keyboard-response,74,63924,0.0-1.0-100.0,0,0,1,,545.0,,,50.0,14.0,14.0,1.0,hard,1500.0,1000.0,1.0,60.0,40.0,40.0,60.0,D,C,/static/Simple_RL/Stimuli/Fractals_stims/D.jpg,/static/Simple_RL/Stimuli/Fractals_stims/C.jpg,1.0,60.0,40.0,40.0,60.0,D,C,0.0,82.045,0.545,,
75,,rl_choice_confirmation,,html-keyboard-response,75,64880,0.0-1.0-101.0-0.0,0,0,1,,,,,,14.0,,,,,,,,,,,,,,,,,,,,,,,83.0,0.955,,
76,,isi,,html-keyboard-response,76,64986,0.0-1.0-103.0,0,0,1,,,,,,,,,,,,,,,,,,,,,,,,,,,,,84.0,1.0,,
77,,feedback,,html-keyboard-response,77,65988,0.0-1.0-104.0-0.0,0,0,1,,,,,,14.0,,,,,,,,,,,,,,,,,,,,,,,85.0,1.0,,
78,,iti,,html-keyboard-response,78,66090,0.0-1.0-105.0,0,0,1,,,,,,,,,,,,,,,,,,,,,,,,,,,,,86.5,1.5,,
79,,rl_choice,,html-keyboard-response,79,66548,0.0-1.0-107.0,0,0,1,,457.0,,,50.0,15.0,15.0,1.0,hard,1000.0,3000.0,1.0,60.0,40.0,40.0,40.0,D,C,/static/Simple_RL/Stimuli/Fractals_stims/D.jpg,/static/Simple_RL/Stimuli/Fractals_stims/C.jpg,1.0,60.0,40.0,40.0,40.0,D,C,0.0,86.95700000000001,0.457,,
80,,rl_choice_confirmation,,html-keyboard-response,80,67594,0.0-1.0-108.0-0.0,0,0,1,,,,,,15.0,,,,,,,,,,,,,,,,,,,,,,,88.0,1.043,,
81,,isi,,html-keyboard-response,81,67695,0.0-1.0-110.0,0,0,1,,,,,,,,,,,,,,,,,,,,,,,,,,,,,91.0,3.0,,
82,,feedback,,html-keyboard-response,82,68697,0.0-1.0-111.0-0.0,0,0,1,,,,,,15.0,,,,,,,,,,,,,,,,,,,,,,,92.0,1.0,,
83,,iti,,html-keyboard-response,83,68799,0.0-1.0-112.0,0,0,1,,,,,,,,,,,,,,,,,,,,,,,,,,,,,93.0,1.0,,
84,,rl_choice,,html-keyboard-response,84,69333,0.0-1.0-114.0,0,0,1,,532.0,,,51.0,16.0,16.0,1.0,hard,2000.0,1500.0,1.0,60.0,40.0,40.0,40.0,D,C,/static/Simple_RL/Stimuli/Fractals_stims/D.jpg,/static/Simple_RL/Stimuli/Fractals_stims/C.jpg,0.0,40.0,60.0,40.0,40.0,C,D,0.0,93.53200000000001,0.532,,
85,,rl_choice_confirmation,,html-keyboard-response,85,70303,0.0-1.0-115.0-0.0,0,0,1,,,,,,16.0,,,,,,,,,,,,,,,,,,,,,,,94.5,0.968,,
86,,isi,,html-keyboard-response,86,70404,0.0-1.0-117.0,0,0,1,,,,,,,,,,,,,,,,,,,,,,,,,,,,,96.0,1.5,,
87,,feedback,,html-keyboard-response,87,71407,0.0-1.0-118.0-0.0,0,0,1,,,,,,16.0,,,,,,,,,,,,,,,,,,,,,,,97.0,1.0,,
88,,iti,,html-keyboard-response,88,71508,0.0-1.0-119.0,0,0,1,,,,,,,,,,,,,,,,,,,,,,,,,,,,,99.0,2.0,,
89,,rl_choice,,html-keyboard-response,89,72274,0.0-1.0-121.0,0,0,1,,764.0,,,50.0,17.0,17.0,1.0,easy,1000.0,2000.0,1.0,80.0,20.0,80.0,40.0,B,A,/static/Simple_RL/Stimuli/Fractals_stims/B.jpg,/static/Simple_RL/Stimuli/Fractals_stims/A.jpg,1.0,80.0,20.0,80.0,40.0,B,A,0.0,99.764,0.764,,
90,,rl_choice_confirmation,,html-keyboard-response,90,73012,0.0-1.0-122.0-0.0,0,0,1,,,,,,17.0,,,,,,,,,,,,,,,,,,,,,,,100.5,0.736,,
91,,isi,,html-keyboard-response,91,73114,0.0-1.0-124.0,0,0,1,,,,,,,,,,,,,,,,,,,,,,,,,,,,,102.5,2.0,,
92,,feedback,,html-keyboard-response,92,74116,0.0-1.0-125.0-0.0,0,0,1,,,,,,17.0,,,,,,,,,,,,,,,,,,,,,,,103.5,1.0,,
93,,iti,,html-keyboard-response,93,74222,0.0-1.0-126.0,0,0,1,,,,,,,,,,,,,,,,,,,,,,,,,,,,,104.5,1.0,,
94,,rl_choice,,html-keyboard-response,94,74657,0.0-1.0-128.0,0,0,1,,434.0,,,50.0,18.0,18.0,1.0,hard,2000.0,2000.0,0.0,40.0,60.0,20.0,80.0,C,D,/static/Simple_RL/Stimuli/Fractals_stims/C.jpg,/static/Simple_RL/Stimuli/Fractals_stims/D.jpg,1.0,40.0,60.0,20.0,80.0,C,D,0.0,104.934,0.434,,
95,,rl_choice_confirmation,,html-keyboard-response,95,75727,0.0-1.0-129.0-0.0,0,0,1,,,,,,18.0,,,,,,,,,,,,,,,,,,,,,,,106.0,1.0659999999999998,,
96,,isi,,html-keyboard-response,96,75832,0.0-1.0-131.0,0,0,1,,,,,,,,,,,,,,,,,,,,,,,,,,,,,108.0,2.0,,
97,,feedback,,html-keyboard-response,97,76836,0.0-1.0-132.0-0.0,0,0,1,,,,,,18.0,,,,,,,,,,,,,,,,,,,,,,,109.0,1.0,,
98,,iti,,html-keyboard-response,98,76937,0.0-1.0-133.0,0,0,1,,,,,,,,,,,,,,,,,,,,,,,,,,,,,111.0,2.0,,
99,,rl_choice,,html-keyboard-response,99,77370,0.0-1.0-135.0,0,0,1,,432.0,,,51.0,19.0,19.0,1.0,hard,1500.0,2000.0,0.0,40.0,60.0,20.0,80.0,C,D,/static/Simple_RL/Stimuli/Fractals_stims/C.jpg,/static/Simple_RL/Stimuli/Fractals_stims/D.jpg,0.0,60.0,40.0,80.0,20.0,D,C,0.0,111.432,0.43200000000000005,,
100,,rl_choice_confirmation,,html-keyboard-response,100,78441,0.0-1.0-136.0-0.0,0,0,1,,,,,,19.0,,,,,,,,,,,,,,,,,,,,,,,112.5,1.068,,
101,,isi,,html-keyboard-response,101,78543,0.0-1.0-138.0,0,0,1,,,,,,,,,,,,,,,,,,,,,,,,,,,,,114.5,2.0,,
102,,feedback,,html-keyboard-response,102,79547,0.0-1.0-139.0-0.0,0,0,1,,,,,,19.0,,,,,,,,,,,,,,,,,,,,,,,115.5,1.0,,
103,,iti,,html-keyboard-response,103,79652,0.0-1.0-140.0,0,0,1,,,,,,,,,,,,,,,,,,,,,,,,,,,,,117.0,1.5,,
104,,rl_choice,,html-keyboard-response,104,80182,0.0-1.0-142.0,0,0,1,,529.0,,,50.0,20.0,20.0,1.0,hard,1000.0,1000.0,1.0,60.0,40.0,40.0,40.0,D,C,/static/Simple_RL/Stimuli/Fractals_stims/D.jpg,/static/Simple_RL/Stimuli/Fractals_stims/C.jpg,1.0,60.0,40.0,40.0,40.0,D,C,0.0,117.529,0.529,,
105,,rl_choice_confirmation,,html-keyboard-response,105,81156,0.0-1.0-143.0-0.0,0,0,1,,,,,,20.0,,,,,,,,,,,,,,,,,,,,,,,118.5,0.971,,
106,,isi,,html-keyboard-response,106,81258,0.0-1.0-145.0,0,0,1,,,,,,,,,,,,,,,,,,,,,,,,,,,,,119.5,1.0,,
107,,feedback,,html-keyboard-response,107,82260,0.0-1.0-146.0-0.0,0,0,1,,,,,,20.0,,,,,,,,,,,,,,,,,,,,,,,120.5,1.0,,
108,,iti,,html-keyboard-response,108,82364,0.0-1.0-147.0,0,0,1,,,,,,,,,,,,,,,,,,,,,,,,,,,,,121.5,1.0,,
109,,rl_choice,,html-keyboard-response,109,83092,0.0-1.0-149.0,0,0,1,,726.0,,,50.0,21.0,21.0,1.0,easy,1500.0,2000.0,1.0,80.0,20.0,100.0,20.0,B,A,/static/Simple_RL/Stimuli/Fractals_stims/B.jpg,/static/Simple_RL/Stimuli/Fractals_stims/A.jpg,1.0,80.0,20.0,100.0,20.0,B,A,0.0,122.226,0.726,,
110,,rl_choice_confirmation,,html-keyboard-response,110,83871,0.0-1.0-150.0-0.0,0,0,1,,,,,,21.0,,,,,,,,,,,,,,,,,,,,,,,123.0,0.774,,
111,,isi,,html-keyboard-response,111,83972,0.0-1.0-152.0,0,0,1,,,,,,,,,,,,,,,,,,,,,,,,,,,,,125.0,2.0,,
112,,feedback,,html-keyboard-response,112,84975,0.0-1.0-153.0-0.0,0,0,1,,,,,,21.0,,,,,,,,,,,,,,,,,,,,,,,126.0,1.0,,
113,,iti,,html-keyboard-response,113,85076,0.0-1.0-154.0,0,0,1,,,,,,,,,,,,,,,,,,,,,,,,,,,,,127.5,1.5,,
114,,rl_choice,,html-keyboard-response,114,86142,0.0-1.0-156.0,0,0,1,,1065.0,,,50.0,22.0,22.0,1.0,hard,1500.0,1000.0,1.0,60.0,40.0,40.0,40.0,D,C,/static/Simple_RL/Stimuli/Fractals_stims/D.jpg,/static/Simple_RL/Stimuli/Fractals_stims/C.jpg,1.0,60.0,40.0,40.0,40.0,D,C,0.0,128.565,1.065,,
115,,rl_choice_confirmation,,html-keyboard-response,115,86580,0.0-1.0-157.0-0.0,0,0,1,,,,,,22.0,,,,,,,,,,,,,,,,,,,,,,,129.0,0.435,,
116,,isi,,html-keyboard-response,116,86681,0.0-1.0-159.0,0,0,1,,,,,,,,,,,,,,,,,,,,,,,,,,,,,130.0,1.0,,
117,,feedback,,html-keyboard-response,117,87684,0.0-1.0-160.0-0.0,0,0,1,,,,,,22.0,,,,,,,,,,,,,,,,,,,,,,,131.0,1.0,,
118,,iti,,html-keyboard-response,118,87785,0.0-1.0-161.0,0,0,1,,,,,,,,,,,,,,,,,,,,,,,,,,,,,132.5,1.5,,
119,,rl_choice,,html-keyboard-response,119,88178,0.0-1.0-163.0,0,0,1,,392.0,,,51.0,23.0,23.0,1.0,easy,1000.0,1500.0,0.0,20.0,80.0,0.0,80.0,A,B,/static/Simple_RL/Stimuli/Fractals_stims/A.jpg,/static/Simple_RL/Stimuli/Fractals_stims/B.jpg,0.0,80.0,20.0,80.0,0.0,B,A,0.0,132.892,0.392,,
120,,rl_choice_confirmation,,html-keyboard-response,120,89289,0.0-1.0-164.0-0.0,0,0,1,,,,,,23.0,,,,,,,,,,,,,,,,,,,,,,,134.0,1.1079999999999999,,
121,,isi,,html-keyboard-response,121,89394,0.0-1.0-166.0,0,0,1,,,,,,,,,,,,,,,,,,,,,,,,,,,,,135.5,1.5,,
122,,feedback,,html-keyboard-response,122,90399,0.0-1.0-167.0-0.0,0,0,1,,,,,,23.0,,,,,,,,,,,,,,,,,,,,,,,136.5,1.0,,
123,,iti,,html-keyboard-response,123,90502,0.0-1.0-168.0,0,0,1,,,,,,,,,,,,,,,,,,,,,,,,,,,,,137.5,1.0,,
124,,rl_choice,,html-keyboard-response,124,91031,0.0-1.0-170.0,0,0,1,,527.0,,,50.0,24.0,24.0,1.0,hard,3000.0,2000.0,1.0,60.0,40.0,80.0,20.0,D,C,/static/Simple_RL/Stimuli/Fractals_stims/D.jpg,/static/Simple_RL/Stimuli/Fractals_stims/C.jpg,1.0,60.0,40.0,80.0,20.0,D,C,0.0,138.02700000000002,0.527,,
125,,rl_choice_confirmation,,html-keyboard-response,125,92009,0.0-1.0-171.0-0.0,0,0,1,,,,,,24.0,,,,,,,,,,,,,,,,,,,,,,,139.0,0.973,,
126,,isi,,html-keyboard-response,126,92113,0.0-1.0-173.0,0,0,1,,,,,,,,,,,,,,,,,,,,,,,,,,,,,141.0,2.0,,
127,,feedback,,html-keyboard-response,127,93119,0.0-1.0-174.0-0.0,0,0,1,,,,,,24.0,,,,,,,,,,,,,,,,,,,,,,,142.0,1.0,,
128,,iti,,html-keyboard-response,128,93223,0.0-1.0-175.0,0,0,1,,,,,,,,,,,,,,,,,,,,,,,,,,,,,145.0,3.0,,
129,,rl_choice,,html-keyboard-response,129,93850,0.0-1.0-177.0,0,0,1,,626.0,,,50.0,25.0,25.0,1.0,hard,1000.0,1500.0,1.0,60.0,40.0,60.0,60.0,D,C,/static/Simple_RL/Stimuli/Fractals_stims/D.jpg,/static/Simple_RL/Stimuli/Fractals_stims/C.jpg,1.0,60.0,40.0,60.0,60.0,D,C,0.0,145.626,0.626,,
130,,rl_choice_confirmation,,html-keyboard-response,130,94729,0.0-1.0-178.0-0.0,0,0,1,,,,,,25.0,,,,,,,,,,,,,,,,,,,,,,,146.5,0.8740000000000001,,
131,,isi,,html-keyboard-response,131,94831,0.0-1.0-180.0,0,0,1,,,,,,,,,,,,,,,,,,,,,,,,,,,,,148.0,1.5,,
132,,feedback,,html-keyboard-response,132,95835,0.0-1.0-181.0-0.0,0,0,1,,,,,,25.0,,,,,,,,,,,,,,,,,,,,,,,149.0,1.0,,
133,,iti,,html-keyboard-response,133,95940,0.0-1.0-182.0,0,0,1,,,,,,,,,,,,,,,,,,,,,,,,,,,,,150.0,1.0,,
134,,rl_choice,,html-keyboard-response,134,96538,0.0-1.0-184.0,0,0,1,,597.0,,,50.0,26.0,26.0,1.0,hard,1500.0,1000.0,1.0,60.0,40.0,80.0,60.0,D,C,/static/Simple_RL/Stimuli/Fractals_stims/D.jpg,/static/Simple_RL/Stimuli/Fractals_stims/C.jpg,1.0,60.0,40.0,80.0,60.0,D,C,0.0,150.597,0.597,,
135,,rl_choice_confirmation,,html-keyboard-response,135,97444,0.0-1.0-185.0-0.0,0,0,1,,,,,,26.0,,,,,,,,,,,,,,,,,,,,,,,151.5,0.903,,
136,,isi,,html-keyboard-response,136,97547,0.0-1.0-187.0,0,0,1,,,,,,,,,,,,,,,,,,,,,,,,,,,,,152.5,1.0,,
137,,feedback,,html-keyboard-response,137,98553,0.0-1.0-188.0-0.0,0,0,1,,,,,,26.0,,,,,,,,,,,,,,,,,,,,,,,153.5,1.0,,
138,,iti,,html-keyboard-response,138,98656,0.0-1.0-189.0,0,0,1,,,,,,,,,,,,,,,,,,,,,,,,,,,,,155.0,1.5,,
139,,rl_choice,,html-keyboard-response,139,99531,0.0-1.0-191.0,0,0,1,,874.0,,,50.0,27.0,27.0,1.0,easy,1500.0,2000.0,1.0,80.0,20.0,80.0,0.0,B,A,/static/Simple_RL/Stimuli/Fractals_stims/B.jpg,/static/Simple_RL/Stimuli/Fractals_stims/A.jpg,1.0,80.0,20.0,80.0,0.0,B,A,0.0,155.874,0.8740000000000001,,
140,,rl_choice_confirmation,,html-keyboard-response,140,100161,0.0-1.0-192.0-0.0,0,0,1,,,,,,27.0,,,,,,,,,,,,,,,,,,,,,,,156.5,0.626,,
141,,isi,,html-keyboard-response,141,100265,0.0-1.0-194.0,0,0,1,,,,,,,,,,,,,,,,,,,,,,,,,,,,,158.5,2.0,,
142,,feedback,,html-keyboard-response,142,101268,0.0-1.0-195.0-0.0,0,0,1,,,,,,27.0,,,,,,,,,,,,,,,,,,,,,,,159.5,1.0,,
143,,iti,,html-keyboard-response,143,101369,0.0-1.0-196.0,0,0,1,,,,,,,,,,,,,,,,,,,,,,,,,,,,,161.0,1.5,,
144,,rl_choice,,html-keyboard-response,144,102258,0.0-1.0-198.0,0,0,1,,888.0,,,51.0,28.0,28.0,1.0,easy,3500.0,3500.0,0.0,20.0,80.0,0.0,100.0,A,B,/static/Simple_RL/Stimuli/Fractals_stims/A.jpg,/static/Simple_RL/Stimuli/Fractals_stims/B.jpg,0.0,80.0,20.0,100.0,0.0,B,A,0.0,161.888,0.888,,
145,,rl_choice_confirmation,,html-keyboard-response,145,102873,0.0-1.0-199.0-0.0,0,0,1,,,,,,28.0,,,,,,,,,,,,,,,,,,,,,,,162.5,0.612,,
146,,isi,,html-keyboard-response,146,102974,0.0-1.0-201.0,0,0,1,,,,,,,,,,,,,,,,,,,,,,,,,,,,,166.0,3.5,,
147,,feedback,,html-keyboard-response,147,103977,0.0-1.0-202.0-0.0,0,0,1,,,,,,28.0,,,,,,,,,,,,,,,,,,,,,,,167.0,1.0,,
148,,iti,,html-keyboard-response,148,104078,0.0-1.0-203.0,0,0,1,,,,,,,,,,,,,,,,,,,,,,,,,,,,,170.5,3.5,,
149,,rl_choice,,html-keyboard-response,149,104885,0.0-1.0-205.0,0,0,1,,806.0,,,51.0,29.0,29.0,1.0,hard,2000.0,1000.0,0.0,40.0,60.0,40.0,60.0,C,D,/static/Simple_RL/Stimuli/Fractals_stims/C.jpg,/static/Simple_RL/Stimuli/Fractals_stims/D.jpg,0.0,60.0,40.0,60.0,40.0,D,C,0.0,171.30599999999998,0.8059999999999999,,
150,,rl_choice_confirmation,,html-keyboard-response,150,105582,0.0-1.0-206.0-0.0,0,0,1,,,,,,29.0,,,,,,,,,,,,,,,,,,,,,,,172.0,0.6940000000000001,,
151,,isi,,html-keyboard-response,151,105684,0.0-1.0-208.0,0,0,1,,,,,,,,,,,,,,,,,,,,,,,,,,,,,173.0,1.0,,
152,,feedback,,html-keyboard-response,152,106686,0.0-1.0-209.0-0.0,0,0,1,,,,,,29.0,,,,,,,,,,,,,,,,,,,,,,,174.0,1.0,,
153,,iti,,html-keyboard-response,153,106790,0.0-1.0-210.0,0,0,1,,,,,,,,,,,,,,,,,,,,,,,,,,,,,176.0,2.0,,
154,,rl_choice,,html-keyboard-response,154,107699,0.0-1.0-212.0,0,0,1,,907.0,,,51.0,30.0,30.0,1.0,easy,1000.0,1000.0,0.0,20.0,80.0,20.0,80.0,A,B,/static/Simple_RL/Stimuli/Fractals_stims/A.jpg,/static/Simple_RL/Stimuli/Fractals_stims/B.jpg,0.0,80.0,20.0,80.0,20.0,B,A,0.0,176.907,0.907,,
155,,rl_choice_confirmation,,html-keyboard-response,155,108297,0.0-1.0-213.0-0.0,0,0,1,,,,,,30.0,,,,,,,,,,,,,,,,,,,,,,,177.5,0.593,,
156,,isi,,html-keyboard-response,156,108398,0.0-1.0-215.0,0,0,1,,,,,,,,,,,,,,,,,,,,,,,,,,,,,178.5,1.0,,
157,,feedback,,html-keyboard-response,157,109401,0.0-1.0-216.0-0.0,0,0,1,,,,,,30.0,,,,,,,,,,,,,,,,,,,,,,,179.5,1.0,,
158,,iti,,html-keyboard-response,158,109502,0.0-1.0-217.0,0,0,1,,,,,,,,,,,,,,,,,,,,,,,,,,,,,180.5,1.0,,
159,,rl_choice,,html-keyboard-response,159,110329,0.0-1.0-219.0,0,0,1,,826.0,,,51.0,31.0,31.0,1.0,hard,1000.0,1500.0,0.0,40.0,60.0,20.0,60.0,C,D,/static/Simple_RL/Stimuli/Fractals_stims/C.jpg,/static/Simple_RL/Stimuli/Fractals_stims/D.jpg,0.0,60.0,40.0,60.0,20.0,D,C,0.0,181.326,0.826,,
160,,rl_choice_confirmation,,html-keyboard-response,160,111008,0.0-1.0-220.0-0.0,0,0,1,,,,,,31.0,,,,,,,,,,,,,,,,,,,,,,,182.0,0.674,,
161,,isi,,html-keyboard-response,161,111113,0.0-1.0-222.0,0,0,1,,,,,,,,,,,,,,,,,,,,,,,,,,,,,183.5,1.5,,
162,,feedback,,html-keyboard-response,162,112116,0.0-1.0-223.0-0.0,0,0,1,,,,,,31.0,,,,,,,,,,,,,,,,,,,,,,,184.5,1.0,,
163,,iti,,html-keyboard-response,163,112217,0.0-1.0-224.0,0,0,1,,,,,,,,,,,,,,,,,,,,,,,,,,,,,185.5,1.0,,
164,,rl_choice,,html-keyboard-response,164,113066,0.0-1.0-226.0,0,0,1,,847.0,,,50.0,32.0,32.0,1.0,easy,1500.0,1000.0,1.0,80.0,20.0,100.0,20.0,B,A,/static/Simple_RL/Stimuli/Fractals_stims/B.jpg,/static/Simple_RL/Stimuli/Fractals_stims/A.jpg,1.0,80.0,20.0,100.0,20.0,B,A,0.0,186.347,0.847,,
165,,rl_choice_confirmation,,html-keyboard-response,165,113721,0.0-1.0-227.0-0.0,0,0,1,,,,,,32.0,,,,,,,,,,,,,,,,,,,,,,,187.0,0.653,,
166,,isi,,html-keyboard-response,166,113822,0.0-1.0-229.0,0,0,1,,,,,,,,,,,,,,,,,,,,,,,,,,,,,188.0,1.0,,
167,,feedback,,html-keyboard-response,167,114825,0.0-1.0-230.0-0.0,0,0,1,,,,,,32.0,,,,,,,,,,,,,,,,,,,,,,,189.0,1.0,,
168,,iti,,html-keyboard-response,168,114929,0.0-1.0-231.0,0,0,1,,,,,,,,,,,,,,,,,,,,,,,,,,,,,190.5,1.5,,
169,,rl_choice,,html-keyboard-response,169,115570,0.0-1.0-233.0,0,0,1,,640.0,,,50.0,33.0,33.0,1.0,easy,3000.0,3000.0,1.0,80.0,20.0,60.0,40.0,B,A,/static/Simple_RL/Stimuli/Fractals_stims/B.jpg,/static/Simple_RL/Stimuli/Fractals_stims/A.jpg,1.0,80.0,20.0,60.0,40.0,B,A,0.0,191.14,0.64,,
170,,rl_choice_confirmation,,html-keyboard-response,170,116436,0.0-1.0-234.0-0.0,0,0,1,,,,,,33.0,,,,,,,,,,,,,,,,,,,,,,,192.0,0.86,,
171,,isi,,html-keyboard-response,171,116537,0.0-1.0-236.0,0,0,1,,,,,,,,,,,,,,,,,,,,,,,,,,,,,195.0,3.0,,
172,,feedback,,html-keyboard-response,172,117540,0.0-1.0-237.0-0.0,0,0,1,,,,,,33.0,,,,,,,,,,,,,,,,,,,,,,,196.0,1.0,,
173,,iti,,html-keyboard-response,173,117641,0.0-1.0-238.0,0,0,1,,,,,,,,,,,,,,,,,,,,,,,,,,,,,199.0,3.0,,
174,,rl_choice,,html-keyboard-response,174,118390,0.0-1.0-240.0,0,0,1,,749.0,,,51.0,34.0,34.0,1.0,easy,1000.0,1000.0,0.0,20.0,80.0,20.0,60.0,A,B,/static/Simple_RL/Stimuli/Fractals_stims/A.jpg,/static/Simple_RL/Stimuli/Fractals_stims/B.jpg,0.0,80.0,20.0,60.0,20.0,B,A,0.0,199.74900000000002,0.7490000000000001,,
175,,rl_choice_confirmation,,html-keyboard-response,175,119145,0.0-1.0-241.0-0.0,0,0,1,,,,,,34.0,,,,,,,,,,,,,,,,,,,,,,,200.5,0.7509999999999999,,
176,,isi,,html-keyboard-response,176,119251,0.0-1.0-243.0,0,0,1,,,,,,,,,,,,,,,,,,,,,,,,,,,,,201.5,1.0,,
177,,feedback,,html-keyboard-response,177,120254,0.0-1.0-244.0-0.0,0,0,1,,,,,,34.0,,,,,,,,,,,,,,,,,,,,,,,202.5,1.0,,
178,,iti,,html-keyboard-response,178,120356,0.0-1.0-245.0,0,0,1,,,,,,,,,,,,,,,,,,,,,,,,,,,,,203.5,1.0,,
179,,rl_choice,,html-keyboard-response,179,120947,0.0-1.0-247.0,0,0,1,,590.0,,,51.0,35.0,35.0,1.0,hard,3500.0,1000.0,0.0,40.0,60.0,20.0,80.0,C,D,/static/Simple_RL/Stimuli/Fractals_stims/C.jpg,/static/Simple_RL/Stimuli/Fractals_stims/D.jpg,0.0,60.0,40.0,80.0,20.0,D,C,0.0,204.09,0.59,,
180,,rl_choice_confirmation,,html-keyboard-response,180,121860,0.0-1.0-248.0-0.0,0,0,1,,,,,,35.0,,,,,,,,,,,,,,,,,,,,,,,205.0,0.91,,
181,,isi,,html-keyboard-response,181,121966,0.0-1.0-250.0,0,0,1,,,,,,,,,,,,,,,,,,,,,,,,,,,,,206.0,1.0,,
182,,feedback,,html-keyboard-response,182,122968,0.0-1.0-251.0-0.0,0,0,1,,,,,,35.0,,,,,,,,,,,,,,,,,,,,,,,207.0,1.0,,
183,,iti,,html-keyboard-response,183,123070,0.0-1.0-252.0,0,0,1,,,,,,,,,,,,,,,,,,,,,,,,,,,,,210.5,3.5,,
184,,rl_choice,,html-keyboard-response,184,123551,0.0-1.0-254.0,0,0,1,,478.0,,,50.0,36.0,36.0,1.0,easy,1000.0,1500.0,1.0,80.0,20.0,100.0,0.0,B,A,/static/Simple_RL/Stimuli/Fractals_stims/B.jpg,/static/Simple_RL/Stimuli/Fractals_stims/A.jpg,1.0,80.0,20.0,100.0,0.0,B,A,0.0,210.97799999999998,0.478,,
185,,rl_choice_confirmation,,html-keyboard-response,185,124576,0.0-1.0-255.0-0.0,0,0,1,,,,,,36.0,,,,,,,,,,,,,,,,,,,,,,,212.0,1.022,,
186,,isi,,html-keyboard-response,186,124680,0.0-1.0-257.0,0,0,1,,,,,,,,,,,,,,,,,,,,,,,,,,,,,213.5,1.5,,
187,,feedback,,html-keyboard-response,187,125683,0.0-1.0-258.0-0.0,0,0,1,,,,,,36.0,,,,,,,,,,,,,,,,,,,,,,,214.5,1.0,,
188,,iti,,html-keyboard-response,188,125785,0.0-1.0-259.0,0,0,1,,,,,,,,,,,,,,,,,,,,,,,,,,,,,215.5,1.0,,
189,,rl_choice,,html-keyboard-response,189,126453,0.0-1.0-261.0,0,0,1,,667.0,,,51.0,37.0,37.0,1.0,hard,2000.0,1500.0,0.0,40.0,60.0,40.0,80.0,C,D,/static/Simple_RL/Stimuli/Fractals_stims/C.jpg,/static/Simple_RL/Stimuli/Fractals_stims/D.jpg,0.0,60.0,40.0,80.0,40.0,D,C,0.0,216.167,0.667,,
190,,rl_choice_confirmation,,html-keyboard-response,190,127292,0.0-1.0-262.0-0.0,0,0,1,,,,,,37.0,,,,,,,,,,,,,,,,,,,,,,,217.0,0.833,,
191,,isi,,html-keyboard-response,191,127395,0.0-1.0-264.0,0,0,1,,,,,,,,,,,,,,,,,,,,,,,,,,,,,218.5,1.5,,
192,,feedback,,html-keyboard-response,192,128398,0.0-1.0-265.0-0.0,0,0,1,,,,,,37.0,,,,,,,,,,,,,,,,,,,,,,,219.5,1.0,,
193,,iti,,html-keyboard-response,193,128499,0.0-1.0-266.0,0,0,1,,,,,,,,,,,,,,,,,,,,,,,,,,,,,221.5,2.0,,
194,,rl_choice,,html-keyboard-response,194,129087,0.0-1.0-268.0,0,0,1,,587.0,,,50.0,38.0,38.0,1.0,easy,2000.0,1500.0,1.0,80.0,20.0,80.0,20.0,B,A,/static/Simple_RL/Stimuli/Fractals_stims/B.jpg,/static/Simple_RL/Stimuli/Fractals_stims/A.jpg,1.0,80.0,20.0,80.0,20.0,B,A,0.0,222.08700000000002,0.5870000000000001,,
195,,rl_choice_confirmation,,html-keyboard-response,195,130003,0.0-1.0-269.0-0.0,0,0,1,,,,,,38.0,,,,,,,,,,,,,,,,,,,,,,,223.0,0.9129999999999999,,
196,,isi,,html-keyboard-response,196,130105,0.0-1.0-271.0,0,0,1,,,,,,,,,,,,,,,,,,,,,,,,,,,,,224.5,1.5,,
197,,feedback,,html-keyboard-response,197,131107,0.0-1.0-272.0-0.0,0,0,1,,,,,,38.0,,,,,,,,,,,,,,,,,,,,,,,225.5,1.0,,
198,,iti,,html-keyboard-response,198,131209,0.0-1.0-273.0,0,0,1,,,,,,,,,,,,,,,,,,,,,,,,,,,,,227.5,2.0,,
199,,rl_choice,,html-keyboard-response,199,131788,0.0-1.0-275.0,0,0,1,,577.0,,,51.0,39.0,39.0,1.0,hard,1000.0,1000.0,0.0,40.0,60.0,20.0,40.0,C,D,/static/Simple_RL/Stimuli/Fractals_stims/C.jpg,/static/Simple_RL/Stimuli/Fractals_stims/D.jpg,0.0,60.0,40.0,40.0,20.0,D,C,0.0,228.077,0.5770000000000001,,
200,,rl_choice_confirmation,,html-keyboard-response,200,132713,0.0-1.0-276.0-0.0,0,0,1,,,,,,39.0,,,,,,,,,,,,,,,,,,,,,,,229.0,0.9229999999999999,,
201,,isi,,html-keyboard-response,201,132815,0.0-1.0-278.0,0,0,1,,,,,,,,,,,,,,,,,,,,,,,,,,,,,230.0,1.0,,
202,,feedback,,html-keyboard-response,202,133820,0.0-1.0-279.0-0.0,0,0,1,,,,,,39.0,,,,,,,,,,,,,,,,,,,,,,,231.0,1.0,,
203,,iti,,html-keyboard-response,203,133923,0.0-1.0-280.0,0,0,1,,,,,,,,,,,,,,,,,,,,,,,,,,,,,232.0,1.0,,
204,,block_over,,html-keyboard-response,204,136893,0.0-1.0-281.0-0.0,0,0,1,,2956.0,,,50.0,39.0,,,,,,,,,,,,,,,,,,,,,,,,,,
205,,start_run,,html-keyboard-response,205,137450,0.0-1.0-281.0-1.0,0,0,1,,557.0,,,84.0,,,,,,,,,,,,,,,,,,,,,,,,,,,
206,,rl_choice,,html-keyboard-response,206,138103,0.0-1.0-282.0,0,0,1,,652.0,,,50.0,40.0,40.0,2.0,hard,1000.0,1000.0,1.0,60.0,40.0,60.0,40.0,D,C,/static/Simple_RL/Stimuli/Fractals_stims/D.jpg,/static/Simple_RL/Stimuli/Fractals_stims/C.jpg,1.0,60.0,40.0,60.0,40.0,D,C,0.0,0.652,0.652,,
207,,rl_choice_confirmation,,html-keyboard-response,207,138958,0.0-1.0-283.0-0.0,0,0,1,,,,,,40.0,,,,,,,,,,,,,,,,,,,,,,,1.5,0.848,,
208,,isi,,html-keyboard-response,208,139059,0.0-1.0-285.0,0,0,1,,,,,,,,,,,,,,,,,,,,,,,,,,,,,2.5,1.0,,
209,,feedback,,html-keyboard-response,209,140062,0.0-1.0-286.0-0.0,0,0,1,,,,,,40.0,,,,,,,,,,,,,,,,,,,,,,,3.5,1.0,,
210,,iti,,html-keyboard-response,210,140163,0.0-1.0-287.0,0,0,1,,,,,,,,,,,,,,,,,,,,,,,,,,,,,4.5,1.0,,
211,,rl_choice,,html-keyboard-response,211,140763,0.0-1.0-289.0,0,0,1,,599.0,,,51.0,41.0,41.0,2.0,hard,2000.0,2000.0,0.0,40.0,60.0,60.0,60.0,C,D,/static/Simple_RL/Stimuli/Fractals_stims/C.jpg,/static/Simple_RL/Stimuli/Fractals_stims/D.jpg,0.0,60.0,40.0,60.0,60.0,D,C,0.0,5.099,0.599,,
212,,rl_choice_confirmation,,html-keyboard-response,212,141667,0.0-1.0-290.0-0.0,0,0,1,,,,,,41.0,,,,,,,,,,,,,,,,,,,,,,,6.0,0.9009999999999999,,
213,,isi,,html-keyboard-response,213,141768,0.0-1.0-292.0,0,0,1,,,,,,,,,,,,,,,,,,,,,,,,,,,,,8.0,2.0,,
214,,feedback,,html-keyboard-response,214,142771,0.0-1.0-293.0-0.0,0,0,1,,,,,,41.0,,,,,,,,,,,,,,,,,,,,,,,9.0,1.0,,
215,,iti,,html-keyboard-response,215,142876,0.0-1.0-294.0,0,0,1,,,,,,,,,,,,,,,,,,,,,,,,,,,,,11.0,2.0,,
216,,rl_choice,,html-keyboard-response,216,143692,0.0-1.0-296.0,0,0,1,,816.0,,,51.0,42.0,42.0,2.0,hard,3500.0,3000.0,0.0,40.0,60.0,60.0,80.0,C,D,/static/Simple_RL/Stimuli/Fractals_stims/C.jpg,/static/Simple_RL/Stimuli/Fractals_stims/D.jpg,0.0,60.0,40.0,80.0,60.0,D,C,0.0,11.815999999999999,0.816,,
217,,rl_choice_confirmation,,html-keyboard-response,217,144381,0.0-1.0-297.0-0.0,0,0,1,,,,,,42.0,,,,,,,,,,,,,,,,,,,,,,,12.5,0.684,,
218,,isi,,html-keyboard-response,218,144483,0.0-1.0-299.0,0,0,1,,,,,,,,,,,,,,,,,,,,,,,,,,,,,15.5,3.0,,
219,,feedback,,html-keyboard-response,219,145486,0.0-1.0-300.0-0.0,0,0,1,,,,,,42.0,,,,,,,,,,,,,,,,,,,,,,,16.5,1.0,,
220,,iti,,html-keyboard-response,220,145587,0.0-1.0-301.0,0,0,1,,,,,,,,,,,,,,,,,,,,,,,,,,,,,20.0,3.5,,
221,,rl_choice,,html-keyboard-response,221,146173,0.0-1.0-303.0,0,0,1,,585.0,,,51.0,43.0,43.0,2.0,easy,3000.0,1000.0,0.0,20.0,80.0,0.0,100.0,A,B,/static/Simple_RL/Stimuli/Fractals_stims/A.jpg,/static/Simple_RL/Stimuli/Fractals_stims/B.jpg,0.0,80.0,20.0,100.0,0.0,B,A,0.0,20.585,0.585,,
222,,rl_choice_confirmation,,html-keyboard-response,222,147093,0.0-1.0-304.0-0.0,0,0,1,,,,,,43.0,,,,,,,,,,,,,,,,,,,,,,,21.5,0.915,,
223,,isi,,html-keyboard-response,223,147198,0.0-1.0-306.0,0,0,1,,,,,,,,,,,,,,,,,,,,,,,,,,,,,22.5,1.0,,
224,,feedback,,html-keyboard-response,224,148200,0.0-1.0-307.0-0.0,0,0,1,,,,,,43.0,,,,,,,,,,,,,,,,,,,,,,,23.5,1.0,,
225,,iti,,html-keyboard-response,225,148302,0.0-1.0-308.0,0,0,1,,,,,,,,,,,,,,,,,,,,,,,,,,,,,26.5,3.0,,
226,,rl_choice,,html-keyboard-response,226,148714,0.0-1.0-310.0,0,0,1,,411.0,,,50.0,44.0,44.0,2.0,easy,1000.0,1500.0,1.0,80.0,20.0,80.0,0.0,B,A,/static/Simple_RL/Stimuli/Fractals_stims/B.jpg,/static/Simple_RL/Stimuli/Fractals_stims/A.jpg,1.0,80.0,20.0,80.0,0.0,B,A,0.0,26.910999999999998,0.41100000000000003,,
227,,rl_choice_confirmation,,html-keyboard-response,227,149806,0.0-1.0-311.0-0.0,0,0,1,,,,,,44.0,,,,,,,,,,,,,,,,,,,,,,,28.0,1.089,,
228,,isi,,html-keyboard-response,228,149910,0.0-1.0-313.0,0,0,1,,,,,,,,,,,,,,,,,,,,,,,,,,,,,29.5,1.5,,
229,,feedback,,html-keyboard-response,229,150915,0.0-1.0-314.0-0.0,0,0,1,,,,,,44.0,,,,,,,,,,,,,,,,,,,,,,,30.5,1.0,,
230,,iti,,html-keyboard-response,230,151016,0.0-1.0-315.0,0,0,1,,,,,,,,,,,,,,,,,,,,,,,,,,,,,31.5,1.0,,
231,,rl_choice,,html-keyboard-response,231,151492,0.0-1.0-317.0,0,0,1,,473.0,,,51.0,45.0,45.0,2.0,easy,1500.0,1000.0,0.0,20.0,80.0,40.0,60.0,A,B,/static/Simple_RL/Stimuli/Fractals_stims/A.jpg,/static/Simple_RL/Stimuli/Fractals_stims/B.jpg,0.0,80.0,20.0,60.0,40.0,B,A,0.0,31.973000000000003,0.473,,
232,,rl_choice_confirmation,,html-keyboard-response,232,152520,0.0-1.0-318.0-0.0,0,0,1,,,,,,45.0,,,,,,,,,,,,,,,,,,,,,,,33.0,1.0270000000000001,,
233,,isi,,html-keyboard-response,233,152622,0.0-1.0-320.0,0,0,1,,,,,,,,,,,,,,,,,,,,,,,,,,,,,34.0,1.0,,
234,,feedback,,html-keyboard-response,234,153627,0.0-1.0-321.0-0.0,0,0,1,,,,,,45.0,,,,,,,,,,,,,,,,,,,,,,,35.0,1.0,,
235,,iti,,html-keyboard-response,235,153731,0.0-1.0-322.0,0,0,1,,,,,,,,,,,,,,,,,,,,,,,,,,,,,36.5,1.5,,
236,,rl_choice,,html-keyboard-response,236,154223,0.0-1.0-324.0,0,0,1,,491.0,,,51.0,46.0,46.0,2.0,hard,3000.0,1000.0,0.0,40.0,60.0,60.0,40.0,C,D,/static/Simple_RL/Stimuli/Fractals_stims/C.jpg,/static/Simple_RL/Stimuli/Fractals_stims/D.jpg,0.0,60.0,40.0,40.0,60.0,D,C,0.0,36.991,0.491,,
237,,rl_choice_confirmation,,html-keyboard-response,237,155238,0.0-1.0-325.0-0.0,0,0,1,,,,,,46.0,,,,,,,,,,,,,,,,,,,,,,,38.0,1.0090000000000001,,
238,,isi,,html-keyboard-response,238,155342,0.0-1.0-327.0,0,0,1,,,,,,,,,,,,,,,,,,,,,,,,,,,,,39.0,1.0,,
239,,feedback,,html-keyboard-response,239,156347,0.0-1.0-328.0-0.0,0,0,1,,,,,,46.0,,,,,,,,,,,,,,,,,,,,,,,40.0,1.0,,
240,,iti,,html-keyboard-response,240,156451,0.0-1.0-329.0,0,0,1,,,,,,,,,,,,,,,,,,,,,,,,,,,,,43.0,3.0,,
241,,rl_choice,,html-keyboard-response,241,157090,0.0-1.0-331.0,0,0,1,,638.0,,,50.0,47.0,47.0,2.0,easy,1500.0,1500.0,1.0,80.0,20.0,100.0,20.0,B,A,/static/Simple_RL/Stimuli/Fractals_stims/B.jpg,/static/Simple_RL/Stimuli/Fractals_stims/A.jpg,1.0,80.0,20.0,100.0,20.0,B,A,0.0,43.638000000000005,0.638,,
242,,rl_choice_confirmation,,html-keyboard-response,242,157955,0.0-1.0-332.0-0.0,0,0,1,,,,,,47.0,,,,,,,,,,,,,,,,,,,,,,,44.5,0.862,,
243,,isi,,html-keyboard-response,243,158056,0.0-1.0-334.0,0,0,1,,,,,,,,,,,,,,,,,,,,,,,,,,,,,46.0,1.5,,
244,,feedback,,html-keyboard-response,244,159059,0.0-1.0-335.0-0.0,0,0,1,,,,,,47.0,,,,,,,,,,,,,,,,,,,,,,,47.0,1.0,,
245,,iti,,html-keyboard-response,245,159160,0.0-1.0-336.0,0,0,1,,,,,,,,,,,,,,,,,,,,,,,,,,,,,48.5,1.5,,
246,,rl_choice,,html-keyboard-response,246,159785,0.0-1.0-338.0,0,0,1,,624.0,,,51.0,48.0,48.0,2.0,hard,1500.0,1000.0,0.0,40.0,60.0,60.0,60.0,C,D,/static/Simple_RL/Stimuli/Fractals_stims/C.jpg,/static/Simple_RL/Stimuli/Fractals_stims/D.jpg,0.0,60.0,40.0,60.0,60.0,D,C,0.0,49.123999999999995,0.624,,
247,,rl_choice_confirmation,,html-keyboard-response,247,160664,0.0-1.0-339.0-0.0,0,0,1,,,,,,48.0,,,,,,,,,,,,,,,,,,,,,,,50.0,0.8759999999999999,,
248,,isi,,html-keyboard-response,248,160770,0.0-1.0-341.0,0,0,1,,,,,,,,,,,,,,,,,,,,,,,,,,,,,51.0,1.0,,
249,,feedback,,html-keyboard-response,249,161776,0.0-1.0-342.0-0.0,0,0,1,,,,,,48.0,,,,,,,,,,,,,,,,,,,,,,,52.0,1.0,,
250,,iti,,html-keyboard-response,250,161880,0.0-1.0-343.0,0,0,1,,,,,,,,,,,,,,,,,,,,,,,,,,,,,53.5,1.5,,
251,,rl_choice,,html-keyboard-response,251,162443,0.0-1.0-345.0,0,0,1,,562.0,,,51.0,49.0,49.0,2.0,hard,3000.0,1000.0,0.0,40.0,60.0,20.0,60.0,C,D,/static/Simple_RL/Stimuli/Fractals_stims/C.jpg,/static/Simple_RL/Stimuli/Fractals_stims/D.jpg,0.0,60.0,40.0,60.0,20.0,D,C,0.0,54.062,0.562,,
252,,rl_choice_confirmation,,html-keyboard-response,252,163384,0.0-1.0-346.0-0.0,0,0,1,,,,,,49.0,,,,,,,,,,,,,,,,,,,,,,,55.0,0.938,,
253,,isi,,html-keyboard-response,253,163486,0.0-1.0-348.0,0,0,1,,,,,,,,,,,,,,,,,,,,,,,,,,,,,56.0,1.0,,
254,,feedback,,html-keyboard-response,254,164491,0.0-1.0-349.0-0.0,0,0,1,,,,,,49.0,,,,,,,,,,,,,,,,,,,,,,,57.0,1.0,,
255,,iti,,html-keyboard-response,255,164595,0.0-1.0-350.0,0,0,1,,,,,,,,,,,,,,,,,,,,,,,,,,,,,60.0,3.0,,
256,,rl_choice,,html-keyboard-response,256,165265,0.0-1.0-352.0,0,0,1,,669.0,,,50.0,50.0,50.0,2.0,easy,1000.0,1000.0,1.0,80.0,20.0,100.0,40.0,B,A,/static/Simple_RL/Stimuli/Fractals_stims/B.jpg,/static/Simple_RL/Stimuli/Fractals_stims/A.jpg,1.0,80.0,20.0,100.0,40.0,B,A,0.0,60.669,0.669,,
257,,rl_choice_confirmation,,html-keyboard-response,257,166099,0.0-1.0-353.0-0.0,0,0,1,,,,,,50.0,,,,,,,,,,,,,,,,,,,,,,,61.5,0.831,,
258,,isi,,html-keyboard-response,258,166205,0.0-1.0-355.0,0,0,1,,,,,,,,,,,,,,,,,,,,,,,,,,,,,62.5,1.0,,
259,,feedback,,html-keyboard-response,259,167208,0.0-1.0-356.0-0.0,0,0,1,,,,,,50.0,,,,,,,,,,,,,,,,,,,,,,,63.5,1.0,,
260,,iti,,html-keyboard-response,260,167310,0.0-1.0-357.0,0,0,1,,,,,,,,,,,,,,,,,,,,,,,,,,,,,64.5,1.0,,
261,,rl_choice,,html-keyboard-response,261,167866,0.0-1.0-359.0,0,0,1,,555.0,,,51.0,51.0,51.0,2.0,easy,2000.0,3000.0,0.0,20.0,80.0,40.0,60.0,A,B,/static/Simple_RL/Stimuli/Fractals_stims/A.jpg,/static/Simple_RL/Stimuli/Fractals_stims/B.jpg,0.0,80.0,20.0,60.0,40.0,B,A,0.0,65.055,0.555,,
262,,rl_choice_confirmation,,html-keyboard-response,262,168816,0.0-1.0-360.0-0.0,0,0,1,,,,,,51.0,,,,,,,,,,,,,,,,,,,,,,,66.0,0.945,,
263,,isi,,html-keyboard-response,263,168920,0.0-1.0-362.0,0,0,1,,,,,,,,,,,,,,,,,,,,,,,,,,,,,69.0,3.0,,
264,,feedback,,html-keyboard-response,264,169923,0.0-1.0-363.0-0.0,0,0,1,,,,,,51.0,,,,,,,,,,,,,,,,,,,,,,,70.0,1.0,,
265,,iti,,html-keyboard-response,265,170024,0.0-1.0-364.0,0,0,1,,,,,,,,,,,,,,,,,,,,,,,,,,,,,72.0,2.0,,
266,,rl_choice,,html-keyboard-response,266,170597,0.0-1.0-366.0,0,0,1,,572.0,,,50.0,52.0,52.0,2.0,easy,3500.0,1500.0,1.0,80.0,20.0,60.0,20.0,B,A,/static/Simple_RL/Stimuli/Fractals_stims/B.jpg,/static/Simple_RL/Stimuli/Fractals_stims/A.jpg,1.0,80.0,20.0,60.0,20.0,B,A,0.0,72.572,0.5720000000000001,,
267,,rl_choice_confirmation,,html-keyboard-response,267,171528,0.0-1.0-367.0-0.0,0,0,1,,,,,,52.0,,,,,,,,,,,,,,,,,,,,,,,73.5,0.9279999999999999,,
268,,isi,,html-keyboard-response,268,171629,0.0-1.0-369.0,0,0,1,,,,,,,,,,,,,,,,,,,,,,,,,,,,,75.0,1.5,,
269,,feedback,,html-keyboard-response,269,172632,0.0-1.0-370.0-0.0,0,0,1,,,,,,52.0,,,,,,,,,,,,,,,,,,,,,,,76.0,1.0,,
270,,iti,,html-keyboard-response,270,172733,0.0-1.0-371.0,0,0,1,,,,,,,,,,,,,,,,,,,,,,,,,,,,,79.5,3.5,,
271,,rl_choice,,html-keyboard-response,271,173416,0.0-1.0-373.0,0,0,1,,681.0,,,50.0,53.0,53.0,2.0,hard,1500.0,1500.0,1.0,60.0,40.0,40.0,40.0,D,C,/static/Simple_RL/Stimuli/Fractals_stims/D.jpg,/static/Simple_RL/Stimuli/Fractals_stims/C.jpg,1.0,60.0,40.0,40.0,40.0,D,C,0.0,80.181,0.6809999999999999,,
272,,rl_choice_confirmation,,html-keyboard-response,272,174237,0.0-1.0-374.0-0.0,0,0,1,,,,,,53.0,,,,,,,,,,,,,,,,,,,,,,,81.0,0.8190000000000001,,
273,,isi,,html-keyboard-response,273,174339,0.0-1.0-376.0,0,0,1,,,,,,,,,,,,,,,,,,,,,,,,,,,,,82.5,1.5,,
274,,feedback,,html-keyboard-response,274,175341,0.0-1.0-377.0-0.0,0,0,1,,,,,,53.0,,,,,,,,,,,,,,,,,,,,,,,83.5,1.0,,
275,,iti,,html-keyboard-response,275,175443,0.0-1.0-378.0,0,0,1,,,,,,,,,,,,,,,,,,,,,,,,,,,,,85.0,1.5,,
276,,rl_choice,,html-keyboard-response,276,175943,0.0-1.0-380.0,0,0,1,,499.0,,,50.0,54.0,54.0,2.0,hard,2000.0,3000.0,1.0,60.0,40.0,60.0,20.0,D,C,/static/Simple_RL/Stimuli/Fractals_stims/D.jpg,/static/Simple_RL/Stimuli/Fractals_stims/C.jpg,1.0,60.0,40.0,60.0,20.0,D,C,0.0,85.499,0.499,,
277,,rl_choice_confirmation,,html-keyboard-response,277,176947,0.0-1.0-381.0-0.0,0,0,1,,,,,,54.0,,,,,,,,,,,,,,,,,,,,,,,86.5,1.001,,
278,,isi,,html-keyboard-response,278,177049,0.0-1.0-383.0,0,0,1,,,,,,,,,,,,,,,,,,,,,,,,,,,,,89.5,3.0,,
279,,feedback,,html-keyboard-response,279,178056,0.0-1.0-384.0-0.0,0,0,1,,,,,,54.0,,,,,,,,,,,,,,,,,,,,,,,90.5,1.0,,
280,,iti,,html-keyboard-response,280,178157,0.0-1.0-385.0,0,0,1,,,,,,,,,,,,,,,,,,,,,,,,,,,,,92.5,2.0,,
281,,rl_choice,,html-keyboard-response,281,178625,0.0-1.0-387.0,0,0,1,,467.0,,,50.0,55.0,55.0,2.0,hard,1500.0,1500.0,1.0,60.0,40.0,60.0,40.0,D,C,/static/Simple_RL/Stimuli/Fractals_stims/D.jpg,/static/Simple_RL/Stimuli/Fractals_stims/C.jpg,1.0,60.0,40.0,60.0,40.0,D,C,0.0,92.96700000000001,0.467,,
282,,rl_choice_confirmation,,html-keyboard-response,282,179661,0.0-1.0-388.0-0.0,0,0,1,,,,,,55.0,,,,,,,,,,,,,,,,,,,,,,,94.0,1.033,,
283,,isi,,html-keyboard-response,283,179767,0.0-1.0-390.0,0,0,1,,,,,,,,,,,,,,,,,,,,,,,,,,,,,95.5,1.5,,
284,,feedback,,html-keyboard-response,284,180771,0.0-1.0-391.0-0.0,0,0,1,,,,,,55.0,,,,,,,,,,,,,,,,,,,,,,,96.5,1.0,,
285,,iti,,html-keyboard-response,285,180872,0.0-1.0-392.0,0,0,1,,,,,,,,,,,,,,,,,,,,,,,,,,,,,98.0,1.5,,
286,,rl_choice,,html-keyboard-response,286,181238,0.0-1.0-394.0,0,0,1,,365.0,,,51.0,56.0,56.0,2.0,hard,1000.0,2000.0,0.0,40.0,60.0,20.0,40.0,C,D,/static/Simple_RL/Stimuli/Fractals_stims/C.jpg,/static/Simple_RL/Stimuli/Fractals_stims/D.jpg,0.0,60.0,40.0,40.0,20.0,D,C,0.0,98.365,0.365,,
287,,rl_choice_confirmation,,html-keyboard-response,287,182376,0.0-1.0-395.0-0.0,0,0,1,,,,,,56.0,,,,,,,,,,,,,,,,,,,,,,,99.5,1.135,,
288,,isi,,html-keyboard-response,288,182482,0.0-1.0-397.0,0,0,1,,,,,,,,,,,,,,,,,,,,,,,,,,,,,101.5,2.0,,
289,,feedback,,html-keyboard-response,289,183485,0.0-1.0-398.0-0.0,0,0,1,,,,,,56.0,,,,,,,,,,,,,,,,,,,,,,,102.5,1.0,,
290,,iti,,html-keyboard-response,290,183587,0.0-1.0-399.0,0,0,1,,,,,,,,,,,,,,,,,,,,,,,,,,,,,103.5,1.0,,
291,,rl_choice,,html-keyboard-response,291,184031,0.0-1.0-401.0,0,0,1,,443.0,,,51.0,57.0,57.0,2.0,easy,1500.0,2000.0,0.0,20.0,80.0,40.0,80.0,A,B,/static/Simple_RL/Stimuli/Fractals_stims/A.jpg,/static/Simple_RL/Stimuli/Fractals_stims/B.jpg,0.0,80.0,20.0,80.0,40.0,B,A,0.0,103.943,0.44299999999999995,,
292,,rl_choice_confirmation,,html-keyboard-response,292,185092,0.0-1.0-402.0-0.0,0,0,1,,,,,,57.0,,,,,,,,,,,,,,,,,,,,,,,105.0,1.057,,
293,,isi,,html-keyboard-response,293,185197,0.0-1.0-404.0,0,0,1,,,,,,,,,,,,,,,,,,,,,,,,,,,,,107.0,2.0,,
294,,feedback,,html-keyboard-response,294,186200,0.0-1.0-405.0-0.0,0,0,1,,,,,,57.0,,,,,,,,,,,,,,,,,,,,,,,108.0,1.0,,
295,,iti,,html-keyboard-response,295,186301,0.0-1.0-406.0,0,0,1,,,,,,,,,,,,,,,,,,,,,,,,,,,,,109.5,1.5,,
296,,rl_choice,,html-keyboard-response,296,186901,0.0-1.0-408.0,0,0,1,,598.0,,,51.0,58.0,58.0,2.0,hard,2000.0,2000.0,0.0,40.0,60.0,40.0,80.0,C,D,/static/Simple_RL/Stimuli/Fractals_stims/C.jpg,/static/Simple_RL/Stimuli/Fractals_stims/D.jpg,0.0,60.0,40.0,80.0,40.0,D,C,0.0,110.098,0.598,,
297,,rl_choice_confirmation,,html-keyboard-response,297,187805,0.0-1.0-409.0-0.0,0,0,1,,,,,,58.0,,,,,,,,,,,,,,,,,,,,,,,111.0,0.902,,
298,,isi,,html-keyboard-response,298,187906,0.0-1.0-411.0,0,0,1,,,,,,,,,,,,,,,,,,,,,,,,,,,,,113.0,2.0,,
299,,feedback,,html-keyboard-response,299,188909,0.0-1.0-412.0-0.0,0,0,1,,,,,,58.0,,,,,,,,,,,,,,,,,,,,,,,114.0,1.0,,
300,,iti,,html-keyboard-response,300,189011,0.0-1.0-413.0,0,0,1,,,,,,,,,,,,,,,,,,,,,,,,,,,,,116.0,2.0,,
301,,rl_choice,,html-keyboard-response,301,189533,0.0-1.0-415.0,0,0,1,,520.0,,,51.0,59.0,59.0,2.0,easy,3000.0,2000.0,0.0,20.0,80.0,20.0,60.0,A,B,/static/Simple_RL/Stimuli/Fractals_stims/A.jpg,/static/Simple_RL/Stimuli/Fractals_stims/B.jpg,0.0,80.0,20.0,60.0,20.0,B,A,0.0,116.52,0.52,,
302,,rl_choice_confirmation,,html-keyboard-response,302,190514,0.0-1.0-416.0-0.0,0,0,1,,,,,,59.0,,,,,,,,,,,,,,,,,,,,,,,117.5,0.98,,
303,,isi,,html-keyboard-response,303,190616,0.0-1.0-418.0,0,0,1,,,,,,,,,,,,,,,,,,,,,,,,,,,,,119.5,2.0,,
304,,feedback,,html-keyboard-response,304,191618,0.0-1.0-419.0-0.0,0,0,1,,,,,,59.0,,,,,,,,,,,,,,,,,,,,,,,120.5,1.0,,
305,,iti,,html-keyboard-response,305,191721,0.0-1.0-420.0,0,0,1,,,,,,,,,,,,,,,,,,,,,,,,,,,,,123.5,3.0,,
306,,rl_choice,,html-keyboard-response,306,192304,0.0-1.0-422.0,0,0,1,,582.0,,,50.0,60.0,60.0,2.0,hard,1500.0,1000.0,1.0,60.0,40.0,60.0,40.0,D,C,/static/Simple_RL/Stimuli/Fractals_stims/D.jpg,/static/Simple_RL/Stimuli/Fractals_stims/C.jpg,1.0,60.0,40.0,60.0,40.0,D,C,0.0,124.08200000000001,0.5820000000000001,,
307,,rl_choice_confirmation,,html-keyboard-response,307,193224,0.0-1.0-423.0-0.0,0,0,1,,,,,,60.0,,,,,,,,,,,,,,,,,,,,,,,125.0,0.9179999999999999,,
308,,isi,,html-keyboard-response,308,193330,0.0-1.0-425.0,0,0,1,,,,,,,,,,,,,,,,,,,,,,,,,,,,,126.0,1.0,,
309,,feedback,,html-keyboard-response,309,194333,0.0-1.0-426.0-0.0,0,0,1,,,,,,60.0,,,,,,,,,,,,,,,,,,,,,,,127.0,1.0,,
310,,iti,,html-keyboard-response,310,194434,0.0-1.0-427.0,0,0,1,,,,,,,,,,,,,,,,,,,,,,,,,,,,,128.5,1.5,,
311,,rl_choice,,html-keyboard-response,311,195123,0.0-1.0-429.0,0,0,1,,686.0,,,51.0,61.0,61.0,2.0,easy,2000.0,2000.0,0.0,20.0,80.0,20.0,80.0,A,B,/static/Simple_RL/Stimuli/Fractals_stims/A.jpg,/static/Simple_RL/Stimuli/Fractals_stims/B.jpg,0.0,80.0,20.0,80.0,20.0,B,A,0.0,129.186,0.6859999999999999,,
312,,rl_choice_confirmation,,html-keyboard-response,312,195938,0.0-1.0-430.0-0.0,0,0,1,,,,,,61.0,,,,,,,,,,,,,,,,,,,,,,,130.0,0.8140000000000001,,
313,,isi,,html-keyboard-response,313,196040,0.0-1.0-432.0,0,0,1,,,,,,,,,,,,,,,,,,,,,,,,,,,,,132.0,2.0,,
314,,feedback,,html-keyboard-response,314,197042,0.0-1.0-433.0-0.0,0,0,1,,,,,,61.0,,,,,,,,,,,,,,,,,,,,,,,133.0,1.0,,
315,,iti,,html-keyboard-response,315,197144,0.0-1.0-434.0,0,0,1,,,,,,,,,,,,,,,,,,,,,,,,,,,,,135.0,2.0,,
316,,rl_choice,,html-keyboard-response,316,197874,0.0-1.0-436.0,0,0,1,,729.0,,,50.0,62.0,62.0,2.0,hard,1500.0,3500.0,1.0,60.0,40.0,80.0,40.0,D,C,/static/Simple_RL/Stimuli/Fractals_stims/D.jpg,/static/Simple_RL/Stimuli/Fractals_stims/C.jpg,1.0,60.0,40.0,80.0,40.0,D,C,0.0,135.72899999999998,0.7290000000000001,,
317,,rl_choice_confirmation,,html-keyboard-response,317,198649,0.0-1.0-437.0-0.0,0,0,1,,,,,,62.0,,,,,,,,,,,,,,,,,,,,,,,136.5,0.7709999999999999,,
318,,isi,,html-keyboard-response,318,198754,0.0-1.0-439.0,0,0,1,,,,,,,,,,,,,,,,,,,,,,,,,,,,,140.0,3.5,,
319,,feedback,,html-keyboard-response,319,199757,0.0-1.0-440.0-0.0,0,0,1,,,,,,62.0,,,,,,,,,,,,,,,,,,,,,,,141.0,1.0,,
320,,iti,,html-keyboard-response,320,199858,0.0-1.0-441.0,0,0,1,,,,,,,,,,,,,,,,,,,,,,,,,,,,,142.5,1.5,,
321,,rl_choice,,html-keyboard-response,321,200335,0.0-1.0-443.0,0,0,1,,475.0,,,51.0,63.0,63.0,2.0,hard,1000.0,1500.0,0.0,40.0,60.0,40.0,40.0,C,D,/static/Simple_RL/Stimuli/Fractals_stims/C.jpg,/static/Simple_RL/Stimuli/Fractals_stims/D.jpg,0.0,60.0,40.0,40.0,40.0,D,C,0.0,142.975,0.475,,
322,,rl_choice_confirmation,,html-keyboard-response,322,201362,0.0-1.0-444.0-0.0,0,0,1,,,,,,63.0,,,,,,,,,,,,,,,,,,,,,,,144.0,1.025,,
323,,isi,,html-keyboard-response,323,201464,0.0-1.0-446.0,0,0,1,,,,,,,,,,,,,,,,,,,,,,,,,,,,,145.5,1.5,,
324,,feedback,,html-keyboard-response,324,202466,0.0-1.0-447.0-0.0,0,0,1,,,,,,63.0,,,,,,,,,,,,,,,,,,,,,,,146.5,1.0,,
325,,iti,,html-keyboard-response,325,202568,0.0-1.0-448.0,0,0,1,,,,,,,,,,,,,,,,,,,,,,,,,,,,,147.5,1.0,,
326,,rl_choice,,html-keyboard-response,326,203044,0.0-1.0-450.0,0,0,1,,475.0,,,50.0,64.0,64.0,2.0,hard,1000.0,1500.0,1.0,60.0,40.0,60.0,60.0,D,C,/static/Simple_RL/Stimuli/Fractals_stims/D.jpg,/static/Simple_RL/Stimuli/Fractals_stims/C.jpg,1.0,60.0,40.0,60.0,60.0,D,C,0.0,147.975,0.475,,
327,,rl_choice_confirmation,,html-keyboard-response,327,204071,0.0-1.0-451.0-0.0,0,0,1,,,,,,64.0,,,,,,,,,,,,,,,,,,,,,,,149.0,1.025,,
328,,isi,,html-keyboard-response,328,204173,0.0-1.0-453.0,0,0,1,,,,,,,,,,,,,,,,,,,,,,,,,,,,,150.5,1.5,,
329,,feedback,,html-keyboard-response,329,205176,0.0-1.0-454.0-0.0,0,0,1,,,,,,64.0,,,,,,,,,,,,,,,,,,,,,,,151.5,1.0,,
330,,iti,,html-keyboard-response,330,205279,0.0-1.0-455.0,0,0,1,,,,,,,,,,,,,,,,,,,,,,,,,,,,,152.5,1.0,,
331,,rl_choice,,html-keyboard-response,331,205873,0.0-1.0-457.0,0,0,1,,593.0,,,51.0,65.0,65.0,2.0,easy,1000.0,1000.0,0.0,20.0,80.0,20.0,100.0,A,B,/static/Simple_RL/Stimuli/Fractals_stims/A.jpg,/static/Simple_RL/Stimuli/Fractals_stims/B.jpg,0.0,80.0,20.0,100.0,20.0,B,A,0.0,153.093,0.593,,
332,,rl_choice_confirmation,,html-keyboard-response,332,206786,0.0-1.0-458.0-0.0,0,0,1,,,,,,65.0,,,,,,,,,,,,,,,,,,,,,,,154.0,0.907,,
333,,isi,,html-keyboard-response,333,206888,0.0-1.0-460.0,0,0,1,,,,,,,,,,,,,,,,,,,,,,,,,,,,,155.0,1.0,,
334,,feedback,,html-keyboard-response,334,207891,0.0-1.0-461.0-0.0,0,0,1,,,,,,65.0,,,,,,,,,,,,,,,,,,,,,,,156.0,1.0,,
335,,iti,,html-keyboard-response,335,207997,0.0-1.0-462.0,0,0,1,,,,,,,,,,,,,,,,,,,,,,,,,,,,,157.0,1.0,,
336,,rl_choice,,html-keyboard-response,336,208453,0.0-1.0-464.0,0,0,1,,455.0,,,51.0,66.0,66.0,2.0,easy,1000.0,1500.0,0.0,20.0,80.0,40.0,60.0,A,B,/static/Simple_RL/Stimuli/Fractals_stims/A.jpg,/static/Simple_RL/Stimuli/Fractals_stims/B.jpg,0.0,80.0,20.0,60.0,40.0,B,A,0.0,157.455,0.455,,
337,,rl_choice_confirmation,,html-keyboard-response,337,209501,0.0-1.0-465.0-0.0,0,0,1,,,,,,66.0,,,,,,,,,,,,,,,,,,,,,,,158.5,1.045,,
338,,isi,,html-keyboard-response,338,209605,0.0-1.0-467.0,0,0,1,,,,,,,,,,,,,,,,,,,,,,,,,,,,,160.0,1.5,,
339,,feedback,,html-keyboard-response,339,210610,0.0-1.0-468.0-0.0,0,0,1,,,,,,66.0,,,,,,,,,,,,,,,,,,,,,,,161.0,1.0,,
340,,iti,,html-keyboard-response,340,210712,0.0-1.0-469.0,0,0,1,,,,,,,,,,,,,,,,,,,,,,,,,,,,,162.0,1.0,,
341,,rl_choice,,html-keyboard-response,341,212215,0.0-1.0-471.0,0,0,1,,,,,,67.0,67.0,2.0,easy,2000.0,1500.0,0.0,20.0,80.0,0.0,60.0,A,B,/static/Simple_RL/Stimuli/Fractals_stims/A.jpg,/static/Simple_RL/Stimuli/Fractals_stims/B.jpg,,,,,,,,,163.5,1.5,1.0,
342,,rl_choice_warning,,html-keyboard-response,342,213218,0.0-1.0-473.0-0.0,1,0,1,,,,,,,,,,,,,,,,,,,,,,,,,,,,,164.5,1.0,,
343,,isi,,html-keyboard-response,343,213320,0.0-1.0-474.0,0,0,1,,,,,,,,,,,,,,,,,,,,,,,,,,,,,166.0,1.5,,
344,,iti,,html-keyboard-response,344,213421,0.0-1.0-476.0,0,0,1,,,,,,,,,,,,,,,,,,,,,,,,,,,,,168.0,2.0,,
345,,rl_choice,,html-keyboard-response,345,214179,0.0-1.0-478.0,0,0,1,,756.0,,,50.0,68.0,68.0,2.0,easy,1500.0,1000.0,1.0,80.0,20.0,80.0,40.0,B,A,/static/Simple_RL/Stimuli/Fractals_stims/B.jpg,/static/Simple_RL/Stimuli/Fractals_stims/A.jpg,1.0,80.0,20.0,80.0,40.0,B,A,0.0,168.75599999999997,0.7559999999999999,,
346,,rl_choice_confirmation,,html-keyboard-response,346,214925,0.0-1.0-479.0-0.0,0,0,1,,,,,,68.0,,,,,,,,,,,,,,,,,,,,,,,169.5,0.7440000000000001,,
347,,isi,,html-keyboard-response,347,215026,0.0-1.0-481.0,0,0,1,,,,,,,,,,,,,,,,,,,,,,,,,,,,,170.5,1.0,,
348,,feedback,,html-keyboard-response,348,216028,0.0-1.0-482.0-0.0,0,0,1,,,,,,68.0,,,,,,,,,,,,,,,,,,,,,,,171.5,1.0,,
349,,iti,,html-keyboard-response,349,216130,0.0-1.0-483.0,0,0,1,,,,,,,,,,,,,,,,,,,,,,,,,,,,,173.0,1.5,,
350,,rl_choice,,html-keyboard-response,350,216577,0.0-1.0-485.0,0,0,1,,446.0,,,51.0,69.0,69.0,2.0,hard,1000.0,1000.0,0.0,40.0,60.0,60.0,80.0,C,D,/static/Simple_RL/Stimuli/Fractals_stims/C.jpg,/static/Simple_RL/Stimuli/Fractals_stims/D.jpg,0.0,60.0,40.0,80.0,60.0,D,C,0.0,173.446,0.446,,
351,,rl_choice_confirmation,,html-keyboard-response,351,217634,0.0-1.0-486.0-0.0,0,0,1,,,,,,69.0,,,,,,,,,,,,,,,,,,,,,,,174.5,1.054,,
352,,isi,,html-keyboard-response,352,217735,0.0-1.0-488.0,0,0,1,,,,,,,,,,,,,,,,,,,,,,,,,,,,,175.5,1.0,,
353,,feedback,,html-keyboard-response,353,218737,0.0-1.0-489.0-0.0,0,0,1,,,,,,69.0,,,,,,,,,,,,,,,,,,,,,,,176.5,1.0,,
354,,iti,,html-keyboard-response,354,218839,0.0-1.0-490.0,0,0,1,,,,,,,,,,,,,,,,,,,,,,,,,,,,,177.5,1.0,,
355,,rl_choice,,html-keyboard-response,355,220066,0.0-1.0-492.0,0,0,1,,1226.0,,,50.0,70.0,70.0,2.0,easy,1000.0,1000.0,1.0,80.0,20.0,60.0,0.0,B,A,/static/Simple_RL/Stimuli/Fractals_stims/B.jpg,/static/Simple_RL/Stimuli/Fractals_stims/A.jpg,1.0,80.0,20.0,60.0,0.0,B,A,0.0,178.726,1.226,,
356,,rl_choice_confirmation,,html-keyboard-response,356,220342,0.0-1.0-493.0-0.0,0,0,1,,,,,,70.0,,,,,,,,,,,,,,,,,,,,,,,179.0,0.27399999999999997,,
357,,isi,,html-keyboard-response,357,220444,0.0-1.0-495.0,0,0,1,,,,,,,,,,,,,,,,,,,,,,,,,,,,,180.0,1.0,,
358,,feedback,,html-keyboard-response,358,221447,0.0-1.0-496.0-0.0,0,0,1,,,,,,70.0,,,,,,,,,,,,,,,,,,,,,,,181.0,1.0,,
359,,iti,,html-keyboard-response,359,221548,0.0-1.0-497.0,0,0,1,,,,,,,,,,,,,,,,,,,,,,,,,,,,,182.0,1.0,,
360,,rl_choice,,html-keyboard-response,360,222108,0.0-1.0-499.0,0,0,1,,559.0,,,51.0,71.0,71.0,2.0,hard,1000.0,1000.0,0.0,40.0,60.0,40.0,40.0,C,D,/static/Simple_RL/Stimuli/Fractals_stims/C.jpg,/static/Simple_RL/Stimuli/Fractals_stims/D.jpg,0.0,60.0,40.0,40.0,40.0,D,C,0.0,182.55900000000003,0.5589999999999999,,
361,,rl_choice_confirmation,,html-keyboard-response,361,223054,0.0-1.0-500.0-0.0,0,0,1,,,,,,71.0,,,,,,,,,,,,,,,,,,,,,,,183.5,0.941,,
362,,isi,,html-keyboard-response,362,223159,0.0-1.0-502.0,0,0,1,,,,,,,,,,,,,,,,,,,,,,,,,,,,,184.5,1.0,,
363,,feedback,,html-keyboard-response,363,224162,0.0-1.0-503.0-0.0,0,0,1,,,,,,71.0,,,,,,,,,,,,,,,,,,,,,,,185.5,1.0,,
364,,iti,,html-keyboard-response,364,224263,0.0-1.0-504.0,0,0,1,,,,,,,,,,,,,,,,,,,,,,,,,,,,,186.5,1.0,,
365,,rl_choice,,html-keyboard-response,365,224831,0.0-1.0-506.0,0,0,1,,566.0,,,51.0,72.0,72.0,2.0,hard,1000.0,1000.0,0.0,40.0,60.0,60.0,80.0,C,D,/static/Simple_RL/Stimuli/Fractals_stims/C.jpg,/static/Simple_RL/Stimuli/Fractals_stims/D.jpg,0.0,60.0,40.0,80.0,60.0,D,C,0.0,187.06599999999997,0.5660000000000001,,
366,,rl_choice_confirmation,,html-keyboard-response,366,225770,0.0-1.0-507.0-0.0,0,0,1,,,,,,72.0,,,,,,,,,,,,,,,,,,,,,,,188.0,0.934,,
367,,isi,,html-keyboard-response,367,225874,0.0-1.0-509.0,0,0,1,,,,,,,,,,,,,,,,,,,,,,,,,,,,,189.0,1.0,,
368,,feedback,,html-keyboard-response,368,226876,0.0-1.0-510.0-0.0,0,0,1,,,,,,72.0,,,,,,,,,,,,,,,,,,,,,,,190.0,1.0,,
369,,iti,,html-keyboard-response,369,226978,0.0-1.0-511.0,0,0,1,,,,,,,,,,,,,,,,,,,,,,,,,,,,,191.0,1.0,,
370,,rl_choice,,html-keyboard-response,370,227732,0.0-1.0-513.0,0,0,1,,753.0,,,50.0,73.0,73.0,2.0,easy,1000.0,1000.0,1.0,80.0,20.0,80.0,20.0,B,A,/static/Simple_RL/Stimuli/Fractals_stims/B.jpg,/static/Simple_RL/Stimuli/Fractals_stims/A.jpg,1.0,80.0,20.0,80.0,20.0,B,A,0.0,191.753,0.753,,
371,,rl_choice_confirmation,,html-keyboard-response,371,228482,0.0-1.0-514.0-0.0,0,0,1,,,,,,73.0,,,,,,,,,,,,,,,,,,,,,,,192.5,0.747,,
372,,isi,,html-keyboard-response,372,228583,0.0-1.0-516.0,0,0,1,,,,,,,,,,,,,,,,,,,,,,,,,,,,,193.5,1.0,,
373,,feedback,,html-keyboard-response,373,229586,0.0-1.0-517.0-0.0,0,0,1,,,,,,73.0,,,,,,,,,,,,,,,,,,,,,,,194.5,1.0,,
374,,iti,,html-keyboard-response,374,229689,0.0-1.0-518.0,0,0,1,,,,,,,,,,,,,,,,,,,,,,,,,,,,,195.5,1.0,,
375,,rl_choice,,html-keyboard-response,375,230210,0.0-1.0-520.0,0,0,1,,520.0,,,50.0,74.0,74.0,2.0,easy,1500.0,2000.0,1.0,80.0,20.0,80.0,20.0,B,A,/static/Simple_RL/Stimuli/Fractals_stims/B.jpg,/static/Simple_RL/Stimuli/Fractals_stims/A.jpg,1.0,80.0,20.0,80.0,20.0,B,A,0.0,196.02,0.52,,
376,,rl_choice_confirmation,,html-keyboard-response,376,231196,0.0-1.0-521.0-0.0,0,0,1,,,,,,74.0,,,,,,,,,,,,,,,,,,,,,,,197.0,0.98,,
377,,isi,,html-keyboard-response,377,231300,0.0-1.0-523.0,0,0,1,,,,,,,,,,,,,,,,,,,,,,,,,,,,,199.0,2.0,,
378,,feedback,,html-keyboard-response,378,232306,0.0-1.0-524.0-0.0,0,0,1,,,,,,74.0,,,,,,,,,,,,,,,,,,,,,,,200.0,1.0,,
379,,iti,,html-keyboard-response,379,232407,0.0-1.0-525.0,0,0,1,,,,,,,,,,,,,,,,,,,,,,,,,,,,,201.5,1.5,,
380,,rl_choice,,html-keyboard-response,380,233092,0.0-1.0-527.0,0,0,1,,683.0,,,51.0,75.0,75.0,2.0,easy,1000.0,3500.0,0.0,20.0,80.0,40.0,80.0,A,B,/static/Simple_RL/Stimuli/Fractals_stims/A.jpg,/static/Simple_RL/Stimuli/Fractals_stims/B.jpg,0.0,80.0,20.0,80.0,40.0,B,A,0.0,202.183,0.6829999999999999,,
381,,rl_choice_confirmation,,html-keyboard-response,381,233911,0.0-1.0-528.0-0.0,0,0,1,,,,,,75.0,,,,,,,,,,,,,,,,,,,,,,,203.0,0.8170000000000001,,
382,,isi,,html-keyboard-response,382,234012,0.0-1.0-530.0,0,0,1,,,,,,,,,,,,,,,,,,,,,,,,,,,,,206.5,3.5,,
383,,feedback,,html-keyboard-response,383,235015,0.0-1.0-531.0-0.0,0,0,1,,,,,,75.0,,,,,,,,,,,,,,,,,,,,,,,207.5,1.0,,
384,,iti,,html-keyboard-response,384,235119,0.0-1.0-532.0,0,0,1,,,,,,,,,,,,,,,,,,,,,,,,,,,,,208.5,1.0,,
385,,rl_choice,,html-keyboard-response,385,235609,0.0-1.0-534.0,0,0,1,,489.0,,,51.0,76.0,76.0,2.0,easy,1000.0,3000.0,0.0,20.0,80.0,40.0,100.0,A,B,/static/Simple_RL/Stimuli/Fractals_stims/A.jpg,/static/Simple_RL/Stimuli/Fractals_stims/B.jpg,0.0,80.0,20.0,100.0,40.0,B,A,0.0,208.989,0.489,,
386,,rl_choice_confirmation,,html-keyboard-response,386,236626,0.0-1.0-535.0-0.0,0,0,1,,,,,,76.0,,,,,,,,,,,,,,,,,,,,,,,210.0,1.011,,
387,,isi,,html-keyboard-response,387,236729,0.0-1.0-537.0,0,0,1,,,,,,,,,,,,,,,,,,,,,,,,,,,,,213.0,3.0,,
388,,feedback,,html-keyboard-response,388,237735,0.0-1.0-538.0-0.0,0,0,1,,,,,,76.0,,,,,,,,,,,,,,,,,,,,,,,214.0,1.0,,
389,,iti,,html-keyboard-response,389,237836,0.0-1.0-539.0,0,0,1,,,,,,,,,,,,,,,,,,,,,,,,,,,,,215.0,1.0,,
390,,rl_choice,,html-keyboard-response,390,238482,0.0-1.0-541.0,0,0,1,,644.0,,,50.0,77.0,77.0,2.0,easy,2000.0,1000.0,1.0,80.0,20.0,100.0,20.0,B,A,/static/Simple_RL/Stimuli/Fractals_stims/B.jpg,/static/Simple_RL/Stimuli/Fractals_stims/A.jpg,1.0,80.0,20.0,100.0,20.0,B,A,0.0,215.644,0.644,,
391,,rl_choice_confirmation,,html-keyboard-response,391,239340,0.0-1.0-542.0-0.0,0,0,1,,,,,,77.0,,,,,,,,,,,,,,,,,,,,,,,216.5,0.856,,
392,,isi,,html-keyboard-response,392,239442,0.0-1.0-544.0,0,0,1,,,,,,,,,,,,,,,,,,,,,,,,,,,,,217.5,1.0,,
393,,feedback,,html-keyboard-response,393,240444,0.0-1.0-545.0-0.0,0,0,1,,,,,,77.0,,,,,,,,,,,,,,,,,,,,,,,218.5,1.0,,
394,,iti,,html-keyboard-response,394,240545,0.0-1.0-546.0,0,0,1,,,,,,,,,,,,,,,,,,,,,,,,,,,,,220.5,2.0,,
395,,rl_choice,,html-keyboard-response,395,241070,0.0-1.0-548.0,0,0,1,,523.0,,,50.0,78.0,78.0,2.0,hard,1000.0,1500.0,1.0,60.0,40.0,80.0,40.0,D,C,/static/Simple_RL/Stimuli/Fractals_stims/D.jpg,/static/Simple_RL/Stimuli/Fractals_stims/C.jpg,1.0,60.0,40.0,80.0,40.0,D,C,0.0,221.023,0.523,,
396,,rl_choice_confirmation,,html-keyboard-response,396,242049,0.0-1.0-549.0-0.0,0,0,1,,,,,,78.0,,,,,,,,,,,,,,,,,,,,,,,222.0,0.977,,
397,,isi,,html-keyboard-response,397,242151,0.0-1.0-551.0,0,0,1,,,,,,,,,,,,,,,,,,,,,,,,,,,,,223.5,1.5,,
398,,feedback,,html-keyboard-response,398,243153,0.0-1.0-552.0-0.0,0,0,1,,,,,,78.0,,,,,,,,,,,,,,,,,,,,,,,224.5,1.0,,
399,,iti,,html-keyboard-response,399,243255,0.0-1.0-553.0,0,0,1,,,,,,,,,,,,,,,,,,,,,,,,,,,,,225.5,1.0,,
400,,rl_choice,,html-keyboard-response,400,243742,0.0-1.0-555.0,0,0,1,,486.0,,,50.0,79.0,79.0,2.0,hard,2000.0,2000.0,1.0,60.0,40.0,60.0,60.0,D,C,/static/Simple_RL/Stimuli/Fractals_stims/D.jpg,/static/Simple_RL/Stimuli/Fractals_stims/C.jpg,1.0,60.0,40.0,60.0,60.0,D,C,0.0,225.986,0.486,,
401,,rl_choice_confirmation,,html-keyboard-response,401,244759,0.0-1.0-556.0-0.0,0,0,1,,,,,,79.0,,,,,,,,,,,,,,,,,,,,,,,227.0,1.014,,
402,,isi,,html-keyboard-response,402,244863,0.0-1.0-558.0,0,0,1,,,,,,,,,,,,,,,,,,,,,,,,,,,,,229.0,2.0,,
403,,feedback,,html-keyboard-response,403,245868,0.0-1.0-559.0-0.0,0,0,1,,,,,,79.0,,,,,,,,,,,,,,,,,,,,,,,230.0,1.0,,
404,,iti,,html-keyboard-response,404,245970,0.0-1.0-560.0,0,0,1,,,,,,,,,,,,,,,,,,,,,,,,,,,,,232.0,2.0,,2.67
405,,final_tally,,html-keyboard-response,405,247231,0.0-2.0,0,0,1,,1260.0,,,50.0,,,,,,,,,,,,,,,,,,,,,,,,,,,
