,success,ttype,start_time,trial_type,trial_index,time_elapsed,internal_node_id,warning,missed_checkup,PID,view_history,rt,responses,repeat_instructions,key_press,index,trial_num,block,condition,iti,isi,high_group_on_left,left_group_value,right_group_value,left_item_value,right_item_value,left_img,right_img,left_img_path,right_img_path,left_chosen,chosen_group_value,unchosen_group_value,chosen_item_value,unchosen_item_value,chosen_img,unchosen_img,onset,duration,no_response,total_bonus_tally
0,True,full_screen,d06072022hr0037,fullscreen,0,2462,0.0-0.0,0,0,5,,,,,,,,,,,,,,,,,,,,,,,,,,,,,,,
1,,size_instructions,,instructions,1,18125,0.0-1.0-0.0-0.0,0,0,5,"[{""page_index"":0,""viewing_time"":9353},{""page_index"":1,""viewing_time"":2224},{""page_index"":2,""viewing_time"":911},{""page_index"":3,""viewing_time"":1707},{""page_index"":4,""viewing_time"":664},{""page_index"":5,""viewing_time"":801}]",15661.0,,,,,,,,,,,,,,,,,,,,,,,,,,,,,
2,,rl_comprehension_check,,survey-multi-choice,2,22603,0.0-1.0-0.0-1.0,0,0,5,,4473.0,"{""Q0"":""True"",""Q1"":""True"",""Q2"":""pointer finger for left and middle finger for right""}",0.0,,,,,,,,,,,,,,,,,,,,,,,,,,,
3,,,,html-keyboard-response,3,24388,0.0-1.0-1.0,0,0,5,,1783.0,,,50.0,,,,,,,,,,,,,,,,,,,,,,,,,,
4,,rl_choice,,html-keyboard-response,4,25492,0.0-1.0-2.0,0,0,5,,1102.0,,,50.0,0.0,0.0,1.0,hard,3500.0,2000.0,1.0,60.0,40.0,80.0,40.0,A,B,/static/Simple_RL/Stimuli/Fractals_stims/A.jpg,/static/Simple_RL/Stimuli/Fractals_stims/B.jpg,1.0,60.0,40.0,80.0,40.0,A,B,1.102,1.102,0.0,
5,,rl_choice_confirmation,,html-keyboard-response,5,25894,0.0-1.0-3.0-0.0,0,0,5,,,,,,0.0,,1.0,,,,,,,,,,,,,,,,,,,,1.5,0.398,,
6,,isi,,html-keyboard-response,6,27897,0.0-1.0-5.0,0,0,5,,,,,,0.0,,1.0,,,,,,,,,,,,,,,,,,,,3.5,2.0,,
7,,feedback,,html-keyboard-response,7,28901,0.0-1.0-6.0-0.0,0,0,5,,,,,,0.0,,1.0,,,,,,,,,,,,,,,,,,,,4.5,1.0,,
8,,iti,,html-keyboard-response,8,32404,0.0-1.0-7.0,0,0,5,,,,,,0.0,,1.0,,,,,,,,,,,,,,,,,,,,8.0,3.5,,
9,,rl_choice,,html-keyboard-response,9,33035,0.0-1.0-9.0,0,0,5,,628.0,,,50.0,1.0,1.0,1.0,hard,1000.0,2000.0,1.0,60.0,40.0,80.0,20.0,A,B,/static/Simple_RL/Stimuli/Fractals_stims/A.jpg,/static/Simple_RL/Stimuli/Fractals_stims/B.jpg,1.0,60.0,40.0,80.0,20.0,A,B,8.628,0.628,0.0,
10,,rl_choice_confirmation,,html-keyboard-response,10,33910,0.0-1.0-10.0-0.0,0,0,5,,,,,,1.0,,1.0,,,,,,,,,,,,,,,,,,,,9.5,0.872,,
11,,isi,,html-keyboard-response,11,35912,0.0-1.0-12.0,0,0,5,,,,,,1.0,,1.0,,,,,,,,,,,,,,,,,,,,11.5,2.0,,
12,,feedback,,html-keyboard-response,12,36916,0.0-1.0-13.0-0.0,0,0,5,,,,,,1.0,,1.0,,,,,,,,,,,,,,,,,,,,12.5,1.0,,
13,,iti,,html-keyboard-response,13,37919,0.0-1.0-14.0,0,0,5,,,,,,1.0,,1.0,,,,,,,,,,,,,,,,,,,,13.5,1.0,,
14,,rl_choice,,html-keyboard-response,14,39423,0.0-1.0-16.0,0,0,5,,,,,,2.0,2.0,1.0,easy,2000.0,2000.0,0.0,20.0,80.0,40.0,100.0,D,C,/static/Simple_RL/Stimuli/Fractals_stims/D.jpg,/static/Simple_RL/Stimuli/Fractals_stims/C.jpg,,,,,,,,15.0,1.5,1.0,
15,,rl_choice_warning,,html-keyboard-response,15,40425,0.0-1.0-18.0-0.0,0,0,5,,,,,,2.0,,1.0,,,,,,,,,,,,,,,,,,,,16.0,1.0,,
16,,isi,,html-keyboard-response,16,42428,0.0-1.0-19.0,0,0,5,,,,,,2.0,,1.0,,,,,,,,,,,,,,,,,,,,18.0,2.0,,
17,,iti,,html-keyboard-response,17,44430,0.0-1.0-21.0,0,0,5,,,,,,2.0,,1.0,,,,,,,,,,,,,,,,,,,,20.0,2.0,,
18,,rl_choice,,html-keyboard-response,18,44891,0.0-1.0-23.0,0,0,5,,458.0,,,50.0,3.0,3.0,1.0,hard,1500.0,1000.0,0.0,40.0,60.0,20.0,60.0,B,A,/static/Simple_RL/Stimuli/Fractals_stims/B.jpg,/static/Simple_RL/Stimuli/Fractals_stims/A.jpg,1.0,40.0,60.0,20.0,60.0,B,A,20.458,0.458,0.0,
19,,rl_choice_confirmation,,html-keyboard-response,19,45936,0.0-1.0-24.0-0.0,0,0,5,,,,,,3.0,,1.0,,,,,,,,,,,,,,,,,,,,21.5,1.042,,
20,,isi,,html-keyboard-response,20,46938,0.0-1.0-26.0,0,0,5,,,,,,3.0,,1.0,,,,,,,,,,,,,,,,,,,,22.5,1.0,,
21,,feedback,,html-keyboard-response,21,47941,0.0-1.0-27.0-0.0,0,0,5,,,,,,3.0,,1.0,,,,,,,,,,,,,,,,,,,,23.5,1.0,,
22,,iti,,html-keyboard-response,22,49443,0.0-1.0-28.0,0,0,5,,,,,,3.0,,1.0,,,,,,,,,,,,,,,,,,,,25.0,1.5,,
23,,rl_choice,,html-keyboard-response,23,50095,0.0-1.0-30.0,0,0,5,,650.0,,,50.0,4.0,4.0,1.0,hard,1500.0,3000.0,0.0,40.0,60.0,40.0,60.0,B,A,/static/Simple_RL/Stimuli/Fractals_stims/B.jpg,/static/Simple_RL/Stimuli/Fractals_stims/A.jpg,1.0,40.0,60.0,40.0,60.0,B,A,25.65,0.65,0.0,
24,,rl_choice_confirmation,,html-keyboard-response,24,50949,0.0-1.0-31.0-0.0,0,0,5,,,,,,4.0,,1.0,,,,,,,,,,,,,,,,,,,,26.5,0.85,,
25,,isi,,html-keyboard-response,25,53951,0.0-1.0-33.0,0,0,5,,,,,,4.0,,1.0,,,,,,,,,,,,,,,,,,,,29.5,3.0,,
26,,feedback,,html-keyboard-response,26,54955,0.0-1.0-34.0-0.0,0,0,5,,,,,,4.0,,1.0,,,,,,,,,,,,,,,,,,,,30.5,1.0,,
27,,iti,,html-keyboard-response,27,56457,0.0-1.0-35.0,0,0,5,,,,,,4.0,,1.0,,,,,,,,,,,,,,,,,,,,32.0,1.5,,
28,,rl_choice,,html-keyboard-response,28,57145,0.0-1.0-37.0,0,0,5,,685.0,,,50.0,5.0,5.0,1.0,easy,1500.0,1500.0,1.0,80.0,20.0,80.0,0.0,C,D,/static/Simple_RL/Stimuli/Fractals_stims/C.jpg,/static/Simple_RL/Stimuli/Fractals_stims/D.jpg,1.0,80.0,20.0,80.0,0.0,C,D,32.685,0.685,0.0,
29,,rl_choice_confirmation,,html-keyboard-response,29,57963,0.0-1.0-38.0-0.0,0,0,5,,,,,,5.0,,1.0,,,,,,,,,,,,,,,,,,,,33.5,0.815,,
30,,isi,,html-keyboard-response,30,59465,0.0-1.0-40.0,0,0,5,,,,,,5.0,,1.0,,,,,,,,,,,,,,,,,,,,35.0,1.5,,
31,,feedback,,html-keyboard-response,31,60468,0.0-1.0-41.0-0.0,0,0,5,,,,,,5.0,,1.0,,,,,,,,,,,,,,,,,,,,36.0,1.0,,
32,,iti,,html-keyboard-response,32,61971,0.0-1.0-42.0,0,0,5,,,,,,5.0,,1.0,,,,,,,,,,,,,,,,,,,,37.5,1.5,,
33,,rl_choice,,html-keyboard-response,33,62274,0.0-1.0-44.0,0,0,5,,300.0,,,50.0,6.0,6.0,1.0,easy,1000.0,1000.0,1.0,80.0,20.0,60.0,40.0,C,D,/static/Simple_RL/Stimuli/Fractals_stims/C.jpg,/static/Simple_RL/Stimuli/Fractals_stims/D.jpg,1.0,80.0,20.0,60.0,40.0,C,D,37.8,0.3,0.0,
34,,rl_choice_confirmation,,html-keyboard-response,34,63476,0.0-1.0-45.0-0.0,0,0,5,,,,,,6.0,,1.0,,,,,,,,,,,,,,,,,,,,39.0,1.2,,
35,,isi,,html-keyboard-response,35,64478,0.0-1.0-47.0,0,0,5,,,,,,6.0,,1.0,,,,,,,,,,,,,,,,,,,,40.0,1.0,,
36,,feedback,,html-keyboard-response,36,65482,0.0-1.0-48.0-0.0,0,0,5,,,,,,6.0,,1.0,,,,,,,,,,,,,,,,,,,,41.0,1.0,,
37,,iti,,html-keyboard-response,37,66483,0.0-1.0-49.0,0,0,5,,,,,,6.0,,1.0,,,,,,,,,,,,,,,,,,,,42.0,1.0,,
38,,rl_choice,,html-keyboard-response,38,66853,0.0-1.0-51.0,0,0,5,,368.0,,,50.0,7.0,7.0,1.0,easy,3000.0,2000.0,0.0,20.0,80.0,0.0,80.0,D,C,/static/Simple_RL/Stimuli/Fractals_stims/D.jpg,/static/Simple_RL/Stimuli/Fractals_stims/C.jpg,1.0,20.0,80.0,0.0,80.0,D,C,42.368,0.368,0.0,
39,,rl_choice_confirmation,,html-keyboard-response,39,67986,0.0-1.0-52.0-0.0,0,0,5,,,,,,7.0,,1.0,,,,,,,,,,,,,,,,,,,,43.5,1.132,,
40,,isi,,html-keyboard-response,40,69988,0.0-1.0-54.0,0,0,5,,,,,,7.0,,1.0,,,,,,,,,,,,,,,,,,,,45.5,2.0,,
41,,feedback,,html-keyboard-response,41,70991,0.0-1.0-55.0-0.0,0,0,5,,,,,,7.0,,1.0,,,,,,,,,,,,,,,,,,,,46.5,1.0,,
42,,iti,,html-keyboard-response,42,73994,0.0-1.0-56.0,0,0,5,,,,,,7.0,,1.0,,,,,,,,,,,,,,,,,,,,49.5,3.0,,
43,,rl_choice,,html-keyboard-response,43,74440,0.0-1.0-58.0,0,0,5,,445.0,,,50.0,8.0,8.0,1.0,hard,2000.0,3500.0,0.0,40.0,60.0,40.0,60.0,B,A,/static/Simple_RL/Stimuli/Fractals_stims/B.jpg,/static/Simple_RL/Stimuli/Fractals_stims/A.jpg,1.0,40.0,60.0,40.0,60.0,B,A,49.945,0.445,0.0,
44,,rl_choice_confirmation,,html-keyboard-response,44,75499,0.0-1.0-59.0-0.0,0,0,5,,,,,,8.0,,1.0,,,,,,,,,,,,,,,,,,,,51.0,1.055,,
45,,isi,,html-keyboard-response,45,79001,0.0-1.0-61.0,0,0,5,,,,,,8.0,,1.0,,,,,,,,,,,,,,,,,,,,54.5,3.5,,
46,,feedback,,html-keyboard-response,46,80004,0.0-1.0-62.0-0.0,0,0,5,,,,,,8.0,,1.0,,,,,,,,,,,,,,,,,,,,55.5,1.0,,
47,,iti,,html-keyboard-response,47,82006,0.0-1.0-63.0,0,0,5,,,,,,8.0,,1.0,,,,,,,,,,,,,,,,,,,,57.5,2.0,,
48,,rl_choice,,html-keyboard-response,48,83092,0.0-1.0-65.0,0,0,5,,1084.0,,,50.0,9.0,9.0,1.0,hard,2000.0,1000.0,1.0,60.0,40.0,60.0,20.0,A,B,/static/Simple_RL/Stimuli/Fractals_stims/A.jpg,/static/Simple_RL/Stimuli/Fractals_stims/B.jpg,1.0,60.0,40.0,60.0,20.0,A,B,58.584,1.084,0.0,
49,,rl_choice_confirmation,,html-keyboard-response,49,83512,0.0-1.0-66.0-0.0,0,0,5,,,,,,9.0,,1.0,,,,,,,,,,,,,,,,,,,,59.0,0.416,,
50,,isi,,html-keyboard-response,50,84514,0.0-1.0-68.0,0,0,5,,,,,,9.0,,1.0,,,,,,,,,,,,,,,,,,,,60.0,1.0,,
51,,feedback,,html-keyboard-response,51,85517,0.0-1.0-69.0-0.0,0,0,5,,,,,,9.0,,1.0,,,,,,,,,,,,,,,,,,,,61.0,1.0,,
52,,iti,,html-keyboard-response,52,87520,0.0-1.0-70.0,0,0,5,,,,,,9.0,,1.0,,,,,,,,,,,,,,,,,,,,63.0,2.0,,
53,,rl_choice,,html-keyboard-response,53,88504,0.0-1.0-72.0,0,0,5,,983.0,,,50.0,10.0,10.0,1.0,easy,1000.0,1000.0,0.0,20.0,80.0,0.0,80.0,D,C,/static/Simple_RL/Stimuli/Fractals_stims/D.jpg,/static/Simple_RL/Stimuli/Fractals_stims/C.jpg,1.0,20.0,80.0,0.0,80.0,D,C,63.983,0.983,0.0,
54,,rl_choice_confirmation,,html-keyboard-response,54,89025,0.0-1.0-73.0-0.0,0,0,5,,,,,,10.0,,1.0,,,,,,,,,,,,,,,,,,,,64.5,0.517,,
55,,isi,,html-keyboard-response,55,90027,0.0-1.0-75.0,0,0,5,,,,,,10.0,,1.0,,,,,,,,,,,,,,,,,,,,65.5,1.0,,
56,,feedback,,html-keyboard-response,56,91031,0.0-1.0-76.0-0.0,0,0,5,,,,,,10.0,,1.0,,,,,,,,,,,,,,,,,,,,66.5,1.0,,
57,,iti,,html-keyboard-response,57,92034,0.0-1.0-77.0,0,0,5,,,,,,10.0,,1.0,,,,,,,,,,,,,,,,,,,,67.5,1.0,,
58,,rl_choice,,html-keyboard-response,58,92832,0.0-1.0-79.0,0,0,5,,797.0,,,50.0,11.0,11.0,1.0,hard,1000.0,2000.0,0.0,40.0,60.0,40.0,60.0,B,A,/static/Simple_RL/Stimuli/Fractals_stims/B.jpg,/static/Simple_RL/Stimuli/Fractals_stims/A.jpg,1.0,40.0,60.0,40.0,60.0,B,A,68.297,0.797,0.0,
59,,rl_choice_confirmation,,html-keyboard-response,59,93538,0.0-1.0-80.0-0.0,0,0,5,,,,,,11.0,,1.0,,,,,,,,,,,,,,,,,,,,69.0,0.703,,
60,,isi,,html-keyboard-response,60,95541,0.0-1.0-82.0,0,0,5,,,,,,11.0,,1.0,,,,,,,,,,,,,,,,,,,,71.0,2.0,,
61,,feedback,,html-keyboard-response,61,96543,0.0-1.0-83.0-0.0,0,0,5,,,,,,11.0,,1.0,,,,,,,,,,,,,,,,,,,,72.0,1.0,,
62,,iti,,html-keyboard-response,62,97545,0.0-1.0-84.0,0,0,5,,,,,,11.0,,1.0,,,,,,,,,,,,,,,,,,,,73.0,1.0,,
63,,rl_choice,,html-keyboard-response,63,99048,0.0-1.0-86.0,0,0,5,,,,,,12.0,12.0,1.0,hard,1000.0,1000.0,0.0,40.0,60.0,60.0,80.0,B,A,/static/Simple_RL/Stimuli/Fractals_stims/B.jpg,/static/Simple_RL/Stimuli/Fractals_stims/A.jpg,,,,,,,,74.5,1.5,1.0,
64,,rl_choice_warning,,html-keyboard-response,64,100051,0.0-1.0-88.0-0.0,0,0,5,,,,,,12.0,,1.0,,,,,,,,,,,,,,,,,,,,75.5,1.0,,
65,,isi,,html-keyboard-response,65,101053,0.0-1.0-89.0,0,0,5,,,,,,12.0,,1.0,,,,,,,,,,,,,,,,,,,,76.5,1.0,,
66,,iti,,html-keyboard-response,66,102056,0.0-1.0-91.0,0,0,5,,,,,,12.0,,1.0,,,,,,,,,,,,,,,,,,,,77.5,1.0,,
67,,rl_choice,,html-keyboard-response,67,103560,0.0-1.0-93.0,0,0,5,,,,,,13.0,13.0,1.0,hard,3000.0,1500.0,1.0,60.0,40.0,40.0,60.0,A,B,/static/Simple_RL/Stimuli/Fractals_stims/A.jpg,/static/Simple_RL/Stimuli/Fractals_stims/B.jpg,,,,,,,,79.0,1.5,1.0,
68,,rl_choice_warning,,html-keyboard-response,68,104562,0.0-1.0-95.0-0.0,0,0,5,,,,,,13.0,,1.0,,,,,,,,,,,,,,,,,,,,80.0,1.0,,
69,,isi,,html-keyboard-response,69,106065,0.0-1.0-96.0,0,0,5,,,,,,13.0,,1.0,,,,,,,,,,,,,,,,,,,,81.5,1.5,,
70,,iti,,html-keyboard-response,70,109067,0.0-1.0-98.0,0,0,5,,,,,,13.0,,1.0,,,,,,,,,,,,,,,,,,,,84.5,3.0,,
71,,rl_choice,,html-keyboard-response,71,110570,0.0-1.0-100.0,0,0,5,,,,,,14.0,14.0,1.0,easy,1500.0,1000.0,1.0,80.0,20.0,100.0,40.0,C,D,/static/Simple_RL/Stimuli/Fractals_stims/C.jpg,/static/Simple_RL/Stimuli/Fractals_stims/D.jpg,,,,,,,,86.0,1.5,1.0,
72,,rl_choice_warning,,html-keyboard-response,72,111573,0.0-1.0-102.0-0.0,0,0,5,,,,,,14.0,,1.0,,,,,,,,,,,,,,,,,,,,87.0,1.0,,
73,,isi,,html-keyboard-response,73,112574,0.0-1.0-103.0,0,0,5,,,,,,14.0,,1.0,,,,,,,,,,,,,,,,,,,,88.0,1.0,,
74,,iti,,html-keyboard-response,74,114076,0.0-1.0-105.0,0,0,5,,,,,,14.0,,1.0,,,,,,,,,,,,,,,,,,,,89.5,1.5,,
75,,rl_choice,,html-keyboard-response,75,115579,0.0-1.0-107.0,0,0,5,,,,,,15.0,15.0,1.0,hard,1000.0,3000.0,1.0,60.0,40.0,60.0,60.0,A,B,/static/Simple_RL/Stimuli/Fractals_stims/A.jpg,/static/Simple_RL/Stimuli/Fractals_stims/B.jpg,,,,,,,,91.0,1.5,1.0,
76,,rl_choice_warning,,html-keyboard-response,76,116581,0.0-1.0-109.0-0.0,0,0,5,,,,,,15.0,,1.0,,,,,,,,,,,,,,,,,,,,92.0,1.0,,
77,,isi,,html-keyboard-response,77,119584,0.0-1.0-110.0,0,0,5,,,,,,15.0,,1.0,,,,,,,,,,,,,,,,,,,,95.0,3.0,,
78,,iti,,html-keyboard-response,78,120587,0.0-1.0-112.0,0,0,5,,,,,,15.0,,1.0,,,,,,,,,,,,,,,,,,,,96.0,1.0,,
79,,rl_choice,,html-keyboard-response,79,122091,0.0-1.0-114.0,0,0,5,,,,,,16.0,16.0,1.0,hard,1500.0,1000.0,1.0,60.0,40.0,60.0,40.0,A,B,/static/Simple_RL/Stimuli/Fractals_stims/A.jpg,/static/Simple_RL/Stimuli/Fractals_stims/B.jpg,,,,,,,,97.5,1.5,1.0,
80,,rl_choice_warning,,html-keyboard-response,80,123093,0.0-1.0-116.0-0.0,0,0,5,,,,,,16.0,,1.0,,,,,,,,,,,,,,,,,,,,98.5,1.0,,
81,,isi,,html-keyboard-response,81,124095,0.0-1.0-117.0,0,0,5,,,,,,16.0,,1.0,,,,,,,,,,,,,,,,,,,,99.5,1.0,,
82,,iti,,html-keyboard-response,82,125598,0.0-1.0-119.0,0,0,5,,,,,,16.0,,1.0,,,,,,,,,,,,,,,,,,,,101.0,1.5,,
83,,rl_choice,,html-keyboard-response,83,127102,0.0-1.0-121.0,0,0,5,,,,,,17.0,17.0,1.0,easy,2000.0,2000.0,1.0,80.0,20.0,100.0,40.0,C,D,/static/Simple_RL/Stimuli/Fractals_stims/C.jpg,/static/Simple_RL/Stimuli/Fractals_stims/D.jpg,,,,,,,,102.5,1.5,1.0,
84,,rl_choice_warning,,html-keyboard-response,84,128104,0.0-1.0-123.0-0.0,0,0,5,,,,,,17.0,,1.0,,,,,,,,,,,,,,,,,,,,103.5,1.0,,
85,,isi,,html-keyboard-response,85,130106,0.0-1.0-124.0,0,0,5,,,,,,17.0,,1.0,,,,,,,,,,,,,,,,,,,,105.5,2.0,,
86,,iti,,html-keyboard-response,86,132107,0.0-1.0-126.0,0,0,5,,,,,,17.0,,1.0,,,,,,,,,,,,,,,,,,,,107.5,2.0,,
87,,rl_choice,,html-keyboard-response,87,133610,0.0-1.0-128.0,0,0,5,,,,,,18.0,18.0,1.0,hard,1000.0,1500.0,1.0,60.0,40.0,80.0,60.0,A,B,/static/Simple_RL/Stimuli/Fractals_stims/A.jpg,/static/Simple_RL/Stimuli/Fractals_stims/B.jpg,,,,,,,,109.0,1.5,1.0,
88,,rl_choice_warning,,html-keyboard-response,88,134611,0.0-1.0-130.0-0.0,0,0,5,,,,,,18.0,,1.0,,,,,,,,,,,,,,,,,,,,110.0,1.0,,
89,,isi,,html-keyboard-response,89,136112,0.0-1.0-131.0,0,0,5,,,,,,18.0,,1.0,,,,,,,,,,,,,,,,,,,,111.5,1.5,,
90,,iti,,html-keyboard-response,90,137114,0.0-1.0-133.0,0,0,5,,,,,,18.0,,1.0,,,,,,,,,,,,,,,,,,,,112.5,1.0,,
91,,rl_choice,,html-keyboard-response,91,138615,0.0-1.0-135.0,0,0,5,,,,,,19.0,19.0,1.0,hard,1000.0,1000.0,1.0,60.0,40.0,60.0,20.0,A,B,/static/Simple_RL/Stimuli/Fractals_stims/A.jpg,/static/Simple_RL/Stimuli/Fractals_stims/B.jpg,,,,,,,,114.0,1.5,1.0,
92,,rl_choice_warning,,html-keyboard-response,92,139616,0.0-1.0-137.0-0.0,0,0,5,,,,,,19.0,,1.0,,,,,,,,,,,,,,,,,,,,115.0,1.0,,
93,,isi,,html-keyboard-response,93,140618,0.0-1.0-138.0,0,0,5,,,,,,19.0,,1.0,,,,,,,,,,,,,,,,,,,,116.0,1.0,,
94,,iti,,html-keyboard-response,94,141620,0.0-1.0-140.0,0,0,5,,,,,,19.0,,1.0,,,,,,,,,,,,,,,,,,,,117.0,1.0,,
95,,rl_choice,,html-keyboard-response,95,143124,0.0-1.0-142.0,0,0,5,,,,,,20.0,20.0,1.0,easy,1000.0,1000.0,0.0,20.0,80.0,0.0,60.0,D,C,/static/Simple_RL/Stimuli/Fractals_stims/D.jpg,/static/Simple_RL/Stimuli/Fractals_stims/C.jpg,,,,,,,,118.5,1.5,1.0,
96,,rl_choice_warning,,html-keyboard-response,96,144127,0.0-1.0-144.0-0.0,0,0,5,,,,,,20.0,,1.0,,,,,,,,,,,,,,,,,,,,119.5,1.0,,
97,,isi,,html-keyboard-response,97,145129,0.0-1.0-145.0,0,0,5,,,,,,20.0,,1.0,,,,,,,,,,,,,,,,,,,,120.5,1.0,,
98,,iti,,html-keyboard-response,98,146132,0.0-1.0-147.0,0,0,5,,,,,,20.0,,1.0,,,,,,,,,,,,,,,,,,,,121.5,1.0,,
99,,rl_choice,,html-keyboard-response,99,147636,0.0-1.0-149.0,0,0,5,,,,,,21.0,21.0,1.0,easy,2000.0,1500.0,1.0,80.0,20.0,60.0,20.0,C,D,/static/Simple_RL/Stimuli/Fractals_stims/C.jpg,/static/Simple_RL/Stimuli/Fractals_stims/D.jpg,,,,,,,,123.0,1.5,1.0,
100,,rl_choice_warning,,html-keyboard-response,100,148638,0.0-1.0-151.0-0.0,0,0,5,,,,,,21.0,,1.0,,,,,,,,,,,,,,,,,,,,124.0,1.0,,
101,,isi,,html-keyboard-response,101,150141,0.0-1.0-152.0,0,0,5,,,,,,21.0,,1.0,,,,,,,,,,,,,,,,,,,,125.5,1.5,,
102,,iti,,html-keyboard-response,102,152143,0.0-1.0-154.0,0,0,5,,,,,,21.0,,1.0,,,,,,,,,,,,,,,,,,,,127.5,2.0,,
103,,rl_choice,,html-keyboard-response,103,153646,0.0-1.0-156.0,0,0,5,,,,,,22.0,22.0,1.0,easy,1000.0,1000.0,1.0,80.0,20.0,100.0,0.0,C,D,/static/Simple_RL/Stimuli/Fractals_stims/C.jpg,/static/Simple_RL/Stimuli/Fractals_stims/D.jpg,,,,,,,,129.0,1.5,1.0,
104,,rl_choice_warning,,html-keyboard-response,104,154649,0.0-1.0-158.0-0.0,0,0,5,,,,,,22.0,,1.0,,,,,,,,,,,,,,,,,,,,130.0,1.0,,
105,,isi,,html-keyboard-response,105,155652,0.0-1.0-159.0,0,0,5,,,,,,22.0,,1.0,,,,,,,,,,,,,,,,,,,,131.0,1.0,,
106,,iti,,html-keyboard-response,106,156653,0.0-1.0-161.0,0,0,5,,,,,,22.0,,1.0,,,,,,,,,,,,,,,,,,,,132.0,1.0,,
107,,rl_choice,,html-keyboard-response,107,158157,0.0-1.0-163.0,0,0,5,,,,,,23.0,23.0,1.0,easy,1500.0,3000.0,1.0,80.0,20.0,80.0,20.0,C,D,/static/Simple_RL/Stimuli/Fractals_stims/C.jpg,/static/Simple_RL/Stimuli/Fractals_stims/D.jpg,,,,,,,,133.5,1.5,1.0,
108,,rl_choice_warning,,html-keyboard-response,108,159158,0.0-1.0-165.0-0.0,0,0,5,,,,,,23.0,,1.0,,,,,,,,,,,,,,,,,,,,134.5,1.0,,
109,,isi,,html-keyboard-response,109,162160,0.0-1.0-166.0,0,0,5,,,,,,23.0,,1.0,,,,,,,,,,,,,,,,,,,,137.5,3.0,,
110,,iti,,html-keyboard-response,110,163662,0.0-1.0-168.0,0,0,5,,,,,,23.0,,1.0,,,,,,,,,,,,,,,,,,,,139.0,1.5,,
111,,rl_choice,,html-keyboard-response,111,165167,0.0-1.0-170.0,0,0,5,,,,,,24.0,24.0,1.0,hard,2000.0,1500.0,0.0,40.0,60.0,40.0,60.0,B,A,/static/Simple_RL/Stimuli/Fractals_stims/B.jpg,/static/Simple_RL/Stimuli/Fractals_stims/A.jpg,,,,,,,,140.5,1.5,1.0,
112,,rl_choice_warning,,html-keyboard-response,112,166170,0.0-1.0-172.0-0.0,0,0,5,,,,,,24.0,,1.0,,,,,,,,,,,,,,,,,,,,141.5,1.0,,
113,,isi,,html-keyboard-response,113,167673,0.0-1.0-173.0,0,0,5,,,,,,24.0,,1.0,,,,,,,,,,,,,,,,,,,,143.0,1.5,,
114,,iti,,html-keyboard-response,114,169675,0.0-1.0-175.0,0,0,5,,,,,,24.0,,1.0,,,,,,,,,,,,,,,,,,,,145.0,2.0,,
115,,rl_choice,,html-keyboard-response,115,171177,0.0-1.0-177.0,0,0,5,,,,,,25.0,25.0,1.0,hard,3000.0,1500.0,1.0,60.0,40.0,40.0,40.0,A,B,/static/Simple_RL/Stimuli/Fractals_stims/A.jpg,/static/Simple_RL/Stimuli/Fractals_stims/B.jpg,,,,,,,,146.5,1.5,1.0,
116,,rl_choice_warning,,html-keyboard-response,116,172180,0.0-1.0-179.0-0.0,0,0,5,,,,,,25.0,,1.0,,,,,,,,,,,,,,,,,,,,147.5,1.0,,
117,,isi,,html-keyboard-response,117,173683,0.0-1.0-180.0,0,0,5,,,,,,25.0,,1.0,,,,,,,,,,,,,,,,,,,,149.0,1.5,,
118,,iti,,html-keyboard-response,118,176685,0.0-1.0-182.0,0,0,5,,,,,,25.0,,1.0,,,,,,,,,,,,,,,,,,,,152.0,3.0,,
119,,rl_choice,,html-keyboard-response,119,178188,0.0-1.0-184.0,0,0,5,,,,,,26.0,26.0,1.0,hard,1000.0,2000.0,0.0,40.0,60.0,40.0,80.0,B,A,/static/Simple_RL/Stimuli/Fractals_stims/B.jpg,/static/Simple_RL/Stimuli/Fractals_stims/A.jpg,,,,,,,,153.5,1.5,1.0,
120,,rl_choice_warning,,html-keyboard-response,120,179190,0.0-1.0-186.0-0.0,0,0,5,,,,,,26.0,,1.0,,,,,,,,,,,,,,,,,,,,154.5,1.0,,
121,,isi,,html-keyboard-response,121,181192,0.0-1.0-187.0,0,0,5,,,,,,26.0,,1.0,,,,,,,,,,,,,,,,,,,,156.5,2.0,,
122,,iti,,html-keyboard-response,122,182194,0.0-1.0-189.0,0,0,5,,,,,,26.0,,1.0,,,,,,,,,,,,,,,,,,,,157.5,1.0,,
123,,rl_choice,,html-keyboard-response,123,183697,0.0-1.0-191.0,0,0,5,,,,,,27.0,27.0,1.0,easy,3000.0,1000.0,1.0,80.0,20.0,80.0,40.0,C,D,/static/Simple_RL/Stimuli/Fractals_stims/C.jpg,/static/Simple_RL/Stimuli/Fractals_stims/D.jpg,,,,,,,,159.0,1.5,1.0,
124,,rl_choice_warning,,html-keyboard-response,124,184699,0.0-1.0-193.0-0.0,0,0,5,,,,,,27.0,,1.0,,,,,,,,,,,,,,,,,,,,160.0,1.0,,
125,,isi,,html-keyboard-response,125,185702,0.0-1.0-194.0,0,0,5,,,,,,27.0,,1.0,,,,,,,,,,,,,,,,,,,,161.0,1.0,,
126,,iti,,html-keyboard-response,126,188705,0.0-1.0-196.0,0,0,5,,,,,,27.0,,1.0,,,,,,,,,,,,,,,,,,,,164.0,3.0,,
127,,rl_choice,,html-keyboard-response,127,190207,0.0-1.0-198.0,0,0,5,,,,,,28.0,28.0,1.0,easy,1000.0,3500.0,1.0,80.0,20.0,60.0,20.0,C,D,/static/Simple_RL/Stimuli/Fractals_stims/C.jpg,/static/Simple_RL/Stimuli/Fractals_stims/D.jpg,,,,,,,,165.5,1.5,1.0,
128,,rl_choice_warning,,html-keyboard-response,128,191210,0.0-1.0-200.0-0.0,0,0,5,,,,,,28.0,,1.0,,,,,,,,,,,,,,,,,,,,166.5,1.0,,
129,,isi,,html-keyboard-response,129,194711,0.0-1.0-201.0,0,0,5,,,,,,28.0,,1.0,,,,,,,,,,,,,,,,,,,,170.0,3.5,,
130,,iti,,html-keyboard-response,130,196163,0.0-1.0-203.0,0,0,5,,,,,,28.0,,1.0,,,,,,,,,,,,,,,,,,,,171.0,1.0,,
131,,rl_choice,,html-keyboard-response,131,198193,0.0-1.0-205.0,0,0,5,,,,,,29.0,29.0,1.0,hard,1500.0,1000.0,0.0,40.0,60.0,60.0,40.0,B,A,/static/Simple_RL/Stimuli/Fractals_stims/B.jpg,/static/Simple_RL/Stimuli/Fractals_stims/A.jpg,,,,,,,,172.5,1.5,1.0,
132,,rl_choice_warning,,html-keyboard-response,132,205945,0.0-1.0-207.0-0.0,0,0,5,,,,,,29.0,,1.0,,,,,,,,,,,,,,,,,,,,173.5,1.0,,
133,,isi,,html-keyboard-response,133,218571,0.0-1.0-208.0,0,0,5,,,,,,29.0,,1.0,,,,,,,,,,,,,,,,,,,,174.5,1.0,,
134,,iti,,html-keyboard-response,134,234534,0.0-1.0-210.0,0,0,5,,,,,,29.0,,1.0,,,,,,,,,,,,,,,,,,,,176.0,1.5,,
135,,rl_choice,,html-keyboard-response,135,236037,0.0-1.0-212.0,0,0,5,,,,,,30.0,30.0,1.0,easy,1000.0,1500.0,1.0,80.0,20.0,100.0,20.0,C,D,/static/Simple_RL/Stimuli/Fractals_stims/C.jpg,/static/Simple_RL/Stimuli/Fractals_stims/D.jpg,,,,,,,,177.5,1.5,1.0,
136,,rl_choice_warning,,html-keyboard-response,136,237039,0.0-1.0-214.0-0.0,0,0,5,,,,,,30.0,,1.0,,,,,,,,,,,,,,,,,,,,178.5,1.0,,
137,,isi,,html-keyboard-response,137,238541,0.0-1.0-215.0,0,0,5,,,,,,30.0,,1.0,,,,,,,,,,,,,,,,,,,,180.0,1.5,,
138,,iti,,html-keyboard-response,138,239832,0.0-1.0-217.0,0,0,5,,,,,,30.0,,1.0,,,,,,,,,,,,,,,,,,,,181.0,1.0,,
139,,rl_choice,,html-keyboard-response,139,241333,0.0-1.0-219.0,0,0,5,,,,,,31.0,31.0,1.0,easy,2000.0,1500.0,0.0,20.0,80.0,40.0,100.0,D,C,/static/Simple_RL/Stimuli/Fractals_stims/D.jpg,/static/Simple_RL/Stimuli/Fractals_stims/C.jpg,,,,,,,,182.5,1.5,1.0,
140,,rl_choice_warning,,html-keyboard-response,140,242335,0.0-1.0-221.0-0.0,0,0,5,,,,,,31.0,,1.0,,,,,,,,,,,,,,,,,,,,183.5,1.0,,
141,,isi,,html-keyboard-response,141,243838,0.0-1.0-222.0,0,0,5,,,,,,31.0,,1.0,,,,,,,,,,,,,,,,,,,,185.0,1.5,,
142,,iti,,html-keyboard-response,142,245841,0.0-1.0-224.0,0,0,5,,,,,,31.0,,1.0,,,,,,,,,,,,,,,,,,,,187.0,2.0,,
143,,rl_choice,,html-keyboard-response,143,247344,0.0-1.0-226.0,0,0,5,,,,,,32.0,32.0,1.0,hard,1500.0,1000.0,0.0,40.0,60.0,40.0,80.0,B,A,/static/Simple_RL/Stimuli/Fractals_stims/B.jpg,/static/Simple_RL/Stimuli/Fractals_stims/A.jpg,,,,,,,,188.5,1.5,1.0,
144,,rl_choice_warning,,html-keyboard-response,144,248346,0.0-1.0-228.0-0.0,0,0,5,,,,,,32.0,,1.0,,,,,,,,,,,,,,,,,,,,189.5,1.0,,
145,,isi,,html-keyboard-response,145,249348,0.0-1.0-229.0,0,0,5,,,,,,32.0,,1.0,,,,,,,,,,,,,,,,,,,,190.5,1.0,,
146,,iti,,html-keyboard-response,146,250851,0.0-1.0-231.0,0,0,5,,,,,,32.0,,1.0,,,,,,,,,,,,,,,,,,,,192.0,1.5,,
147,,rl_choice,,html-keyboard-response,147,252353,0.0-1.0-233.0,0,0,5,,,,,,33.0,33.0,1.0,easy,1000.0,1000.0,0.0,20.0,80.0,40.0,100.0,D,C,/static/Simple_RL/Stimuli/Fractals_stims/D.jpg,/static/Simple_RL/Stimuli/Fractals_stims/C.jpg,,,,,,,,193.5,1.5,1.0,
148,,rl_choice_warning,,html-keyboard-response,148,253355,0.0-1.0-235.0-0.0,0,0,5,,,,,,33.0,,1.0,,,,,,,,,,,,,,,,,,,,194.5,1.0,,
149,,isi,,html-keyboard-response,149,254357,0.0-1.0-236.0,0,0,5,,,,,,33.0,,1.0,,,,,,,,,,,,,,,,,,,,195.5,1.0,,
150,,iti,,html-keyboard-response,150,255359,0.0-1.0-238.0,0,0,5,,,,,,33.0,,1.0,,,,,,,,,,,,,,,,,,,,196.5,1.0,,
151,,rl_choice,,html-keyboard-response,151,256864,0.0-1.0-240.0,0,0,5,,,,,,34.0,34.0,1.0,easy,3500.0,3000.0,1.0,80.0,20.0,80.0,40.0,C,D,/static/Simple_RL/Stimuli/Fractals_stims/C.jpg,/static/Simple_RL/Stimuli/Fractals_stims/D.jpg,,,,,,,,198.0,1.5,1.0,
152,,rl_choice_warning,,html-keyboard-response,152,257866,0.0-1.0-242.0-0.0,0,0,5,,,,,,34.0,,1.0,,,,,,,,,,,,,,,,,,,,199.0,1.0,,
153,,isi,,html-keyboard-response,153,260868,0.0-1.0-243.0,0,0,5,,,,,,34.0,,1.0,,,,,,,,,,,,,,,,,,,,202.0,3.0,,
154,,iti,,html-keyboard-response,154,264370,0.0-1.0-245.0,0,0,5,,,,,,34.0,,1.0,,,,,,,,,,,,,,,,,,,,205.5,3.5,,
155,,rl_choice,,html-keyboard-response,155,265873,0.0-1.0-247.0,0,0,5,,,,,,35.0,35.0,1.0,easy,1500.0,2000.0,1.0,80.0,20.0,60.0,40.0,C,D,/static/Simple_RL/Stimuli/Fractals_stims/C.jpg,/static/Simple_RL/Stimuli/Fractals_stims/D.jpg,,,,,,,,207.0,1.5,1.0,
156,,rl_choice_warning,,html-keyboard-response,156,266876,0.0-1.0-249.0-0.0,0,0,5,,,,,,35.0,,1.0,,,,,,,,,,,,,,,,,,,,208.0,1.0,,
157,,isi,,html-keyboard-response,157,268878,0.0-1.0-250.0,0,0,5,,,,,,35.0,,1.0,,,,,,,,,,,,,,,,,,,,210.0,2.0,,
158,,iti,,html-keyboard-response,158,270381,0.0-1.0-252.0,0,0,5,,,,,,35.0,,1.0,,,,,,,,,,,,,,,,,,,,211.5,1.5,,
159,,rl_choice,,html-keyboard-response,159,271885,0.0-1.0-254.0,0,0,5,,,,,,36.0,36.0,1.0,easy,1500.0,1500.0,0.0,20.0,80.0,20.0,100.0,D,C,/static/Simple_RL/Stimuli/Fractals_stims/D.jpg,/static/Simple_RL/Stimuli/Fractals_stims/C.jpg,,,,,,,,213.0,1.5,1.0,
160,,rl_choice_warning,,html-keyboard-response,160,272887,0.0-1.0-256.0-0.0,0,0,5,,,,,,36.0,,1.0,,,,,,,,,,,,,,,,,,,,214.0,1.0,,
161,,isi,,html-keyboard-response,161,274390,0.0-1.0-257.0,0,0,5,,,,,,36.0,,1.0,,,,,,,,,,,,,,,,,,,,215.5,1.5,,
162,,iti,,html-keyboard-response,162,275893,0.0-1.0-259.0,0,0,5,,,,,,36.0,,1.0,,,,,,,,,,,,,,,,,,,,217.0,1.5,,
163,,rl_choice,,html-keyboard-response,163,277395,0.0-1.0-261.0,0,0,5,,,,,,37.0,37.0,1.0,hard,2000.0,1000.0,1.0,60.0,40.0,60.0,40.0,A,B,/static/Simple_RL/Stimuli/Fractals_stims/A.jpg,/static/Simple_RL/Stimuli/Fractals_stims/B.jpg,,,,,,,,218.5,1.5,1.0,
164,,rl_choice_warning,,html-keyboard-response,164,278401,0.0-1.0-263.0-0.0,0,0,5,,,,,,37.0,,1.0,,,,,,,,,,,,,,,,,,,,219.5,1.0,,
165,,isi,,html-keyboard-response,165,279403,0.0-1.0-264.0,0,0,5,,,,,,37.0,,1.0,,,,,,,,,,,,,,,,,,,,220.5,1.0,,
166,,iti,,html-keyboard-response,166,281405,0.0-1.0-266.0,0,0,5,,,,,,37.0,,1.0,,,,,,,,,,,,,,,,,,,,222.5,2.0,,
167,,rl_choice,,html-keyboard-response,167,282908,0.0-1.0-268.0,0,0,5,,,,,,38.0,38.0,1.0,hard,1000.0,1500.0,0.0,40.0,60.0,20.0,40.0,B,A,/static/Simple_RL/Stimuli/Fractals_stims/B.jpg,/static/Simple_RL/Stimuli/Fractals_stims/A.jpg,,,,,,,,224.0,1.5,1.0,
168,,rl_choice_warning,,html-keyboard-response,168,283913,0.0-1.0-270.0-0.0,0,0,5,,,,,,38.0,,1.0,,,,,,,,,,,,,,,,,,,,225.0,1.0,,
169,,isi,,html-keyboard-response,169,285415,0.0-1.0-271.0,0,0,5,,,,,,38.0,,1.0,,,,,,,,,,,,,,,,,,,,226.5,1.5,,
170,,iti,,html-keyboard-response,170,286415,0.0-1.0-273.0,0,0,5,,,,,,38.0,,1.0,,,,,,,,,,,,,,,,,,,,227.5,1.0,,
171,,rl_choice,,html-keyboard-response,171,287918,0.0-1.0-275.0,0,0,5,,,,,,39.0,39.0,1.0,easy,1000.0,1000.0,0.0,20.0,80.0,0.0,60.0,D,C,/static/Simple_RL/Stimuli/Fractals_stims/D.jpg,/static/Simple_RL/Stimuli/Fractals_stims/C.jpg,,,,,,,,229.0,1.5,1.0,
172,,rl_choice_warning,,html-keyboard-response,172,288920,0.0-1.0-277.0-0.0,0,0,5,,,,,,39.0,,1.0,,,,,,,,,,,,,,,,,,,,230.0,1.0,,
173,,isi,,html-keyboard-response,173,289923,0.0-1.0-278.0,0,0,5,,,,,,39.0,,1.0,,,,,,,,,,,,,,,,,,,,231.0,1.0,,
174,,iti,,html-keyboard-response,174,290924,0.0-1.0-280.0,0,0,5,,,,,,39.0,,1.0,,,,,,,,,,,,,,,,,,,,232.0,1.0,,
175,,block_over,,html-keyboard-response,175,621763,0.0-1.0-281.0-0.0,0,0,5,,330836.0,,,50.0,39.0,,,,,,,,,,,,,,,,,,,,,,,,,
176,,start_run,,html-keyboard-response,176,623200,0.0-1.0-281.0-1.0,0,0,5,,1432.0,,,84.0,,,,,,,,,,,,,,,,,,,,,,,,,,
177,,rl_choice,,html-keyboard-response,177,623705,0.0-1.0-282.0,0,0,5,,499.0,,,50.0,40.0,40.0,2.0,easy,1500.0,2000.0,1.0,80.0,20.0,60.0,20.0,C,D,/static/Simple_RL/Stimuli/Fractals_stims/C.jpg,/static/Simple_RL/Stimuli/Fractals_stims/D.jpg,1.0,80.0,20.0,60.0,20.0,C,D,0.499,0.499,0.0,
178,,rl_choice_confirmation,,html-keyboard-response,178,624712,0.0-1.0-283.0-0.0,0,0,5,,,,,,40.0,,2.0,,,,,,,,,,,,,,,,,,,,1.5,1.001,,
179,,isi,,html-keyboard-response,179,626719,0.0-1.0-285.0,0,0,5,,,,,,40.0,,2.0,,,,,,,,,,,,,,,,,,,,3.5,2.0,,
180,,feedback,,html-keyboard-response,180,627732,0.0-1.0-286.0-0.0,0,0,5,,,,,,40.0,,2.0,,,,,,,,,,,,,,,,,,,,4.5,1.0,,
181,,iti,,html-keyboard-response,181,629234,0.0-1.0-287.0,0,0,5,,,,,,40.0,,2.0,,,,,,,,,,,,,,,,,,,,6.0,1.5,,
182,,rl_choice,,html-keyboard-response,182,629677,0.0-1.0-289.0,0,0,5,,439.0,,,50.0,41.0,41.0,2.0,hard,1000.0,2000.0,0.0,40.0,60.0,60.0,60.0,B,A,/static/Simple_RL/Stimuli/Fractals_stims/B.jpg,/static/Simple_RL/Stimuli/Fractals_stims/A.jpg,1.0,40.0,60.0,60.0,60.0,B,A,6.439,0.439,0.0,
183,,rl_choice_confirmation,,html-keyboard-response,183,630741,0.0-1.0-290.0-0.0,0,0,5,,,,,,41.0,,2.0,,,,,,,,,,,,,,,,,,,,7.5,1.061,,
184,,isi,,html-keyboard-response,184,632744,0.0-1.0-292.0,0,0,5,,,,,,41.0,,2.0,,,,,,,,,,,,,,,,,,,,9.5,2.0,,
185,,feedback,,html-keyboard-response,185,633747,0.0-1.0-293.0-0.0,0,0,5,,,,,,41.0,,2.0,,,,,,,,,,,,,,,,,,,,10.5,1.0,,
186,,iti,,html-keyboard-response,186,634749,0.0-1.0-294.0,0,0,5,,,,,,41.0,,2.0,,,,,,,,,,,,,,,,,,,,11.5,1.0,,
187,,rl_choice,,html-keyboard-response,187,636253,0.0-1.0-296.0,0,0,5,,,,,,42.0,42.0,2.0,hard,1500.0,1000.0,0.0,40.0,60.0,20.0,80.0,B,A,/static/Simple_RL/Stimuli/Fractals_stims/B.jpg,/static/Simple_RL/Stimuli/Fractals_stims/A.jpg,,,,,,,,13.0,1.5,1.0,
188,,rl_choice_warning,,html-keyboard-response,188,637256,0.0-1.0-298.0-0.0,1,0,5,,,,,,42.0,,2.0,,,,,,,,,,,,,,,,,,,,14.0,1.0,,
189,,isi,,html-keyboard-response,189,638258,0.0-1.0-299.0,0,0,5,,,,,,42.0,,2.0,,,,,,,,,,,,,,,,,,,,15.0,1.0,,
190,,iti,,html-keyboard-response,190,639759,0.0-1.0-301.0,0,0,5,,,,,,42.0,,2.0,,,,,,,,,,,,,,,,,,,,16.5,1.5,,
191,,rl_choice,,html-keyboard-response,191,641274,0.0-1.0-303.0,0,0,5,,,,,,43.0,43.0,2.0,hard,1000.0,2000.0,0.0,40.0,60.0,20.0,80.0,B,A,/static/Simple_RL/Stimuli/Fractals_stims/B.jpg,/static/Simple_RL/Stimuli/Fractals_stims/A.jpg,,,,,,,,18.0,1.5,1.0,
192,,rl_choice_warning,,html-keyboard-response,192,642278,0.0-1.0-305.0-0.0,1,0,5,,,,,,43.0,,2.0,,,,,,,,,,,,,,,,,,,,19.0,1.0,,
193,,isi,,html-keyboard-response,193,644280,0.0-1.0-306.0,0,0,5,,,,,,43.0,,2.0,,,,,,,,,,,,,,,,,,,,21.0,2.0,,
194,,iti,,html-keyboard-response,194,645282,0.0-1.0-308.0,0,0,5,,,,,,43.0,,2.0,,,,,,,,,,,,,,,,,,,,22.0,1.0,,
195,,rl_choice,,html-keyboard-response,195,646784,0.0-1.0-310.0,0,0,5,,,,,,44.0,44.0,2.0,hard,1000.0,1000.0,0.0,40.0,60.0,40.0,40.0,B,A,/static/Simple_RL/Stimuli/Fractals_stims/B.jpg,/static/Simple_RL/Stimuli/Fractals_stims/A.jpg,,,,,,,,23.5,1.5,1.0,
196,,rl_choice_warning,,html-keyboard-response,196,647785,0.0-1.0-312.0-0.0,1,0,5,,,,,,44.0,,2.0,,,,,,,,,,,,,,,,,,,,24.5,1.0,,
197,,isi,,html-keyboard-response,197,648787,0.0-1.0-313.0,0,0,5,,,,,,44.0,,2.0,,,,,,,,,,,,,,,,,,,,25.5,1.0,,
198,,iti,,html-keyboard-response,198,649789,0.0-1.0-315.0,0,0,5,,,,,,44.0,,2.0,,,,,,,,,,,,,,,,,,,,26.5,1.0,,
199,,rl_choice,,html-keyboard-response,199,651295,0.0-1.0-317.0,0,0,5,,,,,,45.0,45.0,2.0,hard,2000.0,1500.0,0.0,40.0,60.0,20.0,40.0,B,A,/static/Simple_RL/Stimuli/Fractals_stims/B.jpg,/static/Simple_RL/Stimuli/Fractals_stims/A.jpg,,,,,,,,28.0,1.5,1.0,
200,,rl_choice_warning,,html-keyboard-response,200,652296,0.0-1.0-319.0-0.0,1,0,5,,,,,,45.0,,2.0,,,,,,,,,,,,,,,,,,,,29.0,1.0,,
201,,isi,,html-keyboard-response,201,653799,0.0-1.0-320.0,0,0,5,,,,,,45.0,,2.0,,,,,,,,,,,,,,,,,,,,30.5,1.5,,
202,,iti,,html-keyboard-response,202,655805,0.0-1.0-322.0,0,0,5,,,,,,45.0,,2.0,,,,,,,,,,,,,,,,,,,,32.5,2.0,,
203,,rl_choice,,html-keyboard-response,203,657309,0.0-1.0-324.0,0,0,5,,,,,,46.0,46.0,2.0,easy,1500.0,3000.0,0.0,20.0,80.0,0.0,80.0,D,C,/static/Simple_RL/Stimuli/Fractals_stims/D.jpg,/static/Simple_RL/Stimuli/Fractals_stims/C.jpg,,,,,,,,34.0,1.5,1.0,
204,,rl_choice_warning,,html-keyboard-response,204,658312,0.0-1.0-326.0-0.0,1,0,5,,,,,,46.0,,2.0,,,,,,,,,,,,,,,,,,,,35.0,1.0,,
205,,isi,,html-keyboard-response,205,661313,0.0-1.0-327.0,0,0,5,,,,,,46.0,,2.0,,,,,,,,,,,,,,,,,,,,38.0,3.0,,
206,,iti,,html-keyboard-response,206,662815,0.0-1.0-329.0,0,0,5,,,,,,46.0,,2.0,,,,,,,,,,,,,,,,,,,,39.5,1.5,,
207,,rl_choice,,html-keyboard-response,207,664319,0.0-1.0-331.0,0,0,5,,,,,,47.0,47.0,2.0,easy,1500.0,1000.0,0.0,20.0,80.0,20.0,80.0,D,C,/static/Simple_RL/Stimuli/Fractals_stims/D.jpg,/static/Simple_RL/Stimuli/Fractals_stims/C.jpg,,,,,,,,41.0,1.5,1.0,
208,,rl_choice_warning,,html-keyboard-response,208,665320,0.0-1.0-333.0-0.0,1,0,5,,,,,,47.0,,2.0,,,,,,,,,,,,,,,,,,,,42.0,1.0,,
209,,isi,,html-keyboard-response,209,666321,0.0-1.0-334.0,0,0,5,,,,,,47.0,,2.0,,,,,,,,,,,,,,,,,,,,43.0,1.0,,
210,,iti,,html-keyboard-response,210,667825,0.0-1.0-336.0,0,0,5,,,,,,47.0,,2.0,,,,,,,,,,,,,,,,,,,,44.5,1.5,,
211,,rl_choice,,html-keyboard-response,211,669329,0.0-1.0-338.0,0,0,5,,,,,,48.0,48.0,2.0,easy,2000.0,1000.0,1.0,80.0,20.0,80.0,20.0,C,D,/static/Simple_RL/Stimuli/Fractals_stims/C.jpg,/static/Simple_RL/Stimuli/Fractals_stims/D.jpg,,,,,,,,46.0,1.5,1.0,
212,,rl_choice_warning,,html-keyboard-response,212,670330,0.0-1.0-340.0-0.0,1,0,5,,,,,,48.0,,2.0,,,,,,,,,,,,,,,,,,,,47.0,1.0,,
213,,isi,,html-keyboard-response,213,671332,0.0-1.0-341.0,0,0,5,,,,,,48.0,,2.0,,,,,,,,,,,,,,,,,,,,48.0,1.0,,
214,,iti,,html-keyboard-response,214,673334,0.0-1.0-343.0,0,0,5,,,,,,48.0,,2.0,,,,,,,,,,,,,,,,,,,,50.0,2.0,,
215,,rl_choice,,html-keyboard-response,215,674836,0.0-1.0-345.0,0,0,5,,,,,,49.0,49.0,2.0,hard,1500.0,2000.0,0.0,40.0,60.0,60.0,60.0,B,A,/static/Simple_RL/Stimuli/Fractals_stims/B.jpg,/static/Simple_RL/Stimuli/Fractals_stims/A.jpg,,,,,,,,51.5,1.5,1.0,
216,,rl_choice_warning,,html-keyboard-response,216,675837,0.0-1.0-347.0-0.0,1,0,5,,,,,,49.0,,2.0,,,,,,,,,,,,,,,,,,,,52.5,1.0,,
217,,isi,,html-keyboard-response,217,677840,0.0-1.0-348.0,0,0,5,,,,,,49.0,,2.0,,,,,,,,,,,,,,,,,,,,54.5,2.0,,
218,,iti,,html-keyboard-response,218,679344,0.0-1.0-350.0,0,0,5,,,,,,49.0,,2.0,,,,,,,,,,,,,,,,,,,,56.0,1.5,,
219,,rl_choice,,html-keyboard-response,219,680848,0.0-1.0-352.0,0,0,5,,,,,,50.0,50.0,2.0,easy,1000.0,3500.0,0.0,20.0,80.0,0.0,100.0,D,C,/static/Simple_RL/Stimuli/Fractals_stims/D.jpg,/static/Simple_RL/Stimuli/Fractals_stims/C.jpg,,,,,,,,57.5,1.5,1.0,
220,,rl_choice_warning,,html-keyboard-response,220,681850,0.0-1.0-354.0-0.0,1,0,5,,,,,,50.0,,2.0,,,,,,,,,,,,,,,,,,,,58.5,1.0,,
221,,isi,,html-keyboard-response,221,685357,0.0-1.0-355.0,0,0,5,,,,,,50.0,,2.0,,,,,,,,,,,,,,,,,,,,62.0,3.5,,
222,,iti,,html-keyboard-response,222,686360,0.0-1.0-357.0,0,0,5,,,,,,50.0,,2.0,,,,,,,,,,,,,,,,,,,,63.0,1.0,,
223,,rl_choice,,html-keyboard-response,223,687865,0.0-1.0-359.0,0,0,5,,,,,,51.0,51.0,2.0,easy,1500.0,1000.0,1.0,80.0,20.0,60.0,20.0,C,D,/static/Simple_RL/Stimuli/Fractals_stims/C.jpg,/static/Simple_RL/Stimuli/Fractals_stims/D.jpg,,,,,,,,64.5,1.5,1.0,
224,,rl_choice_warning,,html-keyboard-response,224,688867,0.0-1.0-361.0-0.0,1,0,5,,,,,,51.0,,2.0,,,,,,,,,,,,,,,,,,,,65.5,1.0,,
225,,isi,,html-keyboard-response,225,689868,0.0-1.0-362.0,0,0,5,,,,,,51.0,,2.0,,,,,,,,,,,,,,,,,,,,66.5,1.0,,
226,,iti,,html-keyboard-response,226,691373,0.0-1.0-364.0,0,0,5,,,,,,51.0,,2.0,,,,,,,,,,,,,,,,,,,,68.0,1.5,,
227,,rl_choice,,html-keyboard-response,227,692875,0.0-1.0-366.0,0,0,5,,,,,,52.0,52.0,2.0,hard,2000.0,1500.0,0.0,40.0,60.0,20.0,80.0,B,A,/static/Simple_RL/Stimuli/Fractals_stims/B.jpg,/static/Simple_RL/Stimuli/Fractals_stims/A.jpg,,,,,,,,69.5,1.5,1.0,
228,,rl_choice_warning,,html-keyboard-response,228,693878,0.0-1.0-368.0-0.0,1,0,5,,,,,,52.0,,2.0,,,,,,,,,,,,,,,,,,,,70.5,1.0,,
229,,isi,,html-keyboard-response,229,695379,0.0-1.0-369.0,0,0,5,,,,,,52.0,,2.0,,,,,,,,,,,,,,,,,,,,72.0,1.5,,
230,,iti,,html-keyboard-response,230,697383,0.0-1.0-371.0,0,0,5,,,,,,52.0,,2.0,,,,,,,,,,,,,,,,,,,,74.0,2.0,,
231,,rl_choice,,html-keyboard-response,231,698886,0.0-1.0-373.0,0,0,5,,,,,,53.0,53.0,2.0,hard,3000.0,1500.0,0.0,40.0,60.0,20.0,40.0,B,A,/static/Simple_RL/Stimuli/Fractals_stims/B.jpg,/static/Simple_RL/Stimuli/Fractals_stims/A.jpg,,,,,,,,75.5,1.5,1.0,
232,,rl_choice_warning,,html-keyboard-response,232,699887,0.0-1.0-375.0-0.0,1,0,5,,,,,,53.0,,2.0,,,,,,,,,,,,,,,,,,,,76.5,1.0,,
233,,isi,,html-keyboard-response,233,701390,0.0-1.0-376.0,0,0,5,,,,,,53.0,,2.0,,,,,,,,,,,,,,,,,,,,78.0,1.5,,
234,,iti,,html-keyboard-response,234,704395,0.0-1.0-378.0,0,0,5,,,,,,53.0,,2.0,,,,,,,,,,,,,,,,,,,,81.0,3.0,,
235,,rl_choice,,html-keyboard-response,235,705897,0.0-1.0-380.0,0,0,5,,,,,,54.0,54.0,2.0,easy,3000.0,1500.0,0.0,20.0,80.0,20.0,100.0,D,C,/static/Simple_RL/Stimuli/Fractals_stims/D.jpg,/static/Simple_RL/Stimuli/Fractals_stims/C.jpg,,,,,,,,82.5,1.5,1.0,
236,,rl_choice_warning,,html-keyboard-response,236,706899,0.0-1.0-382.0-0.0,1,0,5,,,,,,54.0,,2.0,,,,,,,,,,,,,,,,,,,,83.5,1.0,,
237,,isi,,html-keyboard-response,237,708401,0.0-1.0-383.0,0,0,5,,,,,,54.0,,2.0,,,,,,,,,,,,,,,,,,,,85.0,1.5,,
238,,iti,,html-keyboard-response,238,711403,0.0-1.0-385.0,0,0,5,,,,,,54.0,,2.0,,,,,,,,,,,,,,,,,,,,88.0,3.0,,
239,,rl_choice,,html-keyboard-response,239,712909,0.0-1.0-387.0,0,0,5,,,,,,55.0,55.0,2.0,easy,1500.0,1500.0,1.0,80.0,20.0,80.0,20.0,C,D,/static/Simple_RL/Stimuli/Fractals_stims/C.jpg,/static/Simple_RL/Stimuli/Fractals_stims/D.jpg,,,,,,,,89.5,1.5,1.0,
240,,rl_choice_warning,,html-keyboard-response,240,713911,0.0-1.0-389.0-0.0,1,0,5,,,,,,55.0,,2.0,,,,,,,,,,,,,,,,,,,,90.5,1.0,,
241,,isi,,html-keyboard-response,241,715413,0.0-1.0-390.0,0,0,5,,,,,,55.0,,2.0,,,,,,,,,,,,,,,,,,,,92.0,1.5,,
242,,iti,,html-keyboard-response,242,716916,0.0-1.0-392.0,0,0,5,,,,,,55.0,,2.0,,,,,,,,,,,,,,,,,,,,93.5,1.5,,
243,,rl_choice,,html-keyboard-response,243,718420,0.0-1.0-394.0,0,0,5,,,,,,56.0,56.0,2.0,easy,2000.0,2000.0,0.0,20.0,80.0,40.0,80.0,D,C,/static/Simple_RL/Stimuli/Fractals_stims/D.jpg,/static/Simple_RL/Stimuli/Fractals_stims/C.jpg,,,,,,,,95.0,1.5,1.0,
244,,rl_choice_warning,,html-keyboard-response,244,719425,0.0-1.0-396.0-0.0,1,0,5,,,,,,56.0,,2.0,,,,,,,,,,,,,,,,,,,,96.0,1.0,,
245,,isi,,html-keyboard-response,245,721431,0.0-1.0-397.0,0,0,5,,,,,,56.0,,2.0,,,,,,,,,,,,,,,,,,,,98.0,2.0,,
246,,iti,,html-keyboard-response,246,723432,0.0-1.0-399.0,0,0,5,,,,,,56.0,,2.0,,,,,,,,,,,,,,,,,,,,100.0,2.0,,
247,,rl_choice,,html-keyboard-response,247,724935,0.0-1.0-401.0,0,0,5,,,,,,57.0,57.0,2.0,easy,1000.0,1000.0,0.0,20.0,80.0,20.0,80.0,D,C,/static/Simple_RL/Stimuli/Fractals_stims/D.jpg,/static/Simple_RL/Stimuli/Fractals_stims/C.jpg,,,,,,,,101.5,1.5,1.0,
248,,rl_choice_warning,,html-keyboard-response,248,725936,0.0-1.0-403.0-0.0,1,0,5,,,,,,57.0,,2.0,,,,,,,,,,,,,,,,,,,,102.5,1.0,,
249,,isi,,html-keyboard-response,249,726938,0.0-1.0-404.0,0,0,5,,,,,,57.0,,2.0,,,,,,,,,,,,,,,,,,,,103.5,1.0,,
250,,iti,,html-keyboard-response,250,727940,0.0-1.0-406.0,0,0,5,,,,,,57.0,,2.0,,,,,,,,,,,,,,,,,,,,104.5,1.0,,
251,,rl_choice,,html-keyboard-response,251,729444,0.0-1.0-408.0,0,0,5,,,,,,58.0,58.0,2.0,easy,1000.0,1000.0,0.0,20.0,80.0,20.0,60.0,D,C,/static/Simple_RL/Stimuli/Fractals_stims/D.jpg,/static/Simple_RL/Stimuli/Fractals_stims/C.jpg,,,,,,,,106.0,1.5,1.0,
252,,rl_choice_warning,,html-keyboard-response,252,730448,0.0-1.0-410.0-0.0,1,0,5,,,,,,58.0,,2.0,,,,,,,,,,,,,,,,,,,,107.0,1.0,,
253,,isi,,html-keyboard-response,253,731451,0.0-1.0-411.0,0,0,5,,,,,,58.0,,2.0,,,,,,,,,,,,,,,,,,,,108.0,1.0,,
254,,iti,,html-keyboard-response,254,732453,0.0-1.0-413.0,0,0,5,,,,,,58.0,,2.0,,,,,,,,,,,,,,,,,,,,109.0,1.0,,
255,,rl_choice,,html-keyboard-response,255,733956,0.0-1.0-415.0,0,0,5,,,,,,59.0,59.0,2.0,hard,1500.0,1000.0,1.0,60.0,40.0,80.0,40.0,A,B,/static/Simple_RL/Stimuli/Fractals_stims/A.jpg,/static/Simple_RL/Stimuli/Fractals_stims/B.jpg,,,,,,,,110.5,1.5,1.0,
256,,rl_choice_warning,,html-keyboard-response,256,734957,0.0-1.0-417.0-0.0,1,0,5,,,,,,59.0,,2.0,,,,,,,,,,,,,,,,,,,,111.5,1.0,,
257,,isi,,html-keyboard-response,257,735959,0.0-1.0-418.0,0,0,5,,,,,,59.0,,2.0,,,,,,,,,,,,,,,,,,,,112.5,1.0,,
258,,iti,,html-keyboard-response,258,737461,0.0-1.0-420.0,0,0,5,,,,,,59.0,,2.0,,,,,,,,,,,,,,,,,,,,114.0,1.5,,
259,,rl_choice,,html-keyboard-response,259,738966,0.0-1.0-422.0,0,0,5,,,,,,60.0,60.0,2.0,hard,1500.0,1000.0,1.0,60.0,40.0,40.0,40.0,A,B,/static/Simple_RL/Stimuli/Fractals_stims/A.jpg,/static/Simple_RL/Stimuli/Fractals_stims/B.jpg,,,,,,,,115.5,1.5,1.0,
260,,rl_choice_warning,,html-keyboard-response,260,739967,0.0-1.0-424.0-0.0,1,0,5,,,,,,60.0,,2.0,,,,,,,,,,,,,,,,,,,,116.5,1.0,,
261,,isi,,html-keyboard-response,261,740970,0.0-1.0-425.0,0,0,5,,,,,,60.0,,2.0,,,,,,,,,,,,,,,,,,,,117.5,1.0,,
262,,iti,,html-keyboard-response,262,742474,0.0-1.0-427.0,0,0,5,,,,,,60.0,,2.0,,,,,,,,,,,,,,,,,,,,119.0,1.5,,
263,,rl_choice,,html-keyboard-response,263,743980,0.0-1.0-429.0,0,0,5,,,,,,61.0,61.0,2.0,hard,1000.0,1000.0,1.0,60.0,40.0,40.0,60.0,A,B,/static/Simple_RL/Stimuli/Fractals_stims/A.jpg,/static/Simple_RL/Stimuli/Fractals_stims/B.jpg,,,,,,,,120.5,1.5,1.0,
264,,rl_choice_warning,,html-keyboard-response,264,744984,0.0-1.0-431.0-0.0,1,0,5,,,,,,61.0,,2.0,,,,,,,,,,,,,,,,,,,,121.5,1.0,,
265,,isi,,html-keyboard-response,265,745985,0.0-1.0-432.0,0,0,5,,,,,,61.0,,2.0,,,,,,,,,,,,,,,,,,,,122.5,1.0,,
266,,iti,,html-keyboard-response,266,746986,0.0-1.0-434.0,0,0,5,,,,,,61.0,,2.0,,,,,,,,,,,,,,,,,,,,123.5,1.0,,
267,,rl_choice,,html-keyboard-response,267,748490,0.0-1.0-436.0,0,0,5,,,,,,62.0,62.0,2.0,hard,1000.0,3000.0,1.0,60.0,40.0,60.0,20.0,A,B,/static/Simple_RL/Stimuli/Fractals_stims/A.jpg,/static/Simple_RL/Stimuli/Fractals_stims/B.jpg,,,,,,,,125.0,1.5,1.0,
268,,rl_choice_warning,,html-keyboard-response,268,749492,0.0-1.0-438.0-0.0,1,0,5,,,,,,62.0,,2.0,,,,,,,,,,,,,,,,,,,,126.0,1.0,,
269,,isi,,html-keyboard-response,269,752493,0.0-1.0-439.0,0,0,5,,,,,,62.0,,2.0,,,,,,,,,,,,,,,,,,,,129.0,3.0,,
270,,iti,,html-keyboard-response,270,753501,0.0-1.0-441.0,0,0,5,,,,,,62.0,,2.0,,,,,,,,,,,,,,,,,,,,130.0,1.0,,
271,,rl_choice,,html-keyboard-response,271,755004,0.0-1.0-443.0,0,0,5,,,,,,63.0,63.0,2.0,easy,2000.0,1500.0,0.0,20.0,80.0,20.0,60.0,D,C,/static/Simple_RL/Stimuli/Fractals_stims/D.jpg,/static/Simple_RL/Stimuli/Fractals_stims/C.jpg,,,,,,,,131.5,1.5,1.0,
272,,rl_choice_warning,,html-keyboard-response,272,756006,0.0-1.0-445.0-0.0,1,0,5,,,,,,63.0,,2.0,,,,,,,,,,,,,,,,,,,,132.5,1.0,,
273,,isi,,html-keyboard-response,273,757507,0.0-1.0-446.0,0,0,5,,,,,,63.0,,2.0,,,,,,,,,,,,,,,,,,,,134.0,1.5,,
274,,iti,,html-keyboard-response,274,759509,0.0-1.0-448.0,0,0,5,,,,,,63.0,,2.0,,,,,,,,,,,,,,,,,,,,136.0,2.0,,
275,,rl_choice,,html-keyboard-response,275,761012,0.0-1.0-450.0,0,0,5,,,,,,64.0,64.0,2.0,easy,2000.0,1000.0,1.0,80.0,20.0,100.0,20.0,C,D,/static/Simple_RL/Stimuli/Fractals_stims/C.jpg,/static/Simple_RL/Stimuli/Fractals_stims/D.jpg,,,,,,,,137.5,1.5,1.0,
276,,rl_choice_warning,,html-keyboard-response,276,762015,0.0-1.0-452.0-0.0,1,0,5,,,,,,64.0,,2.0,,,,,,,,,,,,,,,,,,,,138.5,1.0,,
277,,isi,,html-keyboard-response,277,763018,0.0-1.0-453.0,0,0,5,,,,,,64.0,,2.0,,,,,,,,,,,,,,,,,,,,139.5,1.0,,
278,,iti,,html-keyboard-response,278,765019,0.0-1.0-455.0,0,0,5,,,,,,64.0,,2.0,,,,,,,,,,,,,,,,,,,,141.5,2.0,,
279,,rl_choice,,html-keyboard-response,279,766521,0.0-1.0-457.0,0,0,5,,,,,,65.0,65.0,2.0,hard,2000.0,1500.0,1.0,60.0,40.0,60.0,40.0,A,B,/static/Simple_RL/Stimuli/Fractals_stims/A.jpg,/static/Simple_RL/Stimuli/Fractals_stims/B.jpg,,,,,,,,143.0,1.5,1.0,
280,,rl_choice_warning,,html-keyboard-response,280,767522,0.0-1.0-459.0-0.0,1,0,5,,,,,,65.0,,2.0,,,,,,,,,,,,,,,,,,,,144.0,1.0,,
281,,isi,,html-keyboard-response,281,769024,0.0-1.0-460.0,0,0,5,,,,,,65.0,,2.0,,,,,,,,,,,,,,,,,,,,145.5,1.5,,
282,,iti,,html-keyboard-response,282,771035,0.0-1.0-462.0,0,0,5,,,,,,65.0,,2.0,,,,,,,,,,,,,,,,,,,,147.5,2.0,,
283,,rl_choice,,html-keyboard-response,283,772540,0.0-1.0-464.0,0,0,5,,,,,,66.0,66.0,2.0,hard,3000.0,1000.0,1.0,60.0,40.0,60.0,20.0,A,B,/static/Simple_RL/Stimuli/Fractals_stims/A.jpg,/static/Simple_RL/Stimuli/Fractals_stims/B.jpg,,,,,,,,149.0,1.5,1.0,
284,,rl_choice_warning,,html-keyboard-response,284,773541,0.0-1.0-466.0-0.0,1,0,5,,,,,,66.0,,2.0,,,,,,,,,,,,,,,,,,,,150.0,1.0,,
285,,isi,,html-keyboard-response,285,774543,0.0-1.0-467.0,0,0,5,,,,,,66.0,,2.0,,,,,,,,,,,,,,,,,,,,151.0,1.0,,
286,,iti,,html-keyboard-response,286,777545,0.0-1.0-469.0,0,0,5,,,,,,66.0,,2.0,,,,,,,,,,,,,,,,,,,,154.0,3.0,,
287,,rl_choice,,html-keyboard-response,287,779055,0.0-1.0-471.0,0,0,5,,,,,,67.0,67.0,2.0,easy,3500.0,2000.0,1.0,80.0,20.0,60.0,40.0,C,D,/static/Simple_RL/Stimuli/Fractals_stims/C.jpg,/static/Simple_RL/Stimuli/Fractals_stims/D.jpg,,,,,,,,155.5,1.5,1.0,
288,,rl_choice_warning,,html-keyboard-response,288,780056,0.0-1.0-473.0-0.0,1,0,5,,,,,,67.0,,2.0,,,,,,,,,,,,,,,,,,,,156.5,1.0,,
289,,isi,,html-keyboard-response,289,782059,0.0-1.0-474.0,0,0,5,,,,,,67.0,,2.0,,,,,,,,,,,,,,,,,,,,158.5,2.0,,
290,,iti,,html-keyboard-response,290,785561,0.0-1.0-476.0,0,0,5,,,,,,67.0,,2.0,,,,,,,,,,,,,,,,,,,,162.0,3.5,,
291,,rl_choice,,html-keyboard-response,291,787065,0.0-1.0-478.0,0,0,5,,,,,,68.0,68.0,2.0,easy,3000.0,2000.0,0.0,20.0,80.0,40.0,80.0,D,C,/static/Simple_RL/Stimuli/Fractals_stims/D.jpg,/static/Simple_RL/Stimuli/Fractals_stims/C.jpg,,,,,,,,163.5,1.5,1.0,
292,,rl_choice_warning,,html-keyboard-response,292,788068,0.0-1.0-480.0-0.0,1,0,5,,,,,,68.0,,2.0,,,,,,,,,,,,,,,,,,,,164.5,1.0,,
293,,isi,,html-keyboard-response,293,790071,0.0-1.0-481.0,0,0,5,,,,,,68.0,,2.0,,,,,,,,,,,,,,,,,,,,166.5,2.0,,
294,,iti,,html-keyboard-response,294,793073,0.0-1.0-483.0,0,0,5,,,,,,68.0,,2.0,,,,,,,,,,,,,,,,,,,,169.5,3.0,,
295,,rl_choice,,html-keyboard-response,295,794577,0.0-1.0-485.0,0,0,5,,,,,,69.0,69.0,2.0,hard,2000.0,1000.0,1.0,60.0,40.0,40.0,60.0,A,B,/static/Simple_RL/Stimuli/Fractals_stims/A.jpg,/static/Simple_RL/Stimuli/Fractals_stims/B.jpg,,,,,,,,171.0,1.5,1.0,
296,,rl_choice_warning,,html-keyboard-response,296,795580,0.0-1.0-487.0-0.0,1,0,5,,,,,,69.0,,2.0,,,,,,,,,,,,,,,,,,,,172.0,1.0,,
297,,isi,,html-keyboard-response,297,796584,0.0-1.0-488.0,0,0,5,,,,,,69.0,,2.0,,,,,,,,,,,,,,,,,,,,173.0,1.0,,
298,,iti,,html-keyboard-response,298,798585,0.0-1.0-490.0,0,0,5,,,,,,69.0,,2.0,,,,,,,,,,,,,,,,,,,,175.0,2.0,,
299,,rl_choice,,html-keyboard-response,299,800087,0.0-1.0-492.0,0,0,5,,,,,,70.0,70.0,2.0,hard,1000.0,3500.0,1.0,60.0,40.0,80.0,40.0,A,B,/static/Simple_RL/Stimuli/Fractals_stims/A.jpg,/static/Simple_RL/Stimuli/Fractals_stims/B.jpg,,,,,,,,176.5,1.5,1.0,
300,,rl_choice_warning,,html-keyboard-response,300,801089,0.0-1.0-494.0-0.0,1,0,5,,,,,,70.0,,2.0,,,,,,,,,,,,,,,,,,,,177.5,1.0,,
301,,isi,,html-keyboard-response,301,804593,0.0-1.0-495.0,0,0,5,,,,,,70.0,,2.0,,,,,,,,,,,,,,,,,,,,181.0,3.5,,
302,,iti,,html-keyboard-response,302,805595,0.0-1.0-497.0,0,0,5,,,,,,70.0,,2.0,,,,,,,,,,,,,,,,,,,,182.0,1.0,,
303,,rl_choice,,html-keyboard-response,303,807101,0.0-1.0-499.0,0,0,5,,,,,,71.0,71.0,2.0,hard,1000.0,1500.0,1.0,60.0,40.0,40.0,40.0,A,B,/static/Simple_RL/Stimuli/Fractals_stims/A.jpg,/static/Simple_RL/Stimuli/Fractals_stims/B.jpg,,,,,,,,183.5,1.5,1.0,
304,,rl_choice_warning,,html-keyboard-response,304,808103,0.0-1.0-501.0-0.0,1,0,5,,,,,,71.0,,2.0,,,,,,,,,,,,,,,,,,,,184.5,1.0,,
305,,isi,,html-keyboard-response,305,809605,0.0-1.0-502.0,0,0,5,,,,,,71.0,,2.0,,,,,,,,,,,,,,,,,,,,186.0,1.5,,
306,,iti,,html-keyboard-response,306,810607,0.0-1.0-504.0,0,0,5,,,,,,71.0,,2.0,,,,,,,,,,,,,,,,,,,,187.0,1.0,,
307,,rl_choice,,html-keyboard-response,307,812111,0.0-1.0-506.0,0,0,5,,,,,,72.0,72.0,2.0,easy,1000.0,1500.0,0.0,20.0,80.0,0.0,80.0,D,C,/static/Simple_RL/Stimuli/Fractals_stims/D.jpg,/static/Simple_RL/Stimuli/Fractals_stims/C.jpg,,,,,,,,188.5,1.5,1.0,
308,,rl_choice_warning,,html-keyboard-response,308,813115,0.0-1.0-508.0-0.0,1,0,5,,,,,,72.0,,2.0,,,,,,,,,,,,,,,,,,,,189.5,1.0,,
309,,isi,,html-keyboard-response,309,814617,0.0-1.0-509.0,0,0,5,,,,,,72.0,,2.0,,,,,,,,,,,,,,,,,,,,191.0,1.5,,
310,,iti,,html-keyboard-response,310,815619,0.0-1.0-511.0,0,0,5,,,,,,72.0,,2.0,,,,,,,,,,,,,,,,,,,,192.0,1.0,,
311,,rl_choice,,html-keyboard-response,311,817125,0.0-1.0-513.0,0,0,5,,,,,,73.0,73.0,2.0,easy,1000.0,3000.0,1.0,80.0,20.0,60.0,0.0,C,D,/static/Simple_RL/Stimuli/Fractals_stims/C.jpg,/static/Simple_RL/Stimuli/Fractals_stims/D.jpg,,,,,,,,193.5,1.5,1.0,
312,,rl_choice_warning,,html-keyboard-response,312,818127,0.0-1.0-515.0-0.0,1,0,5,,,,,,73.0,,2.0,,,,,,,,,,,,,,,,,,,,194.5,1.0,,
313,,isi,,html-keyboard-response,313,821132,0.0-1.0-516.0,0,0,5,,,,,,73.0,,2.0,,,,,,,,,,,,,,,,,,,,197.5,3.0,,
314,,iti,,html-keyboard-response,314,822135,0.0-1.0-518.0,0,0,5,,,,,,73.0,,2.0,,,,,,,,,,,,,,,,,,,,198.5,1.0,,
315,,rl_choice,,html-keyboard-response,315,823638,0.0-1.0-520.0,0,0,5,,,,,,74.0,74.0,2.0,hard,3500.0,2000.0,1.0,60.0,40.0,60.0,60.0,A,B,/static/Simple_RL/Stimuli/Fractals_stims/A.jpg,/static/Simple_RL/Stimuli/Fractals_stims/B.jpg,,,,,,,,200.0,1.5,1.0,
316,,rl_choice_warning,,html-keyboard-response,316,824639,0.0-1.0-522.0-0.0,1,0,5,,,,,,74.0,,2.0,,,,,,,,,,,,,,,,,,,,201.0,1.0,,
317,,isi,,html-keyboard-response,317,826640,0.0-1.0-523.0,0,0,5,,,,,,74.0,,2.0,,,,,,,,,,,,,,,,,,,,203.0,2.0,,
318,,iti,,html-keyboard-response,318,830143,0.0-1.0-525.0,0,0,5,,,,,,74.0,,2.0,,,,,,,,,,,,,,,,,,,,206.5,3.5,,
319,,rl_choice,,html-keyboard-response,319,831647,0.0-1.0-527.0,0,0,5,,,,,,75.0,75.0,2.0,hard,1500.0,3000.0,0.0,40.0,60.0,60.0,80.0,B,A,/static/Simple_RL/Stimuli/Fractals_stims/B.jpg,/static/Simple_RL/Stimuli/Fractals_stims/A.jpg,,,,,,,,208.0,1.5,1.0,
320,,rl_choice_warning,,html-keyboard-response,320,832650,0.0-1.0-529.0-0.0,1,0,5,,,,,,75.0,,2.0,,,,,,,,,,,,,,,,,,,,209.0,1.0,,
321,,isi,,html-keyboard-response,321,835651,0.0-1.0-530.0,0,0,5,,,,,,75.0,,2.0,,,,,,,,,,,,,,,,,,,,212.0,3.0,,
322,,iti,,html-keyboard-response,322,837156,0.0-1.0-532.0,0,0,5,,,,,,75.0,,2.0,,,,,,,,,,,,,,,,,,,,213.5,1.5,,
323,,rl_choice,,html-keyboard-response,323,838658,0.0-1.0-534.0,0,0,5,,,,,,76.0,76.0,2.0,easy,1000.0,1000.0,0.0,20.0,80.0,20.0,80.0,D,C,/static/Simple_RL/Stimuli/Fractals_stims/D.jpg,/static/Simple_RL/Stimuli/Fractals_stims/C.jpg,,,,,,,,215.0,1.5,1.0,
324,,rl_choice_warning,,html-keyboard-response,324,839661,0.0-1.0-536.0-0.0,1,0,5,,,,,,76.0,,2.0,,,,,,,,,,,,,,,,,,,,216.0,1.0,,
325,,isi,,html-keyboard-response,325,840663,0.0-1.0-537.0,0,0,5,,,,,,76.0,,2.0,,,,,,,,,,,,,,,,,,,,217.0,1.0,,
326,,iti,,html-keyboard-response,326,841664,0.0-1.0-539.0,0,0,5,,,,,,76.0,,2.0,,,,,,,,,,,,,,,,,,,,218.0,1.0,,
327,,rl_choice,,html-keyboard-response,327,843167,0.0-1.0-541.0,0,0,5,,,,,,77.0,77.0,2.0,hard,1000.0,1000.0,0.0,40.0,60.0,60.0,40.0,B,A,/static/Simple_RL/Stimuli/Fractals_stims/B.jpg,/static/Simple_RL/Stimuli/Fractals_stims/A.jpg,,,,,,,,219.5,1.5,1.0,
328,,rl_choice_warning,,html-keyboard-response,328,844169,0.0-1.0-543.0-0.0,1,0,5,,,,,,77.0,,2.0,,,,,,,,,,,,,,,,,,,,220.5,1.0,,
329,,isi,,html-keyboard-response,329,845172,0.0-1.0-544.0,0,0,5,,,,,,77.0,,2.0,,,,,,,,,,,,,,,,,,,,221.5,1.0,,
330,,iti,,html-keyboard-response,330,846175,0.0-1.0-546.0,0,0,5,,,,,,77.0,,2.0,,,,,,,,,,,,,,,,,,,,222.5,1.0,,
331,,rl_choice,,html-keyboard-response,331,847677,0.0-1.0-548.0,0,0,5,,,,,,78.0,78.0,2.0,easy,1000.0,1500.0,1.0,80.0,20.0,80.0,0.0,C,D,/static/Simple_RL/Stimuli/Fractals_stims/C.jpg,/static/Simple_RL/Stimuli/Fractals_stims/D.jpg,,,,,,,,224.0,1.5,1.0,
332,,rl_choice_warning,,html-keyboard-response,332,848678,0.0-1.0-550.0-0.0,1,0,5,,,,,,78.0,,2.0,,,,,,,,,,,,,,,,,,,,225.0,1.0,,
333,,isi,,html-keyboard-response,333,850180,0.0-1.0-551.0,0,0,5,,,,,,78.0,,2.0,,,,,,,,,,,,,,,,,,,,226.5,1.5,,
334,,iti,,html-keyboard-response,334,851181,0.0-1.0-553.0,0,0,5,,,,,,78.0,,2.0,,,,,,,,,,,,,,,,,,,,227.5,1.0,,
335,,rl_choice,,html-keyboard-response,335,852684,0.0-1.0-555.0,0,0,5,,,,,,79.0,79.0,2.0,easy,1000.0,1000.0,0.0,20.0,80.0,0.0,100.0,D,C,/static/Simple_RL/Stimuli/Fractals_stims/D.jpg,/static/Simple_RL/Stimuli/Fractals_stims/C.jpg,,,,,,,,229.0,1.5,1.0,
336,,rl_choice_warning,,html-keyboard-response,336,853686,0.0-1.0-557.0-0.0,1,0,5,,,,,,79.0,,2.0,,,,,,,,,,,,,,,,,,,,230.0,1.0,,
337,,isi,,html-keyboard-response,337,854692,0.0-1.0-558.0,0,0,5,,,,,,79.0,,2.0,,,,,,,,,,,,,,,,,,,,231.0,1.0,,
338,,iti,,html-keyboard-response,338,855693,0.0-1.0-560.0,0,0,5,,,,,,79.0,,2.0,,,,,,,,,,,,,,,,,,,,232.0,1.0,,0.12
339,,final_tally,,html-keyboard-response,339,940461,0.0-2.0,0,0,5,,84757.0,,,50.0,,,,,,,,,,,,,,,,,,,,,,,,,,
