,success,ttype,start_time,trial_type,trial_index,time_elapsed,internal_node_id,warning,missed_checkup,PID,view_history,rt,responses,repeat_instructions,key_press,index,trial_num,block,condition,iti,isi,high_group_on_left,left_group_value,right_group_value,left_item_value,right_item_value,left_img,right_img,left_img_path,right_img_path,left_chosen,chosen_group_value,unchosen_group_value,chosen_item_value,unchosen_item_value,chosen_img,unchosen_img,no_response,onset,duration,no_resposne,total_bonus_tally
0,True,full_screen,d06012022hr1824,fullscreen,0,4551,0.0-0.0,0,0,49028,,,,,,,,,,,,,,,,,,,,,,,,,,,,,,,,
1,,size_instructions,,instructions,1,20346,0.0-1.0-0.0-0.0,0,0,49028,"[{""page_index"":0,""viewing_time"":2062},{""page_index"":1,""viewing_time"":422},{""page_index"":2,""viewing_time"":939},{""page_index"":3,""viewing_time"":1166},{""page_index"":4,""viewing_time"":1385},{""page_index"":5,""viewing_time"":1657},{""page_index"":4,""viewing_time"":217},{""page_index"":3,""viewing_time"":674},{""page_index"":2,""viewing_time"":2628},{""page_index"":1,""viewing_time"":1945},{""page_index"":2,""viewing_time"":800},{""page_index"":3,""viewing_time"":526},{""page_index"":4,""viewing_time"":608},{""page_index"":5,""viewing_time"":764}]",15794.0,,,,,,,,,,,,,,,,,,,,,,,,,,,,,,
2,,rl_comprehension_check,,survey-multi-choice,2,24326,0.0-1.0-0.0-1.0,0,0,49028,,3978.0,"{""Q0"":""True"",""Q1"":""True"",""Q2"":""D for left and K for right""}",0.0,,,,,,,,,,,,,,,,,,,,,,,,,,,,
3,,,,html-keyboard-response,3,25555,0.0-1.0-1.0,0,0,49028,,1227.0,,,68.0,,,,,,,,,,,,,,,,,,,,,,,,,,,
4,,rl_choice,,html-keyboard-response,4,26625,0.0-1.0-2.0,0,0,49028,,1068.0,,,75.0,0.0,0.0,1.0,hard,1000.0,2000.0,0.0,40.0,60.0,20.0,60.0,C,D,/static/Simple_RL/Stimuli/Fractals_stims/C.jpg,/static/Simple_RL/Stimuli/Fractals_stims/D.jpg,0.0,60.0,40.0,60.0,20.0,D,C,0.0,1.068,1.068,,
5,,rl_choice_confirmation,,html-keyboard-response,5,27059,0.0-1.0-3.0-0.0,0,0,49028,,,,,,0.0,,,,,,,,,,,,,,,,,,,,,,,1.5,0.432,,
6,,isi,,html-keyboard-response,6,27164,0.0-1.0-5.0,0,0,49028,,,,,,,,,,,,,,,,,,,,,,,,,,,,,3.5,2.0,,
7,,feedback,,html-keyboard-response,7,28169,0.0-1.0-6.0-0.0,0,0,49028,,,,,,0.0,,,,,,,,,,,,,,,,,,,,,,,4.5,1.0,,
8,,iti,,html-keyboard-response,8,28273,0.0-1.0-7.0,0,0,49028,,,,,,,,,,,,,,,,,,,,,,,,,,,,,5.5,1.0,,
9,,rl_choice,,html-keyboard-response,9,28418,0.0-1.0-9.0,0,0,49028,,144.0,,,75.0,1.0,1.0,1.0,easy,1000.0,3000.0,1.0,80.0,20.0,100.0,40.0,B,A,/static/Simple_RL/Stimuli/Fractals_stims/B.jpg,/static/Simple_RL/Stimuli/Fractals_stims/A.jpg,0.0,20.0,80.0,40.0,100.0,A,B,0.0,5.644,0.144,,
10,,rl_choice_confirmation,,html-keyboard-response,10,29779,0.0-1.0-10.0-0.0,0,0,49028,,,,,,1.0,,,,,,,,,,,,,,,,,,,,,,,7.0,1.356,,
11,,isi,,html-keyboard-response,11,29884,0.0-1.0-12.0,0,0,49028,,,,,,,,,,,,,,,,,,,,,,,,,,,,,10.0,3.0,,
12,,feedback,,html-keyboard-response,12,30888,0.0-1.0-13.0-0.0,0,0,49028,,,,,,1.0,,,,,,,,,,,,,,,,,,,,,,,11.0,1.0,,
13,,iti,,html-keyboard-response,13,30994,0.0-1.0-14.0,0,0,49028,,,,,,,,,,,,,,,,,,,,,,,,,,,,,12.0,1.0,,
14,,rl_choice,,html-keyboard-response,14,31335,0.0-1.0-16.0,0,0,49028,,340.0,,,75.0,2.0,2.0,1.0,hard,3000.0,1000.0,0.0,40.0,60.0,20.0,80.0,C,D,/static/Simple_RL/Stimuli/Fractals_stims/C.jpg,/static/Simple_RL/Stimuli/Fractals_stims/D.jpg,0.0,60.0,40.0,80.0,20.0,D,C,0.0,12.34,0.34,,
15,,rl_choice_confirmation,,html-keyboard-response,15,32501,0.0-1.0-17.0-0.0,0,0,49028,,,,,,2.0,,,,,,,,,,,,,,,,,,,,,,,13.5,1.16,,
16,,isi,,html-keyboard-response,16,32603,0.0-1.0-19.0,0,0,49028,,,,,,,,,,,,,,,,,,,,,,,,,,,,,14.5,1.0,,
17,,feedback,,html-keyboard-response,17,33609,0.0-1.0-20.0-0.0,0,0,49028,,,,,,2.0,,,,,,,,,,,,,,,,,,,,,,,15.5,1.0,,
18,,iti,,html-keyboard-response,18,33714,0.0-1.0-21.0,0,0,49028,,,,,,,,,,,,,,,,,,,,,,,,,,,,,18.5,3.0,,
19,,rl_choice,,html-keyboard-response,19,34234,0.0-1.0-23.0,0,0,49028,,518.0,,,75.0,3.0,3.0,1.0,hard,1000.0,3500.0,0.0,40.0,60.0,60.0,60.0,C,D,/static/Simple_RL/Stimuli/Fractals_stims/C.jpg,/static/Simple_RL/Stimuli/Fractals_stims/D.jpg,0.0,60.0,40.0,60.0,60.0,D,C,0.0,19.018,0.518,,
20,,rl_choice_confirmation,,html-keyboard-response,20,35221,0.0-1.0-24.0-0.0,0,0,49028,,,,,,3.0,,,,,,,,,,,,,,,,,,,,,,,20.0,0.982,,
21,,isi,,html-keyboard-response,21,35326,0.0-1.0-26.0,0,0,49028,,,,,,,,,,,,,,,,,,,,,,,,,,,,,23.5,3.5,,
22,,feedback,,html-keyboard-response,22,36332,0.0-1.0-27.0-0.0,0,0,49028,,,,,,3.0,,,,,,,,,,,,,,,,,,,,,,,24.5,1.0,,
23,,iti,,html-keyboard-response,23,36436,0.0-1.0-28.0,0,0,49028,,,,,,,,,,,,,,,,,,,,,,,,,,,,,25.5,1.0,,
24,,rl_choice,,html-keyboard-response,24,37668,0.0-1.0-30.0,0,0,49028,,1231.0,,,75.0,4.0,4.0,1.0,hard,1500.0,3000.0,0.0,40.0,60.0,20.0,60.0,C,D,/static/Simple_RL/Stimuli/Fractals_stims/C.jpg,/static/Simple_RL/Stimuli/Fractals_stims/D.jpg,0.0,60.0,40.0,60.0,20.0,D,C,0.0,26.731,1.231,,
25,,rl_choice_confirmation,,html-keyboard-response,25,37943,0.0-1.0-31.0-0.0,0,0,49028,,,,,,4.0,,,,,,,,,,,,,,,,,,,,,,,27.0,0.269,,
26,,isi,,html-keyboard-response,26,38048,0.0-1.0-33.0,0,0,49028,,,,,,,,,,,,,,,,,,,,,,,,,,,,,30.0,3.0,,
27,,feedback,,html-keyboard-response,27,39052,0.0-1.0-34.0-0.0,0,0,49028,,,,,,4.0,,,,,,,,,,,,,,,,,,,,,,,31.0,1.0,,
28,,iti,,html-keyboard-response,28,39156,0.0-1.0-35.0,0,0,49028,,,,,,,,,,,,,,,,,,,,,,,,,,,,,32.5,1.5,,
29,,rl_choice,,html-keyboard-response,29,39815,0.0-1.0-37.0,0,0,49028,,658.0,,,75.0,5.0,5.0,1.0,easy,2000.0,2000.0,0.0,20.0,80.0,20.0,100.0,A,B,/static/Simple_RL/Stimuli/Fractals_stims/A.jpg,/static/Simple_RL/Stimuli/Fractals_stims/B.jpg,0.0,80.0,20.0,100.0,20.0,B,A,0.0,33.158,0.658,,
30,,rl_choice_confirmation,,html-keyboard-response,30,40662,0.0-1.0-38.0-0.0,0,0,49028,,,,,,5.0,,,,,,,,,,,,,,,,,,,,,,,34.0,0.842,,
31,,isi,,html-keyboard-response,31,40767,0.0-1.0-40.0,0,0,49028,,,,,,,,,,,,,,,,,,,,,,,,,,,,,36.0,2.0,,
32,,feedback,,html-keyboard-response,32,41771,0.0-1.0-41.0-0.0,0,0,49028,,,,,,5.0,,,,,,,,,,,,,,,,,,,,,,,37.0,1.0,,
33,,iti,,html-keyboard-response,33,41876,0.0-1.0-42.0,0,0,49028,,,,,,,,,,,,,,,,,,,,,,,,,,,,,39.0,2.0,,
34,,rl_choice,,html-keyboard-response,34,42338,0.0-1.0-44.0,0,0,49028,,460.0,,,75.0,6.0,6.0,1.0,hard,1000.0,1000.0,0.0,40.0,60.0,40.0,80.0,C,D,/static/Simple_RL/Stimuli/Fractals_stims/C.jpg,/static/Simple_RL/Stimuli/Fractals_stims/D.jpg,0.0,60.0,40.0,80.0,40.0,D,C,0.0,39.46,0.46,,
35,,rl_choice_confirmation,,html-keyboard-response,35,43383,0.0-1.0-45.0-0.0,0,0,49028,,,,,,6.0,,,,,,,,,,,,,,,,,,,,,,,40.5,1.04,,
36,,isi,,html-keyboard-response,36,43487,0.0-1.0-47.0,0,0,49028,,,,,,,,,,,,,,,,,,,,,,,,,,,,,41.5,1.0,,
37,,feedback,,html-keyboard-response,37,44488,0.0-1.0-48.0-0.0,0,0,49028,,,,,,6.0,,,,,,,,,,,,,,,,,,,,,,,42.5,1.0,,
38,,iti,,html-keyboard-response,38,44593,0.0-1.0-49.0,0,0,49028,,,,,,,,,,,,,,,,,,,,,,,,,,,,,43.5,1.0,,
39,,rl_choice,,html-keyboard-response,39,45166,0.0-1.0-51.0,0,0,49028,,572.0,,,75.0,7.0,7.0,1.0,hard,1500.0,1000.0,0.0,40.0,60.0,60.0,80.0,C,D,/static/Simple_RL/Stimuli/Fractals_stims/C.jpg,/static/Simple_RL/Stimuli/Fractals_stims/D.jpg,0.0,60.0,40.0,80.0,60.0,D,C,0.0,44.072,0.572,,
40,,rl_choice_confirmation,,html-keyboard-response,40,46100,0.0-1.0-52.0-0.0,0,0,49028,,,,,,7.0,,,,,,,,,,,,,,,,,,,,,,,45.0,0.928,,
41,,isi,,html-keyboard-response,41,46204,0.0-1.0-54.0,0,0,49028,,,,,,,,,,,,,,,,,,,,,,,,,,,,,46.0,1.0,,
42,,feedback,,html-keyboard-response,42,47206,0.0-1.0-55.0-0.0,0,0,49028,,,,,,7.0,,,,,,,,,,,,,,,,,,,,,,,47.0,1.0,,
43,,iti,,html-keyboard-response,43,47307,0.0-1.0-56.0,0,0,49028,,,,,,,,,,,,,,,,,,,,,,,,,,,,,48.5,1.5,,
44,,rl_choice,,html-keyboard-response,44,47618,0.0-1.0-58.0,0,0,49028,,309.0,,,75.0,8.0,8.0,1.0,easy,1500.0,2000.0,0.0,20.0,80.0,0.0,100.0,A,B,/static/Simple_RL/Stimuli/Fractals_stims/A.jpg,/static/Simple_RL/Stimuli/Fractals_stims/B.jpg,0.0,80.0,20.0,100.0,0.0,B,A,0.0,48.809,0.309,,
45,,rl_choice_confirmation,,html-keyboard-response,45,48815,0.0-1.0-59.0-0.0,0,0,49028,,,,,,8.0,,,,,,,,,,,,,,,,,,,,,,,50.0,1.191,,
46,,isi,,html-keyboard-response,46,48918,0.0-1.0-61.0,0,0,49028,,,,,,,,,,,,,,,,,,,,,,,,,,,,,52.0,2.0,,
47,,feedback,,html-keyboard-response,47,49922,0.0-1.0-62.0-0.0,0,0,49028,,,,,,8.0,,,,,,,,,,,,,,,,,,,,,,,53.0,1.0,,
48,,iti,,html-keyboard-response,48,50027,0.0-1.0-63.0,0,0,49028,,,,,,,,,,,,,,,,,,,,,,,,,,,,,54.5,1.5,,
49,,rl_choice,,html-keyboard-response,49,50435,0.0-1.0-65.0,0,0,49028,,406.0,,,75.0,9.0,9.0,1.0,easy,2000.0,1000.0,1.0,80.0,20.0,60.0,0.0,B,A,/static/Simple_RL/Stimuli/Fractals_stims/B.jpg,/static/Simple_RL/Stimuli/Fractals_stims/A.jpg,0.0,20.0,80.0,0.0,60.0,A,B,0.0,54.906,0.406,,
50,,rl_choice_confirmation,,html-keyboard-response,50,51534,0.0-1.0-66.0-0.0,0,0,49028,,,,,,9.0,,,,,,,,,,,,,,,,,,,,,,,56.0,1.094,,
51,,isi,,html-keyboard-response,51,51639,0.0-1.0-68.0,0,0,49028,,,,,,,,,,,,,,,,,,,,,,,,,,,,,57.0,1.0,,
52,,feedback,,html-keyboard-response,52,52644,0.0-1.0-69.0-0.0,0,0,49028,,,,,,9.0,,,,,,,,,,,,,,,,,,,,,,,58.0,1.0,,
53,,iti,,html-keyboard-response,53,52750,0.0-1.0-70.0,0,0,49028,,,,,,,,,,,,,,,,,,,,,,,,,,,,,60.0,2.0,,
54,,rl_choice,,html-keyboard-response,54,53723,0.0-1.0-72.0,0,0,49028,,972.0,,,75.0,10.0,10.0,1.0,hard,1000.0,1000.0,1.0,60.0,40.0,40.0,40.0,D,C,/static/Simple_RL/Stimuli/Fractals_stims/D.jpg,/static/Simple_RL/Stimuli/Fractals_stims/C.jpg,0.0,40.0,60.0,40.0,40.0,C,D,0.0,60.972,0.972,,
55,,rl_choice_confirmation,,html-keyboard-response,55,54255,0.0-1.0-73.0-0.0,0,0,49028,,,,,,10.0,,,,,,,,,,,,,,,,,,,,,,,61.5,0.528,,
56,,isi,,html-keyboard-response,56,54360,0.0-1.0-75.0,0,0,49028,,,,,,,,,,,,,,,,,,,,,,,,,,,,,62.5,1.0,,
57,,feedback,,html-keyboard-response,57,55365,0.0-1.0-76.0-0.0,0,0,49028,,,,,,10.0,,,,,,,,,,,,,,,,,,,,,,,63.5,1.0,,
58,,iti,,html-keyboard-response,58,55468,0.0-1.0-77.0,0,0,49028,,,,,,,,,,,,,,,,,,,,,,,,,,,,,64.5,1.0,,
59,,rl_choice,,html-keyboard-response,59,56738,0.0-1.0-79.0,0,0,49028,,1268.0,,,75.0,11.0,11.0,1.0,easy,1000.0,3000.0,0.0,20.0,80.0,20.0,60.0,A,B,/static/Simple_RL/Stimuli/Fractals_stims/A.jpg,/static/Simple_RL/Stimuli/Fractals_stims/B.jpg,0.0,80.0,20.0,60.0,20.0,B,A,0.0,65.768,1.268,,
60,,rl_choice_confirmation,,html-keyboard-response,60,56973,0.0-1.0-80.0-0.0,0,0,49028,,,,,,11.0,,,,,,,,,,,,,,,,,,,,,,,66.0,0.232,,
61,,isi,,html-keyboard-response,61,57077,0.0-1.0-82.0,0,0,49028,,,,,,,,,,,,,,,,,,,,,,,,,,,,,69.0,3.0,,
62,,feedback,,html-keyboard-response,62,58082,0.0-1.0-83.0-0.0,0,0,49028,,,,,,11.0,,,,,,,,,,,,,,,,,,,,,,,70.0,1.0,,
63,,iti,,html-keyboard-response,63,58186,0.0-1.0-84.0,0,0,49028,,,,,,,,,,,,,,,,,,,,,,,,,,,,,71.0,1.0,,
64,,rl_choice,,html-keyboard-response,64,58521,0.0-1.0-86.0,0,0,49028,,334.0,,,75.0,12.0,12.0,1.0,easy,3000.0,1500.0,0.0,20.0,80.0,20.0,80.0,A,B,/static/Simple_RL/Stimuli/Fractals_stims/A.jpg,/static/Simple_RL/Stimuli/Fractals_stims/B.jpg,0.0,80.0,20.0,80.0,20.0,B,A,0.0,71.334,0.334,,
65,,rl_choice_confirmation,,html-keyboard-response,65,59693,0.0-1.0-87.0-0.0,0,0,49028,,,,,,12.0,,,,,,,,,,,,,,,,,,,,,,,72.5,1.166,,
66,,isi,,html-keyboard-response,66,59799,0.0-1.0-89.0,0,0,49028,,,,,,,,,,,,,,,,,,,,,,,,,,,,,74.0,1.5,,
67,,feedback,,html-keyboard-response,67,60805,0.0-1.0-90.0-0.0,0,0,49028,,,,,,12.0,,,,,,,,,,,,,,,,,,,,,,,75.0,1.0,,
68,,iti,,html-keyboard-response,68,60911,0.0-1.0-91.0,0,0,49028,,,,,,,,,,,,,,,,,,,,,,,,,,,,,78.0,3.0,,
69,,rl_choice,,html-keyboard-response,69,60982,0.0-1.0-93.0,0,0,49028,,69.0,,,75.0,13.0,13.0,1.0,hard,1000.0,2000.0,0.0,40.0,60.0,40.0,80.0,C,D,/static/Simple_RL/Stimuli/Fractals_stims/C.jpg,/static/Simple_RL/Stimuli/Fractals_stims/D.jpg,0.0,60.0,40.0,80.0,40.0,D,C,0.0,78.069,0.069,,
70,,rl_choice_confirmation,,html-keyboard-response,70,62418,0.0-1.0-94.0-0.0,0,0,49028,,,,,,13.0,,,,,,,,,,,,,,,,,,,,,,,79.5,1.431,,
71,,isi,,html-keyboard-response,71,62522,0.0-1.0-96.0,0,0,49028,,,,,,,,,,,,,,,,,,,,,,,,,,,,,81.5,2.0,,
72,,feedback,,html-keyboard-response,72,63527,0.0-1.0-97.0-0.0,0,0,49028,,,,,,13.0,,,,,,,,,,,,,,,,,,,,,,,82.5,1.0,,
73,,iti,,html-keyboard-response,73,63632,0.0-1.0-98.0,0,0,49028,,,,,,,,,,,,,,,,,,,,,,,,,,,,,83.5,1.0,,
74,,rl_choice,,html-keyboard-response,74,63983,0.0-1.0-100.0,0,0,49028,,350.0,,,75.0,14.0,14.0,1.0,easy,1500.0,1500.0,0.0,20.0,80.0,20.0,80.0,A,B,/static/Simple_RL/Stimuli/Fractals_stims/A.jpg,/static/Simple_RL/Stimuli/Fractals_stims/B.jpg,0.0,80.0,20.0,80.0,20.0,B,A,0.0,83.85,0.35,,
75,,rl_choice_confirmation,,html-keyboard-response,75,65138,0.0-1.0-101.0-0.0,0,0,49028,,,,,,14.0,,,,,,,,,,,,,,,,,,,,,,,85.0,1.15,,
76,,isi,,html-keyboard-response,76,65243,0.0-1.0-103.0,0,0,49028,,,,,,,,,,,,,,,,,,,,,,,,,,,,,86.5,1.5,,
77,,feedback,,html-keyboard-response,77,66250,0.0-1.0-104.0-0.0,0,0,49028,,,,,,14.0,,,,,,,,,,,,,,,,,,,,,,,87.5,1.0,,
78,,iti,,html-keyboard-response,78,66354,0.0-1.0-105.0,0,0,49028,,,,,,,,,,,,,,,,,,,,,,,,,,,,,89.0,1.5,,
79,,rl_choice,,html-keyboard-response,79,67086,0.0-1.0-107.0,0,0,49028,,731.0,,,75.0,15.0,15.0,1.0,hard,1500.0,2000.0,1.0,60.0,40.0,40.0,60.0,D,C,/static/Simple_RL/Stimuli/Fractals_stims/D.jpg,/static/Simple_RL/Stimuli/Fractals_stims/C.jpg,0.0,40.0,60.0,60.0,40.0,C,D,0.0,89.731,0.731,,
80,,rl_choice_confirmation,,html-keyboard-response,80,67861,0.0-1.0-108.0-0.0,0,0,49028,,,,,,15.0,,,,,,,,,,,,,,,,,,,,,,,90.5,0.769,,
81,,isi,,html-keyboard-response,81,67965,0.0-1.0-110.0,0,0,49028,,,,,,,,,,,,,,,,,,,,,,,,,,,,,92.5,2.0,,
82,,feedback,,html-keyboard-response,82,68968,0.0-1.0-111.0-0.0,0,0,49028,,,,,,15.0,,,,,,,,,,,,,,,,,,,,,,,93.5,1.0,,
83,,iti,,html-keyboard-response,83,69071,0.0-1.0-112.0,0,0,49028,,,,,,,,,,,,,,,,,,,,,,,,,,,,,95.0,1.5,,
84,,rl_choice,,html-keyboard-response,84,69555,0.0-1.0-114.0,0,0,49028,,482.0,,,75.0,16.0,16.0,1.0,hard,1000.0,1000.0,1.0,60.0,40.0,60.0,60.0,D,C,/static/Simple_RL/Stimuli/Fractals_stims/D.jpg,/static/Simple_RL/Stimuli/Fractals_stims/C.jpg,0.0,40.0,60.0,60.0,60.0,C,D,0.0,95.482,0.482,,
85,,rl_choice_confirmation,,html-keyboard-response,85,70577,0.0-1.0-115.0-0.0,0,0,49028,,,,,,16.0,,,,,,,,,,,,,,,,,,,,,,,96.5,1.018,,
86,,isi,,html-keyboard-response,86,70682,0.0-1.0-117.0,0,0,49028,,,,,,,,,,,,,,,,,,,,,,,,,,,,,97.5,1.0,,
87,,feedback,,html-keyboard-response,87,71687,0.0-1.0-118.0-0.0,0,0,49028,,,,,,16.0,,,,,,,,,,,,,,,,,,,,,,,98.5,1.0,,
88,,iti,,html-keyboard-response,88,71792,0.0-1.0-119.0,0,0,49028,,,,,,,,,,,,,,,,,,,,,,,,,,,,,99.5,1.0,,
89,,rl_choice,,html-keyboard-response,89,72019,0.0-1.0-121.0,0,0,49028,,226.0,,,75.0,17.0,17.0,1.0,easy,3000.0,1500.0,1.0,80.0,20.0,60.0,20.0,B,A,/static/Simple_RL/Stimuli/Fractals_stims/B.jpg,/static/Simple_RL/Stimuli/Fractals_stims/A.jpg,0.0,20.0,80.0,20.0,60.0,A,B,0.0,99.726,0.226,,
90,,rl_choice_confirmation,,html-keyboard-response,90,73298,0.0-1.0-122.0-0.0,0,0,49028,,,,,,17.0,,,,,,,,,,,,,,,,,,,,,,,101.0,1.274,,
91,,isi,,html-keyboard-response,91,73402,0.0-1.0-124.0,0,0,49028,,,,,,,,,,,,,,,,,,,,,,,,,,,,,102.5,1.5,,
92,,feedback,,html-keyboard-response,92,74408,0.0-1.0-125.0-0.0,0,0,49028,,,,,,17.0,,,,,,,,,,,,,,,,,,,,,,,103.5,1.0,,
93,,iti,,html-keyboard-response,93,74512,0.0-1.0-126.0,0,0,49028,,,,,,,,,,,,,,,,,,,,,,,,,,,,,106.5,3.0,,
94,,rl_choice,,html-keyboard-response,94,75444,0.0-1.0-128.0,0,0,49028,,931.0,,,75.0,18.0,18.0,1.0,hard,3500.0,1500.0,1.0,60.0,40.0,60.0,60.0,D,C,/static/Simple_RL/Stimuli/Fractals_stims/D.jpg,/static/Simple_RL/Stimuli/Fractals_stims/C.jpg,0.0,40.0,60.0,60.0,60.0,C,D,0.0,107.431,0.931,,
95,,rl_choice_confirmation,,html-keyboard-response,95,76018,0.0-1.0-129.0-0.0,0,0,49028,,,,,,18.0,,,,,,,,,,,,,,,,,,,,,,,108.0,0.569,,
96,,isi,,html-keyboard-response,96,76123,0.0-1.0-131.0,0,0,49028,,,,,,,,,,,,,,,,,,,,,,,,,,,,,109.5,1.5,,
97,,feedback,,html-keyboard-response,97,77128,0.0-1.0-132.0-0.0,0,0,49028,,,,,,18.0,,,,,,,,,,,,,,,,,,,,,,,110.5,1.0,,
98,,iti,,html-keyboard-response,98,77232,0.0-1.0-133.0,0,0,49028,,,,,,,,,,,,,,,,,,,,,,,,,,,,,114.0,3.5,,
99,,rl_choice,,html-keyboard-response,99,77569,0.0-1.0-135.0,0,0,49028,,336.0,,,75.0,19.0,19.0,1.0,hard,2000.0,1500.0,1.0,60.0,40.0,60.0,20.0,D,C,/static/Simple_RL/Stimuli/Fractals_stims/D.jpg,/static/Simple_RL/Stimuli/Fractals_stims/C.jpg,0.0,40.0,60.0,20.0,60.0,C,D,0.0,114.336,0.336,,
100,,rl_choice_confirmation,,html-keyboard-response,100,78738,0.0-1.0-136.0-0.0,0,0,49028,,,,,,19.0,,,,,,,,,,,,,,,,,,,,,,,115.5,1.164,,
101,,isi,,html-keyboard-response,101,78844,0.0-1.0-138.0,0,0,49028,,,,,,,,,,,,,,,,,,,,,,,,,,,,,117.0,1.5,,
102,,feedback,,html-keyboard-response,102,79850,0.0-1.0-139.0-0.0,0,0,49028,,,,,,19.0,,,,,,,,,,,,,,,,,,,,,,,118.0,1.0,,
103,,iti,,html-keyboard-response,103,79952,0.0-1.0-140.0,0,0,49028,,,,,,,,,,,,,,,,,,,,,,,,,,,,,120.0,2.0,,
104,,rl_choice,,html-keyboard-response,104,80074,0.0-1.0-142.0,0,0,49028,,122.0,,,75.0,20.0,20.0,1.0,easy,2000.0,1000.0,1.0,80.0,20.0,80.0,20.0,B,A,/static/Simple_RL/Stimuli/Fractals_stims/B.jpg,/static/Simple_RL/Stimuli/Fractals_stims/A.jpg,0.0,20.0,80.0,20.0,80.0,A,B,0.0,120.122,0.122,,
105,,rl_choice_confirmation,,html-keyboard-response,105,81458,0.0-1.0-143.0-0.0,0,0,49028,,,,,,20.0,,,,,,,,,,,,,,,,,,,,,,,121.5,1.378,,
106,,isi,,html-keyboard-response,106,81564,0.0-1.0-145.0,0,0,49028,,,,,,,,,,,,,,,,,,,,,,,,,,,,,122.5,1.0,,
107,,feedback,,html-keyboard-response,107,82568,0.0-1.0-146.0-0.0,0,0,49028,,,,,,20.0,,,,,,,,,,,,,,,,,,,,,,,123.5,1.0,,
108,,iti,,html-keyboard-response,108,82674,0.0-1.0-147.0,0,0,49028,,,,,,,,,,,,,,,,,,,,,,,,,,,,,125.5,2.0,,
109,,rl_choice,,html-keyboard-response,109,82882,0.0-1.0-149.0,0,0,49028,,207.0,,,75.0,21.0,21.0,1.0,easy,1500.0,2000.0,1.0,80.0,20.0,80.0,20.0,B,A,/static/Simple_RL/Stimuli/Fractals_stims/B.jpg,/static/Simple_RL/Stimuli/Fractals_stims/A.jpg,0.0,20.0,80.0,20.0,80.0,A,B,0.0,125.707,0.207,,
110,,rl_choice_confirmation,,html-keyboard-response,110,84181,0.0-1.0-150.0-0.0,0,0,49028,,,,,,21.0,,,,,,,,,,,,,,,,,,,,,,,127.0,1.293,,
111,,isi,,html-keyboard-response,111,84287,0.0-1.0-152.0,0,0,49028,,,,,,,,,,,,,,,,,,,,,,,,,,,,,129.0,2.0,,
112,,feedback,,html-keyboard-response,112,85291,0.0-1.0-153.0-0.0,0,0,49028,,,,,,21.0,,,,,,,,,,,,,,,,,,,,,,,130.0,1.0,,
113,,iti,,html-keyboard-response,113,85394,0.0-1.0-154.0,0,0,49028,,,,,,,,,,,,,,,,,,,,,,,,,,,,,131.5,1.5,,
114,,rl_choice,,html-keyboard-response,114,85987,0.0-1.0-156.0,0,0,49028,,591.0,,,75.0,22.0,22.0,1.0,easy,1000.0,1000.0,0.0,20.0,80.0,0.0,100.0,A,B,/static/Simple_RL/Stimuli/Fractals_stims/A.jpg,/static/Simple_RL/Stimuli/Fractals_stims/B.jpg,0.0,80.0,20.0,100.0,0.0,B,A,0.0,132.091,0.591,,
115,,rl_choice_confirmation,,html-keyboard-response,115,86901,0.0-1.0-157.0-0.0,0,0,49028,,,,,,22.0,,,,,,,,,,,,,,,,,,,,,,,133.0,0.909,,
116,,isi,,html-keyboard-response,116,87005,0.0-1.0-159.0,0,0,49028,,,,,,,,,,,,,,,,,,,,,,,,,,,,,134.0,1.0,,
117,,feedback,,html-keyboard-response,117,88010,0.0-1.0-160.0-0.0,0,0,49028,,,,,,22.0,,,,,,,,,,,,,,,,,,,,,,,135.0,1.0,,
118,,iti,,html-keyboard-response,118,88115,0.0-1.0-161.0,0,0,49028,,,,,,,,,,,,,,,,,,,,,,,,,,,,,136.0,1.0,,
119,,rl_choice,,html-keyboard-response,119,88350,0.0-1.0-163.0,0,0,49028,,233.0,,,75.0,23.0,23.0,1.0,hard,2000.0,1000.0,1.0,60.0,40.0,80.0,60.0,D,C,/static/Simple_RL/Stimuli/Fractals_stims/D.jpg,/static/Simple_RL/Stimuli/Fractals_stims/C.jpg,0.0,40.0,60.0,60.0,80.0,C,D,0.0,136.233,0.233,,
120,,rl_choice_confirmation,,html-keyboard-response,120,89618,0.0-1.0-164.0-0.0,0,0,49028,,,,,,23.0,,,,,,,,,,,,,,,,,,,,,,,137.5,1.267,,
121,,isi,,html-keyboard-response,121,89723,0.0-1.0-166.0,0,0,49028,,,,,,,,,,,,,,,,,,,,,,,,,,,,,138.5,1.0,,
122,,feedback,,html-keyboard-response,122,90725,0.0-1.0-167.0-0.0,0,0,49028,,,,,,23.0,,,,,,,,,,,,,,,,,,,,,,,139.5,1.0,,
123,,iti,,html-keyboard-response,123,90830,0.0-1.0-168.0,0,0,49028,,,,,,,,,,,,,,,,,,,,,,,,,,,,,141.5,2.0,,
124,,rl_choice,,html-keyboard-response,124,91437,0.0-1.0-170.0,0,0,49028,,606.0,,,75.0,24.0,24.0,1.0,hard,1000.0,3000.0,1.0,60.0,40.0,40.0,60.0,D,C,/static/Simple_RL/Stimuli/Fractals_stims/D.jpg,/static/Simple_RL/Stimuli/Fractals_stims/C.jpg,0.0,40.0,60.0,60.0,40.0,C,D,0.0,142.106,0.606,,
125,,rl_choice_confirmation,,html-keyboard-response,125,92336,0.0-1.0-171.0-0.0,0,0,49028,,,,,,24.0,,,,,,,,,,,,,,,,,,,,,,,143.0,0.894,,
126,,isi,,html-keyboard-response,126,92440,0.0-1.0-173.0,0,0,49028,,,,,,,,,,,,,,,,,,,,,,,,,,,,,146.0,3.0,,
127,,feedback,,html-keyboard-response,127,93445,0.0-1.0-174.0-0.0,0,0,49028,,,,,,24.0,,,,,,,,,,,,,,,,,,,,,,,147.0,1.0,,
128,,iti,,html-keyboard-response,128,93549,0.0-1.0-175.0,0,0,49028,,,,,,,,,,,,,,,,,,,,,,,,,,,,,148.0,1.0,,
129,,rl_choice,,html-keyboard-response,129,94708,0.0-1.0-177.0,0,0,49028,,1158.0,,,75.0,25.0,25.0,1.0,hard,2000.0,1000.0,1.0,60.0,40.0,40.0,40.0,D,C,/static/Simple_RL/Stimuli/Fractals_stims/D.jpg,/static/Simple_RL/Stimuli/Fractals_stims/C.jpg,0.0,40.0,60.0,40.0,40.0,C,D,0.0,149.158,1.158,,
130,,rl_choice_confirmation,,html-keyboard-response,130,95057,0.0-1.0-178.0-0.0,0,0,49028,,,,,,25.0,,,,,,,,,,,,,,,,,,,,,,,149.5,0.342,,
131,,isi,,html-keyboard-response,131,95161,0.0-1.0-180.0,0,0,49028,,,,,,,,,,,,,,,,,,,,,,,,,,,,,150.5,1.0,,
132,,feedback,,html-keyboard-response,132,96166,0.0-1.0-181.0-0.0,0,0,49028,,,,,,25.0,,,,,,,,,,,,,,,,,,,,,,,151.5,1.0,,
133,,iti,,html-keyboard-response,133,96270,0.0-1.0-182.0,0,0,49028,,,,,,,,,,,,,,,,,,,,,,,,,,,,,153.5,2.0,,
134,,rl_choice,,html-keyboard-response,134,97139,0.0-1.0-184.0,0,0,49028,,869.0,,,75.0,26.0,26.0,1.0,easy,1000.0,1000.0,1.0,80.0,20.0,100.0,20.0,B,A,/static/Simple_RL/Stimuli/Fractals_stims/B.jpg,/static/Simple_RL/Stimuli/Fractals_stims/A.jpg,0.0,20.0,80.0,20.0,100.0,A,B,0.0,154.369,0.869,,
135,,rl_choice_confirmation,,html-keyboard-response,135,97777,0.0-1.0-185.0-0.0,0,0,49028,,,,,,26.0,,,,,,,,,,,,,,,,,,,,,,,155.0,0.631,,
136,,isi,,html-keyboard-response,136,97882,0.0-1.0-187.0,0,0,49028,,,,,,,,,,,,,,,,,,,,,,,,,,,,,156.0,1.0,,
137,,feedback,,html-keyboard-response,137,98888,0.0-1.0-188.0-0.0,0,0,49028,,,,,,26.0,,,,,,,,,,,,,,,,,,,,,,,157.0,1.0,,
138,,iti,,html-keyboard-response,138,98994,0.0-1.0-189.0,0,0,49028,,,,,,,,,,,,,,,,,,,,,,,,,,,,,158.0,1.0,,
139,,rl_choice,,html-keyboard-response,139,99539,0.0-1.0-191.0,0,0,49028,,544.0,,,75.0,27.0,27.0,1.0,hard,1000.0,1500.0,0.0,40.0,60.0,20.0,80.0,C,D,/static/Simple_RL/Stimuli/Fractals_stims/C.jpg,/static/Simple_RL/Stimuli/Fractals_stims/D.jpg,0.0,60.0,40.0,80.0,20.0,D,C,0.0,158.544,0.544,,
140,,rl_choice_confirmation,,html-keyboard-response,140,100499,0.0-1.0-192.0-0.0,0,0,49028,,,,,,27.0,,,,,,,,,,,,,,,,,,,,,,,159.5,0.956,,
141,,isi,,html-keyboard-response,141,100601,0.0-1.0-194.0,0,0,49028,,,,,,,,,,,,,,,,,,,,,,,,,,,,,161.0,1.5,,
142,,feedback,,html-keyboard-response,142,101605,0.0-1.0-195.0-0.0,0,0,49028,,,,,,27.0,,,,,,,,,,,,,,,,,,,,,,,162.0,1.0,,
143,,iti,,html-keyboard-response,143,101711,0.0-1.0-196.0,0,0,49028,,,,,,,,,,,,,,,,,,,,,,,,,,,,,163.0,1.0,,
144,,rl_choice,,html-keyboard-response,144,102740,0.0-1.0-198.0,0,0,49028,,1028.0,,,75.0,28.0,28.0,1.0,hard,1500.0,1500.0,0.0,40.0,60.0,40.0,40.0,C,D,/static/Simple_RL/Stimuli/Fractals_stims/C.jpg,/static/Simple_RL/Stimuli/Fractals_stims/D.jpg,0.0,60.0,40.0,40.0,40.0,D,C,0.0,164.028,1.028,,
145,,rl_choice_confirmation,,html-keyboard-response,145,103218,0.0-1.0-199.0-0.0,0,0,49028,,,,,,28.0,,,,,,,,,,,,,,,,,,,,,,,164.5,0.472,,
146,,isi,,html-keyboard-response,146,103324,0.0-1.0-201.0,0,0,49028,,,,,,,,,,,,,,,,,,,,,,,,,,,,,166.0,1.5,,
147,,feedback,,html-keyboard-response,147,104328,0.0-1.0-202.0-0.0,0,0,49028,,,,,,28.0,,,,,,,,,,,,,,,,,,,,,,,167.0,1.0,,
148,,iti,,html-keyboard-response,148,104432,0.0-1.0-203.0,0,0,49028,,,,,,,,,,,,,,,,,,,,,,,,,,,,,168.5,1.5,,
149,,rl_choice,,html-keyboard-response,149,105936,0.0-1.0-205.0,0,0,49028,,,,,,29.0,29.0,1.0,easy,1000.0,1000.0,0.0,20.0,80.0,20.0,80.0,A,B,/static/Simple_RL/Stimuli/Fractals_stims/A.jpg,/static/Simple_RL/Stimuli/Fractals_stims/B.jpg,,,,,,,,,170.0,1.5,1.0,
150,,rl_choice_warning,,html-keyboard-response,150,106942,0.0-1.0-207.0-0.0,0,0,49028,,,,,,,,,,,,,,,,,,,,,,,,,,,,,171.0,1.0,,
151,,isi,,html-keyboard-response,151,107046,0.0-1.0-208.0,0,0,49028,,,,,,,,,,,,,,,,,,,,,,,,,,,,,172.0,1.0,,
152,,iti,,html-keyboard-response,152,107152,0.0-1.0-210.0,0,0,49028,,,,,,,,,,,,,,,,,,,,,,,,,,,,,173.0,1.0,,
153,,rl_choice,,html-keyboard-response,153,108657,0.0-1.0-212.0,0,0,49028,,,,,,30.0,30.0,1.0,hard,1500.0,2000.0,1.0,60.0,40.0,80.0,60.0,D,C,/static/Simple_RL/Stimuli/Fractals_stims/D.jpg,/static/Simple_RL/Stimuli/Fractals_stims/C.jpg,,,,,,,,,174.5,1.5,1.0,
154,,rl_choice_warning,,html-keyboard-response,154,109662,0.0-1.0-214.0-0.0,0,0,49028,,,,,,,,,,,,,,,,,,,,,,,,,,,,,175.5,1.0,,
155,,isi,,html-keyboard-response,155,109767,0.0-1.0-215.0,0,0,49028,,,,,,,,,,,,,,,,,,,,,,,,,,,,,177.5,2.0,,
156,,iti,,html-keyboard-response,156,109870,0.0-1.0-217.0,0,0,49028,,,,,,,,,,,,,,,,,,,,,,,,,,,,,179.0,1.5,,
157,,rl_choice,,html-keyboard-response,157,110357,0.0-1.0-219.0,0,0,49028,,487.0,,,75.0,31.0,31.0,1.0,easy,1000.0,1500.0,1.0,80.0,20.0,80.0,0.0,B,A,/static/Simple_RL/Stimuli/Fractals_stims/B.jpg,/static/Simple_RL/Stimuli/Fractals_stims/A.jpg,0.0,20.0,80.0,0.0,80.0,A,B,0.0,179.487,0.487,,
158,,rl_choice_confirmation,,html-keyboard-response,158,111374,0.0-1.0-220.0-0.0,0,0,49028,,,,,,31.0,,,,,,,,,,,,,,,,,,,,,,,180.5,1.013,,
159,,isi,,html-keyboard-response,159,111478,0.0-1.0-222.0,0,0,49028,,,,,,,,,,,,,,,,,,,,,,,,,,,,,182.0,1.5,,
160,,feedback,,html-keyboard-response,160,112483,0.0-1.0-223.0-0.0,0,0,49028,,,,,,31.0,,,,,,,,,,,,,,,,,,,,,,,183.0,1.0,,
161,,iti,,html-keyboard-response,161,112587,0.0-1.0-224.0,0,0,49028,,,,,,,,,,,,,,,,,,,,,,,,,,,,,184.0,1.0,,
162,,rl_choice,,html-keyboard-response,162,113973,0.0-1.0-226.0,0,0,49028,,1384.0,,,75.0,32.0,32.0,1.0,easy,1000.0,3500.0,1.0,80.0,20.0,60.0,20.0,B,A,/static/Simple_RL/Stimuli/Fractals_stims/B.jpg,/static/Simple_RL/Stimuli/Fractals_stims/A.jpg,0.0,20.0,80.0,20.0,60.0,A,B,0.0,185.384,1.384,,
163,,rl_choice_confirmation,,html-keyboard-response,163,114094,0.0-1.0-227.0-0.0,0,0,49028,,,,,,32.0,,,,,,,,,,,,,,,,,,,,,,,185.5,0.116,,
164,,isi,,html-keyboard-response,164,114199,0.0-1.0-229.0,0,0,49028,,,,,,,,,,,,,,,,,,,,,,,,,,,,,189.0,3.5,,
165,,feedback,,html-keyboard-response,165,115202,0.0-1.0-230.0-0.0,0,0,49028,,,,,,32.0,,,,,,,,,,,,,,,,,,,,,,,190.0,1.0,,
166,,iti,,html-keyboard-response,166,115308,0.0-1.0-231.0,0,0,49028,,,,,,,,,,,,,,,,,,,,,,,,,,,,,191.0,1.0,,
167,,rl_choice,,html-keyboard-response,167,115723,0.0-1.0-233.0,0,0,49028,,413.0,,,75.0,33.0,33.0,1.0,hard,2000.0,1500.0,1.0,60.0,40.0,40.0,20.0,D,C,/static/Simple_RL/Stimuli/Fractals_stims/D.jpg,/static/Simple_RL/Stimuli/Fractals_stims/C.jpg,0.0,40.0,60.0,20.0,40.0,C,D,0.0,191.413,0.413,,
168,,rl_choice_confirmation,,html-keyboard-response,168,116816,0.0-1.0-234.0-0.0,0,0,49028,,,,,,33.0,,,,,,,,,,,,,,,,,,,,,,,192.5,1.087,,
169,,isi,,html-keyboard-response,169,116921,0.0-1.0-236.0,0,0,49028,,,,,,,,,,,,,,,,,,,,,,,,,,,,,194.0,1.5,,
170,,feedback,,html-keyboard-response,170,117926,0.0-1.0-237.0-0.0,0,0,49028,,,,,,33.0,,,,,,,,,,,,,,,,,,,,,,,195.0,1.0,,
171,,iti,,html-keyboard-response,171,118028,0.0-1.0-238.0,0,0,49028,,,,,,,,,,,,,,,,,,,,,,,,,,,,,197.0,2.0,,
172,,rl_choice,,html-keyboard-response,172,118804,0.0-1.0-240.0,0,0,49028,,774.0,,,75.0,34.0,34.0,1.0,hard,3000.0,1000.0,0.0,40.0,60.0,20.0,60.0,C,D,/static/Simple_RL/Stimuli/Fractals_stims/C.jpg,/static/Simple_RL/Stimuli/Fractals_stims/D.jpg,0.0,60.0,40.0,60.0,20.0,D,C,0.0,197.774,0.774,,
173,,rl_choice_confirmation,,html-keyboard-response,173,119535,0.0-1.0-241.0-0.0,0,0,49028,,,,,,34.0,,,,,,,,,,,,,,,,,,,,,,,198.5,0.726,,
174,,isi,,html-keyboard-response,174,119641,0.0-1.0-243.0,0,0,49028,,,,,,,,,,,,,,,,,,,,,,,,,,,,,199.5,1.0,,
175,,feedback,,html-keyboard-response,175,120646,0.0-1.0-244.0-0.0,0,0,49028,,,,,,34.0,,,,,,,,,,,,,,,,,,,,,,,200.5,1.0,,
176,,iti,,html-keyboard-response,176,120750,0.0-1.0-245.0,0,0,49028,,,,,,,,,,,,,,,,,,,,,,,,,,,,,203.5,3.0,,
177,,rl_choice,,html-keyboard-response,177,120802,0.0-1.0-247.0,0,0,49028,,50.0,,,75.0,35.0,35.0,1.0,easy,1500.0,1000.0,1.0,80.0,20.0,80.0,20.0,B,A,/static/Simple_RL/Stimuli/Fractals_stims/B.jpg,/static/Simple_RL/Stimuli/Fractals_stims/A.jpg,0.0,20.0,80.0,20.0,80.0,A,B,0.0,203.55,0.05,,
178,,rl_choice_confirmation,,html-keyboard-response,178,122257,0.0-1.0-248.0-0.0,0,0,49028,,,,,,35.0,,,,,,,,,,,,,,,,,,,,,,,205.0,1.45,,
179,,isi,,html-keyboard-response,179,122361,0.0-1.0-250.0,0,0,49028,,,,,,,,,,,,,,,,,,,,,,,,,,,,,206.0,1.0,,
180,,feedback,,html-keyboard-response,180,123366,0.0-1.0-251.0-0.0,0,0,49028,,,,,,35.0,,,,,,,,,,,,,,,,,,,,,,,207.0,1.0,,
181,,iti,,html-keyboard-response,181,123470,0.0-1.0-252.0,0,0,49028,,,,,,,,,,,,,,,,,,,,,,,,,,,,,208.5,1.5,,
182,,rl_choice,,html-keyboard-response,182,123868,0.0-1.0-254.0,0,0,49028,,397.0,,,75.0,36.0,36.0,1.0,easy,1500.0,2000.0,1.0,80.0,20.0,80.0,40.0,B,A,/static/Simple_RL/Stimuli/Fractals_stims/B.jpg,/static/Simple_RL/Stimuli/Fractals_stims/A.jpg,0.0,20.0,80.0,40.0,80.0,A,B,0.0,208.897,0.397,,
183,,rl_choice_confirmation,,html-keyboard-response,183,124977,0.0-1.0-255.0-0.0,0,0,49028,,,,,,36.0,,,,,,,,,,,,,,,,,,,,,,,210.0,1.103,,
184,,isi,,html-keyboard-response,184,125082,0.0-1.0-257.0,0,0,49028,,,,,,,,,,,,,,,,,,,,,,,,,,,,,212.0,2.0,,
185,,feedback,,html-keyboard-response,185,126087,0.0-1.0-258.0-0.0,0,0,49028,,,,,,36.0,,,,,,,,,,,,,,,,,,,,,,,213.0,1.0,,
186,,iti,,html-keyboard-response,186,126190,0.0-1.0-259.0,0,0,49028,,,,,,,,,,,,,,,,,,,,,,,,,,,,,214.5,1.5,,
187,,rl_choice,,html-keyboard-response,187,127537,0.0-1.0-261.0,0,0,49028,,1346.0,,,75.0,37.0,37.0,1.0,easy,2000.0,1000.0,1.0,80.0,20.0,60.0,40.0,B,A,/static/Simple_RL/Stimuli/Fractals_stims/B.jpg,/static/Simple_RL/Stimuli/Fractals_stims/A.jpg,0.0,20.0,80.0,40.0,60.0,A,B,0.0,215.846,1.346,,
188,,rl_choice_confirmation,,html-keyboard-response,188,127697,0.0-1.0-262.0-0.0,0,0,49028,,,,,,37.0,,,,,,,,,,,,,,,,,,,,,,,216.0,0.154,,
189,,isi,,html-keyboard-response,189,127802,0.0-1.0-264.0,0,0,49028,,,,,,,,,,,,,,,,,,,,,,,,,,,,,217.0,1.0,,
190,,feedback,,html-keyboard-response,190,128807,0.0-1.0-265.0-0.0,0,0,49028,,,,,,37.0,,,,,,,,,,,,,,,,,,,,,,,218.0,1.0,,
191,,iti,,html-keyboard-response,191,128910,0.0-1.0-266.0,0,0,49028,,,,,,,,,,,,,,,,,,,,,,,,,,,,,220.0,2.0,,
192,,rl_choice,,html-keyboard-response,192,129084,0.0-1.0-268.0,0,0,49028,,171.0,,,75.0,38.0,38.0,1.0,easy,3500.0,1500.0,0.0,20.0,80.0,40.0,60.0,A,B,/static/Simple_RL/Stimuli/Fractals_stims/A.jpg,/static/Simple_RL/Stimuli/Fractals_stims/B.jpg,0.0,80.0,20.0,60.0,40.0,B,A,0.0,220.171,0.171,,
193,,rl_choice_confirmation,,html-keyboard-response,193,130419,0.0-1.0-269.0-0.0,0,0,49028,,,,,,38.0,,,,,,,,,,,,,,,,,,,,,,,221.5,1.329,,
194,,isi,,html-keyboard-response,194,130523,0.0-1.0-271.0,0,0,49028,,,,,,,,,,,,,,,,,,,,,,,,,,,,,223.0,1.5,,
195,,feedback,,html-keyboard-response,195,131528,0.0-1.0-272.0-0.0,0,0,49028,,,,,,38.0,,,,,,,,,,,,,,,,,,,,,,,224.0,1.0,,
196,,iti,,html-keyboard-response,196,131633,0.0-1.0-273.0,0,0,49028,,,,,,,,,,,,,,,,,,,,,,,,,,,,,227.5,3.5,,
197,,rl_choice,,html-keyboard-response,197,132537,0.0-1.0-275.0,0,0,49028,,903.0,,,75.0,39.0,39.0,1.0,easy,1000.0,1000.0,1.0,80.0,20.0,60.0,20.0,B,A,/static/Simple_RL/Stimuli/Fractals_stims/B.jpg,/static/Simple_RL/Stimuli/Fractals_stims/A.jpg,0.0,20.0,80.0,20.0,60.0,A,B,0.0,228.403,0.903,,
198,,rl_choice_confirmation,,html-keyboard-response,198,133137,0.0-1.0-276.0-0.0,0,0,49028,,,,,,39.0,,,,,,,,,,,,,,,,,,,,,,,229.0,0.597,,
199,,isi,,html-keyboard-response,199,133243,0.0-1.0-278.0,0,0,49028,,,,,,,,,,,,,,,,,,,,,,,,,,,,,230.0,1.0,,
200,,feedback,,html-keyboard-response,200,134249,0.0-1.0-279.0-0.0,0,0,49028,,,,,,39.0,,,,,,,,,,,,,,,,,,,,,,,231.0,1.0,,
201,,iti,,html-keyboard-response,201,134354,0.0-1.0-280.0,0,0,49028,,,,,,,,,,,,,,,,,,,,,,,,,,,,,232.0,1.0,,
202,,block_over,,html-keyboard-response,202,140421,0.0-1.0-281.0-0.0,0,0,49028,,6053.0,,,68.0,39.0,,,,,,,,,,,,,,,,,,,,,,,,,,
203,,start_run,,html-keyboard-response,203,143069,0.0-1.0-281.0-1.0,0,0,49028,,2647.0,,,84.0,,,,,,,,,,,,,,,,,,,,,,,,,,,
204,,rl_choice,,html-keyboard-response,204,143925,0.0-1.0-282.0,0,0,49028,,854.0,,,75.0,40.0,40.0,2.0,hard,1000.0,2000.0,0.0,40.0,60.0,40.0,40.0,C,D,/static/Simple_RL/Stimuli/Fractals_stims/C.jpg,/static/Simple_RL/Stimuli/Fractals_stims/D.jpg,0.0,60.0,40.0,40.0,40.0,D,C,0.0,0.854,0.854,,
205,,rl_choice_confirmation,,html-keyboard-response,205,144575,0.0-1.0-283.0-0.0,0,0,49028,,,,,,40.0,,,,,,,,,,,,,,,,,,,,,,,1.5,0.646,,
206,,isi,,html-keyboard-response,206,144679,0.0-1.0-285.0,0,0,49028,,,,,,,,,,,,,,,,,,,,,,,,,,,,,3.5,2.0,,
207,,feedback,,html-keyboard-response,207,145684,0.0-1.0-286.0-0.0,0,0,49028,,,,,,40.0,,,,,,,,,,,,,,,,,,,,,,,4.5,1.0,,
208,,iti,,html-keyboard-response,208,145788,0.0-1.0-287.0,0,0,49028,,,,,,,,,,,,,,,,,,,,,,,,,,,,,5.5,1.0,,
209,,rl_choice,,html-keyboard-response,209,145870,0.0-1.0-289.0,0,0,49028,,81.0,,,75.0,41.0,41.0,2.0,hard,1000.0,3000.0,1.0,60.0,40.0,40.0,60.0,D,C,/static/Simple_RL/Stimuli/Fractals_stims/D.jpg,/static/Simple_RL/Stimuli/Fractals_stims/C.jpg,0.0,40.0,60.0,60.0,40.0,C,D,0.0,5.581,0.081,,
210,,rl_choice_confirmation,,html-keyboard-response,210,147295,0.0-1.0-290.0-0.0,0,0,49028,,,,,,41.0,,,,,,,,,,,,,,,,,,,,,,,7.0,1.419,,
211,,isi,,html-keyboard-response,211,147400,0.0-1.0-292.0,0,0,49028,,,,,,,,,,,,,,,,,,,,,,,,,,,,,10.0,3.0,,
212,,feedback,,html-keyboard-response,212,148404,0.0-1.0-293.0-0.0,0,0,49028,,,,,,41.0,,,,,,,,,,,,,,,,,,,,,,,11.0,1.0,,
213,,iti,,html-keyboard-response,213,148509,0.0-1.0-294.0,0,0,49028,,,,,,,,,,,,,,,,,,,,,,,,,,,,,12.0,1.0,,
214,,rl_choice,,html-keyboard-response,214,148549,0.0-1.0-296.0,0,0,49028,,40.0,,,75.0,42.0,42.0,2.0,hard,1000.0,1000.0,0.0,40.0,60.0,40.0,40.0,C,D,/static/Simple_RL/Stimuli/Fractals_stims/C.jpg,/static/Simple_RL/Stimuli/Fractals_stims/D.jpg,0.0,60.0,40.0,40.0,40.0,D,C,0.0,12.04,0.04,,
215,,rl_choice_confirmation,,html-keyboard-response,215,150015,0.0-1.0-297.0-0.0,0,0,49028,,,,,,42.0,,,,,,,,,,,,,,,,,,,,,,,13.5,1.46,,
216,,isi,,html-keyboard-response,216,150116,0.0-1.0-299.0,0,0,49028,,,,,,,,,,,,,,,,,,,,,,,,,,,,,14.5,1.0,,
217,,feedback,,html-keyboard-response,217,151122,0.0-1.0-300.0-0.0,0,0,49028,,,,,,42.0,,,,,,,,,,,,,,,,,,,,,,,15.5,1.0,,
218,,iti,,html-keyboard-response,218,151226,0.0-1.0-301.0,0,0,49028,,,,,,,,,,,,,,,,,,,,,,,,,,,,,16.5,1.0,,
219,,rl_choice,,html-keyboard-response,219,151621,0.0-1.0-303.0,0,0,49028,,394.0,,,75.0,43.0,43.0,2.0,easy,1500.0,2000.0,0.0,20.0,80.0,0.0,60.0,A,B,/static/Simple_RL/Stimuli/Fractals_stims/A.jpg,/static/Simple_RL/Stimuli/Fractals_stims/B.jpg,0.0,80.0,20.0,60.0,0.0,B,A,0.0,16.894,0.394,,
220,,rl_choice_confirmation,,html-keyboard-response,220,152733,0.0-1.0-304.0-0.0,0,0,49028,,,,,,43.0,,,,,,,,,,,,,,,,,,,,,,,18.0,1.106,,
221,,isi,,html-keyboard-response,221,152836,0.0-1.0-306.0,0,0,49028,,,,,,,,,,,,,,,,,,,,,,,,,,,,,20.0,2.0,,
222,,feedback,,html-keyboard-response,222,153841,0.0-1.0-307.0-0.0,0,0,49028,,,,,,43.0,,,,,,,,,,,,,,,,,,,,,,,21.0,1.0,,
223,,iti,,html-keyboard-response,223,153945,0.0-1.0-308.0,0,0,49028,,,,,,,,,,,,,,,,,,,,,,,,,,,,,22.5,1.5,,
224,,rl_choice,,html-keyboard-response,224,154373,0.0-1.0-310.0,0,0,49028,,426.0,,,75.0,44.0,44.0,2.0,hard,1000.0,1500.0,0.0,40.0,60.0,60.0,60.0,C,D,/static/Simple_RL/Stimuli/Fractals_stims/C.jpg,/static/Simple_RL/Stimuli/Fractals_stims/D.jpg,0.0,60.0,40.0,60.0,60.0,D,C,0.0,22.926,0.426,,
225,,rl_choice_confirmation,,html-keyboard-response,225,155453,0.0-1.0-311.0-0.0,0,0,49028,,,,,,44.0,,,,,,,,,,,,,,,,,,,,,,,24.0,1.074,,
226,,isi,,html-keyboard-response,226,155557,0.0-1.0-313.0,0,0,49028,,,,,,,,,,,,,,,,,,,,,,,,,,,,,25.5,1.5,,
227,,feedback,,html-keyboard-response,227,156564,0.0-1.0-314.0-0.0,0,0,49028,,,,,,44.0,,,,,,,,,,,,,,,,,,,,,,,26.5,1.0,,
228,,iti,,html-keyboard-response,228,156668,0.0-1.0-315.0,0,0,49028,,,,,,,,,,,,,,,,,,,,,,,,,,,,,27.5,1.0,,
229,,rl_choice,,html-keyboard-response,229,156818,0.0-1.0-317.0,0,0,49028,,149.0,,,75.0,45.0,45.0,2.0,hard,2000.0,2000.0,0.0,40.0,60.0,40.0,60.0,C,D,/static/Simple_RL/Stimuli/Fractals_stims/C.jpg,/static/Simple_RL/Stimuli/Fractals_stims/D.jpg,0.0,60.0,40.0,60.0,40.0,D,C,0.0,27.649,0.149,,
230,,rl_choice_confirmation,,html-keyboard-response,230,158175,0.0-1.0-318.0-0.0,0,0,49028,,,,,,45.0,,,,,,,,,,,,,,,,,,,,,,,29.0,1.351,,
231,,isi,,html-keyboard-response,231,158281,0.0-1.0-320.0,0,0,49028,,,,,,,,,,,,,,,,,,,,,,,,,,,,,31.0,2.0,,
232,,feedback,,html-keyboard-response,232,159286,0.0-1.0-321.0-0.0,0,0,49028,,,,,,45.0,,,,,,,,,,,,,,,,,,,,,,,32.0,1.0,,
233,,iti,,html-keyboard-response,233,159391,0.0-1.0-322.0,0,0,49028,,,,,,,,,,,,,,,,,,,,,,,,,,,,,34.0,2.0,,
234,,rl_choice,,html-keyboard-response,234,160110,0.0-1.0-324.0,0,0,49028,,718.0,,,75.0,46.0,46.0,2.0,hard,2000.0,2000.0,0.0,40.0,60.0,40.0,40.0,C,D,/static/Simple_RL/Stimuli/Fractals_stims/C.jpg,/static/Simple_RL/Stimuli/Fractals_stims/D.jpg,0.0,60.0,40.0,40.0,40.0,D,C,0.0,34.718,0.718,,
235,,rl_choice_confirmation,,html-keyboard-response,235,160898,0.0-1.0-325.0-0.0,0,0,49028,,,,,,46.0,,,,,,,,,,,,,,,,,,,,,,,35.5,0.782,,
236,,isi,,html-keyboard-response,236,161003,0.0-1.0-327.0,0,0,49028,,,,,,,,,,,,,,,,,,,,,,,,,,,,,37.5,2.0,,
237,,feedback,,html-keyboard-response,237,162008,0.0-1.0-328.0-0.0,0,0,49028,,,,,,46.0,,,,,,,,,,,,,,,,,,,,,,,38.5,1.0,,
238,,iti,,html-keyboard-response,238,162112,0.0-1.0-329.0,0,0,49028,,,,,,,,,,,,,,,,,,,,,,,,,,,,,40.5,2.0,,
239,,rl_choice,,html-keyboard-response,239,162494,0.0-1.0-331.0,0,0,49028,,380.0,,,75.0,47.0,47.0,2.0,hard,1500.0,1500.0,1.0,60.0,40.0,80.0,20.0,D,C,/static/Simple_RL/Stimuli/Fractals_stims/D.jpg,/static/Simple_RL/Stimuli/Fractals_stims/C.jpg,0.0,40.0,60.0,20.0,80.0,C,D,0.0,40.88,0.38,,
240,,rl_choice_confirmation,,html-keyboard-response,240,163619,0.0-1.0-332.0-0.0,0,0,49028,,,,,,47.0,,,,,,,,,,,,,,,,,,,,,,,42.0,1.12,,
241,,isi,,html-keyboard-response,241,163725,0.0-1.0-334.0,0,0,49028,,,,,,,,,,,,,,,,,,,,,,,,,,,,,43.5,1.5,,
242,,feedback,,html-keyboard-response,242,164730,0.0-1.0-335.0-0.0,0,0,49028,,,,,,47.0,,,,,,,,,,,,,,,,,,,,,,,44.5,1.0,,
243,,iti,,html-keyboard-response,243,164834,0.0-1.0-336.0,0,0,49028,,,,,,,,,,,,,,,,,,,,,,,,,,,,,46.0,1.5,,
244,,rl_choice,,html-keyboard-response,244,165554,0.0-1.0-338.0,0,0,49028,,719.0,,,75.0,48.0,48.0,2.0,easy,3500.0,1000.0,1.0,80.0,20.0,60.0,0.0,B,A,/static/Simple_RL/Stimuli/Fractals_stims/B.jpg,/static/Simple_RL/Stimuli/Fractals_stims/A.jpg,0.0,20.0,80.0,0.0,60.0,A,B,0.0,46.719,0.719,,
245,,rl_choice_confirmation,,html-keyboard-response,245,166341,0.0-1.0-339.0-0.0,0,0,49028,,,,,,48.0,,,,,,,,,,,,,,,,,,,,,,,47.5,0.781,,
246,,isi,,html-keyboard-response,246,166445,0.0-1.0-341.0,0,0,49028,,,,,,,,,,,,,,,,,,,,,,,,,,,,,48.5,1.0,,
247,,feedback,,html-keyboard-response,247,167450,0.0-1.0-342.0-0.0,0,0,49028,,,,,,48.0,,,,,,,,,,,,,,,,,,,,,,,49.5,1.0,,
248,,iti,,html-keyboard-response,248,167555,0.0-1.0-343.0,0,0,49028,,,,,,,,,,,,,,,,,,,,,,,,,,,,,53.0,3.5,,
249,,rl_choice,,html-keyboard-response,249,169061,0.0-1.0-345.0,0,0,49028,,,,,,49.0,49.0,2.0,hard,1000.0,3500.0,1.0,60.0,40.0,80.0,20.0,D,C,/static/Simple_RL/Stimuli/Fractals_stims/D.jpg,/static/Simple_RL/Stimuli/Fractals_stims/C.jpg,,,,,,,,,54.5,1.5,1.0,
250,,rl_choice_warning,,html-keyboard-response,250,170066,0.0-1.0-347.0-0.0,1,0,49028,,,,,,,,,,,,,,,,,,,,,,,,,,,,,55.5,1.0,,
251,,isi,,html-keyboard-response,251,170170,0.0-1.0-348.0,0,0,49028,,,,,,,,,,,,,,,,,,,,,,,,,,,,,59.0,3.5,,
252,,iti,,html-keyboard-response,252,170275,0.0-1.0-350.0,0,0,49028,,,,,,,,,,,,,,,,,,,,,,,,,,,,,60.0,1.0,,
253,,rl_choice,,html-keyboard-response,253,170526,0.0-1.0-352.0,0,0,49028,,250.0,,,75.0,50.0,50.0,2.0,easy,1000.0,1500.0,1.0,80.0,20.0,80.0,40.0,B,A,/static/Simple_RL/Stimuli/Fractals_stims/B.jpg,/static/Simple_RL/Stimuli/Fractals_stims/A.jpg,0.0,20.0,80.0,40.0,80.0,A,B,0.0,60.25,0.25,,
254,,rl_choice_confirmation,,html-keyboard-response,254,171781,0.0-1.0-353.0-0.0,0,0,49028,,,,,,50.0,,,,,,,,,,,,,,,,,,,,,,,61.5,1.25,,
255,,isi,,html-keyboard-response,255,171886,0.0-1.0-355.0,0,0,49028,,,,,,,,,,,,,,,,,,,,,,,,,,,,,63.0,1.5,,
256,,feedback,,html-keyboard-response,256,172890,0.0-1.0-356.0-0.0,0,0,49028,,,,,,50.0,,,,,,,,,,,,,,,,,,,,,,,64.0,1.0,,
257,,iti,,html-keyboard-response,257,172995,0.0-1.0-357.0,0,0,49028,,,,,,,,,,,,,,,,,,,,,,,,,,,,,65.0,1.0,,
258,,rl_choice,,html-keyboard-response,258,173538,0.0-1.0-359.0,0,0,49028,,541.0,,,75.0,51.0,51.0,2.0,easy,1000.0,2000.0,0.0,20.0,80.0,0.0,100.0,A,B,/static/Simple_RL/Stimuli/Fractals_stims/A.jpg,/static/Simple_RL/Stimuli/Fractals_stims/B.jpg,0.0,80.0,20.0,100.0,0.0,B,A,0.0,65.541,0.541,,
259,,rl_choice_confirmation,,html-keyboard-response,259,174501,0.0-1.0-360.0-0.0,0,0,49028,,,,,,51.0,,,,,,,,,,,,,,,,,,,,,,,66.5,0.959,,
260,,isi,,html-keyboard-response,260,174605,0.0-1.0-362.0,0,0,49028,,,,,,,,,,,,,,,,,,,,,,,,,,,,,68.5,2.0,,
261,,feedback,,html-keyboard-response,261,175611,0.0-1.0-363.0-0.0,0,0,49028,,,,,,51.0,,,,,,,,,,,,,,,,,,,,,,,69.5,1.0,,
262,,iti,,html-keyboard-response,262,175714,0.0-1.0-364.0,0,0,49028,,,,,,,,,,,,,,,,,,,,,,,,,,,,,70.5,1.0,,
263,,rl_choice,,html-keyboard-response,263,177219,0.0-1.0-366.0,0,0,49028,,,,,,52.0,52.0,2.0,easy,3000.0,1500.0,0.0,20.0,80.0,40.0,80.0,A,B,/static/Simple_RL/Stimuli/Fractals_stims/A.jpg,/static/Simple_RL/Stimuli/Fractals_stims/B.jpg,,,,,,,,,72.0,1.5,1.0,
264,,rl_choice_warning,,html-keyboard-response,264,178224,0.0-1.0-368.0-0.0,1,0,49028,,,,,,,,,,,,,,,,,,,,,,,,,,,,,73.0,1.0,,
265,,isi,,html-keyboard-response,265,178328,0.0-1.0-369.0,0,0,49028,,,,,,,,,,,,,,,,,,,,,,,,,,,,,74.5,1.5,,
266,,iti,,html-keyboard-response,266,178433,0.0-1.0-371.0,0,0,49028,,,,,,,,,,,,,,,,,,,,,,,,,,,,,77.5,3.0,,
267,,rl_choice,,html-keyboard-response,267,178685,0.0-1.0-373.0,0,0,49028,,251.0,,,75.0,53.0,53.0,2.0,hard,2000.0,1000.0,1.0,60.0,40.0,60.0,40.0,D,C,/static/Simple_RL/Stimuli/Fractals_stims/D.jpg,/static/Simple_RL/Stimuli/Fractals_stims/C.jpg,0.0,40.0,60.0,40.0,60.0,C,D,0.0,77.751,0.251,,
268,,rl_choice_confirmation,,html-keyboard-response,268,179938,0.0-1.0-374.0-0.0,0,0,49028,,,,,,53.0,,,,,,,,,,,,,,,,,,,,,,,79.0,1.249,,
269,,isi,,html-keyboard-response,269,180042,0.0-1.0-376.0,0,0,49028,,,,,,,,,,,,,,,,,,,,,,,,,,,,,80.0,1.0,,
270,,feedback,,html-keyboard-response,270,181048,0.0-1.0-377.0-0.0,0,0,49028,,,,,,53.0,,,,,,,,,,,,,,,,,,,,,,,81.0,1.0,,
271,,iti,,html-keyboard-response,271,181153,0.0-1.0-378.0,0,0,49028,,,,,,,,,,,,,,,,,,,,,,,,,,,,,83.0,2.0,,
272,,rl_choice,,html-keyboard-response,272,181668,0.0-1.0-380.0,0,0,49028,,513.0,,,75.0,54.0,54.0,2.0,easy,2000.0,1500.0,0.0,20.0,80.0,0.0,100.0,A,B,/static/Simple_RL/Stimuli/Fractals_stims/A.jpg,/static/Simple_RL/Stimuli/Fractals_stims/B.jpg,0.0,80.0,20.0,100.0,0.0,B,A,0.0,83.513,0.513,,
273,,rl_choice_confirmation,,html-keyboard-response,273,182659,0.0-1.0-381.0-0.0,0,0,49028,,,,,,54.0,,,,,,,,,,,,,,,,,,,,,,,84.5,0.987,,
274,,isi,,html-keyboard-response,274,182762,0.0-1.0-383.0,0,0,49028,,,,,,,,,,,,,,,,,,,,,,,,,,,,,86.0,1.5,,
275,,feedback,,html-keyboard-response,275,183768,0.0-1.0-384.0-0.0,0,0,49028,,,,,,54.0,,,,,,,,,,,,,,,,,,,,,,,87.0,1.0,,
276,,iti,,html-keyboard-response,276,183873,0.0-1.0-385.0,0,0,49028,,,,,,,,,,,,,,,,,,,,,,,,,,,,,89.0,2.0,,
277,,rl_choice,,html-keyboard-response,277,183894,0.0-1.0-387.0,0,0,49028,,21.0,,,75.0,55.0,55.0,2.0,easy,1000.0,1000.0,0.0,20.0,80.0,40.0,100.0,A,B,/static/Simple_RL/Stimuli/Fractals_stims/A.jpg,/static/Simple_RL/Stimuli/Fractals_stims/B.jpg,0.0,80.0,20.0,100.0,40.0,B,A,0.0,89.021,0.021,,
278,,rl_choice_confirmation,,html-keyboard-response,278,185379,0.0-1.0-388.0-0.0,0,0,49028,,,,,,55.0,,,,,,,,,,,,,,,,,,,,,,,90.5,1.479,,
279,,isi,,html-keyboard-response,279,185483,0.0-1.0-390.0,0,0,49028,,,,,,,,,,,,,,,,,,,,,,,,,,,,,91.5,1.0,,
280,,feedback,,html-keyboard-response,280,186488,0.0-1.0-391.0-0.0,0,0,49028,,,,,,55.0,,,,,,,,,,,,,,,,,,,,,,,92.5,1.0,,
281,,iti,,html-keyboard-response,281,186594,0.0-1.0-392.0,0,0,49028,,,,,,,,,,,,,,,,,,,,,,,,,,,,,93.5,1.0,,
282,,rl_choice,,html-keyboard-response,282,186648,0.0-1.0-394.0,0,0,49028,,53.0,,,75.0,56.0,56.0,2.0,hard,2000.0,1000.0,1.0,60.0,40.0,60.0,20.0,D,C,/static/Simple_RL/Stimuli/Fractals_stims/D.jpg,/static/Simple_RL/Stimuli/Fractals_stims/C.jpg,0.0,40.0,60.0,20.0,60.0,C,D,0.0,93.553,0.053,,
283,,rl_choice_confirmation,,html-keyboard-response,283,188101,0.0-1.0-395.0-0.0,0,0,49028,,,,,,56.0,,,,,,,,,,,,,,,,,,,,,,,95.0,1.447,,
284,,isi,,html-keyboard-response,284,188205,0.0-1.0-397.0,0,0,49028,,,,,,,,,,,,,,,,,,,,,,,,,,,,,96.0,1.0,,
285,,feedback,,html-keyboard-response,285,189211,0.0-1.0-398.0-0.0,0,0,49028,,,,,,56.0,,,,,,,,,,,,,,,,,,,,,,,97.0,1.0,,
286,,iti,,html-keyboard-response,286,189316,0.0-1.0-399.0,0,0,49028,,,,,,,,,,,,,,,,,,,,,,,,,,,,,99.0,2.0,,
287,,rl_choice,,html-keyboard-response,287,189374,0.0-1.0-401.0,0,0,49028,,57.0,,,75.0,57.0,57.0,2.0,easy,1000.0,2000.0,1.0,80.0,20.0,80.0,0.0,B,A,/static/Simple_RL/Stimuli/Fractals_stims/B.jpg,/static/Simple_RL/Stimuli/Fractals_stims/A.jpg,0.0,20.0,80.0,0.0,80.0,A,B,0.0,99.057,0.057,,
288,,rl_choice_confirmation,,html-keyboard-response,288,190823,0.0-1.0-402.0-0.0,0,0,49028,,,,,,57.0,,,,,,,,,,,,,,,,,,,,,,,100.5,1.443,,
289,,isi,,html-keyboard-response,289,190929,0.0-1.0-404.0,0,0,49028,,,,,,,,,,,,,,,,,,,,,,,,,,,,,102.5,2.0,,
290,,feedback,,html-keyboard-response,290,191934,0.0-1.0-405.0-0.0,0,0,49028,,,,,,57.0,,,,,,,,,,,,,,,,,,,,,,,103.5,1.0,,
291,,iti,,html-keyboard-response,291,192038,0.0-1.0-406.0,0,0,49028,,,,,,,,,,,,,,,,,,,,,,,,,,,,,104.5,1.0,,
292,,rl_choice,,html-keyboard-response,292,192738,0.0-1.0-408.0,0,0,49028,,699.0,,,75.0,58.0,58.0,2.0,hard,1000.0,1500.0,1.0,60.0,40.0,60.0,60.0,D,C,/static/Simple_RL/Stimuli/Fractals_stims/D.jpg,/static/Simple_RL/Stimuli/Fractals_stims/C.jpg,0.0,40.0,60.0,60.0,60.0,C,D,0.0,105.199,0.699,,
293,,rl_choice_confirmation,,html-keyboard-response,293,193545,0.0-1.0-409.0-0.0,0,0,49028,,,,,,58.0,,,,,,,,,,,,,,,,,,,,,,,106.0,0.801,,
294,,isi,,html-keyboard-response,294,193650,0.0-1.0-411.0,0,0,49028,,,,,,,,,,,,,,,,,,,,,,,,,,,,,107.5,1.5,,
295,,feedback,,html-keyboard-response,295,194652,0.0-1.0-412.0-0.0,0,0,49028,,,,,,58.0,,,,,,,,,,,,,,,,,,,,,,,108.5,1.0,,
296,,iti,,html-keyboard-response,296,194758,0.0-1.0-413.0,0,0,49028,,,,,,,,,,,,,,,,,,,,,,,,,,,,,109.5,1.0,,
297,,rl_choice,,html-keyboard-response,297,195006,0.0-1.0-415.0,0,0,49028,,247.0,,,75.0,59.0,59.0,2.0,easy,1500.0,3000.0,1.0,80.0,20.0,80.0,40.0,B,A,/static/Simple_RL/Stimuli/Fractals_stims/B.jpg,/static/Simple_RL/Stimuli/Fractals_stims/A.jpg,0.0,20.0,80.0,40.0,80.0,A,B,0.0,109.747,0.247,,
298,,rl_choice_confirmation,,html-keyboard-response,298,196264,0.0-1.0-416.0-0.0,0,0,49028,,,,,,59.0,,,,,,,,,,,,,,,,,,,,,,,111.0,1.253,,
299,,isi,,html-keyboard-response,299,196368,0.0-1.0-418.0,0,0,49028,,,,,,,,,,,,,,,,,,,,,,,,,,,,,114.0,3.0,,
300,,feedback,,html-keyboard-response,300,197373,0.0-1.0-419.0-0.0,0,0,49028,,,,,,59.0,,,,,,,,,,,,,,,,,,,,,,,115.0,1.0,,
301,,iti,,html-keyboard-response,301,197479,0.0-1.0-420.0,0,0,49028,,,,,,,,,,,,,,,,,,,,,,,,,,,,,116.5,1.5,,
302,,rl_choice,,html-keyboard-response,302,197494,0.0-1.0-422.0,0,0,49028,,13.0,,,75.0,60.0,60.0,2.0,hard,1500.0,2000.0,0.0,40.0,60.0,40.0,80.0,C,D,/static/Simple_RL/Stimuli/Fractals_stims/C.jpg,/static/Simple_RL/Stimuli/Fractals_stims/D.jpg,0.0,60.0,40.0,80.0,40.0,D,C,0.0,116.513,0.013,,
303,,rl_choice_confirmation,,html-keyboard-response,303,198986,0.0-1.0-423.0-0.0,0,0,49028,,,,,,60.0,,,,,,,,,,,,,,,,,,,,,,,118.0,1.487,,
304,,isi,,html-keyboard-response,304,199091,0.0-1.0-425.0,0,0,49028,,,,,,,,,,,,,,,,,,,,,,,,,,,,,120.0,2.0,,
305,,feedback,,html-keyboard-response,305,200096,0.0-1.0-426.0-0.0,0,0,49028,,,,,,60.0,,,,,,,,,,,,,,,,,,,,,,,121.0,1.0,,
306,,iti,,html-keyboard-response,306,200200,0.0-1.0-427.0,0,0,49028,,,,,,,,,,,,,,,,,,,,,,,,,,,,,122.5,1.5,,
307,,rl_choice,,html-keyboard-response,307,200559,0.0-1.0-429.0,0,0,49028,,358.0,,,75.0,61.0,61.0,2.0,hard,1000.0,1000.0,1.0,60.0,40.0,40.0,40.0,D,C,/static/Simple_RL/Stimuli/Fractals_stims/D.jpg,/static/Simple_RL/Stimuli/Fractals_stims/C.jpg,0.0,40.0,60.0,40.0,40.0,C,D,0.0,122.858,0.358,,
308,,rl_choice_confirmation,,html-keyboard-response,308,201707,0.0-1.0-430.0-0.0,0,0,49028,,,,,,61.0,,,,,,,,,,,,,,,,,,,,,,,124.0,1.142,,
309,,isi,,html-keyboard-response,309,201812,0.0-1.0-432.0,0,0,49028,,,,,,,,,,,,,,,,,,,,,,,,,,,,,125.0,1.0,,
310,,feedback,,html-keyboard-response,310,202817,0.0-1.0-433.0-0.0,0,0,49028,,,,,,61.0,,,,,,,,,,,,,,,,,,,,,,,126.0,1.0,,
311,,iti,,html-keyboard-response,311,202921,0.0-1.0-434.0,0,0,49028,,,,,,,,,,,,,,,,,,,,,,,,,,,,,127.0,1.0,,
312,,rl_choice,,html-keyboard-response,312,203360,0.0-1.0-436.0,0,0,49028,,438.0,,,75.0,62.0,62.0,2.0,easy,3000.0,1500.0,0.0,20.0,80.0,20.0,80.0,A,B,/static/Simple_RL/Stimuli/Fractals_stims/A.jpg,/static/Simple_RL/Stimuli/Fractals_stims/B.jpg,0.0,80.0,20.0,80.0,20.0,B,A,0.0,127.438,0.438,,
313,,rl_choice_confirmation,,html-keyboard-response,313,204427,0.0-1.0-437.0-0.0,0,0,49028,,,,,,62.0,,,,,,,,,,,,,,,,,,,,,,,128.5,1.062,,
314,,isi,,html-keyboard-response,314,204532,0.0-1.0-439.0,0,0,49028,,,,,,,,,,,,,,,,,,,,,,,,,,,,,130.0,1.5,,
315,,feedback,,html-keyboard-response,315,205537,0.0-1.0-440.0-0.0,0,0,49028,,,,,,62.0,,,,,,,,,,,,,,,,,,,,,,,131.0,1.0,,
316,,iti,,html-keyboard-response,316,205641,0.0-1.0-441.0,0,0,49028,,,,,,,,,,,,,,,,,,,,,,,,,,,,,134.0,3.0,,
317,,rl_choice,,html-keyboard-response,317,206127,0.0-1.0-443.0,0,0,49028,,483.0,,,75.0,63.0,63.0,2.0,hard,1000.0,1500.0,1.0,60.0,40.0,60.0,40.0,D,C,/static/Simple_RL/Stimuli/Fractals_stims/D.jpg,/static/Simple_RL/Stimuli/Fractals_stims/C.jpg,0.0,40.0,60.0,40.0,60.0,C,D,0.0,134.483,0.483,,
318,,rl_choice_confirmation,,html-keyboard-response,318,207149,0.0-1.0-444.0-0.0,0,0,49028,,,,,,63.0,,,,,,,,,,,,,,,,,,,,,,,135.5,1.017,,
319,,isi,,html-keyboard-response,319,207254,0.0-1.0-446.0,0,0,49028,,,,,,,,,,,,,,,,,,,,,,,,,,,,,137.0,1.5,,
320,,feedback,,html-keyboard-response,320,208260,0.0-1.0-447.0-0.0,0,0,49028,,,,,,63.0,,,,,,,,,,,,,,,,,,,,,,,138.0,1.0,,
321,,iti,,html-keyboard-response,321,208363,0.0-1.0-448.0,0,0,49028,,,,,,,,,,,,,,,,,,,,,,,,,,,,,139.0,1.0,,
322,,rl_choice,,html-keyboard-response,322,208870,0.0-1.0-450.0,0,0,49028,,506.0,,,75.0,64.0,64.0,2.0,hard,3500.0,1000.0,0.0,40.0,60.0,60.0,80.0,C,D,/static/Simple_RL/Stimuli/Fractals_stims/C.jpg,/static/Simple_RL/Stimuli/Fractals_stims/D.jpg,0.0,60.0,40.0,80.0,60.0,D,C,0.0,139.506,0.506,,
323,,rl_choice_confirmation,,html-keyboard-response,323,209868,0.0-1.0-451.0-0.0,0,0,49028,,,,,,64.0,,,,,,,,,,,,,,,,,,,,,,,140.5,0.994,,
324,,isi,,html-keyboard-response,324,209972,0.0-1.0-453.0,0,0,49028,,,,,,,,,,,,,,,,,,,,,,,,,,,,,141.5,1.0,,
325,,feedback,,html-keyboard-response,325,210977,0.0-1.0-454.0-0.0,0,0,49028,,,,,,64.0,,,,,,,,,,,,,,,,,,,,,,,142.5,1.0,,
326,,iti,,html-keyboard-response,326,211081,0.0-1.0-455.0,0,0,49028,,,,,,,,,,,,,,,,,,,,,,,,,,,,,146.0,3.5,,
327,,rl_choice,,html-keyboard-response,327,211359,0.0-1.0-457.0,0,0,49028,,277.0,,,75.0,65.0,65.0,2.0,easy,1500.0,1000.0,1.0,80.0,20.0,100.0,40.0,B,A,/static/Simple_RL/Stimuli/Fractals_stims/B.jpg,/static/Simple_RL/Stimuli/Fractals_stims/A.jpg,0.0,20.0,80.0,40.0,100.0,A,B,0.0,146.277,0.277,,
328,,rl_choice_confirmation,,html-keyboard-response,328,212587,0.0-1.0-458.0-0.0,0,0,49028,,,,,,65.0,,,,,,,,,,,,,,,,,,,,,,,147.5,1.223,,
329,,isi,,html-keyboard-response,329,212689,0.0-1.0-460.0,0,0,49028,,,,,,,,,,,,,,,,,,,,,,,,,,,,,148.5,1.0,,
330,,feedback,,html-keyboard-response,330,213694,0.0-1.0-461.0-0.0,0,0,49028,,,,,,65.0,,,,,,,,,,,,,,,,,,,,,,,149.5,1.0,,
331,,iti,,html-keyboard-response,331,213800,0.0-1.0-462.0,0,0,49028,,,,,,,,,,,,,,,,,,,,,,,,,,,,,151.0,1.5,,
332,,rl_choice,,html-keyboard-response,332,214021,0.0-1.0-464.0,0,0,49028,,220.0,,,75.0,66.0,66.0,2.0,hard,1500.0,3000.0,1.0,60.0,40.0,60.0,40.0,D,C,/static/Simple_RL/Stimuli/Fractals_stims/D.jpg,/static/Simple_RL/Stimuli/Fractals_stims/C.jpg,0.0,40.0,60.0,40.0,60.0,C,D,0.0,151.22,0.22,,
333,,rl_choice_confirmation,,html-keyboard-response,333,215308,0.0-1.0-465.0-0.0,0,0,49028,,,,,,66.0,,,,,,,,,,,,,,,,,,,,,,,152.5,1.28,,
334,,isi,,html-keyboard-response,334,215414,0.0-1.0-467.0,0,0,49028,,,,,,,,,,,,,,,,,,,,,,,,,,,,,155.5,3.0,,
335,,feedback,,html-keyboard-response,335,216420,0.0-1.0-468.0-0.0,0,0,49028,,,,,,66.0,,,,,,,,,,,,,,,,,,,,,,,156.5,1.0,,
336,,iti,,html-keyboard-response,336,216525,0.0-1.0-469.0,0,0,49028,,,,,,,,,,,,,,,,,,,,,,,,,,,,,158.0,1.5,,
337,,rl_choice,,html-keyboard-response,337,216835,0.0-1.0-471.0,0,0,49028,,307.0,,,75.0,67.0,67.0,2.0,hard,1500.0,1500.0,0.0,40.0,60.0,20.0,80.0,C,D,/static/Simple_RL/Stimuli/Fractals_stims/C.jpg,/static/Simple_RL/Stimuli/Fractals_stims/D.jpg,0.0,60.0,40.0,80.0,20.0,D,C,0.0,158.307,0.307,,
338,,rl_choice_confirmation,,html-keyboard-response,338,218033,0.0-1.0-472.0-0.0,0,0,49028,,,,,,67.0,,,,,,,,,,,,,,,,,,,,,,,159.5,1.193,,
339,,isi,,html-keyboard-response,339,218137,0.0-1.0-474.0,0,0,49028,,,,,,,,,,,,,,,,,,,,,,,,,,,,,161.0,1.5,,
340,,feedback,,html-keyboard-response,340,219142,0.0-1.0-475.0-0.0,0,0,49028,,,,,,67.0,,,,,,,,,,,,,,,,,,,,,,,162.0,1.0,,
341,,iti,,html-keyboard-response,341,219247,0.0-1.0-476.0,0,0,49028,,,,,,,,,,,,,,,,,,,,,,,,,,,,,163.5,1.5,,
342,,rl_choice,,html-keyboard-response,342,219726,0.0-1.0-478.0,0,0,49028,,478.0,,,75.0,68.0,68.0,2.0,hard,3000.0,1000.0,1.0,60.0,40.0,60.0,40.0,D,C,/static/Simple_RL/Stimuli/Fractals_stims/D.jpg,/static/Simple_RL/Stimuli/Fractals_stims/C.jpg,0.0,40.0,60.0,40.0,60.0,C,D,0.0,163.978,0.478,,
343,,rl_choice_confirmation,,html-keyboard-response,343,220752,0.0-1.0-479.0-0.0,0,0,49028,,,,,,68.0,,,,,,,,,,,,,,,,,,,,,,,165.0,1.022,,
344,,isi,,html-keyboard-response,344,220854,0.0-1.0-481.0,0,0,49028,,,,,,,,,,,,,,,,,,,,,,,,,,,,,166.0,1.0,,
345,,feedback,,html-keyboard-response,345,221857,0.0-1.0-482.0-0.0,0,0,49028,,,,,,68.0,,,,,,,,,,,,,,,,,,,,,,,167.0,1.0,,
346,,iti,,html-keyboard-response,346,221962,0.0-1.0-483.0,0,0,49028,,,,,,,,,,,,,,,,,,,,,,,,,,,,,170.0,3.0,,
347,,rl_choice,,html-keyboard-response,347,222712,0.0-1.0-485.0,0,0,49028,,748.0,,,75.0,69.0,69.0,2.0,easy,1000.0,1000.0,0.0,20.0,80.0,40.0,80.0,A,B,/static/Simple_RL/Stimuli/Fractals_stims/A.jpg,/static/Simple_RL/Stimuli/Fractals_stims/B.jpg,0.0,80.0,20.0,80.0,40.0,B,A,0.0,170.748,0.748,,
348,,rl_choice_confirmation,,html-keyboard-response,348,223468,0.0-1.0-486.0-0.0,0,0,49028,,,,,,69.0,,,,,,,,,,,,,,,,,,,,,,,171.5,0.752,,
349,,isi,,html-keyboard-response,349,223572,0.0-1.0-488.0,0,0,49028,,,,,,,,,,,,,,,,,,,,,,,,,,,,,172.5,1.0,,
350,,feedback,,html-keyboard-response,350,224577,0.0-1.0-489.0-0.0,0,0,49028,,,,,,69.0,,,,,,,,,,,,,,,,,,,,,,,173.5,1.0,,
351,,iti,,html-keyboard-response,351,224681,0.0-1.0-490.0,0,0,49028,,,,,,,,,,,,,,,,,,,,,,,,,,,,,174.5,1.0,,
352,,rl_choice,,html-keyboard-response,352,224805,0.0-1.0-492.0,0,0,49028,,122.0,,,75.0,70.0,70.0,2.0,easy,1500.0,1000.0,1.0,80.0,20.0,80.0,20.0,B,A,/static/Simple_RL/Stimuli/Fractals_stims/B.jpg,/static/Simple_RL/Stimuli/Fractals_stims/A.jpg,0.0,20.0,80.0,20.0,80.0,A,B,0.0,174.622,0.122,,
353,,rl_choice_confirmation,,html-keyboard-response,353,226187,0.0-1.0-493.0-0.0,0,0,49028,,,,,,70.0,,,,,,,,,,,,,,,,,,,,,,,176.0,1.378,,
354,,isi,,html-keyboard-response,354,226289,0.0-1.0-495.0,0,0,49028,,,,,,,,,,,,,,,,,,,,,,,,,,,,,177.0,1.0,,
355,,feedback,,html-keyboard-response,355,227295,0.0-1.0-496.0-0.0,0,0,49028,,,,,,70.0,,,,,,,,,,,,,,,,,,,,,,,178.0,1.0,,
356,,iti,,html-keyboard-response,356,227401,0.0-1.0-497.0,0,0,49028,,,,,,,,,,,,,,,,,,,,,,,,,,,,,179.5,1.5,,
357,,rl_choice,,html-keyboard-response,357,227836,0.0-1.0-499.0,0,0,49028,,433.0,,,75.0,71.0,71.0,2.0,easy,1500.0,1000.0,0.0,20.0,80.0,40.0,60.0,A,B,/static/Simple_RL/Stimuli/Fractals_stims/A.jpg,/static/Simple_RL/Stimuli/Fractals_stims/B.jpg,0.0,80.0,20.0,60.0,40.0,B,A,0.0,179.933,0.433,,
358,,rl_choice_confirmation,,html-keyboard-response,358,228908,0.0-1.0-500.0-0.0,0,0,49028,,,,,,71.0,,,,,,,,,,,,,,,,,,,,,,,181.0,1.067,,
359,,isi,,html-keyboard-response,359,229013,0.0-1.0-502.0,0,0,49028,,,,,,,,,,,,,,,,,,,,,,,,,,,,,182.0,1.0,,
360,,feedback,,html-keyboard-response,360,230017,0.0-1.0-503.0-0.0,0,0,49028,,,,,,71.0,,,,,,,,,,,,,,,,,,,,,,,183.0,1.0,,
361,,iti,,html-keyboard-response,361,230122,0.0-1.0-504.0,0,0,49028,,,,,,,,,,,,,,,,,,,,,,,,,,,,,184.5,1.5,,
362,,rl_choice,,html-keyboard-response,362,230571,0.0-1.0-506.0,0,0,49028,,448.0,,,68.0,72.0,72.0,2.0,easy,2000.0,3000.0,0.0,20.0,80.0,20.0,100.0,A,B,/static/Simple_RL/Stimuli/Fractals_stims/A.jpg,/static/Simple_RL/Stimuli/Fractals_stims/B.jpg,1.0,20.0,80.0,20.0,100.0,A,B,0.0,184.948,0.448,,
363,,rl_choice_confirmation,,html-keyboard-response,363,231628,0.0-1.0-507.0-0.0,0,0,49028,,,,,,72.0,,,,,,,,,,,,,,,,,,,,,,,186.0,1.052,,
364,,isi,,html-keyboard-response,364,231732,0.0-1.0-509.0,0,0,49028,,,,,,,,,,,,,,,,,,,,,,,,,,,,,189.0,3.0,,
365,,feedback,,html-keyboard-response,365,232735,0.0-1.0-510.0-0.0,0,0,49028,,,,,,72.0,,,,,,,,,,,,,,,,,,,,,,,190.0,1.0,,
366,,iti,,html-keyboard-response,366,232838,0.0-1.0-511.0,0,0,49028,,,,,,,,,,,,,,,,,,,,,,,,,,,,,192.0,2.0,,
367,,rl_choice,,html-keyboard-response,367,234341,0.0-1.0-513.0,0,0,49028,,,,,,73.0,73.0,2.0,easy,1000.0,3500.0,0.0,20.0,80.0,40.0,60.0,A,B,/static/Simple_RL/Stimuli/Fractals_stims/A.jpg,/static/Simple_RL/Stimuli/Fractals_stims/B.jpg,,,,,,,,,193.5,1.5,1.0,
368,,rl_choice_warning,,html-keyboard-response,368,235346,0.0-1.0-515.0-0.0,1,0,49028,,,,,,,,,,,,,,,,,,,,,,,,,,,,,194.5,1.0,,
369,,isi,,html-keyboard-response,369,235451,0.0-1.0-516.0,0,0,49028,,,,,,,,,,,,,,,,,,,,,,,,,,,,,198.0,3.5,,
370,,iti,,html-keyboard-response,370,235556,0.0-1.0-518.0,0,0,49028,,,,,,,,,,,,,,,,,,,,,,,,,,,,,199.0,1.0,,
371,,rl_choice,,html-keyboard-response,371,237061,0.0-1.0-520.0,0,0,49028,,,,,,74.0,74.0,2.0,hard,3000.0,1000.0,0.0,40.0,60.0,40.0,40.0,C,D,/static/Simple_RL/Stimuli/Fractals_stims/C.jpg,/static/Simple_RL/Stimuli/Fractals_stims/D.jpg,,,,,,,,,200.5,1.5,1.0,
372,,rl_choice_warning,,html-keyboard-response,372,238066,0.0-1.0-522.0-0.0,1,0,49028,,,,,,,,,,,,,,,,,,,,,,,,,,,,,201.5,1.0,,
373,,isi,,html-keyboard-response,373,238171,0.0-1.0-523.0,0,0,49028,,,,,,,,,,,,,,,,,,,,,,,,,,,,,202.5,1.0,,
374,,iti,,html-keyboard-response,374,238274,0.0-1.0-525.0,0,0,49028,,,,,,,,,,,,,,,,,,,,,,,,,,,,,205.5,3.0,,
375,,rl_choice,,html-keyboard-response,375,239780,0.0-1.0-527.0,0,0,49028,,,,,,75.0,75.0,2.0,easy,1000.0,1000.0,0.0,20.0,80.0,0.0,60.0,A,B,/static/Simple_RL/Stimuli/Fractals_stims/A.jpg,/static/Simple_RL/Stimuli/Fractals_stims/B.jpg,,,,,,,,,207.0,1.5,1.0,
376,,rl_choice_warning,,html-keyboard-response,376,240786,0.0-1.0-529.0-0.0,1,0,49028,,,,,,,,,,,,,,,,,,,,,,,,,,,,,208.0,1.0,,
377,,isi,,html-keyboard-response,377,240890,0.0-1.0-530.0,0,0,49028,,,,,,,,,,,,,,,,,,,,,,,,,,,,,209.0,1.0,,
378,,iti,,html-keyboard-response,378,240994,0.0-1.0-532.0,0,0,49028,,,,,,,,,,,,,,,,,,,,,,,,,,,,,210.0,1.0,,
379,,rl_choice,,html-keyboard-response,379,242501,0.0-1.0-534.0,0,0,49028,,,,,,76.0,76.0,2.0,easy,2000.0,1500.0,1.0,80.0,20.0,100.0,20.0,B,A,/static/Simple_RL/Stimuli/Fractals_stims/B.jpg,/static/Simple_RL/Stimuli/Fractals_stims/A.jpg,,,,,,,,,211.5,1.5,1.0,
380,,rl_choice_warning,,html-keyboard-response,380,243505,0.0-1.0-536.0-0.0,1,0,49028,,,,,,,,,,,,,,,,,,,,,,,,,,,,,212.5,1.0,,
381,,isi,,html-keyboard-response,381,243610,0.0-1.0-537.0,0,0,49028,,,,,,,,,,,,,,,,,,,,,,,,,,,,,214.0,1.5,,
382,,iti,,html-keyboard-response,382,243714,0.0-1.0-539.0,0,0,49028,,,,,,,,,,,,,,,,,,,,,,,,,,,,,216.0,2.0,,
383,,rl_choice,,html-keyboard-response,383,245218,0.0-1.0-541.0,0,0,49028,,,,,,77.0,77.0,2.0,easy,1000.0,1000.0,0.0,20.0,80.0,0.0,80.0,A,B,/static/Simple_RL/Stimuli/Fractals_stims/A.jpg,/static/Simple_RL/Stimuli/Fractals_stims/B.jpg,,,,,,,,,217.5,1.5,1.0,
384,,rl_choice_warning,,html-keyboard-response,384,246223,0.0-1.0-543.0-0.0,1,0,49028,,,,,,,,,,,,,,,,,,,,,,,,,,,,,218.5,1.0,,
385,,isi,,html-keyboard-response,385,246327,0.0-1.0-544.0,0,0,49028,,,,,,,,,,,,,,,,,,,,,,,,,,,,,219.5,1.0,,
386,,iti,,html-keyboard-response,386,246431,0.0-1.0-546.0,0,0,49028,,,,,,,,,,,,,,,,,,,,,,,,,,,,,220.5,1.0,,
387,,rl_choice,,html-keyboard-response,387,247937,0.0-1.0-548.0,0,0,49028,,,,,,78.0,78.0,2.0,hard,1500.0,1000.0,0.0,40.0,60.0,20.0,60.0,C,D,/static/Simple_RL/Stimuli/Fractals_stims/C.jpg,/static/Simple_RL/Stimuli/Fractals_stims/D.jpg,,,,,,,,,222.0,1.5,1.0,
388,,rl_choice_warning,,html-keyboard-response,388,248941,0.0-1.0-550.0-0.0,1,0,49028,,,,,,,,,,,,,,,,,,,,,,,,,,,,,223.0,1.0,,
389,,isi,,html-keyboard-response,389,249047,0.0-1.0-551.0,0,0,49028,,,,,,,,,,,,,,,,,,,,,,,,,,,,,224.0,1.0,,
390,,iti,,html-keyboard-response,390,249152,0.0-1.0-553.0,0,0,49028,,,,,,,,,,,,,,,,,,,,,,,,,,,,,225.5,1.5,,
391,,rl_choice,,html-keyboard-response,391,250658,0.0-1.0-555.0,0,0,49028,,,,,,79.0,79.0,2.0,easy,2000.0,2000.0,1.0,80.0,20.0,100.0,0.0,B,A,/static/Simple_RL/Stimuli/Fractals_stims/B.jpg,/static/Simple_RL/Stimuli/Fractals_stims/A.jpg,,,,,,,,,227.0,1.5,1.0,
392,,rl_choice_warning,,html-keyboard-response,392,251663,0.0-1.0-557.0-0.0,1,0,49028,,,,,,,,,,,,,,,,,,,,,,,,,,,,,228.0,1.0,,
393,,isi,,html-keyboard-response,393,251768,0.0-1.0-558.0,0,0,49028,,,,,,,,,,,,,,,,,,,,,,,,,,,,,230.0,2.0,,
394,,iti,,html-keyboard-response,394,251872,0.0-1.0-560.0,0,0,49028,,,,,,,,,,,,,,,,,,,,,,,,,,,,,232.0,2.0,,1.0
395,,final_tally,,html-keyboard-response,395,256354,0.0-2.0,0,0,49028,,4481.0,,,68.0,,,,,,,,,,,,,,,,,,,,,,,,,,,
396,,debreif_intro,,html-keyboard-response,396,259045,0.0-3.0,0,0,49028,,2663.0,,,68.0,,,,,,,,,,,,,,,,,,,,,,,,,,,
397,,debreif_age,,survey-text,397,261854,0.0-4.0,0,0,49028,,2809.0,"{""Q0"":""23""}",,,,,,,,,,,,,,,,,,,,,,,,,,,,,
398,,debreif_gender,,survey-multi-choice,398,263253,0.0-5.0,0,0,49028,,1398.0,"{""Q0"":""Male""}",,,,,,,,,,,,,,,,,,,,,,,,,,,,,
399,,debreif_dominant_hand,,survey-multi-choice,399,264605,0.0-6.0,0,0,49028,,1350.0,"{""Q0"":""Left""}",,,,,,,,,,,,,,,,,,,,,,,,,,,,,
400,,debreif_native_language,,survey-multi-choice,400,265902,0.0-7.0,0,0,49028,,1296.0,"{""Q0"":""Yes""}",,,,,,,,,,,,,,,,,,,,,,,,,,,,,
401,,debreif_fluency,,survey-likert,401,267446,0.0-8.0,0,0,49028,,1542.0,"{""Q0"":1}",,,,,,,,,,,,,,,,,,,,,,,,,,,,,
402,,debreif_strategy_category_learning,,survey-text,402,269151,0.0-9.0,0,0,49028,,1703.0,"{""Q0"":""d""}",,,,,,,,,,,,,,,,,,,,,,,,,,,,,
403,,debreif_strategy_old_trials,,survey-text,403,270172,0.0-10.0,0,0,49028,,1020.0,"{""Q0"":""d""}",,,,,,,,,,,,,,,,,,,,,,,,,,,,,
404,,debreif_strategy_size,,survey-text,404,271197,0.0-11.0,0,0,49028,,1023.0,"{""Q0"":""dd""}",,,,,,,,,,,,,,,,,,,,,,,,,,,,,
405,,debreif_strategy_rl,,survey-text,405,272202,0.0-12.0,0,0,49028,,1005.0,"{""Q0"":""dd""}",,,,,,,,,,,,,,,,,,,,,,,,,,,,,
406,,debreif_clear_instructions,,survey-text,406,273208,0.0-13.0,0,0,49028,,1005.0,"{""Q0"":""dd""}",,,,,,,,,,,,,,,,,,,,,,,,,,,,,
407,,debreif_end,,html-keyboard-response,407,275586,0.0-14.0,0,0,49028,,2377.0,,,32.0,,,,,,,,,,,,,,,,,,,,,,,,,,,
