,success,ttype,start_time,trial_type,trial_index,time_elapsed,internal_node_id,warning,missed_checkup,PID,view_history,rt,responses,repeat_instructions,key_press,index,trial_num,block,condition,iti,isi,high_group_on_left,left_group_value,right_group_value,left_item_value,right_item_value,left_img,right_img,left_img_path,right_img_path,left_chosen,chosen_group_value,unchosen_group_value,chosen_item_value,unchosen_item_value,chosen_img,unchosen_img,onset,duration,no_response,total_bonus_tally
0,True,full_screen,d06022022hr1443,fullscreen,0,3409,0.0-0.0,0,0,96878,,,,,,,,,,,,,,,,,,,,,,,,,,,,,,,
1,,size_instructions,,instructions,1,5444,0.0-1.0-0.0-0.0,0,0,96878,"[{""page_index"":0,""viewing_time"":924},{""page_index"":1,""viewing_time"":421},{""page_index"":2,""viewing_time"":191},{""page_index"":3,""viewing_time"":171},{""page_index"":4,""viewing_time"":155},{""page_index"":5,""viewing_time"":171}]",2034.0,,,,,,,,,,,,,,,,,,,,,,,,,,,,,
2,,rl_comprehension_check,,survey-multi-choice,2,9959,0.0-1.0-0.0-1.0,0,0,96878,,4514.0,"{""Q0"":""True"",""Q1"":""True"",""Q2"":""D for left and K for right""}",0.0,,,,,,,,,,,,,,,,,,,,,,,,,,,
3,,,,html-keyboard-response,3,11276,0.0-1.0-1.0,0,0,96878,,1315.0,,,68.0,,,,,,,,,,,,,,,,,,,,,,,,,,
4,,rl_choice,,html-keyboard-response,4,11662,0.0-1.0-2.0,0,0,96878,,383.0,,,75.0,0.0,0.0,1.0,hard,1500.0,2000.0,1.0,60.0,40.0,80.0,20.0,B,A,/static/Simple_RL/Stimuli/Fractals_stims/B.jpg,/static/Simple_RL/Stimuli/Fractals_stims/A.jpg,0.0,40.0,60.0,20.0,80.0,A,B,0.383,0.383,0.0,
5,,rl_choice_confirmation,,html-keyboard-response,5,12782,0.0-1.0-3.0-0.0,0,0,96878,,,,,,0.0,,,,,,,,,,,,,,,,,,,,,,1.5,1.117,,
6,,isi,,html-keyboard-response,6,12884,0.0-1.0-5.0,0,0,96878,,,,,,,,,,,,,,,,,,,,,,,,,,,,3.5,2.0,,
7,,feedback,,html-keyboard-response,7,13887,0.0-1.0-6.0-0.0,0,0,96878,,,,,,0.0,,,,,,,,,,,,,,,,,,,,,,4.5,1.0,,
8,,iti,,html-keyboard-response,8,13987,0.0-1.0-7.0,0,0,96878,,,,,,,,,,,,,,,,,,,,,,,,,,,,6.0,1.5,,
9,,rl_choice,,html-keyboard-response,9,14163,0.0-1.0-9.0,0,0,96878,,174.0,,,68.0,1.0,1.0,1.0,easy,1500.0,3000.0,1.0,80.0,20.0,60.0,40.0,D,C,/static/Simple_RL/Stimuli/Fractals_stims/D.jpg,/static/Simple_RL/Stimuli/Fractals_stims/C.jpg,1.0,80.0,20.0,60.0,40.0,D,C,6.174,0.174,0.0,
10,,rl_choice_confirmation,,html-keyboard-response,10,15491,0.0-1.0-10.0-0.0,0,0,96878,,,,,,1.0,,,,,,,,,,,,,,,,,,,,,,7.5,1.326,,
11,,isi,,html-keyboard-response,11,15594,0.0-1.0-12.0,0,0,96878,,,,,,,,,,,,,,,,,,,,,,,,,,,,10.5,3.0,,
12,,feedback,,html-keyboard-response,12,16597,0.0-1.0-13.0-0.0,0,0,96878,,,,,,1.0,,,,,,,,,,,,,,,,,,,,,,11.5,1.0,,
13,,iti,,html-keyboard-response,13,16699,0.0-1.0-14.0,0,0,96878,,,,,,,,,,,,,,,,,,,,,,,,,,,,13.0,1.5,,
14,,rl_choice,,html-keyboard-response,14,16826,0.0-1.0-16.0,0,0,96878,,127.0,,,68.0,2.0,2.0,1.0,hard,2000.0,3000.0,0.0,40.0,60.0,40.0,40.0,A,B,/static/Simple_RL/Stimuli/Fractals_stims/A.jpg,/static/Simple_RL/Stimuli/Fractals_stims/B.jpg,1.0,40.0,60.0,40.0,40.0,A,B,13.127,0.127,0.0,
15,,rl_choice_confirmation,,html-keyboard-response,15,18201,0.0-1.0-17.0-0.0,0,0,96878,,,,,,2.0,,,,,,,,,,,,,,,,,,,,,,14.5,1.373,,
16,,isi,,html-keyboard-response,16,18304,0.0-1.0-19.0,0,0,96878,,,,,,,,,,,,,,,,,,,,,,,,,,,,17.5,3.0,,
17,,feedback,,html-keyboard-response,17,19526,0.0-1.0-20.0-0.0,0,0,96878,,,,,,2.0,,,,,,,,,,,,,,,,,,,,,,18.5,1.0,,
18,,iti,,html-keyboard-response,18,20333,0.0-1.0-21.0,0,0,96878,,,,,,,,,,,,,,,,,,,,,,,,,,,,20.5,2.0,,
19,,rl_choice,,html-keyboard-response,19,21145,0.0-1.0-23.0,0,0,96878,,811.0,,,68.0,3.0,3.0,1.0,hard,1000.0,1000.0,0.0,40.0,60.0,40.0,40.0,A,B,/static/Simple_RL/Stimuli/Fractals_stims/A.jpg,/static/Simple_RL/Stimuli/Fractals_stims/B.jpg,1.0,40.0,60.0,40.0,40.0,A,B,21.311,0.811,0.0,
20,,rl_choice_confirmation,,html-keyboard-response,20,21838,0.0-1.0-24.0-0.0,0,0,96878,,,,,,3.0,,,,,,,,,,,,,,,,,,,,,,22.0,0.689,,
21,,isi,,html-keyboard-response,21,21941,0.0-1.0-26.0,0,0,96878,,,,,,,,,,,,,,,,,,,,,,,,,,,,23.0,1.0,,
22,,feedback,,html-keyboard-response,22,22944,0.0-1.0-27.0-0.0,0,0,96878,,,,,,3.0,,,,,,,,,,,,,,,,,,,,,,24.0,1.0,,
23,,iti,,html-keyboard-response,23,23046,0.0-1.0-28.0,0,0,96878,,,,,,,,,,,,,,,,,,,,,,,,,,,,25.0,1.0,,
24,,rl_choice,,html-keyboard-response,24,23183,0.0-1.0-30.0,0,0,96878,,137.0,,,75.0,4.0,4.0,1.0,hard,3500.0,3500.0,1.0,60.0,40.0,60.0,20.0,B,A,/static/Simple_RL/Stimuli/Fractals_stims/B.jpg,/static/Simple_RL/Stimuli/Fractals_stims/A.jpg,0.0,40.0,60.0,20.0,60.0,A,B,25.137,0.137,0.0,
25,,rl_choice_confirmation,,html-keyboard-response,25,24547,0.0-1.0-31.0-0.0,0,0,96878,,,,,,4.0,,,,,,,,,,,,,,,,,,,,,,26.5,1.363,,
26,,isi,,html-keyboard-response,26,24649,0.0-1.0-33.0,0,0,96878,,,,,,,,,,,,,,,,,,,,,,,,,,,,30.0,3.5,,
27,,feedback,,html-keyboard-response,27,25651,0.0-1.0-34.0-0.0,0,0,96878,,,,,,4.0,,,,,,,,,,,,,,,,,,,,,,31.0,1.0,,
28,,iti,,html-keyboard-response,28,25755,0.0-1.0-35.0,0,0,96878,,,,,,,,,,,,,,,,,,,,,,,,,,,,34.5,3.5,,
29,,rl_choice,,html-keyboard-response,29,25865,0.0-1.0-37.0,0,0,96878,,109.0,,,75.0,5.0,5.0,1.0,hard,1500.0,1000.0,0.0,40.0,60.0,20.0,60.0,A,B,/static/Simple_RL/Stimuli/Fractals_stims/A.jpg,/static/Simple_RL/Stimuli/Fractals_stims/B.jpg,0.0,60.0,40.0,60.0,20.0,B,A,34.609,0.109,0.0,
30,,rl_choice_confirmation,,html-keyboard-response,30,27261,0.0-1.0-38.0-0.0,0,0,96878,,,,,,5.0,,,,,,,,,,,,,,,,,,,,,,36.0,1.391,,
31,,isi,,html-keyboard-response,31,27363,0.0-1.0-40.0,0,0,96878,,,,,,,,,,,,,,,,,,,,,,,,,,,,37.0,1.0,,
32,,feedback,,html-keyboard-response,32,28366,0.0-1.0-41.0-0.0,0,0,96878,,,,,,5.0,,,,,,,,,,,,,,,,,,,,,,38.0,1.0,,
33,,iti,,html-keyboard-response,33,28468,0.0-1.0-42.0,0,0,96878,,,,,,,,,,,,,,,,,,,,,,,,,,,,39.5,1.5,,
34,,rl_choice,,html-keyboard-response,34,28609,0.0-1.0-44.0,0,0,96878,,141.0,,,68.0,6.0,6.0,1.0,hard,1000.0,1000.0,0.0,40.0,60.0,40.0,60.0,A,B,/static/Simple_RL/Stimuli/Fractals_stims/A.jpg,/static/Simple_RL/Stimuli/Fractals_stims/B.jpg,1.0,40.0,60.0,40.0,60.0,A,B,39.641,0.141,0.0,
35,,rl_choice_confirmation,,html-keyboard-response,35,29969,0.0-1.0-45.0-0.0,0,0,96878,,,,,,6.0,,,,,,,,,,,,,,,,,,,,,,41.0,1.359,,
36,,isi,,html-keyboard-response,36,30074,0.0-1.0-47.0,0,0,96878,,,,,,,,,,,,,,,,,,,,,,,,,,,,42.0,1.0,,
37,,feedback,,html-keyboard-response,37,31079,0.0-1.0-48.0-0.0,0,0,96878,,,,,,6.0,,,,,,,,,,,,,,,,,,,,,,43.0,1.0,,
38,,iti,,html-keyboard-response,38,31181,0.0-1.0-49.0,0,0,96878,,,,,,,,,,,,,,,,,,,,,,,,,,,,44.0,1.0,,
39,,rl_choice,,html-keyboard-response,39,31246,0.0-1.0-51.0,0,0,96878,,65.0,,,75.0,7.0,7.0,1.0,hard,3000.0,1500.0,0.0,40.0,60.0,20.0,40.0,A,B,/static/Simple_RL/Stimuli/Fractals_stims/A.jpg,/static/Simple_RL/Stimuli/Fractals_stims/B.jpg,0.0,60.0,40.0,40.0,20.0,B,A,44.065,0.065,0.0,
40,,rl_choice_confirmation,,html-keyboard-response,40,32683,0.0-1.0-52.0-0.0,0,0,96878,,,,,,7.0,,,,,,,,,,,,,,,,,,,,,,45.5,1.435,,
41,,isi,,html-keyboard-response,41,32786,0.0-1.0-54.0,0,0,96878,,,,,,,,,,,,,,,,,,,,,,,,,,,,47.0,1.5,,
42,,feedback,,html-keyboard-response,42,33789,0.0-1.0-55.0-0.0,0,0,96878,,,,,,7.0,,,,,,,,,,,,,,,,,,,,,,48.0,1.0,,
43,,iti,,html-keyboard-response,43,33890,0.0-1.0-56.0,0,0,96878,,,,,,,,,,,,,,,,,,,,,,,,,,,,51.0,3.0,,
44,,rl_choice,,html-keyboard-response,44,34113,0.0-1.0-58.0,0,0,96878,,222.0,,,68.0,8.0,8.0,1.0,hard,1000.0,2000.0,1.0,60.0,40.0,60.0,60.0,B,A,/static/Simple_RL/Stimuli/Fractals_stims/B.jpg,/static/Simple_RL/Stimuli/Fractals_stims/A.jpg,1.0,60.0,40.0,60.0,60.0,B,A,51.222,0.222,0.0,
45,,rl_choice_confirmation,,html-keyboard-response,45,35395,0.0-1.0-59.0-0.0,0,0,96878,,,,,,8.0,,,,,,,,,,,,,,,,,,,,,,52.5,1.278,,
46,,isi,,html-keyboard-response,46,35500,0.0-1.0-61.0,0,0,96878,,,,,,,,,,,,,,,,,,,,,,,,,,,,54.5,2.0,,
47,,feedback,,html-keyboard-response,47,36503,0.0-1.0-62.0-0.0,0,0,96878,,,,,,8.0,,,,,,,,,,,,,,,,,,,,,,55.5,1.0,,
48,,iti,,html-keyboard-response,48,36605,0.0-1.0-63.0,0,0,96878,,,,,,,,,,,,,,,,,,,,,,,,,,,,56.5,1.0,,
49,,rl_choice,,html-keyboard-response,49,38110,0.0-1.0-65.0,0,0,96878,,,,,,9.0,9.0,1.0,hard,2000.0,2000.0,1.0,60.0,40.0,80.0,60.0,B,A,/static/Simple_RL/Stimuli/Fractals_stims/B.jpg,/static/Simple_RL/Stimuli/Fractals_stims/A.jpg,,,,,,,,58.0,1.5,1.0,
50,,rl_choice_warning,,html-keyboard-response,50,39112,0.0-1.0-67.0-0.0,0,0,96878,,,,,,,,,,,,,,,,,,,,,,,,,,,,59.0,1.0,,
51,,isi,,html-keyboard-response,51,39214,0.0-1.0-68.0,0,0,96878,,,,,,,,,,,,,,,,,,,,,,,,,,,,61.0,2.0,,
52,,iti,,html-keyboard-response,52,39315,0.0-1.0-70.0,0,0,96878,,,,,,,,,,,,,,,,,,,,,,,,,,,,63.0,2.0,,
53,,rl_choice,,html-keyboard-response,53,40818,0.0-1.0-72.0,0,0,96878,,,,,,10.0,10.0,1.0,hard,2000.0,2000.0,0.0,40.0,60.0,20.0,60.0,A,B,/static/Simple_RL/Stimuli/Fractals_stims/A.jpg,/static/Simple_RL/Stimuli/Fractals_stims/B.jpg,,,,,,,,64.5,1.5,1.0,
54,,rl_choice_warning,,html-keyboard-response,54,41821,0.0-1.0-74.0-0.0,0,0,96878,,,,,,,,,,,,,,,,,,,,,,,,,,,,65.5,1.0,,
55,,isi,,html-keyboard-response,55,41922,0.0-1.0-75.0,0,0,96878,,,,,,,,,,,,,,,,,,,,,,,,,,,,67.5,2.0,,
56,,iti,,html-keyboard-response,56,42025,0.0-1.0-77.0,0,0,96878,,,,,,,,,,,,,,,,,,,,,,,,,,,,69.5,2.0,,
57,,rl_choice,,html-keyboard-response,57,43530,0.0-1.0-79.0,0,0,96878,,,,,,11.0,11.0,1.0,easy,1500.0,2000.0,1.0,80.0,20.0,100.0,20.0,D,C,/static/Simple_RL/Stimuli/Fractals_stims/D.jpg,/static/Simple_RL/Stimuli/Fractals_stims/C.jpg,,,,,,,,71.0,1.5,1.0,
58,,rl_choice_warning,,html-keyboard-response,58,44533,0.0-1.0-81.0-0.0,0,0,96878,,,,,,,,,,,,,,,,,,,,,,,,,,,,72.0,1.0,,
59,,isi,,html-keyboard-response,59,44638,0.0-1.0-82.0,0,0,96878,,,,,,,,,,,,,,,,,,,,,,,,,,,,74.0,2.0,,
60,,iti,,html-keyboard-response,60,44743,0.0-1.0-84.0,0,0,96878,,,,,,,,,,,,,,,,,,,,,,,,,,,,75.5,1.5,,
61,,rl_choice,,html-keyboard-response,61,46247,0.0-1.0-86.0,0,0,96878,,,,,,12.0,12.0,1.0,hard,1000.0,1500.0,1.0,60.0,40.0,40.0,20.0,B,A,/static/Simple_RL/Stimuli/Fractals_stims/B.jpg,/static/Simple_RL/Stimuli/Fractals_stims/A.jpg,,,,,,,,77.0,1.5,1.0,
62,,rl_choice_warning,,html-keyboard-response,62,47250,0.0-1.0-88.0-0.0,0,0,96878,,,,,,,,,,,,,,,,,,,,,,,,,,,,78.0,1.0,,
63,,isi,,html-keyboard-response,63,47351,0.0-1.0-89.0,0,0,96878,,,,,,,,,,,,,,,,,,,,,,,,,,,,79.5,1.5,,
64,,iti,,html-keyboard-response,64,47452,0.0-1.0-91.0,0,0,96878,,,,,,,,,,,,,,,,,,,,,,,,,,,,80.5,1.0,,
65,,rl_choice,,html-keyboard-response,65,48956,0.0-1.0-93.0,0,0,96878,,,,,,13.0,13.0,1.0,easy,1500.0,1500.0,1.0,80.0,20.0,100.0,40.0,D,C,/static/Simple_RL/Stimuli/Fractals_stims/D.jpg,/static/Simple_RL/Stimuli/Fractals_stims/C.jpg,,,,,,,,82.0,1.5,1.0,
66,,rl_choice_warning,,html-keyboard-response,66,49961,0.0-1.0-95.0-0.0,0,0,96878,,,,,,,,,,,,,,,,,,,,,,,,,,,,83.0,1.0,,
67,,isi,,html-keyboard-response,67,50065,0.0-1.0-96.0,0,0,96878,,,,,,,,,,,,,,,,,,,,,,,,,,,,84.5,1.5,,
68,,iti,,html-keyboard-response,68,50169,0.0-1.0-98.0,0,0,96878,,,,,,,,,,,,,,,,,,,,,,,,,,,,86.0,1.5,,
69,,rl_choice,,html-keyboard-response,69,51671,0.0-1.0-100.0,0,0,96878,,,,,,14.0,14.0,1.0,easy,1000.0,1000.0,0.0,20.0,80.0,0.0,60.0,C,D,/static/Simple_RL/Stimuli/Fractals_stims/C.jpg,/static/Simple_RL/Stimuli/Fractals_stims/D.jpg,,,,,,,,87.5,1.5,1.0,
70,,rl_choice_warning,,html-keyboard-response,70,52674,0.0-1.0-102.0-0.0,0,0,96878,,,,,,,,,,,,,,,,,,,,,,,,,,,,88.5,1.0,,
71,,isi,,html-keyboard-response,71,52776,0.0-1.0-103.0,0,0,96878,,,,,,,,,,,,,,,,,,,,,,,,,,,,89.5,1.0,,
72,,iti,,html-keyboard-response,72,52880,0.0-1.0-105.0,0,0,96878,,,,,,,,,,,,,,,,,,,,,,,,,,,,90.5,1.0,,
73,,rl_choice,,html-keyboard-response,73,54382,0.0-1.0-107.0,0,0,96878,,,,,,15.0,15.0,1.0,easy,1000.0,2000.0,0.0,20.0,80.0,20.0,100.0,C,D,/static/Simple_RL/Stimuli/Fractals_stims/C.jpg,/static/Simple_RL/Stimuli/Fractals_stims/D.jpg,,,,,,,,92.0,1.5,1.0,
74,,rl_choice_warning,,html-keyboard-response,74,55385,0.0-1.0-109.0-0.0,0,0,96878,,,,,,,,,,,,,,,,,,,,,,,,,,,,93.0,1.0,,
75,,isi,,html-keyboard-response,75,55488,0.0-1.0-110.0,0,0,96878,,,,,,,,,,,,,,,,,,,,,,,,,,,,95.0,2.0,,
76,,iti,,html-keyboard-response,76,55593,0.0-1.0-112.0,0,0,96878,,,,,,,,,,,,,,,,,,,,,,,,,,,,96.0,1.0,,
77,,rl_choice,,html-keyboard-response,77,57095,0.0-1.0-114.0,0,0,96878,,,,,,16.0,16.0,1.0,hard,1000.0,1000.0,1.0,60.0,40.0,60.0,20.0,B,A,/static/Simple_RL/Stimuli/Fractals_stims/B.jpg,/static/Simple_RL/Stimuli/Fractals_stims/A.jpg,,,,,,,,97.5,1.5,1.0,
78,,rl_choice_warning,,html-keyboard-response,78,58098,0.0-1.0-116.0-0.0,0,0,96878,,,,,,,,,,,,,,,,,,,,,,,,,,,,98.5,1.0,,
79,,isi,,html-keyboard-response,79,58200,0.0-1.0-117.0,0,0,96878,,,,,,,,,,,,,,,,,,,,,,,,,,,,99.5,1.0,,
80,,iti,,html-keyboard-response,80,58302,0.0-1.0-119.0,0,0,96878,,,,,,,,,,,,,,,,,,,,,,,,,,,,100.5,1.0,,
81,,rl_choice,,html-keyboard-response,81,59805,0.0-1.0-121.0,0,0,96878,,,,,,17.0,17.0,1.0,easy,1000.0,2000.0,0.0,20.0,80.0,40.0,100.0,C,D,/static/Simple_RL/Stimuli/Fractals_stims/C.jpg,/static/Simple_RL/Stimuli/Fractals_stims/D.jpg,,,,,,,,102.0,1.5,1.0,
82,,rl_choice_warning,,html-keyboard-response,82,60810,0.0-1.0-123.0-0.0,0,0,96878,,,,,,,,,,,,,,,,,,,,,,,,,,,,103.0,1.0,,
83,,isi,,html-keyboard-response,83,60914,0.0-1.0-124.0,0,0,96878,,,,,,,,,,,,,,,,,,,,,,,,,,,,105.0,2.0,,
84,,iti,,html-keyboard-response,84,61015,0.0-1.0-126.0,0,0,96878,,,,,,,,,,,,,,,,,,,,,,,,,,,,106.0,1.0,,
85,,rl_choice,,html-keyboard-response,85,62519,0.0-1.0-128.0,0,0,96878,,,,,,18.0,18.0,1.0,easy,2000.0,1000.0,0.0,20.0,80.0,0.0,100.0,C,D,/static/Simple_RL/Stimuli/Fractals_stims/C.jpg,/static/Simple_RL/Stimuli/Fractals_stims/D.jpg,,,,,,,,107.5,1.5,1.0,
86,,rl_choice_warning,,html-keyboard-response,86,63522,0.0-1.0-130.0-0.0,0,0,96878,,,,,,,,,,,,,,,,,,,,,,,,,,,,108.5,1.0,,
87,,isi,,html-keyboard-response,87,63627,0.0-1.0-131.0,0,0,96878,,,,,,,,,,,,,,,,,,,,,,,,,,,,109.5,1.0,,
88,,iti,,html-keyboard-response,88,63730,0.0-1.0-133.0,0,0,96878,,,,,,,,,,,,,,,,,,,,,,,,,,,,111.5,2.0,,
89,,rl_choice,,html-keyboard-response,89,65235,0.0-1.0-135.0,0,0,96878,,,,,,19.0,19.0,1.0,hard,1500.0,1500.0,0.0,40.0,60.0,60.0,60.0,A,B,/static/Simple_RL/Stimuli/Fractals_stims/A.jpg,/static/Simple_RL/Stimuli/Fractals_stims/B.jpg,,,,,,,,113.0,1.5,1.0,
90,,rl_choice_warning,,html-keyboard-response,90,66239,0.0-1.0-137.0-0.0,0,0,96878,,,,,,,,,,,,,,,,,,,,,,,,,,,,114.0,1.0,,
91,,isi,,html-keyboard-response,91,66343,0.0-1.0-138.0,0,0,96878,,,,,,,,,,,,,,,,,,,,,,,,,,,,115.5,1.5,,
92,,iti,,html-keyboard-response,92,66444,0.0-1.0-140.0,0,0,96878,,,,,,,,,,,,,,,,,,,,,,,,,,,,117.0,1.5,,
93,,rl_choice,,html-keyboard-response,93,67949,0.0-1.0-142.0,0,0,96878,,,,,,20.0,20.0,1.0,easy,1000.0,1000.0,1.0,80.0,20.0,60.0,40.0,D,C,/static/Simple_RL/Stimuli/Fractals_stims/D.jpg,/static/Simple_RL/Stimuli/Fractals_stims/C.jpg,,,,,,,,118.5,1.5,1.0,
94,,rl_choice_warning,,html-keyboard-response,94,68953,0.0-1.0-144.0-0.0,0,0,96878,,,,,,,,,,,,,,,,,,,,,,,,,,,,119.5,1.0,,
95,,isi,,html-keyboard-response,95,69054,0.0-1.0-145.0,0,0,96878,,,,,,,,,,,,,,,,,,,,,,,,,,,,120.5,1.0,,
96,,iti,,html-keyboard-response,96,69155,0.0-1.0-147.0,0,0,96878,,,,,,,,,,,,,,,,,,,,,,,,,,,,121.5,1.0,,
97,,rl_choice,,html-keyboard-response,97,70660,0.0-1.0-149.0,0,0,96878,,,,,,21.0,21.0,1.0,easy,3500.0,1000.0,1.0,80.0,20.0,60.0,20.0,D,C,/static/Simple_RL/Stimuli/Fractals_stims/D.jpg,/static/Simple_RL/Stimuli/Fractals_stims/C.jpg,,,,,,,,123.0,1.5,1.0,
98,,rl_choice_warning,,html-keyboard-response,98,71662,0.0-1.0-151.0-0.0,0,0,96878,,,,,,,,,,,,,,,,,,,,,,,,,,,,124.0,1.0,,
99,,isi,,html-keyboard-response,99,71763,0.0-1.0-152.0,0,0,96878,,,,,,,,,,,,,,,,,,,,,,,,,,,,125.0,1.0,,
100,,iti,,html-keyboard-response,100,71865,0.0-1.0-154.0,0,0,96878,,,,,,,,,,,,,,,,,,,,,,,,,,,,128.5,3.5,,
101,,rl_choice,,html-keyboard-response,101,72198,0.0-1.0-156.0,0,0,96878,,332.0,,,68.0,22.0,22.0,1.0,easy,1500.0,1500.0,1.0,80.0,20.0,80.0,20.0,D,C,/static/Simple_RL/Stimuli/Fractals_stims/D.jpg,/static/Simple_RL/Stimuli/Fractals_stims/C.jpg,1.0,80.0,20.0,80.0,20.0,D,C,128.832,0.332,0.0,
102,,rl_choice_confirmation,,html-keyboard-response,102,73369,0.0-1.0-157.0-0.0,0,0,96878,,,,,,22.0,,,,,,,,,,,,,,,,,,,,,,130.0,1.168,,
103,,isi,,html-keyboard-response,103,73470,0.0-1.0-159.0,0,0,96878,,,,,,,,,,,,,,,,,,,,,,,,,,,,131.5,1.5,,
104,,feedback,,html-keyboard-response,104,74471,0.0-1.0-160.0-0.0,0,0,96878,,,,,,22.0,,,,,,,,,,,,,,,,,,,,,,132.5,1.0,,
105,,iti,,html-keyboard-response,105,74574,0.0-1.0-161.0,0,0,96878,,,,,,,,,,,,,,,,,,,,,,,,,,,,134.0,1.5,,
106,,rl_choice,,html-keyboard-response,106,74884,0.0-1.0-163.0,0,0,96878,,309.0,,,68.0,23.0,23.0,1.0,easy,2000.0,1500.0,0.0,20.0,80.0,20.0,60.0,C,D,/static/Simple_RL/Stimuli/Fractals_stims/C.jpg,/static/Simple_RL/Stimuli/Fractals_stims/D.jpg,1.0,20.0,80.0,20.0,60.0,C,D,134.309,0.309,0.0,
107,,rl_choice_confirmation,,html-keyboard-response,107,76077,0.0-1.0-164.0-0.0,0,0,96878,,,,,,23.0,,,,,,,,,,,,,,,,,,,,,,135.5,1.191,,
108,,isi,,html-keyboard-response,108,76178,0.0-1.0-166.0,0,0,96878,,,,,,,,,,,,,,,,,,,,,,,,,,,,137.0,1.5,,
109,,feedback,,html-keyboard-response,109,77181,0.0-1.0-167.0-0.0,0,0,96878,,,,,,23.0,,,,,,,,,,,,,,,,,,,,,,138.0,1.0,,
110,,iti,,html-keyboard-response,110,77284,0.0-1.0-168.0,0,0,96878,,,,,,,,,,,,,,,,,,,,,,,,,,,,140.0,2.0,,
111,,rl_choice,,html-keyboard-response,111,77499,0.0-1.0-170.0,0,0,96878,,214.0,,,68.0,24.0,24.0,1.0,hard,1000.0,1000.0,0.0,40.0,60.0,60.0,80.0,A,B,/static/Simple_RL/Stimuli/Fractals_stims/A.jpg,/static/Simple_RL/Stimuli/Fractals_stims/B.jpg,1.0,40.0,60.0,60.0,80.0,A,B,140.214,0.214,0.0,
112,,rl_choice_confirmation,,html-keyboard-response,112,78787,0.0-1.0-171.0-0.0,0,0,96878,,,,,,24.0,,,,,,,,,,,,,,,,,,,,,,141.5,1.286,,
113,,isi,,html-keyboard-response,113,78888,0.0-1.0-173.0,0,0,96878,,,,,,,,,,,,,,,,,,,,,,,,,,,,142.5,1.0,,
114,,feedback,,html-keyboard-response,114,79889,0.0-1.0-174.0-0.0,0,0,96878,,,,,,24.0,,,,,,,,,,,,,,,,,,,,,,143.5,1.0,,
115,,iti,,html-keyboard-response,115,79990,0.0-1.0-175.0,0,0,96878,,,,,,,,,,,,,,,,,,,,,,,,,,,,144.5,1.0,,
116,,rl_choice,,html-keyboard-response,116,80299,0.0-1.0-177.0,0,0,96878,,309.0,,,68.0,25.0,25.0,1.0,easy,1000.0,1500.0,0.0,20.0,80.0,20.0,60.0,C,D,/static/Simple_RL/Stimuli/Fractals_stims/C.jpg,/static/Simple_RL/Stimuli/Fractals_stims/D.jpg,1.0,20.0,80.0,20.0,60.0,C,D,144.809,0.309,0.0,
117,,rl_choice_confirmation,,html-keyboard-response,117,81491,0.0-1.0-178.0-0.0,0,0,96878,,,,,,25.0,,,,,,,,,,,,,,,,,,,,,,146.0,1.191,,
118,,isi,,html-keyboard-response,118,81592,0.0-1.0-180.0,0,0,96878,,,,,,,,,,,,,,,,,,,,,,,,,,,,147.5,1.5,,
119,,feedback,,html-keyboard-response,119,82595,0.0-1.0-181.0-0.0,0,0,96878,,,,,,25.0,,,,,,,,,,,,,,,,,,,,,,148.5,1.0,,
120,,iti,,html-keyboard-response,120,82696,0.0-1.0-182.0,0,0,96878,,,,,,,,,,,,,,,,,,,,,,,,,,,,149.5,1.0,,
121,,rl_choice,,html-keyboard-response,121,82721,0.0-1.0-184.0,0,0,96878,,24.0,,,68.0,26.0,26.0,1.0,easy,2000.0,1000.0,0.0,20.0,80.0,40.0,100.0,C,D,/static/Simple_RL/Stimuli/Fractals_stims/C.jpg,/static/Simple_RL/Stimuli/Fractals_stims/D.jpg,1.0,20.0,80.0,40.0,100.0,C,D,149.524,0.024,0.0,
122,,rl_choice_confirmation,,html-keyboard-response,122,84199,0.0-1.0-185.0-0.0,0,0,96878,,,,,,26.0,,,,,,,,,,,,,,,,,,,,,,151.0,1.476,,
123,,isi,,html-keyboard-response,123,84302,0.0-1.0-187.0,0,0,96878,,,,,,,,,,,,,,,,,,,,,,,,,,,,152.0,1.0,,
124,,feedback,,html-keyboard-response,124,85303,0.0-1.0-188.0-0.0,0,0,96878,,,,,,26.0,,,,,,,,,,,,,,,,,,,,,,153.0,1.0,,
125,,iti,,html-keyboard-response,125,85404,0.0-1.0-189.0,0,0,96878,,,,,,,,,,,,,,,,,,,,,,,,,,,,155.0,2.0,,
126,,rl_choice,,html-keyboard-response,126,86909,0.0-1.0-191.0,0,0,96878,,,,,,27.0,27.0,1.0,hard,1000.0,1000.0,1.0,60.0,40.0,60.0,20.0,B,A,/static/Simple_RL/Stimuli/Fractals_stims/B.jpg,/static/Simple_RL/Stimuli/Fractals_stims/A.jpg,,,,,,,,156.5,1.5,1.0,
127,,rl_choice_warning,,html-keyboard-response,127,87913,0.0-1.0-193.0-0.0,0,0,96878,,,,,,,,,,,,,,,,,,,,,,,,,,,,157.5,1.0,,
128,,isi,,html-keyboard-response,128,88018,0.0-1.0-194.0,0,0,96878,,,,,,,,,,,,,,,,,,,,,,,,,,,,158.5,1.0,,
129,,iti,,html-keyboard-response,129,88121,0.0-1.0-196.0,0,0,96878,,,,,,,,,,,,,,,,,,,,,,,,,,,,159.5,1.0,,
130,,rl_choice,,html-keyboard-response,130,89626,0.0-1.0-198.0,0,0,96878,,,,,,28.0,28.0,1.0,easy,1500.0,1500.0,1.0,80.0,20.0,80.0,0.0,D,C,/static/Simple_RL/Stimuli/Fractals_stims/D.jpg,/static/Simple_RL/Stimuli/Fractals_stims/C.jpg,,,,,,,,161.0,1.5,1.0,
131,,rl_choice_warning,,html-keyboard-response,131,91863,0.0-1.0-200.0-0.0,0,0,96878,,,,,,,,,,,,,,,,,,,,,,,,,,,,162.0,1.0,,
132,,isi,,html-keyboard-response,132,92748,0.0-1.0-201.0,0,0,96878,,,,,,,,,,,,,,,,,,,,,,,,,,,,163.5,1.5,,
133,,iti,,html-keyboard-response,133,93505,0.0-1.0-203.0,0,0,96878,,,,,,,,,,,,,,,,,,,,,,,,,,,,165.0,1.5,,
134,,rl_choice,,html-keyboard-response,134,95505,0.0-1.0-205.0,0,0,96878,,,,,,29.0,29.0,1.0,easy,2000.0,2000.0,0.0,20.0,80.0,20.0,80.0,C,D,/static/Simple_RL/Stimuli/Fractals_stims/C.jpg,/static/Simple_RL/Stimuli/Fractals_stims/D.jpg,,,,,,,,166.5,1.5,1.0,
135,,rl_choice_warning,,html-keyboard-response,135,97505,0.0-1.0-207.0-0.0,0,0,96878,,,,,,,,,,,,,,,,,,,,,,,,,,,,167.5,1.0,,
136,,isi,,html-keyboard-response,136,98524,0.0-1.0-208.0,0,0,96878,,,,,,,,,,,,,,,,,,,,,,,,,,,,169.5,2.0,,
137,,iti,,html-keyboard-response,137,99505,0.0-1.0-210.0,0,0,96878,,,,,,,,,,,,,,,,,,,,,,,,,,,,171.5,2.0,,
138,,rl_choice,,html-keyboard-response,138,101915,0.0-1.0-212.0,0,0,96878,,,,,,30.0,30.0,1.0,hard,1500.0,1500.0,1.0,60.0,40.0,60.0,60.0,B,A,/static/Simple_RL/Stimuli/Fractals_stims/B.jpg,/static/Simple_RL/Stimuli/Fractals_stims/A.jpg,,,,,,,,173.0,1.5,1.0,
139,,rl_choice_warning,,html-keyboard-response,139,103719,0.0-1.0-214.0-0.0,0,0,96878,,,,,,,,,,,,,,,,,,,,,,,,,,,,174.0,1.0,,
140,,isi,,html-keyboard-response,140,104897,0.0-1.0-215.0,0,0,96878,,,,,,,,,,,,,,,,,,,,,,,,,,,,175.5,1.5,,
141,,iti,,html-keyboard-response,141,105683,0.0-1.0-217.0,0,0,96878,,,,,,,,,,,,,,,,,,,,,,,,,,,,177.0,1.5,,
142,,rl_choice,,html-keyboard-response,142,107880,0.0-1.0-219.0,0,0,96878,,,,,,31.0,31.0,1.0,easy,3000.0,1000.0,0.0,20.0,80.0,40.0,80.0,C,D,/static/Simple_RL/Stimuli/Fractals_stims/C.jpg,/static/Simple_RL/Stimuli/Fractals_stims/D.jpg,,,,,,,,178.5,1.5,1.0,
143,,rl_choice_warning,,html-keyboard-response,143,110307,0.0-1.0-221.0-0.0,0,0,96878,,,,,,,,,,,,,,,,,,,,,,,,,,,,179.5,1.0,,
144,,isi,,html-keyboard-response,144,110594,0.0-1.0-222.0,0,0,96878,,,,,,,,,,,,,,,,,,,,,,,,,,,,180.5,1.0,,
145,,iti,,html-keyboard-response,145,111954,0.0-1.0-224.0,0,0,96878,,,,,,,,,,,,,,,,,,,,,,,,,,,,183.5,3.0,,
146,,rl_choice,,html-keyboard-response,146,113687,0.0-1.0-226.0,0,0,96878,,,,,,32.0,32.0,1.0,easy,1000.0,1000.0,1.0,80.0,20.0,80.0,20.0,D,C,/static/Simple_RL/Stimuli/Fractals_stims/D.jpg,/static/Simple_RL/Stimuli/Fractals_stims/C.jpg,,,,,,,,185.0,1.5,1.0,
147,,rl_choice_warning,,html-keyboard-response,147,115823,0.0-1.0-228.0-0.0,0,0,96878,,,,,,,,,,,,,,,,,,,,,,,,,,,,186.0,1.0,,
148,,isi,,html-keyboard-response,148,116505,0.0-1.0-229.0,0,0,96878,,,,,,,,,,,,,,,,,,,,,,,,,,,,187.0,1.0,,
149,,iti,,html-keyboard-response,149,117735,0.0-1.0-231.0,0,0,96878,,,,,,,,,,,,,,,,,,,,,,,,,,,,188.0,1.0,,
150,,rl_choice,,html-keyboard-response,150,119687,0.0-1.0-233.0,0,0,96878,,,,,,33.0,33.0,1.0,easy,1000.0,1000.0,0.0,20.0,80.0,40.0,60.0,C,D,/static/Simple_RL/Stimuli/Fractals_stims/C.jpg,/static/Simple_RL/Stimuli/Fractals_stims/D.jpg,,,,,,,,189.5,1.5,1.0,
151,,rl_choice_warning,,html-keyboard-response,151,121505,0.0-1.0-235.0-0.0,0,0,96878,,,,,,,,,,,,,,,,,,,,,,,,,,,,190.5,1.0,,
152,,isi,,html-keyboard-response,152,122505,0.0-1.0-236.0,0,0,96878,,,,,,,,,,,,,,,,,,,,,,,,,,,,191.5,1.0,,
153,,iti,,html-keyboard-response,153,123505,0.0-1.0-238.0,0,0,96878,,,,,,,,,,,,,,,,,,,,,,,,,,,,192.5,1.0,,
154,,rl_choice,,html-keyboard-response,154,125698,0.0-1.0-240.0,0,0,96878,,,,,,34.0,34.0,1.0,hard,1500.0,1000.0,0.0,40.0,60.0,40.0,40.0,A,B,/static/Simple_RL/Stimuli/Fractals_stims/A.jpg,/static/Simple_RL/Stimuli/Fractals_stims/B.jpg,,,,,,,,194.0,1.5,1.0,
155,,rl_choice_warning,,html-keyboard-response,155,127505,0.0-1.0-242.0-0.0,0,0,96878,,,,,,,,,,,,,,,,,,,,,,,,,,,,195.0,1.0,,
156,,isi,,html-keyboard-response,156,128505,0.0-1.0-243.0,0,0,96878,,,,,,,,,,,,,,,,,,,,,,,,,,,,196.0,1.0,,
157,,iti,,html-keyboard-response,157,129507,0.0-1.0-245.0,0,0,96878,,,,,,,,,,,,,,,,,,,,,,,,,,,,197.5,1.5,,
158,,rl_choice,,html-keyboard-response,158,131505,0.0-1.0-247.0,0,0,96878,,,,,,35.0,35.0,1.0,hard,1000.0,3000.0,0.0,40.0,60.0,40.0,40.0,A,B,/static/Simple_RL/Stimuli/Fractals_stims/A.jpg,/static/Simple_RL/Stimuli/Fractals_stims/B.jpg,,,,,,,,199.0,1.5,1.0,
159,,rl_choice_warning,,html-keyboard-response,159,133505,0.0-1.0-249.0-0.0,0,0,96878,,,,,,,,,,,,,,,,,,,,,,,,,,,,200.0,1.0,,
160,,isi,,html-keyboard-response,160,134505,0.0-1.0-250.0,0,0,96878,,,,,,,,,,,,,,,,,,,,,,,,,,,,203.0,3.0,,
161,,iti,,html-keyboard-response,161,135505,0.0-1.0-252.0,0,0,96878,,,,,,,,,,,,,,,,,,,,,,,,,,,,204.0,1.0,,
162,,rl_choice,,html-keyboard-response,162,137505,0.0-1.0-254.0,0,0,96878,,,,,,36.0,36.0,1.0,easy,1000.0,3500.0,0.0,20.0,80.0,0.0,80.0,C,D,/static/Simple_RL/Stimuli/Fractals_stims/C.jpg,/static/Simple_RL/Stimuli/Fractals_stims/D.jpg,,,,,,,,205.5,1.5,1.0,
163,,rl_choice_warning,,html-keyboard-response,163,139905,0.0-1.0-256.0-0.0,0,0,96878,,,,,,,,,,,,,,,,,,,,,,,,,,,,206.5,1.0,,
164,,isi,,html-keyboard-response,164,140510,0.0-1.0-257.0,0,0,96878,,,,,,,,,,,,,,,,,,,,,,,,,,,,210.0,3.5,,
165,,iti,,html-keyboard-response,165,141505,0.0-1.0-259.0,0,0,96878,,,,,,,,,,,,,,,,,,,,,,,,,,,,211.0,1.0,,
166,,rl_choice,,html-keyboard-response,166,143532,0.0-1.0-261.0,0,0,96878,,,,,,37.0,37.0,1.0,hard,2000.0,1500.0,1.0,60.0,40.0,40.0,20.0,B,A,/static/Simple_RL/Stimuli/Fractals_stims/B.jpg,/static/Simple_RL/Stimuli/Fractals_stims/A.jpg,,,,,,,,212.5,1.5,1.0,
167,,rl_choice_warning,,html-keyboard-response,167,145538,0.0-1.0-263.0-0.0,0,0,96878,,,,,,,,,,,,,,,,,,,,,,,,,,,,213.5,1.0,,
168,,isi,,html-keyboard-response,168,146983,0.0-1.0-264.0,0,0,96878,,,,,,,,,,,,,,,,,,,,,,,,,,,,215.0,1.5,,
169,,iti,,html-keyboard-response,169,147533,0.0-1.0-266.0,0,0,96878,,,,,,,,,,,,,,,,,,,,,,,,,,,,217.0,2.0,,
170,,rl_choice,,html-keyboard-response,170,149534,0.0-1.0-268.0,0,0,96878,,,,,,38.0,38.0,1.0,hard,3000.0,1000.0,1.0,60.0,40.0,40.0,40.0,B,A,/static/Simple_RL/Stimuli/Fractals_stims/B.jpg,/static/Simple_RL/Stimuli/Fractals_stims/A.jpg,,,,,,,,218.5,1.5,1.0,
171,,rl_choice_warning,,html-keyboard-response,171,151528,0.0-1.0-270.0-0.0,0,0,96878,,,,,,,,,,,,,,,,,,,,,,,,,,,,219.5,1.0,,
172,,isi,,html-keyboard-response,172,152505,0.0-1.0-271.0,0,0,96878,,,,,,,,,,,,,,,,,,,,,,,,,,,,220.5,1.0,,
173,,iti,,html-keyboard-response,173,153927,0.0-1.0-273.0,0,0,96878,,,,,,,,,,,,,,,,,,,,,,,,,,,,223.5,3.0,,
174,,rl_choice,,html-keyboard-response,174,156293,0.0-1.0-275.0,0,0,96878,,,,,,39.0,39.0,1.0,easy,3000.0,3000.0,1.0,80.0,20.0,100.0,0.0,D,C,/static/Simple_RL/Stimuli/Fractals_stims/D.jpg,/static/Simple_RL/Stimuli/Fractals_stims/C.jpg,,,,,,,,225.0,1.5,1.0,
175,,rl_choice_warning,,html-keyboard-response,175,158109,0.0-1.0-277.0-0.0,0,0,96878,,,,,,,,,,,,,,,,,,,,,,,,,,,,226.0,1.0,,
176,,isi,,html-keyboard-response,176,158563,0.0-1.0-278.0,0,0,96878,,,,,,,,,,,,,,,,,,,,,,,,,,,,229.0,3.0,,
177,,iti,,html-keyboard-response,177,159505,0.0-1.0-280.0,0,0,96878,,,,,,,,,,,,,,,,,,,,,,,,,,,,232.0,3.0,,
178,,block_over,,html-keyboard-response,178,310454,0.0-1.0-281.0-0.0,0,0,96878,,150948.0,,,68.0,39.0,,,,,,,,,,,,,,,,,,,,,,,,,
179,,start_run,,html-keyboard-response,179,312828,0.0-1.0-281.0-1.0,0,0,96878,,2374.0,,,84.0,,,,,,,,,,,,,,,,,,,,,,,,,,
180,,rl_choice,,html-keyboard-response,180,313192,0.0-1.0-282.0,0,0,96878,,363.0,,,75.0,40.0,40.0,2.0,hard,2000.0,1000.0,1.0,60.0,40.0,80.0,40.0,B,A,/static/Simple_RL/Stimuli/Fractals_stims/B.jpg,/static/Simple_RL/Stimuli/Fractals_stims/A.jpg,0.0,40.0,60.0,40.0,80.0,A,B,0.363,0.363,0.0,
181,,rl_choice_confirmation,,html-keyboard-response,181,314332,0.0-1.0-283.0-0.0,0,0,96878,,,,,,40.0,,,,,,,,,,,,,,,,,,,,,,1.5,1.137,,
182,,isi,,html-keyboard-response,182,314433,0.0-1.0-285.0,0,0,96878,,,,,,,,,,,,,,,,,,,,,,,,,,,,2.5,1.0,,
183,,feedback,,html-keyboard-response,183,315436,0.0-1.0-286.0-0.0,0,0,96878,,,,,,40.0,,,,,,,,,,,,,,,,,,,,,,3.5,1.0,,
184,,iti,,html-keyboard-response,184,315538,0.0-1.0-287.0,0,0,96878,,,,,,,,,,,,,,,,,,,,,,,,,,,,5.5,2.0,,
185,,rl_choice,,html-keyboard-response,185,315545,0.0-1.0-289.0,0,0,96878,,6.0,,,68.0,41.0,41.0,2.0,easy,1000.0,2000.0,0.0,20.0,80.0,20.0,80.0,C,D,/static/Simple_RL/Stimuli/Fractals_stims/C.jpg,/static/Simple_RL/Stimuli/Fractals_stims/D.jpg,1.0,20.0,80.0,20.0,80.0,C,D,5.506,0.006,0.0,
186,,rl_choice_confirmation,,html-keyboard-response,186,317043,0.0-1.0-290.0-0.0,0,0,96878,,,,,,41.0,,,,,,,,,,,,,,,,,,,,,,7.0,1.494,,
187,,isi,,html-keyboard-response,187,317148,0.0-1.0-292.0,0,0,96878,,,,,,,,,,,,,,,,,,,,,,,,,,,,9.0,2.0,,
188,,feedback,,html-keyboard-response,188,318584,0.0-1.0-293.0-0.0,0,0,96878,,,,,,41.0,,,,,,,,,,,,,,,,,,,,,,10.0,1.0,,
189,,iti,,html-keyboard-response,189,319505,0.0-1.0-294.0,0,0,96878,,,,,,,,,,,,,,,,,,,,,,,,,,,,11.0,1.0,,
190,,rl_choice,,html-keyboard-response,190,321010,0.0-1.0-296.0,0,0,96878,,,,,,42.0,42.0,2.0,easy,3500.0,2000.0,1.0,80.0,20.0,100.0,20.0,D,C,/static/Simple_RL/Stimuli/Fractals_stims/D.jpg,/static/Simple_RL/Stimuli/Fractals_stims/C.jpg,,,,,,,,12.5,1.5,1.0,
191,,rl_choice_warning,,html-keyboard-response,191,322010,0.0-1.0-298.0-0.0,1,0,96878,,,,,,,,,,,,,,,,,,,,,,,,,,,,13.5,1.0,,
192,,isi,,html-keyboard-response,192,322113,0.0-1.0-299.0,0,0,96878,,,,,,,,,,,,,,,,,,,,,,,,,,,,15.5,2.0,,
193,,iti,,html-keyboard-response,193,322214,0.0-1.0-301.0,0,0,96878,,,,,,,,,,,,,,,,,,,,,,,,,,,,19.0,3.5,,
194,,rl_choice,,html-keyboard-response,194,322345,0.0-1.0-303.0,0,0,96878,,131.0,,,68.0,43.0,43.0,2.0,easy,2000.0,1000.0,0.0,20.0,80.0,20.0,80.0,C,D,/static/Simple_RL/Stimuli/Fractals_stims/C.jpg,/static/Simple_RL/Stimuli/Fractals_stims/D.jpg,1.0,20.0,80.0,20.0,80.0,C,D,19.131,0.131,0.0,
195,,rl_choice_confirmation,,html-keyboard-response,195,323719,0.0-1.0-304.0-0.0,0,0,96878,,,,,,43.0,,,,,,,,,,,,,,,,,,,,,,20.5,1.369,,
196,,isi,,html-keyboard-response,196,323820,0.0-1.0-306.0,0,0,96878,,,,,,,,,,,,,,,,,,,,,,,,,,,,21.5,1.0,,
197,,feedback,,html-keyboard-response,197,324825,0.0-1.0-307.0-0.0,0,0,96878,,,,,,43.0,,,,,,,,,,,,,,,,,,,,,,22.5,1.0,,
198,,iti,,html-keyboard-response,198,324929,0.0-1.0-308.0,0,0,96878,,,,,,,,,,,,,,,,,,,,,,,,,,,,24.5,2.0,,
199,,rl_choice,,html-keyboard-response,199,325255,0.0-1.0-310.0,0,0,96878,,325.0,,,75.0,44.0,44.0,2.0,easy,2000.0,1000.0,0.0,20.0,80.0,40.0,80.0,C,D,/static/Simple_RL/Stimuli/Fractals_stims/C.jpg,/static/Simple_RL/Stimuli/Fractals_stims/D.jpg,0.0,80.0,20.0,80.0,40.0,D,C,24.825,0.325,0.0,
200,,rl_choice_confirmation,,html-keyboard-response,200,326433,0.0-1.0-311.0-0.0,0,0,96878,,,,,,44.0,,,,,,,,,,,,,,,,,,,,,,26.0,1.175,,
201,,isi,,html-keyboard-response,201,326534,0.0-1.0-313.0,0,0,96878,,,,,,,,,,,,,,,,,,,,,,,,,,,,27.0,1.0,,
202,,feedback,,html-keyboard-response,202,327537,0.0-1.0-314.0-0.0,0,0,96878,,,,,,44.0,,,,,,,,,,,,,,,,,,,,,,28.0,1.0,,
203,,iti,,html-keyboard-response,203,327639,0.0-1.0-315.0,0,0,96878,,,,,,,,,,,,,,,,,,,,,,,,,,,,30.0,2.0,,
204,,rl_choice,,html-keyboard-response,204,328914,0.0-1.0-317.0,0,0,96878,,1275.0,,,75.0,45.0,45.0,2.0,easy,1000.0,1000.0,1.0,80.0,20.0,100.0,20.0,D,C,/static/Simple_RL/Stimuli/Fractals_stims/D.jpg,/static/Simple_RL/Stimuli/Fractals_stims/C.jpg,0.0,20.0,80.0,20.0,100.0,C,D,31.275,1.275,0.0,
205,,rl_choice_confirmation,,html-keyboard-response,205,329141,0.0-1.0-318.0-0.0,0,0,96878,,,,,,45.0,,,,,,,,,,,,,,,,,,,,,,31.5,0.225,,
206,,isi,,html-keyboard-response,206,329244,0.0-1.0-320.0,0,0,96878,,,,,,,,,,,,,,,,,,,,,,,,,,,,32.5,1.0,,
207,,feedback,,html-keyboard-response,207,330246,0.0-1.0-321.0-0.0,0,0,96878,,,,,,45.0,,,,,,,,,,,,,,,,,,,,,,33.5,1.0,,
208,,iti,,html-keyboard-response,208,330348,0.0-1.0-322.0,0,0,96878,,,,,,,,,,,,,,,,,,,,,,,,,,,,34.5,1.0,,
209,,rl_choice,,html-keyboard-response,209,331852,0.0-1.0-324.0,0,0,96878,,,,,,46.0,46.0,2.0,easy,1000.0,1500.0,0.0,20.0,80.0,40.0,80.0,C,D,/static/Simple_RL/Stimuli/Fractals_stims/C.jpg,/static/Simple_RL/Stimuli/Fractals_stims/D.jpg,,,,,,,,36.0,1.5,1.0,
210,,rl_choice_warning,,html-keyboard-response,210,332855,0.0-1.0-326.0-0.0,1,0,96878,,,,,,,,,,,,,,,,,,,,,,,,,,,,37.0,1.0,,
211,,isi,,html-keyboard-response,211,332956,0.0-1.0-327.0,0,0,96878,,,,,,,,,,,,,,,,,,,,,,,,,,,,38.5,1.5,,
212,,iti,,html-keyboard-response,212,333059,0.0-1.0-329.0,0,0,96878,,,,,,,,,,,,,,,,,,,,,,,,,,,,39.5,1.0,,
213,,rl_choice,,html-keyboard-response,213,333099,0.0-1.0-331.0,0,0,96878,,39.0,,,75.0,47.0,47.0,2.0,easy,1000.0,3000.0,0.0,20.0,80.0,0.0,100.0,C,D,/static/Simple_RL/Stimuli/Fractals_stims/C.jpg,/static/Simple_RL/Stimuli/Fractals_stims/D.jpg,0.0,80.0,20.0,100.0,0.0,D,C,39.539,0.039,0.0,
214,,rl_choice_confirmation,,html-keyboard-response,214,334562,0.0-1.0-332.0-0.0,0,0,96878,,,,,,47.0,,,,,,,,,,,,,,,,,,,,,,41.0,1.461,,
215,,isi,,html-keyboard-response,215,334664,0.0-1.0-334.0,0,0,96878,,,,,,,,,,,,,,,,,,,,,,,,,,,,44.0,3.0,,
216,,feedback,,html-keyboard-response,216,335669,0.0-1.0-335.0-0.0,0,0,96878,,,,,,47.0,,,,,,,,,,,,,,,,,,,,,,45.0,1.0,,
217,,iti,,html-keyboard-response,217,335772,0.0-1.0-336.0,0,0,96878,,,,,,,,,,,,,,,,,,,,,,,,,,,,46.0,1.0,,
218,,rl_choice,,html-keyboard-response,218,337277,0.0-1.0-338.0,0,0,96878,,,,,,48.0,48.0,2.0,hard,1000.0,1000.0,0.0,40.0,60.0,60.0,60.0,A,B,/static/Simple_RL/Stimuli/Fractals_stims/A.jpg,/static/Simple_RL/Stimuli/Fractals_stims/B.jpg,,,,,,,,47.5,1.5,1.0,
219,,rl_choice_warning,,html-keyboard-response,219,338279,0.0-1.0-340.0-0.0,1,0,96878,,,,,,,,,,,,,,,,,,,,,,,,,,,,48.5,1.0,,
220,,isi,,html-keyboard-response,220,338381,0.0-1.0-341.0,0,0,96878,,,,,,,,,,,,,,,,,,,,,,,,,,,,49.5,1.0,,
221,,iti,,html-keyboard-response,221,338486,0.0-1.0-343.0,0,0,96878,,,,,,,,,,,,,,,,,,,,,,,,,,,,50.5,1.0,,
222,,rl_choice,,html-keyboard-response,222,339990,0.0-1.0-345.0,0,0,96878,,,,,,49.0,49.0,2.0,easy,1500.0,2000.0,0.0,20.0,80.0,40.0,60.0,C,D,/static/Simple_RL/Stimuli/Fractals_stims/C.jpg,/static/Simple_RL/Stimuli/Fractals_stims/D.jpg,,,,,,,,52.0,1.5,1.0,
223,,rl_choice_warning,,html-keyboard-response,223,340993,0.0-1.0-347.0-0.0,1,0,96878,,,,,,,,,,,,,,,,,,,,,,,,,,,,53.0,1.0,,
224,,isi,,html-keyboard-response,224,341095,0.0-1.0-348.0,0,0,96878,,,,,,,,,,,,,,,,,,,,,,,,,,,,55.0,2.0,,
225,,iti,,html-keyboard-response,225,341197,0.0-1.0-350.0,0,0,96878,,,,,,,,,,,,,,,,,,,,,,,,,,,,56.5,1.5,,
226,,rl_choice,,html-keyboard-response,226,342700,0.0-1.0-352.0,0,0,96878,,,,,,50.0,50.0,2.0,easy,1000.0,1000.0,1.0,80.0,20.0,80.0,0.0,D,C,/static/Simple_RL/Stimuli/Fractals_stims/D.jpg,/static/Simple_RL/Stimuli/Fractals_stims/C.jpg,,,,,,,,58.0,1.5,1.0,
227,,rl_choice_warning,,html-keyboard-response,227,343705,0.0-1.0-354.0-0.0,1,0,96878,,,,,,,,,,,,,,,,,,,,,,,,,,,,59.0,1.0,,
228,,isi,,html-keyboard-response,228,343809,0.0-1.0-355.0,0,0,96878,,,,,,,,,,,,,,,,,,,,,,,,,,,,60.0,1.0,,
229,,iti,,html-keyboard-response,229,343911,0.0-1.0-357.0,0,0,96878,,,,,,,,,,,,,,,,,,,,,,,,,,,,61.0,1.0,,
230,,rl_choice,,html-keyboard-response,230,345414,0.0-1.0-359.0,0,0,96878,,,,,,51.0,51.0,2.0,easy,3000.0,1500.0,0.0,20.0,80.0,20.0,80.0,C,D,/static/Simple_RL/Stimuli/Fractals_stims/C.jpg,/static/Simple_RL/Stimuli/Fractals_stims/D.jpg,,,,,,,,62.5,1.5,1.0,
231,,rl_choice_warning,,html-keyboard-response,231,346417,0.0-1.0-361.0-0.0,1,0,96878,,,,,,,,,,,,,,,,,,,,,,,,,,,,63.5,1.0,,
232,,isi,,html-keyboard-response,232,346520,0.0-1.0-362.0,0,0,96878,,,,,,,,,,,,,,,,,,,,,,,,,,,,65.0,1.5,,
233,,iti,,html-keyboard-response,233,346621,0.0-1.0-364.0,0,0,96878,,,,,,,,,,,,,,,,,,,,,,,,,,,,68.0,3.0,,
234,,rl_choice,,html-keyboard-response,234,348125,0.0-1.0-366.0,0,0,96878,,,,,,52.0,52.0,2.0,hard,1000.0,1000.0,0.0,40.0,60.0,40.0,40.0,A,B,/static/Simple_RL/Stimuli/Fractals_stims/A.jpg,/static/Simple_RL/Stimuli/Fractals_stims/B.jpg,,,,,,,,69.5,1.5,1.0,
235,,rl_choice_warning,,html-keyboard-response,235,349129,0.0-1.0-368.0-0.0,1,0,96878,,,,,,,,,,,,,,,,,,,,,,,,,,,,70.5,1.0,,
236,,isi,,html-keyboard-response,236,349233,0.0-1.0-369.0,0,0,96878,,,,,,,,,,,,,,,,,,,,,,,,,,,,71.5,1.0,,
237,,iti,,html-keyboard-response,237,349335,0.0-1.0-371.0,0,0,96878,,,,,,,,,,,,,,,,,,,,,,,,,,,,72.5,1.0,,
238,,rl_choice,,html-keyboard-response,238,350838,0.0-1.0-373.0,0,0,96878,,,,,,53.0,53.0,2.0,hard,3000.0,1500.0,0.0,40.0,60.0,40.0,40.0,A,B,/static/Simple_RL/Stimuli/Fractals_stims/A.jpg,/static/Simple_RL/Stimuli/Fractals_stims/B.jpg,,,,,,,,74.0,1.5,1.0,
239,,rl_choice_warning,,html-keyboard-response,239,351841,0.0-1.0-375.0-0.0,1,0,96878,,,,,,,,,,,,,,,,,,,,,,,,,,,,75.0,1.0,,
240,,isi,,html-keyboard-response,240,351944,0.0-1.0-376.0,0,0,96878,,,,,,,,,,,,,,,,,,,,,,,,,,,,76.5,1.5,,
241,,iti,,html-keyboard-response,241,352047,0.0-1.0-378.0,0,0,96878,,,,,,,,,,,,,,,,,,,,,,,,,,,,79.5,3.0,,
242,,rl_choice,,html-keyboard-response,242,353551,0.0-1.0-380.0,0,0,96878,,,,,,54.0,54.0,2.0,hard,1500.0,1500.0,0.0,40.0,60.0,20.0,80.0,A,B,/static/Simple_RL/Stimuli/Fractals_stims/A.jpg,/static/Simple_RL/Stimuli/Fractals_stims/B.jpg,,,,,,,,81.0,1.5,1.0,
243,,rl_choice_warning,,html-keyboard-response,243,354556,0.0-1.0-382.0-0.0,1,0,96878,,,,,,,,,,,,,,,,,,,,,,,,,,,,82.0,1.0,,
244,,isi,,html-keyboard-response,244,354657,0.0-1.0-383.0,0,0,96878,,,,,,,,,,,,,,,,,,,,,,,,,,,,83.5,1.5,,
245,,iti,,html-keyboard-response,245,354760,0.0-1.0-385.0,0,0,96878,,,,,,,,,,,,,,,,,,,,,,,,,,,,85.0,1.5,,
246,,rl_choice,,html-keyboard-response,246,356263,0.0-1.0-387.0,0,0,96878,,,,,,55.0,55.0,2.0,easy,1500.0,1500.0,1.0,80.0,20.0,80.0,0.0,D,C,/static/Simple_RL/Stimuli/Fractals_stims/D.jpg,/static/Simple_RL/Stimuli/Fractals_stims/C.jpg,,,,,,,,86.5,1.5,1.0,
247,,rl_choice_warning,,html-keyboard-response,247,357267,0.0-1.0-389.0-0.0,1,0,96878,,,,,,,,,,,,,,,,,,,,,,,,,,,,87.5,1.0,,
248,,isi,,html-keyboard-response,248,357372,0.0-1.0-390.0,0,0,96878,,,,,,,,,,,,,,,,,,,,,,,,,,,,89.0,1.5,,
249,,iti,,html-keyboard-response,249,357477,0.0-1.0-392.0,0,0,96878,,,,,,,,,,,,,,,,,,,,,,,,,,,,90.5,1.5,,
250,,rl_choice,,html-keyboard-response,250,358982,0.0-1.0-394.0,0,0,96878,,,,,,56.0,56.0,2.0,hard,1500.0,2000.0,1.0,60.0,40.0,60.0,60.0,B,A,/static/Simple_RL/Stimuli/Fractals_stims/B.jpg,/static/Simple_RL/Stimuli/Fractals_stims/A.jpg,,,,,,,,92.0,1.5,1.0,
251,,rl_choice_warning,,html-keyboard-response,251,359985,0.0-1.0-396.0-0.0,1,0,96878,,,,,,,,,,,,,,,,,,,,,,,,,,,,93.0,1.0,,
252,,isi,,html-keyboard-response,252,360087,0.0-1.0-397.0,0,0,96878,,,,,,,,,,,,,,,,,,,,,,,,,,,,95.0,2.0,,
253,,iti,,html-keyboard-response,253,360189,0.0-1.0-399.0,0,0,96878,,,,,,,,,,,,,,,,,,,,,,,,,,,,96.5,1.5,,
254,,rl_choice,,html-keyboard-response,254,361693,0.0-1.0-401.0,0,0,96878,,,,,,57.0,57.0,2.0,hard,1500.0,2000.0,1.0,60.0,40.0,60.0,60.0,B,A,/static/Simple_RL/Stimuli/Fractals_stims/B.jpg,/static/Simple_RL/Stimuli/Fractals_stims/A.jpg,,,,,,,,98.0,1.5,1.0,
255,,rl_choice_warning,,html-keyboard-response,255,362698,0.0-1.0-403.0-0.0,1,0,96878,,,,,,,,,,,,,,,,,,,,,,,,,,,,99.0,1.0,,
256,,isi,,html-keyboard-response,256,362801,0.0-1.0-404.0,0,0,96878,,,,,,,,,,,,,,,,,,,,,,,,,,,,101.0,2.0,,
257,,iti,,html-keyboard-response,257,362904,0.0-1.0-406.0,0,0,96878,,,,,,,,,,,,,,,,,,,,,,,,,,,,102.5,1.5,,
258,,rl_choice,,html-keyboard-response,258,364408,0.0-1.0-408.0,0,0,96878,,,,,,58.0,58.0,2.0,easy,1000.0,2000.0,0.0,20.0,80.0,0.0,60.0,C,D,/static/Simple_RL/Stimuli/Fractals_stims/C.jpg,/static/Simple_RL/Stimuli/Fractals_stims/D.jpg,,,,,,,,104.0,1.5,1.0,
259,,rl_choice_warning,,html-keyboard-response,259,365413,0.0-1.0-410.0-0.0,1,0,96878,,,,,,,,,,,,,,,,,,,,,,,,,,,,105.0,1.0,,
260,,isi,,html-keyboard-response,260,365516,0.0-1.0-411.0,0,0,96878,,,,,,,,,,,,,,,,,,,,,,,,,,,,107.0,2.0,,
261,,iti,,html-keyboard-response,261,365617,0.0-1.0-413.0,0,0,96878,,,,,,,,,,,,,,,,,,,,,,,,,,,,108.0,1.0,,
262,,rl_choice,,html-keyboard-response,262,367122,0.0-1.0-415.0,0,0,96878,,,,,,59.0,59.0,2.0,easy,1000.0,1000.0,1.0,80.0,20.0,80.0,0.0,D,C,/static/Simple_RL/Stimuli/Fractals_stims/D.jpg,/static/Simple_RL/Stimuli/Fractals_stims/C.jpg,,,,,,,,109.5,1.5,1.0,
263,,rl_choice_warning,,html-keyboard-response,263,368125,0.0-1.0-417.0-0.0,1,0,96878,,,,,,,,,,,,,,,,,,,,,,,,,,,,110.5,1.0,,
264,,isi,,html-keyboard-response,264,368226,0.0-1.0-418.0,0,0,96878,,,,,,,,,,,,,,,,,,,,,,,,,,,,111.5,1.0,,
265,,iti,,html-keyboard-response,265,368328,0.0-1.0-420.0,0,0,96878,,,,,,,,,,,,,,,,,,,,,,,,,,,,112.5,1.0,,
266,,rl_choice,,html-keyboard-response,266,369832,0.0-1.0-422.0,0,0,96878,,,,,,60.0,60.0,2.0,easy,3000.0,1500.0,1.0,80.0,20.0,80.0,20.0,D,C,/static/Simple_RL/Stimuli/Fractals_stims/D.jpg,/static/Simple_RL/Stimuli/Fractals_stims/C.jpg,,,,,,,,114.0,1.5,1.0,
267,,rl_choice_warning,,html-keyboard-response,267,370833,0.0-1.0-424.0-0.0,1,0,96878,,,,,,,,,,,,,,,,,,,,,,,,,,,,115.0,1.0,,
268,,isi,,html-keyboard-response,268,370934,0.0-1.0-425.0,0,0,96878,,,,,,,,,,,,,,,,,,,,,,,,,,,,116.5,1.5,,
269,,iti,,html-keyboard-response,269,371036,0.0-1.0-427.0,0,0,96878,,,,,,,,,,,,,,,,,,,,,,,,,,,,119.5,3.0,,
270,,rl_choice,,html-keyboard-response,270,372539,0.0-1.0-429.0,0,0,96878,,,,,,61.0,61.0,2.0,hard,2000.0,1500.0,1.0,60.0,40.0,60.0,40.0,B,A,/static/Simple_RL/Stimuli/Fractals_stims/B.jpg,/static/Simple_RL/Stimuli/Fractals_stims/A.jpg,,,,,,,,121.0,1.5,1.0,
271,,rl_choice_warning,,html-keyboard-response,271,373544,0.0-1.0-431.0-0.0,1,0,96878,,,,,,,,,,,,,,,,,,,,,,,,,,,,122.0,1.0,,
272,,isi,,html-keyboard-response,272,373645,0.0-1.0-432.0,0,0,96878,,,,,,,,,,,,,,,,,,,,,,,,,,,,123.5,1.5,,
273,,iti,,html-keyboard-response,273,373746,0.0-1.0-434.0,0,0,96878,,,,,,,,,,,,,,,,,,,,,,,,,,,,125.5,2.0,,
274,,rl_choice,,html-keyboard-response,274,375249,0.0-1.0-436.0,0,0,96878,,,,,,62.0,62.0,2.0,easy,1500.0,3000.0,1.0,80.0,20.0,60.0,40.0,D,C,/static/Simple_RL/Stimuli/Fractals_stims/D.jpg,/static/Simple_RL/Stimuli/Fractals_stims/C.jpg,,,,,,,,127.0,1.5,1.0,
275,,rl_choice_warning,,html-keyboard-response,275,376252,0.0-1.0-438.0-0.0,1,0,96878,,,,,,,,,,,,,,,,,,,,,,,,,,,,128.0,1.0,,
276,,isi,,html-keyboard-response,276,376357,0.0-1.0-439.0,0,0,96878,,,,,,,,,,,,,,,,,,,,,,,,,,,,131.0,3.0,,
277,,iti,,html-keyboard-response,277,376461,0.0-1.0-441.0,0,0,96878,,,,,,,,,,,,,,,,,,,,,,,,,,,,132.5,1.5,,
278,,rl_choice,,html-keyboard-response,278,377964,0.0-1.0-443.0,0,0,96878,,,,,,63.0,63.0,2.0,hard,3000.0,3000.0,0.0,40.0,60.0,60.0,80.0,A,B,/static/Simple_RL/Stimuli/Fractals_stims/A.jpg,/static/Simple_RL/Stimuli/Fractals_stims/B.jpg,,,,,,,,134.0,1.5,1.0,
279,,rl_choice_warning,,html-keyboard-response,279,378966,0.0-1.0-445.0-0.0,1,0,96878,,,,,,,,,,,,,,,,,,,,,,,,,,,,135.0,1.0,,
280,,isi,,html-keyboard-response,280,379068,0.0-1.0-446.0,0,0,96878,,,,,,,,,,,,,,,,,,,,,,,,,,,,138.0,3.0,,
281,,iti,,html-keyboard-response,281,379169,0.0-1.0-448.0,0,0,96878,,,,,,,,,,,,,,,,,,,,,,,,,,,,141.0,3.0,,
282,,rl_choice,,html-keyboard-response,282,380671,0.0-1.0-450.0,0,0,96878,,,,,,64.0,64.0,2.0,easy,2000.0,3500.0,1.0,80.0,20.0,60.0,0.0,D,C,/static/Simple_RL/Stimuli/Fractals_stims/D.jpg,/static/Simple_RL/Stimuli/Fractals_stims/C.jpg,,,,,,,,142.5,1.5,1.0,
283,,rl_choice_warning,,html-keyboard-response,283,381675,0.0-1.0-452.0-0.0,1,0,96878,,,,,,,,,,,,,,,,,,,,,,,,,,,,143.5,1.0,,
284,,isi,,html-keyboard-response,284,381778,0.0-1.0-453.0,0,0,96878,,,,,,,,,,,,,,,,,,,,,,,,,,,,147.0,3.5,,
285,,iti,,html-keyboard-response,285,381884,0.0-1.0-455.0,0,0,96878,,,,,,,,,,,,,,,,,,,,,,,,,,,,149.0,2.0,,
286,,rl_choice,,html-keyboard-response,286,383389,0.0-1.0-457.0,0,0,96878,,,,,,65.0,65.0,2.0,hard,1000.0,3000.0,0.0,40.0,60.0,40.0,40.0,A,B,/static/Simple_RL/Stimuli/Fractals_stims/A.jpg,/static/Simple_RL/Stimuli/Fractals_stims/B.jpg,,,,,,,,150.5,1.5,1.0,
287,,rl_choice_warning,,html-keyboard-response,287,384394,0.0-1.0-459.0-0.0,1,0,96878,,,,,,,,,,,,,,,,,,,,,,,,,,,,151.5,1.0,,
288,,isi,,html-keyboard-response,288,384498,0.0-1.0-460.0,0,0,96878,,,,,,,,,,,,,,,,,,,,,,,,,,,,154.5,3.0,,
289,,iti,,html-keyboard-response,289,384600,0.0-1.0-462.0,0,0,96878,,,,,,,,,,,,,,,,,,,,,,,,,,,,155.5,1.0,,
290,,rl_choice,,html-keyboard-response,290,386102,0.0-1.0-464.0,0,0,96878,,,,,,66.0,66.0,2.0,hard,1000.0,1000.0,1.0,60.0,40.0,80.0,60.0,B,A,/static/Simple_RL/Stimuli/Fractals_stims/B.jpg,/static/Simple_RL/Stimuli/Fractals_stims/A.jpg,,,,,,,,157.0,1.5,1.0,
291,,rl_choice_warning,,html-keyboard-response,291,387106,0.0-1.0-466.0-0.0,1,0,96878,,,,,,,,,,,,,,,,,,,,,,,,,,,,158.0,1.0,,
292,,isi,,html-keyboard-response,292,387209,0.0-1.0-467.0,0,0,96878,,,,,,,,,,,,,,,,,,,,,,,,,,,,159.0,1.0,,
293,,iti,,html-keyboard-response,293,387313,0.0-1.0-469.0,0,0,96878,,,,,,,,,,,,,,,,,,,,,,,,,,,,160.0,1.0,,
294,,rl_choice,,html-keyboard-response,294,388817,0.0-1.0-471.0,0,0,96878,,,,,,67.0,67.0,2.0,hard,1000.0,1000.0,0.0,40.0,60.0,40.0,80.0,A,B,/static/Simple_RL/Stimuli/Fractals_stims/A.jpg,/static/Simple_RL/Stimuli/Fractals_stims/B.jpg,,,,,,,,161.5,1.5,1.0,
295,,rl_choice_warning,,html-keyboard-response,295,389821,0.0-1.0-473.0-0.0,1,0,96878,,,,,,,,,,,,,,,,,,,,,,,,,,,,162.5,1.0,,
296,,isi,,html-keyboard-response,296,389926,0.0-1.0-474.0,0,0,96878,,,,,,,,,,,,,,,,,,,,,,,,,,,,163.5,1.0,,
297,,iti,,html-keyboard-response,297,390027,0.0-1.0-476.0,0,0,96878,,,,,,,,,,,,,,,,,,,,,,,,,,,,164.5,1.0,,
298,,rl_choice,,html-keyboard-response,298,391531,0.0-1.0-478.0,0,0,96878,,,,,,68.0,68.0,2.0,easy,1500.0,1500.0,1.0,80.0,20.0,100.0,40.0,D,C,/static/Simple_RL/Stimuli/Fractals_stims/D.jpg,/static/Simple_RL/Stimuli/Fractals_stims/C.jpg,,,,,,,,166.0,1.5,1.0,
299,,rl_choice_warning,,html-keyboard-response,299,392534,0.0-1.0-480.0-0.0,1,0,96878,,,,,,,,,,,,,,,,,,,,,,,,,,,,167.0,1.0,,
300,,isi,,html-keyboard-response,300,392636,0.0-1.0-481.0,0,0,96878,,,,,,,,,,,,,,,,,,,,,,,,,,,,168.5,1.5,,
301,,iti,,html-keyboard-response,301,392737,0.0-1.0-483.0,0,0,96878,,,,,,,,,,,,,,,,,,,,,,,,,,,,170.0,1.5,,
302,,rl_choice,,html-keyboard-response,302,394241,0.0-1.0-485.0,0,0,96878,,,,,,69.0,69.0,2.0,hard,2000.0,1000.0,0.0,40.0,60.0,60.0,60.0,A,B,/static/Simple_RL/Stimuli/Fractals_stims/A.jpg,/static/Simple_RL/Stimuli/Fractals_stims/B.jpg,,,,,,,,171.5,1.5,1.0,
303,,rl_choice_warning,,html-keyboard-response,303,395244,0.0-1.0-487.0-0.0,1,0,96878,,,,,,,,,,,,,,,,,,,,,,,,,,,,172.5,1.0,,
304,,isi,,html-keyboard-response,304,395345,0.0-1.0-488.0,0,0,96878,,,,,,,,,,,,,,,,,,,,,,,,,,,,173.5,1.0,,
305,,iti,,html-keyboard-response,305,395446,0.0-1.0-490.0,0,0,96878,,,,,,,,,,,,,,,,,,,,,,,,,,,,175.5,2.0,,
306,,rl_choice,,html-keyboard-response,306,396950,0.0-1.0-492.0,0,0,96878,,,,,,70.0,70.0,2.0,hard,1000.0,3500.0,1.0,60.0,40.0,80.0,20.0,B,A,/static/Simple_RL/Stimuli/Fractals_stims/B.jpg,/static/Simple_RL/Stimuli/Fractals_stims/A.jpg,,,,,,,,177.0,1.5,1.0,
307,,rl_choice_warning,,html-keyboard-response,307,397953,0.0-1.0-494.0-0.0,1,0,96878,,,,,,,,,,,,,,,,,,,,,,,,,,,,178.0,1.0,,
308,,isi,,html-keyboard-response,308,398057,0.0-1.0-495.0,0,0,96878,,,,,,,,,,,,,,,,,,,,,,,,,,,,181.5,3.5,,
309,,iti,,html-keyboard-response,309,398161,0.0-1.0-497.0,0,0,96878,,,,,,,,,,,,,,,,,,,,,,,,,,,,182.5,1.0,,
310,,rl_choice,,html-keyboard-response,310,398331,0.0-1.0-499.0,0,0,96878,,170.0,,,68.0,71.0,71.0,2.0,easy,2000.0,1000.0,1.0,80.0,20.0,100.0,20.0,D,C,/static/Simple_RL/Stimuli/Fractals_stims/D.jpg,/static/Simple_RL/Stimuli/Fractals_stims/C.jpg,1.0,80.0,20.0,100.0,20.0,D,C,182.67,0.17,0.0,
311,,rl_choice_confirmation,,html-keyboard-response,311,399665,0.0-1.0-500.0-0.0,0,0,96878,,,,,,71.0,,,,,,,,,,,,,,,,,,,,,,184.0,1.33,,
312,,isi,,html-keyboard-response,312,399769,0.0-1.0-502.0,0,0,96878,,,,,,,,,,,,,,,,,,,,,,,,,,,,185.0,1.0,,
313,,feedback,,html-keyboard-response,313,400774,0.0-1.0-503.0-0.0,0,0,96878,,,,,,71.0,,,,,,,,,,,,,,,,,,,,,,186.0,1.0,,
314,,iti,,html-keyboard-response,314,400876,0.0-1.0-504.0,0,0,96878,,,,,,,,,,,,,,,,,,,,,,,,,,,,188.0,2.0,,
315,,rl_choice,,html-keyboard-response,315,400962,0.0-1.0-506.0,0,0,96878,,85.0,,,68.0,72.0,72.0,2.0,easy,1500.0,1000.0,0.0,20.0,80.0,20.0,80.0,C,D,/static/Simple_RL/Stimuli/Fractals_stims/C.jpg,/static/Simple_RL/Stimuli/Fractals_stims/D.jpg,1.0,20.0,80.0,20.0,80.0,C,D,188.085,0.085,0.0,
316,,rl_choice_confirmation,,html-keyboard-response,316,402379,0.0-1.0-507.0-0.0,0,0,96878,,,,,,72.0,,,,,,,,,,,,,,,,,,,,,,189.5,1.415,,
317,,isi,,html-keyboard-response,317,402481,0.0-1.0-509.0,0,0,96878,,,,,,,,,,,,,,,,,,,,,,,,,,,,190.5,1.0,,
318,,feedback,,html-keyboard-response,318,403486,0.0-1.0-510.0-0.0,0,0,96878,,,,,,72.0,,,,,,,,,,,,,,,,,,,,,,191.5,1.0,,
319,,iti,,html-keyboard-response,319,403590,0.0-1.0-511.0,0,0,96878,,,,,,,,,,,,,,,,,,,,,,,,,,,,193.0,1.5,,
320,,rl_choice,,html-keyboard-response,320,404530,0.0-1.0-513.0,0,0,96878,,939.0,,,68.0,73.0,73.0,2.0,hard,1500.0,1500.0,0.0,40.0,60.0,40.0,80.0,A,B,/static/Simple_RL/Stimuli/Fractals_stims/A.jpg,/static/Simple_RL/Stimuli/Fractals_stims/B.jpg,1.0,40.0,60.0,40.0,80.0,A,B,193.939,0.939,0.0,
321,,rl_choice_confirmation,,html-keyboard-response,321,405094,0.0-1.0-514.0-0.0,0,0,96878,,,,,,73.0,,,,,,,,,,,,,,,,,,,,,,194.5,0.561,,
322,,isi,,html-keyboard-response,322,405199,0.0-1.0-516.0,0,0,96878,,,,,,,,,,,,,,,,,,,,,,,,,,,,196.0,1.5,,
323,,feedback,,html-keyboard-response,323,406204,0.0-1.0-517.0-0.0,0,0,96878,,,,,,73.0,,,,,,,,,,,,,,,,,,,,,,197.0,1.0,,
324,,iti,,html-keyboard-response,324,406305,0.0-1.0-518.0,0,0,96878,,,,,,,,,,,,,,,,,,,,,,,,,,,,198.5,1.5,,
325,,rl_choice,,html-keyboard-response,325,407809,0.0-1.0-520.0,0,0,96878,,,,,,74.0,74.0,2.0,hard,2000.0,1000.0,1.0,60.0,40.0,80.0,40.0,B,A,/static/Simple_RL/Stimuli/Fractals_stims/B.jpg,/static/Simple_RL/Stimuli/Fractals_stims/A.jpg,,,,,,,,200.0,1.5,1.0,
326,,rl_choice_warning,,html-keyboard-response,326,408812,0.0-1.0-522.0-0.0,1,0,96878,,,,,,,,,,,,,,,,,,,,,,,,,,,,201.0,1.0,,
327,,isi,,html-keyboard-response,327,408914,0.0-1.0-523.0,0,0,96878,,,,,,,,,,,,,,,,,,,,,,,,,,,,202.0,1.0,,
328,,iti,,html-keyboard-response,328,409015,0.0-1.0-525.0,0,0,96878,,,,,,,,,,,,,,,,,,,,,,,,,,,,204.0,2.0,,
329,,rl_choice,,html-keyboard-response,329,410520,0.0-1.0-527.0,0,0,96878,,,,,,75.0,75.0,2.0,hard,1000.0,1500.0,1.0,60.0,40.0,80.0,40.0,B,A,/static/Simple_RL/Stimuli/Fractals_stims/B.jpg,/static/Simple_RL/Stimuli/Fractals_stims/A.jpg,,,,,,,,205.5,1.5,1.0,
330,,rl_choice_warning,,html-keyboard-response,330,411524,0.0-1.0-529.0-0.0,1,0,96878,,,,,,,,,,,,,,,,,,,,,,,,,,,,206.5,1.0,,
331,,isi,,html-keyboard-response,331,411628,0.0-1.0-530.0,0,0,96878,,,,,,,,,,,,,,,,,,,,,,,,,,,,208.0,1.5,,
332,,iti,,html-keyboard-response,332,411730,0.0-1.0-532.0,0,0,96878,,,,,,,,,,,,,,,,,,,,,,,,,,,,209.0,1.0,,
333,,rl_choice,,html-keyboard-response,333,413233,0.0-1.0-534.0,0,0,96878,,,,,,76.0,76.0,2.0,hard,3500.0,1000.0,0.0,40.0,60.0,40.0,60.0,A,B,/static/Simple_RL/Stimuli/Fractals_stims/A.jpg,/static/Simple_RL/Stimuli/Fractals_stims/B.jpg,,,,,,,,210.5,1.5,1.0,
334,,rl_choice_warning,,html-keyboard-response,334,414237,0.0-1.0-536.0-0.0,1,0,96878,,,,,,,,,,,,,,,,,,,,,,,,,,,,211.5,1.0,,
335,,isi,,html-keyboard-response,335,414341,0.0-1.0-537.0,0,0,96878,,,,,,,,,,,,,,,,,,,,,,,,,,,,212.5,1.0,,
336,,iti,,html-keyboard-response,336,414444,0.0-1.0-539.0,0,0,96878,,,,,,,,,,,,,,,,,,,,,,,,,,,,216.0,3.5,,
337,,rl_choice,,html-keyboard-response,337,415948,0.0-1.0-541.0,0,0,96878,,,,,,77.0,77.0,2.0,easy,1000.0,1000.0,1.0,80.0,20.0,60.0,0.0,D,C,/static/Simple_RL/Stimuli/Fractals_stims/D.jpg,/static/Simple_RL/Stimuli/Fractals_stims/C.jpg,,,,,,,,217.5,1.5,1.0,
338,,rl_choice_warning,,html-keyboard-response,338,416950,0.0-1.0-543.0-0.0,1,0,96878,,,,,,,,,,,,,,,,,,,,,,,,,,,,218.5,1.0,,
339,,isi,,html-keyboard-response,339,417051,0.0-1.0-544.0,0,0,96878,,,,,,,,,,,,,,,,,,,,,,,,,,,,219.5,1.0,,
340,,iti,,html-keyboard-response,340,417155,0.0-1.0-546.0,0,0,96878,,,,,,,,,,,,,,,,,,,,,,,,,,,,220.5,1.0,,
341,,rl_choice,,html-keyboard-response,341,418657,0.0-1.0-548.0,0,0,96878,,,,,,78.0,78.0,2.0,hard,1500.0,2000.0,1.0,60.0,40.0,60.0,20.0,B,A,/static/Simple_RL/Stimuli/Fractals_stims/B.jpg,/static/Simple_RL/Stimuli/Fractals_stims/A.jpg,,,,,,,,222.0,1.5,1.0,
342,,rl_choice_warning,,html-keyboard-response,342,419660,0.0-1.0-550.0-0.0,1,0,96878,,,,,,,,,,,,,,,,,,,,,,,,,,,,223.0,1.0,,
343,,isi,,html-keyboard-response,343,419764,0.0-1.0-551.0,0,0,96878,,,,,,,,,,,,,,,,,,,,,,,,,,,,225.0,2.0,,
344,,iti,,html-keyboard-response,344,419867,0.0-1.0-553.0,0,0,96878,,,,,,,,,,,,,,,,,,,,,,,,,,,,226.5,1.5,,
345,,rl_choice,,html-keyboard-response,345,421373,0.0-1.0-555.0,0,0,96878,,,,,,79.0,79.0,2.0,hard,1000.0,2000.0,1.0,60.0,40.0,40.0,60.0,B,A,/static/Simple_RL/Stimuli/Fractals_stims/B.jpg,/static/Simple_RL/Stimuli/Fractals_stims/A.jpg,,,,,,,,228.0,1.5,1.0,
346,,rl_choice_warning,,html-keyboard-response,346,422378,0.0-1.0-557.0-0.0,1,0,96878,,,,,,,,,,,,,,,,,,,,,,,,,,,,229.0,1.0,,
347,,isi,,html-keyboard-response,347,422481,0.0-1.0-558.0,0,0,96878,,,,,,,,,,,,,,,,,,,,,,,,,,,,231.0,2.0,,
348,,iti,,html-keyboard-response,348,422584,0.0-1.0-560.0,0,0,96878,,,,,,,,,,,,,,,,,,,,,,,,,,,,232.0,1.0,,0.42
349,,final_tally,,html-keyboard-response,349,423940,0.0-2.0,0,0,96878,,1355.0,,,68.0,,,,,,,,,,,,,,,,,,,,,,,,,,
350,,debreif_intro,,html-keyboard-response,350,424605,0.0-3.0,0,0,96878,,650.0,,,68.0,,,,,,,,,,,,,,,,,,,,,,,,,,
351,,debreif_age,,survey-text,351,427130,0.0-4.0,0,0,96878,,2524.0,"{""Q0"":""""}",,,,,,,,,,,,,,,,,,,,,,,,,,,,
352,,debreif_gender,,survey-multi-choice,352,429468,0.0-5.0,0,0,96878,,2337.0,"{""Q0"":""Female""}",,,,,,,,,,,,,,,,,,,,,,,,,,,,
353,,debreif_dominant_hand,,survey-multi-choice,353,431223,0.0-6.0,0,0,96878,,1752.0,"{""Q0"":""Left""}",,,,,,,,,,,,,,,,,,,,,,,,,,,,
354,,debreif_native_language,,survey-multi-choice,354,432464,0.0-7.0,0,0,96878,,1240.0,"{""Q0"":""Yes""}",,,,,,,,,,,,,,,,,,,,,,,,,,,,
355,,debreif_fluency,,survey-likert,355,433859,0.0-8.0,0,0,96878,,1393.0,"{""Q0"":1}",,,,,,,,,,,,,,,,,,,,,,,,,,,,
356,,debreif_strategy_category_learning,,survey-text,356,435381,0.0-9.0,0,0,96878,,1520.0,"{""Q0"":""1""}",,,,,,,,,,,,,,,,,,,,,,,,,,,,
357,,debreif_strategy_old_trials,,survey-text,357,436342,0.0-10.0,0,0,96878,,961.0,"{""Q0"":""1""}",,,,,,,,,,,,,,,,,,,,,,,,,,,,
358,,debreif_strategy_size,,survey-text,358,437160,0.0-11.0,0,0,96878,,816.0,"{""Q0"":""1""}",,,,,,,,,,,,,,,,,,,,,,,,,,,,
359,,debreif_strategy_rl,,survey-text,359,438007,0.0-12.0,0,0,96878,,847.0,"{""Q0"":""1""}",,,,,,,,,,,,,,,,,,,,,,,,,,,,
360,,debreif_clear_instructions,,survey-text,360,438850,0.0-13.0,0,0,96878,,842.0,"{""Q0"":""1""}",,,,,,,,,,,,,,,,,,,,,,,,,,,,
361,,debreif_end,,html-keyboard-response,361,440101,0.0-14.0,0,0,96878,,1251.0,,,32.0,,,,,,,,,,,,,,,,,,,,,,,,,,
