,PID,view_history,rt,ttype,trial_type,trial_index,time_elapsed,internal_node_id,responses,repeat_instructions,key_press,index,trial_num,block,condition,iti,isi,high_group_on_left,left_group_value,right_group_value,left_item_value,right_item_value,left_img,right_img,left_img_path,right_img_path,left_chosen,chosen_group_value,unchosen_group_value,chosen_item_value,unchosen_item_value,chosen_img,unchosen_img,onset,duration,warning,total_bonus_tally
0,2,"[{""page_index"":0,""viewing_time"":2151},{""page_index"":1,""viewing_time"":1748},{""page_index"":2,""viewing_time"":1767},{""page_index"":3,""viewing_time"":1584},{""page_index"":4,""viewing_time"":1816},{""page_index"":5,""viewing_time"":4118}]",13184,size_instructions,instructions,0,13189,0.0-0.0-0.0-0.0,,,,,,,,,,,,,,,,,,,,,,,,,,,,,
1,2,,4512,rl_comprehension_check,survey-multi-choice,1,17706,0.0-0.0-0.0-1.0,"{""Q0"":""True"",""Q1"":""True"",""Q2"":""pointer finger for left and middle finger for right""}",0,,,,,,,,,,,,,,,,,,,,,,,,,,,
2,2,,1327,,html-keyboard-response,2,19036,0.0-0.0-1.0,,,50,,,,,,,,,,,,,,,,,,,,,,,,,,
3,2,,493,rl_choice,html-keyboard-response,3,19531,0.0-0.0-2.0,,,50,0,0,1,easy,2000,1000,1,80,20,100,20,C,D,/static/Simple_RL/Stimuli/Fractals_stims/C.jpg,/static/Simple_RL/Stimuli/Fractals_stims/D.jpg,1,80,20,100,20,C,D,0.493,0.493,,
4,2,,,rl_choice_confirmation,html-keyboard-response,4,20544,0.0-0.0-3.0-0.0,,,,0,,,,,,,,,,,,,,,,,,,,,,1.5,1.007,,
5,2,,,isi,html-keyboard-response,5,21548,0.0-0.0-5.0,,,,,,,,,,,,,,,,,,,,,,,,,,2.5,1,,
6,2,,,feedback,html-keyboard-response,6,22554,0.0-0.0-6.0-0.0,,,,0,,,,,,,,,,,,,,,,,,,,,,3.5,1,,
7,2,,,iti,html-keyboard-response,7,24560,0.0-0.0-7.0,,,,,,,,,,,,,,,,,,,,,,,,,,5.5,2,,
8,2,,468,rl_choice,html-keyboard-response,8,25030,0.0-0.0-9.0,,,51,1,1,1,easy,2000,2000,1,80,20,60,20,C,D,/static/Simple_RL/Stimuli/Fractals_stims/C.jpg,/static/Simple_RL/Stimuli/Fractals_stims/D.jpg,0,20,80,20,60,D,C,5.968,0.468,,
9,2,,,rl_choice_confirmation,html-keyboard-response,9,26064,0.0-0.0-10.0-0.0,,,,1,,,,,,,,,,,,,,,,,,,,,,7,1.032,,
10,2,,,isi,html-keyboard-response,10,28069,0.0-0.0-12.0,,,,,,,,,,,,,,,,,,,,,,,,,,9,2,,
11,2,,,feedback,html-keyboard-response,11,29072,0.0-0.0-13.0-0.0,,,,1,,,,,,,,,,,,,,,,,,,,,,10,1,,
12,2,,,iti,html-keyboard-response,12,31077,0.0-0.0-14.0,,,,,,,,,,,,,,,,,,,,,,,,,,12,2,,
13,2,,55,rl_choice,html-keyboard-response,13,31133,0.0-0.0-16.0,,,50,2,2,1,easy,1500,1000,1,80,20,80,20,C,D,/static/Simple_RL/Stimuli/Fractals_stims/C.jpg,/static/Simple_RL/Stimuli/Fractals_stims/D.jpg,1,80,20,80,20,C,D,12.055,0.055,,
14,2,,,rl_choice_confirmation,html-keyboard-response,14,32581,0.0-0.0-17.0-0.0,,,,2,,,,,,,,,,,,,,,,,,,,,,13.5,1.445,,
15,2,,,isi,html-keyboard-response,15,33583,0.0-0.0-19.0,,,,,,,,,,,,,,,,,,,,,,,,,,14.5,1,,
16,2,,,feedback,html-keyboard-response,16,34587,0.0-0.0-20.0-0.0,,,,2,,,,,,,,,,,,,,,,,,,,,,15.5,1,,
17,2,,,iti,html-keyboard-response,17,36090,0.0-0.0-21.0,,,,,,,,,,,,,,,,,,,,,,,,,,17,1.5,,
18,2,,85,rl_choice,html-keyboard-response,18,36176,0.0-0.0-23.0,,,50,3,3,1,easy,1000,3500,1,80,20,100,40,C,D,/static/Simple_RL/Stimuli/Fractals_stims/C.jpg,/static/Simple_RL/Stimuli/Fractals_stims/D.jpg,1,80,20,100,40,C,D,17.085,0.085,,
19,2,,,rl_choice_confirmation,html-keyboard-response,19,37595,0.0-0.0-24.0-0.0,,,,3,,,,,,,,,,,,,,,,,,,,,,18.5,1.415,,
20,2,,,isi,html-keyboard-response,20,41098,0.0-0.0-26.0,,,,,,,,,,,,,,,,,,,,,,,,,,22,3.5,,
21,2,,,feedback,html-keyboard-response,21,42100,0.0-0.0-27.0-0.0,,,,3,,,,,,,,,,,,,,,,,,,,,,23,1,,
22,2,,,iti,html-keyboard-response,22,43101,0.0-0.0-28.0,,,,,,,,,,,,,,,,,,,,,,,,,,24,1,,
23,2,,679,rl_choice,html-keyboard-response,23,43782,0.0-0.0-30.0,,,51,4,4,1,hard,1000,3000,0,40,60,20,60,B,A,/static/Simple_RL/Stimuli/Fractals_stims/B.jpg,/static/Simple_RL/Stimuli/Fractals_stims/A.jpg,0,60,40,60,20,A,B,24.679,0.679,,
24,2,,,rl_choice_confirmation,html-keyboard-response,24,44608,0.0-0.0-31.0-0.0,,,,4,,,,,,,,,,,,,,,,,,,,,,25.5,0.821,,
25,2,,,isi,html-keyboard-response,25,47610,0.0-0.0-33.0,,,,,,,,,,,,,,,,,,,,,,,,,,28.5,3,,
26,2,,,feedback,html-keyboard-response,26,48613,0.0-0.0-34.0-0.0,,,,4,,,,,,,,,,,,,,,,,,,,,,29.5,1,,
27,2,,,iti,html-keyboard-response,27,49616,0.0-0.0-35.0,,,,,,,,,,,,,,,,,,,,,,,,,,30.5,1,,
28,2,,531,rl_choice,html-keyboard-response,28,50148,0.0-0.0-37.0,,,50,5,5,1,easy,3000,1000,0,20,80,40,60,D,C,/static/Simple_RL/Stimuli/Fractals_stims/D.jpg,/static/Simple_RL/Stimuli/Fractals_stims/C.jpg,1,20,80,40,60,D,C,31.031,0.531,,
29,2,,,rl_choice_confirmation,html-keyboard-response,29,51120,0.0-0.0-38.0-0.0,,,,5,,,,,,,,,,,,,,,,,,,,,,32,0.969,,
30,2,,,isi,html-keyboard-response,30,52122,0.0-0.0-40.0,,,,,,,,,,,,,,,,,,,,,,,,,,33,1,,
31,2,,,feedback,html-keyboard-response,31,53126,0.0-0.0-41.0-0.0,,,,5,,,,,,,,,,,,,,,,,,,,,,34,1,,
32,2,,,iti,html-keyboard-response,32,56128,0.0-0.0-42.0,,,,,,,,,,,,,,,,,,,,,,,,,,37,3,,
33,2,,233,rl_choice,html-keyboard-response,33,56363,0.0-0.0-44.0,,,51,6,6,1,hard,1500,1000,1,60,40,60,60,A,B,/static/Simple_RL/Stimuli/Fractals_stims/A.jpg,/static/Simple_RL/Stimuli/Fractals_stims/B.jpg,0,40,60,60,60,B,A,37.233,0.233,,
34,2,,,rl_choice_confirmation,html-keyboard-response,34,57632,0.0-0.0-45.0-0.0,,,,6,,,,,,,,,,,,,,,,,,,,,,38.5,1.267,,
35,2,,,isi,html-keyboard-response,35,58636,0.0-0.0-47.0,,,,,,,,,,,,,,,,,,,,,,,,,,39.5,1,,
36,2,,,feedback,html-keyboard-response,36,59637,0.0-0.0-48.0-0.0,,,,6,,,,,,,,,,,,,,,,,,,,,,40.5,1,,
37,2,,,iti,html-keyboard-response,37,61143,0.0-0.0-49.0,,,,,,,,,,,,,,,,,,,,,,,,,,42,1.5,,
38,2,,261,rl_choice,html-keyboard-response,38,61406,0.0-0.0-51.0,,,50,7,7,1,easy,1500,1000,1,80,20,80,20,C,D,/static/Simple_RL/Stimuli/Fractals_stims/C.jpg,/static/Simple_RL/Stimuli/Fractals_stims/D.jpg,1,80,20,80,20,C,D,42.261,0.261,,
39,2,,,rl_choice_confirmation,html-keyboard-response,39,62650,0.0-0.0-52.0-0.0,,,,7,,,,,,,,,,,,,,,,,,,,,,43.5,1.239,,
40,2,,,isi,html-keyboard-response,40,63653,0.0-0.0-54.0,,,,,,,,,,,,,,,,,,,,,,,,,,44.5,1,,
41,2,,,feedback,html-keyboard-response,41,64656,0.0-0.0-55.0-0.0,,,,7,,,,,,,,,,,,,,,,,,,,,,45.5,1,,
42,2,,,iti,html-keyboard-response,42,66160,0.0-0.0-56.0,,,,,,,,,,,,,,,,,,,,,,,,,,47,1.5,,
43,2,,,rl_choice,html-keyboard-response,43,67664,0.0-0.0-58.0,,,,8,8,1,easy,3500,1500,0,20,80,40,60,D,C,/static/Simple_RL/Stimuli/Fractals_stims/D.jpg,/static/Simple_RL/Stimuli/Fractals_stims/C.jpg,,,,,,,,48.5,1.5,,
44,2,,,rl_choice_warning,html-keyboard-response,44,68666,0.0-0.0-60.0-0.0,,,,,,,,,,,,,,,,,,,,,,,,,,49.5,1,1,
45,2,,,isi,html-keyboard-response,45,70171,0.0-0.0-61.0,,,,,,,,,,,,,,,,,,,,,,,,,,51,1.5,,
46,2,,,iti,html-keyboard-response,46,73675,0.0-0.0-63.0,,,,,,,,,,,,,,,,,,,,,,,,,,54.5,3.5,,
47,2,,159,rl_choice,html-keyboard-response,47,73835,0.0-0.0-65.0,,,51,9,9,1,easy,1000,1500,0,20,80,40,80,D,C,/static/Simple_RL/Stimuli/Fractals_stims/D.jpg,/static/Simple_RL/Stimuli/Fractals_stims/C.jpg,0,80,20,80,40,C,D,54.659,0.159,,
48,2,,,rl_choice_confirmation,html-keyboard-response,48,75179,0.0-0.0-66.0-0.0,,,,9,,,,,,,,,,,,,,,,,,,,,,56,1.341,,
49,2,,,isi,html-keyboard-response,49,76683,0.0-0.0-68.0,,,,,,,,,,,,,,,,,,,,,,,,,,57.5,1.5,,
50,2,,,feedback,html-keyboard-response,50,77686,0.0-0.0-69.0-0.0,,,,9,,,,,,,,,,,,,,,,,,,,,,58.5,1,,
51,2,,,iti,html-keyboard-response,51,78689,0.0-0.0-70.0,,,,,,,,,,,,,,,,,,,,,,,,,,59.5,1,,
52,2,,2,rl_choice,html-keyboard-response,52,78692,0.0-0.0-72.0,,,50,10,10,1,hard,2000,1000,1,60,40,40,20,A,B,/static/Simple_RL/Stimuli/Fractals_stims/A.jpg,/static/Simple_RL/Stimuli/Fractals_stims/B.jpg,1,60,40,40,20,A,B,59.502,0.002,,
53,2,,,rl_choice_confirmation,html-keyboard-response,53,80193,0.0-0.0-73.0-0.0,,,,10,,,,,,,,,,,,,,,,,,,,,,61,1.498,,
54,2,,,isi,html-keyboard-response,54,81196,0.0-0.0-75.0,,,,,,,,,,,,,,,,,,,,,,,,,,62,1,,
55,2,,,feedback,html-keyboard-response,55,82199,0.0-0.0-76.0-0.0,,,,10,,,,,,,,,,,,,,,,,,,,,,63,1,,
56,2,,,iti,html-keyboard-response,56,84203,0.0-0.0-77.0,,,,,,,,,,,,,,,,,,,,,,,,,,65,2,,
57,2,,296,rl_choice,html-keyboard-response,57,84500,0.0-0.0-79.0,,,51,11,11,1,easy,1000,1500,0,20,80,40,60,D,C,/static/Simple_RL/Stimuli/Fractals_stims/D.jpg,/static/Simple_RL/Stimuli/Fractals_stims/C.jpg,0,80,20,60,40,C,D,65.296,0.296,,
58,2,,,rl_choice_confirmation,html-keyboard-response,58,85707,0.0-0.0-80.0-0.0,,,,11,,,,,,,,,,,,,,,,,,,,,,66.5,1.204,,
59,2,,,isi,html-keyboard-response,59,87211,0.0-0.0-82.0,,,,,,,,,,,,,,,,,,,,,,,,,,68,1.5,,
60,2,,,feedback,html-keyboard-response,60,88215,0.0-0.0-83.0-0.0,,,,11,,,,,,,,,,,,,,,,,,,,,,69,1,,
61,2,,,iti,html-keyboard-response,61,89217,0.0-0.0-84.0,,,,,,,,,,,,,,,,,,,,,,,,,,70,1,,
62,2,,477,rl_choice,html-keyboard-response,62,89695,0.0-0.0-86.0,,,50,12,12,1,hard,1000,1500,1,60,40,60,60,A,B,/static/Simple_RL/Stimuli/Fractals_stims/A.jpg,/static/Simple_RL/Stimuli/Fractals_stims/B.jpg,1,60,40,60,60,A,B,70.477,0.477,,
63,2,,,rl_choice_confirmation,html-keyboard-response,63,90721,0.0-0.0-87.0-0.0,,,,12,,,,,,,,,,,,,,,,,,,,,,71.5,1.023,,
64,2,,,isi,html-keyboard-response,64,92224,0.0-0.0-89.0,,,,,,,,,,,,,,,,,,,,,,,,,,73,1.5,,
65,2,,,feedback,html-keyboard-response,65,93227,0.0-0.0-90.0-0.0,,,,12,,,,,,,,,,,,,,,,,,,,,,74,1,,
66,2,,,iti,html-keyboard-response,66,94230,0.0-0.0-91.0,,,,,,,,,,,,,,,,,,,,,,,,,,75,1,,
67,2,,221,rl_choice,html-keyboard-response,67,94453,0.0-0.0-93.0,,,51,13,13,1,easy,1000,1500,1,80,20,80,0,C,D,/static/Simple_RL/Stimuli/Fractals_stims/C.jpg,/static/Simple_RL/Stimuli/Fractals_stims/D.jpg,0,20,80,0,80,D,C,75.221,0.221,,
68,2,,,rl_choice_confirmation,html-keyboard-response,68,95734,0.0-0.0-94.0-0.0,,,,13,,,,,,,,,,,,,,,,,,,,,,76.5,1.279,,
69,2,,,isi,html-keyboard-response,69,97238,0.0-0.0-96.0,,,,,,,,,,,,,,,,,,,,,,,,,,78,1.5,,
70,2,,,feedback,html-keyboard-response,70,98243,0.0-0.0-97.0-0.0,,,,13,,,,,,,,,,,,,,,,,,,,,,79,1,,
71,2,,,iti,html-keyboard-response,71,99246,0.0-0.0-98.0,,,,,,,,,,,,,,,,,,,,,,,,,,80,1,,
72,2,,268,rl_choice,html-keyboard-response,72,99514,0.0-0.0-100.0,,,50,14,14,1,easy,1000,2000,1,80,20,80,0,C,D,/static/Simple_RL/Stimuli/Fractals_stims/C.jpg,/static/Simple_RL/Stimuli/Fractals_stims/D.jpg,1,80,20,80,0,C,D,80.268,0.268,,
73,2,,,rl_choice_confirmation,html-keyboard-response,73,100753,0.0-0.0-101.0-0.0,,,,14,,,,,,,,,,,,,,,,,,,,,,81.5,1.232,,
74,2,,,isi,html-keyboard-response,74,102758,0.0-0.0-103.0,,,,,,,,,,,,,,,,,,,,,,,,,,83.5,2,,
75,2,,,feedback,html-keyboard-response,75,103762,0.0-0.0-104.0-0.0,,,,14,,,,,,,,,,,,,,,,,,,,,,84.5,1,,
76,2,,,iti,html-keyboard-response,76,104764,0.0-0.0-105.0,,,,,,,,,,,,,,,,,,,,,,,,,,85.5,1,,
77,2,,1301,rl_choice,html-keyboard-response,77,106066,0.0-0.0-107.0,,,50,15,15,1,hard,1000,1000,0,40,60,40,60,B,A,/static/Simple_RL/Stimuli/Fractals_stims/B.jpg,/static/Simple_RL/Stimuli/Fractals_stims/A.jpg,1,40,60,40,60,B,A,86.801,1.301,,
78,2,,,rl_choice_confirmation,html-keyboard-response,78,106267,0.0-0.0-108.0-0.0,,,,15,,,,,,,,,,,,,,,,,,,,,,87,0.199,,
79,2,,,isi,html-keyboard-response,79,107270,0.0-0.0-110.0,,,,,,,,,,,,,,,,,,,,,,,,,,88,1,,
80,2,,,feedback,html-keyboard-response,80,108274,0.0-0.0-111.0-0.0,,,,15,,,,,,,,,,,,,,,,,,,,,,89,1,,
81,2,,,iti,html-keyboard-response,81,109276,0.0-0.0-112.0,,,,,,,,,,,,,,,,,,,,,,,,,,90,1,,
82,2,,186,rl_choice,html-keyboard-response,82,109463,0.0-0.0-114.0,,,50,16,16,1,hard,1000,2000,1,60,40,80,60,A,B,/static/Simple_RL/Stimuli/Fractals_stims/A.jpg,/static/Simple_RL/Stimuli/Fractals_stims/B.jpg,1,60,40,80,60,A,B,90.186,0.186,,
83,2,,,rl_choice_confirmation,html-keyboard-response,83,110780,0.0-0.0-115.0-0.0,,,,16,,,,,,,,,,,,,,,,,,,,,,91.5,1.314,,
84,2,,,isi,html-keyboard-response,84,112785,0.0-0.0-117.0,,,,,,,,,,,,,,,,,,,,,,,,,,93.5,2,,
85,2,,,feedback,html-keyboard-response,85,113788,0.0-0.0-118.0-0.0,,,,16,,,,,,,,,,,,,,,,,,,,,,94.5,1,,
86,2,,,iti,html-keyboard-response,86,114791,0.0-0.0-119.0,,,,,,,,,,,,,,,,,,,,,,,,,,95.5,1,,
87,2,,364,rl_choice,html-keyboard-response,87,115157,0.0-0.0-121.0,,,51,17,17,1,hard,3000,2000,0,40,60,60,40,B,A,/static/Simple_RL/Stimuli/Fractals_stims/B.jpg,/static/Simple_RL/Stimuli/Fractals_stims/A.jpg,0,60,40,40,60,A,B,95.864,0.364,,
88,2,,,rl_choice_confirmation,html-keyboard-response,88,116295,0.0-0.0-122.0-0.0,,,,17,,,,,,,,,,,,,,,,,,,,,,97,1.136,,
89,2,,,isi,html-keyboard-response,89,118300,0.0-0.0-124.0,,,,,,,,,,,,,,,,,,,,,,,,,,99,2,,
90,2,,,feedback,html-keyboard-response,90,119303,0.0-0.0-125.0-0.0,,,,17,,,,,,,,,,,,,,,,,,,,,,100,1,,
91,2,,,iti,html-keyboard-response,91,122306,0.0-0.0-126.0,,,,,,,,,,,,,,,,,,,,,,,,,,103,3,,
92,2,,188,rl_choice,html-keyboard-response,92,122495,0.0-0.0-128.0,,,50,18,18,1,hard,1500,1500,1,60,40,40,20,A,B,/static/Simple_RL/Stimuli/Fractals_stims/A.jpg,/static/Simple_RL/Stimuli/Fractals_stims/B.jpg,1,60,40,40,20,A,B,103.188,0.188,,
93,2,,,rl_choice_confirmation,html-keyboard-response,93,123810,0.0-0.0-129.0-0.0,,,,18,,,,,,,,,,,,,,,,,,,,,,104.5,1.312,,
94,2,,,isi,html-keyboard-response,94,125314,0.0-0.0-131.0,,,,,,,,,,,,,,,,,,,,,,,,,,106,1.5,,
95,2,,,feedback,html-keyboard-response,95,126319,0.0-0.0-132.0-0.0,,,,18,,,,,,,,,,,,,,,,,,,,,,107,1,,
96,2,,,iti,html-keyboard-response,96,127825,0.0-0.0-133.0,,,,,,,,,,,,,,,,,,,,,,,,,,108.5,1.5,,
97,2,,107,rl_choice,html-keyboard-response,97,127933,0.0-0.0-135.0,,,50,19,19,1,easy,1500,3000,0,20,80,20,80,D,C,/static/Simple_RL/Stimuli/Fractals_stims/D.jpg,/static/Simple_RL/Stimuli/Fractals_stims/C.jpg,1,20,80,20,80,D,C,108.607,0.107,,
98,2,,,rl_choice_confirmation,html-keyboard-response,98,129329,0.0-0.0-136.0-0.0,,,,19,,,,,,,,,,,,,,,,,,,,,,110,1.393,,
99,2,,,isi,html-keyboard-response,99,132332,0.0-0.0-138.0,,,,,,,,,,,,,,,,,,,,,,,,,,113,3,,
100,2,,,feedback,html-keyboard-response,100,133335,0.0-0.0-139.0-0.0,,,,19,,,,,,,,,,,,,,,,,,,,,,114,1,,
101,2,,,iti,html-keyboard-response,101,134839,0.0-0.0-140.0,,,,,,,,,,,,,,,,,,,,,,,,,,115.5,1.5,,
102,2,,653,rl_choice,html-keyboard-response,102,135493,0.0-0.0-142.0,,,51,20,20,1,easy,1000,1000,1,80,20,100,20,C,D,/static/Simple_RL/Stimuli/Fractals_stims/C.jpg,/static/Simple_RL/Stimuli/Fractals_stims/D.jpg,0,20,80,20,100,D,C,116.153,0.653,,
103,2,,,rl_choice_confirmation,html-keyboard-response,103,136345,0.0-0.0-143.0-0.0,,,,20,,,,,,,,,,,,,,,,,,,,,,117,0.847,,
104,2,,,isi,html-keyboard-response,104,137350,0.0-0.0-145.0,,,,,,,,,,,,,,,,,,,,,,,,,,118,1,,
105,2,,,feedback,html-keyboard-response,105,138354,0.0-0.0-146.0-0.0,,,,20,,,,,,,,,,,,,,,,,,,,,,119,1,,
106,2,,,iti,html-keyboard-response,106,139357,0.0-0.0-147.0,,,,,,,,,,,,,,,,,,,,,,,,,,120,1,,
107,2,,250,rl_choice,html-keyboard-response,107,139608,0.0-0.0-149.0,,,50,21,21,1,easy,1500,1500,0,20,80,0,100,D,C,/static/Simple_RL/Stimuli/Fractals_stims/D.jpg,/static/Simple_RL/Stimuli/Fractals_stims/C.jpg,1,20,80,0,100,D,C,120.25,0.25,,
108,2,,,rl_choice_confirmation,html-keyboard-response,108,140860,0.0-0.0-150.0-0.0,,,,21,,,,,,,,,,,,,,,,,,,,,,121.5,1.25,,
109,2,,,isi,html-keyboard-response,109,142364,0.0-0.0-152.0,,,,,,,,,,,,,,,,,,,,,,,,,,123,1.5,,
110,2,,,feedback,html-keyboard-response,110,143367,0.0-0.0-153.0-0.0,,,,21,,,,,,,,,,,,,,,,,,,,,,124,1,,
111,2,,,iti,html-keyboard-response,111,144871,0.0-0.0-154.0,,,,,,,,,,,,,,,,,,,,,,,,,,125.5,1.5,,
112,2,,355,rl_choice,html-keyboard-response,112,145227,0.0-0.0-156.0,,,51,22,22,1,hard,1500,2000,0,40,60,40,80,B,A,/static/Simple_RL/Stimuli/Fractals_stims/B.jpg,/static/Simple_RL/Stimuli/Fractals_stims/A.jpg,0,60,40,80,40,A,B,125.855,0.355,,
113,2,,,rl_choice_confirmation,html-keyboard-response,113,146376,0.0-0.0-157.0-0.0,,,,22,,,,,,,,,,,,,,,,,,,,,,127,1.145,,
114,2,,,isi,html-keyboard-response,114,148380,0.0-0.0-159.0,,,,,,,,,,,,,,,,,,,,,,,,,,129,2,,
115,2,,,feedback,html-keyboard-response,115,149384,0.0-0.0-160.0-0.0,,,,22,,,,,,,,,,,,,,,,,,,,,,130,1,,
116,2,,,iti,html-keyboard-response,116,150889,0.0-0.0-161.0,,,,,,,,,,,,,,,,,,,,,,,,,,131.5,1.5,,
117,2,,1197,rl_choice,html-keyboard-response,117,152087,0.0-0.0-163.0,,,51,23,23,1,hard,1000,1000,0,40,60,60,80,B,A,/static/Simple_RL/Stimuli/Fractals_stims/B.jpg,/static/Simple_RL/Stimuli/Fractals_stims/A.jpg,0,60,40,80,60,A,B,132.697,1.197,,
118,2,,,rl_choice_confirmation,html-keyboard-response,118,152396,0.0-0.0-164.0-0.0,,,,23,,,,,,,,,,,,,,,,,,,,,,133,0.303,,
119,2,,,isi,html-keyboard-response,119,153403,0.0-0.0-166.0,,,,,,,,,,,,,,,,,,,,,,,,,,134,1,,
120,2,,,feedback,html-keyboard-response,120,154407,0.0-0.0-167.0-0.0,,,,23,,,,,,,,,,,,,,,,,,,,,,135,1,,
121,2,,,iti,html-keyboard-response,121,155410,0.0-0.0-168.0,,,,,,,,,,,,,,,,,,,,,,,,,,136,1,,
122,2,,,rl_choice,html-keyboard-response,122,156914,0.0-0.0-170.0,,,,24,24,1,hard,2000,1500,1,60,40,40,40,A,B,/static/Simple_RL/Stimuli/Fractals_stims/A.jpg,/static/Simple_RL/Stimuli/Fractals_stims/B.jpg,,,,,,,,137.5,1.5,,
123,2,,,rl_choice_warning,html-keyboard-response,123,157917,0.0-0.0-172.0-0.0,,,,,,,,,,,,,,,,,,,,,,,,,,138.5,1,1,
124,2,,,isi,html-keyboard-response,124,159421,0.0-0.0-173.0,,,,,,,,,,,,,,,,,,,,,,,,,,140,1.5,,
125,2,,,iti,html-keyboard-response,125,161426,0.0-0.0-175.0,,,,,,,,,,,,,,,,,,,,,,,,,,142,2,,
126,2,,339,rl_choice,html-keyboard-response,126,161767,0.0-0.0-177.0,,,50,25,25,1,easy,2000,1000,1,80,20,60,20,C,D,/static/Simple_RL/Stimuli/Fractals_stims/C.jpg,/static/Simple_RL/Stimuli/Fractals_stims/D.jpg,1,80,20,60,20,C,D,142.339,0.339,,
127,2,,,rl_choice_confirmation,html-keyboard-response,127,162932,0.0-0.0-178.0-0.0,,,,25,,,,,,,,,,,,,,,,,,,,,,143.5,1.161,,
128,2,,,isi,html-keyboard-response,128,163937,0.0-0.0-180.0,,,,,,,,,,,,,,,,,,,,,,,,,,144.5,1,,
129,2,,,feedback,html-keyboard-response,129,164941,0.0-0.0-181.0-0.0,,,,25,,,,,,,,,,,,,,,,,,,,,,145.5,1,,
130,2,,,iti,html-keyboard-response,130,166947,0.0-0.0-182.0,,,,,,,,,,,,,,,,,,,,,,,,,,147.5,2,,
131,2,,92,rl_choice,html-keyboard-response,131,167040,0.0-0.0-184.0,,,51,26,26,1,hard,2000,2000,0,40,60,40,40,B,A,/static/Simple_RL/Stimuli/Fractals_stims/B.jpg,/static/Simple_RL/Stimuli/Fractals_stims/A.jpg,0,60,40,40,40,A,B,147.592,0.092,,
132,2,,,rl_choice_confirmation,html-keyboard-response,132,168450,0.0-0.0-185.0-0.0,,,,26,,,,,,,,,,,,,,,,,,,,,,149,1.408,,
133,2,,,isi,html-keyboard-response,133,170456,0.0-0.0-187.0,,,,,,,,,,,,,,,,,,,,,,,,,,151,2,,
134,2,,,feedback,html-keyboard-response,134,171459,0.0-0.0-188.0-0.0,,,,26,,,,,,,,,,,,,,,,,,,,,,152,1,,
135,2,,,iti,html-keyboard-response,135,173464,0.0-0.0-189.0,,,,,,,,,,,,,,,,,,,,,,,,,,154,2,,
136,2,,83,rl_choice,html-keyboard-response,136,173549,0.0-0.0-191.0,,,50,27,27,1,easy,1000,1000,0,20,80,20,80,D,C,/static/Simple_RL/Stimuli/Fractals_stims/D.jpg,/static/Simple_RL/Stimuli/Fractals_stims/C.jpg,1,20,80,20,80,D,C,154.083,0.083,,
137,2,,,rl_choice_confirmation,html-keyboard-response,137,174968,0.0-0.0-192.0-0.0,,,,27,,,,,,,,,,,,,,,,,,,,,,155.5,1.417,,
138,2,,,isi,html-keyboard-response,138,175971,0.0-0.0-194.0,,,,,,,,,,,,,,,,,,,,,,,,,,156.5,1,,
139,2,,,feedback,html-keyboard-response,139,176975,0.0-0.0-195.0-0.0,,,,27,,,,,,,,,,,,,,,,,,,,,,157.5,1,,
140,2,,,iti,html-keyboard-response,140,177981,0.0-0.0-196.0,,,,,,,,,,,,,,,,,,,,,,,,,,158.5,1,,
141,2,,245,rl_choice,html-keyboard-response,141,178229,0.0-0.0-198.0,,,51,28,28,1,easy,2000,3000,1,80,20,60,40,C,D,/static/Simple_RL/Stimuli/Fractals_stims/C.jpg,/static/Simple_RL/Stimuli/Fractals_stims/D.jpg,0,20,80,40,60,D,C,158.745,0.245,,
142,2,,,rl_choice_confirmation,html-keyboard-response,142,179486,0.0-0.0-199.0-0.0,,,,28,,,,,,,,,,,,,,,,,,,,,,160,1.255,,
143,2,,,isi,html-keyboard-response,143,182491,0.0-0.0-201.0,,,,,,,,,,,,,,,,,,,,,,,,,,163,3,,
144,2,,,feedback,html-keyboard-response,144,183496,0.0-0.0-202.0-0.0,,,,28,,,,,,,,,,,,,,,,,,,,,,164,1,,
145,2,,,iti,html-keyboard-response,145,185497,0.0-0.0-203.0,,,,,,,,,,,,,,,,,,,,,,,,,,166,2,,
146,2,,238,rl_choice,html-keyboard-response,146,185736,0.0-0.0-205.0,,,51,29,29,1,hard,1000,1500,1,60,40,60,20,A,B,/static/Simple_RL/Stimuli/Fractals_stims/A.jpg,/static/Simple_RL/Stimuli/Fractals_stims/B.jpg,0,40,60,20,60,B,A,166.238,0.238,,
147,2,,,rl_choice_confirmation,html-keyboard-response,147,187000,0.0-0.0-206.0-0.0,,,,29,,,,,,,,,,,,,,,,,,,,,,167.5,1.262,,
148,2,,,isi,html-keyboard-response,148,188504,0.0-0.0-208.0,,,,,,,,,,,,,,,,,,,,,,,,,,169,1.5,,
149,2,,,feedback,html-keyboard-response,149,189508,0.0-0.0-209.0-0.0,,,,29,,,,,,,,,,,,,,,,,,,,,,170,1,,
150,2,,,iti,html-keyboard-response,150,190511,0.0-0.0-210.0,,,,,,,,,,,,,,,,,,,,,,,,,,171,1,,
151,2,,1014,rl_choice,html-keyboard-response,151,191527,0.0-0.0-212.0,,,50,30,30,1,hard,1500,1000,1,60,40,60,40,A,B,/static/Simple_RL/Stimuli/Fractals_stims/A.jpg,/static/Simple_RL/Stimuli/Fractals_stims/B.jpg,1,60,40,60,40,A,B,172.014,1.014,,
152,2,,,rl_choice_confirmation,html-keyboard-response,152,192019,0.0-0.0-213.0-0.0,,,,30,,,,,,,,,,,,,,,,,,,,,,172.5,0.486,,
153,2,,,isi,html-keyboard-response,153,193021,0.0-0.0-215.0,,,,,,,,,,,,,,,,,,,,,,,,,,173.5,1,,
154,2,,,feedback,html-keyboard-response,154,194025,0.0-0.0-216.0-0.0,,,,30,,,,,,,,,,,,,,,,,,,,,,174.5,1,,
155,2,,,iti,html-keyboard-response,155,195528,0.0-0.0-217.0,,,,,,,,,,,,,,,,,,,,,,,,,,176,1.5,,
156,2,,148,rl_choice,html-keyboard-response,156,195678,0.0-0.0-219.0,,,50,31,31,1,easy,1000,1000,1,80,20,100,40,C,D,/static/Simple_RL/Stimuli/Fractals_stims/C.jpg,/static/Simple_RL/Stimuli/Fractals_stims/D.jpg,1,80,20,100,40,C,D,176.148,0.148,,
157,2,,,rl_choice_confirmation,html-keyboard-response,157,197032,0.0-0.0-220.0-0.0,,,,31,,,,,,,,,,,,,,,,,,,,,,177.5,1.352,,
158,2,,,isi,html-keyboard-response,158,198035,0.0-0.0-222.0,,,,,,,,,,,,,,,,,,,,,,,,,,178.5,1,,
159,2,,,feedback,html-keyboard-response,159,199038,0.0-0.0-223.0-0.0,,,,31,,,,,,,,,,,,,,,,,,,,,,179.5,1,,
160,2,,,iti,html-keyboard-response,160,200041,0.0-0.0-224.0,,,,,,,,,,,,,,,,,,,,,,,,,,180.5,1,,
161,2,,71,rl_choice,html-keyboard-response,161,200113,0.0-0.0-226.0,,,50,32,32,1,easy,3000,2000,0,20,80,0,80,D,C,/static/Simple_RL/Stimuli/Fractals_stims/D.jpg,/static/Simple_RL/Stimuli/Fractals_stims/C.jpg,1,20,80,0,80,D,C,180.571,0.071,,
162,2,,,rl_choice_confirmation,html-keyboard-response,162,201546,0.0-0.0-227.0-0.0,,,,32,,,,,,,,,,,,,,,,,,,,,,182,1.429,,
163,2,,,isi,html-keyboard-response,163,203550,0.0-0.0-229.0,,,,,,,,,,,,,,,,,,,,,,,,,,184,2,,
164,2,,,feedback,html-keyboard-response,164,204552,0.0-0.0-230.0-0.0,,,,32,,,,,,,,,,,,,,,,,,,,,,185,1,,
165,2,,,iti,html-keyboard-response,165,207556,0.0-0.0-231.0,,,,,,,,,,,,,,,,,,,,,,,,,,188,3,,
166,2,,,rl_choice,html-keyboard-response,166,209059,0.0-0.0-233.0,,,,33,33,1,hard,3500,1500,1,60,40,40,60,A,B,/static/Simple_RL/Stimuli/Fractals_stims/A.jpg,/static/Simple_RL/Stimuli/Fractals_stims/B.jpg,,,,,,,,189.5,1.5,,
167,2,,,rl_choice_warning,html-keyboard-response,167,210062,0.0-0.0-235.0-0.0,,,,,,,,,,,,,,,,,,,,,,,,,,190.5,1,1,
168,2,,,isi,html-keyboard-response,168,211564,0.0-0.0-236.0,,,,,,,,,,,,,,,,,,,,,,,,,,192,1.5,,
169,2,,,iti,html-keyboard-response,169,215070,0.0-0.0-238.0,,,,,,,,,,,,,,,,,,,,,,,,,,195.5,3.5,,
170,2,,46,rl_choice,html-keyboard-response,170,215118,0.0-0.0-240.0,,,50,34,34,1,hard,2000,3000,0,40,60,40,60,B,A,/static/Simple_RL/Stimuli/Fractals_stims/B.jpg,/static/Simple_RL/Stimuli/Fractals_stims/A.jpg,1,40,60,40,60,B,A,195.546,0.046,,
171,2,,,rl_choice_confirmation,html-keyboard-response,171,216574,0.0-0.0-241.0-0.0,,,,34,,,,,,,,,,,,,,,,,,,,,,197,1.454,,
172,2,,,isi,html-keyboard-response,172,219577,0.0-0.0-243.0,,,,,,,,,,,,,,,,,,,,,,,,,,200,3,,
173,2,,,feedback,html-keyboard-response,173,220580,0.0-0.0-244.0-0.0,,,,34,,,,,,,,,,,,,,,,,,,,,,201,1,,
174,2,,,iti,html-keyboard-response,174,222585,0.0-0.0-245.0,,,,,,,,,,,,,,,,,,,,,,,,,,203,2,,
175,2,,,rl_choice,html-keyboard-response,175,224089,0.0-0.0-247.0,,,,35,35,1,hard,1500,1000,0,40,60,20,60,B,A,/static/Simple_RL/Stimuli/Fractals_stims/B.jpg,/static/Simple_RL/Stimuli/Fractals_stims/A.jpg,,,,,,,,204.5,1.5,,
176,2,,,rl_choice_warning,html-keyboard-response,176,225091,0.0-0.0-249.0-0.0,,,,,,,,,,,,,,,,,,,,,,,,,,205.5,1,1,
177,2,,,isi,html-keyboard-response,177,226094,0.0-0.0-250.0,,,,,,,,,,,,,,,,,,,,,,,,,,206.5,1,,
178,2,,,iti,html-keyboard-response,178,227598,0.0-0.0-252.0,,,,,,,,,,,,,,,,,,,,,,,,,,208,1.5,,
179,2,,969,rl_choice,html-keyboard-response,179,228568,0.0-0.0-254.0,,,50,36,36,1,hard,1000,3500,0,40,60,40,60,B,A,/static/Simple_RL/Stimuli/Fractals_stims/B.jpg,/static/Simple_RL/Stimuli/Fractals_stims/A.jpg,1,40,60,40,60,B,A,208.969,0.969,,
180,2,,,rl_choice_confirmation,html-keyboard-response,180,229102,0.0-0.0-255.0-0.0,,,,36,,,,,,,,,,,,,,,,,,,,,,209.5,0.531,,
181,2,,,isi,html-keyboard-response,181,232606,0.0-0.0-257.0,,,,,,,,,,,,,,,,,,,,,,,,,,213,3.5,,
182,2,,,feedback,html-keyboard-response,182,233609,0.0-0.0-258.0-0.0,,,,36,,,,,,,,,,,,,,,,,,,,,,214,1,,
183,2,,,iti,html-keyboard-response,183,234612,0.0-0.0-259.0,,,,,,,,,,,,,,,,,,,,,,,,,,215,1,,
184,2,,1,rl_choice,html-keyboard-response,184,234614,0.0-0.0-261.0,,,50,37,37,1,hard,3000,1000,1,60,40,40,20,A,B,/static/Simple_RL/Stimuli/Fractals_stims/A.jpg,/static/Simple_RL/Stimuli/Fractals_stims/B.jpg,1,60,40,40,20,A,B,215.001,0.001,,
185,2,,,rl_choice_confirmation,html-keyboard-response,185,236116,0.0-0.0-262.0-0.0,,,,37,,,,,,,,,,,,,,,,,,,,,,216.5,1.499,,
186,2,,,isi,html-keyboard-response,186,237118,0.0-0.0-264.0,,,,,,,,,,,,,,,,,,,,,,,,,,217.5,1,,
187,2,,,feedback,html-keyboard-response,187,238122,0.0-0.0-265.0-0.0,,,,37,,,,,,,,,,,,,,,,,,,,,,218.5,1,,
188,2,,,iti,html-keyboard-response,188,241124,0.0-0.0-266.0,,,,,,,,,,,,,,,,,,,,,,,,,,221.5,3,,
189,2,,63,rl_choice,html-keyboard-response,189,241188,0.0-0.0-268.0,,,51,38,38,1,hard,1000,1000,1,60,40,80,40,A,B,/static/Simple_RL/Stimuli/Fractals_stims/A.jpg,/static/Simple_RL/Stimuli/Fractals_stims/B.jpg,0,40,60,40,80,B,A,221.563,0.063,,
190,2,,,rl_choice_confirmation,html-keyboard-response,190,242628,0.0-0.0-269.0-0.0,,,,38,,,,,,,,,,,,,,,,,,,,,,223,1.437,,
191,2,,,isi,html-keyboard-response,191,243630,0.0-0.0-271.0,,,,,,,,,,,,,,,,,,,,,,,,,,224,1,,
192,2,,,feedback,html-keyboard-response,192,244633,0.0-0.0-272.0-0.0,,,,38,,,,,,,,,,,,,,,,,,,,,,225,1,,
193,2,,,iti,html-keyboard-response,193,245636,0.0-0.0-273.0,,,,,,,,,,,,,,,,,,,,,,,,,,226,1,,
194,2,,167,rl_choice,html-keyboard-response,194,245805,0.0-0.0-275.0,,,50,39,39,1,easy,1500,2000,0,20,80,20,60,D,C,/static/Simple_RL/Stimuli/Fractals_stims/D.jpg,/static/Simple_RL/Stimuli/Fractals_stims/C.jpg,1,20,80,20,60,D,C,226.167,0.167,,
195,2,,,rl_choice_confirmation,html-keyboard-response,195,247140,0.0-0.0-276.0-0.0,,,,39,,,,,,,,,,,,,,,,,,,,,,227.5,1.333,,
196,2,,,isi,html-keyboard-response,196,249145,0.0-0.0-278.0,,,,,,,,,,,,,,,,,,,,,,,,,,229.5,2,,
197,2,,,feedback,html-keyboard-response,197,250148,0.0-0.0-279.0-0.0,,,,39,,,,,,,,,,,,,,,,,,,,,,230.5,1,,
198,2,,,iti,html-keyboard-response,198,251652,0.0-0.0-280.0,,,,,,,,,,,,,,,,,,,,,,,,,,232,1.5,,
199,2,,622,block_over,html-keyboard-response,199,252275,0.0-0.0-281.0-0.0,,,50,39,,,,,,,,,,,,,,,,,,,,,,,,,
200,2,,7370,start_run,html-keyboard-response,200,259645,0.0-0.0-281.0-1.0,,,84,,,,,,,,,,,,,,,,,,,,,,,,,,
201,2,,381,rl_choice,html-keyboard-response,201,260027,0.0-0.0-282.0,,,50,40,40,2,hard,3000,1500,1,60,40,60,40,A,B,/static/Simple_RL/Stimuli/Fractals_stims/A.jpg,/static/Simple_RL/Stimuli/Fractals_stims/B.jpg,1,60,40,60,40,A,B,0.381,0.381,,
202,2,,,rl_choice_confirmation,html-keyboard-response,202,261151,0.0-0.0-283.0-0.0,,,,40,,,,,,,,,,,,,,,,,,,,,,1.5,1.119,,
203,2,,,isi,html-keyboard-response,203,262653,0.0-0.0-285.0,,,,,,,,,,,,,,,,,,,,,,,,,,3,1.5,,
204,2,,,feedback,html-keyboard-response,204,263657,0.0-0.0-286.0-0.0,,,,40,,,,,,,,,,,,,,,,,,,,,,4,1,,
205,2,,,iti,html-keyboard-response,205,266661,0.0-0.0-287.0,,,,,,,,,,,,,,,,,,,,,,,,,,7,3,,
206,2,,34,rl_choice,html-keyboard-response,206,266696,0.0-0.0-289.0,,,51,41,41,2,hard,2000,1500,0,40,60,40,60,B,A,/static/Simple_RL/Stimuli/Fractals_stims/B.jpg,/static/Simple_RL/Stimuli/Fractals_stims/A.jpg,0,60,40,60,40,A,B,7.034,0.034,,
207,2,,,rl_choice_confirmation,html-keyboard-response,207,268164,0.0-0.0-290.0-0.0,,,,41,,,,,,,,,,,,,,,,,,,,,,8.5,1.466,,
208,2,,,isi,html-keyboard-response,208,269669,0.0-0.0-292.0,,,,,,,,,,,,,,,,,,,,,,,,,,10,1.5,,
209,2,,,feedback,html-keyboard-response,209,270674,0.0-0.0-293.0-0.0,,,,41,,,,,,,,,,,,,,,,,,,,,,11,1,,
210,2,,,iti,html-keyboard-response,210,272676,0.0-0.0-294.0,,,,,,,,,,,,,,,,,,,,,,,,,,13,2,,
211,2,,527,rl_choice,html-keyboard-response,211,273206,0.0-0.0-296.0,,,50,42,42,2,easy,1500,1000,0,20,80,20,60,D,C,/static/Simple_RL/Stimuli/Fractals_stims/D.jpg,/static/Simple_RL/Stimuli/Fractals_stims/C.jpg,1,20,80,20,60,D,C,13.527,0.527,,
212,2,,,rl_choice_confirmation,html-keyboard-response,212,274180,0.0-0.0-297.0-0.0,,,,42,,,,,,,,,,,,,,,,,,,,,,14.5,0.973,,
213,2,,,isi,html-keyboard-response,213,275182,0.0-0.0-299.0,,,,,,,,,,,,,,,,,,,,,,,,,,15.5,1,,
214,2,,,feedback,html-keyboard-response,214,276187,0.0-0.0-300.0-0.0,,,,42,,,,,,,,,,,,,,,,,,,,,,16.5,1,,
215,2,,,iti,html-keyboard-response,215,277690,0.0-0.0-301.0,,,,,,,,,,,,,,,,,,,,,,,,,,18,1.5,,
216,2,,887,rl_choice,html-keyboard-response,216,278578,0.0-0.0-303.0,,,50,43,43,2,easy,1000,1500,1,80,20,80,20,C,D,/static/Simple_RL/Stimuli/Fractals_stims/C.jpg,/static/Simple_RL/Stimuli/Fractals_stims/D.jpg,1,80,20,80,20,C,D,18.887,0.887,,
217,2,,,rl_choice_confirmation,html-keyboard-response,217,279194,0.0-0.0-304.0-0.0,,,,43,,,,,,,,,,,,,,,,,,,,,,19.5,0.613,,
218,2,,,isi,html-keyboard-response,218,280698,0.0-0.0-306.0,,,,,,,,,,,,,,,,,,,,,,,,,,21,1.5,,
219,2,,,feedback,html-keyboard-response,219,281702,0.0-0.0-307.0-0.0,,,,43,,,,,,,,,,,,,,,,,,,,,,22,1,,
220,2,,,iti,html-keyboard-response,220,282704,0.0-0.0-308.0,,,,,,,,,,,,,,,,,,,,,,,,,,23,1,,
221,2,,83,rl_choice,html-keyboard-response,221,282789,0.0-0.0-310.0,,,51,44,44,2,easy,3000,1000,1,80,20,100,40,C,D,/static/Simple_RL/Stimuli/Fractals_stims/C.jpg,/static/Simple_RL/Stimuli/Fractals_stims/D.jpg,0,20,80,40,100,D,C,23.083,0.083,,
222,2,,,rl_choice_confirmation,html-keyboard-response,222,284207,0.0-0.0-311.0-0.0,,,,44,,,,,,,,,,,,,,,,,,,,,,24.5,1.417,,
223,2,,,isi,html-keyboard-response,223,285210,0.0-0.0-313.0,,,,,,,,,,,,,,,,,,,,,,,,,,25.5,1,,
224,2,,,feedback,html-keyboard-response,224,286214,0.0-0.0-314.0-0.0,,,,44,,,,,,,,,,,,,,,,,,,,,,26.5,1,,
225,2,,,iti,html-keyboard-response,225,289215,0.0-0.0-315.0,,,,,,,,,,,,,,,,,,,,,,,,,,29.5,3,,
226,2,,51,rl_choice,html-keyboard-response,226,289267,0.0-0.0-317.0,,,51,45,45,2,hard,1500,1000,0,40,60,20,40,B,A,/static/Simple_RL/Stimuli/Fractals_stims/B.jpg,/static/Simple_RL/Stimuli/Fractals_stims/A.jpg,0,60,40,40,20,A,B,29.551,0.051,,
227,2,,,rl_choice_confirmation,html-keyboard-response,227,290720,0.0-0.0-318.0-0.0,,,,45,,,,,,,,,,,,,,,,,,,,,,31,1.449,,
228,2,,,isi,html-keyboard-response,228,291724,0.0-0.0-320.0,,,,,,,,,,,,,,,,,,,,,,,,,,32,1,,
229,2,,,feedback,html-keyboard-response,229,292729,0.0-0.0-321.0-0.0,,,,45,,,,,,,,,,,,,,,,,,,,,,33,1,,
230,2,,,iti,html-keyboard-response,230,294234,0.0-0.0-322.0,,,,,,,,,,,,,,,,,,,,,,,,,,34.5,1.5,,
231,2,,1262,rl_choice,html-keyboard-response,231,295497,0.0-0.0-324.0,,,51,46,46,2,easy,1000,1000,0,20,80,20,100,D,C,/static/Simple_RL/Stimuli/Fractals_stims/D.jpg,/static/Simple_RL/Stimuli/Fractals_stims/C.jpg,0,80,20,100,20,C,D,35.762,1.262,,
232,2,,,rl_choice_confirmation,html-keyboard-response,232,295738,0.0-0.0-325.0-0.0,,,,46,,,,,,,,,,,,,,,,,,,,,,36,0.238,,
233,2,,,isi,html-keyboard-response,233,296741,0.0-0.0-327.0,,,,,,,,,,,,,,,,,,,,,,,,,,37,1,,
234,2,,,feedback,html-keyboard-response,234,297745,0.0-0.0-328.0-0.0,,,,46,,,,,,,,,,,,,,,,,,,,,,38,1,,
235,2,,,iti,html-keyboard-response,235,298752,0.0-0.0-329.0,,,,,,,,,,,,,,,,,,,,,,,,,,39,1,,
236,2,,297,rl_choice,html-keyboard-response,236,299050,0.0-0.0-331.0,,,51,47,47,2,easy,1000,1000,0,20,80,0,100,D,C,/static/Simple_RL/Stimuli/Fractals_stims/D.jpg,/static/Simple_RL/Stimuli/Fractals_stims/C.jpg,0,80,20,100,0,C,D,39.297,0.297,,
237,2,,,rl_choice_confirmation,html-keyboard-response,237,300256,0.0-0.0-332.0-0.0,,,,47,,,,,,,,,,,,,,,,,,,,,,40.5,1.203,,
238,2,,,isi,html-keyboard-response,238,301259,0.0-0.0-334.0,,,,,,,,,,,,,,,,,,,,,,,,,,41.5,1,,
239,2,,,feedback,html-keyboard-response,239,302264,0.0-0.0-335.0-0.0,,,,47,,,,,,,,,,,,,,,,,,,,,,42.5,1,,
240,2,,,iti,html-keyboard-response,240,303269,0.0-0.0-336.0,,,,,,,,,,,,,,,,,,,,,,,,,,43.5,1,,
241,2,,235,rl_choice,html-keyboard-response,241,303507,0.0-0.0-338.0,,,50,48,48,2,easy,1000,1500,1,80,20,60,40,C,D,/static/Simple_RL/Stimuli/Fractals_stims/C.jpg,/static/Simple_RL/Stimuli/Fractals_stims/D.jpg,1,80,20,60,40,C,D,43.735,0.235,,
242,2,,,rl_choice_confirmation,html-keyboard-response,242,304773,0.0-0.0-339.0-0.0,,,,48,,,,,,,,,,,,,,,,,,,,,,45,1.265,,
243,2,,,isi,html-keyboard-response,243,306277,0.0-0.0-341.0,,,,,,,,,,,,,,,,,,,,,,,,,,46.5,1.5,,
244,2,,,feedback,html-keyboard-response,244,307281,0.0-0.0-342.0-0.0,,,,48,,,,,,,,,,,,,,,,,,,,,,47.5,1,,
245,2,,,iti,html-keyboard-response,245,308287,0.0-0.0-343.0,,,,,,,,,,,,,,,,,,,,,,,,,,48.5,1,,
246,2,,222,rl_choice,html-keyboard-response,246,308510,0.0-0.0-345.0,,,51,49,49,2,hard,3500,1000,1,60,40,80,20,A,B,/static/Simple_RL/Stimuli/Fractals_stims/A.jpg,/static/Simple_RL/Stimuli/Fractals_stims/B.jpg,0,40,60,20,80,B,A,48.722,0.222,,
247,2,,,rl_choice_confirmation,html-keyboard-response,247,309789,0.0-0.0-346.0-0.0,,,,49,,,,,,,,,,,,,,,,,,,,,,50,1.278,,
248,2,,,isi,html-keyboard-response,248,310794,0.0-0.0-348.0,,,,,,,,,,,,,,,,,,,,,,,,,,51,1,,
249,2,,,feedback,html-keyboard-response,249,311797,0.0-0.0-349.0-0.0,,,,49,,,,,,,,,,,,,,,,,,,,,,52,1,,
250,2,,,iti,html-keyboard-response,250,315301,0.0-0.0-350.0,,,,,,,,,,,,,,,,,,,,,,,,,,55.5,3.5,,
251,2,,927,rl_choice,html-keyboard-response,251,316230,0.0-0.0-352.0,,,50,50,50,2,hard,1500,1500,0,40,60,60,40,B,A,/static/Simple_RL/Stimuli/Fractals_stims/B.jpg,/static/Simple_RL/Stimuli/Fractals_stims/A.jpg,1,40,60,60,40,B,A,56.427,0.927,,
252,2,,,rl_choice_confirmation,html-keyboard-response,252,316805,0.0-0.0-353.0-0.0,,,,50,,,,,,,,,,,,,,,,,,,,,,57,0.573,,
253,2,,,isi,html-keyboard-response,253,318309,0.0-0.0-355.0,,,,,,,,,,,,,,,,,,,,,,,,,,58.5,1.5,,
254,2,,,feedback,html-keyboard-response,254,319312,0.0-0.0-356.0-0.0,,,,50,,,,,,,,,,,,,,,,,,,,,,59.5,1,,
255,2,,,iti,html-keyboard-response,255,320816,0.0-0.0-357.0,,,,,,,,,,,,,,,,,,,,,,,,,,61,1.5,,
256,2,,160,rl_choice,html-keyboard-response,256,320977,0.0-0.0-359.0,,,51,51,51,2,hard,1000,1000,1,60,40,80,40,A,B,/static/Simple_RL/Stimuli/Fractals_stims/A.jpg,/static/Simple_RL/Stimuli/Fractals_stims/B.jpg,0,40,60,40,80,B,A,61.16,0.16,,
257,2,,,rl_choice_confirmation,html-keyboard-response,257,322320,0.0-0.0-360.0-0.0,,,,51,,,,,,,,,,,,,,,,,,,,,,62.5,1.34,,
258,2,,,isi,html-keyboard-response,258,323323,0.0-0.0-362.0,,,,,,,,,,,,,,,,,,,,,,,,,,63.5,1,,
259,2,,,feedback,html-keyboard-response,259,324327,0.0-0.0-363.0-0.0,,,,51,,,,,,,,,,,,,,,,,,,,,,64.5,1,,
260,2,,,iti,html-keyboard-response,260,325328,0.0-0.0-364.0,,,,,,,,,,,,,,,,,,,,,,,,,,65.5,1,,
261,2,,784,rl_choice,html-keyboard-response,261,326114,0.0-0.0-366.0,,,51,52,52,2,easy,1500,2000,1,80,20,80,40,C,D,/static/Simple_RL/Stimuli/Fractals_stims/C.jpg,/static/Simple_RL/Stimuli/Fractals_stims/D.jpg,0,20,80,40,80,D,C,66.284,0.784,,
262,2,,,rl_choice_confirmation,html-keyboard-response,262,326832,0.0-0.0-367.0-0.0,,,,52,,,,,,,,,,,,,,,,,,,,,,67,0.716,,
263,2,,,isi,html-keyboard-response,263,328838,0.0-0.0-369.0,,,,,,,,,,,,,,,,,,,,,,,,,,69,2,,
264,2,,,feedback,html-keyboard-response,264,329841,0.0-0.0-370.0-0.0,,,,52,,,,,,,,,,,,,,,,,,,,,,70,1,,
265,2,,,iti,html-keyboard-response,265,331344,0.0-0.0-371.0,,,,,,,,,,,,,,,,,,,,,,,,,,71.5,1.5,,
266,2,,210,rl_choice,html-keyboard-response,266,331556,0.0-0.0-373.0,,,51,53,53,2,easy,2000,1500,0,20,80,20,60,D,C,/static/Simple_RL/Stimuli/Fractals_stims/D.jpg,/static/Simple_RL/Stimuli/Fractals_stims/C.jpg,0,80,20,60,20,C,D,71.71,0.21,,
267,2,,,rl_choice_confirmation,html-keyboard-response,267,332848,0.0-0.0-374.0-0.0,,,,53,,,,,,,,,,,,,,,,,,,,,,73,1.29,,
268,2,,,isi,html-keyboard-response,268,334352,0.0-0.0-376.0,,,,,,,,,,,,,,,,,,,,,,,,,,74.5,1.5,,
269,2,,,feedback,html-keyboard-response,269,335355,0.0-0.0-377.0-0.0,,,,53,,,,,,,,,,,,,,,,,,,,,,75.5,1,,
270,2,,,iti,html-keyboard-response,270,337361,0.0-0.0-378.0,,,,,,,,,,,,,,,,,,,,,,,,,,77.5,2,,
271,2,,403,rl_choice,html-keyboard-response,271,337766,0.0-0.0-380.0,,,51,54,54,2,hard,1000,1000,1,60,40,60,20,A,B,/static/Simple_RL/Stimuli/Fractals_stims/A.jpg,/static/Simple_RL/Stimuli/Fractals_stims/B.jpg,0,40,60,20,60,B,A,77.903,0.403,,
272,2,,,rl_choice_confirmation,html-keyboard-response,272,338865,0.0-0.0-381.0-0.0,,,,54,,,,,,,,,,,,,,,,,,,,,,79,1.097,,
273,2,,,isi,html-keyboard-response,273,339867,0.0-0.0-383.0,,,,,,,,,,,,,,,,,,,,,,,,,,80,1,,
274,2,,,feedback,html-keyboard-response,274,340870,0.0-0.0-384.0-0.0,,,,54,,,,,,,,,,,,,,,,,,,,,,81,1,,
275,2,,,iti,html-keyboard-response,275,341873,0.0-0.0-385.0,,,,,,,,,,,,,,,,,,,,,,,,,,82,1,,
276,2,,234,rl_choice,html-keyboard-response,276,342109,0.0-0.0-387.0,,,51,55,55,2,hard,2000,1000,1,60,40,80,60,A,B,/static/Simple_RL/Stimuli/Fractals_stims/A.jpg,/static/Simple_RL/Stimuli/Fractals_stims/B.jpg,0,40,60,60,80,B,A,82.234,0.234,,
277,2,,,rl_choice_confirmation,html-keyboard-response,277,343377,0.0-0.0-388.0-0.0,,,,55,,,,,,,,,,,,,,,,,,,,,,83.5,1.266,,
278,2,,,isi,html-keyboard-response,278,344379,0.0-0.0-390.0,,,,,,,,,,,,,,,,,,,,,,,,,,84.5,1,,
279,2,,,feedback,html-keyboard-response,279,345382,0.0-0.0-391.0-0.0,,,,55,,,,,,,,,,,,,,,,,,,,,,85.5,1,,
280,2,,,iti,html-keyboard-response,280,347388,0.0-0.0-392.0,,,,,,,,,,,,,,,,,,,,,,,,,,87.5,2,,
281,2,,352,rl_choice,html-keyboard-response,281,347741,0.0-0.0-394.0,,,51,56,56,2,hard,2000,1000,1,60,40,80,40,A,B,/static/Simple_RL/Stimuli/Fractals_stims/A.jpg,/static/Simple_RL/Stimuli/Fractals_stims/B.jpg,0,40,60,40,80,B,A,87.852,0.352,,
282,2,,,rl_choice_confirmation,html-keyboard-response,282,348895,0.0-0.0-395.0-0.0,,,,56,,,,,,,,,,,,,,,,,,,,,,89,1.148,,
283,2,,,isi,html-keyboard-response,283,349899,0.0-0.0-397.0,,,,,,,,,,,,,,,,,,,,,,,,,,90,1,,
284,2,,,feedback,html-keyboard-response,284,350902,0.0-0.0-398.0-0.0,,,,56,,,,,,,,,,,,,,,,,,,,,,91,1,,
285,2,,,iti,html-keyboard-response,285,352908,0.0-0.0-399.0,,,,,,,,,,,,,,,,,,,,,,,,,,93,2,,
286,2,,663,rl_choice,html-keyboard-response,286,353573,0.0-0.0-401.0,,,51,57,57,2,hard,1000,2000,1,60,40,60,40,A,B,/static/Simple_RL/Stimuli/Fractals_stims/A.jpg,/static/Simple_RL/Stimuli/Fractals_stims/B.jpg,0,40,60,40,60,B,A,93.663,0.663,,
287,2,,,rl_choice_confirmation,html-keyboard-response,287,354412,0.0-0.0-402.0-0.0,,,,57,,,,,,,,,,,,,,,,,,,,,,94.5,0.837,,
288,2,,,isi,html-keyboard-response,288,356417,0.0-0.0-404.0,,,,,,,,,,,,,,,,,,,,,,,,,,96.5,2,,
289,2,,,feedback,html-keyboard-response,289,357420,0.0-0.0-405.0-0.0,,,,57,,,,,,,,,,,,,,,,,,,,,,97.5,1,,
290,2,,,iti,html-keyboard-response,290,358422,0.0-0.0-406.0,,,,,,,,,,,,,,,,,,,,,,,,,,98.5,1,,
291,2,,472,rl_choice,html-keyboard-response,291,358895,0.0-0.0-408.0,,,50,58,58,2,easy,1500,3500,1,80,20,80,0,C,D,/static/Simple_RL/Stimuli/Fractals_stims/C.jpg,/static/Simple_RL/Stimuli/Fractals_stims/D.jpg,1,80,20,80,0,C,D,98.972,0.472,,
292,2,,,rl_choice_confirmation,html-keyboard-response,292,359927,0.0-0.0-409.0-0.0,,,,58,,,,,,,,,,,,,,,,,,,,,,100,1.028,,
293,2,,,isi,html-keyboard-response,293,363432,0.0-0.0-411.0,,,,,,,,,,,,,,,,,,,,,,,,,,103.5,3.5,,
294,2,,,feedback,html-keyboard-response,294,364439,0.0-0.0-412.0-0.0,,,,58,,,,,,,,,,,,,,,,,,,,,,104.5,1,,
295,2,,,iti,html-keyboard-response,295,365942,0.0-0.0-413.0,,,,,,,,,,,,,,,,,,,,,,,,,,106,1.5,,
296,2,,,rl_choice,html-keyboard-response,296,367447,0.0-0.0-415.0,,,,59,59,2,hard,1000,2000,1,60,40,80,40,A,B,/static/Simple_RL/Stimuli/Fractals_stims/A.jpg,/static/Simple_RL/Stimuli/Fractals_stims/B.jpg,,,,,,,,107.5,1.5,,
297,2,,,rl_choice_warning,html-keyboard-response,297,368449,0.0-0.0-417.0-0.0,,,,,,,,,,,,,,,,,,,,,,,,,,108.5,1,1,
298,2,,,isi,html-keyboard-response,298,370455,0.0-0.0-418.0,,,,,,,,,,,,,,,,,,,,,,,,,,110.5,2,,
299,2,,,iti,html-keyboard-response,299,371457,0.0-0.0-420.0,,,,,,,,,,,,,,,,,,,,,,,,,,111.5,1,,
300,2,,324,rl_choice,html-keyboard-response,300,371783,0.0-0.0-422.0,,,51,60,60,2,easy,2000,1500,1,80,20,80,20,C,D,/static/Simple_RL/Stimuli/Fractals_stims/C.jpg,/static/Simple_RL/Stimuli/Fractals_stims/D.jpg,0,20,80,20,80,D,C,111.824,0.324,,
301,2,,,rl_choice_confirmation,html-keyboard-response,301,372961,0.0-0.0-423.0-0.0,,,,60,,,,,,,,,,,,,,,,,,,,,,113,1.176,,
302,2,,,isi,html-keyboard-response,302,374467,0.0-0.0-425.0,,,,,,,,,,,,,,,,,,,,,,,,,,114.5,1.5,,
303,2,,,feedback,html-keyboard-response,303,375473,0.0-0.0-426.0-0.0,,,,60,,,,,,,,,,,,,,,,,,,,,,115.5,1,,
304,2,,,iti,html-keyboard-response,304,377479,0.0-0.0-427.0,,,,,,,,,,,,,,,,,,,,,,,,,,117.5,2,,
305,2,,394,rl_choice,html-keyboard-response,305,377875,0.0-0.0-429.0,,,51,61,61,2,hard,3000,3500,0,40,60,40,60,B,A,/static/Simple_RL/Stimuli/Fractals_stims/B.jpg,/static/Simple_RL/Stimuli/Fractals_stims/A.jpg,0,60,40,60,40,A,B,117.894,0.394,,
306,2,,,rl_choice_confirmation,html-keyboard-response,306,378983,0.0-0.0-430.0-0.0,,,,61,,,,,,,,,,,,,,,,,,,,,,119,1.106,,
307,2,,,isi,html-keyboard-response,307,382487,0.0-0.0-432.0,,,,,,,,,,,,,,,,,,,,,,,,,,122.5,3.5,,
308,2,,,feedback,html-keyboard-response,308,383490,0.0-0.0-433.0-0.0,,,,61,,,,,,,,,,,,,,,,,,,,,,123.5,1,,
309,2,,,iti,html-keyboard-response,309,386496,0.0-0.0-434.0,,,,,,,,,,,,,,,,,,,,,,,,,,126.5,3,,
310,2,,509,rl_choice,html-keyboard-response,310,387006,0.0-0.0-436.0,,,50,62,62,2,easy,3000,3000,0,20,80,20,80,D,C,/static/Simple_RL/Stimuli/Fractals_stims/D.jpg,/static/Simple_RL/Stimuli/Fractals_stims/C.jpg,1,20,80,20,80,D,C,127.009,0.509,,
311,2,,,rl_choice_confirmation,html-keyboard-response,311,388002,0.0-0.0-437.0-0.0,,,,62,,,,,,,,,,,,,,,,,,,,,,128,0.991,,
312,2,,,isi,html-keyboard-response,312,391004,0.0-0.0-439.0,,,,,,,,,,,,,,,,,,,,,,,,,,131,3,,
313,2,,,feedback,html-keyboard-response,313,392007,0.0-0.0-440.0-0.0,,,,62,,,,,,,,,,,,,,,,,,,,,,132,1,,
314,2,,,iti,html-keyboard-response,314,395010,0.0-0.0-441.0,,,,,,,,,,,,,,,,,,,,,,,,,,135,3,,
315,2,,114,rl_choice,html-keyboard-response,315,395125,0.0-0.0-443.0,,,51,63,63,2,easy,1500,1000,1,80,20,100,0,C,D,/static/Simple_RL/Stimuli/Fractals_stims/C.jpg,/static/Simple_RL/Stimuli/Fractals_stims/D.jpg,0,20,80,0,100,D,C,135.114,0.114,,
316,2,,,rl_choice_confirmation,html-keyboard-response,316,396514,0.0-0.0-444.0-0.0,,,,63,,,,,,,,,,,,,,,,,,,,,,136.5,1.386,,
317,2,,,isi,html-keyboard-response,317,397516,0.0-0.0-446.0,,,,,,,,,,,,,,,,,,,,,,,,,,137.5,1,,
318,2,,,feedback,html-keyboard-response,318,398519,0.0-0.0-447.0-0.0,,,,63,,,,,,,,,,,,,,,,,,,,,,138.5,1,,
319,2,,,iti,html-keyboard-response,319,400023,0.0-0.0-448.0,,,,,,,,,,,,,,,,,,,,,,,,,,140,1.5,,
320,2,,84,rl_choice,html-keyboard-response,320,400109,0.0-0.0-450.0,,,51,64,64,2,hard,1000,2000,0,40,60,20,60,B,A,/static/Simple_RL/Stimuli/Fractals_stims/B.jpg,/static/Simple_RL/Stimuli/Fractals_stims/A.jpg,0,60,40,60,20,A,B,140.084,0.084,,
321,2,,,rl_choice_confirmation,html-keyboard-response,321,401527,0.0-0.0-451.0-0.0,,,,64,,,,,,,,,,,,,,,,,,,,,,141.5,1.416,,
322,2,,,isi,html-keyboard-response,322,403532,0.0-0.0-453.0,,,,,,,,,,,,,,,,,,,,,,,,,,143.5,2,,
323,2,,,feedback,html-keyboard-response,323,404537,0.0-0.0-454.0-0.0,,,,64,,,,,,,,,,,,,,,,,,,,,,144.5,1,,
324,2,,,iti,html-keyboard-response,324,405543,0.0-0.0-455.0,,,,,,,,,,,,,,,,,,,,,,,,,,145.5,1,,
325,2,,442,rl_choice,html-keyboard-response,325,405987,0.0-0.0-457.0,,,50,65,65,2,easy,1000,2000,0,20,80,0,80,D,C,/static/Simple_RL/Stimuli/Fractals_stims/D.jpg,/static/Simple_RL/Stimuli/Fractals_stims/C.jpg,1,20,80,0,80,D,C,145.942,0.442,,
326,2,,,rl_choice_confirmation,html-keyboard-response,326,407051,0.0-0.0-458.0-0.0,,,,65,,,,,,,,,,,,,,,,,,,,,,147,1.058,,
327,2,,,isi,html-keyboard-response,327,409053,0.0-0.0-460.0,,,,,,,,,,,,,,,,,,,,,,,,,,149,2,,
328,2,,,feedback,html-keyboard-response,328,410059,0.0-0.0-461.0-0.0,,,,65,,,,,,,,,,,,,,,,,,,,,,150,1,,
329,2,,,iti,html-keyboard-response,329,411064,0.0-0.0-462.0,,,,,,,,,,,,,,,,,,,,,,,,,,151,1,,
330,2,,361,rl_choice,html-keyboard-response,330,411427,0.0-0.0-464.0,,,51,66,66,2,easy,1000,1500,1,80,20,60,20,C,D,/static/Simple_RL/Stimuli/Fractals_stims/C.jpg,/static/Simple_RL/Stimuli/Fractals_stims/D.jpg,0,20,80,20,60,D,C,151.361,0.361,,
331,2,,,rl_choice_confirmation,html-keyboard-response,331,412567,0.0-0.0-465.0-0.0,,,,66,,,,,,,,,,,,,,,,,,,,,,152.5,1.139,,
332,2,,,isi,html-keyboard-response,332,414071,0.0-0.0-467.0,,,,,,,,,,,,,,,,,,,,,,,,,,154,1.5,,
333,2,,,feedback,html-keyboard-response,333,415075,0.0-0.0-468.0-0.0,,,,66,,,,,,,,,,,,,,,,,,,,,,155,1,,
334,2,,,iti,html-keyboard-response,334,416077,0.0-0.0-469.0,,,,,,,,,,,,,,,,,,,,,,,,,,156,1,,
335,2,,817,rl_choice,html-keyboard-response,335,416896,0.0-0.0-471.0,,,50,67,67,2,easy,2000,2000,0,20,80,0,100,D,C,/static/Simple_RL/Stimuli/Fractals_stims/D.jpg,/static/Simple_RL/Stimuli/Fractals_stims/C.jpg,1,20,80,0,100,D,C,156.817,0.817,,
336,2,,,rl_choice_confirmation,html-keyboard-response,336,417581,0.0-0.0-472.0-0.0,,,,67,,,,,,,,,,,,,,,,,,,,,,157.5,0.683,,
337,2,,,isi,html-keyboard-response,337,419587,0.0-0.0-474.0,,,,,,,,,,,,,,,,,,,,,,,,,,159.5,2,,
338,2,,,feedback,html-keyboard-response,338,420590,0.0-0.0-475.0-0.0,,,,67,,,,,,,,,,,,,,,,,,,,,,160.5,1,,
339,2,,,iti,html-keyboard-response,339,422595,0.0-0.0-476.0,,,,,,,,,,,,,,,,,,,,,,,,,,162.5,2,,
340,2,,423,rl_choice,html-keyboard-response,340,423020,0.0-0.0-478.0,,,51,68,68,2,easy,1000,2000,0,20,80,0,100,D,C,/static/Simple_RL/Stimuli/Fractals_stims/D.jpg,/static/Simple_RL/Stimuli/Fractals_stims/C.jpg,0,80,20,100,0,C,D,162.923,0.423,,
341,2,,,rl_choice_confirmation,html-keyboard-response,341,424098,0.0-0.0-479.0-0.0,,,,68,,,,,,,,,,,,,,,,,,,,,,164,1.077,,
342,2,,,isi,html-keyboard-response,342,426104,0.0-0.0-481.0,,,,,,,,,,,,,,,,,,,,,,,,,,166,2,,
343,2,,,feedback,html-keyboard-response,343,427110,0.0-0.0-482.0-0.0,,,,68,,,,,,,,,,,,,,,,,,,,,,167,1,,
344,2,,,iti,html-keyboard-response,344,428115,0.0-0.0-483.0,,,,,,,,,,,,,,,,,,,,,,,,,,168,1,,
345,2,,,rl_choice,html-keyboard-response,345,429619,0.0-0.0-485.0,,,,69,69,2,hard,1500,3000,0,40,60,60,80,B,A,/static/Simple_RL/Stimuli/Fractals_stims/B.jpg,/static/Simple_RL/Stimuli/Fractals_stims/A.jpg,,,,,,,,169.5,1.5,,
346,2,,,rl_choice_warning,html-keyboard-response,346,430621,0.0-0.0-487.0-0.0,,,,,,,,,,,,,,,,,,,,,,,,,,170.5,1,1,
347,2,,,isi,html-keyboard-response,347,433624,0.0-0.0-488.0,,,,,,,,,,,,,,,,,,,,,,,,,,173.5,3,,
348,2,,,iti,html-keyboard-response,348,435128,0.0-0.0-490.0,,,,,,,,,,,,,,,,,,,,,,,,,,175,1.5,,
349,2,,,rl_choice,html-keyboard-response,349,436633,0.0-0.0-492.0,,,,70,70,2,hard,1000,1500,0,40,60,20,80,B,A,/static/Simple_RL/Stimuli/Fractals_stims/B.jpg,/static/Simple_RL/Stimuli/Fractals_stims/A.jpg,,,,,,,,176.5,1.5,,
350,2,,,rl_choice_warning,html-keyboard-response,350,437635,0.0-0.0-494.0-0.0,,,,,,,,,,,,,,,,,,,,,,,,,,177.5,1,1,
351,2,,,isi,html-keyboard-response,351,439139,0.0-0.0-495.0,,,,,,,,,,,,,,,,,,,,,,,,,,179,1.5,,
352,2,,,iti,html-keyboard-response,352,440141,0.0-0.0-497.0,,,,,,,,,,,,,,,,,,,,,,,,,,180,1,,
353,2,,,rl_choice,html-keyboard-response,353,441647,0.0-0.0-499.0,,,,71,71,2,easy,1500,1000,0,20,80,40,80,D,C,/static/Simple_RL/Stimuli/Fractals_stims/D.jpg,/static/Simple_RL/Stimuli/Fractals_stims/C.jpg,,,,,,,,181.5,1.5,,
354,2,,,rl_choice_warning,html-keyboard-response,354,442653,0.0-0.0-501.0-0.0,,,,,,,,,,,,,,,,,,,,,,,,,,182.5,1,1,
355,2,,,isi,html-keyboard-response,355,443660,0.0-0.0-502.0,,,,,,,,,,,,,,,,,,,,,,,,,,183.5,1,,
356,2,,,iti,html-keyboard-response,356,445166,0.0-0.0-504.0,,,,,,,,,,,,,,,,,,,,,,,,,,185,1.5,,
357,2,,149,rl_choice,html-keyboard-response,357,445316,0.0-0.0-506.0,,,51,72,72,2,hard,1000,1000,0,40,60,40,40,B,A,/static/Simple_RL/Stimuli/Fractals_stims/B.jpg,/static/Simple_RL/Stimuli/Fractals_stims/A.jpg,0,60,40,40,40,A,B,185.149,0.149,,
358,2,,,rl_choice_confirmation,html-keyboard-response,358,446670,0.0-0.0-507.0-0.0,,,,72,,,,,,,,,,,,,,,,,,,,,,186.5,1.351,,
359,2,,,isi,html-keyboard-response,359,447676,0.0-0.0-509.0,,,,,,,,,,,,,,,,,,,,,,,,,,187.5,1,,
360,2,,,feedback,html-keyboard-response,360,448680,0.0-0.0-510.0-0.0,,,,72,,,,,,,,,,,,,,,,,,,,,,188.5,1,,
361,2,,,iti,html-keyboard-response,361,449684,0.0-0.0-511.0,,,,,,,,,,,,,,,,,,,,,,,,,,189.5,1,,
362,2,,527,rl_choice,html-keyboard-response,362,450212,0.0-0.0-513.0,,,50,73,73,2,hard,1000,1000,0,40,60,20,40,B,A,/static/Simple_RL/Stimuli/Fractals_stims/B.jpg,/static/Simple_RL/Stimuli/Fractals_stims/A.jpg,1,40,60,20,40,B,A,190.027,0.527,,
363,2,,,rl_choice_confirmation,html-keyboard-response,363,451188,0.0-0.0-514.0-0.0,,,,73,,,,,,,,,,,,,,,,,,,,,,191,0.973,,
364,2,,,isi,html-keyboard-response,364,452190,0.0-0.0-516.0,,,,,,,,,,,,,,,,,,,,,,,,,,192,1,,
365,2,,,feedback,html-keyboard-response,365,453193,0.0-0.0-517.0-0.0,,,,73,,,,,,,,,,,,,,,,,,,,,,193,1,,
366,2,,,iti,html-keyboard-response,366,454195,0.0-0.0-518.0,,,,,,,,,,,,,,,,,,,,,,,,,,194,1,,
367,2,,1402,rl_choice,html-keyboard-response,367,455599,0.0-0.0-520.0,,,51,74,74,2,hard,1500,2000,0,40,60,60,60,B,A,/static/Simple_RL/Stimuli/Fractals_stims/B.jpg,/static/Simple_RL/Stimuli/Fractals_stims/A.jpg,0,60,40,60,60,A,B,195.402,1.402,,
368,2,,,rl_choice_confirmation,html-keyboard-response,368,455700,0.0-0.0-521.0-0.0,,,,74,,,,,,,,,,,,,,,,,,,,,,195.5,0.098,,
369,2,,,isi,html-keyboard-response,369,457704,0.0-0.0-523.0,,,,,,,,,,,,,,,,,,,,,,,,,,197.5,2,,
370,2,,,feedback,html-keyboard-response,370,458707,0.0-0.0-524.0-0.0,,,,74,,,,,,,,,,,,,,,,,,,,,,198.5,1,,
371,2,,,iti,html-keyboard-response,371,460211,0.0-0.0-525.0,,,,,,,,,,,,,,,,,,,,,,,,,,200,1.5,,
372,2,,784,rl_choice,html-keyboard-response,372,460996,0.0-0.0-527.0,,,51,75,75,2,easy,2000,1000,0,20,80,0,60,D,C,/static/Simple_RL/Stimuli/Fractals_stims/D.jpg,/static/Simple_RL/Stimuli/Fractals_stims/C.jpg,0,80,20,60,0,C,D,200.784,0.784,,
373,2,,,rl_choice_confirmation,html-keyboard-response,373,461715,0.0-0.0-528.0-0.0,,,,75,,,,,,,,,,,,,,,,,,,,,,201.5,0.716,,
374,2,,,isi,html-keyboard-response,374,462718,0.0-0.0-530.0,,,,,,,,,,,,,,,,,,,,,,,,,,202.5,1,,
375,2,,,feedback,html-keyboard-response,375,463720,0.0-0.0-531.0-0.0,,,,75,,,,,,,,,,,,,,,,,,,,,,203.5,1,,
376,2,,,iti,html-keyboard-response,376,465726,0.0-0.0-532.0,,,,,,,,,,,,,,,,,,,,,,,,,,205.5,2,,
377,2,,62,rl_choice,html-keyboard-response,377,465790,0.0-0.0-534.0,,,51,76,76,2,easy,3500,3000,0,20,80,0,80,D,C,/static/Simple_RL/Stimuli/Fractals_stims/D.jpg,/static/Simple_RL/Stimuli/Fractals_stims/C.jpg,0,80,20,80,0,C,D,205.562,0.062,,
378,2,,,rl_choice_confirmation,html-keyboard-response,378,467230,0.0-0.0-535.0-0.0,,,,76,,,,,,,,,,,,,,,,,,,,,,207,1.438,,
379,2,,,isi,html-keyboard-response,379,470233,0.0-0.0-537.0,,,,,,,,,,,,,,,,,,,,,,,,,,210,3,,
380,2,,,feedback,html-keyboard-response,380,471236,0.0-0.0-538.0-0.0,,,,76,,,,,,,,,,,,,,,,,,,,,,211,1,,
381,2,,,iti,html-keyboard-response,381,474739,0.0-0.0-539.0,,,,,,,,,,,,,,,,,,,,,,,,,,214.5,3.5,,
382,2,,953,rl_choice,html-keyboard-response,382,475695,0.0-0.0-541.0,,,51,77,77,2,easy,1000,1000,1,80,20,100,40,C,D,/static/Simple_RL/Stimuli/Fractals_stims/C.jpg,/static/Simple_RL/Stimuli/Fractals_stims/D.jpg,0,20,80,40,100,D,C,215.453,0.953,,
383,2,,,rl_choice_confirmation,html-keyboard-response,383,476243,0.0-0.0-542.0-0.0,,,,77,,,,,,,,,,,,,,,,,,,,,,216,0.547,,
384,2,,,isi,html-keyboard-response,384,477246,0.0-0.0-544.0,,,,,,,,,,,,,,,,,,,,,,,,,,217,1,,
385,2,,,feedback,html-keyboard-response,385,478252,0.0-0.0-545.0-0.0,,,,77,,,,,,,,,,,,,,,,,,,,,,218,1,,
386,2,,,iti,html-keyboard-response,386,479257,0.0-0.0-546.0,,,,,,,,,,,,,,,,,,,,,,,,,,219,1,,
387,2,,809,rl_choice,html-keyboard-response,387,480068,0.0-0.0-548.0,,,50,78,78,2,hard,2000,1500,1,60,40,40,60,A,B,/static/Simple_RL/Stimuli/Fractals_stims/A.jpg,/static/Simple_RL/Stimuli/Fractals_stims/B.jpg,1,60,40,40,60,A,B,219.809,0.809,,
388,2,,,rl_choice_confirmation,html-keyboard-response,388,480762,0.0-0.0-549.0-0.0,,,,78,,,,,,,,,,,,,,,,,,,,,,220.5,0.691,,
389,2,,,isi,html-keyboard-response,389,482265,0.0-0.0-551.0,,,,,,,,,,,,,,,,,,,,,,,,,,222,1.5,,
390,2,,,feedback,html-keyboard-response,390,483268,0.0-0.0-552.0-0.0,,,,78,,,,,,,,,,,,,,,,,,,,,,223,1,,
391,2,,,iti,html-keyboard-response,391,485273,0.0-0.0-553.0,,,,,,,,,,,,,,,,,,,,,,,,,,225,2,,
392,2,,201,rl_choice,html-keyboard-response,392,485475,0.0-0.0-555.0,,,50,79,79,2,hard,1500,3000,0,40,60,60,80,B,A,/static/Simple_RL/Stimuli/Fractals_stims/B.jpg,/static/Simple_RL/Stimuli/Fractals_stims/A.jpg,1,40,60,60,80,B,A,225.201,0.201,,
393,2,,,rl_choice_confirmation,html-keyboard-response,393,486777,0.0-0.0-556.0-0.0,,,,79,,,,,,,,,,,,,,,,,,,,,,226.5,1.299,,
394,2,,,isi,html-keyboard-response,394,489780,0.0-0.0-558.0,,,,,,,,,,,,,,,,,,,,,,,,,,229.5,3,,
395,2,,,feedback,html-keyboard-response,395,490783,0.0-0.0-559.0-0.0,,,,79,,,,,,,,,,,,,,,,,,,,,,230.5,1,,
396,2,,,iti,html-keyboard-response,396,492286,0.0-0.0-560.0,,,,,,,,,,,,,,,,,,,,,,,,,,232,1.5,,1.74
397,2,,1847,final_tally,html-keyboard-response,397,494135,0.0-1.0,,,50,,,,,,,,,,,,,,,,,,,,,,,,,,