,success,ttype,start_time,trial_type,trial_index,time_elapsed,internal_node_id,warning,missed_checkup,PID,view_history,rt,responses,repeat_instructions,key_press,index,trial_num,block,iti,pair_type,high_size_on_left,left_size_group,right_size_group,left_size_num,right_size_num,left_category,right_category,left_exemplar,right_exemplar,left_index,right_index,left_img_path,right_img_path,accuracy,no_resposne,onset,duration,left_chosen,chosen_category,unchosen_category,chosen_size_group,unchosen_size_group,chosen_size_num,unchosen_size_num,chosen_exemplar,unchosen_exemplar,no_response,size_final_tally
0,True,full_screen,d05272022hr1611,fullscreen,0,57109,0.0-0.0,0,0,1,,,,,,,,,,,,,,,,,,,,,,,,,,,,,,,,,,,,,,
1,,size_instructions,,instructions,1,62027,0.0-1.0-0.0-0.0,0,0,1,"[{""page_index"":0,""viewing_time"":2149},{""page_index"":1,""viewing_time"":254},{""page_index"":2,""viewing_time"":218},{""page_index"":3,""viewing_time"":261},{""page_index"":4,""viewing_time"":662},{""page_index"":5,""viewing_time"":1372}]",4916.0,,,,,,,,,,,,,,,,,,,,,,,,,,,,,,,,,,,,
2,,size_comprehension_check,,survey-multi-choice,2,68820,0.0-1.0-0.0-1.0,0,0,1,,6788.0,"{""Q0"":""True"",""Q1"":""Size in the real world"",""Q2"":""True"",""Q3"":""D for left and K for right""}",0.0,,,,,,,,,,,,,,,,,,,,,,,,,,,,,,,,,,
3,,,,html-keyboard-response,3,70619,0.0-1.0-1.0,0,0,1,,1796.0,,,68.0,,,,,,,,,,,,,,,,,,,,,,,,,,,,,,,,,
4,,size_choice,,html-keyboard-response,4,72125,0.0-1.0-2.0,0,0,1,,,,,,0.0,0.0,1.0,1500.0,S-M,1.0,M,S,2.0,1.0,hairdryer,paperclip,hairdryer8,paperclip1,77.0,110.0,/static/Size_judgement/Stimuli/Size_stims/M/hairdryer/hairdryer1.jpg,/static/Size_judgement/Stimuli/Size_stims/S/paperclip/paperclip9.jpg,,1.0,1.5,1.5,,,,,,,,,,,
5,,iti,,html-keyboard-response,5,72631,0.0-1.0-4.0,0,0,1,,,,,,,,,,,,,,,,,,,,,,,,,,2.0,0.5,,,,,,,,,,,
6,,size_choice,,html-keyboard-response,6,73186,0.0-1.0-6.0,0,0,1,,554.0,,,68.0,1.0,1.0,1.0,1000.0,S-XL,0.0,S,XL,1.0,4.0,die,van,die5,van5,104.0,194.0,/static/Size_judgement/Stimuli/Size_stims/S/die/die3.jpg,/static/Size_judgement/Stimuli/Size_stims/XL/van/van3.jpg,0.0,,2.5540000000000003,0.554,1.0,die,van,S,XL,1.0,4.0,die5,van5,0.0,
7,,size_choice_confirmation,,html-keyboard-response,7,74134,0.0-1.0-7.0-0.0,0,0,1,,,,,,1.0,,,,,,,,,,,,,,,,,,,,3.5,0.946,,,,,,,,,,,
8,,iti,,html-keyboard-response,8,75135,0.0-1.0-8.0,0,0,1,,,,,,,,,,,,,,,,,,,,,,,,,,4.5,1.0,,,,,,,,,,,
9,,size_choice,,html-keyboard-response,9,76012,0.0-1.0-10.0,0,0,1,,875.0,,,68.0,2.0,2.0,1.0,1000.0,S-L,1.0,L,S,3.0,1.0,dishwasher,thread,dishwasher8,thread1,27.0,140.0,/static/Size_judgement/Stimuli/Size_stims/L/dishwasher/dishwasher3.jpg,/static/Size_judgement/Stimuli/Size_stims/S/thread/thread7.jpg,1.0,,5.375,0.875,1.0,dishwasher,thread,L,S,3.0,1.0,dishwasher8,thread1,0.0,
10,,size_choice_confirmation,,html-keyboard-response,10,76642,0.0-1.0-11.0-0.0,0,0,1,,,,,,2.0,,,,,,,,,,,,,,,,,,,,6.0,0.625,,,,,,,,,,,
11,,iti,,html-keyboard-response,11,77647,0.0-1.0-12.0,0,0,1,,,,,,,,,,,,,,,,,,,,,,,,,,7.0,1.0,,,,,,,,,,,
12,,size_choice,,html-keyboard-response,12,78634,0.0-1.0-14.0,0,0,1,,986.0,,,68.0,3.0,3.0,1.0,1500.0,M-XL,1.0,XL,M,4.0,2.0,van,basketball,van4,basketball9,193.0,58.0,/static/Size_judgement/Stimuli/Size_stims/XL/van/van7.jpg,/static/Size_judgement/Stimuli/Size_stims/M/basketball/basketball5.jpg,1.0,,7.986,0.986,1.0,van,basketball,XL,M,4.0,2.0,van4,basketball9,0.0,
13,,size_choice_confirmation,,html-keyboard-response,13,79152,0.0-1.0-15.0-0.0,0,0,1,,,,,,3.0,,,,,,,,,,,,,,,,,,,,8.5,0.514,,,,,,,,,,,
14,,iti,,html-keyboard-response,14,80658,0.0-1.0-16.0,0,0,1,,,,,,,,,,,,,,,,,,,,,,,,,,10.0,1.5,,,,,,,,,,,
15,,size_choice,,html-keyboard-response,15,81675,0.0-1.0-18.0,0,0,1,,1015.0,,,68.0,4.0,4.0,1.0,1500.0,M-XL,1.0,XL,M,4.0,2.0,crane,handsaw,crane4,handsaw4,163.0,83.0,/static/Size_judgement/Stimuli/Size_stims/XL/crane/crane5.jpg,/static/Size_judgement/Stimuli/Size_stims/M/handsaw/handsaw3.jpg,1.0,,11.015,1.015,1.0,crane,handsaw,XL,M,4.0,2.0,crane4,handsaw4,0.0,
16,,size_choice_confirmation,,html-keyboard-response,16,82162,0.0-1.0-19.0-0.0,0,0,1,,,,,,4.0,,,,,,,,,,,,,,,,,,,,11.5,0.485,,,,,,,,,,,
17,,iti,,html-keyboard-response,17,83666,0.0-1.0-20.0,0,0,1,,,,,,,,,,,,,,,,,,,,,,,,,,13.0,1.5,,,,,,,,,,,
18,,size_choice,,html-keyboard-response,18,85172,0.0-1.0-22.0,0,0,1,,,,,,5.0,5.0,1.0,1000.0,M-L,1.0,L,M,3.0,2.0,deskchair,handsaw,deskchair9,handsaw9,18.0,88.0,/static/Size_judgement/Stimuli/Size_stims/L/deskchair/deskchair3.jpg,/static/Size_judgement/Stimuli/Size_stims/M/handsaw/handsaw6.jpg,,1.0,14.5,1.5,,,,,,,,,,,
19,,iti,,html-keyboard-response,19,85175,0.0-1.0-24.0,0,0,1,,,,,,,,,,,,,,,,,,,,,,,,,,14.5,0.0,,,,,,,,,,,
20,,size_choice,,html-keyboard-response,20,86259,0.0-1.0-26.0,0,0,1,,1082.0,,,75.0,6.0,6.0,1.0,1500.0,M-L,0.0,M,L,2.0,3.0,coffeemaker,mailbox,coffeemaker7,mailbox7,66.0,46.0,/static/Size_judgement/Stimuli/Size_stims/M/coffeemaker/coffeemaker9.jpg,/static/Size_judgement/Stimuli/Size_stims/L/mailbox/mailbox7.jpg,1.0,,15.582,1.082,0.0,mailbox,coffeemaker,L,M,3.0,2.0,mailbox7,coffeemaker7,0.0,
21,,size_choice_confirmation,,html-keyboard-response,21,86679,0.0-1.0-27.0-0.0,0,0,1,,,,,,6.0,,,,,,,,,,,,,,,,,,,,16.0,0.418,,,,,,,,,,,
22,,iti,,html-keyboard-response,22,88184,0.0-1.0-28.0,0,0,1,,,,,,,,,,,,,,,,,,,,,,,,,,17.5,1.5,,,,,,,,,,,
23,,size_choice,,html-keyboard-response,23,88954,0.0-1.0-30.0,0,0,1,,768.0,,,75.0,7.0,7.0,1.0,1500.0,M-L,1.0,L,M,3.0,2.0,deskchair,ketchup,deskchair10,ketchup3,19.0,92.0,/static/Size_judgement/Stimuli/Size_stims/L/deskchair/deskchair2.jpg,/static/Size_judgement/Stimuli/Size_stims/M/ketchup/ketchup10.jpg,0.0,,18.268,0.768,0.0,ketchup,deskchair,M,L,2.0,3.0,ketchup3,deskchair10,0.0,
24,,size_choice_confirmation,,html-keyboard-response,24,89688,0.0-1.0-31.0-0.0,0,0,1,,,,,,7.0,,,,,,,,,,,,,,,,,,,,19.0,0.732,,,,,,,,,,,
25,,iti,,html-keyboard-response,25,91191,0.0-1.0-32.0,0,0,1,,,,,,,,,,,,,,,,,,,,,,,,,,20.5,1.5,,,,,,,,,,,
26,,size_choice,,html-keyboard-response,26,91817,0.0-1.0-34.0,0,0,1,,623.0,,,75.0,8.0,8.0,1.0,2000.0,S-L,1.0,L,S,3.0,1.0,cooler,paperclip,cooler8,paperclip3,7.0,112.0,/static/Size_judgement/Stimuli/Size_stims/L/cooler/cooler5.jpg,/static/Size_judgement/Stimuli/Size_stims/S/paperclip/paperclip1.jpg,0.0,,21.123,0.623,0.0,paperclip,cooler,S,L,1.0,3.0,paperclip3,cooler8,0.0,
27,,size_choice_confirmation,,html-keyboard-response,27,92700,0.0-1.0-35.0-0.0,0,0,1,,,,,,8.0,,,,,,,,,,,,,,,,,,,,22.0,0.877,,,,,,,,,,,
28,,iti,,html-keyboard-response,28,94704,0.0-1.0-36.0,0,0,1,,,,,,,,,,,,,,,,,,,,,,,,,,24.0,2.0,,,,,,,,,,,
29,,size_choice,,html-keyboard-response,29,95240,0.0-1.0-38.0,0,0,1,,535.0,,,75.0,9.0,9.0,1.0,1500.0,M-L,0.0,M,L,2.0,3.0,basketball,garbagecan,basketball10,garbagecan5,59.0,34.0,/static/Size_judgement/Stimuli/Size_stims/M/basketball/basketball4.jpg,/static/Size_judgement/Stimuli/Size_stims/L/garbagecan/garbagecan3.jpg,1.0,,24.535,0.535,0.0,garbagecan,basketball,L,M,3.0,2.0,garbagecan5,basketball10,0.0,
30,,size_choice_confirmation,,html-keyboard-response,30,96207,0.0-1.0-39.0-0.0,0,0,1,,,,,,9.0,,,,,,,,,,,,,,,,,,,,25.5,0.965,,,,,,,,,,,
31,,iti,,html-keyboard-response,31,97710,0.0-1.0-40.0,0,0,1,,,,,,,,,,,,,,,,,,,,,,,,,,27.0,1.5,,,,,,,,,,,
32,,size_choice,,html-keyboard-response,32,98300,0.0-1.0-42.0,0,0,1,,589.0,,,75.0,10.0,10.0,1.0,2000.0,S-L,1.0,L,S,3.0,1.0,dishwasher,teabag,dishwasher1,teabag5,20.0,134.0,/static/Size_judgement/Stimuli/Size_stims/L/dishwasher/dishwasher10.jpg,/static/Size_judgement/Stimuli/Size_stims/S/teabag/teabag2.jpg,0.0,,27.589,0.589,0.0,teabag,dishwasher,S,L,1.0,3.0,teabag5,dishwasher1,0.0,
33,,size_choice_confirmation,,html-keyboard-response,33,99217,0.0-1.0-43.0-0.0,0,0,1,,,,,,10.0,,,,,,,,,,,,,,,,,,,,28.5,0.911,,,,,,,,,,,
34,,iti,,html-keyboard-response,34,101219,0.0-1.0-44.0,0,0,1,,,,,,,,,,,,,,,,,,,,,,,,,,30.5,2.0,,,,,,,,,,,
35,,size_choice,,html-keyboard-response,35,101764,0.0-1.0-46.0,0,0,1,,542.0,,,75.0,11.0,11.0,1.0,1000.0,S-S,,S,S,1.0,1.0,thread,die,thread10,die4,149.0,103.0,/static/Size_judgement/Stimuli/Size_stims/S/thread/thread9.jpg,/static/Size_judgement/Stimuli/Size_stims/S/die/die2.jpg,,,31.042,0.542,0.0,die,thread,S,S,1.0,1.0,die4,thread10,0.0,
36,,size_choice_confirmation,,html-keyboard-response,36,102724,0.0-1.0-47.0-0.0,0,0,1,,,,,,11.0,,,,,,,,,,,,,,,,,,,,32.0,0.958,,,,,,,,,,,
37,,iti,,html-keyboard-response,37,103731,0.0-1.0-48.0,0,0,1,,,,,,,,,,,,,,,,,,,,,,,,,,33.0,1.0,,,,,,,,,,,
38,,size_choice,,html-keyboard-response,38,104210,0.0-1.0-50.0,0,0,1,,478.0,,,75.0,12.0,12.0,1.0,1000.0,S-XL,0.0,S,XL,1.0,4.0,teabag,crane,teabag6,crane6,135.0,165.0,/static/Size_judgement/Stimuli/Size_stims/S/teabag/teabag6.jpg,/static/Size_judgement/Stimuli/Size_stims/XL/crane/crane2.jpg,1.0,,33.478,0.478,0.0,crane,teabag,XL,S,4.0,1.0,crane6,teabag6,0.0,
39,,size_choice_confirmation,,html-keyboard-response,39,105236,0.0-1.0-51.0-0.0,0,0,1,,,,,,12.0,,,,,,,,,,,,,,,,,,,,34.5,1.022,,,,,,,,,,,
40,,iti,,html-keyboard-response,40,106241,0.0-1.0-52.0,0,0,1,,,,,,,,,,,,,,,,,,,,,,,,,,35.5,1.0,,,,,,,,,,,
41,,size_choice,,html-keyboard-response,41,106644,0.0-1.0-54.0,0,0,1,,402.0,,,75.0,13.0,13.0,1.0,1500.0,S-M,0.0,S,M,1.0,2.0,paperclip,ketchup,paperclip2,ketchup7,111.0,96.0,/static/Size_judgement/Stimuli/Size_stims/S/paperclip/paperclip8.jpg,/static/Size_judgement/Stimuli/Size_stims/M/ketchup/ketchup4.jpg,1.0,,35.902,0.402,0.0,ketchup,paperclip,M,S,2.0,1.0,ketchup7,paperclip2,0.0,
42,,size_choice_confirmation,,html-keyboard-response,42,107749,0.0-1.0-55.0-0.0,0,0,1,,,,,,13.0,,,,,,,,,,,,,,,,,,,,37.0,1.098,,,,,,,,,,,
43,,iti,,html-keyboard-response,43,109254,0.0-1.0-56.0,0,0,1,,,,,,,,,,,,,,,,,,,,,,,,,,38.5,1.5,,,,,,,,,,,
44,,size_choice,,html-keyboard-response,44,109652,0.0-1.0-58.0,0,0,1,,396.0,,,75.0,14.0,14.0,1.0,2000.0,S-L,0.0,S,L,1.0,3.0,thread,garbagecan,thread6,garbagecan8,145.0,37.0,/static/Size_judgement/Stimuli/Size_stims/S/thread/thread2.jpg,/static/Size_judgement/Stimuli/Size_stims/L/garbagecan/garbagecan13.jpg,1.0,,38.896,0.396,0.0,garbagecan,thread,L,S,3.0,1.0,garbagecan8,thread6,0.0,
45,,size_choice_confirmation,,html-keyboard-response,45,110761,0.0-1.0-59.0-0.0,0,0,1,,,,,,14.0,,,,,,,,,,,,,,,,,,,,40.0,1.104,,,,,,,,,,,
46,,iti,,html-keyboard-response,46,112766,0.0-1.0-60.0,0,0,1,,,,,,,,,,,,,,,,,,,,,,,,,,42.0,2.0,,,,,,,,,,,
47,,size_choice,,html-keyboard-response,47,113152,0.0-1.0-62.0,0,0,1,,386.0,,,75.0,15.0,15.0,1.0,1000.0,S-L,0.0,S,L,1.0,3.0,screws,dishwasher,screws4,dishwasher2,123.0,21.0,/static/Size_judgement/Stimuli/Size_stims/S/screws/screws6.jpg,/static/Size_judgement/Stimuli/Size_stims/L/dishwasher/dishwasher9.jpg,1.0,,42.386,0.386,0.0,dishwasher,screws,L,S,3.0,1.0,dishwasher2,screws4,0.0,
48,,size_choice_confirmation,,html-keyboard-response,48,114270,0.0-1.0-63.0-0.0,0,0,1,,,,,,15.0,,,,,,,,,,,,,,,,,,,,43.5,1.114,,,,,,,,,,,
49,,iti,,html-keyboard-response,49,115275,0.0-1.0-64.0,0,0,1,,,,,,,,,,,,,,,,,,,,,,,,,,44.5,1.0,,,,,,,,,,,
50,,size_choice,,html-keyboard-response,50,115724,0.0-1.0-66.0,0,0,1,,448.0,,,75.0,16.0,16.0,1.0,3000.0,XL-XL,,XL,XL,4.0,4.0,dumptruck,crane,dumptruck9,crane9,178.0,168.0,/static/Size_judgement/Stimuli/Size_stims/XL/dumptruck/dumptruck5.jpg,/static/Size_judgement/Stimuli/Size_stims/XL/crane/crane8.jpg,,,44.948,0.448,0.0,crane,dumptruck,XL,XL,4.0,4.0,crane9,dumptruck9,0.0,
51,,size_choice_confirmation,,html-keyboard-response,51,116778,0.0-1.0-67.0-0.0,0,0,1,,,,,,16.0,,,,,,,,,,,,,,,,,,,,46.0,1.052,,,,,,,,,,,
52,,iti,,html-keyboard-response,52,119784,0.0-1.0-68.0,0,0,1,,,,,,,,,,,,,,,,,,,,,,,,,,49.0,3.0,,,,,,,,,,,
53,,size_choice,,html-keyboard-response,53,120326,0.0-1.0-70.0,0,0,1,,541.0,,,75.0,17.0,17.0,1.0,1000.0,L-L,,L,L,3.0,3.0,deskchair,mailbox,deskchair2,mailbox5,11.0,44.0,/static/Size_judgement/Stimuli/Size_stims/L/deskchair/deskchair8.jpg,/static/Size_judgement/Stimuli/Size_stims/L/mailbox/mailbox4.jpg,,,49.541,0.541,0.0,mailbox,deskchair,L,L,3.0,3.0,mailbox5,deskchair2,0.0,
54,,size_choice_confirmation,,html-keyboard-response,54,121291,0.0-1.0-71.0-0.0,0,0,1,,,,,,17.0,,,,,,,,,,,,,,,,,,,,50.5,0.959,,,,,,,,,,,
55,,iti,,html-keyboard-response,55,122294,0.0-1.0-72.0,0,0,1,,,,,,,,,,,,,,,,,,,,,,,,,,51.5,1.0,,,,,,,,,,,
56,,size_choice,,html-keyboard-response,56,122834,0.0-1.0-74.0,0,0,1,,538.0,,,75.0,18.0,18.0,1.0,3000.0,M-XL,1.0,XL,M,4.0,2.0,van,coffeemaker,van2,coffeemaker8,191.0,67.0,/static/Size_judgement/Stimuli/Size_stims/XL/van/van4.jpg,/static/Size_judgement/Stimuli/Size_stims/M/coffeemaker/coffeemaker5.jpg,0.0,,52.038,0.538,0.0,coffeemaker,van,M,XL,2.0,4.0,coffeemaker8,van2,0.0,
57,,size_choice_confirmation,,html-keyboard-response,57,123797,0.0-1.0-75.0-0.0,0,0,1,,,,,,18.0,,,,,,,,,,,,,,,,,,,,53.0,0.962,,,,,,,,,,,
58,,iti,,html-keyboard-response,58,126801,0.0-1.0-76.0,0,0,1,,,,,,,,,,,,,,,,,,,,,,,,,,56.0,3.0,,,,,,,,,,,
59,,size_choice,,html-keyboard-response,59,127194,0.0-1.0-78.0,0,0,1,,390.0,,,75.0,19.0,19.0,1.0,1000.0,M-XL,1.0,XL,M,4.0,2.0,tractor,handsaw,tractor6,handsaw1,185.0,80.0,/static/Size_judgement/Stimuli/Size_stims/XL/tractor/tractor3.jpg,/static/Size_judgement/Stimuli/Size_stims/M/handsaw/handsaw8.jpg,0.0,,56.39,0.39,0.0,handsaw,tractor,M,XL,2.0,4.0,handsaw1,tractor6,0.0,
60,,size_choice_confirmation,,html-keyboard-response,60,128306,0.0-1.0-79.0-0.0,0,0,1,,,,,,19.0,,,,,,,,,,,,,,,,,,,,57.5,1.11,,,,,,,,,,,
61,,iti,,html-keyboard-response,61,129311,0.0-1.0-80.0,0,0,1,,,,,,,,,,,,,,,,,,,,,,,,,,58.5,1.0,,,,,,,,,,,
62,,size_choice,,html-keyboard-response,62,129956,0.0-1.0-82.0,0,0,1,,644.0,,,75.0,20.0,20.0,1.0,1000.0,M-XL,0.0,M,XL,2.0,4.0,hairdryer,van,hairdryer9,van1,78.0,190.0,/static/Size_judgement/Stimuli/Size_stims/M/hairdryer/hairdryer5.jpg,/static/Size_judgement/Stimuli/Size_stims/XL/van/van5.jpg,1.0,,59.144,0.644,0.0,van,hairdryer,XL,M,4.0,2.0,van1,hairdryer9,0.0,
63,,size_choice_confirmation,,html-keyboard-response,63,130814,0.0-1.0-83.0-0.0,0,0,1,,,,,,20.0,,,,,,,,,,,,,,,,,,,,60.0,0.856,,,,,,,,,,,
64,,iti,,html-keyboard-response,64,131815,0.0-1.0-84.0,0,0,1,,,,,,,,,,,,,,,,,,,,,,,,,,61.0,1.0,,,,,,,,,,,
65,,size_choice,,html-keyboard-response,65,132241,0.0-1.0-86.0,0,0,1,,425.0,,,75.0,21.0,21.0,1.0,1000.0,S-M,0.0,S,M,1.0,2.0,die,hairdryer,die6,hairdryer4,105.0,73.0,/static/Size_judgement/Stimuli/Size_stims/S/die/die1.jpg,/static/Size_judgement/Stimuli/Size_stims/M/hairdryer/hairdryer16.jpg,1.0,,61.425,0.425,0.0,hairdryer,die,M,S,2.0,1.0,hairdryer4,die6,0.0,
66,,size_choice_confirmation,,html-keyboard-response,66,133321,0.0-1.0-87.0-0.0,0,0,1,,,,,,21.0,,,,,,,,,,,,,,,,,,,,62.5,1.075,,,,,,,,,,,
67,,iti,,html-keyboard-response,67,134325,0.0-1.0-88.0,0,0,1,,,,,,,,,,,,,,,,,,,,,,,,,,63.5,1.0,,,,,,,,,,,
68,,size_choice,,html-keyboard-response,68,134835,0.0-1.0-90.0,0,0,1,,509.0,,,75.0,22.0,22.0,1.0,1000.0,S-L,1.0,L,S,3.0,1.0,mailbox,teabag,mailbox3,teabag8,42.0,137.0,/static/Size_judgement/Stimuli/Size_stims/L/mailbox/mailbox1.jpg,/static/Size_judgement/Stimuli/Size_stims/S/teabag/teabag7.jpg,0.0,,64.009,0.509,0.0,teabag,mailbox,S,L,1.0,3.0,teabag8,mailbox3,0.0,
69,,size_choice_confirmation,,html-keyboard-response,69,135828,0.0-1.0-91.0-0.0,0,0,1,,,,,,22.0,,,,,,,,,,,,,,,,,,,,65.0,0.991,,,,,,,,,,,
70,,iti,,html-keyboard-response,70,136830,0.0-1.0-92.0,0,0,1,,,,,,,,,,,,,,,,,,,,,,,,,,66.0,1.0,,,,,,,,,,,
71,,size_choice,,html-keyboard-response,71,137252,0.0-1.0-94.0,0,0,1,,420.0,,,75.0,23.0,23.0,1.0,1500.0,M-XL,1.0,XL,M,4.0,2.0,tractor,basketball,tractor4,basketball4,183.0,53.0,/static/Size_judgement/Stimuli/Size_stims/XL/tractor/tractor4.jpg,/static/Size_judgement/Stimuli/Size_stims/M/basketball/basketball1.jpg,0.0,,66.42,0.42,0.0,basketball,tractor,M,XL,2.0,4.0,basketball4,tractor4,0.0,
72,,size_choice_confirmation,,html-keyboard-response,72,138334,0.0-1.0-95.0-0.0,0,0,1,,,,,,23.0,,,,,,,,,,,,,,,,,,,,67.5,1.08,,,,,,,,,,,
73,,iti,,html-keyboard-response,73,139835,0.0-1.0-96.0,0,0,1,,,,,,,,,,,,,,,,,,,,,,,,,,69.0,1.5,,,,,,,,,,,
74,,size_choice,,html-keyboard-response,74,140178,0.0-1.0-98.0,0,0,1,,342.0,,,75.0,24.0,24.0,1.0,2000.0,S-XL,1.0,XL,S,4.0,1.0,dumptruck,die,dumptruck6,die8,175.0,107.0,/static/Size_judgement/Stimuli/Size_stims/XL/dumptruck/dumptruck2.jpg,/static/Size_judgement/Stimuli/Size_stims/S/die/die5.jpg,0.0,,69.342,0.342,0.0,die,dumptruck,S,XL,1.0,4.0,die8,dumptruck6,0.0,
75,,size_choice_confirmation,,html-keyboard-response,75,141340,0.0-1.0-99.0-0.0,0,0,1,,,,,,24.0,,,,,,,,,,,,,,,,,,,,70.5,1.158,,,,,,,,,,,
76,,iti,,html-keyboard-response,76,143343,0.0-1.0-100.0,0,0,1,,,,,,,,,,,,,,,,,,,,,,,,,,72.5,2.0,,,,,,,,,,,
77,,size_choice,,html-keyboard-response,77,144108,0.0-1.0-102.0,0,0,1,,763.0,,,75.0,25.0,25.0,1.0,1000.0,S-XL,1.0,XL,S,4.0,1.0,van,die,van10,die10,199.0,109.0,/static/Size_judgement/Stimuli/Size_stims/XL/van/van8.jpg,/static/Size_judgement/Stimuli/Size_stims/S/die/die6.jpg,0.0,,73.263,0.763,0.0,die,van,S,XL,1.0,4.0,die10,van10,0.0,
78,,size_choice_confirmation,,html-keyboard-response,78,144850,0.0-1.0-103.0-0.0,0,0,1,,,,,,25.0,,,,,,,,,,,,,,,,,,,,74.0,0.737,,,,,,,,,,,
79,,iti,,html-keyboard-response,79,145856,0.0-1.0-104.0,0,0,1,,,,,,,,,,,,,,,,,,,,,,,,,,75.0,1.0,,,,,,,,,,,
80,,size_choice,,html-keyboard-response,80,146290,0.0-1.0-106.0,0,0,1,,433.0,,,75.0,26.0,26.0,1.0,2000.0,M-M,,M,M,2.0,2.0,coffeemaker,hairdryer,coffeemaker5,hairdryer1,64.0,70.0,/static/Size_judgement/Stimuli/Size_stims/M/coffeemaker/coffeemaker10.jpg,/static/Size_judgement/Stimuli/Size_stims/M/hairdryer/hairdryer11.jpg,,,75.433,0.433,0.0,hairdryer,coffeemaker,M,M,2.0,2.0,hairdryer1,coffeemaker5,0.0,
81,,size_choice_confirmation,,html-keyboard-response,81,147359,0.0-1.0-107.0-0.0,0,0,1,,,,,,26.0,,,,,,,,,,,,,,,,,,,,76.5,1.067,,,,,,,,,,,
82,,iti,,html-keyboard-response,82,149362,0.0-1.0-108.0,0,0,1,,,,,,,,,,,,,,,,,,,,,,,,,,78.5,2.0,,,,,,,,,,,
83,,size_choice,,html-keyboard-response,83,149948,0.0-1.0-110.0,0,0,1,,584.0,,,75.0,27.0,27.0,1.0,3000.0,XL-XL,,XL,XL,4.0,4.0,car,dumptruck,car7,dumptruck2,156.0,171.0,/static/Size_judgement/Stimuli/Size_stims/XL/car/car13.jpg,/static/Size_judgement/Stimuli/Size_stims/XL/dumptruck/dumptruck8.jpg,,,79.084,0.584,0.0,dumptruck,car,XL,XL,4.0,4.0,dumptruck2,car7,0.0,
84,,size_choice_confirmation,,html-keyboard-response,84,150870,0.0-1.0-111.0-0.0,0,0,1,,,,,,27.0,,,,,,,,,,,,,,,,,,,,80.0,0.916,,,,,,,,,,,
85,,iti,,html-keyboard-response,85,153872,0.0-1.0-112.0,0,0,1,,,,,,,,,,,,,,,,,,,,,,,,,,83.0,3.0,,,,,,,,,,,
86,,size_choice,,html-keyboard-response,86,154561,0.0-1.0-114.0,0,0,1,,687.0,,,75.0,28.0,28.0,1.0,1000.0,M-L,1.0,L,M,3.0,2.0,mailbox,ketchup,mailbox2,ketchup6,41.0,95.0,/static/Size_judgement/Stimuli/Size_stims/L/mailbox/mailbox2.jpg,/static/Size_judgement/Stimuli/Size_stims/M/ketchup/ketchup1.jpg,0.0,,83.687,0.687,0.0,ketchup,mailbox,M,L,2.0,3.0,ketchup6,mailbox2,0.0,
87,,size_choice_confirmation,,html-keyboard-response,87,155379,0.0-1.0-115.0-0.0,0,0,1,,,,,,28.0,,,,,,,,,,,,,,,,,,,,84.5,0.813,,,,,,,,,,,
88,,iti,,html-keyboard-response,88,156382,0.0-1.0-116.0,0,0,1,,,,,,,,,,,,,,,,,,,,,,,,,,85.5,1.0,,,,,,,,,,,
89,,size_choice,,html-keyboard-response,89,156986,0.0-1.0-118.0,0,0,1,,602.0,,,68.0,29.0,29.0,1.0,3500.0,L-XL,1.0,XL,L,4.0,3.0,van,cooler,van7,cooler5,196.0,4.0,/static/Size_judgement/Stimuli/Size_stims/XL/van/van1.jpg,/static/Size_judgement/Stimuli/Size_stims/L/cooler/cooler10.jpg,1.0,,86.102,0.602,1.0,van,cooler,XL,L,4.0,3.0,van7,cooler5,0.0,
90,,size_choice_confirmation,,html-keyboard-response,90,157889,0.0-1.0-119.0-0.0,0,0,1,,,,,,29.0,,,,,,,,,,,,,,,,,,,,87.0,0.898,,,,,,,,,,,
91,,iti,,html-keyboard-response,91,161391,0.0-1.0-120.0,0,0,1,,,,,,,,,,,,,,,,,,,,,,,,,,90.5,3.5,,,,,,,,,,,
92,,size_choice,,html-keyboard-response,92,161849,0.0-1.0-122.0,0,0,1,,457.0,,,68.0,30.0,30.0,1.0,1000.0,S-S,,S,S,1.0,1.0,paperclip,teabag,paperclip9,teabag2,118.0,131.0,/static/Size_judgement/Stimuli/Size_stims/S/paperclip/paperclip4.jpg,/static/Size_judgement/Stimuli/Size_stims/S/teabag/teabag8.jpg,,,90.957,0.457,1.0,paperclip,teabag,S,S,1.0,1.0,paperclip9,teabag2,0.0,
93,,size_choice_confirmation,,html-keyboard-response,93,162894,0.0-1.0-123.0-0.0,0,0,1,,,,,,30.0,,,,,,,,,,,,,,,,,,,,92.0,1.043,,,,,,,,,,,
94,,iti,,html-keyboard-response,94,163899,0.0-1.0-124.0,0,0,1,,,,,,,,,,,,,,,,,,,,,,,,,,93.0,1.0,,,,,,,,,,,
95,,size_choice,,html-keyboard-response,95,164376,0.0-1.0-126.0,0,0,1,,475.0,,,68.0,31.0,31.0,1.0,1500.0,S-S,,S,S,1.0,1.0,thread,screws,thread4,screws8,143.0,127.0,/static/Size_judgement/Stimuli/Size_stims/S/thread/thread5.jpg,/static/Size_judgement/Stimuli/Size_stims/S/screws/screws10.jpg,,,93.475,0.475,1.0,thread,screws,S,S,1.0,1.0,thread4,screws8,0.0,
96,,size_choice_confirmation,,html-keyboard-response,96,165403,0.0-1.0-127.0-0.0,0,0,1,,,,,,31.0,,,,,,,,,,,,,,,,,,,,94.5,1.025,,,,,,,,,,,
97,,iti,,html-keyboard-response,97,166905,0.0-1.0-128.0,0,0,1,,,,,,,,,,,,,,,,,,,,,,,,,,96.0,1.5,,,,,,,,,,,
98,,size_choice,,html-keyboard-response,98,167635,0.0-1.0-130.0,0,0,1,,728.0,,,68.0,32.0,32.0,1.0,2000.0,S-XL,0.0,S,XL,1.0,4.0,die,crane,die7,crane8,106.0,167.0,/static/Size_judgement/Stimuli/Size_stims/S/die/die4.jpg,/static/Size_judgement/Stimuli/Size_stims/XL/crane/crane10.jpg,0.0,,96.728,0.728,1.0,die,crane,S,XL,1.0,4.0,die7,crane8,0.0,
99,,size_choice_confirmation,,html-keyboard-response,99,168411,0.0-1.0-131.0-0.0,0,0,1,,,,,,32.0,,,,,,,,,,,,,,,,,,,,97.5,0.772,,,,,,,,,,,
100,,iti,,html-keyboard-response,100,170413,0.0-1.0-132.0,0,0,1,,,,,,,,,,,,,,,,,,,,,,,,,,99.5,2.0,,,,,,,,,,,
101,,size_choice,,html-keyboard-response,101,170891,0.0-1.0-134.0,0,0,1,,476.0,,,68.0,33.0,33.0,1.0,1000.0,M-M,,M,M,2.0,2.0,hairdryer,handsaw,hairdryer3,handsaw3,72.0,82.0,/static/Size_judgement/Stimuli/Size_stims/M/hairdryer/hairdryer17.jpg,/static/Size_judgement/Stimuli/Size_stims/M/handsaw/handsaw2.jpg,,,99.976,0.476,1.0,hairdryer,handsaw,M,M,2.0,2.0,hairdryer3,handsaw3,0.0,
102,,size_choice_confirmation,,html-keyboard-response,102,171919,0.0-1.0-135.0-0.0,0,0,1,,,,,,33.0,,,,,,,,,,,,,,,,,,,,101.0,1.024,,,,,,,,,,,
103,,iti,,html-keyboard-response,103,172922,0.0-1.0-136.0,0,0,1,,,,,,,,,,,,,,,,,,,,,,,,,,102.0,1.0,,,,,,,,,,,
104,,size_choice,,html-keyboard-response,104,173426,0.0-1.0-138.0,0,0,1,,503.0,,,75.0,34.0,34.0,1.0,1500.0,L-L,,L,L,3.0,3.0,garbagecan,cooler,garbagecan9,cooler1,38.0,0.0,/static/Size_judgement/Stimuli/Size_stims/L/garbagecan/garbagecan12.jpg,/static/Size_judgement/Stimuli/Size_stims/L/cooler/cooler8.jpg,,,102.503,0.503,0.0,cooler,garbagecan,L,L,3.0,3.0,cooler1,garbagecan9,0.0,
105,,size_choice_confirmation,,html-keyboard-response,105,174426,0.0-1.0-139.0-0.0,0,0,1,,,,,,34.0,,,,,,,,,,,,,,,,,,,,103.5,0.997,,,,,,,,,,,
106,,iti,,html-keyboard-response,106,175930,0.0-1.0-140.0,0,0,1,,,,,,,,,,,,,,,,,,,,,,,,,,105.0,1.5,,,,,,,,,,,
107,,size_choice,,html-keyboard-response,107,176466,0.0-1.0-142.0,0,0,1,,535.0,,,75.0,35.0,35.0,1.0,2000.0,S-L,1.0,L,S,3.0,1.0,cooler,teabag,cooler9,teabag1,8.0,130.0,/static/Size_judgement/Stimuli/Size_stims/L/cooler/cooler7.jpg,/static/Size_judgement/Stimuli/Size_stims/S/teabag/teabag9.jpg,0.0,,105.535,0.535,0.0,teabag,cooler,S,L,1.0,3.0,teabag1,cooler9,0.0,
108,,size_choice_confirmation,,html-keyboard-response,108,177437,0.0-1.0-143.0-0.0,0,0,1,,,,,,35.0,,,,,,,,,,,,,,,,,,,,106.5,0.965,,,,,,,,,,,
109,,iti,,html-keyboard-response,109,179439,0.0-1.0-144.0,0,0,1,,,,,,,,,,,,,,,,,,,,,,,,,,108.5,2.0,,,,,,,,,,,
110,,size_choice,,html-keyboard-response,110,179802,0.0-1.0-146.0,0,0,1,,362.0,,,75.0,36.0,36.0,1.0,3500.0,M-L,1.0,L,M,3.0,2.0,garbagecan,ketchup,garbagecan3,ketchup5,32.0,94.0,/static/Size_judgement/Stimuli/Size_stims/L/garbagecan/garbagecan7.jpg,/static/Size_judgement/Stimuli/Size_stims/M/ketchup/ketchup3.jpg,0.0,,108.862,0.362,0.0,ketchup,garbagecan,M,L,2.0,3.0,ketchup5,garbagecan3,0.0,
111,,size_choice_confirmation,,html-keyboard-response,111,180945,0.0-1.0-147.0-0.0,0,0,1,,,,,,36.0,,,,,,,,,,,,,,,,,,,,110.0,1.138,,,,,,,,,,,
112,,iti,,html-keyboard-response,112,184446,0.0-1.0-148.0,0,0,1,,,,,,,,,,,,,,,,,,,,,,,,,,113.5,3.5,,,,,,,,,,,
113,,size_choice,,html-keyboard-response,113,184914,0.0-1.0-150.0,0,0,1,,466.0,,,75.0,37.0,37.0,1.0,1500.0,M-L,1.0,L,M,3.0,2.0,mailbox,ketchup,mailbox6,ketchup4,45.0,93.0,/static/Size_judgement/Stimuli/Size_stims/L/mailbox/mailbox6.jpg,/static/Size_judgement/Stimuli/Size_stims/M/ketchup/ketchup2.jpg,0.0,,113.966,0.466,0.0,ketchup,mailbox,M,L,2.0,3.0,ketchup4,mailbox6,0.0,
114,,size_choice_confirmation,,html-keyboard-response,114,185955,0.0-1.0-151.0-0.0,0,0,1,,,,,,37.0,,,,,,,,,,,,,,,,,,,,115.0,1.034,,,,,,,,,,,
115,,iti,,html-keyboard-response,115,187461,0.0-1.0-152.0,0,0,1,,,,,,,,,,,,,,,,,,,,,,,,,,116.5,1.5,,,,,,,,,,,
116,,size_choice,,html-keyboard-response,116,188250,0.0-1.0-154.0,0,0,1,,788.0,,,75.0,38.0,38.0,1.0,1000.0,L-L,,L,L,3.0,3.0,mailbox,garbagecan,mailbox8,garbagecan4,47.0,33.0,/static/Size_judgement/Stimuli/Size_stims/L/mailbox/mailbox10.jpg,/static/Size_judgement/Stimuli/Size_stims/L/garbagecan/garbagecan6.jpg,,,117.288,0.788,0.0,garbagecan,mailbox,L,L,3.0,3.0,garbagecan4,mailbox8,0.0,
117,,size_choice_confirmation,,html-keyboard-response,117,188964,0.0-1.0-155.0-0.0,0,0,1,,,,,,38.0,,,,,,,,,,,,,,,,,,,,118.0,0.712,,,,,,,,,,,
118,,iti,,html-keyboard-response,118,189968,0.0-1.0-156.0,0,0,1,,,,,,,,,,,,,,,,,,,,,,,,,,119.0,1.0,,,,,,,,,,,
119,,size_choice,,html-keyboard-response,119,190602,0.0-1.0-158.0,0,0,1,,633.0,,,75.0,39.0,39.0,1.0,1000.0,M-M,,M,M,2.0,2.0,basketball,hairdryer,basketball6,hairdryer7,55.0,76.0,/static/Size_judgement/Stimuli/Size_stims/M/basketball/basketball2.jpg,/static/Size_judgement/Stimuli/Size_stims/M/hairdryer/hairdryer3.jpg,,,119.633,0.633,0.0,hairdryer,basketball,M,M,2.0,2.0,hairdryer7,basketball6,0.0,
120,,size_choice_confirmation,,html-keyboard-response,120,191472,0.0-1.0-159.0-0.0,0,0,1,,,,,,39.0,,,,,,,,,,,,,,,,,,,,120.5,0.867,,,,,,,,,,,
121,,iti,,html-keyboard-response,121,192478,0.0-1.0-160.0,0,0,1,,,,,,,,,,,,,,,,,,,,,,,,,,121.5,1.0,,,,,,,,,,,
122,,size_choice,,html-keyboard-response,122,193064,0.0-1.0-162.0,0,0,1,,584.0,,,75.0,40.0,40.0,1.0,3000.0,S-XL,1.0,XL,S,4.0,1.0,crane,thread,crane7,thread5,166.0,144.0,/static/Size_judgement/Stimuli/Size_stims/XL/crane/crane3.jpg,/static/Size_judgement/Stimuli/Size_stims/S/thread/thread1.jpg,0.0,,122.084,0.584,0.0,thread,crane,S,XL,1.0,4.0,thread5,crane7,0.0,
123,,size_choice_confirmation,,html-keyboard-response,123,193984,0.0-1.0-163.0-0.0,0,0,1,,,,,,40.0,,,,,,,,,,,,,,,,,,,,123.0,0.916,,,,,,,,,,,
124,,iti,,html-keyboard-response,124,196988,0.0-1.0-164.0,0,0,1,,,,,,,,,,,,,,,,,,,,,,,,,,126.0,3.0,,,,,,,,,,,
125,,size_choice,,html-keyboard-response,125,197959,0.0-1.0-166.0,0,0,1,,970.0,,,75.0,41.0,41.0,1.0,1000.0,S-XL,0.0,S,XL,1.0,4.0,teabag,tractor,teabag7,tractor7,136.0,186.0,/static/Size_judgement/Stimuli/Size_stims/S/teabag/teabag10.jpg,/static/Size_judgement/Stimuli/Size_stims/XL/tractor/tractor2.jpg,1.0,,126.97,0.97,0.0,tractor,teabag,XL,S,4.0,1.0,tractor7,teabag7,0.0,
126,,size_choice_confirmation,,html-keyboard-response,126,198495,0.0-1.0-167.0-0.0,0,0,1,,,,,,41.0,,,,,,,,,,,,,,,,,,,,127.5,0.53,,,,,,,,,,,
127,,iti,,html-keyboard-response,127,199498,0.0-1.0-168.0,0,0,1,,,,,,,,,,,,,,,,,,,,,,,,,,128.5,1.0,,,,,,,,,,,
128,,size_choice,,html-keyboard-response,128,200360,0.0-1.0-170.0,0,0,1,,861.0,,,75.0,42.0,42.0,1.0,1500.0,L-XL,0.0,L,XL,3.0,4.0,garbagecan,car,garbagecan10,car6,39.0,155.0,/static/Size_judgement/Stimuli/Size_stims/L/garbagecan/garbagecan11.jpg,/static/Size_judgement/Stimuli/Size_stims/XL/car/car12.jpg,1.0,,129.361,0.861,0.0,car,garbagecan,XL,L,4.0,3.0,car6,garbagecan10,0.0,
129,,size_choice_confirmation,,html-keyboard-response,129,201005,0.0-1.0-171.0-0.0,0,0,1,,,,,,42.0,,,,,,,,,,,,,,,,,,,,130.0,0.639,,,,,,,,,,,
130,,iti,,html-keyboard-response,130,202509,0.0-1.0-172.0,0,0,1,,,,,,,,,,,,,,,,,,,,,,,,,,131.5,1.5,,,,,,,,,,,
131,,size_choice,,html-keyboard-response,131,203058,0.0-1.0-174.0,0,0,1,,547.0,,,68.0,43.0,43.0,1.0,3500.0,M-XL,1.0,XL,M,4.0,2.0,car,coffeemaker,car4,coffeemaker9,153.0,68.0,/static/Size_judgement/Stimuli/Size_stims/XL/car/car6.jpg,/static/Size_judgement/Stimuli/Size_stims/M/coffeemaker/coffeemaker7.jpg,1.0,,132.047,0.547,1.0,car,coffeemaker,XL,M,4.0,2.0,car4,coffeemaker9,0.0,
132,,size_choice_confirmation,,html-keyboard-response,132,204013,0.0-1.0-175.0-0.0,0,0,1,,,,,,43.0,,,,,,,,,,,,,,,,,,,,133.0,0.953,,,,,,,,,,,
133,,iti,,html-keyboard-response,133,207516,0.0-1.0-176.0,0,0,1,,,,,,,,,,,,,,,,,,,,,,,,,,136.5,3.5,,,,,,,,,,,
134,,size_choice,,html-keyboard-response,134,208195,0.0-1.0-178.0,0,0,1,,678.0,,,68.0,44.0,44.0,1.0,2000.0,L-XL,0.0,L,XL,3.0,4.0,cooler,car,cooler4,car5,3.0,154.0,/static/Size_judgement/Stimuli/Size_stims/L/cooler/cooler3.jpg,/static/Size_judgement/Stimuli/Size_stims/XL/car/car11.jpg,0.0,,137.178,0.678,1.0,cooler,car,L,XL,3.0,4.0,cooler4,car5,0.0,
135,,size_choice_confirmation,,html-keyboard-response,135,209021,0.0-1.0-179.0-0.0,0,0,1,,,,,,44.0,,,,,,,,,,,,,,,,,,,,138.0,0.822,,,,,,,,,,,
136,,iti,,html-keyboard-response,136,211024,0.0-1.0-180.0,0,0,1,,,,,,,,,,,,,,,,,,,,,,,,,,140.0,2.0,,,,,,,,,,,
137,,block_over,,html-keyboard-response,137,225442,0.0-1.0-181.0-0.0,0,0,1,,14401.0,,,68.0,44.0,,,,,,,,,,,,,,,,,,,,,,,,,,,,,,,,
138,,size_choice,,html-keyboard-response,138,226948,0.0-1.0-182.0,0,0,1,,,,,,45.0,45.0,2.0,3500.0,S-M,0.0,S,M,1.0,2.0,screws,handsaw,screws5,handsaw6,124.0,85.0,/static/Size_judgement/Stimuli/Size_stims/S/screws/screws2.jpg,/static/Size_judgement/Stimuli/Size_stims/M/handsaw/handsaw4.jpg,,1.0,141.5,1.5,,,,,,,,,,,
139,,iti,,html-keyboard-response,139,229450,0.0-1.0-184.0,0,0,1,,,,,,,,,,,,,,,,,,,,,,,,,,144.0,2.5,,,,,,,,,,,
140,,size_choice,,html-keyboard-response,140,229665,0.0-1.0-186.0,0,0,1,,215.0,,,68.0,46.0,46.0,2.0,1000.0,S-S,,S,S,1.0,1.0,screws,paperclip,screws9,paperclip6,128.0,115.0,/static/Size_judgement/Stimuli/Size_stims/S/screws/screws8.jpg,/static/Size_judgement/Stimuli/Size_stims/S/paperclip/paperclip6.jpg,,,144.215,0.215,1.0,screws,paperclip,S,S,1.0,1.0,screws9,paperclip6,0.0,
141,,size_choice_confirmation,,html-keyboard-response,141,230955,0.0-1.0-187.0-0.0,0,0,1,,,,,,46.0,,,,,,,,,,,,,,,,,,,,145.5,1.285,,,,,,,,,,,
142,,iti,,html-keyboard-response,142,231961,0.0-1.0-188.0,0,0,1,,,,,,,,,,,,,,,,,,,,,,,,,,146.5,1.0,,,,,,,,,,,
143,,size_choice,,html-keyboard-response,143,232001,0.0-1.0-190.0,0,0,1,,39.0,,,68.0,47.0,47.0,2.0,2000.0,M-XL,1.0,XL,M,4.0,2.0,crane,basketball,crane5,basketball5,164.0,54.0,/static/Size_judgement/Stimuli/Size_stims/XL/crane/crane1.jpg,/static/Size_judgement/Stimuli/Size_stims/M/basketball/basketball3.jpg,1.0,,146.539,0.039,1.0,crane,basketball,XL,M,4.0,2.0,crane5,basketball5,0.0,
144,,size_choice_confirmation,,html-keyboard-response,144,233465,0.0-1.0-191.0-0.0,0,0,1,,,,,,47.0,,,,,,,,,,,,,,,,,,,,148.0,1.461,,,,,,,,,,,
145,,iti,,html-keyboard-response,145,235468,0.0-1.0-192.0,0,0,1,,,,,,,,,,,,,,,,,,,,,,,,,,150.0,2.0,,,,,,,,,,,
146,,size_choice,,html-keyboard-response,146,236472,0.0-1.0-194.0,0,0,1,,1003.0,,,68.0,48.0,48.0,2.0,1000.0,M-L,0.0,M,L,2.0,3.0,hairdryer,mailbox,hairdryer6,mailbox10,75.0,49.0,/static/Size_judgement/Stimuli/Size_stims/M/hairdryer/hairdryer8.jpg,/static/Size_judgement/Stimuli/Size_stims/L/mailbox/mailbox8.jpg,0.0,,151.003,1.003,1.0,hairdryer,mailbox,M,L,2.0,3.0,hairdryer6,mailbox10,0.0,
147,,size_choice_confirmation,,html-keyboard-response,147,236974,0.0-1.0-195.0-0.0,0,0,1,,,,,,48.0,,,,,,,,,,,,,,,,,,,,151.5,0.497,,,,,,,,,,,
148,,iti,,html-keyboard-response,148,237978,0.0-1.0-196.0,0,0,1,,,,,,,,,,,,,,,,,,,,,,,,,,152.5,1.0,,,,,,,,,,,
149,,size_choice,,html-keyboard-response,149,238417,0.0-1.0-198.0,0,0,1,,438.0,,,68.0,49.0,49.0,2.0,2000.0,M-XL,1.0,XL,M,4.0,2.0,tractor,coffeemaker,tractor5,coffeemaker1,184.0,60.0,/static/Size_judgement/Stimuli/Size_stims/XL/tractor/tractor1.jpg,/static/Size_judgement/Stimuli/Size_stims/M/coffeemaker/coffeemaker14.jpg,1.0,,152.938,0.438,1.0,tractor,coffeemaker,XL,M,4.0,2.0,tractor5,coffeemaker1,0.0,
150,,size_choice_confirmation,,html-keyboard-response,150,239483,0.0-1.0-199.0-0.0,0,0,1,,,,,,49.0,,,,,,,,,,,,,,,,,,,,154.0,1.062,,,,,,,,,,,
151,,iti,,html-keyboard-response,151,241487,0.0-1.0-200.0,0,0,1,,,,,,,,,,,,,,,,,,,,,,,,,,156.0,2.0,,,,,,,,,,,
152,,size_choice,,html-keyboard-response,152,242187,0.0-1.0-202.0,0,0,1,,697.0,,,68.0,50.0,50.0,2.0,1000.0,S-XL,1.0,XL,S,4.0,1.0,car,teabag,car9,teabag10,158.0,139.0,/static/Size_judgement/Stimuli/Size_stims/XL/car/car15.jpg,/static/Size_judgement/Stimuli/Size_stims/S/teabag/teabag4.jpg,1.0,,156.697,0.697,1.0,car,teabag,XL,S,4.0,1.0,car9,teabag10,0.0,
153,,size_choice_confirmation,,html-keyboard-response,153,242994,0.0-1.0-203.0-0.0,0,0,1,,,,,,50.0,,,,,,,,,,,,,,,,,,,,157.5,0.803,,,,,,,,,,,
154,,iti,,html-keyboard-response,154,244001,0.0-1.0-204.0,0,0,1,,,,,,,,,,,,,,,,,,,,,,,,,,158.5,1.0,,,,,,,,,,,
155,,size_choice,,html-keyboard-response,155,244018,0.0-1.0-206.0,0,0,1,,16.0,,,68.0,51.0,51.0,2.0,1500.0,XL-XL,,XL,XL,4.0,4.0,crane,car,crane10,car8,169.0,157.0,/static/Size_judgement/Stimuli/Size_stims/XL/crane/crane9.jpg,/static/Size_judgement/Stimuli/Size_stims/XL/car/car14.jpg,,,158.516,0.016,1.0,crane,car,XL,XL,4.0,4.0,crane10,car8,0.0,
156,,size_choice_confirmation,,html-keyboard-response,156,245504,0.0-1.0-207.0-0.0,0,0,1,,,,,,51.0,,,,,,,,,,,,,,,,,,,,160.0,1.484,,,,,,,,,,,
157,,iti,,html-keyboard-response,157,247008,0.0-1.0-208.0,0,0,1,,,,,,,,,,,,,,,,,,,,,,,,,,161.5,1.5,,,,,,,,,,,
158,,size_choice,,html-keyboard-response,158,247458,0.0-1.0-210.0,0,0,1,,449.0,,,68.0,52.0,52.0,2.0,1000.0,M-L,0.0,M,L,2.0,3.0,coffeemaker,dishwasher,coffeemaker2,dishwasher3,61.0,22.0,/static/Size_judgement/Stimuli/Size_stims/M/coffeemaker/coffeemaker12.jpg,/static/Size_judgement/Stimuli/Size_stims/L/dishwasher/dishwasher8.jpg,0.0,,161.949,0.449,1.0,coffeemaker,dishwasher,M,L,2.0,3.0,coffeemaker2,dishwasher3,0.0,
159,,size_choice_confirmation,,html-keyboard-response,159,248513,0.0-1.0-211.0-0.0,0,0,1,,,,,,52.0,,,,,,,,,,,,,,,,,,,,163.0,1.051,,,,,,,,,,,
160,,iti,,html-keyboard-response,160,249519,0.0-1.0-212.0,0,0,1,,,,,,,,,,,,,,,,,,,,,,,,,,164.0,1.0,,,,,,,,,,,
161,,size_choice,,html-keyboard-response,161,250634,0.0-1.0-214.0,0,0,1,,1114.0,,,68.0,53.0,53.0,2.0,3000.0,S-L,1.0,L,S,3.0,1.0,deskchair,paperclip,deskchair4,paperclip7,13.0,116.0,/static/Size_judgement/Stimuli/Size_stims/L/deskchair/deskchair6.jpg,/static/Size_judgement/Stimuli/Size_stims/S/paperclip/paperclip7.jpg,1.0,,165.114,1.114,1.0,deskchair,paperclip,L,S,3.0,1.0,deskchair4,paperclip7,0.0,
162,,size_choice_confirmation,,html-keyboard-response,162,251024,0.0-1.0-215.0-0.0,0,0,1,,,,,,53.0,,,,,,,,,,,,,,,,,,,,165.5,0.386,,,,,,,,,,,
163,,iti,,html-keyboard-response,163,254029,0.0-1.0-216.0,0,0,1,,,,,,,,,,,,,,,,,,,,,,,,,,168.5,3.0,,,,,,,,,,,
164,,size_choice,,html-keyboard-response,164,254555,0.0-1.0-218.0,0,0,1,,523.0,,,68.0,54.0,54.0,2.0,2000.0,S-S,,S,S,1.0,1.0,screws,paperclip,screws1,paperclip10,120.0,119.0,/static/Size_judgement/Stimuli/Size_stims/S/screws/screws4.jpg,/static/Size_judgement/Stimuli/Size_stims/S/paperclip/paperclip10.jpg,,,169.023,0.523,1.0,screws,paperclip,S,S,1.0,1.0,screws1,paperclip10,0.0,
165,,size_choice_confirmation,,html-keyboard-response,165,255536,0.0-1.0-219.0-0.0,0,0,1,,,,,,54.0,,,,,,,,,,,,,,,,,,,,170.0,0.977,,,,,,,,,,,
166,,iti,,html-keyboard-response,166,257540,0.0-1.0-220.0,0,0,1,,,,,,,,,,,,,,,,,,,,,,,,,,172.0,2.0,,,,,,,,,,,
167,,size_choice,,html-keyboard-response,167,258065,0.0-1.0-222.0,0,0,1,,523.0,,,68.0,55.0,55.0,2.0,1500.0,M-L,1.0,L,M,3.0,2.0,dishwasher,ketchup,dishwasher5,ketchup2,24.0,91.0,/static/Size_judgement/Stimuli/Size_stims/L/dishwasher/dishwasher4.jpg,/static/Size_judgement/Stimuli/Size_stims/M/ketchup/ketchup9.jpg,1.0,,172.523,0.523,1.0,dishwasher,ketchup,L,M,3.0,2.0,dishwasher5,ketchup2,0.0,
168,,size_choice_confirmation,,html-keyboard-response,168,259048,0.0-1.0-223.0-0.0,0,0,1,,,,,,55.0,,,,,,,,,,,,,,,,,,,,173.5,0.977,,,,,,,,,,,
169,,iti,,html-keyboard-response,169,260553,0.0-1.0-224.0,0,0,1,,,,,,,,,,,,,,,,,,,,,,,,,,175.0,1.5,,,,,,,,,,,
170,,size_choice,,html-keyboard-response,170,260851,0.0-1.0-226.0,0,0,1,,297.0,,,68.0,56.0,56.0,2.0,1000.0,M-L,0.0,M,L,2.0,3.0,hairdryer,deskchair,hairdryer5,deskchair3,74.0,12.0,/static/Size_judgement/Stimuli/Size_stims/M/hairdryer/hairdryer15.jpg,/static/Size_judgement/Stimuli/Size_stims/L/deskchair/deskchair10.jpg,0.0,,175.297,0.297,1.0,hairdryer,deskchair,M,L,2.0,3.0,hairdryer5,deskchair3,0.0,
171,,size_choice_confirmation,,html-keyboard-response,171,262058,0.0-1.0-227.0-0.0,0,0,1,,,,,,56.0,,,,,,,,,,,,,,,,,,,,176.5,1.203,,,,,,,,,,,
172,,iti,,html-keyboard-response,172,263060,0.0-1.0-228.0,0,0,1,,,,,,,,,,,,,,,,,,,,,,,,,,177.5,1.0,,,,,,,,,,,
173,,size_choice,,html-keyboard-response,173,264713,0.0-1.0-230.0,0,0,1,,,,,,57.0,57.0,2.0,1000.0,S-XL,0.0,S,XL,1.0,4.0,thread,dumptruck,thread7,dumptruck1,146.0,170.0,/static/Size_judgement/Stimuli/Size_stims/S/thread/thread3.jpg,/static/Size_judgement/Stimuli/Size_stims/XL/dumptruck/dumptruck9.jpg,,1.0,179.0,1.5,,,,,,,,,,,
174,,iti,,html-keyboard-response,174,264715,0.0-1.0-232.0,0,0,1,,,,,,,,,,,,,,,,,,,,,,,,,,179.0,0.0,,,,,,,,,,,
175,,size_choice,,html-keyboard-response,175,266732,0.0-1.0-234.0,0,0,1,,,,,,58.0,58.0,2.0,1000.0,S-L,0.0,S,L,1.0,3.0,teabag,dishwasher,teabag9,dishwasher6,138.0,25.0,/static/Size_judgement/Stimuli/Size_stims/S/teabag/teabag5.jpg,/static/Size_judgement/Stimuli/Size_stims/L/dishwasher/dishwasher6.jpg,,1.0,180.5,1.5,,,,,,,,,,,
176,,iti,,html-keyboard-response,176,268019,0.0-1.0-236.0,0,0,1,,,,,,,,,,,,,,,,,,,,,,,,,,180.5,0.0,,,,,,,,,,,
177,,size_choice,,html-keyboard-response,177,269779,0.0-1.0-238.0,0,0,1,,,,,,59.0,59.0,2.0,1000.0,M-M,,M,M,2.0,2.0,basketball,ketchup,basketball2,ketchup10,51.0,99.0,/static/Size_judgement/Stimuli/Size_stims/M/basketball/basketball8.jpg,/static/Size_judgement/Stimuli/Size_stims/M/ketchup/ketchup6.jpg,,1.0,182.0,1.5,,,,,,,,,,,
178,,iti,,html-keyboard-response,178,270665,0.0-1.0-240.0,0,0,1,,,,,,,,,,,,,,,,,,,,,,,,,,182.0,0.0,,,,,,,,,,,
179,,size_choice,,html-keyboard-response,179,272848,0.0-1.0-242.0,0,0,1,,,,,,60.0,60.0,2.0,1500.0,M-XL,0.0,M,XL,2.0,4.0,ketchup,dumptruck,ketchup1,dumptruck3,90.0,172.0,/static/Size_judgement/Stimuli/Size_stims/M/ketchup/ketchup8.jpg,/static/Size_judgement/Stimuli/Size_stims/XL/dumptruck/dumptruck10.jpg,,1.0,183.5,1.5,,,,,,,,,,,
180,,iti,,html-keyboard-response,180,274073,0.0-1.0-244.0,0,0,1,,,,,,,,,,,,,,,,,,,,,,,,,,184.0,0.5,,,,,,,,,,,
181,,size_choice,,html-keyboard-response,181,275666,0.0-1.0-246.0,0,0,1,,,,,,61.0,61.0,2.0,1500.0,M-XL,0.0,M,XL,2.0,4.0,basketball,tractor,basketball1,tractor1,50.0,180.0,/static/Size_judgement/Stimuli/Size_stims/M/basketball/basketball9.jpg,/static/Size_judgement/Stimuli/Size_stims/XL/tractor/tractor6.jpg,,1.0,185.5,1.5,,,,,,,,,,,
182,,iti,,html-keyboard-response,182,276808,0.0-1.0-248.0,0,0,1,,,,,,,,,,,,,,,,,,,,,,,,,,186.0,0.5,,,,,,,,,,,
183,,size_choice,,html-keyboard-response,183,278666,0.0-1.0-250.0,0,0,1,,,,,,62.0,62.0,2.0,3000.0,L-XL,0.0,L,XL,3.0,4.0,cooler,van,cooler2,van9,1.0,198.0,/static/Size_judgement/Stimuli/Size_stims/L/cooler/cooler9.jpg,/static/Size_judgement/Stimuli/Size_stims/XL/van/van9.jpg,,1.0,187.5,1.5,,,,,,,,,,,
184,,iti,,html-keyboard-response,184,281945,0.0-1.0-252.0,0,0,1,,,,,,,,,,,,,,,,,,,,,,,,,,189.5,2.0,,,,,,,,,,,
185,,size_choice,,html-keyboard-response,185,283769,0.0-1.0-254.0,0,0,1,,,,,,63.0,63.0,2.0,3500.0,S-L,0.0,S,L,1.0,3.0,thread,dishwasher,thread2,dishwasher7,141.0,26.0,/static/Size_judgement/Stimuli/Size_stims/S/thread/thread6.jpg,/static/Size_judgement/Stimuli/Size_stims/L/dishwasher/dishwasher7.jpg,,1.0,191.0,1.5,,,,,,,,,,,
186,,iti,,html-keyboard-response,186,286665,0.0-1.0-256.0,0,0,1,,,,,,,,,,,,,,,,,,,,,,,,,,193.5,2.5,,,,,,,,,,,
187,,size_choice,,html-keyboard-response,187,288720,0.0-1.0-258.0,0,0,1,,,,,,64.0,64.0,2.0,1500.0,M-L,0.0,M,L,2.0,3.0,handsaw,cooler,handsaw8,cooler7,87.0,6.0,/static/Size_judgement/Stimuli/Size_stims/M/handsaw/handsaw7.jpg,/static/Size_judgement/Stimuli/Size_stims/L/cooler/cooler4.jpg,,1.0,195.0,1.5,,,,,,,,,,,
188,,iti,,html-keyboard-response,188,289665,0.0-1.0-260.0,0,0,1,,,,,,,,,,,,,,,,,,,,,,,,,,195.5,0.5,,,,,,,,,,,
189,,size_choice,,html-keyboard-response,189,291666,0.0-1.0-262.0,0,0,1,,,,,,65.0,65.0,2.0,2000.0,M-L,0.0,M,L,2.0,3.0,handsaw,mailbox,handsaw5,mailbox1,84.0,40.0,/static/Size_judgement/Stimuli/Size_stims/M/handsaw/handsaw1.jpg,/static/Size_judgement/Stimuli/Size_stims/L/mailbox/mailbox3.jpg,,1.0,197.0,1.5,,,,,,,,,,,
190,,iti,,html-keyboard-response,190,294124,0.0-1.0-264.0,0,0,1,,,,,,,,,,,,,,,,,,,,,,,,,,198.0,1.0,,,,,,,,,,,
191,,size_choice,,html-keyboard-response,191,295854,0.0-1.0-266.0,0,0,1,,,,,,66.0,66.0,2.0,1000.0,M-XL,1.0,XL,M,4.0,2.0,car,ketchup,car10,ketchup8,159.0,97.0,/static/Size_judgement/Stimuli/Size_stims/XL/car/car9.jpg,/static/Size_judgement/Stimuli/Size_stims/M/ketchup/ketchup5.jpg,,1.0,199.5,1.5,,,,,,,,,,,
192,,iti,,html-keyboard-response,192,296837,0.0-1.0-268.0,0,0,1,,,,,,,,,,,,,,,,,,,,,,,,,,199.5,0.0,,,,,,,,,,,
193,,size_choice,,html-keyboard-response,193,299502,0.0-1.0-270.0,0,0,1,,,,,,67.0,67.0,2.0,1000.0,S-L,1.0,L,S,3.0,1.0,deskchair,thread,deskchair6,thread3,15.0,142.0,/static/Size_judgement/Stimuli/Size_stims/L/deskchair/deskchair5.jpg,/static/Size_judgement/Stimuli/Size_stims/S/thread/thread4.jpg,,1.0,201.0,1.5,,,,,,,,,,,
194,,iti,,html-keyboard-response,194,299735,0.0-1.0-272.0,0,0,1,,,,,,,,,,,,,,,,,,,,,,,,,,201.0,0.0,,,,,,,,,,,
195,,size_choice,,html-keyboard-response,195,301738,0.0-1.0-274.0,0,0,1,,,,,,68.0,68.0,2.0,2000.0,S-XL,0.0,S,XL,1.0,4.0,screws,dumptruck,screws3,dumptruck4,122.0,173.0,/static/Size_judgement/Stimuli/Size_stims/S/screws/screws7.jpg,/static/Size_judgement/Stimuli/Size_stims/XL/dumptruck/dumptruck1.jpg,,1.0,202.5,1.5,,,,,,,,,,,
196,,iti,,html-keyboard-response,196,303665,0.0-1.0-276.0,0,0,1,,,,,,,,,,,,,,,,,,,,,,,,,,203.5,1.0,,,,,,,,,,,
197,,size_choice,,html-keyboard-response,197,305665,0.0-1.0-278.0,0,0,1,,,,,,69.0,69.0,2.0,3000.0,S-XL,0.0,S,XL,1.0,4.0,paperclip,dumptruck,paperclip8,dumptruck7,117.0,176.0,/static/Size_judgement/Stimuli/Size_stims/S/paperclip/paperclip5.jpg,/static/Size_judgement/Stimuli/Size_stims/XL/dumptruck/dumptruck6.jpg,,1.0,205.0,1.5,,,,,,,,,,,
198,,iti,,html-keyboard-response,198,308137,0.0-1.0-280.0,0,0,1,,,,,,,,,,,,,,,,,,,,,,,,,,207.0,2.0,,,,,,,,,,,
199,,size_choice,,html-keyboard-response,199,309640,0.0-1.0-282.0,0,0,1,,,,,,70.0,70.0,2.0,1500.0,S-L,0.0,S,L,1.0,3.0,die,deskchair,die1,deskchair8,100.0,17.0,/static/Size_judgement/Stimuli/Size_stims/S/die/die8.jpg,/static/Size_judgement/Stimuli/Size_stims/L/deskchair/deskchair1.jpg,,1.0,208.5,1.5,,,,,,,,,,,
200,,iti,,html-keyboard-response,200,310143,0.0-1.0-284.0,0,0,1,,,,,,,,,,,,,,,,,,,,,,,,,,209.0,0.5,,,,,,,,,,,
201,,size_choice,,html-keyboard-response,201,310593,0.0-1.0-286.0,0,0,1,,449.0,,,68.0,71.0,71.0,2.0,1500.0,XL-XL,,XL,XL,4.0,4.0,tractor,van,tractor3,van8,182.0,197.0,/static/Size_judgement/Stimuli/Size_stims/XL/tractor/tractor5.jpg,/static/Size_judgement/Stimuli/Size_stims/XL/van/van10.jpg,,,209.449,0.449,1.0,tractor,van,XL,XL,4.0,4.0,tractor3,van8,0.0,
202,,size_choice_confirmation,,html-keyboard-response,202,311648,0.0-1.0-287.0-0.0,0,0,1,,,,,,71.0,,,,,,,,,,,,,,,,,,,,210.5,1.051,,,,,,,,,,,
203,,iti,,html-keyboard-response,203,313151,0.0-1.0-288.0,0,0,1,,,,,,,,,,,,,,,,,,,,,,,,,,212.0,1.5,,,,,,,,,,,
204,,size_choice,,html-keyboard-response,204,313489,0.0-1.0-290.0,0,0,1,,335.0,,,68.0,72.0,72.0,2.0,1500.0,S-XL,0.0,S,XL,1.0,4.0,paperclip,dumptruck,paperclip4,dumptruck5,113.0,174.0,/static/Size_judgement/Stimuli/Size_stims/S/paperclip/paperclip3.jpg,/static/Size_judgement/Stimuli/Size_stims/XL/dumptruck/dumptruck3.jpg,0.0,,212.335,0.335,1.0,paperclip,dumptruck,S,XL,1.0,4.0,paperclip4,dumptruck5,0.0,
205,,size_choice_confirmation,,html-keyboard-response,205,314658,0.0-1.0-291.0-0.0,0,0,1,,,,,,72.0,,,,,,,,,,,,,,,,,,,,213.5,1.165,,,,,,,,,,,
206,,iti,,html-keyboard-response,206,316164,0.0-1.0-292.0,0,0,1,,,,,,,,,,,,,,,,,,,,,,,,,,215.0,1.5,,,,,,,,,,,
207,,size_choice,,html-keyboard-response,207,316673,0.0-1.0-294.0,0,0,1,,509.0,,,68.0,73.0,73.0,2.0,3000.0,M-L,0.0,M,L,2.0,3.0,coffeemaker,dishwasher,coffeemaker6,dishwasher4,65.0,23.0,/static/Size_judgement/Stimuli/Size_stims/M/coffeemaker/coffeemaker8.jpg,/static/Size_judgement/Stimuli/Size_stims/L/dishwasher/dishwasher5.jpg,0.0,,215.509,0.509,1.0,coffeemaker,dishwasher,M,L,2.0,3.0,coffeemaker6,dishwasher4,0.0,
208,,size_choice_confirmation,,html-keyboard-response,208,317668,0.0-1.0-295.0-0.0,0,0,1,,,,,,73.0,,,,,,,,,,,,,,,,,,,,216.5,0.991,,,,,,,,,,,
209,,iti,,html-keyboard-response,209,320670,0.0-1.0-296.0,0,0,1,,,,,,,,,,,,,,,,,,,,,,,,,,219.5,3.0,,,,,,,,,,,
210,,size_choice,,html-keyboard-response,210,321257,0.0-1.0-298.0,0,0,1,,585.0,,,68.0,74.0,74.0,2.0,1500.0,S-XL,1.0,XL,S,4.0,1.0,car,die,car1,die9,150.0,108.0,/static/Size_judgement/Stimuli/Size_stims/XL/car/car2.jpg,/static/Size_judgement/Stimuli/Size_stims/S/die/die7.jpg,1.0,,220.085,0.585,1.0,car,die,XL,S,4.0,1.0,car1,die9,0.0,
211,,size_choice_confirmation,,html-keyboard-response,211,322176,0.0-1.0-299.0-0.0,0,0,1,,,,,,74.0,,,,,,,,,,,,,,,,,,,,221.0,0.915,,,,,,,,,,,
212,,iti,,html-keyboard-response,212,323680,0.0-1.0-300.0,0,0,1,,,,,,,,,,,,,,,,,,,,,,,,,,222.5,1.5,,,,,,,,,,,
213,,size_choice,,html-keyboard-response,213,323735,0.0-1.0-302.0,0,0,1,,53.0,,,68.0,75.0,75.0,2.0,1500.0,M-XL,1.0,XL,M,4.0,2.0,crane,handsaw,crane1,handsaw10,160.0,89.0,/static/Size_judgement/Stimuli/Size_stims/XL/crane/crane7.jpg,/static/Size_judgement/Stimuli/Size_stims/M/handsaw/handsaw10.jpg,1.0,,222.553,0.053,1.0,crane,handsaw,XL,M,4.0,2.0,crane1,handsaw10,0.0,
214,,size_choice_confirmation,,html-keyboard-response,214,325185,0.0-1.0-303.0-0.0,0,0,1,,,,,,75.0,,,,,,,,,,,,,,,,,,,,224.0,1.447,,,,,,,,,,,
215,,iti,,html-keyboard-response,215,326689,0.0-1.0-304.0,0,0,1,,,,,,,,,,,,,,,,,,,,,,,,,,225.5,1.5,,,,,,,,,,,
216,,size_choice,,html-keyboard-response,216,326809,0.0-1.0-306.0,0,0,1,,118.0,,,68.0,76.0,76.0,2.0,1500.0,S-XL,1.0,XL,S,4.0,1.0,tractor,screws,tractor2,screws6,181.0,125.0,/static/Size_judgement/Stimuli/Size_stims/XL/tractor/tractor7.jpg,/static/Size_judgement/Stimuli/Size_stims/S/screws/screws3.jpg,1.0,,225.618,0.118,1.0,tractor,screws,XL,S,4.0,1.0,tractor2,screws6,0.0,
217,,size_choice_confirmation,,html-keyboard-response,217,328196,0.0-1.0-307.0-0.0,0,0,1,,,,,,76.0,,,,,,,,,,,,,,,,,,,,227.0,1.382,,,,,,,,,,,
218,,iti,,html-keyboard-response,218,329698,0.0-1.0-308.0,0,0,1,,,,,,,,,,,,,,,,,,,,,,,,,,228.5,1.5,,,,,,,,,,,
219,,size_choice,,html-keyboard-response,219,330442,0.0-1.0-310.0,0,0,1,,744.0,,,68.0,77.0,77.0,2.0,2000.0,M-L,0.0,M,L,2.0,3.0,coffeemaker,deskchair,coffeemaker4,deskchair5,63.0,14.0,/static/Size_judgement/Stimuli/Size_stims/M/coffeemaker/coffeemaker11.jpg,/static/Size_judgement/Stimuli/Size_stims/L/deskchair/deskchair7.jpg,0.0,,229.244,0.744,1.0,coffeemaker,deskchair,M,L,2.0,3.0,coffeemaker4,deskchair5,0.0,
220,,size_choice_confirmation,,html-keyboard-response,220,331201,0.0-1.0-311.0-0.0,0,0,1,,,,,,77.0,,,,,,,,,,,,,,,,,,,,230.0,0.756,,,,,,,,,,,
221,,iti,,html-keyboard-response,221,333203,0.0-1.0-312.0,0,0,1,,,,,,,,,,,,,,,,,,,,,,,,,,232.0,2.0,,,,,,,,,,,
222,,size_choice,,html-keyboard-response,222,333502,0.0-1.0-314.0,0,0,1,,298.0,,,68.0,78.0,78.0,2.0,1500.0,M-XL,1.0,XL,M,4.0,2.0,dumptruck,coffeemaker,dumptruck10,coffeemaker10,179.0,69.0,/static/Size_judgement/Stimuli/Size_stims/XL/dumptruck/dumptruck4.jpg,/static/Size_judgement/Stimuli/Size_stims/M/coffeemaker/coffeemaker18.jpg,1.0,,232.298,0.298,1.0,dumptruck,coffeemaker,XL,M,4.0,2.0,dumptruck10,coffeemaker10,0.0,
223,,size_choice_confirmation,,html-keyboard-response,223,334711,0.0-1.0-315.0-0.0,0,0,1,,,,,,78.0,,,,,,,,,,,,,,,,,,,,233.5,1.202,,,,,,,,,,,
224,,iti,,html-keyboard-response,224,336216,0.0-1.0-316.0,0,0,1,,,,,,,,,,,,,,,,,,,,,,,,,,235.0,1.5,,,,,,,,,,,
225,,size_choice,,html-keyboard-response,225,336330,0.0-1.0-318.0,0,0,1,,112.0,,,68.0,79.0,79.0,2.0,1000.0,L-L,,L,L,3.0,3.0,mailbox,cooler,mailbox4,cooler6,43.0,5.0,/static/Size_judgement/Stimuli/Size_stims/L/mailbox/mailbox5.jpg,/static/Size_judgement/Stimuli/Size_stims/L/cooler/cooler1.jpg,,,235.112,0.112,1.0,mailbox,cooler,L,L,3.0,3.0,mailbox4,cooler6,0.0,
226,,size_choice_confirmation,,html-keyboard-response,226,337719,0.0-1.0-319.0-0.0,0,0,1,,,,,,79.0,,,,,,,,,,,,,,,,,,,,236.5,1.388,,,,,,,,,,,
227,,iti,,html-keyboard-response,227,338726,0.0-1.0-320.0,0,0,1,,,,,,,,,,,,,,,,,,,,,,,,,,237.5,1.0,,,,,,,,,,,
228,,size_choice,,html-keyboard-response,228,339401,0.0-1.0-322.0,0,0,1,,674.0,,,68.0,80.0,80.0,2.0,1000.0,S-M,0.0,S,M,1.0,2.0,die,basketball,die3,basketball3,102.0,52.0,/static/Size_judgement/Stimuli/Size_stims/S/die/die10.jpg,/static/Size_judgement/Stimuli/Size_stims/M/basketball/basketball10.jpg,0.0,,238.174,0.674,1.0,die,basketball,S,M,1.0,2.0,die3,basketball3,0.0,
229,,size_choice_confirmation,,html-keyboard-response,229,340230,0.0-1.0-323.0-0.0,0,0,1,,,,,,80.0,,,,,,,,,,,,,,,,,,,,239.0,0.826,,,,,,,,,,,
230,,iti,,html-keyboard-response,230,341232,0.0-1.0-324.0,0,0,1,,,,,,,,,,,,,,,,,,,,,,,,,,240.0,1.0,,,,,,,,,,,
231,,size_choice,,html-keyboard-response,231,341554,0.0-1.0-326.0,0,0,1,,321.0,,,68.0,81.0,81.0,2.0,2000.0,S-L,0.0,S,L,1.0,3.0,thread,garbagecan,thread9,garbagecan7,148.0,36.0,/static/Size_judgement/Stimuli/Size_stims/S/thread/thread8.jpg,/static/Size_judgement/Stimuli/Size_stims/L/garbagecan/garbagecan16.jpg,0.0,,240.321,0.321,1.0,thread,garbagecan,S,L,1.0,3.0,thread9,garbagecan7,0.0,
232,,size_choice_confirmation,,html-keyboard-response,232,342735,0.0-1.0-327.0-0.0,0,0,1,,,,,,81.0,,,,,,,,,,,,,,,,,,,,241.5,1.179,,,,,,,,,,,
233,,iti,,html-keyboard-response,233,344737,0.0-1.0-328.0,0,0,1,,,,,,,,,,,,,,,,,,,,,,,,,,243.5,2.0,,,,,,,,,,,
234,,size_choice,,html-keyboard-response,234,344821,0.0-1.0-330.0,0,0,1,,82.0,,,68.0,82.0,82.0,2.0,2000.0,M-XL,1.0,XL,M,4.0,2.0,tractor,basketball,tractor8,basketball8,187.0,57.0,/static/Size_judgement/Stimuli/Size_stims/XL/tractor/tractor10.jpg,/static/Size_judgement/Stimuli/Size_stims/M/basketball/basketball7.jpg,1.0,,243.582,0.082,1.0,tractor,basketball,XL,M,4.0,2.0,tractor8,basketball8,0.0,
235,,size_choice_confirmation,,html-keyboard-response,235,346240,0.0-1.0-331.0-0.0,0,0,1,,,,,,82.0,,,,,,,,,,,,,,,,,,,,245.0,1.418,,,,,,,,,,,
236,,iti,,html-keyboard-response,236,348245,0.0-1.0-332.0,0,0,1,,,,,,,,,,,,,,,,,,,,,,,,,,247.0,2.0,,,,,,,,,,,
237,,size_choice,,html-keyboard-response,237,348838,0.0-1.0-334.0,0,0,1,,591.0,,,68.0,83.0,83.0,2.0,1000.0,S-XL,0.0,S,XL,1.0,4.0,screws,van,screws2,van3,121.0,192.0,/static/Size_judgement/Stimuli/Size_stims/S/screws/screws5.jpg,/static/Size_judgement/Stimuli/Size_stims/XL/van/van6.jpg,0.0,,247.591,0.591,1.0,screws,van,S,XL,1.0,4.0,screws2,van3,0.0,
238,,size_choice_confirmation,,html-keyboard-response,238,349753,0.0-1.0-335.0-0.0,0,0,1,,,,,,83.0,,,,,,,,,,,,,,,,,,,,248.5,0.909,,,,,,,,,,,
239,,iti,,html-keyboard-response,239,350758,0.0-1.0-336.0,0,0,1,,,,,,,,,,,,,,,,,,,,,,,,,,249.5,1.0,,,,,,,,,,,
240,,size_choice,,html-keyboard-response,240,350967,0.0-1.0-338.0,0,0,1,,207.0,,,68.0,84.0,84.0,2.0,1000.0,L-L,,L,L,3.0,3.0,cooler,dishwasher,cooler3,dishwasher9,2.0,28.0,/static/Size_judgement/Stimuli/Size_stims/L/cooler/cooler2.jpg,/static/Size_judgement/Stimuli/Size_stims/L/dishwasher/dishwasher2.jpg,,,249.707,0.207,1.0,cooler,dishwasher,L,L,3.0,3.0,cooler3,dishwasher9,0.0,
241,,size_choice_confirmation,,html-keyboard-response,241,352262,0.0-1.0-339.0-0.0,0,0,1,,,,,,84.0,,,,,,,,,,,,,,,,,,,,251.0,1.293,,,,,,,,,,,
242,,iti,,html-keyboard-response,242,353267,0.0-1.0-340.0,0,0,1,,,,,,,,,,,,,,,,,,,,,,,,,,252.0,1.0,,,,,,,,,,,
243,,size_choice,,html-keyboard-response,243,354217,0.0-1.0-342.0,0,0,1,,949.0,,,68.0,85.0,85.0,2.0,1000.0,M-M,,M,M,2.0,2.0,hairdryer,handsaw,hairdryer10,handsaw2,79.0,81.0,/static/Size_judgement/Stimuli/Size_stims/M/hairdryer/hairdryer6.jpg,/static/Size_judgement/Stimuli/Size_stims/M/handsaw/handsaw9.jpg,,,252.949,0.949,1.0,hairdryer,handsaw,M,M,2.0,2.0,hairdryer10,handsaw2,0.0,
244,,size_choice_confirmation,,html-keyboard-response,244,354771,0.0-1.0-343.0-0.0,0,0,1,,,,,,85.0,,,,,,,,,,,,,,,,,,,,253.5,0.551,,,,,,,,,,,
245,,iti,,html-keyboard-response,245,355774,0.0-1.0-344.0,0,0,1,,,,,,,,,,,,,,,,,,,,,,,,,,254.5,1.0,,,,,,,,,,,
246,,size_choice,,html-keyboard-response,246,356832,0.0-1.0-346.0,0,0,1,,1056.0,,,68.0,86.0,86.0,2.0,1000.0,L-XL,0.0,L,XL,3.0,4.0,garbagecan,crane,garbagecan6,crane2,35.0,161.0,/static/Size_judgement/Stimuli/Size_stims/L/garbagecan/garbagecan14.jpg,/static/Size_judgement/Stimuli/Size_stims/XL/crane/crane6.jpg,0.0,,255.556,1.056,1.0,garbagecan,crane,L,XL,3.0,4.0,garbagecan6,crane2,0.0,
247,,size_choice_confirmation,,html-keyboard-response,247,357282,0.0-1.0-347.0-0.0,0,0,1,,,,,,86.0,,,,,,,,,,,,,,,,,,,,256.0,0.444,,,,,,,,,,,
248,,iti,,html-keyboard-response,248,358287,0.0-1.0-348.0,0,0,1,,,,,,,,,,,,,,,,,,,,,,,,,,257.0,1.0,,,,,,,,,,,
249,,size_choice,,html-keyboard-response,249,359273,0.0-1.0-350.0,0,0,1,,985.0,,,68.0,87.0,87.0,2.0,1000.0,XL-XL,,XL,XL,4.0,4.0,car,tractor,car2,tractor10,151.0,189.0,/static/Size_judgement/Stimuli/Size_stims/XL/car/car3.jpg,/static/Size_judgement/Stimuli/Size_stims/XL/tractor/tractor8.jpg,,,257.985,0.985,1.0,car,tractor,XL,XL,4.0,4.0,car2,tractor10,0.0,
250,,size_choice_confirmation,,html-keyboard-response,250,359790,0.0-1.0-351.0-0.0,0,0,1,,,,,,87.0,,,,,,,,,,,,,,,,,,,,258.5,0.515,,,,,,,,,,,
251,,iti,,html-keyboard-response,251,360796,0.0-1.0-352.0,0,0,1,,,,,,,,,,,,,,,,,,,,,,,,,,259.5,1.0,,,,,,,,,,,
252,,size_choice,,html-keyboard-response,252,361376,0.0-1.0-354.0,0,0,1,,578.0,,,68.0,88.0,88.0,2.0,1000.0,S-L,1.0,L,S,3.0,1.0,deskchair,screws,deskchair7,screws10,16.0,129.0,/static/Size_judgement/Stimuli/Size_stims/L/deskchair/deskchair4.jpg,/static/Size_judgement/Stimuli/Size_stims/S/screws/screws9.jpg,1.0,,260.078,0.578,1.0,deskchair,screws,L,S,3.0,1.0,deskchair7,screws10,0.0,
253,,size_choice_confirmation,,html-keyboard-response,253,362302,0.0-1.0-355.0-0.0,0,0,1,,,,,,88.0,,,,,,,,,,,,,,,,,,,,261.0,0.922,,,,,,,,,,,
254,,iti,,html-keyboard-response,254,363307,0.0-1.0-356.0,0,0,1,,,,,,,,,,,,,,,,,,,,,,,,,,262.0,1.0,,,,,,,,,,,
255,,size_choice,,html-keyboard-response,255,364565,0.0-1.0-358.0,0,0,1,,1257.0,,,68.0,89.0,89.0,2.0,3500.0,S-L,1.0,L,S,3.0,1.0,garbagecan,teabag,garbagecan1,teabag4,30.0,133.0,/static/Size_judgement/Stimuli/Size_stims/L/garbagecan/garbagecan4.jpg,/static/Size_judgement/Stimuli/Size_stims/S/teabag/teabag3.jpg,1.0,,263.257,1.257,1.0,garbagecan,teabag,L,S,3.0,1.0,garbagecan1,teabag4,0.0,
256,,size_choice_confirmation,,html-keyboard-response,256,364813,0.0-1.0-359.0-0.0,0,0,1,,,,,,89.0,,,,,,,,,,,,,,,,,,,,263.5,0.243,,,,,,,,,,,
257,,iti,,html-keyboard-response,257,368317,0.0-1.0-360.0,0,0,1,,,,,,,,,,,,,,,,,,,,,,,,,,267.0,3.5,,,,,,,,,,,0.5
258,,size_final_tally,,html-keyboard-response,258,368687,0.0-2.0,0,0,1,,368.0,,,68.0,,,,,,,,,,,,,,,,,,,,,,,,,,,,,,,,,
