,success,ttype,start_time,trial_type,trial_index,time_elapsed,internal_node_id,warning,missed_checkup,PID,view_history,rt,responses,repeat_instructions,key_press,index,trial_num,block,iti,pair_type,high_size_on_left,left_size_group,right_size_group,left_size_num,right_size_num,left_category,right_category,left_exemplar,right_exemplar,left_index,right_index,left_img_path,right_img_path,left_chosen,chosen_category,unchosen_category,chosen_size_group,unchosen_size_group,chosen_size_num,unchosen_size_num,chosen_exemplar,unchosen_exemplar,accuracy,no_response,onset,duration,no_resposne,size_final_tally
0,True,full_screen,d05312022hr2028,fullscreen,0,3451,0.0-0.0,0,0,96511,,,,,,,,,,,,,,,,,,,,,,,,,,,,,,,,,,,,,,
1,,size_instructions,,instructions,1,37309,0.0-1.0-0.0-0.0,0,0,96511,"[{""page_index"":0,""viewing_time"":3088},{""page_index"":1,""viewing_time"":5173},{""page_index"":2,""viewing_time"":6654},{""page_index"":3,""viewing_time"":3941},{""page_index"":4,""viewing_time"":12075},{""page_index"":5,""viewing_time"":2926}]",33858.0,,,,,,,,,,,,,,,,,,,,,,,,,,,,,,,,,,,,
2,,size_comprehension_check,,survey-multi-choice,2,47698,0.0-1.0-0.0-1.0,0,0,96511,,10387.0,"{""Q0"":""True"",""Q1"":""Size in the real world"",""Q2"":""True"",""Q3"":""D for left and K for right""}",0.0,,,,,,,,,,,,,,,,,,,,,,,,,,,,,,,,,,
3,,,,html-keyboard-response,3,48754,0.0-1.0-1.0,0,0,96511,,1050.0,,,68.0,,,,,,,,,,,,,,,,,,,,,,,,,,,,,,,,,
4,,size_choice,,html-keyboard-response,4,49570,0.0-1.0-2.0,0,0,96511,,814.0,,,68.0,0.0,0.0,1.0,1500.0,S-M,0.0,S,M,1.0,2.0,die,basketball,die2,basketball9,101.0,58.0,/static/Size_judgement/Stimuli/Size_stims/S/die/die9.jpg,/static/Size_judgement/Stimuli/Size_stims/M/basketball/basketball5.jpg,1.0,die,basketball,S,M,1.0,2.0,die2,basketball9,0.0,0.0,0.814,0.814,,
5,,size_choice_confirmation,,html-keyboard-response,5,50261,0.0-1.0-3.0-0.0,0,0,96511,,,,,,0.0,,,,,,,,,,,,,,,,,,,,,,,,,,,,,1.5,0.686,,
6,,iti,,html-keyboard-response,6,51765,0.0-1.0-4.0,0,0,96511,,,,,,,,,,,,,,,,,,,,,,,,,,,,,,,,,,,3.0,1.5,,
7,,size_choice,,html-keyboard-response,7,52434,0.0-1.0-6.0,0,0,96511,,667.0,,,75.0,1.0,1.0,1.0,1500.0,S-L,1.0,L,S,3.0,1.0,cooler,die,cooler7,die7,6.0,106.0,/static/Size_judgement/Stimuli/Size_stims/L/cooler/cooler4.jpg,/static/Size_judgement/Stimuli/Size_stims/S/die/die4.jpg,0.0,die,cooler,S,L,1.0,3.0,die7,cooler7,0.0,0.0,3.667,0.667,,
8,,size_choice_confirmation,,html-keyboard-response,8,53270,0.0-1.0-7.0-0.0,0,0,96511,,,,,,1.0,,,,,,,,,,,,,,,,,,,,,,,,,,,,,4.5,0.833,,
9,,iti,,html-keyboard-response,9,54773,0.0-1.0-8.0,0,0,96511,,,,,,,,,,,,,,,,,,,,,,,,,,,,,,,,,,,6.0,1.5,,
10,,size_choice,,html-keyboard-response,10,55201,0.0-1.0-10.0,0,0,96511,,427.0,,,68.0,2.0,2.0,1.0,3000.0,M-XL,1.0,XL,M,4.0,2.0,car,hairdryer,car3,hairdryer4,152.0,73.0,/static/Size_judgement/Stimuli/Size_stims/XL/car/car4.jpg,/static/Size_judgement/Stimuli/Size_stims/M/hairdryer/hairdryer16.jpg,1.0,car,hairdryer,XL,M,4.0,2.0,car3,hairdryer4,1.0,0.0,6.427,0.427,,
11,,size_choice_confirmation,,html-keyboard-response,11,56278,0.0-1.0-11.0-0.0,0,0,96511,,,,,,2.0,,,,,,,,,,,,,,,,,,,,,,,,,,,,,7.5,1.073,,
12,,iti,,html-keyboard-response,12,59280,0.0-1.0-12.0,0,0,96511,,,,,,,,,,,,,,,,,,,,,,,,,,,,,,,,,,,10.5,3.0,,
13,,size_choice,,html-keyboard-response,13,59932,0.0-1.0-14.0,0,0,96511,,651.0,,,68.0,3.0,3.0,1.0,1000.0,M-L,1.0,L,M,3.0,2.0,garbagecan,ketchup,garbagecan10,ketchup8,39.0,97.0,/static/Size_judgement/Stimuli/Size_stims/L/garbagecan/garbagecan11.jpg,/static/Size_judgement/Stimuli/Size_stims/M/ketchup/ketchup5.jpg,1.0,garbagecan,ketchup,L,M,3.0,2.0,garbagecan10,ketchup8,1.0,0.0,11.151,0.651,,
14,,size_choice_confirmation,,html-keyboard-response,14,60784,0.0-1.0-15.0-0.0,0,0,96511,,,,,,3.0,,,,,,,,,,,,,,,,,,,,,,,,,,,,,12.0,0.849,,
15,,iti,,html-keyboard-response,15,61787,0.0-1.0-16.0,0,0,96511,,,,,,,,,,,,,,,,,,,,,,,,,,,,,,,,,,,13.0,1.0,,
16,,size_choice,,html-keyboard-response,16,62959,0.0-1.0-18.0,0,0,96511,,1171.0,,,68.0,4.0,4.0,1.0,2000.0,S-S,,S,S,1.0,1.0,thread,teabag,thread6,teabag4,145.0,133.0,/static/Size_judgement/Stimuli/Size_stims/S/thread/thread2.jpg,/static/Size_judgement/Stimuli/Size_stims/S/teabag/teabag3.jpg,1.0,thread,teabag,S,S,1.0,1.0,thread6,teabag4,,0.0,14.171,1.171,,
17,,size_choice_confirmation,,html-keyboard-response,17,63291,0.0-1.0-19.0-0.0,0,0,96511,,,,,,4.0,,,,,,,,,,,,,,,,,,,,,,,,,,,,,14.5,0.329,,
18,,iti,,html-keyboard-response,18,65291,0.0-1.0-20.0,0,0,96511,,,,,,,,,,,,,,,,,,,,,,,,,,,,,,,,,,,16.5,2.0,,
19,,size_choice,,html-keyboard-response,19,66197,0.0-1.0-22.0,0,0,96511,,905.0,,,68.0,5.0,5.0,1.0,3000.0,M-XL,1.0,XL,M,4.0,2.0,tractor,ketchup,tractor8,ketchup1,187.0,90.0,/static/Size_judgement/Stimuli/Size_stims/XL/tractor/tractor10.jpg,/static/Size_judgement/Stimuli/Size_stims/M/ketchup/ketchup8.jpg,1.0,tractor,ketchup,XL,M,4.0,2.0,tractor8,ketchup1,1.0,0.0,17.405,0.905,,
20,,size_choice_confirmation,,html-keyboard-response,20,66795,0.0-1.0-23.0-0.0,0,0,96511,,,,,,5.0,,,,,,,,,,,,,,,,,,,,,,,,,,,,,18.0,0.595,,
21,,iti,,html-keyboard-response,21,69798,0.0-1.0-24.0,0,0,96511,,,,,,,,,,,,,,,,,,,,,,,,,,,,,,,,,,,21.0,3.0,,
22,,size_choice,,html-keyboard-response,22,71055,0.0-1.0-26.0,0,0,96511,,1256.0,,,75.0,6.0,6.0,1.0,1000.0,S-S,,S,S,1.0,1.0,paperclip,teabag,paperclip3,teabag2,112.0,131.0,/static/Size_judgement/Stimuli/Size_stims/S/paperclip/paperclip1.jpg,/static/Size_judgement/Stimuli/Size_stims/S/teabag/teabag8.jpg,0.0,teabag,paperclip,S,S,1.0,1.0,teabag2,paperclip3,,0.0,22.256,1.256,,
23,,size_choice_confirmation,,html-keyboard-response,23,71302,0.0-1.0-27.0-0.0,0,0,96511,,,,,,6.0,,,,,,,,,,,,,,,,,,,,,,,,,,,,,22.5,0.244,,
24,,iti,,html-keyboard-response,24,72305,0.0-1.0-28.0,0,0,96511,,,,,,,,,,,,,,,,,,,,,,,,,,,,,,,,,,,23.5,1.0,,
25,,size_choice,,html-keyboard-response,25,73215,0.0-1.0-30.0,0,0,96511,,910.0,,,75.0,7.0,7.0,1.0,1000.0,S-M,0.0,S,M,1.0,2.0,paperclip,hairdryer,paperclip1,hairdryer6,110.0,75.0,/static/Size_judgement/Stimuli/Size_stims/S/paperclip/paperclip9.jpg,/static/Size_judgement/Stimuli/Size_stims/M/hairdryer/hairdryer8.jpg,0.0,hairdryer,paperclip,M,S,2.0,1.0,hairdryer6,paperclip1,1.0,0.0,24.41,0.91,,
26,,size_choice_confirmation,,html-keyboard-response,26,73809,0.0-1.0-31.0-0.0,0,0,96511,,,,,,7.0,,,,,,,,,,,,,,,,,,,,,,,,,,,,,25.0,0.59,,
27,,iti,,html-keyboard-response,27,74811,0.0-1.0-32.0,0,0,96511,,,,,,,,,,,,,,,,,,,,,,,,,,,,,,,,,,,26.0,1.0,,
28,,size_choice,,html-keyboard-response,28,75710,0.0-1.0-34.0,0,0,96511,,898.0,,,68.0,8.0,8.0,1.0,1500.0,S-L,1.0,L,S,3.0,1.0,garbagecan,die,garbagecan6,die4,35.0,103.0,/static/Size_judgement/Stimuli/Size_stims/L/garbagecan/garbagecan14.jpg,/static/Size_judgement/Stimuli/Size_stims/S/die/die2.jpg,1.0,garbagecan,die,L,S,3.0,1.0,garbagecan6,die4,1.0,0.0,26.898,0.898,,
29,,size_choice_confirmation,,html-keyboard-response,29,76315,0.0-1.0-35.0-0.0,0,0,96511,,,,,,8.0,,,,,,,,,,,,,,,,,,,,,,,,,,,,,27.5,0.602,,
30,,iti,,html-keyboard-response,30,77819,0.0-1.0-36.0,0,0,96511,,,,,,,,,,,,,,,,,,,,,,,,,,,,,,,,,,,29.0,1.5,,
31,,size_choice,,html-keyboard-response,31,78902,0.0-1.0-38.0,0,0,96511,,1082.0,,,68.0,9.0,9.0,1.0,1000.0,L-L,,L,L,3.0,3.0,garbagecan,deskchair,garbagecan8,deskchair6,37.0,15.0,/static/Size_judgement/Stimuli/Size_stims/L/garbagecan/garbagecan13.jpg,/static/Size_judgement/Stimuli/Size_stims/L/deskchair/deskchair5.jpg,1.0,garbagecan,deskchair,L,L,3.0,3.0,garbagecan8,deskchair6,,0.0,30.082,1.082,,
32,,size_choice_confirmation,,html-keyboard-response,32,79323,0.0-1.0-39.0-0.0,0,0,96511,,,,,,9.0,,,,,,,,,,,,,,,,,,,,,,,,,,,,,30.5,0.418,,
33,,iti,,html-keyboard-response,33,80326,0.0-1.0-40.0,0,0,96511,,,,,,,,,,,,,,,,,,,,,,,,,,,,,,,,,,,31.5,1.0,,
34,,size_choice,,html-keyboard-response,34,81152,0.0-1.0-42.0,0,0,96511,,825.0,,,68.0,10.0,10.0,1.0,1000.0,S-XL,1.0,XL,S,4.0,1.0,crane,screws,crane7,screws3,166.0,122.0,/static/Size_judgement/Stimuli/Size_stims/XL/crane/crane3.jpg,/static/Size_judgement/Stimuli/Size_stims/S/screws/screws7.jpg,1.0,crane,screws,XL,S,4.0,1.0,crane7,screws3,1.0,0.0,32.325,0.825,,
35,,size_choice_confirmation,,html-keyboard-response,35,81832,0.0-1.0-43.0-0.0,0,0,96511,,,,,,10.0,,,,,,,,,,,,,,,,,,,,,,,,,,,,,33.0,0.675,,
36,,iti,,html-keyboard-response,36,82832,0.0-1.0-44.0,0,0,96511,,,,,,,,,,,,,,,,,,,,,,,,,,,,,,,,,,,34.0,1.0,,
37,,size_choice,,html-keyboard-response,37,83937,0.0-1.0-46.0,0,0,96511,,1104.0,,,68.0,11.0,11.0,1.0,2000.0,M-L,1.0,L,M,3.0,2.0,deskchair,coffeemaker,deskchair1,coffeemaker3,10.0,62.0,/static/Size_judgement/Stimuli/Size_stims/L/deskchair/deskchair9.jpg,/static/Size_judgement/Stimuli/Size_stims/M/coffeemaker/coffeemaker13.jpg,1.0,deskchair,coffeemaker,L,M,3.0,2.0,deskchair1,coffeemaker3,1.0,0.0,35.104,1.104,,
38,,size_choice_confirmation,,html-keyboard-response,38,84337,0.0-1.0-47.0-0.0,0,0,96511,,,,,,11.0,,,,,,,,,,,,,,,,,,,,,,,,,,,,,35.5,0.396,,
39,,iti,,html-keyboard-response,39,86342,0.0-1.0-48.0,0,0,96511,,,,,,,,,,,,,,,,,,,,,,,,,,,,,,,,,,,37.5,2.0,,
40,,size_choice,,html-keyboard-response,40,87283,0.0-1.0-50.0,0,0,96511,,941.0,,,75.0,12.0,12.0,1.0,3500.0,L-L,,L,L,3.0,3.0,deskchair,garbagecan,deskchair2,garbagecan5,11.0,34.0,/static/Size_judgement/Stimuli/Size_stims/L/deskchair/deskchair8.jpg,/static/Size_judgement/Stimuli/Size_stims/L/garbagecan/garbagecan3.jpg,0.0,garbagecan,deskchair,L,L,3.0,3.0,garbagecan5,deskchair2,,0.0,38.441,0.941,,
41,,size_choice_confirmation,,html-keyboard-response,41,87846,0.0-1.0-51.0-0.0,0,0,96511,,,,,,12.0,,,,,,,,,,,,,,,,,,,,,,,,,,,,,39.0,0.559,,
42,,iti,,html-keyboard-response,42,91350,0.0-1.0-52.0,0,0,96511,,,,,,,,,,,,,,,,,,,,,,,,,,,,,,,,,,,42.5,3.5,,
43,,size_choice,,html-keyboard-response,43,92163,0.0-1.0-54.0,0,0,96511,,812.0,,,68.0,13.0,13.0,1.0,3500.0,M-L,1.0,L,M,3.0,2.0,dishwasher,coffeemaker,dishwasher6,coffeemaker7,25.0,66.0,/static/Size_judgement/Stimuli/Size_stims/L/dishwasher/dishwasher6.jpg,/static/Size_judgement/Stimuli/Size_stims/M/coffeemaker/coffeemaker9.jpg,1.0,dishwasher,coffeemaker,L,M,3.0,2.0,dishwasher6,coffeemaker7,1.0,0.0,43.312,0.812,,
44,,size_choice_confirmation,,html-keyboard-response,44,92854,0.0-1.0-55.0-0.0,0,0,96511,,,,,,13.0,,,,,,,,,,,,,,,,,,,,,,,,,,,,,44.0,0.688,,
45,,iti,,html-keyboard-response,45,96358,0.0-1.0-56.0,0,0,96511,,,,,,,,,,,,,,,,,,,,,,,,,,,,,,,,,,,47.5,3.5,,
46,,size_choice,,html-keyboard-response,46,97146,0.0-1.0-58.0,0,0,96511,,787.0,,,75.0,14.0,14.0,1.0,1000.0,S-L,0.0,S,L,1.0,3.0,screws,deskchair,screws5,deskchair3,124.0,12.0,/static/Size_judgement/Stimuli/Size_stims/S/screws/screws2.jpg,/static/Size_judgement/Stimuli/Size_stims/L/deskchair/deskchair10.jpg,0.0,deskchair,screws,L,S,3.0,1.0,deskchair3,screws5,1.0,0.0,48.287,0.787,,
47,,size_choice_confirmation,,html-keyboard-response,47,97862,0.0-1.0-59.0-0.0,0,0,96511,,,,,,14.0,,,,,,,,,,,,,,,,,,,,,,,,,,,,,49.0,0.713,,
48,,iti,,html-keyboard-response,48,98865,0.0-1.0-60.0,0,0,96511,,,,,,,,,,,,,,,,,,,,,,,,,,,,,,,,,,,50.0,1.0,,
49,,size_choice,,html-keyboard-response,49,99983,0.0-1.0-62.0,0,0,96511,,1117.0,,,68.0,15.0,15.0,1.0,2000.0,L-XL,1.0,XL,L,4.0,3.0,van,dishwasher,van9,dishwasher10,198.0,29.0,/static/Size_judgement/Stimuli/Size_stims/XL/van/van9.jpg,/static/Size_judgement/Stimuli/Size_stims/L/dishwasher/dishwasher1.jpg,1.0,van,dishwasher,XL,L,4.0,3.0,van9,dishwasher10,1.0,0.0,51.117,1.117,,
50,,size_choice_confirmation,,html-keyboard-response,50,100367,0.0-1.0-63.0-0.0,0,0,96511,,,,,,15.0,,,,,,,,,,,,,,,,,,,,,,,,,,,,,51.5,0.383,,
51,,iti,,html-keyboard-response,51,102369,0.0-1.0-64.0,0,0,96511,,,,,,,,,,,,,,,,,,,,,,,,,,,,,,,,,,,53.5,2.0,,
52,,size_choice,,html-keyboard-response,52,103757,0.0-1.0-66.0,0,0,96511,,1387.0,,,68.0,16.0,16.0,1.0,1500.0,S-S,,S,S,1.0,1.0,die,screws,die3,screws8,102.0,127.0,/static/Size_judgement/Stimuli/Size_stims/S/die/die10.jpg,/static/Size_judgement/Stimuli/Size_stims/S/screws/screws10.jpg,1.0,die,screws,S,S,1.0,1.0,die3,screws8,,0.0,54.887,1.387,,
53,,size_choice_confirmation,,html-keyboard-response,53,103873,0.0-1.0-67.0-0.0,0,0,96511,,,,,,16.0,,,,,,,,,,,,,,,,,,,,,,,,,,,,,55.0,0.113,,
54,,iti,,html-keyboard-response,54,105377,0.0-1.0-68.0,0,0,96511,,,,,,,,,,,,,,,,,,,,,,,,,,,,,,,,,,,56.5,1.5,,
55,,size_choice,,html-keyboard-response,55,106408,0.0-1.0-70.0,0,0,96511,,1030.0,,,75.0,17.0,17.0,1.0,1500.0,M-M,,M,M,2.0,2.0,ketchup,handsaw,ketchup2,handsaw8,91.0,87.0,/static/Size_judgement/Stimuli/Size_stims/M/ketchup/ketchup9.jpg,/static/Size_judgement/Stimuli/Size_stims/M/handsaw/handsaw7.jpg,0.0,handsaw,ketchup,M,M,2.0,2.0,handsaw8,ketchup2,,0.0,57.53,1.03,,
56,,size_choice_confirmation,,html-keyboard-response,56,106881,0.0-1.0-71.0-0.0,0,0,96511,,,,,,17.0,,,,,,,,,,,,,,,,,,,,,,,,,,,,,58.0,0.47,,
57,,iti,,html-keyboard-response,57,108385,0.0-1.0-72.0,0,0,96511,,,,,,,,,,,,,,,,,,,,,,,,,,,,,,,,,,,59.5,1.5,,
58,,size_choice,,html-keyboard-response,58,109484,0.0-1.0-74.0,0,0,96511,,1097.0,,,68.0,18.0,18.0,1.0,1000.0,M-L,1.0,L,M,3.0,2.0,cooler,basketball,cooler4,basketball6,3.0,55.0,/static/Size_judgement/Stimuli/Size_stims/L/cooler/cooler3.jpg,/static/Size_judgement/Stimuli/Size_stims/M/basketball/basketball2.jpg,1.0,cooler,basketball,L,M,3.0,2.0,cooler4,basketball6,1.0,0.0,60.597,1.097,,
59,,size_choice_confirmation,,html-keyboard-response,59,109889,0.0-1.0-75.0-0.0,0,0,96511,,,,,,18.0,,,,,,,,,,,,,,,,,,,,,,,,,,,,,61.0,0.403,,
60,,iti,,html-keyboard-response,60,110892,0.0-1.0-76.0,0,0,96511,,,,,,,,,,,,,,,,,,,,,,,,,,,,,,,,,,,62.0,1.0,,
61,,size_choice,,html-keyboard-response,61,111711,0.0-1.0-78.0,0,0,96511,,817.0,,,68.0,19.0,19.0,1.0,1500.0,S-XL,1.0,XL,S,4.0,1.0,tractor,teabag,tractor6,teabag10,185.0,139.0,/static/Size_judgement/Stimuli/Size_stims/XL/tractor/tractor3.jpg,/static/Size_judgement/Stimuli/Size_stims/S/teabag/teabag4.jpg,1.0,tractor,teabag,XL,S,4.0,1.0,tractor6,teabag10,1.0,0.0,62.817,0.817,,
62,,size_choice_confirmation,,html-keyboard-response,62,112396,0.0-1.0-79.0-0.0,0,0,96511,,,,,,19.0,,,,,,,,,,,,,,,,,,,,,,,,,,,,,63.5,0.683,,
63,,iti,,html-keyboard-response,63,113900,0.0-1.0-80.0,0,0,96511,,,,,,,,,,,,,,,,,,,,,,,,,,,,,,,,,,,65.0,1.5,,
64,,size_choice,,html-keyboard-response,64,115015,0.0-1.0-82.0,0,0,96511,,1113.0,,,75.0,20.0,20.0,1.0,2000.0,M-XL,0.0,M,XL,2.0,4.0,handsaw,tractor,handsaw1,tractor2,80.0,181.0,/static/Size_judgement/Stimuli/Size_stims/M/handsaw/handsaw8.jpg,/static/Size_judgement/Stimuli/Size_stims/XL/tractor/tractor7.jpg,0.0,tractor,handsaw,XL,M,4.0,2.0,tractor2,handsaw1,1.0,0.0,66.113,1.113,,
65,,size_choice_confirmation,,html-keyboard-response,65,115403,0.0-1.0-83.0-0.0,0,0,96511,,,,,,20.0,,,,,,,,,,,,,,,,,,,,,,,,,,,,,66.5,0.387,,
66,,iti,,html-keyboard-response,66,117405,0.0-1.0-84.0,0,0,96511,,,,,,,,,,,,,,,,,,,,,,,,,,,,,,,,,,,68.5,2.0,,
67,,size_choice,,html-keyboard-response,67,118328,0.0-1.0-86.0,0,0,96511,,923.0,,,68.0,21.0,21.0,1.0,1000.0,L-L,,L,L,3.0,3.0,mailbox,garbagecan,mailbox2,garbagecan7,41.0,36.0,/static/Size_judgement/Stimuli/Size_stims/L/mailbox/mailbox2.jpg,/static/Size_judgement/Stimuli/Size_stims/L/garbagecan/garbagecan16.jpg,1.0,mailbox,garbagecan,L,L,3.0,3.0,mailbox2,garbagecan7,,0.0,69.423,0.923,,
68,,size_choice_confirmation,,html-keyboard-response,68,118909,0.0-1.0-87.0-0.0,0,0,96511,,,,,,21.0,,,,,,,,,,,,,,,,,,,,,,,,,,,,,70.0,0.577,,
69,,iti,,html-keyboard-response,69,119912,0.0-1.0-88.0,0,0,96511,,,,,,,,,,,,,,,,,,,,,,,,,,,,,,,,,,,71.0,1.0,,
70,,size_choice,,html-keyboard-response,70,121340,0.0-1.0-90.0,0,0,96511,,1428.0,,,75.0,22.0,22.0,1.0,2000.0,M-M,,M,M,2.0,2.0,ketchup,hairdryer,ketchup5,hairdryer5,94.0,74.0,/static/Size_judgement/Stimuli/Size_stims/M/ketchup/ketchup3.jpg,/static/Size_judgement/Stimuli/Size_stims/M/hairdryer/hairdryer15.jpg,0.0,hairdryer,ketchup,M,M,2.0,2.0,hairdryer5,ketchup5,,0.0,72.428,1.428,,
71,,size_choice_confirmation,,html-keyboard-response,71,121415,0.0-1.0-91.0-0.0,0,0,96511,,,,,,22.0,,,,,,,,,,,,,,,,,,,,,,,,,,,,,72.5,0.072,,
72,,iti,,html-keyboard-response,72,123420,0.0-1.0-92.0,0,0,96511,,,,,,,,,,,,,,,,,,,,,,,,,,,,,,,,,,,74.5,2.0,,
73,,size_choice,,html-keyboard-response,73,124268,0.0-1.0-94.0,0,0,96511,,847.0,,,68.0,23.0,23.0,1.0,1000.0,M-XL,1.0,XL,M,4.0,2.0,crane,basketball,crane6,basketball5,165.0,54.0,/static/Size_judgement/Stimuli/Size_stims/XL/crane/crane2.jpg,/static/Size_judgement/Stimuli/Size_stims/M/basketball/basketball3.jpg,1.0,crane,basketball,XL,M,4.0,2.0,crane6,basketball5,1.0,0.0,75.347,0.847,,
74,,size_choice_confirmation,,html-keyboard-response,74,124926,0.0-1.0-95.0-0.0,0,0,96511,,,,,,23.0,,,,,,,,,,,,,,,,,,,,,,,,,,,,,76.0,0.653,,
75,,iti,,html-keyboard-response,75,125927,0.0-1.0-96.0,0,0,96511,,,,,,,,,,,,,,,,,,,,,,,,,,,,,,,,,,,77.0,1.0,,
76,,size_choice,,html-keyboard-response,76,126831,0.0-1.0-98.0,0,0,96511,,903.0,,,75.0,24.0,24.0,1.0,2000.0,M-XL,0.0,M,XL,2.0,4.0,coffeemaker,tractor,coffeemaker5,tractor9,64.0,188.0,/static/Size_judgement/Stimuli/Size_stims/M/coffeemaker/coffeemaker10.jpg,/static/Size_judgement/Stimuli/Size_stims/XL/tractor/tractor9.jpg,0.0,tractor,coffeemaker,XL,M,4.0,2.0,tractor9,coffeemaker5,1.0,0.0,77.903,0.903,,
77,,size_choice_confirmation,,html-keyboard-response,77,127431,0.0-1.0-99.0-0.0,0,0,96511,,,,,,24.0,,,,,,,,,,,,,,,,,,,,,,,,,,,,,78.5,0.597,,
78,,iti,,html-keyboard-response,78,129436,0.0-1.0-100.0,0,0,96511,,,,,,,,,,,,,,,,,,,,,,,,,,,,,,,,,,,80.5,2.0,,
79,,size_choice,,html-keyboard-response,79,130244,0.0-1.0-102.0,0,0,96511,,807.0,,,68.0,25.0,25.0,1.0,1000.0,L-XL,1.0,XL,L,4.0,3.0,dumptruck,dishwasher,dumptruck10,dishwasher7,179.0,26.0,/static/Size_judgement/Stimuli/Size_stims/XL/dumptruck/dumptruck4.jpg,/static/Size_judgement/Stimuli/Size_stims/L/dishwasher/dishwasher7.jpg,1.0,dumptruck,dishwasher,XL,L,4.0,3.0,dumptruck10,dishwasher7,1.0,0.0,81.307,0.807,,
80,,size_choice_confirmation,,html-keyboard-response,80,130940,0.0-1.0-103.0-0.0,0,0,96511,,,,,,25.0,,,,,,,,,,,,,,,,,,,,,,,,,,,,,82.0,0.693,,
81,,iti,,html-keyboard-response,81,131945,0.0-1.0-104.0,0,0,96511,,,,,,,,,,,,,,,,,,,,,,,,,,,,,,,,,,,83.0,1.0,,
82,,size_choice,,html-keyboard-response,82,132804,0.0-1.0-106.0,0,0,96511,,858.0,,,68.0,26.0,26.0,1.0,1000.0,S-XL,1.0,XL,S,4.0,1.0,dumptruck,die,dumptruck4,die1,173.0,100.0,/static/Size_judgement/Stimuli/Size_stims/XL/dumptruck/dumptruck1.jpg,/static/Size_judgement/Stimuli/Size_stims/S/die/die8.jpg,1.0,dumptruck,die,XL,S,4.0,1.0,dumptruck4,die1,1.0,0.0,83.858,0.858,,
83,,size_choice_confirmation,,html-keyboard-response,83,133452,0.0-1.0-107.0-0.0,0,0,96511,,,,,,26.0,,,,,,,,,,,,,,,,,,,,,,,,,,,,,84.5,0.642,,
84,,iti,,html-keyboard-response,84,134454,0.0-1.0-108.0,0,0,96511,,,,,,,,,,,,,,,,,,,,,,,,,,,,,,,,,,,85.5,1.0,,
85,,size_choice,,html-keyboard-response,85,135285,0.0-1.0-110.0,0,0,96511,,830.0,,,75.0,27.0,27.0,1.0,1500.0,M-XL,0.0,M,XL,2.0,4.0,coffeemaker,dumptruck,coffeemaker8,dumptruck5,67.0,174.0,/static/Size_judgement/Stimuli/Size_stims/M/coffeemaker/coffeemaker5.jpg,/static/Size_judgement/Stimuli/Size_stims/XL/dumptruck/dumptruck3.jpg,0.0,dumptruck,coffeemaker,XL,M,4.0,2.0,dumptruck5,coffeemaker8,1.0,0.0,86.33,0.83,,
86,,size_choice_confirmation,,html-keyboard-response,86,135958,0.0-1.0-111.0-0.0,0,0,96511,,,,,,27.0,,,,,,,,,,,,,,,,,,,,,,,,,,,,,87.0,0.67,,
87,,iti,,html-keyboard-response,87,137462,0.0-1.0-112.0,0,0,96511,,,,,,,,,,,,,,,,,,,,,,,,,,,,,,,,,,,88.5,1.5,,
88,,size_choice,,html-keyboard-response,88,138620,0.0-1.0-114.0,0,0,96511,,1157.0,,,68.0,28.0,28.0,1.0,1500.0,XL-XL,,XL,XL,4.0,4.0,van,car,van6,car4,195.0,153.0,/static/Size_judgement/Stimuli/Size_stims/XL/van/van2.jpg,/static/Size_judgement/Stimuli/Size_stims/XL/car/car6.jpg,1.0,van,car,XL,XL,4.0,4.0,van6,car4,,0.0,89.657,1.157,,
89,,size_choice_confirmation,,html-keyboard-response,89,138966,0.0-1.0-115.0-0.0,0,0,96511,,,,,,28.0,,,,,,,,,,,,,,,,,,,,,,,,,,,,,90.0,0.343,,
90,,iti,,html-keyboard-response,90,140471,0.0-1.0-116.0,0,0,96511,,,,,,,,,,,,,,,,,,,,,,,,,,,,,,,,,,,91.5,1.5,,
91,,size_choice,,html-keyboard-response,91,141417,0.0-1.0-118.0,0,0,96511,,945.0,,,68.0,29.0,29.0,1.0,1000.0,S-L,1.0,L,S,3.0,1.0,mailbox,thread,mailbox4,thread1,43.0,140.0,/static/Size_judgement/Stimuli/Size_stims/L/mailbox/mailbox5.jpg,/static/Size_judgement/Stimuli/Size_stims/S/thread/thread7.jpg,1.0,mailbox,thread,L,S,3.0,1.0,mailbox4,thread1,1.0,0.0,92.445,0.945,,
92,,size_choice_confirmation,,html-keyboard-response,92,141975,0.0-1.0-119.0-0.0,0,0,96511,,,,,,29.0,,,,,,,,,,,,,,,,,,,,,,,,,,,,,93.0,0.555,,
93,,iti,,html-keyboard-response,93,142977,0.0-1.0-120.0,0,0,96511,,,,,,,,,,,,,,,,,,,,,,,,,,,,,,,,,,,94.0,1.0,,
94,,size_choice,,html-keyboard-response,94,143845,0.0-1.0-122.0,0,0,96511,,867.0,,,75.0,30.0,30.0,1.0,1000.0,M-XL,0.0,M,XL,2.0,4.0,basketball,dumptruck,basketball4,dumptruck9,53.0,178.0,/static/Size_judgement/Stimuli/Size_stims/M/basketball/basketball1.jpg,/static/Size_judgement/Stimuli/Size_stims/XL/dumptruck/dumptruck5.jpg,0.0,dumptruck,basketball,XL,M,4.0,2.0,dumptruck9,basketball4,1.0,0.0,94.867,0.867,,
95,,size_choice_confirmation,,html-keyboard-response,95,144482,0.0-1.0-123.0-0.0,0,0,96511,,,,,,30.0,,,,,,,,,,,,,,,,,,,,,,,,,,,,,95.5,0.633,,
96,,iti,,html-keyboard-response,96,145484,0.0-1.0-124.0,0,0,96511,,,,,,,,,,,,,,,,,,,,,,,,,,,,,,,,,,,96.5,1.0,,
97,,size_choice,,html-keyboard-response,97,146555,0.0-1.0-126.0,0,0,96511,,1070.0,,,75.0,31.0,31.0,1.0,1000.0,M-L,0.0,M,L,2.0,3.0,ketchup,cooler,ketchup6,cooler9,95.0,8.0,/static/Size_judgement/Stimuli/Size_stims/M/ketchup/ketchup1.jpg,/static/Size_judgement/Stimuli/Size_stims/L/cooler/cooler7.jpg,0.0,cooler,ketchup,L,M,3.0,2.0,cooler9,ketchup6,1.0,0.0,97.57,1.07,,
98,,size_choice_confirmation,,html-keyboard-response,98,146988,0.0-1.0-127.0-0.0,0,0,96511,,,,,,31.0,,,,,,,,,,,,,,,,,,,,,,,,,,,,,98.0,0.43,,
99,,iti,,html-keyboard-response,99,147991,0.0-1.0-128.0,0,0,96511,,,,,,,,,,,,,,,,,,,,,,,,,,,,,,,,,,,99.0,1.0,,
100,,size_choice,,html-keyboard-response,100,148859,0.0-1.0-130.0,0,0,96511,,867.0,,,75.0,32.0,32.0,1.0,1000.0,XL-XL,,XL,XL,4.0,4.0,car,van,car6,van4,155.0,193.0,/static/Size_judgement/Stimuli/Size_stims/XL/car/car12.jpg,/static/Size_judgement/Stimuli/Size_stims/XL/van/van7.jpg,0.0,van,car,XL,XL,4.0,4.0,van4,car6,,0.0,99.867,0.867,,
101,,size_choice_confirmation,,html-keyboard-response,101,149495,0.0-1.0-131.0-0.0,0,0,96511,,,,,,32.0,,,,,,,,,,,,,,,,,,,,,,,,,,,,,100.5,0.633,,
102,,iti,,html-keyboard-response,102,150498,0.0-1.0-132.0,0,0,96511,,,,,,,,,,,,,,,,,,,,,,,,,,,,,,,,,,,101.5,1.0,,
103,,size_choice,,html-keyboard-response,103,151684,0.0-1.0-134.0,0,0,96511,,1185.0,,,75.0,33.0,33.0,1.0,1000.0,M-M,,M,M,2.0,2.0,hairdryer,basketball,hairdryer3,basketball10,72.0,59.0,/static/Size_judgement/Stimuli/Size_stims/M/hairdryer/hairdryer17.jpg,/static/Size_judgement/Stimuli/Size_stims/M/basketball/basketball4.jpg,0.0,basketball,hairdryer,M,M,2.0,2.0,basketball10,hairdryer3,,0.0,102.685,1.185,,
104,,size_choice_confirmation,,html-keyboard-response,104,152002,0.0-1.0-135.0-0.0,0,0,96511,,,,,,33.0,,,,,,,,,,,,,,,,,,,,,,,,,,,,,103.0,0.315,,
105,,iti,,html-keyboard-response,105,153005,0.0-1.0-136.0,0,0,96511,,,,,,,,,,,,,,,,,,,,,,,,,,,,,,,,,,,104.0,1.0,,
106,,size_choice,,html-keyboard-response,106,154211,0.0-1.0-138.0,0,0,96511,,1206.0,,,75.0,34.0,34.0,1.0,3000.0,S-M,0.0,S,M,1.0,2.0,screws,hairdryer,screws7,hairdryer1,126.0,70.0,/static/Size_judgement/Stimuli/Size_stims/S/screws/screws1.jpg,/static/Size_judgement/Stimuli/Size_stims/M/hairdryer/hairdryer11.jpg,0.0,hairdryer,screws,M,S,2.0,1.0,hairdryer1,screws7,1.0,0.0,105.206,1.206,,
107,,size_choice_confirmation,,html-keyboard-response,107,154508,0.0-1.0-139.0-0.0,0,0,96511,,,,,,34.0,,,,,,,,,,,,,,,,,,,,,,,,,,,,,105.5,0.294,,
108,,iti,,html-keyboard-response,108,157513,0.0-1.0-140.0,0,0,96511,,,,,,,,,,,,,,,,,,,,,,,,,,,,,,,,,,,108.5,3.0,,
109,,size_choice,,html-keyboard-response,109,158339,0.0-1.0-142.0,0,0,96511,,825.0,,,68.0,35.0,35.0,1.0,1500.0,S-XL,1.0,XL,S,4.0,1.0,dumptruck,thread,dumptruck2,thread3,171.0,142.0,/static/Size_judgement/Stimuli/Size_stims/XL/dumptruck/dumptruck8.jpg,/static/Size_judgement/Stimuli/Size_stims/S/thread/thread4.jpg,1.0,dumptruck,thread,XL,S,4.0,1.0,dumptruck2,thread3,1.0,0.0,109.325,0.825,,
110,,size_choice_confirmation,,html-keyboard-response,110,159015,0.0-1.0-143.0-0.0,0,0,96511,,,,,,35.0,,,,,,,,,,,,,,,,,,,,,,,,,,,,,110.0,0.675,,
111,,iti,,html-keyboard-response,111,160519,0.0-1.0-144.0,0,0,96511,,,,,,,,,,,,,,,,,,,,,,,,,,,,,,,,,,,111.5,1.5,,
112,,size_choice,,html-keyboard-response,112,161296,0.0-1.0-146.0,0,0,96511,,775.0,,,75.0,36.0,36.0,1.0,2000.0,M-L,0.0,M,L,2.0,3.0,basketball,mailbox,basketball8,mailbox9,57.0,48.0,/static/Size_judgement/Stimuli/Size_stims/M/basketball/basketball7.jpg,/static/Size_judgement/Stimuli/Size_stims/L/mailbox/mailbox9.jpg,0.0,mailbox,basketball,L,M,3.0,2.0,mailbox9,basketball8,1.0,0.0,112.275,0.775,,
113,,size_choice_confirmation,,html-keyboard-response,113,162023,0.0-1.0-147.0-0.0,0,0,96511,,,,,,36.0,,,,,,,,,,,,,,,,,,,,,,,,,,,,,113.0,0.725,,
114,,iti,,html-keyboard-response,114,164029,0.0-1.0-148.0,0,0,96511,,,,,,,,,,,,,,,,,,,,,,,,,,,,,,,,,,,115.0,2.0,,
115,,size_choice,,html-keyboard-response,115,164619,0.0-1.0-150.0,0,0,96511,,589.0,,,75.0,37.0,37.0,1.0,2000.0,S-XL,0.0,S,XL,1.0,4.0,thread,crane,thread5,crane8,144.0,167.0,/static/Size_judgement/Stimuli/Size_stims/S/thread/thread1.jpg,/static/Size_judgement/Stimuli/Size_stims/XL/crane/crane10.jpg,0.0,crane,thread,XL,S,4.0,1.0,crane8,thread5,1.0,0.0,115.589,0.589,,
116,,size_choice_confirmation,,html-keyboard-response,116,165535,0.0-1.0-151.0-0.0,0,0,96511,,,,,,37.0,,,,,,,,,,,,,,,,,,,,,,,,,,,,,116.5,0.911,,
117,,iti,,html-keyboard-response,117,167538,0.0-1.0-152.0,0,0,96511,,,,,,,,,,,,,,,,,,,,,,,,,,,,,,,,,,,118.5,2.0,,
118,,size_choice,,html-keyboard-response,118,168387,0.0-1.0-154.0,0,0,96511,,847.0,,,75.0,38.0,38.0,1.0,1000.0,S-XL,0.0,S,XL,1.0,4.0,paperclip,van,paperclip4,van3,113.0,192.0,/static/Size_judgement/Stimuli/Size_stims/S/paperclip/paperclip3.jpg,/static/Size_judgement/Stimuli/Size_stims/XL/van/van6.jpg,0.0,van,paperclip,XL,S,4.0,1.0,van3,paperclip4,1.0,0.0,119.347,0.847,,
119,,size_choice_confirmation,,html-keyboard-response,119,169042,0.0-1.0-155.0-0.0,0,0,96511,,,,,,38.0,,,,,,,,,,,,,,,,,,,,,,,,,,,,,120.0,0.653,,
120,,iti,,html-keyboard-response,120,170045,0.0-1.0-156.0,0,0,96511,,,,,,,,,,,,,,,,,,,,,,,,,,,,,,,,,,,121.0,1.0,,
121,,size_choice,,html-keyboard-response,121,170892,0.0-1.0-158.0,0,0,96511,,846.0,,,68.0,39.0,39.0,1.0,3500.0,L-XL,1.0,XL,L,4.0,3.0,van,mailbox,van10,mailbox10,199.0,49.0,/static/Size_judgement/Stimuli/Size_stims/XL/van/van8.jpg,/static/Size_judgement/Stimuli/Size_stims/L/mailbox/mailbox8.jpg,1.0,van,mailbox,XL,L,4.0,3.0,van10,mailbox10,1.0,0.0,121.846,0.846,,
122,,size_choice_confirmation,,html-keyboard-response,122,171549,0.0-1.0-159.0-0.0,0,0,96511,,,,,,39.0,,,,,,,,,,,,,,,,,,,,,,,,,,,,,122.5,0.654,,
123,,iti,,html-keyboard-response,123,175052,0.0-1.0-160.0,0,0,96511,,,,,,,,,,,,,,,,,,,,,,,,,,,,,,,,,,,126.0,3.5,,
124,,size_choice,,html-keyboard-response,124,175627,0.0-1.0-162.0,0,0,96511,,573.0,,,68.0,40.0,40.0,1.0,3000.0,S-L,1.0,L,S,3.0,1.0,mailbox,paperclip,mailbox7,paperclip5,46.0,114.0,/static/Size_judgement/Stimuli/Size_stims/L/mailbox/mailbox7.jpg,/static/Size_judgement/Stimuli/Size_stims/S/paperclip/paperclip2.jpg,1.0,mailbox,paperclip,L,S,3.0,1.0,mailbox7,paperclip5,1.0,0.0,126.573,0.573,,
125,,size_choice_confirmation,,html-keyboard-response,125,176557,0.0-1.0-163.0-0.0,0,0,96511,,,,,,40.0,,,,,,,,,,,,,,,,,,,,,,,,,,,,,127.5,0.927,,
126,,iti,,html-keyboard-response,126,179559,0.0-1.0-164.0,0,0,96511,,,,,,,,,,,,,,,,,,,,,,,,,,,,,,,,,,,130.5,3.0,,
127,,size_choice,,html-keyboard-response,127,180251,0.0-1.0-166.0,0,0,96511,,691.0,,,68.0,41.0,41.0,1.0,1000.0,S-L,1.0,L,S,3.0,1.0,dishwasher,thread,dishwasher3,thread2,22.0,141.0,/static/Size_judgement/Stimuli/Size_stims/L/dishwasher/dishwasher8.jpg,/static/Size_judgement/Stimuli/Size_stims/S/thread/thread6.jpg,1.0,dishwasher,thread,L,S,3.0,1.0,dishwasher3,thread2,1.0,0.0,131.191,0.691,,
128,,size_choice_confirmation,,html-keyboard-response,128,181063,0.0-1.0-167.0-0.0,0,0,96511,,,,,,41.0,,,,,,,,,,,,,,,,,,,,,,,,,,,,,132.0,0.809,,
129,,iti,,html-keyboard-response,129,182068,0.0-1.0-168.0,0,0,96511,,,,,,,,,,,,,,,,,,,,,,,,,,,,,,,,,,,133.0,1.0,,
130,,size_choice,,html-keyboard-response,130,182886,0.0-1.0-170.0,0,0,96511,,817.0,,,68.0,42.0,42.0,1.0,1500.0,S-L,1.0,L,S,3.0,1.0,cooler,paperclip,cooler6,paperclip2,5.0,111.0,/static/Size_judgement/Stimuli/Size_stims/L/cooler/cooler1.jpg,/static/Size_judgement/Stimuli/Size_stims/S/paperclip/paperclip8.jpg,1.0,cooler,paperclip,L,S,3.0,1.0,cooler6,paperclip2,1.0,0.0,133.817,0.817,,
131,,size_choice_confirmation,,html-keyboard-response,131,183570,0.0-1.0-171.0-0.0,0,0,96511,,,,,,42.0,,,,,,,,,,,,,,,,,,,,,,,,,,,,,134.5,0.683,,
132,,iti,,html-keyboard-response,132,185074,0.0-1.0-172.0,0,0,96511,,,,,,,,,,,,,,,,,,,,,,,,,,,,,,,,,,,136.0,1.5,,
133,,size_choice,,html-keyboard-response,133,185899,0.0-1.0-174.0,0,0,96511,,823.0,,,75.0,43.0,43.0,1.0,1500.0,M-L,0.0,M,L,2.0,3.0,handsaw,garbagecan,handsaw3,garbagecan2,82.0,31.0,/static/Size_judgement/Stimuli/Size_stims/M/handsaw/handsaw2.jpg,/static/Size_judgement/Stimuli/Size_stims/L/garbagecan/garbagecan5.jpg,0.0,garbagecan,handsaw,L,M,3.0,2.0,garbagecan2,handsaw3,1.0,0.0,136.823,0.823,,
134,,size_choice_confirmation,,html-keyboard-response,134,186578,0.0-1.0-175.0-0.0,0,0,96511,,,,,,43.0,,,,,,,,,,,,,,,,,,,,,,,,,,,,,137.5,0.677,,
135,,iti,,html-keyboard-response,135,188082,0.0-1.0-176.0,0,0,96511,,,,,,,,,,,,,,,,,,,,,,,,,,,,,,,,,,,139.0,1.5,,
136,,size_choice,,html-keyboard-response,136,188846,0.0-1.0-178.0,0,0,96511,,762.0,,,75.0,44.0,44.0,1.0,1500.0,S-XL,0.0,S,XL,1.0,4.0,thread,tractor,thread4,tractor1,143.0,180.0,/static/Size_judgement/Stimuli/Size_stims/S/thread/thread5.jpg,/static/Size_judgement/Stimuli/Size_stims/XL/tractor/tractor6.jpg,0.0,tractor,thread,XL,S,4.0,1.0,tractor1,thread4,1.0,0.0,139.762,0.762,,
137,,size_choice_confirmation,,html-keyboard-response,137,189586,0.0-1.0-179.0-0.0,0,0,96511,,,,,,44.0,,,,,,,,,,,,,,,,,,,,,,,,,,,,,140.5,0.738,,
138,,iti,,html-keyboard-response,138,191090,0.0-1.0-180.0,0,0,96511,,,,,,,,,,,,,,,,,,,,,,,,,,,,,,,,,,,142.0,1.5,,
139,,block_over,,html-keyboard-response,139,219798,0.0-1.0-181.0-0.0,0,0,96511,,28697.0,,,68.0,44.0,,,,,,,,,,,,,,,,,,,,,,,,,,,,,,,,
140,,size_choice,,html-keyboard-response,140,220601,0.0-1.0-182.0,0,0,96511,,802.0,,,68.0,45.0,45.0,2.0,1000.0,XL-XL,,XL,XL,4.0,4.0,crane,van,crane10,van8,169.0,197.0,/static/Size_judgement/Stimuli/Size_stims/XL/crane/crane9.jpg,/static/Size_judgement/Stimuli/Size_stims/XL/van/van10.jpg,1.0,crane,van,XL,XL,4.0,4.0,crane10,van8,,0.0,142.802,0.802,,
141,,size_choice_confirmation,,html-keyboard-response,141,221304,0.0-1.0-183.0-0.0,0,0,96511,,,,,,45.0,,,,,,,,,,,,,,,,,,,,,,,,,,,,,143.5,0.698,,
142,,iti,,html-keyboard-response,142,222307,0.0-1.0-184.0,0,0,96511,,,,,,,,,,,,,,,,,,,,,,,,,,,,,,,,,,,144.5,1.0,,
143,,size_choice,,html-keyboard-response,143,222844,0.0-1.0-186.0,0,0,96511,,536.0,,,75.0,46.0,46.0,2.0,3500.0,S-L,0.0,S,L,1.0,3.0,thread,cooler,thread8,cooler3,147.0,2.0,/static/Size_judgement/Stimuli/Size_stims/S/thread/thread10.jpg,/static/Size_judgement/Stimuli/Size_stims/L/cooler/cooler2.jpg,0.0,cooler,thread,L,S,3.0,1.0,cooler3,thread8,1.0,0.0,145.036,0.536,,
144,,size_choice_confirmation,,html-keyboard-response,144,223809,0.0-1.0-187.0-0.0,0,0,96511,,,,,,46.0,,,,,,,,,,,,,,,,,,,,,,,,,,,,,146.0,0.964,,
145,,iti,,html-keyboard-response,145,227314,0.0-1.0-188.0,0,0,96511,,,,,,,,,,,,,,,,,,,,,,,,,,,,,,,,,,,149.5,3.5,,
146,,size_choice,,html-keyboard-response,146,228196,0.0-1.0-190.0,0,0,96511,,880.0,,,75.0,47.0,47.0,2.0,1000.0,M-XL,0.0,M,XL,2.0,4.0,coffeemaker,crane,coffeemaker9,crane2,68.0,161.0,/static/Size_judgement/Stimuli/Size_stims/M/coffeemaker/coffeemaker7.jpg,/static/Size_judgement/Stimuli/Size_stims/XL/crane/crane6.jpg,0.0,crane,coffeemaker,XL,M,4.0,2.0,crane2,coffeemaker9,1.0,0.0,150.38,0.88,,
147,,size_choice_confirmation,,html-keyboard-response,147,228818,0.0-1.0-191.0-0.0,0,0,96511,,,,,,47.0,,,,,,,,,,,,,,,,,,,,,,,,,,,,,151.0,0.62,,
148,,iti,,html-keyboard-response,148,229822,0.0-1.0-192.0,0,0,96511,,,,,,,,,,,,,,,,,,,,,,,,,,,,,,,,,,,152.0,1.0,,
149,,size_choice,,html-keyboard-response,149,230686,0.0-1.0-194.0,0,0,96511,,864.0,,,68.0,48.0,48.0,2.0,1000.0,S-L,1.0,L,S,3.0,1.0,garbagecan,die,garbagecan1,die5,30.0,104.0,/static/Size_judgement/Stimuli/Size_stims/L/garbagecan/garbagecan4.jpg,/static/Size_judgement/Stimuli/Size_stims/S/die/die3.jpg,1.0,garbagecan,die,L,S,3.0,1.0,garbagecan1,die5,1.0,0.0,152.864,0.864,,
150,,size_choice_confirmation,,html-keyboard-response,150,231325,0.0-1.0-195.0-0.0,0,0,96511,,,,,,48.0,,,,,,,,,,,,,,,,,,,,,,,,,,,,,153.5,0.636,,
151,,iti,,html-keyboard-response,151,232328,0.0-1.0-196.0,0,0,96511,,,,,,,,,,,,,,,,,,,,,,,,,,,,,,,,,,,154.5,1.0,,
152,,size_choice,,html-keyboard-response,152,233092,0.0-1.0-198.0,0,0,96511,,763.0,,,75.0,49.0,49.0,2.0,1500.0,M-L,0.0,M,L,2.0,3.0,hairdryer,deskchair,hairdryer8,deskchair5,77.0,14.0,/static/Size_judgement/Stimuli/Size_stims/M/hairdryer/hairdryer1.jpg,/static/Size_judgement/Stimuli/Size_stims/L/deskchair/deskchair7.jpg,0.0,deskchair,hairdryer,L,M,3.0,2.0,deskchair5,hairdryer8,1.0,0.0,155.263,0.763,,
153,,size_choice_confirmation,,html-keyboard-response,153,233832,0.0-1.0-199.0-0.0,0,0,96511,,,,,,49.0,,,,,,,,,,,,,,,,,,,,,,,,,,,,,156.0,0.737,,
154,,iti,,html-keyboard-response,154,235337,0.0-1.0-200.0,0,0,96511,,,,,,,,,,,,,,,,,,,,,,,,,,,,,,,,,,,157.5,1.5,,
155,,size_choice,,html-keyboard-response,155,235893,0.0-1.0-202.0,0,0,96511,,555.0,,,75.0,50.0,50.0,2.0,3500.0,S-XL,0.0,S,XL,1.0,4.0,die,tractor,die10,tractor3,109.0,182.0,/static/Size_judgement/Stimuli/Size_stims/S/die/die6.jpg,/static/Size_judgement/Stimuli/Size_stims/XL/tractor/tractor5.jpg,0.0,tractor,die,XL,S,4.0,1.0,tractor3,die10,1.0,0.0,158.055,0.555,,
156,,size_choice_confirmation,,html-keyboard-response,156,236844,0.0-1.0-203.0-0.0,0,0,96511,,,,,,50.0,,,,,,,,,,,,,,,,,,,,,,,,,,,,,159.0,0.945,,
157,,iti,,html-keyboard-response,157,240350,0.0-1.0-204.0,0,0,96511,,,,,,,,,,,,,,,,,,,,,,,,,,,,,,,,,,,162.5,3.5,,
158,,size_choice,,html-keyboard-response,158,240960,0.0-1.0-206.0,0,0,96511,,609.0,,,75.0,51.0,51.0,2.0,1000.0,S-XL,0.0,S,XL,1.0,4.0,screws,van,screws4,van1,123.0,190.0,/static/Size_judgement/Stimuli/Size_stims/S/screws/screws6.jpg,/static/Size_judgement/Stimuli/Size_stims/XL/van/van5.jpg,0.0,van,screws,XL,S,4.0,1.0,van1,screws4,1.0,0.0,163.109,0.609,,
159,,size_choice_confirmation,,html-keyboard-response,159,241853,0.0-1.0-207.0-0.0,0,0,96511,,,,,,51.0,,,,,,,,,,,,,,,,,,,,,,,,,,,,,164.0,0.891,,
160,,iti,,html-keyboard-response,160,242856,0.0-1.0-208.0,0,0,96511,,,,,,,,,,,,,,,,,,,,,,,,,,,,,,,,,,,165.0,1.0,,
161,,size_choice,,html-keyboard-response,161,244361,0.0-1.0-210.0,0,0,96511,,,,,,52.0,52.0,2.0,1500.0,S-L,1.0,L,S,3.0,1.0,cooler,paperclip,cooler10,paperclip8,9.0,117.0,/static/Size_judgement/Stimuli/Size_stims/L/cooler/cooler6.jpg,/static/Size_judgement/Stimuli/Size_stims/S/paperclip/paperclip5.jpg,,,,,,,,,,,,166.5,1.5,1.0,
162,,iti,,html-keyboard-response,162,245864,0.0-1.0-212.0,0,0,96511,,,,,,,,,,,,,,,,,,,,,,,,,,,,,,,,,,,168.0,1.5,,
163,,size_choice,,html-keyboard-response,163,246373,0.0-1.0-214.0,0,0,96511,,509.0,,,75.0,53.0,53.0,2.0,2000.0,S-L,0.0,S,L,1.0,3.0,screws,mailbox,screws1,mailbox5,120.0,44.0,/static/Size_judgement/Stimuli/Size_stims/S/screws/screws4.jpg,/static/Size_judgement/Stimuli/Size_stims/L/mailbox/mailbox4.jpg,0.0,mailbox,screws,L,S,3.0,1.0,mailbox5,screws1,1.0,0.0,168.509,0.509,,
164,,size_choice_confirmation,,html-keyboard-response,164,247368,0.0-1.0-215.0-0.0,0,0,96511,,,,,,53.0,,,,,,,,,,,,,,,,,,,,,,,,,,,,,169.5,0.991,,
165,,iti,,html-keyboard-response,165,249374,0.0-1.0-216.0,0,0,96511,,,,,,,,,,,,,,,,,,,,,,,,,,,,,,,,,,,171.5,2.0,,
166,,size_choice,,html-keyboard-response,166,249902,0.0-1.0-218.0,0,0,96511,,526.0,,,75.0,54.0,54.0,2.0,1000.0,S-L,0.0,S,L,1.0,3.0,screws,deskchair,screws2,deskchair7,121.0,16.0,/static/Size_judgement/Stimuli/Size_stims/S/screws/screws5.jpg,/static/Size_judgement/Stimuli/Size_stims/L/deskchair/deskchair4.jpg,0.0,deskchair,screws,L,S,3.0,1.0,deskchair7,screws2,1.0,0.0,172.026,0.526,,
167,,size_choice_confirmation,,html-keyboard-response,167,250877,0.0-1.0-219.0-0.0,0,0,96511,,,,,,54.0,,,,,,,,,,,,,,,,,,,,,,,,,,,,,173.0,0.974,,
168,,iti,,html-keyboard-response,168,251880,0.0-1.0-220.0,0,0,96511,,,,,,,,,,,,,,,,,,,,,,,,,,,,,,,,,,,174.0,1.0,,
169,,size_choice,,html-keyboard-response,169,252758,0.0-1.0-222.0,0,0,96511,,877.0,,,68.0,55.0,55.0,2.0,1500.0,M-XL,1.0,XL,M,4.0,2.0,dumptruck,ketchup,dumptruck1,ketchup10,170.0,99.0,/static/Size_judgement/Stimuli/Size_stims/XL/dumptruck/dumptruck9.jpg,/static/Size_judgement/Stimuli/Size_stims/M/ketchup/ketchup6.jpg,1.0,dumptruck,ketchup,XL,M,4.0,2.0,dumptruck1,ketchup10,1.0,0.0,174.877,0.877,,
170,,size_choice_confirmation,,html-keyboard-response,170,253384,0.0-1.0-223.0-0.0,0,0,96511,,,,,,55.0,,,,,,,,,,,,,,,,,,,,,,,,,,,,,175.5,0.623,,
171,,iti,,html-keyboard-response,171,254888,0.0-1.0-224.0,0,0,96511,,,,,,,,,,,,,,,,,,,,,,,,,,,,,,,,,,,177.0,1.5,,
172,,size_choice,,html-keyboard-response,172,256106,0.0-1.0-226.0,0,0,96511,,1217.0,,,68.0,56.0,56.0,2.0,1500.0,L-XL,1.0,XL,L,4.0,3.0,car,dishwasher,car10,dishwasher2,159.0,21.0,/static/Size_judgement/Stimuli/Size_stims/XL/car/car9.jpg,/static/Size_judgement/Stimuli/Size_stims/L/dishwasher/dishwasher9.jpg,1.0,car,dishwasher,XL,L,4.0,3.0,car10,dishwasher2,1.0,0.0,178.217,1.217,,
173,,size_choice_confirmation,,html-keyboard-response,173,256393,0.0-1.0-227.0-0.0,0,0,96511,,,,,,56.0,,,,,,,,,,,,,,,,,,,,,,,,,,,,,178.5,0.283,,
174,,iti,,html-keyboard-response,174,257897,0.0-1.0-228.0,0,0,96511,,,,,,,,,,,,,,,,,,,,,,,,,,,,,,,,,,,180.0,1.5,,
175,,size_choice,,html-keyboard-response,175,258971,0.0-1.0-230.0,0,0,96511,,1072.0,,,68.0,57.0,57.0,2.0,1000.0,S-S,,S,S,1.0,1.0,die,paperclip,die8,paperclip9,107.0,118.0,/static/Size_judgement/Stimuli/Size_stims/S/die/die5.jpg,/static/Size_judgement/Stimuli/Size_stims/S/paperclip/paperclip4.jpg,1.0,die,paperclip,S,S,1.0,1.0,die8,paperclip9,,0.0,181.072,1.072,,
176,,size_choice_confirmation,,html-keyboard-response,176,259401,0.0-1.0-231.0-0.0,0,0,96511,,,,,,57.0,,,,,,,,,,,,,,,,,,,,,,,,,,,,,181.5,0.428,,
177,,iti,,html-keyboard-response,177,260403,0.0-1.0-232.0,0,0,96511,,,,,,,,,,,,,,,,,,,,,,,,,,,,,,,,,,,182.5,1.0,,
178,,size_choice,,html-keyboard-response,178,261703,0.0-1.0-234.0,0,0,96511,,1300.0,,,68.0,58.0,58.0,2.0,2000.0,M-M,,M,M,2.0,2.0,ketchup,handsaw,ketchup9,handsaw5,98.0,84.0,/static/Size_judgement/Stimuli/Size_stims/M/ketchup/ketchup7.jpg,/static/Size_judgement/Stimuli/Size_stims/M/handsaw/handsaw1.jpg,1.0,ketchup,handsaw,M,M,2.0,2.0,ketchup9,handsaw5,,0.0,183.8,1.3,,
179,,size_choice_confirmation,,html-keyboard-response,179,261907,0.0-1.0-235.0-0.0,0,0,96511,,,,,,58.0,,,,,,,,,,,,,,,,,,,,,,,,,,,,,184.0,0.2,,
180,,iti,,html-keyboard-response,180,263909,0.0-1.0-236.0,0,0,96511,,,,,,,,,,,,,,,,,,,,,,,,,,,,,,,,,,,186.0,2.0,,
181,,size_choice,,html-keyboard-response,181,264760,0.0-1.0-238.0,0,0,96511,,850.0,,,75.0,59.0,59.0,2.0,2000.0,M-XL,0.0,M,XL,2.0,4.0,coffeemaker,crane,coffeemaker1,crane9,60.0,168.0,/static/Size_judgement/Stimuli/Size_stims/M/coffeemaker/coffeemaker14.jpg,/static/Size_judgement/Stimuli/Size_stims/XL/crane/crane8.jpg,0.0,crane,coffeemaker,XL,M,4.0,2.0,crane9,coffeemaker1,1.0,0.0,186.85,0.85,,
182,,size_choice_confirmation,,html-keyboard-response,182,265414,0.0-1.0-239.0-0.0,0,0,96511,,,,,,59.0,,,,,,,,,,,,,,,,,,,,,,,,,,,,,187.5,0.65,,
183,,iti,,html-keyboard-response,183,267416,0.0-1.0-240.0,0,0,96511,,,,,,,,,,,,,,,,,,,,,,,,,,,,,,,,,,,189.5,2.0,,
184,,size_choice,,html-keyboard-response,184,268421,0.0-1.0-242.0,0,0,96511,,1004.0,,,75.0,60.0,60.0,2.0,1000.0,M-L,0.0,M,L,2.0,3.0,hairdryer,mailbox,hairdryer9,mailbox6,78.0,45.0,/static/Size_judgement/Stimuli/Size_stims/M/hairdryer/hairdryer5.jpg,/static/Size_judgement/Stimuli/Size_stims/L/mailbox/mailbox6.jpg,0.0,mailbox,hairdryer,L,M,3.0,2.0,mailbox6,hairdryer9,1.0,0.0,190.504,1.004,,
185,,size_choice_confirmation,,html-keyboard-response,185,268922,0.0-1.0-243.0-0.0,0,0,96511,,,,,,60.0,,,,,,,,,,,,,,,,,,,,,,,,,,,,,191.0,0.496,,
186,,iti,,html-keyboard-response,186,269926,0.0-1.0-244.0,0,0,96511,,,,,,,,,,,,,,,,,,,,,,,,,,,,,,,,,,,192.0,1.0,,
187,,size_choice,,html-keyboard-response,187,270643,0.0-1.0-246.0,0,0,96511,,715.0,,,68.0,61.0,61.0,2.0,1500.0,S-XL,1.0,XL,S,4.0,1.0,tractor,die,tractor4,die9,183.0,108.0,/static/Size_judgement/Stimuli/Size_stims/XL/tractor/tractor4.jpg,/static/Size_judgement/Stimuli/Size_stims/S/die/die7.jpg,1.0,tractor,die,XL,S,4.0,1.0,tractor4,die9,1.0,0.0,192.715,0.715,,
188,,size_choice_confirmation,,html-keyboard-response,188,271429,0.0-1.0-247.0-0.0,0,0,96511,,,,,,61.0,,,,,,,,,,,,,,,,,,,,,,,,,,,,,193.5,0.785,,
189,,iti,,html-keyboard-response,189,272931,0.0-1.0-248.0,0,0,96511,,,,,,,,,,,,,,,,,,,,,,,,,,,,,,,,,,,195.0,1.5,,
190,,size_choice,,html-keyboard-response,190,274355,0.0-1.0-250.0,0,0,96511,,1422.0,,,75.0,62.0,62.0,2.0,1000.0,XL-XL,,XL,XL,4.0,4.0,van,tractor,van7,tractor10,196.0,189.0,/static/Size_judgement/Stimuli/Size_stims/XL/van/van1.jpg,/static/Size_judgement/Stimuli/Size_stims/XL/tractor/tractor8.jpg,0.0,tractor,van,XL,XL,4.0,4.0,tractor10,van7,,0.0,196.422,1.422,,
191,,size_choice_confirmation,,html-keyboard-response,191,274435,0.0-1.0-251.0-0.0,0,0,96511,,,,,,62.0,,,,,,,,,,,,,,,,,,,,,,,,,,,,,196.5,0.078,,
192,,iti,,html-keyboard-response,192,275438,0.0-1.0-252.0,0,0,96511,,,,,,,,,,,,,,,,,,,,,,,,,,,,,,,,,,,197.5,1.0,,
193,,size_choice,,html-keyboard-response,193,276170,0.0-1.0-254.0,0,0,96511,,731.0,,,75.0,63.0,63.0,2.0,3500.0,S-XL,0.0,S,XL,1.0,4.0,paperclip,tractor,paperclip7,tractor7,116.0,186.0,/static/Size_judgement/Stimuli/Size_stims/S/paperclip/paperclip7.jpg,/static/Size_judgement/Stimuli/Size_stims/XL/tractor/tractor2.jpg,0.0,tractor,paperclip,XL,S,4.0,1.0,tractor7,paperclip7,1.0,0.0,198.231,0.731,,
194,,size_choice_confirmation,,html-keyboard-response,194,276944,0.0-1.0-255.0-0.0,0,0,96511,,,,,,63.0,,,,,,,,,,,,,,,,,,,,,,,,,,,,,199.0,0.769,,
195,,iti,,html-keyboard-response,195,280446,0.0-1.0-256.0,0,0,96511,,,,,,,,,,,,,,,,,,,,,,,,,,,,,,,,,,,202.5,3.5,,
196,,size_choice,,html-keyboard-response,196,281337,0.0-1.0-258.0,0,0,96511,,890.0,,,75.0,64.0,64.0,2.0,2000.0,M-L,0.0,M,L,2.0,3.0,basketball,deskchair,basketball3,deskchair10,52.0,19.0,/static/Size_judgement/Stimuli/Size_stims/M/basketball/basketball10.jpg,/static/Size_judgement/Stimuli/Size_stims/L/deskchair/deskchair2.jpg,0.0,deskchair,basketball,L,M,3.0,2.0,deskchair10,basketball3,1.0,0.0,203.39,0.89,,
197,,size_choice_confirmation,,html-keyboard-response,197,281950,0.0-1.0-259.0-0.0,0,0,96511,,,,,,64.0,,,,,,,,,,,,,,,,,,,,,,,,,,,,,204.0,0.61,,
198,,iti,,html-keyboard-response,198,283955,0.0-1.0-260.0,0,0,96511,,,,,,,,,,,,,,,,,,,,,,,,,,,,,,,,,,,206.0,2.0,,
199,,size_choice,,html-keyboard-response,199,285016,0.0-1.0-262.0,0,0,96511,,1059.0,,,68.0,65.0,65.0,2.0,1000.0,M-XL,1.0,XL,M,4.0,2.0,crane,coffeemaker,crane4,coffeemaker10,163.0,69.0,/static/Size_judgement/Stimuli/Size_stims/XL/crane/crane5.jpg,/static/Size_judgement/Stimuli/Size_stims/M/coffeemaker/coffeemaker18.jpg,1.0,crane,coffeemaker,XL,M,4.0,2.0,crane4,coffeemaker10,1.0,0.0,207.059,1.059,,
200,,size_choice_confirmation,,html-keyboard-response,200,285459,0.0-1.0-263.0-0.0,0,0,96511,,,,,,65.0,,,,,,,,,,,,,,,,,,,,,,,,,,,,,207.5,0.441,,
201,,iti,,html-keyboard-response,201,286462,0.0-1.0-264.0,0,0,96511,,,,,,,,,,,,,,,,,,,,,,,,,,,,,,,,,,,208.5,1.0,,
202,,size_choice,,html-keyboard-response,202,287261,0.0-1.0-266.0,0,0,96511,,798.0,,,75.0,66.0,66.0,2.0,1500.0,S-XL,0.0,S,XL,1.0,4.0,thread,dumptruck,thread7,dumptruck7,146.0,176.0,/static/Size_judgement/Stimuli/Size_stims/S/thread/thread3.jpg,/static/Size_judgement/Stimuli/Size_stims/XL/dumptruck/dumptruck6.jpg,0.0,dumptruck,thread,XL,S,4.0,1.0,dumptruck7,thread7,1.0,0.0,209.298,0.798,,
203,,size_choice_confirmation,,html-keyboard-response,203,287965,0.0-1.0-267.0-0.0,0,0,96511,,,,,,66.0,,,,,,,,,,,,,,,,,,,,,,,,,,,,,210.0,0.702,,
204,,iti,,html-keyboard-response,204,289470,0.0-1.0-268.0,0,0,96511,,,,,,,,,,,,,,,,,,,,,,,,,,,,,,,,,,,211.5,1.5,,
205,,size_choice,,html-keyboard-response,205,290419,0.0-1.0-270.0,0,0,96511,,947.0,,,75.0,67.0,67.0,2.0,1000.0,XL-XL,,XL,XL,4.0,4.0,car,dumptruck,car8,dumptruck8,157.0,177.0,/static/Size_judgement/Stimuli/Size_stims/XL/car/car14.jpg,/static/Size_judgement/Stimuli/Size_stims/XL/dumptruck/dumptruck7.jpg,0.0,dumptruck,car,XL,XL,4.0,4.0,dumptruck8,car8,,0.0,212.447,0.947,,
206,,size_choice_confirmation,,html-keyboard-response,206,290974,0.0-1.0-271.0-0.0,0,0,96511,,,,,,67.0,,,,,,,,,,,,,,,,,,,,,,,,,,,,,213.0,0.553,,
207,,iti,,html-keyboard-response,207,291976,0.0-1.0-272.0,0,0,96511,,,,,,,,,,,,,,,,,,,,,,,,,,,,,,,,,,,214.0,1.0,,
208,,size_choice,,html-keyboard-response,208,293098,0.0-1.0-274.0,0,0,96511,,1121.0,,,75.0,68.0,68.0,2.0,3000.0,M-L,0.0,M,L,2.0,3.0,coffeemaker,cooler,coffeemaker6,cooler1,65.0,0.0,/static/Size_judgement/Stimuli/Size_stims/M/coffeemaker/coffeemaker8.jpg,/static/Size_judgement/Stimuli/Size_stims/L/cooler/cooler8.jpg,0.0,cooler,coffeemaker,L,M,3.0,2.0,cooler1,coffeemaker6,1.0,0.0,215.121,1.121,,
209,,size_choice_confirmation,,html-keyboard-response,209,293481,0.0-1.0-275.0-0.0,0,0,96511,,,,,,68.0,,,,,,,,,,,,,,,,,,,,,,,,,,,,,215.5,0.379,,
210,,iti,,html-keyboard-response,210,296484,0.0-1.0-276.0,0,0,96511,,,,,,,,,,,,,,,,,,,,,,,,,,,,,,,,,,,218.5,3.0,,
211,,size_choice,,html-keyboard-response,211,297258,0.0-1.0-278.0,0,0,96511,,773.0,,,68.0,69.0,69.0,2.0,2000.0,M-L,1.0,L,M,3.0,2.0,cooler,handsaw,cooler5,handsaw4,4.0,83.0,/static/Size_judgement/Stimuli/Size_stims/L/cooler/cooler10.jpg,/static/Size_judgement/Stimuli/Size_stims/M/handsaw/handsaw3.jpg,1.0,cooler,handsaw,L,M,3.0,2.0,cooler5,handsaw4,1.0,0.0,219.273,0.773,,
212,,size_choice_confirmation,,html-keyboard-response,212,297987,0.0-1.0-279.0-0.0,0,0,96511,,,,,,69.0,,,,,,,,,,,,,,,,,,,,,,,,,,,,,220.0,0.727,,
213,,iti,,html-keyboard-response,213,299991,0.0-1.0-280.0,0,0,96511,,,,,,,,,,,,,,,,,,,,,,,,,,,,,,,,,,,222.0,2.0,,
214,,size_choice,,html-keyboard-response,214,300830,0.0-1.0-282.0,0,0,96511,,838.0,,,68.0,70.0,70.0,2.0,1000.0,M-XL,1.0,XL,M,4.0,2.0,car,basketball,car7,basketball2,156.0,51.0,/static/Size_judgement/Stimuli/Size_stims/XL/car/car13.jpg,/static/Size_judgement/Stimuli/Size_stims/M/basketball/basketball8.jpg,1.0,car,basketball,XL,M,4.0,2.0,car7,basketball2,1.0,0.0,222.838,0.838,,
215,,size_choice_confirmation,,html-keyboard-response,215,301494,0.0-1.0-283.0-0.0,0,0,96511,,,,,,70.0,,,,,,,,,,,,,,,,,,,,,,,,,,,,,223.5,0.662,,
216,,iti,,html-keyboard-response,216,302500,0.0-1.0-284.0,0,0,96511,,,,,,,,,,,,,,,,,,,,,,,,,,,,,,,,,,,224.5,1.0,,
217,,size_choice,,html-keyboard-response,217,303271,0.0-1.0-286.0,0,0,96511,,771.0,,,75.0,71.0,71.0,2.0,1000.0,S-L,0.0,S,L,1.0,3.0,teabag,garbagecan,teabag8,garbagecan3,137.0,32.0,/static/Size_judgement/Stimuli/Size_stims/S/teabag/teabag7.jpg,/static/Size_judgement/Stimuli/Size_stims/L/garbagecan/garbagecan7.jpg,0.0,garbagecan,teabag,L,S,3.0,1.0,garbagecan3,teabag8,1.0,0.0,225.271,0.771,,
218,,size_choice_confirmation,,html-keyboard-response,218,304004,0.0-1.0-287.0-0.0,0,0,96511,,,,,,71.0,,,,,,,,,,,,,,,,,,,,,,,,,,,,,226.0,0.729,,
219,,iti,,html-keyboard-response,219,305006,0.0-1.0-288.0,0,0,96511,,,,,,,,,,,,,,,,,,,,,,,,,,,,,,,,,,,227.0,1.0,,
220,,size_choice,,html-keyboard-response,220,306285,0.0-1.0-290.0,0,0,96511,,1278.0,,,68.0,72.0,72.0,2.0,3000.0,L-L,,L,L,3.0,3.0,dishwasher,mailbox,dishwasher9,mailbox1,28.0,40.0,/static/Size_judgement/Stimuli/Size_stims/L/dishwasher/dishwasher2.jpg,/static/Size_judgement/Stimuli/Size_stims/L/mailbox/mailbox3.jpg,1.0,dishwasher,mailbox,L,L,3.0,3.0,dishwasher9,mailbox1,,0.0,228.278,1.278,,
221,,size_choice_confirmation,,html-keyboard-response,221,306511,0.0-1.0-291.0-0.0,0,0,96511,,,,,,72.0,,,,,,,,,,,,,,,,,,,,,,,,,,,,,228.5,0.222,,
222,,iti,,html-keyboard-response,222,309515,0.0-1.0-292.0,0,0,96511,,,,,,,,,,,,,,,,,,,,,,,,,,,,,,,,,,,231.5,3.0,,
223,,size_choice,,html-keyboard-response,223,310516,0.0-1.0-294.0,0,0,96511,,1000.0,,,75.0,73.0,73.0,2.0,1000.0,S-XL,0.0,S,XL,1.0,4.0,thread,crane,thread10,crane1,149.0,160.0,/static/Size_judgement/Stimuli/Size_stims/S/thread/thread9.jpg,/static/Size_judgement/Stimuli/Size_stims/XL/crane/crane7.jpg,0.0,crane,thread,XL,S,4.0,1.0,crane1,thread10,1.0,0.0,232.5,1.0,,
224,,size_choice_confirmation,,html-keyboard-response,224,311017,0.0-1.0-295.0-0.0,0,0,96511,,,,,,73.0,,,,,,,,,,,,,,,,,,,,,,,,,,,,,233.0,0.5,,
225,,iti,,html-keyboard-response,225,312020,0.0-1.0-296.0,0,0,96511,,,,,,,,,,,,,,,,,,,,,,,,,,,,,,,,,,,234.0,1.0,,
226,,size_choice,,html-keyboard-response,226,313434,0.0-1.0-298.0,0,0,96511,,1412.0,,,75.0,74.0,74.0,2.0,3000.0,M-M,,M,M,2.0,2.0,coffeemaker,handsaw,coffeemaker4,handsaw9,63.0,88.0,/static/Size_judgement/Stimuli/Size_stims/M/coffeemaker/coffeemaker11.jpg,/static/Size_judgement/Stimuli/Size_stims/M/handsaw/handsaw6.jpg,0.0,handsaw,coffeemaker,M,M,2.0,2.0,handsaw9,coffeemaker4,,0.0,235.412,1.412,,
227,,size_choice_confirmation,,html-keyboard-response,227,313524,0.0-1.0-299.0-0.0,0,0,96511,,,,,,74.0,,,,,,,,,,,,,,,,,,,,,,,,,,,,,235.5,0.088,,
228,,iti,,html-keyboard-response,228,316527,0.0-1.0-300.0,0,0,96511,,,,,,,,,,,,,,,,,,,,,,,,,,,,,,,,,,,238.5,3.0,,
229,,size_choice,,html-keyboard-response,229,317248,0.0-1.0-302.0,0,0,96511,,721.0,,,68.0,75.0,75.0,2.0,1000.0,S-L,1.0,L,S,3.0,1.0,mailbox,teabag,mailbox8,teabag6,47.0,135.0,/static/Size_judgement/Stimuli/Size_stims/L/mailbox/mailbox10.jpg,/static/Size_judgement/Stimuli/Size_stims/S/teabag/teabag6.jpg,1.0,mailbox,teabag,L,S,3.0,1.0,mailbox8,teabag6,1.0,0.0,239.221,0.721,,
230,,size_choice_confirmation,,html-keyboard-response,230,318031,0.0-1.0-303.0-0.0,0,0,96511,,,,,,75.0,,,,,,,,,,,,,,,,,,,,,,,,,,,,,240.0,0.779,,
231,,iti,,html-keyboard-response,231,319033,0.0-1.0-304.0,0,0,96511,,,,,,,,,,,,,,,,,,,,,,,,,,,,,,,,,,,241.0,1.0,,
232,,size_choice,,html-keyboard-response,232,319957,0.0-1.0-306.0,0,0,96511,,922.0,,,68.0,76.0,76.0,2.0,2000.0,M-XL,1.0,XL,M,4.0,2.0,car,ketchup,car9,ketchup3,158.0,92.0,/static/Size_judgement/Stimuli/Size_stims/XL/car/car15.jpg,/static/Size_judgement/Stimuli/Size_stims/M/ketchup/ketchup10.jpg,1.0,car,ketchup,XL,M,4.0,2.0,car9,ketchup3,1.0,0.0,241.922,0.922,,
233,,size_choice_confirmation,,html-keyboard-response,233,320537,0.0-1.0-307.0-0.0,0,0,96511,,,,,,76.0,,,,,,,,,,,,,,,,,,,,,,,,,,,,,242.5,0.578,,
234,,iti,,html-keyboard-response,234,322540,0.0-1.0-308.0,0,0,96511,,,,,,,,,,,,,,,,,,,,,,,,,,,,,,,,,,,244.5,2.0,,
235,,size_choice,,html-keyboard-response,235,323413,0.0-1.0-310.0,0,0,96511,,872.0,,,75.0,77.0,77.0,2.0,1000.0,M-XL,0.0,M,XL,2.0,4.0,basketball,dumptruck,basketball7,dumptruck6,56.0,175.0,/static/Size_judgement/Stimuli/Size_stims/M/basketball/basketball6.jpg,/static/Size_judgement/Stimuli/Size_stims/XL/dumptruck/dumptruck2.jpg,0.0,dumptruck,basketball,XL,M,4.0,2.0,dumptruck6,basketball7,1.0,0.0,245.372,0.872,,
236,,size_choice_confirmation,,html-keyboard-response,236,324047,0.0-1.0-311.0-0.0,0,0,96511,,,,,,77.0,,,,,,,,,,,,,,,,,,,,,,,,,,,,,246.0,0.628,,
237,,iti,,html-keyboard-response,237,325050,0.0-1.0-312.0,0,0,96511,,,,,,,,,,,,,,,,,,,,,,,,,,,,,,,,,,,247.0,1.0,,
238,,size_choice,,html-keyboard-response,238,325773,0.0-1.0-314.0,0,0,96511,,723.0,,,68.0,78.0,78.0,2.0,1500.0,S-XL,1.0,XL,S,4.0,1.0,crane,teabag,crane3,teabag5,162.0,134.0,/static/Size_judgement/Stimuli/Size_stims/XL/crane/crane4.jpg,/static/Size_judgement/Stimuli/Size_stims/S/teabag/teabag2.jpg,1.0,crane,teabag,XL,S,4.0,1.0,crane3,teabag5,1.0,0.0,247.723,0.723,,
239,,size_choice_confirmation,,html-keyboard-response,239,326553,0.0-1.0-315.0-0.0,0,0,96511,,,,,,78.0,,,,,,,,,,,,,,,,,,,,,,,,,,,,,248.5,0.777,,
240,,iti,,html-keyboard-response,240,328057,0.0-1.0-316.0,0,0,96511,,,,,,,,,,,,,,,,,,,,,,,,,,,,,,,,,,,250.0,1.5,,
241,,size_choice,,html-keyboard-response,241,328842,0.0-1.0-318.0,0,0,96511,,783.0,,,75.0,79.0,79.0,2.0,1500.0,M-XL,0.0,M,XL,2.0,4.0,handsaw,car,handsaw2,car2,81.0,151.0,/static/Size_judgement/Stimuli/Size_stims/M/handsaw/handsaw9.jpg,/static/Size_judgement/Stimuli/Size_stims/XL/car/car3.jpg,0.0,car,handsaw,XL,M,4.0,2.0,car2,handsaw2,1.0,0.0,250.783,0.783,,
242,,size_choice_confirmation,,html-keyboard-response,242,329562,0.0-1.0-319.0-0.0,0,0,96511,,,,,,79.0,,,,,,,,,,,,,,,,,,,,,,,,,,,,,251.5,0.717,,
243,,iti,,html-keyboard-response,243,331066,0.0-1.0-320.0,0,0,96511,,,,,,,,,,,,,,,,,,,,,,,,,,,,,,,,,,,253.0,1.5,,
244,,size_choice,,html-keyboard-response,244,332129,0.0-1.0-322.0,0,0,96511,,1062.0,,,75.0,80.0,80.0,2.0,2000.0,S-M,0.0,S,M,1.0,2.0,screws,handsaw,screws6,handsaw10,125.0,89.0,/static/Size_judgement/Stimuli/Size_stims/S/screws/screws3.jpg,/static/Size_judgement/Stimuli/Size_stims/M/handsaw/handsaw10.jpg,0.0,handsaw,screws,M,S,2.0,1.0,handsaw10,screws6,1.0,0.0,254.062,1.062,,
245,,size_choice_confirmation,,html-keyboard-response,245,332569,0.0-1.0-323.0-0.0,0,0,96511,,,,,,80.0,,,,,,,,,,,,,,,,,,,,,,,,,,,,,254.5,0.438,,
246,,iti,,html-keyboard-response,246,334574,0.0-1.0-324.0,0,0,96511,,,,,,,,,,,,,,,,,,,,,,,,,,,,,,,,,,,256.5,2.0,,
247,,size_choice,,html-keyboard-response,247,335733,0.0-1.0-326.0,0,0,96511,,1158.0,,,75.0,81.0,81.0,2.0,2000.0,L-L,,L,L,3.0,3.0,cooler,dishwasher,cooler2,dishwasher1,1.0,20.0,/static/Size_judgement/Stimuli/Size_stims/L/cooler/cooler9.jpg,/static/Size_judgement/Stimuli/Size_stims/L/dishwasher/dishwasher10.jpg,0.0,dishwasher,cooler,L,L,3.0,3.0,dishwasher1,cooler2,,0.0,257.658,1.158,,
248,,size_choice_confirmation,,html-keyboard-response,248,336078,0.0-1.0-327.0-0.0,0,0,96511,,,,,,81.0,,,,,,,,,,,,,,,,,,,,,,,,,,,,,258.0,0.342,,
249,,iti,,html-keyboard-response,249,338083,0.0-1.0-328.0,0,0,96511,,,,,,,,,,,,,,,,,,,,,,,,,,,,,,,,,,,260.0,2.0,,
250,,size_choice,,html-keyboard-response,250,339158,0.0-1.0-330.0,0,0,96511,,1074.0,,,75.0,82.0,82.0,2.0,1000.0,M-L,0.0,M,L,2.0,3.0,ketchup,deskchair,ketchup4,deskchair9,93.0,18.0,/static/Size_judgement/Stimuli/Size_stims/M/ketchup/ketchup2.jpg,/static/Size_judgement/Stimuli/Size_stims/L/deskchair/deskchair3.jpg,0.0,deskchair,ketchup,L,M,3.0,2.0,deskchair9,ketchup4,1.0,0.0,261.074,1.074,,
251,,size_choice_confirmation,,html-keyboard-response,251,339588,0.0-1.0-331.0-0.0,0,0,96511,,,,,,82.0,,,,,,,,,,,,,,,,,,,,,,,,,,,,,261.5,0.426,,
252,,iti,,html-keyboard-response,252,340592,0.0-1.0-332.0,0,0,96511,,,,,,,,,,,,,,,,,,,,,,,,,,,,,,,,,,,262.5,1.0,,
253,,size_choice,,html-keyboard-response,253,341757,0.0-1.0-334.0,0,0,96511,,1164.0,,,75.0,83.0,83.0,2.0,3000.0,S-S,,S,S,1.0,1.0,screws,teabag,screws10,teabag9,129.0,138.0,/static/Size_judgement/Stimuli/Size_stims/S/screws/screws9.jpg,/static/Size_judgement/Stimuli/Size_stims/S/teabag/teabag5.jpg,0.0,teabag,screws,S,S,1.0,1.0,teabag9,screws10,,0.0,263.664,1.164,,
254,,size_choice_confirmation,,html-keyboard-response,254,342095,0.0-1.0-335.0-0.0,0,0,96511,,,,,,83.0,,,,,,,,,,,,,,,,,,,,,,,,,,,,,264.0,0.336,,
255,,iti,,html-keyboard-response,255,345098,0.0-1.0-336.0,0,0,96511,,,,,,,,,,,,,,,,,,,,,,,,,,,,,,,,,,,267.0,3.0,,
256,,size_choice,,html-keyboard-response,256,345844,0.0-1.0-338.0,0,0,96511,,745.0,,,68.0,84.0,84.0,2.0,1500.0,S-M,1.0,M,S,2.0,1.0,handsaw,paperclip,handsaw6,paperclip10,85.0,119.0,/static/Size_judgement/Stimuli/Size_stims/M/handsaw/handsaw4.jpg,/static/Size_judgement/Stimuli/Size_stims/S/paperclip/paperclip10.jpg,1.0,handsaw,paperclip,M,S,2.0,1.0,handsaw6,paperclip10,1.0,0.0,267.745,0.745,,
257,,size_choice_confirmation,,html-keyboard-response,257,346602,0.0-1.0-339.0-0.0,0,0,96511,,,,,,84.0,,,,,,,,,,,,,,,,,,,,,,,,,,,,,268.5,0.755,,
258,,iti,,html-keyboard-response,258,348106,0.0-1.0-340.0,0,0,96511,,,,,,,,,,,,,,,,,,,,,,,,,,,,,,,,,,,270.0,1.5,,
259,,size_choice,,html-keyboard-response,259,348740,0.0-1.0-342.0,0,0,96511,,634.0,,,68.0,85.0,85.0,2.0,1000.0,S-XL,1.0,XL,S,4.0,1.0,car,teabag,car5,teabag1,154.0,130.0,/static/Size_judgement/Stimuli/Size_stims/XL/car/car11.jpg,/static/Size_judgement/Stimuli/Size_stims/S/teabag/teabag9.jpg,1.0,car,teabag,XL,S,4.0,1.0,car5,teabag1,1.0,0.0,270.634,0.634,,
260,,size_choice_confirmation,,html-keyboard-response,260,349610,0.0-1.0-343.0-0.0,0,0,96511,,,,,,85.0,,,,,,,,,,,,,,,,,,,,,,,,,,,,,271.5,0.866,,
261,,iti,,html-keyboard-response,261,350613,0.0-1.0-344.0,0,0,96511,,,,,,,,,,,,,,,,,,,,,,,,,,,,,,,,,,,272.5,1.0,,
262,,size_choice,,html-keyboard-response,262,351473,0.0-1.0-346.0,0,0,96511,,860.0,,,75.0,86.0,86.0,2.0,1500.0,M-L,0.0,M,L,2.0,3.0,hairdryer,dishwasher,hairdryer10,dishwasher8,79.0,27.0,/static/Size_judgement/Stimuli/Size_stims/M/hairdryer/hairdryer6.jpg,/static/Size_judgement/Stimuli/Size_stims/L/dishwasher/dishwasher3.jpg,0.0,dishwasher,hairdryer,L,M,3.0,2.0,dishwasher8,hairdryer10,1.0,0.0,273.36,0.86,,
263,,size_choice_confirmation,,html-keyboard-response,263,352116,0.0-1.0-347.0-0.0,0,0,96511,,,,,,86.0,,,,,,,,,,,,,,,,,,,,,,,,,,,,,274.0,0.64,,
264,,iti,,html-keyboard-response,264,353621,0.0-1.0-348.0,0,0,96511,,,,,,,,,,,,,,,,,,,,,,,,,,,,,,,,,,,275.5,1.5,,
265,,size_choice,,html-keyboard-response,265,354205,0.0-1.0-350.0,0,0,96511,,583.0,,,68.0,87.0,87.0,2.0,1000.0,L-XL,1.0,XL,L,4.0,3.0,van,deskchair,van2,deskchair4,191.0,13.0,/static/Size_judgement/Stimuli/Size_stims/XL/van/van4.jpg,/static/Size_judgement/Stimuli/Size_stims/L/deskchair/deskchair6.jpg,1.0,van,deskchair,XL,L,4.0,3.0,van2,deskchair4,1.0,0.0,276.083,0.583,,
266,,size_choice_confirmation,,html-keyboard-response,266,355124,0.0-1.0-351.0-0.0,0,0,96511,,,,,,87.0,,,,,,,,,,,,,,,,,,,,,,,,,,,,,277.0,0.917,,
267,,iti,,html-keyboard-response,267,356127,0.0-1.0-352.0,0,0,96511,,,,,,,,,,,,,,,,,,,,,,,,,,,,,,,,,,,278.0,1.0,,
268,,size_choice,,html-keyboard-response,268,356772,0.0-1.0-354.0,0,0,96511,,644.0,,,68.0,88.0,88.0,2.0,1500.0,S-L,1.0,L,S,3.0,1.0,dishwasher,teabag,dishwasher5,teabag7,24.0,136.0,/static/Size_judgement/Stimuli/Size_stims/L/dishwasher/dishwasher4.jpg,/static/Size_judgement/Stimuli/Size_stims/S/teabag/teabag10.jpg,1.0,dishwasher,teabag,L,S,3.0,1.0,dishwasher5,teabag7,1.0,0.0,278.644,0.644,,
269,,size_choice_confirmation,,html-keyboard-response,269,357631,0.0-1.0-355.0-0.0,0,0,96511,,,,,,88.0,,,,,,,,,,,,,,,,,,,,,,,,,,,,,279.5,0.856,,
270,,iti,,html-keyboard-response,270,359135,0.0-1.0-356.0,0,0,96511,,,,,,,,,,,,,,,,,,,,,,,,,,,,,,,,,,,281.0,1.5,,
271,,size_choice,,html-keyboard-response,271,360213,0.0-1.0-358.0,0,0,96511,,1077.0,,,75.0,89.0,89.0,2.0,1500.0,M-L,0.0,M,L,2.0,3.0,hairdryer,garbagecan,hairdryer7,garbagecan4,76.0,33.0,/static/Size_judgement/Stimuli/Size_stims/M/hairdryer/hairdryer3.jpg,/static/Size_judgement/Stimuli/Size_stims/L/garbagecan/garbagecan6.jpg,0.0,garbagecan,hairdryer,L,M,3.0,2.0,garbagecan4,hairdryer7,1.0,0.0,282.077,1.077,,
272,,size_choice_confirmation,,html-keyboard-response,272,360639,0.0-1.0-359.0-0.0,0,0,96511,,,,,,89.0,,,,,,,,,,,,,,,,,,,,,,,,,,,,,282.5,0.423,,
273,,iti,,html-keyboard-response,273,362143,0.0-1.0-360.0,0,0,96511,,,,,,,,,,,,,,,,,,,,,,,,,,,,,,,,,,,284.0,1.5,,0.36
274,,size_final_tally,,html-keyboard-response,274,364728,0.0-2.0,0,0,96511,,2584.0,,,68.0,,,,,,,,,,,,,,,,,,,,,,,,,,,,,,,,,
275,,debreif_intro,,html-keyboard-response,275,367476,0.0-3.0,0,0,96511,,2742.0,,,68.0,,,,,,,,,,,,,,,,,,,,,,,,,,,,,,,,,
276,,debreif_age,,survey-text,276,370787,0.0-4.0,0,0,96511,,3309.0,"{""Q0"":""12""}",,,,,,,,,,,,,,,,,,,,,,,,,,,,,,,,,,,
277,,debreif_gender,,survey-multi-choice,277,372739,0.0-5.0,0,0,96511,,1951.0,"{""Q0"":""Female""}",,,,,,,,,,,,,,,,,,,,,,,,,,,,,,,,,,,
278,,debreif_dominant_hand,,survey-multi-choice,278,374418,0.0-6.0,0,0,96511,,1675.0,"{""Q0"":""Left""}",,,,,,,,,,,,,,,,,,,,,,,,,,,,,,,,,,,
279,,debreif_native_language,,survey-multi-choice,279,375915,0.0-7.0,0,0,96511,,1494.0,"{""Q0"":""Yes""}",,,,,,,,,,,,,,,,,,,,,,,,,,,,,,,,,,,
280,,debreif_fluency,,survey-likert,280,378754,0.0-8.0,0,0,96511,,2834.0,"{""Q0"":5}",,,,,,,,,,,,,,,,,,,,,,,,,,,,,,,,,,,
281,,debreif_strategy_category_learning,,survey-text,281,381010,0.0-9.0,0,0,96511,,2253.0,"{""Q0"":""asdf""}",,,,,,,,,,,,,,,,,,,,,,,,,,,,,,,,,,,
282,,debreif_strategy_old_trials,,survey-text,282,382547,0.0-10.0,0,0,96511,,1536.0,"{""Q0"":""asdf""}",,,,,,,,,,,,,,,,,,,,,,,,,,,,,,,,,,,
283,,debreif_strategy_size,,survey-text,283,384195,0.0-11.0,0,0,96511,,1648.0,"{""Q0"":""sdf""}",,,,,,,,,,,,,,,,,,,,,,,,,,,,,,,,,,,
284,,debreif_strategy_rl,,survey-text,284,386124,0.0-12.0,0,0,96511,,1928.0,"{""Q0"":""asdf""}",,,,,,,,,,,,,,,,,,,,,,,,,,,,,,,,,,,
285,,debreif_clear_instructions,,survey-text,285,387869,0.0-13.0,0,0,96511,,1744.0,"{""Q0"":""asdf""}",,,,,,,,,,,,,,,,,,,,,,,,,,,,,,,,,,,
286,,debreif_end,,html-keyboard-response,286,397645,0.0-14.0,0,0,96511,,9775.0,,,32.0,,,,,,,,,,,,,,,,,,,,,,,,,,,,,,,,,
