,success,ttype,start_time,trial_type,trial_index,time_elapsed,internal_node_id,warning,missed_checkup,PID,view_history,rt,responses,repeat_instructions,key_press,index,trial_num,block,iti,pair_type,high_size_on_left,left_size_group,right_size_group,left_size_num,right_size_num,left_category,right_category,left_exemplar,right_exemplar,left_index,right_index,left_img_path,right_img_path,left_chosen,chosen_category,unchosen_category,chosen_size_group,unchosen_size_group,chosen_size_num,unchosen_size_num,chosen_exemplar,unchosen_exemplar,accuracy,onset,duration,no_response,size_final_tally
0,True,full_screen,d06012022hr2355,fullscreen,0,6091,0.0-0.0,0,0,96744,,,,,,,,,,,,,,,,,,,,,,,,,,,,,,,,,,,,,
1,,size_instructions,,instructions,1,10649,0.0-1.0-0.0-0.0,0,0,96744,"[{""page_index"":0,""viewing_time"":1457},{""page_index"":1,""viewing_time"":390},{""page_index"":2,""viewing_time"":885},{""page_index"":3,""viewing_time"":1128},{""page_index"":4,""viewing_time"":389},{""page_index"":5,""viewing_time"":309}]",4558.0,,,,,,,,,,,,,,,,,,,,,,,,,,,,,,,,,,,
2,,size_comprehension_check,,survey-multi-choice,2,16220,0.0-1.0-0.0-1.0,0,0,96744,,5567.0,"{""Q0"":""True"",""Q1"":""Size in the real world"",""Q2"":""True"",""Q3"":""D for left and K for right""}",0.0,,,,,,,,,,,,,,,,,,,,,,,,,,,,,,,,,
3,,,,html-keyboard-response,3,17414,0.0-1.0-1.0,0,0,96744,,1191.0,,,68.0,,,,,,,,,,,,,,,,,,,,,,,,,,,,,,,,
4,,size_choice,,html-keyboard-response,4,18073,0.0-1.0-2.0,0,0,96744,,657.0,,,68.0,0.0,0.0,1.0,2000.0,L-L,,L,L,3.0,3.0,deskchair,mailbox,deskchair10,mailbox3,19.0,42.0,/static/Size_judgement/Stimuli/Size_stims/L/deskchair/deskchair2.jpg,/static/Size_judgement/Stimuli/Size_stims/L/mailbox/mailbox1.jpg,1.0,deskchair,mailbox,L,L,3.0,3.0,deskchair10,mailbox3,,0.657,0.657,0.0,
5,,size_choice_confirmation,,html-keyboard-response,5,18918,0.0-1.0-3.0-0.0,0,0,96744,,,,,,0.0,,,,,,,,,,,,,,,,,,,,,,,,,,,,1.5,0.843,,
6,,iti,,html-keyboard-response,6,19024,0.0-1.0-4.0,0,0,96744,,,,,,,,,,,,,,,,,,,,,,,,,,,,,,,,,,3.5,2.0,,
7,,size_choice,,html-keyboard-response,7,20528,0.0-1.0-6.0,0,0,96744,,,,,,1.0,1.0,1.0,1000.0,S-XL,1.0,XL,S,4.0,1.0,dumptruck,teabag,dumptruck9,teabag3,178.0,132.0,/static/Size_judgement/Stimuli/Size_stims/XL/dumptruck/dumptruck5.jpg,/static/Size_judgement/Stimuli/Size_stims/S/teabag/teabag1.jpg,,,,,,,,,,,5.0,1.5,1.0,
8,,iti,,html-keyboard-response,8,20634,0.0-1.0-8.0,0,0,96744,,,,,,,,,,,,,,,,,,,,,,,,,,,,,,,,,,6.0,1.0,,
9,,size_choice,,html-keyboard-response,9,22140,0.0-1.0-10.0,0,0,96744,,,,,,2.0,2.0,1.0,1000.0,M-L,1.0,L,M,3.0,2.0,mailbox,ketchup,mailbox9,ketchup7,48.0,96.0,/static/Size_judgement/Stimuli/Size_stims/L/mailbox/mailbox9.jpg,/static/Size_judgement/Stimuli/Size_stims/M/ketchup/ketchup4.jpg,,,,,,,,,,,7.5,1.5,1.0,
10,,iti,,html-keyboard-response,10,22243,0.0-1.0-12.0,0,0,96744,,,,,,,,,,,,,,,,,,,,,,,,,,,,,,,,,,8.5,1.0,,
11,,size_choice,,html-keyboard-response,11,23749,0.0-1.0-14.0,0,0,96744,,,,,,3.0,3.0,1.0,2000.0,M-XL,1.0,XL,M,4.0,2.0,dumptruck,ketchup,dumptruck4,ketchup2,173.0,91.0,/static/Size_judgement/Stimuli/Size_stims/XL/dumptruck/dumptruck1.jpg,/static/Size_judgement/Stimuli/Size_stims/M/ketchup/ketchup9.jpg,,,,,,,,,,,10.0,1.5,1.0,
12,,iti,,html-keyboard-response,12,23853,0.0-1.0-16.0,0,0,96744,,,,,,,,,,,,,,,,,,,,,,,,,,,,,,,,,,12.0,2.0,,
13,,size_choice,,html-keyboard-response,13,25357,0.0-1.0-18.0,0,0,96744,,,,,,4.0,4.0,1.0,1000.0,L-XL,0.0,L,XL,3.0,4.0,garbagecan,dumptruck,garbagecan9,dumptruck7,38.0,176.0,/static/Size_judgement/Stimuli/Size_stims/L/garbagecan/garbagecan12.jpg,/static/Size_judgement/Stimuli/Size_stims/XL/dumptruck/dumptruck6.jpg,,,,,,,,,,,13.5,1.5,1.0,
14,,iti,,html-keyboard-response,14,25462,0.0-1.0-20.0,0,0,96744,,,,,,,,,,,,,,,,,,,,,,,,,,,,,,,,,,14.5,1.0,,
15,,size_choice,,html-keyboard-response,15,26965,0.0-1.0-22.0,0,0,96744,,,,,,5.0,5.0,1.0,1500.0,S-L,1.0,L,S,3.0,1.0,mailbox,thread,mailbox8,thread8,47.0,147.0,/static/Size_judgement/Stimuli/Size_stims/L/mailbox/mailbox10.jpg,/static/Size_judgement/Stimuli/Size_stims/S/thread/thread10.jpg,,,,,,,,,,,16.0,1.5,1.0,
16,,iti,,html-keyboard-response,16,27070,0.0-1.0-24.0,0,0,96744,,,,,,,,,,,,,,,,,,,,,,,,,,,,,,,,,,17.5,1.5,,
17,,size_choice,,html-keyboard-response,17,28577,0.0-1.0-26.0,0,0,96744,,,,,,6.0,6.0,1.0,2000.0,S-L,1.0,L,S,3.0,1.0,garbagecan,teabag,garbagecan6,teabag10,35.0,139.0,/static/Size_judgement/Stimuli/Size_stims/L/garbagecan/garbagecan14.jpg,/static/Size_judgement/Stimuli/Size_stims/S/teabag/teabag4.jpg,,,,,,,,,,,19.0,1.5,1.0,
18,,iti,,html-keyboard-response,18,28678,0.0-1.0-28.0,0,0,96744,,,,,,,,,,,,,,,,,,,,,,,,,,,,,,,,,,21.0,2.0,,
19,,size_choice,,html-keyboard-response,19,30182,0.0-1.0-30.0,0,0,96744,,,,,,7.0,7.0,1.0,1000.0,M-XL,1.0,XL,M,4.0,2.0,car,ketchup,car2,ketchup5,151.0,94.0,/static/Size_judgement/Stimuli/Size_stims/XL/car/car3.jpg,/static/Size_judgement/Stimuli/Size_stims/M/ketchup/ketchup3.jpg,,,,,,,,,,,22.5,1.5,1.0,
20,,iti,,html-keyboard-response,20,30283,0.0-1.0-32.0,0,0,96744,,,,,,,,,,,,,,,,,,,,,,,,,,,,,,,,,,23.5,1.0,,
21,,size_choice,,html-keyboard-response,21,31787,0.0-1.0-34.0,0,0,96744,,,,,,8.0,8.0,1.0,1000.0,XL-XL,,XL,XL,4.0,4.0,van,car,van3,car4,192.0,153.0,/static/Size_judgement/Stimuli/Size_stims/XL/van/van6.jpg,/static/Size_judgement/Stimuli/Size_stims/XL/car/car6.jpg,,,,,,,,,,,25.0,1.5,1.0,
22,,iti,,html-keyboard-response,22,31891,0.0-1.0-36.0,0,0,96744,,,,,,,,,,,,,,,,,,,,,,,,,,,,,,,,,,26.0,1.0,,
23,,size_choice,,html-keyboard-response,23,32335,0.0-1.0-38.0,0,0,96744,,442.0,,,68.0,9.0,9.0,1.0,1500.0,S-XL,0.0,S,XL,1.0,4.0,teabag,dumptruck,teabag8,dumptruck8,137.0,177.0,/static/Size_judgement/Stimuli/Size_stims/S/teabag/teabag7.jpg,/static/Size_judgement/Stimuli/Size_stims/XL/dumptruck/dumptruck7.jpg,1.0,teabag,dumptruck,S,XL,1.0,4.0,teabag8,dumptruck8,0.0,26.442,0.442,0.0,
24,,size_choice_confirmation,,html-keyboard-response,24,33398,0.0-1.0-39.0-0.0,0,0,96744,,,,,,9.0,,,,,,,,,,,,,,,,,,,,,,,,,,,,27.5,1.058,,
25,,iti,,html-keyboard-response,25,33499,0.0-1.0-40.0,0,0,96744,,,,,,,,,,,,,,,,,,,,,,,,,,,,,,,,,,29.0,1.5,,
26,,size_choice,,html-keyboard-response,26,33744,0.0-1.0-42.0,0,0,96744,,242.0,,,75.0,10.0,10.0,1.0,1000.0,M-M,,M,M,2.0,2.0,handsaw,ketchup,handsaw4,ketchup9,83.0,98.0,/static/Size_judgement/Stimuli/Size_stims/M/handsaw/handsaw3.jpg,/static/Size_judgement/Stimuli/Size_stims/M/ketchup/ketchup7.jpg,0.0,ketchup,handsaw,M,M,2.0,2.0,ketchup9,handsaw4,,29.242,0.242,0.0,
27,,size_choice_confirmation,,html-keyboard-response,27,35007,0.0-1.0-43.0-0.0,0,0,96744,,,,,,10.0,,,,,,,,,,,,,,,,,,,,,,,,,,,,30.5,1.258,,
28,,iti,,html-keyboard-response,28,35110,0.0-1.0-44.0,0,0,96744,,,,,,,,,,,,,,,,,,,,,,,,,,,,,,,,,,31.5,1.0,,
29,,size_choice,,html-keyboard-response,29,35288,0.0-1.0-46.0,0,0,96744,,177.0,,,75.0,11.0,11.0,1.0,1000.0,M-L,0.0,M,L,2.0,3.0,hairdryer,garbagecan,hairdryer6,garbagecan3,75.0,32.0,/static/Size_judgement/Stimuli/Size_stims/M/hairdryer/hairdryer8.jpg,/static/Size_judgement/Stimuli/Size_stims/L/garbagecan/garbagecan7.jpg,0.0,garbagecan,hairdryer,L,M,3.0,2.0,garbagecan3,hairdryer6,1.0,31.677,0.177,0.0,
30,,size_choice_confirmation,,html-keyboard-response,30,36614,0.0-1.0-47.0-0.0,0,0,96744,,,,,,11.0,,,,,,,,,,,,,,,,,,,,,,,,,,,,33.0,1.323,,
31,,iti,,html-keyboard-response,31,36717,0.0-1.0-48.0,0,0,96744,,,,,,,,,,,,,,,,,,,,,,,,,,,,,,,,,,34.0,1.0,,
32,,size_choice,,html-keyboard-response,32,36835,0.0-1.0-50.0,0,0,96744,,116.0,,,68.0,12.0,12.0,1.0,2000.0,M-L,0.0,M,L,2.0,3.0,coffeemaker,garbagecan,coffeemaker5,garbagecan4,64.0,33.0,/static/Size_judgement/Stimuli/Size_stims/M/coffeemaker/coffeemaker10.jpg,/static/Size_judgement/Stimuli/Size_stims/L/garbagecan/garbagecan6.jpg,1.0,coffeemaker,garbagecan,M,L,2.0,3.0,coffeemaker5,garbagecan4,0.0,34.116,0.116,0.0,
33,,size_choice_confirmation,,html-keyboard-response,33,38225,0.0-1.0-51.0-0.0,0,0,96744,,,,,,12.0,,,,,,,,,,,,,,,,,,,,,,,,,,,,35.5,1.384,,
34,,iti,,html-keyboard-response,34,38329,0.0-1.0-52.0,0,0,96744,,,,,,,,,,,,,,,,,,,,,,,,,,,,,,,,,,37.5,2.0,,
35,,size_choice,,html-keyboard-response,35,38617,0.0-1.0-54.0,0,0,96744,,288.0,,,75.0,13.0,13.0,1.0,1000.0,S-L,0.0,S,L,1.0,3.0,screws,garbagecan,screws10,garbagecan2,129.0,31.0,/static/Size_judgement/Stimuli/Size_stims/S/screws/screws9.jpg,/static/Size_judgement/Stimuli/Size_stims/L/garbagecan/garbagecan5.jpg,0.0,garbagecan,screws,L,S,3.0,1.0,garbagecan2,screws10,1.0,37.788,0.288,0.0,
36,,size_choice_confirmation,,html-keyboard-response,36,39832,0.0-1.0-55.0-0.0,0,0,96744,,,,,,13.0,,,,,,,,,,,,,,,,,,,,,,,,,,,,39.0,1.212,,
37,,iti,,html-keyboard-response,37,39933,0.0-1.0-56.0,0,0,96744,,,,,,,,,,,,,,,,,,,,,,,,,,,,,,,,,,40.0,1.0,,
38,,size_choice,,html-keyboard-response,38,40282,0.0-1.0-58.0,0,0,96744,,348.0,,,75.0,14.0,14.0,1.0,1000.0,M-XL,1.0,XL,M,4.0,2.0,dumptruck,hairdryer,dumptruck5,hairdryer4,174.0,73.0,/static/Size_judgement/Stimuli/Size_stims/XL/dumptruck/dumptruck3.jpg,/static/Size_judgement/Stimuli/Size_stims/M/hairdryer/hairdryer16.jpg,0.0,hairdryer,dumptruck,M,XL,2.0,4.0,hairdryer4,dumptruck5,0.0,40.348,0.348,0.0,
39,,size_choice_confirmation,,html-keyboard-response,39,41441,0.0-1.0-59.0-0.0,0,0,96744,,,,,,14.0,,,,,,,,,,,,,,,,,,,,,,,,,,,,41.5,1.152,,
40,,iti,,html-keyboard-response,40,41545,0.0-1.0-60.0,0,0,96744,,,,,,,,,,,,,,,,,,,,,,,,,,,,,,,,,,42.5,1.0,,
41,,size_choice,,html-keyboard-response,41,41991,0.0-1.0-62.0,0,0,96744,,445.0,,,75.0,15.0,15.0,1.0,1000.0,S-XL,1.0,XL,S,4.0,1.0,van,screws,van5,screws1,194.0,120.0,/static/Size_judgement/Stimuli/Size_stims/XL/van/van3.jpg,/static/Size_judgement/Stimuli/Size_stims/S/screws/screws4.jpg,0.0,screws,van,S,XL,1.0,4.0,screws1,van5,0.0,42.945,0.445,0.0,
42,,size_choice_confirmation,,html-keyboard-response,42,43052,0.0-1.0-63.0-0.0,0,0,96744,,,,,,15.0,,,,,,,,,,,,,,,,,,,,,,,,,,,,44.0,1.055,,
43,,iti,,html-keyboard-response,43,43157,0.0-1.0-64.0,0,0,96744,,,,,,,,,,,,,,,,,,,,,,,,,,,,,,,,,,45.0,1.0,,
44,,size_choice,,html-keyboard-response,44,43482,0.0-1.0-66.0,0,0,96744,,324.0,,,68.0,16.0,16.0,1.0,3000.0,S-M,0.0,S,M,1.0,2.0,teabag,coffeemaker,teabag9,coffeemaker8,138.0,67.0,/static/Size_judgement/Stimuli/Size_stims/S/teabag/teabag5.jpg,/static/Size_judgement/Stimuli/Size_stims/M/coffeemaker/coffeemaker5.jpg,1.0,teabag,coffeemaker,S,M,1.0,2.0,teabag9,coffeemaker8,0.0,45.324,0.324,0.0,
45,,size_choice_confirmation,,html-keyboard-response,45,44661,0.0-1.0-67.0-0.0,0,0,96744,,,,,,16.0,,,,,,,,,,,,,,,,,,,,,,,,,,,,46.5,1.176,,
46,,iti,,html-keyboard-response,46,44766,0.0-1.0-68.0,0,0,96744,,,,,,,,,,,,,,,,,,,,,,,,,,,,,,,,,,49.5,3.0,,
47,,size_choice,,html-keyboard-response,47,45082,0.0-1.0-70.0,0,0,96744,,315.0,,,75.0,17.0,17.0,1.0,1000.0,M-XL,1.0,XL,M,4.0,2.0,dumptruck,hairdryer,dumptruck10,hairdryer8,179.0,77.0,/static/Size_judgement/Stimuli/Size_stims/XL/dumptruck/dumptruck4.jpg,/static/Size_judgement/Stimuli/Size_stims/M/hairdryer/hairdryer1.jpg,0.0,hairdryer,dumptruck,M,XL,2.0,4.0,hairdryer8,dumptruck10,0.0,49.815,0.315,0.0,
48,,size_choice_confirmation,,html-keyboard-response,48,46272,0.0-1.0-71.0-0.0,0,0,96744,,,,,,17.0,,,,,,,,,,,,,,,,,,,,,,,,,,,,51.0,1.185,,
49,,iti,,html-keyboard-response,49,46374,0.0-1.0-72.0,0,0,96744,,,,,,,,,,,,,,,,,,,,,,,,,,,,,,,,,,52.0,1.0,,
50,,size_choice,,html-keyboard-response,50,46814,0.0-1.0-74.0,0,0,96744,,438.0,,,75.0,18.0,18.0,1.0,1500.0,S-L,0.0,S,L,1.0,3.0,die,mailbox,die10,mailbox10,109.0,49.0,/static/Size_judgement/Stimuli/Size_stims/S/die/die6.jpg,/static/Size_judgement/Stimuli/Size_stims/L/mailbox/mailbox8.jpg,0.0,mailbox,die,L,S,3.0,1.0,mailbox10,die10,1.0,52.438,0.438,0.0,
51,,size_choice_confirmation,,html-keyboard-response,51,47880,0.0-1.0-75.0-0.0,0,0,96744,,,,,,18.0,,,,,,,,,,,,,,,,,,,,,,,,,,,,53.5,1.062,,
52,,iti,,html-keyboard-response,52,47985,0.0-1.0-76.0,0,0,96744,,,,,,,,,,,,,,,,,,,,,,,,,,,,,,,,,,55.0,1.5,,
53,,size_choice,,html-keyboard-response,53,48151,0.0-1.0-78.0,0,0,96744,,165.0,,,75.0,19.0,19.0,1.0,1000.0,S-XL,1.0,XL,S,4.0,1.0,dumptruck,die,dumptruck1,die6,170.0,105.0,/static/Size_judgement/Stimuli/Size_stims/XL/dumptruck/dumptruck9.jpg,/static/Size_judgement/Stimuli/Size_stims/S/die/die1.jpg,0.0,die,dumptruck,S,XL,1.0,4.0,die6,dumptruck1,0.0,55.165,0.165,0.0,
54,,size_choice_confirmation,,html-keyboard-response,54,49490,0.0-1.0-79.0-0.0,0,0,96744,,,,,,19.0,,,,,,,,,,,,,,,,,,,,,,,,,,,,56.5,1.335,,
55,,iti,,html-keyboard-response,55,49596,0.0-1.0-80.0,0,0,96744,,,,,,,,,,,,,,,,,,,,,,,,,,,,,,,,,,57.5,1.0,,
56,,size_choice,,html-keyboard-response,56,51101,0.0-1.0-82.0,0,0,96744,,,,,,20.0,20.0,1.0,1500.0,M-XL,0.0,M,XL,2.0,4.0,basketball,tractor,basketball7,tractor6,56.0,185.0,/static/Size_judgement/Stimuli/Size_stims/M/basketball/basketball6.jpg,/static/Size_judgement/Stimuli/Size_stims/XL/tractor/tractor3.jpg,,,,,,,,,,,59.0,1.5,1.0,
57,,iti,,html-keyboard-response,57,51202,0.0-1.0-84.0,0,0,96744,,,,,,,,,,,,,,,,,,,,,,,,,,,,,,,,,,60.5,1.5,,
58,,size_choice,,html-keyboard-response,58,51324,0.0-1.0-86.0,0,0,96744,,121.0,,,75.0,21.0,21.0,1.0,3000.0,M-M,,M,M,2.0,2.0,handsaw,ketchup,handsaw10,ketchup8,89.0,97.0,/static/Size_judgement/Stimuli/Size_stims/M/handsaw/handsaw10.jpg,/static/Size_judgement/Stimuli/Size_stims/M/ketchup/ketchup5.jpg,0.0,ketchup,handsaw,M,M,2.0,2.0,ketchup8,handsaw10,,60.621,0.121,0.0,
59,,size_choice_confirmation,,html-keyboard-response,59,52707,0.0-1.0-87.0-0.0,0,0,96744,,,,,,21.0,,,,,,,,,,,,,,,,,,,,,,,,,,,,62.0,1.379,,
60,,iti,,html-keyboard-response,60,52808,0.0-1.0-88.0,0,0,96744,,,,,,,,,,,,,,,,,,,,,,,,,,,,,,,,,,65.0,3.0,,
61,,size_choice,,html-keyboard-response,61,52876,0.0-1.0-90.0,0,0,96744,,66.0,,,75.0,22.0,22.0,1.0,1000.0,S-S,,S,S,1.0,1.0,thread,paperclip,thread7,paperclip1,146.0,110.0,/static/Size_judgement/Stimuli/Size_stims/S/thread/thread3.jpg,/static/Size_judgement/Stimuli/Size_stims/S/paperclip/paperclip9.jpg,0.0,paperclip,thread,S,S,1.0,1.0,paperclip1,thread7,,65.066,0.066,0.0,
62,,size_choice_confirmation,,html-keyboard-response,62,54315,0.0-1.0-91.0-0.0,0,0,96744,,,,,,22.0,,,,,,,,,,,,,,,,,,,,,,,,,,,,66.5,1.434,,
63,,iti,,html-keyboard-response,63,54419,0.0-1.0-92.0,0,0,96744,,,,,,,,,,,,,,,,,,,,,,,,,,,,,,,,,,67.5,1.0,,
64,,size_choice,,html-keyboard-response,64,54845,0.0-1.0-94.0,0,0,96744,,424.0,,,75.0,23.0,23.0,1.0,1500.0,M-XL,1.0,XL,M,4.0,2.0,car,handsaw,car6,handsaw2,155.0,81.0,/static/Size_judgement/Stimuli/Size_stims/XL/car/car12.jpg,/static/Size_judgement/Stimuli/Size_stims/M/handsaw/handsaw9.jpg,0.0,handsaw,car,M,XL,2.0,4.0,handsaw2,car6,0.0,67.924,0.424,0.0,
65,,size_choice_confirmation,,html-keyboard-response,65,55923,0.0-1.0-95.0-0.0,0,0,96744,,,,,,23.0,,,,,,,,,,,,,,,,,,,,,,,,,,,,69.0,1.076,,
66,,iti,,html-keyboard-response,66,56025,0.0-1.0-96.0,0,0,96744,,,,,,,,,,,,,,,,,,,,,,,,,,,,,,,,,,70.5,1.5,,
67,,size_choice,,html-keyboard-response,67,56965,0.0-1.0-98.0,0,0,96744,,939.0,,,68.0,24.0,24.0,1.0,1500.0,S-L,0.0,S,L,1.0,3.0,die,deskchair,die3,deskchair6,102.0,15.0,/static/Size_judgement/Stimuli/Size_stims/S/die/die10.jpg,/static/Size_judgement/Stimuli/Size_stims/L/deskchair/deskchair5.jpg,1.0,die,deskchair,S,L,1.0,3.0,die3,deskchair6,0.0,71.439,0.939,0.0,
68,,size_choice_confirmation,,html-keyboard-response,68,57529,0.0-1.0-99.0-0.0,0,0,96744,,,,,,24.0,,,,,,,,,,,,,,,,,,,,,,,,,,,,72.0,0.561,,
69,,iti,,html-keyboard-response,69,57634,0.0-1.0-100.0,0,0,96744,,,,,,,,,,,,,,,,,,,,,,,,,,,,,,,,,,73.5,1.5,,
70,,size_choice,,html-keyboard-response,70,58109,0.0-1.0-102.0,0,0,96744,,474.0,,,68.0,25.0,25.0,1.0,1500.0,S-S,,S,S,1.0,1.0,paperclip,die,paperclip9,die1,118.0,100.0,/static/Size_judgement/Stimuli/Size_stims/S/paperclip/paperclip4.jpg,/static/Size_judgement/Stimuli/Size_stims/S/die/die8.jpg,1.0,paperclip,die,S,S,1.0,1.0,paperclip9,die1,,73.974,0.474,0.0,
71,,size_choice_confirmation,,html-keyboard-response,71,59137,0.0-1.0-103.0-0.0,0,0,96744,,,,,,25.0,,,,,,,,,,,,,,,,,,,,,,,,,,,,75.0,1.026,,
72,,iti,,html-keyboard-response,72,59241,0.0-1.0-104.0,0,0,96744,,,,,,,,,,,,,,,,,,,,,,,,,,,,,,,,,,76.5,1.5,,
73,,size_choice,,html-keyboard-response,73,59545,0.0-1.0-106.0,0,0,96744,,303.0,,,68.0,26.0,26.0,1.0,2000.0,M-L,0.0,M,L,2.0,3.0,basketball,deskchair,basketball4,deskchair9,53.0,18.0,/static/Size_judgement/Stimuli/Size_stims/M/basketball/basketball1.jpg,/static/Size_judgement/Stimuli/Size_stims/L/deskchair/deskchair3.jpg,1.0,basketball,deskchair,M,L,2.0,3.0,basketball4,deskchair9,0.0,76.803,0.303,0.0,
74,,size_choice_confirmation,,html-keyboard-response,74,60746,0.0-1.0-107.0-0.0,0,0,96744,,,,,,26.0,,,,,,,,,,,,,,,,,,,,,,,,,,,,78.0,1.197,,
75,,iti,,html-keyboard-response,75,60850,0.0-1.0-108.0,0,0,96744,,,,,,,,,,,,,,,,,,,,,,,,,,,,,,,,,,80.0,2.0,,
76,,size_choice,,html-keyboard-response,76,61542,0.0-1.0-110.0,0,0,96744,,691.0,,,68.0,27.0,27.0,1.0,1500.0,S-XL,0.0,S,XL,1.0,4.0,screws,crane,screws6,crane6,125.0,165.0,/static/Size_judgement/Stimuli/Size_stims/S/screws/screws3.jpg,/static/Size_judgement/Stimuli/Size_stims/XL/crane/crane2.jpg,1.0,screws,crane,S,XL,1.0,4.0,screws6,crane6,0.0,80.691,0.691,0.0,
77,,size_choice_confirmation,,html-keyboard-response,77,62357,0.0-1.0-111.0-0.0,0,0,96744,,,,,,27.0,,,,,,,,,,,,,,,,,,,,,,,,,,,,81.5,0.809,,
78,,iti,,html-keyboard-response,78,62462,0.0-1.0-112.0,0,0,96744,,,,,,,,,,,,,,,,,,,,,,,,,,,,,,,,,,83.0,1.5,,
79,,size_choice,,html-keyboard-response,79,63150,0.0-1.0-114.0,0,0,96744,,687.0,,,68.0,28.0,28.0,1.0,3000.0,M-L,0.0,M,L,2.0,3.0,coffeemaker,dishwasher,coffeemaker1,dishwasher7,60.0,26.0,/static/Size_judgement/Stimuli/Size_stims/M/coffeemaker/coffeemaker14.jpg,/static/Size_judgement/Stimuli/Size_stims/L/dishwasher/dishwasher7.jpg,1.0,coffeemaker,dishwasher,M,L,2.0,3.0,coffeemaker1,dishwasher7,0.0,83.687,0.687,0.0,
80,,size_choice_confirmation,,html-keyboard-response,80,63966,0.0-1.0-115.0-0.0,0,0,96744,,,,,,28.0,,,,,,,,,,,,,,,,,,,,,,,,,,,,84.5,0.813,,
81,,iti,,html-keyboard-response,81,64067,0.0-1.0-116.0,0,0,96744,,,,,,,,,,,,,,,,,,,,,,,,,,,,,,,,,,87.5,3.0,,
82,,size_choice,,html-keyboard-response,82,64568,0.0-1.0-118.0,0,0,96744,,500.0,,,68.0,29.0,29.0,1.0,2000.0,L-XL,0.0,L,XL,3.0,4.0,mailbox,tractor,mailbox6,tractor2,45.0,181.0,/static/Size_judgement/Stimuli/Size_stims/L/mailbox/mailbox6.jpg,/static/Size_judgement/Stimuli/Size_stims/XL/tractor/tractor7.jpg,1.0,mailbox,tractor,L,XL,3.0,4.0,mailbox6,tractor2,0.0,88.0,0.5,0.0,
83,,size_choice_confirmation,,html-keyboard-response,83,65573,0.0-1.0-119.0-0.0,0,0,96744,,,,,,29.0,,,,,,,,,,,,,,,,,,,,,,,,,,,,89.0,1.0,,
84,,iti,,html-keyboard-response,84,65675,0.0-1.0-120.0,0,0,96744,,,,,,,,,,,,,,,,,,,,,,,,,,,,,,,,,,91.0,2.0,,
85,,size_choice,,html-keyboard-response,85,65789,0.0-1.0-122.0,0,0,96744,,113.0,,,68.0,30.0,30.0,1.0,1500.0,S-XL,0.0,S,XL,1.0,4.0,teabag,crane,teabag5,crane7,134.0,166.0,/static/Size_judgement/Stimuli/Size_stims/S/teabag/teabag2.jpg,/static/Size_judgement/Stimuli/Size_stims/XL/crane/crane3.jpg,1.0,teabag,crane,S,XL,1.0,4.0,teabag5,crane7,0.0,91.113,0.113,0.0,
86,,size_choice_confirmation,,html-keyboard-response,86,67179,0.0-1.0-123.0-0.0,0,0,96744,,,,,,30.0,,,,,,,,,,,,,,,,,,,,,,,,,,,,92.5,1.387,,
87,,iti,,html-keyboard-response,87,67284,0.0-1.0-124.0,0,0,96744,,,,,,,,,,,,,,,,,,,,,,,,,,,,,,,,,,94.0,1.5,,
88,,size_choice,,html-keyboard-response,88,67474,0.0-1.0-126.0,0,0,96744,,189.0,,,75.0,31.0,31.0,1.0,3500.0,M-L,0.0,M,L,2.0,3.0,coffeemaker,cooler,coffeemaker4,cooler10,63.0,9.0,/static/Size_judgement/Stimuli/Size_stims/M/coffeemaker/coffeemaker11.jpg,/static/Size_judgement/Stimuli/Size_stims/L/cooler/cooler6.jpg,0.0,cooler,coffeemaker,L,M,3.0,2.0,cooler10,coffeemaker4,1.0,94.189,0.189,0.0,
89,,size_choice_confirmation,,html-keyboard-response,89,68788,0.0-1.0-127.0-0.0,0,0,96744,,,,,,31.0,,,,,,,,,,,,,,,,,,,,,,,,,,,,95.5,1.311,,
90,,iti,,html-keyboard-response,90,68891,0.0-1.0-128.0,0,0,96744,,,,,,,,,,,,,,,,,,,,,,,,,,,,,,,,,,99.0,3.5,,
91,,size_choice,,html-keyboard-response,91,69136,0.0-1.0-130.0,0,0,96744,,243.0,,,75.0,32.0,32.0,1.0,3000.0,S-XL,0.0,S,XL,1.0,4.0,paperclip,car,paperclip4,car1,113.0,150.0,/static/Size_judgement/Stimuli/Size_stims/S/paperclip/paperclip3.jpg,/static/Size_judgement/Stimuli/Size_stims/XL/car/car2.jpg,0.0,car,paperclip,XL,S,4.0,1.0,car1,paperclip4,1.0,99.243,0.243,0.0,
92,,size_choice_confirmation,,html-keyboard-response,92,70399,0.0-1.0-131.0-0.0,0,0,96744,,,,,,32.0,,,,,,,,,,,,,,,,,,,,,,,,,,,,100.5,1.257,,
93,,iti,,html-keyboard-response,93,70505,0.0-1.0-132.0,0,0,96744,,,,,,,,,,,,,,,,,,,,,,,,,,,,,,,,,,103.5,3.0,,
94,,size_choice,,html-keyboard-response,94,70729,0.0-1.0-134.0,0,0,96744,,223.0,,,68.0,33.0,33.0,1.0,1000.0,M-M,,M,M,2.0,2.0,ketchup,hairdryer,ketchup3,hairdryer2,92.0,71.0,/static/Size_judgement/Stimuli/Size_stims/M/ketchup/ketchup10.jpg,/static/Size_judgement/Stimuli/Size_stims/M/hairdryer/hairdryer12.jpg,1.0,ketchup,hairdryer,M,M,2.0,2.0,ketchup3,hairdryer2,,103.723,0.223,0.0,
95,,size_choice_confirmation,,html-keyboard-response,95,72011,0.0-1.0-135.0-0.0,0,0,96744,,,,,,33.0,,,,,,,,,,,,,,,,,,,,,,,,,,,,105.0,1.277,,
96,,iti,,html-keyboard-response,96,72113,0.0-1.0-136.0,0,0,96744,,,,,,,,,,,,,,,,,,,,,,,,,,,,,,,,,,106.0,1.0,,
97,,size_choice,,html-keyboard-response,97,72884,0.0-1.0-138.0,0,0,96744,,770.0,,,75.0,34.0,34.0,1.0,2000.0,S-S,,S,S,1.0,1.0,teabag,screws,teabag4,screws4,133.0,123.0,/static/Size_judgement/Stimuli/Size_stims/S/teabag/teabag3.jpg,/static/Size_judgement/Stimuli/Size_stims/S/screws/screws6.jpg,0.0,screws,teabag,S,S,1.0,1.0,screws4,teabag4,,106.77,0.77,0.0,
98,,size_choice_confirmation,,html-keyboard-response,98,73618,0.0-1.0-139.0-0.0,0,0,96744,,,,,,34.0,,,,,,,,,,,,,,,,,,,,,,,,,,,,107.5,0.73,,
99,,iti,,html-keyboard-response,99,73723,0.0-1.0-140.0,0,0,96744,,,,,,,,,,,,,,,,,,,,,,,,,,,,,,,,,,109.5,2.0,,
100,,size_choice,,html-keyboard-response,100,74194,0.0-1.0-142.0,0,0,96744,,469.0,,,75.0,35.0,35.0,1.0,1000.0,M-L,0.0,M,L,2.0,3.0,basketball,dishwasher,basketball6,dishwasher1,55.0,20.0,/static/Size_judgement/Stimuli/Size_stims/M/basketball/basketball2.jpg,/static/Size_judgement/Stimuli/Size_stims/L/dishwasher/dishwasher10.jpg,0.0,dishwasher,basketball,L,M,3.0,2.0,dishwasher1,basketball6,1.0,109.969,0.469,0.0,
101,,size_choice_confirmation,,html-keyboard-response,101,75228,0.0-1.0-143.0-0.0,0,0,96744,,,,,,35.0,,,,,,,,,,,,,,,,,,,,,,,,,,,,111.0,1.031,,
102,,iti,,html-keyboard-response,102,75329,0.0-1.0-144.0,0,0,96744,,,,,,,,,,,,,,,,,,,,,,,,,,,,,,,,,,112.0,1.0,,
103,,size_choice,,html-keyboard-response,103,75529,0.0-1.0-146.0,0,0,96744,,198.0,,,75.0,36.0,36.0,1.0,1500.0,M-XL,1.0,XL,M,4.0,2.0,tractor,ketchup,tractor10,ketchup6,189.0,95.0,/static/Size_judgement/Stimuli/Size_stims/XL/tractor/tractor8.jpg,/static/Size_judgement/Stimuli/Size_stims/M/ketchup/ketchup1.jpg,0.0,ketchup,tractor,M,XL,2.0,4.0,ketchup6,tractor10,0.0,112.198,0.198,0.0,
104,,size_choice_confirmation,,html-keyboard-response,104,76835,0.0-1.0-147.0-0.0,0,0,96744,,,,,,36.0,,,,,,,,,,,,,,,,,,,,,,,,,,,,113.5,1.302,,
105,,iti,,html-keyboard-response,105,76940,0.0-1.0-148.0,0,0,96744,,,,,,,,,,,,,,,,,,,,,,,,,,,,,,,,,,115.0,1.5,,
106,,size_choice,,html-keyboard-response,106,77138,0.0-1.0-150.0,0,0,96744,,196.0,,,75.0,37.0,37.0,1.0,3500.0,XL-XL,,XL,XL,4.0,4.0,crane,car,crane10,car8,169.0,157.0,/static/Size_judgement/Stimuli/Size_stims/XL/crane/crane9.jpg,/static/Size_judgement/Stimuli/Size_stims/XL/car/car14.jpg,0.0,car,crane,XL,XL,4.0,4.0,car8,crane10,,115.196,0.196,0.0,
107,,size_choice_confirmation,,html-keyboard-response,107,78444,0.0-1.0-151.0-0.0,0,0,96744,,,,,,37.0,,,,,,,,,,,,,,,,,,,,,,,,,,,,116.5,1.304,,
108,,iti,,html-keyboard-response,108,78545,0.0-1.0-152.0,0,0,96744,,,,,,,,,,,,,,,,,,,,,,,,,,,,,,,,,,120.0,3.5,,
109,,size_choice,,html-keyboard-response,109,78971,0.0-1.0-154.0,0,0,96744,,425.0,,,75.0,38.0,38.0,1.0,1500.0,L-L,,L,L,3.0,3.0,dishwasher,garbagecan,dishwasher5,garbagecan5,24.0,34.0,/static/Size_judgement/Stimuli/Size_stims/L/dishwasher/dishwasher4.jpg,/static/Size_judgement/Stimuli/Size_stims/L/garbagecan/garbagecan3.jpg,0.0,garbagecan,dishwasher,L,L,3.0,3.0,garbagecan5,dishwasher5,,120.425,0.425,0.0,
110,,size_choice_confirmation,,html-keyboard-response,110,80049,0.0-1.0-155.0-0.0,0,0,96744,,,,,,38.0,,,,,,,,,,,,,,,,,,,,,,,,,,,,121.5,1.075,,
111,,iti,,html-keyboard-response,111,80152,0.0-1.0-156.0,0,0,96744,,,,,,,,,,,,,,,,,,,,,,,,,,,,,,,,,,123.0,1.5,,
112,,size_choice,,html-keyboard-response,112,80447,0.0-1.0-158.0,0,0,96744,,294.0,,,75.0,39.0,39.0,1.0,2000.0,L-L,,L,L,3.0,3.0,dishwasher,cooler,dishwasher10,cooler6,29.0,5.0,/static/Size_judgement/Stimuli/Size_stims/L/dishwasher/dishwasher1.jpg,/static/Size_judgement/Stimuli/Size_stims/L/cooler/cooler1.jpg,0.0,cooler,dishwasher,L,L,3.0,3.0,cooler6,dishwasher10,,123.294,0.294,0.0,
113,,size_choice_confirmation,,html-keyboard-response,113,81655,0.0-1.0-159.0-0.0,0,0,96744,,,,,,39.0,,,,,,,,,,,,,,,,,,,,,,,,,,,,124.5,1.206,,
114,,iti,,html-keyboard-response,114,81759,0.0-1.0-160.0,0,0,96744,,,,,,,,,,,,,,,,,,,,,,,,,,,,,,,,,,126.5,2.0,,
115,,size_choice,,html-keyboard-response,115,82273,0.0-1.0-162.0,0,0,96744,,513.0,,,75.0,40.0,40.0,1.0,1500.0,S-M,0.0,S,M,1.0,2.0,screws,handsaw,screws3,handsaw3,122.0,82.0,/static/Size_judgement/Stimuli/Size_stims/S/screws/screws7.jpg,/static/Size_judgement/Stimuli/Size_stims/M/handsaw/handsaw2.jpg,0.0,handsaw,screws,M,S,2.0,1.0,handsaw3,screws3,1.0,127.013,0.513,0.0,
116,,size_choice_confirmation,,html-keyboard-response,116,83265,0.0-1.0-163.0-0.0,0,0,96744,,,,,,40.0,,,,,,,,,,,,,,,,,,,,,,,,,,,,128.0,0.987,,
117,,iti,,html-keyboard-response,117,83369,0.0-1.0-164.0,0,0,96744,,,,,,,,,,,,,,,,,,,,,,,,,,,,,,,,,,129.5,1.5,,
118,,size_choice,,html-keyboard-response,118,83835,0.0-1.0-166.0,0,0,96744,,465.0,,,75.0,41.0,41.0,1.0,3500.0,S-L,1.0,L,S,3.0,1.0,deskchair,thread,deskchair5,thread6,14.0,145.0,/static/Size_judgement/Stimuli/Size_stims/L/deskchair/deskchair7.jpg,/static/Size_judgement/Stimuli/Size_stims/S/thread/thread2.jpg,0.0,thread,deskchair,S,L,1.0,3.0,thread6,deskchair5,0.0,129.965,0.465,0.0,
119,,size_choice_confirmation,,html-keyboard-response,119,84876,0.0-1.0-167.0-0.0,0,0,96744,,,,,,41.0,,,,,,,,,,,,,,,,,,,,,,,,,,,,131.0,1.035,,
120,,iti,,html-keyboard-response,120,84978,0.0-1.0-168.0,0,0,96744,,,,,,,,,,,,,,,,,,,,,,,,,,,,,,,,,,134.5,3.5,,
121,,size_choice,,html-keyboard-response,121,85110,0.0-1.0-170.0,0,0,96744,,131.0,,,75.0,42.0,42.0,1.0,1000.0,S-M,0.0,S,M,1.0,2.0,paperclip,basketball,paperclip7,basketball8,116.0,57.0,/static/Size_judgement/Stimuli/Size_stims/S/paperclip/paperclip7.jpg,/static/Size_judgement/Stimuli/Size_stims/M/basketball/basketball7.jpg,0.0,basketball,paperclip,M,S,2.0,1.0,basketball8,paperclip7,1.0,134.631,0.131,0.0,
122,,size_choice_confirmation,,html-keyboard-response,122,86482,0.0-1.0-171.0-0.0,0,0,96744,,,,,,42.0,,,,,,,,,,,,,,,,,,,,,,,,,,,,136.0,1.369,,
123,,iti,,html-keyboard-response,123,86586,0.0-1.0-172.0,0,0,96744,,,,,,,,,,,,,,,,,,,,,,,,,,,,,,,,,,137.0,1.0,,
124,,size_choice,,html-keyboard-response,124,86992,0.0-1.0-174.0,0,0,96744,,405.0,,,75.0,43.0,43.0,1.0,1000.0,S-L,1.0,L,S,3.0,1.0,deskchair,paperclip,deskchair1,paperclip5,10.0,114.0,/static/Size_judgement/Stimuli/Size_stims/L/deskchair/deskchair9.jpg,/static/Size_judgement/Stimuli/Size_stims/S/paperclip/paperclip2.jpg,0.0,paperclip,deskchair,S,L,1.0,3.0,paperclip5,deskchair1,0.0,137.405,0.405,0.0,
125,,size_choice_confirmation,,html-keyboard-response,125,88092,0.0-1.0-175.0-0.0,0,0,96744,,,,,,43.0,,,,,,,,,,,,,,,,,,,,,,,,,,,,138.5,1.095,,
126,,iti,,html-keyboard-response,126,88196,0.0-1.0-176.0,0,0,96744,,,,,,,,,,,,,,,,,,,,,,,,,,,,,,,,,,139.5,1.0,,
127,,size_choice,,html-keyboard-response,127,89615,0.0-1.0-178.0,0,0,96744,,1417.0,,,75.0,44.0,44.0,1.0,1000.0,L-XL,0.0,L,XL,3.0,4.0,dishwasher,van,dishwasher2,van9,21.0,198.0,/static/Size_judgement/Stimuli/Size_stims/L/dishwasher/dishwasher9.jpg,/static/Size_judgement/Stimuli/Size_stims/XL/van/van9.jpg,0.0,van,dishwasher,XL,L,4.0,3.0,van9,dishwasher2,1.0,140.917,1.417,0.0,
128,,size_choice_confirmation,,html-keyboard-response,128,89703,0.0-1.0-179.0-0.0,0,0,96744,,,,,,44.0,,,,,,,,,,,,,,,,,,,,,,,,,,,,141.0,0.083,,
129,,iti,,html-keyboard-response,129,89804,0.0-1.0-180.0,0,0,96744,,,,,,,,,,,,,,,,,,,,,,,,,,,,,,,,,,142.0,1.0,,
130,,block_over,,html-keyboard-response,130,91545,0.0-1.0-181.0-0.0,0,0,96744,,1739.0,,,68.0,44.0,,,,,,,,,,,,,,,,,,,,,,,,,,,,,,,
131,,size_choice,,html-keyboard-response,131,92074,0.0-1.0-182.0,0,0,96744,,528.0,,,75.0,45.0,45.0,2.0,2000.0,S-L,0.0,S,L,1.0,3.0,die,mailbox,die5,mailbox2,104.0,41.0,/static/Size_judgement/Stimuli/Size_stims/S/die/die3.jpg,/static/Size_judgement/Stimuli/Size_stims/L/mailbox/mailbox2.jpg,0.0,mailbox,die,L,S,3.0,1.0,mailbox2,die5,1.0,142.528,0.528,0.0,
132,,size_choice_confirmation,,html-keyboard-response,132,93047,0.0-1.0-183.0-0.0,0,0,96744,,,,,,45.0,,,,,,,,,,,,,,,,,,,,,,,,,,,,143.5,0.972,,
133,,iti,,html-keyboard-response,133,93153,0.0-1.0-184.0,0,0,96744,,,,,,,,,,,,,,,,,,,,,,,,,,,,,,,,,,145.5,2.0,,
134,,size_choice,,html-keyboard-response,134,94201,0.0-1.0-186.0,0,0,96744,,1047.0,,,75.0,46.0,46.0,2.0,1000.0,S-L,1.0,L,S,3.0,1.0,deskchair,thread,deskchair3,thread10,12.0,149.0,/static/Size_judgement/Stimuli/Size_stims/L/deskchair/deskchair10.jpg,/static/Size_judgement/Stimuli/Size_stims/S/thread/thread9.jpg,0.0,thread,deskchair,S,L,1.0,3.0,thread10,deskchair3,0.0,146.547,1.047,0.0,
135,,size_choice_confirmation,,html-keyboard-response,135,94658,0.0-1.0-187.0-0.0,0,0,96744,,,,,,46.0,,,,,,,,,,,,,,,,,,,,,,,,,,,,147.0,0.453,,
136,,iti,,html-keyboard-response,136,94759,0.0-1.0-188.0,0,0,96744,,,,,,,,,,,,,,,,,,,,,,,,,,,,,,,,,,148.0,1.0,,
137,,size_choice,,html-keyboard-response,137,95792,0.0-1.0-190.0,0,0,96744,,1031.0,,,75.0,47.0,47.0,2.0,3500.0,M-L,1.0,L,M,3.0,2.0,garbagecan,handsaw,garbagecan1,handsaw9,30.0,88.0,/static/Size_judgement/Stimuli/Size_stims/L/garbagecan/garbagecan4.jpg,/static/Size_judgement/Stimuli/Size_stims/M/handsaw/handsaw6.jpg,0.0,handsaw,garbagecan,M,L,2.0,3.0,handsaw9,garbagecan1,0.0,149.031,1.031,0.0,
138,,size_choice_confirmation,,html-keyboard-response,138,96265,0.0-1.0-191.0-0.0,0,0,96744,,,,,,47.0,,,,,,,,,,,,,,,,,,,,,,,,,,,,149.5,0.469,,
139,,iti,,html-keyboard-response,139,96369,0.0-1.0-192.0,0,0,96744,,,,,,,,,,,,,,,,,,,,,,,,,,,,,,,,,,153.0,3.5,,
140,,size_choice,,html-keyboard-response,140,96726,0.0-1.0-194.0,0,0,96744,,356.0,,,75.0,48.0,48.0,2.0,1000.0,M-M,,M,M,2.0,2.0,coffeemaker,hairdryer,coffeemaker7,hairdryer5,66.0,74.0,/static/Size_judgement/Stimuli/Size_stims/M/coffeemaker/coffeemaker9.jpg,/static/Size_judgement/Stimuli/Size_stims/M/hairdryer/hairdryer15.jpg,0.0,hairdryer,coffeemaker,M,M,2.0,2.0,hairdryer5,coffeemaker7,,153.356,0.356,0.0,
141,,size_choice_confirmation,,html-keyboard-response,141,97874,0.0-1.0-195.0-0.0,0,0,96744,,,,,,48.0,,,,,,,,,,,,,,,,,,,,,,,,,,,,154.5,1.144,,
142,,iti,,html-keyboard-response,142,97978,0.0-1.0-196.0,0,0,96744,,,,,,,,,,,,,,,,,,,,,,,,,,,,,,,,,,155.5,1.0,,
143,,size_choice,,html-keyboard-response,143,99485,0.0-1.0-198.0,0,0,96744,,,,,,49.0,49.0,2.0,2000.0,S-XL,1.0,XL,S,4.0,1.0,crane,thread,crane3,thread4,162.0,143.0,/static/Size_judgement/Stimuli/Size_stims/XL/crane/crane4.jpg,/static/Size_judgement/Stimuli/Size_stims/S/thread/thread5.jpg,,,,,,,,,,,157.0,1.5,1.0,
144,,iti,,html-keyboard-response,144,99588,0.0-1.0-200.0,0,0,96744,,,,,,,,,,,,,,,,,,,,,,,,,,,,,,,,,,159.0,2.0,,
145,,size_choice,,html-keyboard-response,145,101092,0.0-1.0-202.0,0,0,96744,,,,,,50.0,50.0,2.0,1000.0,S-XL,1.0,XL,S,4.0,1.0,tractor,die,tractor7,die9,186.0,108.0,/static/Size_judgement/Stimuli/Size_stims/XL/tractor/tractor2.jpg,/static/Size_judgement/Stimuli/Size_stims/S/die/die7.jpg,,,,,,,,,,,160.5,1.5,1.0,
146,,iti,,html-keyboard-response,146,101197,0.0-1.0-204.0,0,0,96744,,,,,,,,,,,,,,,,,,,,,,,,,,,,,,,,,,161.5,1.0,,
147,,size_choice,,html-keyboard-response,147,101878,0.0-1.0-206.0,0,0,96744,,680.0,,,75.0,51.0,51.0,2.0,2000.0,S-L,1.0,L,S,3.0,1.0,cooler,thread,cooler1,thread2,0.0,141.0,/static/Size_judgement/Stimuli/Size_stims/L/cooler/cooler8.jpg,/static/Size_judgement/Stimuli/Size_stims/S/thread/thread6.jpg,0.0,thread,cooler,S,L,1.0,3.0,thread2,cooler1,0.0,162.18,0.68,0.0,
148,,size_choice_confirmation,,html-keyboard-response,148,102703,0.0-1.0-207.0-0.0,0,0,96744,,,,,,51.0,,,,,,,,,,,,,,,,,,,,,,,,,,,,163.0,0.82,,
149,,iti,,html-keyboard-response,149,102808,0.0-1.0-208.0,0,0,96744,,,,,,,,,,,,,,,,,,,,,,,,,,,,,,,,,,165.0,2.0,,
150,,size_choice,,html-keyboard-response,150,104275,0.0-1.0-210.0,0,0,96744,,1466.0,,,75.0,52.0,52.0,2.0,1000.0,M-L,0.0,M,L,2.0,3.0,handsaw,mailbox,handsaw8,mailbox4,87.0,43.0,/static/Size_judgement/Stimuli/Size_stims/M/handsaw/handsaw7.jpg,/static/Size_judgement/Stimuli/Size_stims/L/mailbox/mailbox5.jpg,0.0,mailbox,handsaw,L,M,3.0,2.0,mailbox4,handsaw8,1.0,166.466,1.466,0.0,
151,,size_choice_confirmation,,html-keyboard-response,151,104311,0.0-1.0-211.0-0.0,0,0,96744,,,,,,52.0,,,,,,,,,,,,,,,,,,,,,,,,,,,,166.5,0.034,,
152,,iti,,html-keyboard-response,152,104413,0.0-1.0-212.0,0,0,96744,,,,,,,,,,,,,,,,,,,,,,,,,,,,,,,,,,167.5,1.0,,
153,,size_choice,,html-keyboard-response,153,105917,0.0-1.0-214.0,0,0,96744,,,,,,53.0,53.0,2.0,1000.0,S-XL,1.0,XL,S,4.0,1.0,crane,thread,crane9,thread5,168.0,144.0,/static/Size_judgement/Stimuli/Size_stims/XL/crane/crane8.jpg,/static/Size_judgement/Stimuli/Size_stims/S/thread/thread1.jpg,,,,,,,,,,,169.0,1.5,1.0,
154,,iti,,html-keyboard-response,154,106020,0.0-1.0-216.0,0,0,96744,,,,,,,,,,,,,,,,,,,,,,,,,,,,,,,,,,170.0,1.0,,
155,,size_choice,,html-keyboard-response,155,106502,0.0-1.0-218.0,0,0,96744,,481.0,,,75.0,54.0,54.0,2.0,2000.0,XL-XL,,XL,XL,4.0,4.0,tractor,van,tractor1,van10,180.0,199.0,/static/Size_judgement/Stimuli/Size_stims/XL/tractor/tractor6.jpg,/static/Size_judgement/Stimuli/Size_stims/XL/van/van8.jpg,0.0,van,tractor,XL,XL,4.0,4.0,van10,tractor1,,170.481,0.481,0.0,
156,,size_choice_confirmation,,html-keyboard-response,156,107527,0.0-1.0-219.0-0.0,0,0,96744,,,,,,54.0,,,,,,,,,,,,,,,,,,,,,,,,,,,,171.5,1.019,,
157,,iti,,html-keyboard-response,157,107632,0.0-1.0-220.0,0,0,96744,,,,,,,,,,,,,,,,,,,,,,,,,,,,,,,,,,173.5,2.0,,
158,,size_choice,,html-keyboard-response,158,108355,0.0-1.0-222.0,0,0,96744,,722.0,,,75.0,55.0,55.0,2.0,1500.0,S-S,,S,S,1.0,1.0,paperclip,teabag,paperclip8,teabag2,117.0,131.0,/static/Size_judgement/Stimuli/Size_stims/S/paperclip/paperclip5.jpg,/static/Size_judgement/Stimuli/Size_stims/S/teabag/teabag8.jpg,0.0,teabag,paperclip,S,S,1.0,1.0,teabag2,paperclip8,,174.222,0.722,0.0,
159,,size_choice_confirmation,,html-keyboard-response,159,109138,0.0-1.0-223.0-0.0,0,0,96744,,,,,,55.0,,,,,,,,,,,,,,,,,,,,,,,,,,,,175.0,0.778,,
160,,iti,,html-keyboard-response,160,109242,0.0-1.0-224.0,0,0,96744,,,,,,,,,,,,,,,,,,,,,,,,,,,,,,,,,,176.5,1.5,,
161,,size_choice,,html-keyboard-response,161,110749,0.0-1.0-226.0,0,0,96744,,,,,,56.0,56.0,2.0,1500.0,S-XL,1.0,XL,S,4.0,1.0,crane,screws,crane8,screws2,167.0,121.0,/static/Size_judgement/Stimuli/Size_stims/XL/crane/crane10.jpg,/static/Size_judgement/Stimuli/Size_stims/S/screws/screws5.jpg,,,,,,,,,,,178.0,1.5,1.0,
162,,iti,,html-keyboard-response,162,110853,0.0-1.0-228.0,0,0,96744,,,,,,,,,,,,,,,,,,,,,,,,,,,,,,,,,,179.5,1.5,,
163,,size_choice,,html-keyboard-response,163,111540,0.0-1.0-230.0,0,0,96744,,685.0,,,75.0,57.0,57.0,2.0,1000.0,L-L,,L,L,3.0,3.0,dishwasher,cooler,dishwasher4,cooler3,23.0,2.0,/static/Size_judgement/Stimuli/Size_stims/L/dishwasher/dishwasher5.jpg,/static/Size_judgement/Stimuli/Size_stims/L/cooler/cooler2.jpg,0.0,cooler,dishwasher,L,L,3.0,3.0,cooler3,dishwasher4,,180.185,0.685,0.0,
164,,size_choice_confirmation,,html-keyboard-response,164,112359,0.0-1.0-231.0-0.0,0,0,96744,,,,,,57.0,,,,,,,,,,,,,,,,,,,,,,,,,,,,181.0,0.815,,
165,,iti,,html-keyboard-response,165,112465,0.0-1.0-232.0,0,0,96744,,,,,,,,,,,,,,,,,,,,,,,,,,,,,,,,,,182.0,1.0,,
166,,size_choice,,html-keyboard-response,166,112476,0.0-1.0-234.0,0,0,96744,,10.0,,,75.0,58.0,58.0,2.0,3000.0,M-XL,0.0,M,XL,2.0,4.0,coffeemaker,van,coffeemaker9,van4,68.0,193.0,/static/Size_judgement/Stimuli/Size_stims/M/coffeemaker/coffeemaker7.jpg,/static/Size_judgement/Stimuli/Size_stims/XL/van/van7.jpg,0.0,van,coffeemaker,XL,M,4.0,2.0,van4,coffeemaker9,1.0,182.01,0.01,0.0,
167,,size_choice_confirmation,,html-keyboard-response,167,113970,0.0-1.0-235.0-0.0,0,0,96744,,,,,,58.0,,,,,,,,,,,,,,,,,,,,,,,,,,,,183.5,1.49,,
168,,iti,,html-keyboard-response,168,114072,0.0-1.0-236.0,0,0,96744,,,,,,,,,,,,,,,,,,,,,,,,,,,,,,,,,,186.5,3.0,,
169,,size_choice,,html-keyboard-response,169,114678,0.0-1.0-238.0,0,0,96744,,605.0,,,75.0,59.0,59.0,2.0,2000.0,M-L,0.0,M,L,2.0,3.0,coffeemaker,cooler,coffeemaker3,cooler7,62.0,6.0,/static/Size_judgement/Stimuli/Size_stims/M/coffeemaker/coffeemaker13.jpg,/static/Size_judgement/Stimuli/Size_stims/L/cooler/cooler4.jpg,0.0,cooler,coffeemaker,L,M,3.0,2.0,cooler7,coffeemaker3,1.0,187.105,0.605,0.0,
170,,size_choice_confirmation,,html-keyboard-response,170,115576,0.0-1.0-239.0-0.0,0,0,96744,,,,,,59.0,,,,,,,,,,,,,,,,,,,,,,,,,,,,188.0,0.895,,
171,,iti,,html-keyboard-response,171,115680,0.0-1.0-240.0,0,0,96744,,,,,,,,,,,,,,,,,,,,,,,,,,,,,,,,,,190.0,2.0,,
172,,size_choice,,html-keyboard-response,172,116482,0.0-1.0-242.0,0,0,96744,,799.0,,,75.0,60.0,60.0,2.0,2000.0,S-L,1.0,L,S,3.0,1.0,cooler,screws,cooler4,screws5,3.0,124.0,/static/Size_judgement/Stimuli/Size_stims/L/cooler/cooler3.jpg,/static/Size_judgement/Stimuli/Size_stims/S/screws/screws2.jpg,0.0,screws,cooler,S,L,1.0,3.0,screws5,cooler4,0.0,190.799,0.799,0.0,
173,,size_choice_confirmation,,html-keyboard-response,173,117187,0.0-1.0-243.0-0.0,0,0,96744,,,,,,60.0,,,,,,,,,,,,,,,,,,,,,,,,,,,,191.5,0.701,,
174,,iti,,html-keyboard-response,174,117288,0.0-1.0-244.0,0,0,96744,,,,,,,,,,,,,,,,,,,,,,,,,,,,,,,,,,193.5,2.0,,
175,,size_choice,,html-keyboard-response,175,117652,0.0-1.0-246.0,0,0,96744,,363.0,,,75.0,61.0,61.0,2.0,1500.0,M-XL,0.0,M,XL,2.0,4.0,handsaw,car,handsaw7,car3,86.0,152.0,/static/Size_judgement/Stimuli/Size_stims/M/handsaw/handsaw5.jpg,/static/Size_judgement/Stimuli/Size_stims/XL/car/car4.jpg,0.0,car,handsaw,XL,M,4.0,2.0,car3,handsaw7,1.0,193.863,0.363,0.0,
176,,size_choice_confirmation,,html-keyboard-response,176,118792,0.0-1.0-247.0-0.0,0,0,96744,,,,,,61.0,,,,,,,,,,,,,,,,,,,,,,,,,,,,195.0,1.137,,
177,,iti,,html-keyboard-response,177,118893,0.0-1.0-248.0,0,0,96744,,,,,,,,,,,,,,,,,,,,,,,,,,,,,,,,,,196.5,1.5,,
178,,size_choice,,html-keyboard-response,178,119465,0.0-1.0-250.0,0,0,96744,,571.0,,,75.0,62.0,62.0,2.0,1000.0,M-XL,0.0,M,XL,2.0,4.0,handsaw,tractor,handsaw1,tractor4,80.0,183.0,/static/Size_judgement/Stimuli/Size_stims/M/handsaw/handsaw8.jpg,/static/Size_judgement/Stimuli/Size_stims/XL/tractor/tractor4.jpg,0.0,tractor,handsaw,XL,M,4.0,2.0,tractor4,handsaw1,1.0,197.071,0.571,0.0,
179,,size_choice_confirmation,,html-keyboard-response,179,120397,0.0-1.0-251.0-0.0,0,0,96744,,,,,,62.0,,,,,,,,,,,,,,,,,,,,,,,,,,,,198.0,0.929,,
180,,iti,,html-keyboard-response,180,120502,0.0-1.0-252.0,0,0,96744,,,,,,,,,,,,,,,,,,,,,,,,,,,,,,,,,,199.0,1.0,,
181,,size_choice,,html-keyboard-response,181,122004,0.0-1.0-254.0,0,0,96744,,,,,,63.0,63.0,2.0,1500.0,S-L,1.0,L,S,3.0,1.0,dishwasher,teabag,dishwasher9,teabag7,28.0,136.0,/static/Size_judgement/Stimuli/Size_stims/L/dishwasher/dishwasher2.jpg,/static/Size_judgement/Stimuli/Size_stims/S/teabag/teabag10.jpg,,,,,,,,,,,200.5,1.5,1.0,
182,,iti,,html-keyboard-response,182,122109,0.0-1.0-256.0,0,0,96744,,,,,,,,,,,,,,,,,,,,,,,,,,,,,,,,,,202.0,1.5,,
183,,size_choice,,html-keyboard-response,183,123182,0.0-1.0-258.0,0,0,96744,,1072.0,,,75.0,64.0,64.0,2.0,3500.0,M-XL,1.0,XL,M,4.0,2.0,crane,coffeemaker,crane5,coffeemaker2,164.0,61.0,/static/Size_judgement/Stimuli/Size_stims/XL/crane/crane1.jpg,/static/Size_judgement/Stimuli/Size_stims/M/coffeemaker/coffeemaker12.jpg,0.0,coffeemaker,crane,M,XL,2.0,4.0,coffeemaker2,crane5,0.0,203.072,1.072,0.0,
184,,size_choice_confirmation,,html-keyboard-response,184,123613,0.0-1.0-259.0-0.0,0,0,96744,,,,,,64.0,,,,,,,,,,,,,,,,,,,,,,,,,,,,203.5,0.428,,
185,,iti,,html-keyboard-response,185,123715,0.0-1.0-260.0,0,0,96744,,,,,,,,,,,,,,,,,,,,,,,,,,,,,,,,,,207.0,3.5,,
186,,size_choice,,html-keyboard-response,186,124014,0.0-1.0-262.0,0,0,96744,,298.0,,,75.0,65.0,65.0,2.0,1500.0,XL-XL,,XL,XL,4.0,4.0,tractor,van,tractor9,van6,188.0,195.0,/static/Size_judgement/Stimuli/Size_stims/XL/tractor/tractor9.jpg,/static/Size_judgement/Stimuli/Size_stims/XL/van/van2.jpg,0.0,van,tractor,XL,XL,4.0,4.0,van6,tractor9,,207.298,0.298,0.0,
187,,size_choice_confirmation,,html-keyboard-response,187,125220,0.0-1.0-263.0-0.0,0,0,96744,,,,,,65.0,,,,,,,,,,,,,,,,,,,,,,,,,,,,208.5,1.202,,
188,,iti,,html-keyboard-response,188,125325,0.0-1.0-264.0,0,0,96744,,,,,,,,,,,,,,,,,,,,,,,,,,,,,,,,,,210.0,1.5,,
189,,size_choice,,html-keyboard-response,189,125330,0.0-1.0-266.0,0,0,96744,,4.0,,,75.0,66.0,66.0,2.0,2000.0,S-M,0.0,S,M,1.0,2.0,teabag,hairdryer,teabag6,hairdryer1,135.0,70.0,/static/Size_judgement/Stimuli/Size_stims/S/teabag/teabag6.jpg,/static/Size_judgement/Stimuli/Size_stims/M/hairdryer/hairdryer11.jpg,0.0,hairdryer,teabag,M,S,2.0,1.0,hairdryer1,teabag6,1.0,210.004,0.004,0.0,
190,,size_choice_confirmation,,html-keyboard-response,190,126829,0.0-1.0-267.0-0.0,0,0,96744,,,,,,66.0,,,,,,,,,,,,,,,,,,,,,,,,,,,,211.5,1.496,,
191,,iti,,html-keyboard-response,191,126931,0.0-1.0-268.0,0,0,96744,,,,,,,,,,,,,,,,,,,,,,,,,,,,,,,,,,213.5,2.0,,
192,,size_choice,,html-keyboard-response,192,127161,0.0-1.0-270.0,0,0,96744,,228.0,,,75.0,67.0,67.0,2.0,1500.0,S-L,1.0,L,S,3.0,1.0,garbagecan,die,garbagecan8,die7,37.0,106.0,/static/Size_judgement/Stimuli/Size_stims/L/garbagecan/garbagecan13.jpg,/static/Size_judgement/Stimuli/Size_stims/S/die/die4.jpg,0.0,die,garbagecan,S,L,1.0,3.0,die7,garbagecan8,0.0,213.728,0.228,0.0,
193,,size_choice_confirmation,,html-keyboard-response,193,128437,0.0-1.0-271.0-0.0,0,0,96744,,,,,,67.0,,,,,,,,,,,,,,,,,,,,,,,,,,,,215.0,1.272,,
194,,iti,,html-keyboard-response,194,128541,0.0-1.0-272.0,0,0,96744,,,,,,,,,,,,,,,,,,,,,,,,,,,,,,,,,,216.5,1.5,,
195,,size_choice,,html-keyboard-response,195,128920,0.0-1.0-274.0,0,0,96744,,378.0,,,75.0,68.0,68.0,2.0,1500.0,S-M,0.0,S,M,1.0,2.0,thread,basketball,thread1,basketball2,140.0,51.0,/static/Size_judgement/Stimuli/Size_stims/S/thread/thread7.jpg,/static/Size_judgement/Stimuli/Size_stims/M/basketball/basketball8.jpg,0.0,basketball,thread,M,S,2.0,1.0,basketball2,thread1,1.0,216.878,0.378,0.0,
196,,size_choice_confirmation,,html-keyboard-response,196,130045,0.0-1.0-275.0-0.0,0,0,96744,,,,,,68.0,,,,,,,,,,,,,,,,,,,,,,,,,,,,218.0,1.122,,
197,,iti,,html-keyboard-response,197,130147,0.0-1.0-276.0,0,0,96744,,,,,,,,,,,,,,,,,,,,,,,,,,,,,,,,,,219.5,1.5,,
198,,size_choice,,html-keyboard-response,198,130409,0.0-1.0-278.0,0,0,96744,,261.0,,,75.0,69.0,69.0,2.0,1000.0,S-L,0.0,S,L,1.0,3.0,die,dishwasher,die8,dishwasher3,107.0,22.0,/static/Size_judgement/Stimuli/Size_stims/S/die/die5.jpg,/static/Size_judgement/Stimuli/Size_stims/L/dishwasher/dishwasher8.jpg,0.0,dishwasher,die,L,S,3.0,1.0,dishwasher3,die8,1.0,219.761,0.261,0.0,
199,,size_choice_confirmation,,html-keyboard-response,199,131653,0.0-1.0-279.0-0.0,0,0,96744,,,,,,69.0,,,,,,,,,,,,,,,,,,,,,,,,,,,,221.0,1.239,,
200,,iti,,html-keyboard-response,200,131757,0.0-1.0-280.0,0,0,96744,,,,,,,,,,,,,,,,,,,,,,,,,,,,,,,,,,222.0,1.0,,
201,,size_choice,,html-keyboard-response,201,132025,0.0-1.0-282.0,0,0,96744,,267.0,,,68.0,70.0,70.0,2.0,1500.0,S-XL,1.0,XL,S,4.0,1.0,van,thread,van1,thread9,190.0,148.0,/static/Size_judgement/Stimuli/Size_stims/XL/van/van5.jpg,/static/Size_judgement/Stimuli/Size_stims/S/thread/thread8.jpg,1.0,van,thread,XL,S,4.0,1.0,van1,thread9,1.0,222.267,0.267,0.0,
202,,size_choice_confirmation,,html-keyboard-response,202,133261,0.0-1.0-283.0-0.0,0,0,96744,,,,,,70.0,,,,,,,,,,,,,,,,,,,,,,,,,,,,223.5,1.233,,
203,,iti,,html-keyboard-response,203,133363,0.0-1.0-284.0,0,0,96744,,,,,,,,,,,,,,,,,,,,,,,,,,,,,,,,,,225.0,1.5,,
204,,size_choice,,html-keyboard-response,204,133856,0.0-1.0-286.0,0,0,96744,,491.0,,,75.0,71.0,71.0,2.0,3500.0,M-L,0.0,M,L,2.0,3.0,basketball,deskchair,basketball9,deskchair2,58.0,11.0,/static/Size_judgement/Stimuli/Size_stims/M/basketball/basketball5.jpg,/static/Size_judgement/Stimuli/Size_stims/L/deskchair/deskchair8.jpg,0.0,deskchair,basketball,L,M,3.0,2.0,deskchair2,basketball9,1.0,225.491,0.491,0.0,
205,,size_choice_confirmation,,html-keyboard-response,205,134870,0.0-1.0-287.0-0.0,0,0,96744,,,,,,71.0,,,,,,,,,,,,,,,,,,,,,,,,,,,,226.5,1.009,,
206,,iti,,html-keyboard-response,206,134973,0.0-1.0-288.0,0,0,96744,,,,,,,,,,,,,,,,,,,,,,,,,,,,,,,,,,230.0,3.5,,
207,,size_choice,,html-keyboard-response,207,135084,0.0-1.0-290.0,0,0,96744,,109.0,,,75.0,72.0,72.0,2.0,1000.0,L-XL,1.0,XL,L,4.0,3.0,car,deskchair,car9,deskchair4,158.0,13.0,/static/Size_judgement/Stimuli/Size_stims/XL/car/car15.jpg,/static/Size_judgement/Stimuli/Size_stims/L/deskchair/deskchair6.jpg,0.0,deskchair,car,L,XL,3.0,4.0,deskchair4,car9,0.0,230.109,0.109,0.0,
208,,size_choice_confirmation,,html-keyboard-response,208,136477,0.0-1.0-291.0-0.0,0,0,96744,,,,,,72.0,,,,,,,,,,,,,,,,,,,,,,,,,,,,231.5,1.391,,
209,,iti,,html-keyboard-response,209,136582,0.0-1.0-292.0,0,0,96744,,,,,,,,,,,,,,,,,,,,,,,,,,,,,,,,,,232.5,1.0,,
210,,size_choice,,html-keyboard-response,210,137014,0.0-1.0-294.0,0,0,96744,,429.0,,,75.0,73.0,73.0,2.0,1500.0,M-M,,M,M,2.0,2.0,hairdryer,basketball,hairdryer3,basketball3,72.0,52.0,/static/Size_judgement/Stimuli/Size_stims/M/hairdryer/hairdryer17.jpg,/static/Size_judgement/Stimuli/Size_stims/M/basketball/basketball10.jpg,0.0,basketball,hairdryer,M,M,2.0,2.0,basketball3,hairdryer3,,232.929,0.429,0.0,
211,,size_choice_confirmation,,html-keyboard-response,211,138088,0.0-1.0-295.0-0.0,0,0,96744,,,,,,73.0,,,,,,,,,,,,,,,,,,,,,,,,,,,,234.0,1.071,,
212,,iti,,html-keyboard-response,212,138194,0.0-1.0-296.0,0,0,96744,,,,,,,,,,,,,,,,,,,,,,,,,,,,,,,,,,235.5,1.5,,
213,,size_choice,,html-keyboard-response,213,138557,0.0-1.0-298.0,0,0,96744,,362.0,,,75.0,74.0,74.0,2.0,1500.0,S-XL,0.0,S,XL,1.0,4.0,paperclip,crane,paperclip10,crane1,119.0,160.0,/static/Size_judgement/Stimuli/Size_stims/S/paperclip/paperclip10.jpg,/static/Size_judgement/Stimuli/Size_stims/XL/crane/crane7.jpg,0.0,crane,paperclip,XL,S,4.0,1.0,crane1,paperclip10,1.0,235.862,0.362,0.0,
214,,size_choice_confirmation,,html-keyboard-response,214,139699,0.0-1.0-299.0-0.0,0,0,96744,,,,,,74.0,,,,,,,,,,,,,,,,,,,,,,,,,,,,237.0,1.138,,
215,,iti,,html-keyboard-response,215,139804,0.0-1.0-300.0,0,0,96744,,,,,,,,,,,,,,,,,,,,,,,,,,,,,,,,,,238.5,1.5,,
216,,size_choice,,html-keyboard-response,216,139854,0.0-1.0-302.0,0,0,96744,,49.0,,,75.0,75.0,75.0,2.0,1000.0,M-L,1.0,L,M,3.0,2.0,cooler,ketchup,cooler5,ketchup10,4.0,99.0,/static/Size_judgement/Stimuli/Size_stims/L/cooler/cooler10.jpg,/static/Size_judgement/Stimuli/Size_stims/M/ketchup/ketchup6.jpg,0.0,ketchup,cooler,M,L,2.0,3.0,ketchup10,cooler5,0.0,238.549,0.049,0.0,
217,,size_choice_confirmation,,html-keyboard-response,217,141309,0.0-1.0-303.0-0.0,0,0,96744,,,,,,75.0,,,,,,,,,,,,,,,,,,,,,,,,,,,,240.0,1.451,,
218,,iti,,html-keyboard-response,218,141411,0.0-1.0-304.0,0,0,96744,,,,,,,,,,,,,,,,,,,,,,,,,,,,,,,,,,241.0,1.0,,
219,,size_choice,,html-keyboard-response,219,141882,0.0-1.0-306.0,0,0,96744,,470.0,,,75.0,76.0,76.0,2.0,3000.0,S-S,,S,S,1.0,1.0,screws,die,screws7,die4,126.0,103.0,/static/Size_judgement/Stimuli/Size_stims/S/screws/screws1.jpg,/static/Size_judgement/Stimuli/Size_stims/S/die/die2.jpg,0.0,die,screws,S,S,1.0,1.0,die4,screws7,,241.47,0.47,0.0,
220,,size_choice_confirmation,,html-keyboard-response,220,142915,0.0-1.0-307.0-0.0,0,0,96744,,,,,,76.0,,,,,,,,,,,,,,,,,,,,,,,,,,,,242.5,1.03,,
221,,iti,,html-keyboard-response,221,143021,0.0-1.0-308.0,0,0,96744,,,,,,,,,,,,,,,,,,,,,,,,,,,,,,,,,,245.5,3.0,,
222,,size_choice,,html-keyboard-response,222,143116,0.0-1.0-310.0,0,0,96744,,93.0,,,75.0,77.0,77.0,2.0,1000.0,L-L,,L,L,3.0,3.0,mailbox,cooler,mailbox1,cooler2,40.0,1.0,/static/Size_judgement/Stimuli/Size_stims/L/mailbox/mailbox3.jpg,/static/Size_judgement/Stimuli/Size_stims/L/cooler/cooler9.jpg,0.0,cooler,mailbox,L,L,3.0,3.0,cooler2,mailbox1,,245.593,0.093,0.0,
223,,size_choice_confirmation,,html-keyboard-response,223,144525,0.0-1.0-311.0-0.0,0,0,96744,,,,,,77.0,,,,,,,,,,,,,,,,,,,,,,,,,,,,247.0,1.407,,
224,,iti,,html-keyboard-response,224,144627,0.0-1.0-312.0,0,0,96744,,,,,,,,,,,,,,,,,,,,,,,,,,,,,,,,,,248.0,1.0,,
225,,size_choice,,html-keyboard-response,225,144894,0.0-1.0-314.0,0,0,96744,,266.0,,,75.0,78.0,78.0,2.0,1000.0,S-L,1.0,L,S,3.0,1.0,cooler,paperclip,cooler8,paperclip6,7.0,115.0,/static/Size_judgement/Stimuli/Size_stims/L/cooler/cooler5.jpg,/static/Size_judgement/Stimuli/Size_stims/S/paperclip/paperclip6.jpg,0.0,paperclip,cooler,S,L,1.0,3.0,paperclip6,cooler8,0.0,248.266,0.266,0.0,
226,,size_choice_confirmation,,html-keyboard-response,226,146131,0.0-1.0-315.0-0.0,0,0,96744,,,,,,78.0,,,,,,,,,,,,,,,,,,,,,,,,,,,,249.5,1.234,,
227,,iti,,html-keyboard-response,227,146232,0.0-1.0-316.0,0,0,96744,,,,,,,,,,,,,,,,,,,,,,,,,,,,,,,,,,250.5,1.0,,
228,,size_choice,,html-keyboard-response,228,146707,0.0-1.0-318.0,0,0,96744,,474.0,,,75.0,79.0,79.0,2.0,3000.0,S-XL,0.0,S,XL,1.0,4.0,paperclip,crane,paperclip3,crane2,112.0,161.0,/static/Size_judgement/Stimuli/Size_stims/S/paperclip/paperclip1.jpg,/static/Size_judgement/Stimuli/Size_stims/XL/crane/crane6.jpg,0.0,crane,paperclip,XL,S,4.0,1.0,crane2,paperclip3,1.0,250.974,0.474,0.0,
229,,size_choice_confirmation,,html-keyboard-response,229,147737,0.0-1.0-319.0-0.0,0,0,96744,,,,,,79.0,,,,,,,,,,,,,,,,,,,,,,,,,,,,252.0,1.026,,
230,,iti,,html-keyboard-response,230,147843,0.0-1.0-320.0,0,0,96744,,,,,,,,,,,,,,,,,,,,,,,,,,,,,,,,,,255.0,3.0,,
231,,size_choice,,html-keyboard-response,231,148366,0.0-1.0-322.0,0,0,96744,,521.0,,,75.0,80.0,80.0,2.0,1000.0,M-XL,0.0,M,XL,2.0,4.0,ketchup,van,ketchup1,van2,90.0,191.0,/static/Size_judgement/Stimuli/Size_stims/M/ketchup/ketchup8.jpg,/static/Size_judgement/Stimuli/Size_stims/XL/van/van4.jpg,0.0,van,ketchup,XL,M,4.0,2.0,van2,ketchup1,1.0,255.521,0.521,0.0,
232,,size_choice_confirmation,,html-keyboard-response,232,149346,0.0-1.0-323.0-0.0,0,0,96744,,,,,,80.0,,,,,,,,,,,,,,,,,,,,,,,,,,,,256.5,0.979,,
233,,iti,,html-keyboard-response,233,149448,0.0-1.0-324.0,0,0,96744,,,,,,,,,,,,,,,,,,,,,,,,,,,,,,,,,,257.5,1.0,,
234,,size_choice,,html-keyboard-response,234,149838,0.0-1.0-326.0,0,0,96744,,389.0,,,75.0,81.0,81.0,2.0,3000.0,M-XL,0.0,M,XL,2.0,4.0,coffeemaker,tractor,coffeemaker6,tractor3,65.0,182.0,/static/Size_judgement/Stimuli/Size_stims/M/coffeemaker/coffeemaker8.jpg,/static/Size_judgement/Stimuli/Size_stims/XL/tractor/tractor5.jpg,0.0,tractor,coffeemaker,XL,M,4.0,2.0,tractor3,coffeemaker6,1.0,257.889,0.389,0.0,
235,,size_choice_confirmation,,html-keyboard-response,235,150954,0.0-1.0-327.0-0.0,0,0,96744,,,,,,81.0,,,,,,,,,,,,,,,,,,,,,,,,,,,,259.0,1.111,,
236,,iti,,html-keyboard-response,236,151059,0.0-1.0-328.0,0,0,96744,,,,,,,,,,,,,,,,,,,,,,,,,,,,,,,,,,262.0,3.0,,
237,,size_choice,,html-keyboard-response,237,151756,0.0-1.0-330.0,0,0,96744,,696.0,,,75.0,82.0,82.0,2.0,1000.0,M-L,1.0,L,M,3.0,2.0,dishwasher,basketball,dishwasher6,basketball10,25.0,59.0,/static/Size_judgement/Stimuli/Size_stims/L/dishwasher/dishwasher6.jpg,/static/Size_judgement/Stimuli/Size_stims/M/basketball/basketball4.jpg,0.0,basketball,dishwasher,M,L,2.0,3.0,basketball10,dishwasher6,0.0,262.696,0.696,0.0,
238,,size_choice_confirmation,,html-keyboard-response,238,152563,0.0-1.0-331.0-0.0,0,0,96744,,,,,,82.0,,,,,,,,,,,,,,,,,,,,,,,,,,,,263.5,0.804,,
239,,iti,,html-keyboard-response,239,152664,0.0-1.0-332.0,0,0,96744,,,,,,,,,,,,,,,,,,,,,,,,,,,,,,,,,,264.5,1.0,,
240,,size_choice,,html-keyboard-response,240,152970,0.0-1.0-334.0,0,0,96744,,304.0,,,75.0,83.0,83.0,2.0,1000.0,M-XL,1.0,XL,M,4.0,2.0,van,hairdryer,van8,hairdryer9,197.0,78.0,/static/Size_judgement/Stimuli/Size_stims/XL/van/van10.jpg,/static/Size_judgement/Stimuli/Size_stims/M/hairdryer/hairdryer5.jpg,0.0,hairdryer,van,M,XL,2.0,4.0,hairdryer9,van8,0.0,264.804,0.304,0.0,
241,,size_choice_confirmation,,html-keyboard-response,241,154171,0.0-1.0-335.0-0.0,0,0,96744,,,,,,83.0,,,,,,,,,,,,,,,,,,,,,,,,,,,,266.0,1.196,,
242,,iti,,html-keyboard-response,242,154277,0.0-1.0-336.0,0,0,96744,,,,,,,,,,,,,,,,,,,,,,,,,,,,,,,,,,267.0,1.0,,
243,,size_choice,,html-keyboard-response,243,154901,0.0-1.0-338.0,0,0,96744,,623.0,,,75.0,84.0,84.0,2.0,1000.0,XL-XL,,XL,XL,4.0,4.0,tractor,dumptruck,tractor5,dumptruck3,184.0,172.0,/static/Size_judgement/Stimuli/Size_stims/XL/tractor/tractor1.jpg,/static/Size_judgement/Stimuli/Size_stims/XL/dumptruck/dumptruck10.jpg,0.0,dumptruck,tractor,XL,XL,4.0,4.0,dumptruck3,tractor5,,267.623,0.623,0.0,
244,,size_choice_confirmation,,html-keyboard-response,244,155784,0.0-1.0-339.0-0.0,0,0,96744,,,,,,84.0,,,,,,,,,,,,,,,,,,,,,,,,,,,,268.5,0.877,,
245,,iti,,html-keyboard-response,245,155887,0.0-1.0-340.0,0,0,96744,,,,,,,,,,,,,,,,,,,,,,,,,,,,,,,,,,269.5,1.0,,
246,,size_choice,,html-keyboard-response,246,155946,0.0-1.0-342.0,0,0,96744,,56.0,,,68.0,85.0,85.0,2.0,1000.0,M-L,1.0,L,M,3.0,2.0,mailbox,basketball,mailbox7,basketball1,46.0,50.0,/static/Size_judgement/Stimuli/Size_stims/L/mailbox/mailbox7.jpg,/static/Size_judgement/Stimuli/Size_stims/M/basketball/basketball9.jpg,1.0,mailbox,basketball,L,M,3.0,2.0,mailbox7,basketball1,1.0,269.556,0.056,0.0,
247,,size_choice_confirmation,,html-keyboard-response,247,157395,0.0-1.0-343.0-0.0,0,0,96744,,,,,,85.0,,,,,,,,,,,,,,,,,,,,,,,,,,,,271.0,1.444,,
248,,iti,,html-keyboard-response,248,157498,0.0-1.0-344.0,0,0,96744,,,,,,,,,,,,,,,,,,,,,,,,,,,,,,,,,,272.0,1.0,,
249,,size_choice,,html-keyboard-response,249,158024,0.0-1.0-346.0,0,0,96744,,524.0,,,75.0,86.0,86.0,2.0,1500.0,S-XL,1.0,XL,S,4.0,1.0,dumptruck,screws,dumptruck6,screws8,175.0,127.0,/static/Size_judgement/Stimuli/Size_stims/XL/dumptruck/dumptruck2.jpg,/static/Size_judgement/Stimuli/Size_stims/S/screws/screws10.jpg,0.0,screws,dumptruck,S,XL,1.0,4.0,screws8,dumptruck6,0.0,272.524,0.524,0.0,
250,,size_choice_confirmation,,html-keyboard-response,250,159005,0.0-1.0-347.0-0.0,0,0,96744,,,,,,86.0,,,,,,,,,,,,,,,,,,,,,,,,,,,,273.5,0.976,,
251,,iti,,html-keyboard-response,251,159107,0.0-1.0-348.0,0,0,96744,,,,,,,,,,,,,,,,,,,,,,,,,,,,,,,,,,275.0,1.5,,
252,,size_choice,,html-keyboard-response,252,159451,0.0-1.0-350.0,0,0,96744,,342.0,,,75.0,87.0,87.0,2.0,1500.0,L-XL,1.0,XL,L,4.0,3.0,car,deskchair,car7,deskchair8,156.0,17.0,/static/Size_judgement/Stimuli/Size_stims/XL/car/car13.jpg,/static/Size_judgement/Stimuli/Size_stims/L/deskchair/deskchair1.jpg,0.0,deskchair,car,L,XL,3.0,4.0,deskchair8,car7,0.0,275.342,0.342,0.0,
253,,size_choice_confirmation,,html-keyboard-response,253,160615,0.0-1.0-351.0-0.0,0,0,96744,,,,,,87.0,,,,,,,,,,,,,,,,,,,,,,,,,,,,276.5,1.158,,
254,,iti,,html-keyboard-response,254,160721,0.0-1.0-352.0,0,0,96744,,,,,,,,,,,,,,,,,,,,,,,,,,,,,,,,,,278.0,1.5,,
255,,size_choice,,html-keyboard-response,255,160829,0.0-1.0-354.0,0,0,96744,,107.0,,,75.0,88.0,88.0,2.0,1000.0,M-L,1.0,L,M,3.0,2.0,garbagecan,hairdryer,garbagecan10,hairdryer7,39.0,76.0,/static/Size_judgement/Stimuli/Size_stims/L/garbagecan/garbagecan11.jpg,/static/Size_judgement/Stimuli/Size_stims/M/hairdryer/hairdryer3.jpg,0.0,hairdryer,garbagecan,M,L,2.0,3.0,hairdryer7,garbagecan10,0.0,278.107,0.107,0.0,
256,,size_choice_confirmation,,html-keyboard-response,256,162227,0.0-1.0-355.0-0.0,0,0,96744,,,,,,88.0,,,,,,,,,,,,,,,,,,,,,,,,,,,,279.5,1.393,,
257,,iti,,html-keyboard-response,257,162330,0.0-1.0-356.0,0,0,96744,,,,,,,,,,,,,,,,,,,,,,,,,,,,,,,,,,280.5,1.0,,
258,,size_choice,,html-keyboard-response,258,162462,0.0-1.0-358.0,0,0,96744,,131.0,,,68.0,89.0,89.0,2.0,2000.0,M-XL,0.0,M,XL,2.0,4.0,handsaw,car,handsaw5,car10,84.0,159.0,/static/Size_judgement/Stimuli/Size_stims/M/handsaw/handsaw1.jpg,/static/Size_judgement/Stimuli/Size_stims/XL/car/car9.jpg,1.0,handsaw,car,M,XL,2.0,4.0,handsaw5,car10,0.0,280.631,0.131,0.0,
259,,size_choice_confirmation,,html-keyboard-response,259,163832,0.0-1.0-359.0-0.0,0,0,96744,,,,,,89.0,,,,,,,,,,,,,,,,,,,,,,,,,,,,282.0,1.369,,
260,,iti,,html-keyboard-response,260,163934,0.0-1.0-360.0,0,0,96744,,,,,,,,,,,,,,,,,,,,,,,,,,,,,,,,,,284.0,2.0,,0.36
261,,size_final_tally,,html-keyboard-response,261,163965,0.0-2.0,0,0,96744,,30.0,,,68.0,,,,,,,,,,,,,,,,,,,,,,,,,,,,,,,,
