,success,ttype,start_time,trial_type,trial_index,time_elapsed,internal_node_id,warning,missed_checkup,PID,view_history,rt,responses,repeat_instructions,key_press,index,trial_num,block,iti,pair_type,high_size_on_left,left_size_group,right_size_group,left_size_num,right_size_num,left_category,right_category,left_exemplar,right_exemplar,left_index,right_index,left_img_path,right_img_path,left_chosen,chosen_category,unchosen_category,chosen_size_group,unchosen_size_group,chosen_size_num,unchosen_size_num,chosen_exemplar,unchosen_exemplar,accuracy,no_response,onset,duration,size_final_tally
0,True,full_screen,d05182022hr1410,fullscreen,0,7436,0.0-0.0,0,0,1,,,,,,,,,,,,,,,,,,,,,,,,,,,,,,,,,,,,,
1,,size_instructions,,instructions,1,16420,0.0-1.0-0.0-0.0,0,0,1,"[{""page_index"":0,""viewing_time"":3941},{""page_index"":1,""viewing_time"":1796},{""page_index"":2,""viewing_time"":770},{""page_index"":3,""viewing_time"":758},{""page_index"":4,""viewing_time"":960},{""page_index"":5,""viewing_time"":756}]",8982.0,,,,,,,,,,,,,,,,,,,,,,,,,,,,,,,,,,,
2,,size_comprehension_check,,survey-multi-choice,2,21352,0.0-1.0-0.0-1.0,0,0,1,,4928.0,"{""Q0"":""True"",""Q1"":""Size on the screen"",""Q2"":""True"",""Q3"":""pointer finger for left and middle finger for right""}",1.0,,,,,,,,,,,,,,,,,,,,,,,,,,,,,,,,,
3,,,,html-keyboard-response,3,23130,0.0-1.0-1.0,0,0,1,,1776.0,,,50.0,,,,,,,,,,,,,,,,,,,,,,,,,,,,,,,,
4,,size_choice,,html-keyboard-response,4,23713,0.0-1.0-2.0,0,0,1,,581.0,,,50.0,0.0,0.0,1.0,1500.0,S-M,1.0,M,S,2.0,1.0,hairdryer,paperclip,hairdryer8,paperclip1,77.0,110.0,/static/Size_judgement/Stimuli/Size_stims/M/hairdryer/hairdryer1.jpg,/static/Size_judgement/Stimuli/Size_stims/S/paperclip/paperclip9.jpg,1.0,hairdryer,paperclip,M,S,2.0,1.0,hairdryer8,paperclip1,1.0,0.0,0.581,0.581,
5,,size_choice_confirmation,,html-keyboard-response,5,24636,0.0-1.0-3.0-0.0,0,0,1,,,,,,0.0,,,,,,,,,,,,,,,,,,,,,,,,,,,,,1.5,0.919,
6,,iti,,html-keyboard-response,6,24738,0.0-1.0-4.0,0,0,1,,,,,,,,,,,,,,,,,,,,,,,,,,,,,,,,,,,3.0,1.5,
7,,size_choice,,html-keyboard-response,7,25018,0.0-1.0-6.0,0,0,1,,278.0,,,50.0,1.0,1.0,1.0,1000.0,S-XL,0.0,S,XL,1.0,4.0,die,van,die5,van5,104.0,194.0,/static/Size_judgement/Stimuli/Size_stims/S/die/die3.jpg,/static/Size_judgement/Stimuli/Size_stims/XL/van/van3.jpg,1.0,die,van,S,XL,1.0,4.0,die5,van5,0.0,0.0,3.278,0.278,
8,,size_choice_confirmation,,html-keyboard-response,8,26243,0.0-1.0-7.0-0.0,0,0,1,,,,,,1.0,,,,,,,,,,,,,,,,,,,,,,,,,,,,,4.5,1.222,
9,,iti,,html-keyboard-response,9,26347,0.0-1.0-8.0,0,0,1,,,,,,,,,,,,,,,,,,,,,,,,,,,,,,,,,,,5.5,1.0,
10,,size_choice,,html-keyboard-response,10,26526,0.0-1.0-10.0,0,0,1,,178.0,,,50.0,2.0,2.0,1.0,1000.0,S-L,1.0,L,S,3.0,1.0,dishwasher,thread,dishwasher8,thread1,27.0,140.0,/static/Size_judgement/Stimuli/Size_stims/L/dishwasher/dishwasher3.jpg,/static/Size_judgement/Stimuli/Size_stims/S/thread/thread7.jpg,1.0,dishwasher,thread,L,S,3.0,1.0,dishwasher8,thread1,1.0,0.0,5.678,0.178,
11,,size_choice_confirmation,,html-keyboard-response,11,27854,0.0-1.0-11.0-0.0,0,0,1,,,,,,2.0,,,,,,,,,,,,,,,,,,,,,,,,,,,,,7.0,1.322,
12,,iti,,html-keyboard-response,12,27958,0.0-1.0-12.0,0,0,1,,,,,,,,,,,,,,,,,,,,,,,,,,,,,,,,,,,8.0,1.0,
13,,size_choice,,html-keyboard-response,13,27960,0.0-1.0-14.0,0,0,1,,1.0,,,50.0,3.0,3.0,1.0,1500.0,M-XL,1.0,XL,M,4.0,2.0,van,basketball,van4,basketball9,193.0,58.0,/static/Size_judgement/Stimuli/Size_stims/XL/van/van7.jpg,/static/Size_judgement/Stimuli/Size_stims/M/basketball/basketball5.jpg,1.0,van,basketball,XL,M,4.0,2.0,van4,basketball9,1.0,0.0,8.001,0.001,
14,,size_choice_confirmation,,html-keyboard-response,14,29463,0.0-1.0-15.0-0.0,0,0,1,,,,,,3.0,,,,,,,,,,,,,,,,,,,,,,,,,,,,,9.5,1.499,
15,,iti,,html-keyboard-response,15,29569,0.0-1.0-16.0,0,0,1,,,,,,,,,,,,,,,,,,,,,,,,,,,,,,,,,,,11.0,1.5,
16,,size_choice,,html-keyboard-response,16,29729,0.0-1.0-18.0,0,0,1,,159.0,,,51.0,4.0,4.0,1.0,1500.0,M-XL,1.0,XL,M,4.0,2.0,crane,handsaw,crane4,handsaw4,163.0,83.0,/static/Size_judgement/Stimuli/Size_stims/XL/crane/crane5.jpg,/static/Size_judgement/Stimuli/Size_stims/M/handsaw/handsaw3.jpg,0.0,handsaw,crane,M,XL,2.0,4.0,handsaw4,crane4,0.0,0.0,11.159,0.159,
17,,size_choice_confirmation,,html-keyboard-response,17,31077,0.0-1.0-19.0-0.0,0,0,1,,,,,,4.0,,,,,,,,,,,,,,,,,,,,,,,,,,,,,12.5,1.341,
18,,iti,,html-keyboard-response,18,31180,0.0-1.0-20.0,0,0,1,,,,,,,,,,,,,,,,,,,,,,,,,,,,,,,,,,,14.0,1.5,
19,,size_choice,,html-keyboard-response,19,31346,0.0-1.0-22.0,0,0,1,,165.0,,,51.0,5.0,5.0,1.0,1000.0,M-L,1.0,L,M,3.0,2.0,deskchair,handsaw,deskchair9,handsaw9,18.0,88.0,/static/Size_judgement/Stimuli/Size_stims/L/deskchair/deskchair3.jpg,/static/Size_judgement/Stimuli/Size_stims/M/handsaw/handsaw6.jpg,0.0,handsaw,deskchair,M,L,2.0,3.0,handsaw9,deskchair9,0.0,0.0,14.165,0.165,
20,,size_choice_confirmation,,html-keyboard-response,20,32684,0.0-1.0-23.0-0.0,0,0,1,,,,,,5.0,,,,,,,,,,,,,,,,,,,,,,,,,,,,,15.5,1.335,
21,,iti,,html-keyboard-response,21,32787,0.0-1.0-24.0,0,0,1,,,,,,,,,,,,,,,,,,,,,,,,,,,,,,,,,,,16.5,1.0,
22,,size_choice,,html-keyboard-response,22,32990,0.0-1.0-26.0,0,0,1,,202.0,,,51.0,6.0,6.0,1.0,1500.0,M-L,0.0,M,L,2.0,3.0,coffeemaker,mailbox,coffeemaker7,mailbox7,66.0,46.0,/static/Size_judgement/Stimuli/Size_stims/M/coffeemaker/coffeemaker9.jpg,/static/Size_judgement/Stimuli/Size_stims/L/mailbox/mailbox7.jpg,0.0,mailbox,coffeemaker,L,M,3.0,2.0,mailbox7,coffeemaker7,1.0,0.0,16.702,0.202,
23,,size_choice_confirmation,,html-keyboard-response,23,34290,0.0-1.0-27.0-0.0,0,0,1,,,,,,6.0,,,,,,,,,,,,,,,,,,,,,,,,,,,,,18.0,1.298,
24,,iti,,html-keyboard-response,24,34391,0.0-1.0-28.0,0,0,1,,,,,,,,,,,,,,,,,,,,,,,,,,,,,,,,,,,19.5,1.5,
25,,size_choice,,html-keyboard-response,25,34608,0.0-1.0-30.0,0,0,1,,215.0,,,51.0,7.0,7.0,1.0,1500.0,M-L,1.0,L,M,3.0,2.0,deskchair,ketchup,deskchair10,ketchup3,19.0,92.0,/static/Size_judgement/Stimuli/Size_stims/L/deskchair/deskchair2.jpg,/static/Size_judgement/Stimuli/Size_stims/M/ketchup/ketchup10.jpg,0.0,ketchup,deskchair,M,L,2.0,3.0,ketchup3,deskchair10,0.0,0.0,19.715,0.215,
26,,size_choice_confirmation,,html-keyboard-response,26,35896,0.0-1.0-31.0-0.0,0,0,1,,,,,,7.0,,,,,,,,,,,,,,,,,,,,,,,,,,,,,21.0,1.285,
27,,iti,,html-keyboard-response,27,36002,0.0-1.0-32.0,0,0,1,,,,,,,,,,,,,,,,,,,,,,,,,,,,,,,,,,,22.5,1.5,
28,,size_choice,,html-keyboard-response,28,36120,0.0-1.0-34.0,0,0,1,,116.0,,,51.0,8.0,8.0,1.0,2000.0,S-L,1.0,L,S,3.0,1.0,cooler,paperclip,cooler8,paperclip3,7.0,112.0,/static/Size_judgement/Stimuli/Size_stims/L/cooler/cooler5.jpg,/static/Size_judgement/Stimuli/Size_stims/S/paperclip/paperclip1.jpg,0.0,paperclip,cooler,S,L,1.0,3.0,paperclip3,cooler8,0.0,0.0,22.616,0.116,
29,,size_choice_confirmation,,html-keyboard-response,29,37506,0.0-1.0-35.0-0.0,0,0,1,,,,,,8.0,,,,,,,,,,,,,,,,,,,,,,,,,,,,,24.0,1.384,
30,,iti,,html-keyboard-response,30,37607,0.0-1.0-36.0,0,0,1,,,,,,,,,,,,,,,,,,,,,,,,,,,,,,,,,,,26.0,2.0,
31,,size_choice,,html-keyboard-response,31,38074,0.0-1.0-38.0,0,0,1,,465.0,,,51.0,9.0,9.0,1.0,1500.0,M-L,0.0,M,L,2.0,3.0,basketball,garbagecan,basketball10,garbagecan5,59.0,34.0,/static/Size_judgement/Stimuli/Size_stims/M/basketball/basketball4.jpg,/static/Size_judgement/Stimuli/Size_stims/L/garbagecan/garbagecan3.jpg,0.0,garbagecan,basketball,L,M,3.0,2.0,garbagecan5,basketball10,1.0,0.0,26.465,0.465,
32,,size_choice_confirmation,,html-keyboard-response,32,39113,0.0-1.0-39.0-0.0,0,0,1,,,,,,9.0,,,,,,,,,,,,,,,,,,,,,,,,,,,,,27.5,1.035,
33,,iti,,html-keyboard-response,33,39218,0.0-1.0-40.0,0,0,1,,,,,,,,,,,,,,,,,,,,,,,,,,,,,,,,,,,29.0,1.5,
34,,size_choice,,html-keyboard-response,34,39442,0.0-1.0-42.0,0,0,1,,221.0,,,51.0,10.0,10.0,1.0,2000.0,S-L,1.0,L,S,3.0,1.0,dishwasher,teabag,dishwasher1,teabag5,20.0,134.0,/static/Size_judgement/Stimuli/Size_stims/L/dishwasher/dishwasher10.jpg,/static/Size_judgement/Stimuli/Size_stims/S/teabag/teabag2.jpg,0.0,teabag,dishwasher,S,L,1.0,3.0,teabag5,dishwasher1,0.0,0.0,29.221,0.221,
35,,size_choice_confirmation,,html-keyboard-response,35,40726,0.0-1.0-43.0-0.0,0,0,1,,,,,,10.0,,,,,,,,,,,,,,,,,,,,,,,,,,,,,30.5,1.279,
36,,iti,,html-keyboard-response,36,40830,0.0-1.0-44.0,0,0,1,,,,,,,,,,,,,,,,,,,,,,,,,,,,,,,,,,,32.5,2.0,
37,,size_choice,,html-keyboard-response,37,40945,0.0-1.0-46.0,0,0,1,,114.0,,,51.0,11.0,11.0,1.0,1000.0,S-S,,S,S,1.0,1.0,thread,die,thread10,die4,149.0,103.0,/static/Size_judgement/Stimuli/Size_stims/S/thread/thread9.jpg,/static/Size_judgement/Stimuli/Size_stims/S/die/die2.jpg,0.0,die,thread,S,S,1.0,1.0,die4,thread10,,0.0,32.614,0.114,
38,,size_choice_confirmation,,html-keyboard-response,38,42338,0.0-1.0-47.0-0.0,0,0,1,,,,,,11.0,,,,,,,,,,,,,,,,,,,,,,,,,,,,,34.0,1.386,
39,,iti,,html-keyboard-response,39,42443,0.0-1.0-48.0,0,0,1,,,,,,,,,,,,,,,,,,,,,,,,,,,,,,,,,,,35.0,1.0,
40,,size_choice,,html-keyboard-response,40,42601,0.0-1.0-50.0,0,0,1,,157.0,,,51.0,12.0,12.0,1.0,1000.0,S-XL,0.0,S,XL,1.0,4.0,teabag,crane,teabag6,crane6,135.0,165.0,/static/Size_judgement/Stimuli/Size_stims/S/teabag/teabag6.jpg,/static/Size_judgement/Stimuli/Size_stims/XL/crane/crane2.jpg,0.0,crane,teabag,XL,S,4.0,1.0,crane6,teabag6,1.0,0.0,35.157,0.157,
41,,size_choice_confirmation,,html-keyboard-response,41,43948,0.0-1.0-51.0-0.0,0,0,1,,,,,,12.0,,,,,,,,,,,,,,,,,,,,,,,,,,,,,36.5,1.343,
42,,iti,,html-keyboard-response,42,44054,0.0-1.0-52.0,0,0,1,,,,,,,,,,,,,,,,,,,,,,,,,,,,,,,,,,,37.5,1.0,
43,,size_choice,,html-keyboard-response,43,44136,0.0-1.0-54.0,0,0,1,,80.0,,,51.0,13.0,13.0,1.0,1500.0,S-M,0.0,S,M,1.0,2.0,paperclip,ketchup,paperclip2,ketchup7,111.0,96.0,/static/Size_judgement/Stimuli/Size_stims/S/paperclip/paperclip8.jpg,/static/Size_judgement/Stimuli/Size_stims/M/ketchup/ketchup4.jpg,0.0,ketchup,paperclip,M,S,2.0,1.0,ketchup7,paperclip2,1.0,0.0,37.58,0.08,
44,,size_choice_confirmation,,html-keyboard-response,44,45560,0.0-1.0-55.0-0.0,0,0,1,,,,,,13.0,,,,,,,,,,,,,,,,,,,,,,,,,,,,,39.0,1.42,
45,,iti,,html-keyboard-response,45,45663,0.0-1.0-56.0,0,0,1,,,,,,,,,,,,,,,,,,,,,,,,,,,,,,,,,,,40.5,1.5,
46,,size_choice,,html-keyboard-response,46,46178,0.0-1.0-58.0,0,0,1,,513.0,,,51.0,14.0,14.0,1.0,2000.0,S-L,0.0,S,L,1.0,3.0,thread,garbagecan,thread6,garbagecan8,145.0,37.0,/static/Size_judgement/Stimuli/Size_stims/S/thread/thread2.jpg,/static/Size_judgement/Stimuli/Size_stims/L/garbagecan/garbagecan13.jpg,0.0,garbagecan,thread,L,S,3.0,1.0,garbagecan8,thread6,1.0,0.0,41.013,0.513,
47,,size_choice_confirmation,,html-keyboard-response,47,47170,0.0-1.0-59.0-0.0,0,0,1,,,,,,14.0,,,,,,,,,,,,,,,,,,,,,,,,,,,,,42.0,0.987,
48,,iti,,html-keyboard-response,48,47275,0.0-1.0-60.0,0,0,1,,,,,,,,,,,,,,,,,,,,,,,,,,,,,,,,,,,44.0,2.0,
49,,size_choice,,html-keyboard-response,49,47759,0.0-1.0-62.0,0,0,1,,483.0,,,51.0,15.0,15.0,1.0,1000.0,S-L,0.0,S,L,1.0,3.0,screws,dishwasher,screws4,dishwasher2,123.0,21.0,/static/Size_judgement/Stimuli/Size_stims/S/screws/screws6.jpg,/static/Size_judgement/Stimuli/Size_stims/L/dishwasher/dishwasher9.jpg,0.0,dishwasher,screws,L,S,3.0,1.0,dishwasher2,screws4,1.0,0.0,44.483,0.483,
50,,size_choice_confirmation,,html-keyboard-response,50,48780,0.0-1.0-63.0-0.0,0,0,1,,,,,,15.0,,,,,,,,,,,,,,,,,,,,,,,,,,,,,45.5,1.017,
51,,iti,,html-keyboard-response,51,48882,0.0-1.0-64.0,0,0,1,,,,,,,,,,,,,,,,,,,,,,,,,,,,,,,,,,,46.5,1.0,
52,,size_choice,,html-keyboard-response,52,48888,0.0-1.0-66.0,0,0,1,,5.0,,,51.0,16.0,16.0,1.0,3000.0,XL-XL,,XL,XL,4.0,4.0,dumptruck,crane,dumptruck9,crane9,178.0,168.0,/static/Size_judgement/Stimuli/Size_stims/XL/dumptruck/dumptruck5.jpg,/static/Size_judgement/Stimuli/Size_stims/XL/crane/crane8.jpg,0.0,crane,dumptruck,XL,XL,4.0,4.0,crane9,dumptruck9,,0.0,46.505,0.005,
53,,size_choice_confirmation,,html-keyboard-response,53,50386,0.0-1.0-67.0-0.0,0,0,1,,,,,,16.0,,,,,,,,,,,,,,,,,,,,,,,,,,,,,48.0,1.495,
54,,iti,,html-keyboard-response,54,50487,0.0-1.0-68.0,0,0,1,,,,,,,,,,,,,,,,,,,,,,,,,,,,,,,,,,,51.0,3.0,
55,,size_choice,,html-keyboard-response,55,50674,0.0-1.0-70.0,0,0,1,,186.0,,,51.0,17.0,17.0,1.0,1000.0,L-L,,L,L,3.0,3.0,deskchair,mailbox,deskchair2,mailbox5,11.0,44.0,/static/Size_judgement/Stimuli/Size_stims/L/deskchair/deskchair8.jpg,/static/Size_judgement/Stimuli/Size_stims/L/mailbox/mailbox4.jpg,0.0,mailbox,deskchair,L,L,3.0,3.0,mailbox5,deskchair2,,0.0,51.186,0.186,
56,,size_choice_confirmation,,html-keyboard-response,56,51993,0.0-1.0-71.0-0.0,0,0,1,,,,,,17.0,,,,,,,,,,,,,,,,,,,,,,,,,,,,,52.5,1.314,
57,,iti,,html-keyboard-response,57,52095,0.0-1.0-72.0,0,0,1,,,,,,,,,,,,,,,,,,,,,,,,,,,,,,,,,,,53.5,1.0,
58,,size_choice,,html-keyboard-response,58,52250,0.0-1.0-74.0,0,0,1,,154.0,,,51.0,18.0,18.0,1.0,3000.0,M-XL,1.0,XL,M,4.0,2.0,van,coffeemaker,van2,coffeemaker8,191.0,67.0,/static/Size_judgement/Stimuli/Size_stims/XL/van/van4.jpg,/static/Size_judgement/Stimuli/Size_stims/M/coffeemaker/coffeemaker5.jpg,0.0,coffeemaker,van,M,XL,2.0,4.0,coffeemaker8,van2,0.0,0.0,53.654,0.154,
59,,size_choice_confirmation,,html-keyboard-response,59,53601,0.0-1.0-75.0-0.0,0,0,1,,,,,,18.0,,,,,,,,,,,,,,,,,,,,,,,,,,,,,55.0,1.346,
60,,iti,,html-keyboard-response,60,53705,0.0-1.0-76.0,0,0,1,,,,,,,,,,,,,,,,,,,,,,,,,,,,,,,,,,,58.0,3.0,
61,,size_choice,,html-keyboard-response,61,54129,0.0-1.0-78.0,0,0,1,,423.0,,,51.0,19.0,19.0,1.0,1000.0,M-XL,1.0,XL,M,4.0,2.0,tractor,handsaw,tractor6,handsaw1,185.0,80.0,/static/Size_judgement/Stimuli/Size_stims/XL/tractor/tractor3.jpg,/static/Size_judgement/Stimuli/Size_stims/M/handsaw/handsaw8.jpg,0.0,handsaw,tractor,M,XL,2.0,4.0,handsaw1,tractor6,0.0,0.0,58.423,0.423,
62,,size_choice_confirmation,,html-keyboard-response,62,55212,0.0-1.0-79.0-0.0,0,0,1,,,,,,19.0,,,,,,,,,,,,,,,,,,,,,,,,,,,,,59.5,1.077,
63,,iti,,html-keyboard-response,63,55314,0.0-1.0-80.0,0,0,1,,,,,,,,,,,,,,,,,,,,,,,,,,,,,,,,,,,60.5,1.0,
64,,size_choice,,html-keyboard-response,64,55642,0.0-1.0-82.0,0,0,1,,327.0,,,51.0,20.0,20.0,1.0,1000.0,M-XL,0.0,M,XL,2.0,4.0,hairdryer,van,hairdryer9,van1,78.0,190.0,/static/Size_judgement/Stimuli/Size_stims/M/hairdryer/hairdryer5.jpg,/static/Size_judgement/Stimuli/Size_stims/XL/van/van5.jpg,0.0,van,hairdryer,XL,M,4.0,2.0,van1,hairdryer9,1.0,0.0,60.827,0.327,
65,,size_choice_confirmation,,html-keyboard-response,65,56818,0.0-1.0-83.0-0.0,0,0,1,,,,,,20.0,,,,,,,,,,,,,,,,,,,,,,,,,,,,,62.0,1.173,
66,,iti,,html-keyboard-response,66,56920,0.0-1.0-84.0,0,0,1,,,,,,,,,,,,,,,,,,,,,,,,,,,,,,,,,,,63.0,1.0,
67,,size_choice,,html-keyboard-response,67,57327,0.0-1.0-86.0,0,0,1,,405.0,,,50.0,21.0,21.0,1.0,1000.0,S-M,0.0,S,M,1.0,2.0,die,hairdryer,die6,hairdryer4,105.0,73.0,/static/Size_judgement/Stimuli/Size_stims/S/die/die1.jpg,/static/Size_judgement/Stimuli/Size_stims/M/hairdryer/hairdryer16.jpg,1.0,die,hairdryer,S,M,1.0,2.0,die6,hairdryer4,0.0,0.0,63.405,0.405,
68,,size_choice_confirmation,,html-keyboard-response,68,58425,0.0-1.0-87.0-0.0,0,0,1,,,,,,21.0,,,,,,,,,,,,,,,,,,,,,,,,,,,,,64.5,1.095,
69,,iti,,html-keyboard-response,69,58530,0.0-1.0-88.0,0,0,1,,,,,,,,,,,,,,,,,,,,,,,,,,,,,,,,,,,65.5,1.0,
70,,size_choice,,html-keyboard-response,70,58962,0.0-1.0-90.0,0,0,1,,430.0,,,50.0,22.0,22.0,1.0,1000.0,S-L,1.0,L,S,3.0,1.0,mailbox,teabag,mailbox3,teabag8,42.0,137.0,/static/Size_judgement/Stimuli/Size_stims/L/mailbox/mailbox1.jpg,/static/Size_judgement/Stimuli/Size_stims/S/teabag/teabag7.jpg,1.0,mailbox,teabag,L,S,3.0,1.0,mailbox3,teabag8,1.0,0.0,65.93,0.43,
71,,size_choice_confirmation,,html-keyboard-response,71,60034,0.0-1.0-91.0-0.0,0,0,1,,,,,,22.0,,,,,,,,,,,,,,,,,,,,,,,,,,,,,67.0,1.07,
72,,iti,,html-keyboard-response,72,60136,0.0-1.0-92.0,0,0,1,,,,,,,,,,,,,,,,,,,,,,,,,,,,,,,,,,,68.0,1.0,
73,,size_choice,,html-keyboard-response,73,60891,0.0-1.0-94.0,0,0,1,,753.0,,,50.0,23.0,23.0,1.0,1500.0,M-XL,1.0,XL,M,4.0,2.0,tractor,basketball,tractor4,basketball4,183.0,53.0,/static/Size_judgement/Stimuli/Size_stims/XL/tractor/tractor4.jpg,/static/Size_judgement/Stimuli/Size_stims/M/basketball/basketball1.jpg,1.0,tractor,basketball,XL,M,4.0,2.0,tractor4,basketball4,1.0,0.0,68.753,0.753,
74,,size_choice_confirmation,,html-keyboard-response,74,61640,0.0-1.0-95.0-0.0,0,0,1,,,,,,23.0,,,,,,,,,,,,,,,,,,,,,,,,,,,,,69.5,0.747,
75,,iti,,html-keyboard-response,75,61741,0.0-1.0-96.0,0,0,1,,,,,,,,,,,,,,,,,,,,,,,,,,,,,,,,,,,71.0,1.5,
76,,size_choice,,html-keyboard-response,76,62286,0.0-1.0-98.0,0,0,1,,544.0,,,50.0,24.0,24.0,1.0,2000.0,S-XL,1.0,XL,S,4.0,1.0,dumptruck,die,dumptruck6,die8,175.0,107.0,/static/Size_judgement/Stimuli/Size_stims/XL/dumptruck/dumptruck2.jpg,/static/Size_judgement/Stimuli/Size_stims/S/die/die5.jpg,1.0,dumptruck,die,XL,S,4.0,1.0,dumptruck6,die8,1.0,0.0,71.544,0.544,
77,,size_choice_confirmation,,html-keyboard-response,77,63247,0.0-1.0-99.0-0.0,0,0,1,,,,,,24.0,,,,,,,,,,,,,,,,,,,,,,,,,,,,,72.5,0.956,
78,,iti,,html-keyboard-response,78,63352,0.0-1.0-100.0,0,0,1,,,,,,,,,,,,,,,,,,,,,,,,,,,,,,,,,,,74.5,2.0,
79,,size_choice,,html-keyboard-response,79,63995,0.0-1.0-102.0,0,0,1,,641.0,,,50.0,25.0,25.0,1.0,1000.0,S-XL,1.0,XL,S,4.0,1.0,van,die,van10,die10,199.0,109.0,/static/Size_judgement/Stimuli/Size_stims/XL/van/van8.jpg,/static/Size_judgement/Stimuli/Size_stims/S/die/die6.jpg,1.0,van,die,XL,S,4.0,1.0,van10,die10,1.0,0.0,75.141,0.641,
80,,size_choice_confirmation,,html-keyboard-response,80,64857,0.0-1.0-103.0-0.0,0,0,1,,,,,,25.0,,,,,,,,,,,,,,,,,,,,,,,,,,,,,76.0,0.859,
81,,iti,,html-keyboard-response,81,64963,0.0-1.0-104.0,0,0,1,,,,,,,,,,,,,,,,,,,,,,,,,,,,,,,,,,,77.0,1.0,
82,,size_choice,,html-keyboard-response,82,65739,0.0-1.0-106.0,0,0,1,,773.0,,,50.0,26.0,26.0,1.0,2000.0,M-M,,M,M,2.0,2.0,coffeemaker,hairdryer,coffeemaker5,hairdryer1,64.0,70.0,/static/Size_judgement/Stimuli/Size_stims/M/coffeemaker/coffeemaker10.jpg,/static/Size_judgement/Stimuli/Size_stims/M/hairdryer/hairdryer11.jpg,1.0,coffeemaker,hairdryer,M,M,2.0,2.0,coffeemaker5,hairdryer1,,0.0,77.773,0.773,
83,,size_choice_confirmation,,html-keyboard-response,83,66471,0.0-1.0-107.0-0.0,0,0,1,,,,,,26.0,,,,,,,,,,,,,,,,,,,,,,,,,,,,,78.5,0.727,
84,,iti,,html-keyboard-response,84,66574,0.0-1.0-108.0,0,0,1,,,,,,,,,,,,,,,,,,,,,,,,,,,,,,,,,,,80.5,2.0,
85,,size_choice,,html-keyboard-response,85,67402,0.0-1.0-110.0,0,0,1,,826.0,,,51.0,27.0,27.0,1.0,3000.0,XL-XL,,XL,XL,4.0,4.0,car,dumptruck,car7,dumptruck2,156.0,171.0,/static/Size_judgement/Stimuli/Size_stims/XL/car/car13.jpg,/static/Size_judgement/Stimuli/Size_stims/XL/dumptruck/dumptruck8.jpg,0.0,dumptruck,car,XL,XL,4.0,4.0,dumptruck2,car7,,0.0,81.326,0.826,
86,,size_choice_confirmation,,html-keyboard-response,86,68082,0.0-1.0-111.0-0.0,0,0,1,,,,,,27.0,,,,,,,,,,,,,,,,,,,,,,,,,,,,,82.0,0.674,
87,,iti,,html-keyboard-response,87,68187,0.0-1.0-112.0,0,0,1,,,,,,,,,,,,,,,,,,,,,,,,,,,,,,,,,,,85.0,3.0,
88,,size_choice,,html-keyboard-response,88,69160,0.0-1.0-114.0,0,0,1,,972.0,,,50.0,28.0,28.0,1.0,1000.0,M-L,1.0,L,M,3.0,2.0,mailbox,ketchup,mailbox2,ketchup6,41.0,95.0,/static/Size_judgement/Stimuli/Size_stims/L/mailbox/mailbox2.jpg,/static/Size_judgement/Stimuli/Size_stims/M/ketchup/ketchup1.jpg,1.0,mailbox,ketchup,L,M,3.0,2.0,mailbox2,ketchup6,1.0,0.0,85.972,0.972,
89,,size_choice_confirmation,,html-keyboard-response,89,69693,0.0-1.0-115.0-0.0,0,0,1,,,,,,28.0,,,,,,,,,,,,,,,,,,,,,,,,,,,,,86.5,0.528,
90,,iti,,html-keyboard-response,90,69798,0.0-1.0-116.0,0,0,1,,,,,,,,,,,,,,,,,,,,,,,,,,,,,,,,,,,87.5,1.0,
91,,size_choice,,html-keyboard-response,91,70689,0.0-1.0-118.0,0,0,1,,890.0,,,50.0,29.0,29.0,1.0,3500.0,L-XL,1.0,XL,L,4.0,3.0,van,cooler,van7,cooler5,196.0,4.0,/static/Size_judgement/Stimuli/Size_stims/XL/van/van1.jpg,/static/Size_judgement/Stimuli/Size_stims/L/cooler/cooler10.jpg,1.0,van,cooler,XL,L,4.0,3.0,van7,cooler5,1.0,0.0,88.39,0.89,
92,,size_choice_confirmation,,html-keyboard-response,92,71305,0.0-1.0-119.0-0.0,0,0,1,,,,,,29.0,,,,,,,,,,,,,,,,,,,,,,,,,,,,,89.0,0.61,
93,,iti,,html-keyboard-response,93,71410,0.0-1.0-120.0,0,0,1,,,,,,,,,,,,,,,,,,,,,,,,,,,,,,,,,,,92.5,3.5,
94,,size_choice,,html-keyboard-response,94,72308,0.0-1.0-122.0,0,0,1,,896.0,,,50.0,30.0,30.0,1.0,1000.0,S-S,,S,S,1.0,1.0,paperclip,teabag,paperclip9,teabag2,118.0,131.0,/static/Size_judgement/Stimuli/Size_stims/S/paperclip/paperclip4.jpg,/static/Size_judgement/Stimuli/Size_stims/S/teabag/teabag8.jpg,1.0,paperclip,teabag,S,S,1.0,1.0,paperclip9,teabag2,,0.0,93.396,0.896,
95,,size_choice_confirmation,,html-keyboard-response,95,72914,0.0-1.0-123.0-0.0,0,0,1,,,,,,30.0,,,,,,,,,,,,,,,,,,,,,,,,,,,,,94.0,0.604,
96,,iti,,html-keyboard-response,96,73019,0.0-1.0-124.0,0,0,1,,,,,,,,,,,,,,,,,,,,,,,,,,,,,,,,,,,95.0,1.0,
97,,size_choice,,html-keyboard-response,97,73851,0.0-1.0-126.0,0,0,1,,829.0,,,50.0,31.0,31.0,1.0,1500.0,S-S,,S,S,1.0,1.0,thread,screws,thread4,screws8,143.0,127.0,/static/Size_judgement/Stimuli/Size_stims/S/thread/thread5.jpg,/static/Size_judgement/Stimuli/Size_stims/S/screws/screws10.jpg,1.0,thread,screws,S,S,1.0,1.0,thread4,screws8,,0.0,95.829,0.829,
98,,size_choice_confirmation,,html-keyboard-response,98,74526,0.0-1.0-127.0-0.0,0,0,1,,,,,,31.0,,,,,,,,,,,,,,,,,,,,,,,,,,,,,96.5,0.671,
99,,iti,,html-keyboard-response,99,74628,0.0-1.0-128.0,0,0,1,,,,,,,,,,,,,,,,,,,,,,,,,,,,,,,,,,,98.0,1.5,
100,,size_choice,,html-keyboard-response,100,75277,0.0-1.0-130.0,0,0,1,,647.0,,,51.0,32.0,32.0,1.0,2000.0,S-XL,0.0,S,XL,1.0,4.0,die,crane,die7,crane8,106.0,167.0,/static/Size_judgement/Stimuli/Size_stims/S/die/die4.jpg,/static/Size_judgement/Stimuli/Size_stims/XL/crane/crane10.jpg,0.0,crane,die,XL,S,4.0,1.0,crane8,die7,1.0,0.0,98.647,0.647,
101,,size_choice_confirmation,,html-keyboard-response,101,76136,0.0-1.0-131.0-0.0,0,0,1,,,,,,32.0,,,,,,,,,,,,,,,,,,,,,,,,,,,,,99.5,0.853,
102,,iti,,html-keyboard-response,102,76237,0.0-1.0-132.0,0,0,1,,,,,,,,,,,,,,,,,,,,,,,,,,,,,,,,,,,101.5,2.0,
103,,size_choice,,html-keyboard-response,103,76877,0.0-1.0-134.0,0,0,1,,638.0,,,50.0,33.0,33.0,1.0,1000.0,M-M,,M,M,2.0,2.0,hairdryer,handsaw,hairdryer3,handsaw3,72.0,82.0,/static/Size_judgement/Stimuli/Size_stims/M/hairdryer/hairdryer17.jpg,/static/Size_judgement/Stimuli/Size_stims/M/handsaw/handsaw2.jpg,1.0,hairdryer,handsaw,M,M,2.0,2.0,hairdryer3,handsaw3,,0.0,102.138,0.638,
104,,size_choice_confirmation,,html-keyboard-response,104,77741,0.0-1.0-135.0-0.0,0,0,1,,,,,,33.0,,,,,,,,,,,,,,,,,,,,,,,,,,,,,103.0,0.862,
105,,iti,,html-keyboard-response,105,77846,0.0-1.0-136.0,0,0,1,,,,,,,,,,,,,,,,,,,,,,,,,,,,,,,,,,,104.0,1.0,
106,,size_choice,,html-keyboard-response,106,78594,0.0-1.0-138.0,0,0,1,,747.0,,,51.0,34.0,34.0,1.0,1500.0,L-L,,L,L,3.0,3.0,garbagecan,cooler,garbagecan9,cooler1,38.0,0.0,/static/Size_judgement/Stimuli/Size_stims/L/garbagecan/garbagecan12.jpg,/static/Size_judgement/Stimuli/Size_stims/L/cooler/cooler8.jpg,0.0,cooler,garbagecan,L,L,3.0,3.0,cooler1,garbagecan9,,0.0,104.747,0.747,
107,,size_choice_confirmation,,html-keyboard-response,107,79352,0.0-1.0-139.0-0.0,0,0,1,,,,,,34.0,,,,,,,,,,,,,,,,,,,,,,,,,,,,,105.5,0.753,
108,,iti,,html-keyboard-response,108,79454,0.0-1.0-140.0,0,0,1,,,,,,,,,,,,,,,,,,,,,,,,,,,,,,,,,,,107.0,1.5,
109,,size_choice,,html-keyboard-response,109,80218,0.0-1.0-142.0,0,0,1,,763.0,,,50.0,35.0,35.0,1.0,2000.0,S-L,1.0,L,S,3.0,1.0,cooler,teabag,cooler9,teabag1,8.0,130.0,/static/Size_judgement/Stimuli/Size_stims/L/cooler/cooler7.jpg,/static/Size_judgement/Stimuli/Size_stims/S/teabag/teabag9.jpg,1.0,cooler,teabag,L,S,3.0,1.0,cooler9,teabag1,1.0,0.0,107.763,0.763,
110,,size_choice_confirmation,,html-keyboard-response,110,80960,0.0-1.0-143.0-0.0,0,0,1,,,,,,35.0,,,,,,,,,,,,,,,,,,,,,,,,,,,,,108.5,0.737,
111,,iti,,html-keyboard-response,111,81063,0.0-1.0-144.0,0,0,1,,,,,,,,,,,,,,,,,,,,,,,,,,,,,,,,,,,110.5,2.0,
112,,size_choice,,html-keyboard-response,112,81771,0.0-1.0-146.0,0,0,1,,706.0,,,50.0,36.0,36.0,1.0,3500.0,M-L,1.0,L,M,3.0,2.0,garbagecan,ketchup,garbagecan3,ketchup5,32.0,94.0,/static/Size_judgement/Stimuli/Size_stims/L/garbagecan/garbagecan7.jpg,/static/Size_judgement/Stimuli/Size_stims/M/ketchup/ketchup3.jpg,1.0,garbagecan,ketchup,L,M,3.0,2.0,garbagecan3,ketchup5,1.0,0.0,111.206,0.706,
113,,size_choice_confirmation,,html-keyboard-response,113,82570,0.0-1.0-147.0-0.0,0,0,1,,,,,,36.0,,,,,,,,,,,,,,,,,,,,,,,,,,,,,112.0,0.794,
114,,iti,,html-keyboard-response,114,82674,0.0-1.0-148.0,0,0,1,,,,,,,,,,,,,,,,,,,,,,,,,,,,,,,,,,,115.5,3.5,
115,,size_choice,,html-keyboard-response,115,83299,0.0-1.0-150.0,0,0,1,,624.0,,,50.0,37.0,37.0,1.0,1500.0,M-L,1.0,L,M,3.0,2.0,mailbox,ketchup,mailbox6,ketchup4,45.0,93.0,/static/Size_judgement/Stimuli/Size_stims/L/mailbox/mailbox6.jpg,/static/Size_judgement/Stimuli/Size_stims/M/ketchup/ketchup2.jpg,1.0,mailbox,ketchup,L,M,3.0,2.0,mailbox6,ketchup4,1.0,0.0,116.124,0.624,
116,,size_choice_confirmation,,html-keyboard-response,116,84180,0.0-1.0-151.0-0.0,0,0,1,,,,,,37.0,,,,,,,,,,,,,,,,,,,,,,,,,,,,,117.0,0.876,
117,,iti,,html-keyboard-response,117,84285,0.0-1.0-152.0,0,0,1,,,,,,,,,,,,,,,,,,,,,,,,,,,,,,,,,,,118.5,1.5,
118,,size_choice,,html-keyboard-response,118,84319,0.0-1.0-154.0,0,0,1,,33.0,,,50.0,38.0,38.0,1.0,1000.0,L-L,,L,L,3.0,3.0,mailbox,garbagecan,mailbox8,garbagecan4,47.0,33.0,/static/Size_judgement/Stimuli/Size_stims/L/mailbox/mailbox10.jpg,/static/Size_judgement/Stimuli/Size_stims/L/garbagecan/garbagecan6.jpg,1.0,mailbox,garbagecan,L,L,3.0,3.0,mailbox8,garbagecan4,,0.0,118.533,0.033,
119,,size_choice_confirmation,,html-keyboard-response,119,85789,0.0-1.0-155.0-0.0,0,0,1,,,,,,38.0,,,,,,,,,,,,,,,,,,,,,,,,,,,,,120.0,1.467,
120,,iti,,html-keyboard-response,120,85890,0.0-1.0-156.0,0,0,1,,,,,,,,,,,,,,,,,,,,,,,,,,,,,,,,,,,121.0,1.0,
121,,size_choice,,html-keyboard-response,121,86626,0.0-1.0-158.0,0,0,1,,735.0,,,50.0,39.0,39.0,1.0,1000.0,M-M,,M,M,2.0,2.0,basketball,hairdryer,basketball6,hairdryer7,55.0,76.0,/static/Size_judgement/Stimuli/Size_stims/M/basketball/basketball2.jpg,/static/Size_judgement/Stimuli/Size_stims/M/hairdryer/hairdryer3.jpg,1.0,basketball,hairdryer,M,M,2.0,2.0,basketball6,hairdryer7,,0.0,121.735,0.735,
122,,size_choice_confirmation,,html-keyboard-response,122,87397,0.0-1.0-159.0-0.0,0,0,1,,,,,,39.0,,,,,,,,,,,,,,,,,,,,,,,,,,,,,122.5,0.765,
123,,iti,,html-keyboard-response,123,87501,0.0-1.0-160.0,0,0,1,,,,,,,,,,,,,,,,,,,,,,,,,,,,,,,,,,,123.5,1.0,
124,,size_choice,,html-keyboard-response,124,88135,0.0-1.0-162.0,0,0,1,,633.0,,,50.0,40.0,40.0,1.0,3000.0,S-XL,1.0,XL,S,4.0,1.0,crane,thread,crane7,thread5,166.0,144.0,/static/Size_judgement/Stimuli/Size_stims/XL/crane/crane3.jpg,/static/Size_judgement/Stimuli/Size_stims/S/thread/thread1.jpg,1.0,crane,thread,XL,S,4.0,1.0,crane7,thread5,1.0,0.0,124.133,0.633,
125,,size_choice_confirmation,,html-keyboard-response,125,89005,0.0-1.0-163.0-0.0,0,0,1,,,,,,40.0,,,,,,,,,,,,,,,,,,,,,,,,,,,,,125.0,0.867,
126,,iti,,html-keyboard-response,126,89107,0.0-1.0-164.0,0,0,1,,,,,,,,,,,,,,,,,,,,,,,,,,,,,,,,,,,128.0,3.0,
127,,size_choice,,html-keyboard-response,127,89714,0.0-1.0-166.0,0,0,1,,606.0,,,51.0,41.0,41.0,1.0,1000.0,S-XL,0.0,S,XL,1.0,4.0,teabag,tractor,teabag7,tractor7,136.0,186.0,/static/Size_judgement/Stimuli/Size_stims/S/teabag/teabag10.jpg,/static/Size_judgement/Stimuli/Size_stims/XL/tractor/tractor2.jpg,0.0,tractor,teabag,XL,S,4.0,1.0,tractor7,teabag7,1.0,0.0,128.606,0.606,
128,,size_choice_confirmation,,html-keyboard-response,128,90613,0.0-1.0-167.0-0.0,0,0,1,,,,,,41.0,,,,,,,,,,,,,,,,,,,,,,,,,,,,,129.5,0.894,
129,,iti,,html-keyboard-response,129,90717,0.0-1.0-168.0,0,0,1,,,,,,,,,,,,,,,,,,,,,,,,,,,,,,,,,,,130.5,1.0,
130,,size_choice,,html-keyboard-response,130,91307,0.0-1.0-170.0,0,0,1,,589.0,,,51.0,42.0,42.0,1.0,1500.0,L-XL,0.0,L,XL,3.0,4.0,garbagecan,car,garbagecan10,car6,39.0,155.0,/static/Size_judgement/Stimuli/Size_stims/L/garbagecan/garbagecan11.jpg,/static/Size_judgement/Stimuli/Size_stims/XL/car/car12.jpg,0.0,car,garbagecan,XL,L,4.0,3.0,car6,garbagecan10,1.0,0.0,131.089,0.589,
131,,size_choice_confirmation,,html-keyboard-response,131,92221,0.0-1.0-171.0-0.0,0,0,1,,,,,,42.0,,,,,,,,,,,,,,,,,,,,,,,,,,,,,132.0,0.911,
132,,iti,,html-keyboard-response,132,92325,0.0-1.0-172.0,0,0,1,,,,,,,,,,,,,,,,,,,,,,,,,,,,,,,,,,,133.5,1.5,
133,,size_choice,,html-keyboard-response,133,93011,0.0-1.0-174.0,0,0,1,,685.0,,,50.0,43.0,43.0,1.0,3500.0,M-XL,1.0,XL,M,4.0,2.0,car,coffeemaker,car4,coffeemaker9,153.0,68.0,/static/Size_judgement/Stimuli/Size_stims/XL/car/car6.jpg,/static/Size_judgement/Stimuli/Size_stims/M/coffeemaker/coffeemaker7.jpg,1.0,car,coffeemaker,XL,M,4.0,2.0,car4,coffeemaker9,1.0,0.0,134.185,0.685,
134,,size_choice_confirmation,,html-keyboard-response,134,93828,0.0-1.0-175.0-0.0,0,0,1,,,,,,43.0,,,,,,,,,,,,,,,,,,,,,,,,,,,,,135.0,0.815,
135,,iti,,html-keyboard-response,135,93933,0.0-1.0-176.0,0,0,1,,,,,,,,,,,,,,,,,,,,,,,,,,,,,,,,,,,138.5,3.5,
136,,size_choice,,html-keyboard-response,136,94490,0.0-1.0-178.0,0,0,1,,554.0,,,51.0,44.0,44.0,1.0,2000.0,L-XL,0.0,L,XL,3.0,4.0,cooler,car,cooler4,car5,3.0,154.0,/static/Size_judgement/Stimuli/Size_stims/L/cooler/cooler3.jpg,/static/Size_judgement/Stimuli/Size_stims/XL/car/car11.jpg,0.0,car,cooler,XL,L,4.0,3.0,car5,cooler4,1.0,0.0,139.054,0.554,
137,,size_choice_confirmation,,html-keyboard-response,137,95438,0.0-1.0-179.0-0.0,0,0,1,,,,,,44.0,,,,,,,,,,,,,,,,,,,,,,,,,,,,,140.0,0.946,
138,,iti,,html-keyboard-response,138,95544,0.0-1.0-180.0,0,0,1,,,,,,,,,,,,,,,,,,,,,,,,,,,,,,,,,,,142.0,2.0,
139,,block_over,,html-keyboard-response,139,97819,0.0-1.0-181.0-0.0,0,0,1,,2272.0,,,50.0,44.0,,,,,,,,,,,,,,,,,,,,,,,,,,,,,,,
140,,size_choice,,html-keyboard-response,140,98519,0.0-1.0-182.0,0,0,1,,700.0,,,51.0,45.0,45.0,2.0,3500.0,S-M,0.0,S,M,1.0,2.0,screws,handsaw,screws5,handsaw6,124.0,85.0,/static/Size_judgement/Stimuli/Size_stims/S/screws/screws2.jpg,/static/Size_judgement/Stimuli/Size_stims/M/handsaw/handsaw4.jpg,0.0,handsaw,screws,M,S,2.0,1.0,handsaw6,screws5,1.0,0.0,142.7,0.7,
141,,size_choice_confirmation,,html-keyboard-response,141,99326,0.0-1.0-183.0-0.0,0,0,1,,,,,,45.0,,,,,,,,,,,,,,,,,,,,,,,,,,,,,143.5,0.8,
142,,iti,,html-keyboard-response,142,99431,0.0-1.0-184.0,0,0,1,,,,,,,,,,,,,,,,,,,,,,,,,,,,,,,,,,,147.0,3.5,
143,,size_choice,,html-keyboard-response,143,100233,0.0-1.0-186.0,0,0,1,,800.0,,,51.0,46.0,46.0,2.0,1000.0,S-S,,S,S,1.0,1.0,screws,paperclip,screws9,paperclip6,128.0,115.0,/static/Size_judgement/Stimuli/Size_stims/S/screws/screws8.jpg,/static/Size_judgement/Stimuli/Size_stims/S/paperclip/paperclip6.jpg,0.0,paperclip,screws,S,S,1.0,1.0,paperclip6,screws9,,0.0,147.8,0.8,
144,,size_choice_confirmation,,html-keyboard-response,144,100936,0.0-1.0-187.0-0.0,0,0,1,,,,,,46.0,,,,,,,,,,,,,,,,,,,,,,,,,,,,,148.5,0.7,
145,,iti,,html-keyboard-response,145,101039,0.0-1.0-188.0,0,0,1,,,,,,,,,,,,,,,,,,,,,,,,,,,,,,,,,,,149.5,1.0,
146,,size_choice,,html-keyboard-response,146,101643,0.0-1.0-190.0,0,0,1,,602.0,,,50.0,47.0,47.0,2.0,2000.0,M-XL,1.0,XL,M,4.0,2.0,crane,basketball,crane5,basketball5,164.0,54.0,/static/Size_judgement/Stimuli/Size_stims/XL/crane/crane1.jpg,/static/Size_judgement/Stimuli/Size_stims/M/basketball/basketball3.jpg,1.0,crane,basketball,XL,M,4.0,2.0,crane5,basketball5,1.0,0.0,150.102,0.602,
147,,size_choice_confirmation,,html-keyboard-response,147,102547,0.0-1.0-191.0-0.0,0,0,1,,,,,,47.0,,,,,,,,,,,,,,,,,,,,,,,,,,,,,151.0,0.898,
148,,iti,,html-keyboard-response,148,102648,0.0-1.0-192.0,0,0,1,,,,,,,,,,,,,,,,,,,,,,,,,,,,,,,,,,,153.0,2.0,
149,,size_choice,,html-keyboard-response,149,103331,0.0-1.0-194.0,0,0,1,,681.0,,,51.0,48.0,48.0,2.0,1000.0,M-L,0.0,M,L,2.0,3.0,hairdryer,mailbox,hairdryer6,mailbox10,75.0,49.0,/static/Size_judgement/Stimuli/Size_stims/M/hairdryer/hairdryer8.jpg,/static/Size_judgement/Stimuli/Size_stims/L/mailbox/mailbox8.jpg,0.0,mailbox,hairdryer,L,M,3.0,2.0,mailbox10,hairdryer6,1.0,0.0,153.681,0.681,
150,,size_choice_confirmation,,html-keyboard-response,150,104154,0.0-1.0-195.0-0.0,0,0,1,,,,,,48.0,,,,,,,,,,,,,,,,,,,,,,,,,,,,,154.5,0.819,
151,,iti,,html-keyboard-response,151,104259,0.0-1.0-196.0,0,0,1,,,,,,,,,,,,,,,,,,,,,,,,,,,,,,,,,,,155.5,1.0,
152,,size_choice,,html-keyboard-response,152,104897,0.0-1.0-198.0,0,0,1,,637.0,,,50.0,49.0,49.0,2.0,2000.0,M-XL,1.0,XL,M,4.0,2.0,tractor,coffeemaker,tractor5,coffeemaker1,184.0,60.0,/static/Size_judgement/Stimuli/Size_stims/XL/tractor/tractor1.jpg,/static/Size_judgement/Stimuli/Size_stims/M/coffeemaker/coffeemaker14.jpg,1.0,tractor,coffeemaker,XL,M,4.0,2.0,tractor5,coffeemaker1,1.0,0.0,156.137,0.637,
153,,size_choice_confirmation,,html-keyboard-response,153,105764,0.0-1.0-199.0-0.0,0,0,1,,,,,,49.0,,,,,,,,,,,,,,,,,,,,,,,,,,,,,157.0,0.863,
154,,iti,,html-keyboard-response,154,105870,0.0-1.0-200.0,0,0,1,,,,,,,,,,,,,,,,,,,,,,,,,,,,,,,,,,,159.0,2.0,
155,,size_choice,,html-keyboard-response,155,106460,0.0-1.0-202.0,0,0,1,,588.0,,,50.0,50.0,50.0,2.0,1000.0,S-XL,1.0,XL,S,4.0,1.0,car,teabag,car9,teabag10,158.0,139.0,/static/Size_judgement/Stimuli/Size_stims/XL/car/car15.jpg,/static/Size_judgement/Stimuli/Size_stims/S/teabag/teabag4.jpg,1.0,car,teabag,XL,S,4.0,1.0,car9,teabag10,1.0,0.0,159.588,0.588,
156,,size_choice_confirmation,,html-keyboard-response,156,107374,0.0-1.0-203.0-0.0,0,0,1,,,,,,50.0,,,,,,,,,,,,,,,,,,,,,,,,,,,,,160.5,0.912,
157,,iti,,html-keyboard-response,157,107479,0.0-1.0-204.0,0,0,1,,,,,,,,,,,,,,,,,,,,,,,,,,,,,,,,,,,161.5,1.0,
158,,size_choice,,html-keyboard-response,158,108028,0.0-1.0-206.0,0,0,1,,548.0,,,51.0,51.0,51.0,2.0,1500.0,XL-XL,,XL,XL,4.0,4.0,crane,car,crane10,car8,169.0,157.0,/static/Size_judgement/Stimuli/Size_stims/XL/crane/crane9.jpg,/static/Size_judgement/Stimuli/Size_stims/XL/car/car14.jpg,0.0,car,crane,XL,XL,4.0,4.0,car8,crane10,,0.0,162.048,0.548,
159,,size_choice_confirmation,,html-keyboard-response,159,108984,0.0-1.0-207.0-0.0,0,0,1,,,,,,51.0,,,,,,,,,,,,,,,,,,,,,,,,,,,,,163.0,0.952,
160,,iti,,html-keyboard-response,160,109086,0.0-1.0-208.0,0,0,1,,,,,,,,,,,,,,,,,,,,,,,,,,,,,,,,,,,164.5,1.5,
161,,size_choice,,html-keyboard-response,161,109961,0.0-1.0-210.0,0,0,1,,874.0,,,51.0,52.0,52.0,2.0,1000.0,M-L,0.0,M,L,2.0,3.0,coffeemaker,dishwasher,coffeemaker2,dishwasher3,61.0,22.0,/static/Size_judgement/Stimuli/Size_stims/M/coffeemaker/coffeemaker12.jpg,/static/Size_judgement/Stimuli/Size_stims/L/dishwasher/dishwasher8.jpg,0.0,dishwasher,coffeemaker,L,M,3.0,2.0,dishwasher3,coffeemaker2,1.0,0.0,165.374,0.874,
162,,size_choice_confirmation,,html-keyboard-response,162,110593,0.0-1.0-211.0-0.0,0,0,1,,,,,,52.0,,,,,,,,,,,,,,,,,,,,,,,,,,,,,166.0,0.626,
163,,iti,,html-keyboard-response,163,110697,0.0-1.0-212.0,0,0,1,,,,,,,,,,,,,,,,,,,,,,,,,,,,,,,,,,,167.0,1.0,
164,,size_choice,,html-keyboard-response,164,111411,0.0-1.0-214.0,0,0,1,,712.0,,,50.0,53.0,53.0,2.0,3000.0,S-L,1.0,L,S,3.0,1.0,deskchair,paperclip,deskchair4,paperclip7,13.0,116.0,/static/Size_judgement/Stimuli/Size_stims/L/deskchair/deskchair6.jpg,/static/Size_judgement/Stimuli/Size_stims/S/paperclip/paperclip7.jpg,1.0,deskchair,paperclip,L,S,3.0,1.0,deskchair4,paperclip7,1.0,0.0,167.712,0.712,
165,,size_choice_confirmation,,html-keyboard-response,165,112203,0.0-1.0-215.0-0.0,0,0,1,,,,,,53.0,,,,,,,,,,,,,,,,,,,,,,,,,,,,,168.5,0.788,
166,,iti,,html-keyboard-response,166,112307,0.0-1.0-216.0,0,0,1,,,,,,,,,,,,,,,,,,,,,,,,,,,,,,,,,,,171.5,3.0,
167,,size_choice,,html-keyboard-response,167,112964,0.0-1.0-218.0,0,0,1,,655.0,,,50.0,54.0,54.0,2.0,2000.0,S-S,,S,S,1.0,1.0,screws,paperclip,screws1,paperclip10,120.0,119.0,/static/Size_judgement/Stimuli/Size_stims/S/screws/screws4.jpg,/static/Size_judgement/Stimuli/Size_stims/S/paperclip/paperclip10.jpg,1.0,screws,paperclip,S,S,1.0,1.0,screws1,paperclip10,,0.0,172.155,0.655,
168,,size_choice_confirmation,,html-keyboard-response,168,113814,0.0-1.0-219.0-0.0,0,0,1,,,,,,54.0,,,,,,,,,,,,,,,,,,,,,,,,,,,,,173.0,0.845,
169,,iti,,html-keyboard-response,169,113920,0.0-1.0-220.0,0,0,1,,,,,,,,,,,,,,,,,,,,,,,,,,,,,,,,,,,175.0,2.0,
170,,size_choice,,html-keyboard-response,170,114802,0.0-1.0-222.0,0,0,1,,881.0,,,50.0,55.0,55.0,2.0,1500.0,M-L,1.0,L,M,3.0,2.0,dishwasher,ketchup,dishwasher5,ketchup2,24.0,91.0,/static/Size_judgement/Stimuli/Size_stims/L/dishwasher/dishwasher4.jpg,/static/Size_judgement/Stimuli/Size_stims/M/ketchup/ketchup9.jpg,1.0,dishwasher,ketchup,L,M,3.0,2.0,dishwasher5,ketchup2,1.0,0.0,175.881,0.881,
171,,size_choice_confirmation,,html-keyboard-response,171,115427,0.0-1.0-223.0-0.0,0,0,1,,,,,,55.0,,,,,,,,,,,,,,,,,,,,,,,,,,,,,176.5,0.619,
172,,iti,,html-keyboard-response,172,115532,0.0-1.0-224.0,0,0,1,,,,,,,,,,,,,,,,,,,,,,,,,,,,,,,,,,,178.0,1.5,
173,,size_choice,,html-keyboard-response,173,116362,0.0-1.0-226.0,0,0,1,,828.0,,,51.0,56.0,56.0,2.0,1000.0,M-L,0.0,M,L,2.0,3.0,hairdryer,deskchair,hairdryer5,deskchair3,74.0,12.0,/static/Size_judgement/Stimuli/Size_stims/M/hairdryer/hairdryer15.jpg,/static/Size_judgement/Stimuli/Size_stims/L/deskchair/deskchair10.jpg,0.0,deskchair,hairdryer,L,M,3.0,2.0,deskchair3,hairdryer5,1.0,0.0,178.828,0.828,
174,,size_choice_confirmation,,html-keyboard-response,174,117038,0.0-1.0-227.0-0.0,0,0,1,,,,,,56.0,,,,,,,,,,,,,,,,,,,,,,,,,,,,,179.5,0.672,
175,,iti,,html-keyboard-response,175,117139,0.0-1.0-228.0,0,0,1,,,,,,,,,,,,,,,,,,,,,,,,,,,,,,,,,,,180.5,1.0,
176,,size_choice,,html-keyboard-response,176,118034,0.0-1.0-230.0,0,0,1,,894.0,,,51.0,57.0,57.0,2.0,1000.0,S-XL,0.0,S,XL,1.0,4.0,thread,dumptruck,thread7,dumptruck1,146.0,170.0,/static/Size_judgement/Stimuli/Size_stims/S/thread/thread3.jpg,/static/Size_judgement/Stimuli/Size_stims/XL/dumptruck/dumptruck9.jpg,0.0,dumptruck,thread,XL,S,4.0,1.0,dumptruck1,thread7,1.0,0.0,181.394,0.894,
177,,size_choice_confirmation,,html-keyboard-response,177,118647,0.0-1.0-231.0-0.0,0,0,1,,,,,,57.0,,,,,,,,,,,,,,,,,,,,,,,,,,,,,182.0,0.606,
178,,iti,,html-keyboard-response,178,118750,0.0-1.0-232.0,0,0,1,,,,,,,,,,,,,,,,,,,,,,,,,,,,,,,,,,,183.0,1.0,
179,,size_choice,,html-keyboard-response,179,119605,0.0-1.0-234.0,0,0,1,,855.0,,,51.0,58.0,58.0,2.0,1000.0,S-L,0.0,S,L,1.0,3.0,teabag,dishwasher,teabag9,dishwasher6,138.0,25.0,/static/Size_judgement/Stimuli/Size_stims/S/teabag/teabag5.jpg,/static/Size_judgement/Stimuli/Size_stims/L/dishwasher/dishwasher6.jpg,0.0,dishwasher,teabag,L,S,3.0,1.0,dishwasher6,teabag9,1.0,0.0,183.855,0.855,
180,,size_choice_confirmation,,html-keyboard-response,180,120255,0.0-1.0-235.0-0.0,0,0,1,,,,,,58.0,,,,,,,,,,,,,,,,,,,,,,,,,,,,,184.5,0.645,
181,,iti,,html-keyboard-response,181,120360,0.0-1.0-236.0,0,0,1,,,,,,,,,,,,,,,,,,,,,,,,,,,,,,,,,,,185.5,1.0,
182,,size_choice,,html-keyboard-response,182,121067,0.0-1.0-238.0,0,0,1,,706.0,,,50.0,59.0,59.0,2.0,1000.0,M-M,,M,M,2.0,2.0,basketball,ketchup,basketball2,ketchup10,51.0,99.0,/static/Size_judgement/Stimuli/Size_stims/M/basketball/basketball8.jpg,/static/Size_judgement/Stimuli/Size_stims/M/ketchup/ketchup6.jpg,1.0,basketball,ketchup,M,M,2.0,2.0,basketball2,ketchup10,,0.0,186.206,0.706,
183,,size_choice_confirmation,,html-keyboard-response,183,121865,0.0-1.0-239.0-0.0,0,0,1,,,,,,59.0,,,,,,,,,,,,,,,,,,,,,,,,,,,,,187.0,0.794,
184,,iti,,html-keyboard-response,184,121970,0.0-1.0-240.0,0,0,1,,,,,,,,,,,,,,,,,,,,,,,,,,,,,,,,,,,188.0,1.0,
185,,size_choice,,html-keyboard-response,185,122538,0.0-1.0-242.0,0,0,1,,567.0,,,51.0,60.0,60.0,2.0,1500.0,M-XL,0.0,M,XL,2.0,4.0,ketchup,dumptruck,ketchup1,dumptruck3,90.0,172.0,/static/Size_judgement/Stimuli/Size_stims/M/ketchup/ketchup8.jpg,/static/Size_judgement/Stimuli/Size_stims/XL/dumptruck/dumptruck10.jpg,0.0,dumptruck,ketchup,XL,M,4.0,2.0,dumptruck3,ketchup1,1.0,0.0,188.567,0.567,
186,,size_choice_confirmation,,html-keyboard-response,186,123475,0.0-1.0-243.0-0.0,0,0,1,,,,,,60.0,,,,,,,,,,,,,,,,,,,,,,,,,,,,,189.5,0.933,
187,,iti,,html-keyboard-response,187,123580,0.0-1.0-244.0,0,0,1,,,,,,,,,,,,,,,,,,,,,,,,,,,,,,,,,,,191.0,1.5,
188,,size_choice,,html-keyboard-response,188,124147,0.0-1.0-246.0,0,0,1,,565.0,,,51.0,61.0,61.0,2.0,1500.0,M-XL,0.0,M,XL,2.0,4.0,basketball,tractor,basketball1,tractor1,50.0,180.0,/static/Size_judgement/Stimuli/Size_stims/M/basketball/basketball9.jpg,/static/Size_judgement/Stimuli/Size_stims/XL/tractor/tractor6.jpg,0.0,tractor,basketball,XL,M,4.0,2.0,tractor1,basketball1,1.0,0.0,191.565,0.565,
189,,size_choice_confirmation,,html-keyboard-response,189,125089,0.0-1.0-247.0-0.0,0,0,1,,,,,,61.0,,,,,,,,,,,,,,,,,,,,,,,,,,,,,192.5,0.935,
190,,iti,,html-keyboard-response,190,125194,0.0-1.0-248.0,0,0,1,,,,,,,,,,,,,,,,,,,,,,,,,,,,,,,,,,,194.0,1.5,
191,,size_choice,,html-keyboard-response,191,125880,0.0-1.0-250.0,0,0,1,,684.0,,,51.0,62.0,62.0,2.0,3000.0,L-XL,0.0,L,XL,3.0,4.0,cooler,van,cooler2,van9,1.0,198.0,/static/Size_judgement/Stimuli/Size_stims/L/cooler/cooler9.jpg,/static/Size_judgement/Stimuli/Size_stims/XL/van/van9.jpg,0.0,van,cooler,XL,L,4.0,3.0,van9,cooler2,1.0,0.0,194.684,0.684,
192,,size_choice_confirmation,,html-keyboard-response,192,126701,0.0-1.0-251.0-0.0,0,0,1,,,,,,62.0,,,,,,,,,,,,,,,,,,,,,,,,,,,,,195.5,0.816,
193,,iti,,html-keyboard-response,193,126806,0.0-1.0-252.0,0,0,1,,,,,,,,,,,,,,,,,,,,,,,,,,,,,,,,,,,198.5,3.0,
194,,size_choice,,html-keyboard-response,194,127458,0.0-1.0-254.0,0,0,1,,650.0,,,51.0,63.0,63.0,2.0,3500.0,S-L,0.0,S,L,1.0,3.0,thread,dishwasher,thread2,dishwasher7,141.0,26.0,/static/Size_judgement/Stimuli/Size_stims/S/thread/thread6.jpg,/static/Size_judgement/Stimuli/Size_stims/L/dishwasher/dishwasher7.jpg,0.0,dishwasher,thread,L,S,3.0,1.0,dishwasher7,thread2,1.0,0.0,199.15,0.65,
195,,size_choice_confirmation,,html-keyboard-response,195,128314,0.0-1.0-255.0-0.0,0,0,1,,,,,,63.0,,,,,,,,,,,,,,,,,,,,,,,,,,,,,200.0,0.85,
196,,iti,,html-keyboard-response,196,128419,0.0-1.0-256.0,0,0,1,,,,,,,,,,,,,,,,,,,,,,,,,,,,,,,,,,,203.5,3.5,
197,,size_choice,,html-keyboard-response,197,129204,0.0-1.0-258.0,0,0,1,,784.0,,,51.0,64.0,64.0,2.0,1500.0,M-L,0.0,M,L,2.0,3.0,handsaw,cooler,handsaw8,cooler7,87.0,6.0,/static/Size_judgement/Stimuli/Size_stims/M/handsaw/handsaw7.jpg,/static/Size_judgement/Stimuli/Size_stims/L/cooler/cooler4.jpg,0.0,cooler,handsaw,L,M,3.0,2.0,cooler7,handsaw8,1.0,0.0,204.284,0.784,
198,,size_choice_confirmation,,html-keyboard-response,198,129923,0.0-1.0-259.0-0.0,0,0,1,,,,,,64.0,,,,,,,,,,,,,,,,,,,,,,,,,,,,,205.0,0.716,
199,,iti,,html-keyboard-response,199,130026,0.0-1.0-260.0,0,0,1,,,,,,,,,,,,,,,,,,,,,,,,,,,,,,,,,,,206.5,1.5,
200,,size_choice,,html-keyboard-response,200,130635,0.0-1.0-262.0,0,0,1,,607.0,,,51.0,65.0,65.0,2.0,2000.0,M-L,0.0,M,L,2.0,3.0,handsaw,mailbox,handsaw5,mailbox1,84.0,40.0,/static/Size_judgement/Stimuli/Size_stims/M/handsaw/handsaw1.jpg,/static/Size_judgement/Stimuli/Size_stims/L/mailbox/mailbox3.jpg,0.0,mailbox,handsaw,L,M,3.0,2.0,mailbox1,handsaw5,1.0,0.0,207.107,0.607,
201,,size_choice_confirmation,,html-keyboard-response,201,131534,0.0-1.0-263.0-0.0,0,0,1,,,,,,65.0,,,,,,,,,,,,,,,,,,,,,,,,,,,,,208.0,0.893,
202,,iti,,html-keyboard-response,202,131637,0.0-1.0-264.0,0,0,1,,,,,,,,,,,,,,,,,,,,,,,,,,,,,,,,,,,210.0,2.0,
203,,size_choice,,html-keyboard-response,203,132178,0.0-1.0-266.0,0,0,1,,540.0,,,50.0,66.0,66.0,2.0,1000.0,M-XL,1.0,XL,M,4.0,2.0,car,ketchup,car10,ketchup8,159.0,97.0,/static/Size_judgement/Stimuli/Size_stims/XL/car/car9.jpg,/static/Size_judgement/Stimuli/Size_stims/M/ketchup/ketchup5.jpg,1.0,car,ketchup,XL,M,4.0,2.0,car10,ketchup8,1.0,0.0,210.54,0.54,
204,,size_choice_confirmation,,html-keyboard-response,204,133145,0.0-1.0-267.0-0.0,0,0,1,,,,,,66.0,,,,,,,,,,,,,,,,,,,,,,,,,,,,,211.5,0.96,
205,,iti,,html-keyboard-response,205,133247,0.0-1.0-268.0,0,0,1,,,,,,,,,,,,,,,,,,,,,,,,,,,,,,,,,,,212.5,1.0,
206,,size_choice,,html-keyboard-response,206,134193,0.0-1.0-270.0,0,0,1,,945.0,,,50.0,67.0,67.0,2.0,1000.0,S-L,1.0,L,S,3.0,1.0,deskchair,thread,deskchair6,thread3,15.0,142.0,/static/Size_judgement/Stimuli/Size_stims/L/deskchair/deskchair5.jpg,/static/Size_judgement/Stimuli/Size_stims/S/thread/thread4.jpg,1.0,deskchair,thread,L,S,3.0,1.0,deskchair6,thread3,1.0,0.0,213.445,0.945,
207,,size_choice_confirmation,,html-keyboard-response,207,134751,0.0-1.0-271.0-0.0,0,0,1,,,,,,67.0,,,,,,,,,,,,,,,,,,,,,,,,,,,,,214.0,0.555,
208,,iti,,html-keyboard-response,208,134856,0.0-1.0-272.0,0,0,1,,,,,,,,,,,,,,,,,,,,,,,,,,,,,,,,,,,215.0,1.0,
209,,size_choice,,html-keyboard-response,209,135523,0.0-1.0-274.0,0,0,1,,665.0,,,51.0,68.0,68.0,2.0,2000.0,S-XL,0.0,S,XL,1.0,4.0,screws,dumptruck,screws3,dumptruck4,122.0,173.0,/static/Size_judgement/Stimuli/Size_stims/S/screws/screws7.jpg,/static/Size_judgement/Stimuli/Size_stims/XL/dumptruck/dumptruck1.jpg,0.0,dumptruck,screws,XL,S,4.0,1.0,dumptruck4,screws3,1.0,0.0,215.665,0.665,
210,,size_choice_confirmation,,html-keyboard-response,210,136364,0.0-1.0-275.0-0.0,0,0,1,,,,,,68.0,,,,,,,,,,,,,,,,,,,,,,,,,,,,,216.5,0.835,
211,,iti,,html-keyboard-response,211,136468,0.0-1.0-276.0,0,0,1,,,,,,,,,,,,,,,,,,,,,,,,,,,,,,,,,,,218.5,2.0,
212,,size_choice,,html-keyboard-response,212,137002,0.0-1.0-278.0,0,0,1,,533.0,,,51.0,69.0,69.0,2.0,3000.0,S-XL,0.0,S,XL,1.0,4.0,paperclip,dumptruck,paperclip8,dumptruck7,117.0,176.0,/static/Size_judgement/Stimuli/Size_stims/S/paperclip/paperclip5.jpg,/static/Size_judgement/Stimuli/Size_stims/XL/dumptruck/dumptruck6.jpg,0.0,dumptruck,paperclip,XL,S,4.0,1.0,dumptruck7,paperclip8,1.0,0.0,219.033,0.533,
213,,size_choice_confirmation,,html-keyboard-response,213,137971,0.0-1.0-279.0-0.0,0,0,1,,,,,,69.0,,,,,,,,,,,,,,,,,,,,,,,,,,,,,220.0,0.967,
214,,iti,,html-keyboard-response,214,138077,0.0-1.0-280.0,0,0,1,,,,,,,,,,,,,,,,,,,,,,,,,,,,,,,,,,,223.0,3.0,
215,,size_choice,,html-keyboard-response,215,138889,0.0-1.0-282.0,0,0,1,,811.0,,,51.0,70.0,70.0,2.0,1500.0,S-L,0.0,S,L,1.0,3.0,die,deskchair,die1,deskchair8,100.0,17.0,/static/Size_judgement/Stimuli/Size_stims/S/die/die8.jpg,/static/Size_judgement/Stimuli/Size_stims/L/deskchair/deskchair1.jpg,0.0,deskchair,die,L,S,3.0,1.0,deskchair8,die1,1.0,0.0,223.811,0.811,
216,,size_choice_confirmation,,html-keyboard-response,216,139582,0.0-1.0-283.0-0.0,0,0,1,,,,,,70.0,,,,,,,,,,,,,,,,,,,,,,,,,,,,,224.5,0.689,
217,,iti,,html-keyboard-response,217,139683,0.0-1.0-284.0,0,0,1,,,,,,,,,,,,,,,,,,,,,,,,,,,,,,,,,,,226.0,1.5,
218,,size_choice,,html-keyboard-response,218,140361,0.0-1.0-286.0,0,0,1,,677.0,,,51.0,71.0,71.0,2.0,1500.0,XL-XL,,XL,XL,4.0,4.0,tractor,van,tractor3,van8,182.0,197.0,/static/Size_judgement/Stimuli/Size_stims/XL/tractor/tractor5.jpg,/static/Size_judgement/Stimuli/Size_stims/XL/van/van10.jpg,0.0,van,tractor,XL,XL,4.0,4.0,van8,tractor3,,0.0,226.677,0.677,
219,,size_choice_confirmation,,html-keyboard-response,219,141188,0.0-1.0-287.0-0.0,0,0,1,,,,,,71.0,,,,,,,,,,,,,,,,,,,,,,,,,,,,,227.5,0.823,
220,,iti,,html-keyboard-response,220,141293,0.0-1.0-288.0,0,0,1,,,,,,,,,,,,,,,,,,,,,,,,,,,,,,,,,,,229.0,1.5,
221,,size_choice,,html-keyboard-response,221,141869,0.0-1.0-290.0,0,0,1,,574.0,,,51.0,72.0,72.0,2.0,1500.0,S-XL,0.0,S,XL,1.0,4.0,paperclip,dumptruck,paperclip4,dumptruck5,113.0,174.0,/static/Size_judgement/Stimuli/Size_stims/S/paperclip/paperclip3.jpg,/static/Size_judgement/Stimuli/Size_stims/XL/dumptruck/dumptruck3.jpg,0.0,dumptruck,paperclip,XL,S,4.0,1.0,dumptruck5,paperclip4,1.0,0.0,229.574,0.574,
222,,size_choice_confirmation,,html-keyboard-response,222,142800,0.0-1.0-291.0-0.0,0,0,1,,,,,,72.0,,,,,,,,,,,,,,,,,,,,,,,,,,,,,230.5,0.926,
223,,iti,,html-keyboard-response,223,142905,0.0-1.0-292.0,0,0,1,,,,,,,,,,,,,,,,,,,,,,,,,,,,,,,,,,,232.0,1.5,
224,,size_choice,,html-keyboard-response,224,143683,0.0-1.0-294.0,0,0,1,,777.0,,,51.0,73.0,73.0,2.0,3000.0,M-L,0.0,M,L,2.0,3.0,coffeemaker,dishwasher,coffeemaker6,dishwasher4,65.0,23.0,/static/Size_judgement/Stimuli/Size_stims/M/coffeemaker/coffeemaker8.jpg,/static/Size_judgement/Stimuli/Size_stims/L/dishwasher/dishwasher5.jpg,0.0,dishwasher,coffeemaker,L,M,3.0,2.0,dishwasher4,coffeemaker6,1.0,0.0,232.777,0.777,
225,,size_choice_confirmation,,html-keyboard-response,225,144409,0.0-1.0-295.0-0.0,0,0,1,,,,,,73.0,,,,,,,,,,,,,,,,,,,,,,,,,,,,,233.5,0.723,
226,,iti,,html-keyboard-response,226,144514,0.0-1.0-296.0,0,0,1,,,,,,,,,,,,,,,,,,,,,,,,,,,,,,,,,,,236.5,3.0,
227,,size_choice,,html-keyboard-response,227,145084,0.0-1.0-298.0,0,0,1,,568.0,,,50.0,74.0,74.0,2.0,1500.0,S-XL,1.0,XL,S,4.0,1.0,car,die,car1,die9,150.0,108.0,/static/Size_judgement/Stimuli/Size_stims/XL/car/car2.jpg,/static/Size_judgement/Stimuli/Size_stims/S/die/die7.jpg,1.0,car,die,XL,S,4.0,1.0,car1,die9,1.0,0.0,237.068,0.568,
228,,size_choice_confirmation,,html-keyboard-response,228,146021,0.0-1.0-299.0-0.0,0,0,1,,,,,,74.0,,,,,,,,,,,,,,,,,,,,,,,,,,,,,238.0,0.932,
229,,iti,,html-keyboard-response,229,146126,0.0-1.0-300.0,0,0,1,,,,,,,,,,,,,,,,,,,,,,,,,,,,,,,,,,,239.5,1.5,
230,,size_choice,,html-keyboard-response,230,146812,0.0-1.0-302.0,0,0,1,,685.0,,,50.0,75.0,75.0,2.0,1500.0,M-XL,1.0,XL,M,4.0,2.0,crane,handsaw,crane1,handsaw10,160.0,89.0,/static/Size_judgement/Stimuli/Size_stims/XL/crane/crane7.jpg,/static/Size_judgement/Stimuli/Size_stims/M/handsaw/handsaw10.jpg,1.0,crane,handsaw,XL,M,4.0,2.0,crane1,handsaw10,1.0,0.0,240.185,0.685,
231,,size_choice_confirmation,,html-keyboard-response,231,147630,0.0-1.0-303.0-0.0,0,0,1,,,,,,75.0,,,,,,,,,,,,,,,,,,,,,,,,,,,,,241.0,0.815,
232,,iti,,html-keyboard-response,232,147734,0.0-1.0-304.0,0,0,1,,,,,,,,,,,,,,,,,,,,,,,,,,,,,,,,,,,242.5,1.5,
233,,size_choice,,html-keyboard-response,233,148356,0.0-1.0-306.0,0,0,1,,620.0,,,50.0,76.0,76.0,2.0,1500.0,S-XL,1.0,XL,S,4.0,1.0,tractor,screws,tractor2,screws6,181.0,125.0,/static/Size_judgement/Stimuli/Size_stims/XL/tractor/tractor7.jpg,/static/Size_judgement/Stimuli/Size_stims/S/screws/screws3.jpg,1.0,tractor,screws,XL,S,4.0,1.0,tractor2,screws6,1.0,0.0,243.12,0.62,
234,,size_choice_confirmation,,html-keyboard-response,234,149241,0.0-1.0-307.0-0.0,0,0,1,,,,,,76.0,,,,,,,,,,,,,,,,,,,,,,,,,,,,,244.0,0.88,
235,,iti,,html-keyboard-response,235,149347,0.0-1.0-308.0,0,0,1,,,,,,,,,,,,,,,,,,,,,,,,,,,,,,,,,,,245.5,1.5,
236,,size_choice,,html-keyboard-response,236,150032,0.0-1.0-310.0,0,0,1,,683.0,,,50.0,77.0,77.0,2.0,2000.0,M-L,0.0,M,L,2.0,3.0,coffeemaker,deskchair,coffeemaker4,deskchair5,63.0,14.0,/static/Size_judgement/Stimuli/Size_stims/M/coffeemaker/coffeemaker11.jpg,/static/Size_judgement/Stimuli/Size_stims/L/deskchair/deskchair7.jpg,1.0,coffeemaker,deskchair,M,L,2.0,3.0,coffeemaker4,deskchair5,0.0,0.0,246.183,0.683,
237,,size_choice_confirmation,,html-keyboard-response,237,150851,0.0-1.0-311.0-0.0,0,0,1,,,,,,77.0,,,,,,,,,,,,,,,,,,,,,,,,,,,,,247.0,0.817,
238,,iti,,html-keyboard-response,238,150956,0.0-1.0-312.0,0,0,1,,,,,,,,,,,,,,,,,,,,,,,,,,,,,,,,,,,249.0,2.0,
239,,size_choice,,html-keyboard-response,239,151668,0.0-1.0-314.0,0,0,1,,711.0,,,50.0,78.0,78.0,2.0,1500.0,M-XL,1.0,XL,M,4.0,2.0,dumptruck,coffeemaker,dumptruck10,coffeemaker10,179.0,69.0,/static/Size_judgement/Stimuli/Size_stims/XL/dumptruck/dumptruck4.jpg,/static/Size_judgement/Stimuli/Size_stims/M/coffeemaker/coffeemaker18.jpg,1.0,dumptruck,coffeemaker,XL,M,4.0,2.0,dumptruck10,coffeemaker10,1.0,0.0,249.711,0.711,
240,,size_choice_confirmation,,html-keyboard-response,240,152464,0.0-1.0-315.0-0.0,0,0,1,,,,,,78.0,,,,,,,,,,,,,,,,,,,,,,,,,,,,,250.5,0.789,
241,,iti,,html-keyboard-response,241,152569,0.0-1.0-316.0,0,0,1,,,,,,,,,,,,,,,,,,,,,,,,,,,,,,,,,,,252.0,1.5,
242,,size_choice,,html-keyboard-response,242,153483,0.0-1.0-318.0,0,0,1,,913.0,,,50.0,79.0,79.0,2.0,1000.0,L-L,,L,L,3.0,3.0,mailbox,cooler,mailbox4,cooler6,43.0,5.0,/static/Size_judgement/Stimuli/Size_stims/L/mailbox/mailbox5.jpg,/static/Size_judgement/Stimuli/Size_stims/L/cooler/cooler1.jpg,1.0,mailbox,cooler,L,L,3.0,3.0,mailbox4,cooler6,,0.0,252.913,0.913,
243,,size_choice_confirmation,,html-keyboard-response,243,154073,0.0-1.0-319.0-0.0,0,0,1,,,,,,79.0,,,,,,,,,,,,,,,,,,,,,,,,,,,,,253.5,0.587,
244,,iti,,html-keyboard-response,244,154176,0.0-1.0-320.0,0,0,1,,,,,,,,,,,,,,,,,,,,,,,,,,,,,,,,,,,254.5,1.0,
245,,size_choice,,html-keyboard-response,245,154852,0.0-1.0-322.0,0,0,1,,674.0,,,51.0,80.0,80.0,2.0,1000.0,S-M,0.0,S,M,1.0,2.0,die,basketball,die3,basketball3,102.0,52.0,/static/Size_judgement/Stimuli/Size_stims/S/die/die10.jpg,/static/Size_judgement/Stimuli/Size_stims/M/basketball/basketball10.jpg,0.0,basketball,die,M,S,2.0,1.0,basketball3,die3,1.0,0.0,255.174,0.674,
246,,size_choice_confirmation,,html-keyboard-response,246,155683,0.0-1.0-323.0-0.0,0,0,1,,,,,,80.0,,,,,,,,,,,,,,,,,,,,,,,,,,,,,256.0,0.826,
247,,iti,,html-keyboard-response,247,155788,0.0-1.0-324.0,0,0,1,,,,,,,,,,,,,,,,,,,,,,,,,,,,,,,,,,,257.0,1.0,
248,,size_choice,,html-keyboard-response,248,156604,0.0-1.0-326.0,0,0,1,,814.0,,,51.0,81.0,81.0,2.0,2000.0,S-L,0.0,S,L,1.0,3.0,thread,garbagecan,thread9,garbagecan7,148.0,36.0,/static/Size_judgement/Stimuli/Size_stims/S/thread/thread8.jpg,/static/Size_judgement/Stimuli/Size_stims/L/garbagecan/garbagecan16.jpg,0.0,garbagecan,thread,L,S,3.0,1.0,garbagecan7,thread9,1.0,0.0,257.814,0.814,
249,,size_choice_confirmation,,html-keyboard-response,249,157295,0.0-1.0-327.0-0.0,0,0,1,,,,,,81.0,,,,,,,,,,,,,,,,,,,,,,,,,,,,,258.5,0.686,
250,,iti,,html-keyboard-response,250,157398,0.0-1.0-328.0,0,0,1,,,,,,,,,,,,,,,,,,,,,,,,,,,,,,,,,,,260.5,2.0,
251,,size_choice,,html-keyboard-response,251,157986,0.0-1.0-330.0,0,0,1,,587.0,,,50.0,82.0,82.0,2.0,2000.0,M-XL,1.0,XL,M,4.0,2.0,tractor,basketball,tractor8,basketball8,187.0,57.0,/static/Size_judgement/Stimuli/Size_stims/XL/tractor/tractor10.jpg,/static/Size_judgement/Stimuli/Size_stims/M/basketball/basketball7.jpg,1.0,tractor,basketball,XL,M,4.0,2.0,tractor8,basketball8,1.0,0.0,261.087,0.587,
252,,size_choice_confirmation,,html-keyboard-response,252,158902,0.0-1.0-331.0-0.0,0,0,1,,,,,,82.0,,,,,,,,,,,,,,,,,,,,,,,,,,,,,262.0,0.913,
253,,iti,,html-keyboard-response,253,159006,0.0-1.0-332.0,0,0,1,,,,,,,,,,,,,,,,,,,,,,,,,,,,,,,,,,,264.0,2.0,
254,,size_choice,,html-keyboard-response,254,159555,0.0-1.0-334.0,0,0,1,,547.0,,,51.0,83.0,83.0,2.0,1000.0,S-XL,0.0,S,XL,1.0,4.0,screws,van,screws2,van3,121.0,192.0,/static/Size_judgement/Stimuli/Size_stims/S/screws/screws5.jpg,/static/Size_judgement/Stimuli/Size_stims/XL/van/van6.jpg,0.0,van,screws,XL,S,4.0,1.0,van3,screws2,1.0,0.0,264.547,0.547,
255,,size_choice_confirmation,,html-keyboard-response,255,160513,0.0-1.0-335.0-0.0,0,0,1,,,,,,83.0,,,,,,,,,,,,,,,,,,,,,,,,,,,,,265.5,0.953,
256,,iti,,html-keyboard-response,256,160619,0.0-1.0-336.0,0,0,1,,,,,,,,,,,,,,,,,,,,,,,,,,,,,,,,,,,266.5,1.0,
257,,size_choice,,html-keyboard-response,257,161670,0.0-1.0-338.0,0,0,1,,1050.0,,,51.0,84.0,84.0,2.0,1000.0,L-L,,L,L,3.0,3.0,cooler,dishwasher,cooler3,dishwasher9,2.0,28.0,/static/Size_judgement/Stimuli/Size_stims/L/cooler/cooler2.jpg,/static/Size_judgement/Stimuli/Size_stims/L/dishwasher/dishwasher2.jpg,0.0,dishwasher,cooler,L,L,3.0,3.0,dishwasher9,cooler3,,0.0,267.55,1.05,
258,,size_choice_confirmation,,html-keyboard-response,258,162126,0.0-1.0-339.0-0.0,0,0,1,,,,,,84.0,,,,,,,,,,,,,,,,,,,,,,,,,,,,,268.0,0.45,
259,,iti,,html-keyboard-response,259,162231,0.0-1.0-340.0,0,0,1,,,,,,,,,,,,,,,,,,,,,,,,,,,,,,,,,,,269.0,1.0,
260,,size_choice,,html-keyboard-response,260,163085,0.0-1.0-342.0,0,0,1,,852.0,,,50.0,85.0,85.0,2.0,1000.0,M-M,,M,M,2.0,2.0,hairdryer,handsaw,hairdryer10,handsaw2,79.0,81.0,/static/Size_judgement/Stimuli/Size_stims/M/hairdryer/hairdryer6.jpg,/static/Size_judgement/Stimuli/Size_stims/M/handsaw/handsaw9.jpg,1.0,hairdryer,handsaw,M,M,2.0,2.0,hairdryer10,handsaw2,,0.0,269.852,0.852,
261,,size_choice_confirmation,,html-keyboard-response,261,163737,0.0-1.0-343.0-0.0,0,0,1,,,,,,85.0,,,,,,,,,,,,,,,,,,,,,,,,,,,,,270.5,0.648,
262,,iti,,html-keyboard-response,262,163842,0.0-1.0-344.0,0,0,1,,,,,,,,,,,,,,,,,,,,,,,,,,,,,,,,,,,271.5,1.0,
263,,size_choice,,html-keyboard-response,263,164394,0.0-1.0-346.0,0,0,1,,550.0,,,51.0,86.0,86.0,2.0,1000.0,L-XL,0.0,L,XL,3.0,4.0,garbagecan,crane,garbagecan6,crane2,35.0,161.0,/static/Size_judgement/Stimuli/Size_stims/L/garbagecan/garbagecan14.jpg,/static/Size_judgement/Stimuli/Size_stims/XL/crane/crane6.jpg,0.0,crane,garbagecan,XL,L,4.0,3.0,crane2,garbagecan6,1.0,0.0,272.05,0.55,
264,,size_choice_confirmation,,html-keyboard-response,264,165348,0.0-1.0-347.0-0.0,0,0,1,,,,,,86.0,,,,,,,,,,,,,,,,,,,,,,,,,,,,,273.0,0.95,
265,,iti,,html-keyboard-response,265,165453,0.0-1.0-348.0,0,0,1,,,,,,,,,,,,,,,,,,,,,,,,,,,,,,,,,,,274.0,1.0,
266,,size_choice,,html-keyboard-response,266,166155,0.0-1.0-350.0,0,0,1,,701.0,,,51.0,87.0,87.0,2.0,1000.0,XL-XL,,XL,XL,4.0,4.0,car,tractor,car2,tractor10,151.0,189.0,/static/Size_judgement/Stimuli/Size_stims/XL/car/car3.jpg,/static/Size_judgement/Stimuli/Size_stims/XL/tractor/tractor8.jpg,0.0,tractor,car,XL,XL,4.0,4.0,tractor10,car2,,0.0,274.701,0.701,
267,,size_choice_confirmation,,html-keyboard-response,267,166960,0.0-1.0-351.0-0.0,0,0,1,,,,,,87.0,,,,,,,,,,,,,,,,,,,,,,,,,,,,,275.5,0.799,
268,,iti,,html-keyboard-response,268,167065,0.0-1.0-352.0,0,0,1,,,,,,,,,,,,,,,,,,,,,,,,,,,,,,,,,,,276.5,1.0,
269,,size_choice,,html-keyboard-response,269,167675,0.0-1.0-354.0,0,0,1,,607.0,,,50.0,88.0,88.0,2.0,1000.0,S-L,1.0,L,S,3.0,1.0,deskchair,screws,deskchair7,screws10,16.0,129.0,/static/Size_judgement/Stimuli/Size_stims/L/deskchair/deskchair4.jpg,/static/Size_judgement/Stimuli/Size_stims/S/screws/screws9.jpg,1.0,deskchair,screws,L,S,3.0,1.0,deskchair7,screws10,1.0,0.0,277.107,0.607,
270,,size_choice_confirmation,,html-keyboard-response,270,168575,0.0-1.0-355.0-0.0,0,0,1,,,,,,88.0,,,,,,,,,,,,,,,,,,,,,,,,,,,,,278.0,0.893,
271,,iti,,html-keyboard-response,271,168680,0.0-1.0-356.0,0,0,1,,,,,,,,,,,,,,,,,,,,,,,,,,,,,,,,,,,279.0,1.0,
272,,size_choice,,html-keyboard-response,272,169452,0.0-1.0-358.0,0,0,1,,769.0,,,50.0,89.0,89.0,2.0,3500.0,S-L,1.0,L,S,3.0,1.0,garbagecan,teabag,garbagecan1,teabag4,30.0,133.0,/static/Size_judgement/Stimuli/Size_stims/L/garbagecan/garbagecan4.jpg,/static/Size_judgement/Stimuli/Size_stims/S/teabag/teabag3.jpg,1.0,garbagecan,teabag,L,S,3.0,1.0,garbagecan1,teabag4,1.0,0.0,279.769,0.769,
273,,size_choice_confirmation,,html-keyboard-response,273,170187,0.0-1.0-359.0-0.0,0,0,1,,,,,,89.0,,,,,,,,,,,,,,,,,,,,,,,,,,,,,280.5,0.731,
274,,iti,,html-keyboard-response,274,170291,0.0-1.0-360.0,0,0,1,,,,,,,,,,,,,,,,,,,,,,,,,,,,,,,,,,,284.0,3.5,3.43
275,,size_final_tally,,html-keyboard-response,275,179379,0.0-2.0,0,0,1,,9085.0,,,50.0,,,,,,,,,,,,,,,,,,,,,,,,,,,,,,,,
