,success,ttype,start_time,trial_type,trial_index,time_elapsed,internal_node_id,warning,missed_checkup,PID,view_history,rt,responses,repeat_instructions,key_press,index,trial_num,block,iti,pair_type,high_size_on_left,left_size_group,right_size_group,left_size_num,right_size_num,left_category,right_category,left_exemplar,right_exemplar,left_index,right_index,left_img_path,right_img_path,accuracy,onset,duration,no_response,left_chosen,chosen_category,unchosen_category,chosen_size_group,unchosen_size_group,chosen_size_num,unchosen_size_num,chosen_exemplar,unchosen_exemplar,size_final_tally
0,True,full_screen,d06012022hr2321,fullscreen,0,458141,0.0-0.0,0,0,3,,,,,,,,,,,,,,,,,,,,,,,,,,,,,,,,,,,,,
1,,size_instructions,,instructions,1,462983,0.0-1.0-0.0-0.0,0,0,3,"[{""page_index"":0,""viewing_time"":3462},{""page_index"":1,""viewing_time"":222},{""page_index"":2,""viewing_time"":202},{""page_index"":3,""viewing_time"":257},{""page_index"":4,""viewing_time"":456},{""page_index"":5,""viewing_time"":241}]",4840.0,,,,,,,,,,,,,,,,,,,,,,,,,,,,,,,,,,,
2,,size_comprehension_check,,survey-multi-choice,2,469890,0.0-1.0-0.0-1.0,0,0,3,,6905.0,"{""Q0"":""True"",""Q1"":""Size in the real world"",""Q2"":""True"",""Q3"":""pointer finger for left and middle finger for right""}",0.0,,,,,,,,,,,,,,,,,,,,,,,,,,,,,,,,,
3,,,,html-keyboard-response,3,471379,0.0-1.0-1.0,0,0,3,,1487.0,,,50.0,,,,,,,,,,,,,,,,,,,,,,,,,,,,,,,,
4,,size_choice,,html-keyboard-response,4,472885,0.0-1.0-2.0,0,0,3,,,,,,0.0,0.0,1.0,1500.0,S-M,0.0,S,M,1.0,2.0,die,basketball,die2,basketball9,101.0,58.0,/static/Size_judgement/Stimuli/Size_stims/S/die/die9.jpg,/static/Size_judgement/Stimuli/Size_stims/M/basketball/basketball5.jpg,,1.5,1.5,1.0,,,,,,,,,,
5,,iti,,html-keyboard-response,5,472990,0.0-1.0-4.0,0,0,3,,,,,,,,,,,,,,,,,,,,,,,,,3.0,1.5,,,,,,,,,,,
6,,size_choice,,html-keyboard-response,6,472991,0.0-1.0-6.0,0,0,3,,0.0,,,51.0,1.0,1.0,1.0,1500.0,S-L,1.0,L,S,3.0,1.0,cooler,die,cooler7,die7,6.0,106.0,/static/Size_judgement/Stimuli/Size_stims/L/cooler/cooler4.jpg,/static/Size_judgement/Stimuli/Size_stims/S/die/die4.jpg,0.0,3.0,0.0,0.0,0.0,die,cooler,S,L,1.0,3.0,die7,cooler7,
7,,size_choice_confirmation,,html-keyboard-response,7,474496,0.0-1.0-7.0-0.0,0,0,3,,,,,,1.0,,,,,,,,,,,,,,,,,,,4.5,1.5,,,,,,,,,,,
8,,iti,,html-keyboard-response,8,474597,0.0-1.0-8.0,0,0,3,,,,,,,,,,,,,,,,,,,,,,,,,6.0,1.5,,,,,,,,,,,
9,,size_choice,,html-keyboard-response,9,474833,0.0-1.0-10.0,0,0,3,,235.0,,,50.0,2.0,2.0,1.0,3000.0,M-XL,1.0,XL,M,4.0,2.0,car,hairdryer,car3,hairdryer4,152.0,73.0,/static/Size_judgement/Stimuli/Size_stims/XL/car/car4.jpg,/static/Size_judgement/Stimuli/Size_stims/M/hairdryer/hairdryer16.jpg,1.0,6.235,0.235,0.0,1.0,car,hairdryer,XL,M,4.0,2.0,car3,hairdryer4,
10,,size_choice_confirmation,,html-keyboard-response,10,476102,0.0-1.0-11.0-0.0,0,0,3,,,,,,2.0,,,,,,,,,,,,,,,,,,,7.5,1.265,,,,,,,,,,,
11,,iti,,html-keyboard-response,11,476206,0.0-1.0-12.0,0,0,3,,,,,,,,,,,,,,,,,,,,,,,,,10.5,3.0,,,,,,,,,,,
12,,size_choice,,html-keyboard-response,12,476476,0.0-1.0-14.0,0,0,3,,269.0,,,50.0,3.0,3.0,1.0,1000.0,M-L,1.0,L,M,3.0,2.0,garbagecan,ketchup,garbagecan10,ketchup8,39.0,97.0,/static/Size_judgement/Stimuli/Size_stims/L/garbagecan/garbagecan11.jpg,/static/Size_judgement/Stimuli/Size_stims/M/ketchup/ketchup5.jpg,1.0,10.769,0.269,0.0,1.0,garbagecan,ketchup,L,M,3.0,2.0,garbagecan10,ketchup8,
13,,size_choice_confirmation,,html-keyboard-response,13,477713,0.0-1.0-15.0-0.0,0,0,3,,,,,,3.0,,,,,,,,,,,,,,,,,,,12.0,1.231,,,,,,,,,,,
14,,iti,,html-keyboard-response,14,477818,0.0-1.0-16.0,0,0,3,,,,,,,,,,,,,,,,,,,,,,,,,13.0,1.0,,,,,,,,,,,
15,,size_choice,,html-keyboard-response,15,477960,0.0-1.0-18.0,0,0,3,,141.0,,,50.0,4.0,4.0,1.0,2000.0,S-S,,S,S,1.0,1.0,thread,teabag,thread6,teabag4,145.0,133.0,/static/Size_judgement/Stimuli/Size_stims/S/thread/thread2.jpg,/static/Size_judgement/Stimuli/Size_stims/S/teabag/teabag3.jpg,,13.141,0.141,0.0,1.0,thread,teabag,S,S,1.0,1.0,thread6,teabag4,
16,,size_choice_confirmation,,html-keyboard-response,16,479323,0.0-1.0-19.0-0.0,0,0,3,,,,,,4.0,,,,,,,,,,,,,,,,,,,14.5,1.359,,,,,,,,,,,
17,,iti,,html-keyboard-response,17,479425,0.0-1.0-20.0,0,0,3,,,,,,,,,,,,,,,,,,,,,,,,,16.5,2.0,,,,,,,,,,,
18,,size_choice,,html-keyboard-response,18,479463,0.0-1.0-22.0,0,0,3,,37.0,,,51.0,5.0,5.0,1.0,3000.0,M-XL,1.0,XL,M,4.0,2.0,tractor,ketchup,tractor8,ketchup1,187.0,90.0,/static/Size_judgement/Stimuli/Size_stims/XL/tractor/tractor10.jpg,/static/Size_judgement/Stimuli/Size_stims/M/ketchup/ketchup8.jpg,0.0,16.537,0.037,0.0,0.0,ketchup,tractor,M,XL,2.0,4.0,ketchup1,tractor8,
19,,size_choice_confirmation,,html-keyboard-response,19,480939,0.0-1.0-23.0-0.0,0,0,3,,,,,,5.0,,,,,,,,,,,,,,,,,,,18.0,1.463,,,,,,,,,,,
20,,iti,,html-keyboard-response,20,481041,0.0-1.0-24.0,0,0,3,,,,,,,,,,,,,,,,,,,,,,,,,21.0,3.0,,,,,,,,,,,
21,,size_choice,,html-keyboard-response,21,481538,0.0-1.0-26.0,0,0,3,,496.0,,,51.0,6.0,6.0,1.0,1000.0,S-S,,S,S,1.0,1.0,paperclip,teabag,paperclip3,teabag2,112.0,131.0,/static/Size_judgement/Stimuli/Size_stims/S/paperclip/paperclip1.jpg,/static/Size_judgement/Stimuli/Size_stims/S/teabag/teabag8.jpg,,21.496,0.496,0.0,0.0,teabag,paperclip,S,S,1.0,1.0,teabag2,paperclip3,
22,,size_choice_confirmation,,html-keyboard-response,22,482547,0.0-1.0-27.0-0.0,0,0,3,,,,,,6.0,,,,,,,,,,,,,,,,,,,22.5,1.004,,,,,,,,,,,
23,,iti,,html-keyboard-response,23,482650,0.0-1.0-28.0,0,0,3,,,,,,,,,,,,,,,,,,,,,,,,,23.5,1.0,,,,,,,,,,,
24,,size_choice,,html-keyboard-response,24,482891,0.0-1.0-30.0,0,0,3,,239.0,,,51.0,7.0,7.0,1.0,1000.0,S-M,0.0,S,M,1.0,2.0,paperclip,hairdryer,paperclip1,hairdryer6,110.0,75.0,/static/Size_judgement/Stimuli/Size_stims/S/paperclip/paperclip9.jpg,/static/Size_judgement/Stimuli/Size_stims/M/hairdryer/hairdryer8.jpg,1.0,23.739,0.239,0.0,0.0,hairdryer,paperclip,M,S,2.0,1.0,hairdryer6,paperclip1,
25,,size_choice_confirmation,,html-keyboard-response,25,484155,0.0-1.0-31.0-0.0,0,0,3,,,,,,7.0,,,,,,,,,,,,,,,,,,,25.0,1.261,,,,,,,,,,,
26,,iti,,html-keyboard-response,26,484257,0.0-1.0-32.0,0,0,3,,,,,,,,,,,,,,,,,,,,,,,,,26.0,1.0,,,,,,,,,,,
27,,size_choice,,html-keyboard-response,27,484483,0.0-1.0-34.0,0,0,3,,225.0,,,51.0,8.0,8.0,1.0,1500.0,S-L,1.0,L,S,3.0,1.0,garbagecan,die,garbagecan6,die4,35.0,103.0,/static/Size_judgement/Stimuli/Size_stims/L/garbagecan/garbagecan14.jpg,/static/Size_judgement/Stimuli/Size_stims/S/die/die2.jpg,0.0,26.225,0.225,0.0,0.0,die,garbagecan,S,L,1.0,3.0,die4,garbagecan6,
28,,size_choice_confirmation,,html-keyboard-response,28,485763,0.0-1.0-35.0-0.0,0,0,3,,,,,,8.0,,,,,,,,,,,,,,,,,,,27.5,1.275,,,,,,,,,,,
29,,iti,,html-keyboard-response,29,485868,0.0-1.0-36.0,0,0,3,,,,,,,,,,,,,,,,,,,,,,,,,29.0,1.5,,,,,,,,,,,
30,,size_choice,,html-keyboard-response,30,486649,0.0-1.0-38.0,0,0,3,,780.0,,,51.0,9.0,9.0,1.0,1000.0,L-L,,L,L,3.0,3.0,garbagecan,deskchair,garbagecan8,deskchair6,37.0,15.0,/static/Size_judgement/Stimuli/Size_stims/L/garbagecan/garbagecan13.jpg,/static/Size_judgement/Stimuli/Size_stims/L/deskchair/deskchair5.jpg,,29.78,0.78,0.0,0.0,deskchair,garbagecan,L,L,3.0,3.0,deskchair6,garbagecan8,
31,,size_choice_confirmation,,html-keyboard-response,31,487371,0.0-1.0-39.0-0.0,0,0,3,,,,,,9.0,,,,,,,,,,,,,,,,,,,30.5,0.72,,,,,,,,,,,
32,,iti,,html-keyboard-response,32,487476,0.0-1.0-40.0,0,0,3,,,,,,,,,,,,,,,,,,,,,,,,,31.5,1.0,,,,,,,,,,,
33,,size_choice,,html-keyboard-response,33,488980,0.0-1.0-42.0,0,0,3,,,,,,10.0,10.0,1.0,1000.0,S-XL,1.0,XL,S,4.0,1.0,crane,screws,crane7,screws3,166.0,122.0,/static/Size_judgement/Stimuli/Size_stims/XL/crane/crane3.jpg,/static/Size_judgement/Stimuli/Size_stims/S/screws/screws7.jpg,,33.0,1.5,1.0,,,,,,,,,,
34,,iti,,html-keyboard-response,34,489086,0.0-1.0-44.0,0,0,3,,,,,,,,,,,,,,,,,,,,,,,,,34.0,1.0,,,,,,,,,,,
35,,size_choice,,html-keyboard-response,35,489656,0.0-1.0-46.0,0,0,3,,569.0,,,51.0,11.0,11.0,1.0,2000.0,M-L,1.0,L,M,3.0,2.0,deskchair,coffeemaker,deskchair1,coffeemaker3,10.0,62.0,/static/Size_judgement/Stimuli/Size_stims/L/deskchair/deskchair9.jpg,/static/Size_judgement/Stimuli/Size_stims/M/coffeemaker/coffeemaker13.jpg,0.0,34.569,0.569,0.0,0.0,coffeemaker,deskchair,M,L,2.0,3.0,coffeemaker3,deskchair1,
36,,size_choice_confirmation,,html-keyboard-response,36,490593,0.0-1.0-47.0-0.0,0,0,3,,,,,,11.0,,,,,,,,,,,,,,,,,,,35.5,0.931,,,,,,,,,,,
37,,iti,,html-keyboard-response,37,490697,0.0-1.0-48.0,0,0,3,,,,,,,,,,,,,,,,,,,,,,,,,37.5,2.0,,,,,,,,,,,
38,,size_choice,,html-keyboard-response,38,491374,0.0-1.0-50.0,0,0,3,,676.0,,,51.0,12.0,12.0,1.0,3500.0,L-L,,L,L,3.0,3.0,deskchair,garbagecan,deskchair2,garbagecan5,11.0,34.0,/static/Size_judgement/Stimuli/Size_stims/L/deskchair/deskchair8.jpg,/static/Size_judgement/Stimuli/Size_stims/L/garbagecan/garbagecan3.jpg,,38.176,0.676,0.0,0.0,garbagecan,deskchair,L,L,3.0,3.0,garbagecan5,deskchair2,
39,,size_choice_confirmation,,html-keyboard-response,39,492203,0.0-1.0-51.0-0.0,0,0,3,,,,,,12.0,,,,,,,,,,,,,,,,,,,39.0,0.824,,,,,,,,,,,
40,,iti,,html-keyboard-response,40,492309,0.0-1.0-52.0,0,0,3,,,,,,,,,,,,,,,,,,,,,,,,,42.5,3.5,,,,,,,,,,,
41,,size_choice,,html-keyboard-response,41,492768,0.0-1.0-54.0,0,0,3,,458.0,,,51.0,13.0,13.0,1.0,3500.0,M-L,1.0,L,M,3.0,2.0,dishwasher,coffeemaker,dishwasher6,coffeemaker7,25.0,66.0,/static/Size_judgement/Stimuli/Size_stims/L/dishwasher/dishwasher6.jpg,/static/Size_judgement/Stimuli/Size_stims/M/coffeemaker/coffeemaker9.jpg,0.0,42.958,0.458,0.0,0.0,coffeemaker,dishwasher,M,L,2.0,3.0,coffeemaker7,dishwasher6,
42,,size_choice_confirmation,,html-keyboard-response,42,493815,0.0-1.0-55.0-0.0,0,0,3,,,,,,13.0,,,,,,,,,,,,,,,,,,,44.0,1.042,,,,,,,,,,,
43,,iti,,html-keyboard-response,43,493921,0.0-1.0-56.0,0,0,3,,,,,,,,,,,,,,,,,,,,,,,,,47.5,3.5,,,,,,,,,,,
44,,size_choice,,html-keyboard-response,44,494015,0.0-1.0-58.0,0,0,3,,92.0,,,51.0,14.0,14.0,1.0,1000.0,S-L,0.0,S,L,1.0,3.0,screws,deskchair,screws5,deskchair3,124.0,12.0,/static/Size_judgement/Stimuli/Size_stims/S/screws/screws2.jpg,/static/Size_judgement/Stimuli/Size_stims/L/deskchair/deskchair10.jpg,1.0,47.592,0.092,0.0,0.0,deskchair,screws,L,S,3.0,1.0,deskchair3,screws5,
45,,size_choice_confirmation,,html-keyboard-response,45,495425,0.0-1.0-59.0-0.0,0,0,3,,,,,,14.0,,,,,,,,,,,,,,,,,,,49.0,1.408,,,,,,,,,,,
46,,iti,,html-keyboard-response,46,495530,0.0-1.0-60.0,0,0,3,,,,,,,,,,,,,,,,,,,,,,,,,50.0,1.0,,,,,,,,,,,
47,,size_choice,,html-keyboard-response,47,495807,0.0-1.0-62.0,0,0,3,,276.0,,,51.0,15.0,15.0,1.0,2000.0,L-XL,1.0,XL,L,4.0,3.0,van,dishwasher,van9,dishwasher10,198.0,29.0,/static/Size_judgement/Stimuli/Size_stims/XL/van/van9.jpg,/static/Size_judgement/Stimuli/Size_stims/L/dishwasher/dishwasher1.jpg,0.0,50.276,0.276,0.0,0.0,dishwasher,van,L,XL,3.0,4.0,dishwasher10,van9,
48,,size_choice_confirmation,,html-keyboard-response,48,497035,0.0-1.0-63.0-0.0,0,0,3,,,,,,15.0,,,,,,,,,,,,,,,,,,,51.5,1.224,,,,,,,,,,,
49,,iti,,html-keyboard-response,49,497137,0.0-1.0-64.0,0,0,3,,,,,,,,,,,,,,,,,,,,,,,,,53.5,2.0,,,,,,,,,,,
50,,size_choice,,html-keyboard-response,50,497941,0.0-1.0-66.0,0,0,3,,802.0,,,51.0,16.0,16.0,1.0,1500.0,S-S,,S,S,1.0,1.0,die,screws,die3,screws8,102.0,127.0,/static/Size_judgement/Stimuli/Size_stims/S/die/die10.jpg,/static/Size_judgement/Stimuli/Size_stims/S/screws/screws10.jpg,,54.302,0.802,0.0,0.0,screws,die,S,S,1.0,1.0,screws8,die3,
51,,size_choice_confirmation,,html-keyboard-response,51,498641,0.0-1.0-67.0-0.0,0,0,3,,,,,,16.0,,,,,,,,,,,,,,,,,,,55.0,0.698,,,,,,,,,,,
52,,iti,,html-keyboard-response,52,498742,0.0-1.0-68.0,0,0,3,,,,,,,,,,,,,,,,,,,,,,,,,56.5,1.5,,,,,,,,,,,
53,,size_choice,,html-keyboard-response,53,499062,0.0-1.0-70.0,0,0,3,,319.0,,,51.0,17.0,17.0,1.0,1500.0,M-M,,M,M,2.0,2.0,ketchup,handsaw,ketchup2,handsaw8,91.0,87.0,/static/Size_judgement/Stimuli/Size_stims/M/ketchup/ketchup9.jpg,/static/Size_judgement/Stimuli/Size_stims/M/handsaw/handsaw7.jpg,,56.819,0.319,0.0,0.0,handsaw,ketchup,M,M,2.0,2.0,handsaw8,ketchup2,
54,,size_choice_confirmation,,html-keyboard-response,54,500249,0.0-1.0-71.0-0.0,0,0,3,,,,,,17.0,,,,,,,,,,,,,,,,,,,58.0,1.181,,,,,,,,,,,
55,,iti,,html-keyboard-response,55,500353,0.0-1.0-72.0,0,0,3,,,,,,,,,,,,,,,,,,,,,,,,,59.5,1.5,,,,,,,,,,,
56,,size_choice,,html-keyboard-response,56,500545,0.0-1.0-74.0,0,0,3,,191.0,,,51.0,18.0,18.0,1.0,1000.0,M-L,1.0,L,M,3.0,2.0,cooler,basketball,cooler4,basketball6,3.0,55.0,/static/Size_judgement/Stimuli/Size_stims/L/cooler/cooler3.jpg,/static/Size_judgement/Stimuli/Size_stims/M/basketball/basketball2.jpg,0.0,59.691,0.191,0.0,0.0,basketball,cooler,M,L,2.0,3.0,basketball6,cooler4,
57,,size_choice_confirmation,,html-keyboard-response,57,501857,0.0-1.0-75.0-0.0,0,0,3,,,,,,18.0,,,,,,,,,,,,,,,,,,,61.0,1.309,,,,,,,,,,,
58,,iti,,html-keyboard-response,58,501958,0.0-1.0-76.0,0,0,3,,,,,,,,,,,,,,,,,,,,,,,,,62.0,1.0,,,,,,,,,,,
59,,size_choice,,html-keyboard-response,59,502001,0.0-1.0-78.0,0,0,3,,42.0,,,51.0,19.0,19.0,1.0,1500.0,S-XL,1.0,XL,S,4.0,1.0,tractor,teabag,tractor6,teabag10,185.0,139.0,/static/Size_judgement/Stimuli/Size_stims/XL/tractor/tractor3.jpg,/static/Size_judgement/Stimuli/Size_stims/S/teabag/teabag4.jpg,0.0,62.042,0.042,0.0,0.0,teabag,tractor,S,XL,1.0,4.0,teabag10,tractor6,
60,,size_choice_confirmation,,html-keyboard-response,60,503463,0.0-1.0-79.0-0.0,0,0,3,,,,,,19.0,,,,,,,,,,,,,,,,,,,63.5,1.458,,,,,,,,,,,
61,,iti,,html-keyboard-response,61,503569,0.0-1.0-80.0,0,0,3,,,,,,,,,,,,,,,,,,,,,,,,,65.0,1.5,,,,,,,,,,,
62,,size_choice,,html-keyboard-response,62,503715,0.0-1.0-82.0,0,0,3,,145.0,,,50.0,20.0,20.0,1.0,2000.0,M-XL,0.0,M,XL,2.0,4.0,handsaw,tractor,handsaw1,tractor2,80.0,181.0,/static/Size_judgement/Stimuli/Size_stims/M/handsaw/handsaw8.jpg,/static/Size_judgement/Stimuli/Size_stims/XL/tractor/tractor7.jpg,0.0,65.145,0.145,0.0,1.0,handsaw,tractor,M,XL,2.0,4.0,handsaw1,tractor2,
63,,size_choice_confirmation,,html-keyboard-response,63,505073,0.0-1.0-83.0-0.0,0,0,3,,,,,,20.0,,,,,,,,,,,,,,,,,,,66.5,1.355,,,,,,,,,,,
64,,iti,,html-keyboard-response,64,505174,0.0-1.0-84.0,0,0,3,,,,,,,,,,,,,,,,,,,,,,,,,68.5,2.0,,,,,,,,,,,
65,,size_choice,,html-keyboard-response,65,505454,0.0-1.0-86.0,0,0,3,,279.0,,,50.0,21.0,21.0,1.0,1000.0,L-L,,L,L,3.0,3.0,mailbox,garbagecan,mailbox2,garbagecan7,41.0,36.0,/static/Size_judgement/Stimuli/Size_stims/L/mailbox/mailbox2.jpg,/static/Size_judgement/Stimuli/Size_stims/L/garbagecan/garbagecan16.jpg,,68.779,0.279,0.0,1.0,mailbox,garbagecan,L,L,3.0,3.0,mailbox2,garbagecan7,
66,,size_choice_confirmation,,html-keyboard-response,66,506680,0.0-1.0-87.0-0.0,0,0,3,,,,,,21.0,,,,,,,,,,,,,,,,,,,70.0,1.221,,,,,,,,,,,
67,,iti,,html-keyboard-response,67,506785,0.0-1.0-88.0,0,0,3,,,,,,,,,,,,,,,,,,,,,,,,,71.0,1.0,,,,,,,,,,,
68,,size_choice,,html-keyboard-response,68,506864,0.0-1.0-90.0,0,0,3,,78.0,,,51.0,22.0,22.0,1.0,2000.0,M-M,,M,M,2.0,2.0,ketchup,hairdryer,ketchup5,hairdryer5,94.0,74.0,/static/Size_judgement/Stimuli/Size_stims/M/ketchup/ketchup3.jpg,/static/Size_judgement/Stimuli/Size_stims/M/hairdryer/hairdryer15.jpg,,71.078,0.078,0.0,0.0,hairdryer,ketchup,M,M,2.0,2.0,hairdryer5,ketchup5,
69,,size_choice_confirmation,,html-keyboard-response,69,508289,0.0-1.0-91.0-0.0,0,0,3,,,,,,22.0,,,,,,,,,,,,,,,,,,,72.5,1.422,,,,,,,,,,,
70,,iti,,html-keyboard-response,70,508390,0.0-1.0-92.0,0,0,3,,,,,,,,,,,,,,,,,,,,,,,,,74.5,2.0,,,,,,,,,,,
71,,size_choice,,html-keyboard-response,71,508531,0.0-1.0-94.0,0,0,3,,140.0,,,50.0,23.0,23.0,1.0,1000.0,M-XL,1.0,XL,M,4.0,2.0,crane,basketball,crane6,basketball5,165.0,54.0,/static/Size_judgement/Stimuli/Size_stims/XL/crane/crane2.jpg,/static/Size_judgement/Stimuli/Size_stims/M/basketball/basketball3.jpg,1.0,74.64,0.14,0.0,1.0,crane,basketball,XL,M,4.0,2.0,crane6,basketball5,
72,,size_choice_confirmation,,html-keyboard-response,72,509897,0.0-1.0-95.0-0.0,0,0,3,,,,,,23.0,,,,,,,,,,,,,,,,,,,76.0,1.36,,,,,,,,,,,
73,,iti,,html-keyboard-response,73,510001,0.0-1.0-96.0,0,0,3,,,,,,,,,,,,,,,,,,,,,,,,,77.0,1.0,,,,,,,,,,,
74,,size_choice,,html-keyboard-response,74,510057,0.0-1.0-98.0,0,0,3,,54.0,,,50.0,24.0,24.0,1.0,2000.0,M-XL,0.0,M,XL,2.0,4.0,coffeemaker,tractor,coffeemaker5,tractor9,64.0,188.0,/static/Size_judgement/Stimuli/Size_stims/M/coffeemaker/coffeemaker10.jpg,/static/Size_judgement/Stimuli/Size_stims/XL/tractor/tractor9.jpg,0.0,77.054,0.054,0.0,1.0,coffeemaker,tractor,M,XL,2.0,4.0,coffeemaker5,tractor9,
75,,size_choice_confirmation,,html-keyboard-response,75,511505,0.0-1.0-99.0-0.0,0,0,3,,,,,,24.0,,,,,,,,,,,,,,,,,,,78.5,1.446,,,,,,,,,,,
76,,iti,,html-keyboard-response,76,511606,0.0-1.0-100.0,0,0,3,,,,,,,,,,,,,,,,,,,,,,,,,80.5,2.0,,,,,,,,,,,
77,,size_choice,,html-keyboard-response,77,513110,0.0-1.0-102.0,0,0,3,,,,,,25.0,25.0,1.0,1000.0,L-XL,1.0,XL,L,4.0,3.0,dumptruck,dishwasher,dumptruck10,dishwasher7,179.0,26.0,/static/Size_judgement/Stimuli/Size_stims/XL/dumptruck/dumptruck4.jpg,/static/Size_judgement/Stimuli/Size_stims/L/dishwasher/dishwasher7.jpg,,82.0,1.5,1.0,,,,,,,,,,
78,,iti,,html-keyboard-response,78,513211,0.0-1.0-104.0,0,0,3,,,,,,,,,,,,,,,,,,,,,,,,,83.0,1.0,,,,,,,,,,,
79,,size_choice,,html-keyboard-response,79,514716,0.0-1.0-106.0,0,0,3,,,,,,26.0,26.0,1.0,1000.0,S-XL,1.0,XL,S,4.0,1.0,dumptruck,die,dumptruck4,die1,173.0,100.0,/static/Size_judgement/Stimuli/Size_stims/XL/dumptruck/dumptruck1.jpg,/static/Size_judgement/Stimuli/Size_stims/S/die/die8.jpg,,84.5,1.5,1.0,,,,,,,,,,
80,,iti,,html-keyboard-response,80,514817,0.0-1.0-108.0,0,0,3,,,,,,,,,,,,,,,,,,,,,,,,,85.5,1.0,,,,,,,,,,,
81,,size_choice,,html-keyboard-response,81,516321,0.0-1.0-110.0,0,0,3,,,,,,27.0,27.0,1.0,1500.0,M-XL,0.0,M,XL,2.0,4.0,coffeemaker,dumptruck,coffeemaker8,dumptruck5,67.0,174.0,/static/Size_judgement/Stimuli/Size_stims/M/coffeemaker/coffeemaker5.jpg,/static/Size_judgement/Stimuli/Size_stims/XL/dumptruck/dumptruck3.jpg,,87.0,1.5,1.0,,,,,,,,,,
82,,iti,,html-keyboard-response,82,516422,0.0-1.0-112.0,0,0,3,,,,,,,,,,,,,,,,,,,,,,,,,88.5,1.5,,,,,,,,,,,
83,,size_choice,,html-keyboard-response,83,517926,0.0-1.0-114.0,0,0,3,,,,,,28.0,28.0,1.0,1500.0,XL-XL,,XL,XL,4.0,4.0,van,car,van6,car4,195.0,153.0,/static/Size_judgement/Stimuli/Size_stims/XL/van/van2.jpg,/static/Size_judgement/Stimuli/Size_stims/XL/car/car6.jpg,,90.0,1.5,1.0,,,,,,,,,,
84,,iti,,html-keyboard-response,84,518030,0.0-1.0-116.0,0,0,3,,,,,,,,,,,,,,,,,,,,,,,,,91.5,1.5,,,,,,,,,,,
85,,size_choice,,html-keyboard-response,85,519532,0.0-1.0-118.0,0,0,3,,,,,,29.0,29.0,1.0,1000.0,S-L,1.0,L,S,3.0,1.0,mailbox,thread,mailbox4,thread1,43.0,140.0,/static/Size_judgement/Stimuli/Size_stims/L/mailbox/mailbox5.jpg,/static/Size_judgement/Stimuli/Size_stims/S/thread/thread7.jpg,,93.0,1.5,1.0,,,,,,,,,,
86,,iti,,html-keyboard-response,86,519633,0.0-1.0-120.0,0,0,3,,,,,,,,,,,,,,,,,,,,,,,,,94.0,1.0,,,,,,,,,,,
87,,size_choice,,html-keyboard-response,87,521137,0.0-1.0-122.0,0,0,3,,,,,,30.0,30.0,1.0,1000.0,M-XL,0.0,M,XL,2.0,4.0,basketball,dumptruck,basketball4,dumptruck9,53.0,178.0,/static/Size_judgement/Stimuli/Size_stims/M/basketball/basketball1.jpg,/static/Size_judgement/Stimuli/Size_stims/XL/dumptruck/dumptruck5.jpg,,95.5,1.5,1.0,,,,,,,,,,
88,,iti,,html-keyboard-response,88,521239,0.0-1.0-124.0,0,0,3,,,,,,,,,,,,,,,,,,,,,,,,,96.5,1.0,,,,,,,,,,,
89,,size_choice,,html-keyboard-response,89,522741,0.0-1.0-126.0,0,0,3,,,,,,31.0,31.0,1.0,1000.0,M-L,0.0,M,L,2.0,3.0,ketchup,cooler,ketchup6,cooler9,95.0,8.0,/static/Size_judgement/Stimuli/Size_stims/M/ketchup/ketchup1.jpg,/static/Size_judgement/Stimuli/Size_stims/L/cooler/cooler7.jpg,,98.0,1.5,1.0,,,,,,,,,,
90,,iti,,html-keyboard-response,90,522844,0.0-1.0-128.0,0,0,3,,,,,,,,,,,,,,,,,,,,,,,,,99.0,1.0,,,,,,,,,,,
91,,size_choice,,html-keyboard-response,91,524347,0.0-1.0-130.0,0,0,3,,,,,,32.0,32.0,1.0,1000.0,XL-XL,,XL,XL,4.0,4.0,car,van,car6,van4,155.0,193.0,/static/Size_judgement/Stimuli/Size_stims/XL/car/car12.jpg,/static/Size_judgement/Stimuli/Size_stims/XL/van/van7.jpg,,100.5,1.5,1.0,,,,,,,,,,
92,,iti,,html-keyboard-response,92,524449,0.0-1.0-132.0,0,0,3,,,,,,,,,,,,,,,,,,,,,,,,,101.5,1.0,,,,,,,,,,,
93,,size_choice,,html-keyboard-response,93,525953,0.0-1.0-134.0,0,0,3,,,,,,33.0,33.0,1.0,1000.0,M-M,,M,M,2.0,2.0,hairdryer,basketball,hairdryer3,basketball10,72.0,59.0,/static/Size_judgement/Stimuli/Size_stims/M/hairdryer/hairdryer17.jpg,/static/Size_judgement/Stimuli/Size_stims/M/basketball/basketball4.jpg,,103.0,1.5,1.0,,,,,,,,,,
94,,iti,,html-keyboard-response,94,526056,0.0-1.0-136.0,0,0,3,,,,,,,,,,,,,,,,,,,,,,,,,104.0,1.0,,,,,,,,,,,
95,,size_choice,,html-keyboard-response,95,527561,0.0-1.0-138.0,0,0,3,,,,,,34.0,34.0,1.0,3000.0,S-M,0.0,S,M,1.0,2.0,screws,hairdryer,screws7,hairdryer1,126.0,70.0,/static/Size_judgement/Stimuli/Size_stims/S/screws/screws1.jpg,/static/Size_judgement/Stimuli/Size_stims/M/hairdryer/hairdryer11.jpg,,105.5,1.5,1.0,,,,,,,,,,
96,,iti,,html-keyboard-response,96,527665,0.0-1.0-140.0,0,0,3,,,,,,,,,,,,,,,,,,,,,,,,,108.5,3.0,,,,,,,,,,,
97,,size_choice,,html-keyboard-response,97,527712,0.0-1.0-142.0,0,0,3,,46.0,,,51.0,35.0,35.0,1.0,1500.0,S-XL,1.0,XL,S,4.0,1.0,dumptruck,thread,dumptruck2,thread3,171.0,142.0,/static/Size_judgement/Stimuli/Size_stims/XL/dumptruck/dumptruck8.jpg,/static/Size_judgement/Stimuli/Size_stims/S/thread/thread4.jpg,0.0,108.546,0.046,0.0,0.0,thread,dumptruck,S,XL,1.0,4.0,thread3,dumptruck2,
98,,size_choice_confirmation,,html-keyboard-response,98,529171,0.0-1.0-143.0-0.0,0,0,3,,,,,,35.0,,,,,,,,,,,,,,,,,,,110.0,1.454,,,,,,,,,,,
99,,iti,,html-keyboard-response,99,529275,0.0-1.0-144.0,0,0,3,,,,,,,,,,,,,,,,,,,,,,,,,111.5,1.5,,,,,,,,,,,
100,,size_choice,,html-keyboard-response,100,529371,0.0-1.0-146.0,0,0,3,,94.0,,,50.0,36.0,36.0,1.0,2000.0,M-L,0.0,M,L,2.0,3.0,basketball,mailbox,basketball8,mailbox9,57.0,48.0,/static/Size_judgement/Stimuli/Size_stims/M/basketball/basketball7.jpg,/static/Size_judgement/Stimuli/Size_stims/L/mailbox/mailbox9.jpg,0.0,111.594,0.094,0.0,1.0,basketball,mailbox,M,L,2.0,3.0,basketball8,mailbox9,
101,,size_choice_confirmation,,html-keyboard-response,101,530779,0.0-1.0-147.0-0.0,0,0,3,,,,,,36.0,,,,,,,,,,,,,,,,,,,113.0,1.406,,,,,,,,,,,
102,,iti,,html-keyboard-response,102,530880,0.0-1.0-148.0,0,0,3,,,,,,,,,,,,,,,,,,,,,,,,,115.0,2.0,,,,,,,,,,,
103,,size_choice,,html-keyboard-response,103,531490,0.0-1.0-150.0,0,0,3,,609.0,,,50.0,37.0,37.0,1.0,2000.0,S-XL,0.0,S,XL,1.0,4.0,thread,crane,thread5,crane8,144.0,167.0,/static/Size_judgement/Stimuli/Size_stims/S/thread/thread1.jpg,/static/Size_judgement/Stimuli/Size_stims/XL/crane/crane10.jpg,0.0,115.609,0.609,0.0,1.0,thread,crane,S,XL,1.0,4.0,thread5,crane8,
104,,size_choice_confirmation,,html-keyboard-response,104,532386,0.0-1.0-151.0-0.0,0,0,3,,,,,,37.0,,,,,,,,,,,,,,,,,,,116.5,0.891,,,,,,,,,,,
105,,iti,,html-keyboard-response,105,532487,0.0-1.0-152.0,0,0,3,,,,,,,,,,,,,,,,,,,,,,,,,118.5,2.0,,,,,,,,,,,
106,,size_choice,,html-keyboard-response,106,532605,0.0-1.0-154.0,0,0,3,,116.0,,,51.0,38.0,38.0,1.0,1000.0,S-XL,0.0,S,XL,1.0,4.0,paperclip,van,paperclip4,van3,113.0,192.0,/static/Size_judgement/Stimuli/Size_stims/S/paperclip/paperclip3.jpg,/static/Size_judgement/Stimuli/Size_stims/XL/van/van6.jpg,1.0,118.616,0.116,0.0,0.0,van,paperclip,XL,S,4.0,1.0,van3,paperclip4,
107,,size_choice_confirmation,,html-keyboard-response,107,533993,0.0-1.0-155.0-0.0,0,0,3,,,,,,38.0,,,,,,,,,,,,,,,,,,,120.0,1.384,,,,,,,,,,,
108,,iti,,html-keyboard-response,108,534097,0.0-1.0-156.0,0,0,3,,,,,,,,,,,,,,,,,,,,,,,,,121.0,1.0,,,,,,,,,,,
109,,size_choice,,html-keyboard-response,109,534327,0.0-1.0-158.0,0,0,3,,228.0,,,50.0,39.0,39.0,1.0,3500.0,L-XL,1.0,XL,L,4.0,3.0,van,mailbox,van10,mailbox10,199.0,49.0,/static/Size_judgement/Stimuli/Size_stims/XL/van/van8.jpg,/static/Size_judgement/Stimuli/Size_stims/L/mailbox/mailbox8.jpg,1.0,121.228,0.228,0.0,1.0,van,mailbox,XL,L,4.0,3.0,van10,mailbox10,
110,,size_choice_confirmation,,html-keyboard-response,110,535601,0.0-1.0-159.0-0.0,0,0,3,,,,,,39.0,,,,,,,,,,,,,,,,,,,122.5,1.272,,,,,,,,,,,
111,,iti,,html-keyboard-response,111,535703,0.0-1.0-160.0,0,0,3,,,,,,,,,,,,,,,,,,,,,,,,,126.0,3.5,,,,,,,,,,,
112,,size_choice,,html-keyboard-response,112,536396,0.0-1.0-162.0,0,0,3,,692.0,,,51.0,40.0,40.0,1.0,3000.0,S-L,1.0,L,S,3.0,1.0,mailbox,paperclip,mailbox7,paperclip5,46.0,114.0,/static/Size_judgement/Stimuli/Size_stims/L/mailbox/mailbox7.jpg,/static/Size_judgement/Stimuli/Size_stims/S/paperclip/paperclip2.jpg,0.0,126.692,0.692,0.0,0.0,paperclip,mailbox,S,L,1.0,3.0,paperclip5,mailbox7,
113,,size_choice_confirmation,,html-keyboard-response,113,537206,0.0-1.0-163.0-0.0,0,0,3,,,,,,40.0,,,,,,,,,,,,,,,,,,,127.5,0.808,,,,,,,,,,,
114,,iti,,html-keyboard-response,114,537308,0.0-1.0-164.0,0,0,3,,,,,,,,,,,,,,,,,,,,,,,,,130.5,3.0,,,,,,,,,,,
115,,size_choice,,html-keyboard-response,115,539736,0.0-1.0-166.0,0,0,3,,,,,,41.0,41.0,1.0,1000.0,S-L,1.0,L,S,3.0,1.0,dishwasher,thread,dishwasher3,thread2,22.0,141.0,/static/Size_judgement/Stimuli/Size_stims/L/dishwasher/dishwasher8.jpg,/static/Size_judgement/Stimuli/Size_stims/S/thread/thread6.jpg,,132.0,1.5,1.0,,,,,,,,,,
116,,iti,,html-keyboard-response,116,540924,0.0-1.0-168.0,0,0,3,,,,,,,,,,,,,,,,,,,,,,,,,133.0,1.0,,,,,,,,,,,
117,,size_choice,,html-keyboard-response,117,543382,0.0-1.0-170.0,0,0,3,,,,,,42.0,42.0,1.0,1500.0,S-L,1.0,L,S,3.0,1.0,cooler,paperclip,cooler6,paperclip2,5.0,111.0,/static/Size_judgement/Stimuli/Size_stims/L/cooler/cooler1.jpg,/static/Size_judgement/Stimuli/Size_stims/S/paperclip/paperclip8.jpg,,134.5,1.5,1.0,,,,,,,,,,
118,,iti,,html-keyboard-response,118,543872,0.0-1.0-172.0,0,0,3,,,,,,,,,,,,,,,,,,,,,,,,,136.0,1.5,,,,,,,,,,,
119,,size_choice,,html-keyboard-response,119,545736,0.0-1.0-174.0,0,0,3,,,,,,43.0,43.0,1.0,1500.0,M-L,0.0,M,L,2.0,3.0,handsaw,garbagecan,handsaw3,garbagecan2,82.0,31.0,/static/Size_judgement/Stimuli/Size_stims/M/handsaw/handsaw2.jpg,/static/Size_judgement/Stimuli/Size_stims/L/garbagecan/garbagecan5.jpg,,137.5,1.5,1.0,,,,,,,,,,
120,,iti,,html-keyboard-response,120,547233,0.0-1.0-176.0,0,0,3,,,,,,,,,,,,,,,,,,,,,,,,,139.0,1.5,,,,,,,,,,,
121,,size_choice,,html-keyboard-response,121,549367,0.0-1.0-178.0,0,0,3,,,,,,44.0,44.0,1.0,1500.0,S-XL,0.0,S,XL,1.0,4.0,thread,tractor,thread4,tractor1,143.0,180.0,/static/Size_judgement/Stimuli/Size_stims/S/thread/thread5.jpg,/static/Size_judgement/Stimuli/Size_stims/XL/tractor/tractor6.jpg,,140.5,1.5,1.0,,,,,,,,,,
122,,iti,,html-keyboard-response,122,549852,0.0-1.0-180.0,0,0,3,,,,,,,,,,,,,,,,,,,,,,,,,142.0,1.5,,,,,,,,,,,
123,,block_over,,html-keyboard-response,123,777168,0.0-1.0-181.0-0.0,0,0,3,,227316.0,,,50.0,44.0,,,,,,,,,,,,,,,,,,,,,,,,,,,,,,,
124,,size_choice,,html-keyboard-response,124,778217,0.0-1.0-182.0,0,0,3,,1048.0,,,50.0,45.0,45.0,2.0,1000.0,XL-XL,,XL,XL,4.0,4.0,crane,van,crane10,van8,169.0,197.0,/static/Size_judgement/Stimuli/Size_stims/XL/crane/crane9.jpg,/static/Size_judgement/Stimuli/Size_stims/XL/van/van10.jpg,,143.048,1.048,0.0,1.0,crane,van,XL,XL,4.0,4.0,crane10,van8,
125,,size_choice_confirmation,,html-keyboard-response,125,778671,0.0-1.0-183.0-0.0,0,0,3,,,,,,45.0,,,,,,,,,,,,,,,,,,,143.5,0.452,,,,,,,,,,,
126,,iti,,html-keyboard-response,126,778772,0.0-1.0-184.0,0,0,3,,,,,,,,,,,,,,,,,,,,,,,,,144.5,1.0,,,,,,,,,,,
127,,size_choice,,html-keyboard-response,127,779230,0.0-1.0-186.0,0,0,3,,455.0,,,51.0,46.0,46.0,2.0,3500.0,S-L,0.0,S,L,1.0,3.0,thread,cooler,thread8,cooler3,147.0,2.0,/static/Size_judgement/Stimuli/Size_stims/S/thread/thread10.jpg,/static/Size_judgement/Stimuli/Size_stims/L/cooler/cooler2.jpg,1.0,144.955,0.455,0.0,0.0,cooler,thread,L,S,3.0,1.0,cooler3,thread8,
128,,size_choice_confirmation,,html-keyboard-response,128,780276,0.0-1.0-187.0-0.0,0,0,3,,,,,,46.0,,,,,,,,,,,,,,,,,,,146.0,1.045,,,,,,,,,,,
129,,iti,,html-keyboard-response,129,780379,0.0-1.0-188.0,0,0,3,,,,,,,,,,,,,,,,,,,,,,,,,149.5,3.5,,,,,,,,,,,
130,,size_choice,,html-keyboard-response,130,780651,0.0-1.0-190.0,0,0,3,,271.0,,,51.0,47.0,47.0,2.0,1000.0,M-XL,0.0,M,XL,2.0,4.0,coffeemaker,crane,coffeemaker9,crane2,68.0,161.0,/static/Size_judgement/Stimuli/Size_stims/M/coffeemaker/coffeemaker7.jpg,/static/Size_judgement/Stimuli/Size_stims/XL/crane/crane6.jpg,1.0,149.771,0.271,0.0,0.0,crane,coffeemaker,XL,M,4.0,2.0,crane2,coffeemaker9,
131,,size_choice_confirmation,,html-keyboard-response,131,781885,0.0-1.0-191.0-0.0,0,0,3,,,,,,47.0,,,,,,,,,,,,,,,,,,,151.0,1.229,,,,,,,,,,,
132,,iti,,html-keyboard-response,132,781989,0.0-1.0-192.0,0,0,3,,,,,,,,,,,,,,,,,,,,,,,,,152.0,1.0,,,,,,,,,,,
133,,size_choice,,html-keyboard-response,133,782199,0.0-1.0-194.0,0,0,3,,209.0,,,51.0,48.0,48.0,2.0,1000.0,S-L,1.0,L,S,3.0,1.0,garbagecan,die,garbagecan1,die5,30.0,104.0,/static/Size_judgement/Stimuli/Size_stims/L/garbagecan/garbagecan4.jpg,/static/Size_judgement/Stimuli/Size_stims/S/die/die3.jpg,0.0,152.209,0.209,0.0,0.0,die,garbagecan,S,L,1.0,3.0,die5,garbagecan1,
134,,size_choice_confirmation,,html-keyboard-response,134,783493,0.0-1.0-195.0-0.0,0,0,3,,,,,,48.0,,,,,,,,,,,,,,,,,,,153.5,1.291,,,,,,,,,,,
135,,iti,,html-keyboard-response,135,783593,0.0-1.0-196.0,0,0,3,,,,,,,,,,,,,,,,,,,,,,,,,154.5,1.0,,,,,,,,,,,
136,,size_choice,,html-keyboard-response,136,784023,0.0-1.0-198.0,0,0,3,,428.0,,,51.0,49.0,49.0,2.0,1500.0,M-L,0.0,M,L,2.0,3.0,hairdryer,deskchair,hairdryer8,deskchair5,77.0,14.0,/static/Size_judgement/Stimuli/Size_stims/M/hairdryer/hairdryer1.jpg,/static/Size_judgement/Stimuli/Size_stims/L/deskchair/deskchair7.jpg,1.0,154.928,0.428,0.0,0.0,deskchair,hairdryer,L,M,3.0,2.0,deskchair5,hairdryer8,
137,,size_choice_confirmation,,html-keyboard-response,137,785098,0.0-1.0-199.0-0.0,0,0,3,,,,,,49.0,,,,,,,,,,,,,,,,,,,156.0,1.072,,,,,,,,,,,
138,,iti,,html-keyboard-response,138,785202,0.0-1.0-200.0,0,0,3,,,,,,,,,,,,,,,,,,,,,,,,,157.5,1.5,,,,,,,,,,,
139,,size_choice,,html-keyboard-response,139,785284,0.0-1.0-202.0,0,0,3,,81.0,,,51.0,50.0,50.0,2.0,3500.0,S-XL,0.0,S,XL,1.0,4.0,die,tractor,die10,tractor3,109.0,182.0,/static/Size_judgement/Stimuli/Size_stims/S/die/die6.jpg,/static/Size_judgement/Stimuli/Size_stims/XL/tractor/tractor5.jpg,1.0,157.581,0.081,0.0,0.0,tractor,die,XL,S,4.0,1.0,tractor3,die10,
140,,size_choice_confirmation,,html-keyboard-response,140,786708,0.0-1.0-203.0-0.0,0,0,3,,,,,,50.0,,,,,,,,,,,,,,,,,,,159.0,1.419,,,,,,,,,,,
141,,iti,,html-keyboard-response,141,786813,0.0-1.0-204.0,0,0,3,,,,,,,,,,,,,,,,,,,,,,,,,162.5,3.5,,,,,,,,,,,
142,,size_choice,,html-keyboard-response,142,787317,0.0-1.0-206.0,0,0,3,,503.0,,,51.0,51.0,51.0,2.0,1000.0,S-XL,0.0,S,XL,1.0,4.0,screws,van,screws4,van1,123.0,190.0,/static/Size_judgement/Stimuli/Size_stims/S/screws/screws6.jpg,/static/Size_judgement/Stimuli/Size_stims/XL/van/van5.jpg,1.0,163.003,0.503,0.0,0.0,van,screws,XL,S,4.0,1.0,van1,screws4,
143,,size_choice_confirmation,,html-keyboard-response,143,788319,0.0-1.0-207.0-0.0,0,0,3,,,,,,51.0,,,,,,,,,,,,,,,,,,,164.0,0.997,,,,,,,,,,,
144,,iti,,html-keyboard-response,144,788420,0.0-1.0-208.0,0,0,3,,,,,,,,,,,,,,,,,,,,,,,,,165.0,1.0,,,,,,,,,,,
145,,size_choice,,html-keyboard-response,145,788444,0.0-1.0-210.0,0,0,3,,23.0,,,51.0,52.0,52.0,2.0,1500.0,S-L,1.0,L,S,3.0,1.0,cooler,paperclip,cooler10,paperclip8,9.0,117.0,/static/Size_judgement/Stimuli/Size_stims/L/cooler/cooler6.jpg,/static/Size_judgement/Stimuli/Size_stims/S/paperclip/paperclip5.jpg,0.0,165.023,0.023,0.0,0.0,paperclip,cooler,S,L,1.0,3.0,paperclip8,cooler10,
146,,size_choice_confirmation,,html-keyboard-response,146,789925,0.0-1.0-211.0-0.0,0,0,3,,,,,,52.0,,,,,,,,,,,,,,,,,,,166.5,1.477,,,,,,,,,,,
147,,iti,,html-keyboard-response,147,790026,0.0-1.0-212.0,0,0,3,,,,,,,,,,,,,,,,,,,,,,,,,168.0,1.5,,,,,,,,,,,
148,,size_choice,,html-keyboard-response,148,791453,0.0-1.0-214.0,0,0,3,,1425.0,,,50.0,53.0,53.0,2.0,2000.0,S-L,0.0,S,L,1.0,3.0,screws,mailbox,screws1,mailbox5,120.0,44.0,/static/Size_judgement/Stimuli/Size_stims/S/screws/screws4.jpg,/static/Size_judgement/Stimuli/Size_stims/L/mailbox/mailbox4.jpg,0.0,169.425,1.425,0.0,1.0,screws,mailbox,S,L,1.0,3.0,screws1,mailbox5,
149,,size_choice_confirmation,,html-keyboard-response,149,791530,0.0-1.0-215.0-0.0,0,0,3,,,,,,53.0,,,,,,,,,,,,,,,,,,,169.5,0.075,,,,,,,,,,,
150,,iti,,html-keyboard-response,150,791635,0.0-1.0-216.0,0,0,3,,,,,,,,,,,,,,,,,,,,,,,,,171.5,2.0,,,,,,,,,,,
151,,size_choice,,html-keyboard-response,151,793141,0.0-1.0-218.0,0,0,3,,,,,,54.0,54.0,2.0,1000.0,S-L,0.0,S,L,1.0,3.0,screws,deskchair,screws2,deskchair7,121.0,16.0,/static/Size_judgement/Stimuli/Size_stims/S/screws/screws5.jpg,/static/Size_judgement/Stimuli/Size_stims/L/deskchair/deskchair4.jpg,,173.0,1.5,1.0,,,,,,,,,,
152,,iti,,html-keyboard-response,152,793243,0.0-1.0-220.0,0,0,3,,,,,,,,,,,,,,,,,,,,,,,,,174.0,1.0,,,,,,,,,,,
153,,size_choice,,html-keyboard-response,153,794481,0.0-1.0-222.0,0,0,3,,1236.0,,,51.0,55.0,55.0,2.0,1500.0,M-XL,1.0,XL,M,4.0,2.0,dumptruck,ketchup,dumptruck1,ketchup10,170.0,99.0,/static/Size_judgement/Stimuli/Size_stims/XL/dumptruck/dumptruck9.jpg,/static/Size_judgement/Stimuli/Size_stims/M/ketchup/ketchup6.jpg,0.0,175.236,1.236,0.0,0.0,ketchup,dumptruck,M,XL,2.0,4.0,ketchup10,dumptruck1,
154,,size_choice_confirmation,,html-keyboard-response,154,794749,0.0-1.0-223.0-0.0,0,0,3,,,,,,55.0,,,,,,,,,,,,,,,,,,,175.5,0.264,,,,,,,,,,,
155,,iti,,html-keyboard-response,155,794853,0.0-1.0-224.0,0,0,3,,,,,,,,,,,,,,,,,,,,,,,,,177.0,1.5,,,,,,,,,,,
156,,size_choice,,html-keyboard-response,156,796252,0.0-1.0-226.0,0,0,3,,1397.0,,,51.0,56.0,56.0,2.0,1500.0,L-XL,1.0,XL,L,4.0,3.0,car,dishwasher,car10,dishwasher2,159.0,21.0,/static/Size_judgement/Stimuli/Size_stims/XL/car/car9.jpg,/static/Size_judgement/Stimuli/Size_stims/L/dishwasher/dishwasher9.jpg,0.0,178.397,1.397,0.0,0.0,dishwasher,car,L,XL,3.0,4.0,dishwasher2,car10,
157,,size_choice_confirmation,,html-keyboard-response,157,796357,0.0-1.0-227.0-0.0,0,0,3,,,,,,56.0,,,,,,,,,,,,,,,,,,,178.5,0.103,,,,,,,,,,,
158,,iti,,html-keyboard-response,158,796460,0.0-1.0-228.0,0,0,3,,,,,,,,,,,,,,,,,,,,,,,,,180.0,1.5,,,,,,,,,,,
159,,size_choice,,html-keyboard-response,159,797962,0.0-1.0-230.0,0,0,3,,,,,,57.0,57.0,2.0,1000.0,S-S,,S,S,1.0,1.0,die,paperclip,die8,paperclip9,107.0,118.0,/static/Size_judgement/Stimuli/Size_stims/S/die/die5.jpg,/static/Size_judgement/Stimuli/Size_stims/S/paperclip/paperclip4.jpg,,181.5,1.5,1.0,,,,,,,,,,
160,,iti,,html-keyboard-response,160,798069,0.0-1.0-232.0,0,0,3,,,,,,,,,,,,,,,,,,,,,,,,,182.5,1.0,,,,,,,,,,,
161,,size_choice,,html-keyboard-response,161,799572,0.0-1.0-234.0,0,0,3,,,,,,58.0,58.0,2.0,2000.0,M-M,,M,M,2.0,2.0,ketchup,handsaw,ketchup9,handsaw5,98.0,84.0,/static/Size_judgement/Stimuli/Size_stims/M/ketchup/ketchup7.jpg,/static/Size_judgement/Stimuli/Size_stims/M/handsaw/handsaw1.jpg,,184.0,1.5,1.0,,,,,,,,,,
162,,iti,,html-keyboard-response,162,799677,0.0-1.0-236.0,0,0,3,,,,,,,,,,,,,,,,,,,,,,,,,186.0,2.0,,,,,,,,,,,
163,,size_choice,,html-keyboard-response,163,799875,0.0-1.0-238.0,0,0,3,,197.0,,,51.0,59.0,59.0,2.0,2000.0,M-XL,0.0,M,XL,2.0,4.0,coffeemaker,crane,coffeemaker1,crane9,60.0,168.0,/static/Size_judgement/Stimuli/Size_stims/M/coffeemaker/coffeemaker14.jpg,/static/Size_judgement/Stimuli/Size_stims/XL/crane/crane8.jpg,1.0,186.197,0.197,0.0,0.0,crane,coffeemaker,XL,M,4.0,2.0,crane9,coffeemaker1,
164,,size_choice_confirmation,,html-keyboard-response,164,801183,0.0-1.0-239.0-0.0,0,0,3,,,,,,59.0,,,,,,,,,,,,,,,,,,,187.5,1.303,,,,,,,,,,,
165,,iti,,html-keyboard-response,165,801286,0.0-1.0-240.0,0,0,3,,,,,,,,,,,,,,,,,,,,,,,,,189.5,2.0,,,,,,,,,,,
166,,size_choice,,html-keyboard-response,166,801552,0.0-1.0-242.0,0,0,3,,264.0,,,51.0,60.0,60.0,2.0,1000.0,M-L,0.0,M,L,2.0,3.0,hairdryer,mailbox,hairdryer9,mailbox6,78.0,45.0,/static/Size_judgement/Stimuli/Size_stims/M/hairdryer/hairdryer5.jpg,/static/Size_judgement/Stimuli/Size_stims/L/mailbox/mailbox6.jpg,1.0,189.764,0.264,0.0,0.0,mailbox,hairdryer,L,M,3.0,2.0,mailbox6,hairdryer9,
167,,size_choice_confirmation,,html-keyboard-response,167,802793,0.0-1.0-243.0-0.0,0,0,3,,,,,,60.0,,,,,,,,,,,,,,,,,,,191.0,1.236,,,,,,,,,,,
168,,iti,,html-keyboard-response,168,802895,0.0-1.0-244.0,0,0,3,,,,,,,,,,,,,,,,,,,,,,,,,192.0,1.0,,,,,,,,,,,
169,,size_choice,,html-keyboard-response,169,803897,0.0-1.0-246.0,0,0,3,,1000.0,,,51.0,61.0,61.0,2.0,1500.0,S-XL,1.0,XL,S,4.0,1.0,tractor,die,tractor4,die9,183.0,108.0,/static/Size_judgement/Stimuli/Size_stims/XL/tractor/tractor4.jpg,/static/Size_judgement/Stimuli/Size_stims/S/die/die7.jpg,0.0,193.0,1.0,0.0,0.0,die,tractor,S,XL,1.0,4.0,die9,tractor4,
170,,size_choice_confirmation,,html-keyboard-response,170,804399,0.0-1.0-247.0-0.0,0,0,3,,,,,,61.0,,,,,,,,,,,,,,,,,,,193.5,0.5,,,,,,,,,,,
171,,iti,,html-keyboard-response,171,804502,0.0-1.0-248.0,0,0,3,,,,,,,,,,,,,,,,,,,,,,,,,195.0,1.5,,,,,,,,,,,
172,,size_choice,,html-keyboard-response,172,804917,0.0-1.0-250.0,0,0,3,,413.0,,,51.0,62.0,62.0,2.0,1000.0,XL-XL,,XL,XL,4.0,4.0,van,tractor,van7,tractor10,196.0,189.0,/static/Size_judgement/Stimuli/Size_stims/XL/van/van1.jpg,/static/Size_judgement/Stimuli/Size_stims/XL/tractor/tractor8.jpg,,195.413,0.413,0.0,0.0,tractor,van,XL,XL,4.0,4.0,tractor10,van7,
173,,size_choice_confirmation,,html-keyboard-response,173,806010,0.0-1.0-251.0-0.0,0,0,3,,,,,,62.0,,,,,,,,,,,,,,,,,,,196.5,1.087,,,,,,,,,,,
174,,iti,,html-keyboard-response,174,806115,0.0-1.0-252.0,0,0,3,,,,,,,,,,,,,,,,,,,,,,,,,197.5,1.0,,,,,,,,,,,
175,,size_choice,,html-keyboard-response,175,807001,0.0-1.0-254.0,0,0,3,,884.0,,,51.0,63.0,63.0,2.0,3500.0,S-XL,0.0,S,XL,1.0,4.0,paperclip,tractor,paperclip7,tractor7,116.0,186.0,/static/Size_judgement/Stimuli/Size_stims/S/paperclip/paperclip7.jpg,/static/Size_judgement/Stimuli/Size_stims/XL/tractor/tractor2.jpg,1.0,198.384,0.884,0.0,0.0,tractor,paperclip,XL,S,4.0,1.0,tractor7,paperclip7,
176,,size_choice_confirmation,,html-keyboard-response,176,807621,0.0-1.0-255.0-0.0,0,0,3,,,,,,63.0,,,,,,,,,,,,,,,,,,,199.0,0.616,,,,,,,,,,,
177,,iti,,html-keyboard-response,177,807722,0.0-1.0-256.0,0,0,3,,,,,,,,,,,,,,,,,,,,,,,,,202.5,3.5,,,,,,,,,,,
178,,size_choice,,html-keyboard-response,178,807929,0.0-1.0-258.0,0,0,3,,206.0,,,51.0,64.0,64.0,2.0,2000.0,M-L,0.0,M,L,2.0,3.0,basketball,deskchair,basketball3,deskchair10,52.0,19.0,/static/Size_judgement/Stimuli/Size_stims/M/basketball/basketball10.jpg,/static/Size_judgement/Stimuli/Size_stims/L/deskchair/deskchair2.jpg,1.0,202.706,0.206,0.0,0.0,deskchair,basketball,L,M,3.0,2.0,deskchair10,basketball3,
179,,size_choice_confirmation,,html-keyboard-response,179,809226,0.0-1.0-259.0-0.0,0,0,3,,,,,,64.0,,,,,,,,,,,,,,,,,,,204.0,1.294,,,,,,,,,,,
180,,iti,,html-keyboard-response,180,809329,0.0-1.0-260.0,0,0,3,,,,,,,,,,,,,,,,,,,,,,,,,206.0,2.0,,,,,,,,,,,
181,,size_choice,,html-keyboard-response,181,810042,0.0-1.0-262.0,0,0,3,,712.0,,,51.0,65.0,65.0,2.0,1000.0,M-XL,1.0,XL,M,4.0,2.0,crane,coffeemaker,crane4,coffeemaker10,163.0,69.0,/static/Size_judgement/Stimuli/Size_stims/XL/crane/crane5.jpg,/static/Size_judgement/Stimuli/Size_stims/M/coffeemaker/coffeemaker18.jpg,0.0,206.712,0.712,0.0,0.0,coffeemaker,crane,M,XL,2.0,4.0,coffeemaker10,crane4,
182,,size_choice_confirmation,,html-keyboard-response,182,810832,0.0-1.0-263.0-0.0,0,0,3,,,,,,65.0,,,,,,,,,,,,,,,,,,,207.5,0.788,,,,,,,,,,,
183,,iti,,html-keyboard-response,183,810936,0.0-1.0-264.0,0,0,3,,,,,,,,,,,,,,,,,,,,,,,,,208.5,1.0,,,,,,,,,,,
184,,size_choice,,html-keyboard-response,184,811185,0.0-1.0-266.0,0,0,3,,248.0,,,50.0,66.0,66.0,2.0,1500.0,S-XL,0.0,S,XL,1.0,4.0,thread,dumptruck,thread7,dumptruck7,146.0,176.0,/static/Size_judgement/Stimuli/Size_stims/S/thread/thread3.jpg,/static/Size_judgement/Stimuli/Size_stims/XL/dumptruck/dumptruck6.jpg,0.0,208.748,0.248,0.0,1.0,thread,dumptruck,S,XL,1.0,4.0,thread7,dumptruck7,
185,,size_choice_confirmation,,html-keyboard-response,185,812442,0.0-1.0-267.0-0.0,0,0,3,,,,,,66.0,,,,,,,,,,,,,,,,,,,210.0,1.252,,,,,,,,,,,
186,,iti,,html-keyboard-response,186,812543,0.0-1.0-268.0,0,0,3,,,,,,,,,,,,,,,,,,,,,,,,,211.5,1.5,,,,,,,,,,,
187,,size_choice,,html-keyboard-response,187,812873,0.0-1.0-270.0,0,0,3,,327.0,,,51.0,67.0,67.0,2.0,1000.0,XL-XL,,XL,XL,4.0,4.0,car,dumptruck,car8,dumptruck8,157.0,177.0,/static/Size_judgement/Stimuli/Size_stims/XL/car/car14.jpg,/static/Size_judgement/Stimuli/Size_stims/XL/dumptruck/dumptruck7.jpg,,211.827,0.327,0.0,0.0,dumptruck,car,XL,XL,4.0,4.0,dumptruck8,car8,
188,,size_choice_confirmation,,html-keyboard-response,188,814048,0.0-1.0-271.0-0.0,0,0,3,,,,,,67.0,,,,,,,,,,,,,,,,,,,213.0,1.173,,,,,,,,,,,
189,,iti,,html-keyboard-response,189,814152,0.0-1.0-272.0,0,0,3,,,,,,,,,,,,,,,,,,,,,,,,,214.0,1.0,,,,,,,,,,,
190,,size_choice,,html-keyboard-response,190,814371,0.0-1.0-274.0,0,0,3,,217.0,,,51.0,68.0,68.0,2.0,3000.0,M-L,0.0,M,L,2.0,3.0,coffeemaker,cooler,coffeemaker6,cooler1,65.0,0.0,/static/Size_judgement/Stimuli/Size_stims/M/coffeemaker/coffeemaker8.jpg,/static/Size_judgement/Stimuli/Size_stims/L/cooler/cooler8.jpg,1.0,214.217,0.217,0.0,0.0,cooler,coffeemaker,L,M,3.0,2.0,cooler1,coffeemaker6,
191,,size_choice_confirmation,,html-keyboard-response,191,815660,0.0-1.0-275.0-0.0,0,0,3,,,,,,68.0,,,,,,,,,,,,,,,,,,,215.5,1.283,,,,,,,,,,,
192,,iti,,html-keyboard-response,192,815765,0.0-1.0-276.0,0,0,3,,,,,,,,,,,,,,,,,,,,,,,,,218.5,3.0,,,,,,,,,,,
193,,size_choice,,html-keyboard-response,193,816100,0.0-1.0-278.0,0,0,3,,334.0,,,51.0,69.0,69.0,2.0,2000.0,M-L,1.0,L,M,3.0,2.0,cooler,handsaw,cooler5,handsaw4,4.0,83.0,/static/Size_judgement/Stimuli/Size_stims/L/cooler/cooler10.jpg,/static/Size_judgement/Stimuli/Size_stims/M/handsaw/handsaw3.jpg,0.0,218.834,0.334,0.0,0.0,handsaw,cooler,M,L,2.0,3.0,handsaw4,cooler5,
194,,size_choice_confirmation,,html-keyboard-response,194,817272,0.0-1.0-279.0-0.0,0,0,3,,,,,,69.0,,,,,,,,,,,,,,,,,,,220.0,1.166,,,,,,,,,,,
195,,iti,,html-keyboard-response,195,817376,0.0-1.0-280.0,0,0,3,,,,,,,,,,,,,,,,,,,,,,,,,222.0,2.0,,,,,,,,,,,
196,,size_choice,,html-keyboard-response,196,817774,0.0-1.0-282.0,0,0,3,,396.0,,,51.0,70.0,70.0,2.0,1000.0,M-XL,1.0,XL,M,4.0,2.0,car,basketball,car7,basketball2,156.0,51.0,/static/Size_judgement/Stimuli/Size_stims/XL/car/car13.jpg,/static/Size_judgement/Stimuli/Size_stims/M/basketball/basketball8.jpg,0.0,222.396,0.396,0.0,0.0,basketball,car,M,XL,2.0,4.0,basketball2,car7,
197,,size_choice_confirmation,,html-keyboard-response,197,818880,0.0-1.0-283.0-0.0,0,0,3,,,,,,70.0,,,,,,,,,,,,,,,,,,,223.5,1.104,,,,,,,,,,,
198,,iti,,html-keyboard-response,198,818986,0.0-1.0-284.0,0,0,3,,,,,,,,,,,,,,,,,,,,,,,,,224.5,1.0,,,,,,,,,,,
199,,size_choice,,html-keyboard-response,199,819255,0.0-1.0-286.0,0,0,3,,268.0,,,51.0,71.0,71.0,2.0,1000.0,S-L,0.0,S,L,1.0,3.0,teabag,garbagecan,teabag8,garbagecan3,137.0,32.0,/static/Size_judgement/Stimuli/Size_stims/S/teabag/teabag7.jpg,/static/Size_judgement/Stimuli/Size_stims/L/garbagecan/garbagecan7.jpg,1.0,224.768,0.268,0.0,0.0,garbagecan,teabag,L,S,3.0,1.0,garbagecan3,teabag8,
200,,size_choice_confirmation,,html-keyboard-response,200,820492,0.0-1.0-287.0-0.0,0,0,3,,,,,,71.0,,,,,,,,,,,,,,,,,,,226.0,1.232,,,,,,,,,,,
201,,iti,,html-keyboard-response,201,820597,0.0-1.0-288.0,0,0,3,,,,,,,,,,,,,,,,,,,,,,,,,227.0,1.0,,,,,,,,,,,
202,,size_choice,,html-keyboard-response,202,820816,0.0-1.0-290.0,0,0,3,,218.0,,,51.0,72.0,72.0,2.0,3000.0,L-L,,L,L,3.0,3.0,dishwasher,mailbox,dishwasher9,mailbox1,28.0,40.0,/static/Size_judgement/Stimuli/Size_stims/L/dishwasher/dishwasher2.jpg,/static/Size_judgement/Stimuli/Size_stims/L/mailbox/mailbox3.jpg,,227.218,0.218,0.0,0.0,mailbox,dishwasher,L,L,3.0,3.0,mailbox1,dishwasher9,
203,,size_choice_confirmation,,html-keyboard-response,203,822103,0.0-1.0-291.0-0.0,0,0,3,,,,,,72.0,,,,,,,,,,,,,,,,,,,228.5,1.282,,,,,,,,,,,
204,,iti,,html-keyboard-response,204,822208,0.0-1.0-292.0,0,0,3,,,,,,,,,,,,,,,,,,,,,,,,,231.5,3.0,,,,,,,,,,,
205,,size_choice,,html-keyboard-response,205,822327,0.0-1.0-294.0,0,0,3,,118.0,,,51.0,73.0,73.0,2.0,1000.0,S-XL,0.0,S,XL,1.0,4.0,thread,crane,thread10,crane1,149.0,160.0,/static/Size_judgement/Stimuli/Size_stims/S/thread/thread9.jpg,/static/Size_judgement/Stimuli/Size_stims/XL/crane/crane7.jpg,1.0,231.618,0.118,0.0,0.0,crane,thread,XL,S,4.0,1.0,crane1,thread10,
206,,size_choice_confirmation,,html-keyboard-response,206,823711,0.0-1.0-295.0-0.0,0,0,3,,,,,,73.0,,,,,,,,,,,,,,,,,,,233.0,1.382,,,,,,,,,,,
207,,iti,,html-keyboard-response,207,823814,0.0-1.0-296.0,0,0,3,,,,,,,,,,,,,,,,,,,,,,,,,234.0,1.0,,,,,,,,,,,
208,,size_choice,,html-keyboard-response,208,824288,0.0-1.0-298.0,0,0,3,,472.0,,,51.0,74.0,74.0,2.0,3000.0,M-M,,M,M,2.0,2.0,coffeemaker,handsaw,coffeemaker4,handsaw9,63.0,88.0,/static/Size_judgement/Stimuli/Size_stims/M/coffeemaker/coffeemaker11.jpg,/static/Size_judgement/Stimuli/Size_stims/M/handsaw/handsaw6.jpg,,234.472,0.472,0.0,0.0,handsaw,coffeemaker,M,M,2.0,2.0,handsaw9,coffeemaker4,
209,,size_choice_confirmation,,html-keyboard-response,209,825322,0.0-1.0-299.0-0.0,0,0,3,,,,,,74.0,,,,,,,,,,,,,,,,,,,235.5,1.028,,,,,,,,,,,
210,,iti,,html-keyboard-response,210,825426,0.0-1.0-300.0,0,0,3,,,,,,,,,,,,,,,,,,,,,,,,,238.5,3.0,,,,,,,,,,,
211,,size_choice,,html-keyboard-response,211,826621,0.0-1.0-302.0,0,0,3,,1194.0,,,51.0,75.0,75.0,2.0,1000.0,S-L,1.0,L,S,3.0,1.0,mailbox,teabag,mailbox8,teabag6,47.0,135.0,/static/Size_judgement/Stimuli/Size_stims/L/mailbox/mailbox10.jpg,/static/Size_judgement/Stimuli/Size_stims/S/teabag/teabag6.jpg,0.0,239.694,1.194,0.0,0.0,teabag,mailbox,S,L,1.0,3.0,teabag6,mailbox8,
212,,size_choice_confirmation,,html-keyboard-response,212,826933,0.0-1.0-303.0-0.0,0,0,3,,,,,,75.0,,,,,,,,,,,,,,,,,,,240.0,0.306,,,,,,,,,,,
213,,iti,,html-keyboard-response,213,827038,0.0-1.0-304.0,0,0,3,,,,,,,,,,,,,,,,,,,,,,,,,241.0,1.0,,,,,,,,,,,
214,,size_choice,,html-keyboard-response,214,827592,0.0-1.0-306.0,0,0,3,,553.0,,,50.0,76.0,76.0,2.0,2000.0,M-XL,1.0,XL,M,4.0,2.0,car,ketchup,car9,ketchup3,158.0,92.0,/static/Size_judgement/Stimuli/Size_stims/XL/car/car15.jpg,/static/Size_judgement/Stimuli/Size_stims/M/ketchup/ketchup10.jpg,1.0,241.553,0.553,0.0,1.0,car,ketchup,XL,M,4.0,2.0,car9,ketchup3,
215,,size_choice_confirmation,,html-keyboard-response,215,828544,0.0-1.0-307.0-0.0,0,0,3,,,,,,76.0,,,,,,,,,,,,,,,,,,,242.5,0.947,,,,,,,,,,,
216,,iti,,html-keyboard-response,216,828645,0.0-1.0-308.0,0,0,3,,,,,,,,,,,,,,,,,,,,,,,,,244.5,2.0,,,,,,,,,,,
217,,size_choice,,html-keyboard-response,217,828756,0.0-1.0-310.0,0,0,3,,108.0,,,51.0,77.0,77.0,2.0,1000.0,M-XL,0.0,M,XL,2.0,4.0,basketball,dumptruck,basketball7,dumptruck6,56.0,175.0,/static/Size_judgement/Stimuli/Size_stims/M/basketball/basketball6.jpg,/static/Size_judgement/Stimuli/Size_stims/XL/dumptruck/dumptruck2.jpg,1.0,244.608,0.108,0.0,0.0,dumptruck,basketball,XL,M,4.0,2.0,dumptruck6,basketball7,
218,,size_choice_confirmation,,html-keyboard-response,218,830153,0.0-1.0-311.0-0.0,0,0,3,,,,,,77.0,,,,,,,,,,,,,,,,,,,246.0,1.392,,,,,,,,,,,
219,,iti,,html-keyboard-response,219,830259,0.0-1.0-312.0,0,0,3,,,,,,,,,,,,,,,,,,,,,,,,,247.0,1.0,,,,,,,,,,,
220,,size_choice,,html-keyboard-response,220,830840,0.0-1.0-314.0,0,0,3,,580.0,,,51.0,78.0,78.0,2.0,1500.0,S-XL,1.0,XL,S,4.0,1.0,crane,teabag,crane3,teabag5,162.0,134.0,/static/Size_judgement/Stimuli/Size_stims/XL/crane/crane4.jpg,/static/Size_judgement/Stimuli/Size_stims/S/teabag/teabag2.jpg,0.0,247.58,0.58,0.0,0.0,teabag,crane,S,XL,1.0,4.0,teabag5,crane3,
221,,size_choice_confirmation,,html-keyboard-response,221,831765,0.0-1.0-315.0-0.0,0,0,3,,,,,,78.0,,,,,,,,,,,,,,,,,,,248.5,0.92,,,,,,,,,,,
222,,iti,,html-keyboard-response,222,831871,0.0-1.0-316.0,0,0,3,,,,,,,,,,,,,,,,,,,,,,,,,250.0,1.5,,,,,,,,,,,
223,,size_choice,,html-keyboard-response,223,832049,0.0-1.0-318.0,0,0,3,,177.0,,,51.0,79.0,79.0,2.0,1500.0,M-XL,0.0,M,XL,2.0,4.0,handsaw,car,handsaw2,car2,81.0,151.0,/static/Size_judgement/Stimuli/Size_stims/M/handsaw/handsaw9.jpg,/static/Size_judgement/Stimuli/Size_stims/XL/car/car3.jpg,1.0,250.177,0.177,0.0,0.0,car,handsaw,XL,M,4.0,2.0,car2,handsaw2,
224,,size_choice_confirmation,,html-keyboard-response,224,833376,0.0-1.0-319.0-0.0,0,0,3,,,,,,79.0,,,,,,,,,,,,,,,,,,,251.5,1.323,,,,,,,,,,,
225,,iti,,html-keyboard-response,225,833480,0.0-1.0-320.0,0,0,3,,,,,,,,,,,,,,,,,,,,,,,,,253.0,1.5,,,,,,,,,,,
226,,size_choice,,html-keyboard-response,226,834493,0.0-1.0-322.0,0,0,3,,1011.0,,,51.0,80.0,80.0,2.0,2000.0,S-M,0.0,S,M,1.0,2.0,screws,handsaw,screws6,handsaw10,125.0,89.0,/static/Size_judgement/Stimuli/Size_stims/S/screws/screws3.jpg,/static/Size_judgement/Stimuli/Size_stims/M/handsaw/handsaw10.jpg,1.0,254.011,1.011,0.0,0.0,handsaw,screws,M,S,2.0,1.0,handsaw10,screws6,
227,,size_choice_confirmation,,html-keyboard-response,227,834986,0.0-1.0-323.0-0.0,0,0,3,,,,,,80.0,,,,,,,,,,,,,,,,,,,254.5,0.489,,,,,,,,,,,
228,,iti,,html-keyboard-response,228,835088,0.0-1.0-324.0,0,0,3,,,,,,,,,,,,,,,,,,,,,,,,,256.5,2.0,,,,,,,,,,,
229,,size_choice,,html-keyboard-response,229,835454,0.0-1.0-326.0,0,0,3,,365.0,,,51.0,81.0,81.0,2.0,2000.0,L-L,,L,L,3.0,3.0,cooler,dishwasher,cooler2,dishwasher1,1.0,20.0,/static/Size_judgement/Stimuli/Size_stims/L/cooler/cooler9.jpg,/static/Size_judgement/Stimuli/Size_stims/L/dishwasher/dishwasher10.jpg,,256.865,0.365,0.0,0.0,dishwasher,cooler,L,L,3.0,3.0,dishwasher1,cooler2,
230,,size_choice_confirmation,,html-keyboard-response,230,836592,0.0-1.0-327.0-0.0,0,0,3,,,,,,81.0,,,,,,,,,,,,,,,,,,,258.0,1.135,,,,,,,,,,,
231,,iti,,html-keyboard-response,231,836697,0.0-1.0-328.0,0,0,3,,,,,,,,,,,,,,,,,,,,,,,,,260.0,2.0,,,,,,,,,,,
232,,size_choice,,html-keyboard-response,232,837154,0.0-1.0-330.0,0,0,3,,456.0,,,51.0,82.0,82.0,2.0,1000.0,M-L,0.0,M,L,2.0,3.0,ketchup,deskchair,ketchup4,deskchair9,93.0,18.0,/static/Size_judgement/Stimuli/Size_stims/M/ketchup/ketchup2.jpg,/static/Size_judgement/Stimuli/Size_stims/L/deskchair/deskchair3.jpg,1.0,260.456,0.456,0.0,0.0,deskchair,ketchup,L,M,3.0,2.0,deskchair9,ketchup4,
233,,size_choice_confirmation,,html-keyboard-response,233,838203,0.0-1.0-331.0-0.0,0,0,3,,,,,,82.0,,,,,,,,,,,,,,,,,,,261.5,1.044,,,,,,,,,,,
234,,iti,,html-keyboard-response,234,838308,0.0-1.0-332.0,0,0,3,,,,,,,,,,,,,,,,,,,,,,,,,262.5,1.0,,,,,,,,,,,
235,,size_choice,,html-keyboard-response,235,838485,0.0-1.0-334.0,0,0,3,,175.0,,,50.0,83.0,83.0,2.0,3000.0,S-S,,S,S,1.0,1.0,screws,teabag,screws10,teabag9,129.0,138.0,/static/Size_judgement/Stimuli/Size_stims/S/screws/screws9.jpg,/static/Size_judgement/Stimuli/Size_stims/S/teabag/teabag5.jpg,,262.675,0.175,0.0,1.0,screws,teabag,S,S,1.0,1.0,screws10,teabag9,
236,,size_choice_confirmation,,html-keyboard-response,236,839817,0.0-1.0-335.0-0.0,0,0,3,,,,,,83.0,,,,,,,,,,,,,,,,,,,264.0,1.325,,,,,,,,,,,
237,,iti,,html-keyboard-response,237,839921,0.0-1.0-336.0,0,0,3,,,,,,,,,,,,,,,,,,,,,,,,,267.0,3.0,,,,,,,,,,,
238,,size_choice,,html-keyboard-response,238,840399,0.0-1.0-338.0,0,0,3,,477.0,,,51.0,84.0,84.0,2.0,1500.0,S-M,1.0,M,S,2.0,1.0,handsaw,paperclip,handsaw6,paperclip10,85.0,119.0,/static/Size_judgement/Stimuli/Size_stims/M/handsaw/handsaw4.jpg,/static/Size_judgement/Stimuli/Size_stims/S/paperclip/paperclip10.jpg,0.0,267.477,0.477,0.0,0.0,paperclip,handsaw,S,M,1.0,2.0,paperclip10,handsaw6,
239,,size_choice_confirmation,,html-keyboard-response,239,841428,0.0-1.0-339.0-0.0,0,0,3,,,,,,84.0,,,,,,,,,,,,,,,,,,,268.5,1.023,,,,,,,,,,,
240,,iti,,html-keyboard-response,240,841531,0.0-1.0-340.0,0,0,3,,,,,,,,,,,,,,,,,,,,,,,,,270.0,1.5,,,,,,,,,,,
241,,size_choice,,html-keyboard-response,241,841715,0.0-1.0-342.0,0,0,3,,183.0,,,51.0,85.0,85.0,2.0,1000.0,S-XL,1.0,XL,S,4.0,1.0,car,teabag,car5,teabag1,154.0,130.0,/static/Size_judgement/Stimuli/Size_stims/XL/car/car11.jpg,/static/Size_judgement/Stimuli/Size_stims/S/teabag/teabag9.jpg,0.0,270.183,0.183,0.0,0.0,teabag,car,S,XL,1.0,4.0,teabag1,car5,
242,,size_choice_confirmation,,html-keyboard-response,242,843036,0.0-1.0-343.0-0.0,0,0,3,,,,,,85.0,,,,,,,,,,,,,,,,,,,271.5,1.317,,,,,,,,,,,
243,,iti,,html-keyboard-response,243,843141,0.0-1.0-344.0,0,0,3,,,,,,,,,,,,,,,,,,,,,,,,,272.5,1.0,,,,,,,,,,,
244,,size_choice,,html-keyboard-response,244,843581,0.0-1.0-346.0,0,0,3,,438.0,,,51.0,86.0,86.0,2.0,1500.0,M-L,0.0,M,L,2.0,3.0,hairdryer,dishwasher,hairdryer10,dishwasher8,79.0,27.0,/static/Size_judgement/Stimuli/Size_stims/M/hairdryer/hairdryer6.jpg,/static/Size_judgement/Stimuli/Size_stims/L/dishwasher/dishwasher3.jpg,1.0,272.938,0.438,0.0,0.0,dishwasher,hairdryer,L,M,3.0,2.0,dishwasher8,hairdryer10,
245,,size_choice_confirmation,,html-keyboard-response,245,844645,0.0-1.0-347.0-0.0,0,0,3,,,,,,86.0,,,,,,,,,,,,,,,,,,,274.0,1.062,,,,,,,,,,,
246,,iti,,html-keyboard-response,246,844751,0.0-1.0-348.0,0,0,3,,,,,,,,,,,,,,,,,,,,,,,,,275.5,1.5,,,,,,,,,,,
247,,size_choice,,html-keyboard-response,247,844781,0.0-1.0-350.0,0,0,3,,28.0,,,51.0,87.0,87.0,2.0,1000.0,L-XL,1.0,XL,L,4.0,3.0,van,deskchair,van2,deskchair4,191.0,13.0,/static/Size_judgement/Stimuli/Size_stims/XL/van/van4.jpg,/static/Size_judgement/Stimuli/Size_stims/L/deskchair/deskchair6.jpg,0.0,275.528,0.028,0.0,0.0,deskchair,van,L,XL,3.0,4.0,deskchair4,van2,
248,,size_choice_confirmation,,html-keyboard-response,248,846256,0.0-1.0-351.0-0.0,0,0,3,,,,,,87.0,,,,,,,,,,,,,,,,,,,277.0,1.472,,,,,,,,,,,
249,,iti,,html-keyboard-response,249,846358,0.0-1.0-352.0,0,0,3,,,,,,,,,,,,,,,,,,,,,,,,,278.0,1.0,,,,,,,,,,,
250,,size_choice,,html-keyboard-response,250,846554,0.0-1.0-354.0,0,0,3,,195.0,,,51.0,88.0,88.0,2.0,1500.0,S-L,1.0,L,S,3.0,1.0,dishwasher,teabag,dishwasher5,teabag7,24.0,136.0,/static/Size_judgement/Stimuli/Size_stims/L/dishwasher/dishwasher4.jpg,/static/Size_judgement/Stimuli/Size_stims/S/teabag/teabag10.jpg,0.0,278.195,0.195,0.0,0.0,teabag,dishwasher,S,L,1.0,3.0,teabag7,dishwasher5,
251,,size_choice_confirmation,,html-keyboard-response,251,847863,0.0-1.0-355.0-0.0,0,0,3,,,,,,88.0,,,,,,,,,,,,,,,,,,,279.5,1.305,,,,,,,,,,,
252,,iti,,html-keyboard-response,252,847968,0.0-1.0-356.0,0,0,3,,,,,,,,,,,,,,,,,,,,,,,,,281.0,1.5,,,,,,,,,,,
253,,size_choice,,html-keyboard-response,253,848251,0.0-1.0-358.0,0,0,3,,282.0,,,51.0,89.0,89.0,2.0,1500.0,M-L,0.0,M,L,2.0,3.0,hairdryer,garbagecan,hairdryer7,garbagecan4,76.0,33.0,/static/Size_judgement/Stimuli/Size_stims/M/hairdryer/hairdryer3.jpg,/static/Size_judgement/Stimuli/Size_stims/L/garbagecan/garbagecan6.jpg,1.0,281.282,0.282,0.0,0.0,garbagecan,hairdryer,L,M,3.0,2.0,garbagecan4,hairdryer7,
254,,size_choice_confirmation,,html-keyboard-response,254,849472,0.0-1.0-359.0-0.0,0,0,3,,,,,,89.0,,,,,,,,,,,,,,,,,,,282.5,1.218,,,,,,,,,,,
255,,iti,,html-keyboard-response,255,849573,0.0-1.0-360.0,0,0,3,,,,,,,,,,,,,,,,,,,,,,,,,284.0,1.5,,,,,,,,,,,1.49
256,,size_final_tally,,html-keyboard-response,256,856266,0.0-2.0,0,0,3,,6692.0,,,50.0,,,,,,,,,,,,,,,,,,,,,,,,,,,,,,,,
257,,,,html-keyboard-response,257,859463,0.0-3.0,0,0,3,,3181.0,,,50.0,,,,,,,,,,,,,,,,,,,,,,,,,,,,,,,,
