,PID,view_history,rt,ttype,trial_type,trial_index,time_elapsed,internal_node_id,responses,repeat_instructions,key_press,index,trial_num,block,iti,pair_type,high_size_on_left,left_size_group,right_size_group,left_size_num,right_size_num,left_category,right_category,left_exemplar,right_exemplar,left_index,right_index,left_img_path,right_img_path,left_chosen,chosen_category,unchosen_category,chosen_size_group,unchosen_size_group,chosen_size_num,unchosen_size_num,chosen_exemplar,unchosen_exemplar,accuracy,onset,duration,size_final_tally
0,2,"[{""page_index"":0,""viewing_time"":1716},{""page_index"":1,""viewing_time"":433},{""page_index"":2,""viewing_time"":316},{""page_index"":3,""viewing_time"":400},{""page_index"":4,""viewing_time"":334},{""page_index"":5,""viewing_time"":400}]",3599,size_instructions,instructions,0,3602,0.0-0.0-0.0-0.0,,,,,,,,,,,,,,,,,,,,,,,,,,,,,,,,,,
1,2,,4531,size_comprehension_check,survey-multi-choice,1,8135,0.0-0.0-0.0-1.0,"{""Q0"":""True"",""Q1"":""Size on the screen"",""Q2"":""True"",""Q3"":""pointer finger for left and middle finger for right""}",1,,,,,,,,,,,,,,,,,,,,,,,,,,,,,,,,
2,2,,1125,,html-keyboard-response,2,9262,0.0-0.0-1.0,,,50,,,,,,,,,,,,,,,,,,,,,,,,,,,,,,,
3,2,,419,size_choice,html-keyboard-response,3,9682,0.0-0.0-2.0,,,50,0,0,1,1000,L-L,,L,L,3,3,dishwasher,garbagecan,dishwasher9,garbagecan9,28,38,/static/Size_judgement/Stimuli/Size_stims/L/dishwasher/dishwasher2.jpg,/static/Size_judgement/Stimuli/Size_stims/L/garbagecan/garbagecan12.jpg,1,dishwasher,garbagecan,L,L,3,3,dishwasher9,garbagecan9,,0.419,0.419,
4,2,,,size_choice_confirmation,html-keyboard-response,4,10769,0.0-0.0-3.0-0.0,,,,0,,,,,,,,,,,,,,,,,,,,,,,,,,,,1.5,1.081,
5,2,,,iti,html-keyboard-response,5,11773,0.0-0.0-4.0,,,,,,,,,,,,,,,,,,,,,,,,,,,,,,,,2.5,1,
6,2,,197,size_choice,html-keyboard-response,6,11971,0.0-0.0-6.0,,,51,1,1,1,1000,M-M,,M,M,2,2,handsaw,hairdryer,handsaw1,hairdryer2,80,71,/static/Size_judgement/Stimuli/Size_stims/M/handsaw/handsaw8.jpg,/static/Size_judgement/Stimuli/Size_stims/M/hairdryer/hairdryer12.jpg,0,hairdryer,handsaw,M,M,2,2,hairdryer2,handsaw1,,2.697,0.197,
7,2,,,size_choice_confirmation,html-keyboard-response,7,13278,0.0-0.0-7.0-0.0,,,,1,,,,,,,,,,,,,,,,,,,,,,,,,,,,4,1.303,
8,2,,,iti,html-keyboard-response,8,14283,0.0-0.0-8.0,,,,,,,,,,,,,,,,,,,,,,,,,,,,,,,,5,1,
9,2,,,size_choice,html-keyboard-response,9,15788,0.0-0.0-10.0,,,,2,2,1,1500,S-XL,0,S,XL,1,4,teabag,dumptruck,teabag7,dumptruck8,136,177,/static/Size_judgement/Stimuli/Size_stims/S/teabag/teabag10.jpg,/static/Size_judgement/Stimuli/Size_stims/XL/dumptruck/dumptruck7.jpg,,,,,,,,,,,6.5,1.5,
10,2,,,iti,html-keyboard-response,10,16289,0.0-0.0-12.0,,,,,,,,,,,,,,,,,,,,,,,,,,,,,,,,7,0.5,
11,2,,,size_choice,html-keyboard-response,11,17794,0.0-0.0-14.0,,,,3,3,1,2000,S-M,1,M,S,2,1,hairdryer,screws,hairdryer5,screws5,74,124,/static/Size_judgement/Stimuli/Size_stims/M/hairdryer/hairdryer15.jpg,/static/Size_judgement/Stimuli/Size_stims/S/screws/screws2.jpg,,,,,,,,,,,8.5,1.5,
12,2,,,iti,html-keyboard-response,12,18797,0.0-0.0-16.0,,,,,,,,,,,,,,,,,,,,,,,,,,,,,,,,9.5,1,
13,2,,,size_choice,html-keyboard-response,13,20301,0.0-0.0-18.0,,,,4,4,1,3500,S-XL,0,S,XL,1,4,teabag,car,teabag4,car9,133,158,/static/Size_judgement/Stimuli/Size_stims/S/teabag/teabag3.jpg,/static/Size_judgement/Stimuli/Size_stims/XL/car/car15.jpg,,,,,,,,,,,11,1.5,
14,2,,,iti,html-keyboard-response,14,22806,0.0-0.0-20.0,,,,,,,,,,,,,,,,,,,,,,,,,,,,,,,,13.5,2.5,
15,2,,,size_choice,html-keyboard-response,15,24311,0.0-0.0-22.0,,,,5,5,1,1500,M-L,1,L,M,3,2,cooler,handsaw,cooler10,handsaw7,9,86,/static/Size_judgement/Stimuli/Size_stims/L/cooler/cooler6.jpg,/static/Size_judgement/Stimuli/Size_stims/M/handsaw/handsaw5.jpg,,,,,,,,,,,15,1.5,
16,2,,,iti,html-keyboard-response,16,24817,0.0-0.0-24.0,,,,,,,,,,,,,,,,,,,,,,,,,,,,,,,,15.5,0.5,
17,2,,,size_choice,html-keyboard-response,17,26322,0.0-0.0-26.0,,,,6,6,1,2000,M-XL,0,M,XL,2,4,basketball,crane,basketball10,crane9,59,168,/static/Size_judgement/Stimuli/Size_stims/M/basketball/basketball4.jpg,/static/Size_judgement/Stimuli/Size_stims/XL/crane/crane8.jpg,,,,,,,,,,,17,1.5,
18,2,,,iti,html-keyboard-response,18,27324,0.0-0.0-28.0,,,,,,,,,,,,,,,,,,,,,,,,,,,,,,,,18,1,
19,2,,,size_choice,html-keyboard-response,19,28828,0.0-0.0-30.0,,,,7,7,1,3000,M-XL,0,M,XL,2,4,hairdryer,dumptruck,hairdryer7,dumptruck6,76,175,/static/Size_judgement/Stimuli/Size_stims/M/hairdryer/hairdryer3.jpg,/static/Size_judgement/Stimuli/Size_stims/XL/dumptruck/dumptruck2.jpg,,,,,,,,,,,19.5,1.5,
20,2,,,iti,html-keyboard-response,20,30833,0.0-0.0-32.0,,,,,,,,,,,,,,,,,,,,,,,,,,,,,,,,21.5,2,
21,2,,,size_choice,html-keyboard-response,21,32337,0.0-0.0-34.0,,,,8,8,1,2000,XL-XL,,XL,XL,4,4,van,crane,van2,crane8,191,167,/static/Size_judgement/Stimuli/Size_stims/XL/van/van4.jpg,/static/Size_judgement/Stimuli/Size_stims/XL/crane/crane10.jpg,,,,,,,,,,,23,1.5,
22,2,,,iti,html-keyboard-response,22,33340,0.0-0.0-36.0,,,,,,,,,,,,,,,,,,,,,,,,,,,,,,,,24,1,
23,2,,,size_choice,html-keyboard-response,23,34844,0.0-0.0-38.0,,,,9,9,1,2000,L-L,,L,L,3,3,dishwasher,cooler,dishwasher7,cooler8,26,7,/static/Size_judgement/Stimuli/Size_stims/L/dishwasher/dishwasher7.jpg,/static/Size_judgement/Stimuli/Size_stims/L/cooler/cooler5.jpg,,,,,,,,,,,25.5,1.5,
24,2,,,iti,html-keyboard-response,24,35849,0.0-0.0-40.0,,,,,,,,,,,,,,,,,,,,,,,,,,,,,,,,26.5,1,
25,2,,,size_choice,html-keyboard-response,25,37351,0.0-0.0-42.0,,,,10,10,1,1000,M-L,1,L,M,3,2,garbagecan,basketball,garbagecan4,basketball4,33,53,/static/Size_judgement/Stimuli/Size_stims/L/garbagecan/garbagecan6.jpg,/static/Size_judgement/Stimuli/Size_stims/M/basketball/basketball1.jpg,,,,,,,,,,,28,1.5,
26,2,,,iti,html-keyboard-response,26,37356,0.0-0.0-44.0,,,,,,,,,,,,,,,,,,,,,,,,,,,,,,,,28,0,
27,2,,,size_choice,html-keyboard-response,27,38860,0.0-0.0-46.0,,,,11,11,1,1000,S-L,1,L,S,3,1,dishwasher,screws,dishwasher8,screws8,27,127,/static/Size_judgement/Stimuli/Size_stims/L/dishwasher/dishwasher3.jpg,/static/Size_judgement/Stimuli/Size_stims/S/screws/screws10.jpg,,,,,,,,,,,29.5,1.5,
28,2,,,iti,html-keyboard-response,28,38865,0.0-0.0-48.0,,,,,,,,,,,,,,,,,,,,,,,,,,,,,,,,29.5,0,
29,2,,,size_choice,html-keyboard-response,29,40368,0.0-0.0-50.0,,,,12,12,1,1000,L-XL,1,XL,L,4,3,tractor,deskchair,tractor6,deskchair5,185,14,/static/Size_judgement/Stimuli/Size_stims/XL/tractor/tractor3.jpg,/static/Size_judgement/Stimuli/Size_stims/L/deskchair/deskchair7.jpg,,,,,,,,,,,31,1.5,
30,2,,,iti,html-keyboard-response,30,40374,0.0-0.0-52.0,,,,,,,,,,,,,,,,,,,,,,,,,,,,,,,,31,0,
31,2,,,size_choice,html-keyboard-response,31,41876,0.0-0.0-54.0,,,,13,13,1,1000,S-S,,S,S,1,1,thread,die,thread10,die1,149,100,/static/Size_judgement/Stimuli/Size_stims/S/thread/thread9.jpg,/static/Size_judgement/Stimuli/Size_stims/S/die/die8.jpg,,,,,,,,,,,32.5,1.5,
32,2,,,iti,html-keyboard-response,32,41880,0.0-0.0-56.0,,,,,,,,,,,,,,,,,,,,,,,,,,,,,,,,32.5,0,
33,2,,,size_choice,html-keyboard-response,33,43382,0.0-0.0-58.0,,,,14,14,1,1000,M-XL,0,M,XL,2,4,coffeemaker,tractor,coffeemaker4,tractor4,63,183,/static/Size_judgement/Stimuli/Size_stims/M/coffeemaker/coffeemaker11.jpg,/static/Size_judgement/Stimuli/Size_stims/XL/tractor/tractor4.jpg,,,,,,,,,,,34,1.5,
34,2,,,iti,html-keyboard-response,34,43387,0.0-0.0-60.0,,,,,,,,,,,,,,,,,,,,,,,,,,,,,,,,34,0,
35,2,,,size_choice,html-keyboard-response,35,44888,0.0-0.0-62.0,,,,15,15,1,3500,M-XL,0,M,XL,2,4,handsaw,van,handsaw5,van10,84,199,/static/Size_judgement/Stimuli/Size_stims/M/handsaw/handsaw1.jpg,/static/Size_judgement/Stimuli/Size_stims/XL/van/van8.jpg,,,,,,,,,,,35.5,1.5,
36,2,,,iti,html-keyboard-response,36,47393,0.0-0.0-64.0,,,,,,,,,,,,,,,,,,,,,,,,,,,,,,,,38,2.5,
37,2,,,size_choice,html-keyboard-response,37,48897,0.0-0.0-66.0,,,,16,16,1,1500,XL-XL,,XL,XL,4,4,dumptruck,car,dumptruck2,car6,171,155,/static/Size_judgement/Stimuli/Size_stims/XL/dumptruck/dumptruck8.jpg,/static/Size_judgement/Stimuli/Size_stims/XL/car/car12.jpg,,,,,,,,,,,39.5,1.5,
38,2,,,iti,html-keyboard-response,38,49402,0.0-0.0-68.0,,,,,,,,,,,,,,,,,,,,,,,,,,,,,,,,40,0.5,
39,2,,,size_choice,html-keyboard-response,39,50908,0.0-0.0-70.0,,,,17,17,1,1500,S-XL,1,XL,S,4,1,van,screws,van1,screws6,190,125,/static/Size_judgement/Stimuli/Size_stims/XL/van/van5.jpg,/static/Size_judgement/Stimuli/Size_stims/S/screws/screws3.jpg,,,,,,,,,,,41.5,1.5,
40,2,,,iti,html-keyboard-response,40,51412,0.0-0.0-72.0,,,,,,,,,,,,,,,,,,,,,,,,,,,,,,,,42,0.5,
41,2,,,size_choice,html-keyboard-response,41,52913,0.0-0.0-74.0,,,,18,18,1,3500,M-XL,1,XL,M,4,2,car,basketball,car5,basketball8,154,57,/static/Size_judgement/Stimuli/Size_stims/XL/car/car11.jpg,/static/Size_judgement/Stimuli/Size_stims/M/basketball/basketball7.jpg,,,,,,,,,,,43.5,1.5,
42,2,,,iti,html-keyboard-response,42,55415,0.0-0.0-76.0,,,,,,,,,,,,,,,,,,,,,,,,,,,,,,,,46,2.5,
43,2,,,size_choice,html-keyboard-response,43,56919,0.0-0.0-78.0,,,,19,19,1,1500,S-L,1,L,S,3,1,cooler,thread,cooler7,thread7,6,146,/static/Size_judgement/Stimuli/Size_stims/L/cooler/cooler4.jpg,/static/Size_judgement/Stimuli/Size_stims/S/thread/thread3.jpg,,,,,,,,,,,47.5,1.5,
44,2,,,iti,html-keyboard-response,44,57420,0.0-0.0-80.0,,,,,,,,,,,,,,,,,,,,,,,,,,,,,,,,48,0.5,
45,2,,,size_choice,html-keyboard-response,45,58924,0.0-0.0-82.0,,,,20,20,1,1000,S-S,,S,S,1,1,paperclip,teabag,paperclip8,teabag9,117,138,/static/Size_judgement/Stimuli/Size_stims/S/paperclip/paperclip5.jpg,/static/Size_judgement/Stimuli/Size_stims/S/teabag/teabag5.jpg,,,,,,,,,,,49.5,1.5,
46,2,,,iti,html-keyboard-response,46,58929,0.0-0.0-84.0,,,,,,,,,,,,,,,,,,,,,,,,,,,,,,,,49.5,0,
47,2,,,size_choice,html-keyboard-response,47,60430,0.0-0.0-86.0,,,,21,21,1,1000,S-S,,S,S,1,1,die,paperclip,die6,paperclip6,105,115,/static/Size_judgement/Stimuli/Size_stims/S/die/die1.jpg,/static/Size_judgement/Stimuli/Size_stims/S/paperclip/paperclip6.jpg,,,,,,,,,,,51,1.5,
48,2,,,iti,html-keyboard-response,48,60435,0.0-0.0-88.0,,,,,,,,,,,,,,,,,,,,,,,,,,,,,,,,51,0,
49,2,,,size_choice,html-keyboard-response,49,61937,0.0-0.0-90.0,,,,22,22,1,1000,L-XL,0,L,XL,3,4,dishwasher,dumptruck,dishwasher3,dumptruck3,22,172,/static/Size_judgement/Stimuli/Size_stims/L/dishwasher/dishwasher8.jpg,/static/Size_judgement/Stimuli/Size_stims/XL/dumptruck/dumptruck10.jpg,,,,,,,,,,,52.5,1.5,
50,2,,,iti,html-keyboard-response,50,61943,0.0-0.0-92.0,,,,,,,,,,,,,,,,,,,,,,,,,,,,,,,,52.5,0,
51,2,,,size_choice,html-keyboard-response,51,63443,0.0-0.0-94.0,,,,23,23,1,3000,M-M,,M,M,2,2,handsaw,hairdryer,handsaw8,hairdryer3,87,72,/static/Size_judgement/Stimuli/Size_stims/M/handsaw/handsaw7.jpg,/static/Size_judgement/Stimuli/Size_stims/M/hairdryer/hairdryer17.jpg,,,,,,,,,,,54,1.5,
52,2,,,iti,html-keyboard-response,52,65446,0.0-0.0-96.0,,,,,,,,,,,,,,,,,,,,,,,,,,,,,,,,56,2,
53,2,,,size_choice,html-keyboard-response,53,66950,0.0-0.0-98.0,,,,24,24,1,1000,S-M,1,M,S,2,1,basketball,paperclip,basketball2,paperclip10,51,119,/static/Size_judgement/Stimuli/Size_stims/M/basketball/basketball8.jpg,/static/Size_judgement/Stimuli/Size_stims/S/paperclip/paperclip10.jpg,,,,,,,,,,,57.5,1.5,
54,2,,,iti,html-keyboard-response,54,66956,0.0-0.0-100.0,,,,,,,,,,,,,,,,,,,,,,,,,,,,,,,,57.5,0,
55,2,,,size_choice,html-keyboard-response,55,68457,0.0-0.0-102.0,,,,25,25,1,2000,S-L,1,L,S,3,1,dishwasher,paperclip,dishwasher10,paperclip9,29,118,/static/Size_judgement/Stimuli/Size_stims/L/dishwasher/dishwasher1.jpg,/static/Size_judgement/Stimuli/Size_stims/S/paperclip/paperclip4.jpg,,,,,,,,,,,59,1.5,
56,2,,,iti,html-keyboard-response,56,69461,0.0-0.0-104.0,,,,,,,,,,,,,,,,,,,,,,,,,,,,,,,,60,1,
57,2,,236,size_choice,html-keyboard-response,57,69698,0.0-0.0-106.0,,,50,26,26,1,3000,S-L,1,L,S,3,1,deskchair,thread,deskchair10,thread2,19,141,/static/Size_judgement/Stimuli/Size_stims/L/deskchair/deskchair2.jpg,/static/Size_judgement/Stimuli/Size_stims/S/thread/thread6.jpg,1,deskchair,thread,L,S,3,1,deskchair10,thread2,1,60.236,0.236,
58,2,,,size_choice_confirmation,html-keyboard-response,58,70966,0.0-0.0-107.0-0.0,,,,26,,,,,,,,,,,,,,,,,,,,,,,,,,,,61.5,1.264,
59,2,,,iti,html-keyboard-response,59,73969,0.0-0.0-108.0,,,,,,,,,,,,,,,,,,,,,,,,,,,,,,,,64.5,3,
60,2,,355,size_choice,html-keyboard-response,60,74324,0.0-0.0-110.0,,,50,27,27,1,1000,L-L,,L,L,3,3,mailbox,garbagecan,mailbox5,garbagecan8,44,37,/static/Size_judgement/Stimuli/Size_stims/L/mailbox/mailbox4.jpg,/static/Size_judgement/Stimuli/Size_stims/L/garbagecan/garbagecan13.jpg,1,mailbox,garbagecan,L,L,3,3,mailbox5,garbagecan8,,64.855,0.355,
61,2,,,size_choice_confirmation,html-keyboard-response,61,75473,0.0-0.0-111.0-0.0,,,,27,,,,,,,,,,,,,,,,,,,,,,,,,,,,66,1.145,
62,2,,,iti,html-keyboard-response,62,76476,0.0-0.0-112.0,,,,,,,,,,,,,,,,,,,,,,,,,,,,,,,,67,1,
63,2,,419,size_choice,html-keyboard-response,63,76895,0.0-0.0-114.0,,,51,28,28,1,2000,M-L,0,M,L,2,3,ketchup,mailbox,ketchup2,mailbox9,91,48,/static/Size_judgement/Stimuli/Size_stims/M/ketchup/ketchup9.jpg,/static/Size_judgement/Stimuli/Size_stims/L/mailbox/mailbox9.jpg,0,mailbox,ketchup,L,M,3,2,mailbox9,ketchup2,1,67.419,0.419,
64,2,,,size_choice_confirmation,html-keyboard-response,64,77980,0.0-0.0-115.0-0.0,,,,28,,,,,,,,,,,,,,,,,,,,,,,,,,,,68.5,1.081,
65,2,,,iti,html-keyboard-response,65,79985,0.0-0.0-116.0,,,,,,,,,,,,,,,,,,,,,,,,,,,,,,,,70.5,2,
66,2,,746,size_choice,html-keyboard-response,66,80731,0.0-0.0-118.0,,,50,29,29,1,1000,S-XL,0,S,XL,1,4,die,dumptruck,die5,dumptruck9,104,178,/static/Size_judgement/Stimuli/Size_stims/S/die/die3.jpg,/static/Size_judgement/Stimuli/Size_stims/XL/dumptruck/dumptruck5.jpg,1,die,dumptruck,S,XL,1,4,die5,dumptruck9,0,71.246,0.746,
67,2,,,size_choice_confirmation,html-keyboard-response,67,81489,0.0-0.0-119.0-0.0,,,,29,,,,,,,,,,,,,,,,,,,,,,,,,,,,72,0.754,
68,2,,,iti,html-keyboard-response,68,82492,0.0-0.0-120.0,,,,,,,,,,,,,,,,,,,,,,,,,,,,,,,,73,1,
69,2,,272,size_choice,html-keyboard-response,69,82764,0.0-0.0-122.0,,,50,30,30,1,1000,S-XL,1,XL,S,4,1,tractor,die,tractor7,die2,186,101,/static/Size_judgement/Stimuli/Size_stims/XL/tractor/tractor2.jpg,/static/Size_judgement/Stimuli/Size_stims/S/die/die9.jpg,1,tractor,die,XL,S,4,1,tractor7,die2,1,73.272,0.272,
70,2,,,size_choice_confirmation,html-keyboard-response,70,83996,0.0-0.0-123.0-0.0,,,,30,,,,,,,,,,,,,,,,,,,,,,,,,,,,74.5,1.228,
71,2,,,iti,html-keyboard-response,71,85000,0.0-0.0-124.0,,,,,,,,,,,,,,,,,,,,,,,,,,,,,,,,75.5,1,
72,2,,,size_choice,html-keyboard-response,72,86504,0.0-0.0-126.0,,,,31,31,1,1500,S-L,1,L,S,3,1,garbagecan,thread,garbagecan2,thread9,31,148,/static/Size_judgement/Stimuli/Size_stims/L/garbagecan/garbagecan5.jpg,/static/Size_judgement/Stimuli/Size_stims/S/thread/thread8.jpg,,,,,,,,,,,77,1.5,
73,2,,,iti,html-keyboard-response,73,87009,0.0-0.0-128.0,,,,,,,,,,,,,,,,,,,,,,,,,,,,,,,,77.5,0.5,
74,2,,646,size_choice,html-keyboard-response,74,87655,0.0-0.0-130.0,,,51,32,32,1,2000,M-L,0,M,L,2,3,handsaw,deskchair,handsaw9,deskchair2,88,11,/static/Size_judgement/Stimuli/Size_stims/M/handsaw/handsaw6.jpg,/static/Size_judgement/Stimuli/Size_stims/L/deskchair/deskchair8.jpg,0,deskchair,handsaw,L,M,3,2,deskchair2,handsaw9,1,78.146,0.646,
75,2,,,size_choice_confirmation,html-keyboard-response,75,88515,0.0-0.0-131.0-0.0,,,,32,,,,,,,,,,,,,,,,,,,,,,,,,,,,79,0.854,
76,2,,,iti,html-keyboard-response,76,90518,0.0-0.0-132.0,,,,,,,,,,,,,,,,,,,,,,,,,,,,,,,,81,2,
77,2,,,size_choice,html-keyboard-response,77,92022,0.0-0.0-134.0,,,,33,33,1,1000,S-L,1,L,S,3,1,garbagecan,teabag,garbagecan3,teabag8,32,137,/static/Size_judgement/Stimuli/Size_stims/L/garbagecan/garbagecan7.jpg,/static/Size_judgement/Stimuli/Size_stims/S/teabag/teabag7.jpg,,,,,,,,,,,82.5,1.5,
78,2,,,iti,html-keyboard-response,78,92024,0.0-0.0-136.0,,,,,,,,,,,,,,,,,,,,,,,,,,,,,,,,82.5,0,
79,2,,204,size_choice,html-keyboard-response,79,92229,0.0-0.0-138.0,,,51,34,34,1,1000,M-L,0,M,L,2,3,handsaw,dishwasher,handsaw2,dishwasher4,81,23,/static/Size_judgement/Stimuli/Size_stims/M/handsaw/handsaw9.jpg,/static/Size_judgement/Stimuli/Size_stims/L/dishwasher/dishwasher5.jpg,0,dishwasher,handsaw,L,M,3,2,dishwasher4,handsaw2,1,82.704,0.204,
80,2,,,size_choice_confirmation,html-keyboard-response,80,93530,0.0-0.0-139.0-0.0,,,,34,,,,,,,,,,,,,,,,,,,,,,,,,,,,84,1.296,
81,2,,,iti,html-keyboard-response,81,94534,0.0-0.0-140.0,,,,,,,,,,,,,,,,,,,,,,,,,,,,,,,,85,1,
82,2,,1283,size_choice,html-keyboard-response,82,95817,0.0-0.0-142.0,,,51,35,35,1,1500,M-L,1,L,M,3,2,dishwasher,ketchup,dishwasher1,ketchup4,20,93,/static/Size_judgement/Stimuli/Size_stims/L/dishwasher/dishwasher10.jpg,/static/Size_judgement/Stimuli/Size_stims/M/ketchup/ketchup2.jpg,0,ketchup,dishwasher,M,L,2,3,ketchup4,dishwasher1,0,86.283,1.283,
83,2,,,size_choice_confirmation,html-keyboard-response,83,96035,0.0-0.0-143.0-0.0,,,,35,,,,,,,,,,,,,,,,,,,,,,,,,,,,86.5,0.217,
84,2,,,iti,html-keyboard-response,84,97537,0.0-0.0-144.0,,,,,,,,,,,,,,,,,,,,,,,,,,,,,,,,88,1.5,
85,2,,,size_choice,html-keyboard-response,85,99038,0.0-0.0-146.0,,,,36,36,1,1500,M-L,0,M,L,2,3,hairdryer,cooler,hairdryer6,cooler3,75,2,/static/Size_judgement/Stimuli/Size_stims/M/hairdryer/hairdryer8.jpg,/static/Size_judgement/Stimuli/Size_stims/L/cooler/cooler2.jpg,,,,,,,,,,,89.5,1.5,
86,2,,,iti,html-keyboard-response,86,99539,0.0-0.0-148.0,,,,,,,,,,,,,,,,,,,,,,,,,,,,,,,,90,0.5,
87,2,,564,size_choice,html-keyboard-response,87,100103,0.0-0.0-150.0,,,51,37,37,1,1000,S-XL,1,XL,S,4,1,car,teabag,car4,teabag10,153,139,/static/Size_judgement/Stimuli/Size_stims/XL/car/car6.jpg,/static/Size_judgement/Stimuli/Size_stims/S/teabag/teabag4.jpg,0,teabag,car,S,XL,1,4,teabag10,car4,0,90.564,0.564,
88,2,,,size_choice_confirmation,html-keyboard-response,88,101045,0.0-0.0-151.0-0.0,,,,37,,,,,,,,,,,,,,,,,,,,,,,,,,,,91.5,0.936,
89,2,,,iti,html-keyboard-response,89,102049,0.0-0.0-152.0,,,,,,,,,,,,,,,,,,,,,,,,,,,,,,,,92.5,1,
90,2,,351,size_choice,html-keyboard-response,90,102400,0.0-0.0-154.0,,,51,38,38,1,1500,M-XL,1,XL,M,4,2,tractor,handsaw,tractor8,handsaw10,187,89,/static/Size_judgement/Stimuli/Size_stims/XL/tractor/tractor10.jpg,/static/Size_judgement/Stimuli/Size_stims/M/handsaw/handsaw10.jpg,0,handsaw,tractor,M,XL,2,4,handsaw10,tractor8,0,92.851,0.351,
91,2,,,size_choice_confirmation,html-keyboard-response,91,103553,0.0-0.0-155.0-0.0,,,,38,,,,,,,,,,,,,,,,,,,,,,,,,,,,94,1.149,
92,2,,,iti,html-keyboard-response,92,105057,0.0-0.0-156.0,,,,,,,,,,,,,,,,,,,,,,,,,,,,,,,,95.5,1.5,
93,2,,,size_choice,html-keyboard-response,93,106561,0.0-0.0-158.0,,,,39,39,1,1500,S-M,1,M,S,2,1,basketball,screws,basketball6,screws9,55,128,/static/Size_judgement/Stimuli/Size_stims/M/basketball/basketball2.jpg,/static/Size_judgement/Stimuli/Size_stims/S/screws/screws8.jpg,,,,,,,,,,,97,1.5,
94,2,,,iti,html-keyboard-response,94,107062,0.0-0.0-160.0,,,,,,,,,,,,,,,,,,,,,,,,,,,,,,,,97.5,0.5,
95,2,,632,size_choice,html-keyboard-response,95,107695,0.0-0.0-162.0,,,50,40,40,1,1000,M-XL,0,M,XL,2,4,hairdryer,dumptruck,hairdryer1,dumptruck5,70,174,/static/Size_judgement/Stimuli/Size_stims/M/hairdryer/hairdryer11.jpg,/static/Size_judgement/Stimuli/Size_stims/XL/dumptruck/dumptruck3.jpg,1,hairdryer,dumptruck,M,XL,2,4,hairdryer1,dumptruck5,0,98.132,0.632,
96,2,,,size_choice_confirmation,html-keyboard-response,96,108566,0.0-0.0-163.0-0.0,,,,40,,,,,,,,,,,,,,,,,,,,,,,,,,,,99,0.868,
97,2,,,iti,html-keyboard-response,97,109571,0.0-0.0-164.0,,,,,,,,,,,,,,,,,,,,,,,,,,,,,,,,100,1,
98,2,,574,size_choice,html-keyboard-response,98,110145,0.0-0.0-166.0,,,50,41,41,1,1500,S-L,0,S,L,1,3,paperclip,mailbox,paperclip2,mailbox7,111,46,/static/Size_judgement/Stimuli/Size_stims/S/paperclip/paperclip8.jpg,/static/Size_judgement/Stimuli/Size_stims/L/mailbox/mailbox7.jpg,1,paperclip,mailbox,S,L,1,3,paperclip2,mailbox7,0,100.574,0.574,
99,2,,,size_choice_confirmation,html-keyboard-response,99,111073,0.0-0.0-167.0-0.0,,,,41,,,,,,,,,,,,,,,,,,,,,,,,,,,,101.5,0.926,
100,2,,,iti,html-keyboard-response,100,112577,0.0-0.0-168.0,,,,,,,,,,,,,,,,,,,,,,,,,,,,,,,,103,1.5,
101,2,,1133,size_choice,html-keyboard-response,101,113710,0.0-0.0-170.0,,,50,42,42,1,2000,S-XL,0,S,XL,1,4,thread,dumptruck,thread8,dumptruck10,147,179,/static/Size_judgement/Stimuli/Size_stims/S/thread/thread10.jpg,/static/Size_judgement/Stimuli/Size_stims/XL/dumptruck/dumptruck4.jpg,1,thread,dumptruck,S,XL,1,4,thread8,dumptruck10,0,104.133,1.133,
102,2,,,size_choice_confirmation,html-keyboard-response,102,114080,0.0-0.0-171.0-0.0,,,,42,,,,,,,,,,,,,,,,,,,,,,,,,,,,104.5,0.367,
103,2,,,iti,html-keyboard-response,103,116086,0.0-0.0-172.0,,,,,,,,,,,,,,,,,,,,,,,,,,,,,,,,106.5,2,
104,2,,1497,size_choice,html-keyboard-response,104,117583,0.0-0.0-174.0,,,51,43,43,1,3000,L-XL,0,L,XL,3,4,cooler,tractor,cooler1,tractor10,0,189,/static/Size_judgement/Stimuli/Size_stims/L/cooler/cooler8.jpg,/static/Size_judgement/Stimuli/Size_stims/XL/tractor/tractor8.jpg,0,tractor,cooler,XL,L,4,3,tractor10,cooler1,1,107.997,1.497,
105,2,,,size_choice_confirmation,html-keyboard-response,105,117587,0.0-0.0-175.0-0.0,,,,43,,,,,,,,,,,,,,,,,,,,,,,,,,,,108,0.003,
106,2,,,iti,html-keyboard-response,106,120593,0.0-0.0-176.0,,,,,,,,,,,,,,,,,,,,,,,,,,,,,,,,111,3,
107,2,,,size_choice,html-keyboard-response,107,122097,0.0-0.0-178.0,,,,44,44,1,1500,M-M,,M,M,2,2,hairdryer,coffeemaker,hairdryer10,coffeemaker1,79,60,/static/Size_judgement/Stimuli/Size_stims/M/hairdryer/hairdryer6.jpg,/static/Size_judgement/Stimuli/Size_stims/M/coffeemaker/coffeemaker14.jpg,,,,,,,,,,,112.5,1.5,
108,2,,,iti,html-keyboard-response,108,122602,0.0-0.0-180.0,,,,,,,,,,,,,,,,,,,,,,,,,,,,,,,,113,0.5,
109,2,,644,block_over,html-keyboard-response,109,123246,0.0-0.0-181.0-0.0,,,50,44,,,,,,,,,,,,,,,,,,,,,,,,,,,,,,
110,2,,,size_choice,html-keyboard-response,110,124748,0.0-0.0-182.0,,,,45,45,2,3500,L-XL,0,L,XL,3,4,cooler,car,cooler4,car3,3,152,/static/Size_judgement/Stimuli/Size_stims/L/cooler/cooler3.jpg,/static/Size_judgement/Stimuli/Size_stims/XL/car/car4.jpg,,,,,,,,,,,114.5,1.5,
111,2,,,iti,html-keyboard-response,111,127248,0.0-0.0-184.0,,,,,,,,,,,,,,,,,,,,,,,,,,,,,,,,117,2.5,
112,2,,779,size_choice,html-keyboard-response,112,128028,0.0-0.0-186.0,,,51,46,46,2,2000,L-L,,L,L,3,3,deskchair,cooler,deskchair8,cooler2,17,1,/static/Size_judgement/Stimuli/Size_stims/L/deskchair/deskchair1.jpg,/static/Size_judgement/Stimuli/Size_stims/L/cooler/cooler9.jpg,0,cooler,deskchair,L,L,3,3,cooler2,deskchair8,,117.779,0.779,
113,2,,,size_choice_confirmation,html-keyboard-response,113,128755,0.0-0.0-187.0-0.0,,,,46,,,,,,,,,,,,,,,,,,,,,,,,,,,,118.5,0.721,
114,2,,,iti,html-keyboard-response,114,130758,0.0-0.0-188.0,,,,,,,,,,,,,,,,,,,,,,,,,,,,,,,,120.5,2,
115,2,,37,size_choice,html-keyboard-response,115,130795,0.0-0.0-190.0,,,50,47,47,2,1500,M-L,0,M,L,2,3,basketball,cooler,basketball3,cooler9,52,8,/static/Size_judgement/Stimuli/Size_stims/M/basketball/basketball10.jpg,/static/Size_judgement/Stimuli/Size_stims/L/cooler/cooler7.jpg,1,basketball,cooler,M,L,2,3,basketball3,cooler9,0,120.537,0.037,
116,2,,,size_choice_confirmation,html-keyboard-response,116,132262,0.0-0.0-191.0-0.0,,,,47,,,,,,,,,,,,,,,,,,,,,,,,,,,,122,1.463,
117,2,,,iti,html-keyboard-response,117,133766,0.0-0.0-192.0,,,,,,,,,,,,,,,,,,,,,,,,,,,,,,,,123.5,1.5,
118,2,,,size_choice,html-keyboard-response,118,135270,0.0-0.0-194.0,,,,48,48,2,1000,M-XL,1,XL,M,4,2,car,ketchup,car8,ketchup5,157,94,/static/Size_judgement/Stimuli/Size_stims/XL/car/car14.jpg,/static/Size_judgement/Stimuli/Size_stims/M/ketchup/ketchup3.jpg,,,,,,,,,,,125,1.5,
119,2,,,iti,html-keyboard-response,119,135271,0.0-0.0-196.0,,,,,,,,,,,,,,,,,,,,,,,,,,,,,,,,125,0,
120,2,,,size_choice,html-keyboard-response,120,136774,0.0-0.0-198.0,,,,49,49,2,1000,S-S,,S,S,1,1,die,thread,die3,thread6,102,145,/static/Size_judgement/Stimuli/Size_stims/S/die/die10.jpg,/static/Size_judgement/Stimuli/Size_stims/S/thread/thread2.jpg,,,,,,,,,,,126.5,1.5,
121,2,,,iti,html-keyboard-response,121,136779,0.0-0.0-200.0,,,,,,,,,,,,,,,,,,,,,,,,,,,,,,,,126.5,0,
122,2,,,size_choice,html-keyboard-response,122,138283,0.0-0.0-202.0,,,,50,50,2,2000,S-XL,0,S,XL,1,4,thread,car,thread3,car10,142,159,/static/Size_judgement/Stimuli/Size_stims/S/thread/thread4.jpg,/static/Size_judgement/Stimuli/Size_stims/XL/car/car9.jpg,,,,,,,,,,,128,1.5,
123,2,,,iti,html-keyboard-response,123,139286,0.0-0.0-204.0,,,,,,,,,,,,,,,,,,,,,,,,,,,,,,,,129,1,
124,2,,584,size_choice,html-keyboard-response,124,139870,0.0-0.0-206.0,,,51,51,51,2,2000,M-M,,M,M,2,2,ketchup,basketball,ketchup9,basketball9,98,58,/static/Size_judgement/Stimuli/Size_stims/M/ketchup/ketchup7.jpg,/static/Size_judgement/Stimuli/Size_stims/M/basketball/basketball5.jpg,0,basketball,ketchup,M,M,2,2,basketball9,ketchup9,,129.584,0.584,
125,2,,,size_choice_confirmation,html-keyboard-response,125,140790,0.0-0.0-207.0-0.0,,,,51,,,,,,,,,,,,,,,,,,,,,,,,,,,,130.5,0.916,
126,2,,,iti,html-keyboard-response,126,142795,0.0-0.0-208.0,,,,,,,,,,,,,,,,,,,,,,,,,,,,,,,,132.5,2,
127,2,,1211,size_choice,html-keyboard-response,127,144007,0.0-0.0-210.0,,,51,52,52,2,1500,S-M,0,S,M,1,2,thread,ketchup,thread4,ketchup7,143,96,/static/Size_judgement/Stimuli/Size_stims/S/thread/thread5.jpg,/static/Size_judgement/Stimuli/Size_stims/M/ketchup/ketchup4.jpg,0,ketchup,thread,M,S,2,1,ketchup7,thread4,1,133.711,1.211,
128,2,,,size_choice_confirmation,html-keyboard-response,128,144301,0.0-0.0-211.0-0.0,,,,52,,,,,,,,,,,,,,,,,,,,,,,,,,,,134,0.289,
129,2,,,iti,html-keyboard-response,129,145803,0.0-0.0-212.0,,,,,,,,,,,,,,,,,,,,,,,,,,,,,,,,135.5,1.5,
130,2,,,size_choice,html-keyboard-response,130,147307,0.0-0.0-214.0,,,,53,53,2,1500,M-XL,0,M,XL,2,4,ketchup,van,ketchup1,van8,90,197,/static/Size_judgement/Stimuli/Size_stims/M/ketchup/ketchup8.jpg,/static/Size_judgement/Stimuli/Size_stims/XL/van/van10.jpg,,,,,,,,,,,137,1.5,
131,2,,,iti,html-keyboard-response,131,147812,0.0-0.0-216.0,,,,,,,,,,,,,,,,,,,,,,,,,,,,,,,,137.5,0.5,
132,2,,804,size_choice,html-keyboard-response,132,148617,0.0-0.0-218.0,,,51,54,54,2,2000,XL-XL,,XL,XL,4,4,dumptruck,car,dumptruck1,car2,170,151,/static/Size_judgement/Stimuli/Size_stims/XL/dumptruck/dumptruck9.jpg,/static/Size_judgement/Stimuli/Size_stims/XL/car/car3.jpg,0,car,dumptruck,XL,XL,4,4,car2,dumptruck1,,138.304,0.804,
133,2,,,size_choice_confirmation,html-keyboard-response,133,149318,0.0-0.0-219.0-0.0,,,,54,,,,,,,,,,,,,,,,,,,,,,,,,,,,139,0.696,
134,2,,,iti,html-keyboard-response,134,151323,0.0-0.0-220.0,,,,,,,,,,,,,,,,,,,,,,,,,,,,,,,,141,2,
135,2,,1181,size_choice,html-keyboard-response,135,152504,0.0-0.0-222.0,,,51,55,55,2,1000,M-L,1,L,M,3,2,mailbox,coffeemaker,mailbox10,coffeemaker10,49,69,/static/Size_judgement/Stimuli/Size_stims/L/mailbox/mailbox8.jpg,/static/Size_judgement/Stimuli/Size_stims/M/coffeemaker/coffeemaker18.jpg,0,coffeemaker,mailbox,M,L,2,3,coffeemaker10,mailbox10,0,142.181,1.181,
136,2,,,size_choice_confirmation,html-keyboard-response,136,152827,0.0-0.0-223.0-0.0,,,,55,,,,,,,,,,,,,,,,,,,,,,,,,,,,142.5,0.319,
137,2,,,iti,html-keyboard-response,137,153829,0.0-0.0-224.0,,,,,,,,,,,,,,,,,,,,,,,,,,,,,,,,143.5,1,
138,2,,610,size_choice,html-keyboard-response,138,154440,0.0-0.0-226.0,,,50,56,56,2,1000,M-XL,0,M,XL,2,4,hairdryer,van,hairdryer4,van5,73,194,/static/Size_judgement/Stimuli/Size_stims/M/hairdryer/hairdryer16.jpg,/static/Size_judgement/Stimuli/Size_stims/XL/van/van3.jpg,1,hairdryer,van,M,XL,2,4,hairdryer4,van5,0,144.11,0.61,
139,2,,,size_choice_confirmation,html-keyboard-response,139,155334,0.0-0.0-227.0-0.0,,,,56,,,,,,,,,,,,,,,,,,,,,,,,,,,,145,0.89,
140,2,,,iti,html-keyboard-response,140,156336,0.0-0.0-228.0,,,,,,,,,,,,,,,,,,,,,,,,,,,,,,,,146,1,
141,2,,,size_choice,html-keyboard-response,141,157840,0.0-0.0-230.0,,,,57,57,2,1000,S-L,0,S,L,1,3,die,mailbox,die10,mailbox6,109,45,/static/Size_judgement/Stimuli/Size_stims/S/die/die6.jpg,/static/Size_judgement/Stimuli/Size_stims/L/mailbox/mailbox6.jpg,,,,,,,,,,,147.5,1.5,
142,2,,,iti,html-keyboard-response,142,157842,0.0-0.0-232.0,,,,,,,,,,,,,,,,,,,,,,,,,,,,,,,,147.5,0,
143,2,,160,size_choice,html-keyboard-response,143,158003,0.0-0.0-234.0,,,51,58,58,2,3000,M-XL,1,XL,M,4,2,crane,ketchup,crane6,ketchup6,165,95,/static/Size_judgement/Stimuli/Size_stims/XL/crane/crane2.jpg,/static/Size_judgement/Stimuli/Size_stims/M/ketchup/ketchup1.jpg,0,ketchup,crane,M,XL,2,4,ketchup6,crane6,0,147.66,0.16,
144,2,,,size_choice_confirmation,html-keyboard-response,144,159344,0.0-0.0-235.0-0.0,,,,58,,,,,,,,,,,,,,,,,,,,,,,,,,,,149,1.34,
145,2,,,iti,html-keyboard-response,145,162349,0.0-0.0-236.0,,,,,,,,,,,,,,,,,,,,,,,,,,,,,,,,152,3,
146,2,,,size_choice,html-keyboard-response,146,163853,0.0-0.0-238.0,,,,59,59,2,1500,S-XL,1,XL,S,4,1,van,teabag,van4,teabag3,193,132,/static/Size_judgement/Stimuli/Size_stims/XL/van/van7.jpg,/static/Size_judgement/Stimuli/Size_stims/S/teabag/teabag1.jpg,,,,,,,,,,,153.5,1.5,
147,2,,,iti,html-keyboard-response,147,164358,0.0-0.0-240.0,,,,,,,,,,,,,,,,,,,,,,,,,,,,,,,,154,0.5,
148,2,,638,size_choice,html-keyboard-response,148,164996,0.0-0.0-242.0,,,51,60,60,2,1500,S-L,0,S,L,1,3,paperclip,deskchair,paperclip4,deskchair3,113,12,/static/Size_judgement/Stimuli/Size_stims/S/paperclip/paperclip3.jpg,/static/Size_judgement/Stimuli/Size_stims/L/deskchair/deskchair10.jpg,0,deskchair,paperclip,L,S,3,1,deskchair3,paperclip4,1,154.638,0.638,
149,2,,,size_choice_confirmation,html-keyboard-response,149,165861,0.0-0.0-243.0-0.0,,,,60,,,,,,,,,,,,,,,,,,,,,,,,,,,,155.5,0.862,
150,2,,,iti,html-keyboard-response,150,167365,0.0-0.0-244.0,,,,,,,,,,,,,,,,,,,,,,,,,,,,,,,,157,1.5,
151,2,,137,size_choice,html-keyboard-response,151,167503,0.0-0.0-246.0,,,51,61,61,2,1000,L-L,,L,L,3,3,dishwasher,garbagecan,dishwasher5,garbagecan1,24,30,/static/Size_judgement/Stimuli/Size_stims/L/dishwasher/dishwasher4.jpg,/static/Size_judgement/Stimuli/Size_stims/L/garbagecan/garbagecan4.jpg,0,garbagecan,dishwasher,L,L,3,3,garbagecan1,dishwasher5,,157.137,0.137,
152,2,,,size_choice_confirmation,html-keyboard-response,152,168869,0.0-0.0-247.0-0.0,,,,61,,,,,,,,,,,,,,,,,,,,,,,,,,,,158.5,1.363,
153,2,,,iti,html-keyboard-response,153,169872,0.0-0.0-248.0,,,,,,,,,,,,,,,,,,,,,,,,,,,,,,,,159.5,1,
154,2,,119,size_choice,html-keyboard-response,154,169992,0.0-0.0-250.0,,,50,62,62,2,1000,M-L,0,M,L,2,3,ketchup,deskchair,ketchup3,deskchair7,92,16,/static/Size_judgement/Stimuli/Size_stims/M/ketchup/ketchup10.jpg,/static/Size_judgement/Stimuli/Size_stims/L/deskchair/deskchair4.jpg,1,ketchup,deskchair,M,L,2,3,ketchup3,deskchair7,0,159.619,0.119,
155,2,,,size_choice_confirmation,html-keyboard-response,155,171376,0.0-0.0-251.0-0.0,,,,62,,,,,,,,,,,,,,,,,,,,,,,,,,,,161,1.381,
156,2,,,iti,html-keyboard-response,156,172379,0.0-0.0-252.0,,,,,,,,,,,,,,,,,,,,,,,,,,,,,,,,162,1,
157,2,,891,size_choice,html-keyboard-response,157,173270,0.0-0.0-254.0,,,51,63,63,2,2000,S-M,0,S,M,1,2,teabag,coffeemaker,teabag2,coffeemaker3,131,62,/static/Size_judgement/Stimuli/Size_stims/S/teabag/teabag8.jpg,/static/Size_judgement/Stimuli/Size_stims/M/coffeemaker/coffeemaker13.jpg,0,coffeemaker,teabag,M,S,2,1,coffeemaker3,teabag2,1,162.891,0.891,
158,2,,,size_choice_confirmation,html-keyboard-response,158,173883,0.0-0.0-255.0-0.0,,,,63,,,,,,,,,,,,,,,,,,,,,,,,,,,,163.5,0.609,
159,2,,,iti,html-keyboard-response,159,175888,0.0-0.0-256.0,,,,,,,,,,,,,,,,,,,,,,,,,,,,,,,,165.5,2,
160,2,,590,size_choice,html-keyboard-response,160,176478,0.0-0.0-258.0,,,50,64,64,2,1000,M-L,0,M,L,2,3,coffeemaker,garbagecan,coffeemaker6,garbagecan10,65,39,/static/Size_judgement/Stimuli/Size_stims/M/coffeemaker/coffeemaker8.jpg,/static/Size_judgement/Stimuli/Size_stims/L/garbagecan/garbagecan11.jpg,1,coffeemaker,garbagecan,M,L,2,3,coffeemaker6,garbagecan10,0,166.09,0.59,
161,2,,,size_choice_confirmation,html-keyboard-response,161,177392,0.0-0.0-259.0-0.0,,,,64,,,,,,,,,,,,,,,,,,,,,,,,,,,,167,0.91,
162,2,,,iti,html-keyboard-response,162,178395,0.0-0.0-260.0,,,,,,,,,,,,,,,,,,,,,,,,,,,,,,,,168,1,
163,2,,990,size_choice,html-keyboard-response,163,179385,0.0-0.0-262.0,,,51,65,65,2,1000,S-XL,1,XL,S,4,1,crane,paperclip,crane1,paperclip3,160,112,/static/Size_judgement/Stimuli/Size_stims/XL/crane/crane7.jpg,/static/Size_judgement/Stimuli/Size_stims/S/paperclip/paperclip1.jpg,0,paperclip,crane,S,XL,1,4,paperclip3,crane1,0,168.99,0.99,
164,2,,,size_choice_confirmation,html-keyboard-response,164,179896,0.0-0.0-263.0-0.0,,,,65,,,,,,,,,,,,,,,,,,,,,,,,,,,,169.5,0.51,
165,2,,,iti,html-keyboard-response,165,180897,0.0-0.0-264.0,,,,,,,,,,,,,,,,,,,,,,,,,,,,,,,,170.5,1,
166,2,,503,size_choice,html-keyboard-response,166,181401,0.0-0.0-266.0,,,50,66,66,2,2000,M-M,,M,M,2,2,hairdryer,handsaw,hairdryer9,handsaw4,78,83,/static/Size_judgement/Stimuli/Size_stims/M/hairdryer/hairdryer5.jpg,/static/Size_judgement/Stimuli/Size_stims/M/handsaw/handsaw3.jpg,1,hairdryer,handsaw,M,M,2,2,hairdryer9,handsaw4,,171.003,0.503,
167,2,,,size_choice_confirmation,html-keyboard-response,167,182402,0.0-0.0-267.0-0.0,,,,66,,,,,,,,,,,,,,,,,,,,,,,,,,,,172,0.997,
168,2,,,iti,html-keyboard-response,168,184405,0.0-0.0-268.0,,,,,,,,,,,,,,,,,,,,,,,,,,,,,,,,174,2,
169,2,,116,size_choice,html-keyboard-response,169,184522,0.0-0.0-270.0,,,50,67,67,2,1500,S-S,,S,S,1,1,paperclip,screws,paperclip1,screws10,110,129,/static/Size_judgement/Stimuli/Size_stims/S/paperclip/paperclip9.jpg,/static/Size_judgement/Stimuli/Size_stims/S/screws/screws9.jpg,1,paperclip,screws,S,S,1,1,paperclip1,screws10,,174.116,0.116,
170,2,,,size_choice_confirmation,html-keyboard-response,170,185909,0.0-0.0-271.0-0.0,,,,67,,,,,,,,,,,,,,,,,,,,,,,,,,,,175.5,1.384,
171,2,,,iti,html-keyboard-response,171,187413,0.0-0.0-272.0,,,,,,,,,,,,,,,,,,,,,,,,,,,,,,,,177,1.5,
172,2,,550,size_choice,html-keyboard-response,172,187965,0.0-0.0-274.0,,,50,68,68,2,1500,M-XL,1,XL,M,4,2,tractor,coffeemaker,tractor2,coffeemaker7,181,66,/static/Size_judgement/Stimuli/Size_stims/XL/tractor/tractor7.jpg,/static/Size_judgement/Stimuli/Size_stims/M/coffeemaker/coffeemaker9.jpg,1,tractor,coffeemaker,XL,M,4,2,tractor2,coffeemaker7,1,177.55,0.55,
173,2,,,size_choice_confirmation,html-keyboard-response,173,188917,0.0-0.0-275.0-0.0,,,,68,,,,,,,,,,,,,,,,,,,,,,,,,,,,178.5,0.95,
174,2,,,iti,html-keyboard-response,174,190421,0.0-0.0-276.0,,,,,,,,,,,,,,,,,,,,,,,,,,,,,,,,180,1.5,
175,2,,617,size_choice,html-keyboard-response,175,191039,0.0-0.0-278.0,,,51,69,69,2,2000,L-XL,1,XL,L,4,3,crane,deskchair,crane4,deskchair1,163,10,/static/Size_judgement/Stimuli/Size_stims/XL/crane/crane5.jpg,/static/Size_judgement/Stimuli/Size_stims/L/deskchair/deskchair9.jpg,0,deskchair,crane,L,XL,3,4,deskchair1,crane4,0,180.617,0.617,
176,2,,,size_choice_confirmation,html-keyboard-response,176,191925,0.0-0.0-279.0-0.0,,,,69,,,,,,,,,,,,,,,,,,,,,,,,,,,,181.5,0.883,
177,2,,,iti,html-keyboard-response,177,193930,0.0-0.0-280.0,,,,,,,,,,,,,,,,,,,,,,,,,,,,,,,,183.5,2,
178,2,,219,size_choice,html-keyboard-response,178,194150,0.0-0.0-282.0,,,50,70,70,2,2000,S-L,1,L,S,3,1,garbagecan,die,garbagecan6,die8,35,107,/static/Size_judgement/Stimuli/Size_stims/L/garbagecan/garbagecan14.jpg,/static/Size_judgement/Stimuli/Size_stims/S/die/die5.jpg,1,garbagecan,die,L,S,3,1,garbagecan6,die8,1,183.719,0.219,
179,2,,,size_choice_confirmation,html-keyboard-response,179,195435,0.0-0.0-283.0-0.0,,,,70,,,,,,,,,,,,,,,,,,,,,,,,,,,,185,1.281,
180,2,,,iti,html-keyboard-response,180,197440,0.0-0.0-284.0,,,,,,,,,,,,,,,,,,,,,,,,,,,,,,,,187,2,
181,2,,405,size_choice,html-keyboard-response,181,197845,0.0-0.0-286.0,,,51,71,71,2,1000,M-L,0,M,L,2,3,handsaw,cooler,handsaw6,cooler5,85,4,/static/Size_judgement/Stimuli/Size_stims/M/handsaw/handsaw4.jpg,/static/Size_judgement/Stimuli/Size_stims/L/cooler/cooler10.jpg,0,cooler,handsaw,L,M,3,2,cooler5,handsaw6,1,187.405,0.405,
182,2,,,size_choice_confirmation,html-keyboard-response,182,198946,0.0-0.0-287.0-0.0,,,,71,,,,,,,,,,,,,,,,,,,,,,,,,,,,188.5,1.095,
183,2,,,iti,html-keyboard-response,183,199951,0.0-0.0-288.0,,,,,,,,,,,,,,,,,,,,,,,,,,,,,,,,189.5,1,
184,2,,,size_choice,html-keyboard-response,184,201451,0.0-0.0-290.0,,,,72,72,2,1000,S-L,0,S,L,1,3,screws,mailbox,screws4,mailbox1,123,40,/static/Size_judgement/Stimuli/Size_stims/S/screws/screws6.jpg,/static/Size_judgement/Stimuli/Size_stims/L/mailbox/mailbox3.jpg,,,,,,,,,,,191,1.5,
185,2,,,iti,html-keyboard-response,185,201453,0.0-0.0-292.0,,,,,,,,,,,,,,,,,,,,,,,,,,,,,,,,191,0,
186,2,,,size_choice,html-keyboard-response,186,202954,0.0-0.0-294.0,,,,73,73,2,1000,S-XL,0,S,XL,1,4,thread,car,thread5,car1,144,150,/static/Size_judgement/Stimuli/Size_stims/S/thread/thread1.jpg,/static/Size_judgement/Stimuli/Size_stims/XL/car/car2.jpg,,,,,,,,,,,192.5,1.5,
187,2,,,iti,html-keyboard-response,187,202960,0.0-0.0-296.0,,,,,,,,,,,,,,,,,,,,,,,,,,,,,,,,192.5,0,
188,2,,141,size_choice,html-keyboard-response,188,203101,0.0-0.0-298.0,,,50,74,74,2,1000,XL-XL,,XL,XL,4,4,van,tractor,van6,tractor9,195,188,/static/Size_judgement/Stimuli/Size_stims/XL/van/van2.jpg,/static/Size_judgement/Stimuli/Size_stims/XL/tractor/tractor9.jpg,1,van,tractor,XL,XL,4,4,van6,tractor9,,192.641,0.141,
189,2,,,size_choice_confirmation,html-keyboard-response,189,204464,0.0-0.0-299.0-0.0,,,,74,,,,,,,,,,,,,,,,,,,,,,,,,,,,194,1.359,
190,2,,,iti,html-keyboard-response,190,205466,0.0-0.0-300.0,,,,,,,,,,,,,,,,,,,,,,,,,,,,,,,,195,1,
191,2,,,size_choice,html-keyboard-response,191,206970,0.0-0.0-302.0,,,,75,75,2,1500,M-XL,0,M,XL,2,4,basketball,van,basketball7,van7,56,196,/static/Size_judgement/Stimuli/Size_stims/M/basketball/basketball6.jpg,/static/Size_judgement/Stimuli/Size_stims/XL/van/van1.jpg,,,,,,,,,,,196.5,1.5,
192,2,,,iti,html-keyboard-response,192,207476,0.0-0.0-304.0,,,,,,,,,,,,,,,,,,,,,,,,,,,,,,,,197,0.5,
193,2,,1281,size_choice,html-keyboard-response,193,208759,0.0-0.0-306.0,,,50,76,76,2,1500,S-XL,1,XL,S,4,1,dumptruck,teabag,dumptruck7,teabag5,176,134,/static/Size_judgement/Stimuli/Size_stims/XL/dumptruck/dumptruck6.jpg,/static/Size_judgement/Stimuli/Size_stims/S/teabag/teabag2.jpg,1,dumptruck,teabag,XL,S,4,1,dumptruck7,teabag5,1,198.281,1.281,
194,2,,,size_choice_confirmation,html-keyboard-response,194,208981,0.0-0.0-307.0-0.0,,,,76,,,,,,,,,,,,,,,,,,,,,,,,,,,,198.5,0.219,
195,2,,,iti,html-keyboard-response,195,210485,0.0-0.0-308.0,,,,,,,,,,,,,,,,,,,,,,,,,,,,,,,,200,1.5,
196,2,,281,size_choice,html-keyboard-response,196,210768,0.0-0.0-310.0,,,50,77,77,2,1500,M-L,0,M,L,2,3,ketchup,deskchair,ketchup8,deskchair6,97,15,/static/Size_judgement/Stimuli/Size_stims/M/ketchup/ketchup5.jpg,/static/Size_judgement/Stimuli/Size_stims/L/deskchair/deskchair5.jpg,1,ketchup,deskchair,M,L,2,3,ketchup8,deskchair6,0,200.281,0.281,
197,2,,,size_choice_confirmation,html-keyboard-response,197,211989,0.0-0.0-311.0-0.0,,,,77,,,,,,,,,,,,,,,,,,,,,,,,,,,,201.5,1.219,
198,2,,,iti,html-keyboard-response,198,213492,0.0-0.0-312.0,,,,,,,,,,,,,,,,,,,,,,,,,,,,,,,,203,1.5,
199,2,,990,size_choice,html-keyboard-response,199,214482,0.0-0.0-314.0,,,50,78,78,2,3000,S-XL,1,XL,S,4,1,crane,paperclip,crane2,paperclip7,161,116,/static/Size_judgement/Stimuli/Size_stims/XL/crane/crane6.jpg,/static/Size_judgement/Stimuli/Size_stims/S/paperclip/paperclip7.jpg,1,crane,paperclip,XL,S,4,1,crane2,paperclip7,1,203.99,0.99,
200,2,,,size_choice_confirmation,html-keyboard-response,200,214994,0.0-0.0-315.0-0.0,,,,78,,,,,,,,,,,,,,,,,,,,,,,,,,,,204.5,0.51,
201,2,,,iti,html-keyboard-response,201,217998,0.0-0.0-316.0,,,,,,,,,,,,,,,,,,,,,,,,,,,,,,,,207.5,3,
202,2,,1499,size_choice,html-keyboard-response,202,219498,0.0-0.0-318.0,,,50,79,79,2,3500,M-XL,1,XL,M,4,2,crane,coffeemaker,crane10,coffeemaker2,169,61,/static/Size_judgement/Stimuli/Size_stims/XL/crane/crane9.jpg,/static/Size_judgement/Stimuli/Size_stims/M/coffeemaker/coffeemaker12.jpg,1,crane,coffeemaker,XL,M,4,2,crane10,coffeemaker2,1,208.999,1.499,
203,2,,,size_choice_confirmation,html-keyboard-response,203,219500,0.0-0.0-319.0-0.0,,,,79,,,,,,,,,,,,,,,,,,,,,,,,,,,,209,0.001,
204,2,,,iti,html-keyboard-response,204,223002,0.0-0.0-320.0,,,,,,,,,,,,,,,,,,,,,,,,,,,,,,,,212.5,3.5,1.94
205,2,,249,size_final_tally,html-keyboard-response,205,223253,0.0-1.0,,,50,,,,,,,,,,,,,,,,,,,,,,,,,,,,,,,