,success,ttype,start_time,trial_type,trial_index,time_elapsed,internal_node_id,warning,missed_checkup,PID,view_history,rt,responses,repeat_instructions,key_press,index,trial_num,block,iti,pair_type,high_size_on_left,left_size_group,right_size_group,left_size_num,right_size_num,left_category,right_category,left_exemplar,right_exemplar,left_index,right_index,left_img_path,right_img_path,left_chosen,chosen_category,unchosen_category,chosen_size_group,unchosen_size_group,chosen_size_num,unchosen_size_num,chosen_exemplar,unchosen_exemplar,accuracy,no_response,onset,duration,no_resposne,size_final_tally
0,True,full_screen,d05182022hr2010,fullscreen,0,121585,0.0-0.0,0,0,6,,,,,,,,,,,,,,,,,,,,,,,,,,,,,,,,,,,,,,
1,,size_instructions,,instructions,1,127082,0.0-1.0-0.0-0.0,0,0,6,"[{""page_index"":0,""viewing_time"":1133},{""page_index"":1,""viewing_time"":801},{""page_index"":2,""viewing_time"":517},{""page_index"":3,""viewing_time"":466},{""page_index"":4,""viewing_time"":2079},{""page_index"":5,""viewing_time"":499}]",5495.0,,,,,,,,,,,,,,,,,,,,,,,,,,,,,,,,,,,,
2,,size_comprehension_check,,survey-multi-choice,2,135632,0.0-1.0-0.0-1.0,0,0,6,,8547.0,"{""Q0"":""True"",""Q1"":""Size in the real world"",""Q2"":""True"",""Q3"":""pointer finger for left and middle finger for right""}",0.0,,,,,,,,,,,,,,,,,,,,,,,,,,,,,,,,,,
3,,,,html-keyboard-response,3,136517,0.0-1.0-1.0,0,0,6,,883.0,,,50.0,,,,,,,,,,,,,,,,,,,,,,,,,,,,,,,,,
4,,size_choice,,html-keyboard-response,4,137314,0.0-1.0-2.0,0,0,6,,796.0,,,51.0,0.0,0.0,1.0,1000.0,L-L,,L,L,3.0,3.0,dishwasher,garbagecan,dishwasher9,garbagecan9,28.0,38.0,/static/Size_judgement/Stimuli/Size_stims/L/dishwasher/dishwasher2.jpg,/static/Size_judgement/Stimuli/Size_stims/L/garbagecan/garbagecan12.jpg,0.0,garbagecan,dishwasher,L,L,3.0,3.0,garbagecan9,dishwasher9,,0.0,0.7959999999999999,0.7959999999999999,,
5,,size_choice_confirmation,,html-keyboard-response,5,138020,0.0-1.0-3.0-0.0,0,0,6,,,,,,0.0,,,,,,,,,,,,,,,,,,,,,,,,,,,,,1.5,0.7040000000000001,,
6,,iti,,html-keyboard-response,6,138126,0.0-1.0-4.0,0,0,6,,,,,,,,,,,,,,,,,,,,,,,,,,,,,,,,,,,2.5,1.0,,
7,,size_choice,,html-keyboard-response,7,139085,0.0-1.0-6.0,0,0,6,,958.0,,,51.0,1.0,1.0,1.0,1000.0,M-M,,M,M,2.0,2.0,handsaw,hairdryer,handsaw1,hairdryer2,80.0,71.0,/static/Size_judgement/Stimuli/Size_stims/M/handsaw/handsaw8.jpg,/static/Size_judgement/Stimuli/Size_stims/M/hairdryer/hairdryer12.jpg,0.0,hairdryer,handsaw,M,M,2.0,2.0,hairdryer2,handsaw1,,0.0,3.458,0.958,,
8,,size_choice_confirmation,,html-keyboard-response,8,139628,0.0-1.0-7.0-0.0,0,0,6,,,,,,1.0,,,,,,,,,,,,,,,,,,,,,,,,,,,,,4.0,0.542,,
9,,iti,,html-keyboard-response,9,139733,0.0-1.0-8.0,0,0,6,,,,,,,,,,,,,,,,,,,,,,,,,,,,,,,,,,,5.0,1.0,,
10,,size_choice,,html-keyboard-response,10,140375,0.0-1.0-10.0,0,0,6,,640.0,,,51.0,2.0,2.0,1.0,1500.0,S-XL,0.0,S,XL,1.0,4.0,teabag,dumptruck,teabag7,dumptruck8,136.0,177.0,/static/Size_judgement/Stimuli/Size_stims/S/teabag/teabag10.jpg,/static/Size_judgement/Stimuli/Size_stims/XL/dumptruck/dumptruck7.jpg,0.0,dumptruck,teabag,XL,S,4.0,1.0,dumptruck8,teabag7,1.0,0.0,5.64,0.64,,
11,,size_choice_confirmation,,html-keyboard-response,11,141241,0.0-1.0-11.0-0.0,0,0,6,,,,,,2.0,,,,,,,,,,,,,,,,,,,,,,,,,,,,,6.5,0.86,,
12,,iti,,html-keyboard-response,12,141346,0.0-1.0-12.0,0,0,6,,,,,,,,,,,,,,,,,,,,,,,,,,,,,,,,,,,8.0,1.5,,
13,,size_choice,,html-keyboard-response,13,142000,0.0-1.0-14.0,0,0,6,,653.0,,,50.0,3.0,3.0,1.0,2000.0,S-M,1.0,M,S,2.0,1.0,hairdryer,screws,hairdryer5,screws5,74.0,124.0,/static/Size_judgement/Stimuli/Size_stims/M/hairdryer/hairdryer15.jpg,/static/Size_judgement/Stimuli/Size_stims/S/screws/screws2.jpg,1.0,hairdryer,screws,M,S,2.0,1.0,hairdryer5,screws5,1.0,0.0,8.652999999999999,0.653,,
14,,size_choice_confirmation,,html-keyboard-response,14,142851,0.0-1.0-15.0-0.0,0,0,6,,,,,,3.0,,,,,,,,,,,,,,,,,,,,,,,,,,,,,9.5,0.847,,
15,,iti,,html-keyboard-response,15,142956,0.0-1.0-16.0,0,0,6,,,,,,,,,,,,,,,,,,,,,,,,,,,,,,,,,,,11.5,2.0,,
16,,size_choice,,html-keyboard-response,16,143555,0.0-1.0-18.0,0,0,6,,598.0,,,51.0,4.0,4.0,1.0,3500.0,S-XL,0.0,S,XL,1.0,4.0,teabag,car,teabag4,car9,133.0,158.0,/static/Size_judgement/Stimuli/Size_stims/S/teabag/teabag3.jpg,/static/Size_judgement/Stimuli/Size_stims/XL/car/car15.jpg,0.0,car,teabag,XL,S,4.0,1.0,car9,teabag4,1.0,0.0,12.097999999999999,0.598,,
17,,size_choice_confirmation,,html-keyboard-response,17,144464,0.0-1.0-19.0-0.0,0,0,6,,,,,,4.0,,,,,,,,,,,,,,,,,,,,,,,,,,,,,13.0,0.902,,
18,,iti,,html-keyboard-response,18,144568,0.0-1.0-20.0,0,0,6,,,,,,,,,,,,,,,,,,,,,,,,,,,,,,,,,,,16.5,3.5,,
19,,size_choice,,html-keyboard-response,19,145216,0.0-1.0-22.0,0,0,6,,647.0,,,50.0,5.0,5.0,1.0,1500.0,M-L,1.0,L,M,3.0,2.0,cooler,handsaw,cooler10,handsaw7,9.0,86.0,/static/Size_judgement/Stimuli/Size_stims/L/cooler/cooler6.jpg,/static/Size_judgement/Stimuli/Size_stims/M/handsaw/handsaw5.jpg,1.0,cooler,handsaw,L,M,3.0,2.0,cooler10,handsaw7,1.0,0.0,17.147000000000002,0.647,,
20,,size_choice_confirmation,,html-keyboard-response,20,146072,0.0-1.0-23.0-0.0,0,0,6,,,,,,5.0,,,,,,,,,,,,,,,,,,,,,,,,,,,,,18.0,0.853,,
21,,iti,,html-keyboard-response,21,146174,0.0-1.0-24.0,0,0,6,,,,,,,,,,,,,,,,,,,,,,,,,,,,,,,,,,,19.5,1.5,,
22,,size_choice,,html-keyboard-response,22,146902,0.0-1.0-26.0,0,0,6,,727.0,,,51.0,6.0,6.0,1.0,2000.0,M-XL,0.0,M,XL,2.0,4.0,basketball,crane,basketball10,crane9,59.0,168.0,/static/Size_judgement/Stimuli/Size_stims/M/basketball/basketball4.jpg,/static/Size_judgement/Stimuli/Size_stims/XL/crane/crane8.jpg,0.0,crane,basketball,XL,M,4.0,2.0,crane9,basketball10,1.0,0.0,20.227,0.727,,
23,,size_choice_confirmation,,html-keyboard-response,23,147678,0.0-1.0-27.0-0.0,0,0,6,,,,,,6.0,,,,,,,,,,,,,,,,,,,,,,,,,,,,,21.0,0.773,,
24,,iti,,html-keyboard-response,24,147782,0.0-1.0-28.0,0,0,6,,,,,,,,,,,,,,,,,,,,,,,,,,,,,,,,,,,23.0,2.0,,
25,,size_choice,,html-keyboard-response,25,148493,0.0-1.0-30.0,0,0,6,,709.0,,,51.0,7.0,7.0,1.0,3000.0,M-XL,0.0,M,XL,2.0,4.0,hairdryer,dumptruck,hairdryer7,dumptruck6,76.0,175.0,/static/Size_judgement/Stimuli/Size_stims/M/hairdryer/hairdryer3.jpg,/static/Size_judgement/Stimuli/Size_stims/XL/dumptruck/dumptruck2.jpg,0.0,dumptruck,hairdryer,XL,M,4.0,2.0,dumptruck6,hairdryer7,1.0,0.0,23.709,0.7090000000000001,,
26,,size_choice_confirmation,,html-keyboard-response,26,149287,0.0-1.0-31.0-0.0,0,0,6,,,,,,7.0,,,,,,,,,,,,,,,,,,,,,,,,,,,,,24.5,0.7909999999999999,,
27,,iti,,html-keyboard-response,27,149389,0.0-1.0-32.0,0,0,6,,,,,,,,,,,,,,,,,,,,,,,,,,,,,,,,,,,27.5,3.0,,
28,,size_choice,,html-keyboard-response,28,150378,0.0-1.0-34.0,0,0,6,,988.0,,,51.0,8.0,8.0,1.0,2000.0,XL-XL,,XL,XL,4.0,4.0,van,crane,van2,crane8,191.0,167.0,/static/Size_judgement/Stimuli/Size_stims/XL/van/van4.jpg,/static/Size_judgement/Stimuli/Size_stims/XL/crane/crane10.jpg,0.0,crane,van,XL,XL,4.0,4.0,crane8,van2,,0.0,28.488000000000003,0.988,,
29,,size_choice_confirmation,,html-keyboard-response,29,150893,0.0-1.0-35.0-0.0,0,0,6,,,,,,8.0,,,,,,,,,,,,,,,,,,,,,,,,,,,,,29.0,0.512,,
30,,iti,,html-keyboard-response,30,150995,0.0-1.0-36.0,0,0,6,,,,,,,,,,,,,,,,,,,,,,,,,,,,,,,,,,,31.0,2.0,,
31,,size_choice,,html-keyboard-response,31,151832,0.0-1.0-38.0,0,0,6,,836.0,,,50.0,9.0,9.0,1.0,2000.0,L-L,,L,L,3.0,3.0,dishwasher,cooler,dishwasher7,cooler8,26.0,7.0,/static/Size_judgement/Stimuli/Size_stims/L/dishwasher/dishwasher7.jpg,/static/Size_judgement/Stimuli/Size_stims/L/cooler/cooler5.jpg,1.0,dishwasher,cooler,L,L,3.0,3.0,dishwasher7,cooler8,,0.0,31.836,0.836,,
32,,size_choice_confirmation,,html-keyboard-response,32,152502,0.0-1.0-39.0-0.0,0,0,6,,,,,,9.0,,,,,,,,,,,,,,,,,,,,,,,,,,,,,32.5,0.664,,
33,,iti,,html-keyboard-response,33,152607,0.0-1.0-40.0,0,0,6,,,,,,,,,,,,,,,,,,,,,,,,,,,,,,,,,,,34.5,2.0,,
34,,size_choice,,html-keyboard-response,34,153660,0.0-1.0-42.0,0,0,6,,1052.0,,,51.0,10.0,10.0,1.0,1000.0,M-L,1.0,L,M,3.0,2.0,garbagecan,basketball,garbagecan4,basketball4,33.0,53.0,/static/Size_judgement/Stimuli/Size_stims/L/garbagecan/garbagecan6.jpg,/static/Size_judgement/Stimuli/Size_stims/M/basketball/basketball1.jpg,0.0,basketball,garbagecan,M,L,2.0,3.0,basketball4,garbagecan4,0.0,0.0,35.552,1.052,,
35,,size_choice_confirmation,,html-keyboard-response,35,154114,0.0-1.0-43.0-0.0,0,0,6,,,,,,10.0,,,,,,,,,,,,,,,,,,,,,,,,,,,,,36.0,0.44799999999999995,,
36,,iti,,html-keyboard-response,36,154215,0.0-1.0-44.0,0,0,6,,,,,,,,,,,,,,,,,,,,,,,,,,,,,,,,,,,37.0,1.0,,
37,,size_choice,,html-keyboard-response,37,154921,0.0-1.0-46.0,0,0,6,,705.0,,,50.0,11.0,11.0,1.0,1000.0,S-L,1.0,L,S,3.0,1.0,dishwasher,screws,dishwasher8,screws8,27.0,127.0,/static/Size_judgement/Stimuli/Size_stims/L/dishwasher/dishwasher3.jpg,/static/Size_judgement/Stimuli/Size_stims/S/screws/screws10.jpg,1.0,dishwasher,screws,L,S,3.0,1.0,dishwasher8,screws8,1.0,0.0,37.705,0.705,,
38,,size_choice_confirmation,,html-keyboard-response,38,155722,0.0-1.0-47.0-0.0,0,0,6,,,,,,11.0,,,,,,,,,,,,,,,,,,,,,,,,,,,,,38.5,0.795,,
39,,iti,,html-keyboard-response,39,155828,0.0-1.0-48.0,0,0,6,,,,,,,,,,,,,,,,,,,,,,,,,,,,,,,,,,,39.5,1.0,,
40,,size_choice,,html-keyboard-response,40,156708,0.0-1.0-50.0,0,0,6,,879.0,,,50.0,12.0,12.0,1.0,1000.0,L-XL,1.0,XL,L,4.0,3.0,tractor,deskchair,tractor6,deskchair5,185.0,14.0,/static/Size_judgement/Stimuli/Size_stims/XL/tractor/tractor3.jpg,/static/Size_judgement/Stimuli/Size_stims/L/deskchair/deskchair7.jpg,1.0,tractor,deskchair,XL,L,4.0,3.0,tractor6,deskchair5,1.0,0.0,40.379,0.879,,
41,,size_choice_confirmation,,html-keyboard-response,41,157335,0.0-1.0-51.0-0.0,0,0,6,,,,,,12.0,,,,,,,,,,,,,,,,,,,,,,,,,,,,,41.0,0.621,,
42,,iti,,html-keyboard-response,42,157439,0.0-1.0-52.0,0,0,6,,,,,,,,,,,,,,,,,,,,,,,,,,,,,,,,,,,42.0,1.0,,
43,,size_choice,,html-keyboard-response,43,158110,0.0-1.0-54.0,0,0,6,,670.0,,,51.0,13.0,13.0,1.0,1000.0,S-S,,S,S,1.0,1.0,thread,die,thread10,die1,149.0,100.0,/static/Size_judgement/Stimuli/Size_stims/S/thread/thread9.jpg,/static/Size_judgement/Stimuli/Size_stims/S/die/die8.jpg,0.0,die,thread,S,S,1.0,1.0,die1,thread10,,0.0,42.67,0.67,,
44,,size_choice_confirmation,,html-keyboard-response,44,158942,0.0-1.0-55.0-0.0,0,0,6,,,,,,13.0,,,,,,,,,,,,,,,,,,,,,,,,,,,,,43.5,0.83,,
45,,iti,,html-keyboard-response,45,159049,0.0-1.0-56.0,0,0,6,,,,,,,,,,,,,,,,,,,,,,,,,,,,,,,,,,,44.5,1.0,,
46,,size_choice,,html-keyboard-response,46,159829,0.0-1.0-58.0,0,0,6,,779.0,,,51.0,14.0,14.0,1.0,1000.0,M-XL,0.0,M,XL,2.0,4.0,coffeemaker,tractor,coffeemaker4,tractor4,63.0,183.0,/static/Size_judgement/Stimuli/Size_stims/M/coffeemaker/coffeemaker11.jpg,/static/Size_judgement/Stimuli/Size_stims/XL/tractor/tractor4.jpg,0.0,tractor,coffeemaker,XL,M,4.0,2.0,tractor4,coffeemaker4,1.0,0.0,45.278999999999996,0.779,,
47,,size_choice_confirmation,,html-keyboard-response,47,160553,0.0-1.0-59.0-0.0,0,0,6,,,,,,14.0,,,,,,,,,,,,,,,,,,,,,,,,,,,,,46.0,0.721,,
48,,iti,,html-keyboard-response,48,160659,0.0-1.0-60.0,0,0,6,,,,,,,,,,,,,,,,,,,,,,,,,,,,,,,,,,,47.0,1.0,,
49,,size_choice,,html-keyboard-response,49,161310,0.0-1.0-62.0,0,0,6,,649.0,,,51.0,15.0,15.0,1.0,3500.0,M-XL,0.0,M,XL,2.0,4.0,handsaw,van,handsaw5,van10,84.0,199.0,/static/Size_judgement/Stimuli/Size_stims/M/handsaw/handsaw1.jpg,/static/Size_judgement/Stimuli/Size_stims/XL/van/van8.jpg,0.0,van,handsaw,XL,M,4.0,2.0,van10,handsaw5,1.0,0.0,47.648999999999994,0.649,,
50,,size_choice_confirmation,,html-keyboard-response,50,162164,0.0-1.0-63.0-0.0,0,0,6,,,,,,15.0,,,,,,,,,,,,,,,,,,,,,,,,,,,,,48.5,0.851,,
51,,iti,,html-keyboard-response,51,162269,0.0-1.0-64.0,0,0,6,,,,,,,,,,,,,,,,,,,,,,,,,,,,,,,,,,,52.0,3.5,,
52,,size_choice,,html-keyboard-response,52,163060,0.0-1.0-66.0,0,0,6,,790.0,,,50.0,16.0,16.0,1.0,1500.0,XL-XL,,XL,XL,4.0,4.0,dumptruck,car,dumptruck2,car6,171.0,155.0,/static/Size_judgement/Stimuli/Size_stims/XL/dumptruck/dumptruck8.jpg,/static/Size_judgement/Stimuli/Size_stims/XL/car/car12.jpg,1.0,dumptruck,car,XL,XL,4.0,4.0,dumptruck2,car6,,0.0,52.79,0.79,,
53,,size_choice_confirmation,,html-keyboard-response,53,163773,0.0-1.0-67.0-0.0,0,0,6,,,,,,16.0,,,,,,,,,,,,,,,,,,,,,,,,,,,,,53.5,0.71,,
54,,iti,,html-keyboard-response,54,163876,0.0-1.0-68.0,0,0,6,,,,,,,,,,,,,,,,,,,,,,,,,,,,,,,,,,,55.0,1.5,,
55,,size_choice,,html-keyboard-response,55,164493,0.0-1.0-70.0,0,0,6,,616.0,,,50.0,17.0,17.0,1.0,1500.0,S-XL,1.0,XL,S,4.0,1.0,van,screws,van1,screws6,190.0,125.0,/static/Size_judgement/Stimuli/Size_stims/XL/van/van5.jpg,/static/Size_judgement/Stimuli/Size_stims/S/screws/screws3.jpg,1.0,van,screws,XL,S,4.0,1.0,van1,screws6,1.0,0.0,55.61600000000001,0.616,,
56,,size_choice_confirmation,,html-keyboard-response,56,165300,0.0-1.0-71.0-0.0,0,0,6,,,,,,17.0,,,,,,,,,,,,,,,,,,,,,,,,,,,,,56.5,0.884,,
57,,iti,,html-keyboard-response,57,165406,0.0-1.0-72.0,0,0,6,,,,,,,,,,,,,,,,,,,,,,,,,,,,,,,,,,,58.0,1.5,,
58,,size_choice,,html-keyboard-response,58,165969,0.0-1.0-74.0,0,0,6,,563.0,,,50.0,18.0,18.0,1.0,3500.0,M-XL,1.0,XL,M,4.0,2.0,car,basketball,car5,basketball8,154.0,57.0,/static/Size_judgement/Stimuli/Size_stims/XL/car/car11.jpg,/static/Size_judgement/Stimuli/Size_stims/M/basketball/basketball7.jpg,1.0,car,basketball,XL,M,4.0,2.0,car5,basketball8,1.0,0.0,58.563,0.563,,
59,,size_choice_confirmation,,html-keyboard-response,59,166912,0.0-1.0-75.0-0.0,0,0,6,,,,,,18.0,,,,,,,,,,,,,,,,,,,,,,,,,,,,,59.5,0.937,,
60,,iti,,html-keyboard-response,60,167016,0.0-1.0-76.0,0,0,6,,,,,,,,,,,,,,,,,,,,,,,,,,,,,,,,,,,63.0,3.5,,
61,,size_choice,,html-keyboard-response,61,167995,0.0-1.0-78.0,0,0,6,,979.0,,,51.0,19.0,19.0,1.0,1500.0,S-L,1.0,L,S,3.0,1.0,cooler,thread,cooler7,thread7,6.0,146.0,/static/Size_judgement/Stimuli/Size_stims/L/cooler/cooler4.jpg,/static/Size_judgement/Stimuli/Size_stims/S/thread/thread3.jpg,0.0,thread,cooler,S,L,1.0,3.0,thread7,cooler7,0.0,0.0,63.979,0.9790000000000001,,
62,,size_choice_confirmation,,html-keyboard-response,62,168519,0.0-1.0-79.0-0.0,0,0,6,,,,,,19.0,,,,,,,,,,,,,,,,,,,,,,,,,,,,,64.5,0.521,,
63,,iti,,html-keyboard-response,63,168623,0.0-1.0-80.0,0,0,6,,,,,,,,,,,,,,,,,,,,,,,,,,,,,,,,,,,66.0,1.5,,
64,,size_choice,,html-keyboard-response,64,170124,0.0-1.0-82.0,0,0,6,,,,,,20.0,20.0,1.0,1000.0,S-S,,S,S,1.0,1.0,paperclip,teabag,paperclip8,teabag9,117.0,138.0,/static/Size_judgement/Stimuli/Size_stims/S/paperclip/paperclip5.jpg,/static/Size_judgement/Stimuli/Size_stims/S/teabag/teabag5.jpg,,,,,,,,,,,,67.5,1.5,1.0,
65,,iti,,html-keyboard-response,65,170226,0.0-1.0-84.0,0,0,6,,,,,,,,,,,,,,,,,,,,,,,,,,,,,,,,,,,67.5,0.0,,
66,,size_choice,,html-keyboard-response,66,171345,0.0-1.0-86.0,0,0,6,,1118.0,,,50.0,21.0,21.0,1.0,1000.0,S-S,,S,S,1.0,1.0,die,paperclip,die6,paperclip6,105.0,115.0,/static/Size_judgement/Stimuli/Size_stims/S/die/die1.jpg,/static/Size_judgement/Stimuli/Size_stims/S/paperclip/paperclip6.jpg,1.0,die,paperclip,S,S,1.0,1.0,die6,paperclip6,,0.0,68.618,1.1179999999999999,,
67,,size_choice_confirmation,,html-keyboard-response,67,171730,0.0-1.0-87.0-0.0,0,0,6,,,,,,21.0,,,,,,,,,,,,,,,,,,,,,,,,,,,,,69.0,0.382,,
68,,iti,,html-keyboard-response,68,171835,0.0-1.0-88.0,0,0,6,,,,,,,,,,,,,,,,,,,,,,,,,,,,,,,,,,,70.0,1.0,,
69,,size_choice,,html-keyboard-response,69,172538,0.0-1.0-90.0,0,0,6,,701.0,,,50.0,22.0,22.0,1.0,1000.0,L-XL,0.0,L,XL,3.0,4.0,dishwasher,dumptruck,dishwasher3,dumptruck3,22.0,172.0,/static/Size_judgement/Stimuli/Size_stims/L/dishwasher/dishwasher8.jpg,/static/Size_judgement/Stimuli/Size_stims/XL/dumptruck/dumptruck10.jpg,1.0,dishwasher,dumptruck,L,XL,3.0,4.0,dishwasher3,dumptruck3,0.0,0.0,70.70100000000001,0.701,,
70,,size_choice_confirmation,,html-keyboard-response,70,173339,0.0-1.0-91.0-0.0,0,0,6,,,,,,22.0,,,,,,,,,,,,,,,,,,,,,,,,,,,,,71.5,0.799,,
71,,iti,,html-keyboard-response,71,173443,0.0-1.0-92.0,0,0,6,,,,,,,,,,,,,,,,,,,,,,,,,,,,,,,,,,,72.5,1.0,,
72,,size_choice,,html-keyboard-response,72,174092,0.0-1.0-94.0,0,0,6,,648.0,,,51.0,23.0,23.0,1.0,3000.0,M-M,,M,M,2.0,2.0,handsaw,hairdryer,handsaw8,hairdryer3,87.0,72.0,/static/Size_judgement/Stimuli/Size_stims/M/handsaw/handsaw7.jpg,/static/Size_judgement/Stimuli/Size_stims/M/hairdryer/hairdryer17.jpg,0.0,hairdryer,handsaw,M,M,2.0,2.0,hairdryer3,handsaw8,,0.0,73.148,0.648,,
73,,size_choice_confirmation,,html-keyboard-response,73,174949,0.0-1.0-95.0-0.0,0,0,6,,,,,,23.0,,,,,,,,,,,,,,,,,,,,,,,,,,,,,74.0,0.852,,
74,,iti,,html-keyboard-response,74,175051,0.0-1.0-96.0,0,0,6,,,,,,,,,,,,,,,,,,,,,,,,,,,,,,,,,,,77.0,3.0,,
75,,size_choice,,html-keyboard-response,75,175694,0.0-1.0-98.0,0,0,6,,642.0,,,50.0,24.0,24.0,1.0,1000.0,S-M,1.0,M,S,2.0,1.0,basketball,paperclip,basketball2,paperclip10,51.0,119.0,/static/Size_judgement/Stimuli/Size_stims/M/basketball/basketball8.jpg,/static/Size_judgement/Stimuli/Size_stims/S/paperclip/paperclip10.jpg,1.0,basketball,paperclip,M,S,2.0,1.0,basketball2,paperclip10,1.0,0.0,77.642,0.642,,
76,,size_choice_confirmation,,html-keyboard-response,76,176554,0.0-1.0-99.0-0.0,0,0,6,,,,,,24.0,,,,,,,,,,,,,,,,,,,,,,,,,,,,,78.5,0.858,,
77,,iti,,html-keyboard-response,77,176657,0.0-1.0-100.0,0,0,6,,,,,,,,,,,,,,,,,,,,,,,,,,,,,,,,,,,79.5,1.0,,
78,,size_choice,,html-keyboard-response,78,177276,0.0-1.0-102.0,0,0,6,,618.0,,,50.0,25.0,25.0,1.0,2000.0,S-L,1.0,L,S,3.0,1.0,dishwasher,paperclip,dishwasher10,paperclip9,29.0,118.0,/static/Size_judgement/Stimuli/Size_stims/L/dishwasher/dishwasher1.jpg,/static/Size_judgement/Stimuli/Size_stims/S/paperclip/paperclip4.jpg,1.0,dishwasher,paperclip,L,S,3.0,1.0,dishwasher10,paperclip9,1.0,0.0,80.118,0.618,,
79,,size_choice_confirmation,,html-keyboard-response,79,178164,0.0-1.0-103.0-0.0,0,0,6,,,,,,25.0,,,,,,,,,,,,,,,,,,,,,,,,,,,,,81.0,0.882,,
80,,iti,,html-keyboard-response,80,178268,0.0-1.0-104.0,0,0,6,,,,,,,,,,,,,,,,,,,,,,,,,,,,,,,,,,,83.0,2.0,,
81,,size_choice,,html-keyboard-response,81,179139,0.0-1.0-106.0,0,0,6,,870.0,,,50.0,26.0,26.0,1.0,3000.0,S-L,1.0,L,S,3.0,1.0,deskchair,thread,deskchair10,thread2,19.0,141.0,/static/Size_judgement/Stimuli/Size_stims/L/deskchair/deskchair2.jpg,/static/Size_judgement/Stimuli/Size_stims/S/thread/thread6.jpg,1.0,deskchair,thread,L,S,3.0,1.0,deskchair10,thread2,1.0,0.0,83.87,0.87,,
82,,size_choice_confirmation,,html-keyboard-response,82,179772,0.0-1.0-107.0-0.0,0,0,6,,,,,,26.0,,,,,,,,,,,,,,,,,,,,,,,,,,,,,84.5,0.63,,
83,,iti,,html-keyboard-response,83,179873,0.0-1.0-108.0,0,0,6,,,,,,,,,,,,,,,,,,,,,,,,,,,,,,,,,,,87.5,3.0,,
84,,size_choice,,html-keyboard-response,84,180975,0.0-1.0-110.0,0,0,6,,1101.0,,,51.0,27.0,27.0,1.0,1000.0,L-L,,L,L,3.0,3.0,mailbox,garbagecan,mailbox5,garbagecan8,44.0,37.0,/static/Size_judgement/Stimuli/Size_stims/L/mailbox/mailbox4.jpg,/static/Size_judgement/Stimuli/Size_stims/L/garbagecan/garbagecan13.jpg,0.0,garbagecan,mailbox,L,L,3.0,3.0,garbagecan8,mailbox5,,0.0,88.601,1.101,,
85,,size_choice_confirmation,,html-keyboard-response,85,181380,0.0-1.0-111.0-0.0,0,0,6,,,,,,27.0,,,,,,,,,,,,,,,,,,,,,,,,,,,,,89.0,0.39899999999999997,,
86,,iti,,html-keyboard-response,86,181482,0.0-1.0-112.0,0,0,6,,,,,,,,,,,,,,,,,,,,,,,,,,,,,,,,,,,90.0,1.0,,
87,,size_choice,,html-keyboard-response,87,182677,0.0-1.0-114.0,0,0,6,,1194.0,,,51.0,28.0,28.0,1.0,2000.0,M-L,0.0,M,L,2.0,3.0,ketchup,mailbox,ketchup2,mailbox9,91.0,48.0,/static/Size_judgement/Stimuli/Size_stims/M/ketchup/ketchup9.jpg,/static/Size_judgement/Stimuli/Size_stims/L/mailbox/mailbox9.jpg,0.0,mailbox,ketchup,L,M,3.0,2.0,mailbox9,ketchup2,1.0,0.0,91.194,1.194,,
88,,size_choice_confirmation,,html-keyboard-response,88,182985,0.0-1.0-115.0-0.0,0,0,6,,,,,,28.0,,,,,,,,,,,,,,,,,,,,,,,,,,,,,91.5,0.306,,
89,,iti,,html-keyboard-response,89,183088,0.0-1.0-116.0,0,0,6,,,,,,,,,,,,,,,,,,,,,,,,,,,,,,,,,,,93.5,2.0,,
90,,size_choice,,html-keyboard-response,90,183787,0.0-1.0-118.0,0,0,6,,698.0,,,51.0,29.0,29.0,1.0,1000.0,S-XL,0.0,S,XL,1.0,4.0,die,dumptruck,die5,dumptruck9,104.0,178.0,/static/Size_judgement/Stimuli/Size_stims/S/die/die3.jpg,/static/Size_judgement/Stimuli/Size_stims/XL/dumptruck/dumptruck5.jpg,0.0,dumptruck,die,XL,S,4.0,1.0,dumptruck9,die5,1.0,0.0,94.198,0.698,,
91,,size_choice_confirmation,,html-keyboard-response,91,184593,0.0-1.0-119.0-0.0,0,0,6,,,,,,29.0,,,,,,,,,,,,,,,,,,,,,,,,,,,,,95.0,0.802,,
92,,iti,,html-keyboard-response,92,184694,0.0-1.0-120.0,0,0,6,,,,,,,,,,,,,,,,,,,,,,,,,,,,,,,,,,,96.0,1.0,,
93,,size_choice,,html-keyboard-response,93,185362,0.0-1.0-122.0,0,0,6,,666.0,,,50.0,30.0,30.0,1.0,1000.0,S-XL,1.0,XL,S,4.0,1.0,tractor,die,tractor7,die2,186.0,101.0,/static/Size_judgement/Stimuli/Size_stims/XL/tractor/tractor2.jpg,/static/Size_judgement/Stimuli/Size_stims/S/die/die9.jpg,1.0,tractor,die,XL,S,4.0,1.0,tractor7,die2,1.0,0.0,96.666,0.6659999999999999,,
94,,size_choice_confirmation,,html-keyboard-response,94,186200,0.0-1.0-123.0-0.0,0,0,6,,,,,,30.0,,,,,,,,,,,,,,,,,,,,,,,,,,,,,97.5,0.8340000000000001,,
95,,iti,,html-keyboard-response,95,186305,0.0-1.0-124.0,0,0,6,,,,,,,,,,,,,,,,,,,,,,,,,,,,,,,,,,,98.5,1.0,,
96,,size_choice,,html-keyboard-response,96,186919,0.0-1.0-126.0,0,0,6,,614.0,,,50.0,31.0,31.0,1.0,1500.0,S-L,1.0,L,S,3.0,1.0,garbagecan,thread,garbagecan2,thread9,31.0,148.0,/static/Size_judgement/Stimuli/Size_stims/L/garbagecan/garbagecan5.jpg,/static/Size_judgement/Stimuli/Size_stims/S/thread/thread8.jpg,1.0,garbagecan,thread,L,S,3.0,1.0,garbagecan2,thread9,1.0,0.0,99.11399999999999,0.614,,
97,,size_choice_confirmation,,html-keyboard-response,97,187806,0.0-1.0-127.0-0.0,0,0,6,,,,,,31.0,,,,,,,,,,,,,,,,,,,,,,,,,,,,,100.0,0.8859999999999999,,
98,,iti,,html-keyboard-response,98,187906,0.0-1.0-128.0,0,0,6,,,,,,,,,,,,,,,,,,,,,,,,,,,,,,,,,,,101.5,1.5,,
99,,size_choice,,html-keyboard-response,99,188493,0.0-1.0-130.0,0,0,6,,586.0,,,51.0,32.0,32.0,1.0,2000.0,M-L,0.0,M,L,2.0,3.0,handsaw,deskchair,handsaw9,deskchair2,88.0,11.0,/static/Size_judgement/Stimuli/Size_stims/M/handsaw/handsaw6.jpg,/static/Size_judgement/Stimuli/Size_stims/L/deskchair/deskchair8.jpg,0.0,deskchair,handsaw,L,M,3.0,2.0,deskchair2,handsaw9,1.0,0.0,102.086,0.586,,
100,,size_choice_confirmation,,html-keyboard-response,100,189413,0.0-1.0-131.0-0.0,0,0,6,,,,,,32.0,,,,,,,,,,,,,,,,,,,,,,,,,,,,,103.0,0.914,,
101,,iti,,html-keyboard-response,101,189516,0.0-1.0-132.0,0,0,6,,,,,,,,,,,,,,,,,,,,,,,,,,,,,,,,,,,105.0,2.0,,
102,,size_choice,,html-keyboard-response,102,190019,0.0-1.0-134.0,0,0,6,,502.0,,,50.0,33.0,33.0,1.0,1000.0,S-L,1.0,L,S,3.0,1.0,garbagecan,teabag,garbagecan3,teabag8,32.0,137.0,/static/Size_judgement/Stimuli/Size_stims/L/garbagecan/garbagecan7.jpg,/static/Size_judgement/Stimuli/Size_stims/S/teabag/teabag7.jpg,1.0,garbagecan,teabag,L,S,3.0,1.0,garbagecan3,teabag8,1.0,0.0,105.50200000000001,0.502,,
103,,size_choice_confirmation,,html-keyboard-response,103,191023,0.0-1.0-135.0-0.0,0,0,6,,,,,,33.0,,,,,,,,,,,,,,,,,,,,,,,,,,,,,106.5,0.998,,
104,,iti,,html-keyboard-response,104,191129,0.0-1.0-136.0,0,0,6,,,,,,,,,,,,,,,,,,,,,,,,,,,,,,,,,,,107.5,1.0,,
105,,size_choice,,html-keyboard-response,105,191685,0.0-1.0-138.0,0,0,6,,555.0,,,51.0,34.0,34.0,1.0,1000.0,M-L,0.0,M,L,2.0,3.0,handsaw,dishwasher,handsaw2,dishwasher4,81.0,23.0,/static/Size_judgement/Stimuli/Size_stims/M/handsaw/handsaw9.jpg,/static/Size_judgement/Stimuli/Size_stims/L/dishwasher/dishwasher5.jpg,0.0,dishwasher,handsaw,L,M,3.0,2.0,dishwasher4,handsaw2,1.0,0.0,108.055,0.555,,
106,,size_choice_confirmation,,html-keyboard-response,106,192634,0.0-1.0-139.0-0.0,0,0,6,,,,,,34.0,,,,,,,,,,,,,,,,,,,,,,,,,,,,,109.0,0.945,,
107,,iti,,html-keyboard-response,107,192739,0.0-1.0-140.0,0,0,6,,,,,,,,,,,,,,,,,,,,,,,,,,,,,,,,,,,110.0,1.0,,
108,,size_choice,,html-keyboard-response,108,193256,0.0-1.0-142.0,0,0,6,,516.0,,,50.0,35.0,35.0,1.0,1500.0,M-L,1.0,L,M,3.0,2.0,dishwasher,ketchup,dishwasher1,ketchup4,20.0,93.0,/static/Size_judgement/Stimuli/Size_stims/L/dishwasher/dishwasher10.jpg,/static/Size_judgement/Stimuli/Size_stims/M/ketchup/ketchup2.jpg,1.0,dishwasher,ketchup,L,M,3.0,2.0,dishwasher1,ketchup4,1.0,0.0,110.516,0.516,,
109,,size_choice_confirmation,,html-keyboard-response,109,194242,0.0-1.0-143.0-0.0,0,0,6,,,,,,35.0,,,,,,,,,,,,,,,,,,,,,,,,,,,,,111.5,0.9840000000000001,,
110,,iti,,html-keyboard-response,110,194347,0.0-1.0-144.0,0,0,6,,,,,,,,,,,,,,,,,,,,,,,,,,,,,,,,,,,113.0,1.5,,
111,,size_choice,,html-keyboard-response,111,195301,0.0-1.0-146.0,0,0,6,,953.0,,,51.0,36.0,36.0,1.0,1500.0,M-L,0.0,M,L,2.0,3.0,hairdryer,cooler,hairdryer6,cooler3,75.0,2.0,/static/Size_judgement/Stimuli/Size_stims/M/hairdryer/hairdryer8.jpg,/static/Size_judgement/Stimuli/Size_stims/L/cooler/cooler2.jpg,0.0,cooler,hairdryer,L,M,3.0,2.0,cooler3,hairdryer6,1.0,0.0,113.95299999999999,0.953,,
112,,size_choice_confirmation,,html-keyboard-response,112,195854,0.0-1.0-147.0-0.0,0,0,6,,,,,,36.0,,,,,,,,,,,,,,,,,,,,,,,,,,,,,114.5,0.547,,
113,,iti,,html-keyboard-response,113,195958,0.0-1.0-148.0,0,0,6,,,,,,,,,,,,,,,,,,,,,,,,,,,,,,,,,,,116.0,1.5,,
114,,size_choice,,html-keyboard-response,114,196541,0.0-1.0-150.0,0,0,6,,583.0,,,50.0,37.0,37.0,1.0,1000.0,S-XL,1.0,XL,S,4.0,1.0,car,teabag,car4,teabag10,153.0,139.0,/static/Size_judgement/Stimuli/Size_stims/XL/car/car6.jpg,/static/Size_judgement/Stimuli/Size_stims/S/teabag/teabag4.jpg,1.0,car,teabag,XL,S,4.0,1.0,car4,teabag10,1.0,0.0,116.583,0.583,,
115,,size_choice_confirmation,,html-keyboard-response,115,197463,0.0-1.0-151.0-0.0,0,0,6,,,,,,37.0,,,,,,,,,,,,,,,,,,,,,,,,,,,,,117.5,0.917,,
116,,iti,,html-keyboard-response,116,197565,0.0-1.0-152.0,0,0,6,,,,,,,,,,,,,,,,,,,,,,,,,,,,,,,,,,,118.5,1.0,,
117,,size_choice,,html-keyboard-response,117,198145,0.0-1.0-154.0,0,0,6,,579.0,,,50.0,38.0,38.0,1.0,1500.0,M-XL,1.0,XL,M,4.0,2.0,tractor,handsaw,tractor8,handsaw10,187.0,89.0,/static/Size_judgement/Stimuli/Size_stims/XL/tractor/tractor10.jpg,/static/Size_judgement/Stimuli/Size_stims/M/handsaw/handsaw10.jpg,1.0,tractor,handsaw,XL,M,4.0,2.0,tractor8,handsaw10,1.0,0.0,119.079,0.579,,
118,,size_choice_confirmation,,html-keyboard-response,118,199068,0.0-1.0-155.0-0.0,0,0,6,,,,,,38.0,,,,,,,,,,,,,,,,,,,,,,,,,,,,,120.0,0.9209999999999999,,
119,,iti,,html-keyboard-response,119,199171,0.0-1.0-156.0,0,0,6,,,,,,,,,,,,,,,,,,,,,,,,,,,,,,,,,,,121.5,1.5,,
120,,size_choice,,html-keyboard-response,120,199812,0.0-1.0-158.0,0,0,6,,639.0,,,50.0,39.0,39.0,1.0,1500.0,S-M,1.0,M,S,2.0,1.0,basketball,screws,basketball6,screws9,55.0,128.0,/static/Size_judgement/Stimuli/Size_stims/M/basketball/basketball2.jpg,/static/Size_judgement/Stimuli/Size_stims/S/screws/screws8.jpg,1.0,basketball,screws,M,S,2.0,1.0,basketball6,screws9,1.0,0.0,122.139,0.639,,
121,,size_choice_confirmation,,html-keyboard-response,121,200675,0.0-1.0-159.0-0.0,0,0,6,,,,,,39.0,,,,,,,,,,,,,,,,,,,,,,,,,,,,,123.0,0.861,,
122,,iti,,html-keyboard-response,122,200778,0.0-1.0-160.0,0,0,6,,,,,,,,,,,,,,,,,,,,,,,,,,,,,,,,,,,124.5,1.5,,
123,,size_choice,,html-keyboard-response,123,201598,0.0-1.0-162.0,0,0,6,,819.0,,,51.0,40.0,40.0,1.0,1000.0,M-XL,0.0,M,XL,2.0,4.0,hairdryer,dumptruck,hairdryer1,dumptruck5,70.0,174.0,/static/Size_judgement/Stimuli/Size_stims/M/hairdryer/hairdryer11.jpg,/static/Size_judgement/Stimuli/Size_stims/XL/dumptruck/dumptruck3.jpg,0.0,dumptruck,hairdryer,XL,M,4.0,2.0,dumptruck5,hairdryer1,1.0,0.0,125.319,0.8190000000000001,,
124,,size_choice_confirmation,,html-keyboard-response,124,202286,0.0-1.0-163.0-0.0,0,0,6,,,,,,40.0,,,,,,,,,,,,,,,,,,,,,,,,,,,,,126.0,0.6809999999999999,,
125,,iti,,html-keyboard-response,125,202391,0.0-1.0-164.0,0,0,6,,,,,,,,,,,,,,,,,,,,,,,,,,,,,,,,,,,127.0,1.0,,
126,,size_choice,,html-keyboard-response,126,203136,0.0-1.0-166.0,0,0,6,,744.0,,,51.0,41.0,41.0,1.0,1500.0,S-L,0.0,S,L,1.0,3.0,paperclip,mailbox,paperclip2,mailbox7,111.0,46.0,/static/Size_judgement/Stimuli/Size_stims/S/paperclip/paperclip8.jpg,/static/Size_judgement/Stimuli/Size_stims/L/mailbox/mailbox7.jpg,0.0,mailbox,paperclip,L,S,3.0,1.0,mailbox7,paperclip2,1.0,0.0,127.744,0.7440000000000001,,
127,,size_choice_confirmation,,html-keyboard-response,127,203896,0.0-1.0-167.0-0.0,0,0,6,,,,,,41.0,,,,,,,,,,,,,,,,,,,,,,,,,,,,,128.5,0.7559999999999999,,
128,,iti,,html-keyboard-response,128,203999,0.0-1.0-168.0,0,0,6,,,,,,,,,,,,,,,,,,,,,,,,,,,,,,,,,,,130.0,1.5,,
129,,size_choice,,html-keyboard-response,129,204596,0.0-1.0-170.0,0,0,6,,596.0,,,51.0,42.0,42.0,1.0,2000.0,S-XL,0.0,S,XL,1.0,4.0,thread,dumptruck,thread8,dumptruck10,147.0,179.0,/static/Size_judgement/Stimuli/Size_stims/S/thread/thread10.jpg,/static/Size_judgement/Stimuli/Size_stims/XL/dumptruck/dumptruck4.jpg,0.0,dumptruck,thread,XL,S,4.0,1.0,dumptruck10,thread8,1.0,0.0,130.596,0.596,,
130,,size_choice_confirmation,,html-keyboard-response,130,205505,0.0-1.0-171.0-0.0,0,0,6,,,,,,42.0,,,,,,,,,,,,,,,,,,,,,,,,,,,,,131.5,0.904,,
131,,iti,,html-keyboard-response,131,205610,0.0-1.0-172.0,0,0,6,,,,,,,,,,,,,,,,,,,,,,,,,,,,,,,,,,,133.5,2.0,,
132,,size_choice,,html-keyboard-response,132,206315,0.0-1.0-174.0,0,0,6,,703.0,,,51.0,43.0,43.0,1.0,3000.0,L-XL,0.0,L,XL,3.0,4.0,cooler,tractor,cooler1,tractor10,0.0,189.0,/static/Size_judgement/Stimuli/Size_stims/L/cooler/cooler8.jpg,/static/Size_judgement/Stimuli/Size_stims/XL/tractor/tractor8.jpg,0.0,tractor,cooler,XL,L,4.0,3.0,tractor10,cooler1,1.0,0.0,134.203,0.703,,
133,,size_choice_confirmation,,html-keyboard-response,133,207119,0.0-1.0-175.0-0.0,0,0,6,,,,,,43.0,,,,,,,,,,,,,,,,,,,,,,,,,,,,,135.0,0.797,,
134,,iti,,html-keyboard-response,134,207221,0.0-1.0-176.0,0,0,6,,,,,,,,,,,,,,,,,,,,,,,,,,,,,,,,,,,138.0,3.0,,
135,,size_choice,,html-keyboard-response,135,207798,0.0-1.0-178.0,0,0,6,,576.0,,,51.0,44.0,44.0,1.0,1500.0,M-M,,M,M,2.0,2.0,hairdryer,coffeemaker,hairdryer10,coffeemaker1,79.0,60.0,/static/Size_judgement/Stimuli/Size_stims/M/hairdryer/hairdryer6.jpg,/static/Size_judgement/Stimuli/Size_stims/M/coffeemaker/coffeemaker14.jpg,0.0,coffeemaker,hairdryer,M,M,2.0,2.0,coffeemaker1,hairdryer10,,0.0,138.576,0.5760000000000001,,
136,,size_choice_confirmation,,html-keyboard-response,136,208728,0.0-1.0-179.0-0.0,0,0,6,,,,,,44.0,,,,,,,,,,,,,,,,,,,,,,,,,,,,,139.5,0.924,,
137,,iti,,html-keyboard-response,137,208834,0.0-1.0-180.0,0,0,6,,,,,,,,,,,,,,,,,,,,,,,,,,,,,,,,,,,141.0,1.5,,
138,,block_over,,html-keyboard-response,138,212154,0.0-1.0-181.0-0.0,0,0,6,,3309.0,,,50.0,44.0,,,,,,,,,,,,,,,,,,,,,,,,,,,,,,,,
139,,size_choice,,html-keyboard-response,139,212776,0.0-1.0-182.0,0,0,6,,621.0,,,51.0,45.0,45.0,2.0,3500.0,L-XL,0.0,L,XL,3.0,4.0,cooler,car,cooler4,car3,3.0,152.0,/static/Size_judgement/Stimuli/Size_stims/L/cooler/cooler3.jpg,/static/Size_judgement/Stimuli/Size_stims/XL/car/car4.jpg,0.0,car,cooler,XL,L,4.0,3.0,car3,cooler4,1.0,0.0,141.621,0.621,,
140,,size_choice_confirmation,,html-keyboard-response,140,213662,0.0-1.0-183.0-0.0,0,0,6,,,,,,45.0,,,,,,,,,,,,,,,,,,,,,,,,,,,,,142.5,0.879,,
141,,iti,,html-keyboard-response,141,213763,0.0-1.0-184.0,0,0,6,,,,,,,,,,,,,,,,,,,,,,,,,,,,,,,,,,,146.0,3.5,,
142,,size_choice,,html-keyboard-response,142,214614,0.0-1.0-186.0,0,0,6,,850.0,,,51.0,46.0,46.0,2.0,2000.0,L-L,,L,L,3.0,3.0,deskchair,cooler,deskchair8,cooler2,17.0,1.0,/static/Size_judgement/Stimuli/Size_stims/L/deskchair/deskchair1.jpg,/static/Size_judgement/Stimuli/Size_stims/L/cooler/cooler9.jpg,0.0,cooler,deskchair,L,L,3.0,3.0,cooler2,deskchair8,,0.0,146.85,0.85,,
143,,size_choice_confirmation,,html-keyboard-response,143,215271,0.0-1.0-187.0-0.0,0,0,6,,,,,,46.0,,,,,,,,,,,,,,,,,,,,,,,,,,,,,147.5,0.65,,
144,,iti,,html-keyboard-response,144,215377,0.0-1.0-188.0,0,0,6,,,,,,,,,,,,,,,,,,,,,,,,,,,,,,,,,,,149.5,2.0,,
145,,size_choice,,html-keyboard-response,145,215927,0.0-1.0-190.0,0,0,6,,549.0,,,51.0,47.0,47.0,2.0,1500.0,M-L,0.0,M,L,2.0,3.0,basketball,cooler,basketball3,cooler9,52.0,8.0,/static/Size_judgement/Stimuli/Size_stims/M/basketball/basketball10.jpg,/static/Size_judgement/Stimuli/Size_stims/L/cooler/cooler7.jpg,0.0,cooler,basketball,L,M,3.0,2.0,cooler9,basketball3,1.0,0.0,150.049,0.5489999999999999,,
146,,size_choice_confirmation,,html-keyboard-response,146,216885,0.0-1.0-191.0-0.0,0,0,6,,,,,,47.0,,,,,,,,,,,,,,,,,,,,,,,,,,,,,151.0,0.951,,
147,,iti,,html-keyboard-response,147,216991,0.0-1.0-192.0,0,0,6,,,,,,,,,,,,,,,,,,,,,,,,,,,,,,,,,,,152.5,1.5,,
148,,size_choice,,html-keyboard-response,148,217525,0.0-1.0-194.0,0,0,6,,533.0,,,50.0,48.0,48.0,2.0,1000.0,M-XL,1.0,XL,M,4.0,2.0,car,ketchup,car8,ketchup5,157.0,94.0,/static/Size_judgement/Stimuli/Size_stims/XL/car/car14.jpg,/static/Size_judgement/Stimuli/Size_stims/M/ketchup/ketchup3.jpg,1.0,car,ketchup,XL,M,4.0,2.0,car8,ketchup5,1.0,0.0,153.033,0.5329999999999999,,
149,,size_choice_confirmation,,html-keyboard-response,149,218494,0.0-1.0-195.0-0.0,0,0,6,,,,,,48.0,,,,,,,,,,,,,,,,,,,,,,,,,,,,,154.0,0.9670000000000001,,
150,,iti,,html-keyboard-response,150,218596,0.0-1.0-196.0,0,0,6,,,,,,,,,,,,,,,,,,,,,,,,,,,,,,,,,,,155.0,1.0,,
151,,size_choice,,html-keyboard-response,151,219521,0.0-1.0-198.0,0,0,6,,924.0,,,50.0,49.0,49.0,2.0,1000.0,S-S,,S,S,1.0,1.0,die,thread,die3,thread6,102.0,145.0,/static/Size_judgement/Stimuli/Size_stims/S/die/die10.jpg,/static/Size_judgement/Stimuli/Size_stims/S/thread/thread2.jpg,1.0,die,thread,S,S,1.0,1.0,die3,thread6,,0.0,155.924,0.924,,
152,,size_choice_confirmation,,html-keyboard-response,152,220102,0.0-1.0-199.0-0.0,0,0,6,,,,,,49.0,,,,,,,,,,,,,,,,,,,,,,,,,,,,,156.5,0.5760000000000001,,
153,,iti,,html-keyboard-response,153,220205,0.0-1.0-200.0,0,0,6,,,,,,,,,,,,,,,,,,,,,,,,,,,,,,,,,,,157.5,1.0,,
154,,size_choice,,html-keyboard-response,154,220776,0.0-1.0-202.0,0,0,6,,570.0,,,51.0,50.0,50.0,2.0,2000.0,S-XL,0.0,S,XL,1.0,4.0,thread,car,thread3,car10,142.0,159.0,/static/Size_judgement/Stimuli/Size_stims/S/thread/thread4.jpg,/static/Size_judgement/Stimuli/Size_stims/XL/car/car9.jpg,0.0,car,thread,XL,S,4.0,1.0,car10,thread3,1.0,0.0,158.07,0.57,,
155,,size_choice_confirmation,,html-keyboard-response,155,221707,0.0-1.0-203.0-0.0,0,0,6,,,,,,50.0,,,,,,,,,,,,,,,,,,,,,,,,,,,,,159.0,0.93,,
156,,iti,,html-keyboard-response,156,221811,0.0-1.0-204.0,0,0,6,,,,,,,,,,,,,,,,,,,,,,,,,,,,,,,,,,,161.0,2.0,,
157,,size_choice,,html-keyboard-response,157,222624,0.0-1.0-206.0,0,0,6,,812.0,,,51.0,51.0,51.0,2.0,2000.0,M-M,,M,M,2.0,2.0,ketchup,basketball,ketchup9,basketball9,98.0,58.0,/static/Size_judgement/Stimuli/Size_stims/M/ketchup/ketchup7.jpg,/static/Size_judgement/Stimuli/Size_stims/M/basketball/basketball5.jpg,0.0,basketball,ketchup,M,M,2.0,2.0,basketball9,ketchup9,,0.0,161.812,0.812,,
158,,size_choice_confirmation,,html-keyboard-response,158,223316,0.0-1.0-207.0-0.0,0,0,6,,,,,,51.0,,,,,,,,,,,,,,,,,,,,,,,,,,,,,162.5,0.688,,
159,,iti,,html-keyboard-response,159,223420,0.0-1.0-208.0,0,0,6,,,,,,,,,,,,,,,,,,,,,,,,,,,,,,,,,,,164.5,2.0,,
160,,size_choice,,html-keyboard-response,160,224535,0.0-1.0-210.0,0,0,6,,1114.0,,,51.0,52.0,52.0,2.0,1500.0,S-M,0.0,S,M,1.0,2.0,thread,ketchup,thread4,ketchup7,143.0,96.0,/static/Size_judgement/Stimuli/Size_stims/S/thread/thread5.jpg,/static/Size_judgement/Stimuli/Size_stims/M/ketchup/ketchup4.jpg,0.0,ketchup,thread,M,S,2.0,1.0,ketchup7,thread4,1.0,0.0,165.614,1.114,,
161,,size_choice_confirmation,,html-keyboard-response,161,224926,0.0-1.0-211.0-0.0,0,0,6,,,,,,52.0,,,,,,,,,,,,,,,,,,,,,,,,,,,,,166.0,0.386,,
162,,iti,,html-keyboard-response,162,225029,0.0-1.0-212.0,0,0,6,,,,,,,,,,,,,,,,,,,,,,,,,,,,,,,,,,,167.5,1.5,,
163,,size_choice,,html-keyboard-response,163,225723,0.0-1.0-214.0,0,0,6,,693.0,,,51.0,53.0,53.0,2.0,1500.0,M-XL,0.0,M,XL,2.0,4.0,ketchup,van,ketchup1,van8,90.0,197.0,/static/Size_judgement/Stimuli/Size_stims/M/ketchup/ketchup8.jpg,/static/Size_judgement/Stimuli/Size_stims/XL/van/van10.jpg,0.0,van,ketchup,XL,M,4.0,2.0,van8,ketchup1,1.0,0.0,168.19299999999998,0.693,,
164,,size_choice_confirmation,,html-keyboard-response,164,226533,0.0-1.0-215.0-0.0,0,0,6,,,,,,53.0,,,,,,,,,,,,,,,,,,,,,,,,,,,,,169.0,0.807,,
165,,iti,,html-keyboard-response,165,226635,0.0-1.0-216.0,0,0,6,,,,,,,,,,,,,,,,,,,,,,,,,,,,,,,,,,,170.5,1.5,,
166,,size_choice,,html-keyboard-response,166,227373,0.0-1.0-218.0,0,0,6,,737.0,,,51.0,54.0,54.0,2.0,2000.0,XL-XL,,XL,XL,4.0,4.0,dumptruck,car,dumptruck1,car2,170.0,151.0,/static/Size_judgement/Stimuli/Size_stims/XL/dumptruck/dumptruck9.jpg,/static/Size_judgement/Stimuli/Size_stims/XL/car/car3.jpg,0.0,car,dumptruck,XL,XL,4.0,4.0,car2,dumptruck1,,0.0,171.237,0.737,,
167,,size_choice_confirmation,,html-keyboard-response,167,228139,0.0-1.0-219.0-0.0,0,0,6,,,,,,54.0,,,,,,,,,,,,,,,,,,,,,,,,,,,,,172.0,0.763,,
168,,iti,,html-keyboard-response,168,228242,0.0-1.0-220.0,0,0,6,,,,,,,,,,,,,,,,,,,,,,,,,,,,,,,,,,,174.0,2.0,,
169,,size_choice,,html-keyboard-response,169,228923,0.0-1.0-222.0,0,0,6,,680.0,,,50.0,55.0,55.0,2.0,1000.0,M-L,1.0,L,M,3.0,2.0,mailbox,coffeemaker,mailbox10,coffeemaker10,49.0,69.0,/static/Size_judgement/Stimuli/Size_stims/L/mailbox/mailbox8.jpg,/static/Size_judgement/Stimuli/Size_stims/M/coffeemaker/coffeemaker18.jpg,1.0,mailbox,coffeemaker,L,M,3.0,2.0,mailbox10,coffeemaker10,1.0,0.0,174.68,0.68,,
170,,size_choice_confirmation,,html-keyboard-response,170,229746,0.0-1.0-223.0-0.0,0,0,6,,,,,,55.0,,,,,,,,,,,,,,,,,,,,,,,,,,,,,175.5,0.82,,
171,,iti,,html-keyboard-response,171,229850,0.0-1.0-224.0,0,0,6,,,,,,,,,,,,,,,,,,,,,,,,,,,,,,,,,,,176.5,1.0,,
172,,size_choice,,html-keyboard-response,172,230417,0.0-1.0-226.0,0,0,6,,566.0,,,51.0,56.0,56.0,2.0,1000.0,M-XL,0.0,M,XL,2.0,4.0,hairdryer,van,hairdryer4,van5,73.0,194.0,/static/Size_judgement/Stimuli/Size_stims/M/hairdryer/hairdryer16.jpg,/static/Size_judgement/Stimuli/Size_stims/XL/van/van3.jpg,0.0,van,hairdryer,XL,M,4.0,2.0,van5,hairdryer4,1.0,0.0,177.06599999999997,0.5660000000000001,,
173,,size_choice_confirmation,,html-keyboard-response,173,231357,0.0-1.0-227.0-0.0,0,0,6,,,,,,56.0,,,,,,,,,,,,,,,,,,,,,,,,,,,,,178.0,0.934,,
174,,iti,,html-keyboard-response,174,231459,0.0-1.0-228.0,0,0,6,,,,,,,,,,,,,,,,,,,,,,,,,,,,,,,,,,,179.0,1.0,,
175,,size_choice,,html-keyboard-response,175,231989,0.0-1.0-230.0,0,0,6,,529.0,,,51.0,57.0,57.0,2.0,1000.0,S-L,0.0,S,L,1.0,3.0,die,mailbox,die10,mailbox6,109.0,45.0,/static/Size_judgement/Stimuli/Size_stims/S/die/die6.jpg,/static/Size_judgement/Stimuli/Size_stims/L/mailbox/mailbox6.jpg,0.0,mailbox,die,L,S,3.0,1.0,mailbox6,die10,1.0,0.0,179.52900000000002,0.529,,
176,,size_choice_confirmation,,html-keyboard-response,176,232965,0.0-1.0-231.0-0.0,0,0,6,,,,,,57.0,,,,,,,,,,,,,,,,,,,,,,,,,,,,,180.5,0.971,,
177,,iti,,html-keyboard-response,177,233070,0.0-1.0-232.0,0,0,6,,,,,,,,,,,,,,,,,,,,,,,,,,,,,,,,,,,181.5,1.0,,
178,,size_choice,,html-keyboard-response,178,233578,0.0-1.0-234.0,0,0,6,,507.0,,,50.0,58.0,58.0,2.0,3000.0,M-XL,1.0,XL,M,4.0,2.0,crane,ketchup,crane6,ketchup6,165.0,95.0,/static/Size_judgement/Stimuli/Size_stims/XL/crane/crane2.jpg,/static/Size_judgement/Stimuli/Size_stims/M/ketchup/ketchup1.jpg,1.0,crane,ketchup,XL,M,4.0,2.0,crane6,ketchup6,1.0,0.0,182.007,0.507,,
179,,size_choice_confirmation,,html-keyboard-response,179,234577,0.0-1.0-235.0-0.0,0,0,6,,,,,,58.0,,,,,,,,,,,,,,,,,,,,,,,,,,,,,183.0,0.993,,
180,,iti,,html-keyboard-response,180,234680,0.0-1.0-236.0,0,0,6,,,,,,,,,,,,,,,,,,,,,,,,,,,,,,,,,,,186.0,3.0,,
181,,size_choice,,html-keyboard-response,181,235377,0.0-1.0-238.0,0,0,6,,696.0,,,50.0,59.0,59.0,2.0,1500.0,S-XL,1.0,XL,S,4.0,1.0,van,teabag,van4,teabag3,193.0,132.0,/static/Size_judgement/Stimuli/Size_stims/XL/van/van7.jpg,/static/Size_judgement/Stimuli/Size_stims/S/teabag/teabag1.jpg,1.0,van,teabag,XL,S,4.0,1.0,van4,teabag3,1.0,0.0,186.696,0.696,,
182,,size_choice_confirmation,,html-keyboard-response,182,236188,0.0-1.0-239.0-0.0,0,0,6,,,,,,59.0,,,,,,,,,,,,,,,,,,,,,,,,,,,,,187.5,0.804,,
183,,iti,,html-keyboard-response,183,236289,0.0-1.0-240.0,0,0,6,,,,,,,,,,,,,,,,,,,,,,,,,,,,,,,,,,,189.0,1.5,,
184,,size_choice,,html-keyboard-response,184,236822,0.0-1.0-242.0,0,0,6,,532.0,,,51.0,60.0,60.0,2.0,1500.0,S-L,0.0,S,L,1.0,3.0,paperclip,deskchair,paperclip4,deskchair3,113.0,12.0,/static/Size_judgement/Stimuli/Size_stims/S/paperclip/paperclip3.jpg,/static/Size_judgement/Stimuli/Size_stims/L/deskchair/deskchair10.jpg,0.0,deskchair,paperclip,L,S,3.0,1.0,deskchair3,paperclip4,1.0,0.0,189.532,0.532,,
185,,size_choice_confirmation,,html-keyboard-response,185,237793,0.0-1.0-243.0-0.0,0,0,6,,,,,,60.0,,,,,,,,,,,,,,,,,,,,,,,,,,,,,190.5,0.968,,
186,,iti,,html-keyboard-response,186,237897,0.0-1.0-244.0,0,0,6,,,,,,,,,,,,,,,,,,,,,,,,,,,,,,,,,,,192.0,1.5,,
187,,size_choice,,html-keyboard-response,187,238657,0.0-1.0-246.0,0,0,6,,759.0,,,50.0,61.0,61.0,2.0,1000.0,L-L,,L,L,3.0,3.0,dishwasher,garbagecan,dishwasher5,garbagecan1,24.0,30.0,/static/Size_judgement/Stimuli/Size_stims/L/dishwasher/dishwasher4.jpg,/static/Size_judgement/Stimuli/Size_stims/L/garbagecan/garbagecan4.jpg,1.0,dishwasher,garbagecan,L,L,3.0,3.0,dishwasher5,garbagecan1,,0.0,192.75900000000001,0.759,,
188,,size_choice_confirmation,,html-keyboard-response,188,239405,0.0-1.0-247.0-0.0,0,0,6,,,,,,61.0,,,,,,,,,,,,,,,,,,,,,,,,,,,,,193.5,0.741,,
189,,iti,,html-keyboard-response,189,239508,0.0-1.0-248.0,0,0,6,,,,,,,,,,,,,,,,,,,,,,,,,,,,,,,,,,,194.5,1.0,,
190,,size_choice,,html-keyboard-response,190,240333,0.0-1.0-250.0,0,0,6,,824.0,,,51.0,62.0,62.0,2.0,1000.0,M-L,0.0,M,L,2.0,3.0,ketchup,deskchair,ketchup3,deskchair7,92.0,16.0,/static/Size_judgement/Stimuli/Size_stims/M/ketchup/ketchup10.jpg,/static/Size_judgement/Stimuli/Size_stims/L/deskchair/deskchair4.jpg,0.0,deskchair,ketchup,L,M,3.0,2.0,deskchair7,ketchup3,1.0,0.0,195.324,0.8240000000000001,,
191,,size_choice_confirmation,,html-keyboard-response,191,241014,0.0-1.0-251.0-0.0,0,0,6,,,,,,62.0,,,,,,,,,,,,,,,,,,,,,,,,,,,,,196.0,0.6759999999999999,,
192,,iti,,html-keyboard-response,192,241119,0.0-1.0-252.0,0,0,6,,,,,,,,,,,,,,,,,,,,,,,,,,,,,,,,,,,197.0,1.0,,
193,,size_choice,,html-keyboard-response,193,241762,0.0-1.0-254.0,0,0,6,,642.0,,,51.0,63.0,63.0,2.0,2000.0,S-M,0.0,S,M,1.0,2.0,teabag,coffeemaker,teabag2,coffeemaker3,131.0,62.0,/static/Size_judgement/Stimuli/Size_stims/S/teabag/teabag8.jpg,/static/Size_judgement/Stimuli/Size_stims/M/coffeemaker/coffeemaker13.jpg,0.0,coffeemaker,teabag,M,S,2.0,1.0,coffeemaker3,teabag2,1.0,0.0,197.642,0.642,,
194,,size_choice_confirmation,,html-keyboard-response,194,242621,0.0-1.0-255.0-0.0,0,0,6,,,,,,63.0,,,,,,,,,,,,,,,,,,,,,,,,,,,,,198.5,0.858,,
195,,iti,,html-keyboard-response,195,242726,0.0-1.0-256.0,0,0,6,,,,,,,,,,,,,,,,,,,,,,,,,,,,,,,,,,,200.5,2.0,,
196,,size_choice,,html-keyboard-response,196,243370,0.0-1.0-258.0,0,0,6,,642.0,,,50.0,64.0,64.0,2.0,1000.0,M-L,0.0,M,L,2.0,3.0,coffeemaker,garbagecan,coffeemaker6,garbagecan10,65.0,39.0,/static/Size_judgement/Stimuli/Size_stims/M/coffeemaker/coffeemaker8.jpg,/static/Size_judgement/Stimuli/Size_stims/L/garbagecan/garbagecan11.jpg,1.0,coffeemaker,garbagecan,M,L,2.0,3.0,coffeemaker6,garbagecan10,0.0,0.0,201.142,0.642,,
197,,size_choice_confirmation,,html-keyboard-response,197,244232,0.0-1.0-259.0-0.0,0,0,6,,,,,,64.0,,,,,,,,,,,,,,,,,,,,,,,,,,,,,202.0,0.858,,
198,,iti,,html-keyboard-response,198,244338,0.0-1.0-260.0,0,0,6,,,,,,,,,,,,,,,,,,,,,,,,,,,,,,,,,,,203.0,1.0,,
199,,size_choice,,html-keyboard-response,199,244894,0.0-1.0-262.0,0,0,6,,555.0,,,50.0,65.0,65.0,2.0,1000.0,S-XL,1.0,XL,S,4.0,1.0,crane,paperclip,crane1,paperclip3,160.0,112.0,/static/Size_judgement/Stimuli/Size_stims/XL/crane/crane7.jpg,/static/Size_judgement/Stimuli/Size_stims/S/paperclip/paperclip1.jpg,1.0,crane,paperclip,XL,S,4.0,1.0,crane1,paperclip3,1.0,0.0,203.555,0.555,,
200,,size_choice_confirmation,,html-keyboard-response,200,245844,0.0-1.0-263.0-0.0,0,0,6,,,,,,65.0,,,,,,,,,,,,,,,,,,,,,,,,,,,,,204.5,0.945,,
201,,iti,,html-keyboard-response,201,245946,0.0-1.0-264.0,0,0,6,,,,,,,,,,,,,,,,,,,,,,,,,,,,,,,,,,,205.5,1.0,,
202,,size_choice,,html-keyboard-response,202,246828,0.0-1.0-266.0,0,0,6,,880.0,,,50.0,66.0,66.0,2.0,2000.0,M-M,,M,M,2.0,2.0,hairdryer,handsaw,hairdryer9,handsaw4,78.0,83.0,/static/Size_judgement/Stimuli/Size_stims/M/hairdryer/hairdryer5.jpg,/static/Size_judgement/Stimuli/Size_stims/M/handsaw/handsaw3.jpg,1.0,hairdryer,handsaw,M,M,2.0,2.0,hairdryer9,handsaw4,,0.0,206.38,0.88,,
203,,size_choice_confirmation,,html-keyboard-response,203,247451,0.0-1.0-267.0-0.0,0,0,6,,,,,,66.0,,,,,,,,,,,,,,,,,,,,,,,,,,,,,207.0,0.62,,
204,,iti,,html-keyboard-response,204,247552,0.0-1.0-268.0,0,0,6,,,,,,,,,,,,,,,,,,,,,,,,,,,,,,,,,,,209.0,2.0,,
205,,size_choice,,html-keyboard-response,205,248404,0.0-1.0-270.0,0,0,6,,851.0,,,50.0,67.0,67.0,2.0,1500.0,S-S,,S,S,1.0,1.0,paperclip,screws,paperclip1,screws10,110.0,129.0,/static/Size_judgement/Stimuli/Size_stims/S/paperclip/paperclip9.jpg,/static/Size_judgement/Stimuli/Size_stims/S/screws/screws9.jpg,1.0,paperclip,screws,S,S,1.0,1.0,paperclip1,screws10,,0.0,209.851,0.851,,
206,,size_choice_confirmation,,html-keyboard-response,206,249059,0.0-1.0-271.0-0.0,0,0,6,,,,,,67.0,,,,,,,,,,,,,,,,,,,,,,,,,,,,,210.5,0.649,,
207,,iti,,html-keyboard-response,207,249165,0.0-1.0-272.0,0,0,6,,,,,,,,,,,,,,,,,,,,,,,,,,,,,,,,,,,212.0,1.5,,
208,,size_choice,,html-keyboard-response,208,250435,0.0-1.0-274.0,0,0,6,,1269.0,,,50.0,68.0,68.0,2.0,1500.0,M-XL,1.0,XL,M,4.0,2.0,tractor,coffeemaker,tractor2,coffeemaker7,181.0,66.0,/static/Size_judgement/Stimuli/Size_stims/XL/tractor/tractor7.jpg,/static/Size_judgement/Stimuli/Size_stims/M/coffeemaker/coffeemaker9.jpg,1.0,tractor,coffeemaker,XL,M,4.0,2.0,tractor2,coffeemaker7,1.0,0.0,213.269,1.2690000000000001,,
209,,size_choice_confirmation,,html-keyboard-response,209,250670,0.0-1.0-275.0-0.0,0,0,6,,,,,,68.0,,,,,,,,,,,,,,,,,,,,,,,,,,,,,213.5,0.231,,
210,,iti,,html-keyboard-response,210,250771,0.0-1.0-276.0,0,0,6,,,,,,,,,,,,,,,,,,,,,,,,,,,,,,,,,,,215.0,1.5,,
211,,size_choice,,html-keyboard-response,211,251670,0.0-1.0-278.0,0,0,6,,898.0,,,50.0,69.0,69.0,2.0,2000.0,L-XL,1.0,XL,L,4.0,3.0,crane,deskchair,crane4,deskchair1,163.0,10.0,/static/Size_judgement/Stimuli/Size_stims/XL/crane/crane5.jpg,/static/Size_judgement/Stimuli/Size_stims/L/deskchair/deskchair9.jpg,1.0,crane,deskchair,XL,L,4.0,3.0,crane4,deskchair1,1.0,0.0,215.898,0.898,,
212,,size_choice_confirmation,,html-keyboard-response,212,252277,0.0-1.0-279.0-0.0,0,0,6,,,,,,69.0,,,,,,,,,,,,,,,,,,,,,,,,,,,,,216.5,0.602,,
213,,iti,,html-keyboard-response,213,252381,0.0-1.0-280.0,0,0,6,,,,,,,,,,,,,,,,,,,,,,,,,,,,,,,,,,,218.5,2.0,,
214,,size_choice,,html-keyboard-response,214,253374,0.0-1.0-282.0,0,0,6,,991.0,,,51.0,70.0,70.0,2.0,2000.0,S-L,1.0,L,S,3.0,1.0,garbagecan,die,garbagecan6,die8,35.0,107.0,/static/Size_judgement/Stimuli/Size_stims/L/garbagecan/garbagecan14.jpg,/static/Size_judgement/Stimuli/Size_stims/S/die/die5.jpg,0.0,die,garbagecan,S,L,1.0,3.0,die8,garbagecan6,0.0,0.0,219.49099999999999,0.991,,
215,,size_choice_confirmation,,html-keyboard-response,215,253885,0.0-1.0-283.0-0.0,0,0,6,,,,,,70.0,,,,,,,,,,,,,,,,,,,,,,,,,,,,,220.0,0.509,,
216,,iti,,html-keyboard-response,216,253988,0.0-1.0-284.0,0,0,6,,,,,,,,,,,,,,,,,,,,,,,,,,,,,,,,,,,222.0,2.0,,
217,,size_choice,,html-keyboard-response,217,254544,0.0-1.0-286.0,0,0,6,,555.0,,,51.0,71.0,71.0,2.0,1000.0,M-L,0.0,M,L,2.0,3.0,handsaw,cooler,handsaw6,cooler5,85.0,4.0,/static/Size_judgement/Stimuli/Size_stims/M/handsaw/handsaw4.jpg,/static/Size_judgement/Stimuli/Size_stims/L/cooler/cooler10.jpg,0.0,cooler,handsaw,L,M,3.0,2.0,cooler5,handsaw6,1.0,0.0,222.555,0.555,,
218,,size_choice_confirmation,,html-keyboard-response,218,255495,0.0-1.0-287.0-0.0,0,0,6,,,,,,71.0,,,,,,,,,,,,,,,,,,,,,,,,,,,,,223.5,0.945,,
219,,iti,,html-keyboard-response,219,255600,0.0-1.0-288.0,0,0,6,,,,,,,,,,,,,,,,,,,,,,,,,,,,,,,,,,,224.5,1.0,,
220,,size_choice,,html-keyboard-response,220,256267,0.0-1.0-290.0,0,0,6,,665.0,,,51.0,72.0,72.0,2.0,1000.0,S-L,0.0,S,L,1.0,3.0,screws,mailbox,screws4,mailbox1,123.0,40.0,/static/Size_judgement/Stimuli/Size_stims/S/screws/screws6.jpg,/static/Size_judgement/Stimuli/Size_stims/L/mailbox/mailbox3.jpg,0.0,mailbox,screws,L,S,3.0,1.0,mailbox1,screws4,1.0,0.0,225.165,0.665,,
221,,size_choice_confirmation,,html-keyboard-response,221,257108,0.0-1.0-291.0-0.0,0,0,6,,,,,,72.0,,,,,,,,,,,,,,,,,,,,,,,,,,,,,226.0,0.835,,
222,,iti,,html-keyboard-response,222,257212,0.0-1.0-292.0,0,0,6,,,,,,,,,,,,,,,,,,,,,,,,,,,,,,,,,,,227.0,1.0,,
223,,size_choice,,html-keyboard-response,223,257773,0.0-1.0-294.0,0,0,6,,560.0,,,51.0,73.0,73.0,2.0,1000.0,S-XL,0.0,S,XL,1.0,4.0,thread,car,thread5,car1,144.0,150.0,/static/Size_judgement/Stimuli/Size_stims/S/thread/thread1.jpg,/static/Size_judgement/Stimuli/Size_stims/XL/car/car2.jpg,0.0,car,thread,XL,S,4.0,1.0,car1,thread5,1.0,0.0,227.56,0.56,,
224,,size_choice_confirmation,,html-keyboard-response,224,258715,0.0-1.0-295.0-0.0,0,0,6,,,,,,73.0,,,,,,,,,,,,,,,,,,,,,,,,,,,,,228.5,0.94,,
225,,iti,,html-keyboard-response,225,258821,0.0-1.0-296.0,0,0,6,,,,,,,,,,,,,,,,,,,,,,,,,,,,,,,,,,,229.5,1.0,,
226,,size_choice,,html-keyboard-response,226,259570,0.0-1.0-298.0,0,0,6,,747.0,,,50.0,74.0,74.0,2.0,1000.0,XL-XL,,XL,XL,4.0,4.0,van,tractor,van6,tractor9,195.0,188.0,/static/Size_judgement/Stimuli/Size_stims/XL/van/van2.jpg,/static/Size_judgement/Stimuli/Size_stims/XL/tractor/tractor9.jpg,1.0,van,tractor,XL,XL,4.0,4.0,van6,tractor9,,0.0,230.247,0.747,,
227,,size_choice_confirmation,,html-keyboard-response,227,260327,0.0-1.0-299.0-0.0,0,0,6,,,,,,74.0,,,,,,,,,,,,,,,,,,,,,,,,,,,,,231.0,0.753,,
228,,iti,,html-keyboard-response,228,260432,0.0-1.0-300.0,0,0,6,,,,,,,,,,,,,,,,,,,,,,,,,,,,,,,,,,,232.0,1.0,,
229,,size_choice,,html-keyboard-response,229,261017,0.0-1.0-302.0,0,0,6,,584.0,,,51.0,75.0,75.0,2.0,1500.0,M-XL,0.0,M,XL,2.0,4.0,basketball,van,basketball7,van7,56.0,196.0,/static/Size_judgement/Stimuli/Size_stims/M/basketball/basketball6.jpg,/static/Size_judgement/Stimuli/Size_stims/XL/van/van1.jpg,0.0,van,basketball,XL,M,4.0,2.0,van7,basketball7,1.0,0.0,232.584,0.584,,
230,,size_choice_confirmation,,html-keyboard-response,230,261936,0.0-1.0-303.0-0.0,0,0,6,,,,,,75.0,,,,,,,,,,,,,,,,,,,,,,,,,,,,,233.5,0.9159999999999999,,
231,,iti,,html-keyboard-response,231,262037,0.0-1.0-304.0,0,0,6,,,,,,,,,,,,,,,,,,,,,,,,,,,,,,,,,,,235.0,1.5,,
232,,size_choice,,html-keyboard-response,232,262569,0.0-1.0-306.0,0,0,6,,531.0,,,50.0,76.0,76.0,2.0,1500.0,S-XL,1.0,XL,S,4.0,1.0,dumptruck,teabag,dumptruck7,teabag5,176.0,134.0,/static/Size_judgement/Stimuli/Size_stims/XL/dumptruck/dumptruck6.jpg,/static/Size_judgement/Stimuli/Size_stims/S/teabag/teabag2.jpg,1.0,dumptruck,teabag,XL,S,4.0,1.0,dumptruck7,teabag5,1.0,0.0,235.53099999999998,0.531,,
233,,size_choice_confirmation,,html-keyboard-response,233,263545,0.0-1.0-307.0-0.0,0,0,6,,,,,,76.0,,,,,,,,,,,,,,,,,,,,,,,,,,,,,236.5,0.9690000000000001,,
234,,iti,,html-keyboard-response,234,263647,0.0-1.0-308.0,0,0,6,,,,,,,,,,,,,,,,,,,,,,,,,,,,,,,,,,,238.0,1.5,,
235,,size_choice,,html-keyboard-response,235,264225,0.0-1.0-310.0,0,0,6,,577.0,,,51.0,77.0,77.0,2.0,1500.0,M-L,0.0,M,L,2.0,3.0,ketchup,deskchair,ketchup8,deskchair6,97.0,15.0,/static/Size_judgement/Stimuli/Size_stims/M/ketchup/ketchup5.jpg,/static/Size_judgement/Stimuli/Size_stims/L/deskchair/deskchair5.jpg,0.0,deskchair,ketchup,L,M,3.0,2.0,deskchair6,ketchup8,1.0,0.0,238.577,0.5770000000000001,,
236,,size_choice_confirmation,,html-keyboard-response,236,265153,0.0-1.0-311.0-0.0,0,0,6,,,,,,77.0,,,,,,,,,,,,,,,,,,,,,,,,,,,,,239.5,0.9229999999999999,,
237,,iti,,html-keyboard-response,237,265259,0.0-1.0-312.0,0,0,6,,,,,,,,,,,,,,,,,,,,,,,,,,,,,,,,,,,241.0,1.5,,
238,,size_choice,,html-keyboard-response,238,265864,0.0-1.0-314.0,0,0,6,,604.0,,,50.0,78.0,78.0,2.0,3000.0,S-XL,1.0,XL,S,4.0,1.0,crane,paperclip,crane2,paperclip7,161.0,116.0,/static/Size_judgement/Stimuli/Size_stims/XL/crane/crane6.jpg,/static/Size_judgement/Stimuli/Size_stims/S/paperclip/paperclip7.jpg,1.0,crane,paperclip,XL,S,4.0,1.0,crane2,paperclip7,1.0,0.0,241.604,0.604,,
239,,size_choice_confirmation,,html-keyboard-response,239,266762,0.0-1.0-315.0-0.0,0,0,6,,,,,,78.0,,,,,,,,,,,,,,,,,,,,,,,,,,,,,242.5,0.8959999999999999,,
240,,iti,,html-keyboard-response,240,266866,0.0-1.0-316.0,0,0,6,,,,,,,,,,,,,,,,,,,,,,,,,,,,,,,,,,,245.5,3.0,,
241,,size_choice,,html-keyboard-response,241,267548,0.0-1.0-318.0,0,0,6,,681.0,,,50.0,79.0,79.0,2.0,3500.0,M-XL,1.0,XL,M,4.0,2.0,crane,coffeemaker,crane10,coffeemaker2,169.0,61.0,/static/Size_judgement/Stimuli/Size_stims/XL/crane/crane9.jpg,/static/Size_judgement/Stimuli/Size_stims/M/coffeemaker/coffeemaker12.jpg,1.0,crane,coffeemaker,XL,M,4.0,2.0,crane10,coffeemaker2,1.0,0.0,246.18099999999998,0.6809999999999999,,
242,,size_choice_confirmation,,html-keyboard-response,242,268374,0.0-1.0-319.0-0.0,0,0,6,,,,,,79.0,,,,,,,,,,,,,,,,,,,,,,,,,,,,,247.0,0.8190000000000001,,
243,,iti,,html-keyboard-response,243,268475,0.0-1.0-320.0,0,0,6,,,,,,,,,,,,,,,,,,,,,,,,,,,,,,,,,,,250.5,3.5,,
244,,size_choice,,html-keyboard-response,244,268994,0.0-1.0-322.0,0,0,6,,518.0,,,50.0,80.0,80.0,2.0,3000.0,S-L,1.0,L,S,3.0,1.0,mailbox,screws,mailbox4,screws1,43.0,120.0,/static/Size_judgement/Stimuli/Size_stims/L/mailbox/mailbox5.jpg,/static/Size_judgement/Stimuli/Size_stims/S/screws/screws4.jpg,1.0,mailbox,screws,L,S,3.0,1.0,mailbox4,screws1,1.0,0.0,251.018,0.518,,
245,,size_choice_confirmation,,html-keyboard-response,245,269978,0.0-1.0-323.0-0.0,0,0,6,,,,,,80.0,,,,,,,,,,,,,,,,,,,,,,,,,,,,,252.0,0.982,,
246,,iti,,html-keyboard-response,246,270079,0.0-1.0-324.0,0,0,6,,,,,,,,,,,,,,,,,,,,,,,,,,,,,,,,,,,255.0,3.0,,
247,,size_choice,,html-keyboard-response,247,270601,0.0-1.0-326.0,0,0,6,,520.0,,,50.0,81.0,81.0,2.0,1000.0,S-L,1.0,L,S,3.0,1.0,dishwasher,teabag,dishwasher6,teabag1,25.0,130.0,/static/Size_judgement/Stimuli/Size_stims/L/dishwasher/dishwasher6.jpg,/static/Size_judgement/Stimuli/Size_stims/S/teabag/teabag9.jpg,1.0,dishwasher,teabag,L,S,3.0,1.0,dishwasher6,teabag1,1.0,0.0,255.52,0.52,,
248,,size_choice_confirmation,,html-keyboard-response,248,271587,0.0-1.0-327.0-0.0,0,0,6,,,,,,81.0,,,,,,,,,,,,,,,,,,,,,,,,,,,,,256.5,0.98,,
249,,iti,,html-keyboard-response,249,271691,0.0-1.0-328.0,0,0,6,,,,,,,,,,,,,,,,,,,,,,,,,,,,,,,,,,,257.5,1.0,,
250,,size_choice,,html-keyboard-response,250,272366,0.0-1.0-330.0,0,0,6,,674.0,,,50.0,82.0,82.0,2.0,1000.0,M-L,1.0,L,M,3.0,2.0,garbagecan,basketball,garbagecan5,basketball1,34.0,50.0,/static/Size_judgement/Stimuli/Size_stims/L/garbagecan/garbagecan3.jpg,/static/Size_judgement/Stimuli/Size_stims/M/basketball/basketball9.jpg,1.0,garbagecan,basketball,L,M,3.0,2.0,garbagecan5,basketball1,1.0,0.0,258.17400000000004,0.674,,
251,,size_choice_confirmation,,html-keyboard-response,251,273194,0.0-1.0-331.0-0.0,0,0,6,,,,,,82.0,,,,,,,,,,,,,,,,,,,,,,,,,,,,,259.0,0.826,,
252,,iti,,html-keyboard-response,252,273301,0.0-1.0-332.0,0,0,6,,,,,,,,,,,,,,,,,,,,,,,,,,,,,,,,,,,260.0,1.0,,
253,,size_choice,,html-keyboard-response,253,273835,0.0-1.0-334.0,0,0,6,,533.0,,,50.0,83.0,83.0,2.0,3000.0,S-XL,1.0,XL,S,4.0,1.0,crane,screws,crane3,screws7,162.0,126.0,/static/Size_judgement/Stimuli/Size_stims/XL/crane/crane4.jpg,/static/Size_judgement/Stimuli/Size_stims/S/screws/screws1.jpg,1.0,crane,screws,XL,S,4.0,1.0,crane3,screws7,1.0,0.0,260.533,0.5329999999999999,,
254,,size_choice_confirmation,,html-keyboard-response,254,274805,0.0-1.0-335.0-0.0,0,0,6,,,,,,83.0,,,,,,,,,,,,,,,,,,,,,,,,,,,,,261.5,0.9670000000000001,,
255,,iti,,html-keyboard-response,255,274911,0.0-1.0-336.0,0,0,6,,,,,,,,,,,,,,,,,,,,,,,,,,,,,,,,,,,264.5,3.0,,
256,,size_choice,,html-keyboard-response,256,275430,0.0-1.0-338.0,0,0,6,,517.0,,,50.0,84.0,84.0,2.0,3500.0,S-L,1.0,L,S,3.0,1.0,deskchair,screws,deskchair9,screws3,18.0,122.0,/static/Size_judgement/Stimuli/Size_stims/L/deskchair/deskchair3.jpg,/static/Size_judgement/Stimuli/Size_stims/S/screws/screws7.jpg,1.0,deskchair,screws,L,S,3.0,1.0,deskchair9,screws3,1.0,0.0,265.017,0.517,,
257,,size_choice_confirmation,,html-keyboard-response,257,276419,0.0-1.0-339.0-0.0,0,0,6,,,,,,84.0,,,,,,,,,,,,,,,,,,,,,,,,,,,,,266.0,0.983,,
258,,iti,,html-keyboard-response,258,276524,0.0-1.0-340.0,0,0,6,,,,,,,,,,,,,,,,,,,,,,,,,,,,,,,,,,,269.5,3.5,,
259,,size_choice,,html-keyboard-response,259,277126,0.0-1.0-342.0,0,0,6,,601.0,,,51.0,85.0,85.0,2.0,1500.0,S-L,0.0,S,L,1.0,3.0,die,mailbox,die7,mailbox2,106.0,41.0,/static/Size_judgement/Stimuli/Size_stims/S/die/die4.jpg,/static/Size_judgement/Stimuli/Size_stims/L/mailbox/mailbox2.jpg,0.0,mailbox,die,L,S,3.0,1.0,mailbox2,die7,1.0,0.0,270.101,0.601,,
260,,size_choice_confirmation,,html-keyboard-response,260,278031,0.0-1.0-343.0-0.0,0,0,6,,,,,,85.0,,,,,,,,,,,,,,,,,,,,,,,,,,,,,271.0,0.899,,
261,,iti,,html-keyboard-response,261,278136,0.0-1.0-344.0,0,0,6,,,,,,,,,,,,,,,,,,,,,,,,,,,,,,,,,,,272.5,1.5,,
262,,size_choice,,html-keyboard-response,262,279021,0.0-1.0-346.0,0,0,6,,885.0,,,51.0,86.0,86.0,2.0,1000.0,M-XL,0.0,M,XL,2.0,4.0,coffeemaker,tractor,coffeemaker9,tractor3,68.0,182.0,/static/Size_judgement/Stimuli/Size_stims/M/coffeemaker/coffeemaker7.jpg,/static/Size_judgement/Stimuli/Size_stims/XL/tractor/tractor5.jpg,0.0,tractor,coffeemaker,XL,M,4.0,2.0,tractor3,coffeemaker9,1.0,0.0,273.385,0.885,,
263,,size_choice_confirmation,,html-keyboard-response,263,279638,0.0-1.0-347.0-0.0,0,0,6,,,,,,86.0,,,,,,,,,,,,,,,,,,,,,,,,,,,,,274.0,0.615,,
264,,iti,,html-keyboard-response,264,279740,0.0-1.0-348.0,0,0,6,,,,,,,,,,,,,,,,,,,,,,,,,,,,,,,,,,,275.0,1.0,,
265,,size_choice,,html-keyboard-response,265,280489,0.0-1.0-350.0,0,0,6,,747.0,,,50.0,87.0,87.0,2.0,1000.0,XL-XL,,XL,XL,4.0,4.0,van,tractor,van9,tractor1,198.0,180.0,/static/Size_judgement/Stimuli/Size_stims/XL/van/van9.jpg,/static/Size_judgement/Stimuli/Size_stims/XL/tractor/tractor6.jpg,1.0,van,tractor,XL,XL,4.0,4.0,van9,tractor1,,0.0,275.747,0.747,,
266,,size_choice_confirmation,,html-keyboard-response,266,281245,0.0-1.0-351.0-0.0,0,0,6,,,,,,87.0,,,,,,,,,,,,,,,,,,,,,,,,,,,,,276.5,0.753,,
267,,iti,,html-keyboard-response,267,281350,0.0-1.0-352.0,0,0,6,,,,,,,,,,,,,,,,,,,,,,,,,,,,,,,,,,,277.5,1.0,,
268,,size_choice,,html-keyboard-response,268,281879,0.0-1.0-354.0,0,0,6,,528.0,,,50.0,88.0,88.0,2.0,1500.0,S-XL,1.0,XL,S,4.0,1.0,crane,die,crane7,die4,166.0,103.0,/static/Size_judgement/Stimuli/Size_stims/XL/crane/crane3.jpg,/static/Size_judgement/Stimuli/Size_stims/S/die/die2.jpg,1.0,crane,die,XL,S,4.0,1.0,crane7,die4,1.0,0.0,278.028,0.528,,
269,,size_choice_confirmation,,html-keyboard-response,269,282858,0.0-1.0-355.0-0.0,0,0,6,,,,,,88.0,,,,,,,,,,,,,,,,,,,,,,,,,,,,,279.0,0.972,,
270,,iti,,html-keyboard-response,270,282961,0.0-1.0-356.0,0,0,6,,,,,,,,,,,,,,,,,,,,,,,,,,,,,,,,,,,280.5,1.5,,
271,,size_choice,,html-keyboard-response,271,283681,0.0-1.0-358.0,0,0,6,,719.0,,,51.0,89.0,89.0,2.0,1000.0,M-L,0.0,M,L,2.0,3.0,coffeemaker,mailbox,coffeemaker8,mailbox8,67.0,47.0,/static/Size_judgement/Stimuli/Size_stims/M/coffeemaker/coffeemaker5.jpg,/static/Size_judgement/Stimuli/Size_stims/L/mailbox/mailbox10.jpg,0.0,mailbox,coffeemaker,L,M,3.0,2.0,mailbox8,coffeemaker8,1.0,0.0,281.219,0.7190000000000001,,
272,,size_choice_confirmation,,html-keyboard-response,272,284469,0.0-1.0-359.0-0.0,0,0,6,,,,,,89.0,,,,,,,,,,,,,,,,,,,,,,,,,,,,,282.0,0.7809999999999999,,
273,,iti,,html-keyboard-response,273,284573,0.0-1.0-360.0,0,0,6,,,,,,,,,,,,,,,,,,,,,,,,,,,,,,,,,,,283.0,1.0,,3.71
274,,size_final_tally,,html-keyboard-response,274,285683,0.0-2.0,0,0,6,,1108.0,,,50.0,,,,,,,,,,,,,,,,,,,,,,,,,,,,,,,,,
