,PID,view_history,rt,ttype,trial_type,trial_index,time_elapsed,internal_node_id,responses,repeat_instructions,key_press,index,trial_num,block,iti,pair_type,high_size_on_left,left_size_group,right_size_group,left_size_num,right_size_num,left_category,right_category,left_exemplar,right_exemplar,left_index,right_index,left_img_path,right_img_path,left_chosen,chosen_category,unchosen_category,chosen_size_group,unchosen_size_group,chosen_size_num,unchosen_size_num,chosen_exemplar,unchosen_exemplar,accuracy,onset,duration,size_final_tally
0,1,"[{""page_index"":0,""viewing_time"":1368},{""page_index"":1,""viewing_time"":382},{""page_index"":2,""viewing_time"":302},{""page_index"":3,""viewing_time"":263},{""page_index"":4,""viewing_time"":416},{""page_index"":5,""viewing_time"":501}]",3232,size_instructions,instructions,0,3237,0.0-0.0-0.0-0.0,,,,,,,,,,,,,,,,,,,,,,,,,,,,,,,,,,
1,1,,5881,size_comprehension_check,survey-multi-choice,1,9122,0.0-0.0-0.0-1.0,"{""Q0"":""True"",""Q1"":""Size in the real world"",""Q2"":""True"",""Q3"":""pointer finger for left and middle finger for right""}",0,,,,,,,,,,,,,,,,,,,,,,,,,,,,,,,,
2,1,,772,,html-keyboard-response,2,9897,0.0-0.0-1.0,,,50,,,,,,,,,,,,,,,,,,,,,,,,,,,,,,,
3,1,,354,size_choice,html-keyboard-response,3,10252,0.0-0.0-2.0,,,51,0,0,1,1500,L-XL,1,XL,L,4,3,rug,lawn mower,rug3,lawn mower14,288,164,/static/Size_judgement/Stimuli/Size_stims/XL/rug/Pink-Greenrug.jpg,/static/Size_judgement/Stimuli/Size_stims/L/lawn mower/043033538966.jpg,0,lawn mower,rug,L,XL,3,4,lawn mower14,rug3,0,0.354,0.354,
4,1,,,size_choice_confirmation,html-keyboard-response,4,11402,0.0-0.0-3.0-0.0,,,,0,,,,,,,,,,,,,,,,,,,,,,,,,,,,1.5,1.146,
5,1,,,iti,html-keyboard-response,5,12906,0.0-0.0-4.0,,,,,,,,,,,,,,,,,,,,,,,,,,,,,,,,3,1.5,
6,1,,60,size_choice,html-keyboard-response,6,12967,0.0-0.0-6.0,,,50,1,1,1,1000,S-L,0,S,L,1,3,flashlight,small table,flashlight3,small table15,62,210,/static/Size_judgement/Stimuli/Size_stims/S/flashlight/sl_tasklight_2l3w.jpg,/static/Size_judgement/Stimuli/Size_stims/L/small table/ATABLE20.jpg,1,flashlight,small table,S,L,1,3,flashlight3,small table15,0,3.06,0.06,
7,1,,,size_choice_confirmation,html-keyboard-response,7,14515,0.0-0.0-7.0-0.0,,,,1,,,,,,,,,,,,,,,,,,,,,,,,,,,,4.5,1.44,
8,1,,,iti,html-keyboard-response,8,15519,0.0-0.0-8.0,,,,,,,,,,,,,,,,,,,,,,,,,,,,,,,,5.5,1,
9,1,,,size_choice,html-keyboard-response,9,17024,0.0-0.0-10.0,,,,2,2,1,2000,S-M,1,M,S,2,1,guitar,key chain,guitar13,key chain14,118,28,/static/Size_judgement/Stimuli/Size_stims/M/guitar/AELCGUI10.jpg,/static/Size_judgement/Stimuli/Size_stims/S/key chain/Jif Keychain 285.jpg,,,,,,,,,,,7,1.5,
10,1,,,iti,html-keyboard-response,10,18027,0.0-0.0-12.0,,,,,,,,,,,,,,,,,,,,,,,,,,,,,,,,8,1,
11,1,,,size_choice,html-keyboard-response,11,19531,0.0-0.0-14.0,,,,3,3,1,2000,M-L,1,L,M,3,2,small table,backpack,small table9,backpack7,204,127,/static/Size_judgement/Stimuli/Size_stims/L/small table/ATABLE79.jpg,/static/Size_judgement/Stimuli/Size_stims/M/backpack/a10711.jpg,,,,,,,,,,,9.5,1.5,
12,1,,,iti,html-keyboard-response,12,20533,0.0-0.0-16.0,,,,,,,,,,,,,,,,,,,,,,,,,,,,,,,,10.5,1,
13,1,,,size_choice,html-keyboard-response,13,22039,0.0-0.0-18.0,,,,4,4,1,1500,XL-XL,,XL,XL,4,4,airplane,rug,airplane13,rug5,283,290,/static/Size_judgement/Stimuli/Size_stims/XL/airplane/AMILITP10.jpg,/static/Size_judgement/Stimuli/Size_stims/XL/rug/sarouk-rug.jpg,,,,,,,,,,,12,1.5,
14,1,,,iti,html-keyboard-response,14,22540,0.0-0.0-20.0,,,,,,,,,,,,,,,,,,,,,,,,,,,,,,,,12.5,0.5,
15,1,,,size_choice,html-keyboard-response,15,24043,0.0-0.0-22.0,,,,5,5,1,1500,S-S,,S,S,1,1,coin,coffee mug,coin10,coffee mug9,39,53,/static/Size_judgement/Stimuli/Size_stims/S/coin/AAUSSCHIL.jpg,/static/Size_judgement/Stimuli/Size_stims/S/coffee mug/35312365.thl.jpg,,,,,,,,,,,14,1.5,
16,1,,,iti,html-keyboard-response,16,24544,0.0-0.0-24.0,,,,,,,,,,,,,,,,,,,,,,,,,,,,,,,,14.5,0.5,
17,1,,,size_choice,html-keyboard-response,17,26050,0.0-0.0-26.0,,,,6,6,1,1000,S-XL,0,S,XL,1,4,coffee mug,sofa,coffee mug11,sofa6,55,261,/static/Size_judgement/Stimuli/Size_stims/S/coffee mug/ACOFECUP5.jpg,/static/Size_judgement/Stimuli/Size_stims/XL/sofa/wilkie-sofa-250h-new-cd.jpg,,,,,,,,,,,16,1.5,
18,1,,,iti,html-keyboard-response,18,26055,0.0-0.0-28.0,,,,,,,,,,,,,,,,,,,,,,,,,,,,,,,,16,0,
19,1,,,size_choice,html-keyboard-response,19,27560,0.0-0.0-30.0,,,,7,7,1,1000,XL-XL,,XL,XL,4,4,carfront,sofa,carfront3,sofa10,228,265,/static/Size_judgement/Stimuli/Size_stims/XL/carfront/AANTIQUE5.jpg,/static/Size_judgement/Stimuli/Size_stims/XL/sofa/AREDCOUC5.jpg,,,,,,,,,,,17.5,1.5,
20,1,,,iti,html-keyboard-response,20,27565,0.0-0.0-32.0,,,,,,,,,,,,,,,,,,,,,,,,,,,,,,,,17.5,0,
21,1,,,size_choice,html-keyboard-response,21,29067,0.0-0.0-34.0,,,,8,8,1,1000,S-L,1,L,S,3,1,dresser,lipstick,dresser5,lipstick8,215,7,/static/Size_judgement/Stimuli/Size_stims/L/dresser/ADRESSE55.jpg,/static/Size_judgement/Stimuli/Size_stims/S/lipstick/P174215_hero.jpg,,,,,,,,,,,19,1.5,
22,1,,,iti,html-keyboard-response,22,29073,0.0-0.0-36.0,,,,,,,,,,,,,,,,,,,,,,,,,,,,,,,,19,0,
23,1,,,size_choice,html-keyboard-response,23,30577,0.0-0.0-38.0,,,,9,9,1,1000,M-XL,0,M,XL,2,4,baby carriage,carfront,baby carriage4,carfront10,139,235,/static/Size_judgement/Stimuli/Size_stims/M/baby carriage/26373711.thl.jpg,/static/Size_judgement/Stimuli/Size_stims/XL/carfront/A29FORD2.jpg,,,,,,,,,,,20.5,1.5,
24,1,,,iti,html-keyboard-response,24,30582,0.0-0.0-40.0,,,,,,,,,,,,,,,,,,,,,,,,,,,,,,,,20.5,0,
25,1,,,size_choice,html-keyboard-response,25,32083,0.0-0.0-42.0,,,,10,10,1,1500,M-L,0,M,L,2,3,baby carriage,lawn mower,baby carriage9,lawn mower8,144,158,/static/Size_judgement/Stimuli/Size_stims/M/baby carriage/Antique baby Carriage 7.jpg,/static/Size_judgement/Stimuli/Size_stims/L/lawn mower/Draper_1200W_Lawn_Mower_360Mm.jpg,,,,,,,,,,,22,1.5,
26,1,,,iti,html-keyboard-response,26,32587,0.0-0.0-44.0,,,,,,,,,,,,,,,,,,,,,,,,,,,,,,,,22.5,0.5,
27,1,,,size_choice,html-keyboard-response,27,34094,0.0-0.0-46.0,,,,11,11,1,1000,L-XL,1,XL,L,4,3,carfront,dresser,carfront11,dresser3,236,213,/static/Size_judgement/Stimuli/Size_stims/XL/carfront/A56CHEV2.jpg,/static/Size_judgement/Stimuli/Size_stims/L/dresser/ADRESSE79.jpg,,,,,,,,,,,24,1.5,
28,1,,,iti,html-keyboard-response,28,34100,0.0-0.0-48.0,,,,,,,,,,,,,,,,,,,,,,,,,,,,,,,,24,0,
29,1,,,size_choice,html-keyboard-response,29,35601,0.0-0.0-50.0,,,,12,12,1,2000,S-M,0,S,M,1,2,coffee mug,grill,coffee mug3,grill3,47,93,/static/Size_judgement/Stimuli/Size_stims/S/coffee mug/ACOFFMUG3.jpg,/static/Size_judgement/Stimuli/Size_stims/M/grill/3b83188c-1e8a-45f8-91e7-54fb8b009e47_300.jpg,,,,,,,,,,,25.5,1.5,
30,1,,,iti,html-keyboard-response,30,36604,0.0-0.0-52.0,,,,,,,,,,,,,,,,,,,,,,,,,,,,,,,,26.5,1,
31,1,,,size_choice,html-keyboard-response,31,38108,0.0-0.0-54.0,,,,13,13,1,3500,S-XL,1,XL,S,4,1,tree,coffee mug,tree15,coffee mug12,255,56,/static/Size_judgement/Stimuli/Size_stims/XL/tree/APALMTREE.jpg,/static/Size_judgement/Stimuli/Size_stims/S/coffee mug/ACOFECUP4.jpg,,,,,,,,,,,28,1.5,
32,1,,,iti,html-keyboard-response,32,40609,0.0-0.0-56.0,,,,,,,,,,,,,,,,,,,,,,,,,,,,,,,,30.5,2.5,
33,1,,,size_choice,html-keyboard-response,33,42113,0.0-0.0-58.0,,,,14,14,1,3000,L-XL,1,XL,L,4,3,airplane,bike,airplane1,bike11,271,191,/static/Size_judgement/Stimuli/Size_stims/XL/airplane/AMILITP37.jpg,/static/Size_judgement/Stimuli/Size_stims/L/bike/racing-bike-13564229161.jpg,,,,,,,,,,,32,1.5,
34,1,,,iti,html-keyboard-response,34,44119,0.0-0.0-60.0,,,,,,,,,,,,,,,,,,,,,,,,,,,,,,,,34,2,
35,1,,,size_choice,html-keyboard-response,35,45623,0.0-0.0-62.0,,,,15,15,1,1000,S-M,0,S,M,1,2,key chain,backpack,key chain4,backpack13,18,133,/static/Size_judgement/Stimuli/Size_stims/S/key chain/Gumby_Green-Keychain.jpg,/static/Size_judgement/Stimuli/Size_stims/M/backpack/8058021.thl.jpg,,,,,,,,,,,35.5,1.5,
36,1,,,iti,html-keyboard-response,36,45628,0.0-0.0-64.0,,,,,,,,,,,,,,,,,,,,,,,,,,,,,,,,35.5,0,
37,1,,,size_choice,html-keyboard-response,37,47132,0.0-0.0-66.0,,,,16,16,1,1000,XL-XL,,XL,XL,4,4,airplane,rug,airplane10,rug1,280,286,/static/Size_judgement/Stimuli/Size_stims/XL/airplane/AFIGHTP42.jpg,/static/Size_judgement/Stimuli/Size_stims/XL/rug/tabriz-rug.jpg,,,,,,,,,,,37,1.5,
38,1,,,iti,html-keyboard-response,38,47138,0.0-0.0-68.0,,,,,,,,,,,,,,,,,,,,,,,,,,,,,,,,37,0,
39,1,,,size_choice,html-keyboard-response,39,48641,0.0-0.0-70.0,,,,17,17,1,1500,S-L,0,S,L,1,3,lipstick,small table,lipstick6,small table1,5,196,/static/Size_judgement/Stimuli/Size_stims/S/lipstick/P182413_hero.jpg,/static/Size_judgement/Stimuli/Size_stims/L/small table/ATABLE10.jpg,,,,,,,,,,,38.5,1.5,
40,1,,,iti,html-keyboard-response,40,49142,0.0-0.0-72.0,,,,,,,,,,,,,,,,,,,,,,,,,,,,,,,,39,0.5,
41,1,,,size_choice,html-keyboard-response,41,50647,0.0-0.0-74.0,,,,18,18,1,2000,S-L,1,L,S,3,1,patio lounge chair,key chain,patio lounge chair10,key chain1,175,15,/static/Size_judgement/Stimuli/Size_stims/L/patio lounge chair/51831.jpg,/static/Size_judgement/Stimuli/Size_stims/S/key chain/jm05s16.jpg,,,,,,,,,,,40.5,1.5,
42,1,,,iti,html-keyboard-response,42,52545,0.0-0.0-76.0,,,,,,,,,,,,,,,,,,,,,,,,,,,,,,,,41.5,1,
43,1,,,size_choice,html-keyboard-response,43,54692,0.0-0.0-78.0,,,,19,19,1,2000,S-S,,S,S,1,1,coffee mug,flashlight,coffee mug6,flashlight15,50,75,/static/Size_judgement/Stimuli/Size_stims/S/coffee mug/ACOFFMUG5.jpg,/static/Size_judgement/Stimuli/Size_stims/S/flashlight/freeplay-xray-wind-up-led-flashlight.jpg,,,,,,,,,,,43,1.5,
44,1,,,iti,html-keyboard-response,44,56492,0.0-0.0-80.0,,,,,,,,,,,,,,,,,,,,,,,,,,,,,,,,44,1,
45,1,,,size_choice,html-keyboard-response,45,59346,0.0-0.0-82.0,,,,20,20,1,3500,M-XL,0,M,XL,2,4,grill,tree,grill9,tree8,99,248,/static/Size_judgement/Stimuli/Size_stims/M/grill/574b3f88-61c2-4907-955c-465e0e36e368_300.jpg,/static/Size_judgement/Stimuli/Size_stims/XL/tree/AAUTTREE.jpg,,,,,,,,,,,45.5,1.5,
46,1,,,iti,html-keyboard-response,46,62898,0.0-0.0-84.0,,,,,,,,,,,,,,,,,,,,,,,,,,,,,,,,48,2.5,
47,1,,,size_choice,html-keyboard-response,47,64802,0.0-0.0-86.0,,,,21,21,1,2000,M-M,,M,M,2,2,garbage trash,backpack,garbage trash8,backpack4,83,124,/static/Size_judgement/Stimuli/Size_stims/M/garbage trash/f3204f83-fbd8-447b-b79a-4a519833ac27_400.jpg,/static/Size_judgement/Stimuli/Size_stims/M/backpack/Abackpack22.jpg,,,,,,,,,,,49.5,1.5,
48,1,,,iti,html-keyboard-response,48,66546,0.0-0.0-88.0,,,,,,,,,,,,,,,,,,,,,,,,,,,,,,,,50.5,1,
49,1,,,size_choice,html-keyboard-response,49,69159,0.0-0.0-90.0,,,,22,22,1,1500,M-XL,1,XL,M,4,2,sofa,garbage trash,sofa13,garbage trash15,268,90,/static/Size_judgement/Stimuli/Size_stims/XL/sofa/ACOUCH25.jpg,/static/Size_judgement/Stimuli/Size_stims/M/garbage trash/AGARBCAN4.jpg,,,,,,,,,,,52,1.5,
50,1,,,iti,html-keyboard-response,50,71111,0.0-0.0-92.0,,,,,,,,,,,,,,,,,,,,,,,,,,,,,,,,52.5,0.5,
51,1,,,size_choice,html-keyboard-response,51,73591,0.0-0.0-94.0,,,,23,23,1,1500,XL-XL,,XL,XL,4,4,tree,rug,tree7,rug13,247,298,/static/Size_judgement/Stimuli/Size_stims/XL/tree/ATREE17.jpg,/static/Size_judgement/Stimuli/Size_stims/XL/rug/hamadan-rug.jpg,,,,,,,,,,,54,1.5,
52,1,,,iti,html-keyboard-response,52,74834,0.0-0.0-96.0,,,,,,,,,,,,,,,,,,,,,,,,,,,,,,,,54.5,0.5,
53,1,,,size_choice,html-keyboard-response,53,76470,0.0-0.0-98.0,,,,24,24,1,1000,M-M,,M,M,2,2,garbage trash,backpack,garbage trash12,backpack6,87,126,/static/Size_judgement/Stimuli/Size_stims/M/garbage trash/7638ba9f-1b10-4b95-982a-95c57e784739_400.jpg,/static/Size_judgement/Stimuli/Size_stims/M/backpack/22895516.thl.jpg,,,,,,,,,,,56,1.5,
54,1,,,iti,html-keyboard-response,54,77868,0.0-0.0-100.0,,,,,,,,,,,,,,,,,,,,,,,,,,,,,,,,56,0,
55,1,,,size_choice,html-keyboard-response,55,80258,0.0-0.0-102.0,,,,25,25,1,1000,L-XL,0,L,XL,3,4,patio lounge chair,carfront,patio lounge chair2,carfront8,167,233,/static/Size_judgement/Stimuli/Size_stims/L/patio lounge chair/Marina-metal-chaise-lounge.jpg,/static/Size_judgement/Stimuli/Size_stims/XL/carfront/AFERR5503.jpg,,,,,,,,,,,57.5,1.5,
56,1,,,iti,html-keyboard-response,56,80556,0.0-0.0-104.0,,,,,,,,,,,,,,,,,,,,,,,,,,,,,,,,57.5,0,
57,1,,,size_choice,html-keyboard-response,57,83095,0.0-0.0-106.0,,,,26,26,1,1500,M-M,,M,M,2,2,baby carriage,backpack,baby carriage15,backpack8,150,128,/static/Size_judgement/Stimuli/Size_stims/M/baby carriage/AANBABYC2.jpg,/static/Size_judgement/Stimuli/Size_stims/M/backpack/22895504.thl.jpg,,,,,,,,,,,59,1.5,
58,1,,,iti,html-keyboard-response,58,84692,0.0-0.0-108.0,,,,,,,,,,,,,,,,,,,,,,,,,,,,,,,,59.5,0.5,
59,1,,,size_choice,html-keyboard-response,59,86692,0.0-0.0-110.0,,,,27,27,1,1500,S-XL,1,XL,S,4,1,rug,key chain,rug11,key chain11,296,25,/static/Size_judgement/Stimuli/Size_stims/XL/rug/Primaryrug.jpg,/static/Size_judgement/Stimuli/Size_stims/S/key chain/31H95JKXWNL._SS500_.jpg,,,,,,,,,,,61,1.5,
60,1,,,iti,html-keyboard-response,60,87596,0.0-0.0-112.0,,,,,,,,,,,,,,,,,,,,,,,,,,,,,,,,61.5,0.5,
61,1,,,size_choice,html-keyboard-response,61,90115,0.0-0.0-114.0,,,,28,28,1,1000,S-XL,0,S,XL,1,4,flashlight,tree,flashlight7,tree6,66,246,/static/Size_judgement/Stimuli/Size_stims/S/flashlight/Flashlight.jpg,/static/Size_judgement/Stimuli/Size_stims/XL/tree/ATREE12.jpg,,,,,,,,,,,63,1.5,
62,1,,,iti,html-keyboard-response,62,90644,0.0-0.0-116.0,,,,,,,,,,,,,,,,,,,,,,,,,,,,,,,,63,0,
63,1,,,size_choice,html-keyboard-response,63,163818,0.0-0.0-118.0,,,,29,29,1,1000,S-XL,0,S,XL,1,4,coin,carfront,coin12,carfront7,41,232,/static/Size_judgement/Stimuli/Size_stims/S/coin/A2FRANCS.jpg,/static/Size_judgement/Stimuli/Size_stims/XL/carfront/AFERR253.jpg,,,,,,,,,,,64.5,1.5,
64,1,,,iti,html-keyboard-response,64,164728,0.0-0.0-120.0,,,,,,,,,,,,,,,,,,,,,,,,,,,,,,,,64.5,0,
65,1,,,size_choice,html-keyboard-response,65,167181,0.0-0.0-122.0,,,,30,30,1,3000,M-XL,0,M,XL,2,4,garbage trash,tree,garbage trash11,tree11,86,251,/static/Size_judgement/Stimuli/Size_stims/M/garbage trash/21455_285.jpg,/static/Size_judgement/Stimuli/Size_stims/XL/tree/APALMRTEE.jpg,,,,,,,,,,,66,1.5,
66,1,,,iti,html-keyboard-response,66,170526,0.0-0.0-124.0,,,,,,,,,,,,,,,,,,,,,,,,,,,,,,,,68,2,
67,1,,,size_choice,html-keyboard-response,67,172731,0.0-0.0-126.0,,,,31,31,1,2000,M-L,1,L,M,3,2,small table,grill,small table8,grill2,203,92,/static/Size_judgement/Stimuli/Size_stims/L/small table/ATABLE8.jpg,/static/Size_judgement/Stimuli/Size_stims/M/grill/a763a77b-eaa7-4306-92e7-b193da02a17b_300.jpg,,,,,,,,,,,69.5,1.5,
68,1,,,iti,html-keyboard-response,68,173734,0.0-0.0-128.0,,,,,,,,,,,,,,,,,,,,,,,,,,,,,,,,70.5,1,
69,1,,,size_choice,html-keyboard-response,69,175236,0.0-0.0-130.0,,,,32,32,1,1500,M-XL,0,M,XL,2,4,guitar,airplane,guitar4,airplane4,109,274,/static/Size_judgement/Stimuli/Size_stims/M/guitar/guitar-sign-rock-n-roll.jpg,/static/Size_judgement/Stimuli/Size_stims/XL/airplane/AFIGHTPL2.jpg,,,,,,,,,,,72,1.5,
70,1,,,iti,html-keyboard-response,70,175737,0.0-0.0-132.0,,,,,,,,,,,,,,,,,,,,,,,,,,,,,,,,72.5,0.5,
71,1,,,size_choice,html-keyboard-response,71,177730,0.0-0.0-134.0,,,,33,33,1,1000,M-M,,M,M,2,2,backpack,grill,backpack3,grill10,123,100,/static/Size_judgement/Stimuli/Size_stims/M/backpack/22895060.thl.jpg,/static/Size_judgement/Stimuli/Size_stims/M/grill/b774e8e2-d603-4652-97e4-29b3b279ffa4_300.jpg,,,,,,,,,,,74,1.5,
72,1,,,iti,html-keyboard-response,72,178805,0.0-0.0-136.0,,,,,,,,,,,,,,,,,,,,,,,,,,,,,,,,74,0,
73,1,,,size_choice,html-keyboard-response,73,181685,0.0-0.0-138.0,,,,34,34,1,2000,S-S,,S,S,1,1,coin,coffee mug,coin8,coffee mug1,37,45,/static/Size_judgement/Stimuli/Size_stims/S/coin/A10FRANC5.jpg,/static/Size_judgement/Stimuli/Size_stims/S/coffee mug/ALADYMUG2.jpg,,,,,,,,,,,75.5,1.5,
74,1,,,iti,html-keyboard-response,74,183243,0.0-0.0-140.0,,,,,,,,,,,,,,,,,,,,,,,,,,,,,,,,76.5,1,
75,1,,,size_choice,html-keyboard-response,75,185739,0.0-0.0-142.0,,,,35,35,1,3500,S-S,,S,S,1,1,lipstick,key chain,lipstick5,key chain6,4,20,/static/Size_judgement/Stimuli/Size_stims/S/lipstick/P35719_hero.jpg,/static/Size_judgement/Stimuli/Size_stims/S/key chain/highboy_keychain_ItemCA75384.jpg,,,,,,,,,,,78,1.5,
76,1,,,iti,html-keyboard-response,76,189041,0.0-0.0-144.0,,,,,,,,,,,,,,,,,,,,,,,,,,,,,,,,80.5,2.5,
77,1,,,size_choice,html-keyboard-response,77,190768,0.0-0.0-146.0,,,,36,36,1,1000,L-L,,L,L,3,3,patio lounge chair,lawn mower,patio lounge chair15,lawn mower9,180,159,/static/Size_judgement/Stimuli/Size_stims/L/patio lounge chair/phpThumb.jpg,/static/Size_judgement/Stimuli/Size_stims/L/lawn mower/lawnmower-thumb.jpg,,,,,,,,,,,82,1.5,
78,1,,,iti,html-keyboard-response,78,192204,0.0-0.0-148.0,,,,,,,,,,,,,,,,,,,,,,,,,,,,,,,,82,0,
79,1,,,size_choice,html-keyboard-response,79,193731,0.0-0.0-150.0,,,,37,37,1,1500,L-L,,L,L,3,3,small table,bike,small table11,bike9,206,189,/static/Size_judgement/Stimuli/Size_stims/L/small table/ATABLE83.jpg,/static/Size_judgement/Stimuli/Size_stims/L/bike/Folding_Bike.jpg,,,,,,,,,,,83.5,1.5,
80,1,,,iti,html-keyboard-response,80,195229,0.0-0.0-152.0,,,,,,,,,,,,,,,,,,,,,,,,,,,,,,,,84,0.5,
81,1,,,size_choice,html-keyboard-response,81,197468,0.0-0.0-154.0,,,,38,38,1,3000,S-M,1,M,S,2,1,backpack,flashlight,backpack9,flashlight13,129,73,/static/Size_judgement/Stimuli/Size_stims/M/backpack/Ogio-Pastrana-Backpack_240.jpg,/static/Size_judgement/Stimuli/Size_stims/S/flashlight/834808_sk_lg.jpg,,,,,,,,,,,85.5,1.5,
82,1,,,iti,html-keyboard-response,82,200465,0.0-0.0-156.0,,,,,,,,,,,,,,,,,,,,,,,,,,,,,,,,87.5,2,
83,1,,,size_choice,html-keyboard-response,83,203464,0.0-0.0-158.0,,,,39,39,1,1000,L-L,,L,L,3,3,bike,lawn mower,bike5,lawn mower5,185,155,/static/Size_judgement/Stimuli/Size_stims/L/bike/folding_bike_dahon.jpg,/static/Size_judgement/Stimuli/Size_stims/L/lawn mower/841821001117.jpg,,,,,,,,,,,89,1.5,
84,1,,,iti,html-keyboard-response,84,203731,0.0-0.0-160.0,,,,,,,,,,,,,,,,,,,,,,,,,,,,,,,,89,0,
85,1,,,size_choice,html-keyboard-response,85,205863,0.0-0.0-162.0,,,,40,40,1,1000,L-L,,L,L,3,3,lawn mower,dresser,lawn mower2,dresser1,152,211,/static/Size_judgement/Stimuli/Size_stims/L/lawn mower/07137166000.jpg,/static/Size_judgement/Stimuli/Size_stims/L/dresser/ADRESSE52.jpg,,,,,,,,,,,90.5,1.5,
86,1,,,iti,html-keyboard-response,86,207159,0.0-0.0-164.0,,,,,,,,,,,,,,,,,,,,,,,,,,,,,,,,90.5,0,
87,1,,,size_choice,html-keyboard-response,87,208731,0.0-0.0-166.0,,,,41,41,1,1000,M-L,0,M,L,2,3,baby carriage,dresser,baby carriage5,dresser12,140,222,/static/Size_judgement/Stimuli/Size_stims/M/baby carriage/Baby_Stroller.jpg,/static/Size_judgement/Stimuli/Size_stims/L/dresser/ADRESSE58.jpg,,,,,,,,,,,92,1.5,
88,1,,,iti,html-keyboard-response,88,210044,0.0-0.0-168.0,,,,,,,,,,,,,,,,,,,,,,,,,,,,,,,,92,0,
89,1,,,size_choice,html-keyboard-response,89,212556,0.0-0.0-170.0,,,,42,42,1,1000,S-M,1,M,S,2,1,garbage trash,lipstick,garbage trash13,lipstick14,88,13,/static/Size_judgement/Stimuli/Size_stims/M/garbage trash/9472NC.jpg,/static/Size_judgement/Stimuli/Size_stims/S/lipstick/P109907_hero.jpg,,,,,,,,,,,93.5,1.5,
90,1,,,iti,html-keyboard-response,90,212806,0.0-0.0-172.0,,,,,,,,,,,,,,,,,,,,,,,,,,,,,,,,93.5,0,
91,1,,,size_choice,html-keyboard-response,91,214753,0.0-0.0-174.0,,,,43,43,1,1500,S-L,0,S,L,1,3,flashlight,patio lounge chair,flashlight14,patio lounge chair3,74,168,/static/Size_judgement/Stimuli/Size_stims/S/flashlight/freeplay-jonta-flashlight.jpg,/static/Size_judgement/Stimuli/Size_stims/L/patio lounge chair/Lounge_Chair.jpg,,,,,,,,,,,95,1.5,
92,1,,,iti,html-keyboard-response,92,216217,0.0-0.0-176.0,,,,,,,,,,,,,,,,,,,,,,,,,,,,,,,,95.5,0.5,
93,1,,,size_choice,html-keyboard-response,93,218141,0.0-0.0-178.0,,,,44,44,1,3000,M-L,0,M,L,2,3,grill,dresser,grill14,dresser15,104,225,/static/Size_judgement/Stimuli/Size_stims/M/grill/34358c0d-d56c-4098-9308-0dbaf2c0cfd1_300.jpg,/static/Size_judgement/Stimuli/Size_stims/L/dresser/ADRESSE77.jpg,,,,,,,,,,,97,1.5,
94,1,,,iti,html-keyboard-response,94,220731,0.0-0.0-180.0,,,,,,,,,,,,,,,,,,,,,,,,,,,,,,,,99,2,
95,1,,12266402,block_over,html-keyboard-response,95,12487134,0.0-0.0-181.0-0.0,,,50,44,,,,,,,,,,,,,,,,,,,,,,,,,,,,,,
96,1,,583,size_choice,html-keyboard-response,96,12487719,0.0-0.0-182.0,,,50,45,45,2,2000,L-L,,L,L,3,3,small table,lawn mower,small table12,lawn mower6,207,156,/static/Size_judgement/Stimuli/Size_stims/L/small table/ATABLE54.jpg,/static/Size_judgement/Stimuli/Size_stims/L/lawn mower/lawnmower_03.jpg,1,small table,lawn mower,L,L,3,3,small table12,lawn mower6,,99.583,0.583,
97,1,,,size_choice_confirmation,html-keyboard-response,97,12488640,0.0-0.0-183.0-0.0,,,,45,,,,,,,,,,,,,,,,,,,,,,,,,,,,100.5,0.917,
98,1,,,iti,html-keyboard-response,98,12490645,0.0-0.0-184.0,,,,,,,,,,,,,,,,,,,,,,,,,,,,,,,,102.5,2,
99,1,,104,size_choice,html-keyboard-response,99,12490750,0.0-0.0-186.0,,,51,46,46,2,3000,M-XL,1,XL,M,4,2,tree,grill,tree9,grill15,249,105,/static/Size_judgement/Stimuli/Size_stims/XL/tree/APALMRTE4.jpg,/static/Size_judgement/Stimuli/Size_stims/M/grill/9fbd051d-a971-4a97-b997-df79a78a046a_300.jpg,0,grill,tree,M,XL,2,4,grill15,tree9,0,102.604,0.104,
100,1,,,size_choice_confirmation,html-keyboard-response,100,12492148,0.0-0.0-187.0-0.0,,,,46,,,,,,,,,,,,,,,,,,,,,,,,,,,,104,1.396,
101,1,,,iti,html-keyboard-response,101,12495153,0.0-0.0-188.0,,,,,,,,,,,,,,,,,,,,,,,,,,,,,,,,107,3,
102,1,,318,size_choice,html-keyboard-response,102,12495472,0.0-0.0-190.0,,,51,47,47,2,1500,L-L,,L,L,3,3,small table,bike,small table6,bike7,201,187,/static/Size_judgement/Stimuli/Size_stims/L/small table/ATABLE88.jpg,/static/Size_judgement/Stimuli/Size_stims/L/bike/bike.jpg,0,bike,small table,L,L,3,3,bike7,small table6,,107.318,0.318,
103,1,,,size_choice_confirmation,html-keyboard-response,103,12497032,0.0-0.0-191.0-0.0,,,,47,,,,,,,,,,,,,,,,,,,,,,,,,,,,108.5,1.182,
104,1,,,iti,html-keyboard-response,104,12498983,0.0-0.0-192.0,,,,,,,,,,,,,,,,,,,,,,,,,,,,,,,,110,1.5,
105,1,,,size_choice,html-keyboard-response,105,12500983,0.0-0.0-194.0,,,,48,48,2,1000,M-L,1,L,M,3,2,patio lounge chair,garbage trash,patio lounge chair4,garbage trash14,169,89,/static/Size_judgement/Stimuli/Size_stims/L/patio lounge chair/0-teak_tf53er.jpg,/static/Size_judgement/Stimuli/Size_stims/M/garbage trash/AGARBACA8.jpg,,,,,,,,,,,111.5,1.5,
106,1,,,iti,html-keyboard-response,106,12500985,0.0-0.0-196.0,,,,,,,,,,,,,,,,,,,,,,,,,,,,,,,,111.5,0,
107,1,,,size_choice,html-keyboard-response,107,12502983,0.0-0.0-198.0,,,,49,49,2,3500,S-XL,0,S,XL,1,4,lipstick,airplane,lipstick4,airplane14,3,284,/static/Size_judgement/Stimuli/Size_stims/S/lipstick/P145703_hero.jpg,/static/Size_judgement/Stimuli/Size_stims/XL/airplane/AAIRPLNJ2.jpg,,,,,,,,,,,113,1.5,
108,1,,,iti,html-keyboard-response,108,12505983,0.0-0.0-200.0,,,,,,,,,,,,,,,,,,,,,,,,,,,,,,,,115.5,2.5,
109,1,,,size_choice,html-keyboard-response,109,12507983,0.0-0.0-202.0,,,,50,50,2,1500,L-XL,0,L,XL,3,4,dresser,sofa,dresser8,sofa11,218,266,/static/Size_judgement/Stimuli/Size_stims/L/dresser/Adresser14.jpg,/static/Size_judgement/Stimuli/Size_stims/XL/sofa/ALOVSEA19.jpg,,,,,,,,,,,117,1.5,
110,1,,,iti,html-keyboard-response,110,12508994,0.0-0.0-204.0,,,,,,,,,,,,,,,,,,,,,,,,,,,,,,,,117.5,0.5,
111,1,,,size_choice,html-keyboard-response,111,12510983,0.0-0.0-206.0,,,,51,51,2,3500,L-XL,1,XL,L,4,3,rug,bike,rug4,bike1,289,181,/static/Size_judgement/Stimuli/Size_stims/XL/rug/her9796.jpg,/static/Size_judgement/Stimuli/Size_stims/L/bike/the-go-bike.jpg,,,,,,,,,,,119,1.5,
112,1,,,iti,html-keyboard-response,112,12513983,0.0-0.0-208.0,,,,,,,,,,,,,,,,,,,,,,,,,,,,,,,,121.5,2.5,
113,1,,,size_choice,html-keyboard-response,113,12515983,0.0-0.0-210.0,,,,52,52,2,1000,XL-XL,,XL,XL,4,4,tree,rug,tree3,rug9,243,294,/static/Size_judgement/Stimuli/Size_stims/XL/tree/ATREE4.jpg,/static/Size_judgement/Stimuli/Size_stims/XL/rug/KARACHOV_RUG.jpg,,,,,,,,,,,123,1.5,
114,1,,,iti,html-keyboard-response,114,12516984,0.0-0.0-212.0,,,,,,,,,,,,,,,,,,,,,,,,,,,,,,,,123,0,
115,1,,,size_choice,html-keyboard-response,115,12518983,0.0-0.0-214.0,,,,53,53,2,3500,M-M,,M,M,2,2,grill,garbage trash,grill11,garbage trash2,101,77,/static/Size_judgement/Stimuli/Size_stims/M/grill/f86bc49b-68cd-49f8-8842-9cd458aab0af_300.jpg,/static/Size_judgement/Stimuli/Size_stims/M/garbage trash/413OoebYDiL._AA262_.jpg,,,,,,,,,,,124.5,1.5,
116,1,,,iti,html-keyboard-response,116,12522740,0.0-0.0-216.0,,,,,,,,,,,,,,,,,,,,,,,,,,,,,,,,127,2.5,
117,1,,,size_choice,html-keyboard-response,117,12524997,0.0-0.0-218.0,,,,54,54,2,1000,S-M,0,S,M,1,2,coin,backpack,coin5,backpack1,34,121,/static/Size_judgement/Stimuli/Size_stims/S/coin/AJAMCENT.jpg,/static/Size_judgement/Stimuli/Size_stims/M/backpack/Abackpack19.jpg,,,,,,,,,,,128.5,1.5,
118,1,,,iti,html-keyboard-response,118,12526400,0.0-0.0-220.0,,,,,,,,,,,,,,,,,,,,,,,,,,,,,,,,128.5,0,
119,1,,,size_choice,html-keyboard-response,119,12528116,0.0-0.0-222.0,,,,55,55,2,1500,S-L,1,L,S,3,1,bike,lipstick,bike2,lipstick15,182,14,/static/Size_judgement/Stimuli/Size_stims/L/bike/genius-bike.jpg,/static/Size_judgement/Stimuli/Size_stims/S/lipstick/P9436_hero.jpg,,,,,,,,,,,130,1.5,
120,1,,,iti,html-keyboard-response,120,12528992,0.0-0.0-224.0,,,,,,,,,,,,,,,,,,,,,,,,,,,,,,,,130.5,0.5,
121,1,,,size_choice,html-keyboard-response,121,12531253,0.0-0.0-226.0,,,,56,56,2,1000,S-S,,S,S,1,1,key chain,coin,key chain10,coin2,24,31,/static/Size_judgement/Stimuli/Size_stims/S/key chain/Smurfs_Keychains_Smurf_Row_Boat.jpg,/static/Size_judgement/Stimuli/Size_stims/S/coin/A5CENTIME.jpg,,,,,,,,,,,132,1.5,
122,1,,,iti,html-keyboard-response,122,12532330,0.0-0.0-228.0,,,,,,,,,,,,,,,,,,,,,,,,,,,,,,,,132,0,
123,1,,,size_choice,html-keyboard-response,123,12533983,0.0-0.0-230.0,,,,57,57,2,1500,L-L,,L,L,3,3,bike,small table,bike12,small table7,192,202,/static/Size_judgement/Stimuli/Size_stims/L/bike/schwinn_electric_bikes.jpg,/static/Size_judgement/Stimuli/Size_stims/L/small table/ATABLE89.jpg,,,,,,,,,,,133.5,1.5,
124,1,,,iti,html-keyboard-response,124,12534988,0.0-0.0-232.0,,,,,,,,,,,,,,,,,,,,,,,,,,,,,,,,134,0.5,
125,1,,,size_choice,html-keyboard-response,125,12537274,0.0-0.0-234.0,,,,58,58,2,1500,L-XL,1,XL,L,4,3,carfront,patio lounge chair,carfront2,patio lounge chair5,227,170,/static/Size_judgement/Stimuli/Size_stims/XL/carfront/A95CHERO2.jpg,/static/Size_judgement/Stimuli/Size_stims/L/patio lounge chair/Steel_Assembling_Lounge.jpg,,,,,,,,,,,135.5,1.5,
126,1,,,iti,html-keyboard-response,126,12538320,0.0-0.0-236.0,,,,,,,,,,,,,,,,,,,,,,,,,,,,,,,,136,0.5,
127,1,,,size_choice,html-keyboard-response,127,12539982,0.0-0.0-238.0,,,,59,59,2,1500,S-S,,S,S,1,1,coin,coffee mug,coin13,coffee mug14,42,58,/static/Size_judgement/Stimuli/Size_stims/S/coin/A50ORE.jpg,/static/Size_judgement/Stimuli/Size_stims/S/coffee mug/ACOFECUP3.jpg,,,,,,,,,,,137.5,1.5,
128,1,,,iti,html-keyboard-response,128,12541133,0.0-0.0-240.0,,,,,,,,,,,,,,,,,,,,,,,,,,,,,,,,138,0.5,
129,1,,,size_choice,html-keyboard-response,129,12542982,0.0-0.0-242.0,,,,60,60,2,1000,XL-XL,,XL,XL,4,4,airplane,,airplane6,,276,,/static/Size_judgement/Stimuli/Size_stims/XL/airplane/AMILIPL53.jpg,/static/Size_judgement/Stimuli/Size_stims/XL/NA/NA,,,,,,,,,,,139.5,1.5,
130,1,,,iti,html-keyboard-response,130,12544170,0.0-0.0-244.0,,,,,,,,,,,,,,,,,,,,,,,,,,,,,,,,139.5,0,
131,1,,,size_choice,html-keyboard-response,131,12546167,0.0-0.0-246.0,,,,61,61,2,1500,XL-XL,,XL,XL,4,4,carfront,sofa,carfront1,sofa8,226,263,/static/Size_judgement/Stimuli/Size_stims/XL/carfront/ARACECA20.jpg,/static/Size_judgement/Stimuli/Size_stims/XL/sofa/allegro-leather-sofa-med2.jpg,,,,,,,,,,,141,1.5,
132,1,,,iti,html-keyboard-response,132,12547375,0.0-0.0-248.0,,,,,,,,,,,,,,,,,,,,,,,,,,,,,,,,141.5,0.5,
133,1,,,size_choice,html-keyboard-response,133,12548982,0.0-0.0-250.0,,,,62,62,2,2000,M-XL,1,XL,M,4,2,carfront,baby carriage,carfront15,baby carriage13,240,148,/static/Size_judgement/Stimuli/Size_stims/XL/carfront/ARCMPPOL7.jpg,/static/Size_judgement/Stimuli/Size_stims/M/baby carriage/300px-Barnevogn2.jpg,,,,,,,,,,,143,1.5,
134,1,,,iti,html-keyboard-response,134,12551253,0.0-0.0-252.0,,,,,,,,,,,,,,,,,,,,,,,,,,,,,,,,144,1,
135,1,,,size_choice,html-keyboard-response,135,12552982,0.0-0.0-254.0,,,,63,63,2,2000,S-L,0,S,L,1,3,coin,dresser,coin9,dresser14,38,224,/static/Size_judgement/Stimuli/Size_stims/S/coin/ABARBCOIN.jpg,/static/Size_judgement/Stimuli/Size_stims/L/dresser/Adressertabl3.jpg,,,,,,,,,,,145.5,1.5,
136,1,,,iti,html-keyboard-response,136,12555530,0.0-0.0-256.0,,,,,,,,,,,,,,,,,,,,,,,,,,,,,,,,146.5,1,
137,1,,,size_choice,html-keyboard-response,137,12558159,0.0-0.0-258.0,,,,64,64,2,1500,XL-XL,,XL,XL,4,4,sofa,carfront,sofa4,carfront6,259,231,/static/Size_judgement/Stimuli/Size_stims/XL/sofa/ALOVSEA15.jpg,/static/Size_judgement/Stimuli/Size_stims/XL/carfront/A55FORD.jpg,,,,,,,,,,,148,1.5,
138,1,,,iti,html-keyboard-response,138,12559391,0.0-0.0-260.0,,,,,,,,,,,,,,,,,,,,,,,,,,,,,,,,148.5,0.5,
139,1,,,size_choice,html-keyboard-response,139,12561206,0.0-0.0-262.0,,,,65,65,2,1000,M-M,,M,M,2,2,garbage trash,grill,garbage trash5,grill5,80,95,/static/Size_judgement/Stimuli/Size_stims/M/garbage trash/AGARBIN3.jpg,/static/Size_judgement/Stimuli/Size_stims/M/grill/b20f94d1-e2ca-4c3e-9cac-6cc5c58256e5_300.jpg,,,,,,,,,,,150,1.5,
140,1,,,iti,html-keyboard-response,140,12561982,0.0-0.0-264.0,,,,,,,,,,,,,,,,,,,,,,,,,,,,,,,,150,0,
141,1,,,size_choice,html-keyboard-response,141,12563982,0.0-0.0-266.0,,,,66,66,2,3000,M-M,,M,M,2,2,guitar,grill,guitar2,grill13,107,103,/static/Size_judgement/Stimuli/Size_stims/M/guitar/AELCBGU13.jpg,/static/Size_judgement/Stimuli/Size_stims/M/grill/600e4421-bf57-4f0d-806f-5fa342757801_300.jpg,,,,,,,,,,,151.5,1.5,
142,1,,,iti,html-keyboard-response,142,12566982,0.0-0.0-268.0,,,,,,,,,,,,,,,,,,,,,,,,,,,,,,,,153.5,2,
143,1,,,size_choice,html-keyboard-response,143,12569223,0.0-0.0-270.0,,,,67,67,2,1000,M-M,,M,M,2,2,baby carriage,,baby carriage8,,143,,/static/Size_judgement/Stimuli/Size_stims/M/baby carriage/peg_perego_uno_revi_black.jpg,/static/Size_judgement/Stimuli/Size_stims/M/NA/NA,,,,,,,,,,,155,1.5,
144,1,,,iti,html-keyboard-response,144,12570356,0.0-0.0-272.0,,,,,,,,,,,,,,,,,,,,,,,,,,,,,,,,155,0,
145,1,,,size_choice,html-keyboard-response,145,12572280,0.0-0.0-274.0,,,,68,68,2,1500,S-XL,1,XL,S,4,1,rug,key chain,rug12,key chain13,297,27,/static/Size_judgement/Stimuli/Size_stims/XL/rug/senneh-hamadan.jpg,/static/Size_judgement/Stimuli/Size_stims/S/key chain/Fancy_Liquid_Column_Shape_Key_Ring_with_Floater.jpg,,,,,,,,,,,156.5,1.5,
146,1,,,iti,html-keyboard-response,146,12573252,0.0-0.0-276.0,,,,,,,,,,,,,,,,,,,,,,,,,,,,,,,,157,0.5,
147,1,,,size_choice,html-keyboard-response,147,12575226,0.0-0.0-278.0,,,,69,69,2,1500,S-S,,S,S,1,1,coffee mug,coin,coffee mug8,coin15,52,44,/static/Size_judgement/Stimuli/Size_stims/S/coffee mug/ACOFFMUG8.jpg,/static/Size_judgement/Stimuli/Size_stims/S/coin/A20FORIN.jpg,,,,,,,,,,,158.5,1.5,
148,1,,,iti,html-keyboard-response,148,12576329,0.0-0.0-280.0,,,,,,,,,,,,,,,,,,,,,,,,,,,,,,,,159,0.5,
149,1,,,size_choice,html-keyboard-response,149,12578079,0.0-0.0-282.0,,,,70,70,2,1000,XL-XL,,XL,XL,4,4,airplane,tree,airplane11,tree5,281,245,/static/Size_judgement/Stimuli/Size_stims/XL/airplane/AB1BOMB5.jpg,/static/Size_judgement/Stimuli/Size_stims/XL/tree/ATREE6.jpg,,,,,,,,,,,160.5,1.5,
150,1,,,iti,html-keyboard-response,150,12579215,0.0-0.0-284.0,,,,,,,,,,,,,,,,,,,,,,,,,,,,,,,,160.5,0,
151,1,,,size_choice,html-keyboard-response,151,12581129,0.0-0.0-286.0,,,,71,71,2,1000,L-XL,1,XL,L,4,3,tree,bike,tree12,bike3,252,183,/static/Size_judgement/Stimuli/Size_stims/XL/tree/APINETREE.jpg,/static/Size_judgement/Stimuli/Size_stims/L/bike/RACING-BIKE-13540473898.jpg,,,,,,,,,,,162,1.5,
152,1,,,iti,html-keyboard-response,152,12582356,0.0-0.0-288.0,,,,,,,,,,,,,,,,,,,,,,,,,,,,,,,,162,0,
153,1,,,size_choice,html-keyboard-response,153,12583982,0.0-0.0-290.0,,,,72,72,2,1500,S-M,1,M,S,2,1,guitar,lipstick,guitar1,lipstick1,106,0,/static/Size_judgement/Stimuli/Size_stims/M/guitar/iaxe_usb_guitar.jpg,/static/Size_judgement/Stimuli/Size_stims/S/lipstick/P170102_hero.jpg,,,,,,,,,,,163.5,1.5,
154,1,,,iti,html-keyboard-response,154,12584982,0.0-0.0-292.0,,,,,,,,,,,,,,,,,,,,,,,,,,,,,,,,164,0.5,
155,1,,,size_choice,html-keyboard-response,155,12586996,0.0-0.0-294.0,,,,73,73,2,1000,S-L,1,L,S,3,1,dresser,key chain,dresser7,key chain12,217,26,/static/Size_judgement/Stimuli/Size_stims/L/dresser/ADRESSE43.jpg,/static/Size_judgement/Stimuli/Size_stims/S/key chain/keychain.jpg,,,,,,,,,,,165.5,1.5,
156,1,,,iti,html-keyboard-response,156,12588468,0.0-0.0-296.0,,,,,,,,,,,,,,,,,,,,,,,,,,,,,,,,165.5,0,
157,1,,,size_choice,html-keyboard-response,157,12590164,0.0-0.0-298.0,,,,74,74,2,1000,M-M,,M,M,2,2,guitar,baby carriage,guitar9,baby carriage3,114,138,/static/Size_judgement/Stimuli/Size_stims/M/guitar/AELECGUI5.jpg,/static/Size_judgement/Stimuli/Size_stims/M/baby carriage/Stroller.jpg,,,,,,,,,,,167,1.5,
158,1,,,iti,html-keyboard-response,158,12591129,0.0-0.0-300.0,,,,,,,,,,,,,,,,,,,,,,,,,,,,,,,,167,0,
159,1,,,size_choice,html-keyboard-response,159,12593183,0.0-0.0-302.0,,,,75,75,2,1000,S-M,0,S,M,1,2,flashlight,guitar,flashlight1,guitar14,60,119,/static/Size_judgement/Stimuli/Size_stims/S/flashlight/Graphite3D.jpg,/static/Size_judgement/Stimuli/Size_stims/M/guitar/AELCGUI13.jpg,,,,,,,,,,,168.5,1.5,
160,1,,,iti,html-keyboard-response,160,12594377,0.0-0.0-304.0,,,,,,,,,,,,,,,,,,,,,,,,,,,,,,,,168.5,0,
161,1,,,size_choice,html-keyboard-response,161,12596217,0.0-0.0-306.0,,,,76,76,2,1000,M-XL,0,M,XL,2,4,guitar,rug,guitar10,rug8,115,293,/static/Size_judgement/Stimuli/Size_stims/M/guitar/AELCGUITA.jpg,/static/Size_judgement/Stimuli/Size_stims/XL/rug/myrug2.jpg,,,,,,,,,,,170,1.5,
162,1,,,iti,html-keyboard-response,162,12597215,0.0-0.0-308.0,,,,,,,,,,,,,,,,,,,,,,,,,,,,,,,,170,0,
163,1,,,size_choice,html-keyboard-response,163,12599177,0.0-0.0-310.0,,,,77,77,2,3000,M-L,1,L,M,3,2,small table,backpack,small table13,backpack14,208,134,/static/Size_judgement/Stimuli/Size_stims/L/small table/ATABLE25.jpg,/static/Size_judgement/Stimuli/Size_stims/M/backpack/15860052.thl.jpg,,,,,,,,,,,171.5,1.5,
164,1,,,iti,html-keyboard-response,164,12602110,0.0-0.0-312.0,,,,,,,,,,,,,,,,,,,,,,,,,,,,,,,,173.5,2,
165,1,,,size_choice,html-keyboard-response,165,12604163,0.0-0.0-314.0,,,,78,78,2,1000,M-L,1,L,M,3,2,patio lounge chair,guitar,patio lounge chair13,guitar15,178,120,/static/Size_judgement/Stimuli/Size_stims/L/patio lounge chair/grosfillex-bahia-resin-chaise-lounges.jpg,/static/Size_judgement/Stimuli/Size_stims/M/guitar/AELCGUI12.jpg,,,,,,,,,,,175,1.5,
166,1,,,iti,html-keyboard-response,166,12605374,0.0-0.0-316.0,,,,,,,,,,,,,,,,,,,,,,,,,,,,,,,,175,0,
167,1,,,size_choice,html-keyboard-response,167,12607225,0.0-0.0-318.0,,,,79,79,2,1500,S-M,0,S,M,1,2,lipstick,garbage trash,lipstick11,garbage trash6,10,81,/static/Size_judgement/Stimuli/Size_stims/S/lipstick/21SS8DBWDQL._SS500_.jpg,/static/Size_judgement/Stimuli/Size_stims/M/garbage trash/009.-trashcan_lrg.jpg,,,,,,,,,,,176.5,1.5,
168,1,,,iti,html-keyboard-response,168,12608009,0.0-0.0-320.0,,,,,,,,,,,,,,,,,,,,,,,,,,,,,,,,177,0.5,
169,1,,,size_choice,html-keyboard-response,169,12610345,0.0-0.0-322.0,,,,80,80,2,1000,M-L,0,M,L,2,3,guitar,patio lounge chair,guitar11,patio lounge chair8,116,173,/static/Size_judgement/Stimuli/Size_stims/M/guitar/Aguitar78.jpg,/static/Size_judgement/Stimuli/Size_stims/L/patio lounge chair/43-1.jpg,,,,,,,,,,,178.5,1.5,
170,1,,,iti,html-keyboard-response,170,12611096,0.0-0.0-324.0,,,,,,,,,,,,,,,,,,,,,,,,,,,,,,,,178.5,0,
171,1,,,size_choice,html-keyboard-response,171,12613044,0.0-0.0-326.0,,,,81,81,2,2000,S-XL,0,S,XL,1,4,flashlight,sofa,flashlight6,sofa9,65,264,/static/Size_judgement/Stimuli/Size_stims/S/flashlight/Streamlight-Flashlight-LED-4AA-Yellow-Case-w-7-Blue-LEDs-B0000WUNSC-L.jpg,/static/Size_judgement/Stimuli/Size_stims/XL/sofa/ALOVSEAT9.jpg,,,,,,,,,,,180,1.5,
172,1,,,iti,html-keyboard-response,172,12615673,0.0-0.0-328.0,,,,,,,,,,,,,,,,,,,,,,,,,,,,,,,,181,1,
173,1,,,size_choice,html-keyboard-response,173,12617987,0.0-0.0-330.0,,,,82,82,2,1000,S-S,,S,S,1,1,coin,flashlight,coin1,flashlight2,30,61,/static/Size_judgement/Stimuli/Size_stims/S/coin/ATHAICOIN.jpg,/static/Size_judgement/Stimuli/Size_stims/S/flashlight/AV-9 No Battery Flashlight.jpg,,,,,,,,,,,182.5,1.5,
174,1,,,iti,html-keyboard-response,174,12619470,0.0-0.0-332.0,,,,,,,,,,,,,,,,,,,,,,,,,,,,,,,,182.5,0,
175,1,,,size_choice,html-keyboard-response,175,12621228,0.0-0.0-334.0,,,,83,83,2,2000,S-L,1,L,S,3,1,patio lounge chair,lipstick,patio lounge chair14,lipstick2,179,1,/static/Size_judgement/Stimuli/Size_stims/L/patio lounge chair/2987951.jpg,/static/Size_judgement/Stimuli/Size_stims/S/lipstick/11uuoPMY+OL._SS500_.jpg,,,,,,,,,,,184,1.5,
176,1,,,iti,html-keyboard-response,176,12623406,0.0-0.0-336.0,,,,,,,,,,,,,,,,,,,,,,,,,,,,,,,,185,1,
177,1,,,size_choice,html-keyboard-response,177,12625246,0.0-0.0-338.0,,,,84,84,2,1000,S-XL,0,S,XL,1,4,coffee mug,airplane,coffee mug7,airplane7,51,277,/static/Size_judgement/Stimuli/Size_stims/S/coffee mug/ACOFFMUG4.jpg,/static/Size_judgement/Stimuli/Size_stims/XL/airplane/AGERPLAN5.jpg,,,,,,,,,,,186.5,1.5,
178,1,,,iti,html-keyboard-response,178,12626217,0.0-0.0-340.0,,,,,,,,,,,,,,,,,,,,,,,,,,,,,,,,186.5,0,
179,1,,,size_choice,html-keyboard-response,179,12628126,0.0-0.0-342.0,,,,85,85,2,1000,L-L,,L,L,3,3,lawn mower,dresser,lawn mower7,dresser13,157,223,/static/Size_judgement/Stimuli/Size_stims/L/lawn mower/lawnmower_02.jpg,/static/Size_judgement/Stimuli/Size_stims/L/dresser/ADRESSE70.jpg,,,,,,,,,,,188,1.5,
180,1,,,iti,html-keyboard-response,180,12629251,0.0-0.0-344.0,,,,,,,,,,,,,,,,,,,,,,,,,,,,,,,,188,0,
181,1,,,size_choice,html-keyboard-response,181,12631113,0.0-0.0-346.0,,,,86,86,2,3000,L-L,,L,L,3,3,lawn mower,bike,lawn mower11,bike10,161,190,/static/Size_judgement/Stimuli/Size_stims/L/lawn mower/lawnmower.jpg,/static/Size_judgement/Stimuli/Size_stims/L/bike/3_1.jpg,,,,,,,,,,,189.5,1.5,
182,1,,,iti,html-keyboard-response,182,12634292,0.0-0.0-348.0,,,,,,,,,,,,,,,,,,,,,,,,,,,,,,,,191.5,2,
183,1,,,size_choice,html-keyboard-response,183,12636182,0.0-0.0-350.0,,,,87,87,2,2000,S-S,,S,S,1,1,flashlight,key chain,flashlight9,key chain2,68,16,/static/Size_judgement/Stimuli/Size_stims/S/flashlight/Streamlight-Stinger-Rechargeable-Flashlight-with-Charger-Black-75014-B00008BFSI-L.jpg,/static/Size_judgement/Stimuli/Size_stims/S/key chain/superman_returns_pewter_keychain_2.jpg,,,,,,,,,,,193,1.5,
184,1,,,iti,html-keyboard-response,184,12638453,0.0-0.0-352.0,,,,,,,,,,,,,,,,,,,,,,,,,,,,,,,,194,1,
185,1,,,size_choice,html-keyboard-response,185,12640128,0.0-0.0-354.0,,,,88,88,2,2000,L-XL,1,XL,L,4,3,sofa,lawn mower,sofa1,lawn mower3,256,153,/static/Size_judgement/Stimuli/Size_stims/XL/sofa/sofa-Nicholassingleseater-th.jpg,/static/Size_judgement/Stimuli/Size_stims/L/lawn mower/07137701000.jpg,,,,,,,,,,,195.5,1.5,
186,1,,,iti,html-keyboard-response,186,12642779,0.0-0.0-356.0,,,,,,,,,,,,,,,,,,,,,,,,,,,,,,,,196.5,1,
187,1,,,size_choice,html-keyboard-response,187,12645071,0.0-0.0-358.0,,,,89,89,2,2000,M-XL,0,M,XL,2,4,baby carriage,sofa,baby carriage11,sofa12,146,267,/static/Size_judgement/Stimuli/Size_stims/M/baby carriage/Baby_Carriage-2.jpg,/static/Size_judgement/Stimuli/Size_stims/XL/sofa/ShelterSofaS6.jpg,,,,,,,,,,,198,1.5,
188,1,,,iti,html-keyboard-response,188,12648006,0.0-0.0-360.0,,,,,,,,,,,,,,,,,,,,,,,,,,,,,,,,199,1,0
189,1,,9824430,size_final_tally,html-keyboard-response,189,22472437,0.0-1.0,,,50,,,,,,,,,,,,,,,,,,,,,,,,,,,,,,,