,success,ttype,start_time,trial_type,trial_index,time_elapsed,internal_node_id,warning,missed_checkup,PID,view_history,rt,responses,repeat_instructions,key_press,index,trial_num,block,iti,pair_type,high_size_on_left,left_size_group,right_size_group,left_size_num,right_size_num,left_category,right_category,left_exemplar,right_exemplar,left_index,right_index,left_img_path,right_img_path,left_chosen,chosen_category,unchosen_category,chosen_size_group,unchosen_size_group,chosen_size_num,unchosen_size_num,chosen_exemplar,unchosen_exemplar,accuracy,onset,duration,no_response,size_final_tally
0,True,full_screen,d06012022hr2039,fullscreen,0,2177,0.0-0.0,0,0,50795,,,,,,,,,,,,,,,,,,,,,,,,,,,,,,,,,,,,,
1,,size_instructions,,instructions,1,4222,0.0-1.0-0.0-0.0,0,0,50795,"[{""page_index"":0,""viewing_time"":1112},{""page_index"":1,""viewing_time"":166},{""page_index"":2,""viewing_time"":134},{""page_index"":3,""viewing_time"":151},{""page_index"":4,""viewing_time"":133},{""page_index"":5,""viewing_time"":349}]",2045.0,,,,,,,,,,,,,,,,,,,,,,,,,,,,,,,,,,,
2,,size_comprehension_check,,survey-multi-choice,2,9340,0.0-1.0-0.0-1.0,0,0,50795,,5115.0,"{""Q0"":""True"",""Q1"":""Size on the screen"",""Q2"":""True"",""Q3"":""D for left and K for right""}",1.0,,,,,,,,,,,,,,,,,,,,,,,,,,,,,,,,,
3,,missed_instruction_checkup,,html-keyboard-response,3,9898,0.0-1.0-0.0-2.0-0.0,0,1,50795,,556.0,,,68.0,,,,,,,,,,,,,,,,,,,,,,,,,,,,,,,,
4,,size_instructions,,instructions,4,11904,0.0-1.0-0.1-0.1,0,0,50795,"[{""page_index"":0,""viewing_time"":875},{""page_index"":1,""viewing_time"":337},{""page_index"":2,""viewing_time"":130},{""page_index"":3,""viewing_time"":176},{""page_index"":4,""viewing_time"":271},{""page_index"":5,""viewing_time"":216}]",2005.0,,,,,,,,,,,,,,,,,,,,,,,,,,,,,,,,,,,
5,,size_comprehension_check,,survey-multi-choice,5,18441,0.0-1.0-0.1-1.1,0,0,50795,,6534.0,"{""Q0"":""True"",""Q1"":""Size in the real world"",""Q2"":""True"",""Q3"":""D for left and K for right""}",0.0,,,,,,,,,,,,,,,,,,,,,,,,,,,,,,,,,
6,,,,html-keyboard-response,6,19098,0.0-1.0-1.0,0,0,50795,,656.0,,,68.0,,,,,,,,,,,,,,,,,,,,,,,,,,,,,,,,
7,,size_choice,,html-keyboard-response,7,19615,0.0-1.0-2.0,0,0,50795,,515.0,,,68.0,0.0,0.0,1.0,1500.0,S-M,0.0,S,M,1.0,2.0,die,basketball,die2,basketball9,101.0,58.0,/static/Size_judgement/Stimuli/Size_stims/S/die/die9.jpg,/static/Size_judgement/Stimuli/Size_stims/M/basketball/basketball5.jpg,1.0,die,basketball,S,M,1.0,2.0,die2,basketball9,0.0,0.515,0.515,0.0,
8,,size_choice_confirmation,,html-keyboard-response,8,20606,0.0-1.0-3.0-0.0,0,0,50795,,,,,,0.0,,,,,,,,,,,,,,,,,,,,,,,,,,,,1.5,0.985,,
9,,iti,,html-keyboard-response,9,20708,0.0-1.0-4.0,0,0,50795,,,,,,,,,,,,,,,,,,,,,,,,,,,,,,,,,,3.0,1.5,,
10,,size_choice,,html-keyboard-response,10,21321,0.0-1.0-6.0,0,0,50795,,612.0,,,68.0,1.0,1.0,1.0,1500.0,S-L,1.0,L,S,3.0,1.0,cooler,die,cooler7,die7,6.0,106.0,/static/Size_judgement/Stimuli/Size_stims/L/cooler/cooler4.jpg,/static/Size_judgement/Stimuli/Size_stims/S/die/die4.jpg,1.0,cooler,die,L,S,3.0,1.0,cooler7,die7,1.0,3.612,0.612,0.0,
11,,size_choice_confirmation,,html-keyboard-response,11,22213,0.0-1.0-7.0-0.0,0,0,50795,,,,,,1.0,,,,,,,,,,,,,,,,,,,,,,,,,,,,4.5,0.888,,
12,,iti,,html-keyboard-response,12,22315,0.0-1.0-8.0,0,0,50795,,,,,,,,,,,,,,,,,,,,,,,,,,,,,,,,,,6.0,1.5,,
13,,size_choice,,html-keyboard-response,13,22461,0.0-1.0-10.0,0,0,50795,,145.0,,,68.0,2.0,2.0,1.0,3000.0,M-XL,1.0,XL,M,4.0,2.0,car,hairdryer,car3,hairdryer4,152.0,73.0,/static/Size_judgement/Stimuli/Size_stims/XL/car/car4.jpg,/static/Size_judgement/Stimuli/Size_stims/M/hairdryer/hairdryer16.jpg,1.0,car,hairdryer,XL,M,4.0,2.0,car3,hairdryer4,1.0,6.145,0.145,0.0,
14,,size_choice_confirmation,,html-keyboard-response,14,23819,0.0-1.0-11.0-0.0,0,0,50795,,,,,,2.0,,,,,,,,,,,,,,,,,,,,,,,,,,,,7.5,1.355,,
15,,iti,,html-keyboard-response,15,23922,0.0-1.0-12.0,0,0,50795,,,,,,,,,,,,,,,,,,,,,,,,,,,,,,,,,,10.5,3.0,,
16,,size_choice,,html-keyboard-response,16,23944,0.0-1.0-14.0,0,0,50795,,22.0,,,68.0,3.0,3.0,1.0,1000.0,M-L,1.0,L,M,3.0,2.0,garbagecan,ketchup,garbagecan10,ketchup8,39.0,97.0,/static/Size_judgement/Stimuli/Size_stims/L/garbagecan/garbagecan11.jpg,/static/Size_judgement/Stimuli/Size_stims/M/ketchup/ketchup5.jpg,1.0,garbagecan,ketchup,L,M,3.0,2.0,garbagecan10,ketchup8,1.0,10.522,0.022000000000000002,0.0,
17,,size_choice_confirmation,,html-keyboard-response,17,25423,0.0-1.0-15.0-0.0,0,0,50795,,,,,,3.0,,,,,,,,,,,,,,,,,,,,,,,,,,,,12.0,1.4780000000000002,,
18,,iti,,html-keyboard-response,18,25524,0.0-1.0-16.0,0,0,50795,,,,,,,,,,,,,,,,,,,,,,,,,,,,,,,,,,13.0,1.0,,
19,,size_choice,,html-keyboard-response,19,25568,0.0-1.0-18.0,0,0,50795,,43.0,,,68.0,4.0,4.0,1.0,2000.0,S-S,,S,S,1.0,1.0,thread,teabag,thread6,teabag4,145.0,133.0,/static/Size_judgement/Stimuli/Size_stims/S/thread/thread2.jpg,/static/Size_judgement/Stimuli/Size_stims/S/teabag/teabag3.jpg,1.0,thread,teabag,S,S,1.0,1.0,thread6,teabag4,,13.043,0.043,0.0,
20,,size_choice_confirmation,,html-keyboard-response,20,27028,0.0-1.0-19.0-0.0,0,0,50795,,,,,,4.0,,,,,,,,,,,,,,,,,,,,,,,,,,,,14.5,1.4569999999999999,,
21,,iti,,html-keyboard-response,21,27129,0.0-1.0-20.0,0,0,50795,,,,,,,,,,,,,,,,,,,,,,,,,,,,,,,,,,16.5,2.0,,
22,,size_choice,,html-keyboard-response,22,27329,0.0-1.0-22.0,0,0,50795,,199.0,,,68.0,5.0,5.0,1.0,3000.0,M-XL,1.0,XL,M,4.0,2.0,tractor,ketchup,tractor8,ketchup1,187.0,90.0,/static/Size_judgement/Stimuli/Size_stims/XL/tractor/tractor10.jpg,/static/Size_judgement/Stimuli/Size_stims/M/ketchup/ketchup8.jpg,1.0,tractor,ketchup,XL,M,4.0,2.0,tractor8,ketchup1,1.0,16.699,0.19899999999999998,0.0,
23,,size_choice_confirmation,,html-keyboard-response,23,28637,0.0-1.0-23.0-0.0,0,0,50795,,,,,,5.0,,,,,,,,,,,,,,,,,,,,,,,,,,,,18.0,1.301,,
24,,iti,,html-keyboard-response,24,28740,0.0-1.0-24.0,0,0,50795,,,,,,,,,,,,,,,,,,,,,,,,,,,,,,,,,,21.0,3.0,,
25,,size_choice,,html-keyboard-response,25,30244,0.0-1.0-26.0,0,0,50795,,,,,,6.0,6.0,1.0,1000.0,S-S,,S,S,1.0,1.0,paperclip,teabag,paperclip3,teabag2,112.0,131.0,/static/Size_judgement/Stimuli/Size_stims/S/paperclip/paperclip1.jpg,/static/Size_judgement/Stimuli/Size_stims/S/teabag/teabag8.jpg,,,,,,,,,,,22.5,1.5,1.0,
26,,iti,,html-keyboard-response,26,30348,0.0-1.0-28.0,0,0,50795,,,,,,,,,,,,,,,,,,,,,,,,,,,,,,,,,,23.5,1.0,,
27,,size_choice,,html-keyboard-response,27,31420,0.0-1.0-30.0,0,0,50795,,1071.0,,,75.0,7.0,7.0,1.0,1000.0,S-M,0.0,S,M,1.0,2.0,paperclip,hairdryer,paperclip1,hairdryer6,110.0,75.0,/static/Size_judgement/Stimuli/Size_stims/S/paperclip/paperclip9.jpg,/static/Size_judgement/Stimuli/Size_stims/M/hairdryer/hairdryer8.jpg,0.0,hairdryer,paperclip,M,S,2.0,1.0,hairdryer6,paperclip1,1.0,24.570999999999998,1.071,0.0,
28,,size_choice_confirmation,,html-keyboard-response,28,31853,0.0-1.0-31.0-0.0,0,0,50795,,,,,,7.0,,,,,,,,,,,,,,,,,,,,,,,,,,,,25.0,0.429,,
29,,iti,,html-keyboard-response,29,31954,0.0-1.0-32.0,0,0,50795,,,,,,,,,,,,,,,,,,,,,,,,,,,,,,,,,,26.0,1.0,,
30,,size_choice,,html-keyboard-response,30,32218,0.0-1.0-34.0,0,0,50795,,263.0,,,75.0,8.0,8.0,1.0,1500.0,S-L,1.0,L,S,3.0,1.0,garbagecan,die,garbagecan6,die4,35.0,103.0,/static/Size_judgement/Stimuli/Size_stims/L/garbagecan/garbagecan14.jpg,/static/Size_judgement/Stimuli/Size_stims/S/die/die2.jpg,0.0,die,garbagecan,S,L,1.0,3.0,die4,garbagecan6,0.0,26.263,0.263,0.0,
31,,size_choice_confirmation,,html-keyboard-response,31,33458,0.0-1.0-35.0-0.0,0,0,50795,,,,,,8.0,,,,,,,,,,,,,,,,,,,,,,,,,,,,27.5,1.237,,
32,,iti,,html-keyboard-response,32,33562,0.0-1.0-36.0,0,0,50795,,,,,,,,,,,,,,,,,,,,,,,,,,,,,,,,,,29.0,1.5,,
33,,size_choice,,html-keyboard-response,33,33598,0.0-1.0-38.0,0,0,50795,,35.0,,,75.0,9.0,9.0,1.0,1000.0,L-L,,L,L,3.0,3.0,garbagecan,deskchair,garbagecan8,deskchair6,37.0,15.0,/static/Size_judgement/Stimuli/Size_stims/L/garbagecan/garbagecan13.jpg,/static/Size_judgement/Stimuli/Size_stims/L/deskchair/deskchair5.jpg,0.0,deskchair,garbagecan,L,L,3.0,3.0,deskchair6,garbagecan8,,29.035,0.035,0.0,
34,,size_choice_confirmation,,html-keyboard-response,34,35069,0.0-1.0-39.0-0.0,0,0,50795,,,,,,9.0,,,,,,,,,,,,,,,,,,,,,,,,,,,,30.5,1.465,,
35,,iti,,html-keyboard-response,35,35170,0.0-1.0-40.0,0,0,50795,,,,,,,,,,,,,,,,,,,,,,,,,,,,,,,,,,31.5,1.0,,
36,,size_choice,,html-keyboard-response,36,35279,0.0-1.0-42.0,0,0,50795,,108.0,,,75.0,10.0,10.0,1.0,1000.0,S-XL,1.0,XL,S,4.0,1.0,crane,screws,crane7,screws3,166.0,122.0,/static/Size_judgement/Stimuli/Size_stims/XL/crane/crane3.jpg,/static/Size_judgement/Stimuli/Size_stims/S/screws/screws7.jpg,0.0,screws,crane,S,XL,1.0,4.0,screws3,crane7,0.0,31.608,0.10800000000000001,0.0,
37,,size_choice_confirmation,,html-keyboard-response,37,36675,0.0-1.0-43.0-0.0,0,0,50795,,,,,,10.0,,,,,,,,,,,,,,,,,,,,,,,,,,,,33.0,1.392,,
38,,iti,,html-keyboard-response,38,36777,0.0-1.0-44.0,0,0,50795,,,,,,,,,,,,,,,,,,,,,,,,,,,,,,,,,,34.0,1.0,,
39,,size_choice,,html-keyboard-response,39,38278,0.0-1.0-46.0,0,0,50795,,,,,,11.0,11.0,1.0,2000.0,M-L,1.0,L,M,3.0,2.0,deskchair,coffeemaker,deskchair1,coffeemaker3,10.0,62.0,/static/Size_judgement/Stimuli/Size_stims/L/deskchair/deskchair9.jpg,/static/Size_judgement/Stimuli/Size_stims/M/coffeemaker/coffeemaker13.jpg,,,,,,,,,,,35.5,1.5,1.0,
40,,iti,,html-keyboard-response,40,38381,0.0-1.0-48.0,0,0,50795,,,,,,,,,,,,,,,,,,,,,,,,,,,,,,,,,,37.5,2.0,,
41,,size_choice,,html-keyboard-response,41,38720,0.0-1.0-50.0,0,0,50795,,339.0,,,75.0,12.0,12.0,1.0,3500.0,L-L,,L,L,3.0,3.0,deskchair,garbagecan,deskchair2,garbagecan5,11.0,34.0,/static/Size_judgement/Stimuli/Size_stims/L/deskchair/deskchair8.jpg,/static/Size_judgement/Stimuli/Size_stims/L/garbagecan/garbagecan3.jpg,0.0,garbagecan,deskchair,L,L,3.0,3.0,garbagecan5,deskchair2,,37.839,0.33899999999999997,0.0,
42,,size_choice_confirmation,,html-keyboard-response,42,39885,0.0-1.0-51.0-0.0,0,0,50795,,,,,,12.0,,,,,,,,,,,,,,,,,,,,,,,,,,,,39.0,1.161,,
43,,iti,,html-keyboard-response,43,39989,0.0-1.0-52.0,0,0,50795,,,,,,,,,,,,,,,,,,,,,,,,,,,,,,,,,,42.5,3.5,,
44,,size_choice,,html-keyboard-response,44,40025,0.0-1.0-54.0,0,0,50795,,35.0,,,75.0,13.0,13.0,1.0,3500.0,M-L,1.0,L,M,3.0,2.0,dishwasher,coffeemaker,dishwasher6,coffeemaker7,25.0,66.0,/static/Size_judgement/Stimuli/Size_stims/L/dishwasher/dishwasher6.jpg,/static/Size_judgement/Stimuli/Size_stims/M/coffeemaker/coffeemaker9.jpg,0.0,coffeemaker,dishwasher,M,L,2.0,3.0,coffeemaker7,dishwasher6,0.0,42.535,0.035,0.0,
45,,size_choice_confirmation,,html-keyboard-response,45,41495,0.0-1.0-55.0-0.0,0,0,50795,,,,,,13.0,,,,,,,,,,,,,,,,,,,,,,,,,,,,44.0,1.465,,
46,,iti,,html-keyboard-response,46,41599,0.0-1.0-56.0,0,0,50795,,,,,,,,,,,,,,,,,,,,,,,,,,,,,,,,,,47.5,3.5,,
47,,size_choice,,html-keyboard-response,47,41634,0.0-1.0-58.0,0,0,50795,,34.0,,,75.0,14.0,14.0,1.0,1000.0,S-L,0.0,S,L,1.0,3.0,screws,deskchair,screws5,deskchair3,124.0,12.0,/static/Size_judgement/Stimuli/Size_stims/S/screws/screws2.jpg,/static/Size_judgement/Stimuli/Size_stims/L/deskchair/deskchair10.jpg,0.0,deskchair,screws,L,S,3.0,1.0,deskchair3,screws5,1.0,47.534,0.034,0.0,
48,,size_choice_confirmation,,html-keyboard-response,48,43106,0.0-1.0-59.0-0.0,0,0,50795,,,,,,14.0,,,,,,,,,,,,,,,,,,,,,,,,,,,,49.0,1.466,,
49,,iti,,html-keyboard-response,49,43207,0.0-1.0-60.0,0,0,50795,,,,,,,,,,,,,,,,,,,,,,,,,,,,,,,,,,50.0,1.0,,
50,,size_choice,,html-keyboard-response,50,43249,0.0-1.0-62.0,0,0,50795,,40.0,,,75.0,15.0,15.0,1.0,2000.0,L-XL,1.0,XL,L,4.0,3.0,van,dishwasher,van9,dishwasher10,198.0,29.0,/static/Size_judgement/Stimuli/Size_stims/XL/van/van9.jpg,/static/Size_judgement/Stimuli/Size_stims/L/dishwasher/dishwasher1.jpg,0.0,dishwasher,van,L,XL,3.0,4.0,dishwasher10,van9,0.0,50.04,0.04,0.0,
51,,size_choice_confirmation,,html-keyboard-response,51,44713,0.0-1.0-63.0-0.0,0,0,50795,,,,,,15.0,,,,,,,,,,,,,,,,,,,,,,,,,,,,51.5,1.46,,
52,,iti,,html-keyboard-response,52,44818,0.0-1.0-64.0,0,0,50795,,,,,,,,,,,,,,,,,,,,,,,,,,,,,,,,,,53.5,2.0,,
53,,size_choice,,html-keyboard-response,53,44945,0.0-1.0-66.0,0,0,50795,,126.0,,,75.0,16.0,16.0,1.0,1500.0,S-S,,S,S,1.0,1.0,die,screws,die3,screws8,102.0,127.0,/static/Size_judgement/Stimuli/Size_stims/S/die/die10.jpg,/static/Size_judgement/Stimuli/Size_stims/S/screws/screws10.jpg,0.0,screws,die,S,S,1.0,1.0,screws8,die3,,53.626000000000005,0.126,0.0,
54,,size_choice_confirmation,,html-keyboard-response,54,46322,0.0-1.0-67.0-0.0,0,0,50795,,,,,,16.0,,,,,,,,,,,,,,,,,,,,,,,,,,,,55.0,1.374,,
55,,iti,,html-keyboard-response,55,46424,0.0-1.0-68.0,0,0,50795,,,,,,,,,,,,,,,,,,,,,,,,,,,,,,,,,,56.5,1.5,,
56,,size_choice,,html-keyboard-response,56,46566,0.0-1.0-70.0,0,0,50795,,141.0,,,75.0,17.0,17.0,1.0,1500.0,M-M,,M,M,2.0,2.0,ketchup,handsaw,ketchup2,handsaw8,91.0,87.0,/static/Size_judgement/Stimuli/Size_stims/M/ketchup/ketchup9.jpg,/static/Size_judgement/Stimuli/Size_stims/M/handsaw/handsaw7.jpg,0.0,handsaw,ketchup,M,M,2.0,2.0,handsaw8,ketchup2,,56.641000000000005,0.141,0.0,
57,,size_choice_confirmation,,html-keyboard-response,57,47927,0.0-1.0-71.0-0.0,0,0,50795,,,,,,17.0,,,,,,,,,,,,,,,,,,,,,,,,,,,,58.0,1.359,,
58,,iti,,html-keyboard-response,58,48032,0.0-1.0-72.0,0,0,50795,,,,,,,,,,,,,,,,,,,,,,,,,,,,,,,,,,59.5,1.5,,
59,,size_choice,,html-keyboard-response,59,48137,0.0-1.0-74.0,0,0,50795,,104.0,,,75.0,18.0,18.0,1.0,1000.0,M-L,1.0,L,M,3.0,2.0,cooler,basketball,cooler4,basketball6,3.0,55.0,/static/Size_judgement/Stimuli/Size_stims/L/cooler/cooler3.jpg,/static/Size_judgement/Stimuli/Size_stims/M/basketball/basketball2.jpg,0.0,basketball,cooler,M,L,2.0,3.0,basketball6,cooler4,0.0,59.604,0.10400000000000001,0.0,
60,,size_choice_confirmation,,html-keyboard-response,60,49535,0.0-1.0-75.0-0.0,0,0,50795,,,,,,18.0,,,,,,,,,,,,,,,,,,,,,,,,,,,,61.0,1.396,,
61,,iti,,html-keyboard-response,61,49636,0.0-1.0-76.0,0,0,50795,,,,,,,,,,,,,,,,,,,,,,,,,,,,,,,,,,62.0,1.0,,
62,,size_choice,,html-keyboard-response,62,49843,0.0-1.0-78.0,0,0,50795,,206.0,,,75.0,19.0,19.0,1.0,1500.0,S-XL,1.0,XL,S,4.0,1.0,tractor,teabag,tractor6,teabag10,185.0,139.0,/static/Size_judgement/Stimuli/Size_stims/XL/tractor/tractor3.jpg,/static/Size_judgement/Stimuli/Size_stims/S/teabag/teabag4.jpg,0.0,teabag,tractor,S,XL,1.0,4.0,teabag10,tractor6,0.0,62.206,0.20600000000000002,0.0,
63,,size_choice_confirmation,,html-keyboard-response,63,51143,0.0-1.0-79.0-0.0,0,0,50795,,,,,,19.0,,,,,,,,,,,,,,,,,,,,,,,,,,,,63.5,1.294,,
64,,iti,,html-keyboard-response,64,51245,0.0-1.0-80.0,0,0,50795,,,,,,,,,,,,,,,,,,,,,,,,,,,,,,,,,,65.0,1.5,,
65,,size_choice,,html-keyboard-response,65,51336,0.0-1.0-82.0,0,0,50795,,90.0,,,75.0,20.0,20.0,1.0,2000.0,M-XL,0.0,M,XL,2.0,4.0,handsaw,tractor,handsaw1,tractor2,80.0,181.0,/static/Size_judgement/Stimuli/Size_stims/M/handsaw/handsaw8.jpg,/static/Size_judgement/Stimuli/Size_stims/XL/tractor/tractor7.jpg,0.0,tractor,handsaw,XL,M,4.0,2.0,tractor2,handsaw1,1.0,65.09,0.09,0.0,
66,,size_choice_confirmation,,html-keyboard-response,66,52749,0.0-1.0-83.0-0.0,0,0,50795,,,,,,20.0,,,,,,,,,,,,,,,,,,,,,,,,,,,,66.5,1.41,,
67,,iti,,html-keyboard-response,67,52850,0.0-1.0-84.0,0,0,50795,,,,,,,,,,,,,,,,,,,,,,,,,,,,,,,,,,68.5,2.0,,
68,,size_choice,,html-keyboard-response,68,53036,0.0-1.0-86.0,0,0,50795,,185.0,,,75.0,21.0,21.0,1.0,1000.0,L-L,,L,L,3.0,3.0,mailbox,garbagecan,mailbox2,garbagecan7,41.0,36.0,/static/Size_judgement/Stimuli/Size_stims/L/mailbox/mailbox2.jpg,/static/Size_judgement/Stimuli/Size_stims/L/garbagecan/garbagecan16.jpg,0.0,garbagecan,mailbox,L,L,3.0,3.0,garbagecan7,mailbox2,,68.685,0.185,0.0,
69,,size_choice_confirmation,,html-keyboard-response,69,54354,0.0-1.0-87.0-0.0,0,0,50795,,,,,,21.0,,,,,,,,,,,,,,,,,,,,,,,,,,,,70.0,1.315,,
70,,iti,,html-keyboard-response,70,54456,0.0-1.0-88.0,0,0,50795,,,,,,,,,,,,,,,,,,,,,,,,,,,,,,,,,,71.0,1.0,,
71,,size_choice,,html-keyboard-response,71,54477,0.0-1.0-90.0,0,0,50795,,20.0,,,75.0,22.0,22.0,1.0,2000.0,M-M,,M,M,2.0,2.0,ketchup,hairdryer,ketchup5,hairdryer5,94.0,74.0,/static/Size_judgement/Stimuli/Size_stims/M/ketchup/ketchup3.jpg,/static/Size_judgement/Stimuli/Size_stims/M/hairdryer/hairdryer15.jpg,0.0,hairdryer,ketchup,M,M,2.0,2.0,hairdryer5,ketchup5,,71.02,0.02,0.0,
72,,size_choice_confirmation,,html-keyboard-response,72,55960,0.0-1.0-91.0-0.0,0,0,50795,,,,,,22.0,,,,,,,,,,,,,,,,,,,,,,,,,,,,72.5,1.48,,
73,,iti,,html-keyboard-response,73,56061,0.0-1.0-92.0,0,0,50795,,,,,,,,,,,,,,,,,,,,,,,,,,,,,,,,,,74.5,2.0,,
74,,size_choice,,html-keyboard-response,74,56101,0.0-1.0-94.0,0,0,50795,,39.0,,,75.0,23.0,23.0,1.0,1000.0,M-XL,1.0,XL,M,4.0,2.0,crane,basketball,crane6,basketball5,165.0,54.0,/static/Size_judgement/Stimuli/Size_stims/XL/crane/crane2.jpg,/static/Size_judgement/Stimuli/Size_stims/M/basketball/basketball3.jpg,0.0,basketball,crane,M,XL,2.0,4.0,basketball5,crane6,0.0,74.539,0.039,0.0,
75,,size_choice_confirmation,,html-keyboard-response,75,57566,0.0-1.0-95.0-0.0,0,0,50795,,,,,,23.0,,,,,,,,,,,,,,,,,,,,,,,,,,,,76.0,1.4609999999999999,,
76,,iti,,html-keyboard-response,76,57672,0.0-1.0-96.0,0,0,50795,,,,,,,,,,,,,,,,,,,,,,,,,,,,,,,,,,77.0,1.0,,
77,,size_choice,,html-keyboard-response,77,59176,0.0-1.0-98.0,0,0,50795,,,,,,24.0,24.0,1.0,2000.0,M-XL,0.0,M,XL,2.0,4.0,coffeemaker,tractor,coffeemaker5,tractor9,64.0,188.0,/static/Size_judgement/Stimuli/Size_stims/M/coffeemaker/coffeemaker10.jpg,/static/Size_judgement/Stimuli/Size_stims/XL/tractor/tractor9.jpg,,,,,,,,,,,78.5,1.5,1.0,
78,,iti,,html-keyboard-response,78,59277,0.0-1.0-100.0,0,0,50795,,,,,,,,,,,,,,,,,,,,,,,,,,,,,,,,,,80.5,2.0,,
79,,size_choice,,html-keyboard-response,79,59576,0.0-1.0-102.0,0,0,50795,,297.0,,,68.0,25.0,25.0,1.0,1000.0,L-XL,1.0,XL,L,4.0,3.0,dumptruck,dishwasher,dumptruck10,dishwasher7,179.0,26.0,/static/Size_judgement/Stimuli/Size_stims/XL/dumptruck/dumptruck4.jpg,/static/Size_judgement/Stimuli/Size_stims/L/dishwasher/dishwasher7.jpg,1.0,dumptruck,dishwasher,XL,L,4.0,3.0,dumptruck10,dishwasher7,1.0,80.797,0.297,0.0,
80,,size_choice_confirmation,,html-keyboard-response,80,60893,0.0-1.0-103.0-0.0,0,0,50795,,,,,,25.0,,,,,,,,,,,,,,,,,,,,,,,,,,,,82.0,1.203,,
81,,iti,,html-keyboard-response,81,61956,0.0-1.0-104.0,0,0,50795,,,,,,,,,,,,,,,,,,,,,,,,,,,,,,,,,,83.0,1.0,,
82,,size_choice,,html-keyboard-response,82,63893,0.0-1.0-106.0,0,0,50795,,,,,,26.0,26.0,1.0,1000.0,S-XL,1.0,XL,S,4.0,1.0,dumptruck,die,dumptruck4,die1,173.0,100.0,/static/Size_judgement/Stimuli/Size_stims/XL/dumptruck/dumptruck1.jpg,/static/Size_judgement/Stimuli/Size_stims/S/die/die8.jpg,,,,,,,,,,,84.5,1.5,1.0,
83,,iti,,html-keyboard-response,83,64980,0.0-1.0-108.0,0,0,50795,,,,,,,,,,,,,,,,,,,,,,,,,,,,,,,,,,85.5,1.0,,
84,,size_choice,,html-keyboard-response,84,66559,0.0-1.0-110.0,0,0,50795,,,,,,27.0,27.0,1.0,1500.0,M-XL,0.0,M,XL,2.0,4.0,coffeemaker,dumptruck,coffeemaker8,dumptruck5,67.0,174.0,/static/Size_judgement/Stimuli/Size_stims/M/coffeemaker/coffeemaker5.jpg,/static/Size_judgement/Stimuli/Size_stims/XL/dumptruck/dumptruck3.jpg,,,,,,,,,,,87.0,1.5,1.0,
85,,iti,,html-keyboard-response,85,66664,0.0-1.0-112.0,0,0,50795,,,,,,,,,,,,,,,,,,,,,,,,,,,,,,,,,,88.5,1.5,,
86,,size_choice,,html-keyboard-response,86,68524,0.0-1.0-114.0,0,0,50795,,,,,,28.0,28.0,1.0,1500.0,XL-XL,,XL,XL,4.0,4.0,van,car,van6,car4,195.0,153.0,/static/Size_judgement/Stimuli/Size_stims/XL/van/van2.jpg,/static/Size_judgement/Stimuli/Size_stims/XL/car/car6.jpg,,,,,,,,,,,90.0,1.5,1.0,
87,,iti,,html-keyboard-response,87,68629,0.0-1.0-116.0,0,0,50795,,,,,,,,,,,,,,,,,,,,,,,,,,,,,,,,,,91.5,1.5,,
88,,size_choice,,html-keyboard-response,88,70893,0.0-1.0-118.0,0,0,50795,,,,,,29.0,29.0,1.0,1000.0,S-L,1.0,L,S,3.0,1.0,mailbox,thread,mailbox4,thread1,43.0,140.0,/static/Size_judgement/Stimuli/Size_stims/L/mailbox/mailbox5.jpg,/static/Size_judgement/Stimuli/Size_stims/S/thread/thread7.jpg,,,,,,,,,,,93.0,1.5,1.0,
89,,iti,,html-keyboard-response,89,71906,0.0-1.0-120.0,0,0,50795,,,,,,,,,,,,,,,,,,,,,,,,,,,,,,,,,,94.0,1.0,,
90,,size_choice,,html-keyboard-response,90,73893,0.0-1.0-122.0,0,0,50795,,,,,,30.0,30.0,1.0,1000.0,M-XL,0.0,M,XL,2.0,4.0,basketball,dumptruck,basketball4,dumptruck9,53.0,178.0,/static/Size_judgement/Stimuli/Size_stims/M/basketball/basketball1.jpg,/static/Size_judgement/Stimuli/Size_stims/XL/dumptruck/dumptruck5.jpg,,,,,,,,,,,95.5,1.5,1.0,
91,,iti,,html-keyboard-response,91,74945,0.0-1.0-124.0,0,0,50795,,,,,,,,,,,,,,,,,,,,,,,,,,,,,,,,,,96.5,1.0,,
92,,size_choice,,html-keyboard-response,92,76968,0.0-1.0-126.0,0,0,50795,,,,,,31.0,31.0,1.0,1000.0,M-L,0.0,M,L,2.0,3.0,ketchup,cooler,ketchup6,cooler9,95.0,8.0,/static/Size_judgement/Stimuli/Size_stims/M/ketchup/ketchup1.jpg,/static/Size_judgement/Stimuli/Size_stims/L/cooler/cooler7.jpg,,,,,,,,,,,98.0,1.5,1.0,
93,,iti,,html-keyboard-response,93,78034,0.0-1.0-128.0,0,0,50795,,,,,,,,,,,,,,,,,,,,,,,,,,,,,,,,,,99.0,1.0,,
94,,size_choice,,html-keyboard-response,94,79536,0.0-1.0-130.0,0,0,50795,,,,,,32.0,32.0,1.0,1000.0,XL-XL,,XL,XL,4.0,4.0,car,van,car6,van4,155.0,193.0,/static/Size_judgement/Stimuli/Size_stims/XL/car/car12.jpg,/static/Size_judgement/Stimuli/Size_stims/XL/van/van7.jpg,,,,,,,,,,,100.5,1.5,1.0,
95,,iti,,html-keyboard-response,95,79640,0.0-1.0-132.0,0,0,50795,,,,,,,,,,,,,,,,,,,,,,,,,,,,,,,,,,101.5,1.0,,
96,,size_choice,,html-keyboard-response,96,81950,0.0-1.0-134.0,0,0,50795,,,,,,33.0,33.0,1.0,1000.0,M-M,,M,M,2.0,2.0,hairdryer,basketball,hairdryer3,basketball10,72.0,59.0,/static/Size_judgement/Stimuli/Size_stims/M/hairdryer/hairdryer17.jpg,/static/Size_judgement/Stimuli/Size_stims/M/basketball/basketball4.jpg,,,,,,,,,,,103.0,1.5,1.0,
97,,iti,,html-keyboard-response,97,83122,0.0-1.0-136.0,0,0,50795,,,,,,,,,,,,,,,,,,,,,,,,,,,,,,,,,,104.0,1.0,,
98,,size_choice,,html-keyboard-response,98,84627,0.0-1.0-138.0,0,0,50795,,,,,,34.0,34.0,1.0,3000.0,S-M,0.0,S,M,1.0,2.0,screws,hairdryer,screws7,hairdryer1,126.0,70.0,/static/Size_judgement/Stimuli/Size_stims/S/screws/screws1.jpg,/static/Size_judgement/Stimuli/Size_stims/M/hairdryer/hairdryer11.jpg,,,,,,,,,,,105.5,1.5,1.0,
99,,iti,,html-keyboard-response,99,84727,0.0-1.0-140.0,0,0,50795,,,,,,,,,,,,,,,,,,,,,,,,,,,,,,,,,,108.5,3.0,,
100,,size_choice,,html-keyboard-response,100,85034,0.0-1.0-142.0,0,0,50795,,306.0,,,68.0,35.0,35.0,1.0,1500.0,S-XL,1.0,XL,S,4.0,1.0,dumptruck,thread,dumptruck2,thread3,171.0,142.0,/static/Size_judgement/Stimuli/Size_stims/XL/dumptruck/dumptruck8.jpg,/static/Size_judgement/Stimuli/Size_stims/S/thread/thread4.jpg,1.0,dumptruck,thread,XL,S,4.0,1.0,dumptruck2,thread3,1.0,108.806,0.306,0.0,
101,,size_choice_confirmation,,html-keyboard-response,101,86232,0.0-1.0-143.0-0.0,0,0,50795,,,,,,35.0,,,,,,,,,,,,,,,,,,,,,,,,,,,,110.0,1.194,,
102,,iti,,html-keyboard-response,102,86333,0.0-1.0-144.0,0,0,50795,,,,,,,,,,,,,,,,,,,,,,,,,,,,,,,,,,111.5,1.5,,
103,,size_choice,,html-keyboard-response,103,87208,0.0-1.0-146.0,0,0,50795,,873.0,,,75.0,36.0,36.0,1.0,2000.0,M-L,0.0,M,L,2.0,3.0,basketball,mailbox,basketball8,mailbox9,57.0,48.0,/static/Size_judgement/Stimuli/Size_stims/M/basketball/basketball7.jpg,/static/Size_judgement/Stimuli/Size_stims/L/mailbox/mailbox9.jpg,0.0,mailbox,basketball,L,M,3.0,2.0,mailbox9,basketball8,1.0,112.37299999999999,0.873,0.0,
104,,size_choice_confirmation,,html-keyboard-response,104,87838,0.0-1.0-147.0-0.0,0,0,50795,,,,,,36.0,,,,,,,,,,,,,,,,,,,,,,,,,,,,113.0,0.627,,
105,,iti,,html-keyboard-response,105,87942,0.0-1.0-148.0,0,0,50795,,,,,,,,,,,,,,,,,,,,,,,,,,,,,,,,,,115.0,2.0,,
106,,size_choice,,html-keyboard-response,106,88165,0.0-1.0-150.0,0,0,50795,,222.0,,,75.0,37.0,37.0,1.0,2000.0,S-XL,0.0,S,XL,1.0,4.0,thread,crane,thread5,crane8,144.0,167.0,/static/Size_judgement/Stimuli/Size_stims/S/thread/thread1.jpg,/static/Size_judgement/Stimuli/Size_stims/XL/crane/crane10.jpg,0.0,crane,thread,XL,S,4.0,1.0,crane8,thread5,1.0,115.22200000000001,0.222,0.0,
107,,size_choice_confirmation,,html-keyboard-response,107,89893,0.0-1.0-151.0-0.0,0,0,50795,,,,,,37.0,,,,,,,,,,,,,,,,,,,,,,,,,,,,116.5,1.278,,
108,,iti,,html-keyboard-response,108,90998,0.0-1.0-152.0,0,0,50795,,,,,,,,,,,,,,,,,,,,,,,,,,,,,,,,,,118.5,2.0,,
109,,size_choice,,html-keyboard-response,109,92894,0.0-1.0-154.0,0,0,50795,,,,,,38.0,38.0,1.0,1000.0,S-XL,0.0,S,XL,1.0,4.0,paperclip,van,paperclip4,van3,113.0,192.0,/static/Size_judgement/Stimuli/Size_stims/S/paperclip/paperclip3.jpg,/static/Size_judgement/Stimuli/Size_stims/XL/van/van6.jpg,,,,,,,,,,,120.0,1.5,1.0,
110,,iti,,html-keyboard-response,110,93894,0.0-1.0-156.0,0,0,50795,,,,,,,,,,,,,,,,,,,,,,,,,,,,,,,,,,121.0,1.0,,
111,,size_choice,,html-keyboard-response,111,95894,0.0-1.0-158.0,0,0,50795,,,,,,39.0,39.0,1.0,3500.0,L-XL,1.0,XL,L,4.0,3.0,van,mailbox,van10,mailbox10,199.0,49.0,/static/Size_judgement/Stimuli/Size_stims/XL/van/van8.jpg,/static/Size_judgement/Stimuli/Size_stims/L/mailbox/mailbox8.jpg,,,,,,,,,,,122.5,1.5,1.0,
112,,iti,,html-keyboard-response,112,96998,0.0-1.0-160.0,0,0,50795,,,,,,,,,,,,,,,,,,,,,,,,,,,,,,,,,,126.0,3.5,,
113,,size_choice,,html-keyboard-response,113,99123,0.0-1.0-162.0,0,0,50795,,,,,,40.0,40.0,1.0,3000.0,S-L,1.0,L,S,3.0,1.0,mailbox,paperclip,mailbox7,paperclip5,46.0,114.0,/static/Size_judgement/Stimuli/Size_stims/L/mailbox/mailbox7.jpg,/static/Size_judgement/Stimuli/Size_stims/S/paperclip/paperclip2.jpg,,,,,,,,,,,127.5,1.5,1.0,
114,,iti,,html-keyboard-response,114,99894,0.0-1.0-164.0,0,0,50795,,,,,,,,,,,,,,,,,,,,,,,,,,,,,,,,,,130.5,3.0,,
115,,size_choice,,html-keyboard-response,115,101894,0.0-1.0-166.0,0,0,50795,,,,,,41.0,41.0,1.0,1000.0,S-L,1.0,L,S,3.0,1.0,dishwasher,thread,dishwasher3,thread2,22.0,141.0,/static/Size_judgement/Stimuli/Size_stims/L/dishwasher/dishwasher8.jpg,/static/Size_judgement/Stimuli/Size_stims/S/thread/thread6.jpg,,,,,,,,,,,132.0,1.5,1.0,
116,,iti,,html-keyboard-response,116,103281,0.0-1.0-168.0,0,0,50795,,,,,,,,,,,,,,,,,,,,,,,,,,,,,,,,,,133.0,1.0,,
117,,size_choice,,html-keyboard-response,117,105322,0.0-1.0-170.0,0,0,50795,,,,,,42.0,42.0,1.0,1500.0,S-L,1.0,L,S,3.0,1.0,cooler,paperclip,cooler6,paperclip2,5.0,111.0,/static/Size_judgement/Stimuli/Size_stims/L/cooler/cooler1.jpg,/static/Size_judgement/Stimuli/Size_stims/S/paperclip/paperclip8.jpg,,,,,,,,,,,134.5,1.5,1.0,
118,,iti,,html-keyboard-response,118,106174,0.0-1.0-172.0,0,0,50795,,,,,,,,,,,,,,,,,,,,,,,,,,,,,,,,,,136.0,1.5,,
119,,size_choice,,html-keyboard-response,119,108414,0.0-1.0-174.0,0,0,50795,,,,,,43.0,43.0,1.0,1500.0,M-L,0.0,M,L,2.0,3.0,handsaw,garbagecan,handsaw3,garbagecan2,82.0,31.0,/static/Size_judgement/Stimuli/Size_stims/M/handsaw/handsaw2.jpg,/static/Size_judgement/Stimuli/Size_stims/L/garbagecan/garbagecan5.jpg,,,,,,,,,,,137.5,1.5,1.0,
120,,iti,,html-keyboard-response,120,109128,0.0-1.0-176.0,0,0,50795,,,,,,,,,,,,,,,,,,,,,,,,,,,,,,,,,,139.0,1.5,,
121,,size_choice,,html-keyboard-response,121,110963,0.0-1.0-178.0,0,0,50795,,,,,,44.0,44.0,1.0,1500.0,S-XL,0.0,S,XL,1.0,4.0,thread,tractor,thread4,tractor1,143.0,180.0,/static/Size_judgement/Stimuli/Size_stims/S/thread/thread5.jpg,/static/Size_judgement/Stimuli/Size_stims/XL/tractor/tractor6.jpg,,,,,,,,,,,140.5,1.5,1.0,
122,,iti,,html-keyboard-response,122,111460,0.0-1.0-180.0,0,0,50795,,,,,,,,,,,,,,,,,,,,,,,,,,,,,,,,,,142.0,1.5,,
123,,block_over,,html-keyboard-response,123,112892,0.0-1.0-181.0-0.0,0,0,50795,,1431.0,,,68.0,44.0,,,,,,,,,,,,,,,,,,,,,,,,,,,,,,,
124,,size_choice,,html-keyboard-response,124,113402,0.0-1.0-182.0,0,0,50795,,509.0,,,68.0,45.0,45.0,2.0,1000.0,XL-XL,,XL,XL,4.0,4.0,crane,van,crane10,van8,169.0,197.0,/static/Size_judgement/Stimuli/Size_stims/XL/crane/crane9.jpg,/static/Size_judgement/Stimuli/Size_stims/XL/van/van10.jpg,1.0,crane,van,XL,XL,4.0,4.0,crane10,van8,,142.509,0.509,0.0,
125,,size_choice_confirmation,,html-keyboard-response,125,114398,0.0-1.0-183.0-0.0,0,0,50795,,,,,,45.0,,,,,,,,,,,,,,,,,,,,,,,,,,,,143.5,0.991,,
126,,iti,,html-keyboard-response,126,114501,0.0-1.0-184.0,0,0,50795,,,,,,,,,,,,,,,,,,,,,,,,,,,,,,,,,,144.5,1.0,,
127,,size_choice,,html-keyboard-response,127,114749,0.0-1.0-186.0,0,0,50795,,247.0,,,75.0,46.0,46.0,2.0,3500.0,S-L,0.0,S,L,1.0,3.0,thread,cooler,thread8,cooler3,147.0,2.0,/static/Size_judgement/Stimuli/Size_stims/S/thread/thread10.jpg,/static/Size_judgement/Stimuli/Size_stims/L/cooler/cooler2.jpg,0.0,cooler,thread,L,S,3.0,1.0,cooler3,thread8,1.0,144.747,0.247,0.0,
128,,size_choice_confirmation,,html-keyboard-response,128,116003,0.0-1.0-187.0-0.0,0,0,50795,,,,,,46.0,,,,,,,,,,,,,,,,,,,,,,,,,,,,146.0,1.253,,
129,,iti,,html-keyboard-response,129,116104,0.0-1.0-188.0,0,0,50795,,,,,,,,,,,,,,,,,,,,,,,,,,,,,,,,,,149.5,3.5,,
130,,size_choice,,html-keyboard-response,130,116278,0.0-1.0-190.0,0,0,50795,,173.0,,,68.0,47.0,47.0,2.0,1000.0,M-XL,0.0,M,XL,2.0,4.0,coffeemaker,crane,coffeemaker9,crane2,68.0,161.0,/static/Size_judgement/Stimuli/Size_stims/M/coffeemaker/coffeemaker7.jpg,/static/Size_judgement/Stimuli/Size_stims/XL/crane/crane6.jpg,1.0,coffeemaker,crane,M,XL,2.0,4.0,coffeemaker9,crane2,0.0,149.673,0.17300000000000001,0.0,
131,,size_choice_confirmation,,html-keyboard-response,131,117609,0.0-1.0-191.0-0.0,0,0,50795,,,,,,47.0,,,,,,,,,,,,,,,,,,,,,,,,,,,,151.0,1.327,,
132,,iti,,html-keyboard-response,132,117711,0.0-1.0-192.0,0,0,50795,,,,,,,,,,,,,,,,,,,,,,,,,,,,,,,,,,152.0,1.0,,
133,,size_choice,,html-keyboard-response,133,117861,0.0-1.0-194.0,0,0,50795,,147.0,,,75.0,48.0,48.0,2.0,1000.0,S-L,1.0,L,S,3.0,1.0,garbagecan,die,garbagecan1,die5,30.0,104.0,/static/Size_judgement/Stimuli/Size_stims/L/garbagecan/garbagecan4.jpg,/static/Size_judgement/Stimuli/Size_stims/S/die/die3.jpg,0.0,die,garbagecan,S,L,1.0,3.0,die5,garbagecan1,0.0,152.14700000000002,0.147,0.0,
134,,size_choice_confirmation,,html-keyboard-response,134,119218,0.0-1.0-195.0-0.0,0,0,50795,,,,,,48.0,,,,,,,,,,,,,,,,,,,,,,,,,,,,153.5,1.3530000000000002,,
135,,iti,,html-keyboard-response,135,119320,0.0-1.0-196.0,0,0,50795,,,,,,,,,,,,,,,,,,,,,,,,,,,,,,,,,,154.5,1.0,,
136,,size_choice,,html-keyboard-response,136,119439,0.0-1.0-198.0,0,0,50795,,117.0,,,68.0,49.0,49.0,2.0,1500.0,M-L,0.0,M,L,2.0,3.0,hairdryer,deskchair,hairdryer8,deskchair5,77.0,14.0,/static/Size_judgement/Stimuli/Size_stims/M/hairdryer/hairdryer1.jpg,/static/Size_judgement/Stimuli/Size_stims/L/deskchair/deskchair7.jpg,1.0,hairdryer,deskchair,M,L,2.0,3.0,hairdryer8,deskchair5,0.0,154.61700000000002,0.11699999999999999,0.0,
137,,size_choice_confirmation,,html-keyboard-response,137,120825,0.0-1.0-199.0-0.0,0,0,50795,,,,,,49.0,,,,,,,,,,,,,,,,,,,,,,,,,,,,156.0,1.383,,
138,,iti,,html-keyboard-response,138,120927,0.0-1.0-200.0,0,0,50795,,,,,,,,,,,,,,,,,,,,,,,,,,,,,,,,,,157.5,1.5,,
139,,size_choice,,html-keyboard-response,139,121027,0.0-1.0-202.0,0,0,50795,,99.0,,,75.0,50.0,50.0,2.0,3500.0,S-XL,0.0,S,XL,1.0,4.0,die,tractor,die10,tractor3,109.0,182.0,/static/Size_judgement/Stimuli/Size_stims/S/die/die6.jpg,/static/Size_judgement/Stimuli/Size_stims/XL/tractor/tractor5.jpg,0.0,tractor,die,XL,S,4.0,1.0,tractor3,die10,1.0,157.599,0.099,0.0,
140,,size_choice_confirmation,,html-keyboard-response,140,122434,0.0-1.0-203.0-0.0,0,0,50795,,,,,,50.0,,,,,,,,,,,,,,,,,,,,,,,,,,,,159.0,1.401,,
141,,iti,,html-keyboard-response,141,122537,0.0-1.0-204.0,0,0,50795,,,,,,,,,,,,,,,,,,,,,,,,,,,,,,,,,,162.5,3.5,,
142,,size_choice,,html-keyboard-response,142,122635,0.0-1.0-206.0,0,0,50795,,97.0,,,75.0,51.0,51.0,2.0,1000.0,S-XL,0.0,S,XL,1.0,4.0,screws,van,screws4,van1,123.0,190.0,/static/Size_judgement/Stimuli/Size_stims/S/screws/screws6.jpg,/static/Size_judgement/Stimuli/Size_stims/XL/van/van5.jpg,0.0,van,screws,XL,S,4.0,1.0,van1,screws4,1.0,162.597,0.09699999999999999,0.0,
143,,size_choice_confirmation,,html-keyboard-response,143,124041,0.0-1.0-207.0-0.0,0,0,50795,,,,,,51.0,,,,,,,,,,,,,,,,,,,,,,,,,,,,164.0,1.403,,
144,,iti,,html-keyboard-response,144,124144,0.0-1.0-208.0,0,0,50795,,,,,,,,,,,,,,,,,,,,,,,,,,,,,,,,,,165.0,1.0,,
145,,size_choice,,html-keyboard-response,145,124254,0.0-1.0-210.0,0,0,50795,,109.0,,,68.0,52.0,52.0,2.0,1500.0,S-L,1.0,L,S,3.0,1.0,cooler,paperclip,cooler10,paperclip8,9.0,117.0,/static/Size_judgement/Stimuli/Size_stims/L/cooler/cooler6.jpg,/static/Size_judgement/Stimuli/Size_stims/S/paperclip/paperclip5.jpg,1.0,cooler,paperclip,L,S,3.0,1.0,cooler10,paperclip8,1.0,165.109,0.109,0.0,
146,,size_choice_confirmation,,html-keyboard-response,146,125651,0.0-1.0-211.0-0.0,0,0,50795,,,,,,52.0,,,,,,,,,,,,,,,,,,,,,,,,,,,,166.5,1.391,,
147,,iti,,html-keyboard-response,147,125753,0.0-1.0-212.0,0,0,50795,,,,,,,,,,,,,,,,,,,,,,,,,,,,,,,,,,168.0,1.5,,
148,,size_choice,,html-keyboard-response,148,125906,0.0-1.0-214.0,0,0,50795,,152.0,,,75.0,53.0,53.0,2.0,2000.0,S-L,0.0,S,L,1.0,3.0,screws,mailbox,screws1,mailbox5,120.0,44.0,/static/Size_judgement/Stimuli/Size_stims/S/screws/screws4.jpg,/static/Size_judgement/Stimuli/Size_stims/L/mailbox/mailbox4.jpg,0.0,mailbox,screws,L,S,3.0,1.0,mailbox5,screws1,1.0,168.15200000000002,0.152,0.0,
149,,size_choice_confirmation,,html-keyboard-response,149,127257,0.0-1.0-215.0-0.0,0,0,50795,,,,,,53.0,,,,,,,,,,,,,,,,,,,,,,,,,,,,169.5,1.348,,
150,,iti,,html-keyboard-response,150,127358,0.0-1.0-216.0,0,0,50795,,,,,,,,,,,,,,,,,,,,,,,,,,,,,,,,,,171.5,2.0,,
151,,size_choice,,html-keyboard-response,151,127393,0.0-1.0-218.0,0,0,50795,,34.0,,,75.0,54.0,54.0,2.0,1000.0,S-L,0.0,S,L,1.0,3.0,screws,deskchair,screws2,deskchair7,121.0,16.0,/static/Size_judgement/Stimuli/Size_stims/S/screws/screws5.jpg,/static/Size_judgement/Stimuli/Size_stims/L/deskchair/deskchair4.jpg,0.0,deskchair,screws,L,S,3.0,1.0,deskchair7,screws2,1.0,171.53400000000002,0.034,0.0,
152,,size_choice_confirmation,,html-keyboard-response,152,128863,0.0-1.0-219.0-0.0,0,0,50795,,,,,,54.0,,,,,,,,,,,,,,,,,,,,,,,,,,,,173.0,1.466,,
153,,iti,,html-keyboard-response,153,128968,0.0-1.0-220.0,0,0,50795,,,,,,,,,,,,,,,,,,,,,,,,,,,,,,,,,,174.0,1.0,,
154,,size_choice,,html-keyboard-response,154,128991,0.0-1.0-222.0,0,0,50795,,22.0,,,68.0,55.0,55.0,2.0,1500.0,M-XL,1.0,XL,M,4.0,2.0,dumptruck,ketchup,dumptruck1,ketchup10,170.0,99.0,/static/Size_judgement/Stimuli/Size_stims/XL/dumptruck/dumptruck9.jpg,/static/Size_judgement/Stimuli/Size_stims/M/ketchup/ketchup6.jpg,1.0,dumptruck,ketchup,XL,M,4.0,2.0,dumptruck1,ketchup10,1.0,174.02200000000002,0.022000000000000002,0.0,
155,,size_choice_confirmation,,html-keyboard-response,155,130473,0.0-1.0-223.0-0.0,0,0,50795,,,,,,55.0,,,,,,,,,,,,,,,,,,,,,,,,,,,,175.5,1.4780000000000002,,
156,,iti,,html-keyboard-response,156,130575,0.0-1.0-224.0,0,0,50795,,,,,,,,,,,,,,,,,,,,,,,,,,,,,,,,,,177.0,1.5,,
157,,size_choice,,html-keyboard-response,157,130879,0.0-1.0-226.0,0,0,50795,,304.0,,,68.0,56.0,56.0,2.0,1500.0,L-XL,1.0,XL,L,4.0,3.0,car,dishwasher,car10,dishwasher2,159.0,21.0,/static/Size_judgement/Stimuli/Size_stims/XL/car/car9.jpg,/static/Size_judgement/Stimuli/Size_stims/L/dishwasher/dishwasher9.jpg,1.0,car,dishwasher,XL,L,4.0,3.0,car10,dishwasher2,1.0,177.304,0.304,0.0,
158,,size_choice_confirmation,,html-keyboard-response,158,132077,0.0-1.0-227.0-0.0,0,0,50795,,,,,,56.0,,,,,,,,,,,,,,,,,,,,,,,,,,,,178.5,1.196,,
159,,iti,,html-keyboard-response,159,132181,0.0-1.0-228.0,0,0,50795,,,,,,,,,,,,,,,,,,,,,,,,,,,,,,,,,,180.0,1.5,,
160,,size_choice,,html-keyboard-response,160,132218,0.0-1.0-230.0,0,0,50795,,36.0,,,68.0,57.0,57.0,2.0,1000.0,S-S,,S,S,1.0,1.0,die,paperclip,die8,paperclip9,107.0,118.0,/static/Size_judgement/Stimuli/Size_stims/S/die/die5.jpg,/static/Size_judgement/Stimuli/Size_stims/S/paperclip/paperclip4.jpg,1.0,die,paperclip,S,S,1.0,1.0,die8,paperclip9,,180.03599999999997,0.036000000000000004,0.0,
161,,size_choice_confirmation,,html-keyboard-response,161,133685,0.0-1.0-231.0-0.0,0,0,50795,,,,,,57.0,,,,,,,,,,,,,,,,,,,,,,,,,,,,181.5,1.464,,
162,,iti,,html-keyboard-response,162,133787,0.0-1.0-232.0,0,0,50795,,,,,,,,,,,,,,,,,,,,,,,,,,,,,,,,,,182.5,1.0,,
163,,size_choice,,html-keyboard-response,163,133942,0.0-1.0-234.0,0,0,50795,,154.0,,,75.0,58.0,58.0,2.0,2000.0,M-M,,M,M,2.0,2.0,ketchup,handsaw,ketchup9,handsaw5,98.0,84.0,/static/Size_judgement/Stimuli/Size_stims/M/ketchup/ketchup7.jpg,/static/Size_judgement/Stimuli/Size_stims/M/handsaw/handsaw1.jpg,0.0,handsaw,ketchup,M,M,2.0,2.0,handsaw5,ketchup9,,182.65400000000002,0.154,0.0,
164,,size_choice_confirmation,,html-keyboard-response,164,135291,0.0-1.0-235.0-0.0,0,0,50795,,,,,,58.0,,,,,,,,,,,,,,,,,,,,,,,,,,,,184.0,1.3459999999999999,,
165,,iti,,html-keyboard-response,165,135396,0.0-1.0-236.0,0,0,50795,,,,,,,,,,,,,,,,,,,,,,,,,,,,,,,,,,186.0,2.0,,
166,,size_choice,,html-keyboard-response,166,135585,0.0-1.0-238.0,0,0,50795,,188.0,,,68.0,59.0,59.0,2.0,2000.0,M-XL,0.0,M,XL,2.0,4.0,coffeemaker,crane,coffeemaker1,crane9,60.0,168.0,/static/Size_judgement/Stimuli/Size_stims/M/coffeemaker/coffeemaker14.jpg,/static/Size_judgement/Stimuli/Size_stims/XL/crane/crane8.jpg,1.0,coffeemaker,crane,M,XL,2.0,4.0,coffeemaker1,crane9,0.0,186.188,0.188,0.0,
167,,size_choice_confirmation,,html-keyboard-response,167,136900,0.0-1.0-239.0-0.0,0,0,50795,,,,,,59.0,,,,,,,,,,,,,,,,,,,,,,,,,,,,187.5,1.3119999999999998,,
168,,iti,,html-keyboard-response,168,137002,0.0-1.0-240.0,0,0,50795,,,,,,,,,,,,,,,,,,,,,,,,,,,,,,,,,,189.5,2.0,,
169,,size_choice,,html-keyboard-response,169,137015,0.0-1.0-242.0,0,0,50795,,12.0,,,75.0,60.0,60.0,2.0,1000.0,M-L,0.0,M,L,2.0,3.0,hairdryer,mailbox,hairdryer9,mailbox6,78.0,45.0,/static/Size_judgement/Stimuli/Size_stims/M/hairdryer/hairdryer5.jpg,/static/Size_judgement/Stimuli/Size_stims/L/mailbox/mailbox6.jpg,0.0,mailbox,hairdryer,L,M,3.0,2.0,mailbox6,hairdryer9,1.0,189.512,0.012,0.0,
170,,size_choice_confirmation,,html-keyboard-response,170,138508,0.0-1.0-243.0-0.0,0,0,50795,,,,,,60.0,,,,,,,,,,,,,,,,,,,,,,,,,,,,191.0,1.4880000000000002,,
171,,iti,,html-keyboard-response,171,138612,0.0-1.0-244.0,0,0,50795,,,,,,,,,,,,,,,,,,,,,,,,,,,,,,,,,,192.0,1.0,,
172,,size_choice,,html-keyboard-response,172,138702,0.0-1.0-246.0,0,0,50795,,89.0,,,68.0,61.0,61.0,2.0,1500.0,S-XL,1.0,XL,S,4.0,1.0,tractor,die,tractor4,die9,183.0,108.0,/static/Size_judgement/Stimuli/Size_stims/XL/tractor/tractor4.jpg,/static/Size_judgement/Stimuli/Size_stims/S/die/die7.jpg,1.0,tractor,die,XL,S,4.0,1.0,tractor4,die9,1.0,192.08900000000003,0.08900000000000001,0.0,
173,,size_choice_confirmation,,html-keyboard-response,173,140119,0.0-1.0-247.0-0.0,0,0,50795,,,,,,61.0,,,,,,,,,,,,,,,,,,,,,,,,,,,,193.5,1.411,,
174,,iti,,html-keyboard-response,174,140224,0.0-1.0-248.0,0,0,50795,,,,,,,,,,,,,,,,,,,,,,,,,,,,,,,,,,195.0,1.5,,
175,,size_choice,,html-keyboard-response,175,141729,0.0-1.0-250.0,0,0,50795,,,,,,62.0,62.0,2.0,1000.0,XL-XL,,XL,XL,4.0,4.0,van,tractor,van7,tractor10,196.0,189.0,/static/Size_judgement/Stimuli/Size_stims/XL/van/van1.jpg,/static/Size_judgement/Stimuli/Size_stims/XL/tractor/tractor8.jpg,,,,,,,,,,,196.5,1.5,1.0,
176,,iti,,html-keyboard-response,176,141835,0.0-1.0-252.0,0,0,50795,,,,,,,,,,,,,,,,,,,,,,,,,,,,,,,,,,197.5,1.0,,
177,,size_choice,,html-keyboard-response,177,143338,0.0-1.0-254.0,0,0,50795,,,,,,63.0,63.0,2.0,3500.0,S-XL,0.0,S,XL,1.0,4.0,paperclip,tractor,paperclip7,tractor7,116.0,186.0,/static/Size_judgement/Stimuli/Size_stims/S/paperclip/paperclip7.jpg,/static/Size_judgement/Stimuli/Size_stims/XL/tractor/tractor2.jpg,,,,,,,,,,,199.0,1.5,1.0,
178,,iti,,html-keyboard-response,178,143442,0.0-1.0-256.0,0,0,50795,,,,,,,,,,,,,,,,,,,,,,,,,,,,,,,,,,202.5,3.5,,
179,,size_choice,,html-keyboard-response,179,144946,0.0-1.0-258.0,0,0,50795,,,,,,64.0,64.0,2.0,2000.0,M-L,0.0,M,L,2.0,3.0,basketball,deskchair,basketball3,deskchair10,52.0,19.0,/static/Size_judgement/Stimuli/Size_stims/M/basketball/basketball10.jpg,/static/Size_judgement/Stimuli/Size_stims/L/deskchair/deskchair2.jpg,,,,,,,,,,,204.0,1.5,1.0,
180,,iti,,html-keyboard-response,180,145052,0.0-1.0-260.0,0,0,50795,,,,,,,,,,,,,,,,,,,,,,,,,,,,,,,,,,206.0,2.0,,
181,,size_choice,,html-keyboard-response,181,146555,0.0-1.0-262.0,0,0,50795,,,,,,65.0,65.0,2.0,1000.0,M-XL,1.0,XL,M,4.0,2.0,crane,coffeemaker,crane4,coffeemaker10,163.0,69.0,/static/Size_judgement/Stimuli/Size_stims/XL/crane/crane5.jpg,/static/Size_judgement/Stimuli/Size_stims/M/coffeemaker/coffeemaker18.jpg,,,,,,,,,,,207.5,1.5,1.0,
182,,iti,,html-keyboard-response,182,146660,0.0-1.0-264.0,0,0,50795,,,,,,,,,,,,,,,,,,,,,,,,,,,,,,,,,,208.5,1.0,,
183,,size_choice,,html-keyboard-response,183,148164,0.0-1.0-266.0,0,0,50795,,,,,,66.0,66.0,2.0,1500.0,S-XL,0.0,S,XL,1.0,4.0,thread,dumptruck,thread7,dumptruck7,146.0,176.0,/static/Size_judgement/Stimuli/Size_stims/S/thread/thread3.jpg,/static/Size_judgement/Stimuli/Size_stims/XL/dumptruck/dumptruck6.jpg,,,,,,,,,,,210.0,1.5,1.0,
184,,iti,,html-keyboard-response,184,148268,0.0-1.0-268.0,0,0,50795,,,,,,,,,,,,,,,,,,,,,,,,,,,,,,,,,,211.5,1.5,,
185,,size_choice,,html-keyboard-response,185,149774,0.0-1.0-270.0,0,0,50795,,,,,,67.0,67.0,2.0,1000.0,XL-XL,,XL,XL,4.0,4.0,car,dumptruck,car8,dumptruck8,157.0,177.0,/static/Size_judgement/Stimuli/Size_stims/XL/car/car14.jpg,/static/Size_judgement/Stimuli/Size_stims/XL/dumptruck/dumptruck7.jpg,,,,,,,,,,,213.0,1.5,1.0,
186,,iti,,html-keyboard-response,186,149876,0.0-1.0-272.0,0,0,50795,,,,,,,,,,,,,,,,,,,,,,,,,,,,,,,,,,214.0,1.0,,
187,,size_choice,,html-keyboard-response,187,150640,0.0-1.0-274.0,0,0,50795,,762.0,,,68.0,68.0,68.0,2.0,3000.0,M-L,0.0,M,L,2.0,3.0,coffeemaker,cooler,coffeemaker6,cooler1,65.0,0.0,/static/Size_judgement/Stimuli/Size_stims/M/coffeemaker/coffeemaker8.jpg,/static/Size_judgement/Stimuli/Size_stims/L/cooler/cooler8.jpg,1.0,coffeemaker,cooler,M,L,2.0,3.0,coffeemaker6,cooler1,0.0,214.762,0.762,0.0,
188,,size_choice_confirmation,,html-keyboard-response,188,151381,0.0-1.0-275.0-0.0,0,0,50795,,,,,,68.0,,,,,,,,,,,,,,,,,,,,,,,,,,,,215.5,0.738,,
189,,iti,,html-keyboard-response,189,151485,0.0-1.0-276.0,0,0,50795,,,,,,,,,,,,,,,,,,,,,,,,,,,,,,,,,,218.5,3.0,,
190,,size_choice,,html-keyboard-response,190,151623,0.0-1.0-278.0,0,0,50795,,136.0,,,75.0,69.0,69.0,2.0,2000.0,M-L,1.0,L,M,3.0,2.0,cooler,handsaw,cooler5,handsaw4,4.0,83.0,/static/Size_judgement/Stimuli/Size_stims/L/cooler/cooler10.jpg,/static/Size_judgement/Stimuli/Size_stims/M/handsaw/handsaw3.jpg,0.0,handsaw,cooler,M,L,2.0,3.0,handsaw4,cooler5,0.0,218.636,0.136,0.0,
191,,size_choice_confirmation,,html-keyboard-response,191,152991,0.0-1.0-279.0-0.0,0,0,50795,,,,,,69.0,,,,,,,,,,,,,,,,,,,,,,,,,,,,220.0,1.364,,
192,,iti,,html-keyboard-response,192,153093,0.0-1.0-280.0,0,0,50795,,,,,,,,,,,,,,,,,,,,,,,,,,,,,,,,,,222.0,2.0,,
193,,size_choice,,html-keyboard-response,193,153119,0.0-1.0-282.0,0,0,50795,,25.0,,,75.0,70.0,70.0,2.0,1000.0,M-XL,1.0,XL,M,4.0,2.0,car,basketball,car7,basketball2,156.0,51.0,/static/Size_judgement/Stimuli/Size_stims/XL/car/car13.jpg,/static/Size_judgement/Stimuli/Size_stims/M/basketball/basketball8.jpg,0.0,basketball,car,M,XL,2.0,4.0,basketball2,car7,0.0,222.025,0.025,0.0,
194,,size_choice_confirmation,,html-keyboard-response,194,154600,0.0-1.0-283.0-0.0,0,0,50795,,,,,,70.0,,,,,,,,,,,,,,,,,,,,,,,,,,,,223.5,1.475,,
195,,iti,,html-keyboard-response,195,154703,0.0-1.0-284.0,0,0,50795,,,,,,,,,,,,,,,,,,,,,,,,,,,,,,,,,,224.5,1.0,,
196,,size_choice,,html-keyboard-response,196,154726,0.0-1.0-286.0,0,0,50795,,22.0,,,75.0,71.0,71.0,2.0,1000.0,S-L,0.0,S,L,1.0,3.0,teabag,garbagecan,teabag8,garbagecan3,137.0,32.0,/static/Size_judgement/Stimuli/Size_stims/S/teabag/teabag7.jpg,/static/Size_judgement/Stimuli/Size_stims/L/garbagecan/garbagecan7.jpg,0.0,garbagecan,teabag,L,S,3.0,1.0,garbagecan3,teabag8,1.0,224.52200000000002,0.022000000000000002,0.0,
197,,size_choice_confirmation,,html-keyboard-response,197,156209,0.0-1.0-287.0-0.0,0,0,50795,,,,,,71.0,,,,,,,,,,,,,,,,,,,,,,,,,,,,226.0,1.4780000000000002,,
198,,iti,,html-keyboard-response,198,156310,0.0-1.0-288.0,0,0,50795,,,,,,,,,,,,,,,,,,,,,,,,,,,,,,,,,,227.0,1.0,,
199,,size_choice,,html-keyboard-response,199,156441,0.0-1.0-290.0,0,0,50795,,130.0,,,68.0,72.0,72.0,2.0,3000.0,L-L,,L,L,3.0,3.0,dishwasher,mailbox,dishwasher9,mailbox1,28.0,40.0,/static/Size_judgement/Stimuli/Size_stims/L/dishwasher/dishwasher2.jpg,/static/Size_judgement/Stimuli/Size_stims/L/mailbox/mailbox3.jpg,1.0,dishwasher,mailbox,L,L,3.0,3.0,dishwasher9,mailbox1,,227.13,0.13,0.0,
200,,size_choice_confirmation,,html-keyboard-response,200,157813,0.0-1.0-291.0-0.0,0,0,50795,,,,,,72.0,,,,,,,,,,,,,,,,,,,,,,,,,,,,228.5,1.37,,
201,,iti,,html-keyboard-response,201,157919,0.0-1.0-292.0,0,0,50795,,,,,,,,,,,,,,,,,,,,,,,,,,,,,,,,,,231.5,3.0,,
202,,size_choice,,html-keyboard-response,202,157927,0.0-1.0-294.0,0,0,50795,,7.0,,,68.0,73.0,73.0,2.0,1000.0,S-XL,0.0,S,XL,1.0,4.0,thread,crane,thread10,crane1,149.0,160.0,/static/Size_judgement/Stimuli/Size_stims/S/thread/thread9.jpg,/static/Size_judgement/Stimuli/Size_stims/XL/crane/crane7.jpg,1.0,thread,crane,S,XL,1.0,4.0,thread10,crane1,0.0,231.507,0.006999999999999999,0.0,
203,,size_choice_confirmation,,html-keyboard-response,203,159425,0.0-1.0-295.0-0.0,0,0,50795,,,,,,73.0,,,,,,,,,,,,,,,,,,,,,,,,,,,,233.0,1.493,,
204,,iti,,html-keyboard-response,204,159529,0.0-1.0-296.0,0,0,50795,,,,,,,,,,,,,,,,,,,,,,,,,,,,,,,,,,234.0,1.0,,
205,,size_choice,,html-keyboard-response,205,159684,0.0-1.0-298.0,0,0,50795,,153.0,,,75.0,74.0,74.0,2.0,3000.0,M-M,,M,M,2.0,2.0,coffeemaker,handsaw,coffeemaker4,handsaw9,63.0,88.0,/static/Size_judgement/Stimuli/Size_stims/M/coffeemaker/coffeemaker11.jpg,/static/Size_judgement/Stimuli/Size_stims/M/handsaw/handsaw6.jpg,0.0,handsaw,coffeemaker,M,M,2.0,2.0,handsaw9,coffeemaker4,,234.153,0.153,0.0,
206,,size_choice_confirmation,,html-keyboard-response,206,161034,0.0-1.0-299.0-0.0,0,0,50795,,,,,,74.0,,,,,,,,,,,,,,,,,,,,,,,,,,,,235.5,1.347,,
207,,iti,,html-keyboard-response,207,161135,0.0-1.0-300.0,0,0,50795,,,,,,,,,,,,,,,,,,,,,,,,,,,,,,,,,,238.5,3.0,,
208,,size_choice,,html-keyboard-response,208,161167,0.0-1.0-302.0,0,0,50795,,31.0,,,68.0,75.0,75.0,2.0,1000.0,S-L,1.0,L,S,3.0,1.0,mailbox,teabag,mailbox8,teabag6,47.0,135.0,/static/Size_judgement/Stimuli/Size_stims/L/mailbox/mailbox10.jpg,/static/Size_judgement/Stimuli/Size_stims/S/teabag/teabag6.jpg,1.0,mailbox,teabag,L,S,3.0,1.0,mailbox8,teabag6,1.0,238.53099999999998,0.031,0.0,
209,,size_choice_confirmation,,html-keyboard-response,209,162639,0.0-1.0-303.0-0.0,0,0,50795,,,,,,75.0,,,,,,,,,,,,,,,,,,,,,,,,,,,,240.0,1.469,,
210,,iti,,html-keyboard-response,210,162741,0.0-1.0-304.0,0,0,50795,,,,,,,,,,,,,,,,,,,,,,,,,,,,,,,,,,241.0,1.0,,
211,,size_choice,,html-keyboard-response,211,162746,0.0-1.0-306.0,0,0,50795,,4.0,,,68.0,76.0,76.0,2.0,2000.0,M-XL,1.0,XL,M,4.0,2.0,car,ketchup,car9,ketchup3,158.0,92.0,/static/Size_judgement/Stimuli/Size_stims/XL/car/car15.jpg,/static/Size_judgement/Stimuli/Size_stims/M/ketchup/ketchup10.jpg,1.0,car,ketchup,XL,M,4.0,2.0,car9,ketchup3,1.0,241.00400000000002,0.004,0.0,
212,,size_choice_confirmation,,html-keyboard-response,212,164247,0.0-1.0-307.0-0.0,0,0,50795,,,,,,76.0,,,,,,,,,,,,,,,,,,,,,,,,,,,,242.5,1.496,,
213,,iti,,html-keyboard-response,213,164352,0.0-1.0-308.0,0,0,50795,,,,,,,,,,,,,,,,,,,,,,,,,,,,,,,,,,244.5,2.0,,
214,,size_choice,,html-keyboard-response,214,164425,0.0-1.0-310.0,0,0,50795,,72.0,,,68.0,77.0,77.0,2.0,1000.0,M-XL,0.0,M,XL,2.0,4.0,basketball,dumptruck,basketball7,dumptruck6,56.0,175.0,/static/Size_judgement/Stimuli/Size_stims/M/basketball/basketball6.jpg,/static/Size_judgement/Stimuli/Size_stims/XL/dumptruck/dumptruck2.jpg,1.0,basketball,dumptruck,M,XL,2.0,4.0,basketball7,dumptruck6,0.0,244.572,0.07200000000000001,0.0,
215,,size_choice_confirmation,,html-keyboard-response,215,165855,0.0-1.0-311.0-0.0,0,0,50795,,,,,,77.0,,,,,,,,,,,,,,,,,,,,,,,,,,,,246.0,1.4280000000000002,,
216,,iti,,html-keyboard-response,216,165960,0.0-1.0-312.0,0,0,50795,,,,,,,,,,,,,,,,,,,,,,,,,,,,,,,,,,247.0,1.0,,
217,,size_choice,,html-keyboard-response,217,165975,0.0-1.0-314.0,0,0,50795,,14.0,,,75.0,78.0,78.0,2.0,1500.0,S-XL,1.0,XL,S,4.0,1.0,crane,teabag,crane3,teabag5,162.0,134.0,/static/Size_judgement/Stimuli/Size_stims/XL/crane/crane4.jpg,/static/Size_judgement/Stimuli/Size_stims/S/teabag/teabag2.jpg,0.0,teabag,crane,S,XL,1.0,4.0,teabag5,crane3,0.0,247.014,0.013999999999999999,0.0,
218,,size_choice_confirmation,,html-keyboard-response,218,167463,0.0-1.0-315.0-0.0,0,0,50795,,,,,,78.0,,,,,,,,,,,,,,,,,,,,,,,,,,,,248.5,1.486,,
219,,iti,,html-keyboard-response,219,167567,0.0-1.0-316.0,0,0,50795,,,,,,,,,,,,,,,,,,,,,,,,,,,,,,,,,,250.0,1.5,,
220,,size_choice,,html-keyboard-response,220,167623,0.0-1.0-318.0,0,0,50795,,55.0,,,68.0,79.0,79.0,2.0,1500.0,M-XL,0.0,M,XL,2.0,4.0,handsaw,car,handsaw2,car2,81.0,151.0,/static/Size_judgement/Stimuli/Size_stims/M/handsaw/handsaw9.jpg,/static/Size_judgement/Stimuli/Size_stims/XL/car/car3.jpg,1.0,handsaw,car,M,XL,2.0,4.0,handsaw2,car2,0.0,250.055,0.055,0.0,
221,,size_choice_confirmation,,html-keyboard-response,221,169072,0.0-1.0-319.0-0.0,0,0,50795,,,,,,79.0,,,,,,,,,,,,,,,,,,,,,,,,,,,,251.5,1.445,,
222,,iti,,html-keyboard-response,222,169174,0.0-1.0-320.0,0,0,50795,,,,,,,,,,,,,,,,,,,,,,,,,,,,,,,,,,253.0,1.5,,
223,,size_choice,,html-keyboard-response,223,169257,0.0-1.0-322.0,0,0,50795,,82.0,,,68.0,80.0,80.0,2.0,2000.0,S-M,0.0,S,M,1.0,2.0,screws,handsaw,screws6,handsaw10,125.0,89.0,/static/Size_judgement/Stimuli/Size_stims/S/screws/screws3.jpg,/static/Size_judgement/Stimuli/Size_stims/M/handsaw/handsaw10.jpg,1.0,screws,handsaw,S,M,1.0,2.0,screws6,handsaw10,0.0,253.082,0.08199999999999999,0.0,
224,,size_choice_confirmation,,html-keyboard-response,224,170677,0.0-1.0-323.0-0.0,0,0,50795,,,,,,80.0,,,,,,,,,,,,,,,,,,,,,,,,,,,,254.5,1.4180000000000001,,
225,,iti,,html-keyboard-response,225,170778,0.0-1.0-324.0,0,0,50795,,,,,,,,,,,,,,,,,,,,,,,,,,,,,,,,,,256.5,2.0,,
226,,size_choice,,html-keyboard-response,226,171000,0.0-1.0-326.0,0,0,50795,,221.0,,,75.0,81.0,81.0,2.0,2000.0,L-L,,L,L,3.0,3.0,cooler,dishwasher,cooler2,dishwasher1,1.0,20.0,/static/Size_judgement/Stimuli/Size_stims/L/cooler/cooler9.jpg,/static/Size_judgement/Stimuli/Size_stims/L/dishwasher/dishwasher10.jpg,0.0,dishwasher,cooler,L,L,3.0,3.0,dishwasher1,cooler2,,256.721,0.221,0.0,
227,,size_choice_confirmation,,html-keyboard-response,227,172285,0.0-1.0-327.0-0.0,0,0,50795,,,,,,81.0,,,,,,,,,,,,,,,,,,,,,,,,,,,,258.0,1.2790000000000001,,
228,,iti,,html-keyboard-response,228,172389,0.0-1.0-328.0,0,0,50795,,,,,,,,,,,,,,,,,,,,,,,,,,,,,,,,,,260.0,2.0,,
229,,size_choice,,html-keyboard-response,229,172392,0.0-1.0-330.0,0,0,50795,,2.0,,,68.0,82.0,82.0,2.0,1000.0,M-L,0.0,M,L,2.0,3.0,ketchup,deskchair,ketchup4,deskchair9,93.0,18.0,/static/Size_judgement/Stimuli/Size_stims/M/ketchup/ketchup2.jpg,/static/Size_judgement/Stimuli/Size_stims/L/deskchair/deskchair3.jpg,1.0,ketchup,deskchair,M,L,2.0,3.0,ketchup4,deskchair9,0.0,260.002,0.002,0.0,
230,,size_choice_confirmation,,html-keyboard-response,230,173893,0.0-1.0-331.0-0.0,0,0,50795,,,,,,82.0,,,,,,,,,,,,,,,,,,,,,,,,,,,,261.5,1.4980000000000002,,
231,,iti,,html-keyboard-response,231,173995,0.0-1.0-332.0,0,0,50795,,,,,,,,,,,,,,,,,,,,,,,,,,,,,,,,,,262.5,1.0,,
232,,size_choice,,html-keyboard-response,232,174144,0.0-1.0-334.0,0,0,50795,,148.0,,,75.0,83.0,83.0,2.0,3000.0,S-S,,S,S,1.0,1.0,screws,teabag,screws10,teabag9,129.0,138.0,/static/Size_judgement/Stimuli/Size_stims/S/screws/screws9.jpg,/static/Size_judgement/Stimuli/Size_stims/S/teabag/teabag5.jpg,0.0,teabag,screws,S,S,1.0,1.0,teabag9,screws10,,262.64799999999997,0.14800000000000002,0.0,
233,,size_choice_confirmation,,html-keyboard-response,233,175497,0.0-1.0-335.0-0.0,0,0,50795,,,,,,83.0,,,,,,,,,,,,,,,,,,,,,,,,,,,,264.0,1.3519999999999999,,
234,,iti,,html-keyboard-response,234,175598,0.0-1.0-336.0,0,0,50795,,,,,,,,,,,,,,,,,,,,,,,,,,,,,,,,,,267.0,3.0,,
235,,size_choice,,html-keyboard-response,235,175798,0.0-1.0-338.0,0,0,50795,,199.0,,,68.0,84.0,84.0,2.0,1500.0,S-M,1.0,M,S,2.0,1.0,handsaw,paperclip,handsaw6,paperclip10,85.0,119.0,/static/Size_judgement/Stimuli/Size_stims/M/handsaw/handsaw4.jpg,/static/Size_judgement/Stimuli/Size_stims/S/paperclip/paperclip10.jpg,1.0,handsaw,paperclip,M,S,2.0,1.0,handsaw6,paperclip10,1.0,267.199,0.19899999999999998,0.0,
236,,size_choice_confirmation,,html-keyboard-response,236,177104,0.0-1.0-339.0-0.0,0,0,50795,,,,,,84.0,,,,,,,,,,,,,,,,,,,,,,,,,,,,268.5,1.301,,
237,,iti,,html-keyboard-response,237,177206,0.0-1.0-340.0,0,0,50795,,,,,,,,,,,,,,,,,,,,,,,,,,,,,,,,,,270.0,1.5,,
238,,size_choice,,html-keyboard-response,238,177498,0.0-1.0-342.0,0,0,50795,,291.0,,,68.0,85.0,85.0,2.0,1000.0,S-XL,1.0,XL,S,4.0,1.0,car,teabag,car5,teabag1,154.0,130.0,/static/Size_judgement/Stimuli/Size_stims/XL/car/car11.jpg,/static/Size_judgement/Stimuli/Size_stims/S/teabag/teabag9.jpg,1.0,car,teabag,XL,S,4.0,1.0,car5,teabag1,1.0,270.291,0.29100000000000004,0.0,
239,,size_choice_confirmation,,html-keyboard-response,239,178709,0.0-1.0-343.0-0.0,0,0,50795,,,,,,85.0,,,,,,,,,,,,,,,,,,,,,,,,,,,,271.5,1.209,,
240,,iti,,html-keyboard-response,240,178810,0.0-1.0-344.0,0,0,50795,,,,,,,,,,,,,,,,,,,,,,,,,,,,,,,,,,272.5,1.0,,
241,,size_choice,,html-keyboard-response,241,178978,0.0-1.0-346.0,0,0,50795,,167.0,,,68.0,86.0,86.0,2.0,1500.0,M-L,0.0,M,L,2.0,3.0,hairdryer,dishwasher,hairdryer10,dishwasher8,79.0,27.0,/static/Size_judgement/Stimuli/Size_stims/M/hairdryer/hairdryer6.jpg,/static/Size_judgement/Stimuli/Size_stims/L/dishwasher/dishwasher3.jpg,1.0,hairdryer,dishwasher,M,L,2.0,3.0,hairdryer10,dishwasher8,0.0,272.66700000000003,0.16699999999999998,0.0,
242,,size_choice_confirmation,,html-keyboard-response,242,180317,0.0-1.0-347.0-0.0,0,0,50795,,,,,,86.0,,,,,,,,,,,,,,,,,,,,,,,,,,,,274.0,1.3330000000000002,,
243,,iti,,html-keyboard-response,243,180421,0.0-1.0-348.0,0,0,50795,,,,,,,,,,,,,,,,,,,,,,,,,,,,,,,,,,275.5,1.5,,
244,,size_choice,,html-keyboard-response,244,180567,0.0-1.0-350.0,0,0,50795,,145.0,,,68.0,87.0,87.0,2.0,1000.0,L-XL,1.0,XL,L,4.0,3.0,van,deskchair,van2,deskchair4,191.0,13.0,/static/Size_judgement/Stimuli/Size_stims/XL/van/van4.jpg,/static/Size_judgement/Stimuli/Size_stims/L/deskchair/deskchair6.jpg,1.0,van,deskchair,XL,L,4.0,3.0,van2,deskchair4,1.0,275.645,0.145,0.0,
245,,size_choice_confirmation,,html-keyboard-response,245,181927,0.0-1.0-351.0-0.0,0,0,50795,,,,,,87.0,,,,,,,,,,,,,,,,,,,,,,,,,,,,277.0,1.355,,
246,,iti,,html-keyboard-response,246,182032,0.0-1.0-352.0,0,0,50795,,,,,,,,,,,,,,,,,,,,,,,,,,,,,,,,,,278.0,1.0,,
247,,size_choice,,html-keyboard-response,247,182137,0.0-1.0-354.0,0,0,50795,,104.0,,,75.0,88.0,88.0,2.0,1500.0,S-L,1.0,L,S,3.0,1.0,dishwasher,teabag,dishwasher5,teabag7,24.0,136.0,/static/Size_judgement/Stimuli/Size_stims/L/dishwasher/dishwasher4.jpg,/static/Size_judgement/Stimuli/Size_stims/S/teabag/teabag10.jpg,0.0,teabag,dishwasher,S,L,1.0,3.0,teabag7,dishwasher5,0.0,278.10400000000004,0.10400000000000001,0.0,
248,,size_choice_confirmation,,html-keyboard-response,248,183536,0.0-1.0-355.0-0.0,0,0,50795,,,,,,88.0,,,,,,,,,,,,,,,,,,,,,,,,,,,,279.5,1.396,,
249,,iti,,html-keyboard-response,249,183637,0.0-1.0-356.0,0,0,50795,,,,,,,,,,,,,,,,,,,,,,,,,,,,,,,,,,281.0,1.5,,
250,,size_choice,,html-keyboard-response,250,183908,0.0-1.0-358.0,0,0,50795,,269.0,,,68.0,89.0,89.0,2.0,1500.0,M-L,0.0,M,L,2.0,3.0,hairdryer,garbagecan,hairdryer7,garbagecan4,76.0,33.0,/static/Size_judgement/Stimuli/Size_stims/M/hairdryer/hairdryer3.jpg,/static/Size_judgement/Stimuli/Size_stims/L/garbagecan/garbagecan6.jpg,1.0,hairdryer,garbagecan,M,L,2.0,3.0,hairdryer7,garbagecan4,0.0,281.269,0.26899999999999996,0.0,
251,,size_choice_confirmation,,html-keyboard-response,251,185143,0.0-1.0-359.0-0.0,0,0,50795,,,,,,89.0,,,,,,,,,,,,,,,,,,,,,,,,,,,,282.5,1.2309999999999999,,
252,,iti,,html-keyboard-response,252,185248,0.0-1.0-360.0,0,0,50795,,,,,,,,,,,,,,,,,,,,,,,,,,,,,,,,,,284.0,1.5,,0.39
253,,size_final_tally,,html-keyboard-response,253,185616,0.0-2.0,0,0,50795,,366.0,,,68.0,,,,,,,,,,,,,,,,,,,,,,,,,,,,,,,,
