,success,ttype,start_time,trial_type,trial_index,time_elapsed,internal_node_id,warning,missed_checkup,PID,view_history,rt,responses,repeat_instructions,key_press,index,trial_num,block,iti,pair_type,high_size_on_left,left_size_group,right_size_group,left_size_num,right_size_num,left_category,right_category,left_exemplar,right_exemplar,left_index,right_index,left_img_path,right_img_path,left_chosen,chosen_category,unchosen_category,chosen_size_group,unchosen_size_group,chosen_size_num,unchosen_size_num,chosen_exemplar,unchosen_exemplar,accuracy,onset,duration,no_response,size_final_tally
0,True,full_screen,d06012022hr2003,fullscreen,0,2096,0.0-0.0,0,0,1,,,,,,,,,,,,,,,,,,,,,,,,,,,,,,,,,,,,,
1,,size_instructions,,instructions,1,7424,0.0-1.0-0.0-0.0,0,0,1,"[{""page_index"":0,""viewing_time"":1467},{""page_index"":1,""viewing_time"":319},{""page_index"":2,""viewing_time"":155},{""page_index"":3,""viewing_time"":172},{""page_index"":4,""viewing_time"":3046},{""page_index"":5,""viewing_time"":169}]",5328.0,,,,,,,,,,,,,,,,,,,,,,,,,,,,,,,,,,,
2,,size_comprehension_check,,survey-multi-choice,2,13659,0.0-1.0-0.0-1.0,0,0,1,,6232.0,"{""Q0"":""True"",""Q1"":""Size in the real world"",""Q2"":""True"",""Q3"":""D for left and K for right""}",0.0,,,,,,,,,,,,,,,,,,,,,,,,,,,,,,,,,
3,,,,html-keyboard-response,3,15754,0.0-1.0-1.0,0,0,1,,2093.0,,,68.0,,,,,,,,,,,,,,,,,,,,,,,,,,,,,,,,
4,,size_choice,,html-keyboard-response,4,16110,0.0-1.0-2.0,0,0,1,,355.0,,,75.0,0.0,0.0,1.0,1500.0,S-M,1.0,M,S,2.0,1.0,hairdryer,paperclip,hairdryer8,paperclip1,77.0,110.0,/static/Size_judgement/Stimuli/Size_stims/M/hairdryer/hairdryer1.jpg,/static/Size_judgement/Stimuli/Size_stims/S/paperclip/paperclip9.jpg,0.0,paperclip,hairdryer,S,M,1.0,2.0,paperclip1,hairdryer8,0.0,0.355,0.355,0.0,
5,,size_choice_confirmation,,html-keyboard-response,5,17259,0.0-1.0-3.0-0.0,0,0,1,,,,,,0.0,,,,,,,,,,,,,,,,,,,,,,,,,,,,1.5,1.145,,
6,,iti,,html-keyboard-response,6,17364,0.0-1.0-4.0,0,0,1,,,,,,,,,,,,,,,,,,,,,,,,,,,,,,,,,,3.0,1.5,,
7,,size_choice,,html-keyboard-response,7,17372,0.0-1.0-6.0,0,0,1,,6.0,,,68.0,1.0,1.0,1.0,1000.0,S-XL,0.0,S,XL,1.0,4.0,die,van,die5,van5,104.0,194.0,/static/Size_judgement/Stimuli/Size_stims/S/die/die3.jpg,/static/Size_judgement/Stimuli/Size_stims/XL/van/van3.jpg,1.0,die,van,S,XL,1.0,4.0,die5,van5,0.0,3.0060000000000002,0.006,0.0,
8,,size_choice_confirmation,,html-keyboard-response,8,18869,0.0-1.0-7.0-0.0,0,0,1,,,,,,1.0,,,,,,,,,,,,,,,,,,,,,,,,,,,,4.5,1.494,,
9,,iti,,html-keyboard-response,9,18974,0.0-1.0-8.0,0,0,1,,,,,,,,,,,,,,,,,,,,,,,,,,,,,,,,,,5.5,1.0,,
10,,size_choice,,html-keyboard-response,10,18975,0.0-1.0-10.0,0,0,1,,1.0,,,75.0,2.0,2.0,1.0,1000.0,S-L,1.0,L,S,3.0,1.0,dishwasher,thread,dishwasher8,thread1,27.0,140.0,/static/Size_judgement/Stimuli/Size_stims/L/dishwasher/dishwasher3.jpg,/static/Size_judgement/Stimuli/Size_stims/S/thread/thread7.jpg,0.0,thread,dishwasher,S,L,1.0,3.0,thread1,dishwasher8,0.0,5.501,0.001,0.0,
11,,size_choice_confirmation,,html-keyboard-response,11,20475,0.0-1.0-11.0-0.0,0,0,1,,,,,,2.0,,,,,,,,,,,,,,,,,,,,,,,,,,,,7.0,1.499,,
12,,iti,,html-keyboard-response,12,20580,0.0-1.0-12.0,0,0,1,,,,,,,,,,,,,,,,,,,,,,,,,,,,,,,,,,8.0,1.0,,
13,,size_choice,,html-keyboard-response,13,20656,0.0-1.0-14.0,0,0,1,,75.0,,,68.0,3.0,3.0,1.0,1500.0,M-XL,1.0,XL,M,4.0,2.0,van,basketball,van4,basketball9,193.0,58.0,/static/Size_judgement/Stimuli/Size_stims/XL/van/van7.jpg,/static/Size_judgement/Stimuli/Size_stims/M/basketball/basketball5.jpg,1.0,van,basketball,XL,M,4.0,2.0,van4,basketball9,1.0,8.075,0.075,0.0,
14,,size_choice_confirmation,,html-keyboard-response,14,22086,0.0-1.0-15.0-0.0,0,0,1,,,,,,3.0,,,,,,,,,,,,,,,,,,,,,,,,,,,,9.5,1.425,,
15,,iti,,html-keyboard-response,15,22190,0.0-1.0-16.0,0,0,1,,,,,,,,,,,,,,,,,,,,,,,,,,,,,,,,,,11.0,1.5,,
16,,size_choice,,html-keyboard-response,16,22912,0.0-1.0-18.0,0,0,1,,721.0,,,68.0,4.0,4.0,1.0,1500.0,M-XL,1.0,XL,M,4.0,2.0,crane,handsaw,crane4,handsaw4,163.0,83.0,/static/Size_judgement/Stimuli/Size_stims/XL/crane/crane5.jpg,/static/Size_judgement/Stimuli/Size_stims/M/handsaw/handsaw3.jpg,1.0,crane,handsaw,XL,M,4.0,2.0,crane4,handsaw4,1.0,11.720999999999998,0.721,0.0,
17,,size_choice_confirmation,,html-keyboard-response,17,23696,0.0-1.0-19.0-0.0,0,0,1,,,,,,4.0,,,,,,,,,,,,,,,,,,,,,,,,,,,,12.5,0.779,,
18,,iti,,html-keyboard-response,18,23802,0.0-1.0-20.0,0,0,1,,,,,,,,,,,,,,,,,,,,,,,,,,,,,,,,,,14.0,1.5,,
19,,size_choice,,html-keyboard-response,19,25304,0.0-1.0-22.0,0,0,1,,,,,,5.0,5.0,1.0,1000.0,M-L,1.0,L,M,3.0,2.0,deskchair,handsaw,deskchair9,handsaw9,18.0,88.0,/static/Size_judgement/Stimuli/Size_stims/L/deskchair/deskchair3.jpg,/static/Size_judgement/Stimuli/Size_stims/M/handsaw/handsaw6.jpg,,,,,,,,,,,15.5,1.5,1.0,
20,,iti,,html-keyboard-response,20,25410,0.0-1.0-24.0,0,0,1,,,,,,,,,,,,,,,,,,,,,,,,,,,,,,,,,,16.5,1.0,,
21,,size_choice,,html-keyboard-response,21,25469,0.0-1.0-26.0,0,0,1,,59.0,,,68.0,6.0,6.0,1.0,1500.0,M-L,0.0,M,L,2.0,3.0,coffeemaker,mailbox,coffeemaker7,mailbox7,66.0,46.0,/static/Size_judgement/Stimuli/Size_stims/M/coffeemaker/coffeemaker9.jpg,/static/Size_judgement/Stimuli/Size_stims/L/mailbox/mailbox7.jpg,1.0,coffeemaker,mailbox,M,L,2.0,3.0,coffeemaker7,mailbox7,0.0,16.559,0.059000000000000004,0.0,
22,,size_choice_confirmation,,html-keyboard-response,22,26913,0.0-1.0-27.0-0.0,0,0,1,,,,,,6.0,,,,,,,,,,,,,,,,,,,,,,,,,,,,18.0,1.4409999999999998,,
23,,iti,,html-keyboard-response,23,27015,0.0-1.0-28.0,0,0,1,,,,,,,,,,,,,,,,,,,,,,,,,,,,,,,,,,19.5,1.5,,
24,,size_choice,,html-keyboard-response,24,28519,0.0-1.0-30.0,0,0,1,,,,,,7.0,7.0,1.0,1500.0,M-L,1.0,L,M,3.0,2.0,deskchair,ketchup,deskchair10,ketchup3,19.0,92.0,/static/Size_judgement/Stimuli/Size_stims/L/deskchair/deskchair2.jpg,/static/Size_judgement/Stimuli/Size_stims/M/ketchup/ketchup10.jpg,,,,,,,,,,,21.0,1.5,1.0,
25,,iti,,html-keyboard-response,25,28621,0.0-1.0-32.0,0,0,1,,,,,,,,,,,,,,,,,,,,,,,,,,,,,,,,,,22.5,1.5,,
26,,size_choice,,html-keyboard-response,26,28810,0.0-1.0-34.0,0,0,1,,189.0,,,68.0,8.0,8.0,1.0,2000.0,S-L,1.0,L,S,3.0,1.0,cooler,paperclip,cooler8,paperclip3,7.0,112.0,/static/Size_judgement/Stimuli/Size_stims/L/cooler/cooler5.jpg,/static/Size_judgement/Stimuli/Size_stims/S/paperclip/paperclip1.jpg,1.0,cooler,paperclip,L,S,3.0,1.0,cooler8,paperclip3,1.0,22.689,0.18899999999999997,0.0,
27,,size_choice_confirmation,,html-keyboard-response,27,30126,0.0-1.0-35.0-0.0,0,0,1,,,,,,8.0,,,,,,,,,,,,,,,,,,,,,,,,,,,,24.0,1.311,,
28,,iti,,html-keyboard-response,28,30230,0.0-1.0-36.0,0,0,1,,,,,,,,,,,,,,,,,,,,,,,,,,,,,,,,,,26.0,2.0,,
29,,size_choice,,html-keyboard-response,29,31181,0.0-1.0-38.0,0,0,1,,950.0,,,68.0,9.0,9.0,1.0,1500.0,M-L,0.0,M,L,2.0,3.0,basketball,garbagecan,basketball10,garbagecan5,59.0,34.0,/static/Size_judgement/Stimuli/Size_stims/M/basketball/basketball4.jpg,/static/Size_judgement/Stimuli/Size_stims/L/garbagecan/garbagecan3.jpg,1.0,basketball,garbagecan,M,L,2.0,3.0,basketball10,garbagecan5,0.0,26.95,0.95,0.0,
30,,size_choice_confirmation,,html-keyboard-response,30,31736,0.0-1.0-39.0-0.0,0,0,1,,,,,,9.0,,,,,,,,,,,,,,,,,,,,,,,,,,,,27.5,0.55,,
31,,iti,,html-keyboard-response,31,31839,0.0-1.0-40.0,0,0,1,,,,,,,,,,,,,,,,,,,,,,,,,,,,,,,,,,29.0,1.5,,
32,,size_choice,,html-keyboard-response,32,33241,0.0-1.0-42.0,0,0,1,,1401.0,,,68.0,10.0,10.0,1.0,2000.0,S-L,1.0,L,S,3.0,1.0,dishwasher,teabag,dishwasher1,teabag5,20.0,134.0,/static/Size_judgement/Stimuli/Size_stims/L/dishwasher/dishwasher10.jpg,/static/Size_judgement/Stimuli/Size_stims/S/teabag/teabag2.jpg,1.0,dishwasher,teabag,L,S,3.0,1.0,dishwasher1,teabag5,1.0,30.401,1.401,0.0,
33,,size_choice_confirmation,,html-keyboard-response,33,33341,0.0-1.0-43.0-0.0,0,0,1,,,,,,10.0,,,,,,,,,,,,,,,,,,,,,,,,,,,,30.5,0.099,,
34,,iti,,html-keyboard-response,34,33444,0.0-1.0-44.0,0,0,1,,,,,,,,,,,,,,,,,,,,,,,,,,,,,,,,,,32.5,2.0,,
35,,size_choice,,html-keyboard-response,35,34945,0.0-1.0-46.0,0,0,1,,,,,,11.0,11.0,1.0,1000.0,S-S,,S,S,1.0,1.0,thread,die,thread10,die4,149.0,103.0,/static/Size_judgement/Stimuli/Size_stims/S/thread/thread9.jpg,/static/Size_judgement/Stimuli/Size_stims/S/die/die2.jpg,,,,,,,,,,,34.0,1.5,1.0,
36,,iti,,html-keyboard-response,36,35050,0.0-1.0-48.0,0,0,1,,,,,,,,,,,,,,,,,,,,,,,,,,,,,,,,,,35.0,1.0,,
37,,size_choice,,html-keyboard-response,37,35136,0.0-1.0-50.0,0,0,1,,86.0,,,68.0,12.0,12.0,1.0,1000.0,S-XL,0.0,S,XL,1.0,4.0,teabag,crane,teabag6,crane6,135.0,165.0,/static/Size_judgement/Stimuli/Size_stims/S/teabag/teabag6.jpg,/static/Size_judgement/Stimuli/Size_stims/XL/crane/crane2.jpg,1.0,teabag,crane,S,XL,1.0,4.0,teabag6,crane6,0.0,35.086,0.086,0.0,
38,,size_choice_confirmation,,html-keyboard-response,38,36553,0.0-1.0-51.0-0.0,0,0,1,,,,,,12.0,,,,,,,,,,,,,,,,,,,,,,,,,,,,36.5,1.4140000000000001,,
39,,iti,,html-keyboard-response,39,36654,0.0-1.0-52.0,0,0,1,,,,,,,,,,,,,,,,,,,,,,,,,,,,,,,,,,37.5,1.0,,
40,,size_choice,,html-keyboard-response,40,37466,0.0-1.0-54.0,0,0,1,,811.0,,,75.0,13.0,13.0,1.0,1500.0,S-M,0.0,S,M,1.0,2.0,paperclip,ketchup,paperclip2,ketchup7,111.0,96.0,/static/Size_judgement/Stimuli/Size_stims/S/paperclip/paperclip8.jpg,/static/Size_judgement/Stimuli/Size_stims/M/ketchup/ketchup4.jpg,0.0,ketchup,paperclip,M,S,2.0,1.0,ketchup7,paperclip2,1.0,38.311,0.8109999999999999,0.0,
41,,size_choice_confirmation,,html-keyboard-response,41,38157,0.0-1.0-55.0-0.0,0,0,1,,,,,,13.0,,,,,,,,,,,,,,,,,,,,,,,,,,,,39.0,0.6890000000000001,,
42,,iti,,html-keyboard-response,42,38258,0.0-1.0-56.0,0,0,1,,,,,,,,,,,,,,,,,,,,,,,,,,,,,,,,,,40.5,1.5,,
43,,size_choice,,html-keyboard-response,43,38293,0.0-1.0-58.0,0,0,1,,34.0,,,68.0,14.0,14.0,1.0,2000.0,S-L,0.0,S,L,1.0,3.0,thread,garbagecan,thread6,garbagecan8,145.0,37.0,/static/Size_judgement/Stimuli/Size_stims/S/thread/thread2.jpg,/static/Size_judgement/Stimuli/Size_stims/L/garbagecan/garbagecan13.jpg,1.0,thread,garbagecan,S,L,1.0,3.0,thread6,garbagecan8,0.0,40.534,0.034,0.0,
44,,size_choice_confirmation,,html-keyboard-response,44,39764,0.0-1.0-59.0-0.0,0,0,1,,,,,,14.0,,,,,,,,,,,,,,,,,,,,,,,,,,,,42.0,1.466,,
45,,iti,,html-keyboard-response,45,39868,0.0-1.0-60.0,0,0,1,,,,,,,,,,,,,,,,,,,,,,,,,,,,,,,,,,44.0,2.0,,
46,,size_choice,,html-keyboard-response,46,40792,0.0-1.0-62.0,0,0,1,,923.0,,,75.0,15.0,15.0,1.0,1000.0,S-L,0.0,S,L,1.0,3.0,screws,dishwasher,screws4,dishwasher2,123.0,21.0,/static/Size_judgement/Stimuli/Size_stims/S/screws/screws6.jpg,/static/Size_judgement/Stimuli/Size_stims/L/dishwasher/dishwasher9.jpg,0.0,dishwasher,screws,L,S,3.0,1.0,dishwasher2,screws4,1.0,44.923,0.9229999999999999,0.0,
47,,size_choice_confirmation,,html-keyboard-response,47,41372,0.0-1.0-63.0-0.0,0,0,1,,,,,,15.0,,,,,,,,,,,,,,,,,,,,,,,,,,,,45.5,0.5770000000000001,,
48,,iti,,html-keyboard-response,48,41476,0.0-1.0-64.0,0,0,1,,,,,,,,,,,,,,,,,,,,,,,,,,,,,,,,,,46.5,1.0,,
49,,size_choice,,html-keyboard-response,49,42480,0.0-1.0-66.0,0,0,1,,1003.0,,,75.0,16.0,16.0,1.0,3000.0,XL-XL,,XL,XL,4.0,4.0,dumptruck,crane,dumptruck9,crane9,178.0,168.0,/static/Size_judgement/Stimuli/Size_stims/XL/dumptruck/dumptruck5.jpg,/static/Size_judgement/Stimuli/Size_stims/XL/crane/crane8.jpg,0.0,crane,dumptruck,XL,XL,4.0,4.0,crane9,dumptruck9,,47.503,1.003,0.0,
50,,size_choice_confirmation,,html-keyboard-response,50,42979,0.0-1.0-67.0-0.0,0,0,1,,,,,,16.0,,,,,,,,,,,,,,,,,,,,,,,,,,,,48.0,0.49700000000000005,,
51,,iti,,html-keyboard-response,51,43080,0.0-1.0-68.0,0,0,1,,,,,,,,,,,,,,,,,,,,,,,,,,,,,,,,,,51.0,3.0,,
52,,size_choice,,html-keyboard-response,52,43200,0.0-1.0-70.0,0,0,1,,120.0,,,75.0,17.0,17.0,1.0,1000.0,L-L,,L,L,3.0,3.0,deskchair,mailbox,deskchair2,mailbox5,11.0,44.0,/static/Size_judgement/Stimuli/Size_stims/L/deskchair/deskchair8.jpg,/static/Size_judgement/Stimuli/Size_stims/L/mailbox/mailbox4.jpg,0.0,mailbox,deskchair,L,L,3.0,3.0,mailbox5,deskchair2,,51.12,0.12,0.0,
53,,size_choice_confirmation,,html-keyboard-response,53,44582,0.0-1.0-71.0-0.0,0,0,1,,,,,,17.0,,,,,,,,,,,,,,,,,,,,,,,,,,,,52.5,1.38,,
54,,iti,,html-keyboard-response,54,44686,0.0-1.0-72.0,0,0,1,,,,,,,,,,,,,,,,,,,,,,,,,,,,,,,,,,53.5,1.0,,
55,,size_choice,,html-keyboard-response,55,46189,0.0-1.0-74.0,0,0,1,,,,,,18.0,18.0,1.0,3000.0,M-XL,1.0,XL,M,4.0,2.0,van,coffeemaker,van2,coffeemaker8,191.0,67.0,/static/Size_judgement/Stimuli/Size_stims/XL/van/van4.jpg,/static/Size_judgement/Stimuli/Size_stims/M/coffeemaker/coffeemaker5.jpg,,,,,,,,,,,55.0,1.5,1.0,
56,,iti,,html-keyboard-response,56,46294,0.0-1.0-76.0,0,0,1,,,,,,,,,,,,,,,,,,,,,,,,,,,,,,,,,,58.0,3.0,,
57,,size_choice,,html-keyboard-response,57,46492,0.0-1.0-78.0,0,0,1,,197.0,,,75.0,19.0,19.0,1.0,1000.0,M-XL,1.0,XL,M,4.0,2.0,tractor,handsaw,tractor6,handsaw1,185.0,80.0,/static/Size_judgement/Stimuli/Size_stims/XL/tractor/tractor3.jpg,/static/Size_judgement/Stimuli/Size_stims/M/handsaw/handsaw8.jpg,0.0,handsaw,tractor,M,XL,2.0,4.0,handsaw1,tractor6,0.0,58.196999999999996,0.19699999999999998,0.0,
58,,size_choice_confirmation,,html-keyboard-response,58,47796,0.0-1.0-79.0-0.0,0,0,1,,,,,,19.0,,,,,,,,,,,,,,,,,,,,,,,,,,,,59.5,1.3030000000000002,,
59,,iti,,html-keyboard-response,59,47901,0.0-1.0-80.0,0,0,1,,,,,,,,,,,,,,,,,,,,,,,,,,,,,,,,,,60.5,1.0,,
60,,size_choice,,html-keyboard-response,60,48142,0.0-1.0-82.0,0,0,1,,240.0,,,68.0,20.0,20.0,1.0,1000.0,M-XL,0.0,M,XL,2.0,4.0,hairdryer,van,hairdryer9,van1,78.0,190.0,/static/Size_judgement/Stimuli/Size_stims/M/hairdryer/hairdryer5.jpg,/static/Size_judgement/Stimuli/Size_stims/XL/van/van5.jpg,1.0,hairdryer,van,M,XL,2.0,4.0,hairdryer9,van1,0.0,60.74,0.24,0.0,
61,,size_choice_confirmation,,html-keyboard-response,61,49408,0.0-1.0-83.0-0.0,0,0,1,,,,,,20.0,,,,,,,,,,,,,,,,,,,,,,,,,,,,62.0,1.26,,
62,,iti,,html-keyboard-response,62,49509,0.0-1.0-84.0,0,0,1,,,,,,,,,,,,,,,,,,,,,,,,,,,,,,,,,,63.0,1.0,,
63,,size_choice,,html-keyboard-response,63,49544,0.0-1.0-86.0,0,0,1,,35.0,,,68.0,21.0,21.0,1.0,1000.0,S-M,0.0,S,M,1.0,2.0,die,hairdryer,die6,hairdryer4,105.0,73.0,/static/Size_judgement/Stimuli/Size_stims/S/die/die1.jpg,/static/Size_judgement/Stimuli/Size_stims/M/hairdryer/hairdryer16.jpg,1.0,die,hairdryer,S,M,1.0,2.0,die6,hairdryer4,0.0,63.035,0.035,0.0,
64,,size_choice_confirmation,,html-keyboard-response,64,51013,0.0-1.0-87.0-0.0,0,0,1,,,,,,21.0,,,,,,,,,,,,,,,,,,,,,,,,,,,,64.5,1.465,,
65,,iti,,html-keyboard-response,65,51118,0.0-1.0-88.0,0,0,1,,,,,,,,,,,,,,,,,,,,,,,,,,,,,,,,,,65.5,1.0,,
66,,size_choice,,html-keyboard-response,66,51152,0.0-1.0-90.0,0,0,1,,34.0,,,68.0,22.0,22.0,1.0,1000.0,S-L,1.0,L,S,3.0,1.0,mailbox,teabag,mailbox3,teabag8,42.0,137.0,/static/Size_judgement/Stimuli/Size_stims/L/mailbox/mailbox1.jpg,/static/Size_judgement/Stimuli/Size_stims/S/teabag/teabag7.jpg,1.0,mailbox,teabag,L,S,3.0,1.0,mailbox3,teabag8,1.0,65.53399999999999,0.034,0.0,
67,,size_choice_confirmation,,html-keyboard-response,67,52619,0.0-1.0-91.0-0.0,0,0,1,,,,,,22.0,,,,,,,,,,,,,,,,,,,,,,,,,,,,67.0,1.466,,
68,,iti,,html-keyboard-response,68,52720,0.0-1.0-92.0,0,0,1,,,,,,,,,,,,,,,,,,,,,,,,,,,,,,,,,,68.0,1.0,,
69,,size_choice,,html-keyboard-response,69,53036,0.0-1.0-94.0,0,0,1,,315.0,,,75.0,23.0,23.0,1.0,1500.0,M-XL,1.0,XL,M,4.0,2.0,tractor,basketball,tractor4,basketball4,183.0,53.0,/static/Size_judgement/Stimuli/Size_stims/XL/tractor/tractor4.jpg,/static/Size_judgement/Stimuli/Size_stims/M/basketball/basketball1.jpg,0.0,basketball,tractor,M,XL,2.0,4.0,basketball4,tractor4,0.0,68.315,0.315,0.0,
70,,size_choice_confirmation,,html-keyboard-response,70,54227,0.0-1.0-95.0-0.0,0,0,1,,,,,,23.0,,,,,,,,,,,,,,,,,,,,,,,,,,,,69.5,1.185,,
71,,iti,,html-keyboard-response,71,54329,0.0-1.0-96.0,0,0,1,,,,,,,,,,,,,,,,,,,,,,,,,,,,,,,,,,71.0,1.5,,
72,,size_choice,,html-keyboard-response,72,54358,0.0-1.0-98.0,0,0,1,,28.0,,,68.0,24.0,24.0,1.0,2000.0,S-XL,1.0,XL,S,4.0,1.0,dumptruck,die,dumptruck6,die8,175.0,107.0,/static/Size_judgement/Stimuli/Size_stims/XL/dumptruck/dumptruck2.jpg,/static/Size_judgement/Stimuli/Size_stims/S/die/die5.jpg,1.0,dumptruck,die,XL,S,4.0,1.0,dumptruck6,die8,1.0,71.028,0.027999999999999997,0.0,
73,,size_choice_confirmation,,html-keyboard-response,73,55836,0.0-1.0-99.0-0.0,0,0,1,,,,,,24.0,,,,,,,,,,,,,,,,,,,,,,,,,,,,72.5,1.472,,
74,,iti,,html-keyboard-response,74,55937,0.0-1.0-100.0,0,0,1,,,,,,,,,,,,,,,,,,,,,,,,,,,,,,,,,,74.5,2.0,,
75,,size_choice,,html-keyboard-response,75,57050,0.0-1.0-102.0,0,0,1,,1112.0,,,75.0,25.0,25.0,1.0,1000.0,S-XL,1.0,XL,S,4.0,1.0,van,die,van10,die10,199.0,109.0,/static/Size_judgement/Stimuli/Size_stims/XL/van/van8.jpg,/static/Size_judgement/Stimuli/Size_stims/S/die/die6.jpg,0.0,die,van,S,XL,1.0,4.0,die10,van10,0.0,75.612,1.112,0.0,
76,,size_choice_confirmation,,html-keyboard-response,76,57443,0.0-1.0-103.0-0.0,0,0,1,,,,,,25.0,,,,,,,,,,,,,,,,,,,,,,,,,,,,76.0,0.38799999999999996,,
77,,iti,,html-keyboard-response,77,57544,0.0-1.0-104.0,0,0,1,,,,,,,,,,,,,,,,,,,,,,,,,,,,,,,,,,77.0,1.0,,
78,,size_choice,,html-keyboard-response,78,57737,0.0-1.0-106.0,0,0,1,,193.0,,,68.0,26.0,26.0,1.0,2000.0,M-M,,M,M,2.0,2.0,coffeemaker,hairdryer,coffeemaker5,hairdryer1,64.0,70.0,/static/Size_judgement/Stimuli/Size_stims/M/coffeemaker/coffeemaker10.jpg,/static/Size_judgement/Stimuli/Size_stims/M/hairdryer/hairdryer11.jpg,1.0,coffeemaker,hairdryer,M,M,2.0,2.0,coffeemaker5,hairdryer1,,77.193,0.193,0.0,
79,,size_choice_confirmation,,html-keyboard-response,79,59045,0.0-1.0-107.0-0.0,0,0,1,,,,,,26.0,,,,,,,,,,,,,,,,,,,,,,,,,,,,78.5,1.307,,
80,,iti,,html-keyboard-response,80,59148,0.0-1.0-108.0,0,0,1,,,,,,,,,,,,,,,,,,,,,,,,,,,,,,,,,,80.5,2.0,,
81,,size_choice,,html-keyboard-response,81,59649,0.0-1.0-110.0,0,0,1,,499.0,,,68.0,27.0,27.0,1.0,3000.0,XL-XL,,XL,XL,4.0,4.0,car,dumptruck,car7,dumptruck2,156.0,171.0,/static/Size_judgement/Stimuli/Size_stims/XL/car/car13.jpg,/static/Size_judgement/Stimuli/Size_stims/XL/dumptruck/dumptruck8.jpg,1.0,car,dumptruck,XL,XL,4.0,4.0,car7,dumptruck2,,80.999,0.499,0.0,
82,,size_choice_confirmation,,html-keyboard-response,82,60655,0.0-1.0-111.0-0.0,0,0,1,,,,,,27.0,,,,,,,,,,,,,,,,,,,,,,,,,,,,82.0,1.001,,
83,,iti,,html-keyboard-response,83,60756,0.0-1.0-112.0,0,0,1,,,,,,,,,,,,,,,,,,,,,,,,,,,,,,,,,,85.0,3.0,,
84,,size_choice,,html-keyboard-response,84,60835,0.0-1.0-114.0,0,0,1,,79.0,,,68.0,28.0,28.0,1.0,1000.0,M-L,1.0,L,M,3.0,2.0,mailbox,ketchup,mailbox2,ketchup6,41.0,95.0,/static/Size_judgement/Stimuli/Size_stims/L/mailbox/mailbox2.jpg,/static/Size_judgement/Stimuli/Size_stims/M/ketchup/ketchup1.jpg,1.0,mailbox,ketchup,L,M,3.0,2.0,mailbox2,ketchup6,1.0,85.079,0.079,0.0,
85,,size_choice_confirmation,,html-keyboard-response,85,62258,0.0-1.0-115.0-0.0,0,0,1,,,,,,28.0,,,,,,,,,,,,,,,,,,,,,,,,,,,,86.5,1.421,,
86,,iti,,html-keyboard-response,86,62363,0.0-1.0-116.0,0,0,1,,,,,,,,,,,,,,,,,,,,,,,,,,,,,,,,,,87.5,1.0,,
87,,size_choice,,html-keyboard-response,87,63312,0.0-1.0-118.0,0,0,1,,948.0,,,68.0,29.0,29.0,1.0,3500.0,L-XL,1.0,XL,L,4.0,3.0,van,cooler,van7,cooler5,196.0,4.0,/static/Size_judgement/Stimuli/Size_stims/XL/van/van1.jpg,/static/Size_judgement/Stimuli/Size_stims/L/cooler/cooler10.jpg,1.0,van,cooler,XL,L,4.0,3.0,van7,cooler5,1.0,88.448,0.948,0.0,
88,,size_choice_confirmation,,html-keyboard-response,88,63869,0.0-1.0-119.0-0.0,0,0,1,,,,,,29.0,,,,,,,,,,,,,,,,,,,,,,,,,,,,89.0,0.552,,
89,,iti,,html-keyboard-response,89,63973,0.0-1.0-120.0,0,0,1,,,,,,,,,,,,,,,,,,,,,,,,,,,,,,,,,,92.5,3.5,,
90,,size_choice,,html-keyboard-response,90,64032,0.0-1.0-122.0,0,0,1,,59.0,,,68.0,30.0,30.0,1.0,1000.0,S-S,,S,S,1.0,1.0,paperclip,teabag,paperclip9,teabag2,118.0,131.0,/static/Size_judgement/Stimuli/Size_stims/S/paperclip/paperclip4.jpg,/static/Size_judgement/Stimuli/Size_stims/S/teabag/teabag8.jpg,1.0,paperclip,teabag,S,S,1.0,1.0,paperclip9,teabag2,,92.559,0.059000000000000004,0.0,
91,,size_choice_confirmation,,html-keyboard-response,91,65478,0.0-1.0-123.0-0.0,0,0,1,,,,,,30.0,,,,,,,,,,,,,,,,,,,,,,,,,,,,94.0,1.4409999999999998,,
92,,iti,,html-keyboard-response,92,65580,0.0-1.0-124.0,0,0,1,,,,,,,,,,,,,,,,,,,,,,,,,,,,,,,,,,95.0,1.0,,
93,,size_choice,,html-keyboard-response,93,65910,0.0-1.0-126.0,0,0,1,,330.0,,,75.0,31.0,31.0,1.0,1500.0,S-S,,S,S,1.0,1.0,thread,screws,thread4,screws8,143.0,127.0,/static/Size_judgement/Stimuli/Size_stims/S/thread/thread5.jpg,/static/Size_judgement/Stimuli/Size_stims/S/screws/screws10.jpg,0.0,screws,thread,S,S,1.0,1.0,screws8,thread4,,95.33,0.33,0.0,
94,,size_choice_confirmation,,html-keyboard-response,94,67082,0.0-1.0-127.0-0.0,0,0,1,,,,,,31.0,,,,,,,,,,,,,,,,,,,,,,,,,,,,96.5,1.17,,
95,,iti,,html-keyboard-response,95,67182,0.0-1.0-128.0,0,0,1,,,,,,,,,,,,,,,,,,,,,,,,,,,,,,,,,,98.0,1.5,,
96,,size_choice,,html-keyboard-response,96,67548,0.0-1.0-130.0,0,0,1,,365.0,,,68.0,32.0,32.0,1.0,2000.0,S-XL,0.0,S,XL,1.0,4.0,die,crane,die7,crane8,106.0,167.0,/static/Size_judgement/Stimuli/Size_stims/S/die/die4.jpg,/static/Size_judgement/Stimuli/Size_stims/XL/crane/crane10.jpg,1.0,die,crane,S,XL,1.0,4.0,die7,crane8,0.0,98.365,0.365,0.0,
97,,size_choice_confirmation,,html-keyboard-response,97,68686,0.0-1.0-131.0-0.0,0,0,1,,,,,,32.0,,,,,,,,,,,,,,,,,,,,,,,,,,,,99.5,1.135,,
98,,iti,,html-keyboard-response,98,68789,0.0-1.0-132.0,0,0,1,,,,,,,,,,,,,,,,,,,,,,,,,,,,,,,,,,101.5,2.0,,
99,,size_choice,,html-keyboard-response,99,68837,0.0-1.0-134.0,0,0,1,,47.0,,,68.0,33.0,33.0,1.0,1000.0,M-M,,M,M,2.0,2.0,hairdryer,handsaw,hairdryer3,handsaw3,72.0,82.0,/static/Size_judgement/Stimuli/Size_stims/M/hairdryer/hairdryer17.jpg,/static/Size_judgement/Stimuli/Size_stims/M/handsaw/handsaw2.jpg,1.0,hairdryer,handsaw,M,M,2.0,2.0,hairdryer3,handsaw3,,101.54700000000001,0.047,0.0,
100,,size_choice_confirmation,,html-keyboard-response,100,70292,0.0-1.0-135.0-0.0,0,0,1,,,,,,33.0,,,,,,,,,,,,,,,,,,,,,,,,,,,,103.0,1.453,,
101,,iti,,html-keyboard-response,101,70396,0.0-1.0-136.0,0,0,1,,,,,,,,,,,,,,,,,,,,,,,,,,,,,,,,,,104.0,1.0,,
102,,size_choice,,html-keyboard-response,102,71899,0.0-1.0-138.0,0,0,1,,,,,,34.0,34.0,1.0,1500.0,L-L,,L,L,3.0,3.0,garbagecan,cooler,garbagecan9,cooler1,38.0,0.0,/static/Size_judgement/Stimuli/Size_stims/L/garbagecan/garbagecan12.jpg,/static/Size_judgement/Stimuli/Size_stims/L/cooler/cooler8.jpg,,,,,,,,,,,105.5,1.5,1.0,
103,,iti,,html-keyboard-response,103,72003,0.0-1.0-140.0,0,0,1,,,,,,,,,,,,,,,,,,,,,,,,,,,,,,,,,,107.0,1.5,,
104,,size_choice,,html-keyboard-response,104,72042,0.0-1.0-142.0,0,0,1,,39.0,,,68.0,35.0,35.0,1.0,2000.0,S-L,1.0,L,S,3.0,1.0,cooler,teabag,cooler9,teabag1,8.0,130.0,/static/Size_judgement/Stimuli/Size_stims/L/cooler/cooler7.jpg,/static/Size_judgement/Stimuli/Size_stims/S/teabag/teabag9.jpg,1.0,cooler,teabag,L,S,3.0,1.0,cooler9,teabag1,1.0,107.039,0.039,0.0,
105,,size_choice_confirmation,,html-keyboard-response,105,73507,0.0-1.0-143.0-0.0,0,0,1,,,,,,35.0,,,,,,,,,,,,,,,,,,,,,,,,,,,,108.5,1.4609999999999999,,
106,,iti,,html-keyboard-response,106,73608,0.0-1.0-144.0,0,0,1,,,,,,,,,,,,,,,,,,,,,,,,,,,,,,,,,,110.5,2.0,,
107,,size_choice,,html-keyboard-response,107,73611,0.0-1.0-146.0,0,0,1,,3.0,,,68.0,36.0,36.0,1.0,3500.0,M-L,1.0,L,M,3.0,2.0,garbagecan,ketchup,garbagecan3,ketchup5,32.0,94.0,/static/Size_judgement/Stimuli/Size_stims/L/garbagecan/garbagecan7.jpg,/static/Size_judgement/Stimuli/Size_stims/M/ketchup/ketchup3.jpg,1.0,garbagecan,ketchup,L,M,3.0,2.0,garbagecan3,ketchup5,1.0,110.50299999999999,0.003,0.0,
108,,size_choice_confirmation,,html-keyboard-response,108,75110,0.0-1.0-147.0-0.0,0,0,1,,,,,,36.0,,,,,,,,,,,,,,,,,,,,,,,,,,,,112.0,1.4969999999999999,,
109,,iti,,html-keyboard-response,109,75215,0.0-1.0-148.0,0,0,1,,,,,,,,,,,,,,,,,,,,,,,,,,,,,,,,,,115.5,3.5,,
110,,size_choice,,html-keyboard-response,110,75445,0.0-1.0-150.0,0,0,1,,228.0,,,75.0,37.0,37.0,1.0,1500.0,M-L,1.0,L,M,3.0,2.0,mailbox,ketchup,mailbox6,ketchup4,45.0,93.0,/static/Size_judgement/Stimuli/Size_stims/L/mailbox/mailbox6.jpg,/static/Size_judgement/Stimuli/Size_stims/M/ketchup/ketchup2.jpg,0.0,ketchup,mailbox,M,L,2.0,3.0,ketchup4,mailbox6,0.0,115.728,0.228,0.0,
111,,size_choice_confirmation,,html-keyboard-response,111,76720,0.0-1.0-151.0-0.0,0,0,1,,,,,,37.0,,,,,,,,,,,,,,,,,,,,,,,,,,,,117.0,1.272,,
112,,iti,,html-keyboard-response,112,76820,0.0-1.0-152.0,0,0,1,,,,,,,,,,,,,,,,,,,,,,,,,,,,,,,,,,118.5,1.5,,
113,,size_choice,,html-keyboard-response,113,78145,0.0-1.0-154.0,0,0,1,,1324.0,,,75.0,38.0,38.0,1.0,1000.0,L-L,,L,L,3.0,3.0,mailbox,garbagecan,mailbox8,garbagecan4,47.0,33.0,/static/Size_judgement/Stimuli/Size_stims/L/mailbox/mailbox10.jpg,/static/Size_judgement/Stimuli/Size_stims/L/garbagecan/garbagecan6.jpg,0.0,garbagecan,mailbox,L,L,3.0,3.0,garbagecan4,mailbox8,,119.824,1.324,0.0,
114,,size_choice_confirmation,,html-keyboard-response,114,78323,0.0-1.0-155.0-0.0,0,0,1,,,,,,38.0,,,,,,,,,,,,,,,,,,,,,,,,,,,,120.0,0.17600000000000002,,
115,,iti,,html-keyboard-response,115,78424,0.0-1.0-156.0,0,0,1,,,,,,,,,,,,,,,,,,,,,,,,,,,,,,,,,,121.0,1.0,,
116,,size_choice,,html-keyboard-response,116,78581,0.0-1.0-158.0,0,0,1,,157.0,,,75.0,39.0,39.0,1.0,1000.0,M-M,,M,M,2.0,2.0,basketball,hairdryer,basketball6,hairdryer7,55.0,76.0,/static/Size_judgement/Stimuli/Size_stims/M/basketball/basketball2.jpg,/static/Size_judgement/Stimuli/Size_stims/M/hairdryer/hairdryer3.jpg,0.0,hairdryer,basketball,M,M,2.0,2.0,hairdryer7,basketball6,,121.15700000000001,0.157,0.0,
117,,size_choice_confirmation,,html-keyboard-response,117,79926,0.0-1.0-159.0-0.0,0,0,1,,,,,,39.0,,,,,,,,,,,,,,,,,,,,,,,,,,,,122.5,1.3430000000000002,,
118,,iti,,html-keyboard-response,118,80029,0.0-1.0-160.0,0,0,1,,,,,,,,,,,,,,,,,,,,,,,,,,,,,,,,,,123.5,1.0,,
119,,size_choice,,html-keyboard-response,119,80096,0.0-1.0-162.0,0,0,1,,66.0,,,68.0,40.0,40.0,1.0,3000.0,S-XL,1.0,XL,S,4.0,1.0,crane,thread,crane7,thread5,166.0,144.0,/static/Size_judgement/Stimuli/Size_stims/XL/crane/crane3.jpg,/static/Size_judgement/Stimuli/Size_stims/S/thread/thread1.jpg,1.0,crane,thread,XL,S,4.0,1.0,crane7,thread5,1.0,123.566,0.066,0.0,
120,,size_choice_confirmation,,html-keyboard-response,120,81533,0.0-1.0-163.0-0.0,0,0,1,,,,,,40.0,,,,,,,,,,,,,,,,,,,,,,,,,,,,125.0,1.4340000000000002,,
121,,iti,,html-keyboard-response,121,81636,0.0-1.0-164.0,0,0,1,,,,,,,,,,,,,,,,,,,,,,,,,,,,,,,,,,128.0,3.0,,
122,,size_choice,,html-keyboard-response,122,81727,0.0-1.0-166.0,0,0,1,,89.0,,,75.0,41.0,41.0,1.0,1000.0,S-XL,0.0,S,XL,1.0,4.0,teabag,tractor,teabag7,tractor7,136.0,186.0,/static/Size_judgement/Stimuli/Size_stims/S/teabag/teabag10.jpg,/static/Size_judgement/Stimuli/Size_stims/XL/tractor/tractor2.jpg,0.0,tractor,teabag,XL,S,4.0,1.0,tractor7,teabag7,1.0,128.089,0.08900000000000001,0.0,
123,,size_choice_confirmation,,html-keyboard-response,123,83143,0.0-1.0-167.0-0.0,0,0,1,,,,,,41.0,,,,,,,,,,,,,,,,,,,,,,,,,,,,129.5,1.411,,
124,,iti,,html-keyboard-response,124,83247,0.0-1.0-168.0,0,0,1,,,,,,,,,,,,,,,,,,,,,,,,,,,,,,,,,,130.5,1.0,,
125,,size_choice,,html-keyboard-response,125,83653,0.0-1.0-170.0,0,0,1,,405.0,,,75.0,42.0,42.0,1.0,1500.0,L-XL,0.0,L,XL,3.0,4.0,garbagecan,car,garbagecan10,car6,39.0,155.0,/static/Size_judgement/Stimuli/Size_stims/L/garbagecan/garbagecan11.jpg,/static/Size_judgement/Stimuli/Size_stims/XL/car/car12.jpg,0.0,car,garbagecan,XL,L,4.0,3.0,car6,garbagecan10,1.0,130.905,0.405,0.0,
126,,size_choice_confirmation,,html-keyboard-response,126,84753,0.0-1.0-171.0-0.0,0,0,1,,,,,,42.0,,,,,,,,,,,,,,,,,,,,,,,,,,,,132.0,1.095,,
127,,iti,,html-keyboard-response,127,84856,0.0-1.0-172.0,0,0,1,,,,,,,,,,,,,,,,,,,,,,,,,,,,,,,,,,133.5,1.5,,
128,,size_choice,,html-keyboard-response,128,84953,0.0-1.0-174.0,0,0,1,,95.0,,,75.0,43.0,43.0,1.0,3500.0,M-XL,1.0,XL,M,4.0,2.0,car,coffeemaker,car4,coffeemaker9,153.0,68.0,/static/Size_judgement/Stimuli/Size_stims/XL/car/car6.jpg,/static/Size_judgement/Stimuli/Size_stims/M/coffeemaker/coffeemaker7.jpg,0.0,coffeemaker,car,M,XL,2.0,4.0,coffeemaker9,car4,0.0,133.595,0.095,0.0,
129,,size_choice_confirmation,,html-keyboard-response,129,86359,0.0-1.0-175.0-0.0,0,0,1,,,,,,43.0,,,,,,,,,,,,,,,,,,,,,,,,,,,,135.0,1.405,,
130,,iti,,html-keyboard-response,130,86461,0.0-1.0-176.0,0,0,1,,,,,,,,,,,,,,,,,,,,,,,,,,,,,,,,,,138.5,3.5,,
131,,size_choice,,html-keyboard-response,131,87964,0.0-1.0-178.0,0,0,1,,,,,,44.0,44.0,1.0,2000.0,L-XL,0.0,L,XL,3.0,4.0,cooler,car,cooler4,car5,3.0,154.0,/static/Size_judgement/Stimuli/Size_stims/L/cooler/cooler3.jpg,/static/Size_judgement/Stimuli/Size_stims/XL/car/car11.jpg,,,,,,,,,,,140.0,1.5,1.0,
132,,iti,,html-keyboard-response,132,88066,0.0-1.0-180.0,0,0,1,,,,,,,,,,,,,,,,,,,,,,,,,,,,,,,,,,142.0,2.0,,
133,,block_over,,html-keyboard-response,133,89218,0.0-1.0-181.0-0.0,0,0,1,,1152.0,,,68.0,44.0,,,,,,,,,,,,,,,,,,,,,,,,,,,,,,,
134,,size_choice,,html-keyboard-response,134,89865,0.0-1.0-182.0,0,0,1,,647.0,,,75.0,45.0,45.0,2.0,3500.0,S-M,0.0,S,M,1.0,2.0,screws,handsaw,screws5,handsaw6,124.0,85.0,/static/Size_judgement/Stimuli/Size_stims/S/screws/screws2.jpg,/static/Size_judgement/Stimuli/Size_stims/M/handsaw/handsaw4.jpg,0.0,handsaw,screws,M,S,2.0,1.0,handsaw6,screws5,1.0,142.64700000000002,0.647,0.0,
135,,size_choice_confirmation,,html-keyboard-response,135,90722,0.0-1.0-183.0-0.0,0,0,1,,,,,,45.0,,,,,,,,,,,,,,,,,,,,,,,,,,,,143.5,0.853,,
136,,iti,,html-keyboard-response,136,90823,0.0-1.0-184.0,0,0,1,,,,,,,,,,,,,,,,,,,,,,,,,,,,,,,,,,147.0,3.5,,
137,,size_choice,,html-keyboard-response,137,92183,0.0-1.0-186.0,0,0,1,,1359.0,,,75.0,46.0,46.0,2.0,1000.0,S-S,,S,S,1.0,1.0,screws,paperclip,screws9,paperclip6,128.0,115.0,/static/Size_judgement/Stimuli/Size_stims/S/screws/screws8.jpg,/static/Size_judgement/Stimuli/Size_stims/S/paperclip/paperclip6.jpg,0.0,paperclip,screws,S,S,1.0,1.0,paperclip6,screws9,,148.359,1.359,0.0,
138,,size_choice_confirmation,,html-keyboard-response,138,92329,0.0-1.0-187.0-0.0,0,0,1,,,,,,46.0,,,,,,,,,,,,,,,,,,,,,,,,,,,,148.5,0.141,,
139,,iti,,html-keyboard-response,139,92432,0.0-1.0-188.0,0,0,1,,,,,,,,,,,,,,,,,,,,,,,,,,,,,,,,,,149.5,1.0,,
140,,size_choice,,html-keyboard-response,140,93038,0.0-1.0-190.0,0,0,1,,606.0,,,75.0,47.0,47.0,2.0,2000.0,M-XL,1.0,XL,M,4.0,2.0,crane,basketball,crane5,basketball5,164.0,54.0,/static/Size_judgement/Stimuli/Size_stims/XL/crane/crane1.jpg,/static/Size_judgement/Stimuli/Size_stims/M/basketball/basketball3.jpg,0.0,basketball,crane,M,XL,2.0,4.0,basketball5,crane5,0.0,150.106,0.606,0.0,
141,,size_choice_confirmation,,html-keyboard-response,141,93934,0.0-1.0-191.0-0.0,0,0,1,,,,,,47.0,,,,,,,,,,,,,,,,,,,,,,,,,,,,151.0,0.894,,
142,,iti,,html-keyboard-response,142,94036,0.0-1.0-192.0,0,0,1,,,,,,,,,,,,,,,,,,,,,,,,,,,,,,,,,,153.0,2.0,,
143,,size_choice,,html-keyboard-response,143,94039,0.0-1.0-194.0,0,0,1,,2.0,,,68.0,48.0,48.0,2.0,1000.0,M-L,0.0,M,L,2.0,3.0,hairdryer,mailbox,hairdryer6,mailbox10,75.0,49.0,/static/Size_judgement/Stimuli/Size_stims/M/hairdryer/hairdryer8.jpg,/static/Size_judgement/Stimuli/Size_stims/L/mailbox/mailbox8.jpg,1.0,hairdryer,mailbox,M,L,2.0,3.0,hairdryer6,mailbox10,0.0,153.002,0.002,0.0,
144,,size_choice_confirmation,,html-keyboard-response,144,95541,0.0-1.0-195.0-0.0,0,0,1,,,,,,48.0,,,,,,,,,,,,,,,,,,,,,,,,,,,,154.5,1.4980000000000002,,
145,,iti,,html-keyboard-response,145,95643,0.0-1.0-196.0,0,0,1,,,,,,,,,,,,,,,,,,,,,,,,,,,,,,,,,,155.5,1.0,,
146,,size_choice,,html-keyboard-response,146,96142,0.0-1.0-198.0,0,0,1,,498.0,,,75.0,49.0,49.0,2.0,2000.0,M-XL,1.0,XL,M,4.0,2.0,tractor,coffeemaker,tractor5,coffeemaker1,184.0,60.0,/static/Size_judgement/Stimuli/Size_stims/XL/tractor/tractor1.jpg,/static/Size_judgement/Stimuli/Size_stims/M/coffeemaker/coffeemaker14.jpg,0.0,coffeemaker,tractor,M,XL,2.0,4.0,coffeemaker1,tractor5,0.0,155.998,0.498,0.0,
147,,size_choice_confirmation,,html-keyboard-response,147,97146,0.0-1.0-199.0-0.0,0,0,1,,,,,,49.0,,,,,,,,,,,,,,,,,,,,,,,,,,,,157.0,1.002,,
148,,iti,,html-keyboard-response,148,97251,0.0-1.0-200.0,0,0,1,,,,,,,,,,,,,,,,,,,,,,,,,,,,,,,,,,159.0,2.0,,
149,,size_choice,,html-keyboard-response,149,97397,0.0-1.0-202.0,0,0,1,,146.0,,,75.0,50.0,50.0,2.0,1000.0,S-XL,1.0,XL,S,4.0,1.0,car,teabag,car9,teabag10,158.0,139.0,/static/Size_judgement/Stimuli/Size_stims/XL/car/car15.jpg,/static/Size_judgement/Stimuli/Size_stims/S/teabag/teabag4.jpg,0.0,teabag,car,S,XL,1.0,4.0,teabag10,car9,0.0,159.14600000000002,0.146,0.0,
150,,size_choice_confirmation,,html-keyboard-response,150,98753,0.0-1.0-203.0-0.0,0,0,1,,,,,,50.0,,,,,,,,,,,,,,,,,,,,,,,,,,,,160.5,1.354,,
151,,iti,,html-keyboard-response,151,98854,0.0-1.0-204.0,0,0,1,,,,,,,,,,,,,,,,,,,,,,,,,,,,,,,,,,161.5,1.0,,
152,,size_choice,,html-keyboard-response,152,100358,0.0-1.0-206.0,0,0,1,,,,,,51.0,51.0,2.0,1500.0,XL-XL,,XL,XL,4.0,4.0,crane,car,crane10,car8,169.0,157.0,/static/Size_judgement/Stimuli/Size_stims/XL/crane/crane9.jpg,/static/Size_judgement/Stimuli/Size_stims/XL/car/car14.jpg,,,,,,,,,,,163.0,1.5,1.0,
153,,iti,,html-keyboard-response,153,100460,0.0-1.0-208.0,0,0,1,,,,,,,,,,,,,,,,,,,,,,,,,,,,,,,,,,164.5,1.5,,
154,,size_choice,,html-keyboard-response,154,101153,0.0-1.0-210.0,0,0,1,,692.0,,,68.0,52.0,52.0,2.0,1000.0,M-L,0.0,M,L,2.0,3.0,coffeemaker,dishwasher,coffeemaker2,dishwasher3,61.0,22.0,/static/Size_judgement/Stimuli/Size_stims/M/coffeemaker/coffeemaker12.jpg,/static/Size_judgement/Stimuli/Size_stims/L/dishwasher/dishwasher8.jpg,1.0,coffeemaker,dishwasher,M,L,2.0,3.0,coffeemaker2,dishwasher3,0.0,165.192,0.6920000000000001,0.0,
155,,size_choice_confirmation,,html-keyboard-response,155,101962,0.0-1.0-211.0-0.0,0,0,1,,,,,,52.0,,,,,,,,,,,,,,,,,,,,,,,,,,,,166.0,0.8079999999999999,,
156,,iti,,html-keyboard-response,156,102063,0.0-1.0-212.0,0,0,1,,,,,,,,,,,,,,,,,,,,,,,,,,,,,,,,,,167.0,1.0,,
157,,size_choice,,html-keyboard-response,157,102109,0.0-1.0-214.0,0,0,1,,45.0,,,68.0,53.0,53.0,2.0,3000.0,S-L,1.0,L,S,3.0,1.0,deskchair,paperclip,deskchair4,paperclip7,13.0,116.0,/static/Size_judgement/Stimuli/Size_stims/L/deskchair/deskchair6.jpg,/static/Size_judgement/Stimuli/Size_stims/S/paperclip/paperclip7.jpg,1.0,deskchair,paperclip,L,S,3.0,1.0,deskchair4,paperclip7,1.0,167.045,0.045,0.0,
158,,size_choice_confirmation,,html-keyboard-response,158,103565,0.0-1.0-215.0-0.0,0,0,1,,,,,,53.0,,,,,,,,,,,,,,,,,,,,,,,,,,,,168.5,1.455,,
159,,iti,,html-keyboard-response,159,103666,0.0-1.0-216.0,0,0,1,,,,,,,,,,,,,,,,,,,,,,,,,,,,,,,,,,171.5,3.0,,
160,,size_choice,,html-keyboard-response,160,103699,0.0-1.0-218.0,0,0,1,,32.0,,,68.0,54.0,54.0,2.0,2000.0,S-S,,S,S,1.0,1.0,screws,paperclip,screws1,paperclip10,120.0,119.0,/static/Size_judgement/Stimuli/Size_stims/S/screws/screws4.jpg,/static/Size_judgement/Stimuli/Size_stims/S/paperclip/paperclip10.jpg,1.0,screws,paperclip,S,S,1.0,1.0,screws1,paperclip10,,171.532,0.032,0.0,
161,,size_choice_confirmation,,html-keyboard-response,161,105172,0.0-1.0-219.0-0.0,0,0,1,,,,,,54.0,,,,,,,,,,,,,,,,,,,,,,,,,,,,173.0,1.4680000000000002,,
162,,iti,,html-keyboard-response,162,105275,0.0-1.0-220.0,0,0,1,,,,,,,,,,,,,,,,,,,,,,,,,,,,,,,,,,175.0,2.0,,
163,,size_choice,,html-keyboard-response,163,105363,0.0-1.0-222.0,0,0,1,,88.0,,,75.0,55.0,55.0,2.0,1500.0,M-L,1.0,L,M,3.0,2.0,dishwasher,ketchup,dishwasher5,ketchup2,24.0,91.0,/static/Size_judgement/Stimuli/Size_stims/L/dishwasher/dishwasher4.jpg,/static/Size_judgement/Stimuli/Size_stims/M/ketchup/ketchup9.jpg,0.0,ketchup,dishwasher,M,L,2.0,3.0,ketchup2,dishwasher5,0.0,175.088,0.08800000000000001,0.0,
164,,size_choice_confirmation,,html-keyboard-response,164,106778,0.0-1.0-223.0-0.0,0,0,1,,,,,,55.0,,,,,,,,,,,,,,,,,,,,,,,,,,,,176.5,1.412,,
165,,iti,,html-keyboard-response,165,106880,0.0-1.0-224.0,0,0,1,,,,,,,,,,,,,,,,,,,,,,,,,,,,,,,,,,178.0,1.5,,
166,,size_choice,,html-keyboard-response,166,107092,0.0-1.0-226.0,0,0,1,,212.0,,,68.0,56.0,56.0,2.0,1000.0,M-L,0.0,M,L,2.0,3.0,hairdryer,deskchair,hairdryer5,deskchair3,74.0,12.0,/static/Size_judgement/Stimuli/Size_stims/M/hairdryer/hairdryer15.jpg,/static/Size_judgement/Stimuli/Size_stims/L/deskchair/deskchair10.jpg,1.0,hairdryer,deskchair,M,L,2.0,3.0,hairdryer5,deskchair3,0.0,178.21200000000002,0.212,0.0,
167,,size_choice_confirmation,,html-keyboard-response,167,108381,0.0-1.0-227.0-0.0,0,0,1,,,,,,56.0,,,,,,,,,,,,,,,,,,,,,,,,,,,,179.5,1.288,,
168,,iti,,html-keyboard-response,168,108486,0.0-1.0-228.0,0,0,1,,,,,,,,,,,,,,,,,,,,,,,,,,,,,,,,,,180.5,1.0,,
169,,size_choice,,html-keyboard-response,169,108710,0.0-1.0-230.0,0,0,1,,222.0,,,68.0,57.0,57.0,2.0,1000.0,S-XL,0.0,S,XL,1.0,4.0,thread,dumptruck,thread7,dumptruck1,146.0,170.0,/static/Size_judgement/Stimuli/Size_stims/S/thread/thread3.jpg,/static/Size_judgement/Stimuli/Size_stims/XL/dumptruck/dumptruck9.jpg,1.0,thread,dumptruck,S,XL,1.0,4.0,thread7,dumptruck1,0.0,180.722,0.222,0.0,
170,,size_choice_confirmation,,html-keyboard-response,170,109991,0.0-1.0-231.0-0.0,0,0,1,,,,,,57.0,,,,,,,,,,,,,,,,,,,,,,,,,,,,182.0,1.278,,
171,,iti,,html-keyboard-response,171,110093,0.0-1.0-232.0,0,0,1,,,,,,,,,,,,,,,,,,,,,,,,,,,,,,,,,,183.0,1.0,,
172,,size_choice,,html-keyboard-response,172,110179,0.0-1.0-234.0,0,0,1,,85.0,,,68.0,58.0,58.0,2.0,1000.0,S-L,0.0,S,L,1.0,3.0,teabag,dishwasher,teabag9,dishwasher6,138.0,25.0,/static/Size_judgement/Stimuli/Size_stims/S/teabag/teabag5.jpg,/static/Size_judgement/Stimuli/Size_stims/L/dishwasher/dishwasher6.jpg,1.0,teabag,dishwasher,S,L,1.0,3.0,teabag9,dishwasher6,0.0,183.085,0.085,0.0,
173,,size_choice_confirmation,,html-keyboard-response,173,111596,0.0-1.0-235.0-0.0,0,0,1,,,,,,58.0,,,,,,,,,,,,,,,,,,,,,,,,,,,,184.5,1.415,,
174,,iti,,html-keyboard-response,174,111701,0.0-1.0-236.0,0,0,1,,,,,,,,,,,,,,,,,,,,,,,,,,,,,,,,,,185.5,1.0,,
175,,size_choice,,html-keyboard-response,175,111735,0.0-1.0-238.0,0,0,1,,34.0,,,68.0,59.0,59.0,2.0,1000.0,M-M,,M,M,2.0,2.0,basketball,ketchup,basketball2,ketchup10,51.0,99.0,/static/Size_judgement/Stimuli/Size_stims/M/basketball/basketball8.jpg,/static/Size_judgement/Stimuli/Size_stims/M/ketchup/ketchup6.jpg,1.0,basketball,ketchup,M,M,2.0,2.0,basketball2,ketchup10,,185.53400000000002,0.034,0.0,
176,,size_choice_confirmation,,html-keyboard-response,176,113204,0.0-1.0-239.0-0.0,0,0,1,,,,,,59.0,,,,,,,,,,,,,,,,,,,,,,,,,,,,187.0,1.466,,
177,,iti,,html-keyboard-response,177,113308,0.0-1.0-240.0,0,0,1,,,,,,,,,,,,,,,,,,,,,,,,,,,,,,,,,,188.0,1.0,,
178,,size_choice,,html-keyboard-response,178,114808,0.0-1.0-242.0,0,0,1,,,,,,60.0,60.0,2.0,1500.0,M-XL,0.0,M,XL,2.0,4.0,ketchup,dumptruck,ketchup1,dumptruck3,90.0,172.0,/static/Size_judgement/Stimuli/Size_stims/M/ketchup/ketchup8.jpg,/static/Size_judgement/Stimuli/Size_stims/XL/dumptruck/dumptruck10.jpg,,,,,,,,,,,189.5,1.5,1.0,
179,,iti,,html-keyboard-response,179,114912,0.0-1.0-244.0,0,0,1,,,,,,,,,,,,,,,,,,,,,,,,,,,,,,,,,,191.0,1.5,,
180,,size_choice,,html-keyboard-response,180,117008,0.0-1.0-246.0,0,0,1,,,,,,61.0,61.0,2.0,1500.0,M-XL,0.0,M,XL,2.0,4.0,basketball,tractor,basketball1,tractor1,50.0,180.0,/static/Size_judgement/Stimuli/Size_stims/M/basketball/basketball9.jpg,/static/Size_judgement/Stimuli/Size_stims/XL/tractor/tractor6.jpg,,,,,,,,,,,192.5,1.5,1.0,
181,,iti,,html-keyboard-response,181,118206,0.0-1.0-248.0,0,0,1,,,,,,,,,,,,,,,,,,,,,,,,,,,,,,,,,,194.0,1.5,,
182,,size_choice,,html-keyboard-response,182,119875,0.0-1.0-250.0,0,0,1,,,,,,62.0,62.0,2.0,3000.0,L-XL,0.0,L,XL,3.0,4.0,cooler,van,cooler2,van9,1.0,198.0,/static/Size_judgement/Stimuli/Size_stims/L/cooler/cooler9.jpg,/static/Size_judgement/Stimuli/Size_stims/XL/van/van9.jpg,,,,,,,,,,,195.5,1.5,1.0,
183,,iti,,html-keyboard-response,183,121131,0.0-1.0-252.0,0,0,1,,,,,,,,,,,,,,,,,,,,,,,,,,,,,,,,,,198.5,3.0,,
184,,size_choice,,html-keyboard-response,184,123096,0.0-1.0-254.0,0,0,1,,,,,,63.0,63.0,2.0,3500.0,S-L,0.0,S,L,1.0,3.0,thread,dishwasher,thread2,dishwasher7,141.0,26.0,/static/Size_judgement/Stimuli/Size_stims/S/thread/thread6.jpg,/static/Size_judgement/Stimuli/Size_stims/L/dishwasher/dishwasher7.jpg,,,,,,,,,,,200.0,1.5,1.0,
185,,iti,,html-keyboard-response,185,124195,0.0-1.0-256.0,0,0,1,,,,,,,,,,,,,,,,,,,,,,,,,,,,,,,,,,203.5,3.5,,
186,,size_choice,,html-keyboard-response,186,125996,0.0-1.0-258.0,0,0,1,,,,,,64.0,64.0,2.0,1500.0,M-L,0.0,M,L,2.0,3.0,handsaw,cooler,handsaw8,cooler7,87.0,6.0,/static/Size_judgement/Stimuli/Size_stims/M/handsaw/handsaw7.jpg,/static/Size_judgement/Stimuli/Size_stims/L/cooler/cooler4.jpg,,,,,,,,,,,205.0,1.5,1.0,
187,,iti,,html-keyboard-response,187,126875,0.0-1.0-260.0,0,0,1,,,,,,,,,,,,,,,,,,,,,,,,,,,,,,,,,,206.5,1.5,,
188,,size_choice,,html-keyboard-response,188,128378,0.0-1.0-262.0,0,0,1,,,,,,65.0,65.0,2.0,2000.0,M-L,0.0,M,L,2.0,3.0,handsaw,mailbox,handsaw5,mailbox1,84.0,40.0,/static/Size_judgement/Stimuli/Size_stims/M/handsaw/handsaw1.jpg,/static/Size_judgement/Stimuli/Size_stims/L/mailbox/mailbox3.jpg,,,,,,,,,,,208.0,1.5,1.0,
189,,iti,,html-keyboard-response,189,128482,0.0-1.0-264.0,0,0,1,,,,,,,,,,,,,,,,,,,,,,,,,,,,,,,,,,210.0,2.0,,
190,,size_choice,,html-keyboard-response,190,128702,0.0-1.0-266.0,0,0,1,,219.0,,,75.0,66.0,66.0,2.0,1000.0,M-XL,1.0,XL,M,4.0,2.0,car,ketchup,car10,ketchup8,159.0,97.0,/static/Size_judgement/Stimuli/Size_stims/XL/car/car9.jpg,/static/Size_judgement/Stimuli/Size_stims/M/ketchup/ketchup5.jpg,0.0,ketchup,car,M,XL,2.0,4.0,ketchup8,car10,0.0,210.21900000000002,0.21899999999999997,0.0,
191,,size_choice_confirmation,,html-keyboard-response,191,129987,0.0-1.0-267.0-0.0,0,0,1,,,,,,66.0,,,,,,,,,,,,,,,,,,,,,,,,,,,,211.5,1.281,,
192,,iti,,html-keyboard-response,192,130090,0.0-1.0-268.0,0,0,1,,,,,,,,,,,,,,,,,,,,,,,,,,,,,,,,,,212.5,1.0,,
193,,size_choice,,html-keyboard-response,193,130413,0.0-1.0-270.0,0,0,1,,323.0,,,75.0,67.0,67.0,2.0,1000.0,S-L,1.0,L,S,3.0,1.0,deskchair,thread,deskchair6,thread3,15.0,142.0,/static/Size_judgement/Stimuli/Size_stims/L/deskchair/deskchair5.jpg,/static/Size_judgement/Stimuli/Size_stims/S/thread/thread4.jpg,0.0,thread,deskchair,S,L,1.0,3.0,thread3,deskchair6,0.0,212.82299999999998,0.32299999999999995,0.0,
194,,size_choice_confirmation,,html-keyboard-response,194,131596,0.0-1.0-271.0-0.0,0,0,1,,,,,,67.0,,,,,,,,,,,,,,,,,,,,,,,,,,,,214.0,1.177,,
195,,iti,,html-keyboard-response,195,131698,0.0-1.0-272.0,0,0,1,,,,,,,,,,,,,,,,,,,,,,,,,,,,,,,,,,215.0,1.0,,
196,,size_choice,,html-keyboard-response,196,131810,0.0-1.0-274.0,0,0,1,,111.0,,,75.0,68.0,68.0,2.0,2000.0,S-XL,0.0,S,XL,1.0,4.0,screws,dumptruck,screws3,dumptruck4,122.0,173.0,/static/Size_judgement/Stimuli/Size_stims/S/screws/screws7.jpg,/static/Size_judgement/Stimuli/Size_stims/XL/dumptruck/dumptruck1.jpg,0.0,dumptruck,screws,XL,S,4.0,1.0,dumptruck4,screws3,1.0,215.111,0.111,0.0,
197,,size_choice_confirmation,,html-keyboard-response,197,133203,0.0-1.0-275.0-0.0,0,0,1,,,,,,68.0,,,,,,,,,,,,,,,,,,,,,,,,,,,,216.5,1.389,,
198,,iti,,html-keyboard-response,198,133304,0.0-1.0-276.0,0,0,1,,,,,,,,,,,,,,,,,,,,,,,,,,,,,,,,,,218.5,2.0,,
199,,size_choice,,html-keyboard-response,199,133459,0.0-1.0-278.0,0,0,1,,154.0,,,75.0,69.0,69.0,2.0,3000.0,S-XL,0.0,S,XL,1.0,4.0,paperclip,dumptruck,paperclip8,dumptruck7,117.0,176.0,/static/Size_judgement/Stimuli/Size_stims/S/paperclip/paperclip5.jpg,/static/Size_judgement/Stimuli/Size_stims/XL/dumptruck/dumptruck6.jpg,0.0,dumptruck,paperclip,XL,S,4.0,1.0,dumptruck7,paperclip8,1.0,218.65400000000002,0.154,0.0,
200,,size_choice_confirmation,,html-keyboard-response,200,134807,0.0-1.0-279.0-0.0,0,0,1,,,,,,69.0,,,,,,,,,,,,,,,,,,,,,,,,,,,,220.0,1.3459999999999999,,
201,,iti,,html-keyboard-response,201,134907,0.0-1.0-280.0,0,0,1,,,,,,,,,,,,,,,,,,,,,,,,,,,,,,,,,,223.0,3.0,,
202,,size_choice,,html-keyboard-response,202,135074,0.0-1.0-282.0,0,0,1,,166.0,,,75.0,70.0,70.0,2.0,1500.0,S-L,0.0,S,L,1.0,3.0,die,deskchair,die1,deskchair8,100.0,17.0,/static/Size_judgement/Stimuli/Size_stims/S/die/die8.jpg,/static/Size_judgement/Stimuli/Size_stims/L/deskchair/deskchair1.jpg,0.0,deskchair,die,L,S,3.0,1.0,deskchair8,die1,1.0,223.166,0.166,0.0,
203,,size_choice_confirmation,,html-keyboard-response,203,136413,0.0-1.0-283.0-0.0,0,0,1,,,,,,70.0,,,,,,,,,,,,,,,,,,,,,,,,,,,,224.5,1.334,,
204,,iti,,html-keyboard-response,204,136517,0.0-1.0-284.0,0,0,1,,,,,,,,,,,,,,,,,,,,,,,,,,,,,,,,,,226.0,1.5,,
205,,size_choice,,html-keyboard-response,205,136582,0.0-1.0-286.0,0,0,1,,64.0,,,75.0,71.0,71.0,2.0,1500.0,XL-XL,,XL,XL,4.0,4.0,tractor,van,tractor3,van8,182.0,197.0,/static/Size_judgement/Stimuli/Size_stims/XL/tractor/tractor5.jpg,/static/Size_judgement/Stimuli/Size_stims/XL/van/van10.jpg,0.0,van,tractor,XL,XL,4.0,4.0,van8,tractor3,,226.06400000000002,0.064,0.0,
206,,size_choice_confirmation,,html-keyboard-response,206,138020,0.0-1.0-287.0-0.0,0,0,1,,,,,,71.0,,,,,,,,,,,,,,,,,,,,,,,,,,,,227.5,1.436,,
207,,iti,,html-keyboard-response,207,138120,0.0-1.0-288.0,0,0,1,,,,,,,,,,,,,,,,,,,,,,,,,,,,,,,,,,229.0,1.5,,
208,,size_choice,,html-keyboard-response,208,138267,0.0-1.0-290.0,0,0,1,,146.0,,,75.0,72.0,72.0,2.0,1500.0,S-XL,0.0,S,XL,1.0,4.0,paperclip,dumptruck,paperclip4,dumptruck5,113.0,174.0,/static/Size_judgement/Stimuli/Size_stims/S/paperclip/paperclip3.jpg,/static/Size_judgement/Stimuli/Size_stims/XL/dumptruck/dumptruck3.jpg,0.0,dumptruck,paperclip,XL,S,4.0,1.0,dumptruck5,paperclip4,1.0,229.146,0.146,0.0,
209,,size_choice_confirmation,,html-keyboard-response,209,139623,0.0-1.0-291.0-0.0,0,0,1,,,,,,72.0,,,,,,,,,,,,,,,,,,,,,,,,,,,,230.5,1.354,,
210,,iti,,html-keyboard-response,210,139724,0.0-1.0-292.0,0,0,1,,,,,,,,,,,,,,,,,,,,,,,,,,,,,,,,,,232.0,1.5,,
211,,size_choice,,html-keyboard-response,211,141226,0.0-1.0-294.0,0,0,1,,,,,,73.0,73.0,2.0,3000.0,M-L,0.0,M,L,2.0,3.0,coffeemaker,dishwasher,coffeemaker6,dishwasher4,65.0,23.0,/static/Size_judgement/Stimuli/Size_stims/M/coffeemaker/coffeemaker8.jpg,/static/Size_judgement/Stimuli/Size_stims/L/dishwasher/dishwasher5.jpg,,,,,,,,,,,233.5,1.5,1.0,
212,,iti,,html-keyboard-response,212,141327,0.0-1.0-296.0,0,0,1,,,,,,,,,,,,,,,,,,,,,,,,,,,,,,,,,,236.5,3.0,,
213,,size_choice,,html-keyboard-response,213,141569,0.0-1.0-298.0,0,0,1,,242.0,,,75.0,74.0,74.0,2.0,1500.0,S-XL,1.0,XL,S,4.0,1.0,car,die,car1,die9,150.0,108.0,/static/Size_judgement/Stimuli/Size_stims/XL/car/car2.jpg,/static/Size_judgement/Stimuli/Size_stims/S/die/die7.jpg,0.0,die,car,S,XL,1.0,4.0,die9,car1,0.0,236.74200000000002,0.242,0.0,
214,,size_choice_confirmation,,html-keyboard-response,214,142828,0.0-1.0-299.0-0.0,0,0,1,,,,,,74.0,,,,,,,,,,,,,,,,,,,,,,,,,,,,238.0,1.258,,
215,,iti,,html-keyboard-response,215,142934,0.0-1.0-300.0,0,0,1,,,,,,,,,,,,,,,,,,,,,,,,,,,,,,,,,,239.5,1.5,,
216,,size_choice,,html-keyboard-response,216,142944,0.0-1.0-302.0,0,0,1,,10.0,,,75.0,75.0,75.0,2.0,1500.0,M-XL,1.0,XL,M,4.0,2.0,crane,handsaw,crane1,handsaw10,160.0,89.0,/static/Size_judgement/Stimuli/Size_stims/XL/crane/crane7.jpg,/static/Size_judgement/Stimuli/Size_stims/M/handsaw/handsaw10.jpg,0.0,handsaw,crane,M,XL,2.0,4.0,handsaw10,crane1,0.0,239.51,0.01,0.0,
217,,size_choice_confirmation,,html-keyboard-response,217,144437,0.0-1.0-303.0-0.0,0,0,1,,,,,,75.0,,,,,,,,,,,,,,,,,,,,,,,,,,,,241.0,1.49,,
218,,iti,,html-keyboard-response,218,144539,0.0-1.0-304.0,0,0,1,,,,,,,,,,,,,,,,,,,,,,,,,,,,,,,,,,242.5,1.5,,
219,,size_choice,,html-keyboard-response,219,144568,0.0-1.0-306.0,0,0,1,,28.0,,,75.0,76.0,76.0,2.0,1500.0,S-XL,1.0,XL,S,4.0,1.0,tractor,screws,tractor2,screws6,181.0,125.0,/static/Size_judgement/Stimuli/Size_stims/XL/tractor/tractor7.jpg,/static/Size_judgement/Stimuli/Size_stims/S/screws/screws3.jpg,0.0,screws,tractor,S,XL,1.0,4.0,screws6,tractor2,0.0,242.528,0.027999999999999997,0.0,
220,,size_choice_confirmation,,html-keyboard-response,220,146041,0.0-1.0-307.0-0.0,0,0,1,,,,,,76.0,,,,,,,,,,,,,,,,,,,,,,,,,,,,244.0,1.472,,
221,,iti,,html-keyboard-response,221,146145,0.0-1.0-308.0,0,0,1,,,,,,,,,,,,,,,,,,,,,,,,,,,,,,,,,,245.5,1.5,,
222,,size_choice,,html-keyboard-response,222,146177,0.0-1.0-310.0,0,0,1,,32.0,,,75.0,77.0,77.0,2.0,2000.0,M-L,0.0,M,L,2.0,3.0,coffeemaker,deskchair,coffeemaker4,deskchair5,63.0,14.0,/static/Size_judgement/Stimuli/Size_stims/M/coffeemaker/coffeemaker11.jpg,/static/Size_judgement/Stimuli/Size_stims/L/deskchair/deskchair7.jpg,0.0,deskchair,coffeemaker,L,M,3.0,2.0,deskchair5,coffeemaker4,1.0,245.532,0.032,0.0,
223,,size_choice_confirmation,,html-keyboard-response,223,147646,0.0-1.0-311.0-0.0,0,0,1,,,,,,77.0,,,,,,,,,,,,,,,,,,,,,,,,,,,,247.0,1.4680000000000002,,
224,,iti,,html-keyboard-response,224,147750,0.0-1.0-312.0,0,0,1,,,,,,,,,,,,,,,,,,,,,,,,,,,,,,,,,,249.0,2.0,,
225,,size_choice,,html-keyboard-response,225,147777,0.0-1.0-314.0,0,0,1,,26.0,,,75.0,78.0,78.0,2.0,1500.0,M-XL,1.0,XL,M,4.0,2.0,dumptruck,coffeemaker,dumptruck10,coffeemaker10,179.0,69.0,/static/Size_judgement/Stimuli/Size_stims/XL/dumptruck/dumptruck4.jpg,/static/Size_judgement/Stimuli/Size_stims/M/coffeemaker/coffeemaker18.jpg,0.0,coffeemaker,dumptruck,M,XL,2.0,4.0,coffeemaker10,dumptruck10,0.0,249.02599999999998,0.026000000000000002,0.0,
226,,size_choice_confirmation,,html-keyboard-response,226,149255,0.0-1.0-315.0-0.0,0,0,1,,,,,,78.0,,,,,,,,,,,,,,,,,,,,,,,,,,,,250.5,1.474,,
227,,iti,,html-keyboard-response,227,149358,0.0-1.0-316.0,0,0,1,,,,,,,,,,,,,,,,,,,,,,,,,,,,,,,,,,252.0,1.5,,
228,,size_choice,,html-keyboard-response,228,149525,0.0-1.0-318.0,0,0,1,,167.0,,,75.0,79.0,79.0,2.0,1000.0,L-L,,L,L,3.0,3.0,mailbox,cooler,mailbox4,cooler6,43.0,5.0,/static/Size_judgement/Stimuli/Size_stims/L/mailbox/mailbox5.jpg,/static/Size_judgement/Stimuli/Size_stims/L/cooler/cooler1.jpg,0.0,cooler,mailbox,L,L,3.0,3.0,cooler6,mailbox4,,252.167,0.16699999999999998,0.0,
229,,size_choice_confirmation,,html-keyboard-response,229,150863,0.0-1.0-319.0-0.0,0,0,1,,,,,,79.0,,,,,,,,,,,,,,,,,,,,,,,,,,,,253.5,1.3330000000000002,,
230,,iti,,html-keyboard-response,230,150964,0.0-1.0-320.0,0,0,1,,,,,,,,,,,,,,,,,,,,,,,,,,,,,,,,,,254.5,1.0,,
231,,size_choice,,html-keyboard-response,231,151102,0.0-1.0-322.0,0,0,1,,137.0,,,75.0,80.0,80.0,2.0,1000.0,S-M,0.0,S,M,1.0,2.0,die,basketball,die3,basketball3,102.0,52.0,/static/Size_judgement/Stimuli/Size_stims/S/die/die10.jpg,/static/Size_judgement/Stimuli/Size_stims/M/basketball/basketball10.jpg,0.0,basketball,die,M,S,2.0,1.0,basketball3,die3,1.0,254.637,0.13699999999999998,0.0,
232,,size_choice_confirmation,,html-keyboard-response,232,152470,0.0-1.0-323.0-0.0,0,0,1,,,,,,80.0,,,,,,,,,,,,,,,,,,,,,,,,,,,,256.0,1.3630000000000002,,
233,,iti,,html-keyboard-response,233,152572,0.0-1.0-324.0,0,0,1,,,,,,,,,,,,,,,,,,,,,,,,,,,,,,,,,,257.0,1.0,,
234,,size_choice,,html-keyboard-response,234,152639,0.0-1.0-326.0,0,0,1,,67.0,,,75.0,81.0,81.0,2.0,2000.0,S-L,0.0,S,L,1.0,3.0,thread,garbagecan,thread9,garbagecan7,148.0,36.0,/static/Size_judgement/Stimuli/Size_stims/S/thread/thread8.jpg,/static/Size_judgement/Stimuli/Size_stims/L/garbagecan/garbagecan16.jpg,0.0,garbagecan,thread,L,S,3.0,1.0,garbagecan7,thread9,1.0,257.067,0.067,0.0,
235,,size_choice_confirmation,,html-keyboard-response,235,154077,0.0-1.0-327.0-0.0,0,0,1,,,,,,81.0,,,,,,,,,,,,,,,,,,,,,,,,,,,,258.5,1.433,,
236,,iti,,html-keyboard-response,236,154181,0.0-1.0-328.0,0,0,1,,,,,,,,,,,,,,,,,,,,,,,,,,,,,,,,,,260.5,2.0,,
237,,size_choice,,html-keyboard-response,237,154362,0.0-1.0-330.0,0,0,1,,180.0,,,75.0,82.0,82.0,2.0,2000.0,M-XL,1.0,XL,M,4.0,2.0,tractor,basketball,tractor8,basketball8,187.0,57.0,/static/Size_judgement/Stimuli/Size_stims/XL/tractor/tractor10.jpg,/static/Size_judgement/Stimuli/Size_stims/M/basketball/basketball7.jpg,0.0,basketball,tractor,M,XL,2.0,4.0,basketball8,tractor8,0.0,260.68,0.18,0.0,
238,,size_choice_confirmation,,html-keyboard-response,238,155687,0.0-1.0-331.0-0.0,0,0,1,,,,,,82.0,,,,,,,,,,,,,,,,,,,,,,,,,,,,262.0,1.32,,
239,,iti,,html-keyboard-response,239,155792,0.0-1.0-332.0,0,0,1,,,,,,,,,,,,,,,,,,,,,,,,,,,,,,,,,,264.0,2.0,,
240,,size_choice,,html-keyboard-response,240,155886,0.0-1.0-334.0,0,0,1,,93.0,,,75.0,83.0,83.0,2.0,1000.0,S-XL,0.0,S,XL,1.0,4.0,screws,van,screws2,van3,121.0,192.0,/static/Size_judgement/Stimuli/Size_stims/S/screws/screws5.jpg,/static/Size_judgement/Stimuli/Size_stims/XL/van/van6.jpg,0.0,van,screws,XL,S,4.0,1.0,van3,screws2,1.0,264.093,0.09300000000000001,0.0,
241,,size_choice_confirmation,,html-keyboard-response,241,157296,0.0-1.0-335.0-0.0,0,0,1,,,,,,83.0,,,,,,,,,,,,,,,,,,,,,,,,,,,,265.5,1.4069999999999998,,
242,,iti,,html-keyboard-response,242,157400,0.0-1.0-336.0,0,0,1,,,,,,,,,,,,,,,,,,,,,,,,,,,,,,,,,,266.5,1.0,,
243,,size_choice,,html-keyboard-response,243,157865,0.0-1.0-338.0,0,0,1,,463.0,,,75.0,84.0,84.0,2.0,1000.0,L-L,,L,L,3.0,3.0,cooler,dishwasher,cooler3,dishwasher9,2.0,28.0,/static/Size_judgement/Stimuli/Size_stims/L/cooler/cooler2.jpg,/static/Size_judgement/Stimuli/Size_stims/L/dishwasher/dishwasher2.jpg,0.0,dishwasher,cooler,L,L,3.0,3.0,dishwasher9,cooler3,,266.96299999999997,0.46299999999999997,0.0,
244,,size_choice_confirmation,,html-keyboard-response,244,158904,0.0-1.0-339.0-0.0,0,0,1,,,,,,84.0,,,,,,,,,,,,,,,,,,,,,,,,,,,,268.0,1.037,,
245,,iti,,html-keyboard-response,245,159007,0.0-1.0-340.0,0,0,1,,,,,,,,,,,,,,,,,,,,,,,,,,,,,,,,,,269.0,1.0,,
246,,size_choice,,html-keyboard-response,246,159382,0.0-1.0-342.0,0,0,1,,374.0,,,75.0,85.0,85.0,2.0,1000.0,M-M,,M,M,2.0,2.0,hairdryer,handsaw,hairdryer10,handsaw2,79.0,81.0,/static/Size_judgement/Stimuli/Size_stims/M/hairdryer/hairdryer6.jpg,/static/Size_judgement/Stimuli/Size_stims/M/handsaw/handsaw9.jpg,0.0,handsaw,hairdryer,M,M,2.0,2.0,handsaw2,hairdryer10,,269.374,0.374,0.0,
247,,size_choice_confirmation,,html-keyboard-response,247,160510,0.0-1.0-343.0-0.0,0,0,1,,,,,,85.0,,,,,,,,,,,,,,,,,,,,,,,,,,,,270.5,1.126,,
248,,iti,,html-keyboard-response,248,160612,0.0-1.0-344.0,0,0,1,,,,,,,,,,,,,,,,,,,,,,,,,,,,,,,,,,271.5,1.0,,
249,,size_choice,,html-keyboard-response,249,160666,0.0-1.0-346.0,0,0,1,,53.0,,,75.0,86.0,86.0,2.0,1000.0,L-XL,0.0,L,XL,3.0,4.0,garbagecan,crane,garbagecan6,crane2,35.0,161.0,/static/Size_judgement/Stimuli/Size_stims/L/garbagecan/garbagecan14.jpg,/static/Size_judgement/Stimuli/Size_stims/XL/crane/crane6.jpg,0.0,crane,garbagecan,XL,L,4.0,3.0,crane2,garbagecan6,1.0,271.553,0.053,0.0,
250,,size_choice_confirmation,,html-keyboard-response,250,162117,0.0-1.0-347.0-0.0,0,0,1,,,,,,86.0,,,,,,,,,,,,,,,,,,,,,,,,,,,,273.0,1.4469999999999998,,
251,,iti,,html-keyboard-response,251,162220,0.0-1.0-348.0,0,0,1,,,,,,,,,,,,,,,,,,,,,,,,,,,,,,,,,,274.0,1.0,,
252,,size_choice,,html-keyboard-response,252,162409,0.0-1.0-350.0,0,0,1,,188.0,,,75.0,87.0,87.0,2.0,1000.0,XL-XL,,XL,XL,4.0,4.0,car,tractor,car2,tractor10,151.0,189.0,/static/Size_judgement/Stimuli/Size_stims/XL/car/car3.jpg,/static/Size_judgement/Stimuli/Size_stims/XL/tractor/tractor8.jpg,0.0,tractor,car,XL,XL,4.0,4.0,tractor10,car2,,274.188,0.188,0.0,
253,,size_choice_confirmation,,html-keyboard-response,253,163723,0.0-1.0-351.0-0.0,0,0,1,,,,,,87.0,,,,,,,,,,,,,,,,,,,,,,,,,,,,275.5,1.3119999999999998,,
254,,iti,,html-keyboard-response,254,163828,0.0-1.0-352.0,0,0,1,,,,,,,,,,,,,,,,,,,,,,,,,,,,,,,,,,276.5,1.0,,
255,,size_choice,,html-keyboard-response,255,163956,0.0-1.0-354.0,0,0,1,,126.0,,,75.0,88.0,88.0,2.0,1000.0,S-L,1.0,L,S,3.0,1.0,deskchair,screws,deskchair7,screws10,16.0,129.0,/static/Size_judgement/Stimuli/Size_stims/L/deskchair/deskchair4.jpg,/static/Size_judgement/Stimuli/Size_stims/S/screws/screws9.jpg,0.0,screws,deskchair,S,L,1.0,3.0,screws10,deskchair7,0.0,276.626,0.126,0.0,
256,,size_choice_confirmation,,html-keyboard-response,256,165333,0.0-1.0-355.0-0.0,0,0,1,,,,,,88.0,,,,,,,,,,,,,,,,,,,,,,,,,,,,278.0,1.374,,
257,,iti,,html-keyboard-response,257,165437,0.0-1.0-356.0,0,0,1,,,,,,,,,,,,,,,,,,,,,,,,,,,,,,,,,,279.0,1.0,,
258,,size_choice,,html-keyboard-response,258,166575,0.0-1.0-358.0,0,0,1,,1137.0,,,75.0,89.0,89.0,2.0,3500.0,S-L,1.0,L,S,3.0,1.0,garbagecan,teabag,garbagecan1,teabag4,30.0,133.0,/static/Size_judgement/Stimuli/Size_stims/L/garbagecan/garbagecan4.jpg,/static/Size_judgement/Stimuli/Size_stims/S/teabag/teabag3.jpg,0.0,teabag,garbagecan,S,L,1.0,3.0,teabag4,garbagecan1,0.0,280.137,1.137,0.0,
259,,size_choice_confirmation,,html-keyboard-response,259,166940,0.0-1.0-359.0-0.0,0,0,1,,,,,,89.0,,,,,,,,,,,,,,,,,,,,,,,,,,,,280.5,0.363,,
260,,iti,,html-keyboard-response,260,167044,0.0-1.0-360.0,0,0,1,,,,,,,,,,,,,,,,,,,,,,,,,,,,,,,,,,284.0,3.5,,0.37
261,,size_final_tally,,html-keyboard-response,261,210395,0.0-2.0,0,0,1,,43350.0,,,68.0,,,,,,,,,,,,,,,,,,,,,,,,,,,,,,,,
