,success,ttype,start_time,trial_type,trial_index,time_elapsed,internal_node_id,warning,missed_checkup,PID,view_history,rt,responses,repeat_instructions,key_press,index,trial_num,block,iti,pair_type,high_size_on_left,left_size_group,right_size_group,left_size_num,right_size_num,left_category,right_category,left_exemplar,right_exemplar,left_index,right_index,left_img_path,right_img_path,left_chosen,chosen_category,unchosen_category,chosen_size_group,unchosen_size_group,chosen_size_num,unchosen_size_num,chosen_exemplar,unchosen_exemplar,accuracy,onset,duration,no_response,size_final_tally
0,True,full_screen,d06012022hr1948,fullscreen,0,3967,0.0-0.0,0,0,85937,,,,,,,,,,,,,,,,,,,,,,,,,,,,,,,,,,,,,
1,,size_instructions,,instructions,1,6049,0.0-1.0-0.0-0.0,0,0,85937,"[{""page_index"":0,""viewing_time"":1348},{""page_index"":1,""viewing_time"":150},{""page_index"":2,""viewing_time"":150},{""page_index"":3,""viewing_time"":150},{""page_index"":4,""viewing_time"":133},{""page_index"":5,""viewing_time"":151}]",2082.0,,,,,,,,,,,,,,,,,,,,,,,,,,,,,,,,,,,
2,,size_comprehension_check,,survey-multi-choice,2,12016,0.0-1.0-0.0-1.0,0,0,85937,,5964.0,"{""Q0"":""True"",""Q1"":""Size on the screen"",""Q2"":""True"",""Q3"":""D for left and K for right""}",1.0,,,,,,,,,,,,,,,,,,,,,,,,,,,,,,,,,
3,,missed_instruction_checkup,,html-keyboard-response,3,13217,0.0-1.0-0.0-2.0-0.0,0,1,85937,,1199.0,,,68.0,,,,,,,,,,,,,,,,,,,,,,,,,,,,,,,,
4,,size_instructions,,instructions,4,15379,0.0-1.0-0.1-0.1,0,0,85937,"[{""page_index"":0,""viewing_time"":1180},{""page_index"":1,""viewing_time"":236},{""page_index"":2,""viewing_time"":180},{""page_index"":3,""viewing_time"":166},{""page_index"":4,""viewing_time"":168},{""page_index"":5,""viewing_time"":231}]",2161.0,,,,,,,,,,,,,,,,,,,,,,,,,,,,,,,,,,,
5,,size_comprehension_check,,survey-multi-choice,5,21383,0.0-1.0-0.1-1.1,0,0,85937,,6002.0,"{""Q0"":""True"",""Q1"":""Size in the real world"",""Q2"":""True"",""Q3"":""D for left and K for right""}",0.0,,,,,,,,,,,,,,,,,,,,,,,,,,,,,,,,,
6,,,,html-keyboard-response,6,22470,0.0-1.0-1.0,0,0,85937,,1087.0,,,68.0,,,,,,,,,,,,,,,,,,,,,,,,,,,,,,,,
7,,size_choice,,html-keyboard-response,7,22983,0.0-1.0-2.0,0,0,85937,,512.0,,,68.0,0.0,0.0,1.0,1500.0,S-M,1.0,M,S,2.0,1.0,hairdryer,paperclip,hairdryer8,paperclip1,77.0,110.0,/static/Size_judgement/Stimuli/Size_stims/M/hairdryer/hairdryer1.jpg,/static/Size_judgement/Stimuli/Size_stims/S/paperclip/paperclip9.jpg,1.0,hairdryer,paperclip,M,S,2.0,1.0,hairdryer8,paperclip1,1.0,0.512,0.512,0.0,
8,,size_choice_confirmation,,html-keyboard-response,8,23977,0.0-1.0-3.0-0.0,0,0,85937,,,,,,0.0,,,,,,,,,,,,,,,,,,,,,,,,,,,,1.5,0.988,,
9,,iti,,html-keyboard-response,9,24079,0.0-1.0-4.0,0,0,85937,,,,,,,,,,,,,,,,,,,,,,,,,,,,,,,,,,3.0,1.5,,
10,,size_choice,,html-keyboard-response,10,24310,0.0-1.0-6.0,0,0,85937,,230.0,,,68.0,1.0,1.0,1.0,1000.0,S-XL,0.0,S,XL,1.0,4.0,die,van,die5,van5,104.0,194.0,/static/Size_judgement/Stimuli/Size_stims/S/die/die3.jpg,/static/Size_judgement/Stimuli/Size_stims/XL/van/van3.jpg,1.0,die,van,S,XL,1.0,4.0,die5,van5,0.0,3.23,0.23,0.0,
11,,size_choice_confirmation,,html-keyboard-response,11,25583,0.0-1.0-7.0-0.0,0,0,85937,,,,,,1.0,,,,,,,,,,,,,,,,,,,,,,,,,,,,4.5,1.27,,
12,,iti,,html-keyboard-response,12,25687,0.0-1.0-8.0,0,0,85937,,,,,,,,,,,,,,,,,,,,,,,,,,,,,,,,,,5.5,1.0,,
13,,size_choice,,html-keyboard-response,13,26459,0.0-1.0-10.0,0,0,85937,,772.0,,,68.0,2.0,2.0,1.0,1000.0,S-L,1.0,L,S,3.0,1.0,dishwasher,thread,dishwasher8,thread1,27.0,140.0,/static/Size_judgement/Stimuli/Size_stims/L/dishwasher/dishwasher3.jpg,/static/Size_judgement/Stimuli/Size_stims/S/thread/thread7.jpg,1.0,dishwasher,thread,L,S,3.0,1.0,dishwasher8,thread1,1.0,6.272,0.772,0.0,
14,,size_choice_confirmation,,html-keyboard-response,14,27190,0.0-1.0-11.0-0.0,0,0,85937,,,,,,2.0,,,,,,,,,,,,,,,,,,,,,,,,,,,,7.0,0.728,,
15,,iti,,html-keyboard-response,15,27291,0.0-1.0-12.0,0,0,85937,,,,,,,,,,,,,,,,,,,,,,,,,,,,,,,,,,8.0,1.0,,
16,,size_choice,,html-keyboard-response,16,27953,0.0-1.0-14.0,0,0,85937,,662.0,,,68.0,3.0,3.0,1.0,1500.0,M-XL,1.0,XL,M,4.0,2.0,van,basketball,van4,basketball9,193.0,58.0,/static/Size_judgement/Stimuli/Size_stims/XL/van/van7.jpg,/static/Size_judgement/Stimuli/Size_stims/M/basketball/basketball5.jpg,1.0,van,basketball,XL,M,4.0,2.0,van4,basketball9,1.0,8.662,0.662,0.0,
17,,size_choice_confirmation,,html-keyboard-response,17,28796,0.0-1.0-15.0-0.0,0,0,85937,,,,,,3.0,,,,,,,,,,,,,,,,,,,,,,,,,,,,9.5,0.838,,
18,,iti,,html-keyboard-response,18,28900,0.0-1.0-16.0,0,0,85937,,,,,,,,,,,,,,,,,,,,,,,,,,,,,,,,,,11.0,1.5,,
19,,size_choice,,html-keyboard-response,19,29596,0.0-1.0-18.0,0,0,85937,,695.0,,,68.0,4.0,4.0,1.0,1500.0,M-XL,1.0,XL,M,4.0,2.0,crane,handsaw,crane4,handsaw4,163.0,83.0,/static/Size_judgement/Stimuli/Size_stims/XL/crane/crane5.jpg,/static/Size_judgement/Stimuli/Size_stims/M/handsaw/handsaw3.jpg,1.0,crane,handsaw,XL,M,4.0,2.0,crane4,handsaw4,1.0,11.695,0.695,0.0,
20,,size_choice_confirmation,,html-keyboard-response,20,30402,0.0-1.0-19.0-0.0,0,0,85937,,,,,,4.0,,,,,,,,,,,,,,,,,,,,,,,,,,,,12.5,0.805,,
21,,iti,,html-keyboard-response,21,30507,0.0-1.0-20.0,0,0,85937,,,,,,,,,,,,,,,,,,,,,,,,,,,,,,,,,,14.0,1.5,,
22,,size_choice,,html-keyboard-response,22,31706,0.0-1.0-22.0,0,0,85937,,1198.0,,,68.0,5.0,5.0,1.0,1000.0,M-L,1.0,L,M,3.0,2.0,deskchair,handsaw,deskchair9,handsaw9,18.0,88.0,/static/Size_judgement/Stimuli/Size_stims/L/deskchair/deskchair3.jpg,/static/Size_judgement/Stimuli/Size_stims/M/handsaw/handsaw6.jpg,1.0,deskchair,handsaw,L,M,3.0,2.0,deskchair9,handsaw9,1.0,15.198,1.198,0.0,
23,,size_choice_confirmation,,html-keyboard-response,23,32013,0.0-1.0-23.0-0.0,0,0,85937,,,,,,5.0,,,,,,,,,,,,,,,,,,,,,,,,,,,,15.5,0.302,,
24,,iti,,html-keyboard-response,24,32117,0.0-1.0-24.0,0,0,85937,,,,,,,,,,,,,,,,,,,,,,,,,,,,,,,,,,16.5,1.0,,
25,,size_choice,,html-keyboard-response,25,32548,0.0-1.0-26.0,0,0,85937,,430.0,,,68.0,6.0,6.0,1.0,1500.0,M-L,0.0,M,L,2.0,3.0,coffeemaker,mailbox,coffeemaker7,mailbox7,66.0,46.0,/static/Size_judgement/Stimuli/Size_stims/M/coffeemaker/coffeemaker9.jpg,/static/Size_judgement/Stimuli/Size_stims/L/mailbox/mailbox7.jpg,1.0,coffeemaker,mailbox,M,L,2.0,3.0,coffeemaker7,mailbox7,0.0,16.93,0.43,0.0,
26,,size_choice_confirmation,,html-keyboard-response,26,33620,0.0-1.0-27.0-0.0,0,0,85937,,,,,,6.0,,,,,,,,,,,,,,,,,,,,,,,,,,,,18.0,1.07,,
27,,iti,,html-keyboard-response,27,33725,0.0-1.0-28.0,0,0,85937,,,,,,,,,,,,,,,,,,,,,,,,,,,,,,,,,,19.5,1.5,,
28,,size_choice,,html-keyboard-response,28,33749,0.0-1.0-30.0,0,0,85937,,23.0,,,68.0,7.0,7.0,1.0,1500.0,M-L,1.0,L,M,3.0,2.0,deskchair,ketchup,deskchair10,ketchup3,19.0,92.0,/static/Size_judgement/Stimuli/Size_stims/L/deskchair/deskchair2.jpg,/static/Size_judgement/Stimuli/Size_stims/M/ketchup/ketchup10.jpg,1.0,deskchair,ketchup,L,M,3.0,2.0,deskchair10,ketchup3,1.0,19.523,0.023,0.0,
29,,size_choice_confirmation,,html-keyboard-response,29,35227,0.0-1.0-31.0-0.0,0,0,85937,,,,,,7.0,,,,,,,,,,,,,,,,,,,,,,,,,,,,21.0,1.477,,
30,,iti,,html-keyboard-response,30,35328,0.0-1.0-32.0,0,0,85937,,,,,,,,,,,,,,,,,,,,,,,,,,,,,,,,,,22.5,1.5,,
31,,size_choice,,html-keyboard-response,31,35360,0.0-1.0-34.0,0,0,85937,,30.0,,,75.0,8.0,8.0,1.0,2000.0,S-L,1.0,L,S,3.0,1.0,cooler,paperclip,cooler8,paperclip3,7.0,112.0,/static/Size_judgement/Stimuli/Size_stims/L/cooler/cooler5.jpg,/static/Size_judgement/Stimuli/Size_stims/S/paperclip/paperclip1.jpg,0.0,paperclip,cooler,S,L,1.0,3.0,paperclip3,cooler8,0.0,22.53,0.03,0.0,
32,,size_choice_confirmation,,html-keyboard-response,32,36834,0.0-1.0-35.0-0.0,0,0,85937,,,,,,8.0,,,,,,,,,,,,,,,,,,,,,,,,,,,,24.0,1.47,,
33,,iti,,html-keyboard-response,33,36936,0.0-1.0-36.0,0,0,85937,,,,,,,,,,,,,,,,,,,,,,,,,,,,,,,,,,26.0,2.0,,
34,,size_choice,,html-keyboard-response,34,37082,0.0-1.0-38.0,0,0,85937,,146.0,,,68.0,9.0,9.0,1.0,1500.0,M-L,0.0,M,L,2.0,3.0,basketball,garbagecan,basketball10,garbagecan5,59.0,34.0,/static/Size_judgement/Stimuli/Size_stims/M/basketball/basketball4.jpg,/static/Size_judgement/Stimuli/Size_stims/L/garbagecan/garbagecan3.jpg,1.0,basketball,garbagecan,M,L,2.0,3.0,basketball10,garbagecan5,0.0,26.146,0.146,0.0,
35,,size_choice_confirmation,,html-keyboard-response,35,38439,0.0-1.0-39.0-0.0,0,0,85937,,,,,,9.0,,,,,,,,,,,,,,,,,,,,,,,,,,,,27.5,1.354,,
36,,iti,,html-keyboard-response,36,38541,0.0-1.0-40.0,0,0,85937,,,,,,,,,,,,,,,,,,,,,,,,,,,,,,,,,,29.0,1.5,,
37,,size_choice,,html-keyboard-response,37,38632,0.0-1.0-42.0,0,0,85937,,89.0,,,68.0,10.0,10.0,1.0,2000.0,S-L,1.0,L,S,3.0,1.0,dishwasher,teabag,dishwasher1,teabag5,20.0,134.0,/static/Size_judgement/Stimuli/Size_stims/L/dishwasher/dishwasher10.jpg,/static/Size_judgement/Stimuli/Size_stims/S/teabag/teabag2.jpg,1.0,dishwasher,teabag,L,S,3.0,1.0,dishwasher1,teabag5,1.0,29.089,0.089,0.0,
38,,size_choice_confirmation,,html-keyboard-response,38,40045,0.0-1.0-43.0-0.0,0,0,85937,,,,,,10.0,,,,,,,,,,,,,,,,,,,,,,,,,,,,30.5,1.411,,
39,,iti,,html-keyboard-response,39,40150,0.0-1.0-44.0,0,0,85937,,,,,,,,,,,,,,,,,,,,,,,,,,,,,,,,,,32.5,2.0,,
40,,size_choice,,html-keyboard-response,40,40272,0.0-1.0-46.0,0,0,85937,,120.0,,,68.0,11.0,11.0,1.0,1000.0,S-S,,S,S,1.0,1.0,thread,die,thread10,die4,149.0,103.0,/static/Size_judgement/Stimuli/Size_stims/S/thread/thread9.jpg,/static/Size_judgement/Stimuli/Size_stims/S/die/die2.jpg,1.0,thread,die,S,S,1.0,1.0,thread10,die4,,32.62,0.12,0.0,
41,,size_choice_confirmation,,html-keyboard-response,41,41652,0.0-1.0-47.0-0.0,0,0,85937,,,,,,11.0,,,,,,,,,,,,,,,,,,,,,,,,,,,,34.0,1.38,,
42,,iti,,html-keyboard-response,42,41757,0.0-1.0-48.0,0,0,85937,,,,,,,,,,,,,,,,,,,,,,,,,,,,,,,,,,35.0,1.0,,
43,,size_choice,,html-keyboard-response,43,43261,0.0-1.0-50.0,0,0,85937,,,,,,12.0,12.0,1.0,1000.0,S-XL,0.0,S,XL,1.0,4.0,teabag,crane,teabag6,crane6,135.0,165.0,/static/Size_judgement/Stimuli/Size_stims/S/teabag/teabag6.jpg,/static/Size_judgement/Stimuli/Size_stims/XL/crane/crane2.jpg,,,,,,,,,,,36.5,1.5,1.0,
44,,iti,,html-keyboard-response,44,43363,0.0-1.0-52.0,0,0,85937,,,,,,,,,,,,,,,,,,,,,,,,,,,,,,,,,,37.5,1.0,,
45,,size_choice,,html-keyboard-response,45,44867,0.0-1.0-54.0,0,0,85937,,,,,,13.0,13.0,1.0,1500.0,S-M,0.0,S,M,1.0,2.0,paperclip,ketchup,paperclip2,ketchup7,111.0,96.0,/static/Size_judgement/Stimuli/Size_stims/S/paperclip/paperclip8.jpg,/static/Size_judgement/Stimuli/Size_stims/M/ketchup/ketchup4.jpg,,,,,,,,,,,39.0,1.5,1.0,
46,,iti,,html-keyboard-response,46,44970,0.0-1.0-56.0,0,0,85937,,,,,,,,,,,,,,,,,,,,,,,,,,,,,,,,,,40.5,1.5,,
47,,size_choice,,html-keyboard-response,47,47001,0.0-1.0-58.0,0,0,85937,,,,,,14.0,14.0,1.0,2000.0,S-L,0.0,S,L,1.0,3.0,thread,garbagecan,thread6,garbagecan8,145.0,37.0,/static/Size_judgement/Stimuli/Size_stims/S/thread/thread2.jpg,/static/Size_judgement/Stimuli/Size_stims/L/garbagecan/garbagecan13.jpg,,,,,,,,,,,42.0,1.5,1.0,
48,,iti,,html-keyboard-response,48,47106,0.0-1.0-60.0,0,0,85937,,,,,,,,,,,,,,,,,,,,,,,,,,,,,,,,,,44.0,2.0,,
49,,size_choice,,html-keyboard-response,49,48611,0.0-1.0-62.0,0,0,85937,,,,,,15.0,15.0,1.0,1000.0,S-L,0.0,S,L,1.0,3.0,screws,dishwasher,screws4,dishwasher2,123.0,21.0,/static/Size_judgement/Stimuli/Size_stims/S/screws/screws6.jpg,/static/Size_judgement/Stimuli/Size_stims/L/dishwasher/dishwasher9.jpg,,,,,,,,,,,45.5,1.5,1.0,
50,,iti,,html-keyboard-response,50,48711,0.0-1.0-64.0,0,0,85937,,,,,,,,,,,,,,,,,,,,,,,,,,,,,,,,,,46.5,1.0,,
51,,size_choice,,html-keyboard-response,51,50217,0.0-1.0-66.0,0,0,85937,,,,,,16.0,16.0,1.0,3000.0,XL-XL,,XL,XL,4.0,4.0,dumptruck,crane,dumptruck9,crane9,178.0,168.0,/static/Size_judgement/Stimuli/Size_stims/XL/dumptruck/dumptruck5.jpg,/static/Size_judgement/Stimuli/Size_stims/XL/crane/crane8.jpg,,,,,,,,,,,48.0,1.5,1.0,
52,,iti,,html-keyboard-response,52,50318,0.0-1.0-68.0,0,0,85937,,,,,,,,,,,,,,,,,,,,,,,,,,,,,,,,,,51.0,3.0,,
53,,size_choice,,html-keyboard-response,53,50470,0.0-1.0-70.0,0,0,85937,,151.0,,,68.0,17.0,17.0,1.0,1000.0,L-L,,L,L,3.0,3.0,deskchair,mailbox,deskchair2,mailbox5,11.0,44.0,/static/Size_judgement/Stimuli/Size_stims/L/deskchair/deskchair8.jpg,/static/Size_judgement/Stimuli/Size_stims/L/mailbox/mailbox4.jpg,1.0,deskchair,mailbox,L,L,3.0,3.0,deskchair2,mailbox5,,51.151,0.151,0.0,
54,,size_choice_confirmation,,html-keyboard-response,54,51821,0.0-1.0-71.0-0.0,0,0,85937,,,,,,17.0,,,,,,,,,,,,,,,,,,,,,,,,,,,,52.5,1.349,,
55,,iti,,html-keyboard-response,55,51922,0.0-1.0-72.0,0,0,85937,,,,,,,,,,,,,,,,,,,,,,,,,,,,,,,,,,53.5,1.0,,
56,,size_choice,,html-keyboard-response,56,51937,0.0-1.0-74.0,0,0,85937,,14.0,,,68.0,18.0,18.0,1.0,3000.0,M-XL,1.0,XL,M,4.0,2.0,van,coffeemaker,van2,coffeemaker8,191.0,67.0,/static/Size_judgement/Stimuli/Size_stims/XL/van/van4.jpg,/static/Size_judgement/Stimuli/Size_stims/M/coffeemaker/coffeemaker5.jpg,1.0,van,coffeemaker,XL,M,4.0,2.0,van2,coffeemaker8,1.0,53.514,0.014,0.0,
57,,size_choice_confirmation,,html-keyboard-response,57,53426,0.0-1.0-75.0-0.0,0,0,85937,,,,,,18.0,,,,,,,,,,,,,,,,,,,,,,,,,,,,55.0,1.486,,
58,,iti,,html-keyboard-response,58,53527,0.0-1.0-76.0,0,0,85937,,,,,,,,,,,,,,,,,,,,,,,,,,,,,,,,,,58.0,3.0,,
59,,size_choice,,html-keyboard-response,59,53718,0.0-1.0-78.0,0,0,85937,,190.0,,,68.0,19.0,19.0,1.0,1000.0,M-XL,1.0,XL,M,4.0,2.0,tractor,handsaw,tractor6,handsaw1,185.0,80.0,/static/Size_judgement/Stimuli/Size_stims/XL/tractor/tractor3.jpg,/static/Size_judgement/Stimuli/Size_stims/M/handsaw/handsaw8.jpg,1.0,tractor,handsaw,XL,M,4.0,2.0,tractor6,handsaw1,1.0,58.19,0.19,0.0,
60,,size_choice_confirmation,,html-keyboard-response,60,55094,0.0-1.0-79.0-0.0,0,0,85937,,,,,,19.0,,,,,,,,,,,,,,,,,,,,,,,,,,,,59.5,1.31,,
61,,iti,,html-keyboard-response,61,55503,0.0-1.0-80.0,0,0,85937,,,,,,,,,,,,,,,,,,,,,,,,,,,,,,,,,,60.5,1.0,,
62,,size_choice,,html-keyboard-response,62,57006,0.0-1.0-82.0,0,0,85937,,,,,,20.0,20.0,1.0,1000.0,M-XL,0.0,M,XL,2.0,4.0,hairdryer,van,hairdryer9,van1,78.0,190.0,/static/Size_judgement/Stimuli/Size_stims/M/hairdryer/hairdryer5.jpg,/static/Size_judgement/Stimuli/Size_stims/XL/van/van5.jpg,,,,,,,,,,,62.0,1.5,1.0,
63,,iti,,html-keyboard-response,63,57112,0.0-1.0-84.0,0,0,85937,,,,,,,,,,,,,,,,,,,,,,,,,,,,,,,,,,63.0,1.0,,
64,,size_choice,,html-keyboard-response,64,58620,0.0-1.0-86.0,0,0,85937,,,,,,21.0,21.0,1.0,1000.0,S-M,0.0,S,M,1.0,2.0,die,hairdryer,die6,hairdryer4,105.0,73.0,/static/Size_judgement/Stimuli/Size_stims/S/die/die1.jpg,/static/Size_judgement/Stimuli/Size_stims/M/hairdryer/hairdryer16.jpg,,,,,,,,,,,64.5,1.5,1.0,
65,,iti,,html-keyboard-response,65,58723,0.0-1.0-88.0,0,0,85937,,,,,,,,,,,,,,,,,,,,,,,,,,,,,,,,,,65.5,1.0,,
66,,size_choice,,html-keyboard-response,66,60227,0.0-1.0-90.0,0,0,85937,,,,,,22.0,22.0,1.0,1000.0,S-L,1.0,L,S,3.0,1.0,mailbox,teabag,mailbox3,teabag8,42.0,137.0,/static/Size_judgement/Stimuli/Size_stims/L/mailbox/mailbox1.jpg,/static/Size_judgement/Stimuli/Size_stims/S/teabag/teabag7.jpg,,,,,,,,,,,67.0,1.5,1.0,
67,,iti,,html-keyboard-response,67,60331,0.0-1.0-92.0,0,0,85937,,,,,,,,,,,,,,,,,,,,,,,,,,,,,,,,,,68.0,1.0,,
68,,size_choice,,html-keyboard-response,68,61836,0.0-1.0-94.0,0,0,85937,,,,,,23.0,23.0,1.0,1500.0,M-XL,1.0,XL,M,4.0,2.0,tractor,basketball,tractor4,basketball4,183.0,53.0,/static/Size_judgement/Stimuli/Size_stims/XL/tractor/tractor4.jpg,/static/Size_judgement/Stimuli/Size_stims/M/basketball/basketball1.jpg,,,,,,,,,,,69.5,1.5,1.0,
69,,iti,,html-keyboard-response,69,61938,0.0-1.0-96.0,0,0,85937,,,,,,,,,,,,,,,,,,,,,,,,,,,,,,,,,,71.0,1.5,,
70,,size_choice,,html-keyboard-response,70,63444,0.0-1.0-98.0,0,0,85937,,,,,,24.0,24.0,1.0,2000.0,S-XL,1.0,XL,S,4.0,1.0,dumptruck,die,dumptruck6,die8,175.0,107.0,/static/Size_judgement/Stimuli/Size_stims/XL/dumptruck/dumptruck2.jpg,/static/Size_judgement/Stimuli/Size_stims/S/die/die5.jpg,,,,,,,,,,,72.5,1.5,1.0,
71,,iti,,html-keyboard-response,71,63549,0.0-1.0-100.0,0,0,85937,,,,,,,,,,,,,,,,,,,,,,,,,,,,,,,,,,74.5,2.0,,
72,,size_choice,,html-keyboard-response,72,65053,0.0-1.0-102.0,0,0,85937,,,,,,25.0,25.0,1.0,1000.0,S-XL,1.0,XL,S,4.0,1.0,van,die,van10,die10,199.0,109.0,/static/Size_judgement/Stimuli/Size_stims/XL/van/van8.jpg,/static/Size_judgement/Stimuli/Size_stims/S/die/die6.jpg,,,,,,,,,,,76.0,1.5,1.0,
73,,iti,,html-keyboard-response,73,65156,0.0-1.0-104.0,0,0,85937,,,,,,,,,,,,,,,,,,,,,,,,,,,,,,,,,,77.0,1.0,,
74,,size_choice,,html-keyboard-response,74,66658,0.0-1.0-106.0,0,0,85937,,,,,,26.0,26.0,1.0,2000.0,M-M,,M,M,2.0,2.0,coffeemaker,hairdryer,coffeemaker5,hairdryer1,64.0,70.0,/static/Size_judgement/Stimuli/Size_stims/M/coffeemaker/coffeemaker10.jpg,/static/Size_judgement/Stimuli/Size_stims/M/hairdryer/hairdryer11.jpg,,,,,,,,,,,78.5,1.5,1.0,
75,,iti,,html-keyboard-response,75,66763,0.0-1.0-108.0,0,0,85937,,,,,,,,,,,,,,,,,,,,,,,,,,,,,,,,,,80.5,2.0,,
76,,size_choice,,html-keyboard-response,76,68267,0.0-1.0-110.0,0,0,85937,,,,,,27.0,27.0,1.0,3000.0,XL-XL,,XL,XL,4.0,4.0,car,dumptruck,car7,dumptruck2,156.0,171.0,/static/Size_judgement/Stimuli/Size_stims/XL/car/car13.jpg,/static/Size_judgement/Stimuli/Size_stims/XL/dumptruck/dumptruck8.jpg,,,,,,,,,,,82.0,1.5,1.0,
77,,iti,,html-keyboard-response,77,68370,0.0-1.0-112.0,0,0,85937,,,,,,,,,,,,,,,,,,,,,,,,,,,,,,,,,,85.0,3.0,,
78,,size_choice,,html-keyboard-response,78,69874,0.0-1.0-114.0,0,0,85937,,,,,,28.0,28.0,1.0,1000.0,M-L,1.0,L,M,3.0,2.0,mailbox,ketchup,mailbox2,ketchup6,41.0,95.0,/static/Size_judgement/Stimuli/Size_stims/L/mailbox/mailbox2.jpg,/static/Size_judgement/Stimuli/Size_stims/M/ketchup/ketchup1.jpg,,,,,,,,,,,86.5,1.5,1.0,
79,,iti,,html-keyboard-response,79,69979,0.0-1.0-116.0,0,0,85937,,,,,,,,,,,,,,,,,,,,,,,,,,,,,,,,,,87.5,1.0,,
80,,size_choice,,html-keyboard-response,80,71484,0.0-1.0-118.0,0,0,85937,,,,,,29.0,29.0,1.0,3500.0,L-XL,1.0,XL,L,4.0,3.0,van,cooler,van7,cooler5,196.0,4.0,/static/Size_judgement/Stimuli/Size_stims/XL/van/van1.jpg,/static/Size_judgement/Stimuli/Size_stims/L/cooler/cooler10.jpg,,,,,,,,,,,89.0,1.5,1.0,
81,,iti,,html-keyboard-response,81,71588,0.0-1.0-120.0,0,0,85937,,,,,,,,,,,,,,,,,,,,,,,,,,,,,,,,,,92.5,3.5,,
82,,size_choice,,html-keyboard-response,82,73094,0.0-1.0-122.0,0,0,85937,,,,,,30.0,30.0,1.0,1000.0,S-S,,S,S,1.0,1.0,paperclip,teabag,paperclip9,teabag2,118.0,131.0,/static/Size_judgement/Stimuli/Size_stims/S/paperclip/paperclip4.jpg,/static/Size_judgement/Stimuli/Size_stims/S/teabag/teabag8.jpg,,,,,,,,,,,94.0,1.5,1.0,
83,,iti,,html-keyboard-response,83,73197,0.0-1.0-124.0,0,0,85937,,,,,,,,,,,,,,,,,,,,,,,,,,,,,,,,,,95.0,1.0,,
84,,size_choice,,html-keyboard-response,84,74701,0.0-1.0-126.0,0,0,85937,,,,,,31.0,31.0,1.0,1500.0,S-S,,S,S,1.0,1.0,thread,screws,thread4,screws8,143.0,127.0,/static/Size_judgement/Stimuli/Size_stims/S/thread/thread5.jpg,/static/Size_judgement/Stimuli/Size_stims/S/screws/screws10.jpg,,,,,,,,,,,96.5,1.5,1.0,
85,,iti,,html-keyboard-response,85,74805,0.0-1.0-128.0,0,0,85937,,,,,,,,,,,,,,,,,,,,,,,,,,,,,,,,,,98.0,1.5,,
86,,size_choice,,html-keyboard-response,86,76308,0.0-1.0-130.0,0,0,85937,,,,,,32.0,32.0,1.0,2000.0,S-XL,0.0,S,XL,1.0,4.0,die,crane,die7,crane8,106.0,167.0,/static/Size_judgement/Stimuli/Size_stims/S/die/die4.jpg,/static/Size_judgement/Stimuli/Size_stims/XL/crane/crane10.jpg,,,,,,,,,,,99.5,1.5,1.0,
87,,iti,,html-keyboard-response,87,76413,0.0-1.0-132.0,0,0,85937,,,,,,,,,,,,,,,,,,,,,,,,,,,,,,,,,,101.5,2.0,,
88,,size_choice,,html-keyboard-response,88,77917,0.0-1.0-134.0,0,0,85937,,,,,,33.0,33.0,1.0,1000.0,M-M,,M,M,2.0,2.0,hairdryer,handsaw,hairdryer3,handsaw3,72.0,82.0,/static/Size_judgement/Stimuli/Size_stims/M/hairdryer/hairdryer17.jpg,/static/Size_judgement/Stimuli/Size_stims/M/handsaw/handsaw2.jpg,,,,,,,,,,,103.0,1.5,1.0,
89,,iti,,html-keyboard-response,89,78018,0.0-1.0-136.0,0,0,85937,,,,,,,,,,,,,,,,,,,,,,,,,,,,,,,,,,104.0,1.0,,
90,,size_choice,,html-keyboard-response,90,78752,0.0-1.0-138.0,0,0,85937,,733.0,,,68.0,34.0,34.0,1.0,1500.0,L-L,,L,L,3.0,3.0,garbagecan,cooler,garbagecan9,cooler1,38.0,0.0,/static/Size_judgement/Stimuli/Size_stims/L/garbagecan/garbagecan12.jpg,/static/Size_judgement/Stimuli/Size_stims/L/cooler/cooler8.jpg,1.0,garbagecan,cooler,L,L,3.0,3.0,garbagecan9,cooler1,,104.733,0.733,0.0,
91,,size_choice_confirmation,,html-keyboard-response,91,79523,0.0-1.0-139.0-0.0,0,0,85937,,,,,,34.0,,,,,,,,,,,,,,,,,,,,,,,,,,,,105.5,0.767,,
92,,iti,,html-keyboard-response,92,79626,0.0-1.0-140.0,0,0,85937,,,,,,,,,,,,,,,,,,,,,,,,,,,,,,,,,,107.0,1.5,,
93,,size_choice,,html-keyboard-response,93,79875,0.0-1.0-142.0,0,0,85937,,249.0,,,68.0,35.0,35.0,1.0,2000.0,S-L,1.0,L,S,3.0,1.0,cooler,teabag,cooler9,teabag1,8.0,130.0,/static/Size_judgement/Stimuli/Size_stims/L/cooler/cooler7.jpg,/static/Size_judgement/Stimuli/Size_stims/S/teabag/teabag9.jpg,1.0,cooler,teabag,L,S,3.0,1.0,cooler9,teabag1,1.0,107.249,0.249,0.0,
94,,size_choice_confirmation,,html-keyboard-response,94,81128,0.0-1.0-143.0-0.0,0,0,85937,,,,,,35.0,,,,,,,,,,,,,,,,,,,,,,,,,,,,108.5,1.251,,
95,,iti,,html-keyboard-response,95,81229,0.0-1.0-144.0,0,0,85937,,,,,,,,,,,,,,,,,,,,,,,,,,,,,,,,,,110.5,2.0,,
96,,size_choice,,html-keyboard-response,96,82524,0.0-1.0-146.0,0,0,85937,,1295.0,,,75.0,36.0,36.0,1.0,3500.0,M-L,1.0,L,M,3.0,2.0,garbagecan,ketchup,garbagecan3,ketchup5,32.0,94.0,/static/Size_judgement/Stimuli/Size_stims/L/garbagecan/garbagecan7.jpg,/static/Size_judgement/Stimuli/Size_stims/M/ketchup/ketchup3.jpg,0.0,ketchup,garbagecan,M,L,2.0,3.0,ketchup5,garbagecan3,0.0,111.795,1.295,0.0,
97,,size_choice_confirmation,,html-keyboard-response,97,82734,0.0-1.0-147.0-0.0,0,0,85937,,,,,,36.0,,,,,,,,,,,,,,,,,,,,,,,,,,,,112.0,0.205,,
98,,iti,,html-keyboard-response,98,82837,0.0-1.0-148.0,0,0,85937,,,,,,,,,,,,,,,,,,,,,,,,,,,,,,,,,,115.5,3.5,,
99,,size_choice,,html-keyboard-response,99,83314,0.0-1.0-150.0,0,0,85937,,476.0,,,75.0,37.0,37.0,1.0,1500.0,M-L,1.0,L,M,3.0,2.0,mailbox,ketchup,mailbox6,ketchup4,45.0,93.0,/static/Size_judgement/Stimuli/Size_stims/L/mailbox/mailbox6.jpg,/static/Size_judgement/Stimuli/Size_stims/M/ketchup/ketchup2.jpg,0.0,ketchup,mailbox,M,L,2.0,3.0,ketchup4,mailbox6,0.0,115.976,0.476,0.0,
100,,size_choice_confirmation,,html-keyboard-response,100,84339,0.0-1.0-151.0-0.0,0,0,85937,,,,,,37.0,,,,,,,,,,,,,,,,,,,,,,,,,,,,117.0,1.024,,
101,,iti,,html-keyboard-response,101,84440,0.0-1.0-152.0,0,0,85937,,,,,,,,,,,,,,,,,,,,,,,,,,,,,,,,,,118.5,1.5,,
102,,size_choice,,html-keyboard-response,102,84671,0.0-1.0-154.0,0,0,85937,,230.0,,,75.0,38.0,38.0,1.0,1000.0,L-L,,L,L,3.0,3.0,mailbox,garbagecan,mailbox8,garbagecan4,47.0,33.0,/static/Size_judgement/Stimuli/Size_stims/L/mailbox/mailbox10.jpg,/static/Size_judgement/Stimuli/Size_stims/L/garbagecan/garbagecan6.jpg,0.0,garbagecan,mailbox,L,L,3.0,3.0,garbagecan4,mailbox8,,118.73,0.23,0.0,
103,,size_choice_confirmation,,html-keyboard-response,103,85943,0.0-1.0-155.0-0.0,0,0,85937,,,,,,38.0,,,,,,,,,,,,,,,,,,,,,,,,,,,,120.0,1.27,,
104,,iti,,html-keyboard-response,104,86045,0.0-1.0-156.0,0,0,85937,,,,,,,,,,,,,,,,,,,,,,,,,,,,,,,,,,121.0,1.0,,
105,,size_choice,,html-keyboard-response,105,86332,0.0-1.0-158.0,0,0,85937,,287.0,,,75.0,39.0,39.0,1.0,1000.0,M-M,,M,M,2.0,2.0,basketball,hairdryer,basketball6,hairdryer7,55.0,76.0,/static/Size_judgement/Stimuli/Size_stims/M/basketball/basketball2.jpg,/static/Size_judgement/Stimuli/Size_stims/M/hairdryer/hairdryer3.jpg,0.0,hairdryer,basketball,M,M,2.0,2.0,hairdryer7,basketball6,,121.287,0.287,0.0,
106,,size_choice_confirmation,,html-keyboard-response,106,87547,0.0-1.0-159.0-0.0,0,0,85937,,,,,,39.0,,,,,,,,,,,,,,,,,,,,,,,,,,,,122.5,1.213,,
107,,iti,,html-keyboard-response,107,87650,0.0-1.0-160.0,0,0,85937,,,,,,,,,,,,,,,,,,,,,,,,,,,,,,,,,,123.5,1.0,,
108,,size_choice,,html-keyboard-response,108,87843,0.0-1.0-162.0,0,0,85937,,192.0,,,75.0,40.0,40.0,1.0,3000.0,S-XL,1.0,XL,S,4.0,1.0,crane,thread,crane7,thread5,166.0,144.0,/static/Size_judgement/Stimuli/Size_stims/XL/crane/crane3.jpg,/static/Size_judgement/Stimuli/Size_stims/S/thread/thread1.jpg,0.0,thread,crane,S,XL,1.0,4.0,thread5,crane7,0.0,123.692,0.192,0.0,
109,,size_choice_confirmation,,html-keyboard-response,109,89154,0.0-1.0-163.0-0.0,0,0,85937,,,,,,40.0,,,,,,,,,,,,,,,,,,,,,,,,,,,,125.0,1.308,,
110,,iti,,html-keyboard-response,110,89256,0.0-1.0-164.0,0,0,85937,,,,,,,,,,,,,,,,,,,,,,,,,,,,,,,,,,128.0,3.0,,
111,,size_choice,,html-keyboard-response,111,89461,0.0-1.0-166.0,0,0,85937,,205.0,,,75.0,41.0,41.0,1.0,1000.0,S-XL,0.0,S,XL,1.0,4.0,teabag,tractor,teabag7,tractor7,136.0,186.0,/static/Size_judgement/Stimuli/Size_stims/S/teabag/teabag10.jpg,/static/Size_judgement/Stimuli/Size_stims/XL/tractor/tractor2.jpg,0.0,tractor,teabag,XL,S,4.0,1.0,tractor7,teabag7,1.0,128.205,0.205,0.0,
112,,size_choice_confirmation,,html-keyboard-response,112,90758,0.0-1.0-167.0-0.0,0,0,85937,,,,,,41.0,,,,,,,,,,,,,,,,,,,,,,,,,,,,129.5,1.295,,
113,,iti,,html-keyboard-response,113,90859,0.0-1.0-168.0,0,0,85937,,,,,,,,,,,,,,,,,,,,,,,,,,,,,,,,,,130.5,1.0,,
114,,size_choice,,html-keyboard-response,114,91102,0.0-1.0-170.0,0,0,85937,,242.0,,,75.0,42.0,42.0,1.0,1500.0,L-XL,0.0,L,XL,3.0,4.0,garbagecan,car,garbagecan10,car6,39.0,155.0,/static/Size_judgement/Stimuli/Size_stims/L/garbagecan/garbagecan11.jpg,/static/Size_judgement/Stimuli/Size_stims/XL/car/car12.jpg,0.0,car,garbagecan,XL,L,4.0,3.0,car6,garbagecan10,1.0,130.742,0.242,0.0,
115,,size_choice_confirmation,,html-keyboard-response,115,92365,0.0-1.0-171.0-0.0,0,0,85937,,,,,,42.0,,,,,,,,,,,,,,,,,,,,,,,,,,,,132.0,1.258,,
116,,iti,,html-keyboard-response,116,92466,0.0-1.0-172.0,0,0,85937,,,,,,,,,,,,,,,,,,,,,,,,,,,,,,,,,,133.5,1.5,,
117,,size_choice,,html-keyboard-response,117,92703,0.0-1.0-174.0,0,0,85937,,236.0,,,75.0,43.0,43.0,1.0,3500.0,M-XL,1.0,XL,M,4.0,2.0,car,coffeemaker,car4,coffeemaker9,153.0,68.0,/static/Size_judgement/Stimuli/Size_stims/XL/car/car6.jpg,/static/Size_judgement/Stimuli/Size_stims/M/coffeemaker/coffeemaker7.jpg,0.0,coffeemaker,car,M,XL,2.0,4.0,coffeemaker9,car4,0.0,133.736,0.236,0.0,
118,,size_choice_confirmation,,html-keyboard-response,118,93970,0.0-1.0-175.0-0.0,0,0,85937,,,,,,43.0,,,,,,,,,,,,,,,,,,,,,,,,,,,,135.0,1.264,,
119,,iti,,html-keyboard-response,119,94074,0.0-1.0-176.0,0,0,85937,,,,,,,,,,,,,,,,,,,,,,,,,,,,,,,,,,138.5,3.5,,
120,,size_choice,,html-keyboard-response,120,95578,0.0-1.0-178.0,0,0,85937,,,,,,44.0,44.0,1.0,2000.0,L-XL,0.0,L,XL,3.0,4.0,cooler,car,cooler4,car5,3.0,154.0,/static/Size_judgement/Stimuli/Size_stims/L/cooler/cooler3.jpg,/static/Size_judgement/Stimuli/Size_stims/XL/car/car11.jpg,,,,,,,,,,,140.0,1.5,1.0,
121,,iti,,html-keyboard-response,121,95684,0.0-1.0-180.0,0,0,85937,,,,,,,,,,,,,,,,,,,,,,,,,,,,,,,,,,142.0,2.0,,
122,,block_over,,html-keyboard-response,122,525377,0.0-1.0-181.0-0.0,0,0,85937,,429693.0,,,68.0,44.0,,,,,,,,,,,,,,,,,,,,,,,,,,,,,,,
123,,size_choice,,html-keyboard-response,123,526022,0.0-1.0-182.0,0,0,85937,,644.0,,,68.0,45.0,45.0,2.0,3500.0,S-M,0.0,S,M,1.0,2.0,screws,handsaw,screws5,handsaw6,124.0,85.0,/static/Size_judgement/Stimuli/Size_stims/S/screws/screws2.jpg,/static/Size_judgement/Stimuli/Size_stims/M/handsaw/handsaw4.jpg,1.0,screws,handsaw,S,M,1.0,2.0,screws5,handsaw6,0.0,142.644,0.644,0.0,
124,,size_choice_confirmation,,html-keyboard-response,124,526883,0.0-1.0-183.0-0.0,0,0,85937,,,,,,45.0,,,,,,,,,,,,,,,,,,,,,,,,,,,,143.5,0.856,,
125,,iti,,html-keyboard-response,125,526987,0.0-1.0-184.0,0,0,85937,,,,,,,,,,,,,,,,,,,,,,,,,,,,,,,,,,147.0,3.5,,
126,,size_choice,,html-keyboard-response,126,529094,0.0-1.0-186.0,0,0,85937,,,,,,46.0,46.0,2.0,1000.0,S-S,,S,S,1.0,1.0,screws,paperclip,screws9,paperclip6,128.0,115.0,/static/Size_judgement/Stimuli/Size_stims/S/screws/screws8.jpg,/static/Size_judgement/Stimuli/Size_stims/S/paperclip/paperclip6.jpg,,,,,,,,,,,148.5,1.5,1.0,
127,,iti,,html-keyboard-response,127,530451,0.0-1.0-188.0,0,0,85937,,,,,,,,,,,,,,,,,,,,,,,,,,,,,,,,,,149.5,1.0,,
128,,size_choice,,html-keyboard-response,128,532221,0.0-1.0-190.0,0,0,85937,,,,,,47.0,47.0,2.0,2000.0,M-XL,1.0,XL,M,4.0,2.0,crane,basketball,crane5,basketball5,164.0,54.0,/static/Size_judgement/Stimuli/Size_stims/XL/crane/crane1.jpg,/static/Size_judgement/Stimuli/Size_stims/M/basketball/basketball3.jpg,,,,,,,,,,,151.0,1.5,1.0,
129,,iti,,html-keyboard-response,129,533094,0.0-1.0-192.0,0,0,85937,,,,,,,,,,,,,,,,,,,,,,,,,,,,,,,,,,153.0,2.0,,
130,,size_choice,,html-keyboard-response,130,535129,0.0-1.0-194.0,0,0,85937,,,,,,48.0,48.0,2.0,1000.0,M-L,0.0,M,L,2.0,3.0,hairdryer,mailbox,hairdryer6,mailbox10,75.0,49.0,/static/Size_judgement/Stimuli/Size_stims/M/hairdryer/hairdryer8.jpg,/static/Size_judgement/Stimuli/Size_stims/L/mailbox/mailbox8.jpg,,,,,,,,,,,154.5,1.5,1.0,
131,,iti,,html-keyboard-response,131,536222,0.0-1.0-196.0,0,0,85937,,,,,,,,,,,,,,,,,,,,,,,,,,,,,,,,,,155.5,1.0,,
132,,size_choice,,html-keyboard-response,132,538115,0.0-1.0-198.0,0,0,85937,,,,,,49.0,49.0,2.0,2000.0,M-XL,1.0,XL,M,4.0,2.0,tractor,coffeemaker,tractor5,coffeemaker1,184.0,60.0,/static/Size_judgement/Stimuli/Size_stims/XL/tractor/tractor1.jpg,/static/Size_judgement/Stimuli/Size_stims/M/coffeemaker/coffeemaker14.jpg,,,,,,,,,,,157.0,1.5,1.0,
133,,iti,,html-keyboard-response,133,539582,0.0-1.0-200.0,0,0,85937,,,,,,,,,,,,,,,,,,,,,,,,,,,,,,,,,,159.0,2.0,,
134,,size_choice,,html-keyboard-response,134,541503,0.0-1.0-202.0,0,0,85937,,,,,,50.0,50.0,2.0,1000.0,S-XL,1.0,XL,S,4.0,1.0,car,teabag,car9,teabag10,158.0,139.0,/static/Size_judgement/Stimuli/Size_stims/XL/car/car15.jpg,/static/Size_judgement/Stimuli/Size_stims/S/teabag/teabag4.jpg,,,,,,,,,,,160.5,1.5,1.0,
135,,iti,,html-keyboard-response,135,542387,0.0-1.0-204.0,0,0,85937,,,,,,,,,,,,,,,,,,,,,,,,,,,,,,,,,,161.5,1.0,,
136,,size_choice,,html-keyboard-response,136,544094,0.0-1.0-206.0,0,0,85937,,,,,,51.0,51.0,2.0,1500.0,XL-XL,,XL,XL,4.0,4.0,crane,car,crane10,car8,169.0,157.0,/static/Size_judgement/Stimuli/Size_stims/XL/crane/crane9.jpg,/static/Size_judgement/Stimuli/Size_stims/XL/car/car14.jpg,,,,,,,,,,,163.0,1.5,1.0,
137,,iti,,html-keyboard-response,137,545094,0.0-1.0-208.0,0,0,85937,,,,,,,,,,,,,,,,,,,,,,,,,,,,,,,,,,164.5,1.5,,
138,,size_choice,,html-keyboard-response,138,547374,0.0-1.0-210.0,0,0,85937,,,,,,52.0,52.0,2.0,1000.0,M-L,0.0,M,L,2.0,3.0,coffeemaker,dishwasher,coffeemaker2,dishwasher3,61.0,22.0,/static/Size_judgement/Stimuli/Size_stims/M/coffeemaker/coffeemaker12.jpg,/static/Size_judgement/Stimuli/Size_stims/L/dishwasher/dishwasher8.jpg,,,,,,,,,,,166.0,1.5,1.0,
139,,iti,,html-keyboard-response,139,548453,0.0-1.0-212.0,0,0,85937,,,,,,,,,,,,,,,,,,,,,,,,,,,,,,,,,,167.0,1.0,,
140,,size_choice,,html-keyboard-response,140,550856,0.0-1.0-214.0,0,0,85937,,,,,,53.0,53.0,2.0,3000.0,S-L,1.0,L,S,3.0,1.0,deskchair,paperclip,deskchair4,paperclip7,13.0,116.0,/static/Size_judgement/Stimuli/Size_stims/L/deskchair/deskchair6.jpg,/static/Size_judgement/Stimuli/Size_stims/S/paperclip/paperclip7.jpg,,,,,,,,,,,168.5,1.5,1.0,
141,,iti,,html-keyboard-response,141,551094,0.0-1.0-216.0,0,0,85937,,,,,,,,,,,,,,,,,,,,,,,,,,,,,,,,,,171.5,3.0,,
142,,size_choice,,html-keyboard-response,142,553737,0.0-1.0-218.0,0,0,85937,,,,,,54.0,54.0,2.0,2000.0,S-S,,S,S,1.0,1.0,screws,paperclip,screws1,paperclip10,120.0,119.0,/static/Size_judgement/Stimuli/Size_stims/S/screws/screws4.jpg,/static/Size_judgement/Stimuli/Size_stims/S/paperclip/paperclip10.jpg,,,,,,,,,,,173.0,1.5,1.0,
143,,iti,,html-keyboard-response,143,554254,0.0-1.0-220.0,0,0,85937,,,,,,,,,,,,,,,,,,,,,,,,,,,,,,,,,,175.0,2.0,,
144,,size_choice,,html-keyboard-response,144,556389,0.0-1.0-222.0,0,0,85937,,,,,,55.0,55.0,2.0,1500.0,M-L,1.0,L,M,3.0,2.0,dishwasher,ketchup,dishwasher5,ketchup2,24.0,91.0,/static/Size_judgement/Stimuli/Size_stims/L/dishwasher/dishwasher4.jpg,/static/Size_judgement/Stimuli/Size_stims/M/ketchup/ketchup9.jpg,,,,,,,,,,,176.5,1.5,1.0,
145,,iti,,html-keyboard-response,145,557446,0.0-1.0-224.0,0,0,85937,,,,,,,,,,,,,,,,,,,,,,,,,,,,,,,,,,178.0,1.5,,
146,,size_choice,,html-keyboard-response,146,559209,0.0-1.0-226.0,0,0,85937,,,,,,56.0,56.0,2.0,1000.0,M-L,0.0,M,L,2.0,3.0,hairdryer,deskchair,hairdryer5,deskchair3,74.0,12.0,/static/Size_judgement/Stimuli/Size_stims/M/hairdryer/hairdryer15.jpg,/static/Size_judgement/Stimuli/Size_stims/L/deskchair/deskchair10.jpg,,,,,,,,,,,179.5,1.5,1.0,
147,,iti,,html-keyboard-response,147,560094,0.0-1.0-228.0,0,0,85937,,,,,,,,,,,,,,,,,,,,,,,,,,,,,,,,,,180.5,1.0,,
148,,size_choice,,html-keyboard-response,148,562094,0.0-1.0-230.0,0,0,85937,,,,,,57.0,57.0,2.0,1000.0,S-XL,0.0,S,XL,1.0,4.0,thread,dumptruck,thread7,dumptruck1,146.0,170.0,/static/Size_judgement/Stimuli/Size_stims/S/thread/thread3.jpg,/static/Size_judgement/Stimuli/Size_stims/XL/dumptruck/dumptruck9.jpg,,,,,,,,,,,182.0,1.5,1.0,
149,,iti,,html-keyboard-response,149,563189,0.0-1.0-232.0,0,0,85937,,,,,,,,,,,,,,,,,,,,,,,,,,,,,,,,,,183.0,1.0,,
150,,size_choice,,html-keyboard-response,150,565094,0.0-1.0-234.0,0,0,85937,,,,,,58.0,58.0,2.0,1000.0,S-L,0.0,S,L,1.0,3.0,teabag,dishwasher,teabag9,dishwasher6,138.0,25.0,/static/Size_judgement/Stimuli/Size_stims/S/teabag/teabag5.jpg,/static/Size_judgement/Stimuli/Size_stims/L/dishwasher/dishwasher6.jpg,,,,,,,,,,,184.5,1.5,1.0,
151,,iti,,html-keyboard-response,151,566472,0.0-1.0-236.0,0,0,85937,,,,,,,,,,,,,,,,,,,,,,,,,,,,,,,,,,185.5,1.0,,
152,,size_choice,,html-keyboard-response,152,568259,0.0-1.0-238.0,0,0,85937,,,,,,59.0,59.0,2.0,1000.0,M-M,,M,M,2.0,2.0,basketball,ketchup,basketball2,ketchup10,51.0,99.0,/static/Size_judgement/Stimuli/Size_stims/M/basketball/basketball8.jpg,/static/Size_judgement/Stimuli/Size_stims/M/ketchup/ketchup6.jpg,,,,,,,,,,,187.0,1.5,1.0,
153,,iti,,html-keyboard-response,153,569094,0.0-1.0-240.0,0,0,85937,,,,,,,,,,,,,,,,,,,,,,,,,,,,,,,,,,188.0,1.0,,
154,,size_choice,,html-keyboard-response,154,571094,0.0-1.0-242.0,0,0,85937,,,,,,60.0,60.0,2.0,1500.0,M-XL,0.0,M,XL,2.0,4.0,ketchup,dumptruck,ketchup1,dumptruck3,90.0,172.0,/static/Size_judgement/Stimuli/Size_stims/M/ketchup/ketchup8.jpg,/static/Size_judgement/Stimuli/Size_stims/XL/dumptruck/dumptruck10.jpg,,,,,,,,,,,189.5,1.5,1.0,
155,,iti,,html-keyboard-response,155,572584,0.0-1.0-244.0,0,0,85937,,,,,,,,,,,,,,,,,,,,,,,,,,,,,,,,,,191.0,1.5,,
156,,size_choice,,html-keyboard-response,156,574846,0.0-1.0-246.0,0,0,85937,,,,,,61.0,61.0,2.0,1500.0,M-XL,0.0,M,XL,2.0,4.0,basketball,tractor,basketball1,tractor1,50.0,180.0,/static/Size_judgement/Stimuli/Size_stims/M/basketball/basketball9.jpg,/static/Size_judgement/Stimuli/Size_stims/XL/tractor/tractor6.jpg,,,,,,,,,,,192.5,1.5,1.0,
157,,iti,,html-keyboard-response,157,575216,0.0-1.0-248.0,0,0,85937,,,,,,,,,,,,,,,,,,,,,,,,,,,,,,,,,,194.0,1.5,,
158,,size_choice,,html-keyboard-response,158,577657,0.0-1.0-250.0,0,0,85937,,,,,,62.0,62.0,2.0,3000.0,L-XL,0.0,L,XL,3.0,4.0,cooler,van,cooler2,van9,1.0,198.0,/static/Size_judgement/Stimuli/Size_stims/L/cooler/cooler9.jpg,/static/Size_judgement/Stimuli/Size_stims/XL/van/van9.jpg,,,,,,,,,,,195.5,1.5,1.0,
159,,iti,,html-keyboard-response,159,578186,0.0-1.0-252.0,0,0,85937,,,,,,,,,,,,,,,,,,,,,,,,,,,,,,,,,,198.5,3.0,,
160,,size_choice,,html-keyboard-response,160,580094,0.0-1.0-254.0,0,0,85937,,,,,,63.0,63.0,2.0,3500.0,S-L,0.0,S,L,1.0,3.0,thread,dishwasher,thread2,dishwasher7,141.0,26.0,/static/Size_judgement/Stimuli/Size_stims/S/thread/thread6.jpg,/static/Size_judgement/Stimuli/Size_stims/L/dishwasher/dishwasher7.jpg,,,,,,,,,,,200.0,1.5,1.0,
161,,iti,,html-keyboard-response,161,581094,0.0-1.0-256.0,0,0,85937,,,,,,,,,,,,,,,,,,,,,,,,,,,,,,,,,,203.5,3.5,,
162,,size_choice,,html-keyboard-response,162,582596,0.0-1.0-258.0,0,0,85937,,,,,,64.0,64.0,2.0,1500.0,M-L,0.0,M,L,2.0,3.0,handsaw,cooler,handsaw8,cooler7,87.0,6.0,/static/Size_judgement/Stimuli/Size_stims/M/handsaw/handsaw7.jpg,/static/Size_judgement/Stimuli/Size_stims/L/cooler/cooler4.jpg,,,,,,,,,,,205.0,1.5,1.0,
163,,iti,,html-keyboard-response,163,582702,0.0-1.0-260.0,0,0,85937,,,,,,,,,,,,,,,,,,,,,,,,,,,,,,,,,,206.5,1.5,,
164,,size_choice,,html-keyboard-response,164,584206,0.0-1.0-262.0,0,0,85937,,,,,,65.0,65.0,2.0,2000.0,M-L,0.0,M,L,2.0,3.0,handsaw,mailbox,handsaw5,mailbox1,84.0,40.0,/static/Size_judgement/Stimuli/Size_stims/M/handsaw/handsaw1.jpg,/static/Size_judgement/Stimuli/Size_stims/L/mailbox/mailbox3.jpg,,,,,,,,,,,208.0,1.5,1.0,
165,,iti,,html-keyboard-response,165,584310,0.0-1.0-264.0,0,0,85937,,,,,,,,,,,,,,,,,,,,,,,,,,,,,,,,,,210.0,2.0,,
166,,size_choice,,html-keyboard-response,166,584598,0.0-1.0-266.0,0,0,85937,,288.0,,,68.0,66.0,66.0,2.0,1000.0,M-XL,1.0,XL,M,4.0,2.0,car,ketchup,car10,ketchup8,159.0,97.0,/static/Size_judgement/Stimuli/Size_stims/XL/car/car9.jpg,/static/Size_judgement/Stimuli/Size_stims/M/ketchup/ketchup5.jpg,1.0,car,ketchup,XL,M,4.0,2.0,car10,ketchup8,1.0,210.288,0.288,0.0,
167,,size_choice_confirmation,,html-keyboard-response,167,585815,0.0-1.0-267.0-0.0,0,0,85937,,,,,,66.0,,,,,,,,,,,,,,,,,,,,,,,,,,,,211.5,1.212,,
168,,iti,,html-keyboard-response,168,585920,0.0-1.0-268.0,0,0,85937,,,,,,,,,,,,,,,,,,,,,,,,,,,,,,,,,,212.5,1.0,,
169,,size_choice,,html-keyboard-response,169,587113,0.0-1.0-270.0,0,0,85937,,1192.0,,,75.0,67.0,67.0,2.0,1000.0,S-L,1.0,L,S,3.0,1.0,deskchair,thread,deskchair6,thread3,15.0,142.0,/static/Size_judgement/Stimuli/Size_stims/L/deskchair/deskchair5.jpg,/static/Size_judgement/Stimuli/Size_stims/S/thread/thread4.jpg,0.0,thread,deskchair,S,L,1.0,3.0,thread3,deskchair6,0.0,213.692,1.192,0.0,
170,,size_choice_confirmation,,html-keyboard-response,170,587424,0.0-1.0-271.0-0.0,0,0,85937,,,,,,67.0,,,,,,,,,,,,,,,,,,,,,,,,,,,,214.0,0.308,,
171,,iti,,html-keyboard-response,171,587528,0.0-1.0-272.0,0,0,85937,,,,,,,,,,,,,,,,,,,,,,,,,,,,,,,,,,215.0,1.0,,
172,,size_choice,,html-keyboard-response,172,587669,0.0-1.0-274.0,0,0,85937,,140.0,,,75.0,68.0,68.0,2.0,2000.0,S-XL,0.0,S,XL,1.0,4.0,screws,dumptruck,screws3,dumptruck4,122.0,173.0,/static/Size_judgement/Stimuli/Size_stims/S/screws/screws7.jpg,/static/Size_judgement/Stimuli/Size_stims/XL/dumptruck/dumptruck1.jpg,0.0,dumptruck,screws,XL,S,4.0,1.0,dumptruck4,screws3,1.0,215.14,0.14,0.0,
173,,size_choice_confirmation,,html-keyboard-response,173,589032,0.0-1.0-275.0-0.0,0,0,85937,,,,,,68.0,,,,,,,,,,,,,,,,,,,,,,,,,,,,216.5,1.36,,
174,,iti,,html-keyboard-response,174,589134,0.0-1.0-276.0,0,0,85937,,,,,,,,,,,,,,,,,,,,,,,,,,,,,,,,,,218.5,2.0,,
175,,size_choice,,html-keyboard-response,175,589362,0.0-1.0-278.0,0,0,85937,,227.0,,,68.0,69.0,69.0,2.0,3000.0,S-XL,0.0,S,XL,1.0,4.0,paperclip,dumptruck,paperclip8,dumptruck7,117.0,176.0,/static/Size_judgement/Stimuli/Size_stims/S/paperclip/paperclip5.jpg,/static/Size_judgement/Stimuli/Size_stims/XL/dumptruck/dumptruck6.jpg,1.0,paperclip,dumptruck,S,XL,1.0,4.0,paperclip8,dumptruck7,0.0,218.727,0.227,0.0,
176,,size_choice_confirmation,,html-keyboard-response,176,590638,0.0-1.0-279.0-0.0,0,0,85937,,,,,,69.0,,,,,,,,,,,,,,,,,,,,,,,,,,,,220.0,1.273,,
177,,iti,,html-keyboard-response,177,590743,0.0-1.0-280.0,0,0,85937,,,,,,,,,,,,,,,,,,,,,,,,,,,,,,,,,,223.0,3.0,,
178,,size_choice,,html-keyboard-response,178,591467,0.0-1.0-282.0,0,0,85937,,724.0,,,68.0,70.0,70.0,2.0,1500.0,S-L,0.0,S,L,1.0,3.0,die,deskchair,die1,deskchair8,100.0,17.0,/static/Size_judgement/Stimuli/Size_stims/S/die/die8.jpg,/static/Size_judgement/Stimuli/Size_stims/L/deskchair/deskchair1.jpg,1.0,die,deskchair,S,L,1.0,3.0,die1,deskchair8,0.0,223.724,0.724,0.0,
179,,size_choice_confirmation,,html-keyboard-response,179,592248,0.0-1.0-283.0-0.0,0,0,85937,,,,,,70.0,,,,,,,,,,,,,,,,,,,,,,,,,,,,224.5,0.776,,
180,,iti,,html-keyboard-response,180,592351,0.0-1.0-284.0,0,0,85937,,,,,,,,,,,,,,,,,,,,,,,,,,,,,,,,,,226.0,1.5,,
181,,size_choice,,html-keyboard-response,181,592954,0.0-1.0-286.0,0,0,85937,,602.0,,,75.0,71.0,71.0,2.0,1500.0,XL-XL,,XL,XL,4.0,4.0,tractor,van,tractor3,van8,182.0,197.0,/static/Size_judgement/Stimuli/Size_stims/XL/tractor/tractor5.jpg,/static/Size_judgement/Stimuli/Size_stims/XL/van/van10.jpg,0.0,van,tractor,XL,XL,4.0,4.0,van8,tractor3,,226.602,0.602,0.0,
182,,size_choice_confirmation,,html-keyboard-response,182,593854,0.0-1.0-287.0-0.0,0,0,85937,,,,,,71.0,,,,,,,,,,,,,,,,,,,,,,,,,,,,227.5,0.898,,
183,,iti,,html-keyboard-response,183,593955,0.0-1.0-288.0,0,0,85937,,,,,,,,,,,,,,,,,,,,,,,,,,,,,,,,,,229.0,1.5,,
184,,size_choice,,html-keyboard-response,184,594324,0.0-1.0-290.0,0,0,85937,,368.0,,,75.0,72.0,72.0,2.0,1500.0,S-XL,0.0,S,XL,1.0,4.0,paperclip,dumptruck,paperclip4,dumptruck5,113.0,174.0,/static/Size_judgement/Stimuli/Size_stims/S/paperclip/paperclip3.jpg,/static/Size_judgement/Stimuli/Size_stims/XL/dumptruck/dumptruck3.jpg,0.0,dumptruck,paperclip,XL,S,4.0,1.0,dumptruck5,paperclip4,1.0,229.368,0.368,0.0,
185,,size_choice_confirmation,,html-keyboard-response,185,595459,0.0-1.0-291.0-0.0,0,0,85937,,,,,,72.0,,,,,,,,,,,,,,,,,,,,,,,,,,,,230.5,1.132,,
186,,iti,,html-keyboard-response,186,595560,0.0-1.0-292.0,0,0,85937,,,,,,,,,,,,,,,,,,,,,,,,,,,,,,,,,,232.0,1.5,,
187,,size_choice,,html-keyboard-response,187,595732,0.0-1.0-294.0,0,0,85937,,171.0,,,75.0,73.0,73.0,2.0,3000.0,M-L,0.0,M,L,2.0,3.0,coffeemaker,dishwasher,coffeemaker6,dishwasher4,65.0,23.0,/static/Size_judgement/Stimuli/Size_stims/M/coffeemaker/coffeemaker8.jpg,/static/Size_judgement/Stimuli/Size_stims/L/dishwasher/dishwasher5.jpg,0.0,dishwasher,coffeemaker,L,M,3.0,2.0,dishwasher4,coffeemaker6,1.0,232.171,0.171,0.0,
188,,size_choice_confirmation,,html-keyboard-response,188,597065,0.0-1.0-295.0-0.0,0,0,85937,,,,,,73.0,,,,,,,,,,,,,,,,,,,,,,,,,,,,233.5,1.329,,
189,,iti,,html-keyboard-response,189,597166,0.0-1.0-296.0,0,0,85937,,,,,,,,,,,,,,,,,,,,,,,,,,,,,,,,,,236.5,3.0,,
190,,size_choice,,html-keyboard-response,190,597344,0.0-1.0-298.0,0,0,85937,,178.0,,,75.0,74.0,74.0,2.0,1500.0,S-XL,1.0,XL,S,4.0,1.0,car,die,car1,die9,150.0,108.0,/static/Size_judgement/Stimuli/Size_stims/XL/car/car2.jpg,/static/Size_judgement/Stimuli/Size_stims/S/die/die7.jpg,0.0,die,car,S,XL,1.0,4.0,die9,car1,0.0,236.678,0.178,0.0,
191,,size_choice_confirmation,,html-keyboard-response,191,598667,0.0-1.0-299.0-0.0,0,0,85937,,,,,,74.0,,,,,,,,,,,,,,,,,,,,,,,,,,,,238.0,1.322,,
192,,iti,,html-keyboard-response,192,598771,0.0-1.0-300.0,0,0,85937,,,,,,,,,,,,,,,,,,,,,,,,,,,,,,,,,,239.5,1.5,,
193,,size_choice,,html-keyboard-response,193,598956,0.0-1.0-302.0,0,0,85937,,185.0,,,75.0,75.0,75.0,2.0,1500.0,M-XL,1.0,XL,M,4.0,2.0,crane,handsaw,crane1,handsaw10,160.0,89.0,/static/Size_judgement/Stimuli/Size_stims/XL/crane/crane7.jpg,/static/Size_judgement/Stimuli/Size_stims/M/handsaw/handsaw10.jpg,0.0,handsaw,crane,M,XL,2.0,4.0,handsaw10,crane1,0.0,239.685,0.185,0.0,
194,,size_choice_confirmation,,html-keyboard-response,194,600275,0.0-1.0-303.0-0.0,0,0,85937,,,,,,75.0,,,,,,,,,,,,,,,,,,,,,,,,,,,,241.0,1.315,,
195,,iti,,html-keyboard-response,195,600378,0.0-1.0-304.0,0,0,85937,,,,,,,,,,,,,,,,,,,,,,,,,,,,,,,,,,242.5,1.5,,
196,,size_choice,,html-keyboard-response,196,600485,0.0-1.0-306.0,0,0,85937,,106.0,,,75.0,76.0,76.0,2.0,1500.0,S-XL,1.0,XL,S,4.0,1.0,tractor,screws,tractor2,screws6,181.0,125.0,/static/Size_judgement/Stimuli/Size_stims/XL/tractor/tractor7.jpg,/static/Size_judgement/Stimuli/Size_stims/S/screws/screws3.jpg,0.0,screws,tractor,S,XL,1.0,4.0,screws6,tractor2,0.0,242.606,0.106,0.0,
197,,size_choice_confirmation,,html-keyboard-response,197,601880,0.0-1.0-307.0-0.0,0,0,85937,,,,,,76.0,,,,,,,,,,,,,,,,,,,,,,,,,,,,244.0,1.394,,
198,,iti,,html-keyboard-response,198,601984,0.0-1.0-308.0,0,0,85937,,,,,,,,,,,,,,,,,,,,,,,,,,,,,,,,,,245.5,1.5,,
199,,size_choice,,html-keyboard-response,199,602272,0.0-1.0-310.0,0,0,85937,,288.0,,,75.0,77.0,77.0,2.0,2000.0,M-L,0.0,M,L,2.0,3.0,coffeemaker,deskchair,coffeemaker4,deskchair5,63.0,14.0,/static/Size_judgement/Stimuli/Size_stims/M/coffeemaker/coffeemaker11.jpg,/static/Size_judgement/Stimuli/Size_stims/L/deskchair/deskchair7.jpg,0.0,deskchair,coffeemaker,L,M,3.0,2.0,deskchair5,coffeemaker4,1.0,245.788,0.288,0.0,
200,,size_choice_confirmation,,html-keyboard-response,200,603487,0.0-1.0-311.0-0.0,0,0,85937,,,,,,77.0,,,,,,,,,,,,,,,,,,,,,,,,,,,,247.0,1.212,,
201,,iti,,html-keyboard-response,201,603593,0.0-1.0-312.0,0,0,85937,,,,,,,,,,,,,,,,,,,,,,,,,,,,,,,,,,249.0,2.0,,
202,,size_choice,,html-keyboard-response,202,603833,0.0-1.0-314.0,0,0,85937,,240.0,,,75.0,78.0,78.0,2.0,1500.0,M-XL,1.0,XL,M,4.0,2.0,dumptruck,coffeemaker,dumptruck10,coffeemaker10,179.0,69.0,/static/Size_judgement/Stimuli/Size_stims/XL/dumptruck/dumptruck4.jpg,/static/Size_judgement/Stimuli/Size_stims/M/coffeemaker/coffeemaker18.jpg,0.0,coffeemaker,dumptruck,M,XL,2.0,4.0,coffeemaker10,dumptruck10,0.0,249.24,0.24,0.0,
203,,size_choice_confirmation,,html-keyboard-response,203,605096,0.0-1.0-315.0-0.0,0,0,85937,,,,,,78.0,,,,,,,,,,,,,,,,,,,,,,,,,,,,250.5,1.26,,
204,,iti,,html-keyboard-response,204,605198,0.0-1.0-316.0,0,0,85937,,,,,,,,,,,,,,,,,,,,,,,,,,,,,,,,,,252.0,1.5,,
205,,size_choice,,html-keyboard-response,205,605461,0.0-1.0-318.0,0,0,85937,,263.0,,,75.0,79.0,79.0,2.0,1000.0,L-L,,L,L,3.0,3.0,mailbox,cooler,mailbox4,cooler6,43.0,5.0,/static/Size_judgement/Stimuli/Size_stims/L/mailbox/mailbox5.jpg,/static/Size_judgement/Stimuli/Size_stims/L/cooler/cooler1.jpg,0.0,cooler,mailbox,L,L,3.0,3.0,cooler6,mailbox4,,252.263,0.263,0.0,
206,,size_choice_confirmation,,html-keyboard-response,206,606701,0.0-1.0-319.0-0.0,0,0,85937,,,,,,79.0,,,,,,,,,,,,,,,,,,,,,,,,,,,,253.5,1.237,,
207,,iti,,html-keyboard-response,207,606804,0.0-1.0-320.0,0,0,85937,,,,,,,,,,,,,,,,,,,,,,,,,,,,,,,,,,254.5,1.0,,
208,,size_choice,,html-keyboard-response,208,607148,0.0-1.0-322.0,0,0,85937,,343.0,,,75.0,80.0,80.0,2.0,1000.0,S-M,0.0,S,M,1.0,2.0,die,basketball,die3,basketball3,102.0,52.0,/static/Size_judgement/Stimuli/Size_stims/S/die/die10.jpg,/static/Size_judgement/Stimuli/Size_stims/M/basketball/basketball10.jpg,0.0,basketball,die,M,S,2.0,1.0,basketball3,die3,1.0,254.843,0.343,0.0,
209,,size_choice_confirmation,,html-keyboard-response,209,608306,0.0-1.0-323.0-0.0,0,0,85937,,,,,,80.0,,,,,,,,,,,,,,,,,,,,,,,,,,,,256.0,1.157,,
210,,iti,,html-keyboard-response,210,608409,0.0-1.0-324.0,0,0,85937,,,,,,,,,,,,,,,,,,,,,,,,,,,,,,,,,,257.0,1.0,,
211,,size_choice,,html-keyboard-response,211,608574,0.0-1.0-326.0,0,0,85937,,165.0,,,75.0,81.0,81.0,2.0,2000.0,S-L,0.0,S,L,1.0,3.0,thread,garbagecan,thread9,garbagecan7,148.0,36.0,/static/Size_judgement/Stimuli/Size_stims/S/thread/thread8.jpg,/static/Size_judgement/Stimuli/Size_stims/L/garbagecan/garbagecan16.jpg,0.0,garbagecan,thread,L,S,3.0,1.0,garbagecan7,thread9,1.0,257.165,0.165,0.0,
212,,size_choice_confirmation,,html-keyboard-response,212,609913,0.0-1.0-327.0-0.0,0,0,85937,,,,,,81.0,,,,,,,,,,,,,,,,,,,,,,,,,,,,258.5,1.335,,
213,,iti,,html-keyboard-response,213,610015,0.0-1.0-328.0,0,0,85937,,,,,,,,,,,,,,,,,,,,,,,,,,,,,,,,,,260.5,2.0,,
214,,size_choice,,html-keyboard-response,214,610080,0.0-1.0-330.0,0,0,85937,,64.0,,,68.0,82.0,82.0,2.0,2000.0,M-XL,1.0,XL,M,4.0,2.0,tractor,basketball,tractor8,basketball8,187.0,57.0,/static/Size_judgement/Stimuli/Size_stims/XL/tractor/tractor10.jpg,/static/Size_judgement/Stimuli/Size_stims/M/basketball/basketball7.jpg,1.0,tractor,basketball,XL,M,4.0,2.0,tractor8,basketball8,1.0,260.564,0.064,0.0,
215,,size_choice_confirmation,,html-keyboard-response,215,611520,0.0-1.0-331.0-0.0,0,0,85937,,,,,,82.0,,,,,,,,,,,,,,,,,,,,,,,,,,,,262.0,1.436,,
216,,iti,,html-keyboard-response,216,611626,0.0-1.0-332.0,0,0,85937,,,,,,,,,,,,,,,,,,,,,,,,,,,,,,,,,,264.0,2.0,,
217,,size_choice,,html-keyboard-response,217,613130,0.0-1.0-334.0,0,0,85937,,,,,,83.0,83.0,2.0,1000.0,S-XL,0.0,S,XL,1.0,4.0,screws,van,screws2,van3,121.0,192.0,/static/Size_judgement/Stimuli/Size_stims/S/screws/screws5.jpg,/static/Size_judgement/Stimuli/Size_stims/XL/van/van6.jpg,,,,,,,,,,,265.5,1.5,1.0,
218,,iti,,html-keyboard-response,218,613235,0.0-1.0-336.0,0,0,85937,,,,,,,,,,,,,,,,,,,,,,,,,,,,,,,,,,266.5,1.0,,
219,,size_choice,,html-keyboard-response,219,614739,0.0-1.0-338.0,0,0,85937,,,,,,84.0,84.0,2.0,1000.0,L-L,,L,L,3.0,3.0,cooler,dishwasher,cooler3,dishwasher9,2.0,28.0,/static/Size_judgement/Stimuli/Size_stims/L/cooler/cooler2.jpg,/static/Size_judgement/Stimuli/Size_stims/L/dishwasher/dishwasher2.jpg,,,,,,,,,,,268.0,1.5,1.0,
220,,iti,,html-keyboard-response,220,614840,0.0-1.0-340.0,0,0,85937,,,,,,,,,,,,,,,,,,,,,,,,,,,,,,,,,,269.0,1.0,,
221,,size_choice,,html-keyboard-response,221,616346,0.0-1.0-342.0,0,0,85937,,,,,,85.0,85.0,2.0,1000.0,M-M,,M,M,2.0,2.0,hairdryer,handsaw,hairdryer10,handsaw2,79.0,81.0,/static/Size_judgement/Stimuli/Size_stims/M/hairdryer/hairdryer6.jpg,/static/Size_judgement/Stimuli/Size_stims/M/handsaw/handsaw9.jpg,,,,,,,,,,,270.5,1.5,1.0,
222,,iti,,html-keyboard-response,222,616447,0.0-1.0-344.0,0,0,85937,,,,,,,,,,,,,,,,,,,,,,,,,,,,,,,,,,271.5,1.0,,
223,,size_choice,,html-keyboard-response,223,617950,0.0-1.0-346.0,0,0,85937,,,,,,86.0,86.0,2.0,1000.0,L-XL,0.0,L,XL,3.0,4.0,garbagecan,crane,garbagecan6,crane2,35.0,161.0,/static/Size_judgement/Stimuli/Size_stims/L/garbagecan/garbagecan14.jpg,/static/Size_judgement/Stimuli/Size_stims/XL/crane/crane6.jpg,,,,,,,,,,,273.0,1.5,1.0,
224,,iti,,html-keyboard-response,224,618055,0.0-1.0-348.0,0,0,85937,,,,,,,,,,,,,,,,,,,,,,,,,,,,,,,,,,274.0,1.0,,
225,,size_choice,,html-keyboard-response,225,619560,0.0-1.0-350.0,0,0,85937,,,,,,87.0,87.0,2.0,1000.0,XL-XL,,XL,XL,4.0,4.0,car,tractor,car2,tractor10,151.0,189.0,/static/Size_judgement/Stimuli/Size_stims/XL/car/car3.jpg,/static/Size_judgement/Stimuli/Size_stims/XL/tractor/tractor8.jpg,,,,,,,,,,,275.5,1.5,1.0,
226,,iti,,html-keyboard-response,226,619661,0.0-1.0-352.0,0,0,85937,,,,,,,,,,,,,,,,,,,,,,,,,,,,,,,,,,276.5,1.0,,
227,,size_choice,,html-keyboard-response,227,621166,0.0-1.0-354.0,0,0,85937,,,,,,88.0,88.0,2.0,1000.0,S-L,1.0,L,S,3.0,1.0,deskchair,screws,deskchair7,screws10,16.0,129.0,/static/Size_judgement/Stimuli/Size_stims/L/deskchair/deskchair4.jpg,/static/Size_judgement/Stimuli/Size_stims/S/screws/screws9.jpg,,,,,,,,,,,278.0,1.5,1.0,
228,,iti,,html-keyboard-response,228,621271,0.0-1.0-356.0,0,0,85937,,,,,,,,,,,,,,,,,,,,,,,,,,,,,,,,,,279.0,1.0,,
229,,size_choice,,html-keyboard-response,229,622774,0.0-1.0-358.0,0,0,85937,,,,,,89.0,89.0,2.0,3500.0,S-L,1.0,L,S,3.0,1.0,garbagecan,teabag,garbagecan1,teabag4,30.0,133.0,/static/Size_judgement/Stimuli/Size_stims/L/garbagecan/garbagecan4.jpg,/static/Size_judgement/Stimuli/Size_stims/S/teabag/teabag3.jpg,,,,,,,,,,,280.5,1.5,1.0,
230,,iti,,html-keyboard-response,230,622878,0.0-1.0-360.0,0,0,85937,,,,,,,,,,,,,,,,,,,,,,,,,,,,,,,,,,284.0,3.5,,0.29
231,,size_final_tally,,html-keyboard-response,231,624365,0.0-2.0,0,0,85937,,1486.0,,,68.0,,,,,,,,,,,,,,,,,,,,,,,,,,,,,,,,
232,,debreif_intro,,html-keyboard-response,232,637300,0.0-3.0,0,0,85937,,12923.0,,,68.0,,,,,,,,,,,,,,,,,,,,,,,,,,,,,,,,
233,,debreif_age,,survey-text,233,640725,0.0-4.0,0,0,85937,,3424.0,"{""Q0"":""8""}",,,,,,,,,,,,,,,,,,,,,,,,,,,,,,,,,,
234,,debreif_gender,,survey-multi-choice,234,643758,0.0-5.0,0,0,85937,,3032.0,"{""Q0"":""Female""}",,,,,,,,,,,,,,,,,,,,,,,,,,,,,,,,,,
235,,debreif_dominant_hand,,survey-multi-choice,235,645191,0.0-6.0,0,0,85937,,1432.0,"{""Q0"":""Left""}",,,,,,,,,,,,,,,,,,,,,,,,,,,,,,,,,,
236,,debreif_native_language,,survey-multi-choice,236,646708,0.0-7.0,0,0,85937,,1516.0,"{""Q0"":""Yes""}",,,,,,,,,,,,,,,,,,,,,,,,,,,,,,,,,,
237,,debreif_fluency,,survey-likert,237,648225,0.0-8.0,0,0,85937,,1515.0,"{""Q0"":1}",,,,,,,,,,,,,,,,,,,,,,,,,,,,,,,,,,
238,,debreif_strategy_category_learning,,survey-text,238,650425,0.0-9.0,0,0,85937,,2200.0,"{""Q0"":""0""}",,,,,,,,,,,,,,,,,,,,,,,,,,,,,,,,,,
239,,debreif_strategy_old_trials,,survey-text,239,651776,0.0-10.0,0,0,85937,,1351.0,"{""Q0"":""9""}",,,,,,,,,,,,,,,,,,,,,,,,,,,,,,,,,,
240,,debreif_strategy_size,,survey-text,240,653058,0.0-11.0,0,0,85937,,1282.0,"{""Q0"":""8""}",,,,,,,,,,,,,,,,,,,,,,,,,,,,,,,,,,
241,,debreif_strategy_rl,,survey-text,241,654575,0.0-12.0,0,0,85937,,1516.0,"{""Q0"":""8""}",,,,,,,,,,,,,,,,,,,,,,,,,,,,,,,,,,
242,,debreif_clear_instructions,,survey-text,242,656209,0.0-13.0,0,0,85937,,1633.0,"{""Q0"":""7""}",,,,,,,,,,,,,,,,,,,,,,,,,,,,,,,,,,
243,,debreif_end,,html-keyboard-response,243,659680,0.0-14.0,0,0,85937,,3471.0,,,32.0,,,,,,,,,,,,,,,,,,,,,,,,,,,,,,,,
