,success,ttype,start_time,trial_type,trial_index,time_elapsed,internal_node_id,warning,missed_checkup,PID,view_history,rt,responses,repeat_instructions,key_press,index,trial_num,block,iti,pair_type,high_size_on_left,left_size_group,right_size_group,left_size_num,right_size_num,left_category,right_category,left_exemplar,right_exemplar,left_index,right_index,left_img_path,right_img_path,left_chosen,chosen_category,unchosen_category,chosen_size_group,unchosen_size_group,chosen_size_num,unchosen_size_num,chosen_exemplar,unchosen_exemplar,accuracy,no_response,onset,duration,no_resposne,size_final_tally
0,True,full_screen,d05312022hr1800,fullscreen,0,2118,0.0-0.0,0,0,1,,,,,,,,,,,,,,,,,,,,,,,,,,,,,,,,,,,,,,
1,,size_instructions,,instructions,1,4600,0.0-1.0-0.0-0.0,0,0,1,"[{""page_index"":0,""viewing_time"":1600},{""page_index"":1,""viewing_time"":181},{""page_index"":2,""viewing_time"":196},{""page_index"":3,""viewing_time"":158},{""page_index"":4,""viewing_time"":167},{""page_index"":5,""viewing_time"":178}]",2480.0,,,,,,,,,,,,,,,,,,,,,,,,,,,,,,,,,,,,
2,,size_comprehension_check,,survey-multi-choice,2,20040,0.0-1.0-0.0-1.0,0,0,1,,15431.0,"{""Q0"":""True"",""Q1"":""Size in the real world"",""Q2"":""True"",""Q3"":""D for left and K for right""}",0.0,,,,,,,,,,,,,,,,,,,,,,,,,,,,,,,,,,
3,,,,html-keyboard-response,3,21637,0.0-1.0-1.0,0,0,1,,1595.0,,,68.0,,,,,,,,,,,,,,,,,,,,,,,,,,,,,,,,,
4,,size_choice,,html-keyboard-response,4,22104,0.0-1.0-2.0,0,0,1,,465.0,,,68.0,0.0,0.0,1.0,1500.0,S-M,1.0,M,S,2.0,1.0,hairdryer,paperclip,hairdryer8,paperclip1,77.0,110.0,/static/Size_judgement/Stimuli/Size_stims/M/hairdryer/hairdryer1.jpg,/static/Size_judgement/Stimuli/Size_stims/S/paperclip/paperclip9.jpg,1.0,hairdryer,paperclip,M,S,2.0,1.0,hairdryer8,paperclip1,1.0,0.0,0.465,0.465,,
5,,size_choice_confirmation,,html-keyboard-response,5,23146,0.0-1.0-3.0-0.0,0,0,1,,,,,,0.0,,,,,,,,,,,,,,,,,,,,,,,,,,,,,1.5,1.035,,
6,,iti,,html-keyboard-response,6,24648,0.0-1.0-4.0,0,0,1,,,,,,,,,,,,,,,,,,,,,,,,,,,,,,,,,,,3.0,1.5,,
7,,size_choice,,html-keyboard-response,7,24742,0.0-1.0-6.0,0,0,1,,93.0,,,68.0,1.0,1.0,1.0,1000.0,S-XL,0.0,S,XL,1.0,4.0,die,van,die5,van5,104.0,194.0,/static/Size_judgement/Stimuli/Size_stims/S/die/die3.jpg,/static/Size_judgement/Stimuli/Size_stims/XL/van/van3.jpg,1.0,die,van,S,XL,1.0,4.0,die5,van5,0.0,0.0,3.093,0.093,,
8,,size_choice_confirmation,,html-keyboard-response,8,26152,0.0-1.0-7.0-0.0,0,0,1,,,,,,1.0,,,,,,,,,,,,,,,,,,,,,,,,,,,,,4.5,1.407,,
9,,iti,,html-keyboard-response,9,27156,0.0-1.0-8.0,0,0,1,,,,,,,,,,,,,,,,,,,,,,,,,,,,,,,,,,,5.5,1.0,,
10,,size_choice,,html-keyboard-response,10,27687,0.0-1.0-10.0,0,0,1,,529.0,,,68.0,2.0,2.0,1.0,1000.0,S-L,1.0,L,S,3.0,1.0,dishwasher,thread,dishwasher8,thread1,27.0,140.0,/static/Size_judgement/Stimuli/Size_stims/L/dishwasher/dishwasher3.jpg,/static/Size_judgement/Stimuli/Size_stims/S/thread/thread7.jpg,1.0,dishwasher,thread,L,S,3.0,1.0,dishwasher8,thread1,1.0,0.0,6.029,0.529,,
11,,size_choice_confirmation,,html-keyboard-response,11,28662,0.0-1.0-11.0-0.0,0,0,1,,,,,,2.0,,,,,,,,,,,,,,,,,,,,,,,,,,,,,7.0,0.971,,
12,,iti,,html-keyboard-response,12,29665,0.0-1.0-12.0,0,0,1,,,,,,,,,,,,,,,,,,,,,,,,,,,,,,,,,,,8.0,1.0,,
13,,size_choice,,html-keyboard-response,13,30045,0.0-1.0-14.0,0,0,1,,379.0,,,68.0,3.0,3.0,1.0,1500.0,M-XL,1.0,XL,M,4.0,2.0,van,basketball,van4,basketball9,193.0,58.0,/static/Size_judgement/Stimuli/Size_stims/XL/van/van7.jpg,/static/Size_judgement/Stimuli/Size_stims/M/basketball/basketball5.jpg,1.0,van,basketball,XL,M,4.0,2.0,van4,basketball9,1.0,0.0,8.379,0.379,,
14,,size_choice_confirmation,,html-keyboard-response,14,31171,0.0-1.0-15.0-0.0,0,0,1,,,,,,3.0,,,,,,,,,,,,,,,,,,,,,,,,,,,,,9.5,1.121,,
15,,iti,,html-keyboard-response,15,32673,0.0-1.0-16.0,0,0,1,,,,,,,,,,,,,,,,,,,,,,,,,,,,,,,,,,,11.0,1.5,,
16,,size_choice,,html-keyboard-response,16,33007,0.0-1.0-18.0,0,0,1,,332.0,,,68.0,4.0,4.0,1.0,1500.0,M-XL,1.0,XL,M,4.0,2.0,crane,handsaw,crane4,handsaw4,163.0,83.0,/static/Size_judgement/Stimuli/Size_stims/XL/crane/crane5.jpg,/static/Size_judgement/Stimuli/Size_stims/M/handsaw/handsaw3.jpg,1.0,crane,handsaw,XL,M,4.0,2.0,crane4,handsaw4,1.0,0.0,11.332,0.332,,
17,,size_choice_confirmation,,html-keyboard-response,17,34178,0.0-1.0-19.0-0.0,0,0,1,,,,,,4.0,,,,,,,,,,,,,,,,,,,,,,,,,,,,,12.5,1.168,,
18,,iti,,html-keyboard-response,18,35683,0.0-1.0-20.0,0,0,1,,,,,,,,,,,,,,,,,,,,,,,,,,,,,,,,,,,14.0,1.5,,
19,,size_choice,,html-keyboard-response,19,36374,0.0-1.0-22.0,0,0,1,,691.0,,,68.0,5.0,5.0,1.0,1000.0,M-L,1.0,L,M,3.0,2.0,deskchair,handsaw,deskchair9,handsaw9,18.0,88.0,/static/Size_judgement/Stimuli/Size_stims/L/deskchair/deskchair3.jpg,/static/Size_judgement/Stimuli/Size_stims/M/handsaw/handsaw6.jpg,1.0,deskchair,handsaw,L,M,3.0,2.0,deskchair9,handsaw9,1.0,0.0,14.691,0.691,,
20,,size_choice_confirmation,,html-keyboard-response,20,37186,0.0-1.0-23.0-0.0,0,0,1,,,,,,5.0,,,,,,,,,,,,,,,,,,,,,,,,,,,,,15.5,0.809,,
21,,iti,,html-keyboard-response,21,38191,0.0-1.0-24.0,0,0,1,,,,,,,,,,,,,,,,,,,,,,,,,,,,,,,,,,,16.5,1.0,,
22,,size_choice,,html-keyboard-response,22,38509,0.0-1.0-26.0,0,0,1,,316.0,,,68.0,6.0,6.0,1.0,1500.0,M-L,0.0,M,L,2.0,3.0,coffeemaker,mailbox,coffeemaker7,mailbox7,66.0,46.0,/static/Size_judgement/Stimuli/Size_stims/M/coffeemaker/coffeemaker9.jpg,/static/Size_judgement/Stimuli/Size_stims/L/mailbox/mailbox7.jpg,1.0,coffeemaker,mailbox,M,L,2.0,3.0,coffeemaker7,mailbox7,0.0,0.0,16.816,0.316,,
23,,size_choice_confirmation,,html-keyboard-response,23,39696,0.0-1.0-27.0-0.0,0,0,1,,,,,,6.0,,,,,,,,,,,,,,,,,,,,,,,,,,,,,18.0,1.184,,
24,,iti,,html-keyboard-response,24,41199,0.0-1.0-28.0,0,0,1,,,,,,,,,,,,,,,,,,,,,,,,,,,,,,,,,,,19.5,1.5,,
25,,size_choice,,html-keyboard-response,25,41838,0.0-1.0-30.0,0,0,1,,638.0,,,68.0,7.0,7.0,1.0,1500.0,M-L,1.0,L,M,3.0,2.0,deskchair,ketchup,deskchair10,ketchup3,19.0,92.0,/static/Size_judgement/Stimuli/Size_stims/L/deskchair/deskchair2.jpg,/static/Size_judgement/Stimuli/Size_stims/M/ketchup/ketchup10.jpg,1.0,deskchair,ketchup,L,M,3.0,2.0,deskchair10,ketchup3,1.0,0.0,20.138,0.638,,
26,,size_choice_confirmation,,html-keyboard-response,26,42706,0.0-1.0-31.0-0.0,0,0,1,,,,,,7.0,,,,,,,,,,,,,,,,,,,,,,,,,,,,,21.0,0.862,,
27,,iti,,html-keyboard-response,27,44210,0.0-1.0-32.0,0,0,1,,,,,,,,,,,,,,,,,,,,,,,,,,,,,,,,,,,22.5,1.5,,
28,,size_choice,,html-keyboard-response,28,44687,0.0-1.0-34.0,0,0,1,,476.0,,,68.0,8.0,8.0,1.0,2000.0,S-L,1.0,L,S,3.0,1.0,cooler,paperclip,cooler8,paperclip3,7.0,112.0,/static/Size_judgement/Stimuli/Size_stims/L/cooler/cooler5.jpg,/static/Size_judgement/Stimuli/Size_stims/S/paperclip/paperclip1.jpg,1.0,cooler,paperclip,L,S,3.0,1.0,cooler8,paperclip3,1.0,0.0,22.976,0.476,,
29,,size_choice_confirmation,,html-keyboard-response,29,45715,0.0-1.0-35.0-0.0,0,0,1,,,,,,8.0,,,,,,,,,,,,,,,,,,,,,,,,,,,,,24.0,1.024,,
30,,iti,,html-keyboard-response,30,47720,0.0-1.0-36.0,0,0,1,,,,,,,,,,,,,,,,,,,,,,,,,,,,,,,,,,,26.0,2.0,,
31,,size_choice,,html-keyboard-response,31,48263,0.0-1.0-38.0,0,0,1,,542.0,,,68.0,9.0,9.0,1.0,1500.0,M-L,0.0,M,L,2.0,3.0,basketball,garbagecan,basketball10,garbagecan5,59.0,34.0,/static/Size_judgement/Stimuli/Size_stims/M/basketball/basketball4.jpg,/static/Size_judgement/Stimuli/Size_stims/L/garbagecan/garbagecan3.jpg,1.0,basketball,garbagecan,M,L,2.0,3.0,basketball10,garbagecan5,0.0,0.0,26.542,0.542,,
32,,size_choice_confirmation,,html-keyboard-response,32,49223,0.0-1.0-39.0-0.0,0,0,1,,,,,,9.0,,,,,,,,,,,,,,,,,,,,,,,,,,,,,27.5,0.958,,
33,,iti,,html-keyboard-response,33,50728,0.0-1.0-40.0,0,0,1,,,,,,,,,,,,,,,,,,,,,,,,,,,,,,,,,,,29.0,1.5,,
34,,size_choice,,html-keyboard-response,34,51457,0.0-1.0-42.0,0,0,1,,728.0,,,68.0,10.0,10.0,1.0,2000.0,S-L,1.0,L,S,3.0,1.0,dishwasher,teabag,dishwasher1,teabag5,20.0,134.0,/static/Size_judgement/Stimuli/Size_stims/L/dishwasher/dishwasher10.jpg,/static/Size_judgement/Stimuli/Size_stims/S/teabag/teabag2.jpg,1.0,dishwasher,teabag,L,S,3.0,1.0,dishwasher1,teabag5,1.0,0.0,29.728,0.728,,
35,,size_choice_confirmation,,html-keyboard-response,35,52232,0.0-1.0-43.0-0.0,0,0,1,,,,,,10.0,,,,,,,,,,,,,,,,,,,,,,,,,,,,,30.5,0.772,,
36,,iti,,html-keyboard-response,36,54235,0.0-1.0-44.0,0,0,1,,,,,,,,,,,,,,,,,,,,,,,,,,,,,,,,,,,32.5,2.0,,
37,,size_choice,,html-keyboard-response,37,54973,0.0-1.0-46.0,0,0,1,,738.0,,,68.0,11.0,11.0,1.0,1000.0,S-S,,S,S,1.0,1.0,thread,die,thread10,die4,149.0,103.0,/static/Size_judgement/Stimuli/Size_stims/S/thread/thread9.jpg,/static/Size_judgement/Stimuli/Size_stims/S/die/die2.jpg,1.0,thread,die,S,S,1.0,1.0,thread10,die4,,0.0,33.238,0.738,,
38,,size_choice_confirmation,,html-keyboard-response,38,55736,0.0-1.0-47.0-0.0,0,0,1,,,,,,11.0,,,,,,,,,,,,,,,,,,,,,,,,,,,,,34.0,0.762,,
39,,iti,,html-keyboard-response,39,56739,0.0-1.0-48.0,0,0,1,,,,,,,,,,,,,,,,,,,,,,,,,,,,,,,,,,,35.0,1.0,,
40,,size_choice,,html-keyboard-response,40,57582,0.0-1.0-50.0,0,0,1,,842.0,,,68.0,12.0,12.0,1.0,1000.0,S-XL,0.0,S,XL,1.0,4.0,teabag,crane,teabag6,crane6,135.0,165.0,/static/Size_judgement/Stimuli/Size_stims/S/teabag/teabag6.jpg,/static/Size_judgement/Stimuli/Size_stims/XL/crane/crane2.jpg,1.0,teabag,crane,S,XL,1.0,4.0,teabag6,crane6,0.0,0.0,35.842,0.842,,
41,,size_choice_confirmation,,html-keyboard-response,41,58245,0.0-1.0-51.0-0.0,0,0,1,,,,,,12.0,,,,,,,,,,,,,,,,,,,,,,,,,,,,,36.5,0.658,,
42,,iti,,html-keyboard-response,42,59251,0.0-1.0-52.0,0,0,1,,,,,,,,,,,,,,,,,,,,,,,,,,,,,,,,,,,37.5,1.0,,
43,,size_choice,,html-keyboard-response,43,59261,0.0-1.0-54.0,0,0,1,,9.0,,,68.0,13.0,13.0,1.0,1500.0,S-M,0.0,S,M,1.0,2.0,paperclip,ketchup,paperclip2,ketchup7,111.0,96.0,/static/Size_judgement/Stimuli/Size_stims/S/paperclip/paperclip8.jpg,/static/Size_judgement/Stimuli/Size_stims/M/ketchup/ketchup4.jpg,1.0,paperclip,ketchup,S,M,1.0,2.0,paperclip2,ketchup7,0.0,0.0,37.509,0.009,,
44,,size_choice_confirmation,,html-keyboard-response,44,60756,0.0-1.0-55.0-0.0,0,0,1,,,,,,13.0,,,,,,,,,,,,,,,,,,,,,,,,,,,,,39.0,1.491,,
45,,iti,,html-keyboard-response,45,62257,0.0-1.0-56.0,0,0,1,,,,,,,,,,,,,,,,,,,,,,,,,,,,,,,,,,,40.5,1.5,,
46,,size_choice,,html-keyboard-response,46,62334,0.0-1.0-58.0,0,0,1,,75.0,,,68.0,14.0,14.0,1.0,2000.0,S-L,0.0,S,L,1.0,3.0,thread,garbagecan,thread6,garbagecan8,145.0,37.0,/static/Size_judgement/Stimuli/Size_stims/S/thread/thread2.jpg,/static/Size_judgement/Stimuli/Size_stims/L/garbagecan/garbagecan13.jpg,1.0,thread,garbagecan,S,L,1.0,3.0,thread6,garbagecan8,0.0,0.0,40.575,0.075,,
47,,size_choice_confirmation,,html-keyboard-response,47,63762,0.0-1.0-59.0-0.0,0,0,1,,,,,,14.0,,,,,,,,,,,,,,,,,,,,,,,,,,,,,42.0,1.425,,
48,,iti,,html-keyboard-response,48,65767,0.0-1.0-60.0,0,0,1,,,,,,,,,,,,,,,,,,,,,,,,,,,,,,,,,,,44.0,2.0,,
49,,size_choice,,html-keyboard-response,49,66184,0.0-1.0-62.0,0,0,1,,416.0,,,68.0,15.0,15.0,1.0,1000.0,S-L,0.0,S,L,1.0,3.0,screws,dishwasher,screws4,dishwasher2,123.0,21.0,/static/Size_judgement/Stimuli/Size_stims/S/screws/screws6.jpg,/static/Size_judgement/Stimuli/Size_stims/L/dishwasher/dishwasher9.jpg,1.0,screws,dishwasher,S,L,1.0,3.0,screws4,dishwasher2,0.0,0.0,44.416,0.416,,
50,,size_choice_confirmation,,html-keyboard-response,50,67273,0.0-1.0-63.0-0.0,0,0,1,,,,,,15.0,,,,,,,,,,,,,,,,,,,,,,,,,,,,,45.5,1.084,,
51,,iti,,html-keyboard-response,51,68279,0.0-1.0-64.0,0,0,1,,,,,,,,,,,,,,,,,,,,,,,,,,,,,,,,,,,46.5,1.0,,
52,,size_choice,,html-keyboard-response,52,68525,0.0-1.0-66.0,0,0,1,,245.0,,,68.0,16.0,16.0,1.0,3000.0,XL-XL,,XL,XL,4.0,4.0,dumptruck,crane,dumptruck9,crane9,178.0,168.0,/static/Size_judgement/Stimuli/Size_stims/XL/dumptruck/dumptruck5.jpg,/static/Size_judgement/Stimuli/Size_stims/XL/crane/crane8.jpg,1.0,dumptruck,crane,XL,XL,4.0,4.0,dumptruck9,crane9,,0.0,46.745,0.245,,
53,,size_choice_confirmation,,html-keyboard-response,53,69782,0.0-1.0-67.0-0.0,0,0,1,,,,,,16.0,,,,,,,,,,,,,,,,,,,,,,,,,,,,,48.0,1.255,,
54,,iti,,html-keyboard-response,54,72785,0.0-1.0-68.0,0,0,1,,,,,,,,,,,,,,,,,,,,,,,,,,,,,,,,,,,51.0,3.0,,
55,,size_choice,,html-keyboard-response,55,73205,0.0-1.0-70.0,0,0,1,,418.0,,,68.0,17.0,17.0,1.0,1000.0,L-L,,L,L,3.0,3.0,deskchair,mailbox,deskchair2,mailbox5,11.0,44.0,/static/Size_judgement/Stimuli/Size_stims/L/deskchair/deskchair8.jpg,/static/Size_judgement/Stimuli/Size_stims/L/mailbox/mailbox4.jpg,1.0,deskchair,mailbox,L,L,3.0,3.0,deskchair2,mailbox5,,0.0,51.418,0.418,,
56,,size_choice_confirmation,,html-keyboard-response,56,74291,0.0-1.0-71.0-0.0,0,0,1,,,,,,17.0,,,,,,,,,,,,,,,,,,,,,,,,,,,,,52.5,1.082,,
57,,iti,,html-keyboard-response,57,75292,0.0-1.0-72.0,0,0,1,,,,,,,,,,,,,,,,,,,,,,,,,,,,,,,,,,,53.5,1.0,,
58,,size_choice,,html-keyboard-response,58,76795,0.0-1.0-74.0,0,0,1,,,,,,18.0,18.0,1.0,3000.0,M-XL,1.0,XL,M,4.0,2.0,van,coffeemaker,van2,coffeemaker8,191.0,67.0,/static/Size_judgement/Stimuli/Size_stims/XL/van/van4.jpg,/static/Size_judgement/Stimuli/Size_stims/M/coffeemaker/coffeemaker5.jpg,,,,,,,,,,,,55.0,1.5,1.0,
59,,iti,,html-keyboard-response,59,79801,0.0-1.0-76.0,0,0,1,,,,,,,,,,,,,,,,,,,,,,,,,,,,,,,,,,,58.0,3.0,,
60,,size_choice,,html-keyboard-response,60,79862,0.0-1.0-78.0,0,0,1,,60.0,,,68.0,19.0,19.0,1.0,1000.0,M-XL,1.0,XL,M,4.0,2.0,tractor,handsaw,tractor6,handsaw1,185.0,80.0,/static/Size_judgement/Stimuli/Size_stims/XL/tractor/tractor3.jpg,/static/Size_judgement/Stimuli/Size_stims/M/handsaw/handsaw8.jpg,1.0,tractor,handsaw,XL,M,4.0,2.0,tractor6,handsaw1,1.0,0.0,58.06,0.06,,
61,,size_choice_confirmation,,html-keyboard-response,61,81307,0.0-1.0-79.0-0.0,0,0,1,,,,,,19.0,,,,,,,,,,,,,,,,,,,,,,,,,,,,,59.5,1.44,,
62,,iti,,html-keyboard-response,62,82312,0.0-1.0-80.0,0,0,1,,,,,,,,,,,,,,,,,,,,,,,,,,,,,,,,,,,60.5,1.0,,
63,,size_choice,,html-keyboard-response,63,83815,0.0-1.0-82.0,0,0,1,,,,,,20.0,20.0,1.0,1000.0,M-XL,0.0,M,XL,2.0,4.0,hairdryer,van,hairdryer9,van1,78.0,190.0,/static/Size_judgement/Stimuli/Size_stims/M/hairdryer/hairdryer5.jpg,/static/Size_judgement/Stimuli/Size_stims/XL/van/van5.jpg,,,,,,,,,,,,62.0,1.5,1.0,
64,,iti,,html-keyboard-response,64,84822,0.0-1.0-84.0,0,0,1,,,,,,,,,,,,,,,,,,,,,,,,,,,,,,,,,,,63.0,1.0,,
65,,size_choice,,html-keyboard-response,65,85122,0.0-1.0-86.0,0,0,1,,299.0,,,68.0,21.0,21.0,1.0,1000.0,S-M,0.0,S,M,1.0,2.0,die,hairdryer,die6,hairdryer4,105.0,73.0,/static/Size_judgement/Stimuli/Size_stims/S/die/die1.jpg,/static/Size_judgement/Stimuli/Size_stims/M/hairdryer/hairdryer16.jpg,1.0,die,hairdryer,S,M,1.0,2.0,die6,hairdryer4,0.0,0.0,63.299,0.299,,
66,,size_choice_confirmation,,html-keyboard-response,66,86327,0.0-1.0-87.0-0.0,0,0,1,,,,,,21.0,,,,,,,,,,,,,,,,,,,,,,,,,,,,,64.5,1.201,,
67,,iti,,html-keyboard-response,67,87330,0.0-1.0-88.0,0,0,1,,,,,,,,,,,,,,,,,,,,,,,,,,,,,,,,,,,65.5,1.0,,
68,,size_choice,,html-keyboard-response,68,87656,0.0-1.0-90.0,0,0,1,,324.0,,,68.0,22.0,22.0,1.0,1000.0,S-L,1.0,L,S,3.0,1.0,mailbox,teabag,mailbox3,teabag8,42.0,137.0,/static/Size_judgement/Stimuli/Size_stims/L/mailbox/mailbox1.jpg,/static/Size_judgement/Stimuli/Size_stims/S/teabag/teabag7.jpg,1.0,mailbox,teabag,L,S,3.0,1.0,mailbox3,teabag8,1.0,0.0,65.824,0.324,,
69,,size_choice_confirmation,,html-keyboard-response,69,88834,0.0-1.0-91.0-0.0,0,0,1,,,,,,22.0,,,,,,,,,,,,,,,,,,,,,,,,,,,,,67.0,1.176,,
70,,iti,,html-keyboard-response,70,89839,0.0-1.0-92.0,0,0,1,,,,,,,,,,,,,,,,,,,,,,,,,,,,,,,,,,,68.0,1.0,,
71,,size_choice,,html-keyboard-response,71,90725,0.0-1.0-94.0,0,0,1,,884.0,,,68.0,23.0,23.0,1.0,1500.0,M-XL,1.0,XL,M,4.0,2.0,tractor,basketball,tractor4,basketball4,183.0,53.0,/static/Size_judgement/Stimuli/Size_stims/XL/tractor/tractor4.jpg,/static/Size_judgement/Stimuli/Size_stims/M/basketball/basketball1.jpg,1.0,tractor,basketball,XL,M,4.0,2.0,tractor4,basketball4,1.0,0.0,68.884,0.884,,
72,,size_choice_confirmation,,html-keyboard-response,72,91344,0.0-1.0-95.0-0.0,0,0,1,,,,,,23.0,,,,,,,,,,,,,,,,,,,,,,,,,,,,,69.5,0.616,,
73,,iti,,html-keyboard-response,73,92845,0.0-1.0-96.0,0,0,1,,,,,,,,,,,,,,,,,,,,,,,,,,,,,,,,,,,71.0,1.5,,
74,,size_choice,,html-keyboard-response,74,94349,0.0-1.0-98.0,0,0,1,,,,,,24.0,24.0,1.0,2000.0,S-XL,1.0,XL,S,4.0,1.0,dumptruck,die,dumptruck6,die8,175.0,107.0,/static/Size_judgement/Stimuli/Size_stims/XL/dumptruck/dumptruck2.jpg,/static/Size_judgement/Stimuli/Size_stims/S/die/die5.jpg,,,,,,,,,,,,72.5,1.5,1.0,
75,,iti,,html-keyboard-response,75,96352,0.0-1.0-100.0,0,0,1,,,,,,,,,,,,,,,,,,,,,,,,,,,,,,,,,,,74.5,2.0,,
76,,size_choice,,html-keyboard-response,76,97859,0.0-1.0-102.0,0,0,1,,,,,,25.0,25.0,1.0,1000.0,S-XL,1.0,XL,S,4.0,1.0,van,die,van10,die10,199.0,109.0,/static/Size_judgement/Stimuli/Size_stims/XL/van/van8.jpg,/static/Size_judgement/Stimuli/Size_stims/S/die/die6.jpg,,,,,,,,,,,,76.0,1.5,1.0,
77,,iti,,html-keyboard-response,77,98862,0.0-1.0-104.0,0,0,1,,,,,,,,,,,,,,,,,,,,,,,,,,,,,,,,,,,77.0,1.0,,
78,,size_choice,,html-keyboard-response,78,100367,0.0-1.0-106.0,0,0,1,,,,,,26.0,26.0,1.0,2000.0,M-M,,M,M,2.0,2.0,coffeemaker,hairdryer,coffeemaker5,hairdryer1,64.0,70.0,/static/Size_judgement/Stimuli/Size_stims/M/coffeemaker/coffeemaker10.jpg,/static/Size_judgement/Stimuli/Size_stims/M/hairdryer/hairdryer11.jpg,,,,,,,,,,,,78.5,1.5,1.0,
79,,iti,,html-keyboard-response,79,102371,0.0-1.0-108.0,0,0,1,,,,,,,,,,,,,,,,,,,,,,,,,,,,,,,,,,,80.5,2.0,,
80,,size_choice,,html-keyboard-response,80,102968,0.0-1.0-110.0,0,0,1,,596.0,,,68.0,27.0,27.0,1.0,3000.0,XL-XL,,XL,XL,4.0,4.0,car,dumptruck,car7,dumptruck2,156.0,171.0,/static/Size_judgement/Stimuli/Size_stims/XL/car/car13.jpg,/static/Size_judgement/Stimuli/Size_stims/XL/dumptruck/dumptruck8.jpg,1.0,car,dumptruck,XL,XL,4.0,4.0,car7,dumptruck2,,0.0,81.096,0.596,,
81,,size_choice_confirmation,,html-keyboard-response,81,103881,0.0-1.0-111.0-0.0,0,0,1,,,,,,27.0,,,,,,,,,,,,,,,,,,,,,,,,,,,,,82.0,0.904,,
82,,iti,,html-keyboard-response,82,106884,0.0-1.0-112.0,0,0,1,,,,,,,,,,,,,,,,,,,,,,,,,,,,,,,,,,,85.0,3.0,,
83,,size_choice,,html-keyboard-response,83,107523,0.0-1.0-114.0,0,0,1,,637.0,,,68.0,28.0,28.0,1.0,1000.0,M-L,1.0,L,M,3.0,2.0,mailbox,ketchup,mailbox2,ketchup6,41.0,95.0,/static/Size_judgement/Stimuli/Size_stims/L/mailbox/mailbox2.jpg,/static/Size_judgement/Stimuli/Size_stims/M/ketchup/ketchup1.jpg,1.0,mailbox,ketchup,L,M,3.0,2.0,mailbox2,ketchup6,1.0,0.0,85.637,0.637,,
84,,size_choice_confirmation,,html-keyboard-response,84,108395,0.0-1.0-115.0-0.0,0,0,1,,,,,,28.0,,,,,,,,,,,,,,,,,,,,,,,,,,,,,86.5,0.863,,
85,,iti,,html-keyboard-response,85,109400,0.0-1.0-116.0,0,0,1,,,,,,,,,,,,,,,,,,,,,,,,,,,,,,,,,,,87.5,1.0,,
86,,size_choice,,html-keyboard-response,86,110448,0.0-1.0-118.0,0,0,1,,1046.0,,,68.0,29.0,29.0,1.0,3500.0,L-XL,1.0,XL,L,4.0,3.0,van,cooler,van7,cooler5,196.0,4.0,/static/Size_judgement/Stimuli/Size_stims/XL/van/van1.jpg,/static/Size_judgement/Stimuli/Size_stims/L/cooler/cooler10.jpg,1.0,van,cooler,XL,L,4.0,3.0,van7,cooler5,1.0,0.0,88.546,1.046,,
87,,size_choice_confirmation,,html-keyboard-response,87,110912,0.0-1.0-119.0-0.0,0,0,1,,,,,,29.0,,,,,,,,,,,,,,,,,,,,,,,,,,,,,89.0,0.454,,
88,,iti,,html-keyboard-response,88,114414,0.0-1.0-120.0,0,0,1,,,,,,,,,,,,,,,,,,,,,,,,,,,,,,,,,,,92.5,3.5,,
89,,size_choice,,html-keyboard-response,89,115245,0.0-1.0-122.0,0,0,1,,828.0,,,68.0,30.0,30.0,1.0,1000.0,S-S,,S,S,1.0,1.0,paperclip,teabag,paperclip9,teabag2,118.0,131.0,/static/Size_judgement/Stimuli/Size_stims/S/paperclip/paperclip4.jpg,/static/Size_judgement/Stimuli/Size_stims/S/teabag/teabag8.jpg,1.0,paperclip,teabag,S,S,1.0,1.0,paperclip9,teabag2,,0.0,93.328,0.828,,
90,,size_choice_confirmation,,html-keyboard-response,90,115926,0.0-1.0-123.0-0.0,0,0,1,,,,,,30.0,,,,,,,,,,,,,,,,,,,,,,,,,,,,,94.0,0.672,,
91,,iti,,html-keyboard-response,91,116946,0.0-1.0-124.0,0,0,1,,,,,,,,,,,,,,,,,,,,,,,,,,,,,,,,,,,95.0,1.0,,
92,,size_choice,,html-keyboard-response,92,117173,0.0-1.0-126.0,0,0,1,,224.0,,,68.0,31.0,31.0,1.0,1500.0,S-S,,S,S,1.0,1.0,thread,screws,thread4,screws8,143.0,127.0,/static/Size_judgement/Stimuli/Size_stims/S/thread/thread5.jpg,/static/Size_judgement/Stimuli/Size_stims/S/screws/screws10.jpg,1.0,thread,screws,S,S,1.0,1.0,thread4,screws8,,0.0,95.224,0.224,,
93,,size_choice_confirmation,,html-keyboard-response,93,118457,0.0-1.0-127.0-0.0,0,0,1,,,,,,31.0,,,,,,,,,,,,,,,,,,,,,,,,,,,,,96.5,1.276,,
94,,iti,,html-keyboard-response,94,119961,0.0-1.0-128.0,0,0,1,,,,,,,,,,,,,,,,,,,,,,,,,,,,,,,,,,,98.0,1.5,,
95,,size_choice,,html-keyboard-response,95,120123,0.0-1.0-130.0,0,0,1,,160.0,,,68.0,32.0,32.0,1.0,2000.0,S-XL,0.0,S,XL,1.0,4.0,die,crane,die7,crane8,106.0,167.0,/static/Size_judgement/Stimuli/Size_stims/S/die/die4.jpg,/static/Size_judgement/Stimuli/Size_stims/XL/crane/crane10.jpg,1.0,die,crane,S,XL,1.0,4.0,die7,crane8,0.0,0.0,98.16,0.16,,
96,,size_choice_confirmation,,html-keyboard-response,96,121466,0.0-1.0-131.0-0.0,0,0,1,,,,,,32.0,,,,,,,,,,,,,,,,,,,,,,,,,,,,,99.5,1.34,,
97,,iti,,html-keyboard-response,97,123470,0.0-1.0-132.0,0,0,1,,,,,,,,,,,,,,,,,,,,,,,,,,,,,,,,,,,101.5,2.0,,
98,,size_choice,,html-keyboard-response,98,123839,0.0-1.0-134.0,0,0,1,,368.0,,,75.0,33.0,33.0,1.0,1000.0,M-M,,M,M,2.0,2.0,hairdryer,handsaw,hairdryer3,handsaw3,72.0,82.0,/static/Size_judgement/Stimuli/Size_stims/M/hairdryer/hairdryer17.jpg,/static/Size_judgement/Stimuli/Size_stims/M/handsaw/handsaw2.jpg,0.0,handsaw,hairdryer,M,M,2.0,2.0,handsaw3,hairdryer3,,0.0,101.868,0.368,,
99,,size_choice_confirmation,,html-keyboard-response,99,124976,0.0-1.0-135.0-0.0,0,0,1,,,,,,33.0,,,,,,,,,,,,,,,,,,,,,,,,,,,,,103.0,1.132,,
100,,iti,,html-keyboard-response,100,125982,0.0-1.0-136.0,0,0,1,,,,,,,,,,,,,,,,,,,,,,,,,,,,,,,,,,,104.0,1.0,,
101,,size_choice,,html-keyboard-response,101,126403,0.0-1.0-138.0,0,0,1,,420.0,,,75.0,34.0,34.0,1.0,1500.0,L-L,,L,L,3.0,3.0,garbagecan,cooler,garbagecan9,cooler1,38.0,0.0,/static/Size_judgement/Stimuli/Size_stims/L/garbagecan/garbagecan12.jpg,/static/Size_judgement/Stimuli/Size_stims/L/cooler/cooler8.jpg,0.0,cooler,garbagecan,L,L,3.0,3.0,cooler1,garbagecan9,,0.0,104.42,0.42,,
102,,size_choice_confirmation,,html-keyboard-response,102,127484,0.0-1.0-139.0-0.0,0,0,1,,,,,,34.0,,,,,,,,,,,,,,,,,,,,,,,,,,,,,105.5,1.08,,
103,,iti,,html-keyboard-response,103,128989,0.0-1.0-140.0,0,0,1,,,,,,,,,,,,,,,,,,,,,,,,,,,,,,,,,,,107.0,1.5,,
104,,size_choice,,html-keyboard-response,104,130495,0.0-1.0-142.0,0,0,1,,,,,,35.0,35.0,1.0,2000.0,S-L,1.0,L,S,3.0,1.0,cooler,teabag,cooler9,teabag1,8.0,130.0,/static/Size_judgement/Stimuli/Size_stims/L/cooler/cooler7.jpg,/static/Size_judgement/Stimuli/Size_stims/S/teabag/teabag9.jpg,,,,,,,,,,,,108.5,1.5,1.0,
105,,iti,,html-keyboard-response,105,132496,0.0-1.0-144.0,0,0,1,,,,,,,,,,,,,,,,,,,,,,,,,,,,,,,,,,,110.5,2.0,,
106,,size_choice,,html-keyboard-response,106,132801,0.0-1.0-146.0,0,0,1,,302.0,,,75.0,36.0,36.0,1.0,3500.0,M-L,1.0,L,M,3.0,2.0,garbagecan,ketchup,garbagecan3,ketchup5,32.0,94.0,/static/Size_judgement/Stimuli/Size_stims/L/garbagecan/garbagecan7.jpg,/static/Size_judgement/Stimuli/Size_stims/M/ketchup/ketchup3.jpg,0.0,ketchup,garbagecan,M,L,2.0,3.0,ketchup5,garbagecan3,0.0,0.0,110.802,0.302,,
107,,size_choice_confirmation,,html-keyboard-response,107,134002,0.0-1.0-147.0-0.0,0,0,1,,,,,,36.0,,,,,,,,,,,,,,,,,,,,,,,,,,,,,112.0,1.198,,
108,,iti,,html-keyboard-response,108,137505,0.0-1.0-148.0,0,0,1,,,,,,,,,,,,,,,,,,,,,,,,,,,,,,,,,,,115.5,3.5,,
109,,size_choice,,html-keyboard-response,109,138382,0.0-1.0-150.0,0,0,1,,876.0,,,75.0,37.0,37.0,1.0,1500.0,M-L,1.0,L,M,3.0,2.0,mailbox,ketchup,mailbox6,ketchup4,45.0,93.0,/static/Size_judgement/Stimuli/Size_stims/L/mailbox/mailbox6.jpg,/static/Size_judgement/Stimuli/Size_stims/M/ketchup/ketchup2.jpg,0.0,ketchup,mailbox,M,L,2.0,3.0,ketchup4,mailbox6,0.0,0.0,116.376,0.876,,
110,,size_choice_confirmation,,html-keyboard-response,110,139011,0.0-1.0-151.0-0.0,0,0,1,,,,,,37.0,,,,,,,,,,,,,,,,,,,,,,,,,,,,,117.0,0.624,,
111,,iti,,html-keyboard-response,111,140514,0.0-1.0-152.0,0,0,1,,,,,,,,,,,,,,,,,,,,,,,,,,,,,,,,,,,118.5,1.5,,
112,,size_choice,,html-keyboard-response,112,141207,0.0-1.0-154.0,0,0,1,,692.0,,,75.0,38.0,38.0,1.0,1000.0,L-L,,L,L,3.0,3.0,mailbox,garbagecan,mailbox8,garbagecan4,47.0,33.0,/static/Size_judgement/Stimuli/Size_stims/L/mailbox/mailbox10.jpg,/static/Size_judgement/Stimuli/Size_stims/L/garbagecan/garbagecan6.jpg,0.0,garbagecan,mailbox,L,L,3.0,3.0,garbagecan4,mailbox8,,0.0,119.192,0.692,,
113,,size_choice_confirmation,,html-keyboard-response,113,142018,0.0-1.0-155.0-0.0,0,0,1,,,,,,38.0,,,,,,,,,,,,,,,,,,,,,,,,,,,,,120.0,0.808,,
114,,iti,,html-keyboard-response,114,143022,0.0-1.0-156.0,0,0,1,,,,,,,,,,,,,,,,,,,,,,,,,,,,,,,,,,,121.0,1.0,,
115,,size_choice,,html-keyboard-response,115,143040,0.0-1.0-158.0,0,0,1,,16.0,,,75.0,39.0,39.0,1.0,1000.0,M-M,,M,M,2.0,2.0,basketball,hairdryer,basketball6,hairdryer7,55.0,76.0,/static/Size_judgement/Stimuli/Size_stims/M/basketball/basketball2.jpg,/static/Size_judgement/Stimuli/Size_stims/M/hairdryer/hairdryer3.jpg,0.0,hairdryer,basketball,M,M,2.0,2.0,hairdryer7,basketball6,,0.0,121.016,0.016,,
116,,size_choice_confirmation,,html-keyboard-response,116,144528,0.0-1.0-159.0-0.0,0,0,1,,,,,,39.0,,,,,,,,,,,,,,,,,,,,,,,,,,,,,122.5,1.484,,
117,,iti,,html-keyboard-response,117,145531,0.0-1.0-160.0,0,0,1,,,,,,,,,,,,,,,,,,,,,,,,,,,,,,,,,,,123.5,1.0,,
118,,size_choice,,html-keyboard-response,118,146743,0.0-1.0-162.0,0,0,1,,1211.0,,,75.0,40.0,40.0,1.0,3000.0,S-XL,1.0,XL,S,4.0,1.0,crane,thread,crane7,thread5,166.0,144.0,/static/Size_judgement/Stimuli/Size_stims/XL/crane/crane3.jpg,/static/Size_judgement/Stimuli/Size_stims/S/thread/thread1.jpg,0.0,thread,crane,S,XL,1.0,4.0,thread5,crane7,0.0,0.0,124.711,1.211,,
119,,size_choice_confirmation,,html-keyboard-response,119,147037,0.0-1.0-163.0-0.0,0,0,1,,,,,,40.0,,,,,,,,,,,,,,,,,,,,,,,,,,,,,125.0,0.289,,
120,,iti,,html-keyboard-response,120,150039,0.0-1.0-164.0,0,0,1,,,,,,,,,,,,,,,,,,,,,,,,,,,,,,,,,,,128.0,3.0,,
121,,size_choice,,html-keyboard-response,121,150098,0.0-1.0-166.0,0,0,1,,59.0,,,75.0,41.0,41.0,1.0,1000.0,S-XL,0.0,S,XL,1.0,4.0,teabag,tractor,teabag7,tractor7,136.0,186.0,/static/Size_judgement/Stimuli/Size_stims/S/teabag/teabag10.jpg,/static/Size_judgement/Stimuli/Size_stims/XL/tractor/tractor2.jpg,0.0,tractor,teabag,XL,S,4.0,1.0,tractor7,teabag7,1.0,0.0,128.059,0.059,,
122,,size_choice_confirmation,,html-keyboard-response,122,151545,0.0-1.0-167.0-0.0,0,0,1,,,,,,41.0,,,,,,,,,,,,,,,,,,,,,,,,,,,,,129.5,1.441,,
123,,iti,,html-keyboard-response,123,152547,0.0-1.0-168.0,0,0,1,,,,,,,,,,,,,,,,,,,,,,,,,,,,,,,,,,,130.5,1.0,,
124,,size_choice,,html-keyboard-response,124,153616,0.0-1.0-170.0,0,0,1,,1068.0,,,75.0,42.0,42.0,1.0,1500.0,L-XL,0.0,L,XL,3.0,4.0,garbagecan,car,garbagecan10,car6,39.0,155.0,/static/Size_judgement/Stimuli/Size_stims/L/garbagecan/garbagecan11.jpg,/static/Size_judgement/Stimuli/Size_stims/XL/car/car12.jpg,0.0,car,garbagecan,XL,L,4.0,3.0,car6,garbagecan10,1.0,0.0,131.568,1.068,,
125,,size_choice_confirmation,,html-keyboard-response,125,154051,0.0-1.0-171.0-0.0,0,0,1,,,,,,42.0,,,,,,,,,,,,,,,,,,,,,,,,,,,,,132.0,0.432,,
126,,iti,,html-keyboard-response,126,155555,0.0-1.0-172.0,0,0,1,,,,,,,,,,,,,,,,,,,,,,,,,,,,,,,,,,,133.5,1.5,,
127,,size_choice,,html-keyboard-response,127,156070,0.0-1.0-174.0,0,0,1,,514.0,,,75.0,43.0,43.0,1.0,3500.0,M-XL,1.0,XL,M,4.0,2.0,car,coffeemaker,car4,coffeemaker9,153.0,68.0,/static/Size_judgement/Stimuli/Size_stims/XL/car/car6.jpg,/static/Size_judgement/Stimuli/Size_stims/M/coffeemaker/coffeemaker7.jpg,0.0,coffeemaker,car,M,XL,2.0,4.0,coffeemaker9,car4,0.0,0.0,134.014,0.514,,
128,,size_choice_confirmation,,html-keyboard-response,128,157060,0.0-1.0-175.0-0.0,0,0,1,,,,,,43.0,,,,,,,,,,,,,,,,,,,,,,,,,,,,,135.0,0.986,,
129,,iti,,html-keyboard-response,129,160564,0.0-1.0-176.0,0,0,1,,,,,,,,,,,,,,,,,,,,,,,,,,,,,,,,,,,138.5,3.5,,
130,,size_choice,,html-keyboard-response,130,161607,0.0-1.0-178.0,0,0,1,,1041.0,,,75.0,44.0,44.0,1.0,2000.0,L-XL,0.0,L,XL,3.0,4.0,cooler,car,cooler4,car5,3.0,154.0,/static/Size_judgement/Stimuli/Size_stims/L/cooler/cooler3.jpg,/static/Size_judgement/Stimuli/Size_stims/XL/car/car11.jpg,0.0,car,cooler,XL,L,4.0,3.0,car5,cooler4,1.0,0.0,139.541,1.041,,
131,,size_choice_confirmation,,html-keyboard-response,131,162072,0.0-1.0-179.0-0.0,0,0,1,,,,,,44.0,,,,,,,,,,,,,,,,,,,,,,,,,,,,,140.0,0.459,,
132,,iti,,html-keyboard-response,132,164076,0.0-1.0-180.0,0,0,1,,,,,,,,,,,,,,,,,,,,,,,,,,,,,,,,,,,142.0,2.0,,
133,,block_over,,html-keyboard-response,133,188687,0.0-1.0-181.0-0.0,0,0,1,,24599.0,,,68.0,44.0,,,,,,,,,,,,,,,,,,,,,,,,,,,,,,,,
134,,size_choice,,html-keyboard-response,134,189853,0.0-1.0-182.0,0,0,1,,1165.0,,,75.0,45.0,45.0,2.0,3500.0,S-M,0.0,S,M,1.0,2.0,screws,handsaw,screws5,handsaw6,124.0,85.0,/static/Size_judgement/Stimuli/Size_stims/S/screws/screws2.jpg,/static/Size_judgement/Stimuli/Size_stims/M/handsaw/handsaw4.jpg,0.0,handsaw,screws,M,S,2.0,1.0,handsaw6,screws5,1.0,0.0,143.165,1.165,,
135,,size_choice_confirmation,,html-keyboard-response,135,190194,0.0-1.0-183.0-0.0,0,0,1,,,,,,45.0,,,,,,,,,,,,,,,,,,,,,,,,,,,,,143.5,0.335,,
136,,iti,,html-keyboard-response,136,193697,0.0-1.0-184.0,0,0,1,,,,,,,,,,,,,,,,,,,,,,,,,,,,,,,,,,,147.0,3.5,,
137,,size_choice,,html-keyboard-response,137,193785,0.0-1.0-186.0,0,0,1,,86.0,,,75.0,46.0,46.0,2.0,1000.0,S-S,,S,S,1.0,1.0,screws,paperclip,screws9,paperclip6,128.0,115.0,/static/Size_judgement/Stimuli/Size_stims/S/screws/screws8.jpg,/static/Size_judgement/Stimuli/Size_stims/S/paperclip/paperclip6.jpg,0.0,paperclip,screws,S,S,1.0,1.0,paperclip6,screws9,,0.0,147.086,0.086,,
138,,size_choice_confirmation,,html-keyboard-response,138,195205,0.0-1.0-187.0-0.0,0,0,1,,,,,,46.0,,,,,,,,,,,,,,,,,,,,,,,,,,,,,148.5,1.414,,
139,,iti,,html-keyboard-response,139,196209,0.0-1.0-188.0,0,0,1,,,,,,,,,,,,,,,,,,,,,,,,,,,,,,,,,,,149.5,1.0,,
140,,size_choice,,html-keyboard-response,140,196604,0.0-1.0-190.0,0,0,1,,394.0,,,75.0,47.0,47.0,2.0,2000.0,M-XL,1.0,XL,M,4.0,2.0,crane,basketball,crane5,basketball5,164.0,54.0,/static/Size_judgement/Stimuli/Size_stims/XL/crane/crane1.jpg,/static/Size_judgement/Stimuli/Size_stims/M/basketball/basketball3.jpg,0.0,basketball,crane,M,XL,2.0,4.0,basketball5,crane5,0.0,0.0,149.894,0.394,,
141,,size_choice_confirmation,,html-keyboard-response,141,197712,0.0-1.0-191.0-0.0,0,0,1,,,,,,47.0,,,,,,,,,,,,,,,,,,,,,,,,,,,,,151.0,1.106,,
142,,iti,,html-keyboard-response,142,199715,0.0-1.0-192.0,0,0,1,,,,,,,,,,,,,,,,,,,,,,,,,,,,,,,,,,,153.0,2.0,,
143,,size_choice,,html-keyboard-response,143,201127,0.0-1.0-194.0,0,0,1,,1411.0,,,75.0,48.0,48.0,2.0,1000.0,M-L,0.0,M,L,2.0,3.0,hairdryer,mailbox,hairdryer6,mailbox10,75.0,49.0,/static/Size_judgement/Stimuli/Size_stims/M/hairdryer/hairdryer8.jpg,/static/Size_judgement/Stimuli/Size_stims/L/mailbox/mailbox8.jpg,0.0,mailbox,hairdryer,L,M,3.0,2.0,mailbox10,hairdryer6,1.0,0.0,154.411,1.411,,
144,,size_choice_confirmation,,html-keyboard-response,144,201221,0.0-1.0-195.0-0.0,0,0,1,,,,,,48.0,,,,,,,,,,,,,,,,,,,,,,,,,,,,,154.5,0.089,,
145,,iti,,html-keyboard-response,145,202224,0.0-1.0-196.0,0,0,1,,,,,,,,,,,,,,,,,,,,,,,,,,,,,,,,,,,155.5,1.0,,
146,,size_choice,,html-keyboard-response,146,203206,0.0-1.0-198.0,0,0,1,,981.0,,,75.0,49.0,49.0,2.0,2000.0,M-XL,1.0,XL,M,4.0,2.0,tractor,coffeemaker,tractor5,coffeemaker1,184.0,60.0,/static/Size_judgement/Stimuli/Size_stims/XL/tractor/tractor1.jpg,/static/Size_judgement/Stimuli/Size_stims/M/coffeemaker/coffeemaker14.jpg,0.0,coffeemaker,tractor,M,XL,2.0,4.0,coffeemaker1,tractor5,0.0,0.0,156.481,0.981,,
147,,size_choice_confirmation,,html-keyboard-response,147,203726,0.0-1.0-199.0-0.0,0,0,1,,,,,,49.0,,,,,,,,,,,,,,,,,,,,,,,,,,,,,157.0,0.519,,
148,,iti,,html-keyboard-response,148,205728,0.0-1.0-200.0,0,0,1,,,,,,,,,,,,,,,,,,,,,,,,,,,,,,,,,,,159.0,2.0,,
149,,size_choice,,html-keyboard-response,149,206971,0.0-1.0-202.0,0,0,1,,1241.0,,,75.0,50.0,50.0,2.0,1000.0,S-XL,1.0,XL,S,4.0,1.0,car,teabag,car9,teabag10,158.0,139.0,/static/Size_judgement/Stimuli/Size_stims/XL/car/car15.jpg,/static/Size_judgement/Stimuli/Size_stims/S/teabag/teabag4.jpg,0.0,teabag,car,S,XL,1.0,4.0,teabag10,car9,0.0,0.0,160.241,1.241,,
150,,size_choice_confirmation,,html-keyboard-response,150,207232,0.0-1.0-203.0-0.0,0,0,1,,,,,,50.0,,,,,,,,,,,,,,,,,,,,,,,,,,,,,160.5,0.259,,
151,,iti,,html-keyboard-response,151,208233,0.0-1.0-204.0,0,0,1,,,,,,,,,,,,,,,,,,,,,,,,,,,,,,,,,,,161.5,1.0,,
152,,size_choice,,html-keyboard-response,152,209306,0.0-1.0-206.0,0,0,1,,1072.0,,,75.0,51.0,51.0,2.0,1500.0,XL-XL,,XL,XL,4.0,4.0,crane,car,crane10,car8,169.0,157.0,/static/Size_judgement/Stimuli/Size_stims/XL/crane/crane9.jpg,/static/Size_judgement/Stimuli/Size_stims/XL/car/car14.jpg,0.0,car,crane,XL,XL,4.0,4.0,car8,crane10,,0.0,162.572,1.072,,
153,,size_choice_confirmation,,html-keyboard-response,153,209738,0.0-1.0-207.0-0.0,0,0,1,,,,,,51.0,,,,,,,,,,,,,,,,,,,,,,,,,,,,,163.0,0.428,,
154,,iti,,html-keyboard-response,154,211242,0.0-1.0-208.0,0,0,1,,,,,,,,,,,,,,,,,,,,,,,,,,,,,,,,,,,164.5,1.5,,
155,,size_choice,,html-keyboard-response,155,211521,0.0-1.0-210.0,0,0,1,,278.0,,,75.0,52.0,52.0,2.0,1000.0,M-L,0.0,M,L,2.0,3.0,coffeemaker,dishwasher,coffeemaker2,dishwasher3,61.0,22.0,/static/Size_judgement/Stimuli/Size_stims/M/coffeemaker/coffeemaker12.jpg,/static/Size_judgement/Stimuli/Size_stims/L/dishwasher/dishwasher8.jpg,0.0,dishwasher,coffeemaker,L,M,3.0,2.0,dishwasher3,coffeemaker2,1.0,0.0,164.778,0.278,,
156,,size_choice_confirmation,,html-keyboard-response,156,212747,0.0-1.0-211.0-0.0,0,0,1,,,,,,52.0,,,,,,,,,,,,,,,,,,,,,,,,,,,,,166.0,1.222,,
157,,iti,,html-keyboard-response,157,213751,0.0-1.0-212.0,0,0,1,,,,,,,,,,,,,,,,,,,,,,,,,,,,,,,,,,,167.0,1.0,,
158,,size_choice,,html-keyboard-response,158,213821,0.0-1.0-214.0,0,0,1,,69.0,,,75.0,53.0,53.0,2.0,3000.0,S-L,1.0,L,S,3.0,1.0,deskchair,paperclip,deskchair4,paperclip7,13.0,116.0,/static/Size_judgement/Stimuli/Size_stims/L/deskchair/deskchair6.jpg,/static/Size_judgement/Stimuli/Size_stims/S/paperclip/paperclip7.jpg,0.0,paperclip,deskchair,S,L,1.0,3.0,paperclip7,deskchair4,0.0,0.0,167.069,0.069,,
159,,size_choice_confirmation,,html-keyboard-response,159,215255,0.0-1.0-215.0-0.0,0,0,1,,,,,,53.0,,,,,,,,,,,,,,,,,,,,,,,,,,,,,168.5,1.431,,
160,,iti,,html-keyboard-response,160,218260,0.0-1.0-216.0,0,0,1,,,,,,,,,,,,,,,,,,,,,,,,,,,,,,,,,,,171.5,3.0,,
161,,size_choice,,html-keyboard-response,161,219765,0.0-1.0-218.0,0,0,1,,,,,,54.0,54.0,2.0,2000.0,S-S,,S,S,1.0,1.0,screws,paperclip,screws1,paperclip10,120.0,119.0,/static/Size_judgement/Stimuli/Size_stims/S/screws/screws4.jpg,/static/Size_judgement/Stimuli/Size_stims/S/paperclip/paperclip10.jpg,,,,,,,,,,,,173.0,1.5,1.0,
162,,iti,,html-keyboard-response,162,221771,0.0-1.0-220.0,0,0,1,,,,,,,,,,,,,,,,,,,,,,,,,,,,,,,,,,,175.0,2.0,,
163,,size_choice,,html-keyboard-response,163,223278,0.0-1.0-222.0,0,0,1,,,,,,55.0,55.0,2.0,1500.0,M-L,1.0,L,M,3.0,2.0,dishwasher,ketchup,dishwasher5,ketchup2,24.0,91.0,/static/Size_judgement/Stimuli/Size_stims/L/dishwasher/dishwasher4.jpg,/static/Size_judgement/Stimuli/Size_stims/M/ketchup/ketchup9.jpg,,,,,,,,,,,,176.5,1.5,1.0,
164,,iti,,html-keyboard-response,164,224782,0.0-1.0-224.0,0,0,1,,,,,,,,,,,,,,,,,,,,,,,,,,,,,,,,,,,178.0,1.5,,
165,,size_choice,,html-keyboard-response,165,226239,0.0-1.0-226.0,0,0,1,,1456.0,,,75.0,56.0,56.0,2.0,1000.0,M-L,0.0,M,L,2.0,3.0,hairdryer,deskchair,hairdryer5,deskchair3,74.0,12.0,/static/Size_judgement/Stimuli/Size_stims/M/hairdryer/hairdryer15.jpg,/static/Size_judgement/Stimuli/Size_stims/L/deskchair/deskchair10.jpg,0.0,deskchair,hairdryer,L,M,3.0,2.0,deskchair3,hairdryer5,1.0,0.0,179.456,1.456,,
166,,size_choice_confirmation,,html-keyboard-response,166,226288,0.0-1.0-227.0-0.0,0,0,1,,,,,,56.0,,,,,,,,,,,,,,,,,,,,,,,,,,,,,179.5,0.044,,
167,,iti,,html-keyboard-response,167,227291,0.0-1.0-228.0,0,0,1,,,,,,,,,,,,,,,,,,,,,,,,,,,,,,,,,,,180.5,1.0,,
168,,size_choice,,html-keyboard-response,168,228794,0.0-1.0-230.0,0,0,1,,,,,,57.0,57.0,2.0,1000.0,S-XL,0.0,S,XL,1.0,4.0,thread,dumptruck,thread7,dumptruck1,146.0,170.0,/static/Size_judgement/Stimuli/Size_stims/S/thread/thread3.jpg,/static/Size_judgement/Stimuli/Size_stims/XL/dumptruck/dumptruck9.jpg,,,,,,,,,,,,182.0,1.5,1.0,
169,,iti,,html-keyboard-response,169,229797,0.0-1.0-232.0,0,0,1,,,,,,,,,,,,,,,,,,,,,,,,,,,,,,,,,,,183.0,1.0,,
170,,size_choice,,html-keyboard-response,170,231300,0.0-1.0-234.0,0,0,1,,,,,,58.0,58.0,2.0,1000.0,S-L,0.0,S,L,1.0,3.0,teabag,dishwasher,teabag9,dishwasher6,138.0,25.0,/static/Size_judgement/Stimuli/Size_stims/S/teabag/teabag5.jpg,/static/Size_judgement/Stimuli/Size_stims/L/dishwasher/dishwasher6.jpg,,,,,,,,,,,,184.5,1.5,1.0,
171,,iti,,html-keyboard-response,171,232304,0.0-1.0-236.0,0,0,1,,,,,,,,,,,,,,,,,,,,,,,,,,,,,,,,,,,185.5,1.0,,
172,,size_choice,,html-keyboard-response,172,233811,0.0-1.0-238.0,0,0,1,,,,,,59.0,59.0,2.0,1000.0,M-M,,M,M,2.0,2.0,basketball,ketchup,basketball2,ketchup10,51.0,99.0,/static/Size_judgement/Stimuli/Size_stims/M/basketball/basketball8.jpg,/static/Size_judgement/Stimuli/Size_stims/M/ketchup/ketchup6.jpg,,,,,,,,,,,,187.0,1.5,1.0,
173,,iti,,html-keyboard-response,173,234813,0.0-1.0-240.0,0,0,1,,,,,,,,,,,,,,,,,,,,,,,,,,,,,,,,,,,188.0,1.0,,
174,,size_choice,,html-keyboard-response,174,236318,0.0-1.0-242.0,0,0,1,,,,,,60.0,60.0,2.0,1500.0,M-XL,0.0,M,XL,2.0,4.0,ketchup,dumptruck,ketchup1,dumptruck3,90.0,172.0,/static/Size_judgement/Stimuli/Size_stims/M/ketchup/ketchup8.jpg,/static/Size_judgement/Stimuli/Size_stims/XL/dumptruck/dumptruck10.jpg,,,,,,,,,,,,189.5,1.5,1.0,
175,,iti,,html-keyboard-response,175,237821,0.0-1.0-244.0,0,0,1,,,,,,,,,,,,,,,,,,,,,,,,,,,,,,,,,,,191.0,1.5,,
176,,size_choice,,html-keyboard-response,176,239327,0.0-1.0-246.0,0,0,1,,,,,,61.0,61.0,2.0,1500.0,M-XL,0.0,M,XL,2.0,4.0,basketball,tractor,basketball1,tractor1,50.0,180.0,/static/Size_judgement/Stimuli/Size_stims/M/basketball/basketball9.jpg,/static/Size_judgement/Stimuli/Size_stims/XL/tractor/tractor6.jpg,,,,,,,,,,,,192.5,1.5,1.0,
177,,iti,,html-keyboard-response,177,240830,0.0-1.0-248.0,0,0,1,,,,,,,,,,,,,,,,,,,,,,,,,,,,,,,,,,,194.0,1.5,,
178,,size_choice,,html-keyboard-response,178,242333,0.0-1.0-250.0,0,0,1,,,,,,62.0,62.0,2.0,3000.0,L-XL,0.0,L,XL,3.0,4.0,cooler,van,cooler2,van9,1.0,198.0,/static/Size_judgement/Stimuli/Size_stims/L/cooler/cooler9.jpg,/static/Size_judgement/Stimuli/Size_stims/XL/van/van9.jpg,,,,,,,,,,,,195.5,1.5,1.0,
179,,iti,,html-keyboard-response,179,245338,0.0-1.0-252.0,0,0,1,,,,,,,,,,,,,,,,,,,,,,,,,,,,,,,,,,,198.5,3.0,,
180,,size_choice,,html-keyboard-response,180,246843,0.0-1.0-254.0,0,0,1,,,,,,63.0,63.0,2.0,3500.0,S-L,0.0,S,L,1.0,3.0,thread,dishwasher,thread2,dishwasher7,141.0,26.0,/static/Size_judgement/Stimuli/Size_stims/S/thread/thread6.jpg,/static/Size_judgement/Stimuli/Size_stims/L/dishwasher/dishwasher7.jpg,,,,,,,,,,,,200.0,1.5,1.0,
181,,iti,,html-keyboard-response,181,250347,0.0-1.0-256.0,0,0,1,,,,,,,,,,,,,,,,,,,,,,,,,,,,,,,,,,,203.5,3.5,,
182,,size_choice,,html-keyboard-response,182,250883,0.0-1.0-258.0,0,0,1,,535.0,,,75.0,64.0,64.0,2.0,1500.0,M-L,0.0,M,L,2.0,3.0,handsaw,cooler,handsaw8,cooler7,87.0,6.0,/static/Size_judgement/Stimuli/Size_stims/M/handsaw/handsaw7.jpg,/static/Size_judgement/Stimuli/Size_stims/L/cooler/cooler4.jpg,0.0,cooler,handsaw,L,M,3.0,2.0,cooler7,handsaw8,1.0,0.0,204.035,0.535,,
183,,size_choice_confirmation,,html-keyboard-response,183,251854,0.0-1.0-259.0-0.0,0,0,1,,,,,,64.0,,,,,,,,,,,,,,,,,,,,,,,,,,,,,205.0,0.965,,
184,,iti,,html-keyboard-response,184,253359,0.0-1.0-260.0,0,0,1,,,,,,,,,,,,,,,,,,,,,,,,,,,,,,,,,,,206.5,1.5,,
185,,size_choice,,html-keyboard-response,185,254056,0.0-1.0-262.0,0,0,1,,696.0,,,75.0,65.0,65.0,2.0,2000.0,M-L,0.0,M,L,2.0,3.0,handsaw,mailbox,handsaw5,mailbox1,84.0,40.0,/static/Size_judgement/Stimuli/Size_stims/M/handsaw/handsaw1.jpg,/static/Size_judgement/Stimuli/Size_stims/L/mailbox/mailbox3.jpg,0.0,mailbox,handsaw,L,M,3.0,2.0,mailbox1,handsaw5,1.0,0.0,207.196,0.696,,
186,,size_choice_confirmation,,html-keyboard-response,186,254862,0.0-1.0-263.0-0.0,0,0,1,,,,,,65.0,,,,,,,,,,,,,,,,,,,,,,,,,,,,,208.0,0.804,,
187,,iti,,html-keyboard-response,187,256863,0.0-1.0-264.0,0,0,1,,,,,,,,,,,,,,,,,,,,,,,,,,,,,,,,,,,210.0,2.0,,
188,,size_choice,,html-keyboard-response,188,258367,0.0-1.0-266.0,0,0,1,,,,,,66.0,66.0,2.0,1000.0,M-XL,1.0,XL,M,4.0,2.0,car,ketchup,car10,ketchup8,159.0,97.0,/static/Size_judgement/Stimuli/Size_stims/XL/car/car9.jpg,/static/Size_judgement/Stimuli/Size_stims/M/ketchup/ketchup5.jpg,,,,,,,,,,,,211.5,1.5,1.0,
189,,iti,,html-keyboard-response,189,259371,0.0-1.0-268.0,0,0,1,,,,,,,,,,,,,,,,,,,,,,,,,,,,,,,,,,,212.5,1.0,,
190,,size_choice,,html-keyboard-response,190,260271,0.0-1.0-270.0,0,0,1,,899.0,,,75.0,67.0,67.0,2.0,1000.0,S-L,1.0,L,S,3.0,1.0,deskchair,thread,deskchair6,thread3,15.0,142.0,/static/Size_judgement/Stimuli/Size_stims/L/deskchair/deskchair5.jpg,/static/Size_judgement/Stimuli/Size_stims/S/thread/thread4.jpg,0.0,thread,deskchair,S,L,1.0,3.0,thread3,deskchair6,0.0,0.0,213.399,0.899,,
191,,size_choice_confirmation,,html-keyboard-response,191,260875,0.0-1.0-271.0-0.0,0,0,1,,,,,,67.0,,,,,,,,,,,,,,,,,,,,,,,,,,,,,214.0,0.601,,
192,,iti,,html-keyboard-response,192,261878,0.0-1.0-272.0,0,0,1,,,,,,,,,,,,,,,,,,,,,,,,,,,,,,,,,,,215.0,1.0,,
193,,size_choice,,html-keyboard-response,193,262658,0.0-1.0-274.0,0,0,1,,777.0,,,75.0,68.0,68.0,2.0,2000.0,S-XL,0.0,S,XL,1.0,4.0,screws,dumptruck,screws3,dumptruck4,122.0,173.0,/static/Size_judgement/Stimuli/Size_stims/S/screws/screws7.jpg,/static/Size_judgement/Stimuli/Size_stims/XL/dumptruck/dumptruck1.jpg,0.0,dumptruck,screws,XL,S,4.0,1.0,dumptruck4,screws3,1.0,0.0,215.777,0.777,,
194,,size_choice_confirmation,,html-keyboard-response,194,263386,0.0-1.0-275.0-0.0,0,0,1,,,,,,68.0,,,,,,,,,,,,,,,,,,,,,,,,,,,,,216.5,0.723,,
195,,iti,,html-keyboard-response,195,265392,0.0-1.0-276.0,0,0,1,,,,,,,,,,,,,,,,,,,,,,,,,,,,,,,,,,,218.5,2.0,,
196,,size_choice,,html-keyboard-response,196,266707,0.0-1.0-278.0,0,0,1,,1314.0,,,75.0,69.0,69.0,2.0,3000.0,S-XL,0.0,S,XL,1.0,4.0,paperclip,dumptruck,paperclip8,dumptruck7,117.0,176.0,/static/Size_judgement/Stimuli/Size_stims/S/paperclip/paperclip5.jpg,/static/Size_judgement/Stimuli/Size_stims/XL/dumptruck/dumptruck6.jpg,0.0,dumptruck,paperclip,XL,S,4.0,1.0,dumptruck7,paperclip8,1.0,0.0,219.814,1.314,,
197,,size_choice_confirmation,,html-keyboard-response,197,266895,0.0-1.0-279.0-0.0,0,0,1,,,,,,69.0,,,,,,,,,,,,,,,,,,,,,,,,,,,,,220.0,0.186,,
198,,iti,,html-keyboard-response,198,269898,0.0-1.0-280.0,0,0,1,,,,,,,,,,,,,,,,,,,,,,,,,,,,,,,,,,,223.0,3.0,,
199,,size_choice,,html-keyboard-response,199,270585,0.0-1.0-282.0,0,0,1,,686.0,,,75.0,70.0,70.0,2.0,1500.0,S-L,0.0,S,L,1.0,3.0,die,deskchair,die1,deskchair8,100.0,17.0,/static/Size_judgement/Stimuli/Size_stims/S/die/die8.jpg,/static/Size_judgement/Stimuli/Size_stims/L/deskchair/deskchair1.jpg,0.0,deskchair,die,L,S,3.0,1.0,deskchair8,die1,1.0,0.0,223.686,0.686,,
200,,size_choice_confirmation,,html-keyboard-response,200,271404,0.0-1.0-283.0-0.0,0,0,1,,,,,,70.0,,,,,,,,,,,,,,,,,,,,,,,,,,,,,224.5,0.814,,
201,,iti,,html-keyboard-response,201,272907,0.0-1.0-284.0,0,0,1,,,,,,,,,,,,,,,,,,,,,,,,,,,,,,,,,,,226.0,1.5,,
202,,size_choice,,html-keyboard-response,202,272968,0.0-1.0-286.0,0,0,1,,60.0,,,75.0,71.0,71.0,2.0,1500.0,XL-XL,,XL,XL,4.0,4.0,tractor,van,tractor3,van8,182.0,197.0,/static/Size_judgement/Stimuli/Size_stims/XL/tractor/tractor5.jpg,/static/Size_judgement/Stimuli/Size_stims/XL/van/van10.jpg,0.0,van,tractor,XL,XL,4.0,4.0,van8,tractor3,,0.0,226.06,0.06,,
203,,size_choice_confirmation,,html-keyboard-response,203,274410,0.0-1.0-287.0-0.0,0,0,1,,,,,,71.0,,,,,,,,,,,,,,,,,,,,,,,,,,,,,227.5,1.44,,
204,,iti,,html-keyboard-response,204,275912,0.0-1.0-288.0,0,0,1,,,,,,,,,,,,,,,,,,,,,,,,,,,,,,,,,,,229.0,1.5,,
205,,size_choice,,html-keyboard-response,205,276378,0.0-1.0-290.0,0,0,1,,465.0,,,75.0,72.0,72.0,2.0,1500.0,S-XL,0.0,S,XL,1.0,4.0,paperclip,dumptruck,paperclip4,dumptruck5,113.0,174.0,/static/Size_judgement/Stimuli/Size_stims/S/paperclip/paperclip3.jpg,/static/Size_judgement/Stimuli/Size_stims/XL/dumptruck/dumptruck3.jpg,0.0,dumptruck,paperclip,XL,S,4.0,1.0,dumptruck5,paperclip4,1.0,0.0,229.465,0.465,,
206,,size_choice_confirmation,,html-keyboard-response,206,277416,0.0-1.0-291.0-0.0,0,0,1,,,,,,72.0,,,,,,,,,,,,,,,,,,,,,,,,,,,,,230.5,1.035,,
207,,iti,,html-keyboard-response,207,278921,0.0-1.0-292.0,0,0,1,,,,,,,,,,,,,,,,,,,,,,,,,,,,,,,,,,,232.0,1.5,,
208,,size_choice,,html-keyboard-response,208,279158,0.0-1.0-294.0,0,0,1,,236.0,,,75.0,73.0,73.0,2.0,3000.0,M-L,0.0,M,L,2.0,3.0,coffeemaker,dishwasher,coffeemaker6,dishwasher4,65.0,23.0,/static/Size_judgement/Stimuli/Size_stims/M/coffeemaker/coffeemaker8.jpg,/static/Size_judgement/Stimuli/Size_stims/L/dishwasher/dishwasher5.jpg,0.0,dishwasher,coffeemaker,L,M,3.0,2.0,dishwasher4,coffeemaker6,1.0,0.0,232.236,0.236,,
209,,size_choice_confirmation,,html-keyboard-response,209,280427,0.0-1.0-295.0-0.0,0,0,1,,,,,,73.0,,,,,,,,,,,,,,,,,,,,,,,,,,,,,233.5,1.264,,
210,,iti,,html-keyboard-response,210,283428,0.0-1.0-296.0,0,0,1,,,,,,,,,,,,,,,,,,,,,,,,,,,,,,,,,,,236.5,3.0,,
211,,size_choice,,html-keyboard-response,211,283854,0.0-1.0-298.0,0,0,1,,425.0,,,75.0,74.0,74.0,2.0,1500.0,S-XL,1.0,XL,S,4.0,1.0,car,die,car1,die9,150.0,108.0,/static/Size_judgement/Stimuli/Size_stims/XL/car/car2.jpg,/static/Size_judgement/Stimuli/Size_stims/S/die/die7.jpg,0.0,die,car,S,XL,1.0,4.0,die9,car1,0.0,0.0,236.925,0.425,,
212,,size_choice_confirmation,,html-keyboard-response,212,284931,0.0-1.0-299.0-0.0,0,0,1,,,,,,74.0,,,,,,,,,,,,,,,,,,,,,,,,,,,,,238.0,1.075,,
213,,iti,,html-keyboard-response,213,286435,0.0-1.0-300.0,0,0,1,,,,,,,,,,,,,,,,,,,,,,,,,,,,,,,,,,,239.5,1.5,,
214,,size_choice,,html-keyboard-response,214,286543,0.0-1.0-302.0,0,0,1,,107.0,,,75.0,75.0,75.0,2.0,1500.0,M-XL,1.0,XL,M,4.0,2.0,crane,handsaw,crane1,handsaw10,160.0,89.0,/static/Size_judgement/Stimuli/Size_stims/XL/crane/crane7.jpg,/static/Size_judgement/Stimuli/Size_stims/M/handsaw/handsaw10.jpg,0.0,handsaw,crane,M,XL,2.0,4.0,handsaw10,crane1,0.0,0.0,239.607,0.107,,
215,,size_choice_confirmation,,html-keyboard-response,215,287939,0.0-1.0-303.0-0.0,0,0,1,,,,,,75.0,,,,,,,,,,,,,,,,,,,,,,,,,,,,,241.0,1.393,,
216,,iti,,html-keyboard-response,216,289444,0.0-1.0-304.0,0,0,1,,,,,,,,,,,,,,,,,,,,,,,,,,,,,,,,,,,242.5,1.5,,
217,,size_choice,,html-keyboard-response,217,289624,0.0-1.0-306.0,0,0,1,,179.0,,,75.0,76.0,76.0,2.0,1500.0,S-XL,1.0,XL,S,4.0,1.0,tractor,screws,tractor2,screws6,181.0,125.0,/static/Size_judgement/Stimuli/Size_stims/XL/tractor/tractor7.jpg,/static/Size_judgement/Stimuli/Size_stims/S/screws/screws3.jpg,0.0,screws,tractor,S,XL,1.0,4.0,screws6,tractor2,0.0,0.0,242.679,0.179,,
218,,size_choice_confirmation,,html-keyboard-response,218,290947,0.0-1.0-307.0-0.0,0,0,1,,,,,,76.0,,,,,,,,,,,,,,,,,,,,,,,,,,,,,244.0,1.321,,
219,,iti,,html-keyboard-response,219,292449,0.0-1.0-308.0,0,0,1,,,,,,,,,,,,,,,,,,,,,,,,,,,,,,,,,,,245.5,1.5,,
220,,size_choice,,html-keyboard-response,220,293122,0.0-1.0-310.0,0,0,1,,672.0,,,75.0,77.0,77.0,2.0,2000.0,M-L,0.0,M,L,2.0,3.0,coffeemaker,deskchair,coffeemaker4,deskchair5,63.0,14.0,/static/Size_judgement/Stimuli/Size_stims/M/coffeemaker/coffeemaker11.jpg,/static/Size_judgement/Stimuli/Size_stims/L/deskchair/deskchair7.jpg,0.0,deskchair,coffeemaker,L,M,3.0,2.0,deskchair5,coffeemaker4,1.0,0.0,246.172,0.672,,
221,,size_choice_confirmation,,html-keyboard-response,221,293954,0.0-1.0-311.0-0.0,0,0,1,,,,,,77.0,,,,,,,,,,,,,,,,,,,,,,,,,,,,,247.0,0.828,,
222,,iti,,html-keyboard-response,222,295955,0.0-1.0-312.0,0,0,1,,,,,,,,,,,,,,,,,,,,,,,,,,,,,,,,,,,249.0,2.0,,
223,,size_choice,,html-keyboard-response,223,296220,0.0-1.0-314.0,0,0,1,,264.0,,,75.0,78.0,78.0,2.0,1500.0,M-XL,1.0,XL,M,4.0,2.0,dumptruck,coffeemaker,dumptruck10,coffeemaker10,179.0,69.0,/static/Size_judgement/Stimuli/Size_stims/XL/dumptruck/dumptruck4.jpg,/static/Size_judgement/Stimuli/Size_stims/M/coffeemaker/coffeemaker18.jpg,0.0,coffeemaker,dumptruck,M,XL,2.0,4.0,coffeemaker10,dumptruck10,0.0,0.0,249.264,0.264,,
224,,size_choice_confirmation,,html-keyboard-response,224,297460,0.0-1.0-315.0-0.0,0,0,1,,,,,,78.0,,,,,,,,,,,,,,,,,,,,,,,,,,,,,250.5,1.236,,
225,,iti,,html-keyboard-response,225,298963,0.0-1.0-316.0,0,0,1,,,,,,,,,,,,,,,,,,,,,,,,,,,,,,,,,,,252.0,1.5,,
226,,size_choice,,html-keyboard-response,226,299142,0.0-1.0-318.0,0,0,1,,177.0,,,75.0,79.0,79.0,2.0,1000.0,L-L,,L,L,3.0,3.0,mailbox,cooler,mailbox4,cooler6,43.0,5.0,/static/Size_judgement/Stimuli/Size_stims/L/mailbox/mailbox5.jpg,/static/Size_judgement/Stimuli/Size_stims/L/cooler/cooler1.jpg,0.0,cooler,mailbox,L,L,3.0,3.0,cooler6,mailbox4,,0.0,252.177,0.177,,
227,,size_choice_confirmation,,html-keyboard-response,227,300466,0.0-1.0-319.0-0.0,0,0,1,,,,,,79.0,,,,,,,,,,,,,,,,,,,,,,,,,,,,,253.5,1.323,,
228,,iti,,html-keyboard-response,228,301472,0.0-1.0-320.0,0,0,1,,,,,,,,,,,,,,,,,,,,,,,,,,,,,,,,,,,254.5,1.0,,
229,,size_choice,,html-keyboard-response,229,301766,0.0-1.0-322.0,0,0,1,,294.0,,,75.0,80.0,80.0,2.0,1000.0,S-M,0.0,S,M,1.0,2.0,die,basketball,die3,basketball3,102.0,52.0,/static/Size_judgement/Stimuli/Size_stims/S/die/die10.jpg,/static/Size_judgement/Stimuli/Size_stims/M/basketball/basketball10.jpg,0.0,basketball,die,M,S,2.0,1.0,basketball3,die3,1.0,0.0,254.794,0.294,,
230,,size_choice_confirmation,,html-keyboard-response,230,302977,0.0-1.0-323.0-0.0,0,0,1,,,,,,80.0,,,,,,,,,,,,,,,,,,,,,,,,,,,,,256.0,1.206,,
231,,iti,,html-keyboard-response,231,303979,0.0-1.0-324.0,0,0,1,,,,,,,,,,,,,,,,,,,,,,,,,,,,,,,,,,,257.0,1.0,,
232,,size_choice,,html-keyboard-response,232,304439,0.0-1.0-326.0,0,0,1,,459.0,,,75.0,81.0,81.0,2.0,2000.0,S-L,0.0,S,L,1.0,3.0,thread,garbagecan,thread9,garbagecan7,148.0,36.0,/static/Size_judgement/Stimuli/Size_stims/S/thread/thread8.jpg,/static/Size_judgement/Stimuli/Size_stims/L/garbagecan/garbagecan16.jpg,0.0,garbagecan,thread,L,S,3.0,1.0,garbagecan7,thread9,1.0,0.0,257.459,0.459,,
233,,size_choice_confirmation,,html-keyboard-response,233,305485,0.0-1.0-327.0-0.0,0,0,1,,,,,,81.0,,,,,,,,,,,,,,,,,,,,,,,,,,,,,258.5,1.041,,
234,,iti,,html-keyboard-response,234,307488,0.0-1.0-328.0,0,0,1,,,,,,,,,,,,,,,,,,,,,,,,,,,,,,,,,,,260.5,2.0,,
235,,size_choice,,html-keyboard-response,235,308654,0.0-1.0-330.0,0,0,1,,1165.0,,,75.0,82.0,82.0,2.0,2000.0,M-XL,1.0,XL,M,4.0,2.0,tractor,basketball,tractor8,basketball8,187.0,57.0,/static/Size_judgement/Stimuli/Size_stims/XL/tractor/tractor10.jpg,/static/Size_judgement/Stimuli/Size_stims/M/basketball/basketball7.jpg,0.0,basketball,tractor,M,XL,2.0,4.0,basketball8,tractor8,0.0,0.0,261.665,1.165,,
236,,size_choice_confirmation,,html-keyboard-response,236,308993,0.0-1.0-331.0-0.0,0,0,1,,,,,,82.0,,,,,,,,,,,,,,,,,,,,,,,,,,,,,262.0,0.335,,
237,,iti,,html-keyboard-response,237,310996,0.0-1.0-332.0,0,0,1,,,,,,,,,,,,,,,,,,,,,,,,,,,,,,,,,,,264.0,2.0,,
238,,size_choice,,html-keyboard-response,238,311726,0.0-1.0-334.0,0,0,1,,729.0,,,75.0,83.0,83.0,2.0,1000.0,S-XL,0.0,S,XL,1.0,4.0,screws,van,screws2,van3,121.0,192.0,/static/Size_judgement/Stimuli/Size_stims/S/screws/screws5.jpg,/static/Size_judgement/Stimuli/Size_stims/XL/van/van6.jpg,0.0,van,screws,XL,S,4.0,1.0,van3,screws2,1.0,0.0,264.729,0.729,,
239,,size_choice_confirmation,,html-keyboard-response,239,312502,0.0-1.0-335.0-0.0,0,0,1,,,,,,83.0,,,,,,,,,,,,,,,,,,,,,,,,,,,,,265.5,0.771,,
240,,iti,,html-keyboard-response,240,313504,0.0-1.0-336.0,0,0,1,,,,,,,,,,,,,,,,,,,,,,,,,,,,,,,,,,,266.5,1.0,,
241,,size_choice,,html-keyboard-response,241,314368,0.0-1.0-338.0,0,0,1,,862.0,,,75.0,84.0,84.0,2.0,1000.0,L-L,,L,L,3.0,3.0,cooler,dishwasher,cooler3,dishwasher9,2.0,28.0,/static/Size_judgement/Stimuli/Size_stims/L/cooler/cooler2.jpg,/static/Size_judgement/Stimuli/Size_stims/L/dishwasher/dishwasher2.jpg,0.0,dishwasher,cooler,L,L,3.0,3.0,dishwasher9,cooler3,,0.0,267.362,0.862,,
242,,size_choice_confirmation,,html-keyboard-response,242,315010,0.0-1.0-339.0-0.0,0,0,1,,,,,,84.0,,,,,,,,,,,,,,,,,,,,,,,,,,,,,268.0,0.638,,
243,,iti,,html-keyboard-response,243,316011,0.0-1.0-340.0,0,0,1,,,,,,,,,,,,,,,,,,,,,,,,,,,,,,,,,,,269.0,1.0,,
244,,size_choice,,html-keyboard-response,244,316310,0.0-1.0-342.0,0,0,1,,298.0,,,75.0,85.0,85.0,2.0,1000.0,M-M,,M,M,2.0,2.0,hairdryer,handsaw,hairdryer10,handsaw2,79.0,81.0,/static/Size_judgement/Stimuli/Size_stims/M/hairdryer/hairdryer6.jpg,/static/Size_judgement/Stimuli/Size_stims/M/handsaw/handsaw9.jpg,0.0,handsaw,hairdryer,M,M,2.0,2.0,handsaw2,hairdryer10,,0.0,269.298,0.298,,
245,,size_choice_confirmation,,html-keyboard-response,245,317517,0.0-1.0-343.0-0.0,0,0,1,,,,,,85.0,,,,,,,,,,,,,,,,,,,,,,,,,,,,,270.5,1.202,,
246,,iti,,html-keyboard-response,246,318521,0.0-1.0-344.0,0,0,1,,,,,,,,,,,,,,,,,,,,,,,,,,,,,,,,,,,271.5,1.0,,
247,,size_choice,,html-keyboard-response,247,318640,0.0-1.0-346.0,0,0,1,,118.0,,,75.0,86.0,86.0,2.0,1000.0,L-XL,0.0,L,XL,3.0,4.0,garbagecan,crane,garbagecan6,crane2,35.0,161.0,/static/Size_judgement/Stimuli/Size_stims/L/garbagecan/garbagecan14.jpg,/static/Size_judgement/Stimuli/Size_stims/XL/crane/crane6.jpg,0.0,crane,garbagecan,XL,L,4.0,3.0,crane2,garbagecan6,1.0,0.0,271.618,0.118,,
248,,size_choice_confirmation,,html-keyboard-response,248,320024,0.0-1.0-347.0-0.0,0,0,1,,,,,,86.0,,,,,,,,,,,,,,,,,,,,,,,,,,,,,273.0,1.382,,
249,,iti,,html-keyboard-response,249,321029,0.0-1.0-348.0,0,0,1,,,,,,,,,,,,,,,,,,,,,,,,,,,,,,,,,,,274.0,1.0,,
250,,size_choice,,html-keyboard-response,250,321839,0.0-1.0-350.0,0,0,1,,808.0,,,75.0,87.0,87.0,2.0,1000.0,XL-XL,,XL,XL,4.0,4.0,car,tractor,car2,tractor10,151.0,189.0,/static/Size_judgement/Stimuli/Size_stims/XL/car/car3.jpg,/static/Size_judgement/Stimuli/Size_stims/XL/tractor/tractor8.jpg,0.0,tractor,car,XL,XL,4.0,4.0,tractor10,car2,,0.0,274.808,0.808,,
251,,size_choice_confirmation,,html-keyboard-response,251,322536,0.0-1.0-351.0-0.0,0,0,1,,,,,,87.0,,,,,,,,,,,,,,,,,,,,,,,,,,,,,275.5,0.692,,
252,,iti,,html-keyboard-response,252,323540,0.0-1.0-352.0,0,0,1,,,,,,,,,,,,,,,,,,,,,,,,,,,,,,,,,,,276.5,1.0,,
253,,size_choice,,html-keyboard-response,253,323721,0.0-1.0-354.0,0,0,1,,180.0,,,75.0,88.0,88.0,2.0,1000.0,S-L,1.0,L,S,3.0,1.0,deskchair,screws,deskchair7,screws10,16.0,129.0,/static/Size_judgement/Stimuli/Size_stims/L/deskchair/deskchair4.jpg,/static/Size_judgement/Stimuli/Size_stims/S/screws/screws9.jpg,0.0,screws,deskchair,S,L,1.0,3.0,screws10,deskchair7,0.0,0.0,276.68,0.18,,
254,,size_choice_confirmation,,html-keyboard-response,254,325043,0.0-1.0-355.0-0.0,0,0,1,,,,,,88.0,,,,,,,,,,,,,,,,,,,,,,,,,,,,,278.0,1.32,,
255,,iti,,html-keyboard-response,255,326046,0.0-1.0-356.0,0,0,1,,,,,,,,,,,,,,,,,,,,,,,,,,,,,,,,,,,279.0,1.0,,
256,,size_choice,,html-keyboard-response,256,326636,0.0-1.0-358.0,0,0,1,,589.0,,,75.0,89.0,89.0,2.0,3500.0,S-L,1.0,L,S,3.0,1.0,garbagecan,teabag,garbagecan1,teabag4,30.0,133.0,/static/Size_judgement/Stimuli/Size_stims/L/garbagecan/garbagecan4.jpg,/static/Size_judgement/Stimuli/Size_stims/S/teabag/teabag3.jpg,0.0,teabag,garbagecan,S,L,1.0,3.0,teabag4,garbagecan1,0.0,0.0,279.589,0.589,,
257,,size_choice_confirmation,,html-keyboard-response,257,327550,0.0-1.0-359.0-0.0,0,0,1,,,,,,89.0,,,,,,,,,,,,,,,,,,,,,,,,,,,,,280.5,0.911,,
258,,iti,,html-keyboard-response,258,331055,0.0-1.0-360.0,0,0,1,,,,,,,,,,,,,,,,,,,,,,,,,,,,,,,,,,,284.0,3.5,,0.18
259,,size_final_tally,,html-keyboard-response,259,353158,0.0-2.0,0,0,1,,22101.0,,,68.0,,,,,,,,,,,,,,,,,,,,,,,,,,,,,,,,,
