,success,ttype,start_time,trial_type,trial_index,time_elapsed,internal_node_id,warning,missed_checkup,PID,view_history,rt,responses,repeat_instructions,key_press,index,trial_num,block,iti,pair_type,high_size_on_left,left_size_group,right_size_group,left_size_num,right_size_num,left_category,right_category,left_exemplar,right_exemplar,left_index,right_index,left_img_path,right_img_path,accuracy,no_resposne,onset,duration,left_chosen,chosen_category,unchosen_category,chosen_size_group,unchosen_size_group,chosen_size_num,unchosen_size_num,chosen_exemplar,unchosen_exemplar,no_response,size_final_tally
0,True,full_screen,d05252022hr1602,fullscreen,0,5516,0.0-0.0,0,0,37970,,,,,,,,,,,,,,,,,,,,,,,,,,,,,,,,,,,,,,
1,,size_instructions,,instructions,1,11707,0.0-1.0-0.0-0.0,0,0,37970,"[{""page_index"":0,""viewing_time"":1660},{""page_index"":1,""viewing_time"":677},{""page_index"":2,""viewing_time"":1051},{""page_index"":3,""viewing_time"":662},{""page_index"":4,""viewing_time"":764},{""page_index"":5,""viewing_time"":1375}]",6189.0,,,,,,,,,,,,,,,,,,,,,,,,,,,,,,,,,,,,
2,,size_comprehension_check,,survey-multi-choice,2,19819,0.0-1.0-0.0-1.0,0,0,37970,,8108.0,"{""Q0"":""True"",""Q1"":""Size on the screen"",""Q2"":""True"",""Q3"":""D for left and K for right""}",1.0,,,,,,,,,,,,,,,,,,,,,,,,,,,,,,,,,,
3,,missed_instruction_checkup,,html-keyboard-response,3,22409,0.0-1.0-0.0-2.0-0.0,0,1,37970,,2587.0,,,68.0,,,,,,,,,,,,,,,,,,,,,,,,,,,,,,,,,
4,,size_instructions,,instructions,4,223326,0.0-1.0-0.1-0.1,0,0,37970,"[{""page_index"":0,""viewing_time"":1327},{""page_index"":1,""viewing_time"":354},{""page_index"":2,""viewing_time"":594},{""page_index"":3,""viewing_time"":1382},{""page_index"":4,""viewing_time"":1294},{""page_index"":5,""viewing_time"":187987},{""page_index"":4,""viewing_time"":662},{""page_index"":3,""viewing_time"":1296},{""page_index"":2,""viewing_time"":2640},{""page_index"":3,""viewing_time"":708},{""page_index"":4,""viewing_time"":1098},{""page_index"":5,""viewing_time"":1574}]",200917.0,,,,,,,,,,,,,,,,,,,,,,,,,,,,,,,,,,,,
5,,size_comprehension_check,,survey-multi-choice,5,232721,0.0-1.0-0.1-1.1,0,0,37970,,9394.0,"{""Q0"":""True"",""Q1"":""Size in the real world"",""Q2"":""True"",""Q3"":""D for left and K for right""}",0.0,,,,,,,,,,,,,,,,,,,,,,,,,,,,,,,,,,
6,,,,html-keyboard-response,6,234684,0.0-1.0-1.0,0,0,37970,,1962.0,,,68.0,,,,,,,,,,,,,,,,,,,,,,,,,,,,,,,,,
7,,size_choice,,html-keyboard-response,7,236189,0.0-1.0-2.0,0,0,37970,,,,,,0.0,0.0,1.0,1000.0,L-L,,L,L,3.0,3.0,dishwasher,garbagecan,dishwasher9,garbagecan9,28.0,38.0,/static/Size_judgement/Stimuli/Size_stims/L/dishwasher/dishwasher2.jpg,/static/Size_judgement/Stimuli/Size_stims/L/garbagecan/garbagecan12.jpg,,1.0,1.5,1.5,,,,,,,,,,,
8,,iti,,html-keyboard-response,8,236295,0.0-1.0-4.0,0,0,37970,,,,,,,,,,,,,,,,,,,,,,,,,,1.5,0.0,,,,,,,,,,,
9,,size_choice,,html-keyboard-response,9,236502,0.0-1.0-6.0,0,0,37970,,206.0,,,68.0,1.0,1.0,1.0,1000.0,M-M,,M,M,2.0,2.0,handsaw,hairdryer,handsaw1,hairdryer2,80.0,71.0,/static/Size_judgement/Stimuli/Size_stims/M/handsaw/handsaw8.jpg,/static/Size_judgement/Stimuli/Size_stims/M/hairdryer/hairdryer12.jpg,,,1.706,0.206,1.0,handsaw,hairdryer,M,M,2.0,2.0,handsaw1,hairdryer2,0.0,
10,,size_choice_confirmation,,html-keyboard-response,10,237803,0.0-1.0-7.0-0.0,0,0,37970,,,,,,1.0,,,,,,,,,,,,,,,,,,,,3.0,1.294,,,,,,,,,,,
11,,iti,,html-keyboard-response,11,237909,0.0-1.0-8.0,0,0,37970,,,,,,,,,,,,,,,,,,,,,,,,,,4.0,1.0,,,,,,,,,,,
12,,size_choice,,html-keyboard-response,12,238348,0.0-1.0-10.0,0,0,37970,,438.0,,,68.0,2.0,2.0,1.0,1500.0,S-XL,0.0,S,XL,1.0,4.0,teabag,dumptruck,teabag7,dumptruck8,136.0,177.0,/static/Size_judgement/Stimuli/Size_stims/S/teabag/teabag10.jpg,/static/Size_judgement/Stimuli/Size_stims/XL/dumptruck/dumptruck7.jpg,0.0,,4.438,0.438,1.0,teabag,dumptruck,S,XL,1.0,4.0,teabag7,dumptruck8,0.0,
13,,size_choice_confirmation,,html-keyboard-response,13,239412,0.0-1.0-11.0-0.0,0,0,37970,,,,,,2.0,,,,,,,,,,,,,,,,,,,,5.5,1.062,,,,,,,,,,,
14,,iti,,html-keyboard-response,14,239514,0.0-1.0-12.0,0,0,37970,,,,,,,,,,,,,,,,,,,,,,,,,,7.0,1.5,,,,,,,,,,,
15,,size_choice,,html-keyboard-response,15,241020,0.0-1.0-14.0,0,0,37970,,,,,,3.0,3.0,1.0,2000.0,S-M,1.0,M,S,2.0,1.0,hairdryer,screws,hairdryer5,screws5,74.0,124.0,/static/Size_judgement/Stimuli/Size_stims/M/hairdryer/hairdryer15.jpg,/static/Size_judgement/Stimuli/Size_stims/S/screws/screws2.jpg,,1.0,8.5,1.5,,,,,,,,,,,
16,,iti,,html-keyboard-response,16,241121,0.0-1.0-16.0,0,0,37970,,,,,,,,,,,,,,,,,,,,,,,,,,9.5,1.0,,,,,,,,,,,
17,,size_choice,,html-keyboard-response,17,242623,0.0-1.0-18.0,0,0,37970,,,,,,4.0,4.0,1.0,3500.0,S-XL,0.0,S,XL,1.0,4.0,teabag,car,teabag4,car9,133.0,158.0,/static/Size_judgement/Stimuli/Size_stims/S/teabag/teabag3.jpg,/static/Size_judgement/Stimuli/Size_stims/XL/car/car15.jpg,,1.0,11.0,1.5,,,,,,,,,,,
18,,iti,,html-keyboard-response,18,242728,0.0-1.0-20.0,0,0,37970,,,,,,,,,,,,,,,,,,,,,,,,,,13.5,2.5,,,,,,,,,,,
19,,size_choice,,html-keyboard-response,19,243024,0.0-1.0-22.0,0,0,37970,,294.0,,,68.0,5.0,5.0,1.0,1500.0,M-L,1.0,L,M,3.0,2.0,cooler,handsaw,cooler10,handsaw7,9.0,86.0,/static/Size_judgement/Stimuli/Size_stims/L/cooler/cooler6.jpg,/static/Size_judgement/Stimuli/Size_stims/M/handsaw/handsaw5.jpg,1.0,,13.794,0.294,1.0,cooler,handsaw,L,M,3.0,2.0,cooler10,handsaw7,0.0,
20,,size_choice_confirmation,,html-keyboard-response,20,244235,0.0-1.0-23.0-0.0,0,0,37970,,,,,,5.0,,,,,,,,,,,,,,,,,,,,15.0,1.206,,,,,,,,,,,
21,,iti,,html-keyboard-response,21,244340,0.0-1.0-24.0,0,0,37970,,,,,,,,,,,,,,,,,,,,,,,,,,16.5,1.5,,,,,,,,,,,
22,,size_choice,,html-keyboard-response,22,244528,0.0-1.0-26.0,0,0,37970,,186.0,,,68.0,6.0,6.0,1.0,2000.0,M-XL,0.0,M,XL,2.0,4.0,basketball,crane,basketball10,crane9,59.0,168.0,/static/Size_judgement/Stimuli/Size_stims/M/basketball/basketball4.jpg,/static/Size_judgement/Stimuli/Size_stims/XL/crane/crane8.jpg,0.0,,16.686,0.186,1.0,basketball,crane,M,XL,2.0,4.0,basketball10,crane9,0.0,
23,,size_choice_confirmation,,html-keyboard-response,23,245846,0.0-1.0-27.0-0.0,0,0,37970,,,,,,6.0,,,,,,,,,,,,,,,,,,,,18.0,1.314,,,,,,,,,,,
24,,iti,,html-keyboard-response,24,245952,0.0-1.0-28.0,0,0,37970,,,,,,,,,,,,,,,,,,,,,,,,,,20.0,2.0,,,,,,,,,,,
25,,size_choice,,html-keyboard-response,25,246140,0.0-1.0-30.0,0,0,37970,,185.0,,,68.0,7.0,7.0,1.0,3000.0,M-XL,0.0,M,XL,2.0,4.0,hairdryer,dumptruck,hairdryer7,dumptruck6,76.0,175.0,/static/Size_judgement/Stimuli/Size_stims/M/hairdryer/hairdryer3.jpg,/static/Size_judgement/Stimuli/Size_stims/XL/dumptruck/dumptruck2.jpg,0.0,,20.185,0.185,1.0,hairdryer,dumptruck,M,XL,2.0,4.0,hairdryer7,dumptruck6,0.0,
26,,size_choice_confirmation,,html-keyboard-response,26,247456,0.0-1.0-31.0-0.0,0,0,37970,,,,,,7.0,,,,,,,,,,,,,,,,,,,,21.5,1.315,,,,,,,,,,,
27,,iti,,html-keyboard-response,27,247562,0.0-1.0-32.0,0,0,37970,,,,,,,,,,,,,,,,,,,,,,,,,,24.5,3.0,,,,,,,,,,,
28,,size_choice,,html-keyboard-response,28,247786,0.0-1.0-34.0,0,0,37970,,223.0,,,68.0,8.0,8.0,1.0,2000.0,XL-XL,,XL,XL,4.0,4.0,van,crane,van2,crane8,191.0,167.0,/static/Size_judgement/Stimuli/Size_stims/XL/van/van4.jpg,/static/Size_judgement/Stimuli/Size_stims/XL/crane/crane10.jpg,,,24.723,0.223,1.0,van,crane,XL,XL,4.0,4.0,van2,crane8,0.0,
29,,size_choice_confirmation,,html-keyboard-response,29,249068,0.0-1.0-35.0-0.0,0,0,37970,,,,,,8.0,,,,,,,,,,,,,,,,,,,,26.0,1.277,,,,,,,,,,,
30,,iti,,html-keyboard-response,30,249174,0.0-1.0-36.0,0,0,37970,,,,,,,,,,,,,,,,,,,,,,,,,,28.0,2.0,,,,,,,,,,,
31,,size_choice,,html-keyboard-response,31,249608,0.0-1.0-38.0,0,0,37970,,432.0,,,68.0,9.0,9.0,1.0,2000.0,L-L,,L,L,3.0,3.0,dishwasher,cooler,dishwasher7,cooler8,26.0,7.0,/static/Size_judgement/Stimuli/Size_stims/L/dishwasher/dishwasher7.jpg,/static/Size_judgement/Stimuli/Size_stims/L/cooler/cooler5.jpg,,,28.432,0.432,1.0,dishwasher,cooler,L,L,3.0,3.0,dishwasher7,cooler8,0.0,
32,,size_choice_confirmation,,html-keyboard-response,32,250681,0.0-1.0-39.0-0.0,0,0,37970,,,,,,9.0,,,,,,,,,,,,,,,,,,,,29.5,1.068,,,,,,,,,,,
33,,iti,,html-keyboard-response,33,250784,0.0-1.0-40.0,0,0,37970,,,,,,,,,,,,,,,,,,,,,,,,,,31.5,2.0,,,,,,,,,,,
34,,size_choice,,html-keyboard-response,34,251240,0.0-1.0-42.0,0,0,37970,,454.0,,,68.0,10.0,10.0,1.0,1000.0,M-L,1.0,L,M,3.0,2.0,garbagecan,basketball,garbagecan4,basketball4,33.0,53.0,/static/Size_judgement/Stimuli/Size_stims/L/garbagecan/garbagecan6.jpg,/static/Size_judgement/Stimuli/Size_stims/M/basketball/basketball1.jpg,1.0,,31.954,0.454,1.0,garbagecan,basketball,L,M,3.0,2.0,garbagecan4,basketball4,0.0,
35,,size_choice_confirmation,,html-keyboard-response,35,252292,0.0-1.0-43.0-0.0,0,0,37970,,,,,,10.0,,,,,,,,,,,,,,,,,,,,33.0,1.046,,,,,,,,,,,
36,,iti,,html-keyboard-response,36,252395,0.0-1.0-44.0,0,0,37970,,,,,,,,,,,,,,,,,,,,,,,,,,34.0,1.0,,,,,,,,,,,
37,,size_choice,,html-keyboard-response,37,252672,0.0-1.0-46.0,0,0,37970,,277.0,,,68.0,11.0,11.0,1.0,1000.0,S-L,1.0,L,S,3.0,1.0,dishwasher,screws,dishwasher8,screws8,27.0,127.0,/static/Size_judgement/Stimuli/Size_stims/L/dishwasher/dishwasher3.jpg,/static/Size_judgement/Stimuli/Size_stims/S/screws/screws10.jpg,1.0,,34.277,0.277,1.0,dishwasher,screws,L,S,3.0,1.0,dishwasher8,screws8,0.0,
38,,size_choice_confirmation,,html-keyboard-response,38,253902,0.0-1.0-47.0-0.0,0,0,37970,,,,,,11.0,,,,,,,,,,,,,,,,,,,,35.5,1.223,,,,,,,,,,,
39,,iti,,html-keyboard-response,39,254006,0.0-1.0-48.0,0,0,37970,,,,,,,,,,,,,,,,,,,,,,,,,,36.5,1.0,,,,,,,,,,,
40,,size_choice,,html-keyboard-response,40,254502,0.0-1.0-50.0,0,0,37970,,495.0,,,68.0,12.0,12.0,1.0,1000.0,L-XL,1.0,XL,L,4.0,3.0,tractor,deskchair,tractor6,deskchair5,185.0,14.0,/static/Size_judgement/Stimuli/Size_stims/XL/tractor/tractor3.jpg,/static/Size_judgement/Stimuli/Size_stims/L/deskchair/deskchair7.jpg,1.0,,36.995,0.495,1.0,tractor,deskchair,XL,L,4.0,3.0,tractor6,deskchair5,0.0,
41,,size_choice_confirmation,,html-keyboard-response,41,255512,0.0-1.0-51.0-0.0,0,0,37970,,,,,,12.0,,,,,,,,,,,,,,,,,,,,38.0,1.005,,,,,,,,,,,
42,,iti,,html-keyboard-response,42,255617,0.0-1.0-52.0,0,0,37970,,,,,,,,,,,,,,,,,,,,,,,,,,39.0,1.0,,,,,,,,,,,
43,,size_choice,,html-keyboard-response,43,257121,0.0-1.0-54.0,0,0,37970,,,,,,13.0,13.0,1.0,1000.0,S-S,,S,S,1.0,1.0,thread,die,thread10,die1,149.0,100.0,/static/Size_judgement/Stimuli/Size_stims/S/thread/thread9.jpg,/static/Size_judgement/Stimuli/Size_stims/S/die/die8.jpg,,1.0,40.5,1.5,,,,,,,,,,,
44,,iti,,html-keyboard-response,44,257224,0.0-1.0-56.0,0,0,37970,,,,,,,,,,,,,,,,,,,,,,,,,,40.5,0.0,,,,,,,,,,,
45,,size_choice,,html-keyboard-response,45,257864,0.0-1.0-58.0,0,0,37970,,639.0,,,68.0,14.0,14.0,1.0,1000.0,M-XL,0.0,M,XL,2.0,4.0,coffeemaker,tractor,coffeemaker4,tractor4,63.0,183.0,/static/Size_judgement/Stimuli/Size_stims/M/coffeemaker/coffeemaker11.jpg,/static/Size_judgement/Stimuli/Size_stims/XL/tractor/tractor4.jpg,0.0,,41.139,0.639,1.0,coffeemaker,tractor,M,XL,2.0,4.0,coffeemaker4,tractor4,0.0,
46,,size_choice_confirmation,,html-keyboard-response,46,258729,0.0-1.0-59.0-0.0,0,0,37970,,,,,,14.0,,,,,,,,,,,,,,,,,,,,42.0,0.861,,,,,,,,,,,
47,,iti,,html-keyboard-response,47,258831,0.0-1.0-60.0,0,0,37970,,,,,,,,,,,,,,,,,,,,,,,,,,43.0,1.0,,,,,,,,,,,
48,,size_choice,,html-keyboard-response,48,259183,0.0-1.0-62.0,0,0,37970,,350.0,,,68.0,15.0,15.0,1.0,3500.0,M-XL,0.0,M,XL,2.0,4.0,handsaw,van,handsaw5,van10,84.0,199.0,/static/Size_judgement/Stimuli/Size_stims/M/handsaw/handsaw1.jpg,/static/Size_judgement/Stimuli/Size_stims/XL/van/van8.jpg,0.0,,43.35,0.35,1.0,handsaw,van,M,XL,2.0,4.0,handsaw5,van10,0.0,
49,,size_choice_confirmation,,html-keyboard-response,49,260334,0.0-1.0-63.0-0.0,0,0,37970,,,,,,15.0,,,,,,,,,,,,,,,,,,,,44.5,1.15,,,,,,,,,,,
50,,iti,,html-keyboard-response,50,260439,0.0-1.0-64.0,0,0,37970,,,,,,,,,,,,,,,,,,,,,,,,,,48.0,3.5,,,,,,,,,,,
51,,size_choice,,html-keyboard-response,51,261000,0.0-1.0-66.0,0,0,37970,,559.0,,,68.0,16.0,16.0,1.0,1500.0,XL-XL,,XL,XL,4.0,4.0,dumptruck,car,dumptruck2,car6,171.0,155.0,/static/Size_judgement/Stimuli/Size_stims/XL/dumptruck/dumptruck8.jpg,/static/Size_judgement/Stimuli/Size_stims/XL/car/car12.jpg,,,48.559,0.559,1.0,dumptruck,car,XL,XL,4.0,4.0,dumptruck2,car6,0.0,
52,,size_choice_confirmation,,html-keyboard-response,52,261945,0.0-1.0-67.0-0.0,0,0,37970,,,,,,16.0,,,,,,,,,,,,,,,,,,,,49.5,0.941,,,,,,,,,,,
53,,iti,,html-keyboard-response,53,262051,0.0-1.0-68.0,0,0,37970,,,,,,,,,,,,,,,,,,,,,,,,,,51.0,1.5,,,,,,,,,,,
54,,size_choice,,html-keyboard-response,54,262350,0.0-1.0-70.0,0,0,37970,,297.0,,,68.0,17.0,17.0,1.0,1500.0,S-XL,1.0,XL,S,4.0,1.0,van,screws,van1,screws6,190.0,125.0,/static/Size_judgement/Stimuli/Size_stims/XL/van/van5.jpg,/static/Size_judgement/Stimuli/Size_stims/S/screws/screws3.jpg,1.0,,51.297,0.297,1.0,van,screws,XL,S,4.0,1.0,van1,screws6,0.0,
55,,size_choice_confirmation,,html-keyboard-response,55,263560,0.0-1.0-71.0-0.0,0,0,37970,,,,,,17.0,,,,,,,,,,,,,,,,,,,,52.5,1.203,,,,,,,,,,,
56,,iti,,html-keyboard-response,56,263665,0.0-1.0-72.0,0,0,37970,,,,,,,,,,,,,,,,,,,,,,,,,,54.0,1.5,,,,,,,,,,,
57,,size_choice,,html-keyboard-response,57,263701,0.0-1.0-74.0,0,0,37970,,35.0,,,68.0,18.0,18.0,1.0,3500.0,M-XL,1.0,XL,M,4.0,2.0,car,basketball,car5,basketball8,154.0,57.0,/static/Size_judgement/Stimuli/Size_stims/XL/car/car11.jpg,/static/Size_judgement/Stimuli/Size_stims/M/basketball/basketball7.jpg,1.0,,54.035,0.035,1.0,car,basketball,XL,M,4.0,2.0,car5,basketball8,0.0,
58,,size_choice_confirmation,,html-keyboard-response,58,265171,0.0-1.0-75.0-0.0,0,0,37970,,,,,,18.0,,,,,,,,,,,,,,,,,,,,55.5,1.465,,,,,,,,,,,
59,,iti,,html-keyboard-response,59,265273,0.0-1.0-76.0,0,0,37970,,,,,,,,,,,,,,,,,,,,,,,,,,59.0,3.5,,,,,,,,,,,
60,,size_choice,,html-keyboard-response,60,265326,0.0-1.0-78.0,0,0,37970,,52.0,,,68.0,19.0,19.0,1.0,1500.0,S-L,1.0,L,S,3.0,1.0,cooler,thread,cooler7,thread7,6.0,146.0,/static/Size_judgement/Stimuli/Size_stims/L/cooler/cooler4.jpg,/static/Size_judgement/Stimuli/Size_stims/S/thread/thread3.jpg,1.0,,59.052,0.052,1.0,cooler,thread,L,S,3.0,1.0,cooler7,thread7,0.0,
61,,size_choice_confirmation,,html-keyboard-response,61,266779,0.0-1.0-79.0-0.0,0,0,37970,,,,,,19.0,,,,,,,,,,,,,,,,,,,,60.5,1.448,,,,,,,,,,,
62,,iti,,html-keyboard-response,62,266880,0.0-1.0-80.0,0,0,37970,,,,,,,,,,,,,,,,,,,,,,,,,,62.0,1.5,,,,,,,,,,,
63,,size_choice,,html-keyboard-response,63,267216,0.0-1.0-82.0,0,0,37970,,334.0,,,68.0,20.0,20.0,1.0,1000.0,S-S,,S,S,1.0,1.0,paperclip,teabag,paperclip8,teabag9,117.0,138.0,/static/Size_judgement/Stimuli/Size_stims/S/paperclip/paperclip5.jpg,/static/Size_judgement/Stimuli/Size_stims/S/teabag/teabag5.jpg,,,62.334,0.334,1.0,paperclip,teabag,S,S,1.0,1.0,paperclip8,teabag9,0.0,
64,,size_choice_confirmation,,html-keyboard-response,64,268384,0.0-1.0-83.0-0.0,0,0,37970,,,,,,20.0,,,,,,,,,,,,,,,,,,,,63.5,1.166,,,,,,,,,,,
65,,iti,,html-keyboard-response,65,268489,0.0-1.0-84.0,0,0,37970,,,,,,,,,,,,,,,,,,,,,,,,,,64.5,1.0,,,,,,,,,,,
66,,size_choice,,html-keyboard-response,66,268598,0.0-1.0-86.0,0,0,37970,,108.0,,,68.0,21.0,21.0,1.0,1000.0,S-S,,S,S,1.0,1.0,die,paperclip,die6,paperclip6,105.0,115.0,/static/Size_judgement/Stimuli/Size_stims/S/die/die1.jpg,/static/Size_judgement/Stimuli/Size_stims/S/paperclip/paperclip6.jpg,,,64.608,0.108,1.0,die,paperclip,S,S,1.0,1.0,die6,paperclip6,0.0,
67,,size_choice_confirmation,,html-keyboard-response,67,269996,0.0-1.0-87.0-0.0,0,0,37970,,,,,,21.0,,,,,,,,,,,,,,,,,,,,66.0,1.392,,,,,,,,,,,
68,,iti,,html-keyboard-response,68,270101,0.0-1.0-88.0,0,0,37970,,,,,,,,,,,,,,,,,,,,,,,,,,67.0,1.0,,,,,,,,,,,
69,,size_choice,,html-keyboard-response,69,270238,0.0-1.0-90.0,0,0,37970,,135.0,,,68.0,22.0,22.0,1.0,1000.0,L-XL,0.0,L,XL,3.0,4.0,dishwasher,dumptruck,dishwasher3,dumptruck3,22.0,172.0,/static/Size_judgement/Stimuli/Size_stims/L/dishwasher/dishwasher8.jpg,/static/Size_judgement/Stimuli/Size_stims/XL/dumptruck/dumptruck10.jpg,0.0,,67.135,0.135,1.0,dishwasher,dumptruck,L,XL,3.0,4.0,dishwasher3,dumptruck3,0.0,
70,,size_choice_confirmation,,html-keyboard-response,70,271607,0.0-1.0-91.0-0.0,0,0,37970,,,,,,22.0,,,,,,,,,,,,,,,,,,,,68.5,1.365,,,,,,,,,,,
71,,iti,,html-keyboard-response,71,271712,0.0-1.0-92.0,0,0,37970,,,,,,,,,,,,,,,,,,,,,,,,,,69.5,1.0,,,,,,,,,,,
72,,size_choice,,html-keyboard-response,72,271740,0.0-1.0-94.0,0,0,37970,,27.0,,,68.0,23.0,23.0,1.0,3000.0,M-M,,M,M,2.0,2.0,handsaw,hairdryer,handsaw8,hairdryer3,87.0,72.0,/static/Size_judgement/Stimuli/Size_stims/M/handsaw/handsaw7.jpg,/static/Size_judgement/Stimuli/Size_stims/M/hairdryer/hairdryer17.jpg,,,69.527,0.027,1.0,handsaw,hairdryer,M,M,2.0,2.0,handsaw8,hairdryer3,0.0,
73,,size_choice_confirmation,,html-keyboard-response,73,273218,0.0-1.0-95.0-0.0,0,0,37970,,,,,,23.0,,,,,,,,,,,,,,,,,,,,71.0,1.473,,,,,,,,,,,
74,,iti,,html-keyboard-response,74,273322,0.0-1.0-96.0,0,0,37970,,,,,,,,,,,,,,,,,,,,,,,,,,74.0,3.0,,,,,,,,,,,
75,,size_choice,,html-keyboard-response,75,273537,0.0-1.0-98.0,0,0,37970,,214.0,,,68.0,24.0,24.0,1.0,1000.0,S-M,1.0,M,S,2.0,1.0,basketball,paperclip,basketball2,paperclip10,51.0,119.0,/static/Size_judgement/Stimuli/Size_stims/M/basketball/basketball8.jpg,/static/Size_judgement/Stimuli/Size_stims/S/paperclip/paperclip10.jpg,1.0,,74.214,0.214,1.0,basketball,paperclip,M,S,2.0,1.0,basketball2,paperclip10,0.0,
76,,size_choice_confirmation,,html-keyboard-response,76,274825,0.0-1.0-99.0-0.0,0,0,37970,,,,,,24.0,,,,,,,,,,,,,,,,,,,,75.5,1.286,,,,,,,,,,,
77,,iti,,html-keyboard-response,77,274929,0.0-1.0-100.0,0,0,37970,,,,,,,,,,,,,,,,,,,,,,,,,,76.5,1.0,,,,,,,,,,,
78,,size_choice,,html-keyboard-response,78,275175,0.0-1.0-102.0,0,0,37970,,245.0,,,68.0,25.0,25.0,1.0,2000.0,S-L,1.0,L,S,3.0,1.0,dishwasher,paperclip,dishwasher10,paperclip9,29.0,118.0,/static/Size_judgement/Stimuli/Size_stims/L/dishwasher/dishwasher1.jpg,/static/Size_judgement/Stimuli/Size_stims/S/paperclip/paperclip4.jpg,1.0,,76.745,0.245,1.0,dishwasher,paperclip,L,S,3.0,1.0,dishwasher10,paperclip9,0.0,
79,,size_choice_confirmation,,html-keyboard-response,79,276434,0.0-1.0-103.0-0.0,0,0,37970,,,,,,25.0,,,,,,,,,,,,,,,,,,,,78.0,1.255,,,,,,,,,,,
80,,iti,,html-keyboard-response,80,276538,0.0-1.0-104.0,0,0,37970,,,,,,,,,,,,,,,,,,,,,,,,,,80.0,2.0,,,,,,,,,,,
81,,size_choice,,html-keyboard-response,81,276624,0.0-1.0-106.0,0,0,37970,,84.0,,,68.0,26.0,26.0,1.0,3000.0,S-L,1.0,L,S,3.0,1.0,deskchair,thread,deskchair10,thread2,19.0,141.0,/static/Size_judgement/Stimuli/Size_stims/L/deskchair/deskchair2.jpg,/static/Size_judgement/Stimuli/Size_stims/S/thread/thread6.jpg,1.0,,80.084,0.084,1.0,deskchair,thread,L,S,3.0,1.0,deskchair10,thread2,0.0,
82,,size_choice_confirmation,,html-keyboard-response,82,278046,0.0-1.0-107.0-0.0,0,0,37970,,,,,,26.0,,,,,,,,,,,,,,,,,,,,81.5,1.416,,,,,,,,,,,
83,,iti,,html-keyboard-response,83,278148,0.0-1.0-108.0,0,0,37970,,,,,,,,,,,,,,,,,,,,,,,,,,84.5,3.0,,,,,,,,,,,
84,,size_choice,,html-keyboard-response,84,278592,0.0-1.0-110.0,0,0,37970,,442.0,,,68.0,27.0,27.0,1.0,1000.0,L-L,,L,L,3.0,3.0,mailbox,garbagecan,mailbox5,garbagecan8,44.0,37.0,/static/Size_judgement/Stimuli/Size_stims/L/mailbox/mailbox4.jpg,/static/Size_judgement/Stimuli/Size_stims/L/garbagecan/garbagecan13.jpg,,,84.942,0.442,1.0,mailbox,garbagecan,L,L,3.0,3.0,mailbox5,garbagecan8,0.0,
85,,size_choice_confirmation,,html-keyboard-response,85,279653,0.0-1.0-111.0-0.0,0,0,37970,,,,,,27.0,,,,,,,,,,,,,,,,,,,,86.0,1.058,,,,,,,,,,,
86,,iti,,html-keyboard-response,86,279755,0.0-1.0-112.0,0,0,37970,,,,,,,,,,,,,,,,,,,,,,,,,,87.0,1.0,,,,,,,,,,,
87,,size_choice,,html-keyboard-response,87,280031,0.0-1.0-114.0,0,0,37970,,273.0,,,68.0,28.0,28.0,1.0,2000.0,M-L,0.0,M,L,2.0,3.0,ketchup,mailbox,ketchup2,mailbox9,91.0,48.0,/static/Size_judgement/Stimuli/Size_stims/M/ketchup/ketchup9.jpg,/static/Size_judgement/Stimuli/Size_stims/L/mailbox/mailbox9.jpg,0.0,,87.273,0.273,1.0,ketchup,mailbox,M,L,2.0,3.0,ketchup2,mailbox9,0.0,
88,,size_choice_confirmation,,html-keyboard-response,88,281262,0.0-1.0-115.0-0.0,0,0,37970,,,,,,28.0,,,,,,,,,,,,,,,,,,,,88.5,1.227,,,,,,,,,,,
89,,iti,,html-keyboard-response,89,281365,0.0-1.0-116.0,0,0,37970,,,,,,,,,,,,,,,,,,,,,,,,,,90.5,2.0,,,,,,,,,,,
90,,size_choice,,html-keyboard-response,90,281446,0.0-1.0-118.0,0,0,37970,,80.0,,,68.0,29.0,29.0,1.0,1000.0,S-XL,0.0,S,XL,1.0,4.0,die,dumptruck,die5,dumptruck9,104.0,178.0,/static/Size_judgement/Stimuli/Size_stims/S/die/die3.jpg,/static/Size_judgement/Stimuli/Size_stims/XL/dumptruck/dumptruck5.jpg,0.0,,90.58,0.08,1.0,die,dumptruck,S,XL,1.0,4.0,die5,dumptruck9,0.0,
91,,size_choice_confirmation,,html-keyboard-response,91,282869,0.0-1.0-119.0-0.0,0,0,37970,,,,,,29.0,,,,,,,,,,,,,,,,,,,,92.0,1.42,,,,,,,,,,,
92,,iti,,html-keyboard-response,92,282973,0.0-1.0-120.0,0,0,37970,,,,,,,,,,,,,,,,,,,,,,,,,,93.0,1.0,,,,,,,,,,,
93,,size_choice,,html-keyboard-response,93,283280,0.0-1.0-122.0,0,0,37970,,306.0,,,68.0,30.0,30.0,1.0,1000.0,S-XL,1.0,XL,S,4.0,1.0,tractor,die,tractor7,die2,186.0,101.0,/static/Size_judgement/Stimuli/Size_stims/XL/tractor/tractor2.jpg,/static/Size_judgement/Stimuli/Size_stims/S/die/die9.jpg,1.0,,93.306,0.306,1.0,tractor,die,XL,S,4.0,1.0,tractor7,die2,0.0,
94,,size_choice_confirmation,,html-keyboard-response,94,284475,0.0-1.0-123.0-0.0,0,0,37970,,,,,,30.0,,,,,,,,,,,,,,,,,,,,94.5,1.194,,,,,,,,,,,
95,,iti,,html-keyboard-response,95,284577,0.0-1.0-124.0,0,0,37970,,,,,,,,,,,,,,,,,,,,,,,,,,95.5,1.0,,,,,,,,,,,
96,,size_choice,,html-keyboard-response,96,284928,0.0-1.0-126.0,0,0,37970,,349.0,,,68.0,31.0,31.0,1.0,1500.0,S-L,1.0,L,S,3.0,1.0,garbagecan,thread,garbagecan2,thread9,31.0,148.0,/static/Size_judgement/Stimuli/Size_stims/L/garbagecan/garbagecan5.jpg,/static/Size_judgement/Stimuli/Size_stims/S/thread/thread8.jpg,1.0,,95.849,0.349,1.0,garbagecan,thread,L,S,3.0,1.0,garbagecan2,thread9,0.0,
97,,size_choice_confirmation,,html-keyboard-response,97,286080,0.0-1.0-127.0-0.0,0,0,37970,,,,,,31.0,,,,,,,,,,,,,,,,,,,,97.0,1.151,,,,,,,,,,,
98,,iti,,html-keyboard-response,98,286183,0.0-1.0-128.0,0,0,37970,,,,,,,,,,,,,,,,,,,,,,,,,,98.5,1.5,,,,,,,,,,,
99,,size_choice,,html-keyboard-response,99,286383,0.0-1.0-130.0,0,0,37970,,199.0,,,68.0,32.0,32.0,1.0,2000.0,M-L,0.0,M,L,2.0,3.0,handsaw,deskchair,handsaw9,deskchair2,88.0,11.0,/static/Size_judgement/Stimuli/Size_stims/M/handsaw/handsaw6.jpg,/static/Size_judgement/Stimuli/Size_stims/L/deskchair/deskchair8.jpg,0.0,,98.699,0.199,1.0,handsaw,deskchair,M,L,2.0,3.0,handsaw9,deskchair2,0.0,
100,,size_choice_confirmation,,html-keyboard-response,100,287688,0.0-1.0-131.0-0.0,0,0,37970,,,,,,32.0,,,,,,,,,,,,,,,,,,,,100.0,1.301,,,,,,,,,,,
101,,iti,,html-keyboard-response,101,287791,0.0-1.0-132.0,0,0,37970,,,,,,,,,,,,,,,,,,,,,,,,,,102.0,2.0,,,,,,,,,,,
102,,size_choice,,html-keyboard-response,102,287895,0.0-1.0-134.0,0,0,37970,,102.0,,,68.0,33.0,33.0,1.0,1000.0,S-L,1.0,L,S,3.0,1.0,garbagecan,teabag,garbagecan3,teabag8,32.0,137.0,/static/Size_judgement/Stimuli/Size_stims/L/garbagecan/garbagecan7.jpg,/static/Size_judgement/Stimuli/Size_stims/S/teabag/teabag7.jpg,1.0,,102.102,0.102,1.0,garbagecan,teabag,L,S,3.0,1.0,garbagecan3,teabag8,0.0,
103,,size_choice_confirmation,,html-keyboard-response,103,289296,0.0-1.0-135.0-0.0,0,0,37970,,,,,,33.0,,,,,,,,,,,,,,,,,,,,103.5,1.398,,,,,,,,,,,
104,,iti,,html-keyboard-response,104,289397,0.0-1.0-136.0,0,0,37970,,,,,,,,,,,,,,,,,,,,,,,,,,104.5,1.0,,,,,,,,,,,
105,,size_choice,,html-keyboard-response,105,289639,0.0-1.0-138.0,0,0,37970,,241.0,,,68.0,34.0,34.0,1.0,1000.0,M-L,0.0,M,L,2.0,3.0,handsaw,dishwasher,handsaw2,dishwasher4,81.0,23.0,/static/Size_judgement/Stimuli/Size_stims/M/handsaw/handsaw9.jpg,/static/Size_judgement/Stimuli/Size_stims/L/dishwasher/dishwasher5.jpg,0.0,,104.741,0.241,1.0,handsaw,dishwasher,M,L,2.0,3.0,handsaw2,dishwasher4,0.0,
106,,size_choice_confirmation,,html-keyboard-response,106,290900,0.0-1.0-139.0-0.0,0,0,37970,,,,,,34.0,,,,,,,,,,,,,,,,,,,,106.0,1.259,,,,,,,,,,,
107,,iti,,html-keyboard-response,107,291003,0.0-1.0-140.0,0,0,37970,,,,,,,,,,,,,,,,,,,,,,,,,,107.0,1.0,,,,,,,,,,,
108,,size_choice,,html-keyboard-response,108,291007,0.0-1.0-142.0,0,0,37970,,3.0,,,68.0,35.0,35.0,1.0,1500.0,M-L,1.0,L,M,3.0,2.0,dishwasher,ketchup,dishwasher1,ketchup4,20.0,93.0,/static/Size_judgement/Stimuli/Size_stims/L/dishwasher/dishwasher10.jpg,/static/Size_judgement/Stimuli/Size_stims/M/ketchup/ketchup2.jpg,1.0,,107.003,0.003,1.0,dishwasher,ketchup,L,M,3.0,2.0,dishwasher1,ketchup4,0.0,
109,,size_choice_confirmation,,html-keyboard-response,109,292506,0.0-1.0-143.0-0.0,0,0,37970,,,,,,35.0,,,,,,,,,,,,,,,,,,,,108.5,1.497,,,,,,,,,,,
110,,iti,,html-keyboard-response,110,292608,0.0-1.0-144.0,0,0,37970,,,,,,,,,,,,,,,,,,,,,,,,,,110.0,1.5,,,,,,,,,,,
111,,size_choice,,html-keyboard-response,111,294115,0.0-1.0-146.0,0,0,37970,,,,,,36.0,36.0,1.0,1500.0,M-L,0.0,M,L,2.0,3.0,hairdryer,cooler,hairdryer6,cooler3,75.0,2.0,/static/Size_judgement/Stimuli/Size_stims/M/hairdryer/hairdryer8.jpg,/static/Size_judgement/Stimuli/Size_stims/L/cooler/cooler2.jpg,,1.0,111.5,1.5,,,,,,,,,,,
112,,iti,,html-keyboard-response,112,294218,0.0-1.0-148.0,0,0,37970,,,,,,,,,,,,,,,,,,,,,,,,,,112.0,0.5,,,,,,,,,,,
113,,size_choice,,html-keyboard-response,113,295721,0.0-1.0-150.0,0,0,37970,,,,,,37.0,37.0,1.0,1000.0,S-XL,1.0,XL,S,4.0,1.0,car,teabag,car4,teabag10,153.0,139.0,/static/Size_judgement/Stimuli/Size_stims/XL/car/car6.jpg,/static/Size_judgement/Stimuli/Size_stims/S/teabag/teabag4.jpg,,1.0,113.5,1.5,,,,,,,,,,,
114,,iti,,html-keyboard-response,114,295823,0.0-1.0-152.0,0,0,37970,,,,,,,,,,,,,,,,,,,,,,,,,,113.5,0.0,,,,,,,,,,,
115,,size_choice,,html-keyboard-response,115,297325,0.0-1.0-154.0,0,0,37970,,,,,,38.0,38.0,1.0,1500.0,M-XL,1.0,XL,M,4.0,2.0,tractor,handsaw,tractor8,handsaw10,187.0,89.0,/static/Size_judgement/Stimuli/Size_stims/XL/tractor/tractor10.jpg,/static/Size_judgement/Stimuli/Size_stims/M/handsaw/handsaw10.jpg,,1.0,115.0,1.5,,,,,,,,,,,
116,,iti,,html-keyboard-response,116,297430,0.0-1.0-156.0,0,0,37970,,,,,,,,,,,,,,,,,,,,,,,,,,115.5,0.5,,,,,,,,,,,
117,,size_choice,,html-keyboard-response,117,298932,0.0-1.0-158.0,0,0,37970,,,,,,39.0,39.0,1.0,1500.0,S-M,1.0,M,S,2.0,1.0,basketball,screws,basketball6,screws9,55.0,128.0,/static/Size_judgement/Stimuli/Size_stims/M/basketball/basketball2.jpg,/static/Size_judgement/Stimuli/Size_stims/S/screws/screws8.jpg,,1.0,117.0,1.5,,,,,,,,,,,
118,,iti,,html-keyboard-response,118,299035,0.0-1.0-160.0,0,0,37970,,,,,,,,,,,,,,,,,,,,,,,,,,117.5,0.5,,,,,,,,,,,
119,,size_choice,,html-keyboard-response,119,300537,0.0-1.0-162.0,0,0,37970,,,,,,40.0,40.0,1.0,1000.0,M-XL,0.0,M,XL,2.0,4.0,hairdryer,dumptruck,hairdryer1,dumptruck5,70.0,174.0,/static/Size_judgement/Stimuli/Size_stims/M/hairdryer/hairdryer11.jpg,/static/Size_judgement/Stimuli/Size_stims/XL/dumptruck/dumptruck3.jpg,,1.0,119.0,1.5,,,,,,,,,,,
120,,iti,,html-keyboard-response,120,300642,0.0-1.0-164.0,0,0,37970,,,,,,,,,,,,,,,,,,,,,,,,,,119.0,0.0,,,,,,,,,,,
121,,size_choice,,html-keyboard-response,121,302146,0.0-1.0-166.0,0,0,37970,,,,,,41.0,41.0,1.0,1500.0,S-L,0.0,S,L,1.0,3.0,paperclip,mailbox,paperclip2,mailbox7,111.0,46.0,/static/Size_judgement/Stimuli/Size_stims/S/paperclip/paperclip8.jpg,/static/Size_judgement/Stimuli/Size_stims/L/mailbox/mailbox7.jpg,,1.0,120.5,1.5,,,,,,,,,,,
122,,iti,,html-keyboard-response,122,302250,0.0-1.0-168.0,0,0,37970,,,,,,,,,,,,,,,,,,,,,,,,,,121.0,0.5,,,,,,,,,,,
123,,size_choice,,html-keyboard-response,123,303755,0.0-1.0-170.0,0,0,37970,,,,,,42.0,42.0,1.0,2000.0,S-XL,0.0,S,XL,1.0,4.0,thread,dumptruck,thread8,dumptruck10,147.0,179.0,/static/Size_judgement/Stimuli/Size_stims/S/thread/thread10.jpg,/static/Size_judgement/Stimuli/Size_stims/XL/dumptruck/dumptruck4.jpg,,1.0,122.5,1.5,,,,,,,,,,,
124,,iti,,html-keyboard-response,124,303862,0.0-1.0-172.0,0,0,37970,,,,,,,,,,,,,,,,,,,,,,,,,,123.5,1.0,,,,,,,,,,,
125,,size_choice,,html-keyboard-response,125,305368,0.0-1.0-174.0,0,0,37970,,,,,,43.0,43.0,1.0,3000.0,L-XL,0.0,L,XL,3.0,4.0,cooler,tractor,cooler1,tractor10,0.0,189.0,/static/Size_judgement/Stimuli/Size_stims/L/cooler/cooler8.jpg,/static/Size_judgement/Stimuli/Size_stims/XL/tractor/tractor8.jpg,,1.0,125.0,1.5,,,,,,,,,,,
126,,iti,,html-keyboard-response,126,305473,0.0-1.0-176.0,0,0,37970,,,,,,,,,,,,,,,,,,,,,,,,,,127.0,2.0,,,,,,,,,,,
127,,size_choice,,html-keyboard-response,127,306979,0.0-1.0-178.0,0,0,37970,,,,,,44.0,44.0,1.0,1500.0,M-M,,M,M,2.0,2.0,hairdryer,coffeemaker,hairdryer10,coffeemaker1,79.0,60.0,/static/Size_judgement/Stimuli/Size_stims/M/hairdryer/hairdryer6.jpg,/static/Size_judgement/Stimuli/Size_stims/M/coffeemaker/coffeemaker14.jpg,,1.0,128.5,1.5,,,,,,,,,,,
128,,iti,,html-keyboard-response,128,307082,0.0-1.0-180.0,0,0,37970,,,,,,,,,,,,,,,,,,,,,,,,,,129.0,0.5,,,,,,,,,,,
129,,block_over,,html-keyboard-response,129,412620,0.0-1.0-181.0-0.0,0,0,37970,,105525.0,,,68.0,44.0,,,,,,,,,,,,,,,,,,,,,,,,,,,,,,,,
130,,size_choice,,html-keyboard-response,130,413571,0.0-1.0-182.0,0,0,37970,,949.0,,,68.0,45.0,45.0,2.0,3500.0,L-XL,0.0,L,XL,3.0,4.0,cooler,car,cooler4,car3,3.0,152.0,/static/Size_judgement/Stimuli/Size_stims/L/cooler/cooler3.jpg,/static/Size_judgement/Stimuli/Size_stims/XL/car/car4.jpg,0.0,,129.949,0.949,1.0,cooler,car,L,XL,3.0,4.0,cooler4,car3,0.0,
131,,size_choice_confirmation,,html-keyboard-response,131,414124,0.0-1.0-183.0-0.0,0,0,37970,,,,,,45.0,,,,,,,,,,,,,,,,,,,,130.5,0.551,,,,,,,,,,,
132,,iti,,html-keyboard-response,132,414231,0.0-1.0-184.0,0,0,37970,,,,,,,,,,,,,,,,,,,,,,,,,,134.0,3.5,,,,,,,,,,,
133,,size_choice,,html-keyboard-response,133,414441,0.0-1.0-186.0,0,0,37970,,209.0,,,68.0,46.0,46.0,2.0,2000.0,L-L,,L,L,3.0,3.0,deskchair,cooler,deskchair8,cooler2,17.0,1.0,/static/Size_judgement/Stimuli/Size_stims/L/deskchair/deskchair1.jpg,/static/Size_judgement/Stimuli/Size_stims/L/cooler/cooler9.jpg,,,134.209,0.209,1.0,deskchair,cooler,L,L,3.0,3.0,deskchair8,cooler2,0.0,
134,,size_choice_confirmation,,html-keyboard-response,134,415734,0.0-1.0-187.0-0.0,0,0,37970,,,,,,46.0,,,,,,,,,,,,,,,,,,,,135.5,1.291,,,,,,,,,,,
135,,iti,,html-keyboard-response,135,415836,0.0-1.0-188.0,0,0,37970,,,,,,,,,,,,,,,,,,,,,,,,,,137.5,2.0,,,,,,,,,,,
136,,size_choice,,html-keyboard-response,136,416092,0.0-1.0-190.0,0,0,37970,,255.0,,,68.0,47.0,47.0,2.0,1500.0,M-L,0.0,M,L,2.0,3.0,basketball,cooler,basketball3,cooler9,52.0,8.0,/static/Size_judgement/Stimuli/Size_stims/M/basketball/basketball10.jpg,/static/Size_judgement/Stimuli/Size_stims/L/cooler/cooler7.jpg,0.0,,137.755,0.255,1.0,basketball,cooler,M,L,2.0,3.0,basketball3,cooler9,0.0,
137,,size_choice_confirmation,,html-keyboard-response,137,417343,0.0-1.0-191.0-0.0,0,0,37970,,,,,,47.0,,,,,,,,,,,,,,,,,,,,139.0,1.245,,,,,,,,,,,
138,,iti,,html-keyboard-response,138,417448,0.0-1.0-192.0,0,0,37970,,,,,,,,,,,,,,,,,,,,,,,,,,140.5,1.5,,,,,,,,,,,
139,,size_choice,,html-keyboard-response,139,417779,0.0-1.0-194.0,0,0,37970,,330.0,,,68.0,48.0,48.0,2.0,1000.0,M-XL,1.0,XL,M,4.0,2.0,car,ketchup,car8,ketchup5,157.0,94.0,/static/Size_judgement/Stimuli/Size_stims/XL/car/car14.jpg,/static/Size_judgement/Stimuli/Size_stims/M/ketchup/ketchup3.jpg,1.0,,140.83,0.33,1.0,car,ketchup,XL,M,4.0,2.0,car8,ketchup5,0.0,
140,,size_choice_confirmation,,html-keyboard-response,140,418951,0.0-1.0-195.0-0.0,0,0,37970,,,,,,48.0,,,,,,,,,,,,,,,,,,,,142.0,1.17,,,,,,,,,,,
141,,iti,,html-keyboard-response,141,419053,0.0-1.0-196.0,0,0,37970,,,,,,,,,,,,,,,,,,,,,,,,,,143.0,1.0,,,,,,,,,,,
142,,size_choice,,html-keyboard-response,142,419357,0.0-1.0-198.0,0,0,37970,,302.0,,,68.0,49.0,49.0,2.0,1000.0,S-S,,S,S,1.0,1.0,die,thread,die3,thread6,102.0,145.0,/static/Size_judgement/Stimuli/Size_stims/S/die/die10.jpg,/static/Size_judgement/Stimuli/Size_stims/S/thread/thread2.jpg,,,143.302,0.302,1.0,die,thread,S,S,1.0,1.0,die3,thread6,0.0,
143,,size_choice_confirmation,,html-keyboard-response,143,420557,0.0-1.0-199.0-0.0,0,0,37970,,,,,,49.0,,,,,,,,,,,,,,,,,,,,144.5,1.198,,,,,,,,,,,
144,,iti,,html-keyboard-response,144,420660,0.0-1.0-200.0,0,0,37970,,,,,,,,,,,,,,,,,,,,,,,,,,145.5,1.0,,,,,,,,,,,
145,,size_choice,,html-keyboard-response,145,420732,0.0-1.0-202.0,0,0,37970,,71.0,,,68.0,50.0,50.0,2.0,2000.0,S-XL,0.0,S,XL,1.0,4.0,thread,car,thread3,car10,142.0,159.0,/static/Size_judgement/Stimuli/Size_stims/S/thread/thread4.jpg,/static/Size_judgement/Stimuli/Size_stims/XL/car/car9.jpg,0.0,,145.571,0.071,1.0,thread,car,S,XL,1.0,4.0,thread3,car10,0.0,
146,,size_choice_confirmation,,html-keyboard-response,146,422167,0.0-1.0-203.0-0.0,0,0,37970,,,,,,50.0,,,,,,,,,,,,,,,,,,,,147.0,1.429,,,,,,,,,,,
147,,iti,,html-keyboard-response,147,422270,0.0-1.0-204.0,0,0,37970,,,,,,,,,,,,,,,,,,,,,,,,,,149.0,2.0,,,,,,,,,,,
148,,size_choice,,html-keyboard-response,148,422823,0.0-1.0-206.0,0,0,37970,,552.0,,,68.0,51.0,51.0,2.0,2000.0,M-M,,M,M,2.0,2.0,ketchup,basketball,ketchup9,basketball9,98.0,58.0,/static/Size_judgement/Stimuli/Size_stims/M/ketchup/ketchup7.jpg,/static/Size_judgement/Stimuli/Size_stims/M/basketball/basketball5.jpg,,,149.552,0.552,1.0,ketchup,basketball,M,M,2.0,2.0,ketchup9,basketball9,0.0,
149,,size_choice_confirmation,,html-keyboard-response,149,423774,0.0-1.0-207.0-0.0,0,0,37970,,,,,,51.0,,,,,,,,,,,,,,,,,,,,150.5,0.948,,,,,,,,,,,
150,,iti,,html-keyboard-response,150,423876,0.0-1.0-208.0,0,0,37970,,,,,,,,,,,,,,,,,,,,,,,,,,152.5,2.0,,,,,,,,,,,
151,,size_choice,,html-keyboard-response,151,424869,0.0-1.0-210.0,0,0,37970,,992.0,,,68.0,52.0,52.0,2.0,1500.0,S-M,0.0,S,M,1.0,2.0,thread,ketchup,thread4,ketchup7,143.0,96.0,/static/Size_judgement/Stimuli/Size_stims/S/thread/thread5.jpg,/static/Size_judgement/Stimuli/Size_stims/M/ketchup/ketchup4.jpg,0.0,,153.492,0.992,1.0,thread,ketchup,S,M,1.0,2.0,thread4,ketchup7,0.0,
152,,size_choice_confirmation,,html-keyboard-response,152,425380,0.0-1.0-211.0-0.0,0,0,37970,,,,,,52.0,,,,,,,,,,,,,,,,,,,,154.0,0.508,,,,,,,,,,,
153,,iti,,html-keyboard-response,153,425483,0.0-1.0-212.0,0,0,37970,,,,,,,,,,,,,,,,,,,,,,,,,,155.5,1.5,,,,,,,,,,,
154,,size_choice,,html-keyboard-response,154,425844,0.0-1.0-214.0,0,0,37970,,360.0,,,68.0,53.0,53.0,2.0,1500.0,M-XL,0.0,M,XL,2.0,4.0,ketchup,van,ketchup1,van8,90.0,197.0,/static/Size_judgement/Stimuli/Size_stims/M/ketchup/ketchup8.jpg,/static/Size_judgement/Stimuli/Size_stims/XL/van/van10.jpg,0.0,,155.86,0.36,1.0,ketchup,van,M,XL,2.0,4.0,ketchup1,van8,0.0,
155,,size_choice_confirmation,,html-keyboard-response,155,426987,0.0-1.0-215.0-0.0,0,0,37970,,,,,,53.0,,,,,,,,,,,,,,,,,,,,157.0,1.14,,,,,,,,,,,
156,,iti,,html-keyboard-response,156,427092,0.0-1.0-216.0,0,0,37970,,,,,,,,,,,,,,,,,,,,,,,,,,158.5,1.5,,,,,,,,,,,
157,,size_choice,,html-keyboard-response,157,427455,0.0-1.0-218.0,0,0,37970,,362.0,,,68.0,54.0,54.0,2.0,2000.0,XL-XL,,XL,XL,4.0,4.0,dumptruck,car,dumptruck1,car2,170.0,151.0,/static/Size_judgement/Stimuli/Size_stims/XL/dumptruck/dumptruck9.jpg,/static/Size_judgement/Stimuli/Size_stims/XL/car/car3.jpg,,,158.862,0.362,1.0,dumptruck,car,XL,XL,4.0,4.0,dumptruck1,car2,0.0,
158,,size_choice_confirmation,,html-keyboard-response,158,428599,0.0-1.0-219.0-0.0,0,0,37970,,,,,,54.0,,,,,,,,,,,,,,,,,,,,160.0,1.138,,,,,,,,,,,
159,,iti,,html-keyboard-response,159,428705,0.0-1.0-220.0,0,0,37970,,,,,,,,,,,,,,,,,,,,,,,,,,162.0,2.0,,,,,,,,,,,
160,,size_choice,,html-keyboard-response,160,428834,0.0-1.0-222.0,0,0,37970,,128.0,,,68.0,55.0,55.0,2.0,1000.0,M-L,1.0,L,M,3.0,2.0,mailbox,coffeemaker,mailbox10,coffeemaker10,49.0,69.0,/static/Size_judgement/Stimuli/Size_stims/L/mailbox/mailbox8.jpg,/static/Size_judgement/Stimuli/Size_stims/M/coffeemaker/coffeemaker18.jpg,1.0,,162.128,0.128,1.0,mailbox,coffeemaker,L,M,3.0,2.0,mailbox10,coffeemaker10,0.0,
161,,size_choice_confirmation,,html-keyboard-response,161,430211,0.0-1.0-223.0-0.0,0,0,37970,,,,,,55.0,,,,,,,,,,,,,,,,,,,,163.5,1.372,,,,,,,,,,,
162,,iti,,html-keyboard-response,162,430314,0.0-1.0-224.0,0,0,37970,,,,,,,,,,,,,,,,,,,,,,,,,,164.5,1.0,,,,,,,,,,,
163,,size_choice,,html-keyboard-response,163,430541,0.0-1.0-226.0,0,0,37970,,226.0,,,68.0,56.0,56.0,2.0,1000.0,M-XL,0.0,M,XL,2.0,4.0,hairdryer,van,hairdryer4,van5,73.0,194.0,/static/Size_judgement/Stimuli/Size_stims/M/hairdryer/hairdryer16.jpg,/static/Size_judgement/Stimuli/Size_stims/XL/van/van3.jpg,0.0,,164.726,0.226,1.0,hairdryer,van,M,XL,2.0,4.0,hairdryer4,van5,0.0,
164,,size_choice_confirmation,,html-keyboard-response,164,431818,0.0-1.0-227.0-0.0,0,0,37970,,,,,,56.0,,,,,,,,,,,,,,,,,,,,166.0,1.274,,,,,,,,,,,
165,,iti,,html-keyboard-response,165,431920,0.0-1.0-228.0,0,0,37970,,,,,,,,,,,,,,,,,,,,,,,,,,167.0,1.0,,,,,,,,,,,
166,,size_choice,,html-keyboard-response,166,432022,0.0-1.0-230.0,0,0,37970,,101.0,,,68.0,57.0,57.0,2.0,1000.0,S-L,0.0,S,L,1.0,3.0,die,mailbox,die10,mailbox6,109.0,45.0,/static/Size_judgement/Stimuli/Size_stims/S/die/die6.jpg,/static/Size_judgement/Stimuli/Size_stims/L/mailbox/mailbox6.jpg,0.0,,167.101,0.101,1.0,die,mailbox,S,L,1.0,3.0,die10,mailbox6,0.0,
167,,size_choice_confirmation,,html-keyboard-response,167,433426,0.0-1.0-231.0-0.0,0,0,37970,,,,,,57.0,,,,,,,,,,,,,,,,,,,,168.5,1.399,,,,,,,,,,,
168,,iti,,html-keyboard-response,168,433531,0.0-1.0-232.0,0,0,37970,,,,,,,,,,,,,,,,,,,,,,,,,,169.5,1.0,,,,,,,,,,,
169,,size_choice,,html-keyboard-response,169,434245,0.0-1.0-234.0,0,0,37970,,713.0,,,68.0,58.0,58.0,2.0,3000.0,M-XL,1.0,XL,M,4.0,2.0,crane,ketchup,crane6,ketchup6,165.0,95.0,/static/Size_judgement/Stimuli/Size_stims/XL/crane/crane2.jpg,/static/Size_judgement/Stimuli/Size_stims/M/ketchup/ketchup1.jpg,1.0,,170.213,0.713,1.0,crane,ketchup,XL,M,4.0,2.0,crane6,ketchup6,0.0,
170,,size_choice_confirmation,,html-keyboard-response,170,435034,0.0-1.0-235.0-0.0,0,0,37970,,,,,,58.0,,,,,,,,,,,,,,,,,,,,171.0,0.787,,,,,,,,,,,
171,,iti,,html-keyboard-response,171,435138,0.0-1.0-236.0,0,0,37970,,,,,,,,,,,,,,,,,,,,,,,,,,174.0,3.0,,,,,,,,,,,
172,,size_choice,,html-keyboard-response,172,435709,0.0-1.0-238.0,0,0,37970,,569.0,,,68.0,59.0,59.0,2.0,1500.0,S-XL,1.0,XL,S,4.0,1.0,van,teabag,van4,teabag3,193.0,132.0,/static/Size_judgement/Stimuli/Size_stims/XL/van/van7.jpg,/static/Size_judgement/Stimuli/Size_stims/S/teabag/teabag1.jpg,1.0,,174.569,0.569,1.0,van,teabag,XL,S,4.0,1.0,van4,teabag3,0.0,
173,,size_choice_confirmation,,html-keyboard-response,173,436641,0.0-1.0-239.0-0.0,0,0,37970,,,,,,59.0,,,,,,,,,,,,,,,,,,,,175.5,0.931,,,,,,,,,,,
174,,iti,,html-keyboard-response,174,436744,0.0-1.0-240.0,0,0,37970,,,,,,,,,,,,,,,,,,,,,,,,,,177.0,1.5,,,,,,,,,,,
175,,size_choice,,html-keyboard-response,175,437300,0.0-1.0-242.0,0,0,37970,,556.0,,,68.0,60.0,60.0,2.0,1500.0,S-L,0.0,S,L,1.0,3.0,paperclip,deskchair,paperclip4,deskchair3,113.0,12.0,/static/Size_judgement/Stimuli/Size_stims/S/paperclip/paperclip3.jpg,/static/Size_judgement/Stimuli/Size_stims/L/deskchair/deskchair10.jpg,0.0,,177.556,0.556,1.0,paperclip,deskchair,S,L,1.0,3.0,paperclip4,deskchair3,0.0,
176,,size_choice_confirmation,,html-keyboard-response,176,438249,0.0-1.0-243.0-0.0,0,0,37970,,,,,,60.0,,,,,,,,,,,,,,,,,,,,178.5,0.944,,,,,,,,,,,
177,,iti,,html-keyboard-response,177,438352,0.0-1.0-244.0,0,0,37970,,,,,,,,,,,,,,,,,,,,,,,,,,180.0,1.5,,,,,,,,,,,
178,,size_choice,,html-keyboard-response,178,439013,0.0-1.0-246.0,0,0,37970,,660.0,,,68.0,61.0,61.0,2.0,1000.0,L-L,,L,L,3.0,3.0,dishwasher,garbagecan,dishwasher5,garbagecan1,24.0,30.0,/static/Size_judgement/Stimuli/Size_stims/L/dishwasher/dishwasher4.jpg,/static/Size_judgement/Stimuli/Size_stims/L/garbagecan/garbagecan4.jpg,,,180.66,0.66,1.0,dishwasher,garbagecan,L,L,3.0,3.0,dishwasher5,garbagecan1,0.0,
179,,size_choice_confirmation,,html-keyboard-response,179,439856,0.0-1.0-247.0-0.0,0,0,37970,,,,,,61.0,,,,,,,,,,,,,,,,,,,,181.5,0.84,,,,,,,,,,,
180,,iti,,html-keyboard-response,180,439960,0.0-1.0-248.0,0,0,37970,,,,,,,,,,,,,,,,,,,,,,,,,,182.5,1.0,,,,,,,,,,,
181,,size_choice,,html-keyboard-response,181,440141,0.0-1.0-250.0,0,0,37970,,179.0,,,68.0,62.0,62.0,2.0,1000.0,M-L,0.0,M,L,2.0,3.0,ketchup,deskchair,ketchup3,deskchair7,92.0,16.0,/static/Size_judgement/Stimuli/Size_stims/M/ketchup/ketchup10.jpg,/static/Size_judgement/Stimuli/Size_stims/L/deskchair/deskchair4.jpg,0.0,,182.679,0.179,1.0,ketchup,deskchair,M,L,2.0,3.0,ketchup3,deskchair7,0.0,
182,,size_choice_confirmation,,html-keyboard-response,182,441465,0.0-1.0-251.0-0.0,0,0,37970,,,,,,62.0,,,,,,,,,,,,,,,,,,,,184.0,1.321,,,,,,,,,,,
183,,iti,,html-keyboard-response,183,441566,0.0-1.0-252.0,0,0,37970,,,,,,,,,,,,,,,,,,,,,,,,,,185.0,1.0,,,,,,,,,,,
184,,size_choice,,html-keyboard-response,184,441891,0.0-1.0-254.0,0,0,37970,,324.0,,,68.0,63.0,63.0,2.0,2000.0,S-M,0.0,S,M,1.0,2.0,teabag,coffeemaker,teabag2,coffeemaker3,131.0,62.0,/static/Size_judgement/Stimuli/Size_stims/S/teabag/teabag8.jpg,/static/Size_judgement/Stimuli/Size_stims/M/coffeemaker/coffeemaker13.jpg,0.0,,185.324,0.324,1.0,teabag,coffeemaker,S,M,1.0,2.0,teabag2,coffeemaker3,0.0,
185,,size_choice_confirmation,,html-keyboard-response,185,443070,0.0-1.0-255.0-0.0,0,0,37970,,,,,,63.0,,,,,,,,,,,,,,,,,,,,186.5,1.176,,,,,,,,,,,
186,,iti,,html-keyboard-response,186,443172,0.0-1.0-256.0,0,0,37970,,,,,,,,,,,,,,,,,,,,,,,,,,188.5,2.0,,,,,,,,,,,
187,,size_choice,,html-keyboard-response,187,443476,0.0-1.0-258.0,0,0,37970,,303.0,,,68.0,64.0,64.0,2.0,1000.0,M-L,0.0,M,L,2.0,3.0,coffeemaker,garbagecan,coffeemaker6,garbagecan10,65.0,39.0,/static/Size_judgement/Stimuli/Size_stims/M/coffeemaker/coffeemaker8.jpg,/static/Size_judgement/Stimuli/Size_stims/L/garbagecan/garbagecan11.jpg,0.0,,188.803,0.303,1.0,coffeemaker,garbagecan,M,L,2.0,3.0,coffeemaker6,garbagecan10,0.0,
188,,size_choice_confirmation,,html-keyboard-response,188,444676,0.0-1.0-259.0-0.0,0,0,37970,,,,,,64.0,,,,,,,,,,,,,,,,,,,,190.0,1.197,,,,,,,,,,,
189,,iti,,html-keyboard-response,189,444781,0.0-1.0-260.0,0,0,37970,,,,,,,,,,,,,,,,,,,,,,,,,,191.0,1.0,,,,,,,,,,,
190,,size_choice,,html-keyboard-response,190,445242,0.0-1.0-262.0,0,0,37970,,461.0,,,68.0,65.0,65.0,2.0,1000.0,S-XL,1.0,XL,S,4.0,1.0,crane,paperclip,crane1,paperclip3,160.0,112.0,/static/Size_judgement/Stimuli/Size_stims/XL/crane/crane7.jpg,/static/Size_judgement/Stimuli/Size_stims/S/paperclip/paperclip1.jpg,1.0,,191.461,0.461,1.0,crane,paperclip,XL,S,4.0,1.0,crane1,paperclip3,0.0,
191,,size_choice_confirmation,,html-keyboard-response,191,446283,0.0-1.0-263.0-0.0,0,0,37970,,,,,,65.0,,,,,,,,,,,,,,,,,,,,192.5,1.039,,,,,,,,,,,
192,,iti,,html-keyboard-response,192,446386,0.0-1.0-264.0,0,0,37970,,,,,,,,,,,,,,,,,,,,,,,,,,193.5,1.0,,,,,,,,,,,
193,,size_choice,,html-keyboard-response,193,446790,0.0-1.0-266.0,0,0,37970,,403.0,,,68.0,66.0,66.0,2.0,2000.0,M-M,,M,M,2.0,2.0,hairdryer,handsaw,hairdryer9,handsaw4,78.0,83.0,/static/Size_judgement/Stimuli/Size_stims/M/hairdryer/hairdryer5.jpg,/static/Size_judgement/Stimuli/Size_stims/M/handsaw/handsaw3.jpg,,,193.903,0.403,1.0,hairdryer,handsaw,M,M,2.0,2.0,hairdryer9,handsaw4,0.0,
194,,size_choice_confirmation,,html-keyboard-response,194,447891,0.0-1.0-267.0-0.0,0,0,37970,,,,,,66.0,,,,,,,,,,,,,,,,,,,,195.0,1.097,,,,,,,,,,,
195,,iti,,html-keyboard-response,195,447995,0.0-1.0-268.0,0,0,37970,,,,,,,,,,,,,,,,,,,,,,,,,,197.0,2.0,,,,,,,,,,,
196,,size_choice,,html-keyboard-response,196,448031,0.0-1.0-270.0,0,0,37970,,34.0,,,68.0,67.0,67.0,2.0,1500.0,S-S,,S,S,1.0,1.0,paperclip,screws,paperclip1,screws10,110.0,129.0,/static/Size_judgement/Stimuli/Size_stims/S/paperclip/paperclip9.jpg,/static/Size_judgement/Stimuli/Size_stims/S/screws/screws9.jpg,,,197.034,0.034,1.0,paperclip,screws,S,S,1.0,1.0,paperclip1,screws10,0.0,
197,,size_choice_confirmation,,html-keyboard-response,197,449499,0.0-1.0-271.0-0.0,0,0,37970,,,,,,67.0,,,,,,,,,,,,,,,,,,,,198.5,1.466,,,,,,,,,,,
198,,iti,,html-keyboard-response,198,449602,0.0-1.0-272.0,0,0,37970,,,,,,,,,,,,,,,,,,,,,,,,,,200.0,1.5,,,,,,,,,,,
199,,size_choice,,html-keyboard-response,199,449956,0.0-1.0-274.0,0,0,37970,,352.0,,,68.0,68.0,68.0,2.0,1500.0,M-XL,1.0,XL,M,4.0,2.0,tractor,coffeemaker,tractor2,coffeemaker7,181.0,66.0,/static/Size_judgement/Stimuli/Size_stims/XL/tractor/tractor7.jpg,/static/Size_judgement/Stimuli/Size_stims/M/coffeemaker/coffeemaker9.jpg,1.0,,200.352,0.352,1.0,tractor,coffeemaker,XL,M,4.0,2.0,tractor2,coffeemaker7,0.0,
200,,size_choice_confirmation,,html-keyboard-response,200,451111,0.0-1.0-275.0-0.0,0,0,37970,,,,,,68.0,,,,,,,,,,,,,,,,,,,,201.5,1.148,,,,,,,,,,,
201,,iti,,html-keyboard-response,201,451214,0.0-1.0-276.0,0,0,37970,,,,,,,,,,,,,,,,,,,,,,,,,,203.0,1.5,,,,,,,,,,,
202,,size_choice,,html-keyboard-response,202,452140,0.0-1.0-278.0,0,0,37970,,925.0,,,68.0,69.0,69.0,2.0,2000.0,L-XL,1.0,XL,L,4.0,3.0,crane,deskchair,crane4,deskchair1,163.0,10.0,/static/Size_judgement/Stimuli/Size_stims/XL/crane/crane5.jpg,/static/Size_judgement/Stimuli/Size_stims/L/deskchair/deskchair9.jpg,1.0,,203.925,0.925,1.0,crane,deskchair,XL,L,4.0,3.0,crane4,deskchair1,0.0,
203,,size_choice_confirmation,,html-keyboard-response,203,452718,0.0-1.0-279.0-0.0,0,0,37970,,,,,,69.0,,,,,,,,,,,,,,,,,,,,204.5,0.575,,,,,,,,,,,
204,,iti,,html-keyboard-response,204,452822,0.0-1.0-280.0,0,0,37970,,,,,,,,,,,,,,,,,,,,,,,,,,206.5,2.0,,,,,,,,,,,
205,,size_choice,,html-keyboard-response,205,452964,0.0-1.0-282.0,0,0,37970,,140.0,,,68.0,70.0,70.0,2.0,2000.0,S-L,1.0,L,S,3.0,1.0,garbagecan,die,garbagecan6,die8,35.0,107.0,/static/Size_judgement/Stimuli/Size_stims/L/garbagecan/garbagecan14.jpg,/static/Size_judgement/Stimuli/Size_stims/S/die/die5.jpg,1.0,,206.64,0.14,1.0,garbagecan,die,L,S,3.0,1.0,garbagecan6,die8,0.0,
206,,size_choice_confirmation,,html-keyboard-response,206,454328,0.0-1.0-283.0-0.0,0,0,37970,,,,,,70.0,,,,,,,,,,,,,,,,,,,,208.0,1.36,,,,,,,,,,,
207,,iti,,html-keyboard-response,207,454431,0.0-1.0-284.0,0,0,37970,,,,,,,,,,,,,,,,,,,,,,,,,,210.0,2.0,,,,,,,,,,,
208,,size_choice,,html-keyboard-response,208,454798,0.0-1.0-286.0,0,0,37970,,366.0,,,68.0,71.0,71.0,2.0,1000.0,M-L,0.0,M,L,2.0,3.0,handsaw,cooler,handsaw6,cooler5,85.0,4.0,/static/Size_judgement/Stimuli/Size_stims/M/handsaw/handsaw4.jpg,/static/Size_judgement/Stimuli/Size_stims/L/cooler/cooler10.jpg,0.0,,210.366,0.366,1.0,handsaw,cooler,M,L,2.0,3.0,handsaw6,cooler5,0.0,
209,,size_choice_confirmation,,html-keyboard-response,209,455934,0.0-1.0-287.0-0.0,0,0,37970,,,,,,71.0,,,,,,,,,,,,,,,,,,,,211.5,1.134,,,,,,,,,,,
210,,iti,,html-keyboard-response,210,456037,0.0-1.0-288.0,0,0,37970,,,,,,,,,,,,,,,,,,,,,,,,,,212.5,1.0,,,,,,,,,,,
211,,size_choice,,html-keyboard-response,211,456178,0.0-1.0-290.0,0,0,37970,,140.0,,,68.0,72.0,72.0,2.0,1000.0,S-L,0.0,S,L,1.0,3.0,screws,mailbox,screws4,mailbox1,123.0,40.0,/static/Size_judgement/Stimuli/Size_stims/S/screws/screws6.jpg,/static/Size_judgement/Stimuli/Size_stims/L/mailbox/mailbox3.jpg,0.0,,212.64,0.14,1.0,screws,mailbox,S,L,1.0,3.0,screws4,mailbox1,0.0,
212,,size_choice_confirmation,,html-keyboard-response,212,457540,0.0-1.0-291.0-0.0,0,0,37970,,,,,,72.0,,,,,,,,,,,,,,,,,,,,214.0,1.36,,,,,,,,,,,
213,,iti,,html-keyboard-response,213,457644,0.0-1.0-292.0,0,0,37970,,,,,,,,,,,,,,,,,,,,,,,,,,215.0,1.0,,,,,,,,,,,
214,,size_choice,,html-keyboard-response,214,457755,0.0-1.0-294.0,0,0,37970,,110.0,,,68.0,73.0,73.0,2.0,1000.0,S-XL,0.0,S,XL,1.0,4.0,thread,car,thread5,car1,144.0,150.0,/static/Size_judgement/Stimuli/Size_stims/S/thread/thread1.jpg,/static/Size_judgement/Stimuli/Size_stims/XL/car/car2.jpg,0.0,,215.11,0.11,1.0,thread,car,S,XL,1.0,4.0,thread5,car1,0.0,
215,,size_choice_confirmation,,html-keyboard-response,215,459150,0.0-1.0-295.0-0.0,0,0,37970,,,,,,73.0,,,,,,,,,,,,,,,,,,,,216.5,1.39,,,,,,,,,,,
216,,iti,,html-keyboard-response,216,459253,0.0-1.0-296.0,0,0,37970,,,,,,,,,,,,,,,,,,,,,,,,,,217.5,1.0,,,,,,,,,,,
217,,size_choice,,html-keyboard-response,217,459414,0.0-1.0-298.0,0,0,37970,,159.0,,,68.0,74.0,74.0,2.0,1000.0,XL-XL,,XL,XL,4.0,4.0,van,tractor,van6,tractor9,195.0,188.0,/static/Size_judgement/Stimuli/Size_stims/XL/van/van2.jpg,/static/Size_judgement/Stimuli/Size_stims/XL/tractor/tractor9.jpg,,,217.659,0.159,1.0,van,tractor,XL,XL,4.0,4.0,van6,tractor9,0.0,
218,,size_choice_confirmation,,html-keyboard-response,218,460757,0.0-1.0-299.0-0.0,0,0,37970,,,,,,74.0,,,,,,,,,,,,,,,,,,,,219.0,1.341,,,,,,,,,,,
219,,iti,,html-keyboard-response,219,460861,0.0-1.0-300.0,0,0,37970,,,,,,,,,,,,,,,,,,,,,,,,,,220.0,1.0,,,,,,,,,,,
220,,size_choice,,html-keyboard-response,220,461086,0.0-1.0-302.0,0,0,37970,,223.0,,,68.0,75.0,75.0,2.0,1500.0,M-XL,0.0,M,XL,2.0,4.0,basketball,van,basketball7,van7,56.0,196.0,/static/Size_judgement/Stimuli/Size_stims/M/basketball/basketball6.jpg,/static/Size_judgement/Stimuli/Size_stims/XL/van/van1.jpg,0.0,,220.223,0.223,1.0,basketball,van,M,XL,2.0,4.0,basketball7,van7,0.0,
221,,size_choice_confirmation,,html-keyboard-response,221,462368,0.0-1.0-303.0-0.0,0,0,37970,,,,,,75.0,,,,,,,,,,,,,,,,,,,,221.5,1.277,,,,,,,,,,,
222,,iti,,html-keyboard-response,222,462472,0.0-1.0-304.0,0,0,37970,,,,,,,,,,,,,,,,,,,,,,,,,,223.0,1.5,,,,,,,,,,,
223,,size_choice,,html-keyboard-response,223,463052,0.0-1.0-306.0,0,0,37970,,580.0,,,68.0,76.0,76.0,2.0,1500.0,S-XL,1.0,XL,S,4.0,1.0,dumptruck,teabag,dumptruck7,teabag5,176.0,134.0,/static/Size_judgement/Stimuli/Size_stims/XL/dumptruck/dumptruck6.jpg,/static/Size_judgement/Stimuli/Size_stims/S/teabag/teabag2.jpg,1.0,,223.58,0.58,1.0,dumptruck,teabag,XL,S,4.0,1.0,dumptruck7,teabag5,0.0,
224,,size_choice_confirmation,,html-keyboard-response,224,463975,0.0-1.0-307.0-0.0,0,0,37970,,,,,,76.0,,,,,,,,,,,,,,,,,,,,224.5,0.92,,,,,,,,,,,
225,,iti,,html-keyboard-response,225,464081,0.0-1.0-308.0,0,0,37970,,,,,,,,,,,,,,,,,,,,,,,,,,226.0,1.5,,,,,,,,,,,
226,,size_choice,,html-keyboard-response,226,464700,0.0-1.0-310.0,0,0,37970,,617.0,,,68.0,77.0,77.0,2.0,1500.0,M-L,0.0,M,L,2.0,3.0,ketchup,deskchair,ketchup8,deskchair6,97.0,15.0,/static/Size_judgement/Stimuli/Size_stims/M/ketchup/ketchup5.jpg,/static/Size_judgement/Stimuli/Size_stims/L/deskchair/deskchair5.jpg,0.0,,226.617,0.617,1.0,ketchup,deskchair,M,L,2.0,3.0,ketchup8,deskchair6,0.0,
227,,size_choice_confirmation,,html-keyboard-response,227,465584,0.0-1.0-311.0-0.0,0,0,37970,,,,,,77.0,,,,,,,,,,,,,,,,,,,,227.5,0.883,,,,,,,,,,,
228,,iti,,html-keyboard-response,228,465687,0.0-1.0-312.0,0,0,37970,,,,,,,,,,,,,,,,,,,,,,,,,,229.0,1.5,,,,,,,,,,,
229,,size_choice,,html-keyboard-response,229,466022,0.0-1.0-314.0,0,0,37970,,333.0,,,68.0,78.0,78.0,2.0,3000.0,S-XL,1.0,XL,S,4.0,1.0,crane,paperclip,crane2,paperclip7,161.0,116.0,/static/Size_judgement/Stimuli/Size_stims/XL/crane/crane6.jpg,/static/Size_judgement/Stimuli/Size_stims/S/paperclip/paperclip7.jpg,1.0,,229.333,0.333,1.0,crane,paperclip,XL,S,4.0,1.0,crane2,paperclip7,0.0,
230,,size_choice_confirmation,,html-keyboard-response,230,467191,0.0-1.0-315.0-0.0,0,0,37970,,,,,,78.0,,,,,,,,,,,,,,,,,,,,230.5,1.167,,,,,,,,,,,
231,,iti,,html-keyboard-response,231,467293,0.0-1.0-316.0,0,0,37970,,,,,,,,,,,,,,,,,,,,,,,,,,233.5,3.0,,,,,,,,,,,
232,,size_choice,,html-keyboard-response,232,467420,0.0-1.0-318.0,0,0,37970,,126.0,,,68.0,79.0,79.0,2.0,3500.0,M-XL,1.0,XL,M,4.0,2.0,crane,coffeemaker,crane10,coffeemaker2,169.0,61.0,/static/Size_judgement/Stimuli/Size_stims/XL/crane/crane9.jpg,/static/Size_judgement/Stimuli/Size_stims/M/coffeemaker/coffeemaker12.jpg,1.0,,233.626,0.126,1.0,crane,coffeemaker,XL,M,4.0,2.0,crane10,coffeemaker2,0.0,
233,,size_choice_confirmation,,html-keyboard-response,233,468800,0.0-1.0-319.0-0.0,0,0,37970,,,,,,79.0,,,,,,,,,,,,,,,,,,,,235.0,1.374,,,,,,,,,,,
234,,iti,,html-keyboard-response,234,468906,0.0-1.0-320.0,0,0,37970,,,,,,,,,,,,,,,,,,,,,,,,,,238.5,3.5,,,,,,,,,,,
235,,size_choice,,html-keyboard-response,235,469142,0.0-1.0-322.0,0,0,37970,,234.0,,,68.0,80.0,80.0,2.0,3000.0,S-L,1.0,L,S,3.0,1.0,mailbox,screws,mailbox4,screws1,43.0,120.0,/static/Size_judgement/Stimuli/Size_stims/L/mailbox/mailbox5.jpg,/static/Size_judgement/Stimuli/Size_stims/S/screws/screws4.jpg,1.0,,238.734,0.234,1.0,mailbox,screws,L,S,3.0,1.0,mailbox4,screws1,0.0,
236,,size_choice_confirmation,,html-keyboard-response,236,470410,0.0-1.0-323.0-0.0,0,0,37970,,,,,,80.0,,,,,,,,,,,,,,,,,,,,240.0,1.266,,,,,,,,,,,
237,,iti,,html-keyboard-response,237,470516,0.0-1.0-324.0,0,0,37970,,,,,,,,,,,,,,,,,,,,,,,,,,243.0,3.0,,,,,,,,,,,
238,,size_choice,,html-keyboard-response,238,470780,0.0-1.0-326.0,0,0,37970,,263.0,,,68.0,81.0,81.0,2.0,1000.0,S-L,1.0,L,S,3.0,1.0,dishwasher,teabag,dishwasher6,teabag1,25.0,130.0,/static/Size_judgement/Stimuli/Size_stims/L/dishwasher/dishwasher6.jpg,/static/Size_judgement/Stimuli/Size_stims/S/teabag/teabag9.jpg,1.0,,243.263,0.263,1.0,dishwasher,teabag,L,S,3.0,1.0,dishwasher6,teabag1,0.0,
239,,size_choice_confirmation,,html-keyboard-response,239,472021,0.0-1.0-327.0-0.0,0,0,37970,,,,,,81.0,,,,,,,,,,,,,,,,,,,,244.5,1.237,,,,,,,,,,,
240,,iti,,html-keyboard-response,240,472122,0.0-1.0-328.0,0,0,37970,,,,,,,,,,,,,,,,,,,,,,,,,,245.5,1.0,,,,,,,,,,,
241,,size_choice,,html-keyboard-response,241,472611,0.0-1.0-330.0,0,0,37970,,488.0,,,68.0,82.0,82.0,2.0,1000.0,M-L,1.0,L,M,3.0,2.0,garbagecan,basketball,garbagecan5,basketball1,34.0,50.0,/static/Size_judgement/Stimuli/Size_stims/L/garbagecan/garbagecan3.jpg,/static/Size_judgement/Stimuli/Size_stims/M/basketball/basketball9.jpg,1.0,,245.988,0.488,1.0,garbagecan,basketball,L,M,3.0,2.0,garbagecan5,basketball1,0.0,
242,,size_choice_confirmation,,html-keyboard-response,242,473628,0.0-1.0-331.0-0.0,0,0,37970,,,,,,82.0,,,,,,,,,,,,,,,,,,,,247.0,1.012,,,,,,,,,,,
243,,iti,,html-keyboard-response,243,473731,0.0-1.0-332.0,0,0,37970,,,,,,,,,,,,,,,,,,,,,,,,,,248.0,1.0,,,,,,,,,,,
244,,size_choice,,html-keyboard-response,244,473973,0.0-1.0-334.0,0,0,37970,,240.0,,,68.0,83.0,83.0,2.0,3000.0,S-XL,1.0,XL,S,4.0,1.0,crane,screws,crane3,screws7,162.0,126.0,/static/Size_judgement/Stimuli/Size_stims/XL/crane/crane4.jpg,/static/Size_judgement/Stimuli/Size_stims/S/screws/screws1.jpg,1.0,,248.24,0.24,1.0,crane,screws,XL,S,4.0,1.0,crane3,screws7,0.0,
245,,size_choice_confirmation,,html-keyboard-response,245,475236,0.0-1.0-335.0-0.0,0,0,37970,,,,,,83.0,,,,,,,,,,,,,,,,,,,,249.5,1.26,,,,,,,,,,,
246,,iti,,html-keyboard-response,246,475340,0.0-1.0-336.0,0,0,37970,,,,,,,,,,,,,,,,,,,,,,,,,,252.5,3.0,,,,,,,,,,,
247,,size_choice,,html-keyboard-response,247,475623,0.0-1.0-338.0,0,0,37970,,281.0,,,68.0,84.0,84.0,2.0,3500.0,S-L,1.0,L,S,3.0,1.0,deskchair,screws,deskchair9,screws3,18.0,122.0,/static/Size_judgement/Stimuli/Size_stims/L/deskchair/deskchair3.jpg,/static/Size_judgement/Stimuli/Size_stims/S/screws/screws7.jpg,1.0,,252.781,0.281,1.0,deskchair,screws,L,S,3.0,1.0,deskchair9,screws3,0.0,
248,,size_choice_confirmation,,html-keyboard-response,248,476848,0.0-1.0-339.0-0.0,0,0,37970,,,,,,84.0,,,,,,,,,,,,,,,,,,,,254.0,1.219,,,,,,,,,,,
249,,iti,,html-keyboard-response,249,476953,0.0-1.0-340.0,0,0,37970,,,,,,,,,,,,,,,,,,,,,,,,,,257.5,3.5,,,,,,,,,,,
250,,size_choice,,html-keyboard-response,250,477113,0.0-1.0-342.0,0,0,37970,,158.0,,,68.0,85.0,85.0,2.0,1500.0,S-L,0.0,S,L,1.0,3.0,die,mailbox,die7,mailbox2,106.0,41.0,/static/Size_judgement/Stimuli/Size_stims/S/die/die4.jpg,/static/Size_judgement/Stimuli/Size_stims/L/mailbox/mailbox2.jpg,0.0,,257.658,0.158,1.0,die,mailbox,S,L,1.0,3.0,die7,mailbox2,0.0,
251,,size_choice_confirmation,,html-keyboard-response,251,478458,0.0-1.0-343.0-0.0,0,0,37970,,,,,,85.0,,,,,,,,,,,,,,,,,,,,259.0,1.342,,,,,,,,,,,
252,,iti,,html-keyboard-response,252,478561,0.0-1.0-344.0,0,0,37970,,,,,,,,,,,,,,,,,,,,,,,,,,260.5,1.5,,,,,,,,,,,
253,,size_choice,,html-keyboard-response,253,478761,0.0-1.0-346.0,0,0,37970,,198.0,,,68.0,86.0,86.0,2.0,1000.0,M-XL,0.0,M,XL,2.0,4.0,coffeemaker,tractor,coffeemaker9,tractor3,68.0,182.0,/static/Size_judgement/Stimuli/Size_stims/M/coffeemaker/coffeemaker7.jpg,/static/Size_judgement/Stimuli/Size_stims/XL/tractor/tractor5.jpg,0.0,,260.698,0.198,1.0,coffeemaker,tractor,M,XL,2.0,4.0,coffeemaker9,tractor3,0.0,
254,,size_choice_confirmation,,html-keyboard-response,254,480065,0.0-1.0-347.0-0.0,0,0,37970,,,,,,86.0,,,,,,,,,,,,,,,,,,,,262.0,1.302,,,,,,,,,,,
255,,iti,,html-keyboard-response,255,480167,0.0-1.0-348.0,0,0,37970,,,,,,,,,,,,,,,,,,,,,,,,,,263.0,1.0,,,,,,,,,,,
256,,size_choice,,html-keyboard-response,256,480227,0.0-1.0-350.0,0,0,37970,,60.0,,,68.0,87.0,87.0,2.0,1000.0,XL-XL,,XL,XL,4.0,4.0,van,tractor,van9,tractor1,198.0,180.0,/static/Size_judgement/Stimuli/Size_stims/XL/van/van9.jpg,/static/Size_judgement/Stimuli/Size_stims/XL/tractor/tractor6.jpg,,,263.06,0.06,1.0,van,tractor,XL,XL,4.0,4.0,van9,tractor1,0.0,
257,,size_choice_confirmation,,html-keyboard-response,257,481669,0.0-1.0-351.0-0.0,0,0,37970,,,,,,87.0,,,,,,,,,,,,,,,,,,,,264.5,1.44,,,,,,,,,,,
258,,iti,,html-keyboard-response,258,481775,0.0-1.0-352.0,0,0,37970,,,,,,,,,,,,,,,,,,,,,,,,,,265.5,1.0,,,,,,,,,,,
259,,size_choice,,html-keyboard-response,259,481903,0.0-1.0-354.0,0,0,37970,,127.0,,,68.0,88.0,88.0,2.0,1500.0,S-XL,1.0,XL,S,4.0,1.0,crane,die,crane7,die4,166.0,103.0,/static/Size_judgement/Stimuli/Size_stims/XL/crane/crane3.jpg,/static/Size_judgement/Stimuli/Size_stims/S/die/die2.jpg,1.0,,265.627,0.127,1.0,crane,die,XL,S,4.0,1.0,crane7,die4,0.0,
260,,size_choice_confirmation,,html-keyboard-response,260,483282,0.0-1.0-355.0-0.0,0,0,37970,,,,,,88.0,,,,,,,,,,,,,,,,,,,,267.0,1.373,,,,,,,,,,,
261,,iti,,html-keyboard-response,261,483385,0.0-1.0-356.0,0,0,37970,,,,,,,,,,,,,,,,,,,,,,,,,,268.5,1.5,,,,,,,,,,,
262,,size_choice,,html-keyboard-response,262,483500,0.0-1.0-358.0,0,0,37970,,113.0,,,68.0,89.0,89.0,2.0,1000.0,M-L,0.0,M,L,2.0,3.0,coffeemaker,mailbox,coffeemaker8,mailbox8,67.0,47.0,/static/Size_judgement/Stimuli/Size_stims/M/coffeemaker/coffeemaker5.jpg,/static/Size_judgement/Stimuli/Size_stims/L/mailbox/mailbox10.jpg,0.0,,268.613,0.113,1.0,coffeemaker,mailbox,M,L,2.0,3.0,coffeemaker8,mailbox8,0.0,
263,,size_choice_confirmation,,html-keyboard-response,263,484890,0.0-1.0-359.0-0.0,0,0,37970,,,,,,89.0,,,,,,,,,,,,,,,,,,,,270.0,1.387,,,,,,,,,,,
264,,iti,,html-keyboard-response,264,484995,0.0-1.0-360.0,0,0,37970,,,,,,,,,,,,,,,,,,,,,,,,,,271.0,1.0,,,,,,,,,,,0.52
265,,size_final_tally,,html-keyboard-response,265,485079,0.0-2.0,0,0,37970,,82.0,,,68.0,,,,,,,,,,,,,,,,,,,,,,,,,,,,,,,,,
