,success,ttype,start_time,trial_type,trial_index,time_elapsed,internal_node_id,warning,missed_checkup,PID,view_history,rt,responses,repeat_instructions,key_press,index,trial_num,block,iti,pair_type,high_size_on_left,left_size_group,right_size_group,left_size_num,right_size_num,left_category,right_category,left_exemplar,right_exemplar,left_index,right_index,left_img_path,right_img_path,left_chosen,chosen_category,unchosen_category,chosen_size_group,unchosen_size_group,chosen_size_num,unchosen_size_num,chosen_exemplar,unchosen_exemplar,accuracy,no_response,onset,duration,no_resposne,size_final_tally
0,True,full_screen,d05202022hr1746,fullscreen,0,2409,0.0-0.0,0,0,18270,,,,,,,,,,,,,,,,,,,,,,,,,,,,,,,,,,,,,,
1,,size_instructions,,instructions,1,4541,0.0-1.0-0.0-0.0,0,0,18270,"[{""page_index"":0,""viewing_time"":1314},{""page_index"":1,""viewing_time"":183},{""page_index"":2,""viewing_time"":183},{""page_index"":3,""viewing_time"":167},{""page_index"":4,""viewing_time"":150},{""page_index"":5,""viewing_time"":133}]",2131.0,,,,,,,,,,,,,,,,,,,,,,,,,,,,,,,,,,,,
2,,size_comprehension_check,,survey-multi-choice,2,10658,0.0-1.0-0.0-1.0,0,0,18270,,6114.0,"{""Q0"":""True"",""Q1"":""Size in the real world"",""Q2"":""True"",""Q3"":""D for left and K for right""}",0.0,,,,,,,,,,,,,,,,,,,,,,,,,,,,,,,,,,
3,,,,html-keyboard-response,3,11473,0.0-1.0-1.0,0,0,18270,,813.0,,,68.0,,,,,,,,,,,,,,,,,,,,,,,,,,,,,,,,,
4,,size_choice,,html-keyboard-response,4,12466,0.0-1.0-2.0,0,0,18270,,991.0,,,68.0,0.0,0.0,1.0,1000.0,L-L,,L,L,3.0,3.0,dishwasher,garbagecan,dishwasher9,garbagecan9,28.0,38.0,/static/Size_judgement/Stimuli/Size_stims/L/dishwasher/dishwasher2.jpg,/static/Size_judgement/Stimuli/Size_stims/L/garbagecan/garbagecan12.jpg,1.0,dishwasher,garbagecan,L,L,3.0,3.0,dishwasher9,garbagecan9,,0.0,0.991,0.991,,
5,,size_choice_confirmation,,html-keyboard-response,5,12977,0.0-1.0-3.0-0.0,0,0,18270,,,,,,0.0,,,,,,,,,,,,,,,,,,,,,,,,,,,,,1.5,0.509,,
6,,iti,,html-keyboard-response,6,13083,0.0-1.0-4.0,0,0,18270,,,,,,,,,,,,,,,,,,,,,,,,,,,,,,,,,,,2.5,1.0,,
7,,size_choice,,html-keyboard-response,7,13424,0.0-1.0-6.0,0,0,18270,,340.0,,,75.0,1.0,1.0,1.0,1000.0,M-M,,M,M,2.0,2.0,handsaw,hairdryer,handsaw1,hairdryer2,80.0,71.0,/static/Size_judgement/Stimuli/Size_stims/M/handsaw/handsaw8.jpg,/static/Size_judgement/Stimuli/Size_stims/M/hairdryer/hairdryer12.jpg,0.0,hairdryer,handsaw,M,M,2.0,2.0,hairdryer2,handsaw1,,0.0,2.84,0.34,,
8,,size_choice_confirmation,,html-keyboard-response,8,14590,0.0-1.0-7.0-0.0,0,0,18270,,,,,,1.0,,,,,,,,,,,,,,,,,,,,,,,,,,,,,4.0,1.16,,
9,,iti,,html-keyboard-response,9,14696,0.0-1.0-8.0,0,0,18270,,,,,,,,,,,,,,,,,,,,,,,,,,,,,,,,,,,5.0,1.0,,
10,,size_choice,,html-keyboard-response,10,15345,0.0-1.0-10.0,0,0,18270,,649.0,,,75.0,2.0,2.0,1.0,1500.0,S-XL,0.0,S,XL,1.0,4.0,teabag,dumptruck,teabag7,dumptruck8,136.0,177.0,/static/Size_judgement/Stimuli/Size_stims/S/teabag/teabag10.jpg,/static/Size_judgement/Stimuli/Size_stims/XL/dumptruck/dumptruck7.jpg,0.0,dumptruck,teabag,XL,S,4.0,1.0,dumptruck8,teabag7,1.0,0.0,5.649,0.649,,
11,,size_choice_confirmation,,html-keyboard-response,11,16201,0.0-1.0-11.0-0.0,0,0,18270,,,,,,2.0,,,,,,,,,,,,,,,,,,,,,,,,,,,,,6.5,0.851,,
12,,iti,,html-keyboard-response,12,16306,0.0-1.0-12.0,0,0,18270,,,,,,,,,,,,,,,,,,,,,,,,,,,,,,,,,,,8.0,1.5,,
13,,size_choice,,html-keyboard-response,13,16893,0.0-1.0-14.0,0,0,18270,,585.0,,,68.0,3.0,3.0,1.0,2000.0,S-M,1.0,M,S,2.0,1.0,hairdryer,screws,hairdryer5,screws5,74.0,124.0,/static/Size_judgement/Stimuli/Size_stims/M/hairdryer/hairdryer15.jpg,/static/Size_judgement/Stimuli/Size_stims/S/screws/screws2.jpg,1.0,hairdryer,screws,M,S,2.0,1.0,hairdryer5,screws5,1.0,0.0,8.585,0.585,,
14,,size_choice_confirmation,,html-keyboard-response,14,17811,0.0-1.0-15.0-0.0,0,0,18270,,,,,,3.0,,,,,,,,,,,,,,,,,,,,,,,,,,,,,9.5,0.915,,
15,,iti,,html-keyboard-response,15,17914,0.0-1.0-16.0,0,0,18270,,,,,,,,,,,,,,,,,,,,,,,,,,,,,,,,,,,11.5,2.0,,
16,,size_choice,,html-keyboard-response,16,18438,0.0-1.0-18.0,0,0,18270,,523.0,,,75.0,4.0,4.0,1.0,3500.0,S-XL,0.0,S,XL,1.0,4.0,teabag,car,teabag4,car9,133.0,158.0,/static/Size_judgement/Stimuli/Size_stims/S/teabag/teabag3.jpg,/static/Size_judgement/Stimuli/Size_stims/XL/car/car15.jpg,0.0,car,teabag,XL,S,4.0,1.0,car9,teabag4,1.0,0.0,12.023,0.523,,
17,,size_choice_confirmation,,html-keyboard-response,17,19421,0.0-1.0-19.0-0.0,0,0,18270,,,,,,4.0,,,,,,,,,,,,,,,,,,,,,,,,,,,,,13.0,0.977,,
18,,iti,,html-keyboard-response,18,19525,0.0-1.0-20.0,0,0,18270,,,,,,,,,,,,,,,,,,,,,,,,,,,,,,,,,,,16.5,3.5,,
19,,size_choice,,html-keyboard-response,19,19951,0.0-1.0-22.0,0,0,18270,,425.0,,,68.0,5.0,5.0,1.0,1500.0,M-L,1.0,L,M,3.0,2.0,cooler,handsaw,cooler10,handsaw7,9.0,86.0,/static/Size_judgement/Stimuli/Size_stims/L/cooler/cooler6.jpg,/static/Size_judgement/Stimuli/Size_stims/M/handsaw/handsaw5.jpg,1.0,cooler,handsaw,L,M,3.0,2.0,cooler10,handsaw7,1.0,0.0,16.925,0.425,,
20,,size_choice_confirmation,,html-keyboard-response,20,21028,0.0-1.0-23.0-0.0,0,0,18270,,,,,,5.0,,,,,,,,,,,,,,,,,,,,,,,,,,,,,18.0,1.075,,
21,,iti,,html-keyboard-response,21,21129,0.0-1.0-24.0,0,0,18270,,,,,,,,,,,,,,,,,,,,,,,,,,,,,,,,,,,19.5,1.5,,
22,,size_choice,,html-keyboard-response,22,21684,0.0-1.0-26.0,0,0,18270,,554.0,,,75.0,6.0,6.0,1.0,2000.0,M-XL,0.0,M,XL,2.0,4.0,basketball,crane,basketball10,crane9,59.0,168.0,/static/Size_judgement/Stimuli/Size_stims/M/basketball/basketball4.jpg,/static/Size_judgement/Stimuli/Size_stims/XL/crane/crane8.jpg,0.0,crane,basketball,XL,M,4.0,2.0,crane9,basketball10,1.0,0.0,20.054000000000002,0.5539999999999999,,
23,,size_choice_confirmation,,html-keyboard-response,23,22635,0.0-1.0-27.0-0.0,0,0,18270,,,,,,6.0,,,,,,,,,,,,,,,,,,,,,,,,,,,,,21.0,0.946,,
24,,iti,,html-keyboard-response,24,22739,0.0-1.0-28.0,0,0,18270,,,,,,,,,,,,,,,,,,,,,,,,,,,,,,,,,,,23.0,2.0,,
25,,size_choice,,html-keyboard-response,25,23354,0.0-1.0-30.0,0,0,18270,,614.0,,,75.0,7.0,7.0,1.0,3000.0,M-XL,0.0,M,XL,2.0,4.0,hairdryer,dumptruck,hairdryer7,dumptruck6,76.0,175.0,/static/Size_judgement/Stimuli/Size_stims/M/hairdryer/hairdryer3.jpg,/static/Size_judgement/Stimuli/Size_stims/XL/dumptruck/dumptruck2.jpg,0.0,dumptruck,hairdryer,XL,M,4.0,2.0,dumptruck6,hairdryer7,1.0,0.0,23.614,0.614,,
26,,size_choice_confirmation,,html-keyboard-response,26,24245,0.0-1.0-31.0-0.0,0,0,18270,,,,,,7.0,,,,,,,,,,,,,,,,,,,,,,,,,,,,,24.5,0.8859999999999999,,
27,,iti,,html-keyboard-response,27,24346,0.0-1.0-32.0,0,0,18270,,,,,,,,,,,,,,,,,,,,,,,,,,,,,,,,,,,27.5,3.0,,
28,,size_choice,,html-keyboard-response,28,25410,0.0-1.0-34.0,0,0,18270,,1063.0,,,75.0,8.0,8.0,1.0,2000.0,XL-XL,,XL,XL,4.0,4.0,van,crane,van2,crane8,191.0,167.0,/static/Size_judgement/Stimuli/Size_stims/XL/van/van4.jpg,/static/Size_judgement/Stimuli/Size_stims/XL/crane/crane10.jpg,0.0,crane,van,XL,XL,4.0,4.0,crane8,van2,,0.0,28.563000000000002,1.063,,
29,,size_choice_confirmation,,html-keyboard-response,29,25852,0.0-1.0-35.0-0.0,0,0,18270,,,,,,8.0,,,,,,,,,,,,,,,,,,,,,,,,,,,,,29.0,0.43700000000000006,,
30,,iti,,html-keyboard-response,30,25953,0.0-1.0-36.0,0,0,18270,,,,,,,,,,,,,,,,,,,,,,,,,,,,,,,,,,,31.0,2.0,,
31,,size_choice,,html-keyboard-response,31,26681,0.0-1.0-38.0,0,0,18270,,727.0,,,68.0,9.0,9.0,1.0,2000.0,L-L,,L,L,3.0,3.0,dishwasher,cooler,dishwasher7,cooler8,26.0,7.0,/static/Size_judgement/Stimuli/Size_stims/L/dishwasher/dishwasher7.jpg,/static/Size_judgement/Stimuli/Size_stims/L/cooler/cooler5.jpg,1.0,dishwasher,cooler,L,L,3.0,3.0,dishwasher7,cooler8,,0.0,31.726999999999997,0.727,,
32,,size_choice_confirmation,,html-keyboard-response,32,27460,0.0-1.0-39.0-0.0,0,0,18270,,,,,,9.0,,,,,,,,,,,,,,,,,,,,,,,,,,,,,32.5,0.773,,
33,,iti,,html-keyboard-response,33,27562,0.0-1.0-40.0,0,0,18270,,,,,,,,,,,,,,,,,,,,,,,,,,,,,,,,,,,34.5,2.0,,
34,,size_choice,,html-keyboard-response,34,28280,0.0-1.0-42.0,0,0,18270,,717.0,,,68.0,10.0,10.0,1.0,1000.0,M-L,1.0,L,M,3.0,2.0,garbagecan,basketball,garbagecan4,basketball4,33.0,53.0,/static/Size_judgement/Stimuli/Size_stims/L/garbagecan/garbagecan6.jpg,/static/Size_judgement/Stimuli/Size_stims/M/basketball/basketball1.jpg,1.0,garbagecan,basketball,L,M,3.0,2.0,garbagecan4,basketball4,1.0,0.0,35.217,0.7170000000000001,,
35,,size_choice_confirmation,,html-keyboard-response,35,29068,0.0-1.0-43.0-0.0,0,0,18270,,,,,,10.0,,,,,,,,,,,,,,,,,,,,,,,,,,,,,36.0,0.7829999999999999,,
36,,iti,,html-keyboard-response,36,29171,0.0-1.0-44.0,0,0,18270,,,,,,,,,,,,,,,,,,,,,,,,,,,,,,,,,,,37.0,1.0,,
37,,size_choice,,html-keyboard-response,37,29657,0.0-1.0-46.0,0,0,18270,,485.0,,,68.0,11.0,11.0,1.0,1000.0,S-L,1.0,L,S,3.0,1.0,dishwasher,screws,dishwasher8,screws8,27.0,127.0,/static/Size_judgement/Stimuli/Size_stims/L/dishwasher/dishwasher3.jpg,/static/Size_judgement/Stimuli/Size_stims/S/screws/screws10.jpg,1.0,dishwasher,screws,L,S,3.0,1.0,dishwasher8,screws8,1.0,0.0,37.485,0.485,,
38,,size_choice_confirmation,,html-keyboard-response,38,30677,0.0-1.0-47.0-0.0,0,0,18270,,,,,,11.0,,,,,,,,,,,,,,,,,,,,,,,,,,,,,38.5,1.015,,
39,,iti,,html-keyboard-response,39,30781,0.0-1.0-48.0,0,0,18270,,,,,,,,,,,,,,,,,,,,,,,,,,,,,,,,,,,39.5,1.0,,
40,,size_choice,,html-keyboard-response,40,31486,0.0-1.0-50.0,0,0,18270,,704.0,,,68.0,12.0,12.0,1.0,1000.0,L-XL,1.0,XL,L,4.0,3.0,tractor,deskchair,tractor6,deskchair5,185.0,14.0,/static/Size_judgement/Stimuli/Size_stims/XL/tractor/tractor3.jpg,/static/Size_judgement/Stimuli/Size_stims/L/deskchair/deskchair7.jpg,1.0,tractor,deskchair,XL,L,4.0,3.0,tractor6,deskchair5,1.0,0.0,40.204,0.7040000000000001,,
41,,size_choice_confirmation,,html-keyboard-response,41,32283,0.0-1.0-51.0-0.0,0,0,18270,,,,,,12.0,,,,,,,,,,,,,,,,,,,,,,,,,,,,,41.0,0.7959999999999999,,
42,,iti,,html-keyboard-response,42,32384,0.0-1.0-52.0,0,0,18270,,,,,,,,,,,,,,,,,,,,,,,,,,,,,,,,,,,42.0,1.0,,
43,,size_choice,,html-keyboard-response,43,32868,0.0-1.0-54.0,0,0,18270,,483.0,,,75.0,13.0,13.0,1.0,1000.0,S-S,,S,S,1.0,1.0,thread,die,thread10,die1,149.0,100.0,/static/Size_judgement/Stimuli/Size_stims/S/thread/thread9.jpg,/static/Size_judgement/Stimuli/Size_stims/S/die/die8.jpg,0.0,die,thread,S,S,1.0,1.0,die1,thread10,,0.0,42.483000000000004,0.483,,
44,,size_choice_confirmation,,html-keyboard-response,44,33891,0.0-1.0-55.0-0.0,0,0,18270,,,,,,13.0,,,,,,,,,,,,,,,,,,,,,,,,,,,,,43.5,1.0170000000000001,,
45,,iti,,html-keyboard-response,45,33992,0.0-1.0-56.0,0,0,18270,,,,,,,,,,,,,,,,,,,,,,,,,,,,,,,,,,,44.5,1.0,,
46,,size_choice,,html-keyboard-response,46,34511,0.0-1.0-58.0,0,0,18270,,518.0,,,68.0,14.0,14.0,1.0,1000.0,M-XL,0.0,M,XL,2.0,4.0,coffeemaker,tractor,coffeemaker4,tractor4,63.0,183.0,/static/Size_judgement/Stimuli/Size_stims/M/coffeemaker/coffeemaker11.jpg,/static/Size_judgement/Stimuli/Size_stims/XL/tractor/tractor4.jpg,1.0,coffeemaker,tractor,M,XL,2.0,4.0,coffeemaker4,tractor4,0.0,0.0,45.018,0.518,,
47,,size_choice_confirmation,,html-keyboard-response,47,35500,0.0-1.0-59.0-0.0,0,0,18270,,,,,,14.0,,,,,,,,,,,,,,,,,,,,,,,,,,,,,46.0,0.982,,
48,,iti,,html-keyboard-response,48,35603,0.0-1.0-60.0,0,0,18270,,,,,,,,,,,,,,,,,,,,,,,,,,,,,,,,,,,47.0,1.0,,
49,,size_choice,,html-keyboard-response,49,36117,0.0-1.0-62.0,0,0,18270,,512.0,,,75.0,15.0,15.0,1.0,3500.0,M-XL,0.0,M,XL,2.0,4.0,handsaw,van,handsaw5,van10,84.0,199.0,/static/Size_judgement/Stimuli/Size_stims/M/handsaw/handsaw1.jpg,/static/Size_judgement/Stimuli/Size_stims/XL/van/van8.jpg,0.0,van,handsaw,XL,M,4.0,2.0,van10,handsaw5,1.0,0.0,47.512,0.512,,
50,,size_choice_confirmation,,html-keyboard-response,50,37109,0.0-1.0-63.0-0.0,0,0,18270,,,,,,15.0,,,,,,,,,,,,,,,,,,,,,,,,,,,,,48.5,0.988,,
51,,iti,,html-keyboard-response,51,37215,0.0-1.0-64.0,0,0,18270,,,,,,,,,,,,,,,,,,,,,,,,,,,,,,,,,,,52.0,3.5,,
52,,size_choice,,html-keyboard-response,52,37858,0.0-1.0-66.0,0,0,18270,,642.0,,,68.0,16.0,16.0,1.0,1500.0,XL-XL,,XL,XL,4.0,4.0,dumptruck,car,dumptruck2,car6,171.0,155.0,/static/Size_judgement/Stimuli/Size_stims/XL/dumptruck/dumptruck8.jpg,/static/Size_judgement/Stimuli/Size_stims/XL/car/car12.jpg,1.0,dumptruck,car,XL,XL,4.0,4.0,dumptruck2,car6,,0.0,52.641999999999996,0.642,,
53,,size_choice_confirmation,,html-keyboard-response,53,38719,0.0-1.0-67.0-0.0,0,0,18270,,,,,,16.0,,,,,,,,,,,,,,,,,,,,,,,,,,,,,53.5,0.858,,
54,,iti,,html-keyboard-response,54,38822,0.0-1.0-68.0,0,0,18270,,,,,,,,,,,,,,,,,,,,,,,,,,,,,,,,,,,55.0,1.5,,
55,,size_choice,,html-keyboard-response,55,39491,0.0-1.0-70.0,0,0,18270,,668.0,,,68.0,17.0,17.0,1.0,1500.0,S-XL,1.0,XL,S,4.0,1.0,van,screws,van1,screws6,190.0,125.0,/static/Size_judgement/Stimuli/Size_stims/XL/van/van5.jpg,/static/Size_judgement/Stimuli/Size_stims/S/screws/screws3.jpg,1.0,van,screws,XL,S,4.0,1.0,van1,screws6,1.0,0.0,55.668,0.6679999999999999,,
56,,size_choice_confirmation,,html-keyboard-response,56,40327,0.0-1.0-71.0-0.0,0,0,18270,,,,,,17.0,,,,,,,,,,,,,,,,,,,,,,,,,,,,,56.5,0.8320000000000001,,
57,,iti,,html-keyboard-response,57,40428,0.0-1.0-72.0,0,0,18270,,,,,,,,,,,,,,,,,,,,,,,,,,,,,,,,,,,58.0,1.5,,
58,,size_choice,,html-keyboard-response,58,40970,0.0-1.0-74.0,0,0,18270,,541.0,,,68.0,18.0,18.0,1.0,3500.0,M-XL,1.0,XL,M,4.0,2.0,car,basketball,car5,basketball8,154.0,57.0,/static/Size_judgement/Stimuli/Size_stims/XL/car/car11.jpg,/static/Size_judgement/Stimuli/Size_stims/M/basketball/basketball7.jpg,1.0,car,basketball,XL,M,4.0,2.0,car5,basketball8,1.0,0.0,58.541000000000004,0.541,,
59,,size_choice_confirmation,,html-keyboard-response,59,41935,0.0-1.0-75.0-0.0,0,0,18270,,,,,,18.0,,,,,,,,,,,,,,,,,,,,,,,,,,,,,59.5,0.9590000000000001,,
60,,iti,,html-keyboard-response,60,42039,0.0-1.0-76.0,0,0,18270,,,,,,,,,,,,,,,,,,,,,,,,,,,,,,,,,,,63.0,3.5,,
61,,size_choice,,html-keyboard-response,61,42572,0.0-1.0-78.0,0,0,18270,,532.0,,,68.0,19.0,19.0,1.0,1500.0,S-L,1.0,L,S,3.0,1.0,cooler,thread,cooler7,thread7,6.0,146.0,/static/Size_judgement/Stimuli/Size_stims/L/cooler/cooler4.jpg,/static/Size_judgement/Stimuli/Size_stims/S/thread/thread3.jpg,1.0,cooler,thread,L,S,3.0,1.0,cooler7,thread7,1.0,0.0,63.532,0.532,,
62,,size_choice_confirmation,,html-keyboard-response,62,43546,0.0-1.0-79.0-0.0,0,0,18270,,,,,,19.0,,,,,,,,,,,,,,,,,,,,,,,,,,,,,64.5,0.968,,
63,,iti,,html-keyboard-response,63,43649,0.0-1.0-80.0,0,0,18270,,,,,,,,,,,,,,,,,,,,,,,,,,,,,,,,,,,66.0,1.5,,
64,,size_choice,,html-keyboard-response,64,44491,0.0-1.0-82.0,0,0,18270,,841.0,,,75.0,20.0,20.0,1.0,1000.0,S-S,,S,S,1.0,1.0,paperclip,teabag,paperclip8,teabag9,117.0,138.0,/static/Size_judgement/Stimuli/Size_stims/S/paperclip/paperclip5.jpg,/static/Size_judgement/Stimuli/Size_stims/S/teabag/teabag5.jpg,0.0,teabag,paperclip,S,S,1.0,1.0,teabag9,paperclip8,,0.0,66.84100000000001,0.841,,
65,,size_choice_confirmation,,html-keyboard-response,65,45153,0.0-1.0-83.0-0.0,0,0,18270,,,,,,20.0,,,,,,,,,,,,,,,,,,,,,,,,,,,,,67.5,0.659,,
66,,iti,,html-keyboard-response,66,45258,0.0-1.0-84.0,0,0,18270,,,,,,,,,,,,,,,,,,,,,,,,,,,,,,,,,,,68.5,1.0,,
67,,size_choice,,html-keyboard-response,67,45778,0.0-1.0-86.0,0,0,18270,,519.0,,,68.0,21.0,21.0,1.0,1000.0,S-S,,S,S,1.0,1.0,die,paperclip,die6,paperclip6,105.0,115.0,/static/Size_judgement/Stimuli/Size_stims/S/die/die1.jpg,/static/Size_judgement/Stimuli/Size_stims/S/paperclip/paperclip6.jpg,1.0,die,paperclip,S,S,1.0,1.0,die6,paperclip6,,0.0,69.01899999999999,0.519,,
68,,size_choice_confirmation,,html-keyboard-response,68,46763,0.0-1.0-87.0-0.0,0,0,18270,,,,,,21.0,,,,,,,,,,,,,,,,,,,,,,,,,,,,,70.0,0.981,,
69,,iti,,html-keyboard-response,69,46865,0.0-1.0-88.0,0,0,18270,,,,,,,,,,,,,,,,,,,,,,,,,,,,,,,,,,,71.0,1.0,,
70,,size_choice,,html-keyboard-response,70,47345,0.0-1.0-90.0,0,0,18270,,478.0,,,75.0,22.0,22.0,1.0,1000.0,L-XL,0.0,L,XL,3.0,4.0,dishwasher,dumptruck,dishwasher3,dumptruck3,22.0,172.0,/static/Size_judgement/Stimuli/Size_stims/L/dishwasher/dishwasher8.jpg,/static/Size_judgement/Stimuli/Size_stims/XL/dumptruck/dumptruck10.jpg,0.0,dumptruck,dishwasher,XL,L,4.0,3.0,dumptruck3,dishwasher3,1.0,0.0,71.47800000000001,0.478,,
71,,size_choice_confirmation,,html-keyboard-response,71,48369,0.0-1.0-91.0-0.0,0,0,18270,,,,,,22.0,,,,,,,,,,,,,,,,,,,,,,,,,,,,,72.5,1.022,,
72,,iti,,html-keyboard-response,72,48474,0.0-1.0-92.0,0,0,18270,,,,,,,,,,,,,,,,,,,,,,,,,,,,,,,,,,,73.5,1.0,,
73,,size_choice,,html-keyboard-response,73,49053,0.0-1.0-94.0,0,0,18270,,578.0,,,75.0,23.0,23.0,1.0,3000.0,M-M,,M,M,2.0,2.0,handsaw,hairdryer,handsaw8,hairdryer3,87.0,72.0,/static/Size_judgement/Stimuli/Size_stims/M/handsaw/handsaw7.jpg,/static/Size_judgement/Stimuli/Size_stims/M/hairdryer/hairdryer17.jpg,0.0,hairdryer,handsaw,M,M,2.0,2.0,hairdryer3,handsaw8,,0.0,74.078,0.578,,
74,,size_choice_confirmation,,html-keyboard-response,74,49981,0.0-1.0-95.0-0.0,0,0,18270,,,,,,23.0,,,,,,,,,,,,,,,,,,,,,,,,,,,,,75.0,0.922,,
75,,iti,,html-keyboard-response,75,50082,0.0-1.0-96.0,0,0,18270,,,,,,,,,,,,,,,,,,,,,,,,,,,,,,,,,,,78.0,3.0,,
76,,size_choice,,html-keyboard-response,76,50624,0.0-1.0-98.0,0,0,18270,,541.0,,,68.0,24.0,24.0,1.0,1000.0,S-M,1.0,M,S,2.0,1.0,basketball,paperclip,basketball2,paperclip10,51.0,119.0,/static/Size_judgement/Stimuli/Size_stims/M/basketball/basketball8.jpg,/static/Size_judgement/Stimuli/Size_stims/S/paperclip/paperclip10.jpg,1.0,basketball,paperclip,M,S,2.0,1.0,basketball2,paperclip10,1.0,0.0,78.541,0.541,,
77,,size_choice_confirmation,,html-keyboard-response,77,51586,0.0-1.0-99.0-0.0,0,0,18270,,,,,,24.0,,,,,,,,,,,,,,,,,,,,,,,,,,,,,79.5,0.9590000000000001,,
78,,iti,,html-keyboard-response,78,51691,0.0-1.0-100.0,0,0,18270,,,,,,,,,,,,,,,,,,,,,,,,,,,,,,,,,,,80.5,1.0,,
79,,size_choice,,html-keyboard-response,79,52948,0.0-1.0-102.0,0,0,18270,,1255.0,,,68.0,25.0,25.0,1.0,2000.0,S-L,1.0,L,S,3.0,1.0,dishwasher,paperclip,dishwasher10,paperclip9,29.0,118.0,/static/Size_judgement/Stimuli/Size_stims/L/dishwasher/dishwasher1.jpg,/static/Size_judgement/Stimuli/Size_stims/S/paperclip/paperclip4.jpg,1.0,dishwasher,paperclip,L,S,3.0,1.0,dishwasher10,paperclip9,1.0,0.0,81.755,1.255,,
80,,size_choice_confirmation,,html-keyboard-response,80,53199,0.0-1.0-103.0-0.0,0,0,18270,,,,,,25.0,,,,,,,,,,,,,,,,,,,,,,,,,,,,,82.0,0.245,,
81,,iti,,html-keyboard-response,81,53304,0.0-1.0-104.0,0,0,18270,,,,,,,,,,,,,,,,,,,,,,,,,,,,,,,,,,,84.0,2.0,,
82,,size_choice,,html-keyboard-response,82,54806,0.0-1.0-106.0,0,0,18270,,,,,,26.0,26.0,1.0,3000.0,S-L,1.0,L,S,3.0,1.0,deskchair,thread,deskchair10,thread2,19.0,141.0,/static/Size_judgement/Stimuli/Size_stims/L/deskchair/deskchair2.jpg,/static/Size_judgement/Stimuli/Size_stims/S/thread/thread6.jpg,,,,,,,,,,,,85.5,1.5,1.0,
83,,iti,,html-keyboard-response,83,54907,0.0-1.0-108.0,0,0,18270,,,,,,,,,,,,,,,,,,,,,,,,,,,,,,,,,,,87.5,2.0,,
84,,size_choice,,html-keyboard-response,84,55970,0.0-1.0-110.0,0,0,18270,,1062.0,,,75.0,27.0,27.0,1.0,1000.0,L-L,,L,L,3.0,3.0,mailbox,garbagecan,mailbox5,garbagecan8,44.0,37.0,/static/Size_judgement/Stimuli/Size_stims/L/mailbox/mailbox4.jpg,/static/Size_judgement/Stimuli/Size_stims/L/garbagecan/garbagecan13.jpg,0.0,garbagecan,mailbox,L,L,3.0,3.0,garbagecan8,mailbox5,,0.0,88.56200000000001,1.062,,
85,,size_choice_confirmation,,html-keyboard-response,85,56412,0.0-1.0-111.0-0.0,0,0,18270,,,,,,27.0,,,,,,,,,,,,,,,,,,,,,,,,,,,,,89.0,0.43799999999999994,,
86,,iti,,html-keyboard-response,86,56518,0.0-1.0-112.0,0,0,18270,,,,,,,,,,,,,,,,,,,,,,,,,,,,,,,,,,,90.0,1.0,,
87,,size_choice,,html-keyboard-response,87,57025,0.0-1.0-114.0,0,0,18270,,506.0,,,75.0,28.0,28.0,1.0,2000.0,M-L,0.0,M,L,2.0,3.0,ketchup,mailbox,ketchup2,mailbox9,91.0,48.0,/static/Size_judgement/Stimuli/Size_stims/M/ketchup/ketchup9.jpg,/static/Size_judgement/Stimuli/Size_stims/L/mailbox/mailbox9.jpg,0.0,mailbox,ketchup,L,M,3.0,2.0,mailbox9,ketchup2,1.0,0.0,90.506,0.506,,
88,,size_choice_confirmation,,html-keyboard-response,88,58021,0.0-1.0-115.0-0.0,0,0,18270,,,,,,28.0,,,,,,,,,,,,,,,,,,,,,,,,,,,,,91.5,0.9940000000000001,,
89,,iti,,html-keyboard-response,89,58122,0.0-1.0-116.0,0,0,18270,,,,,,,,,,,,,,,,,,,,,,,,,,,,,,,,,,,93.5,2.0,,
90,,size_choice,,html-keyboard-response,90,58714,0.0-1.0-118.0,0,0,18270,,591.0,,,75.0,29.0,29.0,1.0,1000.0,S-XL,0.0,S,XL,1.0,4.0,die,dumptruck,die5,dumptruck9,104.0,178.0,/static/Size_judgement/Stimuli/Size_stims/S/die/die3.jpg,/static/Size_judgement/Stimuli/Size_stims/XL/dumptruck/dumptruck5.jpg,0.0,dumptruck,die,XL,S,4.0,1.0,dumptruck9,die5,1.0,0.0,94.09100000000001,0.591,,
91,,size_choice_confirmation,,html-keyboard-response,91,59627,0.0-1.0-119.0-0.0,0,0,18270,,,,,,29.0,,,,,,,,,,,,,,,,,,,,,,,,,,,,,95.0,0.909,,
92,,iti,,html-keyboard-response,92,59733,0.0-1.0-120.0,0,0,18270,,,,,,,,,,,,,,,,,,,,,,,,,,,,,,,,,,,96.0,1.0,,
93,,size_choice,,html-keyboard-response,93,60218,0.0-1.0-122.0,0,0,18270,,484.0,,,68.0,30.0,30.0,1.0,1000.0,S-XL,1.0,XL,S,4.0,1.0,tractor,die,tractor7,die2,186.0,101.0,/static/Size_judgement/Stimuli/Size_stims/XL/tractor/tractor2.jpg,/static/Size_judgement/Stimuli/Size_stims/S/die/die9.jpg,1.0,tractor,die,XL,S,4.0,1.0,tractor7,die2,1.0,0.0,96.484,0.484,,
94,,size_choice_confirmation,,html-keyboard-response,94,61237,0.0-1.0-123.0-0.0,0,0,18270,,,,,,30.0,,,,,,,,,,,,,,,,,,,,,,,,,,,,,97.5,1.016,,
95,,iti,,html-keyboard-response,95,61341,0.0-1.0-124.0,0,0,18270,,,,,,,,,,,,,,,,,,,,,,,,,,,,,,,,,,,98.5,1.0,,
96,,size_choice,,html-keyboard-response,96,62080,0.0-1.0-126.0,0,0,18270,,738.0,,,68.0,31.0,31.0,1.0,1500.0,S-L,1.0,L,S,3.0,1.0,garbagecan,thread,garbagecan2,thread9,31.0,148.0,/static/Size_judgement/Stimuli/Size_stims/L/garbagecan/garbagecan5.jpg,/static/Size_judgement/Stimuli/Size_stims/S/thread/thread8.jpg,1.0,garbagecan,thread,L,S,3.0,1.0,garbagecan2,thread9,1.0,0.0,99.238,0.738,,
97,,size_choice_confirmation,,html-keyboard-response,97,62848,0.0-1.0-127.0-0.0,0,0,18270,,,,,,31.0,,,,,,,,,,,,,,,,,,,,,,,,,,,,,100.0,0.762,,
98,,iti,,html-keyboard-response,98,62955,0.0-1.0-128.0,0,0,18270,,,,,,,,,,,,,,,,,,,,,,,,,,,,,,,,,,,101.5,1.5,,
99,,size_choice,,html-keyboard-response,99,63547,0.0-1.0-130.0,0,0,18270,,590.0,,,75.0,32.0,32.0,1.0,2000.0,M-L,0.0,M,L,2.0,3.0,handsaw,deskchair,handsaw9,deskchair2,88.0,11.0,/static/Size_judgement/Stimuli/Size_stims/M/handsaw/handsaw6.jpg,/static/Size_judgement/Stimuli/Size_stims/L/deskchair/deskchair8.jpg,0.0,deskchair,handsaw,L,M,3.0,2.0,deskchair2,handsaw9,1.0,0.0,102.09,0.59,,
100,,size_choice_confirmation,,html-keyboard-response,100,64460,0.0-1.0-131.0-0.0,0,0,18270,,,,,,32.0,,,,,,,,,,,,,,,,,,,,,,,,,,,,,103.0,0.91,,
101,,iti,,html-keyboard-response,101,64563,0.0-1.0-132.0,0,0,18270,,,,,,,,,,,,,,,,,,,,,,,,,,,,,,,,,,,105.0,2.0,,
102,,size_choice,,html-keyboard-response,102,65262,0.0-1.0-134.0,0,0,18270,,698.0,,,75.0,33.0,33.0,1.0,1000.0,S-L,1.0,L,S,3.0,1.0,garbagecan,teabag,garbagecan3,teabag8,32.0,137.0,/static/Size_judgement/Stimuli/Size_stims/L/garbagecan/garbagecan7.jpg,/static/Size_judgement/Stimuli/Size_stims/S/teabag/teabag7.jpg,0.0,teabag,garbagecan,S,L,1.0,3.0,teabag8,garbagecan3,0.0,0.0,105.698,0.698,,
103,,size_choice_confirmation,,html-keyboard-response,103,66068,0.0-1.0-135.0-0.0,0,0,18270,,,,,,33.0,,,,,,,,,,,,,,,,,,,,,,,,,,,,,106.5,0.802,,
104,,iti,,html-keyboard-response,104,66170,0.0-1.0-136.0,0,0,18270,,,,,,,,,,,,,,,,,,,,,,,,,,,,,,,,,,,107.5,1.0,,
105,,size_choice,,html-keyboard-response,105,66695,0.0-1.0-138.0,0,0,18270,,524.0,,,75.0,34.0,34.0,1.0,1000.0,M-L,0.0,M,L,2.0,3.0,handsaw,dishwasher,handsaw2,dishwasher4,81.0,23.0,/static/Size_judgement/Stimuli/Size_stims/M/handsaw/handsaw9.jpg,/static/Size_judgement/Stimuli/Size_stims/L/dishwasher/dishwasher5.jpg,0.0,dishwasher,handsaw,L,M,3.0,2.0,dishwasher4,handsaw2,1.0,0.0,108.024,0.524,,
106,,size_choice_confirmation,,html-keyboard-response,106,67675,0.0-1.0-139.0-0.0,0,0,18270,,,,,,34.0,,,,,,,,,,,,,,,,,,,,,,,,,,,,,109.0,0.976,,
107,,iti,,html-keyboard-response,107,67777,0.0-1.0-140.0,0,0,18270,,,,,,,,,,,,,,,,,,,,,,,,,,,,,,,,,,,110.0,1.0,,
108,,size_choice,,html-keyboard-response,108,68376,0.0-1.0-142.0,0,0,18270,,598.0,,,68.0,35.0,35.0,1.0,1500.0,M-L,1.0,L,M,3.0,2.0,dishwasher,ketchup,dishwasher1,ketchup4,20.0,93.0,/static/Size_judgement/Stimuli/Size_stims/L/dishwasher/dishwasher10.jpg,/static/Size_judgement/Stimuli/Size_stims/M/ketchup/ketchup2.jpg,1.0,dishwasher,ketchup,L,M,3.0,2.0,dishwasher1,ketchup4,1.0,0.0,110.598,0.598,,
109,,size_choice_confirmation,,html-keyboard-response,109,69282,0.0-1.0-143.0-0.0,0,0,18270,,,,,,35.0,,,,,,,,,,,,,,,,,,,,,,,,,,,,,111.5,0.902,,
110,,iti,,html-keyboard-response,110,69386,0.0-1.0-144.0,0,0,18270,,,,,,,,,,,,,,,,,,,,,,,,,,,,,,,,,,,113.0,1.5,,
111,,size_choice,,html-keyboard-response,111,70119,0.0-1.0-146.0,0,0,18270,,732.0,,,75.0,36.0,36.0,1.0,1500.0,M-L,0.0,M,L,2.0,3.0,hairdryer,cooler,hairdryer6,cooler3,75.0,2.0,/static/Size_judgement/Stimuli/Size_stims/M/hairdryer/hairdryer8.jpg,/static/Size_judgement/Stimuli/Size_stims/L/cooler/cooler2.jpg,0.0,cooler,hairdryer,L,M,3.0,2.0,cooler3,hairdryer6,1.0,0.0,113.73200000000001,0.732,,
112,,size_choice_confirmation,,html-keyboard-response,112,70893,0.0-1.0-147.0-0.0,0,0,18270,,,,,,36.0,,,,,,,,,,,,,,,,,,,,,,,,,,,,,114.5,0.768,,
113,,iti,,html-keyboard-response,113,70999,0.0-1.0-148.0,0,0,18270,,,,,,,,,,,,,,,,,,,,,,,,,,,,,,,,,,,116.0,1.5,,
114,,size_choice,,html-keyboard-response,114,71970,0.0-1.0-150.0,0,0,18270,,970.0,,,68.0,37.0,37.0,1.0,1000.0,S-XL,1.0,XL,S,4.0,1.0,car,teabag,car4,teabag10,153.0,139.0,/static/Size_judgement/Stimuli/Size_stims/XL/car/car6.jpg,/static/Size_judgement/Stimuli/Size_stims/S/teabag/teabag4.jpg,1.0,car,teabag,XL,S,4.0,1.0,car4,teabag10,1.0,0.0,116.97,0.97,,
115,,size_choice_confirmation,,html-keyboard-response,115,72503,0.0-1.0-151.0-0.0,0,0,18270,,,,,,37.0,,,,,,,,,,,,,,,,,,,,,,,,,,,,,117.5,0.53,,
116,,iti,,html-keyboard-response,116,72609,0.0-1.0-152.0,0,0,18270,,,,,,,,,,,,,,,,,,,,,,,,,,,,,,,,,,,118.5,1.0,,
117,,size_choice,,html-keyboard-response,117,73291,0.0-1.0-154.0,0,0,18270,,681.0,,,68.0,38.0,38.0,1.0,1500.0,M-XL,1.0,XL,M,4.0,2.0,tractor,handsaw,tractor8,handsaw10,187.0,89.0,/static/Size_judgement/Stimuli/Size_stims/XL/tractor/tractor10.jpg,/static/Size_judgement/Stimuli/Size_stims/M/handsaw/handsaw10.jpg,1.0,tractor,handsaw,XL,M,4.0,2.0,tractor8,handsaw10,1.0,0.0,119.181,0.6809999999999999,,
118,,size_choice_confirmation,,html-keyboard-response,118,74113,0.0-1.0-155.0-0.0,0,0,18270,,,,,,38.0,,,,,,,,,,,,,,,,,,,,,,,,,,,,,120.0,0.8190000000000001,,
119,,iti,,html-keyboard-response,119,74217,0.0-1.0-156.0,0,0,18270,,,,,,,,,,,,,,,,,,,,,,,,,,,,,,,,,,,121.5,1.5,,
120,,size_choice,,html-keyboard-response,120,74897,0.0-1.0-158.0,0,0,18270,,679.0,,,68.0,39.0,39.0,1.0,1500.0,S-M,1.0,M,S,2.0,1.0,basketball,screws,basketball6,screws9,55.0,128.0,/static/Size_judgement/Stimuli/Size_stims/M/basketball/basketball2.jpg,/static/Size_judgement/Stimuli/Size_stims/S/screws/screws8.jpg,1.0,basketball,screws,M,S,2.0,1.0,basketball6,screws9,1.0,0.0,122.179,0.679,,
121,,size_choice_confirmation,,html-keyboard-response,121,75725,0.0-1.0-159.0-0.0,0,0,18270,,,,,,39.0,,,,,,,,,,,,,,,,,,,,,,,,,,,,,123.0,0.821,,
122,,iti,,html-keyboard-response,122,75827,0.0-1.0-160.0,0,0,18270,,,,,,,,,,,,,,,,,,,,,,,,,,,,,,,,,,,124.5,1.5,,
123,,size_choice,,html-keyboard-response,123,76658,0.0-1.0-162.0,0,0,18270,,830.0,,,75.0,40.0,40.0,1.0,1000.0,M-XL,0.0,M,XL,2.0,4.0,hairdryer,dumptruck,hairdryer1,dumptruck5,70.0,174.0,/static/Size_judgement/Stimuli/Size_stims/M/hairdryer/hairdryer11.jpg,/static/Size_judgement/Stimuli/Size_stims/XL/dumptruck/dumptruck3.jpg,0.0,dumptruck,hairdryer,XL,M,4.0,2.0,dumptruck5,hairdryer1,1.0,0.0,125.33,0.83,,
124,,size_choice_confirmation,,html-keyboard-response,124,77332,0.0-1.0-163.0-0.0,0,0,18270,,,,,,40.0,,,,,,,,,,,,,,,,,,,,,,,,,,,,,126.0,0.67,,
125,,iti,,html-keyboard-response,125,77435,0.0-1.0-164.0,0,0,18270,,,,,,,,,,,,,,,,,,,,,,,,,,,,,,,,,,,127.0,1.0,,
126,,size_choice,,html-keyboard-response,126,78105,0.0-1.0-166.0,0,0,18270,,669.0,,,75.0,41.0,41.0,1.0,1500.0,S-L,0.0,S,L,1.0,3.0,paperclip,mailbox,paperclip2,mailbox7,111.0,46.0,/static/Size_judgement/Stimuli/Size_stims/S/paperclip/paperclip8.jpg,/static/Size_judgement/Stimuli/Size_stims/L/mailbox/mailbox7.jpg,0.0,mailbox,paperclip,L,S,3.0,1.0,mailbox7,paperclip2,1.0,0.0,127.669,0.669,,
127,,size_choice_confirmation,,html-keyboard-response,127,78941,0.0-1.0-167.0-0.0,0,0,18270,,,,,,41.0,,,,,,,,,,,,,,,,,,,,,,,,,,,,,128.5,0.831,,
128,,iti,,html-keyboard-response,128,79044,0.0-1.0-168.0,0,0,18270,,,,,,,,,,,,,,,,,,,,,,,,,,,,,,,,,,,130.0,1.5,,
129,,size_choice,,html-keyboard-response,129,79786,0.0-1.0-170.0,0,0,18270,,741.0,,,75.0,42.0,42.0,1.0,2000.0,S-XL,0.0,S,XL,1.0,4.0,thread,dumptruck,thread8,dumptruck10,147.0,179.0,/static/Size_judgement/Stimuli/Size_stims/S/thread/thread10.jpg,/static/Size_judgement/Stimuli/Size_stims/XL/dumptruck/dumptruck4.jpg,0.0,dumptruck,thread,XL,S,4.0,1.0,dumptruck10,thread8,1.0,0.0,130.741,0.741,,
130,,size_choice_confirmation,,html-keyboard-response,130,80547,0.0-1.0-171.0-0.0,0,0,18270,,,,,,42.0,,,,,,,,,,,,,,,,,,,,,,,,,,,,,131.5,0.759,,
131,,iti,,html-keyboard-response,131,80652,0.0-1.0-172.0,0,0,18270,,,,,,,,,,,,,,,,,,,,,,,,,,,,,,,,,,,133.5,2.0,,
132,,size_choice,,html-keyboard-response,132,82027,0.0-1.0-174.0,0,0,18270,,1374.0,,,75.0,43.0,43.0,1.0,3000.0,L-XL,0.0,L,XL,3.0,4.0,cooler,tractor,cooler1,tractor10,0.0,189.0,/static/Size_judgement/Stimuli/Size_stims/L/cooler/cooler8.jpg,/static/Size_judgement/Stimuli/Size_stims/XL/tractor/tractor8.jpg,0.0,tractor,cooler,XL,L,4.0,3.0,tractor10,cooler1,1.0,0.0,134.874,1.374,,
133,,size_choice_confirmation,,html-keyboard-response,133,82160,0.0-1.0-175.0-0.0,0,0,18270,,,,,,43.0,,,,,,,,,,,,,,,,,,,,,,,,,,,,,135.0,0.126,,
134,,iti,,html-keyboard-response,134,82261,0.0-1.0-176.0,0,0,18270,,,,,,,,,,,,,,,,,,,,,,,,,,,,,,,,,,,138.0,3.0,,
135,,size_choice,,html-keyboard-response,135,83092,0.0-1.0-178.0,0,0,18270,,830.0,,,75.0,44.0,44.0,1.0,1500.0,M-M,,M,M,2.0,2.0,hairdryer,coffeemaker,hairdryer10,coffeemaker1,79.0,60.0,/static/Size_judgement/Stimuli/Size_stims/M/hairdryer/hairdryer6.jpg,/static/Size_judgement/Stimuli/Size_stims/M/coffeemaker/coffeemaker14.jpg,0.0,coffeemaker,hairdryer,M,M,2.0,2.0,coffeemaker1,hairdryer10,,0.0,138.83,0.83,,
136,,size_choice_confirmation,,html-keyboard-response,136,83765,0.0-1.0-179.0-0.0,0,0,18270,,,,,,44.0,,,,,,,,,,,,,,,,,,,,,,,,,,,,,139.5,0.67,,
137,,iti,,html-keyboard-response,137,83868,0.0-1.0-180.0,0,0,18270,,,,,,,,,,,,,,,,,,,,,,,,,,,,,,,,,,,141.0,1.5,,
138,,block_over,,html-keyboard-response,138,84990,0.0-1.0-181.0-0.0,0,0,18270,,1111.0,,,68.0,44.0,,,,,,,,,,,,,,,,,,,,,,,,,,,,,,,,
139,,size_choice,,html-keyboard-response,139,85646,0.0-1.0-182.0,0,0,18270,,654.0,,,75.0,45.0,45.0,2.0,3500.0,L-XL,0.0,L,XL,3.0,4.0,cooler,car,cooler4,car3,3.0,152.0,/static/Size_judgement/Stimuli/Size_stims/L/cooler/cooler3.jpg,/static/Size_judgement/Stimuli/Size_stims/XL/car/car4.jpg,0.0,car,cooler,XL,L,4.0,3.0,car3,cooler4,1.0,0.0,141.654,0.654,,
140,,size_choice_confirmation,,html-keyboard-response,140,86494,0.0-1.0-183.0-0.0,0,0,18270,,,,,,45.0,,,,,,,,,,,,,,,,,,,,,,,,,,,,,142.5,0.846,,
141,,iti,,html-keyboard-response,141,86594,0.0-1.0-184.0,0,0,18270,,,,,,,,,,,,,,,,,,,,,,,,,,,,,,,,,,,146.0,3.5,,
142,,size_choice,,html-keyboard-response,142,87114,0.0-1.0-186.0,0,0,18270,,519.0,,,75.0,46.0,46.0,2.0,2000.0,L-L,,L,L,3.0,3.0,deskchair,cooler,deskchair8,cooler2,17.0,1.0,/static/Size_judgement/Stimuli/Size_stims/L/deskchair/deskchair1.jpg,/static/Size_judgement/Stimuli/Size_stims/L/cooler/cooler9.jpg,0.0,cooler,deskchair,L,L,3.0,3.0,cooler2,deskchair8,,0.0,146.519,0.519,,
143,,size_choice_confirmation,,html-keyboard-response,143,88098,0.0-1.0-187.0-0.0,0,0,18270,,,,,,46.0,,,,,,,,,,,,,,,,,,,,,,,,,,,,,147.5,0.981,,
144,,iti,,html-keyboard-response,144,88199,0.0-1.0-188.0,0,0,18270,,,,,,,,,,,,,,,,,,,,,,,,,,,,,,,,,,,149.5,2.0,,
145,,size_choice,,html-keyboard-response,145,88708,0.0-1.0-190.0,0,0,18270,,508.0,,,75.0,47.0,47.0,2.0,1500.0,M-L,0.0,M,L,2.0,3.0,basketball,cooler,basketball3,cooler9,52.0,8.0,/static/Size_judgement/Stimuli/Size_stims/M/basketball/basketball10.jpg,/static/Size_judgement/Stimuli/Size_stims/L/cooler/cooler7.jpg,0.0,cooler,basketball,L,M,3.0,2.0,cooler9,basketball3,1.0,0.0,150.00799999999998,0.508,,
146,,size_choice_confirmation,,html-keyboard-response,146,89705,0.0-1.0-191.0-0.0,0,0,18270,,,,,,47.0,,,,,,,,,,,,,,,,,,,,,,,,,,,,,151.0,0.992,,
147,,iti,,html-keyboard-response,147,89807,0.0-1.0-192.0,0,0,18270,,,,,,,,,,,,,,,,,,,,,,,,,,,,,,,,,,,152.5,1.5,,
148,,size_choice,,html-keyboard-response,148,90350,0.0-1.0-194.0,0,0,18270,,542.0,,,68.0,48.0,48.0,2.0,1000.0,M-XL,1.0,XL,M,4.0,2.0,car,ketchup,car8,ketchup5,157.0,94.0,/static/Size_judgement/Stimuli/Size_stims/XL/car/car14.jpg,/static/Size_judgement/Stimuli/Size_stims/M/ketchup/ketchup3.jpg,1.0,car,ketchup,XL,M,4.0,2.0,car8,ketchup5,1.0,0.0,153.042,0.542,,
149,,size_choice_confirmation,,html-keyboard-response,149,91311,0.0-1.0-195.0-0.0,0,0,18270,,,,,,48.0,,,,,,,,,,,,,,,,,,,,,,,,,,,,,154.0,0.958,,
150,,iti,,html-keyboard-response,150,91417,0.0-1.0-196.0,0,0,18270,,,,,,,,,,,,,,,,,,,,,,,,,,,,,,,,,,,155.0,1.0,,
151,,size_choice,,html-keyboard-response,151,92404,0.0-1.0-198.0,0,0,18270,,986.0,,,75.0,49.0,49.0,2.0,1000.0,S-S,,S,S,1.0,1.0,die,thread,die3,thread6,102.0,145.0,/static/Size_judgement/Stimuli/Size_stims/S/die/die10.jpg,/static/Size_judgement/Stimuli/Size_stims/S/thread/thread2.jpg,0.0,thread,die,S,S,1.0,1.0,thread6,die3,,0.0,155.986,0.986,,
152,,size_choice_confirmation,,html-keyboard-response,152,92923,0.0-1.0-199.0-0.0,0,0,18270,,,,,,49.0,,,,,,,,,,,,,,,,,,,,,,,,,,,,,156.5,0.514,,
153,,iti,,html-keyboard-response,153,93028,0.0-1.0-200.0,0,0,18270,,,,,,,,,,,,,,,,,,,,,,,,,,,,,,,,,,,157.5,1.0,,
154,,size_choice,,html-keyboard-response,154,93576,0.0-1.0-202.0,0,0,18270,,547.0,,,75.0,50.0,50.0,2.0,2000.0,S-XL,0.0,S,XL,1.0,4.0,thread,car,thread3,car10,142.0,159.0,/static/Size_judgement/Stimuli/Size_stims/S/thread/thread4.jpg,/static/Size_judgement/Stimuli/Size_stims/XL/car/car9.jpg,0.0,car,thread,XL,S,4.0,1.0,car10,thread3,1.0,0.0,158.047,0.547,,
155,,size_choice_confirmation,,html-keyboard-response,155,94536,0.0-1.0-203.0-0.0,0,0,18270,,,,,,50.0,,,,,,,,,,,,,,,,,,,,,,,,,,,,,159.0,0.953,,
156,,iti,,html-keyboard-response,156,94641,0.0-1.0-204.0,0,0,18270,,,,,,,,,,,,,,,,,,,,,,,,,,,,,,,,,,,161.0,2.0,,
157,,size_choice,,html-keyboard-response,157,95375,0.0-1.0-206.0,0,0,18270,,732.0,,,75.0,51.0,51.0,2.0,2000.0,M-M,,M,M,2.0,2.0,ketchup,basketball,ketchup9,basketball9,98.0,58.0,/static/Size_judgement/Stimuli/Size_stims/M/ketchup/ketchup7.jpg,/static/Size_judgement/Stimuli/Size_stims/M/basketball/basketball5.jpg,0.0,basketball,ketchup,M,M,2.0,2.0,basketball9,ketchup9,,0.0,161.732,0.732,,
158,,size_choice_confirmation,,html-keyboard-response,158,96146,0.0-1.0-207.0-0.0,0,0,18270,,,,,,51.0,,,,,,,,,,,,,,,,,,,,,,,,,,,,,162.5,0.768,,
159,,iti,,html-keyboard-response,159,96253,0.0-1.0-208.0,0,0,18270,,,,,,,,,,,,,,,,,,,,,,,,,,,,,,,,,,,164.5,2.0,,
160,,size_choice,,html-keyboard-response,160,96986,0.0-1.0-210.0,0,0,18270,,732.0,,,68.0,52.0,52.0,2.0,1500.0,S-M,0.0,S,M,1.0,2.0,thread,ketchup,thread4,ketchup7,143.0,96.0,/static/Size_judgement/Stimuli/Size_stims/S/thread/thread5.jpg,/static/Size_judgement/Stimuli/Size_stims/M/ketchup/ketchup4.jpg,1.0,thread,ketchup,S,M,1.0,2.0,thread4,ketchup7,0.0,0.0,165.232,0.732,,
161,,size_choice_confirmation,,html-keyboard-response,161,97760,0.0-1.0-211.0-0.0,0,0,18270,,,,,,52.0,,,,,,,,,,,,,,,,,,,,,,,,,,,,,166.0,0.768,,
162,,iti,,html-keyboard-response,162,97863,0.0-1.0-212.0,0,0,18270,,,,,,,,,,,,,,,,,,,,,,,,,,,,,,,,,,,167.5,1.5,,
163,,size_choice,,html-keyboard-response,163,98320,0.0-1.0-214.0,0,0,18270,,456.0,,,75.0,53.0,53.0,2.0,1500.0,M-XL,0.0,M,XL,2.0,4.0,ketchup,van,ketchup1,van8,90.0,197.0,/static/Size_judgement/Stimuli/Size_stims/M/ketchup/ketchup8.jpg,/static/Size_judgement/Stimuli/Size_stims/XL/van/van10.jpg,0.0,van,ketchup,XL,M,4.0,2.0,van8,ketchup1,1.0,0.0,167.956,0.456,,
164,,size_choice_confirmation,,html-keyboard-response,164,99367,0.0-1.0-215.0-0.0,0,0,18270,,,,,,53.0,,,,,,,,,,,,,,,,,,,,,,,,,,,,,169.0,1.044,,
165,,iti,,html-keyboard-response,165,99472,0.0-1.0-216.0,0,0,18270,,,,,,,,,,,,,,,,,,,,,,,,,,,,,,,,,,,170.5,1.5,,
166,,size_choice,,html-keyboard-response,166,100335,0.0-1.0-218.0,0,0,18270,,862.0,,,68.0,54.0,54.0,2.0,2000.0,XL-XL,,XL,XL,4.0,4.0,dumptruck,car,dumptruck1,car2,170.0,151.0,/static/Size_judgement/Stimuli/Size_stims/XL/dumptruck/dumptruck9.jpg,/static/Size_judgement/Stimuli/Size_stims/XL/car/car3.jpg,1.0,dumptruck,car,XL,XL,4.0,4.0,dumptruck1,car2,,0.0,171.362,0.862,,
167,,size_choice_confirmation,,html-keyboard-response,167,100976,0.0-1.0-219.0-0.0,0,0,18270,,,,,,54.0,,,,,,,,,,,,,,,,,,,,,,,,,,,,,172.0,0.638,,
168,,iti,,html-keyboard-response,168,101077,0.0-1.0-220.0,0,0,18270,,,,,,,,,,,,,,,,,,,,,,,,,,,,,,,,,,,174.0,2.0,,
169,,size_choice,,html-keyboard-response,169,102584,0.0-1.0-222.0,0,0,18270,,,,,,55.0,55.0,2.0,1000.0,M-L,1.0,L,M,3.0,2.0,mailbox,coffeemaker,mailbox10,coffeemaker10,49.0,69.0,/static/Size_judgement/Stimuli/Size_stims/L/mailbox/mailbox8.jpg,/static/Size_judgement/Stimuli/Size_stims/M/coffeemaker/coffeemaker18.jpg,,,,,,,,,,,,175.5,1.5,1.0,
170,,iti,,html-keyboard-response,170,102689,0.0-1.0-224.0,0,0,18270,,,,,,,,,,,,,,,,,,,,,,,,,,,,,,,,,,,175.5,0.0,,
171,,size_choice,,html-keyboard-response,171,102790,0.0-1.0-226.0,0,0,18270,,100.0,,,68.0,56.0,56.0,2.0,1000.0,M-XL,0.0,M,XL,2.0,4.0,hairdryer,van,hairdryer4,van5,73.0,194.0,/static/Size_judgement/Stimuli/Size_stims/M/hairdryer/hairdryer16.jpg,/static/Size_judgement/Stimuli/Size_stims/XL/van/van3.jpg,1.0,hairdryer,van,M,XL,2.0,4.0,hairdryer4,van5,0.0,0.0,175.6,0.1,,
172,,size_choice_confirmation,,html-keyboard-response,172,104194,0.0-1.0-227.0-0.0,0,0,18270,,,,,,56.0,,,,,,,,,,,,,,,,,,,,,,,,,,,,,177.0,1.4,,
173,,iti,,html-keyboard-response,173,104300,0.0-1.0-228.0,0,0,18270,,,,,,,,,,,,,,,,,,,,,,,,,,,,,,,,,,,178.0,1.0,,
174,,size_choice,,html-keyboard-response,174,104373,0.0-1.0-230.0,0,0,18270,,72.0,,,68.0,57.0,57.0,2.0,1000.0,S-L,0.0,S,L,1.0,3.0,die,mailbox,die10,mailbox6,109.0,45.0,/static/Size_judgement/Stimuli/Size_stims/S/die/die6.jpg,/static/Size_judgement/Stimuli/Size_stims/L/mailbox/mailbox6.jpg,1.0,die,mailbox,S,L,1.0,3.0,die10,mailbox6,0.0,0.0,178.072,0.07200000000000001,,
175,,size_choice_confirmation,,html-keyboard-response,175,105803,0.0-1.0-231.0-0.0,0,0,18270,,,,,,57.0,,,,,,,,,,,,,,,,,,,,,,,,,,,,,179.5,1.4280000000000002,,
176,,iti,,html-keyboard-response,176,105905,0.0-1.0-232.0,0,0,18270,,,,,,,,,,,,,,,,,,,,,,,,,,,,,,,,,,,180.5,1.0,,
177,,size_choice,,html-keyboard-response,177,105934,0.0-1.0-234.0,0,0,18270,,27.0,,,68.0,58.0,58.0,2.0,3000.0,M-XL,1.0,XL,M,4.0,2.0,crane,ketchup,crane6,ketchup6,165.0,95.0,/static/Size_judgement/Stimuli/Size_stims/XL/crane/crane2.jpg,/static/Size_judgement/Stimuli/Size_stims/M/ketchup/ketchup1.jpg,1.0,crane,ketchup,XL,M,4.0,2.0,crane6,ketchup6,1.0,0.0,180.52700000000002,0.027000000000000003,,
178,,size_choice_confirmation,,html-keyboard-response,178,107410,0.0-1.0-235.0-0.0,0,0,18270,,,,,,58.0,,,,,,,,,,,,,,,,,,,,,,,,,,,,,182.0,1.473,,
179,,iti,,html-keyboard-response,179,107511,0.0-1.0-236.0,0,0,18270,,,,,,,,,,,,,,,,,,,,,,,,,,,,,,,,,,,185.0,3.0,,
180,,size_choice,,html-keyboard-response,180,109014,0.0-1.0-238.0,0,0,18270,,,,,,59.0,59.0,2.0,1500.0,S-XL,1.0,XL,S,4.0,1.0,van,teabag,van4,teabag3,193.0,132.0,/static/Size_judgement/Stimuli/Size_stims/XL/van/van7.jpg,/static/Size_judgement/Stimuli/Size_stims/S/teabag/teabag1.jpg,,,,,,,,,,,,186.5,1.5,1.0,
181,,iti,,html-keyboard-response,181,109117,0.0-1.0-240.0,0,0,18270,,,,,,,,,,,,,,,,,,,,,,,,,,,,,,,,,,,187.0,0.5,,
182,,size_choice,,html-keyboard-response,182,110618,0.0-1.0-242.0,0,0,18270,,,,,,60.0,60.0,2.0,1500.0,S-L,0.0,S,L,1.0,3.0,paperclip,deskchair,paperclip4,deskchair3,113.0,12.0,/static/Size_judgement/Stimuli/Size_stims/S/paperclip/paperclip3.jpg,/static/Size_judgement/Stimuli/Size_stims/L/deskchair/deskchair10.jpg,,,,,,,,,,,,188.5,1.5,1.0,
183,,iti,,html-keyboard-response,183,110722,0.0-1.0-244.0,0,0,18270,,,,,,,,,,,,,,,,,,,,,,,,,,,,,,,,,,,189.0,0.5,,
184,,size_choice,,html-keyboard-response,184,112224,0.0-1.0-246.0,0,0,18270,,,,,,61.0,61.0,2.0,1000.0,L-L,,L,L,3.0,3.0,dishwasher,garbagecan,dishwasher5,garbagecan1,24.0,30.0,/static/Size_judgement/Stimuli/Size_stims/L/dishwasher/dishwasher4.jpg,/static/Size_judgement/Stimuli/Size_stims/L/garbagecan/garbagecan4.jpg,,,,,,,,,,,,190.5,1.5,1.0,
185,,iti,,html-keyboard-response,185,112326,0.0-1.0-248.0,0,0,18270,,,,,,,,,,,,,,,,,,,,,,,,,,,,,,,,,,,190.5,0.0,,
186,,size_choice,,html-keyboard-response,186,113830,0.0-1.0-250.0,0,0,18270,,,,,,62.0,62.0,2.0,1000.0,M-L,0.0,M,L,2.0,3.0,ketchup,deskchair,ketchup3,deskchair7,92.0,16.0,/static/Size_judgement/Stimuli/Size_stims/M/ketchup/ketchup10.jpg,/static/Size_judgement/Stimuli/Size_stims/L/deskchair/deskchair4.jpg,,,,,,,,,,,,192.0,1.5,1.0,
187,,iti,,html-keyboard-response,187,113931,0.0-1.0-252.0,0,0,18270,,,,,,,,,,,,,,,,,,,,,,,,,,,,,,,,,,,192.0,0.0,,
188,,size_choice,,html-keyboard-response,188,115432,0.0-1.0-254.0,0,0,18270,,,,,,63.0,63.0,2.0,2000.0,S-M,0.0,S,M,1.0,2.0,teabag,coffeemaker,teabag2,coffeemaker3,131.0,62.0,/static/Size_judgement/Stimuli/Size_stims/S/teabag/teabag8.jpg,/static/Size_judgement/Stimuli/Size_stims/M/coffeemaker/coffeemaker13.jpg,,,,,,,,,,,,193.5,1.5,1.0,
189,,iti,,html-keyboard-response,189,115536,0.0-1.0-256.0,0,0,18270,,,,,,,,,,,,,,,,,,,,,,,,,,,,,,,,,,,194.5,1.0,,
190,,size_choice,,html-keyboard-response,190,115840,0.0-1.0-258.0,0,0,18270,,303.0,,,68.0,64.0,64.0,2.0,1000.0,M-L,0.0,M,L,2.0,3.0,coffeemaker,garbagecan,coffeemaker6,garbagecan10,65.0,39.0,/static/Size_judgement/Stimuli/Size_stims/M/coffeemaker/coffeemaker8.jpg,/static/Size_judgement/Stimuli/Size_stims/L/garbagecan/garbagecan11.jpg,1.0,coffeemaker,garbagecan,M,L,2.0,3.0,coffeemaker6,garbagecan10,0.0,0.0,194.803,0.303,,
191,,size_choice_confirmation,,html-keyboard-response,191,117042,0.0-1.0-259.0-0.0,0,0,18270,,,,,,64.0,,,,,,,,,,,,,,,,,,,,,,,,,,,,,196.0,1.197,,
192,,iti,,html-keyboard-response,192,117145,0.0-1.0-260.0,0,0,18270,,,,,,,,,,,,,,,,,,,,,,,,,,,,,,,,,,,197.0,1.0,,
193,,size_choice,,html-keyboard-response,193,117422,0.0-1.0-262.0,0,0,18270,,276.0,,,68.0,65.0,65.0,2.0,1000.0,S-XL,1.0,XL,S,4.0,1.0,crane,paperclip,crane1,paperclip3,160.0,112.0,/static/Size_judgement/Stimuli/Size_stims/XL/crane/crane7.jpg,/static/Size_judgement/Stimuli/Size_stims/S/paperclip/paperclip1.jpg,1.0,crane,paperclip,XL,S,4.0,1.0,crane1,paperclip3,1.0,0.0,197.27599999999998,0.276,,
194,,size_choice_confirmation,,html-keyboard-response,194,118652,0.0-1.0-263.0-0.0,0,0,18270,,,,,,65.0,,,,,,,,,,,,,,,,,,,,,,,,,,,,,198.5,1.224,,
195,,iti,,html-keyboard-response,195,118754,0.0-1.0-264.0,0,0,18270,,,,,,,,,,,,,,,,,,,,,,,,,,,,,,,,,,,199.5,1.0,,
196,,size_choice,,html-keyboard-response,196,118811,0.0-1.0-266.0,0,0,18270,,56.0,,,75.0,66.0,66.0,2.0,2000.0,M-M,,M,M,2.0,2.0,hairdryer,handsaw,hairdryer9,handsaw4,78.0,83.0,/static/Size_judgement/Stimuli/Size_stims/M/hairdryer/hairdryer5.jpg,/static/Size_judgement/Stimuli/Size_stims/M/handsaw/handsaw3.jpg,0.0,handsaw,hairdryer,M,M,2.0,2.0,handsaw4,hairdryer9,,0.0,199.55599999999998,0.055999999999999994,,
197,,size_choice_confirmation,,html-keyboard-response,197,120256,0.0-1.0-267.0-0.0,0,0,18270,,,,,,66.0,,,,,,,,,,,,,,,,,,,,,,,,,,,,,201.0,1.444,,
198,,iti,,html-keyboard-response,198,120360,0.0-1.0-268.0,0,0,18270,,,,,,,,,,,,,,,,,,,,,,,,,,,,,,,,,,,203.0,2.0,,
199,,size_choice,,html-keyboard-response,199,120431,0.0-1.0-270.0,0,0,18270,,68.0,,,68.0,67.0,67.0,2.0,1500.0,S-S,,S,S,1.0,1.0,paperclip,screws,paperclip1,screws10,110.0,129.0,/static/Size_judgement/Stimuli/Size_stims/S/paperclip/paperclip9.jpg,/static/Size_judgement/Stimuli/Size_stims/S/screws/screws9.jpg,1.0,paperclip,screws,S,S,1.0,1.0,paperclip1,screws10,,0.0,203.06799999999998,0.068,,
200,,size_choice_confirmation,,html-keyboard-response,200,121866,0.0-1.0-271.0-0.0,0,0,18270,,,,,,67.0,,,,,,,,,,,,,,,,,,,,,,,,,,,,,204.5,1.432,,
201,,iti,,html-keyboard-response,201,121972,0.0-1.0-272.0,0,0,18270,,,,,,,,,,,,,,,,,,,,,,,,,,,,,,,,,,,206.0,1.5,,
202,,size_choice,,html-keyboard-response,202,122021,0.0-1.0-274.0,0,0,18270,,48.0,,,75.0,68.0,68.0,2.0,1500.0,M-XL,1.0,XL,M,4.0,2.0,tractor,coffeemaker,tractor2,coffeemaker7,181.0,66.0,/static/Size_judgement/Stimuli/Size_stims/XL/tractor/tractor7.jpg,/static/Size_judgement/Stimuli/Size_stims/M/coffeemaker/coffeemaker9.jpg,0.0,coffeemaker,tractor,M,XL,2.0,4.0,coffeemaker7,tractor2,0.0,0.0,206.048,0.048,,
203,,size_choice_confirmation,,html-keyboard-response,203,123480,0.0-1.0-275.0-0.0,0,0,18270,,,,,,68.0,,,,,,,,,,,,,,,,,,,,,,,,,,,,,207.5,1.452,,
204,,iti,,html-keyboard-response,204,123586,0.0-1.0-276.0,0,0,18270,,,,,,,,,,,,,,,,,,,,,,,,,,,,,,,,,,,209.0,1.5,,
205,,size_choice,,html-keyboard-response,205,123787,0.0-1.0-278.0,0,0,18270,,200.0,,,68.0,69.0,69.0,2.0,2000.0,L-XL,1.0,XL,L,4.0,3.0,crane,deskchair,crane4,deskchair1,163.0,10.0,/static/Size_judgement/Stimuli/Size_stims/XL/crane/crane5.jpg,/static/Size_judgement/Stimuli/Size_stims/L/deskchair/deskchair9.jpg,1.0,crane,deskchair,XL,L,4.0,3.0,crane4,deskchair1,1.0,0.0,209.2,0.2,,
206,,size_choice_confirmation,,html-keyboard-response,206,125089,0.0-1.0-279.0-0.0,0,0,18270,,,,,,69.0,,,,,,,,,,,,,,,,,,,,,,,,,,,,,210.5,1.3,,
207,,iti,,html-keyboard-response,207,125195,0.0-1.0-280.0,0,0,18270,,,,,,,,,,,,,,,,,,,,,,,,,,,,,,,,,,,212.5,2.0,,
208,,size_choice,,html-keyboard-response,208,125366,0.0-1.0-282.0,0,0,18270,,169.0,,,68.0,70.0,70.0,2.0,2000.0,S-L,1.0,L,S,3.0,1.0,garbagecan,die,garbagecan6,die8,35.0,107.0,/static/Size_judgement/Stimuli/Size_stims/L/garbagecan/garbagecan14.jpg,/static/Size_judgement/Stimuli/Size_stims/S/die/die5.jpg,1.0,garbagecan,die,L,S,3.0,1.0,garbagecan6,die8,1.0,0.0,212.669,0.16899999999999998,,
209,,size_choice_confirmation,,html-keyboard-response,209,126703,0.0-1.0-283.0-0.0,0,0,18270,,,,,,70.0,,,,,,,,,,,,,,,,,,,,,,,,,,,,,214.0,1.331,,
210,,iti,,html-keyboard-response,210,126808,0.0-1.0-284.0,0,0,18270,,,,,,,,,,,,,,,,,,,,,,,,,,,,,,,,,,,216.0,2.0,,
211,,size_choice,,html-keyboard-response,211,126952,0.0-1.0-286.0,0,0,18270,,143.0,,,75.0,71.0,71.0,2.0,1000.0,M-L,0.0,M,L,2.0,3.0,handsaw,cooler,handsaw6,cooler5,85.0,4.0,/static/Size_judgement/Stimuli/Size_stims/M/handsaw/handsaw4.jpg,/static/Size_judgement/Stimuli/Size_stims/L/cooler/cooler10.jpg,0.0,cooler,handsaw,L,M,3.0,2.0,cooler5,handsaw6,1.0,0.0,216.143,0.14300000000000002,,
212,,size_choice_confirmation,,html-keyboard-response,212,128315,0.0-1.0-287.0-0.0,0,0,18270,,,,,,71.0,,,,,,,,,,,,,,,,,,,,,,,,,,,,,217.5,1.357,,
213,,iti,,html-keyboard-response,213,128417,0.0-1.0-288.0,0,0,18270,,,,,,,,,,,,,,,,,,,,,,,,,,,,,,,,,,,218.5,1.0,,
214,,size_choice,,html-keyboard-response,214,128485,0.0-1.0-290.0,0,0,18270,,66.0,,,68.0,72.0,72.0,2.0,1000.0,S-L,0.0,S,L,1.0,3.0,screws,mailbox,screws4,mailbox1,123.0,40.0,/static/Size_judgement/Stimuli/Size_stims/S/screws/screws6.jpg,/static/Size_judgement/Stimuli/Size_stims/L/mailbox/mailbox3.jpg,1.0,screws,mailbox,S,L,1.0,3.0,screws4,mailbox1,0.0,0.0,218.56599999999997,0.066,,
215,,size_choice_confirmation,,html-keyboard-response,215,129925,0.0-1.0-291.0-0.0,0,0,18270,,,,,,72.0,,,,,,,,,,,,,,,,,,,,,,,,,,,,,220.0,1.4340000000000002,,
216,,iti,,html-keyboard-response,216,130027,0.0-1.0-292.0,0,0,18270,,,,,,,,,,,,,,,,,,,,,,,,,,,,,,,,,,,221.0,1.0,,
217,,size_choice,,html-keyboard-response,217,130321,0.0-1.0-294.0,0,0,18270,,293.0,,,75.0,73.0,73.0,2.0,1000.0,S-XL,0.0,S,XL,1.0,4.0,thread,car,thread5,car1,144.0,150.0,/static/Size_judgement/Stimuli/Size_stims/S/thread/thread1.jpg,/static/Size_judgement/Stimuli/Size_stims/XL/car/car2.jpg,0.0,car,thread,XL,S,4.0,1.0,car1,thread5,1.0,0.0,221.293,0.293,,
218,,size_choice_confirmation,,html-keyboard-response,218,131534,0.0-1.0-295.0-0.0,0,0,18270,,,,,,73.0,,,,,,,,,,,,,,,,,,,,,,,,,,,,,222.5,1.207,,
219,,iti,,html-keyboard-response,219,131636,0.0-1.0-296.0,0,0,18270,,,,,,,,,,,,,,,,,,,,,,,,,,,,,,,,,,,223.5,1.0,,
220,,size_choice,,html-keyboard-response,220,131984,0.0-1.0-298.0,0,0,18270,,348.0,,,75.0,74.0,74.0,2.0,1000.0,XL-XL,,XL,XL,4.0,4.0,van,tractor,van6,tractor9,195.0,188.0,/static/Size_judgement/Stimuli/Size_stims/XL/van/van2.jpg,/static/Size_judgement/Stimuli/Size_stims/XL/tractor/tractor9.jpg,0.0,tractor,van,XL,XL,4.0,4.0,tractor9,van6,,0.0,223.84799999999998,0.348,,
221,,size_choice_confirmation,,html-keyboard-response,221,133138,0.0-1.0-299.0-0.0,0,0,18270,,,,,,74.0,,,,,,,,,,,,,,,,,,,,,,,,,,,,,225.0,1.1520000000000001,,
222,,iti,,html-keyboard-response,222,133241,0.0-1.0-300.0,0,0,18270,,,,,,,,,,,,,,,,,,,,,,,,,,,,,,,,,,,226.0,1.0,,
223,,size_choice,,html-keyboard-response,223,133245,0.0-1.0-302.0,0,0,18270,,2.0,,,68.0,75.0,75.0,2.0,1500.0,M-XL,0.0,M,XL,2.0,4.0,basketball,van,basketball7,van7,56.0,196.0,/static/Size_judgement/Stimuli/Size_stims/M/basketball/basketball6.jpg,/static/Size_judgement/Stimuli/Size_stims/XL/van/van1.jpg,1.0,basketball,van,M,XL,2.0,4.0,basketball7,van7,0.0,0.0,226.002,0.002,,
224,,size_choice_confirmation,,html-keyboard-response,224,134745,0.0-1.0-303.0-0.0,0,0,18270,,,,,,75.0,,,,,,,,,,,,,,,,,,,,,,,,,,,,,227.5,1.4980000000000002,,
225,,iti,,html-keyboard-response,225,134847,0.0-1.0-304.0,0,0,18270,,,,,,,,,,,,,,,,,,,,,,,,,,,,,,,,,,,229.0,1.5,,
226,,size_choice,,html-keyboard-response,226,134856,0.0-1.0-306.0,0,0,18270,,8.0,,,75.0,76.0,76.0,2.0,1500.0,S-XL,1.0,XL,S,4.0,1.0,dumptruck,teabag,dumptruck7,teabag5,176.0,134.0,/static/Size_judgement/Stimuli/Size_stims/XL/dumptruck/dumptruck6.jpg,/static/Size_judgement/Stimuli/Size_stims/S/teabag/teabag2.jpg,0.0,teabag,dumptruck,S,XL,1.0,4.0,teabag5,dumptruck7,0.0,0.0,229.00799999999998,0.008,,
227,,size_choice_confirmation,,html-keyboard-response,227,136350,0.0-1.0-307.0-0.0,0,0,18270,,,,,,76.0,,,,,,,,,,,,,,,,,,,,,,,,,,,,,230.5,1.492,,
228,,iti,,html-keyboard-response,228,136456,0.0-1.0-308.0,0,0,18270,,,,,,,,,,,,,,,,,,,,,,,,,,,,,,,,,,,232.0,1.5,,
229,,size_choice,,html-keyboard-response,229,136810,0.0-1.0-310.0,0,0,18270,,352.0,,,75.0,77.0,77.0,2.0,1500.0,M-L,0.0,M,L,2.0,3.0,ketchup,deskchair,ketchup8,deskchair6,97.0,15.0,/static/Size_judgement/Stimuli/Size_stims/M/ketchup/ketchup5.jpg,/static/Size_judgement/Stimuli/Size_stims/L/deskchair/deskchair5.jpg,0.0,deskchair,ketchup,L,M,3.0,2.0,deskchair6,ketchup8,1.0,0.0,232.352,0.35200000000000004,,
230,,size_choice_confirmation,,html-keyboard-response,230,137964,0.0-1.0-311.0-0.0,0,0,18270,,,,,,77.0,,,,,,,,,,,,,,,,,,,,,,,,,,,,,233.5,1.148,,
231,,iti,,html-keyboard-response,231,138070,0.0-1.0-312.0,0,0,18270,,,,,,,,,,,,,,,,,,,,,,,,,,,,,,,,,,,235.0,1.5,,
232,,size_choice,,html-keyboard-response,232,138452,0.0-1.0-314.0,0,0,18270,,381.0,,,75.0,78.0,78.0,2.0,3000.0,S-XL,1.0,XL,S,4.0,1.0,crane,paperclip,crane2,paperclip7,161.0,116.0,/static/Size_judgement/Stimuli/Size_stims/XL/crane/crane6.jpg,/static/Size_judgement/Stimuli/Size_stims/S/paperclip/paperclip7.jpg,0.0,paperclip,crane,S,XL,1.0,4.0,paperclip7,crane2,0.0,0.0,235.38099999999997,0.381,,
233,,size_choice_confirmation,,html-keyboard-response,233,139573,0.0-1.0-315.0-0.0,0,0,18270,,,,,,78.0,,,,,,,,,,,,,,,,,,,,,,,,,,,,,236.5,1.119,,
234,,iti,,html-keyboard-response,234,139678,0.0-1.0-316.0,0,0,18270,,,,,,,,,,,,,,,,,,,,,,,,,,,,,,,,,,,239.5,3.0,,
235,,size_choice,,html-keyboard-response,235,140030,0.0-1.0-318.0,0,0,18270,,351.0,,,75.0,79.0,79.0,2.0,3500.0,M-XL,1.0,XL,M,4.0,2.0,crane,coffeemaker,crane10,coffeemaker2,169.0,61.0,/static/Size_judgement/Stimuli/Size_stims/XL/crane/crane9.jpg,/static/Size_judgement/Stimuli/Size_stims/M/coffeemaker/coffeemaker12.jpg,0.0,coffeemaker,crane,M,XL,2.0,4.0,coffeemaker2,crane10,0.0,0.0,239.851,0.35100000000000003,,
236,,size_choice_confirmation,,html-keyboard-response,236,141184,0.0-1.0-319.0-0.0,0,0,18270,,,,,,79.0,,,,,,,,,,,,,,,,,,,,,,,,,,,,,241.0,1.149,,
237,,iti,,html-keyboard-response,237,141286,0.0-1.0-320.0,0,0,18270,,,,,,,,,,,,,,,,,,,,,,,,,,,,,,,,,,,244.5,3.5,,
238,,size_choice,,html-keyboard-response,238,141778,0.0-1.0-322.0,0,0,18270,,491.0,,,75.0,80.0,80.0,2.0,3000.0,S-L,1.0,L,S,3.0,1.0,mailbox,screws,mailbox4,screws1,43.0,120.0,/static/Size_judgement/Stimuli/Size_stims/L/mailbox/mailbox5.jpg,/static/Size_judgement/Stimuli/Size_stims/S/screws/screws4.jpg,0.0,screws,mailbox,S,L,1.0,3.0,screws1,mailbox4,0.0,0.0,244.99099999999999,0.491,,
239,,size_choice_confirmation,,html-keyboard-response,239,142790,0.0-1.0-323.0-0.0,0,0,18270,,,,,,80.0,,,,,,,,,,,,,,,,,,,,,,,,,,,,,246.0,1.0090000000000001,,
240,,iti,,html-keyboard-response,240,142896,0.0-1.0-324.0,0,0,18270,,,,,,,,,,,,,,,,,,,,,,,,,,,,,,,,,,,249.0,3.0,,
241,,size_choice,,html-keyboard-response,241,143270,0.0-1.0-326.0,0,0,18270,,372.0,,,68.0,81.0,81.0,2.0,1000.0,S-L,1.0,L,S,3.0,1.0,dishwasher,teabag,dishwasher6,teabag1,25.0,130.0,/static/Size_judgement/Stimuli/Size_stims/L/dishwasher/dishwasher6.jpg,/static/Size_judgement/Stimuli/Size_stims/S/teabag/teabag9.jpg,1.0,dishwasher,teabag,L,S,3.0,1.0,dishwasher6,teabag1,1.0,0.0,249.372,0.37200000000000005,,
242,,size_choice_confirmation,,html-keyboard-response,242,144404,0.0-1.0-327.0-0.0,0,0,18270,,,,,,81.0,,,,,,,,,,,,,,,,,,,,,,,,,,,,,250.5,1.128,,
243,,iti,,html-keyboard-response,243,144507,0.0-1.0-328.0,0,0,18270,,,,,,,,,,,,,,,,,,,,,,,,,,,,,,,,,,,251.5,1.0,,
244,,size_choice,,html-keyboard-response,244,144908,0.0-1.0-330.0,0,0,18270,,400.0,,,75.0,82.0,82.0,2.0,1000.0,M-L,1.0,L,M,3.0,2.0,garbagecan,basketball,garbagecan5,basketball1,34.0,50.0,/static/Size_judgement/Stimuli/Size_stims/L/garbagecan/garbagecan3.jpg,/static/Size_judgement/Stimuli/Size_stims/M/basketball/basketball9.jpg,0.0,basketball,garbagecan,M,L,2.0,3.0,basketball1,garbagecan5,0.0,0.0,251.9,0.4,,
245,,size_choice_confirmation,,html-keyboard-response,245,146010,0.0-1.0-331.0-0.0,0,0,18270,,,,,,82.0,,,,,,,,,,,,,,,,,,,,,,,,,,,,,253.0,1.1,,
246,,iti,,html-keyboard-response,246,146111,0.0-1.0-332.0,0,0,18270,,,,,,,,,,,,,,,,,,,,,,,,,,,,,,,,,,,254.0,1.0,,
247,,size_choice,,html-keyboard-response,247,146928,0.0-1.0-334.0,0,0,18270,,816.0,,,68.0,83.0,83.0,2.0,3000.0,S-XL,1.0,XL,S,4.0,1.0,crane,screws,crane3,screws7,162.0,126.0,/static/Size_judgement/Stimuli/Size_stims/XL/crane/crane4.jpg,/static/Size_judgement/Stimuli/Size_stims/S/screws/screws1.jpg,1.0,crane,screws,XL,S,4.0,1.0,crane3,screws7,1.0,0.0,254.81599999999997,0.816,,
248,,size_choice_confirmation,,html-keyboard-response,248,147614,0.0-1.0-335.0-0.0,0,0,18270,,,,,,83.0,,,,,,,,,,,,,,,,,,,,,,,,,,,,,255.5,0.684,,
249,,iti,,html-keyboard-response,249,147719,0.0-1.0-336.0,0,0,18270,,,,,,,,,,,,,,,,,,,,,,,,,,,,,,,,,,,258.5,3.0,,
250,,size_choice,,html-keyboard-response,250,147898,0.0-1.0-338.0,0,0,18270,,178.0,,,68.0,84.0,84.0,2.0,3500.0,S-L,1.0,L,S,3.0,1.0,deskchair,screws,deskchair9,screws3,18.0,122.0,/static/Size_judgement/Stimuli/Size_stims/L/deskchair/deskchair3.jpg,/static/Size_judgement/Stimuli/Size_stims/S/screws/screws7.jpg,1.0,deskchair,screws,L,S,3.0,1.0,deskchair9,screws3,1.0,0.0,258.678,0.17800000000000002,,
251,,size_choice_confirmation,,html-keyboard-response,251,149226,0.0-1.0-339.0-0.0,0,0,18270,,,,,,84.0,,,,,,,,,,,,,,,,,,,,,,,,,,,,,260.0,1.3219999999999998,,
252,,iti,,html-keyboard-response,252,149328,0.0-1.0-340.0,0,0,18270,,,,,,,,,,,,,,,,,,,,,,,,,,,,,,,,,,,263.5,3.5,,
253,,size_choice,,html-keyboard-response,253,149383,0.0-1.0-342.0,0,0,18270,,53.0,,,75.0,85.0,85.0,2.0,1500.0,S-L,0.0,S,L,1.0,3.0,die,mailbox,die7,mailbox2,106.0,41.0,/static/Size_judgement/Stimuli/Size_stims/S/die/die4.jpg,/static/Size_judgement/Stimuli/Size_stims/L/mailbox/mailbox2.jpg,0.0,mailbox,die,L,S,3.0,1.0,mailbox2,die7,1.0,0.0,263.553,0.053,,
254,,size_choice_confirmation,,html-keyboard-response,254,150832,0.0-1.0-343.0-0.0,0,0,18270,,,,,,85.0,,,,,,,,,,,,,,,,,,,,,,,,,,,,,265.0,1.4469999999999998,,
255,,iti,,html-keyboard-response,255,150937,0.0-1.0-344.0,0,0,18270,,,,,,,,,,,,,,,,,,,,,,,,,,,,,,,,,,,266.5,1.5,,
256,,size_choice,,html-keyboard-response,256,151242,0.0-1.0-346.0,0,0,18270,,304.0,,,68.0,86.0,86.0,2.0,1000.0,M-XL,0.0,M,XL,2.0,4.0,coffeemaker,tractor,coffeemaker9,tractor3,68.0,182.0,/static/Size_judgement/Stimuli/Size_stims/M/coffeemaker/coffeemaker7.jpg,/static/Size_judgement/Stimuli/Size_stims/XL/tractor/tractor5.jpg,1.0,coffeemaker,tractor,M,XL,2.0,4.0,coffeemaker9,tractor3,0.0,0.0,266.80400000000003,0.304,,
257,,size_choice_confirmation,,html-keyboard-response,257,152439,0.0-1.0-347.0-0.0,0,0,18270,,,,,,86.0,,,,,,,,,,,,,,,,,,,,,,,,,,,,,268.0,1.196,,
258,,iti,,html-keyboard-response,258,152543,0.0-1.0-348.0,0,0,18270,,,,,,,,,,,,,,,,,,,,,,,,,,,,,,,,,,,269.0,1.0,,
259,,size_choice,,html-keyboard-response,259,152578,0.0-1.0-350.0,0,0,18270,,34.0,,,75.0,87.0,87.0,2.0,1000.0,XL-XL,,XL,XL,4.0,4.0,van,tractor,van9,tractor1,198.0,180.0,/static/Size_judgement/Stimuli/Size_stims/XL/van/van9.jpg,/static/Size_judgement/Stimuli/Size_stims/XL/tractor/tractor6.jpg,0.0,tractor,van,XL,XL,4.0,4.0,tractor1,van9,,0.0,269.034,0.034,,
260,,size_choice_confirmation,,html-keyboard-response,260,154047,0.0-1.0-351.0-0.0,0,0,18270,,,,,,87.0,,,,,,,,,,,,,,,,,,,,,,,,,,,,,270.5,1.466,,
261,,iti,,html-keyboard-response,261,154149,0.0-1.0-352.0,0,0,18270,,,,,,,,,,,,,,,,,,,,,,,,,,,,,,,,,,,271.5,1.0,,
262,,size_choice,,html-keyboard-response,262,154185,0.0-1.0-354.0,0,0,18270,,35.0,,,68.0,88.0,88.0,2.0,1500.0,S-XL,1.0,XL,S,4.0,1.0,crane,die,crane7,die4,166.0,103.0,/static/Size_judgement/Stimuli/Size_stims/XL/crane/crane3.jpg,/static/Size_judgement/Stimuli/Size_stims/S/die/die2.jpg,1.0,crane,die,XL,S,4.0,1.0,crane7,die4,1.0,0.0,271.535,0.035,,
263,,size_choice_confirmation,,html-keyboard-response,263,155656,0.0-1.0-355.0-0.0,0,0,18270,,,,,,88.0,,,,,,,,,,,,,,,,,,,,,,,,,,,,,273.0,1.465,,
264,,iti,,html-keyboard-response,264,155762,0.0-1.0-356.0,0,0,18270,,,,,,,,,,,,,,,,,,,,,,,,,,,,,,,,,,,274.5,1.5,,
265,,size_choice,,html-keyboard-response,265,155908,0.0-1.0-358.0,0,0,18270,,145.0,,,75.0,89.0,89.0,2.0,1000.0,M-L,0.0,M,L,2.0,3.0,coffeemaker,mailbox,coffeemaker8,mailbox8,67.0,47.0,/static/Size_judgement/Stimuli/Size_stims/M/coffeemaker/coffeemaker5.jpg,/static/Size_judgement/Stimuli/Size_stims/L/mailbox/mailbox10.jpg,0.0,mailbox,coffeemaker,L,M,3.0,2.0,mailbox8,coffeemaker8,1.0,0.0,274.645,0.145,,
266,,size_choice_confirmation,,html-keyboard-response,266,157264,0.0-1.0-359.0-0.0,0,0,18270,,,,,,89.0,,,,,,,,,,,,,,,,,,,,,,,,,,,,,276.0,1.355,,
267,,iti,,html-keyboard-response,267,157370,0.0-1.0-360.0,0,0,18270,,,,,,,,,,,,,,,,,,,,,,,,,,,,,,,,,,,277.0,1.0,,3.06
268,,size_final_tally,,html-keyboard-response,268,158429,0.0-2.0,0,0,18270,,1057.0,,,68.0,,,,,,,,,,,,,,,,,,,,,,,,,,,,,,,,,
