,success,ttype,start_time,trial_type,trial_index,time_elapsed,internal_node_id,warning,missed_checkup,PID,view_history,rt,responses,repeat_instructions,key_press,index,trial_num,block,iti,pair_type,high_size_on_left,left_size_group,right_size_group,left_size_num,right_size_num,left_category,right_category,left_exemplar,right_exemplar,left_index,right_index,left_img_path,right_img_path,left_chosen,chosen_category,unchosen_category,chosen_size_group,unchosen_size_group,chosen_size_num,unchosen_size_num,chosen_exemplar,unchosen_exemplar,accuracy,onset,duration,no_response,size_final_tally
0,True,full_screen,d06062022hr2133,fullscreen,0,4253,0.0-0.0,0,0,81393,,,,,,,,,,,,,,,,,,,,,,,,,,,,,,,,,,,,,
1,,size_instructions,,instructions,1,8233,0.0-1.0-0.0-0.0,0,0,81393,"[{""page_index"":0,""viewing_time"":2887},{""page_index"":1,""viewing_time"":171},{""page_index"":2,""viewing_time"":172},{""page_index"":3,""viewing_time"":166},{""page_index"":4,""viewing_time"":180},{""page_index"":5,""viewing_time"":402}]",3978.0,,,,,,,,,,,,,,,,,,,,,,,,,,,,,,,,,,,
2,,size_comprehension_check,,survey-multi-choice,2,14082,0.0-1.0-0.0-1.0,0,0,81393,,5846.0,"{""Q0"":""True"",""Q1"":""Size in the real world"",""Q2"":""True"",""Q3"":""D for left and K for right""}",0.0,,,,,,,,,,,,,,,,,,,,,,,,,,,,,,,,,
3,,,,html-keyboard-response,3,15557,0.0-1.0-1.0,0,0,81393,,1473.0,,,68.0,,,,,,,,,,,,,,,,,,,,,,,,,,,,,,,,
4,,size_choice,,html-keyboard-response,4,15917,0.0-1.0-2.0,0,0,81393,,359.0,,,68.0,0.0,0.0,1.0,1500.0,S-M,1.0,M,S,2.0,1.0,hairdryer,paperclip,hairdryer8,paperclip1,77.0,110.0,/static/Size_judgement/Stimuli/Size_stims/M/hairdryer/hairdryer1.jpg,/static/Size_judgement/Stimuli/Size_stims/S/paperclip/paperclip9.jpg,1.0,hairdryer,paperclip,M,S,2.0,1.0,hairdryer8,paperclip1,1.0,0.359,0.359,0.0,
5,,size_choice_confirmation,,html-keyboard-response,5,17063,0.0-1.0-3.0-0.0,0,0,81393,,,,,,0.0,,1.0,,,,,,,,,,,,,,,,,,,,,,,,,,1.5,1.141,,
6,,iti,,html-keyboard-response,6,17167,0.0-1.0-4.0,0,0,81393,,,,,,0.0,,1.0,,,,,,,,,,,,,,,,,,,,,,,,,,3.0,1.5,,
7,,size_choice,,html-keyboard-response,7,17442,0.0-1.0-6.0,0,0,81393,,272.0,,,68.0,1.0,1.0,1.0,1000.0,S-XL,0.0,S,XL,1.0,4.0,die,van,die5,van5,104.0,194.0,/static/Size_judgement/Stimuli/Size_stims/S/die/die3.jpg,/static/Size_judgement/Stimuli/Size_stims/XL/van/van3.jpg,1.0,die,van,S,XL,1.0,4.0,die5,van5,0.0,3.272,0.272,0.0,
8,,size_choice_confirmation,,html-keyboard-response,8,18674,0.0-1.0-7.0-0.0,0,0,81393,,,,,,1.0,,1.0,,,,,,,,,,,,,,,,,,,,,,,,,,4.5,1.228,,
9,,iti,,html-keyboard-response,9,18779,0.0-1.0-8.0,0,0,81393,,,,,,1.0,,1.0,,,,,,,,,,,,,,,,,,,,,,,,,,5.5,1.0,,
10,,size_choice,,html-keyboard-response,10,18789,0.0-1.0-10.0,0,0,81393,,7.0,,,68.0,2.0,2.0,1.0,1000.0,S-L,1.0,L,S,3.0,1.0,dishwasher,thread,dishwasher8,thread1,27.0,140.0,/static/Size_judgement/Stimuli/Size_stims/L/dishwasher/dishwasher3.jpg,/static/Size_judgement/Stimuli/Size_stims/S/thread/thread7.jpg,1.0,dishwasher,thread,L,S,3.0,1.0,dishwasher8,thread1,1.0,5.507,0.007,0.0,
11,,size_choice_confirmation,,html-keyboard-response,11,20283,0.0-1.0-11.0-0.0,0,0,81393,,,,,,2.0,,1.0,,,,,,,,,,,,,,,,,,,,,,,,,,7.0,1.493,,
12,,iti,,html-keyboard-response,12,20384,0.0-1.0-12.0,0,0,81393,,,,,,2.0,,1.0,,,,,,,,,,,,,,,,,,,,,,,,,,8.0,1.0,,
13,,size_choice,,html-keyboard-response,13,20532,0.0-1.0-14.0,0,0,81393,,147.0,,,68.0,3.0,3.0,1.0,1500.0,M-XL,1.0,XL,M,4.0,2.0,van,basketball,van4,basketball9,193.0,58.0,/static/Size_judgement/Stimuli/Size_stims/XL/van/van7.jpg,/static/Size_judgement/Stimuli/Size_stims/M/basketball/basketball5.jpg,1.0,van,basketball,XL,M,4.0,2.0,van4,basketball9,1.0,8.147,0.147,0.0,
14,,size_choice_confirmation,,html-keyboard-response,14,21891,0.0-1.0-15.0-0.0,0,0,81393,,,,,,3.0,,1.0,,,,,,,,,,,,,,,,,,,,,,,,,,9.5,1.353,,
15,,iti,,html-keyboard-response,15,21996,0.0-1.0-16.0,0,0,81393,,,,,,3.0,,1.0,,,,,,,,,,,,,,,,,,,,,,,,,,11.0,1.5,,
16,,size_choice,,html-keyboard-response,16,22422,0.0-1.0-18.0,0,0,81393,,424.0,,,68.0,4.0,4.0,1.0,1500.0,M-XL,1.0,XL,M,4.0,2.0,crane,handsaw,crane4,handsaw4,163.0,83.0,/static/Size_judgement/Stimuli/Size_stims/XL/crane/crane5.jpg,/static/Size_judgement/Stimuli/Size_stims/M/handsaw/handsaw3.jpg,1.0,crane,handsaw,XL,M,4.0,2.0,crane4,handsaw4,1.0,11.424,0.424,0.0,
17,,size_choice_confirmation,,html-keyboard-response,17,23501,0.0-1.0-19.0-0.0,0,0,81393,,,,,,4.0,,1.0,,,,,,,,,,,,,,,,,,,,,,,,,,12.5,1.076,,
18,,iti,,html-keyboard-response,18,23603,0.0-1.0-20.0,0,0,81393,,,,,,4.0,,1.0,,,,,,,,,,,,,,,,,,,,,,,,,,14.0,1.5,,
19,,size_choice,,html-keyboard-response,19,23627,0.0-1.0-22.0,0,0,81393,,23.0,,,68.0,5.0,5.0,1.0,1000.0,M-L,1.0,L,M,3.0,2.0,deskchair,handsaw,deskchair9,handsaw9,18.0,88.0,/static/Size_judgement/Stimuli/Size_stims/L/deskchair/deskchair3.jpg,/static/Size_judgement/Stimuli/Size_stims/M/handsaw/handsaw6.jpg,1.0,deskchair,handsaw,L,M,3.0,2.0,deskchair9,handsaw9,1.0,14.023,0.023,0.0,
20,,size_choice_confirmation,,html-keyboard-response,20,25106,0.0-1.0-23.0-0.0,0,0,81393,,,,,,5.0,,1.0,,,,,,,,,,,,,,,,,,,,,,,,,,15.5,1.477,,
21,,iti,,html-keyboard-response,21,25208,0.0-1.0-24.0,0,0,81393,,,,,,5.0,,1.0,,,,,,,,,,,,,,,,,,,,,,,,,,16.5,1.0,,
22,,size_choice,,html-keyboard-response,22,25246,0.0-1.0-26.0,0,0,81393,,36.0,,,68.0,6.0,6.0,1.0,1500.0,M-L,0.0,M,L,2.0,3.0,coffeemaker,mailbox,coffeemaker7,mailbox7,66.0,46.0,/static/Size_judgement/Stimuli/Size_stims/M/coffeemaker/coffeemaker9.jpg,/static/Size_judgement/Stimuli/Size_stims/L/mailbox/mailbox7.jpg,1.0,coffeemaker,mailbox,M,L,2.0,3.0,coffeemaker7,mailbox7,0.0,16.536,0.036,0.0,
23,,size_choice_confirmation,,html-keyboard-response,23,26713,0.0-1.0-27.0-0.0,0,0,81393,,,,,,6.0,,1.0,,,,,,,,,,,,,,,,,,,,,,,,,,18.0,1.464,,
24,,iti,,html-keyboard-response,24,26818,0.0-1.0-28.0,0,0,81393,,,,,,6.0,,1.0,,,,,,,,,,,,,,,,,,,,,,,,,,19.5,1.5,,
25,,size_choice,,html-keyboard-response,25,26945,0.0-1.0-30.0,0,0,81393,,126.0,,,68.0,7.0,7.0,1.0,1500.0,M-L,1.0,L,M,3.0,2.0,deskchair,ketchup,deskchair10,ketchup3,19.0,92.0,/static/Size_judgement/Stimuli/Size_stims/L/deskchair/deskchair2.jpg,/static/Size_judgement/Stimuli/Size_stims/M/ketchup/ketchup10.jpg,1.0,deskchair,ketchup,L,M,3.0,2.0,deskchair10,ketchup3,1.0,19.626,0.126,0.0,
26,,size_choice_confirmation,,html-keyboard-response,26,28322,0.0-1.0-31.0-0.0,0,0,81393,,,,,,7.0,,1.0,,,,,,,,,,,,,,,,,,,,,,,,,,21.0,1.374,,
27,,iti,,html-keyboard-response,27,28427,0.0-1.0-32.0,0,0,81393,,,,,,7.0,,1.0,,,,,,,,,,,,,,,,,,,,,,,,,,22.5,1.5,,
28,,size_choice,,html-keyboard-response,28,28623,0.0-1.0-34.0,0,0,81393,,195.0,,,68.0,8.0,8.0,1.0,2000.0,S-L,1.0,L,S,3.0,1.0,cooler,paperclip,cooler8,paperclip3,7.0,112.0,/static/Size_judgement/Stimuli/Size_stims/L/cooler/cooler5.jpg,/static/Size_judgement/Stimuli/Size_stims/S/paperclip/paperclip1.jpg,1.0,cooler,paperclip,L,S,3.0,1.0,cooler8,paperclip3,1.0,22.695,0.195,0.0,
29,,size_choice_confirmation,,html-keyboard-response,29,29934,0.0-1.0-35.0-0.0,0,0,81393,,,,,,8.0,,1.0,,,,,,,,,,,,,,,,,,,,,,,,,,24.0,1.305,,
30,,iti,,html-keyboard-response,30,30038,0.0-1.0-36.0,0,0,81393,,,,,,8.0,,1.0,,,,,,,,,,,,,,,,,,,,,,,,,,26.0,2.0,,
31,,size_choice,,html-keyboard-response,31,30316,0.0-1.0-38.0,0,0,81393,,276.0,,,68.0,9.0,9.0,1.0,1500.0,M-L,0.0,M,L,2.0,3.0,basketball,garbagecan,basketball10,garbagecan5,59.0,34.0,/static/Size_judgement/Stimuli/Size_stims/M/basketball/basketball4.jpg,/static/Size_judgement/Stimuli/Size_stims/L/garbagecan/garbagecan3.jpg,1.0,basketball,garbagecan,M,L,2.0,3.0,basketball10,garbagecan5,0.0,26.276,0.276,0.0,
32,,size_choice_confirmation,,html-keyboard-response,32,31544,0.0-1.0-39.0-0.0,0,0,81393,,,,,,9.0,,1.0,,,,,,,,,,,,,,,,,,,,,,,,,,27.5,1.224,,
33,,iti,,html-keyboard-response,33,31648,0.0-1.0-40.0,0,0,81393,,,,,,9.0,,1.0,,,,,,,,,,,,,,,,,,,,,,,,,,29.0,1.5,,
34,,size_choice,,html-keyboard-response,34,31718,0.0-1.0-42.0,0,0,81393,,68.0,,,68.0,10.0,10.0,1.0,2000.0,S-L,1.0,L,S,3.0,1.0,dishwasher,teabag,dishwasher1,teabag5,20.0,134.0,/static/Size_judgement/Stimuli/Size_stims/L/dishwasher/dishwasher10.jpg,/static/Size_judgement/Stimuli/Size_stims/S/teabag/teabag2.jpg,1.0,dishwasher,teabag,L,S,3.0,1.0,dishwasher1,teabag5,1.0,29.068,0.068,0.0,
35,,size_choice_confirmation,,html-keyboard-response,35,33155,0.0-1.0-43.0-0.0,0,0,81393,,,,,,10.0,,1.0,,,,,,,,,,,,,,,,,,,,,,,,,,30.5,1.432,,
36,,iti,,html-keyboard-response,36,33258,0.0-1.0-44.0,0,0,81393,,,,,,10.0,,1.0,,,,,,,,,,,,,,,,,,,,,,,,,,32.5,2.0,,
37,,size_choice,,html-keyboard-response,37,33405,0.0-1.0-46.0,0,0,81393,,145.0,,,68.0,11.0,11.0,1.0,1000.0,S-S,,S,S,1.0,1.0,thread,die,thread10,die4,149.0,103.0,/static/Size_judgement/Stimuli/Size_stims/S/thread/thread9.jpg,/static/Size_judgement/Stimuli/Size_stims/S/die/die2.jpg,1.0,thread,die,S,S,1.0,1.0,thread10,die4,,32.645,0.145,0.0,
38,,size_choice_confirmation,,html-keyboard-response,38,34767,0.0-1.0-47.0-0.0,0,0,81393,,,,,,11.0,,1.0,,,,,,,,,,,,,,,,,,,,,,,,,,34.0,1.355,,
39,,iti,,html-keyboard-response,39,34872,0.0-1.0-48.0,0,0,81393,,,,,,11.0,,1.0,,,,,,,,,,,,,,,,,,,,,,,,,,35.0,1.0,,
40,,size_choice,,html-keyboard-response,40,34927,0.0-1.0-50.0,0,0,81393,,54.0,,,68.0,12.0,12.0,1.0,1000.0,S-XL,0.0,S,XL,1.0,4.0,teabag,crane,teabag6,crane6,135.0,165.0,/static/Size_judgement/Stimuli/Size_stims/S/teabag/teabag6.jpg,/static/Size_judgement/Stimuli/Size_stims/XL/crane/crane2.jpg,1.0,teabag,crane,S,XL,1.0,4.0,teabag6,crane6,0.0,35.054,0.054,0.0,
41,,size_choice_confirmation,,html-keyboard-response,41,36379,0.0-1.0-51.0-0.0,0,0,81393,,,,,,12.0,,1.0,,,,,,,,,,,,,,,,,,,,,,,,,,36.5,1.446,,
42,,iti,,html-keyboard-response,42,36484,0.0-1.0-52.0,0,0,81393,,,,,,12.0,,1.0,,,,,,,,,,,,,,,,,,,,,,,,,,37.5,1.0,,
43,,size_choice,,html-keyboard-response,43,36535,0.0-1.0-54.0,0,0,81393,,50.0,,,68.0,13.0,13.0,1.0,1500.0,S-M,0.0,S,M,1.0,2.0,paperclip,ketchup,paperclip2,ketchup7,111.0,96.0,/static/Size_judgement/Stimuli/Size_stims/S/paperclip/paperclip8.jpg,/static/Size_judgement/Stimuli/Size_stims/M/ketchup/ketchup4.jpg,1.0,paperclip,ketchup,S,M,1.0,2.0,paperclip2,ketchup7,0.0,37.55,0.05,0.0,
44,,size_choice_confirmation,,html-keyboard-response,44,37987,0.0-1.0-55.0-0.0,0,0,81393,,,,,,13.0,,1.0,,,,,,,,,,,,,,,,,,,,,,,,,,39.0,1.45,,
45,,iti,,html-keyboard-response,45,38094,0.0-1.0-56.0,0,0,81393,,,,,,13.0,,1.0,,,,,,,,,,,,,,,,,,,,,,,,,,40.5,1.5,,
46,,size_choice,,html-keyboard-response,46,38356,0.0-1.0-58.0,0,0,81393,,261.0,,,68.0,14.0,14.0,1.0,2000.0,S-L,0.0,S,L,1.0,3.0,thread,garbagecan,thread6,garbagecan8,145.0,37.0,/static/Size_judgement/Stimuli/Size_stims/S/thread/thread2.jpg,/static/Size_judgement/Stimuli/Size_stims/L/garbagecan/garbagecan13.jpg,1.0,thread,garbagecan,S,L,1.0,3.0,thread6,garbagecan8,0.0,40.761,0.261,0.0,
47,,size_choice_confirmation,,html-keyboard-response,47,39600,0.0-1.0-59.0-0.0,0,0,81393,,,,,,14.0,,1.0,,,,,,,,,,,,,,,,,,,,,,,,,,42.0,1.239,,
48,,iti,,html-keyboard-response,48,39705,0.0-1.0-60.0,0,0,81393,,,,,,14.0,,1.0,,,,,,,,,,,,,,,,,,,,,,,,,,44.0,2.0,,
49,,size_choice,,html-keyboard-response,49,39753,0.0-1.0-62.0,0,0,81393,,46.0,,,68.0,15.0,15.0,1.0,1000.0,S-L,0.0,S,L,1.0,3.0,screws,dishwasher,screws4,dishwasher2,123.0,21.0,/static/Size_judgement/Stimuli/Size_stims/S/screws/screws6.jpg,/static/Size_judgement/Stimuli/Size_stims/L/dishwasher/dishwasher9.jpg,1.0,screws,dishwasher,S,L,1.0,3.0,screws4,dishwasher2,0.0,44.046,0.046,0.0,
50,,size_choice_confirmation,,html-keyboard-response,50,41210,0.0-1.0-63.0-0.0,0,0,81393,,,,,,15.0,,1.0,,,,,,,,,,,,,,,,,,,,,,,,,,45.5,1.454,,
51,,iti,,html-keyboard-response,51,41312,0.0-1.0-64.0,0,0,81393,,,,,,15.0,,1.0,,,,,,,,,,,,,,,,,,,,,,,,,,46.5,1.0,,
52,,size_choice,,html-keyboard-response,52,41388,0.0-1.0-66.0,0,0,81393,,75.0,,,68.0,16.0,16.0,1.0,3000.0,XL-XL,,XL,XL,4.0,4.0,dumptruck,crane,dumptruck9,crane9,178.0,168.0,/static/Size_judgement/Stimuli/Size_stims/XL/dumptruck/dumptruck5.jpg,/static/Size_judgement/Stimuli/Size_stims/XL/crane/crane8.jpg,1.0,dumptruck,crane,XL,XL,4.0,4.0,dumptruck9,crane9,,46.575,0.075,0.0,
53,,size_choice_confirmation,,html-keyboard-response,53,42820,0.0-1.0-67.0-0.0,0,0,81393,,,,,,16.0,,1.0,,,,,,,,,,,,,,,,,,,,,,,,,,48.0,1.425,,
54,,iti,,html-keyboard-response,54,42921,0.0-1.0-68.0,0,0,81393,,,,,,16.0,,1.0,,,,,,,,,,,,,,,,,,,,,,,,,,51.0,3.0,,
55,,size_choice,,html-keyboard-response,55,43131,0.0-1.0-70.0,0,0,81393,,209.0,,,68.0,17.0,17.0,1.0,1000.0,L-L,,L,L,3.0,3.0,deskchair,mailbox,deskchair2,mailbox5,11.0,44.0,/static/Size_judgement/Stimuli/Size_stims/L/deskchair/deskchair8.jpg,/static/Size_judgement/Stimuli/Size_stims/L/mailbox/mailbox4.jpg,1.0,deskchair,mailbox,L,L,3.0,3.0,deskchair2,mailbox5,,51.209,0.209,0.0,
56,,size_choice_confirmation,,html-keyboard-response,56,44424,0.0-1.0-71.0-0.0,0,0,81393,,,,,,17.0,,1.0,,,,,,,,,,,,,,,,,,,,,,,,,,52.5,1.291,,
57,,iti,,html-keyboard-response,57,44526,0.0-1.0-72.0,0,0,81393,,,,,,17.0,,1.0,,,,,,,,,,,,,,,,,,,,,,,,,,53.5,1.0,,
58,,size_choice,,html-keyboard-response,58,44739,0.0-1.0-74.0,0,0,81393,,212.0,,,68.0,18.0,18.0,1.0,3000.0,M-XL,1.0,XL,M,4.0,2.0,van,coffeemaker,van2,coffeemaker8,191.0,67.0,/static/Size_judgement/Stimuli/Size_stims/XL/van/van4.jpg,/static/Size_judgement/Stimuli/Size_stims/M/coffeemaker/coffeemaker5.jpg,1.0,van,coffeemaker,XL,M,4.0,2.0,van2,coffeemaker8,1.0,53.712,0.212,0.0,
59,,size_choice_confirmation,,html-keyboard-response,59,46033,0.0-1.0-75.0-0.0,0,0,81393,,,,,,18.0,,1.0,,,,,,,,,,,,,,,,,,,,,,,,,,55.0,1.288,,
60,,iti,,html-keyboard-response,60,46135,0.0-1.0-76.0,0,0,81393,,,,,,18.0,,1.0,,,,,,,,,,,,,,,,,,,,,,,,,,58.0,3.0,,
61,,size_choice,,html-keyboard-response,61,46413,0.0-1.0-78.0,0,0,81393,,276.0,,,68.0,19.0,19.0,1.0,1000.0,M-XL,1.0,XL,M,4.0,2.0,tractor,handsaw,tractor6,handsaw1,185.0,80.0,/static/Size_judgement/Stimuli/Size_stims/XL/tractor/tractor3.jpg,/static/Size_judgement/Stimuli/Size_stims/M/handsaw/handsaw8.jpg,1.0,tractor,handsaw,XL,M,4.0,2.0,tractor6,handsaw1,1.0,58.276,0.276,0.0,
62,,size_choice_confirmation,,html-keyboard-response,62,47643,0.0-1.0-79.0-0.0,0,0,81393,,,,,,19.0,,1.0,,,,,,,,,,,,,,,,,,,,,,,,,,59.5,1.224,,
63,,iti,,html-keyboard-response,63,47749,0.0-1.0-80.0,0,0,81393,,,,,,19.0,,1.0,,,,,,,,,,,,,,,,,,,,,,,,,,60.5,1.0,,
64,,size_choice,,html-keyboard-response,64,47954,0.0-1.0-82.0,0,0,81393,,203.0,,,68.0,20.0,20.0,1.0,1000.0,M-XL,0.0,M,XL,2.0,4.0,hairdryer,van,hairdryer9,van1,78.0,190.0,/static/Size_judgement/Stimuli/Size_stims/M/hairdryer/hairdryer5.jpg,/static/Size_judgement/Stimuli/Size_stims/XL/van/van5.jpg,1.0,hairdryer,van,M,XL,2.0,4.0,hairdryer9,van1,0.0,60.703,0.203,0.0,
65,,size_choice_confirmation,,html-keyboard-response,65,49256,0.0-1.0-83.0-0.0,0,0,81393,,,,,,20.0,,1.0,,,,,,,,,,,,,,,,,,,,,,,,,,62.0,1.297,,
66,,iti,,html-keyboard-response,66,49358,0.0-1.0-84.0,0,0,81393,,,,,,20.0,,1.0,,,,,,,,,,,,,,,,,,,,,,,,,,63.0,1.0,,
67,,size_choice,,html-keyboard-response,67,49592,0.0-1.0-86.0,0,0,81393,,231.0,,,68.0,21.0,21.0,1.0,1000.0,S-M,0.0,S,M,1.0,2.0,die,hairdryer,die6,hairdryer4,105.0,73.0,/static/Size_judgement/Stimuli/Size_stims/S/die/die1.jpg,/static/Size_judgement/Stimuli/Size_stims/M/hairdryer/hairdryer16.jpg,1.0,die,hairdryer,S,M,1.0,2.0,die6,hairdryer4,0.0,63.231,0.231,0.0,
68,,size_choice_confirmation,,html-keyboard-response,68,50863,0.0-1.0-87.0-0.0,0,0,81393,,,,,,21.0,,1.0,,,,,,,,,,,,,,,,,,,,,,,,,,64.5,1.269,,
69,,iti,,html-keyboard-response,69,50968,0.0-1.0-88.0,0,0,81393,,,,,,21.0,,1.0,,,,,,,,,,,,,,,,,,,,,,,,,,65.5,1.0,,
70,,size_choice,,html-keyboard-response,70,51013,0.0-1.0-90.0,0,0,81393,,42.0,,,68.0,22.0,22.0,1.0,1000.0,S-L,1.0,L,S,3.0,1.0,mailbox,teabag,mailbox3,teabag8,42.0,137.0,/static/Size_judgement/Stimuli/Size_stims/L/mailbox/mailbox1.jpg,/static/Size_judgement/Stimuli/Size_stims/S/teabag/teabag7.jpg,1.0,mailbox,teabag,L,S,3.0,1.0,mailbox3,teabag8,1.0,65.542,0.042,0.0,
71,,size_choice_confirmation,,html-keyboard-response,71,52475,0.0-1.0-91.0-0.0,0,0,81393,,,,,,22.0,,1.0,,,,,,,,,,,,,,,,,,,,,,,,,,67.0,1.458,,
72,,iti,,html-keyboard-response,72,52580,0.0-1.0-92.0,0,0,81393,,,,,,22.0,,1.0,,,,,,,,,,,,,,,,,,,,,,,,,,68.0,1.0,,
73,,size_choice,,html-keyboard-response,73,52597,0.0-1.0-94.0,0,0,81393,,16.0,,,68.0,23.0,23.0,1.0,1500.0,M-XL,1.0,XL,M,4.0,2.0,tractor,basketball,tractor4,basketball4,183.0,53.0,/static/Size_judgement/Stimuli/Size_stims/XL/tractor/tractor4.jpg,/static/Size_judgement/Stimuli/Size_stims/M/basketball/basketball1.jpg,1.0,tractor,basketball,XL,M,4.0,2.0,tractor4,basketball4,1.0,68.016,0.016,0.0,
74,,size_choice_confirmation,,html-keyboard-response,74,54084,0.0-1.0-95.0-0.0,0,0,81393,,,,,,23.0,,1.0,,,,,,,,,,,,,,,,,,,,,,,,,,69.5,1.484,,
75,,iti,,html-keyboard-response,75,54185,0.0-1.0-96.0,0,0,81393,,,,,,23.0,,1.0,,,,,,,,,,,,,,,,,,,,,,,,,,71.0,1.5,,
76,,size_choice,,html-keyboard-response,76,54627,0.0-1.0-98.0,0,0,81393,,441.0,,,68.0,24.0,24.0,1.0,2000.0,S-XL,1.0,XL,S,4.0,1.0,dumptruck,die,dumptruck6,die8,175.0,107.0,/static/Size_judgement/Stimuli/Size_stims/XL/dumptruck/dumptruck2.jpg,/static/Size_judgement/Stimuli/Size_stims/S/die/die5.jpg,1.0,dumptruck,die,XL,S,4.0,1.0,dumptruck6,die8,1.0,71.441,0.441,0.0,
77,,size_choice_confirmation,,html-keyboard-response,77,55689,0.0-1.0-99.0-0.0,0,0,81393,,,,,,24.0,,1.0,,,,,,,,,,,,,,,,,,,,,,,,,,72.5,1.059,,
78,,iti,,html-keyboard-response,78,55790,0.0-1.0-100.0,0,0,81393,,,,,,24.0,,1.0,,,,,,,,,,,,,,,,,,,,,,,,,,74.5,2.0,,
79,,size_choice,,html-keyboard-response,79,56106,0.0-1.0-102.0,0,0,81393,,313.0,,,68.0,25.0,25.0,1.0,1000.0,S-XL,1.0,XL,S,4.0,1.0,van,die,van10,die10,199.0,109.0,/static/Size_judgement/Stimuli/Size_stims/XL/van/van8.jpg,/static/Size_judgement/Stimuli/Size_stims/S/die/die6.jpg,1.0,van,die,XL,S,4.0,1.0,van10,die10,1.0,74.813,0.313,0.0,
80,,size_choice_confirmation,,html-keyboard-response,80,57295,0.0-1.0-103.0-0.0,0,0,81393,,,,,,25.0,,1.0,,,,,,,,,,,,,,,,,,,,,,,,,,76.0,1.187,,
81,,iti,,html-keyboard-response,81,57395,0.0-1.0-104.0,0,0,81393,,,,,,25.0,,1.0,,,,,,,,,,,,,,,,,,,,,,,,,,77.0,1.0,,
82,,size_choice,,html-keyboard-response,82,57750,0.0-1.0-106.0,0,0,81393,,353.0,,,68.0,26.0,26.0,1.0,2000.0,M-M,,M,M,2.0,2.0,coffeemaker,hairdryer,coffeemaker5,hairdryer1,64.0,70.0,/static/Size_judgement/Stimuli/Size_stims/M/coffeemaker/coffeemaker10.jpg,/static/Size_judgement/Stimuli/Size_stims/M/hairdryer/hairdryer11.jpg,1.0,coffeemaker,hairdryer,M,M,2.0,2.0,coffeemaker5,hairdryer1,,77.353,0.353,0.0,
83,,size_choice_confirmation,,html-keyboard-response,83,58900,0.0-1.0-107.0-0.0,0,0,81393,,,,,,26.0,,1.0,,,,,,,,,,,,,,,,,,,,,,,,,,78.5,1.147,,
84,,iti,,html-keyboard-response,84,59001,0.0-1.0-108.0,0,0,81393,,,,,,26.0,,1.0,,,,,,,,,,,,,,,,,,,,,,,,,,80.5,2.0,,
85,,size_choice,,html-keyboard-response,85,59365,0.0-1.0-110.0,0,0,81393,,363.0,,,68.0,27.0,27.0,1.0,3000.0,XL-XL,,XL,XL,4.0,4.0,car,dumptruck,car7,dumptruck2,156.0,171.0,/static/Size_judgement/Stimuli/Size_stims/XL/car/car13.jpg,/static/Size_judgement/Stimuli/Size_stims/XL/dumptruck/dumptruck8.jpg,1.0,car,dumptruck,XL,XL,4.0,4.0,car7,dumptruck2,,80.863,0.363,0.0,
86,,size_choice_confirmation,,html-keyboard-response,86,60503,0.0-1.0-111.0-0.0,0,0,81393,,,,,,27.0,,1.0,,,,,,,,,,,,,,,,,,,,,,,,,,82.0,1.137,,
87,,iti,,html-keyboard-response,87,60606,0.0-1.0-112.0,0,0,81393,,,,,,27.0,,1.0,,,,,,,,,,,,,,,,,,,,,,,,,,85.0,3.0,,
88,,size_choice,,html-keyboard-response,88,60991,0.0-1.0-114.0,0,0,81393,,384.0,,,68.0,28.0,28.0,1.0,1000.0,M-L,1.0,L,M,3.0,2.0,mailbox,ketchup,mailbox2,ketchup6,41.0,95.0,/static/Size_judgement/Stimuli/Size_stims/L/mailbox/mailbox2.jpg,/static/Size_judgement/Stimuli/Size_stims/M/ketchup/ketchup1.jpg,1.0,mailbox,ketchup,L,M,3.0,2.0,mailbox2,ketchup6,1.0,85.384,0.384,0.0,
89,,size_choice_confirmation,,html-keyboard-response,89,62109,0.0-1.0-115.0-0.0,0,0,81393,,,,,,28.0,,1.0,,,,,,,,,,,,,,,,,,,,,,,,,,86.5,1.116,,
90,,iti,,html-keyboard-response,90,62215,0.0-1.0-116.0,0,0,81393,,,,,,28.0,,1.0,,,,,,,,,,,,,,,,,,,,,,,,,,87.5,1.0,,
91,,size_choice,,html-keyboard-response,91,62229,0.0-1.0-118.0,0,0,81393,,11.0,,,68.0,29.0,29.0,1.0,3500.0,L-XL,1.0,XL,L,4.0,3.0,van,cooler,van7,cooler5,196.0,4.0,/static/Size_judgement/Stimuli/Size_stims/XL/van/van1.jpg,/static/Size_judgement/Stimuli/Size_stims/L/cooler/cooler10.jpg,1.0,van,cooler,XL,L,4.0,3.0,van7,cooler5,1.0,87.511,0.011,0.0,
92,,size_choice_confirmation,,html-keyboard-response,92,63721,0.0-1.0-119.0-0.0,0,0,81393,,,,,,29.0,,1.0,,,,,,,,,,,,,,,,,,,,,,,,,,89.0,1.489,,
93,,iti,,html-keyboard-response,93,63823,0.0-1.0-120.0,0,0,81393,,,,,,29.0,,1.0,,,,,,,,,,,,,,,,,,,,,,,,,,92.5,3.5,,
94,,size_choice,,html-keyboard-response,94,64120,0.0-1.0-122.0,0,0,81393,,295.0,,,68.0,30.0,30.0,1.0,1000.0,S-S,,S,S,1.0,1.0,paperclip,teabag,paperclip9,teabag2,118.0,131.0,/static/Size_judgement/Stimuli/Size_stims/S/paperclip/paperclip4.jpg,/static/Size_judgement/Stimuli/Size_stims/S/teabag/teabag8.jpg,1.0,paperclip,teabag,S,S,1.0,1.0,paperclip9,teabag2,,92.795,0.295,0.0,
95,,size_choice_confirmation,,html-keyboard-response,95,65327,0.0-1.0-123.0-0.0,0,0,81393,,,,,,30.0,,1.0,,,,,,,,,,,,,,,,,,,,,,,,,,94.0,1.205,,
96,,iti,,html-keyboard-response,96,65428,0.0-1.0-124.0,0,0,81393,,,,,,30.0,,1.0,,,,,,,,,,,,,,,,,,,,,,,,,,95.0,1.0,,
97,,size_choice,,html-keyboard-response,97,65930,0.0-1.0-126.0,0,0,81393,,502.0,,,68.0,31.0,31.0,1.0,1500.0,S-S,,S,S,1.0,1.0,thread,screws,thread4,screws8,143.0,127.0,/static/Size_judgement/Stimuli/Size_stims/S/thread/thread5.jpg,/static/Size_judgement/Stimuli/Size_stims/S/screws/screws10.jpg,1.0,thread,screws,S,S,1.0,1.0,thread4,screws8,,95.502,0.502,0.0,
98,,size_choice_confirmation,,html-keyboard-response,98,66932,0.0-1.0-127.0-0.0,0,0,81393,,,,,,31.0,,1.0,,,,,,,,,,,,,,,,,,,,,,,,,,96.5,0.998,,
99,,iti,,html-keyboard-response,99,67034,0.0-1.0-128.0,0,0,81393,,,,,,31.0,,1.0,,,,,,,,,,,,,,,,,,,,,,,,,,98.0,1.5,,
100,,size_choice,,html-keyboard-response,100,67076,0.0-1.0-130.0,0,0,81393,,41.0,,,68.0,32.0,32.0,1.0,2000.0,S-XL,0.0,S,XL,1.0,4.0,die,crane,die7,crane8,106.0,167.0,/static/Size_judgement/Stimuli/Size_stims/S/die/die4.jpg,/static/Size_judgement/Stimuli/Size_stims/XL/crane/crane10.jpg,1.0,die,crane,S,XL,1.0,4.0,die7,crane8,0.0,98.041,0.041,0.0,
101,,size_choice_confirmation,,html-keyboard-response,101,68537,0.0-1.0-131.0-0.0,0,0,81393,,,,,,32.0,,1.0,,,,,,,,,,,,,,,,,,,,,,,,,,99.5,1.459,,
102,,iti,,html-keyboard-response,102,68639,0.0-1.0-132.0,0,0,81393,,,,,,32.0,,1.0,,,,,,,,,,,,,,,,,,,,,,,,,,101.5,2.0,,
103,,size_choice,,html-keyboard-response,103,68701,0.0-1.0-134.0,0,0,81393,,61.0,,,68.0,33.0,33.0,1.0,1000.0,M-M,,M,M,2.0,2.0,hairdryer,handsaw,hairdryer3,handsaw3,72.0,82.0,/static/Size_judgement/Stimuli/Size_stims/M/hairdryer/hairdryer17.jpg,/static/Size_judgement/Stimuli/Size_stims/M/handsaw/handsaw2.jpg,1.0,hairdryer,handsaw,M,M,2.0,2.0,hairdryer3,handsaw3,,101.561,0.061,0.0,
104,,size_choice_confirmation,,html-keyboard-response,104,70143,0.0-1.0-135.0-0.0,0,0,81393,,,,,,33.0,,1.0,,,,,,,,,,,,,,,,,,,,,,,,,,103.0,1.439,,
105,,iti,,html-keyboard-response,105,70244,0.0-1.0-136.0,0,0,81393,,,,,,33.0,,1.0,,,,,,,,,,,,,,,,,,,,,,,,,,104.0,1.0,,
106,,size_choice,,html-keyboard-response,106,70436,0.0-1.0-138.0,0,0,81393,,191.0,,,68.0,34.0,34.0,1.0,1500.0,L-L,,L,L,3.0,3.0,garbagecan,cooler,garbagecan9,cooler1,38.0,0.0,/static/Size_judgement/Stimuli/Size_stims/L/garbagecan/garbagecan12.jpg,/static/Size_judgement/Stimuli/Size_stims/L/cooler/cooler8.jpg,1.0,garbagecan,cooler,L,L,3.0,3.0,garbagecan9,cooler1,,104.191,0.191,0.0,
107,,size_choice_confirmation,,html-keyboard-response,107,71748,0.0-1.0-139.0-0.0,0,0,81393,,,,,,34.0,,1.0,,,,,,,,,,,,,,,,,,,,,,,,,,105.5,1.309,,
108,,iti,,html-keyboard-response,108,71852,0.0-1.0-140.0,0,0,81393,,,,,,34.0,,1.0,,,,,,,,,,,,,,,,,,,,,,,,,,107.0,1.5,,
109,,size_choice,,html-keyboard-response,109,72225,0.0-1.0-142.0,0,0,81393,,371.0,,,68.0,35.0,35.0,1.0,2000.0,S-L,1.0,L,S,3.0,1.0,cooler,teabag,cooler9,teabag1,8.0,130.0,/static/Size_judgement/Stimuli/Size_stims/L/cooler/cooler7.jpg,/static/Size_judgement/Stimuli/Size_stims/S/teabag/teabag9.jpg,1.0,cooler,teabag,L,S,3.0,1.0,cooler9,teabag1,1.0,107.371,0.371,0.0,
110,,size_choice_confirmation,,html-keyboard-response,110,73359,0.0-1.0-143.0-0.0,0,0,81393,,,,,,35.0,,1.0,,,,,,,,,,,,,,,,,,,,,,,,,,108.5,1.129,,
111,,iti,,html-keyboard-response,111,73464,0.0-1.0-144.0,0,0,81393,,,,,,35.0,,1.0,,,,,,,,,,,,,,,,,,,,,,,,,,110.5,2.0,,
112,,size_choice,,html-keyboard-response,112,73994,0.0-1.0-146.0,0,0,81393,,528.0,,,68.0,36.0,36.0,1.0,3500.0,M-L,1.0,L,M,3.0,2.0,garbagecan,ketchup,garbagecan3,ketchup5,32.0,94.0,/static/Size_judgement/Stimuli/Size_stims/L/garbagecan/garbagecan7.jpg,/static/Size_judgement/Stimuli/Size_stims/M/ketchup/ketchup3.jpg,1.0,garbagecan,ketchup,L,M,3.0,2.0,garbagecan3,ketchup5,1.0,111.028,0.528,0.0,
113,,size_choice_confirmation,,html-keyboard-response,113,74969,0.0-1.0-147.0-0.0,0,0,81393,,,,,,36.0,,1.0,,,,,,,,,,,,,,,,,,,,,,,,,,112.0,0.972,,
114,,iti,,html-keyboard-response,114,75074,0.0-1.0-148.0,0,0,81393,,,,,,36.0,,1.0,,,,,,,,,,,,,,,,,,,,,,,,,,115.5,3.5,,
115,,size_choice,,html-keyboard-response,115,75263,0.0-1.0-150.0,0,0,81393,,187.0,,,68.0,37.0,37.0,1.0,1500.0,M-L,1.0,L,M,3.0,2.0,mailbox,ketchup,mailbox6,ketchup4,45.0,93.0,/static/Size_judgement/Stimuli/Size_stims/L/mailbox/mailbox6.jpg,/static/Size_judgement/Stimuli/Size_stims/M/ketchup/ketchup2.jpg,1.0,mailbox,ketchup,L,M,3.0,2.0,mailbox6,ketchup4,1.0,115.687,0.187,0.0,
116,,size_choice_confirmation,,html-keyboard-response,116,76580,0.0-1.0-151.0-0.0,0,0,81393,,,,,,37.0,,1.0,,,,,,,,,,,,,,,,,,,,,,,,,,117.0,1.313,,
117,,iti,,html-keyboard-response,117,76681,0.0-1.0-152.0,0,0,81393,,,,,,37.0,,1.0,,,,,,,,,,,,,,,,,,,,,,,,,,118.5,1.5,,
118,,size_choice,,html-keyboard-response,118,76743,0.0-1.0-154.0,0,0,81393,,59.0,,,68.0,38.0,38.0,1.0,1000.0,L-L,,L,L,3.0,3.0,mailbox,garbagecan,mailbox8,garbagecan4,47.0,33.0,/static/Size_judgement/Stimuli/Size_stims/L/mailbox/mailbox10.jpg,/static/Size_judgement/Stimuli/Size_stims/L/garbagecan/garbagecan6.jpg,1.0,mailbox,garbagecan,L,L,3.0,3.0,mailbox8,garbagecan4,,118.559,0.059,0.0,
119,,size_choice_confirmation,,html-keyboard-response,119,78185,0.0-1.0-155.0-0.0,0,0,81393,,,,,,38.0,,1.0,,,,,,,,,,,,,,,,,,,,,,,,,,120.0,1.441,,
120,,iti,,html-keyboard-response,120,78287,0.0-1.0-156.0,0,0,81393,,,,,,38.0,,1.0,,,,,,,,,,,,,,,,,,,,,,,,,,121.0,1.0,,
121,,size_choice,,html-keyboard-response,121,78345,0.0-1.0-158.0,0,0,81393,,55.0,,,68.0,39.0,39.0,1.0,1000.0,M-M,,M,M,2.0,2.0,basketball,hairdryer,basketball6,hairdryer7,55.0,76.0,/static/Size_judgement/Stimuli/Size_stims/M/basketball/basketball2.jpg,/static/Size_judgement/Stimuli/Size_stims/M/hairdryer/hairdryer3.jpg,1.0,basketball,hairdryer,M,M,2.0,2.0,basketball6,hairdryer7,,121.055,0.055,0.0,
122,,size_choice_confirmation,,html-keyboard-response,122,79794,0.0-1.0-159.0-0.0,0,0,81393,,,,,,39.0,,1.0,,,,,,,,,,,,,,,,,,,,,,,,,,122.5,1.445,,
123,,iti,,html-keyboard-response,123,79897,0.0-1.0-160.0,0,0,81393,,,,,,39.0,,1.0,,,,,,,,,,,,,,,,,,,,,,,,,,123.5,1.0,,
124,,size_choice,,html-keyboard-response,124,79973,0.0-1.0-162.0,0,0,81393,,75.0,,,68.0,40.0,40.0,1.0,3000.0,S-XL,1.0,XL,S,4.0,1.0,crane,thread,crane7,thread5,166.0,144.0,/static/Size_judgement/Stimuli/Size_stims/XL/crane/crane3.jpg,/static/Size_judgement/Stimuli/Size_stims/S/thread/thread1.jpg,1.0,crane,thread,XL,S,4.0,1.0,crane7,thread5,1.0,123.575,0.075,0.0,
125,,size_choice_confirmation,,html-keyboard-response,125,81401,0.0-1.0-163.0-0.0,0,0,81393,,,,,,40.0,,1.0,,,,,,,,,,,,,,,,,,,,,,,,,,125.0,1.425,,
126,,iti,,html-keyboard-response,126,81503,0.0-1.0-164.0,0,0,81393,,,,,,40.0,,1.0,,,,,,,,,,,,,,,,,,,,,,,,,,128.0,3.0,,
127,,size_choice,,html-keyboard-response,127,81514,0.0-1.0-166.0,0,0,81393,,10.0,,,68.0,41.0,41.0,1.0,1000.0,S-XL,0.0,S,XL,1.0,4.0,teabag,tractor,teabag7,tractor7,136.0,186.0,/static/Size_judgement/Stimuli/Size_stims/S/teabag/teabag10.jpg,/static/Size_judgement/Stimuli/Size_stims/XL/tractor/tractor2.jpg,1.0,teabag,tractor,S,XL,1.0,4.0,teabag7,tractor7,0.0,128.01,0.01,0.0,
128,,size_choice_confirmation,,html-keyboard-response,128,83005,0.0-1.0-167.0-0.0,0,0,81393,,,,,,41.0,,1.0,,,,,,,,,,,,,,,,,,,,,,,,,,129.5,1.49,,
129,,iti,,html-keyboard-response,129,83108,0.0-1.0-168.0,0,0,81393,,,,,,41.0,,1.0,,,,,,,,,,,,,,,,,,,,,,,,,,130.5,1.0,,
130,,size_choice,,html-keyboard-response,130,83383,0.0-1.0-170.0,0,0,81393,,273.0,,,68.0,42.0,42.0,1.0,1500.0,L-XL,0.0,L,XL,3.0,4.0,garbagecan,car,garbagecan10,car6,39.0,155.0,/static/Size_judgement/Stimuli/Size_stims/L/garbagecan/garbagecan11.jpg,/static/Size_judgement/Stimuli/Size_stims/XL/car/car12.jpg,1.0,garbagecan,car,L,XL,3.0,4.0,garbagecan10,car6,0.0,130.773,0.273,0.0,
131,,size_choice_confirmation,,html-keyboard-response,131,84613,0.0-1.0-171.0-0.0,0,0,81393,,,,,,42.0,,1.0,,,,,,,,,,,,,,,,,,,,,,,,,,132.0,1.227,,
132,,iti,,html-keyboard-response,132,84719,0.0-1.0-172.0,0,0,81393,,,,,,42.0,,1.0,,,,,,,,,,,,,,,,,,,,,,,,,,133.5,1.5,,
133,,size_choice,,html-keyboard-response,133,84844,0.0-1.0-174.0,0,0,81393,,124.0,,,68.0,43.0,43.0,1.0,3500.0,M-XL,1.0,XL,M,4.0,2.0,car,coffeemaker,car4,coffeemaker9,153.0,68.0,/static/Size_judgement/Stimuli/Size_stims/XL/car/car6.jpg,/static/Size_judgement/Stimuli/Size_stims/M/coffeemaker/coffeemaker7.jpg,1.0,car,coffeemaker,XL,M,4.0,2.0,car4,coffeemaker9,1.0,133.624,0.124,0.0,
134,,size_choice_confirmation,,html-keyboard-response,134,86223,0.0-1.0-175.0-0.0,0,0,81393,,,,,,43.0,,1.0,,,,,,,,,,,,,,,,,,,,,,,,,,135.0,1.376,,
135,,iti,,html-keyboard-response,135,86328,0.0-1.0-176.0,0,0,81393,,,,,,43.0,,1.0,,,,,,,,,,,,,,,,,,,,,,,,,,138.5,3.5,,
136,,size_choice,,html-keyboard-response,136,86365,0.0-1.0-178.0,0,0,81393,,36.0,,,68.0,44.0,44.0,1.0,2000.0,L-XL,0.0,L,XL,3.0,4.0,cooler,car,cooler4,car5,3.0,154.0,/static/Size_judgement/Stimuli/Size_stims/L/cooler/cooler3.jpg,/static/Size_judgement/Stimuli/Size_stims/XL/car/car11.jpg,1.0,cooler,car,L,XL,3.0,4.0,cooler4,car5,0.0,138.536,0.036,0.0,
137,,size_choice_confirmation,,html-keyboard-response,137,87834,0.0-1.0-179.0-0.0,0,0,81393,,,,,,44.0,,1.0,,,,,,,,,,,,,,,,,,,,,,,,,,140.0,1.464,,
138,,iti,,html-keyboard-response,138,87936,0.0-1.0-180.0,0,0,81393,,,,,,44.0,,1.0,,,,,,,,,,,,,,,,,,,,,,,,,,142.0,2.0,,
139,,block_over,,html-keyboard-response,139,88069,0.0-1.0-181.0-0.0,0,0,81393,,130.0,,,68.0,44.0,,,,,,,,,,,,,,,,,,,,,,,,,,,,,,,
140,,size_choice,,html-keyboard-response,140,88618,0.0-1.0-182.0,0,0,81393,,548.0,,,68.0,45.0,45.0,2.0,3500.0,S-M,0.0,S,M,1.0,2.0,screws,handsaw,screws5,handsaw6,124.0,85.0,/static/Size_judgement/Stimuli/Size_stims/S/screws/screws2.jpg,/static/Size_judgement/Stimuli/Size_stims/M/handsaw/handsaw4.jpg,1.0,screws,handsaw,S,M,1.0,2.0,screws5,handsaw6,0.0,142.548,0.548,0.0,
141,,size_choice_confirmation,,html-keyboard-response,141,89575,0.0-1.0-183.0-0.0,0,0,81393,,,,,,45.0,,2.0,,,,,,,,,,,,,,,,,,,,,,,,,,143.5,0.952,,
142,,iti,,html-keyboard-response,142,89679,0.0-1.0-184.0,0,0,81393,,,,,,45.0,,2.0,,,,,,,,,,,,,,,,,,,,,,,,,,147.0,3.5,,
143,,size_choice,,html-keyboard-response,143,89748,0.0-1.0-186.0,0,0,81393,,68.0,,,68.0,46.0,46.0,2.0,1000.0,S-S,,S,S,1.0,1.0,screws,paperclip,screws9,paperclip6,128.0,115.0,/static/Size_judgement/Stimuli/Size_stims/S/screws/screws8.jpg,/static/Size_judgement/Stimuli/Size_stims/S/paperclip/paperclip6.jpg,1.0,screws,paperclip,S,S,1.0,1.0,screws9,paperclip6,,147.068,0.068,0.0,
144,,size_choice_confirmation,,html-keyboard-response,144,91183,0.0-1.0-187.0-0.0,0,0,81393,,,,,,46.0,,2.0,,,,,,,,,,,,,,,,,,,,,,,,,,148.5,1.432,,
145,,iti,,html-keyboard-response,145,91288,0.0-1.0-188.0,0,0,81393,,,,,,46.0,,2.0,,,,,,,,,,,,,,,,,,,,,,,,,,149.5,1.0,,
146,,size_choice,,html-keyboard-response,146,91428,0.0-1.0-190.0,0,0,81393,,137.0,,,68.0,47.0,47.0,2.0,2000.0,M-XL,1.0,XL,M,4.0,2.0,crane,basketball,crane5,basketball5,164.0,54.0,/static/Size_judgement/Stimuli/Size_stims/XL/crane/crane1.jpg,/static/Size_judgement/Stimuli/Size_stims/M/basketball/basketball3.jpg,1.0,crane,basketball,XL,M,4.0,2.0,crane5,basketball5,1.0,149.637,0.137,0.0,
147,,size_choice_confirmation,,html-keyboard-response,147,92794,0.0-1.0-191.0-0.0,0,0,81393,,,,,,47.0,,2.0,,,,,,,,,,,,,,,,,,,,,,,,,,151.0,1.363,,
148,,iti,,html-keyboard-response,148,92896,0.0-1.0-192.0,0,0,81393,,,,,,47.0,,2.0,,,,,,,,,,,,,,,,,,,,,,,,,,153.0,2.0,,
149,,size_choice,,html-keyboard-response,149,93469,0.0-1.0-194.0,0,0,81393,,572.0,,,68.0,48.0,48.0,2.0,1000.0,M-L,0.0,M,L,2.0,3.0,hairdryer,mailbox,hairdryer6,mailbox10,75.0,49.0,/static/Size_judgement/Stimuli/Size_stims/M/hairdryer/hairdryer8.jpg,/static/Size_judgement/Stimuli/Size_stims/L/mailbox/mailbox8.jpg,1.0,hairdryer,mailbox,M,L,2.0,3.0,hairdryer6,mailbox10,0.0,153.572,0.572,0.0,
150,,size_choice_confirmation,,html-keyboard-response,150,94399,0.0-1.0-195.0-0.0,0,0,81393,,,,,,48.0,,2.0,,,,,,,,,,,,,,,,,,,,,,,,,,154.5,0.928,,
151,,iti,,html-keyboard-response,151,94504,0.0-1.0-196.0,0,0,81393,,,,,,48.0,,2.0,,,,,,,,,,,,,,,,,,,,,,,,,,155.5,1.0,,
152,,size_choice,,html-keyboard-response,152,94572,0.0-1.0-198.0,0,0,81393,,67.0,,,68.0,49.0,49.0,2.0,2000.0,M-XL,1.0,XL,M,4.0,2.0,tractor,coffeemaker,tractor5,coffeemaker1,184.0,60.0,/static/Size_judgement/Stimuli/Size_stims/XL/tractor/tractor1.jpg,/static/Size_judgement/Stimuli/Size_stims/M/coffeemaker/coffeemaker14.jpg,1.0,tractor,coffeemaker,XL,M,4.0,2.0,tractor5,coffeemaker1,1.0,155.567,0.067,0.0,
153,,size_choice_confirmation,,html-keyboard-response,153,96010,0.0-1.0-199.0-0.0,0,0,81393,,,,,,49.0,,2.0,,,,,,,,,,,,,,,,,,,,,,,,,,157.0,1.433,,
154,,iti,,html-keyboard-response,154,96114,0.0-1.0-200.0,0,0,81393,,,,,,49.0,,2.0,,,,,,,,,,,,,,,,,,,,,,,,,,159.0,2.0,,
155,,size_choice,,html-keyboard-response,155,96304,0.0-1.0-202.0,0,0,81393,,188.0,,,68.0,50.0,50.0,2.0,1000.0,S-XL,1.0,XL,S,4.0,1.0,car,teabag,car9,teabag10,158.0,139.0,/static/Size_judgement/Stimuli/Size_stims/XL/car/car15.jpg,/static/Size_judgement/Stimuli/Size_stims/S/teabag/teabag4.jpg,1.0,car,teabag,XL,S,4.0,1.0,car9,teabag10,1.0,159.188,0.188,0.0,
156,,size_choice_confirmation,,html-keyboard-response,156,97620,0.0-1.0-203.0-0.0,0,0,81393,,,,,,50.0,,2.0,,,,,,,,,,,,,,,,,,,,,,,,,,160.5,1.312,,
157,,iti,,html-keyboard-response,157,97722,0.0-1.0-204.0,0,0,81393,,,,,,50.0,,2.0,,,,,,,,,,,,,,,,,,,,,,,,,,161.5,1.0,,
158,,size_choice,,html-keyboard-response,158,98034,0.0-1.0-206.0,0,0,81393,,310.0,,,68.0,51.0,51.0,2.0,1500.0,XL-XL,,XL,XL,4.0,4.0,crane,car,crane10,car8,169.0,157.0,/static/Size_judgement/Stimuli/Size_stims/XL/crane/crane9.jpg,/static/Size_judgement/Stimuli/Size_stims/XL/car/car14.jpg,1.0,crane,car,XL,XL,4.0,4.0,crane10,car8,,161.81,0.31,0.0,
159,,size_choice_confirmation,,html-keyboard-response,159,99230,0.0-1.0-207.0-0.0,0,0,81393,,,,,,51.0,,2.0,,,,,,,,,,,,,,,,,,,,,,,,,,163.0,1.19,,
160,,iti,,html-keyboard-response,160,99331,0.0-1.0-208.0,0,0,81393,,,,,,51.0,,2.0,,,,,,,,,,,,,,,,,,,,,,,,,,164.5,1.5,,
161,,size_choice,,html-keyboard-response,161,99347,0.0-1.0-210.0,0,0,81393,,14.0,,,68.0,52.0,52.0,2.0,1000.0,M-L,0.0,M,L,2.0,3.0,coffeemaker,dishwasher,coffeemaker2,dishwasher3,61.0,22.0,/static/Size_judgement/Stimuli/Size_stims/M/coffeemaker/coffeemaker12.jpg,/static/Size_judgement/Stimuli/Size_stims/L/dishwasher/dishwasher8.jpg,1.0,coffeemaker,dishwasher,M,L,2.0,3.0,coffeemaker2,dishwasher3,0.0,164.514,0.014,0.0,
162,,size_choice_confirmation,,html-keyboard-response,162,100837,0.0-1.0-211.0-0.0,0,0,81393,,,,,,52.0,,2.0,,,,,,,,,,,,,,,,,,,,,,,,,,166.0,1.486,,
163,,iti,,html-keyboard-response,163,100941,0.0-1.0-212.0,0,0,81393,,,,,,52.0,,2.0,,,,,,,,,,,,,,,,,,,,,,,,,,167.0,1.0,,
164,,size_choice,,html-keyboard-response,164,101261,0.0-1.0-214.0,0,0,81393,,318.0,,,68.0,53.0,53.0,2.0,3000.0,S-L,1.0,L,S,3.0,1.0,deskchair,paperclip,deskchair4,paperclip7,13.0,116.0,/static/Size_judgement/Stimuli/Size_stims/L/deskchair/deskchair6.jpg,/static/Size_judgement/Stimuli/Size_stims/S/paperclip/paperclip7.jpg,1.0,deskchair,paperclip,L,S,3.0,1.0,deskchair4,paperclip7,1.0,167.318,0.318,0.0,
165,,size_choice_confirmation,,html-keyboard-response,165,102448,0.0-1.0-215.0-0.0,0,0,81393,,,,,,53.0,,2.0,,,,,,,,,,,,,,,,,,,,,,,,,,168.5,1.182,,
166,,iti,,html-keyboard-response,166,102554,0.0-1.0-216.0,0,0,81393,,,,,,53.0,,2.0,,,,,,,,,,,,,,,,,,,,,,,,,,171.5,3.0,,
167,,size_choice,,html-keyboard-response,167,102575,0.0-1.0-218.0,0,0,81393,,20.0,,,68.0,54.0,54.0,2.0,2000.0,S-S,,S,S,1.0,1.0,screws,paperclip,screws1,paperclip10,120.0,119.0,/static/Size_judgement/Stimuli/Size_stims/S/screws/screws4.jpg,/static/Size_judgement/Stimuli/Size_stims/S/paperclip/paperclip10.jpg,1.0,screws,paperclip,S,S,1.0,1.0,screws1,paperclip10,,171.52,0.02,0.0,
168,,size_choice_confirmation,,html-keyboard-response,168,104057,0.0-1.0-219.0-0.0,0,0,81393,,,,,,54.0,,2.0,,,,,,,,,,,,,,,,,,,,,,,,,,173.0,1.48,,
169,,iti,,html-keyboard-response,169,104159,0.0-1.0-220.0,0,0,81393,,,,,,54.0,,2.0,,,,,,,,,,,,,,,,,,,,,,,,,,175.0,2.0,,
170,,size_choice,,html-keyboard-response,170,104742,0.0-1.0-222.0,0,0,81393,,580.0,,,68.0,55.0,55.0,2.0,1500.0,M-L,1.0,L,M,3.0,2.0,dishwasher,ketchup,dishwasher5,ketchup2,24.0,91.0,/static/Size_judgement/Stimuli/Size_stims/L/dishwasher/dishwasher4.jpg,/static/Size_judgement/Stimuli/Size_stims/M/ketchup/ketchup9.jpg,1.0,dishwasher,ketchup,L,M,3.0,2.0,dishwasher5,ketchup2,1.0,175.58,0.58,0.0,
171,,size_choice_confirmation,,html-keyboard-response,171,105663,0.0-1.0-223.0-0.0,0,0,81393,,,,,,55.0,,2.0,,,,,,,,,,,,,,,,,,,,,,,,,,176.5,0.92,,
172,,iti,,html-keyboard-response,172,105765,0.0-1.0-224.0,0,0,81393,,,,,,55.0,,2.0,,,,,,,,,,,,,,,,,,,,,,,,,,178.0,1.5,,
173,,size_choice,,html-keyboard-response,173,107269,0.0-1.0-226.0,0,0,81393,,,,,,56.0,56.0,2.0,1000.0,M-L,0.0,M,L,2.0,3.0,hairdryer,deskchair,hairdryer5,deskchair3,74.0,12.0,/static/Size_judgement/Stimuli/Size_stims/M/hairdryer/hairdryer15.jpg,/static/Size_judgement/Stimuli/Size_stims/L/deskchair/deskchair10.jpg,,,,,,,,,,,179.5,1.5,1.0,
174,,iti,,html-keyboard-response,174,107370,0.0-1.0-228.0,0,0,81393,,,,,,56.0,,2.0,,,,,,,,,,,,,,,,,,,,,,,,,,180.5,1.0,,
175,,size_choice,,html-keyboard-response,175,108873,0.0-1.0-230.0,0,0,81393,,,,,,57.0,57.0,2.0,1000.0,S-XL,0.0,S,XL,1.0,4.0,thread,dumptruck,thread7,dumptruck1,146.0,170.0,/static/Size_judgement/Stimuli/Size_stims/S/thread/thread3.jpg,/static/Size_judgement/Stimuli/Size_stims/XL/dumptruck/dumptruck9.jpg,,,,,,,,,,,182.0,1.5,1.0,
176,,iti,,html-keyboard-response,176,108979,0.0-1.0-232.0,0,0,81393,,,,,,57.0,,2.0,,,,,,,,,,,,,,,,,,,,,,,,,,183.0,1.0,,
177,,size_choice,,html-keyboard-response,177,110485,0.0-1.0-234.0,0,0,81393,,,,,,58.0,58.0,2.0,1000.0,S-L,0.0,S,L,1.0,3.0,teabag,dishwasher,teabag9,dishwasher6,138.0,25.0,/static/Size_judgement/Stimuli/Size_stims/S/teabag/teabag5.jpg,/static/Size_judgement/Stimuli/Size_stims/L/dishwasher/dishwasher6.jpg,,,,,,,,,,,184.5,1.5,1.0,
178,,iti,,html-keyboard-response,178,110587,0.0-1.0-236.0,0,0,81393,,,,,,58.0,,2.0,,,,,,,,,,,,,,,,,,,,,,,,,,185.5,1.0,,
179,,size_choice,,html-keyboard-response,179,112092,0.0-1.0-238.0,0,0,81393,,,,,,59.0,59.0,2.0,1000.0,M-M,,M,M,2.0,2.0,basketball,ketchup,basketball2,ketchup10,51.0,99.0,/static/Size_judgement/Stimuli/Size_stims/M/basketball/basketball8.jpg,/static/Size_judgement/Stimuli/Size_stims/M/ketchup/ketchup6.jpg,,,,,,,,,,,187.0,1.5,1.0,
180,,iti,,html-keyboard-response,180,112197,0.0-1.0-240.0,0,0,81393,,,,,,59.0,,2.0,,,,,,,,,,,,,,,,,,,,,,,,,,188.0,1.0,,
181,,size_choice,,html-keyboard-response,181,113700,0.0-1.0-242.0,0,0,81393,,,,,,60.0,60.0,2.0,1500.0,M-XL,0.0,M,XL,2.0,4.0,ketchup,dumptruck,ketchup1,dumptruck3,90.0,172.0,/static/Size_judgement/Stimuli/Size_stims/M/ketchup/ketchup8.jpg,/static/Size_judgement/Stimuli/Size_stims/XL/dumptruck/dumptruck10.jpg,,,,,,,,,,,189.5,1.5,1.0,
182,,iti,,html-keyboard-response,182,113802,0.0-1.0-244.0,0,0,81393,,,,,,60.0,,2.0,,,,,,,,,,,,,,,,,,,,,,,,,,191.0,1.5,,
183,,size_choice,,html-keyboard-response,183,115306,0.0-1.0-246.0,0,0,81393,,,,,,61.0,61.0,2.0,1500.0,M-XL,0.0,M,XL,2.0,4.0,basketball,tractor,basketball1,tractor1,50.0,180.0,/static/Size_judgement/Stimuli/Size_stims/M/basketball/basketball9.jpg,/static/Size_judgement/Stimuli/Size_stims/XL/tractor/tractor6.jpg,,,,,,,,,,,192.5,1.5,1.0,
184,,iti,,html-keyboard-response,184,115408,0.0-1.0-248.0,0,0,81393,,,,,,61.0,,2.0,,,,,,,,,,,,,,,,,,,,,,,,,,194.0,1.5,,
185,,size_choice,,html-keyboard-response,185,116914,0.0-1.0-250.0,0,0,81393,,,,,,62.0,62.0,2.0,3000.0,L-XL,0.0,L,XL,3.0,4.0,cooler,van,cooler2,van9,1.0,198.0,/static/Size_judgement/Stimuli/Size_stims/L/cooler/cooler9.jpg,/static/Size_judgement/Stimuli/Size_stims/XL/van/van9.jpg,,,,,,,,,,,195.5,1.5,1.0,
186,,iti,,html-keyboard-response,186,117019,0.0-1.0-252.0,0,0,81393,,,,,,62.0,,2.0,,,,,,,,,,,,,,,,,,,,,,,,,,198.5,3.0,,
187,,size_choice,,html-keyboard-response,187,118522,0.0-1.0-254.0,0,0,81393,,,,,,63.0,63.0,2.0,3500.0,S-L,0.0,S,L,1.0,3.0,thread,dishwasher,thread2,dishwasher7,141.0,26.0,/static/Size_judgement/Stimuli/Size_stims/S/thread/thread6.jpg,/static/Size_judgement/Stimuli/Size_stims/L/dishwasher/dishwasher7.jpg,,,,,,,,,,,200.0,1.5,1.0,
188,,iti,,html-keyboard-response,188,118624,0.0-1.0-256.0,0,0,81393,,,,,,63.0,,2.0,,,,,,,,,,,,,,,,,,,,,,,,,,203.5,3.5,,
189,,size_choice,,html-keyboard-response,189,120127,0.0-1.0-258.0,0,0,81393,,,,,,64.0,64.0,2.0,1500.0,M-L,0.0,M,L,2.0,3.0,handsaw,cooler,handsaw8,cooler7,87.0,6.0,/static/Size_judgement/Stimuli/Size_stims/M/handsaw/handsaw7.jpg,/static/Size_judgement/Stimuli/Size_stims/L/cooler/cooler4.jpg,,,,,,,,,,,205.0,1.5,1.0,
190,,iti,,html-keyboard-response,190,120233,0.0-1.0-260.0,0,0,81393,,,,,,64.0,,2.0,,,,,,,,,,,,,,,,,,,,,,,,,,206.5,1.5,,
191,,size_choice,,html-keyboard-response,191,121738,0.0-1.0-262.0,0,0,81393,,,,,,65.0,65.0,2.0,2000.0,M-L,0.0,M,L,2.0,3.0,handsaw,mailbox,handsaw5,mailbox1,84.0,40.0,/static/Size_judgement/Stimuli/Size_stims/M/handsaw/handsaw1.jpg,/static/Size_judgement/Stimuli/Size_stims/L/mailbox/mailbox3.jpg,,,,,,,,,,,208.0,1.5,1.0,
192,,iti,,html-keyboard-response,192,121843,0.0-1.0-264.0,0,0,81393,,,,,,65.0,,2.0,,,,,,,,,,,,,,,,,,,,,,,,,,210.0,2.0,,
193,,size_choice,,html-keyboard-response,193,123348,0.0-1.0-266.0,0,0,81393,,,,,,66.0,66.0,2.0,1000.0,M-XL,1.0,XL,M,4.0,2.0,car,ketchup,car10,ketchup8,159.0,97.0,/static/Size_judgement/Stimuli/Size_stims/XL/car/car9.jpg,/static/Size_judgement/Stimuli/Size_stims/M/ketchup/ketchup5.jpg,,,,,,,,,,,211.5,1.5,1.0,
194,,iti,,html-keyboard-response,194,123450,0.0-1.0-268.0,0,0,81393,,,,,,66.0,,2.0,,,,,,,,,,,,,,,,,,,,,,,,,,212.5,1.0,,
195,,size_choice,,html-keyboard-response,195,124954,0.0-1.0-270.0,0,0,81393,,,,,,67.0,67.0,2.0,1000.0,S-L,1.0,L,S,3.0,1.0,deskchair,thread,deskchair6,thread3,15.0,142.0,/static/Size_judgement/Stimuli/Size_stims/L/deskchair/deskchair5.jpg,/static/Size_judgement/Stimuli/Size_stims/S/thread/thread4.jpg,,,,,,,,,,,214.0,1.5,1.0,
196,,iti,,html-keyboard-response,196,125057,0.0-1.0-272.0,0,0,81393,,,,,,67.0,,2.0,,,,,,,,,,,,,,,,,,,,,,,,,,215.0,1.0,,
197,,size_choice,,html-keyboard-response,197,126563,0.0-1.0-274.0,0,0,81393,,,,,,68.0,68.0,2.0,2000.0,S-XL,0.0,S,XL,1.0,4.0,screws,dumptruck,screws3,dumptruck4,122.0,173.0,/static/Size_judgement/Stimuli/Size_stims/S/screws/screws7.jpg,/static/Size_judgement/Stimuli/Size_stims/XL/dumptruck/dumptruck1.jpg,,,,,,,,,,,216.5,1.5,1.0,
198,,iti,,html-keyboard-response,198,126666,0.0-1.0-276.0,0,0,81393,,,,,,68.0,,2.0,,,,,,,,,,,,,,,,,,,,,,,,,,218.5,2.0,,
199,,size_choice,,html-keyboard-response,199,128170,0.0-1.0-278.0,0,0,81393,,,,,,69.0,69.0,2.0,3000.0,S-XL,0.0,S,XL,1.0,4.0,paperclip,dumptruck,paperclip8,dumptruck7,117.0,176.0,/static/Size_judgement/Stimuli/Size_stims/S/paperclip/paperclip5.jpg,/static/Size_judgement/Stimuli/Size_stims/XL/dumptruck/dumptruck6.jpg,,,,,,,,,,,220.0,1.5,1.0,
200,,iti,,html-keyboard-response,200,128271,0.0-1.0-280.0,0,0,81393,,,,,,69.0,,2.0,,,,,,,,,,,,,,,,,,,,,,,,,,223.0,3.0,,
201,,size_choice,,html-keyboard-response,201,129776,0.0-1.0-282.0,0,0,81393,,,,,,70.0,70.0,2.0,1500.0,S-L,0.0,S,L,1.0,3.0,die,deskchair,die1,deskchair8,100.0,17.0,/static/Size_judgement/Stimuli/Size_stims/S/die/die8.jpg,/static/Size_judgement/Stimuli/Size_stims/L/deskchair/deskchair1.jpg,,,,,,,,,,,224.5,1.5,1.0,
202,,iti,,html-keyboard-response,202,129878,0.0-1.0-284.0,0,0,81393,,,,,,70.0,,2.0,,,,,,,,,,,,,,,,,,,,,,,,,,226.0,1.5,,
203,,size_choice,,html-keyboard-response,203,131380,0.0-1.0-286.0,0,0,81393,,,,,,71.0,71.0,2.0,1500.0,XL-XL,,XL,XL,4.0,4.0,tractor,van,tractor3,van8,182.0,197.0,/static/Size_judgement/Stimuli/Size_stims/XL/tractor/tractor5.jpg,/static/Size_judgement/Stimuli/Size_stims/XL/van/van10.jpg,,,,,,,,,,,227.5,1.5,1.0,
204,,iti,,html-keyboard-response,204,131482,0.0-1.0-288.0,0,0,81393,,,,,,71.0,,2.0,,,,,,,,,,,,,,,,,,,,,,,,,,229.0,1.5,,
205,,size_choice,,html-keyboard-response,205,132986,0.0-1.0-290.0,0,0,81393,,,,,,72.0,72.0,2.0,1500.0,S-XL,0.0,S,XL,1.0,4.0,paperclip,dumptruck,paperclip4,dumptruck5,113.0,174.0,/static/Size_judgement/Stimuli/Size_stims/S/paperclip/paperclip3.jpg,/static/Size_judgement/Stimuli/Size_stims/XL/dumptruck/dumptruck3.jpg,,,,,,,,,,,230.5,1.5,1.0,
206,,iti,,html-keyboard-response,206,133092,0.0-1.0-292.0,0,0,81393,,,,,,72.0,,2.0,,,,,,,,,,,,,,,,,,,,,,,,,,232.0,1.5,,
207,,size_choice,,html-keyboard-response,207,134597,0.0-1.0-294.0,0,0,81393,,,,,,73.0,73.0,2.0,3000.0,M-L,0.0,M,L,2.0,3.0,coffeemaker,dishwasher,coffeemaker6,dishwasher4,65.0,23.0,/static/Size_judgement/Stimuli/Size_stims/M/coffeemaker/coffeemaker8.jpg,/static/Size_judgement/Stimuli/Size_stims/L/dishwasher/dishwasher5.jpg,,,,,,,,,,,233.5,1.5,1.0,
208,,iti,,html-keyboard-response,208,134700,0.0-1.0-296.0,0,0,81393,,,,,,73.0,,2.0,,,,,,,,,,,,,,,,,,,,,,,,,,236.5,3.0,,
209,,size_choice,,html-keyboard-response,209,136202,0.0-1.0-298.0,0,0,81393,,,,,,74.0,74.0,2.0,1500.0,S-XL,1.0,XL,S,4.0,1.0,car,die,car1,die9,150.0,108.0,/static/Size_judgement/Stimuli/Size_stims/XL/car/car2.jpg,/static/Size_judgement/Stimuli/Size_stims/S/die/die7.jpg,,,,,,,,,,,238.0,1.5,1.0,
210,,iti,,html-keyboard-response,210,136306,0.0-1.0-300.0,0,0,81393,,,,,,74.0,,2.0,,,,,,,,,,,,,,,,,,,,,,,,,,239.5,1.5,,
211,,size_choice,,html-keyboard-response,211,137813,0.0-1.0-302.0,0,0,81393,,,,,,75.0,75.0,2.0,1500.0,M-XL,1.0,XL,M,4.0,2.0,crane,handsaw,crane1,handsaw10,160.0,89.0,/static/Size_judgement/Stimuli/Size_stims/XL/crane/crane7.jpg,/static/Size_judgement/Stimuli/Size_stims/M/handsaw/handsaw10.jpg,,,,,,,,,,,241.0,1.5,1.0,
212,,iti,,html-keyboard-response,212,137914,0.0-1.0-304.0,0,0,81393,,,,,,75.0,,2.0,,,,,,,,,,,,,,,,,,,,,,,,,,242.5,1.5,,
213,,size_choice,,html-keyboard-response,213,139416,0.0-1.0-306.0,0,0,81393,,,,,,76.0,76.0,2.0,1500.0,S-XL,1.0,XL,S,4.0,1.0,tractor,screws,tractor2,screws6,181.0,125.0,/static/Size_judgement/Stimuli/Size_stims/XL/tractor/tractor7.jpg,/static/Size_judgement/Stimuli/Size_stims/S/screws/screws3.jpg,,,,,,,,,,,244.0,1.5,1.0,
214,,iti,,html-keyboard-response,214,139520,0.0-1.0-308.0,0,0,81393,,,,,,76.0,,2.0,,,,,,,,,,,,,,,,,,,,,,,,,,245.5,1.5,,
215,,size_choice,,html-keyboard-response,215,141579,0.0-1.0-310.0,0,0,81393,,,,,,77.0,77.0,2.0,2000.0,M-L,0.0,M,L,2.0,3.0,coffeemaker,deskchair,coffeemaker4,deskchair5,63.0,14.0,/static/Size_judgement/Stimuli/Size_stims/M/coffeemaker/coffeemaker11.jpg,/static/Size_judgement/Stimuli/Size_stims/L/deskchair/deskchair7.jpg,,,,,,,,,,,247.0,1.5,1.0,
216,,iti,,html-keyboard-response,216,142881,0.0-1.0-312.0,0,0,81393,,,,,,77.0,,2.0,,,,,,,,,,,,,,,,,,,,,,,,,,249.0,2.0,,
217,,size_choice,,html-keyboard-response,217,144885,0.0-1.0-314.0,0,0,81393,,,,,,78.0,78.0,2.0,1500.0,M-XL,1.0,XL,M,4.0,2.0,dumptruck,coffeemaker,dumptruck10,coffeemaker10,179.0,69.0,/static/Size_judgement/Stimuli/Size_stims/XL/dumptruck/dumptruck4.jpg,/static/Size_judgement/Stimuli/Size_stims/M/coffeemaker/coffeemaker18.jpg,,,,,,,,,,,250.5,1.5,1.0,
218,,iti,,html-keyboard-response,218,145578,0.0-1.0-316.0,0,0,81393,,,,,,78.0,,2.0,,,,,,,,,,,,,,,,,,,,,,,,,,252.0,1.5,,
219,,size_choice,,html-keyboard-response,219,147532,0.0-1.0-318.0,0,0,81393,,,,,,79.0,79.0,2.0,1000.0,L-L,,L,L,3.0,3.0,mailbox,cooler,mailbox4,cooler6,43.0,5.0,/static/Size_judgement/Stimuli/Size_stims/L/mailbox/mailbox5.jpg,/static/Size_judgement/Stimuli/Size_stims/L/cooler/cooler1.jpg,,,,,,,,,,,253.5,1.5,1.0,
220,,iti,,html-keyboard-response,220,148945,0.0-1.0-320.0,0,0,81393,,,,,,79.0,,2.0,,,,,,,,,,,,,,,,,,,,,,,,,,254.5,1.0,,
221,,size_choice,,html-keyboard-response,221,150668,0.0-1.0-322.0,0,0,81393,,,,,,80.0,80.0,2.0,1000.0,S-M,0.0,S,M,1.0,2.0,die,basketball,die3,basketball3,102.0,52.0,/static/Size_judgement/Stimuli/Size_stims/S/die/die10.jpg,/static/Size_judgement/Stimuli/Size_stims/M/basketball/basketball10.jpg,,,,,,,,,,,256.0,1.5,1.0,
222,,iti,,html-keyboard-response,222,151911,0.0-1.0-324.0,0,0,81393,,,,,,80.0,,2.0,,,,,,,,,,,,,,,,,,,,,,,,,,257.0,1.0,,
223,,size_choice,,html-keyboard-response,223,154282,0.0-1.0-326.0,0,0,81393,,,,,,81.0,81.0,2.0,2000.0,S-L,0.0,S,L,1.0,3.0,thread,garbagecan,thread9,garbagecan7,148.0,36.0,/static/Size_judgement/Stimuli/Size_stims/S/thread/thread8.jpg,/static/Size_judgement/Stimuli/Size_stims/L/garbagecan/garbagecan16.jpg,,,,,,,,,,,258.5,1.5,1.0,
224,,iti,,html-keyboard-response,224,154604,0.0-1.0-328.0,0,0,81393,,,,,,81.0,,2.0,,,,,,,,,,,,,,,,,,,,,,,,,,260.5,2.0,,
225,,size_choice,,html-keyboard-response,225,156533,0.0-1.0-330.0,0,0,81393,,,,,,82.0,82.0,2.0,2000.0,M-XL,1.0,XL,M,4.0,2.0,tractor,basketball,tractor8,basketball8,187.0,57.0,/static/Size_judgement/Stimuli/Size_stims/XL/tractor/tractor10.jpg,/static/Size_judgement/Stimuli/Size_stims/M/basketball/basketball7.jpg,,,,,,,,,,,262.0,1.5,1.0,
226,,iti,,html-keyboard-response,226,157978,0.0-1.0-332.0,0,0,81393,,,,,,82.0,,2.0,,,,,,,,,,,,,,,,,,,,,,,,,,264.0,2.0,,
227,,size_choice,,html-keyboard-response,227,159719,0.0-1.0-334.0,0,0,81393,,,,,,83.0,83.0,2.0,1000.0,S-XL,0.0,S,XL,1.0,4.0,screws,van,screws2,van3,121.0,192.0,/static/Size_judgement/Stimuli/Size_stims/S/screws/screws5.jpg,/static/Size_judgement/Stimuli/Size_stims/XL/van/van6.jpg,,,,,,,,,,,265.5,1.5,1.0,
228,,iti,,html-keyboard-response,228,160885,0.0-1.0-336.0,0,0,81393,,,,,,83.0,,2.0,,,,,,,,,,,,,,,,,,,,,,,,,,266.5,1.0,,
229,,size_choice,,html-keyboard-response,229,162568,0.0-1.0-338.0,0,0,81393,,,,,,84.0,84.0,2.0,1000.0,L-L,,L,L,3.0,3.0,cooler,dishwasher,cooler3,dishwasher9,2.0,28.0,/static/Size_judgement/Stimuli/Size_stims/L/cooler/cooler2.jpg,/static/Size_judgement/Stimuli/Size_stims/L/dishwasher/dishwasher2.jpg,,,,,,,,,,,268.0,1.5,1.0,
230,,iti,,html-keyboard-response,230,162672,0.0-1.0-340.0,0,0,81393,,,,,,84.0,,2.0,,,,,,,,,,,,,,,,,,,,,,,,,,269.0,1.0,,
231,,size_choice,,html-keyboard-response,231,164176,0.0-1.0-342.0,0,0,81393,,,,,,85.0,85.0,2.0,1000.0,M-M,,M,M,2.0,2.0,hairdryer,handsaw,hairdryer10,handsaw2,79.0,81.0,/static/Size_judgement/Stimuli/Size_stims/M/hairdryer/hairdryer6.jpg,/static/Size_judgement/Stimuli/Size_stims/M/handsaw/handsaw9.jpg,,,,,,,,,,,270.5,1.5,1.0,
232,,iti,,html-keyboard-response,232,164278,0.0-1.0-344.0,0,0,81393,,,,,,85.0,,2.0,,,,,,,,,,,,,,,,,,,,,,,,,,271.5,1.0,,
233,,size_choice,,html-keyboard-response,233,165782,0.0-1.0-346.0,0,0,81393,,,,,,86.0,86.0,2.0,1000.0,L-XL,0.0,L,XL,3.0,4.0,garbagecan,crane,garbagecan6,crane2,35.0,161.0,/static/Size_judgement/Stimuli/Size_stims/L/garbagecan/garbagecan14.jpg,/static/Size_judgement/Stimuli/Size_stims/XL/crane/crane6.jpg,,,,,,,,,,,273.0,1.5,1.0,
234,,iti,,html-keyboard-response,234,165888,0.0-1.0-348.0,0,0,81393,,,,,,86.0,,2.0,,,,,,,,,,,,,,,,,,,,,,,,,,274.0,1.0,,
235,,size_choice,,html-keyboard-response,235,167392,0.0-1.0-350.0,0,0,81393,,,,,,87.0,87.0,2.0,1000.0,XL-XL,,XL,XL,4.0,4.0,car,tractor,car2,tractor10,151.0,189.0,/static/Size_judgement/Stimuli/Size_stims/XL/car/car3.jpg,/static/Size_judgement/Stimuli/Size_stims/XL/tractor/tractor8.jpg,,,,,,,,,,,275.5,1.5,1.0,
236,,iti,,html-keyboard-response,236,167496,0.0-1.0-352.0,0,0,81393,,,,,,87.0,,2.0,,,,,,,,,,,,,,,,,,,,,,,,,,276.5,1.0,,
237,,size_choice,,html-keyboard-response,237,169000,0.0-1.0-354.0,0,0,81393,,,,,,88.0,88.0,2.0,1000.0,S-L,1.0,L,S,3.0,1.0,deskchair,screws,deskchair7,screws10,16.0,129.0,/static/Size_judgement/Stimuli/Size_stims/L/deskchair/deskchair4.jpg,/static/Size_judgement/Stimuli/Size_stims/S/screws/screws9.jpg,,,,,,,,,,,278.0,1.5,1.0,
238,,iti,,html-keyboard-response,238,169107,0.0-1.0-356.0,0,0,81393,,,,,,88.0,,2.0,,,,,,,,,,,,,,,,,,,,,,,,,,279.0,1.0,,
239,,size_choice,,html-keyboard-response,239,170614,0.0-1.0-358.0,0,0,81393,,,,,,89.0,89.0,2.0,3500.0,S-L,1.0,L,S,3.0,1.0,garbagecan,teabag,garbagecan1,teabag4,30.0,133.0,/static/Size_judgement/Stimuli/Size_stims/L/garbagecan/garbagecan4.jpg,/static/Size_judgement/Stimuli/Size_stims/S/teabag/teabag3.jpg,,,,,,,,,,,280.5,1.5,1.0,
240,,iti,,html-keyboard-response,240,170716,0.0-1.0-360.0,0,0,81393,,,,,,89.0,,2.0,,,,,,,,,,,,,,,,,,,,,,,,,,284.0,3.5,,0.37
241,,size_final_tally,,html-keyboard-response,241,241050,0.0-2.0,0,0,81393,,70333.0,,,68.0,,,,,,,,,,,,,,,,,,,,,,,,,,,,,,,,
242,,debreif_intro,,html-keyboard-response,242,241793,0.0-3.0,0,0,81393,,727.0,,,68.0,,,,,,,,,,,,,,,,,,,,,,,,,,,,,,,,
243,,debreif_age,,survey-text,243,244420,0.0-4.0,0,0,81393,,2625.0,"{""Q0"":""12""}",,,,,,,,,,,,,,,,,,,,,,,,,,,,,,,,,,
244,,debreif_gender,,survey-multi-choice,244,246252,0.0-5.0,0,0,81393,,1830.0,"{""Q0"":""Male""}",,,,,,,,,,,,,,,,,,,,,,,,,,,,,,,,,,
245,,debreif_dominant_hand,,survey-multi-choice,245,247594,0.0-6.0,0,0,81393,,1340.0,"{""Q0"":""Left""}",,,,,,,,,,,,,,,,,,,,,,,,,,,,,,,,,,
246,,debreif_native_language,,survey-multi-choice,246,248893,0.0-7.0,0,0,81393,,1298.0,"{""Q0"":""Yes""}",,,,,,,,,,,,,,,,,,,,,,,,,,,,,,,,,,
247,,debreif_fluency,,survey-likert,247,250823,0.0-8.0,0,0,81393,,1928.0,"{""Q0"":1}",,,,,,,,,,,,,,,,,,,,,,,,,,,,,,,,,,
248,,debreif_strategy_category_learning,,survey-text,248,252376,0.0-9.0,0,0,81393,,1551.0,"{""Q0"":""22""}",,,,,,,,,,,,,,,,,,,,,,,,,,,,,,,,,,
249,,debreif_strategy_old_trials,,survey-text,249,253565,0.0-10.0,0,0,81393,,1188.0,"{""Q0"":""22""}",,,,,,,,,,,,,,,,,,,,,,,,,,,,,,,,,,
250,,debreif_strategy_category_memory,,survey-text,250,254824,0.0-11.0,0,0,81393,,1259.0,"{""Q0"":""ww""}",,,,,,,,,,,,,,,,,,,,,,,,,,,,,,,,,,
251,,debreif_strategy_size,,survey-text,251,255943,0.0-12.0,0,0,81393,,1118.0,"{""Q0"":""ww""}",,,,,,,,,,,,,,,,,,,,,,,,,,,,,,,,,,
252,,debreif_strategy_rl,,survey-text,252,257123,0.0-13.0,0,0,81393,,1179.0,"{""Q0"":""ww""}",,,,,,,,,,,,,,,,,,,,,,,,,,,,,,,,,,
253,,debreif_clear_instructions,,survey-text,253,258314,0.0-14.0,0,0,81393,,1190.0,"{""Q0"":""ww""}",,,,,,,,,,,,,,,,,,,,,,,,,,,,,,,,,,
254,,debreif_end,,html-keyboard-response,254,259877,0.0-15.0,0,0,81393,,1561.0,,,32.0,,,,,,,,,,,,,,,,,,,,,,,,,,,,,,,,
