,success,ttype,start_time,trial_type,trial_index,time_elapsed,internal_node_id,warning,missed_checkup,PID,view_history,rt,responses,repeat_instructions,key_press,index,trial_num,block,iti,pair_type,high_size_on_left,left_size_group,right_size_group,left_size_num,right_size_num,left_category,right_category,left_exemplar,right_exemplar,left_index,right_index,left_img_path,right_img_path,left_chosen,chosen_category,unchosen_category,chosen_size_group,unchosen_size_group,chosen_size_num,unchosen_size_num,chosen_exemplar,unchosen_exemplar,accuracy,no_response,onset,duration,no_resposne,size_final_tally
0,True,full_screen,d05272022hr1642,fullscreen,0,3552,0.0-0.0,0,0,95248,,,,,,,,,,,,,,,,,,,,,,,,,,,,,,,,,,,,,,
1,,size_instructions,,instructions,1,65874,0.0-1.0-0.0-0.0,0,0,95248,"[{""page_index"":0,""viewing_time"":3122},{""page_index"":1,""viewing_time"":11635},{""page_index"":2,""viewing_time"":21385},{""page_index"":3,""viewing_time"":7929},{""page_index"":2,""viewing_time"":1254},{""page_index"":1,""viewing_time"":1548},{""page_index"":2,""viewing_time"":1130},{""page_index"":3,""viewing_time"":6697},{""page_index"":4,""viewing_time"":4997},{""page_index"":5,""viewing_time"":2623}]",62320.0,,,,,,,,,,,,,,,,,,,,,,,,,,,,,,,,,,,,
2,,size_comprehension_check,,survey-multi-choice,2,79563,0.0-1.0-0.0-1.0,0,0,95248,,13687.0,"{""Q0"":""True"",""Q1"":""Size in the real world"",""Q2"":""True"",""Q3"":""D for left and K for right""}",0.0,,,,,,,,,,,,,,,,,,,,,,,,,,,,,,,,,,
3,,,,html-keyboard-response,3,81083,0.0-1.0-1.0,0,0,95248,,1514.0,,,68.0,,,,,,,,,,,,,,,,,,,,,,,,,,,,,,,,,
4,,size_choice,,html-keyboard-response,4,82257,0.0-1.0-2.0,0,0,95248,,1172.0,,,68.0,0.0,0.0,1.0,2000.0,L-L,,L,L,3.0,3.0,deskchair,mailbox,deskchair10,mailbox3,19.0,42.0,/static/Size_judgement/Stimuli/Size_stims/L/deskchair/deskchair2.jpg,/static/Size_judgement/Stimuli/Size_stims/L/mailbox/mailbox1.jpg,1.0,deskchair,mailbox,L,L,3.0,3.0,deskchair10,mailbox3,,0.0,1.172,1.172,,
5,,size_choice_confirmation,,html-keyboard-response,5,82588,0.0-1.0-3.0-0.0,0,0,95248,,,,,,0.0,,,,,,,,,,,,,,,,,,,,,,,,,,,,,1.5,0.328,,
6,,iti,,html-keyboard-response,6,84593,0.0-1.0-4.0,0,0,95248,,,,,,,,,,,,,,,,,,,,,,,,,,,,,,,,,,,3.5,2.0,,
7,,size_choice,,html-keyboard-response,7,85539,0.0-1.0-6.0,0,0,95248,,944.0,,,68.0,1.0,1.0,1.0,1000.0,S-XL,1.0,XL,S,4.0,1.0,dumptruck,teabag,dumptruck9,teabag3,178.0,132.0,/static/Size_judgement/Stimuli/Size_stims/XL/dumptruck/dumptruck5.jpg,/static/Size_judgement/Stimuli/Size_stims/S/teabag/teabag1.jpg,1.0,dumptruck,teabag,XL,S,4.0,1.0,dumptruck9,teabag3,1.0,0.0,4.444,0.944,,
8,,size_choice_confirmation,,html-keyboard-response,8,86097,0.0-1.0-7.0-0.0,0,0,95248,,,,,,1.0,,,,,,,,,,,,,,,,,,,,,,,,,,,,,5.0,0.556,,
9,,iti,,html-keyboard-response,9,87100,0.0-1.0-8.0,0,0,95248,,,,,,,,,,,,,,,,,,,,,,,,,,,,,,,,,,,6.0,1.0,,
10,,size_choice,,html-keyboard-response,10,88047,0.0-1.0-10.0,0,0,95248,,946.0,,,68.0,2.0,2.0,1.0,1000.0,M-L,1.0,L,M,3.0,2.0,mailbox,ketchup,mailbox9,ketchup7,48.0,96.0,/static/Size_judgement/Stimuli/Size_stims/L/mailbox/mailbox9.jpg,/static/Size_judgement/Stimuli/Size_stims/M/ketchup/ketchup4.jpg,1.0,mailbox,ketchup,L,M,3.0,2.0,mailbox9,ketchup7,1.0,0.0,6.946,0.946,,
11,,size_choice_confirmation,,html-keyboard-response,11,88604,0.0-1.0-11.0-0.0,0,0,95248,,,,,,2.0,,,,,,,,,,,,,,,,,,,,,,,,,,,,,7.5,0.554,,
12,,iti,,html-keyboard-response,12,89607,0.0-1.0-12.0,0,0,95248,,,,,,,,,,,,,,,,,,,,,,,,,,,,,,,,,,,8.5,1.0,,
13,,size_choice,,html-keyboard-response,13,90579,0.0-1.0-14.0,0,0,95248,,971.0,,,68.0,3.0,3.0,1.0,2000.0,M-XL,1.0,XL,M,4.0,2.0,dumptruck,ketchup,dumptruck4,ketchup2,173.0,91.0,/static/Size_judgement/Stimuli/Size_stims/XL/dumptruck/dumptruck1.jpg,/static/Size_judgement/Stimuli/Size_stims/M/ketchup/ketchup9.jpg,1.0,dumptruck,ketchup,XL,M,4.0,2.0,dumptruck4,ketchup2,1.0,0.0,9.471,0.971,,
14,,size_choice_confirmation,,html-keyboard-response,14,91111,0.0-1.0-15.0-0.0,0,0,95248,,,,,,3.0,,,,,,,,,,,,,,,,,,,,,,,,,,,,,10.0,0.529,,
15,,iti,,html-keyboard-response,15,93116,0.0-1.0-16.0,0,0,95248,,,,,,,,,,,,,,,,,,,,,,,,,,,,,,,,,,,12.0,2.0,,
16,,size_choice,,html-keyboard-response,16,94367,0.0-1.0-18.0,0,0,95248,,1250.0,,,75.0,4.0,4.0,1.0,1000.0,L-XL,0.0,L,XL,3.0,4.0,garbagecan,dumptruck,garbagecan9,dumptruck7,38.0,176.0,/static/Size_judgement/Stimuli/Size_stims/L/garbagecan/garbagecan12.jpg,/static/Size_judgement/Stimuli/Size_stims/XL/dumptruck/dumptruck6.jpg,0.0,dumptruck,garbagecan,XL,L,4.0,3.0,dumptruck7,garbagecan9,1.0,0.0,13.25,1.25,,
17,,size_choice_confirmation,,html-keyboard-response,17,94620,0.0-1.0-19.0-0.0,0,0,95248,,,,,,4.0,,,,,,,,,,,,,,,,,,,,,,,,,,,,,13.5,0.25,,
18,,iti,,html-keyboard-response,18,95625,0.0-1.0-20.0,0,0,95248,,,,,,,,,,,,,,,,,,,,,,,,,,,,,,,,,,,14.5,1.0,,
19,,size_choice,,html-keyboard-response,19,96594,0.0-1.0-22.0,0,0,95248,,968.0,,,68.0,5.0,5.0,1.0,1500.0,S-L,1.0,L,S,3.0,1.0,mailbox,thread,mailbox8,thread8,47.0,147.0,/static/Size_judgement/Stimuli/Size_stims/L/mailbox/mailbox10.jpg,/static/Size_judgement/Stimuli/Size_stims/S/thread/thread10.jpg,1.0,mailbox,thread,L,S,3.0,1.0,mailbox8,thread8,1.0,0.0,15.468,0.968,,
20,,size_choice_confirmation,,html-keyboard-response,20,97132,0.0-1.0-23.0-0.0,0,0,95248,,,,,,5.0,,,,,,,,,,,,,,,,,,,,,,,,,,,,,16.0,0.532,,
21,,iti,,html-keyboard-response,21,98636,0.0-1.0-24.0,0,0,95248,,,,,,,,,,,,,,,,,,,,,,,,,,,,,,,,,,,17.5,1.5,,
22,,size_choice,,html-keyboard-response,22,99650,0.0-1.0-26.0,0,0,95248,,1013.0,,,68.0,6.0,6.0,1.0,2000.0,S-L,1.0,L,S,3.0,1.0,garbagecan,teabag,garbagecan6,teabag10,35.0,139.0,/static/Size_judgement/Stimuli/Size_stims/L/garbagecan/garbagecan14.jpg,/static/Size_judgement/Stimuli/Size_stims/S/teabag/teabag4.jpg,1.0,garbagecan,teabag,L,S,3.0,1.0,garbagecan6,teabag10,1.0,0.0,18.513,1.013,,
23,,size_choice_confirmation,,html-keyboard-response,23,100142,0.0-1.0-27.0-0.0,0,0,95248,,,,,,6.0,,,,,,,,,,,,,,,,,,,,,,,,,,,,,19.0,0.487,,
24,,iti,,html-keyboard-response,24,102145,0.0-1.0-28.0,0,0,95248,,,,,,,,,,,,,,,,,,,,,,,,,,,,,,,,,,,21.0,2.0,,
25,,size_choice,,html-keyboard-response,25,103442,0.0-1.0-30.0,0,0,95248,,1296.0,,,68.0,7.0,7.0,1.0,1000.0,M-XL,1.0,XL,M,4.0,2.0,car,ketchup,car2,ketchup5,151.0,94.0,/static/Size_judgement/Stimuli/Size_stims/XL/car/car3.jpg,/static/Size_judgement/Stimuli/Size_stims/M/ketchup/ketchup3.jpg,1.0,car,ketchup,XL,M,4.0,2.0,car2,ketchup5,1.0,0.0,22.296,1.296,,
26,,size_choice_confirmation,,html-keyboard-response,26,103649,0.0-1.0-31.0-0.0,0,0,95248,,,,,,7.0,,,,,,,,,,,,,,,,,,,,,,,,,,,,,22.5,0.204,,
27,,iti,,html-keyboard-response,27,104652,0.0-1.0-32.0,0,0,95248,,,,,,,,,,,,,,,,,,,,,,,,,,,,,,,,,,,23.5,1.0,,
28,,size_choice,,html-keyboard-response,28,105906,0.0-1.0-34.0,0,0,95248,,1252.0,,,68.0,8.0,8.0,1.0,1000.0,XL-XL,,XL,XL,4.0,4.0,van,car,van3,car4,192.0,153.0,/static/Size_judgement/Stimuli/Size_stims/XL/van/van6.jpg,/static/Size_judgement/Stimuli/Size_stims/XL/car/car6.jpg,1.0,van,car,XL,XL,4.0,4.0,van3,car4,,0.0,24.751999999999995,1.252,,
29,,size_choice_confirmation,,html-keyboard-response,29,106156,0.0-1.0-35.0-0.0,0,0,95248,,,,,,8.0,,,,,,,,,,,,,,,,,,,,,,,,,,,,,25.0,0.248,,
30,,iti,,html-keyboard-response,30,107160,0.0-1.0-36.0,0,0,95248,,,,,,,,,,,,,,,,,,,,,,,,,,,,,,,,,,,26.0,1.0,,
31,,size_choice,,html-keyboard-response,31,108475,0.0-1.0-38.0,0,0,95248,,1314.0,,,75.0,9.0,9.0,1.0,1500.0,S-XL,0.0,S,XL,1.0,4.0,teabag,dumptruck,teabag8,dumptruck8,137.0,177.0,/static/Size_judgement/Stimuli/Size_stims/S/teabag/teabag7.jpg,/static/Size_judgement/Stimuli/Size_stims/XL/dumptruck/dumptruck7.jpg,0.0,dumptruck,teabag,XL,S,4.0,1.0,dumptruck8,teabag8,1.0,0.0,27.314,1.314,,
32,,size_choice_confirmation,,html-keyboard-response,32,108663,0.0-1.0-39.0-0.0,0,0,95248,,,,,,9.0,,,,,,,,,,,,,,,,,,,,,,,,,,,,,27.5,0.186,,
33,,iti,,html-keyboard-response,33,110167,0.0-1.0-40.0,0,0,95248,,,,,,,,,,,,,,,,,,,,,,,,,,,,,,,,,,,29.0,1.5,,
34,,size_choice,,html-keyboard-response,34,111392,0.0-1.0-42.0,0,0,95248,,1224.0,,,68.0,10.0,10.0,1.0,1000.0,M-M,,M,M,2.0,2.0,handsaw,ketchup,handsaw4,ketchup9,83.0,98.0,/static/Size_judgement/Stimuli/Size_stims/M/handsaw/handsaw3.jpg,/static/Size_judgement/Stimuli/Size_stims/M/ketchup/ketchup7.jpg,1.0,handsaw,ketchup,M,M,2.0,2.0,handsaw4,ketchup9,,0.0,30.224,1.224,,
35,,size_choice_confirmation,,html-keyboard-response,35,111671,0.0-1.0-43.0-0.0,0,0,95248,,,,,,10.0,,,,,,,,,,,,,,,,,,,,,,,,,,,,,30.5,0.276,,
36,,iti,,html-keyboard-response,36,112675,0.0-1.0-44.0,0,0,95248,,,,,,,,,,,,,,,,,,,,,,,,,,,,,,,,,,,31.5,1.0,,
37,,size_choice,,html-keyboard-response,37,114039,0.0-1.0-46.0,0,0,95248,,1362.0,,,75.0,11.0,11.0,1.0,1000.0,M-L,0.0,M,L,2.0,3.0,hairdryer,garbagecan,hairdryer6,garbagecan3,75.0,32.0,/static/Size_judgement/Stimuli/Size_stims/M/hairdryer/hairdryer8.jpg,/static/Size_judgement/Stimuli/Size_stims/L/garbagecan/garbagecan7.jpg,0.0,garbagecan,hairdryer,L,M,3.0,2.0,garbagecan3,hairdryer6,1.0,0.0,32.861999999999995,1.362,,
38,,size_choice_confirmation,,html-keyboard-response,38,114183,0.0-1.0-47.0-0.0,0,0,95248,,,,,,11.0,,,,,,,,,,,,,,,,,,,,,,,,,,,,,32.99999999999999,0.138,,
39,,iti,,html-keyboard-response,39,115186,0.0-1.0-48.0,0,0,95248,,,,,,,,,,,,,,,,,,,,,,,,,,,,,,,,,,,33.99999999999999,1.0,,
40,,size_choice,,html-keyboard-response,40,116349,0.0-1.0-50.0,0,0,95248,,1163.0,,,75.0,12.0,12.0,1.0,2000.0,M-L,0.0,M,L,2.0,3.0,coffeemaker,garbagecan,coffeemaker5,garbagecan4,64.0,33.0,/static/Size_judgement/Stimuli/Size_stims/M/coffeemaker/coffeemaker10.jpg,/static/Size_judgement/Stimuli/Size_stims/L/garbagecan/garbagecan6.jpg,0.0,garbagecan,coffeemaker,L,M,3.0,2.0,garbagecan4,coffeemaker5,1.0,0.0,35.16299999999999,1.163,,
41,,size_choice_confirmation,,html-keyboard-response,41,116691,0.0-1.0-51.0-0.0,0,0,95248,,,,,,12.0,,,,,,,,,,,,,,,,,,,,,,,,,,,,,35.49999999999999,0.337,,
42,,iti,,html-keyboard-response,42,118695,0.0-1.0-52.0,0,0,95248,,,,,,,,,,,,,,,,,,,,,,,,,,,,,,,,,,,37.49999999999999,2.0,,
43,,size_choice,,html-keyboard-response,43,119621,0.0-1.0-54.0,0,0,95248,,925.0,,,75.0,13.0,13.0,1.0,1000.0,S-L,0.0,S,L,1.0,3.0,screws,garbagecan,screws10,garbagecan2,129.0,31.0,/static/Size_judgement/Stimuli/Size_stims/S/screws/screws9.jpg,/static/Size_judgement/Stimuli/Size_stims/L/garbagecan/garbagecan5.jpg,0.0,garbagecan,screws,L,S,3.0,1.0,garbagecan2,screws10,1.0,0.0,38.42499999999999,0.925,,
44,,size_choice_confirmation,,html-keyboard-response,44,120199,0.0-1.0-55.0-0.0,0,0,95248,,,,,,13.0,,,,,,,,,,,,,,,,,,,,,,,,,,,,,38.99999999999999,0.575,,
45,,iti,,html-keyboard-response,45,121202,0.0-1.0-56.0,0,0,95248,,,,,,,,,,,,,,,,,,,,,,,,,,,,,,,,,,,39.99999999999999,1.0,,
46,,size_choice,,html-keyboard-response,46,122058,0.0-1.0-58.0,0,0,95248,,856.0,,,68.0,14.0,14.0,1.0,1000.0,M-XL,1.0,XL,M,4.0,2.0,dumptruck,hairdryer,dumptruck5,hairdryer4,174.0,73.0,/static/Size_judgement/Stimuli/Size_stims/XL/dumptruck/dumptruck3.jpg,/static/Size_judgement/Stimuli/Size_stims/M/hairdryer/hairdryer16.jpg,1.0,dumptruck,hairdryer,XL,M,4.0,2.0,dumptruck5,hairdryer4,1.0,0.0,40.856,0.856,,
47,,size_choice_confirmation,,html-keyboard-response,47,122705,0.0-1.0-59.0-0.0,0,0,95248,,,,,,14.0,,,,,,,,,,,,,,,,,,,,,,,,,,,,,41.49999999999999,0.644,,
48,,iti,,html-keyboard-response,48,123708,0.0-1.0-60.0,0,0,95248,,,,,,,,,,,,,,,,,,,,,,,,,,,,,,,,,,,42.49999999999999,1.0,,
49,,size_choice,,html-keyboard-response,49,124782,0.0-1.0-62.0,0,0,95248,,1072.0,,,68.0,15.0,15.0,1.0,1000.0,S-XL,1.0,XL,S,4.0,1.0,van,screws,van5,screws1,194.0,120.0,/static/Size_judgement/Stimuli/Size_stims/XL/van/van3.jpg,/static/Size_judgement/Stimuli/Size_stims/S/screws/screws4.jpg,1.0,van,screws,XL,S,4.0,1.0,van5,screws1,1.0,0.0,43.572,1.072,,
50,,size_choice_confirmation,,html-keyboard-response,50,125212,0.0-1.0-63.0-0.0,0,0,95248,,,,,,15.0,,,,,,,,,,,,,,,,,,,,,,,,,,,,,43.99999999999999,0.428,,
51,,iti,,html-keyboard-response,51,126215,0.0-1.0-64.0,0,0,95248,,,,,,,,,,,,,,,,,,,,,,,,,,,,,,,,,,,44.99999999999999,1.0,,
52,,size_choice,,html-keyboard-response,52,127242,0.0-1.0-66.0,0,0,95248,,1025.0,,,75.0,16.0,16.0,1.0,3000.0,S-M,0.0,S,M,1.0,2.0,teabag,coffeemaker,teabag9,coffeemaker8,138.0,67.0,/static/Size_judgement/Stimuli/Size_stims/S/teabag/teabag5.jpg,/static/Size_judgement/Stimuli/Size_stims/M/coffeemaker/coffeemaker5.jpg,0.0,coffeemaker,teabag,M,S,2.0,1.0,coffeemaker8,teabag9,1.0,0.0,46.02499999999999,1.025,,
53,,size_choice_confirmation,,html-keyboard-response,53,127721,0.0-1.0-67.0-0.0,0,0,95248,,,,,,16.0,,,,,,,,,,,,,,,,,,,,,,,,,,,,,46.49999999999999,0.475,,
54,,iti,,html-keyboard-response,54,130727,0.0-1.0-68.0,0,0,95248,,,,,,,,,,,,,,,,,,,,,,,,,,,,,,,,,,,49.49999999999999,3.0,,
55,,size_choice,,html-keyboard-response,55,131513,0.0-1.0-70.0,0,0,95248,,785.0,,,68.0,17.0,17.0,1.0,1000.0,M-XL,1.0,XL,M,4.0,2.0,dumptruck,hairdryer,dumptruck10,hairdryer8,179.0,77.0,/static/Size_judgement/Stimuli/Size_stims/XL/dumptruck/dumptruck4.jpg,/static/Size_judgement/Stimuli/Size_stims/M/hairdryer/hairdryer1.jpg,1.0,dumptruck,hairdryer,XL,M,4.0,2.0,dumptruck10,hairdryer8,1.0,0.0,50.28499999999999,0.785,,
56,,size_choice_confirmation,,html-keyboard-response,56,132233,0.0-1.0-71.0-0.0,0,0,95248,,,,,,17.0,,,,,,,,,,,,,,,,,,,,,,,,,,,,,50.99999999999999,0.715,,
57,,iti,,html-keyboard-response,57,133238,0.0-1.0-72.0,0,0,95248,,,,,,,,,,,,,,,,,,,,,,,,,,,,,,,,,,,51.99999999999999,1.0,,
58,,size_choice,,html-keyboard-response,58,134023,0.0-1.0-74.0,0,0,95248,,784.0,,,75.0,18.0,18.0,1.0,1500.0,S-L,0.0,S,L,1.0,3.0,die,mailbox,die10,mailbox10,109.0,49.0,/static/Size_judgement/Stimuli/Size_stims/S/die/die6.jpg,/static/Size_judgement/Stimuli/Size_stims/L/mailbox/mailbox8.jpg,0.0,mailbox,die,L,S,3.0,1.0,mailbox10,die10,1.0,0.0,52.78399999999999,0.784,,
59,,size_choice_confirmation,,html-keyboard-response,59,134742,0.0-1.0-75.0-0.0,0,0,95248,,,,,,18.0,,,,,,,,,,,,,,,,,,,,,,,,,,,,,53.49999999999999,0.716,,
60,,iti,,html-keyboard-response,60,136247,0.0-1.0-76.0,0,0,95248,,,,,,,,,,,,,,,,,,,,,,,,,,,,,,,,,,,54.99999999999999,1.5,,
61,,size_choice,,html-keyboard-response,61,136940,0.0-1.0-78.0,0,0,95248,,692.0,,,68.0,19.0,19.0,1.0,1000.0,S-XL,1.0,XL,S,4.0,1.0,dumptruck,die,dumptruck1,die6,170.0,105.0,/static/Size_judgement/Stimuli/Size_stims/XL/dumptruck/dumptruck9.jpg,/static/Size_judgement/Stimuli/Size_stims/S/die/die1.jpg,1.0,dumptruck,die,XL,S,4.0,1.0,dumptruck1,die6,1.0,0.0,55.69199999999999,0.692,,
62,,size_choice_confirmation,,html-keyboard-response,62,137749,0.0-1.0-79.0-0.0,0,0,95248,,,,,,19.0,,,,,,,,,,,,,,,,,,,,,,,,,,,,,56.49999999999999,0.808,,
63,,iti,,html-keyboard-response,63,138751,0.0-1.0-80.0,0,0,95248,,,,,,,,,,,,,,,,,,,,,,,,,,,,,,,,,,,57.49999999999999,1.0,,
64,,size_choice,,html-keyboard-response,64,139711,0.0-1.0-82.0,0,0,95248,,960.0,,,75.0,20.0,20.0,1.0,1500.0,M-XL,0.0,M,XL,2.0,4.0,basketball,tractor,basketball7,tractor6,56.0,185.0,/static/Size_judgement/Stimuli/Size_stims/M/basketball/basketball6.jpg,/static/Size_judgement/Stimuli/Size_stims/XL/tractor/tractor3.jpg,0.0,tractor,basketball,XL,M,4.0,2.0,tractor6,basketball7,1.0,0.0,58.46,0.96,,
65,,size_choice_confirmation,,html-keyboard-response,65,140255,0.0-1.0-83.0-0.0,0,0,95248,,,,,,20.0,,,,,,,,,,,,,,,,,,,,,,,,,,,,,58.99999999999999,0.54,,
66,,iti,,html-keyboard-response,66,141756,0.0-1.0-84.0,0,0,95248,,,,,,,,,,,,,,,,,,,,,,,,,,,,,,,,,,,60.49999999999999,1.5,,
67,,size_choice,,html-keyboard-response,67,142757,0.0-1.0-86.0,0,0,95248,,1000.0,,,68.0,21.0,21.0,1.0,3000.0,M-M,,M,M,2.0,2.0,handsaw,ketchup,handsaw10,ketchup8,89.0,97.0,/static/Size_judgement/Stimuli/Size_stims/M/handsaw/handsaw10.jpg,/static/Size_judgement/Stimuli/Size_stims/M/ketchup/ketchup5.jpg,1.0,handsaw,ketchup,M,M,2.0,2.0,handsaw10,ketchup8,,0.0,61.49999999999999,1.0,,
68,,size_choice_confirmation,,html-keyboard-response,68,143261,0.0-1.0-87.0-0.0,0,0,95248,,,,,,21.0,,,,,,,,,,,,,,,,,,,,,,,,,,,,,61.99999999999999,0.5,,
69,,iti,,html-keyboard-response,69,146263,0.0-1.0-88.0,0,0,95248,,,,,,,,,,,,,,,,,,,,,,,,,,,,,,,,,,,65.0,3.0,,
70,,size_choice,,html-keyboard-response,70,147352,0.0-1.0-90.0,0,0,95248,,1087.0,,,68.0,22.0,22.0,1.0,1000.0,S-S,,S,S,1.0,1.0,thread,paperclip,thread7,paperclip1,146.0,110.0,/static/Size_judgement/Stimuli/Size_stims/S/thread/thread3.jpg,/static/Size_judgement/Stimuli/Size_stims/S/paperclip/paperclip9.jpg,1.0,thread,paperclip,S,S,1.0,1.0,thread7,paperclip1,,0.0,66.087,1.087,,
71,,size_choice_confirmation,,html-keyboard-response,71,147767,0.0-1.0-91.0-0.0,0,0,95248,,,,,,22.0,,,,,,,,,,,,,,,,,,,,,,,,,,,,,66.5,0.413,,
72,,iti,,html-keyboard-response,72,148770,0.0-1.0-92.0,0,0,95248,,,,,,,,,,,,,,,,,,,,,,,,,,,,,,,,,,,67.5,1.0,,
73,,size_choice,,html-keyboard-response,73,149705,0.0-1.0-94.0,0,0,95248,,934.0,,,68.0,23.0,23.0,1.0,1500.0,M-XL,1.0,XL,M,4.0,2.0,car,handsaw,car6,handsaw2,155.0,81.0,/static/Size_judgement/Stimuli/Size_stims/XL/car/car12.jpg,/static/Size_judgement/Stimuli/Size_stims/M/handsaw/handsaw9.jpg,1.0,car,handsaw,XL,M,4.0,2.0,car6,handsaw2,1.0,0.0,68.434,0.934,,
74,,size_choice_confirmation,,html-keyboard-response,74,150274,0.0-1.0-95.0-0.0,0,0,95248,,,,,,23.0,,,,,,,,,,,,,,,,,,,,,,,,,,,,,69.0,0.566,,
75,,iti,,html-keyboard-response,75,151778,0.0-1.0-96.0,0,0,95248,,,,,,,,,,,,,,,,,,,,,,,,,,,,,,,,,,,70.5,1.5,,
76,,size_choice,,html-keyboard-response,76,152834,0.0-1.0-98.0,0,0,95248,,1054.0,,,75.0,24.0,24.0,1.0,1500.0,S-L,0.0,S,L,1.0,3.0,die,deskchair,die3,deskchair6,102.0,15.0,/static/Size_judgement/Stimuli/Size_stims/S/die/die10.jpg,/static/Size_judgement/Stimuli/Size_stims/L/deskchair/deskchair5.jpg,0.0,deskchair,die,L,S,3.0,1.0,deskchair6,die3,1.0,0.0,71.554,1.054,,
77,,size_choice_confirmation,,html-keyboard-response,77,153282,0.0-1.0-99.0-0.0,0,0,95248,,,,,,24.0,,,,,,,,,,,,,,,,,,,,,,,,,,,,,72.0,0.446,,
78,,iti,,html-keyboard-response,78,154787,0.0-1.0-100.0,0,0,95248,,,,,,,,,,,,,,,,,,,,,,,,,,,,,,,,,,,73.5,1.5,,
79,,size_choice,,html-keyboard-response,79,155885,0.0-1.0-102.0,0,0,95248,,1097.0,,,68.0,25.0,25.0,1.0,1500.0,S-S,,S,S,1.0,1.0,paperclip,die,paperclip9,die1,118.0,100.0,/static/Size_judgement/Stimuli/Size_stims/S/paperclip/paperclip4.jpg,/static/Size_judgement/Stimuli/Size_stims/S/die/die8.jpg,1.0,paperclip,die,S,S,1.0,1.0,paperclip9,die1,,0.0,74.597,1.097,,
80,,size_choice_confirmation,,html-keyboard-response,80,156290,0.0-1.0-103.0-0.0,0,0,95248,,,,,,25.0,,,,,,,,,,,,,,,,,,,,,,,,,,,,,75.0,0.403,,
81,,iti,,html-keyboard-response,81,157794,0.0-1.0-104.0,0,0,95248,,,,,,,,,,,,,,,,,,,,,,,,,,,,,,,,,,,76.5,1.5,,
82,,size_choice,,html-keyboard-response,82,159287,0.0-1.0-106.0,0,0,95248,,1492.0,,,75.0,26.0,26.0,1.0,2000.0,M-L,0.0,M,L,2.0,3.0,basketball,deskchair,basketball4,deskchair9,53.0,18.0,/static/Size_judgement/Stimuli/Size_stims/M/basketball/basketball1.jpg,/static/Size_judgement/Stimuli/Size_stims/L/deskchair/deskchair3.jpg,0.0,deskchair,basketball,L,M,3.0,2.0,deskchair9,basketball4,1.0,0.0,77.992,1.492,,
83,,size_choice_confirmation,,html-keyboard-response,83,159296,0.0-1.0-107.0-0.0,0,0,95248,,,,,,26.0,,,,,,,,,,,,,,,,,,,,,,,,,,,,,78.0,0.008,,
84,,iti,,html-keyboard-response,84,161302,0.0-1.0-108.0,0,0,95248,,,,,,,,,,,,,,,,,,,,,,,,,,,,,,,,,,,80.0,2.0,,
85,,size_choice,,html-keyboard-response,85,162476,0.0-1.0-110.0,0,0,95248,,1173.0,,,75.0,27.0,27.0,1.0,1500.0,S-XL,0.0,S,XL,1.0,4.0,screws,crane,screws6,crane6,125.0,165.0,/static/Size_judgement/Stimuli/Size_stims/S/screws/screws3.jpg,/static/Size_judgement/Stimuli/Size_stims/XL/crane/crane2.jpg,0.0,crane,screws,XL,S,4.0,1.0,crane6,screws6,1.0,0.0,81.173,1.173,,
86,,size_choice_confirmation,,html-keyboard-response,86,162807,0.0-1.0-111.0-0.0,0,0,95248,,,,,,27.0,,,,,,,,,,,,,,,,,,,,,,,,,,,,,81.5,0.327,,
87,,iti,,html-keyboard-response,87,164311,0.0-1.0-112.0,0,0,95248,,,,,,,,,,,,,,,,,,,,,,,,,,,,,,,,,,,83.0,1.5,,
88,,size_choice,,html-keyboard-response,88,165584,0.0-1.0-114.0,0,0,95248,,1272.0,,,75.0,28.0,28.0,1.0,3000.0,M-L,0.0,M,L,2.0,3.0,coffeemaker,dishwasher,coffeemaker1,dishwasher7,60.0,26.0,/static/Size_judgement/Stimuli/Size_stims/M/coffeemaker/coffeemaker14.jpg,/static/Size_judgement/Stimuli/Size_stims/L/dishwasher/dishwasher7.jpg,0.0,dishwasher,coffeemaker,L,M,3.0,2.0,dishwasher7,coffeemaker1,1.0,0.0,84.272,1.272,,
89,,size_choice_confirmation,,html-keyboard-response,89,165815,0.0-1.0-115.0-0.0,0,0,95248,,,,,,28.0,,,,,,,,,,,,,,,,,,,,,,,,,,,,,84.5,0.228,,
90,,iti,,html-keyboard-response,90,168818,0.0-1.0-116.0,0,0,95248,,,,,,,,,,,,,,,,,,,,,,,,,,,,,,,,,,,87.5,3.0,,
91,,size_choice,,html-keyboard-response,91,170246,0.0-1.0-118.0,0,0,95248,,1427.0,,,75.0,29.0,29.0,1.0,2000.0,L-XL,0.0,L,XL,3.0,4.0,mailbox,tractor,mailbox6,tractor2,45.0,181.0,/static/Size_judgement/Stimuli/Size_stims/L/mailbox/mailbox6.jpg,/static/Size_judgement/Stimuli/Size_stims/XL/tractor/tractor7.jpg,0.0,tractor,mailbox,XL,L,4.0,3.0,tractor2,mailbox6,1.0,0.0,88.927,1.427,,
92,,size_choice_confirmation,,html-keyboard-response,92,170325,0.0-1.0-119.0-0.0,0,0,95248,,,,,,29.0,,,,,,,,,,,,,,,,,,,,,,,,,,,,,89.0,0.073,,
93,,iti,,html-keyboard-response,93,172329,0.0-1.0-120.0,0,0,95248,,,,,,,,,,,,,,,,,,,,,,,,,,,,,,,,,,,91.0,2.0,,
94,,size_choice,,html-keyboard-response,94,173429,0.0-1.0-122.0,0,0,95248,,1099.0,,,75.0,30.0,30.0,1.0,1500.0,S-XL,0.0,S,XL,1.0,4.0,teabag,crane,teabag5,crane7,134.0,166.0,/static/Size_judgement/Stimuli/Size_stims/S/teabag/teabag2.jpg,/static/Size_judgement/Stimuli/Size_stims/XL/crane/crane3.jpg,0.0,crane,teabag,XL,S,4.0,1.0,crane7,teabag5,1.0,0.0,92.099,1.099,,
95,,size_choice_confirmation,,html-keyboard-response,95,173837,0.0-1.0-123.0-0.0,0,0,95248,,,,,,30.0,,,,,,,,,,,,,,,,,,,,,,,,,,,,,92.5,0.401,,
96,,iti,,html-keyboard-response,96,175341,0.0-1.0-124.0,0,0,95248,,,,,,,,,,,,,,,,,,,,,,,,,,,,,,,,,,,94.0,1.5,,
97,,size_choice,,html-keyboard-response,97,176491,0.0-1.0-126.0,0,0,95248,,1149.0,,,75.0,31.0,31.0,1.0,3500.0,M-L,0.0,M,L,2.0,3.0,coffeemaker,cooler,coffeemaker4,cooler10,63.0,9.0,/static/Size_judgement/Stimuli/Size_stims/M/coffeemaker/coffeemaker11.jpg,/static/Size_judgement/Stimuli/Size_stims/L/cooler/cooler6.jpg,0.0,cooler,coffeemaker,L,M,3.0,2.0,cooler10,coffeemaker4,1.0,0.0,95.149,1.149,,
98,,size_choice_confirmation,,html-keyboard-response,98,176845,0.0-1.0-127.0-0.0,0,0,95248,,,,,,31.0,,,,,,,,,,,,,,,,,,,,,,,,,,,,,95.5,0.351,,
99,,iti,,html-keyboard-response,99,180349,0.0-1.0-128.0,0,0,95248,,,,,,,,,,,,,,,,,,,,,,,,,,,,,,,,,,,99.0,3.5,,
100,,size_choice,,html-keyboard-response,100,181196,0.0-1.0-130.0,0,0,95248,,846.0,,,75.0,32.0,32.0,1.0,3000.0,S-XL,0.0,S,XL,1.0,4.0,paperclip,car,paperclip4,car1,113.0,150.0,/static/Size_judgement/Stimuli/Size_stims/S/paperclip/paperclip3.jpg,/static/Size_judgement/Stimuli/Size_stims/XL/car/car2.jpg,0.0,car,paperclip,XL,S,4.0,1.0,car1,paperclip4,1.0,0.0,99.846,0.846,,
101,,size_choice_confirmation,,html-keyboard-response,101,181853,0.0-1.0-131.0-0.0,0,0,95248,,,,,,32.0,,,,,,,,,,,,,,,,,,,,,,,,,,,,,100.5,0.654,,
102,,iti,,html-keyboard-response,102,184858,0.0-1.0-132.0,0,0,95248,,,,,,,,,,,,,,,,,,,,,,,,,,,,,,,,,,,103.5,3.0,,
103,,size_choice,,html-keyboard-response,103,185924,0.0-1.0-134.0,0,0,95248,,1065.0,,,75.0,33.0,33.0,1.0,1000.0,M-M,,M,M,2.0,2.0,ketchup,hairdryer,ketchup3,hairdryer2,92.0,71.0,/static/Size_judgement/Stimuli/Size_stims/M/ketchup/ketchup10.jpg,/static/Size_judgement/Stimuli/Size_stims/M/hairdryer/hairdryer12.jpg,0.0,hairdryer,ketchup,M,M,2.0,2.0,hairdryer2,ketchup3,,0.0,104.565,1.065,,
104,,size_choice_confirmation,,html-keyboard-response,104,186365,0.0-1.0-135.0-0.0,0,0,95248,,,,,,33.0,,,,,,,,,,,,,,,,,,,,,,,,,,,,,105.0,0.435,,
105,,iti,,html-keyboard-response,105,187367,0.0-1.0-136.0,0,0,95248,,,,,,,,,,,,,,,,,,,,,,,,,,,,,,,,,,,106.0,1.0,,
106,,size_choice,,html-keyboard-response,106,188493,0.0-1.0-138.0,0,0,95248,,1124.0,,,68.0,34.0,34.0,1.0,2000.0,S-S,,S,S,1.0,1.0,teabag,screws,teabag4,screws4,133.0,123.0,/static/Size_judgement/Stimuli/Size_stims/S/teabag/teabag3.jpg,/static/Size_judgement/Stimuli/Size_stims/S/screws/screws6.jpg,1.0,teabag,screws,S,S,1.0,1.0,teabag4,screws4,,0.0,107.124,1.124,,
107,,size_choice_confirmation,,html-keyboard-response,107,188872,0.0-1.0-139.0-0.0,0,0,95248,,,,,,34.0,,,,,,,,,,,,,,,,,,,,,,,,,,,,,107.5,0.376,,
108,,iti,,html-keyboard-response,108,190877,0.0-1.0-140.0,0,0,95248,,,,,,,,,,,,,,,,,,,,,,,,,,,,,,,,,,,109.5,2.0,,
109,,size_choice,,html-keyboard-response,109,191824,0.0-1.0-142.0,0,0,95248,,947.0,,,75.0,35.0,35.0,1.0,1000.0,M-L,0.0,M,L,2.0,3.0,basketball,dishwasher,basketball6,dishwasher1,55.0,20.0,/static/Size_judgement/Stimuli/Size_stims/M/basketball/basketball2.jpg,/static/Size_judgement/Stimuli/Size_stims/L/dishwasher/dishwasher10.jpg,0.0,dishwasher,basketball,L,M,3.0,2.0,dishwasher1,basketball6,1.0,0.0,110.447,0.947,,
110,,size_choice_confirmation,,html-keyboard-response,110,192382,0.0-1.0-143.0-0.0,0,0,95248,,,,,,35.0,,,,,,,,,,,,,,,,,,,,,,,,,,,,,111.0,0.553,,
111,,iti,,html-keyboard-response,111,193386,0.0-1.0-144.0,0,0,95248,,,,,,,,,,,,,,,,,,,,,,,,,,,,,,,,,,,112.0,1.0,,
112,,size_choice,,html-keyboard-response,112,194372,0.0-1.0-146.0,0,0,95248,,986.0,,,68.0,36.0,36.0,1.0,1500.0,M-XL,1.0,XL,M,4.0,2.0,tractor,ketchup,tractor10,ketchup6,189.0,95.0,/static/Size_judgement/Stimuli/Size_stims/XL/tractor/tractor8.jpg,/static/Size_judgement/Stimuli/Size_stims/M/ketchup/ketchup1.jpg,1.0,tractor,ketchup,XL,M,4.0,2.0,tractor10,ketchup6,1.0,0.0,112.986,0.986,,
113,,size_choice_confirmation,,html-keyboard-response,113,194889,0.0-1.0-147.0-0.0,0,0,95248,,,,,,36.0,,,,,,,,,,,,,,,,,,,,,,,,,,,,,113.5,0.514,,
114,,iti,,html-keyboard-response,114,196391,0.0-1.0-148.0,0,0,95248,,,,,,,,,,,,,,,,,,,,,,,,,,,,,,,,,,,115.0,1.5,,
115,,size_choice,,html-keyboard-response,115,197328,0.0-1.0-150.0,0,0,95248,,936.0,,,75.0,37.0,37.0,1.0,3500.0,XL-XL,,XL,XL,4.0,4.0,crane,car,crane10,car8,169.0,157.0,/static/Size_judgement/Stimuli/Size_stims/XL/crane/crane9.jpg,/static/Size_judgement/Stimuli/Size_stims/XL/car/car14.jpg,0.0,car,crane,XL,XL,4.0,4.0,car8,crane10,,0.0,115.936,0.936,,
116,,size_choice_confirmation,,html-keyboard-response,116,197895,0.0-1.0-151.0-0.0,0,0,95248,,,,,,37.0,,,,,,,,,,,,,,,,,,,,,,,,,,,,,116.5,0.564,,
117,,iti,,html-keyboard-response,117,201399,0.0-1.0-152.0,0,0,95248,,,,,,,,,,,,,,,,,,,,,,,,,,,,,,,,,,,120.0,3.5,,
118,,size_choice,,html-keyboard-response,118,202705,0.0-1.0-154.0,0,0,95248,,1305.0,,,68.0,38.0,38.0,1.0,1500.0,L-L,,L,L,3.0,3.0,dishwasher,garbagecan,dishwasher5,garbagecan5,24.0,34.0,/static/Size_judgement/Stimuli/Size_stims/L/dishwasher/dishwasher4.jpg,/static/Size_judgement/Stimuli/Size_stims/L/garbagecan/garbagecan3.jpg,1.0,dishwasher,garbagecan,L,L,3.0,3.0,dishwasher5,garbagecan5,,0.0,121.305,1.305,,
119,,size_choice_confirmation,,html-keyboard-response,119,202904,0.0-1.0-155.0-0.0,0,0,95248,,,,,,38.0,,,,,,,,,,,,,,,,,,,,,,,,,,,,,121.5,0.195,,
120,,iti,,html-keyboard-response,120,204408,0.0-1.0-156.0,0,0,95248,,,,,,,,,,,,,,,,,,,,,,,,,,,,,,,,,,,123.0,1.5,,
121,,size_choice,,html-keyboard-response,121,205538,0.0-1.0-158.0,0,0,95248,,1130.0,,,68.0,39.0,39.0,1.0,2000.0,L-L,,L,L,3.0,3.0,dishwasher,cooler,dishwasher10,cooler6,29.0,5.0,/static/Size_judgement/Stimuli/Size_stims/L/dishwasher/dishwasher1.jpg,/static/Size_judgement/Stimuli/Size_stims/L/cooler/cooler1.jpg,1.0,dishwasher,cooler,L,L,3.0,3.0,dishwasher10,cooler6,,0.0,124.13,1.13,,
122,,size_choice_confirmation,,html-keyboard-response,122,205912,0.0-1.0-159.0-0.0,0,0,95248,,,,,,39.0,,,,,,,,,,,,,,,,,,,,,,,,,,,,,124.5,0.37,,
123,,iti,,html-keyboard-response,123,207917,0.0-1.0-160.0,0,0,95248,,,,,,,,,,,,,,,,,,,,,,,,,,,,,,,,,,,126.5,2.0,,
124,,size_choice,,html-keyboard-response,124,209237,0.0-1.0-162.0,0,0,95248,,1319.0,,,75.0,40.0,40.0,1.0,1500.0,S-M,0.0,S,M,1.0,2.0,screws,handsaw,screws3,handsaw3,122.0,82.0,/static/Size_judgement/Stimuli/Size_stims/S/screws/screws7.jpg,/static/Size_judgement/Stimuli/Size_stims/M/handsaw/handsaw2.jpg,0.0,handsaw,screws,M,S,2.0,1.0,handsaw3,screws3,1.0,0.0,127.819,1.319,,
125,,size_choice_confirmation,,html-keyboard-response,125,209421,0.0-1.0-163.0-0.0,0,0,95248,,,,,,40.0,,,,,,,,,,,,,,,,,,,,,,,,,,,,,128.0,0.181,,
126,,iti,,html-keyboard-response,126,210926,0.0-1.0-164.0,0,0,95248,,,,,,,,,,,,,,,,,,,,,,,,,,,,,,,,,,,129.5,1.5,,
127,,size_choice,,html-keyboard-response,127,211849,0.0-1.0-166.0,0,0,95248,,921.0,,,68.0,41.0,41.0,1.0,3500.0,S-L,1.0,L,S,3.0,1.0,deskchair,thread,deskchair5,thread6,14.0,145.0,/static/Size_judgement/Stimuli/Size_stims/L/deskchair/deskchair7.jpg,/static/Size_judgement/Stimuli/Size_stims/S/thread/thread2.jpg,1.0,deskchair,thread,L,S,3.0,1.0,deskchair5,thread6,1.0,0.0,130.421,0.921,,
128,,size_choice_confirmation,,html-keyboard-response,128,212429,0.0-1.0-167.0-0.0,0,0,95248,,,,,,41.0,,,,,,,,,,,,,,,,,,,,,,,,,,,,,131.0,0.579,,
129,,iti,,html-keyboard-response,129,215933,0.0-1.0-168.0,0,0,95248,,,,,,,,,,,,,,,,,,,,,,,,,,,,,,,,,,,134.5,3.5,,
130,,size_choice,,html-keyboard-response,130,217156,0.0-1.0-170.0,0,0,95248,,1222.0,,,75.0,42.0,42.0,1.0,1000.0,S-M,0.0,S,M,1.0,2.0,paperclip,basketball,paperclip7,basketball8,116.0,57.0,/static/Size_judgement/Stimuli/Size_stims/S/paperclip/paperclip7.jpg,/static/Size_judgement/Stimuli/Size_stims/M/basketball/basketball7.jpg,0.0,basketball,paperclip,M,S,2.0,1.0,basketball8,paperclip7,1.0,0.0,135.722,1.222,,
131,,size_choice_confirmation,,html-keyboard-response,131,217437,0.0-1.0-171.0-0.0,0,0,95248,,,,,,42.0,,,,,,,,,,,,,,,,,,,,,,,,,,,,,136.0,0.278,,
132,,iti,,html-keyboard-response,132,218440,0.0-1.0-172.0,0,0,95248,,,,,,,,,,,,,,,,,,,,,,,,,,,,,,,,,,,137.0,1.0,,
133,,size_choice,,html-keyboard-response,133,219461,0.0-1.0-174.0,0,0,95248,,1019.0,,,68.0,43.0,43.0,1.0,1000.0,S-L,1.0,L,S,3.0,1.0,deskchair,paperclip,deskchair1,paperclip5,10.0,114.0,/static/Size_judgement/Stimuli/Size_stims/L/deskchair/deskchair9.jpg,/static/Size_judgement/Stimuli/Size_stims/S/paperclip/paperclip2.jpg,1.0,deskchair,paperclip,L,S,3.0,1.0,deskchair1,paperclip5,1.0,0.0,138.019,1.019,,
134,,size_choice_confirmation,,html-keyboard-response,134,219944,0.0-1.0-175.0-0.0,0,0,95248,,,,,,43.0,,,,,,,,,,,,,,,,,,,,,,,,,,,,,138.5,0.481,,
135,,iti,,html-keyboard-response,135,220946,0.0-1.0-176.0,0,0,95248,,,,,,,,,,,,,,,,,,,,,,,,,,,,,,,,,,,139.5,1.0,,
136,,size_choice,,html-keyboard-response,136,222450,0.0-1.0-178.0,0,0,95248,,,,,,44.0,44.0,1.0,1000.0,L-XL,0.0,L,XL,3.0,4.0,dishwasher,van,dishwasher2,van9,21.0,198.0,/static/Size_judgement/Stimuli/Size_stims/L/dishwasher/dishwasher9.jpg,/static/Size_judgement/Stimuli/Size_stims/XL/van/van9.jpg,,,,,,,,,,,,141.0,1.5,1.0,
137,,iti,,html-keyboard-response,137,222452,0.0-1.0-180.0,0,0,95248,,,,,,,,,,,,,,,,,,,,,,,,,,,,,,,,,,,141.0,0.0,,
138,,block_over,,html-keyboard-response,138,252607,0.0-1.0-181.0-0.0,0,0,95248,,30147.0,,,68.0,44.0,,,,,,,,,,,,,,,,,,,,,,,,,,,,,,,,
139,,size_choice,,html-keyboard-response,139,254109,0.0-1.0-182.0,0,0,95248,,,,,,45.0,45.0,2.0,2000.0,S-L,0.0,S,L,1.0,3.0,die,mailbox,die5,mailbox2,104.0,41.0,/static/Size_judgement/Stimuli/Size_stims/S/die/die3.jpg,/static/Size_judgement/Stimuli/Size_stims/L/mailbox/mailbox2.jpg,,,,,,,,,,,,142.5,1.5,1.0,
140,,iti,,html-keyboard-response,140,255112,0.0-1.0-184.0,0,0,95248,,,,,,,,,,,,,,,,,,,,,,,,,,,,,,,,,,,143.5,1.0,,
141,,size_choice,,html-keyboard-response,141,256044,0.0-1.0-186.0,0,0,95248,,931.0,,,68.0,46.0,46.0,2.0,1000.0,S-L,1.0,L,S,3.0,1.0,deskchair,thread,deskchair3,thread10,12.0,149.0,/static/Size_judgement/Stimuli/Size_stims/L/deskchair/deskchair10.jpg,/static/Size_judgement/Stimuli/Size_stims/S/thread/thread9.jpg,1.0,deskchair,thread,L,S,3.0,1.0,deskchair3,thread10,1.0,0.0,144.431,0.931,,
142,,size_choice_confirmation,,html-keyboard-response,142,256616,0.0-1.0-187.0-0.0,0,0,95248,,,,,,46.0,,,,,,,,,,,,,,,,,,,,,,,,,,,,,145.0,0.569,,
143,,iti,,html-keyboard-response,143,257619,0.0-1.0-188.0,0,0,95248,,,,,,,,,,,,,,,,,,,,,,,,,,,,,,,,,,,146.0,1.0,,
144,,size_choice,,html-keyboard-response,144,258502,0.0-1.0-190.0,0,0,95248,,882.0,,,68.0,47.0,47.0,2.0,3500.0,M-L,1.0,L,M,3.0,2.0,garbagecan,handsaw,garbagecan1,handsaw9,30.0,88.0,/static/Size_judgement/Stimuli/Size_stims/L/garbagecan/garbagecan4.jpg,/static/Size_judgement/Stimuli/Size_stims/M/handsaw/handsaw6.jpg,1.0,garbagecan,handsaw,L,M,3.0,2.0,garbagecan1,handsaw9,1.0,0.0,146.882,0.882,,
145,,size_choice_confirmation,,html-keyboard-response,145,259126,0.0-1.0-191.0-0.0,0,0,95248,,,,,,47.0,,,,,,,,,,,,,,,,,,,,,,,,,,,,,147.5,0.618,,
146,,iti,,html-keyboard-response,146,262632,0.0-1.0-192.0,0,0,95248,,,,,,,,,,,,,,,,,,,,,,,,,,,,,,,,,,,151.0,3.5,,
147,,size_choice,,html-keyboard-response,147,263798,0.0-1.0-194.0,0,0,95248,,1164.0,,,68.0,48.0,48.0,2.0,1000.0,M-M,,M,M,2.0,2.0,coffeemaker,hairdryer,coffeemaker7,hairdryer5,66.0,74.0,/static/Size_judgement/Stimuli/Size_stims/M/coffeemaker/coffeemaker9.jpg,/static/Size_judgement/Stimuli/Size_stims/M/hairdryer/hairdryer15.jpg,1.0,coffeemaker,hairdryer,M,M,2.0,2.0,coffeemaker7,hairdryer5,,0.0,152.164,1.164,,
148,,size_choice_confirmation,,html-keyboard-response,148,264140,0.0-1.0-195.0-0.0,0,0,95248,,,,,,48.0,,,,,,,,,,,,,,,,,,,,,,,,,,,,,152.5,0.336,,
149,,iti,,html-keyboard-response,149,265144,0.0-1.0-196.0,0,0,95248,,,,,,,,,,,,,,,,,,,,,,,,,,,,,,,,,,,153.5,1.0,,
150,,size_choice,,html-keyboard-response,150,265931,0.0-1.0-198.0,0,0,95248,,786.0,,,68.0,49.0,49.0,2.0,2000.0,S-XL,1.0,XL,S,4.0,1.0,crane,thread,crane3,thread4,162.0,143.0,/static/Size_judgement/Stimuli/Size_stims/XL/crane/crane4.jpg,/static/Size_judgement/Stimuli/Size_stims/S/thread/thread5.jpg,1.0,crane,thread,XL,S,4.0,1.0,crane3,thread4,1.0,0.0,154.286,0.786,,
151,,size_choice_confirmation,,html-keyboard-response,151,266648,0.0-1.0-199.0-0.0,0,0,95248,,,,,,49.0,,,,,,,,,,,,,,,,,,,,,,,,,,,,,155.0,0.714,,
152,,iti,,html-keyboard-response,152,268653,0.0-1.0-200.0,0,0,95248,,,,,,,,,,,,,,,,,,,,,,,,,,,,,,,,,,,157.0,2.0,,
153,,size_choice,,html-keyboard-response,153,269378,0.0-1.0-202.0,0,0,95248,,723.0,,,68.0,50.0,50.0,2.0,1000.0,S-XL,1.0,XL,S,4.0,1.0,tractor,die,tractor7,die9,186.0,108.0,/static/Size_judgement/Stimuli/Size_stims/XL/tractor/tractor2.jpg,/static/Size_judgement/Stimuli/Size_stims/S/die/die7.jpg,1.0,tractor,die,XL,S,4.0,1.0,tractor7,die9,1.0,0.0,157.723,0.723,,
154,,size_choice_confirmation,,html-keyboard-response,154,270157,0.0-1.0-203.0-0.0,0,0,95248,,,,,,50.0,,,,,,,,,,,,,,,,,,,,,,,,,,,,,158.5,0.777,,
155,,iti,,html-keyboard-response,155,271160,0.0-1.0-204.0,0,0,95248,,,,,,,,,,,,,,,,,,,,,,,,,,,,,,,,,,,159.5,1.0,,
156,,size_choice,,html-keyboard-response,156,272231,0.0-1.0-206.0,0,0,95248,,1071.0,,,68.0,51.0,51.0,2.0,2000.0,S-L,1.0,L,S,3.0,1.0,cooler,thread,cooler1,thread2,0.0,141.0,/static/Size_judgement/Stimuli/Size_stims/L/cooler/cooler8.jpg,/static/Size_judgement/Stimuli/Size_stims/S/thread/thread6.jpg,1.0,cooler,thread,L,S,3.0,1.0,cooler1,thread2,1.0,0.0,160.571,1.071,,
157,,size_choice_confirmation,,html-keyboard-response,157,272664,0.0-1.0-207.0-0.0,0,0,95248,,,,,,51.0,,,,,,,,,,,,,,,,,,,,,,,,,,,,,161.0,0.429,,
158,,iti,,html-keyboard-response,158,274669,0.0-1.0-208.0,0,0,95248,,,,,,,,,,,,,,,,,,,,,,,,,,,,,,,,,,,163.0,2.0,,
159,,size_choice,,html-keyboard-response,159,275453,0.0-1.0-210.0,0,0,95248,,783.0,,,75.0,52.0,52.0,2.0,1000.0,M-L,0.0,M,L,2.0,3.0,handsaw,mailbox,handsaw8,mailbox4,87.0,43.0,/static/Size_judgement/Stimuli/Size_stims/M/handsaw/handsaw7.jpg,/static/Size_judgement/Stimuli/Size_stims/L/mailbox/mailbox5.jpg,0.0,mailbox,handsaw,L,M,3.0,2.0,mailbox4,handsaw8,1.0,0.0,163.783,0.783,,
160,,size_choice_confirmation,,html-keyboard-response,160,276176,0.0-1.0-211.0-0.0,0,0,95248,,,,,,52.0,,,,,,,,,,,,,,,,,,,,,,,,,,,,,164.5,0.717,,
161,,iti,,html-keyboard-response,161,277180,0.0-1.0-212.0,0,0,95248,,,,,,,,,,,,,,,,,,,,,,,,,,,,,,,,,,,165.5,1.0,,
162,,size_choice,,html-keyboard-response,162,278065,0.0-1.0-214.0,0,0,95248,,884.0,,,68.0,53.0,53.0,2.0,1000.0,S-XL,1.0,XL,S,4.0,1.0,crane,thread,crane9,thread5,168.0,144.0,/static/Size_judgement/Stimuli/Size_stims/XL/crane/crane8.jpg,/static/Size_judgement/Stimuli/Size_stims/S/thread/thread1.jpg,1.0,crane,thread,XL,S,4.0,1.0,crane9,thread5,1.0,0.0,166.384,0.884,,
163,,size_choice_confirmation,,html-keyboard-response,163,278683,0.0-1.0-215.0-0.0,0,0,95248,,,,,,53.0,,,,,,,,,,,,,,,,,,,,,,,,,,,,,167.0,0.616,,
164,,iti,,html-keyboard-response,164,279683,0.0-1.0-216.0,0,0,95248,,,,,,,,,,,,,,,,,,,,,,,,,,,,,,,,,,,168.0,1.0,,
165,,size_choice,,html-keyboard-response,165,280973,0.0-1.0-218.0,0,0,95248,,1289.0,,,68.0,54.0,54.0,2.0,2000.0,XL-XL,,XL,XL,4.0,4.0,tractor,van,tractor1,van10,180.0,199.0,/static/Size_judgement/Stimuli/Size_stims/XL/tractor/tractor6.jpg,/static/Size_judgement/Stimuli/Size_stims/XL/van/van8.jpg,1.0,tractor,van,XL,XL,4.0,4.0,tractor1,van10,,0.0,169.289,1.289,,
166,,size_choice_confirmation,,html-keyboard-response,166,281186,0.0-1.0-219.0-0.0,0,0,95248,,,,,,54.0,,,,,,,,,,,,,,,,,,,,,,,,,,,,,169.5,0.211,,
167,,iti,,html-keyboard-response,167,283188,0.0-1.0-220.0,0,0,95248,,,,,,,,,,,,,,,,,,,,,,,,,,,,,,,,,,,171.5,2.0,,
168,,size_choice,,html-keyboard-response,168,284272,0.0-1.0-222.0,0,0,95248,,1083.0,,,75.0,55.0,55.0,2.0,1500.0,S-S,,S,S,1.0,1.0,paperclip,teabag,paperclip8,teabag2,117.0,131.0,/static/Size_judgement/Stimuli/Size_stims/S/paperclip/paperclip5.jpg,/static/Size_judgement/Stimuli/Size_stims/S/teabag/teabag8.jpg,0.0,teabag,paperclip,S,S,1.0,1.0,teabag2,paperclip8,,0.0,172.583,1.083,,
169,,size_choice_confirmation,,html-keyboard-response,169,284696,0.0-1.0-223.0-0.0,0,0,95248,,,,,,55.0,,,,,,,,,,,,,,,,,,,,,,,,,,,,,173.0,0.417,,
170,,iti,,html-keyboard-response,170,286200,0.0-1.0-224.0,0,0,95248,,,,,,,,,,,,,,,,,,,,,,,,,,,,,,,,,,,174.5,1.5,,
171,,size_choice,,html-keyboard-response,171,287038,0.0-1.0-226.0,0,0,95248,,837.0,,,68.0,56.0,56.0,2.0,1500.0,S-XL,1.0,XL,S,4.0,1.0,crane,screws,crane8,screws2,167.0,121.0,/static/Size_judgement/Stimuli/Size_stims/XL/crane/crane10.jpg,/static/Size_judgement/Stimuli/Size_stims/S/screws/screws5.jpg,1.0,crane,screws,XL,S,4.0,1.0,crane8,screws2,1.0,0.0,175.337,0.837,,
172,,size_choice_confirmation,,html-keyboard-response,172,287704,0.0-1.0-227.0-0.0,0,0,95248,,,,,,56.0,,,,,,,,,,,,,,,,,,,,,,,,,,,,,176.0,0.663,,
173,,iti,,html-keyboard-response,173,289208,0.0-1.0-228.0,0,0,95248,,,,,,,,,,,,,,,,,,,,,,,,,,,,,,,,,,,177.5,1.5,,
174,,size_choice,,html-keyboard-response,174,290089,0.0-1.0-230.0,0,0,95248,,880.0,,,68.0,57.0,57.0,2.0,1000.0,L-L,,L,L,3.0,3.0,dishwasher,cooler,dishwasher4,cooler3,23.0,2.0,/static/Size_judgement/Stimuli/Size_stims/L/dishwasher/dishwasher5.jpg,/static/Size_judgement/Stimuli/Size_stims/L/cooler/cooler2.jpg,1.0,dishwasher,cooler,L,L,3.0,3.0,dishwasher4,cooler3,,0.0,178.38,0.88,,
175,,size_choice_confirmation,,html-keyboard-response,175,290713,0.0-1.0-231.0-0.0,0,0,95248,,,,,,57.0,,,,,,,,,,,,,,,,,,,,,,,,,,,,,179.0,0.62,,
176,,iti,,html-keyboard-response,176,291718,0.0-1.0-232.0,0,0,95248,,,,,,,,,,,,,,,,,,,,,,,,,,,,,,,,,,,180.0,1.0,,
177,,size_choice,,html-keyboard-response,177,292932,0.0-1.0-234.0,0,0,95248,,1213.0,,,75.0,58.0,58.0,2.0,3000.0,M-XL,0.0,M,XL,2.0,4.0,coffeemaker,van,coffeemaker9,van4,68.0,193.0,/static/Size_judgement/Stimuli/Size_stims/M/coffeemaker/coffeemaker7.jpg,/static/Size_judgement/Stimuli/Size_stims/XL/van/van7.jpg,0.0,van,coffeemaker,XL,M,4.0,2.0,van4,coffeemaker9,1.0,0.0,181.213,1.213,,
178,,size_choice_confirmation,,html-keyboard-response,178,293224,0.0-1.0-235.0-0.0,0,0,95248,,,,,,58.0,,,,,,,,,,,,,,,,,,,,,,,,,,,,,181.5,0.287,,
179,,iti,,html-keyboard-response,179,296229,0.0-1.0-236.0,0,0,95248,,,,,,,,,,,,,,,,,,,,,,,,,,,,,,,,,,,184.5,3.0,,
180,,size_choice,,html-keyboard-response,180,297246,0.0-1.0-238.0,0,0,95248,,1015.0,,,75.0,59.0,59.0,2.0,2000.0,M-L,0.0,M,L,2.0,3.0,coffeemaker,cooler,coffeemaker3,cooler7,62.0,6.0,/static/Size_judgement/Stimuli/Size_stims/M/coffeemaker/coffeemaker13.jpg,/static/Size_judgement/Stimuli/Size_stims/L/cooler/cooler4.jpg,0.0,cooler,coffeemaker,L,M,3.0,2.0,cooler7,coffeemaker3,1.0,0.0,185.515,1.015,,
181,,size_choice_confirmation,,html-keyboard-response,181,297736,0.0-1.0-239.0-0.0,0,0,95248,,,,,,59.0,,,,,,,,,,,,,,,,,,,,,,,,,,,,,186.0,0.485,,
182,,iti,,html-keyboard-response,182,299742,0.0-1.0-240.0,0,0,95248,,,,,,,,,,,,,,,,,,,,,,,,,,,,,,,,,,,188.0,2.0,,
183,,size_choice,,html-keyboard-response,183,300674,0.0-1.0-242.0,0,0,95248,,931.0,,,68.0,60.0,60.0,2.0,2000.0,S-L,1.0,L,S,3.0,1.0,cooler,screws,cooler4,screws5,3.0,124.0,/static/Size_judgement/Stimuli/Size_stims/L/cooler/cooler3.jpg,/static/Size_judgement/Stimuli/Size_stims/S/screws/screws2.jpg,1.0,cooler,screws,L,S,3.0,1.0,cooler4,screws5,1.0,0.0,188.931,0.931,,
184,,size_choice_confirmation,,html-keyboard-response,184,301246,0.0-1.0-243.0-0.0,0,0,95248,,,,,,60.0,,,,,,,,,,,,,,,,,,,,,,,,,,,,,189.5,0.569,,
185,,iti,,html-keyboard-response,185,303250,0.0-1.0-244.0,0,0,95248,,,,,,,,,,,,,,,,,,,,,,,,,,,,,,,,,,,191.5,2.0,,
186,,size_choice,,html-keyboard-response,186,304465,0.0-1.0-246.0,0,0,95248,,1214.0,,,75.0,61.0,61.0,2.0,1500.0,M-XL,0.0,M,XL,2.0,4.0,handsaw,car,handsaw7,car3,86.0,152.0,/static/Size_judgement/Stimuli/Size_stims/M/handsaw/handsaw5.jpg,/static/Size_judgement/Stimuli/Size_stims/XL/car/car4.jpg,0.0,car,handsaw,XL,M,4.0,2.0,car3,handsaw7,1.0,0.0,192.714,1.214,,
187,,size_choice_confirmation,,html-keyboard-response,187,304755,0.0-1.0-247.0-0.0,0,0,95248,,,,,,61.0,,,,,,,,,,,,,,,,,,,,,,,,,,,,,193.0,0.286,,
188,,iti,,html-keyboard-response,188,306257,0.0-1.0-248.0,0,0,95248,,,,,,,,,,,,,,,,,,,,,,,,,,,,,,,,,,,194.5,1.5,,
189,,size_choice,,html-keyboard-response,189,307763,0.0-1.0-250.0,0,0,95248,,,,,,62.0,62.0,2.0,1000.0,M-XL,0.0,M,XL,2.0,4.0,handsaw,tractor,handsaw1,tractor4,80.0,183.0,/static/Size_judgement/Stimuli/Size_stims/M/handsaw/handsaw8.jpg,/static/Size_judgement/Stimuli/Size_stims/XL/tractor/tractor4.jpg,,,,,,,,,,,,196.0,1.5,1.0,
190,,iti,,html-keyboard-response,190,307766,0.0-1.0-252.0,0,0,95248,,,,,,,,,,,,,,,,,,,,,,,,,,,,,,,,,,,196.0,0.0,,
191,,size_choice,,html-keyboard-response,191,308126,0.0-1.0-254.0,0,0,95248,,360.0,,,75.0,63.0,63.0,2.0,1500.0,S-L,1.0,L,S,3.0,1.0,dishwasher,teabag,dishwasher9,teabag7,28.0,136.0,/static/Size_judgement/Stimuli/Size_stims/L/dishwasher/dishwasher2.jpg,/static/Size_judgement/Stimuli/Size_stims/S/teabag/teabag10.jpg,0.0,teabag,dishwasher,S,L,1.0,3.0,teabag7,dishwasher9,0.0,0.0,196.36,0.36,,
192,,size_choice_confirmation,,html-keyboard-response,192,309272,0.0-1.0-255.0-0.0,0,0,95248,,,,,,63.0,,,,,,,,,,,,,,,,,,,,,,,,,,,,,197.5,1.14,,
193,,iti,,html-keyboard-response,193,310776,0.0-1.0-256.0,0,0,95248,,,,,,,,,,,,,,,,,,,,,,,,,,,,,,,,,,,199.0,1.5,,
194,,size_choice,,html-keyboard-response,194,311706,0.0-1.0-258.0,0,0,95248,,928.0,,,75.0,64.0,64.0,2.0,3500.0,M-XL,1.0,XL,M,4.0,2.0,crane,coffeemaker,crane5,coffeemaker2,164.0,61.0,/static/Size_judgement/Stimuli/Size_stims/XL/crane/crane1.jpg,/static/Size_judgement/Stimuli/Size_stims/M/coffeemaker/coffeemaker12.jpg,0.0,coffeemaker,crane,M,XL,2.0,4.0,coffeemaker2,crane5,0.0,0.0,199.928,0.928,,
195,,size_choice_confirmation,,html-keyboard-response,195,312280,0.0-1.0-259.0-0.0,0,0,95248,,,,,,64.0,,,,,,,,,,,,,,,,,,,,,,,,,,,,,200.5,0.572,,
196,,iti,,html-keyboard-response,196,315785,0.0-1.0-260.0,0,0,95248,,,,,,,,,,,,,,,,,,,,,,,,,,,,,,,,,,,204.0,3.5,,
197,,size_choice,,html-keyboard-response,197,316877,0.0-1.0-262.0,0,0,95248,,1092.0,,,68.0,65.0,65.0,2.0,1500.0,XL-XL,,XL,XL,4.0,4.0,tractor,van,tractor9,van6,188.0,195.0,/static/Size_judgement/Stimuli/Size_stims/XL/tractor/tractor9.jpg,/static/Size_judgement/Stimuli/Size_stims/XL/van/van2.jpg,1.0,tractor,van,XL,XL,4.0,4.0,tractor9,van6,,0.0,205.092,1.092,,
198,,size_choice_confirmation,,html-keyboard-response,198,317289,0.0-1.0-263.0-0.0,0,0,95248,,,,,,65.0,,,,,,,,,,,,,,,,,,,,,,,,,,,,,205.5,0.408,,
199,,iti,,html-keyboard-response,199,318792,0.0-1.0-264.0,0,0,95248,,,,,,,,,,,,,,,,,,,,,,,,,,,,,,,,,,,207.0,1.5,,
200,,size_choice,,html-keyboard-response,200,319844,0.0-1.0-266.0,0,0,95248,,1051.0,,,75.0,66.0,66.0,2.0,2000.0,S-M,0.0,S,M,1.0,2.0,teabag,hairdryer,teabag6,hairdryer1,135.0,70.0,/static/Size_judgement/Stimuli/Size_stims/S/teabag/teabag6.jpg,/static/Size_judgement/Stimuli/Size_stims/M/hairdryer/hairdryer11.jpg,0.0,hairdryer,teabag,M,S,2.0,1.0,hairdryer1,teabag6,1.0,0.0,208.051,1.051,,
201,,size_choice_confirmation,,html-keyboard-response,201,320295,0.0-1.0-267.0-0.0,0,0,95248,,,,,,66.0,,,,,,,,,,,,,,,,,,,,,,,,,,,,,208.5,0.449,,
202,,iti,,html-keyboard-response,202,322297,0.0-1.0-268.0,0,0,95248,,,,,,,,,,,,,,,,,,,,,,,,,,,,,,,,,,,210.5,2.0,,
203,,size_choice,,html-keyboard-response,203,323076,0.0-1.0-270.0,0,0,95248,,777.0,,,68.0,67.0,67.0,2.0,1500.0,S-L,1.0,L,S,3.0,1.0,garbagecan,die,garbagecan8,die7,37.0,106.0,/static/Size_judgement/Stimuli/Size_stims/L/garbagecan/garbagecan13.jpg,/static/Size_judgement/Stimuli/Size_stims/S/die/die4.jpg,1.0,garbagecan,die,L,S,3.0,1.0,garbagecan8,die7,1.0,0.0,211.277,0.777,,
204,,size_choice_confirmation,,html-keyboard-response,204,323801,0.0-1.0-271.0-0.0,0,0,95248,,,,,,67.0,,,,,,,,,,,,,,,,,,,,,,,,,,,,,212.0,0.723,,
205,,iti,,html-keyboard-response,205,325304,0.0-1.0-272.0,0,0,95248,,,,,,,,,,,,,,,,,,,,,,,,,,,,,,,,,,,213.5,1.5,,
206,,size_choice,,html-keyboard-response,206,326188,0.0-1.0-274.0,0,0,95248,,882.0,,,75.0,68.0,68.0,2.0,1500.0,S-M,0.0,S,M,1.0,2.0,thread,basketball,thread1,basketball2,140.0,51.0,/static/Size_judgement/Stimuli/Size_stims/S/thread/thread7.jpg,/static/Size_judgement/Stimuli/Size_stims/M/basketball/basketball8.jpg,0.0,basketball,thread,M,S,2.0,1.0,basketball2,thread1,1.0,0.0,214.382,0.882,,
207,,size_choice_confirmation,,html-keyboard-response,207,326809,0.0-1.0-275.0-0.0,0,0,95248,,,,,,68.0,,,,,,,,,,,,,,,,,,,,,,,,,,,,,215.0,0.618,,
208,,iti,,html-keyboard-response,208,328313,0.0-1.0-276.0,0,0,95248,,,,,,,,,,,,,,,,,,,,,,,,,,,,,,,,,,,216.5,1.5,,
209,,size_choice,,html-keyboard-response,209,329135,0.0-1.0-278.0,0,0,95248,,821.0,,,75.0,69.0,69.0,2.0,1000.0,S-L,0.0,S,L,1.0,3.0,die,dishwasher,die8,dishwasher3,107.0,22.0,/static/Size_judgement/Stimuli/Size_stims/S/die/die5.jpg,/static/Size_judgement/Stimuli/Size_stims/L/dishwasher/dishwasher8.jpg,0.0,dishwasher,die,L,S,3.0,1.0,dishwasher3,die8,1.0,0.0,217.321,0.821,,
210,,size_choice_confirmation,,html-keyboard-response,210,329817,0.0-1.0-279.0-0.0,0,0,95248,,,,,,69.0,,,,,,,,,,,,,,,,,,,,,,,,,,,,,218.0,0.679,,
211,,iti,,html-keyboard-response,211,330819,0.0-1.0-280.0,0,0,95248,,,,,,,,,,,,,,,,,,,,,,,,,,,,,,,,,,,219.0,1.0,,
212,,size_choice,,html-keyboard-response,212,331685,0.0-1.0-282.0,0,0,95248,,864.0,,,68.0,70.0,70.0,2.0,1500.0,S-XL,1.0,XL,S,4.0,1.0,van,thread,van1,thread9,190.0,148.0,/static/Size_judgement/Stimuli/Size_stims/XL/van/van5.jpg,/static/Size_judgement/Stimuli/Size_stims/S/thread/thread8.jpg,1.0,van,thread,XL,S,4.0,1.0,van1,thread9,1.0,0.0,219.864,0.864,,
213,,size_choice_confirmation,,html-keyboard-response,213,332323,0.0-1.0-283.0-0.0,0,0,95248,,,,,,70.0,,,,,,,,,,,,,,,,,,,,,,,,,,,,,220.5,0.636,,
214,,iti,,html-keyboard-response,214,333829,0.0-1.0-284.0,0,0,95248,,,,,,,,,,,,,,,,,,,,,,,,,,,,,,,,,,,222.0,1.5,,
215,,size_choice,,html-keyboard-response,215,335330,0.0-1.0-286.0,0,0,95248,,1501.0,,,75.0,71.0,71.0,2.0,3500.0,M-L,0.0,M,L,2.0,3.0,basketball,deskchair,basketball9,deskchair2,58.0,11.0,/static/Size_judgement/Stimuli/Size_stims/M/basketball/basketball5.jpg,/static/Size_judgement/Stimuli/Size_stims/L/deskchair/deskchair8.jpg,0.0,deskchair,basketball,L,M,3.0,2.0,deskchair2,basketball9,1.0,0.0,223.501,1.501,,
216,,size_choice_confirmation,,html-keyboard-response,216,335333,0.0-1.0-287.0-0.0,0,0,95248,,,,,,71.0,,,,,,,,,,,,,,,,,,,,,,,,,,,,,223.5,-0.001,,
217,,iti,,html-keyboard-response,217,338839,0.0-1.0-288.0,0,0,95248,,,,,,,,,,,,,,,,,,,,,,,,,,,,,,,,,,,227.0,3.5,,
218,,size_choice,,html-keyboard-response,218,339879,0.0-1.0-290.0,0,0,95248,,1040.0,,,68.0,72.0,72.0,2.0,1000.0,L-XL,1.0,XL,L,4.0,3.0,car,deskchair,car9,deskchair4,158.0,13.0,/static/Size_judgement/Stimuli/Size_stims/XL/car/car15.jpg,/static/Size_judgement/Stimuli/Size_stims/L/deskchair/deskchair6.jpg,1.0,car,deskchair,XL,L,4.0,3.0,car9,deskchair4,1.0,0.0,228.04,1.04,,
219,,size_choice_confirmation,,html-keyboard-response,219,340344,0.0-1.0-291.0-0.0,0,0,95248,,,,,,72.0,,,,,,,,,,,,,,,,,,,,,,,,,,,,,228.5,0.46,,
220,,iti,,html-keyboard-response,220,341347,0.0-1.0-292.0,0,0,95248,,,,,,,,,,,,,,,,,,,,,,,,,,,,,,,,,,,229.5,1.0,,
221,,size_choice,,html-keyboard-response,221,342340,0.0-1.0-294.0,0,0,95248,,991.0,,,75.0,73.0,73.0,2.0,1500.0,M-M,,M,M,2.0,2.0,hairdryer,basketball,hairdryer3,basketball3,72.0,52.0,/static/Size_judgement/Stimuli/Size_stims/M/hairdryer/hairdryer17.jpg,/static/Size_judgement/Stimuli/Size_stims/M/basketball/basketball10.jpg,0.0,basketball,hairdryer,M,M,2.0,2.0,basketball3,hairdryer3,,0.0,230.491,0.991,,
222,,size_choice_confirmation,,html-keyboard-response,222,342850,0.0-1.0-295.0-0.0,0,0,95248,,,,,,73.0,,,,,,,,,,,,,,,,,,,,,,,,,,,,,231.0,0.509,,
223,,iti,,html-keyboard-response,223,344355,0.0-1.0-296.0,0,0,95248,,,,,,,,,,,,,,,,,,,,,,,,,,,,,,,,,,,232.5,1.5,,
224,,size_choice,,html-keyboard-response,224,345205,0.0-1.0-298.0,0,0,95248,,849.0,,,75.0,74.0,74.0,2.0,1500.0,S-XL,0.0,S,XL,1.0,4.0,paperclip,crane,paperclip10,crane1,119.0,160.0,/static/Size_judgement/Stimuli/Size_stims/S/paperclip/paperclip10.jpg,/static/Size_judgement/Stimuli/Size_stims/XL/crane/crane7.jpg,0.0,crane,paperclip,XL,S,4.0,1.0,crane1,paperclip10,1.0,0.0,233.349,0.849,,
225,,size_choice_confirmation,,html-keyboard-response,225,345859,0.0-1.0-299.0-0.0,0,0,95248,,,,,,74.0,,,,,,,,,,,,,,,,,,,,,,,,,,,,,234.0,0.651,,
226,,iti,,html-keyboard-response,226,347363,0.0-1.0-300.0,0,0,95248,,,,,,,,,,,,,,,,,,,,,,,,,,,,,,,,,,,235.5,1.5,,
227,,size_choice,,html-keyboard-response,227,348117,0.0-1.0-302.0,0,0,95248,,753.0,,,68.0,75.0,75.0,2.0,1000.0,M-L,1.0,L,M,3.0,2.0,cooler,ketchup,cooler5,ketchup10,4.0,99.0,/static/Size_judgement/Stimuli/Size_stims/L/cooler/cooler10.jpg,/static/Size_judgement/Stimuli/Size_stims/M/ketchup/ketchup6.jpg,1.0,cooler,ketchup,L,M,3.0,2.0,cooler5,ketchup10,1.0,0.0,236.253,0.753,,
228,,size_choice_confirmation,,html-keyboard-response,228,348867,0.0-1.0-303.0-0.0,0,0,95248,,,,,,75.0,,,,,,,,,,,,,,,,,,,,,,,,,,,,,237.0,0.747,,
229,,iti,,html-keyboard-response,229,349870,0.0-1.0-304.0,0,0,95248,,,,,,,,,,,,,,,,,,,,,,,,,,,,,,,,,,,238.0,1.0,,
230,,size_choice,,html-keyboard-response,230,351150,0.0-1.0-306.0,0,0,95248,,1280.0,,,75.0,76.0,76.0,2.0,3000.0,S-S,,S,S,1.0,1.0,screws,die,screws7,die4,126.0,103.0,/static/Size_judgement/Stimuli/Size_stims/S/screws/screws1.jpg,/static/Size_judgement/Stimuli/Size_stims/S/die/die2.jpg,0.0,die,screws,S,S,1.0,1.0,die4,screws7,,0.0,239.28,1.28,,
231,,size_choice_confirmation,,html-keyboard-response,231,351374,0.0-1.0-307.0-0.0,0,0,95248,,,,,,76.0,,,,,,,,,,,,,,,,,,,,,,,,,,,,,239.5,0.22,,
232,,iti,,html-keyboard-response,232,354377,0.0-1.0-308.0,0,0,95248,,,,,,,,,,,,,,,,,,,,,,,,,,,,,,,,,,,242.5,3.0,,
233,,size_choice,,html-keyboard-response,233,355165,0.0-1.0-310.0,0,0,95248,,788.0,,,68.0,77.0,77.0,2.0,1000.0,L-L,,L,L,3.0,3.0,mailbox,cooler,mailbox1,cooler2,40.0,1.0,/static/Size_judgement/Stimuli/Size_stims/L/mailbox/mailbox3.jpg,/static/Size_judgement/Stimuli/Size_stims/L/cooler/cooler9.jpg,1.0,mailbox,cooler,L,L,3.0,3.0,mailbox1,cooler2,,0.0,243.288,0.788,,
234,,size_choice_confirmation,,html-keyboard-response,234,355881,0.0-1.0-311.0-0.0,0,0,95248,,,,,,77.0,,,,,,,,,,,,,,,,,,,,,,,,,,,,,244.0,0.712,,
235,,iti,,html-keyboard-response,235,356883,0.0-1.0-312.0,0,0,95248,,,,,,,,,,,,,,,,,,,,,,,,,,,,,,,,,,,245.0,1.0,,
236,,size_choice,,html-keyboard-response,236,358388,0.0-1.0-314.0,0,0,95248,,,,,,78.0,78.0,2.0,1000.0,S-L,1.0,L,S,3.0,1.0,cooler,paperclip,cooler8,paperclip6,7.0,115.0,/static/Size_judgement/Stimuli/Size_stims/L/cooler/cooler5.jpg,/static/Size_judgement/Stimuli/Size_stims/S/paperclip/paperclip6.jpg,,,,,,,,,,,,246.5,1.5,1.0,
237,,iti,,html-keyboard-response,237,358390,0.0-1.0-316.0,0,0,95248,,,,,,,,,,,,,,,,,,,,,,,,,,,,,,,,,,,246.5,0.0,,
238,,size_choice,,html-keyboard-response,238,359891,0.0-1.0-318.0,0,0,95248,,,,,,79.0,79.0,2.0,3000.0,S-XL,0.0,S,XL,1.0,4.0,paperclip,crane,paperclip3,crane2,112.0,161.0,/static/Size_judgement/Stimuli/Size_stims/S/paperclip/paperclip1.jpg,/static/Size_judgement/Stimuli/Size_stims/XL/crane/crane6.jpg,,,,,,,,,,,,248.0,1.5,1.0,
239,,iti,,html-keyboard-response,239,361897,0.0-1.0-320.0,0,0,95248,,,,,,,,,,,,,,,,,,,,,,,,,,,,,,,,,,,250.0,2.0,,
240,,size_choice,,html-keyboard-response,240,362702,0.0-1.0-322.0,0,0,95248,,803.0,,,75.0,80.0,80.0,2.0,1000.0,M-XL,0.0,M,XL,2.0,4.0,ketchup,van,ketchup1,van2,90.0,191.0,/static/Size_judgement/Stimuli/Size_stims/M/ketchup/ketchup8.jpg,/static/Size_judgement/Stimuli/Size_stims/XL/van/van4.jpg,0.0,van,ketchup,XL,M,4.0,2.0,van2,ketchup1,1.0,0.0,250.803,0.803,,
241,,size_choice_confirmation,,html-keyboard-response,241,363401,0.0-1.0-323.0-0.0,0,0,95248,,,,,,80.0,,,,,,,,,,,,,,,,,,,,,,,,,,,,,251.5,0.697,,
242,,iti,,html-keyboard-response,242,364404,0.0-1.0-324.0,0,0,95248,,,,,,,,,,,,,,,,,,,,,,,,,,,,,,,,,,,252.5,1.0,,
243,,size_choice,,html-keyboard-response,243,365376,0.0-1.0-326.0,0,0,95248,,972.0,,,75.0,81.0,81.0,2.0,3000.0,M-XL,0.0,M,XL,2.0,4.0,coffeemaker,tractor,coffeemaker6,tractor3,65.0,182.0,/static/Size_judgement/Stimuli/Size_stims/M/coffeemaker/coffeemaker8.jpg,/static/Size_judgement/Stimuli/Size_stims/XL/tractor/tractor5.jpg,0.0,tractor,coffeemaker,XL,M,4.0,2.0,tractor3,coffeemaker6,1.0,0.0,253.472,0.972,,
244,,size_choice_confirmation,,html-keyboard-response,244,365908,0.0-1.0-327.0-0.0,0,0,95248,,,,,,81.0,,,,,,,,,,,,,,,,,,,,,,,,,,,,,254.0,0.528,,
245,,iti,,html-keyboard-response,245,368910,0.0-1.0-328.0,0,0,95248,,,,,,,,,,,,,,,,,,,,,,,,,,,,,,,,,,,257.0,3.0,,
246,,size_choice,,html-keyboard-response,246,370233,0.0-1.0-330.0,0,0,95248,,1322.0,,,68.0,82.0,82.0,2.0,1000.0,M-L,1.0,L,M,3.0,2.0,dishwasher,basketball,dishwasher6,basketball10,25.0,59.0,/static/Size_judgement/Stimuli/Size_stims/L/dishwasher/dishwasher6.jpg,/static/Size_judgement/Stimuli/Size_stims/M/basketball/basketball4.jpg,1.0,dishwasher,basketball,L,M,3.0,2.0,dishwasher6,basketball10,1.0,0.0,258.322,1.322,,
247,,size_choice_confirmation,,html-keyboard-response,247,370414,0.0-1.0-331.0-0.0,0,0,95248,,,,,,82.0,,,,,,,,,,,,,,,,,,,,,,,,,,,,,258.5,0.178,,
248,,iti,,html-keyboard-response,248,371417,0.0-1.0-332.0,0,0,95248,,,,,,,,,,,,,,,,,,,,,,,,,,,,,,,,,,,259.5,1.0,,
249,,size_choice,,html-keyboard-response,249,372816,0.0-1.0-334.0,0,0,95248,,1397.0,,,68.0,83.0,83.0,2.0,1000.0,M-XL,1.0,XL,M,4.0,2.0,van,hairdryer,van8,hairdryer9,197.0,78.0,/static/Size_judgement/Stimuli/Size_stims/XL/van/van10.jpg,/static/Size_judgement/Stimuli/Size_stims/M/hairdryer/hairdryer5.jpg,1.0,van,hairdryer,XL,M,4.0,2.0,van8,hairdryer9,1.0,0.0,260.897,1.397,,
250,,size_choice_confirmation,,html-keyboard-response,250,372921,0.0-1.0-335.0-0.0,0,0,95248,,,,,,83.0,,,,,,,,,,,,,,,,,,,,,,,,,,,,,261.0,0.103,,
251,,iti,,html-keyboard-response,251,373927,0.0-1.0-336.0,0,0,95248,,,,,,,,,,,,,,,,,,,,,,,,,,,,,,,,,,,262.0,1.0,,
252,,size_choice,,html-keyboard-response,252,374901,0.0-1.0-338.0,0,0,95248,,973.0,,,75.0,84.0,84.0,2.0,1000.0,XL-XL,,XL,XL,4.0,4.0,tractor,dumptruck,tractor5,dumptruck3,184.0,172.0,/static/Size_judgement/Stimuli/Size_stims/XL/tractor/tractor1.jpg,/static/Size_judgement/Stimuli/Size_stims/XL/dumptruck/dumptruck10.jpg,0.0,dumptruck,tractor,XL,XL,4.0,4.0,dumptruck3,tractor5,,0.0,262.973,0.973,,
253,,size_choice_confirmation,,html-keyboard-response,253,375433,0.0-1.0-339.0-0.0,0,0,95248,,,,,,84.0,,,,,,,,,,,,,,,,,,,,,,,,,,,,,263.5,0.527,,
254,,iti,,html-keyboard-response,254,376435,0.0-1.0-340.0,0,0,95248,,,,,,,,,,,,,,,,,,,,,,,,,,,,,,,,,,,264.5,1.0,,
255,,size_choice,,html-keyboard-response,255,377356,0.0-1.0-342.0,0,0,95248,,920.0,,,68.0,85.0,85.0,2.0,1000.0,M-L,1.0,L,M,3.0,2.0,mailbox,basketball,mailbox7,basketball1,46.0,50.0,/static/Size_judgement/Stimuli/Size_stims/L/mailbox/mailbox7.jpg,/static/Size_judgement/Stimuli/Size_stims/M/basketball/basketball9.jpg,1.0,mailbox,basketball,L,M,3.0,2.0,mailbox7,basketball1,1.0,0.0,265.42,0.92,,
256,,size_choice_confirmation,,html-keyboard-response,256,377940,0.0-1.0-343.0-0.0,0,0,95248,,,,,,85.0,,,,,,,,,,,,,,,,,,,,,,,,,,,,,266.0,0.58,,
257,,iti,,html-keyboard-response,257,378942,0.0-1.0-344.0,0,0,95248,,,,,,,,,,,,,,,,,,,,,,,,,,,,,,,,,,,267.0,1.0,,
258,,size_choice,,html-keyboard-response,258,379745,0.0-1.0-346.0,0,0,95248,,802.0,,,68.0,86.0,86.0,2.0,1500.0,S-XL,1.0,XL,S,4.0,1.0,dumptruck,screws,dumptruck6,screws8,175.0,127.0,/static/Size_judgement/Stimuli/Size_stims/XL/dumptruck/dumptruck2.jpg,/static/Size_judgement/Stimuli/Size_stims/S/screws/screws10.jpg,1.0,dumptruck,screws,XL,S,4.0,1.0,dumptruck6,screws8,1.0,0.0,267.802,0.802,,
259,,size_choice_confirmation,,html-keyboard-response,259,380446,0.0-1.0-347.0-0.0,0,0,95248,,,,,,86.0,,,,,,,,,,,,,,,,,,,,,,,,,,,,,268.5,0.698,,
260,,iti,,html-keyboard-response,260,381950,0.0-1.0-348.0,0,0,95248,,,,,,,,,,,,,,,,,,,,,,,,,,,,,,,,,,,270.0,1.5,,
261,,size_choice,,html-keyboard-response,261,383453,0.0-1.0-350.0,0,0,95248,,,,,,87.0,87.0,2.0,1500.0,L-XL,1.0,XL,L,4.0,3.0,car,deskchair,car7,deskchair8,156.0,17.0,/static/Size_judgement/Stimuli/Size_stims/XL/car/car13.jpg,/static/Size_judgement/Stimuli/Size_stims/L/deskchair/deskchair1.jpg,,,,,,,,,,,,271.5,1.5,1.0,
262,,iti,,html-keyboard-response,262,383956,0.0-1.0-352.0,0,0,95248,,,,,,,,,,,,,,,,,,,,,,,,,,,,,,,,,,,272.0,0.5,,
263,,size_choice,,html-keyboard-response,263,385119,0.0-1.0-354.0,0,0,95248,,1163.0,,,68.0,88.0,88.0,2.0,1000.0,M-L,1.0,L,M,3.0,2.0,garbagecan,hairdryer,garbagecan10,hairdryer7,39.0,76.0,/static/Size_judgement/Stimuli/Size_stims/L/garbagecan/garbagecan11.jpg,/static/Size_judgement/Stimuli/Size_stims/M/hairdryer/hairdryer3.jpg,1.0,garbagecan,hairdryer,L,M,3.0,2.0,garbagecan10,hairdryer7,1.0,0.0,273.163,1.163,,
264,,size_choice_confirmation,,html-keyboard-response,264,385460,0.0-1.0-355.0-0.0,0,0,95248,,,,,,88.0,,,,,,,,,,,,,,,,,,,,,,,,,,,,,273.5,0.337,,
265,,iti,,html-keyboard-response,265,386464,0.0-1.0-356.0,0,0,95248,,,,,,,,,,,,,,,,,,,,,,,,,,,,,,,,,,,274.5,1.0,,
266,,size_choice,,html-keyboard-response,266,387085,0.0-1.0-358.0,0,0,95248,,620.0,,,75.0,89.0,89.0,2.0,2000.0,M-XL,0.0,M,XL,2.0,4.0,handsaw,car,handsaw5,car10,84.0,159.0,/static/Size_judgement/Stimuli/Size_stims/M/handsaw/handsaw1.jpg,/static/Size_judgement/Stimuli/Size_stims/XL/car/car9.jpg,0.0,car,handsaw,XL,M,4.0,2.0,car10,handsaw5,1.0,0.0,275.12,0.62,,
267,,size_choice_confirmation,,html-keyboard-response,267,387968,0.0-1.0-359.0-0.0,0,0,95248,,,,,,89.0,,,,,,,,,,,,,,,,,,,,,,,,,,,,,276.0,0.88,,
268,,iti,,html-keyboard-response,268,389972,0.0-1.0-360.0,0,0,95248,,,,,,,,,,,,,,,,,,,,,,,,,,,,,,,,,,,278.0,2.0,,0.97
269,,size_final_tally,,html-keyboard-response,269,426544,0.0-2.0,0,0,95248,,36570.0,,,68.0,,,,,,,,,,,,,,,,,,,,,,,,,,,,,,,,,
