,success,ttype,start_time,trial_type,trial_index,time_elapsed,internal_node_id,warning,missed_checkup,PID,view_history,rt,responses,repeat_instructions,key_press,index,trial_num,block,condition,iti,isi,high_group_on_left,left_group_value,right_group_value,left_item_value,right_item_value,left_img,right_img,left_img_path,right_img_path,left_chosen,chosen_group_value,unchosen_group_value,chosen_item_value,unchosen_item_value,chosen_img,unchosen_img,onset,duration,no_response,total_bonus_tally
0,True,full_screen,d06022022hr1426,fullscreen,0,7103,0.0-0.0,0,0,1,,,,,,,,,,,,,,,,,,,,,,,,,,,,,,,
1,,size_instructions,,instructions,1,10973,0.0-1.0-0.0-0.0,0,0,1,"[{""page_index"":0,""viewing_time"":3097},{""page_index"":1,""viewing_time"":163},{""page_index"":2,""viewing_time"":143},{""page_index"":3,""viewing_time"":160},{""page_index"":4,""viewing_time"":147},{""page_index"":5,""viewing_time"":158}]",3869.0,,,,,,,,,,,,,,,,,,,,,,,,,,,,,
2,,rl_comprehension_check,,survey-multi-choice,2,15024,0.0-1.0-0.0-1.0,0,0,1,,4049.0,"{""Q0"":""True"",""Q1"":""True"",""Q2"":""pointer finger for left and middle finger for right""}",0.0,,,,,,,,,,,,,,,,,,,,,,,,,,,
3,,,,html-keyboard-response,3,16056,0.0-1.0-1.0,0,0,1,,1030.0,,,50.0,,,,,,,,,,,,,,,,,,,,,,,,,,
4,,rl_choice,,html-keyboard-response,4,16991,0.0-1.0-2.0,0,0,1,,932.0,,,50.0,0.0,0.0,1.0,hard,3500.0,2000.0,1.0,60.0,40.0,80.0,40.0,A,B,/static/Simple_RL/Stimuli/Fractals_stims/A.jpg,/static/Simple_RL/Stimuli/Fractals_stims/B.jpg,1.0,60.0,40.0,80.0,40.0,A,B,0.932,0.932,0.0,
5,,rl_choice_confirmation,,html-keyboard-response,5,17562,0.0-1.0-3.0-0.0,0,0,1,,,,,,0.0,,,,,,,,,,,,,,,,,,,,,,1.5,0.568,,
6,,isi,,html-keyboard-response,6,17667,0.0-1.0-5.0,0,0,1,,,,,,,,,,,,,,,,,,,,,,,,,,,,3.5,2.0,,
7,,feedback,,html-keyboard-response,7,18672,0.0-1.0-6.0-0.0,0,0,1,,,,,,0.0,,,,,,,,,,,,,,,,,,,,,,4.5,1.0,,
8,,iti,,html-keyboard-response,8,18778,0.0-1.0-7.0,0,0,1,,,,,,,,,,,,,,,,,,,,,,,,,,,,8.0,3.5,,
9,,rl_choice,,html-keyboard-response,9,19232,0.0-1.0-9.0,0,0,1,,452.0,,,51.0,1.0,1.0,1.0,hard,1000.0,2000.0,1.0,60.0,40.0,80.0,20.0,A,B,/static/Simple_RL/Stimuli/Fractals_stims/A.jpg,/static/Simple_RL/Stimuli/Fractals_stims/B.jpg,0.0,40.0,60.0,20.0,80.0,B,A,8.452,0.452,0.0,
10,,rl_choice_confirmation,,html-keyboard-response,10,20281,0.0-1.0-10.0-0.0,0,0,1,,,,,,1.0,,,,,,,,,,,,,,,,,,,,,,9.5,1.048,,
11,,isi,,html-keyboard-response,11,20387,0.0-1.0-12.0,0,0,1,,,,,,,,,,,,,,,,,,,,,,,,,,,,11.5,2.0,,
12,,feedback,,html-keyboard-response,12,21391,0.0-1.0-13.0-0.0,0,0,1,,,,,,1.0,,,,,,,,,,,,,,,,,,,,,,12.5,1.0,,
13,,iti,,html-keyboard-response,13,21492,0.0-1.0-14.0,0,0,1,,,,,,,,,,,,,,,,,,,,,,,,,,,,13.5,1.0,,
14,,rl_choice,,html-keyboard-response,14,22996,0.0-1.0-16.0,0,0,1,,,,,,2.0,2.0,1.0,easy,2000.0,2000.0,0.0,20.0,80.0,40.0,100.0,D,C,/static/Simple_RL/Stimuli/Fractals_stims/D.jpg,/static/Simple_RL/Stimuli/Fractals_stims/C.jpg,,,,,,,,15.0,1.5,1.0,
15,,rl_choice_warning,,html-keyboard-response,15,23998,0.0-1.0-18.0-0.0,0,0,1,,,,,,,,,,,,,,,,,,,,,,,,,,,,16.0,1.0,,
16,,isi,,html-keyboard-response,16,24102,0.0-1.0-19.0,0,0,1,,,,,,,,,,,,,,,,,,,,,,,,,,,,18.0,2.0,,
17,,iti,,html-keyboard-response,17,24207,0.0-1.0-21.0,0,0,1,,,,,,,,,,,,,,,,,,,,,,,,,,,,20.0,2.0,,
18,,rl_choice,,html-keyboard-response,18,25711,0.0-1.0-23.0,0,0,1,,,,,,3.0,3.0,1.0,hard,1500.0,1000.0,0.0,40.0,60.0,20.0,60.0,B,A,/static/Simple_RL/Stimuli/Fractals_stims/B.jpg,/static/Simple_RL/Stimuli/Fractals_stims/A.jpg,,,,,,,,21.5,1.5,1.0,
19,,rl_choice_warning,,html-keyboard-response,19,26714,0.0-1.0-25.0-0.0,0,0,1,,,,,,,,,,,,,,,,,,,,,,,,,,,,22.5,1.0,,
20,,isi,,html-keyboard-response,20,26815,0.0-1.0-26.0,0,0,1,,,,,,,,,,,,,,,,,,,,,,,,,,,,23.5,1.0,,
21,,iti,,html-keyboard-response,21,26918,0.0-1.0-28.0,0,0,1,,,,,,,,,,,,,,,,,,,,,,,,,,,,25.0,1.5,,
22,,rl_choice,,html-keyboard-response,22,27284,0.0-1.0-30.0,0,0,1,,365.0,,,51.0,4.0,4.0,1.0,hard,1500.0,3000.0,0.0,40.0,60.0,40.0,60.0,B,A,/static/Simple_RL/Stimuli/Fractals_stims/B.jpg,/static/Simple_RL/Stimuli/Fractals_stims/A.jpg,0.0,60.0,40.0,60.0,40.0,A,B,25.365,0.365,0.0,
23,,rl_choice_confirmation,,html-keyboard-response,23,28426,0.0-1.0-31.0-0.0,0,0,1,,,,,,4.0,,,,,,,,,,,,,,,,,,,,,,26.5,1.135,,
24,,isi,,html-keyboard-response,24,28532,0.0-1.0-33.0,0,0,1,,,,,,,,,,,,,,,,,,,,,,,,,,,,29.5,3.0,,
25,,feedback,,html-keyboard-response,25,29535,0.0-1.0-34.0-0.0,0,0,1,,,,,,4.0,,,,,,,,,,,,,,,,,,,,,,30.5,1.0,,
26,,iti,,html-keyboard-response,26,29636,0.0-1.0-35.0,0,0,1,,,,,,,,,,,,,,,,,,,,,,,,,,,,32.0,1.5,,
27,,rl_choice,,html-keyboard-response,27,31140,0.0-1.0-37.0,0,0,1,,,,,,5.0,5.0,1.0,easy,1500.0,1500.0,1.0,80.0,20.0,80.0,0.0,C,D,/static/Simple_RL/Stimuli/Fractals_stims/C.jpg,/static/Simple_RL/Stimuli/Fractals_stims/D.jpg,,,,,,,,33.5,1.5,1.0,
28,,rl_choice_warning,,html-keyboard-response,28,32145,0.0-1.0-39.0-0.0,0,0,1,,,,,,,,,,,,,,,,,,,,,,,,,,,,34.5,1.0,,
29,,isi,,html-keyboard-response,29,32250,0.0-1.0-40.0,0,0,1,,,,,,,,,,,,,,,,,,,,,,,,,,,,36.0,1.5,,
30,,iti,,html-keyboard-response,30,32351,0.0-1.0-42.0,0,0,1,,,,,,,,,,,,,,,,,,,,,,,,,,,,37.5,1.5,,
31,,rl_choice,,html-keyboard-response,31,33853,0.0-1.0-44.0,0,0,1,,,,,,6.0,6.0,1.0,easy,1000.0,1000.0,1.0,80.0,20.0,60.0,40.0,C,D,/static/Simple_RL/Stimuli/Fractals_stims/C.jpg,/static/Simple_RL/Stimuli/Fractals_stims/D.jpg,,,,,,,,39.0,1.5,1.0,
32,,rl_choice_warning,,html-keyboard-response,32,34857,0.0-1.0-46.0-0.0,0,0,1,,,,,,,,,,,,,,,,,,,,,,,,,,,,40.0,1.0,,
33,,isi,,html-keyboard-response,33,34959,0.0-1.0-47.0,0,0,1,,,,,,,,,,,,,,,,,,,,,,,,,,,,41.0,1.0,,
34,,iti,,html-keyboard-response,34,35060,0.0-1.0-49.0,0,0,1,,,,,,,,,,,,,,,,,,,,,,,,,,,,42.0,1.0,,
35,,rl_choice,,html-keyboard-response,35,36564,0.0-1.0-51.0,0,0,1,,,,,,7.0,7.0,1.0,easy,3000.0,2000.0,0.0,20.0,80.0,0.0,80.0,D,C,/static/Simple_RL/Stimuli/Fractals_stims/D.jpg,/static/Simple_RL/Stimuli/Fractals_stims/C.jpg,,,,,,,,43.5,1.5,1.0,
36,,rl_choice_warning,,html-keyboard-response,36,37570,0.0-1.0-53.0-0.0,0,0,1,,,,,,,,,,,,,,,,,,,,,,,,,,,,44.5,1.0,,
37,,isi,,html-keyboard-response,37,37674,0.0-1.0-54.0,0,0,1,,,,,,,,,,,,,,,,,,,,,,,,,,,,46.5,2.0,,
38,,iti,,html-keyboard-response,38,37779,0.0-1.0-56.0,0,0,1,,,,,,,,,,,,,,,,,,,,,,,,,,,,49.5,3.0,,
39,,rl_choice,,html-keyboard-response,39,39284,0.0-1.0-58.0,0,0,1,,,,,,8.0,8.0,1.0,hard,2000.0,3500.0,0.0,40.0,60.0,40.0,60.0,B,A,/static/Simple_RL/Stimuli/Fractals_stims/B.jpg,/static/Simple_RL/Stimuli/Fractals_stims/A.jpg,,,,,,,,51.0,1.5,1.0,
40,,rl_choice_warning,,html-keyboard-response,40,40287,0.0-1.0-60.0-0.0,0,0,1,,,,,,,,,,,,,,,,,,,,,,,,,,,,52.0,1.0,,
41,,isi,,html-keyboard-response,41,40389,0.0-1.0-61.0,0,0,1,,,,,,,,,,,,,,,,,,,,,,,,,,,,55.5,3.5,,
42,,iti,,html-keyboard-response,42,40495,0.0-1.0-63.0,0,0,1,,,,,,,,,,,,,,,,,,,,,,,,,,,,57.5,2.0,,
43,,rl_choice,,html-keyboard-response,43,42000,0.0-1.0-65.0,0,0,1,,,,,,9.0,9.0,1.0,hard,2000.0,1000.0,1.0,60.0,40.0,60.0,20.0,A,B,/static/Simple_RL/Stimuli/Fractals_stims/A.jpg,/static/Simple_RL/Stimuli/Fractals_stims/B.jpg,,,,,,,,59.0,1.5,1.0,
44,,rl_choice_warning,,html-keyboard-response,44,43002,0.0-1.0-67.0-0.0,0,0,1,,,,,,,,,,,,,,,,,,,,,,,,,,,,60.0,1.0,,
45,,isi,,html-keyboard-response,45,43103,0.0-1.0-68.0,0,0,1,,,,,,,,,,,,,,,,,,,,,,,,,,,,61.0,1.0,,
46,,iti,,html-keyboard-response,46,43207,0.0-1.0-70.0,0,0,1,,,,,,,,,,,,,,,,,,,,,,,,,,,,63.0,2.0,,
47,,rl_choice,,html-keyboard-response,47,44713,0.0-1.0-72.0,0,0,1,,,,,,10.0,10.0,1.0,easy,1000.0,1000.0,0.0,20.0,80.0,0.0,80.0,D,C,/static/Simple_RL/Stimuli/Fractals_stims/D.jpg,/static/Simple_RL/Stimuli/Fractals_stims/C.jpg,,,,,,,,64.5,1.5,1.0,
48,,rl_choice_warning,,html-keyboard-response,48,45716,0.0-1.0-74.0-0.0,0,0,1,,,,,,,,,,,,,,,,,,,,,,,,,,,,65.5,1.0,,
49,,isi,,html-keyboard-response,49,45818,0.0-1.0-75.0,0,0,1,,,,,,,,,,,,,,,,,,,,,,,,,,,,66.5,1.0,,
50,,iti,,html-keyboard-response,50,45923,0.0-1.0-77.0,0,0,1,,,,,,,,,,,,,,,,,,,,,,,,,,,,67.5,1.0,,
51,,rl_choice,,html-keyboard-response,51,47428,0.0-1.0-79.0,0,0,1,,,,,,11.0,11.0,1.0,hard,1000.0,2000.0,0.0,40.0,60.0,40.0,60.0,B,A,/static/Simple_RL/Stimuli/Fractals_stims/B.jpg,/static/Simple_RL/Stimuli/Fractals_stims/A.jpg,,,,,,,,69.0,1.5,1.0,
52,,rl_choice_warning,,html-keyboard-response,52,48431,0.0-1.0-81.0-0.0,0,0,1,,,,,,,,,,,,,,,,,,,,,,,,,,,,70.0,1.0,,
53,,isi,,html-keyboard-response,53,48534,0.0-1.0-82.0,0,0,1,,,,,,,,,,,,,,,,,,,,,,,,,,,,72.0,2.0,,
54,,iti,,html-keyboard-response,54,48638,0.0-1.0-84.0,0,0,1,,,,,,,,,,,,,,,,,,,,,,,,,,,,73.0,1.0,,
55,,rl_choice,,html-keyboard-response,55,50142,0.0-1.0-86.0,0,0,1,,,,,,12.0,12.0,1.0,hard,1000.0,1000.0,0.0,40.0,60.0,60.0,80.0,B,A,/static/Simple_RL/Stimuli/Fractals_stims/B.jpg,/static/Simple_RL/Stimuli/Fractals_stims/A.jpg,,,,,,,,74.5,1.5,1.0,
56,,rl_choice_warning,,html-keyboard-response,56,51146,0.0-1.0-88.0-0.0,0,0,1,,,,,,,,,,,,,,,,,,,,,,,,,,,,75.5,1.0,,
57,,isi,,html-keyboard-response,57,51249,0.0-1.0-89.0,0,0,1,,,,,,,,,,,,,,,,,,,,,,,,,,,,76.5,1.0,,
58,,iti,,html-keyboard-response,58,51354,0.0-1.0-91.0,0,0,1,,,,,,,,,,,,,,,,,,,,,,,,,,,,77.5,1.0,,
59,,rl_choice,,html-keyboard-response,59,52857,0.0-1.0-93.0,0,0,1,,,,,,13.0,13.0,1.0,hard,3000.0,1500.0,1.0,60.0,40.0,40.0,60.0,A,B,/static/Simple_RL/Stimuli/Fractals_stims/A.jpg,/static/Simple_RL/Stimuli/Fractals_stims/B.jpg,,,,,,,,79.0,1.5,1.0,
60,,rl_choice_warning,,html-keyboard-response,60,53862,0.0-1.0-95.0-0.0,0,0,1,,,,,,,,,,,,,,,,,,,,,,,,,,,,80.0,1.0,,
61,,isi,,html-keyboard-response,61,53967,0.0-1.0-96.0,0,0,1,,,,,,,,,,,,,,,,,,,,,,,,,,,,81.5,1.5,,
62,,iti,,html-keyboard-response,62,54072,0.0-1.0-98.0,0,0,1,,,,,,,,,,,,,,,,,,,,,,,,,,,,84.5,3.0,,
63,,rl_choice,,html-keyboard-response,63,55578,0.0-1.0-100.0,0,0,1,,,,,,14.0,14.0,1.0,easy,1500.0,1000.0,1.0,80.0,20.0,100.0,40.0,C,D,/static/Simple_RL/Stimuli/Fractals_stims/C.jpg,/static/Simple_RL/Stimuli/Fractals_stims/D.jpg,,,,,,,,86.0,1.5,1.0,
64,,rl_choice_warning,,html-keyboard-response,64,56580,0.0-1.0-102.0-0.0,0,0,1,,,,,,,,,,,,,,,,,,,,,,,,,,,,87.0,1.0,,
65,,isi,,html-keyboard-response,65,56681,0.0-1.0-103.0,0,0,1,,,,,,,,,,,,,,,,,,,,,,,,,,,,88.0,1.0,,
66,,iti,,html-keyboard-response,66,56783,0.0-1.0-105.0,0,0,1,,,,,,,,,,,,,,,,,,,,,,,,,,,,89.5,1.5,,
67,,rl_choice,,html-keyboard-response,67,58287,0.0-1.0-107.0,0,0,1,,,,,,15.0,15.0,1.0,hard,1000.0,3000.0,1.0,60.0,40.0,60.0,60.0,A,B,/static/Simple_RL/Stimuli/Fractals_stims/A.jpg,/static/Simple_RL/Stimuli/Fractals_stims/B.jpg,,,,,,,,91.0,1.5,1.0,
68,,rl_choice_warning,,html-keyboard-response,68,59289,0.0-1.0-109.0-0.0,0,0,1,,,,,,,,,,,,,,,,,,,,,,,,,,,,92.0,1.0,,
69,,isi,,html-keyboard-response,69,59391,0.0-1.0-110.0,0,0,1,,,,,,,,,,,,,,,,,,,,,,,,,,,,95.0,3.0,,
70,,iti,,html-keyboard-response,70,59495,0.0-1.0-112.0,0,0,1,,,,,,,,,,,,,,,,,,,,,,,,,,,,96.0,1.0,,
71,,rl_choice,,html-keyboard-response,71,60411,0.0-1.0-114.0,0,0,1,,914.0,,,51.0,16.0,16.0,1.0,hard,1500.0,1000.0,1.0,60.0,40.0,60.0,40.0,A,B,/static/Simple_RL/Stimuli/Fractals_stims/A.jpg,/static/Simple_RL/Stimuli/Fractals_stims/B.jpg,0.0,40.0,60.0,40.0,60.0,B,A,96.914,0.914,0.0,
72,,rl_choice_confirmation,,html-keyboard-response,72,61003,0.0-1.0-115.0-0.0,0,0,1,,,,,,16.0,,,,,,,,,,,,,,,,,,,,,,97.5,0.586,,
73,,isi,,html-keyboard-response,73,61106,0.0-1.0-117.0,0,0,1,,,,,,,,,,,,,,,,,,,,,,,,,,,,98.5,1.0,,
74,,feedback,,html-keyboard-response,74,62110,0.0-1.0-118.0-0.0,0,0,1,,,,,,16.0,,,,,,,,,,,,,,,,,,,,,,99.5,1.0,,
75,,iti,,html-keyboard-response,75,62212,0.0-1.0-119.0,0,0,1,,,,,,,,,,,,,,,,,,,,,,,,,,,,101.0,1.5,,
76,,rl_choice,,html-keyboard-response,76,62410,0.0-1.0-121.0,0,0,1,,197.0,,,50.0,17.0,17.0,1.0,easy,2000.0,2000.0,1.0,80.0,20.0,100.0,40.0,C,D,/static/Simple_RL/Stimuli/Fractals_stims/C.jpg,/static/Simple_RL/Stimuli/Fractals_stims/D.jpg,1.0,80.0,20.0,100.0,40.0,C,D,101.197,0.197,0.0,
77,,rl_choice_confirmation,,html-keyboard-response,77,63716,0.0-1.0-122.0-0.0,0,0,1,,,,,,17.0,,,,,,,,,,,,,,,,,,,,,,102.5,1.303,,
78,,isi,,html-keyboard-response,78,63817,0.0-1.0-124.0,0,0,1,,,,,,,,,,,,,,,,,,,,,,,,,,,,104.5,2.0,,
79,,feedback,,html-keyboard-response,79,64820,0.0-1.0-125.0-0.0,0,0,1,,,,,,17.0,,,,,,,,,,,,,,,,,,,,,,105.5,1.0,,
80,,iti,,html-keyboard-response,80,64922,0.0-1.0-126.0,0,0,1,,,,,,,,,,,,,,,,,,,,,,,,,,,,107.5,2.0,,
81,,rl_choice,,html-keyboard-response,81,66427,0.0-1.0-128.0,0,0,1,,,,,,18.0,18.0,1.0,hard,1000.0,1500.0,1.0,60.0,40.0,80.0,60.0,A,B,/static/Simple_RL/Stimuli/Fractals_stims/A.jpg,/static/Simple_RL/Stimuli/Fractals_stims/B.jpg,,,,,,,,109.0,1.5,1.0,
82,,rl_choice_warning,,html-keyboard-response,82,67428,0.0-1.0-130.0-0.0,0,0,1,,,,,,,,,,,,,,,,,,,,,,,,,,,,110.0,1.0,,
83,,isi,,html-keyboard-response,83,67530,0.0-1.0-131.0,0,0,1,,,,,,,,,,,,,,,,,,,,,,,,,,,,111.5,1.5,,
84,,iti,,html-keyboard-response,84,67633,0.0-1.0-133.0,0,0,1,,,,,,,,,,,,,,,,,,,,,,,,,,,,112.5,1.0,,
85,,rl_choice,,html-keyboard-response,85,69140,0.0-1.0-135.0,0,0,1,,,,,,19.0,19.0,1.0,hard,1000.0,1000.0,1.0,60.0,40.0,60.0,20.0,A,B,/static/Simple_RL/Stimuli/Fractals_stims/A.jpg,/static/Simple_RL/Stimuli/Fractals_stims/B.jpg,,,,,,,,114.0,1.5,1.0,
86,,rl_choice_warning,,html-keyboard-response,86,70143,0.0-1.0-137.0-0.0,0,0,1,,,,,,,,,,,,,,,,,,,,,,,,,,,,115.0,1.0,,
87,,isi,,html-keyboard-response,87,70246,0.0-1.0-138.0,0,0,1,,,,,,,,,,,,,,,,,,,,,,,,,,,,116.0,1.0,,
88,,iti,,html-keyboard-response,88,70351,0.0-1.0-140.0,0,0,1,,,,,,,,,,,,,,,,,,,,,,,,,,,,117.0,1.0,,
89,,rl_choice,,html-keyboard-response,89,71855,0.0-1.0-142.0,0,0,1,,,,,,20.0,20.0,1.0,easy,1000.0,1000.0,0.0,20.0,80.0,0.0,60.0,D,C,/static/Simple_RL/Stimuli/Fractals_stims/D.jpg,/static/Simple_RL/Stimuli/Fractals_stims/C.jpg,,,,,,,,118.5,1.5,1.0,
90,,rl_choice_warning,,html-keyboard-response,90,72857,0.0-1.0-144.0-0.0,0,0,1,,,,,,,,,,,,,,,,,,,,,,,,,,,,119.5,1.0,,
91,,isi,,html-keyboard-response,91,72959,0.0-1.0-145.0,0,0,1,,,,,,,,,,,,,,,,,,,,,,,,,,,,120.5,1.0,,
92,,iti,,html-keyboard-response,92,73060,0.0-1.0-147.0,0,0,1,,,,,,,,,,,,,,,,,,,,,,,,,,,,121.5,1.0,,
93,,rl_choice,,html-keyboard-response,93,74564,0.0-1.0-149.0,0,0,1,,,,,,21.0,21.0,1.0,easy,2000.0,1500.0,1.0,80.0,20.0,60.0,20.0,C,D,/static/Simple_RL/Stimuli/Fractals_stims/C.jpg,/static/Simple_RL/Stimuli/Fractals_stims/D.jpg,,,,,,,,123.0,1.5,1.0,
94,,rl_choice_warning,,html-keyboard-response,94,75568,0.0-1.0-151.0-0.0,0,0,1,,,,,,,,,,,,,,,,,,,,,,,,,,,,124.0,1.0,,
95,,isi,,html-keyboard-response,95,75673,0.0-1.0-152.0,0,0,1,,,,,,,,,,,,,,,,,,,,,,,,,,,,125.5,1.5,,
96,,iti,,html-keyboard-response,96,75776,0.0-1.0-154.0,0,0,1,,,,,,,,,,,,,,,,,,,,,,,,,,,,127.5,2.0,,
97,,rl_choice,,html-keyboard-response,97,77281,0.0-1.0-156.0,0,0,1,,,,,,22.0,22.0,1.0,easy,1000.0,1000.0,1.0,80.0,20.0,100.0,0.0,C,D,/static/Simple_RL/Stimuli/Fractals_stims/C.jpg,/static/Simple_RL/Stimuli/Fractals_stims/D.jpg,,,,,,,,129.0,1.5,1.0,
98,,rl_choice_warning,,html-keyboard-response,98,78287,0.0-1.0-158.0-0.0,0,0,1,,,,,,,,,,,,,,,,,,,,,,,,,,,,130.0,1.0,,
99,,isi,,html-keyboard-response,99,78388,0.0-1.0-159.0,0,0,1,,,,,,,,,,,,,,,,,,,,,,,,,,,,131.0,1.0,,
100,,iti,,html-keyboard-response,100,78490,0.0-1.0-161.0,0,0,1,,,,,,,,,,,,,,,,,,,,,,,,,,,,132.0,1.0,,
101,,rl_choice,,html-keyboard-response,101,79994,0.0-1.0-163.0,0,0,1,,,,,,23.0,23.0,1.0,easy,1500.0,3000.0,1.0,80.0,20.0,80.0,20.0,C,D,/static/Simple_RL/Stimuli/Fractals_stims/C.jpg,/static/Simple_RL/Stimuli/Fractals_stims/D.jpg,,,,,,,,133.5,1.5,1.0,
102,,rl_choice_warning,,html-keyboard-response,102,80998,0.0-1.0-165.0-0.0,0,0,1,,,,,,,,,,,,,,,,,,,,,,,,,,,,134.5,1.0,,
103,,isi,,html-keyboard-response,103,81103,0.0-1.0-166.0,0,0,1,,,,,,,,,,,,,,,,,,,,,,,,,,,,137.5,3.0,,
104,,iti,,html-keyboard-response,104,81208,0.0-1.0-168.0,0,0,1,,,,,,,,,,,,,,,,,,,,,,,,,,,,139.0,1.5,,
105,,rl_choice,,html-keyboard-response,105,82713,0.0-1.0-170.0,0,0,1,,,,,,24.0,24.0,1.0,hard,2000.0,1500.0,0.0,40.0,60.0,40.0,60.0,B,A,/static/Simple_RL/Stimuli/Fractals_stims/B.jpg,/static/Simple_RL/Stimuli/Fractals_stims/A.jpg,,,,,,,,140.5,1.5,1.0,
106,,rl_choice_warning,,html-keyboard-response,106,83717,0.0-1.0-172.0-0.0,0,0,1,,,,,,,,,,,,,,,,,,,,,,,,,,,,141.5,1.0,,
107,,isi,,html-keyboard-response,107,83822,0.0-1.0-173.0,0,0,1,,,,,,,,,,,,,,,,,,,,,,,,,,,,143.0,1.5,,
108,,iti,,html-keyboard-response,108,83924,0.0-1.0-175.0,0,0,1,,,,,,,,,,,,,,,,,,,,,,,,,,,,145.0,2.0,,
109,,rl_choice,,html-keyboard-response,109,85428,0.0-1.0-177.0,0,0,1,,,,,,25.0,25.0,1.0,hard,3000.0,1500.0,1.0,60.0,40.0,40.0,40.0,A,B,/static/Simple_RL/Stimuli/Fractals_stims/A.jpg,/static/Simple_RL/Stimuli/Fractals_stims/B.jpg,,,,,,,,146.5,1.5,1.0,
110,,rl_choice_warning,,html-keyboard-response,110,86432,0.0-1.0-179.0-0.0,0,0,1,,,,,,,,,,,,,,,,,,,,,,,,,,,,147.5,1.0,,
111,,isi,,html-keyboard-response,111,86537,0.0-1.0-180.0,0,0,1,,,,,,,,,,,,,,,,,,,,,,,,,,,,149.0,1.5,,
112,,iti,,html-keyboard-response,112,86642,0.0-1.0-182.0,0,0,1,,,,,,,,,,,,,,,,,,,,,,,,,,,,152.0,3.0,,
113,,rl_choice,,html-keyboard-response,113,88148,0.0-1.0-184.0,0,0,1,,,,,,26.0,26.0,1.0,hard,1000.0,2000.0,0.0,40.0,60.0,40.0,80.0,B,A,/static/Simple_RL/Stimuli/Fractals_stims/B.jpg,/static/Simple_RL/Stimuli/Fractals_stims/A.jpg,,,,,,,,153.5,1.5,1.0,
114,,rl_choice_warning,,html-keyboard-response,114,89151,0.0-1.0-186.0-0.0,0,0,1,,,,,,,,,,,,,,,,,,,,,,,,,,,,154.5,1.0,,
115,,isi,,html-keyboard-response,115,89252,0.0-1.0-187.0,0,0,1,,,,,,,,,,,,,,,,,,,,,,,,,,,,156.5,2.0,,
116,,iti,,html-keyboard-response,116,89353,0.0-1.0-189.0,0,0,1,,,,,,,,,,,,,,,,,,,,,,,,,,,,157.5,1.0,,
117,,rl_choice,,html-keyboard-response,117,90857,0.0-1.0-191.0,0,0,1,,,,,,27.0,27.0,1.0,easy,3000.0,1000.0,1.0,80.0,20.0,80.0,40.0,C,D,/static/Simple_RL/Stimuli/Fractals_stims/C.jpg,/static/Simple_RL/Stimuli/Fractals_stims/D.jpg,,,,,,,,159.0,1.5,1.0,
118,,rl_choice_warning,,html-keyboard-response,118,91860,0.0-1.0-193.0-0.0,0,0,1,,,,,,,,,,,,,,,,,,,,,,,,,,,,160.0,1.0,,
119,,isi,,html-keyboard-response,119,91961,0.0-1.0-194.0,0,0,1,,,,,,,,,,,,,,,,,,,,,,,,,,,,161.0,1.0,,
120,,iti,,html-keyboard-response,120,92063,0.0-1.0-196.0,0,0,1,,,,,,,,,,,,,,,,,,,,,,,,,,,,164.0,3.0,,
121,,rl_choice,,html-keyboard-response,121,93567,0.0-1.0-198.0,0,0,1,,,,,,28.0,28.0,1.0,easy,1000.0,3500.0,1.0,80.0,20.0,60.0,20.0,C,D,/static/Simple_RL/Stimuli/Fractals_stims/C.jpg,/static/Simple_RL/Stimuli/Fractals_stims/D.jpg,,,,,,,,165.5,1.5,1.0,
122,,rl_choice_warning,,html-keyboard-response,122,94572,0.0-1.0-200.0-0.0,0,0,1,,,,,,,,,,,,,,,,,,,,,,,,,,,,166.5,1.0,,
123,,isi,,html-keyboard-response,123,94676,0.0-1.0-201.0,0,0,1,,,,,,,,,,,,,,,,,,,,,,,,,,,,170.0,3.5,,
124,,iti,,html-keyboard-response,124,94780,0.0-1.0-203.0,0,0,1,,,,,,,,,,,,,,,,,,,,,,,,,,,,171.0,1.0,,
125,,rl_choice,,html-keyboard-response,125,96285,0.0-1.0-205.0,0,0,1,,,,,,29.0,29.0,1.0,hard,1500.0,1000.0,0.0,40.0,60.0,60.0,40.0,B,A,/static/Simple_RL/Stimuli/Fractals_stims/B.jpg,/static/Simple_RL/Stimuli/Fractals_stims/A.jpg,,,,,,,,172.5,1.5,1.0,
126,,rl_choice_warning,,html-keyboard-response,126,97289,0.0-1.0-207.0-0.0,0,0,1,,,,,,,,,,,,,,,,,,,,,,,,,,,,173.5,1.0,,
127,,isi,,html-keyboard-response,127,97394,0.0-1.0-208.0,0,0,1,,,,,,,,,,,,,,,,,,,,,,,,,,,,174.5,1.0,,
128,,iti,,html-keyboard-response,128,97497,0.0-1.0-210.0,0,0,1,,,,,,,,,,,,,,,,,,,,,,,,,,,,176.0,1.5,,
129,,rl_choice,,html-keyboard-response,129,99003,0.0-1.0-212.0,0,0,1,,,,,,30.0,30.0,1.0,easy,1000.0,1500.0,1.0,80.0,20.0,100.0,20.0,C,D,/static/Simple_RL/Stimuli/Fractals_stims/C.jpg,/static/Simple_RL/Stimuli/Fractals_stims/D.jpg,,,,,,,,177.5,1.5,1.0,
130,,rl_choice_warning,,html-keyboard-response,130,100009,0.0-1.0-214.0-0.0,0,0,1,,,,,,,,,,,,,,,,,,,,,,,,,,,,178.5,1.0,,
131,,isi,,html-keyboard-response,131,100111,0.0-1.0-215.0,0,0,1,,,,,,,,,,,,,,,,,,,,,,,,,,,,180.0,1.5,,
132,,iti,,html-keyboard-response,132,100212,0.0-1.0-217.0,0,0,1,,,,,,,,,,,,,,,,,,,,,,,,,,,,181.0,1.0,,
133,,rl_choice,,html-keyboard-response,133,101716,0.0-1.0-219.0,0,0,1,,,,,,31.0,31.0,1.0,easy,2000.0,1500.0,0.0,20.0,80.0,40.0,100.0,D,C,/static/Simple_RL/Stimuli/Fractals_stims/D.jpg,/static/Simple_RL/Stimuli/Fractals_stims/C.jpg,,,,,,,,182.5,1.5,1.0,
134,,rl_choice_warning,,html-keyboard-response,134,102719,0.0-1.0-221.0-0.0,0,0,1,,,,,,,,,,,,,,,,,,,,,,,,,,,,183.5,1.0,,
135,,isi,,html-keyboard-response,135,102822,0.0-1.0-222.0,0,0,1,,,,,,,,,,,,,,,,,,,,,,,,,,,,185.0,1.5,,
136,,iti,,html-keyboard-response,136,102927,0.0-1.0-224.0,0,0,1,,,,,,,,,,,,,,,,,,,,,,,,,,,,187.0,2.0,,
137,,rl_choice,,html-keyboard-response,137,104433,0.0-1.0-226.0,0,0,1,,,,,,32.0,32.0,1.0,hard,1500.0,1000.0,0.0,40.0,60.0,40.0,80.0,B,A,/static/Simple_RL/Stimuli/Fractals_stims/B.jpg,/static/Simple_RL/Stimuli/Fractals_stims/A.jpg,,,,,,,,188.5,1.5,1.0,
138,,rl_choice_warning,,html-keyboard-response,138,105439,0.0-1.0-228.0-0.0,0,0,1,,,,,,,,,,,,,,,,,,,,,,,,,,,,189.5,1.0,,
139,,isi,,html-keyboard-response,139,105540,0.0-1.0-229.0,0,0,1,,,,,,,,,,,,,,,,,,,,,,,,,,,,190.5,1.0,,
140,,iti,,html-keyboard-response,140,105641,0.0-1.0-231.0,0,0,1,,,,,,,,,,,,,,,,,,,,,,,,,,,,192.0,1.5,,
141,,rl_choice,,html-keyboard-response,141,107145,0.0-1.0-233.0,0,0,1,,,,,,33.0,33.0,1.0,easy,1000.0,1000.0,0.0,20.0,80.0,40.0,100.0,D,C,/static/Simple_RL/Stimuli/Fractals_stims/D.jpg,/static/Simple_RL/Stimuli/Fractals_stims/C.jpg,,,,,,,,193.5,1.5,1.0,
142,,rl_choice_warning,,html-keyboard-response,142,108150,0.0-1.0-235.0-0.0,0,0,1,,,,,,,,,,,,,,,,,,,,,,,,,,,,194.5,1.0,,
143,,isi,,html-keyboard-response,143,108255,0.0-1.0-236.0,0,0,1,,,,,,,,,,,,,,,,,,,,,,,,,,,,195.5,1.0,,
144,,iti,,html-keyboard-response,144,108356,0.0-1.0-238.0,0,0,1,,,,,,,,,,,,,,,,,,,,,,,,,,,,196.5,1.0,,
145,,rl_choice,,html-keyboard-response,145,109860,0.0-1.0-240.0,0,0,1,,,,,,34.0,34.0,1.0,easy,3500.0,3000.0,1.0,80.0,20.0,80.0,40.0,C,D,/static/Simple_RL/Stimuli/Fractals_stims/C.jpg,/static/Simple_RL/Stimuli/Fractals_stims/D.jpg,,,,,,,,198.0,1.5,1.0,
146,,rl_choice_warning,,html-keyboard-response,146,110863,0.0-1.0-242.0-0.0,0,0,1,,,,,,,,,,,,,,,,,,,,,,,,,,,,199.0,1.0,,
147,,isi,,html-keyboard-response,147,110966,0.0-1.0-243.0,0,0,1,,,,,,,,,,,,,,,,,,,,,,,,,,,,202.0,3.0,,
148,,iti,,html-keyboard-response,148,111072,0.0-1.0-245.0,0,0,1,,,,,,,,,,,,,,,,,,,,,,,,,,,,205.5,3.5,,
149,,rl_choice,,html-keyboard-response,149,112575,0.0-1.0-247.0,0,0,1,,,,,,35.0,35.0,1.0,easy,1500.0,2000.0,1.0,80.0,20.0,60.0,40.0,C,D,/static/Simple_RL/Stimuli/Fractals_stims/C.jpg,/static/Simple_RL/Stimuli/Fractals_stims/D.jpg,,,,,,,,207.0,1.5,1.0,
150,,rl_choice_warning,,html-keyboard-response,150,113577,0.0-1.0-249.0-0.0,0,0,1,,,,,,,,,,,,,,,,,,,,,,,,,,,,208.0,1.0,,
151,,isi,,html-keyboard-response,151,113681,0.0-1.0-250.0,0,0,1,,,,,,,,,,,,,,,,,,,,,,,,,,,,210.0,2.0,,
152,,iti,,html-keyboard-response,152,113785,0.0-1.0-252.0,0,0,1,,,,,,,,,,,,,,,,,,,,,,,,,,,,211.5,1.5,,
153,,rl_choice,,html-keyboard-response,153,115289,0.0-1.0-254.0,0,0,1,,,,,,36.0,36.0,1.0,easy,1500.0,1500.0,0.0,20.0,80.0,20.0,100.0,D,C,/static/Simple_RL/Stimuli/Fractals_stims/D.jpg,/static/Simple_RL/Stimuli/Fractals_stims/C.jpg,,,,,,,,213.0,1.5,1.0,
154,,rl_choice_warning,,html-keyboard-response,154,116292,0.0-1.0-256.0-0.0,0,0,1,,,,,,,,,,,,,,,,,,,,,,,,,,,,214.0,1.0,,
155,,isi,,html-keyboard-response,155,116393,0.0-1.0-257.0,0,0,1,,,,,,,,,,,,,,,,,,,,,,,,,,,,215.5,1.5,,
156,,iti,,html-keyboard-response,156,116495,0.0-1.0-259.0,0,0,1,,,,,,,,,,,,,,,,,,,,,,,,,,,,217.0,1.5,,
157,,rl_choice,,html-keyboard-response,157,117999,0.0-1.0-261.0,0,0,1,,,,,,37.0,37.0,1.0,hard,2000.0,1000.0,1.0,60.0,40.0,60.0,40.0,A,B,/static/Simple_RL/Stimuli/Fractals_stims/A.jpg,/static/Simple_RL/Stimuli/Fractals_stims/B.jpg,,,,,,,,218.5,1.5,1.0,
158,,rl_choice_warning,,html-keyboard-response,158,119004,0.0-1.0-263.0-0.0,0,0,1,,,,,,,,,,,,,,,,,,,,,,,,,,,,219.5,1.0,,
159,,isi,,html-keyboard-response,159,119109,0.0-1.0-264.0,0,0,1,,,,,,,,,,,,,,,,,,,,,,,,,,,,220.5,1.0,,
160,,iti,,html-keyboard-response,160,119215,0.0-1.0-266.0,0,0,1,,,,,,,,,,,,,,,,,,,,,,,,,,,,222.5,2.0,,
161,,rl_choice,,html-keyboard-response,161,120719,0.0-1.0-268.0,0,0,1,,,,,,38.0,38.0,1.0,hard,1000.0,1500.0,0.0,40.0,60.0,20.0,40.0,B,A,/static/Simple_RL/Stimuli/Fractals_stims/B.jpg,/static/Simple_RL/Stimuli/Fractals_stims/A.jpg,,,,,,,,224.0,1.5,1.0,
162,,rl_choice_warning,,html-keyboard-response,162,121721,0.0-1.0-270.0-0.0,0,0,1,,,,,,,,,,,,,,,,,,,,,,,,,,,,225.0,1.0,,
163,,isi,,html-keyboard-response,163,121823,0.0-1.0-271.0,0,0,1,,,,,,,,,,,,,,,,,,,,,,,,,,,,226.5,1.5,,
164,,iti,,html-keyboard-response,164,121927,0.0-1.0-273.0,0,0,1,,,,,,,,,,,,,,,,,,,,,,,,,,,,227.5,1.0,,
165,,rl_choice,,html-keyboard-response,165,123096,0.0-1.0-275.0,0,0,1,,1168.0,,,51.0,39.0,39.0,1.0,easy,1000.0,1000.0,0.0,20.0,80.0,0.0,60.0,D,C,/static/Simple_RL/Stimuli/Fractals_stims/D.jpg,/static/Simple_RL/Stimuli/Fractals_stims/C.jpg,0.0,80.0,20.0,60.0,0.0,C,D,228.668,1.168,0.0,
166,,rl_choice_confirmation,,html-keyboard-response,166,123433,0.0-1.0-276.0-0.0,0,0,1,,,,,,39.0,,,,,,,,,,,,,,,,,,,,,,229.0,0.332,,
167,,isi,,html-keyboard-response,167,123535,0.0-1.0-278.0,0,0,1,,,,,,,,,,,,,,,,,,,,,,,,,,,,230.0,1.0,,
168,,feedback,,html-keyboard-response,168,124537,0.0-1.0-279.0-0.0,0,0,1,,,,,,39.0,,,,,,,,,,,,,,,,,,,,,,231.0,1.0,,
169,,iti,,html-keyboard-response,169,124639,0.0-1.0-280.0,0,0,1,,,,,,,,,,,,,,,,,,,,,,,,,,,,232.0,1.0,,
170,,block_over,,html-keyboard-response,170,132381,0.0-1.0-281.0-0.0,0,0,1,,7742.0,,,50.0,39.0,,,,,,,,,,,,,,,,,,,,,,,,,
171,,start_run,,html-keyboard-response,171,133410,0.0-1.0-281.0-1.0,0,0,1,,1029.0,,,84.0,,,,,,,,,,,,,,,,,,,,,,,,,,
172,,rl_choice,,html-keyboard-response,172,133645,0.0-1.0-282.0,0,0,1,,234.0,,,50.0,40.0,40.0,2.0,easy,1500.0,2000.0,1.0,80.0,20.0,60.0,20.0,C,D,/static/Simple_RL/Stimuli/Fractals_stims/C.jpg,/static/Simple_RL/Stimuli/Fractals_stims/D.jpg,1.0,80.0,20.0,60.0,20.0,C,D,0.234,0.234,0.0,
173,,rl_choice_confirmation,,html-keyboard-response,173,134916,0.0-1.0-283.0-0.0,0,0,1,,,,,,40.0,,,,,,,,,,,,,,,,,,,,,,1.5,1.266,,
174,,isi,,html-keyboard-response,174,135020,0.0-1.0-285.0,0,0,1,,,,,,,,,,,,,,,,,,,,,,,,,,,,3.5,2.0,,
175,,feedback,,html-keyboard-response,175,136025,0.0-1.0-286.0-0.0,0,0,1,,,,,,40.0,,,,,,,,,,,,,,,,,,,,,,4.5,1.0,,
176,,iti,,html-keyboard-response,176,136126,0.0-1.0-287.0,0,0,1,,,,,,,,,,,,,,,,,,,,,,,,,,,,6.0,1.5,,
177,,rl_choice,,html-keyboard-response,177,137630,0.0-1.0-289.0,0,0,1,,,,,,41.0,41.0,2.0,hard,1000.0,2000.0,0.0,40.0,60.0,60.0,60.0,B,A,/static/Simple_RL/Stimuli/Fractals_stims/B.jpg,/static/Simple_RL/Stimuli/Fractals_stims/A.jpg,,,,,,,,7.5,1.5,1.0,
178,,rl_choice_warning,,html-keyboard-response,178,138633,0.0-1.0-291.0-0.0,1,0,1,,,,,,,,,,,,,,,,,,,,,,,,,,,,8.5,1.0,,
179,,isi,,html-keyboard-response,179,138737,0.0-1.0-292.0,0,0,1,,,,,,,,,,,,,,,,,,,,,,,,,,,,10.5,2.0,,
180,,iti,,html-keyboard-response,180,138841,0.0-1.0-294.0,0,0,1,,,,,,,,,,,,,,,,,,,,,,,,,,,,11.5,1.0,,
181,,rl_choice,,html-keyboard-response,181,140345,0.0-1.0-296.0,0,0,1,,,,,,42.0,42.0,2.0,hard,1500.0,1000.0,0.0,40.0,60.0,20.0,80.0,B,A,/static/Simple_RL/Stimuli/Fractals_stims/B.jpg,/static/Simple_RL/Stimuli/Fractals_stims/A.jpg,,,,,,,,13.0,1.5,1.0,
182,,rl_choice_warning,,html-keyboard-response,182,141348,0.0-1.0-298.0-0.0,1,0,1,,,,,,,,,,,,,,,,,,,,,,,,,,,,14.0,1.0,,
183,,isi,,html-keyboard-response,183,141449,0.0-1.0-299.0,0,0,1,,,,,,,,,,,,,,,,,,,,,,,,,,,,15.0,1.0,,
184,,iti,,html-keyboard-response,184,141554,0.0-1.0-301.0,0,0,1,,,,,,,,,,,,,,,,,,,,,,,,,,,,16.5,1.5,,
185,,rl_choice,,html-keyboard-response,185,143060,0.0-1.0-303.0,0,0,1,,,,,,43.0,43.0,2.0,hard,1000.0,2000.0,0.0,40.0,60.0,20.0,80.0,B,A,/static/Simple_RL/Stimuli/Fractals_stims/B.jpg,/static/Simple_RL/Stimuli/Fractals_stims/A.jpg,,,,,,,,18.0,1.5,1.0,
186,,rl_choice_warning,,html-keyboard-response,186,144066,0.0-1.0-305.0-0.0,1,0,1,,,,,,,,,,,,,,,,,,,,,,,,,,,,19.0,1.0,,
187,,isi,,html-keyboard-response,187,144171,0.0-1.0-306.0,0,0,1,,,,,,,,,,,,,,,,,,,,,,,,,,,,21.0,2.0,,
188,,iti,,html-keyboard-response,188,144276,0.0-1.0-308.0,0,0,1,,,,,,,,,,,,,,,,,,,,,,,,,,,,22.0,1.0,,
189,,rl_choice,,html-keyboard-response,189,145780,0.0-1.0-310.0,0,0,1,,,,,,44.0,44.0,2.0,hard,1000.0,1000.0,0.0,40.0,60.0,40.0,40.0,B,A,/static/Simple_RL/Stimuli/Fractals_stims/B.jpg,/static/Simple_RL/Stimuli/Fractals_stims/A.jpg,,,,,,,,23.5,1.5,1.0,
190,,rl_choice_warning,,html-keyboard-response,190,146782,0.0-1.0-312.0-0.0,1,0,1,,,,,,,,,,,,,,,,,,,,,,,,,,,,24.5,1.0,,
191,,isi,,html-keyboard-response,191,146884,0.0-1.0-313.0,0,0,1,,,,,,,,,,,,,,,,,,,,,,,,,,,,25.5,1.0,,
192,,iti,,html-keyboard-response,192,146987,0.0-1.0-315.0,0,0,1,,,,,,,,,,,,,,,,,,,,,,,,,,,,26.5,1.0,,
193,,rl_choice,,html-keyboard-response,193,148489,0.0-1.0-317.0,0,0,1,,,,,,45.0,45.0,2.0,hard,2000.0,1500.0,0.0,40.0,60.0,20.0,40.0,B,A,/static/Simple_RL/Stimuli/Fractals_stims/B.jpg,/static/Simple_RL/Stimuli/Fractals_stims/A.jpg,,,,,,,,28.0,1.5,1.0,
194,,rl_choice_warning,,html-keyboard-response,194,149492,0.0-1.0-319.0-0.0,1,0,1,,,,,,,,,,,,,,,,,,,,,,,,,,,,29.0,1.0,,
195,,isi,,html-keyboard-response,195,149597,0.0-1.0-320.0,0,0,1,,,,,,,,,,,,,,,,,,,,,,,,,,,,30.5,1.5,,
196,,iti,,html-keyboard-response,196,149701,0.0-1.0-322.0,0,0,1,,,,,,,,,,,,,,,,,,,,,,,,,,,,32.5,2.0,,
197,,rl_choice,,html-keyboard-response,197,151204,0.0-1.0-324.0,0,0,1,,,,,,46.0,46.0,2.0,easy,1500.0,3000.0,0.0,20.0,80.0,0.0,80.0,D,C,/static/Simple_RL/Stimuli/Fractals_stims/D.jpg,/static/Simple_RL/Stimuli/Fractals_stims/C.jpg,,,,,,,,34.0,1.5,1.0,
198,,rl_choice_warning,,html-keyboard-response,198,152210,0.0-1.0-326.0-0.0,1,0,1,,,,,,,,,,,,,,,,,,,,,,,,,,,,35.0,1.0,,
199,,isi,,html-keyboard-response,199,152315,0.0-1.0-327.0,0,0,1,,,,,,,,,,,,,,,,,,,,,,,,,,,,38.0,3.0,,
200,,iti,,html-keyboard-response,200,152420,0.0-1.0-329.0,0,0,1,,,,,,,,,,,,,,,,,,,,,,,,,,,,39.5,1.5,,
201,,rl_choice,,html-keyboard-response,201,153924,0.0-1.0-331.0,0,0,1,,,,,,47.0,47.0,2.0,easy,1500.0,1000.0,0.0,20.0,80.0,20.0,80.0,D,C,/static/Simple_RL/Stimuli/Fractals_stims/D.jpg,/static/Simple_RL/Stimuli/Fractals_stims/C.jpg,,,,,,,,41.0,1.5,1.0,
202,,rl_choice_warning,,html-keyboard-response,202,154926,0.0-1.0-333.0-0.0,1,0,1,,,,,,,,,,,,,,,,,,,,,,,,,,,,42.0,1.0,,
203,,isi,,html-keyboard-response,203,155031,0.0-1.0-334.0,0,0,1,,,,,,,,,,,,,,,,,,,,,,,,,,,,43.0,1.0,,
204,,iti,,html-keyboard-response,204,155135,0.0-1.0-336.0,0,0,1,,,,,,,,,,,,,,,,,,,,,,,,,,,,44.5,1.5,,
205,,rl_choice,,html-keyboard-response,205,156638,0.0-1.0-338.0,0,0,1,,,,,,48.0,48.0,2.0,easy,2000.0,1000.0,1.0,80.0,20.0,80.0,20.0,C,D,/static/Simple_RL/Stimuli/Fractals_stims/C.jpg,/static/Simple_RL/Stimuli/Fractals_stims/D.jpg,,,,,,,,46.0,1.5,1.0,
206,,rl_choice_warning,,html-keyboard-response,206,157641,0.0-1.0-340.0-0.0,1,0,1,,,,,,,,,,,,,,,,,,,,,,,,,,,,47.0,1.0,,
207,,isi,,html-keyboard-response,207,157746,0.0-1.0-341.0,0,0,1,,,,,,,,,,,,,,,,,,,,,,,,,,,,48.0,1.0,,
208,,iti,,html-keyboard-response,208,157849,0.0-1.0-343.0,0,0,1,,,,,,,,,,,,,,,,,,,,,,,,,,,,50.0,2.0,,
209,,rl_choice,,html-keyboard-response,209,159353,0.0-1.0-345.0,0,0,1,,,,,,49.0,49.0,2.0,hard,1500.0,2000.0,0.0,40.0,60.0,60.0,60.0,B,A,/static/Simple_RL/Stimuli/Fractals_stims/B.jpg,/static/Simple_RL/Stimuli/Fractals_stims/A.jpg,,,,,,,,51.5,1.5,1.0,
210,,rl_choice_warning,,html-keyboard-response,210,160356,0.0-1.0-347.0-0.0,1,0,1,,,,,,,,,,,,,,,,,,,,,,,,,,,,52.5,1.0,,
211,,isi,,html-keyboard-response,211,160461,0.0-1.0-348.0,0,0,1,,,,,,,,,,,,,,,,,,,,,,,,,,,,54.5,2.0,,
212,,iti,,html-keyboard-response,212,160566,0.0-1.0-350.0,0,0,1,,,,,,,,,,,,,,,,,,,,,,,,,,,,56.0,1.5,,
213,,rl_choice,,html-keyboard-response,213,162072,0.0-1.0-352.0,0,0,1,,,,,,50.0,50.0,2.0,easy,1000.0,3500.0,0.0,20.0,80.0,0.0,100.0,D,C,/static/Simple_RL/Stimuli/Fractals_stims/D.jpg,/static/Simple_RL/Stimuli/Fractals_stims/C.jpg,,,,,,,,57.5,1.5,1.0,
214,,rl_choice_warning,,html-keyboard-response,214,163076,0.0-1.0-354.0-0.0,1,0,1,,,,,,,,,,,,,,,,,,,,,,,,,,,,58.5,1.0,,
215,,isi,,html-keyboard-response,215,163179,0.0-1.0-355.0,0,0,1,,,,,,,,,,,,,,,,,,,,,,,,,,,,62.0,3.5,,
216,,iti,,html-keyboard-response,216,163284,0.0-1.0-357.0,0,0,1,,,,,,,,,,,,,,,,,,,,,,,,,,,,63.0,1.0,,
217,,rl_choice,,html-keyboard-response,217,164789,0.0-1.0-359.0,0,0,1,,,,,,51.0,51.0,2.0,easy,1500.0,1000.0,1.0,80.0,20.0,60.0,20.0,C,D,/static/Simple_RL/Stimuli/Fractals_stims/C.jpg,/static/Simple_RL/Stimuli/Fractals_stims/D.jpg,,,,,,,,64.5,1.5,1.0,
218,,rl_choice_warning,,html-keyboard-response,218,165790,0.0-1.0-361.0-0.0,1,0,1,,,,,,,,,,,,,,,,,,,,,,,,,,,,65.5,1.0,,
219,,isi,,html-keyboard-response,219,165892,0.0-1.0-362.0,0,0,1,,,,,,,,,,,,,,,,,,,,,,,,,,,,66.5,1.0,,
220,,iti,,html-keyboard-response,220,165993,0.0-1.0-364.0,0,0,1,,,,,,,,,,,,,,,,,,,,,,,,,,,,68.0,1.5,,
221,,rl_choice,,html-keyboard-response,221,167497,0.0-1.0-366.0,0,0,1,,,,,,52.0,52.0,2.0,hard,2000.0,1500.0,0.0,40.0,60.0,20.0,80.0,B,A,/static/Simple_RL/Stimuli/Fractals_stims/B.jpg,/static/Simple_RL/Stimuli/Fractals_stims/A.jpg,,,,,,,,69.5,1.5,1.0,
222,,rl_choice_warning,,html-keyboard-response,222,168499,0.0-1.0-368.0-0.0,1,0,1,,,,,,,,,,,,,,,,,,,,,,,,,,,,70.5,1.0,,
223,,isi,,html-keyboard-response,223,168601,0.0-1.0-369.0,0,0,1,,,,,,,,,,,,,,,,,,,,,,,,,,,,72.0,1.5,,
224,,iti,,html-keyboard-response,224,168704,0.0-1.0-371.0,0,0,1,,,,,,,,,,,,,,,,,,,,,,,,,,,,74.0,2.0,,
225,,rl_choice,,html-keyboard-response,225,170209,0.0-1.0-373.0,0,0,1,,,,,,53.0,53.0,2.0,hard,3000.0,1500.0,0.0,40.0,60.0,20.0,40.0,B,A,/static/Simple_RL/Stimuli/Fractals_stims/B.jpg,/static/Simple_RL/Stimuli/Fractals_stims/A.jpg,,,,,,,,75.5,1.5,1.0,
226,,rl_choice_warning,,html-keyboard-response,226,171214,0.0-1.0-375.0-0.0,1,0,1,,,,,,,,,,,,,,,,,,,,,,,,,,,,76.5,1.0,,
227,,isi,,html-keyboard-response,227,171315,0.0-1.0-376.0,0,0,1,,,,,,,,,,,,,,,,,,,,,,,,,,,,78.0,1.5,,
228,,iti,,html-keyboard-response,228,171417,0.0-1.0-378.0,0,0,1,,,,,,,,,,,,,,,,,,,,,,,,,,,,81.0,3.0,,
229,,rl_choice,,html-keyboard-response,229,171482,0.0-1.0-380.0,0,0,1,,64.0,,,51.0,54.0,54.0,2.0,easy,3000.0,1500.0,0.0,20.0,80.0,20.0,100.0,D,C,/static/Simple_RL/Stimuli/Fractals_stims/D.jpg,/static/Simple_RL/Stimuli/Fractals_stims/C.jpg,0.0,80.0,20.0,100.0,20.0,C,D,81.064,0.064,0.0,
230,,rl_choice_confirmation,,html-keyboard-response,230,172921,0.0-1.0-381.0-0.0,0,0,1,,,,,,54.0,,,,,,,,,,,,,,,,,,,,,,82.5,1.436,,
231,,isi,,html-keyboard-response,231,173022,0.0-1.0-383.0,0,0,1,,,,,,,,,,,,,,,,,,,,,,,,,,,,84.0,1.5,,
232,,feedback,,html-keyboard-response,232,174025,0.0-1.0-384.0-0.0,0,0,1,,,,,,54.0,,,,,,,,,,,,,,,,,,,,,,85.0,1.0,,
233,,iti,,html-keyboard-response,233,174127,0.0-1.0-385.0,0,0,1,,,,,,,,,,,,,,,,,,,,,,,,,,,,88.0,3.0,,
234,,rl_choice,,html-keyboard-response,234,174242,0.0-1.0-387.0,0,0,1,,114.0,,,50.0,55.0,55.0,2.0,easy,1500.0,1500.0,1.0,80.0,20.0,80.0,20.0,C,D,/static/Simple_RL/Stimuli/Fractals_stims/C.jpg,/static/Simple_RL/Stimuli/Fractals_stims/D.jpg,1.0,80.0,20.0,80.0,20.0,C,D,88.114,0.114,0.0,
235,,rl_choice_confirmation,,html-keyboard-response,235,175631,0.0-1.0-388.0-0.0,0,0,1,,,,,,55.0,,,,,,,,,,,,,,,,,,,,,,89.5,1.386,,
236,,isi,,html-keyboard-response,236,175732,0.0-1.0-390.0,0,0,1,,,,,,,,,,,,,,,,,,,,,,,,,,,,91.0,1.5,,
237,,feedback,,html-keyboard-response,237,176735,0.0-1.0-391.0-0.0,0,0,1,,,,,,55.0,,,,,,,,,,,,,,,,,,,,,,92.0,1.0,,
238,,iti,,html-keyboard-response,238,176841,0.0-1.0-392.0,0,0,1,,,,,,,,,,,,,,,,,,,,,,,,,,,,93.5,1.5,,
239,,rl_choice,,html-keyboard-response,239,178345,0.0-1.0-394.0,0,0,1,,,,,,56.0,56.0,2.0,easy,2000.0,2000.0,0.0,20.0,80.0,40.0,80.0,D,C,/static/Simple_RL/Stimuli/Fractals_stims/D.jpg,/static/Simple_RL/Stimuli/Fractals_stims/C.jpg,,,,,,,,95.0,1.5,1.0,
240,,rl_choice_warning,,html-keyboard-response,240,179347,0.0-1.0-396.0-0.0,1,0,1,,,,,,,,,,,,,,,,,,,,,,,,,,,,96.0,1.0,,
241,,isi,,html-keyboard-response,241,179452,0.0-1.0-397.0,0,0,1,,,,,,,,,,,,,,,,,,,,,,,,,,,,98.0,2.0,,
242,,iti,,html-keyboard-response,242,179556,0.0-1.0-399.0,0,0,1,,,,,,,,,,,,,,,,,,,,,,,,,,,,100.0,2.0,,
243,,rl_choice,,html-keyboard-response,243,181062,0.0-1.0-401.0,0,0,1,,,,,,57.0,57.0,2.0,easy,1000.0,1000.0,0.0,20.0,80.0,20.0,80.0,D,C,/static/Simple_RL/Stimuli/Fractals_stims/D.jpg,/static/Simple_RL/Stimuli/Fractals_stims/C.jpg,,,,,,,,101.5,1.5,1.0,
244,,rl_choice_warning,,html-keyboard-response,244,182068,0.0-1.0-403.0-0.0,1,0,1,,,,,,,,,,,,,,,,,,,,,,,,,,,,102.5,1.0,,
245,,isi,,html-keyboard-response,245,182172,0.0-1.0-404.0,0,0,1,,,,,,,,,,,,,,,,,,,,,,,,,,,,103.5,1.0,,
246,,iti,,html-keyboard-response,246,182275,0.0-1.0-406.0,0,0,1,,,,,,,,,,,,,,,,,,,,,,,,,,,,104.5,1.0,,
247,,rl_choice,,html-keyboard-response,247,183780,0.0-1.0-408.0,0,0,1,,,,,,58.0,58.0,2.0,easy,1000.0,1000.0,0.0,20.0,80.0,20.0,60.0,D,C,/static/Simple_RL/Stimuli/Fractals_stims/D.jpg,/static/Simple_RL/Stimuli/Fractals_stims/C.jpg,,,,,,,,106.0,1.5,1.0,
248,,rl_choice_warning,,html-keyboard-response,248,184782,0.0-1.0-410.0-0.0,1,0,1,,,,,,,,,,,,,,,,,,,,,,,,,,,,107.0,1.0,,
249,,isi,,html-keyboard-response,249,184884,0.0-1.0-411.0,0,0,1,,,,,,,,,,,,,,,,,,,,,,,,,,,,108.0,1.0,,
250,,iti,,html-keyboard-response,250,184985,0.0-1.0-413.0,0,0,1,,,,,,,,,,,,,,,,,,,,,,,,,,,,109.0,1.0,,
251,,rl_choice,,html-keyboard-response,251,186489,0.0-1.0-415.0,0,0,1,,,,,,59.0,59.0,2.0,hard,1500.0,1000.0,1.0,60.0,40.0,80.0,40.0,A,B,/static/Simple_RL/Stimuli/Fractals_stims/A.jpg,/static/Simple_RL/Stimuli/Fractals_stims/B.jpg,,,,,,,,110.5,1.5,1.0,
252,,rl_choice_warning,,html-keyboard-response,252,187495,0.0-1.0-417.0-0.0,1,0,1,,,,,,,,,,,,,,,,,,,,,,,,,,,,111.5,1.0,,
253,,isi,,html-keyboard-response,253,187599,0.0-1.0-418.0,0,0,1,,,,,,,,,,,,,,,,,,,,,,,,,,,,112.5,1.0,,
254,,iti,,html-keyboard-response,254,187704,0.0-1.0-420.0,0,0,1,,,,,,,,,,,,,,,,,,,,,,,,,,,,114.0,1.5,,
255,,rl_choice,,html-keyboard-response,255,189209,0.0-1.0-422.0,0,0,1,,,,,,60.0,60.0,2.0,hard,1500.0,1000.0,1.0,60.0,40.0,40.0,40.0,A,B,/static/Simple_RL/Stimuli/Fractals_stims/A.jpg,/static/Simple_RL/Stimuli/Fractals_stims/B.jpg,,,,,,,,115.5,1.5,1.0,
256,,rl_choice_warning,,html-keyboard-response,256,190211,0.0-1.0-424.0-0.0,1,0,1,,,,,,,,,,,,,,,,,,,,,,,,,,,,116.5,1.0,,
257,,isi,,html-keyboard-response,257,190316,0.0-1.0-425.0,0,0,1,,,,,,,,,,,,,,,,,,,,,,,,,,,,117.5,1.0,,
258,,iti,,html-keyboard-response,258,190421,0.0-1.0-427.0,0,0,1,,,,,,,,,,,,,,,,,,,,,,,,,,,,119.0,1.5,,
259,,rl_choice,,html-keyboard-response,259,191926,0.0-1.0-429.0,0,0,1,,,,,,61.0,61.0,2.0,hard,1000.0,1000.0,1.0,60.0,40.0,40.0,60.0,A,B,/static/Simple_RL/Stimuli/Fractals_stims/A.jpg,/static/Simple_RL/Stimuli/Fractals_stims/B.jpg,,,,,,,,120.5,1.5,1.0,
260,,rl_choice_warning,,html-keyboard-response,260,192932,0.0-1.0-431.0-0.0,1,0,1,,,,,,,,,,,,,,,,,,,,,,,,,,,,121.5,1.0,,
261,,isi,,html-keyboard-response,261,193035,0.0-1.0-432.0,0,0,1,,,,,,,,,,,,,,,,,,,,,,,,,,,,122.5,1.0,,
262,,iti,,html-keyboard-response,262,193140,0.0-1.0-434.0,0,0,1,,,,,,,,,,,,,,,,,,,,,,,,,,,,123.5,1.0,,
263,,rl_choice,,html-keyboard-response,263,194644,0.0-1.0-436.0,0,0,1,,,,,,62.0,62.0,2.0,hard,1000.0,3000.0,1.0,60.0,40.0,60.0,20.0,A,B,/static/Simple_RL/Stimuli/Fractals_stims/A.jpg,/static/Simple_RL/Stimuli/Fractals_stims/B.jpg,,,,,,,,125.0,1.5,1.0,
264,,rl_choice_warning,,html-keyboard-response,264,195646,0.0-1.0-438.0-0.0,1,0,1,,,,,,,,,,,,,,,,,,,,,,,,,,,,126.0,1.0,,
265,,isi,,html-keyboard-response,265,195748,0.0-1.0-439.0,0,0,1,,,,,,,,,,,,,,,,,,,,,,,,,,,,129.0,3.0,,
266,,iti,,html-keyboard-response,266,195849,0.0-1.0-441.0,0,0,1,,,,,,,,,,,,,,,,,,,,,,,,,,,,130.0,1.0,,
267,,rl_choice,,html-keyboard-response,267,197353,0.0-1.0-443.0,0,0,1,,,,,,63.0,63.0,2.0,easy,2000.0,1500.0,0.0,20.0,80.0,20.0,60.0,D,C,/static/Simple_RL/Stimuli/Fractals_stims/D.jpg,/static/Simple_RL/Stimuli/Fractals_stims/C.jpg,,,,,,,,131.5,1.5,1.0,
268,,rl_choice_warning,,html-keyboard-response,268,198356,0.0-1.0-445.0-0.0,1,0,1,,,,,,,,,,,,,,,,,,,,,,,,,,,,132.5,1.0,,
269,,isi,,html-keyboard-response,269,198461,0.0-1.0-446.0,0,0,1,,,,,,,,,,,,,,,,,,,,,,,,,,,,134.0,1.5,,
270,,iti,,html-keyboard-response,270,198565,0.0-1.0-448.0,0,0,1,,,,,,,,,,,,,,,,,,,,,,,,,,,,136.0,2.0,,
271,,rl_choice,,html-keyboard-response,271,200067,0.0-1.0-450.0,0,0,1,,,,,,64.0,64.0,2.0,easy,2000.0,1000.0,1.0,80.0,20.0,100.0,20.0,C,D,/static/Simple_RL/Stimuli/Fractals_stims/C.jpg,/static/Simple_RL/Stimuli/Fractals_stims/D.jpg,,,,,,,,137.5,1.5,1.0,
272,,rl_choice_warning,,html-keyboard-response,272,201071,0.0-1.0-452.0-0.0,1,0,1,,,,,,,,,,,,,,,,,,,,,,,,,,,,138.5,1.0,,
273,,isi,,html-keyboard-response,273,201177,0.0-1.0-453.0,0,0,1,,,,,,,,,,,,,,,,,,,,,,,,,,,,139.5,1.0,,
274,,iti,,html-keyboard-response,274,201278,0.0-1.0-455.0,0,0,1,,,,,,,,,,,,,,,,,,,,,,,,,,,,141.5,2.0,,
275,,rl_choice,,html-keyboard-response,275,202782,0.0-1.0-457.0,0,0,1,,,,,,65.0,65.0,2.0,hard,2000.0,1500.0,1.0,60.0,40.0,60.0,40.0,A,B,/static/Simple_RL/Stimuli/Fractals_stims/A.jpg,/static/Simple_RL/Stimuli/Fractals_stims/B.jpg,,,,,,,,143.0,1.5,1.0,
276,,rl_choice_warning,,html-keyboard-response,276,203788,0.0-1.0-459.0-0.0,1,0,1,,,,,,,,,,,,,,,,,,,,,,,,,,,,144.0,1.0,,
277,,isi,,html-keyboard-response,277,203894,0.0-1.0-460.0,0,0,1,,,,,,,,,,,,,,,,,,,,,,,,,,,,145.5,1.5,,
278,,iti,,html-keyboard-response,278,203998,0.0-1.0-462.0,0,0,1,,,,,,,,,,,,,,,,,,,,,,,,,,,,147.5,2.0,,
279,,rl_choice,,html-keyboard-response,279,205502,0.0-1.0-464.0,0,0,1,,,,,,66.0,66.0,2.0,hard,3000.0,1000.0,1.0,60.0,40.0,60.0,20.0,A,B,/static/Simple_RL/Stimuli/Fractals_stims/A.jpg,/static/Simple_RL/Stimuli/Fractals_stims/B.jpg,,,,,,,,149.0,1.5,1.0,
280,,rl_choice_warning,,html-keyboard-response,280,206505,0.0-1.0-466.0-0.0,1,0,1,,,,,,,,,,,,,,,,,,,,,,,,,,,,150.0,1.0,,
281,,isi,,html-keyboard-response,281,206606,0.0-1.0-467.0,0,0,1,,,,,,,,,,,,,,,,,,,,,,,,,,,,151.0,1.0,,
282,,iti,,html-keyboard-response,282,206708,0.0-1.0-469.0,0,0,1,,,,,,,,,,,,,,,,,,,,,,,,,,,,154.0,3.0,,
283,,rl_choice,,html-keyboard-response,283,208212,0.0-1.0-471.0,0,0,1,,,,,,67.0,67.0,2.0,easy,3500.0,2000.0,1.0,80.0,20.0,60.0,40.0,C,D,/static/Simple_RL/Stimuli/Fractals_stims/C.jpg,/static/Simple_RL/Stimuli/Fractals_stims/D.jpg,,,,,,,,155.5,1.5,1.0,
284,,rl_choice_warning,,html-keyboard-response,284,209214,0.0-1.0-473.0-0.0,1,0,1,,,,,,,,,,,,,,,,,,,,,,,,,,,,156.5,1.0,,
285,,isi,,html-keyboard-response,285,209317,0.0-1.0-474.0,0,0,1,,,,,,,,,,,,,,,,,,,,,,,,,,,,158.5,2.0,,
286,,iti,,html-keyboard-response,286,209422,0.0-1.0-476.0,0,0,1,,,,,,,,,,,,,,,,,,,,,,,,,,,,162.0,3.5,,
287,,rl_choice,,html-keyboard-response,287,210926,0.0-1.0-478.0,0,0,1,,,,,,68.0,68.0,2.0,easy,3000.0,2000.0,0.0,20.0,80.0,40.0,80.0,D,C,/static/Simple_RL/Stimuli/Fractals_stims/D.jpg,/static/Simple_RL/Stimuli/Fractals_stims/C.jpg,,,,,,,,163.5,1.5,1.0,
288,,rl_choice_warning,,html-keyboard-response,288,211929,0.0-1.0-480.0-0.0,1,0,1,,,,,,,,,,,,,,,,,,,,,,,,,,,,164.5,1.0,,
289,,isi,,html-keyboard-response,289,212031,0.0-1.0-481.0,0,0,1,,,,,,,,,,,,,,,,,,,,,,,,,,,,166.5,2.0,,
290,,iti,,html-keyboard-response,290,212132,0.0-1.0-483.0,0,0,1,,,,,,,,,,,,,,,,,,,,,,,,,,,,169.5,3.0,,
291,,rl_choice,,html-keyboard-response,291,213420,0.0-1.0-485.0,0,0,1,,1287.0,,,51.0,69.0,69.0,2.0,hard,2000.0,1000.0,1.0,60.0,40.0,40.0,60.0,A,B,/static/Simple_RL/Stimuli/Fractals_stims/A.jpg,/static/Simple_RL/Stimuli/Fractals_stims/B.jpg,0.0,40.0,60.0,60.0,40.0,B,A,170.787,1.287,0.0,
292,,rl_choice_confirmation,,html-keyboard-response,292,213635,0.0-1.0-486.0-0.0,0,0,1,,,,,,69.0,,,,,,,,,,,,,,,,,,,,,,171.0,0.213,,
293,,isi,,html-keyboard-response,293,213736,0.0-1.0-488.0,0,0,1,,,,,,,,,,,,,,,,,,,,,,,,,,,,172.0,1.0,,
294,,feedback,,html-keyboard-response,294,214740,0.0-1.0-489.0-0.0,0,0,1,,,,,,69.0,,,,,,,,,,,,,,,,,,,,,,173.0,1.0,,
295,,iti,,html-keyboard-response,295,214841,0.0-1.0-490.0,0,0,1,,,,,,,,,,,,,,,,,,,,,,,,,,,,175.0,2.0,,
296,,rl_choice,,html-keyboard-response,296,214936,0.0-1.0-492.0,0,0,1,,93.0,,,50.0,70.0,70.0,2.0,hard,1000.0,3500.0,1.0,60.0,40.0,80.0,40.0,A,B,/static/Simple_RL/Stimuli/Fractals_stims/A.jpg,/static/Simple_RL/Stimuli/Fractals_stims/B.jpg,1.0,60.0,40.0,80.0,40.0,A,B,175.093,0.093,0.0,
297,,rl_choice_confirmation,,html-keyboard-response,297,216345,0.0-1.0-493.0-0.0,0,0,1,,,,,,70.0,,,,,,,,,,,,,,,,,,,,,,176.5,1.407,,
298,,isi,,html-keyboard-response,298,216446,0.0-1.0-495.0,0,0,1,,,,,,,,,,,,,,,,,,,,,,,,,,,,180.0,3.5,,
299,,feedback,,html-keyboard-response,299,217449,0.0-1.0-496.0-0.0,0,0,1,,,,,,70.0,,,,,,,,,,,,,,,,,,,,,,181.0,1.0,,
300,,iti,,html-keyboard-response,300,217551,0.0-1.0-497.0,0,0,1,,,,,,,,,,,,,,,,,,,,,,,,,,,,182.0,1.0,,
301,,rl_choice,,html-keyboard-response,301,219054,0.0-1.0-499.0,0,0,1,,,,,,71.0,71.0,2.0,hard,1000.0,1500.0,1.0,60.0,40.0,40.0,40.0,A,B,/static/Simple_RL/Stimuli/Fractals_stims/A.jpg,/static/Simple_RL/Stimuli/Fractals_stims/B.jpg,,,,,,,,183.5,1.5,1.0,
302,,rl_choice_warning,,html-keyboard-response,302,220058,0.0-1.0-501.0-0.0,1,0,1,,,,,,,,,,,,,,,,,,,,,,,,,,,,184.5,1.0,,
303,,isi,,html-keyboard-response,303,220164,0.0-1.0-502.0,0,0,1,,,,,,,,,,,,,,,,,,,,,,,,,,,,186.0,1.5,,
304,,iti,,html-keyboard-response,304,220269,0.0-1.0-504.0,0,0,1,,,,,,,,,,,,,,,,,,,,,,,,,,,,187.0,1.0,,
305,,rl_choice,,html-keyboard-response,305,221205,0.0-1.0-506.0,0,0,1,,935.0,,,50.0,72.0,72.0,2.0,easy,1000.0,1500.0,0.0,20.0,80.0,0.0,80.0,D,C,/static/Simple_RL/Stimuli/Fractals_stims/D.jpg,/static/Simple_RL/Stimuli/Fractals_stims/C.jpg,1.0,20.0,80.0,0.0,80.0,D,C,187.935,0.935,0.0,
306,,rl_choice_confirmation,,html-keyboard-response,306,221776,0.0-1.0-507.0-0.0,0,0,1,,,,,,72.0,,,,,,,,,,,,,,,,,,,,,,188.5,0.565,,
307,,isi,,html-keyboard-response,307,221881,0.0-1.0-509.0,0,0,1,,,,,,,,,,,,,,,,,,,,,,,,,,,,190.0,1.5,,
308,,feedback,,html-keyboard-response,308,222883,0.0-1.0-510.0-0.0,0,0,1,,,,,,72.0,,,,,,,,,,,,,,,,,,,,,,191.0,1.0,,
309,,iti,,html-keyboard-response,309,222984,0.0-1.0-511.0,0,0,1,,,,,,,,,,,,,,,,,,,,,,,,,,,,192.0,1.0,,
310,,rl_choice,,html-keyboard-response,310,224489,0.0-1.0-513.0,0,0,1,,,,,,73.0,73.0,2.0,easy,1000.0,3000.0,1.0,80.0,20.0,60.0,0.0,C,D,/static/Simple_RL/Stimuli/Fractals_stims/C.jpg,/static/Simple_RL/Stimuli/Fractals_stims/D.jpg,,,,,,,,193.5,1.5,1.0,
311,,rl_choice_warning,,html-keyboard-response,311,225491,0.0-1.0-515.0-0.0,1,0,1,,,,,,,,,,,,,,,,,,,,,,,,,,,,194.5,1.0,,
312,,isi,,html-keyboard-response,312,225594,0.0-1.0-516.0,0,0,1,,,,,,,,,,,,,,,,,,,,,,,,,,,,197.5,3.0,,
313,,iti,,html-keyboard-response,313,225699,0.0-1.0-518.0,0,0,1,,,,,,,,,,,,,,,,,,,,,,,,,,,,198.5,1.0,,
314,,rl_choice,,html-keyboard-response,314,227204,0.0-1.0-520.0,0,0,1,,,,,,74.0,74.0,2.0,hard,3500.0,2000.0,1.0,60.0,40.0,60.0,60.0,A,B,/static/Simple_RL/Stimuli/Fractals_stims/A.jpg,/static/Simple_RL/Stimuli/Fractals_stims/B.jpg,,,,,,,,200.0,1.5,1.0,
315,,rl_choice_warning,,html-keyboard-response,315,228206,0.0-1.0-522.0-0.0,1,0,1,,,,,,,,,,,,,,,,,,,,,,,,,,,,201.0,1.0,,
316,,isi,,html-keyboard-response,316,228309,0.0-1.0-523.0,0,0,1,,,,,,,,,,,,,,,,,,,,,,,,,,,,203.0,2.0,,
317,,iti,,html-keyboard-response,317,228414,0.0-1.0-525.0,0,0,1,,,,,,,,,,,,,,,,,,,,,,,,,,,,206.5,3.5,,
318,,rl_choice,,html-keyboard-response,318,229918,0.0-1.0-527.0,0,0,1,,,,,,75.0,75.0,2.0,hard,1500.0,3000.0,0.0,40.0,60.0,60.0,80.0,B,A,/static/Simple_RL/Stimuli/Fractals_stims/B.jpg,/static/Simple_RL/Stimuli/Fractals_stims/A.jpg,,,,,,,,208.0,1.5,1.0,
319,,rl_choice_warning,,html-keyboard-response,319,230921,0.0-1.0-529.0-0.0,1,0,1,,,,,,,,,,,,,,,,,,,,,,,,,,,,209.0,1.0,,
320,,isi,,html-keyboard-response,320,231024,0.0-1.0-530.0,0,0,1,,,,,,,,,,,,,,,,,,,,,,,,,,,,212.0,3.0,,
321,,iti,,html-keyboard-response,321,231129,0.0-1.0-532.0,0,0,1,,,,,,,,,,,,,,,,,,,,,,,,,,,,213.5,1.5,,
322,,rl_choice,,html-keyboard-response,322,232633,0.0-1.0-534.0,0,0,1,,,,,,76.0,76.0,2.0,easy,1000.0,1000.0,0.0,20.0,80.0,20.0,80.0,D,C,/static/Simple_RL/Stimuli/Fractals_stims/D.jpg,/static/Simple_RL/Stimuli/Fractals_stims/C.jpg,,,,,,,,215.0,1.5,1.0,
323,,rl_choice_warning,,html-keyboard-response,323,233635,0.0-1.0-536.0-0.0,1,0,1,,,,,,,,,,,,,,,,,,,,,,,,,,,,216.0,1.0,,
324,,isi,,html-keyboard-response,324,233737,0.0-1.0-537.0,0,0,1,,,,,,,,,,,,,,,,,,,,,,,,,,,,217.0,1.0,,
325,,iti,,html-keyboard-response,325,233839,0.0-1.0-539.0,0,0,1,,,,,,,,,,,,,,,,,,,,,,,,,,,,218.0,1.0,,
326,,rl_choice,,html-keyboard-response,326,235342,0.0-1.0-541.0,0,0,1,,,,,,77.0,77.0,2.0,hard,1000.0,1000.0,0.0,40.0,60.0,60.0,40.0,B,A,/static/Simple_RL/Stimuli/Fractals_stims/B.jpg,/static/Simple_RL/Stimuli/Fractals_stims/A.jpg,,,,,,,,219.5,1.5,1.0,
327,,rl_choice_warning,,html-keyboard-response,327,236345,0.0-1.0-543.0-0.0,1,0,1,,,,,,,,,,,,,,,,,,,,,,,,,,,,220.5,1.0,,
328,,isi,,html-keyboard-response,328,236447,0.0-1.0-544.0,0,0,1,,,,,,,,,,,,,,,,,,,,,,,,,,,,221.5,1.0,,
329,,iti,,html-keyboard-response,329,236549,0.0-1.0-546.0,0,0,1,,,,,,,,,,,,,,,,,,,,,,,,,,,,222.5,1.0,,
330,,rl_choice,,html-keyboard-response,330,238052,0.0-1.0-548.0,0,0,1,,,,,,78.0,78.0,2.0,easy,1000.0,1500.0,1.0,80.0,20.0,80.0,0.0,C,D,/static/Simple_RL/Stimuli/Fractals_stims/C.jpg,/static/Simple_RL/Stimuli/Fractals_stims/D.jpg,,,,,,,,224.0,1.5,1.0,
331,,rl_choice_warning,,html-keyboard-response,331,239054,0.0-1.0-550.0-0.0,1,0,1,,,,,,,,,,,,,,,,,,,,,,,,,,,,225.0,1.0,,
332,,isi,,html-keyboard-response,332,239158,0.0-1.0-551.0,0,0,1,,,,,,,,,,,,,,,,,,,,,,,,,,,,226.5,1.5,,
333,,iti,,html-keyboard-response,333,239262,0.0-1.0-553.0,0,0,1,,,,,,,,,,,,,,,,,,,,,,,,,,,,227.5,1.0,,
334,,rl_choice,,html-keyboard-response,334,239835,0.0-1.0-555.0,0,0,1,,573.0,,,51.0,79.0,79.0,2.0,easy,1000.0,1000.0,0.0,20.0,80.0,0.0,100.0,D,C,/static/Simple_RL/Stimuli/Fractals_stims/D.jpg,/static/Simple_RL/Stimuli/Fractals_stims/C.jpg,0.0,80.0,20.0,100.0,0.0,C,D,228.073,0.573,0.0,
335,,rl_choice_confirmation,,html-keyboard-response,335,240766,0.0-1.0-556.0-0.0,0,0,1,,,,,,79.0,,,,,,,,,,,,,,,,,,,,,,229.0,0.927,,
336,,isi,,html-keyboard-response,336,240871,0.0-1.0-558.0,0,0,1,,,,,,,,,,,,,,,,,,,,,,,,,,,,230.0,1.0,,
337,,feedback,,html-keyboard-response,337,241877,0.0-1.0-559.0-0.0,0,0,1,,,,,,79.0,,,,,,,,,,,,,,,,,,,,,,231.0,1.0,,
338,,iti,,html-keyboard-response,338,241982,0.0-1.0-560.0,0,0,1,,,,,,,,,,,,,,,,,,,,,,,,,,,,232.0,1.0,,0.34
339,,final_tally,,html-keyboard-response,339,249037,0.0-2.0,0,0,1,,7054.0,,,50.0,,,,,,,,,,,,,,,,,,,,,,,,,,
