,success,ttype,start_time,trial_type,trial_index,time_elapsed,internal_node_id,warning,missed_checkup,PID,view_history,rt,responses,repeat_instructions,key_press,index,trial_num,block,condition,iti,isi,high_group_on_left,left_group_value,right_group_value,left_item_value,right_item_value,left_img,right_img,left_img_path,right_img_path,onset,duration,no_response,left_chosen,chosen_group_value,unchosen_group_value,chosen_item_value,unchosen_item_value,chosen_img,unchosen_img,total_bonus_tally
0,True,full_screen,d06232022hr2022,fullscreen,0,8729,0.0-0.0,0,0,1,,,,,,,,,,,,,,,,,,,,,,,,,,,,,,,
1,,size_instructions,,instructions,1,10998,0.0-1.0-0.0-0.0,0,0,1,"[{""page_index"":0,""viewing_time"":1474},{""page_index"":1,""viewing_time"":156},{""page_index"":2,""viewing_time"":156},{""page_index"":3,""viewing_time"":157},{""page_index"":4,""viewing_time"":157},{""page_index"":5,""viewing_time"":166}]",2266.0,,,,,,,,,,,,,,,,,,,,,,,,,,,,,
2,,rl_comprehension_check,,survey-multi-choice,2,15487,0.0-1.0-0.0-1.0,0,0,1,,4485.0,"{""Q0"":""True"",""Q1"":""True"",""Q2"":""pointer finger for left and middle finger for right""}",0.0,,,,,,,,,,,,,,,,,,,,,,,,,,,
3,,,,html-keyboard-response,3,16653,0.0-1.0-1.0,0,0,1,,1163.0,,,83.0,,,,,,,,,,,,,,,,,,,,,,,,,,
4,,start_run,,html-keyboard-response,4,17645,0.0-1.0-2.0,0,0,1,,992.0,,,84.0,,,,,,,,,,,,,,,,,,,,,,,,,,
5,,rl_choice,,html-keyboard-response,5,19148,0.0-1.0-3.0,0,0,1,,,,,,0.0,0.0,1.0,hard,3500.0,2000.0,1.0,60.0,40.0,80.0,40.0,A,B,/static/Simple_RL/Stimuli/Fractals_stims/A.jpg,/static/Simple_RL/Stimuli/Fractals_stims/B.jpg,0.0,1.5,1.0,,,,,,,,
6,,rl_choice_warning,,html-keyboard-response,6,20153,0.0-1.0-5.0-0.0,0,0,1,,,,,,0.0,,1.0,,,,,,,,,,,,,1.5,1.0,,,,,,,,,
7,,isi,,html-keyboard-response,7,22160,0.0-1.0-6.0,0,0,1,,,,,,0.0,,1.0,,,,,,,,,,,,,2.5,2.0,,,,,,,,,
8,,iti,,html-keyboard-response,8,25667,0.0-1.0-8.0,0,0,1,,,,,,0.0,,1.0,,,,,,,,,,,,,4.5,3.5,,,,,,,,,
9,,rl_choice,,html-keyboard-response,9,27170,0.0-1.0-10.0,0,0,1,,,,,,1.0,1.0,1.0,hard,1000.0,2000.0,1.0,60.0,40.0,80.0,20.0,A,B,/static/Simple_RL/Stimuli/Fractals_stims/A.jpg,/static/Simple_RL/Stimuli/Fractals_stims/B.jpg,8.0,1.5,1.0,,,,,,,,
10,,rl_choice_warning,,html-keyboard-response,10,28173,0.0-1.0-12.0-0.0,0,0,1,,,,,,1.0,,1.0,,,,,,,,,,,,,9.5,1.0,,,,,,,,,
11,,isi,,html-keyboard-response,11,30175,0.0-1.0-13.0,0,0,1,,,,,,1.0,,1.0,,,,,,,,,,,,,10.5,2.0,,,,,,,,,
12,,iti,,html-keyboard-response,12,31181,0.0-1.0-15.0,0,0,1,,,,,,1.0,,1.0,,,,,,,,,,,,,12.5,1.0,,,,,,,,,
13,,rl_choice,,html-keyboard-response,13,33528,0.0-1.0-17.0,0,0,1,,,,,,2.0,2.0,1.0,easy,2000.0,2000.0,0.0,20.0,80.0,40.0,100.0,D,C,/static/Simple_RL/Stimuli/Fractals_stims/D.jpg,/static/Simple_RL/Stimuli/Fractals_stims/C.jpg,13.5,1.5,1.0,,,,,,,,
14,,rl_choice_warning,,html-keyboard-response,14,35629,0.0-1.0-19.0-0.0,0,0,1,,,,,,2.0,,1.0,,,,,,,,,,,,,15.0,1.0,,,,,,,,,
15,,isi,,html-keyboard-response,15,38996,0.0-1.0-20.0,0,0,1,,,,,,2.0,,1.0,,,,,,,,,,,,,16.0,2.0,,,,,,,,,
16,,iti,,html-keyboard-response,16,41989,0.0-1.0-22.0,0,0,1,,,,,,2.0,,1.0,,,,,,,,,,,,,18.0,2.0,,,,,,,,,
17,,rl_choice,,html-keyboard-response,17,44982,0.0-1.0-24.0,0,0,1,,,,,,3.0,3.0,1.0,hard,1500.0,1000.0,0.0,40.0,60.0,20.0,60.0,B,A,/static/Simple_RL/Stimuli/Fractals_stims/B.jpg,/static/Simple_RL/Stimuli/Fractals_stims/A.jpg,20.0,1.5,1.0,,,,,,,,
18,,rl_choice_warning,,html-keyboard-response,18,46741,0.0-1.0-26.0-0.0,0,0,1,,,,,,3.0,,1.0,,,,,,,,,,,,,21.5,1.0,,,,,,,,,
19,,isi,,html-keyboard-response,19,48695,0.0-1.0-27.0,0,0,1,,,,,,3.0,,1.0,,,,,,,,,,,,,22.5,1.0,,,,,,,,,
20,,iti,,html-keyboard-response,20,52108,0.0-1.0-29.0,0,0,1,,,,,,3.0,,1.0,,,,,,,,,,,,,23.5,1.5,,,,,,,,,
21,,rl_choice,,html-keyboard-response,21,55087,0.0-1.0-31.0,0,0,1,,,,,,4.0,4.0,1.0,hard,1500.0,3000.0,0.0,40.0,60.0,40.0,60.0,B,A,/static/Simple_RL/Stimuli/Fractals_stims/B.jpg,/static/Simple_RL/Stimuli/Fractals_stims/A.jpg,25.0,1.5,1.0,,,,,,,,
22,,rl_choice_warning,,html-keyboard-response,22,56375,0.0-1.0-33.0-0.0,0,0,1,,,,,,4.0,,1.0,,,,,,,,,,,,,26.5,1.0,,,,,,,,,
23,,isi,,html-keyboard-response,23,60425,0.0-1.0-34.0,0,0,1,,,,,,4.0,,1.0,,,,,,,,,,,,,27.5,3.0,,,,,,,,,
24,,iti,,html-keyboard-response,24,62321,0.0-1.0-36.0,0,0,1,,,,,,4.0,,1.0,,,,,,,,,,,,,30.5,1.5,,,,,,,,,
25,,rl_choice,,html-keyboard-response,25,64278,0.0-1.0-38.0,0,0,1,,,,,,5.0,5.0,1.0,easy,1500.0,1500.0,1.0,80.0,20.0,80.0,0.0,C,D,/static/Simple_RL/Stimuli/Fractals_stims/C.jpg,/static/Simple_RL/Stimuli/Fractals_stims/D.jpg,32.0,1.5,1.0,,,,,,,,
26,,rl_choice_warning,,html-keyboard-response,26,66975,0.0-1.0-40.0-0.0,0,0,1,,,,,,5.0,,1.0,,,,,,,,,,,,,33.5,1.0,,,,,,,,,
27,,isi,,html-keyboard-response,27,69625,0.0-1.0-41.0,0,0,1,,,,,,5.0,,1.0,,,,,,,,,,,,,34.5,1.5,,,,,,,,,
28,,iti,,html-keyboard-response,28,71297,0.0-1.0-43.0,0,0,1,,,,,,5.0,,1.0,,,,,,,,,,,,,36.0,1.5,,,,,,,,,
29,,rl_choice,,html-keyboard-response,29,73854,0.0-1.0-45.0,0,0,1,,,,,,6.0,6.0,1.0,easy,1000.0,1000.0,1.0,80.0,20.0,60.0,40.0,C,D,/static/Simple_RL/Stimuli/Fractals_stims/C.jpg,/static/Simple_RL/Stimuli/Fractals_stims/D.jpg,37.5,1.5,1.0,,,,,,,,
30,,rl_choice_warning,,html-keyboard-response,30,75832,0.0-1.0-47.0-0.0,0,0,1,,,,,,6.0,,1.0,,,,,,,,,,,,,39.0,1.0,,,,,,,,,
31,,isi,,html-keyboard-response,31,77825,0.0-1.0-48.0,0,0,1,,,,,,6.0,,1.0,,,,,,,,,,,,,40.0,1.0,,,,,,,,,
32,,iti,,html-keyboard-response,32,79236,0.0-1.0-50.0,0,0,1,,,,,,6.0,,1.0,,,,,,,,,,,,,41.0,1.0,,,,,,,,,
33,,rl_choice,,html-keyboard-response,33,81659,0.0-1.0-52.0,0,0,1,,,,,,7.0,7.0,1.0,easy,3000.0,2000.0,0.0,20.0,80.0,0.0,80.0,D,C,/static/Simple_RL/Stimuli/Fractals_stims/D.jpg,/static/Simple_RL/Stimuli/Fractals_stims/C.jpg,42.0,1.5,1.0,,,,,,,,
34,,rl_choice_warning,,html-keyboard-response,34,83261,0.0-1.0-54.0-0.0,0,0,1,,,,,,7.0,,1.0,,,,,,,,,,,,,43.5,1.0,,,,,,,,,
35,,isi,,html-keyboard-response,35,86506,0.0-1.0-55.0,0,0,1,,,,,,7.0,,1.0,,,,,,,,,,,,,44.5,2.0,,,,,,,,,
36,,iti,,html-keyboard-response,36,90625,0.0-1.0-57.0,0,0,1,,,,,,7.0,,1.0,,,,,,,,,,,,,46.5,3.0,,,,,,,,,
37,,rl_choice,,html-keyboard-response,37,92231,0.0-1.0-59.0,0,0,1,,,,,,8.0,8.0,1.0,hard,2000.0,3500.0,0.0,40.0,60.0,40.0,60.0,B,A,/static/Simple_RL/Stimuli/Fractals_stims/B.jpg,/static/Simple_RL/Stimuli/Fractals_stims/A.jpg,49.5,1.5,1.0,,,,,,,,
38,,rl_choice_warning,,html-keyboard-response,38,94541,0.0-1.0-61.0-0.0,0,0,1,,,,,,8.0,,1.0,,,,,,,,,,,,,51.0,1.0,,,,,,,,,
39,,isi,,html-keyboard-response,39,98542,0.0-1.0-62.0,0,0,1,,,,,,8.0,,1.0,,,,,,,,,,,,,52.0,3.5,,,,,,,,,
40,,iti,,html-keyboard-response,40,101180,0.0-1.0-64.0,0,0,1,,,,,,8.0,,1.0,,,,,,,,,,,,,55.5,2.0,,,,,,,,,
41,,rl_choice,,html-keyboard-response,41,103595,0.0-1.0-66.0,0,0,1,,,,,,9.0,9.0,1.0,hard,2000.0,1000.0,1.0,60.0,40.0,60.0,20.0,A,B,/static/Simple_RL/Stimuli/Fractals_stims/A.jpg,/static/Simple_RL/Stimuli/Fractals_stims/B.jpg,57.5,1.5,1.0,,,,,,,,
42,,rl_choice_warning,,html-keyboard-response,42,105325,0.0-1.0-68.0-0.0,0,0,1,,,,,,9.0,,1.0,,,,,,,,,,,,,59.0,1.0,,,,,,,,,
43,,isi,,html-keyboard-response,43,107625,0.0-1.0-69.0,0,0,1,,,,,,9.0,,1.0,,,,,,,,,,,,,60.0,1.0,,,,,,,,,
44,,iti,,html-keyboard-response,44,110226,0.0-1.0-71.0,0,0,1,,,,,,9.0,,1.0,,,,,,,,,,,,,61.0,2.0,,,,,,,,,
45,,rl_choice,,html-keyboard-response,45,112455,0.0-1.0-73.0,0,0,1,,,,,,10.0,10.0,1.0,easy,1000.0,1000.0,0.0,20.0,80.0,0.0,80.0,D,C,/static/Simple_RL/Stimuli/Fractals_stims/D.jpg,/static/Simple_RL/Stimuli/Fractals_stims/C.jpg,63.0,1.5,1.0,,,,,,,,
46,,rl_choice_warning,,html-keyboard-response,46,114175,0.0-1.0-75.0-0.0,0,0,1,,,,,,10.0,,1.0,,,,,,,,,,,,,64.5,1.0,,,,,,,,,
47,,isi,,html-keyboard-response,47,116481,0.0-1.0-76.0,0,0,1,,,,,,10.0,,1.0,,,,,,,,,,,,,65.5,1.0,,,,,,,,,
48,,iti,,html-keyboard-response,48,118234,0.0-1.0-78.0,0,0,1,,,,,,10.0,,1.0,,,,,,,,,,,,,66.5,1.0,,,,,,,,,
49,,rl_choice,,html-keyboard-response,49,120618,0.0-1.0-80.0,0,0,1,,,,,,11.0,11.0,1.0,hard,1000.0,2000.0,0.0,40.0,60.0,40.0,60.0,B,A,/static/Simple_RL/Stimuli/Fractals_stims/B.jpg,/static/Simple_RL/Stimuli/Fractals_stims/A.jpg,67.5,1.5,1.0,,,,,,,,
50,,rl_choice_warning,,html-keyboard-response,50,122195,0.0-1.0-82.0-0.0,0,0,1,,,,,,11.0,,1.0,,,,,,,,,,,,,69.0,1.0,,,,,,,,,
51,,isi,,html-keyboard-response,51,125317,0.0-1.0-83.0,0,0,1,,,,,,11.0,,1.0,,,,,,,,,,,,,70.0,2.0,,,,,,,,,
52,,iti,,html-keyboard-response,52,127341,0.0-1.0-85.0,0,0,1,,,,,,11.0,,1.0,,,,,,,,,,,,,72.0,1.0,,,,,,,,,
53,,rl_choice,,html-keyboard-response,53,129338,0.0-1.0-87.0,0,0,1,,,,,,12.0,12.0,1.0,hard,1000.0,1000.0,0.0,40.0,60.0,60.0,80.0,B,A,/static/Simple_RL/Stimuli/Fractals_stims/B.jpg,/static/Simple_RL/Stimuli/Fractals_stims/A.jpg,73.0,1.5,1.0,,,,,,,,
54,,rl_choice_warning,,html-keyboard-response,54,131564,0.0-1.0-89.0-0.0,0,0,1,,,,,,12.0,,1.0,,,,,,,,,,,,,74.5,1.0,,,,,,,,,
55,,isi,,html-keyboard-response,55,133233,0.0-1.0-90.0,0,0,1,,,,,,12.0,,1.0,,,,,,,,,,,,,75.5,1.0,,,,,,,,,
56,,iti,,html-keyboard-response,56,135658,0.0-1.0-92.0,0,0,1,,,,,,12.0,,1.0,,,,,,,,,,,,,76.5,1.0,,,,,,,,,
57,,rl_choice,,html-keyboard-response,57,137425,0.0-1.0-94.0,0,0,1,,,,,,13.0,13.0,1.0,hard,3000.0,1500.0,1.0,60.0,40.0,40.0,60.0,A,B,/static/Simple_RL/Stimuli/Fractals_stims/A.jpg,/static/Simple_RL/Stimuli/Fractals_stims/B.jpg,77.5,1.5,1.0,,,,,,,,
58,,rl_choice_warning,,html-keyboard-response,58,139273,0.0-1.0-96.0-0.0,0,0,1,,,,,,13.0,,1.0,,,,,,,,,,,,,79.0,1.0,,,,,,,,,
59,,isi,,html-keyboard-response,59,141548,0.0-1.0-97.0,0,0,1,,,,,,13.0,,1.0,,,,,,,,,,,,,80.0,1.5,,,,,,,,,
60,,iti,,html-keyboard-response,60,145174,0.0-1.0-99.0,0,0,1,,,,,,13.0,,1.0,,,,,,,,,,,,,81.5,3.0,,,,,,,,,
61,,rl_choice,,html-keyboard-response,61,147410,0.0-1.0-101.0,0,0,1,,,,,,14.0,14.0,1.0,easy,1500.0,1000.0,1.0,80.0,20.0,100.0,40.0,C,D,/static/Simple_RL/Stimuli/Fractals_stims/C.jpg,/static/Simple_RL/Stimuli/Fractals_stims/D.jpg,84.5,1.5,1.0,,,,,,,,
62,,rl_choice_warning,,html-keyboard-response,62,149174,0.0-1.0-103.0-0.0,0,0,1,,,,,,14.0,,1.0,,,,,,,,,,,,,86.0,1.0,,,,,,,,,
63,,isi,,html-keyboard-response,63,151378,0.0-1.0-104.0,0,0,1,,,,,,14.0,,1.0,,,,,,,,,,,,,87.0,1.0,,,,,,,,,
64,,iti,,html-keyboard-response,64,153197,0.0-1.0-106.0,0,0,1,,,,,,14.0,,1.0,,,,,,,,,,,,,88.0,1.5,,,,,,,,,
65,,rl_choice,,html-keyboard-response,65,155481,0.0-1.0-108.0,0,0,1,,,,,,15.0,15.0,1.0,hard,1000.0,3000.0,1.0,60.0,40.0,60.0,60.0,A,B,/static/Simple_RL/Stimuli/Fractals_stims/A.jpg,/static/Simple_RL/Stimuli/Fractals_stims/B.jpg,89.5,1.5,1.0,,,,,,,,
66,,rl_choice_warning,,html-keyboard-response,66,157226,0.0-1.0-110.0-0.0,0,0,1,,,,,,15.0,,1.0,,,,,,,,,,,,,91.0,1.0,,,,,,,,,
67,,isi,,html-keyboard-response,67,161276,0.0-1.0-111.0,0,0,1,,,,,,15.0,,1.0,,,,,,,,,,,,,92.0,3.0,,,,,,,,,
68,,iti,,html-keyboard-response,68,163552,0.0-1.0-113.0,0,0,1,,,,,,15.0,,1.0,,,,,,,,,,,,,95.0,1.0,,,,,,,,,
69,,rl_choice,,html-keyboard-response,69,165412,0.0-1.0-115.0,0,0,1,,,,,,16.0,16.0,1.0,hard,1500.0,1000.0,1.0,60.0,40.0,60.0,40.0,A,B,/static/Simple_RL/Stimuli/Fractals_stims/A.jpg,/static/Simple_RL/Stimuli/Fractals_stims/B.jpg,96.0,1.5,1.0,,,,,,,,
70,,rl_choice_warning,,html-keyboard-response,70,167299,0.0-1.0-117.0-0.0,0,0,1,,,,,,16.0,,1.0,,,,,,,,,,,,,97.5,1.0,,,,,,,,,
71,,isi,,html-keyboard-response,71,169279,0.0-1.0-118.0,0,0,1,,,,,,16.0,,1.0,,,,,,,,,,,,,98.5,1.0,,,,,,,,,
72,,iti,,html-keyboard-response,72,171337,0.0-1.0-120.0,0,0,1,,,,,,16.0,,1.0,,,,,,,,,,,,,99.5,1.5,,,,,,,,,
73,,rl_choice,,html-keyboard-response,73,173327,0.0-1.0-122.0,0,0,1,,,,,,17.0,17.0,1.0,easy,2000.0,2000.0,1.0,80.0,20.0,100.0,40.0,C,D,/static/Simple_RL/Stimuli/Fractals_stims/C.jpg,/static/Simple_RL/Stimuli/Fractals_stims/D.jpg,101.0,1.5,1.0,,,,,,,,
74,,rl_choice_warning,,html-keyboard-response,74,175184,0.0-1.0-124.0-0.0,0,0,1,,,,,,17.0,,1.0,,,,,,,,,,,,,102.5,1.0,,,,,,,,,
75,,isi,,html-keyboard-response,75,178241,0.0-1.0-125.0,0,0,1,,,,,,17.0,,1.0,,,,,,,,,,,,,103.5,2.0,,,,,,,,,
76,,iti,,html-keyboard-response,76,181186,0.0-1.0-127.0,0,0,1,,,,,,17.0,,1.0,,,,,,,,,,,,,105.5,2.0,,,,,,,,,
77,,rl_choice,,html-keyboard-response,77,183313,0.0-1.0-129.0,0,0,1,,,,,,18.0,18.0,1.0,hard,1000.0,1500.0,1.0,60.0,40.0,80.0,60.0,A,B,/static/Simple_RL/Stimuli/Fractals_stims/A.jpg,/static/Simple_RL/Stimuli/Fractals_stims/B.jpg,107.5,1.5,1.0,,,,,,,,
78,,rl_choice_warning,,html-keyboard-response,78,185661,0.0-1.0-131.0-0.0,0,0,1,,,,,,18.0,,1.0,,,,,,,,,,,,,109.0,1.0,,,,,,,,,
79,,isi,,html-keyboard-response,79,187178,0.0-1.0-132.0,0,0,1,,,,,,18.0,,1.0,,,,,,,,,,,,,110.0,1.5,,,,,,,,,
80,,iti,,html-keyboard-response,80,189376,0.0-1.0-134.0,0,0,1,,,,,,18.0,,1.0,,,,,,,,,,,,,111.5,1.0,,,,,,,,,
81,,rl_choice,,html-keyboard-response,81,191353,0.0-1.0-136.0,0,0,1,,,,,,19.0,19.0,1.0,hard,1000.0,1000.0,1.0,60.0,40.0,60.0,20.0,A,B,/static/Simple_RL/Stimuli/Fractals_stims/A.jpg,/static/Simple_RL/Stimuli/Fractals_stims/B.jpg,112.5,1.5,1.0,,,,,,,,
82,,rl_choice_warning,,html-keyboard-response,82,193464,0.0-1.0-138.0-0.0,0,0,1,,,,,,19.0,,1.0,,,,,,,,,,,,,114.0,1.0,,,,,,,,,
83,,isi,,html-keyboard-response,83,195327,0.0-1.0-139.0,0,0,1,,,,,,19.0,,1.0,,,,,,,,,,,,,115.0,1.0,,,,,,,,,
84,,iti,,html-keyboard-response,84,197217,0.0-1.0-141.0,0,0,1,,,,,,19.0,,1.0,,,,,,,,,,,,,116.0,1.0,,,,,,,,,
85,,rl_choice,,html-keyboard-response,85,199401,0.0-1.0-143.0,0,0,1,,,,,,20.0,20.0,1.0,easy,1000.0,1000.0,0.0,20.0,80.0,0.0,60.0,D,C,/static/Simple_RL/Stimuli/Fractals_stims/D.jpg,/static/Simple_RL/Stimuli/Fractals_stims/C.jpg,117.0,1.5,1.0,,,,,,,,
86,,rl_choice_warning,,html-keyboard-response,86,201339,0.0-1.0-145.0-0.0,0,0,1,,,,,,20.0,,1.0,,,,,,,,,,,,,118.5,1.0,,,,,,,,,
87,,isi,,html-keyboard-response,87,203340,0.0-1.0-146.0,0,0,1,,,,,,20.0,,1.0,,,,,,,,,,,,,119.5,1.0,,,,,,,,,
88,,iti,,html-keyboard-response,88,205277,0.0-1.0-148.0,0,0,1,,,,,,20.0,,1.0,,,,,,,,,,,,,120.5,1.0,,,,,,,,,
89,,rl_choice,,html-keyboard-response,89,207660,0.0-1.0-150.0,0,0,1,,,,,,21.0,21.0,1.0,easy,2000.0,1500.0,1.0,80.0,20.0,60.0,20.0,C,D,/static/Simple_RL/Stimuli/Fractals_stims/C.jpg,/static/Simple_RL/Stimuli/Fractals_stims/D.jpg,121.5,1.5,1.0,,,,,,,,
90,,rl_choice_warning,,html-keyboard-response,90,209182,0.0-1.0-152.0-0.0,0,0,1,,,,,,21.0,,1.0,,,,,,,,,,,,,123.0,1.0,,,,,,,,,
91,,isi,,html-keyboard-response,91,211627,0.0-1.0-153.0,0,0,1,,,,,,21.0,,1.0,,,,,,,,,,,,,124.0,1.5,,,,,,,,,
92,,iti,,html-keyboard-response,92,214427,0.0-1.0-155.0,0,0,1,,,,,,21.0,,1.0,,,,,,,,,,,,,125.5,2.0,,,,,,,,,
93,,rl_choice,,html-keyboard-response,93,216291,0.0-1.0-157.0,0,0,1,,,,,,22.0,22.0,1.0,easy,1000.0,1000.0,1.0,80.0,20.0,100.0,0.0,C,D,/static/Simple_RL/Stimuli/Fractals_stims/C.jpg,/static/Simple_RL/Stimuli/Fractals_stims/D.jpg,127.5,1.5,1.0,,,,,,,,
94,,rl_choice_warning,,html-keyboard-response,94,218639,0.0-1.0-159.0-0.0,0,0,1,,,,,,22.0,,1.0,,,,,,,,,,,,,129.0,1.0,,,,,,,,,
95,,isi,,html-keyboard-response,95,220441,0.0-1.0-160.0,0,0,1,,,,,,22.0,,1.0,,,,,,,,,,,,,130.0,1.0,,,,,,,,,
96,,iti,,html-keyboard-response,96,222226,0.0-1.0-162.0,0,0,1,,,,,,22.0,,1.0,,,,,,,,,,,,,131.0,1.0,,,,,,,,,
97,,rl_choice,,html-keyboard-response,97,224590,0.0-1.0-164.0,0,0,1,,,,,,23.0,23.0,1.0,easy,1500.0,3000.0,1.0,80.0,20.0,80.0,20.0,C,D,/static/Simple_RL/Stimuli/Fractals_stims/C.jpg,/static/Simple_RL/Stimuli/Fractals_stims/D.jpg,132.0,1.5,1.0,,,,,,,,
98,,rl_choice_warning,,html-keyboard-response,98,226357,0.0-1.0-166.0-0.0,0,0,1,,,,,,23.0,,1.0,,,,,,,,,,,,,133.5,1.0,,,,,,,,,
99,,isi,,html-keyboard-response,99,230446,0.0-1.0-167.0,0,0,1,,,,,,23.0,,1.0,,,,,,,,,,,,,134.5,3.0,,,,,,,,,
100,,iti,,html-keyboard-response,100,232190,0.0-1.0-169.0,0,0,1,,,,,,23.0,,1.0,,,,,,,,,,,,,137.5,1.5,,,,,,,,,
101,,rl_choice,,html-keyboard-response,101,234354,0.0-1.0-171.0,0,0,1,,,,,,24.0,24.0,1.0,hard,2000.0,1500.0,0.0,40.0,60.0,40.0,60.0,B,A,/static/Simple_RL/Stimuli/Fractals_stims/B.jpg,/static/Simple_RL/Stimuli/Fractals_stims/A.jpg,139.0,1.5,1.0,,,,,,,,
102,,rl_choice_warning,,html-keyboard-response,102,236245,0.0-1.0-173.0-0.0,0,0,1,,,,,,24.0,,1.0,,,,,,,,,,,,,140.5,1.0,,,,,,,,,
103,,isi,,html-keyboard-response,103,238598,0.0-1.0-174.0,0,0,1,,,,,,24.0,,1.0,,,,,,,,,,,,,141.5,1.5,,,,,,,,,
104,,iti,,html-keyboard-response,104,241214,0.0-1.0-176.0,0,0,1,,,,,,24.0,,1.0,,,,,,,,,,,,,143.0,2.0,,,,,,,,,
105,,rl_choice,,html-keyboard-response,105,243298,0.0-1.0-178.0,0,0,1,,,,,,25.0,25.0,1.0,hard,3000.0,1500.0,1.0,60.0,40.0,40.0,40.0,A,B,/static/Simple_RL/Stimuli/Fractals_stims/A.jpg,/static/Simple_RL/Stimuli/Fractals_stims/B.jpg,145.0,1.5,1.0,,,,,,,,
106,,rl_choice_warning,,html-keyboard-response,106,245388,0.0-1.0-180.0-0.0,0,0,1,,,,,,25.0,,1.0,,,,,,,,,,,,,146.5,1.0,,,,,,,,,
107,,isi,,html-keyboard-response,107,247312,0.0-1.0-181.0,0,0,1,,,,,,25.0,,1.0,,,,,,,,,,,,,147.5,1.5,,,,,,,,,
108,,iti,,html-keyboard-response,108,251209,0.0-1.0-183.0,0,0,1,,,,,,25.0,,1.0,,,,,,,,,,,,,149.0,3.0,,,,,,,,,
109,,rl_choice,,html-keyboard-response,109,253643,0.0-1.0-185.0,0,0,1,,,,,,26.0,26.0,1.0,hard,1000.0,2000.0,0.0,40.0,60.0,40.0,80.0,B,A,/static/Simple_RL/Stimuli/Fractals_stims/B.jpg,/static/Simple_RL/Stimuli/Fractals_stims/A.jpg,152.0,1.5,1.0,,,,,,,,
110,,rl_choice_warning,,html-keyboard-response,110,255228,0.0-1.0-187.0-0.0,0,0,1,,,,,,26.0,,1.0,,,,,,,,,,,,,153.5,1.0,,,,,,,,,
111,,isi,,html-keyboard-response,111,258229,0.0-1.0-188.0,0,0,1,,,,,,26.0,,1.0,,,,,,,,,,,,,154.5,2.0,,,,,,,,,
112,,iti,,html-keyboard-response,112,260303,0.0-1.0-190.0,0,0,1,,,,,,26.0,,1.0,,,,,,,,,,,,,156.5,1.0,,,,,,,,,
113,,rl_choice,,html-keyboard-response,113,262353,0.0-1.0-192.0,0,0,1,,,,,,27.0,27.0,1.0,easy,3000.0,1000.0,1.0,80.0,20.0,80.0,40.0,C,D,/static/Simple_RL/Stimuli/Fractals_stims/C.jpg,/static/Simple_RL/Stimuli/Fractals_stims/D.jpg,157.5,1.5,1.0,,,,,,,,
114,,rl_choice_warning,,html-keyboard-response,114,264404,0.0-1.0-194.0-0.0,0,0,1,,,,,,27.0,,1.0,,,,,,,,,,,,,159.0,1.0,,,,,,,,,
115,,isi,,html-keyboard-response,115,266306,0.0-1.0-195.0,0,0,1,,,,,,27.0,,1.0,,,,,,,,,,,,,160.0,1.0,,,,,,,,,
116,,iti,,html-keyboard-response,116,270176,0.0-1.0-197.0,0,0,1,,,,,,27.0,,1.0,,,,,,,,,,,,,161.0,3.0,,,,,,,,,
117,,rl_choice,,html-keyboard-response,117,272318,0.0-1.0-199.0,0,0,1,,,,,,28.0,28.0,1.0,easy,1000.0,3500.0,1.0,80.0,20.0,60.0,20.0,C,D,/static/Simple_RL/Stimuli/Fractals_stims/C.jpg,/static/Simple_RL/Stimuli/Fractals_stims/D.jpg,164.0,1.5,1.0,,,,,,,,
118,,rl_choice_warning,,html-keyboard-response,118,274451,0.0-1.0-201.0-0.0,0,0,1,,,,,,28.0,,1.0,,,,,,,,,,,,,165.5,1.0,,,,,,,,,
119,,isi,,html-keyboard-response,119,278633,0.0-1.0-202.0,0,0,1,,,,,,28.0,,1.0,,,,,,,,,,,,,166.5,3.5,,,,,,,,,
120,,iti,,html-keyboard-response,120,280176,0.0-1.0-204.0,0,0,1,,,,,,28.0,,1.0,,,,,,,,,,,,,170.0,1.0,,,,,,,,,
121,,rl_choice,,html-keyboard-response,121,282176,0.0-1.0-206.0,0,0,1,,,,,,29.0,29.0,1.0,hard,1500.0,1000.0,0.0,40.0,60.0,60.0,40.0,B,A,/static/Simple_RL/Stimuli/Fractals_stims/B.jpg,/static/Simple_RL/Stimuli/Fractals_stims/A.jpg,171.0,1.5,1.0,,,,,,,,
122,,rl_choice_warning,,html-keyboard-response,122,284503,0.0-1.0-208.0-0.0,0,0,1,,,,,,29.0,,1.0,,,,,,,,,,,,,172.5,1.0,,,,,,,,,
123,,isi,,html-keyboard-response,123,286275,0.0-1.0-209.0,0,0,1,,,,,,29.0,,1.0,,,,,,,,,,,,,173.5,1.0,,,,,,,,,
124,,iti,,html-keyboard-response,124,288331,0.0-1.0-211.0,0,0,1,,,,,,29.0,,1.0,,,,,,,,,,,,,174.5,1.5,,,,,,,,,
125,,rl_choice,,html-keyboard-response,125,290342,0.0-1.0-213.0,0,0,1,,,,,,30.0,30.0,1.0,easy,1000.0,1500.0,1.0,80.0,20.0,100.0,20.0,C,D,/static/Simple_RL/Stimuli/Fractals_stims/C.jpg,/static/Simple_RL/Stimuli/Fractals_stims/D.jpg,176.0,1.5,1.0,,,,,,,,
126,,rl_choice_warning,,html-keyboard-response,126,292554,0.0-1.0-215.0-0.0,0,0,1,,,,,,30.0,,1.0,,,,,,,,,,,,,177.5,1.0,,,,,,,,,
127,,isi,,html-keyboard-response,127,294405,0.0-1.0-216.0,0,0,1,,,,,,30.0,,1.0,,,,,,,,,,,,,178.5,1.5,,,,,,,,,
128,,iti,,html-keyboard-response,128,296177,0.0-1.0-218.0,0,0,1,,,,,,30.0,,1.0,,,,,,,,,,,,,180.0,1.0,,,,,,,,,
129,,rl_choice,,html-keyboard-response,129,298632,0.0-1.0-220.0,0,0,1,,,,,,31.0,31.0,1.0,easy,2000.0,1500.0,0.0,20.0,80.0,40.0,100.0,D,C,/static/Simple_RL/Stimuli/Fractals_stims/D.jpg,/static/Simple_RL/Stimuli/Fractals_stims/C.jpg,181.0,1.5,1.0,,,,,,,,
130,,rl_choice_warning,,html-keyboard-response,130,300176,0.0-1.0-222.0-0.0,0,0,1,,,,,,31.0,,1.0,,,,,,,,,,,,,182.5,1.0,,,,,,,,,
131,,isi,,html-keyboard-response,131,302193,0.0-1.0-223.0,0,0,1,,,,,,31.0,,1.0,,,,,,,,,,,,,183.5,1.5,,,,,,,,,
132,,iti,,html-keyboard-response,132,305409,0.0-1.0-225.0,0,0,1,,,,,,31.0,,1.0,,,,,,,,,,,,,185.0,2.0,,,,,,,,,
133,,rl_choice,,html-keyboard-response,133,307342,0.0-1.0-227.0,0,0,1,,,,,,32.0,32.0,1.0,hard,1500.0,1000.0,0.0,40.0,60.0,40.0,80.0,B,A,/static/Simple_RL/Stimuli/Fractals_stims/B.jpg,/static/Simple_RL/Stimuli/Fractals_stims/A.jpg,187.0,1.5,1.0,,,,,,,,
134,,rl_choice_warning,,html-keyboard-response,134,309366,0.0-1.0-229.0-0.0,0,0,1,,,,,,32.0,,1.0,,,,,,,,,,,,,188.5,1.0,,,,,,,,,
135,,isi,,html-keyboard-response,135,311284,0.0-1.0-230.0,0,0,1,,,,,,32.0,,1.0,,,,,,,,,,,,,189.5,1.0,,,,,,,,,
136,,iti,,html-keyboard-response,136,313186,0.0-1.0-232.0,0,0,1,,,,,,32.0,,1.0,,,,,,,,,,,,,190.5,1.5,,,,,,,,,
137,,rl_choice,,html-keyboard-response,137,315665,0.0-1.0-234.0,0,0,1,,,,,,33.0,33.0,1.0,easy,1000.0,1000.0,0.0,20.0,80.0,40.0,100.0,D,C,/static/Simple_RL/Stimuli/Fractals_stims/D.jpg,/static/Simple_RL/Stimuli/Fractals_stims/C.jpg,192.0,1.5,1.0,,,,,,,,
138,,rl_choice_warning,,html-keyboard-response,138,317197,0.0-1.0-236.0-0.0,0,0,1,,,,,,33.0,,1.0,,,,,,,,,,,,,193.5,1.0,,,,,,,,,
139,,isi,,html-keyboard-response,139,319497,0.0-1.0-237.0,0,0,1,,,,,,33.0,,1.0,,,,,,,,,,,,,194.5,1.0,,,,,,,,,
140,,iti,,html-keyboard-response,140,321230,0.0-1.0-239.0,0,0,1,,,,,,33.0,,1.0,,,,,,,,,,,,,195.5,1.0,,,,,,,,,
141,,rl_choice,,html-keyboard-response,141,323188,0.0-1.0-241.0,0,0,1,,,,,,34.0,34.0,1.0,easy,3500.0,3000.0,1.0,80.0,20.0,80.0,40.0,C,D,/static/Simple_RL/Stimuli/Fractals_stims/C.jpg,/static/Simple_RL/Stimuli/Fractals_stims/D.jpg,196.5,1.5,1.0,,,,,,,,
142,,rl_choice_warning,,html-keyboard-response,142,325176,0.0-1.0-243.0-0.0,0,0,1,,,,,,34.0,,1.0,,,,,,,,,,,,,198.0,1.0,,,,,,,,,
143,,isi,,html-keyboard-response,143,329257,0.0-1.0-244.0,0,0,1,,,,,,34.0,,1.0,,,,,,,,,,,,,199.0,3.0,,,,,,,,,
144,,iti,,html-keyboard-response,144,334278,0.0-1.0-246.0,0,0,1,,,,,,34.0,,1.0,,,,,,,,,,,,,202.0,3.5,,,,,,,,,
145,,rl_choice,,html-keyboard-response,145,355935,0.0-1.0-248.0,0,0,1,,,,,,35.0,35.0,1.0,easy,1500.0,2000.0,1.0,80.0,20.0,60.0,40.0,C,D,/static/Simple_RL/Stimuli/Fractals_stims/C.jpg,/static/Simple_RL/Stimuli/Fractals_stims/D.jpg,205.5,1.5,1.0,,,,,,,,
146,,rl_choice_warning,,html-keyboard-response,146,356939,0.0-1.0-250.0-0.0,0,0,1,,,,,,35.0,,1.0,,,,,,,,,,,,,207.0,1.0,,,,,,,,,
147,,isi,,html-keyboard-response,147,358943,0.0-1.0-251.0,0,0,1,,,,,,35.0,,1.0,,,,,,,,,,,,,208.0,2.0,,,,,,,,,
148,,iti,,html-keyboard-response,148,360448,0.0-1.0-253.0,0,0,1,,,,,,35.0,,1.0,,,,,,,,,,,,,210.0,1.5,,,,,,,,,
149,,rl_choice,,html-keyboard-response,149,360449,0.0-1.0-255.0,0,0,1,,0.0,,,51.0,36.0,36.0,1.0,easy,1500.0,1500.0,0.0,20.0,80.0,20.0,100.0,D,C,/static/Simple_RL/Stimuli/Fractals_stims/D.jpg,/static/Simple_RL/Stimuli/Fractals_stims/C.jpg,211.5,0.0,0.0,0.0,80.0,20.0,100.0,20.0,C,D,
150,,rl_choice_confirmation,,html-keyboard-response,150,361951,0.0-1.0-256.0-0.0,0,0,1,,,,,,36.0,,1.0,,,,,,,,,,,,,211.5,1.5,,,,,,,,,
151,,isi,,html-keyboard-response,151,363457,0.0-1.0-258.0,0,0,1,,,,,,36.0,,1.0,,,,,,,,,,,,,213.0,1.5,,,,,,,,,
152,,feedback,,html-keyboard-response,152,364460,0.0-1.0-259.0-0.0,0,0,1,,,,,,36.0,,1.0,,,,,,,,,,,,,214.5,1.0,,,,,,,,,
153,,iti,,html-keyboard-response,153,365962,0.0-1.0-260.0,0,0,1,,,,,,36.0,,1.0,,,,,,,,,,,,,215.5,1.5,,,,,,,,,
154,,rl_choice,,html-keyboard-response,154,367467,0.0-1.0-262.0,0,0,1,,,,,,37.0,37.0,1.0,hard,2000.0,1000.0,1.0,60.0,40.0,60.0,40.0,A,B,/static/Simple_RL/Stimuli/Fractals_stims/A.jpg,/static/Simple_RL/Stimuli/Fractals_stims/B.jpg,217.0,1.5,1.0,,,,,,,,
155,,rl_choice_warning,,html-keyboard-response,155,368473,0.0-1.0-264.0-0.0,0,0,1,,,,,,37.0,,1.0,,,,,,,,,,,,,218.5,1.0,,,,,,,,,
156,,isi,,html-keyboard-response,156,369478,0.0-1.0-265.0,0,0,1,,,,,,37.0,,1.0,,,,,,,,,,,,,219.5,1.0,,,,,,,,,
157,,iti,,html-keyboard-response,157,371484,0.0-1.0-267.0,0,0,1,,,,,,37.0,,1.0,,,,,,,,,,,,,220.5,2.0,,,,,,,,,
158,,rl_choice,,html-keyboard-response,158,372989,0.0-1.0-269.0,0,0,1,,,,,,38.0,38.0,1.0,hard,1000.0,1500.0,0.0,40.0,60.0,20.0,40.0,B,A,/static/Simple_RL/Stimuli/Fractals_stims/B.jpg,/static/Simple_RL/Stimuli/Fractals_stims/A.jpg,222.5,1.5,1.0,,,,,,,,
159,,rl_choice_warning,,html-keyboard-response,159,373995,0.0-1.0-271.0-0.0,0,0,1,,,,,,38.0,,1.0,,,,,,,,,,,,,224.0,1.0,,,,,,,,,
160,,isi,,html-keyboard-response,160,375497,0.0-1.0-272.0,0,0,1,,,,,,38.0,,1.0,,,,,,,,,,,,,225.0,1.5,,,,,,,,,
161,,iti,,html-keyboard-response,161,376502,0.0-1.0-274.0,0,0,1,,,,,,38.0,,1.0,,,,,,,,,,,,,226.5,1.0,,,,,,,,,
162,,rl_choice,,html-keyboard-response,162,378007,0.0-1.0-276.0,0,0,1,,,,,,39.0,39.0,1.0,easy,1000.0,1000.0,0.0,20.0,80.0,0.0,60.0,D,C,/static/Simple_RL/Stimuli/Fractals_stims/D.jpg,/static/Simple_RL/Stimuli/Fractals_stims/C.jpg,227.5,1.5,1.0,,,,,,,,
163,,rl_choice_warning,,html-keyboard-response,163,379009,0.0-1.0-278.0-0.0,0,0,1,,,,,,39.0,,1.0,,,,,,,,,,,,,229.0,1.0,,,,,,,,,
164,,isi,,html-keyboard-response,164,380014,0.0-1.0-279.0,0,0,1,,,,,,39.0,,1.0,,,,,,,,,,,,,230.0,1.0,,,,,,,,,
165,,iti,,html-keyboard-response,165,381020,0.0-1.0-281.0,0,0,1,,,,,,39.0,,1.0,,,,,,,,,,,,,231.0,1.0,,,,,,,,,
166,,block_over,,html-keyboard-response,166,1040762,0.0-1.0-282.0-0.0,0,0,1,,659739.0,,,83.0,39.0,,,,,,,,,,,,,,,,,,,,,,,,,
167,,start_run,,html-keyboard-response,167,1043488,0.0-1.0-282.0-1.0,0,0,1,,2726.0,,,84.0,,,,,,,,,,,,,,,,,,,,,,,,,,
168,,rl_choice,,html-keyboard-response,168,1044088,0.0-1.0-283.0,0,0,1,,598.0,,,50.0,40.0,40.0,2.0,easy,1500.0,2000.0,1.0,80.0,20.0,60.0,20.0,C,D,/static/Simple_RL/Stimuli/Fractals_stims/C.jpg,/static/Simple_RL/Stimuli/Fractals_stims/D.jpg,0.0,0.598,0.0,1.0,80.0,20.0,60.0,20.0,C,D,
169,,rl_choice_confirmation,,html-keyboard-response,169,1044992,0.0-1.0-284.0-0.0,0,0,1,,,,,,40.0,,2.0,,,,,,,,,,,,,0.598,0.902,,,,,,,,,
170,,isi,,html-keyboard-response,170,1047236,0.0-1.0-286.0,0,0,1,,,,,,40.0,,2.0,,,,,,,,,,,,,1.5,2.0,,,,,,,,,
171,,feedback,,html-keyboard-response,171,1049541,0.0-1.0-287.0-0.0,0,0,1,,,,,,40.0,,2.0,,,,,,,,,,,,,3.5,1.0,,,,,,,,,
172,,iti,,html-keyboard-response,172,1051907,0.0-1.0-288.0,0,0,1,,,,,,40.0,,2.0,,,,,,,,,,,,,4.5,1.5,,,,,,,,,
173,,rl_choice,,html-keyboard-response,173,1054321,0.0-1.0-290.0,0,0,1,,,,,,41.0,41.0,2.0,hard,1000.0,2000.0,0.0,40.0,60.0,60.0,60.0,B,A,/static/Simple_RL/Stimuli/Fractals_stims/B.jpg,/static/Simple_RL/Stimuli/Fractals_stims/A.jpg,6.0,1.5,1.0,,,,,,,,
174,,rl_choice_warning,,html-keyboard-response,174,1056237,0.0-1.0-292.0-0.0,1,0,1,,,,,,41.0,,2.0,,,,,,,,,,,,,7.5,1.0,,,,,,,,,
175,,isi,,html-keyboard-response,175,1059276,0.0-1.0-293.0,0,0,1,,,,,,41.0,,2.0,,,,,,,,,,,,,8.5,2.0,,,,,,,,,
176,,iti,,html-keyboard-response,176,1061672,0.0-1.0-295.0,0,0,1,,,,,,41.0,,2.0,,,,,,,,,,,,,10.5,1.0,,,,,,,,,
177,,rl_choice,,html-keyboard-response,177,1063937,0.0-1.0-297.0,0,0,1,,,,,,42.0,42.0,2.0,hard,1500.0,1000.0,0.0,40.0,60.0,20.0,80.0,B,A,/static/Simple_RL/Stimuli/Fractals_stims/B.jpg,/static/Simple_RL/Stimuli/Fractals_stims/A.jpg,11.5,1.5,1.0,,,,,,,,
178,,rl_choice_warning,,html-keyboard-response,178,1065794,0.0-1.0-299.0-0.0,1,0,1,,,,,,42.0,,2.0,,,,,,,,,,,,,13.0,1.0,,,,,,,,,
179,,isi,,html-keyboard-response,179,1067769,0.0-1.0-300.0,0,0,1,,,,,,42.0,,2.0,,,,,,,,,,,,,14.0,1.0,,,,,,,,,
180,,iti,,html-keyboard-response,180,1070223,0.0-1.0-302.0,0,0,1,,,,,,42.0,,2.0,,,,,,,,,,,,,15.0,1.5,,,,,,,,,
181,,rl_choice,,html-keyboard-response,181,1073013,0.0-1.0-304.0,0,0,1,,,,,,43.0,43.0,2.0,hard,1000.0,2000.0,0.0,40.0,60.0,20.0,80.0,B,A,/static/Simple_RL/Stimuli/Fractals_stims/B.jpg,/static/Simple_RL/Stimuli/Fractals_stims/A.jpg,16.5,1.5,1.0,,,,,,,,
182,,rl_choice_warning,,html-keyboard-response,182,1074769,0.0-1.0-306.0-0.0,1,0,1,,,,,,43.0,,2.0,,,,,,,,,,,,,18.0,1.0,,,,,,,,,
183,,isi,,html-keyboard-response,183,1078121,0.0-1.0-307.0,0,0,1,,,,,,43.0,,2.0,,,,,,,,,,,,,19.0,2.0,,,,,,,,,
184,,iti,,html-keyboard-response,184,1079185,0.0-1.0-309.0,0,0,1,,,,,,43.0,,2.0,,,,,,,,,,,,,21.0,1.0,,,,,,,,,
185,,rl_choice,,html-keyboard-response,185,1081483,0.0-1.0-311.0,0,0,1,,,,,,44.0,44.0,2.0,hard,1000.0,1000.0,0.0,40.0,60.0,40.0,40.0,B,A,/static/Simple_RL/Stimuli/Fractals_stims/B.jpg,/static/Simple_RL/Stimuli/Fractals_stims/A.jpg,22.0,1.5,1.0,,,,,,,,
186,,rl_choice_warning,,html-keyboard-response,186,1083198,0.0-1.0-313.0-0.0,1,0,1,,,,,,44.0,,2.0,,,,,,,,,,,,,23.5,1.0,,,,,,,,,
187,,isi,,html-keyboard-response,187,1085240,0.0-1.0-314.0,0,0,1,,,,,,44.0,,2.0,,,,,,,,,,,,,24.5,1.0,,,,,,,,,
188,,iti,,html-keyboard-response,188,1088137,0.0-1.0-316.0,0,0,1,,,,,,44.0,,2.0,,,,,,,,,,,,,25.5,1.0,,,,,,,,,
189,,rl_choice,,html-keyboard-response,189,1091137,0.0-1.0-318.0,0,0,1,,,,,,45.0,45.0,2.0,hard,2000.0,1500.0,0.0,40.0,60.0,20.0,40.0,B,A,/static/Simple_RL/Stimuli/Fractals_stims/B.jpg,/static/Simple_RL/Stimuli/Fractals_stims/A.jpg,26.5,1.5,1.0,,,,,,,,
190,,rl_choice_warning,,html-keyboard-response,190,1092699,0.0-1.0-320.0-0.0,1,0,1,,,,,,45.0,,2.0,,,,,,,,,,,,,28.0,1.0,,,,,,,,,
191,,isi,,html-keyboard-response,191,1096103,0.0-1.0-321.0,0,0,1,,,,,,45.0,,2.0,,,,,,,,,,,,,29.0,1.5,,,,,,,,,
192,,iti,,html-keyboard-response,192,1099089,0.0-1.0-323.0,0,0,1,,,,,,45.0,,2.0,,,,,,,,,,,,,30.5,2.0,,,,,,,,,
193,,rl_choice,,html-keyboard-response,193,1102087,0.0-1.0-325.0,0,0,1,,,,,,46.0,46.0,2.0,easy,1500.0,3000.0,0.0,20.0,80.0,0.0,80.0,D,C,/static/Simple_RL/Stimuli/Fractals_stims/D.jpg,/static/Simple_RL/Stimuli/Fractals_stims/C.jpg,32.5,1.5,1.0,,,,,,,,
194,,rl_choice_warning,,html-keyboard-response,194,1103717,0.0-1.0-327.0-0.0,1,0,1,,,,,,46.0,,2.0,,,,,,,,,,,,,34.0,1.0,,,,,,,,,
195,,isi,,html-keyboard-response,195,1107643,0.0-1.0-328.0,0,0,1,,,,,,46.0,,2.0,,,,,,,,,,,,,35.0,3.0,,,,,,,,,
196,,iti,,html-keyboard-response,196,1109499,0.0-1.0-330.0,0,0,1,,,,,,46.0,,2.0,,,,,,,,,,,,,38.0,1.5,,,,,,,,,
197,,rl_choice,,html-keyboard-response,197,1111243,0.0-1.0-332.0,0,0,1,,,,,,47.0,47.0,2.0,easy,1500.0,1000.0,0.0,20.0,80.0,20.0,80.0,D,C,/static/Simple_RL/Stimuli/Fractals_stims/D.jpg,/static/Simple_RL/Stimuli/Fractals_stims/C.jpg,39.5,1.5,1.0,,,,,,,,
198,,rl_choice_warning,,html-keyboard-response,198,1113937,0.0-1.0-334.0-0.0,1,0,1,,,,,,47.0,,2.0,,,,,,,,,,,,,41.0,1.0,,,,,,,,,
199,,isi,,html-keyboard-response,199,1115787,0.0-1.0-335.0,0,0,1,,,,,,47.0,,2.0,,,,,,,,,,,,,42.0,1.0,,,,,,,,,
200,,iti,,html-keyboard-response,200,1118412,0.0-1.0-337.0,0,0,1,,,,,,47.0,,2.0,,,,,,,,,,,,,43.0,1.5,,,,,,,,,
201,,rl_choice,,html-keyboard-response,201,1121057,0.0-1.0-339.0,0,0,1,,,,,,48.0,48.0,2.0,easy,2000.0,1000.0,1.0,80.0,20.0,80.0,20.0,C,D,/static/Simple_RL/Stimuli/Fractals_stims/C.jpg,/static/Simple_RL/Stimuli/Fractals_stims/D.jpg,44.5,1.5,1.0,,,,,,,,
202,,rl_choice_warning,,html-keyboard-response,202,1122738,0.0-1.0-341.0-0.0,1,0,1,,,,,,48.0,,2.0,,,,,,,,,,,,,46.0,1.0,,,,,,,,,
203,,isi,,html-keyboard-response,203,1124638,0.0-1.0-342.0,0,0,1,,,,,,48.0,,2.0,,,,,,,,,,,,,47.0,1.0,,,,,,,,,
204,,iti,,html-keyboard-response,204,1128028,0.0-1.0-344.0,0,0,1,,,,,,48.0,,2.0,,,,,,,,,,,,,48.0,2.0,,,,,,,,,
205,,rl_choice,,html-keyboard-response,205,1131003,0.0-1.0-346.0,0,0,1,,,,,,49.0,49.0,2.0,hard,1500.0,2000.0,0.0,40.0,60.0,60.0,60.0,B,A,/static/Simple_RL/Stimuli/Fractals_stims/B.jpg,/static/Simple_RL/Stimuli/Fractals_stims/A.jpg,50.0,1.5,1.0,,,,,,,,
206,,rl_choice_warning,,html-keyboard-response,206,1132773,0.0-1.0-348.0-0.0,1,0,1,,,,,,49.0,,2.0,,,,,,,,,,,,,51.5,1.0,,,,,,,,,
207,,isi,,html-keyboard-response,207,1135206,0.0-1.0-349.0,0,0,1,,,,,,49.0,,2.0,,,,,,,,,,,,,52.5,2.0,,,,,,,,,
208,,iti,,html-keyboard-response,208,1138053,0.0-1.0-351.0,0,0,1,,,,,,49.0,,2.0,,,,,,,,,,,,,54.5,1.5,,,,,,,,,
209,,rl_choice,,html-keyboard-response,209,1141037,0.0-1.0-353.0,0,0,1,,,,,,50.0,50.0,2.0,easy,1000.0,3500.0,0.0,20.0,80.0,0.0,100.0,D,C,/static/Simple_RL/Stimuli/Fractals_stims/D.jpg,/static/Simple_RL/Stimuli/Fractals_stims/C.jpg,56.0,1.5,1.0,,,,,,,,
210,,rl_choice_warning,,html-keyboard-response,210,1142759,0.0-1.0-355.0-0.0,1,0,1,,,,,,50.0,,2.0,,,,,,,,,,,,,57.5,1.0,,,,,,,,,
211,,isi,,html-keyboard-response,211,1147186,0.0-1.0-356.0,0,0,1,,,,,,50.0,,2.0,,,,,,,,,,,,,58.5,3.5,,,,,,,,,
212,,iti,,html-keyboard-response,212,1150006,0.0-1.0-358.0,0,0,1,,,,,,50.0,,2.0,,,,,,,,,,,,,62.0,1.0,,,,,,,,,
213,,rl_choice,,html-keyboard-response,213,1153001,0.0-1.0-360.0,0,0,1,,,,,,51.0,51.0,2.0,easy,1500.0,1000.0,1.0,80.0,20.0,60.0,20.0,C,D,/static/Simple_RL/Stimuli/Fractals_stims/C.jpg,/static/Simple_RL/Stimuli/Fractals_stims/D.jpg,63.0,1.5,1.0,,,,,,,,
214,,rl_choice_warning,,html-keyboard-response,214,1154778,0.0-1.0-362.0-0.0,1,0,1,,,,,,51.0,,2.0,,,,,,,,,,,,,64.5,1.0,,,,,,,,,
215,,isi,,html-keyboard-response,215,1156186,0.0-1.0-363.0,0,0,1,,,,,,51.0,,2.0,,,,,,,,,,,,,65.5,1.0,,,,,,,,,
216,,iti,,html-keyboard-response,216,1158499,0.0-1.0-365.0,0,0,1,,,,,,51.0,,2.0,,,,,,,,,,,,,66.5,1.5,,,,,,,,,
217,,rl_choice,,html-keyboard-response,217,1160238,0.0-1.0-367.0,0,0,1,,,,,,52.0,52.0,2.0,hard,2000.0,1500.0,0.0,40.0,60.0,20.0,80.0,B,A,/static/Simple_RL/Stimuli/Fractals_stims/B.jpg,/static/Simple_RL/Stimuli/Fractals_stims/A.jpg,68.0,1.5,1.0,,,,,,,,
218,,rl_choice_warning,,html-keyboard-response,218,1162960,0.0-1.0-369.0-0.0,1,0,1,,,,,,52.0,,2.0,,,,,,,,,,,,,69.5,1.0,,,,,,,,,
219,,isi,,html-keyboard-response,219,1165953,0.0-1.0-370.0,0,0,1,,,,,,52.0,,2.0,,,,,,,,,,,,,70.5,1.5,,,,,,,,,
220,,iti,,html-keyboard-response,220,1168287,0.0-1.0-372.0,0,0,1,,,,,,52.0,,2.0,,,,,,,,,,,,,72.0,2.0,,,,,,,,,
221,,rl_choice,,html-keyboard-response,221,1170772,0.0-1.0-374.0,0,0,1,,,,,,53.0,53.0,2.0,hard,3000.0,1500.0,0.0,40.0,60.0,20.0,40.0,B,A,/static/Simple_RL/Stimuli/Fractals_stims/B.jpg,/static/Simple_RL/Stimuli/Fractals_stims/A.jpg,74.0,1.5,1.0,,,,,,,,
222,,rl_choice_warning,,html-keyboard-response,222,1172888,0.0-1.0-376.0-0.0,1,0,1,,,,,,53.0,,2.0,,,,,,,,,,,,,75.5,1.0,,,,,,,,,
223,,isi,,html-keyboard-response,223,1175888,0.0-1.0-377.0,0,0,1,,,,,,53.0,,2.0,,,,,,,,,,,,,76.5,1.5,,,,,,,,,
224,,iti,,html-keyboard-response,224,1179319,0.0-1.0-379.0,0,0,1,,,,,,53.0,,2.0,,,,,,,,,,,,,78.0,3.0,,,,,,,,,
225,,rl_choice,,html-keyboard-response,225,1181670,0.0-1.0-381.0,0,0,1,,,,,,54.0,54.0,2.0,easy,3000.0,1500.0,0.0,20.0,80.0,20.0,100.0,D,C,/static/Simple_RL/Stimuli/Fractals_stims/D.jpg,/static/Simple_RL/Stimuli/Fractals_stims/C.jpg,81.0,1.5,1.0,,,,,,,,
226,,rl_choice_warning,,html-keyboard-response,226,1183938,0.0-1.0-383.0-0.0,1,0,1,,,,,,54.0,,2.0,,,,,,,,,,,,,82.5,1.0,,,,,,,,,
227,,isi,,html-keyboard-response,227,1186939,0.0-1.0-384.0,0,0,1,,,,,,54.0,,2.0,,,,,,,,,,,,,83.5,1.5,,,,,,,,,
228,,iti,,html-keyboard-response,228,1190793,0.0-1.0-386.0,0,0,1,,,,,,54.0,,2.0,,,,,,,,,,,,,85.0,3.0,,,,,,,,,
229,,rl_choice,,html-keyboard-response,229,1193994,0.0-1.0-388.0,0,0,1,,,,,,55.0,55.0,2.0,easy,1500.0,1500.0,1.0,80.0,20.0,80.0,20.0,C,D,/static/Simple_RL/Stimuli/Fractals_stims/C.jpg,/static/Simple_RL/Stimuli/Fractals_stims/D.jpg,88.0,1.5,1.0,,,,,,,,
230,,rl_choice_warning,,html-keyboard-response,230,1195777,0.0-1.0-390.0-0.0,1,0,1,,,,,,55.0,,2.0,,,,,,,,,,,,,89.5,1.0,,,,,,,,,
231,,isi,,html-keyboard-response,231,1199088,0.0-1.0-391.0,0,0,1,,,,,,55.0,,2.0,,,,,,,,,,,,,90.5,1.5,,,,,,,,,
232,,iti,,html-keyboard-response,232,1202088,0.0-1.0-393.0,0,0,1,,,,,,55.0,,2.0,,,,,,,,,,,,,92.0,1.5,,,,,,,,,
233,,rl_choice,,html-keyboard-response,233,1205088,0.0-1.0-395.0,0,0,1,,,,,,56.0,56.0,2.0,easy,2000.0,2000.0,0.0,20.0,80.0,40.0,80.0,D,C,/static/Simple_RL/Stimuli/Fractals_stims/D.jpg,/static/Simple_RL/Stimuli/Fractals_stims/C.jpg,93.5,1.5,1.0,,,,,,,,
234,,rl_choice_warning,,html-keyboard-response,234,1206488,0.0-1.0-397.0-0.0,1,0,1,,,,,,56.0,,2.0,,,,,,,,,,,,,95.0,1.0,,,,,,,,,
235,,isi,,html-keyboard-response,235,1210085,0.0-1.0-398.0,0,0,1,,,,,,56.0,,2.0,,,,,,,,,,,,,96.0,2.0,,,,,,,,,
236,,iti,,html-keyboard-response,236,1213072,0.0-1.0-400.0,0,0,1,,,,,,56.0,,2.0,,,,,,,,,,,,,98.0,2.0,,,,,,,,,
237,,rl_choice,,html-keyboard-response,237,1216071,0.0-1.0-402.0,0,0,1,,,,,,57.0,57.0,2.0,easy,1000.0,1000.0,0.0,20.0,80.0,20.0,80.0,D,C,/static/Simple_RL/Stimuli/Fractals_stims/D.jpg,/static/Simple_RL/Stimuli/Fractals_stims/C.jpg,100.0,1.5,1.0,,,,,,,,
238,,rl_choice_warning,,html-keyboard-response,238,1217744,0.0-1.0-404.0-0.0,1,0,1,,,,,,57.0,,2.0,,,,,,,,,,,,,101.5,1.0,,,,,,,,,
239,,isi,,html-keyboard-response,239,1219644,0.0-1.0-405.0,0,0,1,,,,,,57.0,,2.0,,,,,,,,,,,,,102.5,1.0,,,,,,,,,
240,,iti,,html-keyboard-response,240,1221553,0.0-1.0-407.0,0,0,1,,,,,,57.0,,2.0,,,,,,,,,,,,,103.5,1.0,,,,,,,,,
241,,rl_choice,,html-keyboard-response,241,1223339,0.0-1.0-409.0,0,0,1,,,,,,58.0,58.0,2.0,easy,1000.0,1000.0,0.0,20.0,80.0,20.0,60.0,D,C,/static/Simple_RL/Stimuli/Fractals_stims/D.jpg,/static/Simple_RL/Stimuli/Fractals_stims/C.jpg,104.5,1.5,1.0,,,,,,,,
242,,rl_choice_warning,,html-keyboard-response,242,1225338,0.0-1.0-411.0-0.0,1,0,1,,,,,,58.0,,2.0,,,,,,,,,,,,,106.0,1.0,,,,,,,,,
243,,isi,,html-keyboard-response,243,1227639,0.0-1.0-412.0,0,0,1,,,,,,58.0,,2.0,,,,,,,,,,,,,107.0,1.0,,,,,,,,,
244,,iti,,html-keyboard-response,244,1229957,0.0-1.0-414.0,0,0,1,,,,,,58.0,,2.0,,,,,,,,,,,,,108.0,1.0,,,,,,,,,
245,,rl_choice,,html-keyboard-response,245,1232946,0.0-1.0-416.0,0,0,1,,,,,,59.0,59.0,2.0,hard,1500.0,1000.0,1.0,60.0,40.0,80.0,40.0,A,B,/static/Simple_RL/Stimuli/Fractals_stims/A.jpg,/static/Simple_RL/Stimuli/Fractals_stims/B.jpg,109.0,1.5,1.0,,,,,,,,
246,,rl_choice_warning,,html-keyboard-response,246,1234802,0.0-1.0-418.0-0.0,1,0,1,,,,,,59.0,,2.0,,,,,,,,,,,,,110.5,1.0,,,,,,,,,
247,,isi,,html-keyboard-response,247,1236767,0.0-1.0-419.0,0,0,1,,,,,,59.0,,2.0,,,,,,,,,,,,,111.5,1.0,,,,,,,,,
248,,iti,,html-keyboard-response,248,1240094,0.0-1.0-421.0,0,0,1,,,,,,59.0,,2.0,,,,,,,,,,,,,112.5,1.5,,,,,,,,,
249,,rl_choice,,html-keyboard-response,249,1242762,0.0-1.0-423.0,0,0,1,,,,,,60.0,60.0,2.0,hard,1500.0,1000.0,1.0,60.0,40.0,40.0,40.0,A,B,/static/Simple_RL/Stimuli/Fractals_stims/A.jpg,/static/Simple_RL/Stimuli/Fractals_stims/B.jpg,114.0,1.5,1.0,,,,,,,,
250,,rl_choice_warning,,html-keyboard-response,250,1244187,0.0-1.0-425.0-0.0,1,0,1,,,,,,60.0,,2.0,,,,,,,,,,,,,115.5,1.0,,,,,,,,,
251,,isi,,html-keyboard-response,251,1246741,0.0-1.0-426.0,0,0,1,,,,,,60.0,,2.0,,,,,,,,,,,,,116.5,1.0,,,,,,,,,
252,,iti,,html-keyboard-response,252,1250164,0.0-1.0-428.0,0,0,1,,,,,,60.0,,2.0,,,,,,,,,,,,,117.5,1.5,,,,,,,,,
253,,rl_choice,,html-keyboard-response,253,1253160,0.0-1.0-430.0,0,0,1,,,,,,61.0,61.0,2.0,hard,1000.0,1000.0,1.0,60.0,40.0,40.0,60.0,A,B,/static/Simple_RL/Stimuli/Fractals_stims/A.jpg,/static/Simple_RL/Stimuli/Fractals_stims/B.jpg,119.0,1.5,1.0,,,,,,,,
254,,rl_choice_warning,,html-keyboard-response,254,1254694,0.0-1.0-432.0-0.0,1,0,1,,,,,,61.0,,2.0,,,,,,,,,,,,,120.5,1.0,,,,,,,,,
255,,isi,,html-keyboard-response,255,1256586,0.0-1.0-433.0,0,0,1,,,,,,61.0,,2.0,,,,,,,,,,,,,121.5,1.0,,,,,,,,,
256,,iti,,html-keyboard-response,256,1258375,0.0-1.0-435.0,0,0,1,,,,,,61.0,,2.0,,,,,,,,,,,,,122.5,1.0,,,,,,,,,
257,,rl_choice,,html-keyboard-response,257,1260489,0.0-1.0-437.0,0,0,1,,,,,,62.0,62.0,2.0,hard,1000.0,3000.0,1.0,60.0,40.0,60.0,20.0,A,B,/static/Simple_RL/Stimuli/Fractals_stims/A.jpg,/static/Simple_RL/Stimuli/Fractals_stims/B.jpg,123.5,1.5,1.0,,,,,,,,
258,,rl_choice_warning,,html-keyboard-response,258,1263014,0.0-1.0-439.0-0.0,1,0,1,,,,,,62.0,,2.0,,,,,,,,,,,,,125.0,1.0,,,,,,,,,
259,,isi,,html-keyboard-response,259,1266357,0.0-1.0-440.0,0,0,1,,,,,,62.0,,2.0,,,,,,,,,,,,,126.0,3.0,,,,,,,,,
260,,iti,,html-keyboard-response,260,1268606,0.0-1.0-442.0,0,0,1,,,,,,62.0,,2.0,,,,,,,,,,,,,129.0,1.0,,,,,,,,,
261,,rl_choice,,html-keyboard-response,261,1270432,0.0-1.0-444.0,0,0,1,,,,,,63.0,63.0,2.0,easy,2000.0,1500.0,0.0,20.0,80.0,20.0,60.0,D,C,/static/Simple_RL/Stimuli/Fractals_stims/D.jpg,/static/Simple_RL/Stimuli/Fractals_stims/C.jpg,130.0,1.5,1.0,,,,,,,,
262,,rl_choice_warning,,html-keyboard-response,262,1272322,0.0-1.0-446.0-0.0,1,0,1,,,,,,63.0,,2.0,,,,,,,,,,,,,131.5,1.0,,,,,,,,,
263,,isi,,html-keyboard-response,263,1275109,0.0-1.0-447.0,0,0,1,,,,,,63.0,,2.0,,,,,,,,,,,,,132.5,1.5,,,,,,,,,
264,,iti,,html-keyboard-response,264,1278102,0.0-1.0-449.0,0,0,1,,,,,,63.0,,2.0,,,,,,,,,,,,,134.0,2.0,,,,,,,,,
265,,rl_choice,,html-keyboard-response,265,1280307,0.0-1.0-451.0,0,0,1,,,,,,64.0,64.0,2.0,easy,2000.0,1000.0,1.0,80.0,20.0,100.0,20.0,C,D,/static/Simple_RL/Stimuli/Fractals_stims/C.jpg,/static/Simple_RL/Stimuli/Fractals_stims/D.jpg,136.0,1.5,1.0,,,,,,,,
266,,rl_choice_warning,,html-keyboard-response,266,1282332,0.0-1.0-453.0-0.0,1,0,1,,,,,,64.0,,2.0,,,,,,,,,,,,,137.5,1.0,,,,,,,,,
267,,isi,,html-keyboard-response,267,1285104,0.0-1.0-454.0,0,0,1,,,,,,64.0,,2.0,,,,,,,,,,,,,138.5,1.0,,,,,,,,,
268,,iti,,html-keyboard-response,268,1288094,0.0-1.0-456.0,0,0,1,,,,,,64.0,,2.0,,,,,,,,,,,,,139.5,2.0,,,,,,,,,
269,,rl_choice,,html-keyboard-response,269,1291093,0.0-1.0-458.0,0,0,1,,,,,,65.0,65.0,2.0,hard,2000.0,1500.0,1.0,60.0,40.0,60.0,40.0,A,B,/static/Simple_RL/Stimuli/Fractals_stims/A.jpg,/static/Simple_RL/Stimuli/Fractals_stims/B.jpg,141.5,1.5,1.0,,,,,,,,
270,,rl_choice_warning,,html-keyboard-response,270,1292703,0.0-1.0-460.0-0.0,1,0,1,,,,,,65.0,,2.0,,,,,,,,,,,,,143.0,1.0,,,,,,,,,
271,,isi,,html-keyboard-response,271,1296128,0.0-1.0-461.0,0,0,1,,,,,,65.0,,2.0,,,,,,,,,,,,,144.0,1.5,,,,,,,,,
272,,iti,,html-keyboard-response,272,1298189,0.0-1.0-463.0,0,0,1,,,,,,65.0,,2.0,,,,,,,,,,,,,145.5,2.0,,,,,,,,,
273,,rl_choice,,html-keyboard-response,273,1301095,0.0-1.0-465.0,0,0,1,,,,,,66.0,66.0,2.0,hard,3000.0,1000.0,1.0,60.0,40.0,60.0,20.0,A,B,/static/Simple_RL/Stimuli/Fractals_stims/A.jpg,/static/Simple_RL/Stimuli/Fractals_stims/B.jpg,147.5,1.5,1.0,,,,,,,,
274,,rl_choice_warning,,html-keyboard-response,274,1302729,0.0-1.0-467.0-0.0,1,0,1,,,,,,66.0,,2.0,,,,,,,,,,,,,149.0,1.0,,,,,,,,,
275,,isi,,html-keyboard-response,275,1304645,0.0-1.0-468.0,0,0,1,,,,,,66.0,,2.0,,,,,,,,,,,,,150.0,1.0,,,,,,,,,
276,,iti,,html-keyboard-response,276,1308559,0.0-1.0-470.0,0,0,1,,,,,,66.0,,2.0,,,,,,,,,,,,,151.0,3.0,,,,,,,,,
277,,rl_choice,,html-keyboard-response,277,1310990,0.0-1.0-472.0,0,0,1,,,,,,67.0,67.0,2.0,easy,3500.0,2000.0,1.0,80.0,20.0,60.0,40.0,C,D,/static/Simple_RL/Stimuli/Fractals_stims/C.jpg,/static/Simple_RL/Stimuli/Fractals_stims/D.jpg,154.0,1.5,1.0,,,,,,,,
278,,rl_choice_warning,,html-keyboard-response,278,1312778,0.0-1.0-474.0-0.0,1,0,1,,,,,,67.0,,2.0,,,,,,,,,,,,,155.5,1.0,,,,,,,,,
279,,isi,,html-keyboard-response,279,1315229,0.0-1.0-475.0,0,0,1,,,,,,67.0,,2.0,,,,,,,,,,,,,156.5,2.0,,,,,,,,,
280,,iti,,html-keyboard-response,280,1319759,0.0-1.0-477.0,0,0,1,,,,,,67.0,,2.0,,,,,,,,,,,,,158.5,3.5,,,,,,,,,
281,,rl_choice,,html-keyboard-response,281,1323143,0.0-1.0-479.0,0,0,1,,,,,,68.0,68.0,2.0,easy,3000.0,2000.0,0.0,20.0,80.0,40.0,80.0,D,C,/static/Simple_RL/Stimuli/Fractals_stims/D.jpg,/static/Simple_RL/Stimuli/Fractals_stims/C.jpg,162.0,1.5,1.0,,,,,,,,
282,,rl_choice_warning,,html-keyboard-response,282,1324703,0.0-1.0-481.0-0.0,1,0,1,,,,,,68.0,,2.0,,,,,,,,,,,,,163.5,1.0,,,,,,,,,
283,,isi,,html-keyboard-response,283,1327752,0.0-1.0-482.0,0,0,1,,,,,,68.0,,2.0,,,,,,,,,,,,,164.5,2.0,,,,,,,,,
284,,iti,,html-keyboard-response,284,1331403,0.0-1.0-484.0,0,0,1,,,,,,68.0,,2.0,,,,,,,,,,,,,166.5,3.0,,,,,,,,,
285,,rl_choice,,html-keyboard-response,285,1333399,0.0-1.0-486.0,0,0,1,,,,,,69.0,69.0,2.0,hard,2000.0,1000.0,1.0,60.0,40.0,40.0,60.0,A,B,/static/Simple_RL/Stimuli/Fractals_stims/A.jpg,/static/Simple_RL/Stimuli/Fractals_stims/B.jpg,169.5,1.5,1.0,,,,,,,,
286,,rl_choice_warning,,html-keyboard-response,286,1336057,0.0-1.0-488.0-0.0,1,0,1,,,,,,69.0,,2.0,,,,,,,,,,,,,171.0,1.0,,,,,,,,,
287,,isi,,html-keyboard-response,287,1337745,0.0-1.0-489.0,0,0,1,,,,,,69.0,,2.0,,,,,,,,,,,,,172.0,1.0,,,,,,,,,
288,,iti,,html-keyboard-response,288,1341177,0.0-1.0-491.0,0,0,1,,,,,,69.0,,2.0,,,,,,,,,,,,,173.0,2.0,,,,,,,,,
289,,rl_choice,,html-keyboard-response,289,1343189,0.0-1.0-493.0,0,0,1,,,,,,70.0,70.0,2.0,hard,1000.0,3500.0,1.0,60.0,40.0,80.0,40.0,A,B,/static/Simple_RL/Stimuli/Fractals_stims/A.jpg,/static/Simple_RL/Stimuli/Fractals_stims/B.jpg,175.0,1.5,1.0,,,,,,,,
290,,rl_choice_warning,,html-keyboard-response,290,1345299,0.0-1.0-495.0-0.0,1,0,1,,,,,,70.0,,2.0,,,,,,,,,,,,,176.5,1.0,,,,,,,,,
291,,isi,,html-keyboard-response,291,1354288,0.0-1.0-496.0,0,0,1,,,,,,70.0,,2.0,,,,,,,,,,,,,177.5,3.5,,,,,,,,,
292,,iti,,html-keyboard-response,292,1414482,0.0-1.0-498.0,0,0,1,,,,,,70.0,,2.0,,,,,,,,,,,,,181.0,1.0,,,,,,,,,
293,,rl_choice,,html-keyboard-response,293,1426779,0.0-1.0-500.0,0,0,1,,,,,,71.0,71.0,2.0,hard,1000.0,1500.0,1.0,60.0,40.0,40.0,40.0,A,B,/static/Simple_RL/Stimuli/Fractals_stims/A.jpg,/static/Simple_RL/Stimuli/Fractals_stims/B.jpg,182.0,1.5,1.0,,,,,,,,
294,,rl_choice_warning,,html-keyboard-response,294,1427782,0.0-1.0-502.0-0.0,1,0,1,,,,,,71.0,,2.0,,,,,,,,,,,,,183.5,1.0,,,,,,,,,
295,,isi,,html-keyboard-response,295,1429284,0.0-1.0-503.0,0,0,1,,,,,,71.0,,2.0,,,,,,,,,,,,,184.5,1.5,,,,,,,,,
296,,iti,,html-keyboard-response,296,1430290,0.0-1.0-505.0,0,0,1,,,,,,71.0,,2.0,,,,,,,,,,,,,186.0,1.0,,,,,,,,,
297,,rl_choice,,html-keyboard-response,297,1431793,0.0-1.0-507.0,0,0,1,,,,,,72.0,72.0,2.0,easy,1000.0,1500.0,0.0,20.0,80.0,0.0,80.0,D,C,/static/Simple_RL/Stimuli/Fractals_stims/D.jpg,/static/Simple_RL/Stimuli/Fractals_stims/C.jpg,187.0,1.5,1.0,,,,,,,,
298,,rl_choice_warning,,html-keyboard-response,298,1432798,0.0-1.0-509.0-0.0,1,0,1,,,,,,72.0,,2.0,,,,,,,,,,,,,188.5,1.0,,,,,,,,,
299,,isi,,html-keyboard-response,299,1434303,0.0-1.0-510.0,0,0,1,,,,,,72.0,,2.0,,,,,,,,,,,,,189.5,1.5,,,,,,,,,
300,,iti,,html-keyboard-response,300,1435309,0.0-1.0-512.0,0,0,1,,,,,,72.0,,2.0,,,,,,,,,,,,,191.0,1.0,,,,,,,,,
301,,rl_choice,,html-keyboard-response,301,1435621,0.0-1.0-514.0,0,0,1,,309.0,,,50.0,73.0,73.0,2.0,easy,1000.0,3000.0,1.0,80.0,20.0,60.0,0.0,C,D,/static/Simple_RL/Stimuli/Fractals_stims/C.jpg,/static/Simple_RL/Stimuli/Fractals_stims/D.jpg,192.0,0.309,0.0,1.0,80.0,20.0,60.0,0.0,C,D,
302,,rl_choice_confirmation,,html-keyboard-response,302,1436814,0.0-1.0-515.0-0.0,0,0,1,,,,,,73.0,,2.0,,,,,,,,,,,,,192.309,1.191,,,,,,,,,
303,,isi,,html-keyboard-response,303,1439821,0.0-1.0-517.0,0,0,1,,,,,,73.0,,2.0,,,,,,,,,,,,,193.5,3.0,,,,,,,,,
304,,feedback,,html-keyboard-response,304,1440826,0.0-1.0-518.0-0.0,0,0,1,,,,,,73.0,,2.0,,,,,,,,,,,,,196.5,1.0,,,,,,,,,
305,,iti,,html-keyboard-response,305,1441828,0.0-1.0-519.0,0,0,1,,,,,,73.0,,2.0,,,,,,,,,,,,,197.5,1.0,,,,,,,,,
306,,rl_choice,,html-keyboard-response,306,1443333,0.0-1.0-521.0,0,0,1,,,,,,74.0,74.0,2.0,hard,3500.0,2000.0,1.0,60.0,40.0,60.0,60.0,A,B,/static/Simple_RL/Stimuli/Fractals_stims/A.jpg,/static/Simple_RL/Stimuli/Fractals_stims/B.jpg,198.5,1.5,1.0,,,,,,,,
307,,rl_choice_warning,,html-keyboard-response,307,1444338,0.0-1.0-523.0-0.0,1,0,1,,,,,,74.0,,2.0,,,,,,,,,,,,,200.0,1.0,,,,,,,,,
308,,isi,,html-keyboard-response,308,1446342,0.0-1.0-524.0,0,0,1,,,,,,74.0,,2.0,,,,,,,,,,,,,201.0,2.0,,,,,,,,,
309,,iti,,html-keyboard-response,309,1449848,0.0-1.0-526.0,0,0,1,,,,,,74.0,,2.0,,,,,,,,,,,,,203.0,3.5,,,,,,,,,
310,,rl_choice,,html-keyboard-response,310,1451354,0.0-1.0-528.0,0,0,1,,,,,,75.0,75.0,2.0,hard,1500.0,3000.0,0.0,40.0,60.0,60.0,80.0,B,A,/static/Simple_RL/Stimuli/Fractals_stims/B.jpg,/static/Simple_RL/Stimuli/Fractals_stims/A.jpg,206.5,1.5,1.0,,,,,,,,
311,,rl_choice_warning,,html-keyboard-response,311,1452359,0.0-1.0-530.0-0.0,1,0,1,,,,,,75.0,,2.0,,,,,,,,,,,,,208.0,1.0,,,,,,,,,
312,,isi,,html-keyboard-response,312,1455363,0.0-1.0-531.0,0,0,1,,,,,,75.0,,2.0,,,,,,,,,,,,,209.0,3.0,,,,,,,,,
313,,iti,,html-keyboard-response,313,1456866,0.0-1.0-533.0,0,0,1,,,,,,75.0,,2.0,,,,,,,,,,,,,212.0,1.5,,,,,,,,,
314,,rl_choice,,html-keyboard-response,314,1458374,0.0-1.0-535.0,0,0,1,,,,,,76.0,76.0,2.0,easy,1000.0,1000.0,0.0,20.0,80.0,20.0,80.0,D,C,/static/Simple_RL/Stimuli/Fractals_stims/D.jpg,/static/Simple_RL/Stimuli/Fractals_stims/C.jpg,213.5,1.5,1.0,,,,,,,,
315,,rl_choice_warning,,html-keyboard-response,315,1459375,0.0-1.0-537.0-0.0,1,0,1,,,,,,76.0,,2.0,,,,,,,,,,,,,215.0,1.0,,,,,,,,,
316,,isi,,html-keyboard-response,316,1460377,0.0-1.0-538.0,0,0,1,,,,,,76.0,,2.0,,,,,,,,,,,,,216.0,1.0,,,,,,,,,
317,,iti,,html-keyboard-response,317,1461381,0.0-1.0-540.0,0,0,1,,,,,,76.0,,2.0,,,,,,,,,,,,,217.0,1.0,,,,,,,,,
318,,rl_choice,,html-keyboard-response,318,1462883,0.0-1.0-542.0,0,0,1,,,,,,77.0,77.0,2.0,hard,1000.0,1000.0,0.0,40.0,60.0,60.0,40.0,B,A,/static/Simple_RL/Stimuli/Fractals_stims/B.jpg,/static/Simple_RL/Stimuli/Fractals_stims/A.jpg,218.0,1.5,1.0,,,,,,,,
319,,rl_choice_warning,,html-keyboard-response,319,1463887,0.0-1.0-544.0-0.0,1,0,1,,,,,,77.0,,2.0,,,,,,,,,,,,,219.5,1.0,,,,,,,,,
320,,isi,,html-keyboard-response,320,1464891,0.0-1.0-545.0,0,0,1,,,,,,77.0,,2.0,,,,,,,,,,,,,220.5,1.0,,,,,,,,,
321,,iti,,html-keyboard-response,321,1465895,0.0-1.0-547.0,0,0,1,,,,,,77.0,,2.0,,,,,,,,,,,,,221.5,1.0,,,,,,,,,
322,,rl_choice,,html-keyboard-response,322,1467397,0.0-1.0-549.0,0,0,1,,,,,,78.0,78.0,2.0,easy,1000.0,1500.0,1.0,80.0,20.0,80.0,0.0,C,D,/static/Simple_RL/Stimuli/Fractals_stims/C.jpg,/static/Simple_RL/Stimuli/Fractals_stims/D.jpg,222.5,1.5,1.0,,,,,,,,
323,,rl_choice_warning,,html-keyboard-response,323,1468402,0.0-1.0-551.0-0.0,1,0,1,,,,,,78.0,,2.0,,,,,,,,,,,,,224.0,1.0,,,,,,,,,
324,,isi,,html-keyboard-response,324,1469905,0.0-1.0-552.0,0,0,1,,,,,,78.0,,2.0,,,,,,,,,,,,,225.0,1.5,,,,,,,,,
325,,iti,,html-keyboard-response,325,1470908,0.0-1.0-554.0,0,0,1,,,,,,78.0,,2.0,,,,,,,,,,,,,226.5,1.0,,,,,,,,,
326,,rl_choice,,html-keyboard-response,326,1472415,0.0-1.0-556.0,0,0,1,,,,,,79.0,79.0,2.0,easy,1000.0,1000.0,0.0,20.0,80.0,0.0,100.0,D,C,/static/Simple_RL/Stimuli/Fractals_stims/D.jpg,/static/Simple_RL/Stimuli/Fractals_stims/C.jpg,227.5,1.5,1.0,,,,,,,,
327,,rl_choice_warning,,html-keyboard-response,327,1473420,0.0-1.0-558.0-0.0,1,0,1,,,,,,79.0,,2.0,,,,,,,,,,,,,229.0,1.0,,,,,,,,,
328,,isi,,html-keyboard-response,328,1474426,0.0-1.0-559.0,0,0,1,,,,,,79.0,,2.0,,,,,,,,,,,,,230.0,1.0,,,,,,,,,
329,,iti,,html-keyboard-response,329,1475432,0.0-1.0-561.0,0,0,1,,,,,,79.0,,2.0,,,,,,,,,,,,,231.0,1.0,,,,,,,,,0.17
330,,final_tally,,html-keyboard-response,330,1481864,0.0-2.0,0,0,1,,6430.0,,,83.0,,,,,,,,,,,,,,,,,,,,,,,,,,
