,success,ttype,start_time,trial_type,trial_index,time_elapsed,internal_node_id,warning,missed_checkup,PID,view_history,rt,responses,repeat_instructions,key_press,index,trial_num,block,condition,iti,isi,high_group_on_left,left_group_value,right_group_value,left_item_value,right_item_value,left_img,right_img,left_img_path,right_img_path,left_chosen,chosen_group_value,unchosen_group_value,chosen_item_value,unchosen_item_value,chosen_img,unchosen_img,onset,duration,no_response,total_bonus_tally
0,True,full_screen,d06062022hr2116,fullscreen,0,2697,0.0-0.0,0,0,65,,,,,,,,,,,,,,,,,,,,,,,,,,,,,,,
1,,size_instructions,,instructions,1,8861,0.0-1.0-0.0-0.0,0,0,65,"[{""page_index"":0,""viewing_time"":2080},{""page_index"":1,""viewing_time"":641},{""page_index"":2,""viewing_time"":578},{""page_index"":3,""viewing_time"":834},{""page_index"":4,""viewing_time"":1343},{""page_index"":5,""viewing_time"":687}]",6163.0,,,,,,,,,,,,,,,,,,,,,,,,,,,,,
2,,rl_comprehension_check,,survey-multi-choice,2,13558,0.0-1.0-0.0-1.0,0,0,65,,4693.0,"{""Q0"":""True"",""Q1"":""True"",""Q2"":""pointer finger for left and middle finger for right""}",0.0,,,,,,,,,,,,,,,,,,,,,,,,,,,
3,,,,html-keyboard-response,3,14580,0.0-1.0-1.0,0,0,65,,1020.0,,,50.0,,,,,,,,,,,,,,,,,,,,,,,,,,
4,,rl_choice,,html-keyboard-response,4,15150,0.0-1.0-2.0,0,0,65,,568.0,,,50.0,0.0,0.0,1.0,hard,3500.0,2000.0,1.0,60.0,40.0,80.0,40.0,A,B,/static/Simple_RL/Stimuli/Fractals_stims/A.jpg,/static/Simple_RL/Stimuli/Fractals_stims/B.jpg,1.0,60.0,40.0,80.0,40.0,A,B,0.568,0.568,0.0,
5,,rl_choice_confirmation,,html-keyboard-response,5,16085,0.0-1.0-3.0-0.0,0,0,65,,,,,,0.0,,1.0,,,,,,,,,,,,,,,,,,,,1.5,0.932,,
6,,isi,,html-keyboard-response,6,16188,0.0-1.0-5.0,0,0,65,,,,,,0.0,,1.0,,,,,,,,,,,,,,,,,,,,3.5,2.0,,
7,,feedback,,html-keyboard-response,7,17192,0.0-1.0-6.0-0.0,0,0,65,,,,,,0.0,,1.0,,,,,,,,,,,,,,,,,,,,4.5,1.0,,
8,,iti,,html-keyboard-response,8,17294,0.0-1.0-7.0,0,0,65,,,,,,0.0,,1.0,,,,,,,,,,,,,,,,,,,,8.0,3.5,,
9,,rl_choice,,html-keyboard-response,9,17390,0.0-1.0-9.0,0,0,65,,95.0,,,50.0,1.0,1.0,1.0,hard,1000.0,2000.0,1.0,60.0,40.0,80.0,20.0,A,B,/static/Simple_RL/Stimuli/Fractals_stims/A.jpg,/static/Simple_RL/Stimuli/Fractals_stims/B.jpg,1.0,60.0,40.0,80.0,20.0,A,B,8.095,0.095,0.0,
10,,rl_choice_confirmation,,html-keyboard-response,10,18797,0.0-1.0-10.0-0.0,0,0,65,,,,,,1.0,,1.0,,,,,,,,,,,,,,,,,,,,9.5,1.405,,
11,,isi,,html-keyboard-response,11,18899,0.0-1.0-12.0,0,0,65,,,,,,1.0,,1.0,,,,,,,,,,,,,,,,,,,,11.5,2.0,,
12,,feedback,,html-keyboard-response,12,19901,0.0-1.0-13.0-0.0,0,0,65,,,,,,1.0,,1.0,,,,,,,,,,,,,,,,,,,,12.5,1.0,,
13,,iti,,html-keyboard-response,13,20002,0.0-1.0-14.0,0,0,65,,,,,,1.0,,1.0,,,,,,,,,,,,,,,,,,,,13.5,1.0,,
14,,rl_choice,,html-keyboard-response,14,20073,0.0-1.0-16.0,0,0,65,,69.0,,,50.0,2.0,2.0,1.0,easy,2000.0,2000.0,0.0,20.0,80.0,40.0,100.0,D,C,/static/Simple_RL/Stimuli/Fractals_stims/D.jpg,/static/Simple_RL/Stimuli/Fractals_stims/C.jpg,1.0,20.0,80.0,40.0,100.0,D,C,13.569,0.069,0.0,
15,,rl_choice_confirmation,,html-keyboard-response,15,21506,0.0-1.0-17.0-0.0,0,0,65,,,,,,2.0,,1.0,,,,,,,,,,,,,,,,,,,,15.0,1.431,,
16,,isi,,html-keyboard-response,16,21608,0.0-1.0-19.0,0,0,65,,,,,,2.0,,1.0,,,,,,,,,,,,,,,,,,,,17.0,2.0,,
17,,feedback,,html-keyboard-response,17,22611,0.0-1.0-20.0-0.0,0,0,65,,,,,,2.0,,1.0,,,,,,,,,,,,,,,,,,,,18.0,1.0,,
18,,iti,,html-keyboard-response,18,22712,0.0-1.0-21.0,0,0,65,,,,,,2.0,,1.0,,,,,,,,,,,,,,,,,,,,20.0,2.0,,
19,,rl_choice,,html-keyboard-response,19,22749,0.0-1.0-23.0,0,0,65,,36.0,,,50.0,3.0,3.0,1.0,hard,1500.0,1000.0,0.0,40.0,60.0,20.0,60.0,B,A,/static/Simple_RL/Stimuli/Fractals_stims/B.jpg,/static/Simple_RL/Stimuli/Fractals_stims/A.jpg,1.0,40.0,60.0,20.0,60.0,B,A,20.036,0.036,0.0,
20,,rl_choice_confirmation,,html-keyboard-response,20,24215,0.0-1.0-24.0-0.0,0,0,65,,,,,,3.0,,1.0,,,,,,,,,,,,,,,,,,,,21.5,1.464,,
21,,isi,,html-keyboard-response,21,24317,0.0-1.0-26.0,0,0,65,,,,,,3.0,,1.0,,,,,,,,,,,,,,,,,,,,22.5,1.0,,
22,,feedback,,html-keyboard-response,22,25320,0.0-1.0-27.0-0.0,0,0,65,,,,,,3.0,,1.0,,,,,,,,,,,,,,,,,,,,23.5,1.0,,
23,,iti,,html-keyboard-response,23,25422,0.0-1.0-28.0,0,0,65,,,,,,3.0,,1.0,,,,,,,,,,,,,,,,,,,,25.0,1.5,,
24,,rl_choice,,html-keyboard-response,24,25927,0.0-1.0-30.0,0,0,65,,503.0,,,50.0,4.0,4.0,1.0,hard,1500.0,3000.0,0.0,40.0,60.0,40.0,60.0,B,A,/static/Simple_RL/Stimuli/Fractals_stims/B.jpg,/static/Simple_RL/Stimuli/Fractals_stims/A.jpg,1.0,40.0,60.0,40.0,60.0,B,A,25.503,0.503,0.0,
25,,rl_choice_confirmation,,html-keyboard-response,25,26925,0.0-1.0-31.0-0.0,0,0,65,,,,,,4.0,,1.0,,,,,,,,,,,,,,,,,,,,26.5,0.997,,
26,,isi,,html-keyboard-response,26,27027,0.0-1.0-33.0,0,0,65,,,,,,4.0,,1.0,,,,,,,,,,,,,,,,,,,,29.5,3.0,,
27,,feedback,,html-keyboard-response,27,28030,0.0-1.0-34.0-0.0,0,0,65,,,,,,4.0,,1.0,,,,,,,,,,,,,,,,,,,,30.5,1.0,,
28,,iti,,html-keyboard-response,28,28132,0.0-1.0-35.0,0,0,65,,,,,,4.0,,1.0,,,,,,,,,,,,,,,,,,,,32.0,1.5,,
29,,rl_choice,,html-keyboard-response,29,28323,0.0-1.0-37.0,0,0,65,,189.0,,,50.0,5.0,5.0,1.0,easy,1500.0,1500.0,1.0,80.0,20.0,80.0,0.0,C,D,/static/Simple_RL/Stimuli/Fractals_stims/C.jpg,/static/Simple_RL/Stimuli/Fractals_stims/D.jpg,1.0,80.0,20.0,80.0,0.0,C,D,32.189,0.189,0.0,
30,,rl_choice_confirmation,,html-keyboard-response,30,29636,0.0-1.0-38.0-0.0,0,0,65,,,,,,5.0,,1.0,,,,,,,,,,,,,,,,,,,,33.5,1.311,,
31,,isi,,html-keyboard-response,31,29738,0.0-1.0-40.0,0,0,65,,,,,,5.0,,1.0,,,,,,,,,,,,,,,,,,,,35.0,1.5,,
32,,feedback,,html-keyboard-response,32,30739,0.0-1.0-41.0-0.0,0,0,65,,,,,,5.0,,1.0,,,,,,,,,,,,,,,,,,,,36.0,1.0,,
33,,iti,,html-keyboard-response,33,30841,0.0-1.0-42.0,0,0,65,,,,,,5.0,,1.0,,,,,,,,,,,,,,,,,,,,37.5,1.5,,
34,,rl_choice,,html-keyboard-response,34,30993,0.0-1.0-44.0,0,0,65,,150.0,,,50.0,6.0,6.0,1.0,easy,1000.0,1000.0,1.0,80.0,20.0,60.0,40.0,C,D,/static/Simple_RL/Stimuli/Fractals_stims/C.jpg,/static/Simple_RL/Stimuli/Fractals_stims/D.jpg,1.0,80.0,20.0,60.0,40.0,C,D,37.65,0.15,0.0,
35,,rl_choice_confirmation,,html-keyboard-response,35,32344,0.0-1.0-45.0-0.0,0,0,65,,,,,,6.0,,1.0,,,,,,,,,,,,,,,,,,,,39.0,1.35,,
36,,isi,,html-keyboard-response,36,32446,0.0-1.0-47.0,0,0,65,,,,,,6.0,,1.0,,,,,,,,,,,,,,,,,,,,40.0,1.0,,
37,,feedback,,html-keyboard-response,37,33448,0.0-1.0-48.0-0.0,0,0,65,,,,,,6.0,,1.0,,,,,,,,,,,,,,,,,,,,41.0,1.0,,
38,,iti,,html-keyboard-response,38,33550,0.0-1.0-49.0,0,0,65,,,,,,6.0,,1.0,,,,,,,,,,,,,,,,,,,,42.0,1.0,,
39,,rl_choice,,html-keyboard-response,39,35057,0.0-1.0-51.0,0,0,65,,,,,,7.0,7.0,1.0,easy,3000.0,2000.0,0.0,20.0,80.0,0.0,80.0,D,C,/static/Simple_RL/Stimuli/Fractals_stims/D.jpg,/static/Simple_RL/Stimuli/Fractals_stims/C.jpg,,,,,,,,43.5,1.5,1.0,
40,,rl_choice_warning,,html-keyboard-response,40,36059,0.0-1.0-53.0-0.0,0,0,65,,,,,,7.0,,1.0,,,,,,,,,,,,,,,,,,,,44.5,1.0,,
41,,isi,,html-keyboard-response,41,36162,0.0-1.0-54.0,0,0,65,,,,,,7.0,,1.0,,,,,,,,,,,,,,,,,,,,46.5,2.0,,
42,,iti,,html-keyboard-response,42,36264,0.0-1.0-56.0,0,0,65,,,,,,7.0,,1.0,,,,,,,,,,,,,,,,,,,,49.5,3.0,,
43,,rl_choice,,html-keyboard-response,43,37766,0.0-1.0-58.0,0,0,65,,,,,,8.0,8.0,1.0,hard,2000.0,3500.0,0.0,40.0,60.0,40.0,60.0,B,A,/static/Simple_RL/Stimuli/Fractals_stims/B.jpg,/static/Simple_RL/Stimuli/Fractals_stims/A.jpg,,,,,,,,51.0,1.5,1.0,
44,,rl_choice_warning,,html-keyboard-response,44,38768,0.0-1.0-60.0-0.0,0,0,65,,,,,,8.0,,1.0,,,,,,,,,,,,,,,,,,,,52.0,1.0,,
45,,isi,,html-keyboard-response,45,38871,0.0-1.0-61.0,0,0,65,,,,,,8.0,,1.0,,,,,,,,,,,,,,,,,,,,55.5,3.5,,
46,,iti,,html-keyboard-response,46,38974,0.0-1.0-63.0,0,0,65,,,,,,8.0,,1.0,,,,,,,,,,,,,,,,,,,,57.5,2.0,,
47,,rl_choice,,html-keyboard-response,47,40476,0.0-1.0-65.0,0,0,65,,,,,,9.0,9.0,1.0,hard,2000.0,1000.0,1.0,60.0,40.0,60.0,20.0,A,B,/static/Simple_RL/Stimuli/Fractals_stims/A.jpg,/static/Simple_RL/Stimuli/Fractals_stims/B.jpg,,,,,,,,59.0,1.5,1.0,
48,,rl_choice_warning,,html-keyboard-response,48,41479,0.0-1.0-67.0-0.0,0,0,65,,,,,,9.0,,1.0,,,,,,,,,,,,,,,,,,,,60.0,1.0,,
49,,isi,,html-keyboard-response,49,41581,0.0-1.0-68.0,0,0,65,,,,,,9.0,,1.0,,,,,,,,,,,,,,,,,,,,61.0,1.0,,
50,,iti,,html-keyboard-response,50,41683,0.0-1.0-70.0,0,0,65,,,,,,9.0,,1.0,,,,,,,,,,,,,,,,,,,,63.0,2.0,,
51,,rl_choice,,html-keyboard-response,51,43185,0.0-1.0-72.0,0,0,65,,,,,,10.0,10.0,1.0,easy,1000.0,1000.0,0.0,20.0,80.0,0.0,80.0,D,C,/static/Simple_RL/Stimuli/Fractals_stims/D.jpg,/static/Simple_RL/Stimuli/Fractals_stims/C.jpg,,,,,,,,64.5,1.5,1.0,
52,,rl_choice_warning,,html-keyboard-response,52,44187,0.0-1.0-74.0-0.0,0,0,65,,,,,,10.0,,1.0,,,,,,,,,,,,,,,,,,,,65.5,1.0,,
53,,isi,,html-keyboard-response,53,44288,0.0-1.0-75.0,0,0,65,,,,,,10.0,,1.0,,,,,,,,,,,,,,,,,,,,66.5,1.0,,
54,,iti,,html-keyboard-response,54,44391,0.0-1.0-77.0,0,0,65,,,,,,10.0,,1.0,,,,,,,,,,,,,,,,,,,,67.5,1.0,,
55,,rl_choice,,html-keyboard-response,55,45892,0.0-1.0-79.0,0,0,65,,,,,,11.0,11.0,1.0,hard,1000.0,2000.0,0.0,40.0,60.0,40.0,60.0,B,A,/static/Simple_RL/Stimuli/Fractals_stims/B.jpg,/static/Simple_RL/Stimuli/Fractals_stims/A.jpg,,,,,,,,69.0,1.5,1.0,
56,,rl_choice_warning,,html-keyboard-response,56,46894,0.0-1.0-81.0-0.0,0,0,65,,,,,,11.0,,1.0,,,,,,,,,,,,,,,,,,,,70.0,1.0,,
57,,isi,,html-keyboard-response,57,46997,0.0-1.0-82.0,0,0,65,,,,,,11.0,,1.0,,,,,,,,,,,,,,,,,,,,72.0,2.0,,
58,,iti,,html-keyboard-response,58,47099,0.0-1.0-84.0,0,0,65,,,,,,11.0,,1.0,,,,,,,,,,,,,,,,,,,,73.0,1.0,,
59,,rl_choice,,html-keyboard-response,59,48602,0.0-1.0-86.0,0,0,65,,,,,,12.0,12.0,1.0,hard,1000.0,1000.0,0.0,40.0,60.0,60.0,80.0,B,A,/static/Simple_RL/Stimuli/Fractals_stims/B.jpg,/static/Simple_RL/Stimuli/Fractals_stims/A.jpg,,,,,,,,74.5,1.5,1.0,
60,,rl_choice_warning,,html-keyboard-response,60,49604,0.0-1.0-88.0-0.0,0,0,65,,,,,,12.0,,1.0,,,,,,,,,,,,,,,,,,,,75.5,1.0,,
61,,isi,,html-keyboard-response,61,49705,0.0-1.0-89.0,0,0,65,,,,,,12.0,,1.0,,,,,,,,,,,,,,,,,,,,76.5,1.0,,
62,,iti,,html-keyboard-response,62,49807,0.0-1.0-91.0,0,0,65,,,,,,12.0,,1.0,,,,,,,,,,,,,,,,,,,,77.5,1.0,,
63,,rl_choice,,html-keyboard-response,63,51309,0.0-1.0-93.0,0,0,65,,,,,,13.0,13.0,1.0,hard,3000.0,1500.0,1.0,60.0,40.0,40.0,60.0,A,B,/static/Simple_RL/Stimuli/Fractals_stims/A.jpg,/static/Simple_RL/Stimuli/Fractals_stims/B.jpg,,,,,,,,79.0,1.5,1.0,
64,,rl_choice_warning,,html-keyboard-response,64,52311,0.0-1.0-95.0-0.0,0,0,65,,,,,,13.0,,1.0,,,,,,,,,,,,,,,,,,,,80.0,1.0,,
65,,isi,,html-keyboard-response,65,52414,0.0-1.0-96.0,0,0,65,,,,,,13.0,,1.0,,,,,,,,,,,,,,,,,,,,81.5,1.5,,
66,,iti,,html-keyboard-response,66,52516,0.0-1.0-98.0,0,0,65,,,,,,13.0,,1.0,,,,,,,,,,,,,,,,,,,,84.5,3.0,,
67,,rl_choice,,html-keyboard-response,67,54018,0.0-1.0-100.0,0,0,65,,,,,,14.0,14.0,1.0,easy,1500.0,1000.0,1.0,80.0,20.0,100.0,40.0,C,D,/static/Simple_RL/Stimuli/Fractals_stims/C.jpg,/static/Simple_RL/Stimuli/Fractals_stims/D.jpg,,,,,,,,86.0,1.5,1.0,
68,,rl_choice_warning,,html-keyboard-response,68,55020,0.0-1.0-102.0-0.0,0,0,65,,,,,,14.0,,1.0,,,,,,,,,,,,,,,,,,,,87.0,1.0,,
69,,isi,,html-keyboard-response,69,55122,0.0-1.0-103.0,0,0,65,,,,,,14.0,,1.0,,,,,,,,,,,,,,,,,,,,88.0,1.0,,
70,,iti,,html-keyboard-response,70,55224,0.0-1.0-105.0,0,0,65,,,,,,14.0,,1.0,,,,,,,,,,,,,,,,,,,,89.5,1.5,,
71,,rl_choice,,html-keyboard-response,71,56726,0.0-1.0-107.0,0,0,65,,,,,,15.0,15.0,1.0,hard,1000.0,3000.0,1.0,60.0,40.0,60.0,60.0,A,B,/static/Simple_RL/Stimuli/Fractals_stims/A.jpg,/static/Simple_RL/Stimuli/Fractals_stims/B.jpg,,,,,,,,91.0,1.5,1.0,
72,,rl_choice_warning,,html-keyboard-response,72,57728,0.0-1.0-109.0-0.0,0,0,65,,,,,,15.0,,1.0,,,,,,,,,,,,,,,,,,,,92.0,1.0,,
73,,isi,,html-keyboard-response,73,57829,0.0-1.0-110.0,0,0,65,,,,,,15.0,,1.0,,,,,,,,,,,,,,,,,,,,95.0,3.0,,
74,,iti,,html-keyboard-response,74,57931,0.0-1.0-112.0,0,0,65,,,,,,15.0,,1.0,,,,,,,,,,,,,,,,,,,,96.0,1.0,,
75,,rl_choice,,html-keyboard-response,75,59433,0.0-1.0-114.0,0,0,65,,,,,,16.0,16.0,1.0,hard,1500.0,1000.0,1.0,60.0,40.0,60.0,40.0,A,B,/static/Simple_RL/Stimuli/Fractals_stims/A.jpg,/static/Simple_RL/Stimuli/Fractals_stims/B.jpg,,,,,,,,97.5,1.5,1.0,
76,,rl_choice_warning,,html-keyboard-response,76,60436,0.0-1.0-116.0-0.0,0,0,65,,,,,,16.0,,1.0,,,,,,,,,,,,,,,,,,,,98.5,1.0,,
77,,isi,,html-keyboard-response,77,60538,0.0-1.0-117.0,0,0,65,,,,,,16.0,,1.0,,,,,,,,,,,,,,,,,,,,99.5,1.0,,
78,,iti,,html-keyboard-response,78,60641,0.0-1.0-119.0,0,0,65,,,,,,16.0,,1.0,,,,,,,,,,,,,,,,,,,,101.0,1.5,,
79,,rl_choice,,html-keyboard-response,79,62144,0.0-1.0-121.0,0,0,65,,,,,,17.0,17.0,1.0,easy,2000.0,2000.0,1.0,80.0,20.0,100.0,40.0,C,D,/static/Simple_RL/Stimuli/Fractals_stims/C.jpg,/static/Simple_RL/Stimuli/Fractals_stims/D.jpg,,,,,,,,102.5,1.5,1.0,
80,,rl_choice_warning,,html-keyboard-response,80,63145,0.0-1.0-123.0-0.0,0,0,65,,,,,,17.0,,1.0,,,,,,,,,,,,,,,,,,,,103.5,1.0,,
81,,isi,,html-keyboard-response,81,63247,0.0-1.0-124.0,0,0,65,,,,,,17.0,,1.0,,,,,,,,,,,,,,,,,,,,105.5,2.0,,
82,,iti,,html-keyboard-response,82,63349,0.0-1.0-126.0,0,0,65,,,,,,17.0,,1.0,,,,,,,,,,,,,,,,,,,,107.5,2.0,,
83,,rl_choice,,html-keyboard-response,83,64851,0.0-1.0-128.0,0,0,65,,,,,,18.0,18.0,1.0,hard,1000.0,1500.0,1.0,60.0,40.0,80.0,60.0,A,B,/static/Simple_RL/Stimuli/Fractals_stims/A.jpg,/static/Simple_RL/Stimuli/Fractals_stims/B.jpg,,,,,,,,109.0,1.5,1.0,
84,,rl_choice_warning,,html-keyboard-response,84,65853,0.0-1.0-130.0-0.0,0,0,65,,,,,,18.0,,1.0,,,,,,,,,,,,,,,,,,,,110.0,1.0,,
85,,isi,,html-keyboard-response,85,65955,0.0-1.0-131.0,0,0,65,,,,,,18.0,,1.0,,,,,,,,,,,,,,,,,,,,111.5,1.5,,
86,,iti,,html-keyboard-response,86,66057,0.0-1.0-133.0,0,0,65,,,,,,18.0,,1.0,,,,,,,,,,,,,,,,,,,,112.5,1.0,,
87,,rl_choice,,html-keyboard-response,87,67560,0.0-1.0-135.0,0,0,65,,,,,,19.0,19.0,1.0,hard,1000.0,1000.0,1.0,60.0,40.0,60.0,20.0,A,B,/static/Simple_RL/Stimuli/Fractals_stims/A.jpg,/static/Simple_RL/Stimuli/Fractals_stims/B.jpg,,,,,,,,114.0,1.5,1.0,
88,,rl_choice_warning,,html-keyboard-response,88,68562,0.0-1.0-137.0-0.0,0,0,65,,,,,,19.0,,1.0,,,,,,,,,,,,,,,,,,,,115.0,1.0,,
89,,isi,,html-keyboard-response,89,68663,0.0-1.0-138.0,0,0,65,,,,,,19.0,,1.0,,,,,,,,,,,,,,,,,,,,116.0,1.0,,
90,,iti,,html-keyboard-response,90,68766,0.0-1.0-140.0,0,0,65,,,,,,19.0,,1.0,,,,,,,,,,,,,,,,,,,,117.0,1.0,,
91,,rl_choice,,html-keyboard-response,91,70268,0.0-1.0-142.0,0,0,65,,,,,,20.0,20.0,1.0,easy,1000.0,1000.0,0.0,20.0,80.0,0.0,60.0,D,C,/static/Simple_RL/Stimuli/Fractals_stims/D.jpg,/static/Simple_RL/Stimuli/Fractals_stims/C.jpg,,,,,,,,118.5,1.5,1.0,
92,,rl_choice_warning,,html-keyboard-response,92,71271,0.0-1.0-144.0-0.0,0,0,65,,,,,,20.0,,1.0,,,,,,,,,,,,,,,,,,,,119.5,1.0,,
93,,isi,,html-keyboard-response,93,71373,0.0-1.0-145.0,0,0,65,,,,,,20.0,,1.0,,,,,,,,,,,,,,,,,,,,120.5,1.0,,
94,,iti,,html-keyboard-response,94,71475,0.0-1.0-147.0,0,0,65,,,,,,20.0,,1.0,,,,,,,,,,,,,,,,,,,,121.5,1.0,,
95,,rl_choice,,html-keyboard-response,95,72977,0.0-1.0-149.0,0,0,65,,,,,,21.0,21.0,1.0,easy,2000.0,1500.0,1.0,80.0,20.0,60.0,20.0,C,D,/static/Simple_RL/Stimuli/Fractals_stims/C.jpg,/static/Simple_RL/Stimuli/Fractals_stims/D.jpg,,,,,,,,123.0,1.5,1.0,
96,,rl_choice_warning,,html-keyboard-response,96,73979,0.0-1.0-151.0-0.0,0,0,65,,,,,,21.0,,1.0,,,,,,,,,,,,,,,,,,,,124.0,1.0,,
97,,isi,,html-keyboard-response,97,74081,0.0-1.0-152.0,0,0,65,,,,,,21.0,,1.0,,,,,,,,,,,,,,,,,,,,125.5,1.5,,
98,,iti,,html-keyboard-response,98,74182,0.0-1.0-154.0,0,0,65,,,,,,21.0,,1.0,,,,,,,,,,,,,,,,,,,,127.5,2.0,,
99,,rl_choice,,html-keyboard-response,99,75685,0.0-1.0-156.0,0,0,65,,,,,,22.0,22.0,1.0,easy,1000.0,1000.0,1.0,80.0,20.0,100.0,0.0,C,D,/static/Simple_RL/Stimuli/Fractals_stims/C.jpg,/static/Simple_RL/Stimuli/Fractals_stims/D.jpg,,,,,,,,129.0,1.5,1.0,
100,,rl_choice_warning,,html-keyboard-response,100,76687,0.0-1.0-158.0-0.0,0,0,65,,,,,,22.0,,1.0,,,,,,,,,,,,,,,,,,,,130.0,1.0,,
101,,isi,,html-keyboard-response,101,76789,0.0-1.0-159.0,0,0,65,,,,,,22.0,,1.0,,,,,,,,,,,,,,,,,,,,131.0,1.0,,
102,,iti,,html-keyboard-response,102,76892,0.0-1.0-161.0,0,0,65,,,,,,22.0,,1.0,,,,,,,,,,,,,,,,,,,,132.0,1.0,,
103,,rl_choice,,html-keyboard-response,103,78393,0.0-1.0-163.0,0,0,65,,,,,,23.0,23.0,1.0,easy,1500.0,3000.0,1.0,80.0,20.0,80.0,20.0,C,D,/static/Simple_RL/Stimuli/Fractals_stims/C.jpg,/static/Simple_RL/Stimuli/Fractals_stims/D.jpg,,,,,,,,133.5,1.5,1.0,
104,,rl_choice_warning,,html-keyboard-response,104,79395,0.0-1.0-165.0-0.0,0,0,65,,,,,,23.0,,1.0,,,,,,,,,,,,,,,,,,,,134.5,1.0,,
105,,isi,,html-keyboard-response,105,79497,0.0-1.0-166.0,0,0,65,,,,,,23.0,,1.0,,,,,,,,,,,,,,,,,,,,137.5,3.0,,
106,,iti,,html-keyboard-response,106,79599,0.0-1.0-168.0,0,0,65,,,,,,23.0,,1.0,,,,,,,,,,,,,,,,,,,,139.0,1.5,,
107,,rl_choice,,html-keyboard-response,107,81104,0.0-1.0-170.0,0,0,65,,,,,,24.0,24.0,1.0,hard,2000.0,1500.0,0.0,40.0,60.0,40.0,60.0,B,A,/static/Simple_RL/Stimuli/Fractals_stims/B.jpg,/static/Simple_RL/Stimuli/Fractals_stims/A.jpg,,,,,,,,140.5,1.5,1.0,
108,,rl_choice_warning,,html-keyboard-response,108,82106,0.0-1.0-172.0-0.0,0,0,65,,,,,,24.0,,1.0,,,,,,,,,,,,,,,,,,,,141.5,1.0,,
109,,isi,,html-keyboard-response,109,82208,0.0-1.0-173.0,0,0,65,,,,,,24.0,,1.0,,,,,,,,,,,,,,,,,,,,143.0,1.5,,
110,,iti,,html-keyboard-response,110,82309,0.0-1.0-175.0,0,0,65,,,,,,24.0,,1.0,,,,,,,,,,,,,,,,,,,,145.0,2.0,,
111,,rl_choice,,html-keyboard-response,111,83812,0.0-1.0-177.0,0,0,65,,,,,,25.0,25.0,1.0,hard,3000.0,1500.0,1.0,60.0,40.0,40.0,40.0,A,B,/static/Simple_RL/Stimuli/Fractals_stims/A.jpg,/static/Simple_RL/Stimuli/Fractals_stims/B.jpg,,,,,,,,146.5,1.5,1.0,
112,,rl_choice_warning,,html-keyboard-response,112,84816,0.0-1.0-179.0-0.0,0,0,65,,,,,,25.0,,1.0,,,,,,,,,,,,,,,,,,,,147.5,1.0,,
113,,isi,,html-keyboard-response,113,84917,0.0-1.0-180.0,0,0,65,,,,,,25.0,,1.0,,,,,,,,,,,,,,,,,,,,149.0,1.5,,
114,,iti,,html-keyboard-response,114,85019,0.0-1.0-182.0,0,0,65,,,,,,25.0,,1.0,,,,,,,,,,,,,,,,,,,,152.0,3.0,,
115,,rl_choice,,html-keyboard-response,115,86521,0.0-1.0-184.0,0,0,65,,,,,,26.0,26.0,1.0,hard,1000.0,2000.0,0.0,40.0,60.0,40.0,80.0,B,A,/static/Simple_RL/Stimuli/Fractals_stims/B.jpg,/static/Simple_RL/Stimuli/Fractals_stims/A.jpg,,,,,,,,153.5,1.5,1.0,
116,,rl_choice_warning,,html-keyboard-response,116,87522,0.0-1.0-186.0-0.0,0,0,65,,,,,,26.0,,1.0,,,,,,,,,,,,,,,,,,,,154.5,1.0,,
117,,isi,,html-keyboard-response,117,87624,0.0-1.0-187.0,0,0,65,,,,,,26.0,,1.0,,,,,,,,,,,,,,,,,,,,156.5,2.0,,
118,,iti,,html-keyboard-response,118,87727,0.0-1.0-189.0,0,0,65,,,,,,26.0,,1.0,,,,,,,,,,,,,,,,,,,,157.5,1.0,,
119,,rl_choice,,html-keyboard-response,119,89229,0.0-1.0-191.0,0,0,65,,,,,,27.0,27.0,1.0,easy,3000.0,1000.0,1.0,80.0,20.0,80.0,40.0,C,D,/static/Simple_RL/Stimuli/Fractals_stims/C.jpg,/static/Simple_RL/Stimuli/Fractals_stims/D.jpg,,,,,,,,159.0,1.5,1.0,
120,,rl_choice_warning,,html-keyboard-response,120,90231,0.0-1.0-193.0-0.0,0,0,65,,,,,,27.0,,1.0,,,,,,,,,,,,,,,,,,,,160.0,1.0,,
121,,isi,,html-keyboard-response,121,90333,0.0-1.0-194.0,0,0,65,,,,,,27.0,,1.0,,,,,,,,,,,,,,,,,,,,161.0,1.0,,
122,,iti,,html-keyboard-response,122,90435,0.0-1.0-196.0,0,0,65,,,,,,27.0,,1.0,,,,,,,,,,,,,,,,,,,,164.0,3.0,,
123,,rl_choice,,html-keyboard-response,123,91937,0.0-1.0-198.0,0,0,65,,,,,,28.0,28.0,1.0,easy,1000.0,3500.0,1.0,80.0,20.0,60.0,20.0,C,D,/static/Simple_RL/Stimuli/Fractals_stims/C.jpg,/static/Simple_RL/Stimuli/Fractals_stims/D.jpg,,,,,,,,165.5,1.5,1.0,
124,,rl_choice_warning,,html-keyboard-response,124,92938,0.0-1.0-200.0-0.0,0,0,65,,,,,,28.0,,1.0,,,,,,,,,,,,,,,,,,,,166.5,1.0,,
125,,isi,,html-keyboard-response,125,93040,0.0-1.0-201.0,0,0,65,,,,,,28.0,,1.0,,,,,,,,,,,,,,,,,,,,170.0,3.5,,
126,,iti,,html-keyboard-response,126,93143,0.0-1.0-203.0,0,0,65,,,,,,28.0,,1.0,,,,,,,,,,,,,,,,,,,,171.0,1.0,,
127,,rl_choice,,html-keyboard-response,127,94645,0.0-1.0-205.0,0,0,65,,,,,,29.0,29.0,1.0,hard,1500.0,1000.0,0.0,40.0,60.0,60.0,40.0,B,A,/static/Simple_RL/Stimuli/Fractals_stims/B.jpg,/static/Simple_RL/Stimuli/Fractals_stims/A.jpg,,,,,,,,172.5,1.5,1.0,
128,,rl_choice_warning,,html-keyboard-response,128,95647,0.0-1.0-207.0-0.0,0,0,65,,,,,,29.0,,1.0,,,,,,,,,,,,,,,,,,,,173.5,1.0,,
129,,isi,,html-keyboard-response,129,95750,0.0-1.0-208.0,0,0,65,,,,,,29.0,,1.0,,,,,,,,,,,,,,,,,,,,174.5,1.0,,
130,,iti,,html-keyboard-response,130,95852,0.0-1.0-210.0,0,0,65,,,,,,29.0,,1.0,,,,,,,,,,,,,,,,,,,,176.0,1.5,,
131,,rl_choice,,html-keyboard-response,131,97355,0.0-1.0-212.0,0,0,65,,,,,,30.0,30.0,1.0,easy,1000.0,1500.0,1.0,80.0,20.0,100.0,20.0,C,D,/static/Simple_RL/Stimuli/Fractals_stims/C.jpg,/static/Simple_RL/Stimuli/Fractals_stims/D.jpg,,,,,,,,177.5,1.5,1.0,
132,,rl_choice_warning,,html-keyboard-response,132,98356,0.0-1.0-214.0-0.0,0,0,65,,,,,,30.0,,1.0,,,,,,,,,,,,,,,,,,,,178.5,1.0,,
133,,isi,,html-keyboard-response,133,98459,0.0-1.0-215.0,0,0,65,,,,,,30.0,,1.0,,,,,,,,,,,,,,,,,,,,180.0,1.5,,
134,,iti,,html-keyboard-response,134,98561,0.0-1.0-217.0,0,0,65,,,,,,30.0,,1.0,,,,,,,,,,,,,,,,,,,,181.0,1.0,,
135,,rl_choice,,html-keyboard-response,135,100064,0.0-1.0-219.0,0,0,65,,,,,,31.0,31.0,1.0,easy,2000.0,1500.0,0.0,20.0,80.0,40.0,100.0,D,C,/static/Simple_RL/Stimuli/Fractals_stims/D.jpg,/static/Simple_RL/Stimuli/Fractals_stims/C.jpg,,,,,,,,182.5,1.5,1.0,
136,,rl_choice_warning,,html-keyboard-response,136,101066,0.0-1.0-221.0-0.0,0,0,65,,,,,,31.0,,1.0,,,,,,,,,,,,,,,,,,,,183.5,1.0,,
137,,isi,,html-keyboard-response,137,101168,0.0-1.0-222.0,0,0,65,,,,,,31.0,,1.0,,,,,,,,,,,,,,,,,,,,185.0,1.5,,
138,,iti,,html-keyboard-response,138,101270,0.0-1.0-224.0,0,0,65,,,,,,31.0,,1.0,,,,,,,,,,,,,,,,,,,,187.0,2.0,,
139,,rl_choice,,html-keyboard-response,139,102773,0.0-1.0-226.0,0,0,65,,,,,,32.0,32.0,1.0,hard,1500.0,1000.0,0.0,40.0,60.0,40.0,80.0,B,A,/static/Simple_RL/Stimuli/Fractals_stims/B.jpg,/static/Simple_RL/Stimuli/Fractals_stims/A.jpg,,,,,,,,188.5,1.5,1.0,
140,,rl_choice_warning,,html-keyboard-response,140,103774,0.0-1.0-228.0-0.0,0,0,65,,,,,,32.0,,1.0,,,,,,,,,,,,,,,,,,,,189.5,1.0,,
141,,isi,,html-keyboard-response,141,103875,0.0-1.0-229.0,0,0,65,,,,,,32.0,,1.0,,,,,,,,,,,,,,,,,,,,190.5,1.0,,
142,,iti,,html-keyboard-response,142,103977,0.0-1.0-231.0,0,0,65,,,,,,32.0,,1.0,,,,,,,,,,,,,,,,,,,,192.0,1.5,,
143,,rl_choice,,html-keyboard-response,143,105480,0.0-1.0-233.0,0,0,65,,,,,,33.0,33.0,1.0,easy,1000.0,1000.0,0.0,20.0,80.0,40.0,100.0,D,C,/static/Simple_RL/Stimuli/Fractals_stims/D.jpg,/static/Simple_RL/Stimuli/Fractals_stims/C.jpg,,,,,,,,193.5,1.5,1.0,
144,,rl_choice_warning,,html-keyboard-response,144,106482,0.0-1.0-235.0-0.0,0,0,65,,,,,,33.0,,1.0,,,,,,,,,,,,,,,,,,,,194.5,1.0,,
145,,isi,,html-keyboard-response,145,106587,0.0-1.0-236.0,0,0,65,,,,,,33.0,,1.0,,,,,,,,,,,,,,,,,,,,195.5,1.0,,
146,,iti,,html-keyboard-response,146,106689,0.0-1.0-238.0,0,0,65,,,,,,33.0,,1.0,,,,,,,,,,,,,,,,,,,,196.5,1.0,,
147,,rl_choice,,html-keyboard-response,147,108191,0.0-1.0-240.0,0,0,65,,,,,,34.0,34.0,1.0,easy,3500.0,3000.0,1.0,80.0,20.0,80.0,40.0,C,D,/static/Simple_RL/Stimuli/Fractals_stims/C.jpg,/static/Simple_RL/Stimuli/Fractals_stims/D.jpg,,,,,,,,198.0,1.5,1.0,
148,,rl_choice_warning,,html-keyboard-response,148,109193,0.0-1.0-242.0-0.0,0,0,65,,,,,,34.0,,1.0,,,,,,,,,,,,,,,,,,,,199.0,1.0,,
149,,isi,,html-keyboard-response,149,109296,0.0-1.0-243.0,0,0,65,,,,,,34.0,,1.0,,,,,,,,,,,,,,,,,,,,202.0,3.0,,
150,,iti,,html-keyboard-response,150,109398,0.0-1.0-245.0,0,0,65,,,,,,34.0,,1.0,,,,,,,,,,,,,,,,,,,,205.5,3.5,,
151,,rl_choice,,html-keyboard-response,151,110901,0.0-1.0-247.0,0,0,65,,,,,,35.0,35.0,1.0,easy,1500.0,2000.0,1.0,80.0,20.0,60.0,40.0,C,D,/static/Simple_RL/Stimuli/Fractals_stims/C.jpg,/static/Simple_RL/Stimuli/Fractals_stims/D.jpg,,,,,,,,207.0,1.5,1.0,
152,,rl_choice_warning,,html-keyboard-response,152,111904,0.0-1.0-249.0-0.0,0,0,65,,,,,,35.0,,1.0,,,,,,,,,,,,,,,,,,,,208.0,1.0,,
153,,isi,,html-keyboard-response,153,112006,0.0-1.0-250.0,0,0,65,,,,,,35.0,,1.0,,,,,,,,,,,,,,,,,,,,210.0,2.0,,
154,,iti,,html-keyboard-response,154,112108,0.0-1.0-252.0,0,0,65,,,,,,35.0,,1.0,,,,,,,,,,,,,,,,,,,,211.5,1.5,,
155,,rl_choice,,html-keyboard-response,155,113611,0.0-1.0-254.0,0,0,65,,,,,,36.0,36.0,1.0,easy,1500.0,1500.0,0.0,20.0,80.0,20.0,100.0,D,C,/static/Simple_RL/Stimuli/Fractals_stims/D.jpg,/static/Simple_RL/Stimuli/Fractals_stims/C.jpg,,,,,,,,213.0,1.5,1.0,
156,,rl_choice_warning,,html-keyboard-response,156,114613,0.0-1.0-256.0-0.0,0,0,65,,,,,,36.0,,1.0,,,,,,,,,,,,,,,,,,,,214.0,1.0,,
157,,isi,,html-keyboard-response,157,114716,0.0-1.0-257.0,0,0,65,,,,,,36.0,,1.0,,,,,,,,,,,,,,,,,,,,215.5,1.5,,
158,,iti,,html-keyboard-response,158,114817,0.0-1.0-259.0,0,0,65,,,,,,36.0,,1.0,,,,,,,,,,,,,,,,,,,,217.0,1.5,,
159,,rl_choice,,html-keyboard-response,159,116320,0.0-1.0-261.0,0,0,65,,,,,,37.0,37.0,1.0,hard,2000.0,1000.0,1.0,60.0,40.0,60.0,40.0,A,B,/static/Simple_RL/Stimuli/Fractals_stims/A.jpg,/static/Simple_RL/Stimuli/Fractals_stims/B.jpg,,,,,,,,218.5,1.5,1.0,
160,,rl_choice_warning,,html-keyboard-response,160,117321,0.0-1.0-263.0-0.0,0,0,65,,,,,,37.0,,1.0,,,,,,,,,,,,,,,,,,,,219.5,1.0,,
161,,isi,,html-keyboard-response,161,117422,0.0-1.0-264.0,0,0,65,,,,,,37.0,,1.0,,,,,,,,,,,,,,,,,,,,220.5,1.0,,
162,,iti,,html-keyboard-response,162,117524,0.0-1.0-266.0,0,0,65,,,,,,37.0,,1.0,,,,,,,,,,,,,,,,,,,,222.5,2.0,,
163,,rl_choice,,html-keyboard-response,163,119026,0.0-1.0-268.0,0,0,65,,,,,,38.0,38.0,1.0,hard,1000.0,1500.0,0.0,40.0,60.0,20.0,40.0,B,A,/static/Simple_RL/Stimuli/Fractals_stims/B.jpg,/static/Simple_RL/Stimuli/Fractals_stims/A.jpg,,,,,,,,224.0,1.5,1.0,
164,,rl_choice_warning,,html-keyboard-response,164,120027,0.0-1.0-270.0-0.0,0,0,65,,,,,,38.0,,1.0,,,,,,,,,,,,,,,,,,,,225.0,1.0,,
165,,isi,,html-keyboard-response,165,120128,0.0-1.0-271.0,0,0,65,,,,,,38.0,,1.0,,,,,,,,,,,,,,,,,,,,226.5,1.5,,
166,,iti,,html-keyboard-response,166,120231,0.0-1.0-273.0,0,0,65,,,,,,38.0,,1.0,,,,,,,,,,,,,,,,,,,,227.5,1.0,,
167,,rl_choice,,html-keyboard-response,167,121733,0.0-1.0-275.0,0,0,65,,,,,,39.0,39.0,1.0,easy,1000.0,1000.0,0.0,20.0,80.0,0.0,60.0,D,C,/static/Simple_RL/Stimuli/Fractals_stims/D.jpg,/static/Simple_RL/Stimuli/Fractals_stims/C.jpg,,,,,,,,229.0,1.5,1.0,
168,,rl_choice_warning,,html-keyboard-response,168,122736,0.0-1.0-277.0-0.0,0,0,65,,,,,,39.0,,1.0,,,,,,,,,,,,,,,,,,,,230.0,1.0,,
169,,isi,,html-keyboard-response,169,122838,0.0-1.0-278.0,0,0,65,,,,,,39.0,,1.0,,,,,,,,,,,,,,,,,,,,231.0,1.0,,
170,,iti,,html-keyboard-response,170,122940,0.0-1.0-280.0,0,0,65,,,,,,39.0,,1.0,,,,,,,,,,,,,,,,,,,,232.0,1.0,,
171,,block_over,,html-keyboard-response,171,144048,0.0-1.0-281.0-0.0,0,0,65,,21106.0,,,50.0,39.0,,,,,,,,,,,,,,,,,,,,,,,,,
172,,start_run,,html-keyboard-response,172,145585,0.0-1.0-281.0-1.0,0,0,65,,1536.0,,,84.0,,,,,,,,,,,,,,,,,,,,,,,,,,
173,,rl_choice,,html-keyboard-response,173,146736,0.0-1.0-282.0,0,0,65,,1149.0,,,50.0,40.0,40.0,2.0,easy,1500.0,2000.0,1.0,80.0,20.0,60.0,20.0,C,D,/static/Simple_RL/Stimuli/Fractals_stims/C.jpg,/static/Simple_RL/Stimuli/Fractals_stims/D.jpg,1.0,80.0,20.0,60.0,20.0,C,D,1.149,1.149,0.0,
174,,rl_choice_confirmation,,html-keyboard-response,174,147090,0.0-1.0-283.0-0.0,0,0,65,,,,,,40.0,,2.0,,,,,,,,,,,,,,,,,,,,1.5,0.351,,
175,,isi,,html-keyboard-response,175,147192,0.0-1.0-285.0,0,0,65,,,,,,40.0,,2.0,,,,,,,,,,,,,,,,,,,,3.5,2.0,,
176,,feedback,,html-keyboard-response,176,148196,0.0-1.0-286.0-0.0,0,0,65,,,,,,40.0,,2.0,,,,,,,,,,,,,,,,,,,,4.5,1.0,,
177,,iti,,html-keyboard-response,177,148298,0.0-1.0-287.0,0,0,65,,,,,,40.0,,2.0,,,,,,,,,,,,,,,,,,,,6.0,1.5,,
178,,rl_choice,,html-keyboard-response,178,148586,0.0-1.0-289.0,0,0,65,,286.0,,,50.0,41.0,41.0,2.0,hard,1000.0,2000.0,0.0,40.0,60.0,60.0,60.0,B,A,/static/Simple_RL/Stimuli/Fractals_stims/B.jpg,/static/Simple_RL/Stimuli/Fractals_stims/A.jpg,1.0,40.0,60.0,60.0,60.0,B,A,6.286,0.286,0.0,
179,,rl_choice_confirmation,,html-keyboard-response,179,149802,0.0-1.0-290.0-0.0,0,0,65,,,,,,41.0,,2.0,,,,,,,,,,,,,,,,,,,,7.5,1.214,,
180,,isi,,html-keyboard-response,180,149904,0.0-1.0-292.0,0,0,65,,,,,,41.0,,2.0,,,,,,,,,,,,,,,,,,,,9.5,2.0,,
181,,feedback,,html-keyboard-response,181,150906,0.0-1.0-293.0-0.0,0,0,65,,,,,,41.0,,2.0,,,,,,,,,,,,,,,,,,,,10.5,1.0,,
182,,iti,,html-keyboard-response,182,151009,0.0-1.0-294.0,0,0,65,,,,,,41.0,,2.0,,,,,,,,,,,,,,,,,,,,11.5,1.0,,
183,,rl_choice,,html-keyboard-response,183,151255,0.0-1.0-296.0,0,0,65,,245.0,,,50.0,42.0,42.0,2.0,hard,1500.0,1000.0,0.0,40.0,60.0,20.0,80.0,B,A,/static/Simple_RL/Stimuli/Fractals_stims/B.jpg,/static/Simple_RL/Stimuli/Fractals_stims/A.jpg,1.0,40.0,60.0,20.0,80.0,B,A,11.745,0.245,0.0,
184,,rl_choice_confirmation,,html-keyboard-response,184,152513,0.0-1.0-297.0-0.0,0,0,65,,,,,,42.0,,2.0,,,,,,,,,,,,,,,,,,,,13.0,1.255,,
185,,isi,,html-keyboard-response,185,152614,0.0-1.0-299.0,0,0,65,,,,,,42.0,,2.0,,,,,,,,,,,,,,,,,,,,14.0,1.0,,
186,,feedback,,html-keyboard-response,186,153617,0.0-1.0-300.0-0.0,0,0,65,,,,,,42.0,,2.0,,,,,,,,,,,,,,,,,,,,15.0,1.0,,
187,,iti,,html-keyboard-response,187,153721,0.0-1.0-301.0,0,0,65,,,,,,42.0,,2.0,,,,,,,,,,,,,,,,,,,,16.5,1.5,,
188,,rl_choice,,html-keyboard-response,188,154259,0.0-1.0-303.0,0,0,65,,536.0,,,50.0,43.0,43.0,2.0,hard,1000.0,2000.0,0.0,40.0,60.0,20.0,80.0,B,A,/static/Simple_RL/Stimuli/Fractals_stims/B.jpg,/static/Simple_RL/Stimuli/Fractals_stims/A.jpg,1.0,40.0,60.0,20.0,80.0,B,A,17.036,0.536,0.0,
189,,rl_choice_confirmation,,html-keyboard-response,189,155225,0.0-1.0-304.0-0.0,0,0,65,,,,,,43.0,,2.0,,,,,,,,,,,,,,,,,,,,18.0,0.964,,
190,,isi,,html-keyboard-response,190,155328,0.0-1.0-306.0,0,0,65,,,,,,43.0,,2.0,,,,,,,,,,,,,,,,,,,,20.0,2.0,,
191,,feedback,,html-keyboard-response,191,156331,0.0-1.0-307.0-0.0,0,0,65,,,,,,43.0,,2.0,,,,,,,,,,,,,,,,,,,,21.0,1.0,,
192,,iti,,html-keyboard-response,192,156433,0.0-1.0-308.0,0,0,65,,,,,,43.0,,2.0,,,,,,,,,,,,,,,,,,,,22.0,1.0,,
193,,rl_choice,,html-keyboard-response,193,156938,0.0-1.0-310.0,0,0,65,,503.0,,,50.0,44.0,44.0,2.0,hard,1000.0,1000.0,0.0,40.0,60.0,40.0,40.0,B,A,/static/Simple_RL/Stimuli/Fractals_stims/B.jpg,/static/Simple_RL/Stimuli/Fractals_stims/A.jpg,1.0,40.0,60.0,40.0,40.0,B,A,22.503,0.503,0.0,
194,,rl_choice_confirmation,,html-keyboard-response,194,157937,0.0-1.0-311.0-0.0,0,0,65,,,,,,44.0,,2.0,,,,,,,,,,,,,,,,,,,,23.5,0.997,,
195,,isi,,html-keyboard-response,195,158039,0.0-1.0-313.0,0,0,65,,,,,,44.0,,2.0,,,,,,,,,,,,,,,,,,,,24.5,1.0,,
196,,feedback,,html-keyboard-response,196,159042,0.0-1.0-314.0-0.0,0,0,65,,,,,,44.0,,2.0,,,,,,,,,,,,,,,,,,,,25.5,1.0,,
197,,iti,,html-keyboard-response,197,159143,0.0-1.0-315.0,0,0,65,,,,,,44.0,,2.0,,,,,,,,,,,,,,,,,,,,26.5,1.0,,
198,,rl_choice,,html-keyboard-response,198,159185,0.0-1.0-317.0,0,0,65,,40.0,,,50.0,45.0,45.0,2.0,hard,2000.0,1500.0,0.0,40.0,60.0,20.0,40.0,B,A,/static/Simple_RL/Stimuli/Fractals_stims/B.jpg,/static/Simple_RL/Stimuli/Fractals_stims/A.jpg,1.0,40.0,60.0,20.0,40.0,B,A,26.54,0.04,0.0,
199,,rl_choice_confirmation,,html-keyboard-response,199,160646,0.0-1.0-318.0-0.0,0,0,65,,,,,,45.0,,2.0,,,,,,,,,,,,,,,,,,,,28.0,1.46,,
200,,isi,,html-keyboard-response,200,160748,0.0-1.0-320.0,0,0,65,,,,,,45.0,,2.0,,,,,,,,,,,,,,,,,,,,29.5,1.5,,
201,,feedback,,html-keyboard-response,201,161751,0.0-1.0-321.0-0.0,0,0,65,,,,,,45.0,,2.0,,,,,,,,,,,,,,,,,,,,30.5,1.0,,
202,,iti,,html-keyboard-response,202,161852,0.0-1.0-322.0,0,0,65,,,,,,45.0,,2.0,,,,,,,,,,,,,,,,,,,,32.5,2.0,,
203,,rl_choice,,html-keyboard-response,203,162098,0.0-1.0-324.0,0,0,65,,244.0,,,50.0,46.0,46.0,2.0,easy,1500.0,3000.0,0.0,20.0,80.0,0.0,80.0,D,C,/static/Simple_RL/Stimuli/Fractals_stims/D.jpg,/static/Simple_RL/Stimuli/Fractals_stims/C.jpg,1.0,20.0,80.0,0.0,80.0,D,C,32.744,0.244,0.0,
204,,rl_choice_confirmation,,html-keyboard-response,204,163356,0.0-1.0-325.0-0.0,0,0,65,,,,,,46.0,,2.0,,,,,,,,,,,,,,,,,,,,34.0,1.256,,
205,,isi,,html-keyboard-response,205,163457,0.0-1.0-327.0,0,0,65,,,,,,46.0,,2.0,,,,,,,,,,,,,,,,,,,,37.0,3.0,,
206,,feedback,,html-keyboard-response,206,164459,0.0-1.0-328.0-0.0,0,0,65,,,,,,46.0,,2.0,,,,,,,,,,,,,,,,,,,,38.0,1.0,,
207,,iti,,html-keyboard-response,207,164561,0.0-1.0-329.0,0,0,65,,,,,,46.0,,2.0,,,,,,,,,,,,,,,,,,,,39.5,1.5,,
208,,rl_choice,,html-keyboard-response,208,164711,0.0-1.0-331.0,0,0,65,,148.0,,,50.0,47.0,47.0,2.0,easy,1500.0,1000.0,0.0,20.0,80.0,20.0,80.0,D,C,/static/Simple_RL/Stimuli/Fractals_stims/D.jpg,/static/Simple_RL/Stimuli/Fractals_stims/C.jpg,1.0,20.0,80.0,20.0,80.0,D,C,39.648,0.148,0.0,
209,,rl_choice_confirmation,,html-keyboard-response,209,166065,0.0-1.0-332.0-0.0,0,0,65,,,,,,47.0,,2.0,,,,,,,,,,,,,,,,,,,,41.0,1.352,,
210,,isi,,html-keyboard-response,210,166167,0.0-1.0-334.0,0,0,65,,,,,,47.0,,2.0,,,,,,,,,,,,,,,,,,,,42.0,1.0,,
211,,feedback,,html-keyboard-response,211,167170,0.0-1.0-335.0-0.0,0,0,65,,,,,,47.0,,2.0,,,,,,,,,,,,,,,,,,,,43.0,1.0,,
212,,iti,,html-keyboard-response,212,167272,0.0-1.0-336.0,0,0,65,,,,,,47.0,,2.0,,,,,,,,,,,,,,,,,,,,44.5,1.5,,
213,,rl_choice,,html-keyboard-response,213,167487,0.0-1.0-338.0,0,0,65,,214.0,,,50.0,48.0,48.0,2.0,easy,2000.0,1000.0,1.0,80.0,20.0,80.0,20.0,C,D,/static/Simple_RL/Stimuli/Fractals_stims/C.jpg,/static/Simple_RL/Stimuli/Fractals_stims/D.jpg,1.0,80.0,20.0,80.0,20.0,C,D,44.714,0.214,0.0,
214,,rl_choice_confirmation,,html-keyboard-response,214,168775,0.0-1.0-339.0-0.0,0,0,65,,,,,,48.0,,2.0,,,,,,,,,,,,,,,,,,,,46.0,1.286,,
215,,isi,,html-keyboard-response,215,168876,0.0-1.0-341.0,0,0,65,,,,,,48.0,,2.0,,,,,,,,,,,,,,,,,,,,47.0,1.0,,
216,,feedback,,html-keyboard-response,216,169879,0.0-1.0-342.0-0.0,0,0,65,,,,,,48.0,,2.0,,,,,,,,,,,,,,,,,,,,48.0,1.0,,
217,,iti,,html-keyboard-response,217,169980,0.0-1.0-343.0,0,0,65,,,,,,48.0,,2.0,,,,,,,,,,,,,,,,,,,,50.0,2.0,,
218,,rl_choice,,html-keyboard-response,218,171035,0.0-1.0-345.0,0,0,65,,1054.0,,,50.0,49.0,49.0,2.0,hard,1500.0,2000.0,0.0,40.0,60.0,60.0,60.0,B,A,/static/Simple_RL/Stimuli/Fractals_stims/B.jpg,/static/Simple_RL/Stimuli/Fractals_stims/A.jpg,1.0,40.0,60.0,60.0,60.0,B,A,51.054,1.054,0.0,
219,,rl_choice_confirmation,,html-keyboard-response,219,171484,0.0-1.0-346.0-0.0,0,0,65,,,,,,49.0,,2.0,,,,,,,,,,,,,,,,,,,,51.5,0.446,,
220,,isi,,html-keyboard-response,220,171587,0.0-1.0-348.0,0,0,65,,,,,,49.0,,2.0,,,,,,,,,,,,,,,,,,,,53.5,2.0,,
221,,feedback,,html-keyboard-response,221,172590,0.0-1.0-349.0-0.0,0,0,65,,,,,,49.0,,2.0,,,,,,,,,,,,,,,,,,,,54.5,1.0,,
222,,iti,,html-keyboard-response,222,172692,0.0-1.0-350.0,0,0,65,,,,,,49.0,,2.0,,,,,,,,,,,,,,,,,,,,56.0,1.5,,
223,,rl_choice,,html-keyboard-response,223,173499,0.0-1.0-352.0,0,0,65,,805.0,,,50.0,50.0,50.0,2.0,easy,1000.0,3500.0,0.0,20.0,80.0,0.0,100.0,D,C,/static/Simple_RL/Stimuli/Fractals_stims/D.jpg,/static/Simple_RL/Stimuli/Fractals_stims/C.jpg,1.0,20.0,80.0,0.0,100.0,D,C,56.805,0.805,0.0,
224,,rl_choice_confirmation,,html-keyboard-response,224,174196,0.0-1.0-353.0-0.0,0,0,65,,,,,,50.0,,2.0,,,,,,,,,,,,,,,,,,,,57.5,0.695,,
225,,isi,,html-keyboard-response,225,174298,0.0-1.0-355.0,0,0,65,,,,,,50.0,,2.0,,,,,,,,,,,,,,,,,,,,61.0,3.5,,
226,,feedback,,html-keyboard-response,226,175301,0.0-1.0-356.0-0.0,0,0,65,,,,,,50.0,,2.0,,,,,,,,,,,,,,,,,,,,62.0,1.0,,
227,,iti,,html-keyboard-response,227,175405,0.0-1.0-357.0,0,0,65,,,,,,50.0,,2.0,,,,,,,,,,,,,,,,,,,,63.0,1.0,,
228,,rl_choice,,html-keyboard-response,228,175882,0.0-1.0-359.0,0,0,65,,475.0,,,50.0,51.0,51.0,2.0,easy,1500.0,1000.0,1.0,80.0,20.0,60.0,20.0,C,D,/static/Simple_RL/Stimuli/Fractals_stims/C.jpg,/static/Simple_RL/Stimuli/Fractals_stims/D.jpg,1.0,80.0,20.0,60.0,20.0,C,D,63.475,0.475,0.0,
229,,rl_choice_confirmation,,html-keyboard-response,229,176909,0.0-1.0-360.0-0.0,0,0,65,,,,,,51.0,,2.0,,,,,,,,,,,,,,,,,,,,64.5,1.025,,
230,,isi,,html-keyboard-response,230,177012,0.0-1.0-362.0,0,0,65,,,,,,51.0,,2.0,,,,,,,,,,,,,,,,,,,,65.5,1.0,,
231,,feedback,,html-keyboard-response,231,178016,0.0-1.0-363.0-0.0,0,0,65,,,,,,51.0,,2.0,,,,,,,,,,,,,,,,,,,,66.5,1.0,,
232,,iti,,html-keyboard-response,232,178118,0.0-1.0-364.0,0,0,65,,,,,,51.0,,2.0,,,,,,,,,,,,,,,,,,,,68.0,1.5,,
233,,rl_choice,,html-keyboard-response,233,178666,0.0-1.0-366.0,0,0,65,,547.0,,,50.0,52.0,52.0,2.0,hard,2000.0,1500.0,0.0,40.0,60.0,20.0,80.0,B,A,/static/Simple_RL/Stimuli/Fractals_stims/B.jpg,/static/Simple_RL/Stimuli/Fractals_stims/A.jpg,1.0,40.0,60.0,20.0,80.0,B,A,68.547,0.547,0.0,
234,,rl_choice_confirmation,,html-keyboard-response,234,179621,0.0-1.0-367.0-0.0,0,0,65,,,,,,52.0,,2.0,,,,,,,,,,,,,,,,,,,,69.5,0.953,,
235,,isi,,html-keyboard-response,235,179723,0.0-1.0-369.0,0,0,65,,,,,,52.0,,2.0,,,,,,,,,,,,,,,,,,,,71.0,1.5,,
236,,feedback,,html-keyboard-response,236,180725,0.0-1.0-370.0-0.0,0,0,65,,,,,,52.0,,2.0,,,,,,,,,,,,,,,,,,,,72.0,1.0,,
237,,iti,,html-keyboard-response,237,180827,0.0-1.0-371.0,0,0,65,,,,,,52.0,,2.0,,,,,,,,,,,,,,,,,,,,74.0,2.0,,
238,,rl_choice,,html-keyboard-response,238,181489,0.0-1.0-373.0,0,0,65,,662.0,,,50.0,53.0,53.0,2.0,hard,3000.0,1500.0,0.0,40.0,60.0,20.0,40.0,B,A,/static/Simple_RL/Stimuli/Fractals_stims/B.jpg,/static/Simple_RL/Stimuli/Fractals_stims/A.jpg,1.0,40.0,60.0,20.0,40.0,B,A,74.662,0.662,0.0,
239,,rl_choice_confirmation,,html-keyboard-response,239,182330,0.0-1.0-374.0-0.0,0,0,65,,,,,,53.0,,2.0,,,,,,,,,,,,,,,,,,,,75.5,0.838,,
240,,isi,,html-keyboard-response,240,182431,0.0-1.0-376.0,0,0,65,,,,,,53.0,,2.0,,,,,,,,,,,,,,,,,,,,77.0,1.5,,
241,,feedback,,html-keyboard-response,241,183433,0.0-1.0-377.0-0.0,0,0,65,,,,,,53.0,,2.0,,,,,,,,,,,,,,,,,,,,78.0,1.0,,
242,,iti,,html-keyboard-response,242,183535,0.0-1.0-378.0,0,0,65,,,,,,53.0,,2.0,,,,,,,,,,,,,,,,,,,,81.0,3.0,,
243,,rl_choice,,html-keyboard-response,243,183609,0.0-1.0-380.0,0,0,65,,73.0,,,50.0,54.0,54.0,2.0,easy,3000.0,1500.0,0.0,20.0,80.0,20.0,100.0,D,C,/static/Simple_RL/Stimuli/Fractals_stims/D.jpg,/static/Simple_RL/Stimuli/Fractals_stims/C.jpg,1.0,20.0,80.0,20.0,100.0,D,C,81.073,0.073,0.0,
244,,rl_choice_confirmation,,html-keyboard-response,244,185038,0.0-1.0-381.0-0.0,0,0,65,,,,,,54.0,,2.0,,,,,,,,,,,,,,,,,,,,82.5,1.427,,
245,,isi,,html-keyboard-response,245,185140,0.0-1.0-383.0,0,0,65,,,,,,54.0,,2.0,,,,,,,,,,,,,,,,,,,,84.0,1.5,,
246,,feedback,,html-keyboard-response,246,186142,0.0-1.0-384.0-0.0,0,0,65,,,,,,54.0,,2.0,,,,,,,,,,,,,,,,,,,,85.0,1.0,,
247,,iti,,html-keyboard-response,247,186244,0.0-1.0-385.0,0,0,65,,,,,,54.0,,2.0,,,,,,,,,,,,,,,,,,,,88.0,3.0,,
248,,rl_choice,,html-keyboard-response,248,186421,0.0-1.0-387.0,0,0,65,,176.0,,,50.0,55.0,55.0,2.0,easy,1500.0,1500.0,1.0,80.0,20.0,80.0,20.0,C,D,/static/Simple_RL/Stimuli/Fractals_stims/C.jpg,/static/Simple_RL/Stimuli/Fractals_stims/D.jpg,1.0,80.0,20.0,80.0,20.0,C,D,88.176,0.176,0.0,
249,,rl_choice_confirmation,,html-keyboard-response,249,187747,0.0-1.0-388.0-0.0,0,0,65,,,,,,55.0,,2.0,,,,,,,,,,,,,,,,,,,,89.5,1.324,,
250,,isi,,html-keyboard-response,250,187849,0.0-1.0-390.0,0,0,65,,,,,,55.0,,2.0,,,,,,,,,,,,,,,,,,,,91.0,1.5,,
251,,feedback,,html-keyboard-response,251,188852,0.0-1.0-391.0-0.0,0,0,65,,,,,,55.0,,2.0,,,,,,,,,,,,,,,,,,,,92.0,1.0,,
252,,iti,,html-keyboard-response,252,188954,0.0-1.0-392.0,0,0,65,,,,,,55.0,,2.0,,,,,,,,,,,,,,,,,,,,93.5,1.5,,
253,,rl_choice,,html-keyboard-response,253,189136,0.0-1.0-394.0,0,0,65,,181.0,,,50.0,56.0,56.0,2.0,easy,2000.0,2000.0,0.0,20.0,80.0,40.0,80.0,D,C,/static/Simple_RL/Stimuli/Fractals_stims/D.jpg,/static/Simple_RL/Stimuli/Fractals_stims/C.jpg,1.0,20.0,80.0,40.0,80.0,D,C,93.681,0.181,0.0,
254,,rl_choice_confirmation,,html-keyboard-response,254,190457,0.0-1.0-395.0-0.0,0,0,65,,,,,,56.0,,2.0,,,,,,,,,,,,,,,,,,,,95.0,1.319,,
255,,isi,,html-keyboard-response,255,190560,0.0-1.0-397.0,0,0,65,,,,,,56.0,,2.0,,,,,,,,,,,,,,,,,,,,97.0,2.0,,
256,,feedback,,html-keyboard-response,256,191563,0.0-1.0-398.0-0.0,0,0,65,,,,,,56.0,,2.0,,,,,,,,,,,,,,,,,,,,98.0,1.0,,
257,,iti,,html-keyboard-response,257,191665,0.0-1.0-399.0,0,0,65,,,,,,56.0,,2.0,,,,,,,,,,,,,,,,,,,,100.0,2.0,,
258,,rl_choice,,html-keyboard-response,258,191833,0.0-1.0-401.0,0,0,65,,167.0,,,50.0,57.0,57.0,2.0,easy,1000.0,1000.0,0.0,20.0,80.0,20.0,80.0,D,C,/static/Simple_RL/Stimuli/Fractals_stims/D.jpg,/static/Simple_RL/Stimuli/Fractals_stims/C.jpg,1.0,20.0,80.0,20.0,80.0,D,C,100.167,0.167,0.0,
259,,rl_choice_confirmation,,html-keyboard-response,259,193169,0.0-1.0-402.0-0.0,0,0,65,,,,,,57.0,,2.0,,,,,,,,,,,,,,,,,,,,101.5,1.333,,
260,,isi,,html-keyboard-response,260,193271,0.0-1.0-404.0,0,0,65,,,,,,57.0,,2.0,,,,,,,,,,,,,,,,,,,,102.5,1.0,,
261,,feedback,,html-keyboard-response,261,194273,0.0-1.0-405.0-0.0,0,0,65,,,,,,57.0,,2.0,,,,,,,,,,,,,,,,,,,,103.5,1.0,,
262,,iti,,html-keyboard-response,262,194375,0.0-1.0-406.0,0,0,65,,,,,,57.0,,2.0,,,,,,,,,,,,,,,,,,,,104.5,1.0,,
263,,rl_choice,,html-keyboard-response,263,195880,0.0-1.0-408.0,0,0,65,,,,,,58.0,58.0,2.0,easy,1000.0,1000.0,0.0,20.0,80.0,20.0,60.0,D,C,/static/Simple_RL/Stimuli/Fractals_stims/D.jpg,/static/Simple_RL/Stimuli/Fractals_stims/C.jpg,,,,,,,,106.0,1.5,1.0,
264,,rl_choice_warning,,html-keyboard-response,264,196882,0.0-1.0-410.0-0.0,1,0,65,,,,,,58.0,,2.0,,,,,,,,,,,,,,,,,,,,107.0,1.0,,
265,,isi,,html-keyboard-response,265,196984,0.0-1.0-411.0,0,0,65,,,,,,58.0,,2.0,,,,,,,,,,,,,,,,,,,,108.0,1.0,,
266,,iti,,html-keyboard-response,266,197087,0.0-1.0-413.0,0,0,65,,,,,,58.0,,2.0,,,,,,,,,,,,,,,,,,,,109.0,1.0,,
267,,rl_choice,,html-keyboard-response,267,197457,0.0-1.0-415.0,0,0,65,,368.0,,,51.0,59.0,59.0,2.0,hard,1500.0,1000.0,1.0,60.0,40.0,80.0,40.0,A,B,/static/Simple_RL/Stimuli/Fractals_stims/A.jpg,/static/Simple_RL/Stimuli/Fractals_stims/B.jpg,0.0,40.0,60.0,40.0,80.0,B,A,109.368,0.368,0.0,
268,,rl_choice_confirmation,,html-keyboard-response,268,198591,0.0-1.0-416.0-0.0,0,0,65,,,,,,59.0,,2.0,,,,,,,,,,,,,,,,,,,,110.5,1.132,,
269,,isi,,html-keyboard-response,269,198694,0.0-1.0-418.0,0,0,65,,,,,,59.0,,2.0,,,,,,,,,,,,,,,,,,,,111.5,1.0,,
270,,feedback,,html-keyboard-response,270,199697,0.0-1.0-419.0-0.0,0,0,65,,,,,,59.0,,2.0,,,,,,,,,,,,,,,,,,,,112.5,1.0,,
271,,iti,,html-keyboard-response,271,199800,0.0-1.0-420.0,0,0,65,,,,,,59.0,,2.0,,,,,,,,,,,,,,,,,,,,114.0,1.5,,
272,,rl_choice,,html-keyboard-response,272,200286,0.0-1.0-422.0,0,0,65,,486.0,,,51.0,60.0,60.0,2.0,hard,1500.0,1000.0,1.0,60.0,40.0,40.0,40.0,A,B,/static/Simple_RL/Stimuli/Fractals_stims/A.jpg,/static/Simple_RL/Stimuli/Fractals_stims/B.jpg,0.0,40.0,60.0,40.0,40.0,B,A,114.486,0.486,0.0,
273,,rl_choice_confirmation,,html-keyboard-response,273,201303,0.0-1.0-423.0-0.0,0,0,65,,,,,,60.0,,2.0,,,,,,,,,,,,,,,,,,,,115.5,1.014,,
274,,isi,,html-keyboard-response,274,201405,0.0-1.0-425.0,0,0,65,,,,,,60.0,,2.0,,,,,,,,,,,,,,,,,,,,116.5,1.0,,
275,,feedback,,html-keyboard-response,275,202408,0.0-1.0-426.0-0.0,0,0,65,,,,,,60.0,,2.0,,,,,,,,,,,,,,,,,,,,117.5,1.0,,
276,,iti,,html-keyboard-response,276,202511,0.0-1.0-427.0,0,0,65,,,,,,60.0,,2.0,,,,,,,,,,,,,,,,,,,,119.0,1.5,,
277,,rl_choice,,html-keyboard-response,277,202660,0.0-1.0-429.0,0,0,65,,147.0,,,51.0,61.0,61.0,2.0,hard,1000.0,1000.0,1.0,60.0,40.0,40.0,60.0,A,B,/static/Simple_RL/Stimuli/Fractals_stims/A.jpg,/static/Simple_RL/Stimuli/Fractals_stims/B.jpg,0.0,40.0,60.0,60.0,40.0,B,A,119.147,0.147,0.0,
278,,rl_choice_confirmation,,html-keyboard-response,278,204015,0.0-1.0-430.0-0.0,0,0,65,,,,,,61.0,,2.0,,,,,,,,,,,,,,,,,,,,120.5,1.353,,
279,,isi,,html-keyboard-response,279,204117,0.0-1.0-432.0,0,0,65,,,,,,61.0,,2.0,,,,,,,,,,,,,,,,,,,,121.5,1.0,,
280,,feedback,,html-keyboard-response,280,205119,0.0-1.0-433.0-0.0,0,0,65,,,,,,61.0,,2.0,,,,,,,,,,,,,,,,,,,,122.5,1.0,,
281,,iti,,html-keyboard-response,281,205220,0.0-1.0-434.0,0,0,65,,,,,,61.0,,2.0,,,,,,,,,,,,,,,,,,,,123.5,1.0,,
282,,rl_choice,,html-keyboard-response,282,205221,0.0-1.0-436.0,0,0,65,,1.0,,,51.0,62.0,62.0,2.0,hard,1000.0,3000.0,1.0,60.0,40.0,60.0,20.0,A,B,/static/Simple_RL/Stimuli/Fractals_stims/A.jpg,/static/Simple_RL/Stimuli/Fractals_stims/B.jpg,0.0,40.0,60.0,20.0,60.0,B,A,123.501,0.001,0.0,
283,,rl_choice_confirmation,,html-keyboard-response,283,206722,0.0-1.0-437.0-0.0,0,0,65,,,,,,62.0,,2.0,,,,,,,,,,,,,,,,,,,,125.0,1.499,,
284,,isi,,html-keyboard-response,284,206824,0.0-1.0-439.0,0,0,65,,,,,,62.0,,2.0,,,,,,,,,,,,,,,,,,,,128.0,3.0,,
285,,feedback,,html-keyboard-response,285,207827,0.0-1.0-440.0-0.0,0,0,65,,,,,,62.0,,2.0,,,,,,,,,,,,,,,,,,,,129.0,1.0,,
286,,iti,,html-keyboard-response,286,207929,0.0-1.0-441.0,0,0,65,,,,,,62.0,,2.0,,,,,,,,,,,,,,,,,,,,130.0,1.0,,
287,,rl_choice,,html-keyboard-response,287,209136,0.0-1.0-443.0,0,0,65,,1206.0,,,51.0,63.0,63.0,2.0,easy,2000.0,1500.0,0.0,20.0,80.0,20.0,60.0,D,C,/static/Simple_RL/Stimuli/Fractals_stims/D.jpg,/static/Simple_RL/Stimuli/Fractals_stims/C.jpg,0.0,80.0,20.0,60.0,20.0,C,D,131.206,1.206,0.0,
288,,rl_choice_confirmation,,html-keyboard-response,288,209432,0.0-1.0-444.0-0.0,0,0,65,,,,,,63.0,,2.0,,,,,,,,,,,,,,,,,,,,131.5,0.294,,
289,,isi,,html-keyboard-response,289,209534,0.0-1.0-446.0,0,0,65,,,,,,63.0,,2.0,,,,,,,,,,,,,,,,,,,,133.0,1.5,,
290,,feedback,,html-keyboard-response,290,210537,0.0-1.0-447.0-0.0,0,0,65,,,,,,63.0,,2.0,,,,,,,,,,,,,,,,,,,,134.0,1.0,,
291,,iti,,html-keyboard-response,291,210642,0.0-1.0-448.0,0,0,65,,,,,,63.0,,2.0,,,,,,,,,,,,,,,,,,,,136.0,2.0,,
292,,rl_choice,,html-keyboard-response,292,211202,0.0-1.0-450.0,0,0,65,,559.0,,,50.0,64.0,64.0,2.0,easy,2000.0,1000.0,1.0,80.0,20.0,100.0,20.0,C,D,/static/Simple_RL/Stimuli/Fractals_stims/C.jpg,/static/Simple_RL/Stimuli/Fractals_stims/D.jpg,1.0,80.0,20.0,100.0,20.0,C,D,136.559,0.559,0.0,
293,,rl_choice_confirmation,,html-keyboard-response,293,212147,0.0-1.0-451.0-0.0,0,0,65,,,,,,64.0,,2.0,,,,,,,,,,,,,,,,,,,,137.5,0.941,,
294,,isi,,html-keyboard-response,294,212250,0.0-1.0-453.0,0,0,65,,,,,,64.0,,2.0,,,,,,,,,,,,,,,,,,,,138.5,1.0,,
295,,feedback,,html-keyboard-response,295,213253,0.0-1.0-454.0-0.0,0,0,65,,,,,,64.0,,2.0,,,,,,,,,,,,,,,,,,,,139.5,1.0,,
296,,iti,,html-keyboard-response,296,213356,0.0-1.0-455.0,0,0,65,,,,,,64.0,,2.0,,,,,,,,,,,,,,,,,,,,141.5,2.0,,
297,,rl_choice,,html-keyboard-response,297,214271,0.0-1.0-457.0,0,0,65,,913.0,,,50.0,65.0,65.0,2.0,hard,2000.0,1500.0,1.0,60.0,40.0,60.0,40.0,A,B,/static/Simple_RL/Stimuli/Fractals_stims/A.jpg,/static/Simple_RL/Stimuli/Fractals_stims/B.jpg,1.0,60.0,40.0,60.0,40.0,A,B,142.413,0.913,0.0,
298,,rl_choice_confirmation,,html-keyboard-response,298,214860,0.0-1.0-458.0-0.0,0,0,65,,,,,,65.0,,2.0,,,,,,,,,,,,,,,,,,,,143.0,0.587,,
299,,isi,,html-keyboard-response,299,214961,0.0-1.0-460.0,0,0,65,,,,,,65.0,,2.0,,,,,,,,,,,,,,,,,,,,144.5,1.5,,
300,,feedback,,html-keyboard-response,300,215964,0.0-1.0-461.0-0.0,0,0,65,,,,,,65.0,,2.0,,,,,,,,,,,,,,,,,,,,145.5,1.0,,
301,,iti,,html-keyboard-response,301,216066,0.0-1.0-462.0,0,0,65,,,,,,65.0,,2.0,,,,,,,,,,,,,,,,,,,,147.5,2.0,,
302,,rl_choice,,html-keyboard-response,302,216360,0.0-1.0-464.0,0,0,65,,293.0,,,50.0,66.0,66.0,2.0,hard,3000.0,1000.0,1.0,60.0,40.0,60.0,20.0,A,B,/static/Simple_RL/Stimuli/Fractals_stims/A.jpg,/static/Simple_RL/Stimuli/Fractals_stims/B.jpg,1.0,60.0,40.0,60.0,20.0,A,B,147.793,0.293,0.0,
303,,rl_choice_confirmation,,html-keyboard-response,303,217569,0.0-1.0-465.0-0.0,0,0,65,,,,,,66.0,,2.0,,,,,,,,,,,,,,,,,,,,149.0,1.207,,
304,,isi,,html-keyboard-response,304,217671,0.0-1.0-467.0,0,0,65,,,,,,66.0,,2.0,,,,,,,,,,,,,,,,,,,,150.0,1.0,,
305,,feedback,,html-keyboard-response,305,218672,0.0-1.0-468.0-0.0,0,0,65,,,,,,66.0,,2.0,,,,,,,,,,,,,,,,,,,,151.0,1.0,,
306,,iti,,html-keyboard-response,306,218774,0.0-1.0-469.0,0,0,65,,,,,,66.0,,2.0,,,,,,,,,,,,,,,,,,,,154.0,3.0,,
307,,rl_choice,,html-keyboard-response,307,219090,0.0-1.0-471.0,0,0,65,,314.0,,,50.0,67.0,67.0,2.0,easy,3500.0,2000.0,1.0,80.0,20.0,60.0,40.0,C,D,/static/Simple_RL/Stimuli/Fractals_stims/C.jpg,/static/Simple_RL/Stimuli/Fractals_stims/D.jpg,1.0,80.0,20.0,60.0,40.0,C,D,154.314,0.314,0.0,
308,,rl_choice_confirmation,,html-keyboard-response,308,220277,0.0-1.0-472.0-0.0,0,0,65,,,,,,67.0,,2.0,,,,,,,,,,,,,,,,,,,,155.5,1.186,,
309,,isi,,html-keyboard-response,309,220381,0.0-1.0-474.0,0,0,65,,,,,,67.0,,2.0,,,,,,,,,,,,,,,,,,,,157.5,2.0,,
310,,feedback,,html-keyboard-response,310,221383,0.0-1.0-475.0-0.0,0,0,65,,,,,,67.0,,2.0,,,,,,,,,,,,,,,,,,,,158.5,1.0,,
311,,iti,,html-keyboard-response,311,221486,0.0-1.0-476.0,0,0,65,,,,,,67.0,,2.0,,,,,,,,,,,,,,,,,,,,162.0,3.5,,
312,,rl_choice,,html-keyboard-response,312,221559,0.0-1.0-478.0,0,0,65,,72.0,,,50.0,68.0,68.0,2.0,easy,3000.0,2000.0,0.0,20.0,80.0,40.0,80.0,D,C,/static/Simple_RL/Stimuli/Fractals_stims/D.jpg,/static/Simple_RL/Stimuli/Fractals_stims/C.jpg,1.0,20.0,80.0,40.0,80.0,D,C,162.072,0.072,0.0,
313,,rl_choice_confirmation,,html-keyboard-response,313,222989,0.0-1.0-479.0-0.0,0,0,65,,,,,,68.0,,2.0,,,,,,,,,,,,,,,,,,,,163.5,1.428,,
314,,isi,,html-keyboard-response,314,223091,0.0-1.0-481.0,0,0,65,,,,,,68.0,,2.0,,,,,,,,,,,,,,,,,,,,165.5,2.0,,
315,,feedback,,html-keyboard-response,315,224094,0.0-1.0-482.0-0.0,0,0,65,,,,,,68.0,,2.0,,,,,,,,,,,,,,,,,,,,166.5,1.0,,
316,,iti,,html-keyboard-response,316,224195,0.0-1.0-483.0,0,0,65,,,,,,68.0,,2.0,,,,,,,,,,,,,,,,,,,,169.5,3.0,,
317,,rl_choice,,html-keyboard-response,317,225225,0.0-1.0-485.0,0,0,65,,1029.0,,,50.0,69.0,69.0,2.0,hard,2000.0,1000.0,1.0,60.0,40.0,40.0,60.0,A,B,/static/Simple_RL/Stimuli/Fractals_stims/A.jpg,/static/Simple_RL/Stimuli/Fractals_stims/B.jpg,1.0,60.0,40.0,40.0,60.0,A,B,170.529,1.029,0.0,
318,,rl_choice_confirmation,,html-keyboard-response,318,225699,0.0-1.0-486.0-0.0,0,0,65,,,,,,69.0,,2.0,,,,,,,,,,,,,,,,,,,,171.0,0.471,,
319,,isi,,html-keyboard-response,319,225801,0.0-1.0-488.0,0,0,65,,,,,,69.0,,2.0,,,,,,,,,,,,,,,,,,,,172.0,1.0,,
320,,feedback,,html-keyboard-response,320,226803,0.0-1.0-489.0-0.0,0,0,65,,,,,,69.0,,2.0,,,,,,,,,,,,,,,,,,,,173.0,1.0,,
321,,iti,,html-keyboard-response,321,226906,0.0-1.0-490.0,0,0,65,,,,,,69.0,,2.0,,,,,,,,,,,,,,,,,,,,175.0,2.0,,
322,,rl_choice,,html-keyboard-response,322,227818,0.0-1.0-492.0,0,0,65,,911.0,,,50.0,70.0,70.0,2.0,hard,1000.0,3500.0,1.0,60.0,40.0,80.0,40.0,A,B,/static/Simple_RL/Stimuli/Fractals_stims/A.jpg,/static/Simple_RL/Stimuli/Fractals_stims/B.jpg,1.0,60.0,40.0,80.0,40.0,A,B,175.911,0.911,0.0,
323,,rl_choice_confirmation,,html-keyboard-response,323,228409,0.0-1.0-493.0-0.0,0,0,65,,,,,,70.0,,2.0,,,,,,,,,,,,,,,,,,,,176.5,0.589,,
324,,isi,,html-keyboard-response,324,228512,0.0-1.0-495.0,0,0,65,,,,,,70.0,,2.0,,,,,,,,,,,,,,,,,,,,180.0,3.5,,
325,,feedback,,html-keyboard-response,325,229514,0.0-1.0-496.0-0.0,0,0,65,,,,,,70.0,,2.0,,,,,,,,,,,,,,,,,,,,181.0,1.0,,
326,,iti,,html-keyboard-response,326,229617,0.0-1.0-497.0,0,0,65,,,,,,70.0,,2.0,,,,,,,,,,,,,,,,,,,,182.0,1.0,,
327,,rl_choice,,html-keyboard-response,327,229695,0.0-1.0-499.0,0,0,65,,76.0,,,50.0,71.0,71.0,2.0,hard,1000.0,1500.0,1.0,60.0,40.0,40.0,40.0,A,B,/static/Simple_RL/Stimuli/Fractals_stims/A.jpg,/static/Simple_RL/Stimuli/Fractals_stims/B.jpg,1.0,60.0,40.0,40.0,40.0,A,B,182.076,0.076,0.0,
328,,rl_choice_confirmation,,html-keyboard-response,328,231120,0.0-1.0-500.0-0.0,0,0,65,,,,,,71.0,,2.0,,,,,,,,,,,,,,,,,,,,183.5,1.424,,
329,,isi,,html-keyboard-response,329,231221,0.0-1.0-502.0,0,0,65,,,,,,71.0,,2.0,,,,,,,,,,,,,,,,,,,,185.0,1.5,,
330,,feedback,,html-keyboard-response,330,232223,0.0-1.0-503.0-0.0,0,0,65,,,,,,71.0,,2.0,,,,,,,,,,,,,,,,,,,,186.0,1.0,,
331,,iti,,html-keyboard-response,331,232325,0.0-1.0-504.0,0,0,65,,,,,,71.0,,2.0,,,,,,,,,,,,,,,,,,,,187.0,1.0,,
332,,rl_choice,,html-keyboard-response,332,232522,0.0-1.0-506.0,0,0,65,,196.0,,,50.0,72.0,72.0,2.0,easy,1000.0,1500.0,0.0,20.0,80.0,0.0,80.0,D,C,/static/Simple_RL/Stimuli/Fractals_stims/D.jpg,/static/Simple_RL/Stimuli/Fractals_stims/C.jpg,1.0,20.0,80.0,0.0,80.0,D,C,187.196,0.196,0.0,
333,,rl_choice_confirmation,,html-keyboard-response,333,233828,0.0-1.0-507.0-0.0,0,0,65,,,,,,72.0,,2.0,,,,,,,,,,,,,,,,,,,,188.5,1.304,,
334,,isi,,html-keyboard-response,334,233934,0.0-1.0-509.0,0,0,65,,,,,,72.0,,2.0,,,,,,,,,,,,,,,,,,,,190.0,1.5,,
335,,feedback,,html-keyboard-response,335,234937,0.0-1.0-510.0-0.0,0,0,65,,,,,,72.0,,2.0,,,,,,,,,,,,,,,,,,,,191.0,1.0,,
336,,iti,,html-keyboard-response,336,235038,0.0-1.0-511.0,0,0,65,,,,,,72.0,,2.0,,,,,,,,,,,,,,,,,,,,192.0,1.0,,
337,,rl_choice,,html-keyboard-response,337,235316,0.0-1.0-513.0,0,0,65,,275.0,,,50.0,73.0,73.0,2.0,easy,1000.0,3000.0,1.0,80.0,20.0,60.0,0.0,C,D,/static/Simple_RL/Stimuli/Fractals_stims/C.jpg,/static/Simple_RL/Stimuli/Fractals_stims/D.jpg,1.0,80.0,20.0,60.0,0.0,C,D,192.275,0.275,0.0,
338,,rl_choice_confirmation,,html-keyboard-response,338,236542,0.0-1.0-514.0-0.0,0,0,65,,,,,,73.0,,2.0,,,,,,,,,,,,,,,,,,,,193.5,1.225,,
339,,isi,,html-keyboard-response,339,236644,0.0-1.0-516.0,0,0,65,,,,,,73.0,,2.0,,,,,,,,,,,,,,,,,,,,196.5,3.0,,
340,,feedback,,html-keyboard-response,340,237647,0.0-1.0-517.0-0.0,0,0,65,,,,,,73.0,,2.0,,,,,,,,,,,,,,,,,,,,197.5,1.0,,
341,,iti,,html-keyboard-response,341,237749,0.0-1.0-518.0,0,0,65,,,,,,73.0,,2.0,,,,,,,,,,,,,,,,,,,,198.5,1.0,,
342,,rl_choice,,html-keyboard-response,342,238371,0.0-1.0-520.0,0,0,65,,620.0,,,50.0,74.0,74.0,2.0,hard,3500.0,2000.0,1.0,60.0,40.0,60.0,60.0,A,B,/static/Simple_RL/Stimuli/Fractals_stims/A.jpg,/static/Simple_RL/Stimuli/Fractals_stims/B.jpg,1.0,60.0,40.0,60.0,60.0,A,B,199.12,0.62,0.0,
343,,rl_choice_confirmation,,html-keyboard-response,343,239252,0.0-1.0-521.0-0.0,0,0,65,,,,,,74.0,,2.0,,,,,,,,,,,,,,,,,,,,200.0,0.88,,
344,,isi,,html-keyboard-response,344,239354,0.0-1.0-523.0,0,0,65,,,,,,74.0,,2.0,,,,,,,,,,,,,,,,,,,,202.0,2.0,,
345,,feedback,,html-keyboard-response,345,240356,0.0-1.0-524.0-0.0,0,0,65,,,,,,74.0,,2.0,,,,,,,,,,,,,,,,,,,,203.0,1.0,,
346,,iti,,html-keyboard-response,346,240457,0.0-1.0-525.0,0,0,65,,,,,,74.0,,2.0,,,,,,,,,,,,,,,,,,,,206.5,3.5,,
347,,rl_choice,,html-keyboard-response,347,240679,0.0-1.0-527.0,0,0,65,,220.0,,,50.0,75.0,75.0,2.0,hard,1500.0,3000.0,0.0,40.0,60.0,60.0,80.0,B,A,/static/Simple_RL/Stimuli/Fractals_stims/B.jpg,/static/Simple_RL/Stimuli/Fractals_stims/A.jpg,1.0,40.0,60.0,60.0,80.0,B,A,206.72,0.22,0.0,
348,,rl_choice_confirmation,,html-keyboard-response,348,241961,0.0-1.0-528.0-0.0,0,0,65,,,,,,75.0,,2.0,,,,,,,,,,,,,,,,,,,,208.0,1.28,,
349,,isi,,html-keyboard-response,349,242063,0.0-1.0-530.0,0,0,65,,,,,,75.0,,2.0,,,,,,,,,,,,,,,,,,,,211.0,3.0,,
350,,feedback,,html-keyboard-response,350,243066,0.0-1.0-531.0-0.0,0,0,65,,,,,,75.0,,2.0,,,,,,,,,,,,,,,,,,,,212.0,1.0,,
351,,iti,,html-keyboard-response,351,243170,0.0-1.0-532.0,0,0,65,,,,,,75.0,,2.0,,,,,,,,,,,,,,,,,,,,213.5,1.5,,
352,,rl_choice,,html-keyboard-response,352,243250,0.0-1.0-534.0,0,0,65,,79.0,,,50.0,76.0,76.0,2.0,easy,1000.0,1000.0,0.0,20.0,80.0,20.0,80.0,D,C,/static/Simple_RL/Stimuli/Fractals_stims/D.jpg,/static/Simple_RL/Stimuli/Fractals_stims/C.jpg,1.0,20.0,80.0,20.0,80.0,D,C,213.579,0.079,0.0,
353,,rl_choice_confirmation,,html-keyboard-response,353,244673,0.0-1.0-535.0-0.0,0,0,65,,,,,,76.0,,2.0,,,,,,,,,,,,,,,,,,,,215.0,1.421,,
354,,isi,,html-keyboard-response,354,244776,0.0-1.0-537.0,0,0,65,,,,,,76.0,,2.0,,,,,,,,,,,,,,,,,,,,216.0,1.0,,
355,,feedback,,html-keyboard-response,355,245778,0.0-1.0-538.0-0.0,0,0,65,,,,,,76.0,,2.0,,,,,,,,,,,,,,,,,,,,217.0,1.0,,
356,,iti,,html-keyboard-response,356,245881,0.0-1.0-539.0,0,0,65,,,,,,76.0,,2.0,,,,,,,,,,,,,,,,,,,,218.0,1.0,,
357,,rl_choice,,html-keyboard-response,357,246161,0.0-1.0-541.0,0,0,65,,278.0,,,50.0,77.0,77.0,2.0,hard,1000.0,1000.0,0.0,40.0,60.0,60.0,40.0,B,A,/static/Simple_RL/Stimuli/Fractals_stims/B.jpg,/static/Simple_RL/Stimuli/Fractals_stims/A.jpg,1.0,40.0,60.0,60.0,40.0,B,A,218.278,0.278,0.0,
358,,rl_choice_confirmation,,html-keyboard-response,358,247384,0.0-1.0-542.0-0.0,0,0,65,,,,,,77.0,,2.0,,,,,,,,,,,,,,,,,,,,219.5,1.222,,
359,,isi,,html-keyboard-response,359,247487,0.0-1.0-544.0,0,0,65,,,,,,77.0,,2.0,,,,,,,,,,,,,,,,,,,,220.5,1.0,,
360,,feedback,,html-keyboard-response,360,248490,0.0-1.0-545.0-0.0,0,0,65,,,,,,77.0,,2.0,,,,,,,,,,,,,,,,,,,,221.5,1.0,,
361,,iti,,html-keyboard-response,361,248592,0.0-1.0-546.0,0,0,65,,,,,,77.0,,2.0,,,,,,,,,,,,,,,,,,,,222.5,1.0,,
362,,rl_choice,,html-keyboard-response,362,249361,0.0-1.0-548.0,0,0,65,,767.0,,,50.0,78.0,78.0,2.0,easy,1000.0,1500.0,1.0,80.0,20.0,80.0,0.0,C,D,/static/Simple_RL/Stimuli/Fractals_stims/C.jpg,/static/Simple_RL/Stimuli/Fractals_stims/D.jpg,1.0,80.0,20.0,80.0,0.0,C,D,223.267,0.767,0.0,
363,,rl_choice_confirmation,,html-keyboard-response,363,250095,0.0-1.0-549.0-0.0,0,0,65,,,,,,78.0,,2.0,,,,,,,,,,,,,,,,,,,,224.0,0.733,,
364,,isi,,html-keyboard-response,364,250200,0.0-1.0-551.0,0,0,65,,,,,,78.0,,2.0,,,,,,,,,,,,,,,,,,,,225.5,1.5,,
365,,feedback,,html-keyboard-response,365,251202,0.0-1.0-552.0-0.0,0,0,65,,,,,,78.0,,2.0,,,,,,,,,,,,,,,,,,,,226.5,1.0,,
366,,iti,,html-keyboard-response,366,251304,0.0-1.0-553.0,0,0,65,,,,,,78.0,,2.0,,,,,,,,,,,,,,,,,,,,227.5,1.0,,
367,,rl_choice,,html-keyboard-response,367,251306,0.0-1.0-555.0,0,0,65,,1.0,,,50.0,79.0,79.0,2.0,easy,1000.0,1000.0,0.0,20.0,80.0,0.0,100.0,D,C,/static/Simple_RL/Stimuli/Fractals_stims/D.jpg,/static/Simple_RL/Stimuli/Fractals_stims/C.jpg,1.0,20.0,80.0,0.0,100.0,D,C,227.501,0.001,0.0,
368,,rl_choice_confirmation,,html-keyboard-response,368,252808,0.0-1.0-556.0-0.0,0,0,65,,,,,,79.0,,2.0,,,,,,,,,,,,,,,,,,,,229.0,1.499,,
369,,isi,,html-keyboard-response,369,252911,0.0-1.0-558.0,0,0,65,,,,,,79.0,,2.0,,,,,,,,,,,,,,,,,,,,230.0,1.0,,
370,,feedback,,html-keyboard-response,370,253913,0.0-1.0-559.0-0.0,0,0,65,,,,,,79.0,,2.0,,,,,,,,,,,,,,,,,,,,231.0,1.0,,
371,,iti,,html-keyboard-response,371,254016,0.0-1.0-560.0,0,0,65,,,,,,79.0,,2.0,,,,,,,,,,,,,,,,,,,,232.0,1.0,,0.42
372,,final_tally,,html-keyboard-response,372,254176,0.0-2.0,0,0,65,,157.0,,,50.0,,,,,,,,,,,,,,,,,,,,,,,,,,
