,success,ttype,start_time,trial_type,trial_index,time_elapsed,internal_node_id,warning,missed_checkup,PID,view_history,rt,responses,repeat_instructions,key_press,index,trial_num,block,condition,iti,isi,high_group_on_left,left_group_value,right_group_value,left_item_value,right_item_value,left_img,right_img,left_img_path,right_img_path,left_chosen,chosen_group_value,unchosen_group_value,chosen_item_value,unchosen_item_value,chosen_img,unchosen_img,onset,duration,no_response,total_bonus_tally
0,True,full_screen,d06022022hr0118,fullscreen,0,80119,0.0-0.0,0,0,12,,,,,,,,,,,,,,,,,,,,,,,,,,,,,,,
1,,size_instructions,,instructions,1,83237,0.0-1.0-0.0-0.0,0,0,12,"[{""page_index"":0,""viewing_time"":1787},{""page_index"":1,""viewing_time"":489},{""page_index"":2,""viewing_time"":378},{""page_index"":3,""viewing_time"":173},{""page_index"":4,""viewing_time"":139},{""page_index"":5,""viewing_time"":150}]",3116.0,,,,,,,,,,,,,,,,,,,,,,,,,,,,,
2,,rl_comprehension_check,,survey-multi-choice,2,111917,0.0-1.0-0.0-1.0,0,0,12,,28677.0,"{""Q0"":""True"",""Q1"":""True"",""Q2"":""pointer finger for left and middle finger for right""}",0.0,,,,,,,,,,,,,,,,,,,,,,,,,,,
3,,,,html-keyboard-response,3,113212,0.0-1.0-1.0,0,0,12,,1292.0,,,50.0,,,,,,,,,,,,,,,,,,,,,,,,,,
4,,rl_choice,,html-keyboard-response,4,114184,0.0-1.0-2.0,0,0,12,,970.0,,,51.0,0.0,0.0,1.0,hard,1000.0,2000.0,0.0,40.0,60.0,20.0,60.0,C,D,/static/Simple_RL/Stimuli/Fractals_stims/C.jpg,/static/Simple_RL/Stimuli/Fractals_stims/D.jpg,0.0,60.0,40.0,60.0,20.0,D,C,0.97,0.97,0.0,
5,,rl_choice_confirmation,,html-keyboard-response,5,114720,0.0-1.0-3.0-0.0,0,0,12,,,,,,0.0,,,,,,,,,,,,,,,,,,,,,,1.5,0.53,,
6,,isi,,html-keyboard-response,6,114823,0.0-1.0-5.0,0,0,12,,,,,,,,,,,,,,,,,,,,,,,,,,,,3.5,2.0,,
7,,feedback,,html-keyboard-response,7,115829,0.0-1.0-6.0-0.0,0,0,12,,,,,,0.0,,,,,,,,,,,,,,,,,,,,,,4.5,1.0,,
8,,iti,,html-keyboard-response,8,115930,0.0-1.0-7.0,0,0,12,,,,,,,,,,,,,,,,,,,,,,,,,,,,5.5,1.0,,
9,,rl_choice,,html-keyboard-response,9,116115,0.0-1.0-9.0,0,0,12,,183.0,,,50.0,1.0,1.0,1.0,easy,1000.0,3000.0,1.0,80.0,20.0,100.0,40.0,B,A,/static/Simple_RL/Stimuli/Fractals_stims/B.jpg,/static/Simple_RL/Stimuli/Fractals_stims/A.jpg,1.0,80.0,20.0,100.0,40.0,B,A,5.683,0.183,0.0,
10,,rl_choice_confirmation,,html-keyboard-response,10,117435,0.0-1.0-10.0-0.0,0,0,12,,,,,,1.0,,,,,,,,,,,,,,,,,,,,,,7.0,1.317,,
11,,isi,,html-keyboard-response,11,117540,0.0-1.0-12.0,0,0,12,,,,,,,,,,,,,,,,,,,,,,,,,,,,10.0,3.0,,
12,,feedback,,html-keyboard-response,12,118546,0.0-1.0-13.0-0.0,0,0,12,,,,,,1.0,,,,,,,,,,,,,,,,,,,,,,11.0,1.0,,
13,,iti,,html-keyboard-response,13,118652,0.0-1.0-14.0,0,0,12,,,,,,,,,,,,,,,,,,,,,,,,,,,,12.0,1.0,,
14,,rl_choice,,html-keyboard-response,14,120158,0.0-1.0-16.0,0,0,12,,,,,,2.0,2.0,1.0,hard,3000.0,1000.0,0.0,40.0,60.0,20.0,80.0,C,D,/static/Simple_RL/Stimuli/Fractals_stims/C.jpg,/static/Simple_RL/Stimuli/Fractals_stims/D.jpg,,,,,,,,13.5,1.5,1.0,
15,,rl_choice_warning,,html-keyboard-response,15,121162,0.0-1.0-18.0-0.0,0,0,12,,,,,,,,,,,,,,,,,,,,,,,,,,,,14.5,1.0,,
16,,isi,,html-keyboard-response,16,121266,0.0-1.0-19.0,0,0,12,,,,,,,,,,,,,,,,,,,,,,,,,,,,15.5,1.0,,
17,,iti,,html-keyboard-response,17,121368,0.0-1.0-21.0,0,0,12,,,,,,,,,,,,,,,,,,,,,,,,,,,,18.5,3.0,,
18,,rl_choice,,html-keyboard-response,18,122869,0.0-1.0-23.0,0,0,12,,,,,,3.0,3.0,1.0,hard,1000.0,3500.0,0.0,40.0,60.0,60.0,60.0,C,D,/static/Simple_RL/Stimuli/Fractals_stims/C.jpg,/static/Simple_RL/Stimuli/Fractals_stims/D.jpg,,,,,,,,20.0,1.5,1.0,
19,,rl_choice_warning,,html-keyboard-response,19,123872,0.0-1.0-25.0-0.0,0,0,12,,,,,,,,,,,,,,,,,,,,,,,,,,,,21.0,1.0,,
20,,isi,,html-keyboard-response,20,123975,0.0-1.0-26.0,0,0,12,,,,,,,,,,,,,,,,,,,,,,,,,,,,24.5,3.5,,
21,,iti,,html-keyboard-response,21,124080,0.0-1.0-28.0,0,0,12,,,,,,,,,,,,,,,,,,,,,,,,,,,,25.5,1.0,,
22,,rl_choice,,html-keyboard-response,22,125584,0.0-1.0-30.0,0,0,12,,,,,,4.0,4.0,1.0,hard,1500.0,3000.0,0.0,40.0,60.0,20.0,60.0,C,D,/static/Simple_RL/Stimuli/Fractals_stims/C.jpg,/static/Simple_RL/Stimuli/Fractals_stims/D.jpg,,,,,,,,27.0,1.5,1.0,
23,,rl_choice_warning,,html-keyboard-response,23,126586,0.0-1.0-32.0-0.0,0,0,12,,,,,,,,,,,,,,,,,,,,,,,,,,,,28.0,1.0,,
24,,isi,,html-keyboard-response,24,126688,0.0-1.0-33.0,0,0,12,,,,,,,,,,,,,,,,,,,,,,,,,,,,31.0,3.0,,
25,,iti,,html-keyboard-response,25,126789,0.0-1.0-35.0,0,0,12,,,,,,,,,,,,,,,,,,,,,,,,,,,,32.5,1.5,,
26,,rl_choice,,html-keyboard-response,26,128293,0.0-1.0-37.0,0,0,12,,,,,,5.0,5.0,1.0,easy,2000.0,2000.0,0.0,20.0,80.0,20.0,100.0,A,B,/static/Simple_RL/Stimuli/Fractals_stims/A.jpg,/static/Simple_RL/Stimuli/Fractals_stims/B.jpg,,,,,,,,34.0,1.5,1.0,
27,,rl_choice_warning,,html-keyboard-response,27,129296,0.0-1.0-39.0-0.0,0,0,12,,,,,,,,,,,,,,,,,,,,,,,,,,,,35.0,1.0,,
28,,isi,,html-keyboard-response,28,129399,0.0-1.0-40.0,0,0,12,,,,,,,,,,,,,,,,,,,,,,,,,,,,37.0,2.0,,
29,,iti,,html-keyboard-response,29,129501,0.0-1.0-42.0,0,0,12,,,,,,,,,,,,,,,,,,,,,,,,,,,,39.0,2.0,,
30,,rl_choice,,html-keyboard-response,30,131005,0.0-1.0-44.0,0,0,12,,,,,,6.0,6.0,1.0,hard,1000.0,1000.0,0.0,40.0,60.0,40.0,80.0,C,D,/static/Simple_RL/Stimuli/Fractals_stims/C.jpg,/static/Simple_RL/Stimuli/Fractals_stims/D.jpg,,,,,,,,40.5,1.5,1.0,
31,,rl_choice_warning,,html-keyboard-response,31,132008,0.0-1.0-46.0-0.0,0,0,12,,,,,,,,,,,,,,,,,,,,,,,,,,,,41.5,1.0,,
32,,isi,,html-keyboard-response,32,132109,0.0-1.0-47.0,0,0,12,,,,,,,,,,,,,,,,,,,,,,,,,,,,42.5,1.0,,
33,,iti,,html-keyboard-response,33,132213,0.0-1.0-49.0,0,0,12,,,,,,,,,,,,,,,,,,,,,,,,,,,,43.5,1.0,,
34,,rl_choice,,html-keyboard-response,34,133717,0.0-1.0-51.0,0,0,12,,,,,,7.0,7.0,1.0,hard,1500.0,1000.0,0.0,40.0,60.0,60.0,80.0,C,D,/static/Simple_RL/Stimuli/Fractals_stims/C.jpg,/static/Simple_RL/Stimuli/Fractals_stims/D.jpg,,,,,,,,45.0,1.5,1.0,
35,,rl_choice_warning,,html-keyboard-response,35,134720,0.0-1.0-53.0-0.0,0,0,12,,,,,,,,,,,,,,,,,,,,,,,,,,,,46.0,1.0,,
36,,isi,,html-keyboard-response,36,134824,0.0-1.0-54.0,0,0,12,,,,,,,,,,,,,,,,,,,,,,,,,,,,47.0,1.0,,
37,,iti,,html-keyboard-response,37,134925,0.0-1.0-56.0,0,0,12,,,,,,,,,,,,,,,,,,,,,,,,,,,,48.5,1.5,,
38,,rl_choice,,html-keyboard-response,38,136261,0.0-1.0-58.0,0,0,12,,1326.0,,,50.0,8.0,8.0,1.0,easy,1500.0,2000.0,0.0,20.0,80.0,0.0,100.0,A,B,/static/Simple_RL/Stimuli/Fractals_stims/A.jpg,/static/Simple_RL/Stimuli/Fractals_stims/B.jpg,1.0,20.0,80.0,0.0,100.0,A,B,49.826,1.326,0.0,
39,,rl_choice_confirmation,,html-keyboard-response,39,136440,0.0-1.0-59.0-0.0,0,0,12,,,,,,8.0,,,,,,,,,,,,,,,,,,,,,,50.0,0.174,,
40,,isi,,html-keyboard-response,40,136544,0.0-1.0-61.0,0,0,12,,,,,,,,,,,,,,,,,,,,,,,,,,,,52.0,2.0,,
41,,feedback,,html-keyboard-response,41,137546,0.0-1.0-62.0-0.0,0,0,12,,,,,,8.0,,,,,,,,,,,,,,,,,,,,,,53.0,1.0,,
42,,iti,,html-keyboard-response,42,137648,0.0-1.0-63.0,0,0,12,,,,,,,,,,,,,,,,,,,,,,,,,,,,54.5,1.5,,
43,,rl_choice,,html-keyboard-response,43,137691,0.0-1.0-65.0,0,0,12,,42.0,,,51.0,9.0,9.0,1.0,easy,2000.0,1000.0,1.0,80.0,20.0,60.0,0.0,B,A,/static/Simple_RL/Stimuli/Fractals_stims/B.jpg,/static/Simple_RL/Stimuli/Fractals_stims/A.jpg,0.0,20.0,80.0,0.0,60.0,A,B,54.542,0.042,0.0,
44,,rl_choice_confirmation,,html-keyboard-response,44,139152,0.0-1.0-66.0-0.0,0,0,12,,,,,,9.0,,,,,,,,,,,,,,,,,,,,,,56.0,1.458,,
45,,isi,,html-keyboard-response,45,139254,0.0-1.0-68.0,0,0,12,,,,,,,,,,,,,,,,,,,,,,,,,,,,57.0,1.0,,
46,,feedback,,html-keyboard-response,46,140258,0.0-1.0-69.0-0.0,0,0,12,,,,,,9.0,,,,,,,,,,,,,,,,,,,,,,58.0,1.0,,
47,,iti,,html-keyboard-response,47,140360,0.0-1.0-70.0,0,0,12,,,,,,,,,,,,,,,,,,,,,,,,,,,,60.0,2.0,,
48,,rl_choice,,html-keyboard-response,48,140491,0.0-1.0-72.0,0,0,12,,130.0,,,50.0,10.0,10.0,1.0,hard,1000.0,1000.0,1.0,60.0,40.0,40.0,40.0,D,C,/static/Simple_RL/Stimuli/Fractals_stims/D.jpg,/static/Simple_RL/Stimuli/Fractals_stims/C.jpg,1.0,60.0,40.0,40.0,40.0,D,C,60.13,0.13,0.0,
49,,rl_choice_confirmation,,html-keyboard-response,49,141864,0.0-1.0-73.0-0.0,0,0,12,,,,,,10.0,,,,,,,,,,,,,,,,,,,,,,61.5,1.37,,
50,,isi,,html-keyboard-response,50,141965,0.0-1.0-75.0,0,0,12,,,,,,,,,,,,,,,,,,,,,,,,,,,,62.5,1.0,,
51,,feedback,,html-keyboard-response,51,142968,0.0-1.0-76.0-0.0,0,0,12,,,,,,10.0,,,,,,,,,,,,,,,,,,,,,,63.5,1.0,,
52,,iti,,html-keyboard-response,52,143069,0.0-1.0-77.0,0,0,12,,,,,,,,,,,,,,,,,,,,,,,,,,,,64.5,1.0,,
53,,rl_choice,,html-keyboard-response,53,144573,0.0-1.0-79.0,0,0,12,,,,,,11.0,11.0,1.0,easy,1000.0,3000.0,0.0,20.0,80.0,20.0,60.0,A,B,/static/Simple_RL/Stimuli/Fractals_stims/A.jpg,/static/Simple_RL/Stimuli/Fractals_stims/B.jpg,,,,,,,,66.0,1.5,1.0,
54,,rl_choice_warning,,html-keyboard-response,54,145578,0.0-1.0-81.0-0.0,0,0,12,,,,,,,,,,,,,,,,,,,,,,,,,,,,67.0,1.0,,
55,,isi,,html-keyboard-response,55,145683,0.0-1.0-82.0,0,0,12,,,,,,,,,,,,,,,,,,,,,,,,,,,,70.0,3.0,,
56,,iti,,html-keyboard-response,56,145788,0.0-1.0-84.0,0,0,12,,,,,,,,,,,,,,,,,,,,,,,,,,,,71.0,1.0,,
57,,rl_choice,,html-keyboard-response,57,145983,0.0-1.0-86.0,0,0,12,,194.0,,,50.0,12.0,12.0,1.0,easy,3000.0,1500.0,0.0,20.0,80.0,20.0,80.0,A,B,/static/Simple_RL/Stimuli/Fractals_stims/A.jpg,/static/Simple_RL/Stimuli/Fractals_stims/B.jpg,1.0,20.0,80.0,20.0,80.0,A,B,71.194,0.194,0.0,
58,,rl_choice_confirmation,,html-keyboard-response,58,147291,0.0-1.0-87.0-0.0,0,0,12,,,,,,12.0,,,,,,,,,,,,,,,,,,,,,,72.5,1.306,,
59,,isi,,html-keyboard-response,59,147394,0.0-1.0-89.0,0,0,12,,,,,,,,,,,,,,,,,,,,,,,,,,,,74.0,1.5,,
60,,feedback,,html-keyboard-response,60,148400,0.0-1.0-90.0-0.0,0,0,12,,,,,,12.0,,,,,,,,,,,,,,,,,,,,,,75.0,1.0,,
61,,iti,,html-keyboard-response,61,148504,0.0-1.0-91.0,0,0,12,,,,,,,,,,,,,,,,,,,,,,,,,,,,78.0,3.0,,
62,,rl_choice,,html-keyboard-response,62,148760,0.0-1.0-93.0,0,0,12,,255.0,,,51.0,13.0,13.0,1.0,hard,1000.0,2000.0,0.0,40.0,60.0,40.0,80.0,C,D,/static/Simple_RL/Stimuli/Fractals_stims/C.jpg,/static/Simple_RL/Stimuli/Fractals_stims/D.jpg,0.0,60.0,40.0,80.0,40.0,D,C,78.255,0.255,0.0,
63,,rl_choice_confirmation,,html-keyboard-response,63,150008,0.0-1.0-94.0-0.0,0,0,12,,,,,,13.0,,,,,,,,,,,,,,,,,,,,,,79.5,1.245,,
64,,isi,,html-keyboard-response,64,150109,0.0-1.0-96.0,0,0,12,,,,,,,,,,,,,,,,,,,,,,,,,,,,81.5,2.0,,
65,,feedback,,html-keyboard-response,65,151114,0.0-1.0-97.0-0.0,0,0,12,,,,,,13.0,,,,,,,,,,,,,,,,,,,,,,82.5,1.0,,
66,,iti,,html-keyboard-response,66,151218,0.0-1.0-98.0,0,0,12,,,,,,,,,,,,,,,,,,,,,,,,,,,,83.5,1.0,,
67,,rl_choice,,html-keyboard-response,67,151703,0.0-1.0-100.0,0,0,12,,484.0,,,51.0,14.0,14.0,1.0,easy,1500.0,1500.0,0.0,20.0,80.0,20.0,80.0,A,B,/static/Simple_RL/Stimuli/Fractals_stims/A.jpg,/static/Simple_RL/Stimuli/Fractals_stims/B.jpg,0.0,80.0,20.0,80.0,20.0,B,A,83.984,0.484,0.0,
68,,rl_choice_confirmation,,html-keyboard-response,68,152724,0.0-1.0-101.0-0.0,0,0,12,,,,,,14.0,,,,,,,,,,,,,,,,,,,,,,85.0,1.016,,
69,,isi,,html-keyboard-response,69,152827,0.0-1.0-103.0,0,0,12,,,,,,,,,,,,,,,,,,,,,,,,,,,,86.5,1.5,,
70,,feedback,,html-keyboard-response,70,153832,0.0-1.0-104.0-0.0,0,0,12,,,,,,14.0,,,,,,,,,,,,,,,,,,,,,,87.5,1.0,,
71,,iti,,html-keyboard-response,71,153936,0.0-1.0-105.0,0,0,12,,,,,,,,,,,,,,,,,,,,,,,,,,,,89.0,1.5,,
72,,rl_choice,,html-keyboard-response,72,153989,0.0-1.0-107.0,0,0,12,,51.0,,,51.0,15.0,15.0,1.0,hard,1500.0,2000.0,1.0,60.0,40.0,40.0,60.0,D,C,/static/Simple_RL/Stimuli/Fractals_stims/D.jpg,/static/Simple_RL/Stimuli/Fractals_stims/C.jpg,0.0,40.0,60.0,60.0,40.0,C,D,89.051,0.051,0.0,
73,,rl_choice_confirmation,,html-keyboard-response,73,155440,0.0-1.0-108.0-0.0,0,0,12,,,,,,15.0,,,,,,,,,,,,,,,,,,,,,,90.5,1.449,,
74,,isi,,html-keyboard-response,74,155542,0.0-1.0-110.0,0,0,12,,,,,,,,,,,,,,,,,,,,,,,,,,,,92.5,2.0,,
75,,feedback,,html-keyboard-response,75,156548,0.0-1.0-111.0-0.0,0,0,12,,,,,,15.0,,,,,,,,,,,,,,,,,,,,,,93.5,1.0,,
76,,iti,,html-keyboard-response,76,156653,0.0-1.0-112.0,0,0,12,,,,,,,,,,,,,,,,,,,,,,,,,,,,95.0,1.5,,
77,,rl_choice,,html-keyboard-response,77,156709,0.0-1.0-114.0,0,0,12,,55.0,,,50.0,16.0,16.0,1.0,hard,1000.0,1000.0,1.0,60.0,40.0,60.0,60.0,D,C,/static/Simple_RL/Stimuli/Fractals_stims/D.jpg,/static/Simple_RL/Stimuli/Fractals_stims/C.jpg,1.0,60.0,40.0,60.0,60.0,D,C,95.055,0.055,0.0,
78,,rl_choice_confirmation,,html-keyboard-response,78,158157,0.0-1.0-115.0-0.0,0,0,12,,,,,,16.0,,,,,,,,,,,,,,,,,,,,,,96.5,1.445,,
79,,isi,,html-keyboard-response,79,158259,0.0-1.0-117.0,0,0,12,,,,,,,,,,,,,,,,,,,,,,,,,,,,97.5,1.0,,
80,,feedback,,html-keyboard-response,80,159261,0.0-1.0-118.0-0.0,0,0,12,,,,,,16.0,,,,,,,,,,,,,,,,,,,,,,98.5,1.0,,
81,,iti,,html-keyboard-response,81,159367,0.0-1.0-119.0,0,0,12,,,,,,,,,,,,,,,,,,,,,,,,,,,,99.5,1.0,,
82,,rl_choice,,html-keyboard-response,82,159444,0.0-1.0-121.0,0,0,12,,76.0,,,50.0,17.0,17.0,1.0,easy,3000.0,1500.0,1.0,80.0,20.0,60.0,20.0,B,A,/static/Simple_RL/Stimuli/Fractals_stims/B.jpg,/static/Simple_RL/Stimuli/Fractals_stims/A.jpg,1.0,80.0,20.0,60.0,20.0,B,A,99.576,0.076,0.0,
83,,rl_choice_confirmation,,html-keyboard-response,83,160869,0.0-1.0-122.0-0.0,0,0,12,,,,,,17.0,,,,,,,,,,,,,,,,,,,,,,101.0,1.424,,
84,,isi,,html-keyboard-response,84,160971,0.0-1.0-124.0,0,0,12,,,,,,,,,,,,,,,,,,,,,,,,,,,,102.5,1.5,,
85,,feedback,,html-keyboard-response,85,161973,0.0-1.0-125.0-0.0,0,0,12,,,,,,17.0,,,,,,,,,,,,,,,,,,,,,,103.5,1.0,,
86,,iti,,html-keyboard-response,86,162076,0.0-1.0-126.0,0,0,12,,,,,,,,,,,,,,,,,,,,,,,,,,,,106.5,3.0,,
87,,rl_choice,,html-keyboard-response,87,162204,0.0-1.0-128.0,0,0,12,,127.0,,,51.0,18.0,18.0,1.0,hard,3500.0,1500.0,1.0,60.0,40.0,60.0,60.0,D,C,/static/Simple_RL/Stimuli/Fractals_stims/D.jpg,/static/Simple_RL/Stimuli/Fractals_stims/C.jpg,0.0,40.0,60.0,60.0,60.0,C,D,106.627,0.127,0.0,
88,,rl_choice_confirmation,,html-keyboard-response,88,163579,0.0-1.0-129.0-0.0,0,0,12,,,,,,18.0,,,,,,,,,,,,,,,,,,,,,,108.0,1.373,,
89,,isi,,html-keyboard-response,89,163681,0.0-1.0-131.0,0,0,12,,,,,,,,,,,,,,,,,,,,,,,,,,,,109.5,1.5,,
90,,feedback,,html-keyboard-response,90,164683,0.0-1.0-132.0-0.0,0,0,12,,,,,,18.0,,,,,,,,,,,,,,,,,,,,,,110.5,1.0,,
91,,iti,,html-keyboard-response,91,164787,0.0-1.0-133.0,0,0,12,,,,,,,,,,,,,,,,,,,,,,,,,,,,114.0,3.5,,
92,,rl_choice,,html-keyboard-response,92,164809,0.0-1.0-135.0,0,0,12,,21.0,,,51.0,19.0,19.0,1.0,hard,2000.0,1500.0,1.0,60.0,40.0,60.0,20.0,D,C,/static/Simple_RL/Stimuli/Fractals_stims/D.jpg,/static/Simple_RL/Stimuli/Fractals_stims/C.jpg,0.0,40.0,60.0,20.0,60.0,C,D,114.021,0.021,0.0,
93,,rl_choice_confirmation,,html-keyboard-response,93,166290,0.0-1.0-136.0-0.0,0,0,12,,,,,,19.0,,,,,,,,,,,,,,,,,,,,,,115.5,1.479,,
94,,isi,,html-keyboard-response,94,166394,0.0-1.0-138.0,0,0,12,,,,,,,,,,,,,,,,,,,,,,,,,,,,117.0,1.5,,
95,,feedback,,html-keyboard-response,95,167400,0.0-1.0-139.0-0.0,0,0,12,,,,,,19.0,,,,,,,,,,,,,,,,,,,,,,118.0,1.0,,
96,,iti,,html-keyboard-response,96,167505,0.0-1.0-140.0,0,0,12,,,,,,,,,,,,,,,,,,,,,,,,,,,,120.0,2.0,,
97,,rl_choice,,html-keyboard-response,97,167611,0.0-1.0-142.0,0,0,12,,105.0,,,50.0,20.0,20.0,1.0,easy,2000.0,1000.0,1.0,80.0,20.0,80.0,20.0,B,A,/static/Simple_RL/Stimuli/Fractals_stims/B.jpg,/static/Simple_RL/Stimuli/Fractals_stims/A.jpg,1.0,80.0,20.0,80.0,20.0,B,A,120.105,0.105,0.0,
98,,rl_choice_confirmation,,html-keyboard-response,98,169008,0.0-1.0-143.0-0.0,0,0,12,,,,,,20.0,,,,,,,,,,,,,,,,,,,,,,121.5,1.395,,
99,,isi,,html-keyboard-response,99,169109,0.0-1.0-145.0,0,0,12,,,,,,,,,,,,,,,,,,,,,,,,,,,,122.5,1.0,,
100,,feedback,,html-keyboard-response,100,170112,0.0-1.0-146.0-0.0,0,0,12,,,,,,20.0,,,,,,,,,,,,,,,,,,,,,,123.5,1.0,,
101,,iti,,html-keyboard-response,101,170213,0.0-1.0-147.0,0,0,12,,,,,,,,,,,,,,,,,,,,,,,,,,,,125.5,2.0,,
102,,rl_choice,,html-keyboard-response,102,170335,0.0-1.0-149.0,0,0,12,,121.0,,,51.0,21.0,21.0,1.0,easy,1500.0,2000.0,1.0,80.0,20.0,80.0,20.0,B,A,/static/Simple_RL/Stimuli/Fractals_stims/B.jpg,/static/Simple_RL/Stimuli/Fractals_stims/A.jpg,0.0,20.0,80.0,20.0,80.0,A,B,125.621,0.121,0.0,
103,,rl_choice_confirmation,,html-keyboard-response,103,171720,0.0-1.0-150.0-0.0,0,0,12,,,,,,21.0,,,,,,,,,,,,,,,,,,,,,,127.0,1.379,,
104,,isi,,html-keyboard-response,104,171824,0.0-1.0-152.0,0,0,12,,,,,,,,,,,,,,,,,,,,,,,,,,,,129.0,2.0,,
105,,feedback,,html-keyboard-response,105,172829,0.0-1.0-153.0-0.0,0,0,12,,,,,,21.0,,,,,,,,,,,,,,,,,,,,,,130.0,1.0,,
106,,iti,,html-keyboard-response,106,172933,0.0-1.0-154.0,0,0,12,,,,,,,,,,,,,,,,,,,,,,,,,,,,131.5,1.5,,
107,,rl_choice,,html-keyboard-response,107,173018,0.0-1.0-156.0,0,0,12,,84.0,,,50.0,22.0,22.0,1.0,easy,1000.0,1000.0,0.0,20.0,80.0,0.0,100.0,A,B,/static/Simple_RL/Stimuli/Fractals_stims/A.jpg,/static/Simple_RL/Stimuli/Fractals_stims/B.jpg,1.0,20.0,80.0,0.0,100.0,A,B,131.584,0.084,0.0,
108,,rl_choice_confirmation,,html-keyboard-response,108,174437,0.0-1.0-157.0-0.0,0,0,12,,,,,,22.0,,,,,,,,,,,,,,,,,,,,,,133.0,1.416,,
109,,isi,,html-keyboard-response,109,174541,0.0-1.0-159.0,0,0,12,,,,,,,,,,,,,,,,,,,,,,,,,,,,134.0,1.0,,
110,,feedback,,html-keyboard-response,110,175544,0.0-1.0-160.0-0.0,0,0,12,,,,,,22.0,,,,,,,,,,,,,,,,,,,,,,135.0,1.0,,
111,,iti,,html-keyboard-response,111,175645,0.0-1.0-161.0,0,0,12,,,,,,,,,,,,,,,,,,,,,,,,,,,,136.0,1.0,,
112,,rl_choice,,html-keyboard-response,112,175671,0.0-1.0-163.0,0,0,12,,24.0,,,50.0,23.0,23.0,1.0,hard,2000.0,1000.0,1.0,60.0,40.0,80.0,60.0,D,C,/static/Simple_RL/Stimuli/Fractals_stims/D.jpg,/static/Simple_RL/Stimuli/Fractals_stims/C.jpg,1.0,60.0,40.0,80.0,60.0,D,C,136.024,0.024,0.0,
113,,rl_choice_confirmation,,html-keyboard-response,113,177152,0.0-1.0-164.0-0.0,0,0,12,,,,,,23.0,,,,,,,,,,,,,,,,,,,,,,137.5,1.476,,
114,,isi,,html-keyboard-response,114,177258,0.0-1.0-166.0,0,0,12,,,,,,,,,,,,,,,,,,,,,,,,,,,,138.5,1.0,,
115,,feedback,,html-keyboard-response,115,178262,0.0-1.0-167.0-0.0,0,0,12,,,,,,23.0,,,,,,,,,,,,,,,,,,,,,,139.5,1.0,,
116,,iti,,html-keyboard-response,116,178363,0.0-1.0-168.0,0,0,12,,,,,,,,,,,,,,,,,,,,,,,,,,,,141.5,2.0,,
117,,rl_choice,,html-keyboard-response,117,178491,0.0-1.0-170.0,0,0,12,,127.0,,,50.0,24.0,24.0,1.0,hard,1000.0,3000.0,1.0,60.0,40.0,40.0,60.0,D,C,/static/Simple_RL/Stimuli/Fractals_stims/D.jpg,/static/Simple_RL/Stimuli/Fractals_stims/C.jpg,1.0,60.0,40.0,40.0,60.0,D,C,141.627,0.127,0.0,
118,,rl_choice_confirmation,,html-keyboard-response,118,179867,0.0-1.0-171.0-0.0,0,0,12,,,,,,24.0,,,,,,,,,,,,,,,,,,,,,,143.0,1.373,,
119,,isi,,html-keyboard-response,119,179968,0.0-1.0-173.0,0,0,12,,,,,,,,,,,,,,,,,,,,,,,,,,,,146.0,3.0,,
120,,feedback,,html-keyboard-response,120,180971,0.0-1.0-174.0-0.0,0,0,12,,,,,,24.0,,,,,,,,,,,,,,,,,,,,,,147.0,1.0,,
121,,iti,,html-keyboard-response,121,181072,0.0-1.0-175.0,0,0,12,,,,,,,,,,,,,,,,,,,,,,,,,,,,148.0,1.0,,
122,,rl_choice,,html-keyboard-response,122,181090,0.0-1.0-177.0,0,0,12,,17.0,,,50.0,25.0,25.0,1.0,hard,2000.0,1000.0,1.0,60.0,40.0,40.0,40.0,D,C,/static/Simple_RL/Stimuli/Fractals_stims/D.jpg,/static/Simple_RL/Stimuli/Fractals_stims/C.jpg,1.0,60.0,40.0,40.0,40.0,D,C,148.017,0.017,0.0,
123,,rl_choice_confirmation,,html-keyboard-response,123,182576,0.0-1.0-178.0-0.0,0,0,12,,,,,,25.0,,,,,,,,,,,,,,,,,,,,,,149.5,1.483,,
124,,isi,,html-keyboard-response,124,182678,0.0-1.0-180.0,0,0,12,,,,,,,,,,,,,,,,,,,,,,,,,,,,150.5,1.0,,
125,,feedback,,html-keyboard-response,125,183682,0.0-1.0-181.0-0.0,0,0,12,,,,,,25.0,,,,,,,,,,,,,,,,,,,,,,151.5,1.0,,
126,,iti,,html-keyboard-response,126,183787,0.0-1.0-182.0,0,0,12,,,,,,,,,,,,,,,,,,,,,,,,,,,,153.5,2.0,,
127,,rl_choice,,html-keyboard-response,127,183864,0.0-1.0-184.0,0,0,12,,75.0,,,51.0,26.0,26.0,1.0,easy,1000.0,1000.0,1.0,80.0,20.0,100.0,20.0,B,A,/static/Simple_RL/Stimuli/Fractals_stims/B.jpg,/static/Simple_RL/Stimuli/Fractals_stims/A.jpg,0.0,20.0,80.0,20.0,100.0,A,B,153.575,0.075,0.0,
128,,rl_choice_confirmation,,html-keyboard-response,128,185291,0.0-1.0-185.0-0.0,0,0,12,,,,,,26.0,,,,,,,,,,,,,,,,,,,,,,155.0,1.425,,
129,,isi,,html-keyboard-response,129,185395,0.0-1.0-187.0,0,0,12,,,,,,,,,,,,,,,,,,,,,,,,,,,,156.0,1.0,,
130,,feedback,,html-keyboard-response,130,186397,0.0-1.0-188.0-0.0,0,0,12,,,,,,26.0,,,,,,,,,,,,,,,,,,,,,,157.0,1.0,,
131,,iti,,html-keyboard-response,131,186499,0.0-1.0-189.0,0,0,12,,,,,,,,,,,,,,,,,,,,,,,,,,,,158.0,1.0,,
132,,rl_choice,,html-keyboard-response,132,186555,0.0-1.0-191.0,0,0,12,,55.0,,,51.0,27.0,27.0,1.0,hard,1000.0,1500.0,0.0,40.0,60.0,20.0,80.0,C,D,/static/Simple_RL/Stimuli/Fractals_stims/C.jpg,/static/Simple_RL/Stimuli/Fractals_stims/D.jpg,0.0,60.0,40.0,80.0,20.0,D,C,158.055,0.055,0.0,
133,,rl_choice_confirmation,,html-keyboard-response,133,188006,0.0-1.0-192.0-0.0,0,0,12,,,,,,27.0,,,,,,,,,,,,,,,,,,,,,,159.5,1.445,,
134,,isi,,html-keyboard-response,134,188107,0.0-1.0-194.0,0,0,12,,,,,,,,,,,,,,,,,,,,,,,,,,,,161.0,1.5,,
135,,feedback,,html-keyboard-response,135,189114,0.0-1.0-195.0-0.0,0,0,12,,,,,,27.0,,,,,,,,,,,,,,,,,,,,,,162.0,1.0,,
136,,iti,,html-keyboard-response,136,189216,0.0-1.0-196.0,0,0,12,,,,,,,,,,,,,,,,,,,,,,,,,,,,163.0,1.0,,
137,,rl_choice,,html-keyboard-response,137,189333,0.0-1.0-198.0,0,0,12,,115.0,,,51.0,28.0,28.0,1.0,hard,1500.0,1500.0,0.0,40.0,60.0,40.0,40.0,C,D,/static/Simple_RL/Stimuli/Fractals_stims/C.jpg,/static/Simple_RL/Stimuli/Fractals_stims/D.jpg,0.0,60.0,40.0,40.0,40.0,D,C,163.115,0.115,0.0,
138,,rl_choice_confirmation,,html-keyboard-response,138,190720,0.0-1.0-199.0-0.0,0,0,12,,,,,,28.0,,,,,,,,,,,,,,,,,,,,,,164.5,1.385,,
139,,isi,,html-keyboard-response,139,190822,0.0-1.0-201.0,0,0,12,,,,,,,,,,,,,,,,,,,,,,,,,,,,166.0,1.5,,
140,,feedback,,html-keyboard-response,140,191827,0.0-1.0-202.0-0.0,0,0,12,,,,,,28.0,,,,,,,,,,,,,,,,,,,,,,167.0,1.0,,
141,,iti,,html-keyboard-response,141,191928,0.0-1.0-203.0,0,0,12,,,,,,,,,,,,,,,,,,,,,,,,,,,,168.5,1.5,,
142,,rl_choice,,html-keyboard-response,142,192936,0.0-1.0-205.0,0,0,12,,1006.0,,,50.0,29.0,29.0,1.0,easy,1000.0,1000.0,0.0,20.0,80.0,20.0,80.0,A,B,/static/Simple_RL/Stimuli/Fractals_stims/A.jpg,/static/Simple_RL/Stimuli/Fractals_stims/B.jpg,1.0,20.0,80.0,20.0,80.0,A,B,169.506,1.006,0.0,
143,,rl_choice_confirmation,,html-keyboard-response,143,193432,0.0-1.0-206.0-0.0,0,0,12,,,,,,29.0,,,,,,,,,,,,,,,,,,,,,,170.0,0.494,,
144,,isi,,html-keyboard-response,144,193533,0.0-1.0-208.0,0,0,12,,,,,,,,,,,,,,,,,,,,,,,,,,,,171.0,1.0,,
145,,feedback,,html-keyboard-response,145,194536,0.0-1.0-209.0-0.0,0,0,12,,,,,,29.0,,,,,,,,,,,,,,,,,,,,,,172.0,1.0,,
146,,iti,,html-keyboard-response,146,194637,0.0-1.0-210.0,0,0,12,,,,,,,,,,,,,,,,,,,,,,,,,,,,173.0,1.0,,
147,,rl_choice,,html-keyboard-response,147,194885,0.0-1.0-212.0,0,0,12,,247.0,,,51.0,30.0,30.0,1.0,hard,1500.0,2000.0,1.0,60.0,40.0,80.0,60.0,D,C,/static/Simple_RL/Stimuli/Fractals_stims/D.jpg,/static/Simple_RL/Stimuli/Fractals_stims/C.jpg,0.0,40.0,60.0,60.0,80.0,C,D,173.247,0.247,0.0,
148,,rl_choice_confirmation,,html-keyboard-response,148,196141,0.0-1.0-213.0-0.0,0,0,12,,,,,,30.0,,,,,,,,,,,,,,,,,,,,,,174.5,1.253,,
149,,isi,,html-keyboard-response,149,196246,0.0-1.0-215.0,0,0,12,,,,,,,,,,,,,,,,,,,,,,,,,,,,176.5,2.0,,
150,,feedback,,html-keyboard-response,150,197252,0.0-1.0-216.0-0.0,0,0,12,,,,,,30.0,,,,,,,,,,,,,,,,,,,,,,177.5,1.0,,
151,,iti,,html-keyboard-response,151,197355,0.0-1.0-217.0,0,0,12,,,,,,,,,,,,,,,,,,,,,,,,,,,,179.0,1.5,,
152,,rl_choice,,html-keyboard-response,152,198070,0.0-1.0-219.0,0,0,12,,713.0,,,51.0,31.0,31.0,1.0,easy,1000.0,1500.0,1.0,80.0,20.0,80.0,0.0,B,A,/static/Simple_RL/Stimuli/Fractals_stims/B.jpg,/static/Simple_RL/Stimuli/Fractals_stims/A.jpg,0.0,20.0,80.0,0.0,80.0,A,B,179.713,0.713,0.0,
153,,rl_choice_confirmation,,html-keyboard-response,153,198859,0.0-1.0-220.0-0.0,0,0,12,,,,,,31.0,,,,,,,,,,,,,,,,,,,,,,180.5,0.787,,
154,,isi,,html-keyboard-response,154,198960,0.0-1.0-222.0,0,0,12,,,,,,,,,,,,,,,,,,,,,,,,,,,,182.0,1.5,,
155,,feedback,,html-keyboard-response,155,199963,0.0-1.0-223.0-0.0,0,0,12,,,,,,31.0,,,,,,,,,,,,,,,,,,,,,,183.0,1.0,,
156,,iti,,html-keyboard-response,156,200066,0.0-1.0-224.0,0,0,12,,,,,,,,,,,,,,,,,,,,,,,,,,,,184.0,1.0,,
157,,rl_choice,,html-keyboard-response,157,201572,0.0-1.0-226.0,0,0,12,,,,,,32.0,32.0,1.0,easy,1000.0,3500.0,1.0,80.0,20.0,60.0,20.0,B,A,/static/Simple_RL/Stimuli/Fractals_stims/B.jpg,/static/Simple_RL/Stimuli/Fractals_stims/A.jpg,,,,,,,,185.5,1.5,1.0,
158,,rl_choice_warning,,html-keyboard-response,158,202576,0.0-1.0-228.0-0.0,0,0,12,,,,,,,,,,,,,,,,,,,,,,,,,,,,186.5,1.0,,
159,,isi,,html-keyboard-response,159,202680,0.0-1.0-229.0,0,0,12,,,,,,,,,,,,,,,,,,,,,,,,,,,,190.0,3.5,,
160,,iti,,html-keyboard-response,160,202784,0.0-1.0-231.0,0,0,12,,,,,,,,,,,,,,,,,,,,,,,,,,,,191.0,1.0,,
161,,rl_choice,,html-keyboard-response,161,202792,0.0-1.0-233.0,0,0,12,,6.0,,,51.0,33.0,33.0,1.0,hard,2000.0,1500.0,1.0,60.0,40.0,40.0,20.0,D,C,/static/Simple_RL/Stimuli/Fractals_stims/D.jpg,/static/Simple_RL/Stimuli/Fractals_stims/C.jpg,0.0,40.0,60.0,20.0,40.0,C,D,191.006,0.006,0.0,
162,,rl_choice_confirmation,,html-keyboard-response,162,204288,0.0-1.0-234.0-0.0,0,0,12,,,,,,33.0,,,,,,,,,,,,,,,,,,,,,,192.5,1.494,,
163,,isi,,html-keyboard-response,163,204392,0.0-1.0-236.0,0,0,12,,,,,,,,,,,,,,,,,,,,,,,,,,,,194.0,1.5,,
164,,feedback,,html-keyboard-response,164,205398,0.0-1.0-237.0-0.0,0,0,12,,,,,,33.0,,,,,,,,,,,,,,,,,,,,,,195.0,1.0,,
165,,iti,,html-keyboard-response,165,205499,0.0-1.0-238.0,0,0,12,,,,,,,,,,,,,,,,,,,,,,,,,,,,197.0,2.0,,
166,,rl_choice,,html-keyboard-response,166,206593,0.0-1.0-240.0,0,0,12,,1092.0,,,51.0,34.0,34.0,1.0,hard,3000.0,1000.0,0.0,40.0,60.0,20.0,60.0,C,D,/static/Simple_RL/Stimuli/Fractals_stims/C.jpg,/static/Simple_RL/Stimuli/Fractals_stims/D.jpg,0.0,60.0,40.0,60.0,20.0,D,C,198.092,1.092,0.0,
167,,rl_choice_confirmation,,html-keyboard-response,167,207006,0.0-1.0-241.0-0.0,0,0,12,,,,,,34.0,,,,,,,,,,,,,,,,,,,,,,198.5,0.408,,
168,,isi,,html-keyboard-response,168,207110,0.0-1.0-243.0,0,0,12,,,,,,,,,,,,,,,,,,,,,,,,,,,,199.5,1.0,,
169,,feedback,,html-keyboard-response,169,208112,0.0-1.0-244.0-0.0,0,0,12,,,,,,34.0,,,,,,,,,,,,,,,,,,,,,,200.5,1.0,,
170,,iti,,html-keyboard-response,170,208214,0.0-1.0-245.0,0,0,12,,,,,,,,,,,,,,,,,,,,,,,,,,,,203.5,3.0,,
171,,rl_choice,,html-keyboard-response,171,208630,0.0-1.0-247.0,0,0,12,,414.0,,,50.0,35.0,35.0,1.0,easy,1500.0,1000.0,1.0,80.0,20.0,80.0,20.0,B,A,/static/Simple_RL/Stimuli/Fractals_stims/B.jpg,/static/Simple_RL/Stimuli/Fractals_stims/A.jpg,1.0,80.0,20.0,80.0,20.0,B,A,203.914,0.414,0.0,
172,,rl_choice_confirmation,,html-keyboard-response,172,209719,0.0-1.0-248.0-0.0,0,0,12,,,,,,35.0,,,,,,,,,,,,,,,,,,,,,,205.0,1.086,,
173,,isi,,html-keyboard-response,173,209824,0.0-1.0-250.0,0,0,12,,,,,,,,,,,,,,,,,,,,,,,,,,,,206.0,1.0,,
174,,feedback,,html-keyboard-response,174,210829,0.0-1.0-251.0-0.0,0,0,12,,,,,,35.0,,,,,,,,,,,,,,,,,,,,,,207.0,1.0,,
175,,iti,,html-keyboard-response,175,210930,0.0-1.0-252.0,0,0,12,,,,,,,,,,,,,,,,,,,,,,,,,,,,208.5,1.5,,
176,,rl_choice,,html-keyboard-response,176,210933,0.0-1.0-254.0,0,0,12,,1.0,,,50.0,36.0,36.0,1.0,easy,1500.0,2000.0,1.0,80.0,20.0,80.0,40.0,B,A,/static/Simple_RL/Stimuli/Fractals_stims/B.jpg,/static/Simple_RL/Stimuli/Fractals_stims/A.jpg,1.0,80.0,20.0,80.0,40.0,B,A,208.501,0.001,0.0,
177,,rl_choice_confirmation,,html-keyboard-response,177,212438,0.0-1.0-255.0-0.0,0,0,12,,,,,,36.0,,,,,,,,,,,,,,,,,,,,,,210.0,1.499,,
178,,isi,,html-keyboard-response,178,212542,0.0-1.0-257.0,0,0,12,,,,,,,,,,,,,,,,,,,,,,,,,,,,212.0,2.0,,
179,,feedback,,html-keyboard-response,179,213544,0.0-1.0-258.0-0.0,0,0,12,,,,,,36.0,,,,,,,,,,,,,,,,,,,,,,213.0,1.0,,
180,,iti,,html-keyboard-response,180,213647,0.0-1.0-259.0,0,0,12,,,,,,,,,,,,,,,,,,,,,,,,,,,,214.5,1.5,,
181,,rl_choice,,html-keyboard-response,181,213721,0.0-1.0-261.0,0,0,12,,73.0,,,50.0,37.0,37.0,1.0,easy,2000.0,1000.0,1.0,80.0,20.0,60.0,40.0,B,A,/static/Simple_RL/Stimuli/Fractals_stims/B.jpg,/static/Simple_RL/Stimuli/Fractals_stims/A.jpg,1.0,80.0,20.0,60.0,40.0,B,A,214.573,0.073,0.0,
182,,rl_choice_confirmation,,html-keyboard-response,182,215154,0.0-1.0-262.0-0.0,0,0,12,,,,,,37.0,,,,,,,,,,,,,,,,,,,,,,216.0,1.427,,
183,,isi,,html-keyboard-response,183,215259,0.0-1.0-264.0,0,0,12,,,,,,,,,,,,,,,,,,,,,,,,,,,,217.0,1.0,,
184,,feedback,,html-keyboard-response,184,216262,0.0-1.0-265.0-0.0,0,0,12,,,,,,37.0,,,,,,,,,,,,,,,,,,,,,,218.0,1.0,,
185,,iti,,html-keyboard-response,185,216363,0.0-1.0-266.0,0,0,12,,,,,,,,,,,,,,,,,,,,,,,,,,,,220.0,2.0,,
186,,rl_choice,,html-keyboard-response,186,216511,0.0-1.0-268.0,0,0,12,,146.0,,,51.0,38.0,38.0,1.0,easy,3500.0,1500.0,0.0,20.0,80.0,40.0,60.0,A,B,/static/Simple_RL/Stimuli/Fractals_stims/A.jpg,/static/Simple_RL/Stimuli/Fractals_stims/B.jpg,0.0,80.0,20.0,60.0,40.0,B,A,220.146,0.146,0.0,
187,,rl_choice_confirmation,,html-keyboard-response,187,217869,0.0-1.0-269.0-0.0,0,0,12,,,,,,38.0,,,,,,,,,,,,,,,,,,,,,,221.5,1.354,,
188,,isi,,html-keyboard-response,188,217974,0.0-1.0-271.0,0,0,12,,,,,,,,,,,,,,,,,,,,,,,,,,,,223.0,1.5,,
189,,feedback,,html-keyboard-response,189,218980,0.0-1.0-272.0-0.0,0,0,12,,,,,,38.0,,,,,,,,,,,,,,,,,,,,,,224.0,1.0,,
190,,iti,,html-keyboard-response,190,219081,0.0-1.0-273.0,0,0,12,,,,,,,,,,,,,,,,,,,,,,,,,,,,227.5,3.5,,
191,,rl_choice,,html-keyboard-response,191,219096,0.0-1.0-275.0,0,0,12,,14.0,,,51.0,39.0,39.0,1.0,easy,1000.0,1000.0,1.0,80.0,20.0,60.0,20.0,B,A,/static/Simple_RL/Stimuli/Fractals_stims/B.jpg,/static/Simple_RL/Stimuli/Fractals_stims/A.jpg,0.0,20.0,80.0,20.0,60.0,A,B,227.514,0.014,0.0,
192,,rl_choice_confirmation,,html-keyboard-response,192,220584,0.0-1.0-276.0-0.0,0,0,12,,,,,,39.0,,,,,,,,,,,,,,,,,,,,,,229.0,1.486,,
193,,isi,,html-keyboard-response,193,220689,0.0-1.0-278.0,0,0,12,,,,,,,,,,,,,,,,,,,,,,,,,,,,230.0,1.0,,
194,,feedback,,html-keyboard-response,194,221691,0.0-1.0-279.0-0.0,0,0,12,,,,,,39.0,,,,,,,,,,,,,,,,,,,,,,231.0,1.0,,
195,,iti,,html-keyboard-response,195,221795,0.0-1.0-280.0,0,0,12,,,,,,,,,,,,,,,,,,,,,,,,,,,,232.0,1.0,,
196,,block_over,,html-keyboard-response,196,221892,0.0-1.0-281.0-0.0,0,0,12,,96.0,,,50.0,39.0,,,,,,,,,,,,,,,,,,,,,,,,,
197,,start_run,,html-keyboard-response,197,224457,0.0-1.0-281.0-1.0,0,0,12,,2565.0,,,84.0,,,,,,,,,,,,,,,,,,,,,,,,,,
198,,rl_choice,,html-keyboard-response,198,224737,0.0-1.0-282.0,0,0,12,,278.0,,,50.0,40.0,40.0,2.0,hard,1000.0,2000.0,0.0,40.0,60.0,40.0,40.0,C,D,/static/Simple_RL/Stimuli/Fractals_stims/C.jpg,/static/Simple_RL/Stimuli/Fractals_stims/D.jpg,1.0,40.0,60.0,40.0,40.0,C,D,0.278,0.278,0.0,
199,,rl_choice_confirmation,,html-keyboard-response,199,225960,0.0-1.0-283.0-0.0,0,0,12,,,,,,40.0,,,,,,,,,,,,,,,,,,,,,,1.5,1.222,,
200,,isi,,html-keyboard-response,200,226061,0.0-1.0-285.0,0,0,12,,,,,,,,,,,,,,,,,,,,,,,,,,,,3.5,2.0,,
201,,feedback,,html-keyboard-response,201,227064,0.0-1.0-286.0-0.0,0,0,12,,,,,,40.0,,,,,,,,,,,,,,,,,,,,,,4.5,1.0,,
202,,iti,,html-keyboard-response,202,227168,0.0-1.0-287.0,0,0,12,,,,,,,,,,,,,,,,,,,,,,,,,,,,5.5,1.0,,
203,,rl_choice,,html-keyboard-response,203,227724,0.0-1.0-289.0,0,0,12,,554.0,,,51.0,41.0,41.0,2.0,hard,1000.0,3000.0,1.0,60.0,40.0,40.0,60.0,D,C,/static/Simple_RL/Stimuli/Fractals_stims/D.jpg,/static/Simple_RL/Stimuli/Fractals_stims/C.jpg,0.0,40.0,60.0,60.0,40.0,C,D,6.054,0.554,0.0,
204,,rl_choice_confirmation,,html-keyboard-response,204,228672,0.0-1.0-290.0-0.0,0,0,12,,,,,,41.0,,,,,,,,,,,,,,,,,,,,,,7.0,0.946,,
205,,isi,,html-keyboard-response,205,228774,0.0-1.0-292.0,0,0,12,,,,,,,,,,,,,,,,,,,,,,,,,,,,10.0,3.0,,
206,,feedback,,html-keyboard-response,206,229776,0.0-1.0-293.0-0.0,0,0,12,,,,,,41.0,,,,,,,,,,,,,,,,,,,,,,11.0,1.0,,
207,,iti,,html-keyboard-response,207,229877,0.0-1.0-294.0,0,0,12,,,,,,,,,,,,,,,,,,,,,,,,,,,,12.0,1.0,,
208,,rl_choice,,html-keyboard-response,208,230047,0.0-1.0-296.0,0,0,12,,168.0,,,51.0,42.0,42.0,2.0,hard,1000.0,1000.0,0.0,40.0,60.0,40.0,40.0,C,D,/static/Simple_RL/Stimuli/Fractals_stims/C.jpg,/static/Simple_RL/Stimuli/Fractals_stims/D.jpg,0.0,60.0,40.0,40.0,40.0,D,C,12.168,0.168,0.0,
209,,rl_choice_confirmation,,html-keyboard-response,209,231382,0.0-1.0-297.0-0.0,0,0,12,,,,,,42.0,,,,,,,,,,,,,,,,,,,,,,13.5,1.332,,
210,,isi,,html-keyboard-response,210,231483,0.0-1.0-299.0,0,0,12,,,,,,,,,,,,,,,,,,,,,,,,,,,,14.5,1.0,,
211,,feedback,,html-keyboard-response,211,232485,0.0-1.0-300.0-0.0,0,0,12,,,,,,42.0,,,,,,,,,,,,,,,,,,,,,,15.5,1.0,,
212,,iti,,html-keyboard-response,212,232591,0.0-1.0-301.0,0,0,12,,,,,,,,,,,,,,,,,,,,,,,,,,,,16.5,1.0,,
213,,rl_choice,,html-keyboard-response,213,232613,0.0-1.0-303.0,0,0,12,,21.0,,,50.0,43.0,43.0,2.0,easy,1500.0,2000.0,0.0,20.0,80.0,0.0,60.0,A,B,/static/Simple_RL/Stimuli/Fractals_stims/A.jpg,/static/Simple_RL/Stimuli/Fractals_stims/B.jpg,1.0,20.0,80.0,0.0,60.0,A,B,16.521,0.021,0.0,
214,,rl_choice_confirmation,,html-keyboard-response,214,234094,0.0-1.0-304.0-0.0,0,0,12,,,,,,43.0,,,,,,,,,,,,,,,,,,,,,,18.0,1.479,,
215,,isi,,html-keyboard-response,215,234195,0.0-1.0-306.0,0,0,12,,,,,,,,,,,,,,,,,,,,,,,,,,,,20.0,2.0,,
216,,feedback,,html-keyboard-response,216,235198,0.0-1.0-307.0-0.0,0,0,12,,,,,,43.0,,,,,,,,,,,,,,,,,,,,,,21.0,1.0,,
217,,iti,,html-keyboard-response,217,235299,0.0-1.0-308.0,0,0,12,,,,,,,,,,,,,,,,,,,,,,,,,,,,22.5,1.5,,
218,,rl_choice,,html-keyboard-response,218,235337,0.0-1.0-310.0,0,0,12,,37.0,,,50.0,44.0,44.0,2.0,hard,1000.0,1500.0,0.0,40.0,60.0,60.0,60.0,C,D,/static/Simple_RL/Stimuli/Fractals_stims/C.jpg,/static/Simple_RL/Stimuli/Fractals_stims/D.jpg,1.0,40.0,60.0,60.0,60.0,C,D,22.537,0.037,0.0,
219,,rl_choice_confirmation,,html-keyboard-response,219,236803,0.0-1.0-311.0-0.0,0,0,12,,,,,,44.0,,,,,,,,,,,,,,,,,,,,,,24.0,1.463,,
220,,isi,,html-keyboard-response,220,236907,0.0-1.0-313.0,0,0,12,,,,,,,,,,,,,,,,,,,,,,,,,,,,25.5,1.5,,
221,,feedback,,html-keyboard-response,221,237910,0.0-1.0-314.0-0.0,0,0,12,,,,,,44.0,,,,,,,,,,,,,,,,,,,,,,26.5,1.0,,
222,,iti,,html-keyboard-response,222,238015,0.0-1.0-315.0,0,0,12,,,,,,,,,,,,,,,,,,,,,,,,,,,,27.5,1.0,,
223,,rl_choice,,html-keyboard-response,223,238087,0.0-1.0-317.0,0,0,12,,71.0,,,51.0,45.0,45.0,2.0,hard,2000.0,2000.0,0.0,40.0,60.0,40.0,60.0,C,D,/static/Simple_RL/Stimuli/Fractals_stims/C.jpg,/static/Simple_RL/Stimuli/Fractals_stims/D.jpg,0.0,60.0,40.0,60.0,40.0,D,C,27.571,0.071,0.0,
224,,rl_choice_confirmation,,html-keyboard-response,224,239518,0.0-1.0-318.0-0.0,0,0,12,,,,,,45.0,,,,,,,,,,,,,,,,,,,,,,29.0,1.429,,
225,,isi,,html-keyboard-response,225,239622,0.0-1.0-320.0,0,0,12,,,,,,,,,,,,,,,,,,,,,,,,,,,,31.0,2.0,,
226,,feedback,,html-keyboard-response,226,240625,0.0-1.0-321.0-0.0,0,0,12,,,,,,45.0,,,,,,,,,,,,,,,,,,,,,,32.0,1.0,,
227,,iti,,html-keyboard-response,227,240728,0.0-1.0-322.0,0,0,12,,,,,,,,,,,,,,,,,,,,,,,,,,,,34.0,2.0,,
228,,rl_choice,,html-keyboard-response,228,240882,0.0-1.0-324.0,0,0,12,,152.0,,,51.0,46.0,46.0,2.0,hard,2000.0,2000.0,0.0,40.0,60.0,40.0,40.0,C,D,/static/Simple_RL/Stimuli/Fractals_stims/C.jpg,/static/Simple_RL/Stimuli/Fractals_stims/D.jpg,0.0,60.0,40.0,40.0,40.0,D,C,34.152,0.152,0.0,
229,,rl_choice_confirmation,,html-keyboard-response,229,242233,0.0-1.0-325.0-0.0,0,0,12,,,,,,46.0,,,,,,,,,,,,,,,,,,,,,,35.5,1.348,,
230,,isi,,html-keyboard-response,230,242338,0.0-1.0-327.0,0,0,12,,,,,,,,,,,,,,,,,,,,,,,,,,,,37.5,2.0,,
231,,feedback,,html-keyboard-response,231,243341,0.0-1.0-328.0-0.0,0,0,12,,,,,,46.0,,,,,,,,,,,,,,,,,,,,,,38.5,1.0,,
232,,iti,,html-keyboard-response,232,243443,0.0-1.0-329.0,0,0,12,,,,,,,,,,,,,,,,,,,,,,,,,,,,40.5,2.0,,
233,,rl_choice,,html-keyboard-response,233,243484,0.0-1.0-331.0,0,0,12,,40.0,,,51.0,47.0,47.0,2.0,hard,1500.0,1500.0,1.0,60.0,40.0,80.0,20.0,D,C,/static/Simple_RL/Stimuli/Fractals_stims/D.jpg,/static/Simple_RL/Stimuli/Fractals_stims/C.jpg,0.0,40.0,60.0,20.0,80.0,C,D,40.54,0.04,0.0,
234,,rl_choice_confirmation,,html-keyboard-response,234,244950,0.0-1.0-332.0-0.0,0,0,12,,,,,,47.0,,,,,,,,,,,,,,,,,,,,,,42.0,1.46,,
235,,isi,,html-keyboard-response,235,245054,0.0-1.0-334.0,0,0,12,,,,,,,,,,,,,,,,,,,,,,,,,,,,43.5,1.5,,
236,,feedback,,html-keyboard-response,236,246056,0.0-1.0-335.0-0.0,0,0,12,,,,,,47.0,,,,,,,,,,,,,,,,,,,,,,44.5,1.0,,
237,,iti,,html-keyboard-response,237,246158,0.0-1.0-336.0,0,0,12,,,,,,,,,,,,,,,,,,,,,,,,,,,,46.0,1.5,,
238,,rl_choice,,html-keyboard-response,238,246251,0.0-1.0-338.0,0,0,12,,92.0,,,50.0,48.0,48.0,2.0,easy,3500.0,1000.0,1.0,80.0,20.0,60.0,0.0,B,A,/static/Simple_RL/Stimuli/Fractals_stims/B.jpg,/static/Simple_RL/Stimuli/Fractals_stims/A.jpg,1.0,80.0,20.0,60.0,0.0,B,A,46.092,0.092,0.0,
239,,rl_choice_confirmation,,html-keyboard-response,239,247661,0.0-1.0-339.0-0.0,0,0,12,,,,,,48.0,,,,,,,,,,,,,,,,,,,,,,47.5,1.408,,
240,,isi,,html-keyboard-response,240,247763,0.0-1.0-341.0,0,0,12,,,,,,,,,,,,,,,,,,,,,,,,,,,,48.5,1.0,,
241,,feedback,,html-keyboard-response,241,248766,0.0-1.0-342.0-0.0,0,0,12,,,,,,48.0,,,,,,,,,,,,,,,,,,,,,,49.5,1.0,,
242,,iti,,html-keyboard-response,242,248867,0.0-1.0-343.0,0,0,12,,,,,,,,,,,,,,,,,,,,,,,,,,,,53.0,3.5,,
243,,rl_choice,,html-keyboard-response,243,248931,0.0-1.0-345.0,0,0,12,,63.0,,,50.0,49.0,49.0,2.0,hard,1000.0,3500.0,1.0,60.0,40.0,80.0,20.0,D,C,/static/Simple_RL/Stimuli/Fractals_stims/D.jpg,/static/Simple_RL/Stimuli/Fractals_stims/C.jpg,1.0,60.0,40.0,80.0,20.0,D,C,53.063,0.063,0.0,
244,,rl_choice_confirmation,,html-keyboard-response,244,250371,0.0-1.0-346.0-0.0,0,0,12,,,,,,49.0,,,,,,,,,,,,,,,,,,,,,,54.5,1.437,,
245,,isi,,html-keyboard-response,245,250475,0.0-1.0-348.0,0,0,12,,,,,,,,,,,,,,,,,,,,,,,,,,,,58.0,3.5,,
246,,feedback,,html-keyboard-response,246,251478,0.0-1.0-349.0-0.0,0,0,12,,,,,,49.0,,,,,,,,,,,,,,,,,,,,,,59.0,1.0,,
247,,iti,,html-keyboard-response,247,251579,0.0-1.0-350.0,0,0,12,,,,,,,,,,,,,,,,,,,,,,,,,,,,60.0,1.0,,
248,,rl_choice,,html-keyboard-response,248,251738,0.0-1.0-352.0,0,0,12,,157.0,,,51.0,50.0,50.0,2.0,easy,1000.0,1500.0,1.0,80.0,20.0,80.0,40.0,B,A,/static/Simple_RL/Stimuli/Fractals_stims/B.jpg,/static/Simple_RL/Stimuli/Fractals_stims/A.jpg,0.0,20.0,80.0,40.0,80.0,A,B,60.157,0.157,0.0,
249,,rl_choice_confirmation,,html-keyboard-response,249,253083,0.0-1.0-353.0-0.0,0,0,12,,,,,,50.0,,,,,,,,,,,,,,,,,,,,,,61.5,1.343,,
250,,isi,,html-keyboard-response,250,253189,0.0-1.0-355.0,0,0,12,,,,,,,,,,,,,,,,,,,,,,,,,,,,63.0,1.5,,
251,,feedback,,html-keyboard-response,251,254195,0.0-1.0-356.0-0.0,0,0,12,,,,,,50.0,,,,,,,,,,,,,,,,,,,,,,64.0,1.0,,
252,,iti,,html-keyboard-response,252,254296,0.0-1.0-357.0,0,0,12,,,,,,,,,,,,,,,,,,,,,,,,,,,,65.0,1.0,,
253,,rl_choice,,html-keyboard-response,253,254637,0.0-1.0-359.0,0,0,12,,339.0,,,50.0,51.0,51.0,2.0,easy,1000.0,2000.0,0.0,20.0,80.0,0.0,100.0,A,B,/static/Simple_RL/Stimuli/Fractals_stims/A.jpg,/static/Simple_RL/Stimuli/Fractals_stims/B.jpg,1.0,20.0,80.0,0.0,100.0,A,B,65.339,0.339,0.0,
254,,rl_choice_confirmation,,html-keyboard-response,254,255803,0.0-1.0-360.0-0.0,0,0,12,,,,,,51.0,,,,,,,,,,,,,,,,,,,,,,66.5,1.161,,
255,,isi,,html-keyboard-response,255,255907,0.0-1.0-362.0,0,0,12,,,,,,,,,,,,,,,,,,,,,,,,,,,,68.5,2.0,,
256,,feedback,,html-keyboard-response,256,256913,0.0-1.0-363.0-0.0,0,0,12,,,,,,51.0,,,,,,,,,,,,,,,,,,,,,,69.5,1.0,,
257,,iti,,html-keyboard-response,257,257017,0.0-1.0-364.0,0,0,12,,,,,,,,,,,,,,,,,,,,,,,,,,,,70.5,1.0,,
258,,rl_choice,,html-keyboard-response,258,257057,0.0-1.0-366.0,0,0,12,,38.0,,,50.0,52.0,52.0,2.0,easy,3000.0,1500.0,0.0,20.0,80.0,40.0,80.0,A,B,/static/Simple_RL/Stimuli/Fractals_stims/A.jpg,/static/Simple_RL/Stimuli/Fractals_stims/B.jpg,1.0,20.0,80.0,40.0,80.0,A,B,70.538,0.038,0.0,
259,,rl_choice_confirmation,,html-keyboard-response,259,258520,0.0-1.0-367.0-0.0,0,0,12,,,,,,52.0,,,,,,,,,,,,,,,,,,,,,,72.0,1.462,,
260,,isi,,html-keyboard-response,260,258622,0.0-1.0-369.0,0,0,12,,,,,,,,,,,,,,,,,,,,,,,,,,,,73.5,1.5,,
261,,feedback,,html-keyboard-response,261,259624,0.0-1.0-370.0-0.0,0,0,12,,,,,,52.0,,,,,,,,,,,,,,,,,,,,,,74.5,1.0,,
262,,iti,,html-keyboard-response,262,259726,0.0-1.0-371.0,0,0,12,,,,,,,,,,,,,,,,,,,,,,,,,,,,77.5,3.0,,
263,,rl_choice,,html-keyboard-response,263,259768,0.0-1.0-373.0,0,0,12,,41.0,,,50.0,53.0,53.0,2.0,hard,2000.0,1000.0,1.0,60.0,40.0,60.0,40.0,D,C,/static/Simple_RL/Stimuli/Fractals_stims/D.jpg,/static/Simple_RL/Stimuli/Fractals_stims/C.jpg,1.0,60.0,40.0,60.0,40.0,D,C,77.541,0.041,0.0,
264,,rl_choice_confirmation,,html-keyboard-response,264,261233,0.0-1.0-374.0-0.0,0,0,12,,,,,,53.0,,,,,,,,,,,,,,,,,,,,,,79.0,1.459,,
265,,isi,,html-keyboard-response,265,261336,0.0-1.0-376.0,0,0,12,,,,,,,,,,,,,,,,,,,,,,,,,,,,80.0,1.0,,
266,,feedback,,html-keyboard-response,266,262339,0.0-1.0-377.0-0.0,0,0,12,,,,,,53.0,,,,,,,,,,,,,,,,,,,,,,81.0,1.0,,
267,,iti,,html-keyboard-response,267,262441,0.0-1.0-378.0,0,0,12,,,,,,,,,,,,,,,,,,,,,,,,,,,,83.0,2.0,,
268,,rl_choice,,html-keyboard-response,268,262566,0.0-1.0-380.0,0,0,12,,124.0,,,51.0,54.0,54.0,2.0,easy,2000.0,1500.0,0.0,20.0,80.0,0.0,100.0,A,B,/static/Simple_RL/Stimuli/Fractals_stims/A.jpg,/static/Simple_RL/Stimuli/Fractals_stims/B.jpg,0.0,80.0,20.0,100.0,0.0,B,A,83.124,0.124,0.0,
269,,rl_choice_confirmation,,html-keyboard-response,269,263948,0.0-1.0-381.0-0.0,0,0,12,,,,,,54.0,,,,,,,,,,,,,,,,,,,,,,84.5,1.376,,
270,,isi,,html-keyboard-response,270,264053,0.0-1.0-383.0,0,0,12,,,,,,,,,,,,,,,,,,,,,,,,,,,,86.0,1.5,,
271,,feedback,,html-keyboard-response,271,265057,0.0-1.0-384.0-0.0,0,0,12,,,,,,54.0,,,,,,,,,,,,,,,,,,,,,,87.0,1.0,,
272,,iti,,html-keyboard-response,272,265158,0.0-1.0-385.0,0,0,12,,,,,,,,,,,,,,,,,,,,,,,,,,,,89.0,2.0,,
273,,rl_choice,,html-keyboard-response,273,265217,0.0-1.0-387.0,0,0,12,,57.0,,,51.0,55.0,55.0,2.0,easy,1000.0,1000.0,0.0,20.0,80.0,40.0,100.0,A,B,/static/Simple_RL/Stimuli/Fractals_stims/A.jpg,/static/Simple_RL/Stimuli/Fractals_stims/B.jpg,0.0,80.0,20.0,100.0,40.0,B,A,89.057,0.057,0.0,
274,,rl_choice_confirmation,,html-keyboard-response,274,266662,0.0-1.0-388.0-0.0,0,0,12,,,,,,55.0,,,,,,,,,,,,,,,,,,,,,,90.5,1.443,,
275,,isi,,html-keyboard-response,275,266766,0.0-1.0-390.0,0,0,12,,,,,,,,,,,,,,,,,,,,,,,,,,,,91.5,1.0,,
276,,feedback,,html-keyboard-response,276,267771,0.0-1.0-391.0-0.0,0,0,12,,,,,,55.0,,,,,,,,,,,,,,,,,,,,,,92.5,1.0,,
277,,iti,,html-keyboard-response,277,267873,0.0-1.0-392.0,0,0,12,,,,,,,,,,,,,,,,,,,,,,,,,,,,93.5,1.0,,
278,,rl_choice,,html-keyboard-response,278,268006,0.0-1.0-394.0,0,0,12,,132.0,,,50.0,56.0,56.0,2.0,hard,2000.0,1000.0,1.0,60.0,40.0,60.0,20.0,D,C,/static/Simple_RL/Stimuli/Fractals_stims/D.jpg,/static/Simple_RL/Stimuli/Fractals_stims/C.jpg,1.0,60.0,40.0,60.0,20.0,D,C,93.632,0.132,0.0,
279,,rl_choice_confirmation,,html-keyboard-response,279,269376,0.0-1.0-395.0-0.0,0,0,12,,,,,,56.0,,,,,,,,,,,,,,,,,,,,,,95.0,1.368,,
280,,isi,,html-keyboard-response,280,269480,0.0-1.0-397.0,0,0,12,,,,,,,,,,,,,,,,,,,,,,,,,,,,96.0,1.0,,
281,,feedback,,html-keyboard-response,281,270483,0.0-1.0-398.0-0.0,0,0,12,,,,,,56.0,,,,,,,,,,,,,,,,,,,,,,97.0,1.0,,
282,,iti,,html-keyboard-response,282,270585,0.0-1.0-399.0,0,0,12,,,,,,,,,,,,,,,,,,,,,,,,,,,,99.0,2.0,,
283,,rl_choice,,html-keyboard-response,283,270957,0.0-1.0-401.0,0,0,12,,371.0,,,51.0,57.0,57.0,2.0,easy,1000.0,2000.0,1.0,80.0,20.0,80.0,0.0,B,A,/static/Simple_RL/Stimuli/Fractals_stims/B.jpg,/static/Simple_RL/Stimuli/Fractals_stims/A.jpg,0.0,20.0,80.0,0.0,80.0,A,B,99.371,0.371,0.0,
284,,rl_choice_confirmation,,html-keyboard-response,284,272088,0.0-1.0-402.0-0.0,0,0,12,,,,,,57.0,,,,,,,,,,,,,,,,,,,,,,100.5,1.129,,
285,,isi,,html-keyboard-response,285,272193,0.0-1.0-404.0,0,0,12,,,,,,,,,,,,,,,,,,,,,,,,,,,,102.5,2.0,,
286,,feedback,,html-keyboard-response,286,273194,0.0-1.0-405.0-0.0,0,0,12,,,,,,57.0,,,,,,,,,,,,,,,,,,,,,,103.5,1.0,,
287,,iti,,html-keyboard-response,287,273299,0.0-1.0-406.0,0,0,12,,,,,,,,,,,,,,,,,,,,,,,,,,,,104.5,1.0,,
288,,rl_choice,,html-keyboard-response,288,273358,0.0-1.0-408.0,0,0,12,,58.0,,,50.0,58.0,58.0,2.0,hard,1000.0,1500.0,1.0,60.0,40.0,60.0,60.0,D,C,/static/Simple_RL/Stimuli/Fractals_stims/D.jpg,/static/Simple_RL/Stimuli/Fractals_stims/C.jpg,1.0,60.0,40.0,60.0,60.0,D,C,104.558,0.058,0.0,
289,,rl_choice_confirmation,,html-keyboard-response,289,274806,0.0-1.0-409.0-0.0,0,0,12,,,,,,58.0,,,,,,,,,,,,,,,,,,,,,,106.0,1.442,,
290,,isi,,html-keyboard-response,290,274910,0.0-1.0-411.0,0,0,12,,,,,,,,,,,,,,,,,,,,,,,,,,,,107.5,1.5,,
291,,feedback,,html-keyboard-response,291,275914,0.0-1.0-412.0-0.0,0,0,12,,,,,,58.0,,,,,,,,,,,,,,,,,,,,,,108.5,1.0,,
292,,iti,,html-keyboard-response,292,276019,0.0-1.0-413.0,0,0,12,,,,,,,,,,,,,,,,,,,,,,,,,,,,109.5,1.0,,
293,,rl_choice,,html-keyboard-response,293,276102,0.0-1.0-415.0,0,0,12,,81.0,,,51.0,59.0,59.0,2.0,easy,1500.0,3000.0,1.0,80.0,20.0,80.0,40.0,B,A,/static/Simple_RL/Stimuli/Fractals_stims/B.jpg,/static/Simple_RL/Stimuli/Fractals_stims/A.jpg,0.0,20.0,80.0,40.0,80.0,A,B,109.581,0.081,0.0,
294,,rl_choice_confirmation,,html-keyboard-response,294,277522,0.0-1.0-416.0-0.0,0,0,12,,,,,,59.0,,,,,,,,,,,,,,,,,,,,,,111.0,1.419,,
295,,isi,,html-keyboard-response,295,277626,0.0-1.0-418.0,0,0,12,,,,,,,,,,,,,,,,,,,,,,,,,,,,114.0,3.0,,
296,,feedback,,html-keyboard-response,296,278630,0.0-1.0-419.0-0.0,0,0,12,,,,,,59.0,,,,,,,,,,,,,,,,,,,,,,115.0,1.0,,
297,,iti,,html-keyboard-response,297,278734,0.0-1.0-420.0,0,0,12,,,,,,,,,,,,,,,,,,,,,,,,,,,,116.5,1.5,,
298,,rl_choice,,html-keyboard-response,298,278914,0.0-1.0-422.0,0,0,12,,178.0,,,50.0,60.0,60.0,2.0,hard,1500.0,2000.0,0.0,40.0,60.0,40.0,80.0,C,D,/static/Simple_RL/Stimuli/Fractals_stims/C.jpg,/static/Simple_RL/Stimuli/Fractals_stims/D.jpg,1.0,40.0,60.0,40.0,80.0,C,D,116.678,0.178,0.0,
299,,rl_choice_confirmation,,html-keyboard-response,299,280239,0.0-1.0-423.0-0.0,0,0,12,,,,,,60.0,,,,,,,,,,,,,,,,,,,,,,118.0,1.322,,
300,,isi,,html-keyboard-response,300,280344,0.0-1.0-425.0,0,0,12,,,,,,,,,,,,,,,,,,,,,,,,,,,,120.0,2.0,,
301,,feedback,,html-keyboard-response,301,281347,0.0-1.0-426.0-0.0,0,0,12,,,,,,60.0,,,,,,,,,,,,,,,,,,,,,,121.0,1.0,,
302,,iti,,html-keyboard-response,302,281452,0.0-1.0-427.0,0,0,12,,,,,,,,,,,,,,,,,,,,,,,,,,,,122.5,1.5,,
303,,rl_choice,,html-keyboard-response,303,281530,0.0-1.0-429.0,0,0,12,,77.0,,,51.0,61.0,61.0,2.0,hard,1000.0,1000.0,1.0,60.0,40.0,40.0,40.0,D,C,/static/Simple_RL/Stimuli/Fractals_stims/D.jpg,/static/Simple_RL/Stimuli/Fractals_stims/C.jpg,0.0,40.0,60.0,40.0,40.0,C,D,122.577,0.077,0.0,
304,,rl_choice_confirmation,,html-keyboard-response,304,282958,0.0-1.0-430.0-0.0,0,0,12,,,,,,61.0,,,,,,,,,,,,,,,,,,,,,,124.0,1.423,,
305,,isi,,html-keyboard-response,305,283062,0.0-1.0-432.0,0,0,12,,,,,,,,,,,,,,,,,,,,,,,,,,,,125.0,1.0,,
306,,feedback,,html-keyboard-response,306,284065,0.0-1.0-433.0-0.0,0,0,12,,,,,,61.0,,,,,,,,,,,,,,,,,,,,,,126.0,1.0,,
307,,iti,,html-keyboard-response,307,284169,0.0-1.0-434.0,0,0,12,,,,,,,,,,,,,,,,,,,,,,,,,,,,127.0,1.0,,
308,,rl_choice,,html-keyboard-response,308,284322,0.0-1.0-436.0,0,0,12,,152.0,,,51.0,62.0,62.0,2.0,easy,3000.0,1500.0,0.0,20.0,80.0,20.0,80.0,A,B,/static/Simple_RL/Stimuli/Fractals_stims/A.jpg,/static/Simple_RL/Stimuli/Fractals_stims/B.jpg,0.0,80.0,20.0,80.0,20.0,B,A,127.152,0.152,0.0,
309,,rl_choice_confirmation,,html-keyboard-response,309,285673,0.0-1.0-437.0-0.0,0,0,12,,,,,,62.0,,,,,,,,,,,,,,,,,,,,,,128.5,1.348,,
310,,isi,,html-keyboard-response,310,285774,0.0-1.0-439.0,0,0,12,,,,,,,,,,,,,,,,,,,,,,,,,,,,130.0,1.5,,
311,,feedback,,html-keyboard-response,311,286777,0.0-1.0-440.0-0.0,0,0,12,,,,,,62.0,,,,,,,,,,,,,,,,,,,,,,131.0,1.0,,
312,,iti,,html-keyboard-response,312,286878,0.0-1.0-441.0,0,0,12,,,,,,,,,,,,,,,,,,,,,,,,,,,,134.0,3.0,,
313,,rl_choice,,html-keyboard-response,313,287008,0.0-1.0-443.0,0,0,12,,128.0,,,51.0,63.0,63.0,2.0,hard,1000.0,1500.0,1.0,60.0,40.0,60.0,40.0,D,C,/static/Simple_RL/Stimuli/Fractals_stims/D.jpg,/static/Simple_RL/Stimuli/Fractals_stims/C.jpg,0.0,40.0,60.0,40.0,60.0,C,D,134.128,0.128,0.0,
314,,rl_choice_confirmation,,html-keyboard-response,314,288382,0.0-1.0-444.0-0.0,0,0,12,,,,,,63.0,,,,,,,,,,,,,,,,,,,,,,135.5,1.372,,
315,,isi,,html-keyboard-response,315,288483,0.0-1.0-446.0,0,0,12,,,,,,,,,,,,,,,,,,,,,,,,,,,,137.0,1.5,,
316,,feedback,,html-keyboard-response,316,289489,0.0-1.0-447.0-0.0,0,0,12,,,,,,63.0,,,,,,,,,,,,,,,,,,,,,,138.0,1.0,,
317,,iti,,html-keyboard-response,317,289591,0.0-1.0-448.0,0,0,12,,,,,,,,,,,,,,,,,,,,,,,,,,,,139.0,1.0,,
318,,rl_choice,,html-keyboard-response,318,289692,0.0-1.0-450.0,0,0,12,,99.0,,,50.0,64.0,64.0,2.0,hard,3500.0,1000.0,0.0,40.0,60.0,60.0,80.0,C,D,/static/Simple_RL/Stimuli/Fractals_stims/C.jpg,/static/Simple_RL/Stimuli/Fractals_stims/D.jpg,1.0,40.0,60.0,60.0,80.0,C,D,139.099,0.099,0.0,
319,,rl_choice_confirmation,,html-keyboard-response,319,291094,0.0-1.0-451.0-0.0,0,0,12,,,,,,64.0,,,,,,,,,,,,,,,,,,,,,,140.5,1.401,,
320,,isi,,html-keyboard-response,320,291199,0.0-1.0-453.0,0,0,12,,,,,,,,,,,,,,,,,,,,,,,,,,,,141.5,1.0,,
321,,feedback,,html-keyboard-response,321,292203,0.0-1.0-454.0-0.0,0,0,12,,,,,,64.0,,,,,,,,,,,,,,,,,,,,,,142.5,1.0,,
322,,iti,,html-keyboard-response,322,292308,0.0-1.0-455.0,0,0,12,,,,,,,,,,,,,,,,,,,,,,,,,,,,146.0,3.5,,
323,,rl_choice,,html-keyboard-response,323,292374,0.0-1.0-457.0,0,0,12,,63.0,,,51.0,65.0,65.0,2.0,easy,1500.0,1000.0,1.0,80.0,20.0,100.0,40.0,B,A,/static/Simple_RL/Stimuli/Fractals_stims/B.jpg,/static/Simple_RL/Stimuli/Fractals_stims/A.jpg,0.0,20.0,80.0,40.0,100.0,A,B,146.063,0.063,0.0,
324,,rl_choice_confirmation,,html-keyboard-response,324,293817,0.0-1.0-458.0-0.0,0,0,12,,,,,,65.0,,,,,,,,,,,,,,,,,,,,,,147.5,1.437,,
325,,isi,,html-keyboard-response,325,293918,0.0-1.0-460.0,0,0,12,,,,,,,,,,,,,,,,,,,,,,,,,,,,148.5,1.0,,
326,,feedback,,html-keyboard-response,326,294924,0.0-1.0-461.0-0.0,0,0,12,,,,,,65.0,,,,,,,,,,,,,,,,,,,,,,149.5,1.0,,
327,,iti,,html-keyboard-response,327,295025,0.0-1.0-462.0,0,0,12,,,,,,,,,,,,,,,,,,,,,,,,,,,,151.0,1.5,,
328,,rl_choice,,html-keyboard-response,328,295063,0.0-1.0-464.0,0,0,12,,37.0,,,51.0,66.0,66.0,2.0,hard,1500.0,3000.0,1.0,60.0,40.0,60.0,40.0,D,C,/static/Simple_RL/Stimuli/Fractals_stims/D.jpg,/static/Simple_RL/Stimuli/Fractals_stims/C.jpg,0.0,40.0,60.0,40.0,60.0,C,D,151.037,0.037,0.0,
329,,rl_choice_confirmation,,html-keyboard-response,329,296529,0.0-1.0-465.0-0.0,0,0,12,,,,,,66.0,,,,,,,,,,,,,,,,,,,,,,152.5,1.463,,
330,,isi,,html-keyboard-response,330,296633,0.0-1.0-467.0,0,0,12,,,,,,,,,,,,,,,,,,,,,,,,,,,,155.5,3.0,,
331,,feedback,,html-keyboard-response,331,297636,0.0-1.0-468.0-0.0,0,0,12,,,,,,66.0,,,,,,,,,,,,,,,,,,,,,,156.5,1.0,,
332,,iti,,html-keyboard-response,332,297739,0.0-1.0-469.0,0,0,12,,,,,,,,,,,,,,,,,,,,,,,,,,,,158.0,1.5,,
333,,rl_choice,,html-keyboard-response,333,297893,0.0-1.0-471.0,0,0,12,,153.0,,,50.0,67.0,67.0,2.0,hard,1500.0,1500.0,0.0,40.0,60.0,20.0,80.0,C,D,/static/Simple_RL/Stimuli/Fractals_stims/C.jpg,/static/Simple_RL/Stimuli/Fractals_stims/D.jpg,1.0,40.0,60.0,20.0,80.0,C,D,158.153,0.153,0.0,
334,,rl_choice_confirmation,,html-keyboard-response,334,299242,0.0-1.0-472.0-0.0,0,0,12,,,,,,67.0,,,,,,,,,,,,,,,,,,,,,,159.5,1.347,,
335,,isi,,html-keyboard-response,335,299345,0.0-1.0-474.0,0,0,12,,,,,,,,,,,,,,,,,,,,,,,,,,,,161.0,1.5,,
336,,feedback,,html-keyboard-response,336,300350,0.0-1.0-475.0-0.0,0,0,12,,,,,,67.0,,,,,,,,,,,,,,,,,,,,,,162.0,1.0,,
337,,iti,,html-keyboard-response,337,300454,0.0-1.0-476.0,0,0,12,,,,,,,,,,,,,,,,,,,,,,,,,,,,163.5,1.5,,
338,,rl_choice,,html-keyboard-response,338,300811,0.0-1.0-478.0,0,0,12,,356.0,,,51.0,68.0,68.0,2.0,hard,3000.0,1000.0,1.0,60.0,40.0,60.0,40.0,D,C,/static/Simple_RL/Stimuli/Fractals_stims/D.jpg,/static/Simple_RL/Stimuli/Fractals_stims/C.jpg,0.0,40.0,60.0,40.0,60.0,C,D,163.856,0.356,0.0,
339,,rl_choice_confirmation,,html-keyboard-response,339,301958,0.0-1.0-479.0-0.0,0,0,12,,,,,,68.0,,,,,,,,,,,,,,,,,,,,,,165.0,1.144,,
340,,isi,,html-keyboard-response,340,302062,0.0-1.0-481.0,0,0,12,,,,,,,,,,,,,,,,,,,,,,,,,,,,166.0,1.0,,
341,,feedback,,html-keyboard-response,341,303065,0.0-1.0-482.0-0.0,0,0,12,,,,,,68.0,,,,,,,,,,,,,,,,,,,,,,167.0,1.0,,
342,,iti,,html-keyboard-response,342,303169,0.0-1.0-483.0,0,0,12,,,,,,,,,,,,,,,,,,,,,,,,,,,,170.0,3.0,,
343,,rl_choice,,html-keyboard-response,343,303732,0.0-1.0-485.0,0,0,12,,561.0,,,51.0,69.0,69.0,2.0,easy,1000.0,1000.0,0.0,20.0,80.0,40.0,80.0,A,B,/static/Simple_RL/Stimuli/Fractals_stims/A.jpg,/static/Simple_RL/Stimuli/Fractals_stims/B.jpg,0.0,80.0,20.0,80.0,40.0,B,A,170.561,0.561,0.0,
344,,rl_choice_confirmation,,html-keyboard-response,344,304672,0.0-1.0-486.0-0.0,0,0,12,,,,,,69.0,,,,,,,,,,,,,,,,,,,,,,171.5,0.939,,
345,,isi,,html-keyboard-response,345,304775,0.0-1.0-488.0,0,0,12,,,,,,,,,,,,,,,,,,,,,,,,,,,,172.5,1.0,,
346,,feedback,,html-keyboard-response,346,305777,0.0-1.0-489.0-0.0,0,0,12,,,,,,69.0,,,,,,,,,,,,,,,,,,,,,,173.5,1.0,,
347,,iti,,html-keyboard-response,347,305878,0.0-1.0-490.0,0,0,12,,,,,,,,,,,,,,,,,,,,,,,,,,,,174.5,1.0,,
348,,rl_choice,,html-keyboard-response,348,306176,0.0-1.0-492.0,0,0,12,,295.0,,,51.0,70.0,70.0,2.0,easy,1500.0,1000.0,1.0,80.0,20.0,80.0,20.0,B,A,/static/Simple_RL/Stimuli/Fractals_stims/B.jpg,/static/Simple_RL/Stimuli/Fractals_stims/A.jpg,0.0,20.0,80.0,20.0,80.0,A,B,174.795,0.295,0.0,
349,,rl_choice_confirmation,,html-keyboard-response,349,307385,0.0-1.0-493.0-0.0,0,0,12,,,,,,70.0,,,,,,,,,,,,,,,,,,,,,,176.0,1.205,,
350,,isi,,html-keyboard-response,350,307489,0.0-1.0-495.0,0,0,12,,,,,,,,,,,,,,,,,,,,,,,,,,,,177.0,1.0,,
351,,feedback,,html-keyboard-response,351,308492,0.0-1.0-496.0-0.0,0,0,12,,,,,,70.0,,,,,,,,,,,,,,,,,,,,,,178.0,1.0,,
352,,iti,,html-keyboard-response,352,308595,0.0-1.0-497.0,0,0,12,,,,,,,,,,,,,,,,,,,,,,,,,,,,179.5,1.5,,
353,,rl_choice,,html-keyboard-response,353,308798,0.0-1.0-499.0,0,0,12,,202.0,,,50.0,71.0,71.0,2.0,easy,1500.0,1000.0,0.0,20.0,80.0,40.0,60.0,A,B,/static/Simple_RL/Stimuli/Fractals_stims/A.jpg,/static/Simple_RL/Stimuli/Fractals_stims/B.jpg,1.0,20.0,80.0,40.0,60.0,A,B,179.702,0.202,0.0,
354,,rl_choice_confirmation,,html-keyboard-response,354,310099,0.0-1.0-500.0-0.0,0,0,12,,,,,,71.0,,,,,,,,,,,,,,,,,,,,,,181.0,1.298,,
355,,isi,,html-keyboard-response,355,310204,0.0-1.0-502.0,0,0,12,,,,,,,,,,,,,,,,,,,,,,,,,,,,182.0,1.0,,
356,,feedback,,html-keyboard-response,356,311211,0.0-1.0-503.0-0.0,0,0,12,,,,,,71.0,,,,,,,,,,,,,,,,,,,,,,183.0,1.0,,
357,,iti,,html-keyboard-response,357,311315,0.0-1.0-504.0,0,0,12,,,,,,,,,,,,,,,,,,,,,,,,,,,,184.5,1.5,,
358,,rl_choice,,html-keyboard-response,358,311329,0.0-1.0-506.0,0,0,12,,13.0,,,51.0,72.0,72.0,2.0,easy,2000.0,3000.0,0.0,20.0,80.0,20.0,100.0,A,B,/static/Simple_RL/Stimuli/Fractals_stims/A.jpg,/static/Simple_RL/Stimuli/Fractals_stims/B.jpg,0.0,80.0,20.0,100.0,20.0,B,A,184.513,0.013,0.0,
359,,rl_choice_confirmation,,html-keyboard-response,359,312822,0.0-1.0-507.0-0.0,0,0,12,,,,,,72.0,,,,,,,,,,,,,,,,,,,,,,186.0,1.487,,
360,,isi,,html-keyboard-response,360,312928,0.0-1.0-509.0,0,0,12,,,,,,,,,,,,,,,,,,,,,,,,,,,,189.0,3.0,,
361,,feedback,,html-keyboard-response,361,313932,0.0-1.0-510.0-0.0,0,0,12,,,,,,72.0,,,,,,,,,,,,,,,,,,,,,,190.0,1.0,,
362,,iti,,html-keyboard-response,362,314035,0.0-1.0-511.0,0,0,12,,,,,,,,,,,,,,,,,,,,,,,,,,,,192.0,2.0,,
363,,rl_choice,,html-keyboard-response,363,314109,0.0-1.0-513.0,0,0,12,,73.0,,,51.0,73.0,73.0,2.0,easy,1000.0,3500.0,0.0,20.0,80.0,40.0,60.0,A,B,/static/Simple_RL/Stimuli/Fractals_stims/A.jpg,/static/Simple_RL/Stimuli/Fractals_stims/B.jpg,0.0,80.0,20.0,60.0,40.0,B,A,192.073,0.073,0.0,
364,,rl_choice_confirmation,,html-keyboard-response,364,315539,0.0-1.0-514.0-0.0,0,0,12,,,,,,73.0,,,,,,,,,,,,,,,,,,,,,,193.5,1.427,,
365,,isi,,html-keyboard-response,365,315641,0.0-1.0-516.0,0,0,12,,,,,,,,,,,,,,,,,,,,,,,,,,,,197.0,3.5,,
366,,feedback,,html-keyboard-response,366,316643,0.0-1.0-517.0-0.0,0,0,12,,,,,,73.0,,,,,,,,,,,,,,,,,,,,,,198.0,1.0,,
367,,iti,,html-keyboard-response,367,316748,0.0-1.0-518.0,0,0,12,,,,,,,,,,,,,,,,,,,,,,,,,,,,199.0,1.0,,
368,,rl_choice,,html-keyboard-response,368,316896,0.0-1.0-520.0,0,0,12,,147.0,,,50.0,74.0,74.0,2.0,hard,3000.0,1000.0,0.0,40.0,60.0,40.0,40.0,C,D,/static/Simple_RL/Stimuli/Fractals_stims/C.jpg,/static/Simple_RL/Stimuli/Fractals_stims/D.jpg,1.0,40.0,60.0,40.0,40.0,C,D,199.147,0.147,0.0,
369,,rl_choice_confirmation,,html-keyboard-response,369,318254,0.0-1.0-521.0-0.0,0,0,12,,,,,,74.0,,,,,,,,,,,,,,,,,,,,,,200.5,1.353,,
370,,isi,,html-keyboard-response,370,318356,0.0-1.0-523.0,0,0,12,,,,,,,,,,,,,,,,,,,,,,,,,,,,201.5,1.0,,
371,,feedback,,html-keyboard-response,371,319361,0.0-1.0-524.0-0.0,0,0,12,,,,,,74.0,,,,,,,,,,,,,,,,,,,,,,202.5,1.0,,
372,,iti,,html-keyboard-response,372,319465,0.0-1.0-525.0,0,0,12,,,,,,,,,,,,,,,,,,,,,,,,,,,,205.5,3.0,,
373,,rl_choice,,html-keyboard-response,373,319793,0.0-1.0-527.0,0,0,12,,327.0,,,51.0,75.0,75.0,2.0,easy,1000.0,1000.0,0.0,20.0,80.0,0.0,60.0,A,B,/static/Simple_RL/Stimuli/Fractals_stims/A.jpg,/static/Simple_RL/Stimuli/Fractals_stims/B.jpg,0.0,80.0,20.0,60.0,0.0,B,A,205.827,0.327,0.0,
374,,rl_choice_confirmation,,html-keyboard-response,374,320969,0.0-1.0-528.0-0.0,0,0,12,,,,,,75.0,,,,,,,,,,,,,,,,,,,,,,207.0,1.173,,
375,,isi,,html-keyboard-response,375,321070,0.0-1.0-530.0,0,0,12,,,,,,,,,,,,,,,,,,,,,,,,,,,,208.0,1.0,,
376,,feedback,,html-keyboard-response,376,322073,0.0-1.0-531.0-0.0,0,0,12,,,,,,75.0,,,,,,,,,,,,,,,,,,,,,,209.0,1.0,,
377,,iti,,html-keyboard-response,377,322176,0.0-1.0-532.0,0,0,12,,,,,,,,,,,,,,,,,,,,,,,,,,,,210.0,1.0,,
378,,rl_choice,,html-keyboard-response,378,322261,0.0-1.0-534.0,0,0,12,,84.0,,,50.0,76.0,76.0,2.0,easy,2000.0,1500.0,1.0,80.0,20.0,100.0,20.0,B,A,/static/Simple_RL/Stimuli/Fractals_stims/B.jpg,/static/Simple_RL/Stimuli/Fractals_stims/A.jpg,1.0,80.0,20.0,100.0,20.0,B,A,210.084,0.084,0.0,
379,,rl_choice_confirmation,,html-keyboard-response,379,323681,0.0-1.0-535.0-0.0,0,0,12,,,,,,76.0,,,,,,,,,,,,,,,,,,,,,,211.5,1.416,,
380,,isi,,html-keyboard-response,380,323782,0.0-1.0-537.0,0,0,12,,,,,,,,,,,,,,,,,,,,,,,,,,,,213.0,1.5,,
381,,feedback,,html-keyboard-response,381,324785,0.0-1.0-538.0-0.0,0,0,12,,,,,,76.0,,,,,,,,,,,,,,,,,,,,,,214.0,1.0,,
382,,iti,,html-keyboard-response,382,324891,0.0-1.0-539.0,0,0,12,,,,,,,,,,,,,,,,,,,,,,,,,,,,216.0,2.0,,
383,,rl_choice,,html-keyboard-response,383,324984,0.0-1.0-541.0,0,0,12,,92.0,,,51.0,77.0,77.0,2.0,easy,1000.0,1000.0,0.0,20.0,80.0,0.0,80.0,A,B,/static/Simple_RL/Stimuli/Fractals_stims/A.jpg,/static/Simple_RL/Stimuli/Fractals_stims/B.jpg,0.0,80.0,20.0,80.0,0.0,B,A,216.092,0.092,0.0,
384,,rl_choice_confirmation,,html-keyboard-response,384,326396,0.0-1.0-542.0-0.0,0,0,12,,,,,,77.0,,,,,,,,,,,,,,,,,,,,,,217.5,1.408,,
385,,isi,,html-keyboard-response,385,326497,0.0-1.0-544.0,0,0,12,,,,,,,,,,,,,,,,,,,,,,,,,,,,218.5,1.0,,
386,,feedback,,html-keyboard-response,386,327500,0.0-1.0-545.0-0.0,0,0,12,,,,,,77.0,,,,,,,,,,,,,,,,,,,,,,219.5,1.0,,
387,,iti,,html-keyboard-response,387,327601,0.0-1.0-546.0,0,0,12,,,,,,,,,,,,,,,,,,,,,,,,,,,,220.5,1.0,,
388,,rl_choice,,html-keyboard-response,388,327905,0.0-1.0-548.0,0,0,12,,303.0,,,50.0,78.0,78.0,2.0,hard,1500.0,1000.0,0.0,40.0,60.0,20.0,60.0,C,D,/static/Simple_RL/Stimuli/Fractals_stims/C.jpg,/static/Simple_RL/Stimuli/Fractals_stims/D.jpg,1.0,40.0,60.0,20.0,60.0,C,D,220.803,0.303,0.0,
389,,rl_choice_confirmation,,html-keyboard-response,389,329105,0.0-1.0-549.0-0.0,0,0,12,,,,,,78.0,,,,,,,,,,,,,,,,,,,,,,222.0,1.197,,
390,,isi,,html-keyboard-response,390,329211,0.0-1.0-551.0,0,0,12,,,,,,,,,,,,,,,,,,,,,,,,,,,,223.0,1.0,,
391,,feedback,,html-keyboard-response,391,330215,0.0-1.0-552.0-0.0,0,0,12,,,,,,78.0,,,,,,,,,,,,,,,,,,,,,,224.0,1.0,,
392,,iti,,html-keyboard-response,392,330318,0.0-1.0-553.0,0,0,12,,,,,,,,,,,,,,,,,,,,,,,,,,,,225.5,1.5,,
393,,rl_choice,,html-keyboard-response,393,330329,0.0-1.0-555.0,0,0,12,,9.0,,,51.0,79.0,79.0,2.0,easy,2000.0,2000.0,1.0,80.0,20.0,100.0,0.0,B,A,/static/Simple_RL/Stimuli/Fractals_stims/B.jpg,/static/Simple_RL/Stimuli/Fractals_stims/A.jpg,0.0,20.0,80.0,0.0,100.0,A,B,225.509,0.009,0.0,
394,,rl_choice_confirmation,,html-keyboard-response,394,331825,0.0-1.0-556.0-0.0,0,0,12,,,,,,79.0,,,,,,,,,,,,,,,,,,,,,,227.0,1.491,,
395,,isi,,html-keyboard-response,395,331926,0.0-1.0-558.0,0,0,12,,,,,,,,,,,,,,,,,,,,,,,,,,,,229.0,2.0,,
396,,feedback,,html-keyboard-response,396,332929,0.0-1.0-559.0-0.0,0,0,12,,,,,,79.0,,,,,,,,,,,,,,,,,,,,,,230.0,1.0,,
397,,iti,,html-keyboard-response,397,333030,0.0-1.0-560.0,0,0,12,,,,,,,,,,,,,,,,,,,,,,,,,,,,232.0,2.0,,1.38
398,,final_tally,,html-keyboard-response,398,333436,0.0-2.0,0,0,12,,403.0,,,50.0,,,,,,,,,,,,,,,,,,,,,,,,,,
399,,,,html-keyboard-response,399,333831,0.0-3.0,0,0,12,,376.0,,,50.0,,,,,,,,,,,,,,,,,,,,,,,,,,
