,success,ttype,start_time,trial_type,trial_index,time_elapsed,internal_node_id,warning,missed_checkup,PID,view_history,rt,responses,repeat_instructions,key_press,index,trial_num,block,condition,iti,isi,high_group_on_left,left_group_value,right_group_value,left_item_value,right_item_value,left_img,right_img,left_img_path,right_img_path,left_chosen,chosen_group_value,unchosen_group_value,chosen_item_value,unchosen_item_value,chosen_img,unchosen_img,onset,duration,no_response,total_bonus_tally
0,True,full_screen,d06152022hr2204,fullscreen,0,33327,0.0-0.0,0,0,99,,,,,,,,,,,,,,,,,,,,,,,,,,,,,,,
1,,size_instructions,,instructions,1,133919,0.0-1.0-0.0-0.0,0,0,99,"[{""page_index"":0,""viewing_time"":16328},{""page_index"":1,""viewing_time"":21065},{""page_index"":2,""viewing_time"":19251},{""page_index"":3,""viewing_time"":12091},{""page_index"":4,""viewing_time"":9010},{""page_index"":5,""viewing_time"":22844}]",100590.0,,,,,,,,,,,,,,,,,,,,,,,,,,,,,
2,,rl_comprehension_check,,survey-multi-choice,2,158130,0.0-1.0-0.0-1.0,0,0,99,,24207.0,"{""Q0"":""True"",""Q1"":""True"",""Q2"":""pointer finger for left and middle finger for right""}",0.0,,,,,,,,,,,,,,,,,,,,,,,,,,,
3,,,,html-keyboard-response,3,162617,0.0-1.0-1.0,0,0,99,,4484.0,,,83.0,,,,,,,,,,,,,,,,,,,,,,,,,,
4,,start_run,,html-keyboard-response,4,184692,0.0-1.0-2.0,0,0,99,,22073.0,,,84.0,,,,,,,,,,,,,,,,,,,,,,,,,,
5,,rl_choice,,html-keyboard-response,5,185784,0.0-1.0-3.0,0,0,99,,1090.0,,,50.0,0.0,0.0,1.0,hard,2000.0,1000.0,0.0,40.0,60.0,60.0,40.0,D,C,/static/Simple_RL/Stimuli/Fractals_stims/D.jpg,/static/Simple_RL/Stimuli/Fractals_stims/C.jpg,1.0,40.0,60.0,60.0,40.0,D,C,0.0,1.09,0.0,
6,,rl_choice_confirmation,,html-keyboard-response,6,186196,0.0-1.0-4.0-0.0,0,0,99,,,,,,0.0,,1.0,,,,,,,,,,,,,,,,,,,,1.09,0.41,,
7,,isi,,html-keyboard-response,7,187198,0.0-1.0-6.0,0,0,99,,,,,,0.0,,1.0,,,,,,,,,,,,,,,,,,,,1.5,1.0,,
8,,feedback,,html-keyboard-response,8,188201,0.0-1.0-7.0-0.0,0,0,99,,,,,,0.0,,1.0,,,,,,,,,,,,,,,,,,,,2.5,1.0,,
9,,iti,,html-keyboard-response,9,190206,0.0-1.0-8.0,0,0,99,,,,,,0.0,,1.0,,,,,,,,,,,,,,,,,,,,3.5,2.0,,
10,,rl_choice,,html-keyboard-response,10,190749,0.0-1.0-10.0,0,0,99,,541.0,,,50.0,1.0,1.0,1.0,hard,1000.0,1000.0,0.0,40.0,60.0,20.0,40.0,D,C,/static/Simple_RL/Stimuli/Fractals_stims/D.jpg,/static/Simple_RL/Stimuli/Fractals_stims/C.jpg,1.0,40.0,60.0,20.0,40.0,D,C,5.5,0.541,0.0,
11,,rl_choice_confirmation,,html-keyboard-response,11,191710,0.0-1.0-11.0-0.0,0,0,99,,,,,,1.0,,1.0,,,,,,,,,,,,,,,,,,,,6.041,0.959,,
12,,isi,,html-keyboard-response,12,192713,0.0-1.0-13.0,0,0,99,,,,,,1.0,,1.0,,,,,,,,,,,,,,,,,,,,7.0,1.0,,
13,,feedback,,html-keyboard-response,13,193715,0.0-1.0-14.0-0.0,0,0,99,,,,,,1.0,,1.0,,,,,,,,,,,,,,,,,,,,8.0,1.0,,
14,,iti,,html-keyboard-response,14,194718,0.0-1.0-15.0,0,0,99,,,,,,1.0,,1.0,,,,,,,,,,,,,,,,,,,,9.0,1.0,,
15,,rl_choice,,html-keyboard-response,15,195657,0.0-1.0-17.0,0,0,99,,938.0,,,50.0,2.0,2.0,1.0,easy,1000.0,1000.0,0.0,20.0,80.0,40.0,60.0,B,A,/static/Simple_RL/Stimuli/Fractals_stims/B.jpg,/static/Simple_RL/Stimuli/Fractals_stims/A.jpg,1.0,20.0,80.0,40.0,60.0,B,A,10.0,0.938,0.0,
16,,rl_choice_confirmation,,html-keyboard-response,16,196222,0.0-1.0-18.0-0.0,0,0,99,,,,,,2.0,,1.0,,,,,,,,,,,,,,,,,,,,10.938,0.562,,
17,,isi,,html-keyboard-response,17,197225,0.0-1.0-20.0,0,0,99,,,,,,2.0,,1.0,,,,,,,,,,,,,,,,,,,,11.5,1.0,,
18,,feedback,,html-keyboard-response,18,198227,0.0-1.0-21.0-0.0,0,0,99,,,,,,2.0,,1.0,,,,,,,,,,,,,,,,,,,,12.5,1.0,,
19,,iti,,html-keyboard-response,19,199230,0.0-1.0-22.0,0,0,99,,,,,,2.0,,1.0,,,,,,,,,,,,,,,,,,,,13.5,1.0,,
20,,rl_choice,,html-keyboard-response,20,200029,0.0-1.0-24.0,0,0,99,,798.0,,,50.0,3.0,3.0,1.0,easy,3000.0,3000.0,1.0,80.0,20.0,100.0,40.0,A,B,/static/Simple_RL/Stimuli/Fractals_stims/A.jpg,/static/Simple_RL/Stimuli/Fractals_stims/B.jpg,1.0,80.0,20.0,100.0,40.0,A,B,14.5,0.798,0.0,
21,,rl_choice_confirmation,,html-keyboard-response,21,200734,0.0-1.0-25.0-0.0,0,0,99,,,,,,3.0,,1.0,,,,,,,,,,,,,,,,,,,,15.298,0.702,,
22,,isi,,html-keyboard-response,22,203737,0.0-1.0-27.0,0,0,99,,,,,,3.0,,1.0,,,,,,,,,,,,,,,,,,,,16.0,3.0,,
23,,feedback,,html-keyboard-response,23,204739,0.0-1.0-28.0-0.0,0,0,99,,,,,,3.0,,1.0,,,,,,,,,,,,,,,,,,,,19.0,1.0,,
24,,iti,,html-keyboard-response,24,207742,0.0-1.0-29.0,0,0,99,,,,,,3.0,,1.0,,,,,,,,,,,,,,,,,,,,20.0,3.0,,
25,,rl_choice,,html-keyboard-response,25,208644,0.0-1.0-31.0,0,0,99,,900.0,,,50.0,4.0,4.0,1.0,hard,1000.0,1000.0,0.0,40.0,60.0,40.0,80.0,D,C,/static/Simple_RL/Stimuli/Fractals_stims/D.jpg,/static/Simple_RL/Stimuli/Fractals_stims/C.jpg,1.0,40.0,60.0,40.0,80.0,D,C,23.0,0.9,0.0,
26,,rl_choice_confirmation,,html-keyboard-response,26,209246,0.0-1.0-32.0-0.0,0,0,99,,,,,,4.0,,1.0,,,,,,,,,,,,,,,,,,,,23.9,0.6,,
27,,isi,,html-keyboard-response,27,210249,0.0-1.0-34.0,0,0,99,,,,,,4.0,,1.0,,,,,,,,,,,,,,,,,,,,24.5,1.0,,
28,,feedback,,html-keyboard-response,28,211253,0.0-1.0-35.0-0.0,0,0,99,,,,,,4.0,,1.0,,,,,,,,,,,,,,,,,,,,25.5,1.0,,
29,,iti,,html-keyboard-response,29,212259,0.0-1.0-36.0,0,0,99,,,,,,4.0,,1.0,,,,,,,,,,,,,,,,,,,,26.5,1.0,,
30,,rl_choice,,html-keyboard-response,30,213021,0.0-1.0-38.0,0,0,99,,761.0,,,51.0,5.0,5.0,1.0,hard,3000.0,1000.0,1.0,60.0,40.0,60.0,60.0,C,D,/static/Simple_RL/Stimuli/Fractals_stims/C.jpg,/static/Simple_RL/Stimuli/Fractals_stims/D.jpg,0.0,40.0,60.0,60.0,60.0,D,C,27.5,0.761,0.0,
31,,rl_choice_confirmation,,html-keyboard-response,31,213762,0.0-1.0-39.0-0.0,0,0,99,,,,,,5.0,,1.0,,,,,,,,,,,,,,,,,,,,28.261,0.739,,
32,,isi,,html-keyboard-response,32,214763,0.0-1.0-41.0,0,0,99,,,,,,5.0,,1.0,,,,,,,,,,,,,,,,,,,,29.0,1.0,,
33,,feedback,,html-keyboard-response,33,215766,0.0-1.0-42.0-0.0,0,0,99,,,,,,5.0,,1.0,,,,,,,,,,,,,,,,,,,,30.0,1.0,,
34,,iti,,html-keyboard-response,34,218771,0.0-1.0-43.0,0,0,99,,,,,,5.0,,1.0,,,,,,,,,,,,,,,,,,,,31.0,3.0,,
35,,rl_choice,,html-keyboard-response,35,219501,0.0-1.0-45.0,0,0,99,,727.0,,,51.0,6.0,6.0,1.0,easy,1000.0,2000.0,0.0,20.0,80.0,40.0,100.0,B,A,/static/Simple_RL/Stimuli/Fractals_stims/B.jpg,/static/Simple_RL/Stimuli/Fractals_stims/A.jpg,0.0,80.0,20.0,100.0,40.0,A,B,34.0,0.727,0.0,
36,,rl_choice_confirmation,,html-keyboard-response,36,220275,0.0-1.0-46.0-0.0,0,0,99,,,,,,6.0,,1.0,,,,,,,,,,,,,,,,,,,,34.727,0.773,,
37,,isi,,html-keyboard-response,37,222281,0.0-1.0-48.0,0,0,99,,,,,,6.0,,1.0,,,,,,,,,,,,,,,,,,,,35.5,2.0,,
38,,feedback,,html-keyboard-response,38,223283,0.0-1.0-49.0-0.0,0,0,99,,,,,,6.0,,1.0,,,,,,,,,,,,,,,,,,,,37.5,1.0,,
39,,iti,,html-keyboard-response,39,224286,0.0-1.0-50.0,0,0,99,,,,,,6.0,,1.0,,,,,,,,,,,,,,,,,,,,38.5,1.0,,
40,,rl_choice,,html-keyboard-response,40,225300,0.0-1.0-52.0,0,0,99,,1012.0,,,50.0,7.0,7.0,1.0,hard,3000.0,1500.0,0.0,40.0,60.0,20.0,80.0,D,C,/static/Simple_RL/Stimuli/Fractals_stims/D.jpg,/static/Simple_RL/Stimuli/Fractals_stims/C.jpg,1.0,40.0,60.0,20.0,80.0,D,C,39.5,1.012,0.0,
41,,rl_choice_confirmation,,html-keyboard-response,41,225789,0.0-1.0-53.0-0.0,0,0,99,,,,,,7.0,,1.0,,,,,,,,,,,,,,,,,,,,40.512,0.488,,
42,,isi,,html-keyboard-response,42,227294,0.0-1.0-55.0,0,0,99,,,,,,7.0,,1.0,,,,,,,,,,,,,,,,,,,,41.0,1.5,,
43,,feedback,,html-keyboard-response,43,228297,0.0-1.0-56.0-0.0,0,0,99,,,,,,7.0,,1.0,,,,,,,,,,,,,,,,,,,,42.5,1.0,,
44,,iti,,html-keyboard-response,44,231299,0.0-1.0-57.0,0,0,99,,,,,,7.0,,1.0,,,,,,,,,,,,,,,,,,,,43.5,3.0,,
45,,rl_choice,,html-keyboard-response,45,231927,0.0-1.0-59.0,0,0,99,,627.0,,,51.0,8.0,8.0,1.0,easy,1000.0,1000.0,0.0,20.0,80.0,0.0,100.0,B,A,/static/Simple_RL/Stimuli/Fractals_stims/B.jpg,/static/Simple_RL/Stimuli/Fractals_stims/A.jpg,0.0,80.0,20.0,100.0,0.0,A,B,46.5,0.627,0.0,
46,,rl_choice_confirmation,,html-keyboard-response,46,232803,0.0-1.0-60.0-0.0,0,0,99,,,,,,8.0,,1.0,,,,,,,,,,,,,,,,,,,,47.127,0.873,,
47,,isi,,html-keyboard-response,47,233806,0.0-1.0-62.0,0,0,99,,,,,,8.0,,1.0,,,,,,,,,,,,,,,,,,,,48.0,1.0,,
48,,feedback,,html-keyboard-response,48,234808,0.0-1.0-63.0-0.0,0,0,99,,,,,,8.0,,1.0,,,,,,,,,,,,,,,,,,,,49.0,1.0,,
49,,iti,,html-keyboard-response,49,235811,0.0-1.0-64.0,0,0,99,,,,,,8.0,,1.0,,,,,,,,,,,,,,,,,,,,50.0,1.0,,
50,,rl_choice,,html-keyboard-response,50,236771,0.0-1.0-66.0,0,0,99,,959.0,,,51.0,9.0,9.0,1.0,hard,1500.0,2000.0,1.0,60.0,40.0,60.0,40.0,C,D,/static/Simple_RL/Stimuli/Fractals_stims/C.jpg,/static/Simple_RL/Stimuli/Fractals_stims/D.jpg,0.0,40.0,60.0,40.0,60.0,D,C,51.0,0.959,0.0,
51,,rl_choice_confirmation,,html-keyboard-response,51,237316,0.0-1.0-67.0-0.0,0,0,99,,,,,,9.0,,1.0,,,,,,,,,,,,,,,,,,,,51.959,0.541,,
52,,isi,,html-keyboard-response,52,239320,0.0-1.0-69.0,0,0,99,,,,,,9.0,,1.0,,,,,,,,,,,,,,,,,,,,52.5,2.0,,
53,,feedback,,html-keyboard-response,53,240323,0.0-1.0-70.0-0.0,0,0,99,,,,,,9.0,,1.0,,,,,,,,,,,,,,,,,,,,54.5,1.0,,
54,,iti,,html-keyboard-response,54,241827,0.0-1.0-71.0,0,0,99,,,,,,9.0,,1.0,,,,,,,,,,,,,,,,,,,,55.5,1.5,,
55,,rl_choice,,html-keyboard-response,55,242605,0.0-1.0-73.0,0,0,99,,777.0,,,50.0,10.0,10.0,1.0,easy,1000.0,1000.0,1.0,80.0,20.0,60.0,0.0,A,B,/static/Simple_RL/Stimuli/Fractals_stims/A.jpg,/static/Simple_RL/Stimuli/Fractals_stims/B.jpg,1.0,80.0,20.0,60.0,0.0,A,B,57.0,0.777,0.0,
56,,rl_choice_confirmation,,html-keyboard-response,56,243331,0.0-1.0-74.0-0.0,0,0,99,,,,,,10.0,,1.0,,,,,,,,,,,,,,,,,,,,57.777,0.723,,
57,,isi,,html-keyboard-response,57,244334,0.0-1.0-76.0,0,0,99,,,,,,10.0,,1.0,,,,,,,,,,,,,,,,,,,,58.5,1.0,,
58,,feedback,,html-keyboard-response,58,245336,0.0-1.0-77.0-0.0,0,0,99,,,,,,10.0,,1.0,,,,,,,,,,,,,,,,,,,,59.5,1.0,,
59,,iti,,html-keyboard-response,59,246339,0.0-1.0-78.0,0,0,99,,,,,,10.0,,1.0,,,,,,,,,,,,,,,,,,,,60.5,1.0,,
60,,rl_choice,,html-keyboard-response,60,246993,0.0-1.0-80.0,0,0,99,,653.0,,,51.0,11.0,11.0,1.0,hard,3500.0,1000.0,0.0,40.0,60.0,20.0,60.0,D,C,/static/Simple_RL/Stimuli/Fractals_stims/D.jpg,/static/Simple_RL/Stimuli/Fractals_stims/C.jpg,0.0,60.0,40.0,60.0,20.0,C,D,61.5,0.653,0.0,
61,,rl_choice_confirmation,,html-keyboard-response,61,247843,0.0-1.0-81.0-0.0,0,0,99,,,,,,11.0,,1.0,,,,,,,,,,,,,,,,,,,,62.153,0.847,,
62,,isi,,html-keyboard-response,62,248847,0.0-1.0-83.0,0,0,99,,,,,,11.0,,1.0,,,,,,,,,,,,,,,,,,,,63.0,1.0,,
63,,feedback,,html-keyboard-response,63,249854,0.0-1.0-84.0-0.0,0,0,99,,,,,,11.0,,1.0,,,,,,,,,,,,,,,,,,,,64.0,1.0,,
64,,iti,,html-keyboard-response,64,253358,0.0-1.0-85.0,0,0,99,,,,,,11.0,,1.0,,,,,,,,,,,,,,,,,,,,65.0,3.5,,
65,,rl_choice,,html-keyboard-response,65,254364,0.0-1.0-87.0,0,0,99,,1005.0,,,50.0,12.0,12.0,1.0,hard,1000.0,1000.0,1.0,60.0,40.0,80.0,20.0,C,D,/static/Simple_RL/Stimuli/Fractals_stims/C.jpg,/static/Simple_RL/Stimuli/Fractals_stims/D.jpg,1.0,60.0,40.0,80.0,20.0,C,D,68.5,1.005,0.0,
66,,rl_choice_confirmation,,html-keyboard-response,66,254865,0.0-1.0-88.0-0.0,0,0,99,,,,,,12.0,,1.0,,,,,,,,,,,,,,,,,,,,69.505,0.495,,
67,,isi,,html-keyboard-response,67,255870,0.0-1.0-90.0,0,0,99,,,,,,12.0,,1.0,,,,,,,,,,,,,,,,,,,,70.0,1.0,,
68,,feedback,,html-keyboard-response,68,256872,0.0-1.0-91.0-0.0,0,0,99,,,,,,12.0,,1.0,,,,,,,,,,,,,,,,,,,,71.0,1.0,,
69,,iti,,html-keyboard-response,69,257875,0.0-1.0-92.0,0,0,99,,,,,,12.0,,1.0,,,,,,,,,,,,,,,,,,,,72.0,1.0,,
70,,rl_choice,,html-keyboard-response,70,258571,0.0-1.0-94.0,0,0,99,,695.0,,,50.0,13.0,13.0,1.0,hard,2000.0,2000.0,1.0,60.0,40.0,40.0,40.0,C,D,/static/Simple_RL/Stimuli/Fractals_stims/C.jpg,/static/Simple_RL/Stimuli/Fractals_stims/D.jpg,1.0,60.0,40.0,40.0,40.0,C,D,73.0,0.695,0.0,
71,,rl_choice_confirmation,,html-keyboard-response,71,259379,0.0-1.0-95.0-0.0,0,0,99,,,,,,13.0,,1.0,,,,,,,,,,,,,,,,,,,,73.695,0.805,,
72,,isi,,html-keyboard-response,72,261384,0.0-1.0-97.0,0,0,99,,,,,,13.0,,1.0,,,,,,,,,,,,,,,,,,,,74.5,2.0,,
73,,feedback,,html-keyboard-response,73,262387,0.0-1.0-98.0-0.0,0,0,99,,,,,,13.0,,1.0,,,,,,,,,,,,,,,,,,,,76.5,1.0,,
74,,iti,,html-keyboard-response,74,264392,0.0-1.0-99.0,0,0,99,,,,,,13.0,,1.0,,,,,,,,,,,,,,,,,,,,77.5,2.0,,
75,,rl_choice,,html-keyboard-response,75,265250,0.0-1.0-101.0,0,0,99,,855.0,,,50.0,14.0,14.0,1.0,easy,1000.0,3500.0,1.0,80.0,20.0,80.0,20.0,A,B,/static/Simple_RL/Stimuli/Fractals_stims/A.jpg,/static/Simple_RL/Stimuli/Fractals_stims/B.jpg,1.0,80.0,20.0,80.0,20.0,A,B,79.5,0.855,0.0,
76,,rl_choice_confirmation,,html-keyboard-response,76,265896,0.0-1.0-102.0-0.0,0,0,99,,,,,,14.0,,1.0,,,,,,,,,,,,,,,,,,,,80.355,0.645,,
77,,isi,,html-keyboard-response,77,269400,0.0-1.0-104.0,0,0,99,,,,,,14.0,,1.0,,,,,,,,,,,,,,,,,,,,81.0,3.5,,
78,,feedback,,html-keyboard-response,78,270403,0.0-1.0-105.0-0.0,0,0,99,,,,,,14.0,,1.0,,,,,,,,,,,,,,,,,,,,84.5,1.0,,
79,,iti,,html-keyboard-response,79,271405,0.0-1.0-106.0,0,0,99,,,,,,14.0,,1.0,,,,,,,,,,,,,,,,,,,,85.5,1.0,,
80,,rl_choice,,html-keyboard-response,80,272367,0.0-1.0-108.0,0,0,99,,961.0,,,51.0,15.0,15.0,1.0,easy,2000.0,2000.0,0.0,20.0,80.0,20.0,60.0,B,A,/static/Simple_RL/Stimuli/Fractals_stims/B.jpg,/static/Simple_RL/Stimuli/Fractals_stims/A.jpg,0.0,80.0,20.0,60.0,20.0,A,B,86.5,0.961,0.0,
81,,rl_choice_confirmation,,html-keyboard-response,81,272910,0.0-1.0-109.0-0.0,0,0,99,,,,,,15.0,,1.0,,,,,,,,,,,,,,,,,,,,87.461,0.539,,
82,,isi,,html-keyboard-response,82,274915,0.0-1.0-111.0,0,0,99,,,,,,15.0,,1.0,,,,,,,,,,,,,,,,,,,,88.0,2.0,,
83,,feedback,,html-keyboard-response,83,275919,0.0-1.0-112.0-0.0,0,0,99,,,,,,15.0,,1.0,,,,,,,,,,,,,,,,,,,,90.0,1.0,,
84,,iti,,html-keyboard-response,84,277923,0.0-1.0-113.0,0,0,99,,,,,,15.0,,1.0,,,,,,,,,,,,,,,,,,,,91.0,2.0,,
85,,rl_choice,,html-keyboard-response,85,278645,0.0-1.0-115.0,0,0,99,,721.0,,,50.0,16.0,16.0,1.0,hard,1000.0,1500.0,0.0,40.0,60.0,20.0,80.0,D,C,/static/Simple_RL/Stimuli/Fractals_stims/D.jpg,/static/Simple_RL/Stimuli/Fractals_stims/C.jpg,1.0,40.0,60.0,20.0,80.0,D,C,93.0,0.721,0.0,
86,,rl_choice_confirmation,,html-keyboard-response,86,279427,0.0-1.0-116.0-0.0,0,0,99,,,,,,16.0,,1.0,,,,,,,,,,,,,,,,,,,,93.721,0.779,,
87,,isi,,html-keyboard-response,87,280933,0.0-1.0-118.0,0,0,99,,,,,,16.0,,1.0,,,,,,,,,,,,,,,,,,,,94.5,1.5,,
88,,feedback,,html-keyboard-response,88,281936,0.0-1.0-119.0-0.0,0,0,99,,,,,,16.0,,1.0,,,,,,,,,,,,,,,,,,,,96.0,1.0,,
89,,iti,,html-keyboard-response,89,282942,0.0-1.0-120.0,0,0,99,,,,,,16.0,,1.0,,,,,,,,,,,,,,,,,,,,97.0,1.0,,
90,,rl_choice,,html-keyboard-response,90,283789,0.0-1.0-122.0,0,0,99,,846.0,,,51.0,17.0,17.0,1.0,hard,1000.0,1500.0,1.0,60.0,40.0,60.0,20.0,C,D,/static/Simple_RL/Stimuli/Fractals_stims/C.jpg,/static/Simple_RL/Stimuli/Fractals_stims/D.jpg,0.0,40.0,60.0,20.0,60.0,D,C,98.0,0.846,0.0,
91,,rl_choice_confirmation,,html-keyboard-response,91,284446,0.0-1.0-123.0-0.0,0,0,99,,,,,,17.0,,1.0,,,,,,,,,,,,,,,,,,,,98.846,0.654,,
92,,isi,,html-keyboard-response,92,285950,0.0-1.0-125.0,0,0,99,,,,,,17.0,,1.0,,,,,,,,,,,,,,,,,,,,99.5,1.5,,
93,,feedback,,html-keyboard-response,93,286952,0.0-1.0-126.0-0.0,0,0,99,,,,,,17.0,,1.0,,,,,,,,,,,,,,,,,,,,101.0,1.0,,
94,,iti,,html-keyboard-response,94,287954,0.0-1.0-127.0,0,0,99,,,,,,17.0,,1.0,,,,,,,,,,,,,,,,,,,,102.0,1.0,,
95,,rl_choice,,html-keyboard-response,95,288789,0.0-1.0-129.0,0,0,99,,833.0,,,51.0,18.0,18.0,1.0,easy,1500.0,1500.0,0.0,20.0,80.0,40.0,80.0,B,A,/static/Simple_RL/Stimuli/Fractals_stims/B.jpg,/static/Simple_RL/Stimuli/Fractals_stims/A.jpg,0.0,80.0,20.0,80.0,40.0,A,B,103.0,0.833,0.0,
96,,rl_choice_confirmation,,html-keyboard-response,96,289458,0.0-1.0-130.0-0.0,0,0,99,,,,,,18.0,,1.0,,,,,,,,,,,,,,,,,,,,103.833,0.667,,
97,,isi,,html-keyboard-response,97,290963,0.0-1.0-132.0,0,0,99,,,,,,18.0,,1.0,,,,,,,,,,,,,,,,,,,,104.5,1.5,,
98,,feedback,,html-keyboard-response,98,291966,0.0-1.0-133.0-0.0,0,0,99,,,,,,18.0,,1.0,,,,,,,,,,,,,,,,,,,,106.0,1.0,,
99,,iti,,html-keyboard-response,99,293470,0.0-1.0-134.0,0,0,99,,,,,,18.0,,1.0,,,,,,,,,,,,,,,,,,,,107.0,1.5,,
100,,rl_choice,,html-keyboard-response,100,294194,0.0-1.0-136.0,0,0,99,,723.0,,,50.0,19.0,19.0,1.0,hard,2000.0,3000.0,1.0,60.0,40.0,60.0,40.0,C,D,/static/Simple_RL/Stimuli/Fractals_stims/C.jpg,/static/Simple_RL/Stimuli/Fractals_stims/D.jpg,1.0,60.0,40.0,60.0,40.0,C,D,108.5,0.723,0.0,
101,,rl_choice_confirmation,,html-keyboard-response,101,294974,0.0-1.0-137.0-0.0,0,0,99,,,,,,19.0,,1.0,,,,,,,,,,,,,,,,,,,,109.223,0.777,,
102,,isi,,html-keyboard-response,102,297976,0.0-1.0-139.0,0,0,99,,,,,,19.0,,1.0,,,,,,,,,,,,,,,,,,,,110.0,3.0,,
103,,feedback,,html-keyboard-response,103,298979,0.0-1.0-140.0-0.0,0,0,99,,,,,,19.0,,1.0,,,,,,,,,,,,,,,,,,,,113.0,1.0,,
104,,iti,,html-keyboard-response,104,300984,0.0-1.0-141.0,0,0,99,,,,,,19.0,,1.0,,,,,,,,,,,,,,,,,,,,114.0,2.0,,
105,,rl_choice,,html-keyboard-response,105,301826,0.0-1.0-143.0,0,0,99,,841.0,,,50.0,20.0,20.0,1.0,easy,1500.0,1000.0,1.0,80.0,20.0,80.0,40.0,A,B,/static/Simple_RL/Stimuli/Fractals_stims/A.jpg,/static/Simple_RL/Stimuli/Fractals_stims/B.jpg,1.0,80.0,20.0,80.0,40.0,A,B,116.0,0.841,0.0,
106,,rl_choice_confirmation,,html-keyboard-response,106,302488,0.0-1.0-144.0-0.0,0,0,99,,,,,,20.0,,1.0,,,,,,,,,,,,,,,,,,,,116.841,0.659,,
107,,isi,,html-keyboard-response,107,303491,0.0-1.0-146.0,0,0,99,,,,,,20.0,,1.0,,,,,,,,,,,,,,,,,,,,117.5,1.0,,
108,,feedback,,html-keyboard-response,108,304497,0.0-1.0-147.0-0.0,0,0,99,,,,,,20.0,,1.0,,,,,,,,,,,,,,,,,,,,118.5,1.0,,
109,,iti,,html-keyboard-response,109,306003,0.0-1.0-148.0,0,0,99,,,,,,20.0,,1.0,,,,,,,,,,,,,,,,,,,,119.5,1.5,,
110,,rl_choice,,html-keyboard-response,110,306729,0.0-1.0-150.0,0,0,99,,725.0,,,50.0,21.0,21.0,1.0,easy,3000.0,1500.0,1.0,80.0,20.0,80.0,20.0,A,B,/static/Simple_RL/Stimuli/Fractals_stims/A.jpg,/static/Simple_RL/Stimuli/Fractals_stims/B.jpg,1.0,80.0,20.0,80.0,20.0,A,B,121.0,0.725,0.0,
111,,rl_choice_confirmation,,html-keyboard-response,111,307507,0.0-1.0-151.0-0.0,0,0,99,,,,,,21.0,,1.0,,,,,,,,,,,,,,,,,,,,121.725,0.775,,
112,,isi,,html-keyboard-response,112,309011,0.0-1.0-153.0,0,0,99,,,,,,21.0,,1.0,,,,,,,,,,,,,,,,,,,,122.5,1.5,,
113,,feedback,,html-keyboard-response,113,310013,0.0-1.0-154.0-0.0,0,0,99,,,,,,21.0,,1.0,,,,,,,,,,,,,,,,,,,,124.0,1.0,,
114,,iti,,html-keyboard-response,114,313015,0.0-1.0-155.0,0,0,99,,,,,,21.0,,1.0,,,,,,,,,,,,,,,,,,,,125.0,3.0,,
115,,rl_choice,,html-keyboard-response,115,313669,0.0-1.0-157.0,0,0,99,,652.0,,,50.0,22.0,22.0,1.0,easy,1000.0,2000.0,1.0,80.0,20.0,100.0,20.0,A,B,/static/Simple_RL/Stimuli/Fractals_stims/A.jpg,/static/Simple_RL/Stimuli/Fractals_stims/B.jpg,1.0,80.0,20.0,100.0,20.0,A,B,128.0,0.652,0.0,
116,,rl_choice_confirmation,,html-keyboard-response,116,314520,0.0-1.0-158.0-0.0,0,0,99,,,,,,22.0,,1.0,,,,,,,,,,,,,,,,,,,,128.652,0.848,,
117,,isi,,html-keyboard-response,117,316526,0.0-1.0-160.0,0,0,99,,,,,,22.0,,1.0,,,,,,,,,,,,,,,,,,,,129.5,2.0,,
118,,feedback,,html-keyboard-response,118,317528,0.0-1.0-161.0-0.0,0,0,99,,,,,,22.0,,1.0,,,,,,,,,,,,,,,,,,,,131.5,1.0,,
119,,iti,,html-keyboard-response,119,318531,0.0-1.0-162.0,0,0,99,,,,,,22.0,,1.0,,,,,,,,,,,,,,,,,,,,132.5,1.0,,
120,,rl_choice,,html-keyboard-response,120,319267,0.0-1.0-164.0,0,0,99,,734.0,,,50.0,23.0,23.0,1.0,easy,2000.0,1500.0,1.0,80.0,20.0,80.0,0.0,A,B,/static/Simple_RL/Stimuli/Fractals_stims/A.jpg,/static/Simple_RL/Stimuli/Fractals_stims/B.jpg,1.0,80.0,20.0,80.0,0.0,A,B,133.5,0.734,0.0,
121,,rl_choice_confirmation,,html-keyboard-response,121,320035,0.0-1.0-165.0-0.0,0,0,99,,,,,,23.0,,1.0,,,,,,,,,,,,,,,,,,,,134.234,0.766,,
122,,isi,,html-keyboard-response,122,321539,0.0-1.0-167.0,0,0,99,,,,,,23.0,,1.0,,,,,,,,,,,,,,,,,,,,135.0,1.5,,
123,,feedback,,html-keyboard-response,123,322542,0.0-1.0-168.0-0.0,0,0,99,,,,,,23.0,,1.0,,,,,,,,,,,,,,,,,,,,136.5,1.0,,
124,,iti,,html-keyboard-response,124,324547,0.0-1.0-169.0,0,0,99,,,,,,23.0,,1.0,,,,,,,,,,,,,,,,,,,,137.5,2.0,,
125,,rl_choice,,html-keyboard-response,125,325342,0.0-1.0-171.0,0,0,99,,794.0,,,51.0,24.0,24.0,1.0,easy,1500.0,1500.0,0.0,20.0,80.0,40.0,80.0,B,A,/static/Simple_RL/Stimuli/Fractals_stims/B.jpg,/static/Simple_RL/Stimuli/Fractals_stims/A.jpg,0.0,80.0,20.0,80.0,40.0,A,B,139.5,0.794,0.0,
126,,rl_choice_confirmation,,html-keyboard-response,126,326051,0.0-1.0-172.0-0.0,0,0,99,,,,,,24.0,,1.0,,,,,,,,,,,,,,,,,,,,140.294,0.706,,
127,,isi,,html-keyboard-response,127,327555,0.0-1.0-174.0,0,0,99,,,,,,24.0,,1.0,,,,,,,,,,,,,,,,,,,,141.0,1.5,,
128,,feedback,,html-keyboard-response,128,328558,0.0-1.0-175.0-0.0,0,0,99,,,,,,24.0,,1.0,,,,,,,,,,,,,,,,,,,,142.5,1.0,,
129,,iti,,html-keyboard-response,129,330062,0.0-1.0-176.0,0,0,99,,,,,,24.0,,1.0,,,,,,,,,,,,,,,,,,,,143.5,1.5,,
130,,rl_choice,,html-keyboard-response,130,330874,0.0-1.0-178.0,0,0,99,,811.0,,,50.0,25.0,25.0,1.0,easy,2000.0,3000.0,1.0,80.0,20.0,100.0,40.0,A,B,/static/Simple_RL/Stimuli/Fractals_stims/A.jpg,/static/Simple_RL/Stimuli/Fractals_stims/B.jpg,1.0,80.0,20.0,100.0,40.0,A,B,145.0,0.811,0.0,
131,,rl_choice_confirmation,,html-keyboard-response,131,331566,0.0-1.0-179.0-0.0,0,0,99,,,,,,25.0,,1.0,,,,,,,,,,,,,,,,,,,,145.811,0.689,,
132,,isi,,html-keyboard-response,132,334568,0.0-1.0-181.0,0,0,99,,,,,,25.0,,1.0,,,,,,,,,,,,,,,,,,,,146.5,3.0,,
133,,feedback,,html-keyboard-response,133,335573,0.0-1.0-182.0-0.0,0,0,99,,,,,,25.0,,1.0,,,,,,,,,,,,,,,,,,,,149.5,1.0,,
134,,iti,,html-keyboard-response,134,337576,0.0-1.0-183.0,0,0,99,,,,,,25.0,,1.0,,,,,,,,,,,,,,,,,,,,150.5,2.0,,
135,,rl_choice,,html-keyboard-response,135,339080,0.0-1.0-185.0,0,0,99,,,,,,26.0,26.0,1.0,hard,1000.0,2000.0,0.0,40.0,60.0,60.0,80.0,D,C,/static/Simple_RL/Stimuli/Fractals_stims/D.jpg,/static/Simple_RL/Stimuli/Fractals_stims/C.jpg,,,,,,,,152.5,1.5,1.0,
136,,rl_choice_warning,,html-keyboard-response,136,340083,0.0-1.0-187.0-0.0,0,0,99,,,,,,26.0,,1.0,,,,,,,,,,,,,,,,,,,,154.0,1.0,,
137,,isi,,html-keyboard-response,137,342088,0.0-1.0-188.0,0,0,99,,,,,,26.0,,1.0,,,,,,,,,,,,,,,,,,,,155.0,2.0,,
138,,iti,,html-keyboard-response,138,343094,0.0-1.0-190.0,0,0,99,,,,,,26.0,,1.0,,,,,,,,,,,,,,,,,,,,157.0,1.0,,
139,,rl_choice,,html-keyboard-response,139,343989,0.0-1.0-192.0,0,0,99,,893.0,,,51.0,27.0,27.0,1.0,easy,1500.0,1500.0,0.0,20.0,80.0,20.0,80.0,B,A,/static/Simple_RL/Stimuli/Fractals_stims/B.jpg,/static/Simple_RL/Stimuli/Fractals_stims/A.jpg,0.0,80.0,20.0,80.0,20.0,A,B,158.0,0.893,0.0,
140,,rl_choice_confirmation,,html-keyboard-response,140,344600,0.0-1.0-193.0-0.0,0,0,99,,,,,,27.0,,1.0,,,,,,,,,,,,,,,,,,,,158.893,0.607,,
141,,isi,,html-keyboard-response,141,346104,0.0-1.0-195.0,0,0,99,,,,,,27.0,,1.0,,,,,,,,,,,,,,,,,,,,159.5,1.5,,
142,,feedback,,html-keyboard-response,142,347107,0.0-1.0-196.0-0.0,0,0,99,,,,,,27.0,,1.0,,,,,,,,,,,,,,,,,,,,161.0,1.0,,
143,,iti,,html-keyboard-response,143,348611,0.0-1.0-197.0,0,0,99,,,,,,27.0,,1.0,,,,,,,,,,,,,,,,,,,,162.0,1.5,,
144,,rl_choice,,html-keyboard-response,144,349328,0.0-1.0-199.0,0,0,99,,716.0,,,50.0,28.0,28.0,1.0,easy,2000.0,1000.0,1.0,80.0,20.0,100.0,20.0,A,B,/static/Simple_RL/Stimuli/Fractals_stims/A.jpg,/static/Simple_RL/Stimuli/Fractals_stims/B.jpg,1.0,80.0,20.0,100.0,20.0,A,B,163.5,0.716,0.0,
145,,rl_choice_confirmation,,html-keyboard-response,145,350115,0.0-1.0-200.0-0.0,0,0,99,,,,,,28.0,,1.0,,,,,,,,,,,,,,,,,,,,164.216,0.784,,
146,,isi,,html-keyboard-response,146,351117,0.0-1.0-202.0,0,0,99,,,,,,28.0,,1.0,,,,,,,,,,,,,,,,,,,,165.0,1.0,,
147,,feedback,,html-keyboard-response,147,352120,0.0-1.0-203.0-0.0,0,0,99,,,,,,28.0,,1.0,,,,,,,,,,,,,,,,,,,,166.0,1.0,,
148,,iti,,html-keyboard-response,148,354125,0.0-1.0-204.0,0,0,99,,,,,,28.0,,1.0,,,,,,,,,,,,,,,,,,,,167.0,2.0,,
149,,rl_choice,,html-keyboard-response,149,354935,0.0-1.0-206.0,0,0,99,,808.0,,,50.0,29.0,29.0,1.0,hard,1000.0,1500.0,1.0,60.0,40.0,60.0,20.0,C,D,/static/Simple_RL/Stimuli/Fractals_stims/C.jpg,/static/Simple_RL/Stimuli/Fractals_stims/D.jpg,1.0,60.0,40.0,60.0,20.0,C,D,169.0,0.808,0.0,
150,,rl_choice_confirmation,,html-keyboard-response,150,355629,0.0-1.0-207.0-0.0,0,0,99,,,,,,29.0,,1.0,,,,,,,,,,,,,,,,,,,,169.808,0.692,,
151,,isi,,html-keyboard-response,151,357133,0.0-1.0-209.0,0,0,99,,,,,,29.0,,1.0,,,,,,,,,,,,,,,,,,,,170.5,1.5,,
152,,feedback,,html-keyboard-response,152,358136,0.0-1.0-210.0-0.0,0,0,99,,,,,,29.0,,1.0,,,,,,,,,,,,,,,,,,,,172.0,1.0,,
153,,iti,,html-keyboard-response,153,359139,0.0-1.0-211.0,0,0,99,,,,,,29.0,,1.0,,,,,,,,,,,,,,,,,,,,173.0,1.0,,
154,,rl_choice,,html-keyboard-response,154,359835,0.0-1.0-213.0,0,0,99,,695.0,,,50.0,30.0,30.0,1.0,easy,1500.0,2000.0,1.0,80.0,20.0,60.0,20.0,A,B,/static/Simple_RL/Stimuli/Fractals_stims/A.jpg,/static/Simple_RL/Stimuli/Fractals_stims/B.jpg,1.0,80.0,20.0,60.0,20.0,A,B,174.0,0.695,0.0,
155,,rl_choice_confirmation,,html-keyboard-response,155,360643,0.0-1.0-214.0-0.0,0,0,99,,,,,,30.0,,1.0,,,,,,,,,,,,,,,,,,,,174.695,0.805,,
156,,isi,,html-keyboard-response,156,362648,0.0-1.0-216.0,0,0,99,,,,,,30.0,,1.0,,,,,,,,,,,,,,,,,,,,175.5,2.0,,
157,,feedback,,html-keyboard-response,157,363651,0.0-1.0-217.0-0.0,0,0,99,,,,,,30.0,,1.0,,,,,,,,,,,,,,,,,,,,177.5,1.0,,
158,,iti,,html-keyboard-response,158,365155,0.0-1.0-218.0,0,0,99,,,,,,30.0,,1.0,,,,,,,,,,,,,,,,,,,,178.5,1.5,,
159,,rl_choice,,html-keyboard-response,159,366043,0.0-1.0-220.0,0,0,99,,886.0,,,51.0,31.0,31.0,1.0,hard,1500.0,2000.0,0.0,40.0,60.0,40.0,80.0,D,C,/static/Simple_RL/Stimuli/Fractals_stims/D.jpg,/static/Simple_RL/Stimuli/Fractals_stims/C.jpg,0.0,60.0,40.0,80.0,40.0,C,D,180.0,0.886,0.0,
160,,rl_choice_confirmation,,html-keyboard-response,160,366659,0.0-1.0-221.0-0.0,0,0,99,,,,,,31.0,,1.0,,,,,,,,,,,,,,,,,,,,180.886,0.614,,
161,,isi,,html-keyboard-response,161,368664,0.0-1.0-223.0,0,0,99,,,,,,31.0,,1.0,,,,,,,,,,,,,,,,,,,,181.5,2.0,,
162,,feedback,,html-keyboard-response,162,369666,0.0-1.0-224.0-0.0,0,0,99,,,,,,31.0,,1.0,,,,,,,,,,,,,,,,,,,,183.5,1.0,,
163,,iti,,html-keyboard-response,163,371171,0.0-1.0-225.0,0,0,99,,,,,,31.0,,1.0,,,,,,,,,,,,,,,,,,,,184.5,1.5,,
164,,rl_choice,,html-keyboard-response,164,372011,0.0-1.0-227.0,0,0,99,,838.0,,,51.0,32.0,32.0,1.0,easy,1000.0,1000.0,0.0,20.0,80.0,20.0,80.0,B,A,/static/Simple_RL/Stimuli/Fractals_stims/B.jpg,/static/Simple_RL/Stimuli/Fractals_stims/A.jpg,0.0,80.0,20.0,80.0,20.0,A,B,186.0,0.838,0.0,
165,,rl_choice_confirmation,,html-keyboard-response,165,372675,0.0-1.0-228.0-0.0,0,0,99,,,,,,32.0,,1.0,,,,,,,,,,,,,,,,,,,,186.838,0.662,,
166,,isi,,html-keyboard-response,166,373677,0.0-1.0-230.0,0,0,99,,,,,,32.0,,1.0,,,,,,,,,,,,,,,,,,,,187.5,1.0,,
167,,feedback,,html-keyboard-response,167,374680,0.0-1.0-231.0-0.0,0,0,99,,,,,,32.0,,1.0,,,,,,,,,,,,,,,,,,,,188.5,1.0,,
168,,iti,,html-keyboard-response,168,375683,0.0-1.0-232.0,0,0,99,,,,,,32.0,,1.0,,,,,,,,,,,,,,,,,,,,189.5,1.0,,
169,,rl_choice,,html-keyboard-response,169,376428,0.0-1.0-234.0,0,0,99,,744.0,,,50.0,33.0,33.0,1.0,easy,3500.0,1000.0,1.0,80.0,20.0,80.0,40.0,A,B,/static/Simple_RL/Stimuli/Fractals_stims/A.jpg,/static/Simple_RL/Stimuli/Fractals_stims/B.jpg,1.0,80.0,20.0,80.0,40.0,A,B,190.5,0.744,0.0,
170,,rl_choice_confirmation,,html-keyboard-response,170,377186,0.0-1.0-235.0-0.0,0,0,99,,,,,,33.0,,1.0,,,,,,,,,,,,,,,,,,,,191.244,0.756,,
171,,isi,,html-keyboard-response,171,378188,0.0-1.0-237.0,0,0,99,,,,,,33.0,,1.0,,,,,,,,,,,,,,,,,,,,192.0,1.0,,
172,,feedback,,html-keyboard-response,172,379192,0.0-1.0-238.0-0.0,0,0,99,,,,,,33.0,,1.0,,,,,,,,,,,,,,,,,,,,193.0,1.0,,
173,,iti,,html-keyboard-response,173,382695,0.0-1.0-239.0,0,0,99,,,,,,33.0,,1.0,,,,,,,,,,,,,,,,,,,,194.0,3.5,,
174,,rl_choice,,html-keyboard-response,174,383510,0.0-1.0-241.0,0,0,99,,813.0,,,50.0,34.0,34.0,1.0,hard,2000.0,1500.0,1.0,60.0,40.0,60.0,20.0,C,D,/static/Simple_RL/Stimuli/Fractals_stims/C.jpg,/static/Simple_RL/Stimuli/Fractals_stims/D.jpg,1.0,60.0,40.0,60.0,20.0,C,D,197.5,0.813,0.0,
175,,rl_choice_confirmation,,html-keyboard-response,175,384199,0.0-1.0-242.0-0.0,0,0,99,,,,,,34.0,,1.0,,,,,,,,,,,,,,,,,,,,198.313,0.687,,
176,,isi,,html-keyboard-response,176,385704,0.0-1.0-244.0,0,0,99,,,,,,34.0,,1.0,,,,,,,,,,,,,,,,,,,,199.0,1.5,,
177,,feedback,,html-keyboard-response,177,386706,0.0-1.0-245.0-0.0,0,0,99,,,,,,34.0,,1.0,,,,,,,,,,,,,,,,,,,,200.5,1.0,,
178,,iti,,html-keyboard-response,178,388707,0.0-1.0-246.0,0,0,99,,,,,,34.0,,1.0,,,,,,,,,,,,,,,,,,,,201.5,2.0,,
179,,rl_choice,,html-keyboard-response,179,389363,0.0-1.0-248.0,0,0,99,,655.0,,,51.0,35.0,35.0,1.0,hard,1000.0,3500.0,0.0,40.0,60.0,60.0,80.0,D,C,/static/Simple_RL/Stimuli/Fractals_stims/D.jpg,/static/Simple_RL/Stimuli/Fractals_stims/C.jpg,0.0,60.0,40.0,80.0,60.0,C,D,203.5,0.655,0.0,
180,,rl_choice_confirmation,,html-keyboard-response,180,390209,0.0-1.0-249.0-0.0,0,0,99,,,,,,35.0,,1.0,,,,,,,,,,,,,,,,,,,,204.155,0.845,,
181,,isi,,html-keyboard-response,181,393715,0.0-1.0-251.0,0,0,99,,,,,,35.0,,1.0,,,,,,,,,,,,,,,,,,,,205.0,3.5,,
182,,feedback,,html-keyboard-response,182,394717,0.0-1.0-252.0-0.0,0,0,99,,,,,,35.0,,1.0,,,,,,,,,,,,,,,,,,,,208.5,1.0,,
183,,iti,,html-keyboard-response,183,395722,0.0-1.0-253.0,0,0,99,,,,,,35.0,,1.0,,,,,,,,,,,,,,,,,,,,209.5,1.0,,
184,,rl_choice,,html-keyboard-response,184,396482,0.0-1.0-255.0,0,0,99,,758.0,,,50.0,36.0,36.0,1.0,hard,1500.0,1000.0,1.0,60.0,40.0,40.0,40.0,C,D,/static/Simple_RL/Stimuli/Fractals_stims/C.jpg,/static/Simple_RL/Stimuli/Fractals_stims/D.jpg,1.0,60.0,40.0,40.0,40.0,C,D,210.5,0.758,0.0,
185,,rl_choice_confirmation,,html-keyboard-response,185,397225,0.0-1.0-256.0-0.0,0,0,99,,,,,,36.0,,1.0,,,,,,,,,,,,,,,,,,,,211.258,0.742,,
186,,isi,,html-keyboard-response,186,398231,0.0-1.0-258.0,0,0,99,,,,,,36.0,,1.0,,,,,,,,,,,,,,,,,,,,212.0,1.0,,
187,,feedback,,html-keyboard-response,187,399235,0.0-1.0-259.0-0.0,0,0,99,,,,,,36.0,,1.0,,,,,,,,,,,,,,,,,,,,213.0,1.0,,
188,,iti,,html-keyboard-response,188,400740,0.0-1.0-260.0,0,0,99,,,,,,36.0,,1.0,,,,,,,,,,,,,,,,,,,,214.0,1.5,,
189,,rl_choice,,html-keyboard-response,189,401870,0.0-1.0-262.0,0,0,99,,1127.0,,,50.0,37.0,37.0,1.0,easy,1000.0,1000.0,0.0,20.0,80.0,0.0,100.0,B,A,/static/Simple_RL/Stimuli/Fractals_stims/B.jpg,/static/Simple_RL/Stimuli/Fractals_stims/A.jpg,1.0,20.0,80.0,0.0,100.0,B,A,215.5,1.127,0.0,
190,,rl_choice_confirmation,,html-keyboard-response,190,402245,0.0-1.0-263.0-0.0,0,0,99,,,,,,37.0,,1.0,,,,,,,,,,,,,,,,,,,,216.627,0.373,,
191,,isi,,html-keyboard-response,191,403250,0.0-1.0-265.0,0,0,99,,,,,,37.0,,1.0,,,,,,,,,,,,,,,,,,,,217.0,1.0,,
192,,feedback,,html-keyboard-response,192,404253,0.0-1.0-266.0-0.0,0,0,99,,,,,,37.0,,1.0,,,,,,,,,,,,,,,,,,,,218.0,1.0,,
193,,iti,,html-keyboard-response,193,405256,0.0-1.0-267.0,0,0,99,,,,,,37.0,,1.0,,,,,,,,,,,,,,,,,,,,219.0,1.0,,
194,,rl_choice,,html-keyboard-response,194,406049,0.0-1.0-269.0,0,0,99,,792.0,,,51.0,38.0,38.0,1.0,hard,1500.0,1000.0,0.0,40.0,60.0,40.0,60.0,D,C,/static/Simple_RL/Stimuli/Fractals_stims/D.jpg,/static/Simple_RL/Stimuli/Fractals_stims/C.jpg,0.0,60.0,40.0,60.0,40.0,C,D,220.0,0.792,0.0,
195,,rl_choice_confirmation,,html-keyboard-response,195,406760,0.0-1.0-270.0-0.0,0,0,99,,,,,,38.0,,1.0,,,,,,,,,,,,,,,,,,,,220.792,0.708,,
196,,isi,,html-keyboard-response,196,407762,0.0-1.0-272.0,0,0,99,,,,,,38.0,,1.0,,,,,,,,,,,,,,,,,,,,221.5,1.0,,
197,,feedback,,html-keyboard-response,197,408765,0.0-1.0-273.0-0.0,0,0,99,,,,,,38.0,,1.0,,,,,,,,,,,,,,,,,,,,222.5,1.0,,
198,,iti,,html-keyboard-response,198,410269,0.0-1.0-274.0,0,0,99,,,,,,38.0,,1.0,,,,,,,,,,,,,,,,,,,,223.5,1.5,,
199,,rl_choice,,html-keyboard-response,199,411040,0.0-1.0-276.0,0,0,99,,768.0,,,51.0,39.0,39.0,1.0,hard,1500.0,3000.0,0.0,40.0,60.0,60.0,60.0,D,C,/static/Simple_RL/Stimuli/Fractals_stims/D.jpg,/static/Simple_RL/Stimuli/Fractals_stims/C.jpg,0.0,60.0,40.0,60.0,60.0,C,D,225.0,0.768,0.0,
200,,rl_choice_confirmation,,html-keyboard-response,200,411773,0.0-1.0-277.0-0.0,0,0,99,,,,,,39.0,,1.0,,,,,,,,,,,,,,,,,,,,225.768,0.732,,
201,,isi,,html-keyboard-response,201,414777,0.0-1.0-279.0,0,0,99,,,,,,39.0,,1.0,,,,,,,,,,,,,,,,,,,,226.5,3.0,,
202,,feedback,,html-keyboard-response,202,415779,0.0-1.0-280.0-0.0,0,0,99,,,,,,39.0,,1.0,,,,,,,,,,,,,,,,,,,,229.5,1.0,,
203,,iti,,html-keyboard-response,203,417282,0.0-1.0-281.0,0,0,99,,,,,,39.0,,1.0,,,,,,,,,,,,,,,,,,,,230.5,1.5,,
204,,block_over,,html-keyboard-response,204,431814,0.0-1.0-282.0-0.0,0,0,99,,14530.0,,,83.0,39.0,,,,,,,,,,,,,,,,,,,,,,,,,
205,,start_run,,html-keyboard-response,205,457761,0.0-1.0-282.0-1.0,0,0,99,,25947.0,,,84.0,,,,,,,,,,,,,,,,,,,,,,,,,,
206,,rl_choice,,html-keyboard-response,206,458523,0.0-1.0-283.0,0,0,99,,760.0,,,50.0,40.0,40.0,2.0,easy,3000.0,1000.0,1.0,80.0,20.0,80.0,40.0,A,B,/static/Simple_RL/Stimuli/Fractals_stims/A.jpg,/static/Simple_RL/Stimuli/Fractals_stims/B.jpg,1.0,80.0,20.0,80.0,40.0,A,B,0.0,0.76,0.0,
207,,rl_choice_confirmation,,html-keyboard-response,207,459264,0.0-1.0-284.0-0.0,0,0,99,,,,,,40.0,,2.0,,,,,,,,,,,,,,,,,,,,0.76,0.74,,
208,,isi,,html-keyboard-response,208,460269,0.0-1.0-286.0,0,0,99,,,,,,40.0,,2.0,,,,,,,,,,,,,,,,,,,,1.5,1.0,,
209,,feedback,,html-keyboard-response,209,461272,0.0-1.0-287.0-0.0,0,0,99,,,,,,40.0,,2.0,,,,,,,,,,,,,,,,,,,,2.5,1.0,,
210,,iti,,html-keyboard-response,210,464274,0.0-1.0-288.0,0,0,99,,,,,,40.0,,2.0,,,,,,,,,,,,,,,,,,,,3.5,3.0,,
211,,rl_choice,,html-keyboard-response,211,465044,0.0-1.0-290.0,0,0,99,,768.0,,,50.0,41.0,41.0,2.0,hard,1500.0,1000.0,1.0,60.0,40.0,60.0,40.0,C,D,/static/Simple_RL/Stimuli/Fractals_stims/C.jpg,/static/Simple_RL/Stimuli/Fractals_stims/D.jpg,1.0,60.0,40.0,60.0,40.0,C,D,6.5,0.768,0.0,
212,,rl_choice_confirmation,,html-keyboard-response,212,465778,0.0-1.0-291.0-0.0,0,0,99,,,,,,41.0,,2.0,,,,,,,,,,,,,,,,,,,,7.268,0.732,,
213,,isi,,html-keyboard-response,213,466779,0.0-1.0-293.0,0,0,99,,,,,,41.0,,2.0,,,,,,,,,,,,,,,,,,,,8.0,1.0,,
214,,feedback,,html-keyboard-response,214,467782,0.0-1.0-294.0-0.0,0,0,99,,,,,,41.0,,2.0,,,,,,,,,,,,,,,,,,,,9.0,1.0,,
215,,iti,,html-keyboard-response,215,469284,0.0-1.0-295.0,0,0,99,,,,,,41.0,,2.0,,,,,,,,,,,,,,,,,,,,10.0,1.5,,
216,,rl_choice,,html-keyboard-response,216,469907,0.0-1.0-297.0,0,0,99,,622.0,,,51.0,42.0,42.0,2.0,easy,1000.0,2000.0,0.0,20.0,80.0,20.0,60.0,B,A,/static/Simple_RL/Stimuli/Fractals_stims/B.jpg,/static/Simple_RL/Stimuli/Fractals_stims/A.jpg,0.0,80.0,20.0,60.0,20.0,A,B,11.5,0.622,0.0,
217,,rl_choice_confirmation,,html-keyboard-response,217,470787,0.0-1.0-298.0-0.0,0,0,99,,,,,,42.0,,2.0,,,,,,,,,,,,,,,,,,,,12.122,0.878,,
218,,isi,,html-keyboard-response,218,472790,0.0-1.0-300.0,0,0,99,,,,,,42.0,,2.0,,,,,,,,,,,,,,,,,,,,13.0,2.0,,
219,,feedback,,html-keyboard-response,219,473794,0.0-1.0-301.0-0.0,0,0,99,,,,,,42.0,,2.0,,,,,,,,,,,,,,,,,,,,15.0,1.0,,
220,,iti,,html-keyboard-response,220,474798,0.0-1.0-302.0,0,0,99,,,,,,42.0,,2.0,,,,,,,,,,,,,,,,,,,,16.0,1.0,,
221,,rl_choice,,html-keyboard-response,221,475613,0.0-1.0-304.0,0,0,99,,813.0,,,51.0,43.0,43.0,2.0,hard,1000.0,1000.0,0.0,40.0,60.0,60.0,40.0,D,C,/static/Simple_RL/Stimuli/Fractals_stims/D.jpg,/static/Simple_RL/Stimuli/Fractals_stims/C.jpg,0.0,60.0,40.0,40.0,60.0,C,D,17.0,0.813,0.0,
222,,rl_choice_confirmation,,html-keyboard-response,222,476302,0.0-1.0-305.0-0.0,0,0,99,,,,,,43.0,,2.0,,,,,,,,,,,,,,,,,,,,17.813,0.687,,
223,,isi,,html-keyboard-response,223,477304,0.0-1.0-307.0,0,0,99,,,,,,43.0,,2.0,,,,,,,,,,,,,,,,,,,,18.5,1.0,,
224,,feedback,,html-keyboard-response,224,478306,0.0-1.0-308.0-0.0,0,0,99,,,,,,43.0,,2.0,,,,,,,,,,,,,,,,,,,,19.5,1.0,,
225,,iti,,html-keyboard-response,225,479309,0.0-1.0-309.0,0,0,99,,,,,,43.0,,2.0,,,,,,,,,,,,,,,,,,,,20.5,1.0,,
226,,rl_choice,,html-keyboard-response,226,480067,0.0-1.0-311.0,0,0,99,,756.0,,,51.0,44.0,44.0,2.0,hard,2000.0,3000.0,0.0,40.0,60.0,20.0,40.0,D,C,/static/Simple_RL/Stimuli/Fractals_stims/D.jpg,/static/Simple_RL/Stimuli/Fractals_stims/C.jpg,0.0,60.0,40.0,40.0,20.0,C,D,21.5,0.756,0.0,
227,,rl_choice_confirmation,,html-keyboard-response,227,480813,0.0-1.0-312.0-0.0,0,0,99,,,,,,44.0,,2.0,,,,,,,,,,,,,,,,,,,,22.256,0.744,,
228,,isi,,html-keyboard-response,228,483815,0.0-1.0-314.0,0,0,99,,,,,,44.0,,2.0,,,,,,,,,,,,,,,,,,,,23.0,3.0,,
229,,feedback,,html-keyboard-response,229,484818,0.0-1.0-315.0-0.0,0,0,99,,,,,,44.0,,2.0,,,,,,,,,,,,,,,,,,,,26.0,1.0,,
230,,iti,,html-keyboard-response,230,486823,0.0-1.0-316.0,0,0,99,,,,,,44.0,,2.0,,,,,,,,,,,,,,,,,,,,27.0,2.0,,
231,,rl_choice,,html-keyboard-response,231,487657,0.0-1.0-318.0,0,0,99,,832.0,,,50.0,45.0,45.0,2.0,hard,1500.0,3500.0,0.0,40.0,60.0,20.0,80.0,D,C,/static/Simple_RL/Stimuli/Fractals_stims/D.jpg,/static/Simple_RL/Stimuli/Fractals_stims/C.jpg,1.0,40.0,60.0,20.0,80.0,D,C,29.0,0.832,0.0,
232,,rl_choice_confirmation,,html-keyboard-response,232,488328,0.0-1.0-319.0-0.0,0,0,99,,,,,,45.0,,2.0,,,,,,,,,,,,,,,,,,,,29.832,0.668,,
233,,isi,,html-keyboard-response,233,491833,0.0-1.0-321.0,0,0,99,,,,,,45.0,,2.0,,,,,,,,,,,,,,,,,,,,30.5,3.5,,
234,,feedback,,html-keyboard-response,234,492839,0.0-1.0-322.0-0.0,0,0,99,,,,,,45.0,,2.0,,,,,,,,,,,,,,,,,,,,34.0,1.0,,
235,,iti,,html-keyboard-response,235,494344,0.0-1.0-323.0,0,0,99,,,,,,45.0,,2.0,,,,,,,,,,,,,,,,,,,,35.0,1.5,,
236,,rl_choice,,html-keyboard-response,236,495194,0.0-1.0-325.0,0,0,99,,849.0,,,50.0,46.0,46.0,2.0,hard,1000.0,1000.0,1.0,60.0,40.0,80.0,60.0,C,D,/static/Simple_RL/Stimuli/Fractals_stims/C.jpg,/static/Simple_RL/Stimuli/Fractals_stims/D.jpg,1.0,60.0,40.0,80.0,60.0,C,D,36.5,0.849,0.0,
237,,rl_choice_confirmation,,html-keyboard-response,237,495848,0.0-1.0-326.0-0.0,0,0,99,,,,,,46.0,,2.0,,,,,,,,,,,,,,,,,,,,37.349,0.651,,
238,,isi,,html-keyboard-response,238,496850,0.0-1.0-328.0,0,0,99,,,,,,46.0,,2.0,,,,,,,,,,,,,,,,,,,,38.0,1.0,,
239,,feedback,,html-keyboard-response,239,497853,0.0-1.0-329.0-0.0,0,0,99,,,,,,46.0,,2.0,,,,,,,,,,,,,,,,,,,,39.0,1.0,,
240,,iti,,html-keyboard-response,240,498856,0.0-1.0-330.0,0,0,99,,,,,,46.0,,2.0,,,,,,,,,,,,,,,,,,,,40.0,1.0,,
241,,rl_choice,,html-keyboard-response,241,499610,0.0-1.0-332.0,0,0,99,,753.0,,,51.0,47.0,47.0,2.0,hard,1500.0,2000.0,0.0,40.0,60.0,40.0,60.0,D,C,/static/Simple_RL/Stimuli/Fractals_stims/D.jpg,/static/Simple_RL/Stimuli/Fractals_stims/C.jpg,0.0,60.0,40.0,60.0,40.0,C,D,41.0,0.753,0.0,
242,,rl_choice_confirmation,,html-keyboard-response,242,500360,0.0-1.0-333.0-0.0,0,0,99,,,,,,47.0,,2.0,,,,,,,,,,,,,,,,,,,,41.753,0.747,,
243,,isi,,html-keyboard-response,243,502365,0.0-1.0-335.0,0,0,99,,,,,,47.0,,2.0,,,,,,,,,,,,,,,,,,,,42.5,2.0,,
244,,feedback,,html-keyboard-response,244,503368,0.0-1.0-336.0-0.0,0,0,99,,,,,,47.0,,2.0,,,,,,,,,,,,,,,,,,,,44.5,1.0,,
245,,iti,,html-keyboard-response,245,504872,0.0-1.0-337.0,0,0,99,,,,,,47.0,,2.0,,,,,,,,,,,,,,,,,,,,45.5,1.5,,
246,,rl_choice,,html-keyboard-response,246,505496,0.0-1.0-339.0,0,0,99,,622.0,,,50.0,48.0,48.0,2.0,easy,3500.0,1500.0,1.0,80.0,20.0,100.0,20.0,A,B,/static/Simple_RL/Stimuli/Fractals_stims/A.jpg,/static/Simple_RL/Stimuli/Fractals_stims/B.jpg,1.0,80.0,20.0,100.0,20.0,A,B,47.0,0.622,0.0,
247,,rl_choice_confirmation,,html-keyboard-response,247,506375,0.0-1.0-340.0-0.0,0,0,99,,,,,,48.0,,2.0,,,,,,,,,,,,,,,,,,,,47.622,0.878,,
248,,isi,,html-keyboard-response,248,507880,0.0-1.0-342.0,0,0,99,,,,,,48.0,,2.0,,,,,,,,,,,,,,,,,,,,48.5,1.5,,
249,,feedback,,html-keyboard-response,249,508882,0.0-1.0-343.0-0.0,0,0,99,,,,,,48.0,,2.0,,,,,,,,,,,,,,,,,,,,50.0,1.0,,
250,,iti,,html-keyboard-response,250,512386,0.0-1.0-344.0,0,0,99,,,,,,48.0,,2.0,,,,,,,,,,,,,,,,,,,,51.0,3.5,,
251,,rl_choice,,html-keyboard-response,251,513156,0.0-1.0-346.0,0,0,99,,768.0,,,50.0,49.0,49.0,2.0,hard,2000.0,2000.0,1.0,60.0,40.0,80.0,40.0,C,D,/static/Simple_RL/Stimuli/Fractals_stims/C.jpg,/static/Simple_RL/Stimuli/Fractals_stims/D.jpg,1.0,60.0,40.0,80.0,40.0,C,D,54.5,0.768,0.0,
252,,rl_choice_confirmation,,html-keyboard-response,252,513890,0.0-1.0-347.0-0.0,0,0,99,,,,,,49.0,,2.0,,,,,,,,,,,,,,,,,,,,55.268,0.732,,
253,,isi,,html-keyboard-response,253,515895,0.0-1.0-349.0,0,0,99,,,,,,49.0,,2.0,,,,,,,,,,,,,,,,,,,,56.0,2.0,,
254,,feedback,,html-keyboard-response,254,516898,0.0-1.0-350.0-0.0,0,0,99,,,,,,49.0,,2.0,,,,,,,,,,,,,,,,,,,,58.0,1.0,,
255,,iti,,html-keyboard-response,255,518904,0.0-1.0-351.0,0,0,99,,,,,,49.0,,2.0,,,,,,,,,,,,,,,,,,,,59.0,2.0,,
256,,rl_choice,,html-keyboard-response,256,519643,0.0-1.0-353.0,0,0,99,,737.0,,,50.0,50.0,50.0,2.0,easy,1500.0,2000.0,1.0,80.0,20.0,100.0,0.0,A,B,/static/Simple_RL/Stimuli/Fractals_stims/A.jpg,/static/Simple_RL/Stimuli/Fractals_stims/B.jpg,1.0,80.0,20.0,100.0,0.0,A,B,61.0,0.737,0.0,
257,,rl_choice_confirmation,,html-keyboard-response,257,520407,0.0-1.0-354.0-0.0,0,0,99,,,,,,50.0,,2.0,,,,,,,,,,,,,,,,,,,,61.737,0.763,,
258,,isi,,html-keyboard-response,258,522413,0.0-1.0-356.0,0,0,99,,,,,,50.0,,2.0,,,,,,,,,,,,,,,,,,,,62.5,2.0,,
259,,feedback,,html-keyboard-response,259,523416,0.0-1.0-357.0-0.0,0,0,99,,,,,,50.0,,2.0,,,,,,,,,,,,,,,,,,,,64.5,1.0,,
260,,iti,,html-keyboard-response,260,524922,0.0-1.0-358.0,0,0,99,,,,,,50.0,,2.0,,,,,,,,,,,,,,,,,,,,65.5,1.5,,
261,,rl_choice,,html-keyboard-response,261,525618,0.0-1.0-360.0,0,0,99,,695.0,,,51.0,51.0,51.0,2.0,easy,1500.0,3000.0,0.0,20.0,80.0,20.0,60.0,B,A,/static/Simple_RL/Stimuli/Fractals_stims/B.jpg,/static/Simple_RL/Stimuli/Fractals_stims/A.jpg,0.0,80.0,20.0,60.0,20.0,A,B,67.0,0.695,0.0,
262,,rl_choice_confirmation,,html-keyboard-response,262,526429,0.0-1.0-361.0-0.0,0,0,99,,,,,,51.0,,2.0,,,,,,,,,,,,,,,,,,,,67.695,0.805,,
263,,isi,,html-keyboard-response,263,529432,0.0-1.0-363.0,0,0,99,,,,,,51.0,,2.0,,,,,,,,,,,,,,,,,,,,68.5,3.0,,
264,,feedback,,html-keyboard-response,264,530437,0.0-1.0-364.0-0.0,0,0,99,,,,,,51.0,,2.0,,,,,,,,,,,,,,,,,,,,71.5,1.0,,
265,,iti,,html-keyboard-response,265,531943,0.0-1.0-365.0,0,0,99,,,,,,51.0,,2.0,,,,,,,,,,,,,,,,,,,,72.5,1.5,,
266,,rl_choice,,html-keyboard-response,266,532725,0.0-1.0-367.0,0,0,99,,780.0,,,50.0,52.0,52.0,2.0,hard,3500.0,2000.0,0.0,40.0,60.0,60.0,40.0,D,C,/static/Simple_RL/Stimuli/Fractals_stims/D.jpg,/static/Simple_RL/Stimuli/Fractals_stims/C.jpg,1.0,40.0,60.0,60.0,40.0,D,C,74.0,0.78,0.0,
267,,rl_choice_confirmation,,html-keyboard-response,267,533447,0.0-1.0-368.0-0.0,0,0,99,,,,,,52.0,,2.0,,,,,,,,,,,,,,,,,,,,74.78,0.72,,
268,,isi,,html-keyboard-response,268,535453,0.0-1.0-370.0,0,0,99,,,,,,52.0,,2.0,,,,,,,,,,,,,,,,,,,,75.5,2.0,,
269,,feedback,,html-keyboard-response,269,536455,0.0-1.0-371.0-0.0,0,0,99,,,,,,52.0,,2.0,,,,,,,,,,,,,,,,,,,,77.5,1.0,,
270,,iti,,html-keyboard-response,270,539960,0.0-1.0-372.0,0,0,99,,,,,,52.0,,2.0,,,,,,,,,,,,,,,,,,,,78.5,3.5,,
271,,rl_choice,,html-keyboard-response,271,540642,0.0-1.0-374.0,0,0,99,,681.0,,,51.0,53.0,53.0,2.0,easy,1500.0,2000.0,0.0,20.0,80.0,0.0,60.0,B,A,/static/Simple_RL/Stimuli/Fractals_stims/B.jpg,/static/Simple_RL/Stimuli/Fractals_stims/A.jpg,0.0,80.0,20.0,60.0,0.0,A,B,82.0,0.681,0.0,
272,,rl_choice_confirmation,,html-keyboard-response,272,541463,0.0-1.0-375.0-0.0,0,0,99,,,,,,53.0,,2.0,,,,,,,,,,,,,,,,,,,,82.681,0.819,,
273,,isi,,html-keyboard-response,273,543469,0.0-1.0-377.0,0,0,99,,,,,,53.0,,2.0,,,,,,,,,,,,,,,,,,,,83.5,2.0,,
274,,feedback,,html-keyboard-response,274,544471,0.0-1.0-378.0-0.0,0,0,99,,,,,,53.0,,2.0,,,,,,,,,,,,,,,,,,,,85.5,1.0,,
275,,iti,,html-keyboard-response,275,545975,0.0-1.0-379.0,0,0,99,,,,,,53.0,,2.0,,,,,,,,,,,,,,,,,,,,86.5,1.5,,
276,,rl_choice,,html-keyboard-response,276,546592,0.0-1.0-381.0,0,0,99,,615.0,,,51.0,54.0,54.0,2.0,easy,1000.0,1000.0,0.0,20.0,80.0,20.0,60.0,B,A,/static/Simple_RL/Stimuli/Fractals_stims/B.jpg,/static/Simple_RL/Stimuli/Fractals_stims/A.jpg,0.0,80.0,20.0,60.0,20.0,A,B,88.0,0.615,0.0,
277,,rl_choice_confirmation,,html-keyboard-response,277,547479,0.0-1.0-382.0-0.0,0,0,99,,,,,,54.0,,2.0,,,,,,,,,,,,,,,,,,,,88.615,0.885,,
278,,isi,,html-keyboard-response,278,548482,0.0-1.0-384.0,0,0,99,,,,,,54.0,,2.0,,,,,,,,,,,,,,,,,,,,89.5,1.0,,
279,,feedback,,html-keyboard-response,279,549484,0.0-1.0-385.0-0.0,0,0,99,,,,,,54.0,,2.0,,,,,,,,,,,,,,,,,,,,90.5,1.0,,
280,,iti,,html-keyboard-response,280,550487,0.0-1.0-386.0,0,0,99,,,,,,54.0,,2.0,,,,,,,,,,,,,,,,,,,,91.5,1.0,,
281,,rl_choice,,html-keyboard-response,281,551254,0.0-1.0-388.0,0,0,99,,765.0,,,50.0,55.0,55.0,2.0,hard,1500.0,2000.0,1.0,60.0,40.0,80.0,40.0,C,D,/static/Simple_RL/Stimuli/Fractals_stims/C.jpg,/static/Simple_RL/Stimuli/Fractals_stims/D.jpg,1.0,60.0,40.0,80.0,40.0,C,D,92.5,0.765,0.0,
282,,rl_choice_confirmation,,html-keyboard-response,282,551991,0.0-1.0-389.0-0.0,0,0,99,,,,,,55.0,,2.0,,,,,,,,,,,,,,,,,,,,93.265,0.735,,
283,,isi,,html-keyboard-response,283,553997,0.0-1.0-391.0,0,0,99,,,,,,55.0,,2.0,,,,,,,,,,,,,,,,,,,,94.0,2.0,,
284,,feedback,,html-keyboard-response,284,554999,0.0-1.0-392.0-0.0,0,0,99,,,,,,55.0,,2.0,,,,,,,,,,,,,,,,,,,,96.0,1.0,,
285,,iti,,html-keyboard-response,285,556503,0.0-1.0-393.0,0,0,99,,,,,,55.0,,2.0,,,,,,,,,,,,,,,,,,,,97.0,1.5,,
286,,rl_choice,,html-keyboard-response,286,557201,0.0-1.0-395.0,0,0,99,,696.0,,,50.0,56.0,56.0,2.0,easy,1000.0,1000.0,1.0,80.0,20.0,80.0,40.0,A,B,/static/Simple_RL/Stimuli/Fractals_stims/A.jpg,/static/Simple_RL/Stimuli/Fractals_stims/B.jpg,1.0,80.0,20.0,80.0,40.0,A,B,98.5,0.696,0.0,
287,,rl_choice_confirmation,,html-keyboard-response,287,558007,0.0-1.0-396.0-0.0,0,0,99,,,,,,56.0,,2.0,,,,,,,,,,,,,,,,,,,,99.196,0.804,,
288,,isi,,html-keyboard-response,288,559010,0.0-1.0-398.0,0,0,99,,,,,,56.0,,2.0,,,,,,,,,,,,,,,,,,,,100.0,1.0,,
289,,feedback,,html-keyboard-response,289,560013,0.0-1.0-399.0-0.0,0,0,99,,,,,,56.0,,2.0,,,,,,,,,,,,,,,,,,,,101.0,1.0,,
290,,iti,,html-keyboard-response,290,561015,0.0-1.0-400.0,0,0,99,,,,,,56.0,,2.0,,,,,,,,,,,,,,,,,,,,102.0,1.0,,
291,,rl_choice,,html-keyboard-response,291,561669,0.0-1.0-402.0,0,0,99,,652.0,,,50.0,57.0,57.0,2.0,easy,2000.0,3000.0,1.0,80.0,20.0,60.0,0.0,A,B,/static/Simple_RL/Stimuli/Fractals_stims/A.jpg,/static/Simple_RL/Stimuli/Fractals_stims/B.jpg,1.0,80.0,20.0,60.0,0.0,A,B,103.0,0.652,0.0,
292,,rl_choice_confirmation,,html-keyboard-response,292,562519,0.0-1.0-403.0-0.0,0,0,99,,,,,,57.0,,2.0,,,,,,,,,,,,,,,,,,,,103.652,0.848,,
293,,isi,,html-keyboard-response,293,565522,0.0-1.0-405.0,0,0,99,,,,,,57.0,,2.0,,,,,,,,,,,,,,,,,,,,104.5,3.0,,
294,,feedback,,html-keyboard-response,294,566524,0.0-1.0-406.0-0.0,0,0,99,,,,,,57.0,,2.0,,,,,,,,,,,,,,,,,,,,107.5,1.0,,
295,,iti,,html-keyboard-response,295,568530,0.0-1.0-407.0,0,0,99,,,,,,57.0,,2.0,,,,,,,,,,,,,,,,,,,,108.5,2.0,,
296,,rl_choice,,html-keyboard-response,296,569325,0.0-1.0-409.0,0,0,99,,792.0,,,50.0,58.0,58.0,2.0,hard,2000.0,1000.0,1.0,60.0,40.0,40.0,40.0,C,D,/static/Simple_RL/Stimuli/Fractals_stims/C.jpg,/static/Simple_RL/Stimuli/Fractals_stims/D.jpg,1.0,60.0,40.0,40.0,40.0,C,D,110.5,0.792,0.0,
297,,rl_choice_confirmation,,html-keyboard-response,297,570034,0.0-1.0-410.0-0.0,0,0,99,,,,,,58.0,,2.0,,,,,,,,,,,,,,,,,,,,111.292,0.708,,
298,,isi,,html-keyboard-response,298,571036,0.0-1.0-412.0,0,0,99,,,,,,58.0,,2.0,,,,,,,,,,,,,,,,,,,,112.0,1.0,,
299,,feedback,,html-keyboard-response,299,572039,0.0-1.0-413.0-0.0,0,0,99,,,,,,58.0,,2.0,,,,,,,,,,,,,,,,,,,,113.0,1.0,,
300,,iti,,html-keyboard-response,300,574045,0.0-1.0-414.0,0,0,99,,,,,,58.0,,2.0,,,,,,,,,,,,,,,,,,,,114.0,2.0,,
301,,rl_choice,,html-keyboard-response,301,574844,0.0-1.0-416.0,0,0,99,,798.0,,,50.0,59.0,59.0,2.0,easy,1000.0,1500.0,1.0,80.0,20.0,80.0,0.0,A,B,/static/Simple_RL/Stimuli/Fractals_stims/A.jpg,/static/Simple_RL/Stimuli/Fractals_stims/B.jpg,1.0,80.0,20.0,80.0,0.0,A,B,116.0,0.798,0.0,
302,,rl_choice_confirmation,,html-keyboard-response,302,575551,0.0-1.0-417.0-0.0,0,0,99,,,,,,59.0,,2.0,,,,,,,,,,,,,,,,,,,,116.798,0.702,,
303,,isi,,html-keyboard-response,303,577053,0.0-1.0-419.0,0,0,99,,,,,,59.0,,2.0,,,,,,,,,,,,,,,,,,,,117.5,1.5,,
304,,feedback,,html-keyboard-response,304,578057,0.0-1.0-420.0-0.0,0,0,99,,,,,,59.0,,2.0,,,,,,,,,,,,,,,,,,,,119.0,1.0,,
305,,iti,,html-keyboard-response,305,579061,0.0-1.0-421.0,0,0,99,,,,,,59.0,,2.0,,,,,,,,,,,,,,,,,,,,120.0,1.0,,
306,,rl_choice,,html-keyboard-response,306,579955,0.0-1.0-423.0,0,0,99,,892.0,,,50.0,60.0,60.0,2.0,easy,1000.0,3500.0,1.0,80.0,20.0,80.0,0.0,A,B,/static/Simple_RL/Stimuli/Fractals_stims/A.jpg,/static/Simple_RL/Stimuli/Fractals_stims/B.jpg,1.0,80.0,20.0,80.0,0.0,A,B,121.0,0.892,0.0,
307,,rl_choice_confirmation,,html-keyboard-response,307,580567,0.0-1.0-424.0-0.0,0,0,99,,,,,,60.0,,2.0,,,,,,,,,,,,,,,,,,,,121.892,0.608,,
308,,isi,,html-keyboard-response,308,584071,0.0-1.0-426.0,0,0,99,,,,,,60.0,,2.0,,,,,,,,,,,,,,,,,,,,122.5,3.5,,
309,,feedback,,html-keyboard-response,309,585074,0.0-1.0-427.0-0.0,0,0,99,,,,,,60.0,,2.0,,,,,,,,,,,,,,,,,,,,126.0,1.0,,
310,,iti,,html-keyboard-response,310,586077,0.0-1.0-428.0,0,0,99,,,,,,60.0,,2.0,,,,,,,,,,,,,,,,,,,,127.0,1.0,,
311,,rl_choice,,html-keyboard-response,311,586781,0.0-1.0-430.0,0,0,99,,703.0,,,51.0,61.0,61.0,2.0,hard,3000.0,1500.0,0.0,40.0,60.0,40.0,60.0,D,C,/static/Simple_RL/Stimuli/Fractals_stims/D.jpg,/static/Simple_RL/Stimuli/Fractals_stims/C.jpg,0.0,60.0,40.0,60.0,40.0,C,D,128.0,0.703,0.0,
312,,rl_choice_confirmation,,html-keyboard-response,312,587581,0.0-1.0-431.0-0.0,0,0,99,,,,,,61.0,,2.0,,,,,,,,,,,,,,,,,,,,128.703,0.797,,
313,,isi,,html-keyboard-response,313,589085,0.0-1.0-433.0,0,0,99,,,,,,61.0,,2.0,,,,,,,,,,,,,,,,,,,,129.5,1.5,,
314,,feedback,,html-keyboard-response,314,590087,0.0-1.0-434.0-0.0,0,0,99,,,,,,61.0,,2.0,,,,,,,,,,,,,,,,,,,,131.0,1.0,,
315,,iti,,html-keyboard-response,315,593093,0.0-1.0-435.0,0,0,99,,,,,,61.0,,2.0,,,,,,,,,,,,,,,,,,,,132.0,3.0,,
316,,rl_choice,,html-keyboard-response,316,594528,0.0-1.0-437.0,0,0,99,,1434.0,,,51.0,62.0,62.0,2.0,easy,1000.0,1500.0,0.0,20.0,80.0,40.0,100.0,B,A,/static/Simple_RL/Stimuli/Fractals_stims/B.jpg,/static/Simple_RL/Stimuli/Fractals_stims/A.jpg,0.0,80.0,20.0,100.0,40.0,A,B,135.0,1.434,0.0,
317,,rl_choice_confirmation,,html-keyboard-response,317,594596,0.0-1.0-438.0-0.0,0,0,99,,,,,,62.0,,2.0,,,,,,,,,,,,,,,,,,,,136.434,0.066,,
318,,isi,,html-keyboard-response,318,596101,0.0-1.0-440.0,0,0,99,,,,,,62.0,,2.0,,,,,,,,,,,,,,,,,,,,136.5,1.5,,
319,,feedback,,html-keyboard-response,319,597106,0.0-1.0-441.0-0.0,0,0,99,,,,,,62.0,,2.0,,,,,,,,,,,,,,,,,,,,138.0,1.0,,
320,,iti,,html-keyboard-response,320,598109,0.0-1.0-442.0,0,0,99,,,,,,62.0,,2.0,,,,,,,,,,,,,,,,,,,,139.0,1.0,,
321,,rl_choice,,html-keyboard-response,321,598859,0.0-1.0-444.0,0,0,99,,749.0,,,50.0,63.0,63.0,2.0,easy,2000.0,1500.0,1.0,80.0,20.0,60.0,0.0,A,B,/static/Simple_RL/Stimuli/Fractals_stims/A.jpg,/static/Simple_RL/Stimuli/Fractals_stims/B.jpg,1.0,80.0,20.0,60.0,0.0,A,B,140.0,0.749,0.0,
322,,rl_choice_confirmation,,html-keyboard-response,322,599613,0.0-1.0-445.0-0.0,0,0,99,,,,,,63.0,,2.0,,,,,,,,,,,,,,,,,,,,140.749,0.751,,
323,,isi,,html-keyboard-response,323,601116,0.0-1.0-447.0,0,0,99,,,,,,63.0,,2.0,,,,,,,,,,,,,,,,,,,,141.5,1.5,,
324,,feedback,,html-keyboard-response,324,602119,0.0-1.0-448.0-0.0,0,0,99,,,,,,63.0,,2.0,,,,,,,,,,,,,,,,,,,,143.0,1.0,,
325,,iti,,html-keyboard-response,325,604125,0.0-1.0-449.0,0,0,99,,,,,,63.0,,2.0,,,,,,,,,,,,,,,,,,,,144.0,2.0,,
326,,rl_choice,,html-keyboard-response,326,604980,0.0-1.0-451.0,0,0,99,,854.0,,,51.0,64.0,64.0,2.0,hard,1500.0,1000.0,0.0,40.0,60.0,40.0,60.0,D,C,/static/Simple_RL/Stimuli/Fractals_stims/D.jpg,/static/Simple_RL/Stimuli/Fractals_stims/C.jpg,0.0,60.0,40.0,60.0,40.0,C,D,146.0,0.854,0.0,
327,,rl_choice_confirmation,,html-keyboard-response,327,605629,0.0-1.0-452.0-0.0,0,0,99,,,,,,64.0,,2.0,,,,,,,,,,,,,,,,,,,,146.854,0.646,,
328,,isi,,html-keyboard-response,328,606631,0.0-1.0-454.0,0,0,99,,,,,,64.0,,2.0,,,,,,,,,,,,,,,,,,,,147.5,1.0,,
329,,feedback,,html-keyboard-response,329,607634,0.0-1.0-455.0-0.0,0,0,99,,,,,,64.0,,2.0,,,,,,,,,,,,,,,,,,,,148.5,1.0,,
330,,iti,,html-keyboard-response,330,609138,0.0-1.0-456.0,0,0,99,,,,,,64.0,,2.0,,,,,,,,,,,,,,,,,,,,149.5,1.5,,
331,,rl_choice,,html-keyboard-response,331,609968,0.0-1.0-458.0,0,0,99,,829.0,,,51.0,65.0,65.0,2.0,hard,1000.0,1000.0,0.0,40.0,60.0,60.0,80.0,D,C,/static/Simple_RL/Stimuli/Fractals_stims/D.jpg,/static/Simple_RL/Stimuli/Fractals_stims/C.jpg,0.0,60.0,40.0,80.0,60.0,C,D,151.0,0.829,0.0,
332,,rl_choice_confirmation,,html-keyboard-response,332,610641,0.0-1.0-459.0-0.0,0,0,99,,,,,,65.0,,2.0,,,,,,,,,,,,,,,,,,,,151.829,0.671,,
333,,isi,,html-keyboard-response,333,611646,0.0-1.0-461.0,0,0,99,,,,,,65.0,,2.0,,,,,,,,,,,,,,,,,,,,152.5,1.0,,
334,,feedback,,html-keyboard-response,334,612653,0.0-1.0-462.0-0.0,0,0,99,,,,,,65.0,,2.0,,,,,,,,,,,,,,,,,,,,153.5,1.0,,
335,,iti,,html-keyboard-response,335,613655,0.0-1.0-463.0,0,0,99,,,,,,65.0,,2.0,,,,,,,,,,,,,,,,,,,,154.5,1.0,,
336,,rl_choice,,html-keyboard-response,336,615159,0.0-1.0-465.0,0,0,99,,,,,,66.0,66.0,2.0,easy,2000.0,1500.0,1.0,80.0,20.0,80.0,0.0,A,B,/static/Simple_RL/Stimuli/Fractals_stims/A.jpg,/static/Simple_RL/Stimuli/Fractals_stims/B.jpg,,,,,,,,155.5,1.5,1.0,
337,,rl_choice_warning,,html-keyboard-response,337,616165,0.0-1.0-467.0-0.0,1,0,99,,,,,,66.0,,2.0,,,,,,,,,,,,,,,,,,,,157.0,1.0,,
338,,isi,,html-keyboard-response,338,617671,0.0-1.0-468.0,0,0,99,,,,,,66.0,,2.0,,,,,,,,,,,,,,,,,,,,158.0,1.5,,
339,,iti,,html-keyboard-response,339,619677,0.0-1.0-470.0,0,0,99,,,,,,66.0,,2.0,,,,,,,,,,,,,,,,,,,,159.5,2.0,,
340,,rl_choice,,html-keyboard-response,340,620460,0.0-1.0-472.0,0,0,99,,782.0,,,51.0,67.0,67.0,2.0,easy,1000.0,1000.0,0.0,20.0,80.0,40.0,80.0,B,A,/static/Simple_RL/Stimuli/Fractals_stims/B.jpg,/static/Simple_RL/Stimuli/Fractals_stims/A.jpg,0.0,80.0,20.0,80.0,40.0,A,B,161.5,0.782,0.0,
341,,rl_choice_confirmation,,html-keyboard-response,341,621181,0.0-1.0-473.0-0.0,0,0,99,,,,,,67.0,,2.0,,,,,,,,,,,,,,,,,,,,162.282,0.718,,
342,,isi,,html-keyboard-response,342,622183,0.0-1.0-475.0,0,0,99,,,,,,67.0,,2.0,,,,,,,,,,,,,,,,,,,,163.0,1.0,,
343,,feedback,,html-keyboard-response,343,623186,0.0-1.0-476.0-0.0,0,0,99,,,,,,67.0,,2.0,,,,,,,,,,,,,,,,,,,,164.0,1.0,,
344,,iti,,html-keyboard-response,344,624188,0.0-1.0-477.0,0,0,99,,,,,,67.0,,2.0,,,,,,,,,,,,,,,,,,,,165.0,1.0,,
345,,rl_choice,,html-keyboard-response,345,624926,0.0-1.0-479.0,0,0,99,,736.0,,,50.0,68.0,68.0,2.0,hard,1000.0,1500.0,1.0,60.0,40.0,40.0,60.0,C,D,/static/Simple_RL/Stimuli/Fractals_stims/C.jpg,/static/Simple_RL/Stimuli/Fractals_stims/D.jpg,1.0,60.0,40.0,40.0,60.0,C,D,166.0,0.736,0.0,
346,,rl_choice_confirmation,,html-keyboard-response,346,625692,0.0-1.0-480.0-0.0,0,0,99,,,,,,68.0,,2.0,,,,,,,,,,,,,,,,,,,,166.736,0.764,,
347,,isi,,html-keyboard-response,347,627197,0.0-1.0-482.0,0,0,99,,,,,,68.0,,2.0,,,,,,,,,,,,,,,,,,,,167.5,1.5,,
348,,feedback,,html-keyboard-response,348,628199,0.0-1.0-483.0-0.0,0,0,99,,,,,,68.0,,2.0,,,,,,,,,,,,,,,,,,,,169.0,1.0,,
349,,iti,,html-keyboard-response,349,629202,0.0-1.0-484.0,0,0,99,,,,,,68.0,,2.0,,,,,,,,,,,,,,,,,,,,170.0,1.0,,
350,,rl_choice,,html-keyboard-response,350,630706,0.0-1.0-486.0,0,0,99,,,,,,69.0,69.0,2.0,hard,1000.0,3000.0,1.0,60.0,40.0,40.0,20.0,C,D,/static/Simple_RL/Stimuli/Fractals_stims/C.jpg,/static/Simple_RL/Stimuli/Fractals_stims/D.jpg,,,,,,,,171.0,1.5,1.0,
351,,rl_choice_warning,,html-keyboard-response,351,631708,0.0-1.0-488.0-0.0,1,0,99,,,,,,69.0,,2.0,,,,,,,,,,,,,,,,,,,,172.5,1.0,,
352,,isi,,html-keyboard-response,352,634711,0.0-1.0-489.0,0,0,99,,,,,,69.0,,2.0,,,,,,,,,,,,,,,,,,,,173.5,3.0,,
353,,iti,,html-keyboard-response,353,635714,0.0-1.0-491.0,0,0,99,,,,,,69.0,,2.0,,,,,,,,,,,,,,,,,,,,176.5,1.0,,
354,,rl_choice,,html-keyboard-response,354,636432,0.0-1.0-493.0,0,0,99,,717.0,,,51.0,70.0,70.0,2.0,hard,1000.0,1000.0,0.0,40.0,60.0,40.0,60.0,D,C,/static/Simple_RL/Stimuli/Fractals_stims/D.jpg,/static/Simple_RL/Stimuli/Fractals_stims/C.jpg,0.0,60.0,40.0,60.0,40.0,C,D,177.5,0.717,0.0,
355,,rl_choice_confirmation,,html-keyboard-response,355,637219,0.0-1.0-494.0-0.0,0,0,99,,,,,,70.0,,2.0,,,,,,,,,,,,,,,,,,,,178.217,0.783,,
356,,isi,,html-keyboard-response,356,638221,0.0-1.0-496.0,0,0,99,,,,,,70.0,,2.0,,,,,,,,,,,,,,,,,,,,179.0,1.0,,
357,,feedback,,html-keyboard-response,357,639223,0.0-1.0-497.0-0.0,0,0,99,,,,,,70.0,,2.0,,,,,,,,,,,,,,,,,,,,180.0,1.0,,
358,,iti,,html-keyboard-response,358,640226,0.0-1.0-498.0,0,0,99,,,,,,70.0,,2.0,,,,,,,,,,,,,,,,,,,,181.0,1.0,,
359,,rl_choice,,html-keyboard-response,359,641431,0.0-1.0-500.0,0,0,99,,1204.0,,,50.0,71.0,71.0,2.0,easy,2000.0,1000.0,0.0,20.0,80.0,20.0,100.0,B,A,/static/Simple_RL/Stimuli/Fractals_stims/B.jpg,/static/Simple_RL/Stimuli/Fractals_stims/A.jpg,1.0,20.0,80.0,20.0,100.0,B,A,182.0,1.204,0.0,
360,,rl_choice_confirmation,,html-keyboard-response,360,641730,0.0-1.0-501.0-0.0,0,0,99,,,,,,71.0,,2.0,,,,,,,,,,,,,,,,,,,,183.204,0.296,,
361,,isi,,html-keyboard-response,361,642733,0.0-1.0-503.0,0,0,99,,,,,,71.0,,2.0,,,,,,,,,,,,,,,,,,,,183.5,1.0,,
362,,feedback,,html-keyboard-response,362,643738,0.0-1.0-504.0-0.0,0,0,99,,,,,,71.0,,2.0,,,,,,,,,,,,,,,,,,,,184.5,1.0,,
363,,iti,,html-keyboard-response,363,645740,0.0-1.0-505.0,0,0,99,,,,,,71.0,,2.0,,,,,,,,,,,,,,,,,,,,185.5,2.0,,
364,,rl_choice,,html-keyboard-response,364,646431,0.0-1.0-507.0,0,0,99,,689.0,,,51.0,72.0,72.0,2.0,easy,1500.0,1000.0,0.0,20.0,80.0,20.0,60.0,B,A,/static/Simple_RL/Stimuli/Fractals_stims/B.jpg,/static/Simple_RL/Stimuli/Fractals_stims/A.jpg,0.0,80.0,20.0,60.0,20.0,A,B,187.5,0.689,0.0,
365,,rl_choice_confirmation,,html-keyboard-response,365,647244,0.0-1.0-508.0-0.0,0,0,99,,,,,,72.0,,2.0,,,,,,,,,,,,,,,,,,,,188.189,0.811,,
366,,isi,,html-keyboard-response,366,648247,0.0-1.0-510.0,0,0,99,,,,,,72.0,,2.0,,,,,,,,,,,,,,,,,,,,189.0,1.0,,
367,,feedback,,html-keyboard-response,367,649250,0.0-1.0-511.0-0.0,0,0,99,,,,,,72.0,,2.0,,,,,,,,,,,,,,,,,,,,190.0,1.0,,
368,,iti,,html-keyboard-response,368,650754,0.0-1.0-512.0,0,0,99,,,,,,72.0,,2.0,,,,,,,,,,,,,,,,,,,,191.0,1.5,,
369,,rl_choice,,html-keyboard-response,369,651395,0.0-1.0-514.0,0,0,99,,640.0,,,51.0,73.0,73.0,2.0,easy,1500.0,2000.0,0.0,20.0,80.0,20.0,80.0,B,A,/static/Simple_RL/Stimuli/Fractals_stims/B.jpg,/static/Simple_RL/Stimuli/Fractals_stims/A.jpg,0.0,80.0,20.0,80.0,20.0,A,B,192.5,0.64,0.0,
370,,rl_choice_confirmation,,html-keyboard-response,370,652257,0.0-1.0-515.0-0.0,0,0,99,,,,,,73.0,,2.0,,,,,,,,,,,,,,,,,,,,193.14,0.86,,
371,,isi,,html-keyboard-response,371,654259,0.0-1.0-517.0,0,0,99,,,,,,73.0,,2.0,,,,,,,,,,,,,,,,,,,,194.0,2.0,,
372,,feedback,,html-keyboard-response,372,655265,0.0-1.0-518.0-0.0,0,0,99,,,,,,73.0,,2.0,,,,,,,,,,,,,,,,,,,,196.0,1.0,,
373,,iti,,html-keyboard-response,373,656769,0.0-1.0-519.0,0,0,99,,,,,,73.0,,2.0,,,,,,,,,,,,,,,,,,,,197.0,1.5,,
374,,rl_choice,,html-keyboard-response,374,657639,0.0-1.0-521.0,0,0,99,,868.0,,,50.0,74.0,74.0,2.0,hard,1000.0,1500.0,1.0,60.0,40.0,40.0,60.0,C,D,/static/Simple_RL/Stimuli/Fractals_stims/C.jpg,/static/Simple_RL/Stimuli/Fractals_stims/D.jpg,1.0,60.0,40.0,40.0,60.0,C,D,198.5,0.868,0.0,
375,,rl_choice_confirmation,,html-keyboard-response,375,658274,0.0-1.0-522.0-0.0,0,0,99,,,,,,74.0,,2.0,,,,,,,,,,,,,,,,,,,,199.368,0.632,,
376,,isi,,html-keyboard-response,376,659777,0.0-1.0-524.0,0,0,99,,,,,,74.0,,2.0,,,,,,,,,,,,,,,,,,,,200.0,1.5,,
377,,feedback,,html-keyboard-response,377,660780,0.0-1.0-525.0-0.0,0,0,99,,,,,,74.0,,2.0,,,,,,,,,,,,,,,,,,,,201.5,1.0,,
378,,iti,,html-keyboard-response,378,661781,0.0-1.0-526.0,0,0,99,,,,,,74.0,,2.0,,,,,,,,,,,,,,,,,,,,202.5,1.0,,
379,,rl_choice,,html-keyboard-response,379,662416,0.0-1.0-528.0,0,0,99,,634.0,,,50.0,75.0,75.0,2.0,hard,1000.0,1500.0,1.0,60.0,40.0,60.0,20.0,C,D,/static/Simple_RL/Stimuli/Fractals_stims/C.jpg,/static/Simple_RL/Stimuli/Fractals_stims/D.jpg,1.0,60.0,40.0,60.0,20.0,C,D,203.5,0.634,0.0,
380,,rl_choice_confirmation,,html-keyboard-response,380,663284,0.0-1.0-529.0-0.0,0,0,99,,,,,,75.0,,2.0,,,,,,,,,,,,,,,,,,,,204.134,0.866,,
381,,isi,,html-keyboard-response,381,664785,0.0-1.0-531.0,0,0,99,,,,,,75.0,,2.0,,,,,,,,,,,,,,,,,,,,205.0,1.5,,
382,,feedback,,html-keyboard-response,382,665788,0.0-1.0-532.0-0.0,0,0,99,,,,,,75.0,,2.0,,,,,,,,,,,,,,,,,,,,206.5,1.0,,
383,,iti,,html-keyboard-response,383,666791,0.0-1.0-533.0,0,0,99,,,,,,75.0,,2.0,,,,,,,,,,,,,,,,,,,,207.5,1.0,,
384,,rl_choice,,html-keyboard-response,384,667493,0.0-1.0-535.0,0,0,99,,700.0,,,50.0,76.0,76.0,2.0,hard,3000.0,1000.0,1.0,60.0,40.0,40.0,60.0,C,D,/static/Simple_RL/Stimuli/Fractals_stims/C.jpg,/static/Simple_RL/Stimuli/Fractals_stims/D.jpg,1.0,60.0,40.0,40.0,60.0,C,D,208.5,0.7,0.0,
385,,rl_choice_confirmation,,html-keyboard-response,385,668295,0.0-1.0-536.0-0.0,0,0,99,,,,,,76.0,,2.0,,,,,,,,,,,,,,,,,,,,209.2,0.8,,
386,,isi,,html-keyboard-response,386,669298,0.0-1.0-538.0,0,0,99,,,,,,76.0,,2.0,,,,,,,,,,,,,,,,,,,,210.0,1.0,,
387,,feedback,,html-keyboard-response,387,670300,0.0-1.0-539.0-0.0,0,0,99,,,,,,76.0,,2.0,,,,,,,,,,,,,,,,,,,,211.0,1.0,,
388,,iti,,html-keyboard-response,388,673302,0.0-1.0-540.0,0,0,99,,,,,,76.0,,2.0,,,,,,,,,,,,,,,,,,,,212.0,3.0,,
389,,rl_choice,,html-keyboard-response,389,673950,0.0-1.0-542.0,0,0,99,,645.0,,,51.0,77.0,77.0,2.0,easy,1000.0,1000.0,0.0,20.0,80.0,20.0,60.0,B,A,/static/Simple_RL/Stimuli/Fractals_stims/B.jpg,/static/Simple_RL/Stimuli/Fractals_stims/A.jpg,0.0,80.0,20.0,60.0,20.0,A,B,215.0,0.645,0.0,
390,,rl_choice_confirmation,,html-keyboard-response,390,674807,0.0-1.0-543.0-0.0,0,0,99,,,,,,77.0,,2.0,,,,,,,,,,,,,,,,,,,,215.645,0.855,,
391,,isi,,html-keyboard-response,391,675810,0.0-1.0-545.0,0,0,99,,,,,,77.0,,2.0,,,,,,,,,,,,,,,,,,,,216.5,1.0,,
392,,feedback,,html-keyboard-response,392,676812,0.0-1.0-546.0-0.0,0,0,99,,,,,,77.0,,2.0,,,,,,,,,,,,,,,,,,,,217.5,1.0,,
393,,iti,,html-keyboard-response,393,677814,0.0-1.0-547.0,0,0,99,,,,,,77.0,,2.0,,,,,,,,,,,,,,,,,,,,218.5,1.0,,
394,,rl_choice,,html-keyboard-response,394,678414,0.0-1.0-549.0,0,0,99,,596.0,,,51.0,78.0,78.0,2.0,easy,3000.0,1000.0,0.0,20.0,80.0,0.0,100.0,B,A,/static/Simple_RL/Stimuli/Fractals_stims/B.jpg,/static/Simple_RL/Stimuli/Fractals_stims/A.jpg,0.0,80.0,20.0,100.0,0.0,A,B,219.5,0.596,0.0,
395,,rl_choice_confirmation,,html-keyboard-response,395,679319,0.0-1.0-550.0-0.0,0,0,99,,,,,,78.0,,2.0,,,,,,,,,,,,,,,,,,,,220.096,0.904,,
396,,isi,,html-keyboard-response,396,680321,0.0-1.0-552.0,0,0,99,,,,,,78.0,,2.0,,,,,,,,,,,,,,,,,,,,221.0,1.0,,
397,,feedback,,html-keyboard-response,397,681327,0.0-1.0-553.0-0.0,0,0,99,,,,,,78.0,,2.0,,,,,,,,,,,,,,,,,,,,222.0,1.0,,
398,,iti,,html-keyboard-response,398,684332,0.0-1.0-554.0,0,0,99,,,,,,78.0,,2.0,,,,,,,,,,,,,,,,,,,,223.0,3.0,,
399,,rl_choice,,html-keyboard-response,399,685836,0.0-1.0-556.0,0,0,99,,,,,,79.0,79.0,2.0,hard,2000.0,1500.0,1.0,60.0,40.0,60.0,40.0,C,D,/static/Simple_RL/Stimuli/Fractals_stims/C.jpg,/static/Simple_RL/Stimuli/Fractals_stims/D.jpg,,,,,,,,226.0,1.5,1.0,
400,,rl_choice_warning,,html-keyboard-response,400,686839,0.0-1.0-558.0-0.0,1,0,99,,,,,,79.0,,2.0,,,,,,,,,,,,,,,,,,,,227.5,1.0,,
401,,isi,,html-keyboard-response,401,688343,0.0-1.0-559.0,0,0,99,,,,,,79.0,,2.0,,,,,,,,,,,,,,,,,,,,228.5,1.5,,
402,,iti,,html-keyboard-response,402,690348,0.0-1.0-561.0,0,0,99,,,,,,79.0,,2.0,,,,,,,,,,,,,,,,,,,,230.0,2.0,,3.66
403,,final_tally,,html-keyboard-response,403,694432,0.0-2.0,0,0,99,,4082.0,,,50.0,,,,,,,,,,,,,,,,,,,,,,,,,,
