,success,ttype,start_time,trial_type,trial_index,time_elapsed,internal_node_id,warning,missed_checkup,PID,view_history,rt,responses,repeat_instructions,key_press,index,trial_num,block,condition,iti,isi,high_group_on_left,left_group_value,right_group_value,left_item_value,right_item_value,left_img,right_img,left_img_path,right_img_path,onset,duration,no_response,left_chosen,chosen_group_value,unchosen_group_value,chosen_item_value,unchosen_item_value,chosen_img,unchosen_img,total_bonus_tally
0,True,full_screen,d06072022hr1812,fullscreen,0,6751,0.0-0.0,0,0,46320,,,,,,,,,,,,,,,,,,,,,,,,,,,,,,,
1,,size_instructions,,instructions,1,48308,0.0-1.0-0.0-0.0,0,0,46320,"[{""page_index"":0,""viewing_time"":4024},{""page_index"":1,""viewing_time"":22110},{""page_index"":2,""viewing_time"":9011},{""page_index"":3,""viewing_time"":1918},{""page_index"":4,""viewing_time"":2501},{""page_index"":5,""viewing_time"":1989}]",41554.0,,,,,,,,,,,,,,,,,,,,,,,,,,,,,
2,,rl_comprehension_check,,survey-multi-choice,2,57338,0.0-1.0-0.0-1.0,0,0,46320,,9023.0,"{""Q0"":""True"",""Q1"":""True"",""Q2"":""D for left and K for right""}",0.0,,,,,,,,,,,,,,,,,,,,,,,,,,,
3,,,,html-keyboard-response,3,60653,0.0-1.0-1.0,0,0,46320,,3310.0,,,68.0,,,,,,,,,,,,,,,,,,,,,,,,,,
4,,rl_choice,,html-keyboard-response,4,62158,0.0-1.0-2.0,0,0,46320,,,,,,0.0,0.0,1.0,hard,1000.0,2000.0,0.0,40.0,60.0,20.0,60.0,C,D,/static/Simple_RL/Stimuli/Fractals_stims/C.jpg,/static/Simple_RL/Stimuli/Fractals_stims/D.jpg,1.5,1.5,1.0,,,,,,,,
5,,rl_choice_warning,,html-keyboard-response,5,63163,0.0-1.0-4.0-0.0,0,0,46320,,,,,,0.0,,1.0,,,,,,,,,,,,,2.5,1.0,,,,,,,,,
6,,isi,,html-keyboard-response,6,65182,0.0-1.0-5.0,0,0,46320,,,,,,0.0,,1.0,,,,,,,,,,,,,4.5,2.0,,,,,,,,,
7,,iti,,html-keyboard-response,7,66193,0.0-1.0-7.0,0,0,46320,,,,,,0.0,,1.0,,,,,,,,,,,,,5.5,1.0,,,,,,,,,
8,,rl_choice,,html-keyboard-response,8,66808,0.0-1.0-9.0,0,0,46320,,612.0,,,68.0,1.0,1.0,1.0,easy,1000.0,3000.0,1.0,80.0,20.0,100.0,40.0,B,A,/static/Simple_RL/Stimuli/Fractals_stims/B.jpg,/static/Simple_RL/Stimuli/Fractals_stims/A.jpg,6.112,0.612,0.0,1.0,80.0,20.0,100.0,40.0,B,A,
9,,rl_choice_confirmation,,html-keyboard-response,9,67700,0.0-1.0-10.0-0.0,0,0,46320,,,,,,1.0,,1.0,,,,,,,,,,,,,7.0,0.888,,,,,,,,,
10,,isi,,html-keyboard-response,10,70702,0.0-1.0-12.0,0,0,46320,,,,,,1.0,,1.0,,,,,,,,,,,,,10.0,3.0,,,,,,,,,
11,,feedback,,html-keyboard-response,11,71705,0.0-1.0-13.0-0.0,0,0,46320,,,,,,1.0,,1.0,,,,,,,,,,,,,11.0,1.0,,,,,,,,,
12,,iti,,html-keyboard-response,12,72708,0.0-1.0-14.0,0,0,46320,,,,,,1.0,,1.0,,,,,,,,,,,,,12.0,1.0,,,,,,,,,
13,,rl_choice,,html-keyboard-response,13,73311,0.0-1.0-16.0,0,0,46320,,598.0,,,68.0,2.0,2.0,1.0,hard,3000.0,1000.0,0.0,40.0,60.0,20.0,80.0,C,D,/static/Simple_RL/Stimuli/Fractals_stims/C.jpg,/static/Simple_RL/Stimuli/Fractals_stims/D.jpg,12.598,0.598,0.0,1.0,40.0,60.0,20.0,80.0,C,D,
14,,rl_choice_confirmation,,html-keyboard-response,14,74216,0.0-1.0-17.0-0.0,0,0,46320,,,,,,2.0,,1.0,,,,,,,,,,,,,13.5,0.902,,,,,,,,,
15,,isi,,html-keyboard-response,15,75220,0.0-1.0-19.0,0,0,46320,,,,,,2.0,,1.0,,,,,,,,,,,,,14.5,1.0,,,,,,,,,
16,,feedback,,html-keyboard-response,16,76223,0.0-1.0-20.0-0.0,0,0,46320,,,,,,2.0,,1.0,,,,,,,,,,,,,15.5,1.0,,,,,,,,,
17,,iti,,html-keyboard-response,17,79227,0.0-1.0-21.0,0,0,46320,,,,,,2.0,,1.0,,,,,,,,,,,,,18.5,3.0,,,,,,,,,
18,,rl_choice,,html-keyboard-response,18,79467,0.0-1.0-23.0,0,0,46320,,236.0,,,68.0,3.0,3.0,1.0,hard,1000.0,3500.0,0.0,40.0,60.0,60.0,60.0,C,D,/static/Simple_RL/Stimuli/Fractals_stims/C.jpg,/static/Simple_RL/Stimuli/Fractals_stims/D.jpg,18.736,0.236,0.0,1.0,40.0,60.0,60.0,60.0,C,D,
19,,rl_choice_confirmation,,html-keyboard-response,19,80731,0.0-1.0-24.0-0.0,0,0,46320,,,,,,3.0,,1.0,,,,,,,,,,,,,20.0,1.264,,,,,,,,,
20,,isi,,html-keyboard-response,20,84234,0.0-1.0-26.0,0,0,46320,,,,,,3.0,,1.0,,,,,,,,,,,,,23.5,3.5,,,,,,,,,
21,,feedback,,html-keyboard-response,21,85238,0.0-1.0-27.0-0.0,0,0,46320,,,,,,3.0,,1.0,,,,,,,,,,,,,24.5,1.0,,,,,,,,,
22,,iti,,html-keyboard-response,22,86240,0.0-1.0-28.0,0,0,46320,,,,,,3.0,,1.0,,,,,,,,,,,,,25.5,1.0,,,,,,,,,
23,,rl_choice,,html-keyboard-response,23,87650,0.0-1.0-30.0,0,0,46320,,1407.0,,,75.0,4.0,4.0,1.0,hard,1500.0,3000.0,0.0,40.0,60.0,20.0,60.0,C,D,/static/Simple_RL/Stimuli/Fractals_stims/C.jpg,/static/Simple_RL/Stimuli/Fractals_stims/D.jpg,26.907,1.407,0.0,0.0,60.0,40.0,60.0,20.0,D,C,
24,,rl_choice_confirmation,,html-keyboard-response,24,87745,0.0-1.0-31.0-0.0,0,0,46320,,,,,,4.0,,1.0,,,,,,,,,,,,,27.0,0.093,,,,,,,,,
25,,isi,,html-keyboard-response,25,90748,0.0-1.0-33.0,0,0,46320,,,,,,4.0,,1.0,,,,,,,,,,,,,30.0,3.0,,,,,,,,,
26,,feedback,,html-keyboard-response,26,91751,0.0-1.0-34.0-0.0,0,0,46320,,,,,,4.0,,1.0,,,,,,,,,,,,,31.0,1.0,,,,,,,,,
27,,iti,,html-keyboard-response,27,93253,0.0-1.0-35.0,0,0,46320,,,,,,4.0,,1.0,,,,,,,,,,,,,32.5,1.5,,,,,,,,,
28,,rl_choice,,html-keyboard-response,28,94758,0.0-1.0-37.0,0,0,46320,,,,,,5.0,5.0,1.0,easy,2000.0,2000.0,0.0,20.0,80.0,20.0,100.0,A,B,/static/Simple_RL/Stimuli/Fractals_stims/A.jpg,/static/Simple_RL/Stimuli/Fractals_stims/B.jpg,34.0,1.5,1.0,,,,,,,,
29,,rl_choice_warning,,html-keyboard-response,29,95760,0.0-1.0-39.0-0.0,0,0,46320,,,,,,5.0,,1.0,,,,,,,,,,,,,35.0,1.0,,,,,,,,,
30,,isi,,html-keyboard-response,30,97811,0.0-1.0-40.0,0,0,46320,,,,,,5.0,,1.0,,,,,,,,,,,,,37.0,2.0,,,,,,,,,
31,,iti,,html-keyboard-response,31,99813,0.0-1.0-42.0,0,0,46320,,,,,,5.0,,1.0,,,,,,,,,,,,,39.0,2.0,,,,,,,,,
32,,rl_choice,,html-keyboard-response,32,100369,0.0-1.0-44.0,0,0,46320,,553.0,,,68.0,6.0,6.0,1.0,hard,1000.0,1000.0,0.0,40.0,60.0,40.0,80.0,C,D,/static/Simple_RL/Stimuli/Fractals_stims/C.jpg,/static/Simple_RL/Stimuli/Fractals_stims/D.jpg,39.553,0.553,0.0,1.0,40.0,60.0,40.0,80.0,C,D,
33,,rl_choice_confirmation,,html-keyboard-response,33,101329,0.0-1.0-45.0-0.0,0,0,46320,,,,,,6.0,,1.0,,,,,,,,,,,,,40.5,0.947,,,,,,,,,
34,,isi,,html-keyboard-response,34,102346,0.0-1.0-47.0,0,0,46320,,,,,,6.0,,1.0,,,,,,,,,,,,,41.5,1.0,,,,,,,,,
35,,feedback,,html-keyboard-response,35,103371,0.0-1.0-48.0-0.0,0,0,46320,,,,,,6.0,,1.0,,,,,,,,,,,,,42.5,1.0,,,,,,,,,
36,,iti,,html-keyboard-response,36,104375,0.0-1.0-49.0,0,0,46320,,,,,,6.0,,1.0,,,,,,,,,,,,,43.5,1.0,,,,,,,,,
37,,rl_choice,,html-keyboard-response,37,105528,0.0-1.0-51.0,0,0,46320,,1126.0,,,75.0,7.0,7.0,1.0,hard,1500.0,1000.0,0.0,40.0,60.0,60.0,80.0,C,D,/static/Simple_RL/Stimuli/Fractals_stims/C.jpg,/static/Simple_RL/Stimuli/Fractals_stims/D.jpg,44.626,1.126,0.0,0.0,60.0,40.0,80.0,60.0,D,C,
38,,rl_choice_confirmation,,html-keyboard-response,38,105906,0.0-1.0-52.0-0.0,0,0,46320,,,,,,7.0,,1.0,,,,,,,,,,,,,45.0,0.374,,,,,,,,,
39,,isi,,html-keyboard-response,39,106909,0.0-1.0-54.0,0,0,46320,,,,,,7.0,,1.0,,,,,,,,,,,,,46.0,1.0,,,,,,,,,
40,,feedback,,html-keyboard-response,40,107912,0.0-1.0-55.0-0.0,0,0,46320,,,,,,7.0,,1.0,,,,,,,,,,,,,47.0,1.0,,,,,,,,,
41,,iti,,html-keyboard-response,41,109425,0.0-1.0-56.0,0,0,46320,,,,,,7.0,,1.0,,,,,,,,,,,,,48.5,1.5,,,,,,,,,
42,,rl_choice,,html-keyboard-response,42,110127,0.0-1.0-58.0,0,0,46320,,697.0,,,75.0,8.0,8.0,1.0,easy,1500.0,2000.0,0.0,20.0,80.0,0.0,100.0,A,B,/static/Simple_RL/Stimuli/Fractals_stims/A.jpg,/static/Simple_RL/Stimuli/Fractals_stims/B.jpg,49.197,0.697,0.0,0.0,80.0,20.0,100.0,0.0,B,A,
43,,rl_choice_confirmation,,html-keyboard-response,43,110932,0.0-1.0-59.0-0.0,0,0,46320,,,,,,8.0,,1.0,,,,,,,,,,,,,50.0,0.803,,,,,,,,,
44,,isi,,html-keyboard-response,44,112938,0.0-1.0-61.0,0,0,46320,,,,,,8.0,,1.0,,,,,,,,,,,,,52.0,2.0,,,,,,,,,
45,,feedback,,html-keyboard-response,45,113942,0.0-1.0-62.0-0.0,0,0,46320,,,,,,8.0,,1.0,,,,,,,,,,,,,53.0,1.0,,,,,,,,,
46,,iti,,html-keyboard-response,46,115445,0.0-1.0-63.0,0,0,46320,,,,,,8.0,,1.0,,,,,,,,,,,,,54.5,1.5,,,,,,,,,
47,,rl_choice,,html-keyboard-response,47,116361,0.0-1.0-65.0,0,0,46320,,914.0,,,75.0,9.0,9.0,1.0,easy,2000.0,1000.0,1.0,80.0,20.0,60.0,0.0,B,A,/static/Simple_RL/Stimuli/Fractals_stims/B.jpg,/static/Simple_RL/Stimuli/Fractals_stims/A.jpg,55.414,0.914,0.0,0.0,20.0,80.0,0.0,60.0,A,B,
48,,rl_choice_confirmation,,html-keyboard-response,48,116950,0.0-1.0-66.0-0.0,0,0,46320,,,,,,9.0,,1.0,,,,,,,,,,,,,56.0,0.586,,,,,,,,,
49,,isi,,html-keyboard-response,49,117951,0.0-1.0-68.0,0,0,46320,,,,,,9.0,,1.0,,,,,,,,,,,,,57.0,1.0,,,,,,,,,
50,,feedback,,html-keyboard-response,50,118951,0.0-1.0-69.0-0.0,0,0,46320,,,,,,9.0,,1.0,,,,,,,,,,,,,58.0,1.0,,,,,,,,,
51,,iti,,html-keyboard-response,51,120954,0.0-1.0-70.0,0,0,46320,,,,,,9.0,,1.0,,,,,,,,,,,,,60.0,2.0,,,,,,,,,
52,,rl_choice,,html-keyboard-response,52,121923,0.0-1.0-72.0,0,0,46320,,965.0,,,68.0,10.0,10.0,1.0,hard,1000.0,1000.0,1.0,60.0,40.0,40.0,40.0,D,C,/static/Simple_RL/Stimuli/Fractals_stims/D.jpg,/static/Simple_RL/Stimuli/Fractals_stims/C.jpg,60.965,0.965,0.0,1.0,60.0,40.0,40.0,40.0,D,C,
53,,rl_choice_confirmation,,html-keyboard-response,53,122468,0.0-1.0-73.0-0.0,0,0,46320,,,,,,10.0,,1.0,,,,,,,,,,,,,61.5,0.535,,,,,,,,,
54,,isi,,html-keyboard-response,54,123469,0.0-1.0-75.0,0,0,46320,,,,,,10.0,,1.0,,,,,,,,,,,,,62.5,1.0,,,,,,,,,
55,,feedback,,html-keyboard-response,55,124472,0.0-1.0-76.0-0.0,0,0,46320,,,,,,10.0,,1.0,,,,,,,,,,,,,63.5,1.0,,,,,,,,,
56,,iti,,html-keyboard-response,56,125475,0.0-1.0-77.0,0,0,46320,,,,,,10.0,,1.0,,,,,,,,,,,,,64.5,1.0,,,,,,,,,
57,,rl_choice,,html-keyboard-response,57,126688,0.0-1.0-79.0,0,0,46320,,1209.0,,,75.0,11.0,11.0,1.0,easy,1000.0,3000.0,0.0,20.0,80.0,20.0,60.0,A,B,/static/Simple_RL/Stimuli/Fractals_stims/A.jpg,/static/Simple_RL/Stimuli/Fractals_stims/B.jpg,65.709,1.209,0.0,0.0,80.0,20.0,60.0,20.0,B,A,
58,,rl_choice_confirmation,,html-keyboard-response,58,126991,0.0-1.0-80.0-0.0,0,0,46320,,,,,,11.0,,1.0,,,,,,,,,,,,,66.0,0.291,,,,,,,,,
59,,isi,,html-keyboard-response,59,129993,0.0-1.0-82.0,0,0,46320,,,,,,11.0,,1.0,,,,,,,,,,,,,69.0,3.0,,,,,,,,,
60,,feedback,,html-keyboard-response,60,130999,0.0-1.0-83.0-0.0,0,0,46320,,,,,,11.0,,1.0,,,,,,,,,,,,,70.0,1.0,,,,,,,,,
61,,iti,,html-keyboard-response,61,132002,0.0-1.0-84.0,0,0,46320,,,,,,11.0,,1.0,,,,,,,,,,,,,71.0,1.0,,,,,,,,,
62,,rl_choice,,html-keyboard-response,62,133117,0.0-1.0-86.0,0,0,46320,,1112.0,,,75.0,12.0,12.0,1.0,easy,3000.0,1500.0,0.0,20.0,80.0,20.0,80.0,A,B,/static/Simple_RL/Stimuli/Fractals_stims/A.jpg,/static/Simple_RL/Stimuli/Fractals_stims/B.jpg,72.112,1.112,0.0,0.0,80.0,20.0,80.0,20.0,B,A,
63,,rl_choice_confirmation,,html-keyboard-response,63,133506,0.0-1.0-87.0-0.0,0,0,46320,,,,,,12.0,,1.0,,,,,,,,,,,,,72.5,0.388,,,,,,,,,
64,,isi,,html-keyboard-response,64,135010,0.0-1.0-89.0,0,0,46320,,,,,,12.0,,1.0,,,,,,,,,,,,,74.0,1.5,,,,,,,,,
65,,feedback,,html-keyboard-response,65,136014,0.0-1.0-90.0-0.0,0,0,46320,,,,,,12.0,,1.0,,,,,,,,,,,,,75.0,1.0,,,,,,,,,
66,,iti,,html-keyboard-response,66,139017,0.0-1.0-91.0,0,0,46320,,,,,,12.0,,1.0,,,,,,,,,,,,,78.0,3.0,,,,,,,,,
67,,rl_choice,,html-keyboard-response,67,140022,0.0-1.0-93.0,0,0,46320,,1001.0,,,75.0,13.0,13.0,1.0,hard,1000.0,2000.0,0.0,40.0,60.0,40.0,80.0,C,D,/static/Simple_RL/Stimuli/Fractals_stims/C.jpg,/static/Simple_RL/Stimuli/Fractals_stims/D.jpg,79.001,1.001,0.0,0.0,60.0,40.0,80.0,40.0,D,C,
68,,rl_choice_confirmation,,html-keyboard-response,68,140524,0.0-1.0-94.0-0.0,0,0,46320,,,,,,13.0,,1.0,,,,,,,,,,,,,79.5,0.499,,,,,,,,,
69,,isi,,html-keyboard-response,69,142526,0.0-1.0-96.0,0,0,46320,,,,,,13.0,,1.0,,,,,,,,,,,,,81.5,2.0,,,,,,,,,
70,,feedback,,html-keyboard-response,70,143531,0.0-1.0-97.0-0.0,0,0,46320,,,,,,13.0,,1.0,,,,,,,,,,,,,82.5,1.0,,,,,,,,,
71,,iti,,html-keyboard-response,71,144535,0.0-1.0-98.0,0,0,46320,,,,,,13.0,,1.0,,,,,,,,,,,,,83.5,1.0,,,,,,,,,
72,,rl_choice,,html-keyboard-response,72,145448,0.0-1.0-100.0,0,0,46320,,909.0,,,75.0,14.0,14.0,1.0,easy,1500.0,1500.0,0.0,20.0,80.0,20.0,80.0,A,B,/static/Simple_RL/Stimuli/Fractals_stims/A.jpg,/static/Simple_RL/Stimuli/Fractals_stims/B.jpg,84.409,0.909,0.0,0.0,80.0,20.0,80.0,20.0,B,A,
73,,rl_choice_confirmation,,html-keyboard-response,73,146056,0.0-1.0-101.0-0.0,0,0,46320,,,,,,14.0,,1.0,,,,,,,,,,,,,85.0,0.591,,,,,,,,,
74,,isi,,html-keyboard-response,74,147558,0.0-1.0-103.0,0,0,46320,,,,,,14.0,,1.0,,,,,,,,,,,,,86.5,1.5,,,,,,,,,
75,,feedback,,html-keyboard-response,75,148561,0.0-1.0-104.0-0.0,0,0,46320,,,,,,14.0,,1.0,,,,,,,,,,,,,87.5,1.0,,,,,,,,,
76,,iti,,html-keyboard-response,76,150062,0.0-1.0-105.0,0,0,46320,,,,,,14.0,,1.0,,,,,,,,,,,,,89.0,1.5,,,,,,,,,
77,,rl_choice,,html-keyboard-response,77,150961,0.0-1.0-107.0,0,0,46320,,894.0,,,68.0,15.0,15.0,1.0,hard,1500.0,2000.0,1.0,60.0,40.0,40.0,60.0,D,C,/static/Simple_RL/Stimuli/Fractals_stims/D.jpg,/static/Simple_RL/Stimuli/Fractals_stims/C.jpg,89.894,0.894,0.0,1.0,60.0,40.0,40.0,60.0,D,C,
78,,rl_choice_confirmation,,html-keyboard-response,78,151571,0.0-1.0-108.0-0.0,0,0,46320,,,,,,15.0,,1.0,,,,,,,,,,,,,90.5,0.606,,,,,,,,,
79,,isi,,html-keyboard-response,79,153574,0.0-1.0-110.0,0,0,46320,,,,,,15.0,,1.0,,,,,,,,,,,,,92.5,2.0,,,,,,,,,
80,,feedback,,html-keyboard-response,80,154578,0.0-1.0-111.0-0.0,0,0,46320,,,,,,15.0,,1.0,,,,,,,,,,,,,93.5,1.0,,,,,,,,,
81,,iti,,html-keyboard-response,81,156080,0.0-1.0-112.0,0,0,46320,,,,,,15.0,,1.0,,,,,,,,,,,,,95.0,1.5,,,,,,,,,
82,,rl_choice,,html-keyboard-response,82,156985,0.0-1.0-114.0,0,0,46320,,902.0,,,68.0,16.0,16.0,1.0,hard,1000.0,1000.0,1.0,60.0,40.0,60.0,60.0,D,C,/static/Simple_RL/Stimuli/Fractals_stims/D.jpg,/static/Simple_RL/Stimuli/Fractals_stims/C.jpg,95.902,0.902,0.0,1.0,60.0,40.0,60.0,60.0,D,C,
83,,rl_choice_confirmation,,html-keyboard-response,83,157585,0.0-1.0-115.0-0.0,0,0,46320,,,,,,16.0,,1.0,,,,,,,,,,,,,96.5,0.598,,,,,,,,,
84,,isi,,html-keyboard-response,84,158625,0.0-1.0-117.0,0,0,46320,,,,,,16.0,,1.0,,,,,,,,,,,,,97.5,1.0,,,,,,,,,
85,,feedback,,html-keyboard-response,85,159631,0.0-1.0-118.0-0.0,0,0,46320,,,,,,16.0,,1.0,,,,,,,,,,,,,98.5,1.0,,,,,,,,,
86,,iti,,html-keyboard-response,86,160634,0.0-1.0-119.0,0,0,46320,,,,,,16.0,,1.0,,,,,,,,,,,,,99.5,1.0,,,,,,,,,
87,,rl_choice,,html-keyboard-response,87,161408,0.0-1.0-121.0,0,0,46320,,772.0,,,75.0,17.0,17.0,1.0,easy,3000.0,1500.0,1.0,80.0,20.0,60.0,20.0,B,A,/static/Simple_RL/Stimuli/Fractals_stims/B.jpg,/static/Simple_RL/Stimuli/Fractals_stims/A.jpg,100.272,0.772,0.0,0.0,20.0,80.0,20.0,60.0,A,B,
88,,rl_choice_confirmation,,html-keyboard-response,88,162138,0.0-1.0-122.0-0.0,0,0,46320,,,,,,17.0,,1.0,,,,,,,,,,,,,101.0,0.728,,,,,,,,,
89,,isi,,html-keyboard-response,89,163642,0.0-1.0-124.0,0,0,46320,,,,,,17.0,,1.0,,,,,,,,,,,,,102.5,1.5,,,,,,,,,
90,,feedback,,html-keyboard-response,90,164646,0.0-1.0-125.0-0.0,0,0,46320,,,,,,17.0,,1.0,,,,,,,,,,,,,103.5,1.0,,,,,,,,,
91,,iti,,html-keyboard-response,91,167651,0.0-1.0-126.0,0,0,46320,,,,,,17.0,,1.0,,,,,,,,,,,,,106.5,3.0,,,,,,,,,
92,,rl_choice,,html-keyboard-response,92,168621,0.0-1.0-128.0,0,0,46320,,969.0,,,68.0,18.0,18.0,1.0,hard,3500.0,1500.0,1.0,60.0,40.0,60.0,60.0,D,C,/static/Simple_RL/Stimuli/Fractals_stims/D.jpg,/static/Simple_RL/Stimuli/Fractals_stims/C.jpg,107.469,0.969,0.0,1.0,60.0,40.0,60.0,60.0,D,C,
93,,rl_choice_confirmation,,html-keyboard-response,93,169160,0.0-1.0-129.0-0.0,0,0,46320,,,,,,18.0,,1.0,,,,,,,,,,,,,108.0,0.531,,,,,,,,,
94,,isi,,html-keyboard-response,94,170662,0.0-1.0-131.0,0,0,46320,,,,,,18.0,,1.0,,,,,,,,,,,,,109.5,1.5,,,,,,,,,
95,,feedback,,html-keyboard-response,95,171665,0.0-1.0-132.0-0.0,0,0,46320,,,,,,18.0,,1.0,,,,,,,,,,,,,110.5,1.0,,,,,,,,,
96,,iti,,html-keyboard-response,96,175168,0.0-1.0-133.0,0,0,46320,,,,,,18.0,,1.0,,,,,,,,,,,,,114.0,3.5,,,,,,,,,
97,,rl_choice,,html-keyboard-response,97,176095,0.0-1.0-135.0,0,0,46320,,924.0,,,68.0,19.0,19.0,1.0,hard,2000.0,1500.0,1.0,60.0,40.0,60.0,20.0,D,C,/static/Simple_RL/Stimuli/Fractals_stims/D.jpg,/static/Simple_RL/Stimuli/Fractals_stims/C.jpg,114.924,0.924,0.0,1.0,60.0,40.0,60.0,20.0,D,C,
98,,rl_choice_confirmation,,html-keyboard-response,98,176673,0.0-1.0-136.0-0.0,0,0,46320,,,,,,19.0,,1.0,,,,,,,,,,,,,115.5,0.576,,,,,,,,,
99,,isi,,html-keyboard-response,99,178177,0.0-1.0-138.0,0,0,46320,,,,,,19.0,,1.0,,,,,,,,,,,,,117.0,1.5,,,,,,,,,
100,,feedback,,html-keyboard-response,100,179178,0.0-1.0-139.0-0.0,0,0,46320,,,,,,19.0,,1.0,,,,,,,,,,,,,118.0,1.0,,,,,,,,,
101,,iti,,html-keyboard-response,101,181189,0.0-1.0-140.0,0,0,46320,,,,,,19.0,,1.0,,,,,,,,,,,,,120.0,2.0,,,,,,,,,
102,,rl_choice,,html-keyboard-response,102,182304,0.0-1.0-142.0,0,0,46320,,1112.0,,,75.0,20.0,20.0,1.0,easy,2000.0,1000.0,1.0,80.0,20.0,80.0,20.0,B,A,/static/Simple_RL/Stimuli/Fractals_stims/B.jpg,/static/Simple_RL/Stimuli/Fractals_stims/A.jpg,121.112,1.112,0.0,0.0,20.0,80.0,20.0,80.0,A,B,
103,,rl_choice_confirmation,,html-keyboard-response,103,182696,0.0-1.0-143.0-0.0,0,0,46320,,,,,,20.0,,1.0,,,,,,,,,,,,,121.5,0.388,,,,,,,,,
104,,isi,,html-keyboard-response,104,183698,0.0-1.0-145.0,0,0,46320,,,,,,20.0,,1.0,,,,,,,,,,,,,122.5,1.0,,,,,,,,,
105,,feedback,,html-keyboard-response,105,184700,0.0-1.0-146.0-0.0,0,0,46320,,,,,,20.0,,1.0,,,,,,,,,,,,,123.5,1.0,,,,,,,,,
106,,iti,,html-keyboard-response,106,186702,0.0-1.0-147.0,0,0,46320,,,,,,20.0,,1.0,,,,,,,,,,,,,125.5,2.0,,,,,,,,,
107,,rl_choice,,html-keyboard-response,107,187583,0.0-1.0-149.0,0,0,46320,,878.0,,,68.0,21.0,21.0,1.0,easy,1500.0,2000.0,1.0,80.0,20.0,80.0,20.0,B,A,/static/Simple_RL/Stimuli/Fractals_stims/B.jpg,/static/Simple_RL/Stimuli/Fractals_stims/A.jpg,126.378,0.878,0.0,1.0,80.0,20.0,80.0,20.0,B,A,
108,,rl_choice_confirmation,,html-keyboard-response,108,188207,0.0-1.0-150.0-0.0,0,0,46320,,,,,,21.0,,1.0,,,,,,,,,,,,,127.0,0.622,,,,,,,,,
109,,isi,,html-keyboard-response,109,190208,0.0-1.0-152.0,0,0,46320,,,,,,21.0,,1.0,,,,,,,,,,,,,129.0,2.0,,,,,,,,,
110,,feedback,,html-keyboard-response,110,191210,0.0-1.0-153.0-0.0,0,0,46320,,,,,,21.0,,1.0,,,,,,,,,,,,,130.0,1.0,,,,,,,,,
111,,iti,,html-keyboard-response,111,192712,0.0-1.0-154.0,0,0,46320,,,,,,21.0,,1.0,,,,,,,,,,,,,131.5,1.5,,,,,,,,,
112,,rl_choice,,html-keyboard-response,112,193998,0.0-1.0-156.0,0,0,46320,,1282.0,,,75.0,22.0,22.0,1.0,easy,1000.0,1000.0,0.0,20.0,80.0,0.0,100.0,A,B,/static/Simple_RL/Stimuli/Fractals_stims/A.jpg,/static/Simple_RL/Stimuli/Fractals_stims/B.jpg,132.782,1.282,0.0,0.0,80.0,20.0,100.0,0.0,B,A,
113,,rl_choice_confirmation,,html-keyboard-response,113,194221,0.0-1.0-157.0-0.0,0,0,46320,,,,,,22.0,,1.0,,,,,,,,,,,,,133.0,0.218,,,,,,,,,
114,,isi,,html-keyboard-response,114,195226,0.0-1.0-159.0,0,0,46320,,,,,,22.0,,1.0,,,,,,,,,,,,,134.0,1.0,,,,,,,,,
115,,feedback,,html-keyboard-response,115,196229,0.0-1.0-160.0-0.0,0,0,46320,,,,,,22.0,,1.0,,,,,,,,,,,,,135.0,1.0,,,,,,,,,
116,,iti,,html-keyboard-response,116,197230,0.0-1.0-161.0,0,0,46320,,,,,,22.0,,1.0,,,,,,,,,,,,,136.0,1.0,,,,,,,,,
117,,rl_choice,,html-keyboard-response,117,198254,0.0-1.0-163.0,0,0,46320,,1021.0,,,68.0,23.0,23.0,1.0,hard,2000.0,1000.0,1.0,60.0,40.0,80.0,60.0,D,C,/static/Simple_RL/Stimuli/Fractals_stims/D.jpg,/static/Simple_RL/Stimuli/Fractals_stims/C.jpg,137.021,1.021,0.0,1.0,60.0,40.0,80.0,60.0,D,C,
118,,rl_choice_confirmation,,html-keyboard-response,118,198740,0.0-1.0-164.0-0.0,0,0,46320,,,,,,23.0,,1.0,,,,,,,,,,,,,137.5,0.479,,,,,,,,,
119,,isi,,html-keyboard-response,119,199742,0.0-1.0-166.0,0,0,46320,,,,,,23.0,,1.0,,,,,,,,,,,,,138.5,1.0,,,,,,,,,
120,,feedback,,html-keyboard-response,120,200744,0.0-1.0-167.0-0.0,0,0,46320,,,,,,23.0,,1.0,,,,,,,,,,,,,139.5,1.0,,,,,,,,,
121,,iti,,html-keyboard-response,121,202747,0.0-1.0-168.0,0,0,46320,,,,,,23.0,,1.0,,,,,,,,,,,,,141.5,2.0,,,,,,,,,
122,,rl_choice,,html-keyboard-response,122,203622,0.0-1.0-170.0,0,0,46320,,874.0,,,68.0,24.0,24.0,1.0,hard,1000.0,3000.0,1.0,60.0,40.0,40.0,60.0,D,C,/static/Simple_RL/Stimuli/Fractals_stims/D.jpg,/static/Simple_RL/Stimuli/Fractals_stims/C.jpg,142.374,0.874,0.0,1.0,60.0,40.0,40.0,60.0,D,C,
123,,rl_choice_confirmation,,html-keyboard-response,123,204251,0.0-1.0-171.0-0.0,0,0,46320,,,,,,24.0,,1.0,,,,,,,,,,,,,143.0,0.626,,,,,,,,,
124,,isi,,html-keyboard-response,124,207252,0.0-1.0-173.0,0,0,46320,,,,,,24.0,,1.0,,,,,,,,,,,,,146.0,3.0,,,,,,,,,
125,,feedback,,html-keyboard-response,125,208256,0.0-1.0-174.0-0.0,0,0,46320,,,,,,24.0,,1.0,,,,,,,,,,,,,147.0,1.0,,,,,,,,,
126,,iti,,html-keyboard-response,126,209259,0.0-1.0-175.0,0,0,46320,,,,,,24.0,,1.0,,,,,,,,,,,,,148.0,1.0,,,,,,,,,
127,,rl_choice,,html-keyboard-response,127,210220,0.0-1.0-177.0,0,0,46320,,958.0,,,68.0,25.0,25.0,1.0,hard,2000.0,1000.0,1.0,60.0,40.0,40.0,40.0,D,C,/static/Simple_RL/Stimuli/Fractals_stims/D.jpg,/static/Simple_RL/Stimuli/Fractals_stims/C.jpg,148.958,0.958,0.0,1.0,60.0,40.0,40.0,40.0,D,C,
128,,rl_choice_confirmation,,html-keyboard-response,128,210775,0.0-1.0-178.0-0.0,0,0,46320,,,,,,25.0,,1.0,,,,,,,,,,,,,149.5,0.542,,,,,,,,,
129,,isi,,html-keyboard-response,129,211779,0.0-1.0-180.0,0,0,46320,,,,,,25.0,,1.0,,,,,,,,,,,,,150.5,1.0,,,,,,,,,
130,,feedback,,html-keyboard-response,130,212784,0.0-1.0-181.0-0.0,0,0,46320,,,,,,25.0,,1.0,,,,,,,,,,,,,151.5,1.0,,,,,,,,,
131,,iti,,html-keyboard-response,131,214786,0.0-1.0-182.0,0,0,46320,,,,,,25.0,,1.0,,,,,,,,,,,,,153.5,2.0,,,,,,,,,
132,,rl_choice,,html-keyboard-response,132,216290,0.0-1.0-184.0,0,0,46320,,,,,,26.0,26.0,1.0,easy,1000.0,1000.0,1.0,80.0,20.0,100.0,20.0,B,A,/static/Simple_RL/Stimuli/Fractals_stims/B.jpg,/static/Simple_RL/Stimuli/Fractals_stims/A.jpg,155.0,1.5,1.0,,,,,,,,
133,,rl_choice_warning,,html-keyboard-response,133,217293,0.0-1.0-186.0-0.0,0,0,46320,,,,,,26.0,,1.0,,,,,,,,,,,,,156.0,1.0,,,,,,,,,
134,,isi,,html-keyboard-response,134,218297,0.0-1.0-187.0,0,0,46320,,,,,,26.0,,1.0,,,,,,,,,,,,,157.0,1.0,,,,,,,,,
135,,iti,,html-keyboard-response,135,219306,0.0-1.0-189.0,0,0,46320,,,,,,26.0,,1.0,,,,,,,,,,,,,158.0,1.0,,,,,,,,,
136,,rl_choice,,html-keyboard-response,136,220812,0.0-1.0-191.0,0,0,46320,,,,,,27.0,27.0,1.0,hard,1000.0,1500.0,0.0,40.0,60.0,20.0,80.0,C,D,/static/Simple_RL/Stimuli/Fractals_stims/C.jpg,/static/Simple_RL/Stimuli/Fractals_stims/D.jpg,159.5,1.5,1.0,,,,,,,,
137,,rl_choice_warning,,html-keyboard-response,137,221816,0.0-1.0-193.0-0.0,0,0,46320,,,,,,27.0,,1.0,,,,,,,,,,,,,160.5,1.0,,,,,,,,,
138,,isi,,html-keyboard-response,138,223318,0.0-1.0-194.0,0,0,46320,,,,,,27.0,,1.0,,,,,,,,,,,,,162.0,1.5,,,,,,,,,
139,,iti,,html-keyboard-response,139,224322,0.0-1.0-196.0,0,0,46320,,,,,,27.0,,1.0,,,,,,,,,,,,,163.0,1.0,,,,,,,,,
140,,rl_choice,,html-keyboard-response,140,225825,0.0-1.0-198.0,0,0,46320,,,,,,28.0,28.0,1.0,hard,1500.0,1500.0,0.0,40.0,60.0,40.0,40.0,C,D,/static/Simple_RL/Stimuli/Fractals_stims/C.jpg,/static/Simple_RL/Stimuli/Fractals_stims/D.jpg,164.5,1.5,1.0,,,,,,,,
141,,rl_choice_warning,,html-keyboard-response,141,226826,0.0-1.0-200.0-0.0,0,0,46320,,,,,,28.0,,1.0,,,,,,,,,,,,,165.5,1.0,,,,,,,,,
142,,isi,,html-keyboard-response,142,228328,0.0-1.0-201.0,0,0,46320,,,,,,28.0,,1.0,,,,,,,,,,,,,167.0,1.5,,,,,,,,,
143,,iti,,html-keyboard-response,143,229831,0.0-1.0-203.0,0,0,46320,,,,,,28.0,,1.0,,,,,,,,,,,,,168.5,1.5,,,,,,,,,
144,,rl_choice,,html-keyboard-response,144,230743,0.0-1.0-205.0,0,0,46320,,909.0,,,75.0,29.0,29.0,1.0,easy,1000.0,1000.0,0.0,20.0,80.0,20.0,80.0,A,B,/static/Simple_RL/Stimuli/Fractals_stims/A.jpg,/static/Simple_RL/Stimuli/Fractals_stims/B.jpg,169.409,0.909,0.0,0.0,80.0,20.0,80.0,20.0,B,A,
145,,rl_choice_confirmation,,html-keyboard-response,145,231338,0.0-1.0-206.0-0.0,0,0,46320,,,,,,29.0,,1.0,,,,,,,,,,,,,170.0,0.591,,,,,,,,,
146,,isi,,html-keyboard-response,146,232341,0.0-1.0-208.0,0,0,46320,,,,,,29.0,,1.0,,,,,,,,,,,,,171.0,1.0,,,,,,,,,
147,,feedback,,html-keyboard-response,147,233348,0.0-1.0-209.0-0.0,0,0,46320,,,,,,29.0,,1.0,,,,,,,,,,,,,172.0,1.0,,,,,,,,,
148,,iti,,html-keyboard-response,148,234350,0.0-1.0-210.0,0,0,46320,,,,,,29.0,,1.0,,,,,,,,,,,,,173.0,1.0,,,,,,,,,
149,,rl_choice,,html-keyboard-response,149,235854,0.0-1.0-212.0,0,0,46320,,,,,,30.0,30.0,1.0,hard,1500.0,2000.0,1.0,60.0,40.0,80.0,60.0,D,C,/static/Simple_RL/Stimuli/Fractals_stims/D.jpg,/static/Simple_RL/Stimuli/Fractals_stims/C.jpg,174.5,1.5,1.0,,,,,,,,
150,,rl_choice_warning,,html-keyboard-response,150,236856,0.0-1.0-214.0-0.0,0,0,46320,,,,,,30.0,,1.0,,,,,,,,,,,,,175.5,1.0,,,,,,,,,
151,,isi,,html-keyboard-response,151,238858,0.0-1.0-215.0,0,0,46320,,,,,,30.0,,1.0,,,,,,,,,,,,,177.5,2.0,,,,,,,,,
152,,iti,,html-keyboard-response,152,240361,0.0-1.0-217.0,0,0,46320,,,,,,30.0,,1.0,,,,,,,,,,,,,179.0,1.5,,,,,,,,,
153,,rl_choice,,html-keyboard-response,153,241336,0.0-1.0-219.0,0,0,46320,,973.0,,,68.0,31.0,31.0,1.0,easy,1000.0,1500.0,1.0,80.0,20.0,80.0,0.0,B,A,/static/Simple_RL/Stimuli/Fractals_stims/B.jpg,/static/Simple_RL/Stimuli/Fractals_stims/A.jpg,179.973,0.973,0.0,1.0,80.0,20.0,80.0,0.0,B,A,
154,,rl_choice_confirmation,,html-keyboard-response,154,241867,0.0-1.0-220.0-0.0,0,0,46320,,,,,,31.0,,1.0,,,,,,,,,,,,,180.5,0.527,,,,,,,,,
155,,isi,,html-keyboard-response,155,243371,0.0-1.0-222.0,0,0,46320,,,,,,31.0,,1.0,,,,,,,,,,,,,182.0,1.5,,,,,,,,,
156,,feedback,,html-keyboard-response,156,244378,0.0-1.0-223.0-0.0,0,0,46320,,,,,,31.0,,1.0,,,,,,,,,,,,,183.0,1.0,,,,,,,,,
157,,iti,,html-keyboard-response,157,245382,0.0-1.0-224.0,0,0,46320,,,,,,31.0,,1.0,,,,,,,,,,,,,184.0,1.0,,,,,,,,,
158,,rl_choice,,html-keyboard-response,158,246313,0.0-1.0-226.0,0,0,46320,,929.0,,,75.0,32.0,32.0,1.0,easy,1000.0,3500.0,1.0,80.0,20.0,60.0,20.0,B,A,/static/Simple_RL/Stimuli/Fractals_stims/B.jpg,/static/Simple_RL/Stimuli/Fractals_stims/A.jpg,184.929,0.929,0.0,0.0,20.0,80.0,20.0,60.0,A,B,
159,,rl_choice_confirmation,,html-keyboard-response,159,246887,0.0-1.0-227.0-0.0,0,0,46320,,,,,,32.0,,1.0,,,,,,,,,,,,,185.5,0.571,,,,,,,,,
160,,isi,,html-keyboard-response,160,250396,0.0-1.0-229.0,0,0,46320,,,,,,32.0,,1.0,,,,,,,,,,,,,189.0,3.5,,,,,,,,,
161,,feedback,,html-keyboard-response,161,251397,0.0-1.0-230.0-0.0,0,0,46320,,,,,,32.0,,1.0,,,,,,,,,,,,,190.0,1.0,,,,,,,,,
162,,iti,,html-keyboard-response,162,252399,0.0-1.0-231.0,0,0,46320,,,,,,32.0,,1.0,,,,,,,,,,,,,191.0,1.0,,,,,,,,,
163,,rl_choice,,html-keyboard-response,163,253306,0.0-1.0-233.0,0,0,46320,,904.0,,,68.0,33.0,33.0,1.0,hard,2000.0,1500.0,1.0,60.0,40.0,40.0,20.0,D,C,/static/Simple_RL/Stimuli/Fractals_stims/D.jpg,/static/Simple_RL/Stimuli/Fractals_stims/C.jpg,191.904,0.904,0.0,1.0,60.0,40.0,40.0,20.0,D,C,
164,,rl_choice_confirmation,,html-keyboard-response,164,253919,0.0-1.0-234.0-0.0,0,0,46320,,,,,,33.0,,1.0,,,,,,,,,,,,,192.5,0.596,,,,,,,,,
165,,isi,,html-keyboard-response,165,255420,0.0-1.0-236.0,0,0,46320,,,,,,33.0,,1.0,,,,,,,,,,,,,194.0,1.5,,,,,,,,,
166,,feedback,,html-keyboard-response,166,256439,0.0-1.0-237.0-0.0,0,0,46320,,,,,,33.0,,1.0,,,,,,,,,,,,,195.0,1.0,,,,,,,,,
167,,iti,,html-keyboard-response,167,258440,0.0-1.0-238.0,0,0,46320,,,,,,33.0,,1.0,,,,,,,,,,,,,197.0,2.0,,,,,,,,,
168,,rl_choice,,html-keyboard-response,168,259775,0.0-1.0-240.0,0,0,46320,,1331.0,,,75.0,34.0,34.0,1.0,hard,3000.0,1000.0,0.0,40.0,60.0,20.0,60.0,C,D,/static/Simple_RL/Stimuli/Fractals_stims/C.jpg,/static/Simple_RL/Stimuli/Fractals_stims/D.jpg,198.331,1.331,0.0,0.0,60.0,40.0,60.0,20.0,D,C,
169,,rl_choice_confirmation,,html-keyboard-response,169,259946,0.0-1.0-241.0-0.0,0,0,46320,,,,,,34.0,,1.0,,,,,,,,,,,,,198.5,0.169,,,,,,,,,
170,,isi,,html-keyboard-response,170,260948,0.0-1.0-243.0,0,0,46320,,,,,,34.0,,1.0,,,,,,,,,,,,,199.5,1.0,,,,,,,,,
171,,feedback,,html-keyboard-response,171,261950,0.0-1.0-244.0-0.0,0,0,46320,,,,,,34.0,,1.0,,,,,,,,,,,,,200.5,1.0,,,,,,,,,
172,,iti,,html-keyboard-response,172,264951,0.0-1.0-245.0,0,0,46320,,,,,,34.0,,1.0,,,,,,,,,,,,,203.5,3.0,,,,,,,,,
173,,rl_choice,,html-keyboard-response,173,266454,0.0-1.0-247.0,0,0,46320,,,,,,35.0,35.0,1.0,easy,1500.0,1000.0,1.0,80.0,20.0,80.0,20.0,B,A,/static/Simple_RL/Stimuli/Fractals_stims/B.jpg,/static/Simple_RL/Stimuli/Fractals_stims/A.jpg,205.0,1.5,1.0,,,,,,,,
174,,rl_choice_warning,,html-keyboard-response,174,267456,0.0-1.0-249.0-0.0,0,0,46320,,,,,,35.0,,1.0,,,,,,,,,,,,,206.0,1.0,,,,,,,,,
175,,isi,,html-keyboard-response,175,268458,0.0-1.0-250.0,0,0,46320,,,,,,35.0,,1.0,,,,,,,,,,,,,207.0,1.0,,,,,,,,,
176,,iti,,html-keyboard-response,176,269967,0.0-1.0-252.0,0,0,46320,,,,,,35.0,,1.0,,,,,,,,,,,,,208.5,1.5,,,,,,,,,
177,,rl_choice,,html-keyboard-response,177,270794,0.0-1.0-254.0,0,0,46320,,822.0,,,68.0,36.0,36.0,1.0,easy,1500.0,2000.0,1.0,80.0,20.0,80.0,40.0,B,A,/static/Simple_RL/Stimuli/Fractals_stims/B.jpg,/static/Simple_RL/Stimuli/Fractals_stims/A.jpg,209.322,0.822,0.0,1.0,80.0,20.0,80.0,40.0,B,A,
178,,rl_choice_confirmation,,html-keyboard-response,178,271474,0.0-1.0-255.0-0.0,0,0,46320,,,,,,36.0,,1.0,,,,,,,,,,,,,210.0,0.678,,,,,,,,,
179,,isi,,html-keyboard-response,179,273476,0.0-1.0-257.0,0,0,46320,,,,,,36.0,,1.0,,,,,,,,,,,,,212.0,2.0,,,,,,,,,
180,,feedback,,html-keyboard-response,180,274477,0.0-1.0-258.0-0.0,0,0,46320,,,,,,36.0,,1.0,,,,,,,,,,,,,213.0,1.0,,,,,,,,,
181,,iti,,html-keyboard-response,181,275980,0.0-1.0-259.0,0,0,46320,,,,,,36.0,,1.0,,,,,,,,,,,,,214.5,1.5,,,,,,,,,
182,,rl_choice,,html-keyboard-response,182,277236,0.0-1.0-261.0,0,0,46320,,1252.0,,,68.0,37.0,37.0,1.0,easy,2000.0,1000.0,1.0,80.0,20.0,60.0,40.0,B,A,/static/Simple_RL/Stimuli/Fractals_stims/B.jpg,/static/Simple_RL/Stimuli/Fractals_stims/A.jpg,215.752,1.252,0.0,1.0,80.0,20.0,60.0,40.0,B,A,
183,,rl_choice_confirmation,,html-keyboard-response,183,277565,0.0-1.0-262.0-0.0,0,0,46320,,,,,,37.0,,1.0,,,,,,,,,,,,,216.0,0.248,,,,,,,,,
184,,isi,,html-keyboard-response,184,278568,0.0-1.0-264.0,0,0,46320,,,,,,37.0,,1.0,,,,,,,,,,,,,217.0,1.0,,,,,,,,,
185,,feedback,,html-keyboard-response,185,279569,0.0-1.0-265.0-0.0,0,0,46320,,,,,,37.0,,1.0,,,,,,,,,,,,,218.0,1.0,,,,,,,,,
186,,iti,,html-keyboard-response,186,281571,0.0-1.0-266.0,0,0,46320,,,,,,37.0,,1.0,,,,,,,,,,,,,220.0,2.0,,,,,,,,,
187,,rl_choice,,html-keyboard-response,187,283073,0.0-1.0-268.0,0,0,46320,,,,,,38.0,38.0,1.0,easy,3500.0,1500.0,0.0,20.0,80.0,40.0,60.0,A,B,/static/Simple_RL/Stimuli/Fractals_stims/A.jpg,/static/Simple_RL/Stimuli/Fractals_stims/B.jpg,221.5,1.5,1.0,,,,,,,,
188,,rl_choice_warning,,html-keyboard-response,188,284075,0.0-1.0-270.0-0.0,0,0,46320,,,,,,38.0,,1.0,,,,,,,,,,,,,222.5,1.0,,,,,,,,,
189,,isi,,html-keyboard-response,189,285577,0.0-1.0-271.0,0,0,46320,,,,,,38.0,,1.0,,,,,,,,,,,,,224.0,1.5,,,,,,,,,
190,,iti,,html-keyboard-response,190,289082,0.0-1.0-273.0,0,0,46320,,,,,,38.0,,1.0,,,,,,,,,,,,,227.5,3.5,,,,,,,,,
191,,rl_choice,,html-keyboard-response,191,290055,0.0-1.0-275.0,0,0,46320,,969.0,,,75.0,39.0,39.0,1.0,easy,1000.0,1000.0,1.0,80.0,20.0,60.0,20.0,B,A,/static/Simple_RL/Stimuli/Fractals_stims/B.jpg,/static/Simple_RL/Stimuli/Fractals_stims/A.jpg,228.469,0.969,0.0,0.0,20.0,80.0,20.0,60.0,A,B,
192,,rl_choice_confirmation,,html-keyboard-response,192,290589,0.0-1.0-276.0-0.0,0,0,46320,,,,,,39.0,,1.0,,,,,,,,,,,,,229.0,0.531,,,,,,,,,
193,,isi,,html-keyboard-response,193,291590,0.0-1.0-278.0,0,0,46320,,,,,,39.0,,1.0,,,,,,,,,,,,,230.0,1.0,,,,,,,,,
194,,feedback,,html-keyboard-response,194,292592,0.0-1.0-279.0-0.0,0,0,46320,,,,,,39.0,,1.0,,,,,,,,,,,,,231.0,1.0,,,,,,,,,
195,,iti,,html-keyboard-response,195,293594,0.0-1.0-280.0,0,0,46320,,,,,,39.0,,1.0,,,,,,,,,,,,,232.0,1.0,,,,,,,,,
196,,block_over,,html-keyboard-response,196,298502,0.0-1.0-281.0-0.0,0,0,46320,,4904.0,,,68.0,39.0,,,,,,,,,,,,,,,,,,,,,,,,,
197,,start_run,,html-keyboard-response,197,300456,0.0-1.0-281.0-1.0,0,0,46320,,1950.0,,,84.0,,,,,,,,,,,,,,,,,,,,,,,,,,
198,,rl_choice,,html-keyboard-response,198,301794,0.0-1.0-282.0,0,0,46320,,1333.0,,,75.0,40.0,40.0,2.0,hard,1000.0,2000.0,0.0,40.0,60.0,40.0,40.0,C,D,/static/Simple_RL/Stimuli/Fractals_stims/C.jpg,/static/Simple_RL/Stimuli/Fractals_stims/D.jpg,1.333,1.333,0.0,0.0,60.0,40.0,40.0,40.0,D,C,
199,,rl_choice_confirmation,,html-keyboard-response,199,301965,0.0-1.0-283.0-0.0,0,0,46320,,,,,,40.0,,2.0,,,,,,,,,,,,,1.5,0.167,,,,,,,,,
200,,isi,,html-keyboard-response,200,303968,0.0-1.0-285.0,0,0,46320,,,,,,40.0,,2.0,,,,,,,,,,,,,3.5,2.0,,,,,,,,,
201,,feedback,,html-keyboard-response,201,304972,0.0-1.0-286.0-0.0,0,0,46320,,,,,,40.0,,2.0,,,,,,,,,,,,,4.5,1.0,,,,,,,,,
202,,iti,,html-keyboard-response,202,305974,0.0-1.0-287.0,0,0,46320,,,,,,40.0,,2.0,,,,,,,,,,,,,5.5,1.0,,,,,,,,,
203,,rl_choice,,html-keyboard-response,203,306898,0.0-1.0-289.0,0,0,46320,,917.0,,,68.0,41.0,41.0,2.0,hard,1000.0,3000.0,1.0,60.0,40.0,40.0,60.0,D,C,/static/Simple_RL/Stimuli/Fractals_stims/D.jpg,/static/Simple_RL/Stimuli/Fractals_stims/C.jpg,6.417,0.917,0.0,1.0,60.0,40.0,40.0,60.0,D,C,
204,,rl_choice_confirmation,,html-keyboard-response,204,307485,0.0-1.0-290.0-0.0,0,0,46320,,,,,,41.0,,2.0,,,,,,,,,,,,,7.0,0.583,,,,,,,,,
205,,isi,,html-keyboard-response,205,310488,0.0-1.0-292.0,0,0,46320,,,,,,41.0,,2.0,,,,,,,,,,,,,10.0,3.0,,,,,,,,,
206,,feedback,,html-keyboard-response,206,311493,0.0-1.0-293.0-0.0,0,0,46320,,,,,,41.0,,2.0,,,,,,,,,,,,,11.0,1.0,,,,,,,,,
207,,iti,,html-keyboard-response,207,312496,0.0-1.0-294.0,0,0,46320,,,,,,41.0,,2.0,,,,,,,,,,,,,12.0,1.0,,,,,,,,,
208,,rl_choice,,html-keyboard-response,208,313999,0.0-1.0-296.0,0,0,46320,,,,,,42.0,42.0,2.0,hard,1000.0,1000.0,0.0,40.0,60.0,40.0,40.0,C,D,/static/Simple_RL/Stimuli/Fractals_stims/C.jpg,/static/Simple_RL/Stimuli/Fractals_stims/D.jpg,13.5,1.5,1.0,,,,,,,,
209,,rl_choice_warning,,html-keyboard-response,209,315003,0.0-1.0-298.0-0.0,1,0,46320,,,,,,42.0,,2.0,,,,,,,,,,,,,14.5,1.0,,,,,,,,,
210,,isi,,html-keyboard-response,210,316009,0.0-1.0-299.0,0,0,46320,,,,,,42.0,,2.0,,,,,,,,,,,,,15.5,1.0,,,,,,,,,
211,,iti,,html-keyboard-response,211,317029,0.0-1.0-301.0,0,0,46320,,,,,,42.0,,2.0,,,,,,,,,,,,,16.5,1.0,,,,,,,,,
212,,rl_choice,,html-keyboard-response,212,317755,0.0-1.0-303.0,0,0,46320,,720.0,,,68.0,43.0,43.0,2.0,easy,1500.0,2000.0,0.0,20.0,80.0,0.0,60.0,A,B,/static/Simple_RL/Stimuli/Fractals_stims/A.jpg,/static/Simple_RL/Stimuli/Fractals_stims/B.jpg,17.22,0.72,0.0,1.0,20.0,80.0,0.0,60.0,A,B,
213,,rl_choice_confirmation,,html-keyboard-response,213,318539,0.0-1.0-304.0-0.0,0,0,46320,,,,,,43.0,,2.0,,,,,,,,,,,,,18.0,0.78,,,,,,,,,
214,,isi,,html-keyboard-response,214,320545,0.0-1.0-306.0,0,0,46320,,,,,,43.0,,2.0,,,,,,,,,,,,,20.0,2.0,,,,,,,,,
215,,feedback,,html-keyboard-response,215,321554,0.0-1.0-307.0-0.0,0,0,46320,,,,,,43.0,,2.0,,,,,,,,,,,,,21.0,1.0,,,,,,,,,
216,,iti,,html-keyboard-response,216,323057,0.0-1.0-308.0,0,0,46320,,,,,,43.0,,2.0,,,,,,,,,,,,,22.5,1.5,,,,,,,,,
217,,rl_choice,,html-keyboard-response,217,324022,0.0-1.0-310.0,0,0,46320,,961.0,,,75.0,44.0,44.0,2.0,hard,1000.0,1500.0,0.0,40.0,60.0,60.0,60.0,C,D,/static/Simple_RL/Stimuli/Fractals_stims/C.jpg,/static/Simple_RL/Stimuli/Fractals_stims/D.jpg,23.461,0.961,0.0,0.0,60.0,40.0,60.0,60.0,D,C,
218,,rl_choice_confirmation,,html-keyboard-response,218,324565,0.0-1.0-311.0-0.0,0,0,46320,,,,,,44.0,,2.0,,,,,,,,,,,,,24.0,0.539,,,,,,,,,
219,,isi,,html-keyboard-response,219,326068,0.0-1.0-313.0,0,0,46320,,,,,,44.0,,2.0,,,,,,,,,,,,,25.5,1.5,,,,,,,,,
220,,feedback,,html-keyboard-response,220,327072,0.0-1.0-314.0-0.0,0,0,46320,,,,,,44.0,,2.0,,,,,,,,,,,,,26.5,1.0,,,,,,,,,
221,,iti,,html-keyboard-response,221,328073,0.0-1.0-315.0,0,0,46320,,,,,,44.0,,2.0,,,,,,,,,,,,,27.5,1.0,,,,,,,,,
222,,rl_choice,,html-keyboard-response,222,329266,0.0-1.0-317.0,0,0,46320,,1190.0,,,75.0,45.0,45.0,2.0,hard,2000.0,2000.0,0.0,40.0,60.0,40.0,60.0,C,D,/static/Simple_RL/Stimuli/Fractals_stims/C.jpg,/static/Simple_RL/Stimuli/Fractals_stims/D.jpg,28.69,1.19,0.0,0.0,60.0,40.0,60.0,40.0,D,C,
223,,rl_choice_confirmation,,html-keyboard-response,223,329580,0.0-1.0-318.0-0.0,0,0,46320,,,,,,45.0,,2.0,,,,,,,,,,,,,29.0,0.31,,,,,,,,,
224,,isi,,html-keyboard-response,224,331582,0.0-1.0-320.0,0,0,46320,,,,,,45.0,,2.0,,,,,,,,,,,,,31.0,2.0,,,,,,,,,
225,,feedback,,html-keyboard-response,225,332586,0.0-1.0-321.0-0.0,0,0,46320,,,,,,45.0,,2.0,,,,,,,,,,,,,32.0,1.0,,,,,,,,,
226,,iti,,html-keyboard-response,226,334590,0.0-1.0-322.0,0,0,46320,,,,,,45.0,,2.0,,,,,,,,,,,,,34.0,2.0,,,,,,,,,
227,,rl_choice,,html-keyboard-response,227,335575,0.0-1.0-324.0,0,0,46320,,981.0,,,75.0,46.0,46.0,2.0,hard,2000.0,2000.0,0.0,40.0,60.0,40.0,40.0,C,D,/static/Simple_RL/Stimuli/Fractals_stims/C.jpg,/static/Simple_RL/Stimuli/Fractals_stims/D.jpg,34.981,0.981,0.0,0.0,60.0,40.0,40.0,40.0,D,C,
228,,rl_choice_confirmation,,html-keyboard-response,228,336098,0.0-1.0-325.0-0.0,0,0,46320,,,,,,46.0,,2.0,,,,,,,,,,,,,35.5,0.519,,,,,,,,,
229,,isi,,html-keyboard-response,229,338101,0.0-1.0-327.0,0,0,46320,,,,,,46.0,,2.0,,,,,,,,,,,,,37.5,2.0,,,,,,,,,
230,,feedback,,html-keyboard-response,230,339103,0.0-1.0-328.0-0.0,0,0,46320,,,,,,46.0,,2.0,,,,,,,,,,,,,38.5,1.0,,,,,,,,,
231,,iti,,html-keyboard-response,231,341106,0.0-1.0-329.0,0,0,46320,,,,,,46.0,,2.0,,,,,,,,,,,,,40.5,2.0,,,,,,,,,
232,,rl_choice,,html-keyboard-response,232,341966,0.0-1.0-331.0,0,0,46320,,858.0,,,75.0,47.0,47.0,2.0,hard,1500.0,1500.0,1.0,60.0,40.0,80.0,20.0,D,C,/static/Simple_RL/Stimuli/Fractals_stims/D.jpg,/static/Simple_RL/Stimuli/Fractals_stims/C.jpg,41.358,0.858,0.0,0.0,40.0,60.0,20.0,80.0,C,D,
233,,rl_choice_confirmation,,html-keyboard-response,233,342611,0.0-1.0-332.0-0.0,0,0,46320,,,,,,47.0,,2.0,,,,,,,,,,,,,42.0,0.642,,,,,,,,,
234,,isi,,html-keyboard-response,234,344114,0.0-1.0-334.0,0,0,46320,,,,,,47.0,,2.0,,,,,,,,,,,,,43.5,1.5,,,,,,,,,
235,,feedback,,html-keyboard-response,235,345117,0.0-1.0-335.0-0.0,0,0,46320,,,,,,47.0,,2.0,,,,,,,,,,,,,44.5,1.0,,,,,,,,,
236,,iti,,html-keyboard-response,236,346620,0.0-1.0-336.0,0,0,46320,,,,,,47.0,,2.0,,,,,,,,,,,,,46.0,1.5,,,,,,,,,
237,,rl_choice,,html-keyboard-response,237,347585,0.0-1.0-338.0,0,0,46320,,964.0,,,75.0,48.0,48.0,2.0,easy,3500.0,1000.0,1.0,80.0,20.0,60.0,0.0,B,A,/static/Simple_RL/Stimuli/Fractals_stims/B.jpg,/static/Simple_RL/Stimuli/Fractals_stims/A.jpg,46.964,0.964,0.0,0.0,20.0,80.0,0.0,60.0,A,B,
238,,rl_choice_confirmation,,html-keyboard-response,238,348124,0.0-1.0-339.0-0.0,0,0,46320,,,,,,48.0,,2.0,,,,,,,,,,,,,47.5,0.536,,,,,,,,,
239,,isi,,html-keyboard-response,239,349127,0.0-1.0-341.0,0,0,46320,,,,,,48.0,,2.0,,,,,,,,,,,,,48.5,1.0,,,,,,,,,
240,,feedback,,html-keyboard-response,240,350132,0.0-1.0-342.0-0.0,0,0,46320,,,,,,48.0,,2.0,,,,,,,,,,,,,49.5,1.0,,,,,,,,,
241,,iti,,html-keyboard-response,241,353635,0.0-1.0-343.0,0,0,46320,,,,,,48.0,,2.0,,,,,,,,,,,,,53.0,3.5,,,,,,,,,
242,,rl_choice,,html-keyboard-response,242,354660,0.0-1.0-345.0,0,0,46320,,1022.0,,,68.0,49.0,49.0,2.0,hard,1000.0,3500.0,1.0,60.0,40.0,80.0,20.0,D,C,/static/Simple_RL/Stimuli/Fractals_stims/D.jpg,/static/Simple_RL/Stimuli/Fractals_stims/C.jpg,54.022,1.022,0.0,1.0,60.0,40.0,80.0,20.0,D,C,
243,,rl_choice_confirmation,,html-keyboard-response,243,355143,0.0-1.0-346.0-0.0,0,0,46320,,,,,,49.0,,2.0,,,,,,,,,,,,,54.5,0.478,,,,,,,,,
244,,isi,,html-keyboard-response,244,358646,0.0-1.0-348.0,0,0,46320,,,,,,49.0,,2.0,,,,,,,,,,,,,58.0,3.5,,,,,,,,,
245,,feedback,,html-keyboard-response,245,359649,0.0-1.0-349.0-0.0,0,0,46320,,,,,,49.0,,2.0,,,,,,,,,,,,,59.0,1.0,,,,,,,,,
246,,iti,,html-keyboard-response,246,360654,0.0-1.0-350.0,0,0,46320,,,,,,49.0,,2.0,,,,,,,,,,,,,60.0,1.0,,,,,,,,,
247,,rl_choice,,html-keyboard-response,247,362158,0.0-1.0-352.0,0,0,46320,,,,,,50.0,50.0,2.0,easy,1000.0,1500.0,1.0,80.0,20.0,80.0,40.0,B,A,/static/Simple_RL/Stimuli/Fractals_stims/B.jpg,/static/Simple_RL/Stimuli/Fractals_stims/A.jpg,61.5,1.5,1.0,,,,,,,,
248,,rl_choice_warning,,html-keyboard-response,248,363162,0.0-1.0-354.0-0.0,1,0,46320,,,,,,50.0,,2.0,,,,,,,,,,,,,62.5,1.0,,,,,,,,,
249,,isi,,html-keyboard-response,249,364666,0.0-1.0-355.0,0,0,46320,,,,,,50.0,,2.0,,,,,,,,,,,,,64.0,1.5,,,,,,,,,
250,,iti,,html-keyboard-response,250,365666,0.0-1.0-357.0,0,0,46320,,,,,,50.0,,2.0,,,,,,,,,,,,,65.0,1.0,,,,,,,,,
251,,rl_choice,,html-keyboard-response,251,366517,0.0-1.0-359.0,0,0,46320,,847.0,,,68.0,51.0,51.0,2.0,easy,1000.0,2000.0,0.0,20.0,80.0,0.0,100.0,A,B,/static/Simple_RL/Stimuli/Fractals_stims/A.jpg,/static/Simple_RL/Stimuli/Fractals_stims/B.jpg,65.847,0.847,0.0,1.0,20.0,80.0,0.0,100.0,A,B,
252,,rl_choice_confirmation,,html-keyboard-response,252,367173,0.0-1.0-360.0-0.0,0,0,46320,,,,,,51.0,,2.0,,,,,,,,,,,,,66.5,0.653,,,,,,,,,
253,,isi,,html-keyboard-response,253,369175,0.0-1.0-362.0,0,0,46320,,,,,,51.0,,2.0,,,,,,,,,,,,,68.5,2.0,,,,,,,,,
254,,feedback,,html-keyboard-response,254,370182,0.0-1.0-363.0-0.0,0,0,46320,,,,,,51.0,,2.0,,,,,,,,,,,,,69.5,1.0,,,,,,,,,
255,,iti,,html-keyboard-response,255,371183,0.0-1.0-364.0,0,0,46320,,,,,,51.0,,2.0,,,,,,,,,,,,,70.5,1.0,,,,,,,,,
256,,rl_choice,,html-keyboard-response,256,372147,0.0-1.0-366.0,0,0,46320,,958.0,,,75.0,52.0,52.0,2.0,easy,3000.0,1500.0,0.0,20.0,80.0,40.0,80.0,A,B,/static/Simple_RL/Stimuli/Fractals_stims/A.jpg,/static/Simple_RL/Stimuli/Fractals_stims/B.jpg,71.458,0.958,0.0,0.0,80.0,20.0,80.0,40.0,B,A,
257,,rl_choice_confirmation,,html-keyboard-response,257,372693,0.0-1.0-367.0-0.0,0,0,46320,,,,,,52.0,,2.0,,,,,,,,,,,,,72.0,0.542,,,,,,,,,
258,,isi,,html-keyboard-response,258,374196,0.0-1.0-369.0,0,0,46320,,,,,,52.0,,2.0,,,,,,,,,,,,,73.5,1.5,,,,,,,,,
259,,feedback,,html-keyboard-response,259,375208,0.0-1.0-370.0-0.0,0,0,46320,,,,,,52.0,,2.0,,,,,,,,,,,,,74.5,1.0,,,,,,,,,
260,,iti,,html-keyboard-response,260,378211,0.0-1.0-371.0,0,0,46320,,,,,,52.0,,2.0,,,,,,,,,,,,,77.5,3.0,,,,,,,,,
261,,rl_choice,,html-keyboard-response,261,379716,0.0-1.0-373.0,0,0,46320,,,,,,53.0,53.0,2.0,hard,2000.0,1000.0,1.0,60.0,40.0,60.0,40.0,D,C,/static/Simple_RL/Stimuli/Fractals_stims/D.jpg,/static/Simple_RL/Stimuli/Fractals_stims/C.jpg,79.0,1.5,1.0,,,,,,,,
262,,rl_choice_warning,,html-keyboard-response,262,380718,0.0-1.0-375.0-0.0,1,0,46320,,,,,,53.0,,2.0,,,,,,,,,,,,,80.0,1.0,,,,,,,,,
263,,isi,,html-keyboard-response,263,381720,0.0-1.0-376.0,0,0,46320,,,,,,53.0,,2.0,,,,,,,,,,,,,81.0,1.0,,,,,,,,,
264,,iti,,html-keyboard-response,264,383723,0.0-1.0-378.0,0,0,46320,,,,,,53.0,,2.0,,,,,,,,,,,,,83.0,2.0,,,,,,,,,
265,,rl_choice,,html-keyboard-response,265,384875,0.0-1.0-380.0,0,0,46320,,1147.0,,,75.0,54.0,54.0,2.0,easy,2000.0,1500.0,0.0,20.0,80.0,0.0,100.0,A,B,/static/Simple_RL/Stimuli/Fractals_stims/A.jpg,/static/Simple_RL/Stimuli/Fractals_stims/B.jpg,84.147,1.147,0.0,0.0,80.0,20.0,100.0,0.0,B,A,
266,,rl_choice_confirmation,,html-keyboard-response,266,385231,0.0-1.0-381.0-0.0,0,0,46320,,,,,,54.0,,2.0,,,,,,,,,,,,,84.5,0.353,,,,,,,,,
267,,isi,,html-keyboard-response,267,386733,0.0-1.0-383.0,0,0,46320,,,,,,54.0,,2.0,,,,,,,,,,,,,86.0,1.5,,,,,,,,,
268,,feedback,,html-keyboard-response,268,387738,0.0-1.0-384.0-0.0,0,0,46320,,,,,,54.0,,2.0,,,,,,,,,,,,,87.0,1.0,,,,,,,,,
269,,iti,,html-keyboard-response,269,389741,0.0-1.0-385.0,0,0,46320,,,,,,54.0,,2.0,,,,,,,,,,,,,89.0,2.0,,,,,,,,,
270,,rl_choice,,html-keyboard-response,270,390883,0.0-1.0-387.0,0,0,46320,,1138.0,,,75.0,55.0,55.0,2.0,easy,1000.0,1000.0,0.0,20.0,80.0,40.0,100.0,A,B,/static/Simple_RL/Stimuli/Fractals_stims/A.jpg,/static/Simple_RL/Stimuli/Fractals_stims/B.jpg,90.138,1.138,0.0,0.0,80.0,20.0,100.0,40.0,B,A,
271,,rl_choice_confirmation,,html-keyboard-response,271,391263,0.0-1.0-388.0-0.0,0,0,46320,,,,,,55.0,,2.0,,,,,,,,,,,,,90.5,0.362,,,,,,,,,
272,,isi,,html-keyboard-response,272,392265,0.0-1.0-390.0,0,0,46320,,,,,,55.0,,2.0,,,,,,,,,,,,,91.5,1.0,,,,,,,,,
273,,feedback,,html-keyboard-response,273,393271,0.0-1.0-391.0-0.0,0,0,46320,,,,,,55.0,,2.0,,,,,,,,,,,,,92.5,1.0,,,,,,,,,
274,,iti,,html-keyboard-response,274,394286,0.0-1.0-392.0,0,0,46320,,,,,,55.0,,2.0,,,,,,,,,,,,,93.5,1.0,,,,,,,,,
275,,rl_choice,,html-keyboard-response,275,395192,0.0-1.0-394.0,0,0,46320,,903.0,,,68.0,56.0,56.0,2.0,hard,2000.0,1000.0,1.0,60.0,40.0,60.0,20.0,D,C,/static/Simple_RL/Stimuli/Fractals_stims/D.jpg,/static/Simple_RL/Stimuli/Fractals_stims/C.jpg,94.403,0.903,0.0,1.0,60.0,40.0,60.0,20.0,D,C,
276,,rl_choice_confirmation,,html-keyboard-response,276,395833,0.0-1.0-395.0-0.0,0,0,46320,,,,,,56.0,,2.0,,,,,,,,,,,,,95.0,0.597,,,,,,,,,
277,,isi,,html-keyboard-response,277,396835,0.0-1.0-397.0,0,0,46320,,,,,,56.0,,2.0,,,,,,,,,,,,,96.0,1.0,,,,,,,,,
278,,feedback,,html-keyboard-response,278,397837,0.0-1.0-398.0-0.0,0,0,46320,,,,,,56.0,,2.0,,,,,,,,,,,,,97.0,1.0,,,,,,,,,
279,,iti,,html-keyboard-response,279,399840,0.0-1.0-399.0,0,0,46320,,,,,,56.0,,2.0,,,,,,,,,,,,,99.0,2.0,,,,,,,,,
280,,rl_choice,,html-keyboard-response,280,400714,0.0-1.0-401.0,0,0,46320,,871.0,,,75.0,57.0,57.0,2.0,easy,1000.0,2000.0,1.0,80.0,20.0,80.0,0.0,B,A,/static/Simple_RL/Stimuli/Fractals_stims/B.jpg,/static/Simple_RL/Stimuli/Fractals_stims/A.jpg,99.871,0.871,0.0,0.0,20.0,80.0,0.0,80.0,A,B,
281,,rl_choice_confirmation,,html-keyboard-response,281,401347,0.0-1.0-402.0-0.0,0,0,46320,,,,,,57.0,,2.0,,,,,,,,,,,,,100.5,0.629,,,,,,,,,
282,,isi,,html-keyboard-response,282,403352,0.0-1.0-404.0,0,0,46320,,,,,,57.0,,2.0,,,,,,,,,,,,,102.5,2.0,,,,,,,,,
283,,feedback,,html-keyboard-response,283,404357,0.0-1.0-405.0-0.0,0,0,46320,,,,,,57.0,,2.0,,,,,,,,,,,,,103.5,1.0,,,,,,,,,
284,,iti,,html-keyboard-response,284,405361,0.0-1.0-406.0,0,0,46320,,,,,,57.0,,2.0,,,,,,,,,,,,,104.5,1.0,,,,,,,,,
285,,rl_choice,,html-keyboard-response,285,406443,0.0-1.0-408.0,0,0,46320,,1079.0,,,68.0,58.0,58.0,2.0,hard,1000.0,1500.0,1.0,60.0,40.0,60.0,60.0,D,C,/static/Simple_RL/Stimuli/Fractals_stims/D.jpg,/static/Simple_RL/Stimuli/Fractals_stims/C.jpg,105.579,1.079,0.0,1.0,60.0,40.0,60.0,60.0,D,C,
286,,rl_choice_confirmation,,html-keyboard-response,286,406990,0.0-1.0-409.0-0.0,0,0,46320,,,,,,58.0,,2.0,,,,,,,,,,,,,106.0,0.421,,,,,,,,,
287,,isi,,html-keyboard-response,287,408493,0.0-1.0-411.0,0,0,46320,,,,,,58.0,,2.0,,,,,,,,,,,,,107.5,1.5,,,,,,,,,
288,,feedback,,html-keyboard-response,288,409496,0.0-1.0-412.0-0.0,0,0,46320,,,,,,58.0,,2.0,,,,,,,,,,,,,108.5,1.0,,,,,,,,,
289,,iti,,html-keyboard-response,289,410498,0.0-1.0-413.0,0,0,46320,,,,,,58.0,,2.0,,,,,,,,,,,,,109.5,1.0,,,,,,,,,
290,,rl_choice,,html-keyboard-response,290,412000,0.0-1.0-415.0,0,0,46320,,,,,,59.0,59.0,2.0,easy,1500.0,3000.0,1.0,80.0,20.0,80.0,40.0,B,A,/static/Simple_RL/Stimuli/Fractals_stims/B.jpg,/static/Simple_RL/Stimuli/Fractals_stims/A.jpg,111.0,1.5,1.0,,,,,,,,
291,,rl_choice_warning,,html-keyboard-response,291,413008,0.0-1.0-417.0-0.0,1,0,46320,,,,,,59.0,,2.0,,,,,,,,,,,,,112.0,1.0,,,,,,,,,
292,,isi,,html-keyboard-response,292,416011,0.0-1.0-418.0,0,0,46320,,,,,,59.0,,2.0,,,,,,,,,,,,,115.0,3.0,,,,,,,,,
293,,iti,,html-keyboard-response,293,417514,0.0-1.0-420.0,0,0,46320,,,,,,59.0,,2.0,,,,,,,,,,,,,116.5,1.5,,,,,,,,,
294,,rl_choice,,html-keyboard-response,294,418444,0.0-1.0-422.0,0,0,46320,,926.0,,,75.0,60.0,60.0,2.0,hard,1500.0,2000.0,0.0,40.0,60.0,40.0,80.0,C,D,/static/Simple_RL/Stimuli/Fractals_stims/C.jpg,/static/Simple_RL/Stimuli/Fractals_stims/D.jpg,117.426,0.926,0.0,0.0,60.0,40.0,80.0,40.0,D,C,
295,,rl_choice_confirmation,,html-keyboard-response,295,419022,0.0-1.0-423.0-0.0,0,0,46320,,,,,,60.0,,2.0,,,,,,,,,,,,,118.0,0.574,,,,,,,,,
296,,isi,,html-keyboard-response,296,421024,0.0-1.0-425.0,0,0,46320,,,,,,60.0,,2.0,,,,,,,,,,,,,120.0,2.0,,,,,,,,,
297,,feedback,,html-keyboard-response,297,422029,0.0-1.0-426.0-0.0,0,0,46320,,,,,,60.0,,2.0,,,,,,,,,,,,,121.0,1.0,,,,,,,,,
298,,iti,,html-keyboard-response,298,423531,0.0-1.0-427.0,0,0,46320,,,,,,60.0,,2.0,,,,,,,,,,,,,122.5,1.5,,,,,,,,,
299,,rl_choice,,html-keyboard-response,299,424599,0.0-1.0-429.0,0,0,46320,,1066.0,,,68.0,61.0,61.0,2.0,hard,1000.0,1000.0,1.0,60.0,40.0,40.0,40.0,D,C,/static/Simple_RL/Stimuli/Fractals_stims/D.jpg,/static/Simple_RL/Stimuli/Fractals_stims/C.jpg,123.566,1.066,0.0,1.0,60.0,40.0,40.0,40.0,D,C,
300,,rl_choice_confirmation,,html-keyboard-response,300,425035,0.0-1.0-430.0-0.0,0,0,46320,,,,,,61.0,,2.0,,,,,,,,,,,,,124.0,0.434,,,,,,,,,
301,,isi,,html-keyboard-response,301,426041,0.0-1.0-432.0,0,0,46320,,,,,,61.0,,2.0,,,,,,,,,,,,,125.0,1.0,,,,,,,,,
302,,feedback,,html-keyboard-response,302,427042,0.0-1.0-433.0-0.0,0,0,46320,,,,,,61.0,,2.0,,,,,,,,,,,,,126.0,1.0,,,,,,,,,
303,,iti,,html-keyboard-response,303,428044,0.0-1.0-434.0,0,0,46320,,,,,,61.0,,2.0,,,,,,,,,,,,,127.0,1.0,,,,,,,,,
304,,rl_choice,,html-keyboard-response,304,428994,0.0-1.0-436.0,0,0,46320,,948.0,,,75.0,62.0,62.0,2.0,easy,3000.0,1500.0,0.0,20.0,80.0,20.0,80.0,A,B,/static/Simple_RL/Stimuli/Fractals_stims/A.jpg,/static/Simple_RL/Stimuli/Fractals_stims/B.jpg,127.948,0.948,0.0,0.0,80.0,20.0,80.0,20.0,B,A,
305,,rl_choice_confirmation,,html-keyboard-response,305,429550,0.0-1.0-437.0-0.0,0,0,46320,,,,,,62.0,,2.0,,,,,,,,,,,,,128.5,0.552,,,,,,,,,
306,,isi,,html-keyboard-response,306,431053,0.0-1.0-439.0,0,0,46320,,,,,,62.0,,2.0,,,,,,,,,,,,,130.0,1.5,,,,,,,,,
307,,feedback,,html-keyboard-response,307,432056,0.0-1.0-440.0-0.0,0,0,46320,,,,,,62.0,,2.0,,,,,,,,,,,,,131.0,1.0,,,,,,,,,
308,,iti,,html-keyboard-response,308,435060,0.0-1.0-441.0,0,0,46320,,,,,,62.0,,2.0,,,,,,,,,,,,,134.0,3.0,,,,,,,,,
309,,rl_choice,,html-keyboard-response,309,436115,0.0-1.0-443.0,0,0,46320,,1053.0,,,68.0,63.0,63.0,2.0,hard,1000.0,1500.0,1.0,60.0,40.0,60.0,40.0,D,C,/static/Simple_RL/Stimuli/Fractals_stims/D.jpg,/static/Simple_RL/Stimuli/Fractals_stims/C.jpg,135.053,1.053,0.0,1.0,60.0,40.0,60.0,40.0,D,C,
310,,rl_choice_confirmation,,html-keyboard-response,310,436569,0.0-1.0-444.0-0.0,0,0,46320,,,,,,63.0,,2.0,,,,,,,,,,,,,135.5,0.447,,,,,,,,,
311,,isi,,html-keyboard-response,311,438070,0.0-1.0-446.0,0,0,46320,,,,,,63.0,,2.0,,,,,,,,,,,,,137.0,1.5,,,,,,,,,
312,,feedback,,html-keyboard-response,312,439085,0.0-1.0-447.0-0.0,0,0,46320,,,,,,63.0,,2.0,,,,,,,,,,,,,138.0,1.0,,,,,,,,,
313,,iti,,html-keyboard-response,313,440086,0.0-1.0-448.0,0,0,46320,,,,,,63.0,,2.0,,,,,,,,,,,,,139.0,1.0,,,,,,,,,
314,,rl_choice,,html-keyboard-response,314,441594,0.0-1.0-450.0,0,0,46320,,,,,,64.0,64.0,2.0,hard,3500.0,1000.0,0.0,40.0,60.0,60.0,80.0,C,D,/static/Simple_RL/Stimuli/Fractals_stims/C.jpg,/static/Simple_RL/Stimuli/Fractals_stims/D.jpg,140.5,1.5,1.0,,,,,,,,
315,,rl_choice_warning,,html-keyboard-response,315,442597,0.0-1.0-452.0-0.0,1,0,46320,,,,,,64.0,,2.0,,,,,,,,,,,,,141.5,1.0,,,,,,,,,
316,,isi,,html-keyboard-response,316,443600,0.0-1.0-453.0,0,0,46320,,,,,,64.0,,2.0,,,,,,,,,,,,,142.5,1.0,,,,,,,,,
317,,iti,,html-keyboard-response,317,447103,0.0-1.0-455.0,0,0,46320,,,,,,64.0,,2.0,,,,,,,,,,,,,146.0,3.5,,,,,,,,,
318,,rl_choice,,html-keyboard-response,318,448043,0.0-1.0-457.0,0,0,46320,,936.0,,,68.0,65.0,65.0,2.0,easy,1500.0,1000.0,1.0,80.0,20.0,100.0,40.0,B,A,/static/Simple_RL/Stimuli/Fractals_stims/B.jpg,/static/Simple_RL/Stimuli/Fractals_stims/A.jpg,146.936,0.936,0.0,1.0,80.0,20.0,100.0,40.0,B,A,
319,,rl_choice_confirmation,,html-keyboard-response,319,448609,0.0-1.0-458.0-0.0,0,0,46320,,,,,,65.0,,2.0,,,,,,,,,,,,,147.5,0.564,,,,,,,,,
320,,isi,,html-keyboard-response,320,449650,0.0-1.0-460.0,0,0,46320,,,,,,65.0,,2.0,,,,,,,,,,,,,148.5,1.0,,,,,,,,,
321,,feedback,,html-keyboard-response,321,450653,0.0-1.0-461.0-0.0,0,0,46320,,,,,,65.0,,2.0,,,,,,,,,,,,,149.5,1.0,,,,,,,,,
322,,iti,,html-keyboard-response,322,452156,0.0-1.0-462.0,0,0,46320,,,,,,65.0,,2.0,,,,,,,,,,,,,151.0,1.5,,,,,,,,,
323,,rl_choice,,html-keyboard-response,323,453034,0.0-1.0-464.0,0,0,46320,,876.0,,,68.0,66.0,66.0,2.0,hard,1500.0,3000.0,1.0,60.0,40.0,60.0,40.0,D,C,/static/Simple_RL/Stimuli/Fractals_stims/D.jpg,/static/Simple_RL/Stimuli/Fractals_stims/C.jpg,151.876,0.876,0.0,1.0,60.0,40.0,60.0,40.0,D,C,
324,,rl_choice_confirmation,,html-keyboard-response,324,453662,0.0-1.0-465.0-0.0,0,0,46320,,,,,,66.0,,2.0,,,,,,,,,,,,,152.5,0.624,,,,,,,,,
325,,isi,,html-keyboard-response,325,456667,0.0-1.0-467.0,0,0,46320,,,,,,66.0,,2.0,,,,,,,,,,,,,155.5,3.0,,,,,,,,,
326,,feedback,,html-keyboard-response,326,457672,0.0-1.0-468.0-0.0,0,0,46320,,,,,,66.0,,2.0,,,,,,,,,,,,,156.5,1.0,,,,,,,,,
327,,iti,,html-keyboard-response,327,459175,0.0-1.0-469.0,0,0,46320,,,,,,66.0,,2.0,,,,,,,,,,,,,158.0,1.5,,,,,,,,,
328,,rl_choice,,html-keyboard-response,328,460072,0.0-1.0-471.0,0,0,46320,,893.0,,,75.0,67.0,67.0,2.0,hard,1500.0,1500.0,0.0,40.0,60.0,20.0,80.0,C,D,/static/Simple_RL/Stimuli/Fractals_stims/C.jpg,/static/Simple_RL/Stimuli/Fractals_stims/D.jpg,158.893,0.893,0.0,0.0,60.0,40.0,80.0,20.0,D,C,
329,,rl_choice_confirmation,,html-keyboard-response,329,460681,0.0-1.0-472.0-0.0,0,0,46320,,,,,,67.0,,2.0,,,,,,,,,,,,,159.5,0.607,,,,,,,,,
330,,isi,,html-keyboard-response,330,462189,0.0-1.0-474.0,0,0,46320,,,,,,67.0,,2.0,,,,,,,,,,,,,161.0,1.5,,,,,,,,,
331,,feedback,,html-keyboard-response,331,463193,0.0-1.0-475.0-0.0,0,0,46320,,,,,,67.0,,2.0,,,,,,,,,,,,,162.0,1.0,,,,,,,,,
332,,iti,,html-keyboard-response,332,464694,0.0-1.0-476.0,0,0,46320,,,,,,67.0,,2.0,,,,,,,,,,,,,163.5,1.5,,,,,,,,,
333,,rl_choice,,html-keyboard-response,333,465609,0.0-1.0-478.0,0,0,46320,,911.0,,,68.0,68.0,68.0,2.0,hard,3000.0,1000.0,1.0,60.0,40.0,60.0,40.0,D,C,/static/Simple_RL/Stimuli/Fractals_stims/D.jpg,/static/Simple_RL/Stimuli/Fractals_stims/C.jpg,164.411,0.911,0.0,1.0,60.0,40.0,60.0,40.0,D,C,
334,,rl_choice_confirmation,,html-keyboard-response,334,466203,0.0-1.0-479.0-0.0,0,0,46320,,,,,,68.0,,2.0,,,,,,,,,,,,,165.0,0.589,,,,,,,,,
335,,isi,,html-keyboard-response,335,467207,0.0-1.0-481.0,0,0,46320,,,,,,68.0,,2.0,,,,,,,,,,,,,166.0,1.0,,,,,,,,,
336,,feedback,,html-keyboard-response,336,468209,0.0-1.0-482.0-0.0,0,0,46320,,,,,,68.0,,2.0,,,,,,,,,,,,,167.0,1.0,,,,,,,,,
337,,iti,,html-keyboard-response,337,471212,0.0-1.0-483.0,0,0,46320,,,,,,68.0,,2.0,,,,,,,,,,,,,170.0,3.0,,,,,,,,,
338,,rl_choice,,html-keyboard-response,338,472005,0.0-1.0-485.0,0,0,46320,,789.0,,,75.0,69.0,69.0,2.0,easy,1000.0,1000.0,0.0,20.0,80.0,40.0,80.0,A,B,/static/Simple_RL/Stimuli/Fractals_stims/A.jpg,/static/Simple_RL/Stimuli/Fractals_stims/B.jpg,170.789,0.789,0.0,0.0,80.0,20.0,80.0,40.0,B,A,
339,,rl_choice_confirmation,,html-keyboard-response,339,472720,0.0-1.0-486.0-0.0,0,0,46320,,,,,,69.0,,2.0,,,,,,,,,,,,,171.5,0.711,,,,,,,,,
340,,isi,,html-keyboard-response,340,473722,0.0-1.0-488.0,0,0,46320,,,,,,69.0,,2.0,,,,,,,,,,,,,172.5,1.0,,,,,,,,,
341,,feedback,,html-keyboard-response,341,474875,0.0-1.0-489.0-0.0,0,0,46320,,,,,,69.0,,2.0,,,,,,,,,,,,,173.5,1.0,,,,,,,,,
342,,iti,,html-keyboard-response,342,475879,0.0-1.0-490.0,0,0,46320,,,,,,69.0,,2.0,,,,,,,,,,,,,174.5,1.0,,,,,,,,,
343,,rl_choice,,html-keyboard-response,343,476736,0.0-1.0-492.0,0,0,46320,,851.0,,,68.0,70.0,70.0,2.0,easy,1500.0,1000.0,1.0,80.0,20.0,80.0,20.0,B,A,/static/Simple_RL/Stimuli/Fractals_stims/B.jpg,/static/Simple_RL/Stimuli/Fractals_stims/A.jpg,175.351,0.851,0.0,1.0,80.0,20.0,80.0,20.0,B,A,
344,,rl_choice_confirmation,,html-keyboard-response,344,477390,0.0-1.0-493.0-0.0,0,0,46320,,,,,,70.0,,2.0,,,,,,,,,,,,,176.0,0.649,,,,,,,,,
345,,isi,,html-keyboard-response,345,478393,0.0-1.0-495.0,0,0,46320,,,,,,70.0,,2.0,,,,,,,,,,,,,177.0,1.0,,,,,,,,,
346,,feedback,,html-keyboard-response,346,479412,0.0-1.0-496.0-0.0,0,0,46320,,,,,,70.0,,2.0,,,,,,,,,,,,,178.0,1.0,,,,,,,,,
347,,iti,,html-keyboard-response,347,480914,0.0-1.0-497.0,0,0,46320,,,,,,70.0,,2.0,,,,,,,,,,,,,179.5,1.5,,,,,,,,,
348,,rl_choice,,html-keyboard-response,348,481775,0.0-1.0-499.0,0,0,46320,,858.0,,,75.0,71.0,71.0,2.0,easy,1500.0,1000.0,0.0,20.0,80.0,40.0,60.0,A,B,/static/Simple_RL/Stimuli/Fractals_stims/A.jpg,/static/Simple_RL/Stimuli/Fractals_stims/B.jpg,180.358,0.858,0.0,0.0,80.0,20.0,60.0,40.0,B,A,
349,,rl_choice_confirmation,,html-keyboard-response,349,482421,0.0-1.0-500.0-0.0,0,0,46320,,,,,,71.0,,2.0,,,,,,,,,,,,,181.0,0.642,,,,,,,,,
350,,isi,,html-keyboard-response,350,483933,0.0-1.0-502.0,0,0,46320,,,,,,71.0,,2.0,,,,,,,,,,,,,182.0,1.0,,,,,,,,,
351,,feedback,,html-keyboard-response,351,484937,0.0-1.0-503.0-0.0,0,0,46320,,,,,,71.0,,2.0,,,,,,,,,,,,,183.0,1.0,,,,,,,,,
352,,iti,,html-keyboard-response,352,486440,0.0-1.0-504.0,0,0,46320,,,,,,71.0,,2.0,,,,,,,,,,,,,184.5,1.5,,,,,,,,,
353,,rl_choice,,html-keyboard-response,353,487185,0.0-1.0-506.0,0,0,46320,,741.0,,,75.0,72.0,72.0,2.0,easy,2000.0,3000.0,0.0,20.0,80.0,20.0,100.0,A,B,/static/Simple_RL/Stimuli/Fractals_stims/A.jpg,/static/Simple_RL/Stimuli/Fractals_stims/B.jpg,185.241,0.741,0.0,0.0,80.0,20.0,100.0,20.0,B,A,
354,,rl_choice_confirmation,,html-keyboard-response,354,487948,0.0-1.0-507.0-0.0,0,0,46320,,,,,,72.0,,2.0,,,,,,,,,,,,,186.0,0.759,,,,,,,,,
355,,isi,,html-keyboard-response,355,490951,0.0-1.0-509.0,0,0,46320,,,,,,72.0,,2.0,,,,,,,,,,,,,189.0,3.0,,,,,,,,,
356,,feedback,,html-keyboard-response,356,491954,0.0-1.0-510.0-0.0,0,0,46320,,,,,,72.0,,2.0,,,,,,,,,,,,,190.0,1.0,,,,,,,,,
357,,iti,,html-keyboard-response,357,493958,0.0-1.0-511.0,0,0,46320,,,,,,72.0,,2.0,,,,,,,,,,,,,192.0,2.0,,,,,,,,,
358,,rl_choice,,html-keyboard-response,358,494787,0.0-1.0-513.0,0,0,46320,,825.0,,,75.0,73.0,73.0,2.0,easy,1000.0,3500.0,0.0,20.0,80.0,40.0,60.0,A,B,/static/Simple_RL/Stimuli/Fractals_stims/A.jpg,/static/Simple_RL/Stimuli/Fractals_stims/B.jpg,192.825,0.825,0.0,0.0,80.0,20.0,60.0,40.0,B,A,
359,,rl_choice_confirmation,,html-keyboard-response,359,495823,0.0-1.0-514.0-0.0,0,0,46320,,,,,,73.0,,2.0,,,,,,,,,,,,,193.5,0.675,,,,,,,,,
360,,isi,,html-keyboard-response,360,499340,0.0-1.0-516.0,0,0,46320,,,,,,73.0,,2.0,,,,,,,,,,,,,197.0,3.5,,,,,,,,,
361,,feedback,,html-keyboard-response,361,500354,0.0-1.0-517.0-0.0,0,0,46320,,,,,,73.0,,2.0,,,,,,,,,,,,,198.0,1.0,,,,,,,,,
362,,iti,,html-keyboard-response,362,501362,0.0-1.0-518.0,0,0,46320,,,,,,73.0,,2.0,,,,,,,,,,,,,199.0,1.0,,,,,,,,,
363,,rl_choice,,html-keyboard-response,363,502245,0.0-1.0-520.0,0,0,46320,,880.0,,,75.0,74.0,74.0,2.0,hard,3000.0,1000.0,0.0,40.0,60.0,40.0,40.0,C,D,/static/Simple_RL/Stimuli/Fractals_stims/C.jpg,/static/Simple_RL/Stimuli/Fractals_stims/D.jpg,199.88,0.88,0.0,0.0,60.0,40.0,40.0,40.0,D,C,
364,,rl_choice_confirmation,,html-keyboard-response,364,502867,0.0-1.0-521.0-0.0,0,0,46320,,,,,,74.0,,2.0,,,,,,,,,,,,,200.5,0.62,,,,,,,,,
365,,isi,,html-keyboard-response,365,503868,0.0-1.0-523.0,0,0,46320,,,,,,74.0,,2.0,,,,,,,,,,,,,201.5,1.0,,,,,,,,,
366,,feedback,,html-keyboard-response,366,504872,0.0-1.0-524.0-0.0,0,0,46320,,,,,,74.0,,2.0,,,,,,,,,,,,,202.5,1.0,,,,,,,,,
367,,iti,,html-keyboard-response,367,507899,0.0-1.0-525.0,0,0,46320,,,,,,74.0,,2.0,,,,,,,,,,,,,205.5,3.0,,,,,,,,,
368,,rl_choice,,html-keyboard-response,368,508885,0.0-1.0-527.0,0,0,46320,,975.0,,,75.0,75.0,75.0,2.0,easy,1000.0,1000.0,0.0,20.0,80.0,0.0,60.0,A,B,/static/Simple_RL/Stimuli/Fractals_stims/A.jpg,/static/Simple_RL/Stimuli/Fractals_stims/B.jpg,206.475,0.975,0.0,0.0,80.0,20.0,60.0,0.0,B,A,
369,,rl_choice_confirmation,,html-keyboard-response,369,509414,0.0-1.0-528.0-0.0,0,0,46320,,,,,,75.0,,2.0,,,,,,,,,,,,,207.0,0.525,,,,,,,,,
370,,isi,,html-keyboard-response,370,510417,0.0-1.0-530.0,0,0,46320,,,,,,75.0,,2.0,,,,,,,,,,,,,208.0,1.0,,,,,,,,,
371,,feedback,,html-keyboard-response,371,511421,0.0-1.0-531.0-0.0,0,0,46320,,,,,,75.0,,2.0,,,,,,,,,,,,,209.0,1.0,,,,,,,,,
372,,iti,,html-keyboard-response,372,512422,0.0-1.0-532.0,0,0,46320,,,,,,75.0,,2.0,,,,,,,,,,,,,210.0,1.0,,,,,,,,,
373,,rl_choice,,html-keyboard-response,373,513265,0.0-1.0-534.0,0,0,46320,,839.0,,,68.0,76.0,76.0,2.0,easy,2000.0,1500.0,1.0,80.0,20.0,100.0,20.0,B,A,/static/Simple_RL/Stimuli/Fractals_stims/B.jpg,/static/Simple_RL/Stimuli/Fractals_stims/A.jpg,210.839,0.839,0.0,1.0,80.0,20.0,100.0,20.0,B,A,
374,,rl_choice_confirmation,,html-keyboard-response,374,513930,0.0-1.0-535.0-0.0,0,0,46320,,,,,,76.0,,2.0,,,,,,,,,,,,,211.5,0.661,,,,,,,,,
375,,isi,,html-keyboard-response,375,515431,0.0-1.0-537.0,0,0,46320,,,,,,76.0,,2.0,,,,,,,,,,,,,213.0,1.5,,,,,,,,,
376,,feedback,,html-keyboard-response,376,516433,0.0-1.0-538.0-0.0,0,0,46320,,,,,,76.0,,2.0,,,,,,,,,,,,,214.0,1.0,,,,,,,,,
377,,iti,,html-keyboard-response,377,518435,0.0-1.0-539.0,0,0,46320,,,,,,76.0,,2.0,,,,,,,,,,,,,216.0,2.0,,,,,,,,,
378,,rl_choice,,html-keyboard-response,378,519246,0.0-1.0-541.0,0,0,46320,,807.0,,,75.0,77.0,77.0,2.0,easy,1000.0,1000.0,0.0,20.0,80.0,0.0,80.0,A,B,/static/Simple_RL/Stimuli/Fractals_stims/A.jpg,/static/Simple_RL/Stimuli/Fractals_stims/B.jpg,216.807,0.807,0.0,0.0,80.0,20.0,80.0,0.0,B,A,
379,,rl_choice_confirmation,,html-keyboard-response,379,519943,0.0-1.0-542.0-0.0,0,0,46320,,,,,,77.0,,2.0,,,,,,,,,,,,,217.5,0.693,,,,,,,,,
380,,isi,,html-keyboard-response,380,520950,0.0-1.0-544.0,0,0,46320,,,,,,77.0,,2.0,,,,,,,,,,,,,218.5,1.0,,,,,,,,,
381,,feedback,,html-keyboard-response,381,521954,0.0-1.0-545.0-0.0,0,0,46320,,,,,,77.0,,2.0,,,,,,,,,,,,,219.5,1.0,,,,,,,,,
382,,iti,,html-keyboard-response,382,522958,0.0-1.0-546.0,0,0,46320,,,,,,77.0,,2.0,,,,,,,,,,,,,220.5,1.0,,,,,,,,,
383,,rl_choice,,html-keyboard-response,383,523898,0.0-1.0-548.0,0,0,46320,,936.0,,,75.0,78.0,78.0,2.0,hard,1500.0,1000.0,0.0,40.0,60.0,20.0,60.0,C,D,/static/Simple_RL/Stimuli/Fractals_stims/C.jpg,/static/Simple_RL/Stimuli/Fractals_stims/D.jpg,221.436,0.936,0.0,0.0,60.0,40.0,60.0,20.0,D,C,
384,,rl_choice_confirmation,,html-keyboard-response,384,524466,0.0-1.0-549.0-0.0,0,0,46320,,,,,,78.0,,2.0,,,,,,,,,,,,,222.0,0.564,,,,,,,,,
385,,isi,,html-keyboard-response,385,525500,0.0-1.0-551.0,0,0,46320,,,,,,78.0,,2.0,,,,,,,,,,,,,223.0,1.0,,,,,,,,,
386,,feedback,,html-keyboard-response,386,526511,0.0-1.0-552.0-0.0,0,0,46320,,,,,,78.0,,2.0,,,,,,,,,,,,,224.0,1.0,,,,,,,,,
387,,iti,,html-keyboard-response,387,528018,0.0-1.0-553.0,0,0,46320,,,,,,78.0,,2.0,,,,,,,,,,,,,225.5,1.5,,,,,,,,,
388,,rl_choice,,html-keyboard-response,388,528824,0.0-1.0-555.0,0,0,46320,,804.0,,,68.0,79.0,79.0,2.0,easy,2000.0,2000.0,1.0,80.0,20.0,100.0,0.0,B,A,/static/Simple_RL/Stimuli/Fractals_stims/B.jpg,/static/Simple_RL/Stimuli/Fractals_stims/A.jpg,226.304,0.804,0.0,1.0,80.0,20.0,100.0,0.0,B,A,
389,,rl_choice_confirmation,,html-keyboard-response,389,529523,0.0-1.0-556.0-0.0,0,0,46320,,,,,,79.0,,2.0,,,,,,,,,,,,,227.0,0.696,,,,,,,,,
390,,isi,,html-keyboard-response,390,531526,0.0-1.0-558.0,0,0,46320,,,,,,79.0,,2.0,,,,,,,,,,,,,229.0,2.0,,,,,,,,,
391,,feedback,,html-keyboard-response,391,532530,0.0-1.0-559.0-0.0,0,0,46320,,,,,,79.0,,2.0,,,,,,,,,,,,,230.0,1.0,,,,,,,,,
392,,iti,,html-keyboard-response,392,534537,0.0-1.0-560.0,0,0,46320,,,,,,79.0,,2.0,,,,,,,,,,,,,232.0,2.0,,,,,,,,,0.79
393,,final_tally,,html-keyboard-response,393,543206,0.0-2.0,0,0,46320,,8662.0,,,68.0,,,,,,,,,,,,,,,,,,,,,,,,,,
394,,debreif_intro,,html-keyboard-response,394,549728,0.0-3.0,0,0,46320,,6475.0,,,68.0,,,,,,,,,,,,,,,,,,,,,,,,,,
395,,debreif_age,,survey-text,395,553610,0.0-4.0,0,0,46320,,3875.0,"{""Q0"":""25""}",,,,,,,,,,,,,,,,,,,,,,,,,,,,
396,,debreif_gender,,survey-multi-choice,396,555855,0.0-5.0,0,0,46320,,2237.0,"{""Q0"":""Female""}",,,,,,,,,,,,,,,,,,,,,,,,,,,,
397,,debreif_dominant_hand,,survey-multi-choice,397,559265,0.0-6.0,0,0,46320,,3405.0,"{""Q0"":""Right""}",,,,,,,,,,,,,,,,,,,,,,,,,,,,
398,,debreif_native_language,,survey-multi-choice,398,562206,0.0-7.0,0,0,46320,,2935.0,"{""Q0"":""Yes""}",,,,,,,,,,,,,,,,,,,,,,,,,,,,
399,,debreif_fluency,,survey-likert,399,566635,0.0-8.0,0,0,46320,,4423.0,"{""Q0"":5}",,,,,,,,,,,,,,,,,,,,,,,,,,,,
400,,debreif_strategy_category_learning,,survey-text,400,659225,0.0-9.0,0,0,46320,,92586.0,"{""Q0"":""Watch\npen\ntable\nchain\ntelescope""}",,,,,,,,,,,,,,,,,,,,,,,,,,,,
401,,debreif_strategy_old_trials,,survey-text,401,708547,0.0-10.0,0,0,46320,,49313.0,"{""Q0"":""Based on color""}",,,,,,,,,,,,,,,,,,,,,,,,,,,,
402,,debreif_strategy_category_memory,,survey-text,402,753467,0.0-11.0,0,0,46320,,44918.0,"{""Q0"":""80""}",,,,,,,,,,,,,,,,,,,,,,,,,,,,
403,,debreif_strategy_size,,survey-text,403,770816,0.0-12.0,0,0,46320,,17345.0,"{""Q0"":""Biggest in the real world""}",,,,,,,,,,,,,,,,,,,,,,,,,,,,
404,,debreif_strategy_rl,,survey-text,404,793109,0.0-13.0,0,0,46320,,22288.0,"{""Q0"":""based on design""}",,,,,,,,,,,,,,,,,,,,,,,,,,,,
405,,debreif_clear_instructions,,survey-text,405,797965,0.0-14.0,0,0,46320,,4849.0,"{""Q0"":""no""}",,,,,,,,,,,,,,,,,,,,,,,,,,,,
406,,debreif_end,,html-keyboard-response,406,825666,0.0-15.0,0,0,46320,,27696.0,,,32.0,,,,,,,,,,,,,,,,,,,,,,,,,,
