,success,ttype,start_time,trial_type,trial_index,time_elapsed,internal_node_id,warning,missed_checkup,PID,view_history,rt,responses,repeat_instructions,key_press,index,trial_num,block,condition,iti,isi,high_group_on_left,left_group_value,right_group_value,left_item_value,right_item_value,left_img,right_img,left_img_path,right_img_path,left_chosen,chosen_group_value,unchosen_group_value,chosen_item_value,unchosen_item_value,chosen_img,unchosen_img,no_response,onset,duration,no_resposne,total_bonus_tally
0,True,full_screen,d06012022hr1747,fullscreen,0,6552,0.0-0.0,0,0,32,,,,,,,,,,,,,,,,,,,,,,,,,,,,,,,,
1,,size_instructions,,instructions,1,9313,0.0-1.0-0.0-0.0,0,0,32,"[{""page_index"":0,""viewing_time"":1486},{""page_index"":1,""viewing_time"":174},{""page_index"":2,""viewing_time"":169},{""page_index"":3,""viewing_time"":172},{""page_index"":4,""viewing_time"":235},{""page_index"":5,""viewing_time"":524}]",2760.0,,,,,,,,,,,,,,,,,,,,,,,,,,,,,,
2,,rl_comprehension_check,,survey-multi-choice,2,12948,0.0-1.0-0.0-1.0,0,0,32,,3633.0,"{""Q0"":""True"",""Q1"":""True"",""Q2"":""pointer finger for left and middle finger for right""}",0.0,,,,,,,,,,,,,,,,,,,,,,,,,,,,
3,,,,html-keyboard-response,3,13454,0.0-1.0-1.0,0,0,32,,504.0,,,50.0,,,,,,,,,,,,,,,,,,,,,,,,,,,
4,,rl_choice,,html-keyboard-response,4,14086,0.0-1.0-2.0,0,0,32,,630.0,,,50.0,0.0,0.0,1.0,hard,1000.0,2000.0,0.0,40.0,60.0,20.0,60.0,C,D,/static/Simple_RL/Stimuli/Fractals_stims/C.jpg,/static/Simple_RL/Stimuli/Fractals_stims/D.jpg,1.0,40.0,60.0,20.0,60.0,C,D,0.0,0.63,0.63,,
5,,rl_choice_confirmation,,html-keyboard-response,5,14962,0.0-1.0-3.0-0.0,0,0,32,,,,,,0.0,,,,,,,,,,,,,,,,,,,,,,,1.5,0.87,,
6,,isi,,html-keyboard-response,6,15064,0.0-1.0-5.0,0,0,32,,,,,,,,,,,,,,,,,,,,,,,,,,,,,3.5,2.0,,
7,,feedback,,html-keyboard-response,7,16065,0.0-1.0-6.0-0.0,0,0,32,,,,,,0.0,,,,,,,,,,,,,,,,,,,,,,,4.5,1.0,,
8,,iti,,html-keyboard-response,8,16166,0.0-1.0-7.0,0,0,32,,,,,,,,,,,,,,,,,,,,,,,,,,,,,5.5,1.0,,
9,,rl_choice,,html-keyboard-response,9,16316,0.0-1.0-9.0,0,0,32,,149.0,,,50.0,1.0,1.0,1.0,easy,1000.0,3000.0,1.0,80.0,20.0,100.0,40.0,B,A,/static/Simple_RL/Stimuli/Fractals_stims/B.jpg,/static/Simple_RL/Stimuli/Fractals_stims/A.jpg,1.0,80.0,20.0,100.0,40.0,B,A,0.0,5.649,0.149,,
10,,rl_choice_confirmation,,html-keyboard-response,10,17669,0.0-1.0-10.0-0.0,0,0,32,,,,,,1.0,,,,,,,,,,,,,,,,,,,,,,,7.0,1.351,,
11,,isi,,html-keyboard-response,11,17771,0.0-1.0-12.0,0,0,32,,,,,,,,,,,,,,,,,,,,,,,,,,,,,10.0,3.0,,
12,,feedback,,html-keyboard-response,12,18774,0.0-1.0-13.0-0.0,0,0,32,,,,,,1.0,,,,,,,,,,,,,,,,,,,,,,,11.0,1.0,,
13,,iti,,html-keyboard-response,13,18878,0.0-1.0-14.0,0,0,32,,,,,,,,,,,,,,,,,,,,,,,,,,,,,12.0,1.0,,
14,,rl_choice,,html-keyboard-response,14,18951,0.0-1.0-16.0,0,0,32,,70.0,,,50.0,2.0,2.0,1.0,hard,3000.0,1000.0,0.0,40.0,60.0,20.0,80.0,C,D,/static/Simple_RL/Stimuli/Fractals_stims/C.jpg,/static/Simple_RL/Stimuli/Fractals_stims/D.jpg,1.0,40.0,60.0,20.0,80.0,C,D,0.0,12.07,0.07,,
15,,rl_choice_confirmation,,html-keyboard-response,15,20384,0.0-1.0-17.0-0.0,0,0,32,,,,,,2.0,,,,,,,,,,,,,,,,,,,,,,,13.5,1.43,,
16,,isi,,html-keyboard-response,16,20489,0.0-1.0-19.0,0,0,32,,,,,,,,,,,,,,,,,,,,,,,,,,,,,14.5,1.0,,
17,,feedback,,html-keyboard-response,17,21495,0.0-1.0-20.0-0.0,0,0,32,,,,,,2.0,,,,,,,,,,,,,,,,,,,,,,,15.5,1.0,,
18,,iti,,html-keyboard-response,18,21600,0.0-1.0-21.0,0,0,32,,,,,,,,,,,,,,,,,,,,,,,,,,,,,18.5,3.0,,
19,,rl_choice,,html-keyboard-response,19,23106,0.0-1.0-23.0,0,0,32,,,,,,3.0,3.0,1.0,hard,1000.0,3500.0,0.0,40.0,60.0,60.0,60.0,C,D,/static/Simple_RL/Stimuli/Fractals_stims/C.jpg,/static/Simple_RL/Stimuli/Fractals_stims/D.jpg,,,,,,,,,20.0,1.5,1.0,
20,,rl_choice_warning,,html-keyboard-response,20,24112,0.0-1.0-25.0-0.0,0,0,32,,,,,,,,,,,,,,,,,,,,,,,,,,,,,21.0,1.0,,
21,,isi,,html-keyboard-response,21,24613,0.0-1.0-26.0,0,0,32,,,,,,,,,,,,,,,,,,,,,,,,,,,,,24.5,3.5,,
22,,iti,,html-keyboard-response,22,25773,0.0-1.0-28.0,0,0,32,,,,,,,,,,,,,,,,,,,,,,,,,,,,,25.5,1.0,,
23,,rl_choice,,html-keyboard-response,23,27680,0.0-1.0-30.0,0,0,32,,,,,,4.0,4.0,1.0,hard,1500.0,3000.0,0.0,40.0,60.0,20.0,60.0,C,D,/static/Simple_RL/Stimuli/Fractals_stims/C.jpg,/static/Simple_RL/Stimuli/Fractals_stims/D.jpg,,,,,,,,,27.0,1.5,1.0,
24,,rl_choice_warning,,html-keyboard-response,24,29645,0.0-1.0-32.0-0.0,0,0,32,,,,,,,,,,,,,,,,,,,,,,,,,,,,,28.0,1.0,,
25,,isi,,html-keyboard-response,25,30559,0.0-1.0-33.0,0,0,32,,,,,,,,,,,,,,,,,,,,,,,,,,,,,31.0,3.0,,
26,,iti,,html-keyboard-response,26,31589,0.0-1.0-35.0,0,0,32,,,,,,,,,,,,,,,,,,,,,,,,,,,,,32.5,1.5,,
27,,rl_choice,,html-keyboard-response,27,34089,0.0-1.0-37.0,0,0,32,,,,,,5.0,5.0,1.0,easy,2000.0,2000.0,0.0,20.0,80.0,20.0,100.0,A,B,/static/Simple_RL/Stimuli/Fractals_stims/A.jpg,/static/Simple_RL/Stimuli/Fractals_stims/B.jpg,,,,,,,,,34.0,1.5,1.0,
28,,rl_choice_warning,,html-keyboard-response,28,35665,0.0-1.0-39.0-0.0,0,0,32,,,,,,,,,,,,,,,,,,,,,,,,,,,,,35.0,1.0,,
29,,isi,,html-keyboard-response,29,36560,0.0-1.0-40.0,0,0,32,,,,,,,,,,,,,,,,,,,,,,,,,,,,,37.0,2.0,,
30,,iti,,html-keyboard-response,30,38056,0.0-1.0-42.0,0,0,32,,,,,,,,,,,,,,,,,,,,,,,,,,,,,39.0,2.0,,
31,,rl_choice,,html-keyboard-response,31,39560,0.0-1.0-44.0,0,0,32,,,,,,6.0,6.0,1.0,hard,1000.0,1000.0,0.0,40.0,60.0,40.0,80.0,C,D,/static/Simple_RL/Stimuli/Fractals_stims/C.jpg,/static/Simple_RL/Stimuli/Fractals_stims/D.jpg,,,,,,,,,40.5,1.5,1.0,
32,,rl_choice_warning,,html-keyboard-response,32,42149,0.0-1.0-46.0-0.0,0,0,32,,,,,,,,,,,,,,,,,,,,,,,,,,,,,41.5,1.0,,
33,,isi,,html-keyboard-response,33,42589,0.0-1.0-47.0,0,0,32,,,,,,,,,,,,,,,,,,,,,,,,,,,,,42.5,1.0,,
34,,iti,,html-keyboard-response,34,44040,0.0-1.0-49.0,0,0,32,,,,,,,,,,,,,,,,,,,,,,,,,,,,,43.5,1.0,,
35,,rl_choice,,html-keyboard-response,35,45978,0.0-1.0-51.0,0,0,32,,,,,,7.0,7.0,1.0,hard,1500.0,1000.0,0.0,40.0,60.0,60.0,80.0,C,D,/static/Simple_RL/Stimuli/Fractals_stims/C.jpg,/static/Simple_RL/Stimuli/Fractals_stims/D.jpg,,,,,,,,,45.0,1.5,1.0,
36,,rl_choice_warning,,html-keyboard-response,36,47792,0.0-1.0-53.0-0.0,0,0,32,,,,,,,,,,,,,,,,,,,,,,,,,,,,,46.0,1.0,,
37,,isi,,html-keyboard-response,37,48931,0.0-1.0-54.0,0,0,32,,,,,,,,,,,,,,,,,,,,,,,,,,,,,47.0,1.0,,
38,,iti,,html-keyboard-response,38,49757,0.0-1.0-56.0,0,0,32,,,,,,,,,,,,,,,,,,,,,,,,,,,,,48.5,1.5,,
39,,rl_choice,,html-keyboard-response,39,51757,0.0-1.0-58.0,0,0,32,,,,,,8.0,8.0,1.0,easy,1500.0,2000.0,0.0,20.0,80.0,0.0,100.0,A,B,/static/Simple_RL/Stimuli/Fractals_stims/A.jpg,/static/Simple_RL/Stimuli/Fractals_stims/B.jpg,,,,,,,,,50.0,1.5,1.0,
40,,rl_choice_warning,,html-keyboard-response,40,53865,0.0-1.0-60.0-0.0,0,0,32,,,,,,,,,,,,,,,,,,,,,,,,,,,,,51.0,1.0,,
41,,isi,,html-keyboard-response,41,54905,0.0-1.0-61.0,0,0,32,,,,,,,,,,,,,,,,,,,,,,,,,,,,,53.0,2.0,,
42,,iti,,html-keyboard-response,42,55884,0.0-1.0-63.0,0,0,32,,,,,,,,,,,,,,,,,,,,,,,,,,,,,54.5,1.5,,
43,,rl_choice,,html-keyboard-response,43,57560,0.0-1.0-65.0,0,0,32,,,,,,9.0,9.0,1.0,easy,2000.0,1000.0,1.0,80.0,20.0,60.0,0.0,B,A,/static/Simple_RL/Stimuli/Fractals_stims/B.jpg,/static/Simple_RL/Stimuli/Fractals_stims/A.jpg,,,,,,,,,56.0,1.5,1.0,
44,,rl_choice_warning,,html-keyboard-response,44,60102,0.0-1.0-67.0-0.0,0,0,32,,,,,,,,,,,,,,,,,,,,,,,,,,,,,57.0,1.0,,
45,,isi,,html-keyboard-response,45,60654,0.0-1.0-68.0,0,0,32,,,,,,,,,,,,,,,,,,,,,,,,,,,,,58.0,1.0,,
46,,iti,,html-keyboard-response,46,61560,0.0-1.0-70.0,0,0,32,,,,,,,,,,,,,,,,,,,,,,,,,,,,,60.0,2.0,,
47,,rl_choice,,html-keyboard-response,47,64189,0.0-1.0-72.0,0,0,32,,,,,,10.0,10.0,1.0,hard,1000.0,1000.0,1.0,60.0,40.0,40.0,40.0,D,C,/static/Simple_RL/Stimuli/Fractals_stims/D.jpg,/static/Simple_RL/Stimuli/Fractals_stims/C.jpg,,,,,,,,,61.5,1.5,1.0,
48,,rl_choice_warning,,html-keyboard-response,48,66166,0.0-1.0-74.0-0.0,0,0,32,,,,,,,,,,,,,,,,,,,,,,,,,,,,,62.5,1.0,,
49,,isi,,html-keyboard-response,49,66628,0.0-1.0-75.0,0,0,32,,,,,,,,,,,,,,,,,,,,,,,,,,,,,63.5,1.0,,
50,,iti,,html-keyboard-response,50,68022,0.0-1.0-77.0,0,0,32,,,,,,,,,,,,,,,,,,,,,,,,,,,,,64.5,1.0,,
51,,rl_choice,,html-keyboard-response,51,70029,0.0-1.0-79.0,0,0,32,,,,,,11.0,11.0,1.0,easy,1000.0,3000.0,0.0,20.0,80.0,20.0,60.0,A,B,/static/Simple_RL/Stimuli/Fractals_stims/A.jpg,/static/Simple_RL/Stimuli/Fractals_stims/B.jpg,,,,,,,,,66.0,1.5,1.0,
52,,rl_choice_warning,,html-keyboard-response,52,72029,0.0-1.0-81.0-0.0,0,0,32,,,,,,,,,,,,,,,,,,,,,,,,,,,,,67.0,1.0,,
53,,isi,,html-keyboard-response,53,72824,0.0-1.0-82.0,0,0,32,,,,,,,,,,,,,,,,,,,,,,,,,,,,,70.0,3.0,,
54,,iti,,html-keyboard-response,54,73926,0.0-1.0-84.0,0,0,32,,,,,,,,,,,,,,,,,,,,,,,,,,,,,71.0,1.0,,
55,,rl_choice,,html-keyboard-response,55,75704,0.0-1.0-86.0,0,0,32,,,,,,12.0,12.0,1.0,easy,3000.0,1500.0,0.0,20.0,80.0,20.0,80.0,A,B,/static/Simple_RL/Stimuli/Fractals_stims/A.jpg,/static/Simple_RL/Stimuli/Fractals_stims/B.jpg,,,,,,,,,72.5,1.5,1.0,
56,,rl_choice_warning,,html-keyboard-response,56,77704,0.0-1.0-88.0-0.0,0,0,32,,,,,,,,,,,,,,,,,,,,,,,,,,,,,73.5,1.0,,
57,,isi,,html-keyboard-response,57,78653,0.0-1.0-89.0,0,0,32,,,,,,,,,,,,,,,,,,,,,,,,,,,,,75.0,1.5,,
58,,iti,,html-keyboard-response,58,79560,0.0-1.0-91.0,0,0,32,,,,,,,,,,,,,,,,,,,,,,,,,,,,,78.0,3.0,,
59,,rl_choice,,html-keyboard-response,59,81704,0.0-1.0-93.0,0,0,32,,,,,,13.0,13.0,1.0,hard,1000.0,2000.0,0.0,40.0,60.0,40.0,80.0,C,D,/static/Simple_RL/Stimuli/Fractals_stims/C.jpg,/static/Simple_RL/Stimuli/Fractals_stims/D.jpg,,,,,,,,,79.5,1.5,1.0,
60,,rl_choice_warning,,html-keyboard-response,60,84052,0.0-1.0-95.0-0.0,0,0,32,,,,,,,,,,,,,,,,,,,,,,,,,,,,,80.5,1.0,,
61,,isi,,html-keyboard-response,61,84814,0.0-1.0-96.0,0,0,32,,,,,,,,,,,,,,,,,,,,,,,,,,,,,82.5,2.0,,
62,,iti,,html-keyboard-response,62,85933,0.0-1.0-98.0,0,0,32,,,,,,,,,,,,,,,,,,,,,,,,,,,,,83.5,1.0,,
63,,rl_choice,,html-keyboard-response,63,88278,0.0-1.0-100.0,0,0,32,,,,,,14.0,14.0,1.0,easy,1500.0,1500.0,0.0,20.0,80.0,20.0,80.0,A,B,/static/Simple_RL/Stimuli/Fractals_stims/A.jpg,/static/Simple_RL/Stimuli/Fractals_stims/B.jpg,,,,,,,,,85.0,1.5,1.0,
64,,rl_choice_warning,,html-keyboard-response,64,90200,0.0-1.0-102.0-0.0,0,0,32,,,,,,,,,,,,,,,,,,,,,,,,,,,,,86.0,1.0,,
65,,isi,,html-keyboard-response,65,90678,0.0-1.0-103.0,0,0,32,,,,,,,,,,,,,,,,,,,,,,,,,,,,,87.5,1.5,,
66,,iti,,html-keyboard-response,66,91997,0.0-1.0-105.0,0,0,32,,,,,,,,,,,,,,,,,,,,,,,,,,,,,89.0,1.5,,
67,,rl_choice,,html-keyboard-response,67,93830,0.0-1.0-107.0,0,0,32,,,,,,15.0,15.0,1.0,hard,1500.0,2000.0,1.0,60.0,40.0,40.0,60.0,D,C,/static/Simple_RL/Stimuli/Fractals_stims/D.jpg,/static/Simple_RL/Stimuli/Fractals_stims/C.jpg,,,,,,,,,90.5,1.5,1.0,
68,,rl_choice_warning,,html-keyboard-response,68,95945,0.0-1.0-109.0-0.0,0,0,32,,,,,,,,,,,,,,,,,,,,,,,,,,,,,91.5,1.0,,
69,,isi,,html-keyboard-response,69,96707,0.0-1.0-110.0,0,0,32,,,,,,,,,,,,,,,,,,,,,,,,,,,,,93.5,2.0,,
70,,iti,,html-keyboard-response,70,97560,0.0-1.0-112.0,0,0,32,,,,,,,,,,,,,,,,,,,,,,,,,,,,,95.0,1.5,,
71,,rl_choice,,html-keyboard-response,71,99914,0.0-1.0-114.0,0,0,32,,,,,,16.0,16.0,1.0,hard,1000.0,1000.0,1.0,60.0,40.0,60.0,60.0,D,C,/static/Simple_RL/Stimuli/Fractals_stims/D.jpg,/static/Simple_RL/Stimuli/Fractals_stims/C.jpg,,,,,,,,,96.5,1.5,1.0,
72,,rl_choice_warning,,html-keyboard-response,72,101907,0.0-1.0-116.0-0.0,0,0,32,,,,,,,,,,,,,,,,,,,,,,,,,,,,,97.5,1.0,,
73,,isi,,html-keyboard-response,73,102884,0.0-1.0-117.0,0,0,32,,,,,,,,,,,,,,,,,,,,,,,,,,,,,98.5,1.0,,
74,,iti,,html-keyboard-response,74,103896,0.0-1.0-119.0,0,0,32,,,,,,,,,,,,,,,,,,,,,,,,,,,,,99.5,1.0,,
75,,rl_choice,,html-keyboard-response,75,105884,0.0-1.0-121.0,0,0,32,,,,,,17.0,17.0,1.0,easy,3000.0,1500.0,1.0,80.0,20.0,60.0,20.0,B,A,/static/Simple_RL/Stimuli/Fractals_stims/B.jpg,/static/Simple_RL/Stimuli/Fractals_stims/A.jpg,,,,,,,,,101.0,1.5,1.0,
76,,rl_choice_warning,,html-keyboard-response,76,107724,0.0-1.0-123.0-0.0,0,0,32,,,,,,,,,,,,,,,,,,,,,,,,,,,,,102.0,1.0,,
77,,isi,,html-keyboard-response,77,108561,0.0-1.0-124.0,0,0,32,,,,,,,,,,,,,,,,,,,,,,,,,,,,,103.5,1.5,,
78,,iti,,html-keyboard-response,78,109562,0.0-1.0-126.0,0,0,32,,,,,,,,,,,,,,,,,,,,,,,,,,,,,106.5,3.0,,
79,,rl_choice,,html-keyboard-response,79,111561,0.0-1.0-128.0,0,0,32,,,,,,18.0,18.0,1.0,hard,3500.0,1500.0,1.0,60.0,40.0,60.0,60.0,D,C,/static/Simple_RL/Stimuli/Fractals_stims/D.jpg,/static/Simple_RL/Stimuli/Fractals_stims/C.jpg,,,,,,,,,108.0,1.5,1.0,
80,,rl_choice_warning,,html-keyboard-response,80,113562,0.0-1.0-130.0-0.0,0,0,32,,,,,,,,,,,,,,,,,,,,,,,,,,,,,109.0,1.0,,
81,,isi,,html-keyboard-response,81,113726,0.0-1.0-131.0,0,0,32,,,,,,,,,,,,,,,,,,,,,,,,,,,,,110.5,1.5,,
82,,iti,,html-keyboard-response,82,113833,0.0-1.0-133.0,0,0,32,,,,,,,,,,,,,,,,,,,,,,,,,,,,,114.0,3.5,,
83,,rl_choice,,html-keyboard-response,83,115347,0.0-1.0-135.0,0,0,32,,,,,,19.0,19.0,1.0,hard,2000.0,1500.0,1.0,60.0,40.0,60.0,20.0,D,C,/static/Simple_RL/Stimuli/Fractals_stims/D.jpg,/static/Simple_RL/Stimuli/Fractals_stims/C.jpg,,,,,,,,,115.5,1.5,1.0,
84,,rl_choice_warning,,html-keyboard-response,84,116350,0.0-1.0-137.0-0.0,0,0,32,,,,,,,,,,,,,,,,,,,,,,,,,,,,,116.5,1.0,,
85,,isi,,html-keyboard-response,85,116451,0.0-1.0-138.0,0,0,32,,,,,,,,,,,,,,,,,,,,,,,,,,,,,118.0,1.5,,
86,,iti,,html-keyboard-response,86,116556,0.0-1.0-140.0,0,0,32,,,,,,,,,,,,,,,,,,,,,,,,,,,,,120.0,2.0,,
87,,rl_choice,,html-keyboard-response,87,116679,0.0-1.0-142.0,0,0,32,,119.0,,,50.0,20.0,20.0,1.0,easy,2000.0,1000.0,1.0,80.0,20.0,80.0,20.0,B,A,/static/Simple_RL/Stimuli/Fractals_stims/B.jpg,/static/Simple_RL/Stimuli/Fractals_stims/A.jpg,1.0,80.0,20.0,80.0,20.0,B,A,0.0,120.119,0.119,,
88,,rl_choice_confirmation,,html-keyboard-response,88,118065,0.0-1.0-143.0-0.0,0,0,32,,,,,,20.0,,,,,,,,,,,,,,,,,,,,,,,121.5,1.381,,
89,,isi,,html-keyboard-response,89,118167,0.0-1.0-145.0,0,0,32,,,,,,,,,,,,,,,,,,,,,,,,,,,,,122.5,1.0,,
90,,feedback,,html-keyboard-response,90,119173,0.0-1.0-146.0-0.0,0,0,32,,,,,,20.0,,,,,,,,,,,,,,,,,,,,,,,123.5,1.0,,
91,,iti,,html-keyboard-response,91,119276,0.0-1.0-147.0,0,0,32,,,,,,,,,,,,,,,,,,,,,,,,,,,,,125.5,2.0,,
92,,rl_choice,,html-keyboard-response,92,119500,0.0-1.0-149.0,0,0,32,,222.0,,,50.0,21.0,21.0,1.0,easy,1500.0,2000.0,1.0,80.0,20.0,80.0,20.0,B,A,/static/Simple_RL/Stimuli/Fractals_stims/B.jpg,/static/Simple_RL/Stimuli/Fractals_stims/A.jpg,1.0,80.0,20.0,80.0,20.0,B,A,0.0,125.722,0.222,,
93,,rl_choice_confirmation,,html-keyboard-response,93,120780,0.0-1.0-150.0-0.0,0,0,32,,,,,,21.0,,,,,,,,,,,,,,,,,,,,,,,127.0,1.278,,
94,,isi,,html-keyboard-response,94,120883,0.0-1.0-152.0,0,0,32,,,,,,,,,,,,,,,,,,,,,,,,,,,,,129.0,2.0,,
95,,feedback,,html-keyboard-response,95,121890,0.0-1.0-153.0-0.0,0,0,32,,,,,,21.0,,,,,,,,,,,,,,,,,,,,,,,130.0,1.0,,
96,,iti,,html-keyboard-response,96,121995,0.0-1.0-154.0,0,0,32,,,,,,,,,,,,,,,,,,,,,,,,,,,,,131.5,1.5,,
97,,rl_choice,,html-keyboard-response,97,122640,0.0-1.0-156.0,0,0,32,,643.0,,,50.0,22.0,22.0,1.0,easy,1000.0,1000.0,0.0,20.0,80.0,0.0,100.0,A,B,/static/Simple_RL/Stimuli/Fractals_stims/A.jpg,/static/Simple_RL/Stimuli/Fractals_stims/B.jpg,1.0,20.0,80.0,0.0,100.0,A,B,0.0,132.143,0.643,,
98,,rl_choice_confirmation,,html-keyboard-response,98,123500,0.0-1.0-157.0-0.0,0,0,32,,,,,,22.0,,,,,,,,,,,,,,,,,,,,,,,133.0,0.857,,
99,,isi,,html-keyboard-response,99,123602,0.0-1.0-159.0,0,0,32,,,,,,,,,,,,,,,,,,,,,,,,,,,,,134.0,1.0,,
100,,feedback,,html-keyboard-response,100,124607,0.0-1.0-160.0-0.0,0,0,32,,,,,,22.0,,,,,,,,,,,,,,,,,,,,,,,135.0,1.0,,
101,,iti,,html-keyboard-response,101,124712,0.0-1.0-161.0,0,0,32,,,,,,,,,,,,,,,,,,,,,,,,,,,,,136.0,1.0,,
102,,rl_choice,,html-keyboard-response,102,124769,0.0-1.0-163.0,0,0,32,,56.0,,,50.0,23.0,23.0,1.0,hard,2000.0,1000.0,1.0,60.0,40.0,80.0,60.0,D,C,/static/Simple_RL/Stimuli/Fractals_stims/D.jpg,/static/Simple_RL/Stimuli/Fractals_stims/C.jpg,1.0,60.0,40.0,80.0,60.0,D,C,0.0,136.056,0.056,,
103,,rl_choice_confirmation,,html-keyboard-response,103,126216,0.0-1.0-164.0-0.0,0,0,32,,,,,,23.0,,,,,,,,,,,,,,,,,,,,,,,137.5,1.444,,
104,,isi,,html-keyboard-response,104,126318,0.0-1.0-166.0,0,0,32,,,,,,,,,,,,,,,,,,,,,,,,,,,,,138.5,1.0,,
105,,feedback,,html-keyboard-response,105,127325,0.0-1.0-167.0-0.0,0,0,32,,,,,,23.0,,,,,,,,,,,,,,,,,,,,,,,139.5,1.0,,
106,,iti,,html-keyboard-response,106,127428,0.0-1.0-168.0,0,0,32,,,,,,,,,,,,,,,,,,,,,,,,,,,,,141.5,2.0,,
107,,rl_choice,,html-keyboard-response,107,127769,0.0-1.0-170.0,0,0,32,,339.0,,,50.0,24.0,24.0,1.0,hard,1000.0,3000.0,1.0,60.0,40.0,40.0,60.0,D,C,/static/Simple_RL/Stimuli/Fractals_stims/D.jpg,/static/Simple_RL/Stimuli/Fractals_stims/C.jpg,1.0,60.0,40.0,40.0,60.0,D,C,0.0,141.839,0.339,,
108,,rl_choice_confirmation,,html-keyboard-response,108,128931,0.0-1.0-171.0-0.0,0,0,32,,,,,,24.0,,,,,,,,,,,,,,,,,,,,,,,143.0,1.161,,
109,,isi,,html-keyboard-response,109,129037,0.0-1.0-173.0,0,0,32,,,,,,,,,,,,,,,,,,,,,,,,,,,,,146.0,3.0,,
110,,feedback,,html-keyboard-response,110,130041,0.0-1.0-174.0-0.0,0,0,32,,,,,,24.0,,,,,,,,,,,,,,,,,,,,,,,147.0,1.0,,
111,,iti,,html-keyboard-response,111,130146,0.0-1.0-175.0,0,0,32,,,,,,,,,,,,,,,,,,,,,,,,,,,,,148.0,1.0,,
112,,rl_choice,,html-keyboard-response,112,131280,0.0-1.0-177.0,0,0,32,,1134.0,,,50.0,25.0,25.0,1.0,hard,2000.0,1000.0,1.0,60.0,40.0,40.0,40.0,D,C,/static/Simple_RL/Stimuli/Fractals_stims/D.jpg,/static/Simple_RL/Stimuli/Fractals_stims/C.jpg,1.0,60.0,40.0,40.0,40.0,D,C,0.0,149.134,1.134,,
113,,rl_choice_confirmation,,html-keyboard-response,113,131650,0.0-1.0-178.0-0.0,0,0,32,,,,,,25.0,,,,,,,,,,,,,,,,,,,,,,,149.5,0.366,,
114,,isi,,html-keyboard-response,114,131753,0.0-1.0-180.0,0,0,32,,,,,,,,,,,,,,,,,,,,,,,,,,,,,150.5,1.0,,
115,,feedback,,html-keyboard-response,115,132759,0.0-1.0-181.0-0.0,0,0,32,,,,,,25.0,,,,,,,,,,,,,,,,,,,,,,,151.5,1.0,,
116,,iti,,html-keyboard-response,116,132864,0.0-1.0-182.0,0,0,32,,,,,,,,,,,,,,,,,,,,,,,,,,,,,153.5,2.0,,
117,,rl_choice,,html-keyboard-response,117,133444,0.0-1.0-184.0,0,0,32,,579.0,,,50.0,26.0,26.0,1.0,easy,1000.0,1000.0,1.0,80.0,20.0,100.0,20.0,B,A,/static/Simple_RL/Stimuli/Fractals_stims/B.jpg,/static/Simple_RL/Stimuli/Fractals_stims/A.jpg,1.0,80.0,20.0,100.0,20.0,B,A,0.0,154.079,0.579,,
118,,rl_choice_confirmation,,html-keyboard-response,118,134370,0.0-1.0-185.0-0.0,0,0,32,,,,,,26.0,,,,,,,,,,,,,,,,,,,,,,,155.0,0.921,,
119,,isi,,html-keyboard-response,119,134473,0.0-1.0-187.0,0,0,32,,,,,,,,,,,,,,,,,,,,,,,,,,,,,156.0,1.0,,
120,,feedback,,html-keyboard-response,120,135479,0.0-1.0-188.0-0.0,0,0,32,,,,,,26.0,,,,,,,,,,,,,,,,,,,,,,,157.0,1.0,,
121,,iti,,html-keyboard-response,121,135580,0.0-1.0-189.0,0,0,32,,,,,,,,,,,,,,,,,,,,,,,,,,,,,158.0,1.0,,
122,,rl_choice,,html-keyboard-response,122,135900,0.0-1.0-191.0,0,0,32,,318.0,,,50.0,27.0,27.0,1.0,hard,1000.0,1500.0,0.0,40.0,60.0,20.0,80.0,C,D,/static/Simple_RL/Stimuli/Fractals_stims/C.jpg,/static/Simple_RL/Stimuli/Fractals_stims/D.jpg,1.0,40.0,60.0,20.0,80.0,C,D,0.0,158.318,0.318,,
123,,rl_choice_confirmation,,html-keyboard-response,123,137088,0.0-1.0-192.0-0.0,0,0,32,,,,,,27.0,,,,,,,,,,,,,,,,,,,,,,,159.5,1.182,,
124,,isi,,html-keyboard-response,124,137191,0.0-1.0-194.0,0,0,32,,,,,,,,,,,,,,,,,,,,,,,,,,,,,161.0,1.5,,
125,,feedback,,html-keyboard-response,125,138197,0.0-1.0-195.0-0.0,0,0,32,,,,,,27.0,,,,,,,,,,,,,,,,,,,,,,,162.0,1.0,,
126,,iti,,html-keyboard-response,126,138301,0.0-1.0-196.0,0,0,32,,,,,,,,,,,,,,,,,,,,,,,,,,,,,163.0,1.0,,
127,,rl_choice,,html-keyboard-response,127,138764,0.0-1.0-198.0,0,0,32,,462.0,,,50.0,28.0,28.0,1.0,hard,1500.0,1500.0,0.0,40.0,60.0,40.0,40.0,C,D,/static/Simple_RL/Stimuli/Fractals_stims/C.jpg,/static/Simple_RL/Stimuli/Fractals_stims/D.jpg,1.0,40.0,60.0,40.0,40.0,C,D,0.0,163.462,0.462,,
128,,rl_choice_confirmation,,html-keyboard-response,128,139806,0.0-1.0-199.0-0.0,0,0,32,,,,,,28.0,,,,,,,,,,,,,,,,,,,,,,,164.5,1.038,,
129,,isi,,html-keyboard-response,129,139908,0.0-1.0-201.0,0,0,32,,,,,,,,,,,,,,,,,,,,,,,,,,,,,166.0,1.5,,
130,,feedback,,html-keyboard-response,130,140912,0.0-1.0-202.0-0.0,0,0,32,,,,,,28.0,,,,,,,,,,,,,,,,,,,,,,,167.0,1.0,,
131,,iti,,html-keyboard-response,131,141015,0.0-1.0-203.0,0,0,32,,,,,,,,,,,,,,,,,,,,,,,,,,,,,168.5,1.5,,
132,,rl_choice,,html-keyboard-response,132,141520,0.0-1.0-205.0,0,0,32,,503.0,,,50.0,29.0,29.0,1.0,easy,1000.0,1000.0,0.0,20.0,80.0,20.0,80.0,A,B,/static/Simple_RL/Stimuli/Fractals_stims/A.jpg,/static/Simple_RL/Stimuli/Fractals_stims/B.jpg,1.0,20.0,80.0,20.0,80.0,A,B,0.0,169.003,0.503,,
133,,rl_choice_confirmation,,html-keyboard-response,133,142518,0.0-1.0-206.0-0.0,0,0,32,,,,,,29.0,,,,,,,,,,,,,,,,,,,,,,,170.0,0.997,,
134,,isi,,html-keyboard-response,134,142623,0.0-1.0-208.0,0,0,32,,,,,,,,,,,,,,,,,,,,,,,,,,,,,171.0,1.0,,
135,,feedback,,html-keyboard-response,135,143628,0.0-1.0-209.0-0.0,0,0,32,,,,,,29.0,,,,,,,,,,,,,,,,,,,,,,,172.0,1.0,,
136,,iti,,html-keyboard-response,136,143735,0.0-1.0-210.0,0,0,32,,,,,,,,,,,,,,,,,,,,,,,,,,,,,173.0,1.0,,
137,,rl_choice,,html-keyboard-response,137,143998,0.0-1.0-212.0,0,0,32,,261.0,,,50.0,30.0,30.0,1.0,hard,1500.0,2000.0,1.0,60.0,40.0,80.0,60.0,D,C,/static/Simple_RL/Stimuli/Fractals_stims/D.jpg,/static/Simple_RL/Stimuli/Fractals_stims/C.jpg,1.0,60.0,40.0,80.0,60.0,D,C,0.0,173.261,0.261,,
138,,rl_choice_confirmation,,html-keyboard-response,138,145241,0.0-1.0-213.0-0.0,0,0,32,,,,,,30.0,,,,,,,,,,,,,,,,,,,,,,,174.5,1.239,,
139,,isi,,html-keyboard-response,139,145345,0.0-1.0-215.0,0,0,32,,,,,,,,,,,,,,,,,,,,,,,,,,,,,176.5,2.0,,
140,,feedback,,html-keyboard-response,140,146349,0.0-1.0-216.0-0.0,0,0,32,,,,,,30.0,,,,,,,,,,,,,,,,,,,,,,,177.5,1.0,,
141,,iti,,html-keyboard-response,141,146453,0.0-1.0-217.0,0,0,32,,,,,,,,,,,,,,,,,,,,,,,,,,,,,179.0,1.5,,
142,,rl_choice,,html-keyboard-response,142,146548,0.0-1.0-219.0,0,0,32,,93.0,,,50.0,31.0,31.0,1.0,easy,1000.0,1500.0,1.0,80.0,20.0,80.0,0.0,B,A,/static/Simple_RL/Stimuli/Fractals_stims/B.jpg,/static/Simple_RL/Stimuli/Fractals_stims/A.jpg,1.0,80.0,20.0,80.0,0.0,B,A,0.0,179.093,0.093,,
143,,rl_choice_confirmation,,html-keyboard-response,143,147956,0.0-1.0-220.0-0.0,0,0,32,,,,,,31.0,,,,,,,,,,,,,,,,,,,,,,,180.5,1.407,,
144,,isi,,html-keyboard-response,144,148057,0.0-1.0-222.0,0,0,32,,,,,,,,,,,,,,,,,,,,,,,,,,,,,182.0,1.5,,
145,,feedback,,html-keyboard-response,145,149064,0.0-1.0-223.0-0.0,0,0,32,,,,,,31.0,,,,,,,,,,,,,,,,,,,,,,,183.0,1.0,,
146,,iti,,html-keyboard-response,146,149168,0.0-1.0-224.0,0,0,32,,,,,,,,,,,,,,,,,,,,,,,,,,,,,184.0,1.0,,
147,,rl_choice,,html-keyboard-response,147,149256,0.0-1.0-226.0,0,0,32,,87.0,,,50.0,32.0,32.0,1.0,easy,1000.0,3500.0,1.0,80.0,20.0,60.0,20.0,B,A,/static/Simple_RL/Stimuli/Fractals_stims/B.jpg,/static/Simple_RL/Stimuli/Fractals_stims/A.jpg,1.0,80.0,20.0,60.0,20.0,B,A,0.0,184.087,0.087,,
148,,rl_choice_confirmation,,html-keyboard-response,148,150673,0.0-1.0-227.0-0.0,0,0,32,,,,,,32.0,,,,,,,,,,,,,,,,,,,,,,,185.5,1.413,,
149,,isi,,html-keyboard-response,149,150779,0.0-1.0-229.0,0,0,32,,,,,,,,,,,,,,,,,,,,,,,,,,,,,189.0,3.5,,
150,,feedback,,html-keyboard-response,150,151785,0.0-1.0-230.0-0.0,0,0,32,,,,,,32.0,,,,,,,,,,,,,,,,,,,,,,,190.0,1.0,,
151,,iti,,html-keyboard-response,151,151890,0.0-1.0-231.0,0,0,32,,,,,,,,,,,,,,,,,,,,,,,,,,,,,191.0,1.0,,
152,,rl_choice,,html-keyboard-response,152,153264,0.0-1.0-233.0,0,0,32,,1372.0,,,50.0,33.0,33.0,1.0,hard,2000.0,1500.0,1.0,60.0,40.0,40.0,20.0,D,C,/static/Simple_RL/Stimuli/Fractals_stims/D.jpg,/static/Simple_RL/Stimuli/Fractals_stims/C.jpg,1.0,60.0,40.0,40.0,20.0,D,C,0.0,192.372,1.372,,
153,,rl_choice_confirmation,,html-keyboard-response,153,153395,0.0-1.0-234.0-0.0,0,0,32,,,,,,33.0,,,,,,,,,,,,,,,,,,,,,,,192.5,0.128,,
154,,isi,,html-keyboard-response,154,153497,0.0-1.0-236.0,0,0,32,,,,,,,,,,,,,,,,,,,,,,,,,,,,,194.0,1.5,,
155,,feedback,,html-keyboard-response,155,154501,0.0-1.0-237.0-0.0,0,0,32,,,,,,33.0,,,,,,,,,,,,,,,,,,,,,,,195.0,1.0,,
156,,iti,,html-keyboard-response,156,154606,0.0-1.0-238.0,0,0,32,,,,,,,,,,,,,,,,,,,,,,,,,,,,,197.0,2.0,,
157,,rl_choice,,html-keyboard-response,157,154863,0.0-1.0-240.0,0,0,32,,256.0,,,50.0,34.0,34.0,1.0,hard,3000.0,1000.0,0.0,40.0,60.0,20.0,60.0,C,D,/static/Simple_RL/Stimuli/Fractals_stims/C.jpg,/static/Simple_RL/Stimuli/Fractals_stims/D.jpg,1.0,40.0,60.0,20.0,60.0,C,D,0.0,197.256,0.256,,
158,,rl_choice_confirmation,,html-keyboard-response,158,156109,0.0-1.0-241.0-0.0,0,0,32,,,,,,34.0,,,,,,,,,,,,,,,,,,,,,,,198.5,1.244,,
159,,isi,,html-keyboard-response,159,156210,0.0-1.0-243.0,0,0,32,,,,,,,,,,,,,,,,,,,,,,,,,,,,,199.5,1.0,,
160,,feedback,,html-keyboard-response,160,157214,0.0-1.0-244.0-0.0,0,0,32,,,,,,34.0,,,,,,,,,,,,,,,,,,,,,,,200.5,1.0,,
161,,iti,,html-keyboard-response,161,157320,0.0-1.0-245.0,0,0,32,,,,,,,,,,,,,,,,,,,,,,,,,,,,,203.5,3.0,,
162,,rl_choice,,html-keyboard-response,162,157347,0.0-1.0-247.0,0,0,32,,26.0,,,50.0,35.0,35.0,1.0,easy,1500.0,1000.0,1.0,80.0,20.0,80.0,20.0,B,A,/static/Simple_RL/Stimuli/Fractals_stims/B.jpg,/static/Simple_RL/Stimuli/Fractals_stims/A.jpg,1.0,80.0,20.0,80.0,20.0,B,A,0.0,203.526,0.026,,
163,,rl_choice_confirmation,,html-keyboard-response,163,158823,0.0-1.0-248.0-0.0,0,0,32,,,,,,35.0,,,,,,,,,,,,,,,,,,,,,,,205.0,1.474,,
164,,isi,,html-keyboard-response,164,158926,0.0-1.0-250.0,0,0,32,,,,,,,,,,,,,,,,,,,,,,,,,,,,,206.0,1.0,,
165,,feedback,,html-keyboard-response,165,159930,0.0-1.0-251.0-0.0,0,0,32,,,,,,35.0,,,,,,,,,,,,,,,,,,,,,,,207.0,1.0,,
166,,iti,,html-keyboard-response,166,160034,0.0-1.0-252.0,0,0,32,,,,,,,,,,,,,,,,,,,,,,,,,,,,,208.5,1.5,,
167,,rl_choice,,html-keyboard-response,167,160568,0.0-1.0-254.0,0,0,32,,533.0,,,50.0,36.0,36.0,1.0,easy,1500.0,2000.0,1.0,80.0,20.0,80.0,40.0,B,A,/static/Simple_RL/Stimuli/Fractals_stims/B.jpg,/static/Simple_RL/Stimuli/Fractals_stims/A.jpg,1.0,80.0,20.0,80.0,40.0,B,A,0.0,209.033,0.533,,
168,,rl_choice_confirmation,,html-keyboard-response,168,161537,0.0-1.0-255.0-0.0,0,0,32,,,,,,36.0,,,,,,,,,,,,,,,,,,,,,,,210.0,0.967,,
169,,isi,,html-keyboard-response,169,161640,0.0-1.0-257.0,0,0,32,,,,,,,,,,,,,,,,,,,,,,,,,,,,,212.0,2.0,,
170,,feedback,,html-keyboard-response,170,162645,0.0-1.0-258.0-0.0,0,0,32,,,,,,36.0,,,,,,,,,,,,,,,,,,,,,,,213.0,1.0,,
171,,iti,,html-keyboard-response,171,162747,0.0-1.0-259.0,0,0,32,,,,,,,,,,,,,,,,,,,,,,,,,,,,,214.5,1.5,,
172,,rl_choice,,html-keyboard-response,172,162772,0.0-1.0-261.0,0,0,32,,23.0,,,50.0,37.0,37.0,1.0,easy,2000.0,1000.0,1.0,80.0,20.0,60.0,40.0,B,A,/static/Simple_RL/Stimuli/Fractals_stims/B.jpg,/static/Simple_RL/Stimuli/Fractals_stims/A.jpg,1.0,80.0,20.0,60.0,40.0,B,A,0.0,214.523,0.023,,
173,,rl_choice_confirmation,,html-keyboard-response,173,164253,0.0-1.0-262.0-0.0,0,0,32,,,,,,37.0,,,,,,,,,,,,,,,,,,,,,,,216.0,1.477,,
174,,isi,,html-keyboard-response,174,164356,0.0-1.0-264.0,0,0,32,,,,,,,,,,,,,,,,,,,,,,,,,,,,,217.0,1.0,,
175,,feedback,,html-keyboard-response,175,165362,0.0-1.0-265.0-0.0,0,0,32,,,,,,37.0,,,,,,,,,,,,,,,,,,,,,,,218.0,1.0,,
176,,iti,,html-keyboard-response,176,165465,0.0-1.0-266.0,0,0,32,,,,,,,,,,,,,,,,,,,,,,,,,,,,,220.0,2.0,,
177,,rl_choice,,html-keyboard-response,177,165908,0.0-1.0-268.0,0,0,32,,441.0,,,50.0,38.0,38.0,1.0,easy,3500.0,1500.0,0.0,20.0,80.0,40.0,60.0,A,B,/static/Simple_RL/Stimuli/Fractals_stims/A.jpg,/static/Simple_RL/Stimuli/Fractals_stims/B.jpg,1.0,20.0,80.0,40.0,60.0,A,B,0.0,220.441,0.441,,
178,,rl_choice_confirmation,,html-keyboard-response,178,166973,0.0-1.0-269.0-0.0,0,0,32,,,,,,38.0,,,,,,,,,,,,,,,,,,,,,,,221.5,1.059,,
179,,isi,,html-keyboard-response,179,167078,0.0-1.0-271.0,0,0,32,,,,,,,,,,,,,,,,,,,,,,,,,,,,,223.0,1.5,,
180,,feedback,,html-keyboard-response,180,168082,0.0-1.0-272.0-0.0,0,0,32,,,,,,38.0,,,,,,,,,,,,,,,,,,,,,,,224.0,1.0,,
181,,iti,,html-keyboard-response,181,168188,0.0-1.0-273.0,0,0,32,,,,,,,,,,,,,,,,,,,,,,,,,,,,,227.5,3.5,,
182,,rl_choice,,html-keyboard-response,182,168248,0.0-1.0-275.0,0,0,32,,59.0,,,50.0,39.0,39.0,1.0,easy,1000.0,1000.0,1.0,80.0,20.0,60.0,20.0,B,A,/static/Simple_RL/Stimuli/Fractals_stims/B.jpg,/static/Simple_RL/Stimuli/Fractals_stims/A.jpg,1.0,80.0,20.0,60.0,20.0,B,A,0.0,227.559,0.059,,
183,,rl_choice_confirmation,,html-keyboard-response,183,169693,0.0-1.0-276.0-0.0,0,0,32,,,,,,39.0,,,,,,,,,,,,,,,,,,,,,,,229.0,1.441,,
184,,isi,,html-keyboard-response,184,169797,0.0-1.0-278.0,0,0,32,,,,,,,,,,,,,,,,,,,,,,,,,,,,,230.0,1.0,,
185,,feedback,,html-keyboard-response,185,170798,0.0-1.0-279.0-0.0,0,0,32,,,,,,39.0,,,,,,,,,,,,,,,,,,,,,,,231.0,1.0,,
186,,iti,,html-keyboard-response,186,170900,0.0-1.0-280.0,0,0,32,,,,,,,,,,,,,,,,,,,,,,,,,,,,,232.0,1.0,,
187,,block_over,,html-keyboard-response,187,171011,0.0-1.0-281.0-0.0,0,0,32,,101.0,,,50.0,39.0,,,,,,,,,,,,,,,,,,,,,,,,,,
188,,start_run,,html-keyboard-response,188,187078,0.0-1.0-281.0-1.0,0,0,32,,16067.0,,,84.0,,,,,,,,,,,,,,,,,,,,,,,,,,,
189,,rl_choice,,html-keyboard-response,189,187569,0.0-1.0-282.0,0,0,32,,490.0,,,50.0,40.0,40.0,2.0,hard,1000.0,2000.0,0.0,40.0,60.0,40.0,40.0,C,D,/static/Simple_RL/Stimuli/Fractals_stims/C.jpg,/static/Simple_RL/Stimuli/Fractals_stims/D.jpg,1.0,40.0,60.0,40.0,40.0,C,D,0.0,0.49,0.49,,
190,,rl_choice_confirmation,,html-keyboard-response,190,188586,0.0-1.0-283.0-0.0,0,0,32,,,,,,40.0,,,,,,,,,,,,,,,,,,,,,,,1.5,1.01,,
191,,isi,,html-keyboard-response,191,188691,0.0-1.0-285.0,0,0,32,,,,,,,,,,,,,,,,,,,,,,,,,,,,,3.5,2.0,,
192,,feedback,,html-keyboard-response,192,189695,0.0-1.0-286.0-0.0,0,0,32,,,,,,40.0,,,,,,,,,,,,,,,,,,,,,,,4.5,1.0,,
193,,iti,,html-keyboard-response,193,189796,0.0-1.0-287.0,0,0,32,,,,,,,,,,,,,,,,,,,,,,,,,,,,,5.5,1.0,,
194,,rl_choice,,html-keyboard-response,194,189949,0.0-1.0-289.0,0,0,32,,151.0,,,50.0,41.0,41.0,2.0,hard,1000.0,3000.0,1.0,60.0,40.0,40.0,60.0,D,C,/static/Simple_RL/Stimuli/Fractals_stims/D.jpg,/static/Simple_RL/Stimuli/Fractals_stims/C.jpg,1.0,60.0,40.0,40.0,60.0,D,C,0.0,5.651,0.151,,
195,,rl_choice_confirmation,,html-keyboard-response,195,191300,0.0-1.0-290.0-0.0,0,0,32,,,,,,41.0,,,,,,,,,,,,,,,,,,,,,,,7.0,1.349,,
196,,isi,,html-keyboard-response,196,191406,0.0-1.0-292.0,0,0,32,,,,,,,,,,,,,,,,,,,,,,,,,,,,,10.0,3.0,,
197,,feedback,,html-keyboard-response,197,192408,0.0-1.0-293.0-0.0,0,0,32,,,,,,41.0,,,,,,,,,,,,,,,,,,,,,,,11.0,1.0,,
198,,iti,,html-keyboard-response,198,192514,0.0-1.0-294.0,0,0,32,,,,,,,,,,,,,,,,,,,,,,,,,,,,,12.0,1.0,,
199,,rl_choice,,html-keyboard-response,199,192878,0.0-1.0-296.0,0,0,32,,363.0,,,50.0,42.0,42.0,2.0,hard,1000.0,1000.0,0.0,40.0,60.0,40.0,40.0,C,D,/static/Simple_RL/Stimuli/Fractals_stims/C.jpg,/static/Simple_RL/Stimuli/Fractals_stims/D.jpg,1.0,40.0,60.0,40.0,40.0,C,D,0.0,12.363,0.363,,
200,,rl_choice_confirmation,,html-keyboard-response,200,194016,0.0-1.0-297.0-0.0,0,0,32,,,,,,42.0,,,,,,,,,,,,,,,,,,,,,,,13.5,1.137,,
201,,isi,,html-keyboard-response,201,194118,0.0-1.0-299.0,0,0,32,,,,,,,,,,,,,,,,,,,,,,,,,,,,,14.5,1.0,,
202,,feedback,,html-keyboard-response,202,195123,0.0-1.0-300.0-0.0,0,0,32,,,,,,42.0,,,,,,,,,,,,,,,,,,,,,,,15.5,1.0,,
203,,iti,,html-keyboard-response,203,195228,0.0-1.0-301.0,0,0,32,,,,,,,,,,,,,,,,,,,,,,,,,,,,,16.5,1.0,,
204,,rl_choice,,html-keyboard-response,204,195262,0.0-1.0-303.0,0,0,32,,32.0,,,50.0,43.0,43.0,2.0,easy,1500.0,2000.0,0.0,20.0,80.0,0.0,60.0,A,B,/static/Simple_RL/Stimuli/Fractals_stims/A.jpg,/static/Simple_RL/Stimuli/Fractals_stims/B.jpg,1.0,20.0,80.0,0.0,60.0,A,B,0.0,16.532,0.032,,
205,,rl_choice_confirmation,,html-keyboard-response,205,196734,0.0-1.0-304.0-0.0,0,0,32,,,,,,43.0,,,,,,,,,,,,,,,,,,,,,,,18.0,1.468,,
206,,isi,,html-keyboard-response,206,196840,0.0-1.0-306.0,0,0,32,,,,,,,,,,,,,,,,,,,,,,,,,,,,,20.0,2.0,,
207,,feedback,,html-keyboard-response,207,197843,0.0-1.0-307.0-0.0,0,0,32,,,,,,43.0,,,,,,,,,,,,,,,,,,,,,,,21.0,1.0,,
208,,iti,,html-keyboard-response,208,197946,0.0-1.0-308.0,0,0,32,,,,,,,,,,,,,,,,,,,,,,,,,,,,,22.5,1.5,,
209,,rl_choice,,html-keyboard-response,209,198217,0.0-1.0-310.0,0,0,32,,271.0,,,50.0,44.0,44.0,2.0,hard,1000.0,1500.0,0.0,40.0,60.0,60.0,60.0,C,D,/static/Simple_RL/Stimuli/Fractals_stims/C.jpg,/static/Simple_RL/Stimuli/Fractals_stims/D.jpg,1.0,40.0,60.0,60.0,60.0,C,D,0.0,22.771,0.271,,
210,,rl_choice_confirmation,,html-keyboard-response,210,199448,0.0-1.0-311.0-0.0,0,0,32,,,,,,44.0,,,,,,,,,,,,,,,,,,,,,,,24.0,1.229,,
211,,isi,,html-keyboard-response,211,199550,0.0-1.0-313.0,0,0,32,,,,,,,,,,,,,,,,,,,,,,,,,,,,,25.5,1.5,,
212,,feedback,,html-keyboard-response,212,200556,0.0-1.0-314.0-0.0,0,0,32,,,,,,44.0,,,,,,,,,,,,,,,,,,,,,,,26.5,1.0,,
213,,iti,,html-keyboard-response,213,200662,0.0-1.0-315.0,0,0,32,,,,,,,,,,,,,,,,,,,,,,,,,,,,,27.5,1.0,,
214,,rl_choice,,html-keyboard-response,214,200969,0.0-1.0-317.0,0,0,32,,307.0,,,50.0,45.0,45.0,2.0,hard,2000.0,2000.0,0.0,40.0,60.0,40.0,60.0,C,D,/static/Simple_RL/Stimuli/Fractals_stims/C.jpg,/static/Simple_RL/Stimuli/Fractals_stims/D.jpg,1.0,40.0,60.0,40.0,60.0,C,D,0.0,27.807,0.307,,
215,,rl_choice_confirmation,,html-keyboard-response,215,202168,0.0-1.0-318.0-0.0,0,0,32,,,,,,45.0,,,,,,,,,,,,,,,,,,,,,,,29.0,1.193,,
216,,isi,,html-keyboard-response,216,202273,0.0-1.0-320.0,0,0,32,,,,,,,,,,,,,,,,,,,,,,,,,,,,,31.0,2.0,,
217,,feedback,,html-keyboard-response,217,203279,0.0-1.0-321.0-0.0,0,0,32,,,,,,45.0,,,,,,,,,,,,,,,,,,,,,,,32.0,1.0,,
218,,iti,,html-keyboard-response,218,203384,0.0-1.0-322.0,0,0,32,,,,,,,,,,,,,,,,,,,,,,,,,,,,,34.0,2.0,,
219,,rl_choice,,html-keyboard-response,219,203782,0.0-1.0-324.0,0,0,32,,397.0,,,50.0,46.0,46.0,2.0,hard,2000.0,2000.0,0.0,40.0,60.0,40.0,40.0,C,D,/static/Simple_RL/Stimuli/Fractals_stims/C.jpg,/static/Simple_RL/Stimuli/Fractals_stims/D.jpg,1.0,40.0,60.0,40.0,40.0,C,D,0.0,34.397,0.397,,
220,,rl_choice_confirmation,,html-keyboard-response,220,204890,0.0-1.0-325.0-0.0,0,0,32,,,,,,46.0,,,,,,,,,,,,,,,,,,,,,,,35.5,1.103,,
221,,isi,,html-keyboard-response,221,204995,0.0-1.0-327.0,0,0,32,,,,,,,,,,,,,,,,,,,,,,,,,,,,,37.5,2.0,,
222,,feedback,,html-keyboard-response,222,205997,0.0-1.0-328.0-0.0,0,0,32,,,,,,46.0,,,,,,,,,,,,,,,,,,,,,,,38.5,1.0,,
223,,iti,,html-keyboard-response,223,206099,0.0-1.0-329.0,0,0,32,,,,,,,,,,,,,,,,,,,,,,,,,,,,,40.5,2.0,,
224,,rl_choice,,html-keyboard-response,224,206889,0.0-1.0-331.0,0,0,32,,789.0,,,50.0,47.0,47.0,2.0,hard,1500.0,1500.0,1.0,60.0,40.0,80.0,20.0,D,C,/static/Simple_RL/Stimuli/Fractals_stims/D.jpg,/static/Simple_RL/Stimuli/Fractals_stims/C.jpg,1.0,60.0,40.0,80.0,20.0,D,C,0.0,41.289,0.789,,
225,,rl_choice_confirmation,,html-keyboard-response,225,207601,0.0-1.0-332.0-0.0,0,0,32,,,,,,47.0,,,,,,,,,,,,,,,,,,,,,,,42.0,0.711,,
226,,isi,,html-keyboard-response,226,207705,0.0-1.0-334.0,0,0,32,,,,,,,,,,,,,,,,,,,,,,,,,,,,,43.5,1.5,,
227,,feedback,,html-keyboard-response,227,208712,0.0-1.0-335.0-0.0,0,0,32,,,,,,47.0,,,,,,,,,,,,,,,,,,,,,,,44.5,1.0,,
228,,iti,,html-keyboard-response,228,208815,0.0-1.0-336.0,0,0,32,,,,,,,,,,,,,,,,,,,,,,,,,,,,,46.0,1.5,,
229,,rl_choice,,html-keyboard-response,229,209130,0.0-1.0-338.0,0,0,32,,314.0,,,50.0,48.0,48.0,2.0,easy,3500.0,1000.0,1.0,80.0,20.0,60.0,0.0,B,A,/static/Simple_RL/Stimuli/Fractals_stims/B.jpg,/static/Simple_RL/Stimuli/Fractals_stims/A.jpg,1.0,80.0,20.0,60.0,0.0,B,A,0.0,46.314,0.314,,
230,,rl_choice_confirmation,,html-keyboard-response,230,210322,0.0-1.0-339.0-0.0,0,0,32,,,,,,48.0,,,,,,,,,,,,,,,,,,,,,,,47.5,1.186,,
231,,isi,,html-keyboard-response,231,210426,0.0-1.0-341.0,0,0,32,,,,,,,,,,,,,,,,,,,,,,,,,,,,,48.5,1.0,,
232,,feedback,,html-keyboard-response,232,211431,0.0-1.0-342.0-0.0,0,0,32,,,,,,48.0,,,,,,,,,,,,,,,,,,,,,,,49.5,1.0,,
233,,iti,,html-keyboard-response,233,211534,0.0-1.0-343.0,0,0,32,,,,,,,,,,,,,,,,,,,,,,,,,,,,,53.0,3.5,,
234,,rl_choice,,html-keyboard-response,234,211845,0.0-1.0-345.0,0,0,32,,310.0,,,50.0,49.0,49.0,2.0,hard,1000.0,3500.0,1.0,60.0,40.0,80.0,20.0,D,C,/static/Simple_RL/Stimuli/Fractals_stims/D.jpg,/static/Simple_RL/Stimuli/Fractals_stims/C.jpg,1.0,60.0,40.0,80.0,20.0,D,C,0.0,53.31,0.31,,
235,,rl_choice_confirmation,,html-keyboard-response,235,213040,0.0-1.0-346.0-0.0,0,0,32,,,,,,49.0,,,,,,,,,,,,,,,,,,,,,,,54.5,1.19,,
236,,isi,,html-keyboard-response,236,213145,0.0-1.0-348.0,0,0,32,,,,,,,,,,,,,,,,,,,,,,,,,,,,,58.0,3.5,,
237,,feedback,,html-keyboard-response,237,214148,0.0-1.0-349.0-0.0,0,0,32,,,,,,49.0,,,,,,,,,,,,,,,,,,,,,,,59.0,1.0,,
238,,iti,,html-keyboard-response,238,214250,0.0-1.0-350.0,0,0,32,,,,,,,,,,,,,,,,,,,,,,,,,,,,,60.0,1.0,,
239,,rl_choice,,html-keyboard-response,239,214430,0.0-1.0-352.0,0,0,32,,178.0,,,50.0,50.0,50.0,2.0,easy,1000.0,1500.0,1.0,80.0,20.0,80.0,40.0,B,A,/static/Simple_RL/Stimuli/Fractals_stims/B.jpg,/static/Simple_RL/Stimuli/Fractals_stims/A.jpg,1.0,80.0,20.0,80.0,40.0,B,A,0.0,60.178,0.178,,
240,,rl_choice_confirmation,,html-keyboard-response,240,215754,0.0-1.0-353.0-0.0,0,0,32,,,,,,50.0,,,,,,,,,,,,,,,,,,,,,,,61.5,1.322,,
241,,isi,,html-keyboard-response,241,215858,0.0-1.0-355.0,0,0,32,,,,,,,,,,,,,,,,,,,,,,,,,,,,,63.0,1.5,,
242,,feedback,,html-keyboard-response,242,216864,0.0-1.0-356.0-0.0,0,0,32,,,,,,50.0,,,,,,,,,,,,,,,,,,,,,,,64.0,1.0,,
243,,iti,,html-keyboard-response,243,216969,0.0-1.0-357.0,0,0,32,,,,,,,,,,,,,,,,,,,,,,,,,,,,,65.0,1.0,,
244,,rl_choice,,html-keyboard-response,244,217001,0.0-1.0-359.0,0,0,32,,31.0,,,50.0,51.0,51.0,2.0,easy,1000.0,2000.0,0.0,20.0,80.0,0.0,100.0,A,B,/static/Simple_RL/Stimuli/Fractals_stims/A.jpg,/static/Simple_RL/Stimuli/Fractals_stims/B.jpg,1.0,20.0,80.0,0.0,100.0,A,B,0.0,65.031,0.031,,
245,,rl_choice_confirmation,,html-keyboard-response,245,218476,0.0-1.0-360.0-0.0,0,0,32,,,,,,51.0,,,,,,,,,,,,,,,,,,,,,,,66.5,1.469,,
246,,isi,,html-keyboard-response,246,218581,0.0-1.0-362.0,0,0,32,,,,,,,,,,,,,,,,,,,,,,,,,,,,,68.5,2.0,,
247,,feedback,,html-keyboard-response,247,219589,0.0-1.0-363.0-0.0,0,0,32,,,,,,51.0,,,,,,,,,,,,,,,,,,,,,,,69.5,1.0,,
248,,iti,,html-keyboard-response,248,219690,0.0-1.0-364.0,0,0,32,,,,,,,,,,,,,,,,,,,,,,,,,,,,,70.5,1.0,,
249,,rl_choice,,html-keyboard-response,249,220015,0.0-1.0-366.0,0,0,32,,323.0,,,50.0,52.0,52.0,2.0,easy,3000.0,1500.0,0.0,20.0,80.0,40.0,80.0,A,B,/static/Simple_RL/Stimuli/Fractals_stims/A.jpg,/static/Simple_RL/Stimuli/Fractals_stims/B.jpg,1.0,20.0,80.0,40.0,80.0,A,B,0.0,70.823,0.323,,
250,,rl_choice_confirmation,,html-keyboard-response,250,221198,0.0-1.0-367.0-0.0,0,0,32,,,,,,52.0,,,,,,,,,,,,,,,,,,,,,,,72.0,1.177,,
251,,isi,,html-keyboard-response,251,221301,0.0-1.0-369.0,0,0,32,,,,,,,,,,,,,,,,,,,,,,,,,,,,,73.5,1.5,,
252,,feedback,,html-keyboard-response,252,222310,0.0-1.0-370.0-0.0,0,0,32,,,,,,52.0,,,,,,,,,,,,,,,,,,,,,,,74.5,1.0,,
253,,iti,,html-keyboard-response,253,222415,0.0-1.0-371.0,0,0,32,,,,,,,,,,,,,,,,,,,,,,,,,,,,,77.5,3.0,,
254,,rl_choice,,html-keyboard-response,254,222684,0.0-1.0-373.0,0,0,32,,267.0,,,50.0,53.0,53.0,2.0,hard,2000.0,1000.0,1.0,60.0,40.0,60.0,40.0,D,C,/static/Simple_RL/Stimuli/Fractals_stims/D.jpg,/static/Simple_RL/Stimuli/Fractals_stims/C.jpg,1.0,60.0,40.0,60.0,40.0,D,C,0.0,77.767,0.267,,
255,,rl_choice_confirmation,,html-keyboard-response,255,223918,0.0-1.0-374.0-0.0,0,0,32,,,,,,53.0,,,,,,,,,,,,,,,,,,,,,,,79.0,1.233,,
256,,isi,,html-keyboard-response,256,224022,0.0-1.0-376.0,0,0,32,,,,,,,,,,,,,,,,,,,,,,,,,,,,,80.0,1.0,,
257,,feedback,,html-keyboard-response,257,225028,0.0-1.0-377.0-0.0,0,0,32,,,,,,53.0,,,,,,,,,,,,,,,,,,,,,,,81.0,1.0,,
258,,iti,,html-keyboard-response,258,225134,0.0-1.0-378.0,0,0,32,,,,,,,,,,,,,,,,,,,,,,,,,,,,,83.0,2.0,,
259,,rl_choice,,html-keyboard-response,259,225170,0.0-1.0-380.0,0,0,32,,34.0,,,50.0,54.0,54.0,2.0,easy,2000.0,1500.0,0.0,20.0,80.0,0.0,100.0,A,B,/static/Simple_RL/Stimuli/Fractals_stims/A.jpg,/static/Simple_RL/Stimuli/Fractals_stims/B.jpg,1.0,20.0,80.0,0.0,100.0,A,B,0.0,83.034,0.034,,
260,,rl_choice_confirmation,,html-keyboard-response,260,226642,0.0-1.0-381.0-0.0,0,0,32,,,,,,54.0,,,,,,,,,,,,,,,,,,,,,,,84.5,1.466,,
261,,isi,,html-keyboard-response,261,226747,0.0-1.0-383.0,0,0,32,,,,,,,,,,,,,,,,,,,,,,,,,,,,,86.0,1.5,,
262,,feedback,,html-keyboard-response,262,227751,0.0-1.0-384.0-0.0,0,0,32,,,,,,54.0,,,,,,,,,,,,,,,,,,,,,,,87.0,1.0,,
263,,iti,,html-keyboard-response,263,227855,0.0-1.0-385.0,0,0,32,,,,,,,,,,,,,,,,,,,,,,,,,,,,,89.0,2.0,,
264,,rl_choice,,html-keyboard-response,264,228154,0.0-1.0-387.0,0,0,32,,297.0,,,50.0,55.0,55.0,2.0,easy,1000.0,1000.0,0.0,20.0,80.0,40.0,100.0,A,B,/static/Simple_RL/Stimuli/Fractals_stims/A.jpg,/static/Simple_RL/Stimuli/Fractals_stims/B.jpg,1.0,20.0,80.0,40.0,100.0,A,B,0.0,89.297,0.297,,
265,,rl_choice_confirmation,,html-keyboard-response,265,229363,0.0-1.0-388.0-0.0,0,0,32,,,,,,55.0,,,,,,,,,,,,,,,,,,,,,,,90.5,1.203,,
266,,isi,,html-keyboard-response,266,229466,0.0-1.0-390.0,0,0,32,,,,,,,,,,,,,,,,,,,,,,,,,,,,,91.5,1.0,,
267,,feedback,,html-keyboard-response,267,230471,0.0-1.0-391.0-0.0,0,0,32,,,,,,55.0,,,,,,,,,,,,,,,,,,,,,,,92.5,1.0,,
268,,iti,,html-keyboard-response,268,230574,0.0-1.0-392.0,0,0,32,,,,,,,,,,,,,,,,,,,,,,,,,,,,,93.5,1.0,,
269,,rl_choice,,html-keyboard-response,269,230889,0.0-1.0-394.0,0,0,32,,313.0,,,50.0,56.0,56.0,2.0,hard,2000.0,1000.0,1.0,60.0,40.0,60.0,20.0,D,C,/static/Simple_RL/Stimuli/Fractals_stims/D.jpg,/static/Simple_RL/Stimuli/Fractals_stims/C.jpg,1.0,60.0,40.0,60.0,20.0,D,C,0.0,93.813,0.313,,
270,,rl_choice_confirmation,,html-keyboard-response,270,232081,0.0-1.0-395.0-0.0,0,0,32,,,,,,56.0,,,,,,,,,,,,,,,,,,,,,,,95.0,1.187,,
271,,isi,,html-keyboard-response,271,232185,0.0-1.0-397.0,0,0,32,,,,,,,,,,,,,,,,,,,,,,,,,,,,,96.0,1.0,,
272,,feedback,,html-keyboard-response,272,233190,0.0-1.0-398.0-0.0,0,0,32,,,,,,56.0,,,,,,,,,,,,,,,,,,,,,,,97.0,1.0,,
273,,iti,,html-keyboard-response,273,233294,0.0-1.0-399.0,0,0,32,,,,,,,,,,,,,,,,,,,,,,,,,,,,,99.0,2.0,,
274,,rl_choice,,html-keyboard-response,274,233601,0.0-1.0-401.0,0,0,32,,305.0,,,50.0,57.0,57.0,2.0,easy,1000.0,2000.0,1.0,80.0,20.0,80.0,0.0,B,A,/static/Simple_RL/Stimuli/Fractals_stims/B.jpg,/static/Simple_RL/Stimuli/Fractals_stims/A.jpg,1.0,80.0,20.0,80.0,0.0,B,A,0.0,99.305,0.305,,
275,,rl_choice_confirmation,,html-keyboard-response,275,234798,0.0-1.0-402.0-0.0,0,0,32,,,,,,57.0,,,,,,,,,,,,,,,,,,,,,,,100.5,1.195,,
276,,isi,,html-keyboard-response,276,234899,0.0-1.0-404.0,0,0,32,,,,,,,,,,,,,,,,,,,,,,,,,,,,,102.5,2.0,,
277,,feedback,,html-keyboard-response,277,235905,0.0-1.0-405.0-0.0,0,0,32,,,,,,57.0,,,,,,,,,,,,,,,,,,,,,,,103.5,1.0,,
278,,iti,,html-keyboard-response,278,236009,0.0-1.0-406.0,0,0,32,,,,,,,,,,,,,,,,,,,,,,,,,,,,,104.5,1.0,,
279,,rl_choice,,html-keyboard-response,279,236063,0.0-1.0-408.0,0,0,32,,53.0,,,50.0,58.0,58.0,2.0,hard,1000.0,1500.0,1.0,60.0,40.0,60.0,60.0,D,C,/static/Simple_RL/Stimuli/Fractals_stims/D.jpg,/static/Simple_RL/Stimuli/Fractals_stims/C.jpg,1.0,60.0,40.0,60.0,60.0,D,C,0.0,104.553,0.053,,
280,,rl_choice_confirmation,,html-keyboard-response,280,237514,0.0-1.0-409.0-0.0,0,0,32,,,,,,58.0,,,,,,,,,,,,,,,,,,,,,,,106.0,1.447,,
281,,isi,,html-keyboard-response,281,237615,0.0-1.0-411.0,0,0,32,,,,,,,,,,,,,,,,,,,,,,,,,,,,,107.5,1.5,,
282,,feedback,,html-keyboard-response,282,238622,0.0-1.0-412.0-0.0,0,0,32,,,,,,58.0,,,,,,,,,,,,,,,,,,,,,,,108.5,1.0,,
283,,iti,,html-keyboard-response,283,238727,0.0-1.0-413.0,0,0,32,,,,,,,,,,,,,,,,,,,,,,,,,,,,,109.5,1.0,,
284,,rl_choice,,html-keyboard-response,284,239146,0.0-1.0-415.0,0,0,32,,418.0,,,50.0,59.0,59.0,2.0,easy,1500.0,3000.0,1.0,80.0,20.0,80.0,40.0,B,A,/static/Simple_RL/Stimuli/Fractals_stims/B.jpg,/static/Simple_RL/Stimuli/Fractals_stims/A.jpg,1.0,80.0,20.0,80.0,40.0,B,A,0.0,109.918,0.418,,
285,,rl_choice_confirmation,,html-keyboard-response,285,240234,0.0-1.0-416.0-0.0,0,0,32,,,,,,59.0,,,,,,,,,,,,,,,,,,,,,,,111.0,1.082,,
286,,isi,,html-keyboard-response,286,240337,0.0-1.0-418.0,0,0,32,,,,,,,,,,,,,,,,,,,,,,,,,,,,,114.0,3.0,,
287,,feedback,,html-keyboard-response,287,241343,0.0-1.0-419.0-0.0,0,0,32,,,,,,59.0,,,,,,,,,,,,,,,,,,,,,,,115.0,1.0,,
288,,iti,,html-keyboard-response,288,241449,0.0-1.0-420.0,0,0,32,,,,,,,,,,,,,,,,,,,,,,,,,,,,,116.5,1.5,,
289,,rl_choice,,html-keyboard-response,289,241739,0.0-1.0-422.0,0,0,32,,289.0,,,50.0,60.0,60.0,2.0,hard,1500.0,2000.0,0.0,40.0,60.0,40.0,80.0,C,D,/static/Simple_RL/Stimuli/Fractals_stims/C.jpg,/static/Simple_RL/Stimuli/Fractals_stims/D.jpg,1.0,40.0,60.0,40.0,80.0,C,D,0.0,116.789,0.289,,
290,,rl_choice_confirmation,,html-keyboard-response,290,242956,0.0-1.0-423.0-0.0,0,0,32,,,,,,60.0,,,,,,,,,,,,,,,,,,,,,,,118.0,1.211,,
291,,isi,,html-keyboard-response,291,243062,0.0-1.0-425.0,0,0,32,,,,,,,,,,,,,,,,,,,,,,,,,,,,,120.0,2.0,,
292,,feedback,,html-keyboard-response,292,244068,0.0-1.0-426.0-0.0,0,0,32,,,,,,60.0,,,,,,,,,,,,,,,,,,,,,,,121.0,1.0,,
293,,iti,,html-keyboard-response,293,244173,0.0-1.0-427.0,0,0,32,,,,,,,,,,,,,,,,,,,,,,,,,,,,,122.5,1.5,,
294,,rl_choice,,html-keyboard-response,294,244463,0.0-1.0-429.0,0,0,32,,288.0,,,50.0,61.0,61.0,2.0,hard,1000.0,1000.0,1.0,60.0,40.0,40.0,40.0,D,C,/static/Simple_RL/Stimuli/Fractals_stims/D.jpg,/static/Simple_RL/Stimuli/Fractals_stims/C.jpg,1.0,60.0,40.0,40.0,40.0,D,C,0.0,122.788,0.288,,
295,,rl_choice_confirmation,,html-keyboard-response,295,245679,0.0-1.0-430.0-0.0,0,0,32,,,,,,61.0,,,,,,,,,,,,,,,,,,,,,,,124.0,1.212,,
296,,isi,,html-keyboard-response,296,245781,0.0-1.0-432.0,0,0,32,,,,,,,,,,,,,,,,,,,,,,,,,,,,,125.0,1.0,,
297,,feedback,,html-keyboard-response,297,246788,0.0-1.0-433.0-0.0,0,0,32,,,,,,61.0,,,,,,,,,,,,,,,,,,,,,,,126.0,1.0,,
298,,iti,,html-keyboard-response,298,246890,0.0-1.0-434.0,0,0,32,,,,,,,,,,,,,,,,,,,,,,,,,,,,,127.0,1.0,,
299,,rl_choice,,html-keyboard-response,299,247245,0.0-1.0-436.0,0,0,32,,354.0,,,50.0,62.0,62.0,2.0,easy,3000.0,1500.0,0.0,20.0,80.0,20.0,80.0,A,B,/static/Simple_RL/Stimuli/Fractals_stims/A.jpg,/static/Simple_RL/Stimuli/Fractals_stims/B.jpg,1.0,20.0,80.0,20.0,80.0,A,B,0.0,127.354,0.354,,
300,,rl_choice_confirmation,,html-keyboard-response,300,248397,0.0-1.0-437.0-0.0,0,0,32,,,,,,62.0,,,,,,,,,,,,,,,,,,,,,,,128.5,1.146,,
301,,isi,,html-keyboard-response,301,248503,0.0-1.0-439.0,0,0,32,,,,,,,,,,,,,,,,,,,,,,,,,,,,,130.0,1.5,,
302,,feedback,,html-keyboard-response,302,249507,0.0-1.0-440.0-0.0,0,0,32,,,,,,62.0,,,,,,,,,,,,,,,,,,,,,,,131.0,1.0,,
303,,iti,,html-keyboard-response,303,249612,0.0-1.0-441.0,0,0,32,,,,,,,,,,,,,,,,,,,,,,,,,,,,,134.0,3.0,,
304,,rl_choice,,html-keyboard-response,304,249681,0.0-1.0-443.0,0,0,32,,68.0,,,50.0,63.0,63.0,2.0,hard,1000.0,1500.0,1.0,60.0,40.0,60.0,40.0,D,C,/static/Simple_RL/Stimuli/Fractals_stims/D.jpg,/static/Simple_RL/Stimuli/Fractals_stims/C.jpg,1.0,60.0,40.0,60.0,40.0,D,C,0.0,134.068,0.068,,
305,,rl_choice_confirmation,,html-keyboard-response,305,251119,0.0-1.0-444.0-0.0,0,0,32,,,,,,63.0,,,,,,,,,,,,,,,,,,,,,,,135.5,1.432,,
306,,isi,,html-keyboard-response,306,251223,0.0-1.0-446.0,0,0,32,,,,,,,,,,,,,,,,,,,,,,,,,,,,,137.0,1.5,,
307,,feedback,,html-keyboard-response,307,252229,0.0-1.0-447.0-0.0,0,0,32,,,,,,63.0,,,,,,,,,,,,,,,,,,,,,,,138.0,1.0,,
308,,iti,,html-keyboard-response,308,252334,0.0-1.0-448.0,0,0,32,,,,,,,,,,,,,,,,,,,,,,,,,,,,,139.0,1.0,,
309,,rl_choice,,html-keyboard-response,309,252449,0.0-1.0-450.0,0,0,32,,113.0,,,50.0,64.0,64.0,2.0,hard,3500.0,1000.0,0.0,40.0,60.0,60.0,80.0,C,D,/static/Simple_RL/Stimuli/Fractals_stims/C.jpg,/static/Simple_RL/Stimuli/Fractals_stims/D.jpg,1.0,40.0,60.0,60.0,80.0,C,D,0.0,139.113,0.113,,
310,,rl_choice_confirmation,,html-keyboard-response,310,253840,0.0-1.0-451.0-0.0,0,0,32,,,,,,64.0,,,,,,,,,,,,,,,,,,,,,,,140.5,1.387,,
311,,isi,,html-keyboard-response,311,253945,0.0-1.0-453.0,0,0,32,,,,,,,,,,,,,,,,,,,,,,,,,,,,,141.5,1.0,,
312,,feedback,,html-keyboard-response,312,254947,0.0-1.0-454.0-0.0,0,0,32,,,,,,64.0,,,,,,,,,,,,,,,,,,,,,,,142.5,1.0,,
313,,iti,,html-keyboard-response,313,255052,0.0-1.0-455.0,0,0,32,,,,,,,,,,,,,,,,,,,,,,,,,,,,,146.0,3.5,,
314,,rl_choice,,html-keyboard-response,314,255090,0.0-1.0-457.0,0,0,32,,37.0,,,50.0,65.0,65.0,2.0,easy,1500.0,1000.0,1.0,80.0,20.0,100.0,40.0,B,A,/static/Simple_RL/Stimuli/Fractals_stims/B.jpg,/static/Simple_RL/Stimuli/Fractals_stims/A.jpg,1.0,80.0,20.0,100.0,40.0,B,A,0.0,146.037,0.037,,
315,,rl_choice_confirmation,,html-keyboard-response,315,256559,0.0-1.0-458.0-0.0,0,0,32,,,,,,65.0,,,,,,,,,,,,,,,,,,,,,,,147.5,1.463,,
316,,isi,,html-keyboard-response,316,256664,0.0-1.0-460.0,0,0,32,,,,,,,,,,,,,,,,,,,,,,,,,,,,,148.5,1.0,,
317,,feedback,,html-keyboard-response,317,257669,0.0-1.0-461.0-0.0,0,0,32,,,,,,65.0,,,,,,,,,,,,,,,,,,,,,,,149.5,1.0,,
318,,iti,,html-keyboard-response,318,257775,0.0-1.0-462.0,0,0,32,,,,,,,,,,,,,,,,,,,,,,,,,,,,,151.0,1.5,,
319,,rl_choice,,html-keyboard-response,319,258081,0.0-1.0-464.0,0,0,32,,304.0,,,50.0,66.0,66.0,2.0,hard,1500.0,3000.0,1.0,60.0,40.0,60.0,40.0,D,C,/static/Simple_RL/Stimuli/Fractals_stims/D.jpg,/static/Simple_RL/Stimuli/Fractals_stims/C.jpg,1.0,60.0,40.0,60.0,40.0,D,C,0.0,151.304,0.304,,
320,,rl_choice_confirmation,,html-keyboard-response,320,259281,0.0-1.0-465.0-0.0,0,0,32,,,,,,66.0,,,,,,,,,,,,,,,,,,,,,,,152.5,1.196,,
321,,isi,,html-keyboard-response,321,259385,0.0-1.0-467.0,0,0,32,,,,,,,,,,,,,,,,,,,,,,,,,,,,,155.5,3.0,,
322,,feedback,,html-keyboard-response,322,260387,0.0-1.0-468.0-0.0,0,0,32,,,,,,66.0,,,,,,,,,,,,,,,,,,,,,,,156.5,1.0,,
323,,iti,,html-keyboard-response,323,260489,0.0-1.0-469.0,0,0,32,,,,,,,,,,,,,,,,,,,,,,,,,,,,,158.0,1.5,,
324,,rl_choice,,html-keyboard-response,324,261033,0.0-1.0-471.0,0,0,32,,543.0,,,50.0,67.0,67.0,2.0,hard,1500.0,1500.0,0.0,40.0,60.0,20.0,80.0,C,D,/static/Simple_RL/Stimuli/Fractals_stims/C.jpg,/static/Simple_RL/Stimuli/Fractals_stims/D.jpg,1.0,40.0,60.0,20.0,80.0,C,D,0.0,158.543,0.543,,
325,,rl_choice_confirmation,,html-keyboard-response,325,261995,0.0-1.0-472.0-0.0,0,0,32,,,,,,67.0,,,,,,,,,,,,,,,,,,,,,,,159.5,0.957,,
326,,isi,,html-keyboard-response,326,262097,0.0-1.0-474.0,0,0,32,,,,,,,,,,,,,,,,,,,,,,,,,,,,,161.0,1.5,,
327,,feedback,,html-keyboard-response,327,263103,0.0-1.0-475.0-0.0,0,0,32,,,,,,67.0,,,,,,,,,,,,,,,,,,,,,,,162.0,1.0,,
328,,iti,,html-keyboard-response,328,263204,0.0-1.0-476.0,0,0,32,,,,,,,,,,,,,,,,,,,,,,,,,,,,,163.5,1.5,,
329,,rl_choice,,html-keyboard-response,329,263217,0.0-1.0-478.0,0,0,32,,12.0,,,50.0,68.0,68.0,2.0,hard,3000.0,1000.0,1.0,60.0,40.0,60.0,40.0,D,C,/static/Simple_RL/Stimuli/Fractals_stims/D.jpg,/static/Simple_RL/Stimuli/Fractals_stims/C.jpg,1.0,60.0,40.0,60.0,40.0,D,C,0.0,163.512,0.012,,
330,,rl_choice_confirmation,,html-keyboard-response,330,264707,0.0-1.0-479.0-0.0,0,0,32,,,,,,68.0,,,,,,,,,,,,,,,,,,,,,,,165.0,1.488,,
331,,isi,,html-keyboard-response,331,264812,0.0-1.0-481.0,0,0,32,,,,,,,,,,,,,,,,,,,,,,,,,,,,,166.0,1.0,,
332,,feedback,,html-keyboard-response,332,265815,0.0-1.0-482.0-0.0,0,0,32,,,,,,68.0,,,,,,,,,,,,,,,,,,,,,,,167.0,1.0,,
333,,iti,,html-keyboard-response,333,265918,0.0-1.0-483.0,0,0,32,,,,,,,,,,,,,,,,,,,,,,,,,,,,,170.0,3.0,,
334,,rl_choice,,html-keyboard-response,334,266139,0.0-1.0-485.0,0,0,32,,219.0,,,50.0,69.0,69.0,2.0,easy,1000.0,1000.0,0.0,20.0,80.0,40.0,80.0,A,B,/static/Simple_RL/Stimuli/Fractals_stims/A.jpg,/static/Simple_RL/Stimuli/Fractals_stims/B.jpg,1.0,20.0,80.0,40.0,80.0,A,B,0.0,170.219,0.219,,
335,,rl_choice_confirmation,,html-keyboard-response,335,267426,0.0-1.0-486.0-0.0,0,0,32,,,,,,69.0,,,,,,,,,,,,,,,,,,,,,,,171.5,1.281,,
336,,isi,,html-keyboard-response,336,267531,0.0-1.0-488.0,0,0,32,,,,,,,,,,,,,,,,,,,,,,,,,,,,,172.5,1.0,,
337,,feedback,,html-keyboard-response,337,268533,0.0-1.0-489.0-0.0,0,0,32,,,,,,69.0,,,,,,,,,,,,,,,,,,,,,,,173.5,1.0,,
338,,iti,,html-keyboard-response,338,268634,0.0-1.0-490.0,0,0,32,,,,,,,,,,,,,,,,,,,,,,,,,,,,,174.5,1.0,,
339,,rl_choice,,html-keyboard-response,339,268782,0.0-1.0-492.0,0,0,32,,146.0,,,50.0,70.0,70.0,2.0,easy,1500.0,1000.0,1.0,80.0,20.0,80.0,20.0,B,A,/static/Simple_RL/Stimuli/Fractals_stims/B.jpg,/static/Simple_RL/Stimuli/Fractals_stims/A.jpg,1.0,80.0,20.0,80.0,20.0,B,A,0.0,174.646,0.146,,
340,,rl_choice_confirmation,,html-keyboard-response,340,270140,0.0-1.0-493.0-0.0,0,0,32,,,,,,70.0,,,,,,,,,,,,,,,,,,,,,,,176.0,1.354,,
341,,isi,,html-keyboard-response,341,270245,0.0-1.0-495.0,0,0,32,,,,,,,,,,,,,,,,,,,,,,,,,,,,,177.0,1.0,,
342,,feedback,,html-keyboard-response,342,271247,0.0-1.0-496.0-0.0,0,0,32,,,,,,70.0,,,,,,,,,,,,,,,,,,,,,,,178.0,1.0,,
343,,iti,,html-keyboard-response,343,271348,0.0-1.0-497.0,0,0,32,,,,,,,,,,,,,,,,,,,,,,,,,,,,,179.5,1.5,,
344,,rl_choice,,html-keyboard-response,344,271546,0.0-1.0-499.0,0,0,32,,197.0,,,50.0,71.0,71.0,2.0,easy,1500.0,1000.0,0.0,20.0,80.0,40.0,60.0,A,B,/static/Simple_RL/Stimuli/Fractals_stims/A.jpg,/static/Simple_RL/Stimuli/Fractals_stims/B.jpg,1.0,20.0,80.0,40.0,60.0,A,B,0.0,179.697,0.197,,
345,,rl_choice_confirmation,,html-keyboard-response,345,272852,0.0-1.0-500.0-0.0,0,0,32,,,,,,71.0,,,,,,,,,,,,,,,,,,,,,,,181.0,1.303,,
346,,isi,,html-keyboard-response,346,272956,0.0-1.0-502.0,0,0,32,,,,,,,,,,,,,,,,,,,,,,,,,,,,,182.0,1.0,,
347,,feedback,,html-keyboard-response,347,273962,0.0-1.0-503.0-0.0,0,0,32,,,,,,71.0,,,,,,,,,,,,,,,,,,,,,,,183.0,1.0,,
348,,iti,,html-keyboard-response,348,274067,0.0-1.0-504.0,0,0,32,,,,,,,,,,,,,,,,,,,,,,,,,,,,,184.5,1.5,,
349,,rl_choice,,html-keyboard-response,349,274215,0.0-1.0-506.0,0,0,32,,148.0,,,50.0,72.0,72.0,2.0,easy,2000.0,3000.0,0.0,20.0,80.0,20.0,100.0,A,B,/static/Simple_RL/Stimuli/Fractals_stims/A.jpg,/static/Simple_RL/Stimuli/Fractals_stims/B.jpg,1.0,20.0,80.0,20.0,100.0,A,B,0.0,184.648,0.148,,
350,,rl_choice_confirmation,,html-keyboard-response,350,275573,0.0-1.0-507.0-0.0,0,0,32,,,,,,72.0,,,,,,,,,,,,,,,,,,,,,,,186.0,1.352,,
351,,isi,,html-keyboard-response,351,275678,0.0-1.0-509.0,0,0,32,,,,,,,,,,,,,,,,,,,,,,,,,,,,,189.0,3.0,,
352,,feedback,,html-keyboard-response,352,276683,0.0-1.0-510.0-0.0,0,0,32,,,,,,72.0,,,,,,,,,,,,,,,,,,,,,,,190.0,1.0,,
353,,iti,,html-keyboard-response,353,276788,0.0-1.0-511.0,0,0,32,,,,,,,,,,,,,,,,,,,,,,,,,,,,,192.0,2.0,,
354,,rl_choice,,html-keyboard-response,354,276987,0.0-1.0-513.0,0,0,32,,197.0,,,50.0,73.0,73.0,2.0,easy,1000.0,3500.0,0.0,20.0,80.0,40.0,60.0,A,B,/static/Simple_RL/Stimuli/Fractals_stims/A.jpg,/static/Simple_RL/Stimuli/Fractals_stims/B.jpg,1.0,20.0,80.0,40.0,60.0,A,B,0.0,192.197,0.197,,
355,,rl_choice_confirmation,,html-keyboard-response,355,278295,0.0-1.0-514.0-0.0,0,0,32,,,,,,73.0,,,,,,,,,,,,,,,,,,,,,,,193.5,1.303,,
356,,isi,,html-keyboard-response,356,278400,0.0-1.0-516.0,0,0,32,,,,,,,,,,,,,,,,,,,,,,,,,,,,,197.0,3.5,,
357,,feedback,,html-keyboard-response,357,279407,0.0-1.0-517.0-0.0,0,0,32,,,,,,73.0,,,,,,,,,,,,,,,,,,,,,,,198.0,1.0,,
358,,iti,,html-keyboard-response,358,279512,0.0-1.0-518.0,0,0,32,,,,,,,,,,,,,,,,,,,,,,,,,,,,,199.0,1.0,,
359,,rl_choice,,html-keyboard-response,359,279771,0.0-1.0-520.0,0,0,32,,257.0,,,50.0,74.0,74.0,2.0,hard,3000.0,1000.0,0.0,40.0,60.0,40.0,40.0,C,D,/static/Simple_RL/Stimuli/Fractals_stims/C.jpg,/static/Simple_RL/Stimuli/Fractals_stims/D.jpg,1.0,40.0,60.0,40.0,40.0,C,D,0.0,199.257,0.257,,
360,,rl_choice_confirmation,,html-keyboard-response,360,281017,0.0-1.0-521.0-0.0,0,0,32,,,,,,74.0,,,,,,,,,,,,,,,,,,,,,,,200.5,1.243,,
361,,isi,,html-keyboard-response,361,281123,0.0-1.0-523.0,0,0,32,,,,,,,,,,,,,,,,,,,,,,,,,,,,,201.5,1.0,,
362,,feedback,,html-keyboard-response,362,282129,0.0-1.0-524.0-0.0,0,0,32,,,,,,74.0,,,,,,,,,,,,,,,,,,,,,,,202.5,1.0,,
363,,iti,,html-keyboard-response,363,282233,0.0-1.0-525.0,0,0,32,,,,,,,,,,,,,,,,,,,,,,,,,,,,,205.5,3.0,,
364,,rl_choice,,html-keyboard-response,364,282253,0.0-1.0-527.0,0,0,32,,19.0,,,50.0,75.0,75.0,2.0,easy,1000.0,1000.0,0.0,20.0,80.0,0.0,60.0,A,B,/static/Simple_RL/Stimuli/Fractals_stims/A.jpg,/static/Simple_RL/Stimuli/Fractals_stims/B.jpg,1.0,20.0,80.0,0.0,60.0,A,B,0.0,205.519,0.019,,
365,,rl_choice_confirmation,,html-keyboard-response,365,283736,0.0-1.0-528.0-0.0,0,0,32,,,,,,75.0,,,,,,,,,,,,,,,,,,,,,,,207.0,1.481,,
366,,isi,,html-keyboard-response,366,283841,0.0-1.0-530.0,0,0,32,,,,,,,,,,,,,,,,,,,,,,,,,,,,,208.0,1.0,,
367,,feedback,,html-keyboard-response,367,284847,0.0-1.0-531.0-0.0,0,0,32,,,,,,75.0,,,,,,,,,,,,,,,,,,,,,,,209.0,1.0,,
368,,iti,,html-keyboard-response,368,284950,0.0-1.0-532.0,0,0,32,,,,,,,,,,,,,,,,,,,,,,,,,,,,,210.0,1.0,,
369,,rl_choice,,html-keyboard-response,369,285279,0.0-1.0-534.0,0,0,32,,327.0,,,50.0,76.0,76.0,2.0,easy,2000.0,1500.0,1.0,80.0,20.0,100.0,20.0,B,A,/static/Simple_RL/Stimuli/Fractals_stims/B.jpg,/static/Simple_RL/Stimuli/Fractals_stims/A.jpg,1.0,80.0,20.0,100.0,20.0,B,A,0.0,210.327,0.327,,
370,,rl_choice_confirmation,,html-keyboard-response,370,286457,0.0-1.0-535.0-0.0,0,0,32,,,,,,76.0,,,,,,,,,,,,,,,,,,,,,,,211.5,1.173,,
371,,isi,,html-keyboard-response,371,286563,0.0-1.0-537.0,0,0,32,,,,,,,,,,,,,,,,,,,,,,,,,,,,,213.0,1.5,,
372,,feedback,,html-keyboard-response,372,287567,0.0-1.0-538.0-0.0,0,0,32,,,,,,76.0,,,,,,,,,,,,,,,,,,,,,,,214.0,1.0,,
373,,iti,,html-keyboard-response,373,287668,0.0-1.0-539.0,0,0,32,,,,,,,,,,,,,,,,,,,,,,,,,,,,,216.0,2.0,,
374,,rl_choice,,html-keyboard-response,374,287797,0.0-1.0-541.0,0,0,32,,128.0,,,50.0,77.0,77.0,2.0,easy,1000.0,1000.0,0.0,20.0,80.0,0.0,80.0,A,B,/static/Simple_RL/Stimuli/Fractals_stims/A.jpg,/static/Simple_RL/Stimuli/Fractals_stims/B.jpg,1.0,20.0,80.0,0.0,80.0,A,B,0.0,216.128,0.128,,
375,,rl_choice_confirmation,,html-keyboard-response,375,289175,0.0-1.0-542.0-0.0,0,0,32,,,,,,77.0,,,,,,,,,,,,,,,,,,,,,,,217.5,1.372,,
376,,isi,,html-keyboard-response,376,289281,0.0-1.0-544.0,0,0,32,,,,,,,,,,,,,,,,,,,,,,,,,,,,,218.5,1.0,,
377,,feedback,,html-keyboard-response,377,290283,0.0-1.0-545.0-0.0,0,0,32,,,,,,77.0,,,,,,,,,,,,,,,,,,,,,,,219.5,1.0,,
378,,iti,,html-keyboard-response,378,290384,0.0-1.0-546.0,0,0,32,,,,,,,,,,,,,,,,,,,,,,,,,,,,,220.5,1.0,,
379,,rl_choice,,html-keyboard-response,379,290817,0.0-1.0-548.0,0,0,32,,431.0,,,50.0,78.0,78.0,2.0,hard,1500.0,1000.0,0.0,40.0,60.0,20.0,60.0,C,D,/static/Simple_RL/Stimuli/Fractals_stims/C.jpg,/static/Simple_RL/Stimuli/Fractals_stims/D.jpg,1.0,40.0,60.0,20.0,60.0,C,D,0.0,220.931,0.431,,
380,,rl_choice_confirmation,,html-keyboard-response,380,291890,0.0-1.0-549.0-0.0,0,0,32,,,,,,78.0,,,,,,,,,,,,,,,,,,,,,,,222.0,1.069,,
381,,isi,,html-keyboard-response,381,291995,0.0-1.0-551.0,0,0,32,,,,,,,,,,,,,,,,,,,,,,,,,,,,,223.0,1.0,,
382,,feedback,,html-keyboard-response,382,293002,0.0-1.0-552.0-0.0,0,0,32,,,,,,78.0,,,,,,,,,,,,,,,,,,,,,,,224.0,1.0,,
383,,iti,,html-keyboard-response,383,293106,0.0-1.0-553.0,0,0,32,,,,,,,,,,,,,,,,,,,,,,,,,,,,,225.5,1.5,,
384,,rl_choice,,html-keyboard-response,384,293155,0.0-1.0-555.0,0,0,32,,47.0,,,50.0,79.0,79.0,2.0,easy,2000.0,2000.0,1.0,80.0,20.0,100.0,0.0,B,A,/static/Simple_RL/Stimuli/Fractals_stims/B.jpg,/static/Simple_RL/Stimuli/Fractals_stims/A.jpg,1.0,80.0,20.0,100.0,0.0,B,A,0.0,225.547,0.047,,
385,,rl_choice_confirmation,,html-keyboard-response,385,294614,0.0-1.0-556.0-0.0,0,0,32,,,,,,79.0,,,,,,,,,,,,,,,,,,,,,,,227.0,1.453,,
386,,isi,,html-keyboard-response,386,294719,0.0-1.0-558.0,0,0,32,,,,,,,,,,,,,,,,,,,,,,,,,,,,,229.0,2.0,,
387,,feedback,,html-keyboard-response,387,295723,0.0-1.0-559.0-0.0,0,0,32,,,,,,79.0,,,,,,,,,,,,,,,,,,,,,,,230.0,1.0,,
388,,iti,,html-keyboard-response,388,295829,0.0-1.0-560.0,0,0,32,,,,,,,,,,,,,,,,,,,,,,,,,,,,,232.0,2.0,,1.26
389,,final_tally,,html-keyboard-response,389,296279,0.0-2.0,0,0,32,,448.0,,,50.0,,,,,,,,,,,,,,,,,,,,,,,,,,,
390,,,,html-keyboard-response,390,297197,0.0-3.0,0,0,32,,907.0,,,50.0,,,,,,,,,,,,,,,,,,,,,,,,,,,
