,success,ttype,start_time,trial_type,trial_index,time_elapsed,internal_node_id,warning,missed_checkup,PID,view_history,rt,responses,repeat_instructions,key_press,index,trial_num,block,condition,iti,isi,high_group_on_left,left_group_value,right_group_value,left_item_value,right_item_value,left_img,right_img,left_img_path,right_img_path,onset,duration,no_response,left_chosen,chosen_group_value,unchosen_group_value,chosen_item_value,unchosen_item_value,chosen_img,unchosen_img,total_bonus_tally
0,True,full_screen,d06072022hr1217,fullscreen,0,10551,0.0-0.0,0,0,76870,,,,,,,,,,,,,,,,,,,,,,,,,,,,,,,
1,,size_instructions,,instructions,1,67717,0.0-1.0-0.0-0.0,0,0,76870,"[{""page_index"":0,""viewing_time"":10148},{""page_index"":1,""viewing_time"":23783},{""page_index"":2,""viewing_time"":11744},{""page_index"":3,""viewing_time"":7800},{""page_index"":4,""viewing_time"":2208},{""page_index"":5,""viewing_time"":1480}]",57164.0,,,,,,,,,,,,,,,,,,,,,,,,,,,,,
2,,rl_comprehension_check,,survey-multi-choice,2,83005,0.0-1.0-0.0-1.0,0,0,76870,,15283.0,"{""Q0"":""True"",""Q1"":""False"",""Q2"":""D for left and K for right""}",1.0,,,,,,,,,,,,,,,,,,,,,,,,,,,
3,,missed_instruction_checkup,,html-keyboard-response,3,86467,0.0-1.0-0.0-2.0-0.0,0,0,76870,,3455.0,,,68.0,,,,,,,,,,,,,,,,,,,,,,,,,,
4,,size_instructions,,instructions,4,119300,0.0-1.0-0.1-0.1,0,0,76870,"[{""page_index"":0,""viewing_time"":4014},{""page_index"":1,""viewing_time"":10256},{""page_index"":2,""viewing_time"":12576},{""page_index"":3,""viewing_time"":2592},{""page_index"":4,""viewing_time"":1912},{""page_index"":5,""viewing_time"":1480}]",32831.0,,,,,,,,,,,,,,,,,,,,,,,,,,,,,
5,,rl_comprehension_check,,survey-multi-choice,5,129141,0.0-1.0-0.1-1.1,0,0,76870,,9836.0,"{""Q0"":""True"",""Q1"":""True"",""Q2"":""D for left and K for right""}",0.0,,,,,,,,,,,,,,,,,,,,,,,,,,,
6,,,,html-keyboard-response,6,131776,0.0-1.0-1.0,0,0,76870,,2629.0,,,68.0,,,,,,,,,,,,,,,,,,,,,,,,,,
7,,rl_choice,,html-keyboard-response,7,133279,0.0-1.0-2.0,0,0,76870,,,,,,0.0,0.0,1.0,hard,1500.0,2000.0,1.0,60.0,40.0,80.0,20.0,B,A,/static/Simple_RL/Stimuli/Fractals_stims/B.jpg,/static/Simple_RL/Stimuli/Fractals_stims/A.jpg,1.5,1.5,1.0,,,,,,,,
8,,rl_choice_warning,,html-keyboard-response,8,134282,0.0-1.0-4.0-0.0,0,0,76870,,,,,,0.0,,1.0,,,,,,,,,,,,,2.5,1.0,,,,,,,,,
9,,isi,,html-keyboard-response,9,136284,0.0-1.0-5.0,0,0,76870,,,,,,0.0,,1.0,,,,,,,,,,,,,4.5,2.0,,,,,,,,,
10,,iti,,html-keyboard-response,10,137787,0.0-1.0-7.0,0,0,76870,,,,,,0.0,,1.0,,,,,,,,,,,,,6.0,1.5,,,,,,,,,
11,,rl_choice,,html-keyboard-response,11,138474,0.0-1.0-9.0,0,0,76870,,686.0,,,68.0,1.0,1.0,1.0,easy,1500.0,3000.0,1.0,80.0,20.0,60.0,40.0,D,C,/static/Simple_RL/Stimuli/Fractals_stims/D.jpg,/static/Simple_RL/Stimuli/Fractals_stims/C.jpg,6.686,0.686,0.0,1.0,80.0,20.0,60.0,40.0,D,C,
12,,rl_choice_confirmation,,html-keyboard-response,12,139292,0.0-1.0-10.0-0.0,0,0,76870,,,,,,1.0,,1.0,,,,,,,,,,,,,7.5,0.814,,,,,,,,,
13,,isi,,html-keyboard-response,13,142294,0.0-1.0-12.0,0,0,76870,,,,,,1.0,,1.0,,,,,,,,,,,,,10.5,3.0,,,,,,,,,
14,,feedback,,html-keyboard-response,14,143297,0.0-1.0-13.0-0.0,0,0,76870,,,,,,1.0,,1.0,,,,,,,,,,,,,11.5,1.0,,,,,,,,,
15,,iti,,html-keyboard-response,15,144800,0.0-1.0-14.0,0,0,76870,,,,,,1.0,,1.0,,,,,,,,,,,,,13.0,1.5,,,,,,,,,
16,,rl_choice,,html-keyboard-response,16,145249,0.0-1.0-16.0,0,0,76870,,448.0,,,75.0,2.0,2.0,1.0,hard,2000.0,3000.0,0.0,40.0,60.0,40.0,40.0,A,B,/static/Simple_RL/Stimuli/Fractals_stims/A.jpg,/static/Simple_RL/Stimuli/Fractals_stims/B.jpg,13.448,0.448,0.0,0.0,60.0,40.0,40.0,40.0,B,A,
17,,rl_choice_confirmation,,html-keyboard-response,17,146303,0.0-1.0-17.0-0.0,0,0,76870,,,,,,2.0,,1.0,,,,,,,,,,,,,14.5,1.052,,,,,,,,,
18,,isi,,html-keyboard-response,18,149306,0.0-1.0-19.0,0,0,76870,,,,,,2.0,,1.0,,,,,,,,,,,,,17.5,3.0,,,,,,,,,
19,,feedback,,html-keyboard-response,19,150309,0.0-1.0-20.0-0.0,0,0,76870,,,,,,2.0,,1.0,,,,,,,,,,,,,18.5,1.0,,,,,,,,,
20,,iti,,html-keyboard-response,20,152312,0.0-1.0-21.0,0,0,76870,,,,,,2.0,,1.0,,,,,,,,,,,,,20.5,2.0,,,,,,,,,
21,,rl_choice,,html-keyboard-response,21,152796,0.0-1.0-23.0,0,0,76870,,482.0,,,68.0,3.0,3.0,1.0,hard,1000.0,1000.0,0.0,40.0,60.0,40.0,40.0,A,B,/static/Simple_RL/Stimuli/Fractals_stims/A.jpg,/static/Simple_RL/Stimuli/Fractals_stims/B.jpg,20.982,0.482,0.0,1.0,40.0,60.0,40.0,40.0,A,B,
22,,rl_choice_confirmation,,html-keyboard-response,22,153817,0.0-1.0-24.0-0.0,0,0,76870,,,,,,3.0,,1.0,,,,,,,,,,,,,22.0,1.018,,,,,,,,,
23,,isi,,html-keyboard-response,23,154820,0.0-1.0-26.0,0,0,76870,,,,,,3.0,,1.0,,,,,,,,,,,,,23.0,1.0,,,,,,,,,
24,,feedback,,html-keyboard-response,24,155823,0.0-1.0-27.0-0.0,0,0,76870,,,,,,3.0,,1.0,,,,,,,,,,,,,24.0,1.0,,,,,,,,,
25,,iti,,html-keyboard-response,25,156825,0.0-1.0-28.0,0,0,76870,,,,,,3.0,,1.0,,,,,,,,,,,,,25.0,1.0,,,,,,,,,
26,,rl_choice,,html-keyboard-response,26,157349,0.0-1.0-30.0,0,0,76870,,523.0,,,75.0,4.0,4.0,1.0,hard,3500.0,3500.0,1.0,60.0,40.0,60.0,20.0,B,A,/static/Simple_RL/Stimuli/Fractals_stims/B.jpg,/static/Simple_RL/Stimuli/Fractals_stims/A.jpg,25.523,0.523,0.0,0.0,40.0,60.0,20.0,60.0,A,B,
27,,rl_choice_confirmation,,html-keyboard-response,27,158330,0.0-1.0-31.0-0.0,0,0,76870,,,,,,4.0,,1.0,,,,,,,,,,,,,26.5,0.977,,,,,,,,,
28,,isi,,html-keyboard-response,28,161832,0.0-1.0-33.0,0,0,76870,,,,,,4.0,,1.0,,,,,,,,,,,,,30.0,3.5,,,,,,,,,
29,,feedback,,html-keyboard-response,29,162835,0.0-1.0-34.0-0.0,0,0,76870,,,,,,4.0,,1.0,,,,,,,,,,,,,31.0,1.0,,,,,,,,,
30,,iti,,html-keyboard-response,30,166337,0.0-1.0-35.0,0,0,76870,,,,,,4.0,,1.0,,,,,,,,,,,,,34.5,3.5,,,,,,,,,
31,,rl_choice,,html-keyboard-response,31,166822,0.0-1.0-37.0,0,0,76870,,483.0,,,75.0,5.0,5.0,1.0,hard,1500.0,1000.0,0.0,40.0,60.0,20.0,60.0,A,B,/static/Simple_RL/Stimuli/Fractals_stims/A.jpg,/static/Simple_RL/Stimuli/Fractals_stims/B.jpg,34.983,0.483,0.0,0.0,60.0,40.0,60.0,20.0,B,A,
32,,rl_choice_confirmation,,html-keyboard-response,32,167842,0.0-1.0-38.0-0.0,0,0,76870,,,,,,5.0,,1.0,,,,,,,,,,,,,36.0,1.017,,,,,,,,,
33,,isi,,html-keyboard-response,33,168844,0.0-1.0-40.0,0,0,76870,,,,,,5.0,,1.0,,,,,,,,,,,,,37.0,1.0,,,,,,,,,
34,,feedback,,html-keyboard-response,34,169847,0.0-1.0-41.0-0.0,0,0,76870,,,,,,5.0,,1.0,,,,,,,,,,,,,38.0,1.0,,,,,,,,,
35,,iti,,html-keyboard-response,35,171349,0.0-1.0-42.0,0,0,76870,,,,,,5.0,,1.0,,,,,,,,,,,,,39.5,1.5,,,,,,,,,
36,,rl_choice,,html-keyboard-response,36,171801,0.0-1.0-44.0,0,0,76870,,449.0,,,68.0,6.0,6.0,1.0,hard,1000.0,1000.0,0.0,40.0,60.0,40.0,60.0,A,B,/static/Simple_RL/Stimuli/Fractals_stims/A.jpg,/static/Simple_RL/Stimuli/Fractals_stims/B.jpg,39.949,0.449,0.0,1.0,40.0,60.0,40.0,60.0,A,B,
37,,rl_choice_confirmation,,html-keyboard-response,37,172856,0.0-1.0-45.0-0.0,0,0,76870,,,,,,6.0,,1.0,,,,,,,,,,,,,41.0,1.051,,,,,,,,,
38,,isi,,html-keyboard-response,38,173859,0.0-1.0-47.0,0,0,76870,,,,,,6.0,,1.0,,,,,,,,,,,,,42.0,1.0,,,,,,,,,
39,,feedback,,html-keyboard-response,39,174861,0.0-1.0-48.0-0.0,0,0,76870,,,,,,6.0,,1.0,,,,,,,,,,,,,43.0,1.0,,,,,,,,,
40,,iti,,html-keyboard-response,40,175863,0.0-1.0-49.0,0,0,76870,,,,,,6.0,,1.0,,,,,,,,,,,,,44.0,1.0,,,,,,,,,
41,,rl_choice,,html-keyboard-response,41,176463,0.0-1.0-51.0,0,0,76870,,598.0,,,75.0,7.0,7.0,1.0,hard,3000.0,1500.0,0.0,40.0,60.0,20.0,40.0,A,B,/static/Simple_RL/Stimuli/Fractals_stims/A.jpg,/static/Simple_RL/Stimuli/Fractals_stims/B.jpg,44.598,0.598,0.0,0.0,60.0,40.0,40.0,20.0,B,A,
42,,rl_choice_confirmation,,html-keyboard-response,42,177368,0.0-1.0-52.0-0.0,0,0,76870,,,,,,7.0,,1.0,,,,,,,,,,,,,45.5,0.902,,,,,,,,,
43,,isi,,html-keyboard-response,43,178872,0.0-1.0-54.0,0,0,76870,,,,,,7.0,,1.0,,,,,,,,,,,,,47.0,1.5,,,,,,,,,
44,,feedback,,html-keyboard-response,44,179874,0.0-1.0-55.0-0.0,0,0,76870,,,,,,7.0,,1.0,,,,,,,,,,,,,48.0,1.0,,,,,,,,,
45,,iti,,html-keyboard-response,45,182875,0.0-1.0-56.0,0,0,76870,,,,,,7.0,,1.0,,,,,,,,,,,,,51.0,3.0,,,,,,,,,
46,,rl_choice,,html-keyboard-response,46,183342,0.0-1.0-58.0,0,0,76870,,464.0,,,68.0,8.0,8.0,1.0,hard,1000.0,2000.0,1.0,60.0,40.0,60.0,60.0,B,A,/static/Simple_RL/Stimuli/Fractals_stims/B.jpg,/static/Simple_RL/Stimuli/Fractals_stims/A.jpg,51.464,0.464,0.0,1.0,60.0,40.0,60.0,60.0,B,A,
47,,rl_choice_confirmation,,html-keyboard-response,47,184380,0.0-1.0-59.0-0.0,0,0,76870,,,,,,8.0,,1.0,,,,,,,,,,,,,52.5,1.036,,,,,,,,,
48,,isi,,html-keyboard-response,48,186382,0.0-1.0-61.0,0,0,76870,,,,,,8.0,,1.0,,,,,,,,,,,,,54.5,2.0,,,,,,,,,
49,,feedback,,html-keyboard-response,49,187385,0.0-1.0-62.0-0.0,0,0,76870,,,,,,8.0,,1.0,,,,,,,,,,,,,55.5,1.0,,,,,,,,,
50,,iti,,html-keyboard-response,50,188388,0.0-1.0-63.0,0,0,76870,,,,,,8.0,,1.0,,,,,,,,,,,,,56.5,1.0,,,,,,,,,
51,,rl_choice,,html-keyboard-response,51,188862,0.0-1.0-65.0,0,0,76870,,472.0,,,75.0,9.0,9.0,1.0,hard,2000.0,2000.0,1.0,60.0,40.0,80.0,60.0,B,A,/static/Simple_RL/Stimuli/Fractals_stims/B.jpg,/static/Simple_RL/Stimuli/Fractals_stims/A.jpg,56.972,0.472,0.0,0.0,40.0,60.0,60.0,80.0,A,B,
52,,rl_choice_confirmation,,html-keyboard-response,52,189893,0.0-1.0-66.0-0.0,0,0,76870,,,,,,9.0,,1.0,,,,,,,,,,,,,58.0,1.028,,,,,,,,,
53,,isi,,html-keyboard-response,53,191895,0.0-1.0-68.0,0,0,76870,,,,,,9.0,,1.0,,,,,,,,,,,,,60.0,2.0,,,,,,,,,
54,,feedback,,html-keyboard-response,54,192897,0.0-1.0-69.0-0.0,0,0,76870,,,,,,9.0,,1.0,,,,,,,,,,,,,61.0,1.0,,,,,,,,,
55,,iti,,html-keyboard-response,55,194899,0.0-1.0-70.0,0,0,76870,,,,,,9.0,,1.0,,,,,,,,,,,,,63.0,2.0,,,,,,,,,
56,,rl_choice,,html-keyboard-response,56,195280,0.0-1.0-72.0,0,0,76870,,380.0,,,68.0,10.0,10.0,1.0,hard,2000.0,2000.0,0.0,40.0,60.0,20.0,60.0,A,B,/static/Simple_RL/Stimuli/Fractals_stims/A.jpg,/static/Simple_RL/Stimuli/Fractals_stims/B.jpg,63.38,0.38,0.0,1.0,40.0,60.0,20.0,60.0,A,B,
57,,rl_choice_confirmation,,html-keyboard-response,57,196404,0.0-1.0-73.0-0.0,0,0,76870,,,,,,10.0,,1.0,,,,,,,,,,,,,64.5,1.12,,,,,,,,,
58,,isi,,html-keyboard-response,58,198406,0.0-1.0-75.0,0,0,76870,,,,,,10.0,,1.0,,,,,,,,,,,,,66.5,2.0,,,,,,,,,
59,,feedback,,html-keyboard-response,59,199408,0.0-1.0-76.0-0.0,0,0,76870,,,,,,10.0,,1.0,,,,,,,,,,,,,67.5,1.0,,,,,,,,,
60,,iti,,html-keyboard-response,60,201411,0.0-1.0-77.0,0,0,76870,,,,,,10.0,,1.0,,,,,,,,,,,,,69.5,2.0,,,,,,,,,
61,,rl_choice,,html-keyboard-response,61,202004,0.0-1.0-79.0,0,0,76870,,591.0,,,68.0,11.0,11.0,1.0,easy,1500.0,2000.0,1.0,80.0,20.0,100.0,20.0,D,C,/static/Simple_RL/Stimuli/Fractals_stims/D.jpg,/static/Simple_RL/Stimuli/Fractals_stims/C.jpg,70.091,0.591,0.0,1.0,80.0,20.0,100.0,20.0,D,C,
62,,rl_choice_confirmation,,html-keyboard-response,62,202917,0.0-1.0-80.0-0.0,0,0,76870,,,,,,11.0,,1.0,,,,,,,,,,,,,71.0,0.909,,,,,,,,,
63,,isi,,html-keyboard-response,63,204919,0.0-1.0-82.0,0,0,76870,,,,,,11.0,,1.0,,,,,,,,,,,,,73.0,2.0,,,,,,,,,
64,,feedback,,html-keyboard-response,64,205922,0.0-1.0-83.0-0.0,0,0,76870,,,,,,11.0,,1.0,,,,,,,,,,,,,74.0,1.0,,,,,,,,,
65,,iti,,html-keyboard-response,65,207425,0.0-1.0-84.0,0,0,76870,,,,,,11.0,,1.0,,,,,,,,,,,,,75.5,1.5,,,,,,,,,
66,,rl_choice,,html-keyboard-response,66,207878,0.0-1.0-86.0,0,0,76870,,452.0,,,75.0,12.0,12.0,1.0,hard,1000.0,1500.0,1.0,60.0,40.0,40.0,20.0,B,A,/static/Simple_RL/Stimuli/Fractals_stims/B.jpg,/static/Simple_RL/Stimuli/Fractals_stims/A.jpg,75.952,0.452,0.0,0.0,40.0,60.0,20.0,40.0,A,B,
67,,rl_choice_confirmation,,html-keyboard-response,67,208930,0.0-1.0-87.0-0.0,0,0,76870,,,,,,12.0,,1.0,,,,,,,,,,,,,77.0,1.048,,,,,,,,,
68,,isi,,html-keyboard-response,68,210432,0.0-1.0-89.0,0,0,76870,,,,,,12.0,,1.0,,,,,,,,,,,,,78.5,1.5,,,,,,,,,
69,,feedback,,html-keyboard-response,69,211435,0.0-1.0-90.0-0.0,0,0,76870,,,,,,12.0,,1.0,,,,,,,,,,,,,79.5,1.0,,,,,,,,,
70,,iti,,html-keyboard-response,70,212452,0.0-1.0-91.0,0,0,76870,,,,,,12.0,,1.0,,,,,,,,,,,,,80.5,1.0,,,,,,,,,
71,,rl_choice,,html-keyboard-response,71,212857,0.0-1.0-93.0,0,0,76870,,402.0,,,68.0,13.0,13.0,1.0,easy,1500.0,1500.0,1.0,80.0,20.0,100.0,40.0,D,C,/static/Simple_RL/Stimuli/Fractals_stims/D.jpg,/static/Simple_RL/Stimuli/Fractals_stims/C.jpg,80.902,0.402,0.0,1.0,80.0,20.0,100.0,40.0,D,C,
72,,rl_choice_confirmation,,html-keyboard-response,72,213958,0.0-1.0-94.0-0.0,0,0,76870,,,,,,13.0,,1.0,,,,,,,,,,,,,82.0,1.098,,,,,,,,,
73,,isi,,html-keyboard-response,73,215461,0.0-1.0-96.0,0,0,76870,,,,,,13.0,,1.0,,,,,,,,,,,,,83.5,1.5,,,,,,,,,
74,,feedback,,html-keyboard-response,74,216463,0.0-1.0-97.0-0.0,0,0,76870,,,,,,13.0,,1.0,,,,,,,,,,,,,84.5,1.0,,,,,,,,,
75,,iti,,html-keyboard-response,75,217966,0.0-1.0-98.0,0,0,76870,,,,,,13.0,,1.0,,,,,,,,,,,,,86.0,1.5,,,,,,,,,
76,,rl_choice,,html-keyboard-response,76,218387,0.0-1.0-100.0,0,0,76870,,419.0,,,68.0,14.0,14.0,1.0,easy,1000.0,1000.0,0.0,20.0,80.0,0.0,60.0,C,D,/static/Simple_RL/Stimuli/Fractals_stims/C.jpg,/static/Simple_RL/Stimuli/Fractals_stims/D.jpg,86.419,0.419,0.0,1.0,20.0,80.0,0.0,60.0,C,D,
77,,rl_choice_confirmation,,html-keyboard-response,77,219472,0.0-1.0-101.0-0.0,0,0,76870,,,,,,14.0,,1.0,,,,,,,,,,,,,87.5,1.081,,,,,,,,,
78,,isi,,html-keyboard-response,78,220474,0.0-1.0-103.0,0,0,76870,,,,,,14.0,,1.0,,,,,,,,,,,,,88.5,1.0,,,,,,,,,
79,,feedback,,html-keyboard-response,79,221477,0.0-1.0-104.0-0.0,0,0,76870,,,,,,14.0,,1.0,,,,,,,,,,,,,89.5,1.0,,,,,,,,,
80,,iti,,html-keyboard-response,80,222479,0.0-1.0-105.0,0,0,76870,,,,,,14.0,,1.0,,,,,,,,,,,,,90.5,1.0,,,,,,,,,
81,,rl_choice,,html-keyboard-response,81,222929,0.0-1.0-107.0,0,0,76870,,448.0,,,75.0,15.0,15.0,1.0,easy,1000.0,2000.0,0.0,20.0,80.0,20.0,100.0,C,D,/static/Simple_RL/Stimuli/Fractals_stims/C.jpg,/static/Simple_RL/Stimuli/Fractals_stims/D.jpg,90.948,0.448,0.0,0.0,80.0,20.0,100.0,20.0,D,C,
82,,rl_choice_confirmation,,html-keyboard-response,82,223985,0.0-1.0-108.0-0.0,0,0,76870,,,,,,15.0,,1.0,,,,,,,,,,,,,92.0,1.052,,,,,,,,,
83,,isi,,html-keyboard-response,83,225987,0.0-1.0-110.0,0,0,76870,,,,,,15.0,,1.0,,,,,,,,,,,,,94.0,2.0,,,,,,,,,
84,,feedback,,html-keyboard-response,84,226991,0.0-1.0-111.0-0.0,0,0,76870,,,,,,15.0,,1.0,,,,,,,,,,,,,95.0,1.0,,,,,,,,,
85,,iti,,html-keyboard-response,85,227994,0.0-1.0-112.0,0,0,76870,,,,,,15.0,,1.0,,,,,,,,,,,,,96.0,1.0,,,,,,,,,
86,,rl_choice,,html-keyboard-response,86,228393,0.0-1.0-114.0,0,0,76870,,398.0,,,68.0,16.0,16.0,1.0,hard,1000.0,1000.0,1.0,60.0,40.0,60.0,20.0,B,A,/static/Simple_RL/Stimuli/Fractals_stims/B.jpg,/static/Simple_RL/Stimuli/Fractals_stims/A.jpg,96.398,0.398,0.0,1.0,60.0,40.0,60.0,20.0,B,A,
87,,rl_choice_confirmation,,html-keyboard-response,87,229497,0.0-1.0-115.0-0.0,0,0,76870,,,,,,16.0,,1.0,,,,,,,,,,,,,97.5,1.102,,,,,,,,,
88,,isi,,html-keyboard-response,88,230499,0.0-1.0-117.0,0,0,76870,,,,,,16.0,,1.0,,,,,,,,,,,,,98.5,1.0,,,,,,,,,
89,,feedback,,html-keyboard-response,89,231501,0.0-1.0-118.0-0.0,0,0,76870,,,,,,16.0,,1.0,,,,,,,,,,,,,99.5,1.0,,,,,,,,,
90,,iti,,html-keyboard-response,90,232504,0.0-1.0-119.0,0,0,76870,,,,,,16.0,,1.0,,,,,,,,,,,,,100.5,1.0,,,,,,,,,
91,,rl_choice,,html-keyboard-response,91,233053,0.0-1.0-121.0,0,0,76870,,548.0,,,75.0,17.0,17.0,1.0,easy,1000.0,2000.0,0.0,20.0,80.0,40.0,100.0,C,D,/static/Simple_RL/Stimuli/Fractals_stims/C.jpg,/static/Simple_RL/Stimuli/Fractals_stims/D.jpg,101.048,0.548,0.0,0.0,80.0,20.0,100.0,40.0,D,C,
92,,rl_choice_confirmation,,html-keyboard-response,92,234009,0.0-1.0-122.0-0.0,0,0,76870,,,,,,17.0,,1.0,,,,,,,,,,,,,102.0,0.952,,,,,,,,,
93,,isi,,html-keyboard-response,93,236012,0.0-1.0-124.0,0,0,76870,,,,,,17.0,,1.0,,,,,,,,,,,,,104.0,2.0,,,,,,,,,
94,,feedback,,html-keyboard-response,94,237015,0.0-1.0-125.0-0.0,0,0,76870,,,,,,17.0,,1.0,,,,,,,,,,,,,105.0,1.0,,,,,,,,,
95,,iti,,html-keyboard-response,95,238018,0.0-1.0-126.0,0,0,76870,,,,,,17.0,,1.0,,,,,,,,,,,,,106.0,1.0,,,,,,,,,
96,,rl_choice,,html-keyboard-response,96,238404,0.0-1.0-128.0,0,0,76870,,385.0,,,68.0,18.0,18.0,1.0,easy,2000.0,1000.0,0.0,20.0,80.0,0.0,100.0,C,D,/static/Simple_RL/Stimuli/Fractals_stims/C.jpg,/static/Simple_RL/Stimuli/Fractals_stims/D.jpg,106.385,0.385,0.0,1.0,20.0,80.0,0.0,100.0,C,D,
97,,rl_choice_confirmation,,html-keyboard-response,97,239521,0.0-1.0-129.0-0.0,0,0,76870,,,,,,18.0,,1.0,,,,,,,,,,,,,107.5,1.115,,,,,,,,,
98,,isi,,html-keyboard-response,98,240523,0.0-1.0-131.0,0,0,76870,,,,,,18.0,,1.0,,,,,,,,,,,,,108.5,1.0,,,,,,,,,
99,,feedback,,html-keyboard-response,99,241525,0.0-1.0-132.0-0.0,0,0,76870,,,,,,18.0,,1.0,,,,,,,,,,,,,109.5,1.0,,,,,,,,,
100,,iti,,html-keyboard-response,100,243528,0.0-1.0-133.0,0,0,76870,,,,,,18.0,,1.0,,,,,,,,,,,,,111.5,2.0,,,,,,,,,
101,,rl_choice,,html-keyboard-response,101,243947,0.0-1.0-135.0,0,0,76870,,416.0,,,68.0,19.0,19.0,1.0,hard,1500.0,1500.0,0.0,40.0,60.0,60.0,60.0,A,B,/static/Simple_RL/Stimuli/Fractals_stims/A.jpg,/static/Simple_RL/Stimuli/Fractals_stims/B.jpg,111.916,0.416,0.0,1.0,40.0,60.0,60.0,60.0,A,B,
102,,rl_choice_confirmation,,html-keyboard-response,102,245034,0.0-1.0-136.0-0.0,0,0,76870,,,,,,19.0,,1.0,,,,,,,,,,,,,113.0,1.084,,,,,,,,,
103,,isi,,html-keyboard-response,103,246536,0.0-1.0-138.0,0,0,76870,,,,,,19.0,,1.0,,,,,,,,,,,,,114.5,1.5,,,,,,,,,
104,,feedback,,html-keyboard-response,104,247538,0.0-1.0-139.0-0.0,0,0,76870,,,,,,19.0,,1.0,,,,,,,,,,,,,115.5,1.0,,,,,,,,,
105,,iti,,html-keyboard-response,105,249041,0.0-1.0-140.0,0,0,76870,,,,,,19.0,,1.0,,,,,,,,,,,,,117.0,1.5,,,,,,,,,
106,,rl_choice,,html-keyboard-response,106,249468,0.0-1.0-142.0,0,0,76870,,426.0,,,75.0,20.0,20.0,1.0,easy,1000.0,1000.0,1.0,80.0,20.0,60.0,40.0,D,C,/static/Simple_RL/Stimuli/Fractals_stims/D.jpg,/static/Simple_RL/Stimuli/Fractals_stims/C.jpg,117.426,0.426,0.0,0.0,20.0,80.0,40.0,60.0,C,D,
107,,rl_choice_confirmation,,html-keyboard-response,107,250546,0.0-1.0-143.0-0.0,0,0,76870,,,,,,20.0,,1.0,,,,,,,,,,,,,118.5,1.074,,,,,,,,,
108,,isi,,html-keyboard-response,108,251549,0.0-1.0-145.0,0,0,76870,,,,,,20.0,,1.0,,,,,,,,,,,,,119.5,1.0,,,,,,,,,
109,,feedback,,html-keyboard-response,109,252552,0.0-1.0-146.0-0.0,0,0,76870,,,,,,20.0,,1.0,,,,,,,,,,,,,120.5,1.0,,,,,,,,,
110,,iti,,html-keyboard-response,110,253554,0.0-1.0-147.0,0,0,76870,,,,,,20.0,,1.0,,,,,,,,,,,,,121.5,1.0,,,,,,,,,
111,,rl_choice,,html-keyboard-response,111,254050,0.0-1.0-149.0,0,0,76870,,495.0,,,68.0,21.0,21.0,1.0,easy,3500.0,1000.0,1.0,80.0,20.0,60.0,20.0,D,C,/static/Simple_RL/Stimuli/Fractals_stims/D.jpg,/static/Simple_RL/Stimuli/Fractals_stims/C.jpg,121.995,0.495,0.0,1.0,80.0,20.0,60.0,20.0,D,C,
112,,rl_choice_confirmation,,html-keyboard-response,112,255058,0.0-1.0-150.0-0.0,0,0,76870,,,,,,21.0,,1.0,,,,,,,,,,,,,123.0,1.005,,,,,,,,,
113,,isi,,html-keyboard-response,113,256060,0.0-1.0-152.0,0,0,76870,,,,,,21.0,,1.0,,,,,,,,,,,,,124.0,1.0,,,,,,,,,
114,,feedback,,html-keyboard-response,114,257063,0.0-1.0-153.0-0.0,0,0,76870,,,,,,21.0,,1.0,,,,,,,,,,,,,125.0,1.0,,,,,,,,,
115,,iti,,html-keyboard-response,115,260564,0.0-1.0-154.0,0,0,76870,,,,,,21.0,,1.0,,,,,,,,,,,,,128.5,3.5,,,,,,,,,
116,,rl_choice,,html-keyboard-response,116,260970,0.0-1.0-156.0,0,0,76870,,404.0,,,75.0,22.0,22.0,1.0,easy,1500.0,1500.0,1.0,80.0,20.0,80.0,20.0,D,C,/static/Simple_RL/Stimuli/Fractals_stims/D.jpg,/static/Simple_RL/Stimuli/Fractals_stims/C.jpg,128.904,0.404,0.0,0.0,20.0,80.0,20.0,80.0,C,D,
117,,rl_choice_confirmation,,html-keyboard-response,117,262069,0.0-1.0-157.0-0.0,0,0,76870,,,,,,22.0,,1.0,,,,,,,,,,,,,130.0,1.096,,,,,,,,,
118,,isi,,html-keyboard-response,118,263571,0.0-1.0-159.0,0,0,76870,,,,,,22.0,,1.0,,,,,,,,,,,,,131.5,1.5,,,,,,,,,
119,,feedback,,html-keyboard-response,119,264575,0.0-1.0-160.0-0.0,0,0,76870,,,,,,22.0,,1.0,,,,,,,,,,,,,132.5,1.0,,,,,,,,,
120,,iti,,html-keyboard-response,120,266077,0.0-1.0-161.0,0,0,76870,,,,,,22.0,,1.0,,,,,,,,,,,,,134.0,1.5,,,,,,,,,
121,,rl_choice,,html-keyboard-response,121,266490,0.0-1.0-163.0,0,0,76870,,412.0,,,68.0,23.0,23.0,1.0,easy,2000.0,1500.0,0.0,20.0,80.0,20.0,60.0,C,D,/static/Simple_RL/Stimuli/Fractals_stims/C.jpg,/static/Simple_RL/Stimuli/Fractals_stims/D.jpg,134.412,0.412,0.0,1.0,20.0,80.0,20.0,60.0,C,D,
122,,rl_choice_confirmation,,html-keyboard-response,122,267582,0.0-1.0-164.0-0.0,0,0,76870,,,,,,23.0,,1.0,,,,,,,,,,,,,135.5,1.088,,,,,,,,,
123,,isi,,html-keyboard-response,123,269087,0.0-1.0-166.0,0,0,76870,,,,,,23.0,,1.0,,,,,,,,,,,,,137.0,1.5,,,,,,,,,
124,,feedback,,html-keyboard-response,124,270089,0.0-1.0-167.0-0.0,0,0,76870,,,,,,23.0,,1.0,,,,,,,,,,,,,138.0,1.0,,,,,,,,,
125,,iti,,html-keyboard-response,125,272090,0.0-1.0-168.0,0,0,76870,,,,,,23.0,,1.0,,,,,,,,,,,,,140.0,2.0,,,,,,,,,
126,,rl_choice,,html-keyboard-response,126,272514,0.0-1.0-170.0,0,0,76870,,422.0,,,75.0,24.0,24.0,1.0,hard,1000.0,1000.0,0.0,40.0,60.0,60.0,80.0,A,B,/static/Simple_RL/Stimuli/Fractals_stims/A.jpg,/static/Simple_RL/Stimuli/Fractals_stims/B.jpg,140.422,0.422,0.0,0.0,60.0,40.0,80.0,60.0,B,A,
127,,rl_choice_confirmation,,html-keyboard-response,127,273594,0.0-1.0-171.0-0.0,0,0,76870,,,,,,24.0,,1.0,,,,,,,,,,,,,141.5,1.078,,,,,,,,,
128,,isi,,html-keyboard-response,128,274597,0.0-1.0-173.0,0,0,76870,,,,,,24.0,,1.0,,,,,,,,,,,,,142.5,1.0,,,,,,,,,
129,,feedback,,html-keyboard-response,129,275600,0.0-1.0-174.0-0.0,0,0,76870,,,,,,24.0,,1.0,,,,,,,,,,,,,143.5,1.0,,,,,,,,,
130,,iti,,html-keyboard-response,130,276602,0.0-1.0-175.0,0,0,76870,,,,,,24.0,,1.0,,,,,,,,,,,,,144.5,1.0,,,,,,,,,
131,,rl_choice,,html-keyboard-response,131,276975,0.0-1.0-177.0,0,0,76870,,371.0,,,68.0,25.0,25.0,1.0,easy,1000.0,1500.0,0.0,20.0,80.0,20.0,60.0,C,D,/static/Simple_RL/Stimuli/Fractals_stims/C.jpg,/static/Simple_RL/Stimuli/Fractals_stims/D.jpg,144.871,0.371,0.0,1.0,20.0,80.0,20.0,60.0,C,D,
132,,rl_choice_confirmation,,html-keyboard-response,132,278106,0.0-1.0-178.0-0.0,0,0,76870,,,,,,25.0,,1.0,,,,,,,,,,,,,146.0,1.129,,,,,,,,,
133,,isi,,html-keyboard-response,133,279608,0.0-1.0-180.0,0,0,76870,,,,,,25.0,,1.0,,,,,,,,,,,,,147.5,1.5,,,,,,,,,
134,,feedback,,html-keyboard-response,134,280611,0.0-1.0-181.0-0.0,0,0,76870,,,,,,25.0,,1.0,,,,,,,,,,,,,148.5,1.0,,,,,,,,,
135,,iti,,html-keyboard-response,135,281614,0.0-1.0-182.0,0,0,76870,,,,,,25.0,,1.0,,,,,,,,,,,,,149.5,1.0,,,,,,,,,
136,,rl_choice,,html-keyboard-response,136,282336,0.0-1.0-184.0,0,0,76870,,720.0,,,68.0,26.0,26.0,1.0,easy,2000.0,1000.0,0.0,20.0,80.0,40.0,100.0,C,D,/static/Simple_RL/Stimuli/Fractals_stims/C.jpg,/static/Simple_RL/Stimuli/Fractals_stims/D.jpg,150.22,0.72,0.0,1.0,20.0,80.0,40.0,100.0,C,D,
137,,rl_choice_confirmation,,html-keyboard-response,137,283119,0.0-1.0-185.0-0.0,0,0,76870,,,,,,26.0,,1.0,,,,,,,,,,,,,151.0,0.78,,,,,,,,,
138,,isi,,html-keyboard-response,138,284121,0.0-1.0-187.0,0,0,76870,,,,,,26.0,,1.0,,,,,,,,,,,,,152.0,1.0,,,,,,,,,
139,,feedback,,html-keyboard-response,139,285124,0.0-1.0-188.0-0.0,0,0,76870,,,,,,26.0,,1.0,,,,,,,,,,,,,153.0,1.0,,,,,,,,,
140,,iti,,html-keyboard-response,140,287127,0.0-1.0-189.0,0,0,76870,,,,,,26.0,,1.0,,,,,,,,,,,,,155.0,2.0,,,,,,,,,
141,,rl_choice,,html-keyboard-response,141,287637,0.0-1.0-191.0,0,0,76870,,508.0,,,75.0,27.0,27.0,1.0,hard,1000.0,1000.0,1.0,60.0,40.0,60.0,20.0,B,A,/static/Simple_RL/Stimuli/Fractals_stims/B.jpg,/static/Simple_RL/Stimuli/Fractals_stims/A.jpg,155.508,0.508,0.0,0.0,40.0,60.0,20.0,60.0,A,B,
142,,rl_choice_confirmation,,html-keyboard-response,142,288634,0.0-1.0-192.0-0.0,0,0,76870,,,,,,27.0,,1.0,,,,,,,,,,,,,156.5,0.992,,,,,,,,,
143,,isi,,html-keyboard-response,143,289637,0.0-1.0-194.0,0,0,76870,,,,,,27.0,,1.0,,,,,,,,,,,,,157.5,1.0,,,,,,,,,
144,,feedback,,html-keyboard-response,144,290640,0.0-1.0-195.0-0.0,0,0,76870,,,,,,27.0,,1.0,,,,,,,,,,,,,158.5,1.0,,,,,,,,,
145,,iti,,html-keyboard-response,145,291643,0.0-1.0-196.0,0,0,76870,,,,,,27.0,,1.0,,,,,,,,,,,,,159.5,1.0,,,,,,,,,
146,,rl_choice,,html-keyboard-response,146,292047,0.0-1.0-198.0,0,0,76870,,401.0,,,68.0,28.0,28.0,1.0,easy,1500.0,1500.0,1.0,80.0,20.0,80.0,0.0,D,C,/static/Simple_RL/Stimuli/Fractals_stims/D.jpg,/static/Simple_RL/Stimuli/Fractals_stims/C.jpg,159.901,0.401,0.0,1.0,80.0,20.0,80.0,0.0,D,C,
147,,rl_choice_confirmation,,html-keyboard-response,147,293149,0.0-1.0-199.0-0.0,0,0,76870,,,,,,28.0,,1.0,,,,,,,,,,,,,161.0,1.099,,,,,,,,,
148,,isi,,html-keyboard-response,148,294651,0.0-1.0-201.0,0,0,76870,,,,,,28.0,,1.0,,,,,,,,,,,,,162.5,1.5,,,,,,,,,
149,,feedback,,html-keyboard-response,149,295653,0.0-1.0-202.0-0.0,0,0,76870,,,,,,28.0,,1.0,,,,,,,,,,,,,163.5,1.0,,,,,,,,,
150,,iti,,html-keyboard-response,150,297155,0.0-1.0-203.0,0,0,76870,,,,,,28.0,,1.0,,,,,,,,,,,,,165.0,1.5,,,,,,,,,
151,,rl_choice,,html-keyboard-response,151,297568,0.0-1.0-205.0,0,0,76870,,411.0,,,75.0,29.0,29.0,1.0,easy,2000.0,2000.0,0.0,20.0,80.0,20.0,80.0,C,D,/static/Simple_RL/Stimuli/Fractals_stims/C.jpg,/static/Simple_RL/Stimuli/Fractals_stims/D.jpg,165.411,0.411,0.0,0.0,80.0,20.0,80.0,20.0,D,C,
152,,rl_choice_confirmation,,html-keyboard-response,152,298660,0.0-1.0-206.0-0.0,0,0,76870,,,,,,29.0,,1.0,,,,,,,,,,,,,166.5,1.089,,,,,,,,,
153,,isi,,html-keyboard-response,153,300662,0.0-1.0-208.0,0,0,76870,,,,,,29.0,,1.0,,,,,,,,,,,,,168.5,2.0,,,,,,,,,
154,,feedback,,html-keyboard-response,154,301665,0.0-1.0-209.0-0.0,0,0,76870,,,,,,29.0,,1.0,,,,,,,,,,,,,169.5,1.0,,,,,,,,,
155,,iti,,html-keyboard-response,155,303667,0.0-1.0-210.0,0,0,76870,,,,,,29.0,,1.0,,,,,,,,,,,,,171.5,2.0,,,,,,,,,
156,,rl_choice,,html-keyboard-response,156,304110,0.0-1.0-212.0,0,0,76870,,441.0,,,68.0,30.0,30.0,1.0,hard,1500.0,1500.0,1.0,60.0,40.0,60.0,60.0,B,A,/static/Simple_RL/Stimuli/Fractals_stims/B.jpg,/static/Simple_RL/Stimuli/Fractals_stims/A.jpg,171.941,0.441,0.0,1.0,60.0,40.0,60.0,60.0,B,A,
157,,rl_choice_confirmation,,html-keyboard-response,157,305172,0.0-1.0-213.0-0.0,0,0,76870,,,,,,30.0,,1.0,,,,,,,,,,,,,173.0,1.059,,,,,,,,,
158,,isi,,html-keyboard-response,158,306675,0.0-1.0-215.0,0,0,76870,,,,,,30.0,,1.0,,,,,,,,,,,,,174.5,1.5,,,,,,,,,
159,,feedback,,html-keyboard-response,159,307678,0.0-1.0-216.0-0.0,0,0,76870,,,,,,30.0,,1.0,,,,,,,,,,,,,175.5,1.0,,,,,,,,,
160,,iti,,html-keyboard-response,160,309208,0.0-1.0-217.0,0,0,76870,,,,,,30.0,,1.0,,,,,,,,,,,,,177.0,1.5,,,,,,,,,
161,,rl_choice,,html-keyboard-response,161,309671,0.0-1.0-219.0,0,0,76870,,461.0,,,75.0,31.0,31.0,1.0,easy,3000.0,1000.0,0.0,20.0,80.0,40.0,80.0,C,D,/static/Simple_RL/Stimuli/Fractals_stims/C.jpg,/static/Simple_RL/Stimuli/Fractals_stims/D.jpg,177.461,0.461,0.0,0.0,80.0,20.0,80.0,40.0,D,C,
162,,rl_choice_confirmation,,html-keyboard-response,162,310715,0.0-1.0-220.0-0.0,0,0,76870,,,,,,31.0,,1.0,,,,,,,,,,,,,178.5,1.039,,,,,,,,,
163,,isi,,html-keyboard-response,163,311717,0.0-1.0-222.0,0,0,76870,,,,,,31.0,,1.0,,,,,,,,,,,,,179.5,1.0,,,,,,,,,
164,,feedback,,html-keyboard-response,164,312720,0.0-1.0-223.0-0.0,0,0,76870,,,,,,31.0,,1.0,,,,,,,,,,,,,180.5,1.0,,,,,,,,,
165,,iti,,html-keyboard-response,165,315722,0.0-1.0-224.0,0,0,76870,,,,,,31.0,,1.0,,,,,,,,,,,,,183.5,3.0,,,,,,,,,
166,,rl_choice,,html-keyboard-response,166,316126,0.0-1.0-226.0,0,0,76870,,402.0,,,68.0,32.0,32.0,1.0,easy,1000.0,1000.0,1.0,80.0,20.0,80.0,20.0,D,C,/static/Simple_RL/Stimuli/Fractals_stims/D.jpg,/static/Simple_RL/Stimuli/Fractals_stims/C.jpg,183.902,0.402,0.0,1.0,80.0,20.0,80.0,20.0,D,C,
167,,rl_choice_confirmation,,html-keyboard-response,167,317227,0.0-1.0-227.0-0.0,0,0,76870,,,,,,32.0,,1.0,,,,,,,,,,,,,185.0,1.098,,,,,,,,,
168,,isi,,html-keyboard-response,168,318230,0.0-1.0-229.0,0,0,76870,,,,,,32.0,,1.0,,,,,,,,,,,,,186.0,1.0,,,,,,,,,
169,,feedback,,html-keyboard-response,169,319232,0.0-1.0-230.0-0.0,0,0,76870,,,,,,32.0,,1.0,,,,,,,,,,,,,187.0,1.0,,,,,,,,,
170,,iti,,html-keyboard-response,170,320237,0.0-1.0-231.0,0,0,76870,,,,,,32.0,,1.0,,,,,,,,,,,,,188.0,1.0,,,,,,,,,
171,,rl_choice,,html-keyboard-response,171,320683,0.0-1.0-233.0,0,0,76870,,444.0,,,75.0,33.0,33.0,1.0,easy,1000.0,1000.0,0.0,20.0,80.0,40.0,60.0,C,D,/static/Simple_RL/Stimuli/Fractals_stims/C.jpg,/static/Simple_RL/Stimuli/Fractals_stims/D.jpg,188.444,0.444,0.0,0.0,80.0,20.0,60.0,40.0,D,C,
172,,rl_choice_confirmation,,html-keyboard-response,172,321742,0.0-1.0-234.0-0.0,0,0,76870,,,,,,33.0,,1.0,,,,,,,,,,,,,189.5,1.056,,,,,,,,,
173,,isi,,html-keyboard-response,173,322745,0.0-1.0-236.0,0,0,76870,,,,,,33.0,,1.0,,,,,,,,,,,,,190.5,1.0,,,,,,,,,
174,,feedback,,html-keyboard-response,174,323748,0.0-1.0-237.0-0.0,0,0,76870,,,,,,33.0,,1.0,,,,,,,,,,,,,191.5,1.0,,,,,,,,,
175,,iti,,html-keyboard-response,175,324751,0.0-1.0-238.0,0,0,76870,,,,,,33.0,,1.0,,,,,,,,,,,,,192.5,1.0,,,,,,,,,
176,,rl_choice,,html-keyboard-response,176,325284,0.0-1.0-240.0,0,0,76870,,531.0,,,75.0,34.0,34.0,1.0,hard,1500.0,1000.0,0.0,40.0,60.0,40.0,40.0,A,B,/static/Simple_RL/Stimuli/Fractals_stims/A.jpg,/static/Simple_RL/Stimuli/Fractals_stims/B.jpg,193.031,0.531,0.0,0.0,60.0,40.0,40.0,40.0,B,A,
177,,rl_choice_confirmation,,html-keyboard-response,177,326256,0.0-1.0-241.0-0.0,0,0,76870,,,,,,34.0,,1.0,,,,,,,,,,,,,194.0,0.969,,,,,,,,,
178,,isi,,html-keyboard-response,178,327259,0.0-1.0-243.0,0,0,76870,,,,,,34.0,,1.0,,,,,,,,,,,,,195.0,1.0,,,,,,,,,
179,,feedback,,html-keyboard-response,179,328262,0.0-1.0-244.0-0.0,0,0,76870,,,,,,34.0,,1.0,,,,,,,,,,,,,196.0,1.0,,,,,,,,,
180,,iti,,html-keyboard-response,180,329766,0.0-1.0-245.0,0,0,76870,,,,,,34.0,,1.0,,,,,,,,,,,,,197.5,1.5,,,,,,,,,
181,,rl_choice,,html-keyboard-response,181,330153,0.0-1.0-247.0,0,0,76870,,386.0,,,68.0,35.0,35.0,1.0,hard,1000.0,3000.0,0.0,40.0,60.0,40.0,40.0,A,B,/static/Simple_RL/Stimuli/Fractals_stims/A.jpg,/static/Simple_RL/Stimuli/Fractals_stims/B.jpg,197.886,0.386,0.0,1.0,40.0,60.0,40.0,40.0,A,B,
182,,rl_choice_confirmation,,html-keyboard-response,182,331271,0.0-1.0-248.0-0.0,0,0,76870,,,,,,35.0,,1.0,,,,,,,,,,,,,199.0,1.114,,,,,,,,,
183,,isi,,html-keyboard-response,183,334272,0.0-1.0-250.0,0,0,76870,,,,,,35.0,,1.0,,,,,,,,,,,,,202.0,3.0,,,,,,,,,
184,,feedback,,html-keyboard-response,184,335277,0.0-1.0-251.0-0.0,0,0,76870,,,,,,35.0,,1.0,,,,,,,,,,,,,203.0,1.0,,,,,,,,,
185,,iti,,html-keyboard-response,185,336280,0.0-1.0-252.0,0,0,76870,,,,,,35.0,,1.0,,,,,,,,,,,,,204.0,1.0,,,,,,,,,
186,,rl_choice,,html-keyboard-response,186,336888,0.0-1.0-254.0,0,0,76870,,605.0,,,75.0,36.0,36.0,1.0,easy,1000.0,3500.0,0.0,20.0,80.0,0.0,80.0,C,D,/static/Simple_RL/Stimuli/Fractals_stims/C.jpg,/static/Simple_RL/Stimuli/Fractals_stims/D.jpg,204.605,0.605,0.0,0.0,80.0,20.0,80.0,0.0,D,C,
187,,rl_choice_confirmation,,html-keyboard-response,187,337786,0.0-1.0-255.0-0.0,0,0,76870,,,,,,36.0,,1.0,,,,,,,,,,,,,205.5,0.895,,,,,,,,,
188,,isi,,html-keyboard-response,188,341290,0.0-1.0-257.0,0,0,76870,,,,,,36.0,,1.0,,,,,,,,,,,,,209.0,3.5,,,,,,,,,
189,,feedback,,html-keyboard-response,189,342293,0.0-1.0-258.0-0.0,0,0,76870,,,,,,36.0,,1.0,,,,,,,,,,,,,210.0,1.0,,,,,,,,,
190,,iti,,html-keyboard-response,190,343296,0.0-1.0-259.0,0,0,76870,,,,,,36.0,,1.0,,,,,,,,,,,,,211.0,1.0,,,,,,,,,
191,,rl_choice,,html-keyboard-response,191,343913,0.0-1.0-261.0,0,0,76870,,616.0,,,75.0,37.0,37.0,1.0,hard,2000.0,1500.0,1.0,60.0,40.0,40.0,20.0,B,A,/static/Simple_RL/Stimuli/Fractals_stims/B.jpg,/static/Simple_RL/Stimuli/Fractals_stims/A.jpg,211.616,0.616,0.0,0.0,40.0,60.0,20.0,40.0,A,B,
192,,rl_choice_confirmation,,html-keyboard-response,192,344801,0.0-1.0-262.0-0.0,0,0,76870,,,,,,37.0,,1.0,,,,,,,,,,,,,212.5,0.884,,,,,,,,,
193,,isi,,html-keyboard-response,193,346303,0.0-1.0-264.0,0,0,76870,,,,,,37.0,,1.0,,,,,,,,,,,,,214.0,1.5,,,,,,,,,
194,,feedback,,html-keyboard-response,194,347306,0.0-1.0-265.0-0.0,0,0,76870,,,,,,37.0,,1.0,,,,,,,,,,,,,215.0,1.0,,,,,,,,,
195,,iti,,html-keyboard-response,195,349310,0.0-1.0-266.0,0,0,76870,,,,,,37.0,,1.0,,,,,,,,,,,,,217.0,2.0,,,,,,,,,
196,,rl_choice,,html-keyboard-response,196,349795,0.0-1.0-268.0,0,0,76870,,483.0,,,75.0,38.0,38.0,1.0,hard,3000.0,1000.0,1.0,60.0,40.0,40.0,40.0,B,A,/static/Simple_RL/Stimuli/Fractals_stims/B.jpg,/static/Simple_RL/Stimuli/Fractals_stims/A.jpg,217.483,0.483,0.0,0.0,40.0,60.0,40.0,40.0,A,B,
197,,rl_choice_confirmation,,html-keyboard-response,197,350815,0.0-1.0-269.0-0.0,0,0,76870,,,,,,38.0,,1.0,,,,,,,,,,,,,218.5,1.017,,,,,,,,,
198,,isi,,html-keyboard-response,198,351818,0.0-1.0-271.0,0,0,76870,,,,,,38.0,,1.0,,,,,,,,,,,,,219.5,1.0,,,,,,,,,
199,,feedback,,html-keyboard-response,199,352821,0.0-1.0-272.0-0.0,0,0,76870,,,,,,38.0,,1.0,,,,,,,,,,,,,220.5,1.0,,,,,,,,,
200,,iti,,html-keyboard-response,200,355824,0.0-1.0-273.0,0,0,76870,,,,,,38.0,,1.0,,,,,,,,,,,,,223.5,3.0,,,,,,,,,
201,,rl_choice,,html-keyboard-response,201,356230,0.0-1.0-275.0,0,0,76870,,404.0,,,75.0,39.0,39.0,1.0,easy,3000.0,3000.0,1.0,80.0,20.0,100.0,0.0,D,C,/static/Simple_RL/Stimuli/Fractals_stims/D.jpg,/static/Simple_RL/Stimuli/Fractals_stims/C.jpg,223.904,0.404,0.0,0.0,20.0,80.0,0.0,100.0,C,D,
202,,rl_choice_confirmation,,html-keyboard-response,202,357329,0.0-1.0-276.0-0.0,0,0,76870,,,,,,39.0,,1.0,,,,,,,,,,,,,225.0,1.096,,,,,,,,,
203,,isi,,html-keyboard-response,203,360331,0.0-1.0-278.0,0,0,76870,,,,,,39.0,,1.0,,,,,,,,,,,,,228.0,3.0,,,,,,,,,
204,,feedback,,html-keyboard-response,204,361333,0.0-1.0-279.0-0.0,0,0,76870,,,,,,39.0,,1.0,,,,,,,,,,,,,229.0,1.0,,,,,,,,,
205,,iti,,html-keyboard-response,205,364335,0.0-1.0-280.0,0,0,76870,,,,,,39.0,,1.0,,,,,,,,,,,,,232.0,3.0,,,,,,,,,
206,,block_over,,html-keyboard-response,206,367634,0.0-1.0-281.0-0.0,0,0,76870,,3295.0,,,68.0,39.0,,,,,,,,,,,,,,,,,,,,,,,,,
207,,start_run,,html-keyboard-response,207,369288,0.0-1.0-281.0-1.0,0,0,76870,,1654.0,,,84.0,,,,,,,,,,,,,,,,,,,,,,,,,,
208,,rl_choice,,html-keyboard-response,208,370061,0.0-1.0-282.0,0,0,76870,,771.0,,,68.0,40.0,40.0,2.0,hard,2000.0,1000.0,1.0,60.0,40.0,80.0,40.0,B,A,/static/Simple_RL/Stimuli/Fractals_stims/B.jpg,/static/Simple_RL/Stimuli/Fractals_stims/A.jpg,0.771,0.771,0.0,1.0,60.0,40.0,80.0,40.0,B,A,
209,,rl_choice_confirmation,,html-keyboard-response,209,370794,0.0-1.0-283.0-0.0,0,0,76870,,,,,,40.0,,2.0,,,,,,,,,,,,,1.5,0.729,,,,,,,,,
210,,isi,,html-keyboard-response,210,371797,0.0-1.0-285.0,0,0,76870,,,,,,40.0,,2.0,,,,,,,,,,,,,2.5,1.0,,,,,,,,,
211,,feedback,,html-keyboard-response,211,372799,0.0-1.0-286.0-0.0,0,0,76870,,,,,,40.0,,2.0,,,,,,,,,,,,,3.5,1.0,,,,,,,,,
212,,iti,,html-keyboard-response,212,374802,0.0-1.0-287.0,0,0,76870,,,,,,40.0,,2.0,,,,,,,,,,,,,5.5,2.0,,,,,,,,,
213,,rl_choice,,html-keyboard-response,213,375170,0.0-1.0-289.0,0,0,76870,,366.0,,,75.0,41.0,41.0,2.0,easy,1000.0,2000.0,0.0,20.0,80.0,20.0,80.0,C,D,/static/Simple_RL/Stimuli/Fractals_stims/C.jpg,/static/Simple_RL/Stimuli/Fractals_stims/D.jpg,5.866,0.366,0.0,0.0,80.0,20.0,80.0,20.0,D,C,
214,,rl_choice_confirmation,,html-keyboard-response,214,376308,0.0-1.0-290.0-0.0,0,0,76870,,,,,,41.0,,2.0,,,,,,,,,,,,,7.0,1.134,,,,,,,,,
215,,isi,,html-keyboard-response,215,378309,0.0-1.0-292.0,0,0,76870,,,,,,41.0,,2.0,,,,,,,,,,,,,9.0,2.0,,,,,,,,,
216,,feedback,,html-keyboard-response,216,379311,0.0-1.0-293.0-0.0,0,0,76870,,,,,,41.0,,2.0,,,,,,,,,,,,,10.0,1.0,,,,,,,,,
217,,iti,,html-keyboard-response,217,380314,0.0-1.0-294.0,0,0,76870,,,,,,41.0,,2.0,,,,,,,,,,,,,11.0,1.0,,,,,,,,,
218,,rl_choice,,html-keyboard-response,218,380742,0.0-1.0-296.0,0,0,76870,,426.0,,,68.0,42.0,42.0,2.0,easy,3500.0,2000.0,1.0,80.0,20.0,100.0,20.0,D,C,/static/Simple_RL/Stimuli/Fractals_stims/D.jpg,/static/Simple_RL/Stimuli/Fractals_stims/C.jpg,11.426,0.426,0.0,1.0,80.0,20.0,100.0,20.0,D,C,
219,,rl_choice_confirmation,,html-keyboard-response,219,381818,0.0-1.0-297.0-0.0,0,0,76870,,,,,,42.0,,2.0,,,,,,,,,,,,,12.5,1.074,,,,,,,,,
220,,isi,,html-keyboard-response,220,383821,0.0-1.0-299.0,0,0,76870,,,,,,42.0,,2.0,,,,,,,,,,,,,14.5,2.0,,,,,,,,,
221,,feedback,,html-keyboard-response,221,384823,0.0-1.0-300.0-0.0,0,0,76870,,,,,,42.0,,2.0,,,,,,,,,,,,,15.5,1.0,,,,,,,,,
222,,iti,,html-keyboard-response,222,388325,0.0-1.0-301.0,0,0,76870,,,,,,42.0,,2.0,,,,,,,,,,,,,19.0,3.5,,,,,,,,,
223,,rl_choice,,html-keyboard-response,223,388778,0.0-1.0-303.0,0,0,76870,,451.0,,,75.0,43.0,43.0,2.0,easy,2000.0,1000.0,0.0,20.0,80.0,20.0,80.0,C,D,/static/Simple_RL/Stimuli/Fractals_stims/C.jpg,/static/Simple_RL/Stimuli/Fractals_stims/D.jpg,19.451,0.451,0.0,0.0,80.0,20.0,80.0,20.0,D,C,
224,,rl_choice_confirmation,,html-keyboard-response,224,389830,0.0-1.0-304.0-0.0,0,0,76870,,,,,,43.0,,2.0,,,,,,,,,,,,,20.5,1.049,,,,,,,,,
225,,isi,,html-keyboard-response,225,390833,0.0-1.0-306.0,0,0,76870,,,,,,43.0,,2.0,,,,,,,,,,,,,21.5,1.0,,,,,,,,,
226,,feedback,,html-keyboard-response,226,391835,0.0-1.0-307.0-0.0,0,0,76870,,,,,,43.0,,2.0,,,,,,,,,,,,,22.5,1.0,,,,,,,,,
227,,iti,,html-keyboard-response,227,393838,0.0-1.0-308.0,0,0,76870,,,,,,43.0,,2.0,,,,,,,,,,,,,24.5,2.0,,,,,,,,,
228,,rl_choice,,html-keyboard-response,228,394230,0.0-1.0-310.0,0,0,76870,,390.0,,,68.0,44.0,44.0,2.0,easy,2000.0,1000.0,0.0,20.0,80.0,40.0,80.0,C,D,/static/Simple_RL/Stimuli/Fractals_stims/C.jpg,/static/Simple_RL/Stimuli/Fractals_stims/D.jpg,24.89,0.39,0.0,1.0,20.0,80.0,40.0,80.0,C,D,
229,,rl_choice_confirmation,,html-keyboard-response,229,395343,0.0-1.0-311.0-0.0,0,0,76870,,,,,,44.0,,2.0,,,,,,,,,,,,,26.0,1.11,,,,,,,,,
230,,isi,,html-keyboard-response,230,396345,0.0-1.0-313.0,0,0,76870,,,,,,44.0,,2.0,,,,,,,,,,,,,27.0,1.0,,,,,,,,,
231,,feedback,,html-keyboard-response,231,397347,0.0-1.0-314.0-0.0,0,0,76870,,,,,,44.0,,2.0,,,,,,,,,,,,,28.0,1.0,,,,,,,,,
232,,iti,,html-keyboard-response,232,399349,0.0-1.0-315.0,0,0,76870,,,,,,44.0,,2.0,,,,,,,,,,,,,30.0,2.0,,,,,,,,,
233,,rl_choice,,html-keyboard-response,233,399782,0.0-1.0-317.0,0,0,76870,,430.0,,,75.0,45.0,45.0,2.0,easy,1000.0,1000.0,1.0,80.0,20.0,100.0,20.0,D,C,/static/Simple_RL/Stimuli/Fractals_stims/D.jpg,/static/Simple_RL/Stimuli/Fractals_stims/C.jpg,30.43,0.43,0.0,0.0,20.0,80.0,20.0,100.0,C,D,
234,,rl_choice_confirmation,,html-keyboard-response,234,400855,0.0-1.0-318.0-0.0,0,0,76870,,,,,,45.0,,2.0,,,,,,,,,,,,,31.5,1.07,,,,,,,,,
235,,isi,,html-keyboard-response,235,401858,0.0-1.0-320.0,0,0,76870,,,,,,45.0,,2.0,,,,,,,,,,,,,32.5,1.0,,,,,,,,,
236,,feedback,,html-keyboard-response,236,402861,0.0-1.0-321.0-0.0,0,0,76870,,,,,,45.0,,2.0,,,,,,,,,,,,,33.5,1.0,,,,,,,,,
237,,iti,,html-keyboard-response,237,403863,0.0-1.0-322.0,0,0,76870,,,,,,45.0,,2.0,,,,,,,,,,,,,34.5,1.0,,,,,,,,,
238,,rl_choice,,html-keyboard-response,238,405224,0.0-1.0-324.0,0,0,76870,,1360.0,,,68.0,46.0,46.0,2.0,easy,1000.0,1500.0,0.0,20.0,80.0,40.0,80.0,C,D,/static/Simple_RL/Stimuli/Fractals_stims/C.jpg,/static/Simple_RL/Stimuli/Fractals_stims/D.jpg,35.86,1.36,0.0,1.0,20.0,80.0,40.0,80.0,C,D,
239,,rl_choice_confirmation,,html-keyboard-response,239,405368,0.0-1.0-325.0-0.0,0,0,76870,,,,,,46.0,,2.0,,,,,,,,,,,,,36.0,0.14,,,,,,,,,
240,,isi,,html-keyboard-response,240,406870,0.0-1.0-327.0,0,0,76870,,,,,,46.0,,2.0,,,,,,,,,,,,,37.5,1.5,,,,,,,,,
241,,feedback,,html-keyboard-response,241,407874,0.0-1.0-328.0-0.0,0,0,76870,,,,,,46.0,,2.0,,,,,,,,,,,,,38.5,1.0,,,,,,,,,
242,,iti,,html-keyboard-response,242,408876,0.0-1.0-329.0,0,0,76870,,,,,,46.0,,2.0,,,,,,,,,,,,,39.5,1.0,,,,,,,,,
243,,rl_choice,,html-keyboard-response,243,409361,0.0-1.0-331.0,0,0,76870,,483.0,,,68.0,47.0,47.0,2.0,easy,1000.0,3000.0,0.0,20.0,80.0,0.0,100.0,C,D,/static/Simple_RL/Stimuli/Fractals_stims/C.jpg,/static/Simple_RL/Stimuli/Fractals_stims/D.jpg,39.983,0.483,0.0,1.0,20.0,80.0,0.0,100.0,C,D,
244,,rl_choice_confirmation,,html-keyboard-response,244,410380,0.0-1.0-332.0-0.0,0,0,76870,,,,,,47.0,,2.0,,,,,,,,,,,,,41.0,1.017,,,,,,,,,
245,,isi,,html-keyboard-response,245,413383,0.0-1.0-334.0,0,0,76870,,,,,,47.0,,2.0,,,,,,,,,,,,,44.0,3.0,,,,,,,,,
246,,feedback,,html-keyboard-response,246,414387,0.0-1.0-335.0-0.0,0,0,76870,,,,,,47.0,,2.0,,,,,,,,,,,,,45.0,1.0,,,,,,,,,
247,,iti,,html-keyboard-response,247,415389,0.0-1.0-336.0,0,0,76870,,,,,,47.0,,2.0,,,,,,,,,,,,,46.0,1.0,,,,,,,,,
248,,rl_choice,,html-keyboard-response,248,416127,0.0-1.0-338.0,0,0,76870,,735.0,,,75.0,48.0,48.0,2.0,hard,1000.0,1000.0,0.0,40.0,60.0,60.0,60.0,A,B,/static/Simple_RL/Stimuli/Fractals_stims/A.jpg,/static/Simple_RL/Stimuli/Fractals_stims/B.jpg,46.735,0.735,0.0,0.0,60.0,40.0,60.0,60.0,B,A,
249,,rl_choice_confirmation,,html-keyboard-response,249,416895,0.0-1.0-339.0-0.0,0,0,76870,,,,,,48.0,,2.0,,,,,,,,,,,,,47.5,0.765,,,,,,,,,
250,,isi,,html-keyboard-response,250,417898,0.0-1.0-341.0,0,0,76870,,,,,,48.0,,2.0,,,,,,,,,,,,,48.5,1.0,,,,,,,,,
251,,feedback,,html-keyboard-response,251,418901,0.0-1.0-342.0-0.0,0,0,76870,,,,,,48.0,,2.0,,,,,,,,,,,,,49.5,1.0,,,,,,,,,
252,,iti,,html-keyboard-response,252,419903,0.0-1.0-343.0,0,0,76870,,,,,,48.0,,2.0,,,,,,,,,,,,,50.5,1.0,,,,,,,,,
253,,rl_choice,,html-keyboard-response,253,420417,0.0-1.0-345.0,0,0,76870,,512.0,,,68.0,49.0,49.0,2.0,easy,1500.0,2000.0,0.0,20.0,80.0,40.0,60.0,C,D,/static/Simple_RL/Stimuli/Fractals_stims/C.jpg,/static/Simple_RL/Stimuli/Fractals_stims/D.jpg,51.012,0.512,0.0,1.0,20.0,80.0,40.0,60.0,C,D,
254,,rl_choice_confirmation,,html-keyboard-response,254,421408,0.0-1.0-346.0-0.0,0,0,76870,,,,,,49.0,,2.0,,,,,,,,,,,,,52.0,0.988,,,,,,,,,
255,,isi,,html-keyboard-response,255,423411,0.0-1.0-348.0,0,0,76870,,,,,,49.0,,2.0,,,,,,,,,,,,,54.0,2.0,,,,,,,,,
256,,feedback,,html-keyboard-response,256,424413,0.0-1.0-349.0-0.0,0,0,76870,,,,,,49.0,,2.0,,,,,,,,,,,,,55.0,1.0,,,,,,,,,
257,,iti,,html-keyboard-response,257,425916,0.0-1.0-350.0,0,0,76870,,,,,,49.0,,2.0,,,,,,,,,,,,,56.5,1.5,,,,,,,,,
258,,rl_choice,,html-keyboard-response,258,426370,0.0-1.0-352.0,0,0,76870,,453.0,,,75.0,50.0,50.0,2.0,easy,1000.0,1000.0,1.0,80.0,20.0,80.0,0.0,D,C,/static/Simple_RL/Stimuli/Fractals_stims/D.jpg,/static/Simple_RL/Stimuli/Fractals_stims/C.jpg,56.953,0.453,0.0,0.0,20.0,80.0,0.0,80.0,C,D,
259,,rl_choice_confirmation,,html-keyboard-response,259,427421,0.0-1.0-353.0-0.0,0,0,76870,,,,,,50.0,,2.0,,,,,,,,,,,,,58.0,1.047,,,,,,,,,
260,,isi,,html-keyboard-response,260,428424,0.0-1.0-355.0,0,0,76870,,,,,,50.0,,2.0,,,,,,,,,,,,,59.0,1.0,,,,,,,,,
261,,feedback,,html-keyboard-response,261,429427,0.0-1.0-356.0-0.0,0,0,76870,,,,,,50.0,,2.0,,,,,,,,,,,,,60.0,1.0,,,,,,,,,
262,,iti,,html-keyboard-response,262,430429,0.0-1.0-357.0,0,0,76870,,,,,,50.0,,2.0,,,,,,,,,,,,,61.0,1.0,,,,,,,,,
263,,rl_choice,,html-keyboard-response,263,431106,0.0-1.0-359.0,0,0,76870,,676.0,,,75.0,51.0,51.0,2.0,easy,3000.0,1500.0,0.0,20.0,80.0,20.0,80.0,C,D,/static/Simple_RL/Stimuli/Fractals_stims/C.jpg,/static/Simple_RL/Stimuli/Fractals_stims/D.jpg,61.676,0.676,0.0,0.0,80.0,20.0,80.0,20.0,D,C,
264,,rl_choice_confirmation,,html-keyboard-response,264,431934,0.0-1.0-360.0-0.0,0,0,76870,,,,,,51.0,,2.0,,,,,,,,,,,,,62.5,0.824,,,,,,,,,
265,,isi,,html-keyboard-response,265,433435,0.0-1.0-362.0,0,0,76870,,,,,,51.0,,2.0,,,,,,,,,,,,,64.0,1.5,,,,,,,,,
266,,feedback,,html-keyboard-response,266,434437,0.0-1.0-363.0-0.0,0,0,76870,,,,,,51.0,,2.0,,,,,,,,,,,,,65.0,1.0,,,,,,,,,
267,,iti,,html-keyboard-response,267,437441,0.0-1.0-364.0,0,0,76870,,,,,,51.0,,2.0,,,,,,,,,,,,,68.0,3.0,,,,,,,,,
268,,rl_choice,,html-keyboard-response,268,437831,0.0-1.0-366.0,0,0,76870,,388.0,,,68.0,52.0,52.0,2.0,hard,1000.0,1000.0,0.0,40.0,60.0,40.0,40.0,A,B,/static/Simple_RL/Stimuli/Fractals_stims/A.jpg,/static/Simple_RL/Stimuli/Fractals_stims/B.jpg,68.388,0.388,0.0,1.0,40.0,60.0,40.0,40.0,A,B,
269,,rl_choice_confirmation,,html-keyboard-response,269,438946,0.0-1.0-367.0-0.0,0,0,76870,,,,,,52.0,,2.0,,,,,,,,,,,,,69.5,1.112,,,,,,,,,
270,,isi,,html-keyboard-response,270,439949,0.0-1.0-369.0,0,0,76870,,,,,,52.0,,2.0,,,,,,,,,,,,,70.5,1.0,,,,,,,,,
271,,feedback,,html-keyboard-response,271,440952,0.0-1.0-370.0-0.0,0,0,76870,,,,,,52.0,,2.0,,,,,,,,,,,,,71.5,1.0,,,,,,,,,
272,,iti,,html-keyboard-response,272,441954,0.0-1.0-371.0,0,0,76870,,,,,,52.0,,2.0,,,,,,,,,,,,,72.5,1.0,,,,,,,,,
273,,rl_choice,,html-keyboard-response,273,442527,0.0-1.0-373.0,0,0,76870,,571.0,,,75.0,53.0,53.0,2.0,hard,3000.0,1500.0,0.0,40.0,60.0,40.0,40.0,A,B,/static/Simple_RL/Stimuli/Fractals_stims/A.jpg,/static/Simple_RL/Stimuli/Fractals_stims/B.jpg,73.071,0.571,0.0,0.0,60.0,40.0,40.0,40.0,B,A,
274,,rl_choice_confirmation,,html-keyboard-response,274,443460,0.0-1.0-374.0-0.0,0,0,76870,,,,,,53.0,,2.0,,,,,,,,,,,,,74.0,0.929,,,,,,,,,
275,,isi,,html-keyboard-response,275,444962,0.0-1.0-376.0,0,0,76870,,,,,,53.0,,2.0,,,,,,,,,,,,,75.5,1.5,,,,,,,,,
276,,feedback,,html-keyboard-response,276,445964,0.0-1.0-377.0-0.0,0,0,76870,,,,,,53.0,,2.0,,,,,,,,,,,,,76.5,1.0,,,,,,,,,
277,,iti,,html-keyboard-response,277,448966,0.0-1.0-378.0,0,0,76870,,,,,,53.0,,2.0,,,,,,,,,,,,,79.5,3.0,,,,,,,,,
278,,rl_choice,,html-keyboard-response,278,449570,0.0-1.0-380.0,0,0,76870,,602.0,,,75.0,54.0,54.0,2.0,hard,1500.0,1500.0,0.0,40.0,60.0,20.0,80.0,A,B,/static/Simple_RL/Stimuli/Fractals_stims/A.jpg,/static/Simple_RL/Stimuli/Fractals_stims/B.jpg,80.102,0.602,0.0,0.0,60.0,40.0,80.0,20.0,B,A,
279,,rl_choice_confirmation,,html-keyboard-response,279,450472,0.0-1.0-381.0-0.0,0,0,76870,,,,,,54.0,,2.0,,,,,,,,,,,,,81.0,0.898,,,,,,,,,
280,,isi,,html-keyboard-response,280,451974,0.0-1.0-383.0,0,0,76870,,,,,,54.0,,2.0,,,,,,,,,,,,,82.5,1.5,,,,,,,,,
281,,feedback,,html-keyboard-response,281,452977,0.0-1.0-384.0-0.0,0,0,76870,,,,,,54.0,,2.0,,,,,,,,,,,,,83.5,1.0,,,,,,,,,
282,,iti,,html-keyboard-response,282,454479,0.0-1.0-385.0,0,0,76870,,,,,,54.0,,2.0,,,,,,,,,,,,,85.0,1.5,,,,,,,,,
283,,rl_choice,,html-keyboard-response,283,454969,0.0-1.0-387.0,0,0,76870,,488.0,,,68.0,55.0,55.0,2.0,easy,1500.0,1500.0,1.0,80.0,20.0,80.0,0.0,D,C,/static/Simple_RL/Stimuli/Fractals_stims/D.jpg,/static/Simple_RL/Stimuli/Fractals_stims/C.jpg,85.488,0.488,0.0,1.0,80.0,20.0,80.0,0.0,D,C,
284,,rl_choice_confirmation,,html-keyboard-response,284,455984,0.0-1.0-388.0-0.0,0,0,76870,,,,,,55.0,,2.0,,,,,,,,,,,,,86.5,1.012,,,,,,,,,
285,,isi,,html-keyboard-response,285,457486,0.0-1.0-390.0,0,0,76870,,,,,,55.0,,2.0,,,,,,,,,,,,,88.0,1.5,,,,,,,,,
286,,feedback,,html-keyboard-response,286,458489,0.0-1.0-391.0-0.0,0,0,76870,,,,,,55.0,,2.0,,,,,,,,,,,,,89.0,1.0,,,,,,,,,
287,,iti,,html-keyboard-response,287,459992,0.0-1.0-392.0,0,0,76870,,,,,,55.0,,2.0,,,,,,,,,,,,,90.5,1.5,,,,,,,,,
288,,rl_choice,,html-keyboard-response,288,460428,0.0-1.0-394.0,0,0,76870,,435.0,,,75.0,56.0,56.0,2.0,hard,1500.0,2000.0,1.0,60.0,40.0,60.0,60.0,B,A,/static/Simple_RL/Stimuli/Fractals_stims/B.jpg,/static/Simple_RL/Stimuli/Fractals_stims/A.jpg,90.935,0.435,0.0,0.0,40.0,60.0,60.0,60.0,A,B,
289,,rl_choice_confirmation,,html-keyboard-response,289,461496,0.0-1.0-395.0-0.0,0,0,76870,,,,,,56.0,,2.0,,,,,,,,,,,,,92.0,1.065,,,,,,,,,
290,,isi,,html-keyboard-response,290,463499,0.0-1.0-397.0,0,0,76870,,,,,,56.0,,2.0,,,,,,,,,,,,,94.0,2.0,,,,,,,,,
291,,feedback,,html-keyboard-response,291,464502,0.0-1.0-398.0-0.0,0,0,76870,,,,,,56.0,,2.0,,,,,,,,,,,,,95.0,1.0,,,,,,,,,
292,,iti,,html-keyboard-response,292,466004,0.0-1.0-399.0,0,0,76870,,,,,,56.0,,2.0,,,,,,,,,,,,,96.5,1.5,,,,,,,,,
293,,rl_choice,,html-keyboard-response,293,466822,0.0-1.0-401.0,0,0,76870,,816.0,,,75.0,57.0,57.0,2.0,hard,1500.0,2000.0,1.0,60.0,40.0,60.0,60.0,B,A,/static/Simple_RL/Stimuli/Fractals_stims/B.jpg,/static/Simple_RL/Stimuli/Fractals_stims/A.jpg,97.316,0.816,0.0,0.0,40.0,60.0,60.0,60.0,A,B,
294,,rl_choice_confirmation,,html-keyboard-response,294,467509,0.0-1.0-402.0-0.0,0,0,76870,,,,,,57.0,,2.0,,,,,,,,,,,,,98.0,0.684,,,,,,,,,
295,,isi,,html-keyboard-response,295,469511,0.0-1.0-404.0,0,0,76870,,,,,,57.0,,2.0,,,,,,,,,,,,,100.0,2.0,,,,,,,,,
296,,feedback,,html-keyboard-response,296,470515,0.0-1.0-405.0-0.0,0,0,76870,,,,,,57.0,,2.0,,,,,,,,,,,,,101.0,1.0,,,,,,,,,
297,,iti,,html-keyboard-response,297,472018,0.0-1.0-406.0,0,0,76870,,,,,,57.0,,2.0,,,,,,,,,,,,,102.5,1.5,,,,,,,,,
298,,rl_choice,,html-keyboard-response,298,472653,0.0-1.0-408.0,0,0,76870,,633.0,,,68.0,58.0,58.0,2.0,easy,1000.0,2000.0,0.0,20.0,80.0,0.0,60.0,C,D,/static/Simple_RL/Stimuli/Fractals_stims/C.jpg,/static/Simple_RL/Stimuli/Fractals_stims/D.jpg,103.133,0.633,0.0,1.0,20.0,80.0,0.0,60.0,C,D,
299,,rl_choice_confirmation,,html-keyboard-response,299,473522,0.0-1.0-409.0-0.0,0,0,76870,,,,,,58.0,,2.0,,,,,,,,,,,,,104.0,0.867,,,,,,,,,
300,,isi,,html-keyboard-response,300,475525,0.0-1.0-411.0,0,0,76870,,,,,,58.0,,2.0,,,,,,,,,,,,,106.0,2.0,,,,,,,,,
301,,feedback,,html-keyboard-response,301,476529,0.0-1.0-412.0-0.0,0,0,76870,,,,,,58.0,,2.0,,,,,,,,,,,,,107.0,1.0,,,,,,,,,
302,,iti,,html-keyboard-response,302,477532,0.0-1.0-413.0,0,0,76870,,,,,,58.0,,2.0,,,,,,,,,,,,,108.0,1.0,,,,,,,,,
303,,rl_choice,,html-keyboard-response,303,478146,0.0-1.0-415.0,0,0,76870,,612.0,,,68.0,59.0,59.0,2.0,easy,1000.0,1000.0,1.0,80.0,20.0,80.0,0.0,D,C,/static/Simple_RL/Stimuli/Fractals_stims/D.jpg,/static/Simple_RL/Stimuli/Fractals_stims/C.jpg,108.612,0.612,0.0,1.0,80.0,20.0,80.0,0.0,D,C,
304,,rl_choice_confirmation,,html-keyboard-response,304,479037,0.0-1.0-416.0-0.0,0,0,76870,,,,,,59.0,,2.0,,,,,,,,,,,,,109.5,0.888,,,,,,,,,
305,,isi,,html-keyboard-response,305,480039,0.0-1.0-418.0,0,0,76870,,,,,,59.0,,2.0,,,,,,,,,,,,,110.5,1.0,,,,,,,,,
306,,feedback,,html-keyboard-response,306,481042,0.0-1.0-419.0-0.0,0,0,76870,,,,,,59.0,,2.0,,,,,,,,,,,,,111.5,1.0,,,,,,,,,
307,,iti,,html-keyboard-response,307,482045,0.0-1.0-420.0,0,0,76870,,,,,,59.0,,2.0,,,,,,,,,,,,,112.5,1.0,,,,,,,,,
308,,rl_choice,,html-keyboard-response,308,482706,0.0-1.0-422.0,0,0,76870,,659.0,,,68.0,60.0,60.0,2.0,easy,3000.0,1500.0,1.0,80.0,20.0,80.0,20.0,D,C,/static/Simple_RL/Stimuli/Fractals_stims/D.jpg,/static/Simple_RL/Stimuli/Fractals_stims/C.jpg,113.159,0.659,0.0,1.0,80.0,20.0,80.0,20.0,D,C,
309,,rl_choice_confirmation,,html-keyboard-response,309,483549,0.0-1.0-423.0-0.0,0,0,76870,,,,,,60.0,,2.0,,,,,,,,,,,,,114.0,0.841,,,,,,,,,
310,,isi,,html-keyboard-response,310,485052,0.0-1.0-425.0,0,0,76870,,,,,,60.0,,2.0,,,,,,,,,,,,,115.5,1.5,,,,,,,,,
311,,feedback,,html-keyboard-response,311,486055,0.0-1.0-426.0-0.0,0,0,76870,,,,,,60.0,,2.0,,,,,,,,,,,,,116.5,1.0,,,,,,,,,
312,,iti,,html-keyboard-response,312,489057,0.0-1.0-427.0,0,0,76870,,,,,,60.0,,2.0,,,,,,,,,,,,,119.5,3.0,,,,,,,,,
313,,rl_choice,,html-keyboard-response,313,490158,0.0-1.0-429.0,0,0,76870,,1099.0,,,75.0,61.0,61.0,2.0,hard,2000.0,1500.0,1.0,60.0,40.0,60.0,40.0,B,A,/static/Simple_RL/Stimuli/Fractals_stims/B.jpg,/static/Simple_RL/Stimuli/Fractals_stims/A.jpg,120.599,1.099,0.0,0.0,40.0,60.0,40.0,60.0,A,B,
314,,rl_choice_confirmation,,html-keyboard-response,314,490563,0.0-1.0-430.0-0.0,0,0,76870,,,,,,61.0,,2.0,,,,,,,,,,,,,121.0,0.401,,,,,,,,,
315,,isi,,html-keyboard-response,315,492065,0.0-1.0-432.0,0,0,76870,,,,,,61.0,,2.0,,,,,,,,,,,,,122.5,1.5,,,,,,,,,
316,,feedback,,html-keyboard-response,316,493069,0.0-1.0-433.0-0.0,0,0,76870,,,,,,61.0,,2.0,,,,,,,,,,,,,123.5,1.0,,,,,,,,,
317,,iti,,html-keyboard-response,317,495072,0.0-1.0-434.0,0,0,76870,,,,,,61.0,,2.0,,,,,,,,,,,,,125.5,2.0,,,,,,,,,
318,,rl_choice,,html-keyboard-response,318,495475,0.0-1.0-436.0,0,0,76870,,402.0,,,75.0,62.0,62.0,2.0,easy,1500.0,3000.0,1.0,80.0,20.0,60.0,40.0,D,C,/static/Simple_RL/Stimuli/Fractals_stims/D.jpg,/static/Simple_RL/Stimuli/Fractals_stims/C.jpg,125.902,0.402,0.0,0.0,20.0,80.0,40.0,60.0,C,D,
319,,rl_choice_confirmation,,html-keyboard-response,319,496575,0.0-1.0-437.0-0.0,0,0,76870,,,,,,62.0,,2.0,,,,,,,,,,,,,127.0,1.098,,,,,,,,,
320,,isi,,html-keyboard-response,320,499578,0.0-1.0-439.0,0,0,76870,,,,,,62.0,,2.0,,,,,,,,,,,,,130.0,3.0,,,,,,,,,
321,,feedback,,html-keyboard-response,321,500581,0.0-1.0-440.0-0.0,0,0,76870,,,,,,62.0,,2.0,,,,,,,,,,,,,131.0,1.0,,,,,,,,,
322,,iti,,html-keyboard-response,322,502084,0.0-1.0-441.0,0,0,76870,,,,,,62.0,,2.0,,,,,,,,,,,,,132.5,1.5,,,,,,,,,
323,,rl_choice,,html-keyboard-response,323,502119,0.0-1.0-443.0,0,0,76870,,32.0,,,68.0,63.0,63.0,2.0,hard,3000.0,3000.0,0.0,40.0,60.0,60.0,80.0,A,B,/static/Simple_RL/Stimuli/Fractals_stims/A.jpg,/static/Simple_RL/Stimuli/Fractals_stims/B.jpg,132.532,0.032,0.0,1.0,40.0,60.0,60.0,80.0,A,B,
324,,rl_choice_confirmation,,html-keyboard-response,324,503589,0.0-1.0-444.0-0.0,0,0,76870,,,,,,63.0,,2.0,,,,,,,,,,,,,134.0,1.468,,,,,,,,,
325,,isi,,html-keyboard-response,325,506591,0.0-1.0-446.0,0,0,76870,,,,,,63.0,,2.0,,,,,,,,,,,,,137.0,3.0,,,,,,,,,
326,,feedback,,html-keyboard-response,326,507594,0.0-1.0-447.0-0.0,0,0,76870,,,,,,63.0,,2.0,,,,,,,,,,,,,138.0,1.0,,,,,,,,,
327,,iti,,html-keyboard-response,327,510596,0.0-1.0-448.0,0,0,76870,,,,,,63.0,,2.0,,,,,,,,,,,,,141.0,3.0,,,,,,,,,
328,,rl_choice,,html-keyboard-response,328,511036,0.0-1.0-450.0,0,0,76870,,438.0,,,75.0,64.0,64.0,2.0,easy,2000.0,3500.0,1.0,80.0,20.0,60.0,0.0,D,C,/static/Simple_RL/Stimuli/Fractals_stims/D.jpg,/static/Simple_RL/Stimuli/Fractals_stims/C.jpg,141.438,0.438,0.0,0.0,20.0,80.0,0.0,60.0,C,D,
329,,rl_choice_confirmation,,html-keyboard-response,329,512102,0.0-1.0-451.0-0.0,0,0,76870,,,,,,64.0,,2.0,,,,,,,,,,,,,142.5,1.062,,,,,,,,,
330,,isi,,html-keyboard-response,330,515604,0.0-1.0-453.0,0,0,76870,,,,,,64.0,,2.0,,,,,,,,,,,,,146.0,3.5,,,,,,,,,
331,,feedback,,html-keyboard-response,331,516606,0.0-1.0-454.0-0.0,0,0,76870,,,,,,64.0,,2.0,,,,,,,,,,,,,147.0,1.0,,,,,,,,,
332,,iti,,html-keyboard-response,332,518609,0.0-1.0-455.0,0,0,76870,,,,,,64.0,,2.0,,,,,,,,,,,,,149.0,2.0,,,,,,,,,
333,,rl_choice,,html-keyboard-response,333,519002,0.0-1.0-457.0,0,0,76870,,391.0,,,68.0,65.0,65.0,2.0,hard,1000.0,3000.0,0.0,40.0,60.0,40.0,40.0,A,B,/static/Simple_RL/Stimuli/Fractals_stims/A.jpg,/static/Simple_RL/Stimuli/Fractals_stims/B.jpg,149.391,0.391,0.0,1.0,40.0,60.0,40.0,40.0,A,B,
334,,rl_choice_confirmation,,html-keyboard-response,334,520114,0.0-1.0-458.0-0.0,0,0,76870,,,,,,65.0,,2.0,,,,,,,,,,,,,150.5,1.109,,,,,,,,,
335,,isi,,html-keyboard-response,335,523116,0.0-1.0-460.0,0,0,76870,,,,,,65.0,,2.0,,,,,,,,,,,,,153.5,3.0,,,,,,,,,
336,,feedback,,html-keyboard-response,336,524119,0.0-1.0-461.0-0.0,0,0,76870,,,,,,65.0,,2.0,,,,,,,,,,,,,154.5,1.0,,,,,,,,,
337,,iti,,html-keyboard-response,337,525121,0.0-1.0-462.0,0,0,76870,,,,,,65.0,,2.0,,,,,,,,,,,,,155.5,1.0,,,,,,,,,
338,,rl_choice,,html-keyboard-response,338,526624,0.0-1.0-464.0,0,0,76870,,,,,,66.0,66.0,2.0,hard,1000.0,1000.0,1.0,60.0,40.0,80.0,60.0,B,A,/static/Simple_RL/Stimuli/Fractals_stims/B.jpg,/static/Simple_RL/Stimuli/Fractals_stims/A.jpg,157.0,1.5,1.0,,,,,,,,
339,,rl_choice_warning,,html-keyboard-response,339,527626,0.0-1.0-466.0-0.0,1,0,76870,,,,,,66.0,,2.0,,,,,,,,,,,,,158.0,1.0,,,,,,,,,
340,,isi,,html-keyboard-response,340,528628,0.0-1.0-467.0,0,0,76870,,,,,,66.0,,2.0,,,,,,,,,,,,,159.0,1.0,,,,,,,,,
341,,iti,,html-keyboard-response,341,529631,0.0-1.0-469.0,0,0,76870,,,,,,66.0,,2.0,,,,,,,,,,,,,160.0,1.0,,,,,,,,,
342,,rl_choice,,html-keyboard-response,342,530120,0.0-1.0-471.0,0,0,76870,,487.0,,,68.0,67.0,67.0,2.0,hard,1000.0,1000.0,0.0,40.0,60.0,40.0,80.0,A,B,/static/Simple_RL/Stimuli/Fractals_stims/A.jpg,/static/Simple_RL/Stimuli/Fractals_stims/B.jpg,160.487,0.487,0.0,1.0,40.0,60.0,40.0,80.0,A,B,
343,,rl_choice_confirmation,,html-keyboard-response,343,531137,0.0-1.0-472.0-0.0,0,0,76870,,,,,,67.0,,2.0,,,,,,,,,,,,,161.5,1.013,,,,,,,,,
344,,isi,,html-keyboard-response,344,532140,0.0-1.0-474.0,0,0,76870,,,,,,67.0,,2.0,,,,,,,,,,,,,162.5,1.0,,,,,,,,,
345,,feedback,,html-keyboard-response,345,533143,0.0-1.0-475.0-0.0,0,0,76870,,,,,,67.0,,2.0,,,,,,,,,,,,,163.5,1.0,,,,,,,,,
346,,iti,,html-keyboard-response,346,534146,0.0-1.0-476.0,0,0,76870,,,,,,67.0,,2.0,,,,,,,,,,,,,164.5,1.0,,,,,,,,,
347,,rl_choice,,html-keyboard-response,347,534597,0.0-1.0-478.0,0,0,76870,,448.0,,,75.0,68.0,68.0,2.0,easy,1500.0,1500.0,1.0,80.0,20.0,100.0,40.0,D,C,/static/Simple_RL/Stimuli/Fractals_stims/D.jpg,/static/Simple_RL/Stimuli/Fractals_stims/C.jpg,164.948,0.448,0.0,0.0,20.0,80.0,40.0,100.0,C,D,
348,,rl_choice_confirmation,,html-keyboard-response,348,535652,0.0-1.0-479.0-0.0,0,0,76870,,,,,,68.0,,2.0,,,,,,,,,,,,,166.0,1.052,,,,,,,,,
349,,isi,,html-keyboard-response,349,537155,0.0-1.0-481.0,0,0,76870,,,,,,68.0,,2.0,,,,,,,,,,,,,167.5,1.5,,,,,,,,,
350,,feedback,,html-keyboard-response,350,538158,0.0-1.0-482.0-0.0,0,0,76870,,,,,,68.0,,2.0,,,,,,,,,,,,,168.5,1.0,,,,,,,,,
351,,iti,,html-keyboard-response,351,539660,0.0-1.0-483.0,0,0,76870,,,,,,68.0,,2.0,,,,,,,,,,,,,170.0,1.5,,,,,,,,,
352,,rl_choice,,html-keyboard-response,352,540049,0.0-1.0-485.0,0,0,76870,,388.0,,,75.0,69.0,69.0,2.0,hard,2000.0,1000.0,0.0,40.0,60.0,60.0,60.0,A,B,/static/Simple_RL/Stimuli/Fractals_stims/A.jpg,/static/Simple_RL/Stimuli/Fractals_stims/B.jpg,170.388,0.388,0.0,0.0,60.0,40.0,60.0,60.0,B,A,
353,,rl_choice_confirmation,,html-keyboard-response,353,541165,0.0-1.0-486.0-0.0,0,0,76870,,,,,,69.0,,2.0,,,,,,,,,,,,,171.5,1.112,,,,,,,,,
354,,isi,,html-keyboard-response,354,542168,0.0-1.0-488.0,0,0,76870,,,,,,69.0,,2.0,,,,,,,,,,,,,172.5,1.0,,,,,,,,,
355,,feedback,,html-keyboard-response,355,543172,0.0-1.0-489.0-0.0,0,0,76870,,,,,,69.0,,2.0,,,,,,,,,,,,,173.5,1.0,,,,,,,,,
356,,iti,,html-keyboard-response,356,545175,0.0-1.0-490.0,0,0,76870,,,,,,69.0,,2.0,,,,,,,,,,,,,175.5,2.0,,,,,,,,,
357,,rl_choice,,html-keyboard-response,357,545721,0.0-1.0-492.0,0,0,76870,,544.0,,,75.0,70.0,70.0,2.0,hard,1000.0,3500.0,1.0,60.0,40.0,80.0,20.0,B,A,/static/Simple_RL/Stimuli/Fractals_stims/B.jpg,/static/Simple_RL/Stimuli/Fractals_stims/A.jpg,176.044,0.544,0.0,0.0,40.0,60.0,20.0,80.0,A,B,
358,,rl_choice_confirmation,,html-keyboard-response,358,546680,0.0-1.0-493.0-0.0,0,0,76870,,,,,,70.0,,2.0,,,,,,,,,,,,,177.0,0.956,,,,,,,,,
359,,isi,,html-keyboard-response,359,550181,0.0-1.0-495.0,0,0,76870,,,,,,70.0,,2.0,,,,,,,,,,,,,180.5,3.5,,,,,,,,,
360,,feedback,,html-keyboard-response,360,551184,0.0-1.0-496.0-0.0,0,0,76870,,,,,,70.0,,2.0,,,,,,,,,,,,,181.5,1.0,,,,,,,,,
361,,iti,,html-keyboard-response,361,552187,0.0-1.0-497.0,0,0,76870,,,,,,70.0,,2.0,,,,,,,,,,,,,182.5,1.0,,,,,,,,,
362,,rl_choice,,html-keyboard-response,362,552643,0.0-1.0-499.0,0,0,76870,,454.0,,,75.0,71.0,71.0,2.0,easy,2000.0,1000.0,1.0,80.0,20.0,100.0,20.0,D,C,/static/Simple_RL/Stimuli/Fractals_stims/D.jpg,/static/Simple_RL/Stimuli/Fractals_stims/C.jpg,182.954,0.454,0.0,0.0,20.0,80.0,20.0,100.0,C,D,
363,,rl_choice_confirmation,,html-keyboard-response,363,553692,0.0-1.0-500.0-0.0,0,0,76870,,,,,,71.0,,2.0,,,,,,,,,,,,,184.0,1.046,,,,,,,,,
364,,isi,,html-keyboard-response,364,554695,0.0-1.0-502.0,0,0,76870,,,,,,71.0,,2.0,,,,,,,,,,,,,185.0,1.0,,,,,,,,,
365,,feedback,,html-keyboard-response,365,555699,0.0-1.0-503.0-0.0,0,0,76870,,,,,,71.0,,2.0,,,,,,,,,,,,,186.0,1.0,,,,,,,,,
366,,iti,,html-keyboard-response,366,557702,0.0-1.0-504.0,0,0,76870,,,,,,71.0,,2.0,,,,,,,,,,,,,188.0,2.0,,,,,,,,,
367,,rl_choice,,html-keyboard-response,367,558181,0.0-1.0-506.0,0,0,76870,,477.0,,,68.0,72.0,72.0,2.0,easy,1500.0,1000.0,0.0,20.0,80.0,20.0,80.0,C,D,/static/Simple_RL/Stimuli/Fractals_stims/C.jpg,/static/Simple_RL/Stimuli/Fractals_stims/D.jpg,188.477,0.477,0.0,1.0,20.0,80.0,20.0,80.0,C,D,
368,,rl_choice_confirmation,,html-keyboard-response,368,559208,0.0-1.0-507.0-0.0,0,0,76870,,,,,,72.0,,2.0,,,,,,,,,,,,,189.5,1.023,,,,,,,,,
369,,isi,,html-keyboard-response,369,560211,0.0-1.0-509.0,0,0,76870,,,,,,72.0,,2.0,,,,,,,,,,,,,190.5,1.0,,,,,,,,,
370,,feedback,,html-keyboard-response,370,561215,0.0-1.0-510.0-0.0,0,0,76870,,,,,,72.0,,2.0,,,,,,,,,,,,,191.5,1.0,,,,,,,,,
371,,iti,,html-keyboard-response,371,562716,0.0-1.0-511.0,0,0,76870,,,,,,72.0,,2.0,,,,,,,,,,,,,193.0,1.5,,,,,,,,,
372,,rl_choice,,html-keyboard-response,372,563209,0.0-1.0-513.0,0,0,76870,,490.0,,,75.0,73.0,73.0,2.0,hard,1500.0,1500.0,0.0,40.0,60.0,40.0,80.0,A,B,/static/Simple_RL/Stimuli/Fractals_stims/A.jpg,/static/Simple_RL/Stimuli/Fractals_stims/B.jpg,193.49,0.49,0.0,0.0,60.0,40.0,80.0,40.0,B,A,
373,,rl_choice_confirmation,,html-keyboard-response,373,564221,0.0-1.0-514.0-0.0,0,0,76870,,,,,,73.0,,2.0,,,,,,,,,,,,,194.5,1.01,,,,,,,,,
374,,isi,,html-keyboard-response,374,565724,0.0-1.0-516.0,0,0,76870,,,,,,73.0,,2.0,,,,,,,,,,,,,196.0,1.5,,,,,,,,,
375,,feedback,,html-keyboard-response,375,566727,0.0-1.0-517.0-0.0,0,0,76870,,,,,,73.0,,2.0,,,,,,,,,,,,,197.0,1.0,,,,,,,,,
376,,iti,,html-keyboard-response,376,568230,0.0-1.0-518.0,0,0,76870,,,,,,73.0,,2.0,,,,,,,,,,,,,198.5,1.5,,,,,,,,,
377,,rl_choice,,html-keyboard-response,377,568657,0.0-1.0-520.0,0,0,76870,,426.0,,,68.0,74.0,74.0,2.0,hard,2000.0,1000.0,1.0,60.0,40.0,80.0,40.0,B,A,/static/Simple_RL/Stimuli/Fractals_stims/B.jpg,/static/Simple_RL/Stimuli/Fractals_stims/A.jpg,198.926,0.426,0.0,1.0,60.0,40.0,80.0,40.0,B,A,
378,,rl_choice_confirmation,,html-keyboard-response,378,569734,0.0-1.0-521.0-0.0,0,0,76870,,,,,,74.0,,2.0,,,,,,,,,,,,,200.0,1.074,,,,,,,,,
379,,isi,,html-keyboard-response,379,570736,0.0-1.0-523.0,0,0,76870,,,,,,74.0,,2.0,,,,,,,,,,,,,201.0,1.0,,,,,,,,,
380,,feedback,,html-keyboard-response,380,571739,0.0-1.0-524.0-0.0,0,0,76870,,,,,,74.0,,2.0,,,,,,,,,,,,,202.0,1.0,,,,,,,,,
381,,iti,,html-keyboard-response,381,573741,0.0-1.0-525.0,0,0,76870,,,,,,74.0,,2.0,,,,,,,,,,,,,204.0,2.0,,,,,,,,,
382,,rl_choice,,html-keyboard-response,382,574189,0.0-1.0-527.0,0,0,76870,,446.0,,,75.0,75.0,75.0,2.0,hard,1000.0,1500.0,1.0,60.0,40.0,80.0,40.0,B,A,/static/Simple_RL/Stimuli/Fractals_stims/B.jpg,/static/Simple_RL/Stimuli/Fractals_stims/A.jpg,204.446,0.446,0.0,0.0,40.0,60.0,40.0,80.0,A,B,
383,,rl_choice_confirmation,,html-keyboard-response,383,575247,0.0-1.0-528.0-0.0,0,0,76870,,,,,,75.0,,2.0,,,,,,,,,,,,,205.5,1.054,,,,,,,,,
384,,isi,,html-keyboard-response,384,576749,0.0-1.0-530.0,0,0,76870,,,,,,75.0,,2.0,,,,,,,,,,,,,207.0,1.5,,,,,,,,,
385,,feedback,,html-keyboard-response,385,577752,0.0-1.0-531.0-0.0,0,0,76870,,,,,,75.0,,2.0,,,,,,,,,,,,,208.0,1.0,,,,,,,,,
386,,iti,,html-keyboard-response,386,578754,0.0-1.0-532.0,0,0,76870,,,,,,75.0,,2.0,,,,,,,,,,,,,209.0,1.0,,,,,,,,,
387,,rl_choice,,html-keyboard-response,387,579269,0.0-1.0-534.0,0,0,76870,,514.0,,,68.0,76.0,76.0,2.0,hard,3500.0,1000.0,0.0,40.0,60.0,40.0,60.0,A,B,/static/Simple_RL/Stimuli/Fractals_stims/A.jpg,/static/Simple_RL/Stimuli/Fractals_stims/B.jpg,209.514,0.514,0.0,1.0,40.0,60.0,40.0,60.0,A,B,
388,,rl_choice_confirmation,,html-keyboard-response,388,580259,0.0-1.0-535.0-0.0,0,0,76870,,,,,,76.0,,2.0,,,,,,,,,,,,,210.5,0.986,,,,,,,,,
389,,isi,,html-keyboard-response,389,581261,0.0-1.0-537.0,0,0,76870,,,,,,76.0,,2.0,,,,,,,,,,,,,211.5,1.0,,,,,,,,,
390,,feedback,,html-keyboard-response,390,582265,0.0-1.0-538.0-0.0,0,0,76870,,,,,,76.0,,2.0,,,,,,,,,,,,,212.5,1.0,,,,,,,,,
391,,iti,,html-keyboard-response,391,585768,0.0-1.0-539.0,0,0,76870,,,,,,76.0,,2.0,,,,,,,,,,,,,216.0,3.5,,,,,,,,,
392,,rl_choice,,html-keyboard-response,392,586479,0.0-1.0-541.0,0,0,76870,,708.0,,,75.0,77.0,77.0,2.0,easy,1000.0,1000.0,1.0,80.0,20.0,60.0,0.0,D,C,/static/Simple_RL/Stimuli/Fractals_stims/D.jpg,/static/Simple_RL/Stimuli/Fractals_stims/C.jpg,216.708,0.708,0.0,0.0,20.0,80.0,0.0,60.0,C,D,
393,,rl_choice_confirmation,,html-keyboard-response,393,587275,0.0-1.0-542.0-0.0,0,0,76870,,,,,,77.0,,2.0,,,,,,,,,,,,,217.5,0.792,,,,,,,,,
394,,isi,,html-keyboard-response,394,588278,0.0-1.0-544.0,0,0,76870,,,,,,77.0,,2.0,,,,,,,,,,,,,218.5,1.0,,,,,,,,,
395,,feedback,,html-keyboard-response,395,589281,0.0-1.0-545.0-0.0,0,0,76870,,,,,,77.0,,2.0,,,,,,,,,,,,,219.5,1.0,,,,,,,,,
396,,iti,,html-keyboard-response,396,590283,0.0-1.0-546.0,0,0,76870,,,,,,77.0,,2.0,,,,,,,,,,,,,220.5,1.0,,,,,,,,,
397,,rl_choice,,html-keyboard-response,397,591085,0.0-1.0-548.0,0,0,76870,,801.0,,,75.0,78.0,78.0,2.0,hard,1500.0,2000.0,1.0,60.0,40.0,60.0,20.0,B,A,/static/Simple_RL/Stimuli/Fractals_stims/B.jpg,/static/Simple_RL/Stimuli/Fractals_stims/A.jpg,221.301,0.801,0.0,0.0,40.0,60.0,20.0,60.0,A,B,
398,,rl_choice_confirmation,,html-keyboard-response,398,591789,0.0-1.0-549.0-0.0,0,0,76870,,,,,,78.0,,2.0,,,,,,,,,,,,,222.0,0.699,,,,,,,,,
399,,isi,,html-keyboard-response,399,593791,0.0-1.0-551.0,0,0,76870,,,,,,78.0,,2.0,,,,,,,,,,,,,224.0,2.0,,,,,,,,,
400,,feedback,,html-keyboard-response,400,594795,0.0-1.0-552.0-0.0,0,0,76870,,,,,,78.0,,2.0,,,,,,,,,,,,,225.0,1.0,,,,,,,,,
401,,iti,,html-keyboard-response,401,596298,0.0-1.0-553.0,0,0,76870,,,,,,78.0,,2.0,,,,,,,,,,,,,226.5,1.5,,,,,,,,,
402,,rl_choice,,html-keyboard-response,402,597136,0.0-1.0-555.0,0,0,76870,,836.0,,,75.0,79.0,79.0,2.0,hard,1000.0,2000.0,1.0,60.0,40.0,40.0,60.0,B,A,/static/Simple_RL/Stimuli/Fractals_stims/B.jpg,/static/Simple_RL/Stimuli/Fractals_stims/A.jpg,227.336,0.836,0.0,0.0,40.0,60.0,60.0,40.0,A,B,
403,,rl_choice_confirmation,,html-keyboard-response,403,597812,0.0-1.0-556.0-0.0,0,0,76870,,,,,,79.0,,2.0,,,,,,,,,,,,,228.0,0.664,,,,,,,,,
404,,isi,,html-keyboard-response,404,599814,0.0-1.0-558.0,0,0,76870,,,,,,79.0,,2.0,,,,,,,,,,,,,230.0,2.0,,,,,,,,,
405,,feedback,,html-keyboard-response,405,600818,0.0-1.0-559.0-0.0,0,0,76870,,,,,,79.0,,2.0,,,,,,,,,,,,,231.0,1.0,,,,,,,,,
406,,iti,,html-keyboard-response,406,601821,0.0-1.0-560.0,0,0,76870,,,,,,79.0,,2.0,,,,,,,,,,,,,232.0,1.0,,,,,,,,,0.76
407,,final_tally,,html-keyboard-response,407,650126,0.0-2.0,0,0,76870,,48302.0,,,68.0,,,,,,,,,,,,,,,,,,,,,,,,,,
