,success,ttype,start_time,trial_type,trial_index,time_elapsed,internal_node_id,warning,missed_checkup,PID,view_history,rt,responses,repeat_instructions,key_press,index,trial_num,block,condition,iti,isi,high_group_on_left,left_group_value,right_group_value,left_item_value,right_item_value,left_img,right_img,left_img_path,right_img_path,left_chosen,chosen_group_value,unchosen_group_value,chosen_item_value,unchosen_item_value,chosen_img,unchosen_img,onset,duration,no_response
0,True,full_screen,d06062022hr2145,fullscreen,0,3901,0.0-0.0,0,0,12,,,,,,,,,,,,,,,,,,,,,,,,,,,,,,
1,,size_instructions,,instructions,1,5797,0.0-1.0-0.0-0.0,0,0,12,"[{""page_index"":0,""viewing_time"":1079},{""page_index"":1,""viewing_time"":211},{""page_index"":2,""viewing_time"":158},{""page_index"":3,""viewing_time"":163},{""page_index"":4,""viewing_time"":147},{""page_index"":5,""viewing_time"":136}]",1894.0,,,,,,,,,,,,,,,,,,,,,,,,,,,,
2,,rl_comprehension_check,,survey-multi-choice,2,10079,0.0-1.0-0.0-1.0,0,0,12,,4279.0,"{""Q0"":""True"",""Q1"":""True"",""Q2"":""pointer finger for left and middle finger for right""}",0.0,,,,,,,,,,,,,,,,,,,,,,,,,,
3,,,,html-keyboard-response,3,10989,0.0-1.0-1.0,0,0,12,,907.0,,,50.0,,,,,,,,,,,,,,,,,,,,,,,,,
4,,rl_choice,,html-keyboard-response,4,11466,0.0-1.0-2.0,0,0,12,,475.0,,,51.0,0.0,0.0,1.0,hard,1000.0,2000.0,0.0,40.0,60.0,20.0,60.0,C,D,/static/Simple_RL/Stimuli/Fractals_stims/C.jpg,/static/Simple_RL/Stimuli/Fractals_stims/D.jpg,0.0,60.0,40.0,60.0,20.0,D,C,0.475,0.475,0.0
5,,rl_choice_confirmation,,html-keyboard-response,5,12494,0.0-1.0-3.0-0.0,0,0,12,,,,,,0.0,,1.0,,,,,,,,,,,,,,,,,,,,1.5,1.025,
6,,isi,,html-keyboard-response,6,14496,0.0-1.0-5.0,0,0,12,,,,,,0.0,,1.0,,,,,,,,,,,,,,,,,,,,3.5,2.0,
7,,feedback,,html-keyboard-response,7,15503,0.0-1.0-6.0-0.0,0,0,12,,,,,,0.0,,1.0,,,,,,,,,,,,,,,,,,,,4.5,1.0,
8,,iti,,html-keyboard-response,8,16506,0.0-1.0-7.0,0,0,12,,,,,,0.0,,1.0,,,,,,,,,,,,,,,,,,,,5.5,1.0,
9,,rl_choice,,html-keyboard-response,9,18011,0.0-1.0-9.0,0,0,12,,,,,,1.0,1.0,1.0,easy,1000.0,3000.0,1.0,80.0,20.0,100.0,40.0,B,A,/static/Simple_RL/Stimuli/Fractals_stims/B.jpg,/static/Simple_RL/Stimuli/Fractals_stims/A.jpg,,,,,,,,7.0,1.5,1.0
10,,rl_choice_warning,,html-keyboard-response,10,19017,0.0-1.0-11.0-0.0,0,0,12,,,,,,1.0,,1.0,,,,,,,,,,,,,,,,,,,,8.0,1.0,
11,,isi,,html-keyboard-response,11,22022,0.0-1.0-12.0,0,0,12,,,,,,1.0,,1.0,,,,,,,,,,,,,,,,,,,,11.0,3.0,
12,,iti,,html-keyboard-response,12,23027,0.0-1.0-14.0,0,0,12,,,,,,1.0,,1.0,,,,,,,,,,,,,,,,,,,,12.0,1.0,
13,,rl_choice,,html-keyboard-response,13,23430,0.0-1.0-16.0,0,0,12,,401.0,,,51.0,2.0,2.0,1.0,hard,3000.0,1000.0,0.0,40.0,60.0,20.0,80.0,C,D,/static/Simple_RL/Stimuli/Fractals_stims/C.jpg,/static/Simple_RL/Stimuli/Fractals_stims/D.jpg,0.0,60.0,40.0,80.0,20.0,D,C,12.401,0.401,0.0
14,,rl_choice_confirmation,,html-keyboard-response,14,24534,0.0-1.0-17.0-0.0,0,0,12,,,,,,2.0,,1.0,,,,,,,,,,,,,,,,,,,,13.5,1.099,
15,,isi,,html-keyboard-response,15,25539,0.0-1.0-19.0,0,0,12,,,,,,2.0,,1.0,,,,,,,,,,,,,,,,,,,,14.5,1.0,
16,,feedback,,html-keyboard-response,16,26545,0.0-1.0-20.0-0.0,0,0,12,,,,,,2.0,,1.0,,,,,,,,,,,,,,,,,,,,15.5,1.0,
17,,iti,,html-keyboard-response,17,29550,0.0-1.0-21.0,0,0,12,,,,,,2.0,,1.0,,,,,,,,,,,,,,,,,,,,18.5,3.0,
18,,rl_choice,,html-keyboard-response,18,29883,0.0-1.0-23.0,0,0,12,,331.0,,,50.0,3.0,3.0,1.0,hard,1000.0,3500.0,0.0,40.0,60.0,60.0,60.0,C,D,/static/Simple_RL/Stimuli/Fractals_stims/C.jpg,/static/Simple_RL/Stimuli/Fractals_stims/D.jpg,1.0,40.0,60.0,60.0,60.0,C,D,18.831,0.331,0.0
19,,rl_choice_confirmation,,html-keyboard-response,19,31058,0.0-1.0-24.0-0.0,0,0,12,,,,,,3.0,,1.0,,,,,,,,,,,,,,,,,,,,20.0,1.169,
20,,isi,,html-keyboard-response,20,34564,0.0-1.0-26.0,0,0,12,,,,,,3.0,,1.0,,,,,,,,,,,,,,,,,,,,23.5,3.5,
21,,feedback,,html-keyboard-response,21,35567,0.0-1.0-27.0-0.0,0,0,12,,,,,,3.0,,1.0,,,,,,,,,,,,,,,,,,,,24.5,1.0,
22,,iti,,html-keyboard-response,22,36570,0.0-1.0-28.0,0,0,12,,,,,,3.0,,1.0,,,,,,,,,,,,,,,,,,,,25.5,1.0,
23,,rl_choice,,html-keyboard-response,23,38074,0.0-1.0-30.0,0,0,12,,,,,,4.0,4.0,1.0,hard,1500.0,3000.0,0.0,40.0,60.0,20.0,60.0,C,D,/static/Simple_RL/Stimuli/Fractals_stims/C.jpg,/static/Simple_RL/Stimuli/Fractals_stims/D.jpg,,,,,,,,27.0,1.5,1.0
24,,rl_choice_warning,,html-keyboard-response,24,39079,0.0-1.0-32.0-0.0,0,0,12,,,,,,4.0,,1.0,,,,,,,,,,,,,,,,,,,,28.0,1.0,
25,,isi,,html-keyboard-response,25,42085,0.0-1.0-33.0,0,0,12,,,,,,4.0,,1.0,,,,,,,,,,,,,,,,,,,,31.0,3.0,
26,,iti,,html-keyboard-response,26,43589,0.0-1.0-35.0,0,0,12,,,,,,4.0,,1.0,,,,,,,,,,,,,,,,,,,,32.5,1.5,
27,,rl_choice,,html-keyboard-response,27,45094,0.0-1.0-37.0,0,0,12,,,,,,5.0,5.0,1.0,easy,2000.0,2000.0,0.0,20.0,80.0,20.0,100.0,A,B,/static/Simple_RL/Stimuli/Fractals_stims/A.jpg,/static/Simple_RL/Stimuli/Fractals_stims/B.jpg,,,,,,,,34.0,1.5,1.0
28,,rl_choice_warning,,html-keyboard-response,28,46099,0.0-1.0-39.0-0.0,0,0,12,,,,,,5.0,,1.0,,,,,,,,,,,,,,,,,,,,35.0,1.0,
29,,isi,,html-keyboard-response,29,48104,0.0-1.0-40.0,0,0,12,,,,,,5.0,,1.0,,,,,,,,,,,,,,,,,,,,37.0,2.0,
30,,iti,,html-keyboard-response,30,50109,0.0-1.0-42.0,0,0,12,,,,,,5.0,,1.0,,,,,,,,,,,,,,,,,,,,39.0,2.0,
31,,rl_choice,,html-keyboard-response,31,51613,0.0-1.0-44.0,0,0,12,,,,,,6.0,6.0,1.0,hard,1000.0,1000.0,0.0,40.0,60.0,40.0,80.0,C,D,/static/Simple_RL/Stimuli/Fractals_stims/C.jpg,/static/Simple_RL/Stimuli/Fractals_stims/D.jpg,,,,,,,,40.5,1.5,1.0
32,,rl_choice_warning,,html-keyboard-response,32,52618,0.0-1.0-46.0-0.0,0,0,12,,,,,,6.0,,1.0,,,,,,,,,,,,,,,,,,,,41.5,1.0,
33,,isi,,html-keyboard-response,33,53624,0.0-1.0-47.0,0,0,12,,,,,,6.0,,1.0,,,,,,,,,,,,,,,,,,,,42.5,1.0,
34,,iti,,html-keyboard-response,34,54629,0.0-1.0-49.0,0,0,12,,,,,,6.0,,1.0,,,,,,,,,,,,,,,,,,,,43.5,1.0,
35,,rl_choice,,html-keyboard-response,35,56135,0.0-1.0-51.0,0,0,12,,,,,,7.0,7.0,1.0,hard,1500.0,1000.0,0.0,40.0,60.0,60.0,80.0,C,D,/static/Simple_RL/Stimuli/Fractals_stims/C.jpg,/static/Simple_RL/Stimuli/Fractals_stims/D.jpg,,,,,,,,45.0,1.5,1.0
36,,rl_choice_warning,,html-keyboard-response,36,57139,0.0-1.0-53.0-0.0,0,0,12,,,,,,7.0,,1.0,,,,,,,,,,,,,,,,,,,,46.0,1.0,
37,,isi,,html-keyboard-response,37,58142,0.0-1.0-54.0,0,0,12,,,,,,7.0,,1.0,,,,,,,,,,,,,,,,,,,,47.0,1.0,
38,,iti,,html-keyboard-response,38,59646,0.0-1.0-56.0,0,0,12,,,,,,7.0,,1.0,,,,,,,,,,,,,,,,,,,,48.5,1.5,
39,,rl_choice,,html-keyboard-response,39,61148,0.0-1.0-58.0,0,0,12,,,,,,8.0,8.0,1.0,easy,1500.0,2000.0,0.0,20.0,80.0,0.0,100.0,A,B,/static/Simple_RL/Stimuli/Fractals_stims/A.jpg,/static/Simple_RL/Stimuli/Fractals_stims/B.jpg,,,,,,,,50.0,1.5,1.0
40,,rl_choice_warning,,html-keyboard-response,40,62151,0.0-1.0-60.0-0.0,0,0,12,,,,,,8.0,,1.0,,,,,,,,,,,,,,,,,,,,51.0,1.0,
41,,isi,,html-keyboard-response,41,64157,0.0-1.0-61.0,0,0,12,,,,,,8.0,,1.0,,,,,,,,,,,,,,,,,,,,53.0,2.0,
42,,iti,,html-keyboard-response,42,65659,0.0-1.0-63.0,0,0,12,,,,,,8.0,,1.0,,,,,,,,,,,,,,,,,,,,54.5,1.5,
43,,rl_choice,,html-keyboard-response,43,67164,0.0-1.0-65.0,0,0,12,,,,,,9.0,9.0,1.0,easy,2000.0,1000.0,1.0,80.0,20.0,60.0,0.0,B,A,/static/Simple_RL/Stimuli/Fractals_stims/B.jpg,/static/Simple_RL/Stimuli/Fractals_stims/A.jpg,,,,,,,,56.0,1.5,1.0
44,,rl_choice_warning,,html-keyboard-response,44,68167,0.0-1.0-67.0-0.0,0,0,12,,,,,,9.0,,1.0,,,,,,,,,,,,,,,,,,,,57.0,1.0,
45,,isi,,html-keyboard-response,45,69171,0.0-1.0-68.0,0,0,12,,,,,,9.0,,1.0,,,,,,,,,,,,,,,,,,,,58.0,1.0,
46,,iti,,html-keyboard-response,46,71174,0.0-1.0-70.0,0,0,12,,,,,,9.0,,1.0,,,,,,,,,,,,,,,,,,,,60.0,2.0,
47,,rl_choice,,html-keyboard-response,47,71314,0.0-1.0-72.0,0,0,12,,138.0,,,50.0,10.0,10.0,1.0,hard,1000.0,1000.0,1.0,60.0,40.0,40.0,40.0,D,C,/static/Simple_RL/Stimuli/Fractals_stims/D.jpg,/static/Simple_RL/Stimuli/Fractals_stims/C.jpg,1.0,60.0,40.0,40.0,40.0,D,C,60.138000000000005,0.138,0.0
48,,rl_choice_confirmation,,html-keyboard-response,48,72681,0.0-1.0-73.0-0.0,0,0,12,,,,,,10.0,,1.0,,,,,,,,,,,,,,,,,,,,61.5,1.3619999999999999,
49,,isi,,html-keyboard-response,49,73684,0.0-1.0-75.0,0,0,12,,,,,,10.0,,1.0,,,,,,,,,,,,,,,,,,,,62.5,1.0,
50,,feedback,,html-keyboard-response,50,74688,0.0-1.0-76.0-0.0,0,0,12,,,,,,10.0,,1.0,,,,,,,,,,,,,,,,,,,,63.5,1.0,
51,,iti,,html-keyboard-response,51,75694,0.0-1.0-77.0,0,0,12,,,,,,10.0,,1.0,,,,,,,,,,,,,,,,,,,,64.5,1.0,
52,,rl_choice,,html-keyboard-response,52,77196,0.0-1.0-79.0,0,0,12,,,,,,11.0,11.0,1.0,easy,1000.0,3000.0,0.0,20.0,80.0,20.0,60.0,A,B,/static/Simple_RL/Stimuli/Fractals_stims/A.jpg,/static/Simple_RL/Stimuli/Fractals_stims/B.jpg,,,,,,,,66.0,1.5,1.0
53,,rl_choice_warning,,html-keyboard-response,53,78201,0.0-1.0-81.0-0.0,0,0,12,,,,,,11.0,,1.0,,,,,,,,,,,,,,,,,,,,67.0,1.0,
54,,isi,,html-keyboard-response,54,81205,0.0-1.0-82.0,0,0,12,,,,,,11.0,,1.0,,,,,,,,,,,,,,,,,,,,70.0,3.0,
55,,iti,,html-keyboard-response,55,82210,0.0-1.0-84.0,0,0,12,,,,,,11.0,,1.0,,,,,,,,,,,,,,,,,,,,71.0,1.0,
56,,rl_choice,,html-keyboard-response,56,83714,0.0-1.0-86.0,0,0,12,,,,,,12.0,12.0,1.0,easy,3000.0,1500.0,0.0,20.0,80.0,20.0,80.0,A,B,/static/Simple_RL/Stimuli/Fractals_stims/A.jpg,/static/Simple_RL/Stimuli/Fractals_stims/B.jpg,,,,,,,,72.5,1.5,1.0
57,,rl_choice_warning,,html-keyboard-response,57,84717,0.0-1.0-88.0-0.0,0,0,12,,,,,,12.0,,1.0,,,,,,,,,,,,,,,,,,,,73.5,1.0,
58,,isi,,html-keyboard-response,58,86220,0.0-1.0-89.0,0,0,12,,,,,,12.0,,1.0,,,,,,,,,,,,,,,,,,,,75.0,1.5,
59,,iti,,html-keyboard-response,59,89227,0.0-1.0-91.0,0,0,12,,,,,,12.0,,1.0,,,,,,,,,,,,,,,,,,,,78.0,3.0,
60,,rl_choice,,html-keyboard-response,60,90733,0.0-1.0-93.0,0,0,12,,,,,,13.0,13.0,1.0,hard,1000.0,2000.0,0.0,40.0,60.0,40.0,80.0,C,D,/static/Simple_RL/Stimuli/Fractals_stims/C.jpg,/static/Simple_RL/Stimuli/Fractals_stims/D.jpg,,,,,,,,79.5,1.5,1.0
61,,rl_choice_warning,,html-keyboard-response,61,91735,0.0-1.0-95.0-0.0,0,0,12,,,,,,13.0,,1.0,,,,,,,,,,,,,,,,,,,,80.5,1.0,
62,,isi,,html-keyboard-response,62,93741,0.0-1.0-96.0,0,0,12,,,,,,13.0,,1.0,,,,,,,,,,,,,,,,,,,,82.5,2.0,
63,,iti,,html-keyboard-response,63,94748,0.0-1.0-98.0,0,0,12,,,,,,13.0,,1.0,,,,,,,,,,,,,,,,,,,,83.5,1.0,
64,,rl_choice,,html-keyboard-response,64,96253,0.0-1.0-100.0,0,0,12,,,,,,14.0,14.0,1.0,easy,1500.0,1500.0,0.0,20.0,80.0,20.0,80.0,A,B,/static/Simple_RL/Stimuli/Fractals_stims/A.jpg,/static/Simple_RL/Stimuli/Fractals_stims/B.jpg,,,,,,,,85.0,1.5,1.0
65,,rl_choice_warning,,html-keyboard-response,65,97258,0.0-1.0-102.0-0.0,0,0,12,,,,,,14.0,,1.0,,,,,,,,,,,,,,,,,,,,86.0,1.0,
66,,isi,,html-keyboard-response,66,98760,0.0-1.0-103.0,0,0,12,,,,,,14.0,,1.0,,,,,,,,,,,,,,,,,,,,87.5,1.5,
67,,iti,,html-keyboard-response,67,100267,0.0-1.0-105.0,0,0,12,,,,,,14.0,,1.0,,,,,,,,,,,,,,,,,,,,89.0,1.5,
68,,rl_choice,,html-keyboard-response,68,101774,0.0-1.0-107.0,0,0,12,,,,,,15.0,15.0,1.0,hard,1500.0,2000.0,1.0,60.0,40.0,40.0,60.0,D,C,/static/Simple_RL/Stimuli/Fractals_stims/D.jpg,/static/Simple_RL/Stimuli/Fractals_stims/C.jpg,,,,,,,,90.5,1.5,1.0
69,,rl_choice_warning,,html-keyboard-response,69,102776,0.0-1.0-109.0-0.0,0,0,12,,,,,,15.0,,1.0,,,,,,,,,,,,,,,,,,,,91.5,1.0,
70,,isi,,html-keyboard-response,70,104782,0.0-1.0-110.0,0,0,12,,,,,,15.0,,1.0,,,,,,,,,,,,,,,,,,,,93.5,2.0,
71,,iti,,html-keyboard-response,71,106284,0.0-1.0-112.0,0,0,12,,,,,,15.0,,1.0,,,,,,,,,,,,,,,,,,,,95.0,1.5,
72,,rl_choice,,html-keyboard-response,72,107787,0.0-1.0-114.0,0,0,12,,,,,,16.0,16.0,1.0,hard,1000.0,1000.0,1.0,60.0,40.0,60.0,60.0,D,C,/static/Simple_RL/Stimuli/Fractals_stims/D.jpg,/static/Simple_RL/Stimuli/Fractals_stims/C.jpg,,,,,,,,96.5,1.5,1.0
73,,rl_choice_warning,,html-keyboard-response,73,108792,0.0-1.0-116.0-0.0,0,0,12,,,,,,16.0,,1.0,,,,,,,,,,,,,,,,,,,,97.5,1.0,
74,,isi,,html-keyboard-response,74,109797,0.0-1.0-117.0,0,0,12,,,,,,16.0,,1.0,,,,,,,,,,,,,,,,,,,,98.5,1.0,
75,,iti,,html-keyboard-response,75,110802,0.0-1.0-119.0,0,0,12,,,,,,16.0,,1.0,,,,,,,,,,,,,,,,,,,,99.5,1.0,
76,,rl_choice,,html-keyboard-response,76,112304,0.0-1.0-121.0,0,0,12,,,,,,17.0,17.0,1.0,easy,3000.0,1500.0,1.0,80.0,20.0,60.0,20.0,B,A,/static/Simple_RL/Stimuli/Fractals_stims/B.jpg,/static/Simple_RL/Stimuli/Fractals_stims/A.jpg,,,,,,,,101.0,1.5,1.0
77,,rl_choice_warning,,html-keyboard-response,77,113310,0.0-1.0-123.0-0.0,0,0,12,,,,,,17.0,,1.0,,,,,,,,,,,,,,,,,,,,102.0,1.0,
78,,isi,,html-keyboard-response,78,114816,0.0-1.0-124.0,0,0,12,,,,,,17.0,,1.0,,,,,,,,,,,,,,,,,,,,103.5,1.5,
79,,iti,,html-keyboard-response,79,117819,0.0-1.0-126.0,0,0,12,,,,,,17.0,,1.0,,,,,,,,,,,,,,,,,,,,106.5,3.0,
80,,rl_choice,,html-keyboard-response,80,119325,0.0-1.0-128.0,0,0,12,,,,,,18.0,18.0,1.0,hard,3500.0,1500.0,1.0,60.0,40.0,60.0,60.0,D,C,/static/Simple_RL/Stimuli/Fractals_stims/D.jpg,/static/Simple_RL/Stimuli/Fractals_stims/C.jpg,,,,,,,,108.0,1.5,1.0
81,,rl_choice_warning,,html-keyboard-response,81,120329,0.0-1.0-130.0-0.0,0,0,12,,,,,,18.0,,1.0,,,,,,,,,,,,,,,,,,,,109.0,1.0,
82,,isi,,html-keyboard-response,82,121833,0.0-1.0-131.0,0,0,12,,,,,,18.0,,1.0,,,,,,,,,,,,,,,,,,,,110.5,1.5,
83,,iti,,html-keyboard-response,83,125340,0.0-1.0-133.0,0,0,12,,,,,,18.0,,1.0,,,,,,,,,,,,,,,,,,,,114.0,3.5,
84,,rl_choice,,html-keyboard-response,84,126842,0.0-1.0-135.0,0,0,12,,,,,,19.0,19.0,1.0,hard,2000.0,1500.0,1.0,60.0,40.0,60.0,20.0,D,C,/static/Simple_RL/Stimuli/Fractals_stims/D.jpg,/static/Simple_RL/Stimuli/Fractals_stims/C.jpg,,,,,,,,115.5,1.5,1.0
85,,rl_choice_warning,,html-keyboard-response,85,127848,0.0-1.0-137.0-0.0,0,0,12,,,,,,19.0,,1.0,,,,,,,,,,,,,,,,,,,,116.5,1.0,
86,,isi,,html-keyboard-response,86,129350,0.0-1.0-138.0,0,0,12,,,,,,19.0,,1.0,,,,,,,,,,,,,,,,,,,,118.0,1.5,
87,,iti,,html-keyboard-response,87,131356,0.0-1.0-140.0,0,0,12,,,,,,19.0,,1.0,,,,,,,,,,,,,,,,,,,,120.0,2.0,
88,,rl_choice,,html-keyboard-response,88,132859,0.0-1.0-142.0,0,0,12,,,,,,20.0,20.0,1.0,easy,2000.0,1000.0,1.0,80.0,20.0,80.0,20.0,B,A,/static/Simple_RL/Stimuli/Fractals_stims/B.jpg,/static/Simple_RL/Stimuli/Fractals_stims/A.jpg,,,,,,,,121.5,1.5,1.0
89,,rl_choice_warning,,html-keyboard-response,89,133862,0.0-1.0-144.0-0.0,0,0,12,,,,,,20.0,,1.0,,,,,,,,,,,,,,,,,,,,122.5,1.0,
90,,isi,,html-keyboard-response,90,134867,0.0-1.0-145.0,0,0,12,,,,,,20.0,,1.0,,,,,,,,,,,,,,,,,,,,123.5,1.0,
91,,iti,,html-keyboard-response,91,136871,0.0-1.0-147.0,0,0,12,,,,,,20.0,,1.0,,,,,,,,,,,,,,,,,,,,125.5,2.0,
92,,rl_choice,,html-keyboard-response,92,138377,0.0-1.0-149.0,0,0,12,,,,,,21.0,21.0,1.0,easy,1500.0,2000.0,1.0,80.0,20.0,80.0,20.0,B,A,/static/Simple_RL/Stimuli/Fractals_stims/B.jpg,/static/Simple_RL/Stimuli/Fractals_stims/A.jpg,,,,,,,,127.0,1.5,1.0
93,,rl_choice_warning,,html-keyboard-response,93,139383,0.0-1.0-151.0-0.0,0,0,12,,,,,,21.0,,1.0,,,,,,,,,,,,,,,,,,,,128.0,1.0,
94,,isi,,html-keyboard-response,94,141386,0.0-1.0-152.0,0,0,12,,,,,,21.0,,1.0,,,,,,,,,,,,,,,,,,,,130.0,2.0,
95,,iti,,html-keyboard-response,95,142891,0.0-1.0-154.0,0,0,12,,,,,,21.0,,1.0,,,,,,,,,,,,,,,,,,,,131.5,1.5,
96,,rl_choice,,html-keyboard-response,96,144393,0.0-1.0-156.0,0,0,12,,,,,,22.0,22.0,1.0,easy,1000.0,1000.0,0.0,20.0,80.0,0.0,100.0,A,B,/static/Simple_RL/Stimuli/Fractals_stims/A.jpg,/static/Simple_RL/Stimuli/Fractals_stims/B.jpg,,,,,,,,133.0,1.5,1.0
97,,rl_choice_warning,,html-keyboard-response,97,145396,0.0-1.0-158.0-0.0,0,0,12,,,,,,22.0,,1.0,,,,,,,,,,,,,,,,,,,,134.0,1.0,
98,,isi,,html-keyboard-response,98,146398,0.0-1.0-159.0,0,0,12,,,,,,22.0,,1.0,,,,,,,,,,,,,,,,,,,,135.0,1.0,
99,,iti,,html-keyboard-response,99,147404,0.0-1.0-161.0,0,0,12,,,,,,22.0,,1.0,,,,,,,,,,,,,,,,,,,,136.0,1.0,
100,,rl_choice,,html-keyboard-response,100,148906,0.0-1.0-163.0,0,0,12,,,,,,23.0,23.0,1.0,hard,2000.0,1000.0,1.0,60.0,40.0,80.0,60.0,D,C,/static/Simple_RL/Stimuli/Fractals_stims/D.jpg,/static/Simple_RL/Stimuli/Fractals_stims/C.jpg,,,,,,,,137.5,1.5,1.0
101,,rl_choice_warning,,html-keyboard-response,101,149911,0.0-1.0-165.0-0.0,0,0,12,,,,,,23.0,,1.0,,,,,,,,,,,,,,,,,,,,138.5,1.0,
102,,isi,,html-keyboard-response,102,150917,0.0-1.0-166.0,0,0,12,,,,,,23.0,,1.0,,,,,,,,,,,,,,,,,,,,139.5,1.0,
103,,iti,,html-keyboard-response,103,152922,0.0-1.0-168.0,0,0,12,,,,,,23.0,,1.0,,,,,,,,,,,,,,,,,,,,141.5,2.0,
104,,rl_choice,,html-keyboard-response,104,154429,0.0-1.0-170.0,0,0,12,,,,,,24.0,24.0,1.0,hard,1000.0,3000.0,1.0,60.0,40.0,40.0,60.0,D,C,/static/Simple_RL/Stimuli/Fractals_stims/D.jpg,/static/Simple_RL/Stimuli/Fractals_stims/C.jpg,,,,,,,,143.0,1.5,1.0
105,,rl_choice_warning,,html-keyboard-response,105,155431,0.0-1.0-172.0-0.0,0,0,12,,,,,,24.0,,1.0,,,,,,,,,,,,,,,,,,,,144.0,1.0,
106,,isi,,html-keyboard-response,106,158437,0.0-1.0-173.0,0,0,12,,,,,,24.0,,1.0,,,,,,,,,,,,,,,,,,,,147.0,3.0,
107,,iti,,html-keyboard-response,107,159443,0.0-1.0-175.0,0,0,12,,,,,,24.0,,1.0,,,,,,,,,,,,,,,,,,,,148.0,1.0,
108,,rl_choice,,html-keyboard-response,108,160945,0.0-1.0-177.0,0,0,12,,,,,,25.0,25.0,1.0,hard,2000.0,1000.0,1.0,60.0,40.0,40.0,40.0,D,C,/static/Simple_RL/Stimuli/Fractals_stims/D.jpg,/static/Simple_RL/Stimuli/Fractals_stims/C.jpg,,,,,,,,149.5,1.5,1.0
109,,rl_choice_warning,,html-keyboard-response,109,161948,0.0-1.0-179.0-0.0,0,0,12,,,,,,25.0,,1.0,,,,,,,,,,,,,,,,,,,,150.5,1.0,
110,,isi,,html-keyboard-response,110,162953,0.0-1.0-180.0,0,0,12,,,,,,25.0,,1.0,,,,,,,,,,,,,,,,,,,,151.5,1.0,
111,,iti,,html-keyboard-response,111,164959,0.0-1.0-182.0,0,0,12,,,,,,25.0,,1.0,,,,,,,,,,,,,,,,,,,,153.5,2.0,
112,,rl_choice,,html-keyboard-response,112,165131,0.0-1.0-184.0,0,0,12,,170.0,,,50.0,26.0,26.0,1.0,easy,1000.0,1000.0,1.0,80.0,20.0,100.0,20.0,B,A,/static/Simple_RL/Stimuli/Fractals_stims/B.jpg,/static/Simple_RL/Stimuli/Fractals_stims/A.jpg,1.0,80.0,20.0,100.0,20.0,B,A,153.67,0.17,0.0
113,,rl_choice_confirmation,,html-keyboard-response,113,166465,0.0-1.0-185.0-0.0,0,0,12,,,,,,26.0,,1.0,,,,,,,,,,,,,,,,,,,,155.0,1.33,
114,,isi,,html-keyboard-response,114,167471,0.0-1.0-187.0,0,0,12,,,,,,26.0,,1.0,,,,,,,,,,,,,,,,,,,,156.0,1.0,
115,,feedback,,html-keyboard-response,115,168477,0.0-1.0-188.0-0.0,0,0,12,,,,,,26.0,,1.0,,,,,,,,,,,,,,,,,,,,157.0,1.0,
116,,iti,,html-keyboard-response,116,169482,0.0-1.0-189.0,0,0,12,,,,,,26.0,,1.0,,,,,,,,,,,,,,,,,,,,158.0,1.0,
117,,rl_choice,,html-keyboard-response,117,170984,0.0-1.0-191.0,0,0,12,,,,,,27.0,27.0,1.0,hard,1000.0,1500.0,0.0,40.0,60.0,20.0,80.0,C,D,/static/Simple_RL/Stimuli/Fractals_stims/C.jpg,/static/Simple_RL/Stimuli/Fractals_stims/D.jpg,,,,,,,,159.5,1.5,1.0
118,,rl_choice_warning,,html-keyboard-response,118,171987,0.0-1.0-193.0-0.0,0,0,12,,,,,,27.0,,1.0,,,,,,,,,,,,,,,,,,,,160.5,1.0,
119,,isi,,html-keyboard-response,119,173493,0.0-1.0-194.0,0,0,12,,,,,,27.0,,1.0,,,,,,,,,,,,,,,,,,,,162.0,1.5,
120,,iti,,html-keyboard-response,120,174498,0.0-1.0-196.0,0,0,12,,,,,,27.0,,1.0,,,,,,,,,,,,,,,,,,,,163.0,1.0,
121,,rl_choice,,html-keyboard-response,121,176005,0.0-1.0-198.0,0,0,12,,,,,,28.0,28.0,1.0,hard,1500.0,1500.0,0.0,40.0,60.0,40.0,40.0,C,D,/static/Simple_RL/Stimuli/Fractals_stims/C.jpg,/static/Simple_RL/Stimuli/Fractals_stims/D.jpg,,,,,,,,164.5,1.5,1.0
122,,rl_choice_warning,,html-keyboard-response,122,177011,0.0-1.0-200.0-0.0,0,0,12,,,,,,28.0,,1.0,,,,,,,,,,,,,,,,,,,,165.5,1.0,
123,,isi,,html-keyboard-response,123,178513,0.0-1.0-201.0,0,0,12,,,,,,28.0,,1.0,,,,,,,,,,,,,,,,,,,,167.0,1.5,
124,,iti,,html-keyboard-response,124,180016,0.0-1.0-203.0,0,0,12,,,,,,28.0,,1.0,,,,,,,,,,,,,,,,,,,,168.5,1.5,
125,,rl_choice,,html-keyboard-response,125,181518,0.0-1.0-205.0,0,0,12,,,,,,29.0,29.0,1.0,easy,1000.0,1000.0,0.0,20.0,80.0,20.0,80.0,A,B,/static/Simple_RL/Stimuli/Fractals_stims/A.jpg,/static/Simple_RL/Stimuli/Fractals_stims/B.jpg,,,,,,,,170.0,1.5,1.0
126,,rl_choice_warning,,html-keyboard-response,126,182521,0.0-1.0-207.0-0.0,0,0,12,,,,,,29.0,,1.0,,,,,,,,,,,,,,,,,,,,171.0,1.0,
127,,isi,,html-keyboard-response,127,183526,0.0-1.0-208.0,0,0,12,,,,,,29.0,,1.0,,,,,,,,,,,,,,,,,,,,172.0,1.0,
128,,iti,,html-keyboard-response,128,184530,0.0-1.0-210.0,0,0,12,,,,,,29.0,,1.0,,,,,,,,,,,,,,,,,,,,173.0,1.0,
129,,rl_choice,,html-keyboard-response,129,186034,0.0-1.0-212.0,0,0,12,,,,,,30.0,30.0,1.0,hard,1500.0,2000.0,1.0,60.0,40.0,80.0,60.0,D,C,/static/Simple_RL/Stimuli/Fractals_stims/D.jpg,/static/Simple_RL/Stimuli/Fractals_stims/C.jpg,,,,,,,,174.5,1.5,1.0
130,,rl_choice_warning,,html-keyboard-response,130,187037,0.0-1.0-214.0-0.0,0,0,12,,,,,,30.0,,1.0,,,,,,,,,,,,,,,,,,,,175.5,1.0,
131,,isi,,html-keyboard-response,131,189039,0.0-1.0-215.0,0,0,12,,,,,,30.0,,1.0,,,,,,,,,,,,,,,,,,,,177.5,2.0,
132,,iti,,html-keyboard-response,132,190542,0.0-1.0-217.0,0,0,12,,,,,,30.0,,1.0,,,,,,,,,,,,,,,,,,,,179.0,1.5,
133,,rl_choice,,html-keyboard-response,133,192047,0.0-1.0-219.0,0,0,12,,,,,,31.0,31.0,1.0,easy,1000.0,1500.0,1.0,80.0,20.0,80.0,0.0,B,A,/static/Simple_RL/Stimuli/Fractals_stims/B.jpg,/static/Simple_RL/Stimuli/Fractals_stims/A.jpg,,,,,,,,180.5,1.5,1.0
134,,rl_choice_warning,,html-keyboard-response,134,193049,0.0-1.0-221.0-0.0,0,0,12,,,,,,31.0,,1.0,,,,,,,,,,,,,,,,,,,,181.5,1.0,
135,,isi,,html-keyboard-response,135,194553,0.0-1.0-222.0,0,0,12,,,,,,31.0,,1.0,,,,,,,,,,,,,,,,,,,,183.0,1.5,
136,,iti,,html-keyboard-response,136,195556,0.0-1.0-224.0,0,0,12,,,,,,31.0,,1.0,,,,,,,,,,,,,,,,,,,,184.0,1.0,
137,,rl_choice,,html-keyboard-response,137,197062,0.0-1.0-226.0,0,0,12,,,,,,32.0,32.0,1.0,easy,1000.0,3500.0,1.0,80.0,20.0,60.0,20.0,B,A,/static/Simple_RL/Stimuli/Fractals_stims/B.jpg,/static/Simple_RL/Stimuli/Fractals_stims/A.jpg,,,,,,,,185.5,1.5,1.0
138,,rl_choice_warning,,html-keyboard-response,138,198067,0.0-1.0-228.0-0.0,0,0,12,,,,,,32.0,,1.0,,,,,,,,,,,,,,,,,,,,186.5,1.0,
139,,isi,,html-keyboard-response,139,201572,0.0-1.0-229.0,0,0,12,,,,,,32.0,,1.0,,,,,,,,,,,,,,,,,,,,190.0,3.5,
140,,iti,,html-keyboard-response,140,202576,0.0-1.0-231.0,0,0,12,,,,,,32.0,,1.0,,,,,,,,,,,,,,,,,,,,191.0,1.0,
141,,rl_choice,,html-keyboard-response,141,204078,0.0-1.0-233.0,0,0,12,,,,,,33.0,33.0,1.0,hard,2000.0,1500.0,1.0,60.0,40.0,40.0,20.0,D,C,/static/Simple_RL/Stimuli/Fractals_stims/D.jpg,/static/Simple_RL/Stimuli/Fractals_stims/C.jpg,,,,,,,,192.5,1.5,1.0
142,,rl_choice_warning,,html-keyboard-response,142,205083,0.0-1.0-235.0-0.0,0,0,12,,,,,,33.0,,1.0,,,,,,,,,,,,,,,,,,,,193.5,1.0,
143,,isi,,html-keyboard-response,143,206587,0.0-1.0-236.0,0,0,12,,,,,,33.0,,1.0,,,,,,,,,,,,,,,,,,,,195.0,1.5,
144,,iti,,html-keyboard-response,144,208593,0.0-1.0-238.0,0,0,12,,,,,,33.0,,1.0,,,,,,,,,,,,,,,,,,,,197.0,2.0,
145,,rl_choice,,html-keyboard-response,145,210096,0.0-1.0-240.0,0,0,12,,,,,,34.0,34.0,1.0,hard,3000.0,1000.0,0.0,40.0,60.0,20.0,60.0,C,D,/static/Simple_RL/Stimuli/Fractals_stims/C.jpg,/static/Simple_RL/Stimuli/Fractals_stims/D.jpg,,,,,,,,198.5,1.5,1.0
146,,rl_choice_warning,,html-keyboard-response,146,211102,0.0-1.0-242.0-0.0,0,0,12,,,,,,34.0,,1.0,,,,,,,,,,,,,,,,,,,,199.5,1.0,
147,,isi,,html-keyboard-response,147,212105,0.0-1.0-243.0,0,0,12,,,,,,34.0,,1.0,,,,,,,,,,,,,,,,,,,,200.5,1.0,
148,,iti,,html-keyboard-response,148,215107,0.0-1.0-245.0,0,0,12,,,,,,34.0,,1.0,,,,,,,,,,,,,,,,,,,,203.5,3.0,
149,,rl_choice,,html-keyboard-response,149,216610,0.0-1.0-247.0,0,0,12,,,,,,35.0,35.0,1.0,easy,1500.0,1000.0,1.0,80.0,20.0,80.0,20.0,B,A,/static/Simple_RL/Stimuli/Fractals_stims/B.jpg,/static/Simple_RL/Stimuli/Fractals_stims/A.jpg,,,,,,,,205.0,1.5,1.0
150,,rl_choice_warning,,html-keyboard-response,150,217613,0.0-1.0-249.0-0.0,0,0,12,,,,,,35.0,,1.0,,,,,,,,,,,,,,,,,,,,206.0,1.0,
151,,isi,,html-keyboard-response,151,218618,0.0-1.0-250.0,0,0,12,,,,,,35.0,,1.0,,,,,,,,,,,,,,,,,,,,207.0,1.0,
152,,iti,,html-keyboard-response,152,220121,0.0-1.0-252.0,0,0,12,,,,,,35.0,,1.0,,,,,,,,,,,,,,,,,,,,208.5,1.5,
153,,rl_choice,,html-keyboard-response,153,221625,0.0-1.0-254.0,0,0,12,,,,,,36.0,36.0,1.0,easy,1500.0,2000.0,1.0,80.0,20.0,80.0,40.0,B,A,/static/Simple_RL/Stimuli/Fractals_stims/B.jpg,/static/Simple_RL/Stimuli/Fractals_stims/A.jpg,,,,,,,,210.0,1.5,1.0
154,,rl_choice_warning,,html-keyboard-response,154,222627,0.0-1.0-256.0-0.0,0,0,12,,,,,,36.0,,1.0,,,,,,,,,,,,,,,,,,,,211.0,1.0,
155,,isi,,html-keyboard-response,155,224633,0.0-1.0-257.0,0,0,12,,,,,,36.0,,1.0,,,,,,,,,,,,,,,,,,,,213.0,2.0,
156,,iti,,html-keyboard-response,156,226137,0.0-1.0-259.0,0,0,12,,,,,,36.0,,1.0,,,,,,,,,,,,,,,,,,,,214.5,1.5,
157,,rl_choice,,html-keyboard-response,157,227643,0.0-1.0-261.0,0,0,12,,,,,,37.0,37.0,1.0,easy,2000.0,1000.0,1.0,80.0,20.0,60.0,40.0,B,A,/static/Simple_RL/Stimuli/Fractals_stims/B.jpg,/static/Simple_RL/Stimuli/Fractals_stims/A.jpg,,,,,,,,216.0,1.5,1.0
158,,rl_choice_warning,,html-keyboard-response,158,228649,0.0-1.0-263.0-0.0,0,0,12,,,,,,37.0,,1.0,,,,,,,,,,,,,,,,,,,,217.0,1.0,
159,,isi,,html-keyboard-response,159,229654,0.0-1.0-264.0,0,0,12,,,,,,37.0,,1.0,,,,,,,,,,,,,,,,,,,,218.0,1.0,
160,,iti,,html-keyboard-response,160,231656,0.0-1.0-266.0,0,0,12,,,,,,37.0,,1.0,,,,,,,,,,,,,,,,,,,,220.0,2.0,
161,,rl_choice,,html-keyboard-response,161,233162,0.0-1.0-268.0,0,0,12,,,,,,38.0,38.0,1.0,easy,3500.0,1500.0,0.0,20.0,80.0,40.0,60.0,A,B,/static/Simple_RL/Stimuli/Fractals_stims/A.jpg,/static/Simple_RL/Stimuli/Fractals_stims/B.jpg,,,,,,,,221.5,1.5,1.0
162,,rl_choice_warning,,html-keyboard-response,162,234165,0.0-1.0-270.0-0.0,0,0,12,,,,,,38.0,,1.0,,,,,,,,,,,,,,,,,,,,222.5,1.0,
163,,isi,,html-keyboard-response,163,235668,0.0-1.0-271.0,0,0,12,,,,,,38.0,,1.0,,,,,,,,,,,,,,,,,,,,224.0,1.5,
164,,iti,,html-keyboard-response,164,239171,0.0-1.0-273.0,0,0,12,,,,,,38.0,,1.0,,,,,,,,,,,,,,,,,,,,227.5,3.5,
165,,rl_choice,,html-keyboard-response,165,240678,0.0-1.0-275.0,0,0,12,,,,,,39.0,39.0,1.0,easy,1000.0,1000.0,1.0,80.0,20.0,60.0,20.0,B,A,/static/Simple_RL/Stimuli/Fractals_stims/B.jpg,/static/Simple_RL/Stimuli/Fractals_stims/A.jpg,,,,,,,,229.0,1.5,1.0
166,,rl_choice_warning,,html-keyboard-response,166,241684,0.0-1.0-277.0-0.0,0,0,12,,,,,,39.0,,1.0,,,,,,,,,,,,,,,,,,,,230.0,1.0,
167,,isi,,html-keyboard-response,167,242689,0.0-1.0-278.0,0,0,12,,,,,,39.0,,1.0,,,,,,,,,,,,,,,,,,,,231.0,1.0,
168,,iti,,html-keyboard-response,168,243694,0.0-1.0-280.0,0,0,12,,,,,,39.0,,1.0,,,,,,,,,,,,,,,,,,,,232.0,1.0,
169,,block_over,,html-keyboard-response,169,247217,0.0-1.0-281.0-0.0,0,0,12,,3521.0,,,50.0,39.0,,,,,,,,,,,,,,,,,,,,,,,,
170,,start_run,,html-keyboard-response,170,248213,0.0-1.0-281.0-1.0,0,0,12,,994.0,,,84.0,,,,,,,,,,,,,,,,,,,,,,,,,
171,,rl_choice,,html-keyboard-response,171,248507,0.0-1.0-282.0,0,0,12,,292.0,,,51.0,40.0,40.0,2.0,hard,1000.0,2000.0,0.0,40.0,60.0,40.0,40.0,C,D,/static/Simple_RL/Stimuli/Fractals_stims/C.jpg,/static/Simple_RL/Stimuli/Fractals_stims/D.jpg,0.0,60.0,40.0,40.0,40.0,D,C,0.292,0.292,0.0
172,,rl_choice_confirmation,,html-keyboard-response,172,249719,0.0-1.0-283.0-0.0,0,0,12,,,,,,40.0,,2.0,,,,,,,,,,,,,,,,,,,,1.5,1.208,
173,,isi,,html-keyboard-response,173,251724,0.0-1.0-285.0,0,0,12,,,,,,40.0,,2.0,,,,,,,,,,,,,,,,,,,,3.5,2.0,
174,,feedback,,html-keyboard-response,174,252727,0.0-1.0-286.0-0.0,0,0,12,,,,,,40.0,,2.0,,,,,,,,,,,,,,,,,,,,4.5,1.0,
175,,iti,,html-keyboard-response,175,253731,0.0-1.0-287.0,0,0,12,,,,,,40.0,,2.0,,,,,,,,,,,,,,,,,,,,5.5,1.0,
176,,rl_choice,,html-keyboard-response,176,253827,0.0-1.0-289.0,0,0,12,,94.0,,,50.0,41.0,41.0,2.0,hard,1000.0,3000.0,1.0,60.0,40.0,40.0,60.0,D,C,/static/Simple_RL/Stimuli/Fractals_stims/D.jpg,/static/Simple_RL/Stimuli/Fractals_stims/C.jpg,1.0,60.0,40.0,40.0,60.0,D,C,5.593999999999999,0.094,0.0
177,,rl_choice_confirmation,,html-keyboard-response,177,255237,0.0-1.0-290.0-0.0,0,0,12,,,,,,41.0,,2.0,,,,,,,,,,,,,,,,,,,,7.0,1.406,
178,,isi,,html-keyboard-response,178,258242,0.0-1.0-292.0,0,0,12,,,,,,41.0,,2.0,,,,,,,,,,,,,,,,,,,,10.0,3.0,
179,,feedback,,html-keyboard-response,179,259246,0.0-1.0-293.0-0.0,0,0,12,,,,,,41.0,,2.0,,,,,,,,,,,,,,,,,,,,11.0,1.0,
180,,iti,,html-keyboard-response,180,260250,0.0-1.0-294.0,0,0,12,,,,,,41.0,,2.0,,,,,,,,,,,,,,,,,,,,12.0,1.0,
181,,rl_choice,,html-keyboard-response,181,261752,0.0-1.0-296.0,0,0,12,,,,,,42.0,42.0,2.0,hard,1000.0,1000.0,0.0,40.0,60.0,40.0,40.0,C,D,/static/Simple_RL/Stimuli/Fractals_stims/C.jpg,/static/Simple_RL/Stimuli/Fractals_stims/D.jpg,,,,,,,,13.5,1.5,1.0
182,,rl_choice_warning,,html-keyboard-response,182,262753,0.0-1.0-298.0-0.0,1,0,12,,,,,,42.0,,2.0,,,,,,,,,,,,,,,,,,,,14.5,1.0,
183,,isi,,html-keyboard-response,183,263756,0.0-1.0-299.0,0,0,12,,,,,,42.0,,2.0,,,,,,,,,,,,,,,,,,,,15.5,1.0,
184,,iti,,html-keyboard-response,184,264759,0.0-1.0-301.0,0,0,12,,,,,,42.0,,2.0,,,,,,,,,,,,,,,,,,,,16.5,1.0,
185,,rl_choice,,html-keyboard-response,185,266263,0.0-1.0-303.0,0,0,12,,,,,,43.0,43.0,2.0,easy,1500.0,2000.0,0.0,20.0,80.0,0.0,60.0,A,B,/static/Simple_RL/Stimuli/Fractals_stims/A.jpg,/static/Simple_RL/Stimuli/Fractals_stims/B.jpg,,,,,,,,18.0,1.5,1.0
186,,rl_choice_warning,,html-keyboard-response,186,267267,0.0-1.0-305.0-0.0,1,0,12,,,,,,43.0,,2.0,,,,,,,,,,,,,,,,,,,,19.0,1.0,
187,,isi,,html-keyboard-response,187,269272,0.0-1.0-306.0,0,0,12,,,,,,43.0,,2.0,,,,,,,,,,,,,,,,,,,,21.0,2.0,
188,,iti,,html-keyboard-response,188,270776,0.0-1.0-308.0,0,0,12,,,,,,43.0,,2.0,,,,,,,,,,,,,,,,,,,,22.5,1.5,
189,,rl_choice,,html-keyboard-response,189,272282,0.0-1.0-310.0,0,0,12,,,,,,44.0,44.0,2.0,hard,1000.0,1500.0,0.0,40.0,60.0,60.0,60.0,C,D,/static/Simple_RL/Stimuli/Fractals_stims/C.jpg,/static/Simple_RL/Stimuli/Fractals_stims/D.jpg,,,,,,,,24.0,1.5,1.0
190,,rl_choice_warning,,html-keyboard-response,190,273288,0.0-1.0-312.0-0.0,1,0,12,,,,,,44.0,,2.0,,,,,,,,,,,,,,,,,,,,25.0,1.0,
191,,isi,,html-keyboard-response,191,274794,0.0-1.0-313.0,0,0,12,,,,,,44.0,,2.0,,,,,,,,,,,,,,,,,,,,26.5,1.5,
192,,iti,,html-keyboard-response,192,275800,0.0-1.0-315.0,0,0,12,,,,,,44.0,,2.0,,,,,,,,,,,,,,,,,,,,27.5,1.0,
193,,rl_choice,,html-keyboard-response,193,277305,0.0-1.0-317.0,0,0,12,,,,,,45.0,45.0,2.0,hard,2000.0,2000.0,0.0,40.0,60.0,40.0,60.0,C,D,/static/Simple_RL/Stimuli/Fractals_stims/C.jpg,/static/Simple_RL/Stimuli/Fractals_stims/D.jpg,,,,,,,,29.0,1.5,1.0
194,,rl_choice_warning,,html-keyboard-response,194,278309,0.0-1.0-319.0-0.0,1,0,12,,,,,,45.0,,2.0,,,,,,,,,,,,,,,,,,,,30.0,1.0,
195,,isi,,html-keyboard-response,195,280313,0.0-1.0-320.0,0,0,12,,,,,,45.0,,2.0,,,,,,,,,,,,,,,,,,,,32.0,2.0,
196,,iti,,html-keyboard-response,196,282317,0.0-1.0-322.0,0,0,12,,,,,,45.0,,2.0,,,,,,,,,,,,,,,,,,,,34.0,2.0,
197,,rl_choice,,html-keyboard-response,197,283821,0.0-1.0-324.0,0,0,12,,,,,,46.0,46.0,2.0,hard,2000.0,2000.0,0.0,40.0,60.0,40.0,40.0,C,D,/static/Simple_RL/Stimuli/Fractals_stims/C.jpg,/static/Simple_RL/Stimuli/Fractals_stims/D.jpg,,,,,,,,35.5,1.5,1.0
198,,rl_choice_warning,,html-keyboard-response,198,284828,0.0-1.0-326.0-0.0,1,0,12,,,,,,46.0,,2.0,,,,,,,,,,,,,,,,,,,,36.5,1.0,
199,,isi,,html-keyboard-response,199,286829,0.0-1.0-327.0,0,0,12,,,,,,46.0,,2.0,,,,,,,,,,,,,,,,,,,,38.5,2.0,
200,,iti,,html-keyboard-response,200,288833,0.0-1.0-329.0,0,0,12,,,,,,46.0,,2.0,,,,,,,,,,,,,,,,,,,,40.5,2.0,
201,,rl_choice,,html-keyboard-response,201,290338,0.0-1.0-331.0,0,0,12,,,,,,47.0,47.0,2.0,hard,1500.0,1500.0,1.0,60.0,40.0,80.0,20.0,D,C,/static/Simple_RL/Stimuli/Fractals_stims/D.jpg,/static/Simple_RL/Stimuli/Fractals_stims/C.jpg,,,,,,,,42.0,1.5,1.0
202,,rl_choice_warning,,html-keyboard-response,202,291343,0.0-1.0-333.0-0.0,1,0,12,,,,,,47.0,,2.0,,,,,,,,,,,,,,,,,,,,43.0,1.0,
203,,isi,,html-keyboard-response,203,292845,0.0-1.0-334.0,0,0,12,,,,,,47.0,,2.0,,,,,,,,,,,,,,,,,,,,44.5,1.5,
204,,iti,,html-keyboard-response,204,294351,0.0-1.0-336.0,0,0,12,,,,,,47.0,,2.0,,,,,,,,,,,,,,,,,,,,46.0,1.5,
205,,rl_choice,,html-keyboard-response,205,295855,0.0-1.0-338.0,0,0,12,,,,,,48.0,48.0,2.0,easy,3500.0,1000.0,1.0,80.0,20.0,60.0,0.0,B,A,/static/Simple_RL/Stimuli/Fractals_stims/B.jpg,/static/Simple_RL/Stimuli/Fractals_stims/A.jpg,,,,,,,,47.5,1.5,1.0
206,,rl_choice_warning,,html-keyboard-response,206,296861,0.0-1.0-340.0-0.0,1,0,12,,,,,,48.0,,2.0,,,,,,,,,,,,,,,,,,,,48.5,1.0,
207,,isi,,html-keyboard-response,207,297866,0.0-1.0-341.0,0,0,12,,,,,,48.0,,2.0,,,,,,,,,,,,,,,,,,,,49.5,1.0,
208,,iti,,html-keyboard-response,208,301373,0.0-1.0-343.0,0,0,12,,,,,,48.0,,2.0,,,,,,,,,,,,,,,,,,,,53.0,3.5,
209,,rl_choice,,html-keyboard-response,209,302880,0.0-1.0-345.0,0,0,12,,,,,,49.0,49.0,2.0,hard,1000.0,3500.0,1.0,60.0,40.0,80.0,20.0,D,C,/static/Simple_RL/Stimuli/Fractals_stims/D.jpg,/static/Simple_RL/Stimuli/Fractals_stims/C.jpg,,,,,,,,54.5,1.5,1.0
210,,rl_choice_warning,,html-keyboard-response,210,303882,0.0-1.0-347.0-0.0,1,0,12,,,,,,49.0,,2.0,,,,,,,,,,,,,,,,,,,,55.5,1.0,
211,,isi,,html-keyboard-response,211,307387,0.0-1.0-348.0,0,0,12,,,,,,49.0,,2.0,,,,,,,,,,,,,,,,,,,,59.0,3.5,
212,,iti,,html-keyboard-response,212,308390,0.0-1.0-350.0,0,0,12,,,,,,49.0,,2.0,,,,,,,,,,,,,,,,,,,,60.0,1.0,
213,,rl_choice,,html-keyboard-response,213,309895,0.0-1.0-352.0,0,0,12,,,,,,50.0,50.0,2.0,easy,1000.0,1500.0,1.0,80.0,20.0,80.0,40.0,B,A,/static/Simple_RL/Stimuli/Fractals_stims/B.jpg,/static/Simple_RL/Stimuli/Fractals_stims/A.jpg,,,,,,,,61.5,1.5,1.0
214,,rl_choice_warning,,html-keyboard-response,214,310899,0.0-1.0-354.0-0.0,1,0,12,,,,,,50.0,,2.0,,,,,,,,,,,,,,,,,,,,62.5,1.0,
215,,isi,,html-keyboard-response,215,312404,0.0-1.0-355.0,0,0,12,,,,,,50.0,,2.0,,,,,,,,,,,,,,,,,,,,64.0,1.5,
216,,iti,,html-keyboard-response,216,313410,0.0-1.0-357.0,0,0,12,,,,,,50.0,,2.0,,,,,,,,,,,,,,,,,,,,65.0,1.0,
217,,rl_choice,,html-keyboard-response,217,314913,0.0-1.0-359.0,0,0,12,,,,,,51.0,51.0,2.0,easy,1000.0,2000.0,0.0,20.0,80.0,0.0,100.0,A,B,/static/Simple_RL/Stimuli/Fractals_stims/A.jpg,/static/Simple_RL/Stimuli/Fractals_stims/B.jpg,,,,,,,,66.5,1.5,1.0
218,,rl_choice_warning,,html-keyboard-response,218,315919,0.0-1.0-361.0-0.0,1,0,12,,,,,,51.0,,2.0,,,,,,,,,,,,,,,,,,,,67.5,1.0,
219,,isi,,html-keyboard-response,219,317923,0.0-1.0-362.0,0,0,12,,,,,,51.0,,2.0,,,,,,,,,,,,,,,,,,,,69.5,2.0,
220,,iti,,html-keyboard-response,220,318928,0.0-1.0-364.0,0,0,12,,,,,,51.0,,2.0,,,,,,,,,,,,,,,,,,,,70.5,1.0,
221,,rl_choice,,html-keyboard-response,221,320435,0.0-1.0-366.0,0,0,12,,,,,,52.0,52.0,2.0,easy,3000.0,1500.0,0.0,20.0,80.0,40.0,80.0,A,B,/static/Simple_RL/Stimuli/Fractals_stims/A.jpg,/static/Simple_RL/Stimuli/Fractals_stims/B.jpg,,,,,,,,72.0,1.5,1.0
222,,rl_choice_warning,,html-keyboard-response,222,321440,0.0-1.0-368.0-0.0,1,0,12,,,,,,52.0,,2.0,,,,,,,,,,,,,,,,,,,,73.0,1.0,
223,,isi,,html-keyboard-response,223,322943,0.0-1.0-369.0,0,0,12,,,,,,52.0,,2.0,,,,,,,,,,,,,,,,,,,,74.5,1.5,
224,,iti,,html-keyboard-response,224,325949,0.0-1.0-371.0,0,0,12,,,,,,52.0,,2.0,,,,,,,,,,,,,,,,,,,,77.5,3.0,
225,,rl_choice,,html-keyboard-response,225,327453,0.0-1.0-373.0,0,0,12,,,,,,53.0,53.0,2.0,hard,2000.0,1000.0,1.0,60.0,40.0,60.0,40.0,D,C,/static/Simple_RL/Stimuli/Fractals_stims/D.jpg,/static/Simple_RL/Stimuli/Fractals_stims/C.jpg,,,,,,,,79.0,1.5,1.0
226,,rl_choice_warning,,html-keyboard-response,226,328455,0.0-1.0-375.0-0.0,1,0,12,,,,,,53.0,,2.0,,,,,,,,,,,,,,,,,,,,80.0,1.0,
227,,isi,,html-keyboard-response,227,329460,0.0-1.0-376.0,0,0,12,,,,,,53.0,,2.0,,,,,,,,,,,,,,,,,,,,81.0,1.0,
228,,iti,,html-keyboard-response,228,331463,0.0-1.0-378.0,0,0,12,,,,,,53.0,,2.0,,,,,,,,,,,,,,,,,,,,83.0,2.0,
229,,rl_choice,,html-keyboard-response,229,332969,0.0-1.0-380.0,0,0,12,,,,,,54.0,54.0,2.0,easy,2000.0,1500.0,0.0,20.0,80.0,0.0,100.0,A,B,/static/Simple_RL/Stimuli/Fractals_stims/A.jpg,/static/Simple_RL/Stimuli/Fractals_stims/B.jpg,,,,,,,,84.5,1.5,1.0
230,,rl_choice_warning,,html-keyboard-response,230,333975,0.0-1.0-382.0-0.0,1,0,12,,,,,,54.0,,2.0,,,,,,,,,,,,,,,,,,,,85.5,1.0,
231,,isi,,html-keyboard-response,231,335478,0.0-1.0-383.0,0,0,12,,,,,,54.0,,2.0,,,,,,,,,,,,,,,,,,,,87.0,1.5,
232,,iti,,html-keyboard-response,232,337482,0.0-1.0-385.0,0,0,12,,,,,,54.0,,2.0,,,,,,,,,,,,,,,,,,,,89.0,2.0,
233,,rl_choice,,html-keyboard-response,233,338985,0.0-1.0-387.0,0,0,12,,,,,,55.0,55.0,2.0,easy,1000.0,1000.0,0.0,20.0,80.0,40.0,100.0,A,B,/static/Simple_RL/Stimuli/Fractals_stims/A.jpg,/static/Simple_RL/Stimuli/Fractals_stims/B.jpg,,,,,,,,90.5,1.5,1.0
234,,rl_choice_warning,,html-keyboard-response,234,339990,0.0-1.0-389.0-0.0,1,0,12,,,,,,55.0,,2.0,,,,,,,,,,,,,,,,,,,,91.5,1.0,
235,,isi,,html-keyboard-response,235,340995,0.0-1.0-390.0,0,0,12,,,,,,55.0,,2.0,,,,,,,,,,,,,,,,,,,,92.5,1.0,
236,,iti,,html-keyboard-response,236,342000,0.0-1.0-392.0,0,0,12,,,,,,55.0,,2.0,,,,,,,,,,,,,,,,,,,,93.5,1.0,
237,,rl_choice,,html-keyboard-response,237,343502,0.0-1.0-394.0,0,0,12,,,,,,56.0,56.0,2.0,hard,2000.0,1000.0,1.0,60.0,40.0,60.0,20.0,D,C,/static/Simple_RL/Stimuli/Fractals_stims/D.jpg,/static/Simple_RL/Stimuli/Fractals_stims/C.jpg,,,,,,,,95.0,1.5,1.0
238,,rl_choice_warning,,html-keyboard-response,238,344507,0.0-1.0-396.0-0.0,1,0,12,,,,,,56.0,,2.0,,,,,,,,,,,,,,,,,,,,96.0,1.0,
239,,isi,,html-keyboard-response,239,345512,0.0-1.0-397.0,0,0,12,,,,,,56.0,,2.0,,,,,,,,,,,,,,,,,,,,97.0,1.0,
240,,iti,,html-keyboard-response,240,347519,0.0-1.0-399.0,0,0,12,,,,,,56.0,,2.0,,,,,,,,,,,,,,,,,,,,99.0,2.0,
241,,rl_choice,,html-keyboard-response,241,349021,0.0-1.0-401.0,0,0,12,,,,,,57.0,57.0,2.0,easy,1000.0,2000.0,1.0,80.0,20.0,80.0,0.0,B,A,/static/Simple_RL/Stimuli/Fractals_stims/B.jpg,/static/Simple_RL/Stimuli/Fractals_stims/A.jpg,,,,,,,,100.5,1.5,1.0
242,,rl_choice_warning,,html-keyboard-response,242,350027,0.0-1.0-403.0-0.0,1,0,12,,,,,,57.0,,2.0,,,,,,,,,,,,,,,,,,,,101.5,1.0,
243,,isi,,html-keyboard-response,243,352032,0.0-1.0-404.0,0,0,12,,,,,,57.0,,2.0,,,,,,,,,,,,,,,,,,,,103.5,2.0,
244,,iti,,html-keyboard-response,244,353035,0.0-1.0-406.0,0,0,12,,,,,,57.0,,2.0,,,,,,,,,,,,,,,,,,,,104.5,1.0,
245,,rl_choice,,html-keyboard-response,245,354540,0.0-1.0-408.0,0,0,12,,,,,,58.0,58.0,2.0,hard,1000.0,1500.0,1.0,60.0,40.0,60.0,60.0,D,C,/static/Simple_RL/Stimuli/Fractals_stims/D.jpg,/static/Simple_RL/Stimuli/Fractals_stims/C.jpg,,,,,,,,106.0,1.5,1.0
246,,rl_choice_warning,,html-keyboard-response,246,355545,0.0-1.0-410.0-0.0,1,0,12,,,,,,58.0,,2.0,,,,,,,,,,,,,,,,,,,,107.0,1.0,
247,,isi,,html-keyboard-response,247,357047,0.0-1.0-411.0,0,0,12,,,,,,58.0,,2.0,,,,,,,,,,,,,,,,,,,,108.5,1.5,
248,,iti,,html-keyboard-response,248,358053,0.0-1.0-413.0,0,0,12,,,,,,58.0,,2.0,,,,,,,,,,,,,,,,,,,,109.5,1.0,
249,,rl_choice,,html-keyboard-response,249,359557,0.0-1.0-415.0,0,0,12,,,,,,59.0,59.0,2.0,easy,1500.0,3000.0,1.0,80.0,20.0,80.0,40.0,B,A,/static/Simple_RL/Stimuli/Fractals_stims/B.jpg,/static/Simple_RL/Stimuli/Fractals_stims/A.jpg,,,,,,,,111.0,1.5,1.0
250,,rl_choice_warning,,html-keyboard-response,250,360562,0.0-1.0-417.0-0.0,1,0,12,,,,,,59.0,,2.0,,,,,,,,,,,,,,,,,,,,112.0,1.0,
251,,isi,,html-keyboard-response,251,363568,0.0-1.0-418.0,0,0,12,,,,,,59.0,,2.0,,,,,,,,,,,,,,,,,,,,115.0,3.0,
252,,iti,,html-keyboard-response,252,365074,0.0-1.0-420.0,0,0,12,,,,,,59.0,,2.0,,,,,,,,,,,,,,,,,,,,116.5,1.5,
253,,rl_choice,,html-keyboard-response,253,365078,0.0-1.0-422.0,0,0,12,,2.0,,,50.0,60.0,60.0,2.0,hard,1500.0,2000.0,0.0,40.0,60.0,40.0,80.0,C,D,/static/Simple_RL/Stimuli/Fractals_stims/C.jpg,/static/Simple_RL/Stimuli/Fractals_stims/D.jpg,1.0,40.0,60.0,40.0,80.0,C,D,116.50200000000001,0.002,0.0
254,,rl_choice_confirmation,,html-keyboard-response,254,366578,0.0-1.0-423.0-0.0,0,0,12,,,,,,60.0,,2.0,,,,,,,,,,,,,,,,,,,,118.0,1.4980000000000002,
255,,isi,,html-keyboard-response,255,368580,0.0-1.0-425.0,0,0,12,,,,,,60.0,,2.0,,,,,,,,,,,,,,,,,,,,120.0,2.0,
256,,feedback,,html-keyboard-response,256,369582,0.0-1.0-426.0-0.0,0,0,12,,,,,,60.0,,2.0,,,,,,,,,,,,,,,,,,,,121.0,1.0,
257,,iti,,html-keyboard-response,257,371086,0.0-1.0-427.0,0,0,12,,,,,,60.0,,2.0,,,,,,,,,,,,,,,,,,,,122.5,1.5,
258,,rl_choice,,html-keyboard-response,258,372588,0.0-1.0-429.0,0,0,12,,,,,,61.0,61.0,2.0,hard,1000.0,1000.0,1.0,60.0,40.0,40.0,40.0,D,C,/static/Simple_RL/Stimuli/Fractals_stims/D.jpg,/static/Simple_RL/Stimuli/Fractals_stims/C.jpg,,,,,,,,124.0,1.5,1.0
259,,rl_choice_warning,,html-keyboard-response,259,373591,0.0-1.0-431.0-0.0,1,0,12,,,,,,61.0,,2.0,,,,,,,,,,,,,,,,,,,,125.0,1.0,
260,,isi,,html-keyboard-response,260,374593,0.0-1.0-432.0,0,0,12,,,,,,61.0,,2.0,,,,,,,,,,,,,,,,,,,,126.0,1.0,
261,,iti,,html-keyboard-response,261,375599,0.0-1.0-434.0,0,0,12,,,,,,61.0,,2.0,,,,,,,,,,,,,,,,,,,,127.0,1.0,
262,,rl_choice,,html-keyboard-response,262,377102,0.0-1.0-436.0,0,0,12,,,,,,62.0,62.0,2.0,easy,3000.0,1500.0,0.0,20.0,80.0,20.0,80.0,A,B,/static/Simple_RL/Stimuli/Fractals_stims/A.jpg,/static/Simple_RL/Stimuli/Fractals_stims/B.jpg,,,,,,,,128.5,1.5,1.0
263,,rl_choice_warning,,html-keyboard-response,263,378105,0.0-1.0-438.0-0.0,1,0,12,,,,,,62.0,,2.0,,,,,,,,,,,,,,,,,,,,129.5,1.0,
264,,isi,,html-keyboard-response,264,379606,0.0-1.0-439.0,0,0,12,,,,,,62.0,,2.0,,,,,,,,,,,,,,,,,,,,131.0,1.5,
265,,iti,,html-keyboard-response,265,382608,0.0-1.0-441.0,0,0,12,,,,,,62.0,,2.0,,,,,,,,,,,,,,,,,,,,134.0,3.0,
266,,rl_choice,,html-keyboard-response,266,382734,0.0-1.0-443.0,0,0,12,,124.0,,,50.0,63.0,63.0,2.0,hard,1000.0,1500.0,1.0,60.0,40.0,60.0,40.0,D,C,/static/Simple_RL/Stimuli/Fractals_stims/D.jpg,/static/Simple_RL/Stimuli/Fractals_stims/C.jpg,1.0,60.0,40.0,60.0,40.0,D,C,134.124,0.124,0.0
267,,rl_choice_confirmation,,html-keyboard-response,267,384113,0.0-1.0-444.0-0.0,0,0,12,,,,,,63.0,,2.0,,,,,,,,,,,,,,,,,,,,135.5,1.376,
268,,isi,,html-keyboard-response,268,385615,0.0-1.0-446.0,0,0,12,,,,,,63.0,,2.0,,,,,,,,,,,,,,,,,,,,137.0,1.5,
269,,feedback,,html-keyboard-response,269,386619,0.0-1.0-447.0-0.0,0,0,12,,,,,,63.0,,2.0,,,,,,,,,,,,,,,,,,,,138.0,1.0,
270,,iti,,html-keyboard-response,270,387620,0.0-1.0-448.0,0,0,12,,,,,,63.0,,2.0,,,,,,,,,,,,,,,,,,,,139.0,1.0,
271,,rl_choice,,html-keyboard-response,271,389125,0.0-1.0-450.0,0,0,12,,,,,,64.0,64.0,2.0,hard,3500.0,1000.0,0.0,40.0,60.0,60.0,80.0,C,D,/static/Simple_RL/Stimuli/Fractals_stims/C.jpg,/static/Simple_RL/Stimuli/Fractals_stims/D.jpg,,,,,,,,140.5,1.5,1.0
272,,rl_choice_warning,,html-keyboard-response,272,390131,0.0-1.0-452.0-0.0,1,0,12,,,,,,64.0,,2.0,,,,,,,,,,,,,,,,,,,,141.5,1.0,
273,,isi,,html-keyboard-response,273,391137,0.0-1.0-453.0,0,0,12,,,,,,64.0,,2.0,,,,,,,,,,,,,,,,,,,,142.5,1.0,
274,,iti,,html-keyboard-response,274,394639,0.0-1.0-455.0,0,0,12,,,,,,64.0,,2.0,,,,,,,,,,,,,,,,,,,,146.0,3.5,
275,,rl_choice,,html-keyboard-response,275,396144,0.0-1.0-457.0,0,0,12,,,,,,65.0,65.0,2.0,easy,1500.0,1000.0,1.0,80.0,20.0,100.0,40.0,B,A,/static/Simple_RL/Stimuli/Fractals_stims/B.jpg,/static/Simple_RL/Stimuli/Fractals_stims/A.jpg,,,,,,,,147.5,1.5,1.0
276,,rl_choice_warning,,html-keyboard-response,276,397147,0.0-1.0-459.0-0.0,1,0,12,,,,,,65.0,,2.0,,,,,,,,,,,,,,,,,,,,148.5,1.0,
277,,isi,,html-keyboard-response,277,398152,0.0-1.0-460.0,0,0,12,,,,,,65.0,,2.0,,,,,,,,,,,,,,,,,,,,149.5,1.0,
278,,iti,,html-keyboard-response,278,399659,0.0-1.0-462.0,0,0,12,,,,,,65.0,,2.0,,,,,,,,,,,,,,,,,,,,151.0,1.5,
279,,rl_choice,,html-keyboard-response,279,401164,0.0-1.0-464.0,0,0,12,,,,,,66.0,66.0,2.0,hard,1500.0,3000.0,1.0,60.0,40.0,60.0,40.0,D,C,/static/Simple_RL/Stimuli/Fractals_stims/D.jpg,/static/Simple_RL/Stimuli/Fractals_stims/C.jpg,,,,,,,,152.5,1.5,1.0
280,,rl_choice_warning,,html-keyboard-response,280,402166,0.0-1.0-466.0-0.0,1,0,12,,,,,,66.0,,2.0,,,,,,,,,,,,,,,,,,,,153.5,1.0,
281,,isi,,html-keyboard-response,281,405168,0.0-1.0-467.0,0,0,12,,,,,,66.0,,2.0,,,,,,,,,,,,,,,,,,,,156.5,3.0,
282,,iti,,html-keyboard-response,282,406674,0.0-1.0-469.0,0,0,12,,,,,,66.0,,2.0,,,,,,,,,,,,,,,,,,,,158.0,1.5,
283,,rl_choice,,html-keyboard-response,283,408176,0.0-1.0-471.0,0,0,12,,,,,,67.0,67.0,2.0,hard,1500.0,1500.0,0.0,40.0,60.0,20.0,80.0,C,D,/static/Simple_RL/Stimuli/Fractals_stims/C.jpg,/static/Simple_RL/Stimuli/Fractals_stims/D.jpg,,,,,,,,159.5,1.5,1.0
284,,rl_choice_warning,,html-keyboard-response,284,409180,0.0-1.0-473.0-0.0,1,0,12,,,,,,67.0,,2.0,,,,,,,,,,,,,,,,,,,,160.5,1.0,
285,,isi,,html-keyboard-response,285,410685,0.0-1.0-474.0,0,0,12,,,,,,67.0,,2.0,,,,,,,,,,,,,,,,,,,,162.0,1.5,
286,,iti,,html-keyboard-response,286,412189,0.0-1.0-476.0,0,0,12,,,,,,67.0,,2.0,,,,,,,,,,,,,,,,,,,,163.5,1.5,
287,,rl_choice,,html-keyboard-response,287,413695,0.0-1.0-478.0,0,0,12,,,,,,68.0,68.0,2.0,hard,3000.0,1000.0,1.0,60.0,40.0,60.0,40.0,D,C,/static/Simple_RL/Stimuli/Fractals_stims/D.jpg,/static/Simple_RL/Stimuli/Fractals_stims/C.jpg,,,,,,,,165.0,1.5,1.0
288,,rl_choice_warning,,html-keyboard-response,288,414698,0.0-1.0-480.0-0.0,1,0,12,,,,,,68.0,,2.0,,,,,,,,,,,,,,,,,,,,166.0,1.0,
289,,isi,,html-keyboard-response,289,415704,0.0-1.0-481.0,0,0,12,,,,,,68.0,,2.0,,,,,,,,,,,,,,,,,,,,167.0,1.0,
290,,iti,,html-keyboard-response,290,418706,0.0-1.0-483.0,0,0,12,,,,,,68.0,,2.0,,,,,,,,,,,,,,,,,,,,170.0,3.0,
291,,rl_choice,,html-keyboard-response,291,420208,0.0-1.0-485.0,0,0,12,,,,,,69.0,69.0,2.0,easy,1000.0,1000.0,0.0,20.0,80.0,40.0,80.0,A,B,/static/Simple_RL/Stimuli/Fractals_stims/A.jpg,/static/Simple_RL/Stimuli/Fractals_stims/B.jpg,,,,,,,,171.5,1.5,1.0
292,,rl_choice_warning,,html-keyboard-response,292,421212,0.0-1.0-487.0-0.0,1,0,12,,,,,,69.0,,2.0,,,,,,,,,,,,,,,,,,,,172.5,1.0,
293,,isi,,html-keyboard-response,293,422219,0.0-1.0-488.0,0,0,12,,,,,,69.0,,2.0,,,,,,,,,,,,,,,,,,,,173.5,1.0,
294,,iti,,html-keyboard-response,294,423225,0.0-1.0-490.0,0,0,12,,,,,,69.0,,2.0,,,,,,,,,,,,,,,,,,,,174.5,1.0,
295,,rl_choice,,html-keyboard-response,295,424727,0.0-1.0-492.0,0,0,12,,,,,,70.0,70.0,2.0,easy,1500.0,1000.0,1.0,80.0,20.0,80.0,20.0,B,A,/static/Simple_RL/Stimuli/Fractals_stims/B.jpg,/static/Simple_RL/Stimuli/Fractals_stims/A.jpg,,,,,,,,176.0,1.5,1.0
296,,rl_choice_warning,,html-keyboard-response,296,425732,0.0-1.0-494.0-0.0,1,0,12,,,,,,70.0,,2.0,,,,,,,,,,,,,,,,,,,,177.0,1.0,
297,,isi,,html-keyboard-response,297,426737,0.0-1.0-495.0,0,0,12,,,,,,70.0,,2.0,,,,,,,,,,,,,,,,,,,,178.0,1.0,
298,,iti,,html-keyboard-response,298,428242,0.0-1.0-497.0,0,0,12,,,,,,70.0,,2.0,,,,,,,,,,,,,,,,,,,,179.5,1.5,
299,,rl_choice,,html-keyboard-response,299,429744,0.0-1.0-499.0,0,0,12,,,,,,71.0,71.0,2.0,easy,1500.0,1000.0,0.0,20.0,80.0,40.0,60.0,A,B,/static/Simple_RL/Stimuli/Fractals_stims/A.jpg,/static/Simple_RL/Stimuli/Fractals_stims/B.jpg,,,,,,,,181.0,1.5,1.0
300,,rl_choice_warning,,html-keyboard-response,300,430747,0.0-1.0-501.0-0.0,1,0,12,,,,,,71.0,,2.0,,,,,,,,,,,,,,,,,,,,182.0,1.0,
301,,isi,,html-keyboard-response,301,431748,0.0-1.0-502.0,0,0,12,,,,,,71.0,,2.0,,,,,,,,,,,,,,,,,,,,183.0,1.0,
302,,iti,,html-keyboard-response,302,433253,0.0-1.0-504.0,0,0,12,,,,,,71.0,,2.0,,,,,,,,,,,,,,,,,,,,184.5,1.5,
303,,rl_choice,,html-keyboard-response,303,434760,0.0-1.0-506.0,0,0,12,,,,,,72.0,72.0,2.0,easy,2000.0,3000.0,0.0,20.0,80.0,20.0,100.0,A,B,/static/Simple_RL/Stimuli/Fractals_stims/A.jpg,/static/Simple_RL/Stimuli/Fractals_stims/B.jpg,,,,,,,,186.0,1.5,1.0
304,,rl_choice_warning,,html-keyboard-response,304,435763,0.0-1.0-508.0-0.0,1,0,12,,,,,,72.0,,2.0,,,,,,,,,,,,,,,,,,,,187.0,1.0,
305,,isi,,html-keyboard-response,305,438769,0.0-1.0-509.0,0,0,12,,,,,,72.0,,2.0,,,,,,,,,,,,,,,,,,,,190.0,3.0,
306,,iti,,html-keyboard-response,306,440775,0.0-1.0-511.0,0,0,12,,,,,,72.0,,2.0,,,,,,,,,,,,,,,,,,,,192.0,2.0,
307,,rl_choice,,html-keyboard-response,307,442280,0.0-1.0-513.0,0,0,12,,,,,,73.0,73.0,2.0,easy,1000.0,3500.0,0.0,20.0,80.0,40.0,60.0,A,B,/static/Simple_RL/Stimuli/Fractals_stims/A.jpg,/static/Simple_RL/Stimuli/Fractals_stims/B.jpg,,,,,,,,193.5,1.5,1.0
308,,rl_choice_warning,,html-keyboard-response,308,443283,0.0-1.0-515.0-0.0,1,0,12,,,,,,73.0,,2.0,,,,,,,,,,,,,,,,,,,,194.5,1.0,
309,,isi,,html-keyboard-response,309,446786,0.0-1.0-516.0,0,0,12,,,,,,73.0,,2.0,,,,,,,,,,,,,,,,,,,,198.0,3.5,
310,,iti,,html-keyboard-response,310,447791,0.0-1.0-518.0,0,0,12,,,,,,73.0,,2.0,,,,,,,,,,,,,,,,,,,,199.0,1.0,
311,,rl_choice,,html-keyboard-response,311,449296,0.0-1.0-520.0,0,0,12,,,,,,74.0,74.0,2.0,hard,3000.0,1000.0,0.0,40.0,60.0,40.0,40.0,C,D,/static/Simple_RL/Stimuli/Fractals_stims/C.jpg,/static/Simple_RL/Stimuli/Fractals_stims/D.jpg,,,,,,,,200.5,1.5,1.0
312,,rl_choice_warning,,html-keyboard-response,312,450302,0.0-1.0-522.0-0.0,1,0,12,,,,,,74.0,,2.0,,,,,,,,,,,,,,,,,,,,201.5,1.0,
313,,isi,,html-keyboard-response,313,451306,0.0-1.0-523.0,0,0,12,,,,,,74.0,,2.0,,,,,,,,,,,,,,,,,,,,202.5,1.0,
314,,iti,,html-keyboard-response,314,454309,0.0-1.0-525.0,0,0,12,,,,,,74.0,,2.0,,,,,,,,,,,,,,,,,,,,205.5,3.0,
315,,rl_choice,,html-keyboard-response,315,455813,0.0-1.0-527.0,0,0,12,,,,,,75.0,75.0,2.0,easy,1000.0,1000.0,0.0,20.0,80.0,0.0,60.0,A,B,/static/Simple_RL/Stimuli/Fractals_stims/A.jpg,/static/Simple_RL/Stimuli/Fractals_stims/B.jpg,,,,,,,,207.0,1.5,1.0
316,,rl_choice_warning,,html-keyboard-response,316,456819,0.0-1.0-529.0-0.0,1,0,12,,,,,,75.0,,2.0,,,,,,,,,,,,,,,,,,,,208.0,1.0,
317,,isi,,html-keyboard-response,317,457821,0.0-1.0-530.0,0,0,12,,,,,,75.0,,2.0,,,,,,,,,,,,,,,,,,,,209.0,1.0,
318,,iti,,html-keyboard-response,318,458824,0.0-1.0-532.0,0,0,12,,,,,,75.0,,2.0,,,,,,,,,,,,,,,,,,,,210.0,1.0,
319,,rl_choice,,html-keyboard-response,319,460327,0.0-1.0-534.0,0,0,12,,,,,,76.0,76.0,2.0,easy,2000.0,1500.0,1.0,80.0,20.0,100.0,20.0,B,A,/static/Simple_RL/Stimuli/Fractals_stims/B.jpg,/static/Simple_RL/Stimuli/Fractals_stims/A.jpg,,,,,,,,211.5,1.5,1.0
320,,rl_choice_warning,,html-keyboard-response,320,461330,0.0-1.0-536.0-0.0,1,0,12,,,,,,76.0,,2.0,,,,,,,,,,,,,,,,,,,,212.5,1.0,
321,,isi,,html-keyboard-response,321,462837,0.0-1.0-537.0,0,0,12,,,,,,76.0,,2.0,,,,,,,,,,,,,,,,,,,,214.0,1.5,
322,,iti,,html-keyboard-response,322,464843,0.0-1.0-539.0,0,0,12,,,,,,76.0,,2.0,,,,,,,,,,,,,,,,,,,,216.0,2.0,
323,,rl_choice,,html-keyboard-response,323,466346,0.0-1.0-541.0,0,0,12,,,,,,77.0,77.0,2.0,easy,1000.0,1000.0,0.0,20.0,80.0,0.0,80.0,A,B,/static/Simple_RL/Stimuli/Fractals_stims/A.jpg,/static/Simple_RL/Stimuli/Fractals_stims/B.jpg,,,,,,,,217.5,1.5,1.0
324,,rl_choice_warning,,html-keyboard-response,324,467348,0.0-1.0-543.0-0.0,1,0,12,,,,,,77.0,,2.0,,,,,,,,,,,,,,,,,,,,218.5,1.0,
325,,isi,,html-keyboard-response,325,468352,0.0-1.0-544.0,0,0,12,,,,,,77.0,,2.0,,,,,,,,,,,,,,,,,,,,219.5,1.0,
326,,iti,,html-keyboard-response,326,469357,0.0-1.0-546.0,0,0,12,,,,,,77.0,,2.0,,,,,,,,,,,,,,,,,,,,220.5,1.0,
327,,rl_choice,,html-keyboard-response,327,470864,0.0-1.0-548.0,0,0,12,,,,,,78.0,78.0,2.0,hard,1500.0,1000.0,0.0,40.0,60.0,20.0,60.0,C,D,/static/Simple_RL/Stimuli/Fractals_stims/C.jpg,/static/Simple_RL/Stimuli/Fractals_stims/D.jpg,,,,,,,,222.0,1.5,1.0
328,,rl_choice_warning,,html-keyboard-response,328,471871,0.0-1.0-550.0-0.0,1,0,12,,,,,,78.0,,2.0,,,,,,,,,,,,,,,,,,,,223.0,1.0,
329,,isi,,html-keyboard-response,329,472875,0.0-1.0-551.0,0,0,12,,,,,,78.0,,2.0,,,,,,,,,,,,,,,,,,,,224.0,1.0,
330,,iti,,html-keyboard-response,330,474377,0.0-1.0-553.0,0,0,12,,,,,,78.0,,2.0,,,,,,,,,,,,,,,,,,,,225.5,1.5,
331,,rl_choice,,html-keyboard-response,331,475881,0.0-1.0-555.0,0,0,12,,,,,,79.0,79.0,2.0,easy,2000.0,2000.0,1.0,80.0,20.0,100.0,0.0,B,A,/static/Simple_RL/Stimuli/Fractals_stims/B.jpg,/static/Simple_RL/Stimuli/Fractals_stims/A.jpg,,,,,,,,227.0,1.5,1.0
332,,rl_choice_warning,,html-keyboard-response,332,476884,0.0-1.0-557.0-0.0,1,0,12,,,,,,79.0,,2.0,,,,,,,,,,,,,,,,,,,,228.0,1.0,
333,,isi,,html-keyboard-response,333,478891,0.0-1.0-558.0,0,0,12,,,,,,79.0,,2.0,,,,,,,,,,,,,,,,,,,,230.0,2.0,
334,,iti,,html-keyboard-response,334,480896,0.0-1.0-560.0,0,0,12,,,,,,79.0,,2.0,,,,,,,,,,,,,,,,,,,,232.0,2.0,
