,success,ttype,start_time,trial_type,trial_index,time_elapsed,internal_node_id,warning,missed_checkup,PID,view_history,rt,responses,repeat_instructions,key_press,index,trial_num,block,condition,iti,isi,high_group_on_left,left_group_value,right_group_value,left_item_value,right_item_value,left_img,right_img,left_img_path,right_img_path,left_chosen,chosen_group_value,unchosen_group_value,chosen_item_value,unchosen_item_value,chosen_img,unchosen_img,onset,duration,no_response,total_bonus_tally
0,True,full_screen,d06032022hr2036,fullscreen,0,8107,0.0-0.0,0,0,82892,,,,,,,,,,,,,,,,,,,,,,,,,,,,,,,
1,,size_instructions,,instructions,1,134334,0.0-1.0-0.0-0.0,0,0,82892,"[{""page_index"":0,""viewing_time"":6626},{""page_index"":1,""viewing_time"":98952},{""page_index"":2,""viewing_time"":14434},{""page_index"":1,""viewing_time"":1535},{""page_index"":2,""viewing_time"":551},{""page_index"":3,""viewing_time"":1313},{""page_index"":4,""viewing_time"":1701},{""page_index"":5,""viewing_time"":1113}]",126226.0,,,,,,,,,,,,,,,,,,,,,,,,,,,,,
2,,rl_comprehension_check,,survey-multi-choice,2,143121,0.0-1.0-0.0-1.0,0,0,82892,,8783.0,"{""Q0"":""True"",""Q1"":""True"",""Q2"":""D for left and K for right""}",0.0,,,,,,,,,,,,,,,,,,,,,,,,,,,
3,,,,html-keyboard-response,3,152848,0.0-1.0-1.0,0,0,82892,,9724.0,,,68.0,,,,,,,,,,,,,,,,,,,,,,,,,,
4,,rl_choice,,html-keyboard-response,4,152926,0.0-1.0-2.0,0,0,82892,,74.0,,,68.0,0.0,0.0,1.0,hard,1000.0,2000.0,0.0,40.0,60.0,20.0,60.0,C,D,/static/Simple_RL/Stimuli/Fractals_stims/C.jpg,/static/Simple_RL/Stimuli/Fractals_stims/D.jpg,1.0,40.0,60.0,20.0,60.0,C,D,0.074,0.074,0.0,
5,,rl_choice_confirmation,,html-keyboard-response,5,154355,0.0-1.0-3.0-0.0,0,0,82892,,,,,,0.0,,,,,,,,,,,,,,,,,,,,,,1.5,1.426,,
6,,isi,,html-keyboard-response,6,156360,0.0-1.0-5.0,0,0,82892,,,,,,,,,,,,,,,,,,,,,,,,,,,,3.5,2.0,,
7,,feedback,,html-keyboard-response,7,157364,0.0-1.0-6.0-0.0,0,0,82892,,,,,,0.0,,,,,,,,,,,,,,,,,,,,,,4.5,1.0,,
8,,iti,,html-keyboard-response,8,158366,0.0-1.0-7.0,0,0,82892,,,,,,,,,,,,,,,,,,,,,,,,,,,,5.5,1.0,,
9,,rl_choice,,html-keyboard-response,9,158865,0.0-1.0-9.0,0,0,82892,,497.0,,,75.0,1.0,1.0,1.0,easy,1000.0,3000.0,1.0,80.0,20.0,100.0,40.0,B,A,/static/Simple_RL/Stimuli/Fractals_stims/B.jpg,/static/Simple_RL/Stimuli/Fractals_stims/A.jpg,0.0,20.0,80.0,40.0,100.0,A,B,5.997,0.497,0.0,
10,,rl_choice_confirmation,,html-keyboard-response,10,159870,0.0-1.0-10.0-0.0,0,0,82892,,,,,,1.0,,,,,,,,,,,,,,,,,,,,,,7.0,1.003,,
11,,isi,,html-keyboard-response,11,162873,0.0-1.0-12.0,0,0,82892,,,,,,,,,,,,,,,,,,,,,,,,,,,,10.0,3.0,,
12,,feedback,,html-keyboard-response,12,163876,0.0-1.0-13.0-0.0,0,0,82892,,,,,,1.0,,,,,,,,,,,,,,,,,,,,,,11.0,1.0,,
13,,iti,,html-keyboard-response,13,164878,0.0-1.0-14.0,0,0,82892,,,,,,,,,,,,,,,,,,,,,,,,,,,,12.0,1.0,,
14,,rl_choice,,html-keyboard-response,14,165472,0.0-1.0-16.0,0,0,82892,,592.0,,,68.0,2.0,2.0,1.0,hard,3000.0,1000.0,0.0,40.0,60.0,20.0,80.0,C,D,/static/Simple_RL/Stimuli/Fractals_stims/C.jpg,/static/Simple_RL/Stimuli/Fractals_stims/D.jpg,1.0,40.0,60.0,20.0,80.0,C,D,12.592,0.592,0.0,
15,,rl_choice_confirmation,,html-keyboard-response,15,166383,0.0-1.0-17.0-0.0,0,0,82892,,,,,,2.0,,,,,,,,,,,,,,,,,,,,,,13.5,0.908,,
16,,isi,,html-keyboard-response,16,167385,0.0-1.0-19.0,0,0,82892,,,,,,,,,,,,,,,,,,,,,,,,,,,,14.5,1.0,,
17,,feedback,,html-keyboard-response,17,168388,0.0-1.0-20.0-0.0,0,0,82892,,,,,,2.0,,,,,,,,,,,,,,,,,,,,,,15.5,1.0,,
18,,iti,,html-keyboard-response,18,171392,0.0-1.0-21.0,0,0,82892,,,,,,,,,,,,,,,,,,,,,,,,,,,,18.5,3.0,,
19,,rl_choice,,html-keyboard-response,19,171869,0.0-1.0-23.0,0,0,82892,,476.0,,,75.0,3.0,3.0,1.0,hard,1000.0,3500.0,0.0,40.0,60.0,60.0,60.0,C,D,/static/Simple_RL/Stimuli/Fractals_stims/C.jpg,/static/Simple_RL/Stimuli/Fractals_stims/D.jpg,0.0,60.0,40.0,60.0,60.0,D,C,18.976,0.476,0.0,
20,,rl_choice_confirmation,,html-keyboard-response,20,172900,0.0-1.0-24.0-0.0,0,0,82892,,,,,,3.0,,,,,,,,,,,,,,,,,,,,,,20.0,1.024,,
21,,isi,,html-keyboard-response,21,176404,0.0-1.0-26.0,0,0,82892,,,,,,,,,,,,,,,,,,,,,,,,,,,,23.5,3.5,,
22,,feedback,,html-keyboard-response,22,177407,0.0-1.0-27.0-0.0,0,0,82892,,,,,,3.0,,,,,,,,,,,,,,,,,,,,,,24.5,1.0,,
23,,iti,,html-keyboard-response,23,178409,0.0-1.0-28.0,0,0,82892,,,,,,,,,,,,,,,,,,,,,,,,,,,,25.5,1.0,,
24,,rl_choice,,html-keyboard-response,24,179033,0.0-1.0-30.0,0,0,82892,,621.0,,,75.0,4.0,4.0,1.0,hard,1500.0,3000.0,0.0,40.0,60.0,20.0,60.0,C,D,/static/Simple_RL/Stimuli/Fractals_stims/C.jpg,/static/Simple_RL/Stimuli/Fractals_stims/D.jpg,0.0,60.0,40.0,60.0,20.0,D,C,26.121,0.621,0.0,
25,,rl_choice_confirmation,,html-keyboard-response,25,179918,0.0-1.0-31.0-0.0,0,0,82892,,,,,,4.0,,,,,,,,,,,,,,,,,,,,,,27.0,0.879,,
26,,isi,,html-keyboard-response,26,182921,0.0-1.0-33.0,0,0,82892,,,,,,,,,,,,,,,,,,,,,,,,,,,,30.0,3.0,,
27,,feedback,,html-keyboard-response,27,183925,0.0-1.0-34.0-0.0,0,0,82892,,,,,,4.0,,,,,,,,,,,,,,,,,,,,,,31.0,1.0,,
28,,iti,,html-keyboard-response,28,185432,0.0-1.0-35.0,0,0,82892,,,,,,,,,,,,,,,,,,,,,,,,,,,,32.5,1.5,,
29,,rl_choice,,html-keyboard-response,29,186288,0.0-1.0-37.0,0,0,82892,,854.0,,,75.0,5.0,5.0,1.0,easy,2000.0,2000.0,0.0,20.0,80.0,20.0,100.0,A,B,/static/Simple_RL/Stimuli/Fractals_stims/A.jpg,/static/Simple_RL/Stimuli/Fractals_stims/B.jpg,0.0,80.0,20.0,100.0,20.0,B,A,33.354,0.854,0.0,
30,,rl_choice_confirmation,,html-keyboard-response,30,186938,0.0-1.0-38.0-0.0,0,0,82892,,,,,,5.0,,,,,,,,,,,,,,,,,,,,,,34.0,0.646,,
31,,isi,,html-keyboard-response,31,188943,0.0-1.0-40.0,0,0,82892,,,,,,,,,,,,,,,,,,,,,,,,,,,,36.0,2.0,,
32,,feedback,,html-keyboard-response,32,189946,0.0-1.0-41.0-0.0,0,0,82892,,,,,,5.0,,,,,,,,,,,,,,,,,,,,,,37.0,1.0,,
33,,iti,,html-keyboard-response,33,191951,0.0-1.0-42.0,0,0,82892,,,,,,,,,,,,,,,,,,,,,,,,,,,,39.0,2.0,,
34,,rl_choice,,html-keyboard-response,34,192636,0.0-1.0-44.0,0,0,82892,,682.0,,,75.0,6.0,6.0,1.0,hard,1000.0,1000.0,0.0,40.0,60.0,40.0,80.0,C,D,/static/Simple_RL/Stimuli/Fractals_stims/C.jpg,/static/Simple_RL/Stimuli/Fractals_stims/D.jpg,0.0,60.0,40.0,80.0,40.0,D,C,39.682,0.682,0.0,
35,,rl_choice_confirmation,,html-keyboard-response,35,193460,0.0-1.0-45.0-0.0,0,0,82892,,,,,,6.0,,,,,,,,,,,,,,,,,,,,,,40.5,0.818,,
36,,isi,,html-keyboard-response,36,194463,0.0-1.0-47.0,0,0,82892,,,,,,,,,,,,,,,,,,,,,,,,,,,,41.5,1.0,,
37,,feedback,,html-keyboard-response,37,195466,0.0-1.0-48.0-0.0,0,0,82892,,,,,,6.0,,,,,,,,,,,,,,,,,,,,,,42.5,1.0,,
38,,iti,,html-keyboard-response,38,196469,0.0-1.0-49.0,0,0,82892,,,,,,,,,,,,,,,,,,,,,,,,,,,,43.5,1.0,,
39,,rl_choice,,html-keyboard-response,39,197356,0.0-1.0-51.0,0,0,82892,,885.0,,,75.0,7.0,7.0,1.0,hard,1500.0,1000.0,0.0,40.0,60.0,60.0,80.0,C,D,/static/Simple_RL/Stimuli/Fractals_stims/C.jpg,/static/Simple_RL/Stimuli/Fractals_stims/D.jpg,0.0,60.0,40.0,80.0,60.0,D,C,44.385,0.885,0.0,
40,,rl_choice_confirmation,,html-keyboard-response,40,197973,0.0-1.0-52.0-0.0,0,0,82892,,,,,,7.0,,,,,,,,,,,,,,,,,,,,,,45.0,0.615,,
41,,isi,,html-keyboard-response,41,198975,0.0-1.0-54.0,0,0,82892,,,,,,,,,,,,,,,,,,,,,,,,,,,,46.0,1.0,,
42,,feedback,,html-keyboard-response,42,199978,0.0-1.0-55.0-0.0,0,0,82892,,,,,,7.0,,,,,,,,,,,,,,,,,,,,,,47.0,1.0,,
43,,iti,,html-keyboard-response,43,201482,0.0-1.0-56.0,0,0,82892,,,,,,,,,,,,,,,,,,,,,,,,,,,,48.5,1.5,,
44,,rl_choice,,html-keyboard-response,44,202033,0.0-1.0-58.0,0,0,82892,,550.0,,,75.0,8.0,8.0,1.0,easy,1500.0,2000.0,0.0,20.0,80.0,0.0,100.0,A,B,/static/Simple_RL/Stimuli/Fractals_stims/A.jpg,/static/Simple_RL/Stimuli/Fractals_stims/B.jpg,0.0,80.0,20.0,100.0,0.0,B,A,49.05,0.55,0.0,
45,,rl_choice_confirmation,,html-keyboard-response,45,202986,0.0-1.0-59.0-0.0,0,0,82892,,,,,,8.0,,,,,,,,,,,,,,,,,,,,,,50.0,0.95,,
46,,isi,,html-keyboard-response,46,204991,0.0-1.0-61.0,0,0,82892,,,,,,,,,,,,,,,,,,,,,,,,,,,,52.0,2.0,,
47,,feedback,,html-keyboard-response,47,205994,0.0-1.0-62.0-0.0,0,0,82892,,,,,,8.0,,,,,,,,,,,,,,,,,,,,,,53.0,1.0,,
48,,iti,,html-keyboard-response,48,207498,0.0-1.0-63.0,0,0,82892,,,,,,,,,,,,,,,,,,,,,,,,,,,,54.5,1.5,,
49,,rl_choice,,html-keyboard-response,49,208057,0.0-1.0-65.0,0,0,82892,,556.0,,,68.0,9.0,9.0,1.0,easy,2000.0,1000.0,1.0,80.0,20.0,60.0,0.0,B,A,/static/Simple_RL/Stimuli/Fractals_stims/B.jpg,/static/Simple_RL/Stimuli/Fractals_stims/A.jpg,1.0,80.0,20.0,60.0,0.0,B,A,55.056,0.556,0.0,
50,,rl_choice_confirmation,,html-keyboard-response,50,209003,0.0-1.0-66.0-0.0,0,0,82892,,,,,,9.0,,,,,,,,,,,,,,,,,,,,,,56.0,0.944,,
51,,isi,,html-keyboard-response,51,210005,0.0-1.0-68.0,0,0,82892,,,,,,,,,,,,,,,,,,,,,,,,,,,,57.0,1.0,,
52,,feedback,,html-keyboard-response,52,211007,0.0-1.0-69.0-0.0,0,0,82892,,,,,,9.0,,,,,,,,,,,,,,,,,,,,,,58.0,1.0,,
53,,iti,,html-keyboard-response,53,213013,0.0-1.0-70.0,0,0,82892,,,,,,,,,,,,,,,,,,,,,,,,,,,,60.0,2.0,,
54,,rl_choice,,html-keyboard-response,54,213671,0.0-1.0-72.0,0,0,82892,,657.0,,,68.0,10.0,10.0,1.0,hard,1000.0,1000.0,1.0,60.0,40.0,40.0,40.0,D,C,/static/Simple_RL/Stimuli/Fractals_stims/D.jpg,/static/Simple_RL/Stimuli/Fractals_stims/C.jpg,1.0,60.0,40.0,40.0,40.0,D,C,60.657,0.657,0.0,
55,,rl_choice_confirmation,,html-keyboard-response,55,214520,0.0-1.0-73.0-0.0,0,0,82892,,,,,,10.0,,,,,,,,,,,,,,,,,,,,,,61.5,0.843,,
56,,isi,,html-keyboard-response,56,215525,0.0-1.0-75.0,0,0,82892,,,,,,,,,,,,,,,,,,,,,,,,,,,,62.5,1.0,,
57,,feedback,,html-keyboard-response,57,216527,0.0-1.0-76.0-0.0,0,0,82892,,,,,,10.0,,,,,,,,,,,,,,,,,,,,,,63.5,1.0,,
58,,iti,,html-keyboard-response,58,217530,0.0-1.0-77.0,0,0,82892,,,,,,,,,,,,,,,,,,,,,,,,,,,,64.5,1.0,,
59,,rl_choice,,html-keyboard-response,59,218101,0.0-1.0-79.0,0,0,82892,,570.0,,,75.0,11.0,11.0,1.0,easy,1000.0,3000.0,0.0,20.0,80.0,20.0,60.0,A,B,/static/Simple_RL/Stimuli/Fractals_stims/A.jpg,/static/Simple_RL/Stimuli/Fractals_stims/B.jpg,0.0,80.0,20.0,60.0,20.0,B,A,65.07,0.57,0.0,
60,,rl_choice_confirmation,,html-keyboard-response,60,219035,0.0-1.0-80.0-0.0,0,0,82892,,,,,,11.0,,,,,,,,,,,,,,,,,,,,,,66.0,0.93,,
61,,isi,,html-keyboard-response,61,222037,0.0-1.0-82.0,0,0,82892,,,,,,,,,,,,,,,,,,,,,,,,,,,,69.0,3.0,,
62,,feedback,,html-keyboard-response,62,223042,0.0-1.0-83.0-0.0,0,0,82892,,,,,,11.0,,,,,,,,,,,,,,,,,,,,,,70.0,1.0,,
63,,iti,,html-keyboard-response,63,224047,0.0-1.0-84.0,0,0,82892,,,,,,,,,,,,,,,,,,,,,,,,,,,,71.0,1.0,,
64,,rl_choice,,html-keyboard-response,64,224587,0.0-1.0-86.0,0,0,82892,,539.0,,,75.0,12.0,12.0,1.0,easy,3000.0,1500.0,0.0,20.0,80.0,20.0,80.0,A,B,/static/Simple_RL/Stimuli/Fractals_stims/A.jpg,/static/Simple_RL/Stimuli/Fractals_stims/B.jpg,0.0,80.0,20.0,80.0,20.0,B,A,71.539,0.539,0.0,
65,,rl_choice_confirmation,,html-keyboard-response,65,225552,0.0-1.0-87.0-0.0,0,0,82892,,,,,,12.0,,,,,,,,,,,,,,,,,,,,,,72.5,0.961,,
66,,isi,,html-keyboard-response,66,227056,0.0-1.0-89.0,0,0,82892,,,,,,,,,,,,,,,,,,,,,,,,,,,,74.0,1.5,,
67,,feedback,,html-keyboard-response,67,228059,0.0-1.0-90.0-0.0,0,0,82892,,,,,,12.0,,,,,,,,,,,,,,,,,,,,,,75.0,1.0,,
68,,iti,,html-keyboard-response,68,231065,0.0-1.0-91.0,0,0,82892,,,,,,,,,,,,,,,,,,,,,,,,,,,,78.0,3.0,,
69,,rl_choice,,html-keyboard-response,69,231680,0.0-1.0-93.0,0,0,82892,,614.0,,,75.0,13.0,13.0,1.0,hard,1000.0,2000.0,0.0,40.0,60.0,40.0,80.0,C,D,/static/Simple_RL/Stimuli/Fractals_stims/C.jpg,/static/Simple_RL/Stimuli/Fractals_stims/D.jpg,0.0,60.0,40.0,80.0,40.0,D,C,78.614,0.614,0.0,
70,,rl_choice_confirmation,,html-keyboard-response,70,232571,0.0-1.0-94.0-0.0,0,0,82892,,,,,,13.0,,,,,,,,,,,,,,,,,,,,,,79.5,0.886,,
71,,isi,,html-keyboard-response,71,234577,0.0-1.0-96.0,0,0,82892,,,,,,,,,,,,,,,,,,,,,,,,,,,,81.5,2.0,,
72,,feedback,,html-keyboard-response,72,235579,0.0-1.0-97.0-0.0,0,0,82892,,,,,,13.0,,,,,,,,,,,,,,,,,,,,,,82.5,1.0,,
73,,iti,,html-keyboard-response,73,236582,0.0-1.0-98.0,0,0,82892,,,,,,,,,,,,,,,,,,,,,,,,,,,,83.5,1.0,,
74,,rl_choice,,html-keyboard-response,74,237304,0.0-1.0-100.0,0,0,82892,,720.0,,,75.0,14.0,14.0,1.0,easy,1500.0,1500.0,0.0,20.0,80.0,20.0,80.0,A,B,/static/Simple_RL/Stimuli/Fractals_stims/A.jpg,/static/Simple_RL/Stimuli/Fractals_stims/B.jpg,0.0,80.0,20.0,80.0,20.0,B,A,84.22,0.72,0.0,
75,,rl_choice_confirmation,,html-keyboard-response,75,238088,0.0-1.0-101.0-0.0,0,0,82892,,,,,,14.0,,,,,,,,,,,,,,,,,,,,,,85.0,0.78,,
76,,isi,,html-keyboard-response,76,239590,0.0-1.0-103.0,0,0,82892,,,,,,,,,,,,,,,,,,,,,,,,,,,,86.5,1.5,,
77,,feedback,,html-keyboard-response,77,240593,0.0-1.0-104.0-0.0,0,0,82892,,,,,,14.0,,,,,,,,,,,,,,,,,,,,,,87.5,1.0,,
78,,iti,,html-keyboard-response,78,242097,0.0-1.0-105.0,0,0,82892,,,,,,,,,,,,,,,,,,,,,,,,,,,,89.0,1.5,,
79,,rl_choice,,html-keyboard-response,79,242747,0.0-1.0-107.0,0,0,82892,,649.0,,,75.0,15.0,15.0,1.0,hard,1500.0,2000.0,1.0,60.0,40.0,40.0,60.0,D,C,/static/Simple_RL/Stimuli/Fractals_stims/D.jpg,/static/Simple_RL/Stimuli/Fractals_stims/C.jpg,0.0,40.0,60.0,60.0,40.0,C,D,89.649,0.649,0.0,
80,,rl_choice_confirmation,,html-keyboard-response,80,243601,0.0-1.0-108.0-0.0,0,0,82892,,,,,,15.0,,,,,,,,,,,,,,,,,,,,,,90.5,0.851,,
81,,isi,,html-keyboard-response,81,245607,0.0-1.0-110.0,0,0,82892,,,,,,,,,,,,,,,,,,,,,,,,,,,,92.5,2.0,,
82,,feedback,,html-keyboard-response,82,246609,0.0-1.0-111.0-0.0,0,0,82892,,,,,,15.0,,,,,,,,,,,,,,,,,,,,,,93.5,1.0,,
83,,iti,,html-keyboard-response,83,248113,0.0-1.0-112.0,0,0,82892,,,,,,,,,,,,,,,,,,,,,,,,,,,,95.0,1.5,,
84,,rl_choice,,html-keyboard-response,84,248967,0.0-1.0-114.0,0,0,82892,,853.0,,,68.0,16.0,16.0,1.0,hard,1000.0,1000.0,1.0,60.0,40.0,60.0,60.0,D,C,/static/Simple_RL/Stimuli/Fractals_stims/D.jpg,/static/Simple_RL/Stimuli/Fractals_stims/C.jpg,1.0,60.0,40.0,60.0,60.0,D,C,95.853,0.853,0.0,
85,,rl_choice_confirmation,,html-keyboard-response,85,249617,0.0-1.0-115.0-0.0,0,0,82892,,,,,,16.0,,,,,,,,,,,,,,,,,,,,,,96.5,0.647,,
86,,isi,,html-keyboard-response,86,250619,0.0-1.0-117.0,0,0,82892,,,,,,,,,,,,,,,,,,,,,,,,,,,,97.5,1.0,,
87,,feedback,,html-keyboard-response,87,251622,0.0-1.0-118.0-0.0,0,0,82892,,,,,,16.0,,,,,,,,,,,,,,,,,,,,,,98.5,1.0,,
88,,iti,,html-keyboard-response,88,252625,0.0-1.0-119.0,0,0,82892,,,,,,,,,,,,,,,,,,,,,,,,,,,,99.5,1.0,,
89,,rl_choice,,html-keyboard-response,89,253231,0.0-1.0-121.0,0,0,82892,,605.0,,,68.0,17.0,17.0,1.0,easy,3000.0,1500.0,1.0,80.0,20.0,60.0,20.0,B,A,/static/Simple_RL/Stimuli/Fractals_stims/B.jpg,/static/Simple_RL/Stimuli/Fractals_stims/A.jpg,1.0,80.0,20.0,60.0,20.0,B,A,100.105,0.605,0.0,
90,,rl_choice_confirmation,,html-keyboard-response,90,254130,0.0-1.0-122.0-0.0,0,0,82892,,,,,,17.0,,,,,,,,,,,,,,,,,,,,,,101.0,0.895,,
91,,isi,,html-keyboard-response,91,255633,0.0-1.0-124.0,0,0,82892,,,,,,,,,,,,,,,,,,,,,,,,,,,,102.5,1.5,,
92,,feedback,,html-keyboard-response,92,256636,0.0-1.0-125.0-0.0,0,0,82892,,,,,,17.0,,,,,,,,,,,,,,,,,,,,,,103.5,1.0,,
93,,iti,,html-keyboard-response,93,259638,0.0-1.0-126.0,0,0,82892,,,,,,,,,,,,,,,,,,,,,,,,,,,,106.5,3.0,,
94,,rl_choice,,html-keyboard-response,94,260353,0.0-1.0-128.0,0,0,82892,,712.0,,,68.0,18.0,18.0,1.0,hard,3500.0,1500.0,1.0,60.0,40.0,60.0,60.0,D,C,/static/Simple_RL/Stimuli/Fractals_stims/D.jpg,/static/Simple_RL/Stimuli/Fractals_stims/C.jpg,1.0,60.0,40.0,60.0,60.0,D,C,107.212,0.712,0.0,
95,,rl_choice_confirmation,,html-keyboard-response,95,261148,0.0-1.0-129.0-0.0,0,0,82892,,,,,,18.0,,,,,,,,,,,,,,,,,,,,,,108.0,0.788,,
96,,isi,,html-keyboard-response,96,262654,0.0-1.0-131.0,0,0,82892,,,,,,,,,,,,,,,,,,,,,,,,,,,,109.5,1.5,,
97,,feedback,,html-keyboard-response,97,263660,0.0-1.0-132.0-0.0,0,0,82892,,,,,,18.0,,,,,,,,,,,,,,,,,,,,,,110.5,1.0,,
98,,iti,,html-keyboard-response,98,267164,0.0-1.0-133.0,0,0,82892,,,,,,,,,,,,,,,,,,,,,,,,,,,,114.0,3.5,,
99,,rl_choice,,html-keyboard-response,99,267920,0.0-1.0-135.0,0,0,82892,,753.0,,,68.0,19.0,19.0,1.0,hard,2000.0,1500.0,1.0,60.0,40.0,60.0,20.0,D,C,/static/Simple_RL/Stimuli/Fractals_stims/D.jpg,/static/Simple_RL/Stimuli/Fractals_stims/C.jpg,1.0,60.0,40.0,60.0,20.0,D,C,114.753,0.753,0.0,
100,,rl_choice_confirmation,,html-keyboard-response,100,268674,0.0-1.0-136.0-0.0,0,0,82892,,,,,,19.0,,,,,,,,,,,,,,,,,,,,,,115.5,0.747,,
101,,isi,,html-keyboard-response,101,270177,0.0-1.0-138.0,0,0,82892,,,,,,,,,,,,,,,,,,,,,,,,,,,,117.0,1.5,,
102,,feedback,,html-keyboard-response,102,271180,0.0-1.0-139.0-0.0,0,0,82892,,,,,,19.0,,,,,,,,,,,,,,,,,,,,,,118.0,1.0,,
103,,iti,,html-keyboard-response,103,273185,0.0-1.0-140.0,0,0,82892,,,,,,,,,,,,,,,,,,,,,,,,,,,,120.0,2.0,,
104,,rl_choice,,html-keyboard-response,104,273784,0.0-1.0-142.0,0,0,82892,,597.0,,,68.0,20.0,20.0,1.0,easy,2000.0,1000.0,1.0,80.0,20.0,80.0,20.0,B,A,/static/Simple_RL/Stimuli/Fractals_stims/B.jpg,/static/Simple_RL/Stimuli/Fractals_stims/A.jpg,1.0,80.0,20.0,80.0,20.0,B,A,120.597,0.597,0.0,
105,,rl_choice_confirmation,,html-keyboard-response,105,274690,0.0-1.0-143.0-0.0,0,0,82892,,,,,,20.0,,,,,,,,,,,,,,,,,,,,,,121.5,0.903,,
106,,isi,,html-keyboard-response,106,275692,0.0-1.0-145.0,0,0,82892,,,,,,,,,,,,,,,,,,,,,,,,,,,,122.5,1.0,,
107,,feedback,,html-keyboard-response,107,276695,0.0-1.0-146.0-0.0,0,0,82892,,,,,,20.0,,,,,,,,,,,,,,,,,,,,,,123.5,1.0,,
108,,iti,,html-keyboard-response,108,278701,0.0-1.0-147.0,0,0,82892,,,,,,,,,,,,,,,,,,,,,,,,,,,,125.5,2.0,,
109,,rl_choice,,html-keyboard-response,109,279316,0.0-1.0-149.0,0,0,82892,,613.0,,,68.0,21.0,21.0,1.0,easy,1500.0,2000.0,1.0,80.0,20.0,80.0,20.0,B,A,/static/Simple_RL/Stimuli/Fractals_stims/B.jpg,/static/Simple_RL/Stimuli/Fractals_stims/A.jpg,1.0,80.0,20.0,80.0,20.0,B,A,126.113,0.613,0.0,
110,,rl_choice_confirmation,,html-keyboard-response,110,280209,0.0-1.0-150.0-0.0,0,0,82892,,,,,,21.0,,,,,,,,,,,,,,,,,,,,,,127.0,0.887,,
111,,isi,,html-keyboard-response,111,282215,0.0-1.0-152.0,0,0,82892,,,,,,,,,,,,,,,,,,,,,,,,,,,,129.0,2.0,,
112,,feedback,,html-keyboard-response,112,283218,0.0-1.0-153.0-0.0,0,0,82892,,,,,,21.0,,,,,,,,,,,,,,,,,,,,,,130.0,1.0,,
113,,iti,,html-keyboard-response,113,284722,0.0-1.0-154.0,0,0,82892,,,,,,,,,,,,,,,,,,,,,,,,,,,,131.5,1.5,,
114,,rl_choice,,html-keyboard-response,114,285513,0.0-1.0-156.0,0,0,82892,,790.0,,,75.0,22.0,22.0,1.0,easy,1000.0,1000.0,0.0,20.0,80.0,0.0,100.0,A,B,/static/Simple_RL/Stimuli/Fractals_stims/A.jpg,/static/Simple_RL/Stimuli/Fractals_stims/B.jpg,0.0,80.0,20.0,100.0,0.0,B,A,132.29,0.79,0.0,
115,,rl_choice_confirmation,,html-keyboard-response,115,286226,0.0-1.0-157.0-0.0,0,0,82892,,,,,,22.0,,,,,,,,,,,,,,,,,,,,,,133.0,0.71,,
116,,isi,,html-keyboard-response,116,287229,0.0-1.0-159.0,0,0,82892,,,,,,,,,,,,,,,,,,,,,,,,,,,,134.0,1.0,,
117,,feedback,,html-keyboard-response,117,288234,0.0-1.0-160.0-0.0,0,0,82892,,,,,,22.0,,,,,,,,,,,,,,,,,,,,,,135.0,1.0,,
118,,iti,,html-keyboard-response,118,289239,0.0-1.0-161.0,0,0,82892,,,,,,,,,,,,,,,,,,,,,,,,,,,,136.0,1.0,,
119,,rl_choice,,html-keyboard-response,119,289917,0.0-1.0-163.0,0,0,82892,,677.0,,,68.0,23.0,23.0,1.0,hard,2000.0,1000.0,1.0,60.0,40.0,80.0,60.0,D,C,/static/Simple_RL/Stimuli/Fractals_stims/D.jpg,/static/Simple_RL/Stimuli/Fractals_stims/C.jpg,1.0,60.0,40.0,80.0,60.0,D,C,136.677,0.677,0.0,
120,,rl_choice_confirmation,,html-keyboard-response,120,290744,0.0-1.0-164.0-0.0,0,0,82892,,,,,,23.0,,,,,,,,,,,,,,,,,,,,,,137.5,0.823,,
121,,isi,,html-keyboard-response,121,291747,0.0-1.0-166.0,0,0,82892,,,,,,,,,,,,,,,,,,,,,,,,,,,,138.5,1.0,,
122,,feedback,,html-keyboard-response,122,292749,0.0-1.0-167.0-0.0,0,0,82892,,,,,,23.0,,,,,,,,,,,,,,,,,,,,,,139.5,1.0,,
123,,iti,,html-keyboard-response,123,294754,0.0-1.0-168.0,0,0,82892,,,,,,,,,,,,,,,,,,,,,,,,,,,,141.5,2.0,,
124,,rl_choice,,html-keyboard-response,124,295380,0.0-1.0-170.0,0,0,82892,,624.0,,,68.0,24.0,24.0,1.0,hard,1000.0,3000.0,1.0,60.0,40.0,40.0,60.0,D,C,/static/Simple_RL/Stimuli/Fractals_stims/D.jpg,/static/Simple_RL/Stimuli/Fractals_stims/C.jpg,1.0,60.0,40.0,40.0,60.0,D,C,142.124,0.624,0.0,
125,,rl_choice_confirmation,,html-keyboard-response,125,296258,0.0-1.0-171.0-0.0,0,0,82892,,,,,,24.0,,,,,,,,,,,,,,,,,,,,,,143.0,0.876,,
126,,isi,,html-keyboard-response,126,299261,0.0-1.0-173.0,0,0,82892,,,,,,,,,,,,,,,,,,,,,,,,,,,,146.0,3.0,,
127,,feedback,,html-keyboard-response,127,300264,0.0-1.0-174.0-0.0,0,0,82892,,,,,,24.0,,,,,,,,,,,,,,,,,,,,,,147.0,1.0,,
128,,iti,,html-keyboard-response,128,301268,0.0-1.0-175.0,0,0,82892,,,,,,,,,,,,,,,,,,,,,,,,,,,,148.0,1.0,,
129,,rl_choice,,html-keyboard-response,129,301881,0.0-1.0-177.0,0,0,82892,,610.0,,,68.0,25.0,25.0,1.0,hard,2000.0,1000.0,1.0,60.0,40.0,40.0,40.0,D,C,/static/Simple_RL/Stimuli/Fractals_stims/D.jpg,/static/Simple_RL/Stimuli/Fractals_stims/C.jpg,1.0,60.0,40.0,40.0,40.0,D,C,148.61,0.61,0.0,
130,,rl_choice_confirmation,,html-keyboard-response,130,302776,0.0-1.0-178.0-0.0,0,0,82892,,,,,,25.0,,,,,,,,,,,,,,,,,,,,,,149.5,0.89,,
131,,isi,,html-keyboard-response,131,303778,0.0-1.0-180.0,0,0,82892,,,,,,,,,,,,,,,,,,,,,,,,,,,,150.5,1.0,,
132,,feedback,,html-keyboard-response,132,304785,0.0-1.0-181.0-0.0,0,0,82892,,,,,,25.0,,,,,,,,,,,,,,,,,,,,,,151.5,1.0,,
133,,iti,,html-keyboard-response,133,306790,0.0-1.0-182.0,0,0,82892,,,,,,,,,,,,,,,,,,,,,,,,,,,,153.5,2.0,,
134,,rl_choice,,html-keyboard-response,134,307431,0.0-1.0-184.0,0,0,82892,,639.0,,,68.0,26.0,26.0,1.0,easy,1000.0,1000.0,1.0,80.0,20.0,100.0,20.0,B,A,/static/Simple_RL/Stimuli/Fractals_stims/B.jpg,/static/Simple_RL/Stimuli/Fractals_stims/A.jpg,1.0,80.0,20.0,100.0,20.0,B,A,154.139,0.639,0.0,
135,,rl_choice_confirmation,,html-keyboard-response,135,308296,0.0-1.0-185.0-0.0,0,0,82892,,,,,,26.0,,,,,,,,,,,,,,,,,,,,,,155.0,0.861,,
136,,isi,,html-keyboard-response,136,309299,0.0-1.0-187.0,0,0,82892,,,,,,,,,,,,,,,,,,,,,,,,,,,,156.0,1.0,,
137,,feedback,,html-keyboard-response,137,310301,0.0-1.0-188.0-0.0,0,0,82892,,,,,,26.0,,,,,,,,,,,,,,,,,,,,,,157.0,1.0,,
138,,iti,,html-keyboard-response,138,311304,0.0-1.0-189.0,0,0,82892,,,,,,,,,,,,,,,,,,,,,,,,,,,,158.0,1.0,,
139,,rl_choice,,html-keyboard-response,139,312036,0.0-1.0-191.0,0,0,82892,,731.0,,,75.0,27.0,27.0,1.0,hard,1000.0,1500.0,0.0,40.0,60.0,20.0,80.0,C,D,/static/Simple_RL/Stimuli/Fractals_stims/C.jpg,/static/Simple_RL/Stimuli/Fractals_stims/D.jpg,0.0,60.0,40.0,80.0,20.0,D,C,158.731,0.731,0.0,
140,,rl_choice_confirmation,,html-keyboard-response,140,312810,0.0-1.0-192.0-0.0,0,0,82892,,,,,,27.0,,,,,,,,,,,,,,,,,,,,,,159.5,0.769,,
141,,isi,,html-keyboard-response,141,314311,0.0-1.0-194.0,0,0,82892,,,,,,,,,,,,,,,,,,,,,,,,,,,,161.0,1.5,,
142,,feedback,,html-keyboard-response,142,315315,0.0-1.0-195.0-0.0,0,0,82892,,,,,,27.0,,,,,,,,,,,,,,,,,,,,,,162.0,1.0,,
143,,iti,,html-keyboard-response,143,316317,0.0-1.0-196.0,0,0,82892,,,,,,,,,,,,,,,,,,,,,,,,,,,,163.0,1.0,,
144,,rl_choice,,html-keyboard-response,144,316861,0.0-1.0-198.0,0,0,82892,,543.0,,,75.0,28.0,28.0,1.0,hard,1500.0,1500.0,0.0,40.0,60.0,40.0,40.0,C,D,/static/Simple_RL/Stimuli/Fractals_stims/C.jpg,/static/Simple_RL/Stimuli/Fractals_stims/D.jpg,0.0,60.0,40.0,40.0,40.0,D,C,163.543,0.543,0.0,
145,,rl_choice_confirmation,,html-keyboard-response,145,317822,0.0-1.0-199.0-0.0,0,0,82892,,,,,,28.0,,,,,,,,,,,,,,,,,,,,,,164.5,0.957,,
146,,isi,,html-keyboard-response,146,319326,0.0-1.0-201.0,0,0,82892,,,,,,,,,,,,,,,,,,,,,,,,,,,,166.0,1.5,,
147,,feedback,,html-keyboard-response,147,320328,0.0-1.0-202.0-0.0,0,0,82892,,,,,,28.0,,,,,,,,,,,,,,,,,,,,,,167.0,1.0,,
148,,iti,,html-keyboard-response,148,321833,0.0-1.0-203.0,0,0,82892,,,,,,,,,,,,,,,,,,,,,,,,,,,,168.5,1.5,,
149,,rl_choice,,html-keyboard-response,149,322448,0.0-1.0-205.0,0,0,82892,,614.0,,,75.0,29.0,29.0,1.0,easy,1000.0,1000.0,0.0,20.0,80.0,20.0,80.0,A,B,/static/Simple_RL/Stimuli/Fractals_stims/A.jpg,/static/Simple_RL/Stimuli/Fractals_stims/B.jpg,0.0,80.0,20.0,80.0,20.0,B,A,169.114,0.614,0.0,
150,,rl_choice_confirmation,,html-keyboard-response,150,323342,0.0-1.0-206.0-0.0,0,0,82892,,,,,,29.0,,,,,,,,,,,,,,,,,,,,,,170.0,0.886,,
151,,isi,,html-keyboard-response,151,324344,0.0-1.0-208.0,0,0,82892,,,,,,,,,,,,,,,,,,,,,,,,,,,,171.0,1.0,,
152,,feedback,,html-keyboard-response,152,325349,0.0-1.0-209.0-0.0,0,0,82892,,,,,,29.0,,,,,,,,,,,,,,,,,,,,,,172.0,1.0,,
153,,iti,,html-keyboard-response,153,326349,0.0-1.0-210.0,0,0,82892,,,,,,,,,,,,,,,,,,,,,,,,,,,,173.0,1.0,,
154,,rl_choice,,html-keyboard-response,154,327019,0.0-1.0-212.0,0,0,82892,,668.0,,,68.0,30.0,30.0,1.0,hard,1500.0,2000.0,1.0,60.0,40.0,80.0,60.0,D,C,/static/Simple_RL/Stimuli/Fractals_stims/D.jpg,/static/Simple_RL/Stimuli/Fractals_stims/C.jpg,1.0,60.0,40.0,80.0,60.0,D,C,173.668,0.668,0.0,
155,,rl_choice_confirmation,,html-keyboard-response,155,327854,0.0-1.0-213.0-0.0,0,0,82892,,,,,,30.0,,,,,,,,,,,,,,,,,,,,,,174.5,0.832,,
156,,isi,,html-keyboard-response,156,329859,0.0-1.0-215.0,0,0,82892,,,,,,,,,,,,,,,,,,,,,,,,,,,,176.5,2.0,,
157,,feedback,,html-keyboard-response,157,330862,0.0-1.0-216.0-0.0,0,0,82892,,,,,,30.0,,,,,,,,,,,,,,,,,,,,,,177.5,1.0,,
158,,iti,,html-keyboard-response,158,332366,0.0-1.0-217.0,0,0,82892,,,,,,,,,,,,,,,,,,,,,,,,,,,,179.0,1.5,,
159,,rl_choice,,html-keyboard-response,159,332926,0.0-1.0-219.0,0,0,82892,,558.0,,,68.0,31.0,31.0,1.0,easy,1000.0,1500.0,1.0,80.0,20.0,80.0,0.0,B,A,/static/Simple_RL/Stimuli/Fractals_stims/B.jpg,/static/Simple_RL/Stimuli/Fractals_stims/A.jpg,1.0,80.0,20.0,80.0,0.0,B,A,179.558,0.558,0.0,
160,,rl_choice_confirmation,,html-keyboard-response,160,333873,0.0-1.0-220.0-0.0,0,0,82892,,,,,,31.0,,,,,,,,,,,,,,,,,,,,,,180.5,0.942,,
161,,isi,,html-keyboard-response,161,335379,0.0-1.0-222.0,0,0,82892,,,,,,,,,,,,,,,,,,,,,,,,,,,,182.0,1.5,,
162,,feedback,,html-keyboard-response,162,336382,0.0-1.0-223.0-0.0,0,0,82892,,,,,,31.0,,,,,,,,,,,,,,,,,,,,,,183.0,1.0,,
163,,iti,,html-keyboard-response,163,337385,0.0-1.0-224.0,0,0,82892,,,,,,,,,,,,,,,,,,,,,,,,,,,,184.0,1.0,,
164,,rl_choice,,html-keyboard-response,164,337944,0.0-1.0-226.0,0,0,82892,,557.0,,,68.0,32.0,32.0,1.0,easy,1000.0,3500.0,1.0,80.0,20.0,60.0,20.0,B,A,/static/Simple_RL/Stimuli/Fractals_stims/B.jpg,/static/Simple_RL/Stimuli/Fractals_stims/A.jpg,1.0,80.0,20.0,60.0,20.0,B,A,184.557,0.557,0.0,
165,,rl_choice_confirmation,,html-keyboard-response,165,338891,0.0-1.0-227.0-0.0,0,0,82892,,,,,,32.0,,,,,,,,,,,,,,,,,,,,,,185.5,0.943,,
166,,isi,,html-keyboard-response,166,342396,0.0-1.0-229.0,0,0,82892,,,,,,,,,,,,,,,,,,,,,,,,,,,,189.0,3.5,,
167,,feedback,,html-keyboard-response,167,343401,0.0-1.0-230.0-0.0,0,0,82892,,,,,,32.0,,,,,,,,,,,,,,,,,,,,,,190.0,1.0,,
168,,iti,,html-keyboard-response,168,344404,0.0-1.0-231.0,0,0,82892,,,,,,,,,,,,,,,,,,,,,,,,,,,,191.0,1.0,,
169,,rl_choice,,html-keyboard-response,169,345025,0.0-1.0-233.0,0,0,82892,,620.0,,,68.0,33.0,33.0,1.0,hard,2000.0,1500.0,1.0,60.0,40.0,40.0,20.0,D,C,/static/Simple_RL/Stimuli/Fractals_stims/D.jpg,/static/Simple_RL/Stimuli/Fractals_stims/C.jpg,1.0,60.0,40.0,40.0,20.0,D,C,191.62,0.62,0.0,
170,,rl_choice_confirmation,,html-keyboard-response,170,345913,0.0-1.0-234.0-0.0,0,0,82892,,,,,,33.0,,,,,,,,,,,,,,,,,,,,,,192.5,0.88,,
171,,isi,,html-keyboard-response,171,347417,0.0-1.0-236.0,0,0,82892,,,,,,,,,,,,,,,,,,,,,,,,,,,,194.0,1.5,,
172,,feedback,,html-keyboard-response,172,348420,0.0-1.0-237.0-0.0,0,0,82892,,,,,,33.0,,,,,,,,,,,,,,,,,,,,,,195.0,1.0,,
173,,iti,,html-keyboard-response,173,350425,0.0-1.0-238.0,0,0,82892,,,,,,,,,,,,,,,,,,,,,,,,,,,,197.0,2.0,,
174,,rl_choice,,html-keyboard-response,174,351218,0.0-1.0-240.0,0,0,82892,,790.0,,,75.0,34.0,34.0,1.0,hard,3000.0,1000.0,0.0,40.0,60.0,20.0,60.0,C,D,/static/Simple_RL/Stimuli/Fractals_stims/C.jpg,/static/Simple_RL/Stimuli/Fractals_stims/D.jpg,0.0,60.0,40.0,60.0,20.0,D,C,197.79,0.79,0.0,
175,,rl_choice_confirmation,,html-keyboard-response,175,351935,0.0-1.0-241.0-0.0,0,0,82892,,,,,,34.0,,,,,,,,,,,,,,,,,,,,,,198.5,0.71,,
176,,isi,,html-keyboard-response,176,352943,0.0-1.0-243.0,0,0,82892,,,,,,,,,,,,,,,,,,,,,,,,,,,,199.5,1.0,,
177,,feedback,,html-keyboard-response,177,353948,0.0-1.0-244.0-0.0,0,0,82892,,,,,,34.0,,,,,,,,,,,,,,,,,,,,,,200.5,1.0,,
178,,iti,,html-keyboard-response,178,356953,0.0-1.0-245.0,0,0,82892,,,,,,,,,,,,,,,,,,,,,,,,,,,,203.5,3.0,,
179,,rl_choice,,html-keyboard-response,179,357560,0.0-1.0-247.0,0,0,82892,,605.0,,,68.0,35.0,35.0,1.0,easy,1500.0,1000.0,1.0,80.0,20.0,80.0,20.0,B,A,/static/Simple_RL/Stimuli/Fractals_stims/B.jpg,/static/Simple_RL/Stimuli/Fractals_stims/A.jpg,1.0,80.0,20.0,80.0,20.0,B,A,204.105,0.605,0.0,
180,,rl_choice_confirmation,,html-keyboard-response,180,358462,0.0-1.0-248.0-0.0,0,0,82892,,,,,,35.0,,,,,,,,,,,,,,,,,,,,,,205.0,0.895,,
181,,isi,,html-keyboard-response,181,359466,0.0-1.0-250.0,0,0,82892,,,,,,,,,,,,,,,,,,,,,,,,,,,,206.0,1.0,,
182,,feedback,,html-keyboard-response,182,360468,0.0-1.0-251.0-0.0,0,0,82892,,,,,,35.0,,,,,,,,,,,,,,,,,,,,,,207.0,1.0,,
183,,iti,,html-keyboard-response,183,361973,0.0-1.0-252.0,0,0,82892,,,,,,,,,,,,,,,,,,,,,,,,,,,,208.5,1.5,,
184,,rl_choice,,html-keyboard-response,184,362573,0.0-1.0-254.0,0,0,82892,,599.0,,,68.0,36.0,36.0,1.0,easy,1500.0,2000.0,1.0,80.0,20.0,80.0,40.0,B,A,/static/Simple_RL/Stimuli/Fractals_stims/B.jpg,/static/Simple_RL/Stimuli/Fractals_stims/A.jpg,1.0,80.0,20.0,80.0,40.0,B,A,209.099,0.599,0.0,
185,,rl_choice_confirmation,,html-keyboard-response,185,363476,0.0-1.0-255.0-0.0,0,0,82892,,,,,,36.0,,,,,,,,,,,,,,,,,,,,,,210.0,0.901,,
186,,isi,,html-keyboard-response,186,365482,0.0-1.0-257.0,0,0,82892,,,,,,,,,,,,,,,,,,,,,,,,,,,,212.0,2.0,,
187,,feedback,,html-keyboard-response,187,366484,0.0-1.0-258.0-0.0,0,0,82892,,,,,,36.0,,,,,,,,,,,,,,,,,,,,,,213.0,1.0,,
188,,iti,,html-keyboard-response,188,367988,0.0-1.0-259.0,0,0,82892,,,,,,,,,,,,,,,,,,,,,,,,,,,,214.5,1.5,,
189,,rl_choice,,html-keyboard-response,189,368465,0.0-1.0-261.0,0,0,82892,,475.0,,,68.0,37.0,37.0,1.0,easy,2000.0,1000.0,1.0,80.0,20.0,60.0,40.0,B,A,/static/Simple_RL/Stimuli/Fractals_stims/B.jpg,/static/Simple_RL/Stimuli/Fractals_stims/A.jpg,1.0,80.0,20.0,60.0,40.0,B,A,214.975,0.475,0.0,
190,,rl_choice_confirmation,,html-keyboard-response,190,369492,0.0-1.0-262.0-0.0,0,0,82892,,,,,,37.0,,,,,,,,,,,,,,,,,,,,,,216.0,1.025,,
191,,isi,,html-keyboard-response,191,370499,0.0-1.0-264.0,0,0,82892,,,,,,,,,,,,,,,,,,,,,,,,,,,,217.0,1.0,,
192,,feedback,,html-keyboard-response,192,371503,0.0-1.0-265.0-0.0,0,0,82892,,,,,,37.0,,,,,,,,,,,,,,,,,,,,,,218.0,1.0,,
193,,iti,,html-keyboard-response,193,373508,0.0-1.0-266.0,0,0,82892,,,,,,,,,,,,,,,,,,,,,,,,,,,,220.0,2.0,,
194,,rl_choice,,html-keyboard-response,194,374057,0.0-1.0-268.0,0,0,82892,,547.0,,,75.0,38.0,38.0,1.0,easy,3500.0,1500.0,0.0,20.0,80.0,40.0,60.0,A,B,/static/Simple_RL/Stimuli/Fractals_stims/A.jpg,/static/Simple_RL/Stimuli/Fractals_stims/B.jpg,0.0,80.0,20.0,60.0,40.0,B,A,220.547,0.547,0.0,
195,,rl_choice_confirmation,,html-keyboard-response,195,375013,0.0-1.0-269.0-0.0,0,0,82892,,,,,,38.0,,,,,,,,,,,,,,,,,,,,,,221.5,0.953,,
196,,isi,,html-keyboard-response,196,376517,0.0-1.0-271.0,0,0,82892,,,,,,,,,,,,,,,,,,,,,,,,,,,,223.0,1.5,,
197,,feedback,,html-keyboard-response,197,377523,0.0-1.0-272.0-0.0,0,0,82892,,,,,,38.0,,,,,,,,,,,,,,,,,,,,,,224.0,1.0,,
198,,iti,,html-keyboard-response,198,381029,0.0-1.0-273.0,0,0,82892,,,,,,,,,,,,,,,,,,,,,,,,,,,,227.5,3.5,,
199,,rl_choice,,html-keyboard-response,199,381641,0.0-1.0-275.0,0,0,82892,,611.0,,,68.0,39.0,39.0,1.0,easy,1000.0,1000.0,1.0,80.0,20.0,60.0,20.0,B,A,/static/Simple_RL/Stimuli/Fractals_stims/B.jpg,/static/Simple_RL/Stimuli/Fractals_stims/A.jpg,1.0,80.0,20.0,60.0,20.0,B,A,228.111,0.611,0.0,
200,,rl_choice_confirmation,,html-keyboard-response,200,382533,0.0-1.0-276.0-0.0,0,0,82892,,,,,,39.0,,,,,,,,,,,,,,,,,,,,,,229.0,0.889,,
201,,isi,,html-keyboard-response,201,383536,0.0-1.0-278.0,0,0,82892,,,,,,,,,,,,,,,,,,,,,,,,,,,,230.0,1.0,,
202,,feedback,,html-keyboard-response,202,384538,0.0-1.0-279.0-0.0,0,0,82892,,,,,,39.0,,,,,,,,,,,,,,,,,,,,,,231.0,1.0,,
203,,iti,,html-keyboard-response,203,385541,0.0-1.0-280.0,0,0,82892,,,,,,,,,,,,,,,,,,,,,,,,,,,,232.0,1.0,,
204,,block_over,,html-keyboard-response,204,388803,0.0-1.0-281.0-0.0,0,0,82892,,3260.0,,,68.0,39.0,,,,,,,,,,,,,,,,,,,,,,,,,
205,,start_run,,html-keyboard-response,205,389890,0.0-1.0-281.0-1.0,0,0,82892,,1086.0,,,84.0,,,,,,,,,,,,,,,,,,,,,,,,,,
206,,rl_choice,,html-keyboard-response,206,390701,0.0-1.0-282.0,0,0,82892,,809.0,,,75.0,40.0,40.0,2.0,hard,1000.0,2000.0,0.0,40.0,60.0,40.0,40.0,C,D,/static/Simple_RL/Stimuli/Fractals_stims/C.jpg,/static/Simple_RL/Stimuli/Fractals_stims/D.jpg,0.0,60.0,40.0,40.0,40.0,D,C,0.809,0.809,0.0,
207,,rl_choice_confirmation,,html-keyboard-response,207,391397,0.0-1.0-283.0-0.0,0,0,82892,,,,,,40.0,,,,,,,,,,,,,,,,,,,,,,1.5,0.691,,
208,,isi,,html-keyboard-response,208,393403,0.0-1.0-285.0,0,0,82892,,,,,,,,,,,,,,,,,,,,,,,,,,,,3.5,2.0,,
209,,feedback,,html-keyboard-response,209,394405,0.0-1.0-286.0-0.0,0,0,82892,,,,,,40.0,,,,,,,,,,,,,,,,,,,,,,4.5,1.0,,
210,,iti,,html-keyboard-response,210,395408,0.0-1.0-287.0,0,0,82892,,,,,,,,,,,,,,,,,,,,,,,,,,,,5.5,1.0,,
211,,rl_choice,,html-keyboard-response,211,396116,0.0-1.0-289.0,0,0,82892,,706.0,,,68.0,41.0,41.0,2.0,hard,1000.0,3000.0,1.0,60.0,40.0,40.0,60.0,D,C,/static/Simple_RL/Stimuli/Fractals_stims/D.jpg,/static/Simple_RL/Stimuli/Fractals_stims/C.jpg,1.0,60.0,40.0,40.0,60.0,D,C,6.206,0.706,0.0,
212,,rl_choice_confirmation,,html-keyboard-response,212,396912,0.0-1.0-290.0-0.0,0,0,82892,,,,,,41.0,,,,,,,,,,,,,,,,,,,,,,7.0,0.794,,
213,,isi,,html-keyboard-response,213,399915,0.0-1.0-292.0,0,0,82892,,,,,,,,,,,,,,,,,,,,,,,,,,,,10.0,3.0,,
214,,feedback,,html-keyboard-response,214,400923,0.0-1.0-293.0-0.0,0,0,82892,,,,,,41.0,,,,,,,,,,,,,,,,,,,,,,11.0,1.0,,
215,,iti,,html-keyboard-response,215,401925,0.0-1.0-294.0,0,0,82892,,,,,,,,,,,,,,,,,,,,,,,,,,,,12.0,1.0,,
216,,rl_choice,,html-keyboard-response,216,402852,0.0-1.0-296.0,0,0,82892,,925.0,,,68.0,42.0,42.0,2.0,hard,1000.0,1000.0,0.0,40.0,60.0,40.0,40.0,C,D,/static/Simple_RL/Stimuli/Fractals_stims/C.jpg,/static/Simple_RL/Stimuli/Fractals_stims/D.jpg,1.0,40.0,60.0,40.0,40.0,C,D,12.925,0.925,0.0,
217,,rl_choice_confirmation,,html-keyboard-response,217,403430,0.0-1.0-297.0-0.0,0,0,82892,,,,,,42.0,,,,,,,,,,,,,,,,,,,,,,13.5,0.575,,
218,,isi,,html-keyboard-response,218,404436,0.0-1.0-299.0,0,0,82892,,,,,,,,,,,,,,,,,,,,,,,,,,,,14.5,1.0,,
219,,feedback,,html-keyboard-response,219,405440,0.0-1.0-300.0-0.0,0,0,82892,,,,,,42.0,,,,,,,,,,,,,,,,,,,,,,15.5,1.0,,
220,,iti,,html-keyboard-response,220,406443,0.0-1.0-301.0,0,0,82892,,,,,,,,,,,,,,,,,,,,,,,,,,,,16.5,1.0,,
221,,rl_choice,,html-keyboard-response,221,407121,0.0-1.0-303.0,0,0,82892,,677.0,,,75.0,43.0,43.0,2.0,easy,1500.0,2000.0,0.0,20.0,80.0,0.0,60.0,A,B,/static/Simple_RL/Stimuli/Fractals_stims/A.jpg,/static/Simple_RL/Stimuli/Fractals_stims/B.jpg,0.0,80.0,20.0,60.0,0.0,B,A,17.177,0.677,0.0,
222,,rl_choice_confirmation,,html-keyboard-response,222,407946,0.0-1.0-304.0-0.0,0,0,82892,,,,,,43.0,,,,,,,,,,,,,,,,,,,,,,18.0,0.823,,
223,,isi,,html-keyboard-response,223,409952,0.0-1.0-306.0,0,0,82892,,,,,,,,,,,,,,,,,,,,,,,,,,,,20.0,2.0,,
224,,feedback,,html-keyboard-response,224,410955,0.0-1.0-307.0-0.0,0,0,82892,,,,,,43.0,,,,,,,,,,,,,,,,,,,,,,21.0,1.0,,
225,,iti,,html-keyboard-response,225,412459,0.0-1.0-308.0,0,0,82892,,,,,,,,,,,,,,,,,,,,,,,,,,,,22.5,1.5,,
226,,rl_choice,,html-keyboard-response,226,413368,0.0-1.0-310.0,0,0,82892,,908.0,,,68.0,44.0,44.0,2.0,hard,1000.0,1500.0,0.0,40.0,60.0,60.0,60.0,C,D,/static/Simple_RL/Stimuli/Fractals_stims/C.jpg,/static/Simple_RL/Stimuli/Fractals_stims/D.jpg,1.0,40.0,60.0,60.0,60.0,C,D,23.408,0.908,0.0,
227,,rl_choice_confirmation,,html-keyboard-response,227,413963,0.0-1.0-311.0-0.0,0,0,82892,,,,,,44.0,,,,,,,,,,,,,,,,,,,,,,24.0,0.592,,
228,,isi,,html-keyboard-response,228,415467,0.0-1.0-313.0,0,0,82892,,,,,,,,,,,,,,,,,,,,,,,,,,,,25.5,1.5,,
229,,feedback,,html-keyboard-response,229,416469,0.0-1.0-314.0-0.0,0,0,82892,,,,,,44.0,,,,,,,,,,,,,,,,,,,,,,26.5,1.0,,
230,,iti,,html-keyboard-response,230,417473,0.0-1.0-315.0,0,0,82892,,,,,,,,,,,,,,,,,,,,,,,,,,,,27.5,1.0,,
231,,rl_choice,,html-keyboard-response,231,418111,0.0-1.0-317.0,0,0,82892,,636.0,,,68.0,45.0,45.0,2.0,hard,2000.0,2000.0,0.0,40.0,60.0,40.0,60.0,C,D,/static/Simple_RL/Stimuli/Fractals_stims/C.jpg,/static/Simple_RL/Stimuli/Fractals_stims/D.jpg,1.0,40.0,60.0,40.0,60.0,C,D,28.136,0.636,0.0,
232,,rl_choice_confirmation,,html-keyboard-response,232,418982,0.0-1.0-318.0-0.0,0,0,82892,,,,,,45.0,,,,,,,,,,,,,,,,,,,,,,29.0,0.864,,
233,,isi,,html-keyboard-response,233,420987,0.0-1.0-320.0,0,0,82892,,,,,,,,,,,,,,,,,,,,,,,,,,,,31.0,2.0,,
234,,feedback,,html-keyboard-response,234,421990,0.0-1.0-321.0-0.0,0,0,82892,,,,,,45.0,,,,,,,,,,,,,,,,,,,,,,32.0,1.0,,
235,,iti,,html-keyboard-response,235,423995,0.0-1.0-322.0,0,0,82892,,,,,,,,,,,,,,,,,,,,,,,,,,,,34.0,2.0,,
236,,rl_choice,,html-keyboard-response,236,424772,0.0-1.0-324.0,0,0,82892,,776.0,,,68.0,46.0,46.0,2.0,hard,2000.0,2000.0,0.0,40.0,60.0,40.0,40.0,C,D,/static/Simple_RL/Stimuli/Fractals_stims/C.jpg,/static/Simple_RL/Stimuli/Fractals_stims/D.jpg,1.0,40.0,60.0,40.0,40.0,C,D,34.776,0.776,0.0,
237,,rl_choice_confirmation,,html-keyboard-response,237,425500,0.0-1.0-325.0-0.0,0,0,82892,,,,,,46.0,,,,,,,,,,,,,,,,,,,,,,35.5,0.724,,
238,,isi,,html-keyboard-response,238,427505,0.0-1.0-327.0,0,0,82892,,,,,,,,,,,,,,,,,,,,,,,,,,,,37.5,2.0,,
239,,feedback,,html-keyboard-response,239,428508,0.0-1.0-328.0-0.0,0,0,82892,,,,,,46.0,,,,,,,,,,,,,,,,,,,,,,38.5,1.0,,
240,,iti,,html-keyboard-response,240,430513,0.0-1.0-329.0,0,0,82892,,,,,,,,,,,,,,,,,,,,,,,,,,,,40.5,2.0,,
241,,rl_choice,,html-keyboard-response,241,431626,0.0-1.0-331.0,0,0,82892,,1111.0,,,68.0,47.0,47.0,2.0,hard,1500.0,1500.0,1.0,60.0,40.0,80.0,20.0,D,C,/static/Simple_RL/Stimuli/Fractals_stims/D.jpg,/static/Simple_RL/Stimuli/Fractals_stims/C.jpg,1.0,60.0,40.0,80.0,20.0,D,C,41.611,1.111,0.0,
242,,rl_choice_confirmation,,html-keyboard-response,242,432017,0.0-1.0-332.0-0.0,0,0,82892,,,,,,47.0,,,,,,,,,,,,,,,,,,,,,,42.0,0.389,,
243,,isi,,html-keyboard-response,243,433523,0.0-1.0-334.0,0,0,82892,,,,,,,,,,,,,,,,,,,,,,,,,,,,43.5,1.5,,
244,,feedback,,html-keyboard-response,244,434529,0.0-1.0-335.0-0.0,0,0,82892,,,,,,47.0,,,,,,,,,,,,,,,,,,,,,,44.5,1.0,,
245,,iti,,html-keyboard-response,245,436033,0.0-1.0-336.0,0,0,82892,,,,,,,,,,,,,,,,,,,,,,,,,,,,46.0,1.5,,
246,,rl_choice,,html-keyboard-response,246,436480,0.0-1.0-338.0,0,0,82892,,446.0,,,68.0,48.0,48.0,2.0,easy,3500.0,1000.0,1.0,80.0,20.0,60.0,0.0,B,A,/static/Simple_RL/Stimuli/Fractals_stims/B.jpg,/static/Simple_RL/Stimuli/Fractals_stims/A.jpg,1.0,80.0,20.0,60.0,0.0,B,A,46.446,0.446,0.0,
247,,rl_choice_confirmation,,html-keyboard-response,247,437537,0.0-1.0-339.0-0.0,0,0,82892,,,,,,48.0,,,,,,,,,,,,,,,,,,,,,,47.5,1.054,,
248,,isi,,html-keyboard-response,248,438539,0.0-1.0-341.0,0,0,82892,,,,,,,,,,,,,,,,,,,,,,,,,,,,48.5,1.0,,
249,,feedback,,html-keyboard-response,249,439543,0.0-1.0-342.0-0.0,0,0,82892,,,,,,48.0,,,,,,,,,,,,,,,,,,,,,,49.5,1.0,,
250,,iti,,html-keyboard-response,250,443047,0.0-1.0-343.0,0,0,82892,,,,,,,,,,,,,,,,,,,,,,,,,,,,53.0,3.5,,
251,,rl_choice,,html-keyboard-response,251,443539,0.0-1.0-345.0,0,0,82892,,491.0,,,68.0,49.0,49.0,2.0,hard,1000.0,3500.0,1.0,60.0,40.0,80.0,20.0,D,C,/static/Simple_RL/Stimuli/Fractals_stims/D.jpg,/static/Simple_RL/Stimuli/Fractals_stims/C.jpg,1.0,60.0,40.0,80.0,20.0,D,C,53.491,0.491,0.0,
252,,rl_choice_confirmation,,html-keyboard-response,252,444551,0.0-1.0-346.0-0.0,0,0,82892,,,,,,49.0,,,,,,,,,,,,,,,,,,,,,,54.5,1.009,,
253,,isi,,html-keyboard-response,253,448055,0.0-1.0-348.0,0,0,82892,,,,,,,,,,,,,,,,,,,,,,,,,,,,58.0,3.5,,
254,,feedback,,html-keyboard-response,254,449057,0.0-1.0-349.0-0.0,0,0,82892,,,,,,49.0,,,,,,,,,,,,,,,,,,,,,,59.0,1.0,,
255,,iti,,html-keyboard-response,255,450060,0.0-1.0-350.0,0,0,82892,,,,,,,,,,,,,,,,,,,,,,,,,,,,60.0,1.0,,
256,,rl_choice,,html-keyboard-response,256,450588,0.0-1.0-352.0,0,0,82892,,526.0,,,68.0,50.0,50.0,2.0,easy,1000.0,1500.0,1.0,80.0,20.0,80.0,40.0,B,A,/static/Simple_RL/Stimuli/Fractals_stims/B.jpg,/static/Simple_RL/Stimuli/Fractals_stims/A.jpg,1.0,80.0,20.0,80.0,40.0,B,A,60.526,0.526,0.0,
257,,rl_choice_confirmation,,html-keyboard-response,257,451564,0.0-1.0-353.0-0.0,0,0,82892,,,,,,50.0,,,,,,,,,,,,,,,,,,,,,,61.5,0.974,,
258,,isi,,html-keyboard-response,258,453066,0.0-1.0-355.0,0,0,82892,,,,,,,,,,,,,,,,,,,,,,,,,,,,63.0,1.5,,
259,,feedback,,html-keyboard-response,259,454071,0.0-1.0-356.0-0.0,0,0,82892,,,,,,50.0,,,,,,,,,,,,,,,,,,,,,,64.0,1.0,,
260,,iti,,html-keyboard-response,260,455074,0.0-1.0-357.0,0,0,82892,,,,,,,,,,,,,,,,,,,,,,,,,,,,65.0,1.0,,
261,,rl_choice,,html-keyboard-response,261,455693,0.0-1.0-359.0,0,0,82892,,618.0,,,75.0,51.0,51.0,2.0,easy,1000.0,2000.0,0.0,20.0,80.0,0.0,100.0,A,B,/static/Simple_RL/Stimuli/Fractals_stims/A.jpg,/static/Simple_RL/Stimuli/Fractals_stims/B.jpg,0.0,80.0,20.0,100.0,0.0,B,A,65.618,0.618,0.0,
262,,rl_choice_confirmation,,html-keyboard-response,262,456578,0.0-1.0-360.0-0.0,0,0,82892,,,,,,51.0,,,,,,,,,,,,,,,,,,,,,,66.5,0.882,,
263,,isi,,html-keyboard-response,263,458583,0.0-1.0-362.0,0,0,82892,,,,,,,,,,,,,,,,,,,,,,,,,,,,68.5,2.0,,
264,,feedback,,html-keyboard-response,264,459586,0.0-1.0-363.0-0.0,0,0,82892,,,,,,51.0,,,,,,,,,,,,,,,,,,,,,,69.5,1.0,,
265,,iti,,html-keyboard-response,265,460590,0.0-1.0-364.0,0,0,82892,,,,,,,,,,,,,,,,,,,,,,,,,,,,70.5,1.0,,
266,,rl_choice,,html-keyboard-response,266,461120,0.0-1.0-366.0,0,0,82892,,529.0,,,75.0,52.0,52.0,2.0,easy,3000.0,1500.0,0.0,20.0,80.0,40.0,80.0,A,B,/static/Simple_RL/Stimuli/Fractals_stims/A.jpg,/static/Simple_RL/Stimuli/Fractals_stims/B.jpg,0.0,80.0,20.0,80.0,40.0,B,A,71.029,0.529,0.0,
267,,rl_choice_confirmation,,html-keyboard-response,267,462097,0.0-1.0-367.0-0.0,0,0,82892,,,,,,52.0,,,,,,,,,,,,,,,,,,,,,,72.0,0.971,,
268,,isi,,html-keyboard-response,268,463602,0.0-1.0-369.0,0,0,82892,,,,,,,,,,,,,,,,,,,,,,,,,,,,73.5,1.5,,
269,,feedback,,html-keyboard-response,269,464605,0.0-1.0-370.0-0.0,0,0,82892,,,,,,52.0,,,,,,,,,,,,,,,,,,,,,,74.5,1.0,,
270,,iti,,html-keyboard-response,270,467608,0.0-1.0-371.0,0,0,82892,,,,,,,,,,,,,,,,,,,,,,,,,,,,77.5,3.0,,
271,,rl_choice,,html-keyboard-response,271,468404,0.0-1.0-373.0,0,0,82892,,792.0,,,68.0,53.0,53.0,2.0,hard,2000.0,1000.0,1.0,60.0,40.0,60.0,40.0,D,C,/static/Simple_RL/Stimuli/Fractals_stims/D.jpg,/static/Simple_RL/Stimuli/Fractals_stims/C.jpg,1.0,60.0,40.0,60.0,40.0,D,C,78.292,0.792,0.0,
272,,rl_choice_confirmation,,html-keyboard-response,272,469117,0.0-1.0-374.0-0.0,0,0,82892,,,,,,53.0,,,,,,,,,,,,,,,,,,,,,,79.0,0.708,,
273,,isi,,html-keyboard-response,273,470119,0.0-1.0-376.0,0,0,82892,,,,,,,,,,,,,,,,,,,,,,,,,,,,80.0,1.0,,
274,,feedback,,html-keyboard-response,274,471122,0.0-1.0-377.0-0.0,0,0,82892,,,,,,53.0,,,,,,,,,,,,,,,,,,,,,,81.0,1.0,,
275,,iti,,html-keyboard-response,275,473127,0.0-1.0-378.0,0,0,82892,,,,,,,,,,,,,,,,,,,,,,,,,,,,83.0,2.0,,
276,,rl_choice,,html-keyboard-response,276,473675,0.0-1.0-380.0,0,0,82892,,546.0,,,75.0,54.0,54.0,2.0,easy,2000.0,1500.0,0.0,20.0,80.0,0.0,100.0,A,B,/static/Simple_RL/Stimuli/Fractals_stims/A.jpg,/static/Simple_RL/Stimuli/Fractals_stims/B.jpg,0.0,80.0,20.0,100.0,0.0,B,A,83.546,0.546,0.0,
277,,rl_choice_confirmation,,html-keyboard-response,277,474633,0.0-1.0-381.0-0.0,0,0,82892,,,,,,54.0,,,,,,,,,,,,,,,,,,,,,,84.5,0.954,,
278,,isi,,html-keyboard-response,278,476135,0.0-1.0-383.0,0,0,82892,,,,,,,,,,,,,,,,,,,,,,,,,,,,86.0,1.5,,
279,,feedback,,html-keyboard-response,279,477143,0.0-1.0-384.0-0.0,0,0,82892,,,,,,54.0,,,,,,,,,,,,,,,,,,,,,,87.0,1.0,,
280,,iti,,html-keyboard-response,280,479149,0.0-1.0-385.0,0,0,82892,,,,,,,,,,,,,,,,,,,,,,,,,,,,89.0,2.0,,
281,,rl_choice,,html-keyboard-response,281,479670,0.0-1.0-387.0,0,0,82892,,519.0,,,75.0,55.0,55.0,2.0,easy,1000.0,1000.0,0.0,20.0,80.0,40.0,100.0,A,B,/static/Simple_RL/Stimuli/Fractals_stims/A.jpg,/static/Simple_RL/Stimuli/Fractals_stims/B.jpg,0.0,80.0,20.0,100.0,40.0,B,A,89.519,0.519,0.0,
282,,rl_choice_confirmation,,html-keyboard-response,282,480657,0.0-1.0-388.0-0.0,0,0,82892,,,,,,55.0,,,,,,,,,,,,,,,,,,,,,,90.5,0.981,,
283,,isi,,html-keyboard-response,283,481661,0.0-1.0-390.0,0,0,82892,,,,,,,,,,,,,,,,,,,,,,,,,,,,91.5,1.0,,
284,,feedback,,html-keyboard-response,284,482664,0.0-1.0-391.0-0.0,0,0,82892,,,,,,55.0,,,,,,,,,,,,,,,,,,,,,,92.5,1.0,,
285,,iti,,html-keyboard-response,285,483672,0.0-1.0-392.0,0,0,82892,,,,,,,,,,,,,,,,,,,,,,,,,,,,93.5,1.0,,
286,,rl_choice,,html-keyboard-response,286,484415,0.0-1.0-394.0,0,0,82892,,741.0,,,68.0,56.0,56.0,2.0,hard,2000.0,1000.0,1.0,60.0,40.0,60.0,20.0,D,C,/static/Simple_RL/Stimuli/Fractals_stims/D.jpg,/static/Simple_RL/Stimuli/Fractals_stims/C.jpg,1.0,60.0,40.0,60.0,20.0,D,C,94.241,0.741,0.0,
287,,rl_choice_confirmation,,html-keyboard-response,287,485176,0.0-1.0-395.0-0.0,0,0,82892,,,,,,56.0,,,,,,,,,,,,,,,,,,,,,,95.0,0.759,,
288,,isi,,html-keyboard-response,288,486179,0.0-1.0-397.0,0,0,82892,,,,,,,,,,,,,,,,,,,,,,,,,,,,96.0,1.0,,
289,,feedback,,html-keyboard-response,289,487181,0.0-1.0-398.0-0.0,0,0,82892,,,,,,56.0,,,,,,,,,,,,,,,,,,,,,,97.0,1.0,,
290,,iti,,html-keyboard-response,290,489187,0.0-1.0-399.0,0,0,82892,,,,,,,,,,,,,,,,,,,,,,,,,,,,99.0,2.0,,
291,,rl_choice,,html-keyboard-response,291,489761,0.0-1.0-401.0,0,0,82892,,573.0,,,68.0,57.0,57.0,2.0,easy,1000.0,2000.0,1.0,80.0,20.0,80.0,0.0,B,A,/static/Simple_RL/Stimuli/Fractals_stims/B.jpg,/static/Simple_RL/Stimuli/Fractals_stims/A.jpg,1.0,80.0,20.0,80.0,0.0,B,A,99.573,0.573,0.0,
292,,rl_choice_confirmation,,html-keyboard-response,292,490691,0.0-1.0-402.0-0.0,0,0,82892,,,,,,57.0,,,,,,,,,,,,,,,,,,,,,,100.5,0.927,,
293,,isi,,html-keyboard-response,293,492696,0.0-1.0-404.0,0,0,82892,,,,,,,,,,,,,,,,,,,,,,,,,,,,102.5,2.0,,
294,,feedback,,html-keyboard-response,294,493701,0.0-1.0-405.0-0.0,0,0,82892,,,,,,57.0,,,,,,,,,,,,,,,,,,,,,,103.5,1.0,,
295,,iti,,html-keyboard-response,295,494707,0.0-1.0-406.0,0,0,82892,,,,,,,,,,,,,,,,,,,,,,,,,,,,104.5,1.0,,
296,,rl_choice,,html-keyboard-response,296,495315,0.0-1.0-408.0,0,0,82892,,606.0,,,68.0,58.0,58.0,2.0,hard,1000.0,1500.0,1.0,60.0,40.0,60.0,60.0,D,C,/static/Simple_RL/Stimuli/Fractals_stims/D.jpg,/static/Simple_RL/Stimuli/Fractals_stims/C.jpg,1.0,60.0,40.0,60.0,60.0,D,C,105.106,0.606,0.0,
297,,rl_choice_confirmation,,html-keyboard-response,297,496213,0.0-1.0-409.0-0.0,0,0,82892,,,,,,58.0,,,,,,,,,,,,,,,,,,,,,,106.0,0.894,,
298,,isi,,html-keyboard-response,298,497715,0.0-1.0-411.0,0,0,82892,,,,,,,,,,,,,,,,,,,,,,,,,,,,107.5,1.5,,
299,,feedback,,html-keyboard-response,299,498719,0.0-1.0-412.0-0.0,0,0,82892,,,,,,58.0,,,,,,,,,,,,,,,,,,,,,,108.5,1.0,,
300,,iti,,html-keyboard-response,300,499724,0.0-1.0-413.0,0,0,82892,,,,,,,,,,,,,,,,,,,,,,,,,,,,109.5,1.0,,
301,,rl_choice,,html-keyboard-response,301,500274,0.0-1.0-415.0,0,0,82892,,548.0,,,68.0,59.0,59.0,2.0,easy,1500.0,3000.0,1.0,80.0,20.0,80.0,40.0,B,A,/static/Simple_RL/Stimuli/Fractals_stims/B.jpg,/static/Simple_RL/Stimuli/Fractals_stims/A.jpg,1.0,80.0,20.0,80.0,40.0,B,A,110.048,0.548,0.0,
302,,rl_choice_confirmation,,html-keyboard-response,302,501230,0.0-1.0-416.0-0.0,0,0,82892,,,,,,59.0,,,,,,,,,,,,,,,,,,,,,,111.0,0.952,,
303,,isi,,html-keyboard-response,303,504233,0.0-1.0-418.0,0,0,82892,,,,,,,,,,,,,,,,,,,,,,,,,,,,114.0,3.0,,
304,,feedback,,html-keyboard-response,304,505235,0.0-1.0-419.0-0.0,0,0,82892,,,,,,59.0,,,,,,,,,,,,,,,,,,,,,,115.0,1.0,,
305,,iti,,html-keyboard-response,305,506738,0.0-1.0-420.0,0,0,82892,,,,,,,,,,,,,,,,,,,,,,,,,,,,116.5,1.5,,
306,,rl_choice,,html-keyboard-response,306,507361,0.0-1.0-422.0,0,0,82892,,621.0,,,75.0,60.0,60.0,2.0,hard,1500.0,2000.0,0.0,40.0,60.0,40.0,80.0,C,D,/static/Simple_RL/Stimuli/Fractals_stims/C.jpg,/static/Simple_RL/Stimuli/Fractals_stims/D.jpg,0.0,60.0,40.0,80.0,40.0,D,C,117.121,0.621,0.0,
307,,rl_choice_confirmation,,html-keyboard-response,307,508243,0.0-1.0-423.0-0.0,0,0,82892,,,,,,60.0,,,,,,,,,,,,,,,,,,,,,,118.0,0.879,,
308,,isi,,html-keyboard-response,308,510249,0.0-1.0-425.0,0,0,82892,,,,,,,,,,,,,,,,,,,,,,,,,,,,120.0,2.0,,
309,,feedback,,html-keyboard-response,309,511255,0.0-1.0-426.0-0.0,0,0,82892,,,,,,60.0,,,,,,,,,,,,,,,,,,,,,,121.0,1.0,,
310,,iti,,html-keyboard-response,310,512760,0.0-1.0-427.0,0,0,82892,,,,,,,,,,,,,,,,,,,,,,,,,,,,122.5,1.5,,
311,,rl_choice,,html-keyboard-response,311,513282,0.0-1.0-429.0,0,0,82892,,520.0,,,68.0,61.0,61.0,2.0,hard,1000.0,1000.0,1.0,60.0,40.0,40.0,40.0,D,C,/static/Simple_RL/Stimuli/Fractals_stims/D.jpg,/static/Simple_RL/Stimuli/Fractals_stims/C.jpg,1.0,60.0,40.0,40.0,40.0,D,C,123.02,0.52,0.0,
312,,rl_choice_confirmation,,html-keyboard-response,312,514265,0.0-1.0-430.0-0.0,0,0,82892,,,,,,61.0,,,,,,,,,,,,,,,,,,,,,,124.0,0.98,,
313,,isi,,html-keyboard-response,313,515268,0.0-1.0-432.0,0,0,82892,,,,,,,,,,,,,,,,,,,,,,,,,,,,125.0,1.0,,
314,,feedback,,html-keyboard-response,314,516271,0.0-1.0-433.0-0.0,0,0,82892,,,,,,61.0,,,,,,,,,,,,,,,,,,,,,,126.0,1.0,,
315,,iti,,html-keyboard-response,315,517273,0.0-1.0-434.0,0,0,82892,,,,,,,,,,,,,,,,,,,,,,,,,,,,127.0,1.0,,
316,,rl_choice,,html-keyboard-response,316,517898,0.0-1.0-436.0,0,0,82892,,623.0,,,75.0,62.0,62.0,2.0,easy,3000.0,1500.0,0.0,20.0,80.0,20.0,80.0,A,B,/static/Simple_RL/Stimuli/Fractals_stims/A.jpg,/static/Simple_RL/Stimuli/Fractals_stims/B.jpg,0.0,80.0,20.0,80.0,20.0,B,A,127.623,0.623,0.0,
317,,rl_choice_confirmation,,html-keyboard-response,317,518777,0.0-1.0-437.0-0.0,0,0,82892,,,,,,62.0,,,,,,,,,,,,,,,,,,,,,,128.5,0.877,,
318,,isi,,html-keyboard-response,318,520281,0.0-1.0-439.0,0,0,82892,,,,,,,,,,,,,,,,,,,,,,,,,,,,130.0,1.5,,
319,,feedback,,html-keyboard-response,319,521288,0.0-1.0-440.0-0.0,0,0,82892,,,,,,62.0,,,,,,,,,,,,,,,,,,,,,,131.0,1.0,,
320,,iti,,html-keyboard-response,320,524292,0.0-1.0-441.0,0,0,82892,,,,,,,,,,,,,,,,,,,,,,,,,,,,134.0,3.0,,
321,,rl_choice,,html-keyboard-response,321,524871,0.0-1.0-443.0,0,0,82892,,576.0,,,68.0,63.0,63.0,2.0,hard,1000.0,1500.0,1.0,60.0,40.0,60.0,40.0,D,C,/static/Simple_RL/Stimuli/Fractals_stims/D.jpg,/static/Simple_RL/Stimuli/Fractals_stims/C.jpg,1.0,60.0,40.0,60.0,40.0,D,C,134.576,0.576,0.0,
322,,rl_choice_confirmation,,html-keyboard-response,322,525801,0.0-1.0-444.0-0.0,0,0,82892,,,,,,63.0,,,,,,,,,,,,,,,,,,,,,,135.5,0.924,,
323,,isi,,html-keyboard-response,323,527303,0.0-1.0-446.0,0,0,82892,,,,,,,,,,,,,,,,,,,,,,,,,,,,137.0,1.5,,
324,,feedback,,html-keyboard-response,324,528308,0.0-1.0-447.0-0.0,0,0,82892,,,,,,63.0,,,,,,,,,,,,,,,,,,,,,,138.0,1.0,,
325,,iti,,html-keyboard-response,325,529311,0.0-1.0-448.0,0,0,82892,,,,,,,,,,,,,,,,,,,,,,,,,,,,139.0,1.0,,
326,,rl_choice,,html-keyboard-response,326,529966,0.0-1.0-450.0,0,0,82892,,653.0,,,75.0,64.0,64.0,2.0,hard,3500.0,1000.0,0.0,40.0,60.0,60.0,80.0,C,D,/static/Simple_RL/Stimuli/Fractals_stims/C.jpg,/static/Simple_RL/Stimuli/Fractals_stims/D.jpg,0.0,60.0,40.0,80.0,60.0,D,C,139.653,0.653,0.0,
327,,rl_choice_confirmation,,html-keyboard-response,327,530820,0.0-1.0-451.0-0.0,0,0,82892,,,,,,64.0,,,,,,,,,,,,,,,,,,,,,,140.5,0.847,,
328,,isi,,html-keyboard-response,328,531823,0.0-1.0-453.0,0,0,82892,,,,,,,,,,,,,,,,,,,,,,,,,,,,141.5,1.0,,
329,,feedback,,html-keyboard-response,329,532827,0.0-1.0-454.0-0.0,0,0,82892,,,,,,64.0,,,,,,,,,,,,,,,,,,,,,,142.5,1.0,,
330,,iti,,html-keyboard-response,330,536331,0.0-1.0-455.0,0,0,82892,,,,,,,,,,,,,,,,,,,,,,,,,,,,146.0,3.5,,
331,,rl_choice,,html-keyboard-response,331,536916,0.0-1.0-457.0,0,0,82892,,584.0,,,68.0,65.0,65.0,2.0,easy,1500.0,1000.0,1.0,80.0,20.0,100.0,40.0,B,A,/static/Simple_RL/Stimuli/Fractals_stims/B.jpg,/static/Simple_RL/Stimuli/Fractals_stims/A.jpg,1.0,80.0,20.0,100.0,40.0,B,A,146.584,0.584,0.0,
332,,rl_choice_confirmation,,html-keyboard-response,332,537834,0.0-1.0-458.0-0.0,0,0,82892,,,,,,65.0,,,,,,,,,,,,,,,,,,,,,,147.5,0.916,,
333,,isi,,html-keyboard-response,333,538836,0.0-1.0-460.0,0,0,82892,,,,,,,,,,,,,,,,,,,,,,,,,,,,148.5,1.0,,
334,,feedback,,html-keyboard-response,334,539843,0.0-1.0-461.0-0.0,0,0,82892,,,,,,65.0,,,,,,,,,,,,,,,,,,,,,,149.5,1.0,,
335,,iti,,html-keyboard-response,335,541348,0.0-1.0-462.0,0,0,82892,,,,,,,,,,,,,,,,,,,,,,,,,,,,151.0,1.5,,
336,,rl_choice,,html-keyboard-response,336,541883,0.0-1.0-464.0,0,0,82892,,533.0,,,68.0,66.0,66.0,2.0,hard,1500.0,3000.0,1.0,60.0,40.0,60.0,40.0,D,C,/static/Simple_RL/Stimuli/Fractals_stims/D.jpg,/static/Simple_RL/Stimuli/Fractals_stims/C.jpg,1.0,60.0,40.0,60.0,40.0,D,C,151.533,0.533,0.0,
337,,rl_choice_confirmation,,html-keyboard-response,337,542853,0.0-1.0-465.0-0.0,0,0,82892,,,,,,66.0,,,,,,,,,,,,,,,,,,,,,,152.5,0.967,,
338,,isi,,html-keyboard-response,338,545854,0.0-1.0-467.0,0,0,82892,,,,,,,,,,,,,,,,,,,,,,,,,,,,155.5,3.0,,
339,,feedback,,html-keyboard-response,339,546858,0.0-1.0-468.0-0.0,0,0,82892,,,,,,66.0,,,,,,,,,,,,,,,,,,,,,,156.5,1.0,,
340,,iti,,html-keyboard-response,340,548362,0.0-1.0-469.0,0,0,82892,,,,,,,,,,,,,,,,,,,,,,,,,,,,158.0,1.5,,
341,,rl_choice,,html-keyboard-response,341,549267,0.0-1.0-471.0,0,0,82892,,903.0,,,75.0,67.0,67.0,2.0,hard,1500.0,1500.0,0.0,40.0,60.0,20.0,80.0,C,D,/static/Simple_RL/Stimuli/Fractals_stims/C.jpg,/static/Simple_RL/Stimuli/Fractals_stims/D.jpg,0.0,60.0,40.0,80.0,20.0,D,C,158.903,0.903,0.0,
342,,rl_choice_confirmation,,html-keyboard-response,342,549869,0.0-1.0-472.0-0.0,0,0,82892,,,,,,67.0,,,,,,,,,,,,,,,,,,,,,,159.5,0.597,,
343,,isi,,html-keyboard-response,343,551375,0.0-1.0-474.0,0,0,82892,,,,,,,,,,,,,,,,,,,,,,,,,,,,161.0,1.5,,
344,,feedback,,html-keyboard-response,344,552378,0.0-1.0-475.0-0.0,0,0,82892,,,,,,67.0,,,,,,,,,,,,,,,,,,,,,,162.0,1.0,,
345,,iti,,html-keyboard-response,345,553882,0.0-1.0-476.0,0,0,82892,,,,,,,,,,,,,,,,,,,,,,,,,,,,163.5,1.5,,
346,,rl_choice,,html-keyboard-response,346,554455,0.0-1.0-478.0,0,0,82892,,572.0,,,68.0,68.0,68.0,2.0,hard,3000.0,1000.0,1.0,60.0,40.0,60.0,40.0,D,C,/static/Simple_RL/Stimuli/Fractals_stims/D.jpg,/static/Simple_RL/Stimuli/Fractals_stims/C.jpg,1.0,60.0,40.0,60.0,40.0,D,C,164.072,0.572,0.0,
347,,rl_choice_confirmation,,html-keyboard-response,347,555386,0.0-1.0-479.0-0.0,0,0,82892,,,,,,68.0,,,,,,,,,,,,,,,,,,,,,,165.0,0.928,,
348,,isi,,html-keyboard-response,348,556388,0.0-1.0-481.0,0,0,82892,,,,,,,,,,,,,,,,,,,,,,,,,,,,166.0,1.0,,
349,,feedback,,html-keyboard-response,349,557391,0.0-1.0-482.0-0.0,0,0,82892,,,,,,68.0,,,,,,,,,,,,,,,,,,,,,,167.0,1.0,,
350,,iti,,html-keyboard-response,350,560394,0.0-1.0-483.0,0,0,82892,,,,,,,,,,,,,,,,,,,,,,,,,,,,170.0,3.0,,
351,,rl_choice,,html-keyboard-response,351,561201,0.0-1.0-485.0,0,0,82892,,805.0,,,75.0,69.0,69.0,2.0,easy,1000.0,1000.0,0.0,20.0,80.0,40.0,80.0,A,B,/static/Simple_RL/Stimuli/Fractals_stims/A.jpg,/static/Simple_RL/Stimuli/Fractals_stims/B.jpg,0.0,80.0,20.0,80.0,40.0,B,A,170.805,0.805,0.0,
352,,rl_choice_confirmation,,html-keyboard-response,352,561901,0.0-1.0-486.0-0.0,0,0,82892,,,,,,69.0,,,,,,,,,,,,,,,,,,,,,,171.5,0.695,,
353,,isi,,html-keyboard-response,353,562906,0.0-1.0-488.0,0,0,82892,,,,,,,,,,,,,,,,,,,,,,,,,,,,172.5,1.0,,
354,,feedback,,html-keyboard-response,354,563910,0.0-1.0-489.0-0.0,0,0,82892,,,,,,69.0,,,,,,,,,,,,,,,,,,,,,,173.5,1.0,,
355,,iti,,html-keyboard-response,355,564911,0.0-1.0-490.0,0,0,82892,,,,,,,,,,,,,,,,,,,,,,,,,,,,174.5,1.0,,
356,,rl_choice,,html-keyboard-response,356,565491,0.0-1.0-492.0,0,0,82892,,579.0,,,68.0,70.0,70.0,2.0,easy,1500.0,1000.0,1.0,80.0,20.0,80.0,20.0,B,A,/static/Simple_RL/Stimuli/Fractals_stims/B.jpg,/static/Simple_RL/Stimuli/Fractals_stims/A.jpg,1.0,80.0,20.0,80.0,20.0,B,A,175.079,0.579,0.0,
357,,rl_choice_confirmation,,html-keyboard-response,357,566415,0.0-1.0-493.0-0.0,0,0,82892,,,,,,70.0,,,,,,,,,,,,,,,,,,,,,,176.0,0.921,,
358,,isi,,html-keyboard-response,358,567418,0.0-1.0-495.0,0,0,82892,,,,,,,,,,,,,,,,,,,,,,,,,,,,177.0,1.0,,
359,,feedback,,html-keyboard-response,359,568422,0.0-1.0-496.0-0.0,0,0,82892,,,,,,70.0,,,,,,,,,,,,,,,,,,,,,,178.0,1.0,,
360,,iti,,html-keyboard-response,360,569927,0.0-1.0-497.0,0,0,82892,,,,,,,,,,,,,,,,,,,,,,,,,,,,179.5,1.5,,
361,,rl_choice,,html-keyboard-response,361,570453,0.0-1.0-499.0,0,0,82892,,525.0,,,75.0,71.0,71.0,2.0,easy,1500.0,1000.0,0.0,20.0,80.0,40.0,60.0,A,B,/static/Simple_RL/Stimuli/Fractals_stims/A.jpg,/static/Simple_RL/Stimuli/Fractals_stims/B.jpg,0.0,80.0,20.0,60.0,40.0,B,A,180.025,0.525,0.0,
362,,rl_choice_confirmation,,html-keyboard-response,362,571431,0.0-1.0-500.0-0.0,0,0,82892,,,,,,71.0,,,,,,,,,,,,,,,,,,,,,,181.0,0.975,,
363,,isi,,html-keyboard-response,363,572432,0.0-1.0-502.0,0,0,82892,,,,,,,,,,,,,,,,,,,,,,,,,,,,182.0,1.0,,
364,,feedback,,html-keyboard-response,364,573435,0.0-1.0-503.0-0.0,0,0,82892,,,,,,71.0,,,,,,,,,,,,,,,,,,,,,,183.0,1.0,,
365,,iti,,html-keyboard-response,365,574938,0.0-1.0-504.0,0,0,82892,,,,,,,,,,,,,,,,,,,,,,,,,,,,184.5,1.5,,
366,,rl_choice,,html-keyboard-response,366,575443,0.0-1.0-506.0,0,0,82892,,503.0,,,75.0,72.0,72.0,2.0,easy,2000.0,3000.0,0.0,20.0,80.0,20.0,100.0,A,B,/static/Simple_RL/Stimuli/Fractals_stims/A.jpg,/static/Simple_RL/Stimuli/Fractals_stims/B.jpg,0.0,80.0,20.0,100.0,20.0,B,A,185.003,0.503,0.0,
367,,rl_choice_confirmation,,html-keyboard-response,367,576443,0.0-1.0-507.0-0.0,0,0,82892,,,,,,72.0,,,,,,,,,,,,,,,,,,,,,,186.0,0.997,,
368,,isi,,html-keyboard-response,368,579445,0.0-1.0-509.0,0,0,82892,,,,,,,,,,,,,,,,,,,,,,,,,,,,189.0,3.0,,
369,,feedback,,html-keyboard-response,369,580448,0.0-1.0-510.0-0.0,0,0,82892,,,,,,72.0,,,,,,,,,,,,,,,,,,,,,,190.0,1.0,,
370,,iti,,html-keyboard-response,370,582454,0.0-1.0-511.0,0,0,82892,,,,,,,,,,,,,,,,,,,,,,,,,,,,192.0,2.0,,
371,,rl_choice,,html-keyboard-response,371,583061,0.0-1.0-513.0,0,0,82892,,605.0,,,75.0,73.0,73.0,2.0,easy,1000.0,3500.0,0.0,20.0,80.0,40.0,60.0,A,B,/static/Simple_RL/Stimuli/Fractals_stims/A.jpg,/static/Simple_RL/Stimuli/Fractals_stims/B.jpg,0.0,80.0,20.0,60.0,40.0,B,A,192.605,0.605,0.0,
372,,rl_choice_confirmation,,html-keyboard-response,372,583958,0.0-1.0-514.0-0.0,0,0,82892,,,,,,73.0,,,,,,,,,,,,,,,,,,,,,,193.5,0.895,,
373,,isi,,html-keyboard-response,373,587464,0.0-1.0-516.0,0,0,82892,,,,,,,,,,,,,,,,,,,,,,,,,,,,197.0,3.5,,
374,,feedback,,html-keyboard-response,374,588470,0.0-1.0-517.0-0.0,0,0,82892,,,,,,73.0,,,,,,,,,,,,,,,,,,,,,,198.0,1.0,,
375,,iti,,html-keyboard-response,375,589472,0.0-1.0-518.0,0,0,82892,,,,,,,,,,,,,,,,,,,,,,,,,,,,199.0,1.0,,
376,,rl_choice,,html-keyboard-response,376,590123,0.0-1.0-520.0,0,0,82892,,649.0,,,75.0,74.0,74.0,2.0,hard,3000.0,1000.0,0.0,40.0,60.0,40.0,40.0,C,D,/static/Simple_RL/Stimuli/Fractals_stims/C.jpg,/static/Simple_RL/Stimuli/Fractals_stims/D.jpg,0.0,60.0,40.0,40.0,40.0,D,C,199.649,0.649,0.0,
377,,rl_choice_confirmation,,html-keyboard-response,377,590976,0.0-1.0-521.0-0.0,0,0,82892,,,,,,74.0,,,,,,,,,,,,,,,,,,,,,,200.5,0.851,,
378,,isi,,html-keyboard-response,378,591978,0.0-1.0-523.0,0,0,82892,,,,,,,,,,,,,,,,,,,,,,,,,,,,201.5,1.0,,
379,,feedback,,html-keyboard-response,379,592982,0.0-1.0-524.0-0.0,0,0,82892,,,,,,74.0,,,,,,,,,,,,,,,,,,,,,,202.5,1.0,,
380,,iti,,html-keyboard-response,380,595984,0.0-1.0-525.0,0,0,82892,,,,,,,,,,,,,,,,,,,,,,,,,,,,205.5,3.0,,
381,,rl_choice,,html-keyboard-response,381,596470,0.0-1.0-527.0,0,0,82892,,485.0,,,75.0,75.0,75.0,2.0,easy,1000.0,1000.0,0.0,20.0,80.0,0.0,60.0,A,B,/static/Simple_RL/Stimuli/Fractals_stims/A.jpg,/static/Simple_RL/Stimuli/Fractals_stims/B.jpg,0.0,80.0,20.0,60.0,0.0,B,A,205.985,0.485,0.0,
382,,rl_choice_confirmation,,html-keyboard-response,382,597489,0.0-1.0-528.0-0.0,0,0,82892,,,,,,75.0,,,,,,,,,,,,,,,,,,,,,,207.0,1.015,,
383,,isi,,html-keyboard-response,383,598491,0.0-1.0-530.0,0,0,82892,,,,,,,,,,,,,,,,,,,,,,,,,,,,208.0,1.0,,
384,,feedback,,html-keyboard-response,384,599498,0.0-1.0-531.0-0.0,0,0,82892,,,,,,75.0,,,,,,,,,,,,,,,,,,,,,,209.0,1.0,,
385,,iti,,html-keyboard-response,385,600502,0.0-1.0-532.0,0,0,82892,,,,,,,,,,,,,,,,,,,,,,,,,,,,210.0,1.0,,
386,,rl_choice,,html-keyboard-response,386,601305,0.0-1.0-534.0,0,0,82892,,801.0,,,68.0,76.0,76.0,2.0,easy,2000.0,1500.0,1.0,80.0,20.0,100.0,20.0,B,A,/static/Simple_RL/Stimuli/Fractals_stims/B.jpg,/static/Simple_RL/Stimuli/Fractals_stims/A.jpg,1.0,80.0,20.0,100.0,20.0,B,A,210.801,0.801,0.0,
387,,rl_choice_confirmation,,html-keyboard-response,387,602007,0.0-1.0-535.0-0.0,0,0,82892,,,,,,76.0,,,,,,,,,,,,,,,,,,,,,,211.5,0.699,,
388,,isi,,html-keyboard-response,388,603510,0.0-1.0-537.0,0,0,82892,,,,,,,,,,,,,,,,,,,,,,,,,,,,213.0,1.5,,
389,,feedback,,html-keyboard-response,389,604513,0.0-1.0-538.0-0.0,0,0,82892,,,,,,76.0,,,,,,,,,,,,,,,,,,,,,,214.0,1.0,,
390,,iti,,html-keyboard-response,390,606518,0.0-1.0-539.0,0,0,82892,,,,,,,,,,,,,,,,,,,,,,,,,,,,216.0,2.0,,
391,,rl_choice,,html-keyboard-response,391,607129,0.0-1.0-541.0,0,0,82892,,609.0,,,75.0,77.0,77.0,2.0,easy,1000.0,1000.0,0.0,20.0,80.0,0.0,80.0,A,B,/static/Simple_RL/Stimuli/Fractals_stims/A.jpg,/static/Simple_RL/Stimuli/Fractals_stims/B.jpg,0.0,80.0,20.0,80.0,0.0,B,A,216.609,0.609,0.0,
392,,rl_choice_confirmation,,html-keyboard-response,392,608025,0.0-1.0-542.0-0.0,0,0,82892,,,,,,77.0,,,,,,,,,,,,,,,,,,,,,,217.5,0.891,,
393,,isi,,html-keyboard-response,393,609030,0.0-1.0-544.0,0,0,82892,,,,,,,,,,,,,,,,,,,,,,,,,,,,218.5,1.0,,
394,,feedback,,html-keyboard-response,394,610033,0.0-1.0-545.0-0.0,0,0,82892,,,,,,77.0,,,,,,,,,,,,,,,,,,,,,,219.5,1.0,,
395,,iti,,html-keyboard-response,395,611036,0.0-1.0-546.0,0,0,82892,,,,,,,,,,,,,,,,,,,,,,,,,,,,220.5,1.0,,
396,,rl_choice,,html-keyboard-response,396,611781,0.0-1.0-548.0,0,0,82892,,743.0,,,75.0,78.0,78.0,2.0,hard,1500.0,1000.0,0.0,40.0,60.0,20.0,60.0,C,D,/static/Simple_RL/Stimuli/Fractals_stims/C.jpg,/static/Simple_RL/Stimuli/Fractals_stims/D.jpg,0.0,60.0,40.0,60.0,20.0,D,C,221.243,0.743,0.0,
397,,rl_choice_confirmation,,html-keyboard-response,397,612540,0.0-1.0-549.0-0.0,0,0,82892,,,,,,78.0,,,,,,,,,,,,,,,,,,,,,,222.0,0.757,,
398,,isi,,html-keyboard-response,398,613542,0.0-1.0-551.0,0,0,82892,,,,,,,,,,,,,,,,,,,,,,,,,,,,223.0,1.0,,
399,,feedback,,html-keyboard-response,399,614545,0.0-1.0-552.0-0.0,0,0,82892,,,,,,78.0,,,,,,,,,,,,,,,,,,,,,,224.0,1.0,,
400,,iti,,html-keyboard-response,400,616049,0.0-1.0-553.0,0,0,82892,,,,,,,,,,,,,,,,,,,,,,,,,,,,225.5,1.5,,
401,,rl_choice,,html-keyboard-response,401,616579,0.0-1.0-555.0,0,0,82892,,528.0,,,68.0,79.0,79.0,2.0,easy,2000.0,2000.0,1.0,80.0,20.0,100.0,0.0,B,A,/static/Simple_RL/Stimuli/Fractals_stims/B.jpg,/static/Simple_RL/Stimuli/Fractals_stims/A.jpg,1.0,80.0,20.0,100.0,0.0,B,A,226.028,0.528,0.0,
402,,rl_choice_confirmation,,html-keyboard-response,402,617553,0.0-1.0-556.0-0.0,0,0,82892,,,,,,79.0,,,,,,,,,,,,,,,,,,,,,,227.0,0.972,,
403,,isi,,html-keyboard-response,403,619559,0.0-1.0-558.0,0,0,82892,,,,,,,,,,,,,,,,,,,,,,,,,,,,229.0,2.0,,
404,,feedback,,html-keyboard-response,404,620566,0.0-1.0-559.0-0.0,0,0,82892,,,,,,79.0,,,,,,,,,,,,,,,,,,,,,,230.0,1.0,,
405,,iti,,html-keyboard-response,405,622572,0.0-1.0-560.0,0,0,82892,,,,,,,,,,,,,,,,,,,,,,,,,,,,232.0,2.0,,1.0
406,,final_tally,,html-keyboard-response,406,625125,0.0-2.0,0,0,82892,,2551.0,,,68.0,,,,,,,,,,,,,,,,,,,,,,,,,,
407,,debreif_intro,,html-keyboard-response,407,628075,0.0-3.0,0,0,82892,,2923.0,,,68.0,,,,,,,,,,,,,,,,,,,,,,,,,,
408,,debreif_age,,survey-text,408,632287,0.0-4.0,0,0,82892,,4211.0,"{""Q0"":""32""}",,,,,,,,,,,,,,,,,,,,,,,,,,,,
409,,debreif_gender,,survey-multi-choice,409,634572,0.0-5.0,0,0,82892,,2281.0,"{""Q0"":""Female""}",,,,,,,,,,,,,,,,,,,,,,,,,,,,
410,,debreif_dominant_hand,,survey-multi-choice,410,639249,0.0-6.0,0,0,82892,,4675.0,"{""Q0"":""Right""}",,,,,,,,,,,,,,,,,,,,,,,,,,,,
411,,debreif_native_language,,survey-multi-choice,411,641881,0.0-7.0,0,0,82892,,2629.0,"{""Q0"":""Yes""}",,,,,,,,,,,,,,,,,,,,,,,,,,,,
412,,debreif_fluency,,survey-likert,412,646511,0.0-8.0,0,0,82892,,4627.0,"{""Q0"":5}",,,,,,,,,,,,,,,,,,,,,,,,,,,,
413,,debreif_strategy_category_learning,,survey-text,413,662438,0.0-9.0,0,0,82892,,15924.0,"{""Q0"":""First randomly, then based on recall and instinct.""}",,,,,,,,,,,,,,,,,,,,,,,,,,,,
414,,debreif_strategy_old_trials,,survey-text,414,697650,0.0-10.0,0,0,82892,,35210.0,"{""Q0"":""If I remembered a specific one with a high value, I chose that. Otherwise, my choice was gut instinct.""}",,,,,,,,,,,,,,,,,,,,,,,,,,,,
415,,debreif_strategy_category_memory,,survey-text,415,712301,0.0-11.0,0,0,82892,,14649.0,"{""Q0"":""Just based on general recall.""}",,,,,,,,,,,,,,,,,,,,,,,,,,,,
416,,debreif_strategy_size,,survey-text,416,746683,0.0-12.0,0,0,82892,,34381.0,"{""Q0"":""I had to briefly pause and reflect, as there was no quick way to determine the right choice without making errors.""}",,,,,,,,,,,,,,,,,,,,,,,,,,,,
417,,debreif_strategy_rl,,survey-text,417,762311,0.0-13.0,0,0,82892,,15626.0,"{""Q0"":""Based on trial and error.""}",,,,,,,,,,,,,,,,,,,,,,,,,,,,
418,,debreif_clear_instructions,,survey-text,418,766197,0.0-14.0,0,0,82892,,3885.0,"{""Q0"":""No.""}",,,,,,,,,,,,,,,,,,,,,,,,,,,,
419,,debreif_end,,html-keyboard-response,419,778161,0.0-15.0,0,0,82892,,11961.0,,,32.0,,,,,,,,,,,,,,,,,,,,,,,,,,
