,success,ttype,start_time,trial_type,trial_index,time_elapsed,internal_node_id,warning,missed_checkup,PID,view_history,rt,responses,repeat_instructions,key_press,index,trial_num,block,condition,iti,isi,high_group_on_left,left_group_value,right_group_value,left_item_value,right_item_value,left_img,right_img,left_img_path,right_img_path,left_chosen,chosen_group_value,unchosen_group_value,chosen_item_value,unchosen_item_value,chosen_img,unchosen_img,onset,duration,no_response,total_bonus_tally
0,True,full_screen,d06102022hr2058,fullscreen,0,2313,0.0-0.0,0,0,10,,,,,,,,,,,,,,,,,,,,,,,,,,,,,,,
1,,size_instructions,,instructions,1,38060,0.0-1.0-0.0-0.0,0,0,10,"[{""page_index"":0,""viewing_time"":4350},{""page_index"":1,""viewing_time"":9931},{""page_index"":2,""viewing_time"":9435},{""page_index"":3,""viewing_time"":3376},{""page_index"":4,""viewing_time"":6302},{""page_index"":5,""viewing_time"":2351}]",35745.0,,,,,,,,,,,,,,,,,,,,,,,,,,,,,
2,,rl_comprehension_check,,survey-multi-choice,2,45185,0.0-1.0-0.0-1.0,0,0,10,,7124.0,"{""Q0"":""True"",""Q1"":""True"",""Q2"":""pointer finger for left and middle finger for right""}",0.0,,,,,,,,,,,,,,,,,,,,,,,,,,,
3,,,,html-keyboard-response,3,48023,0.0-1.0-1.0,0,0,10,,2833.0,,,83.0,,,,,,,,,,,,,,,,,,,,,,,,,,
4,,start_run,,html-keyboard-response,4,51946,0.0-1.0-2.0,0,0,10,,3923.0,,,84.0,,,,,,,,,,,,,,,,,,,,,,,,,,
5,,rl_choice,,html-keyboard-response,5,52503,0.0-1.0-3.0,0,0,10,,556.0,,,50.0,0.0,0.0,1.0,hard,1500.0,2000.0,1.0,60.0,40.0,80.0,20.0,B,A,/static/Simple_RL/Stimuli/Fractals_stims/B.jpg,/static/Simple_RL/Stimuli/Fractals_stims/A.jpg,1.0,60.0,40.0,80.0,20.0,B,A,0.0,0.556,0.0,
6,,rl_choice_confirmation,,html-keyboard-response,6,53452,0.0-1.0-4.0-0.0,0,0,10,,,,,,0.0,,1.0,,,,,,,,,,,,,,,,,,,,0.556,0.944,,
7,,isi,,html-keyboard-response,7,55455,0.0-1.0-6.0,0,0,10,,,,,,0.0,,1.0,,,,,,,,,,,,,,,,,,,,1.5,2.0,,
8,,feedback,,html-keyboard-response,8,56458,0.0-1.0-7.0-0.0,0,0,10,,,,,,0.0,,1.0,,,,,,,,,,,,,,,,,,,,3.5,1.0,,
9,,iti,,html-keyboard-response,9,57962,0.0-1.0-8.0,0,0,10,,,,,,0.0,,1.0,,,,,,,,,,,,,,,,,,,,4.5,1.5,,
10,,rl_choice,,html-keyboard-response,10,58470,0.0-1.0-10.0,0,0,10,,507.0,,,51.0,1.0,1.0,1.0,easy,1500.0,3000.0,1.0,80.0,20.0,60.0,40.0,D,C,/static/Simple_RL/Stimuli/Fractals_stims/D.jpg,/static/Simple_RL/Stimuli/Fractals_stims/C.jpg,0.0,20.0,80.0,40.0,60.0,C,D,6.0,0.507,0.0,
11,,rl_choice_confirmation,,html-keyboard-response,11,59466,0.0-1.0-11.0-0.0,0,0,10,,,,,,1.0,,1.0,,,,,,,,,,,,,,,,,,,,6.507,0.993,,
12,,isi,,html-keyboard-response,12,62469,0.0-1.0-13.0,0,0,10,,,,,,1.0,,1.0,,,,,,,,,,,,,,,,,,,,7.5,3.0,,
13,,feedback,,html-keyboard-response,13,63475,0.0-1.0-14.0-0.0,0,0,10,,,,,,1.0,,1.0,,,,,,,,,,,,,,,,,,,,10.5,1.0,,
14,,iti,,html-keyboard-response,14,64981,0.0-1.0-15.0,0,0,10,,,,,,1.0,,1.0,,,,,,,,,,,,,,,,,,,,11.5,1.5,,
15,,rl_choice,,html-keyboard-response,15,65450,0.0-1.0-17.0,0,0,10,,468.0,,,50.0,2.0,2.0,1.0,hard,2000.0,3000.0,0.0,40.0,60.0,40.0,40.0,A,B,/static/Simple_RL/Stimuli/Fractals_stims/A.jpg,/static/Simple_RL/Stimuli/Fractals_stims/B.jpg,1.0,40.0,60.0,40.0,40.0,A,B,13.0,0.468,0.0,
16,,rl_choice_confirmation,,html-keyboard-response,16,66486,0.0-1.0-18.0-0.0,0,0,10,,,,,,2.0,,1.0,,,,,,,,,,,,,,,,,,,,13.468,1.032,,
17,,isi,,html-keyboard-response,17,69488,0.0-1.0-20.0,0,0,10,,,,,,2.0,,1.0,,,,,,,,,,,,,,,,,,,,14.5,3.0,,
18,,feedback,,html-keyboard-response,18,70490,0.0-1.0-21.0-0.0,0,0,10,,,,,,2.0,,1.0,,,,,,,,,,,,,,,,,,,,17.5,1.0,,
19,,iti,,html-keyboard-response,19,72496,0.0-1.0-22.0,0,0,10,,,,,,2.0,,1.0,,,,,,,,,,,,,,,,,,,,18.5,2.0,,
20,,rl_choice,,html-keyboard-response,20,72984,0.0-1.0-24.0,0,0,10,,488.0,,,51.0,3.0,3.0,1.0,hard,1000.0,1000.0,0.0,40.0,60.0,40.0,40.0,A,B,/static/Simple_RL/Stimuli/Fractals_stims/A.jpg,/static/Simple_RL/Stimuli/Fractals_stims/B.jpg,0.0,60.0,40.0,40.0,40.0,B,A,20.5,0.488,0.0,
21,,rl_choice_confirmation,,html-keyboard-response,21,74000,0.0-1.0-25.0-0.0,0,0,10,,,,,,3.0,,1.0,,,,,,,,,,,,,,,,,,,,20.988,1.012,,
22,,isi,,html-keyboard-response,22,75003,0.0-1.0-27.0,0,0,10,,,,,,3.0,,1.0,,,,,,,,,,,,,,,,,,,,22.0,1.0,,
23,,feedback,,html-keyboard-response,23,76005,0.0-1.0-28.0-0.0,0,0,10,,,,,,3.0,,1.0,,,,,,,,,,,,,,,,,,,,23.0,1.0,,
24,,iti,,html-keyboard-response,24,77008,0.0-1.0-29.0,0,0,10,,,,,,3.0,,1.0,,,,,,,,,,,,,,,,,,,,24.0,1.0,,
25,,rl_choice,,html-keyboard-response,25,77536,0.0-1.0-31.0,0,0,10,,527.0,,,51.0,4.0,4.0,1.0,hard,3500.0,3500.0,1.0,60.0,40.0,60.0,20.0,B,A,/static/Simple_RL/Stimuli/Fractals_stims/B.jpg,/static/Simple_RL/Stimuli/Fractals_stims/A.jpg,0.0,40.0,60.0,20.0,60.0,A,B,25.0,0.527,0.0,
26,,rl_choice_confirmation,,html-keyboard-response,26,78512,0.0-1.0-32.0-0.0,0,0,10,,,,,,4.0,,1.0,,,,,,,,,,,,,,,,,,,,25.527,0.973,,
27,,isi,,html-keyboard-response,27,82016,0.0-1.0-34.0,0,0,10,,,,,,4.0,,1.0,,,,,,,,,,,,,,,,,,,,26.5,3.5,,
28,,feedback,,html-keyboard-response,28,83019,0.0-1.0-35.0-0.0,0,0,10,,,,,,4.0,,1.0,,,,,,,,,,,,,,,,,,,,30.0,1.0,,
29,,iti,,html-keyboard-response,29,86522,0.0-1.0-36.0,0,0,10,,,,,,4.0,,1.0,,,,,,,,,,,,,,,,,,,,31.0,3.5,,
30,,rl_choice,,html-keyboard-response,30,86903,0.0-1.0-38.0,0,0,10,,380.0,,,51.0,5.0,5.0,1.0,hard,1500.0,1000.0,0.0,40.0,60.0,20.0,60.0,A,B,/static/Simple_RL/Stimuli/Fractals_stims/A.jpg,/static/Simple_RL/Stimuli/Fractals_stims/B.jpg,0.0,60.0,40.0,60.0,20.0,B,A,34.5,0.38,0.0,
31,,rl_choice_confirmation,,html-keyboard-response,31,88026,0.0-1.0-39.0-0.0,0,0,10,,,,,,5.0,,1.0,,,,,,,,,,,,,,,,,,,,34.88,1.12,,
32,,isi,,html-keyboard-response,32,89029,0.0-1.0-41.0,0,0,10,,,,,,5.0,,1.0,,,,,,,,,,,,,,,,,,,,36.0,1.0,,
33,,feedback,,html-keyboard-response,33,90032,0.0-1.0-42.0-0.0,0,0,10,,,,,,5.0,,1.0,,,,,,,,,,,,,,,,,,,,37.0,1.0,,
34,,iti,,html-keyboard-response,34,91536,0.0-1.0-43.0,0,0,10,,,,,,5.0,,1.0,,,,,,,,,,,,,,,,,,,,38.0,1.5,,
35,,rl_choice,,html-keyboard-response,35,91960,0.0-1.0-45.0,0,0,10,,422.0,,,51.0,6.0,6.0,1.0,hard,1000.0,1000.0,0.0,40.0,60.0,40.0,60.0,A,B,/static/Simple_RL/Stimuli/Fractals_stims/A.jpg,/static/Simple_RL/Stimuli/Fractals_stims/B.jpg,0.0,60.0,40.0,60.0,40.0,B,A,39.5,0.422,0.0,
36,,rl_choice_confirmation,,html-keyboard-response,36,93040,0.0-1.0-46.0-0.0,0,0,10,,,,,,6.0,,1.0,,,,,,,,,,,,,,,,,,,,39.922,1.078,,
37,,isi,,html-keyboard-response,37,94045,0.0-1.0-48.0,0,0,10,,,,,,6.0,,1.0,,,,,,,,,,,,,,,,,,,,41.0,1.0,,
38,,feedback,,html-keyboard-response,38,95050,0.0-1.0-49.0-0.0,0,0,10,,,,,,6.0,,1.0,,,,,,,,,,,,,,,,,,,,42.0,1.0,,
39,,iti,,html-keyboard-response,39,96053,0.0-1.0-50.0,0,0,10,,,,,,6.0,,1.0,,,,,,,,,,,,,,,,,,,,43.0,1.0,,
40,,rl_choice,,html-keyboard-response,40,96528,0.0-1.0-52.0,0,0,10,,474.0,,,51.0,7.0,7.0,1.0,hard,3000.0,1500.0,0.0,40.0,60.0,20.0,40.0,A,B,/static/Simple_RL/Stimuli/Fractals_stims/A.jpg,/static/Simple_RL/Stimuli/Fractals_stims/B.jpg,0.0,60.0,40.0,40.0,20.0,B,A,44.0,0.474,0.0,
41,,rl_choice_confirmation,,html-keyboard-response,41,97558,0.0-1.0-53.0-0.0,0,0,10,,,,,,7.0,,1.0,,,,,,,,,,,,,,,,,,,,44.474,1.026,,
42,,isi,,html-keyboard-response,42,99061,0.0-1.0-55.0,0,0,10,,,,,,7.0,,1.0,,,,,,,,,,,,,,,,,,,,45.5,1.5,,
43,,feedback,,html-keyboard-response,43,100064,0.0-1.0-56.0-0.0,0,0,10,,,,,,7.0,,1.0,,,,,,,,,,,,,,,,,,,,47.0,1.0,,
44,,iti,,html-keyboard-response,44,103067,0.0-1.0-57.0,0,0,10,,,,,,7.0,,1.0,,,,,,,,,,,,,,,,,,,,48.0,3.0,,
45,,rl_choice,,html-keyboard-response,45,104571,0.0-1.0-59.0,0,0,10,,,,,,8.0,8.0,1.0,hard,1000.0,2000.0,1.0,60.0,40.0,60.0,60.0,B,A,/static/Simple_RL/Stimuli/Fractals_stims/B.jpg,/static/Simple_RL/Stimuli/Fractals_stims/A.jpg,,,,,,,,51.0,1.5,1.0,
46,,rl_choice_warning,,html-keyboard-response,46,105573,0.0-1.0-61.0-0.0,0,0,10,,,,,,8.0,,1.0,,,,,,,,,,,,,,,,,,,,52.5,1.0,,
47,,isi,,html-keyboard-response,47,107576,0.0-1.0-62.0,0,0,10,,,,,,8.0,,1.0,,,,,,,,,,,,,,,,,,,,53.5,2.0,,
48,,iti,,html-keyboard-response,48,108581,0.0-1.0-64.0,0,0,10,,,,,,8.0,,1.0,,,,,,,,,,,,,,,,,,,,55.5,1.0,,
49,,rl_choice,,html-keyboard-response,49,108994,0.0-1.0-66.0,0,0,10,,412.0,,,51.0,9.0,9.0,1.0,hard,2000.0,2000.0,1.0,60.0,40.0,80.0,60.0,B,A,/static/Simple_RL/Stimuli/Fractals_stims/B.jpg,/static/Simple_RL/Stimuli/Fractals_stims/A.jpg,0.0,40.0,60.0,60.0,80.0,A,B,56.5,0.412,0.0,
50,,rl_choice_confirmation,,html-keyboard-response,50,110085,0.0-1.0-67.0-0.0,0,0,10,,,,,,9.0,,1.0,,,,,,,,,,,,,,,,,,,,56.912,1.088,,
51,,isi,,html-keyboard-response,51,112091,0.0-1.0-69.0,0,0,10,,,,,,9.0,,1.0,,,,,,,,,,,,,,,,,,,,58.0,2.0,,
52,,feedback,,html-keyboard-response,52,113093,0.0-1.0-70.0-0.0,0,0,10,,,,,,9.0,,1.0,,,,,,,,,,,,,,,,,,,,60.0,1.0,,
53,,iti,,html-keyboard-response,53,115096,0.0-1.0-71.0,0,0,10,,,,,,9.0,,1.0,,,,,,,,,,,,,,,,,,,,61.0,2.0,,
54,,rl_choice,,html-keyboard-response,54,115464,0.0-1.0-73.0,0,0,10,,368.0,,,51.0,10.0,10.0,1.0,hard,2000.0,2000.0,0.0,40.0,60.0,20.0,60.0,A,B,/static/Simple_RL/Stimuli/Fractals_stims/A.jpg,/static/Simple_RL/Stimuli/Fractals_stims/B.jpg,0.0,60.0,40.0,60.0,20.0,B,A,63.0,0.368,0.0,
55,,rl_choice_confirmation,,html-keyboard-response,55,116598,0.0-1.0-74.0-0.0,0,0,10,,,,,,10.0,,1.0,,,,,,,,,,,,,,,,,,,,63.368,1.132,,
56,,isi,,html-keyboard-response,56,118603,0.0-1.0-76.0,0,0,10,,,,,,10.0,,1.0,,,,,,,,,,,,,,,,,,,,64.5,2.0,,
57,,feedback,,html-keyboard-response,57,119606,0.0-1.0-77.0-0.0,0,0,10,,,,,,10.0,,1.0,,,,,,,,,,,,,,,,,,,,66.5,1.0,,
58,,iti,,html-keyboard-response,58,121611,0.0-1.0-78.0,0,0,10,,,,,,10.0,,1.0,,,,,,,,,,,,,,,,,,,,67.5,2.0,,
59,,rl_choice,,html-keyboard-response,59,122097,0.0-1.0-80.0,0,0,10,,485.0,,,50.0,11.0,11.0,1.0,easy,1500.0,2000.0,1.0,80.0,20.0,100.0,20.0,D,C,/static/Simple_RL/Stimuli/Fractals_stims/D.jpg,/static/Simple_RL/Stimuli/Fractals_stims/C.jpg,1.0,80.0,20.0,100.0,20.0,D,C,69.5,0.485,0.0,
60,,rl_choice_confirmation,,html-keyboard-response,60,123114,0.0-1.0-81.0-0.0,0,0,10,,,,,,11.0,,1.0,,,,,,,,,,,,,,,,,,,,69.985,1.015,,
61,,isi,,html-keyboard-response,61,125117,0.0-1.0-83.0,0,0,10,,,,,,11.0,,1.0,,,,,,,,,,,,,,,,,,,,71.0,2.0,,
62,,feedback,,html-keyboard-response,62,126122,0.0-1.0-84.0-0.0,0,0,10,,,,,,11.0,,1.0,,,,,,,,,,,,,,,,,,,,73.0,1.0,,
63,,iti,,html-keyboard-response,63,127627,0.0-1.0-85.0,0,0,10,,,,,,11.0,,1.0,,,,,,,,,,,,,,,,,,,,74.0,1.5,,
64,,rl_choice,,html-keyboard-response,64,128061,0.0-1.0-87.0,0,0,10,,433.0,,,51.0,12.0,12.0,1.0,hard,1000.0,1500.0,1.0,60.0,40.0,40.0,20.0,B,A,/static/Simple_RL/Stimuli/Fractals_stims/B.jpg,/static/Simple_RL/Stimuli/Fractals_stims/A.jpg,0.0,40.0,60.0,20.0,40.0,A,B,75.5,0.433,0.0,
65,,rl_choice_confirmation,,html-keyboard-response,65,129132,0.0-1.0-88.0-0.0,0,0,10,,,,,,12.0,,1.0,,,,,,,,,,,,,,,,,,,,75.933,1.067,,
66,,isi,,html-keyboard-response,66,130635,0.0-1.0-90.0,0,0,10,,,,,,12.0,,1.0,,,,,,,,,,,,,,,,,,,,77.0,1.5,,
67,,feedback,,html-keyboard-response,67,131640,0.0-1.0-91.0-0.0,0,0,10,,,,,,12.0,,1.0,,,,,,,,,,,,,,,,,,,,78.5,1.0,,
68,,iti,,html-keyboard-response,68,132646,0.0-1.0-92.0,0,0,10,,,,,,12.0,,1.0,,,,,,,,,,,,,,,,,,,,79.5,1.0,,
69,,rl_choice,,html-keyboard-response,69,133067,0.0-1.0-94.0,0,0,10,,420.0,,,51.0,13.0,13.0,1.0,easy,1500.0,1500.0,1.0,80.0,20.0,100.0,40.0,D,C,/static/Simple_RL/Stimuli/Fractals_stims/D.jpg,/static/Simple_RL/Stimuli/Fractals_stims/C.jpg,0.0,20.0,80.0,40.0,100.0,C,D,80.5,0.42,0.0,
70,,rl_choice_confirmation,,html-keyboard-response,70,134150,0.0-1.0-95.0-0.0,0,0,10,,,,,,13.0,,1.0,,,,,,,,,,,,,,,,,,,,80.92,1.08,,
71,,isi,,html-keyboard-response,71,135650,0.0-1.0-97.0,0,0,10,,,,,,13.0,,1.0,,,,,,,,,,,,,,,,,,,,82.0,1.5,,
72,,feedback,,html-keyboard-response,72,136654,0.0-1.0-98.0-0.0,0,0,10,,,,,,13.0,,1.0,,,,,,,,,,,,,,,,,,,,83.5,1.0,,
73,,iti,,html-keyboard-response,73,138155,0.0-1.0-99.0,0,0,10,,,,,,13.0,,1.0,,,,,,,,,,,,,,,,,,,,84.5,1.5,,
74,,rl_choice,,html-keyboard-response,74,138540,0.0-1.0-101.0,0,0,10,,384.0,,,50.0,14.0,14.0,1.0,easy,1000.0,1000.0,0.0,20.0,80.0,0.0,60.0,C,D,/static/Simple_RL/Stimuli/Fractals_stims/C.jpg,/static/Simple_RL/Stimuli/Fractals_stims/D.jpg,1.0,20.0,80.0,0.0,60.0,C,D,86.0,0.384,0.0,
75,,rl_choice_confirmation,,html-keyboard-response,75,139659,0.0-1.0-102.0-0.0,0,0,10,,,,,,14.0,,1.0,,,,,,,,,,,,,,,,,,,,86.384,1.116,,
76,,isi,,html-keyboard-response,76,140662,0.0-1.0-104.0,0,0,10,,,,,,14.0,,1.0,,,,,,,,,,,,,,,,,,,,87.5,1.0,,
77,,feedback,,html-keyboard-response,77,141664,0.0-1.0-105.0-0.0,0,0,10,,,,,,14.0,,1.0,,,,,,,,,,,,,,,,,,,,88.5,1.0,,
78,,iti,,html-keyboard-response,78,142667,0.0-1.0-106.0,0,0,10,,,,,,14.0,,1.0,,,,,,,,,,,,,,,,,,,,89.5,1.0,,
79,,rl_choice,,html-keyboard-response,79,143055,0.0-1.0-108.0,0,0,10,,387.0,,,51.0,15.0,15.0,1.0,easy,1000.0,2000.0,0.0,20.0,80.0,20.0,100.0,C,D,/static/Simple_RL/Stimuli/Fractals_stims/C.jpg,/static/Simple_RL/Stimuli/Fractals_stims/D.jpg,0.0,80.0,20.0,100.0,20.0,D,C,90.5,0.387,0.0,
80,,rl_choice_confirmation,,html-keyboard-response,80,144171,0.0-1.0-109.0-0.0,0,0,10,,,,,,15.0,,1.0,,,,,,,,,,,,,,,,,,,,90.887,1.113,,
81,,isi,,html-keyboard-response,81,146176,0.0-1.0-111.0,0,0,10,,,,,,15.0,,1.0,,,,,,,,,,,,,,,,,,,,92.0,2.0,,
82,,feedback,,html-keyboard-response,82,147179,0.0-1.0-112.0-0.0,0,0,10,,,,,,15.0,,1.0,,,,,,,,,,,,,,,,,,,,94.0,1.0,,
83,,iti,,html-keyboard-response,83,148182,0.0-1.0-113.0,0,0,10,,,,,,15.0,,1.0,,,,,,,,,,,,,,,,,,,,95.0,1.0,,
84,,rl_choice,,html-keyboard-response,84,148606,0.0-1.0-115.0,0,0,10,,424.0,,,50.0,16.0,16.0,1.0,hard,1000.0,1000.0,1.0,60.0,40.0,60.0,20.0,B,A,/static/Simple_RL/Stimuli/Fractals_stims/B.jpg,/static/Simple_RL/Stimuli/Fractals_stims/A.jpg,1.0,60.0,40.0,60.0,20.0,B,A,96.0,0.424,0.0,
85,,rl_choice_confirmation,,html-keyboard-response,85,149686,0.0-1.0-116.0-0.0,0,0,10,,,,,,16.0,,1.0,,,,,,,,,,,,,,,,,,,,96.424,1.076,,
86,,isi,,html-keyboard-response,86,150688,0.0-1.0-118.0,0,0,10,,,,,,16.0,,1.0,,,,,,,,,,,,,,,,,,,,97.5,1.0,,
87,,feedback,,html-keyboard-response,87,151694,0.0-1.0-119.0-0.0,0,0,10,,,,,,16.0,,1.0,,,,,,,,,,,,,,,,,,,,98.5,1.0,,
88,,iti,,html-keyboard-response,88,152699,0.0-1.0-120.0,0,0,10,,,,,,16.0,,1.0,,,,,,,,,,,,,,,,,,,,99.5,1.0,,
89,,rl_choice,,html-keyboard-response,89,153220,0.0-1.0-122.0,0,0,10,,520.0,,,51.0,17.0,17.0,1.0,easy,1000.0,2000.0,0.0,20.0,80.0,40.0,100.0,C,D,/static/Simple_RL/Stimuli/Fractals_stims/C.jpg,/static/Simple_RL/Stimuli/Fractals_stims/D.jpg,0.0,80.0,20.0,100.0,40.0,D,C,100.5,0.52,0.0,
90,,rl_choice_confirmation,,html-keyboard-response,90,154203,0.0-1.0-123.0-0.0,0,0,10,,,,,,17.0,,1.0,,,,,,,,,,,,,,,,,,,,101.02,0.98,,
91,,isi,,html-keyboard-response,91,156204,0.0-1.0-125.0,0,0,10,,,,,,17.0,,1.0,,,,,,,,,,,,,,,,,,,,102.0,2.0,,
92,,feedback,,html-keyboard-response,92,157206,0.0-1.0-126.0-0.0,0,0,10,,,,,,17.0,,1.0,,,,,,,,,,,,,,,,,,,,104.0,1.0,,
93,,iti,,html-keyboard-response,93,158208,0.0-1.0-127.0,0,0,10,,,,,,17.0,,1.0,,,,,,,,,,,,,,,,,,,,105.0,1.0,,
94,,rl_choice,,html-keyboard-response,94,158632,0.0-1.0-129.0,0,0,10,,422.0,,,51.0,18.0,18.0,1.0,easy,2000.0,1000.0,0.0,20.0,80.0,0.0,100.0,C,D,/static/Simple_RL/Stimuli/Fractals_stims/C.jpg,/static/Simple_RL/Stimuli/Fractals_stims/D.jpg,0.0,80.0,20.0,100.0,0.0,D,C,106.0,0.422,0.0,
95,,rl_choice_confirmation,,html-keyboard-response,95,159713,0.0-1.0-130.0-0.0,0,0,10,,,,,,18.0,,1.0,,,,,,,,,,,,,,,,,,,,106.422,1.078,,
96,,isi,,html-keyboard-response,96,160718,0.0-1.0-132.0,0,0,10,,,,,,18.0,,1.0,,,,,,,,,,,,,,,,,,,,107.5,1.0,,
97,,feedback,,html-keyboard-response,97,161723,0.0-1.0-133.0-0.0,0,0,10,,,,,,18.0,,1.0,,,,,,,,,,,,,,,,,,,,108.5,1.0,,
98,,iti,,html-keyboard-response,98,163729,0.0-1.0-134.0,0,0,10,,,,,,18.0,,1.0,,,,,,,,,,,,,,,,,,,,109.5,2.0,,
99,,rl_choice,,html-keyboard-response,99,164187,0.0-1.0-136.0,0,0,10,,457.0,,,50.0,19.0,19.0,1.0,hard,1500.0,1500.0,0.0,40.0,60.0,60.0,60.0,A,B,/static/Simple_RL/Stimuli/Fractals_stims/A.jpg,/static/Simple_RL/Stimuli/Fractals_stims/B.jpg,1.0,40.0,60.0,60.0,60.0,A,B,111.5,0.457,0.0,
100,,rl_choice_confirmation,,html-keyboard-response,100,165234,0.0-1.0-137.0-0.0,0,0,10,,,,,,19.0,,1.0,,,,,,,,,,,,,,,,,,,,111.957,1.043,,
101,,isi,,html-keyboard-response,101,166740,0.0-1.0-139.0,0,0,10,,,,,,19.0,,1.0,,,,,,,,,,,,,,,,,,,,113.0,1.5,,
102,,feedback,,html-keyboard-response,102,167745,0.0-1.0-140.0-0.0,0,0,10,,,,,,19.0,,1.0,,,,,,,,,,,,,,,,,,,,114.5,1.0,,
103,,iti,,html-keyboard-response,103,169248,0.0-1.0-141.0,0,0,10,,,,,,19.0,,1.0,,,,,,,,,,,,,,,,,,,,115.5,1.5,,
104,,rl_choice,,html-keyboard-response,104,169650,0.0-1.0-143.0,0,0,10,,401.0,,,51.0,20.0,20.0,1.0,easy,1000.0,1000.0,1.0,80.0,20.0,60.0,40.0,D,C,/static/Simple_RL/Stimuli/Fractals_stims/D.jpg,/static/Simple_RL/Stimuli/Fractals_stims/C.jpg,0.0,20.0,80.0,40.0,60.0,C,D,117.0,0.401,0.0,
105,,rl_choice_confirmation,,html-keyboard-response,105,170753,0.0-1.0-144.0-0.0,0,0,10,,,,,,20.0,,1.0,,,,,,,,,,,,,,,,,,,,117.401,1.099,,
106,,isi,,html-keyboard-response,106,171755,0.0-1.0-146.0,0,0,10,,,,,,20.0,,1.0,,,,,,,,,,,,,,,,,,,,118.5,1.0,,
107,,feedback,,html-keyboard-response,107,172760,0.0-1.0-147.0-0.0,0,0,10,,,,,,20.0,,1.0,,,,,,,,,,,,,,,,,,,,119.5,1.0,,
108,,iti,,html-keyboard-response,108,173766,0.0-1.0-148.0,0,0,10,,,,,,20.0,,1.0,,,,,,,,,,,,,,,,,,,,120.5,1.0,,
109,,rl_choice,,html-keyboard-response,109,174194,0.0-1.0-150.0,0,0,10,,426.0,,,51.0,21.0,21.0,1.0,easy,3500.0,1000.0,1.0,80.0,20.0,60.0,20.0,D,C,/static/Simple_RL/Stimuli/Fractals_stims/D.jpg,/static/Simple_RL/Stimuli/Fractals_stims/C.jpg,0.0,20.0,80.0,20.0,60.0,C,D,121.5,0.426,0.0,
110,,rl_choice_confirmation,,html-keyboard-response,110,175270,0.0-1.0-151.0-0.0,0,0,10,,,,,,21.0,,1.0,,,,,,,,,,,,,,,,,,,,121.926,1.074,,
111,,isi,,html-keyboard-response,111,176273,0.0-1.0-153.0,0,0,10,,,,,,21.0,,1.0,,,,,,,,,,,,,,,,,,,,123.0,1.0,,
112,,feedback,,html-keyboard-response,112,177276,0.0-1.0-154.0-0.0,0,0,10,,,,,,21.0,,1.0,,,,,,,,,,,,,,,,,,,,124.0,1.0,,
113,,iti,,html-keyboard-response,113,180780,0.0-1.0-155.0,0,0,10,,,,,,21.0,,1.0,,,,,,,,,,,,,,,,,,,,125.0,3.5,,
114,,rl_choice,,html-keyboard-response,114,181151,0.0-1.0-157.0,0,0,10,,369.0,,,51.0,22.0,22.0,1.0,easy,1500.0,1500.0,1.0,80.0,20.0,80.0,20.0,D,C,/static/Simple_RL/Stimuli/Fractals_stims/D.jpg,/static/Simple_RL/Stimuli/Fractals_stims/C.jpg,0.0,20.0,80.0,20.0,80.0,C,D,128.5,0.369,0.0,
115,,rl_choice_confirmation,,html-keyboard-response,115,182286,0.0-1.0-158.0-0.0,0,0,10,,,,,,22.0,,1.0,,,,,,,,,,,,,,,,,,,,128.869,1.131,,
116,,isi,,html-keyboard-response,116,183787,0.0-1.0-160.0,0,0,10,,,,,,22.0,,1.0,,,,,,,,,,,,,,,,,,,,130.0,1.5,,
117,,feedback,,html-keyboard-response,117,184790,0.0-1.0-161.0-0.0,0,0,10,,,,,,22.0,,1.0,,,,,,,,,,,,,,,,,,,,131.5,1.0,,
118,,iti,,html-keyboard-response,118,186295,0.0-1.0-162.0,0,0,10,,,,,,22.0,,1.0,,,,,,,,,,,,,,,,,,,,132.5,1.5,,
119,,rl_choice,,html-keyboard-response,119,186617,0.0-1.0-164.0,0,0,10,,320.0,,,51.0,23.0,23.0,1.0,easy,2000.0,1500.0,0.0,20.0,80.0,20.0,60.0,C,D,/static/Simple_RL/Stimuli/Fractals_stims/C.jpg,/static/Simple_RL/Stimuli/Fractals_stims/D.jpg,0.0,80.0,20.0,60.0,20.0,D,C,134.0,0.32,0.0,
120,,rl_choice_confirmation,,html-keyboard-response,120,187800,0.0-1.0-165.0-0.0,0,0,10,,,,,,23.0,,1.0,,,,,,,,,,,,,,,,,,,,134.32,1.18,,
121,,isi,,html-keyboard-response,121,189302,0.0-1.0-167.0,0,0,10,,,,,,23.0,,1.0,,,,,,,,,,,,,,,,,,,,135.5,1.5,,
122,,feedback,,html-keyboard-response,122,190305,0.0-1.0-168.0-0.0,0,0,10,,,,,,23.0,,1.0,,,,,,,,,,,,,,,,,,,,137.0,1.0,,
123,,iti,,html-keyboard-response,123,192310,0.0-1.0-169.0,0,0,10,,,,,,23.0,,1.0,,,,,,,,,,,,,,,,,,,,138.0,2.0,,
124,,rl_choice,,html-keyboard-response,124,192774,0.0-1.0-171.0,0,0,10,,462.0,,,51.0,24.0,24.0,1.0,hard,1000.0,1000.0,0.0,40.0,60.0,60.0,80.0,A,B,/static/Simple_RL/Stimuli/Fractals_stims/A.jpg,/static/Simple_RL/Stimuli/Fractals_stims/B.jpg,0.0,60.0,40.0,80.0,60.0,B,A,140.0,0.462,0.0,
125,,rl_choice_confirmation,,html-keyboard-response,125,193814,0.0-1.0-172.0-0.0,0,0,10,,,,,,24.0,,1.0,,,,,,,,,,,,,,,,,,,,140.462,1.038,,
126,,isi,,html-keyboard-response,126,194819,0.0-1.0-174.0,0,0,10,,,,,,24.0,,1.0,,,,,,,,,,,,,,,,,,,,141.5,1.0,,
127,,feedback,,html-keyboard-response,127,195825,0.0-1.0-175.0-0.0,0,0,10,,,,,,24.0,,1.0,,,,,,,,,,,,,,,,,,,,142.5,1.0,,
128,,iti,,html-keyboard-response,128,196828,0.0-1.0-176.0,0,0,10,,,,,,24.0,,1.0,,,,,,,,,,,,,,,,,,,,143.5,1.0,,
129,,rl_choice,,html-keyboard-response,129,197197,0.0-1.0-178.0,0,0,10,,367.0,,,51.0,25.0,25.0,1.0,easy,1000.0,1500.0,0.0,20.0,80.0,20.0,60.0,C,D,/static/Simple_RL/Stimuli/Fractals_stims/C.jpg,/static/Simple_RL/Stimuli/Fractals_stims/D.jpg,0.0,80.0,20.0,60.0,20.0,D,C,144.5,0.367,0.0,
130,,rl_choice_confirmation,,html-keyboard-response,130,198332,0.0-1.0-179.0-0.0,0,0,10,,,,,,25.0,,1.0,,,,,,,,,,,,,,,,,,,,144.867,1.133,,
131,,isi,,html-keyboard-response,131,199836,0.0-1.0-181.0,0,0,10,,,,,,25.0,,1.0,,,,,,,,,,,,,,,,,,,,146.0,1.5,,
132,,feedback,,html-keyboard-response,132,200838,0.0-1.0-182.0-0.0,0,0,10,,,,,,25.0,,1.0,,,,,,,,,,,,,,,,,,,,147.5,1.0,,
133,,iti,,html-keyboard-response,133,201841,0.0-1.0-183.0,0,0,10,,,,,,25.0,,1.0,,,,,,,,,,,,,,,,,,,,148.5,1.0,,
134,,rl_choice,,html-keyboard-response,134,202284,0.0-1.0-185.0,0,0,10,,442.0,,,51.0,26.0,26.0,1.0,easy,2000.0,1000.0,0.0,20.0,80.0,40.0,100.0,C,D,/static/Simple_RL/Stimuli/Fractals_stims/C.jpg,/static/Simple_RL/Stimuli/Fractals_stims/D.jpg,0.0,80.0,20.0,100.0,40.0,D,C,149.5,0.442,0.0,
135,,rl_choice_confirmation,,html-keyboard-response,135,203344,0.0-1.0-186.0-0.0,0,0,10,,,,,,26.0,,1.0,,,,,,,,,,,,,,,,,,,,149.942,1.058,,
136,,isi,,html-keyboard-response,136,204347,0.0-1.0-188.0,0,0,10,,,,,,26.0,,1.0,,,,,,,,,,,,,,,,,,,,151.0,1.0,,
137,,feedback,,html-keyboard-response,137,205350,0.0-1.0-189.0-0.0,0,0,10,,,,,,26.0,,1.0,,,,,,,,,,,,,,,,,,,,152.0,1.0,,
138,,iti,,html-keyboard-response,138,207354,0.0-1.0-190.0,0,0,10,,,,,,26.0,,1.0,,,,,,,,,,,,,,,,,,,,153.0,2.0,,
139,,rl_choice,,html-keyboard-response,139,207649,0.0-1.0-192.0,0,0,10,,293.0,,,50.0,27.0,27.0,1.0,hard,1000.0,1000.0,1.0,60.0,40.0,60.0,20.0,B,A,/static/Simple_RL/Stimuli/Fractals_stims/B.jpg,/static/Simple_RL/Stimuli/Fractals_stims/A.jpg,1.0,60.0,40.0,60.0,20.0,B,A,155.0,0.293,0.0,
140,,rl_choice_confirmation,,html-keyboard-response,140,208862,0.0-1.0-193.0-0.0,0,0,10,,,,,,27.0,,1.0,,,,,,,,,,,,,,,,,,,,155.293,1.207,,
141,,isi,,html-keyboard-response,141,209867,0.0-1.0-195.0,0,0,10,,,,,,27.0,,1.0,,,,,,,,,,,,,,,,,,,,156.5,1.0,,
142,,feedback,,html-keyboard-response,142,210871,0.0-1.0-196.0-0.0,0,0,10,,,,,,27.0,,1.0,,,,,,,,,,,,,,,,,,,,157.5,1.0,,
143,,iti,,html-keyboard-response,143,211876,0.0-1.0-197.0,0,0,10,,,,,,27.0,,1.0,,,,,,,,,,,,,,,,,,,,158.5,1.0,,
144,,rl_choice,,html-keyboard-response,144,212249,0.0-1.0-199.0,0,0,10,,371.0,,,51.0,28.0,28.0,1.0,easy,1500.0,1500.0,1.0,80.0,20.0,80.0,0.0,D,C,/static/Simple_RL/Stimuli/Fractals_stims/D.jpg,/static/Simple_RL/Stimuli/Fractals_stims/C.jpg,0.0,20.0,80.0,0.0,80.0,C,D,159.5,0.371,0.0,
145,,rl_choice_confirmation,,html-keyboard-response,145,213379,0.0-1.0-200.0-0.0,0,0,10,,,,,,28.0,,1.0,,,,,,,,,,,,,,,,,,,,159.871,1.129,,
146,,isi,,html-keyboard-response,146,214881,0.0-1.0-202.0,0,0,10,,,,,,28.0,,1.0,,,,,,,,,,,,,,,,,,,,161.0,1.5,,
147,,feedback,,html-keyboard-response,147,215883,0.0-1.0-203.0-0.0,0,0,10,,,,,,28.0,,1.0,,,,,,,,,,,,,,,,,,,,162.5,1.0,,
148,,iti,,html-keyboard-response,148,217388,0.0-1.0-204.0,0,0,10,,,,,,28.0,,1.0,,,,,,,,,,,,,,,,,,,,163.5,1.5,,
149,,rl_choice,,html-keyboard-response,149,217790,0.0-1.0-206.0,0,0,10,,402.0,,,51.0,29.0,29.0,1.0,easy,2000.0,2000.0,0.0,20.0,80.0,20.0,80.0,C,D,/static/Simple_RL/Stimuli/Fractals_stims/C.jpg,/static/Simple_RL/Stimuli/Fractals_stims/D.jpg,0.0,80.0,20.0,80.0,20.0,D,C,165.0,0.402,0.0,
150,,rl_choice_confirmation,,html-keyboard-response,150,218892,0.0-1.0-207.0-0.0,0,0,10,,,,,,29.0,,1.0,,,,,,,,,,,,,,,,,,,,165.402,1.098,,
151,,isi,,html-keyboard-response,151,220897,0.0-1.0-209.0,0,0,10,,,,,,29.0,,1.0,,,,,,,,,,,,,,,,,,,,166.5,2.0,,
152,,feedback,,html-keyboard-response,152,221900,0.0-1.0-210.0-0.0,0,0,10,,,,,,29.0,,1.0,,,,,,,,,,,,,,,,,,,,168.5,1.0,,
153,,iti,,html-keyboard-response,153,223905,0.0-1.0-211.0,0,0,10,,,,,,29.0,,1.0,,,,,,,,,,,,,,,,,,,,169.5,2.0,,
154,,rl_choice,,html-keyboard-response,154,224094,0.0-1.0-213.0,0,0,10,,188.0,,,51.0,30.0,30.0,1.0,hard,1500.0,1500.0,1.0,60.0,40.0,60.0,60.0,B,A,/static/Simple_RL/Stimuli/Fractals_stims/B.jpg,/static/Simple_RL/Stimuli/Fractals_stims/A.jpg,0.0,40.0,60.0,60.0,60.0,A,B,171.5,0.188,0.0,
155,,rl_choice_confirmation,,html-keyboard-response,155,225410,0.0-1.0-214.0-0.0,0,0,10,,,,,,30.0,,1.0,,,,,,,,,,,,,,,,,,,,171.688,1.312,,
156,,isi,,html-keyboard-response,156,226914,0.0-1.0-216.0,0,0,10,,,,,,30.0,,1.0,,,,,,,,,,,,,,,,,,,,173.0,1.5,,
157,,feedback,,html-keyboard-response,157,227917,0.0-1.0-217.0-0.0,0,0,10,,,,,,30.0,,1.0,,,,,,,,,,,,,,,,,,,,174.5,1.0,,
158,,iti,,html-keyboard-response,158,229419,0.0-1.0-218.0,0,0,10,,,,,,30.0,,1.0,,,,,,,,,,,,,,,,,,,,175.5,1.5,,
159,,rl_choice,,html-keyboard-response,159,229927,0.0-1.0-220.0,0,0,10,,506.0,,,51.0,31.0,31.0,1.0,easy,3000.0,1000.0,0.0,20.0,80.0,40.0,80.0,C,D,/static/Simple_RL/Stimuli/Fractals_stims/C.jpg,/static/Simple_RL/Stimuli/Fractals_stims/D.jpg,0.0,80.0,20.0,80.0,40.0,D,C,177.0,0.506,0.0,
160,,rl_choice_confirmation,,html-keyboard-response,160,230927,0.0-1.0-221.0-0.0,0,0,10,,,,,,31.0,,1.0,,,,,,,,,,,,,,,,,,,,177.506,0.994,,
161,,isi,,html-keyboard-response,161,231932,0.0-1.0-223.0,0,0,10,,,,,,31.0,,1.0,,,,,,,,,,,,,,,,,,,,178.5,1.0,,
162,,feedback,,html-keyboard-response,162,232935,0.0-1.0-224.0-0.0,0,0,10,,,,,,31.0,,1.0,,,,,,,,,,,,,,,,,,,,179.5,1.0,,
163,,iti,,html-keyboard-response,163,235937,0.0-1.0-225.0,0,0,10,,,,,,31.0,,1.0,,,,,,,,,,,,,,,,,,,,180.5,3.0,,
164,,rl_choice,,html-keyboard-response,164,236433,0.0-1.0-227.0,0,0,10,,494.0,,,51.0,32.0,32.0,1.0,easy,1000.0,1000.0,1.0,80.0,20.0,80.0,20.0,D,C,/static/Simple_RL/Stimuli/Fractals_stims/D.jpg,/static/Simple_RL/Stimuli/Fractals_stims/C.jpg,0.0,20.0,80.0,20.0,80.0,C,D,183.5,0.494,0.0,
165,,rl_choice_confirmation,,html-keyboard-response,165,237441,0.0-1.0-228.0-0.0,0,0,10,,,,,,32.0,,1.0,,,,,,,,,,,,,,,,,,,,183.994,1.006,,
166,,isi,,html-keyboard-response,166,238444,0.0-1.0-230.0,0,0,10,,,,,,32.0,,1.0,,,,,,,,,,,,,,,,,,,,185.0,1.0,,
167,,feedback,,html-keyboard-response,167,239446,0.0-1.0-231.0-0.0,0,0,10,,,,,,32.0,,1.0,,,,,,,,,,,,,,,,,,,,186.0,1.0,,
168,,iti,,html-keyboard-response,168,240449,0.0-1.0-232.0,0,0,10,,,,,,32.0,,1.0,,,,,,,,,,,,,,,,,,,,187.0,1.0,,
169,,rl_choice,,html-keyboard-response,169,241102,0.0-1.0-234.0,0,0,10,,652.0,,,51.0,33.0,33.0,1.0,easy,1000.0,1000.0,0.0,20.0,80.0,40.0,60.0,C,D,/static/Simple_RL/Stimuli/Fractals_stims/C.jpg,/static/Simple_RL/Stimuli/Fractals_stims/D.jpg,0.0,80.0,20.0,60.0,40.0,D,C,188.0,0.652,0.0,
170,,rl_choice_confirmation,,html-keyboard-response,170,241954,0.0-1.0-235.0-0.0,0,0,10,,,,,,33.0,,1.0,,,,,,,,,,,,,,,,,,,,188.652,0.848,,
171,,isi,,html-keyboard-response,171,242956,0.0-1.0-237.0,0,0,10,,,,,,33.0,,1.0,,,,,,,,,,,,,,,,,,,,189.5,1.0,,
172,,feedback,,html-keyboard-response,172,243961,0.0-1.0-238.0-0.0,0,0,10,,,,,,33.0,,1.0,,,,,,,,,,,,,,,,,,,,190.5,1.0,,
173,,iti,,html-keyboard-response,173,244963,0.0-1.0-239.0,0,0,10,,,,,,33.0,,1.0,,,,,,,,,,,,,,,,,,,,191.5,1.0,,
174,,rl_choice,,html-keyboard-response,174,245310,0.0-1.0-241.0,0,0,10,,346.0,,,51.0,34.0,34.0,1.0,hard,1500.0,1000.0,0.0,40.0,60.0,40.0,40.0,A,B,/static/Simple_RL/Stimuli/Fractals_stims/A.jpg,/static/Simple_RL/Stimuli/Fractals_stims/B.jpg,0.0,60.0,40.0,40.0,40.0,B,A,192.5,0.346,0.0,
175,,rl_choice_confirmation,,html-keyboard-response,175,246465,0.0-1.0-242.0-0.0,0,0,10,,,,,,34.0,,1.0,,,,,,,,,,,,,,,,,,,,192.846,1.154,,
176,,isi,,html-keyboard-response,176,247468,0.0-1.0-244.0,0,0,10,,,,,,34.0,,1.0,,,,,,,,,,,,,,,,,,,,194.0,1.0,,
177,,feedback,,html-keyboard-response,177,248471,0.0-1.0-245.0-0.0,0,0,10,,,,,,34.0,,1.0,,,,,,,,,,,,,,,,,,,,195.0,1.0,,
178,,iti,,html-keyboard-response,178,249975,0.0-1.0-246.0,0,0,10,,,,,,34.0,,1.0,,,,,,,,,,,,,,,,,,,,196.0,1.5,,
179,,rl_choice,,html-keyboard-response,179,250555,0.0-1.0-248.0,0,0,10,,579.0,,,51.0,35.0,35.0,1.0,hard,1000.0,3000.0,0.0,40.0,60.0,40.0,40.0,A,B,/static/Simple_RL/Stimuli/Fractals_stims/A.jpg,/static/Simple_RL/Stimuli/Fractals_stims/B.jpg,0.0,60.0,40.0,40.0,40.0,B,A,197.5,0.579,0.0,
180,,rl_choice_confirmation,,html-keyboard-response,180,251479,0.0-1.0-249.0-0.0,0,0,10,,,,,,35.0,,1.0,,,,,,,,,,,,,,,,,,,,198.079,0.921,,
181,,isi,,html-keyboard-response,181,254481,0.0-1.0-251.0,0,0,10,,,,,,35.0,,1.0,,,,,,,,,,,,,,,,,,,,199.0,3.0,,
182,,feedback,,html-keyboard-response,182,255484,0.0-1.0-252.0-0.0,0,0,10,,,,,,35.0,,1.0,,,,,,,,,,,,,,,,,,,,202.0,1.0,,
183,,iti,,html-keyboard-response,183,256487,0.0-1.0-253.0,0,0,10,,,,,,35.0,,1.0,,,,,,,,,,,,,,,,,,,,203.0,1.0,,
184,,rl_choice,,html-keyboard-response,184,256823,0.0-1.0-255.0,0,0,10,,336.0,,,51.0,36.0,36.0,1.0,easy,1000.0,3500.0,0.0,20.0,80.0,0.0,80.0,C,D,/static/Simple_RL/Stimuli/Fractals_stims/C.jpg,/static/Simple_RL/Stimuli/Fractals_stims/D.jpg,0.0,80.0,20.0,80.0,0.0,D,C,204.0,0.336,0.0,
185,,rl_choice_confirmation,,html-keyboard-response,185,257993,0.0-1.0-256.0-0.0,0,0,10,,,,,,36.0,,1.0,,,,,,,,,,,,,,,,,,,,204.336,1.164,,
186,,isi,,html-keyboard-response,186,261495,0.0-1.0-258.0,0,0,10,,,,,,36.0,,1.0,,,,,,,,,,,,,,,,,,,,205.5,3.5,,
187,,feedback,,html-keyboard-response,187,262499,0.0-1.0-259.0-0.0,0,0,10,,,,,,36.0,,1.0,,,,,,,,,,,,,,,,,,,,209.0,1.0,,
188,,iti,,html-keyboard-response,188,263504,0.0-1.0-260.0,0,0,10,,,,,,36.0,,1.0,,,,,,,,,,,,,,,,,,,,210.0,1.0,,
189,,rl_choice,,html-keyboard-response,189,263874,0.0-1.0-262.0,0,0,10,,369.0,,,50.0,37.0,37.0,1.0,hard,2000.0,1500.0,1.0,60.0,40.0,40.0,20.0,B,A,/static/Simple_RL/Stimuli/Fractals_stims/B.jpg,/static/Simple_RL/Stimuli/Fractals_stims/A.jpg,1.0,60.0,40.0,40.0,20.0,B,A,211.0,0.369,0.0,
190,,rl_choice_confirmation,,html-keyboard-response,190,265010,0.0-1.0-263.0-0.0,0,0,10,,,,,,37.0,,1.0,,,,,,,,,,,,,,,,,,,,211.369,1.131,,
191,,isi,,html-keyboard-response,191,266512,0.0-1.0-265.0,0,0,10,,,,,,37.0,,1.0,,,,,,,,,,,,,,,,,,,,212.5,1.5,,
192,,feedback,,html-keyboard-response,192,267516,0.0-1.0-266.0-0.0,0,0,10,,,,,,37.0,,1.0,,,,,,,,,,,,,,,,,,,,214.0,1.0,,
193,,iti,,html-keyboard-response,193,269521,0.0-1.0-267.0,0,0,10,,,,,,37.0,,1.0,,,,,,,,,,,,,,,,,,,,215.0,2.0,,
194,,rl_choice,,html-keyboard-response,194,269945,0.0-1.0-269.0,0,0,10,,423.0,,,51.0,38.0,38.0,1.0,hard,3000.0,1000.0,1.0,60.0,40.0,40.0,40.0,B,A,/static/Simple_RL/Stimuli/Fractals_stims/B.jpg,/static/Simple_RL/Stimuli/Fractals_stims/A.jpg,0.0,40.0,60.0,40.0,40.0,A,B,217.0,0.423,0.0,
195,,rl_choice_confirmation,,html-keyboard-response,195,271026,0.0-1.0-270.0-0.0,0,0,10,,,,,,38.0,,1.0,,,,,,,,,,,,,,,,,,,,217.423,1.077,,
196,,isi,,html-keyboard-response,196,272031,0.0-1.0-272.0,0,0,10,,,,,,38.0,,1.0,,,,,,,,,,,,,,,,,,,,218.5,1.0,,
197,,feedback,,html-keyboard-response,197,273036,0.0-1.0-273.0-0.0,0,0,10,,,,,,38.0,,1.0,,,,,,,,,,,,,,,,,,,,219.5,1.0,,
198,,iti,,html-keyboard-response,198,276039,0.0-1.0-274.0,0,0,10,,,,,,38.0,,1.0,,,,,,,,,,,,,,,,,,,,220.5,3.0,,
199,,rl_choice,,html-keyboard-response,199,276569,0.0-1.0-276.0,0,0,10,,529.0,,,51.0,39.0,39.0,1.0,easy,3000.0,3000.0,1.0,80.0,20.0,100.0,0.0,D,C,/static/Simple_RL/Stimuli/Fractals_stims/D.jpg,/static/Simple_RL/Stimuli/Fractals_stims/C.jpg,0.0,20.0,80.0,0.0,100.0,C,D,223.5,0.529,0.0,
200,,rl_choice_confirmation,,html-keyboard-response,200,277543,0.0-1.0-277.0-0.0,0,0,10,,,,,,39.0,,1.0,,,,,,,,,,,,,,,,,,,,224.029,0.971,,
201,,isi,,html-keyboard-response,201,280546,0.0-1.0-279.0,0,0,10,,,,,,39.0,,1.0,,,,,,,,,,,,,,,,,,,,225.0,3.0,,
202,,feedback,,html-keyboard-response,202,281552,0.0-1.0-280.0-0.0,0,0,10,,,,,,39.0,,1.0,,,,,,,,,,,,,,,,,,,,228.0,1.0,,
203,,iti,,html-keyboard-response,203,284556,0.0-1.0-281.0,0,0,10,,,,,,39.0,,1.0,,,,,,,,,,,,,,,,,,,,229.0,3.0,,
204,,block_over,,html-keyboard-response,204,299844,0.0-1.0-282.0-0.0,0,0,10,,15287.0,,,83.0,39.0,,,,,,,,,,,,,,,,,,,,,,,,,
205,,start_run,,html-keyboard-response,205,301686,0.0-1.0-282.0-1.0,0,0,10,,1841.0,,,84.0,,,,,,,,,,,,,,,,,,,,,,,,,,
206,,rl_choice,,html-keyboard-response,206,302209,0.0-1.0-283.0,0,0,10,,521.0,,,50.0,40.0,40.0,2.0,hard,2000.0,1000.0,1.0,60.0,40.0,80.0,40.0,B,A,/static/Simple_RL/Stimuli/Fractals_stims/B.jpg,/static/Simple_RL/Stimuli/Fractals_stims/A.jpg,1.0,60.0,40.0,80.0,40.0,B,A,0.0,0.521,0.0,
207,,rl_choice_confirmation,,html-keyboard-response,207,303191,0.0-1.0-284.0-0.0,0,0,10,,,,,,40.0,,2.0,,,,,,,,,,,,,,,,,,,,0.521,0.979,,
208,,isi,,html-keyboard-response,208,304194,0.0-1.0-286.0,0,0,10,,,,,,40.0,,2.0,,,,,,,,,,,,,,,,,,,,1.5,1.0,,
209,,feedback,,html-keyboard-response,209,305196,0.0-1.0-287.0-0.0,0,0,10,,,,,,40.0,,2.0,,,,,,,,,,,,,,,,,,,,2.5,1.0,,
210,,iti,,html-keyboard-response,210,307197,0.0-1.0-288.0,0,0,10,,,,,,40.0,,2.0,,,,,,,,,,,,,,,,,,,,3.5,2.0,,
211,,rl_choice,,html-keyboard-response,211,307565,0.0-1.0-290.0,0,0,10,,368.0,,,51.0,41.0,41.0,2.0,easy,1000.0,2000.0,0.0,20.0,80.0,20.0,80.0,C,D,/static/Simple_RL/Stimuli/Fractals_stims/C.jpg,/static/Simple_RL/Stimuli/Fractals_stims/D.jpg,0.0,80.0,20.0,80.0,20.0,D,C,5.5,0.368,0.0,
212,,rl_choice_confirmation,,html-keyboard-response,212,308700,0.0-1.0-291.0-0.0,0,0,10,,,,,,41.0,,2.0,,,,,,,,,,,,,,,,,,,,5.868,1.132,,
213,,isi,,html-keyboard-response,213,310706,0.0-1.0-293.0,0,0,10,,,,,,41.0,,2.0,,,,,,,,,,,,,,,,,,,,7.0,2.0,,
214,,feedback,,html-keyboard-response,214,311709,0.0-1.0-294.0-0.0,0,0,10,,,,,,41.0,,2.0,,,,,,,,,,,,,,,,,,,,9.0,1.0,,
215,,iti,,html-keyboard-response,215,312713,0.0-1.0-295.0,0,0,10,,,,,,41.0,,2.0,,,,,,,,,,,,,,,,,,,,10.0,1.0,,
216,,rl_choice,,html-keyboard-response,216,313127,0.0-1.0-297.0,0,0,10,,413.0,,,50.0,42.0,42.0,2.0,easy,3500.0,2000.0,1.0,80.0,20.0,100.0,20.0,D,C,/static/Simple_RL/Stimuli/Fractals_stims/D.jpg,/static/Simple_RL/Stimuli/Fractals_stims/C.jpg,1.0,80.0,20.0,100.0,20.0,D,C,11.0,0.413,0.0,
217,,rl_choice_confirmation,,html-keyboard-response,217,314217,0.0-1.0-298.0-0.0,0,0,10,,,,,,42.0,,2.0,,,,,,,,,,,,,,,,,,,,11.413,1.087,,
218,,isi,,html-keyboard-response,218,316220,0.0-1.0-300.0,0,0,10,,,,,,42.0,,2.0,,,,,,,,,,,,,,,,,,,,12.5,2.0,,
219,,feedback,,html-keyboard-response,219,317223,0.0-1.0-301.0-0.0,0,0,10,,,,,,42.0,,2.0,,,,,,,,,,,,,,,,,,,,14.5,1.0,,
220,,iti,,html-keyboard-response,220,320727,0.0-1.0-302.0,0,0,10,,,,,,42.0,,2.0,,,,,,,,,,,,,,,,,,,,15.5,3.5,,
221,,rl_choice,,html-keyboard-response,221,321196,0.0-1.0-304.0,0,0,10,,468.0,,,51.0,43.0,43.0,2.0,easy,2000.0,1000.0,0.0,20.0,80.0,20.0,80.0,C,D,/static/Simple_RL/Stimuli/Fractals_stims/C.jpg,/static/Simple_RL/Stimuli/Fractals_stims/D.jpg,0.0,80.0,20.0,80.0,20.0,D,C,19.0,0.468,0.0,
222,,rl_choice_confirmation,,html-keyboard-response,222,322231,0.0-1.0-305.0-0.0,0,0,10,,,,,,43.0,,2.0,,,,,,,,,,,,,,,,,,,,19.468,1.032,,
223,,isi,,html-keyboard-response,223,323233,0.0-1.0-307.0,0,0,10,,,,,,43.0,,2.0,,,,,,,,,,,,,,,,,,,,20.5,1.0,,
224,,feedback,,html-keyboard-response,224,324237,0.0-1.0-308.0-0.0,0,0,10,,,,,,43.0,,2.0,,,,,,,,,,,,,,,,,,,,21.5,1.0,,
225,,iti,,html-keyboard-response,225,326242,0.0-1.0-309.0,0,0,10,,,,,,43.0,,2.0,,,,,,,,,,,,,,,,,,,,22.5,2.0,,
226,,rl_choice,,html-keyboard-response,226,326661,0.0-1.0-311.0,0,0,10,,417.0,,,50.0,44.0,44.0,2.0,easy,2000.0,1000.0,0.0,20.0,80.0,40.0,80.0,C,D,/static/Simple_RL/Stimuli/Fractals_stims/C.jpg,/static/Simple_RL/Stimuli/Fractals_stims/D.jpg,1.0,20.0,80.0,40.0,80.0,C,D,24.5,0.417,0.0,
227,,rl_choice_confirmation,,html-keyboard-response,227,327748,0.0-1.0-312.0-0.0,0,0,10,,,,,,44.0,,2.0,,,,,,,,,,,,,,,,,,,,24.917,1.083,,
228,,isi,,html-keyboard-response,228,328751,0.0-1.0-314.0,0,0,10,,,,,,44.0,,2.0,,,,,,,,,,,,,,,,,,,,26.0,1.0,,
229,,feedback,,html-keyboard-response,229,329757,0.0-1.0-315.0-0.0,0,0,10,,,,,,44.0,,2.0,,,,,,,,,,,,,,,,,,,,27.0,1.0,,
230,,iti,,html-keyboard-response,230,331762,0.0-1.0-316.0,0,0,10,,,,,,44.0,,2.0,,,,,,,,,,,,,,,,,,,,28.0,2.0,,
231,,rl_choice,,html-keyboard-response,231,332121,0.0-1.0-318.0,0,0,10,,358.0,,,51.0,45.0,45.0,2.0,easy,1000.0,1000.0,1.0,80.0,20.0,100.0,20.0,D,C,/static/Simple_RL/Stimuli/Fractals_stims/D.jpg,/static/Simple_RL/Stimuli/Fractals_stims/C.jpg,0.0,20.0,80.0,20.0,100.0,C,D,30.0,0.358,0.0,
232,,rl_choice_confirmation,,html-keyboard-response,232,333266,0.0-1.0-319.0-0.0,0,0,10,,,,,,45.0,,2.0,,,,,,,,,,,,,,,,,,,,30.358,1.142,,
233,,isi,,html-keyboard-response,233,334269,0.0-1.0-321.0,0,0,10,,,,,,45.0,,2.0,,,,,,,,,,,,,,,,,,,,31.5,1.0,,
234,,feedback,,html-keyboard-response,234,335271,0.0-1.0-322.0-0.0,0,0,10,,,,,,45.0,,2.0,,,,,,,,,,,,,,,,,,,,32.5,1.0,,
235,,iti,,html-keyboard-response,235,336277,0.0-1.0-323.0,0,0,10,,,,,,45.0,,2.0,,,,,,,,,,,,,,,,,,,,33.5,1.0,,
236,,rl_choice,,html-keyboard-response,236,336748,0.0-1.0-325.0,0,0,10,,470.0,,,51.0,46.0,46.0,2.0,easy,1000.0,1500.0,0.0,20.0,80.0,40.0,80.0,C,D,/static/Simple_RL/Stimuli/Fractals_stims/C.jpg,/static/Simple_RL/Stimuli/Fractals_stims/D.jpg,0.0,80.0,20.0,80.0,40.0,D,C,34.5,0.47,0.0,
237,,rl_choice_confirmation,,html-keyboard-response,237,337779,0.0-1.0-326.0-0.0,0,0,10,,,,,,46.0,,2.0,,,,,,,,,,,,,,,,,,,,34.97,1.03,,
238,,isi,,html-keyboard-response,238,339282,0.0-1.0-328.0,0,0,10,,,,,,46.0,,2.0,,,,,,,,,,,,,,,,,,,,36.0,1.5,,
239,,feedback,,html-keyboard-response,239,340285,0.0-1.0-329.0-0.0,0,0,10,,,,,,46.0,,2.0,,,,,,,,,,,,,,,,,,,,37.5,1.0,,
240,,iti,,html-keyboard-response,240,341287,0.0-1.0-330.0,0,0,10,,,,,,46.0,,2.0,,,,,,,,,,,,,,,,,,,,38.5,1.0,,
241,,rl_choice,,html-keyboard-response,241,341729,0.0-1.0-332.0,0,0,10,,441.0,,,50.0,47.0,47.0,2.0,easy,1000.0,3000.0,0.0,20.0,80.0,0.0,100.0,C,D,/static/Simple_RL/Stimuli/Fractals_stims/C.jpg,/static/Simple_RL/Stimuli/Fractals_stims/D.jpg,1.0,20.0,80.0,0.0,100.0,C,D,39.5,0.441,0.0,
242,,rl_choice_confirmation,,html-keyboard-response,242,342792,0.0-1.0-333.0-0.0,0,0,10,,,,,,47.0,,2.0,,,,,,,,,,,,,,,,,,,,39.941,1.059,,
243,,isi,,html-keyboard-response,243,345796,0.0-1.0-335.0,0,0,10,,,,,,47.0,,2.0,,,,,,,,,,,,,,,,,,,,41.0,3.0,,
244,,feedback,,html-keyboard-response,244,346797,0.0-1.0-336.0-0.0,0,0,10,,,,,,47.0,,2.0,,,,,,,,,,,,,,,,,,,,44.0,1.0,,
245,,iti,,html-keyboard-response,245,347801,0.0-1.0-337.0,0,0,10,,,,,,47.0,,2.0,,,,,,,,,,,,,,,,,,,,45.0,1.0,,
246,,rl_choice,,html-keyboard-response,246,348239,0.0-1.0-339.0,0,0,10,,436.0,,,51.0,48.0,48.0,2.0,hard,1000.0,1000.0,0.0,40.0,60.0,60.0,60.0,A,B,/static/Simple_RL/Stimuli/Fractals_stims/A.jpg,/static/Simple_RL/Stimuli/Fractals_stims/B.jpg,0.0,60.0,40.0,60.0,60.0,B,A,46.0,0.436,0.0,
247,,rl_choice_confirmation,,html-keyboard-response,247,349308,0.0-1.0-340.0-0.0,0,0,10,,,,,,48.0,,2.0,,,,,,,,,,,,,,,,,,,,46.436,1.064,,
248,,isi,,html-keyboard-response,248,350312,0.0-1.0-342.0,0,0,10,,,,,,48.0,,2.0,,,,,,,,,,,,,,,,,,,,47.5,1.0,,
249,,feedback,,html-keyboard-response,249,351314,0.0-1.0-343.0-0.0,0,0,10,,,,,,48.0,,2.0,,,,,,,,,,,,,,,,,,,,48.5,1.0,,
250,,iti,,html-keyboard-response,250,352317,0.0-1.0-344.0,0,0,10,,,,,,48.0,,2.0,,,,,,,,,,,,,,,,,,,,49.5,1.0,,
251,,rl_choice,,html-keyboard-response,251,352792,0.0-1.0-346.0,0,0,10,,474.0,,,50.0,49.0,49.0,2.0,easy,1500.0,2000.0,0.0,20.0,80.0,40.0,60.0,C,D,/static/Simple_RL/Stimuli/Fractals_stims/C.jpg,/static/Simple_RL/Stimuli/Fractals_stims/D.jpg,1.0,20.0,80.0,40.0,60.0,C,D,50.5,0.474,0.0,
252,,rl_choice_confirmation,,html-keyboard-response,252,353820,0.0-1.0-347.0-0.0,0,0,10,,,,,,49.0,,2.0,,,,,,,,,,,,,,,,,,,,50.974,1.026,,
253,,isi,,html-keyboard-response,253,355825,0.0-1.0-349.0,0,0,10,,,,,,49.0,,2.0,,,,,,,,,,,,,,,,,,,,52.0,2.0,,
254,,feedback,,html-keyboard-response,254,356830,0.0-1.0-350.0-0.0,0,0,10,,,,,,49.0,,2.0,,,,,,,,,,,,,,,,,,,,54.0,1.0,,
255,,iti,,html-keyboard-response,255,358333,0.0-1.0-351.0,0,0,10,,,,,,49.0,,2.0,,,,,,,,,,,,,,,,,,,,55.0,1.5,,
256,,rl_choice,,html-keyboard-response,256,358793,0.0-1.0-353.0,0,0,10,,459.0,,,51.0,50.0,50.0,2.0,easy,1000.0,1000.0,1.0,80.0,20.0,80.0,0.0,D,C,/static/Simple_RL/Stimuli/Fractals_stims/D.jpg,/static/Simple_RL/Stimuli/Fractals_stims/C.jpg,0.0,20.0,80.0,0.0,80.0,C,D,56.5,0.459,0.0,
257,,rl_choice_confirmation,,html-keyboard-response,257,359837,0.0-1.0-354.0-0.0,0,0,10,,,,,,50.0,,2.0,,,,,,,,,,,,,,,,,,,,56.959,1.041,,
258,,isi,,html-keyboard-response,258,360840,0.0-1.0-356.0,0,0,10,,,,,,50.0,,2.0,,,,,,,,,,,,,,,,,,,,58.0,1.0,,
259,,feedback,,html-keyboard-response,259,361842,0.0-1.0-357.0-0.0,0,0,10,,,,,,50.0,,2.0,,,,,,,,,,,,,,,,,,,,59.0,1.0,,
260,,iti,,html-keyboard-response,260,362845,0.0-1.0-358.0,0,0,10,,,,,,50.0,,2.0,,,,,,,,,,,,,,,,,,,,60.0,1.0,,
261,,rl_choice,,html-keyboard-response,261,363242,0.0-1.0-360.0,0,0,10,,396.0,,,50.0,51.0,51.0,2.0,easy,3000.0,1500.0,0.0,20.0,80.0,20.0,80.0,C,D,/static/Simple_RL/Stimuli/Fractals_stims/C.jpg,/static/Simple_RL/Stimuli/Fractals_stims/D.jpg,1.0,20.0,80.0,20.0,80.0,C,D,61.0,0.396,0.0,
262,,rl_choice_confirmation,,html-keyboard-response,262,364349,0.0-1.0-361.0-0.0,0,0,10,,,,,,51.0,,2.0,,,,,,,,,,,,,,,,,,,,61.396,1.104,,
263,,isi,,html-keyboard-response,263,365853,0.0-1.0-363.0,0,0,10,,,,,,51.0,,2.0,,,,,,,,,,,,,,,,,,,,62.5,1.5,,
264,,feedback,,html-keyboard-response,264,366858,0.0-1.0-364.0-0.0,0,0,10,,,,,,51.0,,2.0,,,,,,,,,,,,,,,,,,,,64.0,1.0,,
265,,iti,,html-keyboard-response,265,369863,0.0-1.0-365.0,0,0,10,,,,,,51.0,,2.0,,,,,,,,,,,,,,,,,,,,65.0,3.0,,
266,,rl_choice,,html-keyboard-response,266,370266,0.0-1.0-367.0,0,0,10,,401.0,,,51.0,52.0,52.0,2.0,hard,1000.0,1000.0,0.0,40.0,60.0,40.0,40.0,A,B,/static/Simple_RL/Stimuli/Fractals_stims/A.jpg,/static/Simple_RL/Stimuli/Fractals_stims/B.jpg,0.0,60.0,40.0,40.0,40.0,B,A,68.0,0.401,0.0,
267,,rl_choice_confirmation,,html-keyboard-response,267,371368,0.0-1.0-368.0-0.0,0,0,10,,,,,,52.0,,2.0,,,,,,,,,,,,,,,,,,,,68.401,1.099,,
268,,isi,,html-keyboard-response,268,372372,0.0-1.0-370.0,0,0,10,,,,,,52.0,,2.0,,,,,,,,,,,,,,,,,,,,69.5,1.0,,
269,,feedback,,html-keyboard-response,269,373378,0.0-1.0-371.0-0.0,0,0,10,,,,,,52.0,,2.0,,,,,,,,,,,,,,,,,,,,70.5,1.0,,
270,,iti,,html-keyboard-response,270,374381,0.0-1.0-372.0,0,0,10,,,,,,52.0,,2.0,,,,,,,,,,,,,,,,,,,,71.5,1.0,,
271,,rl_choice,,html-keyboard-response,271,374886,0.0-1.0-374.0,0,0,10,,503.0,,,51.0,53.0,53.0,2.0,hard,3000.0,1500.0,0.0,40.0,60.0,40.0,40.0,A,B,/static/Simple_RL/Stimuli/Fractals_stims/A.jpg,/static/Simple_RL/Stimuli/Fractals_stims/B.jpg,0.0,60.0,40.0,40.0,40.0,B,A,72.5,0.503,0.0,
272,,rl_choice_confirmation,,html-keyboard-response,272,375885,0.0-1.0-375.0-0.0,0,0,10,,,,,,53.0,,2.0,,,,,,,,,,,,,,,,,,,,73.003,0.997,,
273,,isi,,html-keyboard-response,273,377389,0.0-1.0-377.0,0,0,10,,,,,,53.0,,2.0,,,,,,,,,,,,,,,,,,,,74.0,1.5,,
274,,feedback,,html-keyboard-response,274,378396,0.0-1.0-378.0-0.0,0,0,10,,,,,,53.0,,2.0,,,,,,,,,,,,,,,,,,,,75.5,1.0,,
275,,iti,,html-keyboard-response,275,381400,0.0-1.0-379.0,0,0,10,,,,,,53.0,,2.0,,,,,,,,,,,,,,,,,,,,76.5,3.0,,
276,,rl_choice,,html-keyboard-response,276,381783,0.0-1.0-381.0,0,0,10,,382.0,,,51.0,54.0,54.0,2.0,hard,1500.0,1500.0,0.0,40.0,60.0,20.0,80.0,A,B,/static/Simple_RL/Stimuli/Fractals_stims/A.jpg,/static/Simple_RL/Stimuli/Fractals_stims/B.jpg,0.0,60.0,40.0,80.0,20.0,B,A,79.5,0.382,0.0,
277,,rl_choice_confirmation,,html-keyboard-response,277,382903,0.0-1.0-382.0-0.0,0,0,10,,,,,,54.0,,2.0,,,,,,,,,,,,,,,,,,,,79.882,1.118,,
278,,isi,,html-keyboard-response,278,384408,0.0-1.0-384.0,0,0,10,,,,,,54.0,,2.0,,,,,,,,,,,,,,,,,,,,81.0,1.5,,
279,,feedback,,html-keyboard-response,279,385411,0.0-1.0-385.0-0.0,0,0,10,,,,,,54.0,,2.0,,,,,,,,,,,,,,,,,,,,82.5,1.0,,
280,,iti,,html-keyboard-response,280,386914,0.0-1.0-386.0,0,0,10,,,,,,54.0,,2.0,,,,,,,,,,,,,,,,,,,,83.5,1.5,,
281,,rl_choice,,html-keyboard-response,281,387296,0.0-1.0-388.0,0,0,10,,380.0,,,51.0,55.0,55.0,2.0,easy,1500.0,1500.0,1.0,80.0,20.0,80.0,0.0,D,C,/static/Simple_RL/Stimuli/Fractals_stims/D.jpg,/static/Simple_RL/Stimuli/Fractals_stims/C.jpg,0.0,20.0,80.0,0.0,80.0,C,D,85.0,0.38,0.0,
282,,rl_choice_confirmation,,html-keyboard-response,282,388419,0.0-1.0-389.0-0.0,0,0,10,,,,,,55.0,,2.0,,,,,,,,,,,,,,,,,,,,85.38,1.12,,
283,,isi,,html-keyboard-response,283,389919,0.0-1.0-391.0,0,0,10,,,,,,55.0,,2.0,,,,,,,,,,,,,,,,,,,,86.5,1.5,,
284,,feedback,,html-keyboard-response,284,390920,0.0-1.0-392.0-0.0,0,0,10,,,,,,55.0,,2.0,,,,,,,,,,,,,,,,,,,,88.0,1.0,,
285,,iti,,html-keyboard-response,285,392425,0.0-1.0-393.0,0,0,10,,,,,,55.0,,2.0,,,,,,,,,,,,,,,,,,,,89.0,1.5,,
286,,rl_choice,,html-keyboard-response,286,393930,0.0-1.0-395.0,0,0,10,,,,,,56.0,56.0,2.0,hard,1500.0,2000.0,1.0,60.0,40.0,60.0,60.0,B,A,/static/Simple_RL/Stimuli/Fractals_stims/B.jpg,/static/Simple_RL/Stimuli/Fractals_stims/A.jpg,,,,,,,,90.5,1.5,1.0,
287,,rl_choice_warning,,html-keyboard-response,287,394936,0.0-1.0-397.0-0.0,1,0,10,,,,,,56.0,,2.0,,,,,,,,,,,,,,,,,,,,92.0,1.0,,
288,,isi,,html-keyboard-response,288,396944,0.0-1.0-398.0,0,0,10,,,,,,56.0,,2.0,,,,,,,,,,,,,,,,,,,,93.0,2.0,,
289,,iti,,html-keyboard-response,289,398445,0.0-1.0-400.0,0,0,10,,,,,,56.0,,2.0,,,,,,,,,,,,,,,,,,,,95.0,1.5,,
290,,rl_choice,,html-keyboard-response,290,398978,0.0-1.0-402.0,0,0,10,,532.0,,,51.0,57.0,57.0,2.0,hard,1500.0,2000.0,1.0,60.0,40.0,60.0,60.0,B,A,/static/Simple_RL/Stimuli/Fractals_stims/B.jpg,/static/Simple_RL/Stimuli/Fractals_stims/A.jpg,0.0,40.0,60.0,60.0,60.0,A,B,96.5,0.532,0.0,
291,,rl_choice_confirmation,,html-keyboard-response,291,399950,0.0-1.0-403.0-0.0,0,0,10,,,,,,57.0,,2.0,,,,,,,,,,,,,,,,,,,,97.032,0.968,,
292,,isi,,html-keyboard-response,292,401954,0.0-1.0-405.0,0,0,10,,,,,,57.0,,2.0,,,,,,,,,,,,,,,,,,,,98.0,2.0,,
293,,feedback,,html-keyboard-response,293,402958,0.0-1.0-406.0-0.0,0,0,10,,,,,,57.0,,2.0,,,,,,,,,,,,,,,,,,,,100.0,1.0,,
294,,iti,,html-keyboard-response,294,404460,0.0-1.0-407.0,0,0,10,,,,,,57.0,,2.0,,,,,,,,,,,,,,,,,,,,101.0,1.5,,
295,,rl_choice,,html-keyboard-response,295,405966,0.0-1.0-409.0,0,0,10,,,,,,58.0,58.0,2.0,easy,1000.0,2000.0,0.0,20.0,80.0,0.0,60.0,C,D,/static/Simple_RL/Stimuli/Fractals_stims/C.jpg,/static/Simple_RL/Stimuli/Fractals_stims/D.jpg,,,,,,,,102.5,1.5,1.0,
296,,rl_choice_warning,,html-keyboard-response,296,406971,0.0-1.0-411.0-0.0,1,0,10,,,,,,58.0,,2.0,,,,,,,,,,,,,,,,,,,,104.0,1.0,,
297,,isi,,html-keyboard-response,297,408974,0.0-1.0-412.0,0,0,10,,,,,,58.0,,2.0,,,,,,,,,,,,,,,,,,,,105.0,2.0,,
298,,iti,,html-keyboard-response,298,409975,0.0-1.0-414.0,0,0,10,,,,,,58.0,,2.0,,,,,,,,,,,,,,,,,,,,107.0,1.0,,
299,,rl_choice,,html-keyboard-response,299,410296,0.0-1.0-416.0,0,0,10,,320.0,,,51.0,59.0,59.0,2.0,easy,1000.0,1000.0,1.0,80.0,20.0,80.0,0.0,D,C,/static/Simple_RL/Stimuli/Fractals_stims/D.jpg,/static/Simple_RL/Stimuli/Fractals_stims/C.jpg,0.0,20.0,80.0,0.0,80.0,C,D,108.0,0.32,0.0,
300,,rl_choice_confirmation,,html-keyboard-response,300,411480,0.0-1.0-417.0-0.0,0,0,10,,,,,,59.0,,2.0,,,,,,,,,,,,,,,,,,,,108.32,1.18,,
301,,isi,,html-keyboard-response,301,412483,0.0-1.0-419.0,0,0,10,,,,,,59.0,,2.0,,,,,,,,,,,,,,,,,,,,109.5,1.0,,
302,,feedback,,html-keyboard-response,302,413486,0.0-1.0-420.0-0.0,0,0,10,,,,,,59.0,,2.0,,,,,,,,,,,,,,,,,,,,110.5,1.0,,
303,,iti,,html-keyboard-response,303,414491,0.0-1.0-421.0,0,0,10,,,,,,59.0,,2.0,,,,,,,,,,,,,,,,,,,,111.5,1.0,,
304,,rl_choice,,html-keyboard-response,304,414858,0.0-1.0-423.0,0,0,10,,366.0,,,51.0,60.0,60.0,2.0,easy,3000.0,1500.0,1.0,80.0,20.0,80.0,20.0,D,C,/static/Simple_RL/Stimuli/Fractals_stims/D.jpg,/static/Simple_RL/Stimuli/Fractals_stims/C.jpg,0.0,20.0,80.0,20.0,80.0,C,D,112.5,0.366,0.0,
305,,rl_choice_confirmation,,html-keyboard-response,305,415994,0.0-1.0-424.0-0.0,0,0,10,,,,,,60.0,,2.0,,,,,,,,,,,,,,,,,,,,112.866,1.134,,
306,,isi,,html-keyboard-response,306,417496,0.0-1.0-426.0,0,0,10,,,,,,60.0,,2.0,,,,,,,,,,,,,,,,,,,,114.0,1.5,,
307,,feedback,,html-keyboard-response,307,418499,0.0-1.0-427.0-0.0,0,0,10,,,,,,60.0,,2.0,,,,,,,,,,,,,,,,,,,,115.5,1.0,,
308,,iti,,html-keyboard-response,308,421501,0.0-1.0-428.0,0,0,10,,,,,,60.0,,2.0,,,,,,,,,,,,,,,,,,,,116.5,3.0,,
309,,rl_choice,,html-keyboard-response,309,421835,0.0-1.0-430.0,0,0,10,,333.0,,,51.0,61.0,61.0,2.0,hard,2000.0,1500.0,1.0,60.0,40.0,60.0,40.0,B,A,/static/Simple_RL/Stimuli/Fractals_stims/B.jpg,/static/Simple_RL/Stimuli/Fractals_stims/A.jpg,0.0,40.0,60.0,40.0,60.0,A,B,119.5,0.333,0.0,
310,,rl_choice_confirmation,,html-keyboard-response,310,423006,0.0-1.0-431.0-0.0,0,0,10,,,,,,61.0,,2.0,,,,,,,,,,,,,,,,,,,,119.833,1.167,,
311,,isi,,html-keyboard-response,311,424509,0.0-1.0-433.0,0,0,10,,,,,,61.0,,2.0,,,,,,,,,,,,,,,,,,,,121.0,1.5,,
312,,feedback,,html-keyboard-response,312,425512,0.0-1.0-434.0-0.0,0,0,10,,,,,,61.0,,2.0,,,,,,,,,,,,,,,,,,,,122.5,1.0,,
313,,iti,,html-keyboard-response,313,427517,0.0-1.0-435.0,0,0,10,,,,,,61.0,,2.0,,,,,,,,,,,,,,,,,,,,123.5,2.0,,
314,,rl_choice,,html-keyboard-response,314,429022,0.0-1.0-437.0,0,0,10,,,,,,62.0,62.0,2.0,easy,1500.0,3000.0,1.0,80.0,20.0,60.0,40.0,D,C,/static/Simple_RL/Stimuli/Fractals_stims/D.jpg,/static/Simple_RL/Stimuli/Fractals_stims/C.jpg,,,,,,,,125.5,1.5,1.0,
315,,rl_choice_warning,,html-keyboard-response,315,430025,0.0-1.0-439.0-0.0,1,0,10,,,,,,62.0,,2.0,,,,,,,,,,,,,,,,,,,,127.0,1.0,,
316,,isi,,html-keyboard-response,316,433027,0.0-1.0-440.0,0,0,10,,,,,,62.0,,2.0,,,,,,,,,,,,,,,,,,,,128.0,3.0,,
317,,iti,,html-keyboard-response,317,434531,0.0-1.0-442.0,0,0,10,,,,,,62.0,,2.0,,,,,,,,,,,,,,,,,,,,131.0,1.5,,
318,,rl_choice,,html-keyboard-response,318,435044,0.0-1.0-444.0,0,0,10,,512.0,,,51.0,63.0,63.0,2.0,hard,3000.0,3000.0,0.0,40.0,60.0,60.0,80.0,A,B,/static/Simple_RL/Stimuli/Fractals_stims/A.jpg,/static/Simple_RL/Stimuli/Fractals_stims/B.jpg,0.0,60.0,40.0,80.0,60.0,B,A,132.5,0.512,0.0,
319,,rl_choice_confirmation,,html-keyboard-response,319,436035,0.0-1.0-445.0-0.0,0,0,10,,,,,,63.0,,2.0,,,,,,,,,,,,,,,,,,,,133.012,0.988,,
320,,isi,,html-keyboard-response,320,439037,0.0-1.0-447.0,0,0,10,,,,,,63.0,,2.0,,,,,,,,,,,,,,,,,,,,134.0,3.0,,
321,,feedback,,html-keyboard-response,321,440040,0.0-1.0-448.0-0.0,0,0,10,,,,,,63.0,,2.0,,,,,,,,,,,,,,,,,,,,137.0,1.0,,
322,,iti,,html-keyboard-response,322,443043,0.0-1.0-449.0,0,0,10,,,,,,63.0,,2.0,,,,,,,,,,,,,,,,,,,,138.0,3.0,,
323,,rl_choice,,html-keyboard-response,323,444548,0.0-1.0-451.0,0,0,10,,,,,,64.0,64.0,2.0,easy,2000.0,3500.0,1.0,80.0,20.0,60.0,0.0,D,C,/static/Simple_RL/Stimuli/Fractals_stims/D.jpg,/static/Simple_RL/Stimuli/Fractals_stims/C.jpg,,,,,,,,141.0,1.5,1.0,
324,,rl_choice_warning,,html-keyboard-response,324,445550,0.0-1.0-453.0-0.0,1,0,10,,,,,,64.0,,2.0,,,,,,,,,,,,,,,,,,,,142.5,1.0,,
325,,isi,,html-keyboard-response,325,449054,0.0-1.0-454.0,0,0,10,,,,,,64.0,,2.0,,,,,,,,,,,,,,,,,,,,143.5,3.5,,
326,,iti,,html-keyboard-response,326,451059,0.0-1.0-456.0,0,0,10,,,,,,64.0,,2.0,,,,,,,,,,,,,,,,,,,,147.0,2.0,,
327,,rl_choice,,html-keyboard-response,327,452565,0.0-1.0-458.0,0,0,10,,,,,,65.0,65.0,2.0,hard,1000.0,3000.0,0.0,40.0,60.0,40.0,40.0,A,B,/static/Simple_RL/Stimuli/Fractals_stims/A.jpg,/static/Simple_RL/Stimuli/Fractals_stims/B.jpg,,,,,,,,149.0,1.5,1.0,
328,,rl_choice_warning,,html-keyboard-response,328,453566,0.0-1.0-460.0-0.0,1,0,10,,,,,,65.0,,2.0,,,,,,,,,,,,,,,,,,,,150.5,1.0,,
329,,isi,,html-keyboard-response,329,456569,0.0-1.0-461.0,0,0,10,,,,,,65.0,,2.0,,,,,,,,,,,,,,,,,,,,151.5,3.0,,
330,,iti,,html-keyboard-response,330,457571,0.0-1.0-463.0,0,0,10,,,,,,65.0,,2.0,,,,,,,,,,,,,,,,,,,,154.5,1.0,,
331,,rl_choice,,html-keyboard-response,331,457947,0.0-1.0-465.0,0,0,10,,375.0,,,51.0,66.0,66.0,2.0,hard,1000.0,1000.0,1.0,60.0,40.0,80.0,60.0,B,A,/static/Simple_RL/Stimuli/Fractals_stims/B.jpg,/static/Simple_RL/Stimuli/Fractals_stims/A.jpg,0.0,40.0,60.0,60.0,80.0,A,B,155.5,0.375,0.0,
332,,rl_choice_confirmation,,html-keyboard-response,332,459075,0.0-1.0-466.0-0.0,0,0,10,,,,,,66.0,,2.0,,,,,,,,,,,,,,,,,,,,155.875,1.125,,
333,,isi,,html-keyboard-response,333,460077,0.0-1.0-468.0,0,0,10,,,,,,66.0,,2.0,,,,,,,,,,,,,,,,,,,,157.0,1.0,,
334,,feedback,,html-keyboard-response,334,461082,0.0-1.0-469.0-0.0,0,0,10,,,,,,66.0,,2.0,,,,,,,,,,,,,,,,,,,,158.0,1.0,,
335,,iti,,html-keyboard-response,335,462086,0.0-1.0-470.0,0,0,10,,,,,,66.0,,2.0,,,,,,,,,,,,,,,,,,,,159.0,1.0,,
336,,rl_choice,,html-keyboard-response,336,462888,0.0-1.0-472.0,0,0,10,,801.0,,,51.0,67.0,67.0,2.0,hard,1000.0,1000.0,0.0,40.0,60.0,40.0,80.0,A,B,/static/Simple_RL/Stimuli/Fractals_stims/A.jpg,/static/Simple_RL/Stimuli/Fractals_stims/B.jpg,0.0,60.0,40.0,80.0,40.0,B,A,160.0,0.801,0.0,
337,,rl_choice_confirmation,,html-keyboard-response,337,463592,0.0-1.0-473.0-0.0,0,0,10,,,,,,67.0,,2.0,,,,,,,,,,,,,,,,,,,,160.801,0.699,,
338,,isi,,html-keyboard-response,338,464595,0.0-1.0-475.0,0,0,10,,,,,,67.0,,2.0,,,,,,,,,,,,,,,,,,,,161.5,1.0,,
339,,feedback,,html-keyboard-response,339,465600,0.0-1.0-476.0-0.0,0,0,10,,,,,,67.0,,2.0,,,,,,,,,,,,,,,,,,,,162.5,1.0,,
340,,iti,,html-keyboard-response,340,466605,0.0-1.0-477.0,0,0,10,,,,,,67.0,,2.0,,,,,,,,,,,,,,,,,,,,163.5,1.0,,
341,,rl_choice,,html-keyboard-response,341,467925,0.0-1.0-479.0,0,0,10,,1319.0,,,51.0,68.0,68.0,2.0,easy,1500.0,1500.0,1.0,80.0,20.0,100.0,40.0,D,C,/static/Simple_RL/Stimuli/Fractals_stims/D.jpg,/static/Simple_RL/Stimuli/Fractals_stims/C.jpg,0.0,20.0,80.0,40.0,100.0,C,D,164.5,1.319,0.0,
342,,rl_choice_confirmation,,html-keyboard-response,342,468111,0.0-1.0-480.0-0.0,0,0,10,,,,,,68.0,,2.0,,,,,,,,,,,,,,,,,,,,165.819,0.181,,
343,,isi,,html-keyboard-response,343,469614,0.0-1.0-482.0,0,0,10,,,,,,68.0,,2.0,,,,,,,,,,,,,,,,,,,,166.0,1.5,,
344,,feedback,,html-keyboard-response,344,470616,0.0-1.0-483.0-0.0,0,0,10,,,,,,68.0,,2.0,,,,,,,,,,,,,,,,,,,,167.5,1.0,,
345,,iti,,html-keyboard-response,345,472120,0.0-1.0-484.0,0,0,10,,,,,,68.0,,2.0,,,,,,,,,,,,,,,,,,,,168.5,1.5,,
346,,rl_choice,,html-keyboard-response,346,473306,0.0-1.0-486.0,0,0,10,,1185.0,,,51.0,69.0,69.0,2.0,hard,2000.0,1000.0,0.0,40.0,60.0,60.0,60.0,A,B,/static/Simple_RL/Stimuli/Fractals_stims/A.jpg,/static/Simple_RL/Stimuli/Fractals_stims/B.jpg,0.0,60.0,40.0,60.0,60.0,B,A,170.0,1.185,0.0,
347,,rl_choice_confirmation,,html-keyboard-response,347,473623,0.0-1.0-487.0-0.0,0,0,10,,,,,,69.0,,2.0,,,,,,,,,,,,,,,,,,,,171.185,0.315,,
348,,isi,,html-keyboard-response,348,474627,0.0-1.0-489.0,0,0,10,,,,,,69.0,,2.0,,,,,,,,,,,,,,,,,,,,171.5,1.0,,
349,,feedback,,html-keyboard-response,349,475630,0.0-1.0-490.0-0.0,0,0,10,,,,,,69.0,,2.0,,,,,,,,,,,,,,,,,,,,172.5,1.0,,
350,,iti,,html-keyboard-response,350,477635,0.0-1.0-491.0,0,0,10,,,,,,69.0,,2.0,,,,,,,,,,,,,,,,,,,,173.5,2.0,,
351,,rl_choice,,html-keyboard-response,351,479139,0.0-1.0-493.0,0,0,10,,,,,,70.0,70.0,2.0,hard,1000.0,3500.0,1.0,60.0,40.0,80.0,20.0,B,A,/static/Simple_RL/Stimuli/Fractals_stims/B.jpg,/static/Simple_RL/Stimuli/Fractals_stims/A.jpg,,,,,,,,175.5,1.5,1.0,
352,,rl_choice_warning,,html-keyboard-response,352,480142,0.0-1.0-495.0-0.0,1,0,10,,,,,,70.0,,2.0,,,,,,,,,,,,,,,,,,,,177.0,1.0,,
353,,isi,,html-keyboard-response,353,483646,0.0-1.0-496.0,0,0,10,,,,,,70.0,,2.0,,,,,,,,,,,,,,,,,,,,178.0,3.5,,
354,,iti,,html-keyboard-response,354,484649,0.0-1.0-498.0,0,0,10,,,,,,70.0,,2.0,,,,,,,,,,,,,,,,,,,,181.5,1.0,,
355,,rl_choice,,html-keyboard-response,355,485176,0.0-1.0-500.0,0,0,10,,526.0,,,51.0,71.0,71.0,2.0,easy,2000.0,1000.0,1.0,80.0,20.0,100.0,20.0,D,C,/static/Simple_RL/Stimuli/Fractals_stims/D.jpg,/static/Simple_RL/Stimuli/Fractals_stims/C.jpg,0.0,20.0,80.0,20.0,100.0,C,D,182.5,0.526,0.0,
356,,rl_choice_confirmation,,html-keyboard-response,356,486152,0.0-1.0-501.0-0.0,0,0,10,,,,,,71.0,,2.0,,,,,,,,,,,,,,,,,,,,183.026,0.974,,
357,,isi,,html-keyboard-response,357,487155,0.0-1.0-503.0,0,0,10,,,,,,71.0,,2.0,,,,,,,,,,,,,,,,,,,,184.0,1.0,,
358,,feedback,,html-keyboard-response,358,488158,0.0-1.0-504.0-0.0,0,0,10,,,,,,71.0,,2.0,,,,,,,,,,,,,,,,,,,,185.0,1.0,,
359,,iti,,html-keyboard-response,359,490164,0.0-1.0-505.0,0,0,10,,,,,,71.0,,2.0,,,,,,,,,,,,,,,,,,,,186.0,2.0,,
360,,rl_choice,,html-keyboard-response,360,490511,0.0-1.0-507.0,0,0,10,,346.0,,,51.0,72.0,72.0,2.0,easy,1500.0,1000.0,0.0,20.0,80.0,20.0,80.0,C,D,/static/Simple_RL/Stimuli/Fractals_stims/C.jpg,/static/Simple_RL/Stimuli/Fractals_stims/D.jpg,0.0,80.0,20.0,80.0,20.0,D,C,188.0,0.346,0.0,
361,,rl_choice_confirmation,,html-keyboard-response,361,491667,0.0-1.0-508.0-0.0,0,0,10,,,,,,72.0,,2.0,,,,,,,,,,,,,,,,,,,,188.346,1.154,,
362,,isi,,html-keyboard-response,362,492670,0.0-1.0-510.0,0,0,10,,,,,,72.0,,2.0,,,,,,,,,,,,,,,,,,,,189.5,1.0,,
363,,feedback,,html-keyboard-response,363,493675,0.0-1.0-511.0-0.0,0,0,10,,,,,,72.0,,2.0,,,,,,,,,,,,,,,,,,,,190.5,1.0,,
364,,iti,,html-keyboard-response,364,495177,0.0-1.0-512.0,0,0,10,,,,,,72.0,,2.0,,,,,,,,,,,,,,,,,,,,191.5,1.5,,
365,,rl_choice,,html-keyboard-response,365,495614,0.0-1.0-514.0,0,0,10,,436.0,,,51.0,73.0,73.0,2.0,hard,1500.0,1500.0,0.0,40.0,60.0,40.0,80.0,A,B,/static/Simple_RL/Stimuli/Fractals_stims/A.jpg,/static/Simple_RL/Stimuli/Fractals_stims/B.jpg,0.0,60.0,40.0,80.0,40.0,B,A,193.0,0.436,0.0,
366,,rl_choice_confirmation,,html-keyboard-response,366,496685,0.0-1.0-515.0-0.0,0,0,10,,,,,,73.0,,2.0,,,,,,,,,,,,,,,,,,,,193.436,1.064,,
367,,isi,,html-keyboard-response,367,498190,0.0-1.0-517.0,0,0,10,,,,,,73.0,,2.0,,,,,,,,,,,,,,,,,,,,194.5,1.5,,
368,,feedback,,html-keyboard-response,368,499193,0.0-1.0-518.0-0.0,0,0,10,,,,,,73.0,,2.0,,,,,,,,,,,,,,,,,,,,196.0,1.0,,
369,,iti,,html-keyboard-response,369,500697,0.0-1.0-519.0,0,0,10,,,,,,73.0,,2.0,,,,,,,,,,,,,,,,,,,,197.0,1.5,,
370,,rl_choice,,html-keyboard-response,370,501092,0.0-1.0-521.0,0,0,10,,394.0,,,51.0,74.0,74.0,2.0,hard,2000.0,1000.0,1.0,60.0,40.0,80.0,40.0,B,A,/static/Simple_RL/Stimuli/Fractals_stims/B.jpg,/static/Simple_RL/Stimuli/Fractals_stims/A.jpg,0.0,40.0,60.0,40.0,80.0,A,B,198.5,0.394,0.0,
371,,rl_choice_confirmation,,html-keyboard-response,371,502201,0.0-1.0-522.0-0.0,0,0,10,,,,,,74.0,,2.0,,,,,,,,,,,,,,,,,,,,198.894,1.106,,
372,,isi,,html-keyboard-response,372,503204,0.0-1.0-524.0,0,0,10,,,,,,74.0,,2.0,,,,,,,,,,,,,,,,,,,,200.0,1.0,,
373,,feedback,,html-keyboard-response,373,504206,0.0-1.0-525.0-0.0,0,0,10,,,,,,74.0,,2.0,,,,,,,,,,,,,,,,,,,,201.0,1.0,,
374,,iti,,html-keyboard-response,374,506212,0.0-1.0-526.0,0,0,10,,,,,,74.0,,2.0,,,,,,,,,,,,,,,,,,,,202.0,2.0,,
375,,rl_choice,,html-keyboard-response,375,506636,0.0-1.0-528.0,0,0,10,,422.0,,,51.0,75.0,75.0,2.0,hard,1000.0,1500.0,1.0,60.0,40.0,80.0,40.0,B,A,/static/Simple_RL/Stimuli/Fractals_stims/B.jpg,/static/Simple_RL/Stimuli/Fractals_stims/A.jpg,0.0,40.0,60.0,40.0,80.0,A,B,204.0,0.422,0.0,
376,,rl_choice_confirmation,,html-keyboard-response,376,507721,0.0-1.0-529.0-0.0,0,0,10,,,,,,75.0,,2.0,,,,,,,,,,,,,,,,,,,,204.422,1.078,,
377,,isi,,html-keyboard-response,377,509225,0.0-1.0-531.0,0,0,10,,,,,,75.0,,2.0,,,,,,,,,,,,,,,,,,,,205.5,1.5,,
378,,feedback,,html-keyboard-response,378,510228,0.0-1.0-532.0-0.0,0,0,10,,,,,,75.0,,2.0,,,,,,,,,,,,,,,,,,,,207.0,1.0,,
379,,iti,,html-keyboard-response,379,511230,0.0-1.0-533.0,0,0,10,,,,,,75.0,,2.0,,,,,,,,,,,,,,,,,,,,208.0,1.0,,
380,,rl_choice,,html-keyboard-response,380,511676,0.0-1.0-535.0,0,0,10,,444.0,,,50.0,76.0,76.0,2.0,hard,3500.0,1000.0,0.0,40.0,60.0,40.0,60.0,A,B,/static/Simple_RL/Stimuli/Fractals_stims/A.jpg,/static/Simple_RL/Stimuli/Fractals_stims/B.jpg,1.0,40.0,60.0,40.0,60.0,A,B,209.0,0.444,0.0,
381,,rl_choice_confirmation,,html-keyboard-response,381,512734,0.0-1.0-536.0-0.0,0,0,10,,,,,,76.0,,2.0,,,,,,,,,,,,,,,,,,,,209.444,1.056,,
382,,isi,,html-keyboard-response,382,513737,0.0-1.0-538.0,0,0,10,,,,,,76.0,,2.0,,,,,,,,,,,,,,,,,,,,210.5,1.0,,
383,,feedback,,html-keyboard-response,383,514740,0.0-1.0-539.0-0.0,0,0,10,,,,,,76.0,,2.0,,,,,,,,,,,,,,,,,,,,211.5,1.0,,
384,,iti,,html-keyboard-response,384,518244,0.0-1.0-540.0,0,0,10,,,,,,76.0,,2.0,,,,,,,,,,,,,,,,,,,,212.5,3.5,,
385,,rl_choice,,html-keyboard-response,385,518625,0.0-1.0-542.0,0,0,10,,380.0,,,51.0,77.0,77.0,2.0,easy,1000.0,1000.0,1.0,80.0,20.0,60.0,0.0,D,C,/static/Simple_RL/Stimuli/Fractals_stims/D.jpg,/static/Simple_RL/Stimuli/Fractals_stims/C.jpg,0.0,20.0,80.0,0.0,60.0,C,D,216.0,0.38,0.0,
386,,rl_choice_confirmation,,html-keyboard-response,386,519748,0.0-1.0-543.0-0.0,0,0,10,,,,,,77.0,,2.0,,,,,,,,,,,,,,,,,,,,216.38,1.12,,
387,,isi,,html-keyboard-response,387,520750,0.0-1.0-545.0,0,0,10,,,,,,77.0,,2.0,,,,,,,,,,,,,,,,,,,,217.5,1.0,,
388,,feedback,,html-keyboard-response,388,521753,0.0-1.0-546.0-0.0,0,0,10,,,,,,77.0,,2.0,,,,,,,,,,,,,,,,,,,,218.5,1.0,,
389,,iti,,html-keyboard-response,389,522756,0.0-1.0-547.0,0,0,10,,,,,,77.0,,2.0,,,,,,,,,,,,,,,,,,,,219.5,1.0,,
390,,rl_choice,,html-keyboard-response,390,523240,0.0-1.0-549.0,0,0,10,,483.0,,,51.0,78.0,78.0,2.0,hard,1500.0,2000.0,1.0,60.0,40.0,60.0,20.0,B,A,/static/Simple_RL/Stimuli/Fractals_stims/B.jpg,/static/Simple_RL/Stimuli/Fractals_stims/A.jpg,0.0,40.0,60.0,20.0,60.0,A,B,220.5,0.483,0.0,
391,,rl_choice_confirmation,,html-keyboard-response,391,524260,0.0-1.0-550.0-0.0,0,0,10,,,,,,78.0,,2.0,,,,,,,,,,,,,,,,,,,,220.983,1.017,,
392,,isi,,html-keyboard-response,392,526265,0.0-1.0-552.0,0,0,10,,,,,,78.0,,2.0,,,,,,,,,,,,,,,,,,,,222.0,2.0,,
393,,feedback,,html-keyboard-response,393,527268,0.0-1.0-553.0-0.0,0,0,10,,,,,,78.0,,2.0,,,,,,,,,,,,,,,,,,,,224.0,1.0,,
394,,iti,,html-keyboard-response,394,528772,0.0-1.0-554.0,0,0,10,,,,,,78.0,,2.0,,,,,,,,,,,,,,,,,,,,225.0,1.5,,
395,,rl_choice,,html-keyboard-response,395,529181,0.0-1.0-556.0,0,0,10,,407.0,,,50.0,79.0,79.0,2.0,hard,1000.0,2000.0,1.0,60.0,40.0,40.0,60.0,B,A,/static/Simple_RL/Stimuli/Fractals_stims/B.jpg,/static/Simple_RL/Stimuli/Fractals_stims/A.jpg,1.0,60.0,40.0,40.0,60.0,B,A,226.5,0.407,0.0,
396,,rl_choice_confirmation,,html-keyboard-response,396,530276,0.0-1.0-557.0-0.0,0,0,10,,,,,,79.0,,2.0,,,,,,,,,,,,,,,,,,,,226.907,1.093,,
397,,isi,,html-keyboard-response,397,532281,0.0-1.0-559.0,0,0,10,,,,,,79.0,,2.0,,,,,,,,,,,,,,,,,,,,228.0,2.0,,
398,,feedback,,html-keyboard-response,398,533284,0.0-1.0-560.0-0.0,0,0,10,,,,,,79.0,,2.0,,,,,,,,,,,,,,,,,,,,230.0,1.0,,
399,,iti,,html-keyboard-response,399,534287,0.0-1.0-561.0,0,0,10,,,,,,79.0,,2.0,,,,,,,,,,,,,,,,,,,,231.0,1.0,,0.72
400,,final_tally,,html-keyboard-response,400,551436,0.0-2.0,0,0,10,,17147.0,,,50.0,,,,,,,,,,,,,,,,,,,,,,,,,,
