,success,ttype,start_time,trial_type,trial_index,time_elapsed,internal_node_id,warning,missed_checkup,PID,view_history,rt,responses,repeat_instructions,key_press,index,trial_num,block,condition,iti,isi,high_group_on_left,left_group_value,right_group_value,left_item_value,right_item_value,left_img,right_img,left_img_path,right_img_path,left_chosen,chosen_group_value,unchosen_group_value,chosen_item_value,unchosen_item_value,chosen_img,unchosen_img,onset,duration,no_response,total_bonus_tally
0,True,full_screen,d06022022hr0058,fullscreen,0,14887,0.0-0.0,0,0,30311,,,,,,,,,,,,,,,,,,,,,,,,,,,,,,,
1,,size_instructions,,instructions,1,17050,0.0-1.0-0.0-0.0,0,0,30311,"[{""page_index"":0,""viewing_time"":1246},{""page_index"":1,""viewing_time"":214},{""page_index"":2,""viewing_time"":177},{""page_index"":3,""viewing_time"":174},{""page_index"":4,""viewing_time"":153},{""page_index"":5,""viewing_time"":191}]",2155.0,,,,,,,,,,,,,,,,,,,,,,,,,,,,,
2,,rl_comprehension_check,,survey-multi-choice,2,21830,0.0-1.0-0.0-1.0,0,0,30311,,4777.0,"{""Q0"":""True"",""Q1"":""True"",""Q2"":""D for left and K for right""}",0.0,,,,,,,,,,,,,,,,,,,,,,,,,,,
3,,,,html-keyboard-response,3,23213,0.0-1.0-1.0,0,0,30311,,1380.0,,,68.0,,,,,,,,,,,,,,,,,,,,,,,,,,
4,,rl_choice,,html-keyboard-response,4,23577,0.0-1.0-2.0,0,0,30311,,363.0,,,68.0,0.0,0.0,1.0,hard,2000.0,1000.0,0.0,40.0,60.0,60.0,40.0,D,C,/static/Simple_RL/Stimuli/Fractals_stims/D.jpg,/static/Simple_RL/Stimuli/Fractals_stims/C.jpg,1.0,40.0,60.0,60.0,40.0,D,C,0.363,0.363,0.0,
5,,rl_choice_confirmation,,html-keyboard-response,5,24716,0.0-1.0-3.0-0.0,0,0,30311,,,,,,0.0,,,,,,,,,,,,,,,,,,,,,,1.5,1.137,,
6,,isi,,html-keyboard-response,6,24821,0.0-1.0-5.0,0,0,30311,,,,,,,,,,,,,,,,,,,,,,,,,,,,2.5,1.0,,
7,,feedback,,html-keyboard-response,7,25823,0.0-1.0-6.0-0.0,0,0,30311,,,,,,0.0,,,,,,,,,,,,,,,,,,,,,,3.5,1.0,,
8,,iti,,html-keyboard-response,8,25929,0.0-1.0-7.0,0,0,30311,,,,,,,,,,,,,,,,,,,,,,,,,,,,5.5,2.0,,
9,,rl_choice,,html-keyboard-response,9,25990,0.0-1.0-9.0,0,0,30311,,59.0,,,75.0,1.0,1.0,1.0,hard,1000.0,1000.0,0.0,40.0,60.0,20.0,40.0,D,C,/static/Simple_RL/Stimuli/Fractals_stims/D.jpg,/static/Simple_RL/Stimuli/Fractals_stims/C.jpg,0.0,60.0,40.0,40.0,20.0,C,D,5.559,0.059,0.0,
10,,rl_choice_confirmation,,html-keyboard-response,10,27434,0.0-1.0-10.0-0.0,0,0,30311,,,,,,1.0,,,,,,,,,,,,,,,,,,,,,,7.0,1.441,,
11,,isi,,html-keyboard-response,11,27538,0.0-1.0-12.0,0,0,30311,,,,,,,,,,,,,,,,,,,,,,,,,,,,8.0,1.0,,
12,,feedback,,html-keyboard-response,12,28540,0.0-1.0-13.0-0.0,0,0,30311,,,,,,1.0,,,,,,,,,,,,,,,,,,,,,,9.0,1.0,,
13,,iti,,html-keyboard-response,13,28645,0.0-1.0-14.0,0,0,30311,,,,,,,,,,,,,,,,,,,,,,,,,,,,10.0,1.0,,
14,,rl_choice,,html-keyboard-response,14,28923,0.0-1.0-16.0,0,0,30311,,277.0,,,75.0,2.0,2.0,1.0,easy,1000.0,1000.0,0.0,20.0,80.0,40.0,60.0,B,A,/static/Simple_RL/Stimuli/Fractals_stims/B.jpg,/static/Simple_RL/Stimuli/Fractals_stims/A.jpg,0.0,80.0,20.0,60.0,40.0,A,B,10.277,0.277,0.0,
15,,rl_choice_confirmation,,html-keyboard-response,15,30148,0.0-1.0-17.0-0.0,0,0,30311,,,,,,2.0,,,,,,,,,,,,,,,,,,,,,,11.5,1.223,,
16,,isi,,html-keyboard-response,16,30253,0.0-1.0-19.0,0,0,30311,,,,,,,,,,,,,,,,,,,,,,,,,,,,12.5,1.0,,
17,,feedback,,html-keyboard-response,17,31255,0.0-1.0-20.0-0.0,0,0,30311,,,,,,2.0,,,,,,,,,,,,,,,,,,,,,,13.5,1.0,,
18,,iti,,html-keyboard-response,18,31361,0.0-1.0-21.0,0,0,30311,,,,,,,,,,,,,,,,,,,,,,,,,,,,14.5,1.0,,
19,,rl_choice,,html-keyboard-response,19,31407,0.0-1.0-23.0,0,0,30311,,45.0,,,75.0,3.0,3.0,1.0,easy,3000.0,3000.0,1.0,80.0,20.0,100.0,40.0,A,B,/static/Simple_RL/Stimuli/Fractals_stims/A.jpg,/static/Simple_RL/Stimuli/Fractals_stims/B.jpg,0.0,20.0,80.0,40.0,100.0,B,A,14.545,0.045,0.0,
20,,rl_choice_confirmation,,html-keyboard-response,20,32868,0.0-1.0-24.0-0.0,0,0,30311,,,,,,3.0,,,,,,,,,,,,,,,,,,,,,,16.0,1.455,,
21,,isi,,html-keyboard-response,21,32972,0.0-1.0-26.0,0,0,30311,,,,,,,,,,,,,,,,,,,,,,,,,,,,19.0,3.0,,
22,,feedback,,html-keyboard-response,22,33978,0.0-1.0-27.0-0.0,0,0,30311,,,,,,3.0,,,,,,,,,,,,,,,,,,,,,,20.0,1.0,,
23,,iti,,html-keyboard-response,23,34081,0.0-1.0-28.0,0,0,30311,,,,,,,,,,,,,,,,,,,,,,,,,,,,23.0,3.0,,
24,,rl_choice,,html-keyboard-response,24,34116,0.0-1.0-30.0,0,0,30311,,34.0,,,75.0,4.0,4.0,1.0,hard,1000.0,1000.0,0.0,40.0,60.0,40.0,80.0,D,C,/static/Simple_RL/Stimuli/Fractals_stims/D.jpg,/static/Simple_RL/Stimuli/Fractals_stims/C.jpg,0.0,60.0,40.0,80.0,40.0,C,D,23.034,0.034,0.0,
25,,rl_choice_confirmation,,html-keyboard-response,25,35588,0.0-1.0-31.0-0.0,0,0,30311,,,,,,4.0,,,,,,,,,,,,,,,,,,,,,,24.5,1.466,,
26,,isi,,html-keyboard-response,26,35693,0.0-1.0-33.0,0,0,30311,,,,,,,,,,,,,,,,,,,,,,,,,,,,25.5,1.0,,
27,,feedback,,html-keyboard-response,27,36698,0.0-1.0-34.0-0.0,0,0,30311,,,,,,4.0,,,,,,,,,,,,,,,,,,,,,,26.5,1.0,,
28,,iti,,html-keyboard-response,28,36801,0.0-1.0-35.0,0,0,30311,,,,,,,,,,,,,,,,,,,,,,,,,,,,27.5,1.0,,
29,,rl_choice,,html-keyboard-response,29,37009,0.0-1.0-37.0,0,0,30311,,207.0,,,68.0,5.0,5.0,1.0,hard,3000.0,1000.0,1.0,60.0,40.0,60.0,60.0,C,D,/static/Simple_RL/Stimuli/Fractals_stims/C.jpg,/static/Simple_RL/Stimuli/Fractals_stims/D.jpg,1.0,60.0,40.0,60.0,60.0,C,D,27.707,0.207,0.0,
30,,rl_choice_confirmation,,html-keyboard-response,30,38309,0.0-1.0-38.0-0.0,0,0,30311,,,,,,5.0,,,,,,,,,,,,,,,,,,,,,,29.0,1.293,,
31,,isi,,html-keyboard-response,31,38410,0.0-1.0-40.0,0,0,30311,,,,,,,,,,,,,,,,,,,,,,,,,,,,30.0,1.0,,
32,,feedback,,html-keyboard-response,32,39413,0.0-1.0-41.0-0.0,0,0,30311,,,,,,5.0,,,,,,,,,,,,,,,,,,,,,,31.0,1.0,,
33,,iti,,html-keyboard-response,33,39514,0.0-1.0-42.0,0,0,30311,,,,,,,,,,,,,,,,,,,,,,,,,,,,34.0,3.0,,
34,,rl_choice,,html-keyboard-response,34,39525,0.0-1.0-44.0,0,0,30311,,9.0,,,68.0,6.0,6.0,1.0,easy,1000.0,2000.0,0.0,20.0,80.0,40.0,100.0,B,A,/static/Simple_RL/Stimuli/Fractals_stims/B.jpg,/static/Simple_RL/Stimuli/Fractals_stims/A.jpg,1.0,20.0,80.0,40.0,100.0,B,A,34.009,0.009,0.0,
35,,rl_choice_confirmation,,html-keyboard-response,35,41021,0.0-1.0-45.0-0.0,0,0,30311,,,,,,6.0,,,,,,,,,,,,,,,,,,,,,,35.5,1.491,,
36,,isi,,html-keyboard-response,36,41125,0.0-1.0-47.0,0,0,30311,,,,,,,,,,,,,,,,,,,,,,,,,,,,37.5,2.0,,
37,,feedback,,html-keyboard-response,37,42129,0.0-1.0-48.0-0.0,0,0,30311,,,,,,6.0,,,,,,,,,,,,,,,,,,,,,,38.5,1.0,,
38,,iti,,html-keyboard-response,38,42234,0.0-1.0-49.0,0,0,30311,,,,,,,,,,,,,,,,,,,,,,,,,,,,39.5,1.0,,
39,,rl_choice,,html-keyboard-response,39,42382,0.0-1.0-51.0,0,0,30311,,147.0,,,75.0,7.0,7.0,1.0,hard,3000.0,1500.0,0.0,40.0,60.0,20.0,80.0,D,C,/static/Simple_RL/Stimuli/Fractals_stims/D.jpg,/static/Simple_RL/Stimuli/Fractals_stims/C.jpg,0.0,60.0,40.0,80.0,20.0,C,D,39.647,0.147,0.0,
40,,rl_choice_confirmation,,html-keyboard-response,40,43741,0.0-1.0-52.0-0.0,0,0,30311,,,,,,7.0,,,,,,,,,,,,,,,,,,,,,,41.0,1.353,,
41,,isi,,html-keyboard-response,41,43847,0.0-1.0-54.0,0,0,30311,,,,,,,,,,,,,,,,,,,,,,,,,,,,42.5,1.5,,
42,,feedback,,html-keyboard-response,42,44851,0.0-1.0-55.0-0.0,0,0,30311,,,,,,7.0,,,,,,,,,,,,,,,,,,,,,,43.5,1.0,,
43,,iti,,html-keyboard-response,43,44952,0.0-1.0-56.0,0,0,30311,,,,,,,,,,,,,,,,,,,,,,,,,,,,46.5,3.0,,
44,,rl_choice,,html-keyboard-response,44,44997,0.0-1.0-58.0,0,0,30311,,43.0,,,75.0,8.0,8.0,1.0,easy,1000.0,1000.0,0.0,20.0,80.0,0.0,100.0,B,A,/static/Simple_RL/Stimuli/Fractals_stims/B.jpg,/static/Simple_RL/Stimuli/Fractals_stims/A.jpg,0.0,80.0,20.0,100.0,0.0,A,B,46.543,0.043,0.0,
45,,rl_choice_confirmation,,html-keyboard-response,45,46458,0.0-1.0-59.0-0.0,0,0,30311,,,,,,8.0,,,,,,,,,,,,,,,,,,,,,,48.0,1.457,,
46,,isi,,html-keyboard-response,46,46561,0.0-1.0-61.0,0,0,30311,,,,,,,,,,,,,,,,,,,,,,,,,,,,49.0,1.0,,
47,,feedback,,html-keyboard-response,47,47567,0.0-1.0-62.0-0.0,0,0,30311,,,,,,8.0,,,,,,,,,,,,,,,,,,,,,,50.0,1.0,,
48,,iti,,html-keyboard-response,48,47673,0.0-1.0-63.0,0,0,30311,,,,,,,,,,,,,,,,,,,,,,,,,,,,51.0,1.0,,
49,,rl_choice,,html-keyboard-response,49,47764,0.0-1.0-65.0,0,0,30311,,90.0,,,68.0,9.0,9.0,1.0,hard,1500.0,2000.0,1.0,60.0,40.0,60.0,40.0,C,D,/static/Simple_RL/Stimuli/Fractals_stims/C.jpg,/static/Simple_RL/Stimuli/Fractals_stims/D.jpg,1.0,60.0,40.0,60.0,40.0,C,D,51.09,0.09,0.0,
50,,rl_choice_confirmation,,html-keyboard-response,50,49178,0.0-1.0-66.0-0.0,0,0,30311,,,,,,9.0,,,,,,,,,,,,,,,,,,,,,,52.5,1.41,,
51,,isi,,html-keyboard-response,51,49279,0.0-1.0-68.0,0,0,30311,,,,,,,,,,,,,,,,,,,,,,,,,,,,54.5,2.0,,
52,,feedback,,html-keyboard-response,52,50284,0.0-1.0-69.0-0.0,0,0,30311,,,,,,9.0,,,,,,,,,,,,,,,,,,,,,,55.5,1.0,,
53,,iti,,html-keyboard-response,53,50386,0.0-1.0-70.0,0,0,30311,,,,,,,,,,,,,,,,,,,,,,,,,,,,57.0,1.5,,
54,,rl_choice,,html-keyboard-response,54,50502,0.0-1.0-72.0,0,0,30311,,115.0,,,75.0,10.0,10.0,1.0,easy,1000.0,1000.0,1.0,80.0,20.0,60.0,0.0,A,B,/static/Simple_RL/Stimuli/Fractals_stims/A.jpg,/static/Simple_RL/Stimuli/Fractals_stims/B.jpg,0.0,20.0,80.0,0.0,60.0,B,A,57.115,0.115,0.0,
55,,rl_choice_confirmation,,html-keyboard-response,55,51893,0.0-1.0-73.0-0.0,0,0,30311,,,,,,10.0,,,,,,,,,,,,,,,,,,,,,,58.5,1.385,,
56,,isi,,html-keyboard-response,56,51994,0.0-1.0-75.0,0,0,30311,,,,,,,,,,,,,,,,,,,,,,,,,,,,59.5,1.0,,
57,,feedback,,html-keyboard-response,57,52999,0.0-1.0-76.0-0.0,0,0,30311,,,,,,10.0,,,,,,,,,,,,,,,,,,,,,,60.5,1.0,,
58,,iti,,html-keyboard-response,58,53103,0.0-1.0-77.0,0,0,30311,,,,,,,,,,,,,,,,,,,,,,,,,,,,61.5,1.0,,
59,,rl_choice,,html-keyboard-response,59,53757,0.0-1.0-79.0,0,0,30311,,653.0,,,75.0,11.0,11.0,1.0,hard,3500.0,1000.0,0.0,40.0,60.0,20.0,60.0,D,C,/static/Simple_RL/Stimuli/Fractals_stims/D.jpg,/static/Simple_RL/Stimuli/Fractals_stims/C.jpg,0.0,60.0,40.0,60.0,20.0,C,D,62.153,0.653,0.0,
60,,rl_choice_confirmation,,html-keyboard-response,60,54607,0.0-1.0-80.0-0.0,0,0,30311,,,,,,11.0,,,,,,,,,,,,,,,,,,,,,,63.0,0.847,,
61,,isi,,html-keyboard-response,61,54709,0.0-1.0-82.0,0,0,30311,,,,,,,,,,,,,,,,,,,,,,,,,,,,64.0,1.0,,
62,,feedback,,html-keyboard-response,62,55710,0.0-1.0-83.0-0.0,0,0,30311,,,,,,11.0,,,,,,,,,,,,,,,,,,,,,,65.0,1.0,,
63,,iti,,html-keyboard-response,63,55815,0.0-1.0-84.0,0,0,30311,,,,,,,,,,,,,,,,,,,,,,,,,,,,68.5,3.5,,
64,,rl_choice,,html-keyboard-response,64,56130,0.0-1.0-86.0,0,0,30311,,313.0,,,75.0,12.0,12.0,1.0,hard,1000.0,1000.0,1.0,60.0,40.0,80.0,20.0,C,D,/static/Simple_RL/Stimuli/Fractals_stims/C.jpg,/static/Simple_RL/Stimuli/Fractals_stims/D.jpg,0.0,40.0,60.0,20.0,80.0,D,C,68.813,0.313,0.0,
65,,rl_choice_confirmation,,html-keyboard-response,65,57322,0.0-1.0-87.0-0.0,0,0,30311,,,,,,12.0,,,,,,,,,,,,,,,,,,,,,,70.0,1.187,,
66,,isi,,html-keyboard-response,66,57423,0.0-1.0-89.0,0,0,30311,,,,,,,,,,,,,,,,,,,,,,,,,,,,71.0,1.0,,
67,,feedback,,html-keyboard-response,67,58429,0.0-1.0-90.0-0.0,0,0,30311,,,,,,12.0,,,,,,,,,,,,,,,,,,,,,,72.0,1.0,,
68,,iti,,html-keyboard-response,68,58532,0.0-1.0-91.0,0,0,30311,,,,,,,,,,,,,,,,,,,,,,,,,,,,73.0,1.0,,
69,,rl_choice,,html-keyboard-response,69,59520,0.0-1.0-93.0,0,0,30311,,987.0,,,75.0,13.0,13.0,1.0,hard,2000.0,2000.0,1.0,60.0,40.0,40.0,40.0,C,D,/static/Simple_RL/Stimuli/Fractals_stims/C.jpg,/static/Simple_RL/Stimuli/Fractals_stims/D.jpg,0.0,40.0,60.0,40.0,40.0,D,C,73.987,0.987,0.0,
70,,rl_choice_confirmation,,html-keyboard-response,70,60039,0.0-1.0-94.0-0.0,0,0,30311,,,,,,13.0,,,,,,,,,,,,,,,,,,,,,,74.5,0.513,,
71,,isi,,html-keyboard-response,71,60143,0.0-1.0-96.0,0,0,30311,,,,,,,,,,,,,,,,,,,,,,,,,,,,76.5,2.0,,
72,,feedback,,html-keyboard-response,72,61146,0.0-1.0-97.0-0.0,0,0,30311,,,,,,13.0,,,,,,,,,,,,,,,,,,,,,,77.5,1.0,,
73,,iti,,html-keyboard-response,73,61250,0.0-1.0-98.0,0,0,30311,,,,,,,,,,,,,,,,,,,,,,,,,,,,79.5,2.0,,
74,,rl_choice,,html-keyboard-response,74,61416,0.0-1.0-100.0,0,0,30311,,165.0,,,75.0,14.0,14.0,1.0,easy,1000.0,3500.0,1.0,80.0,20.0,80.0,20.0,A,B,/static/Simple_RL/Stimuli/Fractals_stims/A.jpg,/static/Simple_RL/Stimuli/Fractals_stims/B.jpg,0.0,20.0,80.0,20.0,80.0,B,A,79.665,0.165,0.0,
75,,rl_choice_confirmation,,html-keyboard-response,75,62753,0.0-1.0-101.0-0.0,0,0,30311,,,,,,14.0,,,,,,,,,,,,,,,,,,,,,,81.0,1.335,,
76,,isi,,html-keyboard-response,76,62858,0.0-1.0-103.0,0,0,30311,,,,,,,,,,,,,,,,,,,,,,,,,,,,84.5,3.5,,
77,,feedback,,html-keyboard-response,77,63861,0.0-1.0-104.0-0.0,0,0,30311,,,,,,14.0,,,,,,,,,,,,,,,,,,,,,,85.5,1.0,,
78,,iti,,html-keyboard-response,78,63967,0.0-1.0-105.0,0,0,30311,,,,,,,,,,,,,,,,,,,,,,,,,,,,86.5,1.0,,
79,,rl_choice,,html-keyboard-response,79,65472,0.0-1.0-107.0,0,0,30311,,,,,,15.0,15.0,1.0,easy,2000.0,2000.0,0.0,20.0,80.0,20.0,60.0,B,A,/static/Simple_RL/Stimuli/Fractals_stims/B.jpg,/static/Simple_RL/Stimuli/Fractals_stims/A.jpg,,,,,,,,88.0,1.5,1.0,
80,,rl_choice_warning,,html-keyboard-response,80,66474,0.0-1.0-109.0-0.0,0,0,30311,,,,,,,,,,,,,,,,,,,,,,,,,,,,89.0,1.0,,
81,,isi,,html-keyboard-response,81,66575,0.0-1.0-110.0,0,0,30311,,,,,,,,,,,,,,,,,,,,,,,,,,,,91.0,2.0,,
82,,iti,,html-keyboard-response,82,66677,0.0-1.0-112.0,0,0,30311,,,,,,,,,,,,,,,,,,,,,,,,,,,,93.0,2.0,,
83,,rl_choice,,html-keyboard-response,83,66857,0.0-1.0-114.0,0,0,30311,,179.0,,,68.0,16.0,16.0,1.0,hard,1000.0,1500.0,0.0,40.0,60.0,20.0,80.0,D,C,/static/Simple_RL/Stimuli/Fractals_stims/D.jpg,/static/Simple_RL/Stimuli/Fractals_stims/C.jpg,1.0,40.0,60.0,20.0,80.0,D,C,93.179,0.179,0.0,
84,,rl_choice_confirmation,,html-keyboard-response,84,68181,0.0-1.0-115.0-0.0,0,0,30311,,,,,,16.0,,,,,,,,,,,,,,,,,,,,,,94.5,1.321,,
85,,isi,,html-keyboard-response,85,68282,0.0-1.0-117.0,0,0,30311,,,,,,,,,,,,,,,,,,,,,,,,,,,,96.0,1.5,,
86,,feedback,,html-keyboard-response,86,69286,0.0-1.0-118.0-0.0,0,0,30311,,,,,,16.0,,,,,,,,,,,,,,,,,,,,,,97.0,1.0,,
87,,iti,,html-keyboard-response,87,69391,0.0-1.0-119.0,0,0,30311,,,,,,,,,,,,,,,,,,,,,,,,,,,,98.0,1.0,,
88,,rl_choice,,html-keyboard-response,88,69441,0.0-1.0-121.0,0,0,30311,,49.0,,,68.0,17.0,17.0,1.0,hard,1000.0,1500.0,1.0,60.0,40.0,60.0,20.0,C,D,/static/Simple_RL/Stimuli/Fractals_stims/C.jpg,/static/Simple_RL/Stimuli/Fractals_stims/D.jpg,1.0,60.0,40.0,60.0,20.0,C,D,98.049,0.049,0.0,
89,,rl_choice_confirmation,,html-keyboard-response,89,70895,0.0-1.0-122.0-0.0,0,0,30311,,,,,,17.0,,,,,,,,,,,,,,,,,,,,,,99.5,1.451,,
90,,isi,,html-keyboard-response,90,70997,0.0-1.0-124.0,0,0,30311,,,,,,,,,,,,,,,,,,,,,,,,,,,,101.0,1.5,,
91,,feedback,,html-keyboard-response,91,71999,0.0-1.0-125.0-0.0,0,0,30311,,,,,,17.0,,,,,,,,,,,,,,,,,,,,,,102.0,1.0,,
92,,iti,,html-keyboard-response,92,72100,0.0-1.0-126.0,0,0,30311,,,,,,,,,,,,,,,,,,,,,,,,,,,,103.0,1.0,,
93,,rl_choice,,html-keyboard-response,93,72185,0.0-1.0-128.0,0,0,30311,,84.0,,,68.0,18.0,18.0,1.0,easy,1500.0,1500.0,0.0,20.0,80.0,40.0,80.0,B,A,/static/Simple_RL/Stimuli/Fractals_stims/B.jpg,/static/Simple_RL/Stimuli/Fractals_stims/A.jpg,1.0,20.0,80.0,40.0,80.0,B,A,103.084,0.084,0.0,
94,,rl_choice_confirmation,,html-keyboard-response,94,73603,0.0-1.0-129.0-0.0,0,0,30311,,,,,,18.0,,,,,,,,,,,,,,,,,,,,,,104.5,1.416,,
95,,isi,,html-keyboard-response,95,73706,0.0-1.0-131.0,0,0,30311,,,,,,,,,,,,,,,,,,,,,,,,,,,,106.0,1.5,,
96,,feedback,,html-keyboard-response,96,74712,0.0-1.0-132.0-0.0,0,0,30311,,,,,,18.0,,,,,,,,,,,,,,,,,,,,,,107.0,1.0,,
97,,iti,,html-keyboard-response,97,74815,0.0-1.0-133.0,0,0,30311,,,,,,,,,,,,,,,,,,,,,,,,,,,,108.5,1.5,,
98,,rl_choice,,html-keyboard-response,98,74890,0.0-1.0-135.0,0,0,30311,,73.0,,,75.0,19.0,19.0,1.0,hard,2000.0,3000.0,1.0,60.0,40.0,60.0,40.0,C,D,/static/Simple_RL/Stimuli/Fractals_stims/C.jpg,/static/Simple_RL/Stimuli/Fractals_stims/D.jpg,0.0,40.0,60.0,40.0,60.0,D,C,108.573,0.073,0.0,
99,,rl_choice_confirmation,,html-keyboard-response,99,76320,0.0-1.0-136.0-0.0,0,0,30311,,,,,,19.0,,,,,,,,,,,,,,,,,,,,,,110.0,1.427,,
100,,isi,,html-keyboard-response,100,76420,0.0-1.0-138.0,0,0,30311,,,,,,,,,,,,,,,,,,,,,,,,,,,,113.0,3.0,,
101,,feedback,,html-keyboard-response,101,77424,0.0-1.0-139.0-0.0,0,0,30311,,,,,,19.0,,,,,,,,,,,,,,,,,,,,,,114.0,1.0,,
102,,iti,,html-keyboard-response,102,77525,0.0-1.0-140.0,0,0,30311,,,,,,,,,,,,,,,,,,,,,,,,,,,,116.0,2.0,,
103,,rl_choice,,html-keyboard-response,103,77624,0.0-1.0-142.0,0,0,30311,,97.0,,,68.0,20.0,20.0,1.0,easy,1500.0,1000.0,1.0,80.0,20.0,80.0,40.0,A,B,/static/Simple_RL/Stimuli/Fractals_stims/A.jpg,/static/Simple_RL/Stimuli/Fractals_stims/B.jpg,1.0,80.0,20.0,80.0,40.0,A,B,116.097,0.097,0.0,
104,,rl_choice_confirmation,,html-keyboard-response,104,79029,0.0-1.0-143.0-0.0,0,0,30311,,,,,,20.0,,,,,,,,,,,,,,,,,,,,,,117.5,1.403,,
105,,isi,,html-keyboard-response,105,79130,0.0-1.0-145.0,0,0,30311,,,,,,,,,,,,,,,,,,,,,,,,,,,,118.5,1.0,,
106,,feedback,,html-keyboard-response,106,80136,0.0-1.0-146.0-0.0,0,0,30311,,,,,,20.0,,,,,,,,,,,,,,,,,,,,,,119.5,1.0,,
107,,iti,,html-keyboard-response,107,80240,0.0-1.0-147.0,0,0,30311,,,,,,,,,,,,,,,,,,,,,,,,,,,,121.0,1.5,,
108,,rl_choice,,html-keyboard-response,108,80448,0.0-1.0-149.0,0,0,30311,,207.0,,,75.0,21.0,21.0,1.0,easy,3000.0,1500.0,1.0,80.0,20.0,80.0,20.0,A,B,/static/Simple_RL/Stimuli/Fractals_stims/A.jpg,/static/Simple_RL/Stimuli/Fractals_stims/B.jpg,0.0,20.0,80.0,20.0,80.0,B,A,121.207,0.207,0.0,
109,,rl_choice_confirmation,,html-keyboard-response,109,81743,0.0-1.0-150.0-0.0,0,0,30311,,,,,,21.0,,,,,,,,,,,,,,,,,,,,,,122.5,1.293,,
110,,isi,,html-keyboard-response,110,81845,0.0-1.0-152.0,0,0,30311,,,,,,,,,,,,,,,,,,,,,,,,,,,,124.0,1.5,,
111,,feedback,,html-keyboard-response,111,82847,0.0-1.0-153.0-0.0,0,0,30311,,,,,,21.0,,,,,,,,,,,,,,,,,,,,,,125.0,1.0,,
112,,iti,,html-keyboard-response,112,82951,0.0-1.0-154.0,0,0,30311,,,,,,,,,,,,,,,,,,,,,,,,,,,,128.0,3.0,,
113,,rl_choice,,html-keyboard-response,113,82992,0.0-1.0-156.0,0,0,30311,,40.0,,,68.0,22.0,22.0,1.0,easy,1000.0,2000.0,1.0,80.0,20.0,100.0,20.0,A,B,/static/Simple_RL/Stimuli/Fractals_stims/A.jpg,/static/Simple_RL/Stimuli/Fractals_stims/B.jpg,1.0,80.0,20.0,100.0,20.0,A,B,128.04,0.04,0.0,
114,,rl_choice_confirmation,,html-keyboard-response,114,84457,0.0-1.0-157.0-0.0,0,0,30311,,,,,,22.0,,,,,,,,,,,,,,,,,,,,,,129.5,1.46,,
115,,isi,,html-keyboard-response,115,84560,0.0-1.0-159.0,0,0,30311,,,,,,,,,,,,,,,,,,,,,,,,,,,,131.5,2.0,,
116,,feedback,,html-keyboard-response,116,85564,0.0-1.0-160.0-0.0,0,0,30311,,,,,,22.0,,,,,,,,,,,,,,,,,,,,,,132.5,1.0,,
117,,iti,,html-keyboard-response,117,85669,0.0-1.0-161.0,0,0,30311,,,,,,,,,,,,,,,,,,,,,,,,,,,,133.5,1.0,,
118,,rl_choice,,html-keyboard-response,118,85713,0.0-1.0-163.0,0,0,30311,,43.0,,,68.0,23.0,23.0,1.0,easy,2000.0,1500.0,1.0,80.0,20.0,80.0,0.0,A,B,/static/Simple_RL/Stimuli/Fractals_stims/A.jpg,/static/Simple_RL/Stimuli/Fractals_stims/B.jpg,1.0,80.0,20.0,80.0,0.0,A,B,133.543,0.043,0.0,
119,,rl_choice_confirmation,,html-keyboard-response,119,87173,0.0-1.0-164.0-0.0,0,0,30311,,,,,,23.0,,,,,,,,,,,,,,,,,,,,,,135.0,1.457,,
120,,isi,,html-keyboard-response,120,87276,0.0-1.0-166.0,0,0,30311,,,,,,,,,,,,,,,,,,,,,,,,,,,,136.5,1.5,,
121,,feedback,,html-keyboard-response,121,88282,0.0-1.0-167.0-0.0,0,0,30311,,,,,,23.0,,,,,,,,,,,,,,,,,,,,,,137.5,1.0,,
122,,iti,,html-keyboard-response,122,88384,0.0-1.0-168.0,0,0,30311,,,,,,,,,,,,,,,,,,,,,,,,,,,,139.5,2.0,,
123,,rl_choice,,html-keyboard-response,123,88445,0.0-1.0-170.0,0,0,30311,,60.0,,,68.0,24.0,24.0,1.0,easy,1500.0,1500.0,0.0,20.0,80.0,40.0,80.0,B,A,/static/Simple_RL/Stimuli/Fractals_stims/B.jpg,/static/Simple_RL/Stimuli/Fractals_stims/A.jpg,1.0,20.0,80.0,40.0,80.0,B,A,139.56,0.06,0.0,
124,,rl_choice_confirmation,,html-keyboard-response,124,89888,0.0-1.0-171.0-0.0,0,0,30311,,,,,,24.0,,,,,,,,,,,,,,,,,,,,,,141.0,1.44,,
125,,isi,,html-keyboard-response,125,89989,0.0-1.0-173.0,0,0,30311,,,,,,,,,,,,,,,,,,,,,,,,,,,,142.5,1.5,,
126,,feedback,,html-keyboard-response,126,90992,0.0-1.0-174.0-0.0,0,0,30311,,,,,,24.0,,,,,,,,,,,,,,,,,,,,,,143.5,1.0,,
127,,iti,,html-keyboard-response,127,91093,0.0-1.0-175.0,0,0,30311,,,,,,,,,,,,,,,,,,,,,,,,,,,,145.0,1.5,,
128,,rl_choice,,html-keyboard-response,128,92597,0.0-1.0-177.0,0,0,30311,,,,,,25.0,25.0,1.0,easy,2000.0,3000.0,1.0,80.0,20.0,100.0,40.0,A,B,/static/Simple_RL/Stimuli/Fractals_stims/A.jpg,/static/Simple_RL/Stimuli/Fractals_stims/B.jpg,,,,,,,,146.5,1.5,1.0,
129,,rl_choice_warning,,html-keyboard-response,129,93600,0.0-1.0-179.0-0.0,0,0,30311,,,,,,,,,,,,,,,,,,,,,,,,,,,,147.5,1.0,,
130,,isi,,html-keyboard-response,130,93701,0.0-1.0-180.0,0,0,30311,,,,,,,,,,,,,,,,,,,,,,,,,,,,150.5,3.0,,
131,,iti,,html-keyboard-response,131,93804,0.0-1.0-182.0,0,0,30311,,,,,,,,,,,,,,,,,,,,,,,,,,,,152.5,2.0,,
132,,rl_choice,,html-keyboard-response,132,93849,0.0-1.0-184.0,0,0,30311,,44.0,,,68.0,26.0,26.0,1.0,hard,1000.0,2000.0,0.0,40.0,60.0,60.0,80.0,D,C,/static/Simple_RL/Stimuli/Fractals_stims/D.jpg,/static/Simple_RL/Stimuli/Fractals_stims/C.jpg,1.0,40.0,60.0,60.0,80.0,D,C,152.544,0.044,0.0,
133,,rl_choice_confirmation,,html-keyboard-response,133,95310,0.0-1.0-185.0-0.0,0,0,30311,,,,,,26.0,,,,,,,,,,,,,,,,,,,,,,154.0,1.456,,
134,,isi,,html-keyboard-response,134,95413,0.0-1.0-187.0,0,0,30311,,,,,,,,,,,,,,,,,,,,,,,,,,,,156.0,2.0,,
135,,feedback,,html-keyboard-response,135,96417,0.0-1.0-188.0-0.0,0,0,30311,,,,,,26.0,,,,,,,,,,,,,,,,,,,,,,157.0,1.0,,
136,,iti,,html-keyboard-response,136,96522,0.0-1.0-189.0,0,0,30311,,,,,,,,,,,,,,,,,,,,,,,,,,,,158.0,1.0,,
137,,rl_choice,,html-keyboard-response,137,96648,0.0-1.0-191.0,0,0,30311,,124.0,,,75.0,27.0,27.0,1.0,easy,1500.0,1500.0,0.0,20.0,80.0,20.0,80.0,B,A,/static/Simple_RL/Stimuli/Fractals_stims/B.jpg,/static/Simple_RL/Stimuli/Fractals_stims/A.jpg,0.0,80.0,20.0,80.0,20.0,A,B,158.124,0.124,0.0,
138,,rl_choice_confirmation,,html-keyboard-response,138,98027,0.0-1.0-192.0-0.0,0,0,30311,,,,,,27.0,,,,,,,,,,,,,,,,,,,,,,159.5,1.376,,
139,,isi,,html-keyboard-response,139,98128,0.0-1.0-194.0,0,0,30311,,,,,,,,,,,,,,,,,,,,,,,,,,,,161.0,1.5,,
140,,feedback,,html-keyboard-response,140,99130,0.0-1.0-195.0-0.0,0,0,30311,,,,,,27.0,,,,,,,,,,,,,,,,,,,,,,162.0,1.0,,
141,,iti,,html-keyboard-response,141,99232,0.0-1.0-196.0,0,0,30311,,,,,,,,,,,,,,,,,,,,,,,,,,,,163.5,1.5,,
142,,rl_choice,,html-keyboard-response,142,99234,0.0-1.0-198.0,0,0,30311,,1.0,,,68.0,28.0,28.0,1.0,easy,2000.0,1000.0,1.0,80.0,20.0,100.0,20.0,A,B,/static/Simple_RL/Stimuli/Fractals_stims/A.jpg,/static/Simple_RL/Stimuli/Fractals_stims/B.jpg,1.0,80.0,20.0,100.0,20.0,A,B,163.501,0.001,0.0,
143,,rl_choice_confirmation,,html-keyboard-response,143,100736,0.0-1.0-199.0-0.0,0,0,30311,,,,,,28.0,,,,,,,,,,,,,,,,,,,,,,165.0,1.499,,
144,,isi,,html-keyboard-response,144,100837,0.0-1.0-201.0,0,0,30311,,,,,,,,,,,,,,,,,,,,,,,,,,,,166.0,1.0,,
145,,feedback,,html-keyboard-response,145,101839,0.0-1.0-202.0-0.0,0,0,30311,,,,,,28.0,,,,,,,,,,,,,,,,,,,,,,167.0,1.0,,
146,,iti,,html-keyboard-response,146,101941,0.0-1.0-203.0,0,0,30311,,,,,,,,,,,,,,,,,,,,,,,,,,,,169.0,2.0,,
147,,rl_choice,,html-keyboard-response,147,101955,0.0-1.0-205.0,0,0,30311,,12.0,,,68.0,29.0,29.0,1.0,hard,1000.0,1500.0,1.0,60.0,40.0,60.0,20.0,C,D,/static/Simple_RL/Stimuli/Fractals_stims/C.jpg,/static/Simple_RL/Stimuli/Fractals_stims/D.jpg,1.0,60.0,40.0,60.0,20.0,C,D,169.012,0.012,0.0,
148,,rl_choice_confirmation,,html-keyboard-response,148,103448,0.0-1.0-206.0-0.0,0,0,30311,,,,,,29.0,,,,,,,,,,,,,,,,,,,,,,170.5,1.488,,
149,,isi,,html-keyboard-response,149,103552,0.0-1.0-208.0,0,0,30311,,,,,,,,,,,,,,,,,,,,,,,,,,,,172.0,1.5,,
150,,feedback,,html-keyboard-response,150,104556,0.0-1.0-209.0-0.0,0,0,30311,,,,,,29.0,,,,,,,,,,,,,,,,,,,,,,173.0,1.0,,
151,,iti,,html-keyboard-response,151,104661,0.0-1.0-210.0,0,0,30311,,,,,,,,,,,,,,,,,,,,,,,,,,,,174.0,1.0,,
152,,rl_choice,,html-keyboard-response,152,104693,0.0-1.0-212.0,0,0,30311,,30.0,,,75.0,30.0,30.0,1.0,easy,1500.0,2000.0,1.0,80.0,20.0,60.0,20.0,A,B,/static/Simple_RL/Stimuli/Fractals_stims/A.jpg,/static/Simple_RL/Stimuli/Fractals_stims/B.jpg,0.0,20.0,80.0,20.0,60.0,B,A,174.03,0.03,0.0,
153,,rl_choice_confirmation,,html-keyboard-response,153,106164,0.0-1.0-213.0-0.0,0,0,30311,,,,,,30.0,,,,,,,,,,,,,,,,,,,,,,175.5,1.47,,
154,,isi,,html-keyboard-response,154,106266,0.0-1.0-215.0,0,0,30311,,,,,,,,,,,,,,,,,,,,,,,,,,,,177.5,2.0,,
155,,feedback,,html-keyboard-response,155,107269,0.0-1.0-216.0-0.0,0,0,30311,,,,,,30.0,,,,,,,,,,,,,,,,,,,,,,178.5,1.0,,
156,,iti,,html-keyboard-response,156,107374,0.0-1.0-217.0,0,0,30311,,,,,,,,,,,,,,,,,,,,,,,,,,,,180.0,1.5,,
157,,rl_choice,,html-keyboard-response,157,107639,0.0-1.0-219.0,0,0,30311,,264.0,,,75.0,31.0,31.0,1.0,hard,1500.0,2000.0,0.0,40.0,60.0,40.0,80.0,D,C,/static/Simple_RL/Stimuli/Fractals_stims/D.jpg,/static/Simple_RL/Stimuli/Fractals_stims/C.jpg,0.0,60.0,40.0,80.0,40.0,C,D,180.264,0.264,0.0,
158,,rl_choice_confirmation,,html-keyboard-response,158,108879,0.0-1.0-220.0-0.0,0,0,30311,,,,,,31.0,,,,,,,,,,,,,,,,,,,,,,181.5,1.236,,
159,,isi,,html-keyboard-response,159,108981,0.0-1.0-222.0,0,0,30311,,,,,,,,,,,,,,,,,,,,,,,,,,,,183.5,2.0,,
160,,feedback,,html-keyboard-response,160,109984,0.0-1.0-223.0-0.0,0,0,30311,,,,,,31.0,,,,,,,,,,,,,,,,,,,,,,184.5,1.0,,
161,,iti,,html-keyboard-response,161,110085,0.0-1.0-224.0,0,0,30311,,,,,,,,,,,,,,,,,,,,,,,,,,,,186.0,1.5,,
162,,rl_choice,,html-keyboard-response,162,110092,0.0-1.0-226.0,0,0,30311,,6.0,,,68.0,32.0,32.0,1.0,easy,1000.0,1000.0,0.0,20.0,80.0,20.0,80.0,B,A,/static/Simple_RL/Stimuli/Fractals_stims/B.jpg,/static/Simple_RL/Stimuli/Fractals_stims/A.jpg,1.0,20.0,80.0,20.0,80.0,B,A,186.006,0.006,0.0,
163,,rl_choice_confirmation,,html-keyboard-response,163,111588,0.0-1.0-227.0-0.0,0,0,30311,,,,,,32.0,,,,,,,,,,,,,,,,,,,,,,187.5,1.494,,
164,,isi,,html-keyboard-response,164,111691,0.0-1.0-229.0,0,0,30311,,,,,,,,,,,,,,,,,,,,,,,,,,,,188.5,1.0,,
165,,feedback,,html-keyboard-response,165,112693,0.0-1.0-230.0-0.0,0,0,30311,,,,,,32.0,,,,,,,,,,,,,,,,,,,,,,189.5,1.0,,
166,,iti,,html-keyboard-response,166,112795,0.0-1.0-231.0,0,0,30311,,,,,,,,,,,,,,,,,,,,,,,,,,,,190.5,1.0,,
167,,rl_choice,,html-keyboard-response,167,112820,0.0-1.0-233.0,0,0,30311,,24.0,,,75.0,33.0,33.0,1.0,easy,3500.0,1000.0,1.0,80.0,20.0,80.0,40.0,A,B,/static/Simple_RL/Stimuli/Fractals_stims/A.jpg,/static/Simple_RL/Stimuli/Fractals_stims/B.jpg,0.0,20.0,80.0,40.0,80.0,B,A,190.524,0.024,0.0,
168,,rl_choice_confirmation,,html-keyboard-response,168,114299,0.0-1.0-234.0-0.0,0,0,30311,,,,,,33.0,,,,,,,,,,,,,,,,,,,,,,192.0,1.476,,
169,,isi,,html-keyboard-response,169,114400,0.0-1.0-236.0,0,0,30311,,,,,,,,,,,,,,,,,,,,,,,,,,,,193.0,1.0,,
170,,feedback,,html-keyboard-response,170,115403,0.0-1.0-237.0-0.0,0,0,30311,,,,,,33.0,,,,,,,,,,,,,,,,,,,,,,194.0,1.0,,
171,,iti,,html-keyboard-response,171,115507,0.0-1.0-238.0,0,0,30311,,,,,,,,,,,,,,,,,,,,,,,,,,,,197.5,3.5,,
172,,rl_choice,,html-keyboard-response,172,115947,0.0-1.0-240.0,0,0,30311,,439.0,,,75.0,34.0,34.0,1.0,hard,2000.0,1500.0,1.0,60.0,40.0,60.0,20.0,C,D,/static/Simple_RL/Stimuli/Fractals_stims/C.jpg,/static/Simple_RL/Stimuli/Fractals_stims/D.jpg,0.0,40.0,60.0,20.0,60.0,D,C,197.939,0.439,0.0,
173,,rl_choice_confirmation,,html-keyboard-response,173,117010,0.0-1.0-241.0-0.0,0,0,30311,,,,,,34.0,,,,,,,,,,,,,,,,,,,,,,199.0,1.061,,
174,,isi,,html-keyboard-response,174,117112,0.0-1.0-243.0,0,0,30311,,,,,,,,,,,,,,,,,,,,,,,,,,,,200.5,1.5,,
175,,feedback,,html-keyboard-response,175,118119,0.0-1.0-244.0-0.0,0,0,30311,,,,,,34.0,,,,,,,,,,,,,,,,,,,,,,201.5,1.0,,
176,,iti,,html-keyboard-response,176,118224,0.0-1.0-245.0,0,0,30311,,,,,,,,,,,,,,,,,,,,,,,,,,,,203.5,2.0,,
177,,rl_choice,,html-keyboard-response,177,118297,0.0-1.0-247.0,0,0,30311,,72.0,,,75.0,35.0,35.0,1.0,hard,1000.0,3500.0,0.0,40.0,60.0,60.0,80.0,D,C,/static/Simple_RL/Stimuli/Fractals_stims/D.jpg,/static/Simple_RL/Stimuli/Fractals_stims/C.jpg,0.0,60.0,40.0,80.0,60.0,C,D,203.572,0.072,0.0,
178,,rl_choice_confirmation,,html-keyboard-response,178,119731,0.0-1.0-248.0-0.0,0,0,30311,,,,,,35.0,,,,,,,,,,,,,,,,,,,,,,205.0,1.428,,
179,,isi,,html-keyboard-response,179,119835,0.0-1.0-250.0,0,0,30311,,,,,,,,,,,,,,,,,,,,,,,,,,,,208.5,3.5,,
180,,feedback,,html-keyboard-response,180,120836,0.0-1.0-251.0-0.0,0,0,30311,,,,,,35.0,,,,,,,,,,,,,,,,,,,,,,209.5,1.0,,
181,,iti,,html-keyboard-response,181,120940,0.0-1.0-252.0,0,0,30311,,,,,,,,,,,,,,,,,,,,,,,,,,,,210.5,1.0,,
182,,rl_choice,,html-keyboard-response,182,121000,0.0-1.0-254.0,0,0,30311,,59.0,,,75.0,36.0,36.0,1.0,hard,1500.0,1000.0,1.0,60.0,40.0,40.0,40.0,C,D,/static/Simple_RL/Stimuli/Fractals_stims/C.jpg,/static/Simple_RL/Stimuli/Fractals_stims/D.jpg,0.0,40.0,60.0,40.0,40.0,D,C,210.559,0.059,0.0,
183,,rl_choice_confirmation,,html-keyboard-response,183,122448,0.0-1.0-255.0-0.0,0,0,30311,,,,,,36.0,,,,,,,,,,,,,,,,,,,,,,212.0,1.441,,
184,,isi,,html-keyboard-response,184,122549,0.0-1.0-257.0,0,0,30311,,,,,,,,,,,,,,,,,,,,,,,,,,,,213.0,1.0,,
185,,feedback,,html-keyboard-response,185,123553,0.0-1.0-258.0-0.0,0,0,30311,,,,,,36.0,,,,,,,,,,,,,,,,,,,,,,214.0,1.0,,
186,,iti,,html-keyboard-response,186,123657,0.0-1.0-259.0,0,0,30311,,,,,,,,,,,,,,,,,,,,,,,,,,,,215.5,1.5,,
187,,rl_choice,,html-keyboard-response,187,124658,0.0-1.0-261.0,0,0,30311,,999.0,,,75.0,37.0,37.0,1.0,easy,1000.0,1000.0,0.0,20.0,80.0,0.0,100.0,B,A,/static/Simple_RL/Stimuli/Fractals_stims/B.jpg,/static/Simple_RL/Stimuli/Fractals_stims/A.jpg,0.0,80.0,20.0,100.0,0.0,A,B,216.499,0.999,0.0,
188,,rl_choice_confirmation,,html-keyboard-response,188,125163,0.0-1.0-262.0-0.0,0,0,30311,,,,,,37.0,,,,,,,,,,,,,,,,,,,,,,217.0,0.501,,
189,,isi,,html-keyboard-response,189,125267,0.0-1.0-264.0,0,0,30311,,,,,,,,,,,,,,,,,,,,,,,,,,,,218.0,1.0,,
190,,feedback,,html-keyboard-response,190,126272,0.0-1.0-265.0-0.0,0,0,30311,,,,,,37.0,,,,,,,,,,,,,,,,,,,,,,219.0,1.0,,
191,,iti,,html-keyboard-response,191,126374,0.0-1.0-266.0,0,0,30311,,,,,,,,,,,,,,,,,,,,,,,,,,,,220.0,1.0,,
192,,rl_choice,,html-keyboard-response,192,126674,0.0-1.0-268.0,0,0,30311,,298.0,,,68.0,38.0,38.0,1.0,hard,1500.0,1000.0,0.0,40.0,60.0,40.0,60.0,D,C,/static/Simple_RL/Stimuli/Fractals_stims/D.jpg,/static/Simple_RL/Stimuli/Fractals_stims/C.jpg,1.0,40.0,60.0,40.0,60.0,D,C,220.298,0.298,0.0,
193,,rl_choice_confirmation,,html-keyboard-response,193,127877,0.0-1.0-269.0-0.0,0,0,30311,,,,,,38.0,,,,,,,,,,,,,,,,,,,,,,221.5,1.202,,
194,,isi,,html-keyboard-response,194,127979,0.0-1.0-271.0,0,0,30311,,,,,,,,,,,,,,,,,,,,,,,,,,,,222.5,1.0,,
195,,feedback,,html-keyboard-response,195,128983,0.0-1.0-272.0-0.0,0,0,30311,,,,,,38.0,,,,,,,,,,,,,,,,,,,,,,223.5,1.0,,
196,,iti,,html-keyboard-response,196,129088,0.0-1.0-273.0,0,0,30311,,,,,,,,,,,,,,,,,,,,,,,,,,,,225.0,1.5,,
197,,rl_choice,,html-keyboard-response,197,130592,0.0-1.0-275.0,0,0,30311,,,,,,39.0,39.0,1.0,hard,1500.0,3000.0,0.0,40.0,60.0,60.0,60.0,D,C,/static/Simple_RL/Stimuli/Fractals_stims/D.jpg,/static/Simple_RL/Stimuli/Fractals_stims/C.jpg,,,,,,,,226.5,1.5,1.0,
198,,rl_choice_warning,,html-keyboard-response,198,131594,0.0-1.0-277.0-0.0,0,0,30311,,,,,,,,,,,,,,,,,,,,,,,,,,,,227.5,1.0,,
199,,isi,,html-keyboard-response,199,131698,0.0-1.0-278.0,0,0,30311,,,,,,,,,,,,,,,,,,,,,,,,,,,,230.5,3.0,,
200,,iti,,html-keyboard-response,200,131802,0.0-1.0-280.0,0,0,30311,,,,,,,,,,,,,,,,,,,,,,,,,,,,232.0,1.5,,
201,,block_over,,html-keyboard-response,201,137035,0.0-1.0-281.0-0.0,0,0,30311,,5232.0,,,68.0,39.0,,,,,,,,,,,,,,,,,,,,,,,,,
202,,start_run,,html-keyboard-response,202,147902,0.0-1.0-281.0-1.0,0,0,30311,,10866.0,,,84.0,,,,,,,,,,,,,,,,,,,,,,,,,,
203,,rl_choice,,html-keyboard-response,203,148267,0.0-1.0-282.0,0,0,30311,,363.0,,,75.0,40.0,40.0,2.0,easy,3000.0,1000.0,1.0,80.0,20.0,80.0,40.0,A,B,/static/Simple_RL/Stimuli/Fractals_stims/A.jpg,/static/Simple_RL/Stimuli/Fractals_stims/B.jpg,0.0,20.0,80.0,40.0,80.0,B,A,0.363,0.363,0.0,
204,,rl_choice_confirmation,,html-keyboard-response,204,149410,0.0-1.0-283.0-0.0,0,0,30311,,,,,,40.0,,,,,,,,,,,,,,,,,,,,,,1.5,1.137,,
205,,isi,,html-keyboard-response,205,149515,0.0-1.0-285.0,0,0,30311,,,,,,,,,,,,,,,,,,,,,,,,,,,,2.5,1.0,,
206,,feedback,,html-keyboard-response,206,150518,0.0-1.0-286.0-0.0,0,0,30311,,,,,,40.0,,,,,,,,,,,,,,,,,,,,,,3.5,1.0,,
207,,iti,,html-keyboard-response,207,150619,0.0-1.0-287.0,0,0,30311,,,,,,,,,,,,,,,,,,,,,,,,,,,,6.5,3.0,,
208,,rl_choice,,html-keyboard-response,208,150770,0.0-1.0-289.0,0,0,30311,,150.0,,,75.0,41.0,41.0,2.0,hard,1500.0,1000.0,1.0,60.0,40.0,60.0,40.0,C,D,/static/Simple_RL/Stimuli/Fractals_stims/C.jpg,/static/Simple_RL/Stimuli/Fractals_stims/D.jpg,0.0,40.0,60.0,40.0,60.0,D,C,6.65,0.15,0.0,
209,,rl_choice_confirmation,,html-keyboard-response,209,152123,0.0-1.0-290.0-0.0,0,0,30311,,,,,,41.0,,,,,,,,,,,,,,,,,,,,,,8.0,1.35,,
210,,isi,,html-keyboard-response,210,152229,0.0-1.0-292.0,0,0,30311,,,,,,,,,,,,,,,,,,,,,,,,,,,,9.0,1.0,,
211,,feedback,,html-keyboard-response,211,153233,0.0-1.0-293.0-0.0,0,0,30311,,,,,,41.0,,,,,,,,,,,,,,,,,,,,,,10.0,1.0,,
212,,iti,,html-keyboard-response,212,153339,0.0-1.0-294.0,0,0,30311,,,,,,,,,,,,,,,,,,,,,,,,,,,,11.5,1.5,,
213,,rl_choice,,html-keyboard-response,213,153629,0.0-1.0-296.0,0,0,30311,,289.0,,,75.0,42.0,42.0,2.0,easy,1000.0,2000.0,0.0,20.0,80.0,20.0,60.0,B,A,/static/Simple_RL/Stimuli/Fractals_stims/B.jpg,/static/Simple_RL/Stimuli/Fractals_stims/A.jpg,0.0,80.0,20.0,60.0,20.0,A,B,11.789,0.289,0.0,
214,,rl_choice_confirmation,,html-keyboard-response,214,154846,0.0-1.0-297.0-0.0,0,0,30311,,,,,,42.0,,,,,,,,,,,,,,,,,,,,,,13.0,1.211,,
215,,isi,,html-keyboard-response,215,154951,0.0-1.0-299.0,0,0,30311,,,,,,,,,,,,,,,,,,,,,,,,,,,,15.0,2.0,,
216,,feedback,,html-keyboard-response,216,155957,0.0-1.0-300.0-0.0,0,0,30311,,,,,,42.0,,,,,,,,,,,,,,,,,,,,,,16.0,1.0,,
217,,iti,,html-keyboard-response,217,156059,0.0-1.0-301.0,0,0,30311,,,,,,,,,,,,,,,,,,,,,,,,,,,,17.0,1.0,,
218,,rl_choice,,html-keyboard-response,218,156207,0.0-1.0-303.0,0,0,30311,,147.0,,,75.0,43.0,43.0,2.0,hard,1000.0,1000.0,0.0,40.0,60.0,60.0,40.0,D,C,/static/Simple_RL/Stimuli/Fractals_stims/D.jpg,/static/Simple_RL/Stimuli/Fractals_stims/C.jpg,0.0,60.0,40.0,40.0,60.0,C,D,17.147,0.147,0.0,
219,,rl_choice_confirmation,,html-keyboard-response,219,157566,0.0-1.0-304.0-0.0,0,0,30311,,,,,,43.0,,,,,,,,,,,,,,,,,,,,,,18.5,1.353,,
220,,isi,,html-keyboard-response,220,157670,0.0-1.0-306.0,0,0,30311,,,,,,,,,,,,,,,,,,,,,,,,,,,,19.5,1.0,,
221,,feedback,,html-keyboard-response,221,158672,0.0-1.0-307.0-0.0,0,0,30311,,,,,,43.0,,,,,,,,,,,,,,,,,,,,,,20.5,1.0,,
222,,iti,,html-keyboard-response,222,158774,0.0-1.0-308.0,0,0,30311,,,,,,,,,,,,,,,,,,,,,,,,,,,,21.5,1.0,,
223,,rl_choice,,html-keyboard-response,223,158893,0.0-1.0-310.0,0,0,30311,,117.0,,,75.0,44.0,44.0,2.0,hard,2000.0,3000.0,0.0,40.0,60.0,20.0,40.0,D,C,/static/Simple_RL/Stimuli/Fractals_stims/D.jpg,/static/Simple_RL/Stimuli/Fractals_stims/C.jpg,0.0,60.0,40.0,40.0,20.0,C,D,21.617,0.117,0.0,
224,,rl_choice_confirmation,,html-keyboard-response,224,160278,0.0-1.0-311.0-0.0,0,0,30311,,,,,,44.0,,,,,,,,,,,,,,,,,,,,,,23.0,1.383,,
225,,isi,,html-keyboard-response,225,160380,0.0-1.0-313.0,0,0,30311,,,,,,,,,,,,,,,,,,,,,,,,,,,,26.0,3.0,,
226,,feedback,,html-keyboard-response,226,161387,0.0-1.0-314.0-0.0,0,0,30311,,,,,,44.0,,,,,,,,,,,,,,,,,,,,,,27.0,1.0,,
227,,iti,,html-keyboard-response,227,161488,0.0-1.0-315.0,0,0,30311,,,,,,,,,,,,,,,,,,,,,,,,,,,,29.0,2.0,,
228,,rl_choice,,html-keyboard-response,228,161862,0.0-1.0-317.0,0,0,30311,,371.0,,,75.0,45.0,45.0,2.0,hard,1500.0,3500.0,0.0,40.0,60.0,20.0,80.0,D,C,/static/Simple_RL/Stimuli/Fractals_stims/D.jpg,/static/Simple_RL/Stimuli/Fractals_stims/C.jpg,0.0,60.0,40.0,80.0,20.0,C,D,29.371,0.371,0.0,
229,,rl_choice_confirmation,,html-keyboard-response,229,162994,0.0-1.0-318.0-0.0,0,0,30311,,,,,,45.0,,,,,,,,,,,,,,,,,,,,,,30.5,1.129,,
230,,isi,,html-keyboard-response,230,163099,0.0-1.0-320.0,0,0,30311,,,,,,,,,,,,,,,,,,,,,,,,,,,,34.0,3.5,,
231,,feedback,,html-keyboard-response,231,164101,0.0-1.0-321.0-0.0,0,0,30311,,,,,,45.0,,,,,,,,,,,,,,,,,,,,,,35.0,1.0,,
232,,iti,,html-keyboard-response,232,164202,0.0-1.0-322.0,0,0,30311,,,,,,,,,,,,,,,,,,,,,,,,,,,,36.5,1.5,,
233,,rl_choice,,html-keyboard-response,233,164293,0.0-1.0-324.0,0,0,30311,,90.0,,,75.0,46.0,46.0,2.0,hard,1000.0,1000.0,1.0,60.0,40.0,80.0,60.0,C,D,/static/Simple_RL/Stimuli/Fractals_stims/C.jpg,/static/Simple_RL/Stimuli/Fractals_stims/D.jpg,0.0,40.0,60.0,60.0,80.0,D,C,36.59,0.09,0.0,
234,,rl_choice_confirmation,,html-keyboard-response,234,165707,0.0-1.0-325.0-0.0,0,0,30311,,,,,,46.0,,,,,,,,,,,,,,,,,,,,,,38.0,1.41,,
235,,isi,,html-keyboard-response,235,165808,0.0-1.0-327.0,0,0,30311,,,,,,,,,,,,,,,,,,,,,,,,,,,,39.0,1.0,,
236,,feedback,,html-keyboard-response,236,166812,0.0-1.0-328.0-0.0,0,0,30311,,,,,,46.0,,,,,,,,,,,,,,,,,,,,,,40.0,1.0,,
237,,iti,,html-keyboard-response,237,166918,0.0-1.0-329.0,0,0,30311,,,,,,,,,,,,,,,,,,,,,,,,,,,,41.0,1.0,,
238,,rl_choice,,html-keyboard-response,238,167028,0.0-1.0-331.0,0,0,30311,,109.0,,,75.0,47.0,47.0,2.0,hard,1500.0,2000.0,0.0,40.0,60.0,40.0,60.0,D,C,/static/Simple_RL/Stimuli/Fractals_stims/D.jpg,/static/Simple_RL/Stimuli/Fractals_stims/C.jpg,0.0,60.0,40.0,60.0,40.0,C,D,41.109,0.109,0.0,
239,,rl_choice_confirmation,,html-keyboard-response,239,168422,0.0-1.0-332.0-0.0,0,0,30311,,,,,,47.0,,,,,,,,,,,,,,,,,,,,,,42.5,1.391,,
240,,isi,,html-keyboard-response,240,168523,0.0-1.0-334.0,0,0,30311,,,,,,,,,,,,,,,,,,,,,,,,,,,,44.5,2.0,,
241,,feedback,,html-keyboard-response,241,169529,0.0-1.0-335.0-0.0,0,0,30311,,,,,,47.0,,,,,,,,,,,,,,,,,,,,,,45.5,1.0,,
242,,iti,,html-keyboard-response,242,169634,0.0-1.0-336.0,0,0,30311,,,,,,,,,,,,,,,,,,,,,,,,,,,,47.0,1.5,,
243,,rl_choice,,html-keyboard-response,243,169961,0.0-1.0-338.0,0,0,30311,,326.0,,,75.0,48.0,48.0,2.0,easy,3500.0,1500.0,1.0,80.0,20.0,100.0,20.0,A,B,/static/Simple_RL/Stimuli/Fractals_stims/A.jpg,/static/Simple_RL/Stimuli/Fractals_stims/B.jpg,0.0,20.0,80.0,20.0,100.0,B,A,47.326,0.326,0.0,
244,,rl_choice_confirmation,,html-keyboard-response,244,171141,0.0-1.0-339.0-0.0,0,0,30311,,,,,,48.0,,,,,,,,,,,,,,,,,,,,,,48.5,1.174,,
245,,isi,,html-keyboard-response,245,171245,0.0-1.0-341.0,0,0,30311,,,,,,,,,,,,,,,,,,,,,,,,,,,,50.0,1.5,,
246,,feedback,,html-keyboard-response,246,172251,0.0-1.0-342.0-0.0,0,0,30311,,,,,,48.0,,,,,,,,,,,,,,,,,,,,,,51.0,1.0,,
247,,iti,,html-keyboard-response,247,172355,0.0-1.0-343.0,0,0,30311,,,,,,,,,,,,,,,,,,,,,,,,,,,,54.5,3.5,,
248,,rl_choice,,html-keyboard-response,248,173373,0.0-1.0-345.0,0,0,30311,,1017.0,,,75.0,49.0,49.0,2.0,hard,2000.0,2000.0,1.0,60.0,40.0,80.0,40.0,C,D,/static/Simple_RL/Stimuli/Fractals_stims/C.jpg,/static/Simple_RL/Stimuli/Fractals_stims/D.jpg,0.0,40.0,60.0,40.0,80.0,D,C,55.517,1.017,0.0,
249,,rl_choice_confirmation,,html-keyboard-response,249,173860,0.0-1.0-346.0-0.0,0,0,30311,,,,,,49.0,,,,,,,,,,,,,,,,,,,,,,56.0,0.483,,
250,,isi,,html-keyboard-response,250,173963,0.0-1.0-348.0,0,0,30311,,,,,,,,,,,,,,,,,,,,,,,,,,,,58.0,2.0,,
251,,feedback,,html-keyboard-response,251,174966,0.0-1.0-349.0-0.0,0,0,30311,,,,,,49.0,,,,,,,,,,,,,,,,,,,,,,59.0,1.0,,
252,,iti,,html-keyboard-response,252,175067,0.0-1.0-350.0,0,0,30311,,,,,,,,,,,,,,,,,,,,,,,,,,,,61.0,2.0,,
253,,rl_choice,,html-keyboard-response,253,175419,0.0-1.0-352.0,0,0,30311,,351.0,,,75.0,50.0,50.0,2.0,easy,1500.0,2000.0,1.0,80.0,20.0,100.0,0.0,A,B,/static/Simple_RL/Stimuli/Fractals_stims/A.jpg,/static/Simple_RL/Stimuli/Fractals_stims/B.jpg,0.0,20.0,80.0,0.0,100.0,B,A,61.351,0.351,0.0,
254,,rl_choice_confirmation,,html-keyboard-response,254,176570,0.0-1.0-353.0-0.0,0,0,30311,,,,,,50.0,,,,,,,,,,,,,,,,,,,,,,62.5,1.149,,
255,,isi,,html-keyboard-response,255,176673,0.0-1.0-355.0,0,0,30311,,,,,,,,,,,,,,,,,,,,,,,,,,,,64.5,2.0,,
256,,feedback,,html-keyboard-response,256,177675,0.0-1.0-356.0-0.0,0,0,30311,,,,,,50.0,,,,,,,,,,,,,,,,,,,,,,65.5,1.0,,
257,,iti,,html-keyboard-response,257,177776,0.0-1.0-357.0,0,0,30311,,,,,,,,,,,,,,,,,,,,,,,,,,,,67.0,1.5,,
258,,rl_choice,,html-keyboard-response,258,177990,0.0-1.0-359.0,0,0,30311,,211.0,,,75.0,51.0,51.0,2.0,easy,1500.0,3000.0,0.0,20.0,80.0,20.0,60.0,B,A,/static/Simple_RL/Stimuli/Fractals_stims/B.jpg,/static/Simple_RL/Stimuli/Fractals_stims/A.jpg,0.0,80.0,20.0,60.0,20.0,A,B,67.211,0.211,0.0,
259,,rl_choice_confirmation,,html-keyboard-response,259,179284,0.0-1.0-360.0-0.0,0,0,30311,,,,,,51.0,,,,,,,,,,,,,,,,,,,,,,68.5,1.289,,
260,,isi,,html-keyboard-response,260,179387,0.0-1.0-362.0,0,0,30311,,,,,,,,,,,,,,,,,,,,,,,,,,,,71.5,3.0,,
261,,feedback,,html-keyboard-response,261,180390,0.0-1.0-363.0-0.0,0,0,30311,,,,,,51.0,,,,,,,,,,,,,,,,,,,,,,72.5,1.0,,
262,,iti,,html-keyboard-response,262,180491,0.0-1.0-364.0,0,0,30311,,,,,,,,,,,,,,,,,,,,,,,,,,,,74.0,1.5,,
263,,rl_choice,,html-keyboard-response,263,181338,0.0-1.0-366.0,0,0,30311,,846.0,,,75.0,52.0,52.0,2.0,hard,3500.0,2000.0,0.0,40.0,60.0,60.0,40.0,D,C,/static/Simple_RL/Stimuli/Fractals_stims/D.jpg,/static/Simple_RL/Stimuli/Fractals_stims/C.jpg,0.0,60.0,40.0,40.0,60.0,C,D,74.846,0.846,0.0,
264,,rl_choice_confirmation,,html-keyboard-response,264,181998,0.0-1.0-367.0-0.0,0,0,30311,,,,,,52.0,,,,,,,,,,,,,,,,,,,,,,75.5,0.654,,
265,,isi,,html-keyboard-response,265,182101,0.0-1.0-369.0,0,0,30311,,,,,,,,,,,,,,,,,,,,,,,,,,,,77.5,2.0,,
266,,feedback,,html-keyboard-response,266,183105,0.0-1.0-370.0-0.0,0,0,30311,,,,,,52.0,,,,,,,,,,,,,,,,,,,,,,78.5,1.0,,
267,,iti,,html-keyboard-response,267,183211,0.0-1.0-371.0,0,0,30311,,,,,,,,,,,,,,,,,,,,,,,,,,,,82.0,3.5,,
268,,rl_choice,,html-keyboard-response,268,184339,0.0-1.0-373.0,0,0,30311,,1127.0,,,75.0,53.0,53.0,2.0,easy,1500.0,2000.0,0.0,20.0,80.0,0.0,60.0,B,A,/static/Simple_RL/Stimuli/Fractals_stims/B.jpg,/static/Simple_RL/Stimuli/Fractals_stims/A.jpg,0.0,80.0,20.0,60.0,0.0,A,B,83.127,1.127,0.0,
269,,rl_choice_confirmation,,html-keyboard-response,269,184715,0.0-1.0-374.0-0.0,0,0,30311,,,,,,53.0,,,,,,,,,,,,,,,,,,,,,,83.5,0.373,,
270,,isi,,html-keyboard-response,270,184817,0.0-1.0-376.0,0,0,30311,,,,,,,,,,,,,,,,,,,,,,,,,,,,85.5,2.0,,
271,,feedback,,html-keyboard-response,271,185823,0.0-1.0-377.0-0.0,0,0,30311,,,,,,53.0,,,,,,,,,,,,,,,,,,,,,,86.5,1.0,,
272,,iti,,html-keyboard-response,272,185929,0.0-1.0-378.0,0,0,30311,,,,,,,,,,,,,,,,,,,,,,,,,,,,88.0,1.5,,
273,,rl_choice,,html-keyboard-response,273,187388,0.0-1.0-380.0,0,0,30311,,1457.0,,,75.0,54.0,54.0,2.0,easy,1000.0,1000.0,0.0,20.0,80.0,20.0,60.0,B,A,/static/Simple_RL/Stimuli/Fractals_stims/B.jpg,/static/Simple_RL/Stimuli/Fractals_stims/A.jpg,0.0,80.0,20.0,60.0,20.0,A,B,89.457,1.457,0.0,
274,,rl_choice_confirmation,,html-keyboard-response,274,187437,0.0-1.0-381.0-0.0,0,0,30311,,,,,,54.0,,,,,,,,,,,,,,,,,,,,,,89.5,0.043,,
275,,isi,,html-keyboard-response,275,187542,0.0-1.0-383.0,0,0,30311,,,,,,,,,,,,,,,,,,,,,,,,,,,,90.5,1.0,,
276,,feedback,,html-keyboard-response,276,188548,0.0-1.0-384.0-0.0,0,0,30311,,,,,,54.0,,,,,,,,,,,,,,,,,,,,,,91.5,1.0,,
277,,iti,,html-keyboard-response,277,188651,0.0-1.0-385.0,0,0,30311,,,,,,,,,,,,,,,,,,,,,,,,,,,,92.5,1.0,,
278,,rl_choice,,html-keyboard-response,278,188707,0.0-1.0-387.0,0,0,30311,,55.0,,,75.0,55.0,55.0,2.0,hard,1500.0,2000.0,1.0,60.0,40.0,80.0,40.0,C,D,/static/Simple_RL/Stimuli/Fractals_stims/C.jpg,/static/Simple_RL/Stimuli/Fractals_stims/D.jpg,0.0,40.0,60.0,40.0,80.0,D,C,92.555,0.055,0.0,
279,,rl_choice_confirmation,,html-keyboard-response,279,190155,0.0-1.0-388.0-0.0,0,0,30311,,,,,,55.0,,,,,,,,,,,,,,,,,,,,,,94.0,1.445,,
280,,isi,,html-keyboard-response,280,190257,0.0-1.0-390.0,0,0,30311,,,,,,,,,,,,,,,,,,,,,,,,,,,,96.0,2.0,,
281,,feedback,,html-keyboard-response,281,191258,0.0-1.0-391.0-0.0,0,0,30311,,,,,,55.0,,,,,,,,,,,,,,,,,,,,,,97.0,1.0,,
282,,iti,,html-keyboard-response,282,191360,0.0-1.0-392.0,0,0,30311,,,,,,,,,,,,,,,,,,,,,,,,,,,,98.5,1.5,,
283,,rl_choice,,html-keyboard-response,283,191504,0.0-1.0-394.0,0,0,30311,,143.0,,,75.0,56.0,56.0,2.0,easy,1000.0,1000.0,1.0,80.0,20.0,80.0,40.0,A,B,/static/Simple_RL/Stimuli/Fractals_stims/A.jpg,/static/Simple_RL/Stimuli/Fractals_stims/B.jpg,0.0,20.0,80.0,40.0,80.0,B,A,98.643,0.143,0.0,
284,,rl_choice_confirmation,,html-keyboard-response,284,192865,0.0-1.0-395.0-0.0,0,0,30311,,,,,,56.0,,,,,,,,,,,,,,,,,,,,,,100.0,1.357,,
285,,isi,,html-keyboard-response,285,192966,0.0-1.0-397.0,0,0,30311,,,,,,,,,,,,,,,,,,,,,,,,,,,,101.0,1.0,,
286,,feedback,,html-keyboard-response,286,193969,0.0-1.0-398.0-0.0,0,0,30311,,,,,,56.0,,,,,,,,,,,,,,,,,,,,,,102.0,1.0,,
287,,iti,,html-keyboard-response,287,194072,0.0-1.0-399.0,0,0,30311,,,,,,,,,,,,,,,,,,,,,,,,,,,,103.0,1.0,,
288,,rl_choice,,html-keyboard-response,288,194390,0.0-1.0-401.0,0,0,30311,,316.0,,,68.0,57.0,57.0,2.0,easy,2000.0,3000.0,1.0,80.0,20.0,60.0,0.0,A,B,/static/Simple_RL/Stimuli/Fractals_stims/A.jpg,/static/Simple_RL/Stimuli/Fractals_stims/B.jpg,1.0,80.0,20.0,60.0,0.0,A,B,103.316,0.316,0.0,
289,,rl_choice_confirmation,,html-keyboard-response,289,195579,0.0-1.0-402.0-0.0,0,0,30311,,,,,,57.0,,,,,,,,,,,,,,,,,,,,,,104.5,1.184,,
290,,isi,,html-keyboard-response,290,195681,0.0-1.0-404.0,0,0,30311,,,,,,,,,,,,,,,,,,,,,,,,,,,,107.5,3.0,,
291,,feedback,,html-keyboard-response,291,196683,0.0-1.0-405.0-0.0,0,0,30311,,,,,,57.0,,,,,,,,,,,,,,,,,,,,,,108.5,1.0,,
292,,iti,,html-keyboard-response,292,196784,0.0-1.0-406.0,0,0,30311,,,,,,,,,,,,,,,,,,,,,,,,,,,,110.5,2.0,,
293,,rl_choice,,html-keyboard-response,293,197087,0.0-1.0-408.0,0,0,30311,,301.0,,,75.0,58.0,58.0,2.0,hard,2000.0,1000.0,1.0,60.0,40.0,40.0,40.0,C,D,/static/Simple_RL/Stimuli/Fractals_stims/C.jpg,/static/Simple_RL/Stimuli/Fractals_stims/D.jpg,0.0,40.0,60.0,40.0,40.0,D,C,110.801,0.301,0.0,
294,,rl_choice_confirmation,,html-keyboard-response,294,198292,0.0-1.0-409.0-0.0,0,0,30311,,,,,,58.0,,,,,,,,,,,,,,,,,,,,,,112.0,1.199,,
295,,isi,,html-keyboard-response,295,198395,0.0-1.0-411.0,0,0,30311,,,,,,,,,,,,,,,,,,,,,,,,,,,,113.0,1.0,,
296,,feedback,,html-keyboard-response,296,199401,0.0-1.0-412.0-0.0,0,0,30311,,,,,,58.0,,,,,,,,,,,,,,,,,,,,,,114.0,1.0,,
297,,iti,,html-keyboard-response,297,199504,0.0-1.0-413.0,0,0,30311,,,,,,,,,,,,,,,,,,,,,,,,,,,,116.0,2.0,,
298,,rl_choice,,html-keyboard-response,298,199726,0.0-1.0-415.0,0,0,30311,,221.0,,,75.0,59.0,59.0,2.0,easy,1000.0,1500.0,1.0,80.0,20.0,80.0,0.0,A,B,/static/Simple_RL/Stimuli/Fractals_stims/A.jpg,/static/Simple_RL/Stimuli/Fractals_stims/B.jpg,0.0,20.0,80.0,0.0,80.0,B,A,116.221,0.221,0.0,
299,,rl_choice_confirmation,,html-keyboard-response,299,201010,0.0-1.0-416.0-0.0,0,0,30311,,,,,,59.0,,,,,,,,,,,,,,,,,,,,,,117.5,1.279,,
300,,isi,,html-keyboard-response,300,201115,0.0-1.0-418.0,0,0,30311,,,,,,,,,,,,,,,,,,,,,,,,,,,,119.0,1.5,,
301,,feedback,,html-keyboard-response,301,202118,0.0-1.0-419.0-0.0,0,0,30311,,,,,,59.0,,,,,,,,,,,,,,,,,,,,,,120.0,1.0,,
302,,iti,,html-keyboard-response,302,202219,0.0-1.0-420.0,0,0,30311,,,,,,,,,,,,,,,,,,,,,,,,,,,,121.0,1.0,,
303,,rl_choice,,html-keyboard-response,303,202225,0.0-1.0-422.0,0,0,30311,,5.0,,,75.0,60.0,60.0,2.0,easy,1000.0,3500.0,1.0,80.0,20.0,80.0,0.0,A,B,/static/Simple_RL/Stimuli/Fractals_stims/A.jpg,/static/Simple_RL/Stimuli/Fractals_stims/B.jpg,0.0,20.0,80.0,0.0,80.0,B,A,121.005,0.005,0.0,
304,,rl_choice_confirmation,,html-keyboard-response,304,203723,0.0-1.0-423.0-0.0,0,0,30311,,,,,,60.0,,,,,,,,,,,,,,,,,,,,,,122.5,1.495,,
305,,isi,,html-keyboard-response,305,203825,0.0-1.0-425.0,0,0,30311,,,,,,,,,,,,,,,,,,,,,,,,,,,,126.0,3.5,,
306,,feedback,,html-keyboard-response,306,204827,0.0-1.0-426.0-0.0,0,0,30311,,,,,,60.0,,,,,,,,,,,,,,,,,,,,,,127.0,1.0,,
307,,iti,,html-keyboard-response,307,204929,0.0-1.0-427.0,0,0,30311,,,,,,,,,,,,,,,,,,,,,,,,,,,,128.0,1.0,,
308,,rl_choice,,html-keyboard-response,308,205162,0.0-1.0-429.0,0,0,30311,,232.0,,,75.0,61.0,61.0,2.0,hard,3000.0,1500.0,0.0,40.0,60.0,40.0,60.0,D,C,/static/Simple_RL/Stimuli/Fractals_stims/D.jpg,/static/Simple_RL/Stimuli/Fractals_stims/C.jpg,0.0,60.0,40.0,60.0,40.0,C,D,128.232,0.232,0.0,
309,,rl_choice_confirmation,,html-keyboard-response,309,206432,0.0-1.0-430.0-0.0,0,0,30311,,,,,,61.0,,,,,,,,,,,,,,,,,,,,,,129.5,1.268,,
310,,isi,,html-keyboard-response,310,206537,0.0-1.0-432.0,0,0,30311,,,,,,,,,,,,,,,,,,,,,,,,,,,,131.0,1.5,,
311,,feedback,,html-keyboard-response,311,207542,0.0-1.0-433.0-0.0,0,0,30311,,,,,,61.0,,,,,,,,,,,,,,,,,,,,,,132.0,1.0,,
312,,iti,,html-keyboard-response,312,207643,0.0-1.0-434.0,0,0,30311,,,,,,,,,,,,,,,,,,,,,,,,,,,,135.0,3.0,,
313,,rl_choice,,html-keyboard-response,313,207762,0.0-1.0-436.0,0,0,30311,,118.0,,,68.0,62.0,62.0,2.0,easy,1000.0,1500.0,0.0,20.0,80.0,40.0,100.0,B,A,/static/Simple_RL/Stimuli/Fractals_stims/B.jpg,/static/Simple_RL/Stimuli/Fractals_stims/A.jpg,1.0,20.0,80.0,40.0,100.0,B,A,135.118,0.118,0.0,
314,,rl_choice_confirmation,,html-keyboard-response,314,209147,0.0-1.0-437.0-0.0,0,0,30311,,,,,,62.0,,,,,,,,,,,,,,,,,,,,,,136.5,1.382,,
315,,isi,,html-keyboard-response,315,209252,0.0-1.0-439.0,0,0,30311,,,,,,,,,,,,,,,,,,,,,,,,,,,,138.0,1.5,,
316,,feedback,,html-keyboard-response,316,210257,0.0-1.0-440.0-0.0,0,0,30311,,,,,,62.0,,,,,,,,,,,,,,,,,,,,,,139.0,1.0,,
317,,iti,,html-keyboard-response,317,210363,0.0-1.0-441.0,0,0,30311,,,,,,,,,,,,,,,,,,,,,,,,,,,,140.0,1.0,,
318,,rl_choice,,html-keyboard-response,318,210647,0.0-1.0-443.0,0,0,30311,,282.0,,,75.0,63.0,63.0,2.0,easy,2000.0,1500.0,1.0,80.0,20.0,60.0,0.0,A,B,/static/Simple_RL/Stimuli/Fractals_stims/A.jpg,/static/Simple_RL/Stimuli/Fractals_stims/B.jpg,0.0,20.0,80.0,0.0,60.0,B,A,140.282,0.282,0.0,
319,,rl_choice_confirmation,,html-keyboard-response,319,211867,0.0-1.0-444.0-0.0,0,0,30311,,,,,,63.0,,,,,,,,,,,,,,,,,,,,,,141.5,1.218,,
320,,isi,,html-keyboard-response,320,211970,0.0-1.0-446.0,0,0,30311,,,,,,,,,,,,,,,,,,,,,,,,,,,,143.0,1.5,,
321,,feedback,,html-keyboard-response,321,212975,0.0-1.0-447.0-0.0,0,0,30311,,,,,,63.0,,,,,,,,,,,,,,,,,,,,,,144.0,1.0,,
322,,iti,,html-keyboard-response,322,213078,0.0-1.0-448.0,0,0,30311,,,,,,,,,,,,,,,,,,,,,,,,,,,,146.0,2.0,,
323,,rl_choice,,html-keyboard-response,323,213206,0.0-1.0-450.0,0,0,30311,,127.0,,,75.0,64.0,64.0,2.0,hard,1500.0,1000.0,0.0,40.0,60.0,40.0,60.0,D,C,/static/Simple_RL/Stimuli/Fractals_stims/D.jpg,/static/Simple_RL/Stimuli/Fractals_stims/C.jpg,0.0,60.0,40.0,60.0,40.0,C,D,146.127,0.127,0.0,
324,,rl_choice_confirmation,,html-keyboard-response,324,214582,0.0-1.0-451.0-0.0,0,0,30311,,,,,,64.0,,,,,,,,,,,,,,,,,,,,,,147.5,1.373,,
325,,isi,,html-keyboard-response,325,214683,0.0-1.0-453.0,0,0,30311,,,,,,,,,,,,,,,,,,,,,,,,,,,,148.5,1.0,,
326,,feedback,,html-keyboard-response,326,215686,0.0-1.0-454.0-0.0,0,0,30311,,,,,,64.0,,,,,,,,,,,,,,,,,,,,,,149.5,1.0,,
327,,iti,,html-keyboard-response,327,215787,0.0-1.0-455.0,0,0,30311,,,,,,,,,,,,,,,,,,,,,,,,,,,,151.0,1.5,,
328,,rl_choice,,html-keyboard-response,328,215885,0.0-1.0-457.0,0,0,30311,,97.0,,,68.0,65.0,65.0,2.0,hard,1000.0,1000.0,0.0,40.0,60.0,60.0,80.0,D,C,/static/Simple_RL/Stimuli/Fractals_stims/D.jpg,/static/Simple_RL/Stimuli/Fractals_stims/C.jpg,1.0,40.0,60.0,60.0,80.0,D,C,151.097,0.097,0.0,
329,,rl_choice_confirmation,,html-keyboard-response,329,217290,0.0-1.0-458.0-0.0,0,0,30311,,,,,,65.0,,,,,,,,,,,,,,,,,,,,,,152.5,1.403,,
330,,isi,,html-keyboard-response,330,217394,0.0-1.0-460.0,0,0,30311,,,,,,,,,,,,,,,,,,,,,,,,,,,,153.5,1.0,,
331,,feedback,,html-keyboard-response,331,218397,0.0-1.0-461.0-0.0,0,0,30311,,,,,,65.0,,,,,,,,,,,,,,,,,,,,,,154.5,1.0,,
332,,iti,,html-keyboard-response,332,218501,0.0-1.0-462.0,0,0,30311,,,,,,,,,,,,,,,,,,,,,,,,,,,,155.5,1.0,,
333,,rl_choice,,html-keyboard-response,333,218761,0.0-1.0-464.0,0,0,30311,,259.0,,,68.0,66.0,66.0,2.0,easy,2000.0,1500.0,1.0,80.0,20.0,80.0,0.0,A,B,/static/Simple_RL/Stimuli/Fractals_stims/A.jpg,/static/Simple_RL/Stimuli/Fractals_stims/B.jpg,1.0,80.0,20.0,80.0,0.0,A,B,155.759,0.259,0.0,
334,,rl_choice_confirmation,,html-keyboard-response,334,220007,0.0-1.0-465.0-0.0,0,0,30311,,,,,,66.0,,,,,,,,,,,,,,,,,,,,,,157.0,1.241,,
335,,isi,,html-keyboard-response,335,220113,0.0-1.0-467.0,0,0,30311,,,,,,,,,,,,,,,,,,,,,,,,,,,,158.5,1.5,,
336,,feedback,,html-keyboard-response,336,221115,0.0-1.0-468.0-0.0,0,0,30311,,,,,,66.0,,,,,,,,,,,,,,,,,,,,,,159.5,1.0,,
337,,iti,,html-keyboard-response,337,221218,0.0-1.0-469.0,0,0,30311,,,,,,,,,,,,,,,,,,,,,,,,,,,,161.5,2.0,,
338,,rl_choice,,html-keyboard-response,338,221251,0.0-1.0-471.0,0,0,30311,,32.0,,,68.0,67.0,67.0,2.0,easy,1000.0,1000.0,0.0,20.0,80.0,40.0,80.0,B,A,/static/Simple_RL/Stimuli/Fractals_stims/B.jpg,/static/Simple_RL/Stimuli/Fractals_stims/A.jpg,1.0,20.0,80.0,40.0,80.0,B,A,161.532,0.032,0.0,
339,,rl_choice_confirmation,,html-keyboard-response,339,222722,0.0-1.0-472.0-0.0,0,0,30311,,,,,,67.0,,,,,,,,,,,,,,,,,,,,,,163.0,1.468,,
340,,isi,,html-keyboard-response,340,222827,0.0-1.0-474.0,0,0,30311,,,,,,,,,,,,,,,,,,,,,,,,,,,,164.0,1.0,,
341,,feedback,,html-keyboard-response,341,223829,0.0-1.0-475.0-0.0,0,0,30311,,,,,,67.0,,,,,,,,,,,,,,,,,,,,,,165.0,1.0,,
342,,iti,,html-keyboard-response,342,223931,0.0-1.0-476.0,0,0,30311,,,,,,,,,,,,,,,,,,,,,,,,,,,,166.0,1.0,,
343,,rl_choice,,html-keyboard-response,343,224001,0.0-1.0-478.0,0,0,30311,,68.0,,,75.0,68.0,68.0,2.0,hard,1000.0,1500.0,1.0,60.0,40.0,40.0,60.0,C,D,/static/Simple_RL/Stimuli/Fractals_stims/C.jpg,/static/Simple_RL/Stimuli/Fractals_stims/D.jpg,0.0,40.0,60.0,60.0,40.0,D,C,166.068,0.068,0.0,
344,,rl_choice_confirmation,,html-keyboard-response,344,225437,0.0-1.0-479.0-0.0,0,0,30311,,,,,,68.0,,,,,,,,,,,,,,,,,,,,,,167.5,1.432,,
345,,isi,,html-keyboard-response,345,225542,0.0-1.0-481.0,0,0,30311,,,,,,,,,,,,,,,,,,,,,,,,,,,,169.0,1.5,,
346,,feedback,,html-keyboard-response,346,226548,0.0-1.0-482.0-0.0,0,0,30311,,,,,,68.0,,,,,,,,,,,,,,,,,,,,,,170.0,1.0,,
347,,iti,,html-keyboard-response,347,226652,0.0-1.0-483.0,0,0,30311,,,,,,,,,,,,,,,,,,,,,,,,,,,,171.0,1.0,,
348,,rl_choice,,html-keyboard-response,348,226860,0.0-1.0-485.0,0,0,30311,,207.0,,,68.0,69.0,69.0,2.0,hard,1000.0,3000.0,1.0,60.0,40.0,40.0,20.0,C,D,/static/Simple_RL/Stimuli/Fractals_stims/C.jpg,/static/Simple_RL/Stimuli/Fractals_stims/D.jpg,1.0,60.0,40.0,40.0,20.0,C,D,171.207,0.207,0.0,
349,,rl_choice_confirmation,,html-keyboard-response,349,228156,0.0-1.0-486.0-0.0,0,0,30311,,,,,,69.0,,,,,,,,,,,,,,,,,,,,,,172.5,1.293,,
350,,isi,,html-keyboard-response,350,228257,0.0-1.0-488.0,0,0,30311,,,,,,,,,,,,,,,,,,,,,,,,,,,,175.5,3.0,,
351,,feedback,,html-keyboard-response,351,229259,0.0-1.0-489.0-0.0,0,0,30311,,,,,,69.0,,,,,,,,,,,,,,,,,,,,,,176.5,1.0,,
352,,iti,,html-keyboard-response,352,229361,0.0-1.0-490.0,0,0,30311,,,,,,,,,,,,,,,,,,,,,,,,,,,,177.5,1.0,,
353,,rl_choice,,html-keyboard-response,353,229564,0.0-1.0-492.0,0,0,30311,,201.0,,,68.0,70.0,70.0,2.0,hard,1000.0,1000.0,0.0,40.0,60.0,40.0,60.0,D,C,/static/Simple_RL/Stimuli/Fractals_stims/D.jpg,/static/Simple_RL/Stimuli/Fractals_stims/C.jpg,1.0,40.0,60.0,40.0,60.0,D,C,177.701,0.201,0.0,
354,,rl_choice_confirmation,,html-keyboard-response,354,230865,0.0-1.0-493.0-0.0,0,0,30311,,,,,,70.0,,,,,,,,,,,,,,,,,,,,,,179.0,1.299,,
355,,isi,,html-keyboard-response,355,230966,0.0-1.0-495.0,0,0,30311,,,,,,,,,,,,,,,,,,,,,,,,,,,,180.0,1.0,,
356,,feedback,,html-keyboard-response,356,231968,0.0-1.0-496.0-0.0,0,0,30311,,,,,,70.0,,,,,,,,,,,,,,,,,,,,,,181.0,1.0,,
357,,iti,,html-keyboard-response,357,232074,0.0-1.0-497.0,0,0,30311,,,,,,,,,,,,,,,,,,,,,,,,,,,,182.0,1.0,,
358,,rl_choice,,html-keyboard-response,358,232141,0.0-1.0-499.0,0,0,30311,,66.0,,,75.0,71.0,71.0,2.0,easy,2000.0,1000.0,0.0,20.0,80.0,20.0,100.0,B,A,/static/Simple_RL/Stimuli/Fractals_stims/B.jpg,/static/Simple_RL/Stimuli/Fractals_stims/A.jpg,0.0,80.0,20.0,100.0,20.0,A,B,182.066,0.066,0.0,
359,,rl_choice_confirmation,,html-keyboard-response,359,233579,0.0-1.0-500.0-0.0,0,0,30311,,,,,,71.0,,,,,,,,,,,,,,,,,,,,,,183.5,1.434,,
360,,isi,,html-keyboard-response,360,233681,0.0-1.0-502.0,0,0,30311,,,,,,,,,,,,,,,,,,,,,,,,,,,,184.5,1.0,,
361,,feedback,,html-keyboard-response,361,234683,0.0-1.0-503.0-0.0,0,0,30311,,,,,,71.0,,,,,,,,,,,,,,,,,,,,,,185.5,1.0,,
362,,iti,,html-keyboard-response,362,234788,0.0-1.0-504.0,0,0,30311,,,,,,,,,,,,,,,,,,,,,,,,,,,,187.5,2.0,,
363,,rl_choice,,html-keyboard-response,363,236294,0.0-1.0-506.0,0,0,30311,,,,,,72.0,72.0,2.0,easy,1500.0,1000.0,0.0,20.0,80.0,20.0,60.0,B,A,/static/Simple_RL/Stimuli/Fractals_stims/B.jpg,/static/Simple_RL/Stimuli/Fractals_stims/A.jpg,,,,,,,,189.0,1.5,1.0,
364,,rl_choice_warning,,html-keyboard-response,364,237297,0.0-1.0-508.0-0.0,1,0,30311,,,,,,,,,,,,,,,,,,,,,,,,,,,,190.0,1.0,,
365,,isi,,html-keyboard-response,365,237398,0.0-1.0-509.0,0,0,30311,,,,,,,,,,,,,,,,,,,,,,,,,,,,191.0,1.0,,
366,,iti,,html-keyboard-response,366,237500,0.0-1.0-511.0,0,0,30311,,,,,,,,,,,,,,,,,,,,,,,,,,,,192.5,1.5,,
367,,rl_choice,,html-keyboard-response,367,239004,0.0-1.0-513.0,0,0,30311,,,,,,73.0,73.0,2.0,easy,1500.0,2000.0,0.0,20.0,80.0,20.0,80.0,B,A,/static/Simple_RL/Stimuli/Fractals_stims/B.jpg,/static/Simple_RL/Stimuli/Fractals_stims/A.jpg,,,,,,,,194.0,1.5,1.0,
368,,rl_choice_warning,,html-keyboard-response,368,240006,0.0-1.0-515.0-0.0,1,0,30311,,,,,,,,,,,,,,,,,,,,,,,,,,,,195.0,1.0,,
369,,isi,,html-keyboard-response,369,240111,0.0-1.0-516.0,0,0,30311,,,,,,,,,,,,,,,,,,,,,,,,,,,,197.0,2.0,,
370,,iti,,html-keyboard-response,370,240214,0.0-1.0-518.0,0,0,30311,,,,,,,,,,,,,,,,,,,,,,,,,,,,198.5,1.5,,
371,,rl_choice,,html-keyboard-response,371,241718,0.0-1.0-520.0,0,0,30311,,,,,,74.0,74.0,2.0,hard,1000.0,1500.0,1.0,60.0,40.0,40.0,60.0,C,D,/static/Simple_RL/Stimuli/Fractals_stims/C.jpg,/static/Simple_RL/Stimuli/Fractals_stims/D.jpg,,,,,,,,200.0,1.5,1.0,
372,,rl_choice_warning,,html-keyboard-response,372,242721,0.0-1.0-522.0-0.0,1,0,30311,,,,,,,,,,,,,,,,,,,,,,,,,,,,201.0,1.0,,
373,,isi,,html-keyboard-response,373,242823,0.0-1.0-523.0,0,0,30311,,,,,,,,,,,,,,,,,,,,,,,,,,,,202.5,1.5,,
374,,iti,,html-keyboard-response,374,242926,0.0-1.0-525.0,0,0,30311,,,,,,,,,,,,,,,,,,,,,,,,,,,,203.5,1.0,,
375,,rl_choice,,html-keyboard-response,375,244431,0.0-1.0-527.0,0,0,30311,,,,,,75.0,75.0,2.0,hard,1000.0,1500.0,1.0,60.0,40.0,60.0,20.0,C,D,/static/Simple_RL/Stimuli/Fractals_stims/C.jpg,/static/Simple_RL/Stimuli/Fractals_stims/D.jpg,,,,,,,,205.0,1.5,1.0,
376,,rl_choice_warning,,html-keyboard-response,376,245435,0.0-1.0-529.0-0.0,1,0,30311,,,,,,,,,,,,,,,,,,,,,,,,,,,,206.0,1.0,,
377,,isi,,html-keyboard-response,377,245537,0.0-1.0-530.0,0,0,30311,,,,,,,,,,,,,,,,,,,,,,,,,,,,207.5,1.5,,
378,,iti,,html-keyboard-response,378,245642,0.0-1.0-532.0,0,0,30311,,,,,,,,,,,,,,,,,,,,,,,,,,,,208.5,1.0,,
379,,rl_choice,,html-keyboard-response,379,247147,0.0-1.0-534.0,0,0,30311,,,,,,76.0,76.0,2.0,hard,3000.0,1000.0,1.0,60.0,40.0,40.0,60.0,C,D,/static/Simple_RL/Stimuli/Fractals_stims/C.jpg,/static/Simple_RL/Stimuli/Fractals_stims/D.jpg,,,,,,,,210.0,1.5,1.0,
380,,rl_choice_warning,,html-keyboard-response,380,248152,0.0-1.0-536.0-0.0,1,0,30311,,,,,,,,,,,,,,,,,,,,,,,,,,,,211.0,1.0,,
381,,isi,,html-keyboard-response,381,248257,0.0-1.0-537.0,0,0,30311,,,,,,,,,,,,,,,,,,,,,,,,,,,,212.0,1.0,,
382,,iti,,html-keyboard-response,382,248358,0.0-1.0-539.0,0,0,30311,,,,,,,,,,,,,,,,,,,,,,,,,,,,215.0,3.0,,
383,,rl_choice,,html-keyboard-response,383,249332,0.0-1.0-541.0,0,0,30311,,973.0,,,68.0,77.0,77.0,2.0,easy,1000.0,1000.0,0.0,20.0,80.0,20.0,60.0,B,A,/static/Simple_RL/Stimuli/Fractals_stims/B.jpg,/static/Simple_RL/Stimuli/Fractals_stims/A.jpg,1.0,20.0,80.0,20.0,60.0,B,A,215.973,0.973,0.0,
384,,rl_choice_confirmation,,html-keyboard-response,384,249862,0.0-1.0-542.0-0.0,0,0,30311,,,,,,77.0,,,,,,,,,,,,,,,,,,,,,,216.5,0.527,,
385,,isi,,html-keyboard-response,385,249967,0.0-1.0-544.0,0,0,30311,,,,,,,,,,,,,,,,,,,,,,,,,,,,217.5,1.0,,
386,,feedback,,html-keyboard-response,386,250972,0.0-1.0-545.0-0.0,0,0,30311,,,,,,77.0,,,,,,,,,,,,,,,,,,,,,,218.5,1.0,,
387,,iti,,html-keyboard-response,387,251073,0.0-1.0-546.0,0,0,30311,,,,,,,,,,,,,,,,,,,,,,,,,,,,219.5,1.0,,
388,,rl_choice,,html-keyboard-response,388,251146,0.0-1.0-548.0,0,0,30311,,72.0,,,75.0,78.0,78.0,2.0,easy,3000.0,1000.0,0.0,20.0,80.0,0.0,100.0,B,A,/static/Simple_RL/Stimuli/Fractals_stims/B.jpg,/static/Simple_RL/Stimuli/Fractals_stims/A.jpg,0.0,80.0,20.0,100.0,0.0,A,B,219.572,0.072,0.0,
389,,rl_choice_confirmation,,html-keyboard-response,389,252580,0.0-1.0-549.0-0.0,0,0,30311,,,,,,78.0,,,,,,,,,,,,,,,,,,,,,,221.0,1.428,,
390,,isi,,html-keyboard-response,390,252683,0.0-1.0-551.0,0,0,30311,,,,,,,,,,,,,,,,,,,,,,,,,,,,222.0,1.0,,
391,,feedback,,html-keyboard-response,391,253686,0.0-1.0-552.0-0.0,0,0,30311,,,,,,78.0,,,,,,,,,,,,,,,,,,,,,,223.0,1.0,,
392,,iti,,html-keyboard-response,392,253788,0.0-1.0-553.0,0,0,30311,,,,,,,,,,,,,,,,,,,,,,,,,,,,226.0,3.0,,
393,,rl_choice,,html-keyboard-response,393,254164,0.0-1.0-555.0,0,0,30311,,375.0,,,68.0,79.0,79.0,2.0,hard,2000.0,1500.0,1.0,60.0,40.0,60.0,40.0,C,D,/static/Simple_RL/Stimuli/Fractals_stims/C.jpg,/static/Simple_RL/Stimuli/Fractals_stims/D.jpg,1.0,60.0,40.0,60.0,40.0,C,D,226.375,0.375,0.0,
394,,rl_choice_confirmation,,html-keyboard-response,394,255291,0.0-1.0-556.0-0.0,0,0,30311,,,,,,79.0,,,,,,,,,,,,,,,,,,,,,,227.5,1.125,,
395,,isi,,html-keyboard-response,395,255393,0.0-1.0-558.0,0,0,30311,,,,,,,,,,,,,,,,,,,,,,,,,,,,229.0,1.5,,
396,,feedback,,html-keyboard-response,396,256396,0.0-1.0-559.0-0.0,0,0,30311,,,,,,79.0,,,,,,,,,,,,,,,,,,,,,,230.0,1.0,,
397,,iti,,html-keyboard-response,397,256497,0.0-1.0-560.0,0,0,30311,,,,,,,,,,,,,,,,,,,,,,,,,,,,232.0,2.0,,1.0
398,,final_tally,,html-keyboard-response,398,256699,0.0-2.0,0,0,30311,,200.0,,,68.0,,,,,,,,,,,,,,,,,,,,,,,,,,
