,success,ttype,start_time,trial_type,trial_index,time_elapsed,internal_node_id,warning,missed_checkup,PID,view_history,rt,responses,repeat_instructions,key_press,index,trial_num,block,condition,iti,isi,high_group_on_left,left_group_value,right_group_value,left_item_value,right_item_value,left_img,right_img,left_img_path,right_img_path,left_chosen,chosen_group_value,unchosen_group_value,chosen_item_value,unchosen_item_value,chosen_img,unchosen_img,onset,duration,no_response,total_bonus_tally
0,True,full_screen,d06042022hr0227,fullscreen,0,4604,0.0-0.0,0,0,26705,,,,,,,,,,,,,,,,,,,,,,,,,,,,,,,
1,,size_instructions,,instructions,1,493801,0.0-1.0-0.0-0.0,0,0,26705,"[{""page_index"":0,""viewing_time"":4986},{""page_index"":1,""viewing_time"":12155},{""page_index"":2,""viewing_time"":17311},{""page_index"":3,""viewing_time"":4374},{""page_index"":4,""viewing_time"":446752},{""page_index"":5,""viewing_time"":3611}]",489190.0,,,,,,,,,,,,,,,,,,,,,,,,,,,,,
2,,rl_comprehension_check,,survey-multi-choice,2,502017,0.0-1.0-0.0-1.0,0,0,26705,,8192.0,"{""Q0"":""True"",""Q1"":""True"",""Q2"":""D for left and K for right""}",0.0,,,,,,,,,,,,,,,,,,,,,,,,,,,
3,,,,html-keyboard-response,3,573044,0.0-1.0-1.0,0,0,26705,,71015.0,,,68.0,,,,,,,,,,,,,,,,,,,,,,,,,,
4,,rl_choice,,html-keyboard-response,4,573798,0.0-1.0-2.0,0,0,26705,,747.0,,,68.0,0.0,0.0,1.0,hard,3500.0,2000.0,1.0,60.0,40.0,80.0,40.0,A,B,/static/Simple_RL/Stimuli/Fractals_stims/A.jpg,/static/Simple_RL/Stimuli/Fractals_stims/B.jpg,1.0,60.0,40.0,80.0,40.0,A,B,0.747,0.747,0.0,
5,,rl_choice_confirmation,,html-keyboard-response,5,574563,0.0-1.0-3.0-0.0,0,0,26705,,,,,,0.0,,,,,,,,,,,,,,,,,,,,,,1.5,0.753,,
6,,isi,,html-keyboard-response,6,576567,0.0-1.0-5.0,0,0,26705,,,,,,,,,,,,,,,,,,,,,,,,,,,,3.5,2.0,,
7,,feedback,,html-keyboard-response,7,577622,0.0-1.0-6.0-0.0,0,0,26705,,,,,,0.0,,,,,,,,,,,,,,,,,,,,,,4.5,1.0,,
8,,iti,,html-keyboard-response,8,581138,0.0-1.0-7.0,0,0,26705,,,,,,,,,,,,,,,,,,,,,,,,,,,,8.0,3.5,,
9,,rl_choice,,html-keyboard-response,9,581714,0.0-1.0-9.0,0,0,26705,,571.0,,,75.0,1.0,1.0,1.0,hard,1000.0,2000.0,1.0,60.0,40.0,80.0,20.0,A,B,/static/Simple_RL/Stimuli/Fractals_stims/A.jpg,/static/Simple_RL/Stimuli/Fractals_stims/B.jpg,0.0,40.0,60.0,20.0,80.0,B,A,8.571,0.571,0.0,
10,,rl_choice_confirmation,,html-keyboard-response,10,582652,0.0-1.0-10.0-0.0,0,0,26705,,,,,,1.0,,,,,,,,,,,,,,,,,,,,,,9.5,0.929,,
11,,isi,,html-keyboard-response,11,584657,0.0-1.0-12.0,0,0,26705,,,,,,,,,,,,,,,,,,,,,,,,,,,,11.5,2.0,,
12,,feedback,,html-keyboard-response,12,585668,0.0-1.0-13.0-0.0,0,0,26705,,,,,,1.0,,,,,,,,,,,,,,,,,,,,,,12.5,1.0,,
13,,iti,,html-keyboard-response,13,586672,0.0-1.0-14.0,0,0,26705,,,,,,,,,,,,,,,,,,,,,,,,,,,,13.5,1.0,,
14,,rl_choice,,html-keyboard-response,14,587553,0.0-1.0-16.0,0,0,26705,,878.0,,,75.0,2.0,2.0,1.0,easy,2000.0,2000.0,0.0,20.0,80.0,40.0,100.0,D,C,/static/Simple_RL/Stimuli/Fractals_stims/D.jpg,/static/Simple_RL/Stimuli/Fractals_stims/C.jpg,0.0,80.0,20.0,100.0,40.0,C,D,14.378,0.878,0.0,
15,,rl_choice_confirmation,,html-keyboard-response,15,588185,0.0-1.0-17.0-0.0,0,0,26705,,,,,,2.0,,,,,,,,,,,,,,,,,,,,,,15.0,0.622,,
16,,isi,,html-keyboard-response,16,590192,0.0-1.0-19.0,0,0,26705,,,,,,,,,,,,,,,,,,,,,,,,,,,,17.0,2.0,,
17,,feedback,,html-keyboard-response,17,591202,0.0-1.0-20.0-0.0,0,0,26705,,,,,,2.0,,,,,,,,,,,,,,,,,,,,,,18.0,1.0,,
18,,iti,,html-keyboard-response,18,593222,0.0-1.0-21.0,0,0,26705,,,,,,,,,,,,,,,,,,,,,,,,,,,,20.0,2.0,,
19,,rl_choice,,html-keyboard-response,19,593923,0.0-1.0-23.0,0,0,26705,,696.0,,,68.0,3.0,3.0,1.0,hard,1500.0,1000.0,0.0,40.0,60.0,20.0,60.0,B,A,/static/Simple_RL/Stimuli/Fractals_stims/B.jpg,/static/Simple_RL/Stimuli/Fractals_stims/A.jpg,1.0,40.0,60.0,20.0,60.0,B,A,20.696,0.696,0.0,
20,,rl_choice_confirmation,,html-keyboard-response,20,594733,0.0-1.0-24.0-0.0,0,0,26705,,,,,,3.0,,,,,,,,,,,,,,,,,,,,,,21.5,0.804,,
21,,isi,,html-keyboard-response,21,595748,0.0-1.0-26.0,0,0,26705,,,,,,,,,,,,,,,,,,,,,,,,,,,,22.5,1.0,,
22,,feedback,,html-keyboard-response,22,596753,0.0-1.0-27.0-0.0,0,0,26705,,,,,,3.0,,,,,,,,,,,,,,,,,,,,,,23.5,1.0,,
23,,iti,,html-keyboard-response,23,598262,0.0-1.0-28.0,0,0,26705,,,,,,,,,,,,,,,,,,,,,,,,,,,,25.0,1.5,,
24,,rl_choice,,html-keyboard-response,24,598895,0.0-1.0-30.0,0,0,26705,,629.0,,,75.0,4.0,4.0,1.0,hard,1500.0,3000.0,0.0,40.0,60.0,40.0,60.0,B,A,/static/Simple_RL/Stimuli/Fractals_stims/B.jpg,/static/Simple_RL/Stimuli/Fractals_stims/A.jpg,0.0,60.0,40.0,60.0,40.0,A,B,25.629,0.629,0.0,
25,,rl_choice_confirmation,,html-keyboard-response,25,599782,0.0-1.0-31.0-0.0,0,0,26705,,,,,,4.0,,,,,,,,,,,,,,,,,,,,,,26.5,0.871,,
26,,isi,,html-keyboard-response,26,602789,0.0-1.0-33.0,0,0,26705,,,,,,,,,,,,,,,,,,,,,,,,,,,,29.5,3.0,,
27,,feedback,,html-keyboard-response,27,603802,0.0-1.0-34.0-0.0,0,0,26705,,,,,,4.0,,,,,,,,,,,,,,,,,,,,,,30.5,1.0,,
28,,iti,,html-keyboard-response,28,605310,0.0-1.0-35.0,0,0,26705,,,,,,,,,,,,,,,,,,,,,,,,,,,,32.0,1.5,,
29,,rl_choice,,html-keyboard-response,29,606173,0.0-1.0-37.0,0,0,26705,,858.0,,,68.0,5.0,5.0,1.0,easy,1500.0,1500.0,1.0,80.0,20.0,80.0,0.0,C,D,/static/Simple_RL/Stimuli/Fractals_stims/C.jpg,/static/Simple_RL/Stimuli/Fractals_stims/D.jpg,1.0,80.0,20.0,80.0,0.0,C,D,32.858,0.858,0.0,
30,,rl_choice_confirmation,,html-keyboard-response,30,606832,0.0-1.0-38.0-0.0,0,0,26705,,,,,,5.0,,,,,,,,,,,,,,,,,,,,,,33.5,0.642,,
31,,isi,,html-keyboard-response,31,608353,0.0-1.0-40.0,0,0,26705,,,,,,,,,,,,,,,,,,,,,,,,,,,,35.0,1.5,,
32,,feedback,,html-keyboard-response,32,609362,0.0-1.0-41.0-0.0,0,0,26705,,,,,,5.0,,,,,,,,,,,,,,,,,,,,,,36.0,1.0,,
33,,iti,,html-keyboard-response,33,610874,0.0-1.0-42.0,0,0,26705,,,,,,,,,,,,,,,,,,,,,,,,,,,,37.5,1.5,,
34,,rl_choice,,html-keyboard-response,34,611517,0.0-1.0-44.0,0,0,26705,,638.0,,,68.0,6.0,6.0,1.0,easy,1000.0,1000.0,1.0,80.0,20.0,60.0,40.0,C,D,/static/Simple_RL/Stimuli/Fractals_stims/C.jpg,/static/Simple_RL/Stimuli/Fractals_stims/D.jpg,1.0,80.0,20.0,60.0,40.0,C,D,38.138,0.638,0.0,
35,,rl_choice_confirmation,,html-keyboard-response,35,612391,0.0-1.0-45.0-0.0,0,0,26705,,,,,,6.0,,,,,,,,,,,,,,,,,,,,,,39.0,0.862,,
36,,isi,,html-keyboard-response,36,613403,0.0-1.0-47.0,0,0,26705,,,,,,,,,,,,,,,,,,,,,,,,,,,,40.0,1.0,,
37,,feedback,,html-keyboard-response,37,614413,0.0-1.0-48.0-0.0,0,0,26705,,,,,,6.0,,,,,,,,,,,,,,,,,,,,,,41.0,1.0,,
38,,iti,,html-keyboard-response,38,615432,0.0-1.0-49.0,0,0,26705,,,,,,,,,,,,,,,,,,,,,,,,,,,,42.0,1.0,,
39,,rl_choice,,html-keyboard-response,39,615847,0.0-1.0-51.0,0,0,26705,,412.0,,,68.0,7.0,7.0,1.0,easy,3000.0,2000.0,0.0,20.0,80.0,0.0,80.0,D,C,/static/Simple_RL/Stimuli/Fractals_stims/D.jpg,/static/Simple_RL/Stimuli/Fractals_stims/C.jpg,1.0,20.0,80.0,0.0,80.0,D,C,42.412,0.412,0.0,
40,,rl_choice_confirmation,,html-keyboard-response,40,616950,0.0-1.0-52.0-0.0,0,0,26705,,,,,,7.0,,,,,,,,,,,,,,,,,,,,,,43.5,1.088,,
41,,isi,,html-keyboard-response,41,618967,0.0-1.0-54.0,0,0,26705,,,,,,,,,,,,,,,,,,,,,,,,,,,,45.5,2.0,,
42,,feedback,,html-keyboard-response,42,619988,0.0-1.0-55.0-0.0,0,0,26705,,,,,,7.0,,,,,,,,,,,,,,,,,,,,,,46.5,1.0,,
43,,iti,,html-keyboard-response,43,622992,0.0-1.0-56.0,0,0,26705,,,,,,,,,,,,,,,,,,,,,,,,,,,,49.5,3.0,,
44,,rl_choice,,html-keyboard-response,44,623656,0.0-1.0-58.0,0,0,26705,,660.0,,,75.0,8.0,8.0,1.0,hard,2000.0,3500.0,0.0,40.0,60.0,40.0,60.0,B,A,/static/Simple_RL/Stimuli/Fractals_stims/B.jpg,/static/Simple_RL/Stimuli/Fractals_stims/A.jpg,0.0,60.0,40.0,60.0,40.0,A,B,50.16,0.66,0.0,
45,,rl_choice_confirmation,,html-keyboard-response,45,624512,0.0-1.0-59.0-0.0,0,0,26705,,,,,,8.0,,,,,,,,,,,,,,,,,,,,,,51.0,0.84,,
46,,isi,,html-keyboard-response,46,628022,0.0-1.0-61.0,0,0,26705,,,,,,,,,,,,,,,,,,,,,,,,,,,,54.5,3.5,,
47,,feedback,,html-keyboard-response,47,629034,0.0-1.0-62.0-0.0,0,0,26705,,,,,,8.0,,,,,,,,,,,,,,,,,,,,,,55.5,1.0,,
48,,iti,,html-keyboard-response,48,631039,0.0-1.0-63.0,0,0,26705,,,,,,,,,,,,,,,,,,,,,,,,,,,,57.5,2.0,,
49,,rl_choice,,html-keyboard-response,49,631981,0.0-1.0-65.0,0,0,26705,,937.0,,,68.0,9.0,9.0,1.0,hard,2000.0,1000.0,1.0,60.0,40.0,60.0,20.0,A,B,/static/Simple_RL/Stimuli/Fractals_stims/A.jpg,/static/Simple_RL/Stimuli/Fractals_stims/B.jpg,1.0,60.0,40.0,60.0,20.0,A,B,58.437,0.937,0.0,
50,,rl_choice_confirmation,,html-keyboard-response,50,632559,0.0-1.0-66.0-0.0,0,0,26705,,,,,,9.0,,,,,,,,,,,,,,,,,,,,,,59.0,0.563,,
51,,isi,,html-keyboard-response,51,633570,0.0-1.0-68.0,0,0,26705,,,,,,,,,,,,,,,,,,,,,,,,,,,,60.0,1.0,,
52,,feedback,,html-keyboard-response,52,634581,0.0-1.0-69.0-0.0,0,0,26705,,,,,,9.0,,,,,,,,,,,,,,,,,,,,,,61.0,1.0,,
53,,iti,,html-keyboard-response,53,636591,0.0-1.0-70.0,0,0,26705,,,,,,,,,,,,,,,,,,,,,,,,,,,,63.0,2.0,,
54,,rl_choice,,html-keyboard-response,54,637314,0.0-1.0-72.0,0,0,26705,,720.0,,,75.0,10.0,10.0,1.0,easy,1000.0,1000.0,0.0,20.0,80.0,0.0,80.0,D,C,/static/Simple_RL/Stimuli/Fractals_stims/D.jpg,/static/Simple_RL/Stimuli/Fractals_stims/C.jpg,0.0,80.0,20.0,80.0,0.0,C,D,63.72,0.72,0.0,
55,,rl_choice_confirmation,,html-keyboard-response,55,638112,0.0-1.0-73.0-0.0,0,0,26705,,,,,,10.0,,,,,,,,,,,,,,,,,,,,,,64.5,0.78,,
56,,isi,,html-keyboard-response,56,639132,0.0-1.0-75.0,0,0,26705,,,,,,,,,,,,,,,,,,,,,,,,,,,,65.5,1.0,,
57,,feedback,,html-keyboard-response,57,640143,0.0-1.0-76.0-0.0,0,0,26705,,,,,,10.0,,,,,,,,,,,,,,,,,,,,,,66.5,1.0,,
58,,iti,,html-keyboard-response,58,641160,0.0-1.0-77.0,0,0,26705,,,,,,,,,,,,,,,,,,,,,,,,,,,,67.5,1.0,,
59,,rl_choice,,html-keyboard-response,59,641781,0.0-1.0-79.0,0,0,26705,,616.0,,,68.0,11.0,11.0,1.0,hard,1000.0,2000.0,0.0,40.0,60.0,40.0,60.0,B,A,/static/Simple_RL/Stimuli/Fractals_stims/B.jpg,/static/Simple_RL/Stimuli/Fractals_stims/A.jpg,1.0,40.0,60.0,40.0,60.0,B,A,68.116,0.616,0.0,
60,,rl_choice_confirmation,,html-keyboard-response,60,642682,0.0-1.0-80.0-0.0,0,0,26705,,,,,,11.0,,,,,,,,,,,,,,,,,,,,,,69.0,0.884,,
61,,isi,,html-keyboard-response,61,644685,0.0-1.0-82.0,0,0,26705,,,,,,,,,,,,,,,,,,,,,,,,,,,,71.0,2.0,,
62,,feedback,,html-keyboard-response,62,645693,0.0-1.0-83.0-0.0,0,0,26705,,,,,,11.0,,,,,,,,,,,,,,,,,,,,,,72.0,1.0,,
63,,iti,,html-keyboard-response,63,646696,0.0-1.0-84.0,0,0,26705,,,,,,,,,,,,,,,,,,,,,,,,,,,,73.0,1.0,,
64,,rl_choice,,html-keyboard-response,64,647382,0.0-1.0-86.0,0,0,26705,,683.0,,,75.0,12.0,12.0,1.0,hard,1000.0,1000.0,0.0,40.0,60.0,60.0,80.0,B,A,/static/Simple_RL/Stimuli/Fractals_stims/B.jpg,/static/Simple_RL/Stimuli/Fractals_stims/A.jpg,0.0,60.0,40.0,80.0,60.0,A,B,73.683,0.683,0.0,
65,,rl_choice_confirmation,,html-keyboard-response,65,648210,0.0-1.0-87.0-0.0,0,0,26705,,,,,,12.0,,,,,,,,,,,,,,,,,,,,,,74.5,0.817,,
66,,isi,,html-keyboard-response,66,649223,0.0-1.0-89.0,0,0,26705,,,,,,,,,,,,,,,,,,,,,,,,,,,,75.5,1.0,,
67,,feedback,,html-keyboard-response,67,650239,0.0-1.0-90.0-0.0,0,0,26705,,,,,,12.0,,,,,,,,,,,,,,,,,,,,,,76.5,1.0,,
68,,iti,,html-keyboard-response,68,651243,0.0-1.0-91.0,0,0,26705,,,,,,,,,,,,,,,,,,,,,,,,,,,,77.5,1.0,,
69,,rl_choice,,html-keyboard-response,69,652097,0.0-1.0-93.0,0,0,26705,,850.0,,,68.0,13.0,13.0,1.0,hard,3000.0,1500.0,1.0,60.0,40.0,40.0,60.0,A,B,/static/Simple_RL/Stimuli/Fractals_stims/A.jpg,/static/Simple_RL/Stimuli/Fractals_stims/B.jpg,1.0,60.0,40.0,40.0,60.0,A,B,78.35,0.85,0.0,
70,,rl_choice_confirmation,,html-keyboard-response,70,652757,0.0-1.0-94.0-0.0,0,0,26705,,,,,,13.0,,,,,,,,,,,,,,,,,,,,,,79.0,0.65,,
71,,isi,,html-keyboard-response,71,654272,0.0-1.0-96.0,0,0,26705,,,,,,,,,,,,,,,,,,,,,,,,,,,,80.5,1.5,,
72,,feedback,,html-keyboard-response,72,655279,0.0-1.0-97.0-0.0,0,0,26705,,,,,,13.0,,,,,,,,,,,,,,,,,,,,,,81.5,1.0,,
73,,iti,,html-keyboard-response,73,658292,0.0-1.0-98.0,0,0,26705,,,,,,,,,,,,,,,,,,,,,,,,,,,,84.5,3.0,,
74,,rl_choice,,html-keyboard-response,74,659114,0.0-1.0-100.0,0,0,26705,,819.0,,,68.0,14.0,14.0,1.0,easy,1500.0,1000.0,1.0,80.0,20.0,100.0,40.0,C,D,/static/Simple_RL/Stimuli/Fractals_stims/C.jpg,/static/Simple_RL/Stimuli/Fractals_stims/D.jpg,1.0,80.0,20.0,100.0,40.0,C,D,85.319,0.819,0.0,
75,,rl_choice_confirmation,,html-keyboard-response,75,659799,0.0-1.0-101.0-0.0,0,0,26705,,,,,,14.0,,,,,,,,,,,,,,,,,,,,,,86.0,0.681,,
76,,isi,,html-keyboard-response,76,660812,0.0-1.0-103.0,0,0,26705,,,,,,,,,,,,,,,,,,,,,,,,,,,,87.0,1.0,,
77,,feedback,,html-keyboard-response,77,661823,0.0-1.0-104.0-0.0,0,0,26705,,,,,,14.0,,,,,,,,,,,,,,,,,,,,,,88.0,1.0,,
78,,iti,,html-keyboard-response,78,663343,0.0-1.0-105.0,0,0,26705,,,,,,,,,,,,,,,,,,,,,,,,,,,,89.5,1.5,,
79,,rl_choice,,html-keyboard-response,79,664236,0.0-1.0-107.0,0,0,26705,,889.0,,,68.0,15.0,15.0,1.0,hard,1000.0,3000.0,1.0,60.0,40.0,60.0,60.0,A,B,/static/Simple_RL/Stimuli/Fractals_stims/A.jpg,/static/Simple_RL/Stimuli/Fractals_stims/B.jpg,1.0,60.0,40.0,60.0,60.0,A,B,90.389,0.889,0.0,
80,,rl_choice_confirmation,,html-keyboard-response,80,664856,0.0-1.0-108.0-0.0,0,0,26705,,,,,,15.0,,,,,,,,,,,,,,,,,,,,,,91.0,0.611,,
81,,isi,,html-keyboard-response,81,667876,0.0-1.0-110.0,0,0,26705,,,,,,,,,,,,,,,,,,,,,,,,,,,,94.0,3.0,,
82,,feedback,,html-keyboard-response,82,668883,0.0-1.0-111.0-0.0,0,0,26705,,,,,,15.0,,,,,,,,,,,,,,,,,,,,,,95.0,1.0,,
83,,iti,,html-keyboard-response,83,669890,0.0-1.0-112.0,0,0,26705,,,,,,,,,,,,,,,,,,,,,,,,,,,,96.0,1.0,,
84,,rl_choice,,html-keyboard-response,84,670581,0.0-1.0-114.0,0,0,26705,,687.0,,,68.0,16.0,16.0,1.0,hard,1500.0,1000.0,1.0,60.0,40.0,60.0,40.0,A,B,/static/Simple_RL/Stimuli/Fractals_stims/A.jpg,/static/Simple_RL/Stimuli/Fractals_stims/B.jpg,1.0,60.0,40.0,60.0,40.0,A,B,96.687,0.687,0.0,
85,,rl_choice_confirmation,,html-keyboard-response,85,671412,0.0-1.0-115.0-0.0,0,0,26705,,,,,,16.0,,,,,,,,,,,,,,,,,,,,,,97.5,0.813,,
86,,isi,,html-keyboard-response,86,672419,0.0-1.0-117.0,0,0,26705,,,,,,,,,,,,,,,,,,,,,,,,,,,,98.5,1.0,,
87,,feedback,,html-keyboard-response,87,673437,0.0-1.0-118.0-0.0,0,0,26705,,,,,,16.0,,,,,,,,,,,,,,,,,,,,,,99.5,1.0,,
88,,iti,,html-keyboard-response,88,674951,0.0-1.0-119.0,0,0,26705,,,,,,,,,,,,,,,,,,,,,,,,,,,,101.0,1.5,,
89,,rl_choice,,html-keyboard-response,89,675688,0.0-1.0-121.0,0,0,26705,,733.0,,,68.0,17.0,17.0,1.0,easy,2000.0,2000.0,1.0,80.0,20.0,100.0,40.0,C,D,/static/Simple_RL/Stimuli/Fractals_stims/C.jpg,/static/Simple_RL/Stimuli/Fractals_stims/D.jpg,1.0,80.0,20.0,100.0,40.0,C,D,101.733,0.733,0.0,
90,,rl_choice_confirmation,,html-keyboard-response,90,676472,0.0-1.0-122.0-0.0,0,0,26705,,,,,,17.0,,,,,,,,,,,,,,,,,,,,,,102.5,0.767,,
91,,isi,,html-keyboard-response,91,678483,0.0-1.0-124.0,0,0,26705,,,,,,,,,,,,,,,,,,,,,,,,,,,,104.5,2.0,,
92,,feedback,,html-keyboard-response,92,679492,0.0-1.0-125.0-0.0,0,0,26705,,,,,,17.0,,,,,,,,,,,,,,,,,,,,,,105.5,1.0,,
93,,iti,,html-keyboard-response,93,681497,0.0-1.0-126.0,0,0,26705,,,,,,,,,,,,,,,,,,,,,,,,,,,,107.5,2.0,,
94,,rl_choice,,html-keyboard-response,94,682236,0.0-1.0-128.0,0,0,26705,,734.0,,,68.0,18.0,18.0,1.0,hard,1000.0,1500.0,1.0,60.0,40.0,80.0,60.0,A,B,/static/Simple_RL/Stimuli/Fractals_stims/A.jpg,/static/Simple_RL/Stimuli/Fractals_stims/B.jpg,1.0,60.0,40.0,80.0,60.0,A,B,108.234,0.734,0.0,
95,,rl_choice_confirmation,,html-keyboard-response,95,683022,0.0-1.0-129.0-0.0,0,0,26705,,,,,,18.0,,,,,,,,,,,,,,,,,,,,,,109.0,0.766,,
96,,isi,,html-keyboard-response,96,684526,0.0-1.0-131.0,0,0,26705,,,,,,,,,,,,,,,,,,,,,,,,,,,,110.5,1.5,,
97,,feedback,,html-keyboard-response,97,685532,0.0-1.0-132.0-0.0,0,0,26705,,,,,,18.0,,,,,,,,,,,,,,,,,,,,,,111.5,1.0,,
98,,iti,,html-keyboard-response,98,686537,0.0-1.0-133.0,0,0,26705,,,,,,,,,,,,,,,,,,,,,,,,,,,,112.5,1.0,,
99,,rl_choice,,html-keyboard-response,99,687141,0.0-1.0-135.0,0,0,26705,,600.0,,,68.0,19.0,19.0,1.0,hard,1000.0,1000.0,1.0,60.0,40.0,60.0,20.0,A,B,/static/Simple_RL/Stimuli/Fractals_stims/A.jpg,/static/Simple_RL/Stimuli/Fractals_stims/B.jpg,1.0,60.0,40.0,60.0,20.0,A,B,113.1,0.6,0.0,
100,,rl_choice_confirmation,,html-keyboard-response,100,688053,0.0-1.0-136.0-0.0,0,0,26705,,,,,,19.0,,,,,,,,,,,,,,,,,,,,,,114.0,0.9,,
101,,isi,,html-keyboard-response,101,689063,0.0-1.0-138.0,0,0,26705,,,,,,,,,,,,,,,,,,,,,,,,,,,,115.0,1.0,,
102,,feedback,,html-keyboard-response,102,690080,0.0-1.0-139.0-0.0,0,0,26705,,,,,,19.0,,,,,,,,,,,,,,,,,,,,,,116.0,1.0,,
103,,iti,,html-keyboard-response,103,691092,0.0-1.0-140.0,0,0,26705,,,,,,,,,,,,,,,,,,,,,,,,,,,,117.0,1.0,,
104,,rl_choice,,html-keyboard-response,104,691865,0.0-1.0-142.0,0,0,26705,,769.0,,,75.0,20.0,20.0,1.0,easy,1000.0,1000.0,0.0,20.0,80.0,0.0,60.0,D,C,/static/Simple_RL/Stimuli/Fractals_stims/D.jpg,/static/Simple_RL/Stimuli/Fractals_stims/C.jpg,0.0,80.0,20.0,60.0,0.0,C,D,117.769,0.769,0.0,
105,,rl_choice_confirmation,,html-keyboard-response,105,692602,0.0-1.0-143.0-0.0,0,0,26705,,,,,,20.0,,,,,,,,,,,,,,,,,,,,,,118.5,0.731,,
106,,isi,,html-keyboard-response,106,693611,0.0-1.0-145.0,0,0,26705,,,,,,,,,,,,,,,,,,,,,,,,,,,,119.5,1.0,,
107,,feedback,,html-keyboard-response,107,694628,0.0-1.0-146.0-0.0,0,0,26705,,,,,,20.0,,,,,,,,,,,,,,,,,,,,,,120.5,1.0,,
108,,iti,,html-keyboard-response,108,695642,0.0-1.0-147.0,0,0,26705,,,,,,,,,,,,,,,,,,,,,,,,,,,,121.5,1.0,,
109,,rl_choice,,html-keyboard-response,109,696377,0.0-1.0-149.0,0,0,26705,,731.0,,,75.0,21.0,21.0,1.0,easy,2000.0,1500.0,1.0,80.0,20.0,60.0,20.0,C,D,/static/Simple_RL/Stimuli/Fractals_stims/C.jpg,/static/Simple_RL/Stimuli/Fractals_stims/D.jpg,0.0,20.0,80.0,20.0,60.0,D,C,122.231,0.731,0.0,
110,,rl_choice_confirmation,,html-keyboard-response,110,697164,0.0-1.0-150.0-0.0,0,0,26705,,,,,,21.0,,,,,,,,,,,,,,,,,,,,,,123.0,0.769,,
111,,isi,,html-keyboard-response,111,698682,0.0-1.0-152.0,0,0,26705,,,,,,,,,,,,,,,,,,,,,,,,,,,,124.5,1.5,,
112,,feedback,,html-keyboard-response,112,699693,0.0-1.0-153.0-0.0,0,0,26705,,,,,,21.0,,,,,,,,,,,,,,,,,,,,,,125.5,1.0,,
113,,iti,,html-keyboard-response,113,701698,0.0-1.0-154.0,0,0,26705,,,,,,,,,,,,,,,,,,,,,,,,,,,,127.5,2.0,,
114,,rl_choice,,html-keyboard-response,114,702319,0.0-1.0-156.0,0,0,26705,,617.0,,,68.0,22.0,22.0,1.0,easy,1000.0,1000.0,1.0,80.0,20.0,100.0,0.0,C,D,/static/Simple_RL/Stimuli/Fractals_stims/C.jpg,/static/Simple_RL/Stimuli/Fractals_stims/D.jpg,1.0,80.0,20.0,100.0,0.0,C,D,128.117,0.617,0.0,
115,,rl_choice_confirmation,,html-keyboard-response,115,703208,0.0-1.0-157.0-0.0,0,0,26705,,,,,,22.0,,,,,,,,,,,,,,,,,,,,,,129.0,0.883,,
116,,isi,,html-keyboard-response,116,704212,0.0-1.0-159.0,0,0,26705,,,,,,,,,,,,,,,,,,,,,,,,,,,,130.0,1.0,,
117,,feedback,,html-keyboard-response,117,705225,0.0-1.0-160.0-0.0,0,0,26705,,,,,,22.0,,,,,,,,,,,,,,,,,,,,,,131.0,1.0,,
118,,iti,,html-keyboard-response,118,706232,0.0-1.0-161.0,0,0,26705,,,,,,,,,,,,,,,,,,,,,,,,,,,,132.0,1.0,,
119,,rl_choice,,html-keyboard-response,119,707019,0.0-1.0-163.0,0,0,26705,,781.0,,,68.0,23.0,23.0,1.0,easy,1500.0,3000.0,1.0,80.0,20.0,80.0,20.0,C,D,/static/Simple_RL/Stimuli/Fractals_stims/C.jpg,/static/Simple_RL/Stimuli/Fractals_stims/D.jpg,1.0,80.0,20.0,80.0,20.0,C,D,132.781,0.781,0.0,
120,,rl_choice_confirmation,,html-keyboard-response,120,707744,0.0-1.0-164.0-0.0,0,0,26705,,,,,,23.0,,,,,,,,,,,,,,,,,,,,,,133.5,0.719,,
121,,isi,,html-keyboard-response,121,710753,0.0-1.0-166.0,0,0,26705,,,,,,,,,,,,,,,,,,,,,,,,,,,,136.5,3.0,,
122,,feedback,,html-keyboard-response,122,711761,0.0-1.0-167.0-0.0,0,0,26705,,,,,,23.0,,,,,,,,,,,,,,,,,,,,,,137.5,1.0,,
123,,iti,,html-keyboard-response,123,713272,0.0-1.0-168.0,0,0,26705,,,,,,,,,,,,,,,,,,,,,,,,,,,,139.0,1.5,,
124,,rl_choice,,html-keyboard-response,124,714107,0.0-1.0-170.0,0,0,26705,,831.0,,,75.0,24.0,24.0,1.0,hard,2000.0,1500.0,0.0,40.0,60.0,40.0,60.0,B,A,/static/Simple_RL/Stimuli/Fractals_stims/B.jpg,/static/Simple_RL/Stimuli/Fractals_stims/A.jpg,0.0,60.0,40.0,60.0,40.0,A,B,139.831,0.831,0.0,
125,,rl_choice_confirmation,,html-keyboard-response,125,714780,0.0-1.0-171.0-0.0,0,0,26705,,,,,,24.0,,,,,,,,,,,,,,,,,,,,,,140.5,0.669,,
126,,isi,,html-keyboard-response,126,716302,0.0-1.0-173.0,0,0,26705,,,,,,,,,,,,,,,,,,,,,,,,,,,,142.0,1.5,,
127,,feedback,,html-keyboard-response,127,717313,0.0-1.0-174.0-0.0,0,0,26705,,,,,,24.0,,,,,,,,,,,,,,,,,,,,,,143.0,1.0,,
128,,iti,,html-keyboard-response,128,719322,0.0-1.0-175.0,0,0,26705,,,,,,,,,,,,,,,,,,,,,,,,,,,,145.0,2.0,,
129,,rl_choice,,html-keyboard-response,129,719924,0.0-1.0-177.0,0,0,26705,,598.0,,,68.0,25.0,25.0,1.0,hard,3000.0,1500.0,1.0,60.0,40.0,40.0,40.0,A,B,/static/Simple_RL/Stimuli/Fractals_stims/A.jpg,/static/Simple_RL/Stimuli/Fractals_stims/B.jpg,1.0,60.0,40.0,40.0,40.0,A,B,145.598,0.598,0.0,
130,,rl_choice_confirmation,,html-keyboard-response,130,720842,0.0-1.0-178.0-0.0,0,0,26705,,,,,,25.0,,,,,,,,,,,,,,,,,,,,,,146.5,0.902,,
131,,isi,,html-keyboard-response,131,722351,0.0-1.0-180.0,0,0,26705,,,,,,,,,,,,,,,,,,,,,,,,,,,,148.0,1.5,,
132,,feedback,,html-keyboard-response,132,723359,0.0-1.0-181.0-0.0,0,0,26705,,,,,,25.0,,,,,,,,,,,,,,,,,,,,,,149.0,1.0,,
133,,iti,,html-keyboard-response,133,726363,0.0-1.0-182.0,0,0,26705,,,,,,,,,,,,,,,,,,,,,,,,,,,,152.0,3.0,,
134,,rl_choice,,html-keyboard-response,134,727079,0.0-1.0-184.0,0,0,26705,,714.0,,,75.0,26.0,26.0,1.0,hard,1000.0,2000.0,0.0,40.0,60.0,40.0,80.0,B,A,/static/Simple_RL/Stimuli/Fractals_stims/B.jpg,/static/Simple_RL/Stimuli/Fractals_stims/A.jpg,0.0,60.0,40.0,80.0,40.0,A,B,152.714,0.714,0.0,
135,,rl_choice_confirmation,,html-keyboard-response,135,727882,0.0-1.0-185.0-0.0,0,0,26705,,,,,,26.0,,,,,,,,,,,,,,,,,,,,,,153.5,0.786,,
136,,isi,,html-keyboard-response,136,729895,0.0-1.0-187.0,0,0,26705,,,,,,,,,,,,,,,,,,,,,,,,,,,,155.5,2.0,,
137,,feedback,,html-keyboard-response,137,730902,0.0-1.0-188.0-0.0,0,0,26705,,,,,,26.0,,,,,,,,,,,,,,,,,,,,,,156.5,1.0,,
138,,iti,,html-keyboard-response,138,731913,0.0-1.0-189.0,0,0,26705,,,,,,,,,,,,,,,,,,,,,,,,,,,,157.5,1.0,,
139,,rl_choice,,html-keyboard-response,139,732705,0.0-1.0-191.0,0,0,26705,,788.0,,,68.0,27.0,27.0,1.0,easy,3000.0,1000.0,1.0,80.0,20.0,80.0,40.0,C,D,/static/Simple_RL/Stimuli/Fractals_stims/C.jpg,/static/Simple_RL/Stimuli/Fractals_stims/D.jpg,1.0,80.0,20.0,80.0,40.0,C,D,158.288,0.788,0.0,
140,,rl_choice_confirmation,,html-keyboard-response,140,733428,0.0-1.0-192.0-0.0,0,0,26705,,,,,,27.0,,,,,,,,,,,,,,,,,,,,,,159.0,0.712,,
141,,isi,,html-keyboard-response,141,734442,0.0-1.0-194.0,0,0,26705,,,,,,,,,,,,,,,,,,,,,,,,,,,,160.0,1.0,,
142,,feedback,,html-keyboard-response,142,735453,0.0-1.0-195.0-0.0,0,0,26705,,,,,,27.0,,,,,,,,,,,,,,,,,,,,,,161.0,1.0,,
143,,iti,,html-keyboard-response,143,738458,0.0-1.0-196.0,0,0,26705,,,,,,,,,,,,,,,,,,,,,,,,,,,,164.0,3.0,,
144,,rl_choice,,html-keyboard-response,144,739287,0.0-1.0-198.0,0,0,26705,,826.0,,,68.0,28.0,28.0,1.0,easy,1000.0,3500.0,1.0,80.0,20.0,60.0,20.0,C,D,/static/Simple_RL/Stimuli/Fractals_stims/C.jpg,/static/Simple_RL/Stimuli/Fractals_stims/D.jpg,1.0,80.0,20.0,60.0,20.0,C,D,164.826,0.826,0.0,
145,,rl_choice_confirmation,,html-keyboard-response,145,739972,0.0-1.0-199.0-0.0,0,0,26705,,,,,,28.0,,,,,,,,,,,,,,,,,,,,,,165.5,0.674,,
146,,isi,,html-keyboard-response,146,743479,0.0-1.0-201.0,0,0,26705,,,,,,,,,,,,,,,,,,,,,,,,,,,,169.0,3.5,,
147,,feedback,,html-keyboard-response,147,744492,0.0-1.0-202.0-0.0,0,0,26705,,,,,,28.0,,,,,,,,,,,,,,,,,,,,,,170.0,1.0,,
148,,iti,,html-keyboard-response,148,745508,0.0-1.0-203.0,0,0,26705,,,,,,,,,,,,,,,,,,,,,,,,,,,,171.0,1.0,,
149,,rl_choice,,html-keyboard-response,149,746162,0.0-1.0-205.0,0,0,26705,,648.0,,,75.0,29.0,29.0,1.0,hard,1500.0,1000.0,0.0,40.0,60.0,60.0,40.0,B,A,/static/Simple_RL/Stimuli/Fractals_stims/B.jpg,/static/Simple_RL/Stimuli/Fractals_stims/A.jpg,0.0,60.0,40.0,40.0,60.0,A,B,171.648,0.648,0.0,
150,,rl_choice_confirmation,,html-keyboard-response,150,747032,0.0-1.0-206.0-0.0,0,0,26705,,,,,,29.0,,,,,,,,,,,,,,,,,,,,,,172.5,0.852,,
151,,isi,,html-keyboard-response,151,748039,0.0-1.0-208.0,0,0,26705,,,,,,,,,,,,,,,,,,,,,,,,,,,,173.5,1.0,,
152,,feedback,,html-keyboard-response,152,749052,0.0-1.0-209.0-0.0,0,0,26705,,,,,,29.0,,,,,,,,,,,,,,,,,,,,,,174.5,1.0,,
153,,iti,,html-keyboard-response,153,750568,0.0-1.0-210.0,0,0,26705,,,,,,,,,,,,,,,,,,,,,,,,,,,,176.0,1.5,,
154,,rl_choice,,html-keyboard-response,154,751414,0.0-1.0-212.0,0,0,26705,,843.0,,,68.0,30.0,30.0,1.0,easy,1000.0,1500.0,1.0,80.0,20.0,100.0,20.0,C,D,/static/Simple_RL/Stimuli/Fractals_stims/C.jpg,/static/Simple_RL/Stimuli/Fractals_stims/D.jpg,1.0,80.0,20.0,100.0,20.0,C,D,176.843,0.843,0.0,
155,,rl_choice_confirmation,,html-keyboard-response,155,752076,0.0-1.0-213.0-0.0,0,0,26705,,,,,,30.0,,,,,,,,,,,,,,,,,,,,,,177.5,0.657,,
156,,isi,,html-keyboard-response,156,753586,0.0-1.0-215.0,0,0,26705,,,,,,,,,,,,,,,,,,,,,,,,,,,,179.0,1.5,,
157,,feedback,,html-keyboard-response,157,754603,0.0-1.0-216.0-0.0,0,0,26705,,,,,,30.0,,,,,,,,,,,,,,,,,,,,,,180.0,1.0,,
158,,iti,,html-keyboard-response,158,755612,0.0-1.0-217.0,0,0,26705,,,,,,,,,,,,,,,,,,,,,,,,,,,,181.0,1.0,,
159,,rl_choice,,html-keyboard-response,159,756343,0.0-1.0-219.0,0,0,26705,,727.0,,,75.0,31.0,31.0,1.0,easy,2000.0,1500.0,0.0,20.0,80.0,40.0,100.0,D,C,/static/Simple_RL/Stimuli/Fractals_stims/D.jpg,/static/Simple_RL/Stimuli/Fractals_stims/C.jpg,0.0,80.0,20.0,100.0,40.0,C,D,181.727,0.727,0.0,
160,,rl_choice_confirmation,,html-keyboard-response,160,757132,0.0-1.0-220.0-0.0,0,0,26705,,,,,,31.0,,,,,,,,,,,,,,,,,,,,,,182.5,0.773,,
161,,isi,,html-keyboard-response,161,758641,0.0-1.0-222.0,0,0,26705,,,,,,,,,,,,,,,,,,,,,,,,,,,,184.0,1.5,,
162,,feedback,,html-keyboard-response,162,759654,0.0-1.0-223.0-0.0,0,0,26705,,,,,,31.0,,,,,,,,,,,,,,,,,,,,,,185.0,1.0,,
163,,iti,,html-keyboard-response,163,761657,0.0-1.0-224.0,0,0,26705,,,,,,,,,,,,,,,,,,,,,,,,,,,,187.0,2.0,,
164,,rl_choice,,html-keyboard-response,164,762438,0.0-1.0-226.0,0,0,26705,,777.0,,,68.0,32.0,32.0,1.0,hard,1500.0,1000.0,0.0,40.0,60.0,40.0,80.0,B,A,/static/Simple_RL/Stimuli/Fractals_stims/B.jpg,/static/Simple_RL/Stimuli/Fractals_stims/A.jpg,1.0,40.0,60.0,40.0,80.0,B,A,187.777,0.777,0.0,
165,,rl_choice_confirmation,,html-keyboard-response,165,763172,0.0-1.0-227.0-0.0,0,0,26705,,,,,,32.0,,,,,,,,,,,,,,,,,,,,,,188.5,0.723,,
166,,isi,,html-keyboard-response,166,764180,0.0-1.0-229.0,0,0,26705,,,,,,,,,,,,,,,,,,,,,,,,,,,,189.5,1.0,,
167,,feedback,,html-keyboard-response,167,765188,0.0-1.0-230.0-0.0,0,0,26705,,,,,,32.0,,,,,,,,,,,,,,,,,,,,,,190.5,1.0,,
168,,iti,,html-keyboard-response,168,766697,0.0-1.0-231.0,0,0,26705,,,,,,,,,,,,,,,,,,,,,,,,,,,,192.0,1.5,,
169,,rl_choice,,html-keyboard-response,169,767454,0.0-1.0-233.0,0,0,26705,,753.0,,,75.0,33.0,33.0,1.0,easy,1000.0,1000.0,0.0,20.0,80.0,40.0,100.0,D,C,/static/Simple_RL/Stimuli/Fractals_stims/D.jpg,/static/Simple_RL/Stimuli/Fractals_stims/C.jpg,0.0,80.0,20.0,100.0,40.0,C,D,192.753,0.753,0.0,
170,,rl_choice_confirmation,,html-keyboard-response,170,768210,0.0-1.0-234.0-0.0,0,0,26705,,,,,,33.0,,,,,,,,,,,,,,,,,,,,,,193.5,0.747,,
171,,isi,,html-keyboard-response,171,769221,0.0-1.0-236.0,0,0,26705,,,,,,,,,,,,,,,,,,,,,,,,,,,,194.5,1.0,,
172,,feedback,,html-keyboard-response,172,770229,0.0-1.0-237.0-0.0,0,0,26705,,,,,,33.0,,,,,,,,,,,,,,,,,,,,,,195.5,1.0,,
173,,iti,,html-keyboard-response,173,771237,0.0-1.0-238.0,0,0,26705,,,,,,,,,,,,,,,,,,,,,,,,,,,,196.5,1.0,,
174,,rl_choice,,html-keyboard-response,174,771934,0.0-1.0-240.0,0,0,26705,,693.0,,,68.0,34.0,34.0,1.0,easy,3500.0,3000.0,1.0,80.0,20.0,80.0,40.0,C,D,/static/Simple_RL/Stimuli/Fractals_stims/C.jpg,/static/Simple_RL/Stimuli/Fractals_stims/D.jpg,1.0,80.0,20.0,80.0,40.0,C,D,197.193,0.693,0.0,
175,,rl_choice_confirmation,,html-keyboard-response,175,772752,0.0-1.0-241.0-0.0,0,0,26705,,,,,,34.0,,,,,,,,,,,,,,,,,,,,,,198.0,0.807,,
176,,isi,,html-keyboard-response,176,775762,0.0-1.0-243.0,0,0,26705,,,,,,,,,,,,,,,,,,,,,,,,,,,,201.0,3.0,,
177,,feedback,,html-keyboard-response,177,776772,0.0-1.0-244.0-0.0,0,0,26705,,,,,,34.0,,,,,,,,,,,,,,,,,,,,,,202.0,1.0,,
178,,iti,,html-keyboard-response,178,780292,0.0-1.0-245.0,0,0,26705,,,,,,,,,,,,,,,,,,,,,,,,,,,,205.5,3.5,,
179,,rl_choice,,html-keyboard-response,179,781047,0.0-1.0-247.0,0,0,26705,,751.0,,,68.0,35.0,35.0,1.0,easy,1500.0,2000.0,1.0,80.0,20.0,60.0,40.0,C,D,/static/Simple_RL/Stimuli/Fractals_stims/C.jpg,/static/Simple_RL/Stimuli/Fractals_stims/D.jpg,1.0,80.0,20.0,60.0,40.0,C,D,206.251,0.751,0.0,
180,,rl_choice_confirmation,,html-keyboard-response,180,781802,0.0-1.0-248.0-0.0,0,0,26705,,,,,,35.0,,,,,,,,,,,,,,,,,,,,,,207.0,0.749,,
181,,isi,,html-keyboard-response,181,783811,0.0-1.0-250.0,0,0,26705,,,,,,,,,,,,,,,,,,,,,,,,,,,,209.0,2.0,,
182,,feedback,,html-keyboard-response,182,784822,0.0-1.0-251.0-0.0,0,0,26705,,,,,,35.0,,,,,,,,,,,,,,,,,,,,,,210.0,1.0,,
183,,iti,,html-keyboard-response,183,786339,0.0-1.0-252.0,0,0,26705,,,,,,,,,,,,,,,,,,,,,,,,,,,,211.5,1.5,,
184,,rl_choice,,html-keyboard-response,184,787023,0.0-1.0-254.0,0,0,26705,,679.0,,,75.0,36.0,36.0,1.0,easy,1500.0,1500.0,0.0,20.0,80.0,20.0,100.0,D,C,/static/Simple_RL/Stimuli/Fractals_stims/D.jpg,/static/Simple_RL/Stimuli/Fractals_stims/C.jpg,0.0,80.0,20.0,100.0,20.0,C,D,212.179,0.679,0.0,
185,,rl_choice_confirmation,,html-keyboard-response,185,787857,0.0-1.0-255.0-0.0,0,0,26705,,,,,,36.0,,,,,,,,,,,,,,,,,,,,,,213.0,0.821,,
186,,isi,,html-keyboard-response,186,789362,0.0-1.0-257.0,0,0,26705,,,,,,,,,,,,,,,,,,,,,,,,,,,,214.5,1.5,,
187,,feedback,,html-keyboard-response,187,790370,0.0-1.0-258.0-0.0,0,0,26705,,,,,,36.0,,,,,,,,,,,,,,,,,,,,,,215.5,1.0,,
188,,iti,,html-keyboard-response,188,791879,0.0-1.0-259.0,0,0,26705,,,,,,,,,,,,,,,,,,,,,,,,,,,,217.0,1.5,,
189,,rl_choice,,html-keyboard-response,189,792647,0.0-1.0-261.0,0,0,26705,,764.0,,,68.0,37.0,37.0,1.0,hard,2000.0,1000.0,1.0,60.0,40.0,60.0,40.0,A,B,/static/Simple_RL/Stimuli/Fractals_stims/A.jpg,/static/Simple_RL/Stimuli/Fractals_stims/B.jpg,1.0,60.0,40.0,60.0,40.0,A,B,217.764,0.764,0.0,
190,,rl_choice_confirmation,,html-keyboard-response,190,793398,0.0-1.0-262.0-0.0,0,0,26705,,,,,,37.0,,,,,,,,,,,,,,,,,,,,,,218.5,0.736,,
191,,isi,,html-keyboard-response,191,794411,0.0-1.0-264.0,0,0,26705,,,,,,,,,,,,,,,,,,,,,,,,,,,,219.5,1.0,,
192,,feedback,,html-keyboard-response,192,795423,0.0-1.0-265.0-0.0,0,0,26705,,,,,,37.0,,,,,,,,,,,,,,,,,,,,,,220.5,1.0,,
193,,iti,,html-keyboard-response,193,797437,0.0-1.0-266.0,0,0,26705,,,,,,,,,,,,,,,,,,,,,,,,,,,,222.5,2.0,,
194,,rl_choice,,html-keyboard-response,194,798059,0.0-1.0-268.0,0,0,26705,,617.0,,,75.0,38.0,38.0,1.0,hard,1000.0,1500.0,0.0,40.0,60.0,20.0,40.0,B,A,/static/Simple_RL/Stimuli/Fractals_stims/B.jpg,/static/Simple_RL/Stimuli/Fractals_stims/A.jpg,0.0,60.0,40.0,40.0,20.0,A,B,223.117,0.617,0.0,
195,,rl_choice_confirmation,,html-keyboard-response,195,798951,0.0-1.0-269.0-0.0,0,0,26705,,,,,,38.0,,,,,,,,,,,,,,,,,,,,,,224.0,0.883,,
196,,isi,,html-keyboard-response,196,800462,0.0-1.0-271.0,0,0,26705,,,,,,,,,,,,,,,,,,,,,,,,,,,,225.5,1.5,,
197,,feedback,,html-keyboard-response,197,801473,0.0-1.0-272.0-0.0,0,0,26705,,,,,,38.0,,,,,,,,,,,,,,,,,,,,,,226.5,1.0,,
198,,iti,,html-keyboard-response,198,802479,0.0-1.0-273.0,0,0,26705,,,,,,,,,,,,,,,,,,,,,,,,,,,,227.5,1.0,,
199,,rl_choice,,html-keyboard-response,199,803168,0.0-1.0-275.0,0,0,26705,,682.0,,,75.0,39.0,39.0,1.0,easy,1000.0,1000.0,0.0,20.0,80.0,0.0,60.0,D,C,/static/Simple_RL/Stimuli/Fractals_stims/D.jpg,/static/Simple_RL/Stimuli/Fractals_stims/C.jpg,0.0,80.0,20.0,60.0,0.0,C,D,228.182,0.682,0.0,
200,,rl_choice_confirmation,,html-keyboard-response,200,803994,0.0-1.0-276.0-0.0,0,0,26705,,,,,,39.0,,,,,,,,,,,,,,,,,,,,,,229.0,0.818,,
201,,isi,,html-keyboard-response,201,805002,0.0-1.0-278.0,0,0,26705,,,,,,,,,,,,,,,,,,,,,,,,,,,,230.0,1.0,,
202,,feedback,,html-keyboard-response,202,806017,0.0-1.0-279.0-0.0,0,0,26705,,,,,,39.0,,,,,,,,,,,,,,,,,,,,,,231.0,1.0,,
203,,iti,,html-keyboard-response,203,807022,0.0-1.0-280.0,0,0,26705,,,,,,,,,,,,,,,,,,,,,,,,,,,,232.0,1.0,,
204,,block_over,,html-keyboard-response,204,877049,0.0-1.0-281.0-0.0,0,0,26705,,70019.0,,,68.0,39.0,,,,,,,,,,,,,,,,,,,,,,,,,
205,,start_run,,html-keyboard-response,205,878594,0.0-1.0-281.0-1.0,0,0,26705,,1541.0,,,84.0,,,,,,,,,,,,,,,,,,,,,,,,,,
206,,rl_choice,,html-keyboard-response,206,879346,0.0-1.0-282.0,0,0,26705,,748.0,,,68.0,40.0,40.0,2.0,easy,1500.0,2000.0,1.0,80.0,20.0,60.0,20.0,C,D,/static/Simple_RL/Stimuli/Fractals_stims/C.jpg,/static/Simple_RL/Stimuli/Fractals_stims/D.jpg,1.0,80.0,20.0,60.0,20.0,C,D,0.748,0.748,0.0,
207,,rl_choice_confirmation,,html-keyboard-response,207,880114,0.0-1.0-283.0-0.0,0,0,26705,,,,,,40.0,,,,,,,,,,,,,,,,,,,,,,1.5,0.752,,
208,,isi,,html-keyboard-response,208,882127,0.0-1.0-285.0,0,0,26705,,,,,,,,,,,,,,,,,,,,,,,,,,,,3.5,2.0,,
209,,feedback,,html-keyboard-response,209,883132,0.0-1.0-286.0-0.0,0,0,26705,,,,,,40.0,,,,,,,,,,,,,,,,,,,,,,4.5,1.0,,
210,,iti,,html-keyboard-response,210,884646,0.0-1.0-287.0,0,0,26705,,,,,,,,,,,,,,,,,,,,,,,,,,,,6.0,1.5,,
211,,rl_choice,,html-keyboard-response,211,885518,0.0-1.0-289.0,0,0,26705,,868.0,,,75.0,41.0,41.0,2.0,hard,1000.0,2000.0,0.0,40.0,60.0,60.0,60.0,B,A,/static/Simple_RL/Stimuli/Fractals_stims/B.jpg,/static/Simple_RL/Stimuli/Fractals_stims/A.jpg,0.0,60.0,40.0,60.0,60.0,A,B,6.868,0.868,0.0,
212,,rl_choice_confirmation,,html-keyboard-response,212,886162,0.0-1.0-290.0-0.0,0,0,26705,,,,,,41.0,,,,,,,,,,,,,,,,,,,,,,7.5,0.632,,
213,,isi,,html-keyboard-response,213,888172,0.0-1.0-292.0,0,0,26705,,,,,,,,,,,,,,,,,,,,,,,,,,,,9.5,2.0,,
214,,feedback,,html-keyboard-response,214,889192,0.0-1.0-293.0-0.0,0,0,26705,,,,,,41.0,,,,,,,,,,,,,,,,,,,,,,10.5,1.0,,
215,,iti,,html-keyboard-response,215,890211,0.0-1.0-294.0,0,0,26705,,,,,,,,,,,,,,,,,,,,,,,,,,,,11.5,1.0,,
216,,rl_choice,,html-keyboard-response,216,890719,0.0-1.0-296.0,0,0,26705,,501.0,,,75.0,42.0,42.0,2.0,hard,1500.0,1000.0,0.0,40.0,60.0,20.0,80.0,B,A,/static/Simple_RL/Stimuli/Fractals_stims/B.jpg,/static/Simple_RL/Stimuli/Fractals_stims/A.jpg,0.0,60.0,40.0,80.0,20.0,A,B,12.001,0.501,0.0,
217,,rl_choice_confirmation,,html-keyboard-response,217,891742,0.0-1.0-297.0-0.0,0,0,26705,,,,,,42.0,,,,,,,,,,,,,,,,,,,,,,13.0,0.999,,
218,,isi,,html-keyboard-response,218,892757,0.0-1.0-299.0,0,0,26705,,,,,,,,,,,,,,,,,,,,,,,,,,,,14.0,1.0,,
219,,feedback,,html-keyboard-response,219,893769,0.0-1.0-300.0-0.0,0,0,26705,,,,,,42.0,,,,,,,,,,,,,,,,,,,,,,15.0,1.0,,
220,,iti,,html-keyboard-response,220,895281,0.0-1.0-301.0,0,0,26705,,,,,,,,,,,,,,,,,,,,,,,,,,,,16.5,1.5,,
221,,rl_choice,,html-keyboard-response,221,895768,0.0-1.0-303.0,0,0,26705,,482.0,,,75.0,43.0,43.0,2.0,hard,1000.0,2000.0,0.0,40.0,60.0,20.0,80.0,B,A,/static/Simple_RL/Stimuli/Fractals_stims/B.jpg,/static/Simple_RL/Stimuli/Fractals_stims/A.jpg,0.0,60.0,40.0,80.0,20.0,A,B,16.982,0.482,0.0,
222,,rl_choice_confirmation,,html-keyboard-response,222,896797,0.0-1.0-304.0-0.0,0,0,26705,,,,,,43.0,,,,,,,,,,,,,,,,,,,,,,18.0,1.018,,
223,,isi,,html-keyboard-response,223,898804,0.0-1.0-306.0,0,0,26705,,,,,,,,,,,,,,,,,,,,,,,,,,,,20.0,2.0,,
224,,feedback,,html-keyboard-response,224,899813,0.0-1.0-307.0-0.0,0,0,26705,,,,,,43.0,,,,,,,,,,,,,,,,,,,,,,21.0,1.0,,
225,,iti,,html-keyboard-response,225,900845,0.0-1.0-308.0,0,0,26705,,,,,,,,,,,,,,,,,,,,,,,,,,,,22.0,1.0,,
226,,rl_choice,,html-keyboard-response,226,901496,0.0-1.0-310.0,0,0,26705,,646.0,,,75.0,44.0,44.0,2.0,hard,1000.0,1000.0,0.0,40.0,60.0,40.0,40.0,B,A,/static/Simple_RL/Stimuli/Fractals_stims/B.jpg,/static/Simple_RL/Stimuli/Fractals_stims/A.jpg,0.0,60.0,40.0,40.0,40.0,A,B,22.646,0.646,0.0,
227,,rl_choice_confirmation,,html-keyboard-response,227,902359,0.0-1.0-311.0-0.0,0,0,26705,,,,,,44.0,,,,,,,,,,,,,,,,,,,,,,23.5,0.854,,
228,,isi,,html-keyboard-response,228,903371,0.0-1.0-313.0,0,0,26705,,,,,,,,,,,,,,,,,,,,,,,,,,,,24.5,1.0,,
229,,feedback,,html-keyboard-response,229,904387,0.0-1.0-314.0-0.0,0,0,26705,,,,,,44.0,,,,,,,,,,,,,,,,,,,,,,25.5,1.0,,
230,,iti,,html-keyboard-response,230,905390,0.0-1.0-315.0,0,0,26705,,,,,,,,,,,,,,,,,,,,,,,,,,,,26.5,1.0,,
231,,rl_choice,,html-keyboard-response,231,906050,0.0-1.0-317.0,0,0,26705,,656.0,,,75.0,45.0,45.0,2.0,hard,2000.0,1500.0,0.0,40.0,60.0,20.0,40.0,B,A,/static/Simple_RL/Stimuli/Fractals_stims/B.jpg,/static/Simple_RL/Stimuli/Fractals_stims/A.jpg,0.0,60.0,40.0,40.0,20.0,A,B,27.156,0.656,0.0,
232,,rl_choice_confirmation,,html-keyboard-response,232,906908,0.0-1.0-318.0-0.0,0,0,26705,,,,,,45.0,,,,,,,,,,,,,,,,,,,,,,28.0,0.844,,
233,,isi,,html-keyboard-response,233,908421,0.0-1.0-320.0,0,0,26705,,,,,,,,,,,,,,,,,,,,,,,,,,,,29.5,1.5,,
234,,feedback,,html-keyboard-response,234,909432,0.0-1.0-321.0-0.0,0,0,26705,,,,,,45.0,,,,,,,,,,,,,,,,,,,,,,30.5,1.0,,
235,,iti,,html-keyboard-response,235,911447,0.0-1.0-322.0,0,0,26705,,,,,,,,,,,,,,,,,,,,,,,,,,,,32.5,2.0,,
236,,rl_choice,,html-keyboard-response,236,912103,0.0-1.0-324.0,0,0,26705,,652.0,,,75.0,46.0,46.0,2.0,easy,1500.0,3000.0,0.0,20.0,80.0,0.0,80.0,D,C,/static/Simple_RL/Stimuli/Fractals_stims/D.jpg,/static/Simple_RL/Stimuli/Fractals_stims/C.jpg,0.0,80.0,20.0,80.0,0.0,C,D,33.152,0.652,0.0,
237,,rl_choice_confirmation,,html-keyboard-response,237,912961,0.0-1.0-325.0-0.0,0,0,26705,,,,,,46.0,,,,,,,,,,,,,,,,,,,,,,34.0,0.848,,
238,,isi,,html-keyboard-response,238,915971,0.0-1.0-327.0,0,0,26705,,,,,,,,,,,,,,,,,,,,,,,,,,,,37.0,3.0,,
239,,feedback,,html-keyboard-response,239,916981,0.0-1.0-328.0-0.0,0,0,26705,,,,,,46.0,,,,,,,,,,,,,,,,,,,,,,38.0,1.0,,
240,,iti,,html-keyboard-response,240,918491,0.0-1.0-329.0,0,0,26705,,,,,,,,,,,,,,,,,,,,,,,,,,,,39.5,1.5,,
241,,rl_choice,,html-keyboard-response,241,919190,0.0-1.0-331.0,0,0,26705,,695.0,,,75.0,47.0,47.0,2.0,easy,1500.0,1000.0,0.0,20.0,80.0,20.0,80.0,D,C,/static/Simple_RL/Stimuli/Fractals_stims/D.jpg,/static/Simple_RL/Stimuli/Fractals_stims/C.jpg,0.0,80.0,20.0,80.0,20.0,C,D,40.195,0.695,0.0,
242,,rl_choice_confirmation,,html-keyboard-response,242,920006,0.0-1.0-332.0-0.0,0,0,26705,,,,,,47.0,,,,,,,,,,,,,,,,,,,,,,41.0,0.805,,
243,,isi,,html-keyboard-response,243,921016,0.0-1.0-334.0,0,0,26705,,,,,,,,,,,,,,,,,,,,,,,,,,,,42.0,1.0,,
244,,feedback,,html-keyboard-response,244,922022,0.0-1.0-335.0-0.0,0,0,26705,,,,,,47.0,,,,,,,,,,,,,,,,,,,,,,43.0,1.0,,
245,,iti,,html-keyboard-response,245,923533,0.0-1.0-336.0,0,0,26705,,,,,,,,,,,,,,,,,,,,,,,,,,,,44.5,1.5,,
246,,rl_choice,,html-keyboard-response,246,924254,0.0-1.0-338.0,0,0,26705,,718.0,,,68.0,48.0,48.0,2.0,easy,2000.0,1000.0,1.0,80.0,20.0,80.0,20.0,C,D,/static/Simple_RL/Stimuli/Fractals_stims/C.jpg,/static/Simple_RL/Stimuli/Fractals_stims/D.jpg,1.0,80.0,20.0,80.0,20.0,C,D,45.218,0.718,0.0,
247,,rl_choice_confirmation,,html-keyboard-response,247,925051,0.0-1.0-339.0-0.0,0,0,26705,,,,,,48.0,,,,,,,,,,,,,,,,,,,,,,46.0,0.782,,
248,,isi,,html-keyboard-response,248,926067,0.0-1.0-341.0,0,0,26705,,,,,,,,,,,,,,,,,,,,,,,,,,,,47.0,1.0,,
249,,feedback,,html-keyboard-response,249,927078,0.0-1.0-342.0-0.0,0,0,26705,,,,,,48.0,,,,,,,,,,,,,,,,,,,,,,48.0,1.0,,
250,,iti,,html-keyboard-response,250,929081,0.0-1.0-343.0,0,0,26705,,,,,,,,,,,,,,,,,,,,,,,,,,,,50.0,2.0,,
251,,rl_choice,,html-keyboard-response,251,929811,0.0-1.0-345.0,0,0,26705,,725.0,,,75.0,49.0,49.0,2.0,hard,1500.0,2000.0,0.0,40.0,60.0,60.0,60.0,B,A,/static/Simple_RL/Stimuli/Fractals_stims/B.jpg,/static/Simple_RL/Stimuli/Fractals_stims/A.jpg,0.0,60.0,40.0,60.0,60.0,A,B,50.725,0.725,0.0,
252,,rl_choice_confirmation,,html-keyboard-response,252,930592,0.0-1.0-346.0-0.0,0,0,26705,,,,,,49.0,,,,,,,,,,,,,,,,,,,,,,51.5,0.775,,
253,,isi,,html-keyboard-response,253,932601,0.0-1.0-348.0,0,0,26705,,,,,,,,,,,,,,,,,,,,,,,,,,,,53.5,2.0,,
254,,feedback,,html-keyboard-response,254,933611,0.0-1.0-349.0-0.0,0,0,26705,,,,,,49.0,,,,,,,,,,,,,,,,,,,,,,54.5,1.0,,
255,,iti,,html-keyboard-response,255,935123,0.0-1.0-350.0,0,0,26705,,,,,,,,,,,,,,,,,,,,,,,,,,,,56.0,1.5,,
256,,rl_choice,,html-keyboard-response,256,935920,0.0-1.0-352.0,0,0,26705,,793.0,,,75.0,50.0,50.0,2.0,easy,1000.0,3500.0,0.0,20.0,80.0,0.0,100.0,D,C,/static/Simple_RL/Stimuli/Fractals_stims/D.jpg,/static/Simple_RL/Stimuli/Fractals_stims/C.jpg,0.0,80.0,20.0,100.0,0.0,C,D,56.793,0.793,0.0,
257,,rl_choice_confirmation,,html-keyboard-response,257,936642,0.0-1.0-353.0-0.0,0,0,26705,,,,,,50.0,,,,,,,,,,,,,,,,,,,,,,57.5,0.707,,
258,,isi,,html-keyboard-response,258,940151,0.0-1.0-355.0,0,0,26705,,,,,,,,,,,,,,,,,,,,,,,,,,,,61.0,3.5,,
259,,feedback,,html-keyboard-response,259,941157,0.0-1.0-356.0-0.0,0,0,26705,,,,,,50.0,,,,,,,,,,,,,,,,,,,,,,62.0,1.0,,
260,,iti,,html-keyboard-response,260,942172,0.0-1.0-357.0,0,0,26705,,,,,,,,,,,,,,,,,,,,,,,,,,,,63.0,1.0,,
261,,rl_choice,,html-keyboard-response,261,942895,0.0-1.0-359.0,0,0,26705,,718.0,,,68.0,51.0,51.0,2.0,easy,1500.0,1000.0,1.0,80.0,20.0,60.0,20.0,C,D,/static/Simple_RL/Stimuli/Fractals_stims/C.jpg,/static/Simple_RL/Stimuli/Fractals_stims/D.jpg,1.0,80.0,20.0,60.0,20.0,C,D,63.718,0.718,0.0,
262,,rl_choice_confirmation,,html-keyboard-response,262,943687,0.0-1.0-360.0-0.0,0,0,26705,,,,,,51.0,,,,,,,,,,,,,,,,,,,,,,64.5,0.782,,
263,,isi,,html-keyboard-response,263,944702,0.0-1.0-362.0,0,0,26705,,,,,,,,,,,,,,,,,,,,,,,,,,,,65.5,1.0,,
264,,feedback,,html-keyboard-response,264,945716,0.0-1.0-363.0-0.0,0,0,26705,,,,,,51.0,,,,,,,,,,,,,,,,,,,,,,66.5,1.0,,
265,,iti,,html-keyboard-response,265,947231,0.0-1.0-364.0,0,0,26705,,,,,,,,,,,,,,,,,,,,,,,,,,,,68.0,1.5,,
266,,rl_choice,,html-keyboard-response,266,947902,0.0-1.0-366.0,0,0,26705,,667.0,,,75.0,52.0,52.0,2.0,hard,2000.0,1500.0,0.0,40.0,60.0,20.0,80.0,B,A,/static/Simple_RL/Stimuli/Fractals_stims/B.jpg,/static/Simple_RL/Stimuli/Fractals_stims/A.jpg,0.0,60.0,40.0,80.0,20.0,A,B,68.667,0.667,0.0,
267,,rl_choice_confirmation,,html-keyboard-response,267,948742,0.0-1.0-367.0-0.0,0,0,26705,,,,,,52.0,,,,,,,,,,,,,,,,,,,,,,69.5,0.833,,
268,,isi,,html-keyboard-response,268,950252,0.0-1.0-369.0,0,0,26705,,,,,,,,,,,,,,,,,,,,,,,,,,,,71.0,1.5,,
269,,feedback,,html-keyboard-response,269,951266,0.0-1.0-370.0-0.0,0,0,26705,,,,,,52.0,,,,,,,,,,,,,,,,,,,,,,72.0,1.0,,
270,,iti,,html-keyboard-response,270,953288,0.0-1.0-371.0,0,0,26705,,,,,,,,,,,,,,,,,,,,,,,,,,,,74.0,2.0,,
271,,rl_choice,,html-keyboard-response,271,953941,0.0-1.0-373.0,0,0,26705,,646.0,,,75.0,53.0,53.0,2.0,hard,3000.0,1500.0,0.0,40.0,60.0,20.0,40.0,B,A,/static/Simple_RL/Stimuli/Fractals_stims/B.jpg,/static/Simple_RL/Stimuli/Fractals_stims/A.jpg,0.0,60.0,40.0,40.0,20.0,A,B,74.646,0.646,0.0,
272,,rl_choice_confirmation,,html-keyboard-response,272,954811,0.0-1.0-374.0-0.0,0,0,26705,,,,,,53.0,,,,,,,,,,,,,,,,,,,,,,75.5,0.854,,
273,,isi,,html-keyboard-response,273,956321,0.0-1.0-376.0,0,0,26705,,,,,,,,,,,,,,,,,,,,,,,,,,,,77.0,1.5,,
274,,feedback,,html-keyboard-response,274,957332,0.0-1.0-377.0-0.0,0,0,26705,,,,,,53.0,,,,,,,,,,,,,,,,,,,,,,78.0,1.0,,
275,,iti,,html-keyboard-response,275,960348,0.0-1.0-378.0,0,0,26705,,,,,,,,,,,,,,,,,,,,,,,,,,,,81.0,3.0,,
276,,rl_choice,,html-keyboard-response,276,960885,0.0-1.0-380.0,0,0,26705,,532.0,,,75.0,54.0,54.0,2.0,easy,3000.0,1500.0,0.0,20.0,80.0,20.0,100.0,D,C,/static/Simple_RL/Stimuli/Fractals_stims/D.jpg,/static/Simple_RL/Stimuli/Fractals_stims/C.jpg,0.0,80.0,20.0,100.0,20.0,C,D,81.532,0.532,0.0,
277,,rl_choice_confirmation,,html-keyboard-response,277,961861,0.0-1.0-381.0-0.0,0,0,26705,,,,,,54.0,,,,,,,,,,,,,,,,,,,,,,82.5,0.968,,
278,,isi,,html-keyboard-response,278,963367,0.0-1.0-383.0,0,0,26705,,,,,,,,,,,,,,,,,,,,,,,,,,,,84.0,1.5,,
279,,feedback,,html-keyboard-response,279,964377,0.0-1.0-384.0-0.0,0,0,26705,,,,,,54.0,,,,,,,,,,,,,,,,,,,,,,85.0,1.0,,
280,,iti,,html-keyboard-response,280,967392,0.0-1.0-385.0,0,0,26705,,,,,,,,,,,,,,,,,,,,,,,,,,,,88.0,3.0,,
281,,rl_choice,,html-keyboard-response,281,968153,0.0-1.0-387.0,0,0,26705,,757.0,,,68.0,55.0,55.0,2.0,easy,1500.0,1500.0,1.0,80.0,20.0,80.0,20.0,C,D,/static/Simple_RL/Stimuli/Fractals_stims/C.jpg,/static/Simple_RL/Stimuli/Fractals_stims/D.jpg,1.0,80.0,20.0,80.0,20.0,C,D,88.757,0.757,0.0,
282,,rl_choice_confirmation,,html-keyboard-response,282,968936,0.0-1.0-388.0-0.0,0,0,26705,,,,,,55.0,,,,,,,,,,,,,,,,,,,,,,89.5,0.743,,
283,,isi,,html-keyboard-response,283,970438,0.0-1.0-390.0,0,0,26705,,,,,,,,,,,,,,,,,,,,,,,,,,,,91.0,1.5,,
284,,feedback,,html-keyboard-response,284,971463,0.0-1.0-391.0-0.0,0,0,26705,,,,,,55.0,,,,,,,,,,,,,,,,,,,,,,92.0,1.0,,
285,,iti,,html-keyboard-response,285,972971,0.0-1.0-392.0,0,0,26705,,,,,,,,,,,,,,,,,,,,,,,,,,,,93.5,1.5,,
286,,rl_choice,,html-keyboard-response,286,973654,0.0-1.0-394.0,0,0,26705,,679.0,,,75.0,56.0,56.0,2.0,easy,2000.0,2000.0,0.0,20.0,80.0,40.0,80.0,D,C,/static/Simple_RL/Stimuli/Fractals_stims/D.jpg,/static/Simple_RL/Stimuli/Fractals_stims/C.jpg,0.0,80.0,20.0,80.0,40.0,C,D,94.179,0.679,0.0,
287,,rl_choice_confirmation,,html-keyboard-response,287,974492,0.0-1.0-395.0-0.0,0,0,26705,,,,,,56.0,,,,,,,,,,,,,,,,,,,,,,95.0,0.821,,
288,,isi,,html-keyboard-response,288,976497,0.0-1.0-397.0,0,0,26705,,,,,,,,,,,,,,,,,,,,,,,,,,,,97.0,2.0,,
289,,feedback,,html-keyboard-response,289,977511,0.0-1.0-398.0-0.0,0,0,26705,,,,,,56.0,,,,,,,,,,,,,,,,,,,,,,98.0,1.0,,
290,,iti,,html-keyboard-response,290,979522,0.0-1.0-399.0,0,0,26705,,,,,,,,,,,,,,,,,,,,,,,,,,,,100.0,2.0,,
291,,rl_choice,,html-keyboard-response,291,980145,0.0-1.0-401.0,0,0,26705,,619.0,,,75.0,57.0,57.0,2.0,easy,1000.0,1000.0,0.0,20.0,80.0,20.0,80.0,D,C,/static/Simple_RL/Stimuli/Fractals_stims/D.jpg,/static/Simple_RL/Stimuli/Fractals_stims/C.jpg,0.0,80.0,20.0,80.0,20.0,C,D,100.619,0.619,0.0,
292,,rl_choice_confirmation,,html-keyboard-response,292,981032,0.0-1.0-402.0-0.0,0,0,26705,,,,,,57.0,,,,,,,,,,,,,,,,,,,,,,101.5,0.881,,
293,,isi,,html-keyboard-response,293,982039,0.0-1.0-404.0,0,0,26705,,,,,,,,,,,,,,,,,,,,,,,,,,,,102.5,1.0,,
294,,feedback,,html-keyboard-response,294,983062,0.0-1.0-405.0-0.0,0,0,26705,,,,,,57.0,,,,,,,,,,,,,,,,,,,,,,103.5,1.0,,
295,,iti,,html-keyboard-response,295,984072,0.0-1.0-406.0,0,0,26705,,,,,,,,,,,,,,,,,,,,,,,,,,,,104.5,1.0,,
296,,rl_choice,,html-keyboard-response,296,984667,0.0-1.0-408.0,0,0,26705,,591.0,,,68.0,58.0,58.0,2.0,easy,1000.0,1000.0,0.0,20.0,80.0,20.0,60.0,D,C,/static/Simple_RL/Stimuli/Fractals_stims/D.jpg,/static/Simple_RL/Stimuli/Fractals_stims/C.jpg,1.0,20.0,80.0,20.0,60.0,D,C,105.091,0.591,0.0,
297,,rl_choice_confirmation,,html-keyboard-response,297,985591,0.0-1.0-409.0-0.0,0,0,26705,,,,,,58.0,,,,,,,,,,,,,,,,,,,,,,106.0,0.909,,
298,,isi,,html-keyboard-response,298,986602,0.0-1.0-411.0,0,0,26705,,,,,,,,,,,,,,,,,,,,,,,,,,,,107.0,1.0,,
299,,feedback,,html-keyboard-response,299,987611,0.0-1.0-412.0-0.0,0,0,26705,,,,,,58.0,,,,,,,,,,,,,,,,,,,,,,108.0,1.0,,
300,,iti,,html-keyboard-response,300,988631,0.0-1.0-413.0,0,0,26705,,,,,,,,,,,,,,,,,,,,,,,,,,,,109.0,1.0,,
301,,rl_choice,,html-keyboard-response,301,989719,0.0-1.0-415.0,0,0,26705,,1083.0,,,68.0,59.0,59.0,2.0,hard,1500.0,1000.0,1.0,60.0,40.0,80.0,40.0,A,B,/static/Simple_RL/Stimuli/Fractals_stims/A.jpg,/static/Simple_RL/Stimuli/Fractals_stims/B.jpg,1.0,60.0,40.0,80.0,40.0,A,B,110.083,1.083,0.0,
302,,rl_choice_confirmation,,html-keyboard-response,302,990147,0.0-1.0-416.0-0.0,0,0,26705,,,,,,59.0,,,,,,,,,,,,,,,,,,,,,,110.5,0.417,,
303,,isi,,html-keyboard-response,303,991152,0.0-1.0-418.0,0,0,26705,,,,,,,,,,,,,,,,,,,,,,,,,,,,111.5,1.0,,
304,,feedback,,html-keyboard-response,304,992157,0.0-1.0-419.0-0.0,0,0,26705,,,,,,59.0,,,,,,,,,,,,,,,,,,,,,,112.5,1.0,,
305,,iti,,html-keyboard-response,305,993672,0.0-1.0-420.0,0,0,26705,,,,,,,,,,,,,,,,,,,,,,,,,,,,114.0,1.5,,
306,,rl_choice,,html-keyboard-response,306,994185,0.0-1.0-422.0,0,0,26705,,509.0,,,68.0,60.0,60.0,2.0,hard,1500.0,1000.0,1.0,60.0,40.0,40.0,40.0,A,B,/static/Simple_RL/Stimuli/Fractals_stims/A.jpg,/static/Simple_RL/Stimuli/Fractals_stims/B.jpg,1.0,60.0,40.0,40.0,40.0,A,B,114.509,0.509,0.0,
307,,rl_choice_confirmation,,html-keyboard-response,307,995185,0.0-1.0-423.0-0.0,0,0,26705,,,,,,60.0,,,,,,,,,,,,,,,,,,,,,,115.5,0.991,,
308,,isi,,html-keyboard-response,308,996192,0.0-1.0-425.0,0,0,26705,,,,,,,,,,,,,,,,,,,,,,,,,,,,116.5,1.0,,
309,,feedback,,html-keyboard-response,309,997204,0.0-1.0-426.0-0.0,0,0,26705,,,,,,60.0,,,,,,,,,,,,,,,,,,,,,,117.5,1.0,,
310,,iti,,html-keyboard-response,310,998707,0.0-1.0-427.0,0,0,26705,,,,,,,,,,,,,,,,,,,,,,,,,,,,119.0,1.5,,
311,,rl_choice,,html-keyboard-response,311,999350,0.0-1.0-429.0,0,0,26705,,639.0,,,68.0,61.0,61.0,2.0,hard,1000.0,1000.0,1.0,60.0,40.0,40.0,60.0,A,B,/static/Simple_RL/Stimuli/Fractals_stims/A.jpg,/static/Simple_RL/Stimuli/Fractals_stims/B.jpg,1.0,60.0,40.0,40.0,60.0,A,B,119.639,0.639,0.0,
312,,rl_choice_confirmation,,html-keyboard-response,312,1000222,0.0-1.0-430.0-0.0,0,0,26705,,,,,,61.0,,,,,,,,,,,,,,,,,,,,,,120.5,0.861,,
313,,isi,,html-keyboard-response,313,1001232,0.0-1.0-432.0,0,0,26705,,,,,,,,,,,,,,,,,,,,,,,,,,,,121.5,1.0,,
314,,feedback,,html-keyboard-response,314,1002237,0.0-1.0-433.0-0.0,0,0,26705,,,,,,61.0,,,,,,,,,,,,,,,,,,,,,,122.5,1.0,,
315,,iti,,html-keyboard-response,315,1003241,0.0-1.0-434.0,0,0,26705,,,,,,,,,,,,,,,,,,,,,,,,,,,,123.5,1.0,,
316,,rl_choice,,html-keyboard-response,316,1004016,0.0-1.0-436.0,0,0,26705,,772.0,,,68.0,62.0,62.0,2.0,hard,1000.0,3000.0,1.0,60.0,40.0,60.0,20.0,A,B,/static/Simple_RL/Stimuli/Fractals_stims/A.jpg,/static/Simple_RL/Stimuli/Fractals_stims/B.jpg,1.0,60.0,40.0,60.0,20.0,A,B,124.272,0.772,0.0,
317,,rl_choice_confirmation,,html-keyboard-response,317,1004752,0.0-1.0-437.0-0.0,0,0,26705,,,,,,62.0,,,,,,,,,,,,,,,,,,,,,,125.0,0.728,,
318,,isi,,html-keyboard-response,318,1007767,0.0-1.0-439.0,0,0,26705,,,,,,,,,,,,,,,,,,,,,,,,,,,,128.0,3.0,,
319,,feedback,,html-keyboard-response,319,1008782,0.0-1.0-440.0-0.0,0,0,26705,,,,,,62.0,,,,,,,,,,,,,,,,,,,,,,129.0,1.0,,
320,,iti,,html-keyboard-response,320,1009802,0.0-1.0-441.0,0,0,26705,,,,,,,,,,,,,,,,,,,,,,,,,,,,130.0,1.0,,
321,,rl_choice,,html-keyboard-response,321,1010509,0.0-1.0-443.0,0,0,26705,,703.0,,,75.0,63.0,63.0,2.0,easy,2000.0,1500.0,0.0,20.0,80.0,20.0,60.0,D,C,/static/Simple_RL/Stimuli/Fractals_stims/D.jpg,/static/Simple_RL/Stimuli/Fractals_stims/C.jpg,0.0,80.0,20.0,60.0,20.0,C,D,130.703,0.703,0.0,
322,,rl_choice_confirmation,,html-keyboard-response,322,1011321,0.0-1.0-444.0-0.0,0,0,26705,,,,,,63.0,,,,,,,,,,,,,,,,,,,,,,131.5,0.797,,
323,,isi,,html-keyboard-response,323,1012832,0.0-1.0-446.0,0,0,26705,,,,,,,,,,,,,,,,,,,,,,,,,,,,133.0,1.5,,
324,,feedback,,html-keyboard-response,324,1013843,0.0-1.0-447.0-0.0,0,0,26705,,,,,,63.0,,,,,,,,,,,,,,,,,,,,,,134.0,1.0,,
325,,iti,,html-keyboard-response,325,1015851,0.0-1.0-448.0,0,0,26705,,,,,,,,,,,,,,,,,,,,,,,,,,,,136.0,2.0,,
326,,rl_choice,,html-keyboard-response,326,1016506,0.0-1.0-450.0,0,0,26705,,652.0,,,68.0,64.0,64.0,2.0,easy,2000.0,1000.0,1.0,80.0,20.0,100.0,20.0,C,D,/static/Simple_RL/Stimuli/Fractals_stims/C.jpg,/static/Simple_RL/Stimuli/Fractals_stims/D.jpg,1.0,80.0,20.0,100.0,20.0,C,D,136.652,0.652,0.0,
327,,rl_choice_confirmation,,html-keyboard-response,327,1017371,0.0-1.0-451.0-0.0,0,0,26705,,,,,,64.0,,,,,,,,,,,,,,,,,,,,,,137.5,0.848,,
328,,isi,,html-keyboard-response,328,1018381,0.0-1.0-453.0,0,0,26705,,,,,,,,,,,,,,,,,,,,,,,,,,,,138.5,1.0,,
329,,feedback,,html-keyboard-response,329,1019391,0.0-1.0-454.0-0.0,0,0,26705,,,,,,64.0,,,,,,,,,,,,,,,,,,,,,,139.5,1.0,,
330,,iti,,html-keyboard-response,330,1021397,0.0-1.0-455.0,0,0,26705,,,,,,,,,,,,,,,,,,,,,,,,,,,,141.5,2.0,,
331,,rl_choice,,html-keyboard-response,331,1021919,0.0-1.0-457.0,0,0,26705,,517.0,,,75.0,65.0,65.0,2.0,hard,2000.0,1500.0,1.0,60.0,40.0,60.0,40.0,A,B,/static/Simple_RL/Stimuli/Fractals_stims/A.jpg,/static/Simple_RL/Stimuli/Fractals_stims/B.jpg,0.0,40.0,60.0,40.0,60.0,B,A,142.017,0.517,0.0,
332,,rl_choice_confirmation,,html-keyboard-response,332,1022917,0.0-1.0-458.0-0.0,0,0,26705,,,,,,65.0,,,,,,,,,,,,,,,,,,,,,,143.0,0.983,,
333,,isi,,html-keyboard-response,333,1024430,0.0-1.0-460.0,0,0,26705,,,,,,,,,,,,,,,,,,,,,,,,,,,,144.5,1.5,,
334,,feedback,,html-keyboard-response,334,1025437,0.0-1.0-461.0-0.0,0,0,26705,,,,,,65.0,,,,,,,,,,,,,,,,,,,,,,145.5,1.0,,
335,,iti,,html-keyboard-response,335,1027451,0.0-1.0-462.0,0,0,26705,,,,,,,,,,,,,,,,,,,,,,,,,,,,147.5,2.0,,
336,,rl_choice,,html-keyboard-response,336,1028321,0.0-1.0-464.0,0,0,26705,,866.0,,,68.0,66.0,66.0,2.0,hard,3000.0,1000.0,1.0,60.0,40.0,60.0,20.0,A,B,/static/Simple_RL/Stimuli/Fractals_stims/A.jpg,/static/Simple_RL/Stimuli/Fractals_stims/B.jpg,1.0,60.0,40.0,60.0,20.0,A,B,148.366,0.866,0.0,
337,,rl_choice_confirmation,,html-keyboard-response,337,1028966,0.0-1.0-465.0-0.0,0,0,26705,,,,,,66.0,,,,,,,,,,,,,,,,,,,,,,149.0,0.634,,
338,,isi,,html-keyboard-response,338,1029977,0.0-1.0-467.0,0,0,26705,,,,,,,,,,,,,,,,,,,,,,,,,,,,150.0,1.0,,
339,,feedback,,html-keyboard-response,339,1030981,0.0-1.0-468.0-0.0,0,0,26705,,,,,,66.0,,,,,,,,,,,,,,,,,,,,,,151.0,1.0,,
340,,iti,,html-keyboard-response,340,1033996,0.0-1.0-469.0,0,0,26705,,,,,,,,,,,,,,,,,,,,,,,,,,,,154.0,3.0,,
341,,rl_choice,,html-keyboard-response,341,1034721,0.0-1.0-471.0,0,0,26705,,721.0,,,68.0,67.0,67.0,2.0,easy,3500.0,2000.0,1.0,80.0,20.0,60.0,40.0,C,D,/static/Simple_RL/Stimuli/Fractals_stims/C.jpg,/static/Simple_RL/Stimuli/Fractals_stims/D.jpg,1.0,80.0,20.0,60.0,40.0,C,D,154.721,0.721,0.0,
342,,rl_choice_confirmation,,html-keyboard-response,342,1035512,0.0-1.0-472.0-0.0,0,0,26705,,,,,,67.0,,,,,,,,,,,,,,,,,,,,,,155.5,0.779,,
343,,isi,,html-keyboard-response,343,1037532,0.0-1.0-474.0,0,0,26705,,,,,,,,,,,,,,,,,,,,,,,,,,,,157.5,2.0,,
344,,feedback,,html-keyboard-response,344,1038551,0.0-1.0-475.0-0.0,0,0,26705,,,,,,67.0,,,,,,,,,,,,,,,,,,,,,,158.5,1.0,,
345,,iti,,html-keyboard-response,345,1042071,0.0-1.0-476.0,0,0,26705,,,,,,,,,,,,,,,,,,,,,,,,,,,,162.0,3.5,,
346,,rl_choice,,html-keyboard-response,346,1042684,0.0-1.0-478.0,0,0,26705,,608.0,,,75.0,68.0,68.0,2.0,easy,3000.0,2000.0,0.0,20.0,80.0,40.0,80.0,D,C,/static/Simple_RL/Stimuli/Fractals_stims/D.jpg,/static/Simple_RL/Stimuli/Fractals_stims/C.jpg,0.0,80.0,20.0,80.0,40.0,C,D,162.608,0.608,0.0,
347,,rl_choice_confirmation,,html-keyboard-response,347,1043584,0.0-1.0-479.0-0.0,0,0,26705,,,,,,68.0,,,,,,,,,,,,,,,,,,,,,,163.5,0.892,,
348,,isi,,html-keyboard-response,348,1045597,0.0-1.0-481.0,0,0,26705,,,,,,,,,,,,,,,,,,,,,,,,,,,,165.5,2.0,,
349,,feedback,,html-keyboard-response,349,1046611,0.0-1.0-482.0-0.0,0,0,26705,,,,,,68.0,,,,,,,,,,,,,,,,,,,,,,166.5,1.0,,
350,,iti,,html-keyboard-response,350,1049631,0.0-1.0-483.0,0,0,26705,,,,,,,,,,,,,,,,,,,,,,,,,,,,169.5,3.0,,
351,,rl_choice,,html-keyboard-response,351,1050323,0.0-1.0-485.0,0,0,26705,,689.0,,,68.0,69.0,69.0,2.0,hard,2000.0,1000.0,1.0,60.0,40.0,40.0,60.0,A,B,/static/Simple_RL/Stimuli/Fractals_stims/A.jpg,/static/Simple_RL/Stimuli/Fractals_stims/B.jpg,1.0,60.0,40.0,40.0,60.0,A,B,170.189,0.689,0.0,
352,,rl_choice_confirmation,,html-keyboard-response,352,1051151,0.0-1.0-486.0-0.0,0,0,26705,,,,,,69.0,,,,,,,,,,,,,,,,,,,,,,171.0,0.811,,
353,,isi,,html-keyboard-response,353,1052165,0.0-1.0-488.0,0,0,26705,,,,,,,,,,,,,,,,,,,,,,,,,,,,172.0,1.0,,
354,,feedback,,html-keyboard-response,354,1053177,0.0-1.0-489.0-0.0,0,0,26705,,,,,,69.0,,,,,,,,,,,,,,,,,,,,,,173.0,1.0,,
355,,iti,,html-keyboard-response,355,1055191,0.0-1.0-490.0,0,0,26705,,,,,,,,,,,,,,,,,,,,,,,,,,,,175.0,2.0,,
356,,rl_choice,,html-keyboard-response,356,1055836,0.0-1.0-492.0,0,0,26705,,641.0,,,68.0,70.0,70.0,2.0,hard,1000.0,3500.0,1.0,60.0,40.0,80.0,40.0,A,B,/static/Simple_RL/Stimuli/Fractals_stims/A.jpg,/static/Simple_RL/Stimuli/Fractals_stims/B.jpg,1.0,60.0,40.0,80.0,40.0,A,B,175.641,0.641,0.0,
357,,rl_choice_confirmation,,html-keyboard-response,357,1056701,0.0-1.0-493.0-0.0,0,0,26705,,,,,,70.0,,,,,,,,,,,,,,,,,,,,,,176.5,0.859,,
358,,isi,,html-keyboard-response,358,1060212,0.0-1.0-495.0,0,0,26705,,,,,,,,,,,,,,,,,,,,,,,,,,,,180.0,3.5,,
359,,feedback,,html-keyboard-response,359,1061222,0.0-1.0-496.0-0.0,0,0,26705,,,,,,70.0,,,,,,,,,,,,,,,,,,,,,,181.0,1.0,,
360,,iti,,html-keyboard-response,360,1062231,0.0-1.0-497.0,0,0,26705,,,,,,,,,,,,,,,,,,,,,,,,,,,,182.0,1.0,,
361,,rl_choice,,html-keyboard-response,361,1062842,0.0-1.0-499.0,0,0,26705,,611.0,,,68.0,71.0,71.0,2.0,hard,1000.0,1500.0,1.0,60.0,40.0,40.0,40.0,A,B,/static/Simple_RL/Stimuli/Fractals_stims/A.jpg,/static/Simple_RL/Stimuli/Fractals_stims/B.jpg,1.0,60.0,40.0,40.0,40.0,A,B,182.611,0.611,0.0,
362,,rl_choice_confirmation,,html-keyboard-response,362,1063741,0.0-1.0-500.0-0.0,0,0,26705,,,,,,71.0,,,,,,,,,,,,,,,,,,,,,,183.5,0.889,,
363,,isi,,html-keyboard-response,363,1065246,0.0-1.0-502.0,0,0,26705,,,,,,,,,,,,,,,,,,,,,,,,,,,,185.0,1.5,,
364,,feedback,,html-keyboard-response,364,1066252,0.0-1.0-503.0-0.0,0,0,26705,,,,,,71.0,,,,,,,,,,,,,,,,,,,,,,186.0,1.0,,
365,,iti,,html-keyboard-response,365,1067262,0.0-1.0-504.0,0,0,26705,,,,,,,,,,,,,,,,,,,,,,,,,,,,187.0,1.0,,
366,,rl_choice,,html-keyboard-response,366,1068156,0.0-1.0-506.0,0,0,26705,,890.0,,,68.0,72.0,72.0,2.0,easy,1000.0,1500.0,0.0,20.0,80.0,0.0,80.0,D,C,/static/Simple_RL/Stimuli/Fractals_stims/D.jpg,/static/Simple_RL/Stimuli/Fractals_stims/C.jpg,1.0,20.0,80.0,0.0,80.0,D,C,187.89,0.89,0.0,
367,,rl_choice_confirmation,,html-keyboard-response,367,1068770,0.0-1.0-507.0-0.0,0,0,26705,,,,,,72.0,,,,,,,,,,,,,,,,,,,,,,188.5,0.61,,
368,,isi,,html-keyboard-response,368,1070277,0.0-1.0-509.0,0,0,26705,,,,,,,,,,,,,,,,,,,,,,,,,,,,190.0,1.5,,
369,,feedback,,html-keyboard-response,369,1071292,0.0-1.0-510.0-0.0,0,0,26705,,,,,,72.0,,,,,,,,,,,,,,,,,,,,,,191.0,1.0,,
370,,iti,,html-keyboard-response,370,1072301,0.0-1.0-511.0,0,0,26705,,,,,,,,,,,,,,,,,,,,,,,,,,,,192.0,1.0,,
371,,rl_choice,,html-keyboard-response,371,1073421,0.0-1.0-513.0,0,0,26705,,1115.0,,,68.0,73.0,73.0,2.0,easy,1000.0,3000.0,1.0,80.0,20.0,60.0,0.0,C,D,/static/Simple_RL/Stimuli/Fractals_stims/C.jpg,/static/Simple_RL/Stimuli/Fractals_stims/D.jpg,1.0,80.0,20.0,60.0,0.0,C,D,193.115,1.115,0.0,
372,,rl_choice_confirmation,,html-keyboard-response,372,1073812,0.0-1.0-514.0-0.0,0,0,26705,,,,,,73.0,,,,,,,,,,,,,,,,,,,,,,193.5,0.385,,
373,,isi,,html-keyboard-response,373,1076831,0.0-1.0-516.0,0,0,26705,,,,,,,,,,,,,,,,,,,,,,,,,,,,196.5,3.0,,
374,,feedback,,html-keyboard-response,374,1077839,0.0-1.0-517.0-0.0,0,0,26705,,,,,,73.0,,,,,,,,,,,,,,,,,,,,,,197.5,1.0,,
375,,iti,,html-keyboard-response,375,1078856,0.0-1.0-518.0,0,0,26705,,,,,,,,,,,,,,,,,,,,,,,,,,,,198.5,1.0,,
376,,rl_choice,,html-keyboard-response,376,1079372,0.0-1.0-520.0,0,0,26705,,507.0,,,75.0,74.0,74.0,2.0,hard,3500.0,2000.0,1.0,60.0,40.0,60.0,60.0,A,B,/static/Simple_RL/Stimuli/Fractals_stims/A.jpg,/static/Simple_RL/Stimuli/Fractals_stims/B.jpg,0.0,40.0,60.0,60.0,60.0,B,A,199.007,0.507,0.0,
377,,rl_choice_confirmation,,html-keyboard-response,377,1080392,0.0-1.0-521.0-0.0,0,0,26705,,,,,,74.0,,,,,,,,,,,,,,,,,,,,,,200.0,0.993,,
378,,isi,,html-keyboard-response,378,1082401,0.0-1.0-523.0,0,0,26705,,,,,,,,,,,,,,,,,,,,,,,,,,,,202.0,2.0,,
379,,feedback,,html-keyboard-response,379,1083411,0.0-1.0-524.0-0.0,0,0,26705,,,,,,74.0,,,,,,,,,,,,,,,,,,,,,,203.0,1.0,,
380,,iti,,html-keyboard-response,380,1086921,0.0-1.0-525.0,0,0,26705,,,,,,,,,,,,,,,,,,,,,,,,,,,,206.5,3.5,,
381,,rl_choice,,html-keyboard-response,381,1087686,0.0-1.0-527.0,0,0,26705,,761.0,,,68.0,75.0,75.0,2.0,hard,1500.0,3000.0,0.0,40.0,60.0,60.0,80.0,B,A,/static/Simple_RL/Stimuli/Fractals_stims/B.jpg,/static/Simple_RL/Stimuli/Fractals_stims/A.jpg,1.0,40.0,60.0,60.0,80.0,B,A,207.261,0.761,0.0,
382,,rl_choice_confirmation,,html-keyboard-response,382,1088431,0.0-1.0-528.0-0.0,0,0,26705,,,,,,75.0,,,,,,,,,,,,,,,,,,,,,,208.0,0.739,,
383,,isi,,html-keyboard-response,383,1091437,0.0-1.0-530.0,0,0,26705,,,,,,,,,,,,,,,,,,,,,,,,,,,,211.0,3.0,,
384,,feedback,,html-keyboard-response,384,1092452,0.0-1.0-531.0-0.0,0,0,26705,,,,,,75.0,,,,,,,,,,,,,,,,,,,,,,212.0,1.0,,
385,,iti,,html-keyboard-response,385,1093957,0.0-1.0-532.0,0,0,26705,,,,,,,,,,,,,,,,,,,,,,,,,,,,213.5,1.5,,
386,,rl_choice,,html-keyboard-response,386,1094626,0.0-1.0-534.0,0,0,26705,,665.0,,,75.0,76.0,76.0,2.0,easy,1000.0,1000.0,0.0,20.0,80.0,20.0,80.0,D,C,/static/Simple_RL/Stimuli/Fractals_stims/D.jpg,/static/Simple_RL/Stimuli/Fractals_stims/C.jpg,0.0,80.0,20.0,80.0,20.0,C,D,214.165,0.665,0.0,
387,,rl_choice_confirmation,,html-keyboard-response,387,1095475,0.0-1.0-535.0-0.0,0,0,26705,,,,,,76.0,,,,,,,,,,,,,,,,,,,,,,215.0,0.835,,
388,,isi,,html-keyboard-response,388,1096481,0.0-1.0-537.0,0,0,26705,,,,,,,,,,,,,,,,,,,,,,,,,,,,216.0,1.0,,
389,,feedback,,html-keyboard-response,389,1097491,0.0-1.0-538.0-0.0,0,0,26705,,,,,,76.0,,,,,,,,,,,,,,,,,,,,,,217.0,1.0,,
390,,iti,,html-keyboard-response,390,1098501,0.0-1.0-539.0,0,0,26705,,,,,,,,,,,,,,,,,,,,,,,,,,,,218.0,1.0,,
391,,rl_choice,,html-keyboard-response,391,1099048,0.0-1.0-541.0,0,0,26705,,542.0,,,68.0,77.0,77.0,2.0,hard,1000.0,1000.0,0.0,40.0,60.0,60.0,40.0,B,A,/static/Simple_RL/Stimuli/Fractals_stims/B.jpg,/static/Simple_RL/Stimuli/Fractals_stims/A.jpg,1.0,40.0,60.0,60.0,40.0,B,A,218.542,0.542,0.0,
392,,rl_choice_confirmation,,html-keyboard-response,392,1100021,0.0-1.0-542.0-0.0,0,0,26705,,,,,,77.0,,,,,,,,,,,,,,,,,,,,,,219.5,0.958,,
393,,isi,,html-keyboard-response,393,1101025,0.0-1.0-544.0,0,0,26705,,,,,,,,,,,,,,,,,,,,,,,,,,,,220.5,1.0,,
394,,feedback,,html-keyboard-response,394,1102041,0.0-1.0-545.0-0.0,0,0,26705,,,,,,77.0,,,,,,,,,,,,,,,,,,,,,,221.5,1.0,,
395,,iti,,html-keyboard-response,395,1103049,0.0-1.0-546.0,0,0,26705,,,,,,,,,,,,,,,,,,,,,,,,,,,,222.5,1.0,,
396,,rl_choice,,html-keyboard-response,396,1103638,0.0-1.0-548.0,0,0,26705,,584.0,,,68.0,78.0,78.0,2.0,easy,1000.0,1500.0,1.0,80.0,20.0,80.0,0.0,C,D,/static/Simple_RL/Stimuli/Fractals_stims/C.jpg,/static/Simple_RL/Stimuli/Fractals_stims/D.jpg,1.0,80.0,20.0,80.0,0.0,C,D,223.084,0.584,0.0,
397,,rl_choice_confirmation,,html-keyboard-response,397,1104561,0.0-1.0-549.0-0.0,0,0,26705,,,,,,78.0,,,,,,,,,,,,,,,,,,,,,,224.0,0.916,,
398,,isi,,html-keyboard-response,398,1106076,0.0-1.0-551.0,0,0,26705,,,,,,,,,,,,,,,,,,,,,,,,,,,,225.5,1.5,,
399,,feedback,,html-keyboard-response,399,1107095,0.0-1.0-552.0-0.0,0,0,26705,,,,,,78.0,,,,,,,,,,,,,,,,,,,,,,226.5,1.0,,
400,,iti,,html-keyboard-response,400,1108108,0.0-1.0-553.0,0,0,26705,,,,,,,,,,,,,,,,,,,,,,,,,,,,227.5,1.0,,
401,,rl_choice,,html-keyboard-response,401,1108802,0.0-1.0-555.0,0,0,26705,,689.0,,,75.0,79.0,79.0,2.0,easy,1000.0,1000.0,0.0,20.0,80.0,0.0,100.0,D,C,/static/Simple_RL/Stimuli/Fractals_stims/D.jpg,/static/Simple_RL/Stimuli/Fractals_stims/C.jpg,0.0,80.0,20.0,100.0,0.0,C,D,228.189,0.689,0.0,
402,,rl_choice_confirmation,,html-keyboard-response,402,1109631,0.0-1.0-556.0-0.0,0,0,26705,,,,,,79.0,,,,,,,,,,,,,,,,,,,,,,229.0,0.811,,
403,,isi,,html-keyboard-response,403,1110642,0.0-1.0-558.0,0,0,26705,,,,,,,,,,,,,,,,,,,,,,,,,,,,230.0,1.0,,
404,,feedback,,html-keyboard-response,404,1111651,0.0-1.0-559.0-0.0,0,0,26705,,,,,,79.0,,,,,,,,,,,,,,,,,,,,,,231.0,1.0,,
405,,iti,,html-keyboard-response,405,1112662,0.0-1.0-560.0,0,0,26705,,,,,,,,,,,,,,,,,,,,,,,,,,,,232.0,1.0,,1.0
406,,final_tally,,html-keyboard-response,406,1114720,0.0-2.0,0,0,26705,,2048.0,,,68.0,,,,,,,,,,,,,,,,,,,,,,,,,,
