,success,ttype,start_time,trial_type,trial_index,time_elapsed,internal_node_id,warning,missed_checkup,PID,view_history,rt,responses,repeat_instructions,key_press,index,trial_num,block,condition,iti,isi,high_group_on_left,left_group_value,right_group_value,left_item_value,right_item_value,left_img,right_img,left_img_path,right_img_path,left_chosen,chosen_group_value,unchosen_group_value,chosen_item_value,unchosen_item_value,chosen_img,unchosen_img,onset,duration,no_response,total_bonus_tally
0,True,full_screen,d06072022hr1207,fullscreen,0,3328,0.0-0.0,0,0,87963,,,,,,,,,,,,,,,,,,,,,,,,,,,,,,,
1,,size_instructions,,instructions,1,22434,0.0-1.0-0.0-0.0,0,0,87963,"[{""page_index"":0,""viewing_time"":5327},{""page_index"":1,""viewing_time"":4158},{""page_index"":2,""viewing_time"":1176},{""page_index"":3,""viewing_time"":3330},{""page_index"":4,""viewing_time"":1953},{""page_index"":5,""viewing_time"":3160}]",19104.0,,,,,,,,,,,,,,,,,,,,,,,,,,,,,
2,,rl_comprehension_check,,survey-multi-choice,2,30362,0.0-1.0-0.0-1.0,0,0,87963,,7923.0,"{""Q0"":""True"",""Q1"":""True"",""Q2"":""D for left and K for right""}",0.0,,,,,,,,,,,,,,,,,,,,,,,,,,,
3,,,,html-keyboard-response,3,31351,0.0-1.0-1.0,0,0,87963,,986.0,,,68.0,,,,,,,,,,,,,,,,,,,,,,,,,,
4,,rl_choice,,html-keyboard-response,4,32719,0.0-1.0-2.0,0,0,87963,,1361.0,,,68.0,0.0,0.0,1.0,hard,2000.0,1000.0,0.0,40.0,60.0,60.0,40.0,D,C,/static/Simple_RL/Stimuli/Fractals_stims/D.jpg,/static/Simple_RL/Stimuli/Fractals_stims/C.jpg,1.0,40.0,60.0,60.0,40.0,D,C,1.361,1.361,0.0,
5,,rl_choice_confirmation,,html-keyboard-response,5,32863,0.0-1.0-3.0-0.0,0,0,87963,,,,,,0.0,,1.0,,,,,,,,,,,,,,,,,,,,1.5,0.139,,
6,,isi,,html-keyboard-response,6,33865,0.0-1.0-5.0,0,0,87963,,,,,,0.0,,1.0,,,,,,,,,,,,,,,,,,,,2.5,1.0,,
7,,feedback,,html-keyboard-response,7,34867,0.0-1.0-6.0-0.0,0,0,87963,,,,,,0.0,,1.0,,,,,,,,,,,,,,,,,,,,3.5,1.0,,
8,,iti,,html-keyboard-response,8,36873,0.0-1.0-7.0,0,0,87963,,,,,,0.0,,1.0,,,,,,,,,,,,,,,,,,,,5.5,2.0,,
9,,rl_choice,,html-keyboard-response,9,37262,0.0-1.0-9.0,0,0,87963,,385.0,,,75.0,1.0,1.0,1.0,hard,1000.0,1000.0,0.0,40.0,60.0,20.0,40.0,D,C,/static/Simple_RL/Stimuli/Fractals_stims/D.jpg,/static/Simple_RL/Stimuli/Fractals_stims/C.jpg,0.0,60.0,40.0,40.0,20.0,C,D,5.885,0.385,0.0,
10,,rl_choice_confirmation,,html-keyboard-response,10,38380,0.0-1.0-10.0-0.0,0,0,87963,,,,,,1.0,,1.0,,,,,,,,,,,,,,,,,,,,7.0,1.115,,
11,,isi,,html-keyboard-response,11,39382,0.0-1.0-12.0,0,0,87963,,,,,,1.0,,1.0,,,,,,,,,,,,,,,,,,,,8.0,1.0,,
12,,feedback,,html-keyboard-response,12,40390,0.0-1.0-13.0-0.0,0,0,87963,,,,,,1.0,,1.0,,,,,,,,,,,,,,,,,,,,9.0,1.0,,
13,,iti,,html-keyboard-response,13,41392,0.0-1.0-14.0,0,0,87963,,,,,,1.0,,1.0,,,,,,,,,,,,,,,,,,,,10.0,1.0,,
14,,rl_choice,,html-keyboard-response,14,41830,0.0-1.0-16.0,0,0,87963,,435.0,,,75.0,2.0,2.0,1.0,easy,1000.0,1000.0,0.0,20.0,80.0,40.0,60.0,B,A,/static/Simple_RL/Stimuli/Fractals_stims/B.jpg,/static/Simple_RL/Stimuli/Fractals_stims/A.jpg,0.0,80.0,20.0,60.0,40.0,A,B,10.435,0.435,0.0,
15,,rl_choice_confirmation,,html-keyboard-response,15,42898,0.0-1.0-17.0-0.0,0,0,87963,,,,,,2.0,,1.0,,,,,,,,,,,,,,,,,,,,11.5,1.065,,
16,,isi,,html-keyboard-response,16,43902,0.0-1.0-19.0,0,0,87963,,,,,,2.0,,1.0,,,,,,,,,,,,,,,,,,,,12.5,1.0,,
17,,feedback,,html-keyboard-response,17,44907,0.0-1.0-20.0-0.0,0,0,87963,,,,,,2.0,,1.0,,,,,,,,,,,,,,,,,,,,13.5,1.0,,
18,,iti,,html-keyboard-response,18,45909,0.0-1.0-21.0,0,0,87963,,,,,,2.0,,1.0,,,,,,,,,,,,,,,,,,,,14.5,1.0,,
19,,rl_choice,,html-keyboard-response,19,46274,0.0-1.0-23.0,0,0,87963,,363.0,,,68.0,3.0,3.0,1.0,easy,3000.0,3000.0,1.0,80.0,20.0,100.0,40.0,A,B,/static/Simple_RL/Stimuli/Fractals_stims/A.jpg,/static/Simple_RL/Stimuli/Fractals_stims/B.jpg,1.0,80.0,20.0,100.0,40.0,A,B,14.863,0.363,0.0,
20,,rl_choice_confirmation,,html-keyboard-response,20,47415,0.0-1.0-24.0-0.0,0,0,87963,,,,,,3.0,,1.0,,,,,,,,,,,,,,,,,,,,16.0,1.137,,
21,,isi,,html-keyboard-response,21,50421,0.0-1.0-26.0,0,0,87963,,,,,,3.0,,1.0,,,,,,,,,,,,,,,,,,,,19.0,3.0,,
22,,feedback,,html-keyboard-response,22,51424,0.0-1.0-27.0-0.0,0,0,87963,,,,,,3.0,,1.0,,,,,,,,,,,,,,,,,,,,20.0,1.0,,
23,,iti,,html-keyboard-response,23,54426,0.0-1.0-28.0,0,0,87963,,,,,,3.0,,1.0,,,,,,,,,,,,,,,,,,,,23.0,3.0,,
24,,rl_choice,,html-keyboard-response,24,54917,0.0-1.0-30.0,0,0,87963,,487.0,,,75.0,4.0,4.0,1.0,hard,1000.0,1000.0,0.0,40.0,60.0,40.0,80.0,D,C,/static/Simple_RL/Stimuli/Fractals_stims/D.jpg,/static/Simple_RL/Stimuli/Fractals_stims/C.jpg,0.0,60.0,40.0,80.0,40.0,C,D,23.487,0.487,0.0,
25,,rl_choice_confirmation,,html-keyboard-response,25,55936,0.0-1.0-31.0-0.0,0,0,87963,,,,,,4.0,,1.0,,,,,,,,,,,,,,,,,,,,24.5,1.013,,
26,,isi,,html-keyboard-response,26,56938,0.0-1.0-33.0,0,0,87963,,,,,,4.0,,1.0,,,,,,,,,,,,,,,,,,,,25.5,1.0,,
27,,feedback,,html-keyboard-response,27,57943,0.0-1.0-34.0-0.0,0,0,87963,,,,,,4.0,,1.0,,,,,,,,,,,,,,,,,,,,26.5,1.0,,
28,,iti,,html-keyboard-response,28,58944,0.0-1.0-35.0,0,0,87963,,,,,,4.0,,1.0,,,,,,,,,,,,,,,,,,,,27.5,1.0,,
29,,rl_choice,,html-keyboard-response,29,59421,0.0-1.0-37.0,0,0,87963,,473.0,,,75.0,5.0,5.0,1.0,hard,3000.0,1000.0,1.0,60.0,40.0,60.0,60.0,C,D,/static/Simple_RL/Stimuli/Fractals_stims/C.jpg,/static/Simple_RL/Stimuli/Fractals_stims/D.jpg,0.0,40.0,60.0,60.0,60.0,D,C,27.973,0.473,0.0,
30,,rl_choice_confirmation,,html-keyboard-response,30,60512,0.0-1.0-38.0-0.0,0,0,87963,,,,,,5.0,,1.0,,,,,,,,,,,,,,,,,,,,29.0,1.027,,
31,,isi,,html-keyboard-response,31,61519,0.0-1.0-40.0,0,0,87963,,,,,,5.0,,1.0,,,,,,,,,,,,,,,,,,,,30.0,1.0,,
32,,feedback,,html-keyboard-response,32,62525,0.0-1.0-41.0-0.0,0,0,87963,,,,,,5.0,,1.0,,,,,,,,,,,,,,,,,,,,31.0,1.0,,
33,,iti,,html-keyboard-response,33,65527,0.0-1.0-42.0,0,0,87963,,,,,,5.0,,1.0,,,,,,,,,,,,,,,,,,,,34.0,3.0,,
34,,rl_choice,,html-keyboard-response,34,65927,0.0-1.0-44.0,0,0,87963,,397.0,,,75.0,6.0,6.0,1.0,easy,1000.0,2000.0,0.0,20.0,80.0,40.0,100.0,B,A,/static/Simple_RL/Stimuli/Fractals_stims/B.jpg,/static/Simple_RL/Stimuli/Fractals_stims/A.jpg,0.0,80.0,20.0,100.0,40.0,A,B,34.397,0.397,0.0,
35,,rl_choice_confirmation,,html-keyboard-response,35,67032,0.0-1.0-45.0-0.0,0,0,87963,,,,,,6.0,,1.0,,,,,,,,,,,,,,,,,,,,35.5,1.103,,
36,,isi,,html-keyboard-response,36,69038,0.0-1.0-47.0,0,0,87963,,,,,,6.0,,1.0,,,,,,,,,,,,,,,,,,,,37.5,2.0,,
37,,feedback,,html-keyboard-response,37,70047,0.0-1.0-48.0-0.0,0,0,87963,,,,,,6.0,,1.0,,,,,,,,,,,,,,,,,,,,38.5,1.0,,
38,,iti,,html-keyboard-response,38,71055,0.0-1.0-49.0,0,0,87963,,,,,,6.0,,1.0,,,,,,,,,,,,,,,,,,,,39.5,1.0,,
39,,rl_choice,,html-keyboard-response,39,71508,0.0-1.0-51.0,0,0,87963,,448.0,,,75.0,7.0,7.0,1.0,hard,3000.0,1500.0,0.0,40.0,60.0,20.0,80.0,D,C,/static/Simple_RL/Stimuli/Fractals_stims/D.jpg,/static/Simple_RL/Stimuli/Fractals_stims/C.jpg,0.0,60.0,40.0,80.0,20.0,C,D,39.948,0.448,0.0,
40,,rl_choice_confirmation,,html-keyboard-response,40,72564,0.0-1.0-52.0-0.0,0,0,87963,,,,,,7.0,,1.0,,,,,,,,,,,,,,,,,,,,41.0,1.052,,
41,,isi,,html-keyboard-response,41,74073,0.0-1.0-54.0,0,0,87963,,,,,,7.0,,1.0,,,,,,,,,,,,,,,,,,,,42.5,1.5,,
42,,feedback,,html-keyboard-response,42,75075,0.0-1.0-55.0-0.0,0,0,87963,,,,,,7.0,,1.0,,,,,,,,,,,,,,,,,,,,43.5,1.0,,
43,,iti,,html-keyboard-response,43,78077,0.0-1.0-56.0,0,0,87963,,,,,,7.0,,1.0,,,,,,,,,,,,,,,,,,,,46.5,3.0,,
44,,rl_choice,,html-keyboard-response,44,78541,0.0-1.0-58.0,0,0,87963,,461.0,,,75.0,8.0,8.0,1.0,easy,1000.0,1000.0,0.0,20.0,80.0,0.0,100.0,B,A,/static/Simple_RL/Stimuli/Fractals_stims/B.jpg,/static/Simple_RL/Stimuli/Fractals_stims/A.jpg,0.0,80.0,20.0,100.0,0.0,A,B,46.961,0.461,0.0,
45,,rl_choice_confirmation,,html-keyboard-response,45,79588,0.0-1.0-59.0-0.0,0,0,87963,,,,,,8.0,,1.0,,,,,,,,,,,,,,,,,,,,48.0,1.039,,
46,,isi,,html-keyboard-response,46,80590,0.0-1.0-61.0,0,0,87963,,,,,,8.0,,1.0,,,,,,,,,,,,,,,,,,,,49.0,1.0,,
47,,feedback,,html-keyboard-response,47,81592,0.0-1.0-62.0-0.0,0,0,87963,,,,,,8.0,,1.0,,,,,,,,,,,,,,,,,,,,50.0,1.0,,
48,,iti,,html-keyboard-response,48,82594,0.0-1.0-63.0,0,0,87963,,,,,,8.0,,1.0,,,,,,,,,,,,,,,,,,,,51.0,1.0,,
49,,rl_choice,,html-keyboard-response,49,83175,0.0-1.0-65.0,0,0,87963,,576.0,,,75.0,9.0,9.0,1.0,hard,1500.0,2000.0,1.0,60.0,40.0,60.0,40.0,C,D,/static/Simple_RL/Stimuli/Fractals_stims/C.jpg,/static/Simple_RL/Stimuli/Fractals_stims/D.jpg,0.0,40.0,60.0,40.0,60.0,D,C,51.576,0.576,0.0,
50,,rl_choice_confirmation,,html-keyboard-response,50,84106,0.0-1.0-66.0-0.0,0,0,87963,,,,,,9.0,,1.0,,,,,,,,,,,,,,,,,,,,52.5,0.924,,
51,,isi,,html-keyboard-response,51,86108,0.0-1.0-68.0,0,0,87963,,,,,,9.0,,1.0,,,,,,,,,,,,,,,,,,,,54.5,2.0,,
52,,feedback,,html-keyboard-response,52,87110,0.0-1.0-69.0-0.0,0,0,87963,,,,,,9.0,,1.0,,,,,,,,,,,,,,,,,,,,55.5,1.0,,
53,,iti,,html-keyboard-response,53,88612,0.0-1.0-70.0,0,0,87963,,,,,,9.0,,1.0,,,,,,,,,,,,,,,,,,,,57.0,1.5,,
54,,rl_choice,,html-keyboard-response,54,89214,0.0-1.0-72.0,0,0,87963,,600.0,,,68.0,10.0,10.0,1.0,easy,1000.0,1000.0,1.0,80.0,20.0,60.0,0.0,A,B,/static/Simple_RL/Stimuli/Fractals_stims/A.jpg,/static/Simple_RL/Stimuli/Fractals_stims/B.jpg,1.0,80.0,20.0,60.0,0.0,A,B,57.6,0.6,0.0,
55,,rl_choice_confirmation,,html-keyboard-response,55,90116,0.0-1.0-73.0-0.0,0,0,87963,,,,,,10.0,,1.0,,,,,,,,,,,,,,,,,,,,58.5,0.9,,
56,,isi,,html-keyboard-response,56,91124,0.0-1.0-75.0,0,0,87963,,,,,,10.0,,1.0,,,,,,,,,,,,,,,,,,,,59.5,1.0,,
57,,feedback,,html-keyboard-response,57,92128,0.0-1.0-76.0-0.0,0,0,87963,,,,,,10.0,,1.0,,,,,,,,,,,,,,,,,,,,60.5,1.0,,
58,,iti,,html-keyboard-response,58,93130,0.0-1.0-77.0,0,0,87963,,,,,,10.0,,1.0,,,,,,,,,,,,,,,,,,,,61.5,1.0,,
59,,rl_choice,,html-keyboard-response,59,93551,0.0-1.0-79.0,0,0,87963,,407.0,,,75.0,11.0,11.0,1.0,hard,3500.0,1000.0,0.0,40.0,60.0,20.0,60.0,D,C,/static/Simple_RL/Stimuli/Fractals_stims/D.jpg,/static/Simple_RL/Stimuli/Fractals_stims/C.jpg,0.0,60.0,40.0,60.0,20.0,C,D,61.907,0.407,0.0,
60,,rl_choice_confirmation,,html-keyboard-response,60,94649,0.0-1.0-80.0-0.0,0,0,87963,,,,,,11.0,,1.0,,,,,,,,,,,,,,,,,,,,63.0,1.093,,
61,,isi,,html-keyboard-response,61,95651,0.0-1.0-82.0,0,0,87963,,,,,,11.0,,1.0,,,,,,,,,,,,,,,,,,,,64.0,1.0,,
62,,feedback,,html-keyboard-response,62,96655,0.0-1.0-83.0-0.0,0,0,87963,,,,,,11.0,,1.0,,,,,,,,,,,,,,,,,,,,65.0,1.0,,
63,,iti,,html-keyboard-response,63,100157,0.0-1.0-84.0,0,0,87963,,,,,,11.0,,1.0,,,,,,,,,,,,,,,,,,,,68.5,3.5,,
64,,rl_choice,,html-keyboard-response,64,100688,0.0-1.0-86.0,0,0,87963,,526.0,,,75.0,12.0,12.0,1.0,hard,1000.0,1000.0,1.0,60.0,40.0,80.0,20.0,C,D,/static/Simple_RL/Stimuli/Fractals_stims/C.jpg,/static/Simple_RL/Stimuli/Fractals_stims/D.jpg,0.0,40.0,60.0,20.0,80.0,D,C,69.026,0.526,0.0,
65,,rl_choice_confirmation,,html-keyboard-response,65,101668,0.0-1.0-87.0-0.0,0,0,87963,,,,,,12.0,,1.0,,,,,,,,,,,,,,,,,,,,70.0,0.974,,
66,,isi,,html-keyboard-response,66,102670,0.0-1.0-89.0,0,0,87963,,,,,,12.0,,1.0,,,,,,,,,,,,,,,,,,,,71.0,1.0,,
67,,feedback,,html-keyboard-response,67,103673,0.0-1.0-90.0-0.0,0,0,87963,,,,,,12.0,,1.0,,,,,,,,,,,,,,,,,,,,72.0,1.0,,
68,,iti,,html-keyboard-response,68,104675,0.0-1.0-91.0,0,0,87963,,,,,,12.0,,1.0,,,,,,,,,,,,,,,,,,,,73.0,1.0,,
69,,rl_choice,,html-keyboard-response,69,104997,0.0-1.0-93.0,0,0,87963,,318.0,,,68.0,13.0,13.0,1.0,hard,2000.0,2000.0,1.0,60.0,40.0,40.0,40.0,C,D,/static/Simple_RL/Stimuli/Fractals_stims/C.jpg,/static/Simple_RL/Stimuli/Fractals_stims/D.jpg,1.0,60.0,40.0,40.0,40.0,C,D,73.318,0.318,0.0,
70,,rl_choice_confirmation,,html-keyboard-response,70,106190,0.0-1.0-94.0-0.0,0,0,87963,,,,,,13.0,,1.0,,,,,,,,,,,,,,,,,,,,74.5,1.182,,
71,,isi,,html-keyboard-response,71,108192,0.0-1.0-96.0,0,0,87963,,,,,,13.0,,1.0,,,,,,,,,,,,,,,,,,,,76.5,2.0,,
72,,feedback,,html-keyboard-response,72,109194,0.0-1.0-97.0-0.0,0,0,87963,,,,,,13.0,,1.0,,,,,,,,,,,,,,,,,,,,77.5,1.0,,
73,,iti,,html-keyboard-response,73,111196,0.0-1.0-98.0,0,0,87963,,,,,,13.0,,1.0,,,,,,,,,,,,,,,,,,,,79.5,2.0,,
74,,rl_choice,,html-keyboard-response,74,111565,0.0-1.0-100.0,0,0,87963,,366.0,,,75.0,14.0,14.0,1.0,easy,1000.0,3500.0,1.0,80.0,20.0,80.0,20.0,A,B,/static/Simple_RL/Stimuli/Fractals_stims/A.jpg,/static/Simple_RL/Stimuli/Fractals_stims/B.jpg,0.0,20.0,80.0,20.0,80.0,B,A,79.866,0.366,0.0,
75,,rl_choice_confirmation,,html-keyboard-response,75,112703,0.0-1.0-101.0-0.0,0,0,87963,,,,,,14.0,,1.0,,,,,,,,,,,,,,,,,,,,81.0,1.134,,
76,,isi,,html-keyboard-response,76,116205,0.0-1.0-103.0,0,0,87963,,,,,,14.0,,1.0,,,,,,,,,,,,,,,,,,,,84.5,3.5,,
77,,feedback,,html-keyboard-response,77,117207,0.0-1.0-104.0-0.0,0,0,87963,,,,,,14.0,,1.0,,,,,,,,,,,,,,,,,,,,85.5,1.0,,
78,,iti,,html-keyboard-response,78,118209,0.0-1.0-105.0,0,0,87963,,,,,,14.0,,1.0,,,,,,,,,,,,,,,,,,,,86.5,1.0,,
79,,rl_choice,,html-keyboard-response,79,118521,0.0-1.0-107.0,0,0,87963,,305.0,,,75.0,15.0,15.0,1.0,easy,2000.0,2000.0,0.0,20.0,80.0,20.0,60.0,B,A,/static/Simple_RL/Stimuli/Fractals_stims/B.jpg,/static/Simple_RL/Stimuli/Fractals_stims/A.jpg,0.0,80.0,20.0,60.0,20.0,A,B,86.805,0.305,0.0,
80,,rl_choice_confirmation,,html-keyboard-response,80,119721,0.0-1.0-108.0-0.0,0,0,87963,,,,,,15.0,,1.0,,,,,,,,,,,,,,,,,,,,88.0,1.195,,
81,,isi,,html-keyboard-response,81,121723,0.0-1.0-110.0,0,0,87963,,,,,,15.0,,1.0,,,,,,,,,,,,,,,,,,,,90.0,2.0,,
82,,feedback,,html-keyboard-response,82,122725,0.0-1.0-111.0-0.0,0,0,87963,,,,,,15.0,,1.0,,,,,,,,,,,,,,,,,,,,91.0,1.0,,
83,,iti,,html-keyboard-response,83,124727,0.0-1.0-112.0,0,0,87963,,,,,,15.0,,1.0,,,,,,,,,,,,,,,,,,,,93.0,2.0,,
84,,rl_choice,,html-keyboard-response,84,125119,0.0-1.0-114.0,0,0,87963,,388.0,,,68.0,16.0,16.0,1.0,hard,1000.0,1500.0,0.0,40.0,60.0,20.0,80.0,D,C,/static/Simple_RL/Stimuli/Fractals_stims/D.jpg,/static/Simple_RL/Stimuli/Fractals_stims/C.jpg,1.0,40.0,60.0,20.0,80.0,D,C,93.388,0.388,0.0,
85,,rl_choice_confirmation,,html-keyboard-response,85,126236,0.0-1.0-115.0-0.0,0,0,87963,,,,,,16.0,,1.0,,,,,,,,,,,,,,,,,,,,94.5,1.112,,
86,,isi,,html-keyboard-response,86,127738,0.0-1.0-117.0,0,0,87963,,,,,,16.0,,1.0,,,,,,,,,,,,,,,,,,,,96.0,1.5,,
87,,feedback,,html-keyboard-response,87,128740,0.0-1.0-118.0-0.0,0,0,87963,,,,,,16.0,,1.0,,,,,,,,,,,,,,,,,,,,97.0,1.0,,
88,,iti,,html-keyboard-response,88,129742,0.0-1.0-119.0,0,0,87963,,,,,,16.0,,1.0,,,,,,,,,,,,,,,,,,,,98.0,1.0,,
89,,rl_choice,,html-keyboard-response,89,130227,0.0-1.0-121.0,0,0,87963,,482.0,,,75.0,17.0,17.0,1.0,hard,1000.0,1500.0,1.0,60.0,40.0,60.0,20.0,C,D,/static/Simple_RL/Stimuli/Fractals_stims/C.jpg,/static/Simple_RL/Stimuli/Fractals_stims/D.jpg,0.0,40.0,60.0,20.0,60.0,D,C,98.482,0.482,0.0,
90,,rl_choice_confirmation,,html-keyboard-response,90,131252,0.0-1.0-122.0-0.0,0,0,87963,,,,,,17.0,,1.0,,,,,,,,,,,,,,,,,,,,99.5,1.018,,
91,,isi,,html-keyboard-response,91,132754,0.0-1.0-124.0,0,0,87963,,,,,,17.0,,1.0,,,,,,,,,,,,,,,,,,,,101.0,1.5,,
92,,feedback,,html-keyboard-response,92,133757,0.0-1.0-125.0-0.0,0,0,87963,,,,,,17.0,,1.0,,,,,,,,,,,,,,,,,,,,102.0,1.0,,
93,,iti,,html-keyboard-response,93,134759,0.0-1.0-126.0,0,0,87963,,,,,,17.0,,1.0,,,,,,,,,,,,,,,,,,,,103.0,1.0,,
94,,rl_choice,,html-keyboard-response,94,135147,0.0-1.0-128.0,0,0,87963,,386.0,,,75.0,18.0,18.0,1.0,easy,1500.0,1500.0,0.0,20.0,80.0,40.0,80.0,B,A,/static/Simple_RL/Stimuli/Fractals_stims/B.jpg,/static/Simple_RL/Stimuli/Fractals_stims/A.jpg,0.0,80.0,20.0,80.0,40.0,A,B,103.386,0.386,0.0,
95,,rl_choice_confirmation,,html-keyboard-response,95,136268,0.0-1.0-129.0-0.0,0,0,87963,,,,,,18.0,,1.0,,,,,,,,,,,,,,,,,,,,104.5,1.114,,
96,,isi,,html-keyboard-response,96,137771,0.0-1.0-131.0,0,0,87963,,,,,,18.0,,1.0,,,,,,,,,,,,,,,,,,,,106.0,1.5,,
97,,feedback,,html-keyboard-response,97,138773,0.0-1.0-132.0-0.0,0,0,87963,,,,,,18.0,,1.0,,,,,,,,,,,,,,,,,,,,107.0,1.0,,
98,,iti,,html-keyboard-response,98,140279,0.0-1.0-133.0,0,0,87963,,,,,,18.0,,1.0,,,,,,,,,,,,,,,,,,,,108.5,1.5,,
99,,rl_choice,,html-keyboard-response,99,140610,0.0-1.0-135.0,0,0,87963,,326.0,,,75.0,19.0,19.0,1.0,hard,2000.0,3000.0,1.0,60.0,40.0,60.0,40.0,C,D,/static/Simple_RL/Stimuli/Fractals_stims/C.jpg,/static/Simple_RL/Stimuli/Fractals_stims/D.jpg,0.0,40.0,60.0,40.0,60.0,D,C,108.826,0.326,0.0,
100,,rl_choice_confirmation,,html-keyboard-response,100,141789,0.0-1.0-136.0-0.0,0,0,87963,,,,,,19.0,,1.0,,,,,,,,,,,,,,,,,,,,110.0,1.174,,
101,,isi,,html-keyboard-response,101,144791,0.0-1.0-138.0,0,0,87963,,,,,,19.0,,1.0,,,,,,,,,,,,,,,,,,,,113.0,3.0,,
102,,feedback,,html-keyboard-response,102,145794,0.0-1.0-139.0-0.0,0,0,87963,,,,,,19.0,,1.0,,,,,,,,,,,,,,,,,,,,114.0,1.0,,
103,,iti,,html-keyboard-response,103,147796,0.0-1.0-140.0,0,0,87963,,,,,,19.0,,1.0,,,,,,,,,,,,,,,,,,,,116.0,2.0,,
104,,rl_choice,,html-keyboard-response,104,148094,0.0-1.0-142.0,0,0,87963,,296.0,,,68.0,20.0,20.0,1.0,easy,1500.0,1000.0,1.0,80.0,20.0,80.0,40.0,A,B,/static/Simple_RL/Stimuli/Fractals_stims/A.jpg,/static/Simple_RL/Stimuli/Fractals_stims/B.jpg,1.0,80.0,20.0,80.0,40.0,A,B,116.296,0.296,0.0,
105,,rl_choice_confirmation,,html-keyboard-response,105,149307,0.0-1.0-143.0-0.0,0,0,87963,,,,,,20.0,,1.0,,,,,,,,,,,,,,,,,,,,117.5,1.204,,
106,,isi,,html-keyboard-response,106,150309,0.0-1.0-145.0,0,0,87963,,,,,,20.0,,1.0,,,,,,,,,,,,,,,,,,,,118.5,1.0,,
107,,feedback,,html-keyboard-response,107,151312,0.0-1.0-146.0-0.0,0,0,87963,,,,,,20.0,,1.0,,,,,,,,,,,,,,,,,,,,119.5,1.0,,
108,,iti,,html-keyboard-response,108,152814,0.0-1.0-147.0,0,0,87963,,,,,,20.0,,1.0,,,,,,,,,,,,,,,,,,,,121.0,1.5,,
109,,rl_choice,,html-keyboard-response,109,153245,0.0-1.0-149.0,0,0,87963,,429.0,,,75.0,21.0,21.0,1.0,easy,3000.0,1500.0,1.0,80.0,20.0,80.0,20.0,A,B,/static/Simple_RL/Stimuli/Fractals_stims/A.jpg,/static/Simple_RL/Stimuli/Fractals_stims/B.jpg,0.0,20.0,80.0,20.0,80.0,B,A,121.429,0.429,0.0,
110,,rl_choice_confirmation,,html-keyboard-response,110,154322,0.0-1.0-150.0-0.0,0,0,87963,,,,,,21.0,,1.0,,,,,,,,,,,,,,,,,,,,122.5,1.071,,
111,,isi,,html-keyboard-response,111,155824,0.0-1.0-152.0,0,0,87963,,,,,,21.0,,1.0,,,,,,,,,,,,,,,,,,,,124.0,1.5,,
112,,feedback,,html-keyboard-response,112,156827,0.0-1.0-153.0-0.0,0,0,87963,,,,,,21.0,,1.0,,,,,,,,,,,,,,,,,,,,125.0,1.0,,
113,,iti,,html-keyboard-response,113,159829,0.0-1.0-154.0,0,0,87963,,,,,,21.0,,1.0,,,,,,,,,,,,,,,,,,,,128.0,3.0,,
114,,rl_choice,,html-keyboard-response,114,160277,0.0-1.0-156.0,0,0,87963,,446.0,,,75.0,22.0,22.0,1.0,easy,1000.0,2000.0,1.0,80.0,20.0,100.0,20.0,A,B,/static/Simple_RL/Stimuli/Fractals_stims/A.jpg,/static/Simple_RL/Stimuli/Fractals_stims/B.jpg,0.0,20.0,80.0,20.0,100.0,B,A,128.446,0.446,0.0,
115,,rl_choice_confirmation,,html-keyboard-response,115,161337,0.0-1.0-157.0-0.0,0,0,87963,,,,,,22.0,,1.0,,,,,,,,,,,,,,,,,,,,129.5,1.054,,
116,,isi,,html-keyboard-response,116,163339,0.0-1.0-159.0,0,0,87963,,,,,,22.0,,1.0,,,,,,,,,,,,,,,,,,,,131.5,2.0,,
117,,feedback,,html-keyboard-response,117,164344,0.0-1.0-160.0-0.0,0,0,87963,,,,,,22.0,,1.0,,,,,,,,,,,,,,,,,,,,132.5,1.0,,
118,,iti,,html-keyboard-response,118,165346,0.0-1.0-161.0,0,0,87963,,,,,,22.0,,1.0,,,,,,,,,,,,,,,,,,,,133.5,1.0,,
119,,rl_choice,,html-keyboard-response,119,165792,0.0-1.0-163.0,0,0,87963,,443.0,,,68.0,23.0,23.0,1.0,easy,2000.0,1500.0,1.0,80.0,20.0,80.0,0.0,A,B,/static/Simple_RL/Stimuli/Fractals_stims/A.jpg,/static/Simple_RL/Stimuli/Fractals_stims/B.jpg,1.0,80.0,20.0,80.0,0.0,A,B,133.943,0.443,0.0,
120,,rl_choice_confirmation,,html-keyboard-response,120,166856,0.0-1.0-164.0-0.0,0,0,87963,,,,,,23.0,,1.0,,,,,,,,,,,,,,,,,,,,135.0,1.057,,
121,,isi,,html-keyboard-response,121,168358,0.0-1.0-166.0,0,0,87963,,,,,,23.0,,1.0,,,,,,,,,,,,,,,,,,,,136.5,1.5,,
122,,feedback,,html-keyboard-response,122,169361,0.0-1.0-167.0-0.0,0,0,87963,,,,,,23.0,,1.0,,,,,,,,,,,,,,,,,,,,137.5,1.0,,
123,,iti,,html-keyboard-response,123,171363,0.0-1.0-168.0,0,0,87963,,,,,,23.0,,1.0,,,,,,,,,,,,,,,,,,,,139.5,2.0,,
124,,rl_choice,,html-keyboard-response,124,171838,0.0-1.0-170.0,0,0,87963,,472.0,,,75.0,24.0,24.0,1.0,easy,1500.0,1500.0,0.0,20.0,80.0,40.0,80.0,B,A,/static/Simple_RL/Stimuli/Fractals_stims/B.jpg,/static/Simple_RL/Stimuli/Fractals_stims/A.jpg,0.0,80.0,20.0,80.0,40.0,A,B,139.972,0.472,0.0,
125,,rl_choice_confirmation,,html-keyboard-response,125,172870,0.0-1.0-171.0-0.0,0,0,87963,,,,,,24.0,,1.0,,,,,,,,,,,,,,,,,,,,141.0,1.028,,
126,,isi,,html-keyboard-response,126,174372,0.0-1.0-173.0,0,0,87963,,,,,,24.0,,1.0,,,,,,,,,,,,,,,,,,,,142.5,1.5,,
127,,feedback,,html-keyboard-response,127,175375,0.0-1.0-174.0-0.0,0,0,87963,,,,,,24.0,,1.0,,,,,,,,,,,,,,,,,,,,143.5,1.0,,
128,,iti,,html-keyboard-response,128,176877,0.0-1.0-175.0,0,0,87963,,,,,,24.0,,1.0,,,,,,,,,,,,,,,,,,,,145.0,1.5,,
129,,rl_choice,,html-keyboard-response,129,177473,0.0-1.0-177.0,0,0,87963,,594.0,,,75.0,25.0,25.0,1.0,easy,2000.0,3000.0,1.0,80.0,20.0,100.0,40.0,A,B,/static/Simple_RL/Stimuli/Fractals_stims/A.jpg,/static/Simple_RL/Stimuli/Fractals_stims/B.jpg,0.0,20.0,80.0,40.0,100.0,B,A,145.594,0.594,0.0,
130,,rl_choice_confirmation,,html-keyboard-response,130,178390,0.0-1.0-178.0-0.0,0,0,87963,,,,,,25.0,,1.0,,,,,,,,,,,,,,,,,,,,146.5,0.906,,
131,,isi,,html-keyboard-response,131,181392,0.0-1.0-180.0,0,0,87963,,,,,,25.0,,1.0,,,,,,,,,,,,,,,,,,,,149.5,3.0,,
132,,feedback,,html-keyboard-response,132,182395,0.0-1.0-181.0-0.0,0,0,87963,,,,,,25.0,,1.0,,,,,,,,,,,,,,,,,,,,150.5,1.0,,
133,,iti,,html-keyboard-response,133,184397,0.0-1.0-182.0,0,0,87963,,,,,,25.0,,1.0,,,,,,,,,,,,,,,,,,,,152.5,2.0,,
134,,rl_choice,,html-keyboard-response,134,185372,0.0-1.0-184.0,0,0,87963,,965.0,,,68.0,26.0,26.0,1.0,hard,1000.0,2000.0,0.0,40.0,60.0,60.0,80.0,D,C,/static/Simple_RL/Stimuli/Fractals_stims/D.jpg,/static/Simple_RL/Stimuli/Fractals_stims/C.jpg,1.0,40.0,60.0,60.0,80.0,D,C,153.465,0.965,0.0,
135,,rl_choice_confirmation,,html-keyboard-response,135,185911,0.0-1.0-185.0-0.0,0,0,87963,,,,,,26.0,,1.0,,,,,,,,,,,,,,,,,,,,154.0,0.535,,
136,,isi,,html-keyboard-response,136,187913,0.0-1.0-187.0,0,0,87963,,,,,,26.0,,1.0,,,,,,,,,,,,,,,,,,,,156.0,2.0,,
137,,feedback,,html-keyboard-response,137,188920,0.0-1.0-188.0-0.0,0,0,87963,,,,,,26.0,,1.0,,,,,,,,,,,,,,,,,,,,157.0,1.0,,
138,,iti,,html-keyboard-response,138,189922,0.0-1.0-189.0,0,0,87963,,,,,,26.0,,1.0,,,,,,,,,,,,,,,,,,,,158.0,1.0,,
139,,rl_choice,,html-keyboard-response,139,190507,0.0-1.0-191.0,0,0,87963,,581.0,,,75.0,27.0,27.0,1.0,easy,1500.0,1500.0,0.0,20.0,80.0,20.0,80.0,B,A,/static/Simple_RL/Stimuli/Fractals_stims/B.jpg,/static/Simple_RL/Stimuli/Fractals_stims/A.jpg,0.0,80.0,20.0,80.0,20.0,A,B,158.581,0.581,0.0,
140,,rl_choice_confirmation,,html-keyboard-response,140,191452,0.0-1.0-192.0-0.0,0,0,87963,,,,,,27.0,,1.0,,,,,,,,,,,,,,,,,,,,159.5,0.919,,
141,,isi,,html-keyboard-response,141,192957,0.0-1.0-194.0,0,0,87963,,,,,,27.0,,1.0,,,,,,,,,,,,,,,,,,,,161.0,1.5,,
142,,feedback,,html-keyboard-response,142,193959,0.0-1.0-195.0-0.0,0,0,87963,,,,,,27.0,,1.0,,,,,,,,,,,,,,,,,,,,162.0,1.0,,
143,,iti,,html-keyboard-response,143,195461,0.0-1.0-196.0,0,0,87963,,,,,,27.0,,1.0,,,,,,,,,,,,,,,,,,,,163.5,1.5,,
144,,rl_choice,,html-keyboard-response,144,195939,0.0-1.0-198.0,0,0,87963,,476.0,,,75.0,28.0,28.0,1.0,easy,2000.0,1000.0,1.0,80.0,20.0,100.0,20.0,A,B,/static/Simple_RL/Stimuli/Fractals_stims/A.jpg,/static/Simple_RL/Stimuli/Fractals_stims/B.jpg,0.0,20.0,80.0,20.0,100.0,B,A,163.976,0.476,0.0,
145,,rl_choice_confirmation,,html-keyboard-response,145,196971,0.0-1.0-199.0-0.0,0,0,87963,,,,,,28.0,,1.0,,,,,,,,,,,,,,,,,,,,165.0,1.024,,
146,,isi,,html-keyboard-response,146,197973,0.0-1.0-201.0,0,0,87963,,,,,,28.0,,1.0,,,,,,,,,,,,,,,,,,,,166.0,1.0,,
147,,feedback,,html-keyboard-response,147,198975,0.0-1.0-202.0-0.0,0,0,87963,,,,,,28.0,,1.0,,,,,,,,,,,,,,,,,,,,167.0,1.0,,
148,,iti,,html-keyboard-response,148,200980,0.0-1.0-203.0,0,0,87963,,,,,,28.0,,1.0,,,,,,,,,,,,,,,,,,,,169.0,2.0,,
149,,rl_choice,,html-keyboard-response,149,201705,0.0-1.0-205.0,0,0,87963,,718.0,,,68.0,29.0,29.0,1.0,hard,1000.0,1500.0,1.0,60.0,40.0,60.0,20.0,C,D,/static/Simple_RL/Stimuli/Fractals_stims/C.jpg,/static/Simple_RL/Stimuli/Fractals_stims/D.jpg,1.0,60.0,40.0,60.0,20.0,C,D,169.718,0.718,0.0,
150,,rl_choice_confirmation,,html-keyboard-response,150,202491,0.0-1.0-206.0-0.0,0,0,87963,,,,,,29.0,,1.0,,,,,,,,,,,,,,,,,,,,170.5,0.782,,
151,,isi,,html-keyboard-response,151,203992,0.0-1.0-208.0,0,0,87963,,,,,,29.0,,1.0,,,,,,,,,,,,,,,,,,,,172.0,1.5,,
152,,feedback,,html-keyboard-response,152,204994,0.0-1.0-209.0-0.0,0,0,87963,,,,,,29.0,,1.0,,,,,,,,,,,,,,,,,,,,173.0,1.0,,
153,,iti,,html-keyboard-response,153,206019,0.0-1.0-210.0,0,0,87963,,,,,,29.0,,1.0,,,,,,,,,,,,,,,,,,,,174.0,1.0,,
154,,rl_choice,,html-keyboard-response,154,206558,0.0-1.0-212.0,0,0,87963,,534.0,,,75.0,30.0,30.0,1.0,easy,1500.0,2000.0,1.0,80.0,20.0,60.0,20.0,A,B,/static/Simple_RL/Stimuli/Fractals_stims/A.jpg,/static/Simple_RL/Stimuli/Fractals_stims/B.jpg,0.0,20.0,80.0,20.0,60.0,B,A,174.534,0.534,0.0,
155,,rl_choice_confirmation,,html-keyboard-response,155,207527,0.0-1.0-213.0-0.0,0,0,87963,,,,,,30.0,,1.0,,,,,,,,,,,,,,,,,,,,175.5,0.966,,
156,,isi,,html-keyboard-response,156,209529,0.0-1.0-215.0,0,0,87963,,,,,,30.0,,1.0,,,,,,,,,,,,,,,,,,,,177.5,2.0,,
157,,feedback,,html-keyboard-response,157,210531,0.0-1.0-216.0-0.0,0,0,87963,,,,,,30.0,,1.0,,,,,,,,,,,,,,,,,,,,178.5,1.0,,
158,,iti,,html-keyboard-response,158,212035,0.0-1.0-217.0,0,0,87963,,,,,,30.0,,1.0,,,,,,,,,,,,,,,,,,,,180.0,1.5,,
159,,rl_choice,,html-keyboard-response,159,213545,0.0-1.0-219.0,0,0,87963,,,,,,31.0,31.0,1.0,hard,1500.0,2000.0,0.0,40.0,60.0,40.0,80.0,D,C,/static/Simple_RL/Stimuli/Fractals_stims/D.jpg,/static/Simple_RL/Stimuli/Fractals_stims/C.jpg,,,,,,,,181.5,1.5,1.0,
160,,rl_choice_warning,,html-keyboard-response,160,214546,0.0-1.0-221.0-0.0,0,0,87963,,,,,,31.0,,1.0,,,,,,,,,,,,,,,,,,,,182.5,1.0,,
161,,isi,,html-keyboard-response,161,216548,0.0-1.0-222.0,0,0,87963,,,,,,31.0,,1.0,,,,,,,,,,,,,,,,,,,,184.5,2.0,,
162,,iti,,html-keyboard-response,162,218050,0.0-1.0-224.0,0,0,87963,,,,,,31.0,,1.0,,,,,,,,,,,,,,,,,,,,186.0,1.5,,
163,,rl_choice,,html-keyboard-response,163,218541,0.0-1.0-226.0,0,0,87963,,488.0,,,75.0,32.0,32.0,1.0,easy,1000.0,1000.0,0.0,20.0,80.0,20.0,80.0,B,A,/static/Simple_RL/Stimuli/Fractals_stims/B.jpg,/static/Simple_RL/Stimuli/Fractals_stims/A.jpg,0.0,80.0,20.0,80.0,20.0,A,B,186.488,0.488,0.0,
164,,rl_choice_confirmation,,html-keyboard-response,164,219557,0.0-1.0-227.0-0.0,0,0,87963,,,,,,32.0,,1.0,,,,,,,,,,,,,,,,,,,,187.5,1.012,,
165,,isi,,html-keyboard-response,165,220559,0.0-1.0-229.0,0,0,87963,,,,,,32.0,,1.0,,,,,,,,,,,,,,,,,,,,188.5,1.0,,
166,,feedback,,html-keyboard-response,166,221563,0.0-1.0-230.0-0.0,0,0,87963,,,,,,32.0,,1.0,,,,,,,,,,,,,,,,,,,,189.5,1.0,,
167,,iti,,html-keyboard-response,167,222565,0.0-1.0-231.0,0,0,87963,,,,,,32.0,,1.0,,,,,,,,,,,,,,,,,,,,190.5,1.0,,
168,,rl_choice,,html-keyboard-response,168,223333,0.0-1.0-233.0,0,0,87963,,766.0,,,75.0,33.0,33.0,1.0,easy,3500.0,1000.0,1.0,80.0,20.0,80.0,40.0,A,B,/static/Simple_RL/Stimuli/Fractals_stims/A.jpg,/static/Simple_RL/Stimuli/Fractals_stims/B.jpg,0.0,20.0,80.0,40.0,80.0,B,A,191.266,0.766,0.0,
169,,rl_choice_confirmation,,html-keyboard-response,169,224071,0.0-1.0-234.0-0.0,0,0,87963,,,,,,33.0,,1.0,,,,,,,,,,,,,,,,,,,,192.0,0.734,,
170,,isi,,html-keyboard-response,170,225072,0.0-1.0-236.0,0,0,87963,,,,,,33.0,,1.0,,,,,,,,,,,,,,,,,,,,193.0,1.0,,
171,,feedback,,html-keyboard-response,171,226075,0.0-1.0-237.0-0.0,0,0,87963,,,,,,33.0,,1.0,,,,,,,,,,,,,,,,,,,,194.0,1.0,,
172,,iti,,html-keyboard-response,172,229577,0.0-1.0-238.0,0,0,87963,,,,,,33.0,,1.0,,,,,,,,,,,,,,,,,,,,197.5,3.5,,
173,,rl_choice,,html-keyboard-response,173,229941,0.0-1.0-240.0,0,0,87963,,358.0,,,68.0,34.0,34.0,1.0,hard,2000.0,1500.0,1.0,60.0,40.0,60.0,20.0,C,D,/static/Simple_RL/Stimuli/Fractals_stims/C.jpg,/static/Simple_RL/Stimuli/Fractals_stims/D.jpg,1.0,60.0,40.0,60.0,20.0,C,D,197.858,0.358,0.0,
174,,rl_choice_confirmation,,html-keyboard-response,174,231086,0.0-1.0-241.0-0.0,0,0,87963,,,,,,34.0,,1.0,,,,,,,,,,,,,,,,,,,,199.0,1.142,,
175,,isi,,html-keyboard-response,175,232589,0.0-1.0-243.0,0,0,87963,,,,,,34.0,,1.0,,,,,,,,,,,,,,,,,,,,200.5,1.5,,
176,,feedback,,html-keyboard-response,176,233592,0.0-1.0-244.0-0.0,0,0,87963,,,,,,34.0,,1.0,,,,,,,,,,,,,,,,,,,,201.5,1.0,,
177,,iti,,html-keyboard-response,177,235593,0.0-1.0-245.0,0,0,87963,,,,,,34.0,,1.0,,,,,,,,,,,,,,,,,,,,203.5,2.0,,
178,,rl_choice,,html-keyboard-response,178,236011,0.0-1.0-247.0,0,0,87963,,412.0,,,75.0,35.0,35.0,1.0,hard,1000.0,3500.0,0.0,40.0,60.0,60.0,80.0,D,C,/static/Simple_RL/Stimuli/Fractals_stims/D.jpg,/static/Simple_RL/Stimuli/Fractals_stims/C.jpg,0.0,60.0,40.0,80.0,60.0,C,D,203.912,0.412,0.0,
179,,rl_choice_confirmation,,html-keyboard-response,179,237103,0.0-1.0-248.0-0.0,0,0,87963,,,,,,35.0,,1.0,,,,,,,,,,,,,,,,,,,,205.0,1.088,,
180,,isi,,html-keyboard-response,180,240605,0.0-1.0-250.0,0,0,87963,,,,,,35.0,,1.0,,,,,,,,,,,,,,,,,,,,208.5,3.5,,
181,,feedback,,html-keyboard-response,181,241607,0.0-1.0-251.0-0.0,0,0,87963,,,,,,35.0,,1.0,,,,,,,,,,,,,,,,,,,,209.5,1.0,,
182,,iti,,html-keyboard-response,182,242609,0.0-1.0-252.0,0,0,87963,,,,,,35.0,,1.0,,,,,,,,,,,,,,,,,,,,210.5,1.0,,
183,,rl_choice,,html-keyboard-response,183,243027,0.0-1.0-254.0,0,0,87963,,414.0,,,68.0,36.0,36.0,1.0,hard,1500.0,1000.0,1.0,60.0,40.0,40.0,40.0,C,D,/static/Simple_RL/Stimuli/Fractals_stims/C.jpg,/static/Simple_RL/Stimuli/Fractals_stims/D.jpg,1.0,60.0,40.0,40.0,40.0,C,D,210.914,0.414,0.0,
184,,rl_choice_confirmation,,html-keyboard-response,184,244118,0.0-1.0-255.0-0.0,0,0,87963,,,,,,36.0,,1.0,,,,,,,,,,,,,,,,,,,,212.0,1.086,,
185,,isi,,html-keyboard-response,185,245120,0.0-1.0-257.0,0,0,87963,,,,,,36.0,,1.0,,,,,,,,,,,,,,,,,,,,213.0,1.0,,
186,,feedback,,html-keyboard-response,186,246123,0.0-1.0-258.0-0.0,0,0,87963,,,,,,36.0,,1.0,,,,,,,,,,,,,,,,,,,,214.0,1.0,,
187,,iti,,html-keyboard-response,187,247625,0.0-1.0-259.0,0,0,87963,,,,,,36.0,,1.0,,,,,,,,,,,,,,,,,,,,215.5,1.5,,
188,,rl_choice,,html-keyboard-response,188,247723,0.0-1.0-261.0,0,0,87963,,93.0,,,75.0,37.0,37.0,1.0,easy,1000.0,1000.0,0.0,20.0,80.0,0.0,100.0,B,A,/static/Simple_RL/Stimuli/Fractals_stims/B.jpg,/static/Simple_RL/Stimuli/Fractals_stims/A.jpg,0.0,80.0,20.0,100.0,0.0,A,B,215.593,0.093,0.0,
189,,rl_choice_confirmation,,html-keyboard-response,189,249132,0.0-1.0-262.0-0.0,0,0,87963,,,,,,37.0,,1.0,,,,,,,,,,,,,,,,,,,,217.0,1.407,,
190,,isi,,html-keyboard-response,190,250137,0.0-1.0-264.0,0,0,87963,,,,,,37.0,,1.0,,,,,,,,,,,,,,,,,,,,218.0,1.0,,
191,,feedback,,html-keyboard-response,191,251140,0.0-1.0-265.0-0.0,0,0,87963,,,,,,37.0,,1.0,,,,,,,,,,,,,,,,,,,,219.0,1.0,,
192,,iti,,html-keyboard-response,192,252142,0.0-1.0-266.0,0,0,87963,,,,,,37.0,,1.0,,,,,,,,,,,,,,,,,,,,220.0,1.0,,
193,,rl_choice,,html-keyboard-response,193,252875,0.0-1.0-268.0,0,0,87963,,728.0,,,75.0,38.0,38.0,1.0,hard,1500.0,1000.0,0.0,40.0,60.0,40.0,60.0,D,C,/static/Simple_RL/Stimuli/Fractals_stims/D.jpg,/static/Simple_RL/Stimuli/Fractals_stims/C.jpg,0.0,60.0,40.0,60.0,40.0,C,D,220.728,0.728,0.0,
194,,rl_choice_confirmation,,html-keyboard-response,194,253651,0.0-1.0-269.0-0.0,0,0,87963,,,,,,38.0,,1.0,,,,,,,,,,,,,,,,,,,,221.5,0.772,,
195,,isi,,html-keyboard-response,195,254653,0.0-1.0-271.0,0,0,87963,,,,,,38.0,,1.0,,,,,,,,,,,,,,,,,,,,222.5,1.0,,
196,,feedback,,html-keyboard-response,196,255656,0.0-1.0-272.0-0.0,0,0,87963,,,,,,38.0,,1.0,,,,,,,,,,,,,,,,,,,,223.5,1.0,,
197,,iti,,html-keyboard-response,197,257158,0.0-1.0-273.0,0,0,87963,,,,,,38.0,,1.0,,,,,,,,,,,,,,,,,,,,225.0,1.5,,
198,,rl_choice,,html-keyboard-response,198,257538,0.0-1.0-275.0,0,0,87963,,375.0,,,68.0,39.0,39.0,1.0,hard,1500.0,3000.0,0.0,40.0,60.0,60.0,60.0,D,C,/static/Simple_RL/Stimuli/Fractals_stims/D.jpg,/static/Simple_RL/Stimuli/Fractals_stims/C.jpg,1.0,40.0,60.0,60.0,60.0,D,C,225.375,0.375,0.0,
199,,rl_choice_confirmation,,html-keyboard-response,199,258667,0.0-1.0-276.0-0.0,0,0,87963,,,,,,39.0,,1.0,,,,,,,,,,,,,,,,,,,,226.5,1.125,,
200,,isi,,html-keyboard-response,200,261673,0.0-1.0-278.0,0,0,87963,,,,,,39.0,,1.0,,,,,,,,,,,,,,,,,,,,229.5,3.0,,
201,,feedback,,html-keyboard-response,201,262676,0.0-1.0-279.0-0.0,0,0,87963,,,,,,39.0,,1.0,,,,,,,,,,,,,,,,,,,,230.5,1.0,,
202,,iti,,html-keyboard-response,202,264178,0.0-1.0-280.0,0,0,87963,,,,,,39.0,,1.0,,,,,,,,,,,,,,,,,,,,232.0,1.5,,
203,,block_over,,html-keyboard-response,203,667653,0.0-1.0-281.0-0.0,0,0,87963,,403471.0,,,68.0,39.0,,,,,,,,,,,,,,,,,,,,,,,,,
204,,start_run,,html-keyboard-response,204,669669,0.0-1.0-281.0-1.0,0,0,87963,,2014.0,,,84.0,,,,,,,,,,,,,,,,,,,,,,,,,,
205,,rl_choice,,html-keyboard-response,205,670437,0.0-1.0-282.0,0,0,87963,,764.0,,,75.0,40.0,40.0,2.0,easy,3000.0,1000.0,1.0,80.0,20.0,80.0,40.0,A,B,/static/Simple_RL/Stimuli/Fractals_stims/A.jpg,/static/Simple_RL/Stimuli/Fractals_stims/B.jpg,0.0,20.0,80.0,40.0,80.0,B,A,0.764,0.764,0.0,
206,,rl_choice_confirmation,,html-keyboard-response,206,671175,0.0-1.0-283.0-0.0,0,0,87963,,,,,,40.0,,2.0,,,,,,,,,,,,,,,,,,,,1.5,0.736,,
207,,isi,,html-keyboard-response,207,672177,0.0-1.0-285.0,0,0,87963,,,,,,40.0,,2.0,,,,,,,,,,,,,,,,,,,,2.5,1.0,,
208,,feedback,,html-keyboard-response,208,673180,0.0-1.0-286.0-0.0,0,0,87963,,,,,,40.0,,2.0,,,,,,,,,,,,,,,,,,,,3.5,1.0,,
209,,iti,,html-keyboard-response,209,676186,0.0-1.0-287.0,0,0,87963,,,,,,40.0,,2.0,,,,,,,,,,,,,,,,,,,,6.5,3.0,,
210,,rl_choice,,html-keyboard-response,210,676841,0.0-1.0-289.0,0,0,87963,,651.0,,,75.0,41.0,41.0,2.0,hard,1500.0,1000.0,1.0,60.0,40.0,60.0,40.0,C,D,/static/Simple_RL/Stimuli/Fractals_stims/C.jpg,/static/Simple_RL/Stimuli/Fractals_stims/D.jpg,0.0,40.0,60.0,40.0,60.0,D,C,7.151,0.651,0.0,
211,,rl_choice_confirmation,,html-keyboard-response,211,677695,0.0-1.0-290.0-0.0,0,0,87963,,,,,,41.0,,2.0,,,,,,,,,,,,,,,,,,,,8.0,0.849,,
212,,isi,,html-keyboard-response,212,678701,0.0-1.0-292.0,0,0,87963,,,,,,41.0,,2.0,,,,,,,,,,,,,,,,,,,,9.0,1.0,,
213,,feedback,,html-keyboard-response,213,679703,0.0-1.0-293.0-0.0,0,0,87963,,,,,,41.0,,2.0,,,,,,,,,,,,,,,,,,,,10.0,1.0,,
214,,iti,,html-keyboard-response,214,681205,0.0-1.0-294.0,0,0,87963,,,,,,41.0,,2.0,,,,,,,,,,,,,,,,,,,,11.5,1.5,,
215,,rl_choice,,html-keyboard-response,215,682708,0.0-1.0-296.0,0,0,87963,,,,,,42.0,42.0,2.0,easy,1000.0,2000.0,0.0,20.0,80.0,20.0,60.0,B,A,/static/Simple_RL/Stimuli/Fractals_stims/B.jpg,/static/Simple_RL/Stimuli/Fractals_stims/A.jpg,,,,,,,,13.0,1.5,1.0,
216,,rl_choice_warning,,html-keyboard-response,216,683710,0.0-1.0-298.0-0.0,1,0,87963,,,,,,42.0,,2.0,,,,,,,,,,,,,,,,,,,,14.0,1.0,,
217,,isi,,html-keyboard-response,217,685712,0.0-1.0-299.0,0,0,87963,,,,,,42.0,,2.0,,,,,,,,,,,,,,,,,,,,16.0,2.0,,
218,,iti,,html-keyboard-response,218,686717,0.0-1.0-301.0,0,0,87963,,,,,,42.0,,2.0,,,,,,,,,,,,,,,,,,,,17.0,1.0,,
219,,rl_choice,,html-keyboard-response,219,687224,0.0-1.0-303.0,0,0,87963,,503.0,,,75.0,43.0,43.0,2.0,hard,1000.0,1000.0,0.0,40.0,60.0,60.0,40.0,D,C,/static/Simple_RL/Stimuli/Fractals_stims/D.jpg,/static/Simple_RL/Stimuli/Fractals_stims/C.jpg,0.0,60.0,40.0,40.0,60.0,C,D,17.503,0.503,0.0,
220,,rl_choice_confirmation,,html-keyboard-response,220,688224,0.0-1.0-304.0-0.0,0,0,87963,,,,,,43.0,,2.0,,,,,,,,,,,,,,,,,,,,18.5,0.997,,
221,,isi,,html-keyboard-response,221,689226,0.0-1.0-306.0,0,0,87963,,,,,,43.0,,2.0,,,,,,,,,,,,,,,,,,,,19.5,1.0,,
222,,feedback,,html-keyboard-response,222,690232,0.0-1.0-307.0-0.0,0,0,87963,,,,,,43.0,,2.0,,,,,,,,,,,,,,,,,,,,20.5,1.0,,
223,,iti,,html-keyboard-response,223,691235,0.0-1.0-308.0,0,0,87963,,,,,,43.0,,2.0,,,,,,,,,,,,,,,,,,,,21.5,1.0,,
224,,rl_choice,,html-keyboard-response,224,691704,0.0-1.0-310.0,0,0,87963,,465.0,,,68.0,44.0,44.0,2.0,hard,2000.0,3000.0,0.0,40.0,60.0,20.0,40.0,D,C,/static/Simple_RL/Stimuli/Fractals_stims/D.jpg,/static/Simple_RL/Stimuli/Fractals_stims/C.jpg,1.0,40.0,60.0,20.0,40.0,D,C,21.965,0.465,0.0,
225,,rl_choice_confirmation,,html-keyboard-response,225,692744,0.0-1.0-311.0-0.0,0,0,87963,,,,,,44.0,,2.0,,,,,,,,,,,,,,,,,,,,23.0,1.035,,
226,,isi,,html-keyboard-response,226,695749,0.0-1.0-313.0,0,0,87963,,,,,,44.0,,2.0,,,,,,,,,,,,,,,,,,,,26.0,3.0,,
227,,feedback,,html-keyboard-response,227,696752,0.0-1.0-314.0-0.0,0,0,87963,,,,,,44.0,,2.0,,,,,,,,,,,,,,,,,,,,27.0,1.0,,
228,,iti,,html-keyboard-response,228,698754,0.0-1.0-315.0,0,0,87963,,,,,,44.0,,2.0,,,,,,,,,,,,,,,,,,,,29.0,2.0,,
229,,rl_choice,,html-keyboard-response,229,699169,0.0-1.0-317.0,0,0,87963,,410.0,,,75.0,45.0,45.0,2.0,hard,1500.0,3500.0,0.0,40.0,60.0,20.0,80.0,D,C,/static/Simple_RL/Stimuli/Fractals_stims/D.jpg,/static/Simple_RL/Stimuli/Fractals_stims/C.jpg,0.0,60.0,40.0,80.0,20.0,C,D,29.41,0.41,0.0,
230,,rl_choice_confirmation,,html-keyboard-response,230,700263,0.0-1.0-318.0-0.0,0,0,87963,,,,,,45.0,,2.0,,,,,,,,,,,,,,,,,,,,30.5,1.09,,
231,,isi,,html-keyboard-response,231,703767,0.0-1.0-320.0,0,0,87963,,,,,,45.0,,2.0,,,,,,,,,,,,,,,,,,,,34.0,3.5,,
232,,feedback,,html-keyboard-response,232,704770,0.0-1.0-321.0-0.0,0,0,87963,,,,,,45.0,,2.0,,,,,,,,,,,,,,,,,,,,35.0,1.0,,
233,,iti,,html-keyboard-response,233,706272,0.0-1.0-322.0,0,0,87963,,,,,,45.0,,2.0,,,,,,,,,,,,,,,,,,,,36.5,1.5,,
234,,rl_choice,,html-keyboard-response,234,706681,0.0-1.0-324.0,0,0,87963,,403.0,,,75.0,46.0,46.0,2.0,hard,1000.0,1000.0,1.0,60.0,40.0,80.0,60.0,C,D,/static/Simple_RL/Stimuli/Fractals_stims/C.jpg,/static/Simple_RL/Stimuli/Fractals_stims/D.jpg,0.0,40.0,60.0,60.0,80.0,D,C,36.903,0.403,0.0,
235,,rl_choice_confirmation,,html-keyboard-response,235,707783,0.0-1.0-325.0-0.0,0,0,87963,,,,,,46.0,,2.0,,,,,,,,,,,,,,,,,,,,38.0,1.097,,
236,,isi,,html-keyboard-response,236,708784,0.0-1.0-327.0,0,0,87963,,,,,,46.0,,2.0,,,,,,,,,,,,,,,,,,,,39.0,1.0,,
237,,feedback,,html-keyboard-response,237,709786,0.0-1.0-328.0-0.0,0,0,87963,,,,,,46.0,,2.0,,,,,,,,,,,,,,,,,,,,40.0,1.0,,
238,,iti,,html-keyboard-response,238,710788,0.0-1.0-329.0,0,0,87963,,,,,,46.0,,2.0,,,,,,,,,,,,,,,,,,,,41.0,1.0,,
239,,rl_choice,,html-keyboard-response,239,711287,0.0-1.0-331.0,0,0,87963,,495.0,,,75.0,47.0,47.0,2.0,hard,1500.0,2000.0,0.0,40.0,60.0,40.0,60.0,D,C,/static/Simple_RL/Stimuli/Fractals_stims/D.jpg,/static/Simple_RL/Stimuli/Fractals_stims/C.jpg,0.0,60.0,40.0,60.0,40.0,C,D,41.495,0.495,0.0,
240,,rl_choice_confirmation,,html-keyboard-response,240,712298,0.0-1.0-332.0-0.0,0,0,87963,,,,,,47.0,,2.0,,,,,,,,,,,,,,,,,,,,42.5,1.005,,
241,,isi,,html-keyboard-response,241,714305,0.0-1.0-334.0,0,0,87963,,,,,,47.0,,2.0,,,,,,,,,,,,,,,,,,,,44.5,2.0,,
242,,feedback,,html-keyboard-response,242,715307,0.0-1.0-335.0-0.0,0,0,87963,,,,,,47.0,,2.0,,,,,,,,,,,,,,,,,,,,45.5,1.0,,
243,,iti,,html-keyboard-response,243,716809,0.0-1.0-336.0,0,0,87963,,,,,,47.0,,2.0,,,,,,,,,,,,,,,,,,,,47.0,1.5,,
244,,rl_choice,,html-keyboard-response,244,717359,0.0-1.0-338.0,0,0,87963,,543.0,,,75.0,48.0,48.0,2.0,easy,3500.0,1500.0,1.0,80.0,20.0,100.0,20.0,A,B,/static/Simple_RL/Stimuli/Fractals_stims/A.jpg,/static/Simple_RL/Stimuli/Fractals_stims/B.jpg,0.0,20.0,80.0,20.0,100.0,B,A,47.543,0.543,0.0,
245,,rl_choice_confirmation,,html-keyboard-response,245,718323,0.0-1.0-339.0-0.0,0,0,87963,,,,,,48.0,,2.0,,,,,,,,,,,,,,,,,,,,48.5,0.957,,
246,,isi,,html-keyboard-response,246,719826,0.0-1.0-341.0,0,0,87963,,,,,,48.0,,2.0,,,,,,,,,,,,,,,,,,,,50.0,1.5,,
247,,feedback,,html-keyboard-response,247,720828,0.0-1.0-342.0-0.0,0,0,87963,,,,,,48.0,,2.0,,,,,,,,,,,,,,,,,,,,51.0,1.0,,
248,,iti,,html-keyboard-response,248,724331,0.0-1.0-343.0,0,0,87963,,,,,,48.0,,2.0,,,,,,,,,,,,,,,,,,,,54.5,3.5,,
249,,rl_choice,,html-keyboard-response,249,724730,0.0-1.0-345.0,0,0,87963,,393.0,,,68.0,49.0,49.0,2.0,hard,2000.0,2000.0,1.0,60.0,40.0,80.0,40.0,C,D,/static/Simple_RL/Stimuli/Fractals_stims/C.jpg,/static/Simple_RL/Stimuli/Fractals_stims/D.jpg,1.0,60.0,40.0,80.0,40.0,C,D,54.893,0.393,0.0,
250,,rl_choice_confirmation,,html-keyboard-response,250,725842,0.0-1.0-346.0-0.0,0,0,87963,,,,,,49.0,,2.0,,,,,,,,,,,,,,,,,,,,56.0,1.107,,
251,,isi,,html-keyboard-response,251,727844,0.0-1.0-348.0,0,0,87963,,,,,,49.0,,2.0,,,,,,,,,,,,,,,,,,,,58.0,2.0,,
252,,feedback,,html-keyboard-response,252,728847,0.0-1.0-349.0-0.0,0,0,87963,,,,,,49.0,,2.0,,,,,,,,,,,,,,,,,,,,59.0,1.0,,
253,,iti,,html-keyboard-response,253,730850,0.0-1.0-350.0,0,0,87963,,,,,,49.0,,2.0,,,,,,,,,,,,,,,,,,,,61.0,2.0,,
254,,rl_choice,,html-keyboard-response,254,731348,0.0-1.0-352.0,0,0,87963,,494.0,,,75.0,50.0,50.0,2.0,easy,1500.0,2000.0,1.0,80.0,20.0,100.0,0.0,A,B,/static/Simple_RL/Stimuli/Fractals_stims/A.jpg,/static/Simple_RL/Stimuli/Fractals_stims/B.jpg,0.0,20.0,80.0,0.0,100.0,B,A,61.494,0.494,0.0,
255,,rl_choice_confirmation,,html-keyboard-response,255,732357,0.0-1.0-353.0-0.0,0,0,87963,,,,,,50.0,,2.0,,,,,,,,,,,,,,,,,,,,62.5,1.006,,
256,,isi,,html-keyboard-response,256,734359,0.0-1.0-355.0,0,0,87963,,,,,,50.0,,2.0,,,,,,,,,,,,,,,,,,,,64.5,2.0,,
257,,feedback,,html-keyboard-response,257,735361,0.0-1.0-356.0-0.0,0,0,87963,,,,,,50.0,,2.0,,,,,,,,,,,,,,,,,,,,65.5,1.0,,
258,,iti,,html-keyboard-response,258,736870,0.0-1.0-357.0,0,0,87963,,,,,,50.0,,2.0,,,,,,,,,,,,,,,,,,,,67.0,1.5,,
259,,rl_choice,,html-keyboard-response,259,737317,0.0-1.0-359.0,0,0,87963,,445.0,,,75.0,51.0,51.0,2.0,easy,1500.0,3000.0,0.0,20.0,80.0,20.0,60.0,B,A,/static/Simple_RL/Stimuli/Fractals_stims/B.jpg,/static/Simple_RL/Stimuli/Fractals_stims/A.jpg,0.0,80.0,20.0,60.0,20.0,A,B,67.445,0.445,0.0,
260,,rl_choice_confirmation,,html-keyboard-response,260,738375,0.0-1.0-360.0-0.0,0,0,87963,,,,,,51.0,,2.0,,,,,,,,,,,,,,,,,,,,68.5,1.055,,
261,,isi,,html-keyboard-response,261,741377,0.0-1.0-362.0,0,0,87963,,,,,,51.0,,2.0,,,,,,,,,,,,,,,,,,,,71.5,3.0,,
262,,feedback,,html-keyboard-response,262,742380,0.0-1.0-363.0-0.0,0,0,87963,,,,,,51.0,,2.0,,,,,,,,,,,,,,,,,,,,72.5,1.0,,
263,,iti,,html-keyboard-response,263,743886,0.0-1.0-364.0,0,0,87963,,,,,,51.0,,2.0,,,,,,,,,,,,,,,,,,,,74.0,1.5,,
264,,rl_choice,,html-keyboard-response,264,744284,0.0-1.0-366.0,0,0,87963,,395.0,,,68.0,52.0,52.0,2.0,hard,3500.0,2000.0,0.0,40.0,60.0,60.0,40.0,D,C,/static/Simple_RL/Stimuli/Fractals_stims/D.jpg,/static/Simple_RL/Stimuli/Fractals_stims/C.jpg,1.0,40.0,60.0,60.0,40.0,D,C,74.395,0.395,0.0,
265,,rl_choice_confirmation,,html-keyboard-response,265,745394,0.0-1.0-367.0-0.0,0,0,87963,,,,,,52.0,,2.0,,,,,,,,,,,,,,,,,,,,75.5,1.105,,
266,,isi,,html-keyboard-response,266,747397,0.0-1.0-369.0,0,0,87963,,,,,,52.0,,2.0,,,,,,,,,,,,,,,,,,,,77.5,2.0,,
267,,feedback,,html-keyboard-response,267,748400,0.0-1.0-370.0-0.0,0,0,87963,,,,,,52.0,,2.0,,,,,,,,,,,,,,,,,,,,78.5,1.0,,
268,,iti,,html-keyboard-response,268,751902,0.0-1.0-371.0,0,0,87963,,,,,,52.0,,2.0,,,,,,,,,,,,,,,,,,,,82.0,3.5,,
269,,rl_choice,,html-keyboard-response,269,752068,0.0-1.0-373.0,0,0,87963,,163.0,,,75.0,53.0,53.0,2.0,easy,1500.0,2000.0,0.0,20.0,80.0,0.0,60.0,B,A,/static/Simple_RL/Stimuli/Fractals_stims/B.jpg,/static/Simple_RL/Stimuli/Fractals_stims/A.jpg,0.0,80.0,20.0,60.0,0.0,A,B,82.163,0.163,0.0,
270,,rl_choice_confirmation,,html-keyboard-response,270,753407,0.0-1.0-374.0-0.0,0,0,87963,,,,,,53.0,,2.0,,,,,,,,,,,,,,,,,,,,83.5,1.337,,
271,,isi,,html-keyboard-response,271,755421,0.0-1.0-376.0,0,0,87963,,,,,,53.0,,2.0,,,,,,,,,,,,,,,,,,,,85.5,2.0,,
272,,feedback,,html-keyboard-response,272,756423,0.0-1.0-377.0-0.0,0,0,87963,,,,,,53.0,,2.0,,,,,,,,,,,,,,,,,,,,86.5,1.0,,
273,,iti,,html-keyboard-response,273,757925,0.0-1.0-378.0,0,0,87963,,,,,,53.0,,2.0,,,,,,,,,,,,,,,,,,,,88.0,1.5,,
274,,rl_choice,,html-keyboard-response,274,758360,0.0-1.0-380.0,0,0,87963,,432.0,,,75.0,54.0,54.0,2.0,easy,1000.0,1000.0,0.0,20.0,80.0,20.0,60.0,B,A,/static/Simple_RL/Stimuli/Fractals_stims/B.jpg,/static/Simple_RL/Stimuli/Fractals_stims/A.jpg,0.0,80.0,20.0,60.0,20.0,A,B,88.432,0.432,0.0,
275,,rl_choice_confirmation,,html-keyboard-response,275,759434,0.0-1.0-381.0-0.0,0,0,87963,,,,,,54.0,,2.0,,,,,,,,,,,,,,,,,,,,89.5,1.068,,
276,,isi,,html-keyboard-response,276,760436,0.0-1.0-383.0,0,0,87963,,,,,,54.0,,2.0,,,,,,,,,,,,,,,,,,,,90.5,1.0,,
277,,feedback,,html-keyboard-response,277,761438,0.0-1.0-384.0-0.0,0,0,87963,,,,,,54.0,,2.0,,,,,,,,,,,,,,,,,,,,91.5,1.0,,
278,,iti,,html-keyboard-response,278,762440,0.0-1.0-385.0,0,0,87963,,,,,,54.0,,2.0,,,,,,,,,,,,,,,,,,,,92.5,1.0,,
279,,rl_choice,,html-keyboard-response,279,762959,0.0-1.0-387.0,0,0,87963,,516.0,,,75.0,55.0,55.0,2.0,hard,1500.0,2000.0,1.0,60.0,40.0,80.0,40.0,C,D,/static/Simple_RL/Stimuli/Fractals_stims/C.jpg,/static/Simple_RL/Stimuli/Fractals_stims/D.jpg,0.0,40.0,60.0,40.0,80.0,D,C,93.016,0.516,0.0,
280,,rl_choice_confirmation,,html-keyboard-response,280,763950,0.0-1.0-388.0-0.0,0,0,87963,,,,,,55.0,,2.0,,,,,,,,,,,,,,,,,,,,94.0,0.984,,
281,,isi,,html-keyboard-response,281,765952,0.0-1.0-390.0,0,0,87963,,,,,,55.0,,2.0,,,,,,,,,,,,,,,,,,,,96.0,2.0,,
282,,feedback,,html-keyboard-response,282,766954,0.0-1.0-391.0-0.0,0,0,87963,,,,,,55.0,,2.0,,,,,,,,,,,,,,,,,,,,97.0,1.0,,
283,,iti,,html-keyboard-response,283,768456,0.0-1.0-392.0,0,0,87963,,,,,,55.0,,2.0,,,,,,,,,,,,,,,,,,,,98.5,1.5,,
284,,rl_choice,,html-keyboard-response,284,768882,0.0-1.0-394.0,0,0,87963,,424.0,,,68.0,56.0,56.0,2.0,easy,1000.0,1000.0,1.0,80.0,20.0,80.0,40.0,A,B,/static/Simple_RL/Stimuli/Fractals_stims/A.jpg,/static/Simple_RL/Stimuli/Fractals_stims/B.jpg,1.0,80.0,20.0,80.0,40.0,A,B,98.924,0.424,0.0,
285,,rl_choice_confirmation,,html-keyboard-response,285,769962,0.0-1.0-395.0-0.0,0,0,87963,,,,,,56.0,,2.0,,,,,,,,,,,,,,,,,,,,100.0,1.076,,
286,,isi,,html-keyboard-response,286,770965,0.0-1.0-397.0,0,0,87963,,,,,,56.0,,2.0,,,,,,,,,,,,,,,,,,,,101.0,1.0,,
287,,feedback,,html-keyboard-response,287,771968,0.0-1.0-398.0-0.0,0,0,87963,,,,,,56.0,,2.0,,,,,,,,,,,,,,,,,,,,102.0,1.0,,
288,,iti,,html-keyboard-response,288,772970,0.0-1.0-399.0,0,0,87963,,,,,,56.0,,2.0,,,,,,,,,,,,,,,,,,,,103.0,1.0,,
289,,rl_choice,,html-keyboard-response,289,773367,0.0-1.0-401.0,0,0,87963,,395.0,,,75.0,57.0,57.0,2.0,easy,2000.0,3000.0,1.0,80.0,20.0,60.0,0.0,A,B,/static/Simple_RL/Stimuli/Fractals_stims/A.jpg,/static/Simple_RL/Stimuli/Fractals_stims/B.jpg,0.0,20.0,80.0,0.0,60.0,B,A,103.395,0.395,0.0,
290,,rl_choice_confirmation,,html-keyboard-response,290,774475,0.0-1.0-402.0-0.0,0,0,87963,,,,,,57.0,,2.0,,,,,,,,,,,,,,,,,,,,104.5,1.105,,
291,,isi,,html-keyboard-response,291,777478,0.0-1.0-404.0,0,0,87963,,,,,,57.0,,2.0,,,,,,,,,,,,,,,,,,,,107.5,3.0,,
292,,feedback,,html-keyboard-response,292,778485,0.0-1.0-405.0-0.0,0,0,87963,,,,,,57.0,,2.0,,,,,,,,,,,,,,,,,,,,108.5,1.0,,
293,,iti,,html-keyboard-response,293,780487,0.0-1.0-406.0,0,0,87963,,,,,,57.0,,2.0,,,,,,,,,,,,,,,,,,,,110.5,2.0,,
294,,rl_choice,,html-keyboard-response,294,780939,0.0-1.0-408.0,0,0,87963,,447.0,,,68.0,58.0,58.0,2.0,hard,2000.0,1000.0,1.0,60.0,40.0,40.0,40.0,C,D,/static/Simple_RL/Stimuli/Fractals_stims/C.jpg,/static/Simple_RL/Stimuli/Fractals_stims/D.jpg,1.0,60.0,40.0,40.0,40.0,C,D,110.947,0.447,0.0,
295,,rl_choice_confirmation,,html-keyboard-response,295,781995,0.0-1.0-409.0-0.0,0,0,87963,,,,,,58.0,,2.0,,,,,,,,,,,,,,,,,,,,112.0,1.053,,
296,,isi,,html-keyboard-response,296,782999,0.0-1.0-411.0,0,0,87963,,,,,,58.0,,2.0,,,,,,,,,,,,,,,,,,,,113.0,1.0,,
297,,feedback,,html-keyboard-response,297,784004,0.0-1.0-412.0-0.0,0,0,87963,,,,,,58.0,,2.0,,,,,,,,,,,,,,,,,,,,114.0,1.0,,
298,,iti,,html-keyboard-response,298,786007,0.0-1.0-413.0,0,0,87963,,,,,,58.0,,2.0,,,,,,,,,,,,,,,,,,,,116.0,2.0,,
299,,rl_choice,,html-keyboard-response,299,786502,0.0-1.0-415.0,0,0,87963,,492.0,,,75.0,59.0,59.0,2.0,easy,1000.0,1500.0,1.0,80.0,20.0,80.0,0.0,A,B,/static/Simple_RL/Stimuli/Fractals_stims/A.jpg,/static/Simple_RL/Stimuli/Fractals_stims/B.jpg,0.0,20.0,80.0,0.0,80.0,B,A,116.492,0.492,0.0,
300,,rl_choice_confirmation,,html-keyboard-response,300,787513,0.0-1.0-416.0-0.0,0,0,87963,,,,,,59.0,,2.0,,,,,,,,,,,,,,,,,,,,117.5,1.008,,
301,,isi,,html-keyboard-response,301,789016,0.0-1.0-418.0,0,0,87963,,,,,,59.0,,2.0,,,,,,,,,,,,,,,,,,,,119.0,1.5,,
302,,feedback,,html-keyboard-response,302,790018,0.0-1.0-419.0-0.0,0,0,87963,,,,,,59.0,,2.0,,,,,,,,,,,,,,,,,,,,120.0,1.0,,
303,,iti,,html-keyboard-response,303,791020,0.0-1.0-420.0,0,0,87963,,,,,,59.0,,2.0,,,,,,,,,,,,,,,,,,,,121.0,1.0,,
304,,rl_choice,,html-keyboard-response,304,791537,0.0-1.0-422.0,0,0,87963,,516.0,,,68.0,60.0,60.0,2.0,easy,1000.0,3500.0,1.0,80.0,20.0,80.0,0.0,A,B,/static/Simple_RL/Stimuli/Fractals_stims/A.jpg,/static/Simple_RL/Stimuli/Fractals_stims/B.jpg,1.0,80.0,20.0,80.0,0.0,A,B,121.516,0.516,0.0,
305,,rl_choice_confirmation,,html-keyboard-response,305,792524,0.0-1.0-423.0-0.0,0,0,87963,,,,,,60.0,,2.0,,,,,,,,,,,,,,,,,,,,122.5,0.984,,
306,,isi,,html-keyboard-response,306,796026,0.0-1.0-425.0,0,0,87963,,,,,,60.0,,2.0,,,,,,,,,,,,,,,,,,,,126.0,3.5,,
307,,feedback,,html-keyboard-response,307,797028,0.0-1.0-426.0-0.0,0,0,87963,,,,,,60.0,,2.0,,,,,,,,,,,,,,,,,,,,127.0,1.0,,
308,,iti,,html-keyboard-response,308,798033,0.0-1.0-427.0,0,0,87963,,,,,,60.0,,2.0,,,,,,,,,,,,,,,,,,,,128.0,1.0,,
309,,rl_choice,,html-keyboard-response,309,798619,0.0-1.0-429.0,0,0,87963,,581.0,,,75.0,61.0,61.0,2.0,hard,3000.0,1500.0,0.0,40.0,60.0,40.0,60.0,D,C,/static/Simple_RL/Stimuli/Fractals_stims/D.jpg,/static/Simple_RL/Stimuli/Fractals_stims/C.jpg,0.0,60.0,40.0,60.0,40.0,C,D,128.581,0.581,0.0,
310,,rl_choice_confirmation,,html-keyboard-response,310,799544,0.0-1.0-430.0-0.0,0,0,87963,,,,,,61.0,,2.0,,,,,,,,,,,,,,,,,,,,129.5,0.919,,
311,,isi,,html-keyboard-response,311,801048,0.0-1.0-432.0,0,0,87963,,,,,,61.0,,2.0,,,,,,,,,,,,,,,,,,,,131.0,1.5,,
312,,feedback,,html-keyboard-response,312,802052,0.0-1.0-433.0-0.0,0,0,87963,,,,,,61.0,,2.0,,,,,,,,,,,,,,,,,,,,132.0,1.0,,
313,,iti,,html-keyboard-response,313,805054,0.0-1.0-434.0,0,0,87963,,,,,,61.0,,2.0,,,,,,,,,,,,,,,,,,,,135.0,3.0,,
314,,rl_choice,,html-keyboard-response,314,805916,0.0-1.0-436.0,0,0,87963,,860.0,,,68.0,62.0,62.0,2.0,easy,1000.0,1500.0,0.0,20.0,80.0,40.0,100.0,B,A,/static/Simple_RL/Stimuli/Fractals_stims/B.jpg,/static/Simple_RL/Stimuli/Fractals_stims/A.jpg,1.0,20.0,80.0,40.0,100.0,B,A,135.86,0.86,0.0,
315,,rl_choice_confirmation,,html-keyboard-response,315,806559,0.0-1.0-437.0-0.0,0,0,87963,,,,,,62.0,,2.0,,,,,,,,,,,,,,,,,,,,136.5,0.64,,
316,,isi,,html-keyboard-response,316,808061,0.0-1.0-439.0,0,0,87963,,,,,,62.0,,2.0,,,,,,,,,,,,,,,,,,,,138.0,1.5,,
317,,feedback,,html-keyboard-response,317,809070,0.0-1.0-440.0-0.0,0,0,87963,,,,,,62.0,,2.0,,,,,,,,,,,,,,,,,,,,139.0,1.0,,
318,,iti,,html-keyboard-response,318,810072,0.0-1.0-441.0,0,0,87963,,,,,,62.0,,2.0,,,,,,,,,,,,,,,,,,,,140.0,1.0,,
319,,rl_choice,,html-keyboard-response,319,810803,0.0-1.0-443.0,0,0,87963,,729.0,,,75.0,63.0,63.0,2.0,easy,2000.0,1500.0,1.0,80.0,20.0,60.0,0.0,A,B,/static/Simple_RL/Stimuli/Fractals_stims/A.jpg,/static/Simple_RL/Stimuli/Fractals_stims/B.jpg,0.0,20.0,80.0,0.0,60.0,B,A,140.729,0.729,0.0,
320,,rl_choice_confirmation,,html-keyboard-response,320,811576,0.0-1.0-444.0-0.0,0,0,87963,,,,,,63.0,,2.0,,,,,,,,,,,,,,,,,,,,141.5,0.771,,
321,,isi,,html-keyboard-response,321,813078,0.0-1.0-446.0,0,0,87963,,,,,,63.0,,2.0,,,,,,,,,,,,,,,,,,,,143.0,1.5,,
322,,feedback,,html-keyboard-response,322,814082,0.0-1.0-447.0-0.0,0,0,87963,,,,,,63.0,,2.0,,,,,,,,,,,,,,,,,,,,144.0,1.0,,
323,,iti,,html-keyboard-response,323,816084,0.0-1.0-448.0,0,0,87963,,,,,,63.0,,2.0,,,,,,,,,,,,,,,,,,,,146.0,2.0,,
324,,rl_choice,,html-keyboard-response,324,816520,0.0-1.0-450.0,0,0,87963,,432.0,,,68.0,64.0,64.0,2.0,hard,1500.0,1000.0,0.0,40.0,60.0,40.0,60.0,D,C,/static/Simple_RL/Stimuli/Fractals_stims/D.jpg,/static/Simple_RL/Stimuli/Fractals_stims/C.jpg,1.0,40.0,60.0,40.0,60.0,D,C,146.432,0.432,0.0,
325,,rl_choice_confirmation,,html-keyboard-response,325,817593,0.0-1.0-451.0-0.0,0,0,87963,,,,,,64.0,,2.0,,,,,,,,,,,,,,,,,,,,147.5,1.068,,
326,,isi,,html-keyboard-response,326,818595,0.0-1.0-453.0,0,0,87963,,,,,,64.0,,2.0,,,,,,,,,,,,,,,,,,,,148.5,1.0,,
327,,feedback,,html-keyboard-response,327,819601,0.0-1.0-454.0-0.0,0,0,87963,,,,,,64.0,,2.0,,,,,,,,,,,,,,,,,,,,149.5,1.0,,
328,,iti,,html-keyboard-response,328,821105,0.0-1.0-455.0,0,0,87963,,,,,,64.0,,2.0,,,,,,,,,,,,,,,,,,,,151.0,1.5,,
329,,rl_choice,,html-keyboard-response,329,821504,0.0-1.0-457.0,0,0,87963,,395.0,,,75.0,65.0,65.0,2.0,hard,1000.0,1000.0,0.0,40.0,60.0,60.0,80.0,D,C,/static/Simple_RL/Stimuli/Fractals_stims/D.jpg,/static/Simple_RL/Stimuli/Fractals_stims/C.jpg,0.0,60.0,40.0,80.0,60.0,C,D,151.395,0.395,0.0,
330,,rl_choice_confirmation,,html-keyboard-response,330,822617,0.0-1.0-458.0-0.0,0,0,87963,,,,,,65.0,,2.0,,,,,,,,,,,,,,,,,,,,152.5,1.105,,
331,,isi,,html-keyboard-response,331,823621,0.0-1.0-460.0,0,0,87963,,,,,,65.0,,2.0,,,,,,,,,,,,,,,,,,,,153.5,1.0,,
332,,feedback,,html-keyboard-response,332,824625,0.0-1.0-461.0-0.0,0,0,87963,,,,,,65.0,,2.0,,,,,,,,,,,,,,,,,,,,154.5,1.0,,
333,,iti,,html-keyboard-response,333,825631,0.0-1.0-462.0,0,0,87963,,,,,,65.0,,2.0,,,,,,,,,,,,,,,,,,,,155.5,1.0,,
334,,rl_choice,,html-keyboard-response,334,826064,0.0-1.0-464.0,0,0,87963,,428.0,,,68.0,66.0,66.0,2.0,easy,2000.0,1500.0,1.0,80.0,20.0,80.0,0.0,A,B,/static/Simple_RL/Stimuli/Fractals_stims/A.jpg,/static/Simple_RL/Stimuli/Fractals_stims/B.jpg,1.0,80.0,20.0,80.0,0.0,A,B,155.928,0.428,0.0,
335,,rl_choice_confirmation,,html-keyboard-response,335,827139,0.0-1.0-465.0-0.0,0,0,87963,,,,,,66.0,,2.0,,,,,,,,,,,,,,,,,,,,157.0,1.072,,
336,,isi,,html-keyboard-response,336,828641,0.0-1.0-467.0,0,0,87963,,,,,,66.0,,2.0,,,,,,,,,,,,,,,,,,,,158.5,1.5,,
337,,feedback,,html-keyboard-response,337,829643,0.0-1.0-468.0-0.0,0,0,87963,,,,,,66.0,,2.0,,,,,,,,,,,,,,,,,,,,159.5,1.0,,
338,,iti,,html-keyboard-response,338,831646,0.0-1.0-469.0,0,0,87963,,,,,,66.0,,2.0,,,,,,,,,,,,,,,,,,,,161.5,2.0,,
339,,rl_choice,,html-keyboard-response,339,832031,0.0-1.0-471.0,0,0,87963,,382.0,,,75.0,67.0,67.0,2.0,easy,1000.0,1000.0,0.0,20.0,80.0,40.0,80.0,B,A,/static/Simple_RL/Stimuli/Fractals_stims/B.jpg,/static/Simple_RL/Stimuli/Fractals_stims/A.jpg,0.0,80.0,20.0,80.0,40.0,A,B,161.882,0.382,0.0,
340,,rl_choice_confirmation,,html-keyboard-response,340,833152,0.0-1.0-472.0-0.0,0,0,87963,,,,,,67.0,,2.0,,,,,,,,,,,,,,,,,,,,163.0,1.118,,
341,,isi,,html-keyboard-response,341,834154,0.0-1.0-474.0,0,0,87963,,,,,,67.0,,2.0,,,,,,,,,,,,,,,,,,,,164.0,1.0,,
342,,feedback,,html-keyboard-response,342,835157,0.0-1.0-475.0-0.0,0,0,87963,,,,,,67.0,,2.0,,,,,,,,,,,,,,,,,,,,165.0,1.0,,
343,,iti,,html-keyboard-response,343,836159,0.0-1.0-476.0,0,0,87963,,,,,,67.0,,2.0,,,,,,,,,,,,,,,,,,,,166.0,1.0,,
344,,rl_choice,,html-keyboard-response,344,836511,0.0-1.0-478.0,0,0,87963,,344.0,,,68.0,68.0,68.0,2.0,hard,1000.0,1500.0,1.0,60.0,40.0,40.0,60.0,C,D,/static/Simple_RL/Stimuli/Fractals_stims/C.jpg,/static/Simple_RL/Stimuli/Fractals_stims/D.jpg,1.0,60.0,40.0,40.0,60.0,C,D,166.344,0.344,0.0,
345,,rl_choice_confirmation,,html-keyboard-response,345,837676,0.0-1.0-479.0-0.0,0,0,87963,,,,,,68.0,,2.0,,,,,,,,,,,,,,,,,,,,167.5,1.156,,
346,,isi,,html-keyboard-response,346,839183,0.0-1.0-481.0,0,0,87963,,,,,,68.0,,2.0,,,,,,,,,,,,,,,,,,,,169.0,1.5,,
347,,feedback,,html-keyboard-response,347,840185,0.0-1.0-482.0-0.0,0,0,87963,,,,,,68.0,,2.0,,,,,,,,,,,,,,,,,,,,170.0,1.0,,
348,,iti,,html-keyboard-response,348,841187,0.0-1.0-483.0,0,0,87963,,,,,,68.0,,2.0,,,,,,,,,,,,,,,,,,,,171.0,1.0,,
349,,rl_choice,,html-keyboard-response,349,841738,0.0-1.0-485.0,0,0,87963,,547.0,,,75.0,69.0,69.0,2.0,hard,1000.0,3000.0,1.0,60.0,40.0,40.0,20.0,C,D,/static/Simple_RL/Stimuli/Fractals_stims/C.jpg,/static/Simple_RL/Stimuli/Fractals_stims/D.jpg,0.0,40.0,60.0,20.0,40.0,D,C,171.547,0.547,0.0,
350,,rl_choice_confirmation,,html-keyboard-response,350,842695,0.0-1.0-486.0-0.0,0,0,87963,,,,,,69.0,,2.0,,,,,,,,,,,,,,,,,,,,172.5,0.953,,
351,,isi,,html-keyboard-response,351,845700,0.0-1.0-488.0,0,0,87963,,,,,,69.0,,2.0,,,,,,,,,,,,,,,,,,,,175.5,3.0,,
352,,feedback,,html-keyboard-response,352,846703,0.0-1.0-489.0-0.0,0,0,87963,,,,,,69.0,,2.0,,,,,,,,,,,,,,,,,,,,176.5,1.0,,
353,,iti,,html-keyboard-response,353,847705,0.0-1.0-490.0,0,0,87963,,,,,,69.0,,2.0,,,,,,,,,,,,,,,,,,,,177.5,1.0,,
354,,rl_choice,,html-keyboard-response,354,848018,0.0-1.0-492.0,0,0,87963,,309.0,,,75.0,70.0,70.0,2.0,hard,1000.0,1000.0,0.0,40.0,60.0,40.0,60.0,D,C,/static/Simple_RL/Stimuli/Fractals_stims/D.jpg,/static/Simple_RL/Stimuli/Fractals_stims/C.jpg,0.0,60.0,40.0,60.0,40.0,C,D,177.809,0.309,0.0,
355,,rl_choice_confirmation,,html-keyboard-response,355,849215,0.0-1.0-493.0-0.0,0,0,87963,,,,,,70.0,,2.0,,,,,,,,,,,,,,,,,,,,179.0,1.191,,
356,,isi,,html-keyboard-response,356,850234,0.0-1.0-495.0,0,0,87963,,,,,,70.0,,2.0,,,,,,,,,,,,,,,,,,,,180.0,1.0,,
357,,feedback,,html-keyboard-response,357,851239,0.0-1.0-496.0-0.0,0,0,87963,,,,,,70.0,,2.0,,,,,,,,,,,,,,,,,,,,181.0,1.0,,
358,,iti,,html-keyboard-response,358,852241,0.0-1.0-497.0,0,0,87963,,,,,,70.0,,2.0,,,,,,,,,,,,,,,,,,,,182.0,1.0,,
359,,rl_choice,,html-keyboard-response,359,852840,0.0-1.0-499.0,0,0,87963,,597.0,,,68.0,71.0,71.0,2.0,easy,2000.0,1000.0,0.0,20.0,80.0,20.0,100.0,B,A,/static/Simple_RL/Stimuli/Fractals_stims/B.jpg,/static/Simple_RL/Stimuli/Fractals_stims/A.jpg,1.0,20.0,80.0,20.0,100.0,B,A,182.597,0.597,0.0,
360,,rl_choice_confirmation,,html-keyboard-response,360,853760,0.0-1.0-500.0-0.0,0,0,87963,,,,,,71.0,,2.0,,,,,,,,,,,,,,,,,,,,183.5,0.903,,
361,,isi,,html-keyboard-response,361,854766,0.0-1.0-502.0,0,0,87963,,,,,,71.0,,2.0,,,,,,,,,,,,,,,,,,,,184.5,1.0,,
362,,feedback,,html-keyboard-response,362,855768,0.0-1.0-503.0-0.0,0,0,87963,,,,,,71.0,,2.0,,,,,,,,,,,,,,,,,,,,185.5,1.0,,
363,,iti,,html-keyboard-response,363,857770,0.0-1.0-504.0,0,0,87963,,,,,,71.0,,2.0,,,,,,,,,,,,,,,,,,,,187.5,2.0,,
364,,rl_choice,,html-keyboard-response,364,858177,0.0-1.0-506.0,0,0,87963,,404.0,,,75.0,72.0,72.0,2.0,easy,1500.0,1000.0,0.0,20.0,80.0,20.0,60.0,B,A,/static/Simple_RL/Stimuli/Fractals_stims/B.jpg,/static/Simple_RL/Stimuli/Fractals_stims/A.jpg,0.0,80.0,20.0,60.0,20.0,A,B,187.904,0.404,0.0,
365,,rl_choice_confirmation,,html-keyboard-response,365,859276,0.0-1.0-507.0-0.0,0,0,87963,,,,,,72.0,,2.0,,,,,,,,,,,,,,,,,,,,189.0,1.096,,
366,,isi,,html-keyboard-response,366,860278,0.0-1.0-509.0,0,0,87963,,,,,,72.0,,2.0,,,,,,,,,,,,,,,,,,,,190.0,1.0,,
367,,feedback,,html-keyboard-response,367,861285,0.0-1.0-510.0-0.0,0,0,87963,,,,,,72.0,,2.0,,,,,,,,,,,,,,,,,,,,191.0,1.0,,
368,,iti,,html-keyboard-response,368,862787,0.0-1.0-511.0,0,0,87963,,,,,,72.0,,2.0,,,,,,,,,,,,,,,,,,,,192.5,1.5,,
369,,rl_choice,,html-keyboard-response,369,863217,0.0-1.0-513.0,0,0,87963,,427.0,,,75.0,73.0,73.0,2.0,easy,1500.0,2000.0,0.0,20.0,80.0,20.0,80.0,B,A,/static/Simple_RL/Stimuli/Fractals_stims/B.jpg,/static/Simple_RL/Stimuli/Fractals_stims/A.jpg,0.0,80.0,20.0,80.0,20.0,A,B,192.927,0.427,0.0,
370,,rl_choice_confirmation,,html-keyboard-response,370,864293,0.0-1.0-514.0-0.0,0,0,87963,,,,,,73.0,,2.0,,,,,,,,,,,,,,,,,,,,194.0,1.073,,
371,,isi,,html-keyboard-response,371,866300,0.0-1.0-516.0,0,0,87963,,,,,,73.0,,2.0,,,,,,,,,,,,,,,,,,,,196.0,2.0,,
372,,feedback,,html-keyboard-response,372,867303,0.0-1.0-517.0-0.0,0,0,87963,,,,,,73.0,,2.0,,,,,,,,,,,,,,,,,,,,197.0,1.0,,
373,,iti,,html-keyboard-response,373,868805,0.0-1.0-518.0,0,0,87963,,,,,,73.0,,2.0,,,,,,,,,,,,,,,,,,,,198.5,1.5,,
374,,rl_choice,,html-keyboard-response,374,869513,0.0-1.0-520.0,0,0,87963,,703.0,,,68.0,74.0,74.0,2.0,hard,1000.0,1500.0,1.0,60.0,40.0,40.0,60.0,C,D,/static/Simple_RL/Stimuli/Fractals_stims/C.jpg,/static/Simple_RL/Stimuli/Fractals_stims/D.jpg,1.0,60.0,40.0,40.0,60.0,C,D,199.203,0.703,0.0,
375,,rl_choice_confirmation,,html-keyboard-response,375,870315,0.0-1.0-521.0-0.0,0,0,87963,,,,,,74.0,,2.0,,,,,,,,,,,,,,,,,,,,200.0,0.797,,
376,,isi,,html-keyboard-response,376,871817,0.0-1.0-523.0,0,0,87963,,,,,,74.0,,2.0,,,,,,,,,,,,,,,,,,,,201.5,1.5,,
377,,feedback,,html-keyboard-response,377,872820,0.0-1.0-524.0-0.0,0,0,87963,,,,,,74.0,,2.0,,,,,,,,,,,,,,,,,,,,202.5,1.0,,
378,,iti,,html-keyboard-response,378,873822,0.0-1.0-525.0,0,0,87963,,,,,,74.0,,2.0,,,,,,,,,,,,,,,,,,,,203.5,1.0,,
379,,rl_choice,,html-keyboard-response,379,875327,0.0-1.0-527.0,0,0,87963,,,,,,75.0,75.0,2.0,hard,1000.0,1500.0,1.0,60.0,40.0,60.0,20.0,C,D,/static/Simple_RL/Stimuli/Fractals_stims/C.jpg,/static/Simple_RL/Stimuli/Fractals_stims/D.jpg,,,,,,,,205.0,1.5,1.0,
380,,rl_choice_warning,,html-keyboard-response,380,876335,0.0-1.0-529.0-0.0,1,0,87963,,,,,,75.0,,2.0,,,,,,,,,,,,,,,,,,,,206.0,1.0,,
381,,isi,,html-keyboard-response,381,877837,0.0-1.0-530.0,0,0,87963,,,,,,75.0,,2.0,,,,,,,,,,,,,,,,,,,,207.5,1.5,,
382,,iti,,html-keyboard-response,382,878839,0.0-1.0-532.0,0,0,87963,,,,,,75.0,,2.0,,,,,,,,,,,,,,,,,,,,208.5,1.0,,
383,,rl_choice,,html-keyboard-response,383,879417,0.0-1.0-534.0,0,0,87963,,574.0,,,75.0,76.0,76.0,2.0,hard,3000.0,1000.0,1.0,60.0,40.0,40.0,60.0,C,D,/static/Simple_RL/Stimuli/Fractals_stims/C.jpg,/static/Simple_RL/Stimuli/Fractals_stims/D.jpg,0.0,40.0,60.0,60.0,40.0,D,C,209.074,0.574,0.0,
384,,rl_choice_confirmation,,html-keyboard-response,384,880348,0.0-1.0-535.0-0.0,0,0,87963,,,,,,76.0,,2.0,,,,,,,,,,,,,,,,,,,,210.0,0.926,,
385,,isi,,html-keyboard-response,385,881350,0.0-1.0-537.0,0,0,87963,,,,,,76.0,,2.0,,,,,,,,,,,,,,,,,,,,211.0,1.0,,
386,,feedback,,html-keyboard-response,386,882353,0.0-1.0-538.0-0.0,0,0,87963,,,,,,76.0,,2.0,,,,,,,,,,,,,,,,,,,,212.0,1.0,,
387,,iti,,html-keyboard-response,387,885355,0.0-1.0-539.0,0,0,87963,,,,,,76.0,,2.0,,,,,,,,,,,,,,,,,,,,215.0,3.0,,
388,,rl_choice,,html-keyboard-response,388,885712,0.0-1.0-541.0,0,0,87963,,351.0,,,75.0,77.0,77.0,2.0,easy,1000.0,1000.0,0.0,20.0,80.0,20.0,60.0,B,A,/static/Simple_RL/Stimuli/Fractals_stims/B.jpg,/static/Simple_RL/Stimuli/Fractals_stims/A.jpg,0.0,80.0,20.0,60.0,20.0,A,B,215.351,0.351,0.0,
389,,rl_choice_confirmation,,html-keyboard-response,389,886865,0.0-1.0-542.0-0.0,0,0,87963,,,,,,77.0,,2.0,,,,,,,,,,,,,,,,,,,,216.5,1.149,,
390,,isi,,html-keyboard-response,390,887867,0.0-1.0-544.0,0,0,87963,,,,,,77.0,,2.0,,,,,,,,,,,,,,,,,,,,217.5,1.0,,
391,,feedback,,html-keyboard-response,391,888869,0.0-1.0-545.0-0.0,0,0,87963,,,,,,77.0,,2.0,,,,,,,,,,,,,,,,,,,,218.5,1.0,,
392,,iti,,html-keyboard-response,392,889871,0.0-1.0-546.0,0,0,87963,,,,,,77.0,,2.0,,,,,,,,,,,,,,,,,,,,219.5,1.0,,
393,,rl_choice,,html-keyboard-response,393,890470,0.0-1.0-548.0,0,0,87963,,597.0,,,75.0,78.0,78.0,2.0,easy,3000.0,1000.0,0.0,20.0,80.0,0.0,100.0,B,A,/static/Simple_RL/Stimuli/Fractals_stims/B.jpg,/static/Simple_RL/Stimuli/Fractals_stims/A.jpg,0.0,80.0,20.0,100.0,0.0,A,B,220.097,0.597,0.0,
394,,rl_choice_confirmation,,html-keyboard-response,394,891381,0.0-1.0-549.0-0.0,0,0,87963,,,,,,78.0,,2.0,,,,,,,,,,,,,,,,,,,,221.0,0.903,,
395,,isi,,html-keyboard-response,395,892383,0.0-1.0-551.0,0,0,87963,,,,,,78.0,,2.0,,,,,,,,,,,,,,,,,,,,222.0,1.0,,
396,,feedback,,html-keyboard-response,396,893386,0.0-1.0-552.0-0.0,0,0,87963,,,,,,78.0,,2.0,,,,,,,,,,,,,,,,,,,,223.0,1.0,,
397,,iti,,html-keyboard-response,397,896388,0.0-1.0-553.0,0,0,87963,,,,,,78.0,,2.0,,,,,,,,,,,,,,,,,,,,226.0,3.0,,
398,,rl_choice,,html-keyboard-response,398,896894,0.0-1.0-555.0,0,0,87963,,503.0,,,68.0,79.0,79.0,2.0,hard,2000.0,1500.0,1.0,60.0,40.0,60.0,40.0,C,D,/static/Simple_RL/Stimuli/Fractals_stims/C.jpg,/static/Simple_RL/Stimuli/Fractals_stims/D.jpg,1.0,60.0,40.0,60.0,40.0,C,D,226.503,0.503,0.0,
399,,rl_choice_confirmation,,html-keyboard-response,399,897895,0.0-1.0-556.0-0.0,0,0,87963,,,,,,79.0,,2.0,,,,,,,,,,,,,,,,,,,,227.5,0.997,,
400,,isi,,html-keyboard-response,400,899403,0.0-1.0-558.0,0,0,87963,,,,,,79.0,,2.0,,,,,,,,,,,,,,,,,,,,229.0,1.5,,
401,,feedback,,html-keyboard-response,401,900408,0.0-1.0-559.0-0.0,0,0,87963,,,,,,79.0,,2.0,,,,,,,,,,,,,,,,,,,,230.0,1.0,,
402,,iti,,html-keyboard-response,402,902410,0.0-1.0-560.0,0,0,87963,,,,,,79.0,,2.0,,,,,,,,,,,,,,,,,,,,232.0,2.0,,0.82
403,,final_tally,,html-keyboard-response,403,905441,0.0-2.0,0,0,87963,,3029.0,,,68.0,,,,,,,,,,,,,,,,,,,,,,,,,,
