,success,ttype,start_time,trial_type,trial_index,time_elapsed,internal_node_id,warning,missed_checkup,PID,view_history,rt,responses,repeat_instructions,key_press,index,trial_num,block,condition,iti,isi,high_group_on_left,left_group_value,right_group_value,left_item_value,right_item_value,left_img,right_img,left_img_path,right_img_path,left_chosen,chosen_group_value,unchosen_group_value,chosen_item_value,unchosen_item_value,chosen_img,unchosen_img,onset,duration,no_response,total_bonus_tally
0,True,full_screen,d06012022hr2034,fullscreen,0,4995,0.0-0.0,0,0,50795,,,,,,,,,,,,,,,,,,,,,,,,,,,,,,,
1,,size_instructions,,instructions,1,8093,0.0-1.0-0.0-0.0,0,0,50795,"[{""page_index"":0,""viewing_time"":1429},{""page_index"":1,""viewing_time"":333},{""page_index"":2,""viewing_time"":217},{""page_index"":3,""viewing_time"":234},{""page_index"":4,""viewing_time"":549},{""page_index"":5,""viewing_time"":335}]",3097.0,,,,,,,,,,,,,,,,,,,,,,,,,,,,,
2,,rl_comprehension_check,,survey-multi-choice,2,12893,0.0-1.0-0.0-1.0,0,0,50795,,4798.0,"{""Q0"":""True"",""Q1"":""True"",""Q2"":""D for left and K for right""}",0.0,,,,,,,,,,,,,,,,,,,,,,,,,,,
3,,,,html-keyboard-response,3,13790,0.0-1.0-1.0,0,0,50795,,893.0,,,68.0,,,,,,,,,,,,,,,,,,,,,,,,,,
4,,rl_choice,,html-keyboard-response,4,14052,0.0-1.0-2.0,0,0,50795,,260.0,,,68.0,0.0,0.0,1.0,hard,2000.0,1000.0,0.0,40.0,60.0,60.0,40.0,D,C,/static/Simple_RL/Stimuli/Fractals_stims/D.jpg,/static/Simple_RL/Stimuli/Fractals_stims/C.jpg,1.0,40.0,60.0,60.0,40.0,D,C,0.26,0.26,0.0,
5,,rl_choice_confirmation,,html-keyboard-response,5,15294,0.0-1.0-3.0-0.0,0,0,50795,,,,,,0.0,,,,,,,,,,,,,,,,,,,,,,1.5,1.24,,
6,,isi,,html-keyboard-response,6,15396,0.0-1.0-5.0,0,0,50795,,,,,,,,,,,,,,,,,,,,,,,,,,,,2.5,1.0,,
7,,feedback,,html-keyboard-response,7,16398,0.0-1.0-6.0-0.0,0,0,50795,,,,,,0.0,,,,,,,,,,,,,,,,,,,,,,3.5,1.0,,
8,,iti,,html-keyboard-response,8,16499,0.0-1.0-7.0,0,0,50795,,,,,,,,,,,,,,,,,,,,,,,,,,,,5.5,2.0,,
9,,rl_choice,,html-keyboard-response,9,16568,0.0-1.0-9.0,0,0,50795,,68.0,,,75.0,1.0,1.0,1.0,hard,1000.0,1000.0,0.0,40.0,60.0,20.0,40.0,D,C,/static/Simple_RL/Stimuli/Fractals_stims/D.jpg,/static/Simple_RL/Stimuli/Fractals_stims/C.jpg,0.0,60.0,40.0,40.0,20.0,C,D,5.568,0.068,0.0,
10,,rl_choice_confirmation,,html-keyboard-response,10,18004,0.0-1.0-10.0-0.0,0,0,50795,,,,,,1.0,,,,,,,,,,,,,,,,,,,,,,7.0,1.432,,
11,,isi,,html-keyboard-response,11,18104,0.0-1.0-12.0,0,0,50795,,,,,,,,,,,,,,,,,,,,,,,,,,,,8.0,1.0,,
12,,feedback,,html-keyboard-response,12,19107,0.0-1.0-13.0-0.0,0,0,50795,,,,,,1.0,,,,,,,,,,,,,,,,,,,,,,9.0,1.0,,
13,,iti,,html-keyboard-response,13,19209,0.0-1.0-14.0,0,0,50795,,,,,,,,,,,,,,,,,,,,,,,,,,,,10.0,1.0,,
14,,rl_choice,,html-keyboard-response,14,19359,0.0-1.0-16.0,0,0,50795,,149.0,,,68.0,2.0,2.0,1.0,easy,1000.0,1000.0,0.0,20.0,80.0,40.0,60.0,B,A,/static/Simple_RL/Stimuli/Fractals_stims/B.jpg,/static/Simple_RL/Stimuli/Fractals_stims/A.jpg,1.0,20.0,80.0,40.0,60.0,B,A,10.149,0.149,0.0,
15,,rl_choice_confirmation,,html-keyboard-response,15,20712,0.0-1.0-17.0-0.0,0,0,50795,,,,,,2.0,,,,,,,,,,,,,,,,,,,,,,11.5,1.351,,
16,,isi,,html-keyboard-response,16,20816,0.0-1.0-19.0,0,0,50795,,,,,,,,,,,,,,,,,,,,,,,,,,,,12.5,1.0,,
17,,feedback,,html-keyboard-response,17,21820,0.0-1.0-20.0-0.0,0,0,50795,,,,,,2.0,,,,,,,,,,,,,,,,,,,,,,13.5,1.0,,
18,,iti,,html-keyboard-response,18,21922,0.0-1.0-21.0,0,0,50795,,,,,,,,,,,,,,,,,,,,,,,,,,,,14.5,1.0,,
19,,rl_choice,,html-keyboard-response,19,23427,0.0-1.0-23.0,0,0,50795,,,,,,3.0,3.0,1.0,easy,3000.0,3000.0,1.0,80.0,20.0,100.0,40.0,A,B,/static/Simple_RL/Stimuli/Fractals_stims/A.jpg,/static/Simple_RL/Stimuli/Fractals_stims/B.jpg,,,,,,,,16.0,1.5,1.0,
20,,rl_choice_warning,,html-keyboard-response,20,24431,0.0-1.0-25.0-0.0,0,0,50795,,,,,,,,,,,,,,,,,,,,,,,,,,,,17.0,1.0,,
21,,isi,,html-keyboard-response,21,24533,0.0-1.0-26.0,0,0,50795,,,,,,,,,,,,,,,,,,,,,,,,,,,,20.0,3.0,,
22,,iti,,html-keyboard-response,22,24638,0.0-1.0-28.0,0,0,50795,,,,,,,,,,,,,,,,,,,,,,,,,,,,23.0,3.0,,
23,,rl_choice,,html-keyboard-response,23,26143,0.0-1.0-30.0,0,0,50795,,,,,,4.0,4.0,1.0,hard,1000.0,1000.0,0.0,40.0,60.0,40.0,80.0,D,C,/static/Simple_RL/Stimuli/Fractals_stims/D.jpg,/static/Simple_RL/Stimuli/Fractals_stims/C.jpg,,,,,,,,24.5,1.5,1.0,
24,,rl_choice_warning,,html-keyboard-response,24,27148,0.0-1.0-32.0-0.0,0,0,50795,,,,,,,,,,,,,,,,,,,,,,,,,,,,25.5,1.0,,
25,,isi,,html-keyboard-response,25,27254,0.0-1.0-33.0,0,0,50795,,,,,,,,,,,,,,,,,,,,,,,,,,,,26.5,1.0,,
26,,iti,,html-keyboard-response,26,27355,0.0-1.0-35.0,0,0,50795,,,,,,,,,,,,,,,,,,,,,,,,,,,,27.5,1.0,,
27,,rl_choice,,html-keyboard-response,27,28859,0.0-1.0-37.0,0,0,50795,,,,,,5.0,5.0,1.0,hard,3000.0,1000.0,1.0,60.0,40.0,60.0,60.0,C,D,/static/Simple_RL/Stimuli/Fractals_stims/C.jpg,/static/Simple_RL/Stimuli/Fractals_stims/D.jpg,,,,,,,,29.0,1.5,1.0,
28,,rl_choice_warning,,html-keyboard-response,28,29862,0.0-1.0-39.0-0.0,0,0,50795,,,,,,,,,,,,,,,,,,,,,,,,,,,,30.0,1.0,,
29,,isi,,html-keyboard-response,29,29966,0.0-1.0-40.0,0,0,50795,,,,,,,,,,,,,,,,,,,,,,,,,,,,31.0,1.0,,
30,,iti,,html-keyboard-response,30,30071,0.0-1.0-42.0,0,0,50795,,,,,,,,,,,,,,,,,,,,,,,,,,,,34.0,3.0,,
31,,rl_choice,,html-keyboard-response,31,31577,0.0-1.0-44.0,0,0,50795,,,,,,6.0,6.0,1.0,easy,1000.0,2000.0,0.0,20.0,80.0,40.0,100.0,B,A,/static/Simple_RL/Stimuli/Fractals_stims/B.jpg,/static/Simple_RL/Stimuli/Fractals_stims/A.jpg,,,,,,,,35.5,1.5,1.0,
32,,rl_choice_warning,,html-keyboard-response,32,32579,0.0-1.0-46.0-0.0,0,0,50795,,,,,,,,,,,,,,,,,,,,,,,,,,,,36.5,1.0,,
33,,isi,,html-keyboard-response,33,32685,0.0-1.0-47.0,0,0,50795,,,,,,,,,,,,,,,,,,,,,,,,,,,,38.5,2.0,,
34,,iti,,html-keyboard-response,34,32790,0.0-1.0-49.0,0,0,50795,,,,,,,,,,,,,,,,,,,,,,,,,,,,39.5,1.0,,
35,,rl_choice,,html-keyboard-response,35,34297,0.0-1.0-51.0,0,0,50795,,,,,,7.0,7.0,1.0,hard,3000.0,1500.0,0.0,40.0,60.0,20.0,80.0,D,C,/static/Simple_RL/Stimuli/Fractals_stims/D.jpg,/static/Simple_RL/Stimuli/Fractals_stims/C.jpg,,,,,,,,41.0,1.5,1.0,
36,,rl_choice_warning,,html-keyboard-response,36,35302,0.0-1.0-53.0-0.0,0,0,50795,,,,,,,,,,,,,,,,,,,,,,,,,,,,42.0,1.0,,
37,,isi,,html-keyboard-response,37,35405,0.0-1.0-54.0,0,0,50795,,,,,,,,,,,,,,,,,,,,,,,,,,,,43.5,1.5,,
38,,iti,,html-keyboard-response,38,35509,0.0-1.0-56.0,0,0,50795,,,,,,,,,,,,,,,,,,,,,,,,,,,,46.5,3.0,,
39,,rl_choice,,html-keyboard-response,39,37011,0.0-1.0-58.0,0,0,50795,,,,,,8.0,8.0,1.0,easy,1000.0,1000.0,0.0,20.0,80.0,0.0,100.0,B,A,/static/Simple_RL/Stimuli/Fractals_stims/B.jpg,/static/Simple_RL/Stimuli/Fractals_stims/A.jpg,,,,,,,,48.0,1.5,1.0,
40,,rl_choice_warning,,html-keyboard-response,40,38016,0.0-1.0-60.0-0.0,0,0,50795,,,,,,,,,,,,,,,,,,,,,,,,,,,,49.0,1.0,,
41,,isi,,html-keyboard-response,41,38121,0.0-1.0-61.0,0,0,50795,,,,,,,,,,,,,,,,,,,,,,,,,,,,50.0,1.0,,
42,,iti,,html-keyboard-response,42,38224,0.0-1.0-63.0,0,0,50795,,,,,,,,,,,,,,,,,,,,,,,,,,,,51.0,1.0,,
43,,rl_choice,,html-keyboard-response,43,39726,0.0-1.0-65.0,0,0,50795,,,,,,9.0,9.0,1.0,hard,1500.0,2000.0,1.0,60.0,40.0,60.0,40.0,C,D,/static/Simple_RL/Stimuli/Fractals_stims/C.jpg,/static/Simple_RL/Stimuli/Fractals_stims/D.jpg,,,,,,,,52.5,1.5,1.0,
44,,rl_choice_warning,,html-keyboard-response,44,40731,0.0-1.0-67.0-0.0,0,0,50795,,,,,,,,,,,,,,,,,,,,,,,,,,,,53.5,1.0,,
45,,isi,,html-keyboard-response,45,40835,0.0-1.0-68.0,0,0,50795,,,,,,,,,,,,,,,,,,,,,,,,,,,,55.5,2.0,,
46,,iti,,html-keyboard-response,46,40937,0.0-1.0-70.0,0,0,50795,,,,,,,,,,,,,,,,,,,,,,,,,,,,57.0,1.5,,
47,,rl_choice,,html-keyboard-response,47,42441,0.0-1.0-72.0,0,0,50795,,,,,,10.0,10.0,1.0,easy,1000.0,1000.0,1.0,80.0,20.0,60.0,0.0,A,B,/static/Simple_RL/Stimuli/Fractals_stims/A.jpg,/static/Simple_RL/Stimuli/Fractals_stims/B.jpg,,,,,,,,58.5,1.5,1.0,
48,,rl_choice_warning,,html-keyboard-response,48,43444,0.0-1.0-74.0-0.0,0,0,50795,,,,,,,,,,,,,,,,,,,,,,,,,,,,59.5,1.0,,
49,,isi,,html-keyboard-response,49,43549,0.0-1.0-75.0,0,0,50795,,,,,,,,,,,,,,,,,,,,,,,,,,,,60.5,1.0,,
50,,iti,,html-keyboard-response,50,43654,0.0-1.0-77.0,0,0,50795,,,,,,,,,,,,,,,,,,,,,,,,,,,,61.5,1.0,,
51,,rl_choice,,html-keyboard-response,51,45160,0.0-1.0-79.0,0,0,50795,,,,,,11.0,11.0,1.0,hard,3500.0,1000.0,0.0,40.0,60.0,20.0,60.0,D,C,/static/Simple_RL/Stimuli/Fractals_stims/D.jpg,/static/Simple_RL/Stimuli/Fractals_stims/C.jpg,,,,,,,,63.0,1.5,1.0,
52,,rl_choice_warning,,html-keyboard-response,52,46165,0.0-1.0-81.0-0.0,0,0,50795,,,,,,,,,,,,,,,,,,,,,,,,,,,,64.0,1.0,,
53,,isi,,html-keyboard-response,53,46271,0.0-1.0-82.0,0,0,50795,,,,,,,,,,,,,,,,,,,,,,,,,,,,65.0,1.0,,
54,,iti,,html-keyboard-response,54,46377,0.0-1.0-84.0,0,0,50795,,,,,,,,,,,,,,,,,,,,,,,,,,,,68.5,3.5,,
55,,rl_choice,,html-keyboard-response,55,47881,0.0-1.0-86.0,0,0,50795,,,,,,12.0,12.0,1.0,hard,1000.0,1000.0,1.0,60.0,40.0,80.0,20.0,C,D,/static/Simple_RL/Stimuli/Fractals_stims/C.jpg,/static/Simple_RL/Stimuli/Fractals_stims/D.jpg,,,,,,,,70.0,1.5,1.0,
56,,rl_choice_warning,,html-keyboard-response,56,48884,0.0-1.0-88.0-0.0,0,0,50795,,,,,,,,,,,,,,,,,,,,,,,,,,,,71.0,1.0,,
57,,isi,,html-keyboard-response,57,48988,0.0-1.0-89.0,0,0,50795,,,,,,,,,,,,,,,,,,,,,,,,,,,,72.0,1.0,,
58,,iti,,html-keyboard-response,58,49093,0.0-1.0-91.0,0,0,50795,,,,,,,,,,,,,,,,,,,,,,,,,,,,73.0,1.0,,
59,,rl_choice,,html-keyboard-response,59,50596,0.0-1.0-93.0,0,0,50795,,,,,,13.0,13.0,1.0,hard,2000.0,2000.0,1.0,60.0,40.0,40.0,40.0,C,D,/static/Simple_RL/Stimuli/Fractals_stims/C.jpg,/static/Simple_RL/Stimuli/Fractals_stims/D.jpg,,,,,,,,74.5,1.5,1.0,
60,,rl_choice_warning,,html-keyboard-response,60,51600,0.0-1.0-95.0-0.0,0,0,50795,,,,,,,,,,,,,,,,,,,,,,,,,,,,75.5,1.0,,
61,,isi,,html-keyboard-response,61,51705,0.0-1.0-96.0,0,0,50795,,,,,,,,,,,,,,,,,,,,,,,,,,,,77.5,2.0,,
62,,iti,,html-keyboard-response,62,51809,0.0-1.0-98.0,0,0,50795,,,,,,,,,,,,,,,,,,,,,,,,,,,,79.5,2.0,,
63,,rl_choice,,html-keyboard-response,63,53314,0.0-1.0-100.0,0,0,50795,,,,,,14.0,14.0,1.0,easy,1000.0,3500.0,1.0,80.0,20.0,80.0,20.0,A,B,/static/Simple_RL/Stimuli/Fractals_stims/A.jpg,/static/Simple_RL/Stimuli/Fractals_stims/B.jpg,,,,,,,,81.0,1.5,1.0,
64,,rl_choice_warning,,html-keyboard-response,64,54318,0.0-1.0-102.0-0.0,0,0,50795,,,,,,,,,,,,,,,,,,,,,,,,,,,,82.0,1.0,,
65,,isi,,html-keyboard-response,65,54422,0.0-1.0-103.0,0,0,50795,,,,,,,,,,,,,,,,,,,,,,,,,,,,85.5,3.5,,
66,,iti,,html-keyboard-response,66,54526,0.0-1.0-105.0,0,0,50795,,,,,,,,,,,,,,,,,,,,,,,,,,,,86.5,1.0,,
67,,rl_choice,,html-keyboard-response,67,56030,0.0-1.0-107.0,0,0,50795,,,,,,15.0,15.0,1.0,easy,2000.0,2000.0,0.0,20.0,80.0,20.0,60.0,B,A,/static/Simple_RL/Stimuli/Fractals_stims/B.jpg,/static/Simple_RL/Stimuli/Fractals_stims/A.jpg,,,,,,,,88.0,1.5,1.0,
68,,rl_choice_warning,,html-keyboard-response,68,57035,0.0-1.0-109.0-0.0,0,0,50795,,,,,,,,,,,,,,,,,,,,,,,,,,,,89.0,1.0,,
69,,isi,,html-keyboard-response,69,57140,0.0-1.0-110.0,0,0,50795,,,,,,,,,,,,,,,,,,,,,,,,,,,,91.0,2.0,,
70,,iti,,html-keyboard-response,70,57243,0.0-1.0-112.0,0,0,50795,,,,,,,,,,,,,,,,,,,,,,,,,,,,93.0,2.0,,
71,,rl_choice,,html-keyboard-response,71,58748,0.0-1.0-114.0,0,0,50795,,,,,,16.0,16.0,1.0,hard,1000.0,1500.0,0.0,40.0,60.0,20.0,80.0,D,C,/static/Simple_RL/Stimuli/Fractals_stims/D.jpg,/static/Simple_RL/Stimuli/Fractals_stims/C.jpg,,,,,,,,94.5,1.5,1.0,
72,,rl_choice_warning,,html-keyboard-response,72,59753,0.0-1.0-116.0-0.0,0,0,50795,,,,,,,,,,,,,,,,,,,,,,,,,,,,95.5,1.0,,
73,,isi,,html-keyboard-response,73,59855,0.0-1.0-117.0,0,0,50795,,,,,,,,,,,,,,,,,,,,,,,,,,,,97.0,1.5,,
74,,iti,,html-keyboard-response,74,59956,0.0-1.0-119.0,0,0,50795,,,,,,,,,,,,,,,,,,,,,,,,,,,,98.0,1.0,,
75,,rl_choice,,html-keyboard-response,75,61460,0.0-1.0-121.0,0,0,50795,,,,,,17.0,17.0,1.0,hard,1000.0,1500.0,1.0,60.0,40.0,60.0,20.0,C,D,/static/Simple_RL/Stimuli/Fractals_stims/C.jpg,/static/Simple_RL/Stimuli/Fractals_stims/D.jpg,,,,,,,,99.5,1.5,1.0,
76,,rl_choice_warning,,html-keyboard-response,76,62462,0.0-1.0-123.0-0.0,0,0,50795,,,,,,,,,,,,,,,,,,,,,,,,,,,,100.5,1.0,,
77,,isi,,html-keyboard-response,77,62568,0.0-1.0-124.0,0,0,50795,,,,,,,,,,,,,,,,,,,,,,,,,,,,102.0,1.5,,
78,,iti,,html-keyboard-response,78,62672,0.0-1.0-126.0,0,0,50795,,,,,,,,,,,,,,,,,,,,,,,,,,,,103.0,1.0,,
79,,rl_choice,,html-keyboard-response,79,64175,0.0-1.0-128.0,0,0,50795,,,,,,18.0,18.0,1.0,easy,1500.0,1500.0,0.0,20.0,80.0,40.0,80.0,B,A,/static/Simple_RL/Stimuli/Fractals_stims/B.jpg,/static/Simple_RL/Stimuli/Fractals_stims/A.jpg,,,,,,,,104.5,1.5,1.0,
80,,rl_choice_warning,,html-keyboard-response,80,65179,0.0-1.0-130.0-0.0,0,0,50795,,,,,,,,,,,,,,,,,,,,,,,,,,,,105.5,1.0,,
81,,isi,,html-keyboard-response,81,65284,0.0-1.0-131.0,0,0,50795,,,,,,,,,,,,,,,,,,,,,,,,,,,,107.0,1.5,,
82,,iti,,html-keyboard-response,82,65388,0.0-1.0-133.0,0,0,50795,,,,,,,,,,,,,,,,,,,,,,,,,,,,108.5,1.5,,
83,,rl_choice,,html-keyboard-response,83,66892,0.0-1.0-135.0,0,0,50795,,,,,,19.0,19.0,1.0,hard,2000.0,3000.0,1.0,60.0,40.0,60.0,40.0,C,D,/static/Simple_RL/Stimuli/Fractals_stims/C.jpg,/static/Simple_RL/Stimuli/Fractals_stims/D.jpg,,,,,,,,110.0,1.5,1.0,
84,,rl_choice_warning,,html-keyboard-response,84,67897,0.0-1.0-137.0-0.0,0,0,50795,,,,,,,,,,,,,,,,,,,,,,,,,,,,111.0,1.0,,
85,,isi,,html-keyboard-response,85,68000,0.0-1.0-138.0,0,0,50795,,,,,,,,,,,,,,,,,,,,,,,,,,,,114.0,3.0,,
86,,iti,,html-keyboard-response,86,68105,0.0-1.0-140.0,0,0,50795,,,,,,,,,,,,,,,,,,,,,,,,,,,,116.0,2.0,,
87,,rl_choice,,html-keyboard-response,87,69609,0.0-1.0-142.0,0,0,50795,,,,,,20.0,20.0,1.0,easy,1500.0,1000.0,1.0,80.0,20.0,80.0,40.0,A,B,/static/Simple_RL/Stimuli/Fractals_stims/A.jpg,/static/Simple_RL/Stimuli/Fractals_stims/B.jpg,,,,,,,,117.5,1.5,1.0,
88,,rl_choice_warning,,html-keyboard-response,88,70614,0.0-1.0-144.0-0.0,0,0,50795,,,,,,,,,,,,,,,,,,,,,,,,,,,,118.5,1.0,,
89,,isi,,html-keyboard-response,89,70718,0.0-1.0-145.0,0,0,50795,,,,,,,,,,,,,,,,,,,,,,,,,,,,119.5,1.0,,
90,,iti,,html-keyboard-response,90,70821,0.0-1.0-147.0,0,0,50795,,,,,,,,,,,,,,,,,,,,,,,,,,,,121.0,1.5,,
91,,rl_choice,,html-keyboard-response,91,72326,0.0-1.0-149.0,0,0,50795,,,,,,21.0,21.0,1.0,easy,3000.0,1500.0,1.0,80.0,20.0,80.0,20.0,A,B,/static/Simple_RL/Stimuli/Fractals_stims/A.jpg,/static/Simple_RL/Stimuli/Fractals_stims/B.jpg,,,,,,,,122.5,1.5,1.0,
92,,rl_choice_warning,,html-keyboard-response,92,73327,0.0-1.0-151.0-0.0,0,0,50795,,,,,,,,,,,,,,,,,,,,,,,,,,,,123.5,1.0,,
93,,isi,,html-keyboard-response,93,73428,0.0-1.0-152.0,0,0,50795,,,,,,,,,,,,,,,,,,,,,,,,,,,,125.0,1.5,,
94,,iti,,html-keyboard-response,94,73532,0.0-1.0-154.0,0,0,50795,,,,,,,,,,,,,,,,,,,,,,,,,,,,128.0,3.0,,
95,,rl_choice,,html-keyboard-response,95,75036,0.0-1.0-156.0,0,0,50795,,,,,,22.0,22.0,1.0,easy,1000.0,2000.0,1.0,80.0,20.0,100.0,20.0,A,B,/static/Simple_RL/Stimuli/Fractals_stims/A.jpg,/static/Simple_RL/Stimuli/Fractals_stims/B.jpg,,,,,,,,129.5,1.5,1.0,
96,,rl_choice_warning,,html-keyboard-response,96,76042,0.0-1.0-158.0-0.0,0,0,50795,,,,,,,,,,,,,,,,,,,,,,,,,,,,130.5,1.0,,
97,,isi,,html-keyboard-response,97,76143,0.0-1.0-159.0,0,0,50795,,,,,,,,,,,,,,,,,,,,,,,,,,,,132.5,2.0,,
98,,iti,,html-keyboard-response,98,76245,0.0-1.0-161.0,0,0,50795,,,,,,,,,,,,,,,,,,,,,,,,,,,,133.5,1.0,,
99,,rl_choice,,html-keyboard-response,99,77748,0.0-1.0-163.0,0,0,50795,,,,,,23.0,23.0,1.0,easy,2000.0,1500.0,1.0,80.0,20.0,80.0,0.0,A,B,/static/Simple_RL/Stimuli/Fractals_stims/A.jpg,/static/Simple_RL/Stimuli/Fractals_stims/B.jpg,,,,,,,,135.0,1.5,1.0,
100,,rl_choice_warning,,html-keyboard-response,100,78751,0.0-1.0-165.0-0.0,0,0,50795,,,,,,,,,,,,,,,,,,,,,,,,,,,,136.0,1.0,,
101,,isi,,html-keyboard-response,101,78855,0.0-1.0-166.0,0,0,50795,,,,,,,,,,,,,,,,,,,,,,,,,,,,137.5,1.5,,
102,,iti,,html-keyboard-response,102,78959,0.0-1.0-168.0,0,0,50795,,,,,,,,,,,,,,,,,,,,,,,,,,,,139.5,2.0,,
103,,rl_choice,,html-keyboard-response,103,79655,0.0-1.0-170.0,0,0,50795,,695.0,,,68.0,24.0,24.0,1.0,easy,1500.0,1500.0,0.0,20.0,80.0,40.0,80.0,B,A,/static/Simple_RL/Stimuli/Fractals_stims/B.jpg,/static/Simple_RL/Stimuli/Fractals_stims/A.jpg,1.0,20.0,80.0,40.0,80.0,B,A,140.195,0.695,0.0,
104,,rl_choice_confirmation,,html-keyboard-response,104,80463,0.0-1.0-171.0-0.0,0,0,50795,,,,,,24.0,,,,,,,,,,,,,,,,,,,,,,141.0,0.805,,
105,,isi,,html-keyboard-response,105,80566,0.0-1.0-173.0,0,0,50795,,,,,,,,,,,,,,,,,,,,,,,,,,,,142.5,1.5,,
106,,feedback,,html-keyboard-response,106,81572,0.0-1.0-174.0-0.0,0,0,50795,,,,,,24.0,,,,,,,,,,,,,,,,,,,,,,143.5,1.0,,
107,,iti,,html-keyboard-response,107,81674,0.0-1.0-175.0,0,0,50795,,,,,,,,,,,,,,,,,,,,,,,,,,,,145.0,1.5,,
108,,rl_choice,,html-keyboard-response,108,81758,0.0-1.0-177.0,0,0,50795,,83.0,,,68.0,25.0,25.0,1.0,easy,2000.0,3000.0,1.0,80.0,20.0,100.0,40.0,A,B,/static/Simple_RL/Stimuli/Fractals_stims/A.jpg,/static/Simple_RL/Stimuli/Fractals_stims/B.jpg,1.0,80.0,20.0,100.0,40.0,A,B,145.083,0.083,0.0,
109,,rl_choice_confirmation,,html-keyboard-response,109,83178,0.0-1.0-178.0-0.0,0,0,50795,,,,,,25.0,,,,,,,,,,,,,,,,,,,,,,146.5,1.4169999999999998,,
110,,isi,,html-keyboard-response,110,83280,0.0-1.0-180.0,0,0,50795,,,,,,,,,,,,,,,,,,,,,,,,,,,,149.5,3.0,,
111,,feedback,,html-keyboard-response,111,84285,0.0-1.0-181.0-0.0,0,0,50795,,,,,,25.0,,,,,,,,,,,,,,,,,,,,,,150.5,1.0,,
112,,iti,,html-keyboard-response,112,84389,0.0-1.0-182.0,0,0,50795,,,,,,,,,,,,,,,,,,,,,,,,,,,,152.5,2.0,,
113,,rl_choice,,html-keyboard-response,113,84587,0.0-1.0-184.0,0,0,50795,,197.0,,,75.0,26.0,26.0,1.0,hard,1000.0,2000.0,0.0,40.0,60.0,60.0,80.0,D,C,/static/Simple_RL/Stimuli/Fractals_stims/D.jpg,/static/Simple_RL/Stimuli/Fractals_stims/C.jpg,0.0,60.0,40.0,80.0,60.0,C,D,152.697,0.19699999999999998,0.0,
114,,rl_choice_confirmation,,html-keyboard-response,114,85895,0.0-1.0-185.0-0.0,0,0,50795,,,,,,26.0,,,,,,,,,,,,,,,,,,,,,,154.0,1.3030000000000002,,
115,,isi,,html-keyboard-response,115,85999,0.0-1.0-187.0,0,0,50795,,,,,,,,,,,,,,,,,,,,,,,,,,,,156.0,2.0,,
116,,feedback,,html-keyboard-response,116,87006,0.0-1.0-188.0-0.0,0,0,50795,,,,,,26.0,,,,,,,,,,,,,,,,,,,,,,157.0,1.0,,
117,,iti,,html-keyboard-response,117,87111,0.0-1.0-189.0,0,0,50795,,,,,,,,,,,,,,,,,,,,,,,,,,,,158.0,1.0,,
118,,rl_choice,,html-keyboard-response,118,87154,0.0-1.0-191.0,0,0,50795,,42.0,,,75.0,27.0,27.0,1.0,easy,1500.0,1500.0,0.0,20.0,80.0,20.0,80.0,B,A,/static/Simple_RL/Stimuli/Fractals_stims/B.jpg,/static/Simple_RL/Stimuli/Fractals_stims/A.jpg,0.0,80.0,20.0,80.0,20.0,A,B,158.042,0.042,0.0,
119,,rl_choice_confirmation,,html-keyboard-response,119,88617,0.0-1.0-192.0-0.0,0,0,50795,,,,,,27.0,,,,,,,,,,,,,,,,,,,,,,159.5,1.4580000000000002,,
120,,isi,,html-keyboard-response,120,88722,0.0-1.0-194.0,0,0,50795,,,,,,,,,,,,,,,,,,,,,,,,,,,,161.0,1.5,,
121,,feedback,,html-keyboard-response,121,89728,0.0-1.0-195.0-0.0,0,0,50795,,,,,,27.0,,,,,,,,,,,,,,,,,,,,,,162.0,1.0,,
122,,iti,,html-keyboard-response,122,89828,0.0-1.0-196.0,0,0,50795,,,,,,,,,,,,,,,,,,,,,,,,,,,,163.5,1.5,,
123,,rl_choice,,html-keyboard-response,123,89881,0.0-1.0-198.0,0,0,50795,,51.0,,,75.0,28.0,28.0,1.0,easy,2000.0,1000.0,1.0,80.0,20.0,100.0,20.0,A,B,/static/Simple_RL/Stimuli/Fractals_stims/A.jpg,/static/Simple_RL/Stimuli/Fractals_stims/B.jpg,0.0,20.0,80.0,20.0,100.0,B,A,163.55100000000002,0.051,0.0,
124,,rl_choice_confirmation,,html-keyboard-response,124,91333,0.0-1.0-199.0-0.0,0,0,50795,,,,,,28.0,,,,,,,,,,,,,,,,,,,,,,165.0,1.449,,
125,,isi,,html-keyboard-response,125,91438,0.0-1.0-201.0,0,0,50795,,,,,,,,,,,,,,,,,,,,,,,,,,,,166.0,1.0,,
126,,feedback,,html-keyboard-response,126,92442,0.0-1.0-202.0-0.0,0,0,50795,,,,,,28.0,,,,,,,,,,,,,,,,,,,,,,167.0,1.0,,
127,,iti,,html-keyboard-response,127,92545,0.0-1.0-203.0,0,0,50795,,,,,,,,,,,,,,,,,,,,,,,,,,,,169.0,2.0,,
128,,rl_choice,,html-keyboard-response,128,92551,0.0-1.0-205.0,0,0,50795,,5.0,,,75.0,29.0,29.0,1.0,hard,1000.0,1500.0,1.0,60.0,40.0,60.0,20.0,C,D,/static/Simple_RL/Stimuli/Fractals_stims/C.jpg,/static/Simple_RL/Stimuli/Fractals_stims/D.jpg,0.0,40.0,60.0,20.0,60.0,D,C,169.005,0.005,0.0,
129,,rl_choice_confirmation,,html-keyboard-response,129,94050,0.0-1.0-206.0-0.0,0,0,50795,,,,,,29.0,,,,,,,,,,,,,,,,,,,,,,170.5,1.495,,
130,,isi,,html-keyboard-response,130,94154,0.0-1.0-208.0,0,0,50795,,,,,,,,,,,,,,,,,,,,,,,,,,,,172.0,1.5,,
131,,feedback,,html-keyboard-response,131,95157,0.0-1.0-209.0-0.0,0,0,50795,,,,,,29.0,,,,,,,,,,,,,,,,,,,,,,173.0,1.0,,
132,,iti,,html-keyboard-response,132,95258,0.0-1.0-210.0,0,0,50795,,,,,,,,,,,,,,,,,,,,,,,,,,,,174.0,1.0,,
133,,rl_choice,,html-keyboard-response,133,95270,0.0-1.0-212.0,0,0,50795,,11.0,,,68.0,30.0,30.0,1.0,easy,1500.0,2000.0,1.0,80.0,20.0,60.0,20.0,A,B,/static/Simple_RL/Stimuli/Fractals_stims/A.jpg,/static/Simple_RL/Stimuli/Fractals_stims/B.jpg,1.0,80.0,20.0,60.0,20.0,A,B,174.011,0.011000000000000001,0.0,
134,,rl_choice_confirmation,,html-keyboard-response,134,96762,0.0-1.0-213.0-0.0,0,0,50795,,,,,,30.0,,,,,,,,,,,,,,,,,,,,,,175.5,1.489,,
135,,isi,,html-keyboard-response,135,96863,0.0-1.0-215.0,0,0,50795,,,,,,,,,,,,,,,,,,,,,,,,,,,,177.5,2.0,,
136,,feedback,,html-keyboard-response,136,97866,0.0-1.0-216.0-0.0,0,0,50795,,,,,,30.0,,,,,,,,,,,,,,,,,,,,,,178.5,1.0,,
137,,iti,,html-keyboard-response,137,97968,0.0-1.0-217.0,0,0,50795,,,,,,,,,,,,,,,,,,,,,,,,,,,,180.0,1.5,,
138,,rl_choice,,html-keyboard-response,138,98058,0.0-1.0-219.0,0,0,50795,,88.0,,,68.0,31.0,31.0,1.0,hard,1500.0,2000.0,0.0,40.0,60.0,40.0,80.0,D,C,/static/Simple_RL/Stimuli/Fractals_stims/D.jpg,/static/Simple_RL/Stimuli/Fractals_stims/C.jpg,1.0,40.0,60.0,40.0,80.0,D,C,180.088,0.08800000000000001,0.0,
139,,rl_choice_confirmation,,html-keyboard-response,139,99473,0.0-1.0-220.0-0.0,0,0,50795,,,,,,31.0,,,,,,,,,,,,,,,,,,,,,,181.5,1.412,,
140,,isi,,html-keyboard-response,140,99578,0.0-1.0-222.0,0,0,50795,,,,,,,,,,,,,,,,,,,,,,,,,,,,183.5,2.0,,
141,,feedback,,html-keyboard-response,141,100584,0.0-1.0-223.0-0.0,0,0,50795,,,,,,31.0,,,,,,,,,,,,,,,,,,,,,,184.5,1.0,,
142,,iti,,html-keyboard-response,142,100689,0.0-1.0-224.0,0,0,50795,,,,,,,,,,,,,,,,,,,,,,,,,,,,186.0,1.5,,
143,,rl_choice,,html-keyboard-response,143,100787,0.0-1.0-226.0,0,0,50795,,97.0,,,68.0,32.0,32.0,1.0,easy,1000.0,1000.0,0.0,20.0,80.0,20.0,80.0,B,A,/static/Simple_RL/Stimuli/Fractals_stims/B.jpg,/static/Simple_RL/Stimuli/Fractals_stims/A.jpg,1.0,20.0,80.0,20.0,80.0,B,A,186.097,0.09699999999999999,0.0,
144,,rl_choice_confirmation,,html-keyboard-response,144,102195,0.0-1.0-227.0-0.0,0,0,50795,,,,,,32.0,,,,,,,,,,,,,,,,,,,,,,187.5,1.403,,
145,,isi,,html-keyboard-response,145,102298,0.0-1.0-229.0,0,0,50795,,,,,,,,,,,,,,,,,,,,,,,,,,,,188.5,1.0,,
146,,feedback,,html-keyboard-response,146,103301,0.0-1.0-230.0-0.0,0,0,50795,,,,,,32.0,,,,,,,,,,,,,,,,,,,,,,189.5,1.0,,
147,,iti,,html-keyboard-response,147,103406,0.0-1.0-231.0,0,0,50795,,,,,,,,,,,,,,,,,,,,,,,,,,,,190.5,1.0,,
148,,rl_choice,,html-keyboard-response,148,103448,0.0-1.0-233.0,0,0,50795,,41.0,,,75.0,33.0,33.0,1.0,easy,3500.0,1000.0,1.0,80.0,20.0,80.0,40.0,A,B,/static/Simple_RL/Stimuli/Fractals_stims/A.jpg,/static/Simple_RL/Stimuli/Fractals_stims/B.jpg,0.0,20.0,80.0,40.0,80.0,B,A,190.541,0.040999999999999995,0.0,
149,,rl_choice_confirmation,,html-keyboard-response,149,104912,0.0-1.0-234.0-0.0,0,0,50795,,,,,,33.0,,,,,,,,,,,,,,,,,,,,,,192.0,1.459,,
150,,isi,,html-keyboard-response,150,105013,0.0-1.0-236.0,0,0,50795,,,,,,,,,,,,,,,,,,,,,,,,,,,,193.0,1.0,,
151,,feedback,,html-keyboard-response,151,106016,0.0-1.0-237.0-0.0,0,0,50795,,,,,,33.0,,,,,,,,,,,,,,,,,,,,,,194.0,1.0,,
152,,iti,,html-keyboard-response,152,106121,0.0-1.0-238.0,0,0,50795,,,,,,,,,,,,,,,,,,,,,,,,,,,,197.5,3.5,,
153,,rl_choice,,html-keyboard-response,153,106145,0.0-1.0-240.0,0,0,50795,,23.0,,,75.0,34.0,34.0,1.0,hard,2000.0,1500.0,1.0,60.0,40.0,60.0,20.0,C,D,/static/Simple_RL/Stimuli/Fractals_stims/C.jpg,/static/Simple_RL/Stimuli/Fractals_stims/D.jpg,0.0,40.0,60.0,20.0,60.0,D,C,197.523,0.023,0.0,
154,,rl_choice_confirmation,,html-keyboard-response,154,107626,0.0-1.0-241.0-0.0,0,0,50795,,,,,,34.0,,,,,,,,,,,,,,,,,,,,,,199.0,1.4769999999999999,,
155,,isi,,html-keyboard-response,155,107728,0.0-1.0-243.0,0,0,50795,,,,,,,,,,,,,,,,,,,,,,,,,,,,200.5,1.5,,
156,,feedback,,html-keyboard-response,156,108730,0.0-1.0-244.0-0.0,0,0,50795,,,,,,34.0,,,,,,,,,,,,,,,,,,,,,,201.5,1.0,,
157,,iti,,html-keyboard-response,157,108836,0.0-1.0-245.0,0,0,50795,,,,,,,,,,,,,,,,,,,,,,,,,,,,203.5,2.0,,
158,,rl_choice,,html-keyboard-response,158,109064,0.0-1.0-247.0,0,0,50795,,226.0,,,68.0,35.0,35.0,1.0,hard,1000.0,3500.0,0.0,40.0,60.0,60.0,80.0,D,C,/static/Simple_RL/Stimuli/Fractals_stims/D.jpg,/static/Simple_RL/Stimuli/Fractals_stims/C.jpg,1.0,40.0,60.0,60.0,80.0,D,C,203.726,0.226,0.0,
159,,rl_choice_confirmation,,html-keyboard-response,159,110343,0.0-1.0-248.0-0.0,0,0,50795,,,,,,35.0,,,,,,,,,,,,,,,,,,,,,,205.0,1.274,,
160,,isi,,html-keyboard-response,160,110447,0.0-1.0-250.0,0,0,50795,,,,,,,,,,,,,,,,,,,,,,,,,,,,208.5,3.5,,
161,,feedback,,html-keyboard-response,161,111450,0.0-1.0-251.0-0.0,0,0,50795,,,,,,35.0,,,,,,,,,,,,,,,,,,,,,,209.5,1.0,,
162,,iti,,html-keyboard-response,162,111556,0.0-1.0-252.0,0,0,50795,,,,,,,,,,,,,,,,,,,,,,,,,,,,210.5,1.0,,
163,,rl_choice,,html-keyboard-response,163,112133,0.0-1.0-254.0,0,0,50795,,576.0,,,75.0,36.0,36.0,1.0,hard,1500.0,1000.0,1.0,60.0,40.0,40.0,40.0,C,D,/static/Simple_RL/Stimuli/Fractals_stims/C.jpg,/static/Simple_RL/Stimuli/Fractals_stims/D.jpg,0.0,40.0,60.0,40.0,40.0,D,C,211.076,0.5760000000000001,0.0,
164,,rl_choice_confirmation,,html-keyboard-response,164,113061,0.0-1.0-255.0-0.0,0,0,50795,,,,,,36.0,,,,,,,,,,,,,,,,,,,,,,212.0,0.924,,
165,,isi,,html-keyboard-response,165,113163,0.0-1.0-257.0,0,0,50795,,,,,,,,,,,,,,,,,,,,,,,,,,,,213.0,1.0,,
166,,feedback,,html-keyboard-response,166,114167,0.0-1.0-258.0-0.0,0,0,50795,,,,,,36.0,,,,,,,,,,,,,,,,,,,,,,214.0,1.0,,
167,,iti,,html-keyboard-response,167,114272,0.0-1.0-259.0,0,0,50795,,,,,,,,,,,,,,,,,,,,,,,,,,,,215.5,1.5,,
168,,rl_choice,,html-keyboard-response,168,114327,0.0-1.0-261.0,0,0,50795,,54.0,,,75.0,37.0,37.0,1.0,easy,1000.0,1000.0,0.0,20.0,80.0,0.0,100.0,B,A,/static/Simple_RL/Stimuli/Fractals_stims/B.jpg,/static/Simple_RL/Stimuli/Fractals_stims/A.jpg,0.0,80.0,20.0,100.0,0.0,A,B,215.554,0.054000000000000006,0.0,
169,,rl_choice_confirmation,,html-keyboard-response,169,115775,0.0-1.0-262.0-0.0,0,0,50795,,,,,,37.0,,,,,,,,,,,,,,,,,,,,,,217.0,1.446,,
170,,isi,,html-keyboard-response,170,115877,0.0-1.0-264.0,0,0,50795,,,,,,,,,,,,,,,,,,,,,,,,,,,,218.0,1.0,,
171,,feedback,,html-keyboard-response,171,116880,0.0-1.0-265.0-0.0,0,0,50795,,,,,,37.0,,,,,,,,,,,,,,,,,,,,,,219.0,1.0,,
172,,iti,,html-keyboard-response,172,116981,0.0-1.0-266.0,0,0,50795,,,,,,,,,,,,,,,,,,,,,,,,,,,,220.0,1.0,,
173,,rl_choice,,html-keyboard-response,173,118328,0.0-1.0-268.0,0,0,50795,,1346.0,,,68.0,38.0,38.0,1.0,hard,1500.0,1000.0,0.0,40.0,60.0,40.0,60.0,D,C,/static/Simple_RL/Stimuli/Fractals_stims/D.jpg,/static/Simple_RL/Stimuli/Fractals_stims/C.jpg,1.0,40.0,60.0,40.0,60.0,D,C,221.34599999999998,1.3459999999999999,0.0,
174,,rl_choice_confirmation,,html-keyboard-response,174,118484,0.0-1.0-269.0-0.0,0,0,50795,,,,,,38.0,,,,,,,,,,,,,,,,,,,,,,221.5,0.154,,
175,,isi,,html-keyboard-response,175,118585,0.0-1.0-271.0,0,0,50795,,,,,,,,,,,,,,,,,,,,,,,,,,,,222.5,1.0,,
176,,feedback,,html-keyboard-response,176,119590,0.0-1.0-272.0-0.0,0,0,50795,,,,,,38.0,,,,,,,,,,,,,,,,,,,,,,223.5,1.0,,
177,,iti,,html-keyboard-response,177,119691,0.0-1.0-273.0,0,0,50795,,,,,,,,,,,,,,,,,,,,,,,,,,,,225.0,1.5,,
178,,rl_choice,,html-keyboard-response,178,119713,0.0-1.0-275.0,0,0,50795,,21.0,,,75.0,39.0,39.0,1.0,hard,1500.0,3000.0,0.0,40.0,60.0,60.0,60.0,D,C,/static/Simple_RL/Stimuli/Fractals_stims/D.jpg,/static/Simple_RL/Stimuli/Fractals_stims/C.jpg,0.0,60.0,40.0,60.0,60.0,C,D,225.021,0.021,0.0,
179,,rl_choice_confirmation,,html-keyboard-response,179,121195,0.0-1.0-276.0-0.0,0,0,50795,,,,,,39.0,,,,,,,,,,,,,,,,,,,,,,226.5,1.479,,
180,,isi,,html-keyboard-response,180,121296,0.0-1.0-278.0,0,0,50795,,,,,,,,,,,,,,,,,,,,,,,,,,,,229.5,3.0,,
181,,feedback,,html-keyboard-response,181,122299,0.0-1.0-279.0-0.0,0,0,50795,,,,,,39.0,,,,,,,,,,,,,,,,,,,,,,230.5,1.0,,
182,,iti,,html-keyboard-response,182,122400,0.0-1.0-280.0,0,0,50795,,,,,,,,,,,,,,,,,,,,,,,,,,,,232.0,1.5,,
183,,block_over,,html-keyboard-response,183,123833,0.0-1.0-281.0-0.0,0,0,50795,,1432.0,,,68.0,39.0,,,,,,,,,,,,,,,,,,,,,,,,,
184,,start_run,,html-keyboard-response,184,129505,0.0-1.0-281.0-1.0,0,0,50795,,5671.0,,,84.0,,,,,,,,,,,,,,,,,,,,,,,,,,
185,,rl_choice,,html-keyboard-response,185,129885,0.0-1.0-282.0,0,0,50795,,379.0,,,68.0,40.0,40.0,2.0,easy,3000.0,1000.0,1.0,80.0,20.0,80.0,40.0,A,B,/static/Simple_RL/Stimuli/Fractals_stims/A.jpg,/static/Simple_RL/Stimuli/Fractals_stims/B.jpg,1.0,80.0,20.0,80.0,40.0,A,B,0.379,0.379,0.0,
186,,rl_choice_confirmation,,html-keyboard-response,186,131008,0.0-1.0-283.0-0.0,0,0,50795,,,,,,40.0,,,,,,,,,,,,,,,,,,,,,,1.5,1.121,,
187,,isi,,html-keyboard-response,187,131109,0.0-1.0-285.0,0,0,50795,,,,,,,,,,,,,,,,,,,,,,,,,,,,2.5,1.0,,
188,,feedback,,html-keyboard-response,188,132115,0.0-1.0-286.0-0.0,0,0,50795,,,,,,40.0,,,,,,,,,,,,,,,,,,,,,,3.5,1.0,,
189,,iti,,html-keyboard-response,189,132218,0.0-1.0-287.0,0,0,50795,,,,,,,,,,,,,,,,,,,,,,,,,,,,6.5,3.0,,
190,,rl_choice,,html-keyboard-response,190,132318,0.0-1.0-289.0,0,0,50795,,97.0,,,75.0,41.0,41.0,2.0,hard,1500.0,1000.0,1.0,60.0,40.0,60.0,40.0,C,D,/static/Simple_RL/Stimuli/Fractals_stims/C.jpg,/static/Simple_RL/Stimuli/Fractals_stims/D.jpg,0.0,40.0,60.0,40.0,60.0,D,C,6.597,0.09699999999999999,0.0,
191,,rl_choice_confirmation,,html-keyboard-response,191,133727,0.0-1.0-290.0-0.0,0,0,50795,,,,,,41.0,,,,,,,,,,,,,,,,,,,,,,8.0,1.403,,
192,,isi,,html-keyboard-response,192,133830,0.0-1.0-292.0,0,0,50795,,,,,,,,,,,,,,,,,,,,,,,,,,,,9.0,1.0,,
193,,feedback,,html-keyboard-response,193,134833,0.0-1.0-293.0-0.0,0,0,50795,,,,,,41.0,,,,,,,,,,,,,,,,,,,,,,10.0,1.0,,
194,,iti,,html-keyboard-response,194,134939,0.0-1.0-294.0,0,0,50795,,,,,,,,,,,,,,,,,,,,,,,,,,,,11.5,1.5,,
195,,rl_choice,,html-keyboard-response,195,134979,0.0-1.0-296.0,0,0,50795,,39.0,,,68.0,42.0,42.0,2.0,easy,1000.0,2000.0,0.0,20.0,80.0,20.0,60.0,B,A,/static/Simple_RL/Stimuli/Fractals_stims/B.jpg,/static/Simple_RL/Stimuli/Fractals_stims/A.jpg,1.0,20.0,80.0,20.0,60.0,B,A,11.539000000000001,0.039,0.0,
196,,rl_choice_confirmation,,html-keyboard-response,196,136443,0.0-1.0-297.0-0.0,0,0,50795,,,,,,42.0,,,,,,,,,,,,,,,,,,,,,,13.0,1.4609999999999999,,
197,,isi,,html-keyboard-response,197,136544,0.0-1.0-299.0,0,0,50795,,,,,,,,,,,,,,,,,,,,,,,,,,,,15.0,2.0,,
198,,feedback,,html-keyboard-response,198,137551,0.0-1.0-300.0-0.0,0,0,50795,,,,,,42.0,,,,,,,,,,,,,,,,,,,,,,16.0,1.0,,
199,,iti,,html-keyboard-response,199,137656,0.0-1.0-301.0,0,0,50795,,,,,,,,,,,,,,,,,,,,,,,,,,,,17.0,1.0,,
200,,rl_choice,,html-keyboard-response,200,137701,0.0-1.0-303.0,0,0,50795,,44.0,,,68.0,43.0,43.0,2.0,hard,1000.0,1000.0,0.0,40.0,60.0,60.0,40.0,D,C,/static/Simple_RL/Stimuli/Fractals_stims/D.jpg,/static/Simple_RL/Stimuli/Fractals_stims/C.jpg,1.0,40.0,60.0,60.0,40.0,D,C,17.044,0.044000000000000004,0.0,
201,,rl_choice_confirmation,,html-keyboard-response,201,139163,0.0-1.0-304.0-0.0,0,0,50795,,,,,,43.0,,,,,,,,,,,,,,,,,,,,,,18.5,1.456,,
202,,isi,,html-keyboard-response,202,139269,0.0-1.0-306.0,0,0,50795,,,,,,,,,,,,,,,,,,,,,,,,,,,,19.5,1.0,,
203,,feedback,,html-keyboard-response,203,140273,0.0-1.0-307.0-0.0,0,0,50795,,,,,,43.0,,,,,,,,,,,,,,,,,,,,,,20.5,1.0,,
204,,iti,,html-keyboard-response,204,140379,0.0-1.0-308.0,0,0,50795,,,,,,,,,,,,,,,,,,,,,,,,,,,,21.5,1.0,,
205,,rl_choice,,html-keyboard-response,205,140418,0.0-1.0-310.0,0,0,50795,,38.0,,,68.0,44.0,44.0,2.0,hard,2000.0,3000.0,0.0,40.0,60.0,20.0,40.0,D,C,/static/Simple_RL/Stimuli/Fractals_stims/D.jpg,/static/Simple_RL/Stimuli/Fractals_stims/C.jpg,1.0,40.0,60.0,20.0,40.0,D,C,21.538,0.038,0.0,
206,,rl_choice_confirmation,,html-keyboard-response,206,141882,0.0-1.0-311.0-0.0,0,0,50795,,,,,,44.0,,,,,,,,,,,,,,,,,,,,,,23.0,1.462,,
207,,isi,,html-keyboard-response,207,141984,0.0-1.0-313.0,0,0,50795,,,,,,,,,,,,,,,,,,,,,,,,,,,,26.0,3.0,,
208,,feedback,,html-keyboard-response,208,142987,0.0-1.0-314.0-0.0,0,0,50795,,,,,,44.0,,,,,,,,,,,,,,,,,,,,,,27.0,1.0,,
209,,iti,,html-keyboard-response,209,143090,0.0-1.0-315.0,0,0,50795,,,,,,,,,,,,,,,,,,,,,,,,,,,,29.0,2.0,,
210,,rl_choice,,html-keyboard-response,210,143169,0.0-1.0-317.0,0,0,50795,,77.0,,,75.0,45.0,45.0,2.0,hard,1500.0,3500.0,0.0,40.0,60.0,20.0,80.0,D,C,/static/Simple_RL/Stimuli/Fractals_stims/D.jpg,/static/Simple_RL/Stimuli/Fractals_stims/C.jpg,0.0,60.0,40.0,80.0,20.0,C,D,29.076999999999998,0.077,0.0,
211,,rl_choice_confirmation,,html-keyboard-response,211,144597,0.0-1.0-318.0-0.0,0,0,50795,,,,,,45.0,,,,,,,,,,,,,,,,,,,,,,30.5,1.423,,
212,,isi,,html-keyboard-response,212,144702,0.0-1.0-320.0,0,0,50795,,,,,,,,,,,,,,,,,,,,,,,,,,,,34.0,3.5,,
213,,feedback,,html-keyboard-response,213,145707,0.0-1.0-321.0-0.0,0,0,50795,,,,,,45.0,,,,,,,,,,,,,,,,,,,,,,35.0,1.0,,
214,,iti,,html-keyboard-response,214,145810,0.0-1.0-322.0,0,0,50795,,,,,,,,,,,,,,,,,,,,,,,,,,,,36.5,1.5,,
215,,rl_choice,,html-keyboard-response,215,146000,0.0-1.0-324.0,0,0,50795,,189.0,,,75.0,46.0,46.0,2.0,hard,1000.0,1000.0,1.0,60.0,40.0,80.0,60.0,C,D,/static/Simple_RL/Stimuli/Fractals_stims/C.jpg,/static/Simple_RL/Stimuli/Fractals_stims/D.jpg,0.0,40.0,60.0,60.0,80.0,D,C,36.689,0.18899999999999997,0.0,
216,,rl_choice_confirmation,,html-keyboard-response,216,147312,0.0-1.0-325.0-0.0,0,0,50795,,,,,,46.0,,,,,,,,,,,,,,,,,,,,,,38.0,1.311,,
217,,isi,,html-keyboard-response,217,147413,0.0-1.0-327.0,0,0,50795,,,,,,,,,,,,,,,,,,,,,,,,,,,,39.0,1.0,,
218,,feedback,,html-keyboard-response,218,148417,0.0-1.0-328.0-0.0,0,0,50795,,,,,,46.0,,,,,,,,,,,,,,,,,,,,,,40.0,1.0,,
219,,iti,,html-keyboard-response,219,148518,0.0-1.0-329.0,0,0,50795,,,,,,,,,,,,,,,,,,,,,,,,,,,,41.0,1.0,,
220,,rl_choice,,html-keyboard-response,220,148529,0.0-1.0-331.0,0,0,50795,,10.0,,,75.0,47.0,47.0,2.0,hard,1500.0,2000.0,0.0,40.0,60.0,40.0,60.0,D,C,/static/Simple_RL/Stimuli/Fractals_stims/D.jpg,/static/Simple_RL/Stimuli/Fractals_stims/C.jpg,0.0,60.0,40.0,60.0,40.0,C,D,41.01,0.01,0.0,
221,,rl_choice_confirmation,,html-keyboard-response,221,150024,0.0-1.0-332.0-0.0,0,0,50795,,,,,,47.0,,,,,,,,,,,,,,,,,,,,,,42.5,1.49,,
222,,isi,,html-keyboard-response,222,150129,0.0-1.0-334.0,0,0,50795,,,,,,,,,,,,,,,,,,,,,,,,,,,,44.5,2.0,,
223,,feedback,,html-keyboard-response,223,151132,0.0-1.0-335.0-0.0,0,0,50795,,,,,,47.0,,,,,,,,,,,,,,,,,,,,,,45.5,1.0,,
224,,iti,,html-keyboard-response,224,151238,0.0-1.0-336.0,0,0,50795,,,,,,,,,,,,,,,,,,,,,,,,,,,,47.0,1.5,,
225,,rl_choice,,html-keyboard-response,225,151417,0.0-1.0-338.0,0,0,50795,,178.0,,,68.0,48.0,48.0,2.0,easy,3500.0,1500.0,1.0,80.0,20.0,100.0,20.0,A,B,/static/Simple_RL/Stimuli/Fractals_stims/A.jpg,/static/Simple_RL/Stimuli/Fractals_stims/B.jpg,1.0,80.0,20.0,100.0,20.0,A,B,47.178000000000004,0.17800000000000002,0.0,
226,,rl_choice_confirmation,,html-keyboard-response,226,152742,0.0-1.0-339.0-0.0,0,0,50795,,,,,,48.0,,,,,,,,,,,,,,,,,,,,,,48.5,1.3219999999999998,,
227,,isi,,html-keyboard-response,227,152846,0.0-1.0-341.0,0,0,50795,,,,,,,,,,,,,,,,,,,,,,,,,,,,50.0,1.5,,
228,,feedback,,html-keyboard-response,228,153851,0.0-1.0-342.0-0.0,0,0,50795,,,,,,48.0,,,,,,,,,,,,,,,,,,,,,,51.0,1.0,,
229,,iti,,html-keyboard-response,229,153955,0.0-1.0-343.0,0,0,50795,,,,,,,,,,,,,,,,,,,,,,,,,,,,54.5,3.5,,
230,,rl_choice,,html-keyboard-response,230,154280,0.0-1.0-345.0,0,0,50795,,323.0,,,68.0,49.0,49.0,2.0,hard,2000.0,2000.0,1.0,60.0,40.0,80.0,40.0,C,D,/static/Simple_RL/Stimuli/Fractals_stims/C.jpg,/static/Simple_RL/Stimuli/Fractals_stims/D.jpg,1.0,60.0,40.0,80.0,40.0,C,D,54.823,0.32299999999999995,0.0,
231,,rl_choice_confirmation,,html-keyboard-response,231,155462,0.0-1.0-346.0-0.0,0,0,50795,,,,,,49.0,,,,,,,,,,,,,,,,,,,,,,56.0,1.177,,
232,,isi,,html-keyboard-response,232,155564,0.0-1.0-348.0,0,0,50795,,,,,,,,,,,,,,,,,,,,,,,,,,,,58.0,2.0,,
233,,feedback,,html-keyboard-response,233,156566,0.0-1.0-349.0-0.0,0,0,50795,,,,,,49.0,,,,,,,,,,,,,,,,,,,,,,59.0,1.0,,
234,,iti,,html-keyboard-response,234,156669,0.0-1.0-350.0,0,0,50795,,,,,,,,,,,,,,,,,,,,,,,,,,,,61.0,2.0,,
235,,rl_choice,,html-keyboard-response,235,156944,0.0-1.0-352.0,0,0,50795,,274.0,,,75.0,50.0,50.0,2.0,easy,1500.0,2000.0,1.0,80.0,20.0,100.0,0.0,A,B,/static/Simple_RL/Stimuli/Fractals_stims/A.jpg,/static/Simple_RL/Stimuli/Fractals_stims/B.jpg,0.0,20.0,80.0,0.0,100.0,B,A,61.273999999999994,0.27399999999999997,0.0,
236,,rl_choice_confirmation,,html-keyboard-response,236,158172,0.0-1.0-353.0-0.0,0,0,50795,,,,,,50.0,,,,,,,,,,,,,,,,,,,,,,62.5,1.226,,
237,,isi,,html-keyboard-response,237,158273,0.0-1.0-355.0,0,0,50795,,,,,,,,,,,,,,,,,,,,,,,,,,,,64.5,2.0,,
238,,feedback,,html-keyboard-response,238,159277,0.0-1.0-356.0-0.0,0,0,50795,,,,,,50.0,,,,,,,,,,,,,,,,,,,,,,65.5,1.0,,
239,,iti,,html-keyboard-response,239,159382,0.0-1.0-357.0,0,0,50795,,,,,,,,,,,,,,,,,,,,,,,,,,,,67.0,1.5,,
240,,rl_choice,,html-keyboard-response,240,159491,0.0-1.0-359.0,0,0,50795,,108.0,,,75.0,51.0,51.0,2.0,easy,1500.0,3000.0,0.0,20.0,80.0,20.0,60.0,B,A,/static/Simple_RL/Stimuli/Fractals_stims/B.jpg,/static/Simple_RL/Stimuli/Fractals_stims/A.jpg,0.0,80.0,20.0,60.0,20.0,A,B,67.108,0.10800000000000001,0.0,
241,,rl_choice_confirmation,,html-keyboard-response,241,160886,0.0-1.0-360.0-0.0,0,0,50795,,,,,,51.0,,,,,,,,,,,,,,,,,,,,,,68.5,1.392,,
242,,isi,,html-keyboard-response,242,160992,0.0-1.0-362.0,0,0,50795,,,,,,,,,,,,,,,,,,,,,,,,,,,,71.5,3.0,,
243,,feedback,,html-keyboard-response,243,161996,0.0-1.0-363.0-0.0,0,0,50795,,,,,,51.0,,,,,,,,,,,,,,,,,,,,,,72.5,1.0,,
244,,iti,,html-keyboard-response,244,162097,0.0-1.0-364.0,0,0,50795,,,,,,,,,,,,,,,,,,,,,,,,,,,,74.0,1.5,,
245,,rl_choice,,html-keyboard-response,245,162325,0.0-1.0-366.0,0,0,50795,,227.0,,,75.0,52.0,52.0,2.0,hard,3500.0,2000.0,0.0,40.0,60.0,60.0,40.0,D,C,/static/Simple_RL/Stimuli/Fractals_stims/D.jpg,/static/Simple_RL/Stimuli/Fractals_stims/C.jpg,0.0,60.0,40.0,40.0,60.0,C,D,74.227,0.22699999999999998,0.0,
246,,rl_choice_confirmation,,html-keyboard-response,246,163601,0.0-1.0-367.0-0.0,0,0,50795,,,,,,52.0,,,,,,,,,,,,,,,,,,,,,,75.5,1.273,,
247,,isi,,html-keyboard-response,247,163702,0.0-1.0-369.0,0,0,50795,,,,,,,,,,,,,,,,,,,,,,,,,,,,77.5,2.0,,
248,,feedback,,html-keyboard-response,248,164704,0.0-1.0-370.0-0.0,0,0,50795,,,,,,52.0,,,,,,,,,,,,,,,,,,,,,,78.5,1.0,,
249,,iti,,html-keyboard-response,249,164809,0.0-1.0-371.0,0,0,50795,,,,,,,,,,,,,,,,,,,,,,,,,,,,82.0,3.5,,
250,,rl_choice,,html-keyboard-response,250,166313,0.0-1.0-373.0,0,0,50795,,,,,,53.0,53.0,2.0,easy,1500.0,2000.0,0.0,20.0,80.0,0.0,60.0,B,A,/static/Simple_RL/Stimuli/Fractals_stims/B.jpg,/static/Simple_RL/Stimuli/Fractals_stims/A.jpg,,,,,,,,83.5,1.5,1.0,
251,,rl_choice_warning,,html-keyboard-response,251,167318,0.0-1.0-375.0-0.0,1,0,50795,,,,,,,,,,,,,,,,,,,,,,,,,,,,84.5,1.0,,
252,,isi,,html-keyboard-response,252,167420,0.0-1.0-376.0,0,0,50795,,,,,,,,,,,,,,,,,,,,,,,,,,,,86.5,2.0,,
253,,iti,,html-keyboard-response,253,167524,0.0-1.0-378.0,0,0,50795,,,,,,,,,,,,,,,,,,,,,,,,,,,,88.0,1.5,,
254,,rl_choice,,html-keyboard-response,254,167578,0.0-1.0-380.0,0,0,50795,,53.0,,,68.0,54.0,54.0,2.0,easy,1000.0,1000.0,0.0,20.0,80.0,20.0,60.0,B,A,/static/Simple_RL/Stimuli/Fractals_stims/B.jpg,/static/Simple_RL/Stimuli/Fractals_stims/A.jpg,1.0,20.0,80.0,20.0,60.0,B,A,88.053,0.053,0.0,
255,,rl_choice_confirmation,,html-keyboard-response,255,169027,0.0-1.0-381.0-0.0,0,0,50795,,,,,,54.0,,,,,,,,,,,,,,,,,,,,,,89.5,1.4469999999999998,,
256,,isi,,html-keyboard-response,256,169132,0.0-1.0-383.0,0,0,50795,,,,,,,,,,,,,,,,,,,,,,,,,,,,90.5,1.0,,
257,,feedback,,html-keyboard-response,257,170134,0.0-1.0-384.0-0.0,0,0,50795,,,,,,54.0,,,,,,,,,,,,,,,,,,,,,,91.5,1.0,,
258,,iti,,html-keyboard-response,258,170236,0.0-1.0-385.0,0,0,50795,,,,,,,,,,,,,,,,,,,,,,,,,,,,92.5,1.0,,
259,,rl_choice,,html-keyboard-response,259,171364,0.0-1.0-387.0,0,0,50795,,1127.0,,,68.0,55.0,55.0,2.0,hard,1500.0,2000.0,1.0,60.0,40.0,80.0,40.0,C,D,/static/Simple_RL/Stimuli/Fractals_stims/C.jpg,/static/Simple_RL/Stimuli/Fractals_stims/D.jpg,1.0,60.0,40.0,80.0,40.0,C,D,93.62700000000001,1.127,0.0,
260,,rl_choice_confirmation,,html-keyboard-response,260,171741,0.0-1.0-388.0-0.0,0,0,50795,,,,,,55.0,,,,,,,,,,,,,,,,,,,,,,94.0,0.373,,
261,,isi,,html-keyboard-response,261,171847,0.0-1.0-390.0,0,0,50795,,,,,,,,,,,,,,,,,,,,,,,,,,,,96.0,2.0,,
262,,feedback,,html-keyboard-response,262,172849,0.0-1.0-391.0-0.0,0,0,50795,,,,,,55.0,,,,,,,,,,,,,,,,,,,,,,97.0,1.0,,
263,,iti,,html-keyboard-response,263,172951,0.0-1.0-392.0,0,0,50795,,,,,,,,,,,,,,,,,,,,,,,,,,,,98.5,1.5,,
264,,rl_choice,,html-keyboard-response,264,173819,0.0-1.0-394.0,0,0,50795,,866.0,,,75.0,56.0,56.0,2.0,easy,1000.0,1000.0,1.0,80.0,20.0,80.0,40.0,A,B,/static/Simple_RL/Stimuli/Fractals_stims/A.jpg,/static/Simple_RL/Stimuli/Fractals_stims/B.jpg,0.0,20.0,80.0,40.0,80.0,B,A,99.366,0.866,0.0,
265,,rl_choice_confirmation,,html-keyboard-response,265,174458,0.0-1.0-395.0-0.0,0,0,50795,,,,,,56.0,,,,,,,,,,,,,,,,,,,,,,100.0,0.634,,
266,,isi,,html-keyboard-response,266,174563,0.0-1.0-397.0,0,0,50795,,,,,,,,,,,,,,,,,,,,,,,,,,,,101.0,1.0,,
267,,feedback,,html-keyboard-response,267,175569,0.0-1.0-398.0-0.0,0,0,50795,,,,,,56.0,,,,,,,,,,,,,,,,,,,,,,102.0,1.0,,
268,,iti,,html-keyboard-response,268,175674,0.0-1.0-399.0,0,0,50795,,,,,,,,,,,,,,,,,,,,,,,,,,,,103.0,1.0,,
269,,rl_choice,,html-keyboard-response,269,176242,0.0-1.0-401.0,0,0,50795,,566.0,,,75.0,57.0,57.0,2.0,easy,2000.0,3000.0,1.0,80.0,20.0,60.0,0.0,A,B,/static/Simple_RL/Stimuli/Fractals_stims/A.jpg,/static/Simple_RL/Stimuli/Fractals_stims/B.jpg,0.0,20.0,80.0,0.0,60.0,B,A,103.566,0.5660000000000001,0.0,
270,,rl_choice_confirmation,,html-keyboard-response,270,177180,0.0-1.0-402.0-0.0,0,0,50795,,,,,,57.0,,,,,,,,,,,,,,,,,,,,,,104.5,0.934,,
271,,isi,,html-keyboard-response,271,177281,0.0-1.0-404.0,0,0,50795,,,,,,,,,,,,,,,,,,,,,,,,,,,,107.5,3.0,,
272,,feedback,,html-keyboard-response,272,178287,0.0-1.0-405.0-0.0,0,0,50795,,,,,,57.0,,,,,,,,,,,,,,,,,,,,,,108.5,1.0,,
273,,iti,,html-keyboard-response,273,178390,0.0-1.0-406.0,0,0,50795,,,,,,,,,,,,,,,,,,,,,,,,,,,,110.5,2.0,,
274,,rl_choice,,html-keyboard-response,274,178546,0.0-1.0-408.0,0,0,50795,,154.0,,,75.0,58.0,58.0,2.0,hard,2000.0,1000.0,1.0,60.0,40.0,40.0,40.0,C,D,/static/Simple_RL/Stimuli/Fractals_stims/C.jpg,/static/Simple_RL/Stimuli/Fractals_stims/D.jpg,0.0,40.0,60.0,40.0,40.0,D,C,110.654,0.154,0.0,
275,,rl_choice_confirmation,,html-keyboard-response,275,179896,0.0-1.0-409.0-0.0,0,0,50795,,,,,,58.0,,,,,,,,,,,,,,,,,,,,,,112.0,1.3459999999999999,,
276,,isi,,html-keyboard-response,276,180001,0.0-1.0-411.0,0,0,50795,,,,,,,,,,,,,,,,,,,,,,,,,,,,113.0,1.0,,
277,,feedback,,html-keyboard-response,277,181005,0.0-1.0-412.0-0.0,0,0,50795,,,,,,58.0,,,,,,,,,,,,,,,,,,,,,,114.0,1.0,,
278,,iti,,html-keyboard-response,278,181110,0.0-1.0-413.0,0,0,50795,,,,,,,,,,,,,,,,,,,,,,,,,,,,116.0,2.0,,
279,,rl_choice,,html-keyboard-response,279,181151,0.0-1.0-415.0,0,0,50795,,39.0,,,68.0,59.0,59.0,2.0,easy,1000.0,1500.0,1.0,80.0,20.0,80.0,0.0,A,B,/static/Simple_RL/Stimuli/Fractals_stims/A.jpg,/static/Simple_RL/Stimuli/Fractals_stims/B.jpg,1.0,80.0,20.0,80.0,0.0,A,B,116.039,0.039,0.0,
280,,rl_choice_confirmation,,html-keyboard-response,280,182614,0.0-1.0-416.0-0.0,0,0,50795,,,,,,59.0,,,,,,,,,,,,,,,,,,,,,,117.5,1.4609999999999999,,
281,,isi,,html-keyboard-response,281,182716,0.0-1.0-418.0,0,0,50795,,,,,,,,,,,,,,,,,,,,,,,,,,,,119.0,1.5,,
282,,feedback,,html-keyboard-response,282,183718,0.0-1.0-419.0-0.0,0,0,50795,,,,,,59.0,,,,,,,,,,,,,,,,,,,,,,120.0,1.0,,
283,,iti,,html-keyboard-response,283,183820,0.0-1.0-420.0,0,0,50795,,,,,,,,,,,,,,,,,,,,,,,,,,,,121.0,1.0,,
284,,rl_choice,,html-keyboard-response,284,184050,0.0-1.0-422.0,0,0,50795,,229.0,,,75.0,60.0,60.0,2.0,easy,1000.0,3500.0,1.0,80.0,20.0,80.0,0.0,A,B,/static/Simple_RL/Stimuli/Fractals_stims/A.jpg,/static/Simple_RL/Stimuli/Fractals_stims/B.jpg,0.0,20.0,80.0,0.0,80.0,B,A,121.229,0.22899999999999998,0.0,
285,,rl_choice_confirmation,,html-keyboard-response,285,185325,0.0-1.0-423.0-0.0,0,0,50795,,,,,,60.0,,,,,,,,,,,,,,,,,,,,,,122.5,1.271,,
286,,isi,,html-keyboard-response,286,185428,0.0-1.0-425.0,0,0,50795,,,,,,,,,,,,,,,,,,,,,,,,,,,,126.0,3.5,,
287,,feedback,,html-keyboard-response,287,186430,0.0-1.0-426.0-0.0,0,0,50795,,,,,,60.0,,,,,,,,,,,,,,,,,,,,,,127.0,1.0,,
288,,iti,,html-keyboard-response,288,186531,0.0-1.0-427.0,0,0,50795,,,,,,,,,,,,,,,,,,,,,,,,,,,,128.0,1.0,,
289,,rl_choice,,html-keyboard-response,289,186707,0.0-1.0-429.0,0,0,50795,,174.0,,,68.0,61.0,61.0,2.0,hard,3000.0,1500.0,0.0,40.0,60.0,40.0,60.0,D,C,/static/Simple_RL/Stimuli/Fractals_stims/D.jpg,/static/Simple_RL/Stimuli/Fractals_stims/C.jpg,1.0,40.0,60.0,40.0,60.0,D,C,128.174,0.174,0.0,
290,,rl_choice_confirmation,,html-keyboard-response,290,188039,0.0-1.0-430.0-0.0,0,0,50795,,,,,,61.0,,,,,,,,,,,,,,,,,,,,,,129.5,1.3259999999999998,,
291,,isi,,html-keyboard-response,291,188144,0.0-1.0-432.0,0,0,50795,,,,,,,,,,,,,,,,,,,,,,,,,,,,131.0,1.5,,
292,,feedback,,html-keyboard-response,292,189148,0.0-1.0-433.0-0.0,0,0,50795,,,,,,61.0,,,,,,,,,,,,,,,,,,,,,,132.0,1.0,,
293,,iti,,html-keyboard-response,293,189249,0.0-1.0-434.0,0,0,50795,,,,,,,,,,,,,,,,,,,,,,,,,,,,135.0,3.0,,
294,,rl_choice,,html-keyboard-response,294,190754,0.0-1.0-436.0,0,0,50795,,,,,,62.0,62.0,2.0,easy,1000.0,1500.0,0.0,20.0,80.0,40.0,100.0,B,A,/static/Simple_RL/Stimuli/Fractals_stims/B.jpg,/static/Simple_RL/Stimuli/Fractals_stims/A.jpg,,,,,,,,136.5,1.5,1.0,
295,,rl_choice_warning,,html-keyboard-response,295,191758,0.0-1.0-438.0-0.0,1,0,50795,,,,,,,,,,,,,,,,,,,,,,,,,,,,137.5,1.0,,
296,,isi,,html-keyboard-response,296,191863,0.0-1.0-439.0,0,0,50795,,,,,,,,,,,,,,,,,,,,,,,,,,,,139.0,1.5,,
297,,iti,,html-keyboard-response,297,191964,0.0-1.0-441.0,0,0,50795,,,,,,,,,,,,,,,,,,,,,,,,,,,,140.0,1.0,,
298,,rl_choice,,html-keyboard-response,298,192024,0.0-1.0-443.0,0,0,50795,,59.0,,,68.0,63.0,63.0,2.0,easy,2000.0,1500.0,1.0,80.0,20.0,60.0,0.0,A,B,/static/Simple_RL/Stimuli/Fractals_stims/A.jpg,/static/Simple_RL/Stimuli/Fractals_stims/B.jpg,1.0,80.0,20.0,60.0,0.0,A,B,140.059,0.059000000000000004,0.0,
299,,rl_choice_confirmation,,html-keyboard-response,299,193468,0.0-1.0-444.0-0.0,0,0,50795,,,,,,63.0,,,,,,,,,,,,,,,,,,,,,,141.5,1.4409999999999998,,
300,,isi,,html-keyboard-response,300,193573,0.0-1.0-446.0,0,0,50795,,,,,,,,,,,,,,,,,,,,,,,,,,,,143.0,1.5,,
301,,feedback,,html-keyboard-response,301,194578,0.0-1.0-447.0-0.0,0,0,50795,,,,,,63.0,,,,,,,,,,,,,,,,,,,,,,144.0,1.0,,
302,,iti,,html-keyboard-response,302,194683,0.0-1.0-448.0,0,0,50795,,,,,,,,,,,,,,,,,,,,,,,,,,,,146.0,2.0,,
303,,rl_choice,,html-keyboard-response,303,194764,0.0-1.0-450.0,0,0,50795,,80.0,,,75.0,64.0,64.0,2.0,hard,1500.0,1000.0,0.0,40.0,60.0,40.0,60.0,D,C,/static/Simple_RL/Stimuli/Fractals_stims/D.jpg,/static/Simple_RL/Stimuli/Fractals_stims/C.jpg,0.0,60.0,40.0,60.0,40.0,C,D,146.08,0.08,0.0,
304,,rl_choice_confirmation,,html-keyboard-response,304,196188,0.0-1.0-451.0-0.0,0,0,50795,,,,,,64.0,,,,,,,,,,,,,,,,,,,,,,147.5,1.42,,
305,,isi,,html-keyboard-response,305,196292,0.0-1.0-453.0,0,0,50795,,,,,,,,,,,,,,,,,,,,,,,,,,,,148.5,1.0,,
306,,feedback,,html-keyboard-response,306,197294,0.0-1.0-454.0-0.0,0,0,50795,,,,,,64.0,,,,,,,,,,,,,,,,,,,,,,149.5,1.0,,
307,,iti,,html-keyboard-response,307,197395,0.0-1.0-455.0,0,0,50795,,,,,,,,,,,,,,,,,,,,,,,,,,,,151.0,1.5,,
308,,rl_choice,,html-keyboard-response,308,197467,0.0-1.0-457.0,0,0,50795,,71.0,,,68.0,65.0,65.0,2.0,hard,1000.0,1000.0,0.0,40.0,60.0,60.0,80.0,D,C,/static/Simple_RL/Stimuli/Fractals_stims/D.jpg,/static/Simple_RL/Stimuli/Fractals_stims/C.jpg,1.0,40.0,60.0,60.0,80.0,D,C,151.071,0.071,0.0,
309,,rl_choice_confirmation,,html-keyboard-response,309,198898,0.0-1.0-458.0-0.0,0,0,50795,,,,,,65.0,,,,,,,,,,,,,,,,,,,,,,152.5,1.429,,
310,,isi,,html-keyboard-response,310,199002,0.0-1.0-460.0,0,0,50795,,,,,,,,,,,,,,,,,,,,,,,,,,,,153.5,1.0,,
311,,feedback,,html-keyboard-response,311,200007,0.0-1.0-461.0-0.0,0,0,50795,,,,,,65.0,,,,,,,,,,,,,,,,,,,,,,154.5,1.0,,
312,,iti,,html-keyboard-response,312,200110,0.0-1.0-462.0,0,0,50795,,,,,,,,,,,,,,,,,,,,,,,,,,,,155.5,1.0,,
313,,rl_choice,,html-keyboard-response,313,200132,0.0-1.0-464.0,0,0,50795,,21.0,,,75.0,66.0,66.0,2.0,easy,2000.0,1500.0,1.0,80.0,20.0,80.0,0.0,A,B,/static/Simple_RL/Stimuli/Fractals_stims/A.jpg,/static/Simple_RL/Stimuli/Fractals_stims/B.jpg,0.0,20.0,80.0,0.0,80.0,B,A,155.52100000000002,0.021,0.0,
314,,rl_choice_confirmation,,html-keyboard-response,314,201616,0.0-1.0-465.0-0.0,0,0,50795,,,,,,66.0,,,,,,,,,,,,,,,,,,,,,,157.0,1.479,,
315,,isi,,html-keyboard-response,315,201719,0.0-1.0-467.0,0,0,50795,,,,,,,,,,,,,,,,,,,,,,,,,,,,158.5,1.5,,
316,,feedback,,html-keyboard-response,316,202722,0.0-1.0-468.0-0.0,0,0,50795,,,,,,66.0,,,,,,,,,,,,,,,,,,,,,,159.5,1.0,,
317,,iti,,html-keyboard-response,317,202823,0.0-1.0-469.0,0,0,50795,,,,,,,,,,,,,,,,,,,,,,,,,,,,161.5,2.0,,
318,,rl_choice,,html-keyboard-response,318,202852,0.0-1.0-471.0,0,0,50795,,28.0,,,75.0,67.0,67.0,2.0,easy,1000.0,1000.0,0.0,20.0,80.0,40.0,80.0,B,A,/static/Simple_RL/Stimuli/Fractals_stims/B.jpg,/static/Simple_RL/Stimuli/Fractals_stims/A.jpg,0.0,80.0,20.0,80.0,40.0,A,B,161.528,0.027999999999999997,0.0,
319,,rl_choice_confirmation,,html-keyboard-response,319,204327,0.0-1.0-472.0-0.0,0,0,50795,,,,,,67.0,,,,,,,,,,,,,,,,,,,,,,163.0,1.472,,
320,,isi,,html-keyboard-response,320,204429,0.0-1.0-474.0,0,0,50795,,,,,,,,,,,,,,,,,,,,,,,,,,,,164.0,1.0,,
321,,feedback,,html-keyboard-response,321,205431,0.0-1.0-475.0-0.0,0,0,50795,,,,,,67.0,,,,,,,,,,,,,,,,,,,,,,165.0,1.0,,
322,,iti,,html-keyboard-response,322,205533,0.0-1.0-476.0,0,0,50795,,,,,,,,,,,,,,,,,,,,,,,,,,,,166.0,1.0,,
323,,rl_choice,,html-keyboard-response,323,207037,0.0-1.0-478.0,0,0,50795,,,,,,68.0,68.0,2.0,hard,1000.0,1500.0,1.0,60.0,40.0,40.0,60.0,C,D,/static/Simple_RL/Stimuli/Fractals_stims/C.jpg,/static/Simple_RL/Stimuli/Fractals_stims/D.jpg,,,,,,,,167.5,1.5,1.0,
324,,rl_choice_warning,,html-keyboard-response,324,208042,0.0-1.0-480.0-0.0,1,0,50795,,,,,,,,,,,,,,,,,,,,,,,,,,,,168.5,1.0,,
325,,isi,,html-keyboard-response,325,208146,0.0-1.0-481.0,0,0,50795,,,,,,,,,,,,,,,,,,,,,,,,,,,,170.0,1.5,,
326,,iti,,html-keyboard-response,326,208249,0.0-1.0-483.0,0,0,50795,,,,,,,,,,,,,,,,,,,,,,,,,,,,171.0,1.0,,
327,,rl_choice,,html-keyboard-response,327,209751,0.0-1.0-485.0,0,0,50795,,,,,,69.0,69.0,2.0,hard,1000.0,3000.0,1.0,60.0,40.0,40.0,20.0,C,D,/static/Simple_RL/Stimuli/Fractals_stims/C.jpg,/static/Simple_RL/Stimuli/Fractals_stims/D.jpg,,,,,,,,172.5,1.5,1.0,
328,,rl_choice_warning,,html-keyboard-response,328,210754,0.0-1.0-487.0-0.0,1,0,50795,,,,,,,,,,,,,,,,,,,,,,,,,,,,173.5,1.0,,
329,,isi,,html-keyboard-response,329,210859,0.0-1.0-488.0,0,0,50795,,,,,,,,,,,,,,,,,,,,,,,,,,,,176.5,3.0,,
330,,iti,,html-keyboard-response,330,210963,0.0-1.0-490.0,0,0,50795,,,,,,,,,,,,,,,,,,,,,,,,,,,,177.5,1.0,,
331,,rl_choice,,html-keyboard-response,331,212466,0.0-1.0-492.0,0,0,50795,,,,,,70.0,70.0,2.0,hard,1000.0,1000.0,0.0,40.0,60.0,40.0,60.0,D,C,/static/Simple_RL/Stimuli/Fractals_stims/D.jpg,/static/Simple_RL/Stimuli/Fractals_stims/C.jpg,,,,,,,,179.0,1.5,1.0,
332,,rl_choice_warning,,html-keyboard-response,332,213469,0.0-1.0-494.0-0.0,1,0,50795,,,,,,,,,,,,,,,,,,,,,,,,,,,,180.0,1.0,,
333,,isi,,html-keyboard-response,333,213573,0.0-1.0-495.0,0,0,50795,,,,,,,,,,,,,,,,,,,,,,,,,,,,181.0,1.0,,
334,,iti,,html-keyboard-response,334,213677,0.0-1.0-497.0,0,0,50795,,,,,,,,,,,,,,,,,,,,,,,,,,,,182.0,1.0,,
335,,rl_choice,,html-keyboard-response,335,215180,0.0-1.0-499.0,0,0,50795,,,,,,71.0,71.0,2.0,easy,2000.0,1000.0,0.0,20.0,80.0,20.0,100.0,B,A,/static/Simple_RL/Stimuli/Fractals_stims/B.jpg,/static/Simple_RL/Stimuli/Fractals_stims/A.jpg,,,,,,,,183.5,1.5,1.0,
336,,rl_choice_warning,,html-keyboard-response,336,216183,0.0-1.0-501.0-0.0,1,0,50795,,,,,,,,,,,,,,,,,,,,,,,,,,,,184.5,1.0,,
337,,isi,,html-keyboard-response,337,216284,0.0-1.0-502.0,0,0,50795,,,,,,,,,,,,,,,,,,,,,,,,,,,,185.5,1.0,,
338,,iti,,html-keyboard-response,338,216385,0.0-1.0-504.0,0,0,50795,,,,,,,,,,,,,,,,,,,,,,,,,,,,187.5,2.0,,
339,,rl_choice,,html-keyboard-response,339,218061,0.0-1.0-506.0,0,0,50795,,,,,,72.0,72.0,2.0,easy,1500.0,1000.0,0.0,20.0,80.0,20.0,60.0,B,A,/static/Simple_RL/Stimuli/Fractals_stims/B.jpg,/static/Simple_RL/Stimuli/Fractals_stims/A.jpg,,,,,,,,189.0,1.5,1.0,
340,,rl_choice_warning,,html-keyboard-response,340,220380,0.0-1.0-508.0-0.0,1,0,50795,,,,,,,,,,,,,,,,,,,,,,,,,,,,190.0,1.0,,
341,,isi,,html-keyboard-response,341,221037,0.0-1.0-509.0,0,0,50795,,,,,,,,,,,,,,,,,,,,,,,,,,,,191.0,1.0,,
342,,iti,,html-keyboard-response,342,222309,0.0-1.0-511.0,0,0,50795,,,,,,,,,,,,,,,,,,,,,,,,,,,,192.5,1.5,,
343,,rl_choice,,html-keyboard-response,343,224041,0.0-1.0-513.0,0,0,50795,,,,,,73.0,73.0,2.0,easy,1500.0,2000.0,0.0,20.0,80.0,20.0,80.0,B,A,/static/Simple_RL/Stimuli/Fractals_stims/B.jpg,/static/Simple_RL/Stimuli/Fractals_stims/A.jpg,,,,,,,,194.0,1.5,1.0,
344,,rl_choice_warning,,html-keyboard-response,344,226309,0.0-1.0-515.0-0.0,1,0,50795,,,,,,,,,,,,,,,,,,,,,,,,,,,,195.0,1.0,,
345,,isi,,html-keyboard-response,345,227053,0.0-1.0-516.0,0,0,50795,,,,,,,,,,,,,,,,,,,,,,,,,,,,197.0,2.0,,
346,,iti,,html-keyboard-response,346,228199,0.0-1.0-518.0,0,0,50795,,,,,,,,,,,,,,,,,,,,,,,,,,,,198.5,1.5,,
347,,rl_choice,,html-keyboard-response,347,230200,0.0-1.0-520.0,0,0,50795,,,,,,74.0,74.0,2.0,hard,1000.0,1500.0,1.0,60.0,40.0,40.0,60.0,C,D,/static/Simple_RL/Stimuli/Fractals_stims/C.jpg,/static/Simple_RL/Stimuli/Fractals_stims/D.jpg,,,,,,,,200.0,1.5,1.0,
348,,rl_choice_warning,,html-keyboard-response,348,232466,0.0-1.0-522.0-0.0,1,0,50795,,,,,,,,,,,,,,,,,,,,,,,,,,,,201.0,1.0,,
349,,isi,,html-keyboard-response,349,233320,0.0-1.0-523.0,0,0,50795,,,,,,,,,,,,,,,,,,,,,,,,,,,,202.5,1.5,,
350,,iti,,html-keyboard-response,350,234037,0.0-1.0-525.0,0,0,50795,,,,,,,,,,,,,,,,,,,,,,,,,,,,203.5,1.0,,
351,,rl_choice,,html-keyboard-response,351,236038,0.0-1.0-527.0,0,0,50795,,,,,,75.0,75.0,2.0,hard,1000.0,1500.0,1.0,60.0,40.0,60.0,20.0,C,D,/static/Simple_RL/Stimuli/Fractals_stims/C.jpg,/static/Simple_RL/Stimuli/Fractals_stims/D.jpg,,,,,,,,205.0,1.5,1.0,
352,,rl_choice_warning,,html-keyboard-response,352,238558,0.0-1.0-529.0-0.0,1,0,50795,,,,,,,,,,,,,,,,,,,,,,,,,,,,206.0,1.0,,
353,,isi,,html-keyboard-response,353,239211,0.0-1.0-530.0,0,0,50795,,,,,,,,,,,,,,,,,,,,,,,,,,,,207.5,1.5,,
354,,iti,,html-keyboard-response,354,240038,0.0-1.0-532.0,0,0,50795,,,,,,,,,,,,,,,,,,,,,,,,,,,,208.5,1.0,,
355,,rl_choice,,html-keyboard-response,355,242038,0.0-1.0-534.0,0,0,50795,,,,,,76.0,76.0,2.0,hard,3000.0,1000.0,1.0,60.0,40.0,40.0,60.0,C,D,/static/Simple_RL/Stimuli/Fractals_stims/C.jpg,/static/Simple_RL/Stimuli/Fractals_stims/D.jpg,,,,,,,,210.0,1.5,1.0,
356,,rl_choice_warning,,html-keyboard-response,356,244037,0.0-1.0-536.0-0.0,1,0,50795,,,,,,,,,,,,,,,,,,,,,,,,,,,,211.0,1.0,,
357,,isi,,html-keyboard-response,357,245037,0.0-1.0-537.0,0,0,50795,,,,,,,,,,,,,,,,,,,,,,,,,,,,212.0,1.0,,
358,,iti,,html-keyboard-response,358,246038,0.0-1.0-539.0,0,0,50795,,,,,,,,,,,,,,,,,,,,,,,,,,,,215.0,3.0,,
359,,rl_choice,,html-keyboard-response,359,248327,0.0-1.0-541.0,0,0,50795,,,,,,77.0,77.0,2.0,easy,1000.0,1000.0,0.0,20.0,80.0,20.0,60.0,B,A,/static/Simple_RL/Stimuli/Fractals_stims/B.jpg,/static/Simple_RL/Stimuli/Fractals_stims/A.jpg,,,,,,,,216.5,1.5,1.0,
360,,rl_choice_warning,,html-keyboard-response,360,250038,0.0-1.0-543.0-0.0,1,0,50795,,,,,,,,,,,,,,,,,,,,,,,,,,,,217.5,1.0,,
361,,isi,,html-keyboard-response,361,251044,0.0-1.0-544.0,0,0,50795,,,,,,,,,,,,,,,,,,,,,,,,,,,,218.5,1.0,,
362,,iti,,html-keyboard-response,362,252187,0.0-1.0-546.0,0,0,50795,,,,,,,,,,,,,,,,,,,,,,,,,,,,219.5,1.0,,
363,,rl_choice,,html-keyboard-response,363,254038,0.0-1.0-548.0,0,0,50795,,,,,,78.0,78.0,2.0,easy,3000.0,1000.0,0.0,20.0,80.0,0.0,100.0,B,A,/static/Simple_RL/Stimuli/Fractals_stims/B.jpg,/static/Simple_RL/Stimuli/Fractals_stims/A.jpg,,,,,,,,221.0,1.5,1.0,
364,,rl_choice_warning,,html-keyboard-response,364,256159,0.0-1.0-550.0-0.0,1,0,50795,,,,,,,,,,,,,,,,,,,,,,,,,,,,222.0,1.0,,
365,,isi,,html-keyboard-response,365,257038,0.0-1.0-551.0,0,0,50795,,,,,,,,,,,,,,,,,,,,,,,,,,,,223.0,1.0,,
366,,iti,,html-keyboard-response,366,258158,0.0-1.0-553.0,0,0,50795,,,,,,,,,,,,,,,,,,,,,,,,,,,,226.0,3.0,,
367,,rl_choice,,html-keyboard-response,367,260160,0.0-1.0-555.0,0,0,50795,,,,,,79.0,79.0,2.0,hard,2000.0,1500.0,1.0,60.0,40.0,60.0,40.0,C,D,/static/Simple_RL/Stimuli/Fractals_stims/C.jpg,/static/Simple_RL/Stimuli/Fractals_stims/D.jpg,,,,,,,,227.5,1.5,1.0,
368,,rl_choice_warning,,html-keyboard-response,368,262038,0.0-1.0-557.0-0.0,1,0,50795,,,,,,,,,,,,,,,,,,,,,,,,,,,,228.5,1.0,,
369,,isi,,html-keyboard-response,369,263038,0.0-1.0-558.0,0,0,50795,,,,,,,,,,,,,,,,,,,,,,,,,,,,230.0,1.5,,
370,,iti,,html-keyboard-response,370,264148,0.0-1.0-560.0,0,0,50795,,,,,,,,,,,,,,,,,,,,,,,,,,,,232.0,2.0,,0.89
371,,final_tally,,html-keyboard-response,371,339346,0.0-2.0,0,0,50795,,75196.0,,,68.0,,,,,,,,,,,,,,,,,,,,,,,,,,
