,success,ttype,start_time,trial_type,trial_index,time_elapsed,internal_node_id,warning,missed_checkup,PID,view_history,rt,responses,repeat_instructions,key_press,index,trial_num,block,condition,iti,isi,high_group_on_left,left_group_value,right_group_value,left_item_value,right_item_value,left_img,right_img,left_img_path,right_img_path,left_chosen,chosen_group_value,unchosen_group_value,chosen_item_value,unchosen_item_value,chosen_img,unchosen_img,onset,duration,no_response,total_bonus_tally
0,True,full_screen,d06032022hr1718,fullscreen,0,3503,0.0-0.0,0,0,54497,,,,,,,,,,,,,,,,,,,,,,,,,,,,,,,
1,,size_instructions,,instructions,1,65414,0.0-1.0-0.0-0.0,0,0,54497,"[{""page_index"":0,""viewing_time"":3986},{""page_index"":1,""viewing_time"":7136},{""page_index"":2,""viewing_time"":41189},{""page_index"":3,""viewing_time"":5565},{""page_index"":4,""viewing_time"":2593},{""page_index"":5,""viewing_time"":1437}]",61907.0,,,,,,,,,,,,,,,,,,,,,,,,,,,,,
2,,rl_comprehension_check,,survey-multi-choice,2,74275,0.0-1.0-0.0-1.0,0,0,54497,,8858.0,"{""Q0"":""True"",""Q1"":""True"",""Q2"":""D for left and K for right""}",0.0,,,,,,,,,,,,,,,,,,,,,,,,,,,
3,,,,html-keyboard-response,3,77640,0.0-1.0-1.0,0,0,54497,,3360.0,,,68.0,,,,,,,,,,,,,,,,,,,,,,,,,,
4,,rl_choice,,html-keyboard-response,4,78418,0.0-1.0-2.0,0,0,54497,,775.0,,,68.0,0.0,0.0,1.0,hard,3500.0,2000.0,1.0,60.0,40.0,80.0,40.0,A,B,/static/Simple_RL/Stimuli/Fractals_stims/A.jpg,/static/Simple_RL/Stimuli/Fractals_stims/B.jpg,1.0,60.0,40.0,80.0,40.0,A,B,0.775,0.775,0.0,
5,,rl_choice_confirmation,,html-keyboard-response,5,79148,0.0-1.0-3.0-0.0,0,0,54497,,,,,,0.0,,,,,,,,,,,,,,,,,,,,,,1.5,0.725,,
6,,isi,,html-keyboard-response,6,81151,0.0-1.0-5.0,0,0,54497,,,,,,,,,,,,,,,,,,,,,,,,,,,,3.5,2.0,,
7,,feedback,,html-keyboard-response,7,82155,0.0-1.0-6.0-0.0,0,0,54497,,,,,,0.0,,,,,,,,,,,,,,,,,,,,,,4.5,1.0,,
8,,iti,,html-keyboard-response,8,85658,0.0-1.0-7.0,0,0,54497,,,,,,,,,,,,,,,,,,,,,,,,,,,,8.0,3.5,,
9,,rl_choice,,html-keyboard-response,9,86567,0.0-1.0-9.0,0,0,54497,,906.0,,,75.0,1.0,1.0,1.0,hard,1000.0,2000.0,1.0,60.0,40.0,80.0,20.0,A,B,/static/Simple_RL/Stimuli/Fractals_stims/A.jpg,/static/Simple_RL/Stimuli/Fractals_stims/B.jpg,0.0,40.0,60.0,20.0,80.0,B,A,8.906,0.906,0.0,
10,,rl_choice_confirmation,,html-keyboard-response,10,87165,0.0-1.0-10.0-0.0,0,0,54497,,,,,,1.0,,,,,,,,,,,,,,,,,,,,,,9.5,0.594,,
11,,isi,,html-keyboard-response,11,89168,0.0-1.0-12.0,0,0,54497,,,,,,,,,,,,,,,,,,,,,,,,,,,,11.5,2.0,,
12,,feedback,,html-keyboard-response,12,90171,0.0-1.0-13.0-0.0,0,0,54497,,,,,,1.0,,,,,,,,,,,,,,,,,,,,,,12.5,1.0,,
13,,iti,,html-keyboard-response,13,91174,0.0-1.0-14.0,0,0,54497,,,,,,,,,,,,,,,,,,,,,,,,,,,,13.5,1.0,,
14,,rl_choice,,html-keyboard-response,14,91959,0.0-1.0-16.0,0,0,54497,,783.0,,,68.0,2.0,2.0,1.0,easy,2000.0,2000.0,0.0,20.0,80.0,40.0,100.0,D,C,/static/Simple_RL/Stimuli/Fractals_stims/D.jpg,/static/Simple_RL/Stimuli/Fractals_stims/C.jpg,1.0,20.0,80.0,40.0,100.0,D,C,14.283,0.783,0.0,
15,,rl_choice_confirmation,,html-keyboard-response,15,92679,0.0-1.0-17.0-0.0,0,0,54497,,,,,,2.0,,,,,,,,,,,,,,,,,,,,,,15.0,0.717,,
16,,isi,,html-keyboard-response,16,94680,0.0-1.0-19.0,0,0,54497,,,,,,,,,,,,,,,,,,,,,,,,,,,,17.0,2.0,,
17,,feedback,,html-keyboard-response,17,95684,0.0-1.0-20.0-0.0,0,0,54497,,,,,,2.0,,,,,,,,,,,,,,,,,,,,,,18.0,1.0,,
18,,iti,,html-keyboard-response,18,97686,0.0-1.0-21.0,0,0,54497,,,,,,,,,,,,,,,,,,,,,,,,,,,,20.0,2.0,,
19,,rl_choice,,html-keyboard-response,19,98508,0.0-1.0-23.0,0,0,54497,,820.0,,,75.0,3.0,3.0,1.0,hard,1500.0,1000.0,0.0,40.0,60.0,20.0,60.0,B,A,/static/Simple_RL/Stimuli/Fractals_stims/B.jpg,/static/Simple_RL/Stimuli/Fractals_stims/A.jpg,0.0,60.0,40.0,60.0,20.0,A,B,20.82,0.82,0.0,
20,,rl_choice_confirmation,,html-keyboard-response,20,99191,0.0-1.0-24.0-0.0,0,0,54497,,,,,,3.0,,,,,,,,,,,,,,,,,,,,,,21.5,0.68,,
21,,isi,,html-keyboard-response,21,100194,0.0-1.0-26.0,0,0,54497,,,,,,,,,,,,,,,,,,,,,,,,,,,,22.5,1.0,,
22,,feedback,,html-keyboard-response,22,101198,0.0-1.0-27.0-0.0,0,0,54497,,,,,,3.0,,,,,,,,,,,,,,,,,,,,,,23.5,1.0,,
23,,iti,,html-keyboard-response,23,102700,0.0-1.0-28.0,0,0,54497,,,,,,,,,,,,,,,,,,,,,,,,,,,,25.0,1.5,,
24,,rl_choice,,html-keyboard-response,24,103261,0.0-1.0-30.0,0,0,54497,,559.0,,,75.0,4.0,4.0,1.0,hard,1500.0,3000.0,0.0,40.0,60.0,40.0,60.0,B,A,/static/Simple_RL/Stimuli/Fractals_stims/B.jpg,/static/Simple_RL/Stimuli/Fractals_stims/A.jpg,0.0,60.0,40.0,60.0,40.0,A,B,25.559,0.559,0.0,
25,,rl_choice_confirmation,,html-keyboard-response,25,104206,0.0-1.0-31.0-0.0,0,0,54497,,,,,,4.0,,,,,,,,,,,,,,,,,,,,,,26.5,0.941,,
26,,isi,,html-keyboard-response,26,107208,0.0-1.0-33.0,0,0,54497,,,,,,,,,,,,,,,,,,,,,,,,,,,,29.5,3.0,,
27,,feedback,,html-keyboard-response,27,108212,0.0-1.0-34.0-0.0,0,0,54497,,,,,,4.0,,,,,,,,,,,,,,,,,,,,,,30.5,1.0,,
28,,iti,,html-keyboard-response,28,109714,0.0-1.0-35.0,0,0,54497,,,,,,,,,,,,,,,,,,,,,,,,,,,,32.0,1.5,,
29,,rl_choice,,html-keyboard-response,29,110789,0.0-1.0-37.0,0,0,54497,,1073.0,,,75.0,5.0,5.0,1.0,easy,1500.0,1500.0,1.0,80.0,20.0,80.0,0.0,C,D,/static/Simple_RL/Stimuli/Fractals_stims/C.jpg,/static/Simple_RL/Stimuli/Fractals_stims/D.jpg,0.0,20.0,80.0,0.0,80.0,D,C,33.073,1.073,0.0,
30,,rl_choice_confirmation,,html-keyboard-response,30,111219,0.0-1.0-38.0-0.0,0,0,54497,,,,,,5.0,,,,,,,,,,,,,,,,,,,,,,33.5,0.427,,
31,,isi,,html-keyboard-response,31,112721,0.0-1.0-40.0,0,0,54497,,,,,,,,,,,,,,,,,,,,,,,,,,,,35.0,1.5,,
32,,feedback,,html-keyboard-response,32,113725,0.0-1.0-41.0-0.0,0,0,54497,,,,,,5.0,,,,,,,,,,,,,,,,,,,,,,36.0,1.0,,
33,,iti,,html-keyboard-response,33,115228,0.0-1.0-42.0,0,0,54497,,,,,,,,,,,,,,,,,,,,,,,,,,,,37.5,1.5,,
34,,rl_choice,,html-keyboard-response,34,115749,0.0-1.0-44.0,0,0,54497,,519.0,,,68.0,6.0,6.0,1.0,easy,1000.0,1000.0,1.0,80.0,20.0,60.0,40.0,C,D,/static/Simple_RL/Stimuli/Fractals_stims/C.jpg,/static/Simple_RL/Stimuli/Fractals_stims/D.jpg,1.0,80.0,20.0,60.0,40.0,C,D,38.019,0.519,0.0,
35,,rl_choice_confirmation,,html-keyboard-response,35,116734,0.0-1.0-45.0-0.0,0,0,54497,,,,,,6.0,,,,,,,,,,,,,,,,,,,,,,39.0,0.981,,
36,,isi,,html-keyboard-response,36,117738,0.0-1.0-47.0,0,0,54497,,,,,,,,,,,,,,,,,,,,,,,,,,,,40.0,1.0,,
37,,feedback,,html-keyboard-response,37,118742,0.0-1.0-48.0-0.0,0,0,54497,,,,,,6.0,,,,,,,,,,,,,,,,,,,,,,41.0,1.0,,
38,,iti,,html-keyboard-response,38,119744,0.0-1.0-49.0,0,0,54497,,,,,,,,,,,,,,,,,,,,,,,,,,,,42.0,1.0,,
39,,rl_choice,,html-keyboard-response,39,120581,0.0-1.0-51.0,0,0,54497,,834.0,,,75.0,7.0,7.0,1.0,easy,3000.0,2000.0,0.0,20.0,80.0,0.0,80.0,D,C,/static/Simple_RL/Stimuli/Fractals_stims/D.jpg,/static/Simple_RL/Stimuli/Fractals_stims/C.jpg,0.0,80.0,20.0,80.0,0.0,C,D,42.834,0.834,0.0,
40,,rl_choice_confirmation,,html-keyboard-response,40,121250,0.0-1.0-52.0-0.0,0,0,54497,,,,,,7.0,,,,,,,,,,,,,,,,,,,,,,43.5,0.666,,
41,,isi,,html-keyboard-response,41,123252,0.0-1.0-54.0,0,0,54497,,,,,,,,,,,,,,,,,,,,,,,,,,,,45.5,2.0,,
42,,feedback,,html-keyboard-response,42,124256,0.0-1.0-55.0-0.0,0,0,54497,,,,,,7.0,,,,,,,,,,,,,,,,,,,,,,46.5,1.0,,
43,,iti,,html-keyboard-response,43,127259,0.0-1.0-56.0,0,0,54497,,,,,,,,,,,,,,,,,,,,,,,,,,,,49.5,3.0,,
44,,rl_choice,,html-keyboard-response,44,127775,0.0-1.0-58.0,0,0,54497,,513.0,,,75.0,8.0,8.0,1.0,hard,2000.0,3500.0,0.0,40.0,60.0,40.0,60.0,B,A,/static/Simple_RL/Stimuli/Fractals_stims/B.jpg,/static/Simple_RL/Stimuli/Fractals_stims/A.jpg,0.0,60.0,40.0,60.0,40.0,A,B,50.013,0.513,0.0,
45,,rl_choice_confirmation,,html-keyboard-response,45,128766,0.0-1.0-59.0-0.0,0,0,54497,,,,,,8.0,,,,,,,,,,,,,,,,,,,,,,51.0,0.987,,
46,,isi,,html-keyboard-response,46,132268,0.0-1.0-61.0,0,0,54497,,,,,,,,,,,,,,,,,,,,,,,,,,,,54.5,3.5,,
47,,feedback,,html-keyboard-response,47,133272,0.0-1.0-62.0-0.0,0,0,54497,,,,,,8.0,,,,,,,,,,,,,,,,,,,,,,55.5,1.0,,
48,,iti,,html-keyboard-response,48,135284,0.0-1.0-63.0,0,0,54497,,,,,,,,,,,,,,,,,,,,,,,,,,,,57.5,2.0,,
49,,rl_choice,,html-keyboard-response,49,135894,0.0-1.0-65.0,0,0,54497,,608.0,,,68.0,9.0,9.0,1.0,hard,2000.0,1000.0,1.0,60.0,40.0,60.0,20.0,A,B,/static/Simple_RL/Stimuli/Fractals_stims/A.jpg,/static/Simple_RL/Stimuli/Fractals_stims/B.jpg,1.0,60.0,40.0,60.0,20.0,A,B,58.108,0.608,0.0,
50,,rl_choice_confirmation,,html-keyboard-response,50,136790,0.0-1.0-66.0-0.0,0,0,54497,,,,,,9.0,,,,,,,,,,,,,,,,,,,,,,59.0,0.892,,
51,,isi,,html-keyboard-response,51,137792,0.0-1.0-68.0,0,0,54497,,,,,,,,,,,,,,,,,,,,,,,,,,,,60.0,1.0,,
52,,feedback,,html-keyboard-response,52,138796,0.0-1.0-69.0-0.0,0,0,54497,,,,,,9.0,,,,,,,,,,,,,,,,,,,,,,61.0,1.0,,
53,,iti,,html-keyboard-response,53,140799,0.0-1.0-70.0,0,0,54497,,,,,,,,,,,,,,,,,,,,,,,,,,,,63.0,2.0,,
54,,rl_choice,,html-keyboard-response,54,141191,0.0-1.0-72.0,0,0,54497,,390.0,,,75.0,10.0,10.0,1.0,easy,1000.0,1000.0,0.0,20.0,80.0,0.0,80.0,D,C,/static/Simple_RL/Stimuli/Fractals_stims/D.jpg,/static/Simple_RL/Stimuli/Fractals_stims/C.jpg,0.0,80.0,20.0,80.0,0.0,C,D,63.39,0.39,0.0,
55,,rl_choice_confirmation,,html-keyboard-response,55,142305,0.0-1.0-73.0-0.0,0,0,54497,,,,,,10.0,,,,,,,,,,,,,,,,,,,,,,64.5,1.11,,
56,,isi,,html-keyboard-response,56,143308,0.0-1.0-75.0,0,0,54497,,,,,,,,,,,,,,,,,,,,,,,,,,,,65.5,1.0,,
57,,feedback,,html-keyboard-response,57,144312,0.0-1.0-76.0-0.0,0,0,54497,,,,,,10.0,,,,,,,,,,,,,,,,,,,,,,66.5,1.0,,
58,,iti,,html-keyboard-response,58,145315,0.0-1.0-77.0,0,0,54497,,,,,,,,,,,,,,,,,,,,,,,,,,,,67.5,1.0,,
59,,rl_choice,,html-keyboard-response,59,145753,0.0-1.0-79.0,0,0,54497,,435.0,,,75.0,11.0,11.0,1.0,hard,1000.0,2000.0,0.0,40.0,60.0,40.0,60.0,B,A,/static/Simple_RL/Stimuli/Fractals_stims/B.jpg,/static/Simple_RL/Stimuli/Fractals_stims/A.jpg,0.0,60.0,40.0,60.0,40.0,A,B,67.935,0.435,0.0,
60,,rl_choice_confirmation,,html-keyboard-response,60,146821,0.0-1.0-80.0-0.0,0,0,54497,,,,,,11.0,,,,,,,,,,,,,,,,,,,,,,69.0,1.065,,
61,,isi,,html-keyboard-response,61,148823,0.0-1.0-82.0,0,0,54497,,,,,,,,,,,,,,,,,,,,,,,,,,,,71.0,2.0,,
62,,feedback,,html-keyboard-response,62,149827,0.0-1.0-83.0-0.0,0,0,54497,,,,,,11.0,,,,,,,,,,,,,,,,,,,,,,72.0,1.0,,
63,,iti,,html-keyboard-response,63,150830,0.0-1.0-84.0,0,0,54497,,,,,,,,,,,,,,,,,,,,,,,,,,,,73.0,1.0,,
64,,rl_choice,,html-keyboard-response,64,151239,0.0-1.0-86.0,0,0,54497,,406.0,,,75.0,12.0,12.0,1.0,hard,1000.0,1000.0,0.0,40.0,60.0,60.0,80.0,B,A,/static/Simple_RL/Stimuli/Fractals_stims/B.jpg,/static/Simple_RL/Stimuli/Fractals_stims/A.jpg,0.0,60.0,40.0,80.0,60.0,A,B,73.406,0.406,0.0,
65,,rl_choice_confirmation,,html-keyboard-response,65,152341,0.0-1.0-87.0-0.0,0,0,54497,,,,,,12.0,,,,,,,,,,,,,,,,,,,,,,74.5,1.094,,
66,,isi,,html-keyboard-response,66,153343,0.0-1.0-89.0,0,0,54497,,,,,,,,,,,,,,,,,,,,,,,,,,,,75.5,1.0,,
67,,feedback,,html-keyboard-response,67,154346,0.0-1.0-90.0-0.0,0,0,54497,,,,,,12.0,,,,,,,,,,,,,,,,,,,,,,76.5,1.0,,
68,,iti,,html-keyboard-response,68,155349,0.0-1.0-91.0,0,0,54497,,,,,,,,,,,,,,,,,,,,,,,,,,,,77.5,1.0,,
69,,rl_choice,,html-keyboard-response,69,155767,0.0-1.0-93.0,0,0,54497,,415.0,,,68.0,13.0,13.0,1.0,hard,3000.0,1500.0,1.0,60.0,40.0,40.0,60.0,A,B,/static/Simple_RL/Stimuli/Fractals_stims/A.jpg,/static/Simple_RL/Stimuli/Fractals_stims/B.jpg,1.0,60.0,40.0,40.0,60.0,A,B,77.915,0.415,0.0,
70,,rl_choice_confirmation,,html-keyboard-response,70,156855,0.0-1.0-94.0-0.0,0,0,54497,,,,,,13.0,,,,,,,,,,,,,,,,,,,,,,79.0,1.085,,
71,,isi,,html-keyboard-response,71,158359,0.0-1.0-96.0,0,0,54497,,,,,,,,,,,,,,,,,,,,,,,,,,,,80.5,1.5,,
72,,feedback,,html-keyboard-response,72,159362,0.0-1.0-97.0-0.0,0,0,54497,,,,,,13.0,,,,,,,,,,,,,,,,,,,,,,81.5,1.0,,
73,,iti,,html-keyboard-response,73,162365,0.0-1.0-98.0,0,0,54497,,,,,,,,,,,,,,,,,,,,,,,,,,,,84.5,3.0,,
74,,rl_choice,,html-keyboard-response,74,162831,0.0-1.0-100.0,0,0,54497,,463.0,,,68.0,14.0,14.0,1.0,easy,1500.0,1000.0,1.0,80.0,20.0,100.0,40.0,C,D,/static/Simple_RL/Stimuli/Fractals_stims/C.jpg,/static/Simple_RL/Stimuli/Fractals_stims/D.jpg,1.0,80.0,20.0,100.0,40.0,C,D,84.963,0.463,0.0,
75,,rl_choice_confirmation,,html-keyboard-response,75,163870,0.0-1.0-101.0-0.0,0,0,54497,,,,,,14.0,,,,,,,,,,,,,,,,,,,,,,86.0,1.037,,
76,,isi,,html-keyboard-response,76,164872,0.0-1.0-103.0,0,0,54497,,,,,,,,,,,,,,,,,,,,,,,,,,,,87.0,1.0,,
77,,feedback,,html-keyboard-response,77,165876,0.0-1.0-104.0-0.0,0,0,54497,,,,,,14.0,,,,,,,,,,,,,,,,,,,,,,88.0,1.0,,
78,,iti,,html-keyboard-response,78,167382,0.0-1.0-105.0,0,0,54497,,,,,,,,,,,,,,,,,,,,,,,,,,,,89.5,1.5,,
79,,rl_choice,,html-keyboard-response,79,167843,0.0-1.0-107.0,0,0,54497,,459.0,,,68.0,15.0,15.0,1.0,hard,1000.0,3000.0,1.0,60.0,40.0,60.0,60.0,A,B,/static/Simple_RL/Stimuli/Fractals_stims/A.jpg,/static/Simple_RL/Stimuli/Fractals_stims/B.jpg,1.0,60.0,40.0,60.0,60.0,A,B,89.959,0.459,0.0,
80,,rl_choice_confirmation,,html-keyboard-response,80,168888,0.0-1.0-108.0-0.0,0,0,54497,,,,,,15.0,,,,,,,,,,,,,,,,,,,,,,91.0,1.041,,
81,,isi,,html-keyboard-response,81,171893,0.0-1.0-110.0,0,0,54497,,,,,,,,,,,,,,,,,,,,,,,,,,,,94.0,3.0,,
82,,feedback,,html-keyboard-response,82,172896,0.0-1.0-111.0-0.0,0,0,54497,,,,,,15.0,,,,,,,,,,,,,,,,,,,,,,95.0,1.0,,
83,,iti,,html-keyboard-response,83,173899,0.0-1.0-112.0,0,0,54497,,,,,,,,,,,,,,,,,,,,,,,,,,,,96.0,1.0,,
84,,rl_choice,,html-keyboard-response,84,174319,0.0-1.0-114.0,0,0,54497,,417.0,,,68.0,16.0,16.0,1.0,hard,1500.0,1000.0,1.0,60.0,40.0,60.0,40.0,A,B,/static/Simple_RL/Stimuli/Fractals_stims/A.jpg,/static/Simple_RL/Stimuli/Fractals_stims/B.jpg,1.0,60.0,40.0,60.0,40.0,A,B,96.417,0.417,0.0,
85,,rl_choice_confirmation,,html-keyboard-response,85,175405,0.0-1.0-115.0-0.0,0,0,54497,,,,,,16.0,,,,,,,,,,,,,,,,,,,,,,97.5,1.083,,
86,,isi,,html-keyboard-response,86,176408,0.0-1.0-117.0,0,0,54497,,,,,,,,,,,,,,,,,,,,,,,,,,,,98.5,1.0,,
87,,feedback,,html-keyboard-response,87,177411,0.0-1.0-118.0-0.0,0,0,54497,,,,,,16.0,,,,,,,,,,,,,,,,,,,,,,99.5,1.0,,
88,,iti,,html-keyboard-response,88,178914,0.0-1.0-119.0,0,0,54497,,,,,,,,,,,,,,,,,,,,,,,,,,,,101.0,1.5,,
89,,rl_choice,,html-keyboard-response,89,179305,0.0-1.0-121.0,0,0,54497,,389.0,,,68.0,17.0,17.0,1.0,easy,2000.0,2000.0,1.0,80.0,20.0,100.0,40.0,C,D,/static/Simple_RL/Stimuli/Fractals_stims/C.jpg,/static/Simple_RL/Stimuli/Fractals_stims/D.jpg,1.0,80.0,20.0,100.0,40.0,C,D,101.389,0.389,0.0,
90,,rl_choice_confirmation,,html-keyboard-response,90,180421,0.0-1.0-122.0-0.0,0,0,54497,,,,,,17.0,,,,,,,,,,,,,,,,,,,,,,102.5,1.111,,
91,,isi,,html-keyboard-response,91,182423,0.0-1.0-124.0,0,0,54497,,,,,,,,,,,,,,,,,,,,,,,,,,,,104.5,2.0,,
92,,feedback,,html-keyboard-response,92,183426,0.0-1.0-125.0-0.0,0,0,54497,,,,,,17.0,,,,,,,,,,,,,,,,,,,,,,105.5,1.0,,
93,,iti,,html-keyboard-response,93,185429,0.0-1.0-126.0,0,0,54497,,,,,,,,,,,,,,,,,,,,,,,,,,,,107.5,2.0,,
94,,rl_choice,,html-keyboard-response,94,185876,0.0-1.0-128.0,0,0,54497,,445.0,,,68.0,18.0,18.0,1.0,hard,1000.0,1500.0,1.0,60.0,40.0,80.0,60.0,A,B,/static/Simple_RL/Stimuli/Fractals_stims/A.jpg,/static/Simple_RL/Stimuli/Fractals_stims/B.jpg,1.0,60.0,40.0,80.0,60.0,A,B,107.945,0.445,0.0,
95,,rl_choice_confirmation,,html-keyboard-response,95,186934,0.0-1.0-129.0-0.0,0,0,54497,,,,,,18.0,,,,,,,,,,,,,,,,,,,,,,109.0,1.055,,
96,,isi,,html-keyboard-response,96,188437,0.0-1.0-131.0,0,0,54497,,,,,,,,,,,,,,,,,,,,,,,,,,,,110.5,1.5,,
97,,feedback,,html-keyboard-response,97,189440,0.0-1.0-132.0-0.0,0,0,54497,,,,,,18.0,,,,,,,,,,,,,,,,,,,,,,111.5,1.0,,
98,,iti,,html-keyboard-response,98,190442,0.0-1.0-133.0,0,0,54497,,,,,,,,,,,,,,,,,,,,,,,,,,,,112.5,1.0,,
99,,rl_choice,,html-keyboard-response,99,190891,0.0-1.0-135.0,0,0,54497,,447.0,,,68.0,19.0,19.0,1.0,hard,1000.0,1000.0,1.0,60.0,40.0,60.0,20.0,A,B,/static/Simple_RL/Stimuli/Fractals_stims/A.jpg,/static/Simple_RL/Stimuli/Fractals_stims/B.jpg,1.0,60.0,40.0,60.0,20.0,A,B,112.947,0.447,0.0,
100,,rl_choice_confirmation,,html-keyboard-response,100,191948,0.0-1.0-136.0-0.0,0,0,54497,,,,,,19.0,,,,,,,,,,,,,,,,,,,,,,114.0,1.053,,
101,,isi,,html-keyboard-response,101,192951,0.0-1.0-138.0,0,0,54497,,,,,,,,,,,,,,,,,,,,,,,,,,,,115.0,1.0,,
102,,feedback,,html-keyboard-response,102,193954,0.0-1.0-139.0-0.0,0,0,54497,,,,,,19.0,,,,,,,,,,,,,,,,,,,,,,116.0,1.0,,
103,,iti,,html-keyboard-response,103,194957,0.0-1.0-140.0,0,0,54497,,,,,,,,,,,,,,,,,,,,,,,,,,,,117.0,1.0,,
104,,rl_choice,,html-keyboard-response,104,195342,0.0-1.0-142.0,0,0,54497,,383.0,,,75.0,20.0,20.0,1.0,easy,1000.0,1000.0,0.0,20.0,80.0,0.0,60.0,D,C,/static/Simple_RL/Stimuli/Fractals_stims/D.jpg,/static/Simple_RL/Stimuli/Fractals_stims/C.jpg,0.0,80.0,20.0,60.0,0.0,C,D,117.383,0.383,0.0,
105,,rl_choice_confirmation,,html-keyboard-response,105,196464,0.0-1.0-143.0-0.0,0,0,54497,,,,,,20.0,,,,,,,,,,,,,,,,,,,,,,118.5,1.117,,
106,,isi,,html-keyboard-response,106,197466,0.0-1.0-145.0,0,0,54497,,,,,,,,,,,,,,,,,,,,,,,,,,,,119.5,1.0,,
107,,feedback,,html-keyboard-response,107,198469,0.0-1.0-146.0-0.0,0,0,54497,,,,,,20.0,,,,,,,,,,,,,,,,,,,,,,120.5,1.0,,
108,,iti,,html-keyboard-response,108,199472,0.0-1.0-147.0,0,0,54497,,,,,,,,,,,,,,,,,,,,,,,,,,,,121.5,1.0,,
109,,rl_choice,,html-keyboard-response,109,199841,0.0-1.0-149.0,0,0,54497,,366.0,,,68.0,21.0,21.0,1.0,easy,2000.0,1500.0,1.0,80.0,20.0,60.0,20.0,C,D,/static/Simple_RL/Stimuli/Fractals_stims/C.jpg,/static/Simple_RL/Stimuli/Fractals_stims/D.jpg,1.0,80.0,20.0,60.0,20.0,C,D,121.866,0.366,0.0,
110,,rl_choice_confirmation,,html-keyboard-response,110,200979,0.0-1.0-150.0-0.0,0,0,54497,,,,,,21.0,,,,,,,,,,,,,,,,,,,,,,123.0,1.134,,
111,,isi,,html-keyboard-response,111,202480,0.0-1.0-152.0,0,0,54497,,,,,,,,,,,,,,,,,,,,,,,,,,,,124.5,1.5,,
112,,feedback,,html-keyboard-response,112,203484,0.0-1.0-153.0-0.0,0,0,54497,,,,,,21.0,,,,,,,,,,,,,,,,,,,,,,125.5,1.0,,
113,,iti,,html-keyboard-response,113,205486,0.0-1.0-154.0,0,0,54497,,,,,,,,,,,,,,,,,,,,,,,,,,,,127.5,2.0,,
114,,rl_choice,,html-keyboard-response,114,205905,0.0-1.0-156.0,0,0,54497,,414.0,,,68.0,22.0,22.0,1.0,easy,1000.0,1000.0,1.0,80.0,20.0,100.0,0.0,C,D,/static/Simple_RL/Stimuli/Fractals_stims/C.jpg,/static/Simple_RL/Stimuli/Fractals_stims/D.jpg,1.0,80.0,20.0,100.0,0.0,C,D,127.914,0.414,0.0,
115,,rl_choice_confirmation,,html-keyboard-response,115,207001,0.0-1.0-157.0-0.0,0,0,54497,,,,,,22.0,,,,,,,,,,,,,,,,,,,,,,129.0,1.086,,
116,,isi,,html-keyboard-response,116,208004,0.0-1.0-159.0,0,0,54497,,,,,,,,,,,,,,,,,,,,,,,,,,,,130.0,1.0,,
117,,feedback,,html-keyboard-response,117,209008,0.0-1.0-160.0-0.0,0,0,54497,,,,,,22.0,,,,,,,,,,,,,,,,,,,,,,131.0,1.0,,
118,,iti,,html-keyboard-response,118,210010,0.0-1.0-161.0,0,0,54497,,,,,,,,,,,,,,,,,,,,,,,,,,,,132.0,1.0,,
119,,rl_choice,,html-keyboard-response,119,210424,0.0-1.0-163.0,0,0,54497,,412.0,,,68.0,23.0,23.0,1.0,easy,1500.0,3000.0,1.0,80.0,20.0,80.0,20.0,C,D,/static/Simple_RL/Stimuli/Fractals_stims/C.jpg,/static/Simple_RL/Stimuli/Fractals_stims/D.jpg,1.0,80.0,20.0,80.0,20.0,C,D,132.412,0.412,0.0,
120,,rl_choice_confirmation,,html-keyboard-response,120,211516,0.0-1.0-164.0-0.0,0,0,54497,,,,,,23.0,,,,,,,,,,,,,,,,,,,,,,133.5,1.088,,
121,,isi,,html-keyboard-response,121,214519,0.0-1.0-166.0,0,0,54497,,,,,,,,,,,,,,,,,,,,,,,,,,,,136.5,3.0,,
122,,feedback,,html-keyboard-response,122,215523,0.0-1.0-167.0-0.0,0,0,54497,,,,,,23.0,,,,,,,,,,,,,,,,,,,,,,137.5,1.0,,
123,,iti,,html-keyboard-response,123,217025,0.0-1.0-168.0,0,0,54497,,,,,,,,,,,,,,,,,,,,,,,,,,,,139.0,1.5,,
124,,rl_choice,,html-keyboard-response,124,217401,0.0-1.0-170.0,0,0,54497,,374.0,,,75.0,24.0,24.0,1.0,hard,2000.0,1500.0,0.0,40.0,60.0,40.0,60.0,B,A,/static/Simple_RL/Stimuli/Fractals_stims/B.jpg,/static/Simple_RL/Stimuli/Fractals_stims/A.jpg,0.0,60.0,40.0,60.0,40.0,A,B,139.374,0.374,0.0,
125,,rl_choice_confirmation,,html-keyboard-response,125,218531,0.0-1.0-171.0-0.0,0,0,54497,,,,,,24.0,,,,,,,,,,,,,,,,,,,,,,140.5,1.126,,
126,,isi,,html-keyboard-response,126,220034,0.0-1.0-173.0,0,0,54497,,,,,,,,,,,,,,,,,,,,,,,,,,,,142.0,1.5,,
127,,feedback,,html-keyboard-response,127,221039,0.0-1.0-174.0-0.0,0,0,54497,,,,,,24.0,,,,,,,,,,,,,,,,,,,,,,143.0,1.0,,
128,,iti,,html-keyboard-response,128,223041,0.0-1.0-175.0,0,0,54497,,,,,,,,,,,,,,,,,,,,,,,,,,,,145.0,2.0,,
129,,rl_choice,,html-keyboard-response,129,223458,0.0-1.0-177.0,0,0,54497,,414.0,,,68.0,25.0,25.0,1.0,hard,3000.0,1500.0,1.0,60.0,40.0,40.0,40.0,A,B,/static/Simple_RL/Stimuli/Fractals_stims/A.jpg,/static/Simple_RL/Stimuli/Fractals_stims/B.jpg,1.0,60.0,40.0,40.0,40.0,A,B,145.414,0.414,0.0,
130,,rl_choice_confirmation,,html-keyboard-response,130,224547,0.0-1.0-178.0-0.0,0,0,54497,,,,,,25.0,,,,,,,,,,,,,,,,,,,,,,146.5,1.086,,
131,,isi,,html-keyboard-response,131,226050,0.0-1.0-180.0,0,0,54497,,,,,,,,,,,,,,,,,,,,,,,,,,,,148.0,1.5,,
132,,feedback,,html-keyboard-response,132,227053,0.0-1.0-181.0-0.0,0,0,54497,,,,,,25.0,,,,,,,,,,,,,,,,,,,,,,149.0,1.0,,
133,,iti,,html-keyboard-response,133,230055,0.0-1.0-182.0,0,0,54497,,,,,,,,,,,,,,,,,,,,,,,,,,,,152.0,3.0,,
134,,rl_choice,,html-keyboard-response,134,230565,0.0-1.0-184.0,0,0,54497,,508.0,,,75.0,26.0,26.0,1.0,hard,1000.0,2000.0,0.0,40.0,60.0,40.0,80.0,B,A,/static/Simple_RL/Stimuli/Fractals_stims/B.jpg,/static/Simple_RL/Stimuli/Fractals_stims/A.jpg,0.0,60.0,40.0,80.0,40.0,A,B,152.508,0.508,0.0,
135,,rl_choice_confirmation,,html-keyboard-response,135,231560,0.0-1.0-185.0-0.0,0,0,54497,,,,,,26.0,,,,,,,,,,,,,,,,,,,,,,153.5,0.992,,
136,,isi,,html-keyboard-response,136,233563,0.0-1.0-187.0,0,0,54497,,,,,,,,,,,,,,,,,,,,,,,,,,,,155.5,2.0,,
137,,feedback,,html-keyboard-response,137,234568,0.0-1.0-188.0-0.0,0,0,54497,,,,,,26.0,,,,,,,,,,,,,,,,,,,,,,156.5,1.0,,
138,,iti,,html-keyboard-response,138,235571,0.0-1.0-189.0,0,0,54497,,,,,,,,,,,,,,,,,,,,,,,,,,,,157.5,1.0,,
139,,rl_choice,,html-keyboard-response,139,236067,0.0-1.0-191.0,0,0,54497,,494.0,,,68.0,27.0,27.0,1.0,easy,3000.0,1000.0,1.0,80.0,20.0,80.0,40.0,C,D,/static/Simple_RL/Stimuli/Fractals_stims/C.jpg,/static/Simple_RL/Stimuli/Fractals_stims/D.jpg,1.0,80.0,20.0,80.0,40.0,C,D,157.994,0.494,0.0,
140,,rl_choice_confirmation,,html-keyboard-response,140,237078,0.0-1.0-192.0-0.0,0,0,54497,,,,,,27.0,,,,,,,,,,,,,,,,,,,,,,159.0,1.006,,
141,,isi,,html-keyboard-response,141,238081,0.0-1.0-194.0,0,0,54497,,,,,,,,,,,,,,,,,,,,,,,,,,,,160.0,1.0,,
142,,feedback,,html-keyboard-response,142,239084,0.0-1.0-195.0-0.0,0,0,54497,,,,,,27.0,,,,,,,,,,,,,,,,,,,,,,161.0,1.0,,
143,,iti,,html-keyboard-response,143,242086,0.0-1.0-196.0,0,0,54497,,,,,,,,,,,,,,,,,,,,,,,,,,,,164.0,3.0,,
144,,rl_choice,,html-keyboard-response,144,242433,0.0-1.0-198.0,0,0,54497,,344.0,,,68.0,28.0,28.0,1.0,easy,1000.0,3500.0,1.0,80.0,20.0,60.0,20.0,C,D,/static/Simple_RL/Stimuli/Fractals_stims/C.jpg,/static/Simple_RL/Stimuli/Fractals_stims/D.jpg,1.0,80.0,20.0,60.0,20.0,C,D,164.344,0.344,0.0,
145,,rl_choice_confirmation,,html-keyboard-response,145,243593,0.0-1.0-199.0-0.0,0,0,54497,,,,,,28.0,,,,,,,,,,,,,,,,,,,,,,165.5,1.156,,
146,,isi,,html-keyboard-response,146,247095,0.0-1.0-201.0,0,0,54497,,,,,,,,,,,,,,,,,,,,,,,,,,,,169.0,3.5,,
147,,feedback,,html-keyboard-response,147,248099,0.0-1.0-202.0-0.0,0,0,54497,,,,,,28.0,,,,,,,,,,,,,,,,,,,,,,170.0,1.0,,
148,,iti,,html-keyboard-response,148,249102,0.0-1.0-203.0,0,0,54497,,,,,,,,,,,,,,,,,,,,,,,,,,,,171.0,1.0,,
149,,rl_choice,,html-keyboard-response,149,249524,0.0-1.0-205.0,0,0,54497,,420.0,,,75.0,29.0,29.0,1.0,hard,1500.0,1000.0,0.0,40.0,60.0,60.0,40.0,B,A,/static/Simple_RL/Stimuli/Fractals_stims/B.jpg,/static/Simple_RL/Stimuli/Fractals_stims/A.jpg,0.0,60.0,40.0,40.0,60.0,A,B,171.42,0.42,0.0,
150,,rl_choice_confirmation,,html-keyboard-response,150,250606,0.0-1.0-206.0-0.0,0,0,54497,,,,,,29.0,,,,,,,,,,,,,,,,,,,,,,172.5,1.08,,
151,,isi,,html-keyboard-response,151,251611,0.0-1.0-208.0,0,0,54497,,,,,,,,,,,,,,,,,,,,,,,,,,,,173.5,1.0,,
152,,feedback,,html-keyboard-response,152,252614,0.0-1.0-209.0-0.0,0,0,54497,,,,,,29.0,,,,,,,,,,,,,,,,,,,,,,174.5,1.0,,
153,,iti,,html-keyboard-response,153,254117,0.0-1.0-210.0,0,0,54497,,,,,,,,,,,,,,,,,,,,,,,,,,,,176.0,1.5,,
154,,rl_choice,,html-keyboard-response,154,254561,0.0-1.0-212.0,0,0,54497,,441.0,,,68.0,30.0,30.0,1.0,easy,1000.0,1500.0,1.0,80.0,20.0,100.0,20.0,C,D,/static/Simple_RL/Stimuli/Fractals_stims/C.jpg,/static/Simple_RL/Stimuli/Fractals_stims/D.jpg,1.0,80.0,20.0,100.0,20.0,C,D,176.441,0.441,0.0,
155,,rl_choice_confirmation,,html-keyboard-response,155,255626,0.0-1.0-213.0-0.0,0,0,54497,,,,,,30.0,,,,,,,,,,,,,,,,,,,,,,177.5,1.059,,
156,,isi,,html-keyboard-response,156,257128,0.0-1.0-215.0,0,0,54497,,,,,,,,,,,,,,,,,,,,,,,,,,,,179.0,1.5,,
157,,feedback,,html-keyboard-response,157,258132,0.0-1.0-216.0-0.0,0,0,54497,,,,,,30.0,,,,,,,,,,,,,,,,,,,,,,180.0,1.0,,
158,,iti,,html-keyboard-response,158,259134,0.0-1.0-217.0,0,0,54497,,,,,,,,,,,,,,,,,,,,,,,,,,,,181.0,1.0,,
159,,rl_choice,,html-keyboard-response,159,259568,0.0-1.0-219.0,0,0,54497,,431.0,,,75.0,31.0,31.0,1.0,easy,2000.0,1500.0,0.0,20.0,80.0,40.0,100.0,D,C,/static/Simple_RL/Stimuli/Fractals_stims/D.jpg,/static/Simple_RL/Stimuli/Fractals_stims/C.jpg,0.0,80.0,20.0,100.0,40.0,C,D,181.431,0.431,0.0,
160,,rl_choice_confirmation,,html-keyboard-response,160,260641,0.0-1.0-220.0-0.0,0,0,54497,,,,,,31.0,,,,,,,,,,,,,,,,,,,,,,182.5,1.069,,
161,,isi,,html-keyboard-response,161,262144,0.0-1.0-222.0,0,0,54497,,,,,,,,,,,,,,,,,,,,,,,,,,,,184.0,1.5,,
162,,feedback,,html-keyboard-response,162,263163,0.0-1.0-223.0-0.0,0,0,54497,,,,,,31.0,,,,,,,,,,,,,,,,,,,,,,185.0,1.0,,
163,,iti,,html-keyboard-response,163,265165,0.0-1.0-224.0,0,0,54497,,,,,,,,,,,,,,,,,,,,,,,,,,,,187.0,2.0,,
164,,rl_choice,,html-keyboard-response,164,265603,0.0-1.0-226.0,0,0,54497,,435.0,,,75.0,32.0,32.0,1.0,hard,1500.0,1000.0,0.0,40.0,60.0,40.0,80.0,B,A,/static/Simple_RL/Stimuli/Fractals_stims/B.jpg,/static/Simple_RL/Stimuli/Fractals_stims/A.jpg,0.0,60.0,40.0,80.0,40.0,A,B,187.435,0.435,0.0,
165,,rl_choice_confirmation,,html-keyboard-response,165,266671,0.0-1.0-227.0-0.0,0,0,54497,,,,,,32.0,,,,,,,,,,,,,,,,,,,,,,188.5,1.065,,
166,,isi,,html-keyboard-response,166,267674,0.0-1.0-229.0,0,0,54497,,,,,,,,,,,,,,,,,,,,,,,,,,,,189.5,1.0,,
167,,feedback,,html-keyboard-response,167,268678,0.0-1.0-230.0-0.0,0,0,54497,,,,,,32.0,,,,,,,,,,,,,,,,,,,,,,190.5,1.0,,
168,,iti,,html-keyboard-response,168,270181,0.0-1.0-231.0,0,0,54497,,,,,,,,,,,,,,,,,,,,,,,,,,,,192.0,1.5,,
169,,rl_choice,,html-keyboard-response,169,270668,0.0-1.0-233.0,0,0,54497,,485.0,,,75.0,33.0,33.0,1.0,easy,1000.0,1000.0,0.0,20.0,80.0,40.0,100.0,D,C,/static/Simple_RL/Stimuli/Fractals_stims/D.jpg,/static/Simple_RL/Stimuli/Fractals_stims/C.jpg,0.0,80.0,20.0,100.0,40.0,C,D,192.485,0.485,0.0,
170,,rl_choice_confirmation,,html-keyboard-response,170,271688,0.0-1.0-234.0-0.0,0,0,54497,,,,,,33.0,,,,,,,,,,,,,,,,,,,,,,193.5,1.015,,
171,,isi,,html-keyboard-response,171,272691,0.0-1.0-236.0,0,0,54497,,,,,,,,,,,,,,,,,,,,,,,,,,,,194.5,1.0,,
172,,feedback,,html-keyboard-response,172,273694,0.0-1.0-237.0-0.0,0,0,54497,,,,,,33.0,,,,,,,,,,,,,,,,,,,,,,195.5,1.0,,
173,,iti,,html-keyboard-response,173,274698,0.0-1.0-238.0,0,0,54497,,,,,,,,,,,,,,,,,,,,,,,,,,,,196.5,1.0,,
174,,rl_choice,,html-keyboard-response,174,275149,0.0-1.0-240.0,0,0,54497,,449.0,,,68.0,34.0,34.0,1.0,easy,3500.0,3000.0,1.0,80.0,20.0,80.0,40.0,C,D,/static/Simple_RL/Stimuli/Fractals_stims/C.jpg,/static/Simple_RL/Stimuli/Fractals_stims/D.jpg,1.0,80.0,20.0,80.0,40.0,C,D,196.949,0.449,0.0,
175,,rl_choice_confirmation,,html-keyboard-response,175,276204,0.0-1.0-241.0-0.0,0,0,54497,,,,,,34.0,,,,,,,,,,,,,,,,,,,,,,198.0,1.051,,
176,,isi,,html-keyboard-response,176,279208,0.0-1.0-243.0,0,0,54497,,,,,,,,,,,,,,,,,,,,,,,,,,,,201.0,3.0,,
177,,feedback,,html-keyboard-response,177,280212,0.0-1.0-244.0-0.0,0,0,54497,,,,,,34.0,,,,,,,,,,,,,,,,,,,,,,202.0,1.0,,
178,,iti,,html-keyboard-response,178,283714,0.0-1.0-245.0,0,0,54497,,,,,,,,,,,,,,,,,,,,,,,,,,,,205.5,3.5,,
179,,rl_choice,,html-keyboard-response,179,284081,0.0-1.0-247.0,0,0,54497,,365.0,,,68.0,35.0,35.0,1.0,easy,1500.0,2000.0,1.0,80.0,20.0,60.0,40.0,C,D,/static/Simple_RL/Stimuli/Fractals_stims/C.jpg,/static/Simple_RL/Stimuli/Fractals_stims/D.jpg,1.0,80.0,20.0,60.0,40.0,C,D,205.865,0.365,0.0,
180,,rl_choice_confirmation,,html-keyboard-response,180,285221,0.0-1.0-248.0-0.0,0,0,54497,,,,,,35.0,,,,,,,,,,,,,,,,,,,,,,207.0,1.135,,
181,,isi,,html-keyboard-response,181,287224,0.0-1.0-250.0,0,0,54497,,,,,,,,,,,,,,,,,,,,,,,,,,,,209.0,2.0,,
182,,feedback,,html-keyboard-response,182,288227,0.0-1.0-251.0-0.0,0,0,54497,,,,,,35.0,,,,,,,,,,,,,,,,,,,,,,210.0,1.0,,
183,,iti,,html-keyboard-response,183,289730,0.0-1.0-252.0,0,0,54497,,,,,,,,,,,,,,,,,,,,,,,,,,,,211.5,1.5,,
184,,rl_choice,,html-keyboard-response,184,290135,0.0-1.0-254.0,0,0,54497,,402.0,,,75.0,36.0,36.0,1.0,easy,1500.0,1500.0,0.0,20.0,80.0,20.0,100.0,D,C,/static/Simple_RL/Stimuli/Fractals_stims/D.jpg,/static/Simple_RL/Stimuli/Fractals_stims/C.jpg,0.0,80.0,20.0,100.0,20.0,C,D,211.902,0.402,0.0,
185,,rl_choice_confirmation,,html-keyboard-response,185,291237,0.0-1.0-255.0-0.0,0,0,54497,,,,,,36.0,,,,,,,,,,,,,,,,,,,,,,213.0,1.098,,
186,,isi,,html-keyboard-response,186,292739,0.0-1.0-257.0,0,0,54497,,,,,,,,,,,,,,,,,,,,,,,,,,,,214.5,1.5,,
187,,feedback,,html-keyboard-response,187,293743,0.0-1.0-258.0-0.0,0,0,54497,,,,,,36.0,,,,,,,,,,,,,,,,,,,,,,215.5,1.0,,
188,,iti,,html-keyboard-response,188,295245,0.0-1.0-259.0,0,0,54497,,,,,,,,,,,,,,,,,,,,,,,,,,,,217.0,1.5,,
189,,rl_choice,,html-keyboard-response,189,295652,0.0-1.0-261.0,0,0,54497,,404.0,,,68.0,37.0,37.0,1.0,hard,2000.0,1000.0,1.0,60.0,40.0,60.0,40.0,A,B,/static/Simple_RL/Stimuli/Fractals_stims/A.jpg,/static/Simple_RL/Stimuli/Fractals_stims/B.jpg,1.0,60.0,40.0,60.0,40.0,A,B,217.404,0.404,0.0,
190,,rl_choice_confirmation,,html-keyboard-response,190,296752,0.0-1.0-262.0-0.0,0,0,54497,,,,,,37.0,,,,,,,,,,,,,,,,,,,,,,218.5,1.096,,
191,,isi,,html-keyboard-response,191,297754,0.0-1.0-264.0,0,0,54497,,,,,,,,,,,,,,,,,,,,,,,,,,,,219.5,1.0,,
192,,feedback,,html-keyboard-response,192,298758,0.0-1.0-265.0-0.0,0,0,54497,,,,,,37.0,,,,,,,,,,,,,,,,,,,,,,220.5,1.0,,
193,,iti,,html-keyboard-response,193,300761,0.0-1.0-266.0,0,0,54497,,,,,,,,,,,,,,,,,,,,,,,,,,,,222.5,2.0,,
194,,rl_choice,,html-keyboard-response,194,301234,0.0-1.0-268.0,0,0,54497,,472.0,,,75.0,38.0,38.0,1.0,hard,1000.0,1500.0,0.0,40.0,60.0,20.0,40.0,B,A,/static/Simple_RL/Stimuli/Fractals_stims/B.jpg,/static/Simple_RL/Stimuli/Fractals_stims/A.jpg,0.0,60.0,40.0,40.0,20.0,A,B,222.972,0.472,0.0,
195,,rl_choice_confirmation,,html-keyboard-response,195,302267,0.0-1.0-269.0-0.0,0,0,54497,,,,,,38.0,,,,,,,,,,,,,,,,,,,,,,224.0,1.028,,
196,,isi,,html-keyboard-response,196,303769,0.0-1.0-271.0,0,0,54497,,,,,,,,,,,,,,,,,,,,,,,,,,,,225.5,1.5,,
197,,feedback,,html-keyboard-response,197,304773,0.0-1.0-272.0-0.0,0,0,54497,,,,,,38.0,,,,,,,,,,,,,,,,,,,,,,226.5,1.0,,
198,,iti,,html-keyboard-response,198,305775,0.0-1.0-273.0,0,0,54497,,,,,,,,,,,,,,,,,,,,,,,,,,,,227.5,1.0,,
199,,rl_choice,,html-keyboard-response,199,306377,0.0-1.0-275.0,0,0,54497,,599.0,,,68.0,39.0,39.0,1.0,easy,1000.0,1000.0,0.0,20.0,80.0,0.0,60.0,D,C,/static/Simple_RL/Stimuli/Fractals_stims/D.jpg,/static/Simple_RL/Stimuli/Fractals_stims/C.jpg,1.0,20.0,80.0,0.0,60.0,D,C,228.099,0.599,0.0,
200,,rl_choice_confirmation,,html-keyboard-response,200,307282,0.0-1.0-276.0-0.0,0,0,54497,,,,,,39.0,,,,,,,,,,,,,,,,,,,,,,229.0,0.901,,
201,,isi,,html-keyboard-response,201,308285,0.0-1.0-278.0,0,0,54497,,,,,,,,,,,,,,,,,,,,,,,,,,,,230.0,1.0,,
202,,feedback,,html-keyboard-response,202,309289,0.0-1.0-279.0-0.0,0,0,54497,,,,,,39.0,,,,,,,,,,,,,,,,,,,,,,231.0,1.0,,
203,,iti,,html-keyboard-response,203,310292,0.0-1.0-280.0,0,0,54497,,,,,,,,,,,,,,,,,,,,,,,,,,,,232.0,1.0,,
204,,block_over,,html-keyboard-response,204,312441,0.0-1.0-281.0-0.0,0,0,54497,,2146.0,,,68.0,39.0,,,,,,,,,,,,,,,,,,,,,,,,,
205,,start_run,,html-keyboard-response,205,313354,0.0-1.0-281.0-1.0,0,0,54497,,912.0,,,84.0,,,,,,,,,,,,,,,,,,,,,,,,,,
206,,rl_choice,,html-keyboard-response,206,314050,0.0-1.0-282.0,0,0,54497,,692.0,,,68.0,40.0,40.0,2.0,easy,1500.0,2000.0,1.0,80.0,20.0,60.0,20.0,C,D,/static/Simple_RL/Stimuli/Fractals_stims/C.jpg,/static/Simple_RL/Stimuli/Fractals_stims/D.jpg,1.0,80.0,20.0,60.0,20.0,C,D,0.692,0.692,0.0,
207,,rl_choice_confirmation,,html-keyboard-response,207,314862,0.0-1.0-283.0-0.0,0,0,54497,,,,,,40.0,,,,,,,,,,,,,,,,,,,,,,1.5,0.808,,
208,,isi,,html-keyboard-response,208,316865,0.0-1.0-285.0,0,0,54497,,,,,,,,,,,,,,,,,,,,,,,,,,,,3.5,2.0,,
209,,feedback,,html-keyboard-response,209,317867,0.0-1.0-286.0-0.0,0,0,54497,,,,,,40.0,,,,,,,,,,,,,,,,,,,,,,4.5,1.0,,
210,,iti,,html-keyboard-response,210,319369,0.0-1.0-287.0,0,0,54497,,,,,,,,,,,,,,,,,,,,,,,,,,,,6.0,1.5,,
211,,rl_choice,,html-keyboard-response,211,319866,0.0-1.0-289.0,0,0,54497,,494.0,,,75.0,41.0,41.0,2.0,hard,1000.0,2000.0,0.0,40.0,60.0,60.0,60.0,B,A,/static/Simple_RL/Stimuli/Fractals_stims/B.jpg,/static/Simple_RL/Stimuli/Fractals_stims/A.jpg,0.0,60.0,40.0,60.0,60.0,A,B,6.494,0.494,0.0,
212,,rl_choice_confirmation,,html-keyboard-response,212,320876,0.0-1.0-290.0-0.0,0,0,54497,,,,,,41.0,,,,,,,,,,,,,,,,,,,,,,7.5,1.006,,
213,,isi,,html-keyboard-response,213,322879,0.0-1.0-292.0,0,0,54497,,,,,,,,,,,,,,,,,,,,,,,,,,,,9.5,2.0,,
214,,feedback,,html-keyboard-response,214,323883,0.0-1.0-293.0-0.0,0,0,54497,,,,,,41.0,,,,,,,,,,,,,,,,,,,,,,10.5,1.0,,
215,,iti,,html-keyboard-response,215,324886,0.0-1.0-294.0,0,0,54497,,,,,,,,,,,,,,,,,,,,,,,,,,,,11.5,1.0,,
216,,rl_choice,,html-keyboard-response,216,325380,0.0-1.0-296.0,0,0,54497,,491.0,,,75.0,42.0,42.0,2.0,hard,1500.0,1000.0,0.0,40.0,60.0,20.0,80.0,B,A,/static/Simple_RL/Stimuli/Fractals_stims/B.jpg,/static/Simple_RL/Stimuli/Fractals_stims/A.jpg,0.0,60.0,40.0,80.0,20.0,A,B,11.991,0.491,0.0,
217,,rl_choice_confirmation,,html-keyboard-response,217,326393,0.0-1.0-297.0-0.0,0,0,54497,,,,,,42.0,,,,,,,,,,,,,,,,,,,,,,13.0,1.009,,
218,,isi,,html-keyboard-response,218,327395,0.0-1.0-299.0,0,0,54497,,,,,,,,,,,,,,,,,,,,,,,,,,,,14.0,1.0,,
219,,feedback,,html-keyboard-response,219,328400,0.0-1.0-300.0-0.0,0,0,54497,,,,,,42.0,,,,,,,,,,,,,,,,,,,,,,15.0,1.0,,
220,,iti,,html-keyboard-response,220,329903,0.0-1.0-301.0,0,0,54497,,,,,,,,,,,,,,,,,,,,,,,,,,,,16.5,1.5,,
221,,rl_choice,,html-keyboard-response,221,330288,0.0-1.0-303.0,0,0,54497,,382.0,,,75.0,43.0,43.0,2.0,hard,1000.0,2000.0,0.0,40.0,60.0,20.0,80.0,B,A,/static/Simple_RL/Stimuli/Fractals_stims/B.jpg,/static/Simple_RL/Stimuli/Fractals_stims/A.jpg,0.0,60.0,40.0,80.0,20.0,A,B,16.882,0.382,0.0,
222,,rl_choice_confirmation,,html-keyboard-response,222,331410,0.0-1.0-304.0-0.0,0,0,54497,,,,,,43.0,,,,,,,,,,,,,,,,,,,,,,18.0,1.118,,
223,,isi,,html-keyboard-response,223,333413,0.0-1.0-306.0,0,0,54497,,,,,,,,,,,,,,,,,,,,,,,,,,,,20.0,2.0,,
224,,feedback,,html-keyboard-response,224,334417,0.0-1.0-307.0-0.0,0,0,54497,,,,,,43.0,,,,,,,,,,,,,,,,,,,,,,21.0,1.0,,
225,,iti,,html-keyboard-response,225,335420,0.0-1.0-308.0,0,0,54497,,,,,,,,,,,,,,,,,,,,,,,,,,,,22.0,1.0,,
226,,rl_choice,,html-keyboard-response,226,335821,0.0-1.0-310.0,0,0,54497,,398.0,,,75.0,44.0,44.0,2.0,hard,1000.0,1000.0,0.0,40.0,60.0,40.0,40.0,B,A,/static/Simple_RL/Stimuli/Fractals_stims/B.jpg,/static/Simple_RL/Stimuli/Fractals_stims/A.jpg,0.0,60.0,40.0,40.0,40.0,A,B,22.398,0.398,0.0,
227,,rl_choice_confirmation,,html-keyboard-response,227,336940,0.0-1.0-311.0-0.0,0,0,54497,,,,,,44.0,,,,,,,,,,,,,,,,,,,,,,23.5,1.102,,
228,,isi,,html-keyboard-response,228,337943,0.0-1.0-313.0,0,0,54497,,,,,,,,,,,,,,,,,,,,,,,,,,,,24.5,1.0,,
229,,feedback,,html-keyboard-response,229,338948,0.0-1.0-314.0-0.0,0,0,54497,,,,,,44.0,,,,,,,,,,,,,,,,,,,,,,25.5,1.0,,
230,,iti,,html-keyboard-response,230,339951,0.0-1.0-315.0,0,0,54497,,,,,,,,,,,,,,,,,,,,,,,,,,,,26.5,1.0,,
231,,rl_choice,,html-keyboard-response,231,340382,0.0-1.0-317.0,0,0,54497,,428.0,,,75.0,45.0,45.0,2.0,hard,2000.0,1500.0,0.0,40.0,60.0,20.0,40.0,B,A,/static/Simple_RL/Stimuli/Fractals_stims/B.jpg,/static/Simple_RL/Stimuli/Fractals_stims/A.jpg,0.0,60.0,40.0,40.0,20.0,A,B,26.928,0.428,0.0,
232,,rl_choice_confirmation,,html-keyboard-response,232,341459,0.0-1.0-318.0-0.0,0,0,54497,,,,,,45.0,,,,,,,,,,,,,,,,,,,,,,28.0,1.072,,
233,,isi,,html-keyboard-response,233,342962,0.0-1.0-320.0,0,0,54497,,,,,,,,,,,,,,,,,,,,,,,,,,,,29.5,1.5,,
234,,feedback,,html-keyboard-response,234,343965,0.0-1.0-321.0-0.0,0,0,54497,,,,,,45.0,,,,,,,,,,,,,,,,,,,,,,30.5,1.0,,
235,,iti,,html-keyboard-response,235,345970,0.0-1.0-322.0,0,0,54497,,,,,,,,,,,,,,,,,,,,,,,,,,,,32.5,2.0,,
236,,rl_choice,,html-keyboard-response,236,346405,0.0-1.0-324.0,0,0,54497,,432.0,,,75.0,46.0,46.0,2.0,easy,1500.0,3000.0,0.0,20.0,80.0,0.0,80.0,D,C,/static/Simple_RL/Stimuli/Fractals_stims/D.jpg,/static/Simple_RL/Stimuli/Fractals_stims/C.jpg,0.0,80.0,20.0,80.0,0.0,C,D,32.932,0.432,0.0,
237,,rl_choice_confirmation,,html-keyboard-response,237,347477,0.0-1.0-325.0-0.0,0,0,54497,,,,,,46.0,,,,,,,,,,,,,,,,,,,,,,34.0,1.068,,
238,,isi,,html-keyboard-response,238,350479,0.0-1.0-327.0,0,0,54497,,,,,,,,,,,,,,,,,,,,,,,,,,,,37.0,3.0,,
239,,feedback,,html-keyboard-response,239,351484,0.0-1.0-328.0-0.0,0,0,54497,,,,,,46.0,,,,,,,,,,,,,,,,,,,,,,38.0,1.0,,
240,,iti,,html-keyboard-response,240,352987,0.0-1.0-329.0,0,0,54497,,,,,,,,,,,,,,,,,,,,,,,,,,,,39.5,1.5,,
241,,rl_choice,,html-keyboard-response,241,353478,0.0-1.0-331.0,0,0,54497,,488.0,,,75.0,47.0,47.0,2.0,easy,1500.0,1000.0,0.0,20.0,80.0,20.0,80.0,D,C,/static/Simple_RL/Stimuli/Fractals_stims/D.jpg,/static/Simple_RL/Stimuli/Fractals_stims/C.jpg,0.0,80.0,20.0,80.0,20.0,C,D,39.988,0.488,0.0,
242,,rl_choice_confirmation,,html-keyboard-response,242,354494,0.0-1.0-332.0-0.0,0,0,54497,,,,,,47.0,,,,,,,,,,,,,,,,,,,,,,41.0,1.012,,
243,,isi,,html-keyboard-response,243,355498,0.0-1.0-334.0,0,0,54497,,,,,,,,,,,,,,,,,,,,,,,,,,,,42.0,1.0,,
244,,feedback,,html-keyboard-response,244,356502,0.0-1.0-335.0-0.0,0,0,54497,,,,,,47.0,,,,,,,,,,,,,,,,,,,,,,43.0,1.0,,
245,,iti,,html-keyboard-response,245,358004,0.0-1.0-336.0,0,0,54497,,,,,,,,,,,,,,,,,,,,,,,,,,,,44.5,1.5,,
246,,rl_choice,,html-keyboard-response,246,358572,0.0-1.0-338.0,0,0,54497,,566.0,,,68.0,48.0,48.0,2.0,easy,2000.0,1000.0,1.0,80.0,20.0,80.0,20.0,C,D,/static/Simple_RL/Stimuli/Fractals_stims/C.jpg,/static/Simple_RL/Stimuli/Fractals_stims/D.jpg,1.0,80.0,20.0,80.0,20.0,C,D,45.066,0.566,0.0,
247,,rl_choice_confirmation,,html-keyboard-response,247,359510,0.0-1.0-339.0-0.0,0,0,54497,,,,,,48.0,,,,,,,,,,,,,,,,,,,,,,46.0,0.934,,
248,,isi,,html-keyboard-response,248,360513,0.0-1.0-341.0,0,0,54497,,,,,,,,,,,,,,,,,,,,,,,,,,,,47.0,1.0,,
249,,feedback,,html-keyboard-response,249,361518,0.0-1.0-342.0-0.0,0,0,54497,,,,,,48.0,,,,,,,,,,,,,,,,,,,,,,48.0,1.0,,
250,,iti,,html-keyboard-response,250,363521,0.0-1.0-343.0,0,0,54497,,,,,,,,,,,,,,,,,,,,,,,,,,,,50.0,2.0,,
251,,rl_choice,,html-keyboard-response,251,363988,0.0-1.0-345.0,0,0,54497,,464.0,,,75.0,49.0,49.0,2.0,hard,1500.0,2000.0,0.0,40.0,60.0,60.0,60.0,B,A,/static/Simple_RL/Stimuli/Fractals_stims/B.jpg,/static/Simple_RL/Stimuli/Fractals_stims/A.jpg,0.0,60.0,40.0,60.0,60.0,A,B,50.464,0.464,0.0,
252,,rl_choice_confirmation,,html-keyboard-response,252,365028,0.0-1.0-346.0-0.0,0,0,54497,,,,,,49.0,,,,,,,,,,,,,,,,,,,,,,51.5,1.036,,
253,,isi,,html-keyboard-response,253,367030,0.0-1.0-348.0,0,0,54497,,,,,,,,,,,,,,,,,,,,,,,,,,,,53.5,2.0,,
254,,feedback,,html-keyboard-response,254,368033,0.0-1.0-349.0-0.0,0,0,54497,,,,,,49.0,,,,,,,,,,,,,,,,,,,,,,54.5,1.0,,
255,,iti,,html-keyboard-response,255,369536,0.0-1.0-350.0,0,0,54497,,,,,,,,,,,,,,,,,,,,,,,,,,,,56.0,1.5,,
256,,rl_choice,,html-keyboard-response,256,370056,0.0-1.0-352.0,0,0,54497,,518.0,,,75.0,50.0,50.0,2.0,easy,1000.0,3500.0,0.0,20.0,80.0,0.0,100.0,D,C,/static/Simple_RL/Stimuli/Fractals_stims/D.jpg,/static/Simple_RL/Stimuli/Fractals_stims/C.jpg,0.0,80.0,20.0,100.0,0.0,C,D,56.518,0.518,0.0,
257,,rl_choice_confirmation,,html-keyboard-response,257,371042,0.0-1.0-353.0-0.0,0,0,54497,,,,,,50.0,,,,,,,,,,,,,,,,,,,,,,57.5,0.982,,
258,,isi,,html-keyboard-response,258,374545,0.0-1.0-355.0,0,0,54497,,,,,,,,,,,,,,,,,,,,,,,,,,,,61.0,3.5,,
259,,feedback,,html-keyboard-response,259,375550,0.0-1.0-356.0-0.0,0,0,54497,,,,,,50.0,,,,,,,,,,,,,,,,,,,,,,62.0,1.0,,
260,,iti,,html-keyboard-response,260,376553,0.0-1.0-357.0,0,0,54497,,,,,,,,,,,,,,,,,,,,,,,,,,,,63.0,1.0,,
261,,rl_choice,,html-keyboard-response,261,377131,0.0-1.0-359.0,0,0,54497,,576.0,,,68.0,51.0,51.0,2.0,easy,1500.0,1000.0,1.0,80.0,20.0,60.0,20.0,C,D,/static/Simple_RL/Stimuli/Fractals_stims/C.jpg,/static/Simple_RL/Stimuli/Fractals_stims/D.jpg,1.0,80.0,20.0,60.0,20.0,C,D,63.576,0.576,0.0,
262,,rl_choice_confirmation,,html-keyboard-response,262,378060,0.0-1.0-360.0-0.0,0,0,54497,,,,,,51.0,,,,,,,,,,,,,,,,,,,,,,64.5,0.924,,
263,,isi,,html-keyboard-response,263,379063,0.0-1.0-362.0,0,0,54497,,,,,,,,,,,,,,,,,,,,,,,,,,,,65.5,1.0,,
264,,feedback,,html-keyboard-response,264,380066,0.0-1.0-363.0-0.0,0,0,54497,,,,,,51.0,,,,,,,,,,,,,,,,,,,,,,66.5,1.0,,
265,,iti,,html-keyboard-response,265,381569,0.0-1.0-364.0,0,0,54497,,,,,,,,,,,,,,,,,,,,,,,,,,,,68.0,1.5,,
266,,rl_choice,,html-keyboard-response,266,382075,0.0-1.0-366.0,0,0,54497,,503.0,,,75.0,52.0,52.0,2.0,hard,2000.0,1500.0,0.0,40.0,60.0,20.0,80.0,B,A,/static/Simple_RL/Stimuli/Fractals_stims/B.jpg,/static/Simple_RL/Stimuli/Fractals_stims/A.jpg,0.0,60.0,40.0,80.0,20.0,A,B,68.503,0.503,0.0,
267,,rl_choice_confirmation,,html-keyboard-response,267,383076,0.0-1.0-367.0-0.0,0,0,54497,,,,,,52.0,,,,,,,,,,,,,,,,,,,,,,69.5,0.997,,
268,,isi,,html-keyboard-response,268,384579,0.0-1.0-369.0,0,0,54497,,,,,,,,,,,,,,,,,,,,,,,,,,,,71.0,1.5,,
269,,feedback,,html-keyboard-response,269,385582,0.0-1.0-370.0-0.0,0,0,54497,,,,,,52.0,,,,,,,,,,,,,,,,,,,,,,72.0,1.0,,
270,,iti,,html-keyboard-response,270,387585,0.0-1.0-371.0,0,0,54497,,,,,,,,,,,,,,,,,,,,,,,,,,,,74.0,2.0,,
271,,rl_choice,,html-keyboard-response,271,388094,0.0-1.0-373.0,0,0,54497,,506.0,,,75.0,53.0,53.0,2.0,hard,3000.0,1500.0,0.0,40.0,60.0,20.0,40.0,B,A,/static/Simple_RL/Stimuli/Fractals_stims/B.jpg,/static/Simple_RL/Stimuli/Fractals_stims/A.jpg,0.0,60.0,40.0,40.0,20.0,A,B,74.506,0.506,0.0,
272,,rl_choice_confirmation,,html-keyboard-response,272,389092,0.0-1.0-374.0-0.0,0,0,54497,,,,,,53.0,,,,,,,,,,,,,,,,,,,,,,75.5,0.994,,
273,,isi,,html-keyboard-response,273,390595,0.0-1.0-376.0,0,0,54497,,,,,,,,,,,,,,,,,,,,,,,,,,,,77.0,1.5,,
274,,feedback,,html-keyboard-response,274,391599,0.0-1.0-377.0-0.0,0,0,54497,,,,,,53.0,,,,,,,,,,,,,,,,,,,,,,78.0,1.0,,
275,,iti,,html-keyboard-response,275,394602,0.0-1.0-378.0,0,0,54497,,,,,,,,,,,,,,,,,,,,,,,,,,,,81.0,3.0,,
276,,rl_choice,,html-keyboard-response,276,395270,0.0-1.0-380.0,0,0,54497,,665.0,,,75.0,54.0,54.0,2.0,easy,3000.0,1500.0,0.0,20.0,80.0,20.0,100.0,D,C,/static/Simple_RL/Stimuli/Fractals_stims/D.jpg,/static/Simple_RL/Stimuli/Fractals_stims/C.jpg,0.0,80.0,20.0,100.0,20.0,C,D,81.665,0.665,0.0,
277,,rl_choice_confirmation,,html-keyboard-response,277,396109,0.0-1.0-381.0-0.0,0,0,54497,,,,,,54.0,,,,,,,,,,,,,,,,,,,,,,82.5,0.835,,
278,,isi,,html-keyboard-response,278,397612,0.0-1.0-383.0,0,0,54497,,,,,,,,,,,,,,,,,,,,,,,,,,,,84.0,1.5,,
279,,feedback,,html-keyboard-response,279,398616,0.0-1.0-384.0-0.0,0,0,54497,,,,,,54.0,,,,,,,,,,,,,,,,,,,,,,85.0,1.0,,
280,,iti,,html-keyboard-response,280,401619,0.0-1.0-385.0,0,0,54497,,,,,,,,,,,,,,,,,,,,,,,,,,,,88.0,3.0,,
281,,rl_choice,,html-keyboard-response,281,402053,0.0-1.0-387.0,0,0,54497,,431.0,,,68.0,55.0,55.0,2.0,easy,1500.0,1500.0,1.0,80.0,20.0,80.0,20.0,C,D,/static/Simple_RL/Stimuli/Fractals_stims/C.jpg,/static/Simple_RL/Stimuli/Fractals_stims/D.jpg,1.0,80.0,20.0,80.0,20.0,C,D,88.431,0.431,0.0,
282,,rl_choice_confirmation,,html-keyboard-response,282,403126,0.0-1.0-388.0-0.0,0,0,54497,,,,,,55.0,,,,,,,,,,,,,,,,,,,,,,89.5,1.069,,
283,,isi,,html-keyboard-response,283,404629,0.0-1.0-390.0,0,0,54497,,,,,,,,,,,,,,,,,,,,,,,,,,,,91.0,1.5,,
284,,feedback,,html-keyboard-response,284,405633,0.0-1.0-391.0-0.0,0,0,54497,,,,,,55.0,,,,,,,,,,,,,,,,,,,,,,92.0,1.0,,
285,,iti,,html-keyboard-response,285,407135,0.0-1.0-392.0,0,0,54497,,,,,,,,,,,,,,,,,,,,,,,,,,,,93.5,1.5,,
286,,rl_choice,,html-keyboard-response,286,407579,0.0-1.0-394.0,0,0,54497,,442.0,,,75.0,56.0,56.0,2.0,easy,2000.0,2000.0,0.0,20.0,80.0,40.0,80.0,D,C,/static/Simple_RL/Stimuli/Fractals_stims/D.jpg,/static/Simple_RL/Stimuli/Fractals_stims/C.jpg,0.0,80.0,20.0,80.0,40.0,C,D,93.942,0.442,0.0,
287,,rl_choice_confirmation,,html-keyboard-response,287,408641,0.0-1.0-395.0-0.0,0,0,54497,,,,,,56.0,,,,,,,,,,,,,,,,,,,,,,95.0,1.058,,
288,,isi,,html-keyboard-response,288,410644,0.0-1.0-397.0,0,0,54497,,,,,,,,,,,,,,,,,,,,,,,,,,,,97.0,2.0,,
289,,feedback,,html-keyboard-response,289,411648,0.0-1.0-398.0-0.0,0,0,54497,,,,,,56.0,,,,,,,,,,,,,,,,,,,,,,98.0,1.0,,
290,,iti,,html-keyboard-response,290,413651,0.0-1.0-399.0,0,0,54497,,,,,,,,,,,,,,,,,,,,,,,,,,,,100.0,2.0,,
291,,rl_choice,,html-keyboard-response,291,414136,0.0-1.0-401.0,0,0,54497,,483.0,,,75.0,57.0,57.0,2.0,easy,1000.0,1000.0,0.0,20.0,80.0,20.0,80.0,D,C,/static/Simple_RL/Stimuli/Fractals_stims/D.jpg,/static/Simple_RL/Stimuli/Fractals_stims/C.jpg,0.0,80.0,20.0,80.0,20.0,C,D,100.483,0.483,0.0,
292,,rl_choice_confirmation,,html-keyboard-response,292,415157,0.0-1.0-402.0-0.0,0,0,54497,,,,,,57.0,,,,,,,,,,,,,,,,,,,,,,101.5,1.017,,
293,,isi,,html-keyboard-response,293,416160,0.0-1.0-404.0,0,0,54497,,,,,,,,,,,,,,,,,,,,,,,,,,,,102.5,1.0,,
294,,feedback,,html-keyboard-response,294,417165,0.0-1.0-405.0-0.0,0,0,54497,,,,,,57.0,,,,,,,,,,,,,,,,,,,,,,103.5,1.0,,
295,,iti,,html-keyboard-response,295,418169,0.0-1.0-406.0,0,0,54497,,,,,,,,,,,,,,,,,,,,,,,,,,,,104.5,1.0,,
296,,rl_choice,,html-keyboard-response,296,418748,0.0-1.0-408.0,0,0,54497,,576.0,,,75.0,58.0,58.0,2.0,easy,1000.0,1000.0,0.0,20.0,80.0,20.0,60.0,D,C,/static/Simple_RL/Stimuli/Fractals_stims/D.jpg,/static/Simple_RL/Stimuli/Fractals_stims/C.jpg,0.0,80.0,20.0,60.0,20.0,C,D,105.076,0.576,0.0,
297,,rl_choice_confirmation,,html-keyboard-response,297,419676,0.0-1.0-409.0-0.0,0,0,54497,,,,,,58.0,,,,,,,,,,,,,,,,,,,,,,106.0,0.924,,
298,,isi,,html-keyboard-response,298,420680,0.0-1.0-411.0,0,0,54497,,,,,,,,,,,,,,,,,,,,,,,,,,,,107.0,1.0,,
299,,feedback,,html-keyboard-response,299,421683,0.0-1.0-412.0-0.0,0,0,54497,,,,,,58.0,,,,,,,,,,,,,,,,,,,,,,108.0,1.0,,
300,,iti,,html-keyboard-response,300,422685,0.0-1.0-413.0,0,0,54497,,,,,,,,,,,,,,,,,,,,,,,,,,,,109.0,1.0,,
301,,rl_choice,,html-keyboard-response,301,423203,0.0-1.0-415.0,0,0,54497,,515.0,,,68.0,59.0,59.0,2.0,hard,1500.0,1000.0,1.0,60.0,40.0,80.0,40.0,A,B,/static/Simple_RL/Stimuli/Fractals_stims/A.jpg,/static/Simple_RL/Stimuli/Fractals_stims/B.jpg,1.0,60.0,40.0,80.0,40.0,A,B,109.515,0.515,0.0,
302,,rl_choice_confirmation,,html-keyboard-response,302,424192,0.0-1.0-416.0-0.0,0,0,54497,,,,,,59.0,,,,,,,,,,,,,,,,,,,,,,110.5,0.985,,
303,,isi,,html-keyboard-response,303,425195,0.0-1.0-418.0,0,0,54497,,,,,,,,,,,,,,,,,,,,,,,,,,,,111.5,1.0,,
304,,feedback,,html-keyboard-response,304,426199,0.0-1.0-419.0-0.0,0,0,54497,,,,,,59.0,,,,,,,,,,,,,,,,,,,,,,112.5,1.0,,
305,,iti,,html-keyboard-response,305,427702,0.0-1.0-420.0,0,0,54497,,,,,,,,,,,,,,,,,,,,,,,,,,,,114.0,1.5,,
306,,rl_choice,,html-keyboard-response,306,428259,0.0-1.0-422.0,0,0,54497,,554.0,,,68.0,60.0,60.0,2.0,hard,1500.0,1000.0,1.0,60.0,40.0,40.0,40.0,A,B,/static/Simple_RL/Stimuli/Fractals_stims/A.jpg,/static/Simple_RL/Stimuli/Fractals_stims/B.jpg,1.0,60.0,40.0,40.0,40.0,A,B,114.554,0.554,0.0,
307,,rl_choice_confirmation,,html-keyboard-response,307,429208,0.0-1.0-423.0-0.0,0,0,54497,,,,,,60.0,,,,,,,,,,,,,,,,,,,,,,115.5,0.946,,
308,,isi,,html-keyboard-response,308,430211,0.0-1.0-425.0,0,0,54497,,,,,,,,,,,,,,,,,,,,,,,,,,,,116.5,1.0,,
309,,feedback,,html-keyboard-response,309,431215,0.0-1.0-426.0-0.0,0,0,54497,,,,,,60.0,,,,,,,,,,,,,,,,,,,,,,117.5,1.0,,
310,,iti,,html-keyboard-response,310,432718,0.0-1.0-427.0,0,0,54497,,,,,,,,,,,,,,,,,,,,,,,,,,,,119.0,1.5,,
311,,rl_choice,,html-keyboard-response,311,433169,0.0-1.0-429.0,0,0,54497,,449.0,,,68.0,61.0,61.0,2.0,hard,1000.0,1000.0,1.0,60.0,40.0,40.0,60.0,A,B,/static/Simple_RL/Stimuli/Fractals_stims/A.jpg,/static/Simple_RL/Stimuli/Fractals_stims/B.jpg,1.0,60.0,40.0,40.0,60.0,A,B,119.449,0.449,0.0,
312,,rl_choice_confirmation,,html-keyboard-response,312,434224,0.0-1.0-430.0-0.0,0,0,54497,,,,,,61.0,,,,,,,,,,,,,,,,,,,,,,120.5,1.051,,
313,,isi,,html-keyboard-response,313,435228,0.0-1.0-432.0,0,0,54497,,,,,,,,,,,,,,,,,,,,,,,,,,,,121.5,1.0,,
314,,feedback,,html-keyboard-response,314,436232,0.0-1.0-433.0-0.0,0,0,54497,,,,,,61.0,,,,,,,,,,,,,,,,,,,,,,122.5,1.0,,
315,,iti,,html-keyboard-response,315,437235,0.0-1.0-434.0,0,0,54497,,,,,,,,,,,,,,,,,,,,,,,,,,,,123.5,1.0,,
316,,rl_choice,,html-keyboard-response,316,437624,0.0-1.0-436.0,0,0,54497,,387.0,,,68.0,62.0,62.0,2.0,hard,1000.0,3000.0,1.0,60.0,40.0,60.0,20.0,A,B,/static/Simple_RL/Stimuli/Fractals_stims/A.jpg,/static/Simple_RL/Stimuli/Fractals_stims/B.jpg,1.0,60.0,40.0,60.0,20.0,A,B,123.887,0.387,0.0,
317,,rl_choice_confirmation,,html-keyboard-response,317,438740,0.0-1.0-437.0-0.0,0,0,54497,,,,,,62.0,,,,,,,,,,,,,,,,,,,,,,125.0,1.113,,
318,,isi,,html-keyboard-response,318,441743,0.0-1.0-439.0,0,0,54497,,,,,,,,,,,,,,,,,,,,,,,,,,,,128.0,3.0,,
319,,feedback,,html-keyboard-response,319,442746,0.0-1.0-440.0-0.0,0,0,54497,,,,,,62.0,,,,,,,,,,,,,,,,,,,,,,129.0,1.0,,
320,,iti,,html-keyboard-response,320,443748,0.0-1.0-441.0,0,0,54497,,,,,,,,,,,,,,,,,,,,,,,,,,,,130.0,1.0,,
321,,rl_choice,,html-keyboard-response,321,444257,0.0-1.0-443.0,0,0,54497,,506.0,,,75.0,63.0,63.0,2.0,easy,2000.0,1500.0,0.0,20.0,80.0,20.0,60.0,D,C,/static/Simple_RL/Stimuli/Fractals_stims/D.jpg,/static/Simple_RL/Stimuli/Fractals_stims/C.jpg,0.0,80.0,20.0,60.0,20.0,C,D,130.506,0.506,0.0,
322,,rl_choice_confirmation,,html-keyboard-response,322,445255,0.0-1.0-444.0-0.0,0,0,54497,,,,,,63.0,,,,,,,,,,,,,,,,,,,,,,131.5,0.994,,
323,,isi,,html-keyboard-response,323,446758,0.0-1.0-446.0,0,0,54497,,,,,,,,,,,,,,,,,,,,,,,,,,,,133.0,1.5,,
324,,feedback,,html-keyboard-response,324,447763,0.0-1.0-447.0-0.0,0,0,54497,,,,,,63.0,,,,,,,,,,,,,,,,,,,,,,134.0,1.0,,
325,,iti,,html-keyboard-response,325,449766,0.0-1.0-448.0,0,0,54497,,,,,,,,,,,,,,,,,,,,,,,,,,,,136.0,2.0,,
326,,rl_choice,,html-keyboard-response,326,450249,0.0-1.0-450.0,0,0,54497,,480.0,,,75.0,64.0,64.0,2.0,easy,2000.0,1000.0,1.0,80.0,20.0,100.0,20.0,C,D,/static/Simple_RL/Stimuli/Fractals_stims/C.jpg,/static/Simple_RL/Stimuli/Fractals_stims/D.jpg,0.0,20.0,80.0,20.0,100.0,D,C,136.48,0.48,0.0,
327,,rl_choice_confirmation,,html-keyboard-response,327,451274,0.0-1.0-451.0-0.0,0,0,54497,,,,,,64.0,,,,,,,,,,,,,,,,,,,,,,137.5,1.02,,
328,,isi,,html-keyboard-response,328,452278,0.0-1.0-453.0,0,0,54497,,,,,,,,,,,,,,,,,,,,,,,,,,,,138.5,1.0,,
329,,feedback,,html-keyboard-response,329,453282,0.0-1.0-454.0-0.0,0,0,54497,,,,,,64.0,,,,,,,,,,,,,,,,,,,,,,139.5,1.0,,
330,,iti,,html-keyboard-response,330,455284,0.0-1.0-455.0,0,0,54497,,,,,,,,,,,,,,,,,,,,,,,,,,,,141.5,2.0,,
331,,rl_choice,,html-keyboard-response,331,456129,0.0-1.0-457.0,0,0,54497,,842.0,,,75.0,65.0,65.0,2.0,hard,2000.0,1500.0,1.0,60.0,40.0,60.0,40.0,A,B,/static/Simple_RL/Stimuli/Fractals_stims/A.jpg,/static/Simple_RL/Stimuli/Fractals_stims/B.jpg,0.0,40.0,60.0,40.0,60.0,B,A,142.342,0.842,0.0,
332,,rl_choice_confirmation,,html-keyboard-response,332,456791,0.0-1.0-458.0-0.0,0,0,54497,,,,,,65.0,,,,,,,,,,,,,,,,,,,,,,143.0,0.658,,
333,,isi,,html-keyboard-response,333,458294,0.0-1.0-460.0,0,0,54497,,,,,,,,,,,,,,,,,,,,,,,,,,,,144.5,1.5,,
334,,feedback,,html-keyboard-response,334,459298,0.0-1.0-461.0-0.0,0,0,54497,,,,,,65.0,,,,,,,,,,,,,,,,,,,,,,145.5,1.0,,
335,,iti,,html-keyboard-response,335,461301,0.0-1.0-462.0,0,0,54497,,,,,,,,,,,,,,,,,,,,,,,,,,,,147.5,2.0,,
336,,rl_choice,,html-keyboard-response,336,461907,0.0-1.0-464.0,0,0,54497,,603.0,,,68.0,66.0,66.0,2.0,hard,3000.0,1000.0,1.0,60.0,40.0,60.0,20.0,A,B,/static/Simple_RL/Stimuli/Fractals_stims/A.jpg,/static/Simple_RL/Stimuli/Fractals_stims/B.jpg,1.0,60.0,40.0,60.0,20.0,A,B,148.103,0.603,0.0,
337,,rl_choice_confirmation,,html-keyboard-response,337,462808,0.0-1.0-465.0-0.0,0,0,54497,,,,,,66.0,,,,,,,,,,,,,,,,,,,,,,149.0,0.897,,
338,,isi,,html-keyboard-response,338,463811,0.0-1.0-467.0,0,0,54497,,,,,,,,,,,,,,,,,,,,,,,,,,,,150.0,1.0,,
339,,feedback,,html-keyboard-response,339,464815,0.0-1.0-468.0-0.0,0,0,54497,,,,,,66.0,,,,,,,,,,,,,,,,,,,,,,151.0,1.0,,
340,,iti,,html-keyboard-response,340,467818,0.0-1.0-469.0,0,0,54497,,,,,,,,,,,,,,,,,,,,,,,,,,,,154.0,3.0,,
341,,rl_choice,,html-keyboard-response,341,468590,0.0-1.0-471.0,0,0,54497,,769.0,,,68.0,67.0,67.0,2.0,easy,3500.0,2000.0,1.0,80.0,20.0,60.0,40.0,C,D,/static/Simple_RL/Stimuli/Fractals_stims/C.jpg,/static/Simple_RL/Stimuli/Fractals_stims/D.jpg,1.0,80.0,20.0,60.0,40.0,C,D,154.769,0.769,0.0,
342,,rl_choice_confirmation,,html-keyboard-response,342,469326,0.0-1.0-472.0-0.0,0,0,54497,,,,,,67.0,,,,,,,,,,,,,,,,,,,,,,155.5,0.731,,
343,,isi,,html-keyboard-response,343,471329,0.0-1.0-474.0,0,0,54497,,,,,,,,,,,,,,,,,,,,,,,,,,,,157.5,2.0,,
344,,feedback,,html-keyboard-response,344,472332,0.0-1.0-475.0-0.0,0,0,54497,,,,,,67.0,,,,,,,,,,,,,,,,,,,,,,158.5,1.0,,
345,,iti,,html-keyboard-response,345,475835,0.0-1.0-476.0,0,0,54497,,,,,,,,,,,,,,,,,,,,,,,,,,,,162.0,3.5,,
346,,rl_choice,,html-keyboard-response,346,476249,0.0-1.0-478.0,0,0,54497,,410.0,,,75.0,68.0,68.0,2.0,easy,3000.0,2000.0,0.0,20.0,80.0,40.0,80.0,D,C,/static/Simple_RL/Stimuli/Fractals_stims/D.jpg,/static/Simple_RL/Stimuli/Fractals_stims/C.jpg,0.0,80.0,20.0,80.0,40.0,C,D,162.41,0.41,0.0,
347,,rl_choice_confirmation,,html-keyboard-response,347,477344,0.0-1.0-479.0-0.0,0,0,54497,,,,,,68.0,,,,,,,,,,,,,,,,,,,,,,163.5,1.09,,
348,,isi,,html-keyboard-response,348,479349,0.0-1.0-481.0,0,0,54497,,,,,,,,,,,,,,,,,,,,,,,,,,,,165.5,2.0,,
349,,feedback,,html-keyboard-response,349,480357,0.0-1.0-482.0-0.0,0,0,54497,,,,,,68.0,,,,,,,,,,,,,,,,,,,,,,166.5,1.0,,
350,,iti,,html-keyboard-response,350,483360,0.0-1.0-483.0,0,0,54497,,,,,,,,,,,,,,,,,,,,,,,,,,,,169.5,3.0,,
351,,rl_choice,,html-keyboard-response,351,483877,0.0-1.0-485.0,0,0,54497,,515.0,,,68.0,69.0,69.0,2.0,hard,2000.0,1000.0,1.0,60.0,40.0,40.0,60.0,A,B,/static/Simple_RL/Stimuli/Fractals_stims/A.jpg,/static/Simple_RL/Stimuli/Fractals_stims/B.jpg,1.0,60.0,40.0,40.0,60.0,A,B,170.015,0.515,0.0,
352,,rl_choice_confirmation,,html-keyboard-response,352,484866,0.0-1.0-486.0-0.0,0,0,54497,,,,,,69.0,,,,,,,,,,,,,,,,,,,,,,171.0,0.985,,
353,,isi,,html-keyboard-response,353,485869,0.0-1.0-488.0,0,0,54497,,,,,,,,,,,,,,,,,,,,,,,,,,,,172.0,1.0,,
354,,feedback,,html-keyboard-response,354,486873,0.0-1.0-489.0-0.0,0,0,54497,,,,,,69.0,,,,,,,,,,,,,,,,,,,,,,173.0,1.0,,
355,,iti,,html-keyboard-response,355,488876,0.0-1.0-490.0,0,0,54497,,,,,,,,,,,,,,,,,,,,,,,,,,,,175.0,2.0,,
356,,rl_choice,,html-keyboard-response,356,489596,0.0-1.0-492.0,0,0,54497,,717.0,,,68.0,70.0,70.0,2.0,hard,1000.0,3500.0,1.0,60.0,40.0,80.0,40.0,A,B,/static/Simple_RL/Stimuli/Fractals_stims/A.jpg,/static/Simple_RL/Stimuli/Fractals_stims/B.jpg,1.0,60.0,40.0,80.0,40.0,A,B,175.717,0.717,0.0,
357,,rl_choice_confirmation,,html-keyboard-response,357,490383,0.0-1.0-493.0-0.0,0,0,54497,,,,,,70.0,,,,,,,,,,,,,,,,,,,,,,176.5,0.783,,
358,,isi,,html-keyboard-response,358,493886,0.0-1.0-495.0,0,0,54497,,,,,,,,,,,,,,,,,,,,,,,,,,,,180.0,3.5,,
359,,feedback,,html-keyboard-response,359,494890,0.0-1.0-496.0-0.0,0,0,54497,,,,,,70.0,,,,,,,,,,,,,,,,,,,,,,181.0,1.0,,
360,,iti,,html-keyboard-response,360,495893,0.0-1.0-497.0,0,0,54497,,,,,,,,,,,,,,,,,,,,,,,,,,,,182.0,1.0,,
361,,rl_choice,,html-keyboard-response,361,496395,0.0-1.0-499.0,0,0,54497,,500.0,,,68.0,71.0,71.0,2.0,hard,1000.0,1500.0,1.0,60.0,40.0,40.0,40.0,A,B,/static/Simple_RL/Stimuli/Fractals_stims/A.jpg,/static/Simple_RL/Stimuli/Fractals_stims/B.jpg,1.0,60.0,40.0,40.0,40.0,A,B,182.5,0.5,0.0,
362,,rl_choice_confirmation,,html-keyboard-response,362,497399,0.0-1.0-500.0-0.0,0,0,54497,,,,,,71.0,,,,,,,,,,,,,,,,,,,,,,183.5,1.0,,
363,,isi,,html-keyboard-response,363,498902,0.0-1.0-502.0,0,0,54497,,,,,,,,,,,,,,,,,,,,,,,,,,,,185.0,1.5,,
364,,feedback,,html-keyboard-response,364,499906,0.0-1.0-503.0-0.0,0,0,54497,,,,,,71.0,,,,,,,,,,,,,,,,,,,,,,186.0,1.0,,
365,,iti,,html-keyboard-response,365,500908,0.0-1.0-504.0,0,0,54497,,,,,,,,,,,,,,,,,,,,,,,,,,,,187.0,1.0,,
366,,rl_choice,,html-keyboard-response,366,501450,0.0-1.0-506.0,0,0,54497,,539.0,,,75.0,72.0,72.0,2.0,easy,1000.0,1500.0,0.0,20.0,80.0,0.0,80.0,D,C,/static/Simple_RL/Stimuli/Fractals_stims/D.jpg,/static/Simple_RL/Stimuli/Fractals_stims/C.jpg,0.0,80.0,20.0,80.0,0.0,C,D,187.539,0.539,0.0,
367,,rl_choice_confirmation,,html-keyboard-response,367,502416,0.0-1.0-507.0-0.0,0,0,54497,,,,,,72.0,,,,,,,,,,,,,,,,,,,,,,188.5,0.961,,
368,,isi,,html-keyboard-response,368,503918,0.0-1.0-509.0,0,0,54497,,,,,,,,,,,,,,,,,,,,,,,,,,,,190.0,1.5,,
369,,feedback,,html-keyboard-response,369,504924,0.0-1.0-510.0-0.0,0,0,54497,,,,,,72.0,,,,,,,,,,,,,,,,,,,,,,191.0,1.0,,
370,,iti,,html-keyboard-response,370,505929,0.0-1.0-511.0,0,0,54497,,,,,,,,,,,,,,,,,,,,,,,,,,,,192.0,1.0,,
371,,rl_choice,,html-keyboard-response,371,506450,0.0-1.0-513.0,0,0,54497,,518.0,,,68.0,73.0,73.0,2.0,easy,1000.0,3000.0,1.0,80.0,20.0,60.0,0.0,C,D,/static/Simple_RL/Stimuli/Fractals_stims/C.jpg,/static/Simple_RL/Stimuli/Fractals_stims/D.jpg,1.0,80.0,20.0,60.0,0.0,C,D,192.518,0.518,0.0,
372,,rl_choice_confirmation,,html-keyboard-response,372,507437,0.0-1.0-514.0-0.0,0,0,54497,,,,,,73.0,,,,,,,,,,,,,,,,,,,,,,193.5,0.982,,
373,,isi,,html-keyboard-response,373,510440,0.0-1.0-516.0,0,0,54497,,,,,,,,,,,,,,,,,,,,,,,,,,,,196.5,3.0,,
374,,feedback,,html-keyboard-response,374,511443,0.0-1.0-517.0-0.0,0,0,54497,,,,,,73.0,,,,,,,,,,,,,,,,,,,,,,197.5,1.0,,
375,,iti,,html-keyboard-response,375,512446,0.0-1.0-518.0,0,0,54497,,,,,,,,,,,,,,,,,,,,,,,,,,,,198.5,1.0,,
376,,rl_choice,,html-keyboard-response,376,513075,0.0-1.0-520.0,0,0,54497,,627.0,,,68.0,74.0,74.0,2.0,hard,3500.0,2000.0,1.0,60.0,40.0,60.0,60.0,A,B,/static/Simple_RL/Stimuli/Fractals_stims/A.jpg,/static/Simple_RL/Stimuli/Fractals_stims/B.jpg,1.0,60.0,40.0,60.0,60.0,A,B,199.127,0.627,0.0,
377,,rl_choice_confirmation,,html-keyboard-response,377,513952,0.0-1.0-521.0-0.0,0,0,54497,,,,,,74.0,,,,,,,,,,,,,,,,,,,,,,200.0,0.873,,
378,,isi,,html-keyboard-response,378,515956,0.0-1.0-523.0,0,0,54497,,,,,,,,,,,,,,,,,,,,,,,,,,,,202.0,2.0,,
379,,feedback,,html-keyboard-response,379,516959,0.0-1.0-524.0-0.0,0,0,54497,,,,,,74.0,,,,,,,,,,,,,,,,,,,,,,203.0,1.0,,
380,,iti,,html-keyboard-response,380,520462,0.0-1.0-525.0,0,0,54497,,,,,,,,,,,,,,,,,,,,,,,,,,,,206.5,3.5,,
381,,rl_choice,,html-keyboard-response,381,520988,0.0-1.0-527.0,0,0,54497,,524.0,,,75.0,75.0,75.0,2.0,hard,1500.0,3000.0,0.0,40.0,60.0,60.0,80.0,B,A,/static/Simple_RL/Stimuli/Fractals_stims/B.jpg,/static/Simple_RL/Stimuli/Fractals_stims/A.jpg,0.0,60.0,40.0,80.0,60.0,A,B,207.024,0.524,0.0,
382,,rl_choice_confirmation,,html-keyboard-response,382,521969,0.0-1.0-528.0-0.0,0,0,54497,,,,,,75.0,,,,,,,,,,,,,,,,,,,,,,208.0,0.976,,
383,,isi,,html-keyboard-response,383,524972,0.0-1.0-530.0,0,0,54497,,,,,,,,,,,,,,,,,,,,,,,,,,,,211.0,3.0,,
384,,feedback,,html-keyboard-response,384,525975,0.0-1.0-531.0-0.0,0,0,54497,,,,,,75.0,,,,,,,,,,,,,,,,,,,,,,212.0,1.0,,
385,,iti,,html-keyboard-response,385,527479,0.0-1.0-532.0,0,0,54497,,,,,,,,,,,,,,,,,,,,,,,,,,,,213.5,1.5,,
386,,rl_choice,,html-keyboard-response,386,528025,0.0-1.0-534.0,0,0,54497,,544.0,,,75.0,76.0,76.0,2.0,easy,1000.0,1000.0,0.0,20.0,80.0,20.0,80.0,D,C,/static/Simple_RL/Stimuli/Fractals_stims/D.jpg,/static/Simple_RL/Stimuli/Fractals_stims/C.jpg,0.0,80.0,20.0,80.0,20.0,C,D,214.044,0.544,0.0,
387,,rl_choice_confirmation,,html-keyboard-response,387,528983,0.0-1.0-535.0-0.0,0,0,54497,,,,,,76.0,,,,,,,,,,,,,,,,,,,,,,215.0,0.956,,
388,,isi,,html-keyboard-response,388,529985,0.0-1.0-537.0,0,0,54497,,,,,,,,,,,,,,,,,,,,,,,,,,,,216.0,1.0,,
389,,feedback,,html-keyboard-response,389,530989,0.0-1.0-538.0-0.0,0,0,54497,,,,,,76.0,,,,,,,,,,,,,,,,,,,,,,217.0,1.0,,
390,,iti,,html-keyboard-response,390,531993,0.0-1.0-539.0,0,0,54497,,,,,,,,,,,,,,,,,,,,,,,,,,,,218.0,1.0,,
391,,rl_choice,,html-keyboard-response,391,532494,0.0-1.0-541.0,0,0,54497,,498.0,,,75.0,77.0,77.0,2.0,hard,1000.0,1000.0,0.0,40.0,60.0,60.0,40.0,B,A,/static/Simple_RL/Stimuli/Fractals_stims/B.jpg,/static/Simple_RL/Stimuli/Fractals_stims/A.jpg,0.0,60.0,40.0,40.0,60.0,A,B,218.498,0.498,0.0,
392,,rl_choice_confirmation,,html-keyboard-response,392,533500,0.0-1.0-542.0-0.0,0,0,54497,,,,,,77.0,,,,,,,,,,,,,,,,,,,,,,219.5,1.002,,
393,,isi,,html-keyboard-response,393,534513,0.0-1.0-544.0,0,0,54497,,,,,,,,,,,,,,,,,,,,,,,,,,,,220.5,1.0,,
394,,feedback,,html-keyboard-response,394,535518,0.0-1.0-545.0-0.0,0,0,54497,,,,,,77.0,,,,,,,,,,,,,,,,,,,,,,221.5,1.0,,
395,,iti,,html-keyboard-response,395,536521,0.0-1.0-546.0,0,0,54497,,,,,,,,,,,,,,,,,,,,,,,,,,,,222.5,1.0,,
396,,rl_choice,,html-keyboard-response,396,537168,0.0-1.0-548.0,0,0,54497,,644.0,,,68.0,78.0,78.0,2.0,easy,1000.0,1500.0,1.0,80.0,20.0,80.0,0.0,C,D,/static/Simple_RL/Stimuli/Fractals_stims/C.jpg,/static/Simple_RL/Stimuli/Fractals_stims/D.jpg,1.0,80.0,20.0,80.0,0.0,C,D,223.144,0.644,0.0,
397,,rl_choice_confirmation,,html-keyboard-response,397,538029,0.0-1.0-549.0-0.0,0,0,54497,,,,,,78.0,,,,,,,,,,,,,,,,,,,,,,224.0,0.856,,
398,,isi,,html-keyboard-response,398,539532,0.0-1.0-551.0,0,0,54497,,,,,,,,,,,,,,,,,,,,,,,,,,,,225.5,1.5,,
399,,feedback,,html-keyboard-response,399,540536,0.0-1.0-552.0-0.0,0,0,54497,,,,,,78.0,,,,,,,,,,,,,,,,,,,,,,226.5,1.0,,
400,,iti,,html-keyboard-response,400,541539,0.0-1.0-553.0,0,0,54497,,,,,,,,,,,,,,,,,,,,,,,,,,,,227.5,1.0,,
401,,rl_choice,,html-keyboard-response,401,542043,0.0-1.0-555.0,0,0,54497,,502.0,,,75.0,79.0,79.0,2.0,easy,1000.0,1000.0,0.0,20.0,80.0,0.0,100.0,D,C,/static/Simple_RL/Stimuli/Fractals_stims/D.jpg,/static/Simple_RL/Stimuli/Fractals_stims/C.jpg,0.0,80.0,20.0,100.0,0.0,C,D,228.002,0.502,0.0,
402,,rl_choice_confirmation,,html-keyboard-response,402,543044,0.0-1.0-556.0-0.0,0,0,54497,,,,,,79.0,,,,,,,,,,,,,,,,,,,,,,229.0,0.998,,
403,,isi,,html-keyboard-response,403,544046,0.0-1.0-558.0,0,0,54497,,,,,,,,,,,,,,,,,,,,,,,,,,,,230.0,1.0,,
404,,feedback,,html-keyboard-response,404,545049,0.0-1.0-559.0-0.0,0,0,54497,,,,,,79.0,,,,,,,,,,,,,,,,,,,,,,231.0,1.0,,
405,,iti,,html-keyboard-response,405,546051,0.0-1.0-560.0,0,0,54497,,,,,,,,,,,,,,,,,,,,,,,,,,,,232.0,1.0,,1.0
406,,final_tally,,html-keyboard-response,406,547333,0.0-2.0,0,0,54497,,1279.0,,,68.0,,,,,,,,,,,,,,,,,,,,,,,,,,
