,success,ttype,start_time,trial_type,trial_index,time_elapsed,internal_node_id,warning,missed_checkup,PID,view_history,rt,responses,repeat_instructions,key_press,index,trial_num,block,condition,iti,isi,high_group_on_left,left_group_value,right_group_value,left_item_value,right_item_value,left_img,right_img,left_img_path,right_img_path,left_chosen,chosen_group_value,unchosen_group_value,chosen_item_value,unchosen_item_value,chosen_img,unchosen_img,no_response,onset,duration,no_resposne,total_bonus_tally
0,True,full_screen,d05272022hr1650,fullscreen,0,2440,0.0-0.0,0,0,95248,,,,,,,,,,,,,,,,,,,,,,,,,,,,,,,,
1,,size_instructions,,instructions,1,52982,0.0-1.0-0.0-0.0,0,0,95248,"[{""page_index"":0,""viewing_time"":4190},{""page_index"":1,""viewing_time"":9243},{""page_index"":2,""viewing_time"":11681},{""page_index"":3,""viewing_time"":21129},{""page_index"":4,""viewing_time"":2473},{""page_index"":5,""viewing_time"":1824}]",50541.0,,,,,,,,,,,,,,,,,,,,,,,,,,,,,,
2,,rl_comprehension_check,,survey-multi-choice,2,61363,0.0-1.0-0.0-1.0,0,0,95248,,8379.0,"{""Q0"":""True"",""Q1"":""True"",""Q2"":""D for left and K for right""}",0.0,,,,,,,,,,,,,,,,,,,,,,,,,,,,
3,,,,html-keyboard-response,3,62562,0.0-1.0-1.0,0,0,95248,,1197.0,,,68.0,,,,,,,,,,,,,,,,,,,,,,,,,,,
4,,rl_choice,,html-keyboard-response,4,63271,0.0-1.0-2.0,0,0,95248,,708.0,,,68.0,0.0,0.0,1.0,hard,1500.0,1000.0,0.0,40.0,60.0,20.0,60.0,D,C,/static/Simple_RL/Stimuli/Fractals_stims/D.jpg,/static/Simple_RL/Stimuli/Fractals_stims/C.jpg,1.0,40.0,60.0,20.0,60.0,D,C,0.0,0.708,0.708,,
5,,rl_choice_confirmation,,html-keyboard-response,5,64069,0.0-1.0-3.0-0.0,0,0,95248,,,,,,0.0,,,,,,,,,,,,,,,,,,,,,,,1.5,0.792,,
6,,isi,,html-keyboard-response,6,65072,0.0-1.0-5.0,0,0,95248,,,,,,,,,,,,,,,,,,,,,,,,,,,,,2.5,1.0,,
7,,feedback,,html-keyboard-response,7,66077,0.0-1.0-6.0-0.0,0,0,95248,,,,,,0.0,,,,,,,,,,,,,,,,,,,,,,,3.5,1.0,,
8,,iti,,html-keyboard-response,8,67579,0.0-1.0-7.0,0,0,95248,,,,,,,,,,,,,,,,,,,,,,,,,,,,,5.0,1.5,,
9,,rl_choice,,html-keyboard-response,9,68072,0.0-1.0-9.0,0,0,95248,,490.0,,,75.0,1.0,1.0,1.0,easy,1500.0,3500.0,0.0,20.0,80.0,20.0,100.0,B,A,/static/Simple_RL/Stimuli/Fractals_stims/B.jpg,/static/Simple_RL/Stimuli/Fractals_stims/A.jpg,0.0,80.0,20.0,100.0,20.0,A,B,0.0,5.49,0.49,,
10,,rl_choice_confirmation,,html-keyboard-response,10,69088,0.0-1.0-10.0-0.0,0,0,95248,,,,,,1.0,,,,,,,,,,,,,,,,,,,,,,,6.5,1.01,,
11,,isi,,html-keyboard-response,11,72592,0.0-1.0-12.0,0,0,95248,,,,,,,,,,,,,,,,,,,,,,,,,,,,,10.0,3.5,,
12,,feedback,,html-keyboard-response,12,73595,0.0-1.0-13.0-0.0,0,0,95248,,,,,,1.0,,,,,,,,,,,,,,,,,,,,,,,11.0,1.0,,
13,,iti,,html-keyboard-response,13,75099,0.0-1.0-14.0,0,0,95248,,,,,,,,,,,,,,,,,,,,,,,,,,,,,12.5,1.5,,
14,,rl_choice,,html-keyboard-response,14,75595,0.0-1.0-16.0,0,0,95248,,494.0,,,68.0,2.0,2.0,1.0,hard,3500.0,1000.0,0.0,40.0,60.0,20.0,60.0,D,C,/static/Simple_RL/Stimuli/Fractals_stims/D.jpg,/static/Simple_RL/Stimuli/Fractals_stims/C.jpg,1.0,40.0,60.0,20.0,60.0,D,C,0.0,12.994,0.494,,
15,,rl_choice_confirmation,,html-keyboard-response,15,76603,0.0-1.0-17.0-0.0,0,0,95248,,,,,,2.0,,,,,,,,,,,,,,,,,,,,,,,14.0,1.006,,
16,,isi,,html-keyboard-response,16,77605,0.0-1.0-19.0,0,0,95248,,,,,,,,,,,,,,,,,,,,,,,,,,,,,15.0,1.0,,
17,,feedback,,html-keyboard-response,17,78608,0.0-1.0-20.0-0.0,0,0,95248,,,,,,2.0,,,,,,,,,,,,,,,,,,,,,,,16.0,1.0,,
18,,iti,,html-keyboard-response,18,82112,0.0-1.0-21.0,0,0,95248,,,,,,,,,,,,,,,,,,,,,,,,,,,,,19.5,3.5,,
19,,rl_choice,,html-keyboard-response,19,82992,0.0-1.0-23.0,0,0,95248,,879.0,,,68.0,3.0,3.0,1.0,easy,3000.0,1000.0,1.0,80.0,20.0,100.0,20.0,A,B,/static/Simple_RL/Stimuli/Fractals_stims/A.jpg,/static/Simple_RL/Stimuli/Fractals_stims/B.jpg,1.0,80.0,20.0,100.0,20.0,A,B,0.0,20.379,0.879,,
20,,rl_choice_confirmation,,html-keyboard-response,20,83618,0.0-1.0-24.0-0.0,0,0,95248,,,,,,3.0,,,,,,,,,,,,,,,,,,,,,,,21.0,0.621,,
21,,isi,,html-keyboard-response,21,84624,0.0-1.0-26.0,0,0,95248,,,,,,,,,,,,,,,,,,,,,,,,,,,,,22.0,1.0,,
22,,feedback,,html-keyboard-response,22,85630,0.0-1.0-27.0-0.0,0,0,95248,,,,,,3.0,,,,,,,,,,,,,,,,,,,,,,,23.0,1.0,,
23,,iti,,html-keyboard-response,23,88635,0.0-1.0-28.0,0,0,95248,,,,,,,,,,,,,,,,,,,,,,,,,,,,,26.0,3.0,,
24,,rl_choice,,html-keyboard-response,24,89218,0.0-1.0-30.0,0,0,95248,,581.0,,,68.0,4.0,4.0,1.0,hard,1000.0,1500.0,0.0,40.0,60.0,60.0,40.0,D,C,/static/Simple_RL/Stimuli/Fractals_stims/D.jpg,/static/Simple_RL/Stimuli/Fractals_stims/C.jpg,1.0,40.0,60.0,60.0,40.0,D,C,0.0,26.581,0.581,,
25,,rl_choice_confirmation,,html-keyboard-response,25,90143,0.0-1.0-31.0-0.0,0,0,95248,,,,,,4.0,,,,,,,,,,,,,,,,,,,,,,,27.5,0.919,,
26,,isi,,html-keyboard-response,26,91648,0.0-1.0-33.0,0,0,95248,,,,,,,,,,,,,,,,,,,,,,,,,,,,,29.0,1.5,,
27,,feedback,,html-keyboard-response,27,92651,0.0-1.0-34.0-0.0,0,0,95248,,,,,,4.0,,,,,,,,,,,,,,,,,,,,,,,30.0,1.0,,
28,,iti,,html-keyboard-response,28,93653,0.0-1.0-35.0,0,0,95248,,,,,,,,,,,,,,,,,,,,,,,,,,,,,31.0,1.0,,
29,,rl_choice,,html-keyboard-response,29,94283,0.0-1.0-37.0,0,0,95248,,628.0,,,75.0,5.0,5.0,1.0,hard,2000.0,1000.0,0.0,40.0,60.0,40.0,60.0,D,C,/static/Simple_RL/Stimuli/Fractals_stims/D.jpg,/static/Simple_RL/Stimuli/Fractals_stims/C.jpg,0.0,60.0,40.0,60.0,40.0,C,D,0.0,31.628,0.628,,
30,,rl_choice_confirmation,,html-keyboard-response,30,95158,0.0-1.0-38.0-0.0,0,0,95248,,,,,,5.0,,,,,,,,,,,,,,,,,,,,,,,32.5,0.872,,
31,,isi,,html-keyboard-response,31,96160,0.0-1.0-40.0,0,0,95248,,,,,,,,,,,,,,,,,,,,,,,,,,,,,33.5,1.0,,
32,,feedback,,html-keyboard-response,32,97163,0.0-1.0-41.0-0.0,0,0,95248,,,,,,5.0,,,,,,,,,,,,,,,,,,,,,,,34.5,1.0,,
33,,iti,,html-keyboard-response,33,99168,0.0-1.0-42.0,0,0,95248,,,,,,,,,,,,,,,,,,,,,,,,,,,,,36.5,2.0,,
34,,rl_choice,,html-keyboard-response,34,99924,0.0-1.0-44.0,0,0,95248,,753.0,,,68.0,6.0,6.0,1.0,easy,1000.0,3000.0,1.0,80.0,20.0,60.0,40.0,A,B,/static/Simple_RL/Stimuli/Fractals_stims/A.jpg,/static/Simple_RL/Stimuli/Fractals_stims/B.jpg,1.0,80.0,20.0,60.0,40.0,A,B,0.0,37.253,0.753,,
35,,rl_choice_confirmation,,html-keyboard-response,35,100672,0.0-1.0-45.0-0.0,0,0,95248,,,,,,6.0,,,,,,,,,,,,,,,,,,,,,,,38.0,0.747,,
36,,isi,,html-keyboard-response,36,103675,0.0-1.0-47.0,0,0,95248,,,,,,,,,,,,,,,,,,,,,,,,,,,,,41.0,3.0,,
37,,feedback,,html-keyboard-response,37,104679,0.0-1.0-48.0-0.0,0,0,95248,,,,,,6.0,,,,,,,,,,,,,,,,,,,,,,,42.0,1.0,,
38,,iti,,html-keyboard-response,38,105686,0.0-1.0-49.0,0,0,95248,,,,,,,,,,,,,,,,,,,,,,,,,,,,,43.0,1.0,,
39,,rl_choice,,html-keyboard-response,39,106212,0.0-1.0-51.0,0,0,95248,,524.0,,,68.0,7.0,7.0,1.0,easy,2000.0,3000.0,1.0,80.0,20.0,100.0,0.0,A,B,/static/Simple_RL/Stimuli/Fractals_stims/A.jpg,/static/Simple_RL/Stimuli/Fractals_stims/B.jpg,1.0,80.0,20.0,100.0,0.0,A,B,0.0,43.524,0.524,,
40,,rl_choice_confirmation,,html-keyboard-response,40,107190,0.0-1.0-52.0-0.0,0,0,95248,,,,,,7.0,,,,,,,,,,,,,,,,,,,,,,,44.5,0.976,,
41,,isi,,html-keyboard-response,41,110192,0.0-1.0-54.0,0,0,95248,,,,,,,,,,,,,,,,,,,,,,,,,,,,,47.5,3.0,,
42,,feedback,,html-keyboard-response,42,111195,0.0-1.0-55.0-0.0,0,0,95248,,,,,,7.0,,,,,,,,,,,,,,,,,,,,,,,48.5,1.0,,
43,,iti,,html-keyboard-response,43,113200,0.0-1.0-56.0,0,0,95248,,,,,,,,,,,,,,,,,,,,,,,,,,,,,50.5,2.0,,
44,,rl_choice,,html-keyboard-response,44,113712,0.0-1.0-58.0,0,0,95248,,511.0,,,68.0,8.0,8.0,1.0,easy,1000.0,2000.0,1.0,80.0,20.0,60.0,20.0,A,B,/static/Simple_RL/Stimuli/Fractals_stims/A.jpg,/static/Simple_RL/Stimuli/Fractals_stims/B.jpg,1.0,80.0,20.0,60.0,20.0,A,B,0.0,51.011,0.511,,
45,,rl_choice_confirmation,,html-keyboard-response,45,114704,0.0-1.0-59.0-0.0,0,0,95248,,,,,,8.0,,,,,,,,,,,,,,,,,,,,,,,52.0,0.989,,
46,,isi,,html-keyboard-response,46,116710,0.0-1.0-61.0,0,0,95248,,,,,,,,,,,,,,,,,,,,,,,,,,,,,54.0,2.0,,
47,,feedback,,html-keyboard-response,47,117716,0.0-1.0-62.0-0.0,0,0,95248,,,,,,8.0,,,,,,,,,,,,,,,,,,,,,,,55.0,1.0,,
48,,iti,,html-keyboard-response,48,118720,0.0-1.0-63.0,0,0,95248,,,,,,,,,,,,,,,,,,,,,,,,,,,,,56.0,1.0,,
49,,rl_choice,,html-keyboard-response,49,119296,0.0-1.0-65.0,0,0,95248,,574.0,,,68.0,9.0,9.0,1.0,easy,1500.0,1000.0,1.0,80.0,20.0,80.0,20.0,A,B,/static/Simple_RL/Stimuli/Fractals_stims/A.jpg,/static/Simple_RL/Stimuli/Fractals_stims/B.jpg,1.0,80.0,20.0,80.0,20.0,A,B,0.0,56.574,0.574,,
50,,rl_choice_confirmation,,html-keyboard-response,50,120226,0.0-1.0-66.0-0.0,0,0,95248,,,,,,9.0,,,,,,,,,,,,,,,,,,,,,,,57.5,0.926,,
51,,isi,,html-keyboard-response,51,121233,0.0-1.0-68.0,0,0,95248,,,,,,,,,,,,,,,,,,,,,,,,,,,,,58.5,1.0,,
52,,feedback,,html-keyboard-response,52,122239,0.0-1.0-69.0-0.0,0,0,95248,,,,,,9.0,,,,,,,,,,,,,,,,,,,,,,,59.5,1.0,,
53,,iti,,html-keyboard-response,53,123741,0.0-1.0-70.0,0,0,95248,,,,,,,,,,,,,,,,,,,,,,,,,,,,,61.0,1.5,,
54,,rl_choice,,html-keyboard-response,54,124789,0.0-1.0-72.0,0,0,95248,,1047.0,,,75.0,10.0,10.0,1.0,hard,1500.0,1000.0,0.0,40.0,60.0,40.0,40.0,D,C,/static/Simple_RL/Stimuli/Fractals_stims/D.jpg,/static/Simple_RL/Stimuli/Fractals_stims/C.jpg,0.0,60.0,40.0,40.0,40.0,C,D,0.0,62.047,1.047,,
55,,rl_choice_confirmation,,html-keyboard-response,55,125249,0.0-1.0-73.0-0.0,0,0,95248,,,,,,10.0,,,,,,,,,,,,,,,,,,,,,,,62.5,0.453,,
56,,isi,,html-keyboard-response,56,126251,0.0-1.0-75.0,0,0,95248,,,,,,,,,,,,,,,,,,,,,,,,,,,,,63.5,1.0,,
57,,feedback,,html-keyboard-response,57,127253,0.0-1.0-76.0-0.0,0,0,95248,,,,,,10.0,,,,,,,,,,,,,,,,,,,,,,,64.5,1.0,,
58,,iti,,html-keyboard-response,58,128758,0.0-1.0-77.0,0,0,95248,,,,,,,,,,,,,,,,,,,,,,,,,,,,,66.0,1.5,,
59,,rl_choice,,html-keyboard-response,59,130033,0.0-1.0-79.0,0,0,95248,,1273.0,,,75.0,11.0,11.0,1.0,easy,3000.0,1000.0,0.0,20.0,80.0,40.0,60.0,B,A,/static/Simple_RL/Stimuli/Fractals_stims/B.jpg,/static/Simple_RL/Stimuli/Fractals_stims/A.jpg,0.0,80.0,20.0,60.0,40.0,A,B,0.0,67.273,1.273,,
60,,rl_choice_confirmation,,html-keyboard-response,60,130262,0.0-1.0-80.0-0.0,0,0,95248,,,,,,11.0,,,,,,,,,,,,,,,,,,,,,,,67.5,0.227,,
61,,isi,,html-keyboard-response,61,131265,0.0-1.0-82.0,0,0,95248,,,,,,,,,,,,,,,,,,,,,,,,,,,,,68.5,1.0,,
62,,feedback,,html-keyboard-response,62,132267,0.0-1.0-83.0-0.0,0,0,95248,,,,,,11.0,,,,,,,,,,,,,,,,,,,,,,,69.5,1.0,,
63,,iti,,html-keyboard-response,63,135273,0.0-1.0-84.0,0,0,95248,,,,,,,,,,,,,,,,,,,,,,,,,,,,,72.5,3.0,,
64,,rl_choice,,html-keyboard-response,64,135822,0.0-1.0-86.0,0,0,95248,,548.0,,,68.0,12.0,12.0,1.0,easy,1000.0,2000.0,1.0,80.0,20.0,100.0,20.0,A,B,/static/Simple_RL/Stimuli/Fractals_stims/A.jpg,/static/Simple_RL/Stimuli/Fractals_stims/B.jpg,1.0,80.0,20.0,100.0,20.0,A,B,0.0,73.048,0.548,,
65,,rl_choice_confirmation,,html-keyboard-response,65,136779,0.0-1.0-87.0-0.0,0,0,95248,,,,,,12.0,,,,,,,,,,,,,,,,,,,,,,,74.0,0.952,,
66,,isi,,html-keyboard-response,66,138784,0.0-1.0-89.0,0,0,95248,,,,,,,,,,,,,,,,,,,,,,,,,,,,,76.0,2.0,,
67,,feedback,,html-keyboard-response,67,139787,0.0-1.0-90.0-0.0,0,0,95248,,,,,,12.0,,,,,,,,,,,,,,,,,,,,,,,77.0,1.0,,
68,,iti,,html-keyboard-response,68,140790,0.0-1.0-91.0,0,0,95248,,,,,,,,,,,,,,,,,,,,,,,,,,,,,78.0,1.0,,
69,,rl_choice,,html-keyboard-response,69,141356,0.0-1.0-93.0,0,0,95248,,565.0,,,68.0,13.0,13.0,1.0,easy,1500.0,1500.0,1.0,80.0,20.0,100.0,0.0,A,B,/static/Simple_RL/Stimuli/Fractals_stims/A.jpg,/static/Simple_RL/Stimuli/Fractals_stims/B.jpg,1.0,80.0,20.0,100.0,0.0,A,B,0.0,78.565,0.565,,
70,,rl_choice_confirmation,,html-keyboard-response,70,142299,0.0-1.0-94.0-0.0,0,0,95248,,,,,,13.0,,,,,,,,,,,,,,,,,,,,,,,79.5,0.935,,
71,,isi,,html-keyboard-response,71,143804,0.0-1.0-96.0,0,0,95248,,,,,,,,,,,,,,,,,,,,,,,,,,,,,81.0,1.5,,
72,,feedback,,html-keyboard-response,72,144806,0.0-1.0-97.0-0.0,0,0,95248,,,,,,13.0,,,,,,,,,,,,,,,,,,,,,,,82.0,1.0,,
73,,iti,,html-keyboard-response,73,146310,0.0-1.0-98.0,0,0,95248,,,,,,,,,,,,,,,,,,,,,,,,,,,,,83.5,1.5,,
74,,rl_choice,,html-keyboard-response,74,146852,0.0-1.0-100.0,0,0,95248,,541.0,,,68.0,14.0,14.0,1.0,hard,1500.0,1500.0,1.0,60.0,40.0,40.0,20.0,C,D,/static/Simple_RL/Stimuli/Fractals_stims/C.jpg,/static/Simple_RL/Stimuli/Fractals_stims/D.jpg,1.0,60.0,40.0,40.0,20.0,C,D,0.0,84.041,0.541,,
75,,rl_choice_confirmation,,html-keyboard-response,75,147814,0.0-1.0-101.0-0.0,0,0,95248,,,,,,14.0,,,,,,,,,,,,,,,,,,,,,,,85.0,0.959,,
76,,isi,,html-keyboard-response,76,149318,0.0-1.0-103.0,0,0,95248,,,,,,,,,,,,,,,,,,,,,,,,,,,,,86.5,1.5,,
77,,feedback,,html-keyboard-response,77,150324,0.0-1.0-104.0-0.0,0,0,95248,,,,,,14.0,,,,,,,,,,,,,,,,,,,,,,,87.5,1.0,,
78,,iti,,html-keyboard-response,78,151830,0.0-1.0-105.0,0,0,95248,,,,,,,,,,,,,,,,,,,,,,,,,,,,,89.0,1.5,,
79,,rl_choice,,html-keyboard-response,79,152331,0.0-1.0-107.0,0,0,95248,,500.0,,,68.0,15.0,15.0,1.0,easy,1000.0,1500.0,1.0,80.0,20.0,80.0,20.0,A,B,/static/Simple_RL/Stimuli/Fractals_stims/A.jpg,/static/Simple_RL/Stimuli/Fractals_stims/B.jpg,1.0,80.0,20.0,80.0,20.0,A,B,0.0,89.5,0.5,,
80,,rl_choice_confirmation,,html-keyboard-response,80,153334,0.0-1.0-108.0-0.0,0,0,95248,,,,,,15.0,,,,,,,,,,,,,,,,,,,,,,,90.5,1.0,,
81,,isi,,html-keyboard-response,81,154838,0.0-1.0-110.0,0,0,95248,,,,,,,,,,,,,,,,,,,,,,,,,,,,,92.0,1.5,,
82,,feedback,,html-keyboard-response,82,155841,0.0-1.0-111.0-0.0,0,0,95248,,,,,,15.0,,,,,,,,,,,,,,,,,,,,,,,93.0,1.0,,
83,,iti,,html-keyboard-response,83,156843,0.0-1.0-112.0,0,0,95248,,,,,,,,,,,,,,,,,,,,,,,,,,,,,94.0,1.0,,
84,,rl_choice,,html-keyboard-response,84,157252,0.0-1.0-114.0,0,0,95248,,408.0,,,68.0,16.0,16.0,1.0,hard,1000.0,1000.0,0.0,40.0,60.0,60.0,80.0,D,C,/static/Simple_RL/Stimuli/Fractals_stims/D.jpg,/static/Simple_RL/Stimuli/Fractals_stims/C.jpg,1.0,40.0,60.0,60.0,80.0,D,C,0.0,94.408,0.408,,
85,,rl_choice_confirmation,,html-keyboard-response,85,158347,0.0-1.0-115.0-0.0,0,0,95248,,,,,,16.0,,,,,,,,,,,,,,,,,,,,,,,95.5,1.092,,
86,,isi,,html-keyboard-response,86,159350,0.0-1.0-117.0,0,0,95248,,,,,,,,,,,,,,,,,,,,,,,,,,,,,96.5,1.0,,
87,,feedback,,html-keyboard-response,87,160353,0.0-1.0-118.0-0.0,0,0,95248,,,,,,16.0,,,,,,,,,,,,,,,,,,,,,,,97.5,1.0,,
88,,iti,,html-keyboard-response,88,161355,0.0-1.0-119.0,0,0,95248,,,,,,,,,,,,,,,,,,,,,,,,,,,,,98.5,1.0,,
89,,rl_choice,,html-keyboard-response,89,161955,0.0-1.0-121.0,0,0,95248,,598.0,,,68.0,17.0,17.0,1.0,easy,1500.0,1500.0,0.0,20.0,80.0,0.0,80.0,B,A,/static/Simple_RL/Stimuli/Fractals_stims/B.jpg,/static/Simple_RL/Stimuli/Fractals_stims/A.jpg,1.0,20.0,80.0,0.0,80.0,B,A,0.0,99.098,0.598,,
90,,rl_choice_confirmation,,html-keyboard-response,90,162859,0.0-1.0-122.0-0.0,0,0,95248,,,,,,17.0,,,,,,,,,,,,,,,,,,,,,,,100.0,0.902,,
91,,isi,,html-keyboard-response,91,164363,0.0-1.0-124.0,0,0,95248,,,,,,,,,,,,,,,,,,,,,,,,,,,,,101.5,1.5,,
92,,feedback,,html-keyboard-response,92,165370,0.0-1.0-125.0-0.0,0,0,95248,,,,,,17.0,,,,,,,,,,,,,,,,,,,,,,,102.5,1.0,,
93,,iti,,html-keyboard-response,93,166875,0.0-1.0-126.0,0,0,95248,,,,,,,,,,,,,,,,,,,,,,,,,,,,,104.0,1.5,,
94,,rl_choice,,html-keyboard-response,94,167238,0.0-1.0-128.0,0,0,95248,,362.0,,,68.0,18.0,18.0,1.0,easy,1000.0,2000.0,0.0,20.0,80.0,0.0,80.0,B,A,/static/Simple_RL/Stimuli/Fractals_stims/B.jpg,/static/Simple_RL/Stimuli/Fractals_stims/A.jpg,1.0,20.0,80.0,0.0,80.0,B,A,0.0,104.362,0.362,,
95,,rl_choice_confirmation,,html-keyboard-response,95,168380,0.0-1.0-129.0-0.0,0,0,95248,,,,,,18.0,,,,,,,,,,,,,,,,,,,,,,,105.5,1.138,,
96,,isi,,html-keyboard-response,96,170385,0.0-1.0-131.0,0,0,95248,,,,,,,,,,,,,,,,,,,,,,,,,,,,,107.5,2.0,,
97,,feedback,,html-keyboard-response,97,171391,0.0-1.0-132.0-0.0,0,0,95248,,,,,,18.0,,,,,,,,,,,,,,,,,,,,,,,108.5,1.0,,
98,,iti,,html-keyboard-response,98,172396,0.0-1.0-133.0,0,0,95248,,,,,,,,,,,,,,,,,,,,,,,,,,,,,109.5,1.0,,
99,,rl_choice,,html-keyboard-response,99,173107,0.0-1.0-135.0,0,0,95248,,710.0,,,68.0,19.0,19.0,1.0,hard,1000.0,3000.0,1.0,60.0,40.0,80.0,40.0,C,D,/static/Simple_RL/Stimuli/Fractals_stims/C.jpg,/static/Simple_RL/Stimuli/Fractals_stims/D.jpg,1.0,60.0,40.0,80.0,40.0,C,D,0.0,110.21,0.71,,
100,,rl_choice_confirmation,,html-keyboard-response,100,173900,0.0-1.0-136.0-0.0,0,0,95248,,,,,,19.0,,,,,,,,,,,,,,,,,,,,,,,111.0,0.79,,
101,,isi,,html-keyboard-response,101,176902,0.0-1.0-138.0,0,0,95248,,,,,,,,,,,,,,,,,,,,,,,,,,,,,114.0,3.0,,
102,,feedback,,html-keyboard-response,102,177907,0.0-1.0-139.0-0.0,0,0,95248,,,,,,19.0,,,,,,,,,,,,,,,,,,,,,,,115.0,1.0,,
103,,iti,,html-keyboard-response,103,178912,0.0-1.0-140.0,0,0,95248,,,,,,,,,,,,,,,,,,,,,,,,,,,,,116.0,1.0,,
104,,rl_choice,,html-keyboard-response,104,179320,0.0-1.0-142.0,0,0,95248,,406.0,,,68.0,20.0,20.0,1.0,hard,1000.0,1000.0,1.0,60.0,40.0,80.0,40.0,C,D,/static/Simple_RL/Stimuli/Fractals_stims/C.jpg,/static/Simple_RL/Stimuli/Fractals_stims/D.jpg,1.0,60.0,40.0,80.0,40.0,C,D,0.0,116.406,0.406,,
105,,rl_choice_confirmation,,html-keyboard-response,105,180419,0.0-1.0-143.0-0.0,0,0,95248,,,,,,20.0,,,,,,,,,,,,,,,,,,,,,,,117.5,1.094,,
106,,isi,,html-keyboard-response,106,181424,0.0-1.0-145.0,0,0,95248,,,,,,,,,,,,,,,,,,,,,,,,,,,,,118.5,1.0,,
107,,feedback,,html-keyboard-response,107,182427,0.0-1.0-146.0-0.0,0,0,95248,,,,,,20.0,,,,,,,,,,,,,,,,,,,,,,,119.5,1.0,,
108,,iti,,html-keyboard-response,108,183430,0.0-1.0-147.0,0,0,95248,,,,,,,,,,,,,,,,,,,,,,,,,,,,,120.5,1.0,,
109,,rl_choice,,html-keyboard-response,109,183925,0.0-1.0-149.0,0,0,95248,,493.0,,,68.0,21.0,21.0,1.0,hard,1500.0,2000.0,1.0,60.0,40.0,80.0,40.0,C,D,/static/Simple_RL/Stimuli/Fractals_stims/C.jpg,/static/Simple_RL/Stimuli/Fractals_stims/D.jpg,1.0,60.0,40.0,80.0,40.0,C,D,0.0,120.993,0.493,,
110,,rl_choice_confirmation,,html-keyboard-response,110,184934,0.0-1.0-150.0-0.0,0,0,95248,,,,,,21.0,,,,,,,,,,,,,,,,,,,,,,,122.0,1.007,,
111,,isi,,html-keyboard-response,111,186939,0.0-1.0-152.0,0,0,95248,,,,,,,,,,,,,,,,,,,,,,,,,,,,,124.0,2.0,,
112,,feedback,,html-keyboard-response,112,187944,0.0-1.0-153.0-0.0,0,0,95248,,,,,,21.0,,,,,,,,,,,,,,,,,,,,,,,125.0,1.0,,
113,,iti,,html-keyboard-response,113,189446,0.0-1.0-154.0,0,0,95248,,,,,,,,,,,,,,,,,,,,,,,,,,,,,126.5,1.5,,
114,,rl_choice,,html-keyboard-response,114,190235,0.0-1.0-156.0,0,0,95248,,786.0,,,68.0,22.0,22.0,1.0,hard,1000.0,2000.0,0.0,40.0,60.0,60.0,80.0,D,C,/static/Simple_RL/Stimuli/Fractals_stims/D.jpg,/static/Simple_RL/Stimuli/Fractals_stims/C.jpg,1.0,40.0,60.0,60.0,80.0,D,C,0.0,127.286,0.786,,
115,,rl_choice_confirmation,,html-keyboard-response,115,190956,0.0-1.0-157.0-0.0,0,0,95248,,,,,,22.0,,,,,,,,,,,,,,,,,,,,,,,128.0,0.714,,
116,,isi,,html-keyboard-response,116,192961,0.0-1.0-159.0,0,0,95248,,,,,,,,,,,,,,,,,,,,,,,,,,,,,130.0,2.0,,
117,,feedback,,html-keyboard-response,117,193963,0.0-1.0-160.0-0.0,0,0,95248,,,,,,22.0,,,,,,,,,,,,,,,,,,,,,,,131.0,1.0,,
118,,iti,,html-keyboard-response,118,194966,0.0-1.0-161.0,0,0,95248,,,,,,,,,,,,,,,,,,,,,,,,,,,,,132.0,1.0,,
119,,rl_choice,,html-keyboard-response,119,195389,0.0-1.0-163.0,0,0,95248,,421.0,,,68.0,23.0,23.0,1.0,easy,2000.0,1500.0,0.0,20.0,80.0,0.0,100.0,B,A,/static/Simple_RL/Stimuli/Fractals_stims/B.jpg,/static/Simple_RL/Stimuli/Fractals_stims/A.jpg,1.0,20.0,80.0,0.0,100.0,B,A,0.0,132.421,0.421,,
120,,rl_choice_confirmation,,html-keyboard-response,120,196470,0.0-1.0-164.0-0.0,0,0,95248,,,,,,23.0,,,,,,,,,,,,,,,,,,,,,,,133.5,1.079,,
121,,isi,,html-keyboard-response,121,197975,0.0-1.0-166.0,0,0,95248,,,,,,,,,,,,,,,,,,,,,,,,,,,,,135.0,1.5,,
122,,feedback,,html-keyboard-response,122,198977,0.0-1.0-167.0-0.0,0,0,95248,,,,,,23.0,,,,,,,,,,,,,,,,,,,,,,,136.0,1.0,,
123,,iti,,html-keyboard-response,123,200982,0.0-1.0-168.0,0,0,95248,,,,,,,,,,,,,,,,,,,,,,,,,,,,,138.0,2.0,,
124,,rl_choice,,html-keyboard-response,124,201342,0.0-1.0-170.0,0,0,95248,,359.0,,,68.0,24.0,24.0,1.0,easy,2000.0,1000.0,1.0,80.0,20.0,100.0,20.0,A,B,/static/Simple_RL/Stimuli/Fractals_stims/A.jpg,/static/Simple_RL/Stimuli/Fractals_stims/B.jpg,1.0,80.0,20.0,100.0,20.0,A,B,0.0,138.359,0.359,,
125,,rl_choice_confirmation,,html-keyboard-response,125,202487,0.0-1.0-171.0-0.0,0,0,95248,,,,,,24.0,,,,,,,,,,,,,,,,,,,,,,,139.5,1.141,,
126,,isi,,html-keyboard-response,126,203489,0.0-1.0-173.0,0,0,95248,,,,,,,,,,,,,,,,,,,,,,,,,,,,,140.5,1.0,,
127,,feedback,,html-keyboard-response,127,204492,0.0-1.0-174.0-0.0,0,0,95248,,,,,,24.0,,,,,,,,,,,,,,,,,,,,,,,141.5,1.0,,
128,,iti,,html-keyboard-response,128,206497,0.0-1.0-175.0,0,0,95248,,,,,,,,,,,,,,,,,,,,,,,,,,,,,143.5,2.0,,
129,,rl_choice,,html-keyboard-response,129,206970,0.0-1.0-177.0,0,0,95248,,470.0,,,68.0,25.0,25.0,1.0,easy,1500.0,2000.0,1.0,80.0,20.0,60.0,40.0,A,B,/static/Simple_RL/Stimuli/Fractals_stims/A.jpg,/static/Simple_RL/Stimuli/Fractals_stims/B.jpg,1.0,80.0,20.0,60.0,40.0,A,B,0.0,143.97,0.47,,
130,,rl_choice_confirmation,,html-keyboard-response,130,208007,0.0-1.0-178.0-0.0,0,0,95248,,,,,,25.0,,,,,,,,,,,,,,,,,,,,,,,145.0,1.03,,
131,,isi,,html-keyboard-response,131,210011,0.0-1.0-180.0,0,0,95248,,,,,,,,,,,,,,,,,,,,,,,,,,,,,147.0,2.0,,
132,,feedback,,html-keyboard-response,132,211017,0.0-1.0-181.0-0.0,0,0,95248,,,,,,25.0,,,,,,,,,,,,,,,,,,,,,,,148.0,1.0,,
133,,iti,,html-keyboard-response,133,212521,0.0-1.0-182.0,0,0,95248,,,,,,,,,,,,,,,,,,,,,,,,,,,,,149.5,1.5,,
134,,rl_choice,,html-keyboard-response,134,213062,0.0-1.0-184.0,0,0,95248,,541.0,,,68.0,26.0,26.0,1.0,hard,2000.0,3500.0,0.0,40.0,60.0,20.0,60.0,D,C,/static/Simple_RL/Stimuli/Fractals_stims/D.jpg,/static/Simple_RL/Stimuli/Fractals_stims/C.jpg,1.0,40.0,60.0,20.0,60.0,D,C,0.0,150.041,0.541,,
135,,rl_choice_confirmation,,html-keyboard-response,135,214027,0.0-1.0-185.0-0.0,0,0,95248,,,,,,26.0,,,,,,,,,,,,,,,,,,,,,,,151.0,0.959,,
136,,isi,,html-keyboard-response,136,217531,0.0-1.0-187.0,0,0,95248,,,,,,,,,,,,,,,,,,,,,,,,,,,,,154.5,3.5,,
137,,feedback,,html-keyboard-response,137,218535,0.0-1.0-188.0-0.0,0,0,95248,,,,,,26.0,,,,,,,,,,,,,,,,,,,,,,,155.5,1.0,,
138,,iti,,html-keyboard-response,138,220540,0.0-1.0-189.0,0,0,95248,,,,,,,,,,,,,,,,,,,,,,,,,,,,,157.5,2.0,,
139,,rl_choice,,html-keyboard-response,139,221027,0.0-1.0-191.0,0,0,95248,,485.0,,,68.0,27.0,27.0,1.0,hard,1000.0,2000.0,1.0,60.0,40.0,60.0,20.0,C,D,/static/Simple_RL/Stimuli/Fractals_stims/C.jpg,/static/Simple_RL/Stimuli/Fractals_stims/D.jpg,1.0,60.0,40.0,60.0,20.0,C,D,0.0,157.985,0.485,,
140,,rl_choice_confirmation,,html-keyboard-response,140,222047,0.0-1.0-192.0-0.0,0,0,95248,,,,,,27.0,,,,,,,,,,,,,,,,,,,,,,,159.0,1.015,,
141,,isi,,html-keyboard-response,141,224051,0.0-1.0-194.0,0,0,95248,,,,,,,,,,,,,,,,,,,,,,,,,,,,,161.0,2.0,,
142,,feedback,,html-keyboard-response,142,225057,0.0-1.0-195.0-0.0,0,0,95248,,,,,,27.0,,,,,,,,,,,,,,,,,,,,,,,162.0,1.0,,
143,,iti,,html-keyboard-response,143,226060,0.0-1.0-196.0,0,0,95248,,,,,,,,,,,,,,,,,,,,,,,,,,,,,163.0,1.0,,
144,,rl_choice,,html-keyboard-response,144,226394,0.0-1.0-198.0,0,0,95248,,331.0,,,68.0,28.0,28.0,1.0,easy,2000.0,1500.0,0.0,20.0,80.0,40.0,80.0,B,A,/static/Simple_RL/Stimuli/Fractals_stims/B.jpg,/static/Simple_RL/Stimuli/Fractals_stims/A.jpg,1.0,20.0,80.0,40.0,80.0,B,A,0.0,163.331,0.331,,
145,,rl_choice_confirmation,,html-keyboard-response,145,227569,0.0-1.0-199.0-0.0,0,0,95248,,,,,,28.0,,,,,,,,,,,,,,,,,,,,,,,164.5,1.169,,
146,,isi,,html-keyboard-response,146,229073,0.0-1.0-201.0,0,0,95248,,,,,,,,,,,,,,,,,,,,,,,,,,,,,166.0,1.5,,
147,,feedback,,html-keyboard-response,147,230076,0.0-1.0-202.0-0.0,0,0,95248,,,,,,28.0,,,,,,,,,,,,,,,,,,,,,,,167.0,1.0,,
148,,iti,,html-keyboard-response,148,232082,0.0-1.0-203.0,0,0,95248,,,,,,,,,,,,,,,,,,,,,,,,,,,,,169.0,2.0,,
149,,rl_choice,,html-keyboard-response,149,232465,0.0-1.0-205.0,0,0,95248,,382.0,,,68.0,29.0,29.0,1.0,hard,1000.0,1500.0,0.0,40.0,60.0,40.0,80.0,D,C,/static/Simple_RL/Stimuli/Fractals_stims/D.jpg,/static/Simple_RL/Stimuli/Fractals_stims/C.jpg,1.0,40.0,60.0,40.0,80.0,D,C,0.0,169.382,0.382,,
150,,rl_choice_confirmation,,html-keyboard-response,150,233586,0.0-1.0-206.0-0.0,0,0,95248,,,,,,29.0,,,,,,,,,,,,,,,,,,,,,,,170.5,1.118,,
151,,isi,,html-keyboard-response,151,235089,0.0-1.0-208.0,0,0,95248,,,,,,,,,,,,,,,,,,,,,,,,,,,,,172.0,1.5,,
152,,feedback,,html-keyboard-response,152,236092,0.0-1.0-209.0-0.0,0,0,95248,,,,,,29.0,,,,,,,,,,,,,,,,,,,,,,,173.0,1.0,,
153,,iti,,html-keyboard-response,153,237094,0.0-1.0-210.0,0,0,95248,,,,,,,,,,,,,,,,,,,,,,,,,,,,,174.0,1.0,,
154,,rl_choice,,html-keyboard-response,154,237606,0.0-1.0-212.0,0,0,95248,,510.0,,,68.0,30.0,30.0,1.0,easy,1000.0,1000.0,0.0,20.0,80.0,0.0,100.0,B,A,/static/Simple_RL/Stimuli/Fractals_stims/B.jpg,/static/Simple_RL/Stimuli/Fractals_stims/A.jpg,1.0,20.0,80.0,0.0,100.0,B,A,0.0,174.51,0.51,,
155,,rl_choice_confirmation,,html-keyboard-response,155,238599,0.0-1.0-213.0-0.0,0,0,95248,,,,,,30.0,,,,,,,,,,,,,,,,,,,,,,,175.5,0.99,,
156,,isi,,html-keyboard-response,156,239601,0.0-1.0-215.0,0,0,95248,,,,,,,,,,,,,,,,,,,,,,,,,,,,,176.5,1.0,,
157,,feedback,,html-keyboard-response,157,240604,0.0-1.0-216.0-0.0,0,0,95248,,,,,,30.0,,,,,,,,,,,,,,,,,,,,,,,177.5,1.0,,
158,,iti,,html-keyboard-response,158,241607,0.0-1.0-217.0,0,0,95248,,,,,,,,,,,,,,,,,,,,,,,,,,,,,178.5,1.0,,
159,,rl_choice,,html-keyboard-response,159,242151,0.0-1.0-219.0,0,0,95248,,543.0,,,68.0,31.0,31.0,1.0,easy,1000.0,1000.0,1.0,80.0,20.0,80.0,40.0,A,B,/static/Simple_RL/Stimuli/Fractals_stims/A.jpg,/static/Simple_RL/Stimuli/Fractals_stims/B.jpg,1.0,80.0,20.0,80.0,40.0,A,B,0.0,179.043,0.543,,
160,,rl_choice_confirmation,,html-keyboard-response,160,243111,0.0-1.0-220.0-0.0,0,0,95248,,,,,,31.0,,,,,,,,,,,,,,,,,,,,,,,180.0,0.957,,
161,,isi,,html-keyboard-response,161,244113,0.0-1.0-222.0,0,0,95248,,,,,,,,,,,,,,,,,,,,,,,,,,,,,181.0,1.0,,
162,,feedback,,html-keyboard-response,162,245116,0.0-1.0-223.0-0.0,0,0,95248,,,,,,31.0,,,,,,,,,,,,,,,,,,,,,,,182.0,1.0,,
163,,iti,,html-keyboard-response,163,246119,0.0-1.0-224.0,0,0,95248,,,,,,,,,,,,,,,,,,,,,,,,,,,,,183.0,1.0,,
164,,rl_choice,,html-keyboard-response,164,246532,0.0-1.0-226.0,0,0,95248,,412.0,,,68.0,32.0,32.0,1.0,hard,3000.0,3000.0,0.0,40.0,60.0,20.0,60.0,D,C,/static/Simple_RL/Stimuli/Fractals_stims/D.jpg,/static/Simple_RL/Stimuli/Fractals_stims/C.jpg,1.0,40.0,60.0,20.0,60.0,D,C,0.0,183.412,0.412,,
165,,rl_choice_confirmation,,html-keyboard-response,165,247622,0.0-1.0-227.0-0.0,0,0,95248,,,,,,32.0,,,,,,,,,,,,,,,,,,,,,,,184.5,1.088,,
166,,isi,,html-keyboard-response,166,250628,0.0-1.0-229.0,0,0,95248,,,,,,,,,,,,,,,,,,,,,,,,,,,,,187.5,3.0,,
167,,feedback,,html-keyboard-response,167,251633,0.0-1.0-230.0-0.0,0,0,95248,,,,,,32.0,,,,,,,,,,,,,,,,,,,,,,,188.5,1.0,,
168,,iti,,html-keyboard-response,168,254636,0.0-1.0-231.0,0,0,95248,,,,,,,,,,,,,,,,,,,,,,,,,,,,,191.5,3.0,,
169,,rl_choice,,html-keyboard-response,169,255051,0.0-1.0-233.0,0,0,95248,,412.0,,,68.0,33.0,33.0,1.0,easy,3500.0,1000.0,0.0,20.0,80.0,20.0,80.0,B,A,/static/Simple_RL/Stimuli/Fractals_stims/B.jpg,/static/Simple_RL/Stimuli/Fractals_stims/A.jpg,1.0,20.0,80.0,20.0,80.0,B,A,0.0,191.912,0.412,,
170,,rl_choice_confirmation,,html-keyboard-response,170,256146,0.0-1.0-234.0-0.0,0,0,95248,,,,,,33.0,,,,,,,,,,,,,,,,,,,,,,,193.0,1.088,,
171,,isi,,html-keyboard-response,171,257148,0.0-1.0-236.0,0,0,95248,,,,,,,,,,,,,,,,,,,,,,,,,,,,,194.0,1.0,,
172,,feedback,,html-keyboard-response,172,258152,0.0-1.0-237.0-0.0,0,0,95248,,,,,,33.0,,,,,,,,,,,,,,,,,,,,,,,195.0,1.0,,
173,,iti,,html-keyboard-response,173,261655,0.0-1.0-238.0,0,0,95248,,,,,,,,,,,,,,,,,,,,,,,,,,,,,198.5,3.5,,
174,,rl_choice,,html-keyboard-response,174,263159,0.0-1.0-240.0,0,0,95248,,,,,,34.0,34.0,1.0,easy,1000.0,1000.0,1.0,80.0,20.0,80.0,40.0,A,B,/static/Simple_RL/Stimuli/Fractals_stims/A.jpg,/static/Simple_RL/Stimuli/Fractals_stims/B.jpg,,,,,,,,,200.0,1.5,1.0,
175,,rl_choice_warning,,html-keyboard-response,175,264162,0.0-1.0-242.0-0.0,0,0,95248,,,,,,,,,,,,,,,,,,,,,,,,,,,,,201.0,1.0,,
176,,isi,,html-keyboard-response,176,265164,0.0-1.0-243.0,0,0,95248,,,,,,,,,,,,,,,,,,,,,,,,,,,,,202.0,1.0,,
177,,iti,,html-keyboard-response,177,266170,0.0-1.0-245.0,0,0,95248,,,,,,,,,,,,,,,,,,,,,,,,,,,,,203.0,1.0,,
178,,rl_choice,,html-keyboard-response,178,267053,0.0-1.0-247.0,0,0,95248,,882.0,,,68.0,35.0,35.0,1.0,hard,2000.0,1000.0,0.0,40.0,60.0,40.0,40.0,D,C,/static/Simple_RL/Stimuli/Fractals_stims/D.jpg,/static/Simple_RL/Stimuli/Fractals_stims/C.jpg,1.0,40.0,60.0,40.0,40.0,D,C,0.0,203.882,0.882,,
179,,rl_choice_confirmation,,html-keyboard-response,179,267676,0.0-1.0-248.0-0.0,0,0,95248,,,,,,35.0,,,,,,,,,,,,,,,,,,,,,,,204.5,0.618,,
180,,isi,,html-keyboard-response,180,268681,0.0-1.0-250.0,0,0,95248,,,,,,,,,,,,,,,,,,,,,,,,,,,,,205.5,1.0,,
181,,feedback,,html-keyboard-response,181,269687,0.0-1.0-251.0-0.0,0,0,95248,,,,,,35.0,,,,,,,,,,,,,,,,,,,,,,,206.5,1.0,,
182,,iti,,html-keyboard-response,182,271692,0.0-1.0-252.0,0,0,95248,,,,,,,,,,,,,,,,,,,,,,,,,,,,,208.5,2.0,,
183,,rl_choice,,html-keyboard-response,183,272559,0.0-1.0-254.0,0,0,95248,,865.0,,,68.0,36.0,36.0,1.0,hard,2000.0,1000.0,1.0,60.0,40.0,80.0,40.0,C,D,/static/Simple_RL/Stimuli/Fractals_stims/C.jpg,/static/Simple_RL/Stimuli/Fractals_stims/D.jpg,1.0,60.0,40.0,80.0,40.0,C,D,0.0,209.365,0.865,,
184,,rl_choice_confirmation,,html-keyboard-response,184,273199,0.0-1.0-255.0-0.0,0,0,95248,,,,,,36.0,,,,,,,,,,,,,,,,,,,,,,,210.0,0.635,,
185,,isi,,html-keyboard-response,185,274204,0.0-1.0-257.0,0,0,95248,,,,,,,,,,,,,,,,,,,,,,,,,,,,,211.0,1.0,,
186,,feedback,,html-keyboard-response,186,275206,0.0-1.0-258.0-0.0,0,0,95248,,,,,,36.0,,,,,,,,,,,,,,,,,,,,,,,212.0,1.0,,
187,,iti,,html-keyboard-response,187,277210,0.0-1.0-259.0,0,0,95248,,,,,,,,,,,,,,,,,,,,,,,,,,,,,214.0,2.0,,
188,,rl_choice,,html-keyboard-response,188,277732,0.0-1.0-261.0,0,0,95248,,522.0,,,75.0,37.0,37.0,1.0,hard,1500.0,2000.0,1.0,60.0,40.0,40.0,40.0,C,D,/static/Simple_RL/Stimuli/Fractals_stims/C.jpg,/static/Simple_RL/Stimuli/Fractals_stims/D.jpg,0.0,40.0,60.0,40.0,40.0,D,C,0.0,214.522,0.522,,
189,,rl_choice_confirmation,,html-keyboard-response,189,278712,0.0-1.0-262.0-0.0,0,0,95248,,,,,,37.0,,,,,,,,,,,,,,,,,,,,,,,215.5,0.978,,
190,,isi,,html-keyboard-response,190,280716,0.0-1.0-264.0,0,0,95248,,,,,,,,,,,,,,,,,,,,,,,,,,,,,217.5,2.0,,
191,,feedback,,html-keyboard-response,191,281721,0.0-1.0-265.0-0.0,0,0,95248,,,,,,37.0,,,,,,,,,,,,,,,,,,,,,,,218.5,1.0,,
192,,iti,,html-keyboard-response,192,283223,0.0-1.0-266.0,0,0,95248,,,,,,,,,,,,,,,,,,,,,,,,,,,,,220.0,1.5,,
193,,rl_choice,,html-keyboard-response,193,283641,0.0-1.0-268.0,0,0,95248,,418.0,,,75.0,38.0,38.0,1.0,hard,1000.0,1500.0,0.0,40.0,60.0,60.0,80.0,D,C,/static/Simple_RL/Stimuli/Fractals_stims/D.jpg,/static/Simple_RL/Stimuli/Fractals_stims/C.jpg,0.0,60.0,40.0,80.0,60.0,C,D,0.0,220.418,0.418,,
194,,rl_choice_confirmation,,html-keyboard-response,194,284728,0.0-1.0-269.0-0.0,0,0,95248,,,,,,38.0,,,,,,,,,,,,,,,,,,,,,,,221.5,1.082,,
195,,isi,,html-keyboard-response,195,286231,0.0-1.0-271.0,0,0,95248,,,,,,,,,,,,,,,,,,,,,,,,,,,,,223.0,1.5,,
196,,feedback,,html-keyboard-response,196,287233,0.0-1.0-272.0-0.0,0,0,95248,,,,,,38.0,,,,,,,,,,,,,,,,,,,,,,,224.0,1.0,,
197,,iti,,html-keyboard-response,197,288236,0.0-1.0-273.0,0,0,95248,,,,,,,,,,,,,,,,,,,,,,,,,,,,,225.0,1.0,,
198,,rl_choice,,html-keyboard-response,198,288920,0.0-1.0-275.0,0,0,95248,,683.0,,,75.0,39.0,39.0,1.0,hard,3000.0,1500.0,1.0,60.0,40.0,40.0,60.0,C,D,/static/Simple_RL/Stimuli/Fractals_stims/C.jpg,/static/Simple_RL/Stimuli/Fractals_stims/D.jpg,0.0,40.0,60.0,60.0,40.0,D,C,0.0,225.683,0.683,,
199,,rl_choice_confirmation,,html-keyboard-response,199,289740,0.0-1.0-276.0-0.0,0,0,95248,,,,,,39.0,,,,,,,,,,,,,,,,,,,,,,,226.5,0.817,,
200,,isi,,html-keyboard-response,200,291244,0.0-1.0-278.0,0,0,95248,,,,,,,,,,,,,,,,,,,,,,,,,,,,,228.0,1.5,,
201,,feedback,,html-keyboard-response,201,292247,0.0-1.0-279.0-0.0,0,0,95248,,,,,,39.0,,,,,,,,,,,,,,,,,,,,,,,229.0,1.0,,
202,,iti,,html-keyboard-response,202,295250,0.0-1.0-280.0,0,0,95248,,,,,,,,,,,,,,,,,,,,,,,,,,,,,232.0,3.0,,
203,,block_over,,html-keyboard-response,203,298618,0.0-1.0-281.0-0.0,0,0,95248,,3353.0,,,68.0,39.0,,,,,,,,,,,,,,,,,,,,,,,,,,
204,,start_run,,html-keyboard-response,204,300104,0.0-1.0-281.0-1.0,0,0,95248,,1485.0,,,84.0,,,,,,,,,,,,,,,,,,,,,,,,,,,
205,,rl_choice,,html-keyboard-response,205,301607,0.0-1.0-282.0,0,0,95248,,,,,,40.0,40.0,2.0,easy,1000.0,1000.0,0.0,20.0,80.0,0.0,60.0,B,A,/static/Simple_RL/Stimuli/Fractals_stims/B.jpg,/static/Simple_RL/Stimuli/Fractals_stims/A.jpg,,,,,,,,,1.5,1.5,1.0,
206,,rl_choice_warning,,html-keyboard-response,206,302610,0.0-1.0-284.0-0.0,1,0,95248,,,,,,,,,,,,,,,,,,,,,,,,,,,,,2.5,1.0,,
207,,isi,,html-keyboard-response,207,303612,0.0-1.0-285.0,0,0,95248,,,,,,,,,,,,,,,,,,,,,,,,,,,,,3.5,1.0,,
208,,iti,,html-keyboard-response,208,304615,0.0-1.0-287.0,0,0,95248,,,,,,,,,,,,,,,,,,,,,,,,,,,,,4.5,1.0,,
209,,rl_choice,,html-keyboard-response,209,305196,0.0-1.0-289.0,0,0,95248,,579.0,,,75.0,41.0,41.0,2.0,hard,1500.0,1500.0,1.0,60.0,40.0,40.0,40.0,C,D,/static/Simple_RL/Stimuli/Fractals_stims/C.jpg,/static/Simple_RL/Stimuli/Fractals_stims/D.jpg,0.0,40.0,60.0,40.0,40.0,D,C,0.0,5.079,0.579,,
210,,rl_choice_confirmation,,html-keyboard-response,210,306125,0.0-1.0-290.0-0.0,0,0,95248,,,,,,41.0,,,,,,,,,,,,,,,,,,,,,,,6.0,0.921,,
211,,isi,,html-keyboard-response,211,307628,0.0-1.0-292.0,0,0,95248,,,,,,,,,,,,,,,,,,,,,,,,,,,,,7.5,1.5,,
212,,feedback,,html-keyboard-response,212,308633,0.0-1.0-293.0-0.0,0,0,95248,,,,,,41.0,,,,,,,,,,,,,,,,,,,,,,,8.5,1.0,,
213,,iti,,html-keyboard-response,213,310135,0.0-1.0-294.0,0,0,95248,,,,,,,,,,,,,,,,,,,,,,,,,,,,,10.0,1.5,,
214,,rl_choice,,html-keyboard-response,214,311639,0.0-1.0-296.0,0,0,95248,,,,,,42.0,42.0,2.0,hard,1500.0,1000.0,1.0,60.0,40.0,40.0,60.0,C,D,/static/Simple_RL/Stimuli/Fractals_stims/C.jpg,/static/Simple_RL/Stimuli/Fractals_stims/D.jpg,,,,,,,,,11.5,1.5,1.0,
215,,rl_choice_warning,,html-keyboard-response,215,312642,0.0-1.0-298.0-0.0,1,0,95248,,,,,,,,,,,,,,,,,,,,,,,,,,,,,12.5,1.0,,
216,,isi,,html-keyboard-response,216,313647,0.0-1.0-299.0,0,0,95248,,,,,,,,,,,,,,,,,,,,,,,,,,,,,13.5,1.0,,
217,,iti,,html-keyboard-response,217,315152,0.0-1.0-301.0,0,0,95248,,,,,,,,,,,,,,,,,,,,,,,,,,,,,15.0,1.5,,
218,,rl_choice,,html-keyboard-response,218,316658,0.0-1.0-303.0,0,0,95248,,,,,,43.0,43.0,2.0,hard,1000.0,1000.0,0.0,40.0,60.0,60.0,60.0,D,C,/static/Simple_RL/Stimuli/Fractals_stims/D.jpg,/static/Simple_RL/Stimuli/Fractals_stims/C.jpg,,,,,,,,,16.5,1.5,1.0,
219,,rl_choice_warning,,html-keyboard-response,219,317661,0.0-1.0-305.0-0.0,1,0,95248,,,,,,,,,,,,,,,,,,,,,,,,,,,,,17.5,1.0,,
220,,isi,,html-keyboard-response,220,318663,0.0-1.0-306.0,0,0,95248,,,,,,,,,,,,,,,,,,,,,,,,,,,,,18.5,1.0,,
221,,iti,,html-keyboard-response,221,319666,0.0-1.0-308.0,0,0,95248,,,,,,,,,,,,,,,,,,,,,,,,,,,,,19.5,1.0,,
222,,rl_choice,,html-keyboard-response,222,321169,0.0-1.0-310.0,0,0,95248,,,,,,44.0,44.0,2.0,easy,1500.0,2000.0,1.0,80.0,20.0,80.0,40.0,A,B,/static/Simple_RL/Stimuli/Fractals_stims/A.jpg,/static/Simple_RL/Stimuli/Fractals_stims/B.jpg,,,,,,,,,21.0,1.5,1.0,
223,,rl_choice_warning,,html-keyboard-response,223,322173,0.0-1.0-312.0-0.0,1,0,95248,,,,,,,,,,,,,,,,,,,,,,,,,,,,,22.0,1.0,,
224,,isi,,html-keyboard-response,224,324178,0.0-1.0-313.0,0,0,95248,,,,,,,,,,,,,,,,,,,,,,,,,,,,,24.0,2.0,,
225,,iti,,html-keyboard-response,225,325681,0.0-1.0-315.0,0,0,95248,,,,,,,,,,,,,,,,,,,,,,,,,,,,,25.5,1.5,,
226,,rl_choice,,html-keyboard-response,226,327186,0.0-1.0-317.0,0,0,95248,,,,,,45.0,45.0,2.0,hard,2000.0,1000.0,0.0,40.0,60.0,60.0,60.0,D,C,/static/Simple_RL/Stimuli/Fractals_stims/D.jpg,/static/Simple_RL/Stimuli/Fractals_stims/C.jpg,,,,,,,,,27.0,1.5,1.0,
227,,rl_choice_warning,,html-keyboard-response,227,328188,0.0-1.0-319.0-0.0,1,0,95248,,,,,,,,,,,,,,,,,,,,,,,,,,,,,28.0,1.0,,
228,,isi,,html-keyboard-response,228,329191,0.0-1.0-320.0,0,0,95248,,,,,,,,,,,,,,,,,,,,,,,,,,,,,29.0,1.0,,
229,,iti,,html-keyboard-response,229,331197,0.0-1.0-322.0,0,0,95248,,,,,,,,,,,,,,,,,,,,,,,,,,,,,31.0,2.0,,
230,,rl_choice,,html-keyboard-response,230,331691,0.0-1.0-324.0,0,0,95248,,493.0,,,75.0,46.0,46.0,2.0,easy,2000.0,1500.0,0.0,20.0,80.0,20.0,80.0,B,A,/static/Simple_RL/Stimuli/Fractals_stims/B.jpg,/static/Simple_RL/Stimuli/Fractals_stims/A.jpg,0.0,80.0,20.0,80.0,20.0,A,B,0.0,31.493,0.493,,
231,,rl_choice_confirmation,,html-keyboard-response,231,332701,0.0-1.0-325.0-0.0,0,0,95248,,,,,,46.0,,,,,,,,,,,,,,,,,,,,,,,32.5,1.007,,
232,,isi,,html-keyboard-response,232,334205,0.0-1.0-327.0,0,0,95248,,,,,,,,,,,,,,,,,,,,,,,,,,,,,34.0,1.5,,
233,,feedback,,html-keyboard-response,233,335207,0.0-1.0-328.0-0.0,0,0,95248,,,,,,46.0,,,,,,,,,,,,,,,,,,,,,,,35.0,1.0,,
234,,iti,,html-keyboard-response,234,337213,0.0-1.0-329.0,0,0,95248,,,,,,,,,,,,,,,,,,,,,,,,,,,,,37.0,2.0,,
235,,rl_choice,,html-keyboard-response,235,337634,0.0-1.0-331.0,0,0,95248,,419.0,,,75.0,47.0,47.0,2.0,easy,1500.0,3000.0,0.0,20.0,80.0,0.0,80.0,B,A,/static/Simple_RL/Stimuli/Fractals_stims/B.jpg,/static/Simple_RL/Stimuli/Fractals_stims/A.jpg,0.0,80.0,20.0,80.0,0.0,A,B,0.0,37.419,0.419,,
236,,rl_choice_confirmation,,html-keyboard-response,236,338721,0.0-1.0-332.0-0.0,0,0,95248,,,,,,47.0,,,,,,,,,,,,,,,,,,,,,,,38.5,1.081,,
237,,isi,,html-keyboard-response,237,341727,0.0-1.0-334.0,0,0,95248,,,,,,,,,,,,,,,,,,,,,,,,,,,,,41.5,3.0,,
238,,feedback,,html-keyboard-response,238,342733,0.0-1.0-335.0-0.0,0,0,95248,,,,,,47.0,,,,,,,,,,,,,,,,,,,,,,,42.5,1.0,,
239,,iti,,html-keyboard-response,239,344237,0.0-1.0-336.0,0,0,95248,,,,,,,,,,,,,,,,,,,,,,,,,,,,,44.0,1.5,,
240,,rl_choice,,html-keyboard-response,240,344897,0.0-1.0-338.0,0,0,95248,,657.0,,,75.0,48.0,48.0,2.0,hard,1000.0,1000.0,1.0,60.0,40.0,60.0,40.0,C,D,/static/Simple_RL/Stimuli/Fractals_stims/C.jpg,/static/Simple_RL/Stimuli/Fractals_stims/D.jpg,0.0,40.0,60.0,40.0,60.0,D,C,0.0,44.657,0.657,,
241,,rl_choice_confirmation,,html-keyboard-response,241,345746,0.0-1.0-339.0-0.0,0,0,95248,,,,,,48.0,,,,,,,,,,,,,,,,,,,,,,,45.5,0.843,,
242,,isi,,html-keyboard-response,242,346749,0.0-1.0-341.0,0,0,95248,,,,,,,,,,,,,,,,,,,,,,,,,,,,,46.5,1.0,,
243,,feedback,,html-keyboard-response,243,347752,0.0-1.0-342.0-0.0,0,0,95248,,,,,,48.0,,,,,,,,,,,,,,,,,,,,,,,47.5,1.0,,
244,,iti,,html-keyboard-response,244,348754,0.0-1.0-343.0,0,0,95248,,,,,,,,,,,,,,,,,,,,,,,,,,,,,48.5,1.0,,
245,,rl_choice,,html-keyboard-response,245,349342,0.0-1.0-345.0,0,0,95248,,585.0,,,75.0,49.0,49.0,2.0,hard,3000.0,2000.0,1.0,60.0,40.0,60.0,40.0,C,D,/static/Simple_RL/Stimuli/Fractals_stims/C.jpg,/static/Simple_RL/Stimuli/Fractals_stims/D.jpg,0.0,40.0,60.0,40.0,60.0,D,C,0.0,49.085,0.585,,
246,,rl_choice_confirmation,,html-keyboard-response,246,350261,0.0-1.0-346.0-0.0,0,0,95248,,,,,,49.0,,,,,,,,,,,,,,,,,,,,,,,50.0,0.915,,
247,,isi,,html-keyboard-response,247,352264,0.0-1.0-348.0,0,0,95248,,,,,,,,,,,,,,,,,,,,,,,,,,,,,52.0,2.0,,
248,,feedback,,html-keyboard-response,248,353271,0.0-1.0-349.0-0.0,0,0,95248,,,,,,49.0,,,,,,,,,,,,,,,,,,,,,,,53.0,1.0,,
249,,iti,,html-keyboard-response,249,356274,0.0-1.0-350.0,0,0,95248,,,,,,,,,,,,,,,,,,,,,,,,,,,,,56.0,3.0,,
250,,rl_choice,,html-keyboard-response,250,356653,0.0-1.0-352.0,0,0,95248,,378.0,,,75.0,50.0,50.0,2.0,hard,3000.0,3000.0,0.0,40.0,60.0,20.0,60.0,D,C,/static/Simple_RL/Stimuli/Fractals_stims/D.jpg,/static/Simple_RL/Stimuli/Fractals_stims/C.jpg,0.0,60.0,40.0,60.0,20.0,C,D,0.0,56.378,0.378,,
251,,rl_choice_confirmation,,html-keyboard-response,251,357778,0.0-1.0-353.0-0.0,0,0,95248,,,,,,50.0,,,,,,,,,,,,,,,,,,,,,,,57.5,1.122,,
252,,isi,,html-keyboard-response,252,360781,0.0-1.0-355.0,0,0,95248,,,,,,,,,,,,,,,,,,,,,,,,,,,,,60.5,3.0,,
253,,feedback,,html-keyboard-response,253,361783,0.0-1.0-356.0-0.0,0,0,95248,,,,,,50.0,,,,,,,,,,,,,,,,,,,,,,,61.5,1.0,,
254,,iti,,html-keyboard-response,254,364786,0.0-1.0-357.0,0,0,95248,,,,,,,,,,,,,,,,,,,,,,,,,,,,,64.5,3.0,,
255,,rl_choice,,html-keyboard-response,255,365084,0.0-1.0-359.0,0,0,95248,,297.0,,,75.0,51.0,51.0,2.0,hard,1000.0,1500.0,0.0,40.0,60.0,20.0,80.0,D,C,/static/Simple_RL/Stimuli/Fractals_stims/D.jpg,/static/Simple_RL/Stimuli/Fractals_stims/C.jpg,0.0,60.0,40.0,80.0,20.0,C,D,0.0,64.797,0.297,,
256,,rl_choice_confirmation,,html-keyboard-response,256,366290,0.0-1.0-360.0-0.0,0,0,95248,,,,,,51.0,,,,,,,,,,,,,,,,,,,,,,,66.0,1.203,,
257,,isi,,html-keyboard-response,257,367795,0.0-1.0-362.0,0,0,95248,,,,,,,,,,,,,,,,,,,,,,,,,,,,,67.5,1.5,,
258,,feedback,,html-keyboard-response,258,368797,0.0-1.0-363.0-0.0,0,0,95248,,,,,,51.0,,,,,,,,,,,,,,,,,,,,,,,68.5,1.0,,
259,,iti,,html-keyboard-response,259,369800,0.0-1.0-364.0,0,0,95248,,,,,,,,,,,,,,,,,,,,,,,,,,,,,69.5,1.0,,
260,,rl_choice,,html-keyboard-response,260,370323,0.0-1.0-366.0,0,0,95248,,523.0,,,75.0,52.0,52.0,2.0,easy,1500.0,1500.0,0.0,20.0,80.0,40.0,80.0,B,A,/static/Simple_RL/Stimuli/Fractals_stims/B.jpg,/static/Simple_RL/Stimuli/Fractals_stims/A.jpg,0.0,80.0,20.0,80.0,40.0,A,B,0.0,70.023,0.523,,
261,,rl_choice_confirmation,,html-keyboard-response,261,371303,0.0-1.0-367.0-0.0,0,0,95248,,,,,,52.0,,,,,,,,,,,,,,,,,,,,,,,71.0,0.977,,
262,,isi,,html-keyboard-response,262,372808,0.0-1.0-369.0,0,0,95248,,,,,,,,,,,,,,,,,,,,,,,,,,,,,72.5,1.5,,
263,,feedback,,html-keyboard-response,263,373814,0.0-1.0-370.0-0.0,0,0,95248,,,,,,52.0,,,,,,,,,,,,,,,,,,,,,,,73.5,1.0,,
264,,iti,,html-keyboard-response,264,375320,0.0-1.0-371.0,0,0,95248,,,,,,,,,,,,,,,,,,,,,,,,,,,,,75.0,1.5,,
265,,rl_choice,,html-keyboard-response,265,375887,0.0-1.0-373.0,0,0,95248,,567.0,,,75.0,53.0,53.0,2.0,hard,1000.0,2000.0,1.0,60.0,40.0,60.0,60.0,C,D,/static/Simple_RL/Stimuli/Fractals_stims/C.jpg,/static/Simple_RL/Stimuli/Fractals_stims/D.jpg,0.0,40.0,60.0,60.0,60.0,D,C,0.0,75.567,0.567,,
266,,rl_choice_confirmation,,html-keyboard-response,266,376823,0.0-1.0-374.0-0.0,0,0,95248,,,,,,53.0,,,,,,,,,,,,,,,,,,,,,,,76.5,0.933,,
267,,isi,,html-keyboard-response,267,378829,0.0-1.0-376.0,0,0,95248,,,,,,,,,,,,,,,,,,,,,,,,,,,,,78.5,2.0,,
268,,feedback,,html-keyboard-response,268,379832,0.0-1.0-377.0-0.0,0,0,95248,,,,,,53.0,,,,,,,,,,,,,,,,,,,,,,,79.5,1.0,,
269,,iti,,html-keyboard-response,269,380834,0.0-1.0-378.0,0,0,95248,,,,,,,,,,,,,,,,,,,,,,,,,,,,,80.5,1.0,,
270,,rl_choice,,html-keyboard-response,270,381437,0.0-1.0-380.0,0,0,95248,,603.0,,,75.0,54.0,54.0,2.0,easy,1500.0,2000.0,1.0,80.0,20.0,60.0,0.0,A,B,/static/Simple_RL/Stimuli/Fractals_stims/A.jpg,/static/Simple_RL/Stimuli/Fractals_stims/B.jpg,0.0,20.0,80.0,0.0,60.0,B,A,0.0,81.103,0.603,,
271,,rl_choice_confirmation,,html-keyboard-response,271,382338,0.0-1.0-381.0-0.0,0,0,95248,,,,,,54.0,,,,,,,,,,,,,,,,,,,,,,,82.0,0.897,,
272,,isi,,html-keyboard-response,272,384344,0.0-1.0-383.0,0,0,95248,,,,,,,,,,,,,,,,,,,,,,,,,,,,,84.0,2.0,,
273,,feedback,,html-keyboard-response,273,385347,0.0-1.0-384.0-0.0,0,0,95248,,,,,,54.0,,,,,,,,,,,,,,,,,,,,,,,85.0,1.0,,
274,,iti,,html-keyboard-response,274,386850,0.0-1.0-385.0,0,0,95248,,,,,,,,,,,,,,,,,,,,,,,,,,,,,86.5,1.5,,
275,,rl_choice,,html-keyboard-response,275,387551,0.0-1.0-387.0,0,0,95248,,699.0,,,75.0,55.0,55.0,2.0,hard,1500.0,1000.0,1.0,60.0,40.0,40.0,20.0,C,D,/static/Simple_RL/Stimuli/Fractals_stims/C.jpg,/static/Simple_RL/Stimuli/Fractals_stims/D.jpg,0.0,40.0,60.0,20.0,40.0,D,C,0.0,87.199,0.699,,
276,,rl_choice_confirmation,,html-keyboard-response,276,388354,0.0-1.0-388.0-0.0,0,0,95248,,,,,,55.0,,,,,,,,,,,,,,,,,,,,,,,88.0,0.801,,
277,,isi,,html-keyboard-response,277,389357,0.0-1.0-390.0,0,0,95248,,,,,,,,,,,,,,,,,,,,,,,,,,,,,89.0,1.0,,
278,,feedback,,html-keyboard-response,278,390360,0.0-1.0-391.0-0.0,0,0,95248,,,,,,55.0,,,,,,,,,,,,,,,,,,,,,,,90.0,1.0,,
279,,iti,,html-keyboard-response,279,391864,0.0-1.0-392.0,0,0,95248,,,,,,,,,,,,,,,,,,,,,,,,,,,,,91.5,1.5,,
280,,rl_choice,,html-keyboard-response,280,393368,0.0-1.0-394.0,0,0,95248,,,,,,56.0,56.0,2.0,easy,3500.0,2000.0,0.0,20.0,80.0,20.0,80.0,B,A,/static/Simple_RL/Stimuli/Fractals_stims/B.jpg,/static/Simple_RL/Stimuli/Fractals_stims/A.jpg,,,,,,,,,93.0,1.5,1.0,
281,,rl_choice_warning,,html-keyboard-response,281,394371,0.0-1.0-396.0-0.0,1,0,95248,,,,,,,,,,,,,,,,,,,,,,,,,,,,,94.0,1.0,,
282,,isi,,html-keyboard-response,282,396376,0.0-1.0-397.0,0,0,95248,,,,,,,,,,,,,,,,,,,,,,,,,,,,,96.0,2.0,,
283,,iti,,html-keyboard-response,283,399880,0.0-1.0-399.0,0,0,95248,,,,,,,,,,,,,,,,,,,,,,,,,,,,,99.5,3.5,,
284,,rl_choice,,html-keyboard-response,284,400383,0.0-1.0-401.0,0,0,95248,,502.0,,,75.0,57.0,57.0,2.0,easy,1000.0,1000.0,0.0,20.0,80.0,0.0,80.0,B,A,/static/Simple_RL/Stimuli/Fractals_stims/B.jpg,/static/Simple_RL/Stimuli/Fractals_stims/A.jpg,0.0,80.0,20.0,80.0,0.0,A,B,0.0,100.002,0.502,,
285,,rl_choice_confirmation,,html-keyboard-response,285,401384,0.0-1.0-402.0-0.0,0,0,95248,,,,,,57.0,,,,,,,,,,,,,,,,,,,,,,,101.0,0.998,,
286,,isi,,html-keyboard-response,286,402387,0.0-1.0-404.0,0,0,95248,,,,,,,,,,,,,,,,,,,,,,,,,,,,,102.0,1.0,,
287,,feedback,,html-keyboard-response,287,403389,0.0-1.0-405.0-0.0,0,0,95248,,,,,,57.0,,,,,,,,,,,,,,,,,,,,,,,103.0,1.0,,
288,,iti,,html-keyboard-response,288,404394,0.0-1.0-406.0,0,0,95248,,,,,,,,,,,,,,,,,,,,,,,,,,,,,104.0,1.0,,
289,,rl_choice,,html-keyboard-response,289,405528,0.0-1.0-408.0,0,0,95248,,1133.0,,,75.0,58.0,58.0,2.0,easy,2000.0,1000.0,0.0,20.0,80.0,40.0,100.0,B,A,/static/Simple_RL/Stimuli/Fractals_stims/B.jpg,/static/Simple_RL/Stimuli/Fractals_stims/A.jpg,0.0,80.0,20.0,100.0,40.0,A,B,0.0,105.133,1.133,,
290,,rl_choice_confirmation,,html-keyboard-response,290,405901,0.0-1.0-409.0-0.0,0,0,95248,,,,,,58.0,,,,,,,,,,,,,,,,,,,,,,,105.5,0.367,,
291,,isi,,html-keyboard-response,291,406904,0.0-1.0-411.0,0,0,95248,,,,,,,,,,,,,,,,,,,,,,,,,,,,,106.5,1.0,,
292,,feedback,,html-keyboard-response,292,407907,0.0-1.0-412.0-0.0,0,0,95248,,,,,,58.0,,,,,,,,,,,,,,,,,,,,,,,107.5,1.0,,
293,,iti,,html-keyboard-response,293,409912,0.0-1.0-413.0,0,0,95248,,,,,,,,,,,,,,,,,,,,,,,,,,,,,109.5,2.0,,
294,,rl_choice,,html-keyboard-response,294,411416,0.0-1.0-415.0,0,0,95248,,,,,,59.0,59.0,2.0,hard,1000.0,1000.0,1.0,60.0,40.0,40.0,40.0,C,D,/static/Simple_RL/Stimuli/Fractals_stims/C.jpg,/static/Simple_RL/Stimuli/Fractals_stims/D.jpg,,,,,,,,,111.0,1.5,1.0,
295,,rl_choice_warning,,html-keyboard-response,295,412421,0.0-1.0-417.0-0.0,1,0,95248,,,,,,,,,,,,,,,,,,,,,,,,,,,,,112.0,1.0,,
296,,isi,,html-keyboard-response,296,413427,0.0-1.0-418.0,0,0,95248,,,,,,,,,,,,,,,,,,,,,,,,,,,,,113.0,1.0,,
297,,iti,,html-keyboard-response,297,414433,0.0-1.0-420.0,0,0,95248,,,,,,,,,,,,,,,,,,,,,,,,,,,,,114.0,1.0,,
298,,rl_choice,,html-keyboard-response,298,414901,0.0-1.0-422.0,0,0,95248,,466.0,,,75.0,60.0,60.0,2.0,hard,1000.0,2000.0,1.0,60.0,40.0,40.0,60.0,C,D,/static/Simple_RL/Stimuli/Fractals_stims/C.jpg,/static/Simple_RL/Stimuli/Fractals_stims/D.jpg,0.0,40.0,60.0,60.0,40.0,D,C,0.0,114.466,0.466,,
299,,rl_choice_confirmation,,html-keyboard-response,299,415939,0.0-1.0-423.0-0.0,0,0,95248,,,,,,60.0,,,,,,,,,,,,,,,,,,,,,,,115.5,1.034,,
300,,isi,,html-keyboard-response,300,417944,0.0-1.0-425.0,0,0,95248,,,,,,,,,,,,,,,,,,,,,,,,,,,,,117.5,2.0,,
301,,feedback,,html-keyboard-response,301,418948,0.0-1.0-426.0-0.0,0,0,95248,,,,,,60.0,,,,,,,,,,,,,,,,,,,,,,,118.5,1.0,,
302,,iti,,html-keyboard-response,302,419954,0.0-1.0-427.0,0,0,95248,,,,,,,,,,,,,,,,,,,,,,,,,,,,,119.5,1.0,,
303,,rl_choice,,html-keyboard-response,303,420396,0.0-1.0-429.0,0,0,95248,,440.0,,,75.0,61.0,61.0,2.0,hard,3500.0,1500.0,1.0,60.0,40.0,80.0,60.0,C,D,/static/Simple_RL/Stimuli/Fractals_stims/C.jpg,/static/Simple_RL/Stimuli/Fractals_stims/D.jpg,0.0,40.0,60.0,60.0,80.0,D,C,0.0,119.94,0.44,,
304,,rl_choice_confirmation,,html-keyboard-response,304,421462,0.0-1.0-430.0-0.0,0,0,95248,,,,,,61.0,,,,,,,,,,,,,,,,,,,,,,,121.0,1.06,,
305,,isi,,html-keyboard-response,305,422964,0.0-1.0-432.0,0,0,95248,,,,,,,,,,,,,,,,,,,,,,,,,,,,,122.5,1.5,,
306,,feedback,,html-keyboard-response,306,423969,0.0-1.0-433.0-0.0,0,0,95248,,,,,,61.0,,,,,,,,,,,,,,,,,,,,,,,123.5,1.0,,
307,,iti,,html-keyboard-response,307,427475,0.0-1.0-434.0,0,0,95248,,,,,,,,,,,,,,,,,,,,,,,,,,,,,127.0,3.5,,
308,,rl_choice,,html-keyboard-response,308,428000,0.0-1.0-436.0,0,0,95248,,523.0,,,75.0,62.0,62.0,2.0,easy,1000.0,1500.0,0.0,20.0,80.0,20.0,60.0,B,A,/static/Simple_RL/Stimuli/Fractals_stims/B.jpg,/static/Simple_RL/Stimuli/Fractals_stims/A.jpg,0.0,80.0,20.0,60.0,20.0,A,B,0.0,127.523,0.523,,
309,,rl_choice_confirmation,,html-keyboard-response,309,428984,0.0-1.0-437.0-0.0,0,0,95248,,,,,,62.0,,,,,,,,,,,,,,,,,,,,,,,128.5,0.977,,
310,,isi,,html-keyboard-response,310,430488,0.0-1.0-439.0,0,0,95248,,,,,,,,,,,,,,,,,,,,,,,,,,,,,130.0,1.5,,
311,,feedback,,html-keyboard-response,311,431491,0.0-1.0-440.0-0.0,0,0,95248,,,,,,62.0,,,,,,,,,,,,,,,,,,,,,,,131.0,1.0,,
312,,iti,,html-keyboard-response,312,432494,0.0-1.0-441.0,0,0,95248,,,,,,,,,,,,,,,,,,,,,,,,,,,,,132.0,1.0,,
313,,rl_choice,,html-keyboard-response,313,433147,0.0-1.0-443.0,0,0,95248,,652.0,,,75.0,63.0,63.0,2.0,hard,1000.0,3000.0,1.0,60.0,40.0,80.0,40.0,C,D,/static/Simple_RL/Stimuli/Fractals_stims/C.jpg,/static/Simple_RL/Stimuli/Fractals_stims/D.jpg,0.0,40.0,60.0,40.0,80.0,D,C,0.0,132.652,0.652,,
314,,rl_choice_confirmation,,html-keyboard-response,314,433999,0.0-1.0-444.0-0.0,0,0,95248,,,,,,63.0,,,,,,,,,,,,,,,,,,,,,,,133.5,0.848,,
315,,isi,,html-keyboard-response,315,437000,0.0-1.0-446.0,0,0,95248,,,,,,,,,,,,,,,,,,,,,,,,,,,,,136.5,3.0,,
316,,feedback,,html-keyboard-response,316,438003,0.0-1.0-447.0-0.0,0,0,95248,,,,,,63.0,,,,,,,,,,,,,,,,,,,,,,,137.5,1.0,,
317,,iti,,html-keyboard-response,317,439008,0.0-1.0-448.0,0,0,95248,,,,,,,,,,,,,,,,,,,,,,,,,,,,,138.5,1.0,,
318,,rl_choice,,html-keyboard-response,318,439451,0.0-1.0-450.0,0,0,95248,,442.0,,,75.0,64.0,64.0,2.0,hard,1000.0,1000.0,0.0,40.0,60.0,20.0,60.0,D,C,/static/Simple_RL/Stimuli/Fractals_stims/D.jpg,/static/Simple_RL/Stimuli/Fractals_stims/C.jpg,0.0,60.0,40.0,60.0,20.0,C,D,0.0,138.942,0.442,,
319,,rl_choice_confirmation,,html-keyboard-response,319,440515,0.0-1.0-451.0-0.0,0,0,95248,,,,,,64.0,,,,,,,,,,,,,,,,,,,,,,,140.0,1.058,,
320,,isi,,html-keyboard-response,320,441521,0.0-1.0-453.0,0,0,95248,,,,,,,,,,,,,,,,,,,,,,,,,,,,,141.0,1.0,,
321,,feedback,,html-keyboard-response,321,442527,0.0-1.0-454.0-0.0,0,0,95248,,,,,,64.0,,,,,,,,,,,,,,,,,,,,,,,142.0,1.0,,
322,,iti,,html-keyboard-response,322,443534,0.0-1.0-455.0,0,0,95248,,,,,,,,,,,,,,,,,,,,,,,,,,,,,143.0,1.0,,
323,,rl_choice,,html-keyboard-response,323,444187,0.0-1.0-457.0,0,0,95248,,652.0,,,75.0,65.0,65.0,2.0,hard,2000.0,3500.0,0.0,40.0,60.0,20.0,60.0,D,C,/static/Simple_RL/Stimuli/Fractals_stims/D.jpg,/static/Simple_RL/Stimuli/Fractals_stims/C.jpg,0.0,60.0,40.0,60.0,20.0,C,D,0.0,143.652,0.652,,
324,,rl_choice_confirmation,,html-keyboard-response,324,445038,0.0-1.0-458.0-0.0,0,0,95248,,,,,,65.0,,,,,,,,,,,,,,,,,,,,,,,144.5,0.848,,
325,,isi,,html-keyboard-response,325,448541,0.0-1.0-460.0,0,0,95248,,,,,,,,,,,,,,,,,,,,,,,,,,,,,148.0,3.5,,
326,,feedback,,html-keyboard-response,326,449547,0.0-1.0-461.0-0.0,0,0,95248,,,,,,65.0,,,,,,,,,,,,,,,,,,,,,,,149.0,1.0,,
327,,iti,,html-keyboard-response,327,451549,0.0-1.0-462.0,0,0,95248,,,,,,,,,,,,,,,,,,,,,,,,,,,,,151.0,2.0,,
328,,rl_choice,,html-keyboard-response,328,452214,0.0-1.0-464.0,0,0,95248,,664.0,,,75.0,66.0,66.0,2.0,easy,1000.0,1000.0,1.0,80.0,20.0,60.0,0.0,A,B,/static/Simple_RL/Stimuli/Fractals_stims/A.jpg,/static/Simple_RL/Stimuli/Fractals_stims/B.jpg,0.0,20.0,80.0,0.0,60.0,B,A,0.0,151.664,0.664,,
329,,rl_choice_confirmation,,html-keyboard-response,329,453054,0.0-1.0-465.0-0.0,0,0,95248,,,,,,66.0,,,,,,,,,,,,,,,,,,,,,,,152.5,0.836,,
330,,isi,,html-keyboard-response,330,454060,0.0-1.0-467.0,0,0,95248,,,,,,,,,,,,,,,,,,,,,,,,,,,,,153.5,1.0,,
331,,feedback,,html-keyboard-response,331,455064,0.0-1.0-468.0-0.0,0,0,95248,,,,,,66.0,,,,,,,,,,,,,,,,,,,,,,,154.5,1.0,,
332,,iti,,html-keyboard-response,332,456067,0.0-1.0-469.0,0,0,95248,,,,,,,,,,,,,,,,,,,,,,,,,,,,,155.5,1.0,,
333,,rl_choice,,html-keyboard-response,333,456634,0.0-1.0-471.0,0,0,95248,,565.0,,,75.0,67.0,67.0,2.0,easy,1000.0,3000.0,0.0,20.0,80.0,0.0,80.0,B,A,/static/Simple_RL/Stimuli/Fractals_stims/B.jpg,/static/Simple_RL/Stimuli/Fractals_stims/A.jpg,0.0,80.0,20.0,80.0,0.0,A,B,0.0,156.065,0.565,,
334,,rl_choice_confirmation,,html-keyboard-response,334,457573,0.0-1.0-472.0-0.0,0,0,95248,,,,,,67.0,,,,,,,,,,,,,,,,,,,,,,,157.0,0.935,,
335,,isi,,html-keyboard-response,335,460577,0.0-1.0-474.0,0,0,95248,,,,,,,,,,,,,,,,,,,,,,,,,,,,,160.0,3.0,,
336,,feedback,,html-keyboard-response,336,461583,0.0-1.0-475.0-0.0,0,0,95248,,,,,,67.0,,,,,,,,,,,,,,,,,,,,,,,161.0,1.0,,
337,,iti,,html-keyboard-response,337,462590,0.0-1.0-476.0,0,0,95248,,,,,,,,,,,,,,,,,,,,,,,,,,,,,162.0,1.0,,
338,,rl_choice,,html-keyboard-response,338,463154,0.0-1.0-478.0,0,0,95248,,563.0,,,75.0,68.0,68.0,2.0,hard,1500.0,1500.0,1.0,60.0,40.0,60.0,40.0,C,D,/static/Simple_RL/Stimuli/Fractals_stims/C.jpg,/static/Simple_RL/Stimuli/Fractals_stims/D.jpg,0.0,40.0,60.0,40.0,60.0,D,C,0.0,162.563,0.563,,
339,,rl_choice_confirmation,,html-keyboard-response,339,464097,0.0-1.0-479.0-0.0,0,0,95248,,,,,,68.0,,,,,,,,,,,,,,,,,,,,,,,163.5,0.937,,
340,,isi,,html-keyboard-response,340,465603,0.0-1.0-481.0,0,0,95248,,,,,,,,,,,,,,,,,,,,,,,,,,,,,165.0,1.5,,
341,,feedback,,html-keyboard-response,341,466606,0.0-1.0-482.0-0.0,0,0,95248,,,,,,68.0,,,,,,,,,,,,,,,,,,,,,,,166.0,1.0,,
342,,iti,,html-keyboard-response,342,468110,0.0-1.0-483.0,0,0,95248,,,,,,,,,,,,,,,,,,,,,,,,,,,,,167.5,1.5,,
343,,rl_choice,,html-keyboard-response,343,468693,0.0-1.0-485.0,0,0,95248,,582.0,,,75.0,69.0,69.0,2.0,easy,3000.0,1500.0,1.0,80.0,20.0,60.0,20.0,A,B,/static/Simple_RL/Stimuli/Fractals_stims/A.jpg,/static/Simple_RL/Stimuli/Fractals_stims/B.jpg,0.0,20.0,80.0,20.0,60.0,B,A,0.0,168.082,0.582,,
344,,rl_choice_confirmation,,html-keyboard-response,344,469614,0.0-1.0-486.0-0.0,0,0,95248,,,,,,69.0,,,,,,,,,,,,,,,,,,,,,,,169.0,0.918,,
345,,isi,,html-keyboard-response,345,471118,0.0-1.0-488.0,0,0,95248,,,,,,,,,,,,,,,,,,,,,,,,,,,,,170.5,1.5,,
346,,feedback,,html-keyboard-response,346,472124,0.0-1.0-489.0-0.0,0,0,95248,,,,,,69.0,,,,,,,,,,,,,,,,,,,,,,,171.5,1.0,,
347,,iti,,html-keyboard-response,347,475129,0.0-1.0-490.0,0,0,95248,,,,,,,,,,,,,,,,,,,,,,,,,,,,,174.5,3.0,,
348,,rl_choice,,html-keyboard-response,348,475670,0.0-1.0-492.0,0,0,95248,,539.0,,,75.0,70.0,70.0,2.0,easy,3000.0,1000.0,0.0,20.0,80.0,40.0,60.0,B,A,/static/Simple_RL/Stimuli/Fractals_stims/B.jpg,/static/Simple_RL/Stimuli/Fractals_stims/A.jpg,0.0,80.0,20.0,60.0,40.0,A,B,0.0,175.039,0.539,,
349,,rl_choice_confirmation,,html-keyboard-response,349,476638,0.0-1.0-493.0-0.0,0,0,95248,,,,,,70.0,,,,,,,,,,,,,,,,,,,,,,,176.0,0.961,,
350,,isi,,html-keyboard-response,350,477641,0.0-1.0-495.0,0,0,95248,,,,,,,,,,,,,,,,,,,,,,,,,,,,,177.0,1.0,,
351,,feedback,,html-keyboard-response,351,478643,0.0-1.0-496.0-0.0,0,0,95248,,,,,,70.0,,,,,,,,,,,,,,,,,,,,,,,178.0,1.0,,
352,,iti,,html-keyboard-response,352,481649,0.0-1.0-497.0,0,0,95248,,,,,,,,,,,,,,,,,,,,,,,,,,,,,181.0,3.0,,
353,,rl_choice,,html-keyboard-response,353,482130,0.0-1.0-499.0,0,0,95248,,479.0,,,75.0,71.0,71.0,2.0,easy,2000.0,3500.0,1.0,80.0,20.0,100.0,40.0,A,B,/static/Simple_RL/Stimuli/Fractals_stims/A.jpg,/static/Simple_RL/Stimuli/Fractals_stims/B.jpg,0.0,20.0,80.0,40.0,100.0,B,A,0.0,181.479,0.479,,
354,,rl_choice_confirmation,,html-keyboard-response,354,483155,0.0-1.0-500.0-0.0,0,0,95248,,,,,,71.0,,,,,,,,,,,,,,,,,,,,,,,182.5,1.021,,
355,,isi,,html-keyboard-response,355,486659,0.0-1.0-502.0,0,0,95248,,,,,,,,,,,,,,,,,,,,,,,,,,,,,186.0,3.5,,
356,,feedback,,html-keyboard-response,356,487665,0.0-1.0-503.0-0.0,0,0,95248,,,,,,71.0,,,,,,,,,,,,,,,,,,,,,,,187.0,1.0,,
357,,iti,,html-keyboard-response,357,489667,0.0-1.0-504.0,0,0,95248,,,,,,,,,,,,,,,,,,,,,,,,,,,,,189.0,2.0,,
358,,rl_choice,,html-keyboard-response,358,490147,0.0-1.0-506.0,0,0,95248,,477.0,,,75.0,72.0,72.0,2.0,easy,2000.0,1000.0,1.0,80.0,20.0,60.0,20.0,A,B,/static/Simple_RL/Stimuli/Fractals_stims/A.jpg,/static/Simple_RL/Stimuli/Fractals_stims/B.jpg,0.0,20.0,80.0,20.0,60.0,B,A,0.0,189.477,0.477,,
359,,rl_choice_confirmation,,html-keyboard-response,359,491177,0.0-1.0-507.0-0.0,0,0,95248,,,,,,72.0,,,,,,,,,,,,,,,,,,,,,,,190.5,1.023,,
360,,isi,,html-keyboard-response,360,492182,0.0-1.0-509.0,0,0,95248,,,,,,,,,,,,,,,,,,,,,,,,,,,,,191.5,1.0,,
361,,feedback,,html-keyboard-response,361,493188,0.0-1.0-510.0-0.0,0,0,95248,,,,,,72.0,,,,,,,,,,,,,,,,,,,,,,,192.5,1.0,,
362,,iti,,html-keyboard-response,362,495193,0.0-1.0-511.0,0,0,95248,,,,,,,,,,,,,,,,,,,,,,,,,,,,,194.5,2.0,,
363,,rl_choice,,html-keyboard-response,363,495595,0.0-1.0-513.0,0,0,95248,,400.0,,,75.0,73.0,73.0,2.0,easy,1500.0,2000.0,1.0,80.0,20.0,100.0,20.0,A,B,/static/Simple_RL/Stimuli/Fractals_stims/A.jpg,/static/Simple_RL/Stimuli/Fractals_stims/B.jpg,0.0,20.0,80.0,20.0,100.0,B,A,0.0,194.9,0.4,,
364,,rl_choice_confirmation,,html-keyboard-response,364,496701,0.0-1.0-514.0-0.0,0,0,95248,,,,,,73.0,,,,,,,,,,,,,,,,,,,,,,,196.0,1.1,,
365,,isi,,html-keyboard-response,365,498707,0.0-1.0-516.0,0,0,95248,,,,,,,,,,,,,,,,,,,,,,,,,,,,,198.0,2.0,,
366,,feedback,,html-keyboard-response,366,499710,0.0-1.0-517.0-0.0,0,0,95248,,,,,,73.0,,,,,,,,,,,,,,,,,,,,,,,199.0,1.0,,
367,,iti,,html-keyboard-response,367,501214,0.0-1.0-518.0,0,0,95248,,,,,,,,,,,,,,,,,,,,,,,,,,,,,200.5,1.5,,
368,,rl_choice,,html-keyboard-response,368,501797,0.0-1.0-520.0,0,0,95248,,581.0,,,75.0,74.0,74.0,2.0,hard,2000.0,1500.0,0.0,40.0,60.0,60.0,60.0,D,C,/static/Simple_RL/Stimuli/Fractals_stims/D.jpg,/static/Simple_RL/Stimuli/Fractals_stims/C.jpg,0.0,60.0,40.0,60.0,60.0,C,D,0.0,201.081,0.581,,
369,,rl_choice_confirmation,,html-keyboard-response,369,502722,0.0-1.0-521.0-0.0,0,0,95248,,,,,,74.0,,,,,,,,,,,,,,,,,,,,,,,202.0,0.919,,
370,,isi,,html-keyboard-response,370,504227,0.0-1.0-523.0,0,0,95248,,,,,,,,,,,,,,,,,,,,,,,,,,,,,203.5,1.5,,
371,,feedback,,html-keyboard-response,371,505230,0.0-1.0-524.0-0.0,0,0,95248,,,,,,74.0,,,,,,,,,,,,,,,,,,,,,,,204.5,1.0,,
372,,iti,,html-keyboard-response,372,507236,0.0-1.0-525.0,0,0,95248,,,,,,,,,,,,,,,,,,,,,,,,,,,,,206.5,2.0,,
373,,rl_choice,,html-keyboard-response,373,507781,0.0-1.0-527.0,0,0,95248,,544.0,,,75.0,75.0,75.0,2.0,hard,2000.0,1000.0,1.0,60.0,40.0,80.0,40.0,C,D,/static/Simple_RL/Stimuli/Fractals_stims/C.jpg,/static/Simple_RL/Stimuli/Fractals_stims/D.jpg,0.0,40.0,60.0,40.0,80.0,D,C,0.0,207.044,0.544,,
374,,rl_choice_confirmation,,html-keyboard-response,374,508743,0.0-1.0-528.0-0.0,0,0,95248,,,,,,75.0,,,,,,,,,,,,,,,,,,,,,,,208.0,0.956,,
375,,isi,,html-keyboard-response,375,509748,0.0-1.0-530.0,0,0,95248,,,,,,,,,,,,,,,,,,,,,,,,,,,,,209.0,1.0,,
376,,feedback,,html-keyboard-response,376,510754,0.0-1.0-531.0-0.0,0,0,95248,,,,,,75.0,,,,,,,,,,,,,,,,,,,,,,,210.0,1.0,,
377,,iti,,html-keyboard-response,377,512756,0.0-1.0-532.0,0,0,95248,,,,,,,,,,,,,,,,,,,,,,,,,,,,,212.0,2.0,,
378,,rl_choice,,html-keyboard-response,378,513546,0.0-1.0-534.0,0,0,95248,,789.0,,,75.0,76.0,76.0,2.0,easy,1000.0,1000.0,0.0,20.0,80.0,40.0,100.0,B,A,/static/Simple_RL/Stimuli/Fractals_stims/B.jpg,/static/Simple_RL/Stimuli/Fractals_stims/A.jpg,0.0,80.0,20.0,100.0,40.0,A,B,0.0,212.789,0.789,,
379,,rl_choice_confirmation,,html-keyboard-response,379,514260,0.0-1.0-535.0-0.0,0,0,95248,,,,,,76.0,,,,,,,,,,,,,,,,,,,,,,,213.5,0.711,,
380,,isi,,html-keyboard-response,380,515265,0.0-1.0-537.0,0,0,95248,,,,,,,,,,,,,,,,,,,,,,,,,,,,,214.5,1.0,,
381,,feedback,,html-keyboard-response,381,516270,0.0-1.0-538.0-0.0,0,0,95248,,,,,,76.0,,,,,,,,,,,,,,,,,,,,,,,215.5,1.0,,
382,,iti,,html-keyboard-response,382,517276,0.0-1.0-539.0,0,0,95248,,,,,,,,,,,,,,,,,,,,,,,,,,,,,216.5,1.0,,
383,,rl_choice,,html-keyboard-response,383,517878,0.0-1.0-541.0,0,0,95248,,601.0,,,75.0,77.0,77.0,2.0,easy,1000.0,1000.0,0.0,20.0,80.0,20.0,80.0,B,A,/static/Simple_RL/Stimuli/Fractals_stims/B.jpg,/static/Simple_RL/Stimuli/Fractals_stims/A.jpg,0.0,80.0,20.0,80.0,20.0,A,B,0.0,217.101,0.601,,
384,,rl_choice_confirmation,,html-keyboard-response,384,518780,0.0-1.0-542.0-0.0,0,0,95248,,,,,,77.0,,,,,,,,,,,,,,,,,,,,,,,218.0,0.899,,
385,,isi,,html-keyboard-response,385,519782,0.0-1.0-544.0,0,0,95248,,,,,,,,,,,,,,,,,,,,,,,,,,,,,219.0,1.0,,
386,,feedback,,html-keyboard-response,386,520785,0.0-1.0-545.0-0.0,0,0,95248,,,,,,77.0,,,,,,,,,,,,,,,,,,,,,,,220.0,1.0,,
387,,iti,,html-keyboard-response,387,521786,0.0-1.0-546.0,0,0,95248,,,,,,,,,,,,,,,,,,,,,,,,,,,,,221.0,1.0,,
388,,rl_choice,,html-keyboard-response,388,522527,0.0-1.0-548.0,0,0,95248,,738.0,,,75.0,78.0,78.0,2.0,hard,1500.0,2000.0,0.0,40.0,60.0,20.0,40.0,D,C,/static/Simple_RL/Stimuli/Fractals_stims/D.jpg,/static/Simple_RL/Stimuli/Fractals_stims/C.jpg,0.0,60.0,40.0,40.0,20.0,C,D,0.0,221.738,0.738,,
389,,rl_choice_confirmation,,html-keyboard-response,389,523294,0.0-1.0-549.0-0.0,0,0,95248,,,,,,78.0,,,,,,,,,,,,,,,,,,,,,,,222.5,0.762,,
390,,isi,,html-keyboard-response,390,525299,0.0-1.0-551.0,0,0,95248,,,,,,,,,,,,,,,,,,,,,,,,,,,,,224.5,2.0,,
391,,feedback,,html-keyboard-response,391,526302,0.0-1.0-552.0-0.0,0,0,95248,,,,,,78.0,,,,,,,,,,,,,,,,,,,,,,,225.5,1.0,,
392,,iti,,html-keyboard-response,392,527806,0.0-1.0-553.0,0,0,95248,,,,,,,,,,,,,,,,,,,,,,,,,,,,,227.0,1.5,,
393,,rl_choice,,html-keyboard-response,393,528363,0.0-1.0-555.0,0,0,95248,,555.0,,,75.0,79.0,79.0,2.0,easy,1000.0,1500.0,1.0,80.0,20.0,60.0,20.0,A,B,/static/Simple_RL/Stimuli/Fractals_stims/A.jpg,/static/Simple_RL/Stimuli/Fractals_stims/B.jpg,0.0,20.0,80.0,20.0,60.0,B,A,0.0,227.555,0.555,,
394,,rl_choice_confirmation,,html-keyboard-response,394,529310,0.0-1.0-556.0-0.0,0,0,95248,,,,,,79.0,,,,,,,,,,,,,,,,,,,,,,,228.5,0.945,,
395,,isi,,html-keyboard-response,395,530814,0.0-1.0-558.0,0,0,95248,,,,,,,,,,,,,,,,,,,,,,,,,,,,,230.0,1.5,,
396,,feedback,,html-keyboard-response,396,531817,0.0-1.0-559.0-0.0,0,0,95248,,,,,,79.0,,,,,,,,,,,,,,,,,,,,,,,231.0,1.0,,
397,,iti,,html-keyboard-response,397,532822,0.0-1.0-560.0,0,0,95248,,,,,,,,,,,,,,,,,,,,,,,,,,,,,232.0,1.0,,1.0
398,,final_tally,,html-keyboard-response,398,536327,0.0-2.0,0,0,95248,,3503.0,,,68.0,,,,,,,,,,,,,,,,,,,,,,,,,,,
