,success,ttype,start_time,trial_type,trial_index,time_elapsed,internal_node_id,warning,missed_checkup,PID,view_history,rt,responses,repeat_instructions,key_press,index,trial_num,block,condition,iti,isi,high_group_on_left,left_group_value,right_group_value,left_item_value,right_item_value,left_img,right_img,left_img_path,right_img_path,left_chosen,chosen_group_value,unchosen_group_value,chosen_item_value,unchosen_item_value,chosen_img,unchosen_img,onset,duration,no_response,total_bonus_tally
0,True,full_screen,d06232022hr1604,fullscreen,0,10705,0.0-0.0,0,0,98,,,,,,,,,,,,,,,,,,,,,,,,,,,,,,,
1,,size_instructions,,instructions,1,81137,0.0-1.0-0.0-0.0,0,0,98,"[{""page_index"":0,""viewing_time"":4166},{""page_index"":1,""viewing_time"":21474},{""page_index"":2,""viewing_time"":16991},{""page_index"":3,""viewing_time"":12633},{""page_index"":4,""viewing_time"":8349},{""page_index"":5,""viewing_time"":6817}]",70431.0,,,,,,,,,,,,,,,,,,,,,,,,,,,,,
2,,rl_comprehension_check,,survey-multi-choice,2,104732,0.0-1.0-0.0-1.0,0,0,98,,23592.0,"{""Q0"":""True"",""Q1"":""True"",""Q2"":""pointer finger for left and middle finger for right""}",0.0,,,,,,,,,,,,,,,,,,,,,,,,,,,
3,,,,html-keyboard-response,3,107978,0.0-1.0-1.0,0,0,98,,3242.0,,,83.0,,,,,,,,,,,,,,,,,,,,,,,,,,
4,,start_run,,html-keyboard-response,4,135517,0.0-1.0-2.0,0,0,98,,27539.0,,,84.0,,,,,,,,,,,,,,,,,,,,,,,,,,
5,,rl_choice,,html-keyboard-response,5,136616,0.0-1.0-3.0,0,0,98,,1098.0,,,50.0,0.0,0.0,1.0,hard,1500.0,2000.0,1.0,60.0,40.0,80.0,20.0,B,A,/static/Simple_RL/Stimuli/Fractals_stims/B.jpg,/static/Simple_RL/Stimuli/Fractals_stims/A.jpg,1.0,60.0,40.0,80.0,20.0,B,A,0.0,1.098,0.0,
6,,rl_choice_confirmation,,html-keyboard-response,6,137020,0.0-1.0-4.0-0.0,0,0,98,,,,,,0.0,,1.0,,,,,,,,,,,,,,,,,,,,1.098,0.402,,
7,,isi,,html-keyboard-response,7,139022,0.0-1.0-6.0,0,0,98,,,,,,0.0,,1.0,,,,,,,,,,,,,,,,,,,,1.5,2.0,,
8,,feedback,,html-keyboard-response,8,140024,0.0-1.0-7.0-0.0,0,0,98,,,,,,0.0,,1.0,,,,,,,,,,,,,,,,,,,,3.5,1.0,,
9,,iti,,html-keyboard-response,9,141526,0.0-1.0-8.0,0,0,98,,,,,,0.0,,1.0,,,,,,,,,,,,,,,,,,,,4.5,1.5,,
10,,rl_choice,,html-keyboard-response,10,142485,0.0-1.0-10.0,0,0,98,,958.0,,,50.0,1.0,1.0,1.0,easy,1500.0,3000.0,1.0,80.0,20.0,60.0,40.0,D,C,/static/Simple_RL/Stimuli/Fractals_stims/D.jpg,/static/Simple_RL/Stimuli/Fractals_stims/C.jpg,1.0,80.0,20.0,60.0,40.0,D,C,6.0,0.958,0.0,
11,,rl_choice_confirmation,,html-keyboard-response,11,143029,0.0-1.0-11.0-0.0,0,0,98,,,,,,1.0,,1.0,,,,,,,,,,,,,,,,,,,,6.958,0.542,,
12,,isi,,html-keyboard-response,12,146031,0.0-1.0-13.0,0,0,98,,,,,,1.0,,1.0,,,,,,,,,,,,,,,,,,,,7.5,3.0,,
13,,feedback,,html-keyboard-response,13,147037,0.0-1.0-14.0-0.0,0,0,98,,,,,,1.0,,1.0,,,,,,,,,,,,,,,,,,,,10.5,1.0,,
14,,iti,,html-keyboard-response,14,148542,0.0-1.0-15.0,0,0,98,,,,,,1.0,,1.0,,,,,,,,,,,,,,,,,,,,11.5,1.5,,
15,,rl_choice,,html-keyboard-response,15,149534,0.0-1.0-17.0,0,0,98,,990.0,,,51.0,2.0,2.0,1.0,hard,2000.0,3000.0,0.0,40.0,60.0,40.0,40.0,A,B,/static/Simple_RL/Stimuli/Fractals_stims/A.jpg,/static/Simple_RL/Stimuli/Fractals_stims/B.jpg,0.0,60.0,40.0,40.0,40.0,B,A,13.0,0.99,0.0,
16,,rl_choice_confirmation,,html-keyboard-response,16,150046,0.0-1.0-18.0-0.0,0,0,98,,,,,,2.0,,1.0,,,,,,,,,,,,,,,,,,,,13.99,0.51,,
17,,isi,,html-keyboard-response,17,153049,0.0-1.0-20.0,0,0,98,,,,,,2.0,,1.0,,,,,,,,,,,,,,,,,,,,14.5,3.0,,
18,,feedback,,html-keyboard-response,18,154051,0.0-1.0-21.0-0.0,0,0,98,,,,,,2.0,,1.0,,,,,,,,,,,,,,,,,,,,17.5,1.0,,
19,,iti,,html-keyboard-response,19,156057,0.0-1.0-22.0,0,0,98,,,,,,2.0,,1.0,,,,,,,,,,,,,,,,,,,,18.5,2.0,,
20,,rl_choice,,html-keyboard-response,20,157102,0.0-1.0-24.0,0,0,98,,1044.0,,,50.0,3.0,3.0,1.0,hard,1000.0,1000.0,0.0,40.0,60.0,40.0,40.0,A,B,/static/Simple_RL/Stimuli/Fractals_stims/A.jpg,/static/Simple_RL/Stimuli/Fractals_stims/B.jpg,1.0,40.0,60.0,40.0,40.0,A,B,20.5,1.044,0.0,
21,,rl_choice_confirmation,,html-keyboard-response,21,157560,0.0-1.0-25.0-0.0,0,0,98,,,,,,3.0,,1.0,,,,,,,,,,,,,,,,,,,,21.544,0.456,,
22,,isi,,html-keyboard-response,22,158563,0.0-1.0-27.0,0,0,98,,,,,,3.0,,1.0,,,,,,,,,,,,,,,,,,,,22.0,1.0,,
23,,feedback,,html-keyboard-response,23,159566,0.0-1.0-28.0-0.0,0,0,98,,,,,,3.0,,1.0,,,,,,,,,,,,,,,,,,,,23.0,1.0,,
24,,iti,,html-keyboard-response,24,160569,0.0-1.0-29.0,0,0,98,,,,,,3.0,,1.0,,,,,,,,,,,,,,,,,,,,24.0,1.0,,
25,,rl_choice,,html-keyboard-response,25,161582,0.0-1.0-31.0,0,0,98,,1012.0,,,50.0,4.0,4.0,1.0,hard,3500.0,3500.0,1.0,60.0,40.0,60.0,20.0,B,A,/static/Simple_RL/Stimuli/Fractals_stims/B.jpg,/static/Simple_RL/Stimuli/Fractals_stims/A.jpg,1.0,60.0,40.0,60.0,20.0,B,A,25.0,1.012,0.0,
26,,rl_choice_confirmation,,html-keyboard-response,26,162073,0.0-1.0-32.0-0.0,0,0,98,,,,,,4.0,,1.0,,,,,,,,,,,,,,,,,,,,26.012,0.488,,
27,,isi,,html-keyboard-response,27,165577,0.0-1.0-34.0,0,0,98,,,,,,4.0,,1.0,,,,,,,,,,,,,,,,,,,,26.5,3.5,,
28,,feedback,,html-keyboard-response,28,166579,0.0-1.0-35.0-0.0,0,0,98,,,,,,4.0,,1.0,,,,,,,,,,,,,,,,,,,,30.0,1.0,,
29,,iti,,html-keyboard-response,29,170083,0.0-1.0-36.0,0,0,98,,,,,,4.0,,1.0,,,,,,,,,,,,,,,,,,,,31.0,3.5,,
30,,rl_choice,,html-keyboard-response,30,171590,0.0-1.0-38.0,0,0,98,,,,,,5.0,5.0,1.0,hard,1500.0,1000.0,0.0,40.0,60.0,20.0,60.0,A,B,/static/Simple_RL/Stimuli/Fractals_stims/A.jpg,/static/Simple_RL/Stimuli/Fractals_stims/B.jpg,,,,,,,,34.5,1.5,1.0,
31,,rl_choice_warning,,html-keyboard-response,31,172595,0.0-1.0-40.0-0.0,0,0,98,,,,,,5.0,,1.0,,,,,,,,,,,,,,,,,,,,36.0,1.0,,
32,,isi,,html-keyboard-response,32,173598,0.0-1.0-41.0,0,0,98,,,,,,5.0,,1.0,,,,,,,,,,,,,,,,,,,,37.0,1.0,,
33,,iti,,html-keyboard-response,33,175102,0.0-1.0-43.0,0,0,98,,,,,,5.0,,1.0,,,,,,,,,,,,,,,,,,,,38.0,1.5,,
34,,rl_choice,,html-keyboard-response,34,175609,0.0-1.0-45.0,0,0,98,,506.0,,,51.0,6.0,6.0,1.0,hard,1000.0,1000.0,0.0,40.0,60.0,40.0,60.0,A,B,/static/Simple_RL/Stimuli/Fractals_stims/A.jpg,/static/Simple_RL/Stimuli/Fractals_stims/B.jpg,0.0,60.0,40.0,60.0,40.0,B,A,39.5,0.506,0.0,
35,,rl_choice_confirmation,,html-keyboard-response,35,176606,0.0-1.0-46.0-0.0,0,0,98,,,,,,6.0,,1.0,,,,,,,,,,,,,,,,,,,,40.006,0.994,,
36,,isi,,html-keyboard-response,36,177609,0.0-1.0-48.0,0,0,98,,,,,,6.0,,1.0,,,,,,,,,,,,,,,,,,,,41.0,1.0,,
37,,feedback,,html-keyboard-response,37,178614,0.0-1.0-49.0-0.0,0,0,98,,,,,,6.0,,1.0,,,,,,,,,,,,,,,,,,,,42.0,1.0,,
38,,iti,,html-keyboard-response,38,179620,0.0-1.0-50.0,0,0,98,,,,,,6.0,,1.0,,,,,,,,,,,,,,,,,,,,43.0,1.0,,
39,,rl_choice,,html-keyboard-response,39,180205,0.0-1.0-52.0,0,0,98,,583.0,,,50.0,7.0,7.0,1.0,hard,3000.0,1500.0,0.0,40.0,60.0,20.0,40.0,A,B,/static/Simple_RL/Stimuli/Fractals_stims/A.jpg,/static/Simple_RL/Stimuli/Fractals_stims/B.jpg,1.0,40.0,60.0,20.0,40.0,A,B,44.0,0.583,0.0,
40,,rl_choice_confirmation,,html-keyboard-response,40,181124,0.0-1.0-53.0-0.0,0,0,98,,,,,,7.0,,1.0,,,,,,,,,,,,,,,,,,,,44.583,0.917,,
41,,isi,,html-keyboard-response,41,182628,0.0-1.0-55.0,0,0,98,,,,,,7.0,,1.0,,,,,,,,,,,,,,,,,,,,45.5,1.5,,
42,,feedback,,html-keyboard-response,42,183630,0.0-1.0-56.0-0.0,0,0,98,,,,,,7.0,,1.0,,,,,,,,,,,,,,,,,,,,47.0,1.0,,
43,,iti,,html-keyboard-response,43,186633,0.0-1.0-57.0,0,0,98,,,,,,7.0,,1.0,,,,,,,,,,,,,,,,,,,,48.0,3.0,,
44,,rl_choice,,html-keyboard-response,44,187358,0.0-1.0-59.0,0,0,98,,723.0,,,50.0,8.0,8.0,1.0,hard,1000.0,2000.0,1.0,60.0,40.0,60.0,60.0,B,A,/static/Simple_RL/Stimuli/Fractals_stims/B.jpg,/static/Simple_RL/Stimuli/Fractals_stims/A.jpg,1.0,60.0,40.0,60.0,60.0,B,A,51.0,0.723,0.0,
45,,rl_choice_confirmation,,html-keyboard-response,45,188136,0.0-1.0-60.0-0.0,0,0,98,,,,,,8.0,,1.0,,,,,,,,,,,,,,,,,,,,51.723,0.777,,
46,,isi,,html-keyboard-response,46,190142,0.0-1.0-62.0,0,0,98,,,,,,8.0,,1.0,,,,,,,,,,,,,,,,,,,,52.5,2.0,,
47,,feedback,,html-keyboard-response,47,191145,0.0-1.0-63.0-0.0,0,0,98,,,,,,8.0,,1.0,,,,,,,,,,,,,,,,,,,,54.5,1.0,,
48,,iti,,html-keyboard-response,48,192148,0.0-1.0-64.0,0,0,98,,,,,,8.0,,1.0,,,,,,,,,,,,,,,,,,,,55.5,1.0,,
49,,rl_choice,,html-keyboard-response,49,192771,0.0-1.0-66.0,0,0,98,,621.0,,,50.0,9.0,9.0,1.0,hard,2000.0,2000.0,1.0,60.0,40.0,80.0,60.0,B,A,/static/Simple_RL/Stimuli/Fractals_stims/B.jpg,/static/Simple_RL/Stimuli/Fractals_stims/A.jpg,1.0,60.0,40.0,80.0,60.0,B,A,56.5,0.621,0.0,
50,,rl_choice_confirmation,,html-keyboard-response,50,193652,0.0-1.0-67.0-0.0,0,0,98,,,,,,9.0,,1.0,,,,,,,,,,,,,,,,,,,,57.121,0.879,,
51,,isi,,html-keyboard-response,51,195657,0.0-1.0-69.0,0,0,98,,,,,,9.0,,1.0,,,,,,,,,,,,,,,,,,,,58.0,2.0,,
52,,feedback,,html-keyboard-response,52,196660,0.0-1.0-70.0-0.0,0,0,98,,,,,,9.0,,1.0,,,,,,,,,,,,,,,,,,,,60.0,1.0,,
53,,iti,,html-keyboard-response,53,198665,0.0-1.0-71.0,0,0,98,,,,,,9.0,,1.0,,,,,,,,,,,,,,,,,,,,61.0,2.0,,
54,,rl_choice,,html-keyboard-response,54,199552,0.0-1.0-73.0,0,0,98,,886.0,,,51.0,10.0,10.0,1.0,hard,2000.0,2000.0,0.0,40.0,60.0,20.0,60.0,A,B,/static/Simple_RL/Stimuli/Fractals_stims/A.jpg,/static/Simple_RL/Stimuli/Fractals_stims/B.jpg,0.0,60.0,40.0,60.0,20.0,B,A,63.0,0.886,0.0,
55,,rl_choice_confirmation,,html-keyboard-response,55,200169,0.0-1.0-74.0-0.0,0,0,98,,,,,,10.0,,1.0,,,,,,,,,,,,,,,,,,,,63.886,0.614,,
56,,isi,,html-keyboard-response,56,202174,0.0-1.0-76.0,0,0,98,,,,,,10.0,,1.0,,,,,,,,,,,,,,,,,,,,64.5,2.0,,
57,,feedback,,html-keyboard-response,57,203177,0.0-1.0-77.0-0.0,0,0,98,,,,,,10.0,,1.0,,,,,,,,,,,,,,,,,,,,66.5,1.0,,
58,,iti,,html-keyboard-response,58,205183,0.0-1.0-78.0,0,0,98,,,,,,10.0,,1.0,,,,,,,,,,,,,,,,,,,,67.5,2.0,,
59,,rl_choice,,html-keyboard-response,59,206416,0.0-1.0-80.0,0,0,98,,1232.0,,,50.0,11.0,11.0,1.0,easy,1500.0,2000.0,1.0,80.0,20.0,100.0,20.0,D,C,/static/Simple_RL/Stimuli/Fractals_stims/D.jpg,/static/Simple_RL/Stimuli/Fractals_stims/C.jpg,1.0,80.0,20.0,100.0,20.0,D,C,69.5,1.232,0.0,
60,,rl_choice_confirmation,,html-keyboard-response,60,206686,0.0-1.0-81.0-0.0,0,0,98,,,,,,11.0,,1.0,,,,,,,,,,,,,,,,,,,,70.732,0.268,,
61,,isi,,html-keyboard-response,61,208692,0.0-1.0-83.0,0,0,98,,,,,,11.0,,1.0,,,,,,,,,,,,,,,,,,,,71.0,2.0,,
62,,feedback,,html-keyboard-response,62,209695,0.0-1.0-84.0-0.0,0,0,98,,,,,,11.0,,1.0,,,,,,,,,,,,,,,,,,,,73.0,1.0,,
63,,iti,,html-keyboard-response,63,211199,0.0-1.0-85.0,0,0,98,,,,,,11.0,,1.0,,,,,,,,,,,,,,,,,,,,74.0,1.5,,
64,,rl_choice,,html-keyboard-response,64,212047,0.0-1.0-87.0,0,0,98,,846.0,,,50.0,12.0,12.0,1.0,hard,1000.0,1500.0,1.0,60.0,40.0,40.0,20.0,B,A,/static/Simple_RL/Stimuli/Fractals_stims/B.jpg,/static/Simple_RL/Stimuli/Fractals_stims/A.jpg,1.0,60.0,40.0,40.0,20.0,B,A,75.5,0.846,0.0,
65,,rl_choice_confirmation,,html-keyboard-response,65,212703,0.0-1.0-88.0-0.0,0,0,98,,,,,,12.0,,1.0,,,,,,,,,,,,,,,,,,,,76.346,0.654,,
66,,isi,,html-keyboard-response,66,214207,0.0-1.0-90.0,0,0,98,,,,,,12.0,,1.0,,,,,,,,,,,,,,,,,,,,77.0,1.5,,
67,,feedback,,html-keyboard-response,67,215209,0.0-1.0-91.0-0.0,0,0,98,,,,,,12.0,,1.0,,,,,,,,,,,,,,,,,,,,78.5,1.0,,
68,,iti,,html-keyboard-response,68,216214,0.0-1.0-92.0,0,0,98,,,,,,12.0,,1.0,,,,,,,,,,,,,,,,,,,,79.5,1.0,,
69,,rl_choice,,html-keyboard-response,69,217099,0.0-1.0-94.0,0,0,98,,884.0,,,50.0,13.0,13.0,1.0,easy,1500.0,1500.0,1.0,80.0,20.0,100.0,40.0,D,C,/static/Simple_RL/Stimuli/Fractals_stims/D.jpg,/static/Simple_RL/Stimuli/Fractals_stims/C.jpg,1.0,80.0,20.0,100.0,40.0,D,C,80.5,0.884,0.0,
70,,rl_choice_confirmation,,html-keyboard-response,70,217717,0.0-1.0-95.0-0.0,0,0,98,,,,,,13.0,,1.0,,,,,,,,,,,,,,,,,,,,81.384,0.616,,
71,,isi,,html-keyboard-response,71,219220,0.0-1.0-97.0,0,0,98,,,,,,13.0,,1.0,,,,,,,,,,,,,,,,,,,,82.0,1.5,,
72,,feedback,,html-keyboard-response,72,220223,0.0-1.0-98.0-0.0,0,0,98,,,,,,13.0,,1.0,,,,,,,,,,,,,,,,,,,,83.5,1.0,,
73,,iti,,html-keyboard-response,73,221727,0.0-1.0-99.0,0,0,98,,,,,,13.0,,1.0,,,,,,,,,,,,,,,,,,,,84.5,1.5,,
74,,rl_choice,,html-keyboard-response,74,222548,0.0-1.0-101.0,0,0,98,,820.0,,,51.0,14.0,14.0,1.0,easy,1000.0,1000.0,0.0,20.0,80.0,0.0,60.0,C,D,/static/Simple_RL/Stimuli/Fractals_stims/C.jpg,/static/Simple_RL/Stimuli/Fractals_stims/D.jpg,0.0,80.0,20.0,60.0,0.0,D,C,86.0,0.82,0.0,
75,,rl_choice_confirmation,,html-keyboard-response,75,223231,0.0-1.0-102.0-0.0,0,0,98,,,,,,14.0,,1.0,,,,,,,,,,,,,,,,,,,,86.82,0.68,,
76,,isi,,html-keyboard-response,76,224233,0.0-1.0-104.0,0,0,98,,,,,,14.0,,1.0,,,,,,,,,,,,,,,,,,,,87.5,1.0,,
77,,feedback,,html-keyboard-response,77,225236,0.0-1.0-105.0-0.0,0,0,98,,,,,,14.0,,1.0,,,,,,,,,,,,,,,,,,,,88.5,1.0,,
78,,iti,,html-keyboard-response,78,226239,0.0-1.0-106.0,0,0,98,,,,,,14.0,,1.0,,,,,,,,,,,,,,,,,,,,89.5,1.0,,
79,,rl_choice,,html-keyboard-response,79,226975,0.0-1.0-108.0,0,0,98,,735.0,,,51.0,15.0,15.0,1.0,easy,1000.0,2000.0,0.0,20.0,80.0,20.0,100.0,C,D,/static/Simple_RL/Stimuli/Fractals_stims/C.jpg,/static/Simple_RL/Stimuli/Fractals_stims/D.jpg,0.0,80.0,20.0,100.0,20.0,D,C,90.5,0.735,0.0,
80,,rl_choice_confirmation,,html-keyboard-response,80,227743,0.0-1.0-109.0-0.0,0,0,98,,,,,,15.0,,1.0,,,,,,,,,,,,,,,,,,,,91.235,0.765,,
81,,isi,,html-keyboard-response,81,229748,0.0-1.0-111.0,0,0,98,,,,,,15.0,,1.0,,,,,,,,,,,,,,,,,,,,92.0,2.0,,
82,,feedback,,html-keyboard-response,82,230753,0.0-1.0-112.0-0.0,0,0,98,,,,,,15.0,,1.0,,,,,,,,,,,,,,,,,,,,94.0,1.0,,
83,,iti,,html-keyboard-response,83,231758,0.0-1.0-113.0,0,0,98,,,,,,15.0,,1.0,,,,,,,,,,,,,,,,,,,,95.0,1.0,,
84,,rl_choice,,html-keyboard-response,84,232504,0.0-1.0-115.0,0,0,98,,744.0,,,50.0,16.0,16.0,1.0,hard,1000.0,1000.0,1.0,60.0,40.0,60.0,20.0,B,A,/static/Simple_RL/Stimuli/Fractals_stims/B.jpg,/static/Simple_RL/Stimuli/Fractals_stims/A.jpg,1.0,60.0,40.0,60.0,20.0,B,A,96.0,0.744,0.0,
85,,rl_choice_confirmation,,html-keyboard-response,85,233263,0.0-1.0-116.0-0.0,0,0,98,,,,,,16.0,,1.0,,,,,,,,,,,,,,,,,,,,96.744,0.756,,
86,,isi,,html-keyboard-response,86,234266,0.0-1.0-118.0,0,0,98,,,,,,16.0,,1.0,,,,,,,,,,,,,,,,,,,,97.5,1.0,,
87,,feedback,,html-keyboard-response,87,235268,0.0-1.0-119.0-0.0,0,0,98,,,,,,16.0,,1.0,,,,,,,,,,,,,,,,,,,,98.5,1.0,,
88,,iti,,html-keyboard-response,88,236271,0.0-1.0-120.0,0,0,98,,,,,,16.0,,1.0,,,,,,,,,,,,,,,,,,,,99.5,1.0,,
89,,rl_choice,,html-keyboard-response,89,236992,0.0-1.0-122.0,0,0,98,,720.0,,,51.0,17.0,17.0,1.0,easy,1000.0,2000.0,0.0,20.0,80.0,40.0,100.0,C,D,/static/Simple_RL/Stimuli/Fractals_stims/C.jpg,/static/Simple_RL/Stimuli/Fractals_stims/D.jpg,0.0,80.0,20.0,100.0,40.0,D,C,100.5,0.72,0.0,
90,,rl_choice_confirmation,,html-keyboard-response,90,237775,0.0-1.0-123.0-0.0,0,0,98,,,,,,17.0,,1.0,,,,,,,,,,,,,,,,,,,,101.22,0.78,,
91,,isi,,html-keyboard-response,91,239780,0.0-1.0-125.0,0,0,98,,,,,,17.0,,1.0,,,,,,,,,,,,,,,,,,,,102.0,2.0,,
92,,feedback,,html-keyboard-response,92,240783,0.0-1.0-126.0-0.0,0,0,98,,,,,,17.0,,1.0,,,,,,,,,,,,,,,,,,,,104.0,1.0,,
93,,iti,,html-keyboard-response,93,241786,0.0-1.0-127.0,0,0,98,,,,,,17.0,,1.0,,,,,,,,,,,,,,,,,,,,105.0,1.0,,
94,,rl_choice,,html-keyboard-response,94,242687,0.0-1.0-129.0,0,0,98,,900.0,,,51.0,18.0,18.0,1.0,easy,2000.0,1000.0,0.0,20.0,80.0,0.0,100.0,C,D,/static/Simple_RL/Stimuli/Fractals_stims/C.jpg,/static/Simple_RL/Stimuli/Fractals_stims/D.jpg,0.0,80.0,20.0,100.0,0.0,D,C,106.0,0.9,0.0,
95,,rl_choice_confirmation,,html-keyboard-response,95,243290,0.0-1.0-130.0-0.0,0,0,98,,,,,,18.0,,1.0,,,,,,,,,,,,,,,,,,,,106.9,0.6,,
96,,isi,,html-keyboard-response,96,244292,0.0-1.0-132.0,0,0,98,,,,,,18.0,,1.0,,,,,,,,,,,,,,,,,,,,107.5,1.0,,
97,,feedback,,html-keyboard-response,97,245299,0.0-1.0-133.0-0.0,0,0,98,,,,,,18.0,,1.0,,,,,,,,,,,,,,,,,,,,108.5,1.0,,
98,,iti,,html-keyboard-response,98,247300,0.0-1.0-134.0,0,0,98,,,,,,18.0,,1.0,,,,,,,,,,,,,,,,,,,,109.5,2.0,,
99,,rl_choice,,html-keyboard-response,99,248327,0.0-1.0-136.0,0,0,98,,1025.0,,,51.0,19.0,19.0,1.0,hard,1500.0,1500.0,0.0,40.0,60.0,60.0,60.0,A,B,/static/Simple_RL/Stimuli/Fractals_stims/A.jpg,/static/Simple_RL/Stimuli/Fractals_stims/B.jpg,0.0,60.0,40.0,60.0,60.0,B,A,111.5,1.025,0.0,
100,,rl_choice_confirmation,,html-keyboard-response,100,248805,0.0-1.0-137.0-0.0,0,0,98,,,,,,19.0,,1.0,,,,,,,,,,,,,,,,,,,,112.525,0.475,,
101,,isi,,html-keyboard-response,101,250309,0.0-1.0-139.0,0,0,98,,,,,,19.0,,1.0,,,,,,,,,,,,,,,,,,,,113.0,1.5,,
102,,feedback,,html-keyboard-response,102,251311,0.0-1.0-140.0-0.0,0,0,98,,,,,,19.0,,1.0,,,,,,,,,,,,,,,,,,,,114.5,1.0,,
103,,iti,,html-keyboard-response,103,252817,0.0-1.0-141.0,0,0,98,,,,,,19.0,,1.0,,,,,,,,,,,,,,,,,,,,115.5,1.5,,
104,,rl_choice,,html-keyboard-response,104,253611,0.0-1.0-143.0,0,0,98,,793.0,,,50.0,20.0,20.0,1.0,easy,1000.0,1000.0,1.0,80.0,20.0,60.0,40.0,D,C,/static/Simple_RL/Stimuli/Fractals_stims/D.jpg,/static/Simple_RL/Stimuli/Fractals_stims/C.jpg,1.0,80.0,20.0,60.0,40.0,D,C,117.0,0.793,0.0,
105,,rl_choice_confirmation,,html-keyboard-response,105,254320,0.0-1.0-144.0-0.0,0,0,98,,,,,,20.0,,1.0,,,,,,,,,,,,,,,,,,,,117.793,0.707,,
106,,isi,,html-keyboard-response,106,255322,0.0-1.0-146.0,0,0,98,,,,,,20.0,,1.0,,,,,,,,,,,,,,,,,,,,118.5,1.0,,
107,,feedback,,html-keyboard-response,107,256325,0.0-1.0-147.0-0.0,0,0,98,,,,,,20.0,,1.0,,,,,,,,,,,,,,,,,,,,119.5,1.0,,
108,,iti,,html-keyboard-response,108,257327,0.0-1.0-148.0,0,0,98,,,,,,20.0,,1.0,,,,,,,,,,,,,,,,,,,,120.5,1.0,,
109,,rl_choice,,html-keyboard-response,109,258160,0.0-1.0-150.0,0,0,98,,830.0,,,50.0,21.0,21.0,1.0,easy,3500.0,1000.0,1.0,80.0,20.0,60.0,20.0,D,C,/static/Simple_RL/Stimuli/Fractals_stims/D.jpg,/static/Simple_RL/Stimuli/Fractals_stims/C.jpg,1.0,80.0,20.0,60.0,20.0,D,C,121.5,0.83,0.0,
110,,rl_choice_confirmation,,html-keyboard-response,110,258831,0.0-1.0-151.0-0.0,0,0,98,,,,,,21.0,,1.0,,,,,,,,,,,,,,,,,,,,122.33,0.67,,
111,,isi,,html-keyboard-response,111,259834,0.0-1.0-153.0,0,0,98,,,,,,21.0,,1.0,,,,,,,,,,,,,,,,,,,,123.0,1.0,,
112,,feedback,,html-keyboard-response,112,260836,0.0-1.0-154.0-0.0,0,0,98,,,,,,21.0,,1.0,,,,,,,,,,,,,,,,,,,,124.0,1.0,,
113,,iti,,html-keyboard-response,113,264341,0.0-1.0-155.0,0,0,98,,,,,,21.0,,1.0,,,,,,,,,,,,,,,,,,,,125.0,3.5,,
114,,rl_choice,,html-keyboard-response,114,265008,0.0-1.0-157.0,0,0,98,,666.0,,,50.0,22.0,22.0,1.0,easy,1500.0,1500.0,1.0,80.0,20.0,80.0,20.0,D,C,/static/Simple_RL/Stimuli/Fractals_stims/D.jpg,/static/Simple_RL/Stimuli/Fractals_stims/C.jpg,1.0,80.0,20.0,80.0,20.0,D,C,128.5,0.666,0.0,
115,,rl_choice_confirmation,,html-keyboard-response,115,265845,0.0-1.0-158.0-0.0,0,0,98,,,,,,22.0,,1.0,,,,,,,,,,,,,,,,,,,,129.166,0.834,,
116,,isi,,html-keyboard-response,116,267349,0.0-1.0-160.0,0,0,98,,,,,,22.0,,1.0,,,,,,,,,,,,,,,,,,,,130.0,1.5,,
117,,feedback,,html-keyboard-response,117,268351,0.0-1.0-161.0-0.0,0,0,98,,,,,,22.0,,1.0,,,,,,,,,,,,,,,,,,,,131.5,1.0,,
118,,iti,,html-keyboard-response,118,269855,0.0-1.0-162.0,0,0,98,,,,,,22.0,,1.0,,,,,,,,,,,,,,,,,,,,132.5,1.5,,
119,,rl_choice,,html-keyboard-response,119,270514,0.0-1.0-164.0,0,0,98,,656.0,,,51.0,23.0,23.0,1.0,easy,2000.0,1500.0,0.0,20.0,80.0,20.0,60.0,C,D,/static/Simple_RL/Stimuli/Fractals_stims/C.jpg,/static/Simple_RL/Stimuli/Fractals_stims/D.jpg,0.0,80.0,20.0,60.0,20.0,D,C,134.0,0.656,0.0,
120,,rl_choice_confirmation,,html-keyboard-response,120,271359,0.0-1.0-165.0-0.0,0,0,98,,,,,,23.0,,1.0,,,,,,,,,,,,,,,,,,,,134.656,0.844,,
121,,isi,,html-keyboard-response,121,272863,0.0-1.0-167.0,0,0,98,,,,,,23.0,,1.0,,,,,,,,,,,,,,,,,,,,135.5,1.5,,
122,,feedback,,html-keyboard-response,122,273868,0.0-1.0-168.0-0.0,0,0,98,,,,,,23.0,,1.0,,,,,,,,,,,,,,,,,,,,137.0,1.0,,
123,,iti,,html-keyboard-response,123,275871,0.0-1.0-169.0,0,0,98,,,,,,23.0,,1.0,,,,,,,,,,,,,,,,,,,,138.0,2.0,,
124,,rl_choice,,html-keyboard-response,124,276859,0.0-1.0-171.0,0,0,98,,986.0,,,50.0,24.0,24.0,1.0,hard,1000.0,1000.0,0.0,40.0,60.0,60.0,80.0,A,B,/static/Simple_RL/Stimuli/Fractals_stims/A.jpg,/static/Simple_RL/Stimuli/Fractals_stims/B.jpg,1.0,40.0,60.0,60.0,80.0,A,B,140.0,0.986,0.0,
125,,rl_choice_confirmation,,html-keyboard-response,125,277376,0.0-1.0-172.0-0.0,0,0,98,,,,,,24.0,,1.0,,,,,,,,,,,,,,,,,,,,140.986,0.514,,
126,,isi,,html-keyboard-response,126,278378,0.0-1.0-174.0,0,0,98,,,,,,24.0,,1.0,,,,,,,,,,,,,,,,,,,,141.5,1.0,,
127,,feedback,,html-keyboard-response,127,279381,0.0-1.0-175.0-0.0,0,0,98,,,,,,24.0,,1.0,,,,,,,,,,,,,,,,,,,,142.5,1.0,,
128,,iti,,html-keyboard-response,128,280385,0.0-1.0-176.0,0,0,98,,,,,,24.0,,1.0,,,,,,,,,,,,,,,,,,,,143.5,1.0,,
129,,rl_choice,,html-keyboard-response,129,281536,0.0-1.0-178.0,0,0,98,,1148.0,,,50.0,25.0,25.0,1.0,easy,1000.0,1500.0,0.0,20.0,80.0,20.0,60.0,C,D,/static/Simple_RL/Stimuli/Fractals_stims/C.jpg,/static/Simple_RL/Stimuli/Fractals_stims/D.jpg,1.0,20.0,80.0,20.0,60.0,C,D,144.5,1.148,0.0,
130,,rl_choice_confirmation,,html-keyboard-response,130,281890,0.0-1.0-179.0-0.0,0,0,98,,,,,,25.0,,1.0,,,,,,,,,,,,,,,,,,,,145.648,0.352,,
131,,isi,,html-keyboard-response,131,283392,0.0-1.0-181.0,0,0,98,,,,,,25.0,,1.0,,,,,,,,,,,,,,,,,,,,146.0,1.5,,
132,,feedback,,html-keyboard-response,132,284394,0.0-1.0-182.0-0.0,0,0,98,,,,,,25.0,,1.0,,,,,,,,,,,,,,,,,,,,147.5,1.0,,
133,,iti,,html-keyboard-response,133,285397,0.0-1.0-183.0,0,0,98,,,,,,25.0,,1.0,,,,,,,,,,,,,,,,,,,,148.5,1.0,,
134,,rl_choice,,html-keyboard-response,134,285859,0.0-1.0-185.0,0,0,98,,461.0,,,51.0,26.0,26.0,1.0,easy,2000.0,1000.0,0.0,20.0,80.0,40.0,100.0,C,D,/static/Simple_RL/Stimuli/Fractals_stims/C.jpg,/static/Simple_RL/Stimuli/Fractals_stims/D.jpg,0.0,80.0,20.0,100.0,40.0,D,C,149.5,0.461,0.0,
135,,rl_choice_confirmation,,html-keyboard-response,135,286901,0.0-1.0-186.0-0.0,0,0,98,,,,,,26.0,,1.0,,,,,,,,,,,,,,,,,,,,149.961,1.039,,
136,,isi,,html-keyboard-response,136,287904,0.0-1.0-188.0,0,0,98,,,,,,26.0,,1.0,,,,,,,,,,,,,,,,,,,,151.0,1.0,,
137,,feedback,,html-keyboard-response,137,288906,0.0-1.0-189.0-0.0,0,0,98,,,,,,26.0,,1.0,,,,,,,,,,,,,,,,,,,,152.0,1.0,,
138,,iti,,html-keyboard-response,138,290911,0.0-1.0-190.0,0,0,98,,,,,,26.0,,1.0,,,,,,,,,,,,,,,,,,,,153.0,2.0,,
139,,rl_choice,,html-keyboard-response,139,291850,0.0-1.0-192.0,0,0,98,,938.0,,,50.0,27.0,27.0,1.0,hard,1000.0,1000.0,1.0,60.0,40.0,60.0,20.0,B,A,/static/Simple_RL/Stimuli/Fractals_stims/B.jpg,/static/Simple_RL/Stimuli/Fractals_stims/A.jpg,1.0,60.0,40.0,60.0,20.0,B,A,155.0,0.938,0.0,
140,,rl_choice_confirmation,,html-keyboard-response,140,292416,0.0-1.0-193.0-0.0,0,0,98,,,,,,27.0,,1.0,,,,,,,,,,,,,,,,,,,,155.938,0.562,,
141,,isi,,html-keyboard-response,141,293418,0.0-1.0-195.0,0,0,98,,,,,,27.0,,1.0,,,,,,,,,,,,,,,,,,,,156.5,1.0,,
142,,feedback,,html-keyboard-response,142,294423,0.0-1.0-196.0-0.0,0,0,98,,,,,,27.0,,1.0,,,,,,,,,,,,,,,,,,,,157.5,1.0,,
143,,iti,,html-keyboard-response,143,295429,0.0-1.0-197.0,0,0,98,,,,,,27.0,,1.0,,,,,,,,,,,,,,,,,,,,158.5,1.0,,
144,,rl_choice,,html-keyboard-response,144,295999,0.0-1.0-199.0,0,0,98,,569.0,,,50.0,28.0,28.0,1.0,easy,1500.0,1500.0,1.0,80.0,20.0,80.0,0.0,D,C,/static/Simple_RL/Stimuli/Fractals_stims/D.jpg,/static/Simple_RL/Stimuli/Fractals_stims/C.jpg,1.0,80.0,20.0,80.0,0.0,D,C,159.5,0.569,0.0,
145,,rl_choice_confirmation,,html-keyboard-response,145,296933,0.0-1.0-200.0-0.0,0,0,98,,,,,,28.0,,1.0,,,,,,,,,,,,,,,,,,,,160.069,0.931,,
146,,isi,,html-keyboard-response,146,298437,0.0-1.0-202.0,0,0,98,,,,,,28.0,,1.0,,,,,,,,,,,,,,,,,,,,161.0,1.5,,
147,,feedback,,html-keyboard-response,147,299440,0.0-1.0-203.0-0.0,0,0,98,,,,,,28.0,,1.0,,,,,,,,,,,,,,,,,,,,162.5,1.0,,
148,,iti,,html-keyboard-response,148,300942,0.0-1.0-204.0,0,0,98,,,,,,28.0,,1.0,,,,,,,,,,,,,,,,,,,,163.5,1.5,,
149,,rl_choice,,html-keyboard-response,149,301671,0.0-1.0-206.0,0,0,98,,728.0,,,51.0,29.0,29.0,1.0,easy,2000.0,2000.0,0.0,20.0,80.0,20.0,80.0,C,D,/static/Simple_RL/Stimuli/Fractals_stims/C.jpg,/static/Simple_RL/Stimuli/Fractals_stims/D.jpg,0.0,80.0,20.0,80.0,20.0,D,C,165.0,0.728,0.0,
150,,rl_choice_confirmation,,html-keyboard-response,150,302448,0.0-1.0-207.0-0.0,0,0,98,,,,,,29.0,,1.0,,,,,,,,,,,,,,,,,,,,165.728,0.772,,
151,,isi,,html-keyboard-response,151,304453,0.0-1.0-209.0,0,0,98,,,,,,29.0,,1.0,,,,,,,,,,,,,,,,,,,,166.5,2.0,,
152,,feedback,,html-keyboard-response,152,305456,0.0-1.0-210.0-0.0,0,0,98,,,,,,29.0,,1.0,,,,,,,,,,,,,,,,,,,,168.5,1.0,,
153,,iti,,html-keyboard-response,153,307461,0.0-1.0-211.0,0,0,98,,,,,,29.0,,1.0,,,,,,,,,,,,,,,,,,,,169.5,2.0,,
154,,rl_choice,,html-keyboard-response,154,308102,0.0-1.0-213.0,0,0,98,,639.0,,,50.0,30.0,30.0,1.0,hard,1500.0,1500.0,1.0,60.0,40.0,60.0,60.0,B,A,/static/Simple_RL/Stimuli/Fractals_stims/B.jpg,/static/Simple_RL/Stimuli/Fractals_stims/A.jpg,1.0,60.0,40.0,60.0,60.0,B,A,171.5,0.639,0.0,
155,,rl_choice_confirmation,,html-keyboard-response,155,308968,0.0-1.0-214.0-0.0,0,0,98,,,,,,30.0,,1.0,,,,,,,,,,,,,,,,,,,,172.139,0.861,,
156,,isi,,html-keyboard-response,156,310469,0.0-1.0-216.0,0,0,98,,,,,,30.0,,1.0,,,,,,,,,,,,,,,,,,,,173.0,1.5,,
157,,feedback,,html-keyboard-response,157,311472,0.0-1.0-217.0-0.0,0,0,98,,,,,,30.0,,1.0,,,,,,,,,,,,,,,,,,,,174.5,1.0,,
158,,iti,,html-keyboard-response,158,312976,0.0-1.0-218.0,0,0,98,,,,,,30.0,,1.0,,,,,,,,,,,,,,,,,,,,175.5,1.5,,
159,,rl_choice,,html-keyboard-response,159,313429,0.0-1.0-220.0,0,0,98,,452.0,,,51.0,31.0,31.0,1.0,easy,3000.0,1000.0,0.0,20.0,80.0,40.0,80.0,C,D,/static/Simple_RL/Stimuli/Fractals_stims/C.jpg,/static/Simple_RL/Stimuli/Fractals_stims/D.jpg,0.0,80.0,20.0,80.0,40.0,D,C,177.0,0.452,0.0,
160,,rl_choice_confirmation,,html-keyboard-response,160,314480,0.0-1.0-221.0-0.0,0,0,98,,,,,,31.0,,1.0,,,,,,,,,,,,,,,,,,,,177.452,1.048,,
161,,isi,,html-keyboard-response,161,315483,0.0-1.0-223.0,0,0,98,,,,,,31.0,,1.0,,,,,,,,,,,,,,,,,,,,178.5,1.0,,
162,,feedback,,html-keyboard-response,162,316485,0.0-1.0-224.0-0.0,0,0,98,,,,,,31.0,,1.0,,,,,,,,,,,,,,,,,,,,179.5,1.0,,
163,,iti,,html-keyboard-response,163,319488,0.0-1.0-225.0,0,0,98,,,,,,31.0,,1.0,,,,,,,,,,,,,,,,,,,,180.5,3.0,,
164,,rl_choice,,html-keyboard-response,164,320076,0.0-1.0-227.0,0,0,98,,587.0,,,50.0,32.0,32.0,1.0,easy,1000.0,1000.0,1.0,80.0,20.0,80.0,20.0,D,C,/static/Simple_RL/Stimuli/Fractals_stims/D.jpg,/static/Simple_RL/Stimuli/Fractals_stims/C.jpg,1.0,80.0,20.0,80.0,20.0,D,C,183.5,0.587,0.0,
165,,rl_choice_confirmation,,html-keyboard-response,165,320992,0.0-1.0-228.0-0.0,0,0,98,,,,,,32.0,,1.0,,,,,,,,,,,,,,,,,,,,184.087,0.913,,
166,,isi,,html-keyboard-response,166,321996,0.0-1.0-230.0,0,0,98,,,,,,32.0,,1.0,,,,,,,,,,,,,,,,,,,,185.0,1.0,,
167,,feedback,,html-keyboard-response,167,323003,0.0-1.0-231.0-0.0,0,0,98,,,,,,32.0,,1.0,,,,,,,,,,,,,,,,,,,,186.0,1.0,,
168,,iti,,html-keyboard-response,168,324005,0.0-1.0-232.0,0,0,98,,,,,,32.0,,1.0,,,,,,,,,,,,,,,,,,,,187.0,1.0,,
169,,rl_choice,,html-keyboard-response,169,324638,0.0-1.0-234.0,0,0,98,,630.0,,,51.0,33.0,33.0,1.0,easy,1000.0,1000.0,0.0,20.0,80.0,40.0,60.0,C,D,/static/Simple_RL/Stimuli/Fractals_stims/C.jpg,/static/Simple_RL/Stimuli/Fractals_stims/D.jpg,0.0,80.0,20.0,60.0,40.0,D,C,188.0,0.63,0.0,
170,,rl_choice_confirmation,,html-keyboard-response,170,325512,0.0-1.0-235.0-0.0,0,0,98,,,,,,33.0,,1.0,,,,,,,,,,,,,,,,,,,,188.63,0.87,,
171,,isi,,html-keyboard-response,171,326517,0.0-1.0-237.0,0,0,98,,,,,,33.0,,1.0,,,,,,,,,,,,,,,,,,,,189.5,1.0,,
172,,feedback,,html-keyboard-response,172,327520,0.0-1.0-238.0-0.0,0,0,98,,,,,,33.0,,1.0,,,,,,,,,,,,,,,,,,,,190.5,1.0,,
173,,iti,,html-keyboard-response,173,328523,0.0-1.0-239.0,0,0,98,,,,,,33.0,,1.0,,,,,,,,,,,,,,,,,,,,191.5,1.0,,
174,,rl_choice,,html-keyboard-response,174,329179,0.0-1.0-241.0,0,0,98,,654.0,,,50.0,34.0,34.0,1.0,hard,1500.0,1000.0,0.0,40.0,60.0,40.0,40.0,A,B,/static/Simple_RL/Stimuli/Fractals_stims/A.jpg,/static/Simple_RL/Stimuli/Fractals_stims/B.jpg,1.0,40.0,60.0,40.0,40.0,A,B,192.5,0.654,0.0,
175,,rl_choice_confirmation,,html-keyboard-response,175,330027,0.0-1.0-242.0-0.0,0,0,98,,,,,,34.0,,1.0,,,,,,,,,,,,,,,,,,,,193.154,0.846,,
176,,isi,,html-keyboard-response,176,331030,0.0-1.0-244.0,0,0,98,,,,,,34.0,,1.0,,,,,,,,,,,,,,,,,,,,194.0,1.0,,
177,,feedback,,html-keyboard-response,177,332032,0.0-1.0-245.0-0.0,0,0,98,,,,,,34.0,,1.0,,,,,,,,,,,,,,,,,,,,195.0,1.0,,
178,,iti,,html-keyboard-response,178,333534,0.0-1.0-246.0,0,0,98,,,,,,34.0,,1.0,,,,,,,,,,,,,,,,,,,,196.0,1.5,,
179,,rl_choice,,html-keyboard-response,179,333916,0.0-1.0-248.0,0,0,98,,381.0,,,51.0,35.0,35.0,1.0,hard,1000.0,3000.0,0.0,40.0,60.0,40.0,40.0,A,B,/static/Simple_RL/Stimuli/Fractals_stims/A.jpg,/static/Simple_RL/Stimuli/Fractals_stims/B.jpg,0.0,60.0,40.0,40.0,40.0,B,A,197.5,0.381,0.0,
180,,rl_choice_confirmation,,html-keyboard-response,180,335038,0.0-1.0-249.0-0.0,0,0,98,,,,,,35.0,,1.0,,,,,,,,,,,,,,,,,,,,197.881,1.119,,
181,,isi,,html-keyboard-response,181,338040,0.0-1.0-251.0,0,0,98,,,,,,35.0,,1.0,,,,,,,,,,,,,,,,,,,,199.0,3.0,,
182,,feedback,,html-keyboard-response,182,339046,0.0-1.0-252.0-0.0,0,0,98,,,,,,35.0,,1.0,,,,,,,,,,,,,,,,,,,,202.0,1.0,,
183,,iti,,html-keyboard-response,183,340048,0.0-1.0-253.0,0,0,98,,,,,,35.0,,1.0,,,,,,,,,,,,,,,,,,,,203.0,1.0,,
184,,rl_choice,,html-keyboard-response,184,340880,0.0-1.0-255.0,0,0,98,,829.0,,,51.0,36.0,36.0,1.0,easy,1000.0,3500.0,0.0,20.0,80.0,0.0,80.0,C,D,/static/Simple_RL/Stimuli/Fractals_stims/C.jpg,/static/Simple_RL/Stimuli/Fractals_stims/D.jpg,0.0,80.0,20.0,80.0,0.0,D,C,204.0,0.829,0.0,
185,,rl_choice_confirmation,,html-keyboard-response,185,341553,0.0-1.0-256.0-0.0,0,0,98,,,,,,36.0,,1.0,,,,,,,,,,,,,,,,,,,,204.829,0.671,,
186,,isi,,html-keyboard-response,186,345056,0.0-1.0-258.0,0,0,98,,,,,,36.0,,1.0,,,,,,,,,,,,,,,,,,,,205.5,3.5,,
187,,feedback,,html-keyboard-response,187,346059,0.0-1.0-259.0-0.0,0,0,98,,,,,,36.0,,1.0,,,,,,,,,,,,,,,,,,,,209.0,1.0,,
188,,iti,,html-keyboard-response,188,347064,0.0-1.0-260.0,0,0,98,,,,,,36.0,,1.0,,,,,,,,,,,,,,,,,,,,210.0,1.0,,
189,,rl_choice,,html-keyboard-response,189,347851,0.0-1.0-262.0,0,0,98,,785.0,,,50.0,37.0,37.0,1.0,hard,2000.0,1500.0,1.0,60.0,40.0,40.0,20.0,B,A,/static/Simple_RL/Stimuli/Fractals_stims/B.jpg,/static/Simple_RL/Stimuli/Fractals_stims/A.jpg,1.0,60.0,40.0,40.0,20.0,B,A,211.0,0.785,0.0,
190,,rl_choice_confirmation,,html-keyboard-response,190,348571,0.0-1.0-263.0-0.0,0,0,98,,,,,,37.0,,1.0,,,,,,,,,,,,,,,,,,,,211.785,0.715,,
191,,isi,,html-keyboard-response,191,350078,0.0-1.0-265.0,0,0,98,,,,,,37.0,,1.0,,,,,,,,,,,,,,,,,,,,212.5,1.5,,
192,,feedback,,html-keyboard-response,192,351083,0.0-1.0-266.0-0.0,0,0,98,,,,,,37.0,,1.0,,,,,,,,,,,,,,,,,,,,214.0,1.0,,
193,,iti,,html-keyboard-response,193,353089,0.0-1.0-267.0,0,0,98,,,,,,37.0,,1.0,,,,,,,,,,,,,,,,,,,,215.0,2.0,,
194,,rl_choice,,html-keyboard-response,194,353645,0.0-1.0-269.0,0,0,98,,555.0,,,50.0,38.0,38.0,1.0,hard,3000.0,1000.0,1.0,60.0,40.0,40.0,40.0,B,A,/static/Simple_RL/Stimuli/Fractals_stims/B.jpg,/static/Simple_RL/Stimuli/Fractals_stims/A.jpg,1.0,60.0,40.0,40.0,40.0,B,A,217.0,0.555,0.0,
195,,rl_choice_confirmation,,html-keyboard-response,195,354593,0.0-1.0-270.0-0.0,0,0,98,,,,,,38.0,,1.0,,,,,,,,,,,,,,,,,,,,217.555,0.945,,
196,,isi,,html-keyboard-response,196,355595,0.0-1.0-272.0,0,0,98,,,,,,38.0,,1.0,,,,,,,,,,,,,,,,,,,,218.5,1.0,,
197,,feedback,,html-keyboard-response,197,356598,0.0-1.0-273.0-0.0,0,0,98,,,,,,38.0,,1.0,,,,,,,,,,,,,,,,,,,,219.5,1.0,,
198,,iti,,html-keyboard-response,198,359601,0.0-1.0-274.0,0,0,98,,,,,,38.0,,1.0,,,,,,,,,,,,,,,,,,,,220.5,3.0,,
199,,rl_choice,,html-keyboard-response,199,360769,0.0-1.0-276.0,0,0,98,,1167.0,,,50.0,39.0,39.0,1.0,easy,3000.0,3000.0,1.0,80.0,20.0,100.0,0.0,D,C,/static/Simple_RL/Stimuli/Fractals_stims/D.jpg,/static/Simple_RL/Stimuli/Fractals_stims/C.jpg,1.0,80.0,20.0,100.0,0.0,D,C,223.5,1.167,0.0,
200,,rl_choice_confirmation,,html-keyboard-response,200,361105,0.0-1.0-277.0-0.0,0,0,98,,,,,,39.0,,1.0,,,,,,,,,,,,,,,,,,,,224.667,0.333,,
201,,isi,,html-keyboard-response,201,364107,0.0-1.0-279.0,0,0,98,,,,,,39.0,,1.0,,,,,,,,,,,,,,,,,,,,225.0,3.0,,
202,,feedback,,html-keyboard-response,202,365112,0.0-1.0-280.0-0.0,0,0,98,,,,,,39.0,,1.0,,,,,,,,,,,,,,,,,,,,228.0,1.0,,
203,,iti,,html-keyboard-response,203,368118,0.0-1.0-281.0,0,0,98,,,,,,39.0,,1.0,,,,,,,,,,,,,,,,,,,,229.0,3.0,,
204,,block_over,,html-keyboard-response,204,387221,0.0-1.0-282.0-0.0,0,0,98,,19101.0,,,83.0,39.0,,,,,,,,,,,,,,,,,,,,,,,,,
205,,start_run,,html-keyboard-response,205,484525,0.0-1.0-282.0-1.0,0,0,98,,97302.0,,,84.0,,,,,,,,,,,,,,,,,,,,,,,,,,
206,,rl_choice,,html-keyboard-response,206,485873,0.0-1.0-283.0,0,0,98,,1347.0,,,51.0,40.0,40.0,2.0,hard,2000.0,1000.0,1.0,60.0,40.0,80.0,40.0,B,A,/static/Simple_RL/Stimuli/Fractals_stims/B.jpg,/static/Simple_RL/Stimuli/Fractals_stims/A.jpg,0.0,40.0,60.0,40.0,80.0,A,B,0.0,1.347,0.0,
207,,rl_choice_confirmation,,html-keyboard-response,207,486028,0.0-1.0-284.0-0.0,0,0,98,,,,,,40.0,,2.0,,,,,,,,,,,,,,,,,,,,1.347,0.153,,
208,,isi,,html-keyboard-response,208,487031,0.0-1.0-286.0,0,0,98,,,,,,40.0,,2.0,,,,,,,,,,,,,,,,,,,,1.5,1.0,,
209,,feedback,,html-keyboard-response,209,488034,0.0-1.0-287.0-0.0,0,0,98,,,,,,40.0,,2.0,,,,,,,,,,,,,,,,,,,,2.5,1.0,,
210,,iti,,html-keyboard-response,210,490040,0.0-1.0-288.0,0,0,98,,,,,,40.0,,2.0,,,,,,,,,,,,,,,,,,,,3.5,2.0,,
211,,rl_choice,,html-keyboard-response,211,490815,0.0-1.0-290.0,0,0,98,,773.0,,,51.0,41.0,41.0,2.0,easy,1000.0,2000.0,0.0,20.0,80.0,20.0,80.0,C,D,/static/Simple_RL/Stimuli/Fractals_stims/C.jpg,/static/Simple_RL/Stimuli/Fractals_stims/D.jpg,0.0,80.0,20.0,80.0,20.0,D,C,5.5,0.773,0.0,
212,,rl_choice_confirmation,,html-keyboard-response,212,491544,0.0-1.0-291.0-0.0,0,0,98,,,,,,41.0,,2.0,,,,,,,,,,,,,,,,,,,,6.273,0.727,,
213,,isi,,html-keyboard-response,213,493547,0.0-1.0-293.0,0,0,98,,,,,,41.0,,2.0,,,,,,,,,,,,,,,,,,,,7.0,2.0,,
214,,feedback,,html-keyboard-response,214,494552,0.0-1.0-294.0-0.0,0,0,98,,,,,,41.0,,2.0,,,,,,,,,,,,,,,,,,,,9.0,1.0,,
215,,iti,,html-keyboard-response,215,495555,0.0-1.0-295.0,0,0,98,,,,,,41.0,,2.0,,,,,,,,,,,,,,,,,,,,10.0,1.0,,
216,,rl_choice,,html-keyboard-response,216,496426,0.0-1.0-297.0,0,0,98,,870.0,,,50.0,42.0,42.0,2.0,easy,3500.0,2000.0,1.0,80.0,20.0,100.0,20.0,D,C,/static/Simple_RL/Stimuli/Fractals_stims/D.jpg,/static/Simple_RL/Stimuli/Fractals_stims/C.jpg,1.0,80.0,20.0,100.0,20.0,D,C,11.0,0.87,0.0,
217,,rl_choice_confirmation,,html-keyboard-response,217,497059,0.0-1.0-298.0-0.0,0,0,98,,,,,,42.0,,2.0,,,,,,,,,,,,,,,,,,,,11.87,0.63,,
218,,isi,,html-keyboard-response,218,499064,0.0-1.0-300.0,0,0,98,,,,,,42.0,,2.0,,,,,,,,,,,,,,,,,,,,12.5,2.0,,
219,,feedback,,html-keyboard-response,219,500067,0.0-1.0-301.0-0.0,0,0,98,,,,,,42.0,,2.0,,,,,,,,,,,,,,,,,,,,14.5,1.0,,
220,,iti,,html-keyboard-response,220,503571,0.0-1.0-302.0,0,0,98,,,,,,42.0,,2.0,,,,,,,,,,,,,,,,,,,,15.5,3.5,,
221,,rl_choice,,html-keyboard-response,221,504382,0.0-1.0-304.0,0,0,98,,810.0,,,51.0,43.0,43.0,2.0,easy,2000.0,1000.0,0.0,20.0,80.0,20.0,80.0,C,D,/static/Simple_RL/Stimuli/Fractals_stims/C.jpg,/static/Simple_RL/Stimuli/Fractals_stims/D.jpg,0.0,80.0,20.0,80.0,20.0,D,C,19.0,0.81,0.0,
222,,rl_choice_confirmation,,html-keyboard-response,222,505074,0.0-1.0-305.0-0.0,0,0,98,,,,,,43.0,,2.0,,,,,,,,,,,,,,,,,,,,19.81,0.69,,
223,,isi,,html-keyboard-response,223,506077,0.0-1.0-307.0,0,0,98,,,,,,43.0,,2.0,,,,,,,,,,,,,,,,,,,,20.5,1.0,,
224,,feedback,,html-keyboard-response,224,507080,0.0-1.0-308.0-0.0,0,0,98,,,,,,43.0,,2.0,,,,,,,,,,,,,,,,,,,,21.5,1.0,,
225,,iti,,html-keyboard-response,225,509085,0.0-1.0-309.0,0,0,98,,,,,,43.0,,2.0,,,,,,,,,,,,,,,,,,,,22.5,2.0,,
226,,rl_choice,,html-keyboard-response,226,509718,0.0-1.0-311.0,0,0,98,,631.0,,,51.0,44.0,44.0,2.0,easy,2000.0,1000.0,0.0,20.0,80.0,40.0,80.0,C,D,/static/Simple_RL/Stimuli/Fractals_stims/C.jpg,/static/Simple_RL/Stimuli/Fractals_stims/D.jpg,0.0,80.0,20.0,80.0,40.0,D,C,24.5,0.631,0.0,
227,,rl_choice_confirmation,,html-keyboard-response,227,510589,0.0-1.0-312.0-0.0,0,0,98,,,,,,44.0,,2.0,,,,,,,,,,,,,,,,,,,,25.131,0.869,,
228,,isi,,html-keyboard-response,228,511595,0.0-1.0-314.0,0,0,98,,,,,,44.0,,2.0,,,,,,,,,,,,,,,,,,,,26.0,1.0,,
229,,feedback,,html-keyboard-response,229,512600,0.0-1.0-315.0-0.0,0,0,98,,,,,,44.0,,2.0,,,,,,,,,,,,,,,,,,,,27.0,1.0,,
230,,iti,,html-keyboard-response,230,514606,0.0-1.0-316.0,0,0,98,,,,,,44.0,,2.0,,,,,,,,,,,,,,,,,,,,28.0,2.0,,
231,,rl_choice,,html-keyboard-response,231,515367,0.0-1.0-318.0,0,0,98,,760.0,,,50.0,45.0,45.0,2.0,easy,1000.0,1000.0,1.0,80.0,20.0,100.0,20.0,D,C,/static/Simple_RL/Stimuli/Fractals_stims/D.jpg,/static/Simple_RL/Stimuli/Fractals_stims/C.jpg,1.0,80.0,20.0,100.0,20.0,D,C,30.0,0.76,0.0,
232,,rl_choice_confirmation,,html-keyboard-response,232,516109,0.0-1.0-319.0-0.0,0,0,98,,,,,,45.0,,2.0,,,,,,,,,,,,,,,,,,,,30.76,0.74,,
233,,isi,,html-keyboard-response,233,517112,0.0-1.0-321.0,0,0,98,,,,,,45.0,,2.0,,,,,,,,,,,,,,,,,,,,31.5,1.0,,
234,,feedback,,html-keyboard-response,234,518115,0.0-1.0-322.0-0.0,0,0,98,,,,,,45.0,,2.0,,,,,,,,,,,,,,,,,,,,32.5,1.0,,
235,,iti,,html-keyboard-response,235,519117,0.0-1.0-323.0,0,0,98,,,,,,45.0,,2.0,,,,,,,,,,,,,,,,,,,,33.5,1.0,,
236,,rl_choice,,html-keyboard-response,236,519737,0.0-1.0-325.0,0,0,98,,619.0,,,51.0,46.0,46.0,2.0,easy,1000.0,1500.0,0.0,20.0,80.0,40.0,80.0,C,D,/static/Simple_RL/Stimuli/Fractals_stims/C.jpg,/static/Simple_RL/Stimuli/Fractals_stims/D.jpg,0.0,80.0,20.0,80.0,40.0,D,C,34.5,0.619,0.0,
237,,rl_choice_confirmation,,html-keyboard-response,237,520622,0.0-1.0-326.0-0.0,0,0,98,,,,,,46.0,,2.0,,,,,,,,,,,,,,,,,,,,35.119,0.881,,
238,,isi,,html-keyboard-response,238,522125,0.0-1.0-328.0,0,0,98,,,,,,46.0,,2.0,,,,,,,,,,,,,,,,,,,,36.0,1.5,,
239,,feedback,,html-keyboard-response,239,523128,0.0-1.0-329.0-0.0,0,0,98,,,,,,46.0,,2.0,,,,,,,,,,,,,,,,,,,,37.5,1.0,,
240,,iti,,html-keyboard-response,240,524131,0.0-1.0-330.0,0,0,98,,,,,,46.0,,2.0,,,,,,,,,,,,,,,,,,,,38.5,1.0,,
241,,rl_choice,,html-keyboard-response,241,524708,0.0-1.0-332.0,0,0,98,,576.0,,,51.0,47.0,47.0,2.0,easy,1000.0,3000.0,0.0,20.0,80.0,0.0,100.0,C,D,/static/Simple_RL/Stimuli/Fractals_stims/C.jpg,/static/Simple_RL/Stimuli/Fractals_stims/D.jpg,0.0,80.0,20.0,100.0,0.0,D,C,39.5,0.576,0.0,
242,,rl_choice_confirmation,,html-keyboard-response,242,525635,0.0-1.0-333.0-0.0,0,0,98,,,,,,47.0,,2.0,,,,,,,,,,,,,,,,,,,,40.076,0.924,,
243,,isi,,html-keyboard-response,243,528638,0.0-1.0-335.0,0,0,98,,,,,,47.0,,2.0,,,,,,,,,,,,,,,,,,,,41.0,3.0,,
244,,feedback,,html-keyboard-response,244,529640,0.0-1.0-336.0-0.0,0,0,98,,,,,,47.0,,2.0,,,,,,,,,,,,,,,,,,,,44.0,1.0,,
245,,iti,,html-keyboard-response,245,530643,0.0-1.0-337.0,0,0,98,,,,,,47.0,,2.0,,,,,,,,,,,,,,,,,,,,45.0,1.0,,
246,,rl_choice,,html-keyboard-response,246,531739,0.0-1.0-339.0,0,0,98,,1094.0,,,51.0,48.0,48.0,2.0,hard,1000.0,1000.0,0.0,40.0,60.0,60.0,60.0,A,B,/static/Simple_RL/Stimuli/Fractals_stims/A.jpg,/static/Simple_RL/Stimuli/Fractals_stims/B.jpg,0.0,60.0,40.0,60.0,60.0,B,A,46.0,1.094,0.0,
247,,rl_choice_confirmation,,html-keyboard-response,247,532147,0.0-1.0-340.0-0.0,0,0,98,,,,,,48.0,,2.0,,,,,,,,,,,,,,,,,,,,47.094,0.406,,
248,,isi,,html-keyboard-response,248,533153,0.0-1.0-342.0,0,0,98,,,,,,48.0,,2.0,,,,,,,,,,,,,,,,,,,,47.5,1.0,,
249,,feedback,,html-keyboard-response,249,534158,0.0-1.0-343.0-0.0,0,0,98,,,,,,48.0,,2.0,,,,,,,,,,,,,,,,,,,,48.5,1.0,,
250,,iti,,html-keyboard-response,250,535160,0.0-1.0-344.0,0,0,98,,,,,,48.0,,2.0,,,,,,,,,,,,,,,,,,,,49.5,1.0,,
251,,rl_choice,,html-keyboard-response,251,535762,0.0-1.0-346.0,0,0,98,,600.0,,,51.0,49.0,49.0,2.0,easy,1500.0,2000.0,0.0,20.0,80.0,40.0,60.0,C,D,/static/Simple_RL/Stimuli/Fractals_stims/C.jpg,/static/Simple_RL/Stimuli/Fractals_stims/D.jpg,0.0,80.0,20.0,60.0,40.0,D,C,50.5,0.6,0.0,
252,,rl_choice_confirmation,,html-keyboard-response,252,536664,0.0-1.0-347.0-0.0,0,0,98,,,,,,49.0,,2.0,,,,,,,,,,,,,,,,,,,,51.1,0.9,,
253,,isi,,html-keyboard-response,253,538670,0.0-1.0-349.0,0,0,98,,,,,,49.0,,2.0,,,,,,,,,,,,,,,,,,,,52.0,2.0,,
254,,feedback,,html-keyboard-response,254,539675,0.0-1.0-350.0-0.0,0,0,98,,,,,,49.0,,2.0,,,,,,,,,,,,,,,,,,,,54.0,1.0,,
255,,iti,,html-keyboard-response,255,541176,0.0-1.0-351.0,0,0,98,,,,,,49.0,,2.0,,,,,,,,,,,,,,,,,,,,55.0,1.5,,
256,,rl_choice,,html-keyboard-response,256,541711,0.0-1.0-353.0,0,0,98,,532.0,,,50.0,50.0,50.0,2.0,easy,1000.0,1000.0,1.0,80.0,20.0,80.0,0.0,D,C,/static/Simple_RL/Stimuli/Fractals_stims/D.jpg,/static/Simple_RL/Stimuli/Fractals_stims/C.jpg,1.0,80.0,20.0,80.0,0.0,D,C,56.5,0.532,0.0,
257,,rl_choice_confirmation,,html-keyboard-response,257,542681,0.0-1.0-354.0-0.0,0,0,98,,,,,,50.0,,2.0,,,,,,,,,,,,,,,,,,,,57.032,0.968,,
258,,isi,,html-keyboard-response,258,543683,0.0-1.0-356.0,0,0,98,,,,,,50.0,,2.0,,,,,,,,,,,,,,,,,,,,58.0,1.0,,
259,,feedback,,html-keyboard-response,259,544685,0.0-1.0-357.0-0.0,0,0,98,,,,,,50.0,,2.0,,,,,,,,,,,,,,,,,,,,59.0,1.0,,
260,,iti,,html-keyboard-response,260,545689,0.0-1.0-358.0,0,0,98,,,,,,50.0,,2.0,,,,,,,,,,,,,,,,,,,,60.0,1.0,,
261,,rl_choice,,html-keyboard-response,261,546223,0.0-1.0-360.0,0,0,98,,533.0,,,51.0,51.0,51.0,2.0,easy,3000.0,1500.0,0.0,20.0,80.0,20.0,80.0,C,D,/static/Simple_RL/Stimuli/Fractals_stims/C.jpg,/static/Simple_RL/Stimuli/Fractals_stims/D.jpg,0.0,80.0,20.0,80.0,20.0,D,C,61.0,0.533,0.0,
262,,rl_choice_confirmation,,html-keyboard-response,262,547193,0.0-1.0-361.0-0.0,0,0,98,,,,,,51.0,,2.0,,,,,,,,,,,,,,,,,,,,61.533,0.967,,
263,,isi,,html-keyboard-response,263,548697,0.0-1.0-363.0,0,0,98,,,,,,51.0,,2.0,,,,,,,,,,,,,,,,,,,,62.5,1.5,,
264,,feedback,,html-keyboard-response,264,549699,0.0-1.0-364.0-0.0,0,0,98,,,,,,51.0,,2.0,,,,,,,,,,,,,,,,,,,,64.0,1.0,,
265,,iti,,html-keyboard-response,265,552702,0.0-1.0-365.0,0,0,98,,,,,,51.0,,2.0,,,,,,,,,,,,,,,,,,,,65.0,3.0,,
266,,rl_choice,,html-keyboard-response,266,553889,0.0-1.0-367.0,0,0,98,,1185.0,,,51.0,52.0,52.0,2.0,hard,1000.0,1000.0,0.0,40.0,60.0,40.0,40.0,A,B,/static/Simple_RL/Stimuli/Fractals_stims/A.jpg,/static/Simple_RL/Stimuli/Fractals_stims/B.jpg,0.0,60.0,40.0,40.0,40.0,B,A,68.0,1.185,0.0,
267,,rl_choice_confirmation,,html-keyboard-response,267,554209,0.0-1.0-368.0-0.0,0,0,98,,,,,,52.0,,2.0,,,,,,,,,,,,,,,,,,,,69.185,0.315,,
268,,isi,,html-keyboard-response,268,555214,0.0-1.0-370.0,0,0,98,,,,,,52.0,,2.0,,,,,,,,,,,,,,,,,,,,69.5,1.0,,
269,,feedback,,html-keyboard-response,269,556217,0.0-1.0-371.0-0.0,0,0,98,,,,,,52.0,,2.0,,,,,,,,,,,,,,,,,,,,70.5,1.0,,
270,,iti,,html-keyboard-response,270,557219,0.0-1.0-372.0,0,0,98,,,,,,52.0,,2.0,,,,,,,,,,,,,,,,,,,,71.5,1.0,,
271,,rl_choice,,html-keyboard-response,271,558097,0.0-1.0-374.0,0,0,98,,875.0,,,51.0,53.0,53.0,2.0,hard,3000.0,1500.0,0.0,40.0,60.0,40.0,40.0,A,B,/static/Simple_RL/Stimuli/Fractals_stims/A.jpg,/static/Simple_RL/Stimuli/Fractals_stims/B.jpg,0.0,60.0,40.0,40.0,40.0,B,A,72.5,0.875,0.0,
272,,rl_choice_confirmation,,html-keyboard-response,272,558723,0.0-1.0-375.0-0.0,0,0,98,,,,,,53.0,,2.0,,,,,,,,,,,,,,,,,,,,73.375,0.625,,
273,,isi,,html-keyboard-response,273,560227,0.0-1.0-377.0,0,0,98,,,,,,53.0,,2.0,,,,,,,,,,,,,,,,,,,,74.0,1.5,,
274,,feedback,,html-keyboard-response,274,561230,0.0-1.0-378.0-0.0,0,0,98,,,,,,53.0,,2.0,,,,,,,,,,,,,,,,,,,,75.5,1.0,,
275,,iti,,html-keyboard-response,275,564233,0.0-1.0-379.0,0,0,98,,,,,,53.0,,2.0,,,,,,,,,,,,,,,,,,,,76.5,3.0,,
276,,rl_choice,,html-keyboard-response,276,564901,0.0-1.0-381.0,0,0,98,,667.0,,,50.0,54.0,54.0,2.0,hard,1500.0,1500.0,0.0,40.0,60.0,20.0,80.0,A,B,/static/Simple_RL/Stimuli/Fractals_stims/A.jpg,/static/Simple_RL/Stimuli/Fractals_stims/B.jpg,1.0,40.0,60.0,20.0,80.0,A,B,79.5,0.667,0.0,
277,,rl_choice_confirmation,,html-keyboard-response,277,565737,0.0-1.0-382.0-0.0,0,0,98,,,,,,54.0,,2.0,,,,,,,,,,,,,,,,,,,,80.167,0.833,,
278,,isi,,html-keyboard-response,278,567241,0.0-1.0-384.0,0,0,98,,,,,,54.0,,2.0,,,,,,,,,,,,,,,,,,,,81.0,1.5,,
279,,feedback,,html-keyboard-response,279,568246,0.0-1.0-385.0-0.0,0,0,98,,,,,,54.0,,2.0,,,,,,,,,,,,,,,,,,,,82.5,1.0,,
280,,iti,,html-keyboard-response,280,569753,0.0-1.0-386.0,0,0,98,,,,,,54.0,,2.0,,,,,,,,,,,,,,,,,,,,83.5,1.5,,
281,,rl_choice,,html-keyboard-response,281,570517,0.0-1.0-388.0,0,0,98,,762.0,,,50.0,55.0,55.0,2.0,easy,1500.0,1500.0,1.0,80.0,20.0,80.0,0.0,D,C,/static/Simple_RL/Stimuli/Fractals_stims/D.jpg,/static/Simple_RL/Stimuli/Fractals_stims/C.jpg,1.0,80.0,20.0,80.0,0.0,D,C,85.0,0.762,0.0,
282,,rl_choice_confirmation,,html-keyboard-response,282,571257,0.0-1.0-389.0-0.0,0,0,98,,,,,,55.0,,2.0,,,,,,,,,,,,,,,,,,,,85.762,0.738,,
283,,isi,,html-keyboard-response,283,572761,0.0-1.0-391.0,0,0,98,,,,,,55.0,,2.0,,,,,,,,,,,,,,,,,,,,86.5,1.5,,
284,,feedback,,html-keyboard-response,284,573766,0.0-1.0-392.0-0.0,0,0,98,,,,,,55.0,,2.0,,,,,,,,,,,,,,,,,,,,88.0,1.0,,
285,,iti,,html-keyboard-response,285,575273,0.0-1.0-393.0,0,0,98,,,,,,55.0,,2.0,,,,,,,,,,,,,,,,,,,,89.0,1.5,,
286,,rl_choice,,html-keyboard-response,286,576211,0.0-1.0-395.0,0,0,98,,937.0,,,51.0,56.0,56.0,2.0,hard,1500.0,2000.0,1.0,60.0,40.0,60.0,60.0,B,A,/static/Simple_RL/Stimuli/Fractals_stims/B.jpg,/static/Simple_RL/Stimuli/Fractals_stims/A.jpg,0.0,40.0,60.0,60.0,60.0,A,B,90.5,0.937,0.0,
287,,rl_choice_confirmation,,html-keyboard-response,287,576777,0.0-1.0-396.0-0.0,0,0,98,,,,,,56.0,,2.0,,,,,,,,,,,,,,,,,,,,91.437,0.563,,
288,,isi,,html-keyboard-response,288,578782,0.0-1.0-398.0,0,0,98,,,,,,56.0,,2.0,,,,,,,,,,,,,,,,,,,,92.0,2.0,,
289,,feedback,,html-keyboard-response,289,579785,0.0-1.0-399.0-0.0,0,0,98,,,,,,56.0,,2.0,,,,,,,,,,,,,,,,,,,,94.0,1.0,,
290,,iti,,html-keyboard-response,290,581289,0.0-1.0-400.0,0,0,98,,,,,,56.0,,2.0,,,,,,,,,,,,,,,,,,,,95.0,1.5,,
291,,rl_choice,,html-keyboard-response,291,582137,0.0-1.0-402.0,0,0,98,,847.0,,,51.0,57.0,57.0,2.0,hard,1500.0,2000.0,1.0,60.0,40.0,60.0,60.0,B,A,/static/Simple_RL/Stimuli/Fractals_stims/B.jpg,/static/Simple_RL/Stimuli/Fractals_stims/A.jpg,0.0,40.0,60.0,60.0,60.0,A,B,96.5,0.847,0.0,
292,,rl_choice_confirmation,,html-keyboard-response,292,582795,0.0-1.0-403.0-0.0,0,0,98,,,,,,57.0,,2.0,,,,,,,,,,,,,,,,,,,,97.347,0.653,,
293,,isi,,html-keyboard-response,293,584798,0.0-1.0-405.0,0,0,98,,,,,,57.0,,2.0,,,,,,,,,,,,,,,,,,,,98.0,2.0,,
294,,feedback,,html-keyboard-response,294,585801,0.0-1.0-406.0-0.0,0,0,98,,,,,,57.0,,2.0,,,,,,,,,,,,,,,,,,,,100.0,1.0,,
295,,iti,,html-keyboard-response,295,587305,0.0-1.0-407.0,0,0,98,,,,,,57.0,,2.0,,,,,,,,,,,,,,,,,,,,101.0,1.5,,
296,,rl_choice,,html-keyboard-response,296,588099,0.0-1.0-409.0,0,0,98,,793.0,,,51.0,58.0,58.0,2.0,easy,1000.0,2000.0,0.0,20.0,80.0,0.0,60.0,C,D,/static/Simple_RL/Stimuli/Fractals_stims/C.jpg,/static/Simple_RL/Stimuli/Fractals_stims/D.jpg,0.0,80.0,20.0,60.0,0.0,D,C,102.5,0.793,0.0,
297,,rl_choice_confirmation,,html-keyboard-response,297,588809,0.0-1.0-410.0-0.0,0,0,98,,,,,,58.0,,2.0,,,,,,,,,,,,,,,,,,,,103.293,0.707,,
298,,isi,,html-keyboard-response,298,590815,0.0-1.0-412.0,0,0,98,,,,,,58.0,,2.0,,,,,,,,,,,,,,,,,,,,104.0,2.0,,
299,,feedback,,html-keyboard-response,299,591817,0.0-1.0-413.0-0.0,0,0,98,,,,,,58.0,,2.0,,,,,,,,,,,,,,,,,,,,106.0,1.0,,
300,,iti,,html-keyboard-response,300,592820,0.0-1.0-414.0,0,0,98,,,,,,58.0,,2.0,,,,,,,,,,,,,,,,,,,,107.0,1.0,,
301,,rl_choice,,html-keyboard-response,301,593468,0.0-1.0-416.0,0,0,98,,647.0,,,50.0,59.0,59.0,2.0,easy,1000.0,1000.0,1.0,80.0,20.0,80.0,0.0,D,C,/static/Simple_RL/Stimuli/Fractals_stims/D.jpg,/static/Simple_RL/Stimuli/Fractals_stims/C.jpg,1.0,80.0,20.0,80.0,0.0,D,C,108.0,0.647,0.0,
302,,rl_choice_confirmation,,html-keyboard-response,302,594324,0.0-1.0-417.0-0.0,0,0,98,,,,,,59.0,,2.0,,,,,,,,,,,,,,,,,,,,108.647,0.853,,
303,,isi,,html-keyboard-response,303,595327,0.0-1.0-419.0,0,0,98,,,,,,59.0,,2.0,,,,,,,,,,,,,,,,,,,,109.5,1.0,,
304,,feedback,,html-keyboard-response,304,596329,0.0-1.0-420.0-0.0,0,0,98,,,,,,59.0,,2.0,,,,,,,,,,,,,,,,,,,,110.5,1.0,,
305,,iti,,html-keyboard-response,305,597332,0.0-1.0-421.0,0,0,98,,,,,,59.0,,2.0,,,,,,,,,,,,,,,,,,,,111.5,1.0,,
306,,rl_choice,,html-keyboard-response,306,598470,0.0-1.0-423.0,0,0,98,,1136.0,,,50.0,60.0,60.0,2.0,easy,3000.0,1500.0,1.0,80.0,20.0,80.0,20.0,D,C,/static/Simple_RL/Stimuli/Fractals_stims/D.jpg,/static/Simple_RL/Stimuli/Fractals_stims/C.jpg,1.0,80.0,20.0,80.0,20.0,D,C,112.5,1.136,0.0,
307,,rl_choice_confirmation,,html-keyboard-response,307,598836,0.0-1.0-424.0-0.0,0,0,98,,,,,,60.0,,2.0,,,,,,,,,,,,,,,,,,,,113.636,0.364,,
308,,isi,,html-keyboard-response,308,600340,0.0-1.0-426.0,0,0,98,,,,,,60.0,,2.0,,,,,,,,,,,,,,,,,,,,114.0,1.5,,
309,,feedback,,html-keyboard-response,309,601343,0.0-1.0-427.0-0.0,0,0,98,,,,,,60.0,,2.0,,,,,,,,,,,,,,,,,,,,115.5,1.0,,
310,,iti,,html-keyboard-response,310,604345,0.0-1.0-428.0,0,0,98,,,,,,60.0,,2.0,,,,,,,,,,,,,,,,,,,,116.5,3.0,,
311,,rl_choice,,html-keyboard-response,311,605706,0.0-1.0-430.0,0,0,98,,1358.0,,,51.0,61.0,61.0,2.0,hard,2000.0,1500.0,1.0,60.0,40.0,60.0,40.0,B,A,/static/Simple_RL/Stimuli/Fractals_stims/B.jpg,/static/Simple_RL/Stimuli/Fractals_stims/A.jpg,0.0,40.0,60.0,40.0,60.0,A,B,119.5,1.358,0.0,
312,,rl_choice_confirmation,,html-keyboard-response,312,605849,0.0-1.0-431.0-0.0,0,0,98,,,,,,61.0,,2.0,,,,,,,,,,,,,,,,,,,,120.858,0.142,,
313,,isi,,html-keyboard-response,313,607353,0.0-1.0-433.0,0,0,98,,,,,,61.0,,2.0,,,,,,,,,,,,,,,,,,,,121.0,1.5,,
314,,feedback,,html-keyboard-response,314,608356,0.0-1.0-434.0-0.0,0,0,98,,,,,,61.0,,2.0,,,,,,,,,,,,,,,,,,,,122.5,1.0,,
315,,iti,,html-keyboard-response,315,610361,0.0-1.0-435.0,0,0,98,,,,,,61.0,,2.0,,,,,,,,,,,,,,,,,,,,123.5,2.0,,
316,,rl_choice,,html-keyboard-response,316,610937,0.0-1.0-437.0,0,0,98,,573.0,,,50.0,62.0,62.0,2.0,easy,1500.0,3000.0,1.0,80.0,20.0,60.0,40.0,D,C,/static/Simple_RL/Stimuli/Fractals_stims/D.jpg,/static/Simple_RL/Stimuli/Fractals_stims/C.jpg,1.0,80.0,20.0,60.0,40.0,D,C,125.5,0.573,0.0,
317,,rl_choice_confirmation,,html-keyboard-response,317,611865,0.0-1.0-438.0-0.0,0,0,98,,,,,,62.0,,2.0,,,,,,,,,,,,,,,,,,,,126.073,0.927,,
318,,isi,,html-keyboard-response,318,614869,0.0-1.0-440.0,0,0,98,,,,,,62.0,,2.0,,,,,,,,,,,,,,,,,,,,127.0,3.0,,
319,,feedback,,html-keyboard-response,319,615876,0.0-1.0-441.0-0.0,0,0,98,,,,,,62.0,,2.0,,,,,,,,,,,,,,,,,,,,130.0,1.0,,
320,,iti,,html-keyboard-response,320,617380,0.0-1.0-442.0,0,0,98,,,,,,62.0,,2.0,,,,,,,,,,,,,,,,,,,,131.0,1.5,,
321,,rl_choice,,html-keyboard-response,321,618350,0.0-1.0-444.0,0,0,98,,967.0,,,51.0,63.0,63.0,2.0,hard,3000.0,3000.0,0.0,40.0,60.0,60.0,80.0,A,B,/static/Simple_RL/Stimuli/Fractals_stims/A.jpg,/static/Simple_RL/Stimuli/Fractals_stims/B.jpg,0.0,60.0,40.0,80.0,60.0,B,A,132.5,0.967,0.0,
322,,rl_choice_confirmation,,html-keyboard-response,322,618884,0.0-1.0-445.0-0.0,0,0,98,,,,,,63.0,,2.0,,,,,,,,,,,,,,,,,,,,133.467,0.533,,
323,,isi,,html-keyboard-response,323,621887,0.0-1.0-447.0,0,0,98,,,,,,63.0,,2.0,,,,,,,,,,,,,,,,,,,,134.0,3.0,,
324,,feedback,,html-keyboard-response,324,622890,0.0-1.0-448.0-0.0,0,0,98,,,,,,63.0,,2.0,,,,,,,,,,,,,,,,,,,,137.0,1.0,,
325,,iti,,html-keyboard-response,325,625892,0.0-1.0-449.0,0,0,98,,,,,,63.0,,2.0,,,,,,,,,,,,,,,,,,,,138.0,3.0,,
326,,rl_choice,,html-keyboard-response,326,626595,0.0-1.0-451.0,0,0,98,,700.0,,,50.0,64.0,64.0,2.0,easy,2000.0,3500.0,1.0,80.0,20.0,60.0,0.0,D,C,/static/Simple_RL/Stimuli/Fractals_stims/D.jpg,/static/Simple_RL/Stimuli/Fractals_stims/C.jpg,1.0,80.0,20.0,60.0,0.0,D,C,141.0,0.7,0.0,
327,,rl_choice_confirmation,,html-keyboard-response,327,627397,0.0-1.0-452.0-0.0,0,0,98,,,,,,64.0,,2.0,,,,,,,,,,,,,,,,,,,,141.7,0.8,,
328,,isi,,html-keyboard-response,328,630900,0.0-1.0-454.0,0,0,98,,,,,,64.0,,2.0,,,,,,,,,,,,,,,,,,,,142.5,3.5,,
329,,feedback,,html-keyboard-response,329,631903,0.0-1.0-455.0-0.0,0,0,98,,,,,,64.0,,2.0,,,,,,,,,,,,,,,,,,,,146.0,1.0,,
330,,iti,,html-keyboard-response,330,633908,0.0-1.0-456.0,0,0,98,,,,,,64.0,,2.0,,,,,,,,,,,,,,,,,,,,147.0,2.0,,
331,,rl_choice,,html-keyboard-response,331,634547,0.0-1.0-458.0,0,0,98,,636.0,,,51.0,65.0,65.0,2.0,hard,1000.0,3000.0,0.0,40.0,60.0,40.0,40.0,A,B,/static/Simple_RL/Stimuli/Fractals_stims/A.jpg,/static/Simple_RL/Stimuli/Fractals_stims/B.jpg,0.0,60.0,40.0,40.0,40.0,B,A,149.0,0.636,0.0,
332,,rl_choice_confirmation,,html-keyboard-response,332,635415,0.0-1.0-459.0-0.0,0,0,98,,,,,,65.0,,2.0,,,,,,,,,,,,,,,,,,,,149.636,0.864,,
333,,isi,,html-keyboard-response,333,638421,0.0-1.0-461.0,0,0,98,,,,,,65.0,,2.0,,,,,,,,,,,,,,,,,,,,150.5,3.0,,
334,,feedback,,html-keyboard-response,334,639425,0.0-1.0-462.0-0.0,0,0,98,,,,,,65.0,,2.0,,,,,,,,,,,,,,,,,,,,153.5,1.0,,
335,,iti,,html-keyboard-response,335,640430,0.0-1.0-463.0,0,0,98,,,,,,65.0,,2.0,,,,,,,,,,,,,,,,,,,,154.5,1.0,,
336,,rl_choice,,html-keyboard-response,336,641475,0.0-1.0-465.0,0,0,98,,1044.0,,,51.0,66.0,66.0,2.0,hard,1000.0,1000.0,1.0,60.0,40.0,80.0,60.0,B,A,/static/Simple_RL/Stimuli/Fractals_stims/B.jpg,/static/Simple_RL/Stimuli/Fractals_stims/A.jpg,0.0,40.0,60.0,60.0,80.0,A,B,155.5,1.044,0.0,
337,,rl_choice_confirmation,,html-keyboard-response,337,641935,0.0-1.0-466.0-0.0,0,0,98,,,,,,66.0,,2.0,,,,,,,,,,,,,,,,,,,,156.544,0.456,,
338,,isi,,html-keyboard-response,338,642938,0.0-1.0-468.0,0,0,98,,,,,,66.0,,2.0,,,,,,,,,,,,,,,,,,,,157.0,1.0,,
339,,feedback,,html-keyboard-response,339,643941,0.0-1.0-469.0-0.0,0,0,98,,,,,,66.0,,2.0,,,,,,,,,,,,,,,,,,,,158.0,1.0,,
340,,iti,,html-keyboard-response,340,644943,0.0-1.0-470.0,0,0,98,,,,,,66.0,,2.0,,,,,,,,,,,,,,,,,,,,159.0,1.0,,
341,,rl_choice,,html-keyboard-response,341,645676,0.0-1.0-472.0,0,0,98,,731.0,,,50.0,67.0,67.0,2.0,hard,1000.0,1000.0,0.0,40.0,60.0,40.0,80.0,A,B,/static/Simple_RL/Stimuli/Fractals_stims/A.jpg,/static/Simple_RL/Stimuli/Fractals_stims/B.jpg,1.0,40.0,60.0,40.0,80.0,A,B,160.0,0.731,0.0,
342,,rl_choice_confirmation,,html-keyboard-response,342,646447,0.0-1.0-473.0-0.0,0,0,98,,,,,,67.0,,2.0,,,,,,,,,,,,,,,,,,,,160.731,0.769,,
343,,isi,,html-keyboard-response,343,647450,0.0-1.0-475.0,0,0,98,,,,,,67.0,,2.0,,,,,,,,,,,,,,,,,,,,161.5,1.0,,
344,,feedback,,html-keyboard-response,344,648453,0.0-1.0-476.0-0.0,0,0,98,,,,,,67.0,,2.0,,,,,,,,,,,,,,,,,,,,162.5,1.0,,
345,,iti,,html-keyboard-response,345,649455,0.0-1.0-477.0,0,0,98,,,,,,67.0,,2.0,,,,,,,,,,,,,,,,,,,,163.5,1.0,,
346,,rl_choice,,html-keyboard-response,346,650057,0.0-1.0-479.0,0,0,98,,600.0,,,50.0,68.0,68.0,2.0,easy,1500.0,1500.0,1.0,80.0,20.0,100.0,40.0,D,C,/static/Simple_RL/Stimuli/Fractals_stims/D.jpg,/static/Simple_RL/Stimuli/Fractals_stims/C.jpg,1.0,80.0,20.0,100.0,40.0,D,C,164.5,0.6,0.0,
347,,rl_choice_confirmation,,html-keyboard-response,347,650959,0.0-1.0-480.0-0.0,0,0,98,,,,,,68.0,,2.0,,,,,,,,,,,,,,,,,,,,165.1,0.9,,
348,,isi,,html-keyboard-response,348,652463,0.0-1.0-482.0,0,0,98,,,,,,68.0,,2.0,,,,,,,,,,,,,,,,,,,,166.0,1.5,,
349,,feedback,,html-keyboard-response,349,653466,0.0-1.0-483.0-0.0,0,0,98,,,,,,68.0,,2.0,,,,,,,,,,,,,,,,,,,,167.5,1.0,,
350,,iti,,html-keyboard-response,350,654970,0.0-1.0-484.0,0,0,98,,,,,,68.0,,2.0,,,,,,,,,,,,,,,,,,,,168.5,1.5,,
351,,rl_choice,,html-keyboard-response,351,655449,0.0-1.0-486.0,0,0,98,,478.0,,,50.0,69.0,69.0,2.0,hard,2000.0,1000.0,0.0,40.0,60.0,60.0,60.0,A,B,/static/Simple_RL/Stimuli/Fractals_stims/A.jpg,/static/Simple_RL/Stimuli/Fractals_stims/B.jpg,1.0,40.0,60.0,60.0,60.0,A,B,170.0,0.478,0.0,
352,,rl_choice_confirmation,,html-keyboard-response,352,656474,0.0-1.0-487.0-0.0,0,0,98,,,,,,69.0,,2.0,,,,,,,,,,,,,,,,,,,,170.478,1.022,,
353,,isi,,html-keyboard-response,353,657477,0.0-1.0-489.0,0,0,98,,,,,,69.0,,2.0,,,,,,,,,,,,,,,,,,,,171.5,1.0,,
354,,feedback,,html-keyboard-response,354,658479,0.0-1.0-490.0-0.0,0,0,98,,,,,,69.0,,2.0,,,,,,,,,,,,,,,,,,,,172.5,1.0,,
355,,iti,,html-keyboard-response,355,660485,0.0-1.0-491.0,0,0,98,,,,,,69.0,,2.0,,,,,,,,,,,,,,,,,,,,173.5,2.0,,
356,,rl_choice,,html-keyboard-response,356,661367,0.0-1.0-493.0,0,0,98,,881.0,,,51.0,70.0,70.0,2.0,hard,1000.0,3500.0,1.0,60.0,40.0,80.0,20.0,B,A,/static/Simple_RL/Stimuli/Fractals_stims/B.jpg,/static/Simple_RL/Stimuli/Fractals_stims/A.jpg,0.0,40.0,60.0,20.0,80.0,A,B,175.5,0.881,0.0,
357,,rl_choice_confirmation,,html-keyboard-response,357,661991,0.0-1.0-494.0-0.0,0,0,98,,,,,,70.0,,2.0,,,,,,,,,,,,,,,,,,,,176.381,0.619,,
358,,isi,,html-keyboard-response,358,665493,0.0-1.0-496.0,0,0,98,,,,,,70.0,,2.0,,,,,,,,,,,,,,,,,,,,177.0,3.5,,
359,,feedback,,html-keyboard-response,359,666500,0.0-1.0-497.0-0.0,0,0,98,,,,,,70.0,,2.0,,,,,,,,,,,,,,,,,,,,180.5,1.0,,
360,,iti,,html-keyboard-response,360,667504,0.0-1.0-498.0,0,0,98,,,,,,70.0,,2.0,,,,,,,,,,,,,,,,,,,,181.5,1.0,,
361,,rl_choice,,html-keyboard-response,361,668203,0.0-1.0-500.0,0,0,98,,698.0,,,50.0,71.0,71.0,2.0,easy,2000.0,1000.0,1.0,80.0,20.0,100.0,20.0,D,C,/static/Simple_RL/Stimuli/Fractals_stims/D.jpg,/static/Simple_RL/Stimuli/Fractals_stims/C.jpg,1.0,80.0,20.0,100.0,20.0,D,C,182.5,0.698,0.0,
362,,rl_choice_confirmation,,html-keyboard-response,362,669008,0.0-1.0-501.0-0.0,0,0,98,,,,,,71.0,,2.0,,,,,,,,,,,,,,,,,,,,183.198,0.802,,
363,,isi,,html-keyboard-response,363,670010,0.0-1.0-503.0,0,0,98,,,,,,71.0,,2.0,,,,,,,,,,,,,,,,,,,,184.0,1.0,,
364,,feedback,,html-keyboard-response,364,671016,0.0-1.0-504.0-0.0,0,0,98,,,,,,71.0,,2.0,,,,,,,,,,,,,,,,,,,,185.0,1.0,,
365,,iti,,html-keyboard-response,365,673021,0.0-1.0-505.0,0,0,98,,,,,,71.0,,2.0,,,,,,,,,,,,,,,,,,,,186.0,2.0,,
366,,rl_choice,,html-keyboard-response,366,673862,0.0-1.0-507.0,0,0,98,,839.0,,,51.0,72.0,72.0,2.0,easy,1500.0,1000.0,0.0,20.0,80.0,20.0,80.0,C,D,/static/Simple_RL/Stimuli/Fractals_stims/C.jpg,/static/Simple_RL/Stimuli/Fractals_stims/D.jpg,0.0,80.0,20.0,80.0,20.0,D,C,188.0,0.839,0.0,
367,,rl_choice_confirmation,,html-keyboard-response,367,674528,0.0-1.0-508.0-0.0,0,0,98,,,,,,72.0,,2.0,,,,,,,,,,,,,,,,,,,,188.839,0.661,,
368,,isi,,html-keyboard-response,368,675530,0.0-1.0-510.0,0,0,98,,,,,,72.0,,2.0,,,,,,,,,,,,,,,,,,,,189.5,1.0,,
369,,feedback,,html-keyboard-response,369,676533,0.0-1.0-511.0-0.0,0,0,98,,,,,,72.0,,2.0,,,,,,,,,,,,,,,,,,,,190.5,1.0,,
370,,iti,,html-keyboard-response,370,678035,0.0-1.0-512.0,0,0,98,,,,,,72.0,,2.0,,,,,,,,,,,,,,,,,,,,191.5,1.5,,
371,,rl_choice,,html-keyboard-response,371,678962,0.0-1.0-514.0,0,0,98,,925.0,,,51.0,73.0,73.0,2.0,hard,1500.0,1500.0,0.0,40.0,60.0,40.0,80.0,A,B,/static/Simple_RL/Stimuli/Fractals_stims/A.jpg,/static/Simple_RL/Stimuli/Fractals_stims/B.jpg,0.0,60.0,40.0,80.0,40.0,B,A,193.0,0.925,0.0,
372,,rl_choice_confirmation,,html-keyboard-response,372,679538,0.0-1.0-515.0-0.0,0,0,98,,,,,,73.0,,2.0,,,,,,,,,,,,,,,,,,,,193.925,0.575,,
373,,isi,,html-keyboard-response,373,681040,0.0-1.0-517.0,0,0,98,,,,,,73.0,,2.0,,,,,,,,,,,,,,,,,,,,194.5,1.5,,
374,,feedback,,html-keyboard-response,374,682042,0.0-1.0-518.0-0.0,0,0,98,,,,,,73.0,,2.0,,,,,,,,,,,,,,,,,,,,196.0,1.0,,
375,,iti,,html-keyboard-response,375,683546,0.0-1.0-519.0,0,0,98,,,,,,73.0,,2.0,,,,,,,,,,,,,,,,,,,,197.0,1.5,,
376,,rl_choice,,html-keyboard-response,376,684128,0.0-1.0-521.0,0,0,98,,580.0,,,50.0,74.0,74.0,2.0,hard,2000.0,1000.0,1.0,60.0,40.0,80.0,40.0,B,A,/static/Simple_RL/Stimuli/Fractals_stims/B.jpg,/static/Simple_RL/Stimuli/Fractals_stims/A.jpg,1.0,60.0,40.0,80.0,40.0,B,A,198.5,0.58,0.0,
377,,rl_choice_confirmation,,html-keyboard-response,377,685050,0.0-1.0-522.0-0.0,0,0,98,,,,,,74.0,,2.0,,,,,,,,,,,,,,,,,,,,199.08,0.92,,
378,,isi,,html-keyboard-response,378,686053,0.0-1.0-524.0,0,0,98,,,,,,74.0,,2.0,,,,,,,,,,,,,,,,,,,,200.0,1.0,,
379,,feedback,,html-keyboard-response,379,687055,0.0-1.0-525.0-0.0,0,0,98,,,,,,74.0,,2.0,,,,,,,,,,,,,,,,,,,,201.0,1.0,,
380,,iti,,html-keyboard-response,380,689061,0.0-1.0-526.0,0,0,98,,,,,,74.0,,2.0,,,,,,,,,,,,,,,,,,,,202.0,2.0,,
381,,rl_choice,,html-keyboard-response,381,689534,0.0-1.0-528.0,0,0,98,,470.0,,,50.0,75.0,75.0,2.0,hard,1000.0,1500.0,1.0,60.0,40.0,80.0,40.0,B,A,/static/Simple_RL/Stimuli/Fractals_stims/B.jpg,/static/Simple_RL/Stimuli/Fractals_stims/A.jpg,1.0,60.0,40.0,80.0,40.0,B,A,204.0,0.47,0.0,
382,,rl_choice_confirmation,,html-keyboard-response,382,690566,0.0-1.0-529.0-0.0,0,0,98,,,,,,75.0,,2.0,,,,,,,,,,,,,,,,,,,,204.47,1.03,,
383,,isi,,html-keyboard-response,383,692071,0.0-1.0-531.0,0,0,98,,,,,,75.0,,2.0,,,,,,,,,,,,,,,,,,,,205.5,1.5,,
384,,feedback,,html-keyboard-response,384,693077,0.0-1.0-532.0-0.0,0,0,98,,,,,,75.0,,2.0,,,,,,,,,,,,,,,,,,,,207.0,1.0,,
385,,iti,,html-keyboard-response,385,694080,0.0-1.0-533.0,0,0,98,,,,,,75.0,,2.0,,,,,,,,,,,,,,,,,,,,208.0,1.0,,
386,,rl_choice,,html-keyboard-response,386,694875,0.0-1.0-535.0,0,0,98,,794.0,,,51.0,76.0,76.0,2.0,hard,3500.0,1000.0,0.0,40.0,60.0,40.0,60.0,A,B,/static/Simple_RL/Stimuli/Fractals_stims/A.jpg,/static/Simple_RL/Stimuli/Fractals_stims/B.jpg,0.0,60.0,40.0,60.0,40.0,B,A,209.0,0.794,0.0,
387,,rl_choice_confirmation,,html-keyboard-response,387,695584,0.0-1.0-536.0-0.0,0,0,98,,,,,,76.0,,2.0,,,,,,,,,,,,,,,,,,,,209.794,0.706,,
388,,isi,,html-keyboard-response,388,696587,0.0-1.0-538.0,0,0,98,,,,,,76.0,,2.0,,,,,,,,,,,,,,,,,,,,210.5,1.0,,
389,,feedback,,html-keyboard-response,389,697594,0.0-1.0-539.0-0.0,0,0,98,,,,,,76.0,,2.0,,,,,,,,,,,,,,,,,,,,211.5,1.0,,
390,,iti,,html-keyboard-response,390,701099,0.0-1.0-540.0,0,0,98,,,,,,76.0,,2.0,,,,,,,,,,,,,,,,,,,,212.5,3.5,,
391,,rl_choice,,html-keyboard-response,391,701915,0.0-1.0-542.0,0,0,98,,815.0,,,50.0,77.0,77.0,2.0,easy,1000.0,1000.0,1.0,80.0,20.0,60.0,0.0,D,C,/static/Simple_RL/Stimuli/Fractals_stims/D.jpg,/static/Simple_RL/Stimuli/Fractals_stims/C.jpg,1.0,80.0,20.0,60.0,0.0,D,C,216.0,0.815,0.0,
392,,rl_choice_confirmation,,html-keyboard-response,392,702603,0.0-1.0-543.0-0.0,0,0,98,,,,,,77.0,,2.0,,,,,,,,,,,,,,,,,,,,216.815,0.685,,
393,,isi,,html-keyboard-response,393,703605,0.0-1.0-545.0,0,0,98,,,,,,77.0,,2.0,,,,,,,,,,,,,,,,,,,,217.5,1.0,,
394,,feedback,,html-keyboard-response,394,704611,0.0-1.0-546.0-0.0,0,0,98,,,,,,77.0,,2.0,,,,,,,,,,,,,,,,,,,,218.5,1.0,,
395,,iti,,html-keyboard-response,395,705616,0.0-1.0-547.0,0,0,98,,,,,,77.0,,2.0,,,,,,,,,,,,,,,,,,,,219.5,1.0,,
396,,rl_choice,,html-keyboard-response,396,706631,0.0-1.0-549.0,0,0,98,,1013.0,,,50.0,78.0,78.0,2.0,hard,1500.0,2000.0,1.0,60.0,40.0,60.0,20.0,B,A,/static/Simple_RL/Stimuli/Fractals_stims/B.jpg,/static/Simple_RL/Stimuli/Fractals_stims/A.jpg,1.0,60.0,40.0,60.0,20.0,B,A,220.5,1.013,0.0,
397,,rl_choice_confirmation,,html-keyboard-response,397,707120,0.0-1.0-550.0-0.0,0,0,98,,,,,,78.0,,2.0,,,,,,,,,,,,,,,,,,,,221.513,0.487,,
398,,isi,,html-keyboard-response,398,709125,0.0-1.0-552.0,0,0,98,,,,,,78.0,,2.0,,,,,,,,,,,,,,,,,,,,222.0,2.0,,
399,,feedback,,html-keyboard-response,399,710128,0.0-1.0-553.0-0.0,0,0,98,,,,,,78.0,,2.0,,,,,,,,,,,,,,,,,,,,224.0,1.0,,
400,,iti,,html-keyboard-response,400,711632,0.0-1.0-554.0,0,0,98,,,,,,78.0,,2.0,,,,,,,,,,,,,,,,,,,,225.0,1.5,,
401,,rl_choice,,html-keyboard-response,401,712418,0.0-1.0-556.0,0,0,98,,784.0,,,50.0,79.0,79.0,2.0,hard,1000.0,2000.0,1.0,60.0,40.0,40.0,60.0,B,A,/static/Simple_RL/Stimuli/Fractals_stims/B.jpg,/static/Simple_RL/Stimuli/Fractals_stims/A.jpg,1.0,60.0,40.0,40.0,60.0,B,A,226.5,0.784,0.0,
402,,rl_choice_confirmation,,html-keyboard-response,402,713136,0.0-1.0-557.0-0.0,0,0,98,,,,,,79.0,,2.0,,,,,,,,,,,,,,,,,,,,227.284,0.716,,
403,,isi,,html-keyboard-response,403,715142,0.0-1.0-559.0,0,0,98,,,,,,79.0,,2.0,,,,,,,,,,,,,,,,,,,,228.0,2.0,,
404,,feedback,,html-keyboard-response,404,716144,0.0-1.0-560.0-0.0,0,0,98,,,,,,79.0,,2.0,,,,,,,,,,,,,,,,,,,,230.0,1.0,,
405,,iti,,html-keyboard-response,405,717147,0.0-1.0-561.0,0,0,98,,,,,,79.0,,2.0,,,,,,,,,,,,,,,,,,,,231.0,1.0,,3.92
406,,final_tally,,html-keyboard-response,406,727956,0.0-2.0,0,0,98,,10807.0,,,50.0,,,,,,,,,,,,,,,,,,,,,,,,,,
407,,,,html-keyboard-response,407,867272,0.0-3.0,0,0,98,,139297.0,,,83.0,,,,,,,,,,,,,,,,,,,,,,,,,,
