,success,ttype,start_time,trial_type,trial_index,time_elapsed,internal_node_id,warning,missed_checkup,PID,view_history,rt,responses,repeat_instructions,key_press,index,trial_num,block,condition,iti,isi,high_group_on_left,left_group_value,right_group_value,left_item_value,right_item_value,left_img,right_img,left_img_path,right_img_path,left_chosen,chosen_group_value,unchosen_group_value,chosen_item_value,unchosen_item_value,chosen_img,unchosen_img,onset,duration,no_response,total_bonus_tally
0,True,full_screen,d06072022hr1157,fullscreen,0,3504,0.0-0.0,0,0,15677,,,,,,,,,,,,,,,,,,,,,,,,,,,,,,,
1,,size_instructions,,instructions,1,34982,0.0-1.0-0.0-0.0,0,0,15677,"[{""page_index"":0,""viewing_time"":1820},{""page_index"":1,""viewing_time"":6424},{""page_index"":0,""viewing_time"":1528},{""page_index"":1,""viewing_time"":6824},{""page_index"":2,""viewing_time"":8040},{""page_index"":3,""viewing_time"":2352},{""page_index"":4,""viewing_time"":2672},{""page_index"":5,""viewing_time"":1816}]",31477.0,,,,,,,,,,,,,,,,,,,,,,,,,,,,,
2,,rl_comprehension_check,,survey-multi-choice,2,55278,0.0-1.0-0.0-1.0,0,0,15677,,20293.0,"{""Q0"":""True"",""Q1"":""False"",""Q2"":""D for left and K for right""}",1.0,,,,,,,,,,,,,,,,,,,,,,,,,,,
3,,missed_instruction_checkup,,html-keyboard-response,3,57566,0.0-1.0-0.0-2.0-0.0,0,0,15677,,2284.0,,,68.0,,,,,,,,,,,,,,,,,,,,,,,,,,
4,,size_instructions,,instructions,4,71501,0.0-1.0-0.1-0.1,0,0,15677,"[{""page_index"":0,""viewing_time"":2118},{""page_index"":1,""viewing_time"":4872},{""page_index"":2,""viewing_time"":3368},{""page_index"":3,""viewing_time"":1360},{""page_index"":4,""viewing_time"":608},{""page_index"":5,""viewing_time"":1608}]",13934.0,,,,,,,,,,,,,,,,,,,,,,,,,,,,,
5,,rl_comprehension_check,,survey-multi-choice,5,75982,0.0-1.0-0.1-1.1,0,0,15677,,4478.0,"{""Q0"":""True"",""Q1"":""True"",""Q2"":""D for left and K for right""}",0.0,,,,,,,,,,,,,,,,,,,,,,,,,,,
6,,,,html-keyboard-response,6,77024,0.0-1.0-1.0,0,0,15677,,1038.0,,,68.0,,,,,,,,,,,,,,,,,,,,,,,,,,
7,,rl_choice,,html-keyboard-response,7,77904,0.0-1.0-2.0,0,0,15677,,879.0,,,75.0,0.0,0.0,1.0,hard,3500.0,2000.0,1.0,60.0,40.0,80.0,40.0,A,B,/static/Simple_RL/Stimuli/Fractals_stims/A.jpg,/static/Simple_RL/Stimuli/Fractals_stims/B.jpg,0.0,40.0,60.0,40.0,80.0,B,A,0.879,0.879,0.0,
8,,rl_choice_confirmation,,html-keyboard-response,8,78529,0.0-1.0-3.0-0.0,0,0,15677,,,,,,0.0,,1.0,,,,,,,,,,,,,,,,,,,,1.5,0.621,,
9,,isi,,html-keyboard-response,9,80532,0.0-1.0-5.0,0,0,15677,,,,,,0.0,,1.0,,,,,,,,,,,,,,,,,,,,3.5,2.0,,
10,,feedback,,html-keyboard-response,10,81534,0.0-1.0-6.0-0.0,0,0,15677,,,,,,0.0,,1.0,,,,,,,,,,,,,,,,,,,,4.5,1.0,,
11,,iti,,html-keyboard-response,11,85037,0.0-1.0-7.0,0,0,15677,,,,,,0.0,,1.0,,,,,,,,,,,,,,,,,,,,8.0,3.5,,
12,,rl_choice,,html-keyboard-response,12,85865,0.0-1.0-9.0,0,0,15677,,827.0,,,68.0,1.0,1.0,1.0,hard,1000.0,2000.0,1.0,60.0,40.0,80.0,20.0,A,B,/static/Simple_RL/Stimuli/Fractals_stims/A.jpg,/static/Simple_RL/Stimuli/Fractals_stims/B.jpg,1.0,60.0,40.0,80.0,20.0,A,B,8.827,0.827,0.0,
13,,rl_choice_confirmation,,html-keyboard-response,13,86542,0.0-1.0-10.0-0.0,0,0,15677,,,,,,1.0,,1.0,,,,,,,,,,,,,,,,,,,,9.5,0.673,,
14,,isi,,html-keyboard-response,14,88543,0.0-1.0-12.0,0,0,15677,,,,,,1.0,,1.0,,,,,,,,,,,,,,,,,,,,11.5,2.0,,
15,,feedback,,html-keyboard-response,15,89546,0.0-1.0-13.0-0.0,0,0,15677,,,,,,1.0,,1.0,,,,,,,,,,,,,,,,,,,,12.5,1.0,,
16,,iti,,html-keyboard-response,16,90547,0.0-1.0-14.0,0,0,15677,,,,,,1.0,,1.0,,,,,,,,,,,,,,,,,,,,13.5,1.0,,
17,,rl_choice,,html-keyboard-response,17,91506,0.0-1.0-16.0,0,0,15677,,957.0,,,68.0,2.0,2.0,1.0,easy,2000.0,2000.0,0.0,20.0,80.0,40.0,100.0,D,C,/static/Simple_RL/Stimuli/Fractals_stims/D.jpg,/static/Simple_RL/Stimuli/Fractals_stims/C.jpg,1.0,20.0,80.0,40.0,100.0,D,C,14.457,0.957,0.0,
18,,rl_choice_confirmation,,html-keyboard-response,18,92051,0.0-1.0-17.0-0.0,0,0,15677,,,,,,2.0,,1.0,,,,,,,,,,,,,,,,,,,,15.0,0.543,,
19,,isi,,html-keyboard-response,19,94053,0.0-1.0-19.0,0,0,15677,,,,,,2.0,,1.0,,,,,,,,,,,,,,,,,,,,17.0,2.0,,
20,,feedback,,html-keyboard-response,20,95054,0.0-1.0-20.0-0.0,0,0,15677,,,,,,2.0,,1.0,,,,,,,,,,,,,,,,,,,,18.0,1.0,,
21,,iti,,html-keyboard-response,21,97056,0.0-1.0-21.0,0,0,15677,,,,,,2.0,,1.0,,,,,,,,,,,,,,,,,,,,20.0,2.0,,
22,,rl_choice,,html-keyboard-response,22,97739,0.0-1.0-23.0,0,0,15677,,682.0,,,75.0,3.0,3.0,1.0,hard,1500.0,1000.0,0.0,40.0,60.0,20.0,60.0,B,A,/static/Simple_RL/Stimuli/Fractals_stims/B.jpg,/static/Simple_RL/Stimuli/Fractals_stims/A.jpg,0.0,60.0,40.0,60.0,20.0,A,B,20.682,0.682,0.0,
23,,rl_choice_confirmation,,html-keyboard-response,23,98560,0.0-1.0-24.0-0.0,0,0,15677,,,,,,3.0,,1.0,,,,,,,,,,,,,,,,,,,,21.5,0.818,,
24,,isi,,html-keyboard-response,24,99563,0.0-1.0-26.0,0,0,15677,,,,,,3.0,,1.0,,,,,,,,,,,,,,,,,,,,22.5,1.0,,
25,,feedback,,html-keyboard-response,25,100567,0.0-1.0-27.0-0.0,0,0,15677,,,,,,3.0,,1.0,,,,,,,,,,,,,,,,,,,,23.5,1.0,,
26,,iti,,html-keyboard-response,26,102068,0.0-1.0-28.0,0,0,15677,,,,,,3.0,,1.0,,,,,,,,,,,,,,,,,,,,25.0,1.5,,
27,,rl_choice,,html-keyboard-response,27,102588,0.0-1.0-30.0,0,0,15677,,518.0,,,75.0,4.0,4.0,1.0,hard,1500.0,3000.0,0.0,40.0,60.0,40.0,60.0,B,A,/static/Simple_RL/Stimuli/Fractals_stims/B.jpg,/static/Simple_RL/Stimuli/Fractals_stims/A.jpg,0.0,60.0,40.0,60.0,40.0,A,B,25.518,0.518,0.0,
28,,rl_choice_confirmation,,html-keyboard-response,28,103572,0.0-1.0-31.0-0.0,0,0,15677,,,,,,4.0,,1.0,,,,,,,,,,,,,,,,,,,,26.5,0.982,,
29,,isi,,html-keyboard-response,29,106573,0.0-1.0-33.0,0,0,15677,,,,,,4.0,,1.0,,,,,,,,,,,,,,,,,,,,29.5,3.0,,
30,,feedback,,html-keyboard-response,30,107576,0.0-1.0-34.0-0.0,0,0,15677,,,,,,4.0,,1.0,,,,,,,,,,,,,,,,,,,,30.5,1.0,,
31,,iti,,html-keyboard-response,31,109078,0.0-1.0-35.0,0,0,15677,,,,,,4.0,,1.0,,,,,,,,,,,,,,,,,,,,32.0,1.5,,
32,,rl_choice,,html-keyboard-response,32,110389,0.0-1.0-37.0,0,0,15677,,1310.0,,,68.0,5.0,5.0,1.0,easy,1500.0,1500.0,1.0,80.0,20.0,80.0,0.0,C,D,/static/Simple_RL/Stimuli/Fractals_stims/C.jpg,/static/Simple_RL/Stimuli/Fractals_stims/D.jpg,1.0,80.0,20.0,80.0,0.0,C,D,33.31,1.31,0.0,
33,,rl_choice_confirmation,,html-keyboard-response,33,110582,0.0-1.0-38.0-0.0,0,0,15677,,,,,,5.0,,1.0,,,,,,,,,,,,,,,,,,,,33.5,0.19,,
34,,isi,,html-keyboard-response,34,112084,0.0-1.0-40.0,0,0,15677,,,,,,5.0,,1.0,,,,,,,,,,,,,,,,,,,,35.0,1.5,,
35,,feedback,,html-keyboard-response,35,113087,0.0-1.0-41.0-0.0,0,0,15677,,,,,,5.0,,1.0,,,,,,,,,,,,,,,,,,,,36.0,1.0,,
36,,iti,,html-keyboard-response,36,114590,0.0-1.0-42.0,0,0,15677,,,,,,5.0,,1.0,,,,,,,,,,,,,,,,,,,,37.5,1.5,,
37,,rl_choice,,html-keyboard-response,37,115150,0.0-1.0-44.0,0,0,15677,,558.0,,,68.0,6.0,6.0,1.0,easy,1000.0,1000.0,1.0,80.0,20.0,60.0,40.0,C,D,/static/Simple_RL/Stimuli/Fractals_stims/C.jpg,/static/Simple_RL/Stimuli/Fractals_stims/D.jpg,1.0,80.0,20.0,60.0,40.0,C,D,38.058,0.558,0.0,
38,,rl_choice_confirmation,,html-keyboard-response,38,116093,0.0-1.0-45.0-0.0,0,0,15677,,,,,,6.0,,1.0,,,,,,,,,,,,,,,,,,,,39.0,0.942,,
39,,isi,,html-keyboard-response,39,117095,0.0-1.0-47.0,0,0,15677,,,,,,6.0,,1.0,,,,,,,,,,,,,,,,,,,,40.0,1.0,,
40,,feedback,,html-keyboard-response,40,118097,0.0-1.0-48.0-0.0,0,0,15677,,,,,,6.0,,1.0,,,,,,,,,,,,,,,,,,,,41.0,1.0,,
41,,iti,,html-keyboard-response,41,119099,0.0-1.0-49.0,0,0,15677,,,,,,6.0,,1.0,,,,,,,,,,,,,,,,,,,,42.0,1.0,,
42,,rl_choice,,html-keyboard-response,42,119702,0.0-1.0-51.0,0,0,15677,,602.0,,,75.0,7.0,7.0,1.0,easy,3000.0,2000.0,0.0,20.0,80.0,0.0,80.0,D,C,/static/Simple_RL/Stimuli/Fractals_stims/D.jpg,/static/Simple_RL/Stimuli/Fractals_stims/C.jpg,0.0,80.0,20.0,80.0,0.0,C,D,42.602,0.602,0.0,
43,,rl_choice_confirmation,,html-keyboard-response,43,120602,0.0-1.0-52.0-0.0,0,0,15677,,,,,,7.0,,1.0,,,,,,,,,,,,,,,,,,,,43.5,0.898,,
44,,isi,,html-keyboard-response,44,122603,0.0-1.0-54.0,0,0,15677,,,,,,7.0,,1.0,,,,,,,,,,,,,,,,,,,,45.5,2.0,,
45,,feedback,,html-keyboard-response,45,123605,0.0-1.0-55.0-0.0,0,0,15677,,,,,,7.0,,1.0,,,,,,,,,,,,,,,,,,,,46.5,1.0,,
46,,iti,,html-keyboard-response,46,126608,0.0-1.0-56.0,0,0,15677,,,,,,7.0,,1.0,,,,,,,,,,,,,,,,,,,,49.5,3.0,,
47,,rl_choice,,html-keyboard-response,47,127456,0.0-1.0-58.0,0,0,15677,,846.0,,,75.0,8.0,8.0,1.0,hard,2000.0,3500.0,0.0,40.0,60.0,40.0,60.0,B,A,/static/Simple_RL/Stimuli/Fractals_stims/B.jpg,/static/Simple_RL/Stimuli/Fractals_stims/A.jpg,0.0,60.0,40.0,60.0,40.0,A,B,50.346,0.846,0.0,
48,,rl_choice_confirmation,,html-keyboard-response,48,128112,0.0-1.0-59.0-0.0,0,0,15677,,,,,,8.0,,1.0,,,,,,,,,,,,,,,,,,,,51.0,0.654,,
49,,isi,,html-keyboard-response,49,131615,0.0-1.0-61.0,0,0,15677,,,,,,8.0,,1.0,,,,,,,,,,,,,,,,,,,,54.5,3.5,,
50,,feedback,,html-keyboard-response,50,132617,0.0-1.0-62.0-0.0,0,0,15677,,,,,,8.0,,1.0,,,,,,,,,,,,,,,,,,,,55.5,1.0,,
51,,iti,,html-keyboard-response,51,134619,0.0-1.0-63.0,0,0,15677,,,,,,8.0,,1.0,,,,,,,,,,,,,,,,,,,,57.5,2.0,,
52,,rl_choice,,html-keyboard-response,52,135496,0.0-1.0-65.0,0,0,15677,,876.0,,,68.0,9.0,9.0,1.0,hard,2000.0,1000.0,1.0,60.0,40.0,60.0,20.0,A,B,/static/Simple_RL/Stimuli/Fractals_stims/A.jpg,/static/Simple_RL/Stimuli/Fractals_stims/B.jpg,1.0,60.0,40.0,60.0,20.0,A,B,58.376,0.876,0.0,
53,,rl_choice_confirmation,,html-keyboard-response,53,136123,0.0-1.0-66.0-0.0,0,0,15677,,,,,,9.0,,1.0,,,,,,,,,,,,,,,,,,,,59.0,0.624,,
54,,isi,,html-keyboard-response,54,137124,0.0-1.0-68.0,0,0,15677,,,,,,9.0,,1.0,,,,,,,,,,,,,,,,,,,,60.0,1.0,,
55,,feedback,,html-keyboard-response,55,138127,0.0-1.0-69.0-0.0,0,0,15677,,,,,,9.0,,1.0,,,,,,,,,,,,,,,,,,,,61.0,1.0,,
56,,iti,,html-keyboard-response,56,140128,0.0-1.0-70.0,0,0,15677,,,,,,9.0,,1.0,,,,,,,,,,,,,,,,,,,,63.0,2.0,,
57,,rl_choice,,html-keyboard-response,57,141178,0.0-1.0-72.0,0,0,15677,,1047.0,,,75.0,10.0,10.0,1.0,easy,1000.0,1000.0,0.0,20.0,80.0,0.0,80.0,D,C,/static/Simple_RL/Stimuli/Fractals_stims/D.jpg,/static/Simple_RL/Stimuli/Fractals_stims/C.jpg,0.0,80.0,20.0,80.0,0.0,C,D,64.047,1.047,0.0,
58,,rl_choice_confirmation,,html-keyboard-response,58,141633,0.0-1.0-73.0-0.0,0,0,15677,,,,,,10.0,,1.0,,,,,,,,,,,,,,,,,,,,64.5,0.453,,
59,,isi,,html-keyboard-response,59,142635,0.0-1.0-75.0,0,0,15677,,,,,,10.0,,1.0,,,,,,,,,,,,,,,,,,,,65.5,1.0,,
60,,feedback,,html-keyboard-response,60,143638,0.0-1.0-76.0-0.0,0,0,15677,,,,,,10.0,,1.0,,,,,,,,,,,,,,,,,,,,66.5,1.0,,
61,,iti,,html-keyboard-response,61,144640,0.0-1.0-77.0,0,0,15677,,,,,,10.0,,1.0,,,,,,,,,,,,,,,,,,,,67.5,1.0,,
62,,rl_choice,,html-keyboard-response,62,145162,0.0-1.0-79.0,0,0,15677,,520.0,,,75.0,11.0,11.0,1.0,hard,1000.0,2000.0,0.0,40.0,60.0,40.0,60.0,B,A,/static/Simple_RL/Stimuli/Fractals_stims/B.jpg,/static/Simple_RL/Stimuli/Fractals_stims/A.jpg,0.0,60.0,40.0,60.0,40.0,A,B,68.02,0.52,0.0,
63,,rl_choice_confirmation,,html-keyboard-response,63,146144,0.0-1.0-80.0-0.0,0,0,15677,,,,,,11.0,,1.0,,,,,,,,,,,,,,,,,,,,69.0,0.98,,
64,,isi,,html-keyboard-response,64,148145,0.0-1.0-82.0,0,0,15677,,,,,,11.0,,1.0,,,,,,,,,,,,,,,,,,,,71.0,2.0,,
65,,feedback,,html-keyboard-response,65,149148,0.0-1.0-83.0-0.0,0,0,15677,,,,,,11.0,,1.0,,,,,,,,,,,,,,,,,,,,72.0,1.0,,
66,,iti,,html-keyboard-response,66,150150,0.0-1.0-84.0,0,0,15677,,,,,,11.0,,1.0,,,,,,,,,,,,,,,,,,,,73.0,1.0,,
67,,rl_choice,,html-keyboard-response,67,150706,0.0-1.0-86.0,0,0,15677,,554.0,,,75.0,12.0,12.0,1.0,hard,1000.0,1000.0,0.0,40.0,60.0,60.0,80.0,B,A,/static/Simple_RL/Stimuli/Fractals_stims/B.jpg,/static/Simple_RL/Stimuli/Fractals_stims/A.jpg,0.0,60.0,40.0,80.0,60.0,A,B,73.554,0.554,0.0,
68,,rl_choice_confirmation,,html-keyboard-response,68,151655,0.0-1.0-87.0-0.0,0,0,15677,,,,,,12.0,,1.0,,,,,,,,,,,,,,,,,,,,74.5,0.946,,
69,,isi,,html-keyboard-response,69,152656,0.0-1.0-89.0,0,0,15677,,,,,,12.0,,1.0,,,,,,,,,,,,,,,,,,,,75.5,1.0,,
70,,feedback,,html-keyboard-response,70,153659,0.0-1.0-90.0-0.0,0,0,15677,,,,,,12.0,,1.0,,,,,,,,,,,,,,,,,,,,76.5,1.0,,
71,,iti,,html-keyboard-response,71,154661,0.0-1.0-91.0,0,0,15677,,,,,,12.0,,1.0,,,,,,,,,,,,,,,,,,,,77.5,1.0,,
72,,rl_choice,,html-keyboard-response,72,155339,0.0-1.0-93.0,0,0,15677,,677.0,,,68.0,13.0,13.0,1.0,hard,3000.0,1500.0,1.0,60.0,40.0,40.0,60.0,A,B,/static/Simple_RL/Stimuli/Fractals_stims/A.jpg,/static/Simple_RL/Stimuli/Fractals_stims/B.jpg,1.0,60.0,40.0,40.0,60.0,A,B,78.177,0.677,0.0,
73,,rl_choice_confirmation,,html-keyboard-response,73,156165,0.0-1.0-94.0-0.0,0,0,15677,,,,,,13.0,,1.0,,,,,,,,,,,,,,,,,,,,79.0,0.823,,
74,,isi,,html-keyboard-response,74,157668,0.0-1.0-96.0,0,0,15677,,,,,,13.0,,1.0,,,,,,,,,,,,,,,,,,,,80.5,1.5,,
75,,feedback,,html-keyboard-response,75,158671,0.0-1.0-97.0-0.0,0,0,15677,,,,,,13.0,,1.0,,,,,,,,,,,,,,,,,,,,81.5,1.0,,
76,,iti,,html-keyboard-response,76,161673,0.0-1.0-98.0,0,0,15677,,,,,,13.0,,1.0,,,,,,,,,,,,,,,,,,,,84.5,3.0,,
77,,rl_choice,,html-keyboard-response,77,162508,0.0-1.0-100.0,0,0,15677,,834.0,,,68.0,14.0,14.0,1.0,easy,1500.0,1000.0,1.0,80.0,20.0,100.0,40.0,C,D,/static/Simple_RL/Stimuli/Fractals_stims/C.jpg,/static/Simple_RL/Stimuli/Fractals_stims/D.jpg,1.0,80.0,20.0,100.0,40.0,C,D,85.334,0.834,0.0,
78,,rl_choice_confirmation,,html-keyboard-response,78,163176,0.0-1.0-101.0-0.0,0,0,15677,,,,,,14.0,,1.0,,,,,,,,,,,,,,,,,,,,86.0,0.666,,
79,,isi,,html-keyboard-response,79,164178,0.0-1.0-103.0,0,0,15677,,,,,,14.0,,1.0,,,,,,,,,,,,,,,,,,,,87.0,1.0,,
80,,feedback,,html-keyboard-response,80,165180,0.0-1.0-104.0-0.0,0,0,15677,,,,,,14.0,,1.0,,,,,,,,,,,,,,,,,,,,88.0,1.0,,
81,,iti,,html-keyboard-response,81,166682,0.0-1.0-105.0,0,0,15677,,,,,,14.0,,1.0,,,,,,,,,,,,,,,,,,,,89.5,1.5,,
82,,rl_choice,,html-keyboard-response,82,167325,0.0-1.0-107.0,0,0,15677,,642.0,,,68.0,15.0,15.0,1.0,hard,1000.0,3000.0,1.0,60.0,40.0,60.0,60.0,A,B,/static/Simple_RL/Stimuli/Fractals_stims/A.jpg,/static/Simple_RL/Stimuli/Fractals_stims/B.jpg,1.0,60.0,40.0,60.0,60.0,A,B,90.142,0.642,0.0,
83,,rl_choice_confirmation,,html-keyboard-response,83,168185,0.0-1.0-108.0-0.0,0,0,15677,,,,,,15.0,,1.0,,,,,,,,,,,,,,,,,,,,91.0,0.858,,
84,,isi,,html-keyboard-response,84,171187,0.0-1.0-110.0,0,0,15677,,,,,,15.0,,1.0,,,,,,,,,,,,,,,,,,,,94.0,3.0,,
85,,feedback,,html-keyboard-response,85,172190,0.0-1.0-111.0-0.0,0,0,15677,,,,,,15.0,,1.0,,,,,,,,,,,,,,,,,,,,95.0,1.0,,
86,,iti,,html-keyboard-response,86,173192,0.0-1.0-112.0,0,0,15677,,,,,,15.0,,1.0,,,,,,,,,,,,,,,,,,,,96.0,1.0,,
87,,rl_choice,,html-keyboard-response,87,173734,0.0-1.0-114.0,0,0,15677,,539.0,,,68.0,16.0,16.0,1.0,hard,1500.0,1000.0,1.0,60.0,40.0,60.0,40.0,A,B,/static/Simple_RL/Stimuli/Fractals_stims/A.jpg,/static/Simple_RL/Stimuli/Fractals_stims/B.jpg,1.0,60.0,40.0,60.0,40.0,A,B,96.539,0.539,0.0,
88,,rl_choice_confirmation,,html-keyboard-response,88,174696,0.0-1.0-115.0-0.0,0,0,15677,,,,,,16.0,,1.0,,,,,,,,,,,,,,,,,,,,97.5,0.961,,
89,,isi,,html-keyboard-response,89,175698,0.0-1.0-117.0,0,0,15677,,,,,,16.0,,1.0,,,,,,,,,,,,,,,,,,,,98.5,1.0,,
90,,feedback,,html-keyboard-response,90,176701,0.0-1.0-118.0-0.0,0,0,15677,,,,,,16.0,,1.0,,,,,,,,,,,,,,,,,,,,99.5,1.0,,
91,,iti,,html-keyboard-response,91,178201,0.0-1.0-119.0,0,0,15677,,,,,,16.0,,1.0,,,,,,,,,,,,,,,,,,,,101.0,1.5,,
92,,rl_choice,,html-keyboard-response,92,178983,0.0-1.0-121.0,0,0,15677,,780.0,,,68.0,17.0,17.0,1.0,easy,2000.0,2000.0,1.0,80.0,20.0,100.0,40.0,C,D,/static/Simple_RL/Stimuli/Fractals_stims/C.jpg,/static/Simple_RL/Stimuli/Fractals_stims/D.jpg,1.0,80.0,20.0,100.0,40.0,C,D,101.78,0.78,0.0,
93,,rl_choice_confirmation,,html-keyboard-response,93,179704,0.0-1.0-122.0-0.0,0,0,15677,,,,,,17.0,,1.0,,,,,,,,,,,,,,,,,,,,102.5,0.72,,
94,,isi,,html-keyboard-response,94,181706,0.0-1.0-124.0,0,0,15677,,,,,,17.0,,1.0,,,,,,,,,,,,,,,,,,,,104.5,2.0,,
95,,feedback,,html-keyboard-response,95,182708,0.0-1.0-125.0-0.0,0,0,15677,,,,,,17.0,,1.0,,,,,,,,,,,,,,,,,,,,105.5,1.0,,
96,,iti,,html-keyboard-response,96,184709,0.0-1.0-126.0,0,0,15677,,,,,,17.0,,1.0,,,,,,,,,,,,,,,,,,,,107.5,2.0,,
97,,rl_choice,,html-keyboard-response,97,185303,0.0-1.0-128.0,0,0,15677,,593.0,,,68.0,18.0,18.0,1.0,hard,1000.0,1500.0,1.0,60.0,40.0,80.0,60.0,A,B,/static/Simple_RL/Stimuli/Fractals_stims/A.jpg,/static/Simple_RL/Stimuli/Fractals_stims/B.jpg,1.0,60.0,40.0,80.0,60.0,A,B,108.093,0.593,0.0,
98,,rl_choice_confirmation,,html-keyboard-response,98,186213,0.0-1.0-129.0-0.0,0,0,15677,,,,,,18.0,,1.0,,,,,,,,,,,,,,,,,,,,109.0,0.907,,
99,,isi,,html-keyboard-response,99,187714,0.0-1.0-131.0,0,0,15677,,,,,,18.0,,1.0,,,,,,,,,,,,,,,,,,,,110.5,1.5,,
100,,feedback,,html-keyboard-response,100,188721,0.0-1.0-132.0-0.0,0,0,15677,,,,,,18.0,,1.0,,,,,,,,,,,,,,,,,,,,111.5,1.0,,
101,,iti,,html-keyboard-response,101,189723,0.0-1.0-133.0,0,0,15677,,,,,,18.0,,1.0,,,,,,,,,,,,,,,,,,,,112.5,1.0,,
102,,rl_choice,,html-keyboard-response,102,190224,0.0-1.0-135.0,0,0,15677,,500.0,,,68.0,19.0,19.0,1.0,hard,1000.0,1000.0,1.0,60.0,40.0,60.0,20.0,A,B,/static/Simple_RL/Stimuli/Fractals_stims/A.jpg,/static/Simple_RL/Stimuli/Fractals_stims/B.jpg,1.0,60.0,40.0,60.0,20.0,A,B,113.0,0.5,0.0,
103,,rl_choice_confirmation,,html-keyboard-response,103,191225,0.0-1.0-136.0-0.0,0,0,15677,,,,,,19.0,,1.0,,,,,,,,,,,,,,,,,,,,114.0,1.0,,
104,,isi,,html-keyboard-response,104,192227,0.0-1.0-138.0,0,0,15677,,,,,,19.0,,1.0,,,,,,,,,,,,,,,,,,,,115.0,1.0,,
105,,feedback,,html-keyboard-response,105,193230,0.0-1.0-139.0-0.0,0,0,15677,,,,,,19.0,,1.0,,,,,,,,,,,,,,,,,,,,116.0,1.0,,
106,,iti,,html-keyboard-response,106,194232,0.0-1.0-140.0,0,0,15677,,,,,,19.0,,1.0,,,,,,,,,,,,,,,,,,,,117.0,1.0,,
107,,rl_choice,,html-keyboard-response,107,195025,0.0-1.0-142.0,0,0,15677,,791.0,,,75.0,20.0,20.0,1.0,easy,1000.0,1000.0,0.0,20.0,80.0,0.0,60.0,D,C,/static/Simple_RL/Stimuli/Fractals_stims/D.jpg,/static/Simple_RL/Stimuli/Fractals_stims/C.jpg,0.0,80.0,20.0,60.0,0.0,C,D,117.791,0.791,0.0,
108,,rl_choice_confirmation,,html-keyboard-response,108,195735,0.0-1.0-143.0-0.0,0,0,15677,,,,,,20.0,,1.0,,,,,,,,,,,,,,,,,,,,118.5,0.709,,
109,,isi,,html-keyboard-response,109,196736,0.0-1.0-145.0,0,0,15677,,,,,,20.0,,1.0,,,,,,,,,,,,,,,,,,,,119.5,1.0,,
110,,feedback,,html-keyboard-response,110,197745,0.0-1.0-146.0-0.0,0,0,15677,,,,,,20.0,,1.0,,,,,,,,,,,,,,,,,,,,120.5,1.0,,
111,,iti,,html-keyboard-response,111,198747,0.0-1.0-147.0,0,0,15677,,,,,,20.0,,1.0,,,,,,,,,,,,,,,,,,,,121.5,1.0,,
112,,rl_choice,,html-keyboard-response,112,199289,0.0-1.0-149.0,0,0,15677,,541.0,,,68.0,21.0,21.0,1.0,easy,2000.0,1500.0,1.0,80.0,20.0,60.0,20.0,C,D,/static/Simple_RL/Stimuli/Fractals_stims/C.jpg,/static/Simple_RL/Stimuli/Fractals_stims/D.jpg,1.0,80.0,20.0,60.0,20.0,C,D,122.041,0.541,0.0,
113,,rl_choice_confirmation,,html-keyboard-response,113,200251,0.0-1.0-150.0-0.0,0,0,15677,,,,,,21.0,,1.0,,,,,,,,,,,,,,,,,,,,123.0,0.959,,
114,,isi,,html-keyboard-response,114,201753,0.0-1.0-152.0,0,0,15677,,,,,,21.0,,1.0,,,,,,,,,,,,,,,,,,,,124.5,1.5,,
115,,feedback,,html-keyboard-response,115,202755,0.0-1.0-153.0-0.0,0,0,15677,,,,,,21.0,,1.0,,,,,,,,,,,,,,,,,,,,125.5,1.0,,
116,,iti,,html-keyboard-response,116,204757,0.0-1.0-154.0,0,0,15677,,,,,,21.0,,1.0,,,,,,,,,,,,,,,,,,,,127.5,2.0,,
117,,rl_choice,,html-keyboard-response,117,205282,0.0-1.0-156.0,0,0,15677,,523.0,,,68.0,22.0,22.0,1.0,easy,1000.0,1000.0,1.0,80.0,20.0,100.0,0.0,C,D,/static/Simple_RL/Stimuli/Fractals_stims/C.jpg,/static/Simple_RL/Stimuli/Fractals_stims/D.jpg,1.0,80.0,20.0,100.0,0.0,C,D,128.023,0.523,0.0,
118,,rl_choice_confirmation,,html-keyboard-response,118,206261,0.0-1.0-157.0-0.0,0,0,15677,,,,,,22.0,,1.0,,,,,,,,,,,,,,,,,,,,129.0,0.977,,
119,,isi,,html-keyboard-response,119,207264,0.0-1.0-159.0,0,0,15677,,,,,,22.0,,1.0,,,,,,,,,,,,,,,,,,,,130.0,1.0,,
120,,feedback,,html-keyboard-response,120,208276,0.0-1.0-160.0-0.0,0,0,15677,,,,,,22.0,,1.0,,,,,,,,,,,,,,,,,,,,131.0,1.0,,
121,,iti,,html-keyboard-response,121,209278,0.0-1.0-161.0,0,0,15677,,,,,,22.0,,1.0,,,,,,,,,,,,,,,,,,,,132.0,1.0,,
122,,rl_choice,,html-keyboard-response,122,209947,0.0-1.0-163.0,0,0,15677,,666.0,,,68.0,23.0,23.0,1.0,easy,1500.0,3000.0,1.0,80.0,20.0,80.0,20.0,C,D,/static/Simple_RL/Stimuli/Fractals_stims/C.jpg,/static/Simple_RL/Stimuli/Fractals_stims/D.jpg,1.0,80.0,20.0,80.0,20.0,C,D,132.666,0.666,0.0,
123,,rl_choice_confirmation,,html-keyboard-response,123,210782,0.0-1.0-164.0-0.0,0,0,15677,,,,,,23.0,,1.0,,,,,,,,,,,,,,,,,,,,133.5,0.834,,
124,,isi,,html-keyboard-response,124,213784,0.0-1.0-166.0,0,0,15677,,,,,,23.0,,1.0,,,,,,,,,,,,,,,,,,,,136.5,3.0,,
125,,feedback,,html-keyboard-response,125,214787,0.0-1.0-167.0-0.0,0,0,15677,,,,,,23.0,,1.0,,,,,,,,,,,,,,,,,,,,137.5,1.0,,
126,,iti,,html-keyboard-response,126,216289,0.0-1.0-168.0,0,0,15677,,,,,,23.0,,1.0,,,,,,,,,,,,,,,,,,,,139.0,1.5,,
127,,rl_choice,,html-keyboard-response,127,216796,0.0-1.0-170.0,0,0,15677,,506.0,,,75.0,24.0,24.0,1.0,hard,2000.0,1500.0,0.0,40.0,60.0,40.0,60.0,B,A,/static/Simple_RL/Stimuli/Fractals_stims/B.jpg,/static/Simple_RL/Stimuli/Fractals_stims/A.jpg,0.0,60.0,40.0,60.0,40.0,A,B,139.506,0.506,0.0,
128,,rl_choice_confirmation,,html-keyboard-response,128,217792,0.0-1.0-171.0-0.0,0,0,15677,,,,,,24.0,,1.0,,,,,,,,,,,,,,,,,,,,140.5,0.994,,
129,,isi,,html-keyboard-response,129,219293,0.0-1.0-173.0,0,0,15677,,,,,,24.0,,1.0,,,,,,,,,,,,,,,,,,,,142.0,1.5,,
130,,feedback,,html-keyboard-response,130,220296,0.0-1.0-174.0-0.0,0,0,15677,,,,,,24.0,,1.0,,,,,,,,,,,,,,,,,,,,143.0,1.0,,
131,,iti,,html-keyboard-response,131,222298,0.0-1.0-175.0,0,0,15677,,,,,,24.0,,1.0,,,,,,,,,,,,,,,,,,,,145.0,2.0,,
132,,rl_choice,,html-keyboard-response,132,222845,0.0-1.0-177.0,0,0,15677,,544.0,,,68.0,25.0,25.0,1.0,hard,3000.0,1500.0,1.0,60.0,40.0,40.0,40.0,A,B,/static/Simple_RL/Stimuli/Fractals_stims/A.jpg,/static/Simple_RL/Stimuli/Fractals_stims/B.jpg,1.0,60.0,40.0,40.0,40.0,A,B,145.544,0.544,0.0,
133,,rl_choice_confirmation,,html-keyboard-response,133,223802,0.0-1.0-178.0-0.0,0,0,15677,,,,,,25.0,,1.0,,,,,,,,,,,,,,,,,,,,146.5,0.956,,
134,,isi,,html-keyboard-response,134,225303,0.0-1.0-180.0,0,0,15677,,,,,,25.0,,1.0,,,,,,,,,,,,,,,,,,,,148.0,1.5,,
135,,feedback,,html-keyboard-response,135,226305,0.0-1.0-181.0-0.0,0,0,15677,,,,,,25.0,,1.0,,,,,,,,,,,,,,,,,,,,149.0,1.0,,
136,,iti,,html-keyboard-response,136,229307,0.0-1.0-182.0,0,0,15677,,,,,,25.0,,1.0,,,,,,,,,,,,,,,,,,,,152.0,3.0,,
137,,rl_choice,,html-keyboard-response,137,229822,0.0-1.0-184.0,0,0,15677,,513.0,,,75.0,26.0,26.0,1.0,hard,1000.0,2000.0,0.0,40.0,60.0,40.0,80.0,B,A,/static/Simple_RL/Stimuli/Fractals_stims/B.jpg,/static/Simple_RL/Stimuli/Fractals_stims/A.jpg,0.0,60.0,40.0,80.0,40.0,A,B,152.513,0.513,0.0,
138,,rl_choice_confirmation,,html-keyboard-response,138,230810,0.0-1.0-185.0-0.0,0,0,15677,,,,,,26.0,,1.0,,,,,,,,,,,,,,,,,,,,153.5,0.987,,
139,,isi,,html-keyboard-response,139,232812,0.0-1.0-187.0,0,0,15677,,,,,,26.0,,1.0,,,,,,,,,,,,,,,,,,,,155.5,2.0,,
140,,feedback,,html-keyboard-response,140,233814,0.0-1.0-188.0-0.0,0,0,15677,,,,,,26.0,,1.0,,,,,,,,,,,,,,,,,,,,156.5,1.0,,
141,,iti,,html-keyboard-response,141,234815,0.0-1.0-189.0,0,0,15677,,,,,,26.0,,1.0,,,,,,,,,,,,,,,,,,,,157.5,1.0,,
142,,rl_choice,,html-keyboard-response,142,235470,0.0-1.0-191.0,0,0,15677,,653.0,,,68.0,27.0,27.0,1.0,easy,3000.0,1000.0,1.0,80.0,20.0,80.0,40.0,C,D,/static/Simple_RL/Stimuli/Fractals_stims/C.jpg,/static/Simple_RL/Stimuli/Fractals_stims/D.jpg,1.0,80.0,20.0,80.0,40.0,C,D,158.153,0.653,0.0,
143,,rl_choice_confirmation,,html-keyboard-response,143,236320,0.0-1.0-192.0-0.0,0,0,15677,,,,,,27.0,,1.0,,,,,,,,,,,,,,,,,,,,159.0,0.847,,
144,,isi,,html-keyboard-response,144,237321,0.0-1.0-194.0,0,0,15677,,,,,,27.0,,1.0,,,,,,,,,,,,,,,,,,,,160.0,1.0,,
145,,feedback,,html-keyboard-response,145,238323,0.0-1.0-195.0-0.0,0,0,15677,,,,,,27.0,,1.0,,,,,,,,,,,,,,,,,,,,161.0,1.0,,
146,,iti,,html-keyboard-response,146,241324,0.0-1.0-196.0,0,0,15677,,,,,,27.0,,1.0,,,,,,,,,,,,,,,,,,,,164.0,3.0,,
147,,rl_choice,,html-keyboard-response,147,241928,0.0-1.0-198.0,0,0,15677,,602.0,,,68.0,28.0,28.0,1.0,easy,1000.0,3500.0,1.0,80.0,20.0,60.0,20.0,C,D,/static/Simple_RL/Stimuli/Fractals_stims/C.jpg,/static/Simple_RL/Stimuli/Fractals_stims/D.jpg,1.0,80.0,20.0,60.0,20.0,C,D,164.602,0.602,0.0,
148,,rl_choice_confirmation,,html-keyboard-response,148,242829,0.0-1.0-199.0-0.0,0,0,15677,,,,,,28.0,,1.0,,,,,,,,,,,,,,,,,,,,165.5,0.898,,
149,,isi,,html-keyboard-response,149,246331,0.0-1.0-201.0,0,0,15677,,,,,,28.0,,1.0,,,,,,,,,,,,,,,,,,,,169.0,3.5,,
150,,feedback,,html-keyboard-response,150,247334,0.0-1.0-202.0-0.0,0,0,15677,,,,,,28.0,,1.0,,,,,,,,,,,,,,,,,,,,170.0,1.0,,
151,,iti,,html-keyboard-response,151,248336,0.0-1.0-203.0,0,0,15677,,,,,,28.0,,1.0,,,,,,,,,,,,,,,,,,,,171.0,1.0,,
152,,rl_choice,,html-keyboard-response,152,248928,0.0-1.0-205.0,0,0,15677,,590.0,,,75.0,29.0,29.0,1.0,hard,1500.0,1000.0,0.0,40.0,60.0,60.0,40.0,B,A,/static/Simple_RL/Stimuli/Fractals_stims/B.jpg,/static/Simple_RL/Stimuli/Fractals_stims/A.jpg,0.0,60.0,40.0,40.0,60.0,A,B,171.59,0.59,0.0,
153,,rl_choice_confirmation,,html-keyboard-response,153,249841,0.0-1.0-206.0-0.0,0,0,15677,,,,,,29.0,,1.0,,,,,,,,,,,,,,,,,,,,172.5,0.91,,
154,,isi,,html-keyboard-response,154,250843,0.0-1.0-208.0,0,0,15677,,,,,,29.0,,1.0,,,,,,,,,,,,,,,,,,,,173.5,1.0,,
155,,feedback,,html-keyboard-response,155,251844,0.0-1.0-209.0-0.0,0,0,15677,,,,,,29.0,,1.0,,,,,,,,,,,,,,,,,,,,174.5,1.0,,
156,,iti,,html-keyboard-response,156,253345,0.0-1.0-210.0,0,0,15677,,,,,,29.0,,1.0,,,,,,,,,,,,,,,,,,,,176.0,1.5,,
157,,rl_choice,,html-keyboard-response,157,253913,0.0-1.0-212.0,0,0,15677,,565.0,,,68.0,30.0,30.0,1.0,easy,1000.0,1500.0,1.0,80.0,20.0,100.0,20.0,C,D,/static/Simple_RL/Stimuli/Fractals_stims/C.jpg,/static/Simple_RL/Stimuli/Fractals_stims/D.jpg,1.0,80.0,20.0,100.0,20.0,C,D,176.565,0.565,0.0,
158,,rl_choice_confirmation,,html-keyboard-response,158,254851,0.0-1.0-213.0-0.0,0,0,15677,,,,,,30.0,,1.0,,,,,,,,,,,,,,,,,,,,177.5,0.935,,
159,,isi,,html-keyboard-response,159,256352,0.0-1.0-215.0,0,0,15677,,,,,,30.0,,1.0,,,,,,,,,,,,,,,,,,,,179.0,1.5,,
160,,feedback,,html-keyboard-response,160,257354,0.0-1.0-216.0-0.0,0,0,15677,,,,,,30.0,,1.0,,,,,,,,,,,,,,,,,,,,180.0,1.0,,
161,,iti,,html-keyboard-response,161,258356,0.0-1.0-217.0,0,0,15677,,,,,,30.0,,1.0,,,,,,,,,,,,,,,,,,,,181.0,1.0,,
162,,rl_choice,,html-keyboard-response,162,259058,0.0-1.0-219.0,0,0,15677,,700.0,,,75.0,31.0,31.0,1.0,easy,2000.0,1500.0,0.0,20.0,80.0,40.0,100.0,D,C,/static/Simple_RL/Stimuli/Fractals_stims/D.jpg,/static/Simple_RL/Stimuli/Fractals_stims/C.jpg,0.0,80.0,20.0,100.0,40.0,C,D,181.7,0.7,0.0,
163,,rl_choice_confirmation,,html-keyboard-response,163,259860,0.0-1.0-220.0-0.0,0,0,15677,,,,,,31.0,,1.0,,,,,,,,,,,,,,,,,,,,182.5,0.8,,
164,,isi,,html-keyboard-response,164,261361,0.0-1.0-222.0,0,0,15677,,,,,,31.0,,1.0,,,,,,,,,,,,,,,,,,,,184.0,1.5,,
165,,feedback,,html-keyboard-response,165,262363,0.0-1.0-223.0-0.0,0,0,15677,,,,,,31.0,,1.0,,,,,,,,,,,,,,,,,,,,185.0,1.0,,
166,,iti,,html-keyboard-response,166,264364,0.0-1.0-224.0,0,0,15677,,,,,,31.0,,1.0,,,,,,,,,,,,,,,,,,,,187.0,2.0,,
167,,rl_choice,,html-keyboard-response,167,265027,0.0-1.0-226.0,0,0,15677,,661.0,,,75.0,32.0,32.0,1.0,hard,1500.0,1000.0,0.0,40.0,60.0,40.0,80.0,B,A,/static/Simple_RL/Stimuli/Fractals_stims/B.jpg,/static/Simple_RL/Stimuli/Fractals_stims/A.jpg,0.0,60.0,40.0,80.0,40.0,A,B,187.661,0.661,0.0,
168,,rl_choice_confirmation,,html-keyboard-response,168,265868,0.0-1.0-227.0-0.0,0,0,15677,,,,,,32.0,,1.0,,,,,,,,,,,,,,,,,,,,188.5,0.839,,
169,,isi,,html-keyboard-response,169,266869,0.0-1.0-229.0,0,0,15677,,,,,,32.0,,1.0,,,,,,,,,,,,,,,,,,,,189.5,1.0,,
170,,feedback,,html-keyboard-response,170,267872,0.0-1.0-230.0-0.0,0,0,15677,,,,,,32.0,,1.0,,,,,,,,,,,,,,,,,,,,190.5,1.0,,
171,,iti,,html-keyboard-response,171,269373,0.0-1.0-231.0,0,0,15677,,,,,,32.0,,1.0,,,,,,,,,,,,,,,,,,,,192.0,1.5,,
172,,rl_choice,,html-keyboard-response,172,269931,0.0-1.0-233.0,0,0,15677,,557.0,,,75.0,33.0,33.0,1.0,easy,1000.0,1000.0,0.0,20.0,80.0,40.0,100.0,D,C,/static/Simple_RL/Stimuli/Fractals_stims/D.jpg,/static/Simple_RL/Stimuli/Fractals_stims/C.jpg,0.0,80.0,20.0,100.0,40.0,C,D,192.557,0.557,0.0,
173,,rl_choice_confirmation,,html-keyboard-response,173,270876,0.0-1.0-234.0-0.0,0,0,15677,,,,,,33.0,,1.0,,,,,,,,,,,,,,,,,,,,193.5,0.943,,
174,,isi,,html-keyboard-response,174,271877,0.0-1.0-236.0,0,0,15677,,,,,,33.0,,1.0,,,,,,,,,,,,,,,,,,,,194.5,1.0,,
175,,feedback,,html-keyboard-response,175,272879,0.0-1.0-237.0-0.0,0,0,15677,,,,,,33.0,,1.0,,,,,,,,,,,,,,,,,,,,195.5,1.0,,
176,,iti,,html-keyboard-response,176,273880,0.0-1.0-238.0,0,0,15677,,,,,,33.0,,1.0,,,,,,,,,,,,,,,,,,,,196.5,1.0,,
177,,rl_choice,,html-keyboard-response,177,274364,0.0-1.0-240.0,0,0,15677,,483.0,,,68.0,34.0,34.0,1.0,easy,3500.0,3000.0,1.0,80.0,20.0,80.0,40.0,C,D,/static/Simple_RL/Stimuli/Fractals_stims/C.jpg,/static/Simple_RL/Stimuli/Fractals_stims/D.jpg,1.0,80.0,20.0,80.0,40.0,C,D,196.983,0.483,0.0,
178,,rl_choice_confirmation,,html-keyboard-response,178,275384,0.0-1.0-241.0-0.0,0,0,15677,,,,,,34.0,,1.0,,,,,,,,,,,,,,,,,,,,198.0,1.017,,
179,,isi,,html-keyboard-response,179,278386,0.0-1.0-243.0,0,0,15677,,,,,,34.0,,1.0,,,,,,,,,,,,,,,,,,,,201.0,3.0,,
180,,feedback,,html-keyboard-response,180,279389,0.0-1.0-244.0-0.0,0,0,15677,,,,,,34.0,,1.0,,,,,,,,,,,,,,,,,,,,202.0,1.0,,
181,,iti,,html-keyboard-response,181,282890,0.0-1.0-245.0,0,0,15677,,,,,,34.0,,1.0,,,,,,,,,,,,,,,,,,,,205.5,3.5,,
182,,rl_choice,,html-keyboard-response,182,283381,0.0-1.0-247.0,0,0,15677,,490.0,,,68.0,35.0,35.0,1.0,easy,1500.0,2000.0,1.0,80.0,20.0,60.0,40.0,C,D,/static/Simple_RL/Stimuli/Fractals_stims/C.jpg,/static/Simple_RL/Stimuli/Fractals_stims/D.jpg,1.0,80.0,20.0,60.0,40.0,C,D,205.99,0.49,0.0,
183,,rl_choice_confirmation,,html-keyboard-response,183,284393,0.0-1.0-248.0-0.0,0,0,15677,,,,,,35.0,,1.0,,,,,,,,,,,,,,,,,,,,207.0,1.01,,
184,,isi,,html-keyboard-response,184,286396,0.0-1.0-250.0,0,0,15677,,,,,,35.0,,1.0,,,,,,,,,,,,,,,,,,,,209.0,2.0,,
185,,feedback,,html-keyboard-response,185,287399,0.0-1.0-251.0-0.0,0,0,15677,,,,,,35.0,,1.0,,,,,,,,,,,,,,,,,,,,210.0,1.0,,
186,,iti,,html-keyboard-response,186,288901,0.0-1.0-252.0,0,0,15677,,,,,,35.0,,1.0,,,,,,,,,,,,,,,,,,,,211.5,1.5,,
187,,rl_choice,,html-keyboard-response,187,289414,0.0-1.0-254.0,0,0,15677,,512.0,,,75.0,36.0,36.0,1.0,easy,1500.0,1500.0,0.0,20.0,80.0,20.0,100.0,D,C,/static/Simple_RL/Stimuli/Fractals_stims/D.jpg,/static/Simple_RL/Stimuli/Fractals_stims/C.jpg,0.0,80.0,20.0,100.0,20.0,C,D,212.012,0.512,0.0,
188,,rl_choice_confirmation,,html-keyboard-response,188,290404,0.0-1.0-255.0-0.0,0,0,15677,,,,,,36.0,,1.0,,,,,,,,,,,,,,,,,,,,213.0,0.988,,
189,,isi,,html-keyboard-response,189,291906,0.0-1.0-257.0,0,0,15677,,,,,,36.0,,1.0,,,,,,,,,,,,,,,,,,,,214.5,1.5,,
190,,feedback,,html-keyboard-response,190,292910,0.0-1.0-258.0-0.0,0,0,15677,,,,,,36.0,,1.0,,,,,,,,,,,,,,,,,,,,215.5,1.0,,
191,,iti,,html-keyboard-response,191,294411,0.0-1.0-259.0,0,0,15677,,,,,,36.0,,1.0,,,,,,,,,,,,,,,,,,,,217.0,1.5,,
192,,rl_choice,,html-keyboard-response,192,295039,0.0-1.0-261.0,0,0,15677,,625.0,,,68.0,37.0,37.0,1.0,hard,2000.0,1000.0,1.0,60.0,40.0,60.0,40.0,A,B,/static/Simple_RL/Stimuli/Fractals_stims/A.jpg,/static/Simple_RL/Stimuli/Fractals_stims/B.jpg,1.0,60.0,40.0,60.0,40.0,A,B,217.625,0.625,0.0,
193,,rl_choice_confirmation,,html-keyboard-response,193,295916,0.0-1.0-262.0-0.0,0,0,15677,,,,,,37.0,,1.0,,,,,,,,,,,,,,,,,,,,218.5,0.875,,
194,,isi,,html-keyboard-response,194,296918,0.0-1.0-264.0,0,0,15677,,,,,,37.0,,1.0,,,,,,,,,,,,,,,,,,,,219.5,1.0,,
195,,feedback,,html-keyboard-response,195,297920,0.0-1.0-265.0-0.0,0,0,15677,,,,,,37.0,,1.0,,,,,,,,,,,,,,,,,,,,220.5,1.0,,
196,,iti,,html-keyboard-response,196,299921,0.0-1.0-266.0,0,0,15677,,,,,,37.0,,1.0,,,,,,,,,,,,,,,,,,,,222.5,2.0,,
197,,rl_choice,,html-keyboard-response,197,300448,0.0-1.0-268.0,0,0,15677,,524.0,,,75.0,38.0,38.0,1.0,hard,1000.0,1500.0,0.0,40.0,60.0,20.0,40.0,B,A,/static/Simple_RL/Stimuli/Fractals_stims/B.jpg,/static/Simple_RL/Stimuli/Fractals_stims/A.jpg,0.0,60.0,40.0,40.0,20.0,A,B,223.024,0.524,0.0,
198,,rl_choice_confirmation,,html-keyboard-response,198,301426,0.0-1.0-269.0-0.0,0,0,15677,,,,,,38.0,,1.0,,,,,,,,,,,,,,,,,,,,224.0,0.976,,
199,,isi,,html-keyboard-response,199,302927,0.0-1.0-271.0,0,0,15677,,,,,,38.0,,1.0,,,,,,,,,,,,,,,,,,,,225.5,1.5,,
200,,feedback,,html-keyboard-response,200,303930,0.0-1.0-272.0-0.0,0,0,15677,,,,,,38.0,,1.0,,,,,,,,,,,,,,,,,,,,226.5,1.0,,
201,,iti,,html-keyboard-response,201,304932,0.0-1.0-273.0,0,0,15677,,,,,,38.0,,1.0,,,,,,,,,,,,,,,,,,,,227.5,1.0,,
202,,rl_choice,,html-keyboard-response,202,305441,0.0-1.0-275.0,0,0,15677,,507.0,,,68.0,39.0,39.0,1.0,easy,1000.0,1000.0,0.0,20.0,80.0,0.0,60.0,D,C,/static/Simple_RL/Stimuli/Fractals_stims/D.jpg,/static/Simple_RL/Stimuli/Fractals_stims/C.jpg,1.0,20.0,80.0,0.0,60.0,D,C,228.007,0.507,0.0,
203,,rl_choice_confirmation,,html-keyboard-response,203,306436,0.0-1.0-276.0-0.0,0,0,15677,,,,,,39.0,,1.0,,,,,,,,,,,,,,,,,,,,229.0,0.993,,
204,,isi,,html-keyboard-response,204,307437,0.0-1.0-278.0,0,0,15677,,,,,,39.0,,1.0,,,,,,,,,,,,,,,,,,,,230.0,1.0,,
205,,feedback,,html-keyboard-response,205,308439,0.0-1.0-279.0-0.0,0,0,15677,,,,,,39.0,,1.0,,,,,,,,,,,,,,,,,,,,231.0,1.0,,
206,,iti,,html-keyboard-response,206,309441,0.0-1.0-280.0,0,0,15677,,,,,,39.0,,1.0,,,,,,,,,,,,,,,,,,,,232.0,1.0,,
207,,block_over,,html-keyboard-response,207,539065,0.0-1.0-281.0-0.0,0,0,15677,,229621.0,,,68.0,39.0,,,,,,,,,,,,,,,,,,,,,,,,,
208,,start_run,,html-keyboard-response,208,540040,0.0-1.0-281.0-1.0,0,0,15677,,974.0,,,84.0,,,,,,,,,,,,,,,,,,,,,,,,,,
209,,rl_choice,,html-keyboard-response,209,540600,0.0-1.0-282.0,0,0,15677,,558.0,,,68.0,40.0,40.0,2.0,easy,1500.0,2000.0,1.0,80.0,20.0,60.0,20.0,C,D,/static/Simple_RL/Stimuli/Fractals_stims/C.jpg,/static/Simple_RL/Stimuli/Fractals_stims/D.jpg,1.0,80.0,20.0,60.0,20.0,C,D,0.558,0.558,0.0,
210,,rl_choice_confirmation,,html-keyboard-response,210,541545,0.0-1.0-283.0-0.0,0,0,15677,,,,,,40.0,,2.0,,,,,,,,,,,,,,,,,,,,1.5,0.942,,
211,,isi,,html-keyboard-response,211,543547,0.0-1.0-285.0,0,0,15677,,,,,,40.0,,2.0,,,,,,,,,,,,,,,,,,,,3.5,2.0,,
212,,feedback,,html-keyboard-response,212,544549,0.0-1.0-286.0-0.0,0,0,15677,,,,,,40.0,,2.0,,,,,,,,,,,,,,,,,,,,4.5,1.0,,
213,,iti,,html-keyboard-response,213,546052,0.0-1.0-287.0,0,0,15677,,,,,,40.0,,2.0,,,,,,,,,,,,,,,,,,,,6.0,1.5,,
214,,rl_choice,,html-keyboard-response,214,546777,0.0-1.0-289.0,0,0,15677,,724.0,,,75.0,41.0,41.0,2.0,hard,1000.0,2000.0,0.0,40.0,60.0,60.0,60.0,B,A,/static/Simple_RL/Stimuli/Fractals_stims/B.jpg,/static/Simple_RL/Stimuli/Fractals_stims/A.jpg,0.0,60.0,40.0,60.0,60.0,A,B,6.724,0.724,0.0,
215,,rl_choice_confirmation,,html-keyboard-response,215,547557,0.0-1.0-290.0-0.0,0,0,15677,,,,,,41.0,,2.0,,,,,,,,,,,,,,,,,,,,7.5,0.776,,
216,,isi,,html-keyboard-response,216,549559,0.0-1.0-292.0,0,0,15677,,,,,,41.0,,2.0,,,,,,,,,,,,,,,,,,,,9.5,2.0,,
217,,feedback,,html-keyboard-response,217,550561,0.0-1.0-293.0-0.0,0,0,15677,,,,,,41.0,,2.0,,,,,,,,,,,,,,,,,,,,10.5,1.0,,
218,,iti,,html-keyboard-response,218,551563,0.0-1.0-294.0,0,0,15677,,,,,,41.0,,2.0,,,,,,,,,,,,,,,,,,,,11.5,1.0,,
219,,rl_choice,,html-keyboard-response,219,552378,0.0-1.0-296.0,0,0,15677,,814.0,,,68.0,42.0,42.0,2.0,hard,1500.0,1000.0,0.0,40.0,60.0,20.0,80.0,B,A,/static/Simple_RL/Stimuli/Fractals_stims/B.jpg,/static/Simple_RL/Stimuli/Fractals_stims/A.jpg,1.0,40.0,60.0,20.0,80.0,B,A,12.314,0.814,0.0,
220,,rl_choice_confirmation,,html-keyboard-response,220,553066,0.0-1.0-297.0-0.0,0,0,15677,,,,,,42.0,,2.0,,,,,,,,,,,,,,,,,,,,13.0,0.686,,
221,,isi,,html-keyboard-response,221,554068,0.0-1.0-299.0,0,0,15677,,,,,,42.0,,2.0,,,,,,,,,,,,,,,,,,,,14.0,1.0,,
222,,feedback,,html-keyboard-response,222,555071,0.0-1.0-300.0-0.0,0,0,15677,,,,,,42.0,,2.0,,,,,,,,,,,,,,,,,,,,15.0,1.0,,
223,,iti,,html-keyboard-response,223,556574,0.0-1.0-301.0,0,0,15677,,,,,,42.0,,2.0,,,,,,,,,,,,,,,,,,,,16.5,1.5,,
224,,rl_choice,,html-keyboard-response,224,557003,0.0-1.0-303.0,0,0,15677,,427.0,,,75.0,43.0,43.0,2.0,hard,1000.0,2000.0,0.0,40.0,60.0,20.0,80.0,B,A,/static/Simple_RL/Stimuli/Fractals_stims/B.jpg,/static/Simple_RL/Stimuli/Fractals_stims/A.jpg,0.0,60.0,40.0,80.0,20.0,A,B,16.927,0.427,0.0,
225,,rl_choice_confirmation,,html-keyboard-response,225,558079,0.0-1.0-304.0-0.0,0,0,15677,,,,,,43.0,,2.0,,,,,,,,,,,,,,,,,,,,18.0,1.073,,
226,,isi,,html-keyboard-response,226,560080,0.0-1.0-306.0,0,0,15677,,,,,,43.0,,2.0,,,,,,,,,,,,,,,,,,,,20.0,2.0,,
227,,feedback,,html-keyboard-response,227,561082,0.0-1.0-307.0-0.0,0,0,15677,,,,,,43.0,,2.0,,,,,,,,,,,,,,,,,,,,21.0,1.0,,
228,,iti,,html-keyboard-response,228,562083,0.0-1.0-308.0,0,0,15677,,,,,,43.0,,2.0,,,,,,,,,,,,,,,,,,,,22.0,1.0,,
229,,rl_choice,,html-keyboard-response,229,562700,0.0-1.0-310.0,0,0,15677,,615.0,,,75.0,44.0,44.0,2.0,hard,1000.0,1000.0,0.0,40.0,60.0,40.0,40.0,B,A,/static/Simple_RL/Stimuli/Fractals_stims/B.jpg,/static/Simple_RL/Stimuli/Fractals_stims/A.jpg,0.0,60.0,40.0,40.0,40.0,A,B,22.615,0.615,0.0,
230,,rl_choice_confirmation,,html-keyboard-response,230,563587,0.0-1.0-311.0-0.0,0,0,15677,,,,,,44.0,,2.0,,,,,,,,,,,,,,,,,,,,23.5,0.885,,
231,,isi,,html-keyboard-response,231,564590,0.0-1.0-313.0,0,0,15677,,,,,,44.0,,2.0,,,,,,,,,,,,,,,,,,,,24.5,1.0,,
232,,feedback,,html-keyboard-response,232,565593,0.0-1.0-314.0-0.0,0,0,15677,,,,,,44.0,,2.0,,,,,,,,,,,,,,,,,,,,25.5,1.0,,
233,,iti,,html-keyboard-response,233,566595,0.0-1.0-315.0,0,0,15677,,,,,,44.0,,2.0,,,,,,,,,,,,,,,,,,,,26.5,1.0,,
234,,rl_choice,,html-keyboard-response,234,567124,0.0-1.0-317.0,0,0,15677,,527.0,,,75.0,45.0,45.0,2.0,hard,2000.0,1500.0,0.0,40.0,60.0,20.0,40.0,B,A,/static/Simple_RL/Stimuli/Fractals_stims/B.jpg,/static/Simple_RL/Stimuli/Fractals_stims/A.jpg,0.0,60.0,40.0,40.0,20.0,A,B,27.027,0.527,0.0,
235,,rl_choice_confirmation,,html-keyboard-response,235,568099,0.0-1.0-318.0-0.0,0,0,15677,,,,,,45.0,,2.0,,,,,,,,,,,,,,,,,,,,28.0,0.973,,
236,,isi,,html-keyboard-response,236,569601,0.0-1.0-320.0,0,0,15677,,,,,,45.0,,2.0,,,,,,,,,,,,,,,,,,,,29.5,1.5,,
237,,feedback,,html-keyboard-response,237,570604,0.0-1.0-321.0-0.0,0,0,15677,,,,,,45.0,,2.0,,,,,,,,,,,,,,,,,,,,30.5,1.0,,
238,,iti,,html-keyboard-response,238,572605,0.0-1.0-322.0,0,0,15677,,,,,,45.0,,2.0,,,,,,,,,,,,,,,,,,,,32.5,2.0,,
239,,rl_choice,,html-keyboard-response,239,573333,0.0-1.0-324.0,0,0,15677,,727.0,,,75.0,46.0,46.0,2.0,easy,1500.0,3000.0,0.0,20.0,80.0,0.0,80.0,D,C,/static/Simple_RL/Stimuli/Fractals_stims/D.jpg,/static/Simple_RL/Stimuli/Fractals_stims/C.jpg,0.0,80.0,20.0,80.0,0.0,C,D,33.227,0.727,0.0,
240,,rl_choice_confirmation,,html-keyboard-response,240,574108,0.0-1.0-325.0-0.0,0,0,15677,,,,,,46.0,,2.0,,,,,,,,,,,,,,,,,,,,34.0,0.773,,
241,,isi,,html-keyboard-response,241,577109,0.0-1.0-327.0,0,0,15677,,,,,,46.0,,2.0,,,,,,,,,,,,,,,,,,,,37.0,3.0,,
242,,feedback,,html-keyboard-response,242,578112,0.0-1.0-328.0-0.0,0,0,15677,,,,,,46.0,,2.0,,,,,,,,,,,,,,,,,,,,38.0,1.0,,
243,,iti,,html-keyboard-response,243,579613,0.0-1.0-329.0,0,0,15677,,,,,,46.0,,2.0,,,,,,,,,,,,,,,,,,,,39.5,1.5,,
244,,rl_choice,,html-keyboard-response,244,580094,0.0-1.0-331.0,0,0,15677,,479.0,,,75.0,47.0,47.0,2.0,easy,1500.0,1000.0,0.0,20.0,80.0,20.0,80.0,D,C,/static/Simple_RL/Stimuli/Fractals_stims/D.jpg,/static/Simple_RL/Stimuli/Fractals_stims/C.jpg,0.0,80.0,20.0,80.0,20.0,C,D,39.979,0.479,0.0,
245,,rl_choice_confirmation,,html-keyboard-response,245,581117,0.0-1.0-332.0-0.0,0,0,15677,,,,,,47.0,,2.0,,,,,,,,,,,,,,,,,,,,41.0,1.021,,
246,,isi,,html-keyboard-response,246,582119,0.0-1.0-334.0,0,0,15677,,,,,,47.0,,2.0,,,,,,,,,,,,,,,,,,,,42.0,1.0,,
247,,feedback,,html-keyboard-response,247,583122,0.0-1.0-335.0-0.0,0,0,15677,,,,,,47.0,,2.0,,,,,,,,,,,,,,,,,,,,43.0,1.0,,
248,,iti,,html-keyboard-response,248,584624,0.0-1.0-336.0,0,0,15677,,,,,,47.0,,2.0,,,,,,,,,,,,,,,,,,,,44.5,1.5,,
249,,rl_choice,,html-keyboard-response,249,585183,0.0-1.0-338.0,0,0,15677,,557.0,,,68.0,48.0,48.0,2.0,easy,2000.0,1000.0,1.0,80.0,20.0,80.0,20.0,C,D,/static/Simple_RL/Stimuli/Fractals_stims/C.jpg,/static/Simple_RL/Stimuli/Fractals_stims/D.jpg,1.0,80.0,20.0,80.0,20.0,C,D,45.057,0.557,0.0,
250,,rl_choice_confirmation,,html-keyboard-response,250,586128,0.0-1.0-339.0-0.0,0,0,15677,,,,,,48.0,,2.0,,,,,,,,,,,,,,,,,,,,46.0,0.943,,
251,,isi,,html-keyboard-response,251,587130,0.0-1.0-341.0,0,0,15677,,,,,,48.0,,2.0,,,,,,,,,,,,,,,,,,,,47.0,1.0,,
252,,feedback,,html-keyboard-response,252,588132,0.0-1.0-342.0-0.0,0,0,15677,,,,,,48.0,,2.0,,,,,,,,,,,,,,,,,,,,48.0,1.0,,
253,,iti,,html-keyboard-response,253,590134,0.0-1.0-343.0,0,0,15677,,,,,,48.0,,2.0,,,,,,,,,,,,,,,,,,,,50.0,2.0,,
254,,rl_choice,,html-keyboard-response,254,590743,0.0-1.0-345.0,0,0,15677,,608.0,,,75.0,49.0,49.0,2.0,hard,1500.0,2000.0,0.0,40.0,60.0,60.0,60.0,B,A,/static/Simple_RL/Stimuli/Fractals_stims/B.jpg,/static/Simple_RL/Stimuli/Fractals_stims/A.jpg,0.0,60.0,40.0,60.0,60.0,A,B,50.608,0.608,0.0,
255,,rl_choice_confirmation,,html-keyboard-response,255,591638,0.0-1.0-346.0-0.0,0,0,15677,,,,,,49.0,,2.0,,,,,,,,,,,,,,,,,,,,51.5,0.892,,
256,,isi,,html-keyboard-response,256,593640,0.0-1.0-348.0,0,0,15677,,,,,,49.0,,2.0,,,,,,,,,,,,,,,,,,,,53.5,2.0,,
257,,feedback,,html-keyboard-response,257,594643,0.0-1.0-349.0-0.0,0,0,15677,,,,,,49.0,,2.0,,,,,,,,,,,,,,,,,,,,54.5,1.0,,
258,,iti,,html-keyboard-response,258,596145,0.0-1.0-350.0,0,0,15677,,,,,,49.0,,2.0,,,,,,,,,,,,,,,,,,,,56.0,1.5,,
259,,rl_choice,,html-keyboard-response,259,596600,0.0-1.0-352.0,0,0,15677,,454.0,,,75.0,50.0,50.0,2.0,easy,1000.0,3500.0,0.0,20.0,80.0,0.0,100.0,D,C,/static/Simple_RL/Stimuli/Fractals_stims/D.jpg,/static/Simple_RL/Stimuli/Fractals_stims/C.jpg,0.0,80.0,20.0,100.0,0.0,C,D,56.454,0.454,0.0,
260,,rl_choice_confirmation,,html-keyboard-response,260,597649,0.0-1.0-353.0-0.0,0,0,15677,,,,,,50.0,,2.0,,,,,,,,,,,,,,,,,,,,57.5,1.046,,
261,,isi,,html-keyboard-response,261,601151,0.0-1.0-355.0,0,0,15677,,,,,,50.0,,2.0,,,,,,,,,,,,,,,,,,,,61.0,3.5,,
262,,feedback,,html-keyboard-response,262,602161,0.0-1.0-356.0-0.0,0,0,15677,,,,,,50.0,,2.0,,,,,,,,,,,,,,,,,,,,62.0,1.0,,
263,,iti,,html-keyboard-response,263,603163,0.0-1.0-357.0,0,0,15677,,,,,,50.0,,2.0,,,,,,,,,,,,,,,,,,,,63.0,1.0,,
264,,rl_choice,,html-keyboard-response,264,603705,0.0-1.0-359.0,0,0,15677,,540.0,,,68.0,51.0,51.0,2.0,easy,1500.0,1000.0,1.0,80.0,20.0,60.0,20.0,C,D,/static/Simple_RL/Stimuli/Fractals_stims/C.jpg,/static/Simple_RL/Stimuli/Fractals_stims/D.jpg,1.0,80.0,20.0,60.0,20.0,C,D,63.54,0.54,0.0,
265,,rl_choice_confirmation,,html-keyboard-response,265,604667,0.0-1.0-360.0-0.0,0,0,15677,,,,,,51.0,,2.0,,,,,,,,,,,,,,,,,,,,64.5,0.96,,
266,,isi,,html-keyboard-response,266,605671,0.0-1.0-362.0,0,0,15677,,,,,,51.0,,2.0,,,,,,,,,,,,,,,,,,,,65.5,1.0,,
267,,feedback,,html-keyboard-response,267,606672,0.0-1.0-363.0-0.0,0,0,15677,,,,,,51.0,,2.0,,,,,,,,,,,,,,,,,,,,66.5,1.0,,
268,,iti,,html-keyboard-response,268,608174,0.0-1.0-364.0,0,0,15677,,,,,,51.0,,2.0,,,,,,,,,,,,,,,,,,,,68.0,1.5,,
269,,rl_choice,,html-keyboard-response,269,608858,0.0-1.0-366.0,0,0,15677,,682.0,,,75.0,52.0,52.0,2.0,hard,2000.0,1500.0,0.0,40.0,60.0,20.0,80.0,B,A,/static/Simple_RL/Stimuli/Fractals_stims/B.jpg,/static/Simple_RL/Stimuli/Fractals_stims/A.jpg,0.0,60.0,40.0,80.0,20.0,A,B,68.682,0.682,0.0,
270,,rl_choice_confirmation,,html-keyboard-response,270,609678,0.0-1.0-367.0-0.0,0,0,15677,,,,,,52.0,,2.0,,,,,,,,,,,,,,,,,,,,69.5,0.818,,
271,,isi,,html-keyboard-response,271,611180,0.0-1.0-369.0,0,0,15677,,,,,,52.0,,2.0,,,,,,,,,,,,,,,,,,,,71.0,1.5,,
272,,feedback,,html-keyboard-response,272,612182,0.0-1.0-370.0-0.0,0,0,15677,,,,,,52.0,,2.0,,,,,,,,,,,,,,,,,,,,72.0,1.0,,
273,,iti,,html-keyboard-response,273,614184,0.0-1.0-371.0,0,0,15677,,,,,,52.0,,2.0,,,,,,,,,,,,,,,,,,,,74.0,2.0,,
274,,rl_choice,,html-keyboard-response,274,614739,0.0-1.0-373.0,0,0,15677,,554.0,,,75.0,53.0,53.0,2.0,hard,3000.0,1500.0,0.0,40.0,60.0,20.0,40.0,B,A,/static/Simple_RL/Stimuli/Fractals_stims/B.jpg,/static/Simple_RL/Stimuli/Fractals_stims/A.jpg,0.0,60.0,40.0,40.0,20.0,A,B,74.554,0.554,0.0,
275,,rl_choice_confirmation,,html-keyboard-response,275,615687,0.0-1.0-374.0-0.0,0,0,15677,,,,,,53.0,,2.0,,,,,,,,,,,,,,,,,,,,75.5,0.946,,
276,,isi,,html-keyboard-response,276,617189,0.0-1.0-376.0,0,0,15677,,,,,,53.0,,2.0,,,,,,,,,,,,,,,,,,,,77.0,1.5,,
277,,feedback,,html-keyboard-response,277,618192,0.0-1.0-377.0-0.0,0,0,15677,,,,,,53.0,,2.0,,,,,,,,,,,,,,,,,,,,78.0,1.0,,
278,,iti,,html-keyboard-response,278,621193,0.0-1.0-378.0,0,0,15677,,,,,,53.0,,2.0,,,,,,,,,,,,,,,,,,,,81.0,3.0,,
279,,rl_choice,,html-keyboard-response,279,621868,0.0-1.0-380.0,0,0,15677,,674.0,,,75.0,54.0,54.0,2.0,easy,3000.0,1500.0,0.0,20.0,80.0,20.0,100.0,D,C,/static/Simple_RL/Stimuli/Fractals_stims/D.jpg,/static/Simple_RL/Stimuli/Fractals_stims/C.jpg,0.0,80.0,20.0,100.0,20.0,C,D,81.674,0.674,0.0,
280,,rl_choice_confirmation,,html-keyboard-response,280,622695,0.0-1.0-381.0-0.0,0,0,15677,,,,,,54.0,,2.0,,,,,,,,,,,,,,,,,,,,82.5,0.826,,
281,,isi,,html-keyboard-response,281,624197,0.0-1.0-383.0,0,0,15677,,,,,,54.0,,2.0,,,,,,,,,,,,,,,,,,,,84.0,1.5,,
282,,feedback,,html-keyboard-response,282,625200,0.0-1.0-384.0-0.0,0,0,15677,,,,,,54.0,,2.0,,,,,,,,,,,,,,,,,,,,85.0,1.0,,
283,,iti,,html-keyboard-response,283,628203,0.0-1.0-385.0,0,0,15677,,,,,,54.0,,2.0,,,,,,,,,,,,,,,,,,,,88.0,3.0,,
284,,rl_choice,,html-keyboard-response,284,628773,0.0-1.0-387.0,0,0,15677,,568.0,,,68.0,55.0,55.0,2.0,easy,1500.0,1500.0,1.0,80.0,20.0,80.0,20.0,C,D,/static/Simple_RL/Stimuli/Fractals_stims/C.jpg,/static/Simple_RL/Stimuli/Fractals_stims/D.jpg,1.0,80.0,20.0,80.0,20.0,C,D,88.568,0.568,0.0,
285,,rl_choice_confirmation,,html-keyboard-response,285,629707,0.0-1.0-388.0-0.0,0,0,15677,,,,,,55.0,,2.0,,,,,,,,,,,,,,,,,,,,89.5,0.932,,
286,,isi,,html-keyboard-response,286,631209,0.0-1.0-390.0,0,0,15677,,,,,,55.0,,2.0,,,,,,,,,,,,,,,,,,,,91.0,1.5,,
287,,feedback,,html-keyboard-response,287,632211,0.0-1.0-391.0-0.0,0,0,15677,,,,,,55.0,,2.0,,,,,,,,,,,,,,,,,,,,92.0,1.0,,
288,,iti,,html-keyboard-response,288,633712,0.0-1.0-392.0,0,0,15677,,,,,,55.0,,2.0,,,,,,,,,,,,,,,,,,,,93.5,1.5,,
289,,rl_choice,,html-keyboard-response,289,634429,0.0-1.0-394.0,0,0,15677,,716.0,,,75.0,56.0,56.0,2.0,easy,2000.0,2000.0,0.0,20.0,80.0,40.0,80.0,D,C,/static/Simple_RL/Stimuli/Fractals_stims/D.jpg,/static/Simple_RL/Stimuli/Fractals_stims/C.jpg,0.0,80.0,20.0,80.0,40.0,C,D,94.216,0.716,0.0,
290,,rl_choice_confirmation,,html-keyboard-response,290,635215,0.0-1.0-395.0-0.0,0,0,15677,,,,,,56.0,,2.0,,,,,,,,,,,,,,,,,,,,95.0,0.784,,
291,,isi,,html-keyboard-response,291,637217,0.0-1.0-397.0,0,0,15677,,,,,,56.0,,2.0,,,,,,,,,,,,,,,,,,,,97.0,2.0,,
292,,feedback,,html-keyboard-response,292,638219,0.0-1.0-398.0-0.0,0,0,15677,,,,,,56.0,,2.0,,,,,,,,,,,,,,,,,,,,98.0,1.0,,
293,,iti,,html-keyboard-response,293,640221,0.0-1.0-399.0,0,0,15677,,,,,,56.0,,2.0,,,,,,,,,,,,,,,,,,,,100.0,2.0,,
294,,rl_choice,,html-keyboard-response,294,640678,0.0-1.0-401.0,0,0,15677,,456.0,,,75.0,57.0,57.0,2.0,easy,1000.0,1000.0,0.0,20.0,80.0,20.0,80.0,D,C,/static/Simple_RL/Stimuli/Fractals_stims/D.jpg,/static/Simple_RL/Stimuli/Fractals_stims/C.jpg,0.0,80.0,20.0,80.0,20.0,C,D,100.456,0.456,0.0,
295,,rl_choice_confirmation,,html-keyboard-response,295,641725,0.0-1.0-402.0-0.0,0,0,15677,,,,,,57.0,,2.0,,,,,,,,,,,,,,,,,,,,101.5,1.044,,
296,,isi,,html-keyboard-response,296,642727,0.0-1.0-404.0,0,0,15677,,,,,,57.0,,2.0,,,,,,,,,,,,,,,,,,,,102.5,1.0,,
297,,feedback,,html-keyboard-response,297,643729,0.0-1.0-405.0-0.0,0,0,15677,,,,,,57.0,,2.0,,,,,,,,,,,,,,,,,,,,103.5,1.0,,
298,,iti,,html-keyboard-response,298,644731,0.0-1.0-406.0,0,0,15677,,,,,,57.0,,2.0,,,,,,,,,,,,,,,,,,,,104.5,1.0,,
299,,rl_choice,,html-keyboard-response,299,645343,0.0-1.0-408.0,0,0,15677,,610.0,,,75.0,58.0,58.0,2.0,easy,1000.0,1000.0,0.0,20.0,80.0,20.0,60.0,D,C,/static/Simple_RL/Stimuli/Fractals_stims/D.jpg,/static/Simple_RL/Stimuli/Fractals_stims/C.jpg,0.0,80.0,20.0,60.0,20.0,C,D,105.11,0.61,0.0,
300,,rl_choice_confirmation,,html-keyboard-response,300,646235,0.0-1.0-409.0-0.0,0,0,15677,,,,,,58.0,,2.0,,,,,,,,,,,,,,,,,,,,106.0,0.89,,
301,,isi,,html-keyboard-response,301,647237,0.0-1.0-411.0,0,0,15677,,,,,,58.0,,2.0,,,,,,,,,,,,,,,,,,,,107.0,1.0,,
302,,feedback,,html-keyboard-response,302,648239,0.0-1.0-412.0-0.0,0,0,15677,,,,,,58.0,,2.0,,,,,,,,,,,,,,,,,,,,108.0,1.0,,
303,,iti,,html-keyboard-response,303,649241,0.0-1.0-413.0,0,0,15677,,,,,,58.0,,2.0,,,,,,,,,,,,,,,,,,,,109.0,1.0,,
304,,rl_choice,,html-keyboard-response,304,650072,0.0-1.0-415.0,0,0,15677,,828.0,,,68.0,59.0,59.0,2.0,hard,1500.0,1000.0,1.0,60.0,40.0,80.0,40.0,A,B,/static/Simple_RL/Stimuli/Fractals_stims/A.jpg,/static/Simple_RL/Stimuli/Fractals_stims/B.jpg,1.0,60.0,40.0,80.0,40.0,A,B,109.828,0.828,0.0,
305,,rl_choice_confirmation,,html-keyboard-response,305,650746,0.0-1.0-416.0-0.0,0,0,15677,,,,,,59.0,,2.0,,,,,,,,,,,,,,,,,,,,110.5,0.672,,
306,,isi,,html-keyboard-response,306,651748,0.0-1.0-418.0,0,0,15677,,,,,,59.0,,2.0,,,,,,,,,,,,,,,,,,,,111.5,1.0,,
307,,feedback,,html-keyboard-response,307,652751,0.0-1.0-419.0-0.0,0,0,15677,,,,,,59.0,,2.0,,,,,,,,,,,,,,,,,,,,112.5,1.0,,
308,,iti,,html-keyboard-response,308,654253,0.0-1.0-420.0,0,0,15677,,,,,,59.0,,2.0,,,,,,,,,,,,,,,,,,,,114.0,1.5,,
309,,rl_choice,,html-keyboard-response,309,654816,0.0-1.0-422.0,0,0,15677,,561.0,,,68.0,60.0,60.0,2.0,hard,1500.0,1000.0,1.0,60.0,40.0,40.0,40.0,A,B,/static/Simple_RL/Stimuli/Fractals_stims/A.jpg,/static/Simple_RL/Stimuli/Fractals_stims/B.jpg,1.0,60.0,40.0,40.0,40.0,A,B,114.561,0.561,0.0,
310,,rl_choice_confirmation,,html-keyboard-response,310,655757,0.0-1.0-423.0-0.0,0,0,15677,,,,,,60.0,,2.0,,,,,,,,,,,,,,,,,,,,115.5,0.939,,
311,,isi,,html-keyboard-response,311,656759,0.0-1.0-425.0,0,0,15677,,,,,,60.0,,2.0,,,,,,,,,,,,,,,,,,,,116.5,1.0,,
312,,feedback,,html-keyboard-response,312,657761,0.0-1.0-426.0-0.0,0,0,15677,,,,,,60.0,,2.0,,,,,,,,,,,,,,,,,,,,117.5,1.0,,
313,,iti,,html-keyboard-response,313,659264,0.0-1.0-427.0,0,0,15677,,,,,,60.0,,2.0,,,,,,,,,,,,,,,,,,,,119.0,1.5,,
314,,rl_choice,,html-keyboard-response,314,659705,0.0-1.0-429.0,0,0,15677,,439.0,,,68.0,61.0,61.0,2.0,hard,1000.0,1000.0,1.0,60.0,40.0,40.0,60.0,A,B,/static/Simple_RL/Stimuli/Fractals_stims/A.jpg,/static/Simple_RL/Stimuli/Fractals_stims/B.jpg,1.0,60.0,40.0,40.0,60.0,A,B,119.439,0.439,0.0,
315,,rl_choice_confirmation,,html-keyboard-response,315,660769,0.0-1.0-430.0-0.0,0,0,15677,,,,,,61.0,,2.0,,,,,,,,,,,,,,,,,,,,120.5,1.061,,
316,,isi,,html-keyboard-response,316,661771,0.0-1.0-432.0,0,0,15677,,,,,,61.0,,2.0,,,,,,,,,,,,,,,,,,,,121.5,1.0,,
317,,feedback,,html-keyboard-response,317,662774,0.0-1.0-433.0-0.0,0,0,15677,,,,,,61.0,,2.0,,,,,,,,,,,,,,,,,,,,122.5,1.0,,
318,,iti,,html-keyboard-response,318,663776,0.0-1.0-434.0,0,0,15677,,,,,,61.0,,2.0,,,,,,,,,,,,,,,,,,,,123.5,1.0,,
319,,rl_choice,,html-keyboard-response,319,664858,0.0-1.0-436.0,0,0,15677,,1080.0,,,75.0,62.0,62.0,2.0,hard,1000.0,3000.0,1.0,60.0,40.0,60.0,20.0,A,B,/static/Simple_RL/Stimuli/Fractals_stims/A.jpg,/static/Simple_RL/Stimuli/Fractals_stims/B.jpg,0.0,40.0,60.0,20.0,60.0,B,A,124.58,1.08,0.0,
320,,rl_choice_confirmation,,html-keyboard-response,320,665279,0.0-1.0-437.0-0.0,0,0,15677,,,,,,62.0,,2.0,,,,,,,,,,,,,,,,,,,,125.0,0.42,,
321,,isi,,html-keyboard-response,321,668281,0.0-1.0-439.0,0,0,15677,,,,,,62.0,,2.0,,,,,,,,,,,,,,,,,,,,128.0,3.0,,
322,,feedback,,html-keyboard-response,322,669283,0.0-1.0-440.0-0.0,0,0,15677,,,,,,62.0,,2.0,,,,,,,,,,,,,,,,,,,,129.0,1.0,,
323,,iti,,html-keyboard-response,323,670286,0.0-1.0-441.0,0,0,15677,,,,,,62.0,,2.0,,,,,,,,,,,,,,,,,,,,130.0,1.0,,
324,,rl_choice,,html-keyboard-response,324,670843,0.0-1.0-443.0,0,0,15677,,556.0,,,75.0,63.0,63.0,2.0,easy,2000.0,1500.0,0.0,20.0,80.0,20.0,60.0,D,C,/static/Simple_RL/Stimuli/Fractals_stims/D.jpg,/static/Simple_RL/Stimuli/Fractals_stims/C.jpg,0.0,80.0,20.0,60.0,20.0,C,D,130.556,0.556,0.0,
325,,rl_choice_confirmation,,html-keyboard-response,325,671791,0.0-1.0-444.0-0.0,0,0,15677,,,,,,63.0,,2.0,,,,,,,,,,,,,,,,,,,,131.5,0.944,,
326,,isi,,html-keyboard-response,326,673293,0.0-1.0-446.0,0,0,15677,,,,,,63.0,,2.0,,,,,,,,,,,,,,,,,,,,133.0,1.5,,
327,,feedback,,html-keyboard-response,327,674295,0.0-1.0-447.0-0.0,0,0,15677,,,,,,63.0,,2.0,,,,,,,,,,,,,,,,,,,,134.0,1.0,,
328,,iti,,html-keyboard-response,328,676297,0.0-1.0-448.0,0,0,15677,,,,,,63.0,,2.0,,,,,,,,,,,,,,,,,,,,136.0,2.0,,
329,,rl_choice,,html-keyboard-response,329,676883,0.0-1.0-450.0,0,0,15677,,585.0,,,68.0,64.0,64.0,2.0,easy,2000.0,1000.0,1.0,80.0,20.0,100.0,20.0,C,D,/static/Simple_RL/Stimuli/Fractals_stims/C.jpg,/static/Simple_RL/Stimuli/Fractals_stims/D.jpg,1.0,80.0,20.0,100.0,20.0,C,D,136.585,0.585,0.0,
330,,rl_choice_confirmation,,html-keyboard-response,330,677799,0.0-1.0-451.0-0.0,0,0,15677,,,,,,64.0,,2.0,,,,,,,,,,,,,,,,,,,,137.5,0.915,,
331,,isi,,html-keyboard-response,331,678801,0.0-1.0-453.0,0,0,15677,,,,,,64.0,,2.0,,,,,,,,,,,,,,,,,,,,138.5,1.0,,
332,,feedback,,html-keyboard-response,332,679803,0.0-1.0-454.0-0.0,0,0,15677,,,,,,64.0,,2.0,,,,,,,,,,,,,,,,,,,,139.5,1.0,,
333,,iti,,html-keyboard-response,333,681805,0.0-1.0-455.0,0,0,15677,,,,,,64.0,,2.0,,,,,,,,,,,,,,,,,,,,141.5,2.0,,
334,,rl_choice,,html-keyboard-response,334,682444,0.0-1.0-457.0,0,0,15677,,637.0,,,68.0,65.0,65.0,2.0,hard,2000.0,1500.0,1.0,60.0,40.0,60.0,40.0,A,B,/static/Simple_RL/Stimuli/Fractals_stims/A.jpg,/static/Simple_RL/Stimuli/Fractals_stims/B.jpg,1.0,60.0,40.0,60.0,40.0,A,B,142.137,0.637,0.0,
335,,rl_choice_confirmation,,html-keyboard-response,335,683309,0.0-1.0-458.0-0.0,0,0,15677,,,,,,65.0,,2.0,,,,,,,,,,,,,,,,,,,,143.0,0.863,,
336,,isi,,html-keyboard-response,336,684810,0.0-1.0-460.0,0,0,15677,,,,,,65.0,,2.0,,,,,,,,,,,,,,,,,,,,144.5,1.5,,
337,,feedback,,html-keyboard-response,337,685813,0.0-1.0-461.0-0.0,0,0,15677,,,,,,65.0,,2.0,,,,,,,,,,,,,,,,,,,,145.5,1.0,,
338,,iti,,html-keyboard-response,338,687815,0.0-1.0-462.0,0,0,15677,,,,,,65.0,,2.0,,,,,,,,,,,,,,,,,,,,147.5,2.0,,
339,,rl_choice,,html-keyboard-response,339,689037,0.0-1.0-464.0,0,0,15677,,1220.0,,,68.0,66.0,66.0,2.0,hard,3000.0,1000.0,1.0,60.0,40.0,60.0,20.0,A,B,/static/Simple_RL/Stimuli/Fractals_stims/A.jpg,/static/Simple_RL/Stimuli/Fractals_stims/B.jpg,1.0,60.0,40.0,60.0,20.0,A,B,148.72,1.22,0.0,
340,,rl_choice_confirmation,,html-keyboard-response,340,689320,0.0-1.0-465.0-0.0,0,0,15677,,,,,,66.0,,2.0,,,,,,,,,,,,,,,,,,,,149.0,0.28,,
341,,isi,,html-keyboard-response,341,690322,0.0-1.0-467.0,0,0,15677,,,,,,66.0,,2.0,,,,,,,,,,,,,,,,,,,,150.0,1.0,,
342,,feedback,,html-keyboard-response,342,691325,0.0-1.0-468.0-0.0,0,0,15677,,,,,,66.0,,2.0,,,,,,,,,,,,,,,,,,,,151.0,1.0,,
343,,iti,,html-keyboard-response,343,694326,0.0-1.0-469.0,0,0,15677,,,,,,66.0,,2.0,,,,,,,,,,,,,,,,,,,,154.0,3.0,,
344,,rl_choice,,html-keyboard-response,344,695262,0.0-1.0-471.0,0,0,15677,,934.0,,,68.0,67.0,67.0,2.0,easy,3500.0,2000.0,1.0,80.0,20.0,60.0,40.0,C,D,/static/Simple_RL/Stimuli/Fractals_stims/C.jpg,/static/Simple_RL/Stimuli/Fractals_stims/D.jpg,1.0,80.0,20.0,60.0,40.0,C,D,154.934,0.934,0.0,
345,,rl_choice_confirmation,,html-keyboard-response,345,695831,0.0-1.0-472.0-0.0,0,0,15677,,,,,,67.0,,2.0,,,,,,,,,,,,,,,,,,,,155.5,0.566,,
346,,isi,,html-keyboard-response,346,697834,0.0-1.0-474.0,0,0,15677,,,,,,67.0,,2.0,,,,,,,,,,,,,,,,,,,,157.5,2.0,,
347,,feedback,,html-keyboard-response,347,698835,0.0-1.0-475.0-0.0,0,0,15677,,,,,,67.0,,2.0,,,,,,,,,,,,,,,,,,,,158.5,1.0,,
348,,iti,,html-keyboard-response,348,702337,0.0-1.0-476.0,0,0,15677,,,,,,67.0,,2.0,,,,,,,,,,,,,,,,,,,,162.0,3.5,,
349,,rl_choice,,html-keyboard-response,349,702903,0.0-1.0-478.0,0,0,15677,,564.0,,,75.0,68.0,68.0,2.0,easy,3000.0,2000.0,0.0,20.0,80.0,40.0,80.0,D,C,/static/Simple_RL/Stimuli/Fractals_stims/D.jpg,/static/Simple_RL/Stimuli/Fractals_stims/C.jpg,0.0,80.0,20.0,80.0,40.0,C,D,162.564,0.564,0.0,
350,,rl_choice_confirmation,,html-keyboard-response,350,703842,0.0-1.0-479.0-0.0,0,0,15677,,,,,,68.0,,2.0,,,,,,,,,,,,,,,,,,,,163.5,0.936,,
351,,isi,,html-keyboard-response,351,705844,0.0-1.0-481.0,0,0,15677,,,,,,68.0,,2.0,,,,,,,,,,,,,,,,,,,,165.5,2.0,,
352,,feedback,,html-keyboard-response,352,706846,0.0-1.0-482.0-0.0,0,0,15677,,,,,,68.0,,2.0,,,,,,,,,,,,,,,,,,,,166.5,1.0,,
353,,iti,,html-keyboard-response,353,709847,0.0-1.0-483.0,0,0,15677,,,,,,68.0,,2.0,,,,,,,,,,,,,,,,,,,,169.5,3.0,,
354,,rl_choice,,html-keyboard-response,354,710352,0.0-1.0-485.0,0,0,15677,,503.0,,,75.0,69.0,69.0,2.0,hard,2000.0,1000.0,1.0,60.0,40.0,40.0,60.0,A,B,/static/Simple_RL/Stimuli/Fractals_stims/A.jpg,/static/Simple_RL/Stimuli/Fractals_stims/B.jpg,0.0,40.0,60.0,60.0,40.0,B,A,170.003,0.503,0.0,
355,,rl_choice_confirmation,,html-keyboard-response,355,711351,0.0-1.0-486.0-0.0,0,0,15677,,,,,,69.0,,2.0,,,,,,,,,,,,,,,,,,,,171.0,0.997,,
356,,isi,,html-keyboard-response,356,712352,0.0-1.0-488.0,0,0,15677,,,,,,69.0,,2.0,,,,,,,,,,,,,,,,,,,,172.0,1.0,,
357,,feedback,,html-keyboard-response,357,713355,0.0-1.0-489.0-0.0,0,0,15677,,,,,,69.0,,2.0,,,,,,,,,,,,,,,,,,,,173.0,1.0,,
358,,iti,,html-keyboard-response,358,715357,0.0-1.0-490.0,0,0,15677,,,,,,69.0,,2.0,,,,,,,,,,,,,,,,,,,,175.0,2.0,,
359,,rl_choice,,html-keyboard-response,359,716017,0.0-1.0-492.0,0,0,15677,,659.0,,,68.0,70.0,70.0,2.0,hard,1000.0,3500.0,1.0,60.0,40.0,80.0,40.0,A,B,/static/Simple_RL/Stimuli/Fractals_stims/A.jpg,/static/Simple_RL/Stimuli/Fractals_stims/B.jpg,1.0,60.0,40.0,80.0,40.0,A,B,175.659,0.659,0.0,
360,,rl_choice_confirmation,,html-keyboard-response,360,716860,0.0-1.0-493.0-0.0,0,0,15677,,,,,,70.0,,2.0,,,,,,,,,,,,,,,,,,,,176.5,0.841,,
361,,isi,,html-keyboard-response,361,720363,0.0-1.0-495.0,0,0,15677,,,,,,70.0,,2.0,,,,,,,,,,,,,,,,,,,,180.0,3.5,,
362,,feedback,,html-keyboard-response,362,721366,0.0-1.0-496.0-0.0,0,0,15677,,,,,,70.0,,2.0,,,,,,,,,,,,,,,,,,,,181.0,1.0,,
363,,iti,,html-keyboard-response,363,722368,0.0-1.0-497.0,0,0,15677,,,,,,70.0,,2.0,,,,,,,,,,,,,,,,,,,,182.0,1.0,,
364,,rl_choice,,html-keyboard-response,364,722882,0.0-1.0-499.0,0,0,15677,,512.0,,,68.0,71.0,71.0,2.0,hard,1000.0,1500.0,1.0,60.0,40.0,40.0,40.0,A,B,/static/Simple_RL/Stimuli/Fractals_stims/A.jpg,/static/Simple_RL/Stimuli/Fractals_stims/B.jpg,1.0,60.0,40.0,40.0,40.0,A,B,182.512,0.512,0.0,
365,,rl_choice_confirmation,,html-keyboard-response,365,723872,0.0-1.0-500.0-0.0,0,0,15677,,,,,,71.0,,2.0,,,,,,,,,,,,,,,,,,,,183.5,0.988,,
366,,isi,,html-keyboard-response,366,725373,0.0-1.0-502.0,0,0,15677,,,,,,71.0,,2.0,,,,,,,,,,,,,,,,,,,,185.0,1.5,,
367,,feedback,,html-keyboard-response,367,726375,0.0-1.0-503.0-0.0,0,0,15677,,,,,,71.0,,2.0,,,,,,,,,,,,,,,,,,,,186.0,1.0,,
368,,iti,,html-keyboard-response,368,727377,0.0-1.0-504.0,0,0,15677,,,,,,71.0,,2.0,,,,,,,,,,,,,,,,,,,,187.0,1.0,,
369,,rl_choice,,html-keyboard-response,369,728115,0.0-1.0-506.0,0,0,15677,,736.0,,,75.0,72.0,72.0,2.0,easy,1000.0,1500.0,0.0,20.0,80.0,0.0,80.0,D,C,/static/Simple_RL/Stimuli/Fractals_stims/D.jpg,/static/Simple_RL/Stimuli/Fractals_stims/C.jpg,0.0,80.0,20.0,80.0,0.0,C,D,187.736,0.736,0.0,
370,,rl_choice_confirmation,,html-keyboard-response,370,728881,0.0-1.0-507.0-0.0,0,0,15677,,,,,,72.0,,2.0,,,,,,,,,,,,,,,,,,,,188.5,0.764,,
371,,isi,,html-keyboard-response,371,730382,0.0-1.0-509.0,0,0,15677,,,,,,72.0,,2.0,,,,,,,,,,,,,,,,,,,,190.0,1.5,,
372,,feedback,,html-keyboard-response,372,731384,0.0-1.0-510.0-0.0,0,0,15677,,,,,,72.0,,2.0,,,,,,,,,,,,,,,,,,,,191.0,1.0,,
373,,iti,,html-keyboard-response,373,732386,0.0-1.0-511.0,0,0,15677,,,,,,72.0,,2.0,,,,,,,,,,,,,,,,,,,,192.0,1.0,,
374,,rl_choice,,html-keyboard-response,374,732980,0.0-1.0-513.0,0,0,15677,,592.0,,,68.0,73.0,73.0,2.0,easy,1000.0,3000.0,1.0,80.0,20.0,60.0,0.0,C,D,/static/Simple_RL/Stimuli/Fractals_stims/C.jpg,/static/Simple_RL/Stimuli/Fractals_stims/D.jpg,1.0,80.0,20.0,60.0,0.0,C,D,192.592,0.592,0.0,
375,,rl_choice_confirmation,,html-keyboard-response,375,733889,0.0-1.0-514.0-0.0,0,0,15677,,,,,,73.0,,2.0,,,,,,,,,,,,,,,,,,,,193.5,0.908,,
376,,isi,,html-keyboard-response,376,736890,0.0-1.0-516.0,0,0,15677,,,,,,73.0,,2.0,,,,,,,,,,,,,,,,,,,,196.5,3.0,,
377,,feedback,,html-keyboard-response,377,737892,0.0-1.0-517.0-0.0,0,0,15677,,,,,,73.0,,2.0,,,,,,,,,,,,,,,,,,,,197.5,1.0,,
378,,iti,,html-keyboard-response,378,738894,0.0-1.0-518.0,0,0,15677,,,,,,73.0,,2.0,,,,,,,,,,,,,,,,,,,,198.5,1.0,,
379,,rl_choice,,html-keyboard-response,379,739948,0.0-1.0-520.0,0,0,15677,,1052.0,,,68.0,74.0,74.0,2.0,hard,3500.0,2000.0,1.0,60.0,40.0,60.0,60.0,A,B,/static/Simple_RL/Stimuli/Fractals_stims/A.jpg,/static/Simple_RL/Stimuli/Fractals_stims/B.jpg,1.0,60.0,40.0,60.0,60.0,A,B,199.552,1.052,0.0,
380,,rl_choice_confirmation,,html-keyboard-response,380,740398,0.0-1.0-521.0-0.0,0,0,15677,,,,,,74.0,,2.0,,,,,,,,,,,,,,,,,,,,200.0,0.448,,
381,,isi,,html-keyboard-response,381,742401,0.0-1.0-523.0,0,0,15677,,,,,,74.0,,2.0,,,,,,,,,,,,,,,,,,,,202.0,2.0,,
382,,feedback,,html-keyboard-response,382,743403,0.0-1.0-524.0-0.0,0,0,15677,,,,,,74.0,,2.0,,,,,,,,,,,,,,,,,,,,203.0,1.0,,
383,,iti,,html-keyboard-response,383,746905,0.0-1.0-525.0,0,0,15677,,,,,,74.0,,2.0,,,,,,,,,,,,,,,,,,,,206.5,3.5,,
384,,rl_choice,,html-keyboard-response,384,747878,0.0-1.0-527.0,0,0,15677,,970.0,,,75.0,75.0,75.0,2.0,hard,1500.0,3000.0,0.0,40.0,60.0,60.0,80.0,B,A,/static/Simple_RL/Stimuli/Fractals_stims/B.jpg,/static/Simple_RL/Stimuli/Fractals_stims/A.jpg,0.0,60.0,40.0,80.0,60.0,A,B,207.47,0.97,0.0,
385,,rl_choice_confirmation,,html-keyboard-response,385,748410,0.0-1.0-528.0-0.0,0,0,15677,,,,,,75.0,,2.0,,,,,,,,,,,,,,,,,,,,208.0,0.53,,
386,,isi,,html-keyboard-response,386,751413,0.0-1.0-530.0,0,0,15677,,,,,,75.0,,2.0,,,,,,,,,,,,,,,,,,,,211.0,3.0,,
387,,feedback,,html-keyboard-response,387,752415,0.0-1.0-531.0-0.0,0,0,15677,,,,,,75.0,,2.0,,,,,,,,,,,,,,,,,,,,212.0,1.0,,
388,,iti,,html-keyboard-response,388,753918,0.0-1.0-532.0,0,0,15677,,,,,,75.0,,2.0,,,,,,,,,,,,,,,,,,,,213.5,1.5,,
389,,rl_choice,,html-keyboard-response,389,754678,0.0-1.0-534.0,0,0,15677,,759.0,,,75.0,76.0,76.0,2.0,easy,1000.0,1000.0,0.0,20.0,80.0,20.0,80.0,D,C,/static/Simple_RL/Stimuli/Fractals_stims/D.jpg,/static/Simple_RL/Stimuli/Fractals_stims/C.jpg,0.0,80.0,20.0,80.0,20.0,C,D,214.259,0.759,0.0,
390,,rl_choice_confirmation,,html-keyboard-response,390,755421,0.0-1.0-535.0-0.0,0,0,15677,,,,,,76.0,,2.0,,,,,,,,,,,,,,,,,,,,215.0,0.741,,
391,,isi,,html-keyboard-response,391,756423,0.0-1.0-537.0,0,0,15677,,,,,,76.0,,2.0,,,,,,,,,,,,,,,,,,,,216.0,1.0,,
392,,feedback,,html-keyboard-response,392,757425,0.0-1.0-538.0-0.0,0,0,15677,,,,,,76.0,,2.0,,,,,,,,,,,,,,,,,,,,217.0,1.0,,
393,,iti,,html-keyboard-response,393,758427,0.0-1.0-539.0,0,0,15677,,,,,,76.0,,2.0,,,,,,,,,,,,,,,,,,,,218.0,1.0,,
394,,rl_choice,,html-keyboard-response,394,759271,0.0-1.0-541.0,0,0,15677,,842.0,,,75.0,77.0,77.0,2.0,hard,1000.0,1000.0,0.0,40.0,60.0,60.0,40.0,B,A,/static/Simple_RL/Stimuli/Fractals_stims/B.jpg,/static/Simple_RL/Stimuli/Fractals_stims/A.jpg,0.0,60.0,40.0,40.0,60.0,A,B,218.842,0.842,0.0,
395,,rl_choice_confirmation,,html-keyboard-response,395,759931,0.0-1.0-542.0-0.0,0,0,15677,,,,,,77.0,,2.0,,,,,,,,,,,,,,,,,,,,219.5,0.658,,
396,,isi,,html-keyboard-response,396,760934,0.0-1.0-544.0,0,0,15677,,,,,,77.0,,2.0,,,,,,,,,,,,,,,,,,,,220.5,1.0,,
397,,feedback,,html-keyboard-response,397,761937,0.0-1.0-545.0-0.0,0,0,15677,,,,,,77.0,,2.0,,,,,,,,,,,,,,,,,,,,221.5,1.0,,
398,,iti,,html-keyboard-response,398,762939,0.0-1.0-546.0,0,0,15677,,,,,,77.0,,2.0,,,,,,,,,,,,,,,,,,,,222.5,1.0,,
399,,rl_choice,,html-keyboard-response,399,763855,0.0-1.0-548.0,0,0,15677,,914.0,,,68.0,78.0,78.0,2.0,easy,1000.0,1500.0,1.0,80.0,20.0,80.0,0.0,C,D,/static/Simple_RL/Stimuli/Fractals_stims/C.jpg,/static/Simple_RL/Stimuli/Fractals_stims/D.jpg,1.0,80.0,20.0,80.0,0.0,C,D,223.414,0.914,0.0,
400,,rl_choice_confirmation,,html-keyboard-response,400,764444,0.0-1.0-549.0-0.0,0,0,15677,,,,,,78.0,,2.0,,,,,,,,,,,,,,,,,,,,224.0,0.586,,
401,,isi,,html-keyboard-response,401,765947,0.0-1.0-551.0,0,0,15677,,,,,,78.0,,2.0,,,,,,,,,,,,,,,,,,,,225.5,1.5,,
402,,feedback,,html-keyboard-response,402,766949,0.0-1.0-552.0-0.0,0,0,15677,,,,,,78.0,,2.0,,,,,,,,,,,,,,,,,,,,226.5,1.0,,
403,,iti,,html-keyboard-response,403,767951,0.0-1.0-553.0,0,0,15677,,,,,,78.0,,2.0,,,,,,,,,,,,,,,,,,,,227.5,1.0,,
404,,rl_choice,,html-keyboard-response,404,768632,0.0-1.0-555.0,0,0,15677,,679.0,,,75.0,79.0,79.0,2.0,easy,1000.0,1000.0,0.0,20.0,80.0,0.0,100.0,D,C,/static/Simple_RL/Stimuli/Fractals_stims/D.jpg,/static/Simple_RL/Stimuli/Fractals_stims/C.jpg,0.0,80.0,20.0,100.0,0.0,C,D,228.179,0.679,0.0,
405,,rl_choice_confirmation,,html-keyboard-response,405,769456,0.0-1.0-556.0-0.0,0,0,15677,,,,,,79.0,,2.0,,,,,,,,,,,,,,,,,,,,229.0,0.821,,
406,,isi,,html-keyboard-response,406,770459,0.0-1.0-558.0,0,0,15677,,,,,,79.0,,2.0,,,,,,,,,,,,,,,,,,,,230.0,1.0,,
407,,feedback,,html-keyboard-response,407,771462,0.0-1.0-559.0-0.0,0,0,15677,,,,,,79.0,,2.0,,,,,,,,,,,,,,,,,,,,231.0,1.0,,
408,,iti,,html-keyboard-response,408,772463,0.0-1.0-560.0,0,0,15677,,,,,,79.0,,2.0,,,,,,,,,,,,,,,,,,,,232.0,1.0,,1.0
409,,final_tally,,html-keyboard-response,409,774601,0.0-2.0,0,0,15677,,2136.0,,,68.0,,,,,,,,,,,,,,,,,,,,,,,,,,
