,success,ttype,start_time,trial_type,trial_index,time_elapsed,internal_node_id,warning,missed_checkup,PID,view_history,rt,responses,repeat_instructions,key_press,index,trial_num,block,condition,iti,isi,high_group_on_left,left_group_value,right_group_value,left_item_value,right_item_value,left_img,right_img,left_img_path,right_img_path,left_chosen,chosen_group_value,unchosen_group_value,chosen_item_value,unchosen_item_value,chosen_img,unchosen_img,no_response,onset,duration,no_resposne,total_bonus_tally
0,True,full_screen,d05232022hr1512,fullscreen,0,17271,0.0-0.0,0,0,3,,,,,,,,,,,,,,,,,,,,,,,,,,,,,,,,
1,,size_instructions,,instructions,1,282938,0.0-1.0-0.0-0.0,0,0,3,"[{""page_index"":0,""viewing_time"":3772},{""page_index"":1,""viewing_time"":3965},{""page_index"":2,""viewing_time"":938},{""page_index"":3,""viewing_time"":2031},{""page_index"":4,""viewing_time"":252161},{""page_index"":5,""viewing_time"":2794}]",265664.0,,,,,,,,,,,,,,,,,,,,,,,,,,,,,,
2,,rl_comprehension_check,,survey-multi-choice,2,286853,0.0-1.0-0.0-1.0,0,0,3,,3900.0,"{""Q0"":""True"",""Q1"":""True"",""Q2"":""pointer finger for left and middle finger for right""}",0.0,,,,,,,,,,,,,,,,,,,,,,,,,,,,
3,,,,html-keyboard-response,3,288149,0.0-1.0-1.0,0,0,3,,1290.0,,,50.0,,,,,,,,,,,,,,,,,,,,,,,,,,,
4,,rl_choice,,html-keyboard-response,4,288719,0.0-1.0-2.0,0,0,3,,567.0,,,50.0,0.0,0.0,1.0,hard,1500.0,2000.0,1.0,60.0,40.0,40.0,20.0,C,D,/static/Simple_RL/Stimuli/Fractals_stims/C.jpg,/static/Simple_RL/Stimuli/Fractals_stims/D.jpg,1.0,60.0,40.0,40.0,20.0,C,D,0.0,0.567,0.567,,
5,,rl_choice_confirmation,,html-keyboard-response,5,289656,0.0-1.0-3.0-0.0,0,0,3,,,,,,0.0,,,,,,,,,,,,,,,,,,,,,,,1.5,0.933,,
6,,isi,,html-keyboard-response,6,289760,0.0-1.0-5.0,0,0,3,,,,,,,,,,,,,,,,,,,,,,,,,,,,,3.5,2.0,,
7,,feedback,,html-keyboard-response,7,290766,0.0-1.0-6.0-0.0,0,0,3,,,,,,0.0,,,,,,,,,,,,,,,,,,,,,,,4.5,1.0,,
8,,iti,,html-keyboard-response,8,290867,0.0-1.0-7.0,0,0,3,,,,,,,,,,,,,,,,,,,,,,,,,,,,,6.0,1.5,,
9,,rl_choice,,html-keyboard-response,9,291206,0.0-1.0-9.0,0,0,3,,337.0,,,50.0,1.0,1.0,1.0,hard,2000.0,1500.0,0.0,40.0,60.0,40.0,80.0,D,C,/static/Simple_RL/Stimuli/Fractals_stims/D.jpg,/static/Simple_RL/Stimuli/Fractals_stims/C.jpg,1.0,40.0,60.0,40.0,80.0,D,C,0.0,6.337,0.337,,
10,,rl_choice_confirmation,,html-keyboard-response,10,292375,0.0-1.0-10.0-0.0,0,0,3,,,,,,1.0,,,,,,,,,,,,,,,,,,,,,,,7.5,1.163,,
11,,isi,,html-keyboard-response,11,292480,0.0-1.0-12.0,0,0,3,,,,,,,,,,,,,,,,,,,,,,,,,,,,,9.0,1.5,,
12,,feedback,,html-keyboard-response,12,293486,0.0-1.0-13.0-0.0,0,0,3,,,,,,1.0,,,,,,,,,,,,,,,,,,,,,,,10.0,1.0,,
13,,iti,,html-keyboard-response,13,293593,0.0-1.0-14.0,0,0,3,,,,,,,,,,,,,,,,,,,,,,,,,,,,,12.0,2.0,,
14,,rl_choice,,html-keyboard-response,14,293780,0.0-1.0-16.0,0,0,3,,184.0,,,50.0,2.0,2.0,1.0,hard,3000.0,1500.0,1.0,60.0,40.0,60.0,20.0,C,D,/static/Simple_RL/Stimuli/Fractals_stims/C.jpg,/static/Simple_RL/Stimuli/Fractals_stims/D.jpg,1.0,60.0,40.0,60.0,20.0,C,D,0.0,12.184,0.184,,
15,,rl_choice_confirmation,,html-keyboard-response,15,295102,0.0-1.0-17.0-0.0,0,0,3,,,,,,2.0,,,,,,,,,,,,,,,,,,,,,,,13.5,1.316,,
16,,isi,,html-keyboard-response,16,295206,0.0-1.0-19.0,0,0,3,,,,,,,,,,,,,,,,,,,,,,,,,,,,,15.0,1.5,,
17,,feedback,,html-keyboard-response,17,296212,0.0-1.0-20.0-0.0,0,0,3,,,,,,2.0,,,,,,,,,,,,,,,,,,,,,,,16.0,1.0,,
18,,iti,,html-keyboard-response,18,296318,0.0-1.0-21.0,0,0,3,,,,,,,,,,,,,,,,,,,,,,,,,,,,,19.0,3.0,,
19,,rl_choice,,html-keyboard-response,19,296692,0.0-1.0-23.0,0,0,3,,368.0,,,50.0,3.0,3.0,1.0,hard,1500.0,1000.0,0.0,40.0,60.0,20.0,40.0,D,C,/static/Simple_RL/Stimuli/Fractals_stims/D.jpg,/static/Simple_RL/Stimuli/Fractals_stims/C.jpg,1.0,40.0,60.0,20.0,40.0,D,C,0.0,19.368,0.368,,
20,,rl_choice_confirmation,,html-keyboard-response,20,297827,0.0-1.0-24.0-0.0,0,0,3,,,,,,3.0,,,,,,,,,,,,,,,,,,,,,,,20.5,1.132,,
21,,isi,,html-keyboard-response,21,297934,0.0-1.0-26.0,0,0,3,,,,,,,,,,,,,,,,,,,,,,,,,,,,,21.5,1.0,,
22,,feedback,,html-keyboard-response,22,298939,0.0-1.0-27.0-0.0,0,0,3,,,,,,3.0,,,,,,,,,,,,,,,,,,,,,,,22.5,1.0,,
23,,iti,,html-keyboard-response,23,299044,0.0-1.0-28.0,0,0,3,,,,,,,,,,,,,,,,,,,,,,,,,,,,,24.0,1.5,,
24,,rl_choice,,html-keyboard-response,24,299422,0.0-1.0-30.0,0,0,3,,377.0,,,50.0,4.0,4.0,1.0,easy,1500.0,3000.0,0.0,20.0,80.0,0.0,100.0,D,C,/static/Simple_RL/Stimuli/Fractals_stims/D.jpg,/static/Simple_RL/Stimuli/Fractals_stims/C.jpg,1.0,20.0,80.0,0.0,100.0,D,C,0.0,24.377,0.377,,
25,,rl_choice_confirmation,,html-keyboard-response,25,300552,0.0-1.0-31.0-0.0,0,0,3,,,,,,4.0,,,,,,,,,,,,,,,,,,,,,,,25.5,1.123,,
26,,isi,,html-keyboard-response,26,300658,0.0-1.0-33.0,0,0,3,,,,,,,,,,,,,,,,,,,,,,,,,,,,,28.5,3.0,,
27,,feedback,,html-keyboard-response,27,301662,0.0-1.0-34.0-0.0,0,0,3,,,,,,4.0,,,,,,,,,,,,,,,,,,,,,,,29.5,1.0,,
28,,iti,,html-keyboard-response,28,301764,0.0-1.0-35.0,0,0,3,,,,,,,,,,,,,,,,,,,,,,,,,,,,,31.0,1.5,,
29,,rl_choice,,html-keyboard-response,29,302147,0.0-1.0-37.0,0,0,3,,381.0,,,50.0,5.0,5.0,1.0,easy,1500.0,1000.0,0.0,20.0,80.0,40.0,80.0,D,C,/static/Simple_RL/Stimuli/Fractals_stims/D.jpg,/static/Simple_RL/Stimuli/Fractals_stims/C.jpg,1.0,20.0,80.0,40.0,80.0,D,C,0.0,31.381,0.381,,
30,,rl_choice_confirmation,,html-keyboard-response,30,303268,0.0-1.0-38.0-0.0,0,0,3,,,,,,5.0,,,,,,,,,,,,,,,,,,,,,,,32.5,1.119,,
31,,isi,,html-keyboard-response,31,303373,0.0-1.0-40.0,0,0,3,,,,,,,,,,,,,,,,,,,,,,,,,,,,,33.5,1.0,,
32,,feedback,,html-keyboard-response,32,304379,0.0-1.0-41.0-0.0,0,0,3,,,,,,5.0,,,,,,,,,,,,,,,,,,,,,,,34.5,1.0,,
33,,iti,,html-keyboard-response,33,304484,0.0-1.0-42.0,0,0,3,,,,,,,,,,,,,,,,,,,,,,,,,,,,,36.0,1.5,,
34,,rl_choice,,html-keyboard-response,34,304844,0.0-1.0-44.0,0,0,3,,358.0,,,50.0,6.0,6.0,1.0,hard,2000.0,1000.0,0.0,40.0,60.0,60.0,80.0,D,C,/static/Simple_RL/Stimuli/Fractals_stims/D.jpg,/static/Simple_RL/Stimuli/Fractals_stims/C.jpg,1.0,40.0,60.0,60.0,80.0,D,C,0.0,36.358,0.358,,
35,,rl_choice_confirmation,,html-keyboard-response,35,305989,0.0-1.0-45.0-0.0,0,0,3,,,,,,6.0,,,,,,,,,,,,,,,,,,,,,,,37.5,1.142,,
36,,isi,,html-keyboard-response,36,306094,0.0-1.0-47.0,0,0,3,,,,,,,,,,,,,,,,,,,,,,,,,,,,,38.5,1.0,,
37,,feedback,,html-keyboard-response,37,307097,0.0-1.0-48.0-0.0,0,0,3,,,,,,6.0,,,,,,,,,,,,,,,,,,,,,,,39.5,1.0,,
38,,iti,,html-keyboard-response,38,307204,0.0-1.0-49.0,0,0,3,,,,,,,,,,,,,,,,,,,,,,,,,,,,,41.5,2.0,,
39,,rl_choice,,html-keyboard-response,39,307577,0.0-1.0-51.0,0,0,3,,371.0,,,50.0,7.0,7.0,1.0,hard,1000.0,2000.0,1.0,60.0,40.0,80.0,40.0,C,D,/static/Simple_RL/Stimuli/Fractals_stims/C.jpg,/static/Simple_RL/Stimuli/Fractals_stims/D.jpg,1.0,60.0,40.0,80.0,40.0,C,D,0.0,41.871,0.371,,
40,,rl_choice_confirmation,,html-keyboard-response,40,308709,0.0-1.0-52.0-0.0,0,0,3,,,,,,7.0,,,,,,,,,,,,,,,,,,,,,,,43.0,1.129,,
41,,isi,,html-keyboard-response,41,308815,0.0-1.0-54.0,0,0,3,,,,,,,,,,,,,,,,,,,,,,,,,,,,,45.0,2.0,,
42,,feedback,,html-keyboard-response,42,309817,0.0-1.0-55.0-0.0,0,0,3,,,,,,7.0,,,,,,,,,,,,,,,,,,,,,,,46.0,1.0,,
43,,iti,,html-keyboard-response,43,309923,0.0-1.0-56.0,0,0,3,,,,,,,,,,,,,,,,,,,,,,,,,,,,,47.0,1.0,,
44,,rl_choice,,html-keyboard-response,44,310299,0.0-1.0-58.0,0,0,3,,374.0,,,50.0,8.0,8.0,1.0,easy,1000.0,3000.0,1.0,80.0,20.0,100.0,0.0,C,D,/static/Simple_RL/Stimuli/Fractals_stims/C.jpg,/static/Simple_RL/Stimuli/Fractals_stims/D.jpg,1.0,80.0,20.0,100.0,0.0,C,D,0.0,47.374,0.374,,
45,,rl_choice_confirmation,,html-keyboard-response,45,311430,0.0-1.0-59.0-0.0,0,0,3,,,,,,8.0,,,,,,,,,,,,,,,,,,,,,,,48.5,1.126,,
46,,isi,,html-keyboard-response,46,311534,0.0-1.0-61.0,0,0,3,,,,,,,,,,,,,,,,,,,,,,,,,,,,,51.5,3.0,,
47,,feedback,,html-keyboard-response,47,312539,0.0-1.0-62.0-0.0,0,0,3,,,,,,8.0,,,,,,,,,,,,,,,,,,,,,,,52.5,1.0,,
48,,iti,,html-keyboard-response,48,312644,0.0-1.0-63.0,0,0,3,,,,,,,,,,,,,,,,,,,,,,,,,,,,,53.5,1.0,,
49,,rl_choice,,html-keyboard-response,49,314148,0.0-1.0-65.0,0,0,3,,,,,,9.0,9.0,1.0,easy,1500.0,1500.0,0.0,20.0,80.0,40.0,80.0,D,C,/static/Simple_RL/Stimuli/Fractals_stims/D.jpg,/static/Simple_RL/Stimuli/Fractals_stims/C.jpg,,,,,,,,,55.0,1.5,1.0,
50,,rl_choice_warning,,html-keyboard-response,50,315153,0.0-1.0-67.0-0.0,0,0,3,,,,,,,,,,,,,,,,,,,,,,,,,,,,,56.0,1.0,,
51,,isi,,html-keyboard-response,51,315257,0.0-1.0-68.0,0,0,3,,,,,,,,,,,,,,,,,,,,,,,,,,,,,57.5,1.5,,
52,,iti,,html-keyboard-response,52,315362,0.0-1.0-70.0,0,0,3,,,,,,,,,,,,,,,,,,,,,,,,,,,,,59.0,1.5,,
53,,rl_choice,,html-keyboard-response,53,316870,0.0-1.0-72.0,0,0,3,,,,,,10.0,10.0,1.0,easy,3500.0,1500.0,1.0,80.0,20.0,60.0,40.0,C,D,/static/Simple_RL/Stimuli/Fractals_stims/C.jpg,/static/Simple_RL/Stimuli/Fractals_stims/D.jpg,,,,,,,,,60.5,1.5,1.0,
54,,rl_choice_warning,,html-keyboard-response,54,317875,0.0-1.0-74.0-0.0,0,0,3,,,,,,,,,,,,,,,,,,,,,,,,,,,,,61.5,1.0,,
55,,isi,,html-keyboard-response,55,317977,0.0-1.0-75.0,0,0,3,,,,,,,,,,,,,,,,,,,,,,,,,,,,,63.0,1.5,,
56,,iti,,html-keyboard-response,56,318081,0.0-1.0-77.0,0,0,3,,,,,,,,,,,,,,,,,,,,,,,,,,,,,66.5,3.5,,
57,,rl_choice,,html-keyboard-response,57,319582,0.0-1.0-79.0,0,0,3,,,,,,11.0,11.0,1.0,hard,1500.0,1500.0,0.0,40.0,60.0,60.0,60.0,D,C,/static/Simple_RL/Stimuli/Fractals_stims/D.jpg,/static/Simple_RL/Stimuli/Fractals_stims/C.jpg,,,,,,,,,68.0,1.5,1.0,
58,,rl_choice_warning,,html-keyboard-response,58,320585,0.0-1.0-81.0-0.0,0,0,3,,,,,,,,,,,,,,,,,,,,,,,,,,,,,69.0,1.0,,
59,,isi,,html-keyboard-response,59,320690,0.0-1.0-82.0,0,0,3,,,,,,,,,,,,,,,,,,,,,,,,,,,,,70.5,1.5,,
60,,iti,,html-keyboard-response,60,320793,0.0-1.0-84.0,0,0,3,,,,,,,,,,,,,,,,,,,,,,,,,,,,,72.0,1.5,,
61,,rl_choice,,html-keyboard-response,61,322300,0.0-1.0-86.0,0,0,3,,,,,,12.0,12.0,1.0,easy,1000.0,2000.0,0.0,20.0,80.0,20.0,80.0,D,C,/static/Simple_RL/Stimuli/Fractals_stims/D.jpg,/static/Simple_RL/Stimuli/Fractals_stims/C.jpg,,,,,,,,,73.5,1.5,1.0,
62,,rl_choice_warning,,html-keyboard-response,62,323305,0.0-1.0-88.0-0.0,0,0,3,,,,,,,,,,,,,,,,,,,,,,,,,,,,,74.5,1.0,,
63,,isi,,html-keyboard-response,63,323406,0.0-1.0-89.0,0,0,3,,,,,,,,,,,,,,,,,,,,,,,,,,,,,76.5,2.0,,
64,,iti,,html-keyboard-response,64,323510,0.0-1.0-91.0,0,0,3,,,,,,,,,,,,,,,,,,,,,,,,,,,,,77.5,1.0,,
65,,rl_choice,,html-keyboard-response,65,324665,0.0-1.0-93.0,0,0,3,,1153.0,,,50.0,13.0,13.0,1.0,easy,1000.0,1000.0,1.0,80.0,20.0,60.0,40.0,C,D,/static/Simple_RL/Stimuli/Fractals_stims/C.jpg,/static/Simple_RL/Stimuli/Fractals_stims/D.jpg,1.0,80.0,20.0,60.0,40.0,C,D,0.0,78.653,1.153,,
66,,rl_choice_confirmation,,html-keyboard-response,66,325018,0.0-1.0-94.0-0.0,0,0,3,,,,,,13.0,,,,,,,,,,,,,,,,,,,,,,,79.0,0.347,,
67,,isi,,html-keyboard-response,67,325123,0.0-1.0-96.0,0,0,3,,,,,,,,,,,,,,,,,,,,,,,,,,,,,80.0,1.0,,
68,,feedback,,html-keyboard-response,68,326129,0.0-1.0-97.0-0.0,0,0,3,,,,,,13.0,,,,,,,,,,,,,,,,,,,,,,,81.0,1.0,,
69,,iti,,html-keyboard-response,69,326234,0.0-1.0-98.0,0,0,3,,,,,,,,,,,,,,,,,,,,,,,,,,,,,82.0,1.0,,
70,,rl_choice,,html-keyboard-response,70,326649,0.0-1.0-100.0,0,0,3,,413.0,,,50.0,14.0,14.0,1.0,hard,1000.0,3000.0,0.0,40.0,60.0,60.0,40.0,D,C,/static/Simple_RL/Stimuli/Fractals_stims/D.jpg,/static/Simple_RL/Stimuli/Fractals_stims/C.jpg,1.0,40.0,60.0,60.0,40.0,D,C,0.0,82.413,0.413,,
71,,rl_choice_confirmation,,html-keyboard-response,71,327742,0.0-1.0-101.0-0.0,0,0,3,,,,,,14.0,,,,,,,,,,,,,,,,,,,,,,,83.5,1.087,,
72,,isi,,html-keyboard-response,72,327848,0.0-1.0-103.0,0,0,3,,,,,,,,,,,,,,,,,,,,,,,,,,,,,86.5,3.0,,
73,,feedback,,html-keyboard-response,73,328852,0.0-1.0-104.0-0.0,0,0,3,,,,,,14.0,,,,,,,,,,,,,,,,,,,,,,,87.5,1.0,,
74,,iti,,html-keyboard-response,74,328957,0.0-1.0-105.0,0,0,3,,,,,,,,,,,,,,,,,,,,,,,,,,,,,88.5,1.0,,
75,,rl_choice,,html-keyboard-response,75,329304,0.0-1.0-107.0,0,0,3,,346.0,,,50.0,15.0,15.0,1.0,easy,1000.0,1000.0,1.0,80.0,20.0,80.0,0.0,C,D,/static/Simple_RL/Stimuli/Fractals_stims/C.jpg,/static/Simple_RL/Stimuli/Fractals_stims/D.jpg,1.0,80.0,20.0,80.0,0.0,C,D,0.0,88.846,0.346,,
76,,rl_choice_confirmation,,html-keyboard-response,76,330463,0.0-1.0-108.0-0.0,0,0,3,,,,,,15.0,,,,,,,,,,,,,,,,,,,,,,,90.0,1.154,,
77,,isi,,html-keyboard-response,77,330573,0.0-1.0-110.0,0,0,3,,,,,,,,,,,,,,,,,,,,,,,,,,,,,91.0,1.0,,
78,,feedback,,html-keyboard-response,78,331578,0.0-1.0-111.0-0.0,0,0,3,,,,,,15.0,,,,,,,,,,,,,,,,,,,,,,,92.0,1.0,,
79,,iti,,html-keyboard-response,79,331683,0.0-1.0-112.0,0,0,3,,,,,,,,,,,,,,,,,,,,,,,,,,,,,93.0,1.0,,
80,,rl_choice,,html-keyboard-response,80,333190,0.0-1.0-114.0,0,0,3,,,,,,16.0,16.0,1.0,easy,1000.0,1000.0,1.0,80.0,20.0,80.0,20.0,C,D,/static/Simple_RL/Stimuli/Fractals_stims/C.jpg,/static/Simple_RL/Stimuli/Fractals_stims/D.jpg,,,,,,,,,94.5,1.5,1.0,
81,,rl_choice_warning,,html-keyboard-response,81,334191,0.0-1.0-116.0-0.0,0,0,3,,,,,,,,,,,,,,,,,,,,,,,,,,,,,95.5,1.0,,
82,,isi,,html-keyboard-response,82,334294,0.0-1.0-117.0,0,0,3,,,,,,,,,,,,,,,,,,,,,,,,,,,,,96.5,1.0,,
83,,iti,,html-keyboard-response,83,334399,0.0-1.0-119.0,0,0,3,,,,,,,,,,,,,,,,,,,,,,,,,,,,,97.5,1.0,,
84,,rl_choice,,html-keyboard-response,84,335907,0.0-1.0-121.0,0,0,3,,,,,,17.0,17.0,1.0,easy,2000.0,2000.0,1.0,80.0,20.0,100.0,0.0,C,D,/static/Simple_RL/Stimuli/Fractals_stims/C.jpg,/static/Simple_RL/Stimuli/Fractals_stims/D.jpg,,,,,,,,,99.0,1.5,1.0,
85,,rl_choice_warning,,html-keyboard-response,85,336911,0.0-1.0-123.0-0.0,0,0,3,,,,,,,,,,,,,,,,,,,,,,,,,,,,,100.0,1.0,,
86,,isi,,html-keyboard-response,86,337013,0.0-1.0-124.0,0,0,3,,,,,,,,,,,,,,,,,,,,,,,,,,,,,102.0,2.0,,
87,,iti,,html-keyboard-response,87,337117,0.0-1.0-126.0,0,0,3,,,,,,,,,,,,,,,,,,,,,,,,,,,,,104.0,2.0,,
88,,rl_choice,,html-keyboard-response,88,338624,0.0-1.0-128.0,0,0,3,,,,,,18.0,18.0,1.0,hard,1000.0,1000.0,1.0,60.0,40.0,60.0,20.0,C,D,/static/Simple_RL/Stimuli/Fractals_stims/C.jpg,/static/Simple_RL/Stimuli/Fractals_stims/D.jpg,,,,,,,,,105.5,1.5,1.0,
89,,rl_choice_warning,,html-keyboard-response,89,339626,0.0-1.0-130.0-0.0,0,0,3,,,,,,,,,,,,,,,,,,,,,,,,,,,,,106.5,1.0,,
90,,isi,,html-keyboard-response,90,339727,0.0-1.0-131.0,0,0,3,,,,,,,,,,,,,,,,,,,,,,,,,,,,,107.5,1.0,,
91,,iti,,html-keyboard-response,91,339829,0.0-1.0-133.0,0,0,3,,,,,,,,,,,,,,,,,,,,,,,,,,,,,108.5,1.0,,
92,,rl_choice,,html-keyboard-response,92,341333,0.0-1.0-135.0,0,0,3,,,,,,19.0,19.0,1.0,hard,1000.0,3500.0,1.0,60.0,40.0,80.0,40.0,C,D,/static/Simple_RL/Stimuli/Fractals_stims/C.jpg,/static/Simple_RL/Stimuli/Fractals_stims/D.jpg,,,,,,,,,110.0,1.5,1.0,
93,,rl_choice_warning,,html-keyboard-response,93,342338,0.0-1.0-137.0-0.0,0,0,3,,,,,,,,,,,,,,,,,,,,,,,,,,,,,111.0,1.0,,
94,,isi,,html-keyboard-response,94,342442,0.0-1.0-138.0,0,0,3,,,,,,,,,,,,,,,,,,,,,,,,,,,,,114.5,3.5,,
95,,iti,,html-keyboard-response,95,342547,0.0-1.0-140.0,0,0,3,,,,,,,,,,,,,,,,,,,,,,,,,,,,,115.5,1.0,,
96,,rl_choice,,html-keyboard-response,96,344053,0.0-1.0-142.0,0,0,3,,,,,,20.0,20.0,1.0,easy,2000.0,1000.0,0.0,20.0,80.0,40.0,80.0,D,C,/static/Simple_RL/Stimuli/Fractals_stims/D.jpg,/static/Simple_RL/Stimuli/Fractals_stims/C.jpg,,,,,,,,,117.0,1.5,1.0,
97,,rl_choice_warning,,html-keyboard-response,97,345057,0.0-1.0-144.0-0.0,0,0,3,,,,,,,,,,,,,,,,,,,,,,,,,,,,,118.0,1.0,,
98,,isi,,html-keyboard-response,98,345162,0.0-1.0-145.0,0,0,3,,,,,,,,,,,,,,,,,,,,,,,,,,,,,119.0,1.0,,
99,,iti,,html-keyboard-response,99,345269,0.0-1.0-147.0,0,0,3,,,,,,,,,,,,,,,,,,,,,,,,,,,,,121.0,2.0,,
100,,rl_choice,,html-keyboard-response,100,346775,0.0-1.0-149.0,0,0,3,,,,,,21.0,21.0,1.0,hard,1000.0,1000.0,0.0,40.0,60.0,40.0,60.0,D,C,/static/Simple_RL/Stimuli/Fractals_stims/D.jpg,/static/Simple_RL/Stimuli/Fractals_stims/C.jpg,,,,,,,,,122.5,1.5,1.0,
101,,rl_choice_warning,,html-keyboard-response,101,347781,0.0-1.0-151.0-0.0,0,0,3,,,,,,,,,,,,,,,,,,,,,,,,,,,,,123.5,1.0,,
102,,isi,,html-keyboard-response,102,347883,0.0-1.0-152.0,0,0,3,,,,,,,,,,,,,,,,,,,,,,,,,,,,,124.5,1.0,,
103,,iti,,html-keyboard-response,103,347988,0.0-1.0-154.0,0,0,3,,,,,,,,,,,,,,,,,,,,,,,,,,,,,125.5,1.0,,
104,,rl_choice,,html-keyboard-response,104,349493,0.0-1.0-156.0,0,0,3,,,,,,22.0,22.0,1.0,hard,1000.0,1500.0,1.0,60.0,40.0,60.0,20.0,C,D,/static/Simple_RL/Stimuli/Fractals_stims/C.jpg,/static/Simple_RL/Stimuli/Fractals_stims/D.jpg,,,,,,,,,127.0,1.5,1.0,
105,,rl_choice_warning,,html-keyboard-response,105,350495,0.0-1.0-158.0-0.0,0,0,3,,,,,,,,,,,,,,,,,,,,,,,,,,,,,128.0,1.0,,
106,,isi,,html-keyboard-response,106,350601,0.0-1.0-159.0,0,0,3,,,,,,,,,,,,,,,,,,,,,,,,,,,,,129.5,1.5,,
107,,iti,,html-keyboard-response,107,350707,0.0-1.0-161.0,0,0,3,,,,,,,,,,,,,,,,,,,,,,,,,,,,,130.5,1.0,,
108,,rl_choice,,html-keyboard-response,108,352213,0.0-1.0-163.0,0,0,3,,,,,,23.0,23.0,1.0,easy,1000.0,1500.0,0.0,20.0,80.0,40.0,60.0,D,C,/static/Simple_RL/Stimuli/Fractals_stims/D.jpg,/static/Simple_RL/Stimuli/Fractals_stims/C.jpg,,,,,,,,,132.0,1.5,1.0,
109,,rl_choice_warning,,html-keyboard-response,109,353216,0.0-1.0-165.0-0.0,0,0,3,,,,,,,,,,,,,,,,,,,,,,,,,,,,,133.0,1.0,,
110,,isi,,html-keyboard-response,110,353320,0.0-1.0-166.0,0,0,3,,,,,,,,,,,,,,,,,,,,,,,,,,,,,134.5,1.5,,
111,,iti,,html-keyboard-response,111,353423,0.0-1.0-168.0,0,0,3,,,,,,,,,,,,,,,,,,,,,,,,,,,,,135.5,1.0,,
112,,rl_choice,,html-keyboard-response,112,354928,0.0-1.0-170.0,0,0,3,,,,,,24.0,24.0,1.0,easy,1000.0,1000.0,1.0,80.0,20.0,80.0,40.0,C,D,/static/Simple_RL/Stimuli/Fractals_stims/C.jpg,/static/Simple_RL/Stimuli/Fractals_stims/D.jpg,,,,,,,,,137.0,1.5,1.0,
113,,rl_choice_warning,,html-keyboard-response,113,355930,0.0-1.0-172.0-0.0,0,0,3,,,,,,,,,,,,,,,,,,,,,,,,,,,,,138.0,1.0,,
114,,isi,,html-keyboard-response,114,356035,0.0-1.0-173.0,0,0,3,,,,,,,,,,,,,,,,,,,,,,,,,,,,,139.0,1.0,,
115,,iti,,html-keyboard-response,115,356140,0.0-1.0-175.0,0,0,3,,,,,,,,,,,,,,,,,,,,,,,,,,,,,140.0,1.0,,
116,,rl_choice,,html-keyboard-response,116,357648,0.0-1.0-177.0,0,0,3,,,,,,25.0,25.0,1.0,hard,2000.0,1000.0,0.0,40.0,60.0,20.0,60.0,D,C,/static/Simple_RL/Stimuli/Fractals_stims/D.jpg,/static/Simple_RL/Stimuli/Fractals_stims/C.jpg,,,,,,,,,141.5,1.5,1.0,
117,,rl_choice_warning,,html-keyboard-response,117,358654,0.0-1.0-179.0-0.0,0,0,3,,,,,,,,,,,,,,,,,,,,,,,,,,,,,142.5,1.0,,
118,,isi,,html-keyboard-response,118,358757,0.0-1.0-180.0,0,0,3,,,,,,,,,,,,,,,,,,,,,,,,,,,,,143.5,1.0,,
119,,iti,,html-keyboard-response,119,358865,0.0-1.0-182.0,0,0,3,,,,,,,,,,,,,,,,,,,,,,,,,,,,,145.5,2.0,,
120,,rl_choice,,html-keyboard-response,120,359463,0.0-1.0-184.0,0,0,3,,596.0,,,50.0,26.0,26.0,1.0,hard,1500.0,2000.0,0.0,40.0,60.0,60.0,80.0,D,C,/static/Simple_RL/Stimuli/Fractals_stims/D.jpg,/static/Simple_RL/Stimuli/Fractals_stims/C.jpg,1.0,40.0,60.0,60.0,80.0,D,C,0.0,146.096,0.596,,
121,,rl_choice_confirmation,,html-keyboard-response,121,360373,0.0-1.0-185.0-0.0,0,0,3,,,,,,26.0,,,,,,,,,,,,,,,,,,,,,,,147.0,0.904,,
122,,isi,,html-keyboard-response,122,360480,0.0-1.0-187.0,0,0,3,,,,,,,,,,,,,,,,,,,,,,,,,,,,,149.0,2.0,,
123,,feedback,,html-keyboard-response,123,361486,0.0-1.0-188.0-0.0,0,0,3,,,,,,26.0,,,,,,,,,,,,,,,,,,,,,,,150.0,1.0,,
124,,iti,,html-keyboard-response,124,361592,0.0-1.0-189.0,0,0,3,,,,,,,,,,,,,,,,,,,,,,,,,,,,,151.5,1.5,,
125,,rl_choice,,html-keyboard-response,125,361796,0.0-1.0-191.0,0,0,3,,202.0,,,50.0,27.0,27.0,1.0,hard,1500.0,1000.0,0.0,40.0,60.0,40.0,40.0,D,C,/static/Simple_RL/Stimuli/Fractals_stims/D.jpg,/static/Simple_RL/Stimuli/Fractals_stims/C.jpg,1.0,40.0,60.0,40.0,40.0,D,C,0.0,151.702,0.202,,
126,,rl_choice_confirmation,,html-keyboard-response,126,363099,0.0-1.0-192.0-0.0,0,0,3,,,,,,27.0,,,,,,,,,,,,,,,,,,,,,,,153.0,1.298,,
127,,isi,,html-keyboard-response,127,363203,0.0-1.0-194.0,0,0,3,,,,,,,,,,,,,,,,,,,,,,,,,,,,,154.0,1.0,,
128,,feedback,,html-keyboard-response,128,364208,0.0-1.0-195.0-0.0,0,0,3,,,,,,27.0,,,,,,,,,,,,,,,,,,,,,,,155.0,1.0,,
129,,iti,,html-keyboard-response,129,364309,0.0-1.0-196.0,0,0,3,,,,,,,,,,,,,,,,,,,,,,,,,,,,,156.5,1.5,,
130,,rl_choice,,html-keyboard-response,130,365816,0.0-1.0-198.0,0,0,3,,,,,,28.0,28.0,1.0,hard,2000.0,1500.0,1.0,60.0,40.0,60.0,40.0,C,D,/static/Simple_RL/Stimuli/Fractals_stims/C.jpg,/static/Simple_RL/Stimuli/Fractals_stims/D.jpg,,,,,,,,,158.0,1.5,1.0,
131,,rl_choice_warning,,html-keyboard-response,131,366827,0.0-1.0-200.0-0.0,0,0,3,,,,,,,,,,,,,,,,,,,,,,,,,,,,,159.0,1.0,,
132,,isi,,html-keyboard-response,132,366928,0.0-1.0-201.0,0,0,3,,,,,,,,,,,,,,,,,,,,,,,,,,,,,160.5,1.5,,
133,,iti,,html-keyboard-response,133,367032,0.0-1.0-203.0,0,0,3,,,,,,,,,,,,,,,,,,,,,,,,,,,,,162.5,2.0,,
134,,rl_choice,,html-keyboard-response,134,367265,0.0-1.0-205.0,0,0,3,,232.0,,,50.0,29.0,29.0,1.0,easy,2000.0,1500.0,1.0,80.0,20.0,80.0,40.0,C,D,/static/Simple_RL/Stimuli/Fractals_stims/C.jpg,/static/Simple_RL/Stimuli/Fractals_stims/D.jpg,1.0,80.0,20.0,80.0,40.0,C,D,0.0,162.732,0.232,,
135,,rl_choice_confirmation,,html-keyboard-response,135,368539,0.0-1.0-206.0-0.0,0,0,3,,,,,,29.0,,,,,,,,,,,,,,,,,,,,,,,164.0,1.268,,
136,,isi,,html-keyboard-response,136,368646,0.0-1.0-208.0,0,0,3,,,,,,,,,,,,,,,,,,,,,,,,,,,,,165.5,1.5,,
137,,feedback,,html-keyboard-response,137,369648,0.0-1.0-209.0-0.0,0,0,3,,,,,,29.0,,,,,,,,,,,,,,,,,,,,,,,166.5,1.0,,
138,,iti,,html-keyboard-response,138,369755,0.0-1.0-210.0,0,0,3,,,,,,,,,,,,,,,,,,,,,,,,,,,,,168.5,2.0,,
139,,rl_choice,,html-keyboard-response,139,370328,0.0-1.0-212.0,0,0,3,,570.0,,,50.0,30.0,30.0,1.0,easy,2000.0,2000.0,1.0,80.0,20.0,100.0,20.0,C,D,/static/Simple_RL/Stimuli/Fractals_stims/C.jpg,/static/Simple_RL/Stimuli/Fractals_stims/D.jpg,1.0,80.0,20.0,100.0,20.0,C,D,0.0,169.07,0.57,,
140,,rl_choice_confirmation,,html-keyboard-response,140,371261,0.0-1.0-213.0-0.0,0,0,3,,,,,,30.0,,,,,,,,,,,,,,,,,,,,,,,170.0,0.93,,
141,,isi,,html-keyboard-response,141,371366,0.0-1.0-215.0,0,0,3,,,,,,,,,,,,,,,,,,,,,,,,,,,,,172.0,2.0,,
142,,feedback,,html-keyboard-response,142,372374,0.0-1.0-216.0-0.0,0,0,3,,,,,,30.0,,,,,,,,,,,,,,,,,,,,,,,173.0,1.0,,
143,,iti,,html-keyboard-response,143,372475,0.0-1.0-217.0,0,0,3,,,,,,,,,,,,,,,,,,,,,,,,,,,,,175.0,2.0,,
144,,rl_choice,,html-keyboard-response,144,372806,0.0-1.0-219.0,0,0,3,,329.0,,,51.0,31.0,31.0,1.0,hard,1000.0,2000.0,1.0,60.0,40.0,60.0,60.0,C,D,/static/Simple_RL/Stimuli/Fractals_stims/C.jpg,/static/Simple_RL/Stimuli/Fractals_stims/D.jpg,0.0,40.0,60.0,60.0,60.0,D,C,0.0,175.329,0.329,,
145,,rl_choice_confirmation,,html-keyboard-response,145,373984,0.0-1.0-220.0-0.0,0,0,3,,,,,,31.0,,,,,,,,,,,,,,,,,,,,,,,176.5,1.171,,
146,,isi,,html-keyboard-response,146,374086,0.0-1.0-222.0,0,0,3,,,,,,,,,,,,,,,,,,,,,,,,,,,,,178.5,2.0,,
147,,feedback,,html-keyboard-response,147,375091,0.0-1.0-223.0-0.0,0,0,3,,,,,,31.0,,,,,,,,,,,,,,,,,,,,,,,179.5,1.0,,
148,,iti,,html-keyboard-response,148,375195,0.0-1.0-224.0,0,0,3,,,,,,,,,,,,,,,,,,,,,,,,,,,,,180.5,1.0,,
149,,rl_choice,,html-keyboard-response,149,375452,0.0-1.0-226.0,0,0,3,,254.0,,,51.0,32.0,32.0,1.0,easy,1500.0,1000.0,1.0,80.0,20.0,80.0,0.0,C,D,/static/Simple_RL/Stimuli/Fractals_stims/C.jpg,/static/Simple_RL/Stimuli/Fractals_stims/D.jpg,0.0,20.0,80.0,0.0,80.0,D,C,0.0,180.754,0.254,,
150,,rl_choice_confirmation,,html-keyboard-response,150,376704,0.0-1.0-227.0-0.0,0,0,3,,,,,,32.0,,,,,,,,,,,,,,,,,,,,,,,182.0,1.246,,
151,,isi,,html-keyboard-response,151,376807,0.0-1.0-229.0,0,0,3,,,,,,,,,,,,,,,,,,,,,,,,,,,,,183.0,1.0,,
152,,feedback,,html-keyboard-response,152,377813,0.0-1.0-230.0-0.0,0,0,3,,,,,,32.0,,,,,,,,,,,,,,,,,,,,,,,184.0,1.0,,
153,,iti,,html-keyboard-response,153,377915,0.0-1.0-231.0,0,0,3,,,,,,,,,,,,,,,,,,,,,,,,,,,,,185.5,1.5,,
154,,rl_choice,,html-keyboard-response,154,378160,0.0-1.0-233.0,0,0,3,,242.0,,,51.0,33.0,33.0,1.0,hard,3500.0,3000.0,1.0,60.0,40.0,40.0,40.0,C,D,/static/Simple_RL/Stimuli/Fractals_stims/C.jpg,/static/Simple_RL/Stimuli/Fractals_stims/D.jpg,0.0,40.0,60.0,40.0,40.0,D,C,0.0,185.742,0.242,,
155,,rl_choice_confirmation,,html-keyboard-response,155,379424,0.0-1.0-234.0-0.0,0,0,3,,,,,,33.0,,,,,,,,,,,,,,,,,,,,,,,187.0,1.258,,
156,,isi,,html-keyboard-response,156,379528,0.0-1.0-236.0,0,0,3,,,,,,,,,,,,,,,,,,,,,,,,,,,,,190.0,3.0,,
157,,feedback,,html-keyboard-response,157,380534,0.0-1.0-237.0-0.0,0,0,3,,,,,,33.0,,,,,,,,,,,,,,,,,,,,,,,191.0,1.0,,
158,,iti,,html-keyboard-response,158,380637,0.0-1.0-238.0,0,0,3,,,,,,,,,,,,,,,,,,,,,,,,,,,,,194.5,3.5,,
159,,rl_choice,,html-keyboard-response,159,380962,0.0-1.0-240.0,0,0,3,,323.0,,,51.0,34.0,34.0,1.0,easy,1500.0,2000.0,0.0,20.0,80.0,20.0,60.0,D,C,/static/Simple_RL/Stimuli/Fractals_stims/D.jpg,/static/Simple_RL/Stimuli/Fractals_stims/C.jpg,0.0,80.0,20.0,60.0,20.0,C,D,0.0,194.823,0.323,,
160,,rl_choice_confirmation,,html-keyboard-response,160,382145,0.0-1.0-241.0-0.0,0,0,3,,,,,,34.0,,,,,,,,,,,,,,,,,,,,,,,196.0,1.177,,
161,,isi,,html-keyboard-response,161,382249,0.0-1.0-243.0,0,0,3,,,,,,,,,,,,,,,,,,,,,,,,,,,,,198.0,2.0,,
162,,feedback,,html-keyboard-response,162,383254,0.0-1.0-244.0-0.0,0,0,3,,,,,,34.0,,,,,,,,,,,,,,,,,,,,,,,199.0,1.0,,
163,,iti,,html-keyboard-response,163,383357,0.0-1.0-245.0,0,0,3,,,,,,,,,,,,,,,,,,,,,,,,,,,,,200.5,1.5,,
164,,rl_choice,,html-keyboard-response,164,383790,0.0-1.0-247.0,0,0,3,,430.0,,,51.0,35.0,35.0,1.0,hard,1000.0,1000.0,1.0,60.0,40.0,40.0,40.0,C,D,/static/Simple_RL/Stimuli/Fractals_stims/C.jpg,/static/Simple_RL/Stimuli/Fractals_stims/D.jpg,0.0,40.0,60.0,40.0,40.0,D,C,0.0,200.93,0.43,,
165,,rl_choice_confirmation,,html-keyboard-response,165,384865,0.0-1.0-248.0-0.0,0,0,3,,,,,,35.0,,,,,,,,,,,,,,,,,,,,,,,202.0,1.07,,
166,,isi,,html-keyboard-response,166,384971,0.0-1.0-250.0,0,0,3,,,,,,,,,,,,,,,,,,,,,,,,,,,,,203.0,1.0,,
167,,feedback,,html-keyboard-response,167,385974,0.0-1.0-251.0-0.0,0,0,3,,,,,,35.0,,,,,,,,,,,,,,,,,,,,,,,204.0,1.0,,
168,,iti,,html-keyboard-response,168,386080,0.0-1.0-252.0,0,0,3,,,,,,,,,,,,,,,,,,,,,,,,,,,,,205.0,1.0,,
169,,rl_choice,,html-keyboard-response,169,386455,0.0-1.0-254.0,0,0,3,,373.0,,,51.0,36.0,36.0,1.0,easy,3000.0,1500.0,1.0,80.0,20.0,100.0,20.0,C,D,/static/Simple_RL/Stimuli/Fractals_stims/C.jpg,/static/Simple_RL/Stimuli/Fractals_stims/D.jpg,0.0,20.0,80.0,20.0,100.0,D,C,0.0,205.373,0.373,,
170,,rl_choice_confirmation,,html-keyboard-response,170,387588,0.0-1.0-255.0-0.0,0,0,3,,,,,,36.0,,,,,,,,,,,,,,,,,,,,,,,206.5,1.127,,
171,,isi,,html-keyboard-response,171,387691,0.0-1.0-257.0,0,0,3,,,,,,,,,,,,,,,,,,,,,,,,,,,,,208.0,1.5,,
172,,feedback,,html-keyboard-response,172,388694,0.0-1.0-258.0-0.0,0,0,3,,,,,,36.0,,,,,,,,,,,,,,,,,,,,,,,209.0,1.0,,
173,,iti,,html-keyboard-response,173,388799,0.0-1.0-259.0,0,0,3,,,,,,,,,,,,,,,,,,,,,,,,,,,,,212.0,3.0,,
174,,rl_choice,,html-keyboard-response,174,388908,0.0-1.0-261.0,0,0,3,,106.0,,,51.0,37.0,37.0,1.0,easy,3000.0,1000.0,0.0,20.0,80.0,20.0,100.0,D,C,/static/Simple_RL/Stimuli/Fractals_stims/D.jpg,/static/Simple_RL/Stimuli/Fractals_stims/C.jpg,0.0,80.0,20.0,100.0,20.0,C,D,0.0,212.106,0.106,,
175,,rl_choice_confirmation,,html-keyboard-response,175,390308,0.0-1.0-262.0-0.0,0,0,3,,,,,,37.0,,,,,,,,,,,,,,,,,,,,,,,213.5,1.394,,
176,,isi,,html-keyboard-response,176,390411,0.0-1.0-264.0,0,0,3,,,,,,,,,,,,,,,,,,,,,,,,,,,,,214.5,1.0,,
177,,feedback,,html-keyboard-response,177,391414,0.0-1.0-265.0-0.0,0,0,3,,,,,,37.0,,,,,,,,,,,,,,,,,,,,,,,215.5,1.0,,
178,,iti,,html-keyboard-response,178,391521,0.0-1.0-266.0,0,0,3,,,,,,,,,,,,,,,,,,,,,,,,,,,,,218.5,3.0,,
179,,rl_choice,,html-keyboard-response,179,391734,0.0-1.0-268.0,0,0,3,,211.0,,,51.0,38.0,38.0,1.0,hard,3000.0,1000.0,1.0,60.0,40.0,40.0,60.0,C,D,/static/Simple_RL/Stimuli/Fractals_stims/C.jpg,/static/Simple_RL/Stimuli/Fractals_stims/D.jpg,0.0,40.0,60.0,60.0,40.0,D,C,0.0,218.711,0.211,,
180,,rl_choice_confirmation,,html-keyboard-response,180,393030,0.0-1.0-269.0-0.0,0,0,3,,,,,,38.0,,,,,,,,,,,,,,,,,,,,,,,220.0,1.289,,
181,,isi,,html-keyboard-response,181,393134,0.0-1.0-271.0,0,0,3,,,,,,,,,,,,,,,,,,,,,,,,,,,,,221.0,1.0,,
182,,feedback,,html-keyboard-response,182,394141,0.0-1.0-272.0-0.0,0,0,3,,,,,,38.0,,,,,,,,,,,,,,,,,,,,,,,222.0,1.0,,
183,,iti,,html-keyboard-response,183,394246,0.0-1.0-273.0,0,0,3,,,,,,,,,,,,,,,,,,,,,,,,,,,,,225.0,3.0,,
184,,rl_choice,,html-keyboard-response,184,394412,0.0-1.0-275.0,0,0,3,,164.0,,,51.0,39.0,39.0,1.0,easy,1000.0,3500.0,0.0,20.0,80.0,20.0,60.0,D,C,/static/Simple_RL/Stimuli/Fractals_stims/D.jpg,/static/Simple_RL/Stimuli/Fractals_stims/C.jpg,0.0,80.0,20.0,60.0,20.0,C,D,0.0,225.164,0.164,,
185,,rl_choice_confirmation,,html-keyboard-response,185,395750,0.0-1.0-276.0-0.0,0,0,3,,,,,,39.0,,,,,,,,,,,,,,,,,,,,,,,226.5,1.336,,
186,,isi,,html-keyboard-response,186,395857,0.0-1.0-278.0,0,0,3,,,,,,,,,,,,,,,,,,,,,,,,,,,,,230.0,3.5,,
187,,feedback,,html-keyboard-response,187,396860,0.0-1.0-279.0-0.0,0,0,3,,,,,,39.0,,,,,,,,,,,,,,,,,,,,,,,231.0,1.0,,
188,,iti,,html-keyboard-response,188,396966,0.0-1.0-280.0,0,0,3,,,,,,,,,,,,,,,,,,,,,,,,,,,,,232.0,1.0,,
189,,block_over,,html-keyboard-response,189,399678,0.0-1.0-281.0-0.0,0,0,3,,2693.0,,,50.0,39.0,,,,,,,,,,,,,,,,,,,,,,,,,,
190,,start_run,,html-keyboard-response,190,401305,0.0-1.0-281.0-1.0,0,0,3,,1627.0,,,84.0,,,,,,,,,,,,,,,,,,,,,,,,,,,
191,,rl_choice,,html-keyboard-response,191,401699,0.0-1.0-282.0,0,0,3,,392.0,,,50.0,40.0,40.0,2.0,hard,1000.0,1000.0,1.0,60.0,40.0,60.0,60.0,C,D,/static/Simple_RL/Stimuli/Fractals_stims/C.jpg,/static/Simple_RL/Stimuli/Fractals_stims/D.jpg,1.0,60.0,40.0,60.0,60.0,C,D,0.0,0.392,0.392,,
192,,rl_choice_confirmation,,html-keyboard-response,192,402812,0.0-1.0-283.0-0.0,0,0,3,,,,,,40.0,,,,,,,,,,,,,,,,,,,,,,,1.5,1.108,,
193,,isi,,html-keyboard-response,193,402913,0.0-1.0-285.0,0,0,3,,,,,,,,,,,,,,,,,,,,,,,,,,,,,2.5,1.0,,
194,,feedback,,html-keyboard-response,194,403916,0.0-1.0-286.0-0.0,0,0,3,,,,,,40.0,,,,,,,,,,,,,,,,,,,,,,,3.5,1.0,,
195,,iti,,html-keyboard-response,195,404017,0.0-1.0-287.0,0,0,3,,,,,,,,,,,,,,,,,,,,,,,,,,,,,4.5,1.0,,
196,,rl_choice,,html-keyboard-response,196,404155,0.0-1.0-289.0,0,0,3,,136.0,,,50.0,41.0,41.0,2.0,easy,1000.0,2000.0,0.0,20.0,80.0,20.0,60.0,D,C,/static/Simple_RL/Stimuli/Fractals_stims/D.jpg,/static/Simple_RL/Stimuli/Fractals_stims/C.jpg,1.0,20.0,80.0,20.0,60.0,D,C,0.0,4.636,0.136,,
197,,rl_choice_confirmation,,html-keyboard-response,197,405524,0.0-1.0-290.0-0.0,0,0,3,,,,,,41.0,,,,,,,,,,,,,,,,,,,,,,,6.0,1.364,,
198,,isi,,html-keyboard-response,198,405628,0.0-1.0-292.0,0,0,3,,,,,,,,,,,,,,,,,,,,,,,,,,,,,8.0,2.0,,
199,,feedback,,html-keyboard-response,199,406630,0.0-1.0-293.0-0.0,0,0,3,,,,,,41.0,,,,,,,,,,,,,,,,,,,,,,,9.0,1.0,,
200,,iti,,html-keyboard-response,200,406732,0.0-1.0-294.0,0,0,3,,,,,,,,,,,,,,,,,,,,,,,,,,,,,10.0,1.0,,
201,,rl_choice,,html-keyboard-response,201,407086,0.0-1.0-296.0,0,0,3,,352.0,,,50.0,42.0,42.0,2.0,hard,1000.0,1500.0,1.0,60.0,40.0,80.0,20.0,C,D,/static/Simple_RL/Stimuli/Fractals_stims/C.jpg,/static/Simple_RL/Stimuli/Fractals_stims/D.jpg,1.0,60.0,40.0,80.0,20.0,C,D,0.0,10.352,0.352,,
202,,rl_choice_confirmation,,html-keyboard-response,202,408238,0.0-1.0-297.0-0.0,0,0,3,,,,,,42.0,,,,,,,,,,,,,,,,,,,,,,,11.5,1.148,,
203,,isi,,html-keyboard-response,203,408343,0.0-1.0-299.0,0,0,3,,,,,,,,,,,,,,,,,,,,,,,,,,,,,13.0,1.5,,
204,,feedback,,html-keyboard-response,204,409345,0.0-1.0-300.0-0.0,0,0,3,,,,,,42.0,,,,,,,,,,,,,,,,,,,,,,,14.0,1.0,,
205,,iti,,html-keyboard-response,205,409447,0.0-1.0-301.0,0,0,3,,,,,,,,,,,,,,,,,,,,,,,,,,,,,15.0,1.0,,
206,,rl_choice,,html-keyboard-response,206,409700,0.0-1.0-303.0,0,0,3,,252.0,,,50.0,43.0,43.0,2.0,easy,1000.0,2000.0,0.0,20.0,80.0,20.0,100.0,D,C,/static/Simple_RL/Stimuli/Fractals_stims/D.jpg,/static/Simple_RL/Stimuli/Fractals_stims/C.jpg,1.0,20.0,80.0,20.0,100.0,D,C,0.0,15.252,0.252,,
207,,rl_choice_confirmation,,html-keyboard-response,207,410950,0.0-1.0-304.0-0.0,0,0,3,,,,,,43.0,,,,,,,,,,,,,,,,,,,,,,,16.5,1.248,,
208,,isi,,html-keyboard-response,208,411055,0.0-1.0-306.0,0,0,3,,,,,,,,,,,,,,,,,,,,,,,,,,,,,18.5,2.0,,
209,,feedback,,html-keyboard-response,209,412060,0.0-1.0-307.0-0.0,0,0,3,,,,,,43.0,,,,,,,,,,,,,,,,,,,,,,,19.5,1.0,,
210,,iti,,html-keyboard-response,210,412161,0.0-1.0-308.0,0,0,3,,,,,,,,,,,,,,,,,,,,,,,,,,,,,20.5,1.0,,
211,,rl_choice,,html-keyboard-response,211,412445,0.0-1.0-310.0,0,0,3,,282.0,,,50.0,44.0,44.0,2.0,hard,1500.0,1500.0,0.0,40.0,60.0,40.0,40.0,D,C,/static/Simple_RL/Stimuli/Fractals_stims/D.jpg,/static/Simple_RL/Stimuli/Fractals_stims/C.jpg,1.0,40.0,60.0,40.0,40.0,D,C,0.0,20.782,0.282,,
212,,rl_choice_confirmation,,html-keyboard-response,212,413671,0.0-1.0-311.0-0.0,0,0,3,,,,,,44.0,,,,,,,,,,,,,,,,,,,,,,,22.0,1.218,,
213,,isi,,html-keyboard-response,213,413777,0.0-1.0-313.0,0,0,3,,,,,,,,,,,,,,,,,,,,,,,,,,,,,23.5,1.5,,
214,,feedback,,html-keyboard-response,214,414786,0.0-1.0-314.0-0.0,0,0,3,,,,,,44.0,,,,,,,,,,,,,,,,,,,,,,,24.5,1.0,,
215,,iti,,html-keyboard-response,215,414892,0.0-1.0-315.0,0,0,3,,,,,,,,,,,,,,,,,,,,,,,,,,,,,26.0,1.5,,
216,,rl_choice,,html-keyboard-response,216,415276,0.0-1.0-317.0,0,0,3,,382.0,,,50.0,45.0,45.0,2.0,easy,2000.0,1000.0,1.0,80.0,20.0,80.0,20.0,C,D,/static/Simple_RL/Stimuli/Fractals_stims/C.jpg,/static/Simple_RL/Stimuli/Fractals_stims/D.jpg,1.0,80.0,20.0,80.0,20.0,C,D,0.0,26.382,0.382,,
217,,rl_choice_confirmation,,html-keyboard-response,217,416401,0.0-1.0-318.0-0.0,0,0,3,,,,,,45.0,,,,,,,,,,,,,,,,,,,,,,,27.5,1.118,,
218,,isi,,html-keyboard-response,218,416508,0.0-1.0-320.0,0,0,3,,,,,,,,,,,,,,,,,,,,,,,,,,,,,28.5,1.0,,
219,,feedback,,html-keyboard-response,219,417511,0.0-1.0-321.0-0.0,0,0,3,,,,,,45.0,,,,,,,,,,,,,,,,,,,,,,,29.5,1.0,,
220,,iti,,html-keyboard-response,220,417614,0.0-1.0-322.0,0,0,3,,,,,,,,,,,,,,,,,,,,,,,,,,,,,31.5,2.0,,
221,,rl_choice,,html-keyboard-response,221,417728,0.0-1.0-324.0,0,0,3,,112.0,,,50.0,46.0,46.0,2.0,easy,2000.0,1500.0,0.0,20.0,80.0,0.0,80.0,D,C,/static/Simple_RL/Stimuli/Fractals_stims/D.jpg,/static/Simple_RL/Stimuli/Fractals_stims/C.jpg,1.0,20.0,80.0,0.0,80.0,D,C,0.0,31.612,0.112,,
222,,rl_choice_confirmation,,html-keyboard-response,222,419119,0.0-1.0-325.0-0.0,0,0,3,,,,,,46.0,,,,,,,,,,,,,,,,,,,,,,,33.0,1.388,,
223,,isi,,html-keyboard-response,223,419225,0.0-1.0-327.0,0,0,3,,,,,,,,,,,,,,,,,,,,,,,,,,,,,34.5,1.5,,
224,,feedback,,html-keyboard-response,224,420231,0.0-1.0-328.0-0.0,0,0,3,,,,,,46.0,,,,,,,,,,,,,,,,,,,,,,,35.5,1.0,,
225,,iti,,html-keyboard-response,225,420338,0.0-1.0-329.0,0,0,3,,,,,,,,,,,,,,,,,,,,,,,,,,,,,37.5,2.0,,
226,,rl_choice,,html-keyboard-response,226,421639,0.0-1.0-331.0,0,0,3,,1298.0,,,50.0,47.0,47.0,2.0,easy,2000.0,2000.0,0.0,20.0,80.0,0.0,60.0,D,C,/static/Simple_RL/Stimuli/Fractals_stims/D.jpg,/static/Simple_RL/Stimuli/Fractals_stims/C.jpg,1.0,20.0,80.0,0.0,60.0,D,C,0.0,38.798,1.298,,
227,,rl_choice_confirmation,,html-keyboard-response,227,421847,0.0-1.0-332.0-0.0,0,0,3,,,,,,47.0,,,,,,,,,,,,,,,,,,,,,,,39.0,0.202,,
228,,isi,,html-keyboard-response,228,421953,0.0-1.0-334.0,0,0,3,,,,,,,,,,,,,,,,,,,,,,,,,,,,,41.0,2.0,,
229,,feedback,,html-keyboard-response,229,422958,0.0-1.0-335.0-0.0,0,0,3,,,,,,47.0,,,,,,,,,,,,,,,,,,,,,,,42.0,1.0,,
230,,iti,,html-keyboard-response,230,423063,0.0-1.0-336.0,0,0,3,,,,,,,,,,,,,,,,,,,,,,,,,,,,,44.0,2.0,,
231,,rl_choice,,html-keyboard-response,231,423457,0.0-1.0-338.0,0,0,3,,393.0,,,50.0,48.0,48.0,2.0,easy,1500.0,2000.0,0.0,20.0,80.0,40.0,60.0,D,C,/static/Simple_RL/Stimuli/Fractals_stims/D.jpg,/static/Simple_RL/Stimuli/Fractals_stims/C.jpg,1.0,20.0,80.0,40.0,60.0,D,C,0.0,44.393,0.393,,
232,,rl_choice_confirmation,,html-keyboard-response,232,424567,0.0-1.0-339.0-0.0,0,0,3,,,,,,48.0,,,,,,,,,,,,,,,,,,,,,,,45.5,1.107,,
233,,isi,,html-keyboard-response,233,424673,0.0-1.0-341.0,0,0,3,,,,,,,,,,,,,,,,,,,,,,,,,,,,,47.5,2.0,,
234,,feedback,,html-keyboard-response,234,425676,0.0-1.0-342.0-0.0,0,0,3,,,,,,48.0,,,,,,,,,,,,,,,,,,,,,,,48.5,1.0,,
235,,iti,,html-keyboard-response,235,425781,0.0-1.0-343.0,0,0,3,,,,,,,,,,,,,,,,,,,,,,,,,,,,,50.0,1.5,,
236,,rl_choice,,html-keyboard-response,236,425833,0.0-1.0-345.0,0,0,3,,51.0,,,50.0,49.0,49.0,2.0,hard,2000.0,1000.0,0.0,40.0,60.0,20.0,60.0,D,C,/static/Simple_RL/Stimuli/Fractals_stims/D.jpg,/static/Simple_RL/Stimuli/Fractals_stims/C.jpg,1.0,40.0,60.0,20.0,60.0,D,C,0.0,50.051,0.051,,
237,,rl_choice_confirmation,,html-keyboard-response,237,427287,0.0-1.0-346.0-0.0,0,0,3,,,,,,49.0,,,,,,,,,,,,,,,,,,,,,,,51.5,1.449,,
238,,isi,,html-keyboard-response,238,427394,0.0-1.0-348.0,0,0,3,,,,,,,,,,,,,,,,,,,,,,,,,,,,,52.5,1.0,,
239,,feedback,,html-keyboard-response,239,428402,0.0-1.0-349.0-0.0,0,0,3,,,,,,49.0,,,,,,,,,,,,,,,,,,,,,,,53.5,1.0,,
240,,iti,,html-keyboard-response,240,428508,0.0-1.0-350.0,0,0,3,,,,,,,,,,,,,,,,,,,,,,,,,,,,,55.5,2.0,,
241,,rl_choice,,html-keyboard-response,241,428779,0.0-1.0-352.0,0,0,3,,269.0,,,50.0,50.0,50.0,2.0,easy,3000.0,1000.0,0.0,20.0,80.0,20.0,80.0,D,C,/static/Simple_RL/Stimuli/Fractals_stims/D.jpg,/static/Simple_RL/Stimuli/Fractals_stims/C.jpg,1.0,20.0,80.0,20.0,80.0,D,C,0.0,55.769,0.269,,
242,,rl_choice_confirmation,,html-keyboard-response,242,430015,0.0-1.0-353.0-0.0,0,0,3,,,,,,50.0,,,,,,,,,,,,,,,,,,,,,,,57.0,1.231,,
243,,isi,,html-keyboard-response,243,430119,0.0-1.0-355.0,0,0,3,,,,,,,,,,,,,,,,,,,,,,,,,,,,,58.0,1.0,,
244,,feedback,,html-keyboard-response,244,431126,0.0-1.0-356.0-0.0,0,0,3,,,,,,50.0,,,,,,,,,,,,,,,,,,,,,,,59.0,1.0,,
245,,iti,,html-keyboard-response,245,431229,0.0-1.0-357.0,0,0,3,,,,,,,,,,,,,,,,,,,,,,,,,,,,,62.0,3.0,,
246,,rl_choice,,html-keyboard-response,246,431651,0.0-1.0-359.0,0,0,3,,421.0,,,50.0,51.0,51.0,2.0,hard,1500.0,1000.0,1.0,60.0,40.0,40.0,20.0,C,D,/static/Simple_RL/Stimuli/Fractals_stims/C.jpg,/static/Simple_RL/Stimuli/Fractals_stims/D.jpg,1.0,60.0,40.0,40.0,20.0,C,D,0.0,62.421,0.421,,
247,,rl_choice_confirmation,,html-keyboard-response,247,432733,0.0-1.0-360.0-0.0,0,0,3,,,,,,51.0,,,,,,,,,,,,,,,,,,,,,,,63.5,1.079,,
248,,isi,,html-keyboard-response,248,432839,0.0-1.0-362.0,0,0,3,,,,,,,,,,,,,,,,,,,,,,,,,,,,,64.5,1.0,,
249,,feedback,,html-keyboard-response,249,433842,0.0-1.0-363.0-0.0,0,0,3,,,,,,51.0,,,,,,,,,,,,,,,,,,,,,,,65.5,1.0,,
250,,iti,,html-keyboard-response,250,433947,0.0-1.0-364.0,0,0,3,,,,,,,,,,,,,,,,,,,,,,,,,,,,,67.0,1.5,,
251,,rl_choice,,html-keyboard-response,251,434043,0.0-1.0-366.0,0,0,3,,92.0,,,50.0,52.0,52.0,2.0,hard,1000.0,1000.0,1.0,60.0,40.0,60.0,40.0,C,D,/static/Simple_RL/Stimuli/Fractals_stims/C.jpg,/static/Simple_RL/Stimuli/Fractals_stims/D.jpg,1.0,60.0,40.0,60.0,40.0,C,D,0.0,67.092,0.092,,
252,,rl_choice_confirmation,,html-keyboard-response,252,435458,0.0-1.0-367.0-0.0,0,0,3,,,,,,52.0,,,,,,,,,,,,,,,,,,,,,,,68.5,1.408,,
253,,isi,,html-keyboard-response,253,435561,0.0-1.0-369.0,0,0,3,,,,,,,,,,,,,,,,,,,,,,,,,,,,,69.5,1.0,,
254,,feedback,,html-keyboard-response,254,436567,0.0-1.0-370.0-0.0,0,0,3,,,,,,52.0,,,,,,,,,,,,,,,,,,,,,,,70.5,1.0,,
255,,iti,,html-keyboard-response,255,436669,0.0-1.0-371.0,0,0,3,,,,,,,,,,,,,,,,,,,,,,,,,,,,,71.5,1.0,,
256,,rl_choice,,html-keyboard-response,256,436759,0.0-1.0-373.0,0,0,3,,88.0,,,50.0,53.0,53.0,2.0,hard,3500.0,1500.0,1.0,60.0,40.0,60.0,40.0,C,D,/static/Simple_RL/Stimuli/Fractals_stims/C.jpg,/static/Simple_RL/Stimuli/Fractals_stims/D.jpg,1.0,60.0,40.0,60.0,40.0,C,D,0.0,71.588,0.088,,
257,,rl_choice_confirmation,,html-keyboard-response,257,438178,0.0-1.0-374.0-0.0,0,0,3,,,,,,53.0,,,,,,,,,,,,,,,,,,,,,,,73.0,1.412,,
258,,isi,,html-keyboard-response,258,438285,0.0-1.0-376.0,0,0,3,,,,,,,,,,,,,,,,,,,,,,,,,,,,,74.5,1.5,,
259,,feedback,,html-keyboard-response,259,439291,0.0-1.0-377.0-0.0,0,0,3,,,,,,53.0,,,,,,,,,,,,,,,,,,,,,,,75.5,1.0,,
260,,iti,,html-keyboard-response,260,439394,0.0-1.0-378.0,0,0,3,,,,,,,,,,,,,,,,,,,,,,,,,,,,,79.0,3.5,,
261,,rl_choice,,html-keyboard-response,261,439561,0.0-1.0-380.0,0,0,3,,165.0,,,50.0,54.0,54.0,2.0,hard,2000.0,2000.0,0.0,40.0,60.0,40.0,40.0,D,C,/static/Simple_RL/Stimuli/Fractals_stims/D.jpg,/static/Simple_RL/Stimuli/Fractals_stims/C.jpg,1.0,40.0,60.0,40.0,40.0,D,C,0.0,79.165,0.165,,
262,,rl_choice_confirmation,,html-keyboard-response,262,440897,0.0-1.0-381.0-0.0,0,0,3,,,,,,54.0,,,,,,,,,,,,,,,,,,,,,,,80.5,1.335,,
263,,isi,,html-keyboard-response,263,441000,0.0-1.0-383.0,0,0,3,,,,,,,,,,,,,,,,,,,,,,,,,,,,,82.5,2.0,,
264,,feedback,,html-keyboard-response,264,442007,0.0-1.0-384.0-0.0,0,0,3,,,,,,54.0,,,,,,,,,,,,,,,,,,,,,,,83.5,1.0,,
265,,iti,,html-keyboard-response,265,442114,0.0-1.0-385.0,0,0,3,,,,,,,,,,,,,,,,,,,,,,,,,,,,,85.5,2.0,,
266,,rl_choice,,html-keyboard-response,266,442726,0.0-1.0-387.0,0,0,3,,610.0,,,50.0,55.0,55.0,2.0,hard,1000.0,1500.0,0.0,40.0,60.0,60.0,60.0,D,C,/static/Simple_RL/Stimuli/Fractals_stims/D.jpg,/static/Simple_RL/Stimuli/Fractals_stims/C.jpg,1.0,40.0,60.0,60.0,60.0,D,C,0.0,86.11,0.61,,
267,,rl_choice_confirmation,,html-keyboard-response,267,443619,0.0-1.0-388.0-0.0,0,0,3,,,,,,55.0,,,,,,,,,,,,,,,,,,,,,,,87.0,0.89,,
268,,isi,,html-keyboard-response,268,443725,0.0-1.0-390.0,0,0,3,,,,,,,,,,,,,,,,,,,,,,,,,,,,,88.5,1.5,,
269,,feedback,,html-keyboard-response,269,444733,0.0-1.0-391.0-0.0,0,0,3,,,,,,55.0,,,,,,,,,,,,,,,,,,,,,,,89.5,1.0,,
270,,iti,,html-keyboard-response,270,444835,0.0-1.0-392.0,0,0,3,,,,,,,,,,,,,,,,,,,,,,,,,,,,,90.5,1.0,,
271,,rl_choice,,html-keyboard-response,271,445120,0.0-1.0-394.0,0,0,3,,283.0,,,50.0,56.0,56.0,2.0,hard,1500.0,1000.0,1.0,60.0,40.0,80.0,40.0,C,D,/static/Simple_RL/Stimuli/Fractals_stims/C.jpg,/static/Simple_RL/Stimuli/Fractals_stims/D.jpg,1.0,60.0,40.0,80.0,40.0,C,D,0.0,90.783,0.283,,
272,,rl_choice_confirmation,,html-keyboard-response,272,446339,0.0-1.0-395.0-0.0,0,0,3,,,,,,56.0,,,,,,,,,,,,,,,,,,,,,,,92.0,1.217,,
273,,isi,,html-keyboard-response,273,446441,0.0-1.0-397.0,0,0,3,,,,,,,,,,,,,,,,,,,,,,,,,,,,,93.0,1.0,,
274,,feedback,,html-keyboard-response,274,447443,0.0-1.0-398.0-0.0,0,0,3,,,,,,56.0,,,,,,,,,,,,,,,,,,,,,,,94.0,1.0,,
275,,iti,,html-keyboard-response,275,447549,0.0-1.0-399.0,0,0,3,,,,,,,,,,,,,,,,,,,,,,,,,,,,,95.5,1.5,,
276,,rl_choice,,html-keyboard-response,276,448055,0.0-1.0-401.0,0,0,3,,503.0,,,50.0,57.0,57.0,2.0,easy,1000.0,1000.0,1.0,80.0,20.0,100.0,20.0,C,D,/static/Simple_RL/Stimuli/Fractals_stims/C.jpg,/static/Simple_RL/Stimuli/Fractals_stims/D.jpg,1.0,80.0,20.0,100.0,20.0,C,D,0.0,96.003,0.503,,
277,,rl_choice_confirmation,,html-keyboard-response,277,449058,0.0-1.0-402.0-0.0,0,0,3,,,,,,57.0,,,,,,,,,,,,,,,,,,,,,,,97.0,0.997,,
278,,isi,,html-keyboard-response,278,449160,0.0-1.0-404.0,0,0,3,,,,,,,,,,,,,,,,,,,,,,,,,,,,,98.0,1.0,,
279,,feedback,,html-keyboard-response,279,450163,0.0-1.0-405.0-0.0,0,0,3,,,,,,57.0,,,,,,,,,,,,,,,,,,,,,,,99.0,1.0,,
280,,iti,,html-keyboard-response,280,450269,0.0-1.0-406.0,0,0,3,,,,,,,,,,,,,,,,,,,,,,,,,,,,,100.0,1.0,,
281,,rl_choice,,html-keyboard-response,281,450523,0.0-1.0-408.0,0,0,3,,252.0,,,50.0,58.0,58.0,2.0,hard,2000.0,3000.0,0.0,40.0,60.0,60.0,80.0,D,C,/static/Simple_RL/Stimuli/Fractals_stims/D.jpg,/static/Simple_RL/Stimuli/Fractals_stims/C.jpg,1.0,40.0,60.0,60.0,80.0,D,C,0.0,100.252,0.252,,
282,,rl_choice_confirmation,,html-keyboard-response,282,451775,0.0-1.0-409.0-0.0,0,0,3,,,,,,58.0,,,,,,,,,,,,,,,,,,,,,,,101.5,1.248,,
283,,isi,,html-keyboard-response,283,451881,0.0-1.0-411.0,0,0,3,,,,,,,,,,,,,,,,,,,,,,,,,,,,,104.5,3.0,,
284,,feedback,,html-keyboard-response,284,452888,0.0-1.0-412.0-0.0,0,0,3,,,,,,58.0,,,,,,,,,,,,,,,,,,,,,,,105.5,1.0,,
285,,iti,,html-keyboard-response,285,452992,0.0-1.0-413.0,0,0,3,,,,,,,,,,,,,,,,,,,,,,,,,,,,,107.5,2.0,,
286,,rl_choice,,html-keyboard-response,286,453053,0.0-1.0-415.0,0,0,3,,58.0,,,50.0,59.0,59.0,2.0,easy,1500.0,3000.0,1.0,80.0,20.0,60.0,0.0,C,D,/static/Simple_RL/Stimuli/Fractals_stims/C.jpg,/static/Simple_RL/Stimuli/Fractals_stims/D.jpg,1.0,80.0,20.0,60.0,0.0,C,D,0.0,107.558,0.058,,
287,,rl_choice_confirmation,,html-keyboard-response,287,454499,0.0-1.0-416.0-0.0,0,0,3,,,,,,59.0,,,,,,,,,,,,,,,,,,,,,,,109.0,1.442,,
288,,isi,,html-keyboard-response,288,454605,0.0-1.0-418.0,0,0,3,,,,,,,,,,,,,,,,,,,,,,,,,,,,,112.0,3.0,,
289,,feedback,,html-keyboard-response,289,455608,0.0-1.0-419.0-0.0,0,0,3,,,,,,59.0,,,,,,,,,,,,,,,,,,,,,,,113.0,1.0,,
290,,iti,,html-keyboard-response,290,455712,0.0-1.0-420.0,0,0,3,,,,,,,,,,,,,,,,,,,,,,,,,,,,,114.5,1.5,,
291,,rl_choice,,html-keyboard-response,291,457219,0.0-1.0-422.0,0,0,3,,,,,,60.0,60.0,2.0,hard,2000.0,3500.0,1.0,60.0,40.0,80.0,40.0,C,D,/static/Simple_RL/Stimuli/Fractals_stims/C.jpg,/static/Simple_RL/Stimuli/Fractals_stims/D.jpg,,,,,,,,,116.0,1.5,1.0,
292,,rl_choice_warning,,html-keyboard-response,292,458225,0.0-1.0-424.0-0.0,1,0,3,,,,,,,,,,,,,,,,,,,,,,,,,,,,,117.0,1.0,,
293,,isi,,html-keyboard-response,293,458328,0.0-1.0-425.0,0,0,3,,,,,,,,,,,,,,,,,,,,,,,,,,,,,120.5,3.5,,
294,,iti,,html-keyboard-response,294,458435,0.0-1.0-427.0,0,0,3,,,,,,,,,,,,,,,,,,,,,,,,,,,,,122.5,2.0,,
295,,rl_choice,,html-keyboard-response,295,458743,0.0-1.0-429.0,0,0,3,,306.0,,,50.0,61.0,61.0,2.0,easy,3500.0,1000.0,1.0,80.0,20.0,80.0,0.0,C,D,/static/Simple_RL/Stimuli/Fractals_stims/C.jpg,/static/Simple_RL/Stimuli/Fractals_stims/D.jpg,1.0,80.0,20.0,80.0,0.0,C,D,0.0,122.806,0.306,,
296,,rl_choice_confirmation,,html-keyboard-response,296,459944,0.0-1.0-430.0-0.0,0,0,3,,,,,,61.0,,,,,,,,,,,,,,,,,,,,,,,124.0,1.194,,
297,,isi,,html-keyboard-response,297,460051,0.0-1.0-432.0,0,0,3,,,,,,,,,,,,,,,,,,,,,,,,,,,,,125.0,1.0,,
298,,feedback,,html-keyboard-response,298,461058,0.0-1.0-433.0-0.0,0,0,3,,,,,,61.0,,,,,,,,,,,,,,,,,,,,,,,126.0,1.0,,
299,,iti,,html-keyboard-response,299,461165,0.0-1.0-434.0,0,0,3,,,,,,,,,,,,,,,,,,,,,,,,,,,,,129.5,3.5,,
300,,rl_choice,,html-keyboard-response,300,461412,0.0-1.0-436.0,0,0,3,,244.0,,,50.0,62.0,62.0,2.0,easy,1000.0,1500.0,1.0,80.0,20.0,60.0,40.0,C,D,/static/Simple_RL/Stimuli/Fractals_stims/C.jpg,/static/Simple_RL/Stimuli/Fractals_stims/D.jpg,1.0,80.0,20.0,60.0,40.0,C,D,0.0,129.744,0.244,,
301,,rl_choice_confirmation,,html-keyboard-response,301,462671,0.0-1.0-437.0-0.0,0,0,3,,,,,,62.0,,,,,,,,,,,,,,,,,,,,,,,131.0,1.256,,
302,,isi,,html-keyboard-response,302,462776,0.0-1.0-439.0,0,0,3,,,,,,,,,,,,,,,,,,,,,,,,,,,,,132.5,1.5,,
303,,feedback,,html-keyboard-response,303,463782,0.0-1.0-440.0-0.0,0,0,3,,,,,,62.0,,,,,,,,,,,,,,,,,,,,,,,133.5,1.0,,
304,,iti,,html-keyboard-response,304,463886,0.0-1.0-441.0,0,0,3,,,,,,,,,,,,,,,,,,,,,,,,,,,,,134.5,1.0,,
305,,rl_choice,,html-keyboard-response,305,464253,0.0-1.0-443.0,0,0,3,,365.0,,,50.0,63.0,63.0,2.0,easy,1500.0,3500.0,0.0,20.0,80.0,20.0,100.0,D,C,/static/Simple_RL/Stimuli/Fractals_stims/D.jpg,/static/Simple_RL/Stimuli/Fractals_stims/C.jpg,1.0,20.0,80.0,20.0,100.0,D,C,0.0,134.865,0.365,,
306,,rl_choice_confirmation,,html-keyboard-response,306,465395,0.0-1.0-444.0-0.0,0,0,3,,,,,,63.0,,,,,,,,,,,,,,,,,,,,,,,136.0,1.135,,
307,,isi,,html-keyboard-response,307,465502,0.0-1.0-446.0,0,0,3,,,,,,,,,,,,,,,,,,,,,,,,,,,,,139.5,3.5,,
308,,feedback,,html-keyboard-response,308,466508,0.0-1.0-447.0-0.0,0,0,3,,,,,,63.0,,,,,,,,,,,,,,,,,,,,,,,140.5,1.0,,
309,,iti,,html-keyboard-response,309,466611,0.0-1.0-448.0,0,0,3,,,,,,,,,,,,,,,,,,,,,,,,,,,,,142.0,1.5,,
310,,rl_choice,,html-keyboard-response,310,467095,0.0-1.0-450.0,0,0,3,,482.0,,,50.0,64.0,64.0,2.0,hard,1000.0,3000.0,0.0,40.0,60.0,20.0,80.0,D,C,/static/Simple_RL/Stimuli/Fractals_stims/D.jpg,/static/Simple_RL/Stimuli/Fractals_stims/C.jpg,1.0,40.0,60.0,20.0,80.0,D,C,0.0,142.482,0.482,,
311,,rl_choice_confirmation,,html-keyboard-response,311,468115,0.0-1.0-451.0-0.0,0,0,3,,,,,,64.0,,,,,,,,,,,,,,,,,,,,,,,143.5,1.018,,
312,,isi,,html-keyboard-response,312,468222,0.0-1.0-453.0,0,0,3,,,,,,,,,,,,,,,,,,,,,,,,,,,,,146.5,3.0,,
313,,feedback,,html-keyboard-response,313,469230,0.0-1.0-454.0-0.0,0,0,3,,,,,,64.0,,,,,,,,,,,,,,,,,,,,,,,147.5,1.0,,
314,,iti,,html-keyboard-response,314,469332,0.0-1.0-455.0,0,0,3,,,,,,,,,,,,,,,,,,,,,,,,,,,,,148.5,1.0,,
315,,rl_choice,,html-keyboard-response,315,469727,0.0-1.0-457.0,0,0,3,,392.0,,,50.0,65.0,65.0,2.0,easy,1000.0,1000.0,1.0,80.0,20.0,80.0,40.0,C,D,/static/Simple_RL/Stimuli/Fractals_stims/C.jpg,/static/Simple_RL/Stimuli/Fractals_stims/D.jpg,1.0,80.0,20.0,80.0,40.0,C,D,0.0,148.892,0.392,,
316,,rl_choice_confirmation,,html-keyboard-response,316,470842,0.0-1.0-458.0-0.0,0,0,3,,,,,,65.0,,,,,,,,,,,,,,,,,,,,,,,150.0,1.108,,
317,,isi,,html-keyboard-response,317,470947,0.0-1.0-460.0,0,0,3,,,,,,,,,,,,,,,,,,,,,,,,,,,,,151.0,1.0,,
318,,feedback,,html-keyboard-response,318,471953,0.0-1.0-461.0-0.0,0,0,3,,,,,,65.0,,,,,,,,,,,,,,,,,,,,,,,152.0,1.0,,
319,,iti,,html-keyboard-response,319,472058,0.0-1.0-462.0,0,0,3,,,,,,,,,,,,,,,,,,,,,,,,,,,,,153.0,1.0,,
320,,rl_choice,,html-keyboard-response,320,472393,0.0-1.0-464.0,0,0,3,,333.0,,,50.0,66.0,66.0,2.0,hard,1500.0,1000.0,0.0,40.0,60.0,40.0,40.0,D,C,/static/Simple_RL/Stimuli/Fractals_stims/D.jpg,/static/Simple_RL/Stimuli/Fractals_stims/C.jpg,1.0,40.0,60.0,40.0,40.0,D,C,0.0,153.333,0.333,,
321,,rl_choice_confirmation,,html-keyboard-response,321,473566,0.0-1.0-465.0-0.0,0,0,3,,,,,,66.0,,,,,,,,,,,,,,,,,,,,,,,154.5,1.167,,
322,,isi,,html-keyboard-response,322,473673,0.0-1.0-467.0,0,0,3,,,,,,,,,,,,,,,,,,,,,,,,,,,,,155.5,1.0,,
323,,feedback,,html-keyboard-response,323,474681,0.0-1.0-468.0-0.0,0,0,3,,,,,,66.0,,,,,,,,,,,,,,,,,,,,,,,156.5,1.0,,
324,,iti,,html-keyboard-response,324,474787,0.0-1.0-469.0,0,0,3,,,,,,,,,,,,,,,,,,,,,,,,,,,,,158.0,1.5,,
325,,rl_choice,,html-keyboard-response,325,475478,0.0-1.0-471.0,0,0,3,,688.0,,,51.0,67.0,67.0,2.0,hard,1000.0,2000.0,0.0,40.0,60.0,20.0,60.0,D,C,/static/Simple_RL/Stimuli/Fractals_stims/D.jpg,/static/Simple_RL/Stimuli/Fractals_stims/C.jpg,0.0,60.0,40.0,60.0,20.0,C,D,0.0,158.688,0.688,,
326,,rl_choice_confirmation,,html-keyboard-response,326,476297,0.0-1.0-472.0-0.0,0,0,3,,,,,,67.0,,,,,,,,,,,,,,,,,,,,,,,159.5,0.812,,
327,,isi,,html-keyboard-response,327,476403,0.0-1.0-474.0,0,0,3,,,,,,,,,,,,,,,,,,,,,,,,,,,,,161.5,2.0,,
328,,feedback,,html-keyboard-response,328,477411,0.0-1.0-475.0-0.0,0,0,3,,,,,,67.0,,,,,,,,,,,,,,,,,,,,,,,162.5,1.0,,
329,,iti,,html-keyboard-response,329,477512,0.0-1.0-476.0,0,0,3,,,,,,,,,,,,,,,,,,,,,,,,,,,,,163.5,1.0,,
330,,rl_choice,,html-keyboard-response,330,477572,0.0-1.0-478.0,0,0,3,,59.0,,,51.0,68.0,68.0,2.0,hard,3000.0,1500.0,0.0,40.0,60.0,20.0,80.0,D,C,/static/Simple_RL/Stimuli/Fractals_stims/D.jpg,/static/Simple_RL/Stimuli/Fractals_stims/C.jpg,0.0,60.0,40.0,80.0,20.0,C,D,0.0,163.559,0.059,,
331,,rl_choice_confirmation,,html-keyboard-response,331,479014,0.0-1.0-479.0-0.0,0,0,3,,,,,,68.0,,,,,,,,,,,,,,,,,,,,,,,165.0,1.441,,
332,,isi,,html-keyboard-response,332,479118,0.0-1.0-481.0,0,0,3,,,,,,,,,,,,,,,,,,,,,,,,,,,,,166.5,1.5,,
333,,feedback,,html-keyboard-response,333,480120,0.0-1.0-482.0-0.0,0,0,3,,,,,,68.0,,,,,,,,,,,,,,,,,,,,,,,167.5,1.0,,
334,,iti,,html-keyboard-response,334,480225,0.0-1.0-483.0,0,0,3,,,,,,,,,,,,,,,,,,,,,,,,,,,,,170.5,3.0,,
335,,rl_choice,,html-keyboard-response,335,480849,0.0-1.0-485.0,0,0,3,,622.0,,,51.0,69.0,69.0,2.0,hard,3000.0,1000.0,1.0,60.0,40.0,80.0,60.0,C,D,/static/Simple_RL/Stimuli/Fractals_stims/C.jpg,/static/Simple_RL/Stimuli/Fractals_stims/D.jpg,0.0,40.0,60.0,60.0,80.0,D,C,0.0,171.122,0.622,,
336,,rl_choice_confirmation,,html-keyboard-response,336,481731,0.0-1.0-486.0-0.0,0,0,3,,,,,,69.0,,,,,,,,,,,,,,,,,,,,,,,172.0,0.878,,
337,,isi,,html-keyboard-response,337,481836,0.0-1.0-488.0,0,0,3,,,,,,,,,,,,,,,,,,,,,,,,,,,,,173.0,1.0,,
338,,feedback,,html-keyboard-response,338,482842,0.0-1.0-489.0-0.0,0,0,3,,,,,,69.0,,,,,,,,,,,,,,,,,,,,,,,174.0,1.0,,
339,,iti,,html-keyboard-response,339,482947,0.0-1.0-490.0,0,0,3,,,,,,,,,,,,,,,,,,,,,,,,,,,,,177.0,3.0,,
340,,rl_choice,,html-keyboard-response,340,483193,0.0-1.0-492.0,0,0,3,,243.0,,,51.0,70.0,70.0,2.0,easy,1000.0,1000.0,1.0,80.0,20.0,60.0,40.0,C,D,/static/Simple_RL/Stimuli/Fractals_stims/C.jpg,/static/Simple_RL/Stimuli/Fractals_stims/D.jpg,0.0,20.0,80.0,40.0,60.0,D,C,0.0,177.243,0.243,,
341,,rl_choice_confirmation,,html-keyboard-response,341,484456,0.0-1.0-493.0-0.0,0,0,3,,,,,,70.0,,,,,,,,,,,,,,,,,,,,,,,178.5,1.257,,
342,,isi,,html-keyboard-response,342,484559,0.0-1.0-495.0,0,0,3,,,,,,,,,,,,,,,,,,,,,,,,,,,,,179.5,1.0,,
343,,feedback,,html-keyboard-response,343,485566,0.0-1.0-496.0-0.0,0,0,3,,,,,,70.0,,,,,,,,,,,,,,,,,,,,,,,180.5,1.0,,
344,,iti,,html-keyboard-response,344,485669,0.0-1.0-497.0,0,0,3,,,,,,,,,,,,,,,,,,,,,,,,,,,,,181.5,1.0,,
345,,rl_choice,,html-keyboard-response,345,487175,0.0-1.0-499.0,0,0,3,,,,,,71.0,71.0,2.0,hard,1000.0,1000.0,1.0,60.0,40.0,60.0,60.0,C,D,/static/Simple_RL/Stimuli/Fractals_stims/C.jpg,/static/Simple_RL/Stimuli/Fractals_stims/D.jpg,,,,,,,,,183.0,1.5,1.0,
346,,rl_choice_warning,,html-keyboard-response,346,488181,0.0-1.0-501.0-0.0,1,0,3,,,,,,,,,,,,,,,,,,,,,,,,,,,,,184.0,1.0,,
347,,isi,,html-keyboard-response,347,488286,0.0-1.0-502.0,0,0,3,,,,,,,,,,,,,,,,,,,,,,,,,,,,,185.0,1.0,,
348,,iti,,html-keyboard-response,348,488393,0.0-1.0-504.0,0,0,3,,,,,,,,,,,,,,,,,,,,,,,,,,,,,186.0,1.0,,
349,,rl_choice,,html-keyboard-response,349,489003,0.0-1.0-506.0,0,0,3,,607.0,,,51.0,72.0,72.0,2.0,easy,1000.0,1500.0,0.0,20.0,80.0,0.0,60.0,D,C,/static/Simple_RL/Stimuli/Fractals_stims/D.jpg,/static/Simple_RL/Stimuli/Fractals_stims/C.jpg,0.0,80.0,20.0,60.0,0.0,C,D,0.0,186.607,0.607,,
350,,rl_choice_confirmation,,html-keyboard-response,350,489902,0.0-1.0-507.0-0.0,0,0,3,,,,,,72.0,,,,,,,,,,,,,,,,,,,,,,,187.5,0.893,,
351,,isi,,html-keyboard-response,351,490009,0.0-1.0-509.0,0,0,3,,,,,,,,,,,,,,,,,,,,,,,,,,,,,189.0,1.5,,
352,,feedback,,html-keyboard-response,352,491017,0.0-1.0-510.0-0.0,0,0,3,,,,,,72.0,,,,,,,,,,,,,,,,,,,,,,,190.0,1.0,,
353,,iti,,html-keyboard-response,353,491123,0.0-1.0-511.0,0,0,3,,,,,,,,,,,,,,,,,,,,,,,,,,,,,191.0,1.0,,
354,,rl_choice,,html-keyboard-response,354,492631,0.0-1.0-513.0,0,0,3,,,,,,73.0,73.0,2.0,easy,3000.0,1500.0,0.0,20.0,80.0,20.0,100.0,D,C,/static/Simple_RL/Stimuli/Fractals_stims/D.jpg,/static/Simple_RL/Stimuli/Fractals_stims/C.jpg,,,,,,,,,192.5,1.5,1.0,
355,,rl_choice_warning,,html-keyboard-response,355,493636,0.0-1.0-515.0-0.0,1,0,3,,,,,,,,,,,,,,,,,,,,,,,,,,,,,193.5,1.0,,
356,,isi,,html-keyboard-response,356,493742,0.0-1.0-516.0,0,0,3,,,,,,,,,,,,,,,,,,,,,,,,,,,,,195.0,1.5,,
357,,iti,,html-keyboard-response,357,493845,0.0-1.0-518.0,0,0,3,,,,,,,,,,,,,,,,,,,,,,,,,,,,,198.0,3.0,,
358,,rl_choice,,html-keyboard-response,358,494965,0.0-1.0-520.0,0,0,3,,1117.0,,,51.0,74.0,74.0,2.0,hard,1500.0,2000.0,0.0,40.0,60.0,40.0,60.0,D,C,/static/Simple_RL/Stimuli/Fractals_stims/D.jpg,/static/Simple_RL/Stimuli/Fractals_stims/C.jpg,0.0,60.0,40.0,60.0,40.0,C,D,0.0,199.117,1.117,,
359,,rl_choice_confirmation,,html-keyboard-response,359,495353,0.0-1.0-521.0-0.0,0,0,3,,,,,,74.0,,,,,,,,,,,,,,,,,,,,,,,199.5,0.383,,
360,,isi,,html-keyboard-response,360,495459,0.0-1.0-523.0,0,0,3,,,,,,,,,,,,,,,,,,,,,,,,,,,,,201.5,2.0,,
361,,feedback,,html-keyboard-response,361,496462,0.0-1.0-524.0-0.0,0,0,3,,,,,,74.0,,,,,,,,,,,,,,,,,,,,,,,202.5,1.0,,
362,,iti,,html-keyboard-response,362,496568,0.0-1.0-525.0,0,0,3,,,,,,,,,,,,,,,,,,,,,,,,,,,,,204.0,1.5,,
363,,rl_choice,,html-keyboard-response,363,496746,0.0-1.0-527.0,0,0,3,,176.0,,,51.0,75.0,75.0,2.0,easy,2000.0,1000.0,1.0,80.0,20.0,100.0,0.0,C,D,/static/Simple_RL/Stimuli/Fractals_stims/C.jpg,/static/Simple_RL/Stimuli/Fractals_stims/D.jpg,0.0,20.0,80.0,0.0,100.0,D,C,0.0,204.176,0.176,,
364,,rl_choice_confirmation,,html-keyboard-response,364,498075,0.0-1.0-528.0-0.0,0,0,3,,,,,,75.0,,,,,,,,,,,,,,,,,,,,,,,205.5,1.324,,
365,,isi,,html-keyboard-response,365,498179,0.0-1.0-530.0,0,0,3,,,,,,,,,,,,,,,,,,,,,,,,,,,,,206.5,1.0,,
366,,feedback,,html-keyboard-response,366,499182,0.0-1.0-531.0-0.0,0,0,3,,,,,,75.0,,,,,,,,,,,,,,,,,,,,,,,207.5,1.0,,
367,,iti,,html-keyboard-response,367,499286,0.0-1.0-532.0,0,0,3,,,,,,,,,,,,,,,,,,,,,,,,,,,,,209.5,2.0,,
368,,rl_choice,,html-keyboard-response,368,499372,0.0-1.0-534.0,0,0,3,,83.0,,,51.0,76.0,76.0,2.0,easy,1500.0,3000.0,1.0,80.0,20.0,80.0,20.0,C,D,/static/Simple_RL/Stimuli/Fractals_stims/C.jpg,/static/Simple_RL/Stimuli/Fractals_stims/D.jpg,0.0,20.0,80.0,20.0,80.0,D,C,0.0,209.583,0.083,,
369,,rl_choice_confirmation,,html-keyboard-response,369,500795,0.0-1.0-535.0-0.0,0,0,3,,,,,,76.0,,,,,,,,,,,,,,,,,,,,,,,211.0,1.417,,
370,,isi,,html-keyboard-response,370,500901,0.0-1.0-537.0,0,0,3,,,,,,,,,,,,,,,,,,,,,,,,,,,,,214.0,3.0,,
371,,feedback,,html-keyboard-response,371,501909,0.0-1.0-538.0-0.0,0,0,3,,,,,,76.0,,,,,,,,,,,,,,,,,,,,,,,215.0,1.0,,
372,,iti,,html-keyboard-response,372,502014,0.0-1.0-539.0,0,0,3,,,,,,,,,,,,,,,,,,,,,,,,,,,,,216.5,1.5,,
373,,rl_choice,,html-keyboard-response,373,502280,0.0-1.0-541.0,0,0,3,,264.0,,,51.0,77.0,77.0,2.0,easy,1500.0,1000.0,0.0,20.0,80.0,20.0,80.0,D,C,/static/Simple_RL/Stimuli/Fractals_stims/D.jpg,/static/Simple_RL/Stimuli/Fractals_stims/C.jpg,0.0,80.0,20.0,80.0,20.0,C,D,0.0,216.764,0.264,,
374,,rl_choice_confirmation,,html-keyboard-response,374,503523,0.0-1.0-542.0-0.0,0,0,3,,,,,,77.0,,,,,,,,,,,,,,,,,,,,,,,218.0,1.236,,
375,,isi,,html-keyboard-response,375,503626,0.0-1.0-544.0,0,0,3,,,,,,,,,,,,,,,,,,,,,,,,,,,,,219.0,1.0,,
376,,feedback,,html-keyboard-response,376,504633,0.0-1.0-545.0-0.0,0,0,3,,,,,,77.0,,,,,,,,,,,,,,,,,,,,,,,220.0,1.0,,
377,,iti,,html-keyboard-response,377,504740,0.0-1.0-546.0,0,0,3,,,,,,,,,,,,,,,,,,,,,,,,,,,,,221.5,1.5,,
378,,rl_choice,,html-keyboard-response,378,504880,0.0-1.0-548.0,0,0,3,,137.0,,,51.0,78.0,78.0,2.0,hard,1000.0,2000.0,0.0,40.0,60.0,60.0,40.0,D,C,/static/Simple_RL/Stimuli/Fractals_stims/D.jpg,/static/Simple_RL/Stimuli/Fractals_stims/C.jpg,0.0,60.0,40.0,40.0,60.0,C,D,0.0,221.637,0.137,,
379,,rl_choice_confirmation,,html-keyboard-response,379,506249,0.0-1.0-549.0-0.0,0,0,3,,,,,,78.0,,,,,,,,,,,,,,,,,,,,,,,223.0,1.363,,
380,,isi,,html-keyboard-response,380,506356,0.0-1.0-551.0,0,0,3,,,,,,,,,,,,,,,,,,,,,,,,,,,,,225.0,2.0,,
381,,feedback,,html-keyboard-response,381,507360,0.0-1.0-552.0-0.0,0,0,3,,,,,,78.0,,,,,,,,,,,,,,,,,,,,,,,226.0,1.0,,
382,,iti,,html-keyboard-response,382,507466,0.0-1.0-553.0,0,0,3,,,,,,,,,,,,,,,,,,,,,,,,,,,,,227.0,1.0,,
383,,rl_choice,,html-keyboard-response,383,508969,0.0-1.0-555.0,0,0,3,,,,,,79.0,79.0,2.0,easy,1000.0,1500.0,0.0,20.0,80.0,0.0,100.0,D,C,/static/Simple_RL/Stimuli/Fractals_stims/D.jpg,/static/Simple_RL/Stimuli/Fractals_stims/C.jpg,,,,,,,,,228.5,1.5,1.0,
384,,rl_choice_warning,,html-keyboard-response,384,509976,0.0-1.0-557.0-0.0,1,0,3,,,,,,,,,,,,,,,,,,,,,,,,,,,,,229.5,1.0,,
385,,isi,,html-keyboard-response,385,510079,0.0-1.0-558.0,0,0,3,,,,,,,,,,,,,,,,,,,,,,,,,,,,,231.0,1.5,,
386,,iti,,html-keyboard-response,386,510186,0.0-1.0-560.0,0,0,3,,,,,,,,,,,,,,,,,,,,,,,,,,,,,232.0,1.0,,1.55
387,,final_tally,,html-keyboard-response,387,515290,0.0-2.0,0,0,3,,5101.0,,,50.0,,,,,,,,,,,,,,,,,,,,,,,,,,,
