,success,ttype,start_time,trial_type,trial_index,time_elapsed,internal_node_id,warning,missed_checkup,PID,view_history,rt,responses,repeat_instructions,key_press,index,trial_num,block,condition,iti,isi,high_group_on_left,left_group_value,right_group_value,left_item_value,right_item_value,left_img,right_img,left_img_path,right_img_path,onset,duration,no_response,left_chosen,chosen_group_value,unchosen_group_value,chosen_item_value,unchosen_item_value,chosen_img,unchosen_img,total_bonus_tally
0,True,full_screen,d06062022hr2129,fullscreen,0,2127,0.0-0.0,0,0,81393,,,,,,,,,,,,,,,,,,,,,,,,,,,,,,,
1,,size_instructions,,instructions,1,6493,0.0-1.0-0.0-0.0,0,0,81393,"[{""page_index"":0,""viewing_time"":2036},{""page_index"":1,""viewing_time"":388},{""page_index"":2,""viewing_time"":412},{""page_index"":3,""viewing_time"":508},{""page_index"":4,""viewing_time"":521},{""page_index"":5,""viewing_time"":499}]",4364.0,,,,,,,,,,,,,,,,,,,,,,,,,,,,,
2,,rl_comprehension_check,,survey-multi-choice,2,10810,0.0-1.0-0.0-1.0,0,0,81393,,4315.0,"{""Q0"":""True"",""Q1"":""True"",""Q2"":""D for left and K for right""}",0.0,,,,,,,,,,,,,,,,,,,,,,,,,,,
3,,,,html-keyboard-response,3,11895,0.0-1.0-1.0,0,0,81393,,1082.0,,,68.0,,,,,,,,,,,,,,,,,,,,,,,,,,
4,,rl_choice,,html-keyboard-response,4,13399,0.0-1.0-2.0,0,0,81393,,,,,,0.0,0.0,1.0,hard,3500.0,2000.0,1.0,60.0,40.0,80.0,40.0,A,B,/static/Simple_RL/Stimuli/Fractals_stims/A.jpg,/static/Simple_RL/Stimuli/Fractals_stims/B.jpg,1.5,1.5,1.0,,,,,,,,
5,,rl_choice_warning,,html-keyboard-response,5,14406,0.0-1.0-4.0-0.0,0,0,81393,,,,,,0.0,,1.0,,,,,,,,,,,,,2.5,1.0,,,,,,,,,
6,,isi,,html-keyboard-response,6,14510,0.0-1.0-5.0,0,0,81393,,,,,,0.0,,1.0,,,,,,,,,,,,,4.5,2.0,,,,,,,,,
7,,iti,,html-keyboard-response,7,14612,0.0-1.0-7.0,0,0,81393,,,,,,0.0,,1.0,,,,,,,,,,,,,8.0,3.5,,,,,,,,,
8,,rl_choice,,html-keyboard-response,8,15075,0.0-1.0-9.0,0,0,81393,,463.0,,,68.0,1.0,1.0,1.0,hard,1000.0,2000.0,1.0,60.0,40.0,80.0,20.0,A,B,/static/Simple_RL/Stimuli/Fractals_stims/A.jpg,/static/Simple_RL/Stimuli/Fractals_stims/B.jpg,8.463,0.463,0.0,1.0,60.0,40.0,80.0,20.0,A,B,
9,,rl_choice_confirmation,,html-keyboard-response,9,16114,0.0-1.0-10.0-0.0,0,0,81393,,,,,,1.0,,1.0,,,,,,,,,,,,,9.5,1.037,,,,,,,,,
10,,isi,,html-keyboard-response,10,16217,0.0-1.0-12.0,0,0,81393,,,,,,1.0,,1.0,,,,,,,,,,,,,11.5,2.0,,,,,,,,,
11,,feedback,,html-keyboard-response,11,17220,0.0-1.0-13.0-0.0,0,0,81393,,,,,,1.0,,1.0,,,,,,,,,,,,,12.5,1.0,,,,,,,,,
12,,iti,,html-keyboard-response,12,17323,0.0-1.0-14.0,0,0,81393,,,,,,1.0,,1.0,,,,,,,,,,,,,13.5,1.0,,,,,,,,,
13,,rl_choice,,html-keyboard-response,13,17574,0.0-1.0-16.0,0,0,81393,,251.0,,,68.0,2.0,2.0,1.0,easy,2000.0,2000.0,0.0,20.0,80.0,40.0,100.0,D,C,/static/Simple_RL/Stimuli/Fractals_stims/D.jpg,/static/Simple_RL/Stimuli/Fractals_stims/C.jpg,13.751,0.251,0.0,1.0,20.0,80.0,40.0,100.0,D,C,
14,,rl_choice_confirmation,,html-keyboard-response,14,18825,0.0-1.0-17.0-0.0,0,0,81393,,,,,,2.0,,1.0,,,,,,,,,,,,,15.0,1.249,,,,,,,,,
15,,isi,,html-keyboard-response,15,18930,0.0-1.0-19.0,0,0,81393,,,,,,2.0,,1.0,,,,,,,,,,,,,17.0,2.0,,,,,,,,,
16,,feedback,,html-keyboard-response,16,19932,0.0-1.0-20.0-0.0,0,0,81393,,,,,,2.0,,1.0,,,,,,,,,,,,,18.0,1.0,,,,,,,,,
17,,iti,,html-keyboard-response,17,20033,0.0-1.0-21.0,0,0,81393,,,,,,2.0,,1.0,,,,,,,,,,,,,20.0,2.0,,,,,,,,,
18,,rl_choice,,html-keyboard-response,18,20323,0.0-1.0-23.0,0,0,81393,,288.0,,,68.0,3.0,3.0,1.0,hard,1500.0,1000.0,0.0,40.0,60.0,20.0,60.0,B,A,/static/Simple_RL/Stimuli/Fractals_stims/B.jpg,/static/Simple_RL/Stimuli/Fractals_stims/A.jpg,20.288,0.288,0.0,1.0,40.0,60.0,20.0,60.0,B,A,
19,,rl_choice_confirmation,,html-keyboard-response,19,21540,0.0-1.0-24.0-0.0,0,0,81393,,,,,,3.0,,1.0,,,,,,,,,,,,,21.5,1.212,,,,,,,,,
20,,isi,,html-keyboard-response,20,21644,0.0-1.0-26.0,0,0,81393,,,,,,3.0,,1.0,,,,,,,,,,,,,22.5,1.0,,,,,,,,,
21,,feedback,,html-keyboard-response,21,22647,0.0-1.0-27.0-0.0,0,0,81393,,,,,,3.0,,1.0,,,,,,,,,,,,,23.5,1.0,,,,,,,,,
22,,iti,,html-keyboard-response,22,22749,0.0-1.0-28.0,0,0,81393,,,,,,3.0,,1.0,,,,,,,,,,,,,25.0,1.5,,,,,,,,,
23,,rl_choice,,html-keyboard-response,23,23024,0.0-1.0-30.0,0,0,81393,,274.0,,,68.0,4.0,4.0,1.0,hard,1500.0,3000.0,0.0,40.0,60.0,40.0,60.0,B,A,/static/Simple_RL/Stimuli/Fractals_stims/B.jpg,/static/Simple_RL/Stimuli/Fractals_stims/A.jpg,25.274,0.274,0.0,1.0,40.0,60.0,40.0,60.0,B,A,
24,,rl_choice_confirmation,,html-keyboard-response,24,24253,0.0-1.0-31.0-0.0,0,0,81393,,,,,,4.0,,1.0,,,,,,,,,,,,,26.5,1.226,,,,,,,,,
25,,isi,,html-keyboard-response,25,24356,0.0-1.0-33.0,0,0,81393,,,,,,4.0,,1.0,,,,,,,,,,,,,29.5,3.0,,,,,,,,,
26,,feedback,,html-keyboard-response,26,25361,0.0-1.0-34.0-0.0,0,0,81393,,,,,,4.0,,1.0,,,,,,,,,,,,,30.5,1.0,,,,,,,,,
27,,iti,,html-keyboard-response,27,25463,0.0-1.0-35.0,0,0,81393,,,,,,4.0,,1.0,,,,,,,,,,,,,32.0,1.5,,,,,,,,,
28,,rl_choice,,html-keyboard-response,28,25521,0.0-1.0-37.0,0,0,81393,,56.0,,,68.0,5.0,5.0,1.0,easy,1500.0,1500.0,1.0,80.0,20.0,80.0,0.0,C,D,/static/Simple_RL/Stimuli/Fractals_stims/C.jpg,/static/Simple_RL/Stimuli/Fractals_stims/D.jpg,32.056,0.056,0.0,1.0,80.0,20.0,80.0,0.0,C,D,
29,,rl_choice_confirmation,,html-keyboard-response,29,26967,0.0-1.0-38.0-0.0,0,0,81393,,,,,,5.0,,1.0,,,,,,,,,,,,,33.5,1.444,,,,,,,,,
30,,isi,,html-keyboard-response,30,27073,0.0-1.0-40.0,0,0,81393,,,,,,5.0,,1.0,,,,,,,,,,,,,35.0,1.5,,,,,,,,,
31,,feedback,,html-keyboard-response,31,28077,0.0-1.0-41.0-0.0,0,0,81393,,,,,,5.0,,1.0,,,,,,,,,,,,,36.0,1.0,,,,,,,,,
32,,iti,,html-keyboard-response,32,28179,0.0-1.0-42.0,0,0,81393,,,,,,5.0,,1.0,,,,,,,,,,,,,37.5,1.5,,,,,,,,,
33,,rl_choice,,html-keyboard-response,33,28208,0.0-1.0-44.0,0,0,81393,,28.0,,,68.0,6.0,6.0,1.0,easy,1000.0,1000.0,1.0,80.0,20.0,60.0,40.0,C,D,/static/Simple_RL/Stimuli/Fractals_stims/C.jpg,/static/Simple_RL/Stimuli/Fractals_stims/D.jpg,37.528,0.028,0.0,1.0,80.0,20.0,60.0,40.0,C,D,
34,,rl_choice_confirmation,,html-keyboard-response,34,29686,0.0-1.0-45.0-0.0,0,0,81393,,,,,,6.0,,1.0,,,,,,,,,,,,,39.0,1.472,,,,,,,,,
35,,isi,,html-keyboard-response,35,29790,0.0-1.0-47.0,0,0,81393,,,,,,6.0,,1.0,,,,,,,,,,,,,40.0,1.0,,,,,,,,,
36,,feedback,,html-keyboard-response,36,30792,0.0-1.0-48.0-0.0,0,0,81393,,,,,,6.0,,1.0,,,,,,,,,,,,,41.0,1.0,,,,,,,,,
37,,iti,,html-keyboard-response,37,30896,0.0-1.0-49.0,0,0,81393,,,,,,6.0,,1.0,,,,,,,,,,,,,42.0,1.0,,,,,,,,,
38,,rl_choice,,html-keyboard-response,38,30988,0.0-1.0-51.0,0,0,81393,,90.0,,,68.0,7.0,7.0,1.0,easy,3000.0,2000.0,0.0,20.0,80.0,0.0,80.0,D,C,/static/Simple_RL/Stimuli/Fractals_stims/D.jpg,/static/Simple_RL/Stimuli/Fractals_stims/C.jpg,42.09,0.09,0.0,1.0,20.0,80.0,0.0,80.0,D,C,
39,,rl_choice_confirmation,,html-keyboard-response,39,32403,0.0-1.0-52.0-0.0,0,0,81393,,,,,,7.0,,1.0,,,,,,,,,,,,,43.5,1.41,,,,,,,,,
40,,isi,,html-keyboard-response,40,32504,0.0-1.0-54.0,0,0,81393,,,,,,7.0,,1.0,,,,,,,,,,,,,45.5,2.0,,,,,,,,,
41,,feedback,,html-keyboard-response,41,33509,0.0-1.0-55.0-0.0,0,0,81393,,,,,,7.0,,1.0,,,,,,,,,,,,,46.5,1.0,,,,,,,,,
42,,iti,,html-keyboard-response,42,33614,0.0-1.0-56.0,0,0,81393,,,,,,7.0,,1.0,,,,,,,,,,,,,49.5,3.0,,,,,,,,,
43,,rl_choice,,html-keyboard-response,43,33961,0.0-1.0-58.0,0,0,81393,,344.0,,,68.0,8.0,8.0,1.0,hard,2000.0,3500.0,0.0,40.0,60.0,40.0,60.0,B,A,/static/Simple_RL/Stimuli/Fractals_stims/B.jpg,/static/Simple_RL/Stimuli/Fractals_stims/A.jpg,49.844,0.344,0.0,1.0,40.0,60.0,40.0,60.0,B,A,
44,,rl_choice_confirmation,,html-keyboard-response,44,35123,0.0-1.0-59.0-0.0,0,0,81393,,,,,,8.0,,1.0,,,,,,,,,,,,,51.0,1.156,,,,,,,,,
45,,isi,,html-keyboard-response,45,35230,0.0-1.0-61.0,0,0,81393,,,,,,8.0,,1.0,,,,,,,,,,,,,54.5,3.5,,,,,,,,,
46,,feedback,,html-keyboard-response,46,36233,0.0-1.0-62.0-0.0,0,0,81393,,,,,,8.0,,1.0,,,,,,,,,,,,,55.5,1.0,,,,,,,,,
47,,iti,,html-keyboard-response,47,36334,0.0-1.0-63.0,0,0,81393,,,,,,8.0,,1.0,,,,,,,,,,,,,57.5,2.0,,,,,,,,,
48,,rl_choice,,html-keyboard-response,48,36595,0.0-1.0-65.0,0,0,81393,,260.0,,,68.0,9.0,9.0,1.0,hard,2000.0,1000.0,1.0,60.0,40.0,60.0,20.0,A,B,/static/Simple_RL/Stimuli/Fractals_stims/A.jpg,/static/Simple_RL/Stimuli/Fractals_stims/B.jpg,57.76,0.26,0.0,1.0,60.0,40.0,60.0,20.0,A,B,
49,,rl_choice_confirmation,,html-keyboard-response,49,37838,0.0-1.0-66.0-0.0,0,0,81393,,,,,,9.0,,1.0,,,,,,,,,,,,,59.0,1.24,,,,,,,,,
50,,isi,,html-keyboard-response,50,37939,0.0-1.0-68.0,0,0,81393,,,,,,9.0,,1.0,,,,,,,,,,,,,60.0,1.0,,,,,,,,,
51,,feedback,,html-keyboard-response,51,38945,0.0-1.0-69.0-0.0,0,0,81393,,,,,,9.0,,1.0,,,,,,,,,,,,,61.0,1.0,,,,,,,,,
52,,iti,,html-keyboard-response,52,39048,0.0-1.0-70.0,0,0,81393,,,,,,9.0,,1.0,,,,,,,,,,,,,63.0,2.0,,,,,,,,,
53,,rl_choice,,html-keyboard-response,53,39301,0.0-1.0-72.0,0,0,81393,,252.0,,,68.0,10.0,10.0,1.0,easy,1000.0,1000.0,0.0,20.0,80.0,0.0,80.0,D,C,/static/Simple_RL/Stimuli/Fractals_stims/D.jpg,/static/Simple_RL/Stimuli/Fractals_stims/C.jpg,63.252,0.252,0.0,1.0,20.0,80.0,0.0,80.0,D,C,
54,,rl_choice_confirmation,,html-keyboard-response,54,40553,0.0-1.0-73.0-0.0,0,0,81393,,,,,,10.0,,1.0,,,,,,,,,,,,,64.5,1.248,,,,,,,,,
55,,isi,,html-keyboard-response,55,40656,0.0-1.0-75.0,0,0,81393,,,,,,10.0,,1.0,,,,,,,,,,,,,65.5,1.0,,,,,,,,,
56,,feedback,,html-keyboard-response,56,41661,0.0-1.0-76.0-0.0,0,0,81393,,,,,,10.0,,1.0,,,,,,,,,,,,,66.5,1.0,,,,,,,,,
57,,iti,,html-keyboard-response,57,41763,0.0-1.0-77.0,0,0,81393,,,,,,10.0,,1.0,,,,,,,,,,,,,67.5,1.0,,,,,,,,,
58,,rl_choice,,html-keyboard-response,58,42040,0.0-1.0-79.0,0,0,81393,,274.0,,,68.0,11.0,11.0,1.0,hard,1000.0,2000.0,0.0,40.0,60.0,40.0,60.0,B,A,/static/Simple_RL/Stimuli/Fractals_stims/B.jpg,/static/Simple_RL/Stimuli/Fractals_stims/A.jpg,67.774,0.274,0.0,1.0,40.0,60.0,40.0,60.0,B,A,
59,,rl_choice_confirmation,,html-keyboard-response,59,43270,0.0-1.0-80.0-0.0,0,0,81393,,,,,,11.0,,1.0,,,,,,,,,,,,,69.0,1.226,,,,,,,,,
60,,isi,,html-keyboard-response,60,43375,0.0-1.0-82.0,0,0,81393,,,,,,11.0,,1.0,,,,,,,,,,,,,71.0,2.0,,,,,,,,,
61,,feedback,,html-keyboard-response,61,44380,0.0-1.0-83.0-0.0,0,0,81393,,,,,,11.0,,1.0,,,,,,,,,,,,,72.0,1.0,,,,,,,,,
62,,iti,,html-keyboard-response,62,44483,0.0-1.0-84.0,0,0,81393,,,,,,11.0,,1.0,,,,,,,,,,,,,73.0,1.0,,,,,,,,,
63,,rl_choice,,html-keyboard-response,63,44719,0.0-1.0-86.0,0,0,81393,,234.0,,,68.0,12.0,12.0,1.0,hard,1000.0,1000.0,0.0,40.0,60.0,60.0,80.0,B,A,/static/Simple_RL/Stimuli/Fractals_stims/B.jpg,/static/Simple_RL/Stimuli/Fractals_stims/A.jpg,73.234,0.234,0.0,1.0,40.0,60.0,60.0,80.0,B,A,
64,,rl_choice_confirmation,,html-keyboard-response,64,45987,0.0-1.0-87.0-0.0,0,0,81393,,,,,,12.0,,1.0,,,,,,,,,,,,,74.5,1.266,,,,,,,,,
65,,isi,,html-keyboard-response,65,46092,0.0-1.0-89.0,0,0,81393,,,,,,12.0,,1.0,,,,,,,,,,,,,75.5,1.0,,,,,,,,,
66,,feedback,,html-keyboard-response,66,47098,0.0-1.0-90.0-0.0,0,0,81393,,,,,,12.0,,1.0,,,,,,,,,,,,,76.5,1.0,,,,,,,,,
67,,iti,,html-keyboard-response,67,47204,0.0-1.0-91.0,0,0,81393,,,,,,12.0,,1.0,,,,,,,,,,,,,77.5,1.0,,,,,,,,,
68,,rl_choice,,html-keyboard-response,68,47277,0.0-1.0-93.0,0,0,81393,,71.0,,,68.0,13.0,13.0,1.0,hard,3000.0,1500.0,1.0,60.0,40.0,40.0,60.0,A,B,/static/Simple_RL/Stimuli/Fractals_stims/A.jpg,/static/Simple_RL/Stimuli/Fractals_stims/B.jpg,77.571,0.071,0.0,1.0,60.0,40.0,40.0,60.0,A,B,
69,,rl_choice_confirmation,,html-keyboard-response,69,48713,0.0-1.0-94.0-0.0,0,0,81393,,,,,,13.0,,1.0,,,,,,,,,,,,,79.0,1.429,,,,,,,,,
70,,isi,,html-keyboard-response,70,48818,0.0-1.0-96.0,0,0,81393,,,,,,13.0,,1.0,,,,,,,,,,,,,80.5,1.5,,,,,,,,,
71,,feedback,,html-keyboard-response,71,49822,0.0-1.0-97.0-0.0,0,0,81393,,,,,,13.0,,1.0,,,,,,,,,,,,,81.5,1.0,,,,,,,,,
72,,iti,,html-keyboard-response,72,49927,0.0-1.0-98.0,0,0,81393,,,,,,13.0,,1.0,,,,,,,,,,,,,84.5,3.0,,,,,,,,,
73,,rl_choice,,html-keyboard-response,73,50088,0.0-1.0-100.0,0,0,81393,,160.0,,,68.0,14.0,14.0,1.0,easy,1500.0,1000.0,1.0,80.0,20.0,100.0,40.0,C,D,/static/Simple_RL/Stimuli/Fractals_stims/C.jpg,/static/Simple_RL/Stimuli/Fractals_stims/D.jpg,84.66,0.16,0.0,1.0,80.0,20.0,100.0,40.0,C,D,
74,,rl_choice_confirmation,,html-keyboard-response,74,51433,0.0-1.0-101.0-0.0,0,0,81393,,,,,,14.0,,1.0,,,,,,,,,,,,,86.0,1.34,,,,,,,,,
75,,isi,,html-keyboard-response,75,51534,0.0-1.0-103.0,0,0,81393,,,,,,14.0,,1.0,,,,,,,,,,,,,87.0,1.0,,,,,,,,,
76,,feedback,,html-keyboard-response,76,52540,0.0-1.0-104.0-0.0,0,0,81393,,,,,,14.0,,1.0,,,,,,,,,,,,,88.0,1.0,,,,,,,,,
77,,iti,,html-keyboard-response,77,52645,0.0-1.0-105.0,0,0,81393,,,,,,14.0,,1.0,,,,,,,,,,,,,89.5,1.5,,,,,,,,,
78,,rl_choice,,html-keyboard-response,78,53089,0.0-1.0-107.0,0,0,81393,,442.0,,,68.0,15.0,15.0,1.0,hard,1000.0,3000.0,1.0,60.0,40.0,60.0,60.0,A,B,/static/Simple_RL/Stimuli/Fractals_stims/A.jpg,/static/Simple_RL/Stimuli/Fractals_stims/B.jpg,89.942,0.442,0.0,1.0,60.0,40.0,60.0,60.0,A,B,
79,,rl_choice_confirmation,,html-keyboard-response,79,54153,0.0-1.0-108.0-0.0,0,0,81393,,,,,,15.0,,1.0,,,,,,,,,,,,,91.0,1.058,,,,,,,,,
80,,isi,,html-keyboard-response,80,54259,0.0-1.0-110.0,0,0,81393,,,,,,15.0,,1.0,,,,,,,,,,,,,94.0,3.0,,,,,,,,,
81,,feedback,,html-keyboard-response,81,55262,0.0-1.0-111.0-0.0,0,0,81393,,,,,,15.0,,1.0,,,,,,,,,,,,,95.0,1.0,,,,,,,,,
82,,iti,,html-keyboard-response,82,55363,0.0-1.0-112.0,0,0,81393,,,,,,15.0,,1.0,,,,,,,,,,,,,96.0,1.0,,,,,,,,,
83,,rl_choice,,html-keyboard-response,83,55576,0.0-1.0-114.0,0,0,81393,,210.0,,,68.0,16.0,16.0,1.0,hard,1500.0,1000.0,1.0,60.0,40.0,60.0,40.0,A,B,/static/Simple_RL/Stimuli/Fractals_stims/A.jpg,/static/Simple_RL/Stimuli/Fractals_stims/B.jpg,96.21,0.21,0.0,1.0,60.0,40.0,60.0,40.0,A,B,
84,,rl_choice_confirmation,,html-keyboard-response,84,56868,0.0-1.0-115.0-0.0,0,0,81393,,,,,,16.0,,1.0,,,,,,,,,,,,,97.5,1.29,,,,,,,,,
85,,isi,,html-keyboard-response,85,56969,0.0-1.0-117.0,0,0,81393,,,,,,16.0,,1.0,,,,,,,,,,,,,98.5,1.0,,,,,,,,,
86,,feedback,,html-keyboard-response,86,57971,0.0-1.0-118.0-0.0,0,0,81393,,,,,,16.0,,1.0,,,,,,,,,,,,,99.5,1.0,,,,,,,,,
87,,iti,,html-keyboard-response,87,58072,0.0-1.0-119.0,0,0,81393,,,,,,16.0,,1.0,,,,,,,,,,,,,101.0,1.5,,,,,,,,,
88,,rl_choice,,html-keyboard-response,88,58200,0.0-1.0-121.0,0,0,81393,,126.0,,,68.0,17.0,17.0,1.0,easy,2000.0,2000.0,1.0,80.0,20.0,100.0,40.0,C,D,/static/Simple_RL/Stimuli/Fractals_stims/C.jpg,/static/Simple_RL/Stimuli/Fractals_stims/D.jpg,101.126,0.126,0.0,1.0,80.0,20.0,100.0,40.0,C,D,
89,,rl_choice_confirmation,,html-keyboard-response,89,59578,0.0-1.0-122.0-0.0,0,0,81393,,,,,,17.0,,1.0,,,,,,,,,,,,,102.5,1.374,,,,,,,,,
90,,isi,,html-keyboard-response,90,59683,0.0-1.0-124.0,0,0,81393,,,,,,17.0,,1.0,,,,,,,,,,,,,104.5,2.0,,,,,,,,,
91,,feedback,,html-keyboard-response,91,60686,0.0-1.0-125.0-0.0,0,0,81393,,,,,,17.0,,1.0,,,,,,,,,,,,,105.5,1.0,,,,,,,,,
92,,iti,,html-keyboard-response,92,60788,0.0-1.0-126.0,0,0,81393,,,,,,17.0,,1.0,,,,,,,,,,,,,107.5,2.0,,,,,,,,,
93,,rl_choice,,html-keyboard-response,93,60893,0.0-1.0-128.0,0,0,81393,,104.0,,,68.0,18.0,18.0,1.0,hard,1000.0,1500.0,1.0,60.0,40.0,80.0,60.0,A,B,/static/Simple_RL/Stimuli/Fractals_stims/A.jpg,/static/Simple_RL/Stimuli/Fractals_stims/B.jpg,107.604,0.104,0.0,1.0,60.0,40.0,80.0,60.0,A,B,
94,,rl_choice_confirmation,,html-keyboard-response,94,62291,0.0-1.0-129.0-0.0,0,0,81393,,,,,,18.0,,1.0,,,,,,,,,,,,,109.0,1.396,,,,,,,,,
95,,isi,,html-keyboard-response,95,62393,0.0-1.0-131.0,0,0,81393,,,,,,18.0,,1.0,,,,,,,,,,,,,110.5,1.5,,,,,,,,,
96,,feedback,,html-keyboard-response,96,63397,0.0-1.0-132.0-0.0,0,0,81393,,,,,,18.0,,1.0,,,,,,,,,,,,,111.5,1.0,,,,,,,,,
97,,iti,,html-keyboard-response,97,63499,0.0-1.0-133.0,0,0,81393,,,,,,18.0,,1.0,,,,,,,,,,,,,112.5,1.0,,,,,,,,,
98,,rl_choice,,html-keyboard-response,98,64038,0.0-1.0-135.0,0,0,81393,,538.0,,,68.0,19.0,19.0,1.0,hard,1000.0,1000.0,1.0,60.0,40.0,60.0,20.0,A,B,/static/Simple_RL/Stimuli/Fractals_stims/A.jpg,/static/Simple_RL/Stimuli/Fractals_stims/B.jpg,113.038,0.538,0.0,1.0,60.0,40.0,60.0,20.0,A,B,
99,,rl_choice_confirmation,,html-keyboard-response,99,65006,0.0-1.0-136.0-0.0,0,0,81393,,,,,,19.0,,1.0,,,,,,,,,,,,,114.0,0.962,,,,,,,,,
100,,isi,,html-keyboard-response,100,65111,0.0-1.0-138.0,0,0,81393,,,,,,19.0,,1.0,,,,,,,,,,,,,115.0,1.0,,,,,,,,,
101,,feedback,,html-keyboard-response,101,66115,0.0-1.0-139.0-0.0,0,0,81393,,,,,,19.0,,1.0,,,,,,,,,,,,,116.0,1.0,,,,,,,,,
102,,iti,,html-keyboard-response,102,66217,0.0-1.0-140.0,0,0,81393,,,,,,19.0,,1.0,,,,,,,,,,,,,117.0,1.0,,,,,,,,,
103,,rl_choice,,html-keyboard-response,103,66222,0.0-1.0-142.0,0,0,81393,,3.0,,,68.0,20.0,20.0,1.0,easy,1000.0,1000.0,0.0,20.0,80.0,0.0,60.0,D,C,/static/Simple_RL/Stimuli/Fractals_stims/D.jpg,/static/Simple_RL/Stimuli/Fractals_stims/C.jpg,117.003,0.003,0.0,1.0,20.0,80.0,0.0,60.0,D,C,
104,,rl_choice_confirmation,,html-keyboard-response,104,67726,0.0-1.0-143.0-0.0,0,0,81393,,,,,,20.0,,1.0,,,,,,,,,,,,,118.5,1.497,,,,,,,,,
105,,isi,,html-keyboard-response,105,67830,0.0-1.0-145.0,0,0,81393,,,,,,20.0,,1.0,,,,,,,,,,,,,119.5,1.0,,,,,,,,,
106,,feedback,,html-keyboard-response,106,68835,0.0-1.0-146.0-0.0,0,0,81393,,,,,,20.0,,1.0,,,,,,,,,,,,,120.5,1.0,,,,,,,,,
107,,iti,,html-keyboard-response,107,68939,0.0-1.0-147.0,0,0,81393,,,,,,20.0,,1.0,,,,,,,,,,,,,121.5,1.0,,,,,,,,,
108,,rl_choice,,html-keyboard-response,108,69169,0.0-1.0-149.0,0,0,81393,,228.0,,,68.0,21.0,21.0,1.0,easy,2000.0,1500.0,1.0,80.0,20.0,60.0,20.0,C,D,/static/Simple_RL/Stimuli/Fractals_stims/C.jpg,/static/Simple_RL/Stimuli/Fractals_stims/D.jpg,121.728,0.228,0.0,1.0,80.0,20.0,60.0,20.0,C,D,
109,,rl_choice_confirmation,,html-keyboard-response,109,70446,0.0-1.0-150.0-0.0,0,0,81393,,,,,,21.0,,1.0,,,,,,,,,,,,,123.0,1.272,,,,,,,,,
110,,isi,,html-keyboard-response,110,70550,0.0-1.0-152.0,0,0,81393,,,,,,21.0,,1.0,,,,,,,,,,,,,124.5,1.5,,,,,,,,,
111,,feedback,,html-keyboard-response,111,71553,0.0-1.0-153.0-0.0,0,0,81393,,,,,,21.0,,1.0,,,,,,,,,,,,,125.5,1.0,,,,,,,,,
112,,iti,,html-keyboard-response,112,71657,0.0-1.0-154.0,0,0,81393,,,,,,21.0,,1.0,,,,,,,,,,,,,127.5,2.0,,,,,,,,,
113,,rl_choice,,html-keyboard-response,113,71716,0.0-1.0-156.0,0,0,81393,,58.0,,,68.0,22.0,22.0,1.0,easy,1000.0,1000.0,1.0,80.0,20.0,100.0,0.0,C,D,/static/Simple_RL/Stimuli/Fractals_stims/C.jpg,/static/Simple_RL/Stimuli/Fractals_stims/D.jpg,127.558,0.058,0.0,1.0,80.0,20.0,100.0,0.0,C,D,
114,,rl_choice_confirmation,,html-keyboard-response,114,73160,0.0-1.0-157.0-0.0,0,0,81393,,,,,,22.0,,1.0,,,,,,,,,,,,,129.0,1.442,,,,,,,,,
115,,isi,,html-keyboard-response,115,73262,0.0-1.0-159.0,0,0,81393,,,,,,22.0,,1.0,,,,,,,,,,,,,130.0,1.0,,,,,,,,,
116,,feedback,,html-keyboard-response,116,74264,0.0-1.0-160.0-0.0,0,0,81393,,,,,,22.0,,1.0,,,,,,,,,,,,,131.0,1.0,,,,,,,,,
117,,iti,,html-keyboard-response,117,74367,0.0-1.0-161.0,0,0,81393,,,,,,22.0,,1.0,,,,,,,,,,,,,132.0,1.0,,,,,,,,,
118,,rl_choice,,html-keyboard-response,118,74536,0.0-1.0-163.0,0,0,81393,,167.0,,,68.0,23.0,23.0,1.0,easy,1500.0,3000.0,1.0,80.0,20.0,80.0,20.0,C,D,/static/Simple_RL/Stimuli/Fractals_stims/C.jpg,/static/Simple_RL/Stimuli/Fractals_stims/D.jpg,132.167,0.167,0.0,1.0,80.0,20.0,80.0,20.0,C,D,
119,,rl_choice_confirmation,,html-keyboard-response,119,75874,0.0-1.0-164.0-0.0,0,0,81393,,,,,,23.0,,1.0,,,,,,,,,,,,,133.5,1.333,,,,,,,,,
120,,isi,,html-keyboard-response,120,75977,0.0-1.0-166.0,0,0,81393,,,,,,23.0,,1.0,,,,,,,,,,,,,136.5,3.0,,,,,,,,,
121,,feedback,,html-keyboard-response,121,76979,0.0-1.0-167.0-0.0,0,0,81393,,,,,,23.0,,1.0,,,,,,,,,,,,,137.5,1.0,,,,,,,,,
122,,iti,,html-keyboard-response,122,77082,0.0-1.0-168.0,0,0,81393,,,,,,23.0,,1.0,,,,,,,,,,,,,139.0,1.5,,,,,,,,,
123,,rl_choice,,html-keyboard-response,123,77224,0.0-1.0-170.0,0,0,81393,,140.0,,,68.0,24.0,24.0,1.0,hard,2000.0,1500.0,0.0,40.0,60.0,40.0,60.0,B,A,/static/Simple_RL/Stimuli/Fractals_stims/B.jpg,/static/Simple_RL/Stimuli/Fractals_stims/A.jpg,139.14,0.14,0.0,1.0,40.0,60.0,40.0,60.0,B,A,
124,,rl_choice_confirmation,,html-keyboard-response,124,78587,0.0-1.0-171.0-0.0,0,0,81393,,,,,,24.0,,1.0,,,,,,,,,,,,,140.5,1.36,,,,,,,,,
125,,isi,,html-keyboard-response,125,78692,0.0-1.0-173.0,0,0,81393,,,,,,24.0,,1.0,,,,,,,,,,,,,142.0,1.5,,,,,,,,,
126,,feedback,,html-keyboard-response,126,79694,0.0-1.0-174.0-0.0,0,0,81393,,,,,,24.0,,1.0,,,,,,,,,,,,,143.0,1.0,,,,,,,,,
127,,iti,,html-keyboard-response,127,79796,0.0-1.0-175.0,0,0,81393,,,,,,24.0,,1.0,,,,,,,,,,,,,145.0,2.0,,,,,,,,,
128,,rl_choice,,html-keyboard-response,128,80883,0.0-1.0-177.0,0,0,81393,,1086.0,,,68.0,25.0,25.0,1.0,hard,3000.0,1500.0,1.0,60.0,40.0,40.0,40.0,A,B,/static/Simple_RL/Stimuli/Fractals_stims/A.jpg,/static/Simple_RL/Stimuli/Fractals_stims/B.jpg,146.086,1.086,0.0,1.0,60.0,40.0,40.0,40.0,A,B,
129,,rl_choice_confirmation,,html-keyboard-response,129,81299,0.0-1.0-178.0-0.0,0,0,81393,,,,,,25.0,,1.0,,,,,,,,,,,,,146.5,0.414,,,,,,,,,
130,,isi,,html-keyboard-response,130,81401,0.0-1.0-180.0,0,0,81393,,,,,,25.0,,1.0,,,,,,,,,,,,,148.0,1.5,,,,,,,,,
131,,feedback,,html-keyboard-response,131,82404,0.0-1.0-181.0-0.0,0,0,81393,,,,,,25.0,,1.0,,,,,,,,,,,,,149.0,1.0,,,,,,,,,
132,,iti,,html-keyboard-response,132,82510,0.0-1.0-182.0,0,0,81393,,,,,,25.0,,1.0,,,,,,,,,,,,,152.0,3.0,,,,,,,,,
133,,rl_choice,,html-keyboard-response,133,82653,0.0-1.0-184.0,0,0,81393,,142.0,,,68.0,26.0,26.0,1.0,hard,1000.0,2000.0,0.0,40.0,60.0,40.0,80.0,B,A,/static/Simple_RL/Stimuli/Fractals_stims/B.jpg,/static/Simple_RL/Stimuli/Fractals_stims/A.jpg,152.142,0.142,0.0,1.0,40.0,60.0,40.0,80.0,B,A,
134,,rl_choice_confirmation,,html-keyboard-response,134,84015,0.0-1.0-185.0-0.0,0,0,81393,,,,,,26.0,,1.0,,,,,,,,,,,,,153.5,1.358,,,,,,,,,
135,,isi,,html-keyboard-response,135,84121,0.0-1.0-187.0,0,0,81393,,,,,,26.0,,1.0,,,,,,,,,,,,,155.5,2.0,,,,,,,,,
136,,feedback,,html-keyboard-response,136,85124,0.0-1.0-188.0-0.0,0,0,81393,,,,,,26.0,,1.0,,,,,,,,,,,,,156.5,1.0,,,,,,,,,
137,,iti,,html-keyboard-response,137,85224,0.0-1.0-189.0,0,0,81393,,,,,,26.0,,1.0,,,,,,,,,,,,,157.5,1.0,,,,,,,,,
138,,rl_choice,,html-keyboard-response,138,85445,0.0-1.0-191.0,0,0,81393,,220.0,,,68.0,27.0,27.0,1.0,easy,3000.0,1000.0,1.0,80.0,20.0,80.0,40.0,C,D,/static/Simple_RL/Stimuli/Fractals_stims/C.jpg,/static/Simple_RL/Stimuli/Fractals_stims/D.jpg,157.72,0.22,0.0,1.0,80.0,20.0,80.0,40.0,C,D,
139,,rl_choice_confirmation,,html-keyboard-response,139,86729,0.0-1.0-192.0-0.0,0,0,81393,,,,,,27.0,,1.0,,,,,,,,,,,,,159.0,1.28,,,,,,,,,
140,,isi,,html-keyboard-response,140,86831,0.0-1.0-194.0,0,0,81393,,,,,,27.0,,1.0,,,,,,,,,,,,,160.0,1.0,,,,,,,,,
141,,feedback,,html-keyboard-response,141,87834,0.0-1.0-195.0-0.0,0,0,81393,,,,,,27.0,,1.0,,,,,,,,,,,,,161.0,1.0,,,,,,,,,
142,,iti,,html-keyboard-response,142,87939,0.0-1.0-196.0,0,0,81393,,,,,,27.0,,1.0,,,,,,,,,,,,,164.0,3.0,,,,,,,,,
143,,rl_choice,,html-keyboard-response,143,88032,0.0-1.0-198.0,0,0,81393,,92.0,,,68.0,28.0,28.0,1.0,easy,1000.0,3500.0,1.0,80.0,20.0,60.0,20.0,C,D,/static/Simple_RL/Stimuli/Fractals_stims/C.jpg,/static/Simple_RL/Stimuli/Fractals_stims/D.jpg,164.092,0.092,0.0,1.0,80.0,20.0,60.0,20.0,C,D,
144,,rl_choice_confirmation,,html-keyboard-response,144,89444,0.0-1.0-199.0-0.0,0,0,81393,,,,,,28.0,,1.0,,,,,,,,,,,,,165.5,1.408,,,,,,,,,
145,,isi,,html-keyboard-response,145,89549,0.0-1.0-201.0,0,0,81393,,,,,,28.0,,1.0,,,,,,,,,,,,,169.0,3.5,,,,,,,,,
146,,feedback,,html-keyboard-response,146,90553,0.0-1.0-202.0-0.0,0,0,81393,,,,,,28.0,,1.0,,,,,,,,,,,,,170.0,1.0,,,,,,,,,
147,,iti,,html-keyboard-response,147,90658,0.0-1.0-203.0,0,0,81393,,,,,,28.0,,1.0,,,,,,,,,,,,,171.0,1.0,,,,,,,,,
148,,rl_choice,,html-keyboard-response,148,90802,0.0-1.0-205.0,0,0,81393,,142.0,,,68.0,29.0,29.0,1.0,hard,1500.0,1000.0,0.0,40.0,60.0,60.0,40.0,B,A,/static/Simple_RL/Stimuli/Fractals_stims/B.jpg,/static/Simple_RL/Stimuli/Fractals_stims/A.jpg,171.142,0.142,0.0,1.0,40.0,60.0,60.0,40.0,B,A,
149,,rl_choice_confirmation,,html-keyboard-response,149,92164,0.0-1.0-206.0-0.0,0,0,81393,,,,,,29.0,,1.0,,,,,,,,,,,,,172.5,1.358,,,,,,,,,
150,,isi,,html-keyboard-response,150,92270,0.0-1.0-208.0,0,0,81393,,,,,,29.0,,1.0,,,,,,,,,,,,,173.5,1.0,,,,,,,,,
151,,feedback,,html-keyboard-response,151,93274,0.0-1.0-209.0-0.0,0,0,81393,,,,,,29.0,,1.0,,,,,,,,,,,,,174.5,1.0,,,,,,,,,
152,,iti,,html-keyboard-response,152,93377,0.0-1.0-210.0,0,0,81393,,,,,,29.0,,1.0,,,,,,,,,,,,,176.0,1.5,,,,,,,,,
153,,rl_choice,,html-keyboard-response,153,93493,0.0-1.0-212.0,0,0,81393,,113.0,,,68.0,30.0,30.0,1.0,easy,1000.0,1500.0,1.0,80.0,20.0,100.0,20.0,C,D,/static/Simple_RL/Stimuli/Fractals_stims/C.jpg,/static/Simple_RL/Stimuli/Fractals_stims/D.jpg,176.113,0.113,0.0,1.0,80.0,20.0,100.0,20.0,C,D,
154,,rl_choice_confirmation,,html-keyboard-response,154,94884,0.0-1.0-213.0-0.0,0,0,81393,,,,,,30.0,,1.0,,,,,,,,,,,,,177.5,1.387,,,,,,,,,
155,,isi,,html-keyboard-response,155,94986,0.0-1.0-215.0,0,0,81393,,,,,,30.0,,1.0,,,,,,,,,,,,,179.0,1.5,,,,,,,,,
156,,feedback,,html-keyboard-response,156,95988,0.0-1.0-216.0-0.0,0,0,81393,,,,,,30.0,,1.0,,,,,,,,,,,,,180.0,1.0,,,,,,,,,
157,,iti,,html-keyboard-response,157,96093,0.0-1.0-217.0,0,0,81393,,,,,,30.0,,1.0,,,,,,,,,,,,,181.0,1.0,,,,,,,,,
158,,rl_choice,,html-keyboard-response,158,96377,0.0-1.0-219.0,0,0,81393,,281.0,,,68.0,31.0,31.0,1.0,easy,2000.0,1500.0,0.0,20.0,80.0,40.0,100.0,D,C,/static/Simple_RL/Stimuli/Fractals_stims/D.jpg,/static/Simple_RL/Stimuli/Fractals_stims/C.jpg,181.281,0.281,0.0,1.0,20.0,80.0,40.0,100.0,D,C,
159,,rl_choice_confirmation,,html-keyboard-response,159,97601,0.0-1.0-220.0-0.0,0,0,81393,,,,,,31.0,,1.0,,,,,,,,,,,,,182.5,1.219,,,,,,,,,
160,,isi,,html-keyboard-response,160,97704,0.0-1.0-222.0,0,0,81393,,,,,,31.0,,1.0,,,,,,,,,,,,,184.0,1.5,,,,,,,,,
161,,feedback,,html-keyboard-response,161,98711,0.0-1.0-223.0-0.0,0,0,81393,,,,,,31.0,,1.0,,,,,,,,,,,,,185.0,1.0,,,,,,,,,
162,,iti,,html-keyboard-response,162,98815,0.0-1.0-224.0,0,0,81393,,,,,,31.0,,1.0,,,,,,,,,,,,,187.0,2.0,,,,,,,,,
163,,rl_choice,,html-keyboard-response,163,99189,0.0-1.0-226.0,0,0,81393,,373.0,,,68.0,32.0,32.0,1.0,hard,1500.0,1000.0,0.0,40.0,60.0,40.0,80.0,B,A,/static/Simple_RL/Stimuli/Fractals_stims/B.jpg,/static/Simple_RL/Stimuli/Fractals_stims/A.jpg,187.373,0.373,0.0,1.0,40.0,60.0,40.0,80.0,B,A,
164,,rl_choice_confirmation,,html-keyboard-response,164,100318,0.0-1.0-227.0-0.0,0,0,81393,,,,,,32.0,,1.0,,,,,,,,,,,,,188.5,1.127,,,,,,,,,
165,,isi,,html-keyboard-response,165,100420,0.0-1.0-229.0,0,0,81393,,,,,,32.0,,1.0,,,,,,,,,,,,,189.5,1.0,,,,,,,,,
166,,feedback,,html-keyboard-response,166,101422,0.0-1.0-230.0-0.0,0,0,81393,,,,,,32.0,,1.0,,,,,,,,,,,,,190.5,1.0,,,,,,,,,
167,,iti,,html-keyboard-response,167,101528,0.0-1.0-231.0,0,0,81393,,,,,,32.0,,1.0,,,,,,,,,,,,,192.0,1.5,,,,,,,,,
168,,rl_choice,,html-keyboard-response,168,103034,0.0-1.0-233.0,0,0,81393,,,,,,33.0,33.0,1.0,easy,1000.0,1000.0,0.0,20.0,80.0,40.0,100.0,D,C,/static/Simple_RL/Stimuli/Fractals_stims/D.jpg,/static/Simple_RL/Stimuli/Fractals_stims/C.jpg,193.5,1.5,1.0,,,,,,,,
169,,rl_choice_warning,,html-keyboard-response,169,104036,0.0-1.0-235.0-0.0,0,0,81393,,,,,,33.0,,1.0,,,,,,,,,,,,,194.5,1.0,,,,,,,,,
170,,isi,,html-keyboard-response,170,104138,0.0-1.0-236.0,0,0,81393,,,,,,33.0,,1.0,,,,,,,,,,,,,195.5,1.0,,,,,,,,,
171,,iti,,html-keyboard-response,171,104241,0.0-1.0-238.0,0,0,81393,,,,,,33.0,,1.0,,,,,,,,,,,,,196.5,1.0,,,,,,,,,
172,,rl_choice,,html-keyboard-response,172,105748,0.0-1.0-240.0,0,0,81393,,,,,,34.0,34.0,1.0,easy,3500.0,3000.0,1.0,80.0,20.0,80.0,40.0,C,D,/static/Simple_RL/Stimuli/Fractals_stims/C.jpg,/static/Simple_RL/Stimuli/Fractals_stims/D.jpg,198.0,1.5,1.0,,,,,,,,
173,,rl_choice_warning,,html-keyboard-response,173,106750,0.0-1.0-242.0-0.0,0,0,81393,,,,,,34.0,,1.0,,,,,,,,,,,,,199.0,1.0,,,,,,,,,
174,,isi,,html-keyboard-response,174,106852,0.0-1.0-243.0,0,0,81393,,,,,,34.0,,1.0,,,,,,,,,,,,,202.0,3.0,,,,,,,,,
175,,iti,,html-keyboard-response,175,106954,0.0-1.0-245.0,0,0,81393,,,,,,34.0,,1.0,,,,,,,,,,,,,205.5,3.5,,,,,,,,,
176,,rl_choice,,html-keyboard-response,176,108458,0.0-1.0-247.0,0,0,81393,,,,,,35.0,35.0,1.0,easy,1500.0,2000.0,1.0,80.0,20.0,60.0,40.0,C,D,/static/Simple_RL/Stimuli/Fractals_stims/C.jpg,/static/Simple_RL/Stimuli/Fractals_stims/D.jpg,207.0,1.5,1.0,,,,,,,,
177,,rl_choice_warning,,html-keyboard-response,177,109461,0.0-1.0-249.0-0.0,0,0,81393,,,,,,35.0,,1.0,,,,,,,,,,,,,208.0,1.0,,,,,,,,,
178,,isi,,html-keyboard-response,178,109568,0.0-1.0-250.0,0,0,81393,,,,,,35.0,,1.0,,,,,,,,,,,,,210.0,2.0,,,,,,,,,
179,,iti,,html-keyboard-response,179,109674,0.0-1.0-252.0,0,0,81393,,,,,,35.0,,1.0,,,,,,,,,,,,,211.5,1.5,,,,,,,,,
180,,rl_choice,,html-keyboard-response,180,111177,0.0-1.0-254.0,0,0,81393,,,,,,36.0,36.0,1.0,easy,1500.0,1500.0,0.0,20.0,80.0,20.0,100.0,D,C,/static/Simple_RL/Stimuli/Fractals_stims/D.jpg,/static/Simple_RL/Stimuli/Fractals_stims/C.jpg,213.0,1.5,1.0,,,,,,,,
181,,rl_choice_warning,,html-keyboard-response,181,112180,0.0-1.0-256.0-0.0,0,0,81393,,,,,,36.0,,1.0,,,,,,,,,,,,,214.0,1.0,,,,,,,,,
182,,isi,,html-keyboard-response,182,112282,0.0-1.0-257.0,0,0,81393,,,,,,36.0,,1.0,,,,,,,,,,,,,215.5,1.5,,,,,,,,,
183,,iti,,html-keyboard-response,183,112384,0.0-1.0-259.0,0,0,81393,,,,,,36.0,,1.0,,,,,,,,,,,,,217.0,1.5,,,,,,,,,
184,,rl_choice,,html-keyboard-response,184,113888,0.0-1.0-261.0,0,0,81393,,,,,,37.0,37.0,1.0,hard,2000.0,1000.0,1.0,60.0,40.0,60.0,40.0,A,B,/static/Simple_RL/Stimuli/Fractals_stims/A.jpg,/static/Simple_RL/Stimuli/Fractals_stims/B.jpg,218.5,1.5,1.0,,,,,,,,
185,,rl_choice_warning,,html-keyboard-response,185,114889,0.0-1.0-263.0-0.0,0,0,81393,,,,,,37.0,,1.0,,,,,,,,,,,,,219.5,1.0,,,,,,,,,
186,,isi,,html-keyboard-response,186,114994,0.0-1.0-264.0,0,0,81393,,,,,,37.0,,1.0,,,,,,,,,,,,,220.5,1.0,,,,,,,,,
187,,iti,,html-keyboard-response,187,115099,0.0-1.0-266.0,0,0,81393,,,,,,37.0,,1.0,,,,,,,,,,,,,222.5,2.0,,,,,,,,,
188,,rl_choice,,html-keyboard-response,188,116602,0.0-1.0-268.0,0,0,81393,,,,,,38.0,38.0,1.0,hard,1000.0,1500.0,0.0,40.0,60.0,20.0,40.0,B,A,/static/Simple_RL/Stimuli/Fractals_stims/B.jpg,/static/Simple_RL/Stimuli/Fractals_stims/A.jpg,224.0,1.5,1.0,,,,,,,,
189,,rl_choice_warning,,html-keyboard-response,189,117604,0.0-1.0-270.0-0.0,0,0,81393,,,,,,38.0,,1.0,,,,,,,,,,,,,225.0,1.0,,,,,,,,,
190,,isi,,html-keyboard-response,190,117706,0.0-1.0-271.0,0,0,81393,,,,,,38.0,,1.0,,,,,,,,,,,,,226.5,1.5,,,,,,,,,
191,,iti,,html-keyboard-response,191,117812,0.0-1.0-273.0,0,0,81393,,,,,,38.0,,1.0,,,,,,,,,,,,,227.5,1.0,,,,,,,,,
192,,rl_choice,,html-keyboard-response,192,119317,0.0-1.0-275.0,0,0,81393,,,,,,39.0,39.0,1.0,easy,1000.0,1000.0,0.0,20.0,80.0,0.0,60.0,D,C,/static/Simple_RL/Stimuli/Fractals_stims/D.jpg,/static/Simple_RL/Stimuli/Fractals_stims/C.jpg,229.0,1.5,1.0,,,,,,,,
193,,rl_choice_warning,,html-keyboard-response,193,120319,0.0-1.0-277.0-0.0,0,0,81393,,,,,,39.0,,1.0,,,,,,,,,,,,,230.0,1.0,,,,,,,,,
194,,isi,,html-keyboard-response,194,120425,0.0-1.0-278.0,0,0,81393,,,,,,39.0,,1.0,,,,,,,,,,,,,231.0,1.0,,,,,,,,,
195,,iti,,html-keyboard-response,195,120527,0.0-1.0-280.0,0,0,81393,,,,,,39.0,,1.0,,,,,,,,,,,,,232.0,1.0,,,,,,,,,
196,,block_over,,html-keyboard-response,196,124342,0.0-1.0-281.0-0.0,0,0,81393,,3814.0,,,68.0,39.0,,,,,,,,,,,,,,,,,,,,,,,,,
197,,start_run,,html-keyboard-response,197,126105,0.0-1.0-281.0-1.0,0,0,81393,,1762.0,,,84.0,,,,,,,,,,,,,,,,,,,,,,,,,,
198,,rl_choice,,html-keyboard-response,198,127610,0.0-1.0-282.0,0,0,81393,,,,,,40.0,40.0,2.0,easy,1500.0,2000.0,1.0,80.0,20.0,60.0,20.0,C,D,/static/Simple_RL/Stimuli/Fractals_stims/C.jpg,/static/Simple_RL/Stimuli/Fractals_stims/D.jpg,1.5,1.5,1.0,,,,,,,,
199,,rl_choice_warning,,html-keyboard-response,199,128615,0.0-1.0-284.0-0.0,1,0,81393,,,,,,40.0,,2.0,,,,,,,,,,,,,2.5,1.0,,,,,,,,,
200,,isi,,html-keyboard-response,200,128720,0.0-1.0-285.0,0,0,81393,,,,,,40.0,,2.0,,,,,,,,,,,,,4.5,2.0,,,,,,,,,
201,,iti,,html-keyboard-response,201,128826,0.0-1.0-287.0,0,0,81393,,,,,,40.0,,2.0,,,,,,,,,,,,,6.0,1.5,,,,,,,,,
202,,rl_choice,,html-keyboard-response,202,129062,0.0-1.0-289.0,0,0,81393,,235.0,,,68.0,41.0,41.0,2.0,hard,1000.0,2000.0,0.0,40.0,60.0,60.0,60.0,B,A,/static/Simple_RL/Stimuli/Fractals_stims/B.jpg,/static/Simple_RL/Stimuli/Fractals_stims/A.jpg,6.235,0.235,0.0,1.0,40.0,60.0,60.0,60.0,B,A,
203,,rl_choice_confirmation,,html-keyboard-response,203,130330,0.0-1.0-290.0-0.0,0,0,81393,,,,,,41.0,,2.0,,,,,,,,,,,,,7.5,1.265,,,,,,,,,
204,,isi,,html-keyboard-response,204,130433,0.0-1.0-292.0,0,0,81393,,,,,,41.0,,2.0,,,,,,,,,,,,,9.5,2.0,,,,,,,,,
205,,feedback,,html-keyboard-response,205,131439,0.0-1.0-293.0-0.0,0,0,81393,,,,,,41.0,,2.0,,,,,,,,,,,,,10.5,1.0,,,,,,,,,
206,,iti,,html-keyboard-response,206,131541,0.0-1.0-294.0,0,0,81393,,,,,,41.0,,2.0,,,,,,,,,,,,,11.5,1.0,,,,,,,,,
207,,rl_choice,,html-keyboard-response,207,131605,0.0-1.0-296.0,0,0,81393,,62.0,,,68.0,42.0,42.0,2.0,hard,1500.0,1000.0,0.0,40.0,60.0,20.0,80.0,B,A,/static/Simple_RL/Stimuli/Fractals_stims/B.jpg,/static/Simple_RL/Stimuli/Fractals_stims/A.jpg,11.562,0.062,0.0,1.0,40.0,60.0,20.0,80.0,B,A,
208,,rl_choice_confirmation,,html-keyboard-response,208,133050,0.0-1.0-297.0-0.0,0,0,81393,,,,,,42.0,,2.0,,,,,,,,,,,,,13.0,1.438,,,,,,,,,
209,,isi,,html-keyboard-response,209,133151,0.0-1.0-299.0,0,0,81393,,,,,,42.0,,2.0,,,,,,,,,,,,,14.0,1.0,,,,,,,,,
210,,feedback,,html-keyboard-response,210,134156,0.0-1.0-300.0-0.0,0,0,81393,,,,,,42.0,,2.0,,,,,,,,,,,,,15.0,1.0,,,,,,,,,
211,,iti,,html-keyboard-response,211,134261,0.0-1.0-301.0,0,0,81393,,,,,,42.0,,2.0,,,,,,,,,,,,,16.5,1.5,,,,,,,,,
212,,rl_choice,,html-keyboard-response,212,134565,0.0-1.0-303.0,0,0,81393,,302.0,,,68.0,43.0,43.0,2.0,hard,1000.0,2000.0,0.0,40.0,60.0,20.0,80.0,B,A,/static/Simple_RL/Stimuli/Fractals_stims/B.jpg,/static/Simple_RL/Stimuli/Fractals_stims/A.jpg,16.802,0.302,0.0,1.0,40.0,60.0,20.0,80.0,B,A,
213,,rl_choice_confirmation,,html-keyboard-response,213,135767,0.0-1.0-304.0-0.0,0,0,81393,,,,,,43.0,,2.0,,,,,,,,,,,,,18.0,1.198,,,,,,,,,
214,,isi,,html-keyboard-response,214,135871,0.0-1.0-306.0,0,0,81393,,,,,,43.0,,2.0,,,,,,,,,,,,,20.0,2.0,,,,,,,,,
215,,feedback,,html-keyboard-response,215,136876,0.0-1.0-307.0-0.0,0,0,81393,,,,,,43.0,,2.0,,,,,,,,,,,,,21.0,1.0,,,,,,,,,
216,,iti,,html-keyboard-response,216,136980,0.0-1.0-308.0,0,0,81393,,,,,,43.0,,2.0,,,,,,,,,,,,,22.0,1.0,,,,,,,,,
217,,rl_choice,,html-keyboard-response,217,137265,0.0-1.0-310.0,0,0,81393,,282.0,,,68.0,44.0,44.0,2.0,hard,1000.0,1000.0,0.0,40.0,60.0,40.0,40.0,B,A,/static/Simple_RL/Stimuli/Fractals_stims/B.jpg,/static/Simple_RL/Stimuli/Fractals_stims/A.jpg,22.282,0.282,0.0,1.0,40.0,60.0,40.0,40.0,B,A,
218,,rl_choice_confirmation,,html-keyboard-response,218,138485,0.0-1.0-311.0-0.0,0,0,81393,,,,,,44.0,,2.0,,,,,,,,,,,,,23.5,1.218,,,,,,,,,
219,,isi,,html-keyboard-response,219,138586,0.0-1.0-313.0,0,0,81393,,,,,,44.0,,2.0,,,,,,,,,,,,,24.5,1.0,,,,,,,,,
220,,feedback,,html-keyboard-response,220,139592,0.0-1.0-314.0-0.0,0,0,81393,,,,,,44.0,,2.0,,,,,,,,,,,,,25.5,1.0,,,,,,,,,
221,,iti,,html-keyboard-response,221,139696,0.0-1.0-315.0,0,0,81393,,,,,,44.0,,2.0,,,,,,,,,,,,,26.5,1.0,,,,,,,,,
222,,rl_choice,,html-keyboard-response,222,139833,0.0-1.0-317.0,0,0,81393,,135.0,,,68.0,45.0,45.0,2.0,hard,2000.0,1500.0,0.0,40.0,60.0,20.0,40.0,B,A,/static/Simple_RL/Stimuli/Fractals_stims/B.jpg,/static/Simple_RL/Stimuli/Fractals_stims/A.jpg,26.635,0.135,0.0,1.0,40.0,60.0,20.0,40.0,B,A,
223,,rl_choice_confirmation,,html-keyboard-response,223,141202,0.0-1.0-318.0-0.0,0,0,81393,,,,,,45.0,,2.0,,,,,,,,,,,,,28.0,1.365,,,,,,,,,
224,,isi,,html-keyboard-response,224,141306,0.0-1.0-320.0,0,0,81393,,,,,,45.0,,2.0,,,,,,,,,,,,,29.5,1.5,,,,,,,,,
225,,feedback,,html-keyboard-response,225,142311,0.0-1.0-321.0-0.0,0,0,81393,,,,,,45.0,,2.0,,,,,,,,,,,,,30.5,1.0,,,,,,,,,
226,,iti,,html-keyboard-response,226,142415,0.0-1.0-322.0,0,0,81393,,,,,,45.0,,2.0,,,,,,,,,,,,,32.5,2.0,,,,,,,,,
227,,rl_choice,,html-keyboard-response,227,142784,0.0-1.0-324.0,0,0,81393,,366.0,,,68.0,46.0,46.0,2.0,easy,1500.0,3000.0,0.0,20.0,80.0,0.0,80.0,D,C,/static/Simple_RL/Stimuli/Fractals_stims/D.jpg,/static/Simple_RL/Stimuli/Fractals_stims/C.jpg,32.866,0.366,0.0,1.0,20.0,80.0,0.0,80.0,D,C,
228,,rl_choice_confirmation,,html-keyboard-response,228,143920,0.0-1.0-325.0-0.0,0,0,81393,,,,,,46.0,,2.0,,,,,,,,,,,,,34.0,1.134,,,,,,,,,
229,,isi,,html-keyboard-response,229,144022,0.0-1.0-327.0,0,0,81393,,,,,,46.0,,2.0,,,,,,,,,,,,,37.0,3.0,,,,,,,,,
230,,feedback,,html-keyboard-response,230,145029,0.0-1.0-328.0-0.0,0,0,81393,,,,,,46.0,,2.0,,,,,,,,,,,,,38.0,1.0,,,,,,,,,
231,,iti,,html-keyboard-response,231,145133,0.0-1.0-329.0,0,0,81393,,,,,,46.0,,2.0,,,,,,,,,,,,,39.5,1.5,,,,,,,,,
232,,rl_choice,,html-keyboard-response,232,145347,0.0-1.0-331.0,0,0,81393,,211.0,,,68.0,47.0,47.0,2.0,easy,1500.0,1000.0,0.0,20.0,80.0,20.0,80.0,D,C,/static/Simple_RL/Stimuli/Fractals_stims/D.jpg,/static/Simple_RL/Stimuli/Fractals_stims/C.jpg,39.711,0.211,0.0,1.0,20.0,80.0,20.0,80.0,D,C,
233,,rl_choice_confirmation,,html-keyboard-response,233,146640,0.0-1.0-332.0-0.0,0,0,81393,,,,,,47.0,,2.0,,,,,,,,,,,,,41.0,1.289,,,,,,,,,
234,,isi,,html-keyboard-response,234,146746,0.0-1.0-334.0,0,0,81393,,,,,,47.0,,2.0,,,,,,,,,,,,,42.0,1.0,,,,,,,,,
235,,feedback,,html-keyboard-response,235,147752,0.0-1.0-335.0-0.0,0,0,81393,,,,,,47.0,,2.0,,,,,,,,,,,,,43.0,1.0,,,,,,,,,
236,,iti,,html-keyboard-response,236,147856,0.0-1.0-336.0,0,0,81393,,,,,,47.0,,2.0,,,,,,,,,,,,,44.5,1.5,,,,,,,,,
237,,rl_choice,,html-keyboard-response,237,148386,0.0-1.0-338.0,0,0,81393,,528.0,,,68.0,48.0,48.0,2.0,easy,2000.0,1000.0,1.0,80.0,20.0,80.0,20.0,C,D,/static/Simple_RL/Stimuli/Fractals_stims/C.jpg,/static/Simple_RL/Stimuli/Fractals_stims/D.jpg,45.028,0.528,0.0,1.0,80.0,20.0,80.0,20.0,C,D,
238,,rl_choice_confirmation,,html-keyboard-response,238,149361,0.0-1.0-339.0-0.0,0,0,81393,,,,,,48.0,,2.0,,,,,,,,,,,,,46.0,0.972,,,,,,,,,
239,,isi,,html-keyboard-response,239,149467,0.0-1.0-341.0,0,0,81393,,,,,,48.0,,2.0,,,,,,,,,,,,,47.0,1.0,,,,,,,,,
240,,feedback,,html-keyboard-response,240,150472,0.0-1.0-342.0-0.0,0,0,81393,,,,,,48.0,,2.0,,,,,,,,,,,,,48.0,1.0,,,,,,,,,
241,,iti,,html-keyboard-response,241,150578,0.0-1.0-343.0,0,0,81393,,,,,,48.0,,2.0,,,,,,,,,,,,,50.0,2.0,,,,,,,,,
242,,rl_choice,,html-keyboard-response,242,151334,0.0-1.0-345.0,0,0,81393,,755.0,,,68.0,49.0,49.0,2.0,hard,1500.0,2000.0,0.0,40.0,60.0,60.0,60.0,B,A,/static/Simple_RL/Stimuli/Fractals_stims/B.jpg,/static/Simple_RL/Stimuli/Fractals_stims/A.jpg,50.755,0.755,0.0,1.0,40.0,60.0,60.0,60.0,B,A,
243,,rl_choice_confirmation,,html-keyboard-response,243,152085,0.0-1.0-346.0-0.0,0,0,81393,,,,,,49.0,,2.0,,,,,,,,,,,,,51.5,0.745,,,,,,,,,
244,,isi,,html-keyboard-response,244,152190,0.0-1.0-348.0,0,0,81393,,,,,,49.0,,2.0,,,,,,,,,,,,,53.5,2.0,,,,,,,,,
245,,feedback,,html-keyboard-response,245,153194,0.0-1.0-349.0-0.0,0,0,81393,,,,,,49.0,,2.0,,,,,,,,,,,,,54.5,1.0,,,,,,,,,
246,,iti,,html-keyboard-response,246,153301,0.0-1.0-350.0,0,0,81393,,,,,,49.0,,2.0,,,,,,,,,,,,,56.0,1.5,,,,,,,,,
247,,rl_choice,,html-keyboard-response,247,153610,0.0-1.0-352.0,0,0,81393,,308.0,,,68.0,50.0,50.0,2.0,easy,1000.0,3500.0,0.0,20.0,80.0,0.0,100.0,D,C,/static/Simple_RL/Stimuli/Fractals_stims/D.jpg,/static/Simple_RL/Stimuli/Fractals_stims/C.jpg,56.308,0.308,0.0,1.0,20.0,80.0,0.0,100.0,D,C,
248,,rl_choice_confirmation,,html-keyboard-response,248,154809,0.0-1.0-353.0-0.0,0,0,81393,,,,,,50.0,,2.0,,,,,,,,,,,,,57.5,1.192,,,,,,,,,
249,,isi,,html-keyboard-response,249,154912,0.0-1.0-355.0,0,0,81393,,,,,,50.0,,2.0,,,,,,,,,,,,,61.0,3.5,,,,,,,,,
250,,feedback,,html-keyboard-response,250,155916,0.0-1.0-356.0-0.0,0,0,81393,,,,,,50.0,,2.0,,,,,,,,,,,,,62.0,1.0,,,,,,,,,
251,,iti,,html-keyboard-response,251,156021,0.0-1.0-357.0,0,0,81393,,,,,,50.0,,2.0,,,,,,,,,,,,,63.0,1.0,,,,,,,,,
252,,rl_choice,,html-keyboard-response,252,156719,0.0-1.0-359.0,0,0,81393,,697.0,,,68.0,51.0,51.0,2.0,easy,1500.0,1000.0,1.0,80.0,20.0,60.0,20.0,C,D,/static/Simple_RL/Stimuli/Fractals_stims/C.jpg,/static/Simple_RL/Stimuli/Fractals_stims/D.jpg,63.697,0.697,0.0,1.0,80.0,20.0,60.0,20.0,C,D,
253,,rl_choice_confirmation,,html-keyboard-response,253,157525,0.0-1.0-360.0-0.0,0,0,81393,,,,,,51.0,,2.0,,,,,,,,,,,,,64.5,0.803,,,,,,,,,
254,,isi,,html-keyboard-response,254,157628,0.0-1.0-362.0,0,0,81393,,,,,,51.0,,2.0,,,,,,,,,,,,,65.5,1.0,,,,,,,,,
255,,feedback,,html-keyboard-response,255,158634,0.0-1.0-363.0-0.0,0,0,81393,,,,,,51.0,,2.0,,,,,,,,,,,,,66.5,1.0,,,,,,,,,
256,,iti,,html-keyboard-response,256,158736,0.0-1.0-364.0,0,0,81393,,,,,,51.0,,2.0,,,,,,,,,,,,,68.0,1.5,,,,,,,,,
257,,rl_choice,,html-keyboard-response,257,159020,0.0-1.0-366.0,0,0,81393,,283.0,,,68.0,52.0,52.0,2.0,hard,2000.0,1500.0,0.0,40.0,60.0,20.0,80.0,B,A,/static/Simple_RL/Stimuli/Fractals_stims/B.jpg,/static/Simple_RL/Stimuli/Fractals_stims/A.jpg,68.283,0.283,0.0,1.0,40.0,60.0,20.0,80.0,B,A,
258,,rl_choice_confirmation,,html-keyboard-response,258,160240,0.0-1.0-367.0-0.0,0,0,81393,,,,,,52.0,,2.0,,,,,,,,,,,,,69.5,1.217,,,,,,,,,
259,,isi,,html-keyboard-response,259,160341,0.0-1.0-369.0,0,0,81393,,,,,,52.0,,2.0,,,,,,,,,,,,,71.0,1.5,,,,,,,,,
260,,feedback,,html-keyboard-response,260,161344,0.0-1.0-370.0-0.0,0,0,81393,,,,,,52.0,,2.0,,,,,,,,,,,,,72.0,1.0,,,,,,,,,
261,,iti,,html-keyboard-response,261,161446,0.0-1.0-371.0,0,0,81393,,,,,,52.0,,2.0,,,,,,,,,,,,,74.0,2.0,,,,,,,,,
262,,rl_choice,,html-keyboard-response,262,161977,0.0-1.0-373.0,0,0,81393,,530.0,,,68.0,53.0,53.0,2.0,hard,3000.0,1500.0,0.0,40.0,60.0,20.0,40.0,B,A,/static/Simple_RL/Stimuli/Fractals_stims/B.jpg,/static/Simple_RL/Stimuli/Fractals_stims/A.jpg,74.53,0.53,0.0,1.0,40.0,60.0,20.0,40.0,B,A,
263,,rl_choice_confirmation,,html-keyboard-response,263,162951,0.0-1.0-374.0-0.0,0,0,81393,,,,,,53.0,,2.0,,,,,,,,,,,,,75.5,0.97,,,,,,,,,
264,,isi,,html-keyboard-response,264,163056,0.0-1.0-376.0,0,0,81393,,,,,,53.0,,2.0,,,,,,,,,,,,,77.0,1.5,,,,,,,,,
265,,feedback,,html-keyboard-response,265,164062,0.0-1.0-377.0-0.0,0,0,81393,,,,,,53.0,,2.0,,,,,,,,,,,,,78.0,1.0,,,,,,,,,
266,,iti,,html-keyboard-response,266,164165,0.0-1.0-378.0,0,0,81393,,,,,,53.0,,2.0,,,,,,,,,,,,,81.0,3.0,,,,,,,,,
267,,rl_choice,,html-keyboard-response,267,164812,0.0-1.0-380.0,0,0,81393,,645.0,,,68.0,54.0,54.0,2.0,easy,3000.0,1500.0,0.0,20.0,80.0,20.0,100.0,D,C,/static/Simple_RL/Stimuli/Fractals_stims/D.jpg,/static/Simple_RL/Stimuli/Fractals_stims/C.jpg,81.645,0.645,0.0,1.0,20.0,80.0,20.0,100.0,D,C,
268,,rl_choice_confirmation,,html-keyboard-response,268,165671,0.0-1.0-381.0-0.0,0,0,81393,,,,,,54.0,,2.0,,,,,,,,,,,,,82.5,0.855,,,,,,,,,
269,,isi,,html-keyboard-response,269,165776,0.0-1.0-383.0,0,0,81393,,,,,,54.0,,2.0,,,,,,,,,,,,,84.0,1.5,,,,,,,,,
270,,feedback,,html-keyboard-response,270,166779,0.0-1.0-384.0-0.0,0,0,81393,,,,,,54.0,,2.0,,,,,,,,,,,,,85.0,1.0,,,,,,,,,
271,,iti,,html-keyboard-response,271,166880,0.0-1.0-385.0,0,0,81393,,,,,,54.0,,2.0,,,,,,,,,,,,,88.0,3.0,,,,,,,,,
272,,rl_choice,,html-keyboard-response,272,167347,0.0-1.0-387.0,0,0,81393,,465.0,,,68.0,55.0,55.0,2.0,easy,1500.0,1500.0,1.0,80.0,20.0,80.0,20.0,C,D,/static/Simple_RL/Stimuli/Fractals_stims/C.jpg,/static/Simple_RL/Stimuli/Fractals_stims/D.jpg,88.465,0.465,0.0,1.0,80.0,20.0,80.0,20.0,C,D,
273,,rl_choice_confirmation,,html-keyboard-response,273,168388,0.0-1.0-388.0-0.0,0,0,81393,,,,,,55.0,,2.0,,,,,,,,,,,,,89.5,1.035,,,,,,,,,
274,,isi,,html-keyboard-response,274,168494,0.0-1.0-390.0,0,0,81393,,,,,,55.0,,2.0,,,,,,,,,,,,,91.0,1.5,,,,,,,,,
275,,feedback,,html-keyboard-response,275,169498,0.0-1.0-391.0-0.0,0,0,81393,,,,,,55.0,,2.0,,,,,,,,,,,,,92.0,1.0,,,,,,,,,
276,,iti,,html-keyboard-response,276,169600,0.0-1.0-392.0,0,0,81393,,,,,,55.0,,2.0,,,,,,,,,,,,,93.5,1.5,,,,,,,,,
277,,rl_choice,,html-keyboard-response,277,169781,0.0-1.0-394.0,0,0,81393,,179.0,,,68.0,56.0,56.0,2.0,easy,2000.0,2000.0,0.0,20.0,80.0,40.0,80.0,D,C,/static/Simple_RL/Stimuli/Fractals_stims/D.jpg,/static/Simple_RL/Stimuli/Fractals_stims/C.jpg,93.679,0.179,0.0,1.0,20.0,80.0,40.0,80.0,D,C,
278,,rl_choice_confirmation,,html-keyboard-response,278,171105,0.0-1.0-395.0-0.0,0,0,81393,,,,,,56.0,,2.0,,,,,,,,,,,,,95.0,1.321,,,,,,,,,
279,,isi,,html-keyboard-response,279,171211,0.0-1.0-397.0,0,0,81393,,,,,,56.0,,2.0,,,,,,,,,,,,,97.0,2.0,,,,,,,,,
280,,feedback,,html-keyboard-response,280,172213,0.0-1.0-398.0-0.0,0,0,81393,,,,,,56.0,,2.0,,,,,,,,,,,,,98.0,1.0,,,,,,,,,
281,,iti,,html-keyboard-response,281,172315,0.0-1.0-399.0,0,0,81393,,,,,,56.0,,2.0,,,,,,,,,,,,,100.0,2.0,,,,,,,,,
282,,rl_choice,,html-keyboard-response,282,172837,0.0-1.0-401.0,0,0,81393,,521.0,,,68.0,57.0,57.0,2.0,easy,1000.0,1000.0,0.0,20.0,80.0,20.0,80.0,D,C,/static/Simple_RL/Stimuli/Fractals_stims/D.jpg,/static/Simple_RL/Stimuli/Fractals_stims/C.jpg,100.521,0.521,0.0,1.0,20.0,80.0,20.0,80.0,D,C,
283,,rl_choice_confirmation,,html-keyboard-response,283,173821,0.0-1.0-402.0-0.0,0,0,81393,,,,,,57.0,,2.0,,,,,,,,,,,,,101.5,0.979,,,,,,,,,
284,,isi,,html-keyboard-response,284,173925,0.0-1.0-404.0,0,0,81393,,,,,,57.0,,2.0,,,,,,,,,,,,,102.5,1.0,,,,,,,,,
285,,feedback,,html-keyboard-response,285,174928,0.0-1.0-405.0-0.0,0,0,81393,,,,,,57.0,,2.0,,,,,,,,,,,,,103.5,1.0,,,,,,,,,
286,,iti,,html-keyboard-response,286,175029,0.0-1.0-406.0,0,0,81393,,,,,,57.0,,2.0,,,,,,,,,,,,,104.5,1.0,,,,,,,,,
287,,rl_choice,,html-keyboard-response,287,175426,0.0-1.0-408.0,0,0,81393,,396.0,,,68.0,58.0,58.0,2.0,easy,1000.0,1000.0,0.0,20.0,80.0,20.0,60.0,D,C,/static/Simple_RL/Stimuli/Fractals_stims/D.jpg,/static/Simple_RL/Stimuli/Fractals_stims/C.jpg,104.896,0.396,0.0,1.0,20.0,80.0,20.0,60.0,D,C,
288,,rl_choice_confirmation,,html-keyboard-response,288,176536,0.0-1.0-409.0-0.0,0,0,81393,,,,,,58.0,,2.0,,,,,,,,,,,,,106.0,1.104,,,,,,,,,
289,,isi,,html-keyboard-response,289,176640,0.0-1.0-411.0,0,0,81393,,,,,,58.0,,2.0,,,,,,,,,,,,,107.0,1.0,,,,,,,,,
290,,feedback,,html-keyboard-response,290,177643,0.0-1.0-412.0-0.0,0,0,81393,,,,,,58.0,,2.0,,,,,,,,,,,,,108.0,1.0,,,,,,,,,
291,,iti,,html-keyboard-response,291,177744,0.0-1.0-413.0,0,0,81393,,,,,,58.0,,2.0,,,,,,,,,,,,,109.0,1.0,,,,,,,,,
292,,rl_choice,,html-keyboard-response,292,179248,0.0-1.0-415.0,0,0,81393,,,,,,59.0,59.0,2.0,hard,1500.0,1000.0,1.0,60.0,40.0,80.0,40.0,A,B,/static/Simple_RL/Stimuli/Fractals_stims/A.jpg,/static/Simple_RL/Stimuli/Fractals_stims/B.jpg,110.5,1.5,1.0,,,,,,,,
293,,rl_choice_warning,,html-keyboard-response,293,180249,0.0-1.0-417.0-0.0,1,0,81393,,,,,,59.0,,2.0,,,,,,,,,,,,,111.5,1.0,,,,,,,,,
294,,isi,,html-keyboard-response,294,180354,0.0-1.0-418.0,0,0,81393,,,,,,59.0,,2.0,,,,,,,,,,,,,112.5,1.0,,,,,,,,,
295,,iti,,html-keyboard-response,295,180459,0.0-1.0-420.0,0,0,81393,,,,,,59.0,,2.0,,,,,,,,,,,,,114.0,1.5,,,,,,,,,
296,,rl_choice,,html-keyboard-response,296,181963,0.0-1.0-422.0,0,0,81393,,,,,,60.0,60.0,2.0,hard,1500.0,1000.0,1.0,60.0,40.0,40.0,40.0,A,B,/static/Simple_RL/Stimuli/Fractals_stims/A.jpg,/static/Simple_RL/Stimuli/Fractals_stims/B.jpg,115.5,1.5,1.0,,,,,,,,
297,,rl_choice_warning,,html-keyboard-response,297,182965,0.0-1.0-424.0-0.0,1,0,81393,,,,,,60.0,,2.0,,,,,,,,,,,,,116.5,1.0,,,,,,,,,
298,,isi,,html-keyboard-response,298,183070,0.0-1.0-425.0,0,0,81393,,,,,,60.0,,2.0,,,,,,,,,,,,,117.5,1.0,,,,,,,,,
299,,iti,,html-keyboard-response,299,183173,0.0-1.0-427.0,0,0,81393,,,,,,60.0,,2.0,,,,,,,,,,,,,119.0,1.5,,,,,,,,,
300,,rl_choice,,html-keyboard-response,300,184169,0.0-1.0-429.0,0,0,81393,,994.0,,,68.0,61.0,61.0,2.0,hard,1000.0,1000.0,1.0,60.0,40.0,40.0,60.0,A,B,/static/Simple_RL/Stimuli/Fractals_stims/A.jpg,/static/Simple_RL/Stimuli/Fractals_stims/B.jpg,119.994,0.994,0.0,1.0,60.0,40.0,40.0,60.0,A,B,
301,,rl_choice_confirmation,,html-keyboard-response,301,184677,0.0-1.0-430.0-0.0,0,0,81393,,,,,,61.0,,2.0,,,,,,,,,,,,,120.5,0.506,,,,,,,,,
302,,isi,,html-keyboard-response,302,184780,0.0-1.0-432.0,0,0,81393,,,,,,61.0,,2.0,,,,,,,,,,,,,121.5,1.0,,,,,,,,,
303,,feedback,,html-keyboard-response,303,185785,0.0-1.0-433.0-0.0,0,0,81393,,,,,,61.0,,2.0,,,,,,,,,,,,,122.5,1.0,,,,,,,,,
304,,iti,,html-keyboard-response,304,185888,0.0-1.0-434.0,0,0,81393,,,,,,61.0,,2.0,,,,,,,,,,,,,123.5,1.0,,,,,,,,,
305,,rl_choice,,html-keyboard-response,305,186761,0.0-1.0-436.0,0,0,81393,,871.0,,,68.0,62.0,62.0,2.0,hard,1000.0,3000.0,1.0,60.0,40.0,60.0,20.0,A,B,/static/Simple_RL/Stimuli/Fractals_stims/A.jpg,/static/Simple_RL/Stimuli/Fractals_stims/B.jpg,124.371,0.871,0.0,1.0,60.0,40.0,60.0,20.0,A,B,
306,,rl_choice_confirmation,,html-keyboard-response,306,187393,0.0-1.0-437.0-0.0,0,0,81393,,,,,,62.0,,2.0,,,,,,,,,,,,,125.0,0.629,,,,,,,,,
307,,isi,,html-keyboard-response,307,187499,0.0-1.0-439.0,0,0,81393,,,,,,62.0,,2.0,,,,,,,,,,,,,128.0,3.0,,,,,,,,,
308,,feedback,,html-keyboard-response,308,188502,0.0-1.0-440.0-0.0,0,0,81393,,,,,,62.0,,2.0,,,,,,,,,,,,,129.0,1.0,,,,,,,,,
309,,iti,,html-keyboard-response,309,188603,0.0-1.0-441.0,0,0,81393,,,,,,62.0,,2.0,,,,,,,,,,,,,130.0,1.0,,,,,,,,,
310,,rl_choice,,html-keyboard-response,310,188838,0.0-1.0-443.0,0,0,81393,,234.0,,,68.0,63.0,63.0,2.0,easy,2000.0,1500.0,0.0,20.0,80.0,20.0,60.0,D,C,/static/Simple_RL/Stimuli/Fractals_stims/D.jpg,/static/Simple_RL/Stimuli/Fractals_stims/C.jpg,130.234,0.234,0.0,1.0,20.0,80.0,20.0,60.0,D,C,
311,,rl_choice_confirmation,,html-keyboard-response,311,190107,0.0-1.0-444.0-0.0,0,0,81393,,,,,,63.0,,2.0,,,,,,,,,,,,,131.5,1.266,,,,,,,,,
312,,isi,,html-keyboard-response,312,190213,0.0-1.0-446.0,0,0,81393,,,,,,63.0,,2.0,,,,,,,,,,,,,133.0,1.5,,,,,,,,,
313,,feedback,,html-keyboard-response,313,191216,0.0-1.0-447.0-0.0,0,0,81393,,,,,,63.0,,2.0,,,,,,,,,,,,,134.0,1.0,,,,,,,,,
314,,iti,,html-keyboard-response,314,191317,0.0-1.0-448.0,0,0,81393,,,,,,63.0,,2.0,,,,,,,,,,,,,136.0,2.0,,,,,,,,,
315,,rl_choice,,html-keyboard-response,315,191631,0.0-1.0-450.0,0,0,81393,,313.0,,,68.0,64.0,64.0,2.0,easy,2000.0,1000.0,1.0,80.0,20.0,100.0,20.0,C,D,/static/Simple_RL/Stimuli/Fractals_stims/C.jpg,/static/Simple_RL/Stimuli/Fractals_stims/D.jpg,136.313,0.313,0.0,1.0,80.0,20.0,100.0,20.0,C,D,
316,,rl_choice_confirmation,,html-keyboard-response,316,192822,0.0-1.0-451.0-0.0,0,0,81393,,,,,,64.0,,2.0,,,,,,,,,,,,,137.5,1.187,,,,,,,,,
317,,isi,,html-keyboard-response,317,192926,0.0-1.0-453.0,0,0,81393,,,,,,64.0,,2.0,,,,,,,,,,,,,138.5,1.0,,,,,,,,,
318,,feedback,,html-keyboard-response,318,193929,0.0-1.0-454.0-0.0,0,0,81393,,,,,,64.0,,2.0,,,,,,,,,,,,,139.5,1.0,,,,,,,,,
319,,iti,,html-keyboard-response,319,194031,0.0-1.0-455.0,0,0,81393,,,,,,64.0,,2.0,,,,,,,,,,,,,141.5,2.0,,,,,,,,,
320,,rl_choice,,html-keyboard-response,320,194348,0.0-1.0-457.0,0,0,81393,,316.0,,,68.0,65.0,65.0,2.0,hard,2000.0,1500.0,1.0,60.0,40.0,60.0,40.0,A,B,/static/Simple_RL/Stimuli/Fractals_stims/A.jpg,/static/Simple_RL/Stimuli/Fractals_stims/B.jpg,141.816,0.316,0.0,1.0,60.0,40.0,60.0,40.0,A,B,
321,,rl_choice_confirmation,,html-keyboard-response,321,195536,0.0-1.0-458.0-0.0,0,0,81393,,,,,,65.0,,2.0,,,,,,,,,,,,,143.0,1.184,,,,,,,,,
322,,isi,,html-keyboard-response,322,195643,0.0-1.0-460.0,0,0,81393,,,,,,65.0,,2.0,,,,,,,,,,,,,144.5,1.5,,,,,,,,,
323,,feedback,,html-keyboard-response,323,196646,0.0-1.0-461.0-0.0,0,0,81393,,,,,,65.0,,2.0,,,,,,,,,,,,,145.5,1.0,,,,,,,,,
324,,iti,,html-keyboard-response,324,196751,0.0-1.0-462.0,0,0,81393,,,,,,65.0,,2.0,,,,,,,,,,,,,147.5,2.0,,,,,,,,,
325,,rl_choice,,html-keyboard-response,325,197051,0.0-1.0-464.0,0,0,81393,,298.0,,,68.0,66.0,66.0,2.0,hard,3000.0,1000.0,1.0,60.0,40.0,60.0,20.0,A,B,/static/Simple_RL/Stimuli/Fractals_stims/A.jpg,/static/Simple_RL/Stimuli/Fractals_stims/B.jpg,147.798,0.298,0.0,1.0,60.0,40.0,60.0,20.0,A,B,
326,,rl_choice_confirmation,,html-keyboard-response,326,198256,0.0-1.0-465.0-0.0,0,0,81393,,,,,,66.0,,2.0,,,,,,,,,,,,,149.0,1.202,,,,,,,,,
327,,isi,,html-keyboard-response,327,198358,0.0-1.0-467.0,0,0,81393,,,,,,66.0,,2.0,,,,,,,,,,,,,150.0,1.0,,,,,,,,,
328,,feedback,,html-keyboard-response,328,199363,0.0-1.0-468.0-0.0,0,0,81393,,,,,,66.0,,2.0,,,,,,,,,,,,,151.0,1.0,,,,,,,,,
329,,iti,,html-keyboard-response,329,199467,0.0-1.0-469.0,0,0,81393,,,,,,66.0,,2.0,,,,,,,,,,,,,154.0,3.0,,,,,,,,,
330,,rl_choice,,html-keyboard-response,330,199775,0.0-1.0-471.0,0,0,81393,,306.0,,,68.0,67.0,67.0,2.0,easy,3500.0,2000.0,1.0,80.0,20.0,60.0,40.0,C,D,/static/Simple_RL/Stimuli/Fractals_stims/C.jpg,/static/Simple_RL/Stimuli/Fractals_stims/D.jpg,154.306,0.306,0.0,1.0,80.0,20.0,60.0,40.0,C,D,
331,,rl_choice_confirmation,,html-keyboard-response,331,200971,0.0-1.0-472.0-0.0,0,0,81393,,,,,,67.0,,2.0,,,,,,,,,,,,,155.5,1.194,,,,,,,,,
332,,isi,,html-keyboard-response,332,201078,0.0-1.0-474.0,0,0,81393,,,,,,67.0,,2.0,,,,,,,,,,,,,157.5,2.0,,,,,,,,,
333,,feedback,,html-keyboard-response,333,202080,0.0-1.0-475.0-0.0,0,0,81393,,,,,,67.0,,2.0,,,,,,,,,,,,,158.5,1.0,,,,,,,,,
334,,iti,,html-keyboard-response,334,202183,0.0-1.0-476.0,0,0,81393,,,,,,67.0,,2.0,,,,,,,,,,,,,162.0,3.5,,,,,,,,,
335,,rl_choice,,html-keyboard-response,335,202311,0.0-1.0-478.0,0,0,81393,,126.0,,,68.0,68.0,68.0,2.0,easy,3000.0,2000.0,0.0,20.0,80.0,40.0,80.0,D,C,/static/Simple_RL/Stimuli/Fractals_stims/D.jpg,/static/Simple_RL/Stimuli/Fractals_stims/C.jpg,162.126,0.126,0.0,1.0,20.0,80.0,40.0,80.0,D,C,
336,,rl_choice_confirmation,,html-keyboard-response,336,203691,0.0-1.0-479.0-0.0,0,0,81393,,,,,,68.0,,2.0,,,,,,,,,,,,,163.5,1.374,,,,,,,,,
337,,isi,,html-keyboard-response,337,203797,0.0-1.0-481.0,0,0,81393,,,,,,68.0,,2.0,,,,,,,,,,,,,165.5,2.0,,,,,,,,,
338,,feedback,,html-keyboard-response,338,204801,0.0-1.0-482.0-0.0,0,0,81393,,,,,,68.0,,2.0,,,,,,,,,,,,,166.5,1.0,,,,,,,,,
339,,iti,,html-keyboard-response,339,204902,0.0-1.0-483.0,0,0,81393,,,,,,68.0,,2.0,,,,,,,,,,,,,169.5,3.0,,,,,,,,,
340,,rl_choice,,html-keyboard-response,340,205436,0.0-1.0-485.0,0,0,81393,,532.0,,,68.0,69.0,69.0,2.0,hard,2000.0,1000.0,1.0,60.0,40.0,40.0,60.0,A,B,/static/Simple_RL/Stimuli/Fractals_stims/A.jpg,/static/Simple_RL/Stimuli/Fractals_stims/B.jpg,170.032,0.532,0.0,1.0,60.0,40.0,40.0,60.0,A,B,
341,,rl_choice_confirmation,,html-keyboard-response,341,206406,0.0-1.0-486.0-0.0,0,0,81393,,,,,,69.0,,2.0,,,,,,,,,,,,,171.0,0.968,,,,,,,,,
342,,isi,,html-keyboard-response,342,206513,0.0-1.0-488.0,0,0,81393,,,,,,69.0,,2.0,,,,,,,,,,,,,172.0,1.0,,,,,,,,,
343,,feedback,,html-keyboard-response,343,207517,0.0-1.0-489.0-0.0,0,0,81393,,,,,,69.0,,2.0,,,,,,,,,,,,,173.0,1.0,,,,,,,,,
344,,iti,,html-keyboard-response,344,207622,0.0-1.0-490.0,0,0,81393,,,,,,69.0,,2.0,,,,,,,,,,,,,175.0,2.0,,,,,,,,,
345,,rl_choice,,html-keyboard-response,345,207868,0.0-1.0-492.0,0,0,81393,,243.0,,,68.0,70.0,70.0,2.0,hard,1000.0,3500.0,1.0,60.0,40.0,80.0,40.0,A,B,/static/Simple_RL/Stimuli/Fractals_stims/A.jpg,/static/Simple_RL/Stimuli/Fractals_stims/B.jpg,175.243,0.243,0.0,1.0,60.0,40.0,80.0,40.0,A,B,
346,,rl_choice_confirmation,,html-keyboard-response,346,209131,0.0-1.0-493.0-0.0,0,0,81393,,,,,,70.0,,2.0,,,,,,,,,,,,,176.5,1.257,,,,,,,,,
347,,isi,,html-keyboard-response,347,209238,0.0-1.0-495.0,0,0,81393,,,,,,70.0,,2.0,,,,,,,,,,,,,180.0,3.5,,,,,,,,,
348,,feedback,,html-keyboard-response,348,210241,0.0-1.0-496.0-0.0,0,0,81393,,,,,,70.0,,2.0,,,,,,,,,,,,,181.0,1.0,,,,,,,,,
349,,iti,,html-keyboard-response,349,210342,0.0-1.0-497.0,0,0,81393,,,,,,70.0,,2.0,,,,,,,,,,,,,182.0,1.0,,,,,,,,,
350,,rl_choice,,html-keyboard-response,350,210743,0.0-1.0-499.0,0,0,81393,,399.0,,,68.0,71.0,71.0,2.0,hard,1000.0,1500.0,1.0,60.0,40.0,40.0,40.0,A,B,/static/Simple_RL/Stimuli/Fractals_stims/A.jpg,/static/Simple_RL/Stimuli/Fractals_stims/B.jpg,182.399,0.399,0.0,1.0,60.0,40.0,40.0,40.0,A,B,
351,,rl_choice_confirmation,,html-keyboard-response,351,211845,0.0-1.0-500.0-0.0,0,0,81393,,,,,,71.0,,2.0,,,,,,,,,,,,,183.5,1.101,,,,,,,,,
352,,isi,,html-keyboard-response,352,211947,0.0-1.0-502.0,0,0,81393,,,,,,71.0,,2.0,,,,,,,,,,,,,185.0,1.5,,,,,,,,,
353,,feedback,,html-keyboard-response,353,212952,0.0-1.0-503.0-0.0,0,0,81393,,,,,,71.0,,2.0,,,,,,,,,,,,,186.0,1.0,,,,,,,,,
354,,iti,,html-keyboard-response,354,213056,0.0-1.0-504.0,0,0,81393,,,,,,71.0,,2.0,,,,,,,,,,,,,187.0,1.0,,,,,,,,,
355,,rl_choice,,html-keyboard-response,355,213315,0.0-1.0-506.0,0,0,81393,,256.0,,,68.0,72.0,72.0,2.0,easy,1000.0,1500.0,0.0,20.0,80.0,0.0,80.0,D,C,/static/Simple_RL/Stimuli/Fractals_stims/D.jpg,/static/Simple_RL/Stimuli/Fractals_stims/C.jpg,187.256,0.256,0.0,1.0,20.0,80.0,0.0,80.0,D,C,
356,,rl_choice_confirmation,,html-keyboard-response,356,214563,0.0-1.0-507.0-0.0,0,0,81393,,,,,,72.0,,2.0,,,,,,,,,,,,,188.5,1.244,,,,,,,,,
357,,isi,,html-keyboard-response,357,214667,0.0-1.0-509.0,0,0,81393,,,,,,72.0,,2.0,,,,,,,,,,,,,190.0,1.5,,,,,,,,,
358,,feedback,,html-keyboard-response,358,215672,0.0-1.0-510.0-0.0,0,0,81393,,,,,,72.0,,2.0,,,,,,,,,,,,,191.0,1.0,,,,,,,,,
359,,iti,,html-keyboard-response,359,215777,0.0-1.0-511.0,0,0,81393,,,,,,72.0,,2.0,,,,,,,,,,,,,192.0,1.0,,,,,,,,,
360,,rl_choice,,html-keyboard-response,360,216221,0.0-1.0-513.0,0,0,81393,,443.0,,,68.0,73.0,73.0,2.0,easy,1000.0,3000.0,1.0,80.0,20.0,60.0,0.0,C,D,/static/Simple_RL/Stimuli/Fractals_stims/C.jpg,/static/Simple_RL/Stimuli/Fractals_stims/D.jpg,192.443,0.443,0.0,1.0,80.0,20.0,60.0,0.0,C,D,
361,,rl_choice_confirmation,,html-keyboard-response,361,217280,0.0-1.0-514.0-0.0,0,0,81393,,,,,,73.0,,2.0,,,,,,,,,,,,,193.5,1.057,,,,,,,,,
362,,isi,,html-keyboard-response,362,217385,0.0-1.0-516.0,0,0,81393,,,,,,73.0,,2.0,,,,,,,,,,,,,196.5,3.0,,,,,,,,,
363,,feedback,,html-keyboard-response,363,218390,0.0-1.0-517.0-0.0,0,0,81393,,,,,,73.0,,2.0,,,,,,,,,,,,,197.5,1.0,,,,,,,,,
364,,iti,,html-keyboard-response,364,218497,0.0-1.0-518.0,0,0,81393,,,,,,73.0,,2.0,,,,,,,,,,,,,198.5,1.0,,,,,,,,,
365,,rl_choice,,html-keyboard-response,365,218669,0.0-1.0-520.0,0,0,81393,,171.0,,,68.0,74.0,74.0,2.0,hard,3500.0,2000.0,1.0,60.0,40.0,60.0,60.0,A,B,/static/Simple_RL/Stimuli/Fractals_stims/A.jpg,/static/Simple_RL/Stimuli/Fractals_stims/B.jpg,198.671,0.171,0.0,1.0,60.0,40.0,60.0,60.0,A,B,
366,,rl_choice_confirmation,,html-keyboard-response,366,220001,0.0-1.0-521.0-0.0,0,0,81393,,,,,,74.0,,2.0,,,,,,,,,,,,,200.0,1.329,,,,,,,,,
367,,isi,,html-keyboard-response,367,220105,0.0-1.0-523.0,0,0,81393,,,,,,74.0,,2.0,,,,,,,,,,,,,202.0,2.0,,,,,,,,,
368,,feedback,,html-keyboard-response,368,221110,0.0-1.0-524.0-0.0,0,0,81393,,,,,,74.0,,2.0,,,,,,,,,,,,,203.0,1.0,,,,,,,,,
369,,iti,,html-keyboard-response,369,221212,0.0-1.0-525.0,0,0,81393,,,,,,74.0,,2.0,,,,,,,,,,,,,206.5,3.5,,,,,,,,,
370,,rl_choice,,html-keyboard-response,370,221663,0.0-1.0-527.0,0,0,81393,,449.0,,,68.0,75.0,75.0,2.0,hard,1500.0,3000.0,0.0,40.0,60.0,60.0,80.0,B,A,/static/Simple_RL/Stimuli/Fractals_stims/B.jpg,/static/Simple_RL/Stimuli/Fractals_stims/A.jpg,206.949,0.449,0.0,1.0,40.0,60.0,60.0,80.0,B,A,
371,,rl_choice_confirmation,,html-keyboard-response,371,222716,0.0-1.0-528.0-0.0,0,0,81393,,,,,,75.0,,2.0,,,,,,,,,,,,,208.0,1.051,,,,,,,,,
372,,isi,,html-keyboard-response,372,222819,0.0-1.0-530.0,0,0,81393,,,,,,75.0,,2.0,,,,,,,,,,,,,211.0,3.0,,,,,,,,,
373,,feedback,,html-keyboard-response,373,223825,0.0-1.0-531.0-0.0,0,0,81393,,,,,,75.0,,2.0,,,,,,,,,,,,,212.0,1.0,,,,,,,,,
374,,iti,,html-keyboard-response,374,223929,0.0-1.0-532.0,0,0,81393,,,,,,75.0,,2.0,,,,,,,,,,,,,213.5,1.5,,,,,,,,,
375,,rl_choice,,html-keyboard-response,375,224285,0.0-1.0-534.0,0,0,81393,,354.0,,,68.0,76.0,76.0,2.0,easy,1000.0,1000.0,0.0,20.0,80.0,20.0,80.0,D,C,/static/Simple_RL/Stimuli/Fractals_stims/D.jpg,/static/Simple_RL/Stimuli/Fractals_stims/C.jpg,213.854,0.354,0.0,1.0,20.0,80.0,20.0,80.0,D,C,
376,,rl_choice_confirmation,,html-keyboard-response,376,225432,0.0-1.0-535.0-0.0,0,0,81393,,,,,,76.0,,2.0,,,,,,,,,,,,,215.0,1.146,,,,,,,,,
377,,isi,,html-keyboard-response,377,225537,0.0-1.0-537.0,0,0,81393,,,,,,76.0,,2.0,,,,,,,,,,,,,216.0,1.0,,,,,,,,,
378,,feedback,,html-keyboard-response,378,226543,0.0-1.0-538.0-0.0,0,0,81393,,,,,,76.0,,2.0,,,,,,,,,,,,,217.0,1.0,,,,,,,,,
379,,iti,,html-keyboard-response,379,226648,0.0-1.0-539.0,0,0,81393,,,,,,76.0,,2.0,,,,,,,,,,,,,218.0,1.0,,,,,,,,,
380,,rl_choice,,html-keyboard-response,380,226810,0.0-1.0-541.0,0,0,81393,,160.0,,,68.0,77.0,77.0,2.0,hard,1000.0,1000.0,0.0,40.0,60.0,60.0,40.0,B,A,/static/Simple_RL/Stimuli/Fractals_stims/B.jpg,/static/Simple_RL/Stimuli/Fractals_stims/A.jpg,218.16,0.16,0.0,1.0,40.0,60.0,60.0,40.0,B,A,
381,,rl_choice_confirmation,,html-keyboard-response,381,228155,0.0-1.0-542.0-0.0,0,0,81393,,,,,,77.0,,2.0,,,,,,,,,,,,,219.5,1.34,,,,,,,,,
382,,isi,,html-keyboard-response,382,228260,0.0-1.0-544.0,0,0,81393,,,,,,77.0,,2.0,,,,,,,,,,,,,220.5,1.0,,,,,,,,,
383,,feedback,,html-keyboard-response,383,229265,0.0-1.0-545.0-0.0,0,0,81393,,,,,,77.0,,2.0,,,,,,,,,,,,,221.5,1.0,,,,,,,,,
384,,iti,,html-keyboard-response,384,229370,0.0-1.0-546.0,0,0,81393,,,,,,77.0,,2.0,,,,,,,,,,,,,222.5,1.0,,,,,,,,,
385,,rl_choice,,html-keyboard-response,385,229630,0.0-1.0-548.0,0,0,81393,,257.0,,,68.0,78.0,78.0,2.0,easy,1000.0,1500.0,1.0,80.0,20.0,80.0,0.0,C,D,/static/Simple_RL/Stimuli/Fractals_stims/C.jpg,/static/Simple_RL/Stimuli/Fractals_stims/D.jpg,222.757,0.257,0.0,1.0,80.0,20.0,80.0,0.0,C,D,
386,,rl_choice_confirmation,,html-keyboard-response,386,230878,0.0-1.0-549.0-0.0,0,0,81393,,,,,,78.0,,2.0,,,,,,,,,,,,,224.0,1.243,,,,,,,,,
387,,isi,,html-keyboard-response,387,230982,0.0-1.0-551.0,0,0,81393,,,,,,78.0,,2.0,,,,,,,,,,,,,225.5,1.5,,,,,,,,,
388,,feedback,,html-keyboard-response,388,231989,0.0-1.0-552.0-0.0,0,0,81393,,,,,,78.0,,2.0,,,,,,,,,,,,,226.5,1.0,,,,,,,,,
389,,iti,,html-keyboard-response,389,232092,0.0-1.0-553.0,0,0,81393,,,,,,78.0,,2.0,,,,,,,,,,,,,227.5,1.0,,,,,,,,,
390,,rl_choice,,html-keyboard-response,390,232127,0.0-1.0-555.0,0,0,81393,,33.0,,,68.0,79.0,79.0,2.0,easy,1000.0,1000.0,0.0,20.0,80.0,0.0,100.0,D,C,/static/Simple_RL/Stimuli/Fractals_stims/D.jpg,/static/Simple_RL/Stimuli/Fractals_stims/C.jpg,227.533,0.033,0.0,1.0,20.0,80.0,0.0,100.0,D,C,
391,,rl_choice_confirmation,,html-keyboard-response,391,233598,0.0-1.0-556.0-0.0,0,0,81393,,,,,,79.0,,2.0,,,,,,,,,,,,,229.0,1.467,,,,,,,,,
392,,isi,,html-keyboard-response,392,233702,0.0-1.0-558.0,0,0,81393,,,,,,79.0,,2.0,,,,,,,,,,,,,230.0,1.0,,,,,,,,,
393,,feedback,,html-keyboard-response,393,234710,0.0-1.0-559.0-0.0,0,0,81393,,,,,,79.0,,2.0,,,,,,,,,,,,,231.0,1.0,,,,,,,,,
394,,iti,,html-keyboard-response,394,234813,0.0-1.0-560.0,0,0,81393,,,,,,79.0,,2.0,,,,,,,,,,,,,232.0,1.0,,,,,,,,,0.66
395,,final_tally,,html-keyboard-response,395,235135,0.0-2.0,0,0,81393,,319.0,,,68.0,,,,,,,,,,,,,,,,,,,,,,,,,,
