,success,ttype,start_time,trial_type,trial_index,time_elapsed,internal_node_id,warning,missed_checkup,PID,view_history,rt,responses,repeat_instructions,key_press,index,trial_num,block,condition,iti,isi,high_group_on_left,left_group_value,right_group_value,left_item_value,right_item_value,left_img,right_img,left_img_path,right_img_path,left_chosen,chosen_group_value,unchosen_group_value,chosen_item_value,unchosen_item_value,chosen_img,unchosen_img,onset,duration,no_response,total_bonus_tally
0,True,full_screen,d06072022hr1223,fullscreen,0,3145,0.0-0.0,0,0,63784,,,,,,,,,,,,,,,,,,,,,,,,,,,,,,,
1,,size_instructions,,instructions,1,24489,0.0-1.0-0.0-0.0,0,0,63784,"[{""page_index"":0,""viewing_time"":2876},{""page_index"":1,""viewing_time"":6475},{""page_index"":2,""viewing_time"":5275},{""page_index"":3,""viewing_time"":3407},{""page_index"":4,""viewing_time"":1821},{""page_index"":5,""viewing_time"":1489}]",21343.0,,,,,,,,,,,,,,,,,,,,,,,,,,,,,
2,,rl_comprehension_check,,survey-multi-choice,2,34356,0.0-1.0-0.0-1.0,0,0,63784,,9864.0,"{""Q0"":""True"",""Q1"":""False"",""Q2"":""D for left and K for right""}",1.0,,,,,,,,,,,,,,,,,,,,,,,,,,,
3,,missed_instruction_checkup,,html-keyboard-response,3,36678,0.0-1.0-0.0-2.0-0.0,0,0,63784,,2319.0,,,68.0,,,,,,,,,,,,,,,,,,,,,,,,,,
4,,size_instructions,,instructions,4,45267,0.0-1.0-0.1-0.1,0,0,63784,"[{""page_index"":0,""viewing_time"":3351},{""page_index"":1,""viewing_time"":1046},{""page_index"":2,""viewing_time"":1192},{""page_index"":3,""viewing_time"":891},{""page_index"":4,""viewing_time"":881},{""page_index"":5,""viewing_time"":1227}]",8588.0,,,,,,,,,,,,,,,,,,,,,,,,,,,,,
5,,rl_comprehension_check,,survey-multi-choice,5,59609,0.0-1.0-0.1-1.1,0,0,63784,,14339.0,"{""Q0"":""False"",""Q1"":""True"",""Q2"":""D for left and K for right""}",1.0,,,,,,,,,,,,,,,,,,,,,,,,,,,
6,,missed_instruction_checkup,,html-keyboard-response,6,62577,0.0-1.0-0.1-2.1-0.1,0,0,63784,,2963.0,,,68.0,,,,,,,,,,,,,,,,,,,,,,,,,,
7,,size_instructions,,instructions,7,68635,0.0-1.0-0.2-0.2,0,0,63784,"[{""page_index"":0,""viewing_time"":1493},{""page_index"":1,""viewing_time"":1159},{""page_index"":2,""viewing_time"":1024},{""page_index"":3,""viewing_time"":1211},{""page_index"":4,""viewing_time"":561},{""page_index"":5,""viewing_time"":608}]",6057.0,,,,,,,,,,,,,,,,,,,,,,,,,,,,,
8,,rl_comprehension_check,,survey-multi-choice,8,73323,0.0-1.0-0.2-1.2,0,0,63784,,4685.0,"{""Q0"":""False"",""Q1"":""False"",""Q2"":""D for left and K for right""}",1.0,,,,,,,,,,,,,,,,,,,,,,,,,,,
9,,missed_instruction_checkup,,html-keyboard-response,9,76017,0.0-1.0-0.2-2.2-0.2,0,0,63784,,2689.0,,,68.0,,,,,,,,,,,,,,,,,,,,,,,,,,
10,,size_instructions,,instructions,10,102727,0.0-1.0-0.3-0.3,0,0,63784,"[{""page_index"":0,""viewing_time"":1893},{""page_index"":1,""viewing_time"":9933},{""page_index"":2,""viewing_time"":11730},{""page_index"":3,""viewing_time"":988},{""page_index"":4,""viewing_time"":885},{""page_index"":5,""viewing_time"":1281}]",26710.0,,,,,,,,,,,,,,,,,,,,,,,,,,,,,
11,,rl_comprehension_check,,survey-multi-choice,11,115978,0.0-1.0-0.3-1.3,0,0,63784,,13248.0,"{""Q0"":""True"",""Q1"":""True"",""Q2"":""D for left and K for right""}",0.0,,,,,,,,,,,,,,,,,,,,,,,,,,,
12,,,,html-keyboard-response,12,118758,0.0-1.0-1.0,0,0,63784,,2776.0,,,68.0,,,,,,,,,,,,,,,,,,,,,,,,,,
13,,rl_choice,,html-keyboard-response,13,119625,0.0-1.0-2.0,0,0,63784,,866.0,,,68.0,0.0,0.0,1.0,hard,1000.0,2000.0,0.0,40.0,60.0,20.0,60.0,C,D,/static/Simple_RL/Stimuli/Fractals_stims/C.jpg,/static/Simple_RL/Stimuli/Fractals_stims/D.jpg,1.0,40.0,60.0,20.0,60.0,C,D,0.866,0.866,0.0,
14,,rl_choice_confirmation,,html-keyboard-response,14,120260,0.0-1.0-3.0-0.0,0,0,63784,,,,,,0.0,,1.0,,,,,,,,,,,,,,,,,,,,1.5,0.634,,
15,,isi,,html-keyboard-response,15,122267,0.0-1.0-5.0,0,0,63784,,,,,,0.0,,1.0,,,,,,,,,,,,,,,,,,,,3.5,2.0,,
16,,feedback,,html-keyboard-response,16,123273,0.0-1.0-6.0-0.0,0,0,63784,,,,,,0.0,,1.0,,,,,,,,,,,,,,,,,,,,4.5,1.0,,
17,,iti,,html-keyboard-response,17,124281,0.0-1.0-7.0,0,0,63784,,,,,,0.0,,1.0,,,,,,,,,,,,,,,,,,,,5.5,1.0,,
18,,rl_choice,,html-keyboard-response,18,124840,0.0-1.0-9.0,0,0,63784,,556.0,,,68.0,1.0,1.0,1.0,easy,1000.0,3000.0,1.0,80.0,20.0,100.0,40.0,B,A,/static/Simple_RL/Stimuli/Fractals_stims/B.jpg,/static/Simple_RL/Stimuli/Fractals_stims/A.jpg,1.0,80.0,20.0,100.0,40.0,B,A,6.056,0.556,0.0,
19,,rl_choice_confirmation,,html-keyboard-response,19,125792,0.0-1.0-10.0-0.0,0,0,63784,,,,,,1.0,,1.0,,,,,,,,,,,,,,,,,,,,7.0,0.944,,
20,,isi,,html-keyboard-response,20,128801,0.0-1.0-12.0,0,0,63784,,,,,,1.0,,1.0,,,,,,,,,,,,,,,,,,,,10.0,3.0,,
21,,feedback,,html-keyboard-response,21,129805,0.0-1.0-13.0-0.0,0,0,63784,,,,,,1.0,,1.0,,,,,,,,,,,,,,,,,,,,11.0,1.0,,
22,,iti,,html-keyboard-response,22,130816,0.0-1.0-14.0,0,0,63784,,,,,,1.0,,1.0,,,,,,,,,,,,,,,,,,,,12.0,1.0,,
23,,rl_choice,,html-keyboard-response,23,131336,0.0-1.0-16.0,0,0,63784,,517.0,,,68.0,2.0,2.0,1.0,hard,3000.0,1000.0,0.0,40.0,60.0,20.0,80.0,C,D,/static/Simple_RL/Stimuli/Fractals_stims/C.jpg,/static/Simple_RL/Stimuli/Fractals_stims/D.jpg,1.0,40.0,60.0,20.0,80.0,C,D,12.517,0.517,0.0,
24,,rl_choice_confirmation,,html-keyboard-response,24,132322,0.0-1.0-17.0-0.0,0,0,63784,,,,,,2.0,,1.0,,,,,,,,,,,,,,,,,,,,13.5,0.983,,
25,,isi,,html-keyboard-response,25,133329,0.0-1.0-19.0,0,0,63784,,,,,,2.0,,1.0,,,,,,,,,,,,,,,,,,,,14.5,1.0,,
26,,feedback,,html-keyboard-response,26,134335,0.0-1.0-20.0-0.0,0,0,63784,,,,,,2.0,,1.0,,,,,,,,,,,,,,,,,,,,15.5,1.0,,
27,,iti,,html-keyboard-response,27,137342,0.0-1.0-21.0,0,0,63784,,,,,,2.0,,1.0,,,,,,,,,,,,,,,,,,,,18.5,3.0,,
28,,rl_choice,,html-keyboard-response,28,137825,0.0-1.0-23.0,0,0,63784,,481.0,,,68.0,3.0,3.0,1.0,hard,1000.0,3500.0,0.0,40.0,60.0,60.0,60.0,C,D,/static/Simple_RL/Stimuli/Fractals_stims/C.jpg,/static/Simple_RL/Stimuli/Fractals_stims/D.jpg,1.0,40.0,60.0,60.0,60.0,C,D,18.981,0.481,0.0,
29,,rl_choice_confirmation,,html-keyboard-response,29,138852,0.0-1.0-24.0-0.0,0,0,63784,,,,,,3.0,,1.0,,,,,,,,,,,,,,,,,,,,20.0,1.019,,
30,,isi,,html-keyboard-response,30,142359,0.0-1.0-26.0,0,0,63784,,,,,,3.0,,1.0,,,,,,,,,,,,,,,,,,,,23.5,3.5,,
31,,feedback,,html-keyboard-response,31,143365,0.0-1.0-27.0-0.0,0,0,63784,,,,,,3.0,,1.0,,,,,,,,,,,,,,,,,,,,24.5,1.0,,
32,,iti,,html-keyboard-response,32,144372,0.0-1.0-28.0,0,0,63784,,,,,,3.0,,1.0,,,,,,,,,,,,,,,,,,,,25.5,1.0,,
33,,rl_choice,,html-keyboard-response,33,144910,0.0-1.0-30.0,0,0,63784,,536.0,,,68.0,4.0,4.0,1.0,hard,1500.0,3000.0,0.0,40.0,60.0,20.0,60.0,C,D,/static/Simple_RL/Stimuli/Fractals_stims/C.jpg,/static/Simple_RL/Stimuli/Fractals_stims/D.jpg,1.0,40.0,60.0,20.0,60.0,C,D,26.036,0.536,0.0,
34,,rl_choice_confirmation,,html-keyboard-response,34,145880,0.0-1.0-31.0-0.0,0,0,63784,,,,,,4.0,,1.0,,,,,,,,,,,,,,,,,,,,27.0,0.964,,
35,,isi,,html-keyboard-response,35,148885,0.0-1.0-33.0,0,0,63784,,,,,,4.0,,1.0,,,,,,,,,,,,,,,,,,,,30.0,3.0,,
36,,feedback,,html-keyboard-response,36,149895,0.0-1.0-34.0-0.0,0,0,63784,,,,,,4.0,,1.0,,,,,,,,,,,,,,,,,,,,31.0,1.0,,
37,,iti,,html-keyboard-response,37,151402,0.0-1.0-35.0,0,0,63784,,,,,,4.0,,1.0,,,,,,,,,,,,,,,,,,,,32.5,1.5,,
38,,rl_choice,,html-keyboard-response,38,151825,0.0-1.0-37.0,0,0,63784,,421.0,,,68.0,5.0,5.0,1.0,easy,2000.0,2000.0,0.0,20.0,80.0,20.0,100.0,A,B,/static/Simple_RL/Stimuli/Fractals_stims/A.jpg,/static/Simple_RL/Stimuli/Fractals_stims/B.jpg,1.0,20.0,80.0,20.0,100.0,A,B,32.921,0.421,0.0,
39,,rl_choice_confirmation,,html-keyboard-response,39,152913,0.0-1.0-38.0-0.0,0,0,63784,,,,,,5.0,,1.0,,,,,,,,,,,,,,,,,,,,34.0,1.079,,
40,,isi,,html-keyboard-response,40,154920,0.0-1.0-40.0,0,0,63784,,,,,,5.0,,1.0,,,,,,,,,,,,,,,,,,,,36.0,2.0,,
41,,feedback,,html-keyboard-response,41,155928,0.0-1.0-41.0-0.0,0,0,63784,,,,,,5.0,,1.0,,,,,,,,,,,,,,,,,,,,37.0,1.0,,
42,,iti,,html-keyboard-response,42,157934,0.0-1.0-42.0,0,0,63784,,,,,,5.0,,1.0,,,,,,,,,,,,,,,,,,,,39.0,2.0,,
43,,rl_choice,,html-keyboard-response,43,158600,0.0-1.0-44.0,0,0,63784,,665.0,,,68.0,6.0,6.0,1.0,hard,1000.0,1000.0,0.0,40.0,60.0,40.0,80.0,C,D,/static/Simple_RL/Stimuli/Fractals_stims/C.jpg,/static/Simple_RL/Stimuli/Fractals_stims/D.jpg,1.0,40.0,60.0,40.0,80.0,C,D,39.665,0.665,0.0,
44,,rl_choice_confirmation,,html-keyboard-response,44,159442,0.0-1.0-45.0-0.0,0,0,63784,,,,,,6.0,,1.0,,,,,,,,,,,,,,,,,,,,40.5,0.835,,
45,,isi,,html-keyboard-response,45,160443,0.0-1.0-47.0,0,0,63784,,,,,,6.0,,1.0,,,,,,,,,,,,,,,,,,,,41.5,1.0,,
46,,feedback,,html-keyboard-response,46,161445,0.0-1.0-48.0-0.0,0,0,63784,,,,,,6.0,,1.0,,,,,,,,,,,,,,,,,,,,42.5,1.0,,
47,,iti,,html-keyboard-response,47,162453,0.0-1.0-49.0,0,0,63784,,,,,,6.0,,1.0,,,,,,,,,,,,,,,,,,,,43.5,1.0,,
48,,rl_choice,,html-keyboard-response,48,162913,0.0-1.0-51.0,0,0,63784,,458.0,,,68.0,7.0,7.0,1.0,hard,1500.0,1000.0,0.0,40.0,60.0,60.0,80.0,C,D,/static/Simple_RL/Stimuli/Fractals_stims/C.jpg,/static/Simple_RL/Stimuli/Fractals_stims/D.jpg,1.0,40.0,60.0,60.0,80.0,C,D,43.958,0.458,0.0,
49,,rl_choice_confirmation,,html-keyboard-response,49,163970,0.0-1.0-52.0-0.0,0,0,63784,,,,,,7.0,,1.0,,,,,,,,,,,,,,,,,,,,45.0,1.042,,
50,,isi,,html-keyboard-response,50,164975,0.0-1.0-54.0,0,0,63784,,,,,,7.0,,1.0,,,,,,,,,,,,,,,,,,,,46.0,1.0,,
51,,feedback,,html-keyboard-response,51,165982,0.0-1.0-55.0-0.0,0,0,63784,,,,,,7.0,,1.0,,,,,,,,,,,,,,,,,,,,47.0,1.0,,
52,,iti,,html-keyboard-response,52,167490,0.0-1.0-56.0,0,0,63784,,,,,,7.0,,1.0,,,,,,,,,,,,,,,,,,,,48.5,1.5,,
53,,rl_choice,,html-keyboard-response,53,167968,0.0-1.0-58.0,0,0,63784,,477.0,,,68.0,8.0,8.0,1.0,easy,1500.0,2000.0,0.0,20.0,80.0,0.0,100.0,A,B,/static/Simple_RL/Stimuli/Fractals_stims/A.jpg,/static/Simple_RL/Stimuli/Fractals_stims/B.jpg,1.0,20.0,80.0,0.0,100.0,A,B,48.977,0.477,0.0,
54,,rl_choice_confirmation,,html-keyboard-response,54,168996,0.0-1.0-59.0-0.0,0,0,63784,,,,,,8.0,,1.0,,,,,,,,,,,,,,,,,,,,50.0,1.023,,
55,,isi,,html-keyboard-response,55,171006,0.0-1.0-61.0,0,0,63784,,,,,,8.0,,1.0,,,,,,,,,,,,,,,,,,,,52.0,2.0,,
56,,feedback,,html-keyboard-response,56,172022,0.0-1.0-62.0-0.0,0,0,63784,,,,,,8.0,,1.0,,,,,,,,,,,,,,,,,,,,53.0,1.0,,
57,,iti,,html-keyboard-response,57,173527,0.0-1.0-63.0,0,0,63784,,,,,,8.0,,1.0,,,,,,,,,,,,,,,,,,,,54.5,1.5,,
58,,rl_choice,,html-keyboard-response,58,173881,0.0-1.0-65.0,0,0,63784,,351.0,,,68.0,9.0,9.0,1.0,easy,2000.0,1000.0,1.0,80.0,20.0,60.0,0.0,B,A,/static/Simple_RL/Stimuli/Fractals_stims/B.jpg,/static/Simple_RL/Stimuli/Fractals_stims/A.jpg,1.0,80.0,20.0,60.0,0.0,B,A,54.851,0.351,0.0,
59,,rl_choice_confirmation,,html-keyboard-response,59,175035,0.0-1.0-66.0-0.0,0,0,63784,,,,,,9.0,,1.0,,,,,,,,,,,,,,,,,,,,56.0,1.149,,
60,,isi,,html-keyboard-response,60,176038,0.0-1.0-68.0,0,0,63784,,,,,,9.0,,1.0,,,,,,,,,,,,,,,,,,,,57.0,1.0,,
61,,feedback,,html-keyboard-response,61,177044,0.0-1.0-69.0-0.0,0,0,63784,,,,,,9.0,,1.0,,,,,,,,,,,,,,,,,,,,58.0,1.0,,
62,,iti,,html-keyboard-response,62,179051,0.0-1.0-70.0,0,0,63784,,,,,,9.0,,1.0,,,,,,,,,,,,,,,,,,,,60.0,2.0,,
63,,rl_choice,,html-keyboard-response,63,179408,0.0-1.0-72.0,0,0,63784,,354.0,,,75.0,10.0,10.0,1.0,hard,1000.0,1000.0,1.0,60.0,40.0,40.0,40.0,D,C,/static/Simple_RL/Stimuli/Fractals_stims/D.jpg,/static/Simple_RL/Stimuli/Fractals_stims/C.jpg,0.0,40.0,60.0,40.0,40.0,C,D,60.354,0.354,0.0,
64,,rl_choice_confirmation,,html-keyboard-response,64,180560,0.0-1.0-73.0-0.0,0,0,63784,,,,,,10.0,,1.0,,,,,,,,,,,,,,,,,,,,61.5,1.146,,
65,,isi,,html-keyboard-response,65,181565,0.0-1.0-75.0,0,0,63784,,,,,,10.0,,1.0,,,,,,,,,,,,,,,,,,,,62.5,1.0,,
66,,feedback,,html-keyboard-response,66,182570,0.0-1.0-76.0-0.0,0,0,63784,,,,,,10.0,,1.0,,,,,,,,,,,,,,,,,,,,63.5,1.0,,
67,,iti,,html-keyboard-response,67,183574,0.0-1.0-77.0,0,0,63784,,,,,,10.0,,1.0,,,,,,,,,,,,,,,,,,,,64.5,1.0,,
68,,rl_choice,,html-keyboard-response,68,183884,0.0-1.0-79.0,0,0,63784,,309.0,,,68.0,11.0,11.0,1.0,easy,1000.0,3000.0,0.0,20.0,80.0,20.0,60.0,A,B,/static/Simple_RL/Stimuli/Fractals_stims/A.jpg,/static/Simple_RL/Stimuli/Fractals_stims/B.jpg,1.0,20.0,80.0,20.0,60.0,A,B,64.809,0.309,0.0,
69,,rl_choice_confirmation,,html-keyboard-response,69,185084,0.0-1.0-80.0-0.0,0,0,63784,,,,,,11.0,,1.0,,,,,,,,,,,,,,,,,,,,66.0,1.191,,
70,,isi,,html-keyboard-response,70,188089,0.0-1.0-82.0,0,0,63784,,,,,,11.0,,1.0,,,,,,,,,,,,,,,,,,,,69.0,3.0,,
71,,feedback,,html-keyboard-response,71,189093,0.0-1.0-83.0-0.0,0,0,63784,,,,,,11.0,,1.0,,,,,,,,,,,,,,,,,,,,70.0,1.0,,
72,,iti,,html-keyboard-response,72,190101,0.0-1.0-84.0,0,0,63784,,,,,,11.0,,1.0,,,,,,,,,,,,,,,,,,,,71.0,1.0,,
73,,rl_choice,,html-keyboard-response,73,190442,0.0-1.0-86.0,0,0,63784,,338.0,,,68.0,12.0,12.0,1.0,easy,3000.0,1500.0,0.0,20.0,80.0,20.0,80.0,A,B,/static/Simple_RL/Stimuli/Fractals_stims/A.jpg,/static/Simple_RL/Stimuli/Fractals_stims/B.jpg,1.0,20.0,80.0,20.0,80.0,A,B,71.338,0.338,0.0,
74,,rl_choice_confirmation,,html-keyboard-response,74,191607,0.0-1.0-87.0-0.0,0,0,63784,,,,,,12.0,,1.0,,,,,,,,,,,,,,,,,,,,72.5,1.162,,
75,,isi,,html-keyboard-response,75,193117,0.0-1.0-89.0,0,0,63784,,,,,,12.0,,1.0,,,,,,,,,,,,,,,,,,,,74.0,1.5,,
76,,feedback,,html-keyboard-response,76,194121,0.0-1.0-90.0-0.0,0,0,63784,,,,,,12.0,,1.0,,,,,,,,,,,,,,,,,,,,75.0,1.0,,
77,,iti,,html-keyboard-response,77,197125,0.0-1.0-91.0,0,0,63784,,,,,,12.0,,1.0,,,,,,,,,,,,,,,,,,,,78.0,3.0,,
78,,rl_choice,,html-keyboard-response,78,197788,0.0-1.0-93.0,0,0,63784,,660.0,,,68.0,13.0,13.0,1.0,hard,1000.0,2000.0,0.0,40.0,60.0,40.0,80.0,C,D,/static/Simple_RL/Stimuli/Fractals_stims/C.jpg,/static/Simple_RL/Stimuli/Fractals_stims/D.jpg,1.0,40.0,60.0,40.0,80.0,C,D,78.66,0.66,0.0,
79,,rl_choice_confirmation,,html-keyboard-response,79,198629,0.0-1.0-94.0-0.0,0,0,63784,,,,,,13.0,,1.0,,,,,,,,,,,,,,,,,,,,79.5,0.84,,
80,,isi,,html-keyboard-response,80,200636,0.0-1.0-96.0,0,0,63784,,,,,,13.0,,1.0,,,,,,,,,,,,,,,,,,,,81.5,2.0,,
81,,feedback,,html-keyboard-response,81,201644,0.0-1.0-97.0-0.0,0,0,63784,,,,,,13.0,,1.0,,,,,,,,,,,,,,,,,,,,82.5,1.0,,
82,,iti,,html-keyboard-response,82,202647,0.0-1.0-98.0,0,0,63784,,,,,,13.0,,1.0,,,,,,,,,,,,,,,,,,,,83.5,1.0,,
83,,rl_choice,,html-keyboard-response,83,203113,0.0-1.0-100.0,0,0,63784,,463.0,,,75.0,14.0,14.0,1.0,easy,1500.0,1500.0,0.0,20.0,80.0,20.0,80.0,A,B,/static/Simple_RL/Stimuli/Fractals_stims/A.jpg,/static/Simple_RL/Stimuli/Fractals_stims/B.jpg,0.0,80.0,20.0,80.0,20.0,B,A,83.963,0.463,0.0,
84,,rl_choice_confirmation,,html-keyboard-response,84,204158,0.0-1.0-101.0-0.0,0,0,63784,,,,,,14.0,,1.0,,,,,,,,,,,,,,,,,,,,85.0,1.037,,
85,,isi,,html-keyboard-response,85,205664,0.0-1.0-103.0,0,0,63784,,,,,,14.0,,1.0,,,,,,,,,,,,,,,,,,,,86.5,1.5,,
86,,feedback,,html-keyboard-response,86,206669,0.0-1.0-104.0-0.0,0,0,63784,,,,,,14.0,,1.0,,,,,,,,,,,,,,,,,,,,87.5,1.0,,
87,,iti,,html-keyboard-response,87,208176,0.0-1.0-105.0,0,0,63784,,,,,,14.0,,1.0,,,,,,,,,,,,,,,,,,,,89.0,1.5,,
88,,rl_choice,,html-keyboard-response,88,208495,0.0-1.0-107.0,0,0,63784,,318.0,,,75.0,15.0,15.0,1.0,hard,1500.0,2000.0,1.0,60.0,40.0,40.0,60.0,D,C,/static/Simple_RL/Stimuli/Fractals_stims/D.jpg,/static/Simple_RL/Stimuli/Fractals_stims/C.jpg,0.0,40.0,60.0,60.0,40.0,C,D,89.318,0.318,0.0,
89,,rl_choice_confirmation,,html-keyboard-response,89,209687,0.0-1.0-108.0-0.0,0,0,63784,,,,,,15.0,,1.0,,,,,,,,,,,,,,,,,,,,90.5,1.182,,
90,,isi,,html-keyboard-response,90,211695,0.0-1.0-110.0,0,0,63784,,,,,,15.0,,1.0,,,,,,,,,,,,,,,,,,,,92.5,2.0,,
91,,feedback,,html-keyboard-response,91,212703,0.0-1.0-111.0-0.0,0,0,63784,,,,,,15.0,,1.0,,,,,,,,,,,,,,,,,,,,93.5,1.0,,
92,,iti,,html-keyboard-response,92,214210,0.0-1.0-112.0,0,0,63784,,,,,,15.0,,1.0,,,,,,,,,,,,,,,,,,,,95.0,1.5,,
93,,rl_choice,,html-keyboard-response,93,214690,0.0-1.0-114.0,0,0,63784,,478.0,,,75.0,16.0,16.0,1.0,hard,1000.0,1000.0,1.0,60.0,40.0,60.0,60.0,D,C,/static/Simple_RL/Stimuli/Fractals_stims/D.jpg,/static/Simple_RL/Stimuli/Fractals_stims/C.jpg,0.0,40.0,60.0,60.0,60.0,C,D,95.478,0.478,0.0,
94,,rl_choice_confirmation,,html-keyboard-response,94,215720,0.0-1.0-115.0-0.0,0,0,63784,,,,,,16.0,,1.0,,,,,,,,,,,,,,,,,,,,96.5,1.022,,
95,,isi,,html-keyboard-response,95,216727,0.0-1.0-117.0,0,0,63784,,,,,,16.0,,1.0,,,,,,,,,,,,,,,,,,,,97.5,1.0,,
96,,feedback,,html-keyboard-response,96,217735,0.0-1.0-118.0-0.0,0,0,63784,,,,,,16.0,,1.0,,,,,,,,,,,,,,,,,,,,98.5,1.0,,
97,,iti,,html-keyboard-response,97,218744,0.0-1.0-119.0,0,0,63784,,,,,,16.0,,1.0,,,,,,,,,,,,,,,,,,,,99.5,1.0,,
98,,rl_choice,,html-keyboard-response,98,219564,0.0-1.0-121.0,0,0,63784,,817.0,,,75.0,17.0,17.0,1.0,easy,3000.0,1500.0,1.0,80.0,20.0,60.0,20.0,B,A,/static/Simple_RL/Stimuli/Fractals_stims/B.jpg,/static/Simple_RL/Stimuli/Fractals_stims/A.jpg,0.0,20.0,80.0,20.0,60.0,A,B,100.317,0.817,0.0,
99,,rl_choice_confirmation,,html-keyboard-response,99,220252,0.0-1.0-122.0-0.0,0,0,63784,,,,,,17.0,,1.0,,,,,,,,,,,,,,,,,,,,101.0,0.683,,
100,,isi,,html-keyboard-response,100,221756,0.0-1.0-124.0,0,0,63784,,,,,,17.0,,1.0,,,,,,,,,,,,,,,,,,,,102.5,1.5,,
101,,feedback,,html-keyboard-response,101,222763,0.0-1.0-125.0-0.0,0,0,63784,,,,,,17.0,,1.0,,,,,,,,,,,,,,,,,,,,103.5,1.0,,
102,,iti,,html-keyboard-response,102,225769,0.0-1.0-126.0,0,0,63784,,,,,,17.0,,1.0,,,,,,,,,,,,,,,,,,,,106.5,3.0,,
103,,rl_choice,,html-keyboard-response,103,226251,0.0-1.0-128.0,0,0,63784,,480.0,,,68.0,18.0,18.0,1.0,hard,3500.0,1500.0,1.0,60.0,40.0,60.0,60.0,D,C,/static/Simple_RL/Stimuli/Fractals_stims/D.jpg,/static/Simple_RL/Stimuli/Fractals_stims/C.jpg,1.0,60.0,40.0,60.0,60.0,D,C,106.98,0.48,0.0,
104,,rl_choice_confirmation,,html-keyboard-response,104,227277,0.0-1.0-129.0-0.0,0,0,63784,,,,,,18.0,,1.0,,,,,,,,,,,,,,,,,,,,108.0,1.02,,
105,,isi,,html-keyboard-response,105,228779,0.0-1.0-131.0,0,0,63784,,,,,,18.0,,1.0,,,,,,,,,,,,,,,,,,,,109.5,1.5,,
106,,feedback,,html-keyboard-response,106,229786,0.0-1.0-132.0-0.0,0,0,63784,,,,,,18.0,,1.0,,,,,,,,,,,,,,,,,,,,110.5,1.0,,
107,,iti,,html-keyboard-response,107,233300,0.0-1.0-133.0,0,0,63784,,,,,,18.0,,1.0,,,,,,,,,,,,,,,,,,,,114.0,3.5,,
108,,rl_choice,,html-keyboard-response,108,233900,0.0-1.0-135.0,0,0,63784,,597.0,,,68.0,19.0,19.0,1.0,hard,2000.0,1500.0,1.0,60.0,40.0,60.0,20.0,D,C,/static/Simple_RL/Stimuli/Fractals_stims/D.jpg,/static/Simple_RL/Stimuli/Fractals_stims/C.jpg,1.0,60.0,40.0,60.0,20.0,D,C,114.597,0.597,0.0,
109,,rl_choice_confirmation,,html-keyboard-response,109,234809,0.0-1.0-136.0-0.0,0,0,63784,,,,,,19.0,,1.0,,,,,,,,,,,,,,,,,,,,115.5,0.903,,
110,,isi,,html-keyboard-response,110,236311,0.0-1.0-138.0,0,0,63784,,,,,,19.0,,1.0,,,,,,,,,,,,,,,,,,,,117.0,1.5,,
111,,feedback,,html-keyboard-response,111,237316,0.0-1.0-139.0-0.0,0,0,63784,,,,,,19.0,,1.0,,,,,,,,,,,,,,,,,,,,118.0,1.0,,
112,,iti,,html-keyboard-response,112,239319,0.0-1.0-140.0,0,0,63784,,,,,,19.0,,1.0,,,,,,,,,,,,,,,,,,,,120.0,2.0,,
113,,rl_choice,,html-keyboard-response,113,239931,0.0-1.0-142.0,0,0,63784,,610.0,,,75.0,20.0,20.0,1.0,easy,2000.0,1000.0,1.0,80.0,20.0,80.0,20.0,B,A,/static/Simple_RL/Stimuli/Fractals_stims/B.jpg,/static/Simple_RL/Stimuli/Fractals_stims/A.jpg,0.0,20.0,80.0,20.0,80.0,A,B,120.61,0.61,0.0,
114,,rl_choice_confirmation,,html-keyboard-response,114,240828,0.0-1.0-143.0-0.0,0,0,63784,,,,,,20.0,,1.0,,,,,,,,,,,,,,,,,,,,121.5,0.89,,
115,,isi,,html-keyboard-response,115,241837,0.0-1.0-145.0,0,0,63784,,,,,,20.0,,1.0,,,,,,,,,,,,,,,,,,,,122.5,1.0,,
116,,feedback,,html-keyboard-response,116,242844,0.0-1.0-146.0-0.0,0,0,63784,,,,,,20.0,,1.0,,,,,,,,,,,,,,,,,,,,123.5,1.0,,
117,,iti,,html-keyboard-response,117,244851,0.0-1.0-147.0,0,0,63784,,,,,,20.0,,1.0,,,,,,,,,,,,,,,,,,,,125.5,2.0,,
118,,rl_choice,,html-keyboard-response,118,245314,0.0-1.0-149.0,0,0,63784,,462.0,,,75.0,21.0,21.0,1.0,easy,1500.0,2000.0,1.0,80.0,20.0,80.0,20.0,B,A,/static/Simple_RL/Stimuli/Fractals_stims/B.jpg,/static/Simple_RL/Stimuli/Fractals_stims/A.jpg,0.0,20.0,80.0,20.0,80.0,A,B,125.962,0.462,0.0,
119,,rl_choice_confirmation,,html-keyboard-response,119,246358,0.0-1.0-150.0-0.0,0,0,63784,,,,,,21.0,,1.0,,,,,,,,,,,,,,,,,,,,127.0,1.038,,
120,,isi,,html-keyboard-response,120,248363,0.0-1.0-152.0,0,0,63784,,,,,,21.0,,1.0,,,,,,,,,,,,,,,,,,,,129.0,2.0,,
121,,feedback,,html-keyboard-response,121,249372,0.0-1.0-153.0-0.0,0,0,63784,,,,,,21.0,,1.0,,,,,,,,,,,,,,,,,,,,130.0,1.0,,
122,,iti,,html-keyboard-response,122,250879,0.0-1.0-154.0,0,0,63784,,,,,,21.0,,1.0,,,,,,,,,,,,,,,,,,,,131.5,1.5,,
123,,rl_choice,,html-keyboard-response,123,251413,0.0-1.0-156.0,0,0,63784,,532.0,,,75.0,22.0,22.0,1.0,easy,1000.0,1000.0,0.0,20.0,80.0,0.0,100.0,A,B,/static/Simple_RL/Stimuli/Fractals_stims/A.jpg,/static/Simple_RL/Stimuli/Fractals_stims/B.jpg,0.0,80.0,20.0,100.0,0.0,B,A,132.032,0.532,0.0,
124,,rl_choice_confirmation,,html-keyboard-response,124,252389,0.0-1.0-157.0-0.0,0,0,63784,,,,,,22.0,,1.0,,,,,,,,,,,,,,,,,,,,133.0,0.968,,
125,,isi,,html-keyboard-response,125,253392,0.0-1.0-159.0,0,0,63784,,,,,,22.0,,1.0,,,,,,,,,,,,,,,,,,,,134.0,1.0,,
126,,feedback,,html-keyboard-response,126,254398,0.0-1.0-160.0-0.0,0,0,63784,,,,,,22.0,,1.0,,,,,,,,,,,,,,,,,,,,135.0,1.0,,
127,,iti,,html-keyboard-response,127,255407,0.0-1.0-161.0,0,0,63784,,,,,,22.0,,1.0,,,,,,,,,,,,,,,,,,,,136.0,1.0,,
128,,rl_choice,,html-keyboard-response,128,256031,0.0-1.0-163.0,0,0,63784,,621.0,,,75.0,23.0,23.0,1.0,hard,2000.0,1000.0,1.0,60.0,40.0,80.0,60.0,D,C,/static/Simple_RL/Stimuli/Fractals_stims/D.jpg,/static/Simple_RL/Stimuli/Fractals_stims/C.jpg,0.0,40.0,60.0,60.0,80.0,C,D,136.621,0.621,0.0,
129,,rl_choice_confirmation,,html-keyboard-response,129,256915,0.0-1.0-164.0-0.0,0,0,63784,,,,,,23.0,,1.0,,,,,,,,,,,,,,,,,,,,137.5,0.879,,
130,,isi,,html-keyboard-response,130,257919,0.0-1.0-166.0,0,0,63784,,,,,,23.0,,1.0,,,,,,,,,,,,,,,,,,,,138.5,1.0,,
131,,feedback,,html-keyboard-response,131,258923,0.0-1.0-167.0-0.0,0,0,63784,,,,,,23.0,,1.0,,,,,,,,,,,,,,,,,,,,139.5,1.0,,
132,,iti,,html-keyboard-response,132,260930,0.0-1.0-168.0,0,0,63784,,,,,,23.0,,1.0,,,,,,,,,,,,,,,,,,,,141.5,2.0,,
133,,rl_choice,,html-keyboard-response,133,261354,0.0-1.0-170.0,0,0,63784,,421.0,,,75.0,24.0,24.0,1.0,hard,1000.0,3000.0,1.0,60.0,40.0,40.0,60.0,D,C,/static/Simple_RL/Stimuli/Fractals_stims/D.jpg,/static/Simple_RL/Stimuli/Fractals_stims/C.jpg,0.0,40.0,60.0,60.0,40.0,C,D,141.921,0.421,0.0,
134,,rl_choice_confirmation,,html-keyboard-response,134,262441,0.0-1.0-171.0-0.0,0,0,63784,,,,,,24.0,,1.0,,,,,,,,,,,,,,,,,,,,143.0,1.079,,
135,,isi,,html-keyboard-response,135,265449,0.0-1.0-173.0,0,0,63784,,,,,,24.0,,1.0,,,,,,,,,,,,,,,,,,,,146.0,3.0,,
136,,feedback,,html-keyboard-response,136,266457,0.0-1.0-174.0-0.0,0,0,63784,,,,,,24.0,,1.0,,,,,,,,,,,,,,,,,,,,147.0,1.0,,
137,,iti,,html-keyboard-response,137,267461,0.0-1.0-175.0,0,0,63784,,,,,,24.0,,1.0,,,,,,,,,,,,,,,,,,,,148.0,1.0,,
138,,rl_choice,,html-keyboard-response,138,267947,0.0-1.0-177.0,0,0,63784,,483.0,,,68.0,25.0,25.0,1.0,hard,2000.0,1000.0,1.0,60.0,40.0,40.0,40.0,D,C,/static/Simple_RL/Stimuli/Fractals_stims/D.jpg,/static/Simple_RL/Stimuli/Fractals_stims/C.jpg,1.0,60.0,40.0,40.0,40.0,D,C,148.483,0.483,0.0,
139,,rl_choice_confirmation,,html-keyboard-response,139,268974,0.0-1.0-178.0-0.0,0,0,63784,,,,,,25.0,,1.0,,,,,,,,,,,,,,,,,,,,149.5,1.017,,
140,,isi,,html-keyboard-response,140,269980,0.0-1.0-180.0,0,0,63784,,,,,,25.0,,1.0,,,,,,,,,,,,,,,,,,,,150.5,1.0,,
141,,feedback,,html-keyboard-response,141,270988,0.0-1.0-181.0-0.0,0,0,63784,,,,,,25.0,,1.0,,,,,,,,,,,,,,,,,,,,151.5,1.0,,
142,,iti,,html-keyboard-response,142,272994,0.0-1.0-182.0,0,0,63784,,,,,,25.0,,1.0,,,,,,,,,,,,,,,,,,,,153.5,2.0,,
143,,rl_choice,,html-keyboard-response,143,273311,0.0-1.0-184.0,0,0,63784,,315.0,,,75.0,26.0,26.0,1.0,easy,1000.0,1000.0,1.0,80.0,20.0,100.0,20.0,B,A,/static/Simple_RL/Stimuli/Fractals_stims/B.jpg,/static/Simple_RL/Stimuli/Fractals_stims/A.jpg,0.0,20.0,80.0,20.0,100.0,A,B,153.815,0.315,0.0,
144,,rl_choice_confirmation,,html-keyboard-response,144,274514,0.0-1.0-185.0-0.0,0,0,63784,,,,,,26.0,,1.0,,,,,,,,,,,,,,,,,,,,155.0,1.185,,
145,,isi,,html-keyboard-response,145,275521,0.0-1.0-187.0,0,0,63784,,,,,,26.0,,1.0,,,,,,,,,,,,,,,,,,,,156.0,1.0,,
146,,feedback,,html-keyboard-response,146,276524,0.0-1.0-188.0-0.0,0,0,63784,,,,,,26.0,,1.0,,,,,,,,,,,,,,,,,,,,157.0,1.0,,
147,,iti,,html-keyboard-response,147,277534,0.0-1.0-189.0,0,0,63784,,,,,,26.0,,1.0,,,,,,,,,,,,,,,,,,,,158.0,1.0,,
148,,rl_choice,,html-keyboard-response,148,278060,0.0-1.0-191.0,0,0,63784,,525.0,,,68.0,27.0,27.0,1.0,hard,1000.0,1500.0,0.0,40.0,60.0,20.0,80.0,C,D,/static/Simple_RL/Stimuli/Fractals_stims/C.jpg,/static/Simple_RL/Stimuli/Fractals_stims/D.jpg,1.0,40.0,60.0,20.0,80.0,C,D,158.525,0.525,0.0,
149,,rl_choice_confirmation,,html-keyboard-response,149,279038,0.0-1.0-192.0-0.0,0,0,63784,,,,,,27.0,,1.0,,,,,,,,,,,,,,,,,,,,159.5,0.975,,
150,,isi,,html-keyboard-response,150,280542,0.0-1.0-194.0,0,0,63784,,,,,,27.0,,1.0,,,,,,,,,,,,,,,,,,,,161.0,1.5,,
151,,feedback,,html-keyboard-response,151,281546,0.0-1.0-195.0-0.0,0,0,63784,,,,,,27.0,,1.0,,,,,,,,,,,,,,,,,,,,162.0,1.0,,
152,,iti,,html-keyboard-response,152,282553,0.0-1.0-196.0,0,0,63784,,,,,,27.0,,1.0,,,,,,,,,,,,,,,,,,,,163.0,1.0,,
153,,rl_choice,,html-keyboard-response,153,283458,0.0-1.0-198.0,0,0,63784,,903.0,,,68.0,28.0,28.0,1.0,hard,1500.0,1500.0,0.0,40.0,60.0,40.0,40.0,C,D,/static/Simple_RL/Stimuli/Fractals_stims/C.jpg,/static/Simple_RL/Stimuli/Fractals_stims/D.jpg,1.0,40.0,60.0,40.0,40.0,C,D,163.903,0.903,0.0,
154,,rl_choice_confirmation,,html-keyboard-response,154,284073,0.0-1.0-199.0-0.0,0,0,63784,,,,,,28.0,,1.0,,,,,,,,,,,,,,,,,,,,164.5,0.597,,
155,,isi,,html-keyboard-response,155,285582,0.0-1.0-201.0,0,0,63784,,,,,,28.0,,1.0,,,,,,,,,,,,,,,,,,,,166.0,1.5,,
156,,feedback,,html-keyboard-response,156,286587,0.0-1.0-202.0-0.0,0,0,63784,,,,,,28.0,,1.0,,,,,,,,,,,,,,,,,,,,167.0,1.0,,
157,,iti,,html-keyboard-response,157,288097,0.0-1.0-203.0,0,0,63784,,,,,,28.0,,1.0,,,,,,,,,,,,,,,,,,,,168.5,1.5,,
158,,rl_choice,,html-keyboard-response,158,288518,0.0-1.0-205.0,0,0,63784,,420.0,,,68.0,29.0,29.0,1.0,easy,1000.0,1000.0,0.0,20.0,80.0,20.0,80.0,A,B,/static/Simple_RL/Stimuli/Fractals_stims/A.jpg,/static/Simple_RL/Stimuli/Fractals_stims/B.jpg,1.0,20.0,80.0,20.0,80.0,A,B,168.92,0.42,0.0,
159,,rl_choice_confirmation,,html-keyboard-response,159,289603,0.0-1.0-206.0-0.0,0,0,63784,,,,,,29.0,,1.0,,,,,,,,,,,,,,,,,,,,170.0,1.08,,
160,,isi,,html-keyboard-response,160,290607,0.0-1.0-208.0,0,0,63784,,,,,,29.0,,1.0,,,,,,,,,,,,,,,,,,,,171.0,1.0,,
161,,feedback,,html-keyboard-response,161,291615,0.0-1.0-209.0-0.0,0,0,63784,,,,,,29.0,,1.0,,,,,,,,,,,,,,,,,,,,172.0,1.0,,
162,,iti,,html-keyboard-response,162,292618,0.0-1.0-210.0,0,0,63784,,,,,,29.0,,1.0,,,,,,,,,,,,,,,,,,,,173.0,1.0,,
163,,rl_choice,,html-keyboard-response,163,293065,0.0-1.0-212.0,0,0,63784,,445.0,,,68.0,30.0,30.0,1.0,hard,1500.0,2000.0,1.0,60.0,40.0,80.0,60.0,D,C,/static/Simple_RL/Stimuli/Fractals_stims/D.jpg,/static/Simple_RL/Stimuli/Fractals_stims/C.jpg,1.0,60.0,40.0,80.0,60.0,D,C,173.445,0.445,0.0,
164,,rl_choice_confirmation,,html-keyboard-response,164,294126,0.0-1.0-213.0-0.0,0,0,63784,,,,,,30.0,,1.0,,,,,,,,,,,,,,,,,,,,174.5,1.055,,
165,,isi,,html-keyboard-response,165,296131,0.0-1.0-215.0,0,0,63784,,,,,,30.0,,1.0,,,,,,,,,,,,,,,,,,,,176.5,2.0,,
166,,feedback,,html-keyboard-response,166,297142,0.0-1.0-216.0-0.0,0,0,63784,,,,,,30.0,,1.0,,,,,,,,,,,,,,,,,,,,177.5,1.0,,
167,,iti,,html-keyboard-response,167,298652,0.0-1.0-217.0,0,0,63784,,,,,,30.0,,1.0,,,,,,,,,,,,,,,,,,,,179.0,1.5,,
168,,rl_choice,,html-keyboard-response,168,299183,0.0-1.0-219.0,0,0,63784,,529.0,,,68.0,31.0,31.0,1.0,easy,1000.0,1500.0,1.0,80.0,20.0,80.0,0.0,B,A,/static/Simple_RL/Stimuli/Fractals_stims/B.jpg,/static/Simple_RL/Stimuli/Fractals_stims/A.jpg,1.0,80.0,20.0,80.0,0.0,B,A,179.529,0.529,0.0,
169,,rl_choice_confirmation,,html-keyboard-response,169,300164,0.0-1.0-220.0-0.0,0,0,63784,,,,,,31.0,,1.0,,,,,,,,,,,,,,,,,,,,180.5,0.971,,
170,,isi,,html-keyboard-response,170,301666,0.0-1.0-222.0,0,0,63784,,,,,,31.0,,1.0,,,,,,,,,,,,,,,,,,,,182.0,1.5,,
171,,feedback,,html-keyboard-response,171,302671,0.0-1.0-223.0-0.0,0,0,63784,,,,,,31.0,,1.0,,,,,,,,,,,,,,,,,,,,183.0,1.0,,
172,,iti,,html-keyboard-response,172,303674,0.0-1.0-224.0,0,0,63784,,,,,,31.0,,1.0,,,,,,,,,,,,,,,,,,,,184.0,1.0,,
173,,rl_choice,,html-keyboard-response,173,304495,0.0-1.0-226.0,0,0,63784,,820.0,,,75.0,32.0,32.0,1.0,easy,1000.0,3500.0,1.0,80.0,20.0,60.0,20.0,B,A,/static/Simple_RL/Stimuli/Fractals_stims/B.jpg,/static/Simple_RL/Stimuli/Fractals_stims/A.jpg,0.0,20.0,80.0,20.0,60.0,A,B,184.82,0.82,0.0,
174,,rl_choice_confirmation,,html-keyboard-response,174,305191,0.0-1.0-227.0-0.0,0,0,63784,,,,,,32.0,,1.0,,,,,,,,,,,,,,,,,,,,185.5,0.68,,
175,,isi,,html-keyboard-response,175,308698,0.0-1.0-229.0,0,0,63784,,,,,,32.0,,1.0,,,,,,,,,,,,,,,,,,,,189.0,3.5,,
176,,feedback,,html-keyboard-response,176,309705,0.0-1.0-230.0-0.0,0,0,63784,,,,,,32.0,,1.0,,,,,,,,,,,,,,,,,,,,190.0,1.0,,
177,,iti,,html-keyboard-response,177,310712,0.0-1.0-231.0,0,0,63784,,,,,,32.0,,1.0,,,,,,,,,,,,,,,,,,,,191.0,1.0,,
178,,rl_choice,,html-keyboard-response,178,311426,0.0-1.0-233.0,0,0,63784,,712.0,,,68.0,33.0,33.0,1.0,hard,2000.0,1500.0,1.0,60.0,40.0,40.0,20.0,D,C,/static/Simple_RL/Stimuli/Fractals_stims/D.jpg,/static/Simple_RL/Stimuli/Fractals_stims/C.jpg,1.0,60.0,40.0,40.0,20.0,D,C,191.712,0.712,0.0,
179,,rl_choice_confirmation,,html-keyboard-response,179,312221,0.0-1.0-234.0-0.0,0,0,63784,,,,,,33.0,,1.0,,,,,,,,,,,,,,,,,,,,192.5,0.788,,
180,,isi,,html-keyboard-response,180,313726,0.0-1.0-236.0,0,0,63784,,,,,,33.0,,1.0,,,,,,,,,,,,,,,,,,,,194.0,1.5,,
181,,feedback,,html-keyboard-response,181,314730,0.0-1.0-237.0-0.0,0,0,63784,,,,,,33.0,,1.0,,,,,,,,,,,,,,,,,,,,195.0,1.0,,
182,,iti,,html-keyboard-response,182,316734,0.0-1.0-238.0,0,0,63784,,,,,,33.0,,1.0,,,,,,,,,,,,,,,,,,,,197.0,2.0,,
183,,rl_choice,,html-keyboard-response,183,317206,0.0-1.0-240.0,0,0,63784,,471.0,,,75.0,34.0,34.0,1.0,hard,3000.0,1000.0,0.0,40.0,60.0,20.0,60.0,C,D,/static/Simple_RL/Stimuli/Fractals_stims/C.jpg,/static/Simple_RL/Stimuli/Fractals_stims/D.jpg,0.0,60.0,40.0,60.0,20.0,D,C,197.471,0.471,0.0,
184,,rl_choice_confirmation,,html-keyboard-response,184,318239,0.0-1.0-241.0-0.0,0,0,63784,,,,,,34.0,,1.0,,,,,,,,,,,,,,,,,,,,198.5,1.029,,
185,,isi,,html-keyboard-response,185,319241,0.0-1.0-243.0,0,0,63784,,,,,,34.0,,1.0,,,,,,,,,,,,,,,,,,,,199.5,1.0,,
186,,feedback,,html-keyboard-response,186,320246,0.0-1.0-244.0-0.0,0,0,63784,,,,,,34.0,,1.0,,,,,,,,,,,,,,,,,,,,200.5,1.0,,
187,,iti,,html-keyboard-response,187,323261,0.0-1.0-245.0,0,0,63784,,,,,,34.0,,1.0,,,,,,,,,,,,,,,,,,,,203.5,3.0,,
188,,rl_choice,,html-keyboard-response,188,323648,0.0-1.0-247.0,0,0,63784,,384.0,,,68.0,35.0,35.0,1.0,easy,1500.0,1000.0,1.0,80.0,20.0,80.0,20.0,B,A,/static/Simple_RL/Stimuli/Fractals_stims/B.jpg,/static/Simple_RL/Stimuli/Fractals_stims/A.jpg,1.0,80.0,20.0,80.0,20.0,B,A,203.884,0.384,0.0,
189,,rl_choice_confirmation,,html-keyboard-response,189,324775,0.0-1.0-248.0-0.0,0,0,63784,,,,,,35.0,,1.0,,,,,,,,,,,,,,,,,,,,205.0,1.116,,
190,,isi,,html-keyboard-response,190,325780,0.0-1.0-250.0,0,0,63784,,,,,,35.0,,1.0,,,,,,,,,,,,,,,,,,,,206.0,1.0,,
191,,feedback,,html-keyboard-response,191,326783,0.0-1.0-251.0-0.0,0,0,63784,,,,,,35.0,,1.0,,,,,,,,,,,,,,,,,,,,207.0,1.0,,
192,,iti,,html-keyboard-response,192,328285,0.0-1.0-252.0,0,0,63784,,,,,,35.0,,1.0,,,,,,,,,,,,,,,,,,,,208.5,1.5,,
193,,rl_choice,,html-keyboard-response,193,328927,0.0-1.0-254.0,0,0,63784,,641.0,,,68.0,36.0,36.0,1.0,easy,1500.0,2000.0,1.0,80.0,20.0,80.0,40.0,B,A,/static/Simple_RL/Stimuli/Fractals_stims/B.jpg,/static/Simple_RL/Stimuli/Fractals_stims/A.jpg,1.0,80.0,20.0,80.0,40.0,B,A,209.141,0.641,0.0,
194,,rl_choice_confirmation,,html-keyboard-response,194,329789,0.0-1.0-255.0-0.0,0,0,63784,,,,,,36.0,,1.0,,,,,,,,,,,,,,,,,,,,210.0,0.859,,
195,,isi,,html-keyboard-response,195,331803,0.0-1.0-257.0,0,0,63784,,,,,,36.0,,1.0,,,,,,,,,,,,,,,,,,,,212.0,2.0,,
196,,feedback,,html-keyboard-response,196,332809,0.0-1.0-258.0-0.0,0,0,63784,,,,,,36.0,,1.0,,,,,,,,,,,,,,,,,,,,213.0,1.0,,
197,,iti,,html-keyboard-response,197,334318,0.0-1.0-259.0,0,0,63784,,,,,,36.0,,1.0,,,,,,,,,,,,,,,,,,,,214.5,1.5,,
198,,rl_choice,,html-keyboard-response,198,334904,0.0-1.0-261.0,0,0,63784,,584.0,,,75.0,37.0,37.0,1.0,easy,2000.0,1000.0,1.0,80.0,20.0,60.0,40.0,B,A,/static/Simple_RL/Stimuli/Fractals_stims/B.jpg,/static/Simple_RL/Stimuli/Fractals_stims/A.jpg,0.0,20.0,80.0,40.0,60.0,A,B,215.084,0.584,0.0,
199,,rl_choice_confirmation,,html-keyboard-response,199,335833,0.0-1.0-262.0-0.0,0,0,63784,,,,,,37.0,,1.0,,,,,,,,,,,,,,,,,,,,216.0,0.916,,
200,,isi,,html-keyboard-response,200,336835,0.0-1.0-264.0,0,0,63784,,,,,,37.0,,1.0,,,,,,,,,,,,,,,,,,,,217.0,1.0,,
201,,feedback,,html-keyboard-response,201,337844,0.0-1.0-265.0-0.0,0,0,63784,,,,,,37.0,,1.0,,,,,,,,,,,,,,,,,,,,218.0,1.0,,
202,,iti,,html-keyboard-response,202,339847,0.0-1.0-266.0,0,0,63784,,,,,,37.0,,1.0,,,,,,,,,,,,,,,,,,,,220.0,2.0,,
203,,rl_choice,,html-keyboard-response,203,340243,0.0-1.0-268.0,0,0,63784,,394.0,,,68.0,38.0,38.0,1.0,easy,3500.0,1500.0,0.0,20.0,80.0,40.0,60.0,A,B,/static/Simple_RL/Stimuli/Fractals_stims/A.jpg,/static/Simple_RL/Stimuli/Fractals_stims/B.jpg,1.0,20.0,80.0,40.0,60.0,A,B,220.394,0.394,0.0,
204,,rl_choice_confirmation,,html-keyboard-response,204,341351,0.0-1.0-269.0-0.0,0,0,63784,,,,,,38.0,,1.0,,,,,,,,,,,,,,,,,,,,221.5,1.106,,
205,,isi,,html-keyboard-response,205,342858,0.0-1.0-271.0,0,0,63784,,,,,,38.0,,1.0,,,,,,,,,,,,,,,,,,,,223.0,1.5,,
206,,feedback,,html-keyboard-response,206,343863,0.0-1.0-272.0-0.0,0,0,63784,,,,,,38.0,,1.0,,,,,,,,,,,,,,,,,,,,224.0,1.0,,
207,,iti,,html-keyboard-response,207,347370,0.0-1.0-273.0,0,0,63784,,,,,,38.0,,1.0,,,,,,,,,,,,,,,,,,,,227.5,3.5,,
208,,rl_choice,,html-keyboard-response,208,347898,0.0-1.0-275.0,0,0,63784,,525.0,,,75.0,39.0,39.0,1.0,easy,1000.0,1000.0,1.0,80.0,20.0,60.0,20.0,B,A,/static/Simple_RL/Stimuli/Fractals_stims/B.jpg,/static/Simple_RL/Stimuli/Fractals_stims/A.jpg,0.0,20.0,80.0,20.0,60.0,A,B,228.025,0.525,0.0,
209,,rl_choice_confirmation,,html-keyboard-response,209,348878,0.0-1.0-276.0-0.0,0,0,63784,,,,,,39.0,,1.0,,,,,,,,,,,,,,,,,,,,229.0,0.975,,
210,,isi,,html-keyboard-response,210,349888,0.0-1.0-278.0,0,0,63784,,,,,,39.0,,1.0,,,,,,,,,,,,,,,,,,,,230.0,1.0,,
211,,feedback,,html-keyboard-response,211,350904,0.0-1.0-279.0-0.0,0,0,63784,,,,,,39.0,,1.0,,,,,,,,,,,,,,,,,,,,231.0,1.0,,
212,,iti,,html-keyboard-response,212,351914,0.0-1.0-280.0,0,0,63784,,,,,,39.0,,1.0,,,,,,,,,,,,,,,,,,,,232.0,1.0,,
213,,block_over,,html-keyboard-response,213,353379,0.0-1.0-281.0-0.0,0,0,63784,,1462.0,,,68.0,39.0,,,,,,,,,,,,,,,,,,,,,,,,,
214,,start_run,,html-keyboard-response,214,354657,0.0-1.0-281.0-1.0,0,0,63784,,1277.0,,,84.0,,,,,,,,,,,,,,,,,,,,,,,,,,
215,,rl_choice,,html-keyboard-response,215,355123,0.0-1.0-282.0,0,0,63784,,465.0,,,75.0,40.0,40.0,2.0,hard,1000.0,2000.0,0.0,40.0,60.0,40.0,40.0,C,D,/static/Simple_RL/Stimuli/Fractals_stims/C.jpg,/static/Simple_RL/Stimuli/Fractals_stims/D.jpg,0.0,60.0,40.0,40.0,40.0,D,C,0.465,0.465,0.0,
216,,rl_choice_confirmation,,html-keyboard-response,216,356163,0.0-1.0-283.0-0.0,0,0,63784,,,,,,40.0,,2.0,,,,,,,,,,,,,,,,,,,,1.5,1.035,,
217,,isi,,html-keyboard-response,217,358172,0.0-1.0-285.0,0,0,63784,,,,,,40.0,,2.0,,,,,,,,,,,,,,,,,,,,3.5,2.0,,
218,,feedback,,html-keyboard-response,218,359178,0.0-1.0-286.0-0.0,0,0,63784,,,,,,40.0,,2.0,,,,,,,,,,,,,,,,,,,,4.5,1.0,,
219,,iti,,html-keyboard-response,219,360183,0.0-1.0-287.0,0,0,63784,,,,,,40.0,,2.0,,,,,,,,,,,,,,,,,,,,5.5,1.0,,
220,,rl_choice,,html-keyboard-response,220,360451,0.0-1.0-289.0,0,0,63784,,267.0,,,75.0,41.0,41.0,2.0,hard,1000.0,3000.0,1.0,60.0,40.0,40.0,60.0,D,C,/static/Simple_RL/Stimuli/Fractals_stims/D.jpg,/static/Simple_RL/Stimuli/Fractals_stims/C.jpg,0.0,40.0,60.0,60.0,40.0,C,D,5.767,0.267,0.0,
221,,rl_choice_confirmation,,html-keyboard-response,221,361695,0.0-1.0-290.0-0.0,0,0,63784,,,,,,41.0,,2.0,,,,,,,,,,,,,,,,,,,,7.0,1.233,,
222,,isi,,html-keyboard-response,222,364700,0.0-1.0-292.0,0,0,63784,,,,,,41.0,,2.0,,,,,,,,,,,,,,,,,,,,10.0,3.0,,
223,,feedback,,html-keyboard-response,223,365704,0.0-1.0-293.0-0.0,0,0,63784,,,,,,41.0,,2.0,,,,,,,,,,,,,,,,,,,,11.0,1.0,,
224,,iti,,html-keyboard-response,224,366713,0.0-1.0-294.0,0,0,63784,,,,,,41.0,,2.0,,,,,,,,,,,,,,,,,,,,12.0,1.0,,
225,,rl_choice,,html-keyboard-response,225,367022,0.0-1.0-296.0,0,0,63784,,306.0,,,75.0,42.0,42.0,2.0,hard,1000.0,1000.0,0.0,40.0,60.0,40.0,40.0,C,D,/static/Simple_RL/Stimuli/Fractals_stims/C.jpg,/static/Simple_RL/Stimuli/Fractals_stims/D.jpg,0.0,60.0,40.0,40.0,40.0,D,C,12.306,0.306,0.0,
226,,rl_choice_confirmation,,html-keyboard-response,226,368218,0.0-1.0-297.0-0.0,0,0,63784,,,,,,42.0,,2.0,,,,,,,,,,,,,,,,,,,,13.5,1.194,,
227,,isi,,html-keyboard-response,227,369220,0.0-1.0-299.0,0,0,63784,,,,,,42.0,,2.0,,,,,,,,,,,,,,,,,,,,14.5,1.0,,
228,,feedback,,html-keyboard-response,228,370230,0.0-1.0-300.0-0.0,0,0,63784,,,,,,42.0,,2.0,,,,,,,,,,,,,,,,,,,,15.5,1.0,,
229,,iti,,html-keyboard-response,229,371238,0.0-1.0-301.0,0,0,63784,,,,,,42.0,,2.0,,,,,,,,,,,,,,,,,,,,16.5,1.0,,
230,,rl_choice,,html-keyboard-response,230,372107,0.0-1.0-303.0,0,0,63784,,868.0,,,75.0,43.0,43.0,2.0,easy,1500.0,2000.0,0.0,20.0,80.0,0.0,60.0,A,B,/static/Simple_RL/Stimuli/Fractals_stims/A.jpg,/static/Simple_RL/Stimuli/Fractals_stims/B.jpg,0.0,80.0,20.0,60.0,0.0,B,A,17.368,0.868,0.0,
231,,rl_choice_confirmation,,html-keyboard-response,231,372748,0.0-1.0-304.0-0.0,0,0,63784,,,,,,43.0,,2.0,,,,,,,,,,,,,,,,,,,,18.0,0.632,,
232,,isi,,html-keyboard-response,232,374753,0.0-1.0-306.0,0,0,63784,,,,,,43.0,,2.0,,,,,,,,,,,,,,,,,,,,20.0,2.0,,
233,,feedback,,html-keyboard-response,233,375757,0.0-1.0-307.0-0.0,0,0,63784,,,,,,43.0,,2.0,,,,,,,,,,,,,,,,,,,,21.0,1.0,,
234,,iti,,html-keyboard-response,234,377263,0.0-1.0-308.0,0,0,63784,,,,,,43.0,,2.0,,,,,,,,,,,,,,,,,,,,22.5,1.5,,
235,,rl_choice,,html-keyboard-response,235,377550,0.0-1.0-310.0,0,0,63784,,286.0,,,68.0,44.0,44.0,2.0,hard,1000.0,1500.0,0.0,40.0,60.0,60.0,60.0,C,D,/static/Simple_RL/Stimuli/Fractals_stims/C.jpg,/static/Simple_RL/Stimuli/Fractals_stims/D.jpg,1.0,40.0,60.0,60.0,60.0,C,D,22.786,0.286,0.0,
236,,rl_choice_confirmation,,html-keyboard-response,236,378770,0.0-1.0-311.0-0.0,0,0,63784,,,,,,44.0,,2.0,,,,,,,,,,,,,,,,,,,,24.0,1.214,,
237,,isi,,html-keyboard-response,237,380280,0.0-1.0-313.0,0,0,63784,,,,,,44.0,,2.0,,,,,,,,,,,,,,,,,,,,25.5,1.5,,
238,,feedback,,html-keyboard-response,238,381288,0.0-1.0-314.0-0.0,0,0,63784,,,,,,44.0,,2.0,,,,,,,,,,,,,,,,,,,,26.5,1.0,,
239,,iti,,html-keyboard-response,239,382295,0.0-1.0-315.0,0,0,63784,,,,,,44.0,,2.0,,,,,,,,,,,,,,,,,,,,27.5,1.0,,
240,,rl_choice,,html-keyboard-response,240,382529,0.0-1.0-317.0,0,0,63784,,233.0,,,75.0,45.0,45.0,2.0,hard,2000.0,2000.0,0.0,40.0,60.0,40.0,60.0,C,D,/static/Simple_RL/Stimuli/Fractals_stims/C.jpg,/static/Simple_RL/Stimuli/Fractals_stims/D.jpg,0.0,60.0,40.0,60.0,40.0,D,C,27.733,0.233,0.0,
241,,rl_choice_confirmation,,html-keyboard-response,241,383804,0.0-1.0-318.0-0.0,0,0,63784,,,,,,45.0,,2.0,,,,,,,,,,,,,,,,,,,,29.0,1.267,,
242,,isi,,html-keyboard-response,242,385808,0.0-1.0-320.0,0,0,63784,,,,,,45.0,,2.0,,,,,,,,,,,,,,,,,,,,31.0,2.0,,
243,,feedback,,html-keyboard-response,243,386820,0.0-1.0-321.0-0.0,0,0,63784,,,,,,45.0,,2.0,,,,,,,,,,,,,,,,,,,,32.0,1.0,,
244,,iti,,html-keyboard-response,244,388826,0.0-1.0-322.0,0,0,63784,,,,,,45.0,,2.0,,,,,,,,,,,,,,,,,,,,34.0,2.0,,
245,,rl_choice,,html-keyboard-response,245,389133,0.0-1.0-324.0,0,0,63784,,305.0,,,75.0,46.0,46.0,2.0,hard,2000.0,2000.0,0.0,40.0,60.0,40.0,40.0,C,D,/static/Simple_RL/Stimuli/Fractals_stims/C.jpg,/static/Simple_RL/Stimuli/Fractals_stims/D.jpg,0.0,60.0,40.0,40.0,40.0,D,C,34.305,0.305,0.0,
246,,rl_choice_confirmation,,html-keyboard-response,246,390336,0.0-1.0-325.0-0.0,0,0,63784,,,,,,46.0,,2.0,,,,,,,,,,,,,,,,,,,,35.5,1.195,,
247,,isi,,html-keyboard-response,247,392340,0.0-1.0-327.0,0,0,63784,,,,,,46.0,,2.0,,,,,,,,,,,,,,,,,,,,37.5,2.0,,
248,,feedback,,html-keyboard-response,248,393350,0.0-1.0-328.0-0.0,0,0,63784,,,,,,46.0,,2.0,,,,,,,,,,,,,,,,,,,,38.5,1.0,,
249,,iti,,html-keyboard-response,249,395356,0.0-1.0-329.0,0,0,63784,,,,,,46.0,,2.0,,,,,,,,,,,,,,,,,,,,40.5,2.0,,
250,,rl_choice,,html-keyboard-response,250,395782,0.0-1.0-331.0,0,0,63784,,423.0,,,68.0,47.0,47.0,2.0,hard,1500.0,1500.0,1.0,60.0,40.0,80.0,20.0,D,C,/static/Simple_RL/Stimuli/Fractals_stims/D.jpg,/static/Simple_RL/Stimuli/Fractals_stims/C.jpg,1.0,60.0,40.0,80.0,20.0,D,C,40.923,0.423,0.0,
251,,rl_choice_confirmation,,html-keyboard-response,251,396865,0.0-1.0-332.0-0.0,0,0,63784,,,,,,47.0,,2.0,,,,,,,,,,,,,,,,,,,,42.0,1.077,,
252,,isi,,html-keyboard-response,252,398372,0.0-1.0-334.0,0,0,63784,,,,,,47.0,,2.0,,,,,,,,,,,,,,,,,,,,43.5,1.5,,
253,,feedback,,html-keyboard-response,253,399377,0.0-1.0-335.0-0.0,0,0,63784,,,,,,47.0,,2.0,,,,,,,,,,,,,,,,,,,,44.5,1.0,,
254,,iti,,html-keyboard-response,254,400886,0.0-1.0-336.0,0,0,63784,,,,,,47.0,,2.0,,,,,,,,,,,,,,,,,,,,46.0,1.5,,
255,,rl_choice,,html-keyboard-response,255,401479,0.0-1.0-338.0,0,0,63784,,591.0,,,68.0,48.0,48.0,2.0,easy,3500.0,1000.0,1.0,80.0,20.0,60.0,0.0,B,A,/static/Simple_RL/Stimuli/Fractals_stims/B.jpg,/static/Simple_RL/Stimuli/Fractals_stims/A.jpg,1.0,80.0,20.0,60.0,0.0,B,A,46.591,0.591,0.0,
256,,rl_choice_confirmation,,html-keyboard-response,256,402402,0.0-1.0-339.0-0.0,0,0,63784,,,,,,48.0,,2.0,,,,,,,,,,,,,,,,,,,,47.5,0.909,,
257,,isi,,html-keyboard-response,257,403410,0.0-1.0-341.0,0,0,63784,,,,,,48.0,,2.0,,,,,,,,,,,,,,,,,,,,48.5,1.0,,
258,,feedback,,html-keyboard-response,258,404413,0.0-1.0-342.0-0.0,0,0,63784,,,,,,48.0,,2.0,,,,,,,,,,,,,,,,,,,,49.5,1.0,,
259,,iti,,html-keyboard-response,259,407917,0.0-1.0-343.0,0,0,63784,,,,,,48.0,,2.0,,,,,,,,,,,,,,,,,,,,53.0,3.5,,
260,,rl_choice,,html-keyboard-response,260,408183,0.0-1.0-345.0,0,0,63784,,264.0,,,75.0,49.0,49.0,2.0,hard,1000.0,3500.0,1.0,60.0,40.0,80.0,20.0,D,C,/static/Simple_RL/Stimuli/Fractals_stims/D.jpg,/static/Simple_RL/Stimuli/Fractals_stims/C.jpg,0.0,40.0,60.0,20.0,80.0,C,D,53.264,0.264,0.0,
261,,rl_choice_confirmation,,html-keyboard-response,261,409423,0.0-1.0-346.0-0.0,0,0,63784,,,,,,49.0,,2.0,,,,,,,,,,,,,,,,,,,,54.5,1.236,,
262,,isi,,html-keyboard-response,262,412930,0.0-1.0-348.0,0,0,63784,,,,,,49.0,,2.0,,,,,,,,,,,,,,,,,,,,58.0,3.5,,
263,,feedback,,html-keyboard-response,263,413935,0.0-1.0-349.0-0.0,0,0,63784,,,,,,49.0,,2.0,,,,,,,,,,,,,,,,,,,,59.0,1.0,,
264,,iti,,html-keyboard-response,264,414942,0.0-1.0-350.0,0,0,63784,,,,,,49.0,,2.0,,,,,,,,,,,,,,,,,,,,60.0,1.0,,
265,,rl_choice,,html-keyboard-response,265,415278,0.0-1.0-352.0,0,0,63784,,334.0,,,68.0,50.0,50.0,2.0,easy,1000.0,1500.0,1.0,80.0,20.0,80.0,40.0,B,A,/static/Simple_RL/Stimuli/Fractals_stims/B.jpg,/static/Simple_RL/Stimuli/Fractals_stims/A.jpg,1.0,80.0,20.0,80.0,40.0,B,A,60.334,0.334,0.0,
266,,rl_choice_confirmation,,html-keyboard-response,266,416447,0.0-1.0-353.0-0.0,0,0,63784,,,,,,50.0,,2.0,,,,,,,,,,,,,,,,,,,,61.5,1.166,,
267,,isi,,html-keyboard-response,267,417954,0.0-1.0-355.0,0,0,63784,,,,,,50.0,,2.0,,,,,,,,,,,,,,,,,,,,63.0,1.5,,
268,,feedback,,html-keyboard-response,268,418960,0.0-1.0-356.0-0.0,0,0,63784,,,,,,50.0,,2.0,,,,,,,,,,,,,,,,,,,,64.0,1.0,,
269,,iti,,html-keyboard-response,269,419963,0.0-1.0-357.0,0,0,63784,,,,,,50.0,,2.0,,,,,,,,,,,,,,,,,,,,65.0,1.0,,
270,,rl_choice,,html-keyboard-response,270,420449,0.0-1.0-359.0,0,0,63784,,484.0,,,68.0,51.0,51.0,2.0,easy,1000.0,2000.0,0.0,20.0,80.0,0.0,100.0,A,B,/static/Simple_RL/Stimuli/Fractals_stims/A.jpg,/static/Simple_RL/Stimuli/Fractals_stims/B.jpg,1.0,20.0,80.0,0.0,100.0,A,B,65.484,0.484,0.0,
271,,rl_choice_confirmation,,html-keyboard-response,271,421472,0.0-1.0-360.0-0.0,0,0,63784,,,,,,51.0,,2.0,,,,,,,,,,,,,,,,,,,,66.5,1.016,,
272,,isi,,html-keyboard-response,272,423479,0.0-1.0-362.0,0,0,63784,,,,,,51.0,,2.0,,,,,,,,,,,,,,,,,,,,68.5,2.0,,
273,,feedback,,html-keyboard-response,273,424489,0.0-1.0-363.0-0.0,0,0,63784,,,,,,51.0,,2.0,,,,,,,,,,,,,,,,,,,,69.5,1.0,,
274,,iti,,html-keyboard-response,274,425498,0.0-1.0-364.0,0,0,63784,,,,,,51.0,,2.0,,,,,,,,,,,,,,,,,,,,70.5,1.0,,
275,,rl_choice,,html-keyboard-response,275,426017,0.0-1.0-366.0,0,0,63784,,519.0,,,75.0,52.0,52.0,2.0,easy,3000.0,1500.0,0.0,20.0,80.0,40.0,80.0,A,B,/static/Simple_RL/Stimuli/Fractals_stims/A.jpg,/static/Simple_RL/Stimuli/Fractals_stims/B.jpg,0.0,80.0,20.0,80.0,40.0,B,A,71.019,0.519,0.0,
276,,rl_choice_confirmation,,html-keyboard-response,276,427002,0.0-1.0-367.0-0.0,0,0,63784,,,,,,52.0,,2.0,,,,,,,,,,,,,,,,,,,,72.0,0.981,,
277,,isi,,html-keyboard-response,277,428517,0.0-1.0-369.0,0,0,63784,,,,,,52.0,,2.0,,,,,,,,,,,,,,,,,,,,73.5,1.5,,
278,,feedback,,html-keyboard-response,278,429522,0.0-1.0-370.0-0.0,0,0,63784,,,,,,52.0,,2.0,,,,,,,,,,,,,,,,,,,,74.5,1.0,,
279,,iti,,html-keyboard-response,279,432529,0.0-1.0-371.0,0,0,63784,,,,,,52.0,,2.0,,,,,,,,,,,,,,,,,,,,77.5,3.0,,
280,,rl_choice,,html-keyboard-response,280,434039,0.0-1.0-373.0,0,0,63784,,,,,,53.0,53.0,2.0,hard,2000.0,1000.0,1.0,60.0,40.0,60.0,40.0,D,C,/static/Simple_RL/Stimuli/Fractals_stims/D.jpg,/static/Simple_RL/Stimuli/Fractals_stims/C.jpg,,,,,,,,79.0,1.5,1.0,
281,,rl_choice_warning,,html-keyboard-response,281,435044,0.0-1.0-375.0-0.0,1,0,63784,,,,,,53.0,,2.0,,,,,,,,,,,,,,,,,,,,80.0,1.0,,
282,,isi,,html-keyboard-response,282,436048,0.0-1.0-376.0,0,0,63784,,,,,,53.0,,2.0,,,,,,,,,,,,,,,,,,,,81.0,1.0,,
283,,iti,,html-keyboard-response,283,438058,0.0-1.0-378.0,0,0,63784,,,,,,53.0,,2.0,,,,,,,,,,,,,,,,,,,,83.0,2.0,,
284,,rl_choice,,html-keyboard-response,284,438302,0.0-1.0-380.0,0,0,63784,,244.0,,,75.0,54.0,54.0,2.0,easy,2000.0,1500.0,0.0,20.0,80.0,0.0,100.0,A,B,/static/Simple_RL/Stimuli/Fractals_stims/A.jpg,/static/Simple_RL/Stimuli/Fractals_stims/B.jpg,0.0,80.0,20.0,100.0,0.0,B,A,83.244,0.244,0.0,
285,,rl_choice_confirmation,,html-keyboard-response,285,439564,0.0-1.0-381.0-0.0,0,0,63784,,,,,,54.0,,2.0,,,,,,,,,,,,,,,,,,,,84.5,1.256,,
286,,isi,,html-keyboard-response,286,441068,0.0-1.0-383.0,0,0,63784,,,,,,54.0,,2.0,,,,,,,,,,,,,,,,,,,,86.0,1.5,,
287,,feedback,,html-keyboard-response,287,442075,0.0-1.0-384.0-0.0,0,0,63784,,,,,,54.0,,2.0,,,,,,,,,,,,,,,,,,,,87.0,1.0,,
288,,iti,,html-keyboard-response,288,444081,0.0-1.0-385.0,0,0,63784,,,,,,54.0,,2.0,,,,,,,,,,,,,,,,,,,,89.0,2.0,,
289,,rl_choice,,html-keyboard-response,289,444293,0.0-1.0-387.0,0,0,63784,,209.0,,,75.0,55.0,55.0,2.0,easy,1000.0,1000.0,0.0,20.0,80.0,40.0,100.0,A,B,/static/Simple_RL/Stimuli/Fractals_stims/A.jpg,/static/Simple_RL/Stimuli/Fractals_stims/B.jpg,0.0,80.0,20.0,100.0,40.0,B,A,89.209,0.209,0.0,
290,,rl_choice_confirmation,,html-keyboard-response,290,445594,0.0-1.0-388.0-0.0,0,0,63784,,,,,,55.0,,2.0,,,,,,,,,,,,,,,,,,,,90.5,1.291,,
291,,isi,,html-keyboard-response,291,446601,0.0-1.0-390.0,0,0,63784,,,,,,55.0,,2.0,,,,,,,,,,,,,,,,,,,,91.5,1.0,,
292,,feedback,,html-keyboard-response,292,447608,0.0-1.0-391.0-0.0,0,0,63784,,,,,,55.0,,2.0,,,,,,,,,,,,,,,,,,,,92.5,1.0,,
293,,iti,,html-keyboard-response,293,448615,0.0-1.0-392.0,0,0,63784,,,,,,55.0,,2.0,,,,,,,,,,,,,,,,,,,,93.5,1.0,,
294,,rl_choice,,html-keyboard-response,294,449112,0.0-1.0-394.0,0,0,63784,,496.0,,,75.0,56.0,56.0,2.0,hard,2000.0,1000.0,1.0,60.0,40.0,60.0,20.0,D,C,/static/Simple_RL/Stimuli/Fractals_stims/D.jpg,/static/Simple_RL/Stimuli/Fractals_stims/C.jpg,0.0,40.0,60.0,20.0,60.0,C,D,93.996,0.496,0.0,
295,,rl_choice_confirmation,,html-keyboard-response,295,450124,0.0-1.0-395.0-0.0,0,0,63784,,,,,,56.0,,2.0,,,,,,,,,,,,,,,,,,,,95.0,1.004,,
296,,isi,,html-keyboard-response,296,451134,0.0-1.0-397.0,0,0,63784,,,,,,56.0,,2.0,,,,,,,,,,,,,,,,,,,,96.0,1.0,,
297,,feedback,,html-keyboard-response,297,452142,0.0-1.0-398.0-0.0,0,0,63784,,,,,,56.0,,2.0,,,,,,,,,,,,,,,,,,,,97.0,1.0,,
298,,iti,,html-keyboard-response,298,454151,0.0-1.0-399.0,0,0,63784,,,,,,56.0,,2.0,,,,,,,,,,,,,,,,,,,,99.0,2.0,,
299,,rl_choice,,html-keyboard-response,299,454633,0.0-1.0-401.0,0,0,63784,,480.0,,,75.0,57.0,57.0,2.0,easy,1000.0,2000.0,1.0,80.0,20.0,80.0,0.0,B,A,/static/Simple_RL/Stimuli/Fractals_stims/B.jpg,/static/Simple_RL/Stimuli/Fractals_stims/A.jpg,0.0,20.0,80.0,0.0,80.0,A,B,99.48,0.48,0.0,
300,,rl_choice_confirmation,,html-keyboard-response,300,455658,0.0-1.0-402.0-0.0,0,0,63784,,,,,,57.0,,2.0,,,,,,,,,,,,,,,,,,,,100.5,1.02,,
301,,isi,,html-keyboard-response,301,457665,0.0-1.0-404.0,0,0,63784,,,,,,57.0,,2.0,,,,,,,,,,,,,,,,,,,,102.5,2.0,,
302,,feedback,,html-keyboard-response,302,458675,0.0-1.0-405.0-0.0,0,0,63784,,,,,,57.0,,2.0,,,,,,,,,,,,,,,,,,,,103.5,1.0,,
303,,iti,,html-keyboard-response,303,459682,0.0-1.0-406.0,0,0,63784,,,,,,57.0,,2.0,,,,,,,,,,,,,,,,,,,,104.5,1.0,,
304,,rl_choice,,html-keyboard-response,304,460129,0.0-1.0-408.0,0,0,63784,,447.0,,,75.0,58.0,58.0,2.0,hard,1000.0,1500.0,1.0,60.0,40.0,60.0,60.0,D,C,/static/Simple_RL/Stimuli/Fractals_stims/D.jpg,/static/Simple_RL/Stimuli/Fractals_stims/C.jpg,0.0,40.0,60.0,60.0,60.0,C,D,104.947,0.447,0.0,
305,,rl_choice_confirmation,,html-keyboard-response,305,461189,0.0-1.0-409.0-0.0,0,0,63784,,,,,,58.0,,2.0,,,,,,,,,,,,,,,,,,,,106.0,1.053,,
306,,isi,,html-keyboard-response,306,462696,0.0-1.0-411.0,0,0,63784,,,,,,58.0,,2.0,,,,,,,,,,,,,,,,,,,,107.5,1.5,,
307,,feedback,,html-keyboard-response,307,463704,0.0-1.0-412.0-0.0,0,0,63784,,,,,,58.0,,2.0,,,,,,,,,,,,,,,,,,,,108.5,1.0,,
308,,iti,,html-keyboard-response,308,464711,0.0-1.0-413.0,0,0,63784,,,,,,58.0,,2.0,,,,,,,,,,,,,,,,,,,,109.5,1.0,,
309,,rl_choice,,html-keyboard-response,309,465124,0.0-1.0-415.0,0,0,63784,,411.0,,,75.0,59.0,59.0,2.0,easy,1500.0,3000.0,1.0,80.0,20.0,80.0,40.0,B,A,/static/Simple_RL/Stimuli/Fractals_stims/B.jpg,/static/Simple_RL/Stimuli/Fractals_stims/A.jpg,0.0,20.0,80.0,40.0,80.0,A,B,109.911,0.411,0.0,
310,,rl_choice_confirmation,,html-keyboard-response,310,466223,0.0-1.0-416.0-0.0,0,0,63784,,,,,,59.0,,2.0,,,,,,,,,,,,,,,,,,,,111.0,1.089,,
311,,isi,,html-keyboard-response,311,469232,0.0-1.0-418.0,0,0,63784,,,,,,59.0,,2.0,,,,,,,,,,,,,,,,,,,,114.0,3.0,,
312,,feedback,,html-keyboard-response,312,470241,0.0-1.0-419.0-0.0,0,0,63784,,,,,,59.0,,2.0,,,,,,,,,,,,,,,,,,,,115.0,1.0,,
313,,iti,,html-keyboard-response,313,471750,0.0-1.0-420.0,0,0,63784,,,,,,59.0,,2.0,,,,,,,,,,,,,,,,,,,,116.5,1.5,,
314,,rl_choice,,html-keyboard-response,314,472231,0.0-1.0-422.0,0,0,63784,,479.0,,,68.0,60.0,60.0,2.0,hard,1500.0,2000.0,0.0,40.0,60.0,40.0,80.0,C,D,/static/Simple_RL/Stimuli/Fractals_stims/C.jpg,/static/Simple_RL/Stimuli/Fractals_stims/D.jpg,1.0,40.0,60.0,40.0,80.0,C,D,116.979,0.479,0.0,
315,,rl_choice_confirmation,,html-keyboard-response,315,473255,0.0-1.0-423.0-0.0,0,0,63784,,,,,,60.0,,2.0,,,,,,,,,,,,,,,,,,,,118.0,1.021,,
316,,isi,,html-keyboard-response,316,475263,0.0-1.0-425.0,0,0,63784,,,,,,60.0,,2.0,,,,,,,,,,,,,,,,,,,,120.0,2.0,,
317,,feedback,,html-keyboard-response,317,476273,0.0-1.0-426.0-0.0,0,0,63784,,,,,,60.0,,2.0,,,,,,,,,,,,,,,,,,,,121.0,1.0,,
318,,iti,,html-keyboard-response,318,477783,0.0-1.0-427.0,0,0,63784,,,,,,60.0,,2.0,,,,,,,,,,,,,,,,,,,,122.5,1.5,,
319,,rl_choice,,html-keyboard-response,319,478165,0.0-1.0-429.0,0,0,63784,,379.0,,,68.0,61.0,61.0,2.0,hard,1000.0,1000.0,1.0,60.0,40.0,40.0,40.0,D,C,/static/Simple_RL/Stimuli/Fractals_stims/D.jpg,/static/Simple_RL/Stimuli/Fractals_stims/C.jpg,1.0,60.0,40.0,40.0,40.0,D,C,122.879,0.379,0.0,
320,,rl_choice_confirmation,,html-keyboard-response,320,479291,0.0-1.0-430.0-0.0,0,0,63784,,,,,,61.0,,2.0,,,,,,,,,,,,,,,,,,,,124.0,1.121,,
321,,isi,,html-keyboard-response,321,480295,0.0-1.0-432.0,0,0,63784,,,,,,61.0,,2.0,,,,,,,,,,,,,,,,,,,,125.0,1.0,,
322,,feedback,,html-keyboard-response,322,481313,0.0-1.0-433.0-0.0,0,0,63784,,,,,,61.0,,2.0,,,,,,,,,,,,,,,,,,,,126.0,1.0,,
323,,iti,,html-keyboard-response,323,482320,0.0-1.0-434.0,0,0,63784,,,,,,61.0,,2.0,,,,,,,,,,,,,,,,,,,,127.0,1.0,,
324,,rl_choice,,html-keyboard-response,324,482632,0.0-1.0-436.0,0,0,63784,,310.0,,,68.0,62.0,62.0,2.0,easy,3000.0,1500.0,0.0,20.0,80.0,20.0,80.0,A,B,/static/Simple_RL/Stimuli/Fractals_stims/A.jpg,/static/Simple_RL/Stimuli/Fractals_stims/B.jpg,1.0,20.0,80.0,20.0,80.0,A,B,127.31,0.31,0.0,
325,,rl_choice_confirmation,,html-keyboard-response,325,483827,0.0-1.0-437.0-0.0,0,0,63784,,,,,,62.0,,2.0,,,,,,,,,,,,,,,,,,,,128.5,1.19,,
326,,isi,,html-keyboard-response,326,485331,0.0-1.0-439.0,0,0,63784,,,,,,62.0,,2.0,,,,,,,,,,,,,,,,,,,,130.0,1.5,,
327,,feedback,,html-keyboard-response,327,486336,0.0-1.0-440.0-0.0,0,0,63784,,,,,,62.0,,2.0,,,,,,,,,,,,,,,,,,,,131.0,1.0,,
328,,iti,,html-keyboard-response,328,489342,0.0-1.0-441.0,0,0,63784,,,,,,62.0,,2.0,,,,,,,,,,,,,,,,,,,,134.0,3.0,,
329,,rl_choice,,html-keyboard-response,329,490513,0.0-1.0-443.0,0,0,63784,,1168.0,,,75.0,63.0,63.0,2.0,hard,1000.0,1500.0,1.0,60.0,40.0,60.0,40.0,D,C,/static/Simple_RL/Stimuli/Fractals_stims/D.jpg,/static/Simple_RL/Stimuli/Fractals_stims/C.jpg,0.0,40.0,60.0,40.0,60.0,C,D,135.168,1.168,0.0,
330,,rl_choice_confirmation,,html-keyboard-response,330,490850,0.0-1.0-444.0-0.0,0,0,63784,,,,,,63.0,,2.0,,,,,,,,,,,,,,,,,,,,135.5,0.332,,
331,,isi,,html-keyboard-response,331,492355,0.0-1.0-446.0,0,0,63784,,,,,,63.0,,2.0,,,,,,,,,,,,,,,,,,,,137.0,1.5,,
332,,feedback,,html-keyboard-response,332,493361,0.0-1.0-447.0-0.0,0,0,63784,,,,,,63.0,,2.0,,,,,,,,,,,,,,,,,,,,138.0,1.0,,
333,,iti,,html-keyboard-response,333,494371,0.0-1.0-448.0,0,0,63784,,,,,,63.0,,2.0,,,,,,,,,,,,,,,,,,,,139.0,1.0,,
334,,rl_choice,,html-keyboard-response,334,494900,0.0-1.0-450.0,0,0,63784,,527.0,,,75.0,64.0,64.0,2.0,hard,3500.0,1000.0,0.0,40.0,60.0,60.0,80.0,C,D,/static/Simple_RL/Stimuli/Fractals_stims/C.jpg,/static/Simple_RL/Stimuli/Fractals_stims/D.jpg,0.0,60.0,40.0,80.0,60.0,D,C,139.527,0.527,0.0,
335,,rl_choice_confirmation,,html-keyboard-response,335,495876,0.0-1.0-451.0-0.0,0,0,63784,,,,,,64.0,,2.0,,,,,,,,,,,,,,,,,,,,140.5,0.973,,
336,,isi,,html-keyboard-response,336,496881,0.0-1.0-453.0,0,0,63784,,,,,,64.0,,2.0,,,,,,,,,,,,,,,,,,,,141.5,1.0,,
337,,feedback,,html-keyboard-response,337,497893,0.0-1.0-454.0-0.0,0,0,63784,,,,,,64.0,,2.0,,,,,,,,,,,,,,,,,,,,142.5,1.0,,
338,,iti,,html-keyboard-response,338,501396,0.0-1.0-455.0,0,0,63784,,,,,,64.0,,2.0,,,,,,,,,,,,,,,,,,,,146.0,3.5,,
339,,rl_choice,,html-keyboard-response,339,501666,0.0-1.0-457.0,0,0,63784,,267.0,,,75.0,65.0,65.0,2.0,easy,1500.0,1000.0,1.0,80.0,20.0,100.0,40.0,B,A,/static/Simple_RL/Stimuli/Fractals_stims/B.jpg,/static/Simple_RL/Stimuli/Fractals_stims/A.jpg,0.0,20.0,80.0,40.0,100.0,A,B,146.267,0.267,0.0,
340,,rl_choice_confirmation,,html-keyboard-response,340,502901,0.0-1.0-458.0-0.0,0,0,63784,,,,,,65.0,,2.0,,,,,,,,,,,,,,,,,,,,147.5,1.233,,
341,,isi,,html-keyboard-response,341,503910,0.0-1.0-460.0,0,0,63784,,,,,,65.0,,2.0,,,,,,,,,,,,,,,,,,,,148.5,1.0,,
342,,feedback,,html-keyboard-response,342,504917,0.0-1.0-461.0-0.0,0,0,63784,,,,,,65.0,,2.0,,,,,,,,,,,,,,,,,,,,149.5,1.0,,
343,,iti,,html-keyboard-response,343,506422,0.0-1.0-462.0,0,0,63784,,,,,,65.0,,2.0,,,,,,,,,,,,,,,,,,,,151.0,1.5,,
344,,rl_choice,,html-keyboard-response,344,506721,0.0-1.0-464.0,0,0,63784,,297.0,,,68.0,66.0,66.0,2.0,hard,1500.0,3000.0,1.0,60.0,40.0,60.0,40.0,D,C,/static/Simple_RL/Stimuli/Fractals_stims/D.jpg,/static/Simple_RL/Stimuli/Fractals_stims/C.jpg,1.0,60.0,40.0,60.0,40.0,D,C,151.297,0.297,0.0,
345,,rl_choice_confirmation,,html-keyboard-response,345,507931,0.0-1.0-465.0-0.0,0,0,63784,,,,,,66.0,,2.0,,,,,,,,,,,,,,,,,,,,152.5,1.203,,
346,,isi,,html-keyboard-response,346,510936,0.0-1.0-467.0,0,0,63784,,,,,,66.0,,2.0,,,,,,,,,,,,,,,,,,,,155.5,3.0,,
347,,feedback,,html-keyboard-response,347,511939,0.0-1.0-468.0-0.0,0,0,63784,,,,,,66.0,,2.0,,,,,,,,,,,,,,,,,,,,156.5,1.0,,
348,,iti,,html-keyboard-response,348,513445,0.0-1.0-469.0,0,0,63784,,,,,,66.0,,2.0,,,,,,,,,,,,,,,,,,,,158.0,1.5,,
349,,rl_choice,,html-keyboard-response,349,513741,0.0-1.0-471.0,0,0,63784,,293.0,,,75.0,67.0,67.0,2.0,hard,1500.0,1500.0,0.0,40.0,60.0,20.0,80.0,C,D,/static/Simple_RL/Stimuli/Fractals_stims/C.jpg,/static/Simple_RL/Stimuli/Fractals_stims/D.jpg,0.0,60.0,40.0,80.0,20.0,D,C,158.293,0.293,0.0,
350,,rl_choice_confirmation,,html-keyboard-response,350,514957,0.0-1.0-472.0-0.0,0,0,63784,,,,,,67.0,,2.0,,,,,,,,,,,,,,,,,,,,159.5,1.207,,
351,,isi,,html-keyboard-response,351,516464,0.0-1.0-474.0,0,0,63784,,,,,,67.0,,2.0,,,,,,,,,,,,,,,,,,,,161.0,1.5,,
352,,feedback,,html-keyboard-response,352,517476,0.0-1.0-475.0-0.0,0,0,63784,,,,,,67.0,,2.0,,,,,,,,,,,,,,,,,,,,162.0,1.0,,
353,,iti,,html-keyboard-response,353,518981,0.0-1.0-476.0,0,0,63784,,,,,,67.0,,2.0,,,,,,,,,,,,,,,,,,,,163.5,1.5,,
354,,rl_choice,,html-keyboard-response,354,519368,0.0-1.0-478.0,0,0,63784,,384.0,,,68.0,68.0,68.0,2.0,hard,3000.0,1000.0,1.0,60.0,40.0,60.0,40.0,D,C,/static/Simple_RL/Stimuli/Fractals_stims/D.jpg,/static/Simple_RL/Stimuli/Fractals_stims/C.jpg,1.0,60.0,40.0,60.0,40.0,D,C,163.884,0.384,0.0,
355,,rl_choice_confirmation,,html-keyboard-response,355,520490,0.0-1.0-479.0-0.0,0,0,63784,,,,,,68.0,,2.0,,,,,,,,,,,,,,,,,,,,165.0,1.116,,
356,,isi,,html-keyboard-response,356,521493,0.0-1.0-481.0,0,0,63784,,,,,,68.0,,2.0,,,,,,,,,,,,,,,,,,,,166.0,1.0,,
357,,feedback,,html-keyboard-response,357,522500,0.0-1.0-482.0-0.0,0,0,63784,,,,,,68.0,,2.0,,,,,,,,,,,,,,,,,,,,167.0,1.0,,
358,,iti,,html-keyboard-response,358,525511,0.0-1.0-483.0,0,0,63784,,,,,,68.0,,2.0,,,,,,,,,,,,,,,,,,,,170.0,3.0,,
359,,rl_choice,,html-keyboard-response,359,525880,0.0-1.0-485.0,0,0,63784,,367.0,,,75.0,69.0,69.0,2.0,easy,1000.0,1000.0,0.0,20.0,80.0,40.0,80.0,A,B,/static/Simple_RL/Stimuli/Fractals_stims/A.jpg,/static/Simple_RL/Stimuli/Fractals_stims/B.jpg,0.0,80.0,20.0,80.0,40.0,B,A,170.367,0.367,0.0,
360,,rl_choice_confirmation,,html-keyboard-response,360,527019,0.0-1.0-486.0-0.0,0,0,63784,,,,,,69.0,,2.0,,,,,,,,,,,,,,,,,,,,171.5,1.133,,
361,,isi,,html-keyboard-response,361,528023,0.0-1.0-488.0,0,0,63784,,,,,,69.0,,2.0,,,,,,,,,,,,,,,,,,,,172.5,1.0,,
362,,feedback,,html-keyboard-response,362,529031,0.0-1.0-489.0-0.0,0,0,63784,,,,,,69.0,,2.0,,,,,,,,,,,,,,,,,,,,173.5,1.0,,
363,,iti,,html-keyboard-response,363,530046,0.0-1.0-490.0,0,0,63784,,,,,,69.0,,2.0,,,,,,,,,,,,,,,,,,,,174.5,1.0,,
364,,rl_choice,,html-keyboard-response,364,530493,0.0-1.0-492.0,0,0,63784,,445.0,,,75.0,70.0,70.0,2.0,easy,1500.0,1000.0,1.0,80.0,20.0,80.0,20.0,B,A,/static/Simple_RL/Stimuli/Fractals_stims/B.jpg,/static/Simple_RL/Stimuli/Fractals_stims/A.jpg,0.0,20.0,80.0,20.0,80.0,A,B,174.945,0.445,0.0,
365,,rl_choice_confirmation,,html-keyboard-response,365,531557,0.0-1.0-493.0-0.0,0,0,63784,,,,,,70.0,,2.0,,,,,,,,,,,,,,,,,,,,176.0,1.055,,
366,,isi,,html-keyboard-response,366,532563,0.0-1.0-495.0,0,0,63784,,,,,,70.0,,2.0,,,,,,,,,,,,,,,,,,,,177.0,1.0,,
367,,feedback,,html-keyboard-response,367,533569,0.0-1.0-496.0-0.0,0,0,63784,,,,,,70.0,,2.0,,,,,,,,,,,,,,,,,,,,178.0,1.0,,
368,,iti,,html-keyboard-response,368,535071,0.0-1.0-497.0,0,0,63784,,,,,,70.0,,2.0,,,,,,,,,,,,,,,,,,,,179.5,1.5,,
369,,rl_choice,,html-keyboard-response,369,535519,0.0-1.0-499.0,0,0,63784,,448.0,,,75.0,71.0,71.0,2.0,easy,1500.0,1000.0,0.0,20.0,80.0,40.0,60.0,A,B,/static/Simple_RL/Stimuli/Fractals_stims/A.jpg,/static/Simple_RL/Stimuli/Fractals_stims/B.jpg,0.0,80.0,20.0,60.0,40.0,B,A,179.948,0.448,0.0,
370,,rl_choice_confirmation,,html-keyboard-response,370,536574,0.0-1.0-500.0-0.0,0,0,63784,,,,,,71.0,,2.0,,,,,,,,,,,,,,,,,,,,181.0,1.052,,
371,,isi,,html-keyboard-response,371,537579,0.0-1.0-502.0,0,0,63784,,,,,,71.0,,2.0,,,,,,,,,,,,,,,,,,,,182.0,1.0,,
372,,feedback,,html-keyboard-response,372,538586,0.0-1.0-503.0-0.0,0,0,63784,,,,,,71.0,,2.0,,,,,,,,,,,,,,,,,,,,183.0,1.0,,
373,,iti,,html-keyboard-response,373,540093,0.0-1.0-504.0,0,0,63784,,,,,,71.0,,2.0,,,,,,,,,,,,,,,,,,,,184.5,1.5,,
374,,rl_choice,,html-keyboard-response,374,540552,0.0-1.0-506.0,0,0,63784,,457.0,,,68.0,72.0,72.0,2.0,easy,2000.0,3000.0,0.0,20.0,80.0,20.0,100.0,A,B,/static/Simple_RL/Stimuli/Fractals_stims/A.jpg,/static/Simple_RL/Stimuli/Fractals_stims/B.jpg,1.0,20.0,80.0,20.0,100.0,A,B,184.957,0.457,0.0,
375,,rl_choice_confirmation,,html-keyboard-response,375,541601,0.0-1.0-507.0-0.0,0,0,63784,,,,,,72.0,,2.0,,,,,,,,,,,,,,,,,,,,186.0,1.043,,
376,,isi,,html-keyboard-response,376,544608,0.0-1.0-509.0,0,0,63784,,,,,,72.0,,2.0,,,,,,,,,,,,,,,,,,,,189.0,3.0,,
377,,feedback,,html-keyboard-response,377,545612,0.0-1.0-510.0-0.0,0,0,63784,,,,,,72.0,,2.0,,,,,,,,,,,,,,,,,,,,190.0,1.0,,
378,,iti,,html-keyboard-response,378,547622,0.0-1.0-511.0,0,0,63784,,,,,,72.0,,2.0,,,,,,,,,,,,,,,,,,,,192.0,2.0,,
379,,rl_choice,,html-keyboard-response,379,548009,0.0-1.0-513.0,0,0,63784,,385.0,,,68.0,73.0,73.0,2.0,easy,1000.0,3500.0,0.0,20.0,80.0,40.0,60.0,A,B,/static/Simple_RL/Stimuli/Fractals_stims/A.jpg,/static/Simple_RL/Stimuli/Fractals_stims/B.jpg,1.0,20.0,80.0,40.0,60.0,A,B,192.385,0.385,0.0,
380,,rl_choice_confirmation,,html-keyboard-response,380,549129,0.0-1.0-514.0-0.0,0,0,63784,,,,,,73.0,,2.0,,,,,,,,,,,,,,,,,,,,193.5,1.115,,
381,,isi,,html-keyboard-response,381,552636,0.0-1.0-516.0,0,0,63784,,,,,,73.0,,2.0,,,,,,,,,,,,,,,,,,,,197.0,3.5,,
382,,feedback,,html-keyboard-response,382,553645,0.0-1.0-517.0-0.0,0,0,63784,,,,,,73.0,,2.0,,,,,,,,,,,,,,,,,,,,198.0,1.0,,
383,,iti,,html-keyboard-response,383,554647,0.0-1.0-518.0,0,0,63784,,,,,,73.0,,2.0,,,,,,,,,,,,,,,,,,,,199.0,1.0,,
384,,rl_choice,,html-keyboard-response,384,555166,0.0-1.0-520.0,0,0,63784,,518.0,,,75.0,74.0,74.0,2.0,hard,3000.0,1000.0,0.0,40.0,60.0,40.0,40.0,C,D,/static/Simple_RL/Stimuli/Fractals_stims/C.jpg,/static/Simple_RL/Stimuli/Fractals_stims/D.jpg,0.0,60.0,40.0,40.0,40.0,D,C,199.518,0.518,0.0,
385,,rl_choice_confirmation,,html-keyboard-response,385,556157,0.0-1.0-521.0-0.0,0,0,63784,,,,,,74.0,,2.0,,,,,,,,,,,,,,,,,,,,200.5,0.982,,
386,,isi,,html-keyboard-response,386,557160,0.0-1.0-523.0,0,0,63784,,,,,,74.0,,2.0,,,,,,,,,,,,,,,,,,,,201.5,1.0,,
387,,feedback,,html-keyboard-response,387,558167,0.0-1.0-524.0-0.0,0,0,63784,,,,,,74.0,,2.0,,,,,,,,,,,,,,,,,,,,202.5,1.0,,
388,,iti,,html-keyboard-response,388,561170,0.0-1.0-525.0,0,0,63784,,,,,,74.0,,2.0,,,,,,,,,,,,,,,,,,,,205.5,3.0,,
389,,rl_choice,,html-keyboard-response,389,561566,0.0-1.0-527.0,0,0,63784,,394.0,,,68.0,75.0,75.0,2.0,easy,1000.0,1000.0,0.0,20.0,80.0,0.0,60.0,A,B,/static/Simple_RL/Stimuli/Fractals_stims/A.jpg,/static/Simple_RL/Stimuli/Fractals_stims/B.jpg,1.0,20.0,80.0,0.0,60.0,A,B,205.894,0.394,0.0,
390,,rl_choice_confirmation,,html-keyboard-response,390,562678,0.0-1.0-528.0-0.0,0,0,63784,,,,,,75.0,,2.0,,,,,,,,,,,,,,,,,,,,207.0,1.106,,
391,,isi,,html-keyboard-response,391,563681,0.0-1.0-530.0,0,0,63784,,,,,,75.0,,2.0,,,,,,,,,,,,,,,,,,,,208.0,1.0,,
392,,feedback,,html-keyboard-response,392,564684,0.0-1.0-531.0-0.0,0,0,63784,,,,,,75.0,,2.0,,,,,,,,,,,,,,,,,,,,209.0,1.0,,
393,,iti,,html-keyboard-response,393,565686,0.0-1.0-532.0,0,0,63784,,,,,,75.0,,2.0,,,,,,,,,,,,,,,,,,,,210.0,1.0,,
394,,rl_choice,,html-keyboard-response,394,566192,0.0-1.0-534.0,0,0,63784,,505.0,,,75.0,76.0,76.0,2.0,easy,2000.0,1500.0,1.0,80.0,20.0,100.0,20.0,B,A,/static/Simple_RL/Stimuli/Fractals_stims/B.jpg,/static/Simple_RL/Stimuli/Fractals_stims/A.jpg,0.0,20.0,80.0,20.0,100.0,A,B,210.505,0.505,0.0,
395,,rl_choice_confirmation,,html-keyboard-response,395,567196,0.0-1.0-535.0-0.0,0,0,63784,,,,,,76.0,,2.0,,,,,,,,,,,,,,,,,,,,211.5,0.995,,
396,,isi,,html-keyboard-response,396,568703,0.0-1.0-537.0,0,0,63784,,,,,,76.0,,2.0,,,,,,,,,,,,,,,,,,,,213.0,1.5,,
397,,feedback,,html-keyboard-response,397,569713,0.0-1.0-538.0-0.0,0,0,63784,,,,,,76.0,,2.0,,,,,,,,,,,,,,,,,,,,214.0,1.0,,
398,,iti,,html-keyboard-response,398,571717,0.0-1.0-539.0,0,0,63784,,,,,,76.0,,2.0,,,,,,,,,,,,,,,,,,,,216.0,2.0,,
399,,rl_choice,,html-keyboard-response,399,571997,0.0-1.0-541.0,0,0,63784,,278.0,,,75.0,77.0,77.0,2.0,easy,1000.0,1000.0,0.0,20.0,80.0,0.0,80.0,A,B,/static/Simple_RL/Stimuli/Fractals_stims/A.jpg,/static/Simple_RL/Stimuli/Fractals_stims/B.jpg,0.0,80.0,20.0,80.0,0.0,B,A,216.278,0.278,0.0,
400,,rl_choice_confirmation,,html-keyboard-response,400,573224,0.0-1.0-542.0-0.0,0,0,63784,,,,,,77.0,,2.0,,,,,,,,,,,,,,,,,,,,217.5,1.222,,
401,,isi,,html-keyboard-response,401,574230,0.0-1.0-544.0,0,0,63784,,,,,,77.0,,2.0,,,,,,,,,,,,,,,,,,,,218.5,1.0,,
402,,feedback,,html-keyboard-response,402,575239,0.0-1.0-545.0-0.0,0,0,63784,,,,,,77.0,,2.0,,,,,,,,,,,,,,,,,,,,219.5,1.0,,
403,,iti,,html-keyboard-response,403,576243,0.0-1.0-546.0,0,0,63784,,,,,,77.0,,2.0,,,,,,,,,,,,,,,,,,,,220.5,1.0,,
404,,rl_choice,,html-keyboard-response,404,576721,0.0-1.0-548.0,0,0,63784,,477.0,,,68.0,78.0,78.0,2.0,hard,1500.0,1000.0,0.0,40.0,60.0,20.0,60.0,C,D,/static/Simple_RL/Stimuli/Fractals_stims/C.jpg,/static/Simple_RL/Stimuli/Fractals_stims/D.jpg,1.0,40.0,60.0,20.0,60.0,C,D,220.977,0.477,0.0,
405,,rl_choice_confirmation,,html-keyboard-response,405,577754,0.0-1.0-549.0-0.0,0,0,63784,,,,,,78.0,,2.0,,,,,,,,,,,,,,,,,,,,222.0,1.023,,
406,,isi,,html-keyboard-response,406,578764,0.0-1.0-551.0,0,0,63784,,,,,,78.0,,2.0,,,,,,,,,,,,,,,,,,,,223.0,1.0,,
407,,feedback,,html-keyboard-response,407,579770,0.0-1.0-552.0-0.0,0,0,63784,,,,,,78.0,,2.0,,,,,,,,,,,,,,,,,,,,224.0,1.0,,
408,,iti,,html-keyboard-response,408,581280,0.0-1.0-553.0,0,0,63784,,,,,,78.0,,2.0,,,,,,,,,,,,,,,,,,,,225.5,1.5,,
409,,rl_choice,,html-keyboard-response,409,581782,0.0-1.0-555.0,0,0,63784,,501.0,,,68.0,79.0,79.0,2.0,easy,2000.0,2000.0,1.0,80.0,20.0,100.0,0.0,B,A,/static/Simple_RL/Stimuli/Fractals_stims/B.jpg,/static/Simple_RL/Stimuli/Fractals_stims/A.jpg,1.0,80.0,20.0,100.0,0.0,B,A,226.001,0.501,0.0,
410,,rl_choice_confirmation,,html-keyboard-response,410,582785,0.0-1.0-556.0-0.0,0,0,63784,,,,,,79.0,,2.0,,,,,,,,,,,,,,,,,,,,227.0,0.999,,
411,,isi,,html-keyboard-response,411,584792,0.0-1.0-558.0,0,0,63784,,,,,,79.0,,2.0,,,,,,,,,,,,,,,,,,,,229.0,2.0,,
412,,feedback,,html-keyboard-response,412,585800,0.0-1.0-559.0-0.0,0,0,63784,,,,,,79.0,,2.0,,,,,,,,,,,,,,,,,,,,230.0,1.0,,
413,,iti,,html-keyboard-response,413,587817,0.0-1.0-560.0,0,0,63784,,,,,,79.0,,2.0,,,,,,,,,,,,,,,,,,,,232.0,2.0,,0.75
414,,final_tally,,html-keyboard-response,414,589437,0.0-2.0,0,0,63784,,1616.0,,,68.0,,,,,,,,,,,,,,,,,,,,,,,,,,
415,,debreif_intro,,html-keyboard-response,415,591463,0.0-3.0,0,0,63784,,2009.0,,,68.0,,,,,,,,,,,,,,,,,,,,,,,,,,
416,,debreif_age,,survey-text,416,595637,0.0-4.0,0,0,63784,,4173.0,"{""Q0"":""37""}",,,,,,,,,,,,,,,,,,,,,,,,,,,,
417,,debreif_gender,,survey-multi-choice,417,597172,0.0-5.0,0,0,63784,,1533.0,"{""Q0"":""Female""}",,,,,,,,,,,,,,,,,,,,,,,,,,,,
418,,debreif_dominant_hand,,survey-multi-choice,418,598898,0.0-6.0,0,0,63784,,1721.0,"{""Q0"":""Right""}",,,,,,,,,,,,,,,,,,,,,,,,,,,,
419,,debreif_native_language,,survey-multi-choice,419,600889,0.0-7.0,0,0,63784,,1987.0,"{""Q0"":""Yes""}",,,,,,,,,,,,,,,,,,,,,,,,,,,,
420,,debreif_fluency,,survey-likert,420,604118,0.0-8.0,0,0,63784,,3226.0,"{""Q0"":5}",,,,,,,,,,,,,,,,,,,,,,,,,,,,
421,,debreif_strategy_category_learning,,survey-text,421,615258,0.0-9.0,0,0,63784,,11135.0,"{""Q0"":""i just went with my gut""}",,,,,,,,,,,,,,,,,,,,,,,,,,,,
422,,debreif_strategy_old_trials,,survey-text,422,632890,0.0-10.0,0,0,63784,,17631.0,"{""Q0"":""i picked the one i thought was the prettiest""}",,,,,,,,,,,,,,,,,,,,,,,,,,,,
423,,debreif_strategy_category_memory,,survey-text,423,655035,0.0-11.0,0,0,63784,,22145.0,"{""Q0"":""i just tried to remember the best I could""}",,,,,,,,,,,,,,,,,,,,,,,,,,,,
424,,debreif_strategy_size,,survey-text,424,671207,0.0-12.0,0,0,63784,,16171.0,"{""Q0"":""i picked the one tht was bigger in real life""}",,,,,,,,,,,,,,,,,,,,,,,,,,,,
425,,debreif_strategy_rl,,survey-text,425,682059,0.0-13.0,0,0,63784,,10851.0,"{""Q0"":""i just randomly picked""}",,,,,,,,,,,,,,,,,,,,,,,,,,,,
426,,debreif_clear_instructions,,survey-text,426,715198,0.0-14.0,0,0,63784,,33137.0,"{""Q0"":""the third set of instructions was hard to grasp at first because they were different than the previous games""}",,,,,,,,,,,,,,,,,,,,,,,,,,,,
427,,debreif_end,,html-keyboard-response,427,720337,0.0-15.0,0,0,63784,,5138.0,,,32.0,,,,,,,,,,,,,,,,,,,,,,,,,,
