,success,ttype,start_time,trial_type,trial_index,time_elapsed,internal_node_id,warning,missed_checkup,PID,view_history,rt,responses,repeat_instructions,key_press,index,trial_num,block,condition,iti,isi,high_group_on_left,left_group_value,right_group_value,left_item_value,right_item_value,left_img,right_img,left_img_path,right_img_path,left_chosen,chosen_group_value,unchosen_group_value,chosen_item_value,unchosen_item_value,chosen_img,unchosen_img,onset,duration,no_response,total_bonus_tally
0,True,full_screen,d06022022hr0034,fullscreen,0,2722,0.0-0.0,0,0,31921,,,,,,,,,,,,,,,,,,,,,,,,,,,,,,,
1,,size_instructions,,instructions,1,11136,0.0-1.0-0.0-0.0,0,0,31921,"[{""page_index"":0,""viewing_time"":6559},{""page_index"":1,""viewing_time"":903},{""page_index"":2,""viewing_time"":182},{""page_index"":3,""viewing_time"":174},{""page_index"":4,""viewing_time"":164},{""page_index"":5,""viewing_time"":430}]",8412.0,,,,,,,,,,,,,,,,,,,,,,,,,,,,,
2,,rl_comprehension_check,,survey-multi-choice,2,15492,0.0-1.0-0.0-1.0,0,0,31921,,4353.0,"{""Q0"":""True"",""Q1"":""True"",""Q2"":""D for left and K for right""}",0.0,,,,,,,,,,,,,,,,,,,,,,,,,,,
3,,,,html-keyboard-response,3,16565,0.0-1.0-1.0,0,0,31921,,1070.0,,,68.0,,,,,,,,,,,,,,,,,,,,,,,,,,
4,,rl_choice,,html-keyboard-response,4,17256,0.0-1.0-2.0,0,0,31921,,690.0,,,68.0,0.0,0.0,1.0,hard,3500.0,2000.0,1.0,60.0,40.0,80.0,40.0,A,B,/static/Simple_RL/Stimuli/Fractals_stims/A.jpg,/static/Simple_RL/Stimuli/Fractals_stims/B.jpg,1.0,60.0,40.0,80.0,40.0,A,B,0.69,0.69,0.0,
5,,rl_choice_confirmation,,html-keyboard-response,5,18071,0.0-1.0-3.0-0.0,0,0,31921,,,,,,0.0,,,,,,,,,,,,,,,,,,,,,,1.5,0.81,,
6,,isi,,html-keyboard-response,6,18177,0.0-1.0-5.0,0,0,31921,,,,,,,,,,,,,,,,,,,,,,,,,,,,3.5,2.0,,
7,,feedback,,html-keyboard-response,7,19183,0.0-1.0-6.0-0.0,0,0,31921,,,,,,0.0,,,,,,,,,,,,,,,,,,,,,,4.5,1.0,,
8,,iti,,html-keyboard-response,8,19284,0.0-1.0-7.0,0,0,31921,,,,,,,,,,,,,,,,,,,,,,,,,,,,8.0,3.5,,
9,,rl_choice,,html-keyboard-response,9,19463,0.0-1.0-9.0,0,0,31921,,178.0,,,75.0,1.0,1.0,1.0,hard,1000.0,2000.0,1.0,60.0,40.0,80.0,20.0,A,B,/static/Simple_RL/Stimuli/Fractals_stims/A.jpg,/static/Simple_RL/Stimuli/Fractals_stims/B.jpg,0.0,40.0,60.0,20.0,80.0,B,A,8.177999999999999,0.17800000000000002,0.0,
10,,rl_choice_confirmation,,html-keyboard-response,10,20791,0.0-1.0-10.0-0.0,0,0,31921,,,,,,1.0,,,,,,,,,,,,,,,,,,,,,,9.5,1.3219999999999998,,
11,,isi,,html-keyboard-response,11,20895,0.0-1.0-12.0,0,0,31921,,,,,,,,,,,,,,,,,,,,,,,,,,,,11.5,2.0,,
12,,feedback,,html-keyboard-response,12,21897,0.0-1.0-13.0-0.0,0,0,31921,,,,,,1.0,,,,,,,,,,,,,,,,,,,,,,12.5,1.0,,
13,,iti,,html-keyboard-response,13,22001,0.0-1.0-14.0,0,0,31921,,,,,,,,,,,,,,,,,,,,,,,,,,,,13.5,1.0,,
14,,rl_choice,,html-keyboard-response,14,22203,0.0-1.0-16.0,0,0,31921,,201.0,,,75.0,2.0,2.0,1.0,easy,2000.0,2000.0,0.0,20.0,80.0,40.0,100.0,D,C,/static/Simple_RL/Stimuli/Fractals_stims/D.jpg,/static/Simple_RL/Stimuli/Fractals_stims/C.jpg,0.0,80.0,20.0,100.0,40.0,C,D,13.700999999999999,0.201,0.0,
15,,rl_choice_confirmation,,html-keyboard-response,15,23508,0.0-1.0-17.0-0.0,0,0,31921,,,,,,2.0,,,,,,,,,,,,,,,,,,,,,,15.0,1.2990000000000002,,
16,,isi,,html-keyboard-response,16,23611,0.0-1.0-19.0,0,0,31921,,,,,,,,,,,,,,,,,,,,,,,,,,,,17.0,2.0,,
17,,feedback,,html-keyboard-response,17,24617,0.0-1.0-20.0-0.0,0,0,31921,,,,,,2.0,,,,,,,,,,,,,,,,,,,,,,18.0,1.0,,
18,,iti,,html-keyboard-response,18,24718,0.0-1.0-21.0,0,0,31921,,,,,,,,,,,,,,,,,,,,,,,,,,,,20.0,2.0,,
19,,rl_choice,,html-keyboard-response,19,24736,0.0-1.0-23.0,0,0,31921,,17.0,,,68.0,3.0,3.0,1.0,hard,1500.0,1000.0,0.0,40.0,60.0,20.0,60.0,B,A,/static/Simple_RL/Stimuli/Fractals_stims/B.jpg,/static/Simple_RL/Stimuli/Fractals_stims/A.jpg,1.0,40.0,60.0,20.0,60.0,B,A,20.017,0.017,0.0,
20,,rl_choice_confirmation,,html-keyboard-response,20,26225,0.0-1.0-24.0-0.0,0,0,31921,,,,,,3.0,,,,,,,,,,,,,,,,,,,,,,21.5,1.483,,
21,,isi,,html-keyboard-response,21,26329,0.0-1.0-26.0,0,0,31921,,,,,,,,,,,,,,,,,,,,,,,,,,,,22.5,1.0,,
22,,feedback,,html-keyboard-response,22,27331,0.0-1.0-27.0-0.0,0,0,31921,,,,,,3.0,,,,,,,,,,,,,,,,,,,,,,23.5,1.0,,
23,,iti,,html-keyboard-response,23,27433,0.0-1.0-28.0,0,0,31921,,,,,,,,,,,,,,,,,,,,,,,,,,,,25.0,1.5,,
24,,rl_choice,,html-keyboard-response,24,27475,0.0-1.0-30.0,0,0,31921,,41.0,,,68.0,4.0,4.0,1.0,hard,1500.0,3000.0,0.0,40.0,60.0,40.0,60.0,B,A,/static/Simple_RL/Stimuli/Fractals_stims/B.jpg,/static/Simple_RL/Stimuli/Fractals_stims/A.jpg,1.0,40.0,60.0,40.0,60.0,B,A,25.041,0.040999999999999995,0.0,
25,,rl_choice_confirmation,,html-keyboard-response,25,28937,0.0-1.0-31.0-0.0,0,0,31921,,,,,,4.0,,,,,,,,,,,,,,,,,,,,,,26.5,1.459,,
26,,isi,,html-keyboard-response,26,29041,0.0-1.0-33.0,0,0,31921,,,,,,,,,,,,,,,,,,,,,,,,,,,,29.5,3.0,,
27,,feedback,,html-keyboard-response,27,30043,0.0-1.0-34.0-0.0,0,0,31921,,,,,,4.0,,,,,,,,,,,,,,,,,,,,,,30.5,1.0,,
28,,iti,,html-keyboard-response,28,30148,0.0-1.0-35.0,0,0,31921,,,,,,,,,,,,,,,,,,,,,,,,,,,,32.0,1.5,,
29,,rl_choice,,html-keyboard-response,29,31652,0.0-1.0-37.0,0,0,31921,,,,,,5.0,5.0,1.0,easy,1500.0,1500.0,1.0,80.0,20.0,80.0,0.0,C,D,/static/Simple_RL/Stimuli/Fractals_stims/C.jpg,/static/Simple_RL/Stimuli/Fractals_stims/D.jpg,,,,,,,,33.5,1.5,1.0,
30,,rl_choice_warning,,html-keyboard-response,30,32657,0.0-1.0-39.0-0.0,0,0,31921,,,,,,,,,,,,,,,,,,,,,,,,,,,,34.5,1.0,,
31,,isi,,html-keyboard-response,31,32762,0.0-1.0-40.0,0,0,31921,,,,,,,,,,,,,,,,,,,,,,,,,,,,36.0,1.5,,
32,,iti,,html-keyboard-response,32,32868,0.0-1.0-42.0,0,0,31921,,,,,,,,,,,,,,,,,,,,,,,,,,,,37.5,1.5,,
33,,rl_choice,,html-keyboard-response,33,34373,0.0-1.0-44.0,0,0,31921,,,,,,6.0,6.0,1.0,easy,1000.0,1000.0,1.0,80.0,20.0,60.0,40.0,C,D,/static/Simple_RL/Stimuli/Fractals_stims/C.jpg,/static/Simple_RL/Stimuli/Fractals_stims/D.jpg,,,,,,,,39.0,1.5,1.0,
34,,rl_choice_warning,,html-keyboard-response,34,35377,0.0-1.0-46.0-0.0,0,0,31921,,,,,,,,,,,,,,,,,,,,,,,,,,,,40.0,1.0,,
35,,isi,,html-keyboard-response,35,35480,0.0-1.0-47.0,0,0,31921,,,,,,,,,,,,,,,,,,,,,,,,,,,,41.0,1.0,,
36,,iti,,html-keyboard-response,36,35585,0.0-1.0-49.0,0,0,31921,,,,,,,,,,,,,,,,,,,,,,,,,,,,42.0,1.0,,
37,,rl_choice,,html-keyboard-response,37,37091,0.0-1.0-51.0,0,0,31921,,,,,,7.0,7.0,1.0,easy,3000.0,2000.0,0.0,20.0,80.0,0.0,80.0,D,C,/static/Simple_RL/Stimuli/Fractals_stims/D.jpg,/static/Simple_RL/Stimuli/Fractals_stims/C.jpg,,,,,,,,43.5,1.5,1.0,
38,,rl_choice_warning,,html-keyboard-response,38,38097,0.0-1.0-53.0-0.0,0,0,31921,,,,,,,,,,,,,,,,,,,,,,,,,,,,44.5,1.0,,
39,,isi,,html-keyboard-response,39,38201,0.0-1.0-54.0,0,0,31921,,,,,,,,,,,,,,,,,,,,,,,,,,,,46.5,2.0,,
40,,iti,,html-keyboard-response,40,38305,0.0-1.0-56.0,0,0,31921,,,,,,,,,,,,,,,,,,,,,,,,,,,,49.5,3.0,,
41,,rl_choice,,html-keyboard-response,41,39810,0.0-1.0-58.0,0,0,31921,,,,,,8.0,8.0,1.0,hard,2000.0,3500.0,0.0,40.0,60.0,40.0,60.0,B,A,/static/Simple_RL/Stimuli/Fractals_stims/B.jpg,/static/Simple_RL/Stimuli/Fractals_stims/A.jpg,,,,,,,,51.0,1.5,1.0,
42,,rl_choice_warning,,html-keyboard-response,42,40814,0.0-1.0-60.0-0.0,0,0,31921,,,,,,,,,,,,,,,,,,,,,,,,,,,,52.0,1.0,,
43,,isi,,html-keyboard-response,43,40918,0.0-1.0-61.0,0,0,31921,,,,,,,,,,,,,,,,,,,,,,,,,,,,55.5,3.5,,
44,,iti,,html-keyboard-response,44,41022,0.0-1.0-63.0,0,0,31921,,,,,,,,,,,,,,,,,,,,,,,,,,,,57.5,2.0,,
45,,rl_choice,,html-keyboard-response,45,42526,0.0-1.0-65.0,0,0,31921,,,,,,9.0,9.0,1.0,hard,2000.0,1000.0,1.0,60.0,40.0,60.0,20.0,A,B,/static/Simple_RL/Stimuli/Fractals_stims/A.jpg,/static/Simple_RL/Stimuli/Fractals_stims/B.jpg,,,,,,,,59.0,1.5,1.0,
46,,rl_choice_warning,,html-keyboard-response,46,43531,0.0-1.0-67.0-0.0,0,0,31921,,,,,,,,,,,,,,,,,,,,,,,,,,,,60.0,1.0,,
47,,isi,,html-keyboard-response,47,43635,0.0-1.0-68.0,0,0,31921,,,,,,,,,,,,,,,,,,,,,,,,,,,,61.0,1.0,,
48,,iti,,html-keyboard-response,48,43740,0.0-1.0-70.0,0,0,31921,,,,,,,,,,,,,,,,,,,,,,,,,,,,63.0,2.0,,
49,,rl_choice,,html-keyboard-response,49,45246,0.0-1.0-72.0,0,0,31921,,,,,,10.0,10.0,1.0,easy,1000.0,1000.0,0.0,20.0,80.0,0.0,80.0,D,C,/static/Simple_RL/Stimuli/Fractals_stims/D.jpg,/static/Simple_RL/Stimuli/Fractals_stims/C.jpg,,,,,,,,64.5,1.5,1.0,
50,,rl_choice_warning,,html-keyboard-response,50,46251,0.0-1.0-74.0-0.0,0,0,31921,,,,,,,,,,,,,,,,,,,,,,,,,,,,65.5,1.0,,
51,,isi,,html-keyboard-response,51,46356,0.0-1.0-75.0,0,0,31921,,,,,,,,,,,,,,,,,,,,,,,,,,,,66.5,1.0,,
52,,iti,,html-keyboard-response,52,46461,0.0-1.0-77.0,0,0,31921,,,,,,,,,,,,,,,,,,,,,,,,,,,,67.5,1.0,,
53,,rl_choice,,html-keyboard-response,53,47966,0.0-1.0-79.0,0,0,31921,,,,,,11.0,11.0,1.0,hard,1000.0,2000.0,0.0,40.0,60.0,40.0,60.0,B,A,/static/Simple_RL/Stimuli/Fractals_stims/B.jpg,/static/Simple_RL/Stimuli/Fractals_stims/A.jpg,,,,,,,,69.0,1.5,1.0,
54,,rl_choice_warning,,html-keyboard-response,54,48972,0.0-1.0-81.0-0.0,0,0,31921,,,,,,,,,,,,,,,,,,,,,,,,,,,,70.0,1.0,,
55,,isi,,html-keyboard-response,55,49075,0.0-1.0-82.0,0,0,31921,,,,,,,,,,,,,,,,,,,,,,,,,,,,72.0,2.0,,
56,,iti,,html-keyboard-response,56,49180,0.0-1.0-84.0,0,0,31921,,,,,,,,,,,,,,,,,,,,,,,,,,,,73.0,1.0,,
57,,rl_choice,,html-keyboard-response,57,50686,0.0-1.0-86.0,0,0,31921,,,,,,12.0,12.0,1.0,hard,1000.0,1000.0,0.0,40.0,60.0,60.0,80.0,B,A,/static/Simple_RL/Stimuli/Fractals_stims/B.jpg,/static/Simple_RL/Stimuli/Fractals_stims/A.jpg,,,,,,,,74.5,1.5,1.0,
58,,rl_choice_warning,,html-keyboard-response,58,51691,0.0-1.0-88.0-0.0,0,0,31921,,,,,,,,,,,,,,,,,,,,,,,,,,,,75.5,1.0,,
59,,isi,,html-keyboard-response,59,51796,0.0-1.0-89.0,0,0,31921,,,,,,,,,,,,,,,,,,,,,,,,,,,,76.5,1.0,,
60,,iti,,html-keyboard-response,60,51900,0.0-1.0-91.0,0,0,31921,,,,,,,,,,,,,,,,,,,,,,,,,,,,77.5,1.0,,
61,,rl_choice,,html-keyboard-response,61,53406,0.0-1.0-93.0,0,0,31921,,,,,,13.0,13.0,1.0,hard,3000.0,1500.0,1.0,60.0,40.0,40.0,60.0,A,B,/static/Simple_RL/Stimuli/Fractals_stims/A.jpg,/static/Simple_RL/Stimuli/Fractals_stims/B.jpg,,,,,,,,79.0,1.5,1.0,
62,,rl_choice_warning,,html-keyboard-response,62,54412,0.0-1.0-95.0-0.0,0,0,31921,,,,,,,,,,,,,,,,,,,,,,,,,,,,80.0,1.0,,
63,,isi,,html-keyboard-response,63,54516,0.0-1.0-96.0,0,0,31921,,,,,,,,,,,,,,,,,,,,,,,,,,,,81.5,1.5,,
64,,iti,,html-keyboard-response,64,54622,0.0-1.0-98.0,0,0,31921,,,,,,,,,,,,,,,,,,,,,,,,,,,,84.5,3.0,,
65,,rl_choice,,html-keyboard-response,65,56126,0.0-1.0-100.0,0,0,31921,,,,,,14.0,14.0,1.0,easy,1500.0,1000.0,1.0,80.0,20.0,100.0,40.0,C,D,/static/Simple_RL/Stimuli/Fractals_stims/C.jpg,/static/Simple_RL/Stimuli/Fractals_stims/D.jpg,,,,,,,,86.0,1.5,1.0,
66,,rl_choice_warning,,html-keyboard-response,66,57132,0.0-1.0-102.0-0.0,0,0,31921,,,,,,,,,,,,,,,,,,,,,,,,,,,,87.0,1.0,,
67,,isi,,html-keyboard-response,67,57236,0.0-1.0-103.0,0,0,31921,,,,,,,,,,,,,,,,,,,,,,,,,,,,88.0,1.0,,
68,,iti,,html-keyboard-response,68,57340,0.0-1.0-105.0,0,0,31921,,,,,,,,,,,,,,,,,,,,,,,,,,,,89.5,1.5,,
69,,rl_choice,,html-keyboard-response,69,58846,0.0-1.0-107.0,0,0,31921,,,,,,15.0,15.0,1.0,hard,1000.0,3000.0,1.0,60.0,40.0,60.0,60.0,A,B,/static/Simple_RL/Stimuli/Fractals_stims/A.jpg,/static/Simple_RL/Stimuli/Fractals_stims/B.jpg,,,,,,,,91.0,1.5,1.0,
70,,rl_choice_warning,,html-keyboard-response,70,59851,0.0-1.0-109.0-0.0,0,0,31921,,,,,,,,,,,,,,,,,,,,,,,,,,,,92.0,1.0,,
71,,isi,,html-keyboard-response,71,59956,0.0-1.0-110.0,0,0,31921,,,,,,,,,,,,,,,,,,,,,,,,,,,,95.0,3.0,,
72,,iti,,html-keyboard-response,72,60059,0.0-1.0-112.0,0,0,31921,,,,,,,,,,,,,,,,,,,,,,,,,,,,96.0,1.0,,
73,,rl_choice,,html-keyboard-response,73,61563,0.0-1.0-114.0,0,0,31921,,,,,,16.0,16.0,1.0,hard,1500.0,1000.0,1.0,60.0,40.0,60.0,40.0,A,B,/static/Simple_RL/Stimuli/Fractals_stims/A.jpg,/static/Simple_RL/Stimuli/Fractals_stims/B.jpg,,,,,,,,97.5,1.5,1.0,
74,,rl_choice_warning,,html-keyboard-response,74,62569,0.0-1.0-116.0-0.0,0,0,31921,,,,,,,,,,,,,,,,,,,,,,,,,,,,98.5,1.0,,
75,,isi,,html-keyboard-response,75,62675,0.0-1.0-117.0,0,0,31921,,,,,,,,,,,,,,,,,,,,,,,,,,,,99.5,1.0,,
76,,iti,,html-keyboard-response,76,62780,0.0-1.0-119.0,0,0,31921,,,,,,,,,,,,,,,,,,,,,,,,,,,,101.0,1.5,,
77,,rl_choice,,html-keyboard-response,77,64284,0.0-1.0-121.0,0,0,31921,,,,,,17.0,17.0,1.0,easy,2000.0,2000.0,1.0,80.0,20.0,100.0,40.0,C,D,/static/Simple_RL/Stimuli/Fractals_stims/C.jpg,/static/Simple_RL/Stimuli/Fractals_stims/D.jpg,,,,,,,,102.5,1.5,1.0,
78,,rl_choice_warning,,html-keyboard-response,78,65289,0.0-1.0-123.0-0.0,0,0,31921,,,,,,,,,,,,,,,,,,,,,,,,,,,,103.5,1.0,,
79,,isi,,html-keyboard-response,79,65393,0.0-1.0-124.0,0,0,31921,,,,,,,,,,,,,,,,,,,,,,,,,,,,105.5,2.0,,
80,,iti,,html-keyboard-response,80,65497,0.0-1.0-126.0,0,0,31921,,,,,,,,,,,,,,,,,,,,,,,,,,,,107.5,2.0,,
81,,rl_choice,,html-keyboard-response,81,67001,0.0-1.0-128.0,0,0,31921,,,,,,18.0,18.0,1.0,hard,1000.0,1500.0,1.0,60.0,40.0,80.0,60.0,A,B,/static/Simple_RL/Stimuli/Fractals_stims/A.jpg,/static/Simple_RL/Stimuli/Fractals_stims/B.jpg,,,,,,,,109.0,1.5,1.0,
82,,rl_choice_warning,,html-keyboard-response,82,68006,0.0-1.0-130.0-0.0,0,0,31921,,,,,,,,,,,,,,,,,,,,,,,,,,,,110.0,1.0,,
83,,isi,,html-keyboard-response,83,68110,0.0-1.0-131.0,0,0,31921,,,,,,,,,,,,,,,,,,,,,,,,,,,,111.5,1.5,,
84,,iti,,html-keyboard-response,84,68216,0.0-1.0-133.0,0,0,31921,,,,,,,,,,,,,,,,,,,,,,,,,,,,112.5,1.0,,
85,,rl_choice,,html-keyboard-response,85,69721,0.0-1.0-135.0,0,0,31921,,,,,,19.0,19.0,1.0,hard,1000.0,1000.0,1.0,60.0,40.0,60.0,20.0,A,B,/static/Simple_RL/Stimuli/Fractals_stims/A.jpg,/static/Simple_RL/Stimuli/Fractals_stims/B.jpg,,,,,,,,114.0,1.5,1.0,
86,,rl_choice_warning,,html-keyboard-response,86,70726,0.0-1.0-137.0-0.0,0,0,31921,,,,,,,,,,,,,,,,,,,,,,,,,,,,115.0,1.0,,
87,,isi,,html-keyboard-response,87,70830,0.0-1.0-138.0,0,0,31921,,,,,,,,,,,,,,,,,,,,,,,,,,,,116.0,1.0,,
88,,iti,,html-keyboard-response,88,70934,0.0-1.0-140.0,0,0,31921,,,,,,,,,,,,,,,,,,,,,,,,,,,,117.0,1.0,,
89,,rl_choice,,html-keyboard-response,89,72438,0.0-1.0-142.0,0,0,31921,,,,,,20.0,20.0,1.0,easy,1000.0,1000.0,0.0,20.0,80.0,0.0,60.0,D,C,/static/Simple_RL/Stimuli/Fractals_stims/D.jpg,/static/Simple_RL/Stimuli/Fractals_stims/C.jpg,,,,,,,,118.5,1.5,1.0,
90,,rl_choice_warning,,html-keyboard-response,90,73443,0.0-1.0-144.0-0.0,0,0,31921,,,,,,,,,,,,,,,,,,,,,,,,,,,,119.5,1.0,,
91,,isi,,html-keyboard-response,91,73548,0.0-1.0-145.0,0,0,31921,,,,,,,,,,,,,,,,,,,,,,,,,,,,120.5,1.0,,
92,,iti,,html-keyboard-response,92,73652,0.0-1.0-147.0,0,0,31921,,,,,,,,,,,,,,,,,,,,,,,,,,,,121.5,1.0,,
93,,rl_choice,,html-keyboard-response,93,75158,0.0-1.0-149.0,0,0,31921,,,,,,21.0,21.0,1.0,easy,2000.0,1500.0,1.0,80.0,20.0,60.0,20.0,C,D,/static/Simple_RL/Stimuli/Fractals_stims/C.jpg,/static/Simple_RL/Stimuli/Fractals_stims/D.jpg,,,,,,,,123.0,1.5,1.0,
94,,rl_choice_warning,,html-keyboard-response,94,76164,0.0-1.0-151.0-0.0,0,0,31921,,,,,,,,,,,,,,,,,,,,,,,,,,,,124.0,1.0,,
95,,isi,,html-keyboard-response,95,76267,0.0-1.0-152.0,0,0,31921,,,,,,,,,,,,,,,,,,,,,,,,,,,,125.5,1.5,,
96,,iti,,html-keyboard-response,96,76371,0.0-1.0-154.0,0,0,31921,,,,,,,,,,,,,,,,,,,,,,,,,,,,127.5,2.0,,
97,,rl_choice,,html-keyboard-response,97,77875,0.0-1.0-156.0,0,0,31921,,,,,,22.0,22.0,1.0,easy,1000.0,1000.0,1.0,80.0,20.0,100.0,0.0,C,D,/static/Simple_RL/Stimuli/Fractals_stims/C.jpg,/static/Simple_RL/Stimuli/Fractals_stims/D.jpg,,,,,,,,129.0,1.5,1.0,
98,,rl_choice_warning,,html-keyboard-response,98,78881,0.0-1.0-158.0-0.0,0,0,31921,,,,,,,,,,,,,,,,,,,,,,,,,,,,130.0,1.0,,
99,,isi,,html-keyboard-response,99,78986,0.0-1.0-159.0,0,0,31921,,,,,,,,,,,,,,,,,,,,,,,,,,,,131.0,1.0,,
100,,iti,,html-keyboard-response,100,79091,0.0-1.0-161.0,0,0,31921,,,,,,,,,,,,,,,,,,,,,,,,,,,,132.0,1.0,,
101,,rl_choice,,html-keyboard-response,101,80597,0.0-1.0-163.0,0,0,31921,,,,,,23.0,23.0,1.0,easy,1500.0,3000.0,1.0,80.0,20.0,80.0,20.0,C,D,/static/Simple_RL/Stimuli/Fractals_stims/C.jpg,/static/Simple_RL/Stimuli/Fractals_stims/D.jpg,,,,,,,,133.5,1.5,1.0,
102,,rl_choice_warning,,html-keyboard-response,102,81601,0.0-1.0-165.0-0.0,0,0,31921,,,,,,,,,,,,,,,,,,,,,,,,,,,,134.5,1.0,,
103,,isi,,html-keyboard-response,103,81706,0.0-1.0-166.0,0,0,31921,,,,,,,,,,,,,,,,,,,,,,,,,,,,137.5,3.0,,
104,,iti,,html-keyboard-response,104,81812,0.0-1.0-168.0,0,0,31921,,,,,,,,,,,,,,,,,,,,,,,,,,,,139.0,1.5,,
105,,rl_choice,,html-keyboard-response,105,83318,0.0-1.0-170.0,0,0,31921,,,,,,24.0,24.0,1.0,hard,2000.0,1500.0,0.0,40.0,60.0,40.0,60.0,B,A,/static/Simple_RL/Stimuli/Fractals_stims/B.jpg,/static/Simple_RL/Stimuli/Fractals_stims/A.jpg,,,,,,,,140.5,1.5,1.0,
106,,rl_choice_warning,,html-keyboard-response,106,84324,0.0-1.0-172.0-0.0,0,0,31921,,,,,,,,,,,,,,,,,,,,,,,,,,,,141.5,1.0,,
107,,isi,,html-keyboard-response,107,84427,0.0-1.0-173.0,0,0,31921,,,,,,,,,,,,,,,,,,,,,,,,,,,,143.0,1.5,,
108,,iti,,html-keyboard-response,108,84532,0.0-1.0-175.0,0,0,31921,,,,,,,,,,,,,,,,,,,,,,,,,,,,145.0,2.0,,
109,,rl_choice,,html-keyboard-response,109,86035,0.0-1.0-177.0,0,0,31921,,,,,,25.0,25.0,1.0,hard,3000.0,1500.0,1.0,60.0,40.0,40.0,40.0,A,B,/static/Simple_RL/Stimuli/Fractals_stims/A.jpg,/static/Simple_RL/Stimuli/Fractals_stims/B.jpg,,,,,,,,146.5,1.5,1.0,
110,,rl_choice_warning,,html-keyboard-response,110,87041,0.0-1.0-179.0-0.0,0,0,31921,,,,,,,,,,,,,,,,,,,,,,,,,,,,147.5,1.0,,
111,,isi,,html-keyboard-response,111,87146,0.0-1.0-180.0,0,0,31921,,,,,,,,,,,,,,,,,,,,,,,,,,,,149.0,1.5,,
112,,iti,,html-keyboard-response,112,87252,0.0-1.0-182.0,0,0,31921,,,,,,,,,,,,,,,,,,,,,,,,,,,,152.0,3.0,,
113,,rl_choice,,html-keyboard-response,113,88755,0.0-1.0-184.0,0,0,31921,,,,,,26.0,26.0,1.0,hard,1000.0,2000.0,0.0,40.0,60.0,40.0,80.0,B,A,/static/Simple_RL/Stimuli/Fractals_stims/B.jpg,/static/Simple_RL/Stimuli/Fractals_stims/A.jpg,,,,,,,,153.5,1.5,1.0,
114,,rl_choice_warning,,html-keyboard-response,114,89760,0.0-1.0-186.0-0.0,0,0,31921,,,,,,,,,,,,,,,,,,,,,,,,,,,,154.5,1.0,,
115,,isi,,html-keyboard-response,115,89865,0.0-1.0-187.0,0,0,31921,,,,,,,,,,,,,,,,,,,,,,,,,,,,156.5,2.0,,
116,,iti,,html-keyboard-response,116,89969,0.0-1.0-189.0,0,0,31921,,,,,,,,,,,,,,,,,,,,,,,,,,,,157.5,1.0,,
117,,rl_choice,,html-keyboard-response,117,91475,0.0-1.0-191.0,0,0,31921,,,,,,27.0,27.0,1.0,easy,3000.0,1000.0,1.0,80.0,20.0,80.0,40.0,C,D,/static/Simple_RL/Stimuli/Fractals_stims/C.jpg,/static/Simple_RL/Stimuli/Fractals_stims/D.jpg,,,,,,,,159.0,1.5,1.0,
118,,rl_choice_warning,,html-keyboard-response,118,92481,0.0-1.0-193.0-0.0,0,0,31921,,,,,,,,,,,,,,,,,,,,,,,,,,,,160.0,1.0,,
119,,isi,,html-keyboard-response,119,92585,0.0-1.0-194.0,0,0,31921,,,,,,,,,,,,,,,,,,,,,,,,,,,,161.0,1.0,,
120,,iti,,html-keyboard-response,120,92689,0.0-1.0-196.0,0,0,31921,,,,,,,,,,,,,,,,,,,,,,,,,,,,164.0,3.0,,
121,,rl_choice,,html-keyboard-response,121,94194,0.0-1.0-198.0,0,0,31921,,,,,,28.0,28.0,1.0,easy,1000.0,3500.0,1.0,80.0,20.0,60.0,20.0,C,D,/static/Simple_RL/Stimuli/Fractals_stims/C.jpg,/static/Simple_RL/Stimuli/Fractals_stims/D.jpg,,,,,,,,165.5,1.5,1.0,
122,,rl_choice_warning,,html-keyboard-response,122,95198,0.0-1.0-200.0-0.0,0,0,31921,,,,,,,,,,,,,,,,,,,,,,,,,,,,166.5,1.0,,
123,,isi,,html-keyboard-response,123,95302,0.0-1.0-201.0,0,0,31921,,,,,,,,,,,,,,,,,,,,,,,,,,,,170.0,3.5,,
124,,iti,,html-keyboard-response,124,95406,0.0-1.0-203.0,0,0,31921,,,,,,,,,,,,,,,,,,,,,,,,,,,,171.0,1.0,,
125,,rl_choice,,html-keyboard-response,125,96910,0.0-1.0-205.0,0,0,31921,,,,,,29.0,29.0,1.0,hard,1500.0,1000.0,0.0,40.0,60.0,60.0,40.0,B,A,/static/Simple_RL/Stimuli/Fractals_stims/B.jpg,/static/Simple_RL/Stimuli/Fractals_stims/A.jpg,,,,,,,,172.5,1.5,1.0,
126,,rl_choice_warning,,html-keyboard-response,126,97916,0.0-1.0-207.0-0.0,0,0,31921,,,,,,,,,,,,,,,,,,,,,,,,,,,,173.5,1.0,,
127,,isi,,html-keyboard-response,127,98019,0.0-1.0-208.0,0,0,31921,,,,,,,,,,,,,,,,,,,,,,,,,,,,174.5,1.0,,
128,,iti,,html-keyboard-response,128,98125,0.0-1.0-210.0,0,0,31921,,,,,,,,,,,,,,,,,,,,,,,,,,,,176.0,1.5,,
129,,rl_choice,,html-keyboard-response,129,99630,0.0-1.0-212.0,0,0,31921,,,,,,30.0,30.0,1.0,easy,1000.0,1500.0,1.0,80.0,20.0,100.0,20.0,C,D,/static/Simple_RL/Stimuli/Fractals_stims/C.jpg,/static/Simple_RL/Stimuli/Fractals_stims/D.jpg,,,,,,,,177.5,1.5,1.0,
130,,rl_choice_warning,,html-keyboard-response,130,100635,0.0-1.0-214.0-0.0,0,0,31921,,,,,,,,,,,,,,,,,,,,,,,,,,,,178.5,1.0,,
131,,isi,,html-keyboard-response,131,100740,0.0-1.0-215.0,0,0,31921,,,,,,,,,,,,,,,,,,,,,,,,,,,,180.0,1.5,,
132,,iti,,html-keyboard-response,132,100844,0.0-1.0-217.0,0,0,31921,,,,,,,,,,,,,,,,,,,,,,,,,,,,181.0,1.0,,
133,,rl_choice,,html-keyboard-response,133,102348,0.0-1.0-219.0,0,0,31921,,,,,,31.0,31.0,1.0,easy,2000.0,1500.0,0.0,20.0,80.0,40.0,100.0,D,C,/static/Simple_RL/Stimuli/Fractals_stims/D.jpg,/static/Simple_RL/Stimuli/Fractals_stims/C.jpg,,,,,,,,182.5,1.5,1.0,
134,,rl_choice_warning,,html-keyboard-response,134,103353,0.0-1.0-221.0-0.0,0,0,31921,,,,,,,,,,,,,,,,,,,,,,,,,,,,183.5,1.0,,
135,,isi,,html-keyboard-response,135,103458,0.0-1.0-222.0,0,0,31921,,,,,,,,,,,,,,,,,,,,,,,,,,,,185.0,1.5,,
136,,iti,,html-keyboard-response,136,103564,0.0-1.0-224.0,0,0,31921,,,,,,,,,,,,,,,,,,,,,,,,,,,,187.0,2.0,,
137,,rl_choice,,html-keyboard-response,137,105069,0.0-1.0-226.0,0,0,31921,,,,,,32.0,32.0,1.0,hard,1500.0,1000.0,0.0,40.0,60.0,40.0,80.0,B,A,/static/Simple_RL/Stimuli/Fractals_stims/B.jpg,/static/Simple_RL/Stimuli/Fractals_stims/A.jpg,,,,,,,,188.5,1.5,1.0,
138,,rl_choice_warning,,html-keyboard-response,138,106073,0.0-1.0-228.0-0.0,0,0,31921,,,,,,,,,,,,,,,,,,,,,,,,,,,,189.5,1.0,,
139,,isi,,html-keyboard-response,139,106177,0.0-1.0-229.0,0,0,31921,,,,,,,,,,,,,,,,,,,,,,,,,,,,190.5,1.0,,
140,,iti,,html-keyboard-response,140,106281,0.0-1.0-231.0,0,0,31921,,,,,,,,,,,,,,,,,,,,,,,,,,,,192.0,1.5,,
141,,rl_choice,,html-keyboard-response,141,107787,0.0-1.0-233.0,0,0,31921,,,,,,33.0,33.0,1.0,easy,1000.0,1000.0,0.0,20.0,80.0,40.0,100.0,D,C,/static/Simple_RL/Stimuli/Fractals_stims/D.jpg,/static/Simple_RL/Stimuli/Fractals_stims/C.jpg,,,,,,,,193.5,1.5,1.0,
142,,rl_choice_warning,,html-keyboard-response,142,108793,0.0-1.0-235.0-0.0,0,0,31921,,,,,,,,,,,,,,,,,,,,,,,,,,,,194.5,1.0,,
143,,isi,,html-keyboard-response,143,108897,0.0-1.0-236.0,0,0,31921,,,,,,,,,,,,,,,,,,,,,,,,,,,,195.5,1.0,,
144,,iti,,html-keyboard-response,144,109001,0.0-1.0-238.0,0,0,31921,,,,,,,,,,,,,,,,,,,,,,,,,,,,196.5,1.0,,
145,,rl_choice,,html-keyboard-response,145,110505,0.0-1.0-240.0,0,0,31921,,,,,,34.0,34.0,1.0,easy,3500.0,3000.0,1.0,80.0,20.0,80.0,40.0,C,D,/static/Simple_RL/Stimuli/Fractals_stims/C.jpg,/static/Simple_RL/Stimuli/Fractals_stims/D.jpg,,,,,,,,198.0,1.5,1.0,
146,,rl_choice_warning,,html-keyboard-response,146,111508,0.0-1.0-242.0-0.0,0,0,31921,,,,,,,,,,,,,,,,,,,,,,,,,,,,199.0,1.0,,
147,,isi,,html-keyboard-response,147,111615,0.0-1.0-243.0,0,0,31921,,,,,,,,,,,,,,,,,,,,,,,,,,,,202.0,3.0,,
148,,iti,,html-keyboard-response,148,111719,0.0-1.0-245.0,0,0,31921,,,,,,,,,,,,,,,,,,,,,,,,,,,,205.5,3.5,,
149,,rl_choice,,html-keyboard-response,149,113225,0.0-1.0-247.0,0,0,31921,,,,,,35.0,35.0,1.0,easy,1500.0,2000.0,1.0,80.0,20.0,60.0,40.0,C,D,/static/Simple_RL/Stimuli/Fractals_stims/C.jpg,/static/Simple_RL/Stimuli/Fractals_stims/D.jpg,,,,,,,,207.0,1.5,1.0,
150,,rl_choice_warning,,html-keyboard-response,150,114230,0.0-1.0-249.0-0.0,0,0,31921,,,,,,,,,,,,,,,,,,,,,,,,,,,,208.0,1.0,,
151,,isi,,html-keyboard-response,151,114335,0.0-1.0-250.0,0,0,31921,,,,,,,,,,,,,,,,,,,,,,,,,,,,210.0,2.0,,
152,,iti,,html-keyboard-response,152,114438,0.0-1.0-252.0,0,0,31921,,,,,,,,,,,,,,,,,,,,,,,,,,,,211.5,1.5,,
153,,rl_choice,,html-keyboard-response,153,115945,0.0-1.0-254.0,0,0,31921,,,,,,36.0,36.0,1.0,easy,1500.0,1500.0,0.0,20.0,80.0,20.0,100.0,D,C,/static/Simple_RL/Stimuli/Fractals_stims/D.jpg,/static/Simple_RL/Stimuli/Fractals_stims/C.jpg,,,,,,,,213.0,1.5,1.0,
154,,rl_choice_warning,,html-keyboard-response,154,116950,0.0-1.0-256.0-0.0,0,0,31921,,,,,,,,,,,,,,,,,,,,,,,,,,,,214.0,1.0,,
155,,isi,,html-keyboard-response,155,117054,0.0-1.0-257.0,0,0,31921,,,,,,,,,,,,,,,,,,,,,,,,,,,,215.5,1.5,,
156,,iti,,html-keyboard-response,156,117158,0.0-1.0-259.0,0,0,31921,,,,,,,,,,,,,,,,,,,,,,,,,,,,217.0,1.5,,
157,,rl_choice,,html-keyboard-response,157,118662,0.0-1.0-261.0,0,0,31921,,,,,,37.0,37.0,1.0,hard,2000.0,1000.0,1.0,60.0,40.0,60.0,40.0,A,B,/static/Simple_RL/Stimuli/Fractals_stims/A.jpg,/static/Simple_RL/Stimuli/Fractals_stims/B.jpg,,,,,,,,218.5,1.5,1.0,
158,,rl_choice_warning,,html-keyboard-response,158,119668,0.0-1.0-263.0-0.0,0,0,31921,,,,,,,,,,,,,,,,,,,,,,,,,,,,219.5,1.0,,
159,,isi,,html-keyboard-response,159,119772,0.0-1.0-264.0,0,0,31921,,,,,,,,,,,,,,,,,,,,,,,,,,,,220.5,1.0,,
160,,iti,,html-keyboard-response,160,119875,0.0-1.0-266.0,0,0,31921,,,,,,,,,,,,,,,,,,,,,,,,,,,,222.5,2.0,,
161,,rl_choice,,html-keyboard-response,161,121382,0.0-1.0-268.0,0,0,31921,,,,,,38.0,38.0,1.0,hard,1000.0,1500.0,0.0,40.0,60.0,20.0,40.0,B,A,/static/Simple_RL/Stimuli/Fractals_stims/B.jpg,/static/Simple_RL/Stimuli/Fractals_stims/A.jpg,,,,,,,,224.0,1.5,1.0,
162,,rl_choice_warning,,html-keyboard-response,162,122388,0.0-1.0-270.0-0.0,0,0,31921,,,,,,,,,,,,,,,,,,,,,,,,,,,,225.0,1.0,,
163,,isi,,html-keyboard-response,163,122493,0.0-1.0-271.0,0,0,31921,,,,,,,,,,,,,,,,,,,,,,,,,,,,226.5,1.5,,
164,,iti,,html-keyboard-response,164,122599,0.0-1.0-273.0,0,0,31921,,,,,,,,,,,,,,,,,,,,,,,,,,,,227.5,1.0,,
165,,rl_choice,,html-keyboard-response,165,124105,0.0-1.0-275.0,0,0,31921,,,,,,39.0,39.0,1.0,easy,1000.0,1000.0,0.0,20.0,80.0,0.0,60.0,D,C,/static/Simple_RL/Stimuli/Fractals_stims/D.jpg,/static/Simple_RL/Stimuli/Fractals_stims/C.jpg,,,,,,,,229.0,1.5,1.0,
166,,rl_choice_warning,,html-keyboard-response,166,125110,0.0-1.0-277.0-0.0,0,0,31921,,,,,,,,,,,,,,,,,,,,,,,,,,,,230.0,1.0,,
167,,isi,,html-keyboard-response,167,125214,0.0-1.0-278.0,0,0,31921,,,,,,,,,,,,,,,,,,,,,,,,,,,,231.0,1.0,,
168,,iti,,html-keyboard-response,168,125319,0.0-1.0-280.0,0,0,31921,,,,,,,,,,,,,,,,,,,,,,,,,,,,232.0,1.0,,
169,,block_over,,html-keyboard-response,169,232005,0.0-1.0-281.0-0.0,0,0,31921,,106685.0,,,68.0,39.0,,,,,,,,,,,,,,,,,,,,,,,,,
170,,start_run,,html-keyboard-response,170,233696,0.0-1.0-281.0-1.0,0,0,31921,,1690.0,,,84.0,,,,,,,,,,,,,,,,,,,,,,,,,,
171,,rl_choice,,html-keyboard-response,171,234062,0.0-1.0-282.0,0,0,31921,,363.0,,,68.0,40.0,40.0,2.0,easy,1500.0,2000.0,1.0,80.0,20.0,60.0,20.0,C,D,/static/Simple_RL/Stimuli/Fractals_stims/C.jpg,/static/Simple_RL/Stimuli/Fractals_stims/D.jpg,1.0,80.0,20.0,60.0,20.0,C,D,0.363,0.363,0.0,
172,,rl_choice_confirmation,,html-keyboard-response,172,235203,0.0-1.0-283.0-0.0,0,0,31921,,,,,,40.0,,,,,,,,,,,,,,,,,,,,,,1.5,1.137,,
173,,isi,,html-keyboard-response,173,235309,0.0-1.0-285.0,0,0,31921,,,,,,,,,,,,,,,,,,,,,,,,,,,,3.5,2.0,,
174,,feedback,,html-keyboard-response,174,236313,0.0-1.0-286.0-0.0,0,0,31921,,,,,,40.0,,,,,,,,,,,,,,,,,,,,,,4.5,1.0,,
175,,iti,,html-keyboard-response,175,236417,0.0-1.0-287.0,0,0,31921,,,,,,,,,,,,,,,,,,,,,,,,,,,,6.0,1.5,,
176,,rl_choice,,html-keyboard-response,176,236576,0.0-1.0-289.0,0,0,31921,,158.0,,,75.0,41.0,41.0,2.0,hard,1000.0,2000.0,0.0,40.0,60.0,60.0,60.0,B,A,/static/Simple_RL/Stimuli/Fractals_stims/B.jpg,/static/Simple_RL/Stimuli/Fractals_stims/A.jpg,0.0,60.0,40.0,60.0,60.0,A,B,6.1579999999999995,0.158,0.0,
177,,rl_choice_confirmation,,html-keyboard-response,177,237924,0.0-1.0-290.0-0.0,0,0,31921,,,,,,41.0,,,,,,,,,,,,,,,,,,,,,,7.5,1.3419999999999999,,
178,,isi,,html-keyboard-response,178,238026,0.0-1.0-292.0,0,0,31921,,,,,,,,,,,,,,,,,,,,,,,,,,,,9.5,2.0,,
179,,feedback,,html-keyboard-response,179,239027,0.0-1.0-293.0-0.0,0,0,31921,,,,,,41.0,,,,,,,,,,,,,,,,,,,,,,10.5,1.0,,
180,,iti,,html-keyboard-response,180,239132,0.0-1.0-294.0,0,0,31921,,,,,,,,,,,,,,,,,,,,,,,,,,,,11.5,1.0,,
181,,rl_choice,,html-keyboard-response,181,239259,0.0-1.0-296.0,0,0,31921,,125.0,,,68.0,42.0,42.0,2.0,hard,1500.0,1000.0,0.0,40.0,60.0,20.0,80.0,B,A,/static/Simple_RL/Stimuli/Fractals_stims/B.jpg,/static/Simple_RL/Stimuli/Fractals_stims/A.jpg,1.0,40.0,60.0,20.0,80.0,B,A,11.625,0.125,0.0,
182,,rl_choice_confirmation,,html-keyboard-response,182,240638,0.0-1.0-297.0-0.0,0,0,31921,,,,,,42.0,,,,,,,,,,,,,,,,,,,,,,13.0,1.375,,
183,,isi,,html-keyboard-response,183,240742,0.0-1.0-299.0,0,0,31921,,,,,,,,,,,,,,,,,,,,,,,,,,,,14.0,1.0,,
184,,feedback,,html-keyboard-response,184,241747,0.0-1.0-300.0-0.0,0,0,31921,,,,,,42.0,,,,,,,,,,,,,,,,,,,,,,15.0,1.0,,
185,,iti,,html-keyboard-response,185,241851,0.0-1.0-301.0,0,0,31921,,,,,,,,,,,,,,,,,,,,,,,,,,,,16.5,1.5,,
186,,rl_choice,,html-keyboard-response,186,241879,0.0-1.0-303.0,0,0,31921,,26.0,,,68.0,43.0,43.0,2.0,hard,1000.0,2000.0,0.0,40.0,60.0,20.0,80.0,B,A,/static/Simple_RL/Stimuli/Fractals_stims/B.jpg,/static/Simple_RL/Stimuli/Fractals_stims/A.jpg,1.0,40.0,60.0,20.0,80.0,B,A,16.526,0.026000000000000002,0.0,
187,,rl_choice_confirmation,,html-keyboard-response,187,243355,0.0-1.0-304.0-0.0,0,0,31921,,,,,,43.0,,,,,,,,,,,,,,,,,,,,,,18.0,1.474,,
188,,isi,,html-keyboard-response,188,243457,0.0-1.0-306.0,0,0,31921,,,,,,,,,,,,,,,,,,,,,,,,,,,,20.0,2.0,,
189,,feedback,,html-keyboard-response,189,244462,0.0-1.0-307.0-0.0,0,0,31921,,,,,,43.0,,,,,,,,,,,,,,,,,,,,,,21.0,1.0,,
190,,iti,,html-keyboard-response,190,244565,0.0-1.0-308.0,0,0,31921,,,,,,,,,,,,,,,,,,,,,,,,,,,,22.0,1.0,,
191,,rl_choice,,html-keyboard-response,191,244641,0.0-1.0-310.0,0,0,31921,,75.0,,,68.0,44.0,44.0,2.0,hard,1000.0,1000.0,0.0,40.0,60.0,40.0,40.0,B,A,/static/Simple_RL/Stimuli/Fractals_stims/B.jpg,/static/Simple_RL/Stimuli/Fractals_stims/A.jpg,1.0,40.0,60.0,40.0,40.0,B,A,22.075,0.075,0.0,
192,,rl_choice_confirmation,,html-keyboard-response,192,246070,0.0-1.0-311.0-0.0,0,0,31921,,,,,,44.0,,,,,,,,,,,,,,,,,,,,,,23.5,1.425,,
193,,isi,,html-keyboard-response,193,246176,0.0-1.0-313.0,0,0,31921,,,,,,,,,,,,,,,,,,,,,,,,,,,,24.5,1.0,,
194,,feedback,,html-keyboard-response,194,247180,0.0-1.0-314.0-0.0,0,0,31921,,,,,,44.0,,,,,,,,,,,,,,,,,,,,,,25.5,1.0,,
195,,iti,,html-keyboard-response,195,247283,0.0-1.0-315.0,0,0,31921,,,,,,,,,,,,,,,,,,,,,,,,,,,,26.5,1.0,,
196,,rl_choice,,html-keyboard-response,196,248787,0.0-1.0-317.0,0,0,31921,,,,,,45.0,45.0,2.0,hard,2000.0,1500.0,0.0,40.0,60.0,20.0,40.0,B,A,/static/Simple_RL/Stimuli/Fractals_stims/B.jpg,/static/Simple_RL/Stimuli/Fractals_stims/A.jpg,,,,,,,,28.0,1.5,1.0,
197,,rl_choice_warning,,html-keyboard-response,197,249792,0.0-1.0-319.0-0.0,1,0,31921,,,,,,,,,,,,,,,,,,,,,,,,,,,,29.0,1.0,,
198,,isi,,html-keyboard-response,198,249897,0.0-1.0-320.0,0,0,31921,,,,,,,,,,,,,,,,,,,,,,,,,,,,30.5,1.5,,
199,,iti,,html-keyboard-response,199,250001,0.0-1.0-322.0,0,0,31921,,,,,,,,,,,,,,,,,,,,,,,,,,,,32.5,2.0,,
200,,rl_choice,,html-keyboard-response,200,250198,0.0-1.0-324.0,0,0,31921,,195.0,,,75.0,46.0,46.0,2.0,easy,1500.0,3000.0,0.0,20.0,80.0,0.0,80.0,D,C,/static/Simple_RL/Stimuli/Fractals_stims/D.jpg,/static/Simple_RL/Stimuli/Fractals_stims/C.jpg,0.0,80.0,20.0,80.0,0.0,C,D,32.695,0.195,0.0,
201,,rl_choice_confirmation,,html-keyboard-response,201,251509,0.0-1.0-325.0-0.0,0,0,31921,,,,,,46.0,,,,,,,,,,,,,,,,,,,,,,34.0,1.305,,
202,,isi,,html-keyboard-response,202,251614,0.0-1.0-327.0,0,0,31921,,,,,,,,,,,,,,,,,,,,,,,,,,,,37.0,3.0,,
203,,feedback,,html-keyboard-response,203,252620,0.0-1.0-328.0-0.0,0,0,31921,,,,,,46.0,,,,,,,,,,,,,,,,,,,,,,38.0,1.0,,
204,,iti,,html-keyboard-response,204,252726,0.0-1.0-329.0,0,0,31921,,,,,,,,,,,,,,,,,,,,,,,,,,,,39.5,1.5,,
205,,rl_choice,,html-keyboard-response,205,252829,0.0-1.0-331.0,0,0,31921,,102.0,,,75.0,47.0,47.0,2.0,easy,1500.0,1000.0,0.0,20.0,80.0,20.0,80.0,D,C,/static/Simple_RL/Stimuli/Fractals_stims/D.jpg,/static/Simple_RL/Stimuli/Fractals_stims/C.jpg,0.0,80.0,20.0,80.0,20.0,C,D,39.602,0.102,0.0,
206,,rl_choice_confirmation,,html-keyboard-response,206,254233,0.0-1.0-332.0-0.0,0,0,31921,,,,,,47.0,,,,,,,,,,,,,,,,,,,,,,41.0,1.3980000000000001,,
207,,isi,,html-keyboard-response,207,254336,0.0-1.0-334.0,0,0,31921,,,,,,,,,,,,,,,,,,,,,,,,,,,,42.0,1.0,,
208,,feedback,,html-keyboard-response,208,255342,0.0-1.0-335.0-0.0,0,0,31921,,,,,,47.0,,,,,,,,,,,,,,,,,,,,,,43.0,1.0,,
209,,iti,,html-keyboard-response,209,255446,0.0-1.0-336.0,0,0,31921,,,,,,,,,,,,,,,,,,,,,,,,,,,,44.5,1.5,,
210,,rl_choice,,html-keyboard-response,210,256035,0.0-1.0-338.0,0,0,31921,,588.0,,,75.0,48.0,48.0,2.0,easy,2000.0,1000.0,1.0,80.0,20.0,80.0,20.0,C,D,/static/Simple_RL/Stimuli/Fractals_stims/C.jpg,/static/Simple_RL/Stimuli/Fractals_stims/D.jpg,0.0,20.0,80.0,20.0,80.0,D,C,45.088,0.588,0.0,
211,,rl_choice_confirmation,,html-keyboard-response,211,256953,0.0-1.0-339.0-0.0,0,0,31921,,,,,,48.0,,,,,,,,,,,,,,,,,,,,,,46.0,0.912,,
212,,isi,,html-keyboard-response,212,257057,0.0-1.0-341.0,0,0,31921,,,,,,,,,,,,,,,,,,,,,,,,,,,,47.0,1.0,,
213,,feedback,,html-keyboard-response,213,258062,0.0-1.0-342.0-0.0,0,0,31921,,,,,,48.0,,,,,,,,,,,,,,,,,,,,,,48.0,1.0,,
214,,iti,,html-keyboard-response,214,258166,0.0-1.0-343.0,0,0,31921,,,,,,,,,,,,,,,,,,,,,,,,,,,,50.0,2.0,,
215,,rl_choice,,html-keyboard-response,215,258405,0.0-1.0-345.0,0,0,31921,,238.0,,,75.0,49.0,49.0,2.0,hard,1500.0,2000.0,0.0,40.0,60.0,60.0,60.0,B,A,/static/Simple_RL/Stimuli/Fractals_stims/B.jpg,/static/Simple_RL/Stimuli/Fractals_stims/A.jpg,0.0,60.0,40.0,60.0,60.0,A,B,50.238,0.23800000000000002,0.0,
216,,rl_choice_confirmation,,html-keyboard-response,216,259673,0.0-1.0-346.0-0.0,0,0,31921,,,,,,49.0,,,,,,,,,,,,,,,,,,,,,,51.5,1.262,,
217,,isi,,html-keyboard-response,217,259777,0.0-1.0-348.0,0,0,31921,,,,,,,,,,,,,,,,,,,,,,,,,,,,53.5,2.0,,
218,,feedback,,html-keyboard-response,218,260782,0.0-1.0-349.0-0.0,0,0,31921,,,,,,49.0,,,,,,,,,,,,,,,,,,,,,,54.5,1.0,,
219,,iti,,html-keyboard-response,219,260886,0.0-1.0-350.0,0,0,31921,,,,,,,,,,,,,,,,,,,,,,,,,,,,56.0,1.5,,
220,,rl_choice,,html-keyboard-response,220,262392,0.0-1.0-352.0,0,0,31921,,,,,,50.0,50.0,2.0,easy,1000.0,3500.0,0.0,20.0,80.0,0.0,100.0,D,C,/static/Simple_RL/Stimuli/Fractals_stims/D.jpg,/static/Simple_RL/Stimuli/Fractals_stims/C.jpg,,,,,,,,57.5,1.5,1.0,
221,,rl_choice_warning,,html-keyboard-response,221,263398,0.0-1.0-354.0-0.0,1,0,31921,,,,,,,,,,,,,,,,,,,,,,,,,,,,58.5,1.0,,
222,,isi,,html-keyboard-response,222,263502,0.0-1.0-355.0,0,0,31921,,,,,,,,,,,,,,,,,,,,,,,,,,,,62.0,3.5,,
223,,iti,,html-keyboard-response,223,263606,0.0-1.0-357.0,0,0,31921,,,,,,,,,,,,,,,,,,,,,,,,,,,,63.0,1.0,,
224,,rl_choice,,html-keyboard-response,224,265113,0.0-1.0-359.0,0,0,31921,,,,,,51.0,51.0,2.0,easy,1500.0,1000.0,1.0,80.0,20.0,60.0,20.0,C,D,/static/Simple_RL/Stimuli/Fractals_stims/C.jpg,/static/Simple_RL/Stimuli/Fractals_stims/D.jpg,,,,,,,,64.5,1.5,1.0,
225,,rl_choice_warning,,html-keyboard-response,225,266118,0.0-1.0-361.0-0.0,1,0,31921,,,,,,,,,,,,,,,,,,,,,,,,,,,,65.5,1.0,,
226,,isi,,html-keyboard-response,226,266222,0.0-1.0-362.0,0,0,31921,,,,,,,,,,,,,,,,,,,,,,,,,,,,66.5,1.0,,
227,,iti,,html-keyboard-response,227,266326,0.0-1.0-364.0,0,0,31921,,,,,,,,,,,,,,,,,,,,,,,,,,,,68.0,1.5,,
228,,rl_choice,,html-keyboard-response,228,267832,0.0-1.0-366.0,0,0,31921,,,,,,52.0,52.0,2.0,hard,2000.0,1500.0,0.0,40.0,60.0,20.0,80.0,B,A,/static/Simple_RL/Stimuli/Fractals_stims/B.jpg,/static/Simple_RL/Stimuli/Fractals_stims/A.jpg,,,,,,,,69.5,1.5,1.0,
229,,rl_choice_warning,,html-keyboard-response,229,268837,0.0-1.0-368.0-0.0,1,0,31921,,,,,,,,,,,,,,,,,,,,,,,,,,,,70.5,1.0,,
230,,isi,,html-keyboard-response,230,268943,0.0-1.0-369.0,0,0,31921,,,,,,,,,,,,,,,,,,,,,,,,,,,,72.0,1.5,,
231,,iti,,html-keyboard-response,231,269046,0.0-1.0-371.0,0,0,31921,,,,,,,,,,,,,,,,,,,,,,,,,,,,74.0,2.0,,
232,,rl_choice,,html-keyboard-response,232,270552,0.0-1.0-373.0,0,0,31921,,,,,,53.0,53.0,2.0,hard,3000.0,1500.0,0.0,40.0,60.0,20.0,40.0,B,A,/static/Simple_RL/Stimuli/Fractals_stims/B.jpg,/static/Simple_RL/Stimuli/Fractals_stims/A.jpg,,,,,,,,75.5,1.5,1.0,
233,,rl_choice_warning,,html-keyboard-response,233,271556,0.0-1.0-375.0-0.0,1,0,31921,,,,,,,,,,,,,,,,,,,,,,,,,,,,76.5,1.0,,
234,,isi,,html-keyboard-response,234,271660,0.0-1.0-376.0,0,0,31921,,,,,,,,,,,,,,,,,,,,,,,,,,,,78.0,1.5,,
235,,iti,,html-keyboard-response,235,271766,0.0-1.0-378.0,0,0,31921,,,,,,,,,,,,,,,,,,,,,,,,,,,,81.0,3.0,,
236,,rl_choice,,html-keyboard-response,236,273273,0.0-1.0-380.0,0,0,31921,,,,,,54.0,54.0,2.0,easy,3000.0,1500.0,0.0,20.0,80.0,20.0,100.0,D,C,/static/Simple_RL/Stimuli/Fractals_stims/D.jpg,/static/Simple_RL/Stimuli/Fractals_stims/C.jpg,,,,,,,,82.5,1.5,1.0,
237,,rl_choice_warning,,html-keyboard-response,237,274278,0.0-1.0-382.0-0.0,1,0,31921,,,,,,,,,,,,,,,,,,,,,,,,,,,,83.5,1.0,,
238,,isi,,html-keyboard-response,238,274382,0.0-1.0-383.0,0,0,31921,,,,,,,,,,,,,,,,,,,,,,,,,,,,85.0,1.5,,
239,,iti,,html-keyboard-response,239,274486,0.0-1.0-385.0,0,0,31921,,,,,,,,,,,,,,,,,,,,,,,,,,,,88.0,3.0,,
240,,rl_choice,,html-keyboard-response,240,275993,0.0-1.0-387.0,0,0,31921,,,,,,55.0,55.0,2.0,easy,1500.0,1500.0,1.0,80.0,20.0,80.0,20.0,C,D,/static/Simple_RL/Stimuli/Fractals_stims/C.jpg,/static/Simple_RL/Stimuli/Fractals_stims/D.jpg,,,,,,,,89.5,1.5,1.0,
241,,rl_choice_warning,,html-keyboard-response,241,276998,0.0-1.0-389.0-0.0,1,0,31921,,,,,,,,,,,,,,,,,,,,,,,,,,,,90.5,1.0,,
242,,isi,,html-keyboard-response,242,277102,0.0-1.0-390.0,0,0,31921,,,,,,,,,,,,,,,,,,,,,,,,,,,,92.0,1.5,,
243,,iti,,html-keyboard-response,243,277206,0.0-1.0-392.0,0,0,31921,,,,,,,,,,,,,,,,,,,,,,,,,,,,93.5,1.5,,
244,,rl_choice,,html-keyboard-response,244,278710,0.0-1.0-394.0,0,0,31921,,,,,,56.0,56.0,2.0,easy,2000.0,2000.0,0.0,20.0,80.0,40.0,80.0,D,C,/static/Simple_RL/Stimuli/Fractals_stims/D.jpg,/static/Simple_RL/Stimuli/Fractals_stims/C.jpg,,,,,,,,95.0,1.5,1.0,
245,,rl_choice_warning,,html-keyboard-response,245,279716,0.0-1.0-396.0-0.0,1,0,31921,,,,,,,,,,,,,,,,,,,,,,,,,,,,96.0,1.0,,
246,,isi,,html-keyboard-response,246,279820,0.0-1.0-397.0,0,0,31921,,,,,,,,,,,,,,,,,,,,,,,,,,,,98.0,2.0,,
247,,iti,,html-keyboard-response,247,279923,0.0-1.0-399.0,0,0,31921,,,,,,,,,,,,,,,,,,,,,,,,,,,,100.0,2.0,,
248,,rl_choice,,html-keyboard-response,248,281427,0.0-1.0-401.0,0,0,31921,,,,,,57.0,57.0,2.0,easy,1000.0,1000.0,0.0,20.0,80.0,20.0,80.0,D,C,/static/Simple_RL/Stimuli/Fractals_stims/D.jpg,/static/Simple_RL/Stimuli/Fractals_stims/C.jpg,,,,,,,,101.5,1.5,1.0,
249,,rl_choice_warning,,html-keyboard-response,249,282433,0.0-1.0-403.0-0.0,1,0,31921,,,,,,,,,,,,,,,,,,,,,,,,,,,,102.5,1.0,,
250,,isi,,html-keyboard-response,250,282537,0.0-1.0-404.0,0,0,31921,,,,,,,,,,,,,,,,,,,,,,,,,,,,103.5,1.0,,
251,,iti,,html-keyboard-response,251,282643,0.0-1.0-406.0,0,0,31921,,,,,,,,,,,,,,,,,,,,,,,,,,,,104.5,1.0,,
252,,rl_choice,,html-keyboard-response,252,284148,0.0-1.0-408.0,0,0,31921,,,,,,58.0,58.0,2.0,easy,1000.0,1000.0,0.0,20.0,80.0,20.0,60.0,D,C,/static/Simple_RL/Stimuli/Fractals_stims/D.jpg,/static/Simple_RL/Stimuli/Fractals_stims/C.jpg,,,,,,,,106.0,1.5,1.0,
253,,rl_choice_warning,,html-keyboard-response,253,285153,0.0-1.0-410.0-0.0,1,0,31921,,,,,,,,,,,,,,,,,,,,,,,,,,,,107.0,1.0,,
254,,isi,,html-keyboard-response,254,285257,0.0-1.0-411.0,0,0,31921,,,,,,,,,,,,,,,,,,,,,,,,,,,,108.0,1.0,,
255,,iti,,html-keyboard-response,255,285361,0.0-1.0-413.0,0,0,31921,,,,,,,,,,,,,,,,,,,,,,,,,,,,109.0,1.0,,
256,,rl_choice,,html-keyboard-response,256,286865,0.0-1.0-415.0,0,0,31921,,,,,,59.0,59.0,2.0,hard,1500.0,1000.0,1.0,60.0,40.0,80.0,40.0,A,B,/static/Simple_RL/Stimuli/Fractals_stims/A.jpg,/static/Simple_RL/Stimuli/Fractals_stims/B.jpg,,,,,,,,110.5,1.5,1.0,
257,,rl_choice_warning,,html-keyboard-response,257,287870,0.0-1.0-417.0-0.0,1,0,31921,,,,,,,,,,,,,,,,,,,,,,,,,,,,111.5,1.0,,
258,,isi,,html-keyboard-response,258,287976,0.0-1.0-418.0,0,0,31921,,,,,,,,,,,,,,,,,,,,,,,,,,,,112.5,1.0,,
259,,iti,,html-keyboard-response,259,288081,0.0-1.0-420.0,0,0,31921,,,,,,,,,,,,,,,,,,,,,,,,,,,,114.0,1.5,,
260,,rl_choice,,html-keyboard-response,260,289588,0.0-1.0-422.0,0,0,31921,,,,,,60.0,60.0,2.0,hard,1500.0,1000.0,1.0,60.0,40.0,40.0,40.0,A,B,/static/Simple_RL/Stimuli/Fractals_stims/A.jpg,/static/Simple_RL/Stimuli/Fractals_stims/B.jpg,,,,,,,,115.5,1.5,1.0,
261,,rl_choice_warning,,html-keyboard-response,261,290593,0.0-1.0-424.0-0.0,1,0,31921,,,,,,,,,,,,,,,,,,,,,,,,,,,,116.5,1.0,,
262,,isi,,html-keyboard-response,262,290697,0.0-1.0-425.0,0,0,31921,,,,,,,,,,,,,,,,,,,,,,,,,,,,117.5,1.0,,
263,,iti,,html-keyboard-response,263,290801,0.0-1.0-427.0,0,0,31921,,,,,,,,,,,,,,,,,,,,,,,,,,,,119.0,1.5,,
264,,rl_choice,,html-keyboard-response,264,292307,0.0-1.0-429.0,0,0,31921,,,,,,61.0,61.0,2.0,hard,1000.0,1000.0,1.0,60.0,40.0,40.0,60.0,A,B,/static/Simple_RL/Stimuli/Fractals_stims/A.jpg,/static/Simple_RL/Stimuli/Fractals_stims/B.jpg,,,,,,,,120.5,1.5,1.0,
265,,rl_choice_warning,,html-keyboard-response,265,293313,0.0-1.0-431.0-0.0,1,0,31921,,,,,,,,,,,,,,,,,,,,,,,,,,,,121.5,1.0,,
266,,isi,,html-keyboard-response,266,293417,0.0-1.0-432.0,0,0,31921,,,,,,,,,,,,,,,,,,,,,,,,,,,,122.5,1.0,,
267,,iti,,html-keyboard-response,267,293522,0.0-1.0-434.0,0,0,31921,,,,,,,,,,,,,,,,,,,,,,,,,,,,123.5,1.0,,
268,,rl_choice,,html-keyboard-response,268,295027,0.0-1.0-436.0,0,0,31921,,,,,,62.0,62.0,2.0,hard,1000.0,3000.0,1.0,60.0,40.0,60.0,20.0,A,B,/static/Simple_RL/Stimuli/Fractals_stims/A.jpg,/static/Simple_RL/Stimuli/Fractals_stims/B.jpg,,,,,,,,125.0,1.5,1.0,
269,,rl_choice_warning,,html-keyboard-response,269,296032,0.0-1.0-438.0-0.0,1,0,31921,,,,,,,,,,,,,,,,,,,,,,,,,,,,126.0,1.0,,
270,,isi,,html-keyboard-response,270,296137,0.0-1.0-439.0,0,0,31921,,,,,,,,,,,,,,,,,,,,,,,,,,,,129.0,3.0,,
271,,iti,,html-keyboard-response,271,296243,0.0-1.0-441.0,0,0,31921,,,,,,,,,,,,,,,,,,,,,,,,,,,,130.0,1.0,,
272,,rl_choice,,html-keyboard-response,272,297747,0.0-1.0-443.0,0,0,31921,,,,,,63.0,63.0,2.0,easy,2000.0,1500.0,0.0,20.0,80.0,20.0,60.0,D,C,/static/Simple_RL/Stimuli/Fractals_stims/D.jpg,/static/Simple_RL/Stimuli/Fractals_stims/C.jpg,,,,,,,,131.5,1.5,1.0,
273,,rl_choice_warning,,html-keyboard-response,273,298753,0.0-1.0-445.0-0.0,1,0,31921,,,,,,,,,,,,,,,,,,,,,,,,,,,,132.5,1.0,,
274,,isi,,html-keyboard-response,274,298857,0.0-1.0-446.0,0,0,31921,,,,,,,,,,,,,,,,,,,,,,,,,,,,134.0,1.5,,
275,,iti,,html-keyboard-response,275,298961,0.0-1.0-448.0,0,0,31921,,,,,,,,,,,,,,,,,,,,,,,,,,,,136.0,2.0,,
276,,rl_choice,,html-keyboard-response,276,300465,0.0-1.0-450.0,0,0,31921,,,,,,64.0,64.0,2.0,easy,2000.0,1000.0,1.0,80.0,20.0,100.0,20.0,C,D,/static/Simple_RL/Stimuli/Fractals_stims/C.jpg,/static/Simple_RL/Stimuli/Fractals_stims/D.jpg,,,,,,,,137.5,1.5,1.0,
277,,rl_choice_warning,,html-keyboard-response,277,301470,0.0-1.0-452.0-0.0,1,0,31921,,,,,,,,,,,,,,,,,,,,,,,,,,,,138.5,1.0,,
278,,isi,,html-keyboard-response,278,301576,0.0-1.0-453.0,0,0,31921,,,,,,,,,,,,,,,,,,,,,,,,,,,,139.5,1.0,,
279,,iti,,html-keyboard-response,279,301681,0.0-1.0-455.0,0,0,31921,,,,,,,,,,,,,,,,,,,,,,,,,,,,141.5,2.0,,
280,,rl_choice,,html-keyboard-response,280,303185,0.0-1.0-457.0,0,0,31921,,,,,,65.0,65.0,2.0,hard,2000.0,1500.0,1.0,60.0,40.0,60.0,40.0,A,B,/static/Simple_RL/Stimuli/Fractals_stims/A.jpg,/static/Simple_RL/Stimuli/Fractals_stims/B.jpg,,,,,,,,143.0,1.5,1.0,
281,,rl_choice_warning,,html-keyboard-response,281,304190,0.0-1.0-459.0-0.0,1,0,31921,,,,,,,,,,,,,,,,,,,,,,,,,,,,144.0,1.0,,
282,,isi,,html-keyboard-response,282,304294,0.0-1.0-460.0,0,0,31921,,,,,,,,,,,,,,,,,,,,,,,,,,,,145.5,1.5,,
283,,iti,,html-keyboard-response,283,304398,0.0-1.0-462.0,0,0,31921,,,,,,,,,,,,,,,,,,,,,,,,,,,,147.5,2.0,,
284,,rl_choice,,html-keyboard-response,284,305905,0.0-1.0-464.0,0,0,31921,,,,,,66.0,66.0,2.0,hard,3000.0,1000.0,1.0,60.0,40.0,60.0,20.0,A,B,/static/Simple_RL/Stimuli/Fractals_stims/A.jpg,/static/Simple_RL/Stimuli/Fractals_stims/B.jpg,,,,,,,,149.0,1.5,1.0,
285,,rl_choice_warning,,html-keyboard-response,285,306910,0.0-1.0-466.0-0.0,1,0,31921,,,,,,,,,,,,,,,,,,,,,,,,,,,,150.0,1.0,,
286,,isi,,html-keyboard-response,286,307014,0.0-1.0-467.0,0,0,31921,,,,,,,,,,,,,,,,,,,,,,,,,,,,151.0,1.0,,
287,,iti,,html-keyboard-response,287,307120,0.0-1.0-469.0,0,0,31921,,,,,,,,,,,,,,,,,,,,,,,,,,,,154.0,3.0,,
288,,rl_choice,,html-keyboard-response,288,308626,0.0-1.0-471.0,0,0,31921,,,,,,67.0,67.0,2.0,easy,3500.0,2000.0,1.0,80.0,20.0,60.0,40.0,C,D,/static/Simple_RL/Stimuli/Fractals_stims/C.jpg,/static/Simple_RL/Stimuli/Fractals_stims/D.jpg,,,,,,,,155.5,1.5,1.0,
289,,rl_choice_warning,,html-keyboard-response,289,309629,0.0-1.0-473.0-0.0,1,0,31921,,,,,,,,,,,,,,,,,,,,,,,,,,,,156.5,1.0,,
290,,isi,,html-keyboard-response,290,309734,0.0-1.0-474.0,0,0,31921,,,,,,,,,,,,,,,,,,,,,,,,,,,,158.5,2.0,,
291,,iti,,html-keyboard-response,291,309838,0.0-1.0-476.0,0,0,31921,,,,,,,,,,,,,,,,,,,,,,,,,,,,162.0,3.5,,
292,,rl_choice,,html-keyboard-response,292,310185,0.0-1.0-478.0,0,0,31921,,346.0,,,68.0,68.0,68.0,2.0,easy,3000.0,2000.0,0.0,20.0,80.0,40.0,80.0,D,C,/static/Simple_RL/Stimuli/Fractals_stims/D.jpg,/static/Simple_RL/Stimuli/Fractals_stims/C.jpg,1.0,20.0,80.0,40.0,80.0,D,C,162.346,0.34600000000000003,0.0,
293,,rl_choice_confirmation,,html-keyboard-response,293,311345,0.0-1.0-479.0-0.0,0,0,31921,,,,,,68.0,,,,,,,,,,,,,,,,,,,,,,163.5,1.1540000000000001,,
294,,isi,,html-keyboard-response,294,311448,0.0-1.0-481.0,0,0,31921,,,,,,,,,,,,,,,,,,,,,,,,,,,,165.5,2.0,,
295,,feedback,,html-keyboard-response,295,312454,0.0-1.0-482.0-0.0,0,0,31921,,,,,,68.0,,,,,,,,,,,,,,,,,,,,,,166.5,1.0,,
296,,iti,,html-keyboard-response,296,312559,0.0-1.0-483.0,0,0,31921,,,,,,,,,,,,,,,,,,,,,,,,,,,,169.5,3.0,,
297,,rl_choice,,html-keyboard-response,297,314065,0.0-1.0-485.0,0,0,31921,,,,,,69.0,69.0,2.0,hard,2000.0,1000.0,1.0,60.0,40.0,40.0,60.0,A,B,/static/Simple_RL/Stimuli/Fractals_stims/A.jpg,/static/Simple_RL/Stimuli/Fractals_stims/B.jpg,,,,,,,,171.0,1.5,1.0,
298,,rl_choice_warning,,html-keyboard-response,298,315070,0.0-1.0-487.0-0.0,1,0,31921,,,,,,,,,,,,,,,,,,,,,,,,,,,,172.0,1.0,,
299,,isi,,html-keyboard-response,299,315176,0.0-1.0-488.0,0,0,31921,,,,,,,,,,,,,,,,,,,,,,,,,,,,173.0,1.0,,
300,,iti,,html-keyboard-response,300,315281,0.0-1.0-490.0,0,0,31921,,,,,,,,,,,,,,,,,,,,,,,,,,,,175.0,2.0,,
301,,rl_choice,,html-keyboard-response,301,316788,0.0-1.0-492.0,0,0,31921,,,,,,70.0,70.0,2.0,hard,1000.0,3500.0,1.0,60.0,40.0,80.0,40.0,A,B,/static/Simple_RL/Stimuli/Fractals_stims/A.jpg,/static/Simple_RL/Stimuli/Fractals_stims/B.jpg,,,,,,,,176.5,1.5,1.0,
302,,rl_choice_warning,,html-keyboard-response,302,317793,0.0-1.0-494.0-0.0,1,0,31921,,,,,,,,,,,,,,,,,,,,,,,,,,,,177.5,1.0,,
303,,isi,,html-keyboard-response,303,317897,0.0-1.0-495.0,0,0,31921,,,,,,,,,,,,,,,,,,,,,,,,,,,,181.0,3.5,,
304,,iti,,html-keyboard-response,304,318001,0.0-1.0-497.0,0,0,31921,,,,,,,,,,,,,,,,,,,,,,,,,,,,182.0,1.0,,
305,,rl_choice,,html-keyboard-response,305,319505,0.0-1.0-499.0,0,0,31921,,,,,,71.0,71.0,2.0,hard,1000.0,1500.0,1.0,60.0,40.0,40.0,40.0,A,B,/static/Simple_RL/Stimuli/Fractals_stims/A.jpg,/static/Simple_RL/Stimuli/Fractals_stims/B.jpg,,,,,,,,183.5,1.5,1.0,
306,,rl_choice_warning,,html-keyboard-response,306,320510,0.0-1.0-501.0-0.0,1,0,31921,,,,,,,,,,,,,,,,,,,,,,,,,,,,184.5,1.0,,
307,,isi,,html-keyboard-response,307,320616,0.0-1.0-502.0,0,0,31921,,,,,,,,,,,,,,,,,,,,,,,,,,,,186.0,1.5,,
308,,iti,,html-keyboard-response,308,320721,0.0-1.0-504.0,0,0,31921,,,,,,,,,,,,,,,,,,,,,,,,,,,,187.0,1.0,,
309,,rl_choice,,html-keyboard-response,309,320800,0.0-1.0-506.0,0,0,31921,,77.0,,,75.0,72.0,72.0,2.0,easy,1000.0,1500.0,0.0,20.0,80.0,0.0,80.0,D,C,/static/Simple_RL/Stimuli/Fractals_stims/D.jpg,/static/Simple_RL/Stimuli/Fractals_stims/C.jpg,0.0,80.0,20.0,80.0,0.0,C,D,187.077,0.077,0.0,
310,,rl_choice_confirmation,,html-keyboard-response,310,322227,0.0-1.0-507.0-0.0,0,0,31921,,,,,,72.0,,,,,,,,,,,,,,,,,,,,,,188.5,1.423,,
311,,isi,,html-keyboard-response,311,322331,0.0-1.0-509.0,0,0,31921,,,,,,,,,,,,,,,,,,,,,,,,,,,,190.0,1.5,,
312,,feedback,,html-keyboard-response,312,323334,0.0-1.0-510.0-0.0,0,0,31921,,,,,,72.0,,,,,,,,,,,,,,,,,,,,,,191.0,1.0,,
313,,iti,,html-keyboard-response,313,323438,0.0-1.0-511.0,0,0,31921,,,,,,,,,,,,,,,,,,,,,,,,,,,,192.0,1.0,,
314,,rl_choice,,html-keyboard-response,314,323498,0.0-1.0-513.0,0,0,31921,,59.0,,,75.0,73.0,73.0,2.0,easy,1000.0,3000.0,1.0,80.0,20.0,60.0,0.0,C,D,/static/Simple_RL/Stimuli/Fractals_stims/C.jpg,/static/Simple_RL/Stimuli/Fractals_stims/D.jpg,0.0,20.0,80.0,0.0,60.0,D,C,192.05900000000003,0.059000000000000004,0.0,
315,,rl_choice_confirmation,,html-keyboard-response,315,324944,0.0-1.0-514.0-0.0,0,0,31921,,,,,,73.0,,,,,,,,,,,,,,,,,,,,,,193.5,1.4409999999999998,,
316,,isi,,html-keyboard-response,316,325049,0.0-1.0-516.0,0,0,31921,,,,,,,,,,,,,,,,,,,,,,,,,,,,196.5,3.0,,
317,,feedback,,html-keyboard-response,317,326051,0.0-1.0-517.0-0.0,0,0,31921,,,,,,73.0,,,,,,,,,,,,,,,,,,,,,,197.5,1.0,,
318,,iti,,html-keyboard-response,318,326153,0.0-1.0-518.0,0,0,31921,,,,,,,,,,,,,,,,,,,,,,,,,,,,198.5,1.0,,
319,,rl_choice,,html-keyboard-response,319,326696,0.0-1.0-520.0,0,0,31921,,542.0,,,68.0,74.0,74.0,2.0,hard,3500.0,2000.0,1.0,60.0,40.0,60.0,60.0,A,B,/static/Simple_RL/Stimuli/Fractals_stims/A.jpg,/static/Simple_RL/Stimuli/Fractals_stims/B.jpg,1.0,60.0,40.0,60.0,60.0,A,B,199.042,0.542,0.0,
320,,rl_choice_confirmation,,html-keyboard-response,320,327656,0.0-1.0-521.0-0.0,0,0,31921,,,,,,74.0,,,,,,,,,,,,,,,,,,,,,,200.0,0.958,,
321,,isi,,html-keyboard-response,321,327760,0.0-1.0-523.0,0,0,31921,,,,,,,,,,,,,,,,,,,,,,,,,,,,202.0,2.0,,
322,,feedback,,html-keyboard-response,322,328764,0.0-1.0-524.0-0.0,0,0,31921,,,,,,74.0,,,,,,,,,,,,,,,,,,,,,,203.0,1.0,,
323,,iti,,html-keyboard-response,323,328868,0.0-1.0-525.0,0,0,31921,,,,,,,,,,,,,,,,,,,,,,,,,,,,206.5,3.5,,
324,,rl_choice,,html-keyboard-response,324,329477,0.0-1.0-527.0,0,0,31921,,607.0,,,75.0,75.0,75.0,2.0,hard,1500.0,3000.0,0.0,40.0,60.0,60.0,80.0,B,A,/static/Simple_RL/Stimuli/Fractals_stims/B.jpg,/static/Simple_RL/Stimuli/Fractals_stims/A.jpg,0.0,60.0,40.0,80.0,60.0,A,B,207.107,0.607,0.0,
325,,rl_choice_confirmation,,html-keyboard-response,325,330376,0.0-1.0-528.0-0.0,0,0,31921,,,,,,75.0,,,,,,,,,,,,,,,,,,,,,,208.0,0.893,,
326,,isi,,html-keyboard-response,326,330480,0.0-1.0-530.0,0,0,31921,,,,,,,,,,,,,,,,,,,,,,,,,,,,211.0,3.0,,
327,,feedback,,html-keyboard-response,327,331482,0.0-1.0-531.0-0.0,0,0,31921,,,,,,75.0,,,,,,,,,,,,,,,,,,,,,,212.0,1.0,,
328,,iti,,html-keyboard-response,328,331583,0.0-1.0-532.0,0,0,31921,,,,,,,,,,,,,,,,,,,,,,,,,,,,213.5,1.5,,
329,,rl_choice,,html-keyboard-response,329,331755,0.0-1.0-534.0,0,0,31921,,171.0,,,75.0,76.0,76.0,2.0,easy,1000.0,1000.0,0.0,20.0,80.0,20.0,80.0,D,C,/static/Simple_RL/Stimuli/Fractals_stims/D.jpg,/static/Simple_RL/Stimuli/Fractals_stims/C.jpg,0.0,80.0,20.0,80.0,20.0,C,D,213.671,0.171,0.0,
330,,rl_choice_confirmation,,html-keyboard-response,330,333089,0.0-1.0-535.0-0.0,0,0,31921,,,,,,76.0,,,,,,,,,,,,,,,,,,,,,,215.0,1.329,,
331,,isi,,html-keyboard-response,331,333193,0.0-1.0-537.0,0,0,31921,,,,,,,,,,,,,,,,,,,,,,,,,,,,216.0,1.0,,
332,,feedback,,html-keyboard-response,332,334198,0.0-1.0-538.0-0.0,0,0,31921,,,,,,76.0,,,,,,,,,,,,,,,,,,,,,,217.0,1.0,,
333,,iti,,html-keyboard-response,333,334302,0.0-1.0-539.0,0,0,31921,,,,,,,,,,,,,,,,,,,,,,,,,,,,218.0,1.0,,
334,,rl_choice,,html-keyboard-response,334,334404,0.0-1.0-541.0,0,0,31921,,100.0,,,68.0,77.0,77.0,2.0,hard,1000.0,1000.0,0.0,40.0,60.0,60.0,40.0,B,A,/static/Simple_RL/Stimuli/Fractals_stims/B.jpg,/static/Simple_RL/Stimuli/Fractals_stims/A.jpg,1.0,40.0,60.0,60.0,40.0,B,A,218.1,0.1,0.0,
335,,rl_choice_confirmation,,html-keyboard-response,335,335809,0.0-1.0-542.0-0.0,0,0,31921,,,,,,77.0,,,,,,,,,,,,,,,,,,,,,,219.5,1.4,,
336,,isi,,html-keyboard-response,336,335914,0.0-1.0-544.0,0,0,31921,,,,,,,,,,,,,,,,,,,,,,,,,,,,220.5,1.0,,
337,,feedback,,html-keyboard-response,337,336918,0.0-1.0-545.0-0.0,0,0,31921,,,,,,77.0,,,,,,,,,,,,,,,,,,,,,,221.5,1.0,,
338,,iti,,html-keyboard-response,338,337023,0.0-1.0-546.0,0,0,31921,,,,,,,,,,,,,,,,,,,,,,,,,,,,222.5,1.0,,
339,,rl_choice,,html-keyboard-response,339,337087,0.0-1.0-548.0,0,0,31921,,63.0,,,68.0,78.0,78.0,2.0,easy,1000.0,1500.0,1.0,80.0,20.0,80.0,0.0,C,D,/static/Simple_RL/Stimuli/Fractals_stims/C.jpg,/static/Simple_RL/Stimuli/Fractals_stims/D.jpg,1.0,80.0,20.0,80.0,0.0,C,D,222.563,0.063,0.0,
340,,rl_choice_confirmation,,html-keyboard-response,340,338529,0.0-1.0-549.0-0.0,0,0,31921,,,,,,78.0,,,,,,,,,,,,,,,,,,,,,,224.0,1.4369999999999998,,
341,,isi,,html-keyboard-response,341,338630,0.0-1.0-551.0,0,0,31921,,,,,,,,,,,,,,,,,,,,,,,,,,,,225.5,1.5,,
342,,feedback,,html-keyboard-response,342,339634,0.0-1.0-552.0-0.0,0,0,31921,,,,,,78.0,,,,,,,,,,,,,,,,,,,,,,226.5,1.0,,
343,,iti,,html-keyboard-response,343,339739,0.0-1.0-553.0,0,0,31921,,,,,,,,,,,,,,,,,,,,,,,,,,,,227.5,1.0,,
344,,rl_choice,,html-keyboard-response,344,339749,0.0-1.0-555.0,0,0,31921,,9.0,,,75.0,79.0,79.0,2.0,easy,1000.0,1000.0,0.0,20.0,80.0,0.0,100.0,D,C,/static/Simple_RL/Stimuli/Fractals_stims/D.jpg,/static/Simple_RL/Stimuli/Fractals_stims/C.jpg,0.0,80.0,20.0,100.0,0.0,C,D,227.50900000000001,0.009000000000000001,0.0,
345,,rl_choice_confirmation,,html-keyboard-response,345,341246,0.0-1.0-556.0-0.0,0,0,31921,,,,,,79.0,,,,,,,,,,,,,,,,,,,,,,229.0,1.4909999999999999,,
346,,isi,,html-keyboard-response,346,341347,0.0-1.0-558.0,0,0,31921,,,,,,,,,,,,,,,,,,,,,,,,,,,,230.0,1.0,,
347,,feedback,,html-keyboard-response,347,342353,0.0-1.0-559.0-0.0,0,0,31921,,,,,,79.0,,,,,,,,,,,,,,,,,,,,,,231.0,1.0,,
348,,iti,,html-keyboard-response,348,342459,0.0-1.0-560.0,0,0,31921,,,,,,,,,,,,,,,,,,,,,,,,,,,,232.0,1.0,,0.51
349,,final_tally,,html-keyboard-response,349,344214,0.0-2.0,0,0,31921,,1754.0,,,68.0,,,,,,,,,,,,,,,,,,,,,,,,,,
