,success,ttype,start_time,trial_type,trial_index,time_elapsed,internal_node_id,warning,missed_checkup,PID,view_history,rt,responses,repeat_instructions,key_press,index,trial_num,block,condition,iti,isi,high_group_on_left,left_group_value,right_group_value,left_item_value,right_item_value,left_img,right_img,left_img_path,right_img_path,left_chosen,chosen_group_value,unchosen_group_value,chosen_item_value,unchosen_item_value,chosen_img,unchosen_img,no_response,onset,duration,total_bonus_tally
0,True,full_screen,d05202022hr1749,fullscreen,0,3326,0.0-0.0,0,0,18270,,,,,,,,,,,,,,,,,,,,,,,,,,,,,,,
1,,size_instructions,,instructions,1,6604,0.0-1.0-0.0-0.0,0,0,18270,"[{""page_index"":0,""viewing_time"":1143},{""page_index"":1,""viewing_time"":717},{""page_index"":2,""viewing_time"":334},{""page_index"":3,""viewing_time"":215},{""page_index"":4,""viewing_time"":218},{""page_index"":5,""viewing_time"":649}]",3276.0,,,,,,,,,,,,,,,,,,,,,,,,,,,,,
2,,rl_comprehension_check,,survey-multi-choice,2,10771,0.0-1.0-0.0-1.0,0,0,18270,,4165.0,"{""Q0"":""True"",""Q1"":""True"",""Q2"":""D for left and K for right""}",0.0,,,,,,,,,,,,,,,,,,,,,,,,,,,
3,,,,html-keyboard-response,3,11505,0.0-1.0-1.0,0,0,18270,,732.0,,,68.0,,,,,,,,,,,,,,,,,,,,,,,,,,
4,,rl_choice,,html-keyboard-response,4,12196,0.0-1.0-2.0,0,0,18270,,689.0,,,75.0,0.0,0.0,1.0,easy,2000.0,1000.0,1.0,80.0,20.0,100.0,20.0,C,D,/static/Simple_RL/Stimuli/Fractals_stims/C.jpg,/static/Simple_RL/Stimuli/Fractals_stims/D.jpg,0.0,20.0,80.0,20.0,100.0,D,C,0.0,0.6890000000000001,0.6890000000000001,
5,,rl_choice_confirmation,,html-keyboard-response,5,13012,0.0-1.0-3.0-0.0,0,0,18270,,,,,,0.0,,,,,,,,,,,,,,,,,,,,,,,1.5,0.8109999999999999,
6,,isi,,html-keyboard-response,6,13116,0.0-1.0-5.0,0,0,18270,,,,,,,,,,,,,,,,,,,,,,,,,,,,,2.5,1.0,
7,,feedback,,html-keyboard-response,7,14119,0.0-1.0-6.0-0.0,0,0,18270,,,,,,0.0,,,,,,,,,,,,,,,,,,,,,,,3.5,1.0,
8,,iti,,html-keyboard-response,8,14221,0.0-1.0-7.0,0,0,18270,,,,,,,,,,,,,,,,,,,,,,,,,,,,,5.5,2.0,
9,,rl_choice,,html-keyboard-response,9,14619,0.0-1.0-9.0,0,0,18270,,396.0,,,75.0,1.0,1.0,1.0,easy,2000.0,2000.0,1.0,80.0,20.0,60.0,20.0,C,D,/static/Simple_RL/Stimuli/Fractals_stims/C.jpg,/static/Simple_RL/Stimuli/Fractals_stims/D.jpg,0.0,20.0,80.0,20.0,60.0,D,C,0.0,5.896,0.396,
10,,rl_choice_confirmation,,html-keyboard-response,10,15724,0.0-1.0-10.0-0.0,0,0,18270,,,,,,1.0,,,,,,,,,,,,,,,,,,,,,,,7.0,1.104,
11,,isi,,html-keyboard-response,11,15829,0.0-1.0-12.0,0,0,18270,,,,,,,,,,,,,,,,,,,,,,,,,,,,,9.0,2.0,
12,,feedback,,html-keyboard-response,12,16835,0.0-1.0-13.0-0.0,0,0,18270,,,,,,1.0,,,,,,,,,,,,,,,,,,,,,,,10.0,1.0,
13,,iti,,html-keyboard-response,13,16941,0.0-1.0-14.0,0,0,18270,,,,,,,,,,,,,,,,,,,,,,,,,,,,,12.0,2.0,
14,,rl_choice,,html-keyboard-response,14,17282,0.0-1.0-16.0,0,0,18270,,339.0,,,68.0,2.0,2.0,1.0,easy,1500.0,1000.0,1.0,80.0,20.0,80.0,20.0,C,D,/static/Simple_RL/Stimuli/Fractals_stims/C.jpg,/static/Simple_RL/Stimuli/Fractals_stims/D.jpg,1.0,80.0,20.0,80.0,20.0,C,D,0.0,12.339,0.33899999999999997,
15,,rl_choice_confirmation,,html-keyboard-response,15,18444,0.0-1.0-17.0-0.0,0,0,18270,,,,,,2.0,,,,,,,,,,,,,,,,,,,,,,,13.5,1.161,
16,,isi,,html-keyboard-response,16,18548,0.0-1.0-19.0,0,0,18270,,,,,,,,,,,,,,,,,,,,,,,,,,,,,14.5,1.0,
17,,feedback,,html-keyboard-response,17,19550,0.0-1.0-20.0-0.0,0,0,18270,,,,,,2.0,,,,,,,,,,,,,,,,,,,,,,,15.5,1.0,
18,,iti,,html-keyboard-response,18,19655,0.0-1.0-21.0,0,0,18270,,,,,,,,,,,,,,,,,,,,,,,,,,,,,17.0,1.5,
19,,rl_choice,,html-keyboard-response,19,20003,0.0-1.0-23.0,0,0,18270,,347.0,,,68.0,3.0,3.0,1.0,easy,1000.0,3500.0,1.0,80.0,20.0,100.0,40.0,C,D,/static/Simple_RL/Stimuli/Fractals_stims/C.jpg,/static/Simple_RL/Stimuli/Fractals_stims/D.jpg,1.0,80.0,20.0,100.0,40.0,C,D,0.0,17.347,0.34700000000000003,
20,,rl_choice_confirmation,,html-keyboard-response,20,21158,0.0-1.0-24.0-0.0,0,0,18270,,,,,,3.0,,,,,,,,,,,,,,,,,,,,,,,18.5,1.153,
21,,isi,,html-keyboard-response,21,21260,0.0-1.0-26.0,0,0,18270,,,,,,,,,,,,,,,,,,,,,,,,,,,,,22.0,3.5,
22,,feedback,,html-keyboard-response,22,22264,0.0-1.0-27.0-0.0,0,0,18270,,,,,,3.0,,,,,,,,,,,,,,,,,,,,,,,23.0,1.0,
23,,iti,,html-keyboard-response,23,22366,0.0-1.0-28.0,0,0,18270,,,,,,,,,,,,,,,,,,,,,,,,,,,,,24.0,1.0,
24,,rl_choice,,html-keyboard-response,24,23012,0.0-1.0-30.0,0,0,18270,,644.0,,,75.0,4.0,4.0,1.0,hard,1000.0,3000.0,0.0,40.0,60.0,20.0,60.0,B,A,/static/Simple_RL/Stimuli/Fractals_stims/B.jpg,/static/Simple_RL/Stimuli/Fractals_stims/A.jpg,0.0,60.0,40.0,60.0,20.0,A,B,0.0,24.644000000000002,0.644,
25,,rl_choice_confirmation,,html-keyboard-response,25,23872,0.0-1.0-31.0-0.0,0,0,18270,,,,,,4.0,,,,,,,,,,,,,,,,,,,,,,,25.5,0.856,
26,,isi,,html-keyboard-response,26,23976,0.0-1.0-33.0,0,0,18270,,,,,,,,,,,,,,,,,,,,,,,,,,,,,28.5,3.0,
27,,feedback,,html-keyboard-response,27,24980,0.0-1.0-34.0-0.0,0,0,18270,,,,,,4.0,,,,,,,,,,,,,,,,,,,,,,,29.5,1.0,
28,,iti,,html-keyboard-response,28,25083,0.0-1.0-35.0,0,0,18270,,,,,,,,,,,,,,,,,,,,,,,,,,,,,30.5,1.0,
29,,rl_choice,,html-keyboard-response,29,25924,0.0-1.0-37.0,0,0,18270,,840.0,,,75.0,5.0,5.0,1.0,easy,3000.0,1000.0,0.0,20.0,80.0,40.0,60.0,D,C,/static/Simple_RL/Stimuli/Fractals_stims/D.jpg,/static/Simple_RL/Stimuli/Fractals_stims/C.jpg,0.0,80.0,20.0,60.0,40.0,C,D,0.0,31.34,0.84,
30,,rl_choice_confirmation,,html-keyboard-response,30,26589,0.0-1.0-38.0-0.0,0,0,18270,,,,,,5.0,,,,,,,,,,,,,,,,,,,,,,,32.0,0.66,
31,,isi,,html-keyboard-response,31,26692,0.0-1.0-40.0,0,0,18270,,,,,,,,,,,,,,,,,,,,,,,,,,,,,33.0,1.0,
32,,feedback,,html-keyboard-response,32,27697,0.0-1.0-41.0-0.0,0,0,18270,,,,,,5.0,,,,,,,,,,,,,,,,,,,,,,,34.0,1.0,
33,,iti,,html-keyboard-response,33,27800,0.0-1.0-42.0,0,0,18270,,,,,,,,,,,,,,,,,,,,,,,,,,,,,37.0,3.0,
34,,rl_choice,,html-keyboard-response,34,28219,0.0-1.0-44.0,0,0,18270,,417.0,,,68.0,6.0,6.0,1.0,hard,1500.0,1000.0,1.0,60.0,40.0,60.0,60.0,A,B,/static/Simple_RL/Stimuli/Fractals_stims/A.jpg,/static/Simple_RL/Stimuli/Fractals_stims/B.jpg,1.0,60.0,40.0,60.0,60.0,A,B,0.0,37.417,0.41700000000000004,
35,,rl_choice_confirmation,,html-keyboard-response,35,29308,0.0-1.0-45.0-0.0,0,0,18270,,,,,,6.0,,,,,,,,,,,,,,,,,,,,,,,38.5,1.083,
36,,isi,,html-keyboard-response,36,29412,0.0-1.0-47.0,0,0,18270,,,,,,,,,,,,,,,,,,,,,,,,,,,,,39.5,1.0,
37,,feedback,,html-keyboard-response,37,30417,0.0-1.0-48.0-0.0,0,0,18270,,,,,,6.0,,,,,,,,,,,,,,,,,,,,,,,40.5,1.0,
38,,iti,,html-keyboard-response,38,30519,0.0-1.0-49.0,0,0,18270,,,,,,,,,,,,,,,,,,,,,,,,,,,,,42.0,1.5,
39,,rl_choice,,html-keyboard-response,39,31046,0.0-1.0-51.0,0,0,18270,,526.0,,,68.0,7.0,7.0,1.0,easy,1500.0,1000.0,1.0,80.0,20.0,80.0,20.0,C,D,/static/Simple_RL/Stimuli/Fractals_stims/C.jpg,/static/Simple_RL/Stimuli/Fractals_stims/D.jpg,1.0,80.0,20.0,80.0,20.0,C,D,0.0,42.526,0.526,
40,,rl_choice_confirmation,,html-keyboard-response,40,32025,0.0-1.0-52.0-0.0,0,0,18270,,,,,,7.0,,,,,,,,,,,,,,,,,,,,,,,43.5,0.9740000000000001,
41,,isi,,html-keyboard-response,41,32129,0.0-1.0-54.0,0,0,18270,,,,,,,,,,,,,,,,,,,,,,,,,,,,,44.5,1.0,
42,,feedback,,html-keyboard-response,42,33132,0.0-1.0-55.0-0.0,0,0,18270,,,,,,7.0,,,,,,,,,,,,,,,,,,,,,,,45.5,1.0,
43,,iti,,html-keyboard-response,43,33233,0.0-1.0-56.0,0,0,18270,,,,,,,,,,,,,,,,,,,,,,,,,,,,,47.0,1.5,
44,,rl_choice,,html-keyboard-response,44,33876,0.0-1.0-58.0,0,0,18270,,642.0,,,75.0,8.0,8.0,1.0,easy,3500.0,1500.0,0.0,20.0,80.0,40.0,60.0,D,C,/static/Simple_RL/Stimuli/Fractals_stims/D.jpg,/static/Simple_RL/Stimuli/Fractals_stims/C.jpg,0.0,80.0,20.0,60.0,40.0,C,D,0.0,47.641999999999996,0.642,
45,,rl_choice_confirmation,,html-keyboard-response,45,34737,0.0-1.0-59.0-0.0,0,0,18270,,,,,,8.0,,,,,,,,,,,,,,,,,,,,,,,48.5,0.858,
46,,isi,,html-keyboard-response,46,34838,0.0-1.0-61.0,0,0,18270,,,,,,,,,,,,,,,,,,,,,,,,,,,,,50.0,1.5,
47,,feedback,,html-keyboard-response,47,35840,0.0-1.0-62.0-0.0,0,0,18270,,,,,,8.0,,,,,,,,,,,,,,,,,,,,,,,51.0,1.0,
48,,iti,,html-keyboard-response,48,35942,0.0-1.0-63.0,0,0,18270,,,,,,,,,,,,,,,,,,,,,,,,,,,,,54.5,3.5,
49,,rl_choice,,html-keyboard-response,49,36429,0.0-1.0-65.0,0,0,18270,,486.0,,,75.0,9.0,9.0,1.0,easy,1000.0,1500.0,0.0,20.0,80.0,40.0,80.0,D,C,/static/Simple_RL/Stimuli/Fractals_stims/D.jpg,/static/Simple_RL/Stimuli/Fractals_stims/C.jpg,0.0,80.0,20.0,80.0,40.0,C,D,0.0,54.986000000000004,0.486,
50,,rl_choice_confirmation,,html-keyboard-response,50,37446,0.0-1.0-66.0-0.0,0,0,18270,,,,,,9.0,,,,,,,,,,,,,,,,,,,,,,,56.0,1.014,
51,,isi,,html-keyboard-response,51,37552,0.0-1.0-68.0,0,0,18270,,,,,,,,,,,,,,,,,,,,,,,,,,,,,57.5,1.5,
52,,feedback,,html-keyboard-response,52,38554,0.0-1.0-69.0-0.0,0,0,18270,,,,,,9.0,,,,,,,,,,,,,,,,,,,,,,,58.5,1.0,
53,,iti,,html-keyboard-response,53,38659,0.0-1.0-70.0,0,0,18270,,,,,,,,,,,,,,,,,,,,,,,,,,,,,59.5,1.0,
54,,rl_choice,,html-keyboard-response,54,39318,0.0-1.0-72.0,0,0,18270,,658.0,,,68.0,10.0,10.0,1.0,hard,2000.0,1000.0,1.0,60.0,40.0,40.0,20.0,A,B,/static/Simple_RL/Stimuli/Fractals_stims/A.jpg,/static/Simple_RL/Stimuli/Fractals_stims/B.jpg,1.0,60.0,40.0,40.0,20.0,A,B,0.0,60.158,0.6579999999999999,
55,,rl_choice_confirmation,,html-keyboard-response,55,40166,0.0-1.0-73.0-0.0,0,0,18270,,,,,,10.0,,,,,,,,,,,,,,,,,,,,,,,61.0,0.8420000000000001,
56,,isi,,html-keyboard-response,56,40267,0.0-1.0-75.0,0,0,18270,,,,,,,,,,,,,,,,,,,,,,,,,,,,,62.0,1.0,
57,,feedback,,html-keyboard-response,57,41270,0.0-1.0-76.0-0.0,0,0,18270,,,,,,10.0,,,,,,,,,,,,,,,,,,,,,,,63.0,1.0,
58,,iti,,html-keyboard-response,58,41374,0.0-1.0-77.0,0,0,18270,,,,,,,,,,,,,,,,,,,,,,,,,,,,,65.0,2.0,
59,,rl_choice,,html-keyboard-response,59,42075,0.0-1.0-79.0,0,0,18270,,700.0,,,75.0,11.0,11.0,1.0,easy,1000.0,1500.0,0.0,20.0,80.0,40.0,60.0,D,C,/static/Simple_RL/Stimuli/Fractals_stims/D.jpg,/static/Simple_RL/Stimuli/Fractals_stims/C.jpg,0.0,80.0,20.0,60.0,40.0,C,D,0.0,65.7,0.7,
60,,rl_choice_confirmation,,html-keyboard-response,60,42880,0.0-1.0-80.0-0.0,0,0,18270,,,,,,11.0,,,,,,,,,,,,,,,,,,,,,,,66.5,0.8,
61,,isi,,html-keyboard-response,61,42982,0.0-1.0-82.0,0,0,18270,,,,,,,,,,,,,,,,,,,,,,,,,,,,,68.0,1.5,
62,,feedback,,html-keyboard-response,62,43987,0.0-1.0-83.0-0.0,0,0,18270,,,,,,11.0,,,,,,,,,,,,,,,,,,,,,,,69.0,1.0,
63,,iti,,html-keyboard-response,63,44091,0.0-1.0-84.0,0,0,18270,,,,,,,,,,,,,,,,,,,,,,,,,,,,,70.0,1.0,
64,,rl_choice,,html-keyboard-response,64,44820,0.0-1.0-86.0,0,0,18270,,728.0,,,68.0,12.0,12.0,1.0,hard,1000.0,1500.0,1.0,60.0,40.0,60.0,60.0,A,B,/static/Simple_RL/Stimuli/Fractals_stims/A.jpg,/static/Simple_RL/Stimuli/Fractals_stims/B.jpg,1.0,60.0,40.0,60.0,60.0,A,B,0.0,70.72800000000001,0.728,
65,,rl_choice_confirmation,,html-keyboard-response,65,45596,0.0-1.0-87.0-0.0,0,0,18270,,,,,,12.0,,,,,,,,,,,,,,,,,,,,,,,71.5,0.772,
66,,isi,,html-keyboard-response,66,45701,0.0-1.0-89.0,0,0,18270,,,,,,,,,,,,,,,,,,,,,,,,,,,,,73.0,1.5,
67,,feedback,,html-keyboard-response,67,46704,0.0-1.0-90.0-0.0,0,0,18270,,,,,,12.0,,,,,,,,,,,,,,,,,,,,,,,74.0,1.0,
68,,iti,,html-keyboard-response,68,46805,0.0-1.0-91.0,0,0,18270,,,,,,,,,,,,,,,,,,,,,,,,,,,,,75.0,1.0,
69,,rl_choice,,html-keyboard-response,69,47418,0.0-1.0-93.0,0,0,18270,,612.0,,,68.0,13.0,13.0,1.0,easy,1000.0,1500.0,1.0,80.0,20.0,80.0,0.0,C,D,/static/Simple_RL/Stimuli/Fractals_stims/C.jpg,/static/Simple_RL/Stimuli/Fractals_stims/D.jpg,1.0,80.0,20.0,80.0,0.0,C,D,0.0,75.612,0.612,
70,,rl_choice_confirmation,,html-keyboard-response,70,48309,0.0-1.0-94.0-0.0,0,0,18270,,,,,,13.0,,,,,,,,,,,,,,,,,,,,,,,76.5,0.888,
71,,isi,,html-keyboard-response,71,48410,0.0-1.0-96.0,0,0,18270,,,,,,,,,,,,,,,,,,,,,,,,,,,,,78.0,1.5,
72,,feedback,,html-keyboard-response,72,49413,0.0-1.0-97.0-0.0,0,0,18270,,,,,,13.0,,,,,,,,,,,,,,,,,,,,,,,79.0,1.0,
73,,iti,,html-keyboard-response,73,49515,0.0-1.0-98.0,0,0,18270,,,,,,,,,,,,,,,,,,,,,,,,,,,,,80.0,1.0,
74,,rl_choice,,html-keyboard-response,74,49979,0.0-1.0-100.0,0,0,18270,,463.0,,,68.0,14.0,14.0,1.0,easy,1000.0,2000.0,1.0,80.0,20.0,80.0,0.0,C,D,/static/Simple_RL/Stimuli/Fractals_stims/C.jpg,/static/Simple_RL/Stimuli/Fractals_stims/D.jpg,1.0,80.0,20.0,80.0,0.0,C,D,0.0,80.46300000000001,0.46299999999999997,
75,,rl_choice_confirmation,,html-keyboard-response,75,51018,0.0-1.0-101.0-0.0,0,0,18270,,,,,,14.0,,,,,,,,,,,,,,,,,,,,,,,81.5,1.037,
76,,isi,,html-keyboard-response,76,51120,0.0-1.0-103.0,0,0,18270,,,,,,,,,,,,,,,,,,,,,,,,,,,,,83.5,2.0,
77,,feedback,,html-keyboard-response,77,52124,0.0-1.0-104.0-0.0,0,0,18270,,,,,,14.0,,,,,,,,,,,,,,,,,,,,,,,84.5,1.0,
78,,iti,,html-keyboard-response,78,52229,0.0-1.0-105.0,0,0,18270,,,,,,,,,,,,,,,,,,,,,,,,,,,,,85.5,1.0,
79,,rl_choice,,html-keyboard-response,79,52843,0.0-1.0-107.0,0,0,18270,,612.0,,,75.0,15.0,15.0,1.0,hard,1000.0,1000.0,0.0,40.0,60.0,40.0,60.0,B,A,/static/Simple_RL/Stimuli/Fractals_stims/B.jpg,/static/Simple_RL/Stimuli/Fractals_stims/A.jpg,0.0,60.0,40.0,60.0,40.0,A,B,0.0,86.11200000000001,0.612,
80,,rl_choice_confirmation,,html-keyboard-response,80,53733,0.0-1.0-108.0-0.0,0,0,18270,,,,,,15.0,,,,,,,,,,,,,,,,,,,,,,,87.0,0.888,
81,,isi,,html-keyboard-response,81,53835,0.0-1.0-110.0,0,0,18270,,,,,,,,,,,,,,,,,,,,,,,,,,,,,88.0,1.0,
82,,feedback,,html-keyboard-response,82,54837,0.0-1.0-111.0-0.0,0,0,18270,,,,,,15.0,,,,,,,,,,,,,,,,,,,,,,,89.0,1.0,
83,,iti,,html-keyboard-response,83,54943,0.0-1.0-112.0,0,0,18270,,,,,,,,,,,,,,,,,,,,,,,,,,,,,90.0,1.0,
84,,rl_choice,,html-keyboard-response,84,55346,0.0-1.0-114.0,0,0,18270,,401.0,,,68.0,16.0,16.0,1.0,hard,1000.0,2000.0,1.0,60.0,40.0,80.0,60.0,A,B,/static/Simple_RL/Stimuli/Fractals_stims/A.jpg,/static/Simple_RL/Stimuli/Fractals_stims/B.jpg,1.0,60.0,40.0,80.0,60.0,A,B,0.0,90.40100000000001,0.401,
85,,rl_choice_confirmation,,html-keyboard-response,85,56447,0.0-1.0-115.0-0.0,0,0,18270,,,,,,16.0,,,,,,,,,,,,,,,,,,,,,,,91.5,1.099,
86,,isi,,html-keyboard-response,86,56552,0.0-1.0-117.0,0,0,18270,,,,,,,,,,,,,,,,,,,,,,,,,,,,,93.5,2.0,
87,,feedback,,html-keyboard-response,87,57556,0.0-1.0-118.0-0.0,0,0,18270,,,,,,16.0,,,,,,,,,,,,,,,,,,,,,,,94.5,1.0,
88,,iti,,html-keyboard-response,88,57658,0.0-1.0-119.0,0,0,18270,,,,,,,,,,,,,,,,,,,,,,,,,,,,,95.5,1.0,
89,,rl_choice,,html-keyboard-response,89,58090,0.0-1.0-121.0,0,0,18270,,430.0,,,75.0,17.0,17.0,1.0,hard,3000.0,2000.0,0.0,40.0,60.0,60.0,40.0,B,A,/static/Simple_RL/Stimuli/Fractals_stims/B.jpg,/static/Simple_RL/Stimuli/Fractals_stims/A.jpg,0.0,60.0,40.0,40.0,60.0,A,B,0.0,95.93,0.43,
90,,rl_choice_confirmation,,html-keyboard-response,90,59162,0.0-1.0-122.0-0.0,0,0,18270,,,,,,17.0,,,,,,,,,,,,,,,,,,,,,,,97.0,1.07,
91,,isi,,html-keyboard-response,91,59264,0.0-1.0-124.0,0,0,18270,,,,,,,,,,,,,,,,,,,,,,,,,,,,,99.0,2.0,
92,,feedback,,html-keyboard-response,92,60266,0.0-1.0-125.0-0.0,0,0,18270,,,,,,17.0,,,,,,,,,,,,,,,,,,,,,,,100.0,1.0,
93,,iti,,html-keyboard-response,93,60368,0.0-1.0-126.0,0,0,18270,,,,,,,,,,,,,,,,,,,,,,,,,,,,,103.0,3.0,
94,,rl_choice,,html-keyboard-response,94,60853,0.0-1.0-128.0,0,0,18270,,484.0,,,68.0,18.0,18.0,1.0,hard,1500.0,1500.0,1.0,60.0,40.0,40.0,20.0,A,B,/static/Simple_RL/Stimuli/Fractals_stims/A.jpg,/static/Simple_RL/Stimuli/Fractals_stims/B.jpg,1.0,60.0,40.0,40.0,20.0,A,B,0.0,103.484,0.484,
95,,rl_choice_confirmation,,html-keyboard-response,95,61871,0.0-1.0-129.0-0.0,0,0,18270,,,,,,18.0,,,,,,,,,,,,,,,,,,,,,,,104.5,1.016,
96,,isi,,html-keyboard-response,96,61972,0.0-1.0-131.0,0,0,18270,,,,,,,,,,,,,,,,,,,,,,,,,,,,,106.0,1.5,
97,,feedback,,html-keyboard-response,97,62976,0.0-1.0-132.0-0.0,0,0,18270,,,,,,18.0,,,,,,,,,,,,,,,,,,,,,,,107.0,1.0,
98,,iti,,html-keyboard-response,98,63079,0.0-1.0-133.0,0,0,18270,,,,,,,,,,,,,,,,,,,,,,,,,,,,,108.5,1.5,
99,,rl_choice,,html-keyboard-response,99,63430,0.0-1.0-135.0,0,0,18270,,350.0,,,75.0,19.0,19.0,1.0,easy,1500.0,3000.0,0.0,20.0,80.0,20.0,80.0,D,C,/static/Simple_RL/Stimuli/Fractals_stims/D.jpg,/static/Simple_RL/Stimuli/Fractals_stims/C.jpg,0.0,80.0,20.0,80.0,20.0,C,D,0.0,108.85,0.35,
100,,rl_choice_confirmation,,html-keyboard-response,100,64586,0.0-1.0-136.0-0.0,0,0,18270,,,,,,19.0,,,,,,,,,,,,,,,,,,,,,,,110.0,1.15,
101,,isi,,html-keyboard-response,101,64688,0.0-1.0-138.0,0,0,18270,,,,,,,,,,,,,,,,,,,,,,,,,,,,,113.0,3.0,
102,,feedback,,html-keyboard-response,102,65689,0.0-1.0-139.0-0.0,0,0,18270,,,,,,19.0,,,,,,,,,,,,,,,,,,,,,,,114.0,1.0,
103,,iti,,html-keyboard-response,103,65794,0.0-1.0-140.0,0,0,18270,,,,,,,,,,,,,,,,,,,,,,,,,,,,,115.5,1.5,
104,,rl_choice,,html-keyboard-response,104,66533,0.0-1.0-142.0,0,0,18270,,738.0,,,68.0,20.0,20.0,1.0,easy,1000.0,1000.0,1.0,80.0,20.0,100.0,20.0,C,D,/static/Simple_RL/Stimuli/Fractals_stims/C.jpg,/static/Simple_RL/Stimuli/Fractals_stims/D.jpg,1.0,80.0,20.0,100.0,20.0,C,D,0.0,116.238,0.738,
105,,rl_choice_confirmation,,html-keyboard-response,105,67301,0.0-1.0-143.0-0.0,0,0,18270,,,,,,20.0,,,,,,,,,,,,,,,,,,,,,,,117.0,0.762,
106,,isi,,html-keyboard-response,106,67402,0.0-1.0-145.0,0,0,18270,,,,,,,,,,,,,,,,,,,,,,,,,,,,,118.0,1.0,
107,,feedback,,html-keyboard-response,107,68405,0.0-1.0-146.0-0.0,0,0,18270,,,,,,20.0,,,,,,,,,,,,,,,,,,,,,,,119.0,1.0,
108,,iti,,html-keyboard-response,108,68506,0.0-1.0-147.0,0,0,18270,,,,,,,,,,,,,,,,,,,,,,,,,,,,,120.0,1.0,
109,,rl_choice,,html-keyboard-response,109,69306,0.0-1.0-149.0,0,0,18270,,797.0,,,75.0,21.0,21.0,1.0,easy,1500.0,1500.0,0.0,20.0,80.0,0.0,100.0,D,C,/static/Simple_RL/Stimuli/Fractals_stims/D.jpg,/static/Simple_RL/Stimuli/Fractals_stims/C.jpg,0.0,80.0,20.0,100.0,0.0,C,D,0.0,120.79700000000001,0.797,
110,,rl_choice_confirmation,,html-keyboard-response,110,70010,0.0-1.0-150.0-0.0,0,0,18270,,,,,,21.0,,,,,,,,,,,,,,,,,,,,,,,121.5,0.703,
111,,isi,,html-keyboard-response,111,70112,0.0-1.0-152.0,0,0,18270,,,,,,,,,,,,,,,,,,,,,,,,,,,,,123.0,1.5,
112,,feedback,,html-keyboard-response,112,71114,0.0-1.0-153.0-0.0,0,0,18270,,,,,,21.0,,,,,,,,,,,,,,,,,,,,,,,124.0,1.0,
113,,iti,,html-keyboard-response,113,71216,0.0-1.0-154.0,0,0,18270,,,,,,,,,,,,,,,,,,,,,,,,,,,,,125.5,1.5,
114,,rl_choice,,html-keyboard-response,114,71657,0.0-1.0-156.0,0,0,18270,,440.0,,,75.0,22.0,22.0,1.0,hard,1500.0,2000.0,0.0,40.0,60.0,40.0,80.0,B,A,/static/Simple_RL/Stimuli/Fractals_stims/B.jpg,/static/Simple_RL/Stimuli/Fractals_stims/A.jpg,0.0,60.0,40.0,80.0,40.0,A,B,0.0,125.94,0.44,
115,,rl_choice_confirmation,,html-keyboard-response,115,72722,0.0-1.0-157.0-0.0,0,0,18270,,,,,,22.0,,,,,,,,,,,,,,,,,,,,,,,127.0,1.06,
116,,isi,,html-keyboard-response,116,72826,0.0-1.0-159.0,0,0,18270,,,,,,,,,,,,,,,,,,,,,,,,,,,,,129.0,2.0,
117,,feedback,,html-keyboard-response,117,73829,0.0-1.0-160.0-0.0,0,0,18270,,,,,,22.0,,,,,,,,,,,,,,,,,,,,,,,130.0,1.0,
118,,iti,,html-keyboard-response,118,73936,0.0-1.0-161.0,0,0,18270,,,,,,,,,,,,,,,,,,,,,,,,,,,,,131.5,1.5,
119,,rl_choice,,html-keyboard-response,119,74464,0.0-1.0-163.0,0,0,18270,,527.0,,,75.0,23.0,23.0,1.0,hard,1000.0,1000.0,0.0,40.0,60.0,60.0,80.0,B,A,/static/Simple_RL/Stimuli/Fractals_stims/B.jpg,/static/Simple_RL/Stimuli/Fractals_stims/A.jpg,0.0,60.0,40.0,80.0,60.0,A,B,0.0,132.02700000000002,0.527,
120,,rl_choice_confirmation,,html-keyboard-response,120,75439,0.0-1.0-164.0-0.0,0,0,18270,,,,,,23.0,,,,,,,,,,,,,,,,,,,,,,,133.0,0.973,
121,,isi,,html-keyboard-response,121,75542,0.0-1.0-166.0,0,0,18270,,,,,,,,,,,,,,,,,,,,,,,,,,,,,134.0,1.0,
122,,feedback,,html-keyboard-response,122,76549,0.0-1.0-167.0-0.0,0,0,18270,,,,,,23.0,,,,,,,,,,,,,,,,,,,,,,,135.0,1.0,
123,,iti,,html-keyboard-response,123,76652,0.0-1.0-168.0,0,0,18270,,,,,,,,,,,,,,,,,,,,,,,,,,,,,136.0,1.0,
124,,rl_choice,,html-keyboard-response,124,77149,0.0-1.0-170.0,0,0,18270,,496.0,,,68.0,24.0,24.0,1.0,hard,2000.0,1500.0,1.0,60.0,40.0,40.0,40.0,A,B,/static/Simple_RL/Stimuli/Fractals_stims/A.jpg,/static/Simple_RL/Stimuli/Fractals_stims/B.jpg,1.0,60.0,40.0,40.0,40.0,A,B,0.0,136.496,0.496,
125,,rl_choice_confirmation,,html-keyboard-response,125,78158,0.0-1.0-171.0-0.0,0,0,18270,,,,,,24.0,,,,,,,,,,,,,,,,,,,,,,,137.5,1.004,
126,,isi,,html-keyboard-response,126,78261,0.0-1.0-173.0,0,0,18270,,,,,,,,,,,,,,,,,,,,,,,,,,,,,139.0,1.5,
127,,feedback,,html-keyboard-response,127,79265,0.0-1.0-174.0-0.0,0,0,18270,,,,,,24.0,,,,,,,,,,,,,,,,,,,,,,,140.0,1.0,
128,,iti,,html-keyboard-response,128,79371,0.0-1.0-175.0,0,0,18270,,,,,,,,,,,,,,,,,,,,,,,,,,,,,142.0,2.0,
129,,rl_choice,,html-keyboard-response,129,80519,0.0-1.0-177.0,0,0,18270,,1147.0,,,68.0,25.0,25.0,1.0,easy,2000.0,1000.0,1.0,80.0,20.0,60.0,20.0,C,D,/static/Simple_RL/Stimuli/Fractals_stims/C.jpg,/static/Simple_RL/Stimuli/Fractals_stims/D.jpg,1.0,80.0,20.0,60.0,20.0,C,D,0.0,143.14700000000002,1.147,
130,,rl_choice_confirmation,,html-keyboard-response,130,80874,0.0-1.0-178.0-0.0,0,0,18270,,,,,,25.0,,,,,,,,,,,,,,,,,,,,,,,143.5,0.353,
131,,isi,,html-keyboard-response,131,80980,0.0-1.0-180.0,0,0,18270,,,,,,,,,,,,,,,,,,,,,,,,,,,,,144.5,1.0,
132,,feedback,,html-keyboard-response,132,81984,0.0-1.0-181.0-0.0,0,0,18270,,,,,,25.0,,,,,,,,,,,,,,,,,,,,,,,145.5,1.0,
133,,iti,,html-keyboard-response,133,82088,0.0-1.0-182.0,0,0,18270,,,,,,,,,,,,,,,,,,,,,,,,,,,,,147.5,2.0,
134,,rl_choice,,html-keyboard-response,134,82573,0.0-1.0-184.0,0,0,18270,,484.0,,,75.0,26.0,26.0,1.0,hard,2000.0,2000.0,0.0,40.0,60.0,40.0,40.0,B,A,/static/Simple_RL/Stimuli/Fractals_stims/B.jpg,/static/Simple_RL/Stimuli/Fractals_stims/A.jpg,0.0,60.0,40.0,40.0,40.0,A,B,0.0,147.984,0.484,
135,,rl_choice_confirmation,,html-keyboard-response,135,83595,0.0-1.0-185.0-0.0,0,0,18270,,,,,,26.0,,,,,,,,,,,,,,,,,,,,,,,149.0,1.016,
136,,isi,,html-keyboard-response,136,83700,0.0-1.0-187.0,0,0,18270,,,,,,,,,,,,,,,,,,,,,,,,,,,,,151.0,2.0,
137,,feedback,,html-keyboard-response,137,84704,0.0-1.0-188.0-0.0,0,0,18270,,,,,,26.0,,,,,,,,,,,,,,,,,,,,,,,152.0,1.0,
138,,iti,,html-keyboard-response,138,84805,0.0-1.0-189.0,0,0,18270,,,,,,,,,,,,,,,,,,,,,,,,,,,,,154.0,2.0,
139,,rl_choice,,html-keyboard-response,139,85786,0.0-1.0-191.0,0,0,18270,,980.0,,,75.0,27.0,27.0,1.0,easy,1000.0,1000.0,0.0,20.0,80.0,20.0,80.0,D,C,/static/Simple_RL/Stimuli/Fractals_stims/D.jpg,/static/Simple_RL/Stimuli/Fractals_stims/C.jpg,0.0,80.0,20.0,80.0,20.0,C,D,0.0,154.98,0.98,
140,,rl_choice_confirmation,,html-keyboard-response,140,86309,0.0-1.0-192.0-0.0,0,0,18270,,,,,,27.0,,,,,,,,,,,,,,,,,,,,,,,155.5,0.52,
141,,isi,,html-keyboard-response,141,86414,0.0-1.0-194.0,0,0,18270,,,,,,,,,,,,,,,,,,,,,,,,,,,,,156.5,1.0,
142,,feedback,,html-keyboard-response,142,87419,0.0-1.0-195.0-0.0,0,0,18270,,,,,,27.0,,,,,,,,,,,,,,,,,,,,,,,157.5,1.0,
143,,iti,,html-keyboard-response,143,87525,0.0-1.0-196.0,0,0,18270,,,,,,,,,,,,,,,,,,,,,,,,,,,,,158.5,1.0,
144,,rl_choice,,html-keyboard-response,144,88165,0.0-1.0-198.0,0,0,18270,,639.0,,,68.0,28.0,28.0,1.0,easy,2000.0,3000.0,1.0,80.0,20.0,60.0,40.0,C,D,/static/Simple_RL/Stimuli/Fractals_stims/C.jpg,/static/Simple_RL/Stimuli/Fractals_stims/D.jpg,1.0,80.0,20.0,60.0,40.0,C,D,0.0,159.139,0.639,
145,,rl_choice_confirmation,,html-keyboard-response,145,89029,0.0-1.0-199.0-0.0,0,0,18270,,,,,,28.0,,,,,,,,,,,,,,,,,,,,,,,160.0,0.861,
146,,isi,,html-keyboard-response,146,89130,0.0-1.0-201.0,0,0,18270,,,,,,,,,,,,,,,,,,,,,,,,,,,,,163.0,3.0,
147,,feedback,,html-keyboard-response,147,90133,0.0-1.0-202.0-0.0,0,0,18270,,,,,,28.0,,,,,,,,,,,,,,,,,,,,,,,164.0,1.0,
148,,iti,,html-keyboard-response,148,90235,0.0-1.0-203.0,0,0,18270,,,,,,,,,,,,,,,,,,,,,,,,,,,,,166.0,2.0,
149,,rl_choice,,html-keyboard-response,149,91135,0.0-1.0-205.0,0,0,18270,,898.0,,,68.0,29.0,29.0,1.0,hard,1000.0,1500.0,1.0,60.0,40.0,60.0,20.0,A,B,/static/Simple_RL/Stimuli/Fractals_stims/A.jpg,/static/Simple_RL/Stimuli/Fractals_stims/B.jpg,1.0,60.0,40.0,60.0,20.0,A,B,0.0,166.898,0.898,
150,,rl_choice_confirmation,,html-keyboard-response,150,91739,0.0-1.0-206.0-0.0,0,0,18270,,,,,,29.0,,,,,,,,,,,,,,,,,,,,,,,167.5,0.602,
151,,isi,,html-keyboard-response,151,91840,0.0-1.0-208.0,0,0,18270,,,,,,,,,,,,,,,,,,,,,,,,,,,,,169.0,1.5,
152,,feedback,,html-keyboard-response,152,92843,0.0-1.0-209.0-0.0,0,0,18270,,,,,,29.0,,,,,,,,,,,,,,,,,,,,,,,170.0,1.0,
153,,iti,,html-keyboard-response,153,92946,0.0-1.0-210.0,0,0,18270,,,,,,,,,,,,,,,,,,,,,,,,,,,,,171.0,1.0,
154,,rl_choice,,html-keyboard-response,154,93583,0.0-1.0-212.0,0,0,18270,,635.0,,,68.0,30.0,30.0,1.0,hard,1500.0,1000.0,1.0,60.0,40.0,60.0,40.0,A,B,/static/Simple_RL/Stimuli/Fractals_stims/A.jpg,/static/Simple_RL/Stimuli/Fractals_stims/B.jpg,1.0,60.0,40.0,60.0,40.0,A,B,0.0,171.635,0.635,
155,,rl_choice_confirmation,,html-keyboard-response,155,94450,0.0-1.0-213.0-0.0,0,0,18270,,,,,,30.0,,,,,,,,,,,,,,,,,,,,,,,172.5,0.865,
156,,isi,,html-keyboard-response,156,94555,0.0-1.0-215.0,0,0,18270,,,,,,,,,,,,,,,,,,,,,,,,,,,,,173.5,1.0,
157,,feedback,,html-keyboard-response,157,95557,0.0-1.0-216.0-0.0,0,0,18270,,,,,,30.0,,,,,,,,,,,,,,,,,,,,,,,174.5,1.0,
158,,iti,,html-keyboard-response,158,95658,0.0-1.0-217.0,0,0,18270,,,,,,,,,,,,,,,,,,,,,,,,,,,,,176.0,1.5,
159,,rl_choice,,html-keyboard-response,159,96415,0.0-1.0-219.0,0,0,18270,,755.0,,,68.0,31.0,31.0,1.0,easy,1000.0,1000.0,1.0,80.0,20.0,100.0,40.0,C,D,/static/Simple_RL/Stimuli/Fractals_stims/C.jpg,/static/Simple_RL/Stimuli/Fractals_stims/D.jpg,1.0,80.0,20.0,100.0,40.0,C,D,0.0,176.755,0.755,
160,,rl_choice_confirmation,,html-keyboard-response,160,97163,0.0-1.0-220.0-0.0,0,0,18270,,,,,,31.0,,,,,,,,,,,,,,,,,,,,,,,177.5,0.745,
161,,isi,,html-keyboard-response,161,97269,0.0-1.0-222.0,0,0,18270,,,,,,,,,,,,,,,,,,,,,,,,,,,,,178.5,1.0,
162,,feedback,,html-keyboard-response,162,98275,0.0-1.0-223.0-0.0,0,0,18270,,,,,,31.0,,,,,,,,,,,,,,,,,,,,,,,179.5,1.0,
163,,iti,,html-keyboard-response,163,98379,0.0-1.0-224.0,0,0,18270,,,,,,,,,,,,,,,,,,,,,,,,,,,,,180.5,1.0,
164,,rl_choice,,html-keyboard-response,164,98905,0.0-1.0-226.0,0,0,18270,,525.0,,,75.0,32.0,32.0,1.0,easy,3000.0,2000.0,0.0,20.0,80.0,0.0,80.0,D,C,/static/Simple_RL/Stimuli/Fractals_stims/D.jpg,/static/Simple_RL/Stimuli/Fractals_stims/C.jpg,0.0,80.0,20.0,80.0,0.0,C,D,0.0,181.025,0.525,
165,,rl_choice_confirmation,,html-keyboard-response,165,99883,0.0-1.0-227.0-0.0,0,0,18270,,,,,,32.0,,,,,,,,,,,,,,,,,,,,,,,182.0,0.975,
166,,isi,,html-keyboard-response,166,99984,0.0-1.0-229.0,0,0,18270,,,,,,,,,,,,,,,,,,,,,,,,,,,,,184.0,2.0,
167,,feedback,,html-keyboard-response,167,100987,0.0-1.0-230.0-0.0,0,0,18270,,,,,,32.0,,,,,,,,,,,,,,,,,,,,,,,185.0,1.0,
168,,iti,,html-keyboard-response,168,101088,0.0-1.0-231.0,0,0,18270,,,,,,,,,,,,,,,,,,,,,,,,,,,,,188.0,3.0,
169,,rl_choice,,html-keyboard-response,169,101518,0.0-1.0-233.0,0,0,18270,,429.0,,,68.0,33.0,33.0,1.0,hard,3500.0,1500.0,1.0,60.0,40.0,40.0,60.0,A,B,/static/Simple_RL/Stimuli/Fractals_stims/A.jpg,/static/Simple_RL/Stimuli/Fractals_stims/B.jpg,1.0,60.0,40.0,40.0,60.0,A,B,0.0,188.429,0.429,
170,,rl_choice_confirmation,,html-keyboard-response,170,102592,0.0-1.0-234.0-0.0,0,0,18270,,,,,,33.0,,,,,,,,,,,,,,,,,,,,,,,189.5,1.071,
171,,isi,,html-keyboard-response,171,102694,0.0-1.0-236.0,0,0,18270,,,,,,,,,,,,,,,,,,,,,,,,,,,,,191.0,1.5,
172,,feedback,,html-keyboard-response,172,103696,0.0-1.0-237.0-0.0,0,0,18270,,,,,,33.0,,,,,,,,,,,,,,,,,,,,,,,192.0,1.0,
173,,iti,,html-keyboard-response,173,103798,0.0-1.0-238.0,0,0,18270,,,,,,,,,,,,,,,,,,,,,,,,,,,,,195.5,3.5,
174,,rl_choice,,html-keyboard-response,174,104177,0.0-1.0-240.0,0,0,18270,,378.0,,,75.0,34.0,34.0,1.0,hard,2000.0,3000.0,0.0,40.0,60.0,40.0,60.0,B,A,/static/Simple_RL/Stimuli/Fractals_stims/B.jpg,/static/Simple_RL/Stimuli/Fractals_stims/A.jpg,0.0,60.0,40.0,60.0,40.0,A,B,0.0,195.878,0.37799999999999995,
175,,rl_choice_confirmation,,html-keyboard-response,175,105301,0.0-1.0-241.0-0.0,0,0,18270,,,,,,34.0,,,,,,,,,,,,,,,,,,,,,,,197.0,1.122,
176,,isi,,html-keyboard-response,176,105405,0.0-1.0-243.0,0,0,18270,,,,,,,,,,,,,,,,,,,,,,,,,,,,,200.0,3.0,
177,,feedback,,html-keyboard-response,177,106411,0.0-1.0-244.0-0.0,0,0,18270,,,,,,34.0,,,,,,,,,,,,,,,,,,,,,,,201.0,1.0,
178,,iti,,html-keyboard-response,178,106514,0.0-1.0-245.0,0,0,18270,,,,,,,,,,,,,,,,,,,,,,,,,,,,,203.0,2.0,
179,,rl_choice,,html-keyboard-response,179,106876,0.0-1.0-247.0,0,0,18270,,361.0,,,75.0,35.0,35.0,1.0,hard,1500.0,1000.0,0.0,40.0,60.0,20.0,60.0,B,A,/static/Simple_RL/Stimuli/Fractals_stims/B.jpg,/static/Simple_RL/Stimuli/Fractals_stims/A.jpg,0.0,60.0,40.0,60.0,20.0,A,B,0.0,203.361,0.361,
180,,rl_choice_confirmation,,html-keyboard-response,180,108016,0.0-1.0-248.0-0.0,0,0,18270,,,,,,35.0,,,,,,,,,,,,,,,,,,,,,,,204.5,1.139,
181,,isi,,html-keyboard-response,181,108118,0.0-1.0-250.0,0,0,18270,,,,,,,,,,,,,,,,,,,,,,,,,,,,,205.5,1.0,
182,,feedback,,html-keyboard-response,182,109120,0.0-1.0-251.0-0.0,0,0,18270,,,,,,35.0,,,,,,,,,,,,,,,,,,,,,,,206.5,1.0,
183,,iti,,html-keyboard-response,183,109225,0.0-1.0-252.0,0,0,18270,,,,,,,,,,,,,,,,,,,,,,,,,,,,,208.0,1.5,
184,,rl_choice,,html-keyboard-response,184,109618,0.0-1.0-254.0,0,0,18270,,392.0,,,75.0,36.0,36.0,1.0,hard,1000.0,3500.0,0.0,40.0,60.0,40.0,60.0,B,A,/static/Simple_RL/Stimuli/Fractals_stims/B.jpg,/static/Simple_RL/Stimuli/Fractals_stims/A.jpg,0.0,60.0,40.0,60.0,40.0,A,B,0.0,208.392,0.392,
185,,rl_choice_confirmation,,html-keyboard-response,185,110731,0.0-1.0-255.0-0.0,0,0,18270,,,,,,36.0,,,,,,,,,,,,,,,,,,,,,,,209.5,1.1079999999999999,
186,,isi,,html-keyboard-response,186,110833,0.0-1.0-257.0,0,0,18270,,,,,,,,,,,,,,,,,,,,,,,,,,,,,213.0,3.5,
187,,feedback,,html-keyboard-response,187,111835,0.0-1.0-258.0-0.0,0,0,18270,,,,,,36.0,,,,,,,,,,,,,,,,,,,,,,,214.0,1.0,
188,,iti,,html-keyboard-response,188,111937,0.0-1.0-259.0,0,0,18270,,,,,,,,,,,,,,,,,,,,,,,,,,,,,215.0,1.0,
189,,rl_choice,,html-keyboard-response,189,112357,0.0-1.0-261.0,0,0,18270,,418.0,,,68.0,37.0,37.0,1.0,hard,3000.0,1000.0,1.0,60.0,40.0,40.0,20.0,A,B,/static/Simple_RL/Stimuli/Fractals_stims/A.jpg,/static/Simple_RL/Stimuli/Fractals_stims/B.jpg,1.0,60.0,40.0,40.0,20.0,A,B,0.0,215.418,0.418,
190,,rl_choice_confirmation,,html-keyboard-response,190,113440,0.0-1.0-262.0-0.0,0,0,18270,,,,,,37.0,,,,,,,,,,,,,,,,,,,,,,,216.5,1.082,
191,,isi,,html-keyboard-response,191,113544,0.0-1.0-264.0,0,0,18270,,,,,,,,,,,,,,,,,,,,,,,,,,,,,217.5,1.0,
192,,feedback,,html-keyboard-response,192,114550,0.0-1.0-265.0-0.0,0,0,18270,,,,,,37.0,,,,,,,,,,,,,,,,,,,,,,,218.5,1.0,
193,,iti,,html-keyboard-response,193,114651,0.0-1.0-266.0,0,0,18270,,,,,,,,,,,,,,,,,,,,,,,,,,,,,221.5,3.0,
194,,rl_choice,,html-keyboard-response,194,115088,0.0-1.0-268.0,0,0,18270,,436.0,,,68.0,38.0,38.0,1.0,hard,1000.0,1000.0,1.0,60.0,40.0,80.0,40.0,A,B,/static/Simple_RL/Stimuli/Fractals_stims/A.jpg,/static/Simple_RL/Stimuli/Fractals_stims/B.jpg,1.0,60.0,40.0,80.0,40.0,A,B,0.0,221.93599999999998,0.436,
195,,rl_choice_confirmation,,html-keyboard-response,195,116158,0.0-1.0-269.0-0.0,0,0,18270,,,,,,38.0,,,,,,,,,,,,,,,,,,,,,,,223.0,1.064,
196,,isi,,html-keyboard-response,196,116262,0.0-1.0-271.0,0,0,18270,,,,,,,,,,,,,,,,,,,,,,,,,,,,,224.0,1.0,
197,,feedback,,html-keyboard-response,197,117267,0.0-1.0-272.0-0.0,0,0,18270,,,,,,38.0,,,,,,,,,,,,,,,,,,,,,,,225.0,1.0,
198,,iti,,html-keyboard-response,198,117371,0.0-1.0-273.0,0,0,18270,,,,,,,,,,,,,,,,,,,,,,,,,,,,,226.0,1.0,
199,,rl_choice,,html-keyboard-response,199,118176,0.0-1.0-275.0,0,0,18270,,803.0,,,75.0,39.0,39.0,1.0,easy,1500.0,2000.0,0.0,20.0,80.0,20.0,60.0,D,C,/static/Simple_RL/Stimuli/Fractals_stims/D.jpg,/static/Simple_RL/Stimuli/Fractals_stims/C.jpg,0.0,80.0,20.0,60.0,20.0,C,D,0.0,226.803,0.8029999999999999,
200,,rl_choice_confirmation,,html-keyboard-response,200,118877,0.0-1.0-276.0-0.0,0,0,18270,,,,,,39.0,,,,,,,,,,,,,,,,,,,,,,,227.5,0.6970000000000001,
201,,isi,,html-keyboard-response,201,118982,0.0-1.0-278.0,0,0,18270,,,,,,,,,,,,,,,,,,,,,,,,,,,,,229.5,2.0,
202,,feedback,,html-keyboard-response,202,119987,0.0-1.0-279.0-0.0,0,0,18270,,,,,,39.0,,,,,,,,,,,,,,,,,,,,,,,230.5,1.0,
203,,iti,,html-keyboard-response,203,120091,0.0-1.0-280.0,0,0,18270,,,,,,,,,,,,,,,,,,,,,,,,,,,,,232.0,1.5,
204,,block_over,,html-keyboard-response,204,126250,0.0-1.0-281.0-0.0,0,0,18270,,6149.0,,,68.0,39.0,,,,,,,,,,,,,,,,,,,,,,,,,
205,,start_run,,html-keyboard-response,205,127439,0.0-1.0-281.0-1.0,0,0,18270,,1188.0,,,84.0,,,,,,,,,,,,,,,,,,,,,,,,,,
206,,rl_choice,,html-keyboard-response,206,128262,0.0-1.0-282.0,0,0,18270,,822.0,,,68.0,40.0,40.0,2.0,hard,3000.0,1500.0,1.0,60.0,40.0,60.0,40.0,A,B,/static/Simple_RL/Stimuli/Fractals_stims/A.jpg,/static/Simple_RL/Stimuli/Fractals_stims/B.jpg,1.0,60.0,40.0,60.0,40.0,A,B,0.0,0.8220000000000001,0.8220000000000001,
207,,rl_choice_confirmation,,html-keyboard-response,207,128945,0.0-1.0-283.0-0.0,0,0,18270,,,,,,40.0,,,,,,,,,,,,,,,,,,,,,,,1.5,0.6779999999999999,
208,,isi,,html-keyboard-response,208,129046,0.0-1.0-285.0,0,0,18270,,,,,,,,,,,,,,,,,,,,,,,,,,,,,3.0,1.5,
209,,feedback,,html-keyboard-response,209,130049,0.0-1.0-286.0-0.0,0,0,18270,,,,,,40.0,,,,,,,,,,,,,,,,,,,,,,,4.0,1.0,
210,,iti,,html-keyboard-response,210,130150,0.0-1.0-287.0,0,0,18270,,,,,,,,,,,,,,,,,,,,,,,,,,,,,7.0,3.0,
211,,rl_choice,,html-keyboard-response,211,130712,0.0-1.0-289.0,0,0,18270,,561.0,,,75.0,41.0,41.0,2.0,hard,2000.0,1500.0,0.0,40.0,60.0,40.0,60.0,B,A,/static/Simple_RL/Stimuli/Fractals_stims/B.jpg,/static/Simple_RL/Stimuli/Fractals_stims/A.jpg,0.0,60.0,40.0,60.0,40.0,A,B,0.0,7.561,0.561,
212,,rl_choice_confirmation,,html-keyboard-response,212,131654,0.0-1.0-290.0-0.0,0,0,18270,,,,,,41.0,,,,,,,,,,,,,,,,,,,,,,,8.5,0.9390000000000001,
213,,isi,,html-keyboard-response,213,131755,0.0-1.0-292.0,0,0,18270,,,,,,,,,,,,,,,,,,,,,,,,,,,,,10.0,1.5,
214,,feedback,,html-keyboard-response,214,132758,0.0-1.0-293.0-0.0,0,0,18270,,,,,,41.0,,,,,,,,,,,,,,,,,,,,,,,11.0,1.0,
215,,iti,,html-keyboard-response,215,132859,0.0-1.0-294.0,0,0,18270,,,,,,,,,,,,,,,,,,,,,,,,,,,,,13.0,2.0,
216,,rl_choice,,html-keyboard-response,216,133413,0.0-1.0-296.0,0,0,18270,,553.0,,,75.0,42.0,42.0,2.0,easy,1500.0,1000.0,0.0,20.0,80.0,20.0,60.0,D,C,/static/Simple_RL/Stimuli/Fractals_stims/D.jpg,/static/Simple_RL/Stimuli/Fractals_stims/C.jpg,0.0,80.0,20.0,60.0,20.0,C,D,0.0,13.552999999999999,0.5529999999999999,
217,,rl_choice_confirmation,,html-keyboard-response,217,134363,0.0-1.0-297.0-0.0,0,0,18270,,,,,,42.0,,,,,,,,,,,,,,,,,,,,,,,14.5,0.9470000000000001,
218,,isi,,html-keyboard-response,218,134464,0.0-1.0-299.0,0,0,18270,,,,,,,,,,,,,,,,,,,,,,,,,,,,,15.5,1.0,
219,,feedback,,html-keyboard-response,219,135467,0.0-1.0-300.0-0.0,0,0,18270,,,,,,42.0,,,,,,,,,,,,,,,,,,,,,,,16.5,1.0,
220,,iti,,html-keyboard-response,220,135570,0.0-1.0-301.0,0,0,18270,,,,,,,,,,,,,,,,,,,,,,,,,,,,,18.0,1.5,
221,,rl_choice,,html-keyboard-response,221,136961,0.0-1.0-303.0,0,0,18270,,1389.0,,,68.0,43.0,43.0,2.0,easy,1000.0,1500.0,1.0,80.0,20.0,80.0,20.0,C,D,/static/Simple_RL/Stimuli/Fractals_stims/C.jpg,/static/Simple_RL/Stimuli/Fractals_stims/D.jpg,1.0,80.0,20.0,80.0,20.0,C,D,0.0,19.389,1.389,
222,,rl_choice_confirmation,,html-keyboard-response,222,137073,0.0-1.0-304.0-0.0,0,0,18270,,,,,,43.0,,,,,,,,,,,,,,,,,,,,,,,19.5,0.111,
223,,isi,,html-keyboard-response,223,137174,0.0-1.0-306.0,0,0,18270,,,,,,,,,,,,,,,,,,,,,,,,,,,,,21.0,1.5,
224,,feedback,,html-keyboard-response,224,138177,0.0-1.0-307.0-0.0,0,0,18270,,,,,,43.0,,,,,,,,,,,,,,,,,,,,,,,22.0,1.0,
225,,iti,,html-keyboard-response,225,138280,0.0-1.0-308.0,0,0,18270,,,,,,,,,,,,,,,,,,,,,,,,,,,,,23.0,1.0,
226,,rl_choice,,html-keyboard-response,226,138919,0.0-1.0-310.0,0,0,18270,,638.0,,,68.0,44.0,44.0,2.0,easy,3000.0,1000.0,1.0,80.0,20.0,100.0,40.0,C,D,/static/Simple_RL/Stimuli/Fractals_stims/C.jpg,/static/Simple_RL/Stimuli/Fractals_stims/D.jpg,1.0,80.0,20.0,100.0,40.0,C,D,0.0,23.638,0.638,
227,,rl_choice_confirmation,,html-keyboard-response,227,139782,0.0-1.0-311.0-0.0,0,0,18270,,,,,,44.0,,,,,,,,,,,,,,,,,,,,,,,24.5,0.862,
228,,isi,,html-keyboard-response,228,139883,0.0-1.0-313.0,0,0,18270,,,,,,,,,,,,,,,,,,,,,,,,,,,,,25.5,1.0,
229,,feedback,,html-keyboard-response,229,140886,0.0-1.0-314.0-0.0,0,0,18270,,,,,,44.0,,,,,,,,,,,,,,,,,,,,,,,26.5,1.0,
230,,iti,,html-keyboard-response,230,140987,0.0-1.0-315.0,0,0,18270,,,,,,,,,,,,,,,,,,,,,,,,,,,,,29.5,3.0,
231,,rl_choice,,html-keyboard-response,231,141345,0.0-1.0-317.0,0,0,18270,,357.0,,,75.0,45.0,45.0,2.0,hard,1500.0,1000.0,0.0,40.0,60.0,20.0,40.0,B,A,/static/Simple_RL/Stimuli/Fractals_stims/B.jpg,/static/Simple_RL/Stimuli/Fractals_stims/A.jpg,0.0,60.0,40.0,40.0,20.0,A,B,0.0,29.857,0.35700000000000004,
232,,rl_choice_confirmation,,html-keyboard-response,232,142491,0.0-1.0-318.0-0.0,0,0,18270,,,,,,45.0,,,,,,,,,,,,,,,,,,,,,,,31.0,1.143,
233,,isi,,html-keyboard-response,233,142597,0.0-1.0-320.0,0,0,18270,,,,,,,,,,,,,,,,,,,,,,,,,,,,,32.0,1.0,
234,,feedback,,html-keyboard-response,234,143601,0.0-1.0-321.0-0.0,0,0,18270,,,,,,45.0,,,,,,,,,,,,,,,,,,,,,,,33.0,1.0,
235,,iti,,html-keyboard-response,235,143705,0.0-1.0-322.0,0,0,18270,,,,,,,,,,,,,,,,,,,,,,,,,,,,,34.5,1.5,
236,,rl_choice,,html-keyboard-response,236,144265,0.0-1.0-324.0,0,0,18270,,560.0,,,75.0,46.0,46.0,2.0,easy,1000.0,1000.0,0.0,20.0,80.0,20.0,100.0,D,C,/static/Simple_RL/Stimuli/Fractals_stims/D.jpg,/static/Simple_RL/Stimuli/Fractals_stims/C.jpg,0.0,80.0,20.0,100.0,20.0,C,D,0.0,35.06,0.56,
237,,rl_choice_confirmation,,html-keyboard-response,237,145209,0.0-1.0-325.0-0.0,0,0,18270,,,,,,46.0,,,,,,,,,,,,,,,,,,,,,,,36.0,0.94,
238,,isi,,html-keyboard-response,238,145311,0.0-1.0-327.0,0,0,18270,,,,,,,,,,,,,,,,,,,,,,,,,,,,,37.0,1.0,
239,,feedback,,html-keyboard-response,239,146314,0.0-1.0-328.0-0.0,0,0,18270,,,,,,46.0,,,,,,,,,,,,,,,,,,,,,,,38.0,1.0,
240,,iti,,html-keyboard-response,240,146417,0.0-1.0-329.0,0,0,18270,,,,,,,,,,,,,,,,,,,,,,,,,,,,,39.0,1.0,
241,,rl_choice,,html-keyboard-response,241,146836,0.0-1.0-331.0,0,0,18270,,418.0,,,75.0,47.0,47.0,2.0,easy,1000.0,1000.0,0.0,20.0,80.0,0.0,100.0,D,C,/static/Simple_RL/Stimuli/Fractals_stims/D.jpg,/static/Simple_RL/Stimuli/Fractals_stims/C.jpg,0.0,80.0,20.0,100.0,0.0,C,D,0.0,39.418,0.418,
242,,rl_choice_confirmation,,html-keyboard-response,242,147923,0.0-1.0-332.0-0.0,0,0,18270,,,,,,47.0,,,,,,,,,,,,,,,,,,,,,,,40.5,1.082,
243,,isi,,html-keyboard-response,243,148028,0.0-1.0-334.0,0,0,18270,,,,,,,,,,,,,,,,,,,,,,,,,,,,,41.5,1.0,
244,,feedback,,html-keyboard-response,244,149030,0.0-1.0-335.0-0.0,0,0,18270,,,,,,47.0,,,,,,,,,,,,,,,,,,,,,,,42.5,1.0,
245,,iti,,html-keyboard-response,245,149132,0.0-1.0-336.0,0,0,18270,,,,,,,,,,,,,,,,,,,,,,,,,,,,,43.5,1.0,
246,,rl_choice,,html-keyboard-response,246,149527,0.0-1.0-338.0,0,0,18270,,394.0,,,68.0,48.0,48.0,2.0,easy,1000.0,1500.0,1.0,80.0,20.0,60.0,40.0,C,D,/static/Simple_RL/Stimuli/Fractals_stims/C.jpg,/static/Simple_RL/Stimuli/Fractals_stims/D.jpg,1.0,80.0,20.0,60.0,40.0,C,D,0.0,43.894,0.39399999999999996,
247,,rl_choice_confirmation,,html-keyboard-response,247,150636,0.0-1.0-339.0-0.0,0,0,18270,,,,,,48.0,,,,,,,,,,,,,,,,,,,,,,,45.0,1.1059999999999999,
248,,isi,,html-keyboard-response,248,150737,0.0-1.0-341.0,0,0,18270,,,,,,,,,,,,,,,,,,,,,,,,,,,,,46.5,1.5,
249,,feedback,,html-keyboard-response,249,151740,0.0-1.0-342.0-0.0,0,0,18270,,,,,,48.0,,,,,,,,,,,,,,,,,,,,,,,47.5,1.0,
250,,iti,,html-keyboard-response,250,151845,0.0-1.0-343.0,0,0,18270,,,,,,,,,,,,,,,,,,,,,,,,,,,,,48.5,1.0,
251,,rl_choice,,html-keyboard-response,251,152715,0.0-1.0-345.0,0,0,18270,,869.0,,,68.0,49.0,49.0,2.0,hard,3500.0,1000.0,1.0,60.0,40.0,80.0,20.0,A,B,/static/Simple_RL/Stimuli/Fractals_stims/A.jpg,/static/Simple_RL/Stimuli/Fractals_stims/B.jpg,1.0,60.0,40.0,80.0,20.0,A,B,0.0,49.369,0.8690000000000001,
252,,rl_choice_confirmation,,html-keyboard-response,252,153350,0.0-1.0-346.0-0.0,0,0,18270,,,,,,49.0,,,,,,,,,,,,,,,,,,,,,,,50.0,0.631,
253,,isi,,html-keyboard-response,253,153454,0.0-1.0-348.0,0,0,18270,,,,,,,,,,,,,,,,,,,,,,,,,,,,,51.0,1.0,
254,,feedback,,html-keyboard-response,254,154459,0.0-1.0-349.0-0.0,0,0,18270,,,,,,49.0,,,,,,,,,,,,,,,,,,,,,,,52.0,1.0,
255,,iti,,html-keyboard-response,255,154561,0.0-1.0-350.0,0,0,18270,,,,,,,,,,,,,,,,,,,,,,,,,,,,,55.5,3.5,
256,,rl_choice,,html-keyboard-response,256,155395,0.0-1.0-352.0,0,0,18270,,834.0,,,75.0,50.0,50.0,2.0,hard,1500.0,1500.0,0.0,40.0,60.0,60.0,40.0,B,A,/static/Simple_RL/Stimuli/Fractals_stims/B.jpg,/static/Simple_RL/Stimuli/Fractals_stims/A.jpg,0.0,60.0,40.0,40.0,60.0,A,B,0.0,56.333999999999996,0.8340000000000001,
257,,rl_choice_confirmation,,html-keyboard-response,257,156065,0.0-1.0-353.0-0.0,0,0,18270,,,,,,50.0,,,,,,,,,,,,,,,,,,,,,,,57.0,0.6659999999999999,
258,,isi,,html-keyboard-response,258,156169,0.0-1.0-355.0,0,0,18270,,,,,,,,,,,,,,,,,,,,,,,,,,,,,58.5,1.5,
259,,feedback,,html-keyboard-response,259,157175,0.0-1.0-356.0-0.0,0,0,18270,,,,,,50.0,,,,,,,,,,,,,,,,,,,,,,,59.5,1.0,
260,,iti,,html-keyboard-response,260,157277,0.0-1.0-357.0,0,0,18270,,,,,,,,,,,,,,,,,,,,,,,,,,,,,61.0,1.5,
261,,rl_choice,,html-keyboard-response,261,157843,0.0-1.0-359.0,0,0,18270,,564.0,,,68.0,51.0,51.0,2.0,hard,1000.0,1000.0,1.0,60.0,40.0,80.0,40.0,A,B,/static/Simple_RL/Stimuli/Fractals_stims/A.jpg,/static/Simple_RL/Stimuli/Fractals_stims/B.jpg,1.0,60.0,40.0,80.0,40.0,A,B,0.0,61.56399999999999,0.564,
262,,rl_choice_confirmation,,html-keyboard-response,262,158781,0.0-1.0-360.0-0.0,0,0,18270,,,,,,51.0,,,,,,,,,,,,,,,,,,,,,,,62.5,0.9359999999999999,
263,,isi,,html-keyboard-response,263,158886,0.0-1.0-362.0,0,0,18270,,,,,,,,,,,,,,,,,,,,,,,,,,,,,63.5,1.0,
264,,feedback,,html-keyboard-response,264,159891,0.0-1.0-363.0-0.0,0,0,18270,,,,,,51.0,,,,,,,,,,,,,,,,,,,,,,,64.5,1.0,
265,,iti,,html-keyboard-response,265,159996,0.0-1.0-364.0,0,0,18270,,,,,,,,,,,,,,,,,,,,,,,,,,,,,65.5,1.0,
266,,rl_choice,,html-keyboard-response,266,160450,0.0-1.0-366.0,0,0,18270,,454.0,,,68.0,52.0,52.0,2.0,easy,1500.0,2000.0,1.0,80.0,20.0,80.0,40.0,C,D,/static/Simple_RL/Stimuli/Fractals_stims/C.jpg,/static/Simple_RL/Stimuli/Fractals_stims/D.jpg,1.0,80.0,20.0,80.0,40.0,C,D,0.0,65.954,0.45399999999999996,
267,,rl_choice_confirmation,,html-keyboard-response,267,161500,0.0-1.0-367.0-0.0,0,0,18270,,,,,,52.0,,,,,,,,,,,,,,,,,,,,,,,67.0,1.046,
268,,isi,,html-keyboard-response,268,161603,0.0-1.0-369.0,0,0,18270,,,,,,,,,,,,,,,,,,,,,,,,,,,,,69.0,2.0,
269,,feedback,,html-keyboard-response,269,162607,0.0-1.0-370.0-0.0,0,0,18270,,,,,,52.0,,,,,,,,,,,,,,,,,,,,,,,70.0,1.0,
270,,iti,,html-keyboard-response,270,162713,0.0-1.0-371.0,0,0,18270,,,,,,,,,,,,,,,,,,,,,,,,,,,,,71.5,1.5,
271,,rl_choice,,html-keyboard-response,271,163476,0.0-1.0-373.0,0,0,18270,,762.0,,,75.0,53.0,53.0,2.0,easy,2000.0,1500.0,0.0,20.0,80.0,20.0,60.0,D,C,/static/Simple_RL/Stimuli/Fractals_stims/D.jpg,/static/Simple_RL/Stimuli/Fractals_stims/C.jpg,0.0,80.0,20.0,60.0,20.0,C,D,0.0,72.262,0.762,
272,,rl_choice_confirmation,,html-keyboard-response,272,164220,0.0-1.0-374.0-0.0,0,0,18270,,,,,,53.0,,,,,,,,,,,,,,,,,,,,,,,73.0,0.738,
273,,isi,,html-keyboard-response,273,164326,0.0-1.0-376.0,0,0,18270,,,,,,,,,,,,,,,,,,,,,,,,,,,,,74.5,1.5,
274,,feedback,,html-keyboard-response,274,165332,0.0-1.0-377.0-0.0,0,0,18270,,,,,,53.0,,,,,,,,,,,,,,,,,,,,,,,75.5,1.0,
275,,iti,,html-keyboard-response,275,165436,0.0-1.0-378.0,0,0,18270,,,,,,,,,,,,,,,,,,,,,,,,,,,,,77.5,2.0,
276,,rl_choice,,html-keyboard-response,276,165891,0.0-1.0-380.0,0,0,18270,,454.0,,,68.0,54.0,54.0,2.0,hard,1000.0,1000.0,1.0,60.0,40.0,60.0,20.0,A,B,/static/Simple_RL/Stimuli/Fractals_stims/A.jpg,/static/Simple_RL/Stimuli/Fractals_stims/B.jpg,1.0,60.0,40.0,60.0,20.0,A,B,0.0,77.954,0.45399999999999996,
277,,rl_choice_confirmation,,html-keyboard-response,277,166944,0.0-1.0-381.0-0.0,0,0,18270,,,,,,54.0,,,,,,,,,,,,,,,,,,,,,,,79.0,1.046,
278,,isi,,html-keyboard-response,278,167047,0.0-1.0-383.0,0,0,18270,,,,,,,,,,,,,,,,,,,,,,,,,,,,,80.0,1.0,
279,,feedback,,html-keyboard-response,279,168053,0.0-1.0-384.0-0.0,0,0,18270,,,,,,54.0,,,,,,,,,,,,,,,,,,,,,,,81.0,1.0,
280,,iti,,html-keyboard-response,280,168156,0.0-1.0-385.0,0,0,18270,,,,,,,,,,,,,,,,,,,,,,,,,,,,,82.0,1.0,
281,,rl_choice,,html-keyboard-response,281,168610,0.0-1.0-387.0,0,0,18270,,453.0,,,68.0,55.0,55.0,2.0,hard,2000.0,1000.0,1.0,60.0,40.0,80.0,60.0,A,B,/static/Simple_RL/Stimuli/Fractals_stims/A.jpg,/static/Simple_RL/Stimuli/Fractals_stims/B.jpg,1.0,60.0,40.0,80.0,60.0,A,B,0.0,82.45299999999999,0.45299999999999996,
282,,rl_choice_confirmation,,html-keyboard-response,282,169660,0.0-1.0-388.0-0.0,0,0,18270,,,,,,55.0,,,,,,,,,,,,,,,,,,,,,,,83.5,1.047,
283,,isi,,html-keyboard-response,283,169765,0.0-1.0-390.0,0,0,18270,,,,,,,,,,,,,,,,,,,,,,,,,,,,,84.5,1.0,
284,,feedback,,html-keyboard-response,284,170769,0.0-1.0-391.0-0.0,0,0,18270,,,,,,55.0,,,,,,,,,,,,,,,,,,,,,,,85.5,1.0,
285,,iti,,html-keyboard-response,285,170874,0.0-1.0-392.0,0,0,18270,,,,,,,,,,,,,,,,,,,,,,,,,,,,,87.5,2.0,
286,,rl_choice,,html-keyboard-response,286,171317,0.0-1.0-394.0,0,0,18270,,442.0,,,68.0,56.0,56.0,2.0,hard,2000.0,1000.0,1.0,60.0,40.0,80.0,40.0,A,B,/static/Simple_RL/Stimuli/Fractals_stims/A.jpg,/static/Simple_RL/Stimuli/Fractals_stims/B.jpg,1.0,60.0,40.0,80.0,40.0,A,B,0.0,87.94200000000001,0.442,
287,,rl_choice_confirmation,,html-keyboard-response,287,172377,0.0-1.0-395.0-0.0,0,0,18270,,,,,,56.0,,,,,,,,,,,,,,,,,,,,,,,89.0,1.058,
288,,isi,,html-keyboard-response,288,172482,0.0-1.0-397.0,0,0,18270,,,,,,,,,,,,,,,,,,,,,,,,,,,,,90.0,1.0,
289,,feedback,,html-keyboard-response,289,173486,0.0-1.0-398.0-0.0,0,0,18270,,,,,,56.0,,,,,,,,,,,,,,,,,,,,,,,91.0,1.0,
290,,iti,,html-keyboard-response,290,173591,0.0-1.0-399.0,0,0,18270,,,,,,,,,,,,,,,,,,,,,,,,,,,,,93.0,2.0,
291,,rl_choice,,html-keyboard-response,291,173982,0.0-1.0-401.0,0,0,18270,,390.0,,,68.0,57.0,57.0,2.0,hard,1000.0,2000.0,1.0,60.0,40.0,60.0,40.0,A,B,/static/Simple_RL/Stimuli/Fractals_stims/A.jpg,/static/Simple_RL/Stimuli/Fractals_stims/B.jpg,1.0,60.0,40.0,60.0,40.0,A,B,0.0,93.39,0.39,
292,,rl_choice_confirmation,,html-keyboard-response,292,175098,0.0-1.0-402.0-0.0,0,0,18270,,,,,,57.0,,,,,,,,,,,,,,,,,,,,,,,94.5,1.11,
293,,isi,,html-keyboard-response,293,175203,0.0-1.0-404.0,0,0,18270,,,,,,,,,,,,,,,,,,,,,,,,,,,,,96.5,2.0,
294,,feedback,,html-keyboard-response,294,176209,0.0-1.0-405.0-0.0,0,0,18270,,,,,,57.0,,,,,,,,,,,,,,,,,,,,,,,97.5,1.0,
295,,iti,,html-keyboard-response,295,176315,0.0-1.0-406.0,0,0,18270,,,,,,,,,,,,,,,,,,,,,,,,,,,,,98.5,1.0,
296,,rl_choice,,html-keyboard-response,296,177148,0.0-1.0-408.0,0,0,18270,,832.0,,,68.0,58.0,58.0,2.0,easy,1500.0,3500.0,1.0,80.0,20.0,80.0,0.0,C,D,/static/Simple_RL/Stimuli/Fractals_stims/C.jpg,/static/Simple_RL/Stimuli/Fractals_stims/D.jpg,1.0,80.0,20.0,80.0,0.0,C,D,0.0,99.33200000000001,0.8320000000000001,
297,,rl_choice_confirmation,,html-keyboard-response,297,177823,0.0-1.0-409.0-0.0,0,0,18270,,,,,,58.0,,,,,,,,,,,,,,,,,,,,,,,100.0,0.6679999999999999,
298,,isi,,html-keyboard-response,298,177927,0.0-1.0-411.0,0,0,18270,,,,,,,,,,,,,,,,,,,,,,,,,,,,,103.5,3.5,
299,,feedback,,html-keyboard-response,299,178932,0.0-1.0-412.0-0.0,0,0,18270,,,,,,58.0,,,,,,,,,,,,,,,,,,,,,,,104.5,1.0,
300,,iti,,html-keyboard-response,300,179036,0.0-1.0-413.0,0,0,18270,,,,,,,,,,,,,,,,,,,,,,,,,,,,,106.0,1.5,
301,,rl_choice,,html-keyboard-response,301,179481,0.0-1.0-415.0,0,0,18270,,443.0,,,68.0,59.0,59.0,2.0,hard,1000.0,2000.0,1.0,60.0,40.0,80.0,40.0,A,B,/static/Simple_RL/Stimuli/Fractals_stims/A.jpg,/static/Simple_RL/Stimuli/Fractals_stims/B.jpg,1.0,60.0,40.0,80.0,40.0,A,B,0.0,106.443,0.44299999999999995,
302,,rl_choice_confirmation,,html-keyboard-response,302,180542,0.0-1.0-416.0-0.0,0,0,18270,,,,,,59.0,,,,,,,,,,,,,,,,,,,,,,,107.5,1.057,
303,,isi,,html-keyboard-response,303,180647,0.0-1.0-418.0,0,0,18270,,,,,,,,,,,,,,,,,,,,,,,,,,,,,109.5,2.0,
304,,feedback,,html-keyboard-response,304,181650,0.0-1.0-419.0-0.0,0,0,18270,,,,,,59.0,,,,,,,,,,,,,,,,,,,,,,,110.5,1.0,
305,,iti,,html-keyboard-response,305,181752,0.0-1.0-420.0,0,0,18270,,,,,,,,,,,,,,,,,,,,,,,,,,,,,111.5,1.0,
306,,rl_choice,,html-keyboard-response,306,182152,0.0-1.0-422.0,0,0,18270,,398.0,,,68.0,60.0,60.0,2.0,easy,2000.0,1500.0,1.0,80.0,20.0,80.0,20.0,C,D,/static/Simple_RL/Stimuli/Fractals_stims/C.jpg,/static/Simple_RL/Stimuli/Fractals_stims/D.jpg,1.0,80.0,20.0,80.0,20.0,C,D,0.0,111.898,0.39799999999999996,
307,,rl_choice_confirmation,,html-keyboard-response,307,183259,0.0-1.0-423.0-0.0,0,0,18270,,,,,,60.0,,,,,,,,,,,,,,,,,,,,,,,113.0,1.102,
308,,isi,,html-keyboard-response,308,183362,0.0-1.0-425.0,0,0,18270,,,,,,,,,,,,,,,,,,,,,,,,,,,,,114.5,1.5,
309,,feedback,,html-keyboard-response,309,184367,0.0-1.0-426.0-0.0,0,0,18270,,,,,,60.0,,,,,,,,,,,,,,,,,,,,,,,115.5,1.0,
310,,iti,,html-keyboard-response,310,184472,0.0-1.0-427.0,0,0,18270,,,,,,,,,,,,,,,,,,,,,,,,,,,,,117.5,2.0,
311,,rl_choice,,html-keyboard-response,311,185231,0.0-1.0-429.0,0,0,18270,,758.0,,,75.0,61.0,61.0,2.0,hard,3000.0,3500.0,0.0,40.0,60.0,40.0,60.0,B,A,/static/Simple_RL/Stimuli/Fractals_stims/B.jpg,/static/Simple_RL/Stimuli/Fractals_stims/A.jpg,0.0,60.0,40.0,60.0,40.0,A,B,0.0,118.258,0.758,
312,,rl_choice_confirmation,,html-keyboard-response,312,185979,0.0-1.0-430.0-0.0,0,0,18270,,,,,,61.0,,,,,,,,,,,,,,,,,,,,,,,119.0,0.742,
313,,isi,,html-keyboard-response,313,186082,0.0-1.0-432.0,0,0,18270,,,,,,,,,,,,,,,,,,,,,,,,,,,,,122.5,3.5,
314,,feedback,,html-keyboard-response,314,187087,0.0-1.0-433.0-0.0,0,0,18270,,,,,,61.0,,,,,,,,,,,,,,,,,,,,,,,123.5,1.0,
315,,iti,,html-keyboard-response,315,187192,0.0-1.0-434.0,0,0,18270,,,,,,,,,,,,,,,,,,,,,,,,,,,,,126.5,3.0,
316,,rl_choice,,html-keyboard-response,316,187661,0.0-1.0-436.0,0,0,18270,,468.0,,,75.0,62.0,62.0,2.0,easy,3000.0,3000.0,0.0,20.0,80.0,20.0,80.0,D,C,/static/Simple_RL/Stimuli/Fractals_stims/D.jpg,/static/Simple_RL/Stimuli/Fractals_stims/C.jpg,0.0,80.0,20.0,80.0,20.0,C,D,0.0,126.96799999999999,0.46799999999999997,
317,,rl_choice_confirmation,,html-keyboard-response,317,188696,0.0-1.0-437.0-0.0,0,0,18270,,,,,,62.0,,,,,,,,,,,,,,,,,,,,,,,128.0,1.032,
318,,isi,,html-keyboard-response,318,188797,0.0-1.0-439.0,0,0,18270,,,,,,,,,,,,,,,,,,,,,,,,,,,,,131.0,3.0,
319,,feedback,,html-keyboard-response,319,189799,0.0-1.0-440.0-0.0,0,0,18270,,,,,,62.0,,,,,,,,,,,,,,,,,,,,,,,132.0,1.0,
320,,iti,,html-keyboard-response,320,189903,0.0-1.0-441.0,0,0,18270,,,,,,,,,,,,,,,,,,,,,,,,,,,,,135.0,3.0,
321,,rl_choice,,html-keyboard-response,321,190423,0.0-1.0-443.0,0,0,18270,,519.0,,,68.0,63.0,63.0,2.0,easy,1500.0,1000.0,1.0,80.0,20.0,100.0,0.0,C,D,/static/Simple_RL/Stimuli/Fractals_stims/C.jpg,/static/Simple_RL/Stimuli/Fractals_stims/D.jpg,1.0,80.0,20.0,100.0,0.0,C,D,0.0,135.519,0.519,
322,,rl_choice_confirmation,,html-keyboard-response,322,191410,0.0-1.0-444.0-0.0,0,0,18270,,,,,,63.0,,,,,,,,,,,,,,,,,,,,,,,136.5,0.981,
323,,isi,,html-keyboard-response,323,191511,0.0-1.0-446.0,0,0,18270,,,,,,,,,,,,,,,,,,,,,,,,,,,,,137.5,1.0,
324,,feedback,,html-keyboard-response,324,192513,0.0-1.0-447.0-0.0,0,0,18270,,,,,,63.0,,,,,,,,,,,,,,,,,,,,,,,138.5,1.0,
325,,iti,,html-keyboard-response,325,192615,0.0-1.0-448.0,0,0,18270,,,,,,,,,,,,,,,,,,,,,,,,,,,,,140.0,1.5,
326,,rl_choice,,html-keyboard-response,326,193115,0.0-1.0-450.0,0,0,18270,,498.0,,,75.0,64.0,64.0,2.0,hard,1000.0,2000.0,0.0,40.0,60.0,20.0,60.0,B,A,/static/Simple_RL/Stimuli/Fractals_stims/B.jpg,/static/Simple_RL/Stimuli/Fractals_stims/A.jpg,0.0,60.0,40.0,60.0,20.0,A,B,0.0,140.498,0.498,
327,,rl_choice_confirmation,,html-keyboard-response,327,194119,0.0-1.0-451.0-0.0,0,0,18270,,,,,,64.0,,,,,,,,,,,,,,,,,,,,,,,141.5,1.002,
328,,isi,,html-keyboard-response,328,194221,0.0-1.0-453.0,0,0,18270,,,,,,,,,,,,,,,,,,,,,,,,,,,,,143.5,2.0,
329,,feedback,,html-keyboard-response,329,195227,0.0-1.0-454.0-0.0,0,0,18270,,,,,,64.0,,,,,,,,,,,,,,,,,,,,,,,144.5,1.0,
330,,iti,,html-keyboard-response,330,195332,0.0-1.0-455.0,0,0,18270,,,,,,,,,,,,,,,,,,,,,,,,,,,,,145.5,1.0,
331,,rl_choice,,html-keyboard-response,331,196249,0.0-1.0-457.0,0,0,18270,,915.0,,,75.0,65.0,65.0,2.0,easy,1000.0,2000.0,0.0,20.0,80.0,0.0,80.0,D,C,/static/Simple_RL/Stimuli/Fractals_stims/D.jpg,/static/Simple_RL/Stimuli/Fractals_stims/C.jpg,0.0,80.0,20.0,80.0,0.0,C,D,0.0,146.415,0.915,
332,,rl_choice_confirmation,,html-keyboard-response,332,196839,0.0-1.0-458.0-0.0,0,0,18270,,,,,,65.0,,,,,,,,,,,,,,,,,,,,,,,147.0,0.585,
333,,isi,,html-keyboard-response,333,196941,0.0-1.0-460.0,0,0,18270,,,,,,,,,,,,,,,,,,,,,,,,,,,,,149.0,2.0,
334,,feedback,,html-keyboard-response,334,197943,0.0-1.0-461.0-0.0,0,0,18270,,,,,,65.0,,,,,,,,,,,,,,,,,,,,,,,150.0,1.0,
335,,iti,,html-keyboard-response,335,198045,0.0-1.0-462.0,0,0,18270,,,,,,,,,,,,,,,,,,,,,,,,,,,,,151.0,1.0,
336,,rl_choice,,html-keyboard-response,336,198564,0.0-1.0-464.0,0,0,18270,,518.0,,,68.0,66.0,66.0,2.0,easy,1000.0,1500.0,1.0,80.0,20.0,60.0,20.0,C,D,/static/Simple_RL/Stimuli/Fractals_stims/C.jpg,/static/Simple_RL/Stimuli/Fractals_stims/D.jpg,1.0,80.0,20.0,60.0,20.0,C,D,0.0,151.518,0.518,
337,,rl_choice_confirmation,,html-keyboard-response,337,199549,0.0-1.0-465.0-0.0,0,0,18270,,,,,,66.0,,,,,,,,,,,,,,,,,,,,,,,152.5,0.982,
338,,isi,,html-keyboard-response,338,199650,0.0-1.0-467.0,0,0,18270,,,,,,,,,,,,,,,,,,,,,,,,,,,,,154.0,1.5,
339,,feedback,,html-keyboard-response,339,200653,0.0-1.0-468.0-0.0,0,0,18270,,,,,,66.0,,,,,,,,,,,,,,,,,,,,,,,155.0,1.0,
340,,iti,,html-keyboard-response,340,200754,0.0-1.0-469.0,0,0,18270,,,,,,,,,,,,,,,,,,,,,,,,,,,,,156.0,1.0,
341,,rl_choice,,html-keyboard-response,341,201268,0.0-1.0-471.0,0,0,18270,,513.0,,,75.0,67.0,67.0,2.0,easy,2000.0,2000.0,0.0,20.0,80.0,0.0,100.0,D,C,/static/Simple_RL/Stimuli/Fractals_stims/D.jpg,/static/Simple_RL/Stimuli/Fractals_stims/C.jpg,0.0,80.0,20.0,100.0,0.0,C,D,0.0,156.513,0.513,
342,,rl_choice_confirmation,,html-keyboard-response,342,202260,0.0-1.0-472.0-0.0,0,0,18270,,,,,,67.0,,,,,,,,,,,,,,,,,,,,,,,157.5,0.987,
343,,isi,,html-keyboard-response,343,202365,0.0-1.0-474.0,0,0,18270,,,,,,,,,,,,,,,,,,,,,,,,,,,,,159.5,2.0,
344,,feedback,,html-keyboard-response,344,203368,0.0-1.0-475.0-0.0,0,0,18270,,,,,,67.0,,,,,,,,,,,,,,,,,,,,,,,160.5,1.0,
345,,iti,,html-keyboard-response,345,203469,0.0-1.0-476.0,0,0,18270,,,,,,,,,,,,,,,,,,,,,,,,,,,,,162.5,2.0,
346,,rl_choice,,html-keyboard-response,346,204108,0.0-1.0-478.0,0,0,18270,,637.0,,,75.0,68.0,68.0,2.0,easy,1000.0,2000.0,0.0,20.0,80.0,0.0,100.0,D,C,/static/Simple_RL/Stimuli/Fractals_stims/D.jpg,/static/Simple_RL/Stimuli/Fractals_stims/C.jpg,0.0,80.0,20.0,100.0,0.0,C,D,0.0,163.137,0.637,
347,,rl_choice_confirmation,,html-keyboard-response,347,204973,0.0-1.0-479.0-0.0,0,0,18270,,,,,,68.0,,,,,,,,,,,,,,,,,,,,,,,164.0,0.863,
348,,isi,,html-keyboard-response,348,205074,0.0-1.0-481.0,0,0,18270,,,,,,,,,,,,,,,,,,,,,,,,,,,,,166.0,2.0,
349,,feedback,,html-keyboard-response,349,206077,0.0-1.0-482.0-0.0,0,0,18270,,,,,,68.0,,,,,,,,,,,,,,,,,,,,,,,167.0,1.0,
350,,iti,,html-keyboard-response,350,206178,0.0-1.0-483.0,0,0,18270,,,,,,,,,,,,,,,,,,,,,,,,,,,,,168.0,1.0,
351,,rl_choice,,html-keyboard-response,351,206882,0.0-1.0-485.0,0,0,18270,,703.0,,,75.0,69.0,69.0,2.0,hard,1500.0,3000.0,0.0,40.0,60.0,60.0,80.0,B,A,/static/Simple_RL/Stimuli/Fractals_stims/B.jpg,/static/Simple_RL/Stimuli/Fractals_stims/A.jpg,0.0,60.0,40.0,80.0,60.0,A,B,0.0,168.703,0.703,
352,,rl_choice_confirmation,,html-keyboard-response,352,207682,0.0-1.0-486.0-0.0,0,0,18270,,,,,,69.0,,,,,,,,,,,,,,,,,,,,,,,169.5,0.797,
353,,isi,,html-keyboard-response,353,207783,0.0-1.0-488.0,0,0,18270,,,,,,,,,,,,,,,,,,,,,,,,,,,,,172.5,3.0,
354,,feedback,,html-keyboard-response,354,208786,0.0-1.0-489.0-0.0,0,0,18270,,,,,,69.0,,,,,,,,,,,,,,,,,,,,,,,173.5,1.0,
355,,iti,,html-keyboard-response,355,208888,0.0-1.0-490.0,0,0,18270,,,,,,,,,,,,,,,,,,,,,,,,,,,,,175.0,1.5,
356,,rl_choice,,html-keyboard-response,356,209422,0.0-1.0-492.0,0,0,18270,,534.0,,,75.0,70.0,70.0,2.0,hard,1000.0,1500.0,0.0,40.0,60.0,20.0,80.0,B,A,/static/Simple_RL/Stimuli/Fractals_stims/B.jpg,/static/Simple_RL/Stimuli/Fractals_stims/A.jpg,0.0,60.0,40.0,80.0,20.0,A,B,0.0,175.53400000000002,0.534,
357,,rl_choice_confirmation,,html-keyboard-response,357,210392,0.0-1.0-493.0-0.0,0,0,18270,,,,,,70.0,,,,,,,,,,,,,,,,,,,,,,,176.5,0.966,
358,,isi,,html-keyboard-response,358,210493,0.0-1.0-495.0,0,0,18270,,,,,,,,,,,,,,,,,,,,,,,,,,,,,178.0,1.5,
359,,feedback,,html-keyboard-response,359,211498,0.0-1.0-496.0-0.0,0,0,18270,,,,,,70.0,,,,,,,,,,,,,,,,,,,,,,,179.0,1.0,
360,,iti,,html-keyboard-response,360,211602,0.0-1.0-497.0,0,0,18270,,,,,,,,,,,,,,,,,,,,,,,,,,,,,180.0,1.0,
361,,rl_choice,,html-keyboard-response,361,212927,0.0-1.0-499.0,0,0,18270,,1324.0,,,75.0,71.0,71.0,2.0,easy,1500.0,1000.0,0.0,20.0,80.0,40.0,80.0,D,C,/static/Simple_RL/Stimuli/Fractals_stims/D.jpg,/static/Simple_RL/Stimuli/Fractals_stims/C.jpg,0.0,80.0,20.0,80.0,40.0,C,D,0.0,181.324,1.324,
362,,rl_choice_confirmation,,html-keyboard-response,362,213106,0.0-1.0-500.0-0.0,0,0,18270,,,,,,71.0,,,,,,,,,,,,,,,,,,,,,,,181.5,0.17600000000000002,
363,,isi,,html-keyboard-response,363,213211,0.0-1.0-502.0,0,0,18270,,,,,,,,,,,,,,,,,,,,,,,,,,,,,182.5,1.0,
364,,feedback,,html-keyboard-response,364,214216,0.0-1.0-503.0-0.0,0,0,18270,,,,,,71.0,,,,,,,,,,,,,,,,,,,,,,,183.5,1.0,
365,,iti,,html-keyboard-response,365,214321,0.0-1.0-504.0,0,0,18270,,,,,,,,,,,,,,,,,,,,,,,,,,,,,185.0,1.5,
366,,rl_choice,,html-keyboard-response,366,214939,0.0-1.0-506.0,0,0,18270,,618.0,,,75.0,72.0,72.0,2.0,hard,1000.0,1000.0,0.0,40.0,60.0,40.0,40.0,B,A,/static/Simple_RL/Stimuli/Fractals_stims/B.jpg,/static/Simple_RL/Stimuli/Fractals_stims/A.jpg,0.0,60.0,40.0,40.0,40.0,A,B,0.0,185.618,0.618,
367,,rl_choice_confirmation,,html-keyboard-response,367,215826,0.0-1.0-507.0-0.0,0,0,18270,,,,,,72.0,,,,,,,,,,,,,,,,,,,,,,,186.5,0.882,
368,,isi,,html-keyboard-response,368,215931,0.0-1.0-509.0,0,0,18270,,,,,,,,,,,,,,,,,,,,,,,,,,,,,187.5,1.0,
369,,feedback,,html-keyboard-response,369,216936,0.0-1.0-510.0-0.0,0,0,18270,,,,,,72.0,,,,,,,,,,,,,,,,,,,,,,,188.5,1.0,
370,,iti,,html-keyboard-response,370,217040,0.0-1.0-511.0,0,0,18270,,,,,,,,,,,,,,,,,,,,,,,,,,,,,189.5,1.0,
371,,rl_choice,,html-keyboard-response,371,217544,0.0-1.0-513.0,0,0,18270,,503.0,,,75.0,73.0,73.0,2.0,hard,1000.0,1000.0,0.0,40.0,60.0,20.0,40.0,B,A,/static/Simple_RL/Stimuli/Fractals_stims/B.jpg,/static/Simple_RL/Stimuli/Fractals_stims/A.jpg,0.0,60.0,40.0,40.0,20.0,A,B,0.0,190.003,0.503,
372,,rl_choice_confirmation,,html-keyboard-response,372,218546,0.0-1.0-514.0-0.0,0,0,18270,,,,,,73.0,,,,,,,,,,,,,,,,,,,,,,,191.0,0.997,
373,,isi,,html-keyboard-response,373,218651,0.0-1.0-516.0,0,0,18270,,,,,,,,,,,,,,,,,,,,,,,,,,,,,192.0,1.0,
374,,feedback,,html-keyboard-response,374,219656,0.0-1.0-517.0-0.0,0,0,18270,,,,,,73.0,,,,,,,,,,,,,,,,,,,,,,,193.0,1.0,
375,,iti,,html-keyboard-response,375,219760,0.0-1.0-518.0,0,0,18270,,,,,,,,,,,,,,,,,,,,,,,,,,,,,194.0,1.0,
376,,rl_choice,,html-keyboard-response,376,220277,0.0-1.0-520.0,0,0,18270,,516.0,,,75.0,74.0,74.0,2.0,hard,1500.0,2000.0,0.0,40.0,60.0,60.0,60.0,B,A,/static/Simple_RL/Stimuli/Fractals_stims/B.jpg,/static/Simple_RL/Stimuli/Fractals_stims/A.jpg,0.0,60.0,40.0,60.0,60.0,A,B,0.0,194.516,0.516,
377,,rl_choice_confirmation,,html-keyboard-response,377,221267,0.0-1.0-521.0-0.0,0,0,18270,,,,,,74.0,,,,,,,,,,,,,,,,,,,,,,,195.5,0.9840000000000001,
378,,isi,,html-keyboard-response,378,221372,0.0-1.0-523.0,0,0,18270,,,,,,,,,,,,,,,,,,,,,,,,,,,,,197.5,2.0,
379,,feedback,,html-keyboard-response,379,222375,0.0-1.0-524.0-0.0,0,0,18270,,,,,,74.0,,,,,,,,,,,,,,,,,,,,,,,198.5,1.0,
380,,iti,,html-keyboard-response,380,222479,0.0-1.0-525.0,0,0,18270,,,,,,,,,,,,,,,,,,,,,,,,,,,,,200.0,1.5,
381,,rl_choice,,html-keyboard-response,381,223316,0.0-1.0-527.0,0,0,18270,,837.0,,,75.0,75.0,75.0,2.0,easy,2000.0,1000.0,0.0,20.0,80.0,0.0,60.0,D,C,/static/Simple_RL/Stimuli/Fractals_stims/D.jpg,/static/Simple_RL/Stimuli/Fractals_stims/C.jpg,0.0,80.0,20.0,60.0,0.0,C,D,0.0,200.83700000000002,0.8370000000000001,
382,,rl_choice_confirmation,,html-keyboard-response,382,223981,0.0-1.0-528.0-0.0,0,0,18270,,,,,,75.0,,,,,,,,,,,,,,,,,,,,,,,201.5,0.6629999999999999,
383,,isi,,html-keyboard-response,383,224084,0.0-1.0-530.0,0,0,18270,,,,,,,,,,,,,,,,,,,,,,,,,,,,,202.5,1.0,
384,,feedback,,html-keyboard-response,384,225085,0.0-1.0-531.0-0.0,0,0,18270,,,,,,75.0,,,,,,,,,,,,,,,,,,,,,,,203.5,1.0,
385,,iti,,html-keyboard-response,385,225187,0.0-1.0-532.0,0,0,18270,,,,,,,,,,,,,,,,,,,,,,,,,,,,,205.5,2.0,
386,,rl_choice,,html-keyboard-response,386,226182,0.0-1.0-534.0,0,0,18270,,995.0,,,75.0,76.0,76.0,2.0,easy,3500.0,3000.0,0.0,20.0,80.0,0.0,80.0,D,C,/static/Simple_RL/Stimuli/Fractals_stims/D.jpg,/static/Simple_RL/Stimuli/Fractals_stims/C.jpg,0.0,80.0,20.0,80.0,0.0,C,D,0.0,206.495,0.995,
387,,rl_choice_confirmation,,html-keyboard-response,387,226689,0.0-1.0-535.0-0.0,0,0,18270,,,,,,76.0,,,,,,,,,,,,,,,,,,,,,,,207.0,0.505,
388,,isi,,html-keyboard-response,388,226792,0.0-1.0-537.0,0,0,18270,,,,,,,,,,,,,,,,,,,,,,,,,,,,,210.0,3.0,
389,,feedback,,html-keyboard-response,389,227795,0.0-1.0-538.0-0.0,0,0,18270,,,,,,76.0,,,,,,,,,,,,,,,,,,,,,,,211.0,1.0,
390,,iti,,html-keyboard-response,390,227896,0.0-1.0-539.0,0,0,18270,,,,,,,,,,,,,,,,,,,,,,,,,,,,,214.5,3.5,
391,,rl_choice,,html-keyboard-response,391,228292,0.0-1.0-541.0,0,0,18270,,396.0,,,68.0,77.0,77.0,2.0,easy,1000.0,1000.0,1.0,80.0,20.0,100.0,40.0,C,D,/static/Simple_RL/Stimuli/Fractals_stims/C.jpg,/static/Simple_RL/Stimuli/Fractals_stims/D.jpg,1.0,80.0,20.0,100.0,40.0,C,D,0.0,214.896,0.396,
392,,rl_choice_confirmation,,html-keyboard-response,392,229400,0.0-1.0-542.0-0.0,0,0,18270,,,,,,77.0,,,,,,,,,,,,,,,,,,,,,,,216.0,1.104,
393,,isi,,html-keyboard-response,393,229501,0.0-1.0-544.0,0,0,18270,,,,,,,,,,,,,,,,,,,,,,,,,,,,,217.0,1.0,
394,,feedback,,html-keyboard-response,394,230504,0.0-1.0-545.0-0.0,0,0,18270,,,,,,77.0,,,,,,,,,,,,,,,,,,,,,,,218.0,1.0,
395,,iti,,html-keyboard-response,395,230605,0.0-1.0-546.0,0,0,18270,,,,,,,,,,,,,,,,,,,,,,,,,,,,,219.0,1.0,
396,,rl_choice,,html-keyboard-response,396,231055,0.0-1.0-548.0,0,0,18270,,449.0,,,68.0,78.0,78.0,2.0,hard,2000.0,1500.0,1.0,60.0,40.0,40.0,60.0,A,B,/static/Simple_RL/Stimuli/Fractals_stims/A.jpg,/static/Simple_RL/Stimuli/Fractals_stims/B.jpg,1.0,60.0,40.0,40.0,60.0,A,B,0.0,219.449,0.449,
397,,rl_choice_confirmation,,html-keyboard-response,397,232109,0.0-1.0-549.0-0.0,0,0,18270,,,,,,78.0,,,,,,,,,,,,,,,,,,,,,,,220.5,1.051,
398,,isi,,html-keyboard-response,398,232214,0.0-1.0-551.0,0,0,18270,,,,,,,,,,,,,,,,,,,,,,,,,,,,,222.0,1.5,
399,,feedback,,html-keyboard-response,399,233219,0.0-1.0-552.0-0.0,0,0,18270,,,,,,78.0,,,,,,,,,,,,,,,,,,,,,,,223.0,1.0,
400,,iti,,html-keyboard-response,400,233320,0.0-1.0-553.0,0,0,18270,,,,,,,,,,,,,,,,,,,,,,,,,,,,,225.0,2.0,
401,,rl_choice,,html-keyboard-response,401,233791,0.0-1.0-555.0,0,0,18270,,470.0,,,75.0,79.0,79.0,2.0,hard,1500.0,3000.0,0.0,40.0,60.0,60.0,80.0,B,A,/static/Simple_RL/Stimuli/Fractals_stims/B.jpg,/static/Simple_RL/Stimuli/Fractals_stims/A.jpg,0.0,60.0,40.0,80.0,60.0,A,B,0.0,225.47,0.47,
402,,rl_choice_confirmation,,html-keyboard-response,402,234824,0.0-1.0-556.0-0.0,0,0,18270,,,,,,79.0,,,,,,,,,,,,,,,,,,,,,,,226.5,1.03,
403,,isi,,html-keyboard-response,403,234928,0.0-1.0-558.0,0,0,18270,,,,,,,,,,,,,,,,,,,,,,,,,,,,,229.5,3.0,
404,,feedback,,html-keyboard-response,404,235934,0.0-1.0-559.0-0.0,0,0,18270,,,,,,79.0,,,,,,,,,,,,,,,,,,,,,,,230.5,1.0,
405,,iti,,html-keyboard-response,405,236035,0.0-1.0-560.0,0,0,18270,,,,,,,,,,,,,,,,,,,,,,,,,,,,,232.0,1.5,2.74
406,,final_tally,,html-keyboard-response,406,238423,0.0-2.0,0,0,18270,,2387.0,,,68.0,,,,,,,,,,,,,,,,,,,,,,,,,,
