,success,ttype,start_time,trial_type,trial_index,time_elapsed,internal_node_id,warning,missed_checkup,PID,view_history,rt,responses,repeat_instructions,key_press,index,trial_num,block,condition,iti,isi,high_group_on_left,left_group_value,right_group_value,left_item_value,right_item_value,left_img,right_img,left_img_path,right_img_path,left_chosen,chosen_group_value,unchosen_group_value,chosen_item_value,unchosen_item_value,chosen_img,unchosen_img,onset,duration,no_response,total_bonus_tally
0,True,full_screen,d06072022hr1441,fullscreen,0,4960,0.0-0.0,0,0,64144,,,,,,,,,,,,,,,,,,,,,,,,,,,,,,,
1,,size_instructions,,instructions,1,34545,0.0-1.0-0.0-0.0,0,0,64144,"[{""page_index"":0,""viewing_time"":4517},{""page_index"":1,""viewing_time"":7354},{""page_index"":2,""viewing_time"":9818},{""page_index"":3,""viewing_time"":2933},{""page_index"":4,""viewing_time"":2093},{""page_index"":5,""viewing_time"":2863}]",29581.0,,,,,,,,,,,,,,,,,,,,,,,,,,,,,
2,,rl_comprehension_check,,survey-multi-choice,2,45520,0.0-1.0-0.0-1.0,0,0,64144,,10964.0,"{""Q0"":""True"",""Q1"":""False"",""Q2"":""D for left and K for right""}",1.0,,,,,,,,,,,,,,,,,,,,,,,,,,,
3,,missed_instruction_checkup,,html-keyboard-response,3,48029,0.0-1.0-0.0-2.0-0.0,0,0,64144,,2501.0,,,68.0,,,,,,,,,,,,,,,,,,,,,,,,,,
4,,size_instructions,,instructions,4,86644,0.0-1.0-0.1-0.1,0,0,64144,"[{""page_index"":0,""viewing_time"":3944},{""page_index"":1,""viewing_time"":9065},{""page_index"":2,""viewing_time"":17991},{""page_index"":3,""viewing_time"":2719},{""page_index"":4,""viewing_time"":2670},{""page_index"":5,""viewing_time"":2224}]",38614.0,,,,,,,,,,,,,,,,,,,,,,,,,,,,,
5,,rl_comprehension_check,,survey-multi-choice,5,95850,0.0-1.0-0.1-1.1,0,0,64144,,9189.0,"{""Q0"":""True"",""Q1"":""True"",""Q2"":""D for left and K for right""}",0.0,,,,,,,,,,,,,,,,,,,,,,,,,,,
6,,,,html-keyboard-response,6,98934,0.0-1.0-1.0,0,0,64144,,3078.0,,,68.0,,,,,,,,,,,,,,,,,,,,,,,,,,
7,,rl_choice,,html-keyboard-response,7,99656,0.0-1.0-2.0,0,0,64144,,715.0,,,68.0,0.0,0.0,1.0,hard,1000.0,2000.0,0.0,40.0,60.0,20.0,60.0,C,D,/static/Simple_RL/Stimuli/Fractals_stims/C.jpg,/static/Simple_RL/Stimuli/Fractals_stims/D.jpg,1.0,40.0,60.0,20.0,60.0,C,D,0.715,0.715,0.0,
8,,rl_choice_confirmation,,html-keyboard-response,8,100448,0.0-1.0-3.0-0.0,0,0,64144,,,,,,0.0,,1.0,,,,,,,,,,,,,,,,,,,,1.5,0.785,,
9,,isi,,html-keyboard-response,9,102450,0.0-1.0-5.0,0,0,64144,,,,,,0.0,,1.0,,,,,,,,,,,,,,,,,,,,3.5,2.0,,
10,,feedback,,html-keyboard-response,10,103455,0.0-1.0-6.0-0.0,0,0,64144,,,,,,0.0,,1.0,,,,,,,,,,,,,,,,,,,,4.5,1.0,,
11,,iti,,html-keyboard-response,11,104459,0.0-1.0-7.0,0,0,64144,,,,,,0.0,,1.0,,,,,,,,,,,,,,,,,,,,5.5,1.0,,
12,,rl_choice,,html-keyboard-response,12,105266,0.0-1.0-9.0,0,0,64144,,801.0,,,68.0,1.0,1.0,1.0,easy,1000.0,3000.0,1.0,80.0,20.0,100.0,40.0,B,A,/static/Simple_RL/Stimuli/Fractals_stims/B.jpg,/static/Simple_RL/Stimuli/Fractals_stims/A.jpg,1.0,80.0,20.0,100.0,40.0,B,A,6.301,0.801,0.0,
13,,rl_choice_confirmation,,html-keyboard-response,13,105970,0.0-1.0-10.0-0.0,0,0,64144,,,,,,1.0,,1.0,,,,,,,,,,,,,,,,,,,,7.0,0.699,,
14,,isi,,html-keyboard-response,14,108974,0.0-1.0-12.0,0,0,64144,,,,,,1.0,,1.0,,,,,,,,,,,,,,,,,,,,10.0,3.0,,
15,,feedback,,html-keyboard-response,15,109979,0.0-1.0-13.0-0.0,0,0,64144,,,,,,1.0,,1.0,,,,,,,,,,,,,,,,,,,,11.0,1.0,,
16,,iti,,html-keyboard-response,16,110983,0.0-1.0-14.0,0,0,64144,,,,,,1.0,,1.0,,,,,,,,,,,,,,,,,,,,12.0,1.0,,
17,,rl_choice,,html-keyboard-response,17,111824,0.0-1.0-16.0,0,0,64144,,838.0,,,68.0,2.0,2.0,1.0,hard,3000.0,1000.0,0.0,40.0,60.0,20.0,80.0,C,D,/static/Simple_RL/Stimuli/Fractals_stims/C.jpg,/static/Simple_RL/Stimuli/Fractals_stims/D.jpg,1.0,40.0,60.0,20.0,80.0,C,D,12.838,0.838,0.0,
18,,rl_choice_confirmation,,html-keyboard-response,18,112489,0.0-1.0-17.0-0.0,0,0,64144,,,,,,2.0,,1.0,,,,,,,,,,,,,,,,,,,,13.5,0.662,,
19,,isi,,html-keyboard-response,19,113492,0.0-1.0-19.0,0,0,64144,,,,,,2.0,,1.0,,,,,,,,,,,,,,,,,,,,14.5,1.0,,
20,,feedback,,html-keyboard-response,20,114497,0.0-1.0-20.0-0.0,0,0,64144,,,,,,2.0,,1.0,,,,,,,,,,,,,,,,,,,,15.5,1.0,,
21,,iti,,html-keyboard-response,21,117501,0.0-1.0-21.0,0,0,64144,,,,,,2.0,,1.0,,,,,,,,,,,,,,,,,,,,18.5,3.0,,
22,,rl_choice,,html-keyboard-response,22,118213,0.0-1.0-23.0,0,0,64144,,708.0,,,75.0,3.0,3.0,1.0,hard,1000.0,3500.0,0.0,40.0,60.0,60.0,60.0,C,D,/static/Simple_RL/Stimuli/Fractals_stims/C.jpg,/static/Simple_RL/Stimuli/Fractals_stims/D.jpg,0.0,60.0,40.0,60.0,60.0,D,C,19.208,0.708,0.0,
23,,rl_choice_confirmation,,html-keyboard-response,23,119009,0.0-1.0-24.0-0.0,0,0,64144,,,,,,3.0,,1.0,,,,,,,,,,,,,,,,,,,,20.0,0.792,,
24,,isi,,html-keyboard-response,24,122512,0.0-1.0-26.0,0,0,64144,,,,,,3.0,,1.0,,,,,,,,,,,,,,,,,,,,23.5,3.5,,
25,,feedback,,html-keyboard-response,25,123517,0.0-1.0-27.0-0.0,0,0,64144,,,,,,3.0,,1.0,,,,,,,,,,,,,,,,,,,,24.5,1.0,,
26,,iti,,html-keyboard-response,26,124520,0.0-1.0-28.0,0,0,64144,,,,,,3.0,,1.0,,,,,,,,,,,,,,,,,,,,25.5,1.0,,
27,,rl_choice,,html-keyboard-response,27,125231,0.0-1.0-30.0,0,0,64144,,706.0,,,75.0,4.0,4.0,1.0,hard,1500.0,3000.0,0.0,40.0,60.0,20.0,60.0,C,D,/static/Simple_RL/Stimuli/Fractals_stims/C.jpg,/static/Simple_RL/Stimuli/Fractals_stims/D.jpg,0.0,60.0,40.0,60.0,20.0,D,C,26.206,0.706,0.0,
28,,rl_choice_confirmation,,html-keyboard-response,28,126028,0.0-1.0-31.0-0.0,0,0,64144,,,,,,4.0,,1.0,,,,,,,,,,,,,,,,,,,,27.0,0.794,,
29,,isi,,html-keyboard-response,29,129032,0.0-1.0-33.0,0,0,64144,,,,,,4.0,,1.0,,,,,,,,,,,,,,,,,,,,30.0,3.0,,
30,,feedback,,html-keyboard-response,30,130036,0.0-1.0-34.0-0.0,0,0,64144,,,,,,4.0,,1.0,,,,,,,,,,,,,,,,,,,,31.0,1.0,,
31,,iti,,html-keyboard-response,31,131539,0.0-1.0-35.0,0,0,64144,,,,,,4.0,,1.0,,,,,,,,,,,,,,,,,,,,32.5,1.5,,
32,,rl_choice,,html-keyboard-response,32,132452,0.0-1.0-37.0,0,0,64144,,907.0,,,68.0,5.0,5.0,1.0,easy,2000.0,2000.0,0.0,20.0,80.0,20.0,100.0,A,B,/static/Simple_RL/Stimuli/Fractals_stims/A.jpg,/static/Simple_RL/Stimuli/Fractals_stims/B.jpg,1.0,20.0,80.0,20.0,100.0,A,B,33.407,0.907,0.0,
33,,rl_choice_confirmation,,html-keyboard-response,33,133049,0.0-1.0-38.0-0.0,0,0,64144,,,,,,5.0,,1.0,,,,,,,,,,,,,,,,,,,,34.0,0.593,,
34,,isi,,html-keyboard-response,34,135053,0.0-1.0-40.0,0,0,64144,,,,,,5.0,,1.0,,,,,,,,,,,,,,,,,,,,36.0,2.0,,
35,,feedback,,html-keyboard-response,35,136058,0.0-1.0-41.0-0.0,0,0,64144,,,,,,5.0,,1.0,,,,,,,,,,,,,,,,,,,,37.0,1.0,,
36,,iti,,html-keyboard-response,36,138061,0.0-1.0-42.0,0,0,64144,,,,,,5.0,,1.0,,,,,,,,,,,,,,,,,,,,39.0,2.0,,
37,,rl_choice,,html-keyboard-response,37,139151,0.0-1.0-44.0,0,0,64144,,1085.0,,,68.0,6.0,6.0,1.0,hard,1000.0,1000.0,0.0,40.0,60.0,40.0,80.0,C,D,/static/Simple_RL/Stimuli/Fractals_stims/C.jpg,/static/Simple_RL/Stimuli/Fractals_stims/D.jpg,1.0,40.0,60.0,40.0,80.0,C,D,40.085,1.085,0.0,
38,,rl_choice_confirmation,,html-keyboard-response,38,139570,0.0-1.0-45.0-0.0,0,0,64144,,,,,,6.0,,1.0,,,,,,,,,,,,,,,,,,,,40.5,0.415,,
39,,isi,,html-keyboard-response,39,140575,0.0-1.0-47.0,0,0,64144,,,,,,6.0,,1.0,,,,,,,,,,,,,,,,,,,,41.5,1.0,,
40,,feedback,,html-keyboard-response,40,141579,0.0-1.0-48.0-0.0,0,0,64144,,,,,,6.0,,1.0,,,,,,,,,,,,,,,,,,,,42.5,1.0,,
41,,iti,,html-keyboard-response,41,142583,0.0-1.0-49.0,0,0,64144,,,,,,6.0,,1.0,,,,,,,,,,,,,,,,,,,,43.5,1.0,,
42,,rl_choice,,html-keyboard-response,42,143184,0.0-1.0-51.0,0,0,64144,,597.0,,,75.0,7.0,7.0,1.0,hard,1500.0,1000.0,0.0,40.0,60.0,60.0,80.0,C,D,/static/Simple_RL/Stimuli/Fractals_stims/C.jpg,/static/Simple_RL/Stimuli/Fractals_stims/D.jpg,0.0,60.0,40.0,80.0,60.0,D,C,44.097,0.597,0.0,
43,,rl_choice_confirmation,,html-keyboard-response,43,144092,0.0-1.0-52.0-0.0,0,0,64144,,,,,,7.0,,1.0,,,,,,,,,,,,,,,,,,,,45.0,0.903,,
44,,isi,,html-keyboard-response,44,145095,0.0-1.0-54.0,0,0,64144,,,,,,7.0,,1.0,,,,,,,,,,,,,,,,,,,,46.0,1.0,,
45,,feedback,,html-keyboard-response,45,146100,0.0-1.0-55.0-0.0,0,0,64144,,,,,,7.0,,1.0,,,,,,,,,,,,,,,,,,,,47.0,1.0,,
46,,iti,,html-keyboard-response,46,147603,0.0-1.0-56.0,0,0,64144,,,,,,7.0,,1.0,,,,,,,,,,,,,,,,,,,,48.5,1.5,,
47,,rl_choice,,html-keyboard-response,47,148733,0.0-1.0-58.0,0,0,64144,,1124.0,,,75.0,8.0,8.0,1.0,easy,1500.0,2000.0,0.0,20.0,80.0,0.0,100.0,A,B,/static/Simple_RL/Stimuli/Fractals_stims/A.jpg,/static/Simple_RL/Stimuli/Fractals_stims/B.jpg,0.0,80.0,20.0,100.0,0.0,B,A,49.624,1.124,0.0,
48,,rl_choice_confirmation,,html-keyboard-response,48,149116,0.0-1.0-59.0-0.0,0,0,64144,,,,,,8.0,,1.0,,,,,,,,,,,,,,,,,,,,50.0,0.376,,
49,,isi,,html-keyboard-response,49,151120,0.0-1.0-61.0,0,0,64144,,,,,,8.0,,1.0,,,,,,,,,,,,,,,,,,,,52.0,2.0,,
50,,feedback,,html-keyboard-response,50,152125,0.0-1.0-62.0-0.0,0,0,64144,,,,,,8.0,,1.0,,,,,,,,,,,,,,,,,,,,53.0,1.0,,
51,,iti,,html-keyboard-response,51,153628,0.0-1.0-63.0,0,0,64144,,,,,,8.0,,1.0,,,,,,,,,,,,,,,,,,,,54.5,1.5,,
52,,rl_choice,,html-keyboard-response,52,154177,0.0-1.0-65.0,0,0,64144,,545.0,,,68.0,9.0,9.0,1.0,easy,2000.0,1000.0,1.0,80.0,20.0,60.0,0.0,B,A,/static/Simple_RL/Stimuli/Fractals_stims/B.jpg,/static/Simple_RL/Stimuli/Fractals_stims/A.jpg,1.0,80.0,20.0,60.0,0.0,B,A,55.045,0.545,0.0,
53,,rl_choice_confirmation,,html-keyboard-response,53,155137,0.0-1.0-66.0-0.0,0,0,64144,,,,,,9.0,,1.0,,,,,,,,,,,,,,,,,,,,56.0,0.955,,
54,,isi,,html-keyboard-response,54,156141,0.0-1.0-68.0,0,0,64144,,,,,,9.0,,1.0,,,,,,,,,,,,,,,,,,,,57.0,1.0,,
55,,feedback,,html-keyboard-response,55,157146,0.0-1.0-69.0-0.0,0,0,64144,,,,,,9.0,,1.0,,,,,,,,,,,,,,,,,,,,58.0,1.0,,
56,,iti,,html-keyboard-response,56,159150,0.0-1.0-70.0,0,0,64144,,,,,,9.0,,1.0,,,,,,,,,,,,,,,,,,,,60.0,2.0,,
57,,rl_choice,,html-keyboard-response,57,160161,0.0-1.0-72.0,0,0,64144,,1005.0,,,68.0,10.0,10.0,1.0,hard,1000.0,1000.0,1.0,60.0,40.0,40.0,40.0,D,C,/static/Simple_RL/Stimuli/Fractals_stims/D.jpg,/static/Simple_RL/Stimuli/Fractals_stims/C.jpg,1.0,60.0,40.0,40.0,40.0,D,C,61.005,1.005,0.0,
58,,rl_choice_confirmation,,html-keyboard-response,58,160660,0.0-1.0-73.0-0.0,0,0,64144,,,,,,10.0,,1.0,,,,,,,,,,,,,,,,,,,,61.5,0.495,,
59,,isi,,html-keyboard-response,59,161664,0.0-1.0-75.0,0,0,64144,,,,,,10.0,,1.0,,,,,,,,,,,,,,,,,,,,62.5,1.0,,
60,,feedback,,html-keyboard-response,60,162669,0.0-1.0-76.0-0.0,0,0,64144,,,,,,10.0,,1.0,,,,,,,,,,,,,,,,,,,,63.5,1.0,,
61,,iti,,html-keyboard-response,61,163672,0.0-1.0-77.0,0,0,64144,,,,,,10.0,,1.0,,,,,,,,,,,,,,,,,,,,64.5,1.0,,
62,,rl_choice,,html-keyboard-response,62,164380,0.0-1.0-79.0,0,0,64144,,703.0,,,75.0,11.0,11.0,1.0,easy,1000.0,3000.0,0.0,20.0,80.0,20.0,60.0,A,B,/static/Simple_RL/Stimuli/Fractals_stims/A.jpg,/static/Simple_RL/Stimuli/Fractals_stims/B.jpg,0.0,80.0,20.0,60.0,20.0,B,A,65.203,0.703,0.0,
63,,rl_choice_confirmation,,html-keyboard-response,63,165182,0.0-1.0-80.0-0.0,0,0,64144,,,,,,11.0,,1.0,,,,,,,,,,,,,,,,,,,,66.0,0.797,,
64,,isi,,html-keyboard-response,64,168186,0.0-1.0-82.0,0,0,64144,,,,,,11.0,,1.0,,,,,,,,,,,,,,,,,,,,69.0,3.0,,
65,,feedback,,html-keyboard-response,65,169191,0.0-1.0-83.0-0.0,0,0,64144,,,,,,11.0,,1.0,,,,,,,,,,,,,,,,,,,,70.0,1.0,,
66,,iti,,html-keyboard-response,66,170194,0.0-1.0-84.0,0,0,64144,,,,,,11.0,,1.0,,,,,,,,,,,,,,,,,,,,71.0,1.0,,
67,,rl_choice,,html-keyboard-response,67,170871,0.0-1.0-86.0,0,0,64144,,673.0,,,75.0,12.0,12.0,1.0,easy,3000.0,1500.0,0.0,20.0,80.0,20.0,80.0,A,B,/static/Simple_RL/Stimuli/Fractals_stims/A.jpg,/static/Simple_RL/Stimuli/Fractals_stims/B.jpg,0.0,80.0,20.0,80.0,20.0,B,A,71.673,0.673,0.0,
68,,rl_choice_confirmation,,html-keyboard-response,68,171703,0.0-1.0-87.0-0.0,0,0,64144,,,,,,12.0,,1.0,,,,,,,,,,,,,,,,,,,,72.5,0.827,,
69,,isi,,html-keyboard-response,69,173207,0.0-1.0-89.0,0,0,64144,,,,,,12.0,,1.0,,,,,,,,,,,,,,,,,,,,74.0,1.5,,
70,,feedback,,html-keyboard-response,70,174211,0.0-1.0-90.0-0.0,0,0,64144,,,,,,12.0,,1.0,,,,,,,,,,,,,,,,,,,,75.0,1.0,,
71,,iti,,html-keyboard-response,71,177214,0.0-1.0-91.0,0,0,64144,,,,,,12.0,,1.0,,,,,,,,,,,,,,,,,,,,78.0,3.0,,
72,,rl_choice,,html-keyboard-response,72,178037,0.0-1.0-93.0,0,0,64144,,819.0,,,75.0,13.0,13.0,1.0,hard,1000.0,2000.0,0.0,40.0,60.0,40.0,80.0,C,D,/static/Simple_RL/Stimuli/Fractals_stims/C.jpg,/static/Simple_RL/Stimuli/Fractals_stims/D.jpg,0.0,60.0,40.0,80.0,40.0,D,C,78.819,0.819,0.0,
73,,rl_choice_confirmation,,html-keyboard-response,73,178723,0.0-1.0-94.0-0.0,0,0,64144,,,,,,13.0,,1.0,,,,,,,,,,,,,,,,,,,,79.5,0.681,,
74,,isi,,html-keyboard-response,74,180726,0.0-1.0-96.0,0,0,64144,,,,,,13.0,,1.0,,,,,,,,,,,,,,,,,,,,81.5,2.0,,
75,,feedback,,html-keyboard-response,75,181730,0.0-1.0-97.0-0.0,0,0,64144,,,,,,13.0,,1.0,,,,,,,,,,,,,,,,,,,,82.5,1.0,,
76,,iti,,html-keyboard-response,76,182733,0.0-1.0-98.0,0,0,64144,,,,,,13.0,,1.0,,,,,,,,,,,,,,,,,,,,83.5,1.0,,
77,,rl_choice,,html-keyboard-response,77,183438,0.0-1.0-100.0,0,0,64144,,701.0,,,68.0,14.0,14.0,1.0,easy,1500.0,1500.0,0.0,20.0,80.0,20.0,80.0,A,B,/static/Simple_RL/Stimuli/Fractals_stims/A.jpg,/static/Simple_RL/Stimuli/Fractals_stims/B.jpg,1.0,20.0,80.0,20.0,80.0,A,B,84.201,0.701,0.0,
78,,rl_choice_confirmation,,html-keyboard-response,78,184241,0.0-1.0-101.0-0.0,0,0,64144,,,,,,14.0,,1.0,,,,,,,,,,,,,,,,,,,,85.0,0.799,,
79,,isi,,html-keyboard-response,79,185744,0.0-1.0-103.0,0,0,64144,,,,,,14.0,,1.0,,,,,,,,,,,,,,,,,,,,86.5,1.5,,
80,,feedback,,html-keyboard-response,80,186748,0.0-1.0-104.0-0.0,0,0,64144,,,,,,14.0,,1.0,,,,,,,,,,,,,,,,,,,,87.5,1.0,,
81,,iti,,html-keyboard-response,81,188251,0.0-1.0-105.0,0,0,64144,,,,,,14.0,,1.0,,,,,,,,,,,,,,,,,,,,89.0,1.5,,
82,,rl_choice,,html-keyboard-response,82,188987,0.0-1.0-107.0,0,0,64144,,731.0,,,75.0,15.0,15.0,1.0,hard,1500.0,2000.0,1.0,60.0,40.0,40.0,60.0,D,C,/static/Simple_RL/Stimuli/Fractals_stims/D.jpg,/static/Simple_RL/Stimuli/Fractals_stims/C.jpg,0.0,40.0,60.0,60.0,40.0,C,D,89.731,0.731,0.0,
83,,rl_choice_confirmation,,html-keyboard-response,83,189759,0.0-1.0-108.0-0.0,0,0,64144,,,,,,15.0,,1.0,,,,,,,,,,,,,,,,,,,,90.5,0.769,,
84,,isi,,html-keyboard-response,84,191762,0.0-1.0-110.0,0,0,64144,,,,,,15.0,,1.0,,,,,,,,,,,,,,,,,,,,92.5,2.0,,
85,,feedback,,html-keyboard-response,85,192765,0.0-1.0-111.0-0.0,0,0,64144,,,,,,15.0,,1.0,,,,,,,,,,,,,,,,,,,,93.5,1.0,,
86,,iti,,html-keyboard-response,86,194268,0.0-1.0-112.0,0,0,64144,,,,,,15.0,,1.0,,,,,,,,,,,,,,,,,,,,95.0,1.5,,
87,,rl_choice,,html-keyboard-response,87,194911,0.0-1.0-114.0,0,0,64144,,638.0,,,68.0,16.0,16.0,1.0,hard,1000.0,1000.0,1.0,60.0,40.0,60.0,60.0,D,C,/static/Simple_RL/Stimuli/Fractals_stims/D.jpg,/static/Simple_RL/Stimuli/Fractals_stims/C.jpg,1.0,60.0,40.0,60.0,60.0,D,C,95.638,0.638,0.0,
88,,rl_choice_confirmation,,html-keyboard-response,88,195778,0.0-1.0-115.0-0.0,0,0,64144,,,,,,16.0,,1.0,,,,,,,,,,,,,,,,,,,,96.5,0.862,,
89,,isi,,html-keyboard-response,89,196781,0.0-1.0-117.0,0,0,64144,,,,,,16.0,,1.0,,,,,,,,,,,,,,,,,,,,97.5,1.0,,
90,,feedback,,html-keyboard-response,90,197785,0.0-1.0-118.0-0.0,0,0,64144,,,,,,16.0,,1.0,,,,,,,,,,,,,,,,,,,,98.5,1.0,,
91,,iti,,html-keyboard-response,91,198788,0.0-1.0-119.0,0,0,64144,,,,,,16.0,,1.0,,,,,,,,,,,,,,,,,,,,99.5,1.0,,
92,,rl_choice,,html-keyboard-response,92,199499,0.0-1.0-121.0,0,0,64144,,707.0,,,75.0,17.0,17.0,1.0,easy,3000.0,1500.0,1.0,80.0,20.0,60.0,20.0,B,A,/static/Simple_RL/Stimuli/Fractals_stims/B.jpg,/static/Simple_RL/Stimuli/Fractals_stims/A.jpg,0.0,20.0,80.0,20.0,60.0,A,B,100.207,0.707,0.0,
93,,rl_choice_confirmation,,html-keyboard-response,93,200297,0.0-1.0-122.0-0.0,0,0,64144,,,,,,17.0,,1.0,,,,,,,,,,,,,,,,,,,,101.0,0.793,,
94,,isi,,html-keyboard-response,94,201800,0.0-1.0-124.0,0,0,64144,,,,,,17.0,,1.0,,,,,,,,,,,,,,,,,,,,102.5,1.5,,
95,,feedback,,html-keyboard-response,95,202804,0.0-1.0-125.0-0.0,0,0,64144,,,,,,17.0,,1.0,,,,,,,,,,,,,,,,,,,,103.5,1.0,,
96,,iti,,html-keyboard-response,96,205808,0.0-1.0-126.0,0,0,64144,,,,,,17.0,,1.0,,,,,,,,,,,,,,,,,,,,106.5,3.0,,
97,,rl_choice,,html-keyboard-response,97,206657,0.0-1.0-128.0,0,0,64144,,845.0,,,75.0,18.0,18.0,1.0,hard,3500.0,1500.0,1.0,60.0,40.0,60.0,60.0,D,C,/static/Simple_RL/Stimuli/Fractals_stims/D.jpg,/static/Simple_RL/Stimuli/Fractals_stims/C.jpg,0.0,40.0,60.0,60.0,60.0,C,D,107.345,0.845,0.0,
98,,rl_choice_confirmation,,html-keyboard-response,98,207317,0.0-1.0-129.0-0.0,0,0,64144,,,,,,18.0,,1.0,,,,,,,,,,,,,,,,,,,,108.0,0.655,,
99,,isi,,html-keyboard-response,99,208820,0.0-1.0-131.0,0,0,64144,,,,,,18.0,,1.0,,,,,,,,,,,,,,,,,,,,109.5,1.5,,
100,,feedback,,html-keyboard-response,100,209824,0.0-1.0-132.0-0.0,0,0,64144,,,,,,18.0,,1.0,,,,,,,,,,,,,,,,,,,,110.5,1.0,,
101,,iti,,html-keyboard-response,101,213327,0.0-1.0-133.0,0,0,64144,,,,,,18.0,,1.0,,,,,,,,,,,,,,,,,,,,114.0,3.5,,
102,,rl_choice,,html-keyboard-response,102,213950,0.0-1.0-135.0,0,0,64144,,619.0,,,75.0,19.0,19.0,1.0,hard,2000.0,1500.0,1.0,60.0,40.0,60.0,20.0,D,C,/static/Simple_RL/Stimuli/Fractals_stims/D.jpg,/static/Simple_RL/Stimuli/Fractals_stims/C.jpg,0.0,40.0,60.0,20.0,60.0,C,D,114.619,0.619,0.0,
103,,rl_choice_confirmation,,html-keyboard-response,103,214836,0.0-1.0-136.0-0.0,0,0,64144,,,,,,19.0,,1.0,,,,,,,,,,,,,,,,,,,,115.5,0.881,,
104,,isi,,html-keyboard-response,104,216341,0.0-1.0-138.0,0,0,64144,,,,,,19.0,,1.0,,,,,,,,,,,,,,,,,,,,117.0,1.5,,
105,,feedback,,html-keyboard-response,105,217345,0.0-1.0-139.0-0.0,0,0,64144,,,,,,19.0,,1.0,,,,,,,,,,,,,,,,,,,,118.0,1.0,,
106,,iti,,html-keyboard-response,106,219348,0.0-1.0-140.0,0,0,64144,,,,,,19.0,,1.0,,,,,,,,,,,,,,,,,,,,120.0,2.0,,
107,,rl_choice,,html-keyboard-response,107,220093,0.0-1.0-142.0,0,0,64144,,741.0,,,68.0,20.0,20.0,1.0,easy,2000.0,1000.0,1.0,80.0,20.0,80.0,20.0,B,A,/static/Simple_RL/Stimuli/Fractals_stims/B.jpg,/static/Simple_RL/Stimuli/Fractals_stims/A.jpg,1.0,80.0,20.0,80.0,20.0,B,A,120.741,0.741,0.0,
108,,rl_choice_confirmation,,html-keyboard-response,108,220857,0.0-1.0-143.0-0.0,0,0,64144,,,,,,20.0,,1.0,,,,,,,,,,,,,,,,,,,,121.5,0.759,,
109,,isi,,html-keyboard-response,109,221860,0.0-1.0-145.0,0,0,64144,,,,,,20.0,,1.0,,,,,,,,,,,,,,,,,,,,122.5,1.0,,
110,,feedback,,html-keyboard-response,110,222864,0.0-1.0-146.0-0.0,0,0,64144,,,,,,20.0,,1.0,,,,,,,,,,,,,,,,,,,,123.5,1.0,,
111,,iti,,html-keyboard-response,111,224868,0.0-1.0-147.0,0,0,64144,,,,,,20.0,,1.0,,,,,,,,,,,,,,,,,,,,125.5,2.0,,
112,,rl_choice,,html-keyboard-response,112,226095,0.0-1.0-149.0,0,0,64144,,1224.0,,,68.0,21.0,21.0,1.0,easy,1500.0,2000.0,1.0,80.0,20.0,80.0,20.0,B,A,/static/Simple_RL/Stimuli/Fractals_stims/B.jpg,/static/Simple_RL/Stimuli/Fractals_stims/A.jpg,1.0,80.0,20.0,80.0,20.0,B,A,126.724,1.224,0.0,
113,,rl_choice_confirmation,,html-keyboard-response,113,226376,0.0-1.0-150.0-0.0,0,0,64144,,,,,,21.0,,1.0,,,,,,,,,,,,,,,,,,,,127.0,0.276,,
114,,isi,,html-keyboard-response,114,228378,0.0-1.0-152.0,0,0,64144,,,,,,21.0,,1.0,,,,,,,,,,,,,,,,,,,,129.0,2.0,,
115,,feedback,,html-keyboard-response,115,229382,0.0-1.0-153.0-0.0,0,0,64144,,,,,,21.0,,1.0,,,,,,,,,,,,,,,,,,,,130.0,1.0,,
116,,iti,,html-keyboard-response,116,230885,0.0-1.0-154.0,0,0,64144,,,,,,21.0,,1.0,,,,,,,,,,,,,,,,,,,,131.5,1.5,,
117,,rl_choice,,html-keyboard-response,117,231590,0.0-1.0-156.0,0,0,64144,,701.0,,,75.0,22.0,22.0,1.0,easy,1000.0,1000.0,0.0,20.0,80.0,0.0,100.0,A,B,/static/Simple_RL/Stimuli/Fractals_stims/A.jpg,/static/Simple_RL/Stimuli/Fractals_stims/B.jpg,0.0,80.0,20.0,100.0,0.0,B,A,132.201,0.701,0.0,
118,,rl_choice_confirmation,,html-keyboard-response,118,232394,0.0-1.0-157.0-0.0,0,0,64144,,,,,,22.0,,1.0,,,,,,,,,,,,,,,,,,,,133.0,0.799,,
119,,isi,,html-keyboard-response,119,233397,0.0-1.0-159.0,0,0,64144,,,,,,22.0,,1.0,,,,,,,,,,,,,,,,,,,,134.0,1.0,,
120,,feedback,,html-keyboard-response,120,234401,0.0-1.0-160.0-0.0,0,0,64144,,,,,,22.0,,1.0,,,,,,,,,,,,,,,,,,,,135.0,1.0,,
121,,iti,,html-keyboard-response,121,235404,0.0-1.0-161.0,0,0,64144,,,,,,22.0,,1.0,,,,,,,,,,,,,,,,,,,,136.0,1.0,,
122,,rl_choice,,html-keyboard-response,122,236609,0.0-1.0-163.0,0,0,64144,,1199.0,,,68.0,23.0,23.0,1.0,hard,2000.0,1000.0,1.0,60.0,40.0,80.0,60.0,D,C,/static/Simple_RL/Stimuli/Fractals_stims/D.jpg,/static/Simple_RL/Stimuli/Fractals_stims/C.jpg,1.0,60.0,40.0,80.0,60.0,D,C,137.199,1.199,0.0,
123,,rl_choice_confirmation,,html-keyboard-response,123,236915,0.0-1.0-164.0-0.0,0,0,64144,,,,,,23.0,,1.0,,,,,,,,,,,,,,,,,,,,137.5,0.301,,
124,,isi,,html-keyboard-response,124,237918,0.0-1.0-166.0,0,0,64144,,,,,,23.0,,1.0,,,,,,,,,,,,,,,,,,,,138.5,1.0,,
125,,feedback,,html-keyboard-response,125,238922,0.0-1.0-167.0-0.0,0,0,64144,,,,,,23.0,,1.0,,,,,,,,,,,,,,,,,,,,139.5,1.0,,
126,,iti,,html-keyboard-response,126,240927,0.0-1.0-168.0,0,0,64144,,,,,,23.0,,1.0,,,,,,,,,,,,,,,,,,,,141.5,2.0,,
127,,rl_choice,,html-keyboard-response,127,241820,0.0-1.0-170.0,0,0,64144,,889.0,,,68.0,24.0,24.0,1.0,hard,1000.0,3000.0,1.0,60.0,40.0,40.0,60.0,D,C,/static/Simple_RL/Stimuli/Fractals_stims/D.jpg,/static/Simple_RL/Stimuli/Fractals_stims/C.jpg,1.0,60.0,40.0,40.0,60.0,D,C,142.389,0.889,0.0,
128,,rl_choice_confirmation,,html-keyboard-response,128,242434,0.0-1.0-171.0-0.0,0,0,64144,,,,,,24.0,,1.0,,,,,,,,,,,,,,,,,,,,143.0,0.611,,
129,,isi,,html-keyboard-response,129,245438,0.0-1.0-173.0,0,0,64144,,,,,,24.0,,1.0,,,,,,,,,,,,,,,,,,,,146.0,3.0,,
130,,feedback,,html-keyboard-response,130,246442,0.0-1.0-174.0-0.0,0,0,64144,,,,,,24.0,,1.0,,,,,,,,,,,,,,,,,,,,147.0,1.0,,
131,,iti,,html-keyboard-response,131,247445,0.0-1.0-175.0,0,0,64144,,,,,,24.0,,1.0,,,,,,,,,,,,,,,,,,,,148.0,1.0,,
132,,rl_choice,,html-keyboard-response,132,248123,0.0-1.0-177.0,0,0,64144,,674.0,,,68.0,25.0,25.0,1.0,hard,2000.0,1000.0,1.0,60.0,40.0,40.0,40.0,D,C,/static/Simple_RL/Stimuli/Fractals_stims/D.jpg,/static/Simple_RL/Stimuli/Fractals_stims/C.jpg,1.0,60.0,40.0,40.0,40.0,D,C,148.674,0.674,0.0,
133,,rl_choice_confirmation,,html-keyboard-response,133,248953,0.0-1.0-178.0-0.0,0,0,64144,,,,,,25.0,,1.0,,,,,,,,,,,,,,,,,,,,149.5,0.826,,
134,,isi,,html-keyboard-response,134,249956,0.0-1.0-180.0,0,0,64144,,,,,,25.0,,1.0,,,,,,,,,,,,,,,,,,,,150.5,1.0,,
135,,feedback,,html-keyboard-response,135,250960,0.0-1.0-181.0-0.0,0,0,64144,,,,,,25.0,,1.0,,,,,,,,,,,,,,,,,,,,151.5,1.0,,
136,,iti,,html-keyboard-response,136,252963,0.0-1.0-182.0,0,0,64144,,,,,,25.0,,1.0,,,,,,,,,,,,,,,,,,,,153.5,2.0,,
137,,rl_choice,,html-keyboard-response,137,253916,0.0-1.0-184.0,0,0,64144,,949.0,,,75.0,26.0,26.0,1.0,easy,1000.0,1000.0,1.0,80.0,20.0,100.0,20.0,B,A,/static/Simple_RL/Stimuli/Fractals_stims/B.jpg,/static/Simple_RL/Stimuli/Fractals_stims/A.jpg,0.0,20.0,80.0,20.0,100.0,A,B,154.449,0.949,0.0,
138,,rl_choice_confirmation,,html-keyboard-response,138,254471,0.0-1.0-185.0-0.0,0,0,64144,,,,,,26.0,,1.0,,,,,,,,,,,,,,,,,,,,155.0,0.551,,
139,,isi,,html-keyboard-response,139,255473,0.0-1.0-187.0,0,0,64144,,,,,,26.0,,1.0,,,,,,,,,,,,,,,,,,,,156.0,1.0,,
140,,feedback,,html-keyboard-response,140,256477,0.0-1.0-188.0-0.0,0,0,64144,,,,,,26.0,,1.0,,,,,,,,,,,,,,,,,,,,157.0,1.0,,
141,,iti,,html-keyboard-response,141,257479,0.0-1.0-189.0,0,0,64144,,,,,,26.0,,1.0,,,,,,,,,,,,,,,,,,,,158.0,1.0,,
142,,rl_choice,,html-keyboard-response,142,258431,0.0-1.0-191.0,0,0,64144,,948.0,,,75.0,27.0,27.0,1.0,hard,1000.0,1500.0,0.0,40.0,60.0,20.0,80.0,C,D,/static/Simple_RL/Stimuli/Fractals_stims/C.jpg,/static/Simple_RL/Stimuli/Fractals_stims/D.jpg,0.0,60.0,40.0,80.0,20.0,D,C,158.948,0.948,0.0,
143,,rl_choice_confirmation,,html-keyboard-response,143,258988,0.0-1.0-192.0-0.0,0,0,64144,,,,,,27.0,,1.0,,,,,,,,,,,,,,,,,,,,159.5,0.552,,
144,,isi,,html-keyboard-response,144,260490,0.0-1.0-194.0,0,0,64144,,,,,,27.0,,1.0,,,,,,,,,,,,,,,,,,,,161.0,1.5,,
145,,feedback,,html-keyboard-response,145,261495,0.0-1.0-195.0-0.0,0,0,64144,,,,,,27.0,,1.0,,,,,,,,,,,,,,,,,,,,162.0,1.0,,
146,,iti,,html-keyboard-response,146,262497,0.0-1.0-196.0,0,0,64144,,,,,,27.0,,1.0,,,,,,,,,,,,,,,,,,,,163.0,1.0,,
147,,rl_choice,,html-keyboard-response,147,263018,0.0-1.0-198.0,0,0,64144,,518.0,,,75.0,28.0,28.0,1.0,hard,1500.0,1500.0,0.0,40.0,60.0,40.0,40.0,C,D,/static/Simple_RL/Stimuli/Fractals_stims/C.jpg,/static/Simple_RL/Stimuli/Fractals_stims/D.jpg,0.0,60.0,40.0,40.0,40.0,D,C,163.518,0.518,0.0,
148,,rl_choice_confirmation,,html-keyboard-response,148,264005,0.0-1.0-199.0-0.0,0,0,64144,,,,,,28.0,,1.0,,,,,,,,,,,,,,,,,,,,164.5,0.982,,
149,,isi,,html-keyboard-response,149,265508,0.0-1.0-201.0,0,0,64144,,,,,,28.0,,1.0,,,,,,,,,,,,,,,,,,,,166.0,1.5,,
150,,feedback,,html-keyboard-response,150,266511,0.0-1.0-202.0-0.0,0,0,64144,,,,,,28.0,,1.0,,,,,,,,,,,,,,,,,,,,167.0,1.0,,
151,,iti,,html-keyboard-response,151,268013,0.0-1.0-203.0,0,0,64144,,,,,,28.0,,1.0,,,,,,,,,,,,,,,,,,,,168.5,1.5,,
152,,rl_choice,,html-keyboard-response,152,268888,0.0-1.0-205.0,0,0,64144,,871.0,,,75.0,29.0,29.0,1.0,easy,1000.0,1000.0,0.0,20.0,80.0,20.0,80.0,A,B,/static/Simple_RL/Stimuli/Fractals_stims/A.jpg,/static/Simple_RL/Stimuli/Fractals_stims/B.jpg,0.0,80.0,20.0,80.0,20.0,B,A,169.371,0.871,0.0,
153,,rl_choice_confirmation,,html-keyboard-response,153,269521,0.0-1.0-206.0-0.0,0,0,64144,,,,,,29.0,,1.0,,,,,,,,,,,,,,,,,,,,170.0,0.629,,
154,,isi,,html-keyboard-response,154,270524,0.0-1.0-208.0,0,0,64144,,,,,,29.0,,1.0,,,,,,,,,,,,,,,,,,,,171.0,1.0,,
155,,feedback,,html-keyboard-response,155,271529,0.0-1.0-209.0-0.0,0,0,64144,,,,,,29.0,,1.0,,,,,,,,,,,,,,,,,,,,172.0,1.0,,
156,,iti,,html-keyboard-response,156,272532,0.0-1.0-210.0,0,0,64144,,,,,,29.0,,1.0,,,,,,,,,,,,,,,,,,,,173.0,1.0,,
157,,rl_choice,,html-keyboard-response,157,273760,0.0-1.0-212.0,0,0,64144,,1223.0,,,68.0,30.0,30.0,1.0,hard,1500.0,2000.0,1.0,60.0,40.0,80.0,60.0,D,C,/static/Simple_RL/Stimuli/Fractals_stims/D.jpg,/static/Simple_RL/Stimuli/Fractals_stims/C.jpg,1.0,60.0,40.0,80.0,60.0,D,C,174.223,1.223,0.0,
158,,rl_choice_confirmation,,html-keyboard-response,158,274041,0.0-1.0-213.0-0.0,0,0,64144,,,,,,30.0,,1.0,,,,,,,,,,,,,,,,,,,,174.5,0.277,,
159,,isi,,html-keyboard-response,159,276044,0.0-1.0-215.0,0,0,64144,,,,,,30.0,,1.0,,,,,,,,,,,,,,,,,,,,176.5,2.0,,
160,,feedback,,html-keyboard-response,160,277048,0.0-1.0-216.0-0.0,0,0,64144,,,,,,30.0,,1.0,,,,,,,,,,,,,,,,,,,,177.5,1.0,,
161,,iti,,html-keyboard-response,161,278552,0.0-1.0-217.0,0,0,64144,,,,,,30.0,,1.0,,,,,,,,,,,,,,,,,,,,179.0,1.5,,
162,,rl_choice,,html-keyboard-response,162,279160,0.0-1.0-219.0,0,0,64144,,604.0,,,68.0,31.0,31.0,1.0,easy,1000.0,1500.0,1.0,80.0,20.0,80.0,0.0,B,A,/static/Simple_RL/Stimuli/Fractals_stims/B.jpg,/static/Simple_RL/Stimuli/Fractals_stims/A.jpg,1.0,80.0,20.0,80.0,0.0,B,A,179.604,0.604,0.0,
163,,rl_choice_confirmation,,html-keyboard-response,163,280061,0.0-1.0-220.0-0.0,0,0,64144,,,,,,31.0,,1.0,,,,,,,,,,,,,,,,,,,,180.5,0.896,,
164,,isi,,html-keyboard-response,164,281565,0.0-1.0-222.0,0,0,64144,,,,,,31.0,,1.0,,,,,,,,,,,,,,,,,,,,182.0,1.5,,
165,,feedback,,html-keyboard-response,165,282568,0.0-1.0-223.0-0.0,0,0,64144,,,,,,31.0,,1.0,,,,,,,,,,,,,,,,,,,,183.0,1.0,,
166,,iti,,html-keyboard-response,166,283571,0.0-1.0-224.0,0,0,64144,,,,,,31.0,,1.0,,,,,,,,,,,,,,,,,,,,184.0,1.0,,
167,,rl_choice,,html-keyboard-response,167,284132,0.0-1.0-226.0,0,0,64144,,558.0,,,68.0,32.0,32.0,1.0,easy,1000.0,3500.0,1.0,80.0,20.0,60.0,20.0,B,A,/static/Simple_RL/Stimuli/Fractals_stims/B.jpg,/static/Simple_RL/Stimuli/Fractals_stims/A.jpg,1.0,80.0,20.0,60.0,20.0,B,A,184.558,0.558,0.0,
168,,rl_choice_confirmation,,html-keyboard-response,168,285079,0.0-1.0-227.0-0.0,0,0,64144,,,,,,32.0,,1.0,,,,,,,,,,,,,,,,,,,,185.5,0.942,,
169,,isi,,html-keyboard-response,169,288582,0.0-1.0-229.0,0,0,64144,,,,,,32.0,,1.0,,,,,,,,,,,,,,,,,,,,189.0,3.5,,
170,,feedback,,html-keyboard-response,170,289587,0.0-1.0-230.0-0.0,0,0,64144,,,,,,32.0,,1.0,,,,,,,,,,,,,,,,,,,,190.0,1.0,,
171,,iti,,html-keyboard-response,171,290590,0.0-1.0-231.0,0,0,64144,,,,,,32.0,,1.0,,,,,,,,,,,,,,,,,,,,191.0,1.0,,
172,,rl_choice,,html-keyboard-response,172,291362,0.0-1.0-233.0,0,0,64144,,768.0,,,75.0,33.0,33.0,1.0,hard,2000.0,1500.0,1.0,60.0,40.0,40.0,20.0,D,C,/static/Simple_RL/Stimuli/Fractals_stims/D.jpg,/static/Simple_RL/Stimuli/Fractals_stims/C.jpg,0.0,40.0,60.0,20.0,40.0,C,D,191.768,0.768,0.0,
173,,rl_choice_confirmation,,html-keyboard-response,173,292099,0.0-1.0-234.0-0.0,0,0,64144,,,,,,33.0,,1.0,,,,,,,,,,,,,,,,,,,,192.5,0.732,,
174,,isi,,html-keyboard-response,174,293602,0.0-1.0-236.0,0,0,64144,,,,,,33.0,,1.0,,,,,,,,,,,,,,,,,,,,194.0,1.5,,
175,,feedback,,html-keyboard-response,175,294607,0.0-1.0-237.0-0.0,0,0,64144,,,,,,33.0,,1.0,,,,,,,,,,,,,,,,,,,,195.0,1.0,,
176,,iti,,html-keyboard-response,176,296610,0.0-1.0-238.0,0,0,64144,,,,,,33.0,,1.0,,,,,,,,,,,,,,,,,,,,197.0,2.0,,
177,,rl_choice,,html-keyboard-response,177,297374,0.0-1.0-240.0,0,0,64144,,760.0,,,75.0,34.0,34.0,1.0,hard,3000.0,1000.0,0.0,40.0,60.0,20.0,60.0,C,D,/static/Simple_RL/Stimuli/Fractals_stims/C.jpg,/static/Simple_RL/Stimuli/Fractals_stims/D.jpg,0.0,60.0,40.0,60.0,20.0,D,C,197.76,0.76,0.0,
178,,rl_choice_confirmation,,html-keyboard-response,178,298118,0.0-1.0-241.0-0.0,0,0,64144,,,,,,34.0,,1.0,,,,,,,,,,,,,,,,,,,,198.5,0.74,,
179,,isi,,html-keyboard-response,179,299120,0.0-1.0-243.0,0,0,64144,,,,,,34.0,,1.0,,,,,,,,,,,,,,,,,,,,199.5,1.0,,
180,,feedback,,html-keyboard-response,180,300125,0.0-1.0-244.0-0.0,0,0,64144,,,,,,34.0,,1.0,,,,,,,,,,,,,,,,,,,,200.5,1.0,,
181,,iti,,html-keyboard-response,181,303128,0.0-1.0-245.0,0,0,64144,,,,,,34.0,,1.0,,,,,,,,,,,,,,,,,,,,203.5,3.0,,
182,,rl_choice,,html-keyboard-response,182,303583,0.0-1.0-247.0,0,0,64144,,450.0,,,68.0,35.0,35.0,1.0,easy,1500.0,1000.0,1.0,80.0,20.0,80.0,20.0,B,A,/static/Simple_RL/Stimuli/Fractals_stims/B.jpg,/static/Simple_RL/Stimuli/Fractals_stims/A.jpg,1.0,80.0,20.0,80.0,20.0,B,A,203.95,0.45,0.0,
183,,rl_choice_confirmation,,html-keyboard-response,183,304637,0.0-1.0-248.0-0.0,0,0,64144,,,,,,35.0,,1.0,,,,,,,,,,,,,,,,,,,,205.0,1.05,,
184,,isi,,html-keyboard-response,184,305641,0.0-1.0-250.0,0,0,64144,,,,,,35.0,,1.0,,,,,,,,,,,,,,,,,,,,206.0,1.0,,
185,,feedback,,html-keyboard-response,185,306645,0.0-1.0-251.0-0.0,0,0,64144,,,,,,35.0,,1.0,,,,,,,,,,,,,,,,,,,,207.0,1.0,,
186,,iti,,html-keyboard-response,186,308148,0.0-1.0-252.0,0,0,64144,,,,,,35.0,,1.0,,,,,,,,,,,,,,,,,,,,208.5,1.5,,
187,,rl_choice,,html-keyboard-response,187,308749,0.0-1.0-254.0,0,0,64144,,597.0,,,68.0,36.0,36.0,1.0,easy,1500.0,2000.0,1.0,80.0,20.0,80.0,40.0,B,A,/static/Simple_RL/Stimuli/Fractals_stims/B.jpg,/static/Simple_RL/Stimuli/Fractals_stims/A.jpg,1.0,80.0,20.0,80.0,40.0,B,A,209.097,0.597,0.0,
188,,rl_choice_confirmation,,html-keyboard-response,188,309657,0.0-1.0-255.0-0.0,0,0,64144,,,,,,36.0,,1.0,,,,,,,,,,,,,,,,,,,,210.0,0.903,,
189,,isi,,html-keyboard-response,189,311660,0.0-1.0-257.0,0,0,64144,,,,,,36.0,,1.0,,,,,,,,,,,,,,,,,,,,212.0,2.0,,
190,,feedback,,html-keyboard-response,190,312663,0.0-1.0-258.0-0.0,0,0,64144,,,,,,36.0,,1.0,,,,,,,,,,,,,,,,,,,,213.0,1.0,,
191,,iti,,html-keyboard-response,191,314167,0.0-1.0-259.0,0,0,64144,,,,,,36.0,,1.0,,,,,,,,,,,,,,,,,,,,214.5,1.5,,
192,,rl_choice,,html-keyboard-response,192,314834,0.0-1.0-261.0,0,0,64144,,663.0,,,68.0,37.0,37.0,1.0,easy,2000.0,1000.0,1.0,80.0,20.0,60.0,40.0,B,A,/static/Simple_RL/Stimuli/Fractals_stims/B.jpg,/static/Simple_RL/Stimuli/Fractals_stims/A.jpg,1.0,80.0,20.0,60.0,40.0,B,A,215.163,0.663,0.0,
193,,rl_choice_confirmation,,html-keyboard-response,193,315676,0.0-1.0-262.0-0.0,0,0,64144,,,,,,37.0,,1.0,,,,,,,,,,,,,,,,,,,,216.0,0.837,,
194,,isi,,html-keyboard-response,194,316679,0.0-1.0-264.0,0,0,64144,,,,,,37.0,,1.0,,,,,,,,,,,,,,,,,,,,217.0,1.0,,
195,,feedback,,html-keyboard-response,195,317684,0.0-1.0-265.0-0.0,0,0,64144,,,,,,37.0,,1.0,,,,,,,,,,,,,,,,,,,,218.0,1.0,,
196,,iti,,html-keyboard-response,196,319687,0.0-1.0-266.0,0,0,64144,,,,,,37.0,,1.0,,,,,,,,,,,,,,,,,,,,220.0,2.0,,
197,,rl_choice,,html-keyboard-response,197,320120,0.0-1.0-268.0,0,0,64144,,428.0,,,75.0,38.0,38.0,1.0,easy,3500.0,1500.0,0.0,20.0,80.0,40.0,60.0,A,B,/static/Simple_RL/Stimuli/Fractals_stims/A.jpg,/static/Simple_RL/Stimuli/Fractals_stims/B.jpg,0.0,80.0,20.0,60.0,40.0,B,A,220.428,0.428,0.0,
198,,rl_choice_confirmation,,html-keyboard-response,198,321196,0.0-1.0-269.0-0.0,0,0,64144,,,,,,38.0,,1.0,,,,,,,,,,,,,,,,,,,,221.5,1.072,,
199,,isi,,html-keyboard-response,199,322699,0.0-1.0-271.0,0,0,64144,,,,,,38.0,,1.0,,,,,,,,,,,,,,,,,,,,223.0,1.5,,
200,,feedback,,html-keyboard-response,200,323703,0.0-1.0-272.0-0.0,0,0,64144,,,,,,38.0,,1.0,,,,,,,,,,,,,,,,,,,,224.0,1.0,,
201,,iti,,html-keyboard-response,201,327206,0.0-1.0-273.0,0,0,64144,,,,,,38.0,,1.0,,,,,,,,,,,,,,,,,,,,227.5,3.5,,
202,,rl_choice,,html-keyboard-response,202,328029,0.0-1.0-275.0,0,0,64144,,820.0,,,68.0,39.0,39.0,1.0,easy,1000.0,1000.0,1.0,80.0,20.0,60.0,20.0,B,A,/static/Simple_RL/Stimuli/Fractals_stims/B.jpg,/static/Simple_RL/Stimuli/Fractals_stims/A.jpg,1.0,80.0,20.0,60.0,20.0,B,A,228.32,0.82,0.0,
203,,rl_choice_confirmation,,html-keyboard-response,203,328714,0.0-1.0-276.0-0.0,0,0,64144,,,,,,39.0,,1.0,,,,,,,,,,,,,,,,,,,,229.0,0.68,,
204,,isi,,html-keyboard-response,204,329717,0.0-1.0-278.0,0,0,64144,,,,,,39.0,,1.0,,,,,,,,,,,,,,,,,,,,230.0,1.0,,
205,,feedback,,html-keyboard-response,205,330722,0.0-1.0-279.0-0.0,0,0,64144,,,,,,39.0,,1.0,,,,,,,,,,,,,,,,,,,,231.0,1.0,,
206,,iti,,html-keyboard-response,206,331726,0.0-1.0-280.0,0,0,64144,,,,,,39.0,,1.0,,,,,,,,,,,,,,,,,,,,232.0,1.0,,
207,,block_over,,html-keyboard-response,207,333840,0.0-1.0-281.0-0.0,0,0,64144,,2111.0,,,68.0,39.0,,,,,,,,,,,,,,,,,,,,,,,,,
208,,start_run,,html-keyboard-response,208,335783,0.0-1.0-281.0-1.0,0,0,64144,,1939.0,,,84.0,,,,,,,,,,,,,,,,,,,,,,,,,,
209,,rl_choice,,html-keyboard-response,209,336720,0.0-1.0-282.0,0,0,64144,,934.0,,,75.0,40.0,40.0,2.0,hard,1000.0,2000.0,0.0,40.0,60.0,40.0,40.0,C,D,/static/Simple_RL/Stimuli/Fractals_stims/C.jpg,/static/Simple_RL/Stimuli/Fractals_stims/D.jpg,0.0,60.0,40.0,40.0,40.0,D,C,0.934,0.934,0.0,
210,,rl_choice_confirmation,,html-keyboard-response,210,337291,0.0-1.0-283.0-0.0,0,0,64144,,,,,,40.0,,2.0,,,,,,,,,,,,,,,,,,,,1.5,0.566,,
211,,isi,,html-keyboard-response,211,339296,0.0-1.0-285.0,0,0,64144,,,,,,40.0,,2.0,,,,,,,,,,,,,,,,,,,,3.5,2.0,,
212,,feedback,,html-keyboard-response,212,340300,0.0-1.0-286.0-0.0,0,0,64144,,,,,,40.0,,2.0,,,,,,,,,,,,,,,,,,,,4.5,1.0,,
213,,iti,,html-keyboard-response,213,341303,0.0-1.0-287.0,0,0,64144,,,,,,40.0,,2.0,,,,,,,,,,,,,,,,,,,,5.5,1.0,,
214,,rl_choice,,html-keyboard-response,214,342015,0.0-1.0-289.0,0,0,64144,,708.0,,,68.0,41.0,41.0,2.0,hard,1000.0,3000.0,1.0,60.0,40.0,40.0,60.0,D,C,/static/Simple_RL/Stimuli/Fractals_stims/D.jpg,/static/Simple_RL/Stimuli/Fractals_stims/C.jpg,1.0,60.0,40.0,40.0,60.0,D,C,6.208,0.708,0.0,
215,,rl_choice_confirmation,,html-keyboard-response,215,342812,0.0-1.0-290.0-0.0,0,0,64144,,,,,,41.0,,2.0,,,,,,,,,,,,,,,,,,,,7.0,0.792,,
216,,isi,,html-keyboard-response,216,345815,0.0-1.0-292.0,0,0,64144,,,,,,41.0,,2.0,,,,,,,,,,,,,,,,,,,,10.0,3.0,,
217,,feedback,,html-keyboard-response,217,346820,0.0-1.0-293.0-0.0,0,0,64144,,,,,,41.0,,2.0,,,,,,,,,,,,,,,,,,,,11.0,1.0,,
218,,iti,,html-keyboard-response,218,347824,0.0-1.0-294.0,0,0,64144,,,,,,41.0,,2.0,,,,,,,,,,,,,,,,,,,,12.0,1.0,,
219,,rl_choice,,html-keyboard-response,219,348533,0.0-1.0-296.0,0,0,64144,,705.0,,,75.0,42.0,42.0,2.0,hard,1000.0,1000.0,0.0,40.0,60.0,40.0,40.0,C,D,/static/Simple_RL/Stimuli/Fractals_stims/C.jpg,/static/Simple_RL/Stimuli/Fractals_stims/D.jpg,0.0,60.0,40.0,40.0,40.0,D,C,12.705,0.705,0.0,
220,,rl_choice_confirmation,,html-keyboard-response,220,349333,0.0-1.0-297.0-0.0,0,0,64144,,,,,,42.0,,2.0,,,,,,,,,,,,,,,,,,,,13.5,0.795,,
221,,isi,,html-keyboard-response,221,350337,0.0-1.0-299.0,0,0,64144,,,,,,42.0,,2.0,,,,,,,,,,,,,,,,,,,,14.5,1.0,,
222,,feedback,,html-keyboard-response,222,351342,0.0-1.0-300.0-0.0,0,0,64144,,,,,,42.0,,2.0,,,,,,,,,,,,,,,,,,,,15.5,1.0,,
223,,iti,,html-keyboard-response,223,352345,0.0-1.0-301.0,0,0,64144,,,,,,42.0,,2.0,,,,,,,,,,,,,,,,,,,,16.5,1.0,,
224,,rl_choice,,html-keyboard-response,224,353612,0.0-1.0-303.0,0,0,64144,,1262.0,,,75.0,43.0,43.0,2.0,easy,1500.0,2000.0,0.0,20.0,80.0,0.0,60.0,A,B,/static/Simple_RL/Stimuli/Fractals_stims/A.jpg,/static/Simple_RL/Stimuli/Fractals_stims/B.jpg,0.0,80.0,20.0,60.0,0.0,B,A,17.762,1.262,0.0,
225,,rl_choice_confirmation,,html-keyboard-response,225,353854,0.0-1.0-304.0-0.0,0,0,64144,,,,,,43.0,,2.0,,,,,,,,,,,,,,,,,,,,18.0,0.238,,
226,,isi,,html-keyboard-response,226,355857,0.0-1.0-306.0,0,0,64144,,,,,,43.0,,2.0,,,,,,,,,,,,,,,,,,,,20.0,2.0,,
227,,feedback,,html-keyboard-response,227,356862,0.0-1.0-307.0-0.0,0,0,64144,,,,,,43.0,,2.0,,,,,,,,,,,,,,,,,,,,21.0,1.0,,
228,,iti,,html-keyboard-response,228,358366,0.0-1.0-308.0,0,0,64144,,,,,,43.0,,2.0,,,,,,,,,,,,,,,,,,,,22.5,1.5,,
229,,rl_choice,,html-keyboard-response,229,359206,0.0-1.0-310.0,0,0,64144,,837.0,,,68.0,44.0,44.0,2.0,hard,1000.0,1500.0,0.0,40.0,60.0,60.0,60.0,C,D,/static/Simple_RL/Stimuli/Fractals_stims/C.jpg,/static/Simple_RL/Stimuli/Fractals_stims/D.jpg,1.0,40.0,60.0,60.0,60.0,C,D,23.337,0.837,0.0,
230,,rl_choice_confirmation,,html-keyboard-response,230,359874,0.0-1.0-311.0-0.0,0,0,64144,,,,,,44.0,,2.0,,,,,,,,,,,,,,,,,,,,24.0,0.663,,
231,,isi,,html-keyboard-response,231,361378,0.0-1.0-313.0,0,0,64144,,,,,,44.0,,2.0,,,,,,,,,,,,,,,,,,,,25.5,1.5,,
232,,feedback,,html-keyboard-response,232,362381,0.0-1.0-314.0-0.0,0,0,64144,,,,,,44.0,,2.0,,,,,,,,,,,,,,,,,,,,26.5,1.0,,
233,,iti,,html-keyboard-response,233,363384,0.0-1.0-315.0,0,0,64144,,,,,,44.0,,2.0,,,,,,,,,,,,,,,,,,,,27.5,1.0,,
234,,rl_choice,,html-keyboard-response,234,364173,0.0-1.0-317.0,0,0,64144,,785.0,,,68.0,45.0,45.0,2.0,hard,2000.0,2000.0,0.0,40.0,60.0,40.0,60.0,C,D,/static/Simple_RL/Stimuli/Fractals_stims/C.jpg,/static/Simple_RL/Stimuli/Fractals_stims/D.jpg,1.0,40.0,60.0,40.0,60.0,C,D,28.285,0.785,0.0,
235,,rl_choice_confirmation,,html-keyboard-response,235,364893,0.0-1.0-318.0-0.0,0,0,64144,,,,,,45.0,,2.0,,,,,,,,,,,,,,,,,,,,29.0,0.715,,
236,,isi,,html-keyboard-response,236,366897,0.0-1.0-320.0,0,0,64144,,,,,,45.0,,2.0,,,,,,,,,,,,,,,,,,,,31.0,2.0,,
237,,feedback,,html-keyboard-response,237,367901,0.0-1.0-321.0-0.0,0,0,64144,,,,,,45.0,,2.0,,,,,,,,,,,,,,,,,,,,32.0,1.0,,
238,,iti,,html-keyboard-response,238,369904,0.0-1.0-322.0,0,0,64144,,,,,,45.0,,2.0,,,,,,,,,,,,,,,,,,,,34.0,2.0,,
239,,rl_choice,,html-keyboard-response,239,370600,0.0-1.0-324.0,0,0,64144,,692.0,,,75.0,46.0,46.0,2.0,hard,2000.0,2000.0,0.0,40.0,60.0,40.0,40.0,C,D,/static/Simple_RL/Stimuli/Fractals_stims/C.jpg,/static/Simple_RL/Stimuli/Fractals_stims/D.jpg,0.0,60.0,40.0,40.0,40.0,D,C,34.692,0.692,0.0,
240,,rl_choice_confirmation,,html-keyboard-response,240,371412,0.0-1.0-325.0-0.0,0,0,64144,,,,,,46.0,,2.0,,,,,,,,,,,,,,,,,,,,35.5,0.808,,
241,,isi,,html-keyboard-response,241,373415,0.0-1.0-327.0,0,0,64144,,,,,,46.0,,2.0,,,,,,,,,,,,,,,,,,,,37.5,2.0,,
242,,feedback,,html-keyboard-response,242,374420,0.0-1.0-328.0-0.0,0,0,64144,,,,,,46.0,,2.0,,,,,,,,,,,,,,,,,,,,38.5,1.0,,
243,,iti,,html-keyboard-response,243,376423,0.0-1.0-329.0,0,0,64144,,,,,,46.0,,2.0,,,,,,,,,,,,,,,,,,,,40.5,2.0,,
244,,rl_choice,,html-keyboard-response,244,376849,0.0-1.0-331.0,0,0,64144,,420.0,,,68.0,47.0,47.0,2.0,hard,1500.0,1500.0,1.0,60.0,40.0,80.0,20.0,D,C,/static/Simple_RL/Stimuli/Fractals_stims/D.jpg,/static/Simple_RL/Stimuli/Fractals_stims/C.jpg,1.0,60.0,40.0,80.0,20.0,D,C,40.92,0.42,0.0,
245,,rl_choice_confirmation,,html-keyboard-response,245,377935,0.0-1.0-332.0-0.0,0,0,64144,,,,,,47.0,,2.0,,,,,,,,,,,,,,,,,,,,42.0,1.08,,
246,,isi,,html-keyboard-response,246,379438,0.0-1.0-334.0,0,0,64144,,,,,,47.0,,2.0,,,,,,,,,,,,,,,,,,,,43.5,1.5,,
247,,feedback,,html-keyboard-response,247,380442,0.0-1.0-335.0-0.0,0,0,64144,,,,,,47.0,,2.0,,,,,,,,,,,,,,,,,,,,44.5,1.0,,
248,,iti,,html-keyboard-response,248,381945,0.0-1.0-336.0,0,0,64144,,,,,,47.0,,2.0,,,,,,,,,,,,,,,,,,,,46.0,1.5,,
249,,rl_choice,,html-keyboard-response,249,382814,0.0-1.0-338.0,0,0,64144,,865.0,,,68.0,48.0,48.0,2.0,easy,3500.0,1000.0,1.0,80.0,20.0,60.0,0.0,B,A,/static/Simple_RL/Stimuli/Fractals_stims/B.jpg,/static/Simple_RL/Stimuli/Fractals_stims/A.jpg,1.0,80.0,20.0,60.0,0.0,B,A,46.865,0.865,0.0,
250,,rl_choice_confirmation,,html-keyboard-response,250,383454,0.0-1.0-339.0-0.0,0,0,64144,,,,,,48.0,,2.0,,,,,,,,,,,,,,,,,,,,47.5,0.635,,
251,,isi,,html-keyboard-response,251,384458,0.0-1.0-341.0,0,0,64144,,,,,,48.0,,2.0,,,,,,,,,,,,,,,,,,,,48.5,1.0,,
252,,feedback,,html-keyboard-response,252,385462,0.0-1.0-342.0-0.0,0,0,64144,,,,,,48.0,,2.0,,,,,,,,,,,,,,,,,,,,49.5,1.0,,
253,,iti,,html-keyboard-response,253,388965,0.0-1.0-343.0,0,0,64144,,,,,,48.0,,2.0,,,,,,,,,,,,,,,,,,,,53.0,3.5,,
254,,rl_choice,,html-keyboard-response,254,389843,0.0-1.0-345.0,0,0,64144,,874.0,,,68.0,49.0,49.0,2.0,hard,1000.0,3500.0,1.0,60.0,40.0,80.0,20.0,D,C,/static/Simple_RL/Stimuli/Fractals_stims/D.jpg,/static/Simple_RL/Stimuli/Fractals_stims/C.jpg,1.0,60.0,40.0,80.0,20.0,D,C,53.874,0.874,0.0,
255,,rl_choice_confirmation,,html-keyboard-response,255,390471,0.0-1.0-346.0-0.0,0,0,64144,,,,,,49.0,,2.0,,,,,,,,,,,,,,,,,,,,54.5,0.626,,
256,,isi,,html-keyboard-response,256,393974,0.0-1.0-348.0,0,0,64144,,,,,,49.0,,2.0,,,,,,,,,,,,,,,,,,,,58.0,3.5,,
257,,feedback,,html-keyboard-response,257,394979,0.0-1.0-349.0-0.0,0,0,64144,,,,,,49.0,,2.0,,,,,,,,,,,,,,,,,,,,59.0,1.0,,
258,,iti,,html-keyboard-response,258,395982,0.0-1.0-350.0,0,0,64144,,,,,,49.0,,2.0,,,,,,,,,,,,,,,,,,,,60.0,1.0,,
259,,rl_choice,,html-keyboard-response,259,396523,0.0-1.0-352.0,0,0,64144,,537.0,,,68.0,50.0,50.0,2.0,easy,1000.0,1500.0,1.0,80.0,20.0,80.0,40.0,B,A,/static/Simple_RL/Stimuli/Fractals_stims/B.jpg,/static/Simple_RL/Stimuli/Fractals_stims/A.jpg,1.0,80.0,20.0,80.0,40.0,B,A,60.537,0.537,0.0,
260,,rl_choice_confirmation,,html-keyboard-response,260,397492,0.0-1.0-353.0-0.0,0,0,64144,,,,,,50.0,,2.0,,,,,,,,,,,,,,,,,,,,61.5,0.963,,
261,,isi,,html-keyboard-response,261,398995,0.0-1.0-355.0,0,0,64144,,,,,,50.0,,2.0,,,,,,,,,,,,,,,,,,,,63.0,1.5,,
262,,feedback,,html-keyboard-response,262,400000,0.0-1.0-356.0-0.0,0,0,64144,,,,,,50.0,,2.0,,,,,,,,,,,,,,,,,,,,64.0,1.0,,
263,,iti,,html-keyboard-response,263,401004,0.0-1.0-357.0,0,0,64144,,,,,,50.0,,2.0,,,,,,,,,,,,,,,,,,,,65.0,1.0,,
264,,rl_choice,,html-keyboard-response,264,401579,0.0-1.0-359.0,0,0,64144,,572.0,,,75.0,51.0,51.0,2.0,easy,1000.0,2000.0,0.0,20.0,80.0,0.0,100.0,A,B,/static/Simple_RL/Stimuli/Fractals_stims/A.jpg,/static/Simple_RL/Stimuli/Fractals_stims/B.jpg,0.0,80.0,20.0,100.0,0.0,B,A,65.572,0.572,0.0,
265,,rl_choice_confirmation,,html-keyboard-response,265,402512,0.0-1.0-360.0-0.0,0,0,64144,,,,,,51.0,,2.0,,,,,,,,,,,,,,,,,,,,66.5,0.928,,
266,,isi,,html-keyboard-response,266,404515,0.0-1.0-362.0,0,0,64144,,,,,,51.0,,2.0,,,,,,,,,,,,,,,,,,,,68.5,2.0,,
267,,feedback,,html-keyboard-response,267,405520,0.0-1.0-363.0-0.0,0,0,64144,,,,,,51.0,,2.0,,,,,,,,,,,,,,,,,,,,69.5,1.0,,
268,,iti,,html-keyboard-response,268,406523,0.0-1.0-364.0,0,0,64144,,,,,,51.0,,2.0,,,,,,,,,,,,,,,,,,,,70.5,1.0,,
269,,rl_choice,,html-keyboard-response,269,407080,0.0-1.0-366.0,0,0,64144,,554.0,,,75.0,52.0,52.0,2.0,easy,3000.0,1500.0,0.0,20.0,80.0,40.0,80.0,A,B,/static/Simple_RL/Stimuli/Fractals_stims/A.jpg,/static/Simple_RL/Stimuli/Fractals_stims/B.jpg,0.0,80.0,20.0,80.0,40.0,B,A,71.054,0.554,0.0,
270,,rl_choice_confirmation,,html-keyboard-response,270,408031,0.0-1.0-367.0-0.0,0,0,64144,,,,,,52.0,,2.0,,,,,,,,,,,,,,,,,,,,72.0,0.946,,
271,,isi,,html-keyboard-response,271,409534,0.0-1.0-369.0,0,0,64144,,,,,,52.0,,2.0,,,,,,,,,,,,,,,,,,,,73.5,1.5,,
272,,feedback,,html-keyboard-response,272,410539,0.0-1.0-370.0-0.0,0,0,64144,,,,,,52.0,,2.0,,,,,,,,,,,,,,,,,,,,74.5,1.0,,
273,,iti,,html-keyboard-response,273,413542,0.0-1.0-371.0,0,0,64144,,,,,,52.0,,2.0,,,,,,,,,,,,,,,,,,,,77.5,3.0,,
274,,rl_choice,,html-keyboard-response,274,414253,0.0-1.0-373.0,0,0,64144,,706.0,,,68.0,53.0,53.0,2.0,hard,2000.0,1000.0,1.0,60.0,40.0,60.0,40.0,D,C,/static/Simple_RL/Stimuli/Fractals_stims/D.jpg,/static/Simple_RL/Stimuli/Fractals_stims/C.jpg,1.0,60.0,40.0,60.0,40.0,D,C,78.206,0.706,0.0,
275,,rl_choice_confirmation,,html-keyboard-response,275,415051,0.0-1.0-374.0-0.0,0,0,64144,,,,,,53.0,,2.0,,,,,,,,,,,,,,,,,,,,79.0,0.794,,
276,,isi,,html-keyboard-response,276,416055,0.0-1.0-376.0,0,0,64144,,,,,,53.0,,2.0,,,,,,,,,,,,,,,,,,,,80.0,1.0,,
277,,feedback,,html-keyboard-response,277,417059,0.0-1.0-377.0-0.0,0,0,64144,,,,,,53.0,,2.0,,,,,,,,,,,,,,,,,,,,81.0,1.0,,
278,,iti,,html-keyboard-response,278,419063,0.0-1.0-378.0,0,0,64144,,,,,,53.0,,2.0,,,,,,,,,,,,,,,,,,,,83.0,2.0,,
279,,rl_choice,,html-keyboard-response,279,419617,0.0-1.0-380.0,0,0,64144,,550.0,,,75.0,54.0,54.0,2.0,easy,2000.0,1500.0,0.0,20.0,80.0,0.0,100.0,A,B,/static/Simple_RL/Stimuli/Fractals_stims/A.jpg,/static/Simple_RL/Stimuli/Fractals_stims/B.jpg,0.0,80.0,20.0,100.0,0.0,B,A,83.55,0.55,0.0,
280,,rl_choice_confirmation,,html-keyboard-response,280,420572,0.0-1.0-381.0-0.0,0,0,64144,,,,,,54.0,,2.0,,,,,,,,,,,,,,,,,,,,84.5,0.95,,
281,,isi,,html-keyboard-response,281,422076,0.0-1.0-383.0,0,0,64144,,,,,,54.0,,2.0,,,,,,,,,,,,,,,,,,,,86.0,1.5,,
282,,feedback,,html-keyboard-response,282,423081,0.0-1.0-384.0-0.0,0,0,64144,,,,,,54.0,,2.0,,,,,,,,,,,,,,,,,,,,87.0,1.0,,
283,,iti,,html-keyboard-response,283,425084,0.0-1.0-385.0,0,0,64144,,,,,,54.0,,2.0,,,,,,,,,,,,,,,,,,,,89.0,2.0,,
284,,rl_choice,,html-keyboard-response,284,425718,0.0-1.0-387.0,0,0,64144,,630.0,,,75.0,55.0,55.0,2.0,easy,1000.0,1000.0,0.0,20.0,80.0,40.0,100.0,A,B,/static/Simple_RL/Stimuli/Fractals_stims/A.jpg,/static/Simple_RL/Stimuli/Fractals_stims/B.jpg,0.0,80.0,20.0,100.0,40.0,B,A,89.63,0.63,0.0,
285,,rl_choice_confirmation,,html-keyboard-response,285,426591,0.0-1.0-388.0-0.0,0,0,64144,,,,,,55.0,,2.0,,,,,,,,,,,,,,,,,,,,90.5,0.87,,
286,,isi,,html-keyboard-response,286,427594,0.0-1.0-390.0,0,0,64144,,,,,,55.0,,2.0,,,,,,,,,,,,,,,,,,,,91.5,1.0,,
287,,feedback,,html-keyboard-response,287,428600,0.0-1.0-391.0-0.0,0,0,64144,,,,,,55.0,,2.0,,,,,,,,,,,,,,,,,,,,92.5,1.0,,
288,,iti,,html-keyboard-response,288,429603,0.0-1.0-392.0,0,0,64144,,,,,,55.0,,2.0,,,,,,,,,,,,,,,,,,,,93.5,1.0,,
289,,rl_choice,,html-keyboard-response,289,430604,0.0-1.0-394.0,0,0,64144,,996.0,,,68.0,56.0,56.0,2.0,hard,2000.0,1000.0,1.0,60.0,40.0,60.0,20.0,D,C,/static/Simple_RL/Stimuli/Fractals_stims/D.jpg,/static/Simple_RL/Stimuli/Fractals_stims/C.jpg,1.0,60.0,40.0,60.0,20.0,D,C,94.496,0.996,0.0,
290,,rl_choice_confirmation,,html-keyboard-response,290,431113,0.0-1.0-395.0-0.0,0,0,64144,,,,,,56.0,,2.0,,,,,,,,,,,,,,,,,,,,95.0,0.504,,
291,,isi,,html-keyboard-response,291,432116,0.0-1.0-397.0,0,0,64144,,,,,,56.0,,2.0,,,,,,,,,,,,,,,,,,,,96.0,1.0,,
292,,feedback,,html-keyboard-response,292,433121,0.0-1.0-398.0-0.0,0,0,64144,,,,,,56.0,,2.0,,,,,,,,,,,,,,,,,,,,97.0,1.0,,
293,,iti,,html-keyboard-response,293,435124,0.0-1.0-399.0,0,0,64144,,,,,,56.0,,2.0,,,,,,,,,,,,,,,,,,,,99.0,2.0,,
294,,rl_choice,,html-keyboard-response,294,435984,0.0-1.0-401.0,0,0,64144,,853.0,,,68.0,57.0,57.0,2.0,easy,1000.0,2000.0,1.0,80.0,20.0,80.0,0.0,B,A,/static/Simple_RL/Stimuli/Fractals_stims/B.jpg,/static/Simple_RL/Stimuli/Fractals_stims/A.jpg,1.0,80.0,20.0,80.0,0.0,B,A,99.853,0.853,0.0,
295,,rl_choice_confirmation,,html-keyboard-response,295,436635,0.0-1.0-402.0-0.0,0,0,64144,,,,,,57.0,,2.0,,,,,,,,,,,,,,,,,,,,100.5,0.647,,
296,,isi,,html-keyboard-response,296,438639,0.0-1.0-404.0,0,0,64144,,,,,,57.0,,2.0,,,,,,,,,,,,,,,,,,,,102.5,2.0,,
297,,feedback,,html-keyboard-response,297,439643,0.0-1.0-405.0-0.0,0,0,64144,,,,,,57.0,,2.0,,,,,,,,,,,,,,,,,,,,103.5,1.0,,
298,,iti,,html-keyboard-response,298,440646,0.0-1.0-406.0,0,0,64144,,,,,,57.0,,2.0,,,,,,,,,,,,,,,,,,,,104.5,1.0,,
299,,rl_choice,,html-keyboard-response,299,441270,0.0-1.0-408.0,0,0,64144,,620.0,,,75.0,58.0,58.0,2.0,hard,1000.0,1500.0,1.0,60.0,40.0,60.0,60.0,D,C,/static/Simple_RL/Stimuli/Fractals_stims/D.jpg,/static/Simple_RL/Stimuli/Fractals_stims/C.jpg,0.0,40.0,60.0,60.0,60.0,C,D,105.12,0.62,0.0,
300,,rl_choice_confirmation,,html-keyboard-response,300,442155,0.0-1.0-409.0-0.0,0,0,64144,,,,,,58.0,,2.0,,,,,,,,,,,,,,,,,,,,106.0,0.88,,
301,,isi,,html-keyboard-response,301,443659,0.0-1.0-411.0,0,0,64144,,,,,,58.0,,2.0,,,,,,,,,,,,,,,,,,,,107.5,1.5,,
302,,feedback,,html-keyboard-response,302,444664,0.0-1.0-412.0-0.0,0,0,64144,,,,,,58.0,,2.0,,,,,,,,,,,,,,,,,,,,108.5,1.0,,
303,,iti,,html-keyboard-response,303,445668,0.0-1.0-413.0,0,0,64144,,,,,,58.0,,2.0,,,,,,,,,,,,,,,,,,,,109.5,1.0,,
304,,rl_choice,,html-keyboard-response,304,446349,0.0-1.0-415.0,0,0,64144,,677.0,,,68.0,59.0,59.0,2.0,easy,1500.0,3000.0,1.0,80.0,20.0,80.0,40.0,B,A,/static/Simple_RL/Stimuli/Fractals_stims/B.jpg,/static/Simple_RL/Stimuli/Fractals_stims/A.jpg,1.0,80.0,20.0,80.0,40.0,B,A,110.177,0.677,0.0,
305,,rl_choice_confirmation,,html-keyboard-response,305,447178,0.0-1.0-416.0-0.0,0,0,64144,,,,,,59.0,,2.0,,,,,,,,,,,,,,,,,,,,111.0,0.823,,
306,,isi,,html-keyboard-response,306,450182,0.0-1.0-418.0,0,0,64144,,,,,,59.0,,2.0,,,,,,,,,,,,,,,,,,,,114.0,3.0,,
307,,feedback,,html-keyboard-response,307,451187,0.0-1.0-419.0-0.0,0,0,64144,,,,,,59.0,,2.0,,,,,,,,,,,,,,,,,,,,115.0,1.0,,
308,,iti,,html-keyboard-response,308,452690,0.0-1.0-420.0,0,0,64144,,,,,,59.0,,2.0,,,,,,,,,,,,,,,,,,,,116.5,1.5,,
309,,rl_choice,,html-keyboard-response,309,453808,0.0-1.0-422.0,0,0,64144,,1114.0,,,75.0,60.0,60.0,2.0,hard,1500.0,2000.0,0.0,40.0,60.0,40.0,80.0,C,D,/static/Simple_RL/Stimuli/Fractals_stims/C.jpg,/static/Simple_RL/Stimuli/Fractals_stims/D.jpg,0.0,60.0,40.0,80.0,40.0,D,C,117.614,1.114,0.0,
310,,rl_choice_confirmation,,html-keyboard-response,310,454199,0.0-1.0-423.0-0.0,0,0,64144,,,,,,60.0,,2.0,,,,,,,,,,,,,,,,,,,,118.0,0.386,,
311,,isi,,html-keyboard-response,311,456203,0.0-1.0-425.0,0,0,64144,,,,,,60.0,,2.0,,,,,,,,,,,,,,,,,,,,120.0,2.0,,
312,,feedback,,html-keyboard-response,312,457208,0.0-1.0-426.0-0.0,0,0,64144,,,,,,60.0,,2.0,,,,,,,,,,,,,,,,,,,,121.0,1.0,,
313,,iti,,html-keyboard-response,313,458711,0.0-1.0-427.0,0,0,64144,,,,,,60.0,,2.0,,,,,,,,,,,,,,,,,,,,122.5,1.5,,
314,,rl_choice,,html-keyboard-response,314,459511,0.0-1.0-429.0,0,0,64144,,796.0,,,75.0,61.0,61.0,2.0,hard,1000.0,1000.0,1.0,60.0,40.0,40.0,40.0,D,C,/static/Simple_RL/Stimuli/Fractals_stims/D.jpg,/static/Simple_RL/Stimuli/Fractals_stims/C.jpg,0.0,40.0,60.0,40.0,40.0,C,D,123.296,0.796,0.0,
315,,rl_choice_confirmation,,html-keyboard-response,315,460218,0.0-1.0-430.0-0.0,0,0,64144,,,,,,61.0,,2.0,,,,,,,,,,,,,,,,,,,,124.0,0.704,,
316,,isi,,html-keyboard-response,316,461222,0.0-1.0-432.0,0,0,64144,,,,,,61.0,,2.0,,,,,,,,,,,,,,,,,,,,125.0,1.0,,
317,,feedback,,html-keyboard-response,317,462227,0.0-1.0-433.0-0.0,0,0,64144,,,,,,61.0,,2.0,,,,,,,,,,,,,,,,,,,,126.0,1.0,,
318,,iti,,html-keyboard-response,318,463230,0.0-1.0-434.0,0,0,64144,,,,,,61.0,,2.0,,,,,,,,,,,,,,,,,,,,127.0,1.0,,
319,,rl_choice,,html-keyboard-response,319,464273,0.0-1.0-436.0,0,0,64144,,1039.0,,,68.0,62.0,62.0,2.0,easy,3000.0,1500.0,0.0,20.0,80.0,20.0,80.0,A,B,/static/Simple_RL/Stimuli/Fractals_stims/A.jpg,/static/Simple_RL/Stimuli/Fractals_stims/B.jpg,1.0,20.0,80.0,20.0,80.0,A,B,128.039,1.039,0.0,
320,,rl_choice_confirmation,,html-keyboard-response,320,464739,0.0-1.0-437.0-0.0,0,0,64144,,,,,,62.0,,2.0,,,,,,,,,,,,,,,,,,,,128.5,0.461,,
321,,isi,,html-keyboard-response,321,466243,0.0-1.0-439.0,0,0,64144,,,,,,62.0,,2.0,,,,,,,,,,,,,,,,,,,,130.0,1.5,,
322,,feedback,,html-keyboard-response,322,467247,0.0-1.0-440.0-0.0,0,0,64144,,,,,,62.0,,2.0,,,,,,,,,,,,,,,,,,,,131.0,1.0,,
323,,iti,,html-keyboard-response,323,470249,0.0-1.0-441.0,0,0,64144,,,,,,62.0,,2.0,,,,,,,,,,,,,,,,,,,,134.0,3.0,,
324,,rl_choice,,html-keyboard-response,324,470937,0.0-1.0-443.0,0,0,64144,,683.0,,,68.0,63.0,63.0,2.0,hard,1000.0,1500.0,1.0,60.0,40.0,60.0,40.0,D,C,/static/Simple_RL/Stimuli/Fractals_stims/D.jpg,/static/Simple_RL/Stimuli/Fractals_stims/C.jpg,1.0,60.0,40.0,60.0,40.0,D,C,134.683,0.683,0.0,
325,,rl_choice_confirmation,,html-keyboard-response,325,471759,0.0-1.0-444.0-0.0,0,0,64144,,,,,,63.0,,2.0,,,,,,,,,,,,,,,,,,,,135.5,0.817,,
326,,isi,,html-keyboard-response,326,473261,0.0-1.0-446.0,0,0,64144,,,,,,63.0,,2.0,,,,,,,,,,,,,,,,,,,,137.0,1.5,,
327,,feedback,,html-keyboard-response,327,474268,0.0-1.0-447.0-0.0,0,0,64144,,,,,,63.0,,2.0,,,,,,,,,,,,,,,,,,,,138.0,1.0,,
328,,iti,,html-keyboard-response,328,475272,0.0-1.0-448.0,0,0,64144,,,,,,63.0,,2.0,,,,,,,,,,,,,,,,,,,,139.0,1.0,,
329,,rl_choice,,html-keyboard-response,329,476022,0.0-1.0-450.0,0,0,64144,,745.0,,,75.0,64.0,64.0,2.0,hard,3500.0,1000.0,0.0,40.0,60.0,60.0,80.0,C,D,/static/Simple_RL/Stimuli/Fractals_stims/C.jpg,/static/Simple_RL/Stimuli/Fractals_stims/D.jpg,0.0,60.0,40.0,80.0,60.0,D,C,139.745,0.745,0.0,
330,,rl_choice_confirmation,,html-keyboard-response,330,476780,0.0-1.0-451.0-0.0,0,0,64144,,,,,,64.0,,2.0,,,,,,,,,,,,,,,,,,,,140.5,0.755,,
331,,isi,,html-keyboard-response,331,477784,0.0-1.0-453.0,0,0,64144,,,,,,64.0,,2.0,,,,,,,,,,,,,,,,,,,,141.5,1.0,,
332,,feedback,,html-keyboard-response,332,478789,0.0-1.0-454.0-0.0,0,0,64144,,,,,,64.0,,2.0,,,,,,,,,,,,,,,,,,,,142.5,1.0,,
333,,iti,,html-keyboard-response,333,482292,0.0-1.0-455.0,0,0,64144,,,,,,64.0,,2.0,,,,,,,,,,,,,,,,,,,,146.0,3.5,,
334,,rl_choice,,html-keyboard-response,334,482730,0.0-1.0-457.0,0,0,64144,,433.0,,,68.0,65.0,65.0,2.0,easy,1500.0,1000.0,1.0,80.0,20.0,100.0,40.0,B,A,/static/Simple_RL/Stimuli/Fractals_stims/B.jpg,/static/Simple_RL/Stimuli/Fractals_stims/A.jpg,1.0,80.0,20.0,100.0,40.0,B,A,146.433,0.433,0.0,
335,,rl_choice_confirmation,,html-keyboard-response,335,483802,0.0-1.0-458.0-0.0,0,0,64144,,,,,,65.0,,2.0,,,,,,,,,,,,,,,,,,,,147.5,1.067,,
336,,isi,,html-keyboard-response,336,484806,0.0-1.0-460.0,0,0,64144,,,,,,65.0,,2.0,,,,,,,,,,,,,,,,,,,,148.5,1.0,,
337,,feedback,,html-keyboard-response,337,485811,0.0-1.0-461.0-0.0,0,0,64144,,,,,,65.0,,2.0,,,,,,,,,,,,,,,,,,,,149.5,1.0,,
338,,iti,,html-keyboard-response,338,487314,0.0-1.0-462.0,0,0,64144,,,,,,65.0,,2.0,,,,,,,,,,,,,,,,,,,,151.0,1.5,,
339,,rl_choice,,html-keyboard-response,339,488022,0.0-1.0-464.0,0,0,64144,,701.0,,,68.0,66.0,66.0,2.0,hard,1500.0,3000.0,1.0,60.0,40.0,60.0,40.0,D,C,/static/Simple_RL/Stimuli/Fractals_stims/D.jpg,/static/Simple_RL/Stimuli/Fractals_stims/C.jpg,1.0,60.0,40.0,60.0,40.0,D,C,151.701,0.701,0.0,
340,,rl_choice_confirmation,,html-keyboard-response,340,488825,0.0-1.0-465.0-0.0,0,0,64144,,,,,,66.0,,2.0,,,,,,,,,,,,,,,,,,,,152.5,0.799,,
341,,isi,,html-keyboard-response,341,491829,0.0-1.0-467.0,0,0,64144,,,,,,66.0,,2.0,,,,,,,,,,,,,,,,,,,,155.5,3.0,,
342,,feedback,,html-keyboard-response,342,492834,0.0-1.0-468.0-0.0,0,0,64144,,,,,,66.0,,2.0,,,,,,,,,,,,,,,,,,,,156.5,1.0,,
343,,iti,,html-keyboard-response,343,494338,0.0-1.0-469.0,0,0,64144,,,,,,66.0,,2.0,,,,,,,,,,,,,,,,,,,,158.0,1.5,,
344,,rl_choice,,html-keyboard-response,344,495113,0.0-1.0-471.0,0,0,64144,,771.0,,,75.0,67.0,67.0,2.0,hard,1500.0,1500.0,0.0,40.0,60.0,20.0,80.0,C,D,/static/Simple_RL/Stimuli/Fractals_stims/C.jpg,/static/Simple_RL/Stimuli/Fractals_stims/D.jpg,0.0,60.0,40.0,80.0,20.0,D,C,158.771,0.771,0.0,
345,,rl_choice_confirmation,,html-keyboard-response,345,495848,0.0-1.0-472.0-0.0,0,0,64144,,,,,,67.0,,2.0,,,,,,,,,,,,,,,,,,,,159.5,0.729,,
346,,isi,,html-keyboard-response,346,497352,0.0-1.0-474.0,0,0,64144,,,,,,67.0,,2.0,,,,,,,,,,,,,,,,,,,,161.0,1.5,,
347,,feedback,,html-keyboard-response,347,498357,0.0-1.0-475.0-0.0,0,0,64144,,,,,,67.0,,2.0,,,,,,,,,,,,,,,,,,,,162.0,1.0,,
348,,iti,,html-keyboard-response,348,499860,0.0-1.0-476.0,0,0,64144,,,,,,67.0,,2.0,,,,,,,,,,,,,,,,,,,,163.5,1.5,,
349,,rl_choice,,html-keyboard-response,349,500457,0.0-1.0-478.0,0,0,64144,,592.0,,,68.0,68.0,68.0,2.0,hard,3000.0,1000.0,1.0,60.0,40.0,60.0,40.0,D,C,/static/Simple_RL/Stimuli/Fractals_stims/D.jpg,/static/Simple_RL/Stimuli/Fractals_stims/C.jpg,1.0,60.0,40.0,60.0,40.0,D,C,164.092,0.592,0.0,
350,,rl_choice_confirmation,,html-keyboard-response,350,501371,0.0-1.0-479.0-0.0,0,0,64144,,,,,,68.0,,2.0,,,,,,,,,,,,,,,,,,,,165.0,0.908,,
351,,isi,,html-keyboard-response,351,502375,0.0-1.0-481.0,0,0,64144,,,,,,68.0,,2.0,,,,,,,,,,,,,,,,,,,,166.0,1.0,,
352,,feedback,,html-keyboard-response,352,503380,0.0-1.0-482.0-0.0,0,0,64144,,,,,,68.0,,2.0,,,,,,,,,,,,,,,,,,,,167.0,1.0,,
353,,iti,,html-keyboard-response,353,506383,0.0-1.0-483.0,0,0,64144,,,,,,68.0,,2.0,,,,,,,,,,,,,,,,,,,,170.0,3.0,,
354,,rl_choice,,html-keyboard-response,354,507037,0.0-1.0-485.0,0,0,64144,,650.0,,,75.0,69.0,69.0,2.0,easy,1000.0,1000.0,0.0,20.0,80.0,40.0,80.0,A,B,/static/Simple_RL/Stimuli/Fractals_stims/A.jpg,/static/Simple_RL/Stimuli/Fractals_stims/B.jpg,0.0,80.0,20.0,80.0,40.0,B,A,170.65,0.65,0.0,
355,,rl_choice_confirmation,,html-keyboard-response,355,507892,0.0-1.0-486.0-0.0,0,0,64144,,,,,,69.0,,2.0,,,,,,,,,,,,,,,,,,,,171.5,0.85,,
356,,isi,,html-keyboard-response,356,508896,0.0-1.0-488.0,0,0,64144,,,,,,69.0,,2.0,,,,,,,,,,,,,,,,,,,,172.5,1.0,,
357,,feedback,,html-keyboard-response,357,509901,0.0-1.0-489.0-0.0,0,0,64144,,,,,,69.0,,2.0,,,,,,,,,,,,,,,,,,,,173.5,1.0,,
358,,iti,,html-keyboard-response,358,510905,0.0-1.0-490.0,0,0,64144,,,,,,69.0,,2.0,,,,,,,,,,,,,,,,,,,,174.5,1.0,,
359,,rl_choice,,html-keyboard-response,359,511543,0.0-1.0-492.0,0,0,64144,,634.0,,,68.0,70.0,70.0,2.0,easy,1500.0,1000.0,1.0,80.0,20.0,80.0,20.0,B,A,/static/Simple_RL/Stimuli/Fractals_stims/B.jpg,/static/Simple_RL/Stimuli/Fractals_stims/A.jpg,1.0,80.0,20.0,80.0,20.0,B,A,175.134,0.634,0.0,
360,,rl_choice_confirmation,,html-keyboard-response,360,512415,0.0-1.0-493.0-0.0,0,0,64144,,,,,,70.0,,2.0,,,,,,,,,,,,,,,,,,,,176.0,0.866,,
361,,isi,,html-keyboard-response,361,513418,0.0-1.0-495.0,0,0,64144,,,,,,70.0,,2.0,,,,,,,,,,,,,,,,,,,,177.0,1.0,,
362,,feedback,,html-keyboard-response,362,514423,0.0-1.0-496.0-0.0,0,0,64144,,,,,,70.0,,2.0,,,,,,,,,,,,,,,,,,,,178.0,1.0,,
363,,iti,,html-keyboard-response,363,515926,0.0-1.0-497.0,0,0,64144,,,,,,70.0,,2.0,,,,,,,,,,,,,,,,,,,,179.5,1.5,,
364,,rl_choice,,html-keyboard-response,364,516702,0.0-1.0-499.0,0,0,64144,,771.0,,,75.0,71.0,71.0,2.0,easy,1500.0,1000.0,0.0,20.0,80.0,40.0,60.0,A,B,/static/Simple_RL/Stimuli/Fractals_stims/A.jpg,/static/Simple_RL/Stimuli/Fractals_stims/B.jpg,0.0,80.0,20.0,60.0,40.0,B,A,180.271,0.771,0.0,
365,,rl_choice_confirmation,,html-keyboard-response,365,517436,0.0-1.0-500.0-0.0,0,0,64144,,,,,,71.0,,2.0,,,,,,,,,,,,,,,,,,,,181.0,0.729,,
366,,isi,,html-keyboard-response,366,518440,0.0-1.0-502.0,0,0,64144,,,,,,71.0,,2.0,,,,,,,,,,,,,,,,,,,,182.0,1.0,,
367,,feedback,,html-keyboard-response,367,519445,0.0-1.0-503.0-0.0,0,0,64144,,,,,,71.0,,2.0,,,,,,,,,,,,,,,,,,,,183.0,1.0,,
368,,iti,,html-keyboard-response,368,520948,0.0-1.0-504.0,0,0,64144,,,,,,71.0,,2.0,,,,,,,,,,,,,,,,,,,,184.5,1.5,,
369,,rl_choice,,html-keyboard-response,369,521570,0.0-1.0-506.0,0,0,64144,,617.0,,,75.0,72.0,72.0,2.0,easy,2000.0,3000.0,0.0,20.0,80.0,20.0,100.0,A,B,/static/Simple_RL/Stimuli/Fractals_stims/A.jpg,/static/Simple_RL/Stimuli/Fractals_stims/B.jpg,0.0,80.0,20.0,100.0,20.0,B,A,185.117,0.617,0.0,
370,,rl_choice_confirmation,,html-keyboard-response,370,522458,0.0-1.0-507.0-0.0,0,0,64144,,,,,,72.0,,2.0,,,,,,,,,,,,,,,,,,,,186.0,0.883,,
371,,isi,,html-keyboard-response,371,525461,0.0-1.0-509.0,0,0,64144,,,,,,72.0,,2.0,,,,,,,,,,,,,,,,,,,,189.0,3.0,,
372,,feedback,,html-keyboard-response,372,526467,0.0-1.0-510.0-0.0,0,0,64144,,,,,,72.0,,2.0,,,,,,,,,,,,,,,,,,,,190.0,1.0,,
373,,iti,,html-keyboard-response,373,528470,0.0-1.0-511.0,0,0,64144,,,,,,72.0,,2.0,,,,,,,,,,,,,,,,,,,,192.0,2.0,,
374,,rl_choice,,html-keyboard-response,374,529200,0.0-1.0-513.0,0,0,64144,,728.0,,,75.0,73.0,73.0,2.0,easy,1000.0,3500.0,0.0,20.0,80.0,40.0,60.0,A,B,/static/Simple_RL/Stimuli/Fractals_stims/A.jpg,/static/Simple_RL/Stimuli/Fractals_stims/B.jpg,0.0,80.0,20.0,60.0,40.0,B,A,192.728,0.728,0.0,
375,,rl_choice_confirmation,,html-keyboard-response,375,529976,0.0-1.0-514.0-0.0,0,0,64144,,,,,,73.0,,2.0,,,,,,,,,,,,,,,,,,,,193.5,0.772,,
376,,isi,,html-keyboard-response,376,533479,0.0-1.0-516.0,0,0,64144,,,,,,73.0,,2.0,,,,,,,,,,,,,,,,,,,,197.0,3.5,,
377,,feedback,,html-keyboard-response,377,534484,0.0-1.0-517.0-0.0,0,0,64144,,,,,,73.0,,2.0,,,,,,,,,,,,,,,,,,,,198.0,1.0,,
378,,iti,,html-keyboard-response,378,535488,0.0-1.0-518.0,0,0,64144,,,,,,73.0,,2.0,,,,,,,,,,,,,,,,,,,,199.0,1.0,,
379,,rl_choice,,html-keyboard-response,379,536183,0.0-1.0-520.0,0,0,64144,,691.0,,,75.0,74.0,74.0,2.0,hard,3000.0,1000.0,0.0,40.0,60.0,40.0,40.0,C,D,/static/Simple_RL/Stimuli/Fractals_stims/C.jpg,/static/Simple_RL/Stimuli/Fractals_stims/D.jpg,0.0,60.0,40.0,40.0,40.0,D,C,199.691,0.691,0.0,
380,,rl_choice_confirmation,,html-keyboard-response,380,536997,0.0-1.0-521.0-0.0,0,0,64144,,,,,,74.0,,2.0,,,,,,,,,,,,,,,,,,,,200.5,0.809,,
381,,isi,,html-keyboard-response,381,538001,0.0-1.0-523.0,0,0,64144,,,,,,74.0,,2.0,,,,,,,,,,,,,,,,,,,,201.5,1.0,,
382,,feedback,,html-keyboard-response,382,539007,0.0-1.0-524.0-0.0,0,0,64144,,,,,,74.0,,2.0,,,,,,,,,,,,,,,,,,,,202.5,1.0,,
383,,iti,,html-keyboard-response,383,542010,0.0-1.0-525.0,0,0,64144,,,,,,74.0,,2.0,,,,,,,,,,,,,,,,,,,,205.5,3.0,,
384,,rl_choice,,html-keyboard-response,384,542573,0.0-1.0-527.0,0,0,64144,,560.0,,,75.0,75.0,75.0,2.0,easy,1000.0,1000.0,0.0,20.0,80.0,0.0,60.0,A,B,/static/Simple_RL/Stimuli/Fractals_stims/A.jpg,/static/Simple_RL/Stimuli/Fractals_stims/B.jpg,0.0,80.0,20.0,60.0,0.0,B,A,206.06,0.56,0.0,
385,,rl_choice_confirmation,,html-keyboard-response,385,543519,0.0-1.0-528.0-0.0,0,0,64144,,,,,,75.0,,2.0,,,,,,,,,,,,,,,,,,,,207.0,0.94,,
386,,isi,,html-keyboard-response,386,544522,0.0-1.0-530.0,0,0,64144,,,,,,75.0,,2.0,,,,,,,,,,,,,,,,,,,,208.0,1.0,,
387,,feedback,,html-keyboard-response,387,545527,0.0-1.0-531.0-0.0,0,0,64144,,,,,,75.0,,2.0,,,,,,,,,,,,,,,,,,,,209.0,1.0,,
388,,iti,,html-keyboard-response,388,546531,0.0-1.0-532.0,0,0,64144,,,,,,75.0,,2.0,,,,,,,,,,,,,,,,,,,,210.0,1.0,,
389,,rl_choice,,html-keyboard-response,389,547199,0.0-1.0-534.0,0,0,64144,,664.0,,,68.0,76.0,76.0,2.0,easy,2000.0,1500.0,1.0,80.0,20.0,100.0,20.0,B,A,/static/Simple_RL/Stimuli/Fractals_stims/B.jpg,/static/Simple_RL/Stimuli/Fractals_stims/A.jpg,1.0,80.0,20.0,100.0,20.0,B,A,210.664,0.664,0.0,
390,,rl_choice_confirmation,,html-keyboard-response,390,548041,0.0-1.0-535.0-0.0,0,0,64144,,,,,,76.0,,2.0,,,,,,,,,,,,,,,,,,,,211.5,0.836,,
391,,isi,,html-keyboard-response,391,549544,0.0-1.0-537.0,0,0,64144,,,,,,76.0,,2.0,,,,,,,,,,,,,,,,,,,,213.0,1.5,,
392,,feedback,,html-keyboard-response,392,550551,0.0-1.0-538.0-0.0,0,0,64144,,,,,,76.0,,2.0,,,,,,,,,,,,,,,,,,,,214.0,1.0,,
393,,iti,,html-keyboard-response,393,552554,0.0-1.0-539.0,0,0,64144,,,,,,76.0,,2.0,,,,,,,,,,,,,,,,,,,,216.0,2.0,,
394,,rl_choice,,html-keyboard-response,394,553084,0.0-1.0-541.0,0,0,64144,,525.0,,,75.0,77.0,77.0,2.0,easy,1000.0,1000.0,0.0,20.0,80.0,0.0,80.0,A,B,/static/Simple_RL/Stimuli/Fractals_stims/A.jpg,/static/Simple_RL/Stimuli/Fractals_stims/B.jpg,0.0,80.0,20.0,80.0,0.0,B,A,216.525,0.525,0.0,
395,,rl_choice_confirmation,,html-keyboard-response,395,554064,0.0-1.0-542.0-0.0,0,0,64144,,,,,,77.0,,2.0,,,,,,,,,,,,,,,,,,,,217.5,0.975,,
396,,isi,,html-keyboard-response,396,555068,0.0-1.0-544.0,0,0,64144,,,,,,77.0,,2.0,,,,,,,,,,,,,,,,,,,,218.5,1.0,,
397,,feedback,,html-keyboard-response,397,556073,0.0-1.0-545.0-0.0,0,0,64144,,,,,,77.0,,2.0,,,,,,,,,,,,,,,,,,,,219.5,1.0,,
398,,iti,,html-keyboard-response,398,557076,0.0-1.0-546.0,0,0,64144,,,,,,77.0,,2.0,,,,,,,,,,,,,,,,,,,,220.5,1.0,,
399,,rl_choice,,html-keyboard-response,399,557797,0.0-1.0-548.0,0,0,64144,,715.0,,,75.0,78.0,78.0,2.0,hard,1500.0,1000.0,0.0,40.0,60.0,20.0,60.0,C,D,/static/Simple_RL/Stimuli/Fractals_stims/C.jpg,/static/Simple_RL/Stimuli/Fractals_stims/D.jpg,0.0,60.0,40.0,60.0,20.0,D,C,221.215,0.715,0.0,
400,,rl_choice_confirmation,,html-keyboard-response,400,558587,0.0-1.0-549.0-0.0,0,0,64144,,,,,,78.0,,2.0,,,,,,,,,,,,,,,,,,,,222.0,0.785,,
401,,isi,,html-keyboard-response,401,559590,0.0-1.0-551.0,0,0,64144,,,,,,78.0,,2.0,,,,,,,,,,,,,,,,,,,,223.0,1.0,,
402,,feedback,,html-keyboard-response,402,560596,0.0-1.0-552.0-0.0,0,0,64144,,,,,,78.0,,2.0,,,,,,,,,,,,,,,,,,,,224.0,1.0,,
403,,iti,,html-keyboard-response,403,562099,0.0-1.0-553.0,0,0,64144,,,,,,78.0,,2.0,,,,,,,,,,,,,,,,,,,,225.5,1.5,,
404,,rl_choice,,html-keyboard-response,404,563030,0.0-1.0-555.0,0,0,64144,,926.0,,,68.0,79.0,79.0,2.0,easy,2000.0,2000.0,1.0,80.0,20.0,100.0,0.0,B,A,/static/Simple_RL/Stimuli/Fractals_stims/B.jpg,/static/Simple_RL/Stimuli/Fractals_stims/A.jpg,1.0,80.0,20.0,100.0,0.0,B,A,226.426,0.926,0.0,
405,,rl_choice_confirmation,,html-keyboard-response,405,563609,0.0-1.0-556.0-0.0,0,0,64144,,,,,,79.0,,2.0,,,,,,,,,,,,,,,,,,,,227.0,0.574,,
406,,isi,,html-keyboard-response,406,565612,0.0-1.0-558.0,0,0,64144,,,,,,79.0,,2.0,,,,,,,,,,,,,,,,,,,,229.0,2.0,,
407,,feedback,,html-keyboard-response,407,566617,0.0-1.0-559.0-0.0,0,0,64144,,,,,,79.0,,2.0,,,,,,,,,,,,,,,,,,,,230.0,1.0,,
408,,iti,,html-keyboard-response,408,568621,0.0-1.0-560.0,0,0,64144,,,,,,79.0,,2.0,,,,,,,,,,,,,,,,,,,,232.0,2.0,,1.0
409,,final_tally,,html-keyboard-response,409,571162,0.0-2.0,0,0,64144,,2537.0,,,68.0,,,,,,,,,,,,,,,,,,,,,,,,,,
410,,debreif_intro,,html-keyboard-response,410,576479,0.0-3.0,0,0,64144,,5277.0,,,68.0,,,,,,,,,,,,,,,,,,,,,,,,,,
411,,debreif_age,,survey-text,411,582489,0.0-4.0,0,0,64144,,6007.0,"{""Q0"":""35""}",,,,,,,,,,,,,,,,,,,,,,,,,,,,
412,,debreif_gender,,survey-multi-choice,412,584921,0.0-5.0,0,0,64144,,2425.0,"{""Q0"":""Female""}",,,,,,,,,,,,,,,,,,,,,,,,,,,,
413,,debreif_dominant_hand,,survey-multi-choice,413,588012,0.0-6.0,0,0,64144,,3085.0,"{""Q0"":""Right""}",,,,,,,,,,,,,,,,,,,,,,,,,,,,
414,,debreif_native_language,,survey-multi-choice,414,590630,0.0-7.0,0,0,64144,,2611.0,"{""Q0"":""Yes""}",,,,,,,,,,,,,,,,,,,,,,,,,,,,
415,,debreif_fluency,,survey-likert,415,595543,0.0-8.0,0,0,64144,,4905.0,"{""Q0"":5}",,,,,,,,,,,,,,,,,,,,,,,,,,,,
416,,debreif_strategy_category_learning,,survey-text,416,655699,0.0-9.0,0,0,64144,,60153.0,"{""Q0"":""I tried to keep track of the items that had low or no value and just picked the other option when they came up.""}",,,,,,,,,,,,,,,,,,,,,,,,,,,,
417,,debreif_strategy_old_trials,,survey-text,417,678918,0.0-10.0,0,0,64144,,23215.0,"{""Q0"":""I tried to keep track of color or bottle shape.""}",,,,,,,,,,,,,,,,,,,,,,,,,,,,
418,,debreif_strategy_category_memory,,survey-text,418,749101,0.0-11.0,0,0,64144,,70180.0,"{""Q0"":""I hadn't kept track of exact values so I guessed based on whether I had categorized the item as low or high value.""}",,,,,,,,,,,,,,,,,,,,,,,,,,,,
419,,debreif_strategy_size,,survey-text,419,785095,0.0-12.0,0,0,64144,,35991.0,"{""Q0"":""I based it on my general knowledge of what the items looked like in rl.""}",,,,,,,,,,,,,,,,,,,,,,,,,,,,
420,,debreif_strategy_rl,,survey-text,420,813063,0.0-13.0,0,0,64144,,27964.0,"{""Q0"":""I kept track of which colors were worth more on average.""}",,,,,,,,,,,,,,,,,,,,,,,,,,,,
421,,debreif_clear_instructions,,survey-text,421,819168,0.0-14.0,0,0,64144,,6100.0,"{""Q0"":""No.""}",,,,,,,,,,,,,,,,,,,,,,,,,,,,
422,,debreif_end,,html-keyboard-response,422,831043,0.0-15.0,0,0,64144,,11870.0,,,32.0,,,,,,,,,,,,,,,,,,,,,,,,,,
