,success,ttype,start_time,trial_type,trial_index,time_elapsed,internal_node_id,warning,missed_checkup,PID,view_history,rt,responses,repeat_instructions,key_press,index,trial_num,block,condition,iti,isi,high_group_on_left,left_group_value,right_group_value,left_item_value,right_item_value,left_img,right_img,left_img_path,right_img_path,left_chosen,chosen_group_value,unchosen_group_value,chosen_item_value,unchosen_item_value,chosen_img,unchosen_img,onset,duration,no_response,total_bonus_tally
0,True,full_screen,d06032022hr1607,fullscreen,0,3423,0.0-0.0,0,0,61002,,,,,,,,,,,,,,,,,,,,,,,,,,,,,,,
1,,size_instructions,,instructions,1,85360,0.0-1.0-0.0-0.0,0,0,61002,"[{""page_index"":0,""viewing_time"":4097},{""page_index"":1,""viewing_time"":22048},{""page_index"":2,""viewing_time"":21312},{""page_index"":3,""viewing_time"":9078},{""page_index"":2,""viewing_time"":19226},{""page_index"":3,""viewing_time"":1638},{""page_index"":4,""viewing_time"":2940},{""page_index"":5,""viewing_time"":1596}]",81936.0,,,,,,,,,,,,,,,,,,,,,,,,,,,,,
2,,rl_comprehension_check,,survey-multi-choice,2,94924,0.0-1.0-0.0-1.0,0,0,61002,,9560.0,"{""Q0"":""True"",""Q1"":""True"",""Q2"":""D for left and K for right""}",0.0,,,,,,,,,,,,,,,,,,,,,,,,,,,
3,,,,html-keyboard-response,3,100516,0.0-1.0-1.0,0,0,61002,,5589.0,,,68.0,,,,,,,,,,,,,,,,,,,,,,,,,,
4,,rl_choice,,html-keyboard-response,4,101490,0.0-1.0-2.0,0,0,61002,,971.0,,,75.0,0.0,0.0,1.0,hard,1500.0,2000.0,1.0,60.0,40.0,80.0,20.0,B,A,/static/Simple_RL/Stimuli/Fractals_stims/B.jpg,/static/Simple_RL/Stimuli/Fractals_stims/A.jpg,0.0,40.0,60.0,20.0,80.0,A,B,0.971,0.971,0.0,
5,,rl_choice_confirmation,,html-keyboard-response,5,102023,0.0-1.0-3.0-0.0,0,0,61002,,,,,,0.0,,,,,,,,,,,,,,,,,,,,,,1.5,0.529,,
6,,isi,,html-keyboard-response,6,104025,0.0-1.0-5.0,0,0,61002,,,,,,,,,,,,,,,,,,,,,,,,,,,,3.5,2.0,,
7,,feedback,,html-keyboard-response,7,105027,0.0-1.0-6.0-0.0,0,0,61002,,,,,,0.0,,,,,,,,,,,,,,,,,,,,,,4.5,1.0,,
8,,iti,,html-keyboard-response,8,106529,0.0-1.0-7.0,0,0,61002,,,,,,,,,,,,,,,,,,,,,,,,,,,,6.0,1.5,,
9,,rl_choice,,html-keyboard-response,9,107532,0.0-1.0-9.0,0,0,61002,,1000.0,,,75.0,1.0,1.0,1.0,easy,1500.0,3000.0,1.0,80.0,20.0,60.0,40.0,D,C,/static/Simple_RL/Stimuli/Fractals_stims/D.jpg,/static/Simple_RL/Stimuli/Fractals_stims/C.jpg,0.0,20.0,80.0,40.0,60.0,C,D,7.0,1.0,0.0,
10,,rl_choice_confirmation,,html-keyboard-response,10,108034,0.0-1.0-10.0-0.0,0,0,61002,,,,,,1.0,,,,,,,,,,,,,,,,,,,,,,7.5,0.5,,
11,,isi,,html-keyboard-response,11,111036,0.0-1.0-12.0,0,0,61002,,,,,,,,,,,,,,,,,,,,,,,,,,,,10.5,3.0,,
12,,feedback,,html-keyboard-response,12,112038,0.0-1.0-13.0-0.0,0,0,61002,,,,,,1.0,,,,,,,,,,,,,,,,,,,,,,11.5,1.0,,
13,,iti,,html-keyboard-response,13,113541,0.0-1.0-14.0,0,0,61002,,,,,,,,,,,,,,,,,,,,,,,,,,,,13.0,1.5,,
14,,rl_choice,,html-keyboard-response,14,114226,0.0-1.0-16.0,0,0,61002,,684.0,,,68.0,2.0,2.0,1.0,hard,2000.0,3000.0,0.0,40.0,60.0,40.0,40.0,A,B,/static/Simple_RL/Stimuli/Fractals_stims/A.jpg,/static/Simple_RL/Stimuli/Fractals_stims/B.jpg,1.0,40.0,60.0,40.0,40.0,A,B,13.684,0.684,0.0,
15,,rl_choice_confirmation,,html-keyboard-response,15,115050,0.0-1.0-17.0-0.0,0,0,61002,,,,,,2.0,,,,,,,,,,,,,,,,,,,,,,14.5,0.816,,
16,,isi,,html-keyboard-response,16,118060,0.0-1.0-19.0,0,0,61002,,,,,,,,,,,,,,,,,,,,,,,,,,,,17.5,3.0,,
17,,feedback,,html-keyboard-response,17,119075,0.0-1.0-20.0-0.0,0,0,61002,,,,,,2.0,,,,,,,,,,,,,,,,,,,,,,18.5,1.0,,
18,,iti,,html-keyboard-response,18,121077,0.0-1.0-21.0,0,0,61002,,,,,,,,,,,,,,,,,,,,,,,,,,,,20.5,2.0,,
19,,rl_choice,,html-keyboard-response,19,121755,0.0-1.0-23.0,0,0,61002,,675.0,,,75.0,3.0,3.0,1.0,hard,1000.0,1000.0,0.0,40.0,60.0,40.0,40.0,A,B,/static/Simple_RL/Stimuli/Fractals_stims/A.jpg,/static/Simple_RL/Stimuli/Fractals_stims/B.jpg,0.0,60.0,40.0,40.0,40.0,B,A,21.175,0.675,0.0,
20,,rl_choice_confirmation,,html-keyboard-response,20,122583,0.0-1.0-24.0-0.0,0,0,61002,,,,,,3.0,,,,,,,,,,,,,,,,,,,,,,22.0,0.825,,
21,,isi,,html-keyboard-response,21,123585,0.0-1.0-26.0,0,0,61002,,,,,,,,,,,,,,,,,,,,,,,,,,,,23.0,1.0,,
22,,feedback,,html-keyboard-response,22,124588,0.0-1.0-27.0-0.0,0,0,61002,,,,,,3.0,,,,,,,,,,,,,,,,,,,,,,24.0,1.0,,
23,,iti,,html-keyboard-response,23,125590,0.0-1.0-28.0,0,0,61002,,,,,,,,,,,,,,,,,,,,,,,,,,,,25.0,1.0,,
24,,rl_choice,,html-keyboard-response,24,126482,0.0-1.0-30.0,0,0,61002,,890.0,,,68.0,4.0,4.0,1.0,hard,3500.0,3500.0,1.0,60.0,40.0,60.0,20.0,B,A,/static/Simple_RL/Stimuli/Fractals_stims/B.jpg,/static/Simple_RL/Stimuli/Fractals_stims/A.jpg,1.0,60.0,40.0,60.0,20.0,B,A,25.89,0.89,0.0,
25,,rl_choice_confirmation,,html-keyboard-response,25,127095,0.0-1.0-31.0-0.0,0,0,61002,,,,,,4.0,,,,,,,,,,,,,,,,,,,,,,26.5,0.61,,
26,,isi,,html-keyboard-response,26,130598,0.0-1.0-33.0,0,0,61002,,,,,,,,,,,,,,,,,,,,,,,,,,,,30.0,3.5,,
27,,feedback,,html-keyboard-response,27,131601,0.0-1.0-34.0-0.0,0,0,61002,,,,,,4.0,,,,,,,,,,,,,,,,,,,,,,31.0,1.0,,
28,,iti,,html-keyboard-response,28,135102,0.0-1.0-35.0,0,0,61002,,,,,,,,,,,,,,,,,,,,,,,,,,,,34.5,3.5,,
29,,rl_choice,,html-keyboard-response,29,136034,0.0-1.0-37.0,0,0,61002,,929.0,,,75.0,5.0,5.0,1.0,hard,1500.0,1000.0,0.0,40.0,60.0,20.0,60.0,A,B,/static/Simple_RL/Stimuli/Fractals_stims/A.jpg,/static/Simple_RL/Stimuli/Fractals_stims/B.jpg,0.0,60.0,40.0,60.0,20.0,B,A,35.429,0.929,0.0,
30,,rl_choice_confirmation,,html-keyboard-response,30,136608,0.0-1.0-38.0-0.0,0,0,61002,,,,,,5.0,,,,,,,,,,,,,,,,,,,,,,36.0,0.571,,
31,,isi,,html-keyboard-response,31,137610,0.0-1.0-40.0,0,0,61002,,,,,,,,,,,,,,,,,,,,,,,,,,,,37.0,1.0,,
32,,feedback,,html-keyboard-response,32,138612,0.0-1.0-41.0-0.0,0,0,61002,,,,,,5.0,,,,,,,,,,,,,,,,,,,,,,38.0,1.0,,
33,,iti,,html-keyboard-response,33,140114,0.0-1.0-42.0,0,0,61002,,,,,,,,,,,,,,,,,,,,,,,,,,,,39.5,1.5,,
34,,rl_choice,,html-keyboard-response,34,140618,0.0-1.0-44.0,0,0,61002,,502.0,,,75.0,6.0,6.0,1.0,hard,1000.0,1000.0,0.0,40.0,60.0,40.0,60.0,A,B,/static/Simple_RL/Stimuli/Fractals_stims/A.jpg,/static/Simple_RL/Stimuli/Fractals_stims/B.jpg,0.0,60.0,40.0,60.0,40.0,B,A,40.002,0.502,0.0,
35,,rl_choice_confirmation,,html-keyboard-response,35,141618,0.0-1.0-45.0-0.0,0,0,61002,,,,,,6.0,,,,,,,,,,,,,,,,,,,,,,41.0,0.998,,
36,,isi,,html-keyboard-response,36,142620,0.0-1.0-47.0,0,0,61002,,,,,,,,,,,,,,,,,,,,,,,,,,,,42.0,1.0,,
37,,feedback,,html-keyboard-response,37,143624,0.0-1.0-48.0-0.0,0,0,61002,,,,,,6.0,,,,,,,,,,,,,,,,,,,,,,43.0,1.0,,
38,,iti,,html-keyboard-response,38,144627,0.0-1.0-49.0,0,0,61002,,,,,,,,,,,,,,,,,,,,,,,,,,,,44.0,1.0,,
39,,rl_choice,,html-keyboard-response,39,145090,0.0-1.0-51.0,0,0,61002,,462.0,,,75.0,7.0,7.0,1.0,hard,3000.0,1500.0,0.0,40.0,60.0,20.0,40.0,A,B,/static/Simple_RL/Stimuli/Fractals_stims/A.jpg,/static/Simple_RL/Stimuli/Fractals_stims/B.jpg,0.0,60.0,40.0,40.0,20.0,B,A,44.462,0.462,0.0,
40,,rl_choice_confirmation,,html-keyboard-response,40,146130,0.0-1.0-52.0-0.0,0,0,61002,,,,,,7.0,,,,,,,,,,,,,,,,,,,,,,45.5,1.038,,
41,,isi,,html-keyboard-response,41,147632,0.0-1.0-54.0,0,0,61002,,,,,,,,,,,,,,,,,,,,,,,,,,,,47.0,1.5,,
42,,feedback,,html-keyboard-response,42,148635,0.0-1.0-55.0-0.0,0,0,61002,,,,,,7.0,,,,,,,,,,,,,,,,,,,,,,48.0,1.0,,
43,,iti,,html-keyboard-response,43,151638,0.0-1.0-56.0,0,0,61002,,,,,,,,,,,,,,,,,,,,,,,,,,,,51.0,3.0,,
44,,rl_choice,,html-keyboard-response,44,152291,0.0-1.0-58.0,0,0,61002,,651.0,,,68.0,8.0,8.0,1.0,hard,1000.0,2000.0,1.0,60.0,40.0,60.0,60.0,B,A,/static/Simple_RL/Stimuli/Fractals_stims/B.jpg,/static/Simple_RL/Stimuli/Fractals_stims/A.jpg,1.0,60.0,40.0,60.0,60.0,B,A,51.651,0.651,0.0,
45,,rl_choice_confirmation,,html-keyboard-response,45,153143,0.0-1.0-59.0-0.0,0,0,61002,,,,,,8.0,,,,,,,,,,,,,,,,,,,,,,52.5,0.849,,
46,,isi,,html-keyboard-response,46,155144,0.0-1.0-61.0,0,0,61002,,,,,,,,,,,,,,,,,,,,,,,,,,,,54.5,2.0,,
47,,feedback,,html-keyboard-response,47,156147,0.0-1.0-62.0-0.0,0,0,61002,,,,,,8.0,,,,,,,,,,,,,,,,,,,,,,55.5,1.0,,
48,,iti,,html-keyboard-response,48,157149,0.0-1.0-63.0,0,0,61002,,,,,,,,,,,,,,,,,,,,,,,,,,,,56.5,1.0,,
49,,rl_choice,,html-keyboard-response,49,157658,0.0-1.0-65.0,0,0,61002,,506.0,,,68.0,9.0,9.0,1.0,hard,2000.0,2000.0,1.0,60.0,40.0,80.0,60.0,B,A,/static/Simple_RL/Stimuli/Fractals_stims/B.jpg,/static/Simple_RL/Stimuli/Fractals_stims/A.jpg,1.0,60.0,40.0,80.0,60.0,B,A,57.006,0.506,0.0,
50,,rl_choice_confirmation,,html-keyboard-response,50,158655,0.0-1.0-66.0-0.0,0,0,61002,,,,,,9.0,,,,,,,,,,,,,,,,,,,,,,58.0,0.994,,
51,,isi,,html-keyboard-response,51,160658,0.0-1.0-68.0,0,0,61002,,,,,,,,,,,,,,,,,,,,,,,,,,,,60.0,2.0,,
52,,feedback,,html-keyboard-response,52,161660,0.0-1.0-69.0-0.0,0,0,61002,,,,,,9.0,,,,,,,,,,,,,,,,,,,,,,61.0,1.0,,
53,,iti,,html-keyboard-response,53,163661,0.0-1.0-70.0,0,0,61002,,,,,,,,,,,,,,,,,,,,,,,,,,,,63.0,2.0,,
54,,rl_choice,,html-keyboard-response,54,164002,0.0-1.0-72.0,0,0,61002,,340.0,,,75.0,10.0,10.0,1.0,hard,2000.0,2000.0,0.0,40.0,60.0,20.0,60.0,A,B,/static/Simple_RL/Stimuli/Fractals_stims/A.jpg,/static/Simple_RL/Stimuli/Fractals_stims/B.jpg,0.0,60.0,40.0,60.0,20.0,B,A,63.34,0.34,0.0,
55,,rl_choice_confirmation,,html-keyboard-response,55,165166,0.0-1.0-73.0-0.0,0,0,61002,,,,,,10.0,,,,,,,,,,,,,,,,,,,,,,64.5,1.16,,
56,,isi,,html-keyboard-response,56,167168,0.0-1.0-75.0,0,0,61002,,,,,,,,,,,,,,,,,,,,,,,,,,,,66.5,2.0,,
57,,feedback,,html-keyboard-response,57,168170,0.0-1.0-76.0-0.0,0,0,61002,,,,,,10.0,,,,,,,,,,,,,,,,,,,,,,67.5,1.0,,
58,,iti,,html-keyboard-response,58,170172,0.0-1.0-77.0,0,0,61002,,,,,,,,,,,,,,,,,,,,,,,,,,,,69.5,2.0,,
59,,rl_choice,,html-keyboard-response,59,171186,0.0-1.0-79.0,0,0,61002,,1013.0,,,75.0,11.0,11.0,1.0,easy,1500.0,2000.0,1.0,80.0,20.0,100.0,20.0,D,C,/static/Simple_RL/Stimuli/Fractals_stims/D.jpg,/static/Simple_RL/Stimuli/Fractals_stims/C.jpg,0.0,20.0,80.0,20.0,100.0,C,D,70.513,1.013,0.0,
60,,rl_choice_confirmation,,html-keyboard-response,60,171676,0.0-1.0-80.0-0.0,0,0,61002,,,,,,11.0,,,,,,,,,,,,,,,,,,,,,,71.0,0.487,,
61,,isi,,html-keyboard-response,61,173679,0.0-1.0-82.0,0,0,61002,,,,,,,,,,,,,,,,,,,,,,,,,,,,73.0,2.0,,
62,,feedback,,html-keyboard-response,62,174682,0.0-1.0-83.0-0.0,0,0,61002,,,,,,11.0,,,,,,,,,,,,,,,,,,,,,,74.0,1.0,,
63,,iti,,html-keyboard-response,63,176183,0.0-1.0-84.0,0,0,61002,,,,,,,,,,,,,,,,,,,,,,,,,,,,75.5,1.5,,
64,,rl_choice,,html-keyboard-response,64,176794,0.0-1.0-86.0,0,0,61002,,609.0,,,68.0,12.0,12.0,1.0,hard,1000.0,1500.0,1.0,60.0,40.0,40.0,20.0,B,A,/static/Simple_RL/Stimuli/Fractals_stims/B.jpg,/static/Simple_RL/Stimuli/Fractals_stims/A.jpg,1.0,60.0,40.0,40.0,20.0,B,A,76.109,0.609,0.0,
65,,rl_choice_confirmation,,html-keyboard-response,65,177689,0.0-1.0-87.0-0.0,0,0,61002,,,,,,12.0,,,,,,,,,,,,,,,,,,,,,,77.0,0.891,,
66,,isi,,html-keyboard-response,66,179190,0.0-1.0-89.0,0,0,61002,,,,,,,,,,,,,,,,,,,,,,,,,,,,78.5,1.5,,
67,,feedback,,html-keyboard-response,67,180195,0.0-1.0-90.0-0.0,0,0,61002,,,,,,12.0,,,,,,,,,,,,,,,,,,,,,,79.5,1.0,,
68,,iti,,html-keyboard-response,68,181197,0.0-1.0-91.0,0,0,61002,,,,,,,,,,,,,,,,,,,,,,,,,,,,80.5,1.0,,
69,,rl_choice,,html-keyboard-response,69,182051,0.0-1.0-93.0,0,0,61002,,852.0,,,68.0,13.0,13.0,1.0,easy,1500.0,1500.0,1.0,80.0,20.0,100.0,40.0,D,C,/static/Simple_RL/Stimuli/Fractals_stims/D.jpg,/static/Simple_RL/Stimuli/Fractals_stims/C.jpg,1.0,80.0,20.0,100.0,40.0,D,C,81.352,0.852,0.0,
70,,rl_choice_confirmation,,html-keyboard-response,70,182701,0.0-1.0-94.0-0.0,0,0,61002,,,,,,13.0,,,,,,,,,,,,,,,,,,,,,,82.0,0.648,,
71,,isi,,html-keyboard-response,71,184212,0.0-1.0-96.0,0,0,61002,,,,,,,,,,,,,,,,,,,,,,,,,,,,83.5,1.5,,
72,,feedback,,html-keyboard-response,72,185214,0.0-1.0-97.0-0.0,0,0,61002,,,,,,13.0,,,,,,,,,,,,,,,,,,,,,,84.5,1.0,,
73,,iti,,html-keyboard-response,73,186715,0.0-1.0-98.0,0,0,61002,,,,,,,,,,,,,,,,,,,,,,,,,,,,86.0,1.5,,
74,,rl_choice,,html-keyboard-response,74,187250,0.0-1.0-100.0,0,0,61002,,534.0,,,75.0,14.0,14.0,1.0,easy,1000.0,1000.0,0.0,20.0,80.0,0.0,60.0,C,D,/static/Simple_RL/Stimuli/Fractals_stims/C.jpg,/static/Simple_RL/Stimuli/Fractals_stims/D.jpg,0.0,80.0,20.0,60.0,0.0,D,C,86.534,0.534,0.0,
75,,rl_choice_confirmation,,html-keyboard-response,75,188219,0.0-1.0-101.0-0.0,0,0,61002,,,,,,14.0,,,,,,,,,,,,,,,,,,,,,,87.5,0.966,,
76,,isi,,html-keyboard-response,76,189220,0.0-1.0-103.0,0,0,61002,,,,,,,,,,,,,,,,,,,,,,,,,,,,88.5,1.0,,
77,,feedback,,html-keyboard-response,77,190226,0.0-1.0-104.0-0.0,0,0,61002,,,,,,14.0,,,,,,,,,,,,,,,,,,,,,,89.5,1.0,,
78,,iti,,html-keyboard-response,78,191228,0.0-1.0-105.0,0,0,61002,,,,,,,,,,,,,,,,,,,,,,,,,,,,90.5,1.0,,
79,,rl_choice,,html-keyboard-response,79,191658,0.0-1.0-107.0,0,0,61002,,428.0,,,75.0,15.0,15.0,1.0,easy,1000.0,2000.0,0.0,20.0,80.0,20.0,100.0,C,D,/static/Simple_RL/Stimuli/Fractals_stims/C.jpg,/static/Simple_RL/Stimuli/Fractals_stims/D.jpg,0.0,80.0,20.0,100.0,20.0,D,C,90.928,0.428,0.0,
80,,rl_choice_confirmation,,html-keyboard-response,80,192732,0.0-1.0-108.0-0.0,0,0,61002,,,,,,15.0,,,,,,,,,,,,,,,,,,,,,,92.0,1.072,,
81,,isi,,html-keyboard-response,81,194734,0.0-1.0-110.0,0,0,61002,,,,,,,,,,,,,,,,,,,,,,,,,,,,94.0,2.0,,
82,,feedback,,html-keyboard-response,82,195737,0.0-1.0-111.0-0.0,0,0,61002,,,,,,15.0,,,,,,,,,,,,,,,,,,,,,,95.0,1.0,,
83,,iti,,html-keyboard-response,83,196739,0.0-1.0-112.0,0,0,61002,,,,,,,,,,,,,,,,,,,,,,,,,,,,96.0,1.0,,
84,,rl_choice,,html-keyboard-response,84,197242,0.0-1.0-114.0,0,0,61002,,500.0,,,68.0,16.0,16.0,1.0,hard,1000.0,1000.0,1.0,60.0,40.0,60.0,20.0,B,A,/static/Simple_RL/Stimuli/Fractals_stims/B.jpg,/static/Simple_RL/Stimuli/Fractals_stims/A.jpg,1.0,60.0,40.0,60.0,20.0,B,A,96.5,0.5,0.0,
85,,rl_choice_confirmation,,html-keyboard-response,85,198245,0.0-1.0-115.0-0.0,0,0,61002,,,,,,16.0,,,,,,,,,,,,,,,,,,,,,,97.5,1.0,,
86,,isi,,html-keyboard-response,86,199247,0.0-1.0-117.0,0,0,61002,,,,,,,,,,,,,,,,,,,,,,,,,,,,98.5,1.0,,
87,,feedback,,html-keyboard-response,87,200249,0.0-1.0-118.0-0.0,0,0,61002,,,,,,16.0,,,,,,,,,,,,,,,,,,,,,,99.5,1.0,,
88,,iti,,html-keyboard-response,88,201251,0.0-1.0-119.0,0,0,61002,,,,,,,,,,,,,,,,,,,,,,,,,,,,100.5,1.0,,
89,,rl_choice,,html-keyboard-response,89,202026,0.0-1.0-121.0,0,0,61002,,774.0,,,75.0,17.0,17.0,1.0,easy,1000.0,2000.0,0.0,20.0,80.0,40.0,100.0,C,D,/static/Simple_RL/Stimuli/Fractals_stims/C.jpg,/static/Simple_RL/Stimuli/Fractals_stims/D.jpg,0.0,80.0,20.0,100.0,40.0,D,C,101.274,0.774,0.0,
90,,rl_choice_confirmation,,html-keyboard-response,90,202756,0.0-1.0-122.0-0.0,0,0,61002,,,,,,17.0,,,,,,,,,,,,,,,,,,,,,,102.0,0.726,,
91,,isi,,html-keyboard-response,91,204758,0.0-1.0-124.0,0,0,61002,,,,,,,,,,,,,,,,,,,,,,,,,,,,104.0,2.0,,
92,,feedback,,html-keyboard-response,92,205760,0.0-1.0-125.0-0.0,0,0,61002,,,,,,17.0,,,,,,,,,,,,,,,,,,,,,,105.0,1.0,,
93,,iti,,html-keyboard-response,93,206763,0.0-1.0-126.0,0,0,61002,,,,,,,,,,,,,,,,,,,,,,,,,,,,106.0,1.0,,
94,,rl_choice,,html-keyboard-response,94,207402,0.0-1.0-128.0,0,0,61002,,637.0,,,75.0,18.0,18.0,1.0,easy,2000.0,1000.0,0.0,20.0,80.0,0.0,100.0,C,D,/static/Simple_RL/Stimuli/Fractals_stims/C.jpg,/static/Simple_RL/Stimuli/Fractals_stims/D.jpg,0.0,80.0,20.0,100.0,0.0,D,C,106.637,0.637,0.0,
95,,rl_choice_confirmation,,html-keyboard-response,95,208267,0.0-1.0-129.0-0.0,0,0,61002,,,,,,18.0,,,,,,,,,,,,,,,,,,,,,,107.5,0.863,,
96,,isi,,html-keyboard-response,96,209270,0.0-1.0-131.0,0,0,61002,,,,,,,,,,,,,,,,,,,,,,,,,,,,108.5,1.0,,
97,,feedback,,html-keyboard-response,97,210272,0.0-1.0-132.0-0.0,0,0,61002,,,,,,18.0,,,,,,,,,,,,,,,,,,,,,,109.5,1.0,,
98,,iti,,html-keyboard-response,98,212275,0.0-1.0-133.0,0,0,61002,,,,,,,,,,,,,,,,,,,,,,,,,,,,111.5,2.0,,
99,,rl_choice,,html-keyboard-response,99,212858,0.0-1.0-135.0,0,0,61002,,582.0,,,75.0,19.0,19.0,1.0,hard,1500.0,1500.0,0.0,40.0,60.0,60.0,60.0,A,B,/static/Simple_RL/Stimuli/Fractals_stims/A.jpg,/static/Simple_RL/Stimuli/Fractals_stims/B.jpg,0.0,60.0,40.0,60.0,60.0,B,A,112.082,0.582,0.0,
100,,rl_choice_confirmation,,html-keyboard-response,100,213779,0.0-1.0-136.0-0.0,0,0,61002,,,,,,19.0,,,,,,,,,,,,,,,,,,,,,,113.0,0.918,,
101,,isi,,html-keyboard-response,101,215281,0.0-1.0-138.0,0,0,61002,,,,,,,,,,,,,,,,,,,,,,,,,,,,114.5,1.5,,
102,,feedback,,html-keyboard-response,102,216284,0.0-1.0-139.0-0.0,0,0,61002,,,,,,19.0,,,,,,,,,,,,,,,,,,,,,,115.5,1.0,,
103,,iti,,html-keyboard-response,103,217786,0.0-1.0-140.0,0,0,61002,,,,,,,,,,,,,,,,,,,,,,,,,,,,117.0,1.5,,
104,,rl_choice,,html-keyboard-response,104,218538,0.0-1.0-142.0,0,0,61002,,750.0,,,68.0,20.0,20.0,1.0,easy,1000.0,1000.0,1.0,80.0,20.0,60.0,40.0,D,C,/static/Simple_RL/Stimuli/Fractals_stims/D.jpg,/static/Simple_RL/Stimuli/Fractals_stims/C.jpg,1.0,80.0,20.0,60.0,40.0,D,C,117.75,0.75,0.0,
105,,rl_choice_confirmation,,html-keyboard-response,105,219291,0.0-1.0-143.0-0.0,0,0,61002,,,,,,20.0,,,,,,,,,,,,,,,,,,,,,,118.5,0.75,,
106,,isi,,html-keyboard-response,106,220294,0.0-1.0-145.0,0,0,61002,,,,,,,,,,,,,,,,,,,,,,,,,,,,119.5,1.0,,
107,,feedback,,html-keyboard-response,107,221299,0.0-1.0-146.0-0.0,0,0,61002,,,,,,20.0,,,,,,,,,,,,,,,,,,,,,,120.5,1.0,,
108,,iti,,html-keyboard-response,108,222301,0.0-1.0-147.0,0,0,61002,,,,,,,,,,,,,,,,,,,,,,,,,,,,121.5,1.0,,
109,,rl_choice,,html-keyboard-response,109,223059,0.0-1.0-149.0,0,0,61002,,755.0,,,68.0,21.0,21.0,1.0,easy,3500.0,1000.0,1.0,80.0,20.0,60.0,20.0,D,C,/static/Simple_RL/Stimuli/Fractals_stims/D.jpg,/static/Simple_RL/Stimuli/Fractals_stims/C.jpg,1.0,80.0,20.0,60.0,20.0,D,C,122.255,0.755,0.0,
110,,rl_choice_confirmation,,html-keyboard-response,110,223806,0.0-1.0-150.0-0.0,0,0,61002,,,,,,21.0,,,,,,,,,,,,,,,,,,,,,,123.0,0.745,,
111,,isi,,html-keyboard-response,111,224809,0.0-1.0-152.0,0,0,61002,,,,,,,,,,,,,,,,,,,,,,,,,,,,124.0,1.0,,
112,,feedback,,html-keyboard-response,112,225812,0.0-1.0-153.0-0.0,0,0,61002,,,,,,21.0,,,,,,,,,,,,,,,,,,,,,,125.0,1.0,,
113,,iti,,html-keyboard-response,113,229314,0.0-1.0-154.0,0,0,61002,,,,,,,,,,,,,,,,,,,,,,,,,,,,128.5,3.5,,
114,,rl_choice,,html-keyboard-response,114,229778,0.0-1.0-156.0,0,0,61002,,463.0,,,68.0,22.0,22.0,1.0,easy,1500.0,1500.0,1.0,80.0,20.0,80.0,20.0,D,C,/static/Simple_RL/Stimuli/Fractals_stims/D.jpg,/static/Simple_RL/Stimuli/Fractals_stims/C.jpg,1.0,80.0,20.0,80.0,20.0,D,C,128.963,0.463,0.0,
115,,rl_choice_confirmation,,html-keyboard-response,115,230818,0.0-1.0-157.0-0.0,0,0,61002,,,,,,22.0,,,,,,,,,,,,,,,,,,,,,,130.0,1.037,,
116,,isi,,html-keyboard-response,116,232320,0.0-1.0-159.0,0,0,61002,,,,,,,,,,,,,,,,,,,,,,,,,,,,131.5,1.5,,
117,,feedback,,html-keyboard-response,117,233322,0.0-1.0-160.0-0.0,0,0,61002,,,,,,22.0,,,,,,,,,,,,,,,,,,,,,,132.5,1.0,,
118,,iti,,html-keyboard-response,118,234825,0.0-1.0-161.0,0,0,61002,,,,,,,,,,,,,,,,,,,,,,,,,,,,134.0,1.5,,
119,,rl_choice,,html-keyboard-response,119,235170,0.0-1.0-163.0,0,0,61002,,344.0,,,75.0,23.0,23.0,1.0,easy,2000.0,1500.0,0.0,20.0,80.0,20.0,60.0,C,D,/static/Simple_RL/Stimuli/Fractals_stims/C.jpg,/static/Simple_RL/Stimuli/Fractals_stims/D.jpg,0.0,80.0,20.0,60.0,20.0,D,C,134.344,0.344,0.0,
120,,rl_choice_confirmation,,html-keyboard-response,120,236329,0.0-1.0-164.0-0.0,0,0,61002,,,,,,23.0,,,,,,,,,,,,,,,,,,,,,,135.5,1.156,,
121,,isi,,html-keyboard-response,121,237831,0.0-1.0-166.0,0,0,61002,,,,,,,,,,,,,,,,,,,,,,,,,,,,137.0,1.5,,
122,,feedback,,html-keyboard-response,122,238834,0.0-1.0-167.0-0.0,0,0,61002,,,,,,23.0,,,,,,,,,,,,,,,,,,,,,,138.0,1.0,,
123,,iti,,html-keyboard-response,123,240837,0.0-1.0-168.0,0,0,61002,,,,,,,,,,,,,,,,,,,,,,,,,,,,140.0,2.0,,
124,,rl_choice,,html-keyboard-response,124,241666,0.0-1.0-170.0,0,0,61002,,827.0,,,75.0,24.0,24.0,1.0,hard,1000.0,1000.0,0.0,40.0,60.0,60.0,80.0,A,B,/static/Simple_RL/Stimuli/Fractals_stims/A.jpg,/static/Simple_RL/Stimuli/Fractals_stims/B.jpg,0.0,60.0,40.0,80.0,60.0,B,A,140.827,0.827,0.0,
125,,rl_choice_confirmation,,html-keyboard-response,125,242342,0.0-1.0-171.0-0.0,0,0,61002,,,,,,24.0,,,,,,,,,,,,,,,,,,,,,,141.5,0.673,,
126,,isi,,html-keyboard-response,126,243344,0.0-1.0-173.0,0,0,61002,,,,,,,,,,,,,,,,,,,,,,,,,,,,142.5,1.0,,
127,,feedback,,html-keyboard-response,127,244346,0.0-1.0-174.0-0.0,0,0,61002,,,,,,24.0,,,,,,,,,,,,,,,,,,,,,,143.5,1.0,,
128,,iti,,html-keyboard-response,128,245348,0.0-1.0-175.0,0,0,61002,,,,,,,,,,,,,,,,,,,,,,,,,,,,144.5,1.0,,
129,,rl_choice,,html-keyboard-response,129,246146,0.0-1.0-177.0,0,0,61002,,796.0,,,75.0,25.0,25.0,1.0,easy,1000.0,1500.0,0.0,20.0,80.0,20.0,60.0,C,D,/static/Simple_RL/Stimuli/Fractals_stims/C.jpg,/static/Simple_RL/Stimuli/Fractals_stims/D.jpg,0.0,80.0,20.0,60.0,20.0,D,C,145.296,0.796,0.0,
130,,rl_choice_confirmation,,html-keyboard-response,130,246853,0.0-1.0-178.0-0.0,0,0,61002,,,,,,25.0,,,,,,,,,,,,,,,,,,,,,,146.0,0.704,,
131,,isi,,html-keyboard-response,131,248355,0.0-1.0-180.0,0,0,61002,,,,,,,,,,,,,,,,,,,,,,,,,,,,147.5,1.5,,
132,,feedback,,html-keyboard-response,132,249358,0.0-1.0-181.0-0.0,0,0,61002,,,,,,25.0,,,,,,,,,,,,,,,,,,,,,,148.5,1.0,,
133,,iti,,html-keyboard-response,133,250360,0.0-1.0-182.0,0,0,61002,,,,,,,,,,,,,,,,,,,,,,,,,,,,149.5,1.0,,
134,,rl_choice,,html-keyboard-response,134,250842,0.0-1.0-184.0,0,0,61002,,479.0,,,75.0,26.0,26.0,1.0,easy,2000.0,1000.0,0.0,20.0,80.0,40.0,100.0,C,D,/static/Simple_RL/Stimuli/Fractals_stims/C.jpg,/static/Simple_RL/Stimuli/Fractals_stims/D.jpg,0.0,80.0,20.0,100.0,40.0,D,C,149.979,0.479,0.0,
135,,rl_choice_confirmation,,html-keyboard-response,135,251875,0.0-1.0-185.0-0.0,0,0,61002,,,,,,26.0,,,,,,,,,,,,,,,,,,,,,,151.0,1.021,,
136,,isi,,html-keyboard-response,136,252877,0.0-1.0-187.0,0,0,61002,,,,,,,,,,,,,,,,,,,,,,,,,,,,152.0,1.0,,
137,,feedback,,html-keyboard-response,137,253880,0.0-1.0-188.0-0.0,0,0,61002,,,,,,26.0,,,,,,,,,,,,,,,,,,,,,,153.0,1.0,,
138,,iti,,html-keyboard-response,138,255883,0.0-1.0-189.0,0,0,61002,,,,,,,,,,,,,,,,,,,,,,,,,,,,155.0,2.0,,
139,,rl_choice,,html-keyboard-response,139,256690,0.0-1.0-191.0,0,0,61002,,806.0,,,68.0,27.0,27.0,1.0,hard,1000.0,1000.0,1.0,60.0,40.0,60.0,20.0,B,A,/static/Simple_RL/Stimuli/Fractals_stims/B.jpg,/static/Simple_RL/Stimuli/Fractals_stims/A.jpg,1.0,60.0,40.0,60.0,20.0,B,A,155.806,0.806,0.0,
140,,rl_choice_confirmation,,html-keyboard-response,140,257387,0.0-1.0-192.0-0.0,0,0,61002,,,,,,27.0,,,,,,,,,,,,,,,,,,,,,,156.5,0.694,,
141,,isi,,html-keyboard-response,141,258389,0.0-1.0-194.0,0,0,61002,,,,,,,,,,,,,,,,,,,,,,,,,,,,157.5,1.0,,
142,,feedback,,html-keyboard-response,142,259392,0.0-1.0-195.0-0.0,0,0,61002,,,,,,27.0,,,,,,,,,,,,,,,,,,,,,,158.5,1.0,,
143,,iti,,html-keyboard-response,143,260393,0.0-1.0-196.0,0,0,61002,,,,,,,,,,,,,,,,,,,,,,,,,,,,159.5,1.0,,
144,,rl_choice,,html-keyboard-response,144,261410,0.0-1.0-198.0,0,0,61002,,1012.0,,,68.0,28.0,28.0,1.0,easy,1500.0,1500.0,1.0,80.0,20.0,80.0,0.0,D,C,/static/Simple_RL/Stimuli/Fractals_stims/D.jpg,/static/Simple_RL/Stimuli/Fractals_stims/C.jpg,1.0,80.0,20.0,80.0,0.0,D,C,160.512,1.012,0.0,
145,,rl_choice_confirmation,,html-keyboard-response,145,261900,0.0-1.0-199.0-0.0,0,0,61002,,,,,,28.0,,,,,,,,,,,,,,,,,,,,,,161.0,0.488,,
146,,isi,,html-keyboard-response,146,263402,0.0-1.0-201.0,0,0,61002,,,,,,,,,,,,,,,,,,,,,,,,,,,,162.5,1.5,,
147,,feedback,,html-keyboard-response,147,264404,0.0-1.0-202.0-0.0,0,0,61002,,,,,,28.0,,,,,,,,,,,,,,,,,,,,,,163.5,1.0,,
148,,iti,,html-keyboard-response,148,265906,0.0-1.0-203.0,0,0,61002,,,,,,,,,,,,,,,,,,,,,,,,,,,,165.0,1.5,,
149,,rl_choice,,html-keyboard-response,149,266458,0.0-1.0-205.0,0,0,61002,,550.0,,,75.0,29.0,29.0,1.0,easy,2000.0,2000.0,0.0,20.0,80.0,20.0,80.0,C,D,/static/Simple_RL/Stimuli/Fractals_stims/C.jpg,/static/Simple_RL/Stimuli/Fractals_stims/D.jpg,0.0,80.0,20.0,80.0,20.0,D,C,165.55,0.55,0.0,
150,,rl_choice_confirmation,,html-keyboard-response,150,267410,0.0-1.0-206.0-0.0,0,0,61002,,,,,,29.0,,,,,,,,,,,,,,,,,,,,,,166.5,0.95,,
151,,isi,,html-keyboard-response,151,269412,0.0-1.0-208.0,0,0,61002,,,,,,,,,,,,,,,,,,,,,,,,,,,,168.5,2.0,,
152,,feedback,,html-keyboard-response,152,270415,0.0-1.0-209.0-0.0,0,0,61002,,,,,,29.0,,,,,,,,,,,,,,,,,,,,,,169.5,1.0,,
153,,iti,,html-keyboard-response,153,272416,0.0-1.0-210.0,0,0,61002,,,,,,,,,,,,,,,,,,,,,,,,,,,,171.5,2.0,,
154,,rl_choice,,html-keyboard-response,154,273531,0.0-1.0-212.0,0,0,61002,,1112.0,,,68.0,30.0,30.0,1.0,hard,1500.0,1500.0,1.0,60.0,40.0,60.0,60.0,B,A,/static/Simple_RL/Stimuli/Fractals_stims/B.jpg,/static/Simple_RL/Stimuli/Fractals_stims/A.jpg,1.0,60.0,40.0,60.0,60.0,B,A,172.612,1.112,0.0,
155,,rl_choice_confirmation,,html-keyboard-response,155,273922,0.0-1.0-213.0-0.0,0,0,61002,,,,,,30.0,,,,,,,,,,,,,,,,,,,,,,173.0,0.388,,
156,,isi,,html-keyboard-response,156,275424,0.0-1.0-215.0,0,0,61002,,,,,,,,,,,,,,,,,,,,,,,,,,,,174.5,1.5,,
157,,feedback,,html-keyboard-response,157,276428,0.0-1.0-216.0-0.0,0,0,61002,,,,,,30.0,,,,,,,,,,,,,,,,,,,,,,175.5,1.0,,
158,,iti,,html-keyboard-response,158,277931,0.0-1.0-217.0,0,0,61002,,,,,,,,,,,,,,,,,,,,,,,,,,,,177.0,1.5,,
159,,rl_choice,,html-keyboard-response,159,278642,0.0-1.0-219.0,0,0,61002,,709.0,,,75.0,31.0,31.0,1.0,easy,3000.0,1000.0,0.0,20.0,80.0,40.0,80.0,C,D,/static/Simple_RL/Stimuli/Fractals_stims/C.jpg,/static/Simple_RL/Stimuli/Fractals_stims/D.jpg,0.0,80.0,20.0,80.0,40.0,D,C,177.709,0.709,0.0,
160,,rl_choice_confirmation,,html-keyboard-response,160,279447,0.0-1.0-220.0-0.0,0,0,61002,,,,,,31.0,,,,,,,,,,,,,,,,,,,,,,178.5,0.791,,
161,,isi,,html-keyboard-response,161,280449,0.0-1.0-222.0,0,0,61002,,,,,,,,,,,,,,,,,,,,,,,,,,,,179.5,1.0,,
162,,feedback,,html-keyboard-response,162,281451,0.0-1.0-223.0-0.0,0,0,61002,,,,,,31.0,,,,,,,,,,,,,,,,,,,,,,180.5,1.0,,
163,,iti,,html-keyboard-response,163,284454,0.0-1.0-224.0,0,0,61002,,,,,,,,,,,,,,,,,,,,,,,,,,,,183.5,3.0,,
164,,rl_choice,,html-keyboard-response,164,284850,0.0-1.0-226.0,0,0,61002,,395.0,,,68.0,32.0,32.0,1.0,easy,1000.0,1000.0,1.0,80.0,20.0,80.0,20.0,D,C,/static/Simple_RL/Stimuli/Fractals_stims/D.jpg,/static/Simple_RL/Stimuli/Fractals_stims/C.jpg,1.0,80.0,20.0,80.0,20.0,D,C,183.895,0.395,0.0,
165,,rl_choice_confirmation,,html-keyboard-response,165,285958,0.0-1.0-227.0-0.0,0,0,61002,,,,,,32.0,,,,,,,,,,,,,,,,,,,,,,185.0,1.105,,
166,,isi,,html-keyboard-response,166,286959,0.0-1.0-229.0,0,0,61002,,,,,,,,,,,,,,,,,,,,,,,,,,,,186.0,1.0,,
167,,feedback,,html-keyboard-response,167,287961,0.0-1.0-230.0-0.0,0,0,61002,,,,,,32.0,,,,,,,,,,,,,,,,,,,,,,187.0,1.0,,
168,,iti,,html-keyboard-response,168,288963,0.0-1.0-231.0,0,0,61002,,,,,,,,,,,,,,,,,,,,,,,,,,,,188.0,1.0,,
169,,rl_choice,,html-keyboard-response,169,289842,0.0-1.0-233.0,0,0,61002,,878.0,,,75.0,33.0,33.0,1.0,easy,1000.0,1000.0,0.0,20.0,80.0,40.0,60.0,C,D,/static/Simple_RL/Stimuli/Fractals_stims/C.jpg,/static/Simple_RL/Stimuli/Fractals_stims/D.jpg,0.0,80.0,20.0,60.0,40.0,D,C,188.878,0.878,0.0,
170,,rl_choice_confirmation,,html-keyboard-response,170,290475,0.0-1.0-234.0-0.0,0,0,61002,,,,,,33.0,,,,,,,,,,,,,,,,,,,,,,189.5,0.622,,
171,,isi,,html-keyboard-response,171,291477,0.0-1.0-236.0,0,0,61002,,,,,,,,,,,,,,,,,,,,,,,,,,,,190.5,1.0,,
172,,feedback,,html-keyboard-response,172,292480,0.0-1.0-237.0-0.0,0,0,61002,,,,,,33.0,,,,,,,,,,,,,,,,,,,,,,191.5,1.0,,
173,,iti,,html-keyboard-response,173,293483,0.0-1.0-238.0,0,0,61002,,,,,,,,,,,,,,,,,,,,,,,,,,,,192.5,1.0,,
174,,rl_choice,,html-keyboard-response,174,294138,0.0-1.0-240.0,0,0,61002,,653.0,,,75.0,34.0,34.0,1.0,hard,1500.0,1000.0,0.0,40.0,60.0,40.0,40.0,A,B,/static/Simple_RL/Stimuli/Fractals_stims/A.jpg,/static/Simple_RL/Stimuli/Fractals_stims/B.jpg,0.0,60.0,40.0,40.0,40.0,B,A,193.153,0.653,0.0,
175,,rl_choice_confirmation,,html-keyboard-response,175,294989,0.0-1.0-241.0-0.0,0,0,61002,,,,,,34.0,,,,,,,,,,,,,,,,,,,,,,194.0,0.847,,
176,,isi,,html-keyboard-response,176,295991,0.0-1.0-243.0,0,0,61002,,,,,,,,,,,,,,,,,,,,,,,,,,,,195.0,1.0,,
177,,feedback,,html-keyboard-response,177,296994,0.0-1.0-244.0-0.0,0,0,61002,,,,,,34.0,,,,,,,,,,,,,,,,,,,,,,196.0,1.0,,
178,,iti,,html-keyboard-response,178,298496,0.0-1.0-245.0,0,0,61002,,,,,,,,,,,,,,,,,,,,,,,,,,,,197.5,1.5,,
179,,rl_choice,,html-keyboard-response,179,299563,0.0-1.0-247.0,0,0,61002,,1065.0,,,75.0,35.0,35.0,1.0,hard,1000.0,3000.0,0.0,40.0,60.0,40.0,40.0,A,B,/static/Simple_RL/Stimuli/Fractals_stims/A.jpg,/static/Simple_RL/Stimuli/Fractals_stims/B.jpg,0.0,60.0,40.0,40.0,40.0,B,A,198.565,1.065,0.0,
180,,rl_choice_confirmation,,html-keyboard-response,180,300005,0.0-1.0-248.0-0.0,0,0,61002,,,,,,35.0,,,,,,,,,,,,,,,,,,,,,,199.0,0.435,,
181,,isi,,html-keyboard-response,181,303007,0.0-1.0-250.0,0,0,61002,,,,,,,,,,,,,,,,,,,,,,,,,,,,202.0,3.0,,
182,,feedback,,html-keyboard-response,182,304009,0.0-1.0-251.0-0.0,0,0,61002,,,,,,35.0,,,,,,,,,,,,,,,,,,,,,,203.0,1.0,,
183,,iti,,html-keyboard-response,183,305012,0.0-1.0-252.0,0,0,61002,,,,,,,,,,,,,,,,,,,,,,,,,,,,204.0,1.0,,
184,,rl_choice,,html-keyboard-response,184,305946,0.0-1.0-254.0,0,0,61002,,933.0,,,75.0,36.0,36.0,1.0,easy,1000.0,3500.0,0.0,20.0,80.0,0.0,80.0,C,D,/static/Simple_RL/Stimuli/Fractals_stims/C.jpg,/static/Simple_RL/Stimuli/Fractals_stims/D.jpg,0.0,80.0,20.0,80.0,0.0,D,C,204.933,0.933,0.0,
185,,rl_choice_confirmation,,html-keyboard-response,185,306517,0.0-1.0-255.0-0.0,0,0,61002,,,,,,36.0,,,,,,,,,,,,,,,,,,,,,,205.5,0.567,,
186,,isi,,html-keyboard-response,186,310019,0.0-1.0-257.0,0,0,61002,,,,,,,,,,,,,,,,,,,,,,,,,,,,209.0,3.5,,
187,,feedback,,html-keyboard-response,187,311023,0.0-1.0-258.0-0.0,0,0,61002,,,,,,36.0,,,,,,,,,,,,,,,,,,,,,,210.0,1.0,,
188,,iti,,html-keyboard-response,188,312026,0.0-1.0-259.0,0,0,61002,,,,,,,,,,,,,,,,,,,,,,,,,,,,211.0,1.0,,
189,,rl_choice,,html-keyboard-response,189,312835,0.0-1.0-261.0,0,0,61002,,807.0,,,68.0,37.0,37.0,1.0,hard,2000.0,1500.0,1.0,60.0,40.0,40.0,20.0,B,A,/static/Simple_RL/Stimuli/Fractals_stims/B.jpg,/static/Simple_RL/Stimuli/Fractals_stims/A.jpg,1.0,60.0,40.0,40.0,20.0,B,A,211.807,0.807,0.0,
190,,rl_choice_confirmation,,html-keyboard-response,190,313530,0.0-1.0-262.0-0.0,0,0,61002,,,,,,37.0,,,,,,,,,,,,,,,,,,,,,,212.5,0.693,,
191,,isi,,html-keyboard-response,191,315032,0.0-1.0-264.0,0,0,61002,,,,,,,,,,,,,,,,,,,,,,,,,,,,214.0,1.5,,
192,,feedback,,html-keyboard-response,192,316035,0.0-1.0-265.0-0.0,0,0,61002,,,,,,37.0,,,,,,,,,,,,,,,,,,,,,,215.0,1.0,,
193,,iti,,html-keyboard-response,193,318038,0.0-1.0-266.0,0,0,61002,,,,,,,,,,,,,,,,,,,,,,,,,,,,217.0,2.0,,
194,,rl_choice,,html-keyboard-response,194,318778,0.0-1.0-268.0,0,0,61002,,738.0,,,68.0,38.0,38.0,1.0,hard,3000.0,1000.0,1.0,60.0,40.0,40.0,40.0,B,A,/static/Simple_RL/Stimuli/Fractals_stims/B.jpg,/static/Simple_RL/Stimuli/Fractals_stims/A.jpg,1.0,60.0,40.0,40.0,40.0,B,A,217.738,0.738,0.0,
195,,rl_choice_confirmation,,html-keyboard-response,195,319544,0.0-1.0-269.0-0.0,0,0,61002,,,,,,38.0,,,,,,,,,,,,,,,,,,,,,,218.5,0.762,,
196,,isi,,html-keyboard-response,196,320546,0.0-1.0-271.0,0,0,61002,,,,,,,,,,,,,,,,,,,,,,,,,,,,219.5,1.0,,
197,,feedback,,html-keyboard-response,197,321550,0.0-1.0-272.0-0.0,0,0,61002,,,,,,38.0,,,,,,,,,,,,,,,,,,,,,,220.5,1.0,,
198,,iti,,html-keyboard-response,198,324551,0.0-1.0-273.0,0,0,61002,,,,,,,,,,,,,,,,,,,,,,,,,,,,223.5,3.0,,
199,,rl_choice,,html-keyboard-response,199,325283,0.0-1.0-275.0,0,0,61002,,729.0,,,68.0,39.0,39.0,1.0,easy,3000.0,3000.0,1.0,80.0,20.0,100.0,0.0,D,C,/static/Simple_RL/Stimuli/Fractals_stims/D.jpg,/static/Simple_RL/Stimuli/Fractals_stims/C.jpg,1.0,80.0,20.0,100.0,0.0,D,C,224.229,0.729,0.0,
200,,rl_choice_confirmation,,html-keyboard-response,200,326059,0.0-1.0-276.0-0.0,0,0,61002,,,,,,39.0,,,,,,,,,,,,,,,,,,,,,,225.0,0.771,,
201,,isi,,html-keyboard-response,201,329061,0.0-1.0-278.0,0,0,61002,,,,,,,,,,,,,,,,,,,,,,,,,,,,228.0,3.0,,
202,,feedback,,html-keyboard-response,202,330064,0.0-1.0-279.0-0.0,0,0,61002,,,,,,39.0,,,,,,,,,,,,,,,,,,,,,,229.0,1.0,,
203,,iti,,html-keyboard-response,203,333065,0.0-1.0-280.0,0,0,61002,,,,,,,,,,,,,,,,,,,,,,,,,,,,232.0,3.0,,
204,,block_over,,html-keyboard-response,204,343226,0.0-1.0-281.0-0.0,0,0,61002,,10159.0,,,68.0,39.0,,,,,,,,,,,,,,,,,,,,,,,,,
205,,start_run,,html-keyboard-response,205,346298,0.0-1.0-281.0-1.0,0,0,61002,,3070.0,,,84.0,,,,,,,,,,,,,,,,,,,,,,,,,,
206,,rl_choice,,html-keyboard-response,206,347410,0.0-1.0-282.0,0,0,61002,,1108.0,,,68.0,40.0,40.0,2.0,hard,2000.0,1000.0,1.0,60.0,40.0,80.0,40.0,B,A,/static/Simple_RL/Stimuli/Fractals_stims/B.jpg,/static/Simple_RL/Stimuli/Fractals_stims/A.jpg,1.0,60.0,40.0,80.0,40.0,B,A,1.108,1.108,0.0,
207,,rl_choice_confirmation,,html-keyboard-response,207,347805,0.0-1.0-283.0-0.0,0,0,61002,,,,,,40.0,,,,,,,,,,,,,,,,,,,,,,1.5,0.392,,
208,,isi,,html-keyboard-response,208,348808,0.0-1.0-285.0,0,0,61002,,,,,,,,,,,,,,,,,,,,,,,,,,,,2.5,1.0,,
209,,feedback,,html-keyboard-response,209,349811,0.0-1.0-286.0-0.0,0,0,61002,,,,,,40.0,,,,,,,,,,,,,,,,,,,,,,3.5,1.0,,
210,,iti,,html-keyboard-response,210,351812,0.0-1.0-287.0,0,0,61002,,,,,,,,,,,,,,,,,,,,,,,,,,,,5.5,2.0,,
211,,rl_choice,,html-keyboard-response,211,352386,0.0-1.0-289.0,0,0,61002,,571.0,,,75.0,41.0,41.0,2.0,easy,1000.0,2000.0,0.0,20.0,80.0,20.0,80.0,C,D,/static/Simple_RL/Stimuli/Fractals_stims/C.jpg,/static/Simple_RL/Stimuli/Fractals_stims/D.jpg,0.0,80.0,20.0,80.0,20.0,D,C,6.071,0.571,0.0,
212,,rl_choice_confirmation,,html-keyboard-response,212,353318,0.0-1.0-290.0-0.0,0,0,61002,,,,,,41.0,,,,,,,,,,,,,,,,,,,,,,7.0,0.929,,
213,,isi,,html-keyboard-response,213,355322,0.0-1.0-292.0,0,0,61002,,,,,,,,,,,,,,,,,,,,,,,,,,,,9.0,2.0,,
214,,feedback,,html-keyboard-response,214,356334,0.0-1.0-293.0-0.0,0,0,61002,,,,,,41.0,,,,,,,,,,,,,,,,,,,,,,10.0,1.0,,
215,,iti,,html-keyboard-response,215,357340,0.0-1.0-294.0,0,0,61002,,,,,,,,,,,,,,,,,,,,,,,,,,,,11.0,1.0,,
216,,rl_choice,,html-keyboard-response,216,358427,0.0-1.0-296.0,0,0,61002,,1085.0,,,68.0,42.0,42.0,2.0,easy,3500.0,2000.0,1.0,80.0,20.0,100.0,20.0,D,C,/static/Simple_RL/Stimuli/Fractals_stims/D.jpg,/static/Simple_RL/Stimuli/Fractals_stims/C.jpg,1.0,80.0,20.0,100.0,20.0,D,C,12.085,1.085,0.0,
217,,rl_choice_confirmation,,html-keyboard-response,217,358857,0.0-1.0-297.0-0.0,0,0,61002,,,,,,42.0,,,,,,,,,,,,,,,,,,,,,,12.5,0.415,,
218,,isi,,html-keyboard-response,218,360859,0.0-1.0-299.0,0,0,61002,,,,,,,,,,,,,,,,,,,,,,,,,,,,14.5,2.0,,
219,,feedback,,html-keyboard-response,219,361862,0.0-1.0-300.0-0.0,0,0,61002,,,,,,42.0,,,,,,,,,,,,,,,,,,,,,,15.5,1.0,,
220,,iti,,html-keyboard-response,220,365365,0.0-1.0-301.0,0,0,61002,,,,,,,,,,,,,,,,,,,,,,,,,,,,19.0,3.5,,
221,,rl_choice,,html-keyboard-response,221,365954,0.0-1.0-303.0,0,0,61002,,586.0,,,75.0,43.0,43.0,2.0,easy,2000.0,1000.0,0.0,20.0,80.0,20.0,80.0,C,D,/static/Simple_RL/Stimuli/Fractals_stims/C.jpg,/static/Simple_RL/Stimuli/Fractals_stims/D.jpg,0.0,80.0,20.0,80.0,20.0,D,C,19.586,0.586,0.0,
222,,rl_choice_confirmation,,html-keyboard-response,222,366871,0.0-1.0-304.0-0.0,0,0,61002,,,,,,43.0,,,,,,,,,,,,,,,,,,,,,,20.5,0.914,,
223,,isi,,html-keyboard-response,223,367873,0.0-1.0-306.0,0,0,61002,,,,,,,,,,,,,,,,,,,,,,,,,,,,21.5,1.0,,
224,,feedback,,html-keyboard-response,224,368886,0.0-1.0-307.0-0.0,0,0,61002,,,,,,43.0,,,,,,,,,,,,,,,,,,,,,,22.5,1.0,,
225,,iti,,html-keyboard-response,225,370888,0.0-1.0-308.0,0,0,61002,,,,,,,,,,,,,,,,,,,,,,,,,,,,24.5,2.0,,
226,,rl_choice,,html-keyboard-response,226,371499,0.0-1.0-310.0,0,0,61002,,608.0,,,75.0,44.0,44.0,2.0,easy,2000.0,1000.0,0.0,20.0,80.0,40.0,80.0,C,D,/static/Simple_RL/Stimuli/Fractals_stims/C.jpg,/static/Simple_RL/Stimuli/Fractals_stims/D.jpg,0.0,80.0,20.0,80.0,40.0,D,C,25.108,0.608,0.0,
227,,rl_choice_confirmation,,html-keyboard-response,227,372393,0.0-1.0-311.0-0.0,0,0,61002,,,,,,44.0,,,,,,,,,,,,,,,,,,,,,,26.0,0.892,,
228,,isi,,html-keyboard-response,228,373396,0.0-1.0-313.0,0,0,61002,,,,,,,,,,,,,,,,,,,,,,,,,,,,27.0,1.0,,
229,,feedback,,html-keyboard-response,229,374399,0.0-1.0-314.0-0.0,0,0,61002,,,,,,44.0,,,,,,,,,,,,,,,,,,,,,,28.0,1.0,,
230,,iti,,html-keyboard-response,230,376401,0.0-1.0-315.0,0,0,61002,,,,,,,,,,,,,,,,,,,,,,,,,,,,30.0,2.0,,
231,,rl_choice,,html-keyboard-response,231,376994,0.0-1.0-317.0,0,0,61002,,591.0,,,68.0,45.0,45.0,2.0,easy,1000.0,1000.0,1.0,80.0,20.0,100.0,20.0,D,C,/static/Simple_RL/Stimuli/Fractals_stims/D.jpg,/static/Simple_RL/Stimuli/Fractals_stims/C.jpg,1.0,80.0,20.0,100.0,20.0,D,C,30.591,0.591,0.0,
232,,rl_choice_confirmation,,html-keyboard-response,232,377906,0.0-1.0-318.0-0.0,0,0,61002,,,,,,45.0,,,,,,,,,,,,,,,,,,,,,,31.5,0.909,,
233,,isi,,html-keyboard-response,233,378909,0.0-1.0-320.0,0,0,61002,,,,,,,,,,,,,,,,,,,,,,,,,,,,32.5,1.0,,
234,,feedback,,html-keyboard-response,234,379912,0.0-1.0-321.0-0.0,0,0,61002,,,,,,45.0,,,,,,,,,,,,,,,,,,,,,,33.5,1.0,,
235,,iti,,html-keyboard-response,235,380914,0.0-1.0-322.0,0,0,61002,,,,,,,,,,,,,,,,,,,,,,,,,,,,34.5,1.0,,
236,,rl_choice,,html-keyboard-response,236,381474,0.0-1.0-324.0,0,0,61002,,557.0,,,75.0,46.0,46.0,2.0,easy,1000.0,1500.0,0.0,20.0,80.0,40.0,80.0,C,D,/static/Simple_RL/Stimuli/Fractals_stims/C.jpg,/static/Simple_RL/Stimuli/Fractals_stims/D.jpg,0.0,80.0,20.0,80.0,40.0,D,C,35.057,0.557,0.0,
237,,rl_choice_confirmation,,html-keyboard-response,237,382419,0.0-1.0-325.0-0.0,0,0,61002,,,,,,46.0,,,,,,,,,,,,,,,,,,,,,,36.0,0.943,,
238,,isi,,html-keyboard-response,238,383921,0.0-1.0-327.0,0,0,61002,,,,,,,,,,,,,,,,,,,,,,,,,,,,37.5,1.5,,
239,,feedback,,html-keyboard-response,239,384925,0.0-1.0-328.0-0.0,0,0,61002,,,,,,46.0,,,,,,,,,,,,,,,,,,,,,,38.5,1.0,,
240,,iti,,html-keyboard-response,240,385926,0.0-1.0-329.0,0,0,61002,,,,,,,,,,,,,,,,,,,,,,,,,,,,39.5,1.0,,
241,,rl_choice,,html-keyboard-response,241,386546,0.0-1.0-331.0,0,0,61002,,618.0,,,75.0,47.0,47.0,2.0,easy,1000.0,3000.0,0.0,20.0,80.0,0.0,100.0,C,D,/static/Simple_RL/Stimuli/Fractals_stims/C.jpg,/static/Simple_RL/Stimuli/Fractals_stims/D.jpg,0.0,80.0,20.0,100.0,0.0,D,C,40.118,0.618,0.0,
242,,rl_choice_confirmation,,html-keyboard-response,242,387432,0.0-1.0-332.0-0.0,0,0,61002,,,,,,47.0,,,,,,,,,,,,,,,,,,,,,,41.0,0.882,,
243,,isi,,html-keyboard-response,243,390434,0.0-1.0-334.0,0,0,61002,,,,,,,,,,,,,,,,,,,,,,,,,,,,44.0,3.0,,
244,,feedback,,html-keyboard-response,244,391438,0.0-1.0-335.0-0.0,0,0,61002,,,,,,47.0,,,,,,,,,,,,,,,,,,,,,,45.0,1.0,,
245,,iti,,html-keyboard-response,245,392440,0.0-1.0-336.0,0,0,61002,,,,,,,,,,,,,,,,,,,,,,,,,,,,46.0,1.0,,
246,,rl_choice,,html-keyboard-response,246,393202,0.0-1.0-338.0,0,0,61002,,760.0,,,75.0,48.0,48.0,2.0,hard,1000.0,1000.0,0.0,40.0,60.0,60.0,60.0,A,B,/static/Simple_RL/Stimuli/Fractals_stims/A.jpg,/static/Simple_RL/Stimuli/Fractals_stims/B.jpg,0.0,60.0,40.0,60.0,60.0,B,A,46.76,0.76,0.0,
247,,rl_choice_confirmation,,html-keyboard-response,247,393946,0.0-1.0-339.0-0.0,0,0,61002,,,,,,48.0,,,,,,,,,,,,,,,,,,,,,,47.5,0.74,,
248,,isi,,html-keyboard-response,248,394948,0.0-1.0-341.0,0,0,61002,,,,,,,,,,,,,,,,,,,,,,,,,,,,48.5,1.0,,
249,,feedback,,html-keyboard-response,249,395951,0.0-1.0-342.0-0.0,0,0,61002,,,,,,48.0,,,,,,,,,,,,,,,,,,,,,,49.5,1.0,,
250,,iti,,html-keyboard-response,250,396953,0.0-1.0-343.0,0,0,61002,,,,,,,,,,,,,,,,,,,,,,,,,,,,50.5,1.0,,
251,,rl_choice,,html-keyboard-response,251,397626,0.0-1.0-345.0,0,0,61002,,671.0,,,75.0,49.0,49.0,2.0,easy,1500.0,2000.0,0.0,20.0,80.0,40.0,60.0,C,D,/static/Simple_RL/Stimuli/Fractals_stims/C.jpg,/static/Simple_RL/Stimuli/Fractals_stims/D.jpg,0.0,80.0,20.0,60.0,40.0,D,C,51.171,0.671,0.0,
252,,rl_choice_confirmation,,html-keyboard-response,252,398458,0.0-1.0-346.0-0.0,0,0,61002,,,,,,49.0,,,,,,,,,,,,,,,,,,,,,,52.0,0.829,,
253,,isi,,html-keyboard-response,253,400461,0.0-1.0-348.0,0,0,61002,,,,,,,,,,,,,,,,,,,,,,,,,,,,54.0,2.0,,
254,,feedback,,html-keyboard-response,254,401464,0.0-1.0-349.0-0.0,0,0,61002,,,,,,49.0,,,,,,,,,,,,,,,,,,,,,,55.0,1.0,,
255,,iti,,html-keyboard-response,255,402966,0.0-1.0-350.0,0,0,61002,,,,,,,,,,,,,,,,,,,,,,,,,,,,56.5,1.5,,
256,,rl_choice,,html-keyboard-response,256,403634,0.0-1.0-352.0,0,0,61002,,666.0,,,68.0,50.0,50.0,2.0,easy,1000.0,1000.0,1.0,80.0,20.0,80.0,0.0,D,C,/static/Simple_RL/Stimuli/Fractals_stims/D.jpg,/static/Simple_RL/Stimuli/Fractals_stims/C.jpg,1.0,80.0,20.0,80.0,0.0,D,C,57.166,0.666,0.0,
257,,rl_choice_confirmation,,html-keyboard-response,257,404470,0.0-1.0-353.0-0.0,0,0,61002,,,,,,50.0,,,,,,,,,,,,,,,,,,,,,,58.0,0.834,,
258,,isi,,html-keyboard-response,258,405476,0.0-1.0-355.0,0,0,61002,,,,,,,,,,,,,,,,,,,,,,,,,,,,59.0,1.0,,
259,,feedback,,html-keyboard-response,259,406478,0.0-1.0-356.0-0.0,0,0,61002,,,,,,50.0,,,,,,,,,,,,,,,,,,,,,,60.0,1.0,,
260,,iti,,html-keyboard-response,260,407481,0.0-1.0-357.0,0,0,61002,,,,,,,,,,,,,,,,,,,,,,,,,,,,61.0,1.0,,
261,,rl_choice,,html-keyboard-response,261,408050,0.0-1.0-359.0,0,0,61002,,568.0,,,75.0,51.0,51.0,2.0,easy,3000.0,1500.0,0.0,20.0,80.0,20.0,80.0,C,D,/static/Simple_RL/Stimuli/Fractals_stims/C.jpg,/static/Simple_RL/Stimuli/Fractals_stims/D.jpg,0.0,80.0,20.0,80.0,20.0,D,C,61.568,0.568,0.0,
262,,rl_choice_confirmation,,html-keyboard-response,262,408985,0.0-1.0-360.0-0.0,0,0,61002,,,,,,51.0,,,,,,,,,,,,,,,,,,,,,,62.5,0.932,,
263,,isi,,html-keyboard-response,263,410487,0.0-1.0-362.0,0,0,61002,,,,,,,,,,,,,,,,,,,,,,,,,,,,64.0,1.5,,
264,,feedback,,html-keyboard-response,264,411490,0.0-1.0-363.0-0.0,0,0,61002,,,,,,51.0,,,,,,,,,,,,,,,,,,,,,,65.0,1.0,,
265,,iti,,html-keyboard-response,265,414493,0.0-1.0-364.0,0,0,61002,,,,,,,,,,,,,,,,,,,,,,,,,,,,68.0,3.0,,
266,,rl_choice,,html-keyboard-response,266,415530,0.0-1.0-366.0,0,0,61002,,1035.0,,,75.0,52.0,52.0,2.0,hard,1000.0,1000.0,0.0,40.0,60.0,40.0,40.0,A,B,/static/Simple_RL/Stimuli/Fractals_stims/A.jpg,/static/Simple_RL/Stimuli/Fractals_stims/B.jpg,0.0,60.0,40.0,40.0,40.0,B,A,69.035,1.035,0.0,
267,,rl_choice_confirmation,,html-keyboard-response,267,415997,0.0-1.0-367.0-0.0,0,0,61002,,,,,,52.0,,,,,,,,,,,,,,,,,,,,,,69.5,0.465,,
268,,isi,,html-keyboard-response,268,417000,0.0-1.0-369.0,0,0,61002,,,,,,,,,,,,,,,,,,,,,,,,,,,,70.5,1.0,,
269,,feedback,,html-keyboard-response,269,418003,0.0-1.0-370.0-0.0,0,0,61002,,,,,,52.0,,,,,,,,,,,,,,,,,,,,,,71.5,1.0,,
270,,iti,,html-keyboard-response,270,419006,0.0-1.0-371.0,0,0,61002,,,,,,,,,,,,,,,,,,,,,,,,,,,,72.5,1.0,,
271,,rl_choice,,html-keyboard-response,271,419610,0.0-1.0-373.0,0,0,61002,,603.0,,,75.0,53.0,53.0,2.0,hard,3000.0,1500.0,0.0,40.0,60.0,40.0,40.0,A,B,/static/Simple_RL/Stimuli/Fractals_stims/A.jpg,/static/Simple_RL/Stimuli/Fractals_stims/B.jpg,0.0,60.0,40.0,40.0,40.0,B,A,73.103,0.603,0.0,
272,,rl_choice_confirmation,,html-keyboard-response,272,420510,0.0-1.0-374.0-0.0,0,0,61002,,,,,,53.0,,,,,,,,,,,,,,,,,,,,,,74.0,0.897,,
273,,isi,,html-keyboard-response,273,422013,0.0-1.0-376.0,0,0,61002,,,,,,,,,,,,,,,,,,,,,,,,,,,,75.5,1.5,,
274,,feedback,,html-keyboard-response,274,423015,0.0-1.0-377.0-0.0,0,0,61002,,,,,,53.0,,,,,,,,,,,,,,,,,,,,,,76.5,1.0,,
275,,iti,,html-keyboard-response,275,426016,0.0-1.0-378.0,0,0,61002,,,,,,,,,,,,,,,,,,,,,,,,,,,,79.5,3.0,,
276,,rl_choice,,html-keyboard-response,276,426618,0.0-1.0-380.0,0,0,61002,,600.0,,,75.0,54.0,54.0,2.0,hard,1500.0,1500.0,0.0,40.0,60.0,20.0,80.0,A,B,/static/Simple_RL/Stimuli/Fractals_stims/A.jpg,/static/Simple_RL/Stimuli/Fractals_stims/B.jpg,0.0,60.0,40.0,80.0,20.0,B,A,80.1,0.6,0.0,
277,,rl_choice_confirmation,,html-keyboard-response,277,427521,0.0-1.0-381.0-0.0,0,0,61002,,,,,,54.0,,,,,,,,,,,,,,,,,,,,,,81.0,0.9,,
278,,isi,,html-keyboard-response,278,429024,0.0-1.0-383.0,0,0,61002,,,,,,,,,,,,,,,,,,,,,,,,,,,,82.5,1.5,,
279,,feedback,,html-keyboard-response,279,430027,0.0-1.0-384.0-0.0,0,0,61002,,,,,,54.0,,,,,,,,,,,,,,,,,,,,,,83.5,1.0,,
280,,iti,,html-keyboard-response,280,431528,0.0-1.0-385.0,0,0,61002,,,,,,,,,,,,,,,,,,,,,,,,,,,,85.0,1.5,,
281,,rl_choice,,html-keyboard-response,281,432130,0.0-1.0-387.0,0,0,61002,,599.0,,,68.0,55.0,55.0,2.0,easy,1500.0,1500.0,1.0,80.0,20.0,80.0,0.0,D,C,/static/Simple_RL/Stimuli/Fractals_stims/D.jpg,/static/Simple_RL/Stimuli/Fractals_stims/C.jpg,1.0,80.0,20.0,80.0,0.0,D,C,85.599,0.599,0.0,
282,,rl_choice_confirmation,,html-keyboard-response,282,433033,0.0-1.0-388.0-0.0,0,0,61002,,,,,,55.0,,,,,,,,,,,,,,,,,,,,,,86.5,0.901,,
283,,isi,,html-keyboard-response,283,434536,0.0-1.0-390.0,0,0,61002,,,,,,,,,,,,,,,,,,,,,,,,,,,,88.0,1.5,,
284,,feedback,,html-keyboard-response,284,435540,0.0-1.0-391.0-0.0,0,0,61002,,,,,,55.0,,,,,,,,,,,,,,,,,,,,,,89.0,1.0,,
285,,iti,,html-keyboard-response,285,437041,0.0-1.0-392.0,0,0,61002,,,,,,,,,,,,,,,,,,,,,,,,,,,,90.5,1.5,,
286,,rl_choice,,html-keyboard-response,286,438122,0.0-1.0-394.0,0,0,61002,,1078.0,,,68.0,56.0,56.0,2.0,hard,1500.0,2000.0,1.0,60.0,40.0,60.0,60.0,B,A,/static/Simple_RL/Stimuli/Fractals_stims/B.jpg,/static/Simple_RL/Stimuli/Fractals_stims/A.jpg,1.0,60.0,40.0,60.0,60.0,B,A,91.578,1.078,0.0,
287,,rl_choice_confirmation,,html-keyboard-response,287,438552,0.0-1.0-395.0-0.0,0,0,61002,,,,,,56.0,,,,,,,,,,,,,,,,,,,,,,92.0,0.422,,
288,,isi,,html-keyboard-response,288,440554,0.0-1.0-397.0,0,0,61002,,,,,,,,,,,,,,,,,,,,,,,,,,,,94.0,2.0,,
289,,feedback,,html-keyboard-response,289,441556,0.0-1.0-398.0-0.0,0,0,61002,,,,,,56.0,,,,,,,,,,,,,,,,,,,,,,95.0,1.0,,
290,,iti,,html-keyboard-response,290,443059,0.0-1.0-399.0,0,0,61002,,,,,,,,,,,,,,,,,,,,,,,,,,,,96.5,1.5,,
291,,rl_choice,,html-keyboard-response,291,443690,0.0-1.0-401.0,0,0,61002,,630.0,,,68.0,57.0,57.0,2.0,hard,1500.0,2000.0,1.0,60.0,40.0,60.0,60.0,B,A,/static/Simple_RL/Stimuli/Fractals_stims/B.jpg,/static/Simple_RL/Stimuli/Fractals_stims/A.jpg,1.0,60.0,40.0,60.0,60.0,B,A,97.13,0.63,0.0,
292,,rl_choice_confirmation,,html-keyboard-response,292,444563,0.0-1.0-402.0-0.0,0,0,61002,,,,,,57.0,,,,,,,,,,,,,,,,,,,,,,98.0,0.87,,
293,,isi,,html-keyboard-response,293,446564,0.0-1.0-404.0,0,0,61002,,,,,,,,,,,,,,,,,,,,,,,,,,,,100.0,2.0,,
294,,feedback,,html-keyboard-response,294,447567,0.0-1.0-405.0-0.0,0,0,61002,,,,,,57.0,,,,,,,,,,,,,,,,,,,,,,101.0,1.0,,
295,,iti,,html-keyboard-response,295,449070,0.0-1.0-406.0,0,0,61002,,,,,,,,,,,,,,,,,,,,,,,,,,,,102.5,1.5,,
296,,rl_choice,,html-keyboard-response,296,449898,0.0-1.0-408.0,0,0,61002,,826.0,,,75.0,58.0,58.0,2.0,easy,1000.0,2000.0,0.0,20.0,80.0,0.0,60.0,C,D,/static/Simple_RL/Stimuli/Fractals_stims/C.jpg,/static/Simple_RL/Stimuli/Fractals_stims/D.jpg,0.0,80.0,20.0,60.0,0.0,D,C,103.326,0.826,0.0,
297,,rl_choice_confirmation,,html-keyboard-response,297,450576,0.0-1.0-409.0-0.0,0,0,61002,,,,,,58.0,,,,,,,,,,,,,,,,,,,,,,104.0,0.674,,
298,,isi,,html-keyboard-response,298,452583,0.0-1.0-411.0,0,0,61002,,,,,,,,,,,,,,,,,,,,,,,,,,,,106.0,2.0,,
299,,feedback,,html-keyboard-response,299,453585,0.0-1.0-412.0-0.0,0,0,61002,,,,,,58.0,,,,,,,,,,,,,,,,,,,,,,107.0,1.0,,
300,,iti,,html-keyboard-response,300,454587,0.0-1.0-413.0,0,0,61002,,,,,,,,,,,,,,,,,,,,,,,,,,,,108.0,1.0,,
301,,rl_choice,,html-keyboard-response,301,455179,0.0-1.0-415.0,0,0,61002,,590.0,,,68.0,59.0,59.0,2.0,easy,1000.0,1000.0,1.0,80.0,20.0,80.0,0.0,D,C,/static/Simple_RL/Stimuli/Fractals_stims/D.jpg,/static/Simple_RL/Stimuli/Fractals_stims/C.jpg,1.0,80.0,20.0,80.0,0.0,D,C,108.59,0.59,0.0,
302,,rl_choice_confirmation,,html-keyboard-response,302,456091,0.0-1.0-416.0-0.0,0,0,61002,,,,,,59.0,,,,,,,,,,,,,,,,,,,,,,109.5,0.91,,
303,,isi,,html-keyboard-response,303,457095,0.0-1.0-418.0,0,0,61002,,,,,,,,,,,,,,,,,,,,,,,,,,,,110.5,1.0,,
304,,feedback,,html-keyboard-response,304,458112,0.0-1.0-419.0-0.0,0,0,61002,,,,,,59.0,,,,,,,,,,,,,,,,,,,,,,111.5,1.0,,
305,,iti,,html-keyboard-response,305,459113,0.0-1.0-420.0,0,0,61002,,,,,,,,,,,,,,,,,,,,,,,,,,,,112.5,1.0,,
306,,rl_choice,,html-keyboard-response,306,459722,0.0-1.0-422.0,0,0,61002,,608.0,,,68.0,60.0,60.0,2.0,easy,3000.0,1500.0,1.0,80.0,20.0,80.0,20.0,D,C,/static/Simple_RL/Stimuli/Fractals_stims/D.jpg,/static/Simple_RL/Stimuli/Fractals_stims/C.jpg,1.0,80.0,20.0,80.0,20.0,D,C,113.108,0.608,0.0,
307,,rl_choice_confirmation,,html-keyboard-response,307,460622,0.0-1.0-423.0-0.0,0,0,61002,,,,,,60.0,,,,,,,,,,,,,,,,,,,,,,114.0,0.892,,
308,,isi,,html-keyboard-response,308,462124,0.0-1.0-425.0,0,0,61002,,,,,,,,,,,,,,,,,,,,,,,,,,,,115.5,1.5,,
309,,feedback,,html-keyboard-response,309,463126,0.0-1.0-426.0-0.0,0,0,61002,,,,,,60.0,,,,,,,,,,,,,,,,,,,,,,116.5,1.0,,
310,,iti,,html-keyboard-response,310,466128,0.0-1.0-427.0,0,0,61002,,,,,,,,,,,,,,,,,,,,,,,,,,,,119.5,3.0,,
311,,rl_choice,,html-keyboard-response,311,467034,0.0-1.0-429.0,0,0,61002,,905.0,,,68.0,61.0,61.0,2.0,hard,2000.0,1500.0,1.0,60.0,40.0,60.0,40.0,B,A,/static/Simple_RL/Stimuli/Fractals_stims/B.jpg,/static/Simple_RL/Stimuli/Fractals_stims/A.jpg,1.0,60.0,40.0,60.0,40.0,B,A,120.405,0.905,0.0,
312,,rl_choice_confirmation,,html-keyboard-response,312,467632,0.0-1.0-430.0-0.0,0,0,61002,,,,,,61.0,,,,,,,,,,,,,,,,,,,,,,121.0,0.595,,
313,,isi,,html-keyboard-response,313,469134,0.0-1.0-432.0,0,0,61002,,,,,,,,,,,,,,,,,,,,,,,,,,,,122.5,1.5,,
314,,feedback,,html-keyboard-response,314,470136,0.0-1.0-433.0-0.0,0,0,61002,,,,,,61.0,,,,,,,,,,,,,,,,,,,,,,123.5,1.0,,
315,,iti,,html-keyboard-response,315,472139,0.0-1.0-434.0,0,0,61002,,,,,,,,,,,,,,,,,,,,,,,,,,,,125.5,2.0,,
316,,rl_choice,,html-keyboard-response,316,472762,0.0-1.0-436.0,0,0,61002,,622.0,,,68.0,62.0,62.0,2.0,easy,1500.0,3000.0,1.0,80.0,20.0,60.0,40.0,D,C,/static/Simple_RL/Stimuli/Fractals_stims/D.jpg,/static/Simple_RL/Stimuli/Fractals_stims/C.jpg,1.0,80.0,20.0,60.0,40.0,D,C,126.122,0.622,0.0,
317,,rl_choice_confirmation,,html-keyboard-response,317,473644,0.0-1.0-437.0-0.0,0,0,61002,,,,,,62.0,,,,,,,,,,,,,,,,,,,,,,127.0,0.878,,
318,,isi,,html-keyboard-response,318,476646,0.0-1.0-439.0,0,0,61002,,,,,,,,,,,,,,,,,,,,,,,,,,,,130.0,3.0,,
319,,feedback,,html-keyboard-response,319,477649,0.0-1.0-440.0-0.0,0,0,61002,,,,,,62.0,,,,,,,,,,,,,,,,,,,,,,131.0,1.0,,
320,,iti,,html-keyboard-response,320,479151,0.0-1.0-441.0,0,0,61002,,,,,,,,,,,,,,,,,,,,,,,,,,,,132.5,1.5,,
321,,rl_choice,,html-keyboard-response,321,479930,0.0-1.0-443.0,0,0,61002,,778.0,,,75.0,63.0,63.0,2.0,hard,3000.0,3000.0,0.0,40.0,60.0,60.0,80.0,A,B,/static/Simple_RL/Stimuli/Fractals_stims/A.jpg,/static/Simple_RL/Stimuli/Fractals_stims/B.jpg,0.0,60.0,40.0,80.0,60.0,B,A,133.278,0.778,0.0,
322,,rl_choice_confirmation,,html-keyboard-response,322,480662,0.0-1.0-444.0-0.0,0,0,61002,,,,,,63.0,,,,,,,,,,,,,,,,,,,,,,134.0,0.722,,
323,,isi,,html-keyboard-response,323,483664,0.0-1.0-446.0,0,0,61002,,,,,,,,,,,,,,,,,,,,,,,,,,,,137.0,3.0,,
324,,feedback,,html-keyboard-response,324,484667,0.0-1.0-447.0-0.0,0,0,61002,,,,,,63.0,,,,,,,,,,,,,,,,,,,,,,138.0,1.0,,
325,,iti,,html-keyboard-response,325,487669,0.0-1.0-448.0,0,0,61002,,,,,,,,,,,,,,,,,,,,,,,,,,,,141.0,3.0,,
326,,rl_choice,,html-keyboard-response,326,488330,0.0-1.0-450.0,0,0,61002,,658.0,,,68.0,64.0,64.0,2.0,easy,2000.0,3500.0,1.0,80.0,20.0,60.0,0.0,D,C,/static/Simple_RL/Stimuli/Fractals_stims/D.jpg,/static/Simple_RL/Stimuli/Fractals_stims/C.jpg,1.0,80.0,20.0,60.0,0.0,D,C,141.658,0.658,0.0,
327,,rl_choice_confirmation,,html-keyboard-response,327,489175,0.0-1.0-451.0-0.0,0,0,61002,,,,,,64.0,,,,,,,,,,,,,,,,,,,,,,142.5,0.842,,
328,,isi,,html-keyboard-response,328,492677,0.0-1.0-453.0,0,0,61002,,,,,,,,,,,,,,,,,,,,,,,,,,,,146.0,3.5,,
329,,feedback,,html-keyboard-response,329,493680,0.0-1.0-454.0-0.0,0,0,61002,,,,,,64.0,,,,,,,,,,,,,,,,,,,,,,147.0,1.0,,
330,,iti,,html-keyboard-response,330,495683,0.0-1.0-455.0,0,0,61002,,,,,,,,,,,,,,,,,,,,,,,,,,,,149.0,2.0,,
331,,rl_choice,,html-keyboard-response,331,496506,0.0-1.0-457.0,0,0,61002,,822.0,,,75.0,65.0,65.0,2.0,hard,1000.0,3000.0,0.0,40.0,60.0,40.0,40.0,A,B,/static/Simple_RL/Stimuli/Fractals_stims/A.jpg,/static/Simple_RL/Stimuli/Fractals_stims/B.jpg,0.0,60.0,40.0,40.0,40.0,B,A,149.822,0.822,0.0,
332,,rl_choice_confirmation,,html-keyboard-response,332,497187,0.0-1.0-458.0-0.0,0,0,61002,,,,,,65.0,,,,,,,,,,,,,,,,,,,,,,150.5,0.678,,
333,,isi,,html-keyboard-response,333,500189,0.0-1.0-460.0,0,0,61002,,,,,,,,,,,,,,,,,,,,,,,,,,,,153.5,3.0,,
334,,feedback,,html-keyboard-response,334,501193,0.0-1.0-461.0-0.0,0,0,61002,,,,,,65.0,,,,,,,,,,,,,,,,,,,,,,154.5,1.0,,
335,,iti,,html-keyboard-response,335,502194,0.0-1.0-462.0,0,0,61002,,,,,,,,,,,,,,,,,,,,,,,,,,,,155.5,1.0,,
336,,rl_choice,,html-keyboard-response,336,503114,0.0-1.0-464.0,0,0,61002,,918.0,,,68.0,66.0,66.0,2.0,hard,1000.0,1000.0,1.0,60.0,40.0,80.0,60.0,B,A,/static/Simple_RL/Stimuli/Fractals_stims/B.jpg,/static/Simple_RL/Stimuli/Fractals_stims/A.jpg,1.0,60.0,40.0,80.0,60.0,B,A,156.418,0.918,0.0,
337,,rl_choice_confirmation,,html-keyboard-response,337,503699,0.0-1.0-465.0-0.0,0,0,61002,,,,,,66.0,,,,,,,,,,,,,,,,,,,,,,157.0,0.582,,
338,,isi,,html-keyboard-response,338,504702,0.0-1.0-467.0,0,0,61002,,,,,,,,,,,,,,,,,,,,,,,,,,,,158.0,1.0,,
339,,feedback,,html-keyboard-response,339,505713,0.0-1.0-468.0-0.0,0,0,61002,,,,,,66.0,,,,,,,,,,,,,,,,,,,,,,159.0,1.0,,
340,,iti,,html-keyboard-response,340,506714,0.0-1.0-469.0,0,0,61002,,,,,,,,,,,,,,,,,,,,,,,,,,,,160.0,1.0,,
341,,rl_choice,,html-keyboard-response,341,507442,0.0-1.0-471.0,0,0,61002,,727.0,,,75.0,67.0,67.0,2.0,hard,1000.0,1000.0,0.0,40.0,60.0,40.0,80.0,A,B,/static/Simple_RL/Stimuli/Fractals_stims/A.jpg,/static/Simple_RL/Stimuli/Fractals_stims/B.jpg,0.0,60.0,40.0,80.0,40.0,B,A,160.727,0.727,0.0,
342,,rl_choice_confirmation,,html-keyboard-response,342,508219,0.0-1.0-472.0-0.0,0,0,61002,,,,,,67.0,,,,,,,,,,,,,,,,,,,,,,161.5,0.773,,
343,,isi,,html-keyboard-response,343,509232,0.0-1.0-474.0,0,0,61002,,,,,,,,,,,,,,,,,,,,,,,,,,,,162.5,1.0,,
344,,feedback,,html-keyboard-response,344,510235,0.0-1.0-475.0-0.0,0,0,61002,,,,,,67.0,,,,,,,,,,,,,,,,,,,,,,163.5,1.0,,
345,,iti,,html-keyboard-response,345,511237,0.0-1.0-476.0,0,0,61002,,,,,,,,,,,,,,,,,,,,,,,,,,,,164.5,1.0,,
346,,rl_choice,,html-keyboard-response,346,511858,0.0-1.0-478.0,0,0,61002,,619.0,,,68.0,68.0,68.0,2.0,easy,1500.0,1500.0,1.0,80.0,20.0,100.0,40.0,D,C,/static/Simple_RL/Stimuli/Fractals_stims/D.jpg,/static/Simple_RL/Stimuli/Fractals_stims/C.jpg,1.0,80.0,20.0,100.0,40.0,D,C,165.119,0.619,0.0,
347,,rl_choice_confirmation,,html-keyboard-response,347,512742,0.0-1.0-479.0-0.0,0,0,61002,,,,,,68.0,,,,,,,,,,,,,,,,,,,,,,166.0,0.881,,
348,,isi,,html-keyboard-response,348,514244,0.0-1.0-481.0,0,0,61002,,,,,,,,,,,,,,,,,,,,,,,,,,,,167.5,1.5,,
349,,feedback,,html-keyboard-response,349,515246,0.0-1.0-482.0-0.0,0,0,61002,,,,,,68.0,,,,,,,,,,,,,,,,,,,,,,168.5,1.0,,
350,,iti,,html-keyboard-response,350,516748,0.0-1.0-483.0,0,0,61002,,,,,,,,,,,,,,,,,,,,,,,,,,,,170.0,1.5,,
351,,rl_choice,,html-keyboard-response,351,517531,0.0-1.0-485.0,0,0,61002,,781.0,,,75.0,69.0,69.0,2.0,hard,2000.0,1000.0,0.0,40.0,60.0,60.0,60.0,A,B,/static/Simple_RL/Stimuli/Fractals_stims/A.jpg,/static/Simple_RL/Stimuli/Fractals_stims/B.jpg,0.0,60.0,40.0,60.0,60.0,B,A,170.781,0.781,0.0,
352,,rl_choice_confirmation,,html-keyboard-response,352,518254,0.0-1.0-486.0-0.0,0,0,61002,,,,,,69.0,,,,,,,,,,,,,,,,,,,,,,171.5,0.719,,
353,,isi,,html-keyboard-response,353,519255,0.0-1.0-488.0,0,0,61002,,,,,,,,,,,,,,,,,,,,,,,,,,,,172.5,1.0,,
354,,feedback,,html-keyboard-response,354,520258,0.0-1.0-489.0-0.0,0,0,61002,,,,,,69.0,,,,,,,,,,,,,,,,,,,,,,173.5,1.0,,
355,,iti,,html-keyboard-response,355,522259,0.0-1.0-490.0,0,0,61002,,,,,,,,,,,,,,,,,,,,,,,,,,,,175.5,2.0,,
356,,rl_choice,,html-keyboard-response,356,522986,0.0-1.0-492.0,0,0,61002,,724.0,,,68.0,70.0,70.0,2.0,hard,1000.0,3500.0,1.0,60.0,40.0,80.0,20.0,B,A,/static/Simple_RL/Stimuli/Fractals_stims/B.jpg,/static/Simple_RL/Stimuli/Fractals_stims/A.jpg,1.0,60.0,40.0,80.0,20.0,B,A,176.224,0.724,0.0,
357,,rl_choice_confirmation,,html-keyboard-response,357,523765,0.0-1.0-493.0-0.0,0,0,61002,,,,,,70.0,,,,,,,,,,,,,,,,,,,,,,177.0,0.776,,
358,,isi,,html-keyboard-response,358,527277,0.0-1.0-495.0,0,0,61002,,,,,,,,,,,,,,,,,,,,,,,,,,,,180.5,3.5,,
359,,feedback,,html-keyboard-response,359,528279,0.0-1.0-496.0-0.0,0,0,61002,,,,,,70.0,,,,,,,,,,,,,,,,,,,,,,181.5,1.0,,
360,,iti,,html-keyboard-response,360,529281,0.0-1.0-497.0,0,0,61002,,,,,,,,,,,,,,,,,,,,,,,,,,,,182.5,1.0,,
361,,rl_choice,,html-keyboard-response,361,529955,0.0-1.0-499.0,0,0,61002,,671.0,,,68.0,71.0,71.0,2.0,easy,2000.0,1000.0,1.0,80.0,20.0,100.0,20.0,D,C,/static/Simple_RL/Stimuli/Fractals_stims/D.jpg,/static/Simple_RL/Stimuli/Fractals_stims/C.jpg,1.0,80.0,20.0,100.0,20.0,D,C,183.171,0.671,0.0,
362,,rl_choice_confirmation,,html-keyboard-response,362,530787,0.0-1.0-500.0-0.0,0,0,61002,,,,,,71.0,,,,,,,,,,,,,,,,,,,,,,184.0,0.829,,
363,,isi,,html-keyboard-response,363,531789,0.0-1.0-502.0,0,0,61002,,,,,,,,,,,,,,,,,,,,,,,,,,,,185.0,1.0,,
364,,feedback,,html-keyboard-response,364,532792,0.0-1.0-503.0-0.0,0,0,61002,,,,,,71.0,,,,,,,,,,,,,,,,,,,,,,186.0,1.0,,
365,,iti,,html-keyboard-response,365,534795,0.0-1.0-504.0,0,0,61002,,,,,,,,,,,,,,,,,,,,,,,,,,,,188.0,2.0,,
366,,rl_choice,,html-keyboard-response,366,535498,0.0-1.0-506.0,0,0,61002,,701.0,,,75.0,72.0,72.0,2.0,easy,1500.0,1000.0,0.0,20.0,80.0,20.0,80.0,C,D,/static/Simple_RL/Stimuli/Fractals_stims/C.jpg,/static/Simple_RL/Stimuli/Fractals_stims/D.jpg,0.0,80.0,20.0,80.0,20.0,D,C,188.701,0.701,0.0,
367,,rl_choice_confirmation,,html-keyboard-response,367,536299,0.0-1.0-507.0-0.0,0,0,61002,,,,,,72.0,,,,,,,,,,,,,,,,,,,,,,189.5,0.799,,
368,,isi,,html-keyboard-response,368,537301,0.0-1.0-509.0,0,0,61002,,,,,,,,,,,,,,,,,,,,,,,,,,,,190.5,1.0,,
369,,feedback,,html-keyboard-response,369,538304,0.0-1.0-510.0-0.0,0,0,61002,,,,,,72.0,,,,,,,,,,,,,,,,,,,,,,191.5,1.0,,
370,,iti,,html-keyboard-response,370,539806,0.0-1.0-511.0,0,0,61002,,,,,,,,,,,,,,,,,,,,,,,,,,,,193.0,1.5,,
371,,rl_choice,,html-keyboard-response,371,540907,0.0-1.0-513.0,0,0,61002,,1099.0,,,68.0,73.0,73.0,2.0,hard,1500.0,1500.0,0.0,40.0,60.0,40.0,80.0,A,B,/static/Simple_RL/Stimuli/Fractals_stims/A.jpg,/static/Simple_RL/Stimuli/Fractals_stims/B.jpg,1.0,40.0,60.0,40.0,80.0,A,B,194.099,1.099,0.0,
372,,rl_choice_confirmation,,html-keyboard-response,372,541310,0.0-1.0-514.0-0.0,0,0,61002,,,,,,73.0,,,,,,,,,,,,,,,,,,,,,,194.5,0.401,,
373,,isi,,html-keyboard-response,373,542812,0.0-1.0-516.0,0,0,61002,,,,,,,,,,,,,,,,,,,,,,,,,,,,196.0,1.5,,
374,,feedback,,html-keyboard-response,374,543815,0.0-1.0-517.0-0.0,0,0,61002,,,,,,73.0,,,,,,,,,,,,,,,,,,,,,,197.0,1.0,,
375,,iti,,html-keyboard-response,375,545316,0.0-1.0-518.0,0,0,61002,,,,,,,,,,,,,,,,,,,,,,,,,,,,198.5,1.5,,
376,,rl_choice,,html-keyboard-response,376,546050,0.0-1.0-520.0,0,0,61002,,732.0,,,68.0,74.0,74.0,2.0,hard,2000.0,1000.0,1.0,60.0,40.0,80.0,40.0,B,A,/static/Simple_RL/Stimuli/Fractals_stims/B.jpg,/static/Simple_RL/Stimuli/Fractals_stims/A.jpg,1.0,60.0,40.0,80.0,40.0,B,A,199.232,0.732,0.0,
377,,rl_choice_confirmation,,html-keyboard-response,377,546822,0.0-1.0-521.0-0.0,0,0,61002,,,,,,74.0,,,,,,,,,,,,,,,,,,,,,,200.0,0.768,,
378,,isi,,html-keyboard-response,378,547838,0.0-1.0-523.0,0,0,61002,,,,,,,,,,,,,,,,,,,,,,,,,,,,201.0,1.0,,
379,,feedback,,html-keyboard-response,379,548841,0.0-1.0-524.0-0.0,0,0,61002,,,,,,74.0,,,,,,,,,,,,,,,,,,,,,,202.0,1.0,,
380,,iti,,html-keyboard-response,380,550843,0.0-1.0-525.0,0,0,61002,,,,,,,,,,,,,,,,,,,,,,,,,,,,204.0,2.0,,
381,,rl_choice,,html-keyboard-response,381,551906,0.0-1.0-527.0,0,0,61002,,1062.0,,,68.0,75.0,75.0,2.0,hard,1000.0,1500.0,1.0,60.0,40.0,80.0,40.0,B,A,/static/Simple_RL/Stimuli/Fractals_stims/B.jpg,/static/Simple_RL/Stimuli/Fractals_stims/A.jpg,1.0,60.0,40.0,80.0,40.0,B,A,205.062,1.062,0.0,
382,,rl_choice_confirmation,,html-keyboard-response,382,552347,0.0-1.0-528.0-0.0,0,0,61002,,,,,,75.0,,,,,,,,,,,,,,,,,,,,,,205.5,0.438,,
383,,isi,,html-keyboard-response,383,553848,0.0-1.0-530.0,0,0,61002,,,,,,,,,,,,,,,,,,,,,,,,,,,,207.0,1.5,,
384,,feedback,,html-keyboard-response,384,554851,0.0-1.0-531.0-0.0,0,0,61002,,,,,,75.0,,,,,,,,,,,,,,,,,,,,,,208.0,1.0,,
385,,iti,,html-keyboard-response,385,555853,0.0-1.0-532.0,0,0,61002,,,,,,,,,,,,,,,,,,,,,,,,,,,,209.0,1.0,,
386,,rl_choice,,html-keyboard-response,386,556738,0.0-1.0-534.0,0,0,61002,,883.0,,,75.0,76.0,76.0,2.0,hard,3500.0,1000.0,0.0,40.0,60.0,40.0,60.0,A,B,/static/Simple_RL/Stimuli/Fractals_stims/A.jpg,/static/Simple_RL/Stimuli/Fractals_stims/B.jpg,0.0,60.0,40.0,60.0,40.0,B,A,209.883,0.883,0.0,
387,,rl_choice_confirmation,,html-keyboard-response,387,557359,0.0-1.0-535.0-0.0,0,0,61002,,,,,,76.0,,,,,,,,,,,,,,,,,,,,,,210.5,0.617,,
388,,isi,,html-keyboard-response,388,558361,0.0-1.0-537.0,0,0,61002,,,,,,,,,,,,,,,,,,,,,,,,,,,,211.5,1.0,,
389,,feedback,,html-keyboard-response,389,559364,0.0-1.0-538.0-0.0,0,0,61002,,,,,,76.0,,,,,,,,,,,,,,,,,,,,,,212.5,1.0,,
390,,iti,,html-keyboard-response,390,562866,0.0-1.0-539.0,0,0,61002,,,,,,,,,,,,,,,,,,,,,,,,,,,,216.0,3.5,,
391,,rl_choice,,html-keyboard-response,391,563434,0.0-1.0-541.0,0,0,61002,,567.0,,,75.0,77.0,77.0,2.0,easy,1000.0,1000.0,1.0,80.0,20.0,60.0,0.0,D,C,/static/Simple_RL/Stimuli/Fractals_stims/D.jpg,/static/Simple_RL/Stimuli/Fractals_stims/C.jpg,0.0,20.0,80.0,0.0,60.0,C,D,216.567,0.567,0.0,
392,,rl_choice_confirmation,,html-keyboard-response,392,564370,0.0-1.0-542.0-0.0,0,0,61002,,,,,,77.0,,,,,,,,,,,,,,,,,,,,,,217.5,0.933,,
393,,isi,,html-keyboard-response,393,565372,0.0-1.0-544.0,0,0,61002,,,,,,,,,,,,,,,,,,,,,,,,,,,,218.5,1.0,,
394,,feedback,,html-keyboard-response,394,566376,0.0-1.0-545.0-0.0,0,0,61002,,,,,,77.0,,,,,,,,,,,,,,,,,,,,,,219.5,1.0,,
395,,iti,,html-keyboard-response,395,567379,0.0-1.0-546.0,0,0,61002,,,,,,,,,,,,,,,,,,,,,,,,,,,,220.5,1.0,,
396,,rl_choice,,html-keyboard-response,396,568274,0.0-1.0-548.0,0,0,61002,,893.0,,,68.0,78.0,78.0,2.0,hard,1500.0,2000.0,1.0,60.0,40.0,60.0,20.0,B,A,/static/Simple_RL/Stimuli/Fractals_stims/B.jpg,/static/Simple_RL/Stimuli/Fractals_stims/A.jpg,1.0,60.0,40.0,60.0,20.0,B,A,221.393,0.893,0.0,
397,,rl_choice_confirmation,,html-keyboard-response,397,568884,0.0-1.0-549.0-0.0,0,0,61002,,,,,,78.0,,,,,,,,,,,,,,,,,,,,,,222.0,0.607,,
398,,isi,,html-keyboard-response,398,570886,0.0-1.0-551.0,0,0,61002,,,,,,,,,,,,,,,,,,,,,,,,,,,,224.0,2.0,,
399,,feedback,,html-keyboard-response,399,571889,0.0-1.0-552.0-0.0,0,0,61002,,,,,,78.0,,,,,,,,,,,,,,,,,,,,,,225.0,1.0,,
400,,iti,,html-keyboard-response,400,573392,0.0-1.0-553.0,0,0,61002,,,,,,,,,,,,,,,,,,,,,,,,,,,,226.5,1.5,,
401,,rl_choice,,html-keyboard-response,401,573858,0.0-1.0-555.0,0,0,61002,,465.0,,,68.0,79.0,79.0,2.0,hard,1000.0,2000.0,1.0,60.0,40.0,40.0,60.0,B,A,/static/Simple_RL/Stimuli/Fractals_stims/B.jpg,/static/Simple_RL/Stimuli/Fractals_stims/A.jpg,1.0,60.0,40.0,40.0,60.0,B,A,226.965,0.465,0.0,
402,,rl_choice_confirmation,,html-keyboard-response,402,574896,0.0-1.0-556.0-0.0,0,0,61002,,,,,,79.0,,,,,,,,,,,,,,,,,,,,,,228.0,1.035,,
403,,isi,,html-keyboard-response,403,576898,0.0-1.0-558.0,0,0,61002,,,,,,,,,,,,,,,,,,,,,,,,,,,,230.0,2.0,,
404,,feedback,,html-keyboard-response,404,577902,0.0-1.0-559.0-0.0,0,0,61002,,,,,,79.0,,,,,,,,,,,,,,,,,,,,,,231.0,1.0,,
405,,iti,,html-keyboard-response,405,578904,0.0-1.0-560.0,0,0,61002,,,,,,,,,,,,,,,,,,,,,,,,,,,,232.0,1.0,,1.0
406,,final_tally,,html-keyboard-response,406,582570,0.0-2.0,0,0,61002,,3663.0,,,68.0,,,,,,,,,,,,,,,,,,,,,,,,,,
407,,debreif_intro,,html-keyboard-response,407,588547,0.0-3.0,0,0,61002,,5955.0,,,68.0,,,,,,,,,,,,,,,,,,,,,,,,,,
408,,debreif_age,,survey-text,408,593566,0.0-4.0,0,0,61002,,5017.0,"{""Q0"":""36""}",,,,,,,,,,,,,,,,,,,,,,,,,,,,
409,,debreif_gender,,survey-multi-choice,409,596818,0.0-5.0,0,0,61002,,3250.0,"{""Q0"":""Male""}",,,,,,,,,,,,,,,,,,,,,,,,,,,,
410,,debreif_dominant_hand,,survey-multi-choice,410,600792,0.0-6.0,0,0,61002,,3971.0,"{""Q0"":""Right""}",,,,,,,,,,,,,,,,,,,,,,,,,,,,
411,,debreif_native_language,,survey-multi-choice,411,607551,0.0-7.0,0,0,61002,,6756.0,"{""Q0"":""Yes""}",,,,,,,,,,,,,,,,,,,,,,,,,,,,
412,,debreif_fluency,,survey-likert,412,612394,0.0-8.0,0,0,61002,,4841.0,"{""Q0"":5}",,,,,,,,,,,,,,,,,,,,,,,,,,,,
413,,debreif_strategy_category_learning,,survey-text,413,649665,0.0-9.0,0,0,61002,,37271.0,"{""Q0"":""I chose  the object that looked more expensive""}",,,,,,,,,,,,,,,,,,,,,,,,,,,,
414,,debreif_strategy_old_trials,,survey-text,414,700667,0.0-10.0,0,0,61002,,51001.0,"{""Q0"":""I chose based on how much more appealing the design was compared to the other""}",,,,,,,,,,,,,,,,,,,,,,,,,,,,
415,,debreif_strategy_category_memory,,survey-text,415,768495,0.0-11.0,0,0,61002,,67827.0,"{""Q0"":""I based it on averages. The cards were worth really low value. Anytime i chose them, the range was from 0 - 20. So i chose 20 cents for the cards and used the same method for other items.""}",,,,,,,,,,,,,,,,,,,,,,,,,,,,
416,,debreif_strategy_size,,survey-text,416,789853,0.0-12.0,0,0,61002,,21356.0,"{""Q0"":""I chose based on which object was bigger in real life""}",,,,,,,,,,,,,,,,,,,,,,,,,,,,
417,,debreif_strategy_rl,,survey-text,417,838454,0.0-13.0,0,0,61002,,48600.0,"{""Q0"":""I based it on averages. I was making more money with the blue and pink balls compared to the few times i chose the others balls.""}",,,,,,,,,,,,,,,,,,,,,,,,,,,,
418,,debreif_clear_instructions,,survey-text,418,843526,0.0-14.0,0,0,61002,,5071.0,"{""Q0"":""no""}",,,,,,,,,,,,,,,,,,,,,,,,,,,,
419,,debreif_end,,html-keyboard-response,419,858570,0.0-15.0,0,0,61002,,15043.0,,,32.0,,,,,,,,,,,,,,,,,,,,,,,,,,
