,success,ttype,start_time,trial_type,trial_index,time_elapsed,internal_node_id,warning,missed_checkup,PID,view_history,rt,responses,repeat_instructions,key_press,index,trial_num,block,condition,iti,isi,high_group_on_left,left_group_value,right_group_value,left_item_value,right_item_value,left_img,right_img,left_img_path,right_img_path,left_chosen,chosen_group_value,unchosen_group_value,chosen_item_value,unchosen_item_value,chosen_img,unchosen_img,onset,duration,no_response,total_bonus_tally
0,True,full_screen,d06072022hr1205,fullscreen,0,5565,0.0-0.0,0,0,72837,,,,,,,,,,,,,,,,,,,,,,,,,,,,,,,
1,,size_instructions,,instructions,1,47462,0.0-1.0-0.0-0.0,0,0,72837,"[{""page_index"":0,""viewing_time"":4323},{""page_index"":1,""viewing_time"":14455},{""page_index"":2,""viewing_time"":14865},{""page_index"":3,""viewing_time"":4272},{""page_index"":4,""viewing_time"":1808},{""page_index"":5,""viewing_time"":2168}]",41892.0,,,,,,,,,,,,,,,,,,,,,,,,,,,,,
2,,rl_comprehension_check,,survey-multi-choice,2,56671,0.0-1.0-0.0-1.0,0,0,72837,,9203.0,"{""Q0"":""True"",""Q1"":""True"",""Q2"":""D for left and K for right""}",0.0,,,,,,,,,,,,,,,,,,,,,,,,,,,
3,,,,html-keyboard-response,3,57862,0.0-1.0-1.0,0,0,72837,,1186.0,,,68.0,,,,,,,,,,,,,,,,,,,,,,,,,,
4,,rl_choice,,html-keyboard-response,4,58546,0.0-1.0-2.0,0,0,72837,,676.0,,,68.0,0.0,0.0,1.0,hard,3500.0,2000.0,1.0,60.0,40.0,80.0,40.0,A,B,/static/Simple_RL/Stimuli/Fractals_stims/A.jpg,/static/Simple_RL/Stimuli/Fractals_stims/B.jpg,1.0,60.0,40.0,80.0,40.0,A,B,0.676,0.676,0.0,
5,,rl_choice_confirmation,,html-keyboard-response,5,59392,0.0-1.0-3.0-0.0,0,0,72837,,,,,,0.0,,1.0,,,,,,,,,,,,,,,,,,,,1.5,0.824,,
6,,isi,,html-keyboard-response,6,61417,0.0-1.0-5.0,0,0,72837,,,,,,0.0,,1.0,,,,,,,,,,,,,,,,,,,,3.5,2.0,,
7,,feedback,,html-keyboard-response,7,62440,0.0-1.0-6.0-0.0,0,0,72837,,,,,,0.0,,1.0,,,,,,,,,,,,,,,,,,,,4.5,1.0,,
8,,iti,,html-keyboard-response,8,65952,0.0-1.0-7.0,0,0,72837,,,,,,0.0,,1.0,,,,,,,,,,,,,,,,,,,,8.0,3.5,,
9,,rl_choice,,html-keyboard-response,9,66483,0.0-1.0-9.0,0,0,72837,,513.0,,,68.0,1.0,1.0,1.0,hard,1000.0,2000.0,1.0,60.0,40.0,80.0,20.0,A,B,/static/Simple_RL/Stimuli/Fractals_stims/A.jpg,/static/Simple_RL/Stimuli/Fractals_stims/B.jpg,1.0,60.0,40.0,80.0,20.0,A,B,8.513,0.513,0.0,
10,,rl_choice_confirmation,,html-keyboard-response,10,67483,0.0-1.0-10.0-0.0,0,0,72837,,,,,,1.0,,1.0,,,,,,,,,,,,,,,,,,,,9.5,0.987,,
11,,isi,,html-keyboard-response,11,69495,0.0-1.0-12.0,0,0,72837,,,,,,1.0,,1.0,,,,,,,,,,,,,,,,,,,,11.5,2.0,,
12,,feedback,,html-keyboard-response,12,70519,0.0-1.0-13.0-0.0,0,0,72837,,,,,,1.0,,1.0,,,,,,,,,,,,,,,,,,,,12.5,1.0,,
13,,iti,,html-keyboard-response,13,71533,0.0-1.0-14.0,0,0,72837,,,,,,1.0,,1.0,,,,,,,,,,,,,,,,,,,,13.5,1.0,,
14,,rl_choice,,html-keyboard-response,14,72337,0.0-1.0-16.0,0,0,72837,,800.0,,,75.0,2.0,2.0,1.0,easy,2000.0,2000.0,0.0,20.0,80.0,40.0,100.0,D,C,/static/Simple_RL/Stimuli/Fractals_stims/D.jpg,/static/Simple_RL/Stimuli/Fractals_stims/C.jpg,0.0,80.0,20.0,100.0,40.0,C,D,14.3,0.8,0.0,
15,,rl_choice_confirmation,,html-keyboard-response,15,73058,0.0-1.0-17.0-0.0,0,0,72837,,,,,,2.0,,1.0,,,,,,,,,,,,,,,,,,,,15.0,0.7,,
16,,isi,,html-keyboard-response,16,75081,0.0-1.0-19.0,0,0,72837,,,,,,2.0,,1.0,,,,,,,,,,,,,,,,,,,,17.0,2.0,,
17,,feedback,,html-keyboard-response,17,76093,0.0-1.0-20.0-0.0,0,0,72837,,,,,,2.0,,1.0,,,,,,,,,,,,,,,,,,,,18.0,1.0,,
18,,iti,,html-keyboard-response,18,78099,0.0-1.0-21.0,0,0,72837,,,,,,2.0,,1.0,,,,,,,,,,,,,,,,,,,,20.0,2.0,,
19,,rl_choice,,html-keyboard-response,19,78777,0.0-1.0-23.0,0,0,72837,,673.0,,,75.0,3.0,3.0,1.0,hard,1500.0,1000.0,0.0,40.0,60.0,20.0,60.0,B,A,/static/Simple_RL/Stimuli/Fractals_stims/B.jpg,/static/Simple_RL/Stimuli/Fractals_stims/A.jpg,0.0,60.0,40.0,60.0,20.0,A,B,20.673,0.673,0.0,
20,,rl_choice_confirmation,,html-keyboard-response,20,79622,0.0-1.0-24.0-0.0,0,0,72837,,,,,,3.0,,1.0,,,,,,,,,,,,,,,,,,,,21.5,0.827,,
21,,isi,,html-keyboard-response,21,80638,0.0-1.0-26.0,0,0,72837,,,,,,3.0,,1.0,,,,,,,,,,,,,,,,,,,,22.5,1.0,,
22,,feedback,,html-keyboard-response,22,81649,0.0-1.0-27.0-0.0,0,0,72837,,,,,,3.0,,1.0,,,,,,,,,,,,,,,,,,,,23.5,1.0,,
23,,iti,,html-keyboard-response,23,83158,0.0-1.0-28.0,0,0,72837,,,,,,3.0,,1.0,,,,,,,,,,,,,,,,,,,,25.0,1.5,,
24,,rl_choice,,html-keyboard-response,24,83785,0.0-1.0-30.0,0,0,72837,,622.0,,,75.0,4.0,4.0,1.0,hard,1500.0,3000.0,0.0,40.0,60.0,40.0,60.0,B,A,/static/Simple_RL/Stimuli/Fractals_stims/B.jpg,/static/Simple_RL/Stimuli/Fractals_stims/A.jpg,0.0,60.0,40.0,60.0,40.0,A,B,25.622,0.622,0.0,
25,,rl_choice_confirmation,,html-keyboard-response,25,84683,0.0-1.0-31.0-0.0,0,0,72837,,,,,,4.0,,1.0,,,,,,,,,,,,,,,,,,,,26.5,0.878,,
26,,isi,,html-keyboard-response,26,87691,0.0-1.0-33.0,0,0,72837,,,,,,4.0,,1.0,,,,,,,,,,,,,,,,,,,,29.5,3.0,,
27,,feedback,,html-keyboard-response,27,88700,0.0-1.0-34.0-0.0,0,0,72837,,,,,,4.0,,1.0,,,,,,,,,,,,,,,,,,,,30.5,1.0,,
28,,iti,,html-keyboard-response,28,90222,0.0-1.0-35.0,0,0,72837,,,,,,4.0,,1.0,,,,,,,,,,,,,,,,,,,,32.0,1.5,,
29,,rl_choice,,html-keyboard-response,29,90977,0.0-1.0-37.0,0,0,72837,,752.0,,,68.0,5.0,5.0,1.0,easy,1500.0,1500.0,1.0,80.0,20.0,80.0,0.0,C,D,/static/Simple_RL/Stimuli/Fractals_stims/C.jpg,/static/Simple_RL/Stimuli/Fractals_stims/D.jpg,1.0,80.0,20.0,80.0,0.0,C,D,32.752,0.752,0.0,
30,,rl_choice_confirmation,,html-keyboard-response,30,91740,0.0-1.0-38.0-0.0,0,0,72837,,,,,,5.0,,1.0,,,,,,,,,,,,,,,,,,,,33.5,0.748,,
31,,isi,,html-keyboard-response,31,93245,0.0-1.0-40.0,0,0,72837,,,,,,5.0,,1.0,,,,,,,,,,,,,,,,,,,,35.0,1.5,,
32,,feedback,,html-keyboard-response,32,94254,0.0-1.0-41.0-0.0,0,0,72837,,,,,,5.0,,1.0,,,,,,,,,,,,,,,,,,,,36.0,1.0,,
33,,iti,,html-keyboard-response,33,95762,0.0-1.0-42.0,0,0,72837,,,,,,5.0,,1.0,,,,,,,,,,,,,,,,,,,,37.5,1.5,,
34,,rl_choice,,html-keyboard-response,34,96497,0.0-1.0-44.0,0,0,72837,,730.0,,,68.0,6.0,6.0,1.0,easy,1000.0,1000.0,1.0,80.0,20.0,60.0,40.0,C,D,/static/Simple_RL/Stimuli/Fractals_stims/C.jpg,/static/Simple_RL/Stimuli/Fractals_stims/D.jpg,1.0,80.0,20.0,60.0,40.0,C,D,38.23,0.73,0.0,
35,,rl_choice_confirmation,,html-keyboard-response,35,97282,0.0-1.0-45.0-0.0,0,0,72837,,,,,,6.0,,1.0,,,,,,,,,,,,,,,,,,,,39.0,0.77,,
36,,isi,,html-keyboard-response,36,98301,0.0-1.0-47.0,0,0,72837,,,,,,6.0,,1.0,,,,,,,,,,,,,,,,,,,,40.0,1.0,,
37,,feedback,,html-keyboard-response,37,99314,0.0-1.0-48.0-0.0,0,0,72837,,,,,,6.0,,1.0,,,,,,,,,,,,,,,,,,,,41.0,1.0,,
38,,iti,,html-keyboard-response,38,100322,0.0-1.0-49.0,0,0,72837,,,,,,6.0,,1.0,,,,,,,,,,,,,,,,,,,,42.0,1.0,,
39,,rl_choice,,html-keyboard-response,39,100968,0.0-1.0-51.0,0,0,72837,,640.0,,,75.0,7.0,7.0,1.0,easy,3000.0,2000.0,0.0,20.0,80.0,0.0,80.0,D,C,/static/Simple_RL/Stimuli/Fractals_stims/D.jpg,/static/Simple_RL/Stimuli/Fractals_stims/C.jpg,0.0,80.0,20.0,80.0,0.0,C,D,42.64,0.64,0.0,
40,,rl_choice_confirmation,,html-keyboard-response,40,101838,0.0-1.0-52.0-0.0,0,0,72837,,,,,,7.0,,1.0,,,,,,,,,,,,,,,,,,,,43.5,0.86,,
41,,isi,,html-keyboard-response,41,103843,0.0-1.0-54.0,0,0,72837,,,,,,7.0,,1.0,,,,,,,,,,,,,,,,,,,,45.5,2.0,,
42,,feedback,,html-keyboard-response,42,104860,0.0-1.0-55.0-0.0,0,0,72837,,,,,,7.0,,1.0,,,,,,,,,,,,,,,,,,,,46.5,1.0,,
43,,iti,,html-keyboard-response,43,107862,0.0-1.0-56.0,0,0,72837,,,,,,7.0,,1.0,,,,,,,,,,,,,,,,,,,,49.5,3.0,,
44,,rl_choice,,html-keyboard-response,44,108346,0.0-1.0-58.0,0,0,72837,,478.0,,,75.0,8.0,8.0,1.0,hard,2000.0,3500.0,0.0,40.0,60.0,40.0,60.0,B,A,/static/Simple_RL/Stimuli/Fractals_stims/B.jpg,/static/Simple_RL/Stimuli/Fractals_stims/A.jpg,0.0,60.0,40.0,60.0,40.0,A,B,49.978,0.478,0.0,
45,,rl_choice_confirmation,,html-keyboard-response,45,109395,0.0-1.0-59.0-0.0,0,0,72837,,,,,,8.0,,1.0,,,,,,,,,,,,,,,,,,,,51.0,1.022,,
46,,isi,,html-keyboard-response,46,112911,0.0-1.0-61.0,0,0,72837,,,,,,8.0,,1.0,,,,,,,,,,,,,,,,,,,,54.5,3.5,,
47,,feedback,,html-keyboard-response,47,113926,0.0-1.0-62.0-0.0,0,0,72837,,,,,,8.0,,1.0,,,,,,,,,,,,,,,,,,,,55.5,1.0,,
48,,iti,,html-keyboard-response,48,115942,0.0-1.0-63.0,0,0,72837,,,,,,8.0,,1.0,,,,,,,,,,,,,,,,,,,,57.5,2.0,,
49,,rl_choice,,html-keyboard-response,49,116817,0.0-1.0-65.0,0,0,72837,,869.0,,,68.0,9.0,9.0,1.0,hard,2000.0,1000.0,1.0,60.0,40.0,60.0,20.0,A,B,/static/Simple_RL/Stimuli/Fractals_stims/A.jpg,/static/Simple_RL/Stimuli/Fractals_stims/B.jpg,1.0,60.0,40.0,60.0,20.0,A,B,58.369,0.869,0.0,
50,,rl_choice_confirmation,,html-keyboard-response,50,117458,0.0-1.0-66.0-0.0,0,0,72837,,,,,,9.0,,1.0,,,,,,,,,,,,,,,,,,,,59.0,0.631,,
51,,isi,,html-keyboard-response,51,118473,0.0-1.0-68.0,0,0,72837,,,,,,9.0,,1.0,,,,,,,,,,,,,,,,,,,,60.0,1.0,,
52,,feedback,,html-keyboard-response,52,119481,0.0-1.0-69.0-0.0,0,0,72837,,,,,,9.0,,1.0,,,,,,,,,,,,,,,,,,,,61.0,1.0,,
53,,iti,,html-keyboard-response,53,121496,0.0-1.0-70.0,0,0,72837,,,,,,9.0,,1.0,,,,,,,,,,,,,,,,,,,,63.0,2.0,,
54,,rl_choice,,html-keyboard-response,54,122307,0.0-1.0-72.0,0,0,72837,,808.0,,,75.0,10.0,10.0,1.0,easy,1000.0,1000.0,0.0,20.0,80.0,0.0,80.0,D,C,/static/Simple_RL/Stimuli/Fractals_stims/D.jpg,/static/Simple_RL/Stimuli/Fractals_stims/C.jpg,0.0,80.0,20.0,80.0,0.0,C,D,63.808,0.808,0.0,
55,,rl_choice_confirmation,,html-keyboard-response,55,123024,0.0-1.0-73.0-0.0,0,0,72837,,,,,,10.0,,1.0,,,,,,,,,,,,,,,,,,,,64.5,0.692,,
56,,isi,,html-keyboard-response,56,124032,0.0-1.0-75.0,0,0,72837,,,,,,10.0,,1.0,,,,,,,,,,,,,,,,,,,,65.5,1.0,,
57,,feedback,,html-keyboard-response,57,125067,0.0-1.0-76.0-0.0,0,0,72837,,,,,,10.0,,1.0,,,,,,,,,,,,,,,,,,,,66.5,1.0,,
58,,iti,,html-keyboard-response,58,126090,0.0-1.0-77.0,0,0,72837,,,,,,10.0,,1.0,,,,,,,,,,,,,,,,,,,,67.5,1.0,,
59,,rl_choice,,html-keyboard-response,59,126905,0.0-1.0-79.0,0,0,72837,,809.0,,,68.0,11.0,11.0,1.0,hard,1000.0,2000.0,0.0,40.0,60.0,40.0,60.0,B,A,/static/Simple_RL/Stimuli/Fractals_stims/B.jpg,/static/Simple_RL/Stimuli/Fractals_stims/A.jpg,1.0,40.0,60.0,40.0,60.0,B,A,68.309,0.809,0.0,
60,,rl_choice_confirmation,,html-keyboard-response,60,127608,0.0-1.0-80.0-0.0,0,0,72837,,,,,,11.0,,1.0,,,,,,,,,,,,,,,,,,,,69.0,0.691,,
61,,isi,,html-keyboard-response,61,129617,0.0-1.0-82.0,0,0,72837,,,,,,11.0,,1.0,,,,,,,,,,,,,,,,,,,,71.0,2.0,,
62,,feedback,,html-keyboard-response,62,130644,0.0-1.0-83.0-0.0,0,0,72837,,,,,,11.0,,1.0,,,,,,,,,,,,,,,,,,,,72.0,1.0,,
63,,iti,,html-keyboard-response,63,131663,0.0-1.0-84.0,0,0,72837,,,,,,11.0,,1.0,,,,,,,,,,,,,,,,,,,,73.0,1.0,,
64,,rl_choice,,html-keyboard-response,64,132250,0.0-1.0-86.0,0,0,72837,,581.0,,,75.0,12.0,12.0,1.0,hard,1000.0,1000.0,0.0,40.0,60.0,60.0,80.0,B,A,/static/Simple_RL/Stimuli/Fractals_stims/B.jpg,/static/Simple_RL/Stimuli/Fractals_stims/A.jpg,0.0,60.0,40.0,80.0,60.0,A,B,73.581,0.581,0.0,
65,,rl_choice_confirmation,,html-keyboard-response,65,133189,0.0-1.0-87.0-0.0,0,0,72837,,,,,,12.0,,1.0,,,,,,,,,,,,,,,,,,,,74.5,0.919,,
66,,isi,,html-keyboard-response,66,134194,0.0-1.0-89.0,0,0,72837,,,,,,12.0,,1.0,,,,,,,,,,,,,,,,,,,,75.5,1.0,,
67,,feedback,,html-keyboard-response,67,135216,0.0-1.0-90.0-0.0,0,0,72837,,,,,,12.0,,1.0,,,,,,,,,,,,,,,,,,,,76.5,1.0,,
68,,iti,,html-keyboard-response,68,136231,0.0-1.0-91.0,0,0,72837,,,,,,12.0,,1.0,,,,,,,,,,,,,,,,,,,,77.5,1.0,,
69,,rl_choice,,html-keyboard-response,69,137243,0.0-1.0-93.0,0,0,72837,,1008.0,,,68.0,13.0,13.0,1.0,hard,3000.0,1500.0,1.0,60.0,40.0,40.0,60.0,A,B,/static/Simple_RL/Stimuli/Fractals_stims/A.jpg,/static/Simple_RL/Stimuli/Fractals_stims/B.jpg,1.0,60.0,40.0,40.0,60.0,A,B,78.508,1.008,0.0,
70,,rl_choice_confirmation,,html-keyboard-response,70,137746,0.0-1.0-94.0-0.0,0,0,72837,,,,,,13.0,,1.0,,,,,,,,,,,,,,,,,,,,79.0,0.492,,
71,,isi,,html-keyboard-response,71,139249,0.0-1.0-96.0,0,0,72837,,,,,,13.0,,1.0,,,,,,,,,,,,,,,,,,,,80.5,1.5,,
72,,feedback,,html-keyboard-response,72,140261,0.0-1.0-97.0-0.0,0,0,72837,,,,,,13.0,,1.0,,,,,,,,,,,,,,,,,,,,81.5,1.0,,
73,,iti,,html-keyboard-response,73,143269,0.0-1.0-98.0,0,0,72837,,,,,,13.0,,1.0,,,,,,,,,,,,,,,,,,,,84.5,3.0,,
74,,rl_choice,,html-keyboard-response,74,143862,0.0-1.0-100.0,0,0,72837,,589.0,,,68.0,14.0,14.0,1.0,easy,1500.0,1000.0,1.0,80.0,20.0,100.0,40.0,C,D,/static/Simple_RL/Stimuli/Fractals_stims/C.jpg,/static/Simple_RL/Stimuli/Fractals_stims/D.jpg,1.0,80.0,20.0,100.0,40.0,C,D,85.089,0.589,0.0,
75,,rl_choice_confirmation,,html-keyboard-response,75,144791,0.0-1.0-101.0-0.0,0,0,72837,,,,,,14.0,,1.0,,,,,,,,,,,,,,,,,,,,86.0,0.911,,
76,,isi,,html-keyboard-response,76,145798,0.0-1.0-103.0,0,0,72837,,,,,,14.0,,1.0,,,,,,,,,,,,,,,,,,,,87.0,1.0,,
77,,feedback,,html-keyboard-response,77,146820,0.0-1.0-104.0-0.0,0,0,72837,,,,,,14.0,,1.0,,,,,,,,,,,,,,,,,,,,88.0,1.0,,
78,,iti,,html-keyboard-response,78,148331,0.0-1.0-105.0,0,0,72837,,,,,,14.0,,1.0,,,,,,,,,,,,,,,,,,,,89.5,1.5,,
79,,rl_choice,,html-keyboard-response,79,148946,0.0-1.0-107.0,0,0,72837,,610.0,,,68.0,15.0,15.0,1.0,hard,1000.0,3000.0,1.0,60.0,40.0,60.0,60.0,A,B,/static/Simple_RL/Stimuli/Fractals_stims/A.jpg,/static/Simple_RL/Stimuli/Fractals_stims/B.jpg,1.0,60.0,40.0,60.0,60.0,A,B,90.11,0.61,0.0,
80,,rl_choice_confirmation,,html-keyboard-response,80,149860,0.0-1.0-108.0-0.0,0,0,72837,,,,,,15.0,,1.0,,,,,,,,,,,,,,,,,,,,91.0,0.89,,
81,,isi,,html-keyboard-response,81,152870,0.0-1.0-110.0,0,0,72837,,,,,,15.0,,1.0,,,,,,,,,,,,,,,,,,,,94.0,3.0,,
82,,feedback,,html-keyboard-response,82,153890,0.0-1.0-111.0-0.0,0,0,72837,,,,,,15.0,,1.0,,,,,,,,,,,,,,,,,,,,95.0,1.0,,
83,,iti,,html-keyboard-response,83,154906,0.0-1.0-112.0,0,0,72837,,,,,,15.0,,1.0,,,,,,,,,,,,,,,,,,,,96.0,1.0,,
84,,rl_choice,,html-keyboard-response,84,155608,0.0-1.0-114.0,0,0,72837,,698.0,,,68.0,16.0,16.0,1.0,hard,1500.0,1000.0,1.0,60.0,40.0,60.0,40.0,A,B,/static/Simple_RL/Stimuli/Fractals_stims/A.jpg,/static/Simple_RL/Stimuli/Fractals_stims/B.jpg,1.0,60.0,40.0,60.0,40.0,A,B,96.698,0.698,0.0,
85,,rl_choice_confirmation,,html-keyboard-response,85,156427,0.0-1.0-115.0-0.0,0,0,72837,,,,,,16.0,,1.0,,,,,,,,,,,,,,,,,,,,97.5,0.802,,
86,,isi,,html-keyboard-response,86,157441,0.0-1.0-117.0,0,0,72837,,,,,,16.0,,1.0,,,,,,,,,,,,,,,,,,,,98.5,1.0,,
87,,feedback,,html-keyboard-response,87,158460,0.0-1.0-118.0-0.0,0,0,72837,,,,,,16.0,,1.0,,,,,,,,,,,,,,,,,,,,99.5,1.0,,
88,,iti,,html-keyboard-response,88,159976,0.0-1.0-119.0,0,0,72837,,,,,,16.0,,1.0,,,,,,,,,,,,,,,,,,,,101.0,1.5,,
89,,rl_choice,,html-keyboard-response,89,160554,0.0-1.0-121.0,0,0,72837,,574.0,,,68.0,17.0,17.0,1.0,easy,2000.0,2000.0,1.0,80.0,20.0,100.0,40.0,C,D,/static/Simple_RL/Stimuli/Fractals_stims/C.jpg,/static/Simple_RL/Stimuli/Fractals_stims/D.jpg,1.0,80.0,20.0,100.0,40.0,C,D,101.574,0.574,0.0,
90,,rl_choice_confirmation,,html-keyboard-response,90,161496,0.0-1.0-122.0-0.0,0,0,72837,,,,,,17.0,,1.0,,,,,,,,,,,,,,,,,,,,102.5,0.926,,
91,,isi,,html-keyboard-response,91,163503,0.0-1.0-124.0,0,0,72837,,,,,,17.0,,1.0,,,,,,,,,,,,,,,,,,,,104.5,2.0,,
92,,feedback,,html-keyboard-response,92,164519,0.0-1.0-125.0-0.0,0,0,72837,,,,,,17.0,,1.0,,,,,,,,,,,,,,,,,,,,105.5,1.0,,
93,,iti,,html-keyboard-response,93,166521,0.0-1.0-126.0,0,0,72837,,,,,,17.0,,1.0,,,,,,,,,,,,,,,,,,,,107.5,2.0,,
94,,rl_choice,,html-keyboard-response,94,167057,0.0-1.0-128.0,0,0,72837,,531.0,,,68.0,18.0,18.0,1.0,hard,1000.0,1500.0,1.0,60.0,40.0,80.0,60.0,A,B,/static/Simple_RL/Stimuli/Fractals_stims/A.jpg,/static/Simple_RL/Stimuli/Fractals_stims/B.jpg,1.0,60.0,40.0,80.0,60.0,A,B,108.031,0.531,0.0,
95,,rl_choice_confirmation,,html-keyboard-response,95,168050,0.0-1.0-129.0-0.0,0,0,72837,,,,,,18.0,,1.0,,,,,,,,,,,,,,,,,,,,109.0,0.969,,
96,,isi,,html-keyboard-response,96,169559,0.0-1.0-131.0,0,0,72837,,,,,,18.0,,1.0,,,,,,,,,,,,,,,,,,,,110.5,1.5,,
97,,feedback,,html-keyboard-response,97,170567,0.0-1.0-132.0-0.0,0,0,72837,,,,,,18.0,,1.0,,,,,,,,,,,,,,,,,,,,111.5,1.0,,
98,,iti,,html-keyboard-response,98,171579,0.0-1.0-133.0,0,0,72837,,,,,,18.0,,1.0,,,,,,,,,,,,,,,,,,,,112.5,1.0,,
99,,rl_choice,,html-keyboard-response,99,172089,0.0-1.0-135.0,0,0,72837,,506.0,,,68.0,19.0,19.0,1.0,hard,1000.0,1000.0,1.0,60.0,40.0,60.0,20.0,A,B,/static/Simple_RL/Stimuli/Fractals_stims/A.jpg,/static/Simple_RL/Stimuli/Fractals_stims/B.jpg,1.0,60.0,40.0,60.0,20.0,A,B,113.006,0.506,0.0,
100,,rl_choice_confirmation,,html-keyboard-response,100,173103,0.0-1.0-136.0-0.0,0,0,72837,,,,,,19.0,,1.0,,,,,,,,,,,,,,,,,,,,114.0,0.994,,
101,,isi,,html-keyboard-response,101,174112,0.0-1.0-138.0,0,0,72837,,,,,,19.0,,1.0,,,,,,,,,,,,,,,,,,,,115.0,1.0,,
102,,feedback,,html-keyboard-response,102,175126,0.0-1.0-139.0-0.0,0,0,72837,,,,,,19.0,,1.0,,,,,,,,,,,,,,,,,,,,116.0,1.0,,
103,,iti,,html-keyboard-response,103,176145,0.0-1.0-140.0,0,0,72837,,,,,,19.0,,1.0,,,,,,,,,,,,,,,,,,,,117.0,1.0,,
104,,rl_choice,,html-keyboard-response,104,176820,0.0-1.0-142.0,0,0,72837,,673.0,,,75.0,20.0,20.0,1.0,easy,1000.0,1000.0,0.0,20.0,80.0,0.0,60.0,D,C,/static/Simple_RL/Stimuli/Fractals_stims/D.jpg,/static/Simple_RL/Stimuli/Fractals_stims/C.jpg,0.0,80.0,20.0,60.0,0.0,C,D,117.673,0.673,0.0,
105,,rl_choice_confirmation,,html-keyboard-response,105,177675,0.0-1.0-143.0-0.0,0,0,72837,,,,,,20.0,,1.0,,,,,,,,,,,,,,,,,,,,118.5,0.827,,
106,,isi,,html-keyboard-response,106,178684,0.0-1.0-145.0,0,0,72837,,,,,,20.0,,1.0,,,,,,,,,,,,,,,,,,,,119.5,1.0,,
107,,feedback,,html-keyboard-response,107,179705,0.0-1.0-146.0-0.0,0,0,72837,,,,,,20.0,,1.0,,,,,,,,,,,,,,,,,,,,120.5,1.0,,
108,,iti,,html-keyboard-response,108,180718,0.0-1.0-147.0,0,0,72837,,,,,,20.0,,1.0,,,,,,,,,,,,,,,,,,,,121.5,1.0,,
109,,rl_choice,,html-keyboard-response,109,181457,0.0-1.0-149.0,0,0,72837,,736.0,,,75.0,21.0,21.0,1.0,easy,2000.0,1500.0,1.0,80.0,20.0,60.0,20.0,C,D,/static/Simple_RL/Stimuli/Fractals_stims/C.jpg,/static/Simple_RL/Stimuli/Fractals_stims/D.jpg,0.0,20.0,80.0,20.0,60.0,D,C,122.236,0.736,0.0,
110,,rl_choice_confirmation,,html-keyboard-response,110,182246,0.0-1.0-150.0-0.0,0,0,72837,,,,,,21.0,,1.0,,,,,,,,,,,,,,,,,,,,123.0,0.764,,
111,,isi,,html-keyboard-response,111,183758,0.0-1.0-152.0,0,0,72837,,,,,,21.0,,1.0,,,,,,,,,,,,,,,,,,,,124.5,1.5,,
112,,feedback,,html-keyboard-response,112,184776,0.0-1.0-153.0-0.0,0,0,72837,,,,,,21.0,,1.0,,,,,,,,,,,,,,,,,,,,125.5,1.0,,
113,,iti,,html-keyboard-response,113,186777,0.0-1.0-154.0,0,0,72837,,,,,,21.0,,1.0,,,,,,,,,,,,,,,,,,,,127.5,2.0,,
114,,rl_choice,,html-keyboard-response,114,187235,0.0-1.0-156.0,0,0,72837,,455.0,,,68.0,22.0,22.0,1.0,easy,1000.0,1000.0,1.0,80.0,20.0,100.0,0.0,C,D,/static/Simple_RL/Stimuli/Fractals_stims/C.jpg,/static/Simple_RL/Stimuli/Fractals_stims/D.jpg,1.0,80.0,20.0,100.0,0.0,C,D,127.955,0.455,0.0,
115,,rl_choice_confirmation,,html-keyboard-response,115,188304,0.0-1.0-157.0-0.0,0,0,72837,,,,,,22.0,,1.0,,,,,,,,,,,,,,,,,,,,129.0,1.045,,
116,,isi,,html-keyboard-response,116,189316,0.0-1.0-159.0,0,0,72837,,,,,,22.0,,1.0,,,,,,,,,,,,,,,,,,,,130.0,1.0,,
117,,feedback,,html-keyboard-response,117,190332,0.0-1.0-160.0-0.0,0,0,72837,,,,,,22.0,,1.0,,,,,,,,,,,,,,,,,,,,131.0,1.0,,
118,,iti,,html-keyboard-response,118,191350,0.0-1.0-161.0,0,0,72837,,,,,,22.0,,1.0,,,,,,,,,,,,,,,,,,,,132.0,1.0,,
119,,rl_choice,,html-keyboard-response,119,191833,0.0-1.0-163.0,0,0,72837,,480.0,,,68.0,23.0,23.0,1.0,easy,1500.0,3000.0,1.0,80.0,20.0,80.0,20.0,C,D,/static/Simple_RL/Stimuli/Fractals_stims/C.jpg,/static/Simple_RL/Stimuli/Fractals_stims/D.jpg,1.0,80.0,20.0,80.0,20.0,C,D,132.48,0.48,0.0,
120,,rl_choice_confirmation,,html-keyboard-response,120,192858,0.0-1.0-164.0-0.0,0,0,72837,,,,,,23.0,,1.0,,,,,,,,,,,,,,,,,,,,133.5,1.02,,
121,,isi,,html-keyboard-response,121,195874,0.0-1.0-166.0,0,0,72837,,,,,,23.0,,1.0,,,,,,,,,,,,,,,,,,,,136.5,3.0,,
122,,feedback,,html-keyboard-response,122,196887,0.0-1.0-167.0-0.0,0,0,72837,,,,,,23.0,,1.0,,,,,,,,,,,,,,,,,,,,137.5,1.0,,
123,,iti,,html-keyboard-response,123,198402,0.0-1.0-168.0,0,0,72837,,,,,,23.0,,1.0,,,,,,,,,,,,,,,,,,,,139.0,1.5,,
124,,rl_choice,,html-keyboard-response,124,198838,0.0-1.0-170.0,0,0,72837,,429.0,,,75.0,24.0,24.0,1.0,hard,2000.0,1500.0,0.0,40.0,60.0,40.0,60.0,B,A,/static/Simple_RL/Stimuli/Fractals_stims/B.jpg,/static/Simple_RL/Stimuli/Fractals_stims/A.jpg,0.0,60.0,40.0,60.0,40.0,A,B,139.429,0.429,0.0,
125,,rl_choice_confirmation,,html-keyboard-response,125,199919,0.0-1.0-171.0-0.0,0,0,72837,,,,,,24.0,,1.0,,,,,,,,,,,,,,,,,,,,140.5,1.071,,
126,,isi,,html-keyboard-response,126,201428,0.0-1.0-173.0,0,0,72837,,,,,,24.0,,1.0,,,,,,,,,,,,,,,,,,,,142.0,1.5,,
127,,feedback,,html-keyboard-response,127,202438,0.0-1.0-174.0-0.0,0,0,72837,,,,,,24.0,,1.0,,,,,,,,,,,,,,,,,,,,143.0,1.0,,
128,,iti,,html-keyboard-response,128,204442,0.0-1.0-175.0,0,0,72837,,,,,,24.0,,1.0,,,,,,,,,,,,,,,,,,,,145.0,2.0,,
129,,rl_choice,,html-keyboard-response,129,204992,0.0-1.0-177.0,0,0,72837,,546.0,,,68.0,25.0,25.0,1.0,hard,3000.0,1500.0,1.0,60.0,40.0,40.0,40.0,A,B,/static/Simple_RL/Stimuli/Fractals_stims/A.jpg,/static/Simple_RL/Stimuli/Fractals_stims/B.jpg,1.0,60.0,40.0,40.0,40.0,A,B,145.546,0.546,0.0,
130,,rl_choice_confirmation,,html-keyboard-response,130,205953,0.0-1.0-178.0-0.0,0,0,72837,,,,,,25.0,,1.0,,,,,,,,,,,,,,,,,,,,146.5,0.954,,
131,,isi,,html-keyboard-response,131,207472,0.0-1.0-180.0,0,0,72837,,,,,,25.0,,1.0,,,,,,,,,,,,,,,,,,,,148.0,1.5,,
132,,feedback,,html-keyboard-response,132,208483,0.0-1.0-181.0-0.0,0,0,72837,,,,,,25.0,,1.0,,,,,,,,,,,,,,,,,,,,149.0,1.0,,
133,,iti,,html-keyboard-response,133,211500,0.0-1.0-182.0,0,0,72837,,,,,,25.0,,1.0,,,,,,,,,,,,,,,,,,,,152.0,3.0,,
134,,rl_choice,,html-keyboard-response,134,212018,0.0-1.0-184.0,0,0,72837,,513.0,,,75.0,26.0,26.0,1.0,hard,1000.0,2000.0,0.0,40.0,60.0,40.0,80.0,B,A,/static/Simple_RL/Stimuli/Fractals_stims/B.jpg,/static/Simple_RL/Stimuli/Fractals_stims/A.jpg,0.0,60.0,40.0,80.0,40.0,A,B,152.513,0.513,0.0,
135,,rl_choice_confirmation,,html-keyboard-response,135,213015,0.0-1.0-185.0-0.0,0,0,72837,,,,,,26.0,,1.0,,,,,,,,,,,,,,,,,,,,153.5,0.987,,
136,,isi,,html-keyboard-response,136,215019,0.0-1.0-187.0,0,0,72837,,,,,,26.0,,1.0,,,,,,,,,,,,,,,,,,,,155.5,2.0,,
137,,feedback,,html-keyboard-response,137,216031,0.0-1.0-188.0-0.0,0,0,72837,,,,,,26.0,,1.0,,,,,,,,,,,,,,,,,,,,156.5,1.0,,
138,,iti,,html-keyboard-response,138,217042,0.0-1.0-189.0,0,0,72837,,,,,,26.0,,1.0,,,,,,,,,,,,,,,,,,,,157.5,1.0,,
139,,rl_choice,,html-keyboard-response,139,217767,0.0-1.0-191.0,0,0,72837,,722.0,,,68.0,27.0,27.0,1.0,easy,3000.0,1000.0,1.0,80.0,20.0,80.0,40.0,C,D,/static/Simple_RL/Stimuli/Fractals_stims/C.jpg,/static/Simple_RL/Stimuli/Fractals_stims/D.jpg,1.0,80.0,20.0,80.0,40.0,C,D,158.222,0.722,0.0,
140,,rl_choice_confirmation,,html-keyboard-response,140,218550,0.0-1.0-192.0-0.0,0,0,72837,,,,,,27.0,,1.0,,,,,,,,,,,,,,,,,,,,159.0,0.778,,
141,,isi,,html-keyboard-response,141,219558,0.0-1.0-194.0,0,0,72837,,,,,,27.0,,1.0,,,,,,,,,,,,,,,,,,,,160.0,1.0,,
142,,feedback,,html-keyboard-response,142,220578,0.0-1.0-195.0-0.0,0,0,72837,,,,,,27.0,,1.0,,,,,,,,,,,,,,,,,,,,161.0,1.0,,
143,,iti,,html-keyboard-response,143,223585,0.0-1.0-196.0,0,0,72837,,,,,,27.0,,1.0,,,,,,,,,,,,,,,,,,,,164.0,3.0,,
144,,rl_choice,,html-keyboard-response,144,224050,0.0-1.0-198.0,0,0,72837,,459.0,,,68.0,28.0,28.0,1.0,easy,1000.0,3500.0,1.0,80.0,20.0,60.0,20.0,C,D,/static/Simple_RL/Stimuli/Fractals_stims/C.jpg,/static/Simple_RL/Stimuli/Fractals_stims/D.jpg,1.0,80.0,20.0,60.0,20.0,C,D,164.459,0.459,0.0,
145,,rl_choice_confirmation,,html-keyboard-response,145,225111,0.0-1.0-199.0-0.0,0,0,72837,,,,,,28.0,,1.0,,,,,,,,,,,,,,,,,,,,165.5,1.041,,
146,,isi,,html-keyboard-response,146,228631,0.0-1.0-201.0,0,0,72837,,,,,,28.0,,1.0,,,,,,,,,,,,,,,,,,,,169.0,3.5,,
147,,feedback,,html-keyboard-response,147,229651,0.0-1.0-202.0-0.0,0,0,72837,,,,,,28.0,,1.0,,,,,,,,,,,,,,,,,,,,170.0,1.0,,
148,,iti,,html-keyboard-response,148,230664,0.0-1.0-203.0,0,0,72837,,,,,,28.0,,1.0,,,,,,,,,,,,,,,,,,,,171.0,1.0,,
149,,rl_choice,,html-keyboard-response,149,231238,0.0-1.0-205.0,0,0,72837,,571.0,,,75.0,29.0,29.0,1.0,hard,1500.0,1000.0,0.0,40.0,60.0,60.0,40.0,B,A,/static/Simple_RL/Stimuli/Fractals_stims/B.jpg,/static/Simple_RL/Stimuli/Fractals_stims/A.jpg,0.0,60.0,40.0,40.0,60.0,A,B,171.571,0.571,0.0,
150,,rl_choice_confirmation,,html-keyboard-response,150,232192,0.0-1.0-206.0-0.0,0,0,72837,,,,,,29.0,,1.0,,,,,,,,,,,,,,,,,,,,172.5,0.929,,
151,,isi,,html-keyboard-response,151,233208,0.0-1.0-208.0,0,0,72837,,,,,,29.0,,1.0,,,,,,,,,,,,,,,,,,,,173.5,1.0,,
152,,feedback,,html-keyboard-response,152,234221,0.0-1.0-209.0-0.0,0,0,72837,,,,,,29.0,,1.0,,,,,,,,,,,,,,,,,,,,174.5,1.0,,
153,,iti,,html-keyboard-response,153,235726,0.0-1.0-210.0,0,0,72837,,,,,,29.0,,1.0,,,,,,,,,,,,,,,,,,,,176.0,1.5,,
154,,rl_choice,,html-keyboard-response,154,236232,0.0-1.0-212.0,0,0,72837,,502.0,,,68.0,30.0,30.0,1.0,easy,1000.0,1500.0,1.0,80.0,20.0,100.0,20.0,C,D,/static/Simple_RL/Stimuli/Fractals_stims/C.jpg,/static/Simple_RL/Stimuli/Fractals_stims/D.jpg,1.0,80.0,20.0,100.0,20.0,C,D,176.502,0.502,0.0,
155,,rl_choice_confirmation,,html-keyboard-response,155,237240,0.0-1.0-213.0-0.0,0,0,72837,,,,,,30.0,,1.0,,,,,,,,,,,,,,,,,,,,177.5,0.998,,
156,,isi,,html-keyboard-response,156,238752,0.0-1.0-215.0,0,0,72837,,,,,,30.0,,1.0,,,,,,,,,,,,,,,,,,,,179.0,1.5,,
157,,feedback,,html-keyboard-response,157,239771,0.0-1.0-216.0-0.0,0,0,72837,,,,,,30.0,,1.0,,,,,,,,,,,,,,,,,,,,180.0,1.0,,
158,,iti,,html-keyboard-response,158,240788,0.0-1.0-217.0,0,0,72837,,,,,,30.0,,1.0,,,,,,,,,,,,,,,,,,,,181.0,1.0,,
159,,rl_choice,,html-keyboard-response,159,241267,0.0-1.0-219.0,0,0,72837,,474.0,,,75.0,31.0,31.0,1.0,easy,2000.0,1500.0,0.0,20.0,80.0,40.0,100.0,D,C,/static/Simple_RL/Stimuli/Fractals_stims/D.jpg,/static/Simple_RL/Stimuli/Fractals_stims/C.jpg,0.0,80.0,20.0,100.0,40.0,C,D,181.474,0.474,0.0,
160,,rl_choice_confirmation,,html-keyboard-response,160,242309,0.0-1.0-220.0-0.0,0,0,72837,,,,,,31.0,,1.0,,,,,,,,,,,,,,,,,,,,182.5,1.026,,
161,,isi,,html-keyboard-response,161,243827,0.0-1.0-222.0,0,0,72837,,,,,,31.0,,1.0,,,,,,,,,,,,,,,,,,,,184.0,1.5,,
162,,feedback,,html-keyboard-response,162,244839,0.0-1.0-223.0-0.0,0,0,72837,,,,,,31.0,,1.0,,,,,,,,,,,,,,,,,,,,185.0,1.0,,
163,,iti,,html-keyboard-response,163,246854,0.0-1.0-224.0,0,0,72837,,,,,,31.0,,1.0,,,,,,,,,,,,,,,,,,,,187.0,2.0,,
164,,rl_choice,,html-keyboard-response,164,247393,0.0-1.0-226.0,0,0,72837,,535.0,,,75.0,32.0,32.0,1.0,hard,1500.0,1000.0,0.0,40.0,60.0,40.0,80.0,B,A,/static/Simple_RL/Stimuli/Fractals_stims/B.jpg,/static/Simple_RL/Stimuli/Fractals_stims/A.jpg,0.0,60.0,40.0,80.0,40.0,A,B,187.535,0.535,0.0,
165,,rl_choice_confirmation,,html-keyboard-response,165,248367,0.0-1.0-227.0-0.0,0,0,72837,,,,,,32.0,,1.0,,,,,,,,,,,,,,,,,,,,188.5,0.965,,
166,,isi,,html-keyboard-response,166,249392,0.0-1.0-229.0,0,0,72837,,,,,,32.0,,1.0,,,,,,,,,,,,,,,,,,,,189.5,1.0,,
167,,feedback,,html-keyboard-response,167,250399,0.0-1.0-230.0-0.0,0,0,72837,,,,,,32.0,,1.0,,,,,,,,,,,,,,,,,,,,190.5,1.0,,
168,,iti,,html-keyboard-response,168,251921,0.0-1.0-231.0,0,0,72837,,,,,,32.0,,1.0,,,,,,,,,,,,,,,,,,,,192.0,1.5,,
169,,rl_choice,,html-keyboard-response,169,252584,0.0-1.0-233.0,0,0,72837,,657.0,,,75.0,33.0,33.0,1.0,easy,1000.0,1000.0,0.0,20.0,80.0,40.0,100.0,D,C,/static/Simple_RL/Stimuli/Fractals_stims/D.jpg,/static/Simple_RL/Stimuli/Fractals_stims/C.jpg,0.0,80.0,20.0,100.0,40.0,C,D,192.657,0.657,0.0,
170,,rl_choice_confirmation,,html-keyboard-response,170,253452,0.0-1.0-234.0-0.0,0,0,72837,,,,,,33.0,,1.0,,,,,,,,,,,,,,,,,,,,193.5,0.843,,
171,,isi,,html-keyboard-response,171,254464,0.0-1.0-236.0,0,0,72837,,,,,,33.0,,1.0,,,,,,,,,,,,,,,,,,,,194.5,1.0,,
172,,feedback,,html-keyboard-response,172,255469,0.0-1.0-237.0-0.0,0,0,72837,,,,,,33.0,,1.0,,,,,,,,,,,,,,,,,,,,195.5,1.0,,
173,,iti,,html-keyboard-response,173,256479,0.0-1.0-238.0,0,0,72837,,,,,,33.0,,1.0,,,,,,,,,,,,,,,,,,,,196.5,1.0,,
174,,rl_choice,,html-keyboard-response,174,257072,0.0-1.0-240.0,0,0,72837,,587.0,,,68.0,34.0,34.0,1.0,easy,3500.0,3000.0,1.0,80.0,20.0,80.0,40.0,C,D,/static/Simple_RL/Stimuli/Fractals_stims/C.jpg,/static/Simple_RL/Stimuli/Fractals_stims/D.jpg,1.0,80.0,20.0,80.0,40.0,C,D,197.087,0.587,0.0,
175,,rl_choice_confirmation,,html-keyboard-response,175,258000,0.0-1.0-241.0-0.0,0,0,72837,,,,,,34.0,,1.0,,,,,,,,,,,,,,,,,,,,198.0,0.913,,
176,,isi,,html-keyboard-response,176,261004,0.0-1.0-243.0,0,0,72837,,,,,,34.0,,1.0,,,,,,,,,,,,,,,,,,,,201.0,3.0,,
177,,feedback,,html-keyboard-response,177,262013,0.0-1.0-244.0-0.0,0,0,72837,,,,,,34.0,,1.0,,,,,,,,,,,,,,,,,,,,202.0,1.0,,
178,,iti,,html-keyboard-response,178,265518,0.0-1.0-245.0,0,0,72837,,,,,,34.0,,1.0,,,,,,,,,,,,,,,,,,,,205.5,3.5,,
179,,rl_choice,,html-keyboard-response,179,266020,0.0-1.0-247.0,0,0,72837,,497.0,,,68.0,35.0,35.0,1.0,easy,1500.0,2000.0,1.0,80.0,20.0,60.0,40.0,C,D,/static/Simple_RL/Stimuli/Fractals_stims/C.jpg,/static/Simple_RL/Stimuli/Fractals_stims/D.jpg,1.0,80.0,20.0,60.0,40.0,C,D,205.997,0.497,0.0,
180,,rl_choice_confirmation,,html-keyboard-response,180,267037,0.0-1.0-248.0-0.0,0,0,72837,,,,,,35.0,,1.0,,,,,,,,,,,,,,,,,,,,207.0,1.003,,
181,,isi,,html-keyboard-response,181,269051,0.0-1.0-250.0,0,0,72837,,,,,,35.0,,1.0,,,,,,,,,,,,,,,,,,,,209.0,2.0,,
182,,feedback,,html-keyboard-response,182,270069,0.0-1.0-251.0-0.0,0,0,72837,,,,,,35.0,,1.0,,,,,,,,,,,,,,,,,,,,210.0,1.0,,
183,,iti,,html-keyboard-response,183,271583,0.0-1.0-252.0,0,0,72837,,,,,,35.0,,1.0,,,,,,,,,,,,,,,,,,,,211.5,1.5,,
184,,rl_choice,,html-keyboard-response,184,272120,0.0-1.0-254.0,0,0,72837,,535.0,,,75.0,36.0,36.0,1.0,easy,1500.0,1500.0,0.0,20.0,80.0,20.0,100.0,D,C,/static/Simple_RL/Stimuli/Fractals_stims/D.jpg,/static/Simple_RL/Stimuli/Fractals_stims/C.jpg,0.0,80.0,20.0,100.0,20.0,C,D,212.035,0.535,0.0,
185,,rl_choice_confirmation,,html-keyboard-response,185,273099,0.0-1.0-255.0-0.0,0,0,72837,,,,,,36.0,,1.0,,,,,,,,,,,,,,,,,,,,213.0,0.965,,
186,,isi,,html-keyboard-response,186,274604,0.0-1.0-257.0,0,0,72837,,,,,,36.0,,1.0,,,,,,,,,,,,,,,,,,,,214.5,1.5,,
187,,feedback,,html-keyboard-response,187,275626,0.0-1.0-258.0-0.0,0,0,72837,,,,,,36.0,,1.0,,,,,,,,,,,,,,,,,,,,215.5,1.0,,
188,,iti,,html-keyboard-response,188,277129,0.0-1.0-259.0,0,0,72837,,,,,,36.0,,1.0,,,,,,,,,,,,,,,,,,,,217.0,1.5,,
189,,rl_choice,,html-keyboard-response,189,277726,0.0-1.0-261.0,0,0,72837,,593.0,,,68.0,37.0,37.0,1.0,hard,2000.0,1000.0,1.0,60.0,40.0,60.0,40.0,A,B,/static/Simple_RL/Stimuli/Fractals_stims/A.jpg,/static/Simple_RL/Stimuli/Fractals_stims/B.jpg,1.0,60.0,40.0,60.0,40.0,A,B,217.593,0.593,0.0,
190,,rl_choice_confirmation,,html-keyboard-response,190,278645,0.0-1.0-262.0-0.0,0,0,72837,,,,,,37.0,,1.0,,,,,,,,,,,,,,,,,,,,218.5,0.907,,
191,,isi,,html-keyboard-response,191,279648,0.0-1.0-264.0,0,0,72837,,,,,,37.0,,1.0,,,,,,,,,,,,,,,,,,,,219.5,1.0,,
192,,feedback,,html-keyboard-response,192,280657,0.0-1.0-265.0-0.0,0,0,72837,,,,,,37.0,,1.0,,,,,,,,,,,,,,,,,,,,220.5,1.0,,
193,,iti,,html-keyboard-response,193,282675,0.0-1.0-266.0,0,0,72837,,,,,,37.0,,1.0,,,,,,,,,,,,,,,,,,,,222.5,2.0,,
194,,rl_choice,,html-keyboard-response,194,283224,0.0-1.0-268.0,0,0,72837,,546.0,,,75.0,38.0,38.0,1.0,hard,1000.0,1500.0,0.0,40.0,60.0,20.0,40.0,B,A,/static/Simple_RL/Stimuli/Fractals_stims/B.jpg,/static/Simple_RL/Stimuli/Fractals_stims/A.jpg,0.0,60.0,40.0,40.0,20.0,A,B,223.046,0.546,0.0,
195,,rl_choice_confirmation,,html-keyboard-response,195,284202,0.0-1.0-269.0-0.0,0,0,72837,,,,,,38.0,,1.0,,,,,,,,,,,,,,,,,,,,224.0,0.954,,
196,,isi,,html-keyboard-response,196,285723,0.0-1.0-271.0,0,0,72837,,,,,,38.0,,1.0,,,,,,,,,,,,,,,,,,,,225.5,1.5,,
197,,feedback,,html-keyboard-response,197,286746,0.0-1.0-272.0-0.0,0,0,72837,,,,,,38.0,,1.0,,,,,,,,,,,,,,,,,,,,226.5,1.0,,
198,,iti,,html-keyboard-response,198,287756,0.0-1.0-273.0,0,0,72837,,,,,,38.0,,1.0,,,,,,,,,,,,,,,,,,,,227.5,1.0,,
199,,rl_choice,,html-keyboard-response,199,288377,0.0-1.0-275.0,0,0,72837,,616.0,,,75.0,39.0,39.0,1.0,easy,1000.0,1000.0,0.0,20.0,80.0,0.0,60.0,D,C,/static/Simple_RL/Stimuli/Fractals_stims/D.jpg,/static/Simple_RL/Stimuli/Fractals_stims/C.jpg,0.0,80.0,20.0,60.0,0.0,C,D,228.116,0.616,0.0,
200,,rl_choice_confirmation,,html-keyboard-response,200,289280,0.0-1.0-276.0-0.0,0,0,72837,,,,,,39.0,,1.0,,,,,,,,,,,,,,,,,,,,229.0,0.884,,
201,,isi,,html-keyboard-response,201,290290,0.0-1.0-278.0,0,0,72837,,,,,,39.0,,1.0,,,,,,,,,,,,,,,,,,,,230.0,1.0,,
202,,feedback,,html-keyboard-response,202,291310,0.0-1.0-279.0-0.0,0,0,72837,,,,,,39.0,,1.0,,,,,,,,,,,,,,,,,,,,231.0,1.0,,
203,,iti,,html-keyboard-response,203,292328,0.0-1.0-280.0,0,0,72837,,,,,,39.0,,1.0,,,,,,,,,,,,,,,,,,,,232.0,1.0,,
204,,block_over,,html-keyboard-response,204,294974,0.0-1.0-281.0-0.0,0,0,72837,,2641.0,,,68.0,39.0,,,,,,,,,,,,,,,,,,,,,,,,,
205,,start_run,,html-keyboard-response,205,295984,0.0-1.0-281.0-1.0,0,0,72837,,1004.0,,,84.0,,,,,,,,,,,,,,,,,,,,,,,,,,
206,,rl_choice,,html-keyboard-response,206,296561,0.0-1.0-282.0,0,0,72837,,570.0,,,68.0,40.0,40.0,2.0,easy,1500.0,2000.0,1.0,80.0,20.0,60.0,20.0,C,D,/static/Simple_RL/Stimuli/Fractals_stims/C.jpg,/static/Simple_RL/Stimuli/Fractals_stims/D.jpg,1.0,80.0,20.0,60.0,20.0,C,D,0.57,0.57,0.0,
207,,rl_choice_confirmation,,html-keyboard-response,207,297496,0.0-1.0-283.0-0.0,0,0,72837,,,,,,40.0,,2.0,,,,,,,,,,,,,,,,,,,,1.5,0.93,,
208,,isi,,html-keyboard-response,208,299501,0.0-1.0-285.0,0,0,72837,,,,,,40.0,,2.0,,,,,,,,,,,,,,,,,,,,3.5,2.0,,
209,,feedback,,html-keyboard-response,209,300515,0.0-1.0-286.0-0.0,0,0,72837,,,,,,40.0,,2.0,,,,,,,,,,,,,,,,,,,,4.5,1.0,,
210,,iti,,html-keyboard-response,210,302032,0.0-1.0-287.0,0,0,72837,,,,,,40.0,,2.0,,,,,,,,,,,,,,,,,,,,6.0,1.5,,
211,,rl_choice,,html-keyboard-response,211,302831,0.0-1.0-289.0,0,0,72837,,795.0,,,75.0,41.0,41.0,2.0,hard,1000.0,2000.0,0.0,40.0,60.0,60.0,60.0,B,A,/static/Simple_RL/Stimuli/Fractals_stims/B.jpg,/static/Simple_RL/Stimuli/Fractals_stims/A.jpg,0.0,60.0,40.0,60.0,60.0,A,B,6.795,0.795,0.0,
212,,rl_choice_confirmation,,html-keyboard-response,212,303549,0.0-1.0-290.0-0.0,0,0,72837,,,,,,41.0,,2.0,,,,,,,,,,,,,,,,,,,,7.5,0.705,,
213,,isi,,html-keyboard-response,213,305557,0.0-1.0-292.0,0,0,72837,,,,,,41.0,,2.0,,,,,,,,,,,,,,,,,,,,9.5,2.0,,
214,,feedback,,html-keyboard-response,214,306575,0.0-1.0-293.0-0.0,0,0,72837,,,,,,41.0,,2.0,,,,,,,,,,,,,,,,,,,,10.5,1.0,,
215,,iti,,html-keyboard-response,215,307594,0.0-1.0-294.0,0,0,72837,,,,,,41.0,,2.0,,,,,,,,,,,,,,,,,,,,11.5,1.0,,
216,,rl_choice,,html-keyboard-response,216,308108,0.0-1.0-296.0,0,0,72837,,511.0,,,75.0,42.0,42.0,2.0,hard,1500.0,1000.0,0.0,40.0,60.0,20.0,80.0,B,A,/static/Simple_RL/Stimuli/Fractals_stims/B.jpg,/static/Simple_RL/Stimuli/Fractals_stims/A.jpg,0.0,60.0,40.0,80.0,20.0,A,B,12.011,0.511,0.0,
217,,rl_choice_confirmation,,html-keyboard-response,217,309118,0.0-1.0-297.0-0.0,0,0,72837,,,,,,42.0,,2.0,,,,,,,,,,,,,,,,,,,,13.0,0.989,,
218,,isi,,html-keyboard-response,218,310135,0.0-1.0-299.0,0,0,72837,,,,,,42.0,,2.0,,,,,,,,,,,,,,,,,,,,14.0,1.0,,
219,,feedback,,html-keyboard-response,219,311147,0.0-1.0-300.0-0.0,0,0,72837,,,,,,42.0,,2.0,,,,,,,,,,,,,,,,,,,,15.0,1.0,,
220,,iti,,html-keyboard-response,220,312653,0.0-1.0-301.0,0,0,72837,,,,,,42.0,,2.0,,,,,,,,,,,,,,,,,,,,16.5,1.5,,
221,,rl_choice,,html-keyboard-response,221,313120,0.0-1.0-303.0,0,0,72837,,463.0,,,75.0,43.0,43.0,2.0,hard,1000.0,2000.0,0.0,40.0,60.0,20.0,80.0,B,A,/static/Simple_RL/Stimuli/Fractals_stims/B.jpg,/static/Simple_RL/Stimuli/Fractals_stims/A.jpg,0.0,60.0,40.0,80.0,20.0,A,B,16.963,0.463,0.0,
222,,rl_choice_confirmation,,html-keyboard-response,222,314176,0.0-1.0-304.0-0.0,0,0,72837,,,,,,43.0,,2.0,,,,,,,,,,,,,,,,,,,,18.0,1.037,,
223,,isi,,html-keyboard-response,223,316189,0.0-1.0-306.0,0,0,72837,,,,,,43.0,,2.0,,,,,,,,,,,,,,,,,,,,20.0,2.0,,
224,,feedback,,html-keyboard-response,224,317200,0.0-1.0-307.0-0.0,0,0,72837,,,,,,43.0,,2.0,,,,,,,,,,,,,,,,,,,,21.0,1.0,,
225,,iti,,html-keyboard-response,225,318205,0.0-1.0-308.0,0,0,72837,,,,,,43.0,,2.0,,,,,,,,,,,,,,,,,,,,22.0,1.0,,
226,,rl_choice,,html-keyboard-response,226,318716,0.0-1.0-310.0,0,0,72837,,508.0,,,75.0,44.0,44.0,2.0,hard,1000.0,1000.0,0.0,40.0,60.0,40.0,40.0,B,A,/static/Simple_RL/Stimuli/Fractals_stims/B.jpg,/static/Simple_RL/Stimuli/Fractals_stims/A.jpg,0.0,60.0,40.0,40.0,40.0,A,B,22.508,0.508,0.0,
227,,rl_choice_confirmation,,html-keyboard-response,227,319718,0.0-1.0-311.0-0.0,0,0,72837,,,,,,44.0,,2.0,,,,,,,,,,,,,,,,,,,,23.5,0.992,,
228,,isi,,html-keyboard-response,228,320727,0.0-1.0-313.0,0,0,72837,,,,,,44.0,,2.0,,,,,,,,,,,,,,,,,,,,24.5,1.0,,
229,,feedback,,html-keyboard-response,229,321754,0.0-1.0-314.0-0.0,0,0,72837,,,,,,44.0,,2.0,,,,,,,,,,,,,,,,,,,,25.5,1.0,,
230,,iti,,html-keyboard-response,230,322767,0.0-1.0-315.0,0,0,72837,,,,,,44.0,,2.0,,,,,,,,,,,,,,,,,,,,26.5,1.0,,
231,,rl_choice,,html-keyboard-response,231,323505,0.0-1.0-317.0,0,0,72837,,726.0,,,75.0,45.0,45.0,2.0,hard,2000.0,1500.0,0.0,40.0,60.0,20.0,40.0,B,A,/static/Simple_RL/Stimuli/Fractals_stims/B.jpg,/static/Simple_RL/Stimuli/Fractals_stims/A.jpg,0.0,60.0,40.0,40.0,20.0,A,B,27.226,0.726,0.0,
232,,rl_choice_confirmation,,html-keyboard-response,232,324288,0.0-1.0-318.0-0.0,0,0,72837,,,,,,45.0,,2.0,,,,,,,,,,,,,,,,,,,,28.0,0.774,,
233,,isi,,html-keyboard-response,233,325802,0.0-1.0-320.0,0,0,72837,,,,,,45.0,,2.0,,,,,,,,,,,,,,,,,,,,29.5,1.5,,
234,,feedback,,html-keyboard-response,234,326818,0.0-1.0-321.0-0.0,0,0,72837,,,,,,45.0,,2.0,,,,,,,,,,,,,,,,,,,,30.5,1.0,,
235,,iti,,html-keyboard-response,235,328825,0.0-1.0-322.0,0,0,72837,,,,,,45.0,,2.0,,,,,,,,,,,,,,,,,,,,32.5,2.0,,
236,,rl_choice,,html-keyboard-response,236,329575,0.0-1.0-324.0,0,0,72837,,747.0,,,75.0,46.0,46.0,2.0,easy,1500.0,3000.0,0.0,20.0,80.0,0.0,80.0,D,C,/static/Simple_RL/Stimuli/Fractals_stims/D.jpg,/static/Simple_RL/Stimuli/Fractals_stims/C.jpg,0.0,80.0,20.0,80.0,0.0,C,D,33.247,0.747,0.0,
237,,rl_choice_confirmation,,html-keyboard-response,237,330335,0.0-1.0-325.0-0.0,0,0,72837,,,,,,46.0,,2.0,,,,,,,,,,,,,,,,,,,,34.0,0.753,,
238,,isi,,html-keyboard-response,238,333354,0.0-1.0-327.0,0,0,72837,,,,,,46.0,,2.0,,,,,,,,,,,,,,,,,,,,37.0,3.0,,
239,,feedback,,html-keyboard-response,239,334374,0.0-1.0-328.0-0.0,0,0,72837,,,,,,46.0,,2.0,,,,,,,,,,,,,,,,,,,,38.0,1.0,,
240,,iti,,html-keyboard-response,240,335889,0.0-1.0-329.0,0,0,72837,,,,,,46.0,,2.0,,,,,,,,,,,,,,,,,,,,39.5,1.5,,
241,,rl_choice,,html-keyboard-response,241,336505,0.0-1.0-331.0,0,0,72837,,613.0,,,75.0,47.0,47.0,2.0,easy,1500.0,1000.0,0.0,20.0,80.0,20.0,80.0,D,C,/static/Simple_RL/Stimuli/Fractals_stims/D.jpg,/static/Simple_RL/Stimuli/Fractals_stims/C.jpg,0.0,80.0,20.0,80.0,20.0,C,D,40.113,0.613,0.0,
242,,rl_choice_confirmation,,html-keyboard-response,242,337411,0.0-1.0-332.0-0.0,0,0,72837,,,,,,47.0,,2.0,,,,,,,,,,,,,,,,,,,,41.0,0.887,,
243,,isi,,html-keyboard-response,243,338428,0.0-1.0-334.0,0,0,72837,,,,,,47.0,,2.0,,,,,,,,,,,,,,,,,,,,42.0,1.0,,
244,,feedback,,html-keyboard-response,244,339437,0.0-1.0-335.0-0.0,0,0,72837,,,,,,47.0,,2.0,,,,,,,,,,,,,,,,,,,,43.0,1.0,,
245,,iti,,html-keyboard-response,245,340945,0.0-1.0-336.0,0,0,72837,,,,,,47.0,,2.0,,,,,,,,,,,,,,,,,,,,44.5,1.5,,
246,,rl_choice,,html-keyboard-response,246,341451,0.0-1.0-338.0,0,0,72837,,499.0,,,68.0,48.0,48.0,2.0,easy,2000.0,1000.0,1.0,80.0,20.0,80.0,20.0,C,D,/static/Simple_RL/Stimuli/Fractals_stims/C.jpg,/static/Simple_RL/Stimuli/Fractals_stims/D.jpg,1.0,80.0,20.0,80.0,20.0,C,D,44.999,0.499,0.0,
247,,rl_choice_confirmation,,html-keyboard-response,247,342459,0.0-1.0-339.0-0.0,0,0,72837,,,,,,48.0,,2.0,,,,,,,,,,,,,,,,,,,,46.0,1.001,,
248,,isi,,html-keyboard-response,248,343473,0.0-1.0-341.0,0,0,72837,,,,,,48.0,,2.0,,,,,,,,,,,,,,,,,,,,47.0,1.0,,
249,,feedback,,html-keyboard-response,249,344494,0.0-1.0-342.0-0.0,0,0,72837,,,,,,48.0,,2.0,,,,,,,,,,,,,,,,,,,,48.0,1.0,,
250,,iti,,html-keyboard-response,250,346517,0.0-1.0-343.0,0,0,72837,,,,,,48.0,,2.0,,,,,,,,,,,,,,,,,,,,50.0,2.0,,
251,,rl_choice,,html-keyboard-response,251,347030,0.0-1.0-345.0,0,0,72837,,508.0,,,75.0,49.0,49.0,2.0,hard,1500.0,2000.0,0.0,40.0,60.0,60.0,60.0,B,A,/static/Simple_RL/Stimuli/Fractals_stims/B.jpg,/static/Simple_RL/Stimuli/Fractals_stims/A.jpg,0.0,60.0,40.0,60.0,60.0,A,B,50.508,0.508,0.0,
252,,rl_choice_confirmation,,html-keyboard-response,252,348032,0.0-1.0-346.0-0.0,0,0,72837,,,,,,49.0,,2.0,,,,,,,,,,,,,,,,,,,,51.5,0.992,,
253,,isi,,html-keyboard-response,253,350049,0.0-1.0-348.0,0,0,72837,,,,,,49.0,,2.0,,,,,,,,,,,,,,,,,,,,53.5,2.0,,
254,,feedback,,html-keyboard-response,254,351056,0.0-1.0-349.0-0.0,0,0,72837,,,,,,49.0,,2.0,,,,,,,,,,,,,,,,,,,,54.5,1.0,,
255,,iti,,html-keyboard-response,255,352573,0.0-1.0-350.0,0,0,72837,,,,,,49.0,,2.0,,,,,,,,,,,,,,,,,,,,56.0,1.5,,
256,,rl_choice,,html-keyboard-response,256,353012,0.0-1.0-352.0,0,0,72837,,436.0,,,75.0,50.0,50.0,2.0,easy,1000.0,3500.0,0.0,20.0,80.0,0.0,100.0,D,C,/static/Simple_RL/Stimuli/Fractals_stims/D.jpg,/static/Simple_RL/Stimuli/Fractals_stims/C.jpg,0.0,80.0,20.0,100.0,0.0,C,D,56.436,0.436,0.0,
257,,rl_choice_confirmation,,html-keyboard-response,257,354099,0.0-1.0-353.0-0.0,0,0,72837,,,,,,50.0,,2.0,,,,,,,,,,,,,,,,,,,,57.5,1.064,,
258,,isi,,html-keyboard-response,258,357611,0.0-1.0-355.0,0,0,72837,,,,,,50.0,,2.0,,,,,,,,,,,,,,,,,,,,61.0,3.5,,
259,,feedback,,html-keyboard-response,259,358624,0.0-1.0-356.0-0.0,0,0,72837,,,,,,50.0,,2.0,,,,,,,,,,,,,,,,,,,,62.0,1.0,,
260,,iti,,html-keyboard-response,260,359632,0.0-1.0-357.0,0,0,72837,,,,,,50.0,,2.0,,,,,,,,,,,,,,,,,,,,63.0,1.0,,
261,,rl_choice,,html-keyboard-response,261,360117,0.0-1.0-359.0,0,0,72837,,483.0,,,68.0,51.0,51.0,2.0,easy,1500.0,1000.0,1.0,80.0,20.0,60.0,20.0,C,D,/static/Simple_RL/Stimuli/Fractals_stims/C.jpg,/static/Simple_RL/Stimuli/Fractals_stims/D.jpg,1.0,80.0,20.0,60.0,20.0,C,D,63.483,0.483,0.0,
262,,rl_choice_confirmation,,html-keyboard-response,262,361151,0.0-1.0-360.0-0.0,0,0,72837,,,,,,51.0,,2.0,,,,,,,,,,,,,,,,,,,,64.5,1.017,,
263,,isi,,html-keyboard-response,263,362165,0.0-1.0-362.0,0,0,72837,,,,,,51.0,,2.0,,,,,,,,,,,,,,,,,,,,65.5,1.0,,
264,,feedback,,html-keyboard-response,264,363178,0.0-1.0-363.0-0.0,0,0,72837,,,,,,51.0,,2.0,,,,,,,,,,,,,,,,,,,,66.5,1.0,,
265,,iti,,html-keyboard-response,265,364695,0.0-1.0-364.0,0,0,72837,,,,,,51.0,,2.0,,,,,,,,,,,,,,,,,,,,68.0,1.5,,
266,,rl_choice,,html-keyboard-response,266,365209,0.0-1.0-366.0,0,0,72837,,508.0,,,75.0,52.0,52.0,2.0,hard,2000.0,1500.0,0.0,40.0,60.0,20.0,80.0,B,A,/static/Simple_RL/Stimuli/Fractals_stims/B.jpg,/static/Simple_RL/Stimuli/Fractals_stims/A.jpg,0.0,60.0,40.0,80.0,20.0,A,B,68.508,0.508,0.0,
267,,rl_choice_confirmation,,html-keyboard-response,267,366213,0.0-1.0-367.0-0.0,0,0,72837,,,,,,52.0,,2.0,,,,,,,,,,,,,,,,,,,,69.5,0.992,,
268,,isi,,html-keyboard-response,268,367728,0.0-1.0-369.0,0,0,72837,,,,,,52.0,,2.0,,,,,,,,,,,,,,,,,,,,71.0,1.5,,
269,,feedback,,html-keyboard-response,269,368737,0.0-1.0-370.0-0.0,0,0,72837,,,,,,52.0,,2.0,,,,,,,,,,,,,,,,,,,,72.0,1.0,,
270,,iti,,html-keyboard-response,270,370749,0.0-1.0-371.0,0,0,72837,,,,,,52.0,,2.0,,,,,,,,,,,,,,,,,,,,74.0,2.0,,
271,,rl_choice,,html-keyboard-response,271,371224,0.0-1.0-373.0,0,0,72837,,470.0,,,75.0,53.0,53.0,2.0,hard,3000.0,1500.0,0.0,40.0,60.0,20.0,40.0,B,A,/static/Simple_RL/Stimuli/Fractals_stims/B.jpg,/static/Simple_RL/Stimuli/Fractals_stims/A.jpg,0.0,60.0,40.0,40.0,20.0,A,B,74.47,0.47,0.0,
272,,rl_choice_confirmation,,html-keyboard-response,272,372272,0.0-1.0-374.0-0.0,0,0,72837,,,,,,53.0,,2.0,,,,,,,,,,,,,,,,,,,,75.5,1.03,,
273,,isi,,html-keyboard-response,273,373787,0.0-1.0-376.0,0,0,72837,,,,,,53.0,,2.0,,,,,,,,,,,,,,,,,,,,77.0,1.5,,
274,,feedback,,html-keyboard-response,274,374806,0.0-1.0-377.0-0.0,0,0,72837,,,,,,53.0,,2.0,,,,,,,,,,,,,,,,,,,,78.0,1.0,,
275,,iti,,html-keyboard-response,275,377813,0.0-1.0-378.0,0,0,72837,,,,,,53.0,,2.0,,,,,,,,,,,,,,,,,,,,81.0,3.0,,
276,,rl_choice,,html-keyboard-response,276,378241,0.0-1.0-380.0,0,0,72837,,423.0,,,75.0,54.0,54.0,2.0,easy,3000.0,1500.0,0.0,20.0,80.0,20.0,100.0,D,C,/static/Simple_RL/Stimuli/Fractals_stims/D.jpg,/static/Simple_RL/Stimuli/Fractals_stims/C.jpg,0.0,80.0,20.0,100.0,20.0,C,D,81.423,0.423,0.0,
277,,rl_choice_confirmation,,html-keyboard-response,277,379328,0.0-1.0-381.0-0.0,0,0,72837,,,,,,54.0,,2.0,,,,,,,,,,,,,,,,,,,,82.5,1.077,,
278,,isi,,html-keyboard-response,278,380832,0.0-1.0-383.0,0,0,72837,,,,,,54.0,,2.0,,,,,,,,,,,,,,,,,,,,84.0,1.5,,
279,,feedback,,html-keyboard-response,279,381851,0.0-1.0-384.0-0.0,0,0,72837,,,,,,54.0,,2.0,,,,,,,,,,,,,,,,,,,,85.0,1.0,,
280,,iti,,html-keyboard-response,280,384865,0.0-1.0-385.0,0,0,72837,,,,,,54.0,,2.0,,,,,,,,,,,,,,,,,,,,88.0,3.0,,
281,,rl_choice,,html-keyboard-response,281,385417,0.0-1.0-387.0,0,0,72837,,547.0,,,68.0,55.0,55.0,2.0,easy,1500.0,1500.0,1.0,80.0,20.0,80.0,20.0,C,D,/static/Simple_RL/Stimuli/Fractals_stims/C.jpg,/static/Simple_RL/Stimuli/Fractals_stims/D.jpg,1.0,80.0,20.0,80.0,20.0,C,D,88.547,0.547,0.0,
282,,rl_choice_confirmation,,html-keyboard-response,282,386382,0.0-1.0-388.0-0.0,0,0,72837,,,,,,55.0,,2.0,,,,,,,,,,,,,,,,,,,,89.5,0.953,,
283,,isi,,html-keyboard-response,283,387893,0.0-1.0-390.0,0,0,72837,,,,,,55.0,,2.0,,,,,,,,,,,,,,,,,,,,91.0,1.5,,
284,,feedback,,html-keyboard-response,284,388914,0.0-1.0-391.0-0.0,0,0,72837,,,,,,55.0,,2.0,,,,,,,,,,,,,,,,,,,,92.0,1.0,,
285,,iti,,html-keyboard-response,285,390423,0.0-1.0-392.0,0,0,72837,,,,,,55.0,,2.0,,,,,,,,,,,,,,,,,,,,93.5,1.5,,
286,,rl_choice,,html-keyboard-response,286,390904,0.0-1.0-394.0,0,0,72837,,477.0,,,75.0,56.0,56.0,2.0,easy,2000.0,2000.0,0.0,20.0,80.0,40.0,80.0,D,C,/static/Simple_RL/Stimuli/Fractals_stims/D.jpg,/static/Simple_RL/Stimuli/Fractals_stims/C.jpg,0.0,80.0,20.0,80.0,40.0,C,D,93.977,0.477,0.0,
287,,rl_choice_confirmation,,html-keyboard-response,287,391941,0.0-1.0-395.0-0.0,0,0,72837,,,,,,56.0,,2.0,,,,,,,,,,,,,,,,,,,,95.0,1.023,,
288,,isi,,html-keyboard-response,288,393946,0.0-1.0-397.0,0,0,72837,,,,,,56.0,,2.0,,,,,,,,,,,,,,,,,,,,97.0,2.0,,
289,,feedback,,html-keyboard-response,289,394969,0.0-1.0-398.0-0.0,0,0,72837,,,,,,56.0,,2.0,,,,,,,,,,,,,,,,,,,,98.0,1.0,,
290,,iti,,html-keyboard-response,290,396972,0.0-1.0-399.0,0,0,72837,,,,,,56.0,,2.0,,,,,,,,,,,,,,,,,,,,100.0,2.0,,
291,,rl_choice,,html-keyboard-response,291,397432,0.0-1.0-401.0,0,0,72837,,456.0,,,75.0,57.0,57.0,2.0,easy,1000.0,1000.0,0.0,20.0,80.0,20.0,80.0,D,C,/static/Simple_RL/Stimuli/Fractals_stims/D.jpg,/static/Simple_RL/Stimuli/Fractals_stims/C.jpg,0.0,80.0,20.0,80.0,20.0,C,D,100.456,0.456,0.0,
292,,rl_choice_confirmation,,html-keyboard-response,292,398498,0.0-1.0-402.0-0.0,0,0,72837,,,,,,57.0,,2.0,,,,,,,,,,,,,,,,,,,,101.5,1.044,,
293,,isi,,html-keyboard-response,293,399507,0.0-1.0-404.0,0,0,72837,,,,,,57.0,,2.0,,,,,,,,,,,,,,,,,,,,102.5,1.0,,
294,,feedback,,html-keyboard-response,294,400515,0.0-1.0-405.0-0.0,0,0,72837,,,,,,57.0,,2.0,,,,,,,,,,,,,,,,,,,,103.5,1.0,,
295,,iti,,html-keyboard-response,295,401523,0.0-1.0-406.0,0,0,72837,,,,,,57.0,,2.0,,,,,,,,,,,,,,,,,,,,104.5,1.0,,
296,,rl_choice,,html-keyboard-response,296,402058,0.0-1.0-408.0,0,0,72837,,529.0,,,75.0,58.0,58.0,2.0,easy,1000.0,1000.0,0.0,20.0,80.0,20.0,60.0,D,C,/static/Simple_RL/Stimuli/Fractals_stims/D.jpg,/static/Simple_RL/Stimuli/Fractals_stims/C.jpg,0.0,80.0,20.0,60.0,20.0,C,D,105.029,0.529,0.0,
297,,rl_choice_confirmation,,html-keyboard-response,297,403033,0.0-1.0-409.0-0.0,0,0,72837,,,,,,58.0,,2.0,,,,,,,,,,,,,,,,,,,,106.0,0.971,,
298,,isi,,html-keyboard-response,298,404053,0.0-1.0-411.0,0,0,72837,,,,,,58.0,,2.0,,,,,,,,,,,,,,,,,,,,107.0,1.0,,
299,,feedback,,html-keyboard-response,299,405069,0.0-1.0-412.0-0.0,0,0,72837,,,,,,58.0,,2.0,,,,,,,,,,,,,,,,,,,,108.0,1.0,,
300,,iti,,html-keyboard-response,300,406083,0.0-1.0-413.0,0,0,72837,,,,,,58.0,,2.0,,,,,,,,,,,,,,,,,,,,109.0,1.0,,
301,,rl_choice,,html-keyboard-response,301,406897,0.0-1.0-415.0,0,0,72837,,809.0,,,68.0,59.0,59.0,2.0,hard,1500.0,1000.0,1.0,60.0,40.0,80.0,40.0,A,B,/static/Simple_RL/Stimuli/Fractals_stims/A.jpg,/static/Simple_RL/Stimuli/Fractals_stims/B.jpg,1.0,60.0,40.0,80.0,40.0,A,B,109.809,0.809,0.0,
302,,rl_choice_confirmation,,html-keyboard-response,302,407594,0.0-1.0-416.0-0.0,0,0,72837,,,,,,59.0,,2.0,,,,,,,,,,,,,,,,,,,,110.5,0.691,,
303,,isi,,html-keyboard-response,303,408603,0.0-1.0-418.0,0,0,72837,,,,,,59.0,,2.0,,,,,,,,,,,,,,,,,,,,111.5,1.0,,
304,,feedback,,html-keyboard-response,304,409612,0.0-1.0-419.0-0.0,0,0,72837,,,,,,59.0,,2.0,,,,,,,,,,,,,,,,,,,,112.5,1.0,,
305,,iti,,html-keyboard-response,305,411133,0.0-1.0-420.0,0,0,72837,,,,,,59.0,,2.0,,,,,,,,,,,,,,,,,,,,114.0,1.5,,
306,,rl_choice,,html-keyboard-response,306,411656,0.0-1.0-422.0,0,0,72837,,520.0,,,68.0,60.0,60.0,2.0,hard,1500.0,1000.0,1.0,60.0,40.0,40.0,40.0,A,B,/static/Simple_RL/Stimuli/Fractals_stims/A.jpg,/static/Simple_RL/Stimuli/Fractals_stims/B.jpg,1.0,60.0,40.0,40.0,40.0,A,B,114.52,0.52,0.0,
307,,rl_choice_confirmation,,html-keyboard-response,307,412652,0.0-1.0-423.0-0.0,0,0,72837,,,,,,60.0,,2.0,,,,,,,,,,,,,,,,,,,,115.5,0.98,,
308,,isi,,html-keyboard-response,308,413677,0.0-1.0-425.0,0,0,72837,,,,,,60.0,,2.0,,,,,,,,,,,,,,,,,,,,116.5,1.0,,
309,,feedback,,html-keyboard-response,309,414688,0.0-1.0-426.0-0.0,0,0,72837,,,,,,60.0,,2.0,,,,,,,,,,,,,,,,,,,,117.5,1.0,,
310,,iti,,html-keyboard-response,310,416192,0.0-1.0-427.0,0,0,72837,,,,,,60.0,,2.0,,,,,,,,,,,,,,,,,,,,119.0,1.5,,
311,,rl_choice,,html-keyboard-response,311,416690,0.0-1.0-429.0,0,0,72837,,493.0,,,68.0,61.0,61.0,2.0,hard,1000.0,1000.0,1.0,60.0,40.0,40.0,60.0,A,B,/static/Simple_RL/Stimuli/Fractals_stims/A.jpg,/static/Simple_RL/Stimuli/Fractals_stims/B.jpg,1.0,60.0,40.0,40.0,60.0,A,B,119.493,0.493,0.0,
312,,rl_choice_confirmation,,html-keyboard-response,312,417712,0.0-1.0-430.0-0.0,0,0,72837,,,,,,61.0,,2.0,,,,,,,,,,,,,,,,,,,,120.5,1.007,,
313,,isi,,html-keyboard-response,313,418727,0.0-1.0-432.0,0,0,72837,,,,,,61.0,,2.0,,,,,,,,,,,,,,,,,,,,121.5,1.0,,
314,,feedback,,html-keyboard-response,314,419743,0.0-1.0-433.0-0.0,0,0,72837,,,,,,61.0,,2.0,,,,,,,,,,,,,,,,,,,,122.5,1.0,,
315,,iti,,html-keyboard-response,315,420756,0.0-1.0-434.0,0,0,72837,,,,,,61.0,,2.0,,,,,,,,,,,,,,,,,,,,123.5,1.0,,
316,,rl_choice,,html-keyboard-response,316,421209,0.0-1.0-436.0,0,0,72837,,445.0,,,68.0,62.0,62.0,2.0,hard,1000.0,3000.0,1.0,60.0,40.0,60.0,20.0,A,B,/static/Simple_RL/Stimuli/Fractals_stims/A.jpg,/static/Simple_RL/Stimuli/Fractals_stims/B.jpg,1.0,60.0,40.0,60.0,20.0,A,B,123.945,0.445,0.0,
317,,rl_choice_confirmation,,html-keyboard-response,317,422274,0.0-1.0-437.0-0.0,0,0,72837,,,,,,62.0,,2.0,,,,,,,,,,,,,,,,,,,,125.0,1.055,,
318,,isi,,html-keyboard-response,318,425285,0.0-1.0-439.0,0,0,72837,,,,,,62.0,,2.0,,,,,,,,,,,,,,,,,,,,128.0,3.0,,
319,,feedback,,html-keyboard-response,319,426294,0.0-1.0-440.0-0.0,0,0,72837,,,,,,62.0,,2.0,,,,,,,,,,,,,,,,,,,,129.0,1.0,,
320,,iti,,html-keyboard-response,320,427313,0.0-1.0-441.0,0,0,72837,,,,,,62.0,,2.0,,,,,,,,,,,,,,,,,,,,130.0,1.0,,
321,,rl_choice,,html-keyboard-response,321,427938,0.0-1.0-443.0,0,0,72837,,620.0,,,75.0,63.0,63.0,2.0,easy,2000.0,1500.0,0.0,20.0,80.0,20.0,60.0,D,C,/static/Simple_RL/Stimuli/Fractals_stims/D.jpg,/static/Simple_RL/Stimuli/Fractals_stims/C.jpg,0.0,80.0,20.0,60.0,20.0,C,D,130.62,0.62,0.0,
322,,rl_choice_confirmation,,html-keyboard-response,322,428838,0.0-1.0-444.0-0.0,0,0,72837,,,,,,63.0,,2.0,,,,,,,,,,,,,,,,,,,,131.5,0.88,,
323,,isi,,html-keyboard-response,323,430366,0.0-1.0-446.0,0,0,72837,,,,,,63.0,,2.0,,,,,,,,,,,,,,,,,,,,133.0,1.5,,
324,,feedback,,html-keyboard-response,324,431383,0.0-1.0-447.0-0.0,0,0,72837,,,,,,63.0,,2.0,,,,,,,,,,,,,,,,,,,,134.0,1.0,,
325,,iti,,html-keyboard-response,325,433392,0.0-1.0-448.0,0,0,72837,,,,,,63.0,,2.0,,,,,,,,,,,,,,,,,,,,136.0,2.0,,
326,,rl_choice,,html-keyboard-response,326,433830,0.0-1.0-450.0,0,0,72837,,435.0,,,68.0,64.0,64.0,2.0,easy,2000.0,1000.0,1.0,80.0,20.0,100.0,20.0,C,D,/static/Simple_RL/Stimuli/Fractals_stims/C.jpg,/static/Simple_RL/Stimuli/Fractals_stims/D.jpg,1.0,80.0,20.0,100.0,20.0,C,D,136.435,0.435,0.0,
327,,rl_choice_confirmation,,html-keyboard-response,327,434902,0.0-1.0-451.0-0.0,0,0,72837,,,,,,64.0,,2.0,,,,,,,,,,,,,,,,,,,,137.5,1.065,,
328,,isi,,html-keyboard-response,328,435918,0.0-1.0-453.0,0,0,72837,,,,,,64.0,,2.0,,,,,,,,,,,,,,,,,,,,138.5,1.0,,
329,,feedback,,html-keyboard-response,329,436938,0.0-1.0-454.0-0.0,0,0,72837,,,,,,64.0,,2.0,,,,,,,,,,,,,,,,,,,,139.5,1.0,,
330,,iti,,html-keyboard-response,330,438944,0.0-1.0-455.0,0,0,72837,,,,,,64.0,,2.0,,,,,,,,,,,,,,,,,,,,141.5,2.0,,
331,,rl_choice,,html-keyboard-response,331,439569,0.0-1.0-457.0,0,0,72837,,621.0,,,68.0,65.0,65.0,2.0,hard,2000.0,1500.0,1.0,60.0,40.0,60.0,40.0,A,B,/static/Simple_RL/Stimuli/Fractals_stims/A.jpg,/static/Simple_RL/Stimuli/Fractals_stims/B.jpg,1.0,60.0,40.0,60.0,40.0,A,B,142.121,0.621,0.0,
332,,rl_choice_confirmation,,html-keyboard-response,332,440462,0.0-1.0-458.0-0.0,0,0,72837,,,,,,65.0,,2.0,,,,,,,,,,,,,,,,,,,,143.0,0.879,,
333,,isi,,html-keyboard-response,333,441974,0.0-1.0-460.0,0,0,72837,,,,,,65.0,,2.0,,,,,,,,,,,,,,,,,,,,144.5,1.5,,
334,,feedback,,html-keyboard-response,334,442988,0.0-1.0-461.0-0.0,0,0,72837,,,,,,65.0,,2.0,,,,,,,,,,,,,,,,,,,,145.5,1.0,,
335,,iti,,html-keyboard-response,335,445004,0.0-1.0-462.0,0,0,72837,,,,,,65.0,,2.0,,,,,,,,,,,,,,,,,,,,147.5,2.0,,
336,,rl_choice,,html-keyboard-response,336,445497,0.0-1.0-464.0,0,0,72837,,486.0,,,68.0,66.0,66.0,2.0,hard,3000.0,1000.0,1.0,60.0,40.0,60.0,20.0,A,B,/static/Simple_RL/Stimuli/Fractals_stims/A.jpg,/static/Simple_RL/Stimuli/Fractals_stims/B.jpg,1.0,60.0,40.0,60.0,20.0,A,B,147.986,0.486,0.0,
337,,rl_choice_confirmation,,html-keyboard-response,337,446528,0.0-1.0-465.0-0.0,0,0,72837,,,,,,66.0,,2.0,,,,,,,,,,,,,,,,,,,,149.0,1.014,,
338,,isi,,html-keyboard-response,338,447536,0.0-1.0-467.0,0,0,72837,,,,,,66.0,,2.0,,,,,,,,,,,,,,,,,,,,150.0,1.0,,
339,,feedback,,html-keyboard-response,339,448550,0.0-1.0-468.0-0.0,0,0,72837,,,,,,66.0,,2.0,,,,,,,,,,,,,,,,,,,,151.0,1.0,,
340,,iti,,html-keyboard-response,340,451571,0.0-1.0-469.0,0,0,72837,,,,,,66.0,,2.0,,,,,,,,,,,,,,,,,,,,154.0,3.0,,
341,,rl_choice,,html-keyboard-response,341,452064,0.0-1.0-471.0,0,0,72837,,490.0,,,68.0,67.0,67.0,2.0,easy,3500.0,2000.0,1.0,80.0,20.0,60.0,40.0,C,D,/static/Simple_RL/Stimuli/Fractals_stims/C.jpg,/static/Simple_RL/Stimuli/Fractals_stims/D.jpg,1.0,80.0,20.0,60.0,40.0,C,D,154.49,0.49,0.0,
342,,rl_choice_confirmation,,html-keyboard-response,342,453091,0.0-1.0-472.0-0.0,0,0,72837,,,,,,67.0,,2.0,,,,,,,,,,,,,,,,,,,,155.5,1.01,,
343,,isi,,html-keyboard-response,343,455104,0.0-1.0-474.0,0,0,72837,,,,,,67.0,,2.0,,,,,,,,,,,,,,,,,,,,157.5,2.0,,
344,,feedback,,html-keyboard-response,344,456120,0.0-1.0-475.0-0.0,0,0,72837,,,,,,67.0,,2.0,,,,,,,,,,,,,,,,,,,,158.5,1.0,,
345,,iti,,html-keyboard-response,345,459624,0.0-1.0-476.0,0,0,72837,,,,,,67.0,,2.0,,,,,,,,,,,,,,,,,,,,162.0,3.5,,
346,,rl_choice,,html-keyboard-response,346,460127,0.0-1.0-478.0,0,0,72837,,499.0,,,75.0,68.0,68.0,2.0,easy,3000.0,2000.0,0.0,20.0,80.0,40.0,80.0,D,C,/static/Simple_RL/Stimuli/Fractals_stims/D.jpg,/static/Simple_RL/Stimuli/Fractals_stims/C.jpg,0.0,80.0,20.0,80.0,40.0,C,D,162.499,0.499,0.0,
347,,rl_choice_confirmation,,html-keyboard-response,347,461139,0.0-1.0-479.0-0.0,0,0,72837,,,,,,68.0,,2.0,,,,,,,,,,,,,,,,,,,,163.5,1.001,,
348,,isi,,html-keyboard-response,348,463152,0.0-1.0-481.0,0,0,72837,,,,,,68.0,,2.0,,,,,,,,,,,,,,,,,,,,165.5,2.0,,
349,,feedback,,html-keyboard-response,349,464168,0.0-1.0-482.0-0.0,0,0,72837,,,,,,68.0,,2.0,,,,,,,,,,,,,,,,,,,,166.5,1.0,,
350,,iti,,html-keyboard-response,350,467174,0.0-1.0-483.0,0,0,72837,,,,,,68.0,,2.0,,,,,,,,,,,,,,,,,,,,169.5,3.0,,
351,,rl_choice,,html-keyboard-response,351,467696,0.0-1.0-485.0,0,0,72837,,516.0,,,68.0,69.0,69.0,2.0,hard,2000.0,1000.0,1.0,60.0,40.0,40.0,60.0,A,B,/static/Simple_RL/Stimuli/Fractals_stims/A.jpg,/static/Simple_RL/Stimuli/Fractals_stims/B.jpg,1.0,60.0,40.0,40.0,60.0,A,B,170.016,0.516,0.0,
352,,rl_choice_confirmation,,html-keyboard-response,352,468691,0.0-1.0-486.0-0.0,0,0,72837,,,,,,69.0,,2.0,,,,,,,,,,,,,,,,,,,,171.0,0.984,,
353,,isi,,html-keyboard-response,353,469693,0.0-1.0-488.0,0,0,72837,,,,,,69.0,,2.0,,,,,,,,,,,,,,,,,,,,172.0,1.0,,
354,,feedback,,html-keyboard-response,354,470708,0.0-1.0-489.0-0.0,0,0,72837,,,,,,69.0,,2.0,,,,,,,,,,,,,,,,,,,,173.0,1.0,,
355,,iti,,html-keyboard-response,355,472714,0.0-1.0-490.0,0,0,72837,,,,,,69.0,,2.0,,,,,,,,,,,,,,,,,,,,175.0,2.0,,
356,,rl_choice,,html-keyboard-response,356,473225,0.0-1.0-492.0,0,0,72837,,507.0,,,68.0,70.0,70.0,2.0,hard,1000.0,3500.0,1.0,60.0,40.0,80.0,40.0,A,B,/static/Simple_RL/Stimuli/Fractals_stims/A.jpg,/static/Simple_RL/Stimuli/Fractals_stims/B.jpg,1.0,60.0,40.0,80.0,40.0,A,B,175.507,0.507,0.0,
357,,rl_choice_confirmation,,html-keyboard-response,357,474230,0.0-1.0-493.0-0.0,0,0,72837,,,,,,70.0,,2.0,,,,,,,,,,,,,,,,,,,,176.5,0.993,,
358,,isi,,html-keyboard-response,358,477741,0.0-1.0-495.0,0,0,72837,,,,,,70.0,,2.0,,,,,,,,,,,,,,,,,,,,180.0,3.5,,
359,,feedback,,html-keyboard-response,359,478754,0.0-1.0-496.0-0.0,0,0,72837,,,,,,70.0,,2.0,,,,,,,,,,,,,,,,,,,,181.0,1.0,,
360,,iti,,html-keyboard-response,360,479762,0.0-1.0-497.0,0,0,72837,,,,,,70.0,,2.0,,,,,,,,,,,,,,,,,,,,182.0,1.0,,
361,,rl_choice,,html-keyboard-response,361,480299,0.0-1.0-499.0,0,0,72837,,536.0,,,68.0,71.0,71.0,2.0,hard,1000.0,1500.0,1.0,60.0,40.0,40.0,40.0,A,B,/static/Simple_RL/Stimuli/Fractals_stims/A.jpg,/static/Simple_RL/Stimuli/Fractals_stims/B.jpg,1.0,60.0,40.0,40.0,40.0,A,B,182.536,0.536,0.0,
362,,rl_choice_confirmation,,html-keyboard-response,362,481272,0.0-1.0-500.0-0.0,0,0,72837,,,,,,71.0,,2.0,,,,,,,,,,,,,,,,,,,,183.5,0.964,,
363,,isi,,html-keyboard-response,363,482777,0.0-1.0-502.0,0,0,72837,,,,,,71.0,,2.0,,,,,,,,,,,,,,,,,,,,185.0,1.5,,
364,,feedback,,html-keyboard-response,364,483792,0.0-1.0-503.0-0.0,0,0,72837,,,,,,71.0,,2.0,,,,,,,,,,,,,,,,,,,,186.0,1.0,,
365,,iti,,html-keyboard-response,365,484812,0.0-1.0-504.0,0,0,72837,,,,,,71.0,,2.0,,,,,,,,,,,,,,,,,,,,187.0,1.0,,
366,,rl_choice,,html-keyboard-response,366,485393,0.0-1.0-506.0,0,0,72837,,578.0,,,75.0,72.0,72.0,2.0,easy,1000.0,1500.0,0.0,20.0,80.0,0.0,80.0,D,C,/static/Simple_RL/Stimuli/Fractals_stims/D.jpg,/static/Simple_RL/Stimuli/Fractals_stims/C.jpg,0.0,80.0,20.0,80.0,0.0,C,D,187.578,0.578,0.0,
367,,rl_choice_confirmation,,html-keyboard-response,367,486334,0.0-1.0-507.0-0.0,0,0,72837,,,,,,72.0,,2.0,,,,,,,,,,,,,,,,,,,,188.5,0.922,,
368,,isi,,html-keyboard-response,368,487846,0.0-1.0-509.0,0,0,72837,,,,,,72.0,,2.0,,,,,,,,,,,,,,,,,,,,190.0,1.5,,
369,,feedback,,html-keyboard-response,369,488856,0.0-1.0-510.0-0.0,0,0,72837,,,,,,72.0,,2.0,,,,,,,,,,,,,,,,,,,,191.0,1.0,,
370,,iti,,html-keyboard-response,370,489871,0.0-1.0-511.0,0,0,72837,,,,,,72.0,,2.0,,,,,,,,,,,,,,,,,,,,192.0,1.0,,
371,,rl_choice,,html-keyboard-response,371,490601,0.0-1.0-513.0,0,0,72837,,725.0,,,68.0,73.0,73.0,2.0,easy,1000.0,3000.0,1.0,80.0,20.0,60.0,0.0,C,D,/static/Simple_RL/Stimuli/Fractals_stims/C.jpg,/static/Simple_RL/Stimuli/Fractals_stims/D.jpg,1.0,80.0,20.0,60.0,0.0,C,D,192.725,0.725,0.0,
372,,rl_choice_confirmation,,html-keyboard-response,372,491391,0.0-1.0-514.0-0.0,0,0,72837,,,,,,73.0,,2.0,,,,,,,,,,,,,,,,,,,,193.5,0.775,,
373,,isi,,html-keyboard-response,373,494407,0.0-1.0-516.0,0,0,72837,,,,,,73.0,,2.0,,,,,,,,,,,,,,,,,,,,196.5,3.0,,
374,,feedback,,html-keyboard-response,374,495421,0.0-1.0-517.0-0.0,0,0,72837,,,,,,73.0,,2.0,,,,,,,,,,,,,,,,,,,,197.5,1.0,,
375,,iti,,html-keyboard-response,375,496442,0.0-1.0-518.0,0,0,72837,,,,,,73.0,,2.0,,,,,,,,,,,,,,,,,,,,198.5,1.0,,
376,,rl_choice,,html-keyboard-response,376,497224,0.0-1.0-520.0,0,0,72837,,776.0,,,68.0,74.0,74.0,2.0,hard,3500.0,2000.0,1.0,60.0,40.0,60.0,60.0,A,B,/static/Simple_RL/Stimuli/Fractals_stims/A.jpg,/static/Simple_RL/Stimuli/Fractals_stims/B.jpg,1.0,60.0,40.0,60.0,60.0,A,B,199.276,0.776,0.0,
377,,rl_choice_confirmation,,html-keyboard-response,377,497961,0.0-1.0-521.0-0.0,0,0,72837,,,,,,74.0,,2.0,,,,,,,,,,,,,,,,,,,,200.0,0.724,,
378,,isi,,html-keyboard-response,378,499977,0.0-1.0-523.0,0,0,72837,,,,,,74.0,,2.0,,,,,,,,,,,,,,,,,,,,202.0,2.0,,
379,,feedback,,html-keyboard-response,379,500983,0.0-1.0-524.0-0.0,0,0,72837,,,,,,74.0,,2.0,,,,,,,,,,,,,,,,,,,,203.0,1.0,,
380,,iti,,html-keyboard-response,380,504500,0.0-1.0-525.0,0,0,72837,,,,,,74.0,,2.0,,,,,,,,,,,,,,,,,,,,206.5,3.5,,
381,,rl_choice,,html-keyboard-response,381,504970,0.0-1.0-527.0,0,0,72837,,465.0,,,75.0,75.0,75.0,2.0,hard,1500.0,3000.0,0.0,40.0,60.0,60.0,80.0,B,A,/static/Simple_RL/Stimuli/Fractals_stims/B.jpg,/static/Simple_RL/Stimuli/Fractals_stims/A.jpg,0.0,60.0,40.0,80.0,60.0,A,B,206.965,0.465,0.0,
382,,rl_choice_confirmation,,html-keyboard-response,382,506024,0.0-1.0-528.0-0.0,0,0,72837,,,,,,75.0,,2.0,,,,,,,,,,,,,,,,,,,,208.0,1.035,,
383,,isi,,html-keyboard-response,383,509042,0.0-1.0-530.0,0,0,72837,,,,,,75.0,,2.0,,,,,,,,,,,,,,,,,,,,211.0,3.0,,
384,,feedback,,html-keyboard-response,384,510050,0.0-1.0-531.0-0.0,0,0,72837,,,,,,75.0,,2.0,,,,,,,,,,,,,,,,,,,,212.0,1.0,,
385,,iti,,html-keyboard-response,385,511568,0.0-1.0-532.0,0,0,72837,,,,,,75.0,,2.0,,,,,,,,,,,,,,,,,,,,213.5,1.5,,
386,,rl_choice,,html-keyboard-response,386,512034,0.0-1.0-534.0,0,0,72837,,461.0,,,75.0,76.0,76.0,2.0,easy,1000.0,1000.0,0.0,20.0,80.0,20.0,80.0,D,C,/static/Simple_RL/Stimuli/Fractals_stims/D.jpg,/static/Simple_RL/Stimuli/Fractals_stims/C.jpg,0.0,80.0,20.0,80.0,20.0,C,D,213.961,0.461,0.0,
387,,rl_choice_confirmation,,html-keyboard-response,387,513092,0.0-1.0-535.0-0.0,0,0,72837,,,,,,76.0,,2.0,,,,,,,,,,,,,,,,,,,,215.0,1.039,,
388,,isi,,html-keyboard-response,388,514107,0.0-1.0-537.0,0,0,72837,,,,,,76.0,,2.0,,,,,,,,,,,,,,,,,,,,216.0,1.0,,
389,,feedback,,html-keyboard-response,389,515117,0.0-1.0-538.0-0.0,0,0,72837,,,,,,76.0,,2.0,,,,,,,,,,,,,,,,,,,,217.0,1.0,,
390,,iti,,html-keyboard-response,390,516125,0.0-1.0-539.0,0,0,72837,,,,,,76.0,,2.0,,,,,,,,,,,,,,,,,,,,218.0,1.0,,
391,,rl_choice,,html-keyboard-response,391,516728,0.0-1.0-541.0,0,0,72837,,599.0,,,75.0,77.0,77.0,2.0,hard,1000.0,1000.0,0.0,40.0,60.0,60.0,40.0,B,A,/static/Simple_RL/Stimuli/Fractals_stims/B.jpg,/static/Simple_RL/Stimuli/Fractals_stims/A.jpg,0.0,60.0,40.0,40.0,60.0,A,B,218.599,0.599,0.0,
392,,rl_choice_confirmation,,html-keyboard-response,392,517641,0.0-1.0-542.0-0.0,0,0,72837,,,,,,77.0,,2.0,,,,,,,,,,,,,,,,,,,,219.5,0.901,,
393,,isi,,html-keyboard-response,393,518664,0.0-1.0-544.0,0,0,72837,,,,,,77.0,,2.0,,,,,,,,,,,,,,,,,,,,220.5,1.0,,
394,,feedback,,html-keyboard-response,394,519679,0.0-1.0-545.0-0.0,0,0,72837,,,,,,77.0,,2.0,,,,,,,,,,,,,,,,,,,,221.5,1.0,,
395,,iti,,html-keyboard-response,395,520693,0.0-1.0-546.0,0,0,72837,,,,,,77.0,,2.0,,,,,,,,,,,,,,,,,,,,222.5,1.0,,
396,,rl_choice,,html-keyboard-response,396,521204,0.0-1.0-548.0,0,0,72837,,506.0,,,68.0,78.0,78.0,2.0,easy,1000.0,1500.0,1.0,80.0,20.0,80.0,0.0,C,D,/static/Simple_RL/Stimuli/Fractals_stims/C.jpg,/static/Simple_RL/Stimuli/Fractals_stims/D.jpg,1.0,80.0,20.0,80.0,0.0,C,D,223.006,0.506,0.0,
397,,rl_choice_confirmation,,html-keyboard-response,397,522208,0.0-1.0-549.0-0.0,0,0,72837,,,,,,78.0,,2.0,,,,,,,,,,,,,,,,,,,,224.0,0.994,,
398,,isi,,html-keyboard-response,398,523717,0.0-1.0-551.0,0,0,72837,,,,,,78.0,,2.0,,,,,,,,,,,,,,,,,,,,225.5,1.5,,
399,,feedback,,html-keyboard-response,399,524734,0.0-1.0-552.0-0.0,0,0,72837,,,,,,78.0,,2.0,,,,,,,,,,,,,,,,,,,,226.5,1.0,,
400,,iti,,html-keyboard-response,400,525739,0.0-1.0-553.0,0,0,72837,,,,,,78.0,,2.0,,,,,,,,,,,,,,,,,,,,227.5,1.0,,
401,,rl_choice,,html-keyboard-response,401,526175,0.0-1.0-555.0,0,0,72837,,431.0,,,75.0,79.0,79.0,2.0,easy,1000.0,1000.0,0.0,20.0,80.0,0.0,100.0,D,C,/static/Simple_RL/Stimuli/Fractals_stims/D.jpg,/static/Simple_RL/Stimuli/Fractals_stims/C.jpg,0.0,80.0,20.0,100.0,0.0,C,D,227.931,0.431,0.0,
402,,rl_choice_confirmation,,html-keyboard-response,402,527263,0.0-1.0-556.0-0.0,0,0,72837,,,,,,79.0,,2.0,,,,,,,,,,,,,,,,,,,,229.0,1.069,,
403,,isi,,html-keyboard-response,403,528268,0.0-1.0-558.0,0,0,72837,,,,,,79.0,,2.0,,,,,,,,,,,,,,,,,,,,230.0,1.0,,
404,,feedback,,html-keyboard-response,404,529286,0.0-1.0-559.0-0.0,0,0,72837,,,,,,79.0,,2.0,,,,,,,,,,,,,,,,,,,,231.0,1.0,,
405,,iti,,html-keyboard-response,405,530294,0.0-1.0-560.0,0,0,72837,,,,,,79.0,,2.0,,,,,,,,,,,,,,,,,,,,232.0,1.0,,1.0
406,,final_tally,,html-keyboard-response,406,533309,0.0-2.0,0,0,72837,,3001.0,,,68.0,,,,,,,,,,,,,,,,,,,,,,,,,,
