,success,ttype,start_time,trial_type,trial_index,time_elapsed,internal_node_id,warning,missed_checkup,PID,view_history,rt,responses,repeat_instructions,key_press,index,trial_num,block,condition,iti,isi,high_group_on_left,left_group_value,right_group_value,left_item_value,right_item_value,left_img,right_img,left_img_path,right_img_path,left_chosen,chosen_group_value,unchosen_group_value,chosen_item_value,unchosen_item_value,chosen_img,unchosen_img,onset,duration,no_response,total_bonus_tally
0,True,full_screen,d06012022hr2316,fullscreen,0,7882,0.0-0.0,0,0,3,,,,,,,,,,,,,,,,,,,,,,,,,,,,,,,
1,,size_instructions,,instructions,1,13080,0.0-1.0-0.0-0.0,0,0,3,"[{""page_index"":0,""viewing_time"":1459},{""page_index"":1,""viewing_time"":177},{""page_index"":2,""viewing_time"":182},{""page_index"":3,""viewing_time"":374},{""page_index"":4,""viewing_time"":472},{""page_index"":5,""viewing_time"":2532}]",5197.0,,,,,,,,,,,,,,,,,,,,,,,,,,,,,
2,,rl_comprehension_check,,survey-multi-choice,2,17681,0.0-1.0-0.0-1.0,0,0,3,,4599.0,"{""Q0"":""True"",""Q1"":""True"",""Q2"":""pointer finger for left and middle finger for right""}",0.0,,,,,,,,,,,,,,,,,,,,,,,,,,,
3,,,,html-keyboard-response,3,18791,0.0-1.0-1.0,0,0,3,,1108.0,,,50.0,,,,,,,,,,,,,,,,,,,,,,,,,,
4,,rl_choice,,html-keyboard-response,4,19521,0.0-1.0-2.0,0,0,3,,728.0,,,50.0,0.0,0.0,1.0,hard,2000.0,1000.0,0.0,40.0,60.0,60.0,40.0,D,C,/static/Simple_RL/Stimuli/Fractals_stims/D.jpg,/static/Simple_RL/Stimuli/Fractals_stims/C.jpg,1.0,40.0,60.0,60.0,40.0,D,C,0.728,0.728,0.0,
5,,rl_choice_confirmation,,html-keyboard-response,5,20298,0.0-1.0-3.0-0.0,0,0,3,,,,,,0.0,,,,,,,,,,,,,,,,,,,,,,1.5,0.772,,
6,,isi,,html-keyboard-response,6,20399,0.0-1.0-5.0,0,0,3,,,,,,,,,,,,,,,,,,,,,,,,,,,,2.5,1.0,,
7,,feedback,,html-keyboard-response,7,21402,0.0-1.0-6.0-0.0,0,0,3,,,,,,0.0,,,,,,,,,,,,,,,,,,,,,,3.5,1.0,,
8,,iti,,html-keyboard-response,8,21506,0.0-1.0-7.0,0,0,3,,,,,,,,,,,,,,,,,,,,,,,,,,,,5.5,2.0,,
9,,rl_choice,,html-keyboard-response,9,21719,0.0-1.0-9.0,0,0,3,,211.0,,,51.0,1.0,1.0,1.0,hard,1000.0,1000.0,0.0,40.0,60.0,20.0,40.0,D,C,/static/Simple_RL/Stimuli/Fractals_stims/D.jpg,/static/Simple_RL/Stimuli/Fractals_stims/C.jpg,0.0,60.0,40.0,40.0,20.0,C,D,5.711,0.211,0.0,
10,,rl_choice_confirmation,,html-keyboard-response,10,23009,0.0-1.0-10.0-0.0,0,0,3,,,,,,1.0,,,,,,,,,,,,,,,,,,,,,,7.0,1.289,,
11,,isi,,html-keyboard-response,11,23110,0.0-1.0-12.0,0,0,3,,,,,,,,,,,,,,,,,,,,,,,,,,,,8.0,1.0,,
12,,feedback,,html-keyboard-response,12,24113,0.0-1.0-13.0-0.0,0,0,3,,,,,,1.0,,,,,,,,,,,,,,,,,,,,,,9.0,1.0,,
13,,iti,,html-keyboard-response,13,24216,0.0-1.0-14.0,0,0,3,,,,,,,,,,,,,,,,,,,,,,,,,,,,10.0,1.0,,
14,,rl_choice,,html-keyboard-response,14,24298,0.0-1.0-16.0,0,0,3,,80.0,,,50.0,2.0,2.0,1.0,easy,1000.0,1000.0,0.0,20.0,80.0,40.0,60.0,B,A,/static/Simple_RL/Stimuli/Fractals_stims/B.jpg,/static/Simple_RL/Stimuli/Fractals_stims/A.jpg,1.0,20.0,80.0,40.0,60.0,B,A,10.08,0.08,0.0,
15,,rl_choice_confirmation,,html-keyboard-response,15,25724,0.0-1.0-17.0-0.0,0,0,3,,,,,,2.0,,,,,,,,,,,,,,,,,,,,,,11.5,1.42,,
16,,isi,,html-keyboard-response,16,25826,0.0-1.0-19.0,0,0,3,,,,,,,,,,,,,,,,,,,,,,,,,,,,12.5,1.0,,
17,,feedback,,html-keyboard-response,17,26832,0.0-1.0-20.0-0.0,0,0,3,,,,,,2.0,,,,,,,,,,,,,,,,,,,,,,13.5,1.0,,
18,,iti,,html-keyboard-response,18,26935,0.0-1.0-21.0,0,0,3,,,,,,,,,,,,,,,,,,,,,,,,,,,,14.5,1.0,,
19,,rl_choice,,html-keyboard-response,19,28439,0.0-1.0-23.0,0,0,3,,,,,,3.0,3.0,1.0,easy,3000.0,3000.0,1.0,80.0,20.0,100.0,40.0,A,B,/static/Simple_RL/Stimuli/Fractals_stims/A.jpg,/static/Simple_RL/Stimuli/Fractals_stims/B.jpg,,,,,,,,16.0,1.5,1.0,
20,,rl_choice_warning,,html-keyboard-response,20,29443,0.0-1.0-25.0-0.0,0,0,3,,,,,,,,,,,,,,,,,,,,,,,,,,,,17.0,1.0,,
21,,isi,,html-keyboard-response,21,29544,0.0-1.0-26.0,0,0,3,,,,,,,,,,,,,,,,,,,,,,,,,,,,20.0,3.0,,
22,,iti,,html-keyboard-response,22,29648,0.0-1.0-28.0,0,0,3,,,,,,,,,,,,,,,,,,,,,,,,,,,,23.0,3.0,,
23,,rl_choice,,html-keyboard-response,23,31155,0.0-1.0-30.0,0,0,3,,,,,,4.0,4.0,1.0,hard,1000.0,1000.0,0.0,40.0,60.0,40.0,80.0,D,C,/static/Simple_RL/Stimuli/Fractals_stims/D.jpg,/static/Simple_RL/Stimuli/Fractals_stims/C.jpg,,,,,,,,24.5,1.5,1.0,
24,,rl_choice_warning,,html-keyboard-response,24,32160,0.0-1.0-32.0-0.0,0,0,3,,,,,,,,,,,,,,,,,,,,,,,,,,,,25.5,1.0,,
25,,isi,,html-keyboard-response,25,32265,0.0-1.0-33.0,0,0,3,,,,,,,,,,,,,,,,,,,,,,,,,,,,26.5,1.0,,
26,,iti,,html-keyboard-response,26,32371,0.0-1.0-35.0,0,0,3,,,,,,,,,,,,,,,,,,,,,,,,,,,,27.5,1.0,,
27,,rl_choice,,html-keyboard-response,27,33875,0.0-1.0-37.0,0,0,3,,,,,,5.0,5.0,1.0,hard,3000.0,1000.0,1.0,60.0,40.0,60.0,60.0,C,D,/static/Simple_RL/Stimuli/Fractals_stims/C.jpg,/static/Simple_RL/Stimuli/Fractals_stims/D.jpg,,,,,,,,29.0,1.5,1.0,
28,,rl_choice_warning,,html-keyboard-response,28,34877,0.0-1.0-39.0-0.0,0,0,3,,,,,,,,,,,,,,,,,,,,,,,,,,,,30.0,1.0,,
29,,isi,,html-keyboard-response,29,34983,0.0-1.0-40.0,0,0,3,,,,,,,,,,,,,,,,,,,,,,,,,,,,31.0,1.0,,
30,,iti,,html-keyboard-response,30,35087,0.0-1.0-42.0,0,0,3,,,,,,,,,,,,,,,,,,,,,,,,,,,,34.0,3.0,,
31,,rl_choice,,html-keyboard-response,31,36591,0.0-1.0-44.0,0,0,3,,,,,,6.0,6.0,1.0,easy,1000.0,2000.0,0.0,20.0,80.0,40.0,100.0,B,A,/static/Simple_RL/Stimuli/Fractals_stims/B.jpg,/static/Simple_RL/Stimuli/Fractals_stims/A.jpg,,,,,,,,35.5,1.5,1.0,
32,,rl_choice_warning,,html-keyboard-response,32,37595,0.0-1.0-46.0-0.0,0,0,3,,,,,,,,,,,,,,,,,,,,,,,,,,,,36.5,1.0,,
33,,isi,,html-keyboard-response,33,37698,0.0-1.0-47.0,0,0,3,,,,,,,,,,,,,,,,,,,,,,,,,,,,38.5,2.0,,
34,,iti,,html-keyboard-response,34,37800,0.0-1.0-49.0,0,0,3,,,,,,,,,,,,,,,,,,,,,,,,,,,,39.5,1.0,,
35,,rl_choice,,html-keyboard-response,35,39304,0.0-1.0-51.0,0,0,3,,,,,,7.0,7.0,1.0,hard,3000.0,1500.0,0.0,40.0,60.0,20.0,80.0,D,C,/static/Simple_RL/Stimuli/Fractals_stims/D.jpg,/static/Simple_RL/Stimuli/Fractals_stims/C.jpg,,,,,,,,41.0,1.5,1.0,
36,,rl_choice_warning,,html-keyboard-response,36,40307,0.0-1.0-53.0-0.0,0,0,3,,,,,,,,,,,,,,,,,,,,,,,,,,,,42.0,1.0,,
37,,isi,,html-keyboard-response,37,40410,0.0-1.0-54.0,0,0,3,,,,,,,,,,,,,,,,,,,,,,,,,,,,43.5,1.5,,
38,,iti,,html-keyboard-response,38,40515,0.0-1.0-56.0,0,0,3,,,,,,,,,,,,,,,,,,,,,,,,,,,,46.5,3.0,,
39,,rl_choice,,html-keyboard-response,39,42019,0.0-1.0-58.0,0,0,3,,,,,,8.0,8.0,1.0,easy,1000.0,1000.0,0.0,20.0,80.0,0.0,100.0,B,A,/static/Simple_RL/Stimuli/Fractals_stims/B.jpg,/static/Simple_RL/Stimuli/Fractals_stims/A.jpg,,,,,,,,48.0,1.5,1.0,
40,,rl_choice_warning,,html-keyboard-response,40,43022,0.0-1.0-60.0-0.0,0,0,3,,,,,,,,,,,,,,,,,,,,,,,,,,,,49.0,1.0,,
41,,isi,,html-keyboard-response,41,43123,0.0-1.0-61.0,0,0,3,,,,,,,,,,,,,,,,,,,,,,,,,,,,50.0,1.0,,
42,,iti,,html-keyboard-response,42,43224,0.0-1.0-63.0,0,0,3,,,,,,,,,,,,,,,,,,,,,,,,,,,,51.0,1.0,,
43,,rl_choice,,html-keyboard-response,43,44728,0.0-1.0-65.0,0,0,3,,,,,,9.0,9.0,1.0,hard,1500.0,2000.0,1.0,60.0,40.0,60.0,40.0,C,D,/static/Simple_RL/Stimuli/Fractals_stims/C.jpg,/static/Simple_RL/Stimuli/Fractals_stims/D.jpg,,,,,,,,52.5,1.5,1.0,
44,,rl_choice_warning,,html-keyboard-response,44,45732,0.0-1.0-67.0-0.0,0,0,3,,,,,,,,,,,,,,,,,,,,,,,,,,,,53.5,1.0,,
45,,isi,,html-keyboard-response,45,45838,0.0-1.0-68.0,0,0,3,,,,,,,,,,,,,,,,,,,,,,,,,,,,55.5,2.0,,
46,,iti,,html-keyboard-response,46,45939,0.0-1.0-70.0,0,0,3,,,,,,,,,,,,,,,,,,,,,,,,,,,,57.0,1.5,,
47,,rl_choice,,html-keyboard-response,47,47443,0.0-1.0-72.0,0,0,3,,,,,,10.0,10.0,1.0,easy,1000.0,1000.0,1.0,80.0,20.0,60.0,0.0,A,B,/static/Simple_RL/Stimuli/Fractals_stims/A.jpg,/static/Simple_RL/Stimuli/Fractals_stims/B.jpg,,,,,,,,58.5,1.5,1.0,
48,,rl_choice_warning,,html-keyboard-response,48,48449,0.0-1.0-74.0-0.0,0,0,3,,,,,,,,,,,,,,,,,,,,,,,,,,,,59.5,1.0,,
49,,isi,,html-keyboard-response,49,48554,0.0-1.0-75.0,0,0,3,,,,,,,,,,,,,,,,,,,,,,,,,,,,60.5,1.0,,
50,,iti,,html-keyboard-response,50,48659,0.0-1.0-77.0,0,0,3,,,,,,,,,,,,,,,,,,,,,,,,,,,,61.5,1.0,,
51,,rl_choice,,html-keyboard-response,51,50165,0.0-1.0-79.0,0,0,3,,,,,,11.0,11.0,1.0,hard,3500.0,1000.0,0.0,40.0,60.0,20.0,60.0,D,C,/static/Simple_RL/Stimuli/Fractals_stims/D.jpg,/static/Simple_RL/Stimuli/Fractals_stims/C.jpg,,,,,,,,63.0,1.5,1.0,
52,,rl_choice_warning,,html-keyboard-response,52,51171,0.0-1.0-81.0-0.0,0,0,3,,,,,,,,,,,,,,,,,,,,,,,,,,,,64.0,1.0,,
53,,isi,,html-keyboard-response,53,51273,0.0-1.0-82.0,0,0,3,,,,,,,,,,,,,,,,,,,,,,,,,,,,65.0,1.0,,
54,,iti,,html-keyboard-response,54,51374,0.0-1.0-84.0,0,0,3,,,,,,,,,,,,,,,,,,,,,,,,,,,,68.5,3.5,,
55,,rl_choice,,html-keyboard-response,55,52878,0.0-1.0-86.0,0,0,3,,,,,,12.0,12.0,1.0,hard,1000.0,1000.0,1.0,60.0,40.0,80.0,20.0,C,D,/static/Simple_RL/Stimuli/Fractals_stims/C.jpg,/static/Simple_RL/Stimuli/Fractals_stims/D.jpg,,,,,,,,70.0,1.5,1.0,
56,,rl_choice_warning,,html-keyboard-response,56,53882,0.0-1.0-88.0-0.0,0,0,3,,,,,,,,,,,,,,,,,,,,,,,,,,,,71.0,1.0,,
57,,isi,,html-keyboard-response,57,53987,0.0-1.0-89.0,0,0,3,,,,,,,,,,,,,,,,,,,,,,,,,,,,72.0,1.0,,
58,,iti,,html-keyboard-response,58,54089,0.0-1.0-91.0,0,0,3,,,,,,,,,,,,,,,,,,,,,,,,,,,,73.0,1.0,,
59,,rl_choice,,html-keyboard-response,59,55594,0.0-1.0-93.0,0,0,3,,,,,,13.0,13.0,1.0,hard,2000.0,2000.0,1.0,60.0,40.0,40.0,40.0,C,D,/static/Simple_RL/Stimuli/Fractals_stims/C.jpg,/static/Simple_RL/Stimuli/Fractals_stims/D.jpg,,,,,,,,74.5,1.5,1.0,
60,,rl_choice_warning,,html-keyboard-response,60,56599,0.0-1.0-95.0-0.0,0,0,3,,,,,,,,,,,,,,,,,,,,,,,,,,,,75.5,1.0,,
61,,isi,,html-keyboard-response,61,56702,0.0-1.0-96.0,0,0,3,,,,,,,,,,,,,,,,,,,,,,,,,,,,77.5,2.0,,
62,,iti,,html-keyboard-response,62,56803,0.0-1.0-98.0,0,0,3,,,,,,,,,,,,,,,,,,,,,,,,,,,,79.5,2.0,,
63,,rl_choice,,html-keyboard-response,63,58307,0.0-1.0-100.0,0,0,3,,,,,,14.0,14.0,1.0,easy,1000.0,3500.0,1.0,80.0,20.0,80.0,20.0,A,B,/static/Simple_RL/Stimuli/Fractals_stims/A.jpg,/static/Simple_RL/Stimuli/Fractals_stims/B.jpg,,,,,,,,81.0,1.5,1.0,
64,,rl_choice_warning,,html-keyboard-response,64,59310,0.0-1.0-102.0-0.0,0,0,3,,,,,,,,,,,,,,,,,,,,,,,,,,,,82.0,1.0,,
65,,isi,,html-keyboard-response,65,59416,0.0-1.0-103.0,0,0,3,,,,,,,,,,,,,,,,,,,,,,,,,,,,85.5,3.5,,
66,,iti,,html-keyboard-response,66,59520,0.0-1.0-105.0,0,0,3,,,,,,,,,,,,,,,,,,,,,,,,,,,,86.5,1.0,,
67,,rl_choice,,html-keyboard-response,67,61025,0.0-1.0-107.0,0,0,3,,,,,,15.0,15.0,1.0,easy,2000.0,2000.0,0.0,20.0,80.0,20.0,60.0,B,A,/static/Simple_RL/Stimuli/Fractals_stims/B.jpg,/static/Simple_RL/Stimuli/Fractals_stims/A.jpg,,,,,,,,88.0,1.5,1.0,
68,,rl_choice_warning,,html-keyboard-response,68,62030,0.0-1.0-109.0-0.0,0,0,3,,,,,,,,,,,,,,,,,,,,,,,,,,,,89.0,1.0,,
69,,isi,,html-keyboard-response,69,62134,0.0-1.0-110.0,0,0,3,,,,,,,,,,,,,,,,,,,,,,,,,,,,91.0,2.0,,
70,,iti,,html-keyboard-response,70,62238,0.0-1.0-112.0,0,0,3,,,,,,,,,,,,,,,,,,,,,,,,,,,,93.0,2.0,,
71,,rl_choice,,html-keyboard-response,71,63742,0.0-1.0-114.0,0,0,3,,,,,,16.0,16.0,1.0,hard,1000.0,1500.0,0.0,40.0,60.0,20.0,80.0,D,C,/static/Simple_RL/Stimuli/Fractals_stims/D.jpg,/static/Simple_RL/Stimuli/Fractals_stims/C.jpg,,,,,,,,94.5,1.5,1.0,
72,,rl_choice_warning,,html-keyboard-response,72,64745,0.0-1.0-116.0-0.0,0,0,3,,,,,,,,,,,,,,,,,,,,,,,,,,,,95.5,1.0,,
73,,isi,,html-keyboard-response,73,64849,0.0-1.0-117.0,0,0,3,,,,,,,,,,,,,,,,,,,,,,,,,,,,97.0,1.5,,
74,,iti,,html-keyboard-response,74,64953,0.0-1.0-119.0,0,0,3,,,,,,,,,,,,,,,,,,,,,,,,,,,,98.0,1.0,,
75,,rl_choice,,html-keyboard-response,75,66459,0.0-1.0-121.0,0,0,3,,,,,,17.0,17.0,1.0,hard,1000.0,1500.0,1.0,60.0,40.0,60.0,20.0,C,D,/static/Simple_RL/Stimuli/Fractals_stims/C.jpg,/static/Simple_RL/Stimuli/Fractals_stims/D.jpg,,,,,,,,99.5,1.5,1.0,
76,,rl_choice_warning,,html-keyboard-response,76,67465,0.0-1.0-123.0-0.0,0,0,3,,,,,,,,,,,,,,,,,,,,,,,,,,,,100.5,1.0,,
77,,isi,,html-keyboard-response,77,67566,0.0-1.0-124.0,0,0,3,,,,,,,,,,,,,,,,,,,,,,,,,,,,102.0,1.5,,
78,,iti,,html-keyboard-response,78,67667,0.0-1.0-126.0,0,0,3,,,,,,,,,,,,,,,,,,,,,,,,,,,,103.0,1.0,,
79,,rl_choice,,html-keyboard-response,79,69171,0.0-1.0-128.0,0,0,3,,,,,,18.0,18.0,1.0,easy,1500.0,1500.0,0.0,20.0,80.0,40.0,80.0,B,A,/static/Simple_RL/Stimuli/Fractals_stims/B.jpg,/static/Simple_RL/Stimuli/Fractals_stims/A.jpg,,,,,,,,104.5,1.5,1.0,
80,,rl_choice_warning,,html-keyboard-response,80,70174,0.0-1.0-130.0-0.0,0,0,3,,,,,,,,,,,,,,,,,,,,,,,,,,,,105.5,1.0,,
81,,isi,,html-keyboard-response,81,70275,0.0-1.0-131.0,0,0,3,,,,,,,,,,,,,,,,,,,,,,,,,,,,107.0,1.5,,
82,,iti,,html-keyboard-response,82,70379,0.0-1.0-133.0,0,0,3,,,,,,,,,,,,,,,,,,,,,,,,,,,,108.5,1.5,,
83,,rl_choice,,html-keyboard-response,83,71882,0.0-1.0-135.0,0,0,3,,,,,,19.0,19.0,1.0,hard,2000.0,3000.0,1.0,60.0,40.0,60.0,40.0,C,D,/static/Simple_RL/Stimuli/Fractals_stims/C.jpg,/static/Simple_RL/Stimuli/Fractals_stims/D.jpg,,,,,,,,110.0,1.5,1.0,
84,,rl_choice_warning,,html-keyboard-response,84,72889,0.0-1.0-137.0-0.0,0,0,3,,,,,,,,,,,,,,,,,,,,,,,,,,,,111.0,1.0,,
85,,isi,,html-keyboard-response,85,72990,0.0-1.0-138.0,0,0,3,,,,,,,,,,,,,,,,,,,,,,,,,,,,114.0,3.0,,
86,,iti,,html-keyboard-response,86,73095,0.0-1.0-140.0,0,0,3,,,,,,,,,,,,,,,,,,,,,,,,,,,,116.0,2.0,,
87,,rl_choice,,html-keyboard-response,87,74601,0.0-1.0-142.0,0,0,3,,,,,,20.0,20.0,1.0,easy,1500.0,1000.0,1.0,80.0,20.0,80.0,40.0,A,B,/static/Simple_RL/Stimuli/Fractals_stims/A.jpg,/static/Simple_RL/Stimuli/Fractals_stims/B.jpg,,,,,,,,117.5,1.5,1.0,
88,,rl_choice_warning,,html-keyboard-response,88,75603,0.0-1.0-144.0-0.0,0,0,3,,,,,,,,,,,,,,,,,,,,,,,,,,,,118.5,1.0,,
89,,isi,,html-keyboard-response,89,75705,0.0-1.0-145.0,0,0,3,,,,,,,,,,,,,,,,,,,,,,,,,,,,119.5,1.0,,
90,,iti,,html-keyboard-response,90,75809,0.0-1.0-147.0,0,0,3,,,,,,,,,,,,,,,,,,,,,,,,,,,,121.0,1.5,,
91,,rl_choice,,html-keyboard-response,91,77310,0.0-1.0-149.0,0,0,3,,,,,,21.0,21.0,1.0,easy,3000.0,1500.0,1.0,80.0,20.0,80.0,20.0,A,B,/static/Simple_RL/Stimuli/Fractals_stims/A.jpg,/static/Simple_RL/Stimuli/Fractals_stims/B.jpg,,,,,,,,122.5,1.5,1.0,
92,,rl_choice_warning,,html-keyboard-response,92,78316,0.0-1.0-151.0-0.0,0,0,3,,,,,,,,,,,,,,,,,,,,,,,,,,,,123.5,1.0,,
93,,isi,,html-keyboard-response,93,78419,0.0-1.0-152.0,0,0,3,,,,,,,,,,,,,,,,,,,,,,,,,,,,125.0,1.5,,
94,,iti,,html-keyboard-response,94,78521,0.0-1.0-154.0,0,0,3,,,,,,,,,,,,,,,,,,,,,,,,,,,,128.0,3.0,,
95,,rl_choice,,html-keyboard-response,95,80025,0.0-1.0-156.0,0,0,3,,,,,,22.0,22.0,1.0,easy,1000.0,2000.0,1.0,80.0,20.0,100.0,20.0,A,B,/static/Simple_RL/Stimuli/Fractals_stims/A.jpg,/static/Simple_RL/Stimuli/Fractals_stims/B.jpg,,,,,,,,129.5,1.5,1.0,
96,,rl_choice_warning,,html-keyboard-response,96,81027,0.0-1.0-158.0-0.0,0,0,3,,,,,,,,,,,,,,,,,,,,,,,,,,,,130.5,1.0,,
97,,isi,,html-keyboard-response,97,81133,0.0-1.0-159.0,0,0,3,,,,,,,,,,,,,,,,,,,,,,,,,,,,132.5,2.0,,
98,,iti,,html-keyboard-response,98,81237,0.0-1.0-161.0,0,0,3,,,,,,,,,,,,,,,,,,,,,,,,,,,,133.5,1.0,,
99,,rl_choice,,html-keyboard-response,99,82739,0.0-1.0-163.0,0,0,3,,,,,,23.0,23.0,1.0,easy,2000.0,1500.0,1.0,80.0,20.0,80.0,0.0,A,B,/static/Simple_RL/Stimuli/Fractals_stims/A.jpg,/static/Simple_RL/Stimuli/Fractals_stims/B.jpg,,,,,,,,135.0,1.5,1.0,
100,,rl_choice_warning,,html-keyboard-response,100,83742,0.0-1.0-165.0-0.0,0,0,3,,,,,,,,,,,,,,,,,,,,,,,,,,,,136.0,1.0,,
101,,isi,,html-keyboard-response,101,83844,0.0-1.0-166.0,0,0,3,,,,,,,,,,,,,,,,,,,,,,,,,,,,137.5,1.5,,
102,,iti,,html-keyboard-response,102,83949,0.0-1.0-168.0,0,0,3,,,,,,,,,,,,,,,,,,,,,,,,,,,,139.5,2.0,,
103,,rl_choice,,html-keyboard-response,103,85454,0.0-1.0-170.0,0,0,3,,,,,,24.0,24.0,1.0,easy,1500.0,1500.0,0.0,20.0,80.0,40.0,80.0,B,A,/static/Simple_RL/Stimuli/Fractals_stims/B.jpg,/static/Simple_RL/Stimuli/Fractals_stims/A.jpg,,,,,,,,141.0,1.5,1.0,
104,,rl_choice_warning,,html-keyboard-response,104,86459,0.0-1.0-172.0-0.0,0,0,3,,,,,,,,,,,,,,,,,,,,,,,,,,,,142.0,1.0,,
105,,isi,,html-keyboard-response,105,86564,0.0-1.0-173.0,0,0,3,,,,,,,,,,,,,,,,,,,,,,,,,,,,143.5,1.5,,
106,,iti,,html-keyboard-response,106,86666,0.0-1.0-175.0,0,0,3,,,,,,,,,,,,,,,,,,,,,,,,,,,,145.0,1.5,,
107,,rl_choice,,html-keyboard-response,107,88169,0.0-1.0-177.0,0,0,3,,,,,,25.0,25.0,1.0,easy,2000.0,3000.0,1.0,80.0,20.0,100.0,40.0,A,B,/static/Simple_RL/Stimuli/Fractals_stims/A.jpg,/static/Simple_RL/Stimuli/Fractals_stims/B.jpg,,,,,,,,146.5,1.5,1.0,
108,,rl_choice_warning,,html-keyboard-response,108,89172,0.0-1.0-179.0-0.0,0,0,3,,,,,,,,,,,,,,,,,,,,,,,,,,,,147.5,1.0,,
109,,isi,,html-keyboard-response,109,89273,0.0-1.0-180.0,0,0,3,,,,,,,,,,,,,,,,,,,,,,,,,,,,150.5,3.0,,
110,,iti,,html-keyboard-response,110,89374,0.0-1.0-182.0,0,0,3,,,,,,,,,,,,,,,,,,,,,,,,,,,,152.5,2.0,,
111,,rl_choice,,html-keyboard-response,111,90878,0.0-1.0-184.0,0,0,3,,,,,,26.0,26.0,1.0,hard,1000.0,2000.0,0.0,40.0,60.0,60.0,80.0,D,C,/static/Simple_RL/Stimuli/Fractals_stims/D.jpg,/static/Simple_RL/Stimuli/Fractals_stims/C.jpg,,,,,,,,154.0,1.5,1.0,
112,,rl_choice_warning,,html-keyboard-response,112,91883,0.0-1.0-186.0-0.0,0,0,3,,,,,,,,,,,,,,,,,,,,,,,,,,,,155.0,1.0,,
113,,isi,,html-keyboard-response,113,91988,0.0-1.0-187.0,0,0,3,,,,,,,,,,,,,,,,,,,,,,,,,,,,157.0,2.0,,
114,,iti,,html-keyboard-response,114,92089,0.0-1.0-189.0,0,0,3,,,,,,,,,,,,,,,,,,,,,,,,,,,,158.0,1.0,,
115,,rl_choice,,html-keyboard-response,115,93596,0.0-1.0-191.0,0,0,3,,,,,,27.0,27.0,1.0,easy,1500.0,1500.0,0.0,20.0,80.0,20.0,80.0,B,A,/static/Simple_RL/Stimuli/Fractals_stims/B.jpg,/static/Simple_RL/Stimuli/Fractals_stims/A.jpg,,,,,,,,159.5,1.5,1.0,
116,,rl_choice_warning,,html-keyboard-response,116,94601,0.0-1.0-193.0-0.0,0,0,3,,,,,,,,,,,,,,,,,,,,,,,,,,,,160.5,1.0,,
117,,isi,,html-keyboard-response,117,94704,0.0-1.0-194.0,0,0,3,,,,,,,,,,,,,,,,,,,,,,,,,,,,162.0,1.5,,
118,,iti,,html-keyboard-response,118,94809,0.0-1.0-196.0,0,0,3,,,,,,,,,,,,,,,,,,,,,,,,,,,,163.5,1.5,,
119,,rl_choice,,html-keyboard-response,119,96313,0.0-1.0-198.0,0,0,3,,,,,,28.0,28.0,1.0,easy,2000.0,1000.0,1.0,80.0,20.0,100.0,20.0,A,B,/static/Simple_RL/Stimuli/Fractals_stims/A.jpg,/static/Simple_RL/Stimuli/Fractals_stims/B.jpg,,,,,,,,165.0,1.5,1.0,
120,,rl_choice_warning,,html-keyboard-response,120,97316,0.0-1.0-200.0-0.0,0,0,3,,,,,,,,,,,,,,,,,,,,,,,,,,,,166.0,1.0,,
121,,isi,,html-keyboard-response,121,97421,0.0-1.0-201.0,0,0,3,,,,,,,,,,,,,,,,,,,,,,,,,,,,167.0,1.0,,
122,,iti,,html-keyboard-response,122,97524,0.0-1.0-203.0,0,0,3,,,,,,,,,,,,,,,,,,,,,,,,,,,,169.0,2.0,,
123,,rl_choice,,html-keyboard-response,123,99028,0.0-1.0-205.0,0,0,3,,,,,,29.0,29.0,1.0,hard,1000.0,1500.0,1.0,60.0,40.0,60.0,20.0,C,D,/static/Simple_RL/Stimuli/Fractals_stims/C.jpg,/static/Simple_RL/Stimuli/Fractals_stims/D.jpg,,,,,,,,170.5,1.5,1.0,
124,,rl_choice_warning,,html-keyboard-response,124,100033,0.0-1.0-207.0-0.0,0,0,3,,,,,,,,,,,,,,,,,,,,,,,,,,,,171.5,1.0,,
125,,isi,,html-keyboard-response,125,100137,0.0-1.0-208.0,0,0,3,,,,,,,,,,,,,,,,,,,,,,,,,,,,173.0,1.5,,
126,,iti,,html-keyboard-response,126,100243,0.0-1.0-210.0,0,0,3,,,,,,,,,,,,,,,,,,,,,,,,,,,,174.0,1.0,,
127,,rl_choice,,html-keyboard-response,127,101750,0.0-1.0-212.0,0,0,3,,,,,,30.0,30.0,1.0,easy,1500.0,2000.0,1.0,80.0,20.0,60.0,20.0,A,B,/static/Simple_RL/Stimuli/Fractals_stims/A.jpg,/static/Simple_RL/Stimuli/Fractals_stims/B.jpg,,,,,,,,175.5,1.5,1.0,
128,,rl_choice_warning,,html-keyboard-response,128,102755,0.0-1.0-214.0-0.0,0,0,3,,,,,,,,,,,,,,,,,,,,,,,,,,,,176.5,1.0,,
129,,isi,,html-keyboard-response,129,102857,0.0-1.0-215.0,0,0,3,,,,,,,,,,,,,,,,,,,,,,,,,,,,178.5,2.0,,
130,,iti,,html-keyboard-response,130,102959,0.0-1.0-217.0,0,0,3,,,,,,,,,,,,,,,,,,,,,,,,,,,,180.0,1.5,,
131,,rl_choice,,html-keyboard-response,131,103245,0.0-1.0-219.0,0,0,3,,284.0,,,51.0,31.0,31.0,1.0,hard,1500.0,2000.0,0.0,40.0,60.0,40.0,80.0,D,C,/static/Simple_RL/Stimuli/Fractals_stims/D.jpg,/static/Simple_RL/Stimuli/Fractals_stims/C.jpg,0.0,60.0,40.0,80.0,40.0,C,D,180.284,0.284,0.0,
132,,rl_choice_confirmation,,html-keyboard-response,132,104466,0.0-1.0-220.0-0.0,0,0,3,,,,,,31.0,,,,,,,,,,,,,,,,,,,,,,181.5,1.216,,
133,,isi,,html-keyboard-response,133,104569,0.0-1.0-222.0,0,0,3,,,,,,,,,,,,,,,,,,,,,,,,,,,,183.5,2.0,,
134,,feedback,,html-keyboard-response,134,105572,0.0-1.0-223.0-0.0,0,0,3,,,,,,31.0,,,,,,,,,,,,,,,,,,,,,,184.5,1.0,,
135,,iti,,html-keyboard-response,135,105673,0.0-1.0-224.0,0,0,3,,,,,,,,,,,,,,,,,,,,,,,,,,,,186.0,1.5,,
136,,rl_choice,,html-keyboard-response,136,106088,0.0-1.0-226.0,0,0,3,,414.0,,,50.0,32.0,32.0,1.0,easy,1000.0,1000.0,0.0,20.0,80.0,20.0,80.0,B,A,/static/Simple_RL/Stimuli/Fractals_stims/B.jpg,/static/Simple_RL/Stimuli/Fractals_stims/A.jpg,1.0,20.0,80.0,20.0,80.0,B,A,186.414,0.414,0.0,
137,,rl_choice_confirmation,,html-keyboard-response,137,107180,0.0-1.0-227.0-0.0,0,0,3,,,,,,32.0,,,,,,,,,,,,,,,,,,,,,,187.5,1.086,,
138,,isi,,html-keyboard-response,138,107284,0.0-1.0-229.0,0,0,3,,,,,,,,,,,,,,,,,,,,,,,,,,,,188.5,1.0,,
139,,feedback,,html-keyboard-response,139,108287,0.0-1.0-230.0-0.0,0,0,3,,,,,,32.0,,,,,,,,,,,,,,,,,,,,,,189.5,1.0,,
140,,iti,,html-keyboard-response,140,108392,0.0-1.0-231.0,0,0,3,,,,,,,,,,,,,,,,,,,,,,,,,,,,190.5,1.0,,
141,,rl_choice,,html-keyboard-response,141,109897,0.0-1.0-233.0,0,0,3,,,,,,33.0,33.0,1.0,easy,3500.0,1000.0,1.0,80.0,20.0,80.0,40.0,A,B,/static/Simple_RL/Stimuli/Fractals_stims/A.jpg,/static/Simple_RL/Stimuli/Fractals_stims/B.jpg,,,,,,,,192.0,1.5,1.0,
142,,rl_choice_warning,,html-keyboard-response,142,110900,0.0-1.0-235.0-0.0,0,0,3,,,,,,,,,,,,,,,,,,,,,,,,,,,,193.0,1.0,,
143,,isi,,html-keyboard-response,143,111001,0.0-1.0-236.0,0,0,3,,,,,,,,,,,,,,,,,,,,,,,,,,,,194.0,1.0,,
144,,iti,,html-keyboard-response,144,111106,0.0-1.0-238.0,0,0,3,,,,,,,,,,,,,,,,,,,,,,,,,,,,197.5,3.5,,
145,,rl_choice,,html-keyboard-response,145,112612,0.0-1.0-240.0,0,0,3,,,,,,34.0,34.0,1.0,hard,2000.0,1500.0,1.0,60.0,40.0,60.0,20.0,C,D,/static/Simple_RL/Stimuli/Fractals_stims/C.jpg,/static/Simple_RL/Stimuli/Fractals_stims/D.jpg,,,,,,,,199.0,1.5,1.0,
146,,rl_choice_warning,,html-keyboard-response,146,113618,0.0-1.0-242.0-0.0,0,0,3,,,,,,,,,,,,,,,,,,,,,,,,,,,,200.0,1.0,,
147,,isi,,html-keyboard-response,147,113720,0.0-1.0-243.0,0,0,3,,,,,,,,,,,,,,,,,,,,,,,,,,,,201.5,1.5,,
148,,iti,,html-keyboard-response,148,113823,0.0-1.0-245.0,0,0,3,,,,,,,,,,,,,,,,,,,,,,,,,,,,203.5,2.0,,
149,,rl_choice,,html-keyboard-response,149,115326,0.0-1.0-247.0,0,0,3,,,,,,35.0,35.0,1.0,hard,1000.0,3500.0,0.0,40.0,60.0,60.0,80.0,D,C,/static/Simple_RL/Stimuli/Fractals_stims/D.jpg,/static/Simple_RL/Stimuli/Fractals_stims/C.jpg,,,,,,,,205.0,1.5,1.0,
150,,rl_choice_warning,,html-keyboard-response,150,116331,0.0-1.0-249.0-0.0,0,0,3,,,,,,,,,,,,,,,,,,,,,,,,,,,,206.0,1.0,,
151,,isi,,html-keyboard-response,151,116436,0.0-1.0-250.0,0,0,3,,,,,,,,,,,,,,,,,,,,,,,,,,,,209.5,3.5,,
152,,iti,,html-keyboard-response,152,116538,0.0-1.0-252.0,0,0,3,,,,,,,,,,,,,,,,,,,,,,,,,,,,210.5,1.0,,
153,,rl_choice,,html-keyboard-response,153,117364,0.0-1.0-254.0,0,0,3,,824.0,,,50.0,36.0,36.0,1.0,hard,1500.0,1000.0,1.0,60.0,40.0,40.0,40.0,C,D,/static/Simple_RL/Stimuli/Fractals_stims/C.jpg,/static/Simple_RL/Stimuli/Fractals_stims/D.jpg,1.0,60.0,40.0,40.0,40.0,C,D,211.324,0.824,0.0,
154,,rl_choice_confirmation,,html-keyboard-response,154,118041,0.0-1.0-255.0-0.0,0,0,3,,,,,,36.0,,,,,,,,,,,,,,,,,,,,,,212.0,0.676,,
155,,isi,,html-keyboard-response,155,118143,0.0-1.0-257.0,0,0,3,,,,,,,,,,,,,,,,,,,,,,,,,,,,213.0,1.0,,
156,,feedback,,html-keyboard-response,156,119145,0.0-1.0-258.0-0.0,0,0,3,,,,,,36.0,,,,,,,,,,,,,,,,,,,,,,214.0,1.0,,
157,,iti,,html-keyboard-response,157,119250,0.0-1.0-259.0,0,0,3,,,,,,,,,,,,,,,,,,,,,,,,,,,,215.5,1.5,,
158,,rl_choice,,html-keyboard-response,158,119540,0.0-1.0-261.0,0,0,3,,289.0,,,51.0,37.0,37.0,1.0,easy,1000.0,1000.0,0.0,20.0,80.0,0.0,100.0,B,A,/static/Simple_RL/Stimuli/Fractals_stims/B.jpg,/static/Simple_RL/Stimuli/Fractals_stims/A.jpg,0.0,80.0,20.0,100.0,0.0,A,B,215.789,0.289,0.0,
159,,rl_choice_confirmation,,html-keyboard-response,159,120756,0.0-1.0-262.0-0.0,0,0,3,,,,,,37.0,,,,,,,,,,,,,,,,,,,,,,217.0,1.211,,
160,,isi,,html-keyboard-response,160,120858,0.0-1.0-264.0,0,0,3,,,,,,,,,,,,,,,,,,,,,,,,,,,,218.0,1.0,,
161,,feedback,,html-keyboard-response,161,121864,0.0-1.0-265.0-0.0,0,0,3,,,,,,37.0,,,,,,,,,,,,,,,,,,,,,,219.0,1.0,,
162,,iti,,html-keyboard-response,162,121967,0.0-1.0-266.0,0,0,3,,,,,,,,,,,,,,,,,,,,,,,,,,,,220.0,1.0,,
163,,rl_choice,,html-keyboard-response,163,123471,0.0-1.0-268.0,0,0,3,,,,,,38.0,38.0,1.0,hard,1500.0,1000.0,0.0,40.0,60.0,40.0,60.0,D,C,/static/Simple_RL/Stimuli/Fractals_stims/D.jpg,/static/Simple_RL/Stimuli/Fractals_stims/C.jpg,,,,,,,,221.5,1.5,1.0,
164,,rl_choice_warning,,html-keyboard-response,164,124473,0.0-1.0-270.0-0.0,0,0,3,,,,,,,,,,,,,,,,,,,,,,,,,,,,222.5,1.0,,
165,,isi,,html-keyboard-response,165,124575,0.0-1.0-271.0,0,0,3,,,,,,,,,,,,,,,,,,,,,,,,,,,,223.5,1.0,,
166,,iti,,html-keyboard-response,166,124676,0.0-1.0-273.0,0,0,3,,,,,,,,,,,,,,,,,,,,,,,,,,,,225.0,1.5,,
167,,rl_choice,,html-keyboard-response,167,126180,0.0-1.0-275.0,0,0,3,,,,,,39.0,39.0,1.0,hard,1500.0,3000.0,0.0,40.0,60.0,60.0,60.0,D,C,/static/Simple_RL/Stimuli/Fractals_stims/D.jpg,/static/Simple_RL/Stimuli/Fractals_stims/C.jpg,,,,,,,,226.5,1.5,1.0,
168,,rl_choice_warning,,html-keyboard-response,168,127184,0.0-1.0-277.0-0.0,0,0,3,,,,,,,,,,,,,,,,,,,,,,,,,,,,227.5,1.0,,
169,,isi,,html-keyboard-response,169,127289,0.0-1.0-278.0,0,0,3,,,,,,,,,,,,,,,,,,,,,,,,,,,,230.5,3.0,,
170,,iti,,html-keyboard-response,170,127391,0.0-1.0-280.0,0,0,3,,,,,,,,,,,,,,,,,,,,,,,,,,,,232.0,1.5,,
171,,block_over,,html-keyboard-response,171,129276,0.0-1.0-281.0-0.0,0,0,3,,1883.0,,,50.0,39.0,,,,,,,,,,,,,,,,,,,,,,,,,
172,,start_run,,html-keyboard-response,172,130085,0.0-1.0-281.0-1.0,0,0,3,,809.0,,,84.0,,,,,,,,,,,,,,,,,,,,,,,,,,
173,,rl_choice,,html-keyboard-response,173,130489,0.0-1.0-282.0,0,0,3,,402.0,,,50.0,40.0,40.0,2.0,easy,3000.0,1000.0,1.0,80.0,20.0,80.0,40.0,A,B,/static/Simple_RL/Stimuli/Fractals_stims/A.jpg,/static/Simple_RL/Stimuli/Fractals_stims/B.jpg,1.0,80.0,20.0,80.0,40.0,A,B,0.402,0.402,0.0,
174,,rl_choice_confirmation,,html-keyboard-response,174,131588,0.0-1.0-283.0-0.0,0,0,3,,,,,,40.0,,,,,,,,,,,,,,,,,,,,,,1.5,1.098,,
175,,isi,,html-keyboard-response,175,131690,0.0-1.0-285.0,0,0,3,,,,,,,,,,,,,,,,,,,,,,,,,,,,2.5,1.0,,
176,,feedback,,html-keyboard-response,176,132695,0.0-1.0-286.0-0.0,0,0,3,,,,,,40.0,,,,,,,,,,,,,,,,,,,,,,3.5,1.0,,
177,,iti,,html-keyboard-response,177,132800,0.0-1.0-287.0,0,0,3,,,,,,,,,,,,,,,,,,,,,,,,,,,,6.5,3.0,,
178,,rl_choice,,html-keyboard-response,178,133088,0.0-1.0-289.0,0,0,3,,286.0,,,51.0,41.0,41.0,2.0,hard,1500.0,1000.0,1.0,60.0,40.0,60.0,40.0,C,D,/static/Simple_RL/Stimuli/Fractals_stims/C.jpg,/static/Simple_RL/Stimuli/Fractals_stims/D.jpg,0.0,40.0,60.0,40.0,60.0,D,C,6.786,0.286,0.0,
179,,rl_choice_confirmation,,html-keyboard-response,179,134307,0.0-1.0-290.0-0.0,0,0,3,,,,,,41.0,,,,,,,,,,,,,,,,,,,,,,8.0,1.214,,
180,,isi,,html-keyboard-response,180,134411,0.0-1.0-292.0,0,0,3,,,,,,,,,,,,,,,,,,,,,,,,,,,,9.0,1.0,,
181,,feedback,,html-keyboard-response,181,135417,0.0-1.0-293.0-0.0,0,0,3,,,,,,41.0,,,,,,,,,,,,,,,,,,,,,,10.0,1.0,,
182,,iti,,html-keyboard-response,182,135523,0.0-1.0-294.0,0,0,3,,,,,,,,,,,,,,,,,,,,,,,,,,,,11.5,1.5,,
183,,rl_choice,,html-keyboard-response,183,135717,0.0-1.0-296.0,0,0,3,,193.0,,,51.0,42.0,42.0,2.0,easy,1000.0,2000.0,0.0,20.0,80.0,20.0,60.0,B,A,/static/Simple_RL/Stimuli/Fractals_stims/B.jpg,/static/Simple_RL/Stimuli/Fractals_stims/A.jpg,0.0,80.0,20.0,60.0,20.0,A,B,11.693,0.193,0.0,
184,,rl_choice_confirmation,,html-keyboard-response,184,137028,0.0-1.0-297.0-0.0,0,0,3,,,,,,42.0,,,,,,,,,,,,,,,,,,,,,,13.0,1.307,,
185,,isi,,html-keyboard-response,185,137134,0.0-1.0-299.0,0,0,3,,,,,,,,,,,,,,,,,,,,,,,,,,,,15.0,2.0,,
186,,feedback,,html-keyboard-response,186,138138,0.0-1.0-300.0-0.0,0,0,3,,,,,,42.0,,,,,,,,,,,,,,,,,,,,,,16.0,1.0,,
187,,iti,,html-keyboard-response,187,138242,0.0-1.0-301.0,0,0,3,,,,,,,,,,,,,,,,,,,,,,,,,,,,17.0,1.0,,
188,,rl_choice,,html-keyboard-response,188,138349,0.0-1.0-303.0,0,0,3,,105.0,,,50.0,43.0,43.0,2.0,hard,1000.0,1000.0,0.0,40.0,60.0,60.0,40.0,D,C,/static/Simple_RL/Stimuli/Fractals_stims/D.jpg,/static/Simple_RL/Stimuli/Fractals_stims/C.jpg,1.0,40.0,60.0,60.0,40.0,D,C,17.105,0.105,0.0,
189,,rl_choice_confirmation,,html-keyboard-response,189,139748,0.0-1.0-304.0-0.0,0,0,3,,,,,,43.0,,,,,,,,,,,,,,,,,,,,,,18.5,1.395,,
190,,isi,,html-keyboard-response,190,139850,0.0-1.0-306.0,0,0,3,,,,,,,,,,,,,,,,,,,,,,,,,,,,19.5,1.0,,
191,,feedback,,html-keyboard-response,191,140852,0.0-1.0-307.0-0.0,0,0,3,,,,,,43.0,,,,,,,,,,,,,,,,,,,,,,20.5,1.0,,
192,,iti,,html-keyboard-response,192,140958,0.0-1.0-308.0,0,0,3,,,,,,,,,,,,,,,,,,,,,,,,,,,,21.5,1.0,,
193,,rl_choice,,html-keyboard-response,193,141149,0.0-1.0-310.0,0,0,3,,190.0,,,51.0,44.0,44.0,2.0,hard,2000.0,3000.0,0.0,40.0,60.0,20.0,40.0,D,C,/static/Simple_RL/Stimuli/Fractals_stims/D.jpg,/static/Simple_RL/Stimuli/Fractals_stims/C.jpg,0.0,60.0,40.0,40.0,20.0,C,D,21.69,0.19,0.0,
194,,rl_choice_confirmation,,html-keyboard-response,194,142464,0.0-1.0-311.0-0.0,0,0,3,,,,,,44.0,,,,,,,,,,,,,,,,,,,,,,23.0,1.31,,
195,,isi,,html-keyboard-response,195,142569,0.0-1.0-313.0,0,0,3,,,,,,,,,,,,,,,,,,,,,,,,,,,,26.0,3.0,,
196,,feedback,,html-keyboard-response,196,143572,0.0-1.0-314.0-0.0,0,0,3,,,,,,44.0,,,,,,,,,,,,,,,,,,,,,,27.0,1.0,,
197,,iti,,html-keyboard-response,197,143674,0.0-1.0-315.0,0,0,3,,,,,,,,,,,,,,,,,,,,,,,,,,,,29.0,2.0,,
198,,rl_choice,,html-keyboard-response,198,145178,0.0-1.0-317.0,0,0,3,,,,,,45.0,45.0,2.0,hard,1500.0,3500.0,0.0,40.0,60.0,20.0,80.0,D,C,/static/Simple_RL/Stimuli/Fractals_stims/D.jpg,/static/Simple_RL/Stimuli/Fractals_stims/C.jpg,,,,,,,,30.5,1.5,1.0,
199,,rl_choice_warning,,html-keyboard-response,199,146184,0.0-1.0-319.0-0.0,1,0,3,,,,,,,,,,,,,,,,,,,,,,,,,,,,31.5,1.0,,
200,,isi,,html-keyboard-response,200,146287,0.0-1.0-320.0,0,0,3,,,,,,,,,,,,,,,,,,,,,,,,,,,,35.0,3.5,,
201,,iti,,html-keyboard-response,201,146393,0.0-1.0-322.0,0,0,3,,,,,,,,,,,,,,,,,,,,,,,,,,,,36.5,1.5,,
202,,rl_choice,,html-keyboard-response,202,147898,0.0-1.0-324.0,0,0,3,,,,,,46.0,46.0,2.0,hard,1000.0,1000.0,1.0,60.0,40.0,80.0,60.0,C,D,/static/Simple_RL/Stimuli/Fractals_stims/C.jpg,/static/Simple_RL/Stimuli/Fractals_stims/D.jpg,,,,,,,,38.0,1.5,1.0,
203,,rl_choice_warning,,html-keyboard-response,203,148901,0.0-1.0-326.0-0.0,1,0,3,,,,,,,,,,,,,,,,,,,,,,,,,,,,39.0,1.0,,
204,,isi,,html-keyboard-response,204,149003,0.0-1.0-327.0,0,0,3,,,,,,,,,,,,,,,,,,,,,,,,,,,,40.0,1.0,,
205,,iti,,html-keyboard-response,205,149109,0.0-1.0-329.0,0,0,3,,,,,,,,,,,,,,,,,,,,,,,,,,,,41.0,1.0,,
206,,rl_choice,,html-keyboard-response,206,150612,0.0-1.0-331.0,0,0,3,,,,,,47.0,47.0,2.0,hard,1500.0,2000.0,0.0,40.0,60.0,40.0,60.0,D,C,/static/Simple_RL/Stimuli/Fractals_stims/D.jpg,/static/Simple_RL/Stimuli/Fractals_stims/C.jpg,,,,,,,,42.5,1.5,1.0,
207,,rl_choice_warning,,html-keyboard-response,207,151617,0.0-1.0-333.0-0.0,1,0,3,,,,,,,,,,,,,,,,,,,,,,,,,,,,43.5,1.0,,
208,,isi,,html-keyboard-response,208,151721,0.0-1.0-334.0,0,0,3,,,,,,,,,,,,,,,,,,,,,,,,,,,,45.5,2.0,,
209,,iti,,html-keyboard-response,209,151822,0.0-1.0-336.0,0,0,3,,,,,,,,,,,,,,,,,,,,,,,,,,,,47.0,1.5,,
210,,rl_choice,,html-keyboard-response,210,153327,0.0-1.0-338.0,0,0,3,,,,,,48.0,48.0,2.0,easy,3500.0,1500.0,1.0,80.0,20.0,100.0,20.0,A,B,/static/Simple_RL/Stimuli/Fractals_stims/A.jpg,/static/Simple_RL/Stimuli/Fractals_stims/B.jpg,,,,,,,,48.5,1.5,1.0,
211,,rl_choice_warning,,html-keyboard-response,211,154330,0.0-1.0-340.0-0.0,1,0,3,,,,,,,,,,,,,,,,,,,,,,,,,,,,49.5,1.0,,
212,,isi,,html-keyboard-response,212,154434,0.0-1.0-341.0,0,0,3,,,,,,,,,,,,,,,,,,,,,,,,,,,,51.0,1.5,,
213,,iti,,html-keyboard-response,213,154540,0.0-1.0-343.0,0,0,3,,,,,,,,,,,,,,,,,,,,,,,,,,,,54.5,3.5,,
214,,rl_choice,,html-keyboard-response,214,156042,0.0-1.0-345.0,0,0,3,,,,,,49.0,49.0,2.0,hard,2000.0,2000.0,1.0,60.0,40.0,80.0,40.0,C,D,/static/Simple_RL/Stimuli/Fractals_stims/C.jpg,/static/Simple_RL/Stimuli/Fractals_stims/D.jpg,,,,,,,,56.0,1.5,1.0,
215,,rl_choice_warning,,html-keyboard-response,215,157044,0.0-1.0-347.0-0.0,1,0,3,,,,,,,,,,,,,,,,,,,,,,,,,,,,57.0,1.0,,
216,,isi,,html-keyboard-response,216,157146,0.0-1.0-348.0,0,0,3,,,,,,,,,,,,,,,,,,,,,,,,,,,,59.0,2.0,,
217,,iti,,html-keyboard-response,217,157251,0.0-1.0-350.0,0,0,3,,,,,,,,,,,,,,,,,,,,,,,,,,,,61.0,2.0,,
218,,rl_choice,,html-keyboard-response,218,158757,0.0-1.0-352.0,0,0,3,,,,,,50.0,50.0,2.0,easy,1500.0,2000.0,1.0,80.0,20.0,100.0,0.0,A,B,/static/Simple_RL/Stimuli/Fractals_stims/A.jpg,/static/Simple_RL/Stimuli/Fractals_stims/B.jpg,,,,,,,,62.5,1.5,1.0,
219,,rl_choice_warning,,html-keyboard-response,219,159759,0.0-1.0-354.0-0.0,1,0,3,,,,,,,,,,,,,,,,,,,,,,,,,,,,63.5,1.0,,
220,,isi,,html-keyboard-response,220,159865,0.0-1.0-355.0,0,0,3,,,,,,,,,,,,,,,,,,,,,,,,,,,,65.5,2.0,,
221,,iti,,html-keyboard-response,221,159970,0.0-1.0-357.0,0,0,3,,,,,,,,,,,,,,,,,,,,,,,,,,,,67.0,1.5,,
222,,rl_choice,,html-keyboard-response,222,161476,0.0-1.0-359.0,0,0,3,,,,,,51.0,51.0,2.0,easy,1500.0,3000.0,0.0,20.0,80.0,20.0,60.0,B,A,/static/Simple_RL/Stimuli/Fractals_stims/B.jpg,/static/Simple_RL/Stimuli/Fractals_stims/A.jpg,,,,,,,,68.5,1.5,1.0,
223,,rl_choice_warning,,html-keyboard-response,223,162479,0.0-1.0-361.0-0.0,1,0,3,,,,,,,,,,,,,,,,,,,,,,,,,,,,69.5,1.0,,
224,,isi,,html-keyboard-response,224,162584,0.0-1.0-362.0,0,0,3,,,,,,,,,,,,,,,,,,,,,,,,,,,,72.5,3.0,,
225,,iti,,html-keyboard-response,225,162687,0.0-1.0-364.0,0,0,3,,,,,,,,,,,,,,,,,,,,,,,,,,,,74.0,1.5,,
226,,rl_choice,,html-keyboard-response,226,164191,0.0-1.0-366.0,0,0,3,,,,,,52.0,52.0,2.0,hard,3500.0,2000.0,0.0,40.0,60.0,60.0,40.0,D,C,/static/Simple_RL/Stimuli/Fractals_stims/D.jpg,/static/Simple_RL/Stimuli/Fractals_stims/C.jpg,,,,,,,,75.5,1.5,1.0,
227,,rl_choice_warning,,html-keyboard-response,227,165195,0.0-1.0-368.0-0.0,1,0,3,,,,,,,,,,,,,,,,,,,,,,,,,,,,76.5,1.0,,
228,,isi,,html-keyboard-response,228,165301,0.0-1.0-369.0,0,0,3,,,,,,,,,,,,,,,,,,,,,,,,,,,,78.5,2.0,,
229,,iti,,html-keyboard-response,229,165402,0.0-1.0-371.0,0,0,3,,,,,,,,,,,,,,,,,,,,,,,,,,,,82.0,3.5,,
230,,rl_choice,,html-keyboard-response,230,166906,0.0-1.0-373.0,0,0,3,,,,,,53.0,53.0,2.0,easy,1500.0,2000.0,0.0,20.0,80.0,0.0,60.0,B,A,/static/Simple_RL/Stimuli/Fractals_stims/B.jpg,/static/Simple_RL/Stimuli/Fractals_stims/A.jpg,,,,,,,,83.5,1.5,1.0,
231,,rl_choice_warning,,html-keyboard-response,231,167908,0.0-1.0-375.0-0.0,1,0,3,,,,,,,,,,,,,,,,,,,,,,,,,,,,84.5,1.0,,
232,,isi,,html-keyboard-response,232,168010,0.0-1.0-376.0,0,0,3,,,,,,,,,,,,,,,,,,,,,,,,,,,,86.5,2.0,,
233,,iti,,html-keyboard-response,233,168116,0.0-1.0-378.0,0,0,3,,,,,,,,,,,,,,,,,,,,,,,,,,,,88.0,1.5,,
234,,rl_choice,,html-keyboard-response,234,169621,0.0-1.0-380.0,0,0,3,,,,,,54.0,54.0,2.0,easy,1000.0,1000.0,0.0,20.0,80.0,20.0,60.0,B,A,/static/Simple_RL/Stimuli/Fractals_stims/B.jpg,/static/Simple_RL/Stimuli/Fractals_stims/A.jpg,,,,,,,,89.5,1.5,1.0,
235,,rl_choice_warning,,html-keyboard-response,235,170623,0.0-1.0-382.0-0.0,1,0,3,,,,,,,,,,,,,,,,,,,,,,,,,,,,90.5,1.0,,
236,,isi,,html-keyboard-response,236,170725,0.0-1.0-383.0,0,0,3,,,,,,,,,,,,,,,,,,,,,,,,,,,,91.5,1.0,,
237,,iti,,html-keyboard-response,237,170830,0.0-1.0-385.0,0,0,3,,,,,,,,,,,,,,,,,,,,,,,,,,,,92.5,1.0,,
238,,rl_choice,,html-keyboard-response,238,172335,0.0-1.0-387.0,0,0,3,,,,,,55.0,55.0,2.0,hard,1500.0,2000.0,1.0,60.0,40.0,80.0,40.0,C,D,/static/Simple_RL/Stimuli/Fractals_stims/C.jpg,/static/Simple_RL/Stimuli/Fractals_stims/D.jpg,,,,,,,,94.0,1.5,1.0,
239,,rl_choice_warning,,html-keyboard-response,239,173338,0.0-1.0-389.0-0.0,1,0,3,,,,,,,,,,,,,,,,,,,,,,,,,,,,95.0,1.0,,
240,,isi,,html-keyboard-response,240,173439,0.0-1.0-390.0,0,0,3,,,,,,,,,,,,,,,,,,,,,,,,,,,,97.0,2.0,,
241,,iti,,html-keyboard-response,241,173545,0.0-1.0-392.0,0,0,3,,,,,,,,,,,,,,,,,,,,,,,,,,,,98.5,1.5,,
242,,rl_choice,,html-keyboard-response,242,175051,0.0-1.0-394.0,0,0,3,,,,,,56.0,56.0,2.0,easy,1000.0,1000.0,1.0,80.0,20.0,80.0,40.0,A,B,/static/Simple_RL/Stimuli/Fractals_stims/A.jpg,/static/Simple_RL/Stimuli/Fractals_stims/B.jpg,,,,,,,,100.0,1.5,1.0,
243,,rl_choice_warning,,html-keyboard-response,243,176056,0.0-1.0-396.0-0.0,1,0,3,,,,,,,,,,,,,,,,,,,,,,,,,,,,101.0,1.0,,
244,,isi,,html-keyboard-response,244,176159,0.0-1.0-397.0,0,0,3,,,,,,,,,,,,,,,,,,,,,,,,,,,,102.0,1.0,,
245,,iti,,html-keyboard-response,245,176262,0.0-1.0-399.0,0,0,3,,,,,,,,,,,,,,,,,,,,,,,,,,,,103.0,1.0,,
246,,rl_choice,,html-keyboard-response,246,177768,0.0-1.0-401.0,0,0,3,,,,,,57.0,57.0,2.0,easy,2000.0,3000.0,1.0,80.0,20.0,60.0,0.0,A,B,/static/Simple_RL/Stimuli/Fractals_stims/A.jpg,/static/Simple_RL/Stimuli/Fractals_stims/B.jpg,,,,,,,,104.5,1.5,1.0,
247,,rl_choice_warning,,html-keyboard-response,247,178773,0.0-1.0-403.0-0.0,1,0,3,,,,,,,,,,,,,,,,,,,,,,,,,,,,105.5,1.0,,
248,,isi,,html-keyboard-response,248,178874,0.0-1.0-404.0,0,0,3,,,,,,,,,,,,,,,,,,,,,,,,,,,,108.5,3.0,,
249,,iti,,html-keyboard-response,249,178975,0.0-1.0-406.0,0,0,3,,,,,,,,,,,,,,,,,,,,,,,,,,,,110.5,2.0,,
250,,rl_choice,,html-keyboard-response,250,180479,0.0-1.0-408.0,0,0,3,,,,,,58.0,58.0,2.0,hard,2000.0,1000.0,1.0,60.0,40.0,40.0,40.0,C,D,/static/Simple_RL/Stimuli/Fractals_stims/C.jpg,/static/Simple_RL/Stimuli/Fractals_stims/D.jpg,,,,,,,,112.0,1.5,1.0,
251,,rl_choice_warning,,html-keyboard-response,251,181484,0.0-1.0-410.0-0.0,1,0,3,,,,,,,,,,,,,,,,,,,,,,,,,,,,113.0,1.0,,
252,,isi,,html-keyboard-response,252,181589,0.0-1.0-411.0,0,0,3,,,,,,,,,,,,,,,,,,,,,,,,,,,,114.0,1.0,,
253,,iti,,html-keyboard-response,253,181690,0.0-1.0-413.0,0,0,3,,,,,,,,,,,,,,,,,,,,,,,,,,,,116.0,2.0,,
254,,rl_choice,,html-keyboard-response,254,183194,0.0-1.0-415.0,0,0,3,,,,,,59.0,59.0,2.0,easy,1000.0,1500.0,1.0,80.0,20.0,80.0,0.0,A,B,/static/Simple_RL/Stimuli/Fractals_stims/A.jpg,/static/Simple_RL/Stimuli/Fractals_stims/B.jpg,,,,,,,,117.5,1.5,1.0,
255,,rl_choice_warning,,html-keyboard-response,255,184196,0.0-1.0-417.0-0.0,1,0,3,,,,,,,,,,,,,,,,,,,,,,,,,,,,118.5,1.0,,
256,,isi,,html-keyboard-response,256,184301,0.0-1.0-418.0,0,0,3,,,,,,,,,,,,,,,,,,,,,,,,,,,,120.0,1.5,,
257,,iti,,html-keyboard-response,257,184405,0.0-1.0-420.0,0,0,3,,,,,,,,,,,,,,,,,,,,,,,,,,,,121.0,1.0,,
258,,rl_choice,,html-keyboard-response,258,185909,0.0-1.0-422.0,0,0,3,,,,,,60.0,60.0,2.0,easy,1000.0,3500.0,1.0,80.0,20.0,80.0,0.0,A,B,/static/Simple_RL/Stimuli/Fractals_stims/A.jpg,/static/Simple_RL/Stimuli/Fractals_stims/B.jpg,,,,,,,,122.5,1.5,1.0,
259,,rl_choice_warning,,html-keyboard-response,259,186912,0.0-1.0-424.0-0.0,1,0,3,,,,,,,,,,,,,,,,,,,,,,,,,,,,123.5,1.0,,
260,,isi,,html-keyboard-response,260,187017,0.0-1.0-425.0,0,0,3,,,,,,,,,,,,,,,,,,,,,,,,,,,,127.0,3.5,,
261,,iti,,html-keyboard-response,261,187119,0.0-1.0-427.0,0,0,3,,,,,,,,,,,,,,,,,,,,,,,,,,,,128.0,1.0,,
262,,rl_choice,,html-keyboard-response,262,188624,0.0-1.0-429.0,0,0,3,,,,,,61.0,61.0,2.0,hard,3000.0,1500.0,0.0,40.0,60.0,40.0,60.0,D,C,/static/Simple_RL/Stimuli/Fractals_stims/D.jpg,/static/Simple_RL/Stimuli/Fractals_stims/C.jpg,,,,,,,,129.5,1.5,1.0,
263,,rl_choice_warning,,html-keyboard-response,263,189626,0.0-1.0-431.0-0.0,1,0,3,,,,,,,,,,,,,,,,,,,,,,,,,,,,130.5,1.0,,
264,,isi,,html-keyboard-response,264,189728,0.0-1.0-432.0,0,0,3,,,,,,,,,,,,,,,,,,,,,,,,,,,,132.0,1.5,,
265,,iti,,html-keyboard-response,265,189829,0.0-1.0-434.0,0,0,3,,,,,,,,,,,,,,,,,,,,,,,,,,,,135.0,3.0,,
266,,rl_choice,,html-keyboard-response,266,191335,0.0-1.0-436.0,0,0,3,,,,,,62.0,62.0,2.0,easy,1000.0,1500.0,0.0,20.0,80.0,40.0,100.0,B,A,/static/Simple_RL/Stimuli/Fractals_stims/B.jpg,/static/Simple_RL/Stimuli/Fractals_stims/A.jpg,,,,,,,,136.5,1.5,1.0,
267,,rl_choice_warning,,html-keyboard-response,267,192340,0.0-1.0-438.0-0.0,1,0,3,,,,,,,,,,,,,,,,,,,,,,,,,,,,137.5,1.0,,
268,,isi,,html-keyboard-response,268,192442,0.0-1.0-439.0,0,0,3,,,,,,,,,,,,,,,,,,,,,,,,,,,,139.0,1.5,,
269,,iti,,html-keyboard-response,269,192544,0.0-1.0-441.0,0,0,3,,,,,,,,,,,,,,,,,,,,,,,,,,,,140.0,1.0,,
270,,rl_choice,,html-keyboard-response,270,194048,0.0-1.0-443.0,0,0,3,,,,,,63.0,63.0,2.0,easy,2000.0,1500.0,1.0,80.0,20.0,60.0,0.0,A,B,/static/Simple_RL/Stimuli/Fractals_stims/A.jpg,/static/Simple_RL/Stimuli/Fractals_stims/B.jpg,,,,,,,,141.5,1.5,1.0,
271,,rl_choice_warning,,html-keyboard-response,271,195052,0.0-1.0-445.0-0.0,1,0,3,,,,,,,,,,,,,,,,,,,,,,,,,,,,142.5,1.0,,
272,,isi,,html-keyboard-response,272,195157,0.0-1.0-446.0,0,0,3,,,,,,,,,,,,,,,,,,,,,,,,,,,,144.0,1.5,,
273,,iti,,html-keyboard-response,273,195258,0.0-1.0-448.0,0,0,3,,,,,,,,,,,,,,,,,,,,,,,,,,,,146.0,2.0,,
274,,rl_choice,,html-keyboard-response,274,196762,0.0-1.0-450.0,0,0,3,,,,,,64.0,64.0,2.0,hard,1500.0,1000.0,0.0,40.0,60.0,40.0,60.0,D,C,/static/Simple_RL/Stimuli/Fractals_stims/D.jpg,/static/Simple_RL/Stimuli/Fractals_stims/C.jpg,,,,,,,,147.5,1.5,1.0,
275,,rl_choice_warning,,html-keyboard-response,275,197765,0.0-1.0-452.0-0.0,1,0,3,,,,,,,,,,,,,,,,,,,,,,,,,,,,148.5,1.0,,
276,,isi,,html-keyboard-response,276,197868,0.0-1.0-453.0,0,0,3,,,,,,,,,,,,,,,,,,,,,,,,,,,,149.5,1.0,,
277,,iti,,html-keyboard-response,277,197973,0.0-1.0-455.0,0,0,3,,,,,,,,,,,,,,,,,,,,,,,,,,,,151.0,1.5,,
278,,rl_choice,,html-keyboard-response,278,199477,0.0-1.0-457.0,0,0,3,,,,,,65.0,65.0,2.0,hard,1000.0,1000.0,0.0,40.0,60.0,60.0,80.0,D,C,/static/Simple_RL/Stimuli/Fractals_stims/D.jpg,/static/Simple_RL/Stimuli/Fractals_stims/C.jpg,,,,,,,,152.5,1.5,1.0,
279,,rl_choice_warning,,html-keyboard-response,279,200480,0.0-1.0-459.0-0.0,1,0,3,,,,,,,,,,,,,,,,,,,,,,,,,,,,153.5,1.0,,
280,,isi,,html-keyboard-response,280,200585,0.0-1.0-460.0,0,0,3,,,,,,,,,,,,,,,,,,,,,,,,,,,,154.5,1.0,,
281,,iti,,html-keyboard-response,281,200688,0.0-1.0-462.0,0,0,3,,,,,,,,,,,,,,,,,,,,,,,,,,,,155.5,1.0,,
282,,rl_choice,,html-keyboard-response,282,202192,0.0-1.0-464.0,0,0,3,,,,,,66.0,66.0,2.0,easy,2000.0,1500.0,1.0,80.0,20.0,80.0,0.0,A,B,/static/Simple_RL/Stimuli/Fractals_stims/A.jpg,/static/Simple_RL/Stimuli/Fractals_stims/B.jpg,,,,,,,,157.0,1.5,1.0,
283,,rl_choice_warning,,html-keyboard-response,283,203197,0.0-1.0-466.0-0.0,1,0,3,,,,,,,,,,,,,,,,,,,,,,,,,,,,158.0,1.0,,
284,,isi,,html-keyboard-response,284,203302,0.0-1.0-467.0,0,0,3,,,,,,,,,,,,,,,,,,,,,,,,,,,,159.5,1.5,,
285,,iti,,html-keyboard-response,285,203407,0.0-1.0-469.0,0,0,3,,,,,,,,,,,,,,,,,,,,,,,,,,,,161.5,2.0,,
286,,rl_choice,,html-keyboard-response,286,204911,0.0-1.0-471.0,0,0,3,,,,,,67.0,67.0,2.0,easy,1000.0,1000.0,0.0,20.0,80.0,40.0,80.0,B,A,/static/Simple_RL/Stimuli/Fractals_stims/B.jpg,/static/Simple_RL/Stimuli/Fractals_stims/A.jpg,,,,,,,,163.0,1.5,1.0,
287,,rl_choice_warning,,html-keyboard-response,287,205914,0.0-1.0-473.0-0.0,1,0,3,,,,,,,,,,,,,,,,,,,,,,,,,,,,164.0,1.0,,
288,,isi,,html-keyboard-response,288,206018,0.0-1.0-474.0,0,0,3,,,,,,,,,,,,,,,,,,,,,,,,,,,,165.0,1.0,,
289,,iti,,html-keyboard-response,289,206122,0.0-1.0-476.0,0,0,3,,,,,,,,,,,,,,,,,,,,,,,,,,,,166.0,1.0,,
290,,rl_choice,,html-keyboard-response,290,207627,0.0-1.0-478.0,0,0,3,,,,,,68.0,68.0,2.0,hard,1000.0,1500.0,1.0,60.0,40.0,40.0,60.0,C,D,/static/Simple_RL/Stimuli/Fractals_stims/C.jpg,/static/Simple_RL/Stimuli/Fractals_stims/D.jpg,,,,,,,,167.5,1.5,1.0,
291,,rl_choice_warning,,html-keyboard-response,291,208629,0.0-1.0-480.0-0.0,1,0,3,,,,,,,,,,,,,,,,,,,,,,,,,,,,168.5,1.0,,
292,,isi,,html-keyboard-response,292,208735,0.0-1.0-481.0,0,0,3,,,,,,,,,,,,,,,,,,,,,,,,,,,,170.0,1.5,,
293,,iti,,html-keyboard-response,293,208837,0.0-1.0-483.0,0,0,3,,,,,,,,,,,,,,,,,,,,,,,,,,,,171.0,1.0,,
294,,rl_choice,,html-keyboard-response,294,210341,0.0-1.0-485.0,0,0,3,,,,,,69.0,69.0,2.0,hard,1000.0,3000.0,1.0,60.0,40.0,40.0,20.0,C,D,/static/Simple_RL/Stimuli/Fractals_stims/C.jpg,/static/Simple_RL/Stimuli/Fractals_stims/D.jpg,,,,,,,,172.5,1.5,1.0,
295,,rl_choice_warning,,html-keyboard-response,295,211343,0.0-1.0-487.0-0.0,1,0,3,,,,,,,,,,,,,,,,,,,,,,,,,,,,173.5,1.0,,
296,,isi,,html-keyboard-response,296,211445,0.0-1.0-488.0,0,0,3,,,,,,,,,,,,,,,,,,,,,,,,,,,,176.5,3.0,,
297,,iti,,html-keyboard-response,297,211548,0.0-1.0-490.0,0,0,3,,,,,,,,,,,,,,,,,,,,,,,,,,,,177.5,1.0,,
298,,rl_choice,,html-keyboard-response,298,213052,0.0-1.0-492.0,0,0,3,,,,,,70.0,70.0,2.0,hard,1000.0,1000.0,0.0,40.0,60.0,40.0,60.0,D,C,/static/Simple_RL/Stimuli/Fractals_stims/D.jpg,/static/Simple_RL/Stimuli/Fractals_stims/C.jpg,,,,,,,,179.0,1.5,1.0,
299,,rl_choice_warning,,html-keyboard-response,299,214055,0.0-1.0-494.0-0.0,1,0,3,,,,,,,,,,,,,,,,,,,,,,,,,,,,180.0,1.0,,
300,,isi,,html-keyboard-response,300,214160,0.0-1.0-495.0,0,0,3,,,,,,,,,,,,,,,,,,,,,,,,,,,,181.0,1.0,,
301,,iti,,html-keyboard-response,301,214261,0.0-1.0-497.0,0,0,3,,,,,,,,,,,,,,,,,,,,,,,,,,,,182.0,1.0,,
302,,rl_choice,,html-keyboard-response,302,215767,0.0-1.0-499.0,0,0,3,,,,,,71.0,71.0,2.0,easy,2000.0,1000.0,0.0,20.0,80.0,20.0,100.0,B,A,/static/Simple_RL/Stimuli/Fractals_stims/B.jpg,/static/Simple_RL/Stimuli/Fractals_stims/A.jpg,,,,,,,,183.5,1.5,1.0,
303,,rl_choice_warning,,html-keyboard-response,303,216769,0.0-1.0-501.0-0.0,1,0,3,,,,,,,,,,,,,,,,,,,,,,,,,,,,184.5,1.0,,
304,,isi,,html-keyboard-response,304,216875,0.0-1.0-502.0,0,0,3,,,,,,,,,,,,,,,,,,,,,,,,,,,,185.5,1.0,,
305,,iti,,html-keyboard-response,305,216980,0.0-1.0-504.0,0,0,3,,,,,,,,,,,,,,,,,,,,,,,,,,,,187.5,2.0,,
306,,rl_choice,,html-keyboard-response,306,218485,0.0-1.0-506.0,0,0,3,,,,,,72.0,72.0,2.0,easy,1500.0,1000.0,0.0,20.0,80.0,20.0,60.0,B,A,/static/Simple_RL/Stimuli/Fractals_stims/B.jpg,/static/Simple_RL/Stimuli/Fractals_stims/A.jpg,,,,,,,,189.0,1.5,1.0,
307,,rl_choice_warning,,html-keyboard-response,307,219487,0.0-1.0-508.0-0.0,1,0,3,,,,,,,,,,,,,,,,,,,,,,,,,,,,190.0,1.0,,
308,,isi,,html-keyboard-response,308,219589,0.0-1.0-509.0,0,0,3,,,,,,,,,,,,,,,,,,,,,,,,,,,,191.0,1.0,,
309,,iti,,html-keyboard-response,309,219691,0.0-1.0-511.0,0,0,3,,,,,,,,,,,,,,,,,,,,,,,,,,,,192.5,1.5,,
310,,rl_choice,,html-keyboard-response,310,221197,0.0-1.0-513.0,0,0,3,,,,,,73.0,73.0,2.0,easy,1500.0,2000.0,0.0,20.0,80.0,20.0,80.0,B,A,/static/Simple_RL/Stimuli/Fractals_stims/B.jpg,/static/Simple_RL/Stimuli/Fractals_stims/A.jpg,,,,,,,,194.0,1.5,1.0,
311,,rl_choice_warning,,html-keyboard-response,311,222203,0.0-1.0-515.0-0.0,1,0,3,,,,,,,,,,,,,,,,,,,,,,,,,,,,195.0,1.0,,
312,,isi,,html-keyboard-response,312,222304,0.0-1.0-516.0,0,0,3,,,,,,,,,,,,,,,,,,,,,,,,,,,,197.0,2.0,,
313,,iti,,html-keyboard-response,313,222407,0.0-1.0-518.0,0,0,3,,,,,,,,,,,,,,,,,,,,,,,,,,,,198.5,1.5,,
314,,rl_choice,,html-keyboard-response,314,223909,0.0-1.0-520.0,0,0,3,,,,,,74.0,74.0,2.0,hard,1000.0,1500.0,1.0,60.0,40.0,40.0,60.0,C,D,/static/Simple_RL/Stimuli/Fractals_stims/C.jpg,/static/Simple_RL/Stimuli/Fractals_stims/D.jpg,,,,,,,,200.0,1.5,1.0,
315,,rl_choice_warning,,html-keyboard-response,315,224912,0.0-1.0-522.0-0.0,1,0,3,,,,,,,,,,,,,,,,,,,,,,,,,,,,201.0,1.0,,
316,,isi,,html-keyboard-response,316,225016,0.0-1.0-523.0,0,0,3,,,,,,,,,,,,,,,,,,,,,,,,,,,,202.5,1.5,,
317,,iti,,html-keyboard-response,317,225122,0.0-1.0-525.0,0,0,3,,,,,,,,,,,,,,,,,,,,,,,,,,,,203.5,1.0,,
318,,rl_choice,,html-keyboard-response,318,226624,0.0-1.0-527.0,0,0,3,,,,,,75.0,75.0,2.0,hard,1000.0,1500.0,1.0,60.0,40.0,60.0,20.0,C,D,/static/Simple_RL/Stimuli/Fractals_stims/C.jpg,/static/Simple_RL/Stimuli/Fractals_stims/D.jpg,,,,,,,,205.0,1.5,1.0,
319,,rl_choice_warning,,html-keyboard-response,319,227626,0.0-1.0-529.0-0.0,1,0,3,,,,,,,,,,,,,,,,,,,,,,,,,,,,206.0,1.0,,
320,,isi,,html-keyboard-response,320,227728,0.0-1.0-530.0,0,0,3,,,,,,,,,,,,,,,,,,,,,,,,,,,,207.5,1.5,,
321,,iti,,html-keyboard-response,321,227830,0.0-1.0-532.0,0,0,3,,,,,,,,,,,,,,,,,,,,,,,,,,,,208.5,1.0,,
322,,rl_choice,,html-keyboard-response,322,229335,0.0-1.0-534.0,0,0,3,,,,,,76.0,76.0,2.0,hard,3000.0,1000.0,1.0,60.0,40.0,40.0,60.0,C,D,/static/Simple_RL/Stimuli/Fractals_stims/C.jpg,/static/Simple_RL/Stimuli/Fractals_stims/D.jpg,,,,,,,,210.0,1.5,1.0,
323,,rl_choice_warning,,html-keyboard-response,323,230342,0.0-1.0-536.0-0.0,1,0,3,,,,,,,,,,,,,,,,,,,,,,,,,,,,211.0,1.0,,
324,,isi,,html-keyboard-response,324,230443,0.0-1.0-537.0,0,0,3,,,,,,,,,,,,,,,,,,,,,,,,,,,,212.0,1.0,,
325,,iti,,html-keyboard-response,325,230544,0.0-1.0-539.0,0,0,3,,,,,,,,,,,,,,,,,,,,,,,,,,,,215.0,3.0,,
326,,rl_choice,,html-keyboard-response,326,232048,0.0-1.0-541.0,0,0,3,,,,,,77.0,77.0,2.0,easy,1000.0,1000.0,0.0,20.0,80.0,20.0,60.0,B,A,/static/Simple_RL/Stimuli/Fractals_stims/B.jpg,/static/Simple_RL/Stimuli/Fractals_stims/A.jpg,,,,,,,,216.5,1.5,1.0,
327,,rl_choice_warning,,html-keyboard-response,327,233052,0.0-1.0-543.0-0.0,1,0,3,,,,,,,,,,,,,,,,,,,,,,,,,,,,217.5,1.0,,
328,,isi,,html-keyboard-response,328,233158,0.0-1.0-544.0,0,0,3,,,,,,,,,,,,,,,,,,,,,,,,,,,,218.5,1.0,,
329,,iti,,html-keyboard-response,329,233259,0.0-1.0-546.0,0,0,3,,,,,,,,,,,,,,,,,,,,,,,,,,,,219.5,1.0,,
330,,rl_choice,,html-keyboard-response,330,234763,0.0-1.0-548.0,0,0,3,,,,,,78.0,78.0,2.0,easy,3000.0,1000.0,0.0,20.0,80.0,0.0,100.0,B,A,/static/Simple_RL/Stimuli/Fractals_stims/B.jpg,/static/Simple_RL/Stimuli/Fractals_stims/A.jpg,,,,,,,,221.0,1.5,1.0,
331,,rl_choice_warning,,html-keyboard-response,331,235769,0.0-1.0-550.0-0.0,1,0,3,,,,,,,,,,,,,,,,,,,,,,,,,,,,222.0,1.0,,
332,,isi,,html-keyboard-response,332,235872,0.0-1.0-551.0,0,0,3,,,,,,,,,,,,,,,,,,,,,,,,,,,,223.0,1.0,,
333,,iti,,html-keyboard-response,333,235974,0.0-1.0-553.0,0,0,3,,,,,,,,,,,,,,,,,,,,,,,,,,,,226.0,3.0,,
334,,rl_choice,,html-keyboard-response,334,237478,0.0-1.0-555.0,0,0,3,,,,,,79.0,79.0,2.0,hard,2000.0,1500.0,1.0,60.0,40.0,60.0,40.0,C,D,/static/Simple_RL/Stimuli/Fractals_stims/C.jpg,/static/Simple_RL/Stimuli/Fractals_stims/D.jpg,,,,,,,,227.5,1.5,1.0,
335,,rl_choice_warning,,html-keyboard-response,335,238480,0.0-1.0-557.0-0.0,1,0,3,,,,,,,,,,,,,,,,,,,,,,,,,,,,228.5,1.0,,
336,,isi,,html-keyboard-response,336,238586,0.0-1.0-558.0,0,0,3,,,,,,,,,,,,,,,,,,,,,,,,,,,,230.0,1.5,,
337,,iti,,html-keyboard-response,337,238688,0.0-1.0-560.0,0,0,3,,,,,,,,,,,,,,,,,,,,,,,,,,,,232.0,2.0,,0.26
338,,final_tally,,html-keyboard-response,338,258583,0.0-2.0,0,0,3,,19893.0,,,50.0,,,,,,,,,,,,,,,,,,,,,,,,,,
