,success,ttype,start_time,trial_type,trial_index,time_elapsed,internal_node_id,warning,missed_checkup,PID,view_history,rt,responses,repeat_instructions,key_press,index,trial_num,block,condition,iti,isi,high_group_on_left,left_group_value,right_group_value,left_item_value,right_item_value,left_img,right_img,left_img_path,right_img_path,left_chosen,chosen_group_value,unchosen_group_value,chosen_item_value,unchosen_item_value,chosen_img,unchosen_img,onset,duration,no_response,total_bonus_tally
0,True,full_screen,d06012022hr2345,fullscreen,0,6049,0.0-0.0,0,0,4,,,,,,,,,,,,,,,,,,,,,,,,,,,,,,,
1,,size_instructions,,instructions,1,13624,0.0-1.0-0.0-0.0,0,0,4,"[{""page_index"":0,""viewing_time"":4942},{""page_index"":1,""viewing_time"":1421},{""page_index"":2,""viewing_time"":216},{""page_index"":3,""viewing_time"":227},{""page_index"":4,""viewing_time"":187},{""page_index"":5,""viewing_time"":581}]",7574.0,,,,,,,,,,,,,,,,,,,,,,,,,,,,,
2,,rl_comprehension_check,,survey-multi-choice,2,25297,0.0-1.0-0.0-1.0,0,0,4,,11671.0,"{""Q0"":""True"",""Q1"":""True"",""Q2"":""pointer finger for left and middle finger for right""}",0.0,,,,,,,,,,,,,,,,,,,,,,,,,,,
3,,,,html-keyboard-response,3,26743,0.0-1.0-1.0,0,0,4,,1443.0,,,50.0,,,,,,,,,,,,,,,,,,,,,,,,,,
4,,rl_choice,,html-keyboard-response,4,27297,0.0-1.0-2.0,0,0,4,,552.0,,,50.0,0.0,0.0,1.0,hard,1000.0,2000.0,0.0,40.0,60.0,20.0,60.0,C,D,/static/Simple_RL/Stimuli/Fractals_stims/C.jpg,/static/Simple_RL/Stimuli/Fractals_stims/D.jpg,1.0,40.0,60.0,20.0,60.0,C,D,0.552,0.552,0.0,
5,,rl_choice_confirmation,,html-keyboard-response,5,28248,0.0-1.0-3.0-0.0,0,0,4,,,,,,0.0,,,,,,,,,,,,,,,,,,,,,,1.5,0.948,,
6,,isi,,html-keyboard-response,6,28352,0.0-1.0-5.0,0,0,4,,,,,,,,,,,,,,,,,,,,,,,,,,,,3.5,2.0,,
7,,feedback,,html-keyboard-response,7,29355,0.0-1.0-6.0-0.0,0,0,4,,,,,,0.0,,,,,,,,,,,,,,,,,,,,,,4.5,1.0,,
8,,iti,,html-keyboard-response,8,29460,0.0-1.0-7.0,0,0,4,,,,,,,,,,,,,,,,,,,,,,,,,,,,5.5,1.0,,
9,,rl_choice,,html-keyboard-response,9,29521,0.0-1.0-9.0,0,0,4,,59.0,,,50.0,1.0,1.0,1.0,easy,1000.0,3000.0,1.0,80.0,20.0,100.0,40.0,B,A,/static/Simple_RL/Stimuli/Fractals_stims/B.jpg,/static/Simple_RL/Stimuli/Fractals_stims/A.jpg,1.0,80.0,20.0,100.0,40.0,B,A,5.559,0.059,0.0,
10,,rl_choice_confirmation,,html-keyboard-response,10,30964,0.0-1.0-10.0-0.0,0,0,4,,,,,,1.0,,,,,,,,,,,,,,,,,,,,,,7.0,1.441,,
11,,isi,,html-keyboard-response,11,31065,0.0-1.0-12.0,0,0,4,,,,,,,,,,,,,,,,,,,,,,,,,,,,10.0,3.0,,
12,,feedback,,html-keyboard-response,12,32413,0.0-1.0-13.0-0.0,0,0,4,,,,,,1.0,,,,,,,,,,,,,,,,,,,,,,11.0,1.0,,
13,,iti,,html-keyboard-response,13,33413,0.0-1.0-14.0,0,0,4,,,,,,,,,,,,,,,,,,,,,,,,,,,,12.0,1.0,,
14,,rl_choice,,html-keyboard-response,14,35400,0.0-1.0-16.0,0,0,4,,,,,,2.0,2.0,1.0,hard,3000.0,1000.0,0.0,40.0,60.0,20.0,80.0,C,D,/static/Simple_RL/Stimuli/Fractals_stims/C.jpg,/static/Simple_RL/Stimuli/Fractals_stims/D.jpg,,,,,,,,13.5,1.5,1.0,
15,,rl_choice_warning,,html-keyboard-response,15,37379,0.0-1.0-18.0-0.0,0,0,4,,,,,,,,,,,,,,,,,,,,,,,,,,,,14.5,1.0,,
16,,isi,,html-keyboard-response,16,38380,0.0-1.0-19.0,0,0,4,,,,,,,,,,,,,,,,,,,,,,,,,,,,15.5,1.0,,
17,,iti,,html-keyboard-response,17,39876,0.0-1.0-21.0,0,0,4,,,,,,,,,,,,,,,,,,,,,,,,,,,,18.5,3.0,,
18,,rl_choice,,html-keyboard-response,18,41781,0.0-1.0-23.0,0,0,4,,,,,,3.0,3.0,1.0,hard,1000.0,3500.0,0.0,40.0,60.0,60.0,60.0,C,D,/static/Simple_RL/Stimuli/Fractals_stims/C.jpg,/static/Simple_RL/Stimuli/Fractals_stims/D.jpg,,,,,,,,20.0,1.5,1.0,
19,,rl_choice_warning,,html-keyboard-response,19,43587,0.0-1.0-25.0-0.0,0,0,4,,,,,,,,,,,,,,,,,,,,,,,,,,,,21.0,1.0,,
20,,isi,,html-keyboard-response,20,44379,0.0-1.0-26.0,0,0,4,,,,,,,,,,,,,,,,,,,,,,,,,,,,24.5,3.5,,
21,,iti,,html-keyboard-response,21,45871,0.0-1.0-28.0,0,0,4,,,,,,,,,,,,,,,,,,,,,,,,,,,,25.5,1.0,,
22,,rl_choice,,html-keyboard-response,22,47437,0.0-1.0-30.0,0,0,4,,,,,,4.0,4.0,1.0,hard,1500.0,3000.0,0.0,40.0,60.0,20.0,60.0,C,D,/static/Simple_RL/Stimuli/Fractals_stims/C.jpg,/static/Simple_RL/Stimuli/Fractals_stims/D.jpg,,,,,,,,27.0,1.5,1.0,
23,,rl_choice_warning,,html-keyboard-response,23,49379,0.0-1.0-32.0-0.0,0,0,4,,,,,,,,,,,,,,,,,,,,,,,,,,,,28.0,1.0,,
24,,isi,,html-keyboard-response,24,50447,0.0-1.0-33.0,0,0,4,,,,,,,,,,,,,,,,,,,,,,,,,,,,31.0,3.0,,
25,,iti,,html-keyboard-response,25,51380,0.0-1.0-35.0,0,0,4,,,,,,,,,,,,,,,,,,,,,,,,,,,,32.5,1.5,,
26,,rl_choice,,html-keyboard-response,26,53380,0.0-1.0-37.0,0,0,4,,,,,,5.0,5.0,1.0,easy,2000.0,2000.0,0.0,20.0,80.0,20.0,100.0,A,B,/static/Simple_RL/Stimuli/Fractals_stims/A.jpg,/static/Simple_RL/Stimuli/Fractals_stims/B.jpg,,,,,,,,34.0,1.5,1.0,
27,,rl_choice_warning,,html-keyboard-response,27,54486,0.0-1.0-39.0-0.0,0,0,4,,,,,,,,,,,,,,,,,,,,,,,,,,,,35.0,1.0,,
28,,isi,,html-keyboard-response,28,54591,0.0-1.0-40.0,0,0,4,,,,,,,,,,,,,,,,,,,,,,,,,,,,37.0,2.0,,
29,,iti,,html-keyboard-response,29,54692,0.0-1.0-42.0,0,0,4,,,,,,,,,,,,,,,,,,,,,,,,,,,,39.0,2.0,,
30,,rl_choice,,html-keyboard-response,30,56066,0.0-1.0-44.0,0,0,4,,1374.0,,,51.0,6.0,6.0,1.0,hard,1000.0,1000.0,0.0,40.0,60.0,40.0,80.0,C,D,/static/Simple_RL/Stimuli/Fractals_stims/C.jpg,/static/Simple_RL/Stimuli/Fractals_stims/D.jpg,0.0,60.0,40.0,80.0,40.0,D,C,40.374,1.374,0.0,
31,,rl_choice_confirmation,,html-keyboard-response,31,56197,0.0-1.0-45.0-0.0,0,0,4,,,,,,6.0,,,,,,,,,,,,,,,,,,,,,,40.5,0.126,,
32,,isi,,html-keyboard-response,32,56303,0.0-1.0-47.0,0,0,4,,,,,,,,,,,,,,,,,,,,,,,,,,,,41.5,1.0,,
33,,feedback,,html-keyboard-response,33,57305,0.0-1.0-48.0-0.0,0,0,4,,,,,,6.0,,,,,,,,,,,,,,,,,,,,,,42.5,1.0,,
34,,iti,,html-keyboard-response,34,57408,0.0-1.0-49.0,0,0,4,,,,,,,,,,,,,,,,,,,,,,,,,,,,43.5,1.0,,
35,,rl_choice,,html-keyboard-response,35,57541,0.0-1.0-51.0,0,0,4,,132.0,,,50.0,7.0,7.0,1.0,hard,1500.0,1000.0,0.0,40.0,60.0,60.0,80.0,C,D,/static/Simple_RL/Stimuli/Fractals_stims/C.jpg,/static/Simple_RL/Stimuli/Fractals_stims/D.jpg,1.0,40.0,60.0,60.0,80.0,C,D,43.632,0.132,0.0,
36,,rl_choice_confirmation,,html-keyboard-response,36,58915,0.0-1.0-52.0-0.0,0,0,4,,,,,,7.0,,,,,,,,,,,,,,,,,,,,,,45.0,1.368,,
37,,isi,,html-keyboard-response,37,59018,0.0-1.0-54.0,0,0,4,,,,,,,,,,,,,,,,,,,,,,,,,,,,46.0,1.0,,
38,,feedback,,html-keyboard-response,38,60023,0.0-1.0-55.0-0.0,0,0,4,,,,,,7.0,,,,,,,,,,,,,,,,,,,,,,47.0,1.0,,
39,,iti,,html-keyboard-response,39,60127,0.0-1.0-56.0,0,0,4,,,,,,,,,,,,,,,,,,,,,,,,,,,,48.5,1.5,,
40,,rl_choice,,html-keyboard-response,40,60521,0.0-1.0-58.0,0,0,4,,392.0,,,50.0,8.0,8.0,1.0,easy,1500.0,2000.0,0.0,20.0,80.0,0.0,100.0,A,B,/static/Simple_RL/Stimuli/Fractals_stims/A.jpg,/static/Simple_RL/Stimuli/Fractals_stims/B.jpg,1.0,20.0,80.0,0.0,100.0,A,B,48.892,0.392,0.0,
41,,rl_choice_confirmation,,html-keyboard-response,41,61633,0.0-1.0-59.0-0.0,0,0,4,,,,,,8.0,,,,,,,,,,,,,,,,,,,,,,50.0,1.108,,
42,,isi,,html-keyboard-response,42,61738,0.0-1.0-61.0,0,0,4,,,,,,,,,,,,,,,,,,,,,,,,,,,,52.0,2.0,,
43,,feedback,,html-keyboard-response,43,62740,0.0-1.0-62.0-0.0,0,0,4,,,,,,8.0,,,,,,,,,,,,,,,,,,,,,,53.0,1.0,,
44,,iti,,html-keyboard-response,44,62841,0.0-1.0-63.0,0,0,4,,,,,,,,,,,,,,,,,,,,,,,,,,,,54.5,1.5,,
45,,rl_choice,,html-keyboard-response,45,63661,0.0-1.0-65.0,0,0,4,,819.0,,,51.0,9.0,9.0,1.0,easy,2000.0,1000.0,1.0,80.0,20.0,60.0,0.0,B,A,/static/Simple_RL/Stimuli/Fractals_stims/B.jpg,/static/Simple_RL/Stimuli/Fractals_stims/A.jpg,0.0,20.0,80.0,0.0,60.0,A,B,55.319,0.819,0.0,
46,,rl_choice_confirmation,,html-keyboard-response,46,64347,0.0-1.0-66.0-0.0,0,0,4,,,,,,9.0,,,,,,,,,,,,,,,,,,,,,,56.0,0.681,,
47,,isi,,html-keyboard-response,47,64450,0.0-1.0-68.0,0,0,4,,,,,,,,,,,,,,,,,,,,,,,,,,,,57.0,1.0,,
48,,feedback,,html-keyboard-response,48,65455,0.0-1.0-69.0-0.0,0,0,4,,,,,,9.0,,,,,,,,,,,,,,,,,,,,,,58.0,1.0,,
49,,iti,,html-keyboard-response,49,65557,0.0-1.0-70.0,0,0,4,,,,,,,,,,,,,,,,,,,,,,,,,,,,60.0,2.0,,
50,,rl_choice,,html-keyboard-response,50,65840,0.0-1.0-72.0,0,0,4,,283.0,,,51.0,10.0,10.0,1.0,hard,1000.0,1000.0,1.0,60.0,40.0,40.0,40.0,D,C,/static/Simple_RL/Stimuli/Fractals_stims/D.jpg,/static/Simple_RL/Stimuli/Fractals_stims/C.jpg,0.0,40.0,60.0,40.0,40.0,C,D,60.283,0.283,0.0,
51,,rl_choice_confirmation,,html-keyboard-response,51,67060,0.0-1.0-73.0-0.0,0,0,4,,,,,,10.0,,,,,,,,,,,,,,,,,,,,,,61.5,1.217,,
52,,isi,,html-keyboard-response,52,67164,0.0-1.0-75.0,0,0,4,,,,,,,,,,,,,,,,,,,,,,,,,,,,62.5,1.0,,
53,,feedback,,html-keyboard-response,53,68170,0.0-1.0-76.0-0.0,0,0,4,,,,,,10.0,,,,,,,,,,,,,,,,,,,,,,63.5,1.0,,
54,,iti,,html-keyboard-response,54,68271,0.0-1.0-77.0,0,0,4,,,,,,,,,,,,,,,,,,,,,,,,,,,,64.5,1.0,,
55,,rl_choice,,html-keyboard-response,55,68740,0.0-1.0-79.0,0,0,4,,467.0,,,51.0,11.0,11.0,1.0,easy,1000.0,3000.0,0.0,20.0,80.0,20.0,60.0,A,B,/static/Simple_RL/Stimuli/Fractals_stims/A.jpg,/static/Simple_RL/Stimuli/Fractals_stims/B.jpg,0.0,80.0,20.0,60.0,20.0,B,A,64.967,0.467,0.0,
56,,rl_choice_confirmation,,html-keyboard-response,56,69775,0.0-1.0-80.0-0.0,0,0,4,,,,,,11.0,,,,,,,,,,,,,,,,,,,,,,66.0,1.033,,
57,,isi,,html-keyboard-response,57,69881,0.0-1.0-82.0,0,0,4,,,,,,,,,,,,,,,,,,,,,,,,,,,,69.0,3.0,,
58,,feedback,,html-keyboard-response,58,70885,0.0-1.0-83.0-0.0,0,0,4,,,,,,11.0,,,,,,,,,,,,,,,,,,,,,,70.0,1.0,,
59,,iti,,html-keyboard-response,59,70986,0.0-1.0-84.0,0,0,4,,,,,,,,,,,,,,,,,,,,,,,,,,,,71.0,1.0,,
60,,rl_choice,,html-keyboard-response,60,71604,0.0-1.0-86.0,0,0,4,,617.0,,,51.0,12.0,12.0,1.0,easy,3000.0,1500.0,0.0,20.0,80.0,20.0,80.0,A,B,/static/Simple_RL/Stimuli/Fractals_stims/A.jpg,/static/Simple_RL/Stimuli/Fractals_stims/B.jpg,0.0,80.0,20.0,80.0,20.0,B,A,71.617,0.617,0.0,
61,,rl_choice_confirmation,,html-keyboard-response,61,72490,0.0-1.0-87.0-0.0,0,0,4,,,,,,12.0,,,,,,,,,,,,,,,,,,,,,,72.5,0.883,,
62,,isi,,html-keyboard-response,62,72596,0.0-1.0-89.0,0,0,4,,,,,,,,,,,,,,,,,,,,,,,,,,,,74.0,1.5,,
63,,feedback,,html-keyboard-response,63,73601,0.0-1.0-90.0-0.0,0,0,4,,,,,,12.0,,,,,,,,,,,,,,,,,,,,,,75.0,1.0,,
64,,iti,,html-keyboard-response,64,73706,0.0-1.0-91.0,0,0,4,,,,,,,,,,,,,,,,,,,,,,,,,,,,78.0,3.0,,
65,,rl_choice,,html-keyboard-response,65,73885,0.0-1.0-93.0,0,0,4,,178.0,,,50.0,13.0,13.0,1.0,hard,1000.0,2000.0,0.0,40.0,60.0,40.0,80.0,C,D,/static/Simple_RL/Stimuli/Fractals_stims/C.jpg,/static/Simple_RL/Stimuli/Fractals_stims/D.jpg,1.0,40.0,60.0,40.0,80.0,C,D,78.178,0.178,0.0,
66,,rl_choice_confirmation,,html-keyboard-response,66,75210,0.0-1.0-94.0-0.0,0,0,4,,,,,,13.0,,,,,,,,,,,,,,,,,,,,,,79.5,1.322,,
67,,isi,,html-keyboard-response,67,75316,0.0-1.0-96.0,0,0,4,,,,,,,,,,,,,,,,,,,,,,,,,,,,81.5,2.0,,
68,,feedback,,html-keyboard-response,68,76317,0.0-1.0-97.0-0.0,0,0,4,,,,,,13.0,,,,,,,,,,,,,,,,,,,,,,82.5,1.0,,
69,,iti,,html-keyboard-response,69,76421,0.0-1.0-98.0,0,0,4,,,,,,,,,,,,,,,,,,,,,,,,,,,,83.5,1.0,,
70,,rl_choice,,html-keyboard-response,70,77009,0.0-1.0-100.0,0,0,4,,586.0,,,50.0,14.0,14.0,1.0,easy,1500.0,1500.0,0.0,20.0,80.0,20.0,80.0,A,B,/static/Simple_RL/Stimuli/Fractals_stims/A.jpg,/static/Simple_RL/Stimuli/Fractals_stims/B.jpg,1.0,20.0,80.0,20.0,80.0,A,B,84.086,0.586,0.0,
71,,rl_choice_confirmation,,html-keyboard-response,71,77925,0.0-1.0-101.0-0.0,0,0,4,,,,,,14.0,,,,,,,,,,,,,,,,,,,,,,85.0,0.914,,
72,,isi,,html-keyboard-response,72,78026,0.0-1.0-103.0,0,0,4,,,,,,,,,,,,,,,,,,,,,,,,,,,,86.5,1.5,,
73,,feedback,,html-keyboard-response,73,79031,0.0-1.0-104.0-0.0,0,0,4,,,,,,14.0,,,,,,,,,,,,,,,,,,,,,,87.5,1.0,,
74,,iti,,html-keyboard-response,74,79135,0.0-1.0-105.0,0,0,4,,,,,,,,,,,,,,,,,,,,,,,,,,,,89.0,1.5,,
75,,rl_choice,,html-keyboard-response,75,79171,0.0-1.0-107.0,0,0,4,,34.0,,,51.0,15.0,15.0,1.0,hard,1500.0,2000.0,1.0,60.0,40.0,40.0,60.0,D,C,/static/Simple_RL/Stimuli/Fractals_stims/D.jpg,/static/Simple_RL/Stimuli/Fractals_stims/C.jpg,0.0,40.0,60.0,60.0,40.0,C,D,89.034,0.034,0.0,
76,,rl_choice_confirmation,,html-keyboard-response,76,80643,0.0-1.0-108.0-0.0,0,0,4,,,,,,15.0,,,,,,,,,,,,,,,,,,,,,,90.5,1.466,,
77,,isi,,html-keyboard-response,77,80748,0.0-1.0-110.0,0,0,4,,,,,,,,,,,,,,,,,,,,,,,,,,,,92.5,2.0,,
78,,feedback,,html-keyboard-response,78,81754,0.0-1.0-111.0-0.0,0,0,4,,,,,,15.0,,,,,,,,,,,,,,,,,,,,,,93.5,1.0,,
79,,iti,,html-keyboard-response,79,81855,0.0-1.0-112.0,0,0,4,,,,,,,,,,,,,,,,,,,,,,,,,,,,95.0,1.5,,
80,,rl_choice,,html-keyboard-response,80,82448,0.0-1.0-114.0,0,0,4,,591.0,,,51.0,16.0,16.0,1.0,hard,1000.0,1000.0,1.0,60.0,40.0,60.0,60.0,D,C,/static/Simple_RL/Stimuli/Fractals_stims/D.jpg,/static/Simple_RL/Stimuli/Fractals_stims/C.jpg,0.0,40.0,60.0,60.0,60.0,C,D,95.591,0.591,0.0,
81,,rl_choice_confirmation,,html-keyboard-response,81,83359,0.0-1.0-115.0-0.0,0,0,4,,,,,,16.0,,,,,,,,,,,,,,,,,,,,,,96.5,0.909,,
82,,isi,,html-keyboard-response,82,83464,0.0-1.0-117.0,0,0,4,,,,,,,,,,,,,,,,,,,,,,,,,,,,97.5,1.0,,
83,,feedback,,html-keyboard-response,83,84469,0.0-1.0-118.0-0.0,0,0,4,,,,,,16.0,,,,,,,,,,,,,,,,,,,,,,98.5,1.0,,
84,,iti,,html-keyboard-response,84,84570,0.0-1.0-119.0,0,0,4,,,,,,,,,,,,,,,,,,,,,,,,,,,,99.5,1.0,,
85,,rl_choice,,html-keyboard-response,85,84766,0.0-1.0-121.0,0,0,4,,195.0,,,51.0,17.0,17.0,1.0,easy,3000.0,1500.0,1.0,80.0,20.0,60.0,20.0,B,A,/static/Simple_RL/Stimuli/Fractals_stims/B.jpg,/static/Simple_RL/Stimuli/Fractals_stims/A.jpg,0.0,20.0,80.0,20.0,60.0,A,B,99.695,0.195,0.0,
86,,rl_choice_confirmation,,html-keyboard-response,86,86074,0.0-1.0-122.0-0.0,0,0,4,,,,,,17.0,,,,,,,,,,,,,,,,,,,,,,101.0,1.305,,
87,,isi,,html-keyboard-response,87,86176,0.0-1.0-124.0,0,0,4,,,,,,,,,,,,,,,,,,,,,,,,,,,,102.5,1.5,,
88,,feedback,,html-keyboard-response,88,87181,0.0-1.0-125.0-0.0,0,0,4,,,,,,17.0,,,,,,,,,,,,,,,,,,,,,,103.5,1.0,,
89,,iti,,html-keyboard-response,89,87285,0.0-1.0-126.0,0,0,4,,,,,,,,,,,,,,,,,,,,,,,,,,,,106.5,3.0,,
90,,rl_choice,,html-keyboard-response,90,87502,0.0-1.0-128.0,0,0,4,,215.0,,,51.0,18.0,18.0,1.0,hard,3500.0,1500.0,1.0,60.0,40.0,60.0,60.0,D,C,/static/Simple_RL/Stimuli/Fractals_stims/D.jpg,/static/Simple_RL/Stimuli/Fractals_stims/C.jpg,0.0,40.0,60.0,60.0,60.0,C,D,106.715,0.215,0.0,
91,,rl_choice_confirmation,,html-keyboard-response,91,88789,0.0-1.0-129.0-0.0,0,0,4,,,,,,18.0,,,,,,,,,,,,,,,,,,,,,,108.0,1.285,,
92,,isi,,html-keyboard-response,92,88890,0.0-1.0-131.0,0,0,4,,,,,,,,,,,,,,,,,,,,,,,,,,,,109.5,1.5,,
93,,feedback,,html-keyboard-response,93,89892,0.0-1.0-132.0-0.0,0,0,4,,,,,,18.0,,,,,,,,,,,,,,,,,,,,,,110.5,1.0,,
94,,iti,,html-keyboard-response,94,89994,0.0-1.0-133.0,0,0,4,,,,,,,,,,,,,,,,,,,,,,,,,,,,114.0,3.5,,
95,,rl_choice,,html-keyboard-response,95,90400,0.0-1.0-135.0,0,0,4,,405.0,,,51.0,19.0,19.0,1.0,hard,2000.0,1500.0,1.0,60.0,40.0,60.0,20.0,D,C,/static/Simple_RL/Stimuli/Fractals_stims/D.jpg,/static/Simple_RL/Stimuli/Fractals_stims/C.jpg,0.0,40.0,60.0,20.0,60.0,C,D,114.405,0.405,0.0,
96,,rl_choice_confirmation,,html-keyboard-response,96,91501,0.0-1.0-136.0-0.0,0,0,4,,,,,,19.0,,,,,,,,,,,,,,,,,,,,,,115.5,1.095,,
97,,isi,,html-keyboard-response,97,91605,0.0-1.0-138.0,0,0,4,,,,,,,,,,,,,,,,,,,,,,,,,,,,117.0,1.5,,
98,,feedback,,html-keyboard-response,98,92610,0.0-1.0-139.0-0.0,0,0,4,,,,,,19.0,,,,,,,,,,,,,,,,,,,,,,118.0,1.0,,
99,,iti,,html-keyboard-response,99,92714,0.0-1.0-140.0,0,0,4,,,,,,,,,,,,,,,,,,,,,,,,,,,,120.0,2.0,,
100,,rl_choice,,html-keyboard-response,100,92862,0.0-1.0-142.0,0,0,4,,147.0,,,50.0,20.0,20.0,1.0,easy,2000.0,1000.0,1.0,80.0,20.0,80.0,20.0,B,A,/static/Simple_RL/Stimuli/Fractals_stims/B.jpg,/static/Simple_RL/Stimuli/Fractals_stims/A.jpg,1.0,80.0,20.0,80.0,20.0,B,A,120.147,0.147,0.0,
101,,rl_choice_confirmation,,html-keyboard-response,101,94218,0.0-1.0-143.0-0.0,0,0,4,,,,,,20.0,,,,,,,,,,,,,,,,,,,,,,121.5,1.353,,
102,,isi,,html-keyboard-response,102,94320,0.0-1.0-145.0,0,0,4,,,,,,,,,,,,,,,,,,,,,,,,,,,,122.5,1.0,,
103,,feedback,,html-keyboard-response,103,95322,0.0-1.0-146.0-0.0,0,0,4,,,,,,20.0,,,,,,,,,,,,,,,,,,,,,,123.5,1.0,,
104,,iti,,html-keyboard-response,104,95424,0.0-1.0-147.0,0,0,4,,,,,,,,,,,,,,,,,,,,,,,,,,,,125.5,2.0,,
105,,rl_choice,,html-keyboard-response,105,96930,0.0-1.0-149.0,0,0,4,,,,,,21.0,21.0,1.0,easy,1500.0,2000.0,1.0,80.0,20.0,80.0,20.0,B,A,/static/Simple_RL/Stimuli/Fractals_stims/B.jpg,/static/Simple_RL/Stimuli/Fractals_stims/A.jpg,,,,,,,,127.0,1.5,1.0,
106,,rl_choice_warning,,html-keyboard-response,106,97936,0.0-1.0-151.0-0.0,0,0,4,,,,,,,,,,,,,,,,,,,,,,,,,,,,128.0,1.0,,
107,,isi,,html-keyboard-response,107,98038,0.0-1.0-152.0,0,0,4,,,,,,,,,,,,,,,,,,,,,,,,,,,,130.0,2.0,,
108,,iti,,html-keyboard-response,108,98144,0.0-1.0-154.0,0,0,4,,,,,,,,,,,,,,,,,,,,,,,,,,,,131.5,1.5,,
109,,rl_choice,,html-keyboard-response,109,98274,0.0-1.0-156.0,0,0,4,,128.0,,,51.0,22.0,22.0,1.0,easy,1000.0,1000.0,0.0,20.0,80.0,0.0,100.0,A,B,/static/Simple_RL/Stimuli/Fractals_stims/A.jpg,/static/Simple_RL/Stimuli/Fractals_stims/B.jpg,0.0,80.0,20.0,100.0,0.0,B,A,131.628,0.128,0.0,
110,,rl_choice_confirmation,,html-keyboard-response,110,99648,0.0-1.0-157.0-0.0,0,0,4,,,,,,22.0,,,,,,,,,,,,,,,,,,,,,,133.0,1.372,,
111,,isi,,html-keyboard-response,111,99753,0.0-1.0-159.0,0,0,4,,,,,,,,,,,,,,,,,,,,,,,,,,,,134.0,1.0,,
112,,feedback,,html-keyboard-response,112,100757,0.0-1.0-160.0-0.0,0,0,4,,,,,,22.0,,,,,,,,,,,,,,,,,,,,,,135.0,1.0,,
113,,iti,,html-keyboard-response,113,100858,0.0-1.0-161.0,0,0,4,,,,,,,,,,,,,,,,,,,,,,,,,,,,136.0,1.0,,
114,,rl_choice,,html-keyboard-response,114,100897,0.0-1.0-163.0,0,0,4,,37.0,,,50.0,23.0,23.0,1.0,hard,2000.0,1000.0,1.0,60.0,40.0,80.0,60.0,D,C,/static/Simple_RL/Stimuli/Fractals_stims/D.jpg,/static/Simple_RL/Stimuli/Fractals_stims/C.jpg,1.0,60.0,40.0,80.0,60.0,D,C,136.037,0.037,0.0,
115,,rl_choice_confirmation,,html-keyboard-response,115,102364,0.0-1.0-164.0-0.0,0,0,4,,,,,,23.0,,,,,,,,,,,,,,,,,,,,,,137.5,1.463,,
116,,isi,,html-keyboard-response,116,102469,0.0-1.0-166.0,0,0,4,,,,,,,,,,,,,,,,,,,,,,,,,,,,138.5,1.0,,
117,,feedback,,html-keyboard-response,117,103475,0.0-1.0-167.0-0.0,0,0,4,,,,,,23.0,,,,,,,,,,,,,,,,,,,,,,139.5,1.0,,
118,,iti,,html-keyboard-response,118,103581,0.0-1.0-168.0,0,0,4,,,,,,,,,,,,,,,,,,,,,,,,,,,,141.5,2.0,,
119,,rl_choice,,html-keyboard-response,119,103682,0.0-1.0-170.0,0,0,4,,100.0,,,51.0,24.0,24.0,1.0,hard,1000.0,3000.0,1.0,60.0,40.0,40.0,60.0,D,C,/static/Simple_RL/Stimuli/Fractals_stims/D.jpg,/static/Simple_RL/Stimuli/Fractals_stims/C.jpg,0.0,40.0,60.0,60.0,40.0,C,D,141.6,0.1,0.0,
120,,rl_choice_confirmation,,html-keyboard-response,120,105088,0.0-1.0-171.0-0.0,0,0,4,,,,,,24.0,,,,,,,,,,,,,,,,,,,,,,143.0,1.4,,
121,,isi,,html-keyboard-response,121,105189,0.0-1.0-173.0,0,0,4,,,,,,,,,,,,,,,,,,,,,,,,,,,,146.0,3.0,,
122,,feedback,,html-keyboard-response,122,106192,0.0-1.0-174.0-0.0,0,0,4,,,,,,24.0,,,,,,,,,,,,,,,,,,,,,,147.0,1.0,,
123,,iti,,html-keyboard-response,123,106293,0.0-1.0-175.0,0,0,4,,,,,,,,,,,,,,,,,,,,,,,,,,,,148.0,1.0,,
124,,rl_choice,,html-keyboard-response,124,107798,0.0-1.0-177.0,0,0,4,,,,,,25.0,25.0,1.0,hard,2000.0,1000.0,1.0,60.0,40.0,40.0,40.0,D,C,/static/Simple_RL/Stimuli/Fractals_stims/D.jpg,/static/Simple_RL/Stimuli/Fractals_stims/C.jpg,,,,,,,,149.5,1.5,1.0,
125,,rl_choice_warning,,html-keyboard-response,125,108799,0.0-1.0-179.0-0.0,0,0,4,,,,,,,,,,,,,,,,,,,,,,,,,,,,150.5,1.0,,
126,,isi,,html-keyboard-response,126,108901,0.0-1.0-180.0,0,0,4,,,,,,,,,,,,,,,,,,,,,,,,,,,,151.5,1.0,,
127,,iti,,html-keyboard-response,127,109003,0.0-1.0-182.0,0,0,4,,,,,,,,,,,,,,,,,,,,,,,,,,,,153.5,2.0,,
128,,rl_choice,,html-keyboard-response,128,109098,0.0-1.0-184.0,0,0,4,,94.0,,,50.0,26.0,26.0,1.0,easy,1000.0,1000.0,1.0,80.0,20.0,100.0,20.0,B,A,/static/Simple_RL/Stimuli/Fractals_stims/B.jpg,/static/Simple_RL/Stimuli/Fractals_stims/A.jpg,1.0,80.0,20.0,100.0,20.0,B,A,153.594,0.094,0.0,
129,,rl_choice_confirmation,,html-keyboard-response,129,110506,0.0-1.0-185.0-0.0,0,0,4,,,,,,26.0,,,,,,,,,,,,,,,,,,,,,,155.0,1.406,,
130,,isi,,html-keyboard-response,130,110610,0.0-1.0-187.0,0,0,4,,,,,,,,,,,,,,,,,,,,,,,,,,,,156.0,1.0,,
131,,feedback,,html-keyboard-response,131,111616,0.0-1.0-188.0-0.0,0,0,4,,,,,,26.0,,,,,,,,,,,,,,,,,,,,,,157.0,1.0,,
132,,iti,,html-keyboard-response,132,111717,0.0-1.0-189.0,0,0,4,,,,,,,,,,,,,,,,,,,,,,,,,,,,158.0,1.0,,
133,,rl_choice,,html-keyboard-response,133,111758,0.0-1.0-191.0,0,0,4,,40.0,,,50.0,27.0,27.0,1.0,hard,1000.0,1500.0,0.0,40.0,60.0,20.0,80.0,C,D,/static/Simple_RL/Stimuli/Fractals_stims/C.jpg,/static/Simple_RL/Stimuli/Fractals_stims/D.jpg,1.0,40.0,60.0,20.0,80.0,C,D,158.04,0.04,0.0,
134,,rl_choice_confirmation,,html-keyboard-response,134,113221,0.0-1.0-192.0-0.0,0,0,4,,,,,,27.0,,,,,,,,,,,,,,,,,,,,,,159.5,1.46,,
135,,isi,,html-keyboard-response,135,113323,0.0-1.0-194.0,0,0,4,,,,,,,,,,,,,,,,,,,,,,,,,,,,161.0,1.5,,
136,,feedback,,html-keyboard-response,136,114328,0.0-1.0-195.0-0.0,0,0,4,,,,,,27.0,,,,,,,,,,,,,,,,,,,,,,162.0,1.0,,
137,,iti,,html-keyboard-response,137,114431,0.0-1.0-196.0,0,0,4,,,,,,,,,,,,,,,,,,,,,,,,,,,,163.0,1.0,,
138,,rl_choice,,html-keyboard-response,138,114912,0.0-1.0-198.0,0,0,4,,479.0,,,51.0,28.0,28.0,1.0,hard,1500.0,1500.0,0.0,40.0,60.0,40.0,40.0,C,D,/static/Simple_RL/Stimuli/Fractals_stims/C.jpg,/static/Simple_RL/Stimuli/Fractals_stims/D.jpg,0.0,60.0,40.0,40.0,40.0,D,C,163.479,0.479,0.0,
139,,rl_choice_confirmation,,html-keyboard-response,139,115937,0.0-1.0-199.0-0.0,0,0,4,,,,,,28.0,,,,,,,,,,,,,,,,,,,,,,164.5,1.021,,
140,,isi,,html-keyboard-response,140,116042,0.0-1.0-201.0,0,0,4,,,,,,,,,,,,,,,,,,,,,,,,,,,,166.0,1.5,,
141,,feedback,,html-keyboard-response,141,117048,0.0-1.0-202.0-0.0,0,0,4,,,,,,28.0,,,,,,,,,,,,,,,,,,,,,,167.0,1.0,,
142,,iti,,html-keyboard-response,142,117151,0.0-1.0-203.0,0,0,4,,,,,,,,,,,,,,,,,,,,,,,,,,,,168.5,1.5,,
143,,rl_choice,,html-keyboard-response,143,117395,0.0-1.0-205.0,0,0,4,,243.0,,,51.0,29.0,29.0,1.0,easy,1000.0,1000.0,0.0,20.0,80.0,20.0,80.0,A,B,/static/Simple_RL/Stimuli/Fractals_stims/A.jpg,/static/Simple_RL/Stimuli/Fractals_stims/B.jpg,0.0,80.0,20.0,80.0,20.0,B,A,168.743,0.243,0.0,
144,,rl_choice_confirmation,,html-keyboard-response,144,118655,0.0-1.0-206.0-0.0,0,0,4,,,,,,29.0,,,,,,,,,,,,,,,,,,,,,,170.0,1.257,,
145,,isi,,html-keyboard-response,145,118756,0.0-1.0-208.0,0,0,4,,,,,,,,,,,,,,,,,,,,,,,,,,,,171.0,1.0,,
146,,feedback,,html-keyboard-response,146,119759,0.0-1.0-209.0-0.0,0,0,4,,,,,,29.0,,,,,,,,,,,,,,,,,,,,,,172.0,1.0,,
147,,iti,,html-keyboard-response,147,119865,0.0-1.0-210.0,0,0,4,,,,,,,,,,,,,,,,,,,,,,,,,,,,173.0,1.0,,
148,,rl_choice,,html-keyboard-response,148,120242,0.0-1.0-212.0,0,0,4,,376.0,,,51.0,30.0,30.0,1.0,hard,1500.0,2000.0,1.0,60.0,40.0,80.0,60.0,D,C,/static/Simple_RL/Stimuli/Fractals_stims/D.jpg,/static/Simple_RL/Stimuli/Fractals_stims/C.jpg,0.0,40.0,60.0,60.0,80.0,C,D,173.376,0.376,0.0,
149,,rl_choice_confirmation,,html-keyboard-response,149,121370,0.0-1.0-213.0-0.0,0,0,4,,,,,,30.0,,,,,,,,,,,,,,,,,,,,,,174.5,1.124,,
150,,isi,,html-keyboard-response,150,121475,0.0-1.0-215.0,0,0,4,,,,,,,,,,,,,,,,,,,,,,,,,,,,176.5,2.0,,
151,,feedback,,html-keyboard-response,151,122482,0.0-1.0-216.0-0.0,0,0,4,,,,,,30.0,,,,,,,,,,,,,,,,,,,,,,177.5,1.0,,
152,,iti,,html-keyboard-response,152,122582,0.0-1.0-217.0,0,0,4,,,,,,,,,,,,,,,,,,,,,,,,,,,,179.0,1.5,,
153,,rl_choice,,html-keyboard-response,153,123875,0.0-1.0-219.0,0,0,4,,1291.0,,,51.0,31.0,31.0,1.0,easy,1000.0,1500.0,1.0,80.0,20.0,80.0,0.0,B,A,/static/Simple_RL/Stimuli/Fractals_stims/B.jpg,/static/Simple_RL/Stimuli/Fractals_stims/A.jpg,0.0,20.0,80.0,0.0,80.0,A,B,180.291,1.291,0.0,
154,,rl_choice_confirmation,,html-keyboard-response,154,124090,0.0-1.0-220.0-0.0,0,0,4,,,,,,31.0,,,,,,,,,,,,,,,,,,,,,,180.5,0.209,,
155,,isi,,html-keyboard-response,155,124192,0.0-1.0-222.0,0,0,4,,,,,,,,,,,,,,,,,,,,,,,,,,,,182.0,1.5,,
156,,feedback,,html-keyboard-response,156,125198,0.0-1.0-223.0-0.0,0,0,4,,,,,,31.0,,,,,,,,,,,,,,,,,,,,,,183.0,1.0,,
157,,iti,,html-keyboard-response,157,125301,0.0-1.0-224.0,0,0,4,,,,,,,,,,,,,,,,,,,,,,,,,,,,184.0,1.0,,
158,,rl_choice,,html-keyboard-response,158,126377,0.0-1.0-226.0,0,0,4,,1073.0,,,51.0,32.0,32.0,1.0,easy,1000.0,3500.0,1.0,80.0,20.0,60.0,20.0,B,A,/static/Simple_RL/Stimuli/Fractals_stims/B.jpg,/static/Simple_RL/Stimuli/Fractals_stims/A.jpg,0.0,20.0,80.0,20.0,60.0,A,B,185.073,1.073,0.0,
159,,rl_choice_confirmation,,html-keyboard-response,159,126805,0.0-1.0-227.0-0.0,0,0,4,,,,,,32.0,,,,,,,,,,,,,,,,,,,,,,185.5,0.427,,
160,,isi,,html-keyboard-response,160,126907,0.0-1.0-229.0,0,0,4,,,,,,,,,,,,,,,,,,,,,,,,,,,,189.0,3.5,,
161,,feedback,,html-keyboard-response,161,127912,0.0-1.0-230.0-0.0,0,0,4,,,,,,32.0,,,,,,,,,,,,,,,,,,,,,,190.0,1.0,,
162,,iti,,html-keyboard-response,162,128016,0.0-1.0-231.0,0,0,4,,,,,,,,,,,,,,,,,,,,,,,,,,,,191.0,1.0,,
163,,rl_choice,,html-keyboard-response,163,128378,0.0-1.0-233.0,0,0,4,,361.0,,,51.0,33.0,33.0,1.0,hard,2000.0,1500.0,1.0,60.0,40.0,40.0,20.0,D,C,/static/Simple_RL/Stimuli/Fractals_stims/D.jpg,/static/Simple_RL/Stimuli/Fractals_stims/C.jpg,0.0,40.0,60.0,20.0,40.0,C,D,191.361,0.361,0.0,
164,,rl_choice_confirmation,,html-keyboard-response,164,129520,0.0-1.0-234.0-0.0,0,0,4,,,,,,33.0,,,,,,,,,,,,,,,,,,,,,,192.5,1.139,,
165,,isi,,html-keyboard-response,165,129622,0.0-1.0-236.0,0,0,4,,,,,,,,,,,,,,,,,,,,,,,,,,,,194.0,1.5,,
166,,feedback,,html-keyboard-response,166,130629,0.0-1.0-237.0-0.0,0,0,4,,,,,,33.0,,,,,,,,,,,,,,,,,,,,,,195.0,1.0,,
167,,iti,,html-keyboard-response,167,130732,0.0-1.0-238.0,0,0,4,,,,,,,,,,,,,,,,,,,,,,,,,,,,197.0,2.0,,
168,,rl_choice,,html-keyboard-response,168,131022,0.0-1.0-240.0,0,0,4,,289.0,,,51.0,34.0,34.0,1.0,hard,3000.0,1000.0,0.0,40.0,60.0,20.0,60.0,C,D,/static/Simple_RL/Stimuli/Fractals_stims/C.jpg,/static/Simple_RL/Stimuli/Fractals_stims/D.jpg,0.0,60.0,40.0,60.0,20.0,D,C,197.289,0.289,0.0,
169,,rl_choice_confirmation,,html-keyboard-response,169,132235,0.0-1.0-241.0-0.0,0,0,4,,,,,,34.0,,,,,,,,,,,,,,,,,,,,,,198.5,1.211,,
170,,isi,,html-keyboard-response,170,132339,0.0-1.0-243.0,0,0,4,,,,,,,,,,,,,,,,,,,,,,,,,,,,199.5,1.0,,
171,,feedback,,html-keyboard-response,171,133344,0.0-1.0-244.0-0.0,0,0,4,,,,,,34.0,,,,,,,,,,,,,,,,,,,,,,200.5,1.0,,
172,,iti,,html-keyboard-response,172,133448,0.0-1.0-245.0,0,0,4,,,,,,,,,,,,,,,,,,,,,,,,,,,,203.5,3.0,,
173,,rl_choice,,html-keyboard-response,173,133715,0.0-1.0-247.0,0,0,4,,265.0,,,51.0,35.0,35.0,1.0,easy,1500.0,1000.0,1.0,80.0,20.0,80.0,20.0,B,A,/static/Simple_RL/Stimuli/Fractals_stims/B.jpg,/static/Simple_RL/Stimuli/Fractals_stims/A.jpg,0.0,20.0,80.0,20.0,80.0,A,B,203.765,0.265,0.0,
174,,rl_choice_confirmation,,html-keyboard-response,174,134955,0.0-1.0-248.0-0.0,0,0,4,,,,,,35.0,,,,,,,,,,,,,,,,,,,,,,205.0,1.235,,
175,,isi,,html-keyboard-response,175,135056,0.0-1.0-250.0,0,0,4,,,,,,,,,,,,,,,,,,,,,,,,,,,,206.0,1.0,,
176,,feedback,,html-keyboard-response,176,136058,0.0-1.0-251.0-0.0,0,0,4,,,,,,35.0,,,,,,,,,,,,,,,,,,,,,,207.0,1.0,,
177,,iti,,html-keyboard-response,177,136160,0.0-1.0-252.0,0,0,4,,,,,,,,,,,,,,,,,,,,,,,,,,,,208.5,1.5,,
178,,rl_choice,,html-keyboard-response,178,136717,0.0-1.0-254.0,0,0,4,,556.0,,,51.0,36.0,36.0,1.0,easy,1500.0,2000.0,1.0,80.0,20.0,80.0,40.0,B,A,/static/Simple_RL/Stimuli/Fractals_stims/B.jpg,/static/Simple_RL/Stimuli/Fractals_stims/A.jpg,0.0,20.0,80.0,40.0,80.0,A,B,209.056,0.556,0.0,
179,,rl_choice_confirmation,,html-keyboard-response,179,137665,0.0-1.0-255.0-0.0,0,0,4,,,,,,36.0,,,,,,,,,,,,,,,,,,,,,,210.0,0.944,,
180,,isi,,html-keyboard-response,180,137770,0.0-1.0-257.0,0,0,4,,,,,,,,,,,,,,,,,,,,,,,,,,,,212.0,2.0,,
181,,feedback,,html-keyboard-response,181,138773,0.0-1.0-258.0-0.0,0,0,4,,,,,,36.0,,,,,,,,,,,,,,,,,,,,,,213.0,1.0,,
182,,iti,,html-keyboard-response,182,138877,0.0-1.0-259.0,0,0,4,,,,,,,,,,,,,,,,,,,,,,,,,,,,214.5,1.5,,
183,,rl_choice,,html-keyboard-response,183,138890,0.0-1.0-261.0,0,0,4,,12.0,,,51.0,37.0,37.0,1.0,easy,2000.0,1000.0,1.0,80.0,20.0,60.0,40.0,B,A,/static/Simple_RL/Stimuli/Fractals_stims/B.jpg,/static/Simple_RL/Stimuli/Fractals_stims/A.jpg,0.0,20.0,80.0,40.0,60.0,A,B,214.512,0.012,0.0,
184,,rl_choice_confirmation,,html-keyboard-response,184,140384,0.0-1.0-262.0-0.0,0,0,4,,,,,,37.0,,,,,,,,,,,,,,,,,,,,,,216.0,1.488,,
185,,isi,,html-keyboard-response,185,140486,0.0-1.0-264.0,0,0,4,,,,,,,,,,,,,,,,,,,,,,,,,,,,217.0,1.0,,
186,,feedback,,html-keyboard-response,186,141488,0.0-1.0-265.0-0.0,0,0,4,,,,,,37.0,,,,,,,,,,,,,,,,,,,,,,218.0,1.0,,
187,,iti,,html-keyboard-response,187,141590,0.0-1.0-266.0,0,0,4,,,,,,,,,,,,,,,,,,,,,,,,,,,,220.0,2.0,,
188,,rl_choice,,html-keyboard-response,188,141614,0.0-1.0-268.0,0,0,4,,23.0,,,51.0,38.0,38.0,1.0,easy,3500.0,1500.0,0.0,20.0,80.0,40.0,60.0,A,B,/static/Simple_RL/Stimuli/Fractals_stims/A.jpg,/static/Simple_RL/Stimuli/Fractals_stims/B.jpg,0.0,80.0,20.0,60.0,40.0,B,A,220.023,0.023,0.0,
189,,rl_choice_confirmation,,html-keyboard-response,189,143097,0.0-1.0-269.0-0.0,0,0,4,,,,,,38.0,,,,,,,,,,,,,,,,,,,,,,221.5,1.477,,
190,,isi,,html-keyboard-response,190,143201,0.0-1.0-271.0,0,0,4,,,,,,,,,,,,,,,,,,,,,,,,,,,,223.0,1.5,,
191,,feedback,,html-keyboard-response,191,144205,0.0-1.0-272.0-0.0,0,0,4,,,,,,38.0,,,,,,,,,,,,,,,,,,,,,,224.0,1.0,,
192,,iti,,html-keyboard-response,192,144310,0.0-1.0-273.0,0,0,4,,,,,,,,,,,,,,,,,,,,,,,,,,,,227.5,3.5,,
193,,rl_choice,,html-keyboard-response,193,144777,0.0-1.0-275.0,0,0,4,,465.0,,,51.0,39.0,39.0,1.0,easy,1000.0,1000.0,1.0,80.0,20.0,60.0,20.0,B,A,/static/Simple_RL/Stimuli/Fractals_stims/B.jpg,/static/Simple_RL/Stimuli/Fractals_stims/A.jpg,0.0,20.0,80.0,20.0,60.0,A,B,227.965,0.465,0.0,
194,,rl_choice_confirmation,,html-keyboard-response,194,145817,0.0-1.0-276.0-0.0,0,0,4,,,,,,39.0,,,,,,,,,,,,,,,,,,,,,,229.0,1.035,,
195,,isi,,html-keyboard-response,195,145922,0.0-1.0-278.0,0,0,4,,,,,,,,,,,,,,,,,,,,,,,,,,,,230.0,1.0,,
196,,feedback,,html-keyboard-response,196,146928,0.0-1.0-279.0-0.0,0,0,4,,,,,,39.0,,,,,,,,,,,,,,,,,,,,,,231.0,1.0,,
197,,iti,,html-keyboard-response,197,147032,0.0-1.0-280.0,0,0,4,,,,,,,,,,,,,,,,,,,,,,,,,,,,232.0,1.0,,
198,,block_over,,html-keyboard-response,198,148791,0.0-1.0-281.0-0.0,0,0,4,,1758.0,,,50.0,39.0,,,,,,,,,,,,,,,,,,,,,,,,,
199,,start_run,,html-keyboard-response,199,155303,0.0-1.0-281.0-1.0,0,0,4,,6512.0,,,84.0,,,,,,,,,,,,,,,,,,,,,,,,,,
200,,rl_choice,,html-keyboard-response,200,155698,0.0-1.0-282.0,0,0,4,,393.0,,,50.0,40.0,40.0,2.0,hard,1000.0,2000.0,0.0,40.0,60.0,40.0,40.0,C,D,/static/Simple_RL/Stimuli/Fractals_stims/C.jpg,/static/Simple_RL/Stimuli/Fractals_stims/D.jpg,1.0,40.0,60.0,40.0,40.0,C,D,0.393,0.393,0.0,
201,,rl_choice_confirmation,,html-keyboard-response,201,156811,0.0-1.0-283.0-0.0,0,0,4,,,,,,40.0,,,,,,,,,,,,,,,,,,,,,,1.5,1.107,,
202,,isi,,html-keyboard-response,202,156916,0.0-1.0-285.0,0,0,4,,,,,,,,,,,,,,,,,,,,,,,,,,,,3.5,2.0,,
203,,feedback,,html-keyboard-response,203,157920,0.0-1.0-286.0-0.0,0,0,4,,,,,,40.0,,,,,,,,,,,,,,,,,,,,,,4.5,1.0,,
204,,iti,,html-keyboard-response,204,158026,0.0-1.0-287.0,0,0,4,,,,,,,,,,,,,,,,,,,,,,,,,,,,5.5,1.0,,
205,,rl_choice,,html-keyboard-response,205,158286,0.0-1.0-289.0,0,0,4,,259.0,,,51.0,41.0,41.0,2.0,hard,1000.0,3000.0,1.0,60.0,40.0,40.0,60.0,D,C,/static/Simple_RL/Stimuli/Fractals_stims/D.jpg,/static/Simple_RL/Stimuli/Fractals_stims/C.jpg,0.0,40.0,60.0,60.0,40.0,C,D,5.759,0.259,0.0,
206,,rl_choice_confirmation,,html-keyboard-response,206,159532,0.0-1.0-290.0-0.0,0,0,4,,,,,,41.0,,,,,,,,,,,,,,,,,,,,,,7.0,1.241,,
207,,isi,,html-keyboard-response,207,159638,0.0-1.0-292.0,0,0,4,,,,,,,,,,,,,,,,,,,,,,,,,,,,10.0,3.0,,
208,,feedback,,html-keyboard-response,208,160640,0.0-1.0-293.0-0.0,0,0,4,,,,,,41.0,,,,,,,,,,,,,,,,,,,,,,11.0,1.0,,
209,,iti,,html-keyboard-response,209,160742,0.0-1.0-294.0,0,0,4,,,,,,,,,,,,,,,,,,,,,,,,,,,,12.0,1.0,,
210,,rl_choice,,html-keyboard-response,210,160867,0.0-1.0-296.0,0,0,4,,124.0,,,51.0,42.0,42.0,2.0,hard,1000.0,1000.0,0.0,40.0,60.0,40.0,40.0,C,D,/static/Simple_RL/Stimuli/Fractals_stims/C.jpg,/static/Simple_RL/Stimuli/Fractals_stims/D.jpg,0.0,60.0,40.0,40.0,40.0,D,C,12.124,0.124,0.0,
211,,rl_choice_confirmation,,html-keyboard-response,211,162249,0.0-1.0-297.0-0.0,0,0,4,,,,,,42.0,,,,,,,,,,,,,,,,,,,,,,13.5,1.376,,
212,,isi,,html-keyboard-response,212,162352,0.0-1.0-299.0,0,0,4,,,,,,,,,,,,,,,,,,,,,,,,,,,,14.5,1.0,,
213,,feedback,,html-keyboard-response,213,163357,0.0-1.0-300.0-0.0,0,0,4,,,,,,42.0,,,,,,,,,,,,,,,,,,,,,,15.5,1.0,,
214,,iti,,html-keyboard-response,214,163461,0.0-1.0-301.0,0,0,4,,,,,,,,,,,,,,,,,,,,,,,,,,,,16.5,1.0,,
215,,rl_choice,,html-keyboard-response,215,163610,0.0-1.0-303.0,0,0,4,,148.0,,,51.0,43.0,43.0,2.0,easy,1500.0,2000.0,0.0,20.0,80.0,0.0,60.0,A,B,/static/Simple_RL/Stimuli/Fractals_stims/A.jpg,/static/Simple_RL/Stimuli/Fractals_stims/B.jpg,0.0,80.0,20.0,60.0,0.0,B,A,16.648,0.148,0.0,
216,,rl_choice_confirmation,,html-keyboard-response,216,164965,0.0-1.0-304.0-0.0,0,0,4,,,,,,43.0,,,,,,,,,,,,,,,,,,,,,,18.0,1.352,,
217,,isi,,html-keyboard-response,217,165067,0.0-1.0-306.0,0,0,4,,,,,,,,,,,,,,,,,,,,,,,,,,,,20.0,2.0,,
218,,feedback,,html-keyboard-response,218,166070,0.0-1.0-307.0-0.0,0,0,4,,,,,,43.0,,,,,,,,,,,,,,,,,,,,,,21.0,1.0,,
219,,iti,,html-keyboard-response,219,166173,0.0-1.0-308.0,0,0,4,,,,,,,,,,,,,,,,,,,,,,,,,,,,22.5,1.5,,
220,,rl_choice,,html-keyboard-response,220,166179,0.0-1.0-310.0,0,0,4,,5.0,,,51.0,44.0,44.0,2.0,hard,1000.0,1500.0,0.0,40.0,60.0,60.0,60.0,C,D,/static/Simple_RL/Stimuli/Fractals_stims/C.jpg,/static/Simple_RL/Stimuli/Fractals_stims/D.jpg,0.0,60.0,40.0,60.0,60.0,D,C,22.505,0.005,0.0,
221,,rl_choice_confirmation,,html-keyboard-response,221,167677,0.0-1.0-311.0-0.0,0,0,4,,,,,,44.0,,,,,,,,,,,,,,,,,,,,,,24.0,1.495,,
222,,isi,,html-keyboard-response,222,167780,0.0-1.0-313.0,0,0,4,,,,,,,,,,,,,,,,,,,,,,,,,,,,25.5,1.5,,
223,,feedback,,html-keyboard-response,223,168785,0.0-1.0-314.0-0.0,0,0,4,,,,,,44.0,,,,,,,,,,,,,,,,,,,,,,26.5,1.0,,
224,,iti,,html-keyboard-response,224,168886,0.0-1.0-315.0,0,0,4,,,,,,,,,,,,,,,,,,,,,,,,,,,,27.5,1.0,,
225,,rl_choice,,html-keyboard-response,225,169037,0.0-1.0-317.0,0,0,4,,149.0,,,51.0,45.0,45.0,2.0,hard,2000.0,2000.0,0.0,40.0,60.0,40.0,60.0,C,D,/static/Simple_RL/Stimuli/Fractals_stims/C.jpg,/static/Simple_RL/Stimuli/Fractals_stims/D.jpg,0.0,60.0,40.0,60.0,40.0,D,C,27.649,0.149,0.0,
226,,rl_choice_confirmation,,html-keyboard-response,226,170391,0.0-1.0-318.0-0.0,0,0,4,,,,,,45.0,,,,,,,,,,,,,,,,,,,,,,29.0,1.351,,
227,,isi,,html-keyboard-response,227,170492,0.0-1.0-320.0,0,0,4,,,,,,,,,,,,,,,,,,,,,,,,,,,,31.0,2.0,,
228,,feedback,,html-keyboard-response,228,171496,0.0-1.0-321.0-0.0,0,0,4,,,,,,45.0,,,,,,,,,,,,,,,,,,,,,,32.0,1.0,,
229,,iti,,html-keyboard-response,229,171600,0.0-1.0-322.0,0,0,4,,,,,,,,,,,,,,,,,,,,,,,,,,,,34.0,2.0,,
230,,rl_choice,,html-keyboard-response,230,172131,0.0-1.0-324.0,0,0,4,,530.0,,,51.0,46.0,46.0,2.0,hard,2000.0,2000.0,0.0,40.0,60.0,40.0,40.0,C,D,/static/Simple_RL/Stimuli/Fractals_stims/C.jpg,/static/Simple_RL/Stimuli/Fractals_stims/D.jpg,0.0,60.0,40.0,40.0,40.0,D,C,34.53,0.53,0.0,
231,,rl_choice_confirmation,,html-keyboard-response,231,173105,0.0-1.0-325.0-0.0,0,0,4,,,,,,46.0,,,,,,,,,,,,,,,,,,,,,,35.5,0.97,,
232,,isi,,html-keyboard-response,232,173206,0.0-1.0-327.0,0,0,4,,,,,,,,,,,,,,,,,,,,,,,,,,,,37.5,2.0,,
233,,feedback,,html-keyboard-response,233,174209,0.0-1.0-328.0-0.0,0,0,4,,,,,,46.0,,,,,,,,,,,,,,,,,,,,,,38.5,1.0,,
234,,iti,,html-keyboard-response,234,174310,0.0-1.0-329.0,0,0,4,,,,,,,,,,,,,,,,,,,,,,,,,,,,40.5,2.0,,
235,,rl_choice,,html-keyboard-response,235,175186,0.0-1.0-331.0,0,0,4,,875.0,,,50.0,47.0,47.0,2.0,hard,1500.0,1500.0,1.0,60.0,40.0,80.0,20.0,D,C,/static/Simple_RL/Stimuli/Fractals_stims/D.jpg,/static/Simple_RL/Stimuli/Fractals_stims/C.jpg,1.0,60.0,40.0,80.0,20.0,D,C,41.375,0.875,0.0,
236,,rl_choice_confirmation,,html-keyboard-response,236,175817,0.0-1.0-332.0-0.0,0,0,4,,,,,,47.0,,,,,,,,,,,,,,,,,,,,,,42.0,0.625,,
237,,isi,,html-keyboard-response,237,175921,0.0-1.0-334.0,0,0,4,,,,,,,,,,,,,,,,,,,,,,,,,,,,43.5,1.5,,
238,,feedback,,html-keyboard-response,238,176923,0.0-1.0-335.0-0.0,0,0,4,,,,,,47.0,,,,,,,,,,,,,,,,,,,,,,44.5,1.0,,
239,,iti,,html-keyboard-response,239,177025,0.0-1.0-336.0,0,0,4,,,,,,,,,,,,,,,,,,,,,,,,,,,,46.0,1.5,,
240,,rl_choice,,html-keyboard-response,240,177354,0.0-1.0-338.0,0,0,4,,328.0,,,51.0,48.0,48.0,2.0,easy,3500.0,1000.0,1.0,80.0,20.0,60.0,0.0,B,A,/static/Simple_RL/Stimuli/Fractals_stims/B.jpg,/static/Simple_RL/Stimuli/Fractals_stims/A.jpg,0.0,20.0,80.0,0.0,60.0,A,B,46.328,0.328,0.0,
241,,rl_choice_confirmation,,html-keyboard-response,241,178532,0.0-1.0-339.0-0.0,0,0,4,,,,,,48.0,,,,,,,,,,,,,,,,,,,,,,47.5,1.172,,
242,,isi,,html-keyboard-response,242,178635,0.0-1.0-341.0,0,0,4,,,,,,,,,,,,,,,,,,,,,,,,,,,,48.5,1.0,,
243,,feedback,,html-keyboard-response,243,179637,0.0-1.0-342.0-0.0,0,0,4,,,,,,48.0,,,,,,,,,,,,,,,,,,,,,,49.5,1.0,,
244,,iti,,html-keyboard-response,244,179739,0.0-1.0-343.0,0,0,4,,,,,,,,,,,,,,,,,,,,,,,,,,,,53.0,3.5,,
245,,rl_choice,,html-keyboard-response,245,180788,0.0-1.0-345.0,0,0,4,,1047.0,,,51.0,49.0,49.0,2.0,hard,1000.0,3500.0,1.0,60.0,40.0,80.0,20.0,D,C,/static/Simple_RL/Stimuli/Fractals_stims/D.jpg,/static/Simple_RL/Stimuli/Fractals_stims/C.jpg,0.0,40.0,60.0,20.0,80.0,C,D,54.047,1.047,0.0,
246,,rl_choice_confirmation,,html-keyboard-response,246,181243,0.0-1.0-346.0-0.0,0,0,4,,,,,,49.0,,,,,,,,,,,,,,,,,,,,,,54.5,0.453,,
247,,isi,,html-keyboard-response,247,181349,0.0-1.0-348.0,0,0,4,,,,,,,,,,,,,,,,,,,,,,,,,,,,58.0,3.5,,
248,,feedback,,html-keyboard-response,248,182353,0.0-1.0-349.0-0.0,0,0,4,,,,,,49.0,,,,,,,,,,,,,,,,,,,,,,59.0,1.0,,
249,,iti,,html-keyboard-response,249,182454,0.0-1.0-350.0,0,0,4,,,,,,,,,,,,,,,,,,,,,,,,,,,,60.0,1.0,,
250,,rl_choice,,html-keyboard-response,250,183468,0.0-1.0-352.0,0,0,4,,1013.0,,,51.0,50.0,50.0,2.0,easy,1000.0,1500.0,1.0,80.0,20.0,80.0,40.0,B,A,/static/Simple_RL/Stimuli/Fractals_stims/B.jpg,/static/Simple_RL/Stimuli/Fractals_stims/A.jpg,0.0,20.0,80.0,40.0,80.0,A,B,61.013,1.013,0.0,
251,,rl_choice_confirmation,,html-keyboard-response,251,183962,0.0-1.0-353.0-0.0,0,0,4,,,,,,50.0,,,,,,,,,,,,,,,,,,,,,,61.5,0.487,,
252,,isi,,html-keyboard-response,252,184066,0.0-1.0-355.0,0,0,4,,,,,,,,,,,,,,,,,,,,,,,,,,,,63.0,1.5,,
253,,feedback,,html-keyboard-response,253,185068,0.0-1.0-356.0-0.0,0,0,4,,,,,,50.0,,,,,,,,,,,,,,,,,,,,,,64.0,1.0,,
254,,iti,,html-keyboard-response,254,185170,0.0-1.0-357.0,0,0,4,,,,,,,,,,,,,,,,,,,,,,,,,,,,65.0,1.0,,
255,,rl_choice,,html-keyboard-response,255,185498,0.0-1.0-359.0,0,0,4,,327.0,,,50.0,51.0,51.0,2.0,easy,1000.0,2000.0,0.0,20.0,80.0,0.0,100.0,A,B,/static/Simple_RL/Stimuli/Fractals_stims/A.jpg,/static/Simple_RL/Stimuli/Fractals_stims/B.jpg,1.0,20.0,80.0,0.0,100.0,A,B,65.327,0.327,0.0,
256,,rl_choice_confirmation,,html-keyboard-response,256,186673,0.0-1.0-360.0-0.0,0,0,4,,,,,,51.0,,,,,,,,,,,,,,,,,,,,,,66.5,1.173,,
257,,isi,,html-keyboard-response,257,186779,0.0-1.0-362.0,0,0,4,,,,,,,,,,,,,,,,,,,,,,,,,,,,68.5,2.0,,
258,,feedback,,html-keyboard-response,258,187783,0.0-1.0-363.0-0.0,0,0,4,,,,,,51.0,,,,,,,,,,,,,,,,,,,,,,69.5,1.0,,
259,,iti,,html-keyboard-response,259,187889,0.0-1.0-364.0,0,0,4,,,,,,,,,,,,,,,,,,,,,,,,,,,,70.5,1.0,,
260,,rl_choice,,html-keyboard-response,260,188101,0.0-1.0-366.0,0,0,4,,211.0,,,50.0,52.0,52.0,2.0,easy,3000.0,1500.0,0.0,20.0,80.0,40.0,80.0,A,B,/static/Simple_RL/Stimuli/Fractals_stims/A.jpg,/static/Simple_RL/Stimuli/Fractals_stims/B.jpg,1.0,20.0,80.0,40.0,80.0,A,B,70.711,0.211,0.0,
261,,rl_choice_confirmation,,html-keyboard-response,261,189393,0.0-1.0-367.0-0.0,0,0,4,,,,,,52.0,,,,,,,,,,,,,,,,,,,,,,72.0,1.289,,
262,,isi,,html-keyboard-response,262,189494,0.0-1.0-369.0,0,0,4,,,,,,,,,,,,,,,,,,,,,,,,,,,,73.5,1.5,,
263,,feedback,,html-keyboard-response,263,190499,0.0-1.0-370.0-0.0,0,0,4,,,,,,52.0,,,,,,,,,,,,,,,,,,,,,,74.5,1.0,,
264,,iti,,html-keyboard-response,264,190604,0.0-1.0-371.0,0,0,4,,,,,,,,,,,,,,,,,,,,,,,,,,,,77.5,3.0,,
265,,rl_choice,,html-keyboard-response,265,191692,0.0-1.0-373.0,0,0,4,,1087.0,,,51.0,53.0,53.0,2.0,hard,2000.0,1000.0,1.0,60.0,40.0,60.0,40.0,D,C,/static/Simple_RL/Stimuli/Fractals_stims/D.jpg,/static/Simple_RL/Stimuli/Fractals_stims/C.jpg,0.0,40.0,60.0,40.0,60.0,C,D,78.587,1.087,0.0,
266,,rl_choice_confirmation,,html-keyboard-response,266,192107,0.0-1.0-374.0-0.0,0,0,4,,,,,,53.0,,,,,,,,,,,,,,,,,,,,,,79.0,0.413,,
267,,isi,,html-keyboard-response,267,192209,0.0-1.0-376.0,0,0,4,,,,,,,,,,,,,,,,,,,,,,,,,,,,80.0,1.0,,
268,,feedback,,html-keyboard-response,268,193211,0.0-1.0-377.0-0.0,0,0,4,,,,,,53.0,,,,,,,,,,,,,,,,,,,,,,81.0,1.0,,
269,,iti,,html-keyboard-response,269,193317,0.0-1.0-378.0,0,0,4,,,,,,,,,,,,,,,,,,,,,,,,,,,,83.0,2.0,,
270,,rl_choice,,html-keyboard-response,270,193370,0.0-1.0-380.0,0,0,4,,52.0,,,50.0,54.0,54.0,2.0,easy,2000.0,1500.0,0.0,20.0,80.0,0.0,100.0,A,B,/static/Simple_RL/Stimuli/Fractals_stims/A.jpg,/static/Simple_RL/Stimuli/Fractals_stims/B.jpg,1.0,20.0,80.0,0.0,100.0,A,B,83.052,0.052,0.0,
271,,rl_choice_confirmation,,html-keyboard-response,271,194820,0.0-1.0-381.0-0.0,0,0,4,,,,,,54.0,,,,,,,,,,,,,,,,,,,,,,84.5,1.448,,
272,,isi,,html-keyboard-response,272,194922,0.0-1.0-383.0,0,0,4,,,,,,,,,,,,,,,,,,,,,,,,,,,,86.0,1.5,,
273,,feedback,,html-keyboard-response,273,195926,0.0-1.0-384.0-0.0,0,0,4,,,,,,54.0,,,,,,,,,,,,,,,,,,,,,,87.0,1.0,,
274,,iti,,html-keyboard-response,274,196028,0.0-1.0-385.0,0,0,4,,,,,,,,,,,,,,,,,,,,,,,,,,,,89.0,2.0,,
275,,rl_choice,,html-keyboard-response,275,196108,0.0-1.0-387.0,0,0,4,,79.0,,,50.0,55.0,55.0,2.0,easy,1000.0,1000.0,0.0,20.0,80.0,40.0,100.0,A,B,/static/Simple_RL/Stimuli/Fractals_stims/A.jpg,/static/Simple_RL/Stimuli/Fractals_stims/B.jpg,1.0,20.0,80.0,40.0,100.0,A,B,89.079,0.079,0.0,
276,,rl_choice_confirmation,,html-keyboard-response,276,197533,0.0-1.0-388.0-0.0,0,0,4,,,,,,55.0,,,,,,,,,,,,,,,,,,,,,,90.5,1.421,,
277,,isi,,html-keyboard-response,277,197638,0.0-1.0-390.0,0,0,4,,,,,,,,,,,,,,,,,,,,,,,,,,,,91.5,1.0,,
278,,feedback,,html-keyboard-response,278,198641,0.0-1.0-391.0-0.0,0,0,4,,,,,,55.0,,,,,,,,,,,,,,,,,,,,,,92.5,1.0,,
279,,iti,,html-keyboard-response,279,198742,0.0-1.0-392.0,0,0,4,,,,,,,,,,,,,,,,,,,,,,,,,,,,93.5,1.0,,
280,,rl_choice,,html-keyboard-response,280,200246,0.0-1.0-394.0,0,0,4,,,,,,56.0,56.0,2.0,hard,2000.0,1000.0,1.0,60.0,40.0,60.0,20.0,D,C,/static/Simple_RL/Stimuli/Fractals_stims/D.jpg,/static/Simple_RL/Stimuli/Fractals_stims/C.jpg,,,,,,,,95.0,1.5,1.0,
281,,rl_choice_warning,,html-keyboard-response,281,201249,0.0-1.0-396.0-0.0,1,0,4,,,,,,,,,,,,,,,,,,,,,,,,,,,,96.0,1.0,,
282,,isi,,html-keyboard-response,282,201354,0.0-1.0-397.0,0,0,4,,,,,,,,,,,,,,,,,,,,,,,,,,,,97.0,1.0,,
283,,iti,,html-keyboard-response,283,201457,0.0-1.0-399.0,0,0,4,,,,,,,,,,,,,,,,,,,,,,,,,,,,99.0,2.0,,
284,,rl_choice,,html-keyboard-response,284,202964,0.0-1.0-401.0,0,0,4,,,,,,57.0,57.0,2.0,easy,1000.0,2000.0,1.0,80.0,20.0,80.0,0.0,B,A,/static/Simple_RL/Stimuli/Fractals_stims/B.jpg,/static/Simple_RL/Stimuli/Fractals_stims/A.jpg,,,,,,,,100.5,1.5,1.0,
285,,rl_choice_warning,,html-keyboard-response,285,203969,0.0-1.0-403.0-0.0,1,0,4,,,,,,,,,,,,,,,,,,,,,,,,,,,,101.5,1.0,,
286,,isi,,html-keyboard-response,286,204070,0.0-1.0-404.0,0,0,4,,,,,,,,,,,,,,,,,,,,,,,,,,,,103.5,2.0,,
287,,iti,,html-keyboard-response,287,204172,0.0-1.0-406.0,0,0,4,,,,,,,,,,,,,,,,,,,,,,,,,,,,104.5,1.0,,
288,,rl_choice,,html-keyboard-response,288,205676,0.0-1.0-408.0,0,0,4,,,,,,58.0,58.0,2.0,hard,1000.0,1500.0,1.0,60.0,40.0,60.0,60.0,D,C,/static/Simple_RL/Stimuli/Fractals_stims/D.jpg,/static/Simple_RL/Stimuli/Fractals_stims/C.jpg,,,,,,,,106.0,1.5,1.0,
289,,rl_choice_warning,,html-keyboard-response,289,206678,0.0-1.0-410.0-0.0,1,0,4,,,,,,,,,,,,,,,,,,,,,,,,,,,,107.0,1.0,,
290,,isi,,html-keyboard-response,290,206783,0.0-1.0-411.0,0,0,4,,,,,,,,,,,,,,,,,,,,,,,,,,,,108.5,1.5,,
291,,iti,,html-keyboard-response,291,206886,0.0-1.0-413.0,0,0,4,,,,,,,,,,,,,,,,,,,,,,,,,,,,109.5,1.0,,
292,,rl_choice,,html-keyboard-response,292,208390,0.0-1.0-415.0,0,0,4,,,,,,59.0,59.0,2.0,easy,1500.0,3000.0,1.0,80.0,20.0,80.0,40.0,B,A,/static/Simple_RL/Stimuli/Fractals_stims/B.jpg,/static/Simple_RL/Stimuli/Fractals_stims/A.jpg,,,,,,,,111.0,1.5,1.0,
293,,rl_choice_warning,,html-keyboard-response,293,209393,0.0-1.0-417.0-0.0,1,0,4,,,,,,,,,,,,,,,,,,,,,,,,,,,,112.0,1.0,,
294,,isi,,html-keyboard-response,294,209494,0.0-1.0-418.0,0,0,4,,,,,,,,,,,,,,,,,,,,,,,,,,,,115.0,3.0,,
295,,iti,,html-keyboard-response,295,209600,0.0-1.0-420.0,0,0,4,,,,,,,,,,,,,,,,,,,,,,,,,,,,116.5,1.5,,
296,,rl_choice,,html-keyboard-response,296,211105,0.0-1.0-422.0,0,0,4,,,,,,60.0,60.0,2.0,hard,1500.0,2000.0,0.0,40.0,60.0,40.0,80.0,C,D,/static/Simple_RL/Stimuli/Fractals_stims/C.jpg,/static/Simple_RL/Stimuli/Fractals_stims/D.jpg,,,,,,,,118.0,1.5,1.0,
297,,rl_choice_warning,,html-keyboard-response,297,212110,0.0-1.0-424.0-0.0,1,0,4,,,,,,,,,,,,,,,,,,,,,,,,,,,,119.0,1.0,,
298,,isi,,html-keyboard-response,298,212214,0.0-1.0-425.0,0,0,4,,,,,,,,,,,,,,,,,,,,,,,,,,,,121.0,2.0,,
299,,iti,,html-keyboard-response,299,212318,0.0-1.0-427.0,0,0,4,,,,,,,,,,,,,,,,,,,,,,,,,,,,122.5,1.5,,
300,,rl_choice,,html-keyboard-response,300,213822,0.0-1.0-429.0,0,0,4,,,,,,61.0,61.0,2.0,hard,1000.0,1000.0,1.0,60.0,40.0,40.0,40.0,D,C,/static/Simple_RL/Stimuli/Fractals_stims/D.jpg,/static/Simple_RL/Stimuli/Fractals_stims/C.jpg,,,,,,,,124.0,1.5,1.0,
301,,rl_choice_warning,,html-keyboard-response,301,214828,0.0-1.0-431.0-0.0,1,0,4,,,,,,,,,,,,,,,,,,,,,,,,,,,,125.0,1.0,,
302,,isi,,html-keyboard-response,302,214933,0.0-1.0-432.0,0,0,4,,,,,,,,,,,,,,,,,,,,,,,,,,,,126.0,1.0,,
303,,iti,,html-keyboard-response,303,215036,0.0-1.0-434.0,0,0,4,,,,,,,,,,,,,,,,,,,,,,,,,,,,127.0,1.0,,
304,,rl_choice,,html-keyboard-response,304,216541,0.0-1.0-436.0,0,0,4,,,,,,62.0,62.0,2.0,easy,3000.0,1500.0,0.0,20.0,80.0,20.0,80.0,A,B,/static/Simple_RL/Stimuli/Fractals_stims/A.jpg,/static/Simple_RL/Stimuli/Fractals_stims/B.jpg,,,,,,,,128.5,1.5,1.0,
305,,rl_choice_warning,,html-keyboard-response,305,217542,0.0-1.0-438.0-0.0,1,0,4,,,,,,,,,,,,,,,,,,,,,,,,,,,,129.5,1.0,,
306,,isi,,html-keyboard-response,306,217644,0.0-1.0-439.0,0,0,4,,,,,,,,,,,,,,,,,,,,,,,,,,,,131.0,1.5,,
307,,iti,,html-keyboard-response,307,217750,0.0-1.0-441.0,0,0,4,,,,,,,,,,,,,,,,,,,,,,,,,,,,134.0,3.0,,
308,,rl_choice,,html-keyboard-response,308,219255,0.0-1.0-443.0,0,0,4,,,,,,63.0,63.0,2.0,hard,1000.0,1500.0,1.0,60.0,40.0,60.0,40.0,D,C,/static/Simple_RL/Stimuli/Fractals_stims/D.jpg,/static/Simple_RL/Stimuli/Fractals_stims/C.jpg,,,,,,,,135.5,1.5,1.0,
309,,rl_choice_warning,,html-keyboard-response,309,220257,0.0-1.0-445.0-0.0,1,0,4,,,,,,,,,,,,,,,,,,,,,,,,,,,,136.5,1.0,,
310,,isi,,html-keyboard-response,310,220359,0.0-1.0-446.0,0,0,4,,,,,,,,,,,,,,,,,,,,,,,,,,,,138.0,1.5,,
311,,iti,,html-keyboard-response,311,220465,0.0-1.0-448.0,0,0,4,,,,,,,,,,,,,,,,,,,,,,,,,,,,139.0,1.0,,
312,,rl_choice,,html-keyboard-response,312,221969,0.0-1.0-450.0,0,0,4,,,,,,64.0,64.0,2.0,hard,3500.0,1000.0,0.0,40.0,60.0,60.0,80.0,C,D,/static/Simple_RL/Stimuli/Fractals_stims/C.jpg,/static/Simple_RL/Stimuli/Fractals_stims/D.jpg,,,,,,,,140.5,1.5,1.0,
313,,rl_choice_warning,,html-keyboard-response,313,222972,0.0-1.0-452.0-0.0,1,0,4,,,,,,,,,,,,,,,,,,,,,,,,,,,,141.5,1.0,,
314,,isi,,html-keyboard-response,314,223073,0.0-1.0-453.0,0,0,4,,,,,,,,,,,,,,,,,,,,,,,,,,,,142.5,1.0,,
315,,iti,,html-keyboard-response,315,223176,0.0-1.0-455.0,0,0,4,,,,,,,,,,,,,,,,,,,,,,,,,,,,146.0,3.5,,
316,,rl_choice,,html-keyboard-response,316,224678,0.0-1.0-457.0,0,0,4,,,,,,65.0,65.0,2.0,easy,1500.0,1000.0,1.0,80.0,20.0,100.0,40.0,B,A,/static/Simple_RL/Stimuli/Fractals_stims/B.jpg,/static/Simple_RL/Stimuli/Fractals_stims/A.jpg,,,,,,,,147.5,1.5,1.0,
317,,rl_choice_warning,,html-keyboard-response,317,225683,0.0-1.0-459.0-0.0,1,0,4,,,,,,,,,,,,,,,,,,,,,,,,,,,,148.5,1.0,,
318,,isi,,html-keyboard-response,318,225788,0.0-1.0-460.0,0,0,4,,,,,,,,,,,,,,,,,,,,,,,,,,,,149.5,1.0,,
319,,iti,,html-keyboard-response,319,225892,0.0-1.0-462.0,0,0,4,,,,,,,,,,,,,,,,,,,,,,,,,,,,151.0,1.5,,
320,,rl_choice,,html-keyboard-response,320,227399,0.0-1.0-464.0,0,0,4,,,,,,66.0,66.0,2.0,hard,1500.0,3000.0,1.0,60.0,40.0,60.0,40.0,D,C,/static/Simple_RL/Stimuli/Fractals_stims/D.jpg,/static/Simple_RL/Stimuli/Fractals_stims/C.jpg,,,,,,,,152.5,1.5,1.0,
321,,rl_choice_warning,,html-keyboard-response,321,228403,0.0-1.0-466.0-0.0,1,0,4,,,,,,,,,,,,,,,,,,,,,,,,,,,,153.5,1.0,,
322,,isi,,html-keyboard-response,322,228507,0.0-1.0-467.0,0,0,4,,,,,,,,,,,,,,,,,,,,,,,,,,,,156.5,3.0,,
323,,iti,,html-keyboard-response,323,228609,0.0-1.0-469.0,0,0,4,,,,,,,,,,,,,,,,,,,,,,,,,,,,158.0,1.5,,
324,,rl_choice,,html-keyboard-response,324,228659,0.0-1.0-471.0,0,0,4,,49.0,,,50.0,67.0,67.0,2.0,hard,1500.0,1500.0,0.0,40.0,60.0,20.0,80.0,C,D,/static/Simple_RL/Stimuli/Fractals_stims/C.jpg,/static/Simple_RL/Stimuli/Fractals_stims/D.jpg,1.0,40.0,60.0,20.0,80.0,C,D,158.049,0.049,0.0,
325,,rl_choice_confirmation,,html-keyboard-response,325,230117,0.0-1.0-472.0-0.0,0,0,4,,,,,,67.0,,,,,,,,,,,,,,,,,,,,,,159.5,1.451,,
326,,isi,,html-keyboard-response,326,230218,0.0-1.0-474.0,0,0,4,,,,,,,,,,,,,,,,,,,,,,,,,,,,161.0,1.5,,
327,,feedback,,html-keyboard-response,327,231219,0.0-1.0-475.0-0.0,0,0,4,,,,,,67.0,,,,,,,,,,,,,,,,,,,,,,162.0,1.0,,
328,,iti,,html-keyboard-response,328,231324,0.0-1.0-476.0,0,0,4,,,,,,,,,,,,,,,,,,,,,,,,,,,,163.5,1.5,,
329,,rl_choice,,html-keyboard-response,329,231617,0.0-1.0-478.0,0,0,4,,292.0,,,51.0,68.0,68.0,2.0,hard,3000.0,1000.0,1.0,60.0,40.0,60.0,40.0,D,C,/static/Simple_RL/Stimuli/Fractals_stims/D.jpg,/static/Simple_RL/Stimuli/Fractals_stims/C.jpg,0.0,40.0,60.0,40.0,60.0,C,D,163.792,0.292,0.0,
330,,rl_choice_confirmation,,html-keyboard-response,330,232828,0.0-1.0-479.0-0.0,0,0,4,,,,,,68.0,,,,,,,,,,,,,,,,,,,,,,165.0,1.208,,
331,,isi,,html-keyboard-response,331,232934,0.0-1.0-481.0,0,0,4,,,,,,,,,,,,,,,,,,,,,,,,,,,,166.0,1.0,,
332,,feedback,,html-keyboard-response,332,233937,0.0-1.0-482.0-0.0,0,0,4,,,,,,68.0,,,,,,,,,,,,,,,,,,,,,,167.0,1.0,,
333,,iti,,html-keyboard-response,333,234038,0.0-1.0-483.0,0,0,4,,,,,,,,,,,,,,,,,,,,,,,,,,,,170.0,3.0,,
334,,rl_choice,,html-keyboard-response,334,234163,0.0-1.0-485.0,0,0,4,,124.0,,,51.0,69.0,69.0,2.0,easy,1000.0,1000.0,0.0,20.0,80.0,40.0,80.0,A,B,/static/Simple_RL/Stimuli/Fractals_stims/A.jpg,/static/Simple_RL/Stimuli/Fractals_stims/B.jpg,0.0,80.0,20.0,80.0,40.0,B,A,170.124,0.124,0.0,
335,,rl_choice_confirmation,,html-keyboard-response,335,235542,0.0-1.0-486.0-0.0,0,0,4,,,,,,69.0,,,,,,,,,,,,,,,,,,,,,,171.5,1.376,,
336,,isi,,html-keyboard-response,336,235646,0.0-1.0-488.0,0,0,4,,,,,,,,,,,,,,,,,,,,,,,,,,,,172.5,1.0,,
337,,feedback,,html-keyboard-response,337,236651,0.0-1.0-489.0-0.0,0,0,4,,,,,,69.0,,,,,,,,,,,,,,,,,,,,,,173.5,1.0,,
338,,iti,,html-keyboard-response,338,236753,0.0-1.0-490.0,0,0,4,,,,,,,,,,,,,,,,,,,,,,,,,,,,174.5,1.0,,
339,,rl_choice,,html-keyboard-response,339,238257,0.0-1.0-492.0,0,0,4,,,,,,70.0,70.0,2.0,easy,1500.0,1000.0,1.0,80.0,20.0,80.0,20.0,B,A,/static/Simple_RL/Stimuli/Fractals_stims/B.jpg,/static/Simple_RL/Stimuli/Fractals_stims/A.jpg,,,,,,,,176.0,1.5,1.0,
340,,rl_choice_warning,,html-keyboard-response,340,239260,0.0-1.0-494.0-0.0,1,0,4,,,,,,,,,,,,,,,,,,,,,,,,,,,,177.0,1.0,,
341,,isi,,html-keyboard-response,341,239361,0.0-1.0-495.0,0,0,4,,,,,,,,,,,,,,,,,,,,,,,,,,,,178.0,1.0,,
342,,iti,,html-keyboard-response,342,239467,0.0-1.0-497.0,0,0,4,,,,,,,,,,,,,,,,,,,,,,,,,,,,179.5,1.5,,
343,,rl_choice,,html-keyboard-response,343,240972,0.0-1.0-499.0,0,0,4,,,,,,71.0,71.0,2.0,easy,1500.0,1000.0,0.0,20.0,80.0,40.0,60.0,A,B,/static/Simple_RL/Stimuli/Fractals_stims/A.jpg,/static/Simple_RL/Stimuli/Fractals_stims/B.jpg,,,,,,,,181.0,1.5,1.0,
344,,rl_choice_warning,,html-keyboard-response,344,241975,0.0-1.0-501.0-0.0,1,0,4,,,,,,,,,,,,,,,,,,,,,,,,,,,,182.0,1.0,,
345,,isi,,html-keyboard-response,345,242076,0.0-1.0-502.0,0,0,4,,,,,,,,,,,,,,,,,,,,,,,,,,,,183.0,1.0,,
346,,iti,,html-keyboard-response,346,242177,0.0-1.0-504.0,0,0,4,,,,,,,,,,,,,,,,,,,,,,,,,,,,184.5,1.5,,
347,,rl_choice,,html-keyboard-response,347,243683,0.0-1.0-506.0,0,0,4,,,,,,72.0,72.0,2.0,easy,2000.0,3000.0,0.0,20.0,80.0,20.0,100.0,A,B,/static/Simple_RL/Stimuli/Fractals_stims/A.jpg,/static/Simple_RL/Stimuli/Fractals_stims/B.jpg,,,,,,,,186.0,1.5,1.0,
348,,rl_choice_warning,,html-keyboard-response,348,244684,0.0-1.0-508.0-0.0,1,0,4,,,,,,,,,,,,,,,,,,,,,,,,,,,,187.0,1.0,,
349,,isi,,html-keyboard-response,349,244786,0.0-1.0-509.0,0,0,4,,,,,,,,,,,,,,,,,,,,,,,,,,,,190.0,3.0,,
350,,iti,,html-keyboard-response,350,244890,0.0-1.0-511.0,0,0,4,,,,,,,,,,,,,,,,,,,,,,,,,,,,192.0,2.0,,
351,,rl_choice,,html-keyboard-response,351,246395,0.0-1.0-513.0,0,0,4,,,,,,73.0,73.0,2.0,easy,1000.0,3500.0,0.0,20.0,80.0,40.0,60.0,A,B,/static/Simple_RL/Stimuli/Fractals_stims/A.jpg,/static/Simple_RL/Stimuli/Fractals_stims/B.jpg,,,,,,,,193.5,1.5,1.0,
352,,rl_choice_warning,,html-keyboard-response,352,247400,0.0-1.0-515.0-0.0,1,0,4,,,,,,,,,,,,,,,,,,,,,,,,,,,,194.5,1.0,,
353,,isi,,html-keyboard-response,353,247506,0.0-1.0-516.0,0,0,4,,,,,,,,,,,,,,,,,,,,,,,,,,,,198.0,3.5,,
354,,iti,,html-keyboard-response,354,247612,0.0-1.0-518.0,0,0,4,,,,,,,,,,,,,,,,,,,,,,,,,,,,199.0,1.0,,
355,,rl_choice,,html-keyboard-response,355,249117,0.0-1.0-520.0,0,0,4,,,,,,74.0,74.0,2.0,hard,3000.0,1000.0,0.0,40.0,60.0,40.0,40.0,C,D,/static/Simple_RL/Stimuli/Fractals_stims/C.jpg,/static/Simple_RL/Stimuli/Fractals_stims/D.jpg,,,,,,,,200.5,1.5,1.0,
356,,rl_choice_warning,,html-keyboard-response,356,250119,0.0-1.0-522.0-0.0,1,0,4,,,,,,,,,,,,,,,,,,,,,,,,,,,,201.5,1.0,,
357,,isi,,html-keyboard-response,357,250220,0.0-1.0-523.0,0,0,4,,,,,,,,,,,,,,,,,,,,,,,,,,,,202.5,1.0,,
358,,iti,,html-keyboard-response,358,250321,0.0-1.0-525.0,0,0,4,,,,,,,,,,,,,,,,,,,,,,,,,,,,205.5,3.0,,
359,,rl_choice,,html-keyboard-response,359,251826,0.0-1.0-527.0,0,0,4,,,,,,75.0,75.0,2.0,easy,1000.0,1000.0,0.0,20.0,80.0,0.0,60.0,A,B,/static/Simple_RL/Stimuli/Fractals_stims/A.jpg,/static/Simple_RL/Stimuli/Fractals_stims/B.jpg,,,,,,,,207.0,1.5,1.0,
360,,rl_choice_warning,,html-keyboard-response,360,252828,0.0-1.0-529.0-0.0,1,0,4,,,,,,,,,,,,,,,,,,,,,,,,,,,,208.0,1.0,,
361,,isi,,html-keyboard-response,361,252934,0.0-1.0-530.0,0,0,4,,,,,,,,,,,,,,,,,,,,,,,,,,,,209.0,1.0,,
362,,iti,,html-keyboard-response,362,253036,0.0-1.0-532.0,0,0,4,,,,,,,,,,,,,,,,,,,,,,,,,,,,210.0,1.0,,
363,,rl_choice,,html-keyboard-response,363,254540,0.0-1.0-534.0,0,0,4,,,,,,76.0,76.0,2.0,easy,2000.0,1500.0,1.0,80.0,20.0,100.0,20.0,B,A,/static/Simple_RL/Stimuli/Fractals_stims/B.jpg,/static/Simple_RL/Stimuli/Fractals_stims/A.jpg,,,,,,,,211.5,1.5,1.0,
364,,rl_choice_warning,,html-keyboard-response,364,255543,0.0-1.0-536.0-0.0,1,0,4,,,,,,,,,,,,,,,,,,,,,,,,,,,,212.5,1.0,,
365,,isi,,html-keyboard-response,365,255648,0.0-1.0-537.0,0,0,4,,,,,,,,,,,,,,,,,,,,,,,,,,,,214.0,1.5,,
366,,iti,,html-keyboard-response,366,255751,0.0-1.0-539.0,0,0,4,,,,,,,,,,,,,,,,,,,,,,,,,,,,216.0,2.0,,
367,,rl_choice,,html-keyboard-response,367,257253,0.0-1.0-541.0,0,0,4,,,,,,77.0,77.0,2.0,easy,1000.0,1000.0,0.0,20.0,80.0,0.0,80.0,A,B,/static/Simple_RL/Stimuli/Fractals_stims/A.jpg,/static/Simple_RL/Stimuli/Fractals_stims/B.jpg,,,,,,,,217.5,1.5,1.0,
368,,rl_choice_warning,,html-keyboard-response,368,258257,0.0-1.0-543.0-0.0,1,0,4,,,,,,,,,,,,,,,,,,,,,,,,,,,,218.5,1.0,,
369,,isi,,html-keyboard-response,369,258359,0.0-1.0-544.0,0,0,4,,,,,,,,,,,,,,,,,,,,,,,,,,,,219.5,1.0,,
370,,iti,,html-keyboard-response,370,258462,0.0-1.0-546.0,0,0,4,,,,,,,,,,,,,,,,,,,,,,,,,,,,220.5,1.0,,
371,,rl_choice,,html-keyboard-response,371,259967,0.0-1.0-548.0,0,0,4,,,,,,78.0,78.0,2.0,hard,1500.0,1000.0,0.0,40.0,60.0,20.0,60.0,C,D,/static/Simple_RL/Stimuli/Fractals_stims/C.jpg,/static/Simple_RL/Stimuli/Fractals_stims/D.jpg,,,,,,,,222.0,1.5,1.0,
372,,rl_choice_warning,,html-keyboard-response,372,260972,0.0-1.0-550.0-0.0,1,0,4,,,,,,,,,,,,,,,,,,,,,,,,,,,,223.0,1.0,,
373,,isi,,html-keyboard-response,373,261073,0.0-1.0-551.0,0,0,4,,,,,,,,,,,,,,,,,,,,,,,,,,,,224.0,1.0,,
374,,iti,,html-keyboard-response,374,261175,0.0-1.0-553.0,0,0,4,,,,,,,,,,,,,,,,,,,,,,,,,,,,225.5,1.5,,
375,,rl_choice,,html-keyboard-response,375,262679,0.0-1.0-555.0,0,0,4,,,,,,79.0,79.0,2.0,easy,2000.0,2000.0,1.0,80.0,20.0,100.0,0.0,B,A,/static/Simple_RL/Stimuli/Fractals_stims/B.jpg,/static/Simple_RL/Stimuli/Fractals_stims/A.jpg,,,,,,,,227.0,1.5,1.0,
376,,rl_choice_warning,,html-keyboard-response,376,263684,0.0-1.0-557.0-0.0,1,0,4,,,,,,,,,,,,,,,,,,,,,,,,,,,,228.0,1.0,,
377,,isi,,html-keyboard-response,377,263788,0.0-1.0-558.0,0,0,4,,,,,,,,,,,,,,,,,,,,,,,,,,,,230.0,2.0,,
378,,iti,,html-keyboard-response,378,263890,0.0-1.0-560.0,0,0,4,,,,,,,,,,,,,,,,,,,,,,,,,,,,232.0,2.0,,0.95
379,,final_tally,,html-keyboard-response,379,270481,0.0-2.0,0,0,4,,6589.0,,,50.0,,,,,,,,,,,,,,,,,,,,,,,,,,
380,,,,html-keyboard-response,380,274143,0.0-3.0,0,0,4,,3642.0,,,50.0,,,,,,,,,,,,,,,,,,,,,,,,,,
