,success,ttype,start_time,trial_type,trial_index,time_elapsed,internal_node_id,warning,missed_checkup,PID,view_history,rt,responses,repeat_instructions,key_press,index,trial_num,isi,iti,is_practice,block,old_trial,pair_type,within_category,high_cat_on_left,left_category,right_category,left_category_value,right_category_value,left_exemplar,right_exemplar,left_exemplar_value,right_exemplar_value,left_img,right_img,left_img_path,right_img_path,left_chosen,chosen_category,unchosen_category,chosen_category_value,unchosen_category_value,chosen_exemplar,unchosen_exemplar,chosen_exemplar_value,unchosen_exemplar_value,no_response,onset,duration,end_practice,total_bonus_tally,category,category_group_value,category_value_response,did_not_enter_response
0,True,full_screen,d06032022hr2301,fullscreen,0,10926,0.0-0.0,0,0,27712,,,,,,,,,,,,,,,,,,,,,,,,,,,,,,,,,,,,,,,,,,,,,
1,,category_learning_instructions,,instructions,1,71099,0.0-1.0-0.0-0.0,0,0,27712,"[{""page_index"":0,""viewing_time"":10819},{""page_index"":1,""viewing_time"":7837},{""page_index"":2,""viewing_time"":6485},{""page_index"":3,""viewing_time"":7566},{""page_index"":4,""viewing_time"":21599},{""page_index"":5,""viewing_time"":3627},{""page_index"":6,""viewing_time"":2236}]",60170.0,,,,,,,,,,,,,,,,,,,,,,,,,,,,,,,,,,,,,,,,,,,
2,,category_learning_comprehension_check,,survey-multi-choice,2,82829,0.0-1.0-0.0-1.0,0,0,27712,,11723.0,"{""Q0"":""True"",""Q1"":""True"",""Q2"":""Stay the same"",""Q3"":""D for left and K for right""}",0.0,,,,,,,,,,,,,,,,,,,,,,,,,,,,,,,,,,,,,,,,,
3,,,,html-keyboard-response,3,84747,0.0-1.0-1.0,0,0,27712,,1913.0,,,68.0,,,,,,,,,,,,,,,,,,,,,,,,,,,,,,,,,,,,,,,,
4,,choice,,html-keyboard-response,4,85881,0.0-1.0-2.0-0.0-0.0,0,0,27712,,1129.0,,,68.0,0.0,0.0,1500.0,1000.0,1.0,0.0,0.0,20-80,,0.0,bagel,dumbbell,20.0,80.0,bagel1,dumbbell1,0.0,80.0,bagels_pumpernickel_large.jpg,31B64EN68AL._AA280_.jpg,/static/Category_learning/Stimuli/Practice_stims/bagel/bagels_pumpernickel_large.jpg,/static/Category_learning/Stimuli/Practice_stims/dumbbell/31B64EN68AL._AA280_.jpg,1.0,bagel,dumbbell,20.0,80.0,bagel1,dumbbell1,0.0,80.0,0.0,1.129,1.129,,,,,,
5,,confirmation,,html-keyboard-response,5,86260,0.0-1.0-2.0-0.0-1.0-0.0,0,0,27712,,,,,,0.0,,,,,,,,,,,,,,,,,,,,,,,,,,,,,,,,1.5,0.371,,,,,,
6,,isi,,html-keyboard-response,6,87765,0.0-1.0-2.0-0.0-2.0,0,0,27712,,,,,,,,,,,,,,,,,,,,,,,,,,,,,,,,,,,,,,3.0,1.5,,,,,,
7,,feedback,,html-keyboard-response,7,88772,0.0-1.0-2.0-0.0-3.0-0.0,0,0,27712,,,,,,0.0,,,,,,,,,,,,,,,,,,,,,,,,,,,,,,,,4.0,1.0,,,,,,
8,,iti,,html-keyboard-response,8,89777,0.0-1.0-2.0-0.0-5.0,0,0,27712,,,,,,,,,,,,,,,,,,,,,,,,,,,,,,,,,,,,,,5.0,1.0,,,,,,
9,,choice,,html-keyboard-response,9,91284,0.0-1.0-3.0-0.0-0.0,0,0,27712,,,,,,1.0,1.0,3000.0,1500.0,1.0,0.0,0.0,20-40,,1.0,calculator,bagel,40.0,20.0,calculator2,bagel2,20.0,20.0,22829064.thl.jpg,bagels_cinnraisin_large.jpg,/static/Category_learning/Stimuli/Practice_stims/calculator/22829064.thl.jpg,/static/Category_learning/Stimuli/Practice_stims/bagel/bagels_cinnraisin_large.jpg,,,,,,,,,,1.0,6.5,1.5,,,,,,
10,,isi,,html-keyboard-response,10,94292,0.0-1.0-3.0-0.0-2.0,0,0,27712,,,,,,,,,,,,,,,,,,,,,,,,,,,,,,,,,,,,,,9.5,3.0,,,,,,
11,,no_response,,html-keyboard-response,11,95300,0.0-1.0-3.0-0.0-4.0-0.0,0,0,27712,,,,,,,,,,,,,,,,,,,,,,,,,,,,,,,,,,,,,,10.5,1.0,,,,,,
12,,iti,,html-keyboard-response,12,96808,0.0-1.0-3.0-0.0-5.0,0,0,27712,,,,,,,,,,,,,,,,,,,,,,,,,,,,,,,,,,,,,,12.0,1.5,,,,,,
13,,choice,,html-keyboard-response,13,97386,0.0-1.0-3.0-0.1-0.1,0,0,27712,,573.0,,,68.0,1.0,1.0,3000.0,1500.0,1.0,0.0,0.0,20-40,,1.0,calculator,bagel,40.0,20.0,calculator2,bagel2,20.0,20.0,22829064.thl.jpg,bagels_cinnraisin_large.jpg,/static/Category_learning/Stimuli/Practice_stims/calculator/22829064.thl.jpg,/static/Category_learning/Stimuli/Practice_stims/bagel/bagels_cinnraisin_large.jpg,1.0,calculator,bagel,40.0,20.0,calculator2,bagel2,20.0,20.0,0.0,12.573,0.573,,,,,,
14,,confirmation,,html-keyboard-response,14,98318,0.0-1.0-3.0-0.1-1.1-0.1,0,0,27712,,,,,,1.0,,,,,,,,,,,,,,,,,,,,,,,,,,,,,,,,13.5,0.927,,,,,,
15,,isi,,html-keyboard-response,15,101326,0.0-1.0-3.0-0.1-2.1,0,0,27712,,,,,,,,,,,,,,,,,,,,,,,,,,,,,,,,,,,,,,16.5,3.0,,,,,,
16,,feedback,,html-keyboard-response,16,102334,0.0-1.0-3.0-0.1-3.1-0.1,0,0,27712,,,,,,1.0,,,,,,,,,,,,,,,,,,,,,,,,,,,,,,,,17.5,1.0,,,,,,
17,,iti,,html-keyboard-response,17,103840,0.0-1.0-3.0-0.1-5.1,0,0,27712,,,,,,,,,,,,,,,,,,,,,,,,,,,,,,,,,,,,,,19.0,1.5,,,,,,
18,,choice,,html-keyboard-response,18,104778,0.0-1.0-4.0-0.0-0.0,0,0,27712,,934.0,,,75.0,2.0,2.0,2000.0,3000.0,1.0,0.0,0.0,60-80,,0.0,clock,dumbbell,60.0,80.0,clock2,dumbbell2,60.0,100.0,26373355.thl.jpg,31K8MR6TMBL._SS500_.jpg,/static/Category_learning/Stimuli/Practice_stims/clock/26373355.thl.jpg,/static/Category_learning/Stimuli/Practice_stims/dumbbell/31K8MR6TMBL._SS500_.jpg,0.0,dumbbell,clock,80.0,60.0,dumbbell2,clock2,100.0,60.0,0.0,19.934,0.934,,,,,,
19,,confirmation,,html-keyboard-response,19,105349,0.0-1.0-4.0-0.0-1.0-0.0,0,0,27712,,,,,,2.0,,,,,,,,,,,,,,,,,,,,,,,,,,,,,,,,20.5,0.566,,,,,,
20,,isi,,html-keyboard-response,20,107358,0.0-1.0-4.0-0.0-2.0,0,0,27712,,,,,,,,,,,,,,,,,,,,,,,,,,,,,,,,,,,,,,22.5,2.0,,,,,,
21,,feedback,,html-keyboard-response,21,108366,0.0-1.0-4.0-0.0-3.0-0.0,0,0,27712,,,,,,2.0,,,,,,,,,,,,,,,,,,,,,,,,,,,,,,,,23.5,1.0,,,,,,
22,,iti,,html-keyboard-response,22,111374,0.0-1.0-4.0-0.0-5.0,0,0,27712,,,,,,,,,,,,,,,,,,,,,,,,,,,,,,,,,,,,,,26.5,3.0,,,,,,
23,,choice,,html-keyboard-response,23,112373,0.0-1.0-5.0-0.0-0.0,0,0,27712,,995.0,,,68.0,3.0,3.0,1000.0,2000.0,1.0,0.0,0.0,40-80,,0.0,calculator,clock,40.0,60.0,calculator1,clock1,40.0,40.0,22829184.thl.jpg,Aalarmclock2.jpg,/static/Category_learning/Stimuli/Practice_stims/calculator/22829184.thl.jpg,/static/Category_learning/Stimuli/Practice_stims/clock/Aalarmclock2.jpg,1.0,calculator,clock,40.0,60.0,calculator1,clock1,40.0,40.0,0.0,27.495,0.995,,,,,,
24,,confirmation,,html-keyboard-response,24,112883,0.0-1.0-5.0-0.0-1.0-0.0,0,0,27712,,,,,,3.0,,,,,,,,,,,,,,,,,,,,,,,,,,,,,,,,28.0,0.505,,,,,,
25,,isi,,html-keyboard-response,25,113891,0.0-1.0-5.0-0.0-2.0,0,0,27712,,,,,,,,,,,,,,,,,,,,,,,,,,,,,,,,,,,,,,29.0,1.0,,,,,,
26,,feedback,,html-keyboard-response,26,114899,0.0-1.0-5.0-0.0-3.0-0.0,0,0,27712,,,,,,3.0,,,,,,,,,,,,,,,,,,,,,,,,,,,,,,,,30.0,1.0,,,,,,
27,,iti,,html-keyboard-response,27,116904,0.0-1.0-5.0-0.0-5.0,0,0,27712,,,,,,,,,,,,,,,,,,,,,,,,,,,,,,,,,,,,,,32.0,2.0,,,,,,
28,,choice,,html-keyboard-response,28,117941,0.0-1.0-6.0-0.0-0.0,0,0,27712,,1032.0,,,68.0,4.0,4.0,2500.0,2500.0,1.0,0.0,0.0,20-60,,1.0,dumbbell,bagel,80.0,20.0,dumbbell3,bagel3,100.0,40.0,41K7QVRX50L._SS500_.jpg,photo-169.jpg,/static/Category_learning/Stimuli/Practice_stims/dumbbell/41K7QVRX50L._SS500_.jpg,/static/Category_learning/Stimuli/Practice_stims/bagel/photo-169.jpg,1.0,dumbbell,bagel,80.0,20.0,dumbbell3,bagel3,100.0,40.0,0.0,33.032,1.032,1.0,,,,,
29,,confirmation,,html-keyboard-response,29,118413,0.0-1.0-6.0-0.0-1.0-0.0,0,0,27712,,,,,,4.0,,,,,,,,,,,,,,,,,,,,,,,,,,,,,,,,33.5,0.468,,,,,,
30,,isi,,html-keyboard-response,30,120919,0.0-1.0-6.0-0.0-2.0,0,0,27712,,,,,,,,,,,,,,,,,,,,,,,,,,,,,,,,,,,,,,36.0,2.5,,,,,,
31,,feedback,,html-keyboard-response,31,121928,0.0-1.0-6.0-0.0-3.0-0.0,0,0,27712,,,,,,4.0,,,,,,,,,,,,,,,,,,,,,,,,,,,,,,,,37.0,1.0,,,,,,
32,,iti,,html-keyboard-response,32,124434,0.0-1.0-6.0-0.0-5.0,0,0,27712,,,,,,,,,,,,,,,,,,,,,,,,,,,,,,,,,,,,,,39.5,2.5,,,,,,
33,,practice_over,,html-keyboard-response,33,126506,0.0-1.0-6.0-0.0-6.0-0.0,0,0,27712,,2069.0,,,68.0,4.0,,,,,,,,,,,,,,,,,,,,,,,,,,,,,,,,,,,,,,,
34,,start_run,,html-keyboard-response,34,128853,0.0-1.0-6.0-0.0-6.0-1.0,0,0,27712,,2344.0,,,84.0,,,,,,,,,,,,,,,,,,,,,,,,,,,,,,,,,,,,,,,,
35,,choice,,html-keyboard-response,35,130359,0.0-1.0-7.0-0.0-0.0,0,0,27712,,,,,,5.0,5.0,3000.0,2000.0,0.0,1.0,0.0,40-40,,,license plate,hammer,40.0,40.0,license plate13,hammer11,60.0,60.0,usa-rj-9517.jpg,8oz-hammer-copy.jpg,/static/Category_learning/Stimuli/Experimental_stims/license plate/usa-rj-9517.jpg,/static/Category_learning/Stimuli/Experimental_stims/hammer/8oz-hammer-copy.jpg,,,,,,,,,,1.0,1.5,1.5,,,,,,
36,,isi,,html-keyboard-response,36,133367,0.0-1.0-7.0-0.0-2.0,0,0,27712,,,,,,,,,,,,,,,,,,,,,,,,,,,,,,,,,,,,,,4.5,3.0,,,,,,
37,,no_response,,html-keyboard-response,37,134375,0.0-1.0-7.0-0.0-4.0-0.0,0,0,27712,,,,,,,,,,,,,,,,,,,,,,,,,,,,,,,,,,,,,,5.5,1.0,,,,,,
38,,iti,,html-keyboard-response,38,136407,0.0-1.0-7.0-0.0-5.0,0,0,27712,,,,,,,,,,,,,,,,,,,,,,,,,,,,,,,,,,,,,,7.5,2.0,,,,,,
39,,choice,,html-keyboard-response,39,136752,0.0-1.0-7.0-0.1-0.1,0,0,27712,,341.0,,,75.0,5.0,5.0,3000.0,2000.0,0.0,1.0,0.0,40-40,,,license plate,hammer,40.0,40.0,license plate13,hammer11,60.0,60.0,usa-rj-9517.jpg,8oz-hammer-copy.jpg,/static/Category_learning/Stimuli/Experimental_stims/license plate/usa-rj-9517.jpg,/static/Category_learning/Stimuli/Experimental_stims/hammer/8oz-hammer-copy.jpg,0.0,hammer,license plate,40.0,40.0,hammer11,license plate13,60.0,60.0,0.0,7.841,0.341,,,,,,
40,,confirmation,,html-keyboard-response,40,137916,0.0-1.0-7.0-0.1-1.1-0.1,0,0,27712,,,,,,5.0,,,,,,,,,,,,,,,,,,,,,,,,,,,,,,,,9.0,1.159,,,,,,
41,,isi,,html-keyboard-response,41,138921,0.0-1.0-7.0-0.1-2.1,0,0,27712,,,,,,,,,,,,,,,,,,,,,,,,,,,,,,,,,,,,,,10.0,1.0,,,,,,
42,,feedback,,html-keyboard-response,42,139927,0.0-1.0-7.0-0.1-3.1-0.1,0,0,27712,,,,,,5.0,,,,,,,,,,,,,,,,,,,,,,,,,,,,,,,,11.0,1.0,,,,,,
43,,iti,,html-keyboard-response,43,143436,0.0-1.0-7.0-0.1-5.1,0,0,27712,,,,,,,,,,,,,,,,,,,,,,,,,,,,,,,,,,,,,,14.5,3.5,,,,,,
44,,choice,,html-keyboard-response,44,144147,0.0-1.0-8.0-0.0-0.0,0,0,27712,,706.0,,,68.0,6.0,6.0,1000.0,1000.0,0.0,1.0,0.0,20-60,,0.0,flashlight,poker card,20.0,60.0,flashlight9,poker card6,40.0,80.0,new06.jpg,22864212.thl.jpg,/static/Category_learning/Stimuli/Experimental_stims/flashlight/new06.jpg,/static/Category_learning/Stimuli/Experimental_stims/poker card/22864212.thl.jpg,1.0,flashlight,poker card,20.0,60.0,flashlight9,poker card6,40.0,80.0,0.0,15.206,0.706,,,,,,
45,,confirmation,,html-keyboard-response,45,144948,0.0-1.0-8.0-0.0-1.0-0.0,0,0,27712,,,,,,6.0,,,,,,,,,,,,,,,,,,,,,,,,,,,,,,,,16.0,0.794,,,,,,
46,,isi,,html-keyboard-response,46,145953,0.0-1.0-8.0-0.0-2.0,0,0,27712,,,,,,,,,,,,,,,,,,,,,,,,,,,,,,,,,,,,,,17.0,1.0,,,,,,
47,,feedback,,html-keyboard-response,47,146961,0.0-1.0-8.0-0.0-3.0-0.0,0,0,27712,,,,,,6.0,,,,,,,,,,,,,,,,,,,,,,,,,,,,,,,,18.0,1.0,,,,,,
48,,iti,,html-keyboard-response,48,147969,0.0-1.0-8.0-0.0-5.0,0,0,27712,,,,,,,,,,,,,,,,,,,,,,,,,,,,,,,,,,,,,,19.0,1.0,,,,,,
49,,choice,,html-keyboard-response,49,148551,0.0-1.0-9.0-0.0-0.0,0,0,27712,,577.0,,,75.0,7.0,7.0,1500.0,3500.0,0.0,1.0,0.0,60-60,,,seashell,nail polish,60.0,60.0,seashell7,nail polish6,60.0,60.0,seashell34.jpg,127_t.jpg,/static/Category_learning/Stimuli/Experimental_stims/seashell/seashell34.jpg,/static/Category_learning/Stimuli/Experimental_stims/nail polish/127_t.jpg,0.0,nail polish,seashell,60.0,60.0,nail polish6,seashell7,60.0,60.0,0.0,19.577,0.577,,,,,,
50,,confirmation,,html-keyboard-response,50,149479,0.0-1.0-9.0-0.0-1.0-0.0,0,0,27712,,,,,,7.0,,,,,,,,,,,,,,,,,,,,,,,,,,,,,,,,20.5,0.923,,,,,,
51,,isi,,html-keyboard-response,51,150984,0.0-1.0-9.0-0.0-2.0,0,0,27712,,,,,,,,,,,,,,,,,,,,,,,,,,,,,,,,,,,,,,22.0,1.5,,,,,,
52,,feedback,,html-keyboard-response,52,151991,0.0-1.0-9.0-0.0-3.0-0.0,0,0,27712,,,,,,7.0,,,,,,,,,,,,,,,,,,,,,,,,,,,,,,,,23.0,1.0,,,,,,
53,,iti,,html-keyboard-response,53,155499,0.0-1.0-9.0-0.0-5.0,0,0,27712,,,,,,,,,,,,,,,,,,,,,,,,,,,,,,,,,,,,,,26.5,3.5,,,,,,
54,,choice,,html-keyboard-response,54,156441,0.0-1.0-10.0-0.0-0.0,0,0,27712,,937.0,,,68.0,8.0,8.0,1500.0,1000.0,0.0,1.0,0.0,40-80,,1.0,telescope,hat,80.0,40.0,telescope3,hat5,100.0,60.0,41V67SB5NJL._SS500_.jpg,AREDHAT4.jpg,/static/Category_learning/Stimuli/Experimental_stims/telescope/41V67SB5NJL._SS500_.jpg,/static/Category_learning/Stimuli/Experimental_stims/hat/AREDHAT4.jpg,1.0,telescope,hat,80.0,40.0,telescope3,hat5,100.0,60.0,0.0,27.437,0.937,,,,,,
55,,confirmation,,html-keyboard-response,55,157008,0.0-1.0-10.0-0.0-1.0-0.0,0,0,27712,,,,,,8.0,,,,,,,,,,,,,,,,,,,,,,,,,,,,,,,,28.0,0.563,,,,,,
56,,isi,,html-keyboard-response,56,158513,0.0-1.0-10.0-0.0-2.0,0,0,27712,,,,,,,,,,,,,,,,,,,,,,,,,,,,,,,,,,,,,,29.5,1.5,,,,,,
57,,feedback,,html-keyboard-response,57,159521,0.0-1.0-10.0-0.0-3.0-0.0,0,0,27712,,,,,,8.0,,,,,,,,,,,,,,,,,,,,,,,,,,,,,,,,30.5,1.0,,,,,,
58,,iti,,html-keyboard-response,58,160528,0.0-1.0-10.0-0.0-5.0,0,0,27712,,,,,,,,,,,,,,,,,,,,,,,,,,,,,,,,,,,,,,31.5,1.0,,,,,,
59,,choice,,html-keyboard-response,59,161393,0.0-1.0-11.0-0.0-0.0,0,0,27712,,859.0,,,68.0,9.0,9.0,2000.0,3500.0,0.0,1.0,0.0,40-60,,1.0,power strip,makeup compact,60.0,40.0,power strip12,makeup compact1,80.0,60.0,41CXESEH1TL._AA262_.jpg,P190250_hero.jpg,/static/Category_learning/Stimuli/Experimental_stims/power strip/41CXESEH1TL._AA262_.jpg,/static/Category_learning/Stimuli/Experimental_stims/makeup compact/P190250_hero.jpg,1.0,power strip,makeup compact,60.0,40.0,power strip12,makeup compact1,80.0,60.0,0.0,32.359,0.859,,,,,,
60,,confirmation,,html-keyboard-response,60,162039,0.0-1.0-11.0-0.0-1.0-0.0,0,0,27712,,,,,,9.0,,,,,,,,,,,,,,,,,,,,,,,,,,,,,,,,33.0,0.641,,,,,,
61,,isi,,html-keyboard-response,61,164043,0.0-1.0-11.0-0.0-2.0,0,0,27712,,,,,,,,,,,,,,,,,,,,,,,,,,,,,,,,,,,,,,35.0,2.0,,,,,,
62,,feedback,,html-keyboard-response,62,165051,0.0-1.0-11.0-0.0-3.0-0.0,0,0,27712,,,,,,9.0,,,,,,,,,,,,,,,,,,,,,,,,,,,,,,,,36.0,1.0,,,,,,
63,,iti,,html-keyboard-response,63,168560,0.0-1.0-11.0-0.0-5.0,0,0,27712,,,,,,,,,,,,,,,,,,,,,,,,,,,,,,,,,,,,,,39.5,3.5,,,,,,
64,,choice,,html-keyboard-response,64,169414,0.0-1.0-12.0-0.0-0.0,0,0,27712,,849.0,,,75.0,10.0,10.0,1500.0,3500.0,0.0,1.0,1.0,20-60,0.0,,flashlight,power strip,20.0,60.0,flashlight9,power strip12,40.0,80.0,new06.jpg,41CXESEH1TL._AA262_.jpg,/static/Category_learning/Stimuli/Experimental_stims/flashlight/new06.jpg,/static/Category_learning/Stimuli/Experimental_stims/power strip/41CXESEH1TL._AA262_.jpg,0.0,power strip,flashlight,60.0,20.0,power strip12,flashlight9,80.0,40.0,0.0,40.349,0.849,,,,,,
65,,confirmation,,html-keyboard-response,65,170070,0.0-1.0-12.0-0.0-1.0-0.0,0,0,27712,,,,,,10.0,,,,,,,,,,,,,,,,,,,,,,,,,,,,,,,,41.0,0.651,,,,,,
66,,isi,,html-keyboard-response,66,171578,0.0-1.0-12.0-0.0-2.0,0,0,27712,,,,,,,,,,,,,,,,,,,,,,,,,,,,,,,,,,,,,,42.5,1.5,,,,,,
67,,feedback,,html-keyboard-response,67,172586,0.0-1.0-12.0-0.0-3.0-0.0,0,0,27712,,,,,,10.0,,,,,,,,,,,,,,,,,,,,,,,,,,,,,,,,43.5,1.0,,,,,,
68,,iti,,html-keyboard-response,68,176096,0.0-1.0-12.0-0.0-5.0,0,0,27712,,,,,,,,,,,,,,,,,,,,,,,,,,,,,,,,,,,,,,47.0,3.5,,,,,,
69,,choice,,html-keyboard-response,69,176730,0.0-1.0-13.0-0.0-0.0,0,0,27712,,630.0,,,68.0,11.0,11.0,1500.0,1000.0,0.0,1.0,1.0,40-80,0.0,,telescope,hammer,80.0,40.0,telescope3,hammer11,100.0,60.0,41V67SB5NJL._SS500_.jpg,8oz-hammer-copy.jpg,/static/Category_learning/Stimuli/Experimental_stims/telescope/41V67SB5NJL._SS500_.jpg,/static/Category_learning/Stimuli/Experimental_stims/hammer/8oz-hammer-copy.jpg,1.0,telescope,hammer,80.0,40.0,telescope3,hammer11,100.0,60.0,0.0,47.63,0.63,,,,,,
70,,confirmation,,html-keyboard-response,70,177605,0.0-1.0-13.0-0.0-1.0-0.0,0,0,27712,,,,,,11.0,,,,,,,,,,,,,,,,,,,,,,,,,,,,,,,,48.5,0.87,,,,,,
71,,isi,,html-keyboard-response,71,179109,0.0-1.0-13.0-0.0-2.0,0,0,27712,,,,,,,,,,,,,,,,,,,,,,,,,,,,,,,,,,,,,,50.0,1.5,,,,,,
72,,feedback,,html-keyboard-response,72,180117,0.0-1.0-13.0-0.0-3.0-0.0,0,0,27712,,,,,,11.0,,,,,,,,,,,,,,,,,,,,,,,,,,,,,,,,51.0,1.0,,,,,,
73,,iti,,html-keyboard-response,73,181125,0.0-1.0-13.0-0.0-5.0,0,0,27712,,,,,,,,,,,,,,,,,,,,,,,,,,,,,,,,,,,,,,52.0,1.0,,,,,,
74,,choice,,html-keyboard-response,74,182080,0.0-1.0-14.0-0.0-0.0,0,0,27712,,950.0,,,68.0,12.0,12.0,2000.0,1000.0,0.0,1.0,0.0,40-60,,0.0,key chain,sofa,40.0,60.0,key chain13,sofa6,60.0,80.0,Fancy_Liquid_Column_Shape_Key_Ring_with_Floater.jpg,wilkie-sofa-250h-new-cd.jpg,/static/Category_learning/Stimuli/Experimental_stims/key chain/Fancy_Liquid_Column_Shape_Key_Ring_with_Floater.jpg,/static/Category_learning/Stimuli/Experimental_stims/sofa/wilkie-sofa-250h-new-cd.jpg,1.0,key chain,sofa,40.0,60.0,key chain13,sofa6,60.0,80.0,0.0,52.95,0.95,,,,,,
75,,confirmation,,html-keyboard-response,75,182634,0.0-1.0-14.0-0.0-1.0-0.0,0,0,27712,,,,,,12.0,,,,,,,,,,,,,,,,,,,,,,,,,,,,,,,,53.5,0.55,,,,,,
76,,isi,,html-keyboard-response,76,184640,0.0-1.0-14.0-0.0-2.0,0,0,27712,,,,,,,,,,,,,,,,,,,,,,,,,,,,,,,,,,,,,,55.5,2.0,,,,,,
77,,feedback,,html-keyboard-response,77,185647,0.0-1.0-14.0-0.0-3.0-0.0,0,0,27712,,,,,,12.0,,,,,,,,,,,,,,,,,,,,,,,,,,,,,,,,56.5,1.0,,,,,,
78,,iti,,html-keyboard-response,78,186655,0.0-1.0-14.0-0.0-5.0,0,0,27712,,,,,,,,,,,,,,,,,,,,,,,,,,,,,,,,,,,,,,57.5,1.0,,,,,,
79,,choice,,html-keyboard-response,79,187598,0.0-1.0-15.0-0.0-0.0,0,0,27712,,939.0,,,68.0,13.0,13.0,1000.0,1000.0,0.0,1.0,0.0,40-80,,1.0,stool,motorcycle,80.0,40.0,stool7,motorcycle7,80.0,20.0,ASTOOL25.jpg,MotoSmall.jpg,/static/Category_learning/Stimuli/Experimental_stims/stool/ASTOOL25.jpg,/static/Category_learning/Stimuli/Experimental_stims/motorcycle/MotoSmall.jpg,1.0,stool,motorcycle,80.0,40.0,stool7,motorcycle7,80.0,20.0,0.0,58.439,0.939,,,,,,
80,,confirmation,,html-keyboard-response,80,188164,0.0-1.0-15.0-0.0-1.0-0.0,0,0,27712,,,,,,13.0,,,,,,,,,,,,,,,,,,,,,,,,,,,,,,,,59.0,0.561,,,,,,
81,,isi,,html-keyboard-response,81,189172,0.0-1.0-15.0-0.0-2.0,0,0,27712,,,,,,,,,,,,,,,,,,,,,,,,,,,,,,,,,,,,,,60.0,1.0,,,,,,
82,,feedback,,html-keyboard-response,82,190180,0.0-1.0-15.0-0.0-3.0-0.0,0,0,27712,,,,,,13.0,,,,,,,,,,,,,,,,,,,,,,,,,,,,,,,,61.0,1.0,,,,,,
83,,iti,,html-keyboard-response,83,191188,0.0-1.0-15.0-0.0-5.0,0,0,27712,,,,,,,,,,,,,,,,,,,,,,,,,,,,,,,,,,,,,,62.0,1.0,,,,,,
84,,choice,,html-keyboard-response,84,192321,0.0-1.0-16.0-0.0-0.0,0,0,27712,,1129.0,,,75.0,14.0,14.0,1500.0,1000.0,0.0,1.0,0.0,40-80,,1.0,tent,hat,80.0,40.0,tent1,hat13,100.0,20.0,Atent8.jpg,Ahatwithfeath.jpg,/static/Category_learning/Stimuli/Experimental_stims/tent/Atent8.jpg,/static/Category_learning/Stimuli/Experimental_stims/hat/Ahatwithfeath.jpg,0.0,hat,tent,40.0,80.0,hat13,tent1,20.0,100.0,0.0,63.129,1.129,,,,,,
85,,confirmation,,html-keyboard-response,85,192697,0.0-1.0-16.0-0.0-1.0-0.0,0,0,27712,,,,,,14.0,,,,,,,,,,,,,,,,,,,,,,,,,,,,,,,,63.5,0.371,,,,,,
86,,isi,,html-keyboard-response,86,194207,0.0-1.0-16.0-0.0-2.0,0,0,27712,,,,,,,,,,,,,,,,,,,,,,,,,,,,,,,,,,,,,,65.0,1.5,,,,,,
87,,feedback,,html-keyboard-response,87,195214,0.0-1.0-16.0-0.0-3.0-0.0,0,0,27712,,,,,,14.0,,,,,,,,,,,,,,,,,,,,,,,,,,,,,,,,66.0,1.0,,,,,,
88,,iti,,html-keyboard-response,88,196223,0.0-1.0-16.0-0.0-5.0,0,0,27712,,,,,,,,,,,,,,,,,,,,,,,,,,,,,,,,,,,,,,67.0,1.0,,,,,,
89,,choice,,html-keyboard-response,89,197463,0.0-1.0-17.0-0.0-0.0,0,0,27712,,1235.0,,,68.0,15.0,15.0,2000.0,1000.0,0.0,1.0,0.0,60-80,,0.0,necklace,watch,60.0,80.0,necklace3,watch13,60.0,80.0,26388201.thl.jpg,RS_3104_lrg.jpg,/static/Category_learning/Stimuli/Experimental_stims/necklace/26388201.thl.jpg,/static/Category_learning/Stimuli/Experimental_stims/watch/RS_3104_lrg.jpg,1.0,necklace,watch,60.0,80.0,necklace3,watch13,60.0,80.0,0.0,68.235,1.235,,,,,,
90,,confirmation,,html-keyboard-response,90,197733,0.0-1.0-17.0-0.0-1.0-0.0,0,0,27712,,,,,,15.0,,,,,,,,,,,,,,,,,,,,,,,,,,,,,,,,68.5,0.265,,,,,,
91,,isi,,html-keyboard-response,91,199737,0.0-1.0-17.0-0.0-2.0,0,0,27712,,,,,,,,,,,,,,,,,,,,,,,,,,,,,,,,,,,,,,70.5,2.0,,,,,,
92,,feedback,,html-keyboard-response,92,200745,0.0-1.0-17.0-0.0-3.0-0.0,0,0,27712,,,,,,15.0,,,,,,,,,,,,,,,,,,,,,,,,,,,,,,,,71.5,1.0,,,,,,
93,,iti,,html-keyboard-response,93,201753,0.0-1.0-17.0-0.0-5.0,0,0,27712,,,,,,,,,,,,,,,,,,,,,,,,,,,,,,,,,,,,,,72.5,1.0,,,,,,
94,,choice,,html-keyboard-response,94,202637,0.0-1.0-18.0-0.0-0.0,0,0,27712,,878.0,,,68.0,16.0,16.0,3500.0,1000.0,0.0,1.0,1.0,40-60,0.0,,nail polish,key chain,60.0,40.0,nail polish6,key chain13,60.0,60.0,127_t.jpg,Fancy_Liquid_Column_Shape_Key_Ring_with_Floater.jpg,/static/Category_learning/Stimuli/Experimental_stims/nail polish/127_t.jpg,/static/Category_learning/Stimuli/Experimental_stims/key chain/Fancy_Liquid_Column_Shape_Key_Ring_with_Floater.jpg,1.0,nail polish,key chain,60.0,40.0,nail polish6,key chain13,60.0,60.0,0.0,73.378,0.878,,,,,,
95,,confirmation,,html-keyboard-response,95,203264,0.0-1.0-18.0-0.0-1.0-0.0,0,0,27712,,,,,,16.0,,,,,,,,,,,,,,,,,,,,,,,,,,,,,,,,74.0,0.622,,,,,,
96,,isi,,html-keyboard-response,96,206771,0.0-1.0-18.0-0.0-2.0,0,0,27712,,,,,,,,,,,,,,,,,,,,,,,,,,,,,,,,,,,,,,77.5,3.5,,,,,,
97,,feedback,,html-keyboard-response,97,207779,0.0-1.0-18.0-0.0-3.0-0.0,0,0,27712,,,,,,16.0,,,,,,,,,,,,,,,,,,,,,,,,,,,,,,,,78.5,1.0,,,,,,
98,,iti,,html-keyboard-response,98,208787,0.0-1.0-18.0-0.0-5.0,0,0,27712,,,,,,,,,,,,,,,,,,,,,,,,,,,,,,,,,,,,,,79.5,1.0,,,,,,
99,,choice,,html-keyboard-response,99,209538,0.0-1.0-19.0-0.0-0.0,0,0,27712,,746.0,,,75.0,17.0,17.0,3500.0,2000.0,0.0,1.0,0.0,20-20,,,flashlight,bowl,20.0,20.0,flashlight5,bowl12,0.0,20.0,Streamlight-71001-Jr-Flashlight-W-batteries-black-B00018A3CG-L.jpg,Abowl52.jpg,/static/Category_learning/Stimuli/Experimental_stims/flashlight/Streamlight-71001-Jr-Flashlight-W-batteries-black-B00018A3CG-L.jpg,/static/Category_learning/Stimuli/Experimental_stims/bowl/Abowl52.jpg,0.0,bowl,flashlight,20.0,20.0,bowl12,flashlight5,20.0,0.0,0.0,80.246,0.746,,,,,,
100,,confirmation,,html-keyboard-response,100,210297,0.0-1.0-19.0-0.0-1.0-0.0,0,0,27712,,,,,,17.0,,,,,,,,,,,,,,,,,,,,,,,,,,,,,,,,81.0,0.754,,,,,,
101,,isi,,html-keyboard-response,101,213805,0.0-1.0-19.0-0.0-2.0,0,0,27712,,,,,,,,,,,,,,,,,,,,,,,,,,,,,,,,,,,,,,84.5,3.5,,,,,,
102,,feedback,,html-keyboard-response,102,214812,0.0-1.0-19.0-0.0-3.0-0.0,0,0,27712,,,,,,17.0,,,,,,,,,,,,,,,,,,,,,,,,,,,,,,,,85.5,1.0,,,,,,
103,,iti,,html-keyboard-response,103,216817,0.0-1.0-19.0-0.0-5.0,0,0,27712,,,,,,,,,,,,,,,,,,,,,,,,,,,,,,,,,,,,,,87.5,2.0,,,,,,
104,,choice,,html-keyboard-response,104,217646,0.0-1.0-20.0-0.0-0.0,0,0,27712,,825.0,,,68.0,18.0,18.0,1500.0,1500.0,0.0,1.0,1.0,20-40,0.0,,bowl,hat,20.0,40.0,bowl12,hat13,20.0,20.0,Abowl52.jpg,Ahatwithfeath.jpg,/static/Category_learning/Stimuli/Experimental_stims/bowl/Abowl52.jpg,/static/Category_learning/Stimuli/Experimental_stims/hat/Ahatwithfeath.jpg,1.0,bowl,hat,20.0,40.0,bowl12,hat13,20.0,20.0,0.0,88.325,0.825,,,,,,
105,,confirmation,,html-keyboard-response,105,218329,0.0-1.0-20.0-0.0-1.0-0.0,0,0,27712,,,,,,18.0,,,,,,,,,,,,,,,,,,,,,,,,,,,,,,,,89.0,0.675,,,,,,
106,,isi,,html-keyboard-response,106,219832,0.0-1.0-20.0-0.0-2.0,0,0,27712,,,,,,,,,,,,,,,,,,,,,,,,,,,,,,,,,,,,,,90.5,1.5,,,,,,
107,,feedback,,html-keyboard-response,107,220838,0.0-1.0-20.0-0.0-3.0-0.0,0,0,27712,,,,,,18.0,,,,,,,,,,,,,,,,,,,,,,,,,,,,,,,,91.5,1.0,,,,,,
108,,iti,,html-keyboard-response,108,222344,0.0-1.0-20.0-0.0-5.0,0,0,27712,,,,,,,,,,,,,,,,,,,,,,,,,,,,,,,,,,,,,,93.0,1.5,,,,,,
109,,choice,,html-keyboard-response,109,223568,0.0-1.0-21.0-0.0-0.0,0,0,27712,,1220.0,,,68.0,19.0,19.0,1000.0,2000.0,0.0,1.0,0.0,40-40,,,frame,license plate,40.0,40.0,frame8,license plate14,60.0,40.0,AFRAME154.jpg,fl-hel-bel.jpg,/static/Category_learning/Stimuli/Experimental_stims/frame/AFRAME154.jpg,/static/Category_learning/Stimuli/Experimental_stims/license plate/fl-hel-bel.jpg,1.0,frame,license plate,40.0,40.0,frame8,license plate14,60.0,40.0,0.0,94.22,1.22,,,,,,
110,,confirmation,,html-keyboard-response,110,223853,0.0-1.0-21.0-0.0-1.0-0.0,0,0,27712,,,,,,19.0,,,,,,,,,,,,,,,,,,,,,,,,,,,,,,,,94.5,0.28,,,,,,
111,,isi,,html-keyboard-response,111,224857,0.0-1.0-21.0-0.0-2.0,0,0,27712,,,,,,,,,,,,,,,,,,,,,,,,,,,,,,,,,,,,,,95.5,1.0,,,,,,
112,,feedback,,html-keyboard-response,112,225864,0.0-1.0-21.0-0.0-3.0-0.0,0,0,27712,,,,,,19.0,,,,,,,,,,,,,,,,,,,,,,,,,,,,,,,,96.5,1.0,,,,,,
113,,iti,,html-keyboard-response,113,227869,0.0-1.0-21.0-0.0-5.0,0,0,27712,,,,,,,,,,,,,,,,,,,,,,,,,,,,,,,,,,,,,,98.5,2.0,,,,,,
114,,choice,,html-keyboard-response,114,228579,0.0-1.0-22.0-0.0-0.0,0,0,27712,,706.0,,,75.0,20.0,20.0,1000.0,1000.0,0.0,1.0,0.0,20-80,,1.0,vase,desk,80.0,20.0,vase3,desk14,80.0,0.0,vase-006af-1.jpg,26419960.thl.jpg,/static/Category_learning/Stimuli/Experimental_stims/vase/vase-006af-1.jpg,/static/Category_learning/Stimuli/Experimental_stims/desk/26419960.thl.jpg,0.0,desk,vase,20.0,80.0,desk14,vase3,0.0,80.0,0.0,99.206,0.706,,,,,,
115,,confirmation,,html-keyboard-response,115,229378,0.0-1.0-22.0-0.0-1.0-0.0,0,0,27712,,,,,,20.0,,,,,,,,,,,,,,,,,,,,,,,,,,,,,,,,100.0,0.794,,,,,,
116,,isi,,html-keyboard-response,116,230386,0.0-1.0-22.0-0.0-2.0,0,0,27712,,,,,,,,,,,,,,,,,,,,,,,,,,,,,,,,,,,,,,101.0,1.0,,,,,,
117,,feedback,,html-keyboard-response,117,231394,0.0-1.0-22.0-0.0-3.0-0.0,0,0,27712,,,,,,20.0,,,,,,,,,,,,,,,,,,,,,,,,,,,,,,,,102.0,1.0,,,,,,
118,,iti,,html-keyboard-response,118,232402,0.0-1.0-22.0-0.0-5.0,0,0,27712,,,,,,,,,,,,,,,,,,,,,,,,,,,,,,,,,,,,,,103.0,1.0,,,,,,
119,,choice,,html-keyboard-response,119,233241,0.0-1.0-23.0-0.0-0.0,0,0,27712,,835.0,,,68.0,21.0,21.0,1500.0,2000.0,0.0,1.0,0.0,40-60,,1.0,power strip,frame,60.0,40.0,power strip5,frame1,40.0,20.0,93e4a283-bcd6-4ad1-8add-339658cda0fc_400.jpg,AFRAME127.jpg,/static/Category_learning/Stimuli/Experimental_stims/power strip/93e4a283-bcd6-4ad1-8add-339658cda0fc_400.jpg,/static/Category_learning/Stimuli/Experimental_stims/frame/AFRAME127.jpg,1.0,power strip,frame,60.0,40.0,power strip5,frame1,40.0,20.0,0.0,103.835,0.835,,,,,,
120,,confirmation,,html-keyboard-response,120,233911,0.0-1.0-23.0-0.0-1.0-0.0,0,0,27712,,,,,,21.0,,,,,,,,,,,,,,,,,,,,,,,,,,,,,,,,104.5,0.665,,,,,,
121,,isi,,html-keyboard-response,121,235415,0.0-1.0-23.0-0.0-2.0,0,0,27712,,,,,,,,,,,,,,,,,,,,,,,,,,,,,,,,,,,,,,106.0,1.5,,,,,,
122,,feedback,,html-keyboard-response,122,236423,0.0-1.0-23.0-0.0-3.0-0.0,0,0,27712,,,,,,21.0,,,,,,,,,,,,,,,,,,,,,,,,,,,,,,,,107.0,1.0,,,,,,
123,,iti,,html-keyboard-response,123,238428,0.0-1.0-23.0-0.0-5.0,0,0,27712,,,,,,,,,,,,,,,,,,,,,,,,,,,,,,,,,,,,,,109.0,2.0,,,,,,
124,,choice,,html-keyboard-response,124,239541,0.0-1.0-24.0-0.0-0.0,0,0,27712,,1107.0,,,68.0,22.0,22.0,2000.0,1000.0,0.0,1.0,1.0,40-60,0.0,,necklace,frame,60.0,40.0,necklace3,frame8,60.0,60.0,26388201.thl.jpg,AFRAME154.jpg,/static/Category_learning/Stimuli/Experimental_stims/necklace/26388201.thl.jpg,/static/Category_learning/Stimuli/Experimental_stims/frame/AFRAME154.jpg,1.0,necklace,frame,60.0,40.0,necklace3,frame8,60.0,60.0,0.0,110.107,1.107,,,,,,
125,,confirmation,,html-keyboard-response,125,239938,0.0-1.0-24.0-0.0-1.0-0.0,0,0,27712,,,,,,22.0,,,,,,,,,,,,,,,,,,,,,,,,,,,,,,,,110.5,0.393,,,,,,
126,,isi,,html-keyboard-response,126,241946,0.0-1.0-24.0-0.0-2.0,0,0,27712,,,,,,,,,,,,,,,,,,,,,,,,,,,,,,,,,,,,,,112.5,2.0,,,,,,
127,,feedback,,html-keyboard-response,127,242956,0.0-1.0-24.0-0.0-3.0-0.0,0,0,27712,,,,,,22.0,,,,,,,,,,,,,,,,,,,,,,,,,,,,,,,,113.5,1.0,,,,,,
128,,iti,,html-keyboard-response,128,243964,0.0-1.0-24.0-0.0-5.0,0,0,27712,,,,,,,,,,,,,,,,,,,,,,,,,,,,,,,,,,,,,,114.5,1.0,,,,,,
129,,choice,,html-keyboard-response,129,245114,0.0-1.0-25.0-0.0-0.0,0,0,27712,,1146.0,,,68.0,23.0,23.0,1000.0,1000.0,0.0,1.0,0.0,40-60,,0.0,lipstick,small table,40.0,60.0,lipstick7,small table5,60.0,80.0,P101401_hero.jpg,Atable145.jpg,/static/Category_learning/Stimuli/Experimental_stims/lipstick/P101401_hero.jpg,/static/Category_learning/Stimuli/Experimental_stims/small table/Atable145.jpg,1.0,lipstick,small table,40.0,60.0,lipstick7,small table5,60.0,80.0,0.0,115.646,1.146,,,,,,
130,,confirmation,,html-keyboard-response,130,245473,0.0-1.0-25.0-0.0-1.0-0.0,0,0,27712,,,,,,23.0,,,,,,,,,,,,,,,,,,,,,,,,,,,,,,,,116.0,0.354,,,,,,
131,,isi,,html-keyboard-response,131,246483,0.0-1.0-25.0-0.0-2.0,0,0,27712,,,,,,,,,,,,,,,,,,,,,,,,,,,,,,,,,,,,,,117.0,1.0,,,,,,
132,,feedback,,html-keyboard-response,132,247488,0.0-1.0-25.0-0.0-3.0-0.0,0,0,27712,,,,,,23.0,,,,,,,,,,,,,,,,,,,,,,,,,,,,,,,,118.0,1.0,,,,,,
133,,iti,,html-keyboard-response,133,248497,0.0-1.0-25.0-0.0-5.0,0,0,27712,,,,,,,,,,,,,,,,,,,,,,,,,,,,,,,,,,,,,,119.0,1.0,,,,,,
134,,choice,,html-keyboard-response,134,249656,0.0-1.0-26.0-0.0-0.0,0,0,27712,,1155.0,,,68.0,24.0,24.0,3000.0,1500.0,0.0,1.0,0.0,20-80,,1.0,yarn,bowl,80.0,20.0,yarn4,bowl6,60.0,20.0,amethyst dreaming boho hy sml.jpg,Abowl59.jpg,/static/Category_learning/Stimuli/Experimental_stims/yarn/amethyst dreaming boho hy sml.jpg,/static/Category_learning/Stimuli/Experimental_stims/bowl/Abowl59.jpg,1.0,yarn,bowl,80.0,20.0,yarn4,bowl6,60.0,20.0,0.0,120.155,1.155,,,,,,
135,,confirmation,,html-keyboard-response,135,250006,0.0-1.0-26.0-0.0-1.0-0.0,0,0,27712,,,,,,24.0,,,,,,,,,,,,,,,,,,,,,,,,,,,,,,,,120.5,0.345,,,,,,
136,,isi,,html-keyboard-response,136,253014,0.0-1.0-26.0-0.0-2.0,0,0,27712,,,,,,,,,,,,,,,,,,,,,,,,,,,,,,,,,,,,,,123.5,3.0,,,,,,
137,,feedback,,html-keyboard-response,137,254022,0.0-1.0-26.0-0.0-3.0-0.0,0,0,27712,,,,,,24.0,,,,,,,,,,,,,,,,,,,,,,,,,,,,,,,,124.5,1.0,,,,,,
138,,iti,,html-keyboard-response,138,255531,0.0-1.0-26.0-0.0-5.0,0,0,27712,,,,,,,,,,,,,,,,,,,,,,,,,,,,,,,,,,,,,,126.0,1.5,,,,,,
139,,choice,,html-keyboard-response,139,256269,0.0-1.0-27.0-0.0-0.0,0,0,27712,,732.0,,,75.0,25.0,25.0,1000.0,2000.0,0.0,1.0,0.0,80-80,,,watch,trumpet,80.0,80.0,watch10,trumpet9,100.0,80.0,HEU0102124_zoom.jpg,trumpet3.jpg,/static/Category_learning/Stimuli/Experimental_stims/watch/HEU0102124_zoom.jpg,/static/Category_learning/Stimuli/Experimental_stims/trumpet/trumpet3.jpg,0.0,trumpet,watch,80.0,80.0,trumpet9,watch10,80.0,100.0,0.0,126.732,0.732,,,,,,
140,,confirmation,,html-keyboard-response,140,257042,0.0-1.0-27.0-0.0-1.0-0.0,0,0,27712,,,,,,25.0,,,,,,,,,,,,,,,,,,,,,,,,,,,,,,,,127.5,0.768,,,,,,
141,,isi,,html-keyboard-response,141,258048,0.0-1.0-27.0-0.0-2.0,0,0,27712,,,,,,,,,,,,,,,,,,,,,,,,,,,,,,,,,,,,,,128.5,1.0,,,,,,
142,,feedback,,html-keyboard-response,142,259054,0.0-1.0-27.0-0.0-3.0-0.0,0,0,27712,,,,,,25.0,,,,,,,,,,,,,,,,,,,,,,,,,,,,,,,,129.5,1.0,,,,,,
143,,iti,,html-keyboard-response,143,261061,0.0-1.0-27.0-0.0-5.0,0,0,27712,,,,,,,,,,,,,,,,,,,,,,,,,,,,,,,,,,,,,,131.5,2.0,,,,,,
144,,choice,,html-keyboard-response,144,261872,0.0-1.0-28.0-0.0-0.0,0,0,27712,,807.0,,,68.0,26.0,26.0,2000.0,1000.0,0.0,1.0,1.0,20-40,0.0,,desk,lipstick,20.0,40.0,desk14,lipstick7,0.0,60.0,26419960.thl.jpg,P101401_hero.jpg,/static/Category_learning/Stimuli/Experimental_stims/desk/26419960.thl.jpg,/static/Category_learning/Stimuli/Experimental_stims/lipstick/P101401_hero.jpg,1.0,desk,lipstick,20.0,40.0,desk14,lipstick7,0.0,60.0,0.0,132.307,0.807,,,,,,
145,,confirmation,,html-keyboard-response,145,262571,0.0-1.0-28.0-0.0-1.0-0.0,0,0,27712,,,,,,26.0,,,,,,,,,,,,,,,,,,,,,,,,,,,,,,,,133.0,0.693,,,,,,
146,,isi,,html-keyboard-response,146,264576,0.0-1.0-28.0-0.0-2.0,0,0,27712,,,,,,,,,,,,,,,,,,,,,,,,,,,,,,,,,,,,,,135.0,2.0,,,,,,
147,,feedback,,html-keyboard-response,147,265584,0.0-1.0-28.0-0.0-3.0-0.0,0,0,27712,,,,,,26.0,,,,,,,,,,,,,,,,,,,,,,,,,,,,,,,,136.0,1.0,,,,,,
148,,iti,,html-keyboard-response,148,266592,0.0-1.0-28.0-0.0-5.0,0,0,27712,,,,,,,,,,,,,,,,,,,,,,,,,,,,,,,,,,,,,,137.0,1.0,,,,,,
149,,choice,,html-keyboard-response,149,267755,0.0-1.0-29.0-0.0-0.0,0,0,27712,,1158.0,,,68.0,27.0,27.0,3000.0,1500.0,0.0,1.0,0.0,80-80,,,stool,yarn,80.0,80.0,stool12,yarn7,80.0,100.0,henrybar_stool1.jpg,herb garden hy smaller.jpg,/static/Category_learning/Stimuli/Experimental_stims/stool/henrybar_stool1.jpg,/static/Category_learning/Stimuli/Experimental_stims/yarn/herb garden hy smaller.jpg,1.0,stool,yarn,80.0,80.0,stool12,yarn7,80.0,100.0,0.0,138.158,1.158,,,,,,
150,,confirmation,,html-keyboard-response,150,268102,0.0-1.0-29.0-0.0-1.0-0.0,0,0,27712,,,,,,27.0,,,,,,,,,,,,,,,,,,,,,,,,,,,,,,,,138.5,0.342,,,,,,
151,,isi,,html-keyboard-response,151,271109,0.0-1.0-29.0-0.0-2.0,0,0,27712,,,,,,,,,,,,,,,,,,,,,,,,,,,,,,,,,,,,,,141.5,3.0,,,,,,
152,,feedback,,html-keyboard-response,152,272117,0.0-1.0-29.0-0.0-3.0-0.0,0,0,27712,,,,,,27.0,,,,,,,,,,,,,,,,,,,,,,,,,,,,,,,,142.5,1.0,,,,,,
153,,iti,,html-keyboard-response,153,273626,0.0-1.0-29.0-0.0-5.0,0,0,27712,,,,,,,,,,,,,,,,,,,,,,,,,,,,,,,,,,,,,,144.0,1.5,,,,,,
154,,choice,,html-keyboard-response,154,274626,0.0-1.0-30.0-0.0-0.0,0,0,27712,,995.0,,,75.0,28.0,28.0,2000.0,1500.0,0.0,1.0,0.0,40-60,,1.0,patio lounge chair,makeup compact,60.0,40.0,patio lounge chair6,makeup compact5,60.0,60.0,Lounge_Chair_with_Pillow.jpg,P109965_hero.jpg,/static/Category_learning/Stimuli/Experimental_stims/patio lounge chair/Lounge_Chair_with_Pillow.jpg,/static/Category_learning/Stimuli/Experimental_stims/makeup compact/P109965_hero.jpg,0.0,makeup compact,patio lounge chair,40.0,60.0,makeup compact5,patio lounge chair6,60.0,60.0,0.0,144.995,0.995,,,,,,
155,,confirmation,,html-keyboard-response,155,275136,0.0-1.0-30.0-0.0-1.0-0.0,0,0,27712,,,,,,28.0,,,,,,,,,,,,,,,,,,,,,,,,,,,,,,,,145.5,0.505,,,,,,
156,,isi,,html-keyboard-response,156,277141,0.0-1.0-30.0-0.0-2.0,0,0,27712,,,,,,,,,,,,,,,,,,,,,,,,,,,,,,,,,,,,,,147.5,2.0,,,,,,
157,,feedback,,html-keyboard-response,157,278149,0.0-1.0-30.0-0.0-3.0-0.0,0,0,27712,,,,,,28.0,,,,,,,,,,,,,,,,,,,,,,,,,,,,,,,,148.5,1.0,,,,,,
158,,iti,,html-keyboard-response,158,279658,0.0-1.0-30.0-0.0-5.0,0,0,27712,,,,,,,,,,,,,,,,,,,,,,,,,,,,,,,,,,,,,,150.0,1.5,,,,,,
159,,choice,,html-keyboard-response,159,280470,0.0-1.0-31.0-0.0-0.0,0,0,27712,,807.0,,,68.0,29.0,29.0,1000.0,3500.0,0.0,1.0,0.0,40-80,,0.0,license plate,tape,40.0,80.0,license plate12,tape7,20.0,80.0,TurtleLicensePlate.jpg,tape dispenser.jpg,/static/Category_learning/Stimuli/Experimental_stims/license plate/TurtleLicensePlate.jpg,/static/Category_learning/Stimuli/Experimental_stims/tape/tape dispenser.jpg,1.0,license plate,tape,40.0,80.0,license plate12,tape7,20.0,80.0,0.0,150.807,0.807,,,,,,
160,,confirmation,,html-keyboard-response,160,281169,0.0-1.0-31.0-0.0-1.0-0.0,0,0,27712,,,,,,29.0,,,,,,,,,,,,,,,,,,,,,,,,,,,,,,,,151.5,0.693,,,,,,
161,,isi,,html-keyboard-response,161,282174,0.0-1.0-31.0-0.0-2.0,0,0,27712,,,,,,,,,,,,,,,,,,,,,,,,,,,,,,,,,,,,,,152.5,1.0,,,,,,
162,,feedback,,html-keyboard-response,162,283178,0.0-1.0-31.0-0.0-3.0-0.0,0,0,27712,,,,,,29.0,,,,,,,,,,,,,,,,,,,,,,,,,,,,,,,,153.5,1.0,,,,,,
163,,iti,,html-keyboard-response,163,286687,0.0-1.0-31.0-0.0-5.0,0,0,27712,,,,,,,,,,,,,,,,,,,,,,,,,,,,,,,,,,,,,,157.0,3.5,,,,,,
164,,choice,,html-keyboard-response,164,287502,0.0-1.0-32.0-0.0-0.0,0,0,27712,,811.0,,,75.0,30.0,30.0,1000.0,1000.0,0.0,1.0,0.0,20-80,,0.0,desk,yarn,20.0,80.0,desk10,yarn3,20.0,100.0,MEX028.jpg,Aballofblueya.jpg,/static/Category_learning/Stimuli/Experimental_stims/desk/MEX028.jpg,/static/Category_learning/Stimuli/Experimental_stims/yarn/Aballofblueya.jpg,0.0,yarn,desk,80.0,20.0,yarn3,desk10,100.0,20.0,0.0,157.811,0.811,,,,,,
165,,confirmation,,html-keyboard-response,165,288196,0.0-1.0-32.0-0.0-1.0-0.0,0,0,27712,,,,,,30.0,,,,,,,,,,,,,,,,,,,,,,,,,,,,,,,,158.5,0.689,,,,,,
166,,isi,,html-keyboard-response,166,289204,0.0-1.0-32.0-0.0-2.0,0,0,27712,,,,,,,,,,,,,,,,,,,,,,,,,,,,,,,,,,,,,,159.5,1.0,,,,,,
167,,feedback,,html-keyboard-response,167,290212,0.0-1.0-32.0-0.0-3.0-0.0,0,0,27712,,,,,,30.0,,,,,,,,,,,,,,,,,,,,,,,,,,,,,,,,160.5,1.0,,,,,,
168,,iti,,html-keyboard-response,168,291221,0.0-1.0-32.0-0.0-5.0,0,0,27712,,,,,,,,,,,,,,,,,,,,,,,,,,,,,,,,,,,,,,161.5,1.0,,,,,,
169,,choice,,html-keyboard-response,169,292049,0.0-1.0-33.0-0.0-0.0,0,0,27712,,823.0,,,68.0,31.0,31.0,1500.0,3000.0,0.0,1.0,0.0,20-60,,0.0,fan,poker card,20.0,60.0,fan14,poker card15,40.0,40.0,124771_sk_lg.jpg,9816946.thl.jpg,/static/Category_learning/Stimuli/Experimental_stims/fan/124771_sk_lg.jpg,/static/Category_learning/Stimuli/Experimental_stims/poker card/9816946.thl.jpg,1.0,fan,poker card,20.0,60.0,fan14,poker card15,40.0,40.0,0.0,162.323,0.823,,,,,,
170,,confirmation,,html-keyboard-response,170,292730,0.0-1.0-33.0-0.0-1.0-0.0,0,0,27712,,,,,,31.0,,,,,,,,,,,,,,,,,,,,,,,,,,,,,,,,163.0,0.677,,,,,,
171,,isi,,html-keyboard-response,171,294236,0.0-1.0-33.0-0.0-2.0,0,0,27712,,,,,,,,,,,,,,,,,,,,,,,,,,,,,,,,,,,,,,164.5,1.5,,,,,,
172,,feedback,,html-keyboard-response,172,295241,0.0-1.0-33.0-0.0-3.0-0.0,0,0,27712,,,,,,31.0,,,,,,,,,,,,,,,,,,,,,,,,,,,,,,,,165.5,1.0,,,,,,
173,,iti,,html-keyboard-response,173,298249,0.0-1.0-33.0-0.0-5.0,0,0,27712,,,,,,,,,,,,,,,,,,,,,,,,,,,,,,,,,,,,,,168.5,3.0,,,,,,
174,,choice,,html-keyboard-response,174,299045,0.0-1.0-34.0-0.0-0.0,0,0,27712,,792.0,,,75.0,32.0,32.0,2000.0,2000.0,0.0,1.0,0.0,60-80,,0.0,nail polish,tape,60.0,80.0,nail polish11,tape10,80.0,60.0,Revlon_Super_Top_Speed_Chrome_Nail_Polish-resized200.jpg,26377601.thl.jpg,/static/Category_learning/Stimuli/Experimental_stims/nail polish/Revlon_Super_Top_Speed_Chrome_Nail_Polish-resized200.jpg,/static/Category_learning/Stimuli/Experimental_stims/tape/26377601.thl.jpg,0.0,tape,nail polish,80.0,60.0,tape10,nail polish11,60.0,80.0,0.0,169.292,0.792,,,,,,
175,,confirmation,,html-keyboard-response,175,299758,0.0-1.0-34.0-0.0-1.0-0.0,0,0,27712,,,,,,32.0,,,,,,,,,,,,,,,,,,,,,,,,,,,,,,,,170.0,0.708,,,,,,
176,,isi,,html-keyboard-response,176,301762,0.0-1.0-34.0-0.0-2.0,0,0,27712,,,,,,,,,,,,,,,,,,,,,,,,,,,,,,,,,,,,,,172.0,2.0,,,,,,
177,,feedback,,html-keyboard-response,177,302771,0.0-1.0-34.0-0.0-3.0-0.0,0,0,27712,,,,,,32.0,,,,,,,,,,,,,,,,,,,,,,,,,,,,,,,,173.0,1.0,,,,,,
178,,iti,,html-keyboard-response,178,304779,0.0-1.0-34.0-0.0-5.0,0,0,27712,,,,,,,,,,,,,,,,,,,,,,,,,,,,,,,,,,,,,,175.0,2.0,,,,,,
179,,choice,,html-keyboard-response,179,305541,0.0-1.0-35.0-0.0-0.0,0,0,27712,,757.0,,,68.0,33.0,33.0,1000.0,1000.0,0.0,1.0,0.0,20-60,,0.0,baby carriage,power strip,20.0,60.0,baby carriage5,power strip11,20.0,40.0,Baby_Stroller.jpg,41Bw7Tl1G7L._AA262_.jpg,/static/Category_learning/Stimuli/Experimental_stims/baby carriage/Baby_Stroller.jpg,/static/Category_learning/Stimuli/Experimental_stims/power strip/41Bw7Tl1G7L._AA262_.jpg,1.0,baby carriage,power strip,20.0,60.0,baby carriage5,power strip11,20.0,40.0,0.0,175.757,0.757,,,,,,
180,,confirmation,,html-keyboard-response,180,306289,0.0-1.0-35.0-0.0-1.0-0.0,0,0,27712,,,,,,33.0,,,,,,,,,,,,,,,,,,,,,,,,,,,,,,,,176.5,0.743,,,,,,
181,,isi,,html-keyboard-response,181,307293,0.0-1.0-35.0-0.0-2.0,0,0,27712,,,,,,,,,,,,,,,,,,,,,,,,,,,,,,,,,,,,,,177.5,1.0,,,,,,
182,,feedback,,html-keyboard-response,182,308301,0.0-1.0-35.0-0.0-3.0-0.0,0,0,27712,,,,,,33.0,,,,,,,,,,,,,,,,,,,,,,,,,,,,,,,,178.5,1.0,,,,,,
183,,iti,,html-keyboard-response,183,309309,0.0-1.0-35.0-0.0-5.0,0,0,27712,,,,,,,,,,,,,,,,,,,,,,,,,,,,,,,,,,,,,,179.5,1.0,,,,,,
184,,choice,,html-keyboard-response,184,310118,0.0-1.0-36.0-0.0-0.0,0,0,27712,,804.0,,,68.0,34.0,34.0,3500.0,1500.0,0.0,1.0,0.0,20-20,,,dresser,fan,20.0,20.0,dresser6,fan4,40.0,0.0,ADRESSE96.jpg,AFAN39.jpg,/static/Category_learning/Stimuli/Experimental_stims/dresser/ADRESSE96.jpg,/static/Category_learning/Stimuli/Experimental_stims/fan/AFAN39.jpg,1.0,dresser,fan,20.0,20.0,dresser6,fan4,40.0,0.0,0.0,180.304,0.804,,,,,,
185,,confirmation,,html-keyboard-response,185,310819,0.0-1.0-36.0-0.0-1.0-0.0,0,0,27712,,,,,,34.0,,,,,,,,,,,,,,,,,,,,,,,,,,,,,,,,181.0,0.696,,,,,,
186,,isi,,html-keyboard-response,186,314327,0.0-1.0-36.0-0.0-2.0,0,0,27712,,,,,,,,,,,,,,,,,,,,,,,,,,,,,,,,,,,,,,184.5,3.5,,,,,,
187,,feedback,,html-keyboard-response,187,315336,0.0-1.0-36.0-0.0-3.0-0.0,0,0,27712,,,,,,34.0,,,,,,,,,,,,,,,,,,,,,,,,,,,,,,,,185.5,1.0,,,,,,
188,,iti,,html-keyboard-response,188,316844,0.0-1.0-36.0-0.0-5.0,0,0,27712,,,,,,,,,,,,,,,,,,,,,,,,,,,,,,,,,,,,,,187.0,1.5,,,,,,
189,,choice,,html-keyboard-response,189,317358,0.0-1.0-37.0-0.0-0.0,0,0,27712,,509.0,,,75.0,35.0,35.0,1500.0,1500.0,0.0,1.0,0.0,20-80,,1.0,vase,bowl,80.0,20.0,vase9,bowl2,80.0,40.0,Avasewithang2.jpg,AMIXBOWL2.jpg,/static/Category_learning/Stimuli/Experimental_stims/vase/Avasewithang2.jpg,/static/Category_learning/Stimuli/Experimental_stims/bowl/AMIXBOWL2.jpg,0.0,bowl,vase,20.0,80.0,bowl2,vase9,40.0,80.0,0.0,187.509,0.509,,,,,,
190,,confirmation,,html-keyboard-response,190,318354,0.0-1.0-37.0-0.0-1.0-0.0,0,0,27712,,,,,,35.0,,,,,,,,,,,,,,,,,,,,,,,,,,,,,,,,188.5,0.991,,,,,,
191,,isi,,html-keyboard-response,191,319860,0.0-1.0-37.0-0.0-2.0,0,0,27712,,,,,,,,,,,,,,,,,,,,,,,,,,,,,,,,,,,,,,190.0,1.5,,,,,,
192,,feedback,,html-keyboard-response,192,320869,0.0-1.0-37.0-0.0-3.0-0.0,0,0,27712,,,,,,35.0,,,,,,,,,,,,,,,,,,,,,,,,,,,,,,,,191.0,1.0,,,,,,
193,,iti,,html-keyboard-response,193,322376,0.0-1.0-37.0-0.0-5.0,0,0,27712,,,,,,,,,,,,,,,,,,,,,,,,,,,,,,,,,,,,,,192.5,1.5,,,,,,
194,,choice,,html-keyboard-response,194,323068,0.0-1.0-38.0-0.0-0.0,0,0,27712,,688.0,,,68.0,36.0,36.0,2000.0,1000.0,0.0,1.0,0.0,40-40,,,hammer,lipstick,40.0,40.0,hammer12,lipstick14,20.0,60.0,24oz hammer.jpg,P109907_hero.jpg,/static/Category_learning/Stimuli/Experimental_stims/hammer/24oz hammer.jpg,/static/Category_learning/Stimuli/Experimental_stims/lipstick/P109907_hero.jpg,1.0,hammer,lipstick,40.0,40.0,hammer12,lipstick14,20.0,60.0,0.0,193.188,0.688,,,,,,
195,,confirmation,,html-keyboard-response,195,323885,0.0-1.0-38.0-0.0-1.0-0.0,0,0,27712,,,,,,36.0,,,,,,,,,,,,,,,,,,,,,,,,,,,,,,,,194.0,0.812,,,,,,
196,,isi,,html-keyboard-response,196,325890,0.0-1.0-38.0-0.0-2.0,0,0,27712,,,,,,,,,,,,,,,,,,,,,,,,,,,,,,,,,,,,,,196.0,2.0,,,,,,
197,,feedback,,html-keyboard-response,197,326898,0.0-1.0-38.0-0.0-3.0-0.0,0,0,27712,,,,,,36.0,,,,,,,,,,,,,,,,,,,,,,,,,,,,,,,,197.0,1.0,,,,,,
198,,iti,,html-keyboard-response,198,327906,0.0-1.0-38.0-0.0-5.0,0,0,27712,,,,,,,,,,,,,,,,,,,,,,,,,,,,,,,,,,,,,,198.0,1.0,,,,,,
199,,choice,,html-keyboard-response,199,329118,0.0-1.0-39.0-0.0-0.0,0,0,27712,,1207.0,,,68.0,37.0,37.0,3000.0,2000.0,0.0,1.0,1.0,80-80,1.0,,yarn,yarn,80.0,80.0,yarn3,yarn4,100.0,60.0,Aballofblueya.jpg,amethyst dreaming boho hy sml.jpg,/static/Category_learning/Stimuli/Experimental_stims/yarn/Aballofblueya.jpg,/static/Category_learning/Stimuli/Experimental_stims/yarn/amethyst dreaming boho hy sml.jpg,1.0,yarn,yarn,80.0,80.0,yarn3,yarn4,100.0,60.0,0.0,199.207,1.207,,,,,,
200,,confirmation,,html-keyboard-response,200,329416,0.0-1.0-39.0-0.0-1.0-0.0,0,0,27712,,,,,,37.0,,,,,,,,,,,,,,,,,,,,,,,,,,,,,,,,199.5,0.293,,,,,,
201,,isi,,html-keyboard-response,201,332423,0.0-1.0-39.0-0.0-2.0,0,0,27712,,,,,,,,,,,,,,,,,,,,,,,,,,,,,,,,,,,,,,202.5,3.0,,,,,,
202,,feedback,,html-keyboard-response,202,333431,0.0-1.0-39.0-0.0-3.0-0.0,0,0,27712,,,,,,37.0,,,,,,,,,,,,,,,,,,,,,,,,,,,,,,,,203.5,1.0,,,,,,
203,,iti,,html-keyboard-response,203,335436,0.0-1.0-39.0-0.0-5.0,0,0,27712,,,,,,,,,,,,,,,,,,,,,,,,,,,,,,,,,,,,,,205.5,2.0,,,,,,
204,,choice,,html-keyboard-response,204,336632,0.0-1.0-40.0-0.0-0.0,0,0,27712,,1191.0,,,68.0,38.0,38.0,1500.0,3000.0,0.0,1.0,0.0,20-60,,1.0,poker card,door knob,60.0,20.0,poker card13,door knob14,80.0,20.0,9817197.thl.jpg,500_CLANYKAB.jpg,/static/Category_learning/Stimuli/Experimental_stims/poker card/9817197.thl.jpg,/static/Category_learning/Stimuli/Experimental_stims/door knob/500_CLANYKAB.jpg,1.0,poker card,door knob,60.0,20.0,poker card13,door knob14,80.0,20.0,0.0,206.691,1.191,,,,,,
205,,confirmation,,html-keyboard-response,205,336946,0.0-1.0-40.0-0.0-1.0-0.0,0,0,27712,,,,,,38.0,,,,,,,,,,,,,,,,,,,,,,,,,,,,,,,,207.0,0.309,,,,,,
206,,isi,,html-keyboard-response,206,338455,0.0-1.0-40.0-0.0-2.0,0,0,27712,,,,,,,,,,,,,,,,,,,,,,,,,,,,,,,,,,,,,,208.5,1.5,,,,,,
207,,feedback,,html-keyboard-response,207,339459,0.0-1.0-40.0-0.0-3.0-0.0,0,0,27712,,,,,,38.0,,,,,,,,,,,,,,,,,,,,,,,,,,,,,,,,209.5,1.0,,,,,,
208,,iti,,html-keyboard-response,208,342465,0.0-1.0-40.0-0.0-5.0,0,0,27712,,,,,,,,,,,,,,,,,,,,,,,,,,,,,,,,,,,,,,212.5,3.0,,,,,,
209,,choice,,html-keyboard-response,209,343295,0.0-1.0-41.0-0.0-0.0,0,0,27712,,824.0,,,68.0,39.0,39.0,3500.0,1000.0,0.0,1.0,1.0,80-80,1.0,,stool,stool,80.0,80.0,stool12,stool7,80.0,80.0,henrybar_stool1.jpg,ASTOOL25.jpg,/static/Category_learning/Stimuli/Experimental_stims/stool/henrybar_stool1.jpg,/static/Category_learning/Stimuli/Experimental_stims/stool/ASTOOL25.jpg,1.0,stool,stool,80.0,80.0,stool12,stool7,80.0,80.0,0.0,213.324,0.824,,,,,,
210,,confirmation,,html-keyboard-response,210,343975,0.0-1.0-41.0-0.0-1.0-0.0,0,0,27712,,,,,,39.0,,,,,,,,,,,,,,,,,,,,,,,,,,,,,,,,214.0,0.676,,,,,,
211,,isi,,html-keyboard-response,211,347484,0.0-1.0-41.0-0.0-2.0,0,0,27712,,,,,,,,,,,,,,,,,,,,,,,,,,,,,,,,,,,,,,217.5,3.5,,,,,,
212,,feedback,,html-keyboard-response,212,348494,0.0-1.0-41.0-0.0-3.0-0.0,0,0,27712,,,,,,39.0,,,,,,,,,,,,,,,,,,,,,,,,,,,,,,,,218.5,1.0,,,,,,
213,,iti,,html-keyboard-response,213,349502,0.0-1.0-41.0-0.0-5.0,0,0,27712,,,,,,,,,,,,,,,,,,,,,,,,,,,,,,,,,,,,,,219.5,1.0,,,,,,
214,,choice,,html-keyboard-response,214,350742,0.0-1.0-42.0-0.0-0.0,0,0,27712,,1235.0,,,75.0,40.0,40.0,2000.0,3000.0,0.0,1.0,1.0,20-40,0.0,,license plate,fan,40.0,20.0,license plate12,fan14,20.0,40.0,TurtleLicensePlate.jpg,124771_sk_lg.jpg,/static/Category_learning/Stimuli/Experimental_stims/license plate/TurtleLicensePlate.jpg,/static/Category_learning/Stimuli/Experimental_stims/fan/124771_sk_lg.jpg,0.0,fan,license plate,20.0,40.0,fan14,license plate12,40.0,20.0,0.0,220.735,1.235,,,,,,
215,,confirmation,,html-keyboard-response,215,351013,0.0-1.0-42.0-0.0-1.0-0.0,0,0,27712,,,,,,40.0,,,,,,,,,,,,,,,,,,,,,,,,,,,,,,,,221.0,0.265,,,,,,
216,,isi,,html-keyboard-response,216,353019,0.0-1.0-42.0-0.0-2.0,0,0,27712,,,,,,,,,,,,,,,,,,,,,,,,,,,,,,,,,,,,,,223.0,2.0,,,,,,
217,,feedback,,html-keyboard-response,217,354027,0.0-1.0-42.0-0.0-3.0-0.0,0,0,27712,,,,,,40.0,,,,,,,,,,,,,,,,,,,,,,,,,,,,,,,,224.0,1.0,,,,,,
218,,iti,,html-keyboard-response,218,357035,0.0-1.0-42.0-0.0-5.0,0,0,27712,,,,,,,,,,,,,,,,,,,,,,,,,,,,,,,,,,,,,,227.0,3.0,,,,,,
219,,choice,,html-keyboard-response,219,357872,0.0-1.0-43.0-0.0-0.0,0,0,27712,,831.0,,,68.0,41.0,41.0,1000.0,1000.0,0.0,1.0,0.0,20-60,,1.0,small table,bongo,60.0,20.0,small table4,bongo9,40.0,20.0,ACOFTABLE.jpg,22946035.thl.jpg,/static/Category_learning/Stimuli/Experimental_stims/small table/ACOFTABLE.jpg,/static/Category_learning/Stimuli/Experimental_stims/bongo/22946035.thl.jpg,1.0,small table,bongo,60.0,20.0,small table4,bongo9,40.0,20.0,0.0,227.831,0.831,,,,,,
220,,confirmation,,html-keyboard-response,220,358546,0.0-1.0-43.0-0.0-1.0-0.0,0,0,27712,,,,,,41.0,,,,,,,,,,,,,,,,,,,,,,,,,,,,,,,,228.5,0.669,,,,,,
221,,isi,,html-keyboard-response,221,359552,0.0-1.0-43.0-0.0-2.0,0,0,27712,,,,,,,,,,,,,,,,,,,,,,,,,,,,,,,,,,,,,,229.5,1.0,,,,,,
222,,feedback,,html-keyboard-response,222,360560,0.0-1.0-43.0-0.0-3.0-0.0,0,0,27712,,,,,,41.0,,,,,,,,,,,,,,,,,,,,,,,,,,,,,,,,230.5,1.0,,,,,,
223,,iti,,html-keyboard-response,223,361568,0.0-1.0-43.0-0.0-5.0,0,0,27712,,,,,,,,,,,,,,,,,,,,,,,,,,,,,,,,,,,,,,231.5,1.0,,,,,,
224,,choice,,html-keyboard-response,224,362323,0.0-1.0-44.0-0.0-0.0,0,0,27712,,750.0,,,75.0,42.0,42.0,3500.0,1000.0,0.0,1.0,0.0,60-60,,,necklace,poker card,60.0,60.0,necklace2,poker card5,40.0,40.0,Anecklace7.jpg,22864800.thl.jpg,/static/Category_learning/Stimuli/Experimental_stims/necklace/Anecklace7.jpg,/static/Category_learning/Stimuli/Experimental_stims/poker card/22864800.thl.jpg,0.0,poker card,necklace,60.0,60.0,poker card5,necklace2,40.0,40.0,0.0,232.25,0.75,,,,,,
225,,confirmation,,html-keyboard-response,225,363077,0.0-1.0-44.0-0.0-1.0-0.0,0,0,27712,,,,,,42.0,,,,,,,,,,,,,,,,,,,,,,,,,,,,,,,,233.0,0.75,,,,,,
226,,isi,,html-keyboard-response,226,366585,0.0-1.0-44.0-0.0-2.0,0,0,27712,,,,,,,,,,,,,,,,,,,,,,,,,,,,,,,,,,,,,,236.5,3.5,,,,,,
227,,feedback,,html-keyboard-response,227,367595,0.0-1.0-44.0-0.0-3.0-0.0,0,0,27712,,,,,,42.0,,,,,,,,,,,,,,,,,,,,,,,,,,,,,,,,237.5,1.0,,,,,,
228,,iti,,html-keyboard-response,228,368603,0.0-1.0-44.0-0.0-5.0,0,0,27712,,,,,,,,,,,,,,,,,,,,,,,,,,,,,,,,,,,,,,238.5,1.0,,,,,,
229,,choice,,html-keyboard-response,229,369273,0.0-1.0-45.0-0.0-0.0,0,0,27712,,666.0,,,68.0,43.0,43.0,2000.0,2000.0,0.0,1.0,0.0,40-60,,0.0,lipstick,power strip,40.0,60.0,lipstick10,power strip10,60.0,60.0,21K0D7QKFAL._SS500_.jpg,6bd437c9-6165-4d36-bf75-9a1038783c6a_400.jpg,/static/Category_learning/Stimuli/Experimental_stims/lipstick/21K0D7QKFAL._SS500_.jpg,/static/Category_learning/Stimuli/Experimental_stims/power strip/6bd437c9-6165-4d36-bf75-9a1038783c6a_400.jpg,1.0,lipstick,power strip,40.0,60.0,lipstick10,power strip10,60.0,60.0,0.0,239.166,0.666,,,,,,
230,,confirmation,,html-keyboard-response,230,370112,0.0-1.0-45.0-0.0-1.0-0.0,0,0,27712,,,,,,43.0,,,,,,,,,,,,,,,,,,,,,,,,,,,,,,,,240.0,0.834,,,,,,
231,,isi,,html-keyboard-response,231,372117,0.0-1.0-45.0-0.0-2.0,0,0,27712,,,,,,,,,,,,,,,,,,,,,,,,,,,,,,,,,,,,,,242.0,2.0,,,,,,
232,,feedback,,html-keyboard-response,232,373125,0.0-1.0-45.0-0.0-3.0-0.0,0,0,27712,,,,,,43.0,,,,,,,,,,,,,,,,,,,,,,,,,,,,,,,,243.0,1.0,,,,,,
233,,iti,,html-keyboard-response,233,375130,0.0-1.0-45.0-0.0-5.0,0,0,27712,,,,,,,,,,,,,,,,,,,,,,,,,,,,,,,,,,,,,,245.0,2.0,,,,,,
234,,choice,,html-keyboard-response,234,376336,0.0-1.0-46.0-0.0-0.0,0,0,27712,,1200.0,,,68.0,44.0,44.0,1000.0,3000.0,0.0,1.0,1.0,60-60,1.0,,poker card,poker card,60.0,60.0,poker card13,poker card5,80.0,40.0,9817197.thl.jpg,22864800.thl.jpg,/static/Category_learning/Stimuli/Experimental_stims/poker card/9817197.thl.jpg,/static/Category_learning/Stimuli/Experimental_stims/poker card/22864800.thl.jpg,1.0,poker card,poker card,60.0,60.0,poker card13,poker card5,80.0,40.0,0.0,246.2,1.2,,,,,,
235,,confirmation,,html-keyboard-response,235,376641,0.0-1.0-46.0-0.0-1.0-0.0,0,0,27712,,,,,,44.0,,,,,,,,,,,,,,,,,,,,,,,,,,,,,,,,246.5,0.3,,,,,,
236,,isi,,html-keyboard-response,236,377648,0.0-1.0-46.0-0.0-2.0,0,0,27712,,,,,,,,,,,,,,,,,,,,,,,,,,,,,,,,,,,,,,247.5,1.0,,,,,,
237,,feedback,,html-keyboard-response,237,378655,0.0-1.0-46.0-0.0-3.0-0.0,0,0,27712,,,,,,44.0,,,,,,,,,,,,,,,,,,,,,,,,,,,,,,,,248.5,1.0,,,,,,
238,,iti,,html-keyboard-response,238,381663,0.0-1.0-46.0-0.0-5.0,0,0,27712,,,,,,,,,,,,,,,,,,,,,,,,,,,,,,,,,,,,,,251.5,3.0,,,,,,
239,,choice,,html-keyboard-response,239,382919,0.0-1.0-47.0-0.0-0.0,0,0,27712,,1251.0,,,75.0,45.0,45.0,1500.0,1000.0,0.0,1.0,1.0,20-80,0.0,,bowl,trumpet,20.0,80.0,bowl2,trumpet9,40.0,80.0,AMIXBOWL2.jpg,trumpet3.jpg,/static/Category_learning/Stimuli/Experimental_stims/bowl/AMIXBOWL2.jpg,/static/Category_learning/Stimuli/Experimental_stims/trumpet/trumpet3.jpg,0.0,trumpet,bowl,80.0,20.0,trumpet9,bowl2,80.0,40.0,0.0,252.751,1.251,,,,,,
240,,confirmation,,html-keyboard-response,240,383173,0.0-1.0-47.0-0.0-1.0-0.0,0,0,27712,,,,,,45.0,,,,,,,,,,,,,,,,,,,,,,,,,,,,,,,,253.0,0.249,,,,,,
241,,isi,,html-keyboard-response,241,384679,0.0-1.0-47.0-0.0-2.0,0,0,27712,,,,,,,,,,,,,,,,,,,,,,,,,,,,,,,,,,,,,,254.5,1.5,,,,,,
242,,feedback,,html-keyboard-response,242,385684,0.0-1.0-47.0-0.0-3.0-0.0,0,0,27712,,,,,,45.0,,,,,,,,,,,,,,,,,,,,,,,,,,,,,,,,255.5,1.0,,,,,,
243,,iti,,html-keyboard-response,243,386692,0.0-1.0-47.0-0.0-5.0,0,0,27712,,,,,,,,,,,,,,,,,,,,,,,,,,,,,,,,,,,,,,256.5,1.0,,,,,,
244,,choice,,html-keyboard-response,244,388201,0.0-1.0-48.0-0.0-0.0,0,0,27712,,,,,,46.0,46.0,1000.0,1500.0,0.0,1.0,0.0,20-40,,0.0,bongo,hammer,20.0,40.0,bongo13,hammer4,0.0,40.0,26388718.thl.jpg,hammernew01.jpg,/static/Category_learning/Stimuli/Experimental_stims/bongo/26388718.thl.jpg,/static/Category_learning/Stimuli/Experimental_stims/hammer/hammernew01.jpg,,,,,,,,,,1.0,258.0,1.5,,,,,,
245,,isi,,html-keyboard-response,245,389210,0.0-1.0-48.0-0.0-2.0,0,0,27712,,,,,,,,,,,,,,,,,,,,,,,,,,,,,,,,,,,,,,259.0,1.0,,,,,,
246,,no_response,,html-keyboard-response,246,390216,0.0-1.0-48.0-0.0-4.0-0.0,0,0,27712,,,,,,,,,,,,,,,,,,,,,,,,,,,,,,,,,,,,,,260.0,1.0,,,,,,
247,,iti,,html-keyboard-response,247,391748,0.0-1.0-48.0-0.0-5.0,0,0,27712,,,,,,,,,,,,,,,,,,,,,,,,,,,,,,,,,,,,,,261.5,1.5,,,,,,
248,,choice,,html-keyboard-response,248,392017,0.0-1.0-48.0-0.1-0.1,0,0,27712,,264.0,,,68.0,46.0,46.0,1000.0,1500.0,0.0,1.0,0.0,20-40,,0.0,bongo,hammer,20.0,40.0,bongo13,hammer4,0.0,40.0,26388718.thl.jpg,hammernew01.jpg,/static/Category_learning/Stimuli/Experimental_stims/bongo/26388718.thl.jpg,/static/Category_learning/Stimuli/Experimental_stims/hammer/hammernew01.jpg,1.0,bongo,hammer,20.0,40.0,bongo13,hammer4,0.0,40.0,0.0,261.764,0.264,,,,,,
249,,confirmation,,html-keyboard-response,249,393258,0.0-1.0-48.0-0.1-1.1-0.1,0,0,27712,,,,,,46.0,,,,,,,,,,,,,,,,,,,,,,,,,,,,,,,,263.0,1.236,,,,,,
250,,isi,,html-keyboard-response,250,394265,0.0-1.0-48.0-0.1-2.1,0,0,27712,,,,,,,,,,,,,,,,,,,,,,,,,,,,,,,,,,,,,,264.0,1.0,,,,,,
251,,feedback,,html-keyboard-response,251,395272,0.0-1.0-48.0-0.1-3.1-0.1,0,0,27712,,,,,,46.0,,,,,,,,,,,,,,,,,,,,,,,,,,,,,,,,265.0,1.0,,,,,,
252,,iti,,html-keyboard-response,252,396777,0.0-1.0-48.0-0.1-5.1,0,0,27712,,,,,,,,,,,,,,,,,,,,,,,,,,,,,,,,,,,,,,266.5,1.5,,,,,,
253,,choice,,html-keyboard-response,253,397527,0.0-1.0-49.0-0.0-0.0,0,0,27712,,745.0,,,68.0,47.0,47.0,1000.0,2000.0,0.0,1.0,0.0,40-80,,1.0,telescope,frame,80.0,40.0,telescope15,frame3,80.0,40.0,VictorianDeskTelescope.jpg,AFRAME132.jpg,/static/Category_learning/Stimuli/Experimental_stims/telescope/VictorianDeskTelescope.jpg,/static/Category_learning/Stimuli/Experimental_stims/frame/AFRAME132.jpg,1.0,telescope,frame,80.0,40.0,telescope15,frame3,80.0,40.0,0.0,267.245,0.745,,,,,,
254,,confirmation,,html-keyboard-response,254,398286,0.0-1.0-49.0-0.0-1.0-0.0,0,0,27712,,,,,,47.0,,,,,,,,,,,,,,,,,,,,,,,,,,,,,,,,268.0,0.755,,,,,,
255,,isi,,html-keyboard-response,255,399294,0.0-1.0-49.0-0.0-2.0,0,0,27712,,,,,,,,,,,,,,,,,,,,,,,,,,,,,,,,,,,,,,269.0,1.0,,,,,,
256,,feedback,,html-keyboard-response,256,400302,0.0-1.0-49.0-0.0-3.0-0.0,0,0,27712,,,,,,47.0,,,,,,,,,,,,,,,,,,,,,,,,,,,,,,,,270.0,1.0,,,,,,
257,,iti,,html-keyboard-response,257,402309,0.0-1.0-49.0-0.0-5.0,0,0,27712,,,,,,,,,,,,,,,,,,,,,,,,,,,,,,,,,,,,,,272.0,2.0,,,,,,
258,,choice,,html-keyboard-response,258,403183,0.0-1.0-50.0-0.0-0.0,0,0,27712,,869.0,,,68.0,48.0,48.0,1000.0,2000.0,0.0,1.0,0.0,20-20,,,bench,flashlight,20.0,20.0,bench5,flashlight3,0.0,20.0,APARKBEN8.jpg,sl_tasklight_2l3w.jpg,/static/Category_learning/Stimuli/Experimental_stims/bench/APARKBEN8.jpg,/static/Category_learning/Stimuli/Experimental_stims/flashlight/sl_tasklight_2l3w.jpg,1.0,bench,flashlight,20.0,20.0,bench5,flashlight3,0.0,20.0,0.0,272.869,0.869,,,,,,
259,,confirmation,,html-keyboard-response,259,403818,0.0-1.0-50.0-0.0-1.0-0.0,0,0,27712,,,,,,48.0,,,,,,,,,,,,,,,,,,,,,,,,,,,,,,,,273.5,0.631,,,,,,
260,,isi,,html-keyboard-response,260,404825,0.0-1.0-50.0-0.0-2.0,0,0,27712,,,,,,,,,,,,,,,,,,,,,,,,,,,,,,,,,,,,,,274.5,1.0,,,,,,
261,,feedback,,html-keyboard-response,261,405832,0.0-1.0-50.0-0.0-3.0-0.0,0,0,27712,,,,,,48.0,,,,,,,,,,,,,,,,,,,,,,,,,,,,,,,,275.5,1.0,,,,,,
262,,iti,,html-keyboard-response,262,407837,0.0-1.0-50.0-0.0-5.0,0,0,27712,,,,,,,,,,,,,,,,,,,,,,,,,,,,,,,,,,,,,,277.5,2.0,,,,,,
263,,choice,,html-keyboard-response,263,408614,0.0-1.0-51.0-0.0-0.0,0,0,27712,,772.0,,,75.0,49.0,49.0,1500.0,1500.0,0.0,1.0,1.0,20-20,0.0,,bench,dresser,20.0,20.0,bench5,dresser6,0.0,40.0,APARKBEN8.jpg,ADRESSE96.jpg,/static/Category_learning/Stimuli/Experimental_stims/bench/APARKBEN8.jpg,/static/Category_learning/Stimuli/Experimental_stims/dresser/ADRESSE96.jpg,0.0,dresser,bench,20.0,20.0,dresser6,bench5,40.0,0.0,0.0,278.272,0.772,,,,,,
264,,confirmation,,html-keyboard-response,264,409347,0.0-1.0-51.0-0.0-1.0-0.0,0,0,27712,,,,,,49.0,,,,,,,,,,,,,,,,,,,,,,,,,,,,,,,,279.0,0.728,,,,,,
265,,isi,,html-keyboard-response,265,410851,0.0-1.0-51.0-0.0-2.0,0,0,27712,,,,,,,,,,,,,,,,,,,,,,,,,,,,,,,,,,,,,,280.5,1.5,,,,,,
266,,feedback,,html-keyboard-response,266,411859,0.0-1.0-51.0-0.0-3.0-0.0,0,0,27712,,,,,,49.0,,,,,,,,,,,,,,,,,,,,,,,,,,,,,,,,281.5,1.0,,,,,,
267,,iti,,html-keyboard-response,267,413368,0.0-1.0-51.0-0.0-5.0,0,0,27712,,,,,,,,,,,,,,,,,,,,,,,,,,,,,,,,,,,,,,283.0,1.5,,,,,,
268,,choice,,html-keyboard-response,268,414772,0.0-1.0-52.0-0.0-0.0,0,0,27712,,1399.0,,,75.0,50.0,50.0,1000.0,1500.0,0.0,1.0,0.0,40-80,,0.0,frame,vase,40.0,80.0,frame11,vase14,60.0,80.0,AFRAME139.jpg,Avase119.jpg,/static/Category_learning/Stimuli/Experimental_stims/frame/AFRAME139.jpg,/static/Category_learning/Stimuli/Experimental_stims/vase/Avase119.jpg,0.0,vase,frame,80.0,40.0,vase14,frame11,80.0,60.0,0.0,284.399,1.399,,,,,,
269,,confirmation,,html-keyboard-response,269,414879,0.0-1.0-52.0-0.0-1.0-0.0,0,0,27712,,,,,,50.0,,,,,,,,,,,,,,,,,,,,,,,,,,,,,,,,284.5,0.101,,,,,,
270,,isi,,html-keyboard-response,270,415885,0.0-1.0-52.0-0.0-2.0,0,0,27712,,,,,,,,,,,,,,,,,,,,,,,,,,,,,,,,,,,,,,285.5,1.0,,,,,,
271,,feedback,,html-keyboard-response,271,416894,0.0-1.0-52.0-0.0-3.0-0.0,0,0,27712,,,,,,50.0,,,,,,,,,,,,,,,,,,,,,,,,,,,,,,,,286.5,1.0,,,,,,
272,,iti,,html-keyboard-response,272,418402,0.0-1.0-52.0-0.0-5.0,0,0,27712,,,,,,,,,,,,,,,,,,,,,,,,,,,,,,,,,,,,,,288.0,1.5,,,,,,
273,,choice,,html-keyboard-response,273,418989,0.0-1.0-53.0-0.0-0.0,0,0,27712,,581.0,,,68.0,51.0,51.0,2000.0,2000.0,0.0,1.0,0.0,20-60,,1.0,seashell,door knob,60.0,20.0,seashell11,door knob1,80.0,0.0,ASEASH12.jpg,Brass_Door_Handle.jpg,/static/Category_learning/Stimuli/Experimental_stims/seashell/ASEASH12.jpg,/static/Category_learning/Stimuli/Experimental_stims/door knob/Brass_Door_Handle.jpg,1.0,seashell,door knob,60.0,20.0,seashell11,door knob1,80.0,0.0,0.0,288.581,0.581,,,,,,
274,,confirmation,,html-keyboard-response,274,419913,0.0-1.0-53.0-0.0-1.0-0.0,0,0,27712,,,,,,51.0,,,,,,,,,,,,,,,,,,,,,,,,,,,,,,,,289.5,0.919,,,,,,
275,,isi,,html-keyboard-response,275,421922,0.0-1.0-53.0-0.0-2.0,0,0,27712,,,,,,,,,,,,,,,,,,,,,,,,,,,,,,,,,,,,,,291.5,2.0,,,,,,
276,,feedback,,html-keyboard-response,276,422930,0.0-1.0-53.0-0.0-3.0-0.0,0,0,27712,,,,,,51.0,,,,,,,,,,,,,,,,,,,,,,,,,,,,,,,,292.5,1.0,,,,,,
277,,iti,,html-keyboard-response,277,424935,0.0-1.0-53.0-0.0-5.0,0,0,27712,,,,,,,,,,,,,,,,,,,,,,,,,,,,,,,,,,,,,,294.5,2.0,,,,,,
278,,choice,,html-keyboard-response,278,426067,0.0-1.0-54.0-0.0-0.0,0,0,27712,,1127.0,,,75.0,52.0,52.0,2000.0,1000.0,0.0,1.0,0.0,20-40,,0.0,flashlight,makeup compact,20.0,40.0,flashlight2,makeup compact13,0.0,40.0,AV-9 No Battery Flashlight.jpg,31YfapjS3TL._AA250_.jpg,/static/Category_learning/Stimuli/Experimental_stims/flashlight/AV-9 No Battery Flashlight.jpg,/static/Category_learning/Stimuli/Experimental_stims/makeup compact/31YfapjS3TL._AA250_.jpg,0.0,makeup compact,flashlight,40.0,20.0,makeup compact13,flashlight2,40.0,0.0,0.0,295.627,1.127,,,,,,
279,,confirmation,,html-keyboard-response,279,426445,0.0-1.0-54.0-0.0-1.0-0.0,0,0,27712,,,,,,52.0,,,,,,,,,,,,,,,,,,,,,,,,,,,,,,,,296.0,0.373,,,,,,
280,,isi,,html-keyboard-response,280,428450,0.0-1.0-54.0-0.0-2.0,0,0,27712,,,,,,,,,,,,,,,,,,,,,,,,,,,,,,,,,,,,,,298.0,2.0,,,,,,
281,,feedback,,html-keyboard-response,281,429458,0.0-1.0-54.0-0.0-3.0-0.0,0,0,27712,,,,,,52.0,,,,,,,,,,,,,,,,,,,,,,,,,,,,,,,,299.0,1.0,,,,,,
282,,iti,,html-keyboard-response,282,430466,0.0-1.0-54.0-0.0-5.0,0,0,27712,,,,,,,,,,,,,,,,,,,,,,,,,,,,,,,,,,,,,,300.0,1.0,,,,,,
283,,choice,,html-keyboard-response,283,431976,0.0-1.0-55.0-0.0-0.0,0,0,27712,,,,,,53.0,53.0,1500.0,1000.0,0.0,1.0,0.0,20-60,,1.0,sofa,bongo,60.0,20.0,sofa4,bongo4,40.0,0.0,ALOVSEA15.jpg,26390708.thl.jpg,/static/Category_learning/Stimuli/Experimental_stims/sofa/ALOVSEA15.jpg,/static/Category_learning/Stimuli/Experimental_stims/bongo/26390708.thl.jpg,,,,,,,,,,1.0,301.5,1.5,,,,,,
284,,isi,,html-keyboard-response,284,433480,0.0-1.0-55.0-0.0-2.0,0,0,27712,,,,,,,,,,,,,,,,,,,,,,,,,,,,,,,,,,,,,,303.0,1.5,,,,,,
285,,no_response,,html-keyboard-response,285,434487,0.0-1.0-55.0-0.0-4.0-0.0,0,0,27712,,,,,,,,,,,,,,,,,,,,,,,,,,,,,,,,,,,,,,304.0,1.0,,,,,,
286,,iti,,html-keyboard-response,286,435516,0.0-1.0-55.0-0.0-5.0,0,0,27712,,,,,,,,,,,,,,,,,,,,,,,,,,,,,,,,,,,,,,305.0,1.0,,,,,,
287,,choice,,html-keyboard-response,287,437018,0.0-1.0-55.0-0.1-0.1,0,0,27712,,1498.0,,,68.0,53.0,53.0,1500.0,1000.0,0.0,1.0,0.0,20-60,,1.0,sofa,bongo,60.0,20.0,sofa4,bongo4,40.0,0.0,ALOVSEA15.jpg,26390708.thl.jpg,/static/Category_learning/Stimuli/Experimental_stims/sofa/ALOVSEA15.jpg,/static/Category_learning/Stimuli/Experimental_stims/bongo/26390708.thl.jpg,1.0,sofa,bongo,60.0,20.0,sofa4,bongo4,40.0,0.0,0.0,306.498,1.498,,,,,,
288,,confirmation,,html-keyboard-response,288,437024,0.0-1.0-55.0-0.1-1.1-0.1,0,0,27712,,,,,,53.0,,,,,,,,,,,,,,,,,,,,,,,,,,,,,,,,306.5,0.002,,,,,,
289,,isi,,html-keyboard-response,289,438028,0.0-1.0-55.0-0.1-2.1,0,0,27712,,,,,,,,,,,,,,,,,,,,,,,,,,,,,,,,,,,,,,307.5,1.0,,,,,,
290,,feedback,,html-keyboard-response,290,439034,0.0-1.0-55.0-0.1-3.1-0.1,0,0,27712,,,,,,53.0,,,,,,,,,,,,,,,,,,,,,,,,,,,,,,,,308.5,1.0,,,,,,
291,,iti,,html-keyboard-response,291,440038,0.0-1.0-55.0-0.1-5.1,0,0,27712,,,,,,,,,,,,,,,,,,,,,,,,,,,,,,,,,,,,,,309.5,1.0,,,,,,
292,,choice,,html-keyboard-response,292,440770,0.0-1.0-56.0-0.0-0.0,0,0,27712,,726.0,,,75.0,54.0,54.0,1000.0,1000.0,0.0,1.0,1.0,40-40,1.0,,makeup compact,makeup compact,40.0,40.0,makeup compact13,makeup compact5,40.0,60.0,31YfapjS3TL._AA250_.jpg,P109965_hero.jpg,/static/Category_learning/Stimuli/Experimental_stims/makeup compact/31YfapjS3TL._AA250_.jpg,/static/Category_learning/Stimuli/Experimental_stims/makeup compact/P109965_hero.jpg,0.0,makeup compact,makeup compact,40.0,40.0,makeup compact5,makeup compact13,60.0,40.0,0.0,310.226,0.726,,,,,,
293,,confirmation,,html-keyboard-response,293,441550,0.0-1.0-56.0-0.0-1.0-0.0,0,0,27712,,,,,,54.0,,,,,,,,,,,,,,,,,,,,,,,,,,,,,,,,311.0,0.774,,,,,,
294,,isi,,html-keyboard-response,294,442556,0.0-1.0-56.0-0.0-2.0,0,0,27712,,,,,,,,,,,,,,,,,,,,,,,,,,,,,,,,,,,,,,312.0,1.0,,,,,,
295,,feedback,,html-keyboard-response,295,443563,0.0-1.0-56.0-0.0-3.0-0.0,0,0,27712,,,,,,54.0,,,,,,,,,,,,,,,,,,,,,,,,,,,,,,,,313.0,1.0,,,,,,
296,,iti,,html-keyboard-response,296,444572,0.0-1.0-56.0-0.0-5.0,0,0,27712,,,,,,,,,,,,,,,,,,,,,,,,,,,,,,,,,,,,,,314.0,1.0,,,,,,
297,,choice,,html-keyboard-response,297,445337,0.0-1.0-57.0-0.0-0.0,0,0,27712,,760.0,,,68.0,55.0,55.0,1000.0,1500.0,0.0,1.0,0.0,20-80,,0.0,flashlight,train,20.0,80.0,flashlight14,train11,20.0,60.0,freeplay-jonta-flashlight.jpg,train1.jpg,/static/Category_learning/Stimuli/Experimental_stims/flashlight/freeplay-jonta-flashlight.jpg,/static/Category_learning/Stimuli/Experimental_stims/train/train1.jpg,1.0,flashlight,train,20.0,80.0,flashlight14,train11,20.0,60.0,0.0,314.76,0.76,,,,,,
298,,confirmation,,html-keyboard-response,298,446086,0.0-1.0-57.0-0.0-1.0-0.0,0,0,27712,,,,,,55.0,,,,,,,,,,,,,,,,,,,,,,,,,,,,,,,,315.5,0.74,,,,,,
299,,isi,,html-keyboard-response,299,447094,0.0-1.0-57.0-0.0-2.0,0,0,27712,,,,,,,,,,,,,,,,,,,,,,,,,,,,,,,,,,,,,,316.5,1.0,,,,,,
300,,feedback,,html-keyboard-response,300,448102,0.0-1.0-57.0-0.0-3.0-0.0,0,0,27712,,,,,,55.0,,,,,,,,,,,,,,,,,,,,,,,,,,,,,,,,317.5,1.0,,,,,,
301,,iti,,html-keyboard-response,301,449611,0.0-1.0-57.0-0.0-5.0,0,0,27712,,,,,,,,,,,,,,,,,,,,,,,,,,,,,,,,,,,,,,319.0,1.5,,,,,,
302,,choice,,html-keyboard-response,302,450018,0.0-1.0-58.0-0.0-0.0,0,0,27712,,402.0,,,75.0,56.0,56.0,1000.0,1500.0,0.0,1.0,0.0,20-80,,0.0,fan,stool,20.0,80.0,fan12,stool9,0.0,100.0,116544_sk_lg.jpg,ASTOOL7.jpg,/static/Category_learning/Stimuli/Experimental_stims/fan/116544_sk_lg.jpg,/static/Category_learning/Stimuli/Experimental_stims/stool/ASTOOL7.jpg,0.0,stool,fan,80.0,20.0,stool9,fan12,100.0,0.0,0.0,319.402,0.402,,,,,,
303,,confirmation,,html-keyboard-response,303,451121,0.0-1.0-58.0-0.0-1.0-0.0,0,0,27712,,,,,,56.0,,,,,,,,,,,,,,,,,,,,,,,,,,,,,,,,320.5,1.098,,,,,,
304,,isi,,html-keyboard-response,304,452128,0.0-1.0-58.0-0.0-2.0,0,0,27712,,,,,,,,,,,,,,,,,,,,,,,,,,,,,,,,,,,,,,321.5,1.0,,,,,,
305,,feedback,,html-keyboard-response,305,453137,0.0-1.0-58.0-0.0-3.0-0.0,0,0,27712,,,,,,56.0,,,,,,,,,,,,,,,,,,,,,,,,,,,,,,,,322.5,1.0,,,,,,
306,,iti,,html-keyboard-response,306,454646,0.0-1.0-58.0-0.0-5.0,0,0,27712,,,,,,,,,,,,,,,,,,,,,,,,,,,,,,,,,,,,,,324.0,1.5,,,,,,
307,,choice,,html-keyboard-response,307,455772,0.0-1.0-59.0-0.0-0.0,0,0,27712,,1122.0,,,68.0,57.0,57.0,1500.0,1000.0,0.0,1.0,0.0,20-40,,1.0,motorcycle,bench,40.0,20.0,motorcycle12,bench4,40.0,0.0,motorcycle14.jpg,30892819.thl.jpg,/static/Category_learning/Stimuli/Experimental_stims/motorcycle/motorcycle14.jpg,/static/Category_learning/Stimuli/Experimental_stims/bench/30892819.thl.jpg,1.0,motorcycle,bench,40.0,20.0,motorcycle12,bench4,40.0,0.0,0.0,325.122,1.122,,,,,,
308,,confirmation,,html-keyboard-response,308,456155,0.0-1.0-59.0-0.0-1.0-0.0,0,0,27712,,,,,,57.0,,,,,,,,,,,,,,,,,,,,,,,,,,,,,,,,325.5,0.378,,,,,,
309,,isi,,html-keyboard-response,309,457664,0.0-1.0-59.0-0.0-2.0,0,0,27712,,,,,,,,,,,,,,,,,,,,,,,,,,,,,,,,,,,,,,327.0,1.5,,,,,,
310,,feedback,,html-keyboard-response,310,458673,0.0-1.0-59.0-0.0-3.0-0.0,0,0,27712,,,,,,57.0,,,,,,,,,,,,,,,,,,,,,,,,,,,,,,,,328.0,1.0,,,,,,
311,,iti,,html-keyboard-response,311,459682,0.0-1.0-59.0-0.0-5.0,0,0,27712,,,,,,,,,,,,,,,,,,,,,,,,,,,,,,,,,,,,,,329.0,1.0,,,,,,
312,,choice,,html-keyboard-response,312,460256,0.0-1.0-60.0-0.0-0.0,0,0,27712,,569.0,,,75.0,58.0,58.0,1000.0,2000.0,0.0,1.0,1.0,40-60,0.0,,lipstick,power strip,40.0,60.0,lipstick10,power strip5,60.0,40.0,21K0D7QKFAL._SS500_.jpg,93e4a283-bcd6-4ad1-8add-339658cda0fc_400.jpg,/static/Category_learning/Stimuli/Experimental_stims/lipstick/21K0D7QKFAL._SS500_.jpg,/static/Category_learning/Stimuli/Experimental_stims/power strip/93e4a283-bcd6-4ad1-8add-339658cda0fc_400.jpg,0.0,power strip,lipstick,60.0,40.0,power strip5,lipstick10,40.0,60.0,0.0,329.569,0.569,,,,,,
313,,confirmation,,html-keyboard-response,313,461193,0.0-1.0-60.0-0.0-1.0-0.0,0,0,27712,,,,,,58.0,,,,,,,,,,,,,,,,,,,,,,,,,,,,,,,,330.5,0.931,,,,,,
314,,isi,,html-keyboard-response,314,462202,0.0-1.0-60.0-0.0-2.0,0,0,27712,,,,,,,,,,,,,,,,,,,,,,,,,,,,,,,,,,,,,,331.5,1.0,,,,,,
315,,feedback,,html-keyboard-response,315,463207,0.0-1.0-60.0-0.0-3.0-0.0,0,0,27712,,,,,,58.0,,,,,,,,,,,,,,,,,,,,,,,,,,,,,,,,332.5,1.0,,,,,,
316,,iti,,html-keyboard-response,316,465216,0.0-1.0-60.0-0.0-5.0,0,0,27712,,,,,,,,,,,,,,,,,,,,,,,,,,,,,,,,,,,,,,334.5,2.0,,,,,,
317,,choice,,html-keyboard-response,317,466407,0.0-1.0-61.0-0.0-0.0,0,0,27712,,1186.0,,,75.0,59.0,59.0,2000.0,2000.0,0.0,1.0,0.0,40-80,,0.0,microscope,yarn,40.0,80.0,microscope12,yarn2,40.0,60.0,usbdigitalmicroscope1_small1.jpg,Aballofyarn66.jpg,/static/Category_learning/Stimuli/Experimental_stims/microscope/usbdigitalmicroscope1_small1.jpg,/static/Category_learning/Stimuli/Experimental_stims/yarn/Aballofyarn66.jpg,0.0,yarn,microscope,80.0,40.0,yarn2,microscope12,60.0,40.0,0.0,335.686,1.186,,,,,,
318,,confirmation,,html-keyboard-response,318,466726,0.0-1.0-61.0-0.0-1.0-0.0,0,0,27712,,,,,,59.0,,,,,,,,,,,,,,,,,,,,,,,,,,,,,,,,336.0,0.314,,,,,,
319,,isi,,html-keyboard-response,319,468733,0.0-1.0-61.0-0.0-2.0,0,0,27712,,,,,,,,,,,,,,,,,,,,,,,,,,,,,,,,,,,,,,338.0,2.0,,,,,,
320,,feedback,,html-keyboard-response,320,469738,0.0-1.0-61.0-0.0-3.0-0.0,0,0,27712,,,,,,59.0,,,,,,,,,,,,,,,,,,,,,,,,,,,,,,,,339.0,1.0,,,,,,
321,,iti,,html-keyboard-response,321,471744,0.0-1.0-61.0-0.0-5.0,0,0,27712,,,,,,,,,,,,,,,,,,,,,,,,,,,,,,,,,,,,,,341.0,2.0,,,,,,
322,,choice,,html-keyboard-response,322,472512,0.0-1.0-62.0-0.0-0.0,0,0,27712,,764.0,,,68.0,60.0,60.0,1000.0,1500.0,0.0,1.0,0.0,60-60,,,nail polish,necklace,60.0,60.0,nail polish2,necklace8,80.0,40.0,froggy_t.jpg,Anecklace20.jpg,/static/Category_learning/Stimuli/Experimental_stims/nail polish/froggy_t.jpg,/static/Category_learning/Stimuli/Experimental_stims/necklace/Anecklace20.jpg,1.0,nail polish,necklace,60.0,60.0,nail polish2,necklace8,80.0,40.0,0.0,341.764,0.764,,,,,,
323,,confirmation,,html-keyboard-response,323,473253,0.0-1.0-62.0-0.0-1.0-0.0,0,0,27712,,,,,,60.0,,,,,,,,,,,,,,,,,,,,,,,,,,,,,,,,342.5,0.736,,,,,,
324,,isi,,html-keyboard-response,324,474258,0.0-1.0-62.0-0.0-2.0,0,0,27712,,,,,,,,,,,,,,,,,,,,,,,,,,,,,,,,,,,,,,343.5,1.0,,,,,,
325,,feedback,,html-keyboard-response,325,475263,0.0-1.0-62.0-0.0-3.0-0.0,0,0,27712,,,,,,60.0,,,,,,,,,,,,,,,,,,,,,,,,,,,,,,,,344.5,1.0,,,,,,
326,,iti,,html-keyboard-response,326,476769,0.0-1.0-62.0-0.0-5.0,0,0,27712,,,,,,,,,,,,,,,,,,,,,,,,,,,,,,,,,,,,,,346.0,1.5,,,,,,
327,,choice,,html-keyboard-response,327,477868,0.0-1.0-63.0-0.0-0.0,0,0,27712,,1093.0,,,68.0,61.0,61.0,1000.0,1500.0,0.0,1.0,0.0,60-80,,1.0,stool,small table,80.0,60.0,stool15,small table6,100.0,80.0,ASTOOL.jpg,ATABLE88.jpg,/static/Category_learning/Stimuli/Experimental_stims/stool/ASTOOL.jpg,/static/Category_learning/Stimuli/Experimental_stims/small table/ATABLE88.jpg,1.0,stool,small table,80.0,60.0,stool15,small table6,100.0,80.0,0.0,347.093,1.093,,,,,,
328,,confirmation,,html-keyboard-response,328,478281,0.0-1.0-63.0-0.0-1.0-0.0,0,0,27712,,,,,,61.0,,,,,,,,,,,,,,,,,,,,,,,,,,,,,,,,347.5,0.407,,,,,,
329,,isi,,html-keyboard-response,329,479290,0.0-1.0-63.0-0.0-2.0,0,0,27712,,,,,,,,,,,,,,,,,,,,,,,,,,,,,,,,,,,,,,348.5,1.0,,,,,,
330,,feedback,,html-keyboard-response,330,480298,0.0-1.0-63.0-0.0-3.0-0.0,0,0,27712,,,,,,61.0,,,,,,,,,,,,,,,,,,,,,,,,,,,,,,,,349.5,1.0,,,,,,
331,,iti,,html-keyboard-response,331,481803,0.0-1.0-63.0-0.0-5.0,0,0,27712,,,,,,,,,,,,,,,,,,,,,,,,,,,,,,,,,,,,,,351.0,1.5,,,,,,
332,,block_over,,html-keyboard-response,332,494399,0.0-1.0-63.0-0.0-7.0-0.0,0,0,27712,,12588.0,,,68.0,61.0,,,,,,,,,,,,,,,,,,,,,,,,,,,,,,,,,,,,,,,
333,,start_run,,html-keyboard-response,333,498292,0.0-1.0-63.0-0.0-7.0-1.0,0,0,27712,,3890.0,,,84.0,,,,,,,,,,,,,,,,,,,,,,,,,,,,,,,,,,,,,,,,
334,,choice,,html-keyboard-response,334,499474,0.0-1.0-64.0-0.0-0.0,0,0,27712,,1177.0,,,68.0,62.0,65.0,1000.0,1000.0,0.0,2.0,0.0,40-80,,1.0,watch,makeup compact,80.0,40.0,watch1,makeup compact9,80.0,40.0,B000B5K8XI.01-A2E7J74KJYV9ZH._AA280_SCLZZZZZZZ_V53007008_.jpg,b_102019.jpg,/static/Category_learning/Stimuli/Experimental_stims/watch/B000B5K8XI.01-A2E7J74KJYV9ZH._AA280_SCLZZZZZZZ_V53007008_.jpg,/static/Category_learning/Stimuli/Experimental_stims/makeup compact/b_102019.jpg,1.0,watch,makeup compact,80.0,40.0,watch1,makeup compact9,80.0,40.0,0.0,1.177,1.177,,,,,,
335,,confirmation,,html-keyboard-response,335,499802,0.0-1.0-64.0-0.0-1.0-0.0,0,0,27712,,,,,,62.0,,,,,,,,,,,,,,,,,,,,,,,,,,,,,,,,1.5,0.323,,,,,,
336,,isi,,html-keyboard-response,336,500809,0.0-1.0-64.0-0.0-2.0,0,0,27712,,,,,,,,,,,,,,,,,,,,,,,,,,,,,,,,,,,,,,2.5,1.0,,,,,,
337,,feedback,,html-keyboard-response,337,501815,0.0-1.0-64.0-0.0-3.0-0.0,0,0,27712,,,,,,62.0,,,,,,,,,,,,,,,,,,,,,,,,,,,,,,,,3.5,1.0,,,,,,
338,,iti,,html-keyboard-response,338,502824,0.0-1.0-64.0-0.0-5.0,0,0,27712,,,,,,,,,,,,,,,,,,,,,,,,,,,,,,,,,,,,,,4.5,1.0,,,,,,
339,,choice,,html-keyboard-response,339,503575,0.0-1.0-65.0-0.0-0.0,0,0,27712,,747.0,,,68.0,63.0,66.0,3500.0,2000.0,0.0,2.0,0.0,20-80,,1.0,vase,bench,80.0,20.0,vase12,bench13,100.0,40.0,Abluevase2.jpg,ABROWNBE4.jpg,/static/Category_learning/Stimuli/Experimental_stims/vase/Abluevase2.jpg,/static/Category_learning/Stimuli/Experimental_stims/bench/ABROWNBE4.jpg,1.0,vase,bench,80.0,20.0,vase12,bench13,100.0,40.0,0.0,5.247,0.747,,,,,,
340,,confirmation,,html-keyboard-response,340,504332,0.0-1.0-65.0-0.0-1.0-0.0,0,0,27712,,,,,,63.0,,,,,,,,,,,,,,,,,,,,,,,,,,,,,,,,6.0,0.753,,,,,,
341,,isi,,html-keyboard-response,341,507836,0.0-1.0-65.0-0.0-2.0,0,0,27712,,,,,,,,,,,,,,,,,,,,,,,,,,,,,,,,,,,,,,9.5,3.5,,,,,,
342,,feedback,,html-keyboard-response,342,508840,0.0-1.0-65.0-0.0-3.0-0.0,0,0,27712,,,,,,63.0,,,,,,,,,,,,,,,,,,,,,,,,,,,,,,,,10.5,1.0,,,,,,
343,,iti,,html-keyboard-response,343,510845,0.0-1.0-65.0-0.0-5.0,0,0,27712,,,,,,,,,,,,,,,,,,,,,,,,,,,,,,,,,,,,,,12.5,2.0,,,,,,
344,,choice,,html-keyboard-response,344,511773,0.0-1.0-66.0-0.0-0.0,0,0,27712,,924.0,,,68.0,64.0,67.0,1000.0,1000.0,0.0,2.0,0.0,20-80,,0.0,fan,trumpet,20.0,80.0,fan2,trumpet12,40.0,80.0,507349_sk_lg.jpg,hornabariton.jpg,/static/Category_learning/Stimuli/Experimental_stims/fan/507349_sk_lg.jpg,/static/Category_learning/Stimuli/Experimental_stims/trumpet/hornabariton.jpg,1.0,fan,trumpet,20.0,80.0,fan2,trumpet12,40.0,80.0,0.0,13.424,0.924,,,,,,
345,,confirmation,,html-keyboard-response,345,512355,0.0-1.0-66.0-0.0-1.0-0.0,0,0,27712,,,,,,64.0,,,,,,,,,,,,,,,,,,,,,,,,,,,,,,,,14.0,0.576,,,,,,
346,,isi,,html-keyboard-response,346,513363,0.0-1.0-66.0-0.0-2.0,0,0,27712,,,,,,,,,,,,,,,,,,,,,,,,,,,,,,,,,,,,,,15.0,1.0,,,,,,
347,,feedback,,html-keyboard-response,347,514371,0.0-1.0-66.0-0.0-3.0-0.0,0,0,27712,,,,,,64.0,,,,,,,,,,,,,,,,,,,,,,,,,,,,,,,,16.0,1.0,,,,,,
348,,iti,,html-keyboard-response,348,515379,0.0-1.0-66.0-0.0-5.0,0,0,27712,,,,,,,,,,,,,,,,,,,,,,,,,,,,,,,,,,,,,,17.0,1.0,,,,,,
349,,choice,,html-keyboard-response,349,515957,0.0-1.0-67.0-0.0-0.0,0,0,27712,,573.0,,,75.0,65.0,68.0,2000.0,1000.0,0.0,2.0,0.0,60-60,,,pen,poker card,60.0,60.0,pen4,poker card9,80.0,80.0,Montblanc_Greta_Garbo_BP copy.jpg,9817230.thl.jpg,/static/Category_learning/Stimuli/Experimental_stims/pen/Montblanc_Greta_Garbo_BP copy.jpg,/static/Category_learning/Stimuli/Experimental_stims/poker card/9817230.thl.jpg,0.0,poker card,pen,60.0,60.0,poker card9,pen4,80.0,80.0,0.0,17.573,0.573,,,,,,
350,,confirmation,,html-keyboard-response,350,516890,0.0-1.0-67.0-0.0-1.0-0.0,0,0,27712,,,,,,65.0,,,,,,,,,,,,,,,,,,,,,,,,,,,,,,,,18.5,0.927,,,,,,
351,,isi,,html-keyboard-response,351,518895,0.0-1.0-67.0-0.0-2.0,0,0,27712,,,,,,,,,,,,,,,,,,,,,,,,,,,,,,,,,,,,,,20.5,2.0,,,,,,
352,,feedback,,html-keyboard-response,352,519901,0.0-1.0-67.0-0.0-3.0-0.0,0,0,27712,,,,,,65.0,,,,,,,,,,,,,,,,,,,,,,,,,,,,,,,,21.5,1.0,,,,,,
353,,iti,,html-keyboard-response,353,520909,0.0-1.0-67.0-0.0-5.0,0,0,27712,,,,,,,,,,,,,,,,,,,,,,,,,,,,,,,,,,,,,,22.5,1.0,,,,,,
354,,choice,,html-keyboard-response,354,521426,0.0-1.0-68.0-0.0-0.0,0,0,27712,,512.0,,,68.0,66.0,69.0,1000.0,1000.0,0.0,2.0,0.0,20-20,,,baby carriage,fan,20.0,20.0,baby carriage9,fan11,0.0,0.0,Antique baby Carriage 7.jpg,n_sf.jpg,/static/Category_learning/Stimuli/Experimental_stims/baby carriage/Antique baby Carriage 7.jpg,/static/Category_learning/Stimuli/Experimental_stims/fan/n_sf.jpg,1.0,baby carriage,fan,20.0,20.0,baby carriage9,fan11,0.0,0.0,0.0,23.012,0.512,,,,,,
355,,confirmation,,html-keyboard-response,355,522419,0.0-1.0-68.0-0.0-1.0-0.0,0,0,27712,,,,,,66.0,,,,,,,,,,,,,,,,,,,,,,,,,,,,,,,,24.0,0.988,,,,,,
356,,isi,,html-keyboard-response,356,523426,0.0-1.0-68.0-0.0-2.0,0,0,27712,,,,,,,,,,,,,,,,,,,,,,,,,,,,,,,,,,,,,,25.0,1.0,,,,,,
357,,feedback,,html-keyboard-response,357,524434,0.0-1.0-68.0-0.0-3.0-0.0,0,0,27712,,,,,,66.0,,,,,,,,,,,,,,,,,,,,,,,,,,,,,,,,26.0,1.0,,,,,,
358,,iti,,html-keyboard-response,358,525442,0.0-1.0-68.0-0.0-5.0,0,0,27712,,,,,,,,,,,,,,,,,,,,,,,,,,,,,,,,,,,,,,27.0,1.0,,,,,,
359,,choice,,html-keyboard-response,359,525968,0.0-1.0-69.0-0.0-0.0,0,0,27712,,521.0,,,75.0,67.0,70.0,1500.0,1000.0,0.0,2.0,0.0,20-80,,1.0,stool,dresser,80.0,20.0,stool2,dresser1,60.0,0.0,ASTOOL46.jpg,ADRESSE52.jpg,/static/Category_learning/Stimuli/Experimental_stims/stool/ASTOOL46.jpg,/static/Category_learning/Stimuli/Experimental_stims/dresser/ADRESSE52.jpg,0.0,dresser,stool,20.0,80.0,dresser1,stool2,0.0,60.0,0.0,27.521,0.521,,,,,,
360,,confirmation,,html-keyboard-response,360,526953,0.0-1.0-69.0-0.0-1.0-0.0,0,0,27712,,,,,,67.0,,,,,,,,,,,,,,,,,,,,,,,,,,,,,,,,28.5,0.979,,,,,,
361,,isi,,html-keyboard-response,361,528461,0.0-1.0-69.0-0.0-2.0,0,0,27712,,,,,,,,,,,,,,,,,,,,,,,,,,,,,,,,,,,,,,30.0,1.5,,,,,,
362,,feedback,,html-keyboard-response,362,529469,0.0-1.0-69.0-0.0-3.0-0.0,0,0,27712,,,,,,67.0,,,,,,,,,,,,,,,,,,,,,,,,,,,,,,,,31.0,1.0,,,,,,
363,,iti,,html-keyboard-response,363,530477,0.0-1.0-69.0-0.0-5.0,0,0,27712,,,,,,,,,,,,,,,,,,,,,,,,,,,,,,,,,,,,,,32.0,1.0,,,,,,
364,,choice,,html-keyboard-response,364,531249,0.0-1.0-70.0-0.0-0.0,0,0,27712,,768.0,,,75.0,68.0,71.0,3500.0,2000.0,0.0,2.0,0.0,20-80,,0.0,desk,stool,20.0,80.0,desk4,stool11,40.0,60.0,AbbeyMiniRadialBIG(1).jpg,ASTOOL28.jpg,/static/Category_learning/Stimuli/Experimental_stims/desk/AbbeyMiniRadialBIG(1).jpg,/static/Category_learning/Stimuli/Experimental_stims/stool/ASTOOL28.jpg,0.0,stool,desk,80.0,20.0,stool11,desk4,60.0,40.0,0.0,32.768,0.768,,,,,,
365,,confirmation,,html-keyboard-response,365,531986,0.0-1.0-70.0-0.0-1.0-0.0,0,0,27712,,,,,,68.0,,,,,,,,,,,,,,,,,,,,,,,,,,,,,,,,33.5,0.732,,,,,,
366,,isi,,html-keyboard-response,366,535495,0.0-1.0-70.0-0.0-2.0,0,0,27712,,,,,,,,,,,,,,,,,,,,,,,,,,,,,,,,,,,,,,37.0,3.5,,,,,,
367,,feedback,,html-keyboard-response,367,536503,0.0-1.0-70.0-0.0-3.0-0.0,0,0,27712,,,,,,68.0,,,,,,,,,,,,,,,,,,,,,,,,,,,,,,,,38.0,1.0,,,,,,
368,,iti,,html-keyboard-response,368,538508,0.0-1.0-70.0-0.0-5.0,0,0,27712,,,,,,,,,,,,,,,,,,,,,,,,,,,,,,,,,,,,,,40.0,2.0,,,,,,
369,,choice,,html-keyboard-response,369,539116,0.0-1.0-71.0-0.0-0.0,0,0,27712,,603.0,,,68.0,69.0,72.0,2000.0,1500.0,0.0,2.0,0.0,40-60,,0.0,license plate,poker card,40.0,60.0,license plate1,poker card2,40.0,60.0,il-423-3784.jpg,22864716.thl.jpg,/static/Category_learning/Stimuli/Experimental_stims/license plate/il-423-3784.jpg,/static/Category_learning/Stimuli/Experimental_stims/poker card/22864716.thl.jpg,1.0,license plate,poker card,40.0,60.0,license plate1,poker card2,40.0,60.0,0.0,40.603,0.603,,,,,,
370,,confirmation,,html-keyboard-response,370,540018,0.0-1.0-71.0-0.0-1.0-0.0,0,0,27712,,,,,,69.0,,,,,,,,,,,,,,,,,,,,,,,,,,,,,,,,41.5,0.897,,,,,,
371,,isi,,html-keyboard-response,371,542027,0.0-1.0-71.0-0.0-2.0,0,0,27712,,,,,,,,,,,,,,,,,,,,,,,,,,,,,,,,,,,,,,43.5,2.0,,,,,,
372,,feedback,,html-keyboard-response,372,543036,0.0-1.0-71.0-0.0-3.0-0.0,0,0,27712,,,,,,69.0,,,,,,,,,,,,,,,,,,,,,,,,,,,,,,,,44.5,1.0,,,,,,
373,,iti,,html-keyboard-response,373,544545,0.0-1.0-71.0-0.0-5.0,0,0,27712,,,,,,,,,,,,,,,,,,,,,,,,,,,,,,,,,,,,,,46.0,1.5,,,,,,
374,,choice,,html-keyboard-response,374,546055,0.0-1.0-72.0-0.0-0.0,0,0,27712,,,,,,70.0,73.0,1500.0,1500.0,0.0,2.0,1.0,80-80,1.0,,vase,vase,80.0,80.0,vase14,vase12,80.0,100.0,Avase119.jpg,Abluevase2.jpg,/static/Category_learning/Stimuli/Experimental_stims/vase/Avase119.jpg,/static/Category_learning/Stimuli/Experimental_stims/vase/Abluevase2.jpg,,,,,,,,,,1.0,47.5,1.5,,,,,,
375,,isi,,html-keyboard-response,375,547564,0.0-1.0-72.0-0.0-2.0,0,0,27712,,,,,,,,,,,,,,,,,,,,,,,,,,,,,,,,,,,,,,49.0,1.5,,,,,,
376,,no_response,,html-keyboard-response,376,548572,0.0-1.0-72.0-0.0-4.0-0.0,0,0,27712,,,,,,,,,,,,,,,,,,,,,,,,,,,,,,,,,,,,,,50.0,1.0,,,,,,
377,,iti,,html-keyboard-response,377,550102,0.0-1.0-72.0-0.0-5.0,0,0,27712,,,,,,,,,,,,,,,,,,,,,,,,,,,,,,,,,,,,,,51.5,1.5,,,,,,
378,,choice,,html-keyboard-response,378,550714,0.0-1.0-72.0-0.1-0.1,0,0,27712,,608.0,,,68.0,70.0,73.0,1500.0,1500.0,0.0,2.0,1.0,80-80,1.0,,vase,vase,80.0,80.0,vase14,vase12,80.0,100.0,Avase119.jpg,Abluevase2.jpg,/static/Category_learning/Stimuli/Experimental_stims/vase/Avase119.jpg,/static/Category_learning/Stimuli/Experimental_stims/vase/Abluevase2.jpg,1.0,vase,vase,80.0,80.0,vase14,vase12,80.0,100.0,0.0,52.108,0.608,,,,,,
379,,confirmation,,html-keyboard-response,379,551611,0.0-1.0-72.0-0.1-1.1-0.1,0,0,27712,,,,,,70.0,,,,,,,,,,,,,,,,,,,,,,,,,,,,,,,,53.0,0.892,,,,,,
380,,isi,,html-keyboard-response,380,553116,0.0-1.0-72.0-0.1-2.1,0,0,27712,,,,,,,,,,,,,,,,,,,,,,,,,,,,,,,,,,,,,,54.5,1.5,,,,,,
381,,feedback,,html-keyboard-response,381,554123,0.0-1.0-72.0-0.1-3.1-0.1,0,0,27712,,,,,,70.0,,,,,,,,,,,,,,,,,,,,,,,,,,,,,,,,55.5,1.0,,,,,,
382,,iti,,html-keyboard-response,382,557628,0.0-1.0-72.0-0.1-5.1,0,0,27712,,,,,,,,,,,,,,,,,,,,,,,,,,,,,,,,,,,,,,59.0,3.5,,,,,,
383,,choice,,html-keyboard-response,383,558522,0.0-1.0-73.0-0.0-0.0,0,0,27712,,889.0,,,68.0,71.0,74.0,1000.0,2000.0,0.0,2.0,0.0,20-60,,0.0,flashlight,poker card,20.0,60.0,flashlight8,poker card12,40.0,80.0,Streamlight-Stinger-Rechargeable-Flashlight-with-Charger-Black-75014-B00008BFSI-L.jpg,22865676.thl.jpg,/static/Category_learning/Stimuli/Experimental_stims/flashlight/Streamlight-Stinger-Rechargeable-Flashlight-with-Charger-Black-75014-B00008BFSI-L.jpg,/static/Category_learning/Stimuli/Experimental_stims/poker card/22865676.thl.jpg,1.0,flashlight,poker card,20.0,60.0,flashlight8,poker card12,40.0,80.0,0.0,59.889,0.889,,,,,,
384,,confirmation,,html-keyboard-response,384,559138,0.0-1.0-73.0-0.0-1.0-0.0,0,0,27712,,,,,,71.0,,,,,,,,,,,,,,,,,,,,,,,,,,,,,,,,60.5,0.611,,,,,,
385,,isi,,html-keyboard-response,385,560144,0.0-1.0-73.0-0.0-2.0,0,0,27712,,,,,,,,,,,,,,,,,,,,,,,,,,,,,,,,,,,,,,61.5,1.0,,,,,,
386,,feedback,,html-keyboard-response,386,561152,0.0-1.0-73.0-0.0-3.0-0.0,0,0,27712,,,,,,71.0,,,,,,,,,,,,,,,,,,,,,,,,,,,,,,,,62.5,1.0,,,,,,
387,,iti,,html-keyboard-response,387,563158,0.0-1.0-73.0-0.0-5.0,0,0,27712,,,,,,,,,,,,,,,,,,,,,,,,,,,,,,,,,,,,,,64.5,2.0,,,,,,
388,,choice,,html-keyboard-response,388,564664,0.0-1.0-74.0-0.0-0.0,0,0,27712,,1501.0,,,68.0,72.0,75.0,1500.0,1000.0,0.0,2.0,0.0,20-80,,0.0,bongo,stool,20.0,80.0,bongo3,stool4,20.0,60.0,26390697.thl.jpg,ASTOOL22.jpg,/static/Category_learning/Stimuli/Experimental_stims/bongo/26390697.thl.jpg,/static/Category_learning/Stimuli/Experimental_stims/stool/ASTOOL22.jpg,1.0,bongo,stool,20.0,80.0,bongo3,stool4,20.0,60.0,0.0,66.001,1.501,,,,,,
389,,confirmation,,html-keyboard-response,389,564669,0.0-1.0-74.0-0.0-1.0-0.0,0,0,27712,,,,,,72.0,,,,,,,,,,,,,,,,,,,,,,,,,,,,,,,,66.0,-0.001,,,,,,
390,,isi,,html-keyboard-response,390,566176,0.0-1.0-74.0-0.0-2.0,0,0,27712,,,,,,,,,,,,,,,,,,,,,,,,,,,,,,,,,,,,,,67.5,1.5,,,,,,
391,,feedback,,html-keyboard-response,391,567184,0.0-1.0-74.0-0.0-3.0-0.0,0,0,27712,,,,,,72.0,,,,,,,,,,,,,,,,,,,,,,,,,,,,,,,,68.5,1.0,,,,,,
392,,iti,,html-keyboard-response,392,568192,0.0-1.0-74.0-0.0-5.0,0,0,27712,,,,,,,,,,,,,,,,,,,,,,,,,,,,,,,,,,,,,,69.5,1.0,,,,,,
393,,choice,,html-keyboard-response,393,569038,0.0-1.0-75.0-0.0-0.0,0,0,27712,,841.0,,,75.0,73.0,76.0,3000.0,2000.0,0.0,2.0,0.0,40-40,,,makeup compact,motorcycle,40.0,40.0,makeup compact6,motorcycle8,20.0,20.0,P0754_hero.jpg,Motorcycle903425j2.jpg,/static/Category_learning/Stimuli/Experimental_stims/makeup compact/P0754_hero.jpg,/static/Category_learning/Stimuli/Experimental_stims/motorcycle/Motorcycle903425j2.jpg,0.0,motorcycle,makeup compact,40.0,40.0,motorcycle8,makeup compact6,20.0,20.0,0.0,70.341,0.841,,,,,,
394,,confirmation,,html-keyboard-response,394,569702,0.0-1.0-75.0-0.0-1.0-0.0,0,0,27712,,,,,,73.0,,,,,,,,,,,,,,,,,,,,,,,,,,,,,,,,71.0,0.659,,,,,,
395,,isi,,html-keyboard-response,395,572709,0.0-1.0-75.0-0.0-2.0,0,0,27712,,,,,,,,,,,,,,,,,,,,,,,,,,,,,,,,,,,,,,74.0,3.0,,,,,,
396,,feedback,,html-keyboard-response,396,573717,0.0-1.0-75.0-0.0-3.0-0.0,0,0,27712,,,,,,73.0,,,,,,,,,,,,,,,,,,,,,,,,,,,,,,,,75.0,1.0,,,,,,
397,,iti,,html-keyboard-response,397,575722,0.0-1.0-75.0-0.0-5.0,0,0,27712,,,,,,,,,,,,,,,,,,,,,,,,,,,,,,,,,,,,,,77.0,2.0,,,,,,
398,,choice,,html-keyboard-response,398,577200,0.0-1.0-76.0-0.0-0.0,0,0,27712,,1473.0,,,68.0,74.0,77.0,3000.0,1000.0,0.0,2.0,1.0,20-20,1.0,,flashlight,flashlight,20.0,20.0,flashlight14,flashlight8,20.0,40.0,freeplay-jonta-flashlight.jpg,Streamlight-Stinger-Rechargeable-Flashlight-with-Charger-Black-75014-B00008BFSI-L.jpg,/static/Category_learning/Stimuli/Experimental_stims/flashlight/freeplay-jonta-flashlight.jpg,/static/Category_learning/Stimuli/Experimental_stims/flashlight/Streamlight-Stinger-Rechargeable-Flashlight-with-Charger-Black-75014-B00008BFSI-L.jpg,1.0,flashlight,flashlight,20.0,20.0,flashlight14,flashlight8,20.0,40.0,0.0,78.473,1.473,,,,,,
399,,confirmation,,html-keyboard-response,399,577233,0.0-1.0-76.0-0.0-1.0-0.0,0,0,27712,,,,,,74.0,,,,,,,,,,,,,,,,,,,,,,,,,,,,,,,,78.5,0.027,,,,,,
400,,isi,,html-keyboard-response,400,580239,0.0-1.0-76.0-0.0-2.0,0,0,27712,,,,,,,,,,,,,,,,,,,,,,,,,,,,,,,,,,,,,,81.5,3.0,,,,,,
401,,feedback,,html-keyboard-response,401,581247,0.0-1.0-76.0-0.0-3.0-0.0,0,0,27712,,,,,,74.0,,,,,,,,,,,,,,,,,,,,,,,,,,,,,,,,82.5,1.0,,,,,,
402,,iti,,html-keyboard-response,402,582255,0.0-1.0-76.0-0.0-5.0,0,0,27712,,,,,,,,,,,,,,,,,,,,,,,,,,,,,,,,,,,,,,83.5,1.0,,,,,,
403,,choice,,html-keyboard-response,403,583765,0.0-1.0-77.0-0.0-0.0,0,0,27712,,,,,,75.0,78.0,1500.0,1000.0,0.0,2.0,0.0,60-60,,,patio lounge chair,pen,60.0,60.0,patio lounge chair9,pen6,60.0,40.0,43-3.jpg,executive_pen2.jpg,/static/Category_learning/Stimuli/Experimental_stims/patio lounge chair/43-3.jpg,/static/Category_learning/Stimuli/Experimental_stims/pen/executive_pen2.jpg,,,,,,,,,,1.0,85.0,1.5,,,,,,
404,,isi,,html-keyboard-response,404,585270,0.0-1.0-77.0-0.0-2.0,0,0,27712,,,,,,,,,,,,,,,,,,,,,,,,,,,,,,,,,,,,,,86.5,1.5,,,,,,
405,,no_response,,html-keyboard-response,405,586278,0.0-1.0-77.0-0.0-4.0-0.0,0,0,27712,,,,,,,,,,,,,,,,,,,,,,,,,,,,,,,,,,,,,,87.5,1.0,,,,,,
406,,iti,,html-keyboard-response,406,587311,0.0-1.0-77.0-0.0-5.0,0,0,27712,,,,,,,,,,,,,,,,,,,,,,,,,,,,,,,,,,,,,,88.5,1.0,,,,,,
407,,choice,,html-keyboard-response,407,588258,0.0-1.0-77.0-0.1-0.1,0,0,27712,,943.0,,,75.0,75.0,78.0,1500.0,1000.0,0.0,2.0,0.0,60-60,,,patio lounge chair,pen,60.0,60.0,patio lounge chair9,pen6,60.0,40.0,43-3.jpg,executive_pen2.jpg,/static/Category_learning/Stimuli/Experimental_stims/patio lounge chair/43-3.jpg,/static/Category_learning/Stimuli/Experimental_stims/pen/executive_pen2.jpg,0.0,pen,patio lounge chair,60.0,60.0,pen6,patio lounge chair9,40.0,60.0,0.0,89.443,0.943,,,,,,
408,,confirmation,,html-keyboard-response,408,588819,0.0-1.0-77.0-0.1-1.1-0.1,0,0,27712,,,,,,75.0,,,,,,,,,,,,,,,,,,,,,,,,,,,,,,,,90.0,0.557,,,,,,
409,,isi,,html-keyboard-response,409,590823,0.0-1.0-77.0-0.1-2.1,0,0,27712,,,,,,,,,,,,,,,,,,,,,,,,,,,,,,,,,,,,,,92.0,2.0,,,,,,
410,,feedback,,html-keyboard-response,410,591833,0.0-1.0-77.0-0.1-3.1-0.1,0,0,27712,,,,,,75.0,,,,,,,,,,,,,,,,,,,,,,,,,,,,,,,,93.0,1.0,,,,,,
411,,iti,,html-keyboard-response,411,593840,0.0-1.0-77.0-0.1-5.1,0,0,27712,,,,,,,,,,,,,,,,,,,,,,,,,,,,,,,,,,,,,,95.0,2.0,,,,,,
412,,choice,,html-keyboard-response,412,594340,0.0-1.0-78.0-0.0-0.0,0,0,27712,,495.0,,,68.0,76.0,79.0,1000.0,2000.0,0.0,2.0,1.0,40-40,1.0,,motorcycle,motorcycle,40.0,40.0,motorcycle12,motorcycle8,40.0,20.0,motorcycle14.jpg,Motorcycle903425j2.jpg,/static/Category_learning/Stimuli/Experimental_stims/motorcycle/motorcycle14.jpg,/static/Category_learning/Stimuli/Experimental_stims/motorcycle/Motorcycle903425j2.jpg,1.0,motorcycle,motorcycle,40.0,40.0,motorcycle12,motorcycle8,40.0,20.0,0.0,95.495,0.495,,,,,,
413,,confirmation,,html-keyboard-response,413,595350,0.0-1.0-78.0-0.0-1.0-0.0,0,0,27712,,,,,,76.0,,,,,,,,,,,,,,,,,,,,,,,,,,,,,,,,96.5,1.005,,,,,,
414,,isi,,html-keyboard-response,414,596356,0.0-1.0-78.0-0.0-2.0,0,0,27712,,,,,,,,,,,,,,,,,,,,,,,,,,,,,,,,,,,,,,97.5,1.0,,,,,,
415,,feedback,,html-keyboard-response,415,597362,0.0-1.0-78.0-0.0-3.0-0.0,0,0,27712,,,,,,76.0,,,,,,,,,,,,,,,,,,,,,,,,,,,,,,,,98.5,1.0,,,,,,
416,,iti,,html-keyboard-response,416,599369,0.0-1.0-78.0-0.0-5.0,0,0,27712,,,,,,,,,,,,,,,,,,,,,,,,,,,,,,,,,,,,,,100.5,2.0,,,,,,
417,,choice,,html-keyboard-response,417,600026,0.0-1.0-79.0-0.0-0.0,0,0,27712,,653.0,,,68.0,77.0,80.0,2000.0,1000.0,0.0,2.0,0.0,20-60,,0.0,bowl,necklace,20.0,60.0,bowl7,necklace4,20.0,40.0,Abowl54.jpg,emerald_diamond_necklace.jpg,/static/Category_learning/Stimuli/Experimental_stims/bowl/Abowl54.jpg,/static/Category_learning/Stimuli/Experimental_stims/necklace/emerald_diamond_necklace.jpg,1.0,bowl,necklace,20.0,60.0,bowl7,necklace4,20.0,40.0,0.0,101.153,0.653,,,,,,
418,,confirmation,,html-keyboard-response,418,600878,0.0-1.0-79.0-0.0-1.0-0.0,0,0,27712,,,,,,77.0,,,,,,,,,,,,,,,,,,,,,,,,,,,,,,,,102.0,0.847,,,,,,
419,,isi,,html-keyboard-response,419,602883,0.0-1.0-79.0-0.0-2.0,0,0,27712,,,,,,,,,,,,,,,,,,,,,,,,,,,,,,,,,,,,,,104.0,2.0,,,,,,
420,,feedback,,html-keyboard-response,420,603892,0.0-1.0-79.0-0.0-3.0-0.0,0,0,27712,,,,,,77.0,,,,,,,,,,,,,,,,,,,,,,,,,,,,,,,,105.0,1.0,,,,,,
421,,iti,,html-keyboard-response,421,604899,0.0-1.0-79.0-0.0-5.0,0,0,27712,,,,,,,,,,,,,,,,,,,,,,,,,,,,,,,,,,,,,,106.0,1.0,,,,,,
422,,choice,,html-keyboard-response,422,605403,0.0-1.0-80.0-0.0-0.0,0,0,27712,,499.0,,,68.0,78.0,81.0,1500.0,1000.0,0.0,2.0,0.0,20-80,,1.0,vase,bongo,80.0,20.0,vase11,bongo12,100.0,40.0,Ethnic_Ceramic_Vase.jpg,26686609.thl.jpg,/static/Category_learning/Stimuli/Experimental_stims/vase/Ethnic_Ceramic_Vase.jpg,/static/Category_learning/Stimuli/Experimental_stims/bongo/26686609.thl.jpg,1.0,vase,bongo,80.0,20.0,vase11,bongo12,100.0,40.0,0.0,106.499,0.499,,,,,,
423,,confirmation,,html-keyboard-response,423,606409,0.0-1.0-80.0-0.0-1.0-0.0,0,0,27712,,,,,,78.0,,,,,,,,,,,,,,,,,,,,,,,,,,,,,,,,107.5,1.001,,,,,,
424,,isi,,html-keyboard-response,424,607917,0.0-1.0-80.0-0.0-2.0,0,0,27712,,,,,,,,,,,,,,,,,,,,,,,,,,,,,,,,,,,,,,109.0,1.5,,,,,,
425,,feedback,,html-keyboard-response,425,608926,0.0-1.0-80.0-0.0-3.0-0.0,0,0,27712,,,,,,78.0,,,,,,,,,,,,,,,,,,,,,,,,,,,,,,,,110.0,1.0,,,,,,
426,,iti,,html-keyboard-response,426,609934,0.0-1.0-80.0-0.0-5.0,0,0,27712,,,,,,,,,,,,,,,,,,,,,,,,,,,,,,,,,,,,,,111.0,1.0,,,,,,
427,,choice,,html-keyboard-response,427,610441,0.0-1.0-81.0-0.0-0.0,0,0,27712,,503.0,,,75.0,79.0,82.0,1000.0,1500.0,0.0,2.0,0.0,40-80,,1.0,yarn,makeup compact,80.0,40.0,yarn10,makeup compact7,60.0,20.0,revelation-yarn.jpg,P187133_hero.jpg,/static/Category_learning/Stimuli/Experimental_stims/yarn/revelation-yarn.jpg,/static/Category_learning/Stimuli/Experimental_stims/makeup compact/P187133_hero.jpg,0.0,makeup compact,yarn,40.0,80.0,makeup compact7,yarn10,20.0,60.0,0.0,111.503,0.503,,,,,,
428,,confirmation,,html-keyboard-response,428,611443,0.0-1.0-81.0-0.0-1.0-0.0,0,0,27712,,,,,,79.0,,,,,,,,,,,,,,,,,,,,,,,,,,,,,,,,112.5,0.997,,,,,,
429,,isi,,html-keyboard-response,429,612451,0.0-1.0-81.0-0.0-2.0,0,0,27712,,,,,,,,,,,,,,,,,,,,,,,,,,,,,,,,,,,,,,113.5,1.0,,,,,,
430,,feedback,,html-keyboard-response,430,613459,0.0-1.0-81.0-0.0-3.0-0.0,0,0,27712,,,,,,79.0,,,,,,,,,,,,,,,,,,,,,,,,,,,,,,,,114.5,1.0,,,,,,
431,,iti,,html-keyboard-response,431,614966,0.0-1.0-81.0-0.0-5.0,0,0,27712,,,,,,,,,,,,,,,,,,,,,,,,,,,,,,,,,,,,,,116.0,1.5,,,,,,
432,,choice,,html-keyboard-response,432,615409,0.0-1.0-82.0-0.0-0.0,0,0,27712,,438.0,,,68.0,80.0,83.0,1000.0,2000.0,0.0,2.0,1.0,20-20,1.0,,baby carriage,baby carriage,20.0,20.0,baby carriage5,baby carriage9,20.0,0.0,Baby_Stroller.jpg,Antique baby Carriage 7.jpg,/static/Category_learning/Stimuli/Experimental_stims/baby carriage/Baby_Stroller.jpg,/static/Category_learning/Stimuli/Experimental_stims/baby carriage/Antique baby Carriage 7.jpg,1.0,baby carriage,baby carriage,20.0,20.0,baby carriage5,baby carriage9,20.0,0.0,0.0,116.438,0.438,,,,,,
433,,confirmation,,html-keyboard-response,433,616478,0.0-1.0-82.0-0.0-1.0-0.0,0,0,27712,,,,,,80.0,,,,,,,,,,,,,,,,,,,,,,,,,,,,,,,,117.5,1.062,,,,,,
434,,isi,,html-keyboard-response,434,617487,0.0-1.0-82.0-0.0-2.0,0,0,27712,,,,,,,,,,,,,,,,,,,,,,,,,,,,,,,,,,,,,,118.5,1.0,,,,,,
435,,feedback,,html-keyboard-response,435,618493,0.0-1.0-82.0-0.0-3.0-0.0,0,0,27712,,,,,,80.0,,,,,,,,,,,,,,,,,,,,,,,,,,,,,,,,119.5,1.0,,,,,,
436,,iti,,html-keyboard-response,436,620502,0.0-1.0-82.0-0.0-5.0,0,0,27712,,,,,,,,,,,,,,,,,,,,,,,,,,,,,,,,,,,,,,121.5,2.0,,,,,,
437,,choice,,html-keyboard-response,437,621146,0.0-1.0-83.0-0.0-0.0,0,0,27712,,640.0,,,68.0,81.0,84.0,1500.0,1000.0,0.0,2.0,0.0,20-60,,1.0,sofa,door knob,60.0,20.0,sofa14,door knob3,40.0,40.0,HENRY-Sofa-falg8068-05-72X34X34.jpg,020f7ec6-df08-40fa-b3a5-0dcfb762f085_4.jpg,/static/Category_learning/Stimuli/Experimental_stims/sofa/HENRY-Sofa-falg8068-05-72X34X34.jpg,/static/Category_learning/Stimuli/Experimental_stims/door knob/020f7ec6-df08-40fa-b3a5-0dcfb762f085_4.jpg,1.0,sofa,door knob,60.0,20.0,sofa14,door knob3,40.0,40.0,0.0,122.14,0.64,,,,,,
438,,confirmation,,html-keyboard-response,438,622012,0.0-1.0-83.0-0.0-1.0-0.0,0,0,27712,,,,,,81.0,,,,,,,,,,,,,,,,,,,,,,,,,,,,,,,,123.0,0.86,,,,,,
439,,isi,,html-keyboard-response,439,623516,0.0-1.0-83.0-0.0-2.0,0,0,27712,,,,,,,,,,,,,,,,,,,,,,,,,,,,,,,,,,,,,,124.5,1.5,,,,,,
440,,feedback,,html-keyboard-response,440,624525,0.0-1.0-83.0-0.0-3.0-0.0,0,0,27712,,,,,,81.0,,,,,,,,,,,,,,,,,,,,,,,,,,,,,,,,125.5,1.0,,,,,,
441,,iti,,html-keyboard-response,441,625533,0.0-1.0-83.0-0.0-5.0,0,0,27712,,,,,,,,,,,,,,,,,,,,,,,,,,,,,,,,,,,,,,126.5,1.0,,,,,,
442,,choice,,html-keyboard-response,442,625970,0.0-1.0-84.0-0.0-0.0,0,0,27712,,433.0,,,68.0,82.0,85.0,3000.0,1000.0,0.0,2.0,1.0,20-20,1.0,,bongo,bongo,20.0,20.0,bongo13,bongo3,0.0,20.0,26388718.thl.jpg,26390697.thl.jpg,/static/Category_learning/Stimuli/Experimental_stims/bongo/26388718.thl.jpg,/static/Category_learning/Stimuli/Experimental_stims/bongo/26390697.thl.jpg,1.0,bongo,bongo,20.0,20.0,bongo13,bongo3,0.0,20.0,0.0,126.933,0.433,,,,,,
443,,confirmation,,html-keyboard-response,443,627040,0.0-1.0-84.0-0.0-1.0-0.0,0,0,27712,,,,,,82.0,,,,,,,,,,,,,,,,,,,,,,,,,,,,,,,,128.0,1.067,,,,,,
444,,isi,,html-keyboard-response,444,630044,0.0-1.0-84.0-0.0-2.0,0,0,27712,,,,,,,,,,,,,,,,,,,,,,,,,,,,,,,,,,,,,,131.0,3.0,,,,,,
445,,feedback,,html-keyboard-response,445,631052,0.0-1.0-84.0-0.0-3.0-0.0,0,0,27712,,,,,,82.0,,,,,,,,,,,,,,,,,,,,,,,,,,,,,,,,132.0,1.0,,,,,,
446,,iti,,html-keyboard-response,446,632061,0.0-1.0-84.0-0.0-5.0,0,0,27712,,,,,,,,,,,,,,,,,,,,,,,,,,,,,,,,,,,,,,133.0,1.0,,,,,,
447,,choice,,html-keyboard-response,447,632718,0.0-1.0-85.0-0.0-0.0,0,0,27712,,653.0,,,75.0,83.0,86.0,2000.0,1500.0,0.0,2.0,0.0,20-20,,,fan,bowl,20.0,20.0,fan3,bowl1,20.0,0.0,CFT401.jpg,ABOWLS6.jpg,/static/Category_learning/Stimuli/Experimental_stims/fan/CFT401.jpg,/static/Category_learning/Stimuli/Experimental_stims/bowl/ABOWLS6.jpg,0.0,bowl,fan,20.0,20.0,bowl1,fan3,0.0,20.0,0.0,133.653,0.653,,,,,,
448,,confirmation,,html-keyboard-response,448,633570,0.0-1.0-85.0-0.0-1.0-0.0,0,0,27712,,,,,,83.0,,,,,,,,,,,,,,,,,,,,,,,,,,,,,,,,134.5,0.847,,,,,,
449,,isi,,html-keyboard-response,449,635578,0.0-1.0-85.0-0.0-2.0,0,0,27712,,,,,,,,,,,,,,,,,,,,,,,,,,,,,,,,,,,,,,136.5,2.0,,,,,,
450,,feedback,,html-keyboard-response,450,636583,0.0-1.0-85.0-0.0-3.0-0.0,0,0,27712,,,,,,83.0,,,,,,,,,,,,,,,,,,,,,,,,,,,,,,,,137.5,1.0,,,,,,
451,,iti,,html-keyboard-response,451,638091,0.0-1.0-85.0-0.0-5.0,0,0,27712,,,,,,,,,,,,,,,,,,,,,,,,,,,,,,,,,,,,,,139.0,1.5,,,,,,
452,,choice,,html-keyboard-response,452,639156,0.0-1.0-86.0-0.0-0.0,0,0,27712,,1060.0,,,68.0,84.0,87.0,1000.0,1500.0,0.0,2.0,1.0,60-60,1.0,,sofa,sofa,60.0,60.0,sofa4,sofa14,40.0,40.0,ALOVSEA15.jpg,HENRY-Sofa-falg8068-05-72X34X34.jpg,/static/Category_learning/Stimuli/Experimental_stims/sofa/ALOVSEA15.jpg,/static/Category_learning/Stimuli/Experimental_stims/sofa/HENRY-Sofa-falg8068-05-72X34X34.jpg,1.0,sofa,sofa,60.0,60.0,sofa4,sofa14,40.0,40.0,0.0,140.06,1.06,,,,,,
453,,confirmation,,html-keyboard-response,453,639601,0.0-1.0-86.0-0.0-1.0-0.0,0,0,27712,,,,,,84.0,,,,,,,,,,,,,,,,,,,,,,,,,,,,,,,,140.5,0.44,,,,,,
454,,isi,,html-keyboard-response,454,640609,0.0-1.0-86.0-0.0-2.0,0,0,27712,,,,,,,,,,,,,,,,,,,,,,,,,,,,,,,,,,,,,,141.5,1.0,,,,,,
455,,feedback,,html-keyboard-response,455,641615,0.0-1.0-86.0-0.0-3.0-0.0,0,0,27712,,,,,,84.0,,,,,,,,,,,,,,,,,,,,,,,,,,,,,,,,142.5,1.0,,,,,,
456,,iti,,html-keyboard-response,456,643122,0.0-1.0-86.0-0.0-5.0,0,0,27712,,,,,,,,,,,,,,,,,,,,,,,,,,,,,,,,,,,,,,144.0,1.5,,,,,,
457,,choice,,html-keyboard-response,457,643973,0.0-1.0-87.0-0.0-0.0,0,0,27712,,846.0,,,75.0,85.0,88.0,1000.0,1000.0,0.0,2.0,0.0,40-60,,0.0,hammer,power strip,40.0,60.0,hammer7,power strip13,60.0,60.0,hammer01.jpg,01dccef1-d4b2-4d2e-a317-f2ed46b70b4b_400.jpg,/static/Category_learning/Stimuli/Experimental_stims/hammer/hammer01.jpg,/static/Category_learning/Stimuli/Experimental_stims/power strip/01dccef1-d4b2-4d2e-a317-f2ed46b70b4b_400.jpg,0.0,power strip,hammer,60.0,40.0,power strip13,hammer7,60.0,60.0,0.0,144.846,0.846,,,,,,
458,,confirmation,,html-keyboard-response,458,644633,0.0-1.0-87.0-0.0-1.0-0.0,0,0,27712,,,,,,85.0,,,,,,,,,,,,,,,,,,,,,,,,,,,,,,,,145.5,0.654,,,,,,
459,,isi,,html-keyboard-response,459,645638,0.0-1.0-87.0-0.0-2.0,0,0,27712,,,,,,,,,,,,,,,,,,,,,,,,,,,,,,,,,,,,,,146.5,1.0,,,,,,
460,,feedback,,html-keyboard-response,460,646648,0.0-1.0-87.0-0.0-3.0-0.0,0,0,27712,,,,,,85.0,,,,,,,,,,,,,,,,,,,,,,,,,,,,,,,,147.5,1.0,,,,,,
461,,iti,,html-keyboard-response,461,647654,0.0-1.0-87.0-0.0-5.0,0,0,27712,,,,,,,,,,,,,,,,,,,,,,,,,,,,,,,,,,,,,,148.5,1.0,,,,,,
462,,choice,,html-keyboard-response,462,648744,0.0-1.0-88.0-0.0-0.0,0,0,27712,,1085.0,,,75.0,86.0,89.0,1500.0,3500.0,0.0,2.0,0.0,20-60,,0.0,baby carriage,poker card,20.0,60.0,baby carriage10,poker card7,0.0,80.0,peg_perego_uno_blu.jpg,22864416.thl.jpg,/static/Category_learning/Stimuli/Experimental_stims/baby carriage/peg_perego_uno_blu.jpg,/static/Category_learning/Stimuli/Experimental_stims/poker card/22864416.thl.jpg,0.0,poker card,baby carriage,60.0,20.0,poker card7,baby carriage10,80.0,0.0,0.0,149.585,1.085,,,,,,
463,,confirmation,,html-keyboard-response,463,649165,0.0-1.0-88.0-0.0-1.0-0.0,0,0,27712,,,,,,86.0,,,,,,,,,,,,,,,,,,,,,,,,,,,,,,,,150.0,0.415,,,,,,
464,,isi,,html-keyboard-response,464,650672,0.0-1.0-88.0-0.0-2.0,0,0,27712,,,,,,,,,,,,,,,,,,,,,,,,,,,,,,,,,,,,,,151.5,1.5,,,,,,
465,,feedback,,html-keyboard-response,465,651681,0.0-1.0-88.0-0.0-3.0-0.0,0,0,27712,,,,,,86.0,,,,,,,,,,,,,,,,,,,,,,,,,,,,,,,,152.5,1.0,,,,,,
466,,iti,,html-keyboard-response,466,655190,0.0-1.0-88.0-0.0-5.0,0,0,27712,,,,,,,,,,,,,,,,,,,,,,,,,,,,,,,,,,,,,,156.0,3.5,,,,,,
467,,choice,,html-keyboard-response,467,656206,0.0-1.0-89.0-0.0-0.0,0,0,27712,,1010.0,,,68.0,87.0,90.0,1000.0,1000.0,0.0,2.0,0.0,40-80,,1.0,vase,motorcycle,80.0,40.0,vase1,motorcycle9,60.0,40.0,Avase114.jpg,speedbike.jpg,/static/Category_learning/Stimuli/Experimental_stims/vase/Avase114.jpg,/static/Category_learning/Stimuli/Experimental_stims/motorcycle/speedbike.jpg,1.0,vase,motorcycle,80.0,40.0,vase1,motorcycle9,60.0,40.0,0.0,157.01,1.01,,,,,,
468,,confirmation,,html-keyboard-response,468,656704,0.0-1.0-89.0-0.0-1.0-0.0,0,0,27712,,,,,,87.0,,,,,,,,,,,,,,,,,,,,,,,,,,,,,,,,157.5,0.49,,,,,,
469,,isi,,html-keyboard-response,469,657714,0.0-1.0-89.0-0.0-2.0,0,0,27712,,,,,,,,,,,,,,,,,,,,,,,,,,,,,,,,,,,,,,158.5,1.0,,,,,,
470,,feedback,,html-keyboard-response,470,658722,0.0-1.0-89.0-0.0-3.0-0.0,0,0,27712,,,,,,87.0,,,,,,,,,,,,,,,,,,,,,,,,,,,,,,,,159.5,1.0,,,,,,
471,,iti,,html-keyboard-response,471,659728,0.0-1.0-89.0-0.0-5.0,0,0,27712,,,,,,,,,,,,,,,,,,,,,,,,,,,,,,,,,,,,,,160.5,1.0,,,,,,
472,,choice,,html-keyboard-response,472,660296,0.0-1.0-90.0-0.0-0.0,0,0,27712,,563.0,,,75.0,88.0,91.0,3500.0,3500.0,0.0,2.0,0.0,80-80,,,tent,train,80.0,80.0,tent9,train14,60.0,100.0,Red Canyon Tent.jpg,images-products-childcraft-g83501.jpg,/static/Category_learning/Stimuli/Experimental_stims/tent/Red Canyon Tent.jpg,/static/Category_learning/Stimuli/Experimental_stims/train/images-products-childcraft-g83501.jpg,0.0,train,tent,80.0,80.0,train14,tent9,100.0,60.0,0.0,161.063,0.563,,,,,,
473,,confirmation,,html-keyboard-response,473,661238,0.0-1.0-90.0-0.0-1.0-0.0,0,0,27712,,,,,,88.0,,,,,,,,,,,,,,,,,,,,,,,,,,,,,,,,162.0,0.937,,,,,,
474,,isi,,html-keyboard-response,474,664747,0.0-1.0-90.0-0.0-2.0,0,0,27712,,,,,,,,,,,,,,,,,,,,,,,,,,,,,,,,,,,,,,165.5,3.5,,,,,,
475,,feedback,,html-keyboard-response,475,665755,0.0-1.0-90.0-0.0-3.0-0.0,0,0,27712,,,,,,88.0,,,,,,,,,,,,,,,,,,,,,,,,,,,,,,,,166.5,1.0,,,,,,
476,,iti,,html-keyboard-response,476,669264,0.0-1.0-90.0-0.0-5.0,0,0,27712,,,,,,,,,,,,,,,,,,,,,,,,,,,,,,,,,,,,,,170.0,3.5,,,,,,
477,,choice,,html-keyboard-response,477,670577,0.0-1.0-91.0-0.0-0.0,0,0,27712,,1307.0,,,68.0,89.0,92.0,1000.0,1000.0,0.0,2.0,0.0,20-60,,1.0,patio lounge chair,door knob,60.0,20.0,patio lounge chair5,door knob6,40.0,20.0,Steel_Assembling_Lounge.jpg,30fdcb17-b0fd-4f26-8cd8-11adde46fb79_4.jpg,/static/Category_learning/Stimuli/Experimental_stims/patio lounge chair/Steel_Assembling_Lounge.jpg,/static/Category_learning/Stimuli/Experimental_stims/door knob/30fdcb17-b0fd-4f26-8cd8-11adde46fb79_4.jpg,1.0,patio lounge chair,door knob,60.0,20.0,patio lounge chair5,door knob6,40.0,20.0,0.0,171.307,1.307,,,,,,
478,,confirmation,,html-keyboard-response,478,670776,0.0-1.0-91.0-0.0-1.0-0.0,0,0,27712,,,,,,89.0,,,,,,,,,,,,,,,,,,,,,,,,,,,,,,,,171.5,0.193,,,,,,
479,,isi,,html-keyboard-response,479,671783,0.0-1.0-91.0-0.0-2.0,0,0,27712,,,,,,,,,,,,,,,,,,,,,,,,,,,,,,,,,,,,,,172.5,1.0,,,,,,
480,,feedback,,html-keyboard-response,480,672789,0.0-1.0-91.0-0.0-3.0-0.0,0,0,27712,,,,,,89.0,,,,,,,,,,,,,,,,,,,,,,,,,,,,,,,,173.5,1.0,,,,,,
481,,iti,,html-keyboard-response,481,673799,0.0-1.0-91.0-0.0-5.0,0,0,27712,,,,,,,,,,,,,,,,,,,,,,,,,,,,,,,,,,,,,,174.5,1.0,,,,,,
482,,choice,,html-keyboard-response,482,673822,0.0-1.0-92.0-0.0-0.0,0,0,27712,,18.0,,,75.0,90.0,93.0,1000.0,1000.0,0.0,2.0,1.0,80-80,1.0,,stool,stool,80.0,80.0,stool15,stool11,100.0,60.0,ASTOOL.jpg,ASTOOL28.jpg,/static/Category_learning/Stimuli/Experimental_stims/stool/ASTOOL.jpg,/static/Category_learning/Stimuli/Experimental_stims/stool/ASTOOL28.jpg,0.0,stool,stool,80.0,80.0,stool11,stool15,60.0,100.0,0.0,174.518,0.018,,,,,,
483,,confirmation,,html-keyboard-response,483,675309,0.0-1.0-92.0-0.0-1.0-0.0,0,0,27712,,,,,,90.0,,,,,,,,,,,,,,,,,,,,,,,,,,,,,,,,176.0,1.482,,,,,,
484,,isi,,html-keyboard-response,484,676314,0.0-1.0-92.0-0.0-2.0,0,0,27712,,,,,,,,,,,,,,,,,,,,,,,,,,,,,,,,,,,,,,177.0,1.0,,,,,,
