,success,ttype,start_time,trial_type,trial_index,time_elapsed,internal_node_id,warning,missed_checkup,PID,view_history,rt,responses,repeat_instructions,key_press,index,trial_num,isi,iti,is_practice,block,old_trial,pair_type,within_category,high_cat_on_left,left_category,right_category,left_category_value,right_category_value,left_exemplar,right_exemplar,left_exemplar_value,right_exemplar_value,left_img,right_img,left_img_path,right_img_path,left_chosen,chosen_category,unchosen_category,chosen_category_value,unchosen_category_value,chosen_exemplar,unchosen_exemplar,chosen_exemplar_value,unchosen_exemplar_value,no_response,onset,duration,end_practice,total_bonus_tally,category,category_group_value,category_value_response,did_not_enter_response
0,True,full_screen,d06072022hr1136,fullscreen,0,9338,0.0-0.0,0,0,63784,,,,,,,,,,,,,,,,,,,,,,,,,,,,,,,,,,,,,,,,,,,,,
1,,category_learning_instructions,,instructions,1,62100,0.0-1.0-0.0-0.0,0,0,63784,"[{""page_index"":0,""viewing_time"":7537},{""page_index"":1,""viewing_time"":13346},{""page_index"":2,""viewing_time"":8426},{""page_index"":3,""viewing_time"":6049},{""page_index"":4,""viewing_time"":10656},{""page_index"":5,""viewing_time"":3883},{""page_index"":6,""viewing_time"":2862}]",52759.0,,,,,,,,,,,,,,,,,,,,,,,,,,,,,,,,,,,,,,,,,,,
2,,category_learning_comprehension_check,,survey-multi-choice,2,77559,0.0-1.0-0.0-1.0,0,0,63784,,15455.0,"{""Q0"":""True"",""Q1"":""True"",""Q2"":""Stay the same"",""Q3"":""D for left and K for right""}",0.0,,,,,,,,,,,,,,,,,,,,,,,,,,,,,,,,,,,,,,,,,
3,,,,html-keyboard-response,3,79763,0.0-1.0-1.0,0,0,63784,,2200.0,,,68.0,,,,,,,,,,,,,,,,,,,,,,,,,,,,,,,,,,,,,,,,
4,,choice,,html-keyboard-response,4,80712,0.0-1.0-2.0-0.0-0.0,0,0,63784,,946.0,,,68.0,0.0,0.0,1500.0,1000.0,1.0,0.0,0.0,20-80,,0.0,bagel,dumbbell,20.0,80.0,bagel1,dumbbell1,0.0,80.0,bagels_pumpernickel_large.jpg,31B64EN68AL._AA280_.jpg,/static/Category_learning/Stimuli/Practice_stims/bagel/bagels_pumpernickel_large.jpg,/static/Category_learning/Stimuli/Practice_stims/dumbbell/31B64EN68AL._AA280_.jpg,1.0,bagel,dumbbell,20.0,80.0,bagel1,dumbbell1,0.0,80.0,0.0,0.946,0.946,,,,,,
5,,confirmation,,html-keyboard-response,5,81270,0.0-1.0-2.0-0.0-1.0-0.0,0,0,63784,,,,,,0.0,,,,,0.0,,,,,,,,,,,,,,,,,,,,,,,,,,,1.5,0.554,,,,,,
6,,isi,,html-keyboard-response,6,82781,0.0-1.0-2.0-0.0-2.0,0,0,63784,,,,,,0.0,,,,,0.0,,,,,,,,,,,,,,,,,,,,,,,,,,,3.0,1.5,,,,,,
7,,feedback,,html-keyboard-response,7,83795,0.0-1.0-2.0-0.0-3.0-0.0,0,0,63784,,,,,,0.0,,,,,0.0,,,,,,,,,,,,,,,,,,,,,,,,,,,4.0,1.0,,,,,,
8,,iti,,html-keyboard-response,8,84805,0.0-1.0-2.0-0.0-5.0,0,0,63784,,,,,,0.0,,,,,0.0,,,,,,,,,,,,,,,,,,,,,,,,,,,5.0,1.0,,,,,,
9,,choice,,html-keyboard-response,9,86071,0.0-1.0-3.0-0.0-0.0,0,0,63784,,1263.0,,,68.0,1.0,1.0,3000.0,1500.0,1.0,0.0,0.0,20-40,,1.0,calculator,bagel,40.0,20.0,calculator2,bagel2,20.0,20.0,22829064.thl.jpg,bagels_cinnraisin_large.jpg,/static/Category_learning/Stimuli/Practice_stims/calculator/22829064.thl.jpg,/static/Category_learning/Stimuli/Practice_stims/bagel/bagels_cinnraisin_large.jpg,1.0,calculator,bagel,40.0,20.0,calculator2,bagel2,20.0,20.0,0.0,6.263,1.263,,,,,,
10,,confirmation,,html-keyboard-response,10,86316,0.0-1.0-3.0-0.0-1.0-0.0,0,0,63784,,,,,,1.0,,,,,0.0,,,,,,,,,,,,,,,,,,,,,,,,,,,6.5,0.237,,,,,,
11,,isi,,html-keyboard-response,11,89323,0.0-1.0-3.0-0.0-2.0,0,0,63784,,,,,,1.0,,,,,0.0,,,,,,,,,,,,,,,,,,,,,,,,,,,9.5,3.0,,,,,,
12,,feedback,,html-keyboard-response,12,90334,0.0-1.0-3.0-0.0-3.0-0.0,0,0,63784,,,,,,1.0,,,,,0.0,,,,,,,,,,,,,,,,,,,,,,,,,,,10.5,1.0,,,,,,
13,,iti,,html-keyboard-response,13,91843,0.0-1.0-3.0-0.0-5.0,0,0,63784,,,,,,1.0,,,,,0.0,,,,,,,,,,,,,,,,,,,,,,,,,,,12.0,1.5,,,,,,
14,,choice,,html-keyboard-response,14,92928,0.0-1.0-4.0-0.0-0.0,0,0,63784,,1081.0,,,75.0,2.0,2.0,2000.0,3000.0,1.0,0.0,0.0,60-80,,0.0,clock,dumbbell,60.0,80.0,clock2,dumbbell2,60.0,100.0,26373355.thl.jpg,31K8MR6TMBL._SS500_.jpg,/static/Category_learning/Stimuli/Practice_stims/clock/26373355.thl.jpg,/static/Category_learning/Stimuli/Practice_stims/dumbbell/31K8MR6TMBL._SS500_.jpg,0.0,dumbbell,clock,80.0,60.0,dumbbell2,clock2,100.0,60.0,0.0,13.081,1.081,,,,,,
15,,confirmation,,html-keyboard-response,15,93353,0.0-1.0-4.0-0.0-1.0-0.0,0,0,63784,,,,,,2.0,,,,,0.0,,,,,,,,,,,,,,,,,,,,,,,,,,,13.5,0.419,,,,,,
16,,isi,,html-keyboard-response,16,95357,0.0-1.0-4.0-0.0-2.0,0,0,63784,,,,,,2.0,,,,,0.0,,,,,,,,,,,,,,,,,,,,,,,,,,,15.5,2.0,,,,,,
17,,feedback,,html-keyboard-response,17,96369,0.0-1.0-4.0-0.0-3.0-0.0,0,0,63784,,,,,,2.0,,,,,0.0,,,,,,,,,,,,,,,,,,,,,,,,,,,16.5,1.0,,,,,,
18,,iti,,html-keyboard-response,18,99378,0.0-1.0-4.0-0.0-5.0,0,0,63784,,,,,,2.0,,,,,0.0,,,,,,,,,,,,,,,,,,,,,,,,,,,19.5,3.0,,,,,,
19,,choice,,html-keyboard-response,19,100884,0.0-1.0-5.0-0.0-0.0,0,0,63784,,,,,,3.0,3.0,1000.0,2000.0,1.0,0.0,0.0,40-80,,0.0,calculator,clock,40.0,60.0,calculator1,clock1,40.0,40.0,22829184.thl.jpg,Aalarmclock2.jpg,/static/Category_learning/Stimuli/Practice_stims/calculator/22829184.thl.jpg,/static/Category_learning/Stimuli/Practice_stims/clock/Aalarmclock2.jpg,,,,,,,,,,1.0,21.0,1.5,,,,,,
20,,isi,,html-keyboard-response,20,101893,0.0-1.0-5.0-0.0-2.0,0,0,63784,,,,,,3.0,,,,,0.0,,,,,,,,,,,,,,,,,,,,,,,,,,,22.0,1.0,,,,,,
21,,no_response,,html-keyboard-response,21,102905,0.0-1.0-5.0-0.0-4.0-0.0,0,0,63784,,,,,,3.0,,,,,0.0,,,,,,,,,,,,,,,,,,,,,,,,,,,23.0,1.0,,,,,,
22,,iti,,html-keyboard-response,22,104916,0.0-1.0-5.0-0.0-5.0,0,0,63784,,,,,,3.0,,,,,0.0,,,,,,,,,,,,,,,,,,,,,,,,,,,25.0,2.0,,,,,,
23,,choice,,html-keyboard-response,23,105397,0.0-1.0-5.0-0.1-0.1,0,0,63784,,477.0,,,75.0,3.0,3.0,1000.0,2000.0,1.0,0.0,0.0,40-80,,0.0,calculator,clock,40.0,60.0,calculator1,clock1,40.0,40.0,22829184.thl.jpg,Aalarmclock2.jpg,/static/Category_learning/Stimuli/Practice_stims/calculator/22829184.thl.jpg,/static/Category_learning/Stimuli/Practice_stims/clock/Aalarmclock2.jpg,0.0,clock,calculator,60.0,40.0,clock1,calculator1,40.0,40.0,0.0,25.477,0.477,,,,,,
24,,confirmation,,html-keyboard-response,24,106426,0.0-1.0-5.0-0.1-1.1-0.1,0,0,63784,,,,,,3.0,,,,,0.0,,,,,,,,,,,,,,,,,,,,,,,,,,,26.5,1.023,,,,,,
25,,isi,,html-keyboard-response,25,107438,0.0-1.0-5.0-0.1-2.1,0,0,63784,,,,,,3.0,,,,,0.0,,,,,,,,,,,,,,,,,,,,,,,,,,,27.5,1.0,,,,,,
26,,feedback,,html-keyboard-response,26,108446,0.0-1.0-5.0-0.1-3.1-0.1,0,0,63784,,,,,,3.0,,,,,0.0,,,,,,,,,,,,,,,,,,,,,,,,,,,28.5,1.0,,,,,,
27,,iti,,html-keyboard-response,27,110458,0.0-1.0-5.0-0.1-5.1,0,0,63784,,,,,,3.0,,,,,0.0,,,,,,,,,,,,,,,,,,,,,,,,,,,30.5,2.0,,,,,,
28,,choice,,html-keyboard-response,28,111290,0.0-1.0-6.0-0.0-0.0,0,0,63784,,828.0,,,68.0,4.0,4.0,2500.0,2500.0,1.0,0.0,0.0,20-60,,1.0,dumbbell,bagel,80.0,20.0,dumbbell3,bagel3,100.0,40.0,41K7QVRX50L._SS500_.jpg,photo-169.jpg,/static/Category_learning/Stimuli/Practice_stims/dumbbell/41K7QVRX50L._SS500_.jpg,/static/Category_learning/Stimuli/Practice_stims/bagel/photo-169.jpg,1.0,dumbbell,bagel,80.0,20.0,dumbbell3,bagel3,100.0,40.0,0.0,31.328,0.828,1.0,,,,,
29,,confirmation,,html-keyboard-response,29,111984,0.0-1.0-6.0-0.0-1.0-0.0,0,0,63784,,,,,,4.0,,,,,0.0,,,,,,,,,,,,,,,,,,,,,,,,,,,32.0,0.672,,,,,,
30,,isi,,html-keyboard-response,30,114488,0.0-1.0-6.0-0.0-2.0,0,0,63784,,,,,,4.0,,,,,0.0,,,,,,,,,,,,,,,,,,,,,,,,,,,34.5,2.5,,,,,,
31,,feedback,,html-keyboard-response,31,115495,0.0-1.0-6.0-0.0-3.0-0.0,0,0,63784,,,,,,4.0,,,,,0.0,,,,,,,,,,,,,,,,,,,,,,,,,,,35.5,1.0,,,,,,
32,,iti,,html-keyboard-response,32,118015,0.0-1.0-6.0-0.0-5.0,0,0,63784,,,,,,4.0,,,,,0.0,,,,,,,,,,,,,,,,,,,,,,,,,,,38.0,2.5,,,,,,
33,,practice_over,,html-keyboard-response,33,120731,0.0-1.0-6.0-0.0-6.0-0.0,0,0,63784,,2712.0,,,68.0,4.0,,,,,,,,,,,,,,,,,,,,,,,,,,,,,,,,,,,,,,,
34,,start_run,,html-keyboard-response,34,122997,0.0-1.0-6.0-0.0-6.0-1.0,0,0,63784,,2263.0,,,84.0,,,,,,,,,,,,,,,,,,,,,,,,,,,,,,,,,,,,,,,,
35,,choice,,html-keyboard-response,35,123573,0.0-1.0-7.0-0.0-0.0,0,0,63784,,572.0,,,68.0,5.0,5.0,3000.0,2000.0,0.0,1.0,0.0,40-40,,,license plate,hammer,40.0,40.0,license plate13,hammer11,60.0,60.0,usa-rj-9517.jpg,8oz-hammer-copy.jpg,/static/Category_learning/Stimuli/Experimental_stims/license plate/usa-rj-9517.jpg,/static/Category_learning/Stimuli/Experimental_stims/hammer/8oz-hammer-copy.jpg,1.0,license plate,hammer,40.0,40.0,license plate13,hammer11,60.0,60.0,0.0,0.572,0.572,,,,,,
36,,confirmation,,html-keyboard-response,36,124506,0.0-1.0-7.0-0.0-1.0-0.0,0,0,63784,,,,,,5.0,,,,,1.0,,,,,,,,,,,,,,,,,,,,,,,,,,,1.5,0.928,,,,,,
37,,isi,,html-keyboard-response,37,127514,0.0-1.0-7.0-0.0-2.0,0,0,63784,,,,,,5.0,,,,,1.0,,,,,,,,,,,,,,,,,,,,,,,,,,,4.5,3.0,,,,,,
38,,feedback,,html-keyboard-response,38,128523,0.0-1.0-7.0-0.0-3.0-0.0,0,0,63784,,,,,,5.0,,,,,1.0,,,,,,,,,,,,,,,,,,,,,,,,,,,5.5,1.0,,,,,,
39,,iti,,html-keyboard-response,39,130527,0.0-1.0-7.0-0.0-5.0,0,0,63784,,,,,,5.0,,,,,1.0,,,,,,,,,,,,,,,,,,,,,,,,,,,7.5,2.0,,,,,,
40,,choice,,html-keyboard-response,40,130997,0.0-1.0-8.0-0.0-0.0,0,0,63784,,464.0,,,75.0,6.0,6.0,1000.0,1000.0,0.0,1.0,0.0,20-60,,0.0,flashlight,poker card,20.0,60.0,flashlight9,poker card6,40.0,80.0,new06.jpg,22864212.thl.jpg,/static/Category_learning/Stimuli/Experimental_stims/flashlight/new06.jpg,/static/Category_learning/Stimuli/Experimental_stims/poker card/22864212.thl.jpg,0.0,poker card,flashlight,60.0,20.0,poker card6,flashlight9,80.0,40.0,0.0,7.964,0.464,,,,,,
41,,confirmation,,html-keyboard-response,41,132039,0.0-1.0-8.0-0.0-1.0-0.0,0,0,63784,,,,,,6.0,,,,,1.0,,,,,,,,,,,,,,,,,,,,,,,,,,,9.0,1.036,,,,,,
42,,isi,,html-keyboard-response,42,133058,0.0-1.0-8.0-0.0-2.0,0,0,63784,,,,,,6.0,,,,,1.0,,,,,,,,,,,,,,,,,,,,,,,,,,,10.0,1.0,,,,,,
43,,feedback,,html-keyboard-response,43,134068,0.0-1.0-8.0-0.0-3.0-0.0,0,0,63784,,,,,,6.0,,,,,1.0,,,,,,,,,,,,,,,,,,,,,,,,,,,11.0,1.0,,,,,,
44,,iti,,html-keyboard-response,44,135077,0.0-1.0-8.0-0.0-5.0,0,0,63784,,,,,,6.0,,,,,1.0,,,,,,,,,,,,,,,,,,,,,,,,,,,12.0,1.0,,,,,,
45,,choice,,html-keyboard-response,45,135923,0.0-1.0-9.0-0.0-0.0,0,0,63784,,840.0,,,75.0,7.0,7.0,1500.0,3500.0,0.0,1.0,0.0,60-60,,,seashell,nail polish,60.0,60.0,seashell7,nail polish6,60.0,60.0,seashell34.jpg,127_t.jpg,/static/Category_learning/Stimuli/Experimental_stims/seashell/seashell34.jpg,/static/Category_learning/Stimuli/Experimental_stims/nail polish/127_t.jpg,0.0,nail polish,seashell,60.0,60.0,nail polish6,seashell7,60.0,60.0,0.0,12.84,0.84,,,,,,
46,,confirmation,,html-keyboard-response,46,136595,0.0-1.0-9.0-0.0-1.0-0.0,0,0,63784,,,,,,7.0,,,,,1.0,,,,,,,,,,,,,,,,,,,,,,,,,,,13.5,0.66,,,,,,
47,,isi,,html-keyboard-response,47,138106,0.0-1.0-9.0-0.0-2.0,0,0,63784,,,,,,7.0,,,,,1.0,,,,,,,,,,,,,,,,,,,,,,,,,,,15.0,1.5,,,,,,
48,,feedback,,html-keyboard-response,48,139125,0.0-1.0-9.0-0.0-3.0-0.0,0,0,63784,,,,,,7.0,,,,,1.0,,,,,,,,,,,,,,,,,,,,,,,,,,,16.0,1.0,,,,,,
49,,iti,,html-keyboard-response,49,142633,0.0-1.0-9.0-0.0-5.0,0,0,63784,,,,,,7.0,,,,,1.0,,,,,,,,,,,,,,,,,,,,,,,,,,,19.5,3.5,,,,,,
50,,choice,,html-keyboard-response,50,143324,0.0-1.0-10.0-0.0-0.0,0,0,63784,,687.0,,,75.0,8.0,8.0,1500.0,1000.0,0.0,1.0,0.0,40-80,,1.0,telescope,hat,80.0,40.0,telescope3,hat5,100.0,60.0,41V67SB5NJL._SS500_.jpg,AREDHAT4.jpg,/static/Category_learning/Stimuli/Experimental_stims/telescope/41V67SB5NJL._SS500_.jpg,/static/Category_learning/Stimuli/Experimental_stims/hat/AREDHAT4.jpg,0.0,hat,telescope,40.0,80.0,hat5,telescope3,60.0,100.0,0.0,20.187,0.687,,,,,,
51,,confirmation,,html-keyboard-response,51,144145,0.0-1.0-10.0-0.0-1.0-0.0,0,0,63784,,,,,,8.0,,,,,1.0,,,,,,,,,,,,,,,,,,,,,,,,,,,21.0,0.813,,,,,,
52,,isi,,html-keyboard-response,52,145649,0.0-1.0-10.0-0.0-2.0,0,0,63784,,,,,,8.0,,,,,1.0,,,,,,,,,,,,,,,,,,,,,,,,,,,22.5,1.5,,,,,,
53,,feedback,,html-keyboard-response,53,146655,0.0-1.0-10.0-0.0-3.0-0.0,0,0,63784,,,,,,8.0,,,,,1.0,,,,,,,,,,,,,,,,,,,,,,,,,,,23.5,1.0,,,,,,
54,,iti,,html-keyboard-response,54,147662,0.0-1.0-10.0-0.0-5.0,0,0,63784,,,,,,8.0,,,,,1.0,,,,,,,,,,,,,,,,,,,,,,,,,,,24.5,1.0,,,,,,
55,,choice,,html-keyboard-response,55,148450,0.0-1.0-11.0-0.0-0.0,0,0,63784,,785.0,,,75.0,9.0,9.0,2000.0,3500.0,0.0,1.0,0.0,40-60,,1.0,power strip,makeup compact,60.0,40.0,power strip12,makeup compact1,80.0,60.0,41CXESEH1TL._AA262_.jpg,P190250_hero.jpg,/static/Category_learning/Stimuli/Experimental_stims/power strip/41CXESEH1TL._AA262_.jpg,/static/Category_learning/Stimuli/Experimental_stims/makeup compact/P190250_hero.jpg,0.0,makeup compact,power strip,40.0,60.0,makeup compact1,power strip12,60.0,80.0,0.0,25.285,0.785,,,,,,
56,,confirmation,,html-keyboard-response,56,149176,0.0-1.0-11.0-0.0-1.0-0.0,0,0,63784,,,,,,9.0,,,,,1.0,,,,,,,,,,,,,,,,,,,,,,,,,,,26.0,0.715,,,,,,
57,,isi,,html-keyboard-response,57,151182,0.0-1.0-11.0-0.0-2.0,0,0,63784,,,,,,9.0,,,,,1.0,,,,,,,,,,,,,,,,,,,,,,,,,,,28.0,2.0,,,,,,
58,,feedback,,html-keyboard-response,58,152190,0.0-1.0-11.0-0.0-3.0-0.0,0,0,63784,,,,,,9.0,,,,,1.0,,,,,,,,,,,,,,,,,,,,,,,,,,,29.0,1.0,,,,,,
59,,iti,,html-keyboard-response,59,155700,0.0-1.0-11.0-0.0-5.0,0,0,63784,,,,,,9.0,,,,,1.0,,,,,,,,,,,,,,,,,,,,,,,,,,,32.5,3.5,,,,,,
60,,choice,,html-keyboard-response,60,156307,0.0-1.0-12.0-0.0-0.0,0,0,63784,,602.0,,,75.0,10.0,10.0,1500.0,3500.0,0.0,1.0,1.0,40-40,0.0,,license plate,hat,40.0,40.0,license plate13,hat5,60.0,60.0,usa-rj-9517.jpg,AREDHAT4.jpg,/static/Category_learning/Stimuli/Experimental_stims/license plate/usa-rj-9517.jpg,/static/Category_learning/Stimuli/Experimental_stims/hat/AREDHAT4.jpg,0.0,hat,license plate,40.0,40.0,hat5,license plate13,60.0,60.0,0.0,33.102,0.602,,,,,,
61,,confirmation,,html-keyboard-response,61,157216,0.0-1.0-12.0-0.0-1.0-0.0,0,0,63784,,,,,,10.0,,,,,1.0,,,,,,,,,,,,,,,,,,,,,,,,,,,34.0,0.898,,,,,,
62,,isi,,html-keyboard-response,62,158720,0.0-1.0-12.0-0.0-2.0,0,0,63784,,,,,,10.0,,,,,1.0,,,,,,,,,,,,,,,,,,,,,,,,,,,35.5,1.5,,,,,,
63,,feedback,,html-keyboard-response,63,159733,0.0-1.0-12.0-0.0-3.0-0.0,0,0,63784,,,,,,10.0,,,,,1.0,,,,,,,,,,,,,,,,,,,,,,,,,,,36.5,1.0,,,,,,
64,,iti,,html-keyboard-response,64,163239,0.0-1.0-12.0-0.0-5.0,0,0,63784,,,,,,10.0,,,,,1.0,,,,,,,,,,,,,,,,,,,,,,,,,,,40.0,3.5,,,,,,
65,,choice,,html-keyboard-response,65,163935,0.0-1.0-13.0-0.0-0.0,0,0,63784,,693.0,,,68.0,11.0,11.0,1500.0,1000.0,0.0,1.0,1.0,40-60,0.0,,poker card,makeup compact,60.0,40.0,poker card6,makeup compact1,80.0,60.0,22864212.thl.jpg,P190250_hero.jpg,/static/Category_learning/Stimuli/Experimental_stims/poker card/22864212.thl.jpg,/static/Category_learning/Stimuli/Experimental_stims/makeup compact/P190250_hero.jpg,1.0,poker card,makeup compact,60.0,40.0,poker card6,makeup compact1,80.0,60.0,0.0,40.693,0.693,,,,,,
66,,confirmation,,html-keyboard-response,66,164762,0.0-1.0-13.0-0.0-1.0-0.0,0,0,63784,,,,,,11.0,,,,,1.0,,,,,,,,,,,,,,,,,,,,,,,,,,,41.5,0.807,,,,,,
67,,isi,,html-keyboard-response,67,166268,0.0-1.0-13.0-0.0-2.0,0,0,63784,,,,,,11.0,,,,,1.0,,,,,,,,,,,,,,,,,,,,,,,,,,,43.0,1.5,,,,,,
68,,feedback,,html-keyboard-response,68,167276,0.0-1.0-13.0-0.0-3.0-0.0,0,0,63784,,,,,,11.0,,,,,1.0,,,,,,,,,,,,,,,,,,,,,,,,,,,44.0,1.0,,,,,,
69,,iti,,html-keyboard-response,69,168289,0.0-1.0-13.0-0.0-5.0,0,0,63784,,,,,,11.0,,,,,1.0,,,,,,,,,,,,,,,,,,,,,,,,,,,45.0,1.0,,,,,,
70,,choice,,html-keyboard-response,70,168952,0.0-1.0-14.0-0.0-0.0,0,0,63784,,657.0,,,75.0,12.0,12.0,2000.0,1000.0,0.0,1.0,0.0,40-60,,0.0,key chain,sofa,40.0,60.0,key chain13,sofa6,60.0,80.0,Fancy_Liquid_Column_Shape_Key_Ring_with_Floater.jpg,wilkie-sofa-250h-new-cd.jpg,/static/Category_learning/Stimuli/Experimental_stims/key chain/Fancy_Liquid_Column_Shape_Key_Ring_with_Floater.jpg,/static/Category_learning/Stimuli/Experimental_stims/sofa/wilkie-sofa-250h-new-cd.jpg,0.0,sofa,key chain,60.0,40.0,sofa6,key chain13,80.0,60.0,0.0,45.657,0.657,,,,,,
71,,confirmation,,html-keyboard-response,71,169806,0.0-1.0-14.0-0.0-1.0-0.0,0,0,63784,,,,,,12.0,,,,,1.0,,,,,,,,,,,,,,,,,,,,,,,,,,,46.5,0.843,,,,,,
72,,isi,,html-keyboard-response,72,171825,0.0-1.0-14.0-0.0-2.0,0,0,63784,,,,,,12.0,,,,,1.0,,,,,,,,,,,,,,,,,,,,,,,,,,,48.5,2.0,,,,,,
73,,feedback,,html-keyboard-response,73,172835,0.0-1.0-14.0-0.0-3.0-0.0,0,0,63784,,,,,,12.0,,,,,1.0,,,,,,,,,,,,,,,,,,,,,,,,,,,49.5,1.0,,,,,,
74,,iti,,html-keyboard-response,74,173842,0.0-1.0-14.0-0.0-5.0,0,0,63784,,,,,,12.0,,,,,1.0,,,,,,,,,,,,,,,,,,,,,,,,,,,50.5,1.0,,,,,,
75,,choice,,html-keyboard-response,75,174383,0.0-1.0-15.0-0.0-0.0,0,0,63784,,537.0,,,75.0,13.0,13.0,1000.0,1000.0,0.0,1.0,0.0,40-80,,1.0,stool,motorcycle,80.0,40.0,stool7,motorcycle7,80.0,20.0,ASTOOL25.jpg,MotoSmall.jpg,/static/Category_learning/Stimuli/Experimental_stims/stool/ASTOOL25.jpg,/static/Category_learning/Stimuli/Experimental_stims/motorcycle/MotoSmall.jpg,0.0,motorcycle,stool,40.0,80.0,motorcycle7,stool7,20.0,80.0,0.0,51.037,0.537,,,,,,
76,,confirmation,,html-keyboard-response,76,175350,0.0-1.0-15.0-0.0-1.0-0.0,0,0,63784,,,,,,13.0,,,,,1.0,,,,,,,,,,,,,,,,,,,,,,,,,,,52.0,0.963,,,,,,
77,,isi,,html-keyboard-response,77,176357,0.0-1.0-15.0-0.0-2.0,0,0,63784,,,,,,13.0,,,,,1.0,,,,,,,,,,,,,,,,,,,,,,,,,,,53.0,1.0,,,,,,
78,,feedback,,html-keyboard-response,78,177366,0.0-1.0-15.0-0.0-3.0-0.0,0,0,63784,,,,,,13.0,,,,,1.0,,,,,,,,,,,,,,,,,,,,,,,,,,,54.0,1.0,,,,,,
79,,iti,,html-keyboard-response,79,178373,0.0-1.0-15.0-0.0-5.0,0,0,63784,,,,,,13.0,,,,,1.0,,,,,,,,,,,,,,,,,,,,,,,,,,,55.0,1.0,,,,,,
80,,choice,,html-keyboard-response,80,179022,0.0-1.0-16.0-0.0-0.0,0,0,63784,,647.0,,,75.0,14.0,14.0,1500.0,1000.0,0.0,1.0,0.0,40-80,,1.0,tent,hat,80.0,40.0,tent1,hat13,100.0,20.0,Atent8.jpg,Ahatwithfeath.jpg,/static/Category_learning/Stimuli/Experimental_stims/tent/Atent8.jpg,/static/Category_learning/Stimuli/Experimental_stims/hat/Ahatwithfeath.jpg,0.0,hat,tent,40.0,80.0,hat13,tent1,20.0,100.0,0.0,55.647,0.647,,,,,,
81,,confirmation,,html-keyboard-response,81,179879,0.0-1.0-16.0-0.0-1.0-0.0,0,0,63784,,,,,,14.0,,,,,1.0,,,,,,,,,,,,,,,,,,,,,,,,,,,56.5,0.853,,,,,,
82,,isi,,html-keyboard-response,82,181386,0.0-1.0-16.0-0.0-2.0,0,0,63784,,,,,,14.0,,,,,1.0,,,,,,,,,,,,,,,,,,,,,,,,,,,58.0,1.5,,,,,,
83,,feedback,,html-keyboard-response,83,182399,0.0-1.0-16.0-0.0-3.0-0.0,0,0,63784,,,,,,14.0,,,,,1.0,,,,,,,,,,,,,,,,,,,,,,,,,,,59.0,1.0,,,,,,
84,,iti,,html-keyboard-response,84,183408,0.0-1.0-16.0-0.0-5.0,0,0,63784,,,,,,14.0,,,,,1.0,,,,,,,,,,,,,,,,,,,,,,,,,,,60.0,1.0,,,,,,
85,,choice,,html-keyboard-response,85,184022,0.0-1.0-17.0-0.0-0.0,0,0,63784,,611.0,,,68.0,15.0,15.0,2000.0,1000.0,0.0,1.0,0.0,60-80,,0.0,necklace,watch,60.0,80.0,necklace3,watch13,60.0,80.0,26388201.thl.jpg,RS_3104_lrg.jpg,/static/Category_learning/Stimuli/Experimental_stims/necklace/26388201.thl.jpg,/static/Category_learning/Stimuli/Experimental_stims/watch/RS_3104_lrg.jpg,1.0,necklace,watch,60.0,80.0,necklace3,watch13,60.0,80.0,0.0,60.611,0.611,,,,,,
86,,confirmation,,html-keyboard-response,86,184915,0.0-1.0-17.0-0.0-1.0-0.0,0,0,63784,,,,,,15.0,,,,,1.0,,,,,,,,,,,,,,,,,,,,,,,,,,,61.5,0.889,,,,,,
87,,isi,,html-keyboard-response,87,186920,0.0-1.0-17.0-0.0-2.0,0,0,63784,,,,,,15.0,,,,,1.0,,,,,,,,,,,,,,,,,,,,,,,,,,,63.5,2.0,,,,,,
88,,feedback,,html-keyboard-response,88,187930,0.0-1.0-17.0-0.0-3.0-0.0,0,0,63784,,,,,,15.0,,,,,1.0,,,,,,,,,,,,,,,,,,,,,,,,,,,64.5,1.0,,,,,,
89,,iti,,html-keyboard-response,89,188941,0.0-1.0-17.0-0.0-5.0,0,0,63784,,,,,,15.0,,,,,1.0,,,,,,,,,,,,,,,,,,,,,,,,,,,65.5,1.0,,,,,,
90,,choice,,html-keyboard-response,90,189549,0.0-1.0-18.0-0.0-0.0,0,0,63784,,605.0,,,68.0,16.0,16.0,3500.0,1000.0,0.0,1.0,1.0,60-60,0.0,,nail polish,necklace,60.0,60.0,nail polish6,necklace3,60.0,60.0,127_t.jpg,26388201.thl.jpg,/static/Category_learning/Stimuli/Experimental_stims/nail polish/127_t.jpg,/static/Category_learning/Stimuli/Experimental_stims/necklace/26388201.thl.jpg,1.0,nail polish,necklace,60.0,60.0,nail polish6,necklace3,60.0,60.0,0.0,66.105,0.605,,,,,,
91,,confirmation,,html-keyboard-response,91,190454,0.0-1.0-18.0-0.0-1.0-0.0,0,0,63784,,,,,,16.0,,,,,1.0,,,,,,,,,,,,,,,,,,,,,,,,,,,67.0,0.895,,,,,,
92,,isi,,html-keyboard-response,92,193967,0.0-1.0-18.0-0.0-2.0,0,0,63784,,,,,,16.0,,,,,1.0,,,,,,,,,,,,,,,,,,,,,,,,,,,70.5,3.5,,,,,,
93,,feedback,,html-keyboard-response,93,194980,0.0-1.0-18.0-0.0-3.0-0.0,0,0,63784,,,,,,16.0,,,,,1.0,,,,,,,,,,,,,,,,,,,,,,,,,,,71.5,1.0,,,,,,
94,,iti,,html-keyboard-response,94,195999,0.0-1.0-18.0-0.0-5.0,0,0,63784,,,,,,16.0,,,,,1.0,,,,,,,,,,,,,,,,,,,,,,,,,,,72.5,1.0,,,,,,
95,,choice,,html-keyboard-response,95,196711,0.0-1.0-19.0-0.0-0.0,0,0,63784,,709.0,,,68.0,17.0,17.0,3500.0,2000.0,0.0,1.0,0.0,20-20,,,flashlight,bowl,20.0,20.0,flashlight5,bowl12,0.0,20.0,Streamlight-71001-Jr-Flashlight-W-batteries-black-B00018A3CG-L.jpg,Abowl52.jpg,/static/Category_learning/Stimuli/Experimental_stims/flashlight/Streamlight-71001-Jr-Flashlight-W-batteries-black-B00018A3CG-L.jpg,/static/Category_learning/Stimuli/Experimental_stims/bowl/Abowl52.jpg,1.0,flashlight,bowl,20.0,20.0,flashlight5,bowl12,0.0,20.0,0.0,73.209,0.709,,,,,,
96,,confirmation,,html-keyboard-response,96,197507,0.0-1.0-19.0-0.0-1.0-0.0,0,0,63784,,,,,,17.0,,,,,1.0,,,,,,,,,,,,,,,,,,,,,,,,,,,74.0,0.791,,,,,,
97,,isi,,html-keyboard-response,97,201013,0.0-1.0-19.0-0.0-2.0,0,0,63784,,,,,,17.0,,,,,1.0,,,,,,,,,,,,,,,,,,,,,,,,,,,77.5,3.5,,,,,,
98,,feedback,,html-keyboard-response,98,202026,0.0-1.0-19.0-0.0-3.0-0.0,0,0,63784,,,,,,17.0,,,,,1.0,,,,,,,,,,,,,,,,,,,,,,,,,,,78.5,1.0,,,,,,
99,,iti,,html-keyboard-response,99,204040,0.0-1.0-19.0-0.0-5.0,0,0,63784,,,,,,17.0,,,,,1.0,,,,,,,,,,,,,,,,,,,,,,,,,,,80.5,2.0,,,,,,
100,,choice,,html-keyboard-response,100,204653,0.0-1.0-20.0-0.0-0.0,0,0,63784,,609.0,,,75.0,18.0,18.0,1500.0,1500.0,0.0,1.0,1.0,40-60,0.0,,motorcycle,sofa,40.0,60.0,motorcycle7,sofa6,20.0,80.0,MotoSmall.jpg,wilkie-sofa-250h-new-cd.jpg,/static/Category_learning/Stimuli/Experimental_stims/motorcycle/MotoSmall.jpg,/static/Category_learning/Stimuli/Experimental_stims/sofa/wilkie-sofa-250h-new-cd.jpg,0.0,sofa,motorcycle,60.0,40.0,sofa6,motorcycle7,80.0,20.0,0.0,81.109,0.609,,,,,,
101,,confirmation,,html-keyboard-response,101,205548,0.0-1.0-20.0-0.0-1.0-0.0,0,0,63784,,,,,,18.0,,,,,1.0,,,,,,,,,,,,,,,,,,,,,,,,,,,82.0,0.891,,,,,,
102,,isi,,html-keyboard-response,102,207055,0.0-1.0-20.0-0.0-2.0,0,0,63784,,,,,,18.0,,,,,1.0,,,,,,,,,,,,,,,,,,,,,,,,,,,83.5,1.5,,,,,,
103,,feedback,,html-keyboard-response,103,208067,0.0-1.0-20.0-0.0-3.0-0.0,0,0,63784,,,,,,18.0,,,,,1.0,,,,,,,,,,,,,,,,,,,,,,,,,,,84.5,1.0,,,,,,
104,,iti,,html-keyboard-response,104,209577,0.0-1.0-20.0-0.0-5.0,0,0,63784,,,,,,18.0,,,,,1.0,,,,,,,,,,,,,,,,,,,,,,,,,,,86.0,1.5,,,,,,
105,,choice,,html-keyboard-response,105,210276,0.0-1.0-21.0-0.0-0.0,0,0,63784,,696.0,,,75.0,19.0,19.0,1000.0,2000.0,0.0,1.0,0.0,40-40,,,frame,license plate,40.0,40.0,frame8,license plate14,60.0,40.0,AFRAME154.jpg,fl-hel-bel.jpg,/static/Category_learning/Stimuli/Experimental_stims/frame/AFRAME154.jpg,/static/Category_learning/Stimuli/Experimental_stims/license plate/fl-hel-bel.jpg,0.0,license plate,frame,40.0,40.0,license plate14,frame8,40.0,60.0,0.0,86.696,0.696,,,,,,
106,,confirmation,,html-keyboard-response,106,211090,0.0-1.0-21.0-0.0-1.0-0.0,0,0,63784,,,,,,19.0,,,,,1.0,,,,,,,,,,,,,,,,,,,,,,,,,,,87.5,0.804,,,,,,
107,,isi,,html-keyboard-response,107,212108,0.0-1.0-21.0-0.0-2.0,0,0,63784,,,,,,19.0,,,,,1.0,,,,,,,,,,,,,,,,,,,,,,,,,,,88.5,1.0,,,,,,
108,,feedback,,html-keyboard-response,108,213119,0.0-1.0-21.0-0.0-3.0-0.0,0,0,63784,,,,,,19.0,,,,,1.0,,,,,,,,,,,,,,,,,,,,,,,,,,,89.5,1.0,,,,,,
109,,iti,,html-keyboard-response,109,215131,0.0-1.0-21.0-0.0-5.0,0,0,63784,,,,,,19.0,,,,,1.0,,,,,,,,,,,,,,,,,,,,,,,,,,,91.5,2.0,,,,,,
110,,choice,,html-keyboard-response,110,215764,0.0-1.0-22.0-0.0-0.0,0,0,63784,,627.0,,,75.0,20.0,20.0,1000.0,1000.0,0.0,1.0,0.0,20-80,,1.0,vase,desk,80.0,20.0,vase3,desk14,80.0,0.0,vase-006af-1.jpg,26419960.thl.jpg,/static/Category_learning/Stimuli/Experimental_stims/vase/vase-006af-1.jpg,/static/Category_learning/Stimuli/Experimental_stims/desk/26419960.thl.jpg,0.0,desk,vase,20.0,80.0,desk14,vase3,0.0,80.0,0.0,92.127,0.627,,,,,,
111,,confirmation,,html-keyboard-response,111,216647,0.0-1.0-22.0-0.0-1.0-0.0,0,0,63784,,,,,,20.0,,,,,1.0,,,,,,,,,,,,,,,,,,,,,,,,,,,93.0,0.873,,,,,,
112,,isi,,html-keyboard-response,112,217658,0.0-1.0-22.0-0.0-2.0,0,0,63784,,,,,,20.0,,,,,1.0,,,,,,,,,,,,,,,,,,,,,,,,,,,94.0,1.0,,,,,,
113,,feedback,,html-keyboard-response,113,218673,0.0-1.0-22.0-0.0-3.0-0.0,0,0,63784,,,,,,20.0,,,,,1.0,,,,,,,,,,,,,,,,,,,,,,,,,,,95.0,1.0,,,,,,
114,,iti,,html-keyboard-response,114,219679,0.0-1.0-22.0-0.0-5.0,0,0,63784,,,,,,20.0,,,,,1.0,,,,,,,,,,,,,,,,,,,,,,,,,,,96.0,1.0,,,,,,
115,,choice,,html-keyboard-response,115,220436,0.0-1.0-23.0-0.0-0.0,0,0,63784,,752.0,,,68.0,21.0,21.0,1500.0,2000.0,0.0,1.0,0.0,40-60,,1.0,power strip,frame,60.0,40.0,power strip5,frame1,40.0,20.0,93e4a283-bcd6-4ad1-8add-339658cda0fc_400.jpg,AFRAME127.jpg,/static/Category_learning/Stimuli/Experimental_stims/power strip/93e4a283-bcd6-4ad1-8add-339658cda0fc_400.jpg,/static/Category_learning/Stimuli/Experimental_stims/frame/AFRAME127.jpg,1.0,power strip,frame,60.0,40.0,power strip5,frame1,40.0,20.0,0.0,96.752,0.752,,,,,,
116,,confirmation,,html-keyboard-response,116,221198,0.0-1.0-23.0-0.0-1.0-0.0,0,0,63784,,,,,,21.0,,,,,1.0,,,,,,,,,,,,,,,,,,,,,,,,,,,97.5,0.748,,,,,,
117,,isi,,html-keyboard-response,117,222703,0.0-1.0-23.0-0.0-2.0,0,0,63784,,,,,,21.0,,,,,1.0,,,,,,,,,,,,,,,,,,,,,,,,,,,99.0,1.5,,,,,,
118,,feedback,,html-keyboard-response,118,223710,0.0-1.0-23.0-0.0-3.0-0.0,0,0,63784,,,,,,21.0,,,,,1.0,,,,,,,,,,,,,,,,,,,,,,,,,,,100.0,1.0,,,,,,
119,,iti,,html-keyboard-response,119,225717,0.0-1.0-23.0-0.0-5.0,0,0,63784,,,,,,21.0,,,,,1.0,,,,,,,,,,,,,,,,,,,,,,,,,,,102.0,2.0,,,,,,
120,,choice,,html-keyboard-response,120,226672,0.0-1.0-24.0-0.0-0.0,0,0,63784,,950.0,,,75.0,22.0,22.0,2000.0,1000.0,0.0,1.0,1.0,20-60,0.0,,flashlight,power strip,20.0,60.0,flashlight5,power strip5,0.0,40.0,Streamlight-71001-Jr-Flashlight-W-batteries-black-B00018A3CG-L.jpg,93e4a283-bcd6-4ad1-8add-339658cda0fc_400.jpg,/static/Category_learning/Stimuli/Experimental_stims/flashlight/Streamlight-71001-Jr-Flashlight-W-batteries-black-B00018A3CG-L.jpg,/static/Category_learning/Stimuli/Experimental_stims/power strip/93e4a283-bcd6-4ad1-8add-339658cda0fc_400.jpg,0.0,power strip,flashlight,60.0,20.0,power strip5,flashlight5,40.0,0.0,0.0,102.95,0.95,,,,,,
121,,confirmation,,html-keyboard-response,121,227233,0.0-1.0-24.0-0.0-1.0-0.0,0,0,63784,,,,,,22.0,,,,,1.0,,,,,,,,,,,,,,,,,,,,,,,,,,,103.5,0.55,,,,,,
122,,isi,,html-keyboard-response,122,229242,0.0-1.0-24.0-0.0-2.0,0,0,63784,,,,,,22.0,,,,,1.0,,,,,,,,,,,,,,,,,,,,,,,,,,,105.5,2.0,,,,,,
123,,feedback,,html-keyboard-response,123,230247,0.0-1.0-24.0-0.0-3.0-0.0,0,0,63784,,,,,,22.0,,,,,1.0,,,,,,,,,,,,,,,,,,,,,,,,,,,106.5,1.0,,,,,,
124,,iti,,html-keyboard-response,124,231254,0.0-1.0-24.0-0.0-5.0,0,0,63784,,,,,,22.0,,,,,1.0,,,,,,,,,,,,,,,,,,,,,,,,,,,107.5,1.0,,,,,,
125,,choice,,html-keyboard-response,125,231870,0.0-1.0-25.0-0.0-0.0,0,0,63784,,612.0,,,68.0,23.0,23.0,1000.0,1000.0,0.0,1.0,0.0,40-60,,0.0,lipstick,small table,40.0,60.0,lipstick7,small table5,60.0,80.0,P101401_hero.jpg,Atable145.jpg,/static/Category_learning/Stimuli/Experimental_stims/lipstick/P101401_hero.jpg,/static/Category_learning/Stimuli/Experimental_stims/small table/Atable145.jpg,1.0,lipstick,small table,40.0,60.0,lipstick7,small table5,60.0,80.0,0.0,108.112,0.612,,,,,,
126,,confirmation,,html-keyboard-response,126,232767,0.0-1.0-25.0-0.0-1.0-0.0,0,0,63784,,,,,,23.0,,,,,1.0,,,,,,,,,,,,,,,,,,,,,,,,,,,109.0,0.888,,,,,,
127,,isi,,html-keyboard-response,127,233776,0.0-1.0-25.0-0.0-2.0,0,0,63784,,,,,,23.0,,,,,1.0,,,,,,,,,,,,,,,,,,,,,,,,,,,110.0,1.0,,,,,,
128,,feedback,,html-keyboard-response,128,234786,0.0-1.0-25.0-0.0-3.0-0.0,0,0,63784,,,,,,23.0,,,,,1.0,,,,,,,,,,,,,,,,,,,,,,,,,,,111.0,1.0,,,,,,
129,,iti,,html-keyboard-response,129,235792,0.0-1.0-25.0-0.0-5.0,0,0,63784,,,,,,23.0,,,,,1.0,,,,,,,,,,,,,,,,,,,,,,,,,,,112.0,1.0,,,,,,
130,,choice,,html-keyboard-response,130,236871,0.0-1.0-26.0-0.0-0.0,0,0,63784,,1076.0,,,75.0,24.0,24.0,3000.0,1500.0,0.0,1.0,0.0,20-80,,1.0,yarn,bowl,80.0,20.0,yarn4,bowl6,60.0,20.0,amethyst dreaming boho hy sml.jpg,Abowl59.jpg,/static/Category_learning/Stimuli/Experimental_stims/yarn/amethyst dreaming boho hy sml.jpg,/static/Category_learning/Stimuli/Experimental_stims/bowl/Abowl59.jpg,0.0,bowl,yarn,20.0,80.0,bowl6,yarn4,20.0,60.0,0.0,113.076,1.076,,,,,,
131,,confirmation,,html-keyboard-response,131,237305,0.0-1.0-26.0-0.0-1.0-0.0,0,0,63784,,,,,,24.0,,,,,1.0,,,,,,,,,,,,,,,,,,,,,,,,,,,113.5,0.424,,,,,,
132,,isi,,html-keyboard-response,132,240323,0.0-1.0-26.0-0.0-2.0,0,0,63784,,,,,,24.0,,,,,1.0,,,,,,,,,,,,,,,,,,,,,,,,,,,116.5,3.0,,,,,,
133,,feedback,,html-keyboard-response,133,241329,0.0-1.0-26.0-0.0-3.0-0.0,0,0,63784,,,,,,24.0,,,,,1.0,,,,,,,,,,,,,,,,,,,,,,,,,,,117.5,1.0,,,,,,
134,,iti,,html-keyboard-response,134,242833,0.0-1.0-26.0-0.0-5.0,0,0,63784,,,,,,24.0,,,,,1.0,,,,,,,,,,,,,,,,,,,,,,,,,,,119.0,1.5,,,,,,
135,,choice,,html-keyboard-response,135,243778,0.0-1.0-27.0-0.0-0.0,0,0,63784,,940.0,,,75.0,25.0,25.0,1000.0,2000.0,0.0,1.0,0.0,80-80,,,watch,trumpet,80.0,80.0,watch10,trumpet9,100.0,80.0,HEU0102124_zoom.jpg,trumpet3.jpg,/static/Category_learning/Stimuli/Experimental_stims/watch/HEU0102124_zoom.jpg,/static/Category_learning/Stimuli/Experimental_stims/trumpet/trumpet3.jpg,0.0,trumpet,watch,80.0,80.0,trumpet9,watch10,80.0,100.0,0.0,119.94,0.94,,,,,,
136,,confirmation,,html-keyboard-response,136,244346,0.0-1.0-27.0-0.0-1.0-0.0,0,0,63784,,,,,,25.0,,,,,1.0,,,,,,,,,,,,,,,,,,,,,,,,,,,120.5,0.56,,,,,,
137,,isi,,html-keyboard-response,137,245356,0.0-1.0-27.0-0.0-2.0,0,0,63784,,,,,,25.0,,,,,1.0,,,,,,,,,,,,,,,,,,,,,,,,,,,121.5,1.0,,,,,,
138,,feedback,,html-keyboard-response,138,246365,0.0-1.0-27.0-0.0-3.0-0.0,0,0,63784,,,,,,25.0,,,,,1.0,,,,,,,,,,,,,,,,,,,,,,,,,,,122.5,1.0,,,,,,
139,,iti,,html-keyboard-response,139,248369,0.0-1.0-27.0-0.0-5.0,0,0,63784,,,,,,25.0,,,,,1.0,,,,,,,,,,,,,,,,,,,,,,,,,,,124.5,2.0,,,,,,
140,,choice,,html-keyboard-response,140,249142,0.0-1.0-28.0-0.0-0.0,0,0,63784,,771.0,,,68.0,26.0,26.0,2000.0,1000.0,0.0,1.0,1.0,20-40,0.0,,hat,desk,40.0,20.0,hat13,desk14,20.0,0.0,Ahatwithfeath.jpg,26419960.thl.jpg,/static/Category_learning/Stimuli/Experimental_stims/hat/Ahatwithfeath.jpg,/static/Category_learning/Stimuli/Experimental_stims/desk/26419960.thl.jpg,1.0,hat,desk,40.0,20.0,hat13,desk14,20.0,0.0,0.0,125.271,0.771,,,,,,
141,,confirmation,,html-keyboard-response,141,249878,0.0-1.0-28.0-0.0-1.0-0.0,0,0,63784,,,,,,26.0,,,,,1.0,,,,,,,,,,,,,,,,,,,,,,,,,,,126.0,0.729,,,,,,
142,,isi,,html-keyboard-response,142,251888,0.0-1.0-28.0-0.0-2.0,0,0,63784,,,,,,26.0,,,,,1.0,,,,,,,,,,,,,,,,,,,,,,,,,,,128.0,2.0,,,,,,
143,,feedback,,html-keyboard-response,143,252900,0.0-1.0-28.0-0.0-3.0-0.0,0,0,63784,,,,,,26.0,,,,,1.0,,,,,,,,,,,,,,,,,,,,,,,,,,,129.0,1.0,,,,,,
144,,iti,,html-keyboard-response,144,253910,0.0-1.0-28.0-0.0-5.0,0,0,63784,,,,,,26.0,,,,,1.0,,,,,,,,,,,,,,,,,,,,,,,,,,,130.0,1.0,,,,,,
145,,choice,,html-keyboard-response,145,254841,0.0-1.0-29.0-0.0-0.0,0,0,63784,,926.0,,,75.0,27.0,27.0,3000.0,1500.0,0.0,1.0,0.0,80-80,,,stool,yarn,80.0,80.0,stool12,yarn7,80.0,100.0,henrybar_stool1.jpg,herb garden hy smaller.jpg,/static/Category_learning/Stimuli/Experimental_stims/stool/henrybar_stool1.jpg,/static/Category_learning/Stimuli/Experimental_stims/yarn/herb garden hy smaller.jpg,0.0,yarn,stool,80.0,80.0,yarn7,stool12,100.0,80.0,0.0,130.926,0.926,,,,,,
146,,confirmation,,html-keyboard-response,146,255422,0.0-1.0-29.0-0.0-1.0-0.0,0,0,63784,,,,,,27.0,,,,,1.0,,,,,,,,,,,,,,,,,,,,,,,,,,,131.5,0.574,,,,,,
147,,isi,,html-keyboard-response,147,258428,0.0-1.0-29.0-0.0-2.0,0,0,63784,,,,,,27.0,,,,,1.0,,,,,,,,,,,,,,,,,,,,,,,,,,,134.5,3.0,,,,,,
148,,feedback,,html-keyboard-response,148,259434,0.0-1.0-29.0-0.0-3.0-0.0,0,0,63784,,,,,,27.0,,,,,1.0,,,,,,,,,,,,,,,,,,,,,,,,,,,135.5,1.0,,,,,,
149,,iti,,html-keyboard-response,149,260940,0.0-1.0-29.0-0.0-5.0,0,0,63784,,,,,,27.0,,,,,1.0,,,,,,,,,,,,,,,,,,,,,,,,,,,137.0,1.5,,,,,,
150,,choice,,html-keyboard-response,150,261883,0.0-1.0-30.0-0.0-0.0,0,0,63784,,939.0,,,75.0,28.0,28.0,2000.0,1500.0,0.0,1.0,0.0,40-60,,1.0,patio lounge chair,makeup compact,60.0,40.0,patio lounge chair6,makeup compact5,60.0,60.0,Lounge_Chair_with_Pillow.jpg,P109965_hero.jpg,/static/Category_learning/Stimuli/Experimental_stims/patio lounge chair/Lounge_Chair_with_Pillow.jpg,/static/Category_learning/Stimuli/Experimental_stims/makeup compact/P109965_hero.jpg,0.0,makeup compact,patio lounge chair,40.0,60.0,makeup compact5,patio lounge chair6,60.0,60.0,0.0,137.939,0.939,,,,,,
151,,confirmation,,html-keyboard-response,151,262452,0.0-1.0-30.0-0.0-1.0-0.0,0,0,63784,,,,,,28.0,,,,,1.0,,,,,,,,,,,,,,,,,,,,,,,,,,,138.5,0.561,,,,,,
152,,isi,,html-keyboard-response,152,264462,0.0-1.0-30.0-0.0-2.0,0,0,63784,,,,,,28.0,,,,,1.0,,,,,,,,,,,,,,,,,,,,,,,,,,,140.5,2.0,,,,,,
153,,feedback,,html-keyboard-response,153,265466,0.0-1.0-30.0-0.0-3.0-0.0,0,0,63784,,,,,,28.0,,,,,1.0,,,,,,,,,,,,,,,,,,,,,,,,,,,141.5,1.0,,,,,,
154,,iti,,html-keyboard-response,154,266978,0.0-1.0-30.0-0.0-5.0,0,0,63784,,,,,,28.0,,,,,1.0,,,,,,,,,,,,,,,,,,,,,,,,,,,143.0,1.5,,,,,,
155,,choice,,html-keyboard-response,155,268054,0.0-1.0-31.0-0.0-0.0,0,0,63784,,1070.0,,,75.0,29.0,29.0,1000.0,3500.0,0.0,1.0,0.0,40-80,,0.0,license plate,tape,40.0,80.0,license plate12,tape7,20.0,80.0,TurtleLicensePlate.jpg,tape dispenser.jpg,/static/Category_learning/Stimuli/Experimental_stims/license plate/TurtleLicensePlate.jpg,/static/Category_learning/Stimuli/Experimental_stims/tape/tape dispenser.jpg,0.0,tape,license plate,80.0,40.0,tape7,license plate12,80.0,20.0,0.0,144.07,1.07,,,,,,
156,,confirmation,,html-keyboard-response,156,268496,0.0-1.0-31.0-0.0-1.0-0.0,0,0,63784,,,,,,29.0,,,,,1.0,,,,,,,,,,,,,,,,,,,,,,,,,,,144.5,0.43,,,,,,
157,,isi,,html-keyboard-response,157,269503,0.0-1.0-31.0-0.0-2.0,0,0,63784,,,,,,29.0,,,,,1.0,,,,,,,,,,,,,,,,,,,,,,,,,,,145.5,1.0,,,,,,
158,,feedback,,html-keyboard-response,158,270517,0.0-1.0-31.0-0.0-3.0-0.0,0,0,63784,,,,,,29.0,,,,,1.0,,,,,,,,,,,,,,,,,,,,,,,,,,,146.5,1.0,,,,,,
159,,iti,,html-keyboard-response,159,274026,0.0-1.0-31.0-0.0-5.0,0,0,63784,,,,,,29.0,,,,,1.0,,,,,,,,,,,,,,,,,,,,,,,,,,,150.0,3.5,,,,,,
160,,choice,,html-keyboard-response,160,274524,0.0-1.0-32.0-0.0-0.0,0,0,63784,,492.0,,,75.0,30.0,30.0,1000.0,1000.0,0.0,1.0,0.0,20-80,,0.0,desk,yarn,20.0,80.0,desk10,yarn3,20.0,100.0,MEX028.jpg,Aballofblueya.jpg,/static/Category_learning/Stimuli/Experimental_stims/desk/MEX028.jpg,/static/Category_learning/Stimuli/Experimental_stims/yarn/Aballofblueya.jpg,0.0,yarn,desk,80.0,20.0,yarn3,desk10,100.0,20.0,0.0,150.492,0.492,,,,,,
161,,confirmation,,html-keyboard-response,161,275542,0.0-1.0-32.0-0.0-1.0-0.0,0,0,63784,,,,,,30.0,,,,,1.0,,,,,,,,,,,,,,,,,,,,,,,,,,,151.5,1.008,,,,,,
162,,isi,,html-keyboard-response,162,276546,0.0-1.0-32.0-0.0-2.0,0,0,63784,,,,,,30.0,,,,,1.0,,,,,,,,,,,,,,,,,,,,,,,,,,,152.5,1.0,,,,,,
163,,feedback,,html-keyboard-response,163,277555,0.0-1.0-32.0-0.0-3.0-0.0,0,0,63784,,,,,,30.0,,,,,1.0,,,,,,,,,,,,,,,,,,,,,,,,,,,153.5,1.0,,,,,,
164,,iti,,html-keyboard-response,164,278560,0.0-1.0-32.0-0.0-5.0,0,0,63784,,,,,,30.0,,,,,1.0,,,,,,,,,,,,,,,,,,,,,,,,,,,154.5,1.0,,,,,,
165,,choice,,html-keyboard-response,165,279489,0.0-1.0-33.0-0.0-0.0,0,0,63784,,924.0,,,75.0,31.0,31.0,1500.0,3000.0,0.0,1.0,0.0,20-60,,0.0,fan,poker card,20.0,60.0,fan14,poker card15,40.0,40.0,124771_sk_lg.jpg,9816946.thl.jpg,/static/Category_learning/Stimuli/Experimental_stims/fan/124771_sk_lg.jpg,/static/Category_learning/Stimuli/Experimental_stims/poker card/9816946.thl.jpg,0.0,poker card,fan,60.0,20.0,poker card15,fan14,40.0,40.0,0.0,155.424,0.924,,,,,,
166,,confirmation,,html-keyboard-response,166,280072,0.0-1.0-33.0-0.0-1.0-0.0,0,0,63784,,,,,,31.0,,,,,1.0,,,,,,,,,,,,,,,,,,,,,,,,,,,156.0,0.576,,,,,,
167,,isi,,html-keyboard-response,167,281583,0.0-1.0-33.0-0.0-2.0,0,0,63784,,,,,,31.0,,,,,1.0,,,,,,,,,,,,,,,,,,,,,,,,,,,157.5,1.5,,,,,,
168,,feedback,,html-keyboard-response,168,282593,0.0-1.0-33.0-0.0-3.0-0.0,0,0,63784,,,,,,31.0,,,,,1.0,,,,,,,,,,,,,,,,,,,,,,,,,,,158.5,1.0,,,,,,
169,,iti,,html-keyboard-response,169,285601,0.0-1.0-33.0-0.0-5.0,0,0,63784,,,,,,31.0,,,,,1.0,,,,,,,,,,,,,,,,,,,,,,,,,,,161.5,3.0,,,,,,
170,,choice,,html-keyboard-response,170,286246,0.0-1.0-34.0-0.0-0.0,0,0,63784,,641.0,,,75.0,32.0,32.0,2000.0,2000.0,0.0,1.0,0.0,60-80,,0.0,nail polish,tape,60.0,80.0,nail polish11,tape10,80.0,60.0,Revlon_Super_Top_Speed_Chrome_Nail_Polish-resized200.jpg,26377601.thl.jpg,/static/Category_learning/Stimuli/Experimental_stims/nail polish/Revlon_Super_Top_Speed_Chrome_Nail_Polish-resized200.jpg,/static/Category_learning/Stimuli/Experimental_stims/tape/26377601.thl.jpg,0.0,tape,nail polish,80.0,60.0,tape10,nail polish11,60.0,80.0,0.0,162.141,0.641,,,,,,
171,,confirmation,,html-keyboard-response,171,287118,0.0-1.0-34.0-0.0-1.0-0.0,0,0,63784,,,,,,32.0,,,,,1.0,,,,,,,,,,,,,,,,,,,,,,,,,,,163.0,0.859,,,,,,
172,,isi,,html-keyboard-response,172,289125,0.0-1.0-34.0-0.0-2.0,0,0,63784,,,,,,32.0,,,,,1.0,,,,,,,,,,,,,,,,,,,,,,,,,,,165.0,2.0,,,,,,
173,,feedback,,html-keyboard-response,173,290145,0.0-1.0-34.0-0.0-3.0-0.0,0,0,63784,,,,,,32.0,,,,,1.0,,,,,,,,,,,,,,,,,,,,,,,,,,,166.0,1.0,,,,,,
174,,iti,,html-keyboard-response,174,292154,0.0-1.0-34.0-0.0-5.0,0,0,63784,,,,,,32.0,,,,,1.0,,,,,,,,,,,,,,,,,,,,,,,,,,,168.0,2.0,,,,,,
175,,choice,,html-keyboard-response,175,293089,0.0-1.0-35.0-0.0-0.0,0,0,63784,,932.0,,,68.0,33.0,33.0,1000.0,1000.0,0.0,1.0,0.0,20-60,,0.0,baby carriage,power strip,20.0,60.0,baby carriage5,power strip11,20.0,40.0,Baby_Stroller.jpg,41Bw7Tl1G7L._AA262_.jpg,/static/Category_learning/Stimuli/Experimental_stims/baby carriage/Baby_Stroller.jpg,/static/Category_learning/Stimuli/Experimental_stims/power strip/41Bw7Tl1G7L._AA262_.jpg,1.0,baby carriage,power strip,20.0,60.0,baby carriage5,power strip11,20.0,40.0,0.0,168.932,0.932,,,,,,
176,,confirmation,,html-keyboard-response,176,293668,0.0-1.0-35.0-0.0-1.0-0.0,0,0,63784,,,,,,33.0,,,,,1.0,,,,,,,,,,,,,,,,,,,,,,,,,,,169.5,0.568,,,,,,
177,,isi,,html-keyboard-response,177,294678,0.0-1.0-35.0-0.0-2.0,0,0,63784,,,,,,33.0,,,,,1.0,,,,,,,,,,,,,,,,,,,,,,,,,,,170.5,1.0,,,,,,
178,,feedback,,html-keyboard-response,178,295691,0.0-1.0-35.0-0.0-3.0-0.0,0,0,63784,,,,,,33.0,,,,,1.0,,,,,,,,,,,,,,,,,,,,,,,,,,,171.5,1.0,,,,,,
179,,iti,,html-keyboard-response,179,296697,0.0-1.0-35.0-0.0-5.0,0,0,63784,,,,,,33.0,,,,,1.0,,,,,,,,,,,,,,,,,,,,,,,,,,,172.5,1.0,,,,,,
180,,choice,,html-keyboard-response,180,297628,0.0-1.0-36.0-0.0-0.0,0,0,63784,,926.0,,,75.0,34.0,34.0,3500.0,1500.0,0.0,1.0,0.0,20-20,,,dresser,fan,20.0,20.0,dresser6,fan4,40.0,0.0,ADRESSE96.jpg,AFAN39.jpg,/static/Category_learning/Stimuli/Experimental_stims/dresser/ADRESSE96.jpg,/static/Category_learning/Stimuli/Experimental_stims/fan/AFAN39.jpg,0.0,fan,dresser,20.0,20.0,fan4,dresser6,0.0,40.0,0.0,173.426,0.926,,,,,,
181,,confirmation,,html-keyboard-response,181,298208,0.0-1.0-36.0-0.0-1.0-0.0,0,0,63784,,,,,,34.0,,,,,1.0,,,,,,,,,,,,,,,,,,,,,,,,,,,174.0,0.574,,,,,,
182,,isi,,html-keyboard-response,182,301712,0.0-1.0-36.0-0.0-2.0,0,0,63784,,,,,,34.0,,,,,1.0,,,,,,,,,,,,,,,,,,,,,,,,,,,177.5,3.5,,,,,,
183,,feedback,,html-keyboard-response,183,302717,0.0-1.0-36.0-0.0-3.0-0.0,0,0,63784,,,,,,34.0,,,,,1.0,,,,,,,,,,,,,,,,,,,,,,,,,,,178.5,1.0,,,,,,
184,,iti,,html-keyboard-response,184,304225,0.0-1.0-36.0-0.0-5.0,0,0,63784,,,,,,34.0,,,,,1.0,,,,,,,,,,,,,,,,,,,,,,,,,,,180.0,1.5,,,,,,
185,,choice,,html-keyboard-response,185,305296,0.0-1.0-37.0-0.0-0.0,0,0,63784,,1068.0,,,75.0,35.0,35.0,1500.0,1500.0,0.0,1.0,0.0,20-80,,1.0,vase,bowl,80.0,20.0,vase9,bowl2,80.0,40.0,Avasewithang2.jpg,AMIXBOWL2.jpg,/static/Category_learning/Stimuli/Experimental_stims/vase/Avasewithang2.jpg,/static/Category_learning/Stimuli/Experimental_stims/bowl/AMIXBOWL2.jpg,0.0,bowl,vase,20.0,80.0,bowl2,vase9,40.0,80.0,0.0,181.068,1.068,,,,,,
186,,confirmation,,html-keyboard-response,186,305738,0.0-1.0-37.0-0.0-1.0-0.0,0,0,63784,,,,,,35.0,,,,,1.0,,,,,,,,,,,,,,,,,,,,,,,,,,,181.5,0.432,,,,,,
187,,isi,,html-keyboard-response,187,307247,0.0-1.0-37.0-0.0-2.0,0,0,63784,,,,,,35.0,,,,,1.0,,,,,,,,,,,,,,,,,,,,,,,,,,,183.0,1.5,,,,,,
188,,feedback,,html-keyboard-response,188,308261,0.0-1.0-37.0-0.0-3.0-0.0,0,0,63784,,,,,,35.0,,,,,1.0,,,,,,,,,,,,,,,,,,,,,,,,,,,184.0,1.0,,,,,,
189,,iti,,html-keyboard-response,189,309771,0.0-1.0-37.0-0.0-5.0,0,0,63784,,,,,,35.0,,,,,1.0,,,,,,,,,,,,,,,,,,,,,,,,,,,185.5,1.5,,,,,,
190,,choice,,html-keyboard-response,190,311038,0.0-1.0-38.0-0.0-0.0,0,0,63784,,1260.0,,,75.0,36.0,36.0,2000.0,1000.0,0.0,1.0,0.0,40-40,,,hammer,lipstick,40.0,40.0,hammer12,lipstick14,20.0,60.0,24oz hammer.jpg,P109907_hero.jpg,/static/Category_learning/Stimuli/Experimental_stims/hammer/24oz hammer.jpg,/static/Category_learning/Stimuli/Experimental_stims/lipstick/P109907_hero.jpg,0.0,lipstick,hammer,40.0,40.0,lipstick14,hammer12,60.0,20.0,0.0,186.76,1.26,,,,,,
191,,confirmation,,html-keyboard-response,191,311283,0.0-1.0-38.0-0.0-1.0-0.0,0,0,63784,,,,,,36.0,,,,,1.0,,,,,,,,,,,,,,,,,,,,,,,,,,,187.0,0.24,,,,,,
192,,isi,,html-keyboard-response,192,313290,0.0-1.0-38.0-0.0-2.0,0,0,63784,,,,,,36.0,,,,,1.0,,,,,,,,,,,,,,,,,,,,,,,,,,,189.0,2.0,,,,,,
193,,feedback,,html-keyboard-response,193,314296,0.0-1.0-38.0-0.0-3.0-0.0,0,0,63784,,,,,,36.0,,,,,1.0,,,,,,,,,,,,,,,,,,,,,,,,,,,190.0,1.0,,,,,,
194,,iti,,html-keyboard-response,194,315303,0.0-1.0-38.0-0.0-5.0,0,0,63784,,,,,,36.0,,,,,1.0,,,,,,,,,,,,,,,,,,,,,,,,,,,191.0,1.0,,,,,,
195,,choice,,html-keyboard-response,195,315959,0.0-1.0-39.0-0.0-0.0,0,0,63784,,649.0,,,75.0,37.0,37.0,3000.0,2000.0,0.0,1.0,1.0,40-40,1.0,,lipstick,lipstick,40.0,40.0,lipstick14,lipstick7,60.0,60.0,P109907_hero.jpg,P101401_hero.jpg,/static/Category_learning/Stimuli/Experimental_stims/lipstick/P109907_hero.jpg,/static/Category_learning/Stimuli/Experimental_stims/lipstick/P101401_hero.jpg,0.0,lipstick,lipstick,40.0,40.0,lipstick7,lipstick14,60.0,60.0,0.0,191.649,0.649,,,,,,
196,,confirmation,,html-keyboard-response,196,316829,0.0-1.0-39.0-0.0-1.0-0.0,0,0,63784,,,,,,37.0,,,,,1.0,,,,,,,,,,,,,,,,,,,,,,,,,,,192.5,0.851,,,,,,
197,,isi,,html-keyboard-response,197,319839,0.0-1.0-39.0-0.0-2.0,0,0,63784,,,,,,37.0,,,,,1.0,,,,,,,,,,,,,,,,,,,,,,,,,,,195.5,3.0,,,,,,
198,,feedback,,html-keyboard-response,198,320852,0.0-1.0-39.0-0.0-3.0-0.0,0,0,63784,,,,,,37.0,,,,,1.0,,,,,,,,,,,,,,,,,,,,,,,,,,,196.5,1.0,,,,,,
199,,iti,,html-keyboard-response,199,322858,0.0-1.0-39.0-0.0-5.0,0,0,63784,,,,,,37.0,,,,,1.0,,,,,,,,,,,,,,,,,,,,,,,,,,,198.5,2.0,,,,,,
200,,choice,,html-keyboard-response,200,323575,0.0-1.0-40.0-0.0-0.0,0,0,63784,,712.0,,,68.0,38.0,38.0,1500.0,3000.0,0.0,1.0,0.0,20-60,,1.0,poker card,door knob,60.0,20.0,poker card13,door knob14,80.0,20.0,9817197.thl.jpg,500_CLANYKAB.jpg,/static/Category_learning/Stimuli/Experimental_stims/poker card/9817197.thl.jpg,/static/Category_learning/Stimuli/Experimental_stims/door knob/500_CLANYKAB.jpg,1.0,poker card,door knob,60.0,20.0,poker card13,door knob14,80.0,20.0,0.0,199.212,0.712,,,,,,
201,,confirmation,,html-keyboard-response,201,324375,0.0-1.0-40.0-0.0-1.0-0.0,0,0,63784,,,,,,38.0,,,,,1.0,,,,,,,,,,,,,,,,,,,,,,,,,,,200.0,0.788,,,,,,
202,,isi,,html-keyboard-response,202,325885,0.0-1.0-40.0-0.0-2.0,0,0,63784,,,,,,38.0,,,,,1.0,,,,,,,,,,,,,,,,,,,,,,,,,,,201.5,1.5,,,,,,
203,,feedback,,html-keyboard-response,203,326895,0.0-1.0-40.0-0.0-3.0-0.0,0,0,63784,,,,,,38.0,,,,,1.0,,,,,,,,,,,,,,,,,,,,,,,,,,,202.5,1.0,,,,,,
204,,iti,,html-keyboard-response,204,329898,0.0-1.0-40.0-0.0-5.0,0,0,63784,,,,,,38.0,,,,,1.0,,,,,,,,,,,,,,,,,,,,,,,,,,,205.5,3.0,,,,,,
205,,choice,,html-keyboard-response,205,330675,0.0-1.0-41.0-0.0-0.0,0,0,63784,,775.0,,,68.0,39.0,39.0,3500.0,1000.0,0.0,1.0,1.0,20-20,1.0,,bowl,bowl,20.0,20.0,bowl2,bowl6,40.0,20.0,AMIXBOWL2.jpg,Abowl59.jpg,/static/Category_learning/Stimuli/Experimental_stims/bowl/AMIXBOWL2.jpg,/static/Category_learning/Stimuli/Experimental_stims/bowl/Abowl59.jpg,1.0,bowl,bowl,20.0,20.0,bowl2,bowl6,40.0,20.0,0.0,206.275,0.775,,,,,,
206,,confirmation,,html-keyboard-response,206,331409,0.0-1.0-41.0-0.0-1.0-0.0,0,0,63784,,,,,,39.0,,,,,1.0,,,,,,,,,,,,,,,,,,,,,,,,,,,207.0,0.725,,,,,,
207,,isi,,html-keyboard-response,207,334915,0.0-1.0-41.0-0.0-2.0,0,0,63784,,,,,,39.0,,,,,1.0,,,,,,,,,,,,,,,,,,,,,,,,,,,210.5,3.5,,,,,,
208,,feedback,,html-keyboard-response,208,335922,0.0-1.0-41.0-0.0-3.0-0.0,0,0,63784,,,,,,39.0,,,,,1.0,,,,,,,,,,,,,,,,,,,,,,,,,,,211.5,1.0,,,,,,
209,,iti,,html-keyboard-response,209,336935,0.0-1.0-41.0-0.0-5.0,0,0,63784,,,,,,39.0,,,,,1.0,,,,,,,,,,,,,,,,,,,,,,,,,,,212.5,1.0,,,,,,
210,,choice,,html-keyboard-response,210,337439,0.0-1.0-42.0-0.0-0.0,0,0,63784,,500.0,,,75.0,40.0,40.0,2000.0,3000.0,0.0,1.0,1.0,80-80,1.0,,yarn,yarn,80.0,80.0,yarn7,yarn3,100.0,100.0,herb garden hy smaller.jpg,Aballofblueya.jpg,/static/Category_learning/Stimuli/Experimental_stims/yarn/herb garden hy smaller.jpg,/static/Category_learning/Stimuli/Experimental_stims/yarn/Aballofblueya.jpg,0.0,yarn,yarn,80.0,80.0,yarn3,yarn7,100.0,100.0,0.0,213.0,0.5,,,,,,
211,,confirmation,,html-keyboard-response,211,338447,0.0-1.0-42.0-0.0-1.0-0.0,0,0,63784,,,,,,40.0,,,,,1.0,,,,,,,,,,,,,,,,,,,,,,,,,,,214.0,1.0,,,,,,
212,,isi,,html-keyboard-response,212,340451,0.0-1.0-42.0-0.0-2.0,0,0,63784,,,,,,40.0,,,,,1.0,,,,,,,,,,,,,,,,,,,,,,,,,,,216.0,2.0,,,,,,
213,,feedback,,html-keyboard-response,213,341456,0.0-1.0-42.0-0.0-3.0-0.0,0,0,63784,,,,,,40.0,,,,,1.0,,,,,,,,,,,,,,,,,,,,,,,,,,,217.0,1.0,,,,,,
214,,iti,,html-keyboard-response,214,344462,0.0-1.0-42.0-0.0-5.0,0,0,63784,,,,,,40.0,,,,,1.0,,,,,,,,,,,,,,,,,,,,,,,,,,,220.0,3.0,,,,,,
215,,choice,,html-keyboard-response,215,345439,0.0-1.0-43.0-0.0-0.0,0,0,63784,,974.0,,,75.0,41.0,41.0,1000.0,1000.0,0.0,1.0,0.0,20-60,,1.0,small table,bongo,60.0,20.0,small table4,bongo9,40.0,20.0,ACOFTABLE.jpg,22946035.thl.jpg,/static/Category_learning/Stimuli/Experimental_stims/small table/ACOFTABLE.jpg,/static/Category_learning/Stimuli/Experimental_stims/bongo/22946035.thl.jpg,0.0,bongo,small table,20.0,60.0,bongo9,small table4,20.0,40.0,0.0,220.974,0.974,,,,,,
216,,confirmation,,html-keyboard-response,216,345973,0.0-1.0-43.0-0.0-1.0-0.0,0,0,63784,,,,,,41.0,,,,,1.0,,,,,,,,,,,,,,,,,,,,,,,,,,,221.5,0.526,,,,,,
217,,isi,,html-keyboard-response,217,346985,0.0-1.0-43.0-0.0-2.0,0,0,63784,,,,,,41.0,,,,,1.0,,,,,,,,,,,,,,,,,,,,,,,,,,,222.5,1.0,,,,,,
218,,feedback,,html-keyboard-response,218,348002,0.0-1.0-43.0-0.0-3.0-0.0,0,0,63784,,,,,,41.0,,,,,1.0,,,,,,,,,,,,,,,,,,,,,,,,,,,223.5,1.0,,,,,,
219,,iti,,html-keyboard-response,219,349016,0.0-1.0-43.0-0.0-5.0,0,0,63784,,,,,,41.0,,,,,1.0,,,,,,,,,,,,,,,,,,,,,,,,,,,224.5,1.0,,,,,,
220,,choice,,html-keyboard-response,220,349859,0.0-1.0-44.0-0.0-0.0,0,0,63784,,839.0,,,75.0,42.0,42.0,3500.0,1000.0,0.0,1.0,0.0,60-60,,,necklace,poker card,60.0,60.0,necklace2,poker card5,40.0,40.0,Anecklace7.jpg,22864800.thl.jpg,/static/Category_learning/Stimuli/Experimental_stims/necklace/Anecklace7.jpg,/static/Category_learning/Stimuli/Experimental_stims/poker card/22864800.thl.jpg,0.0,poker card,necklace,60.0,60.0,poker card5,necklace2,40.0,40.0,0.0,225.339,0.839,,,,,,
221,,confirmation,,html-keyboard-response,221,350531,0.0-1.0-44.0-0.0-1.0-0.0,0,0,63784,,,,,,42.0,,,,,1.0,,,,,,,,,,,,,,,,,,,,,,,,,,,226.0,0.661,,,,,,
222,,isi,,html-keyboard-response,222,354039,0.0-1.0-44.0-0.0-2.0,0,0,63784,,,,,,42.0,,,,,1.0,,,,,,,,,,,,,,,,,,,,,,,,,,,229.5,3.5,,,,,,
223,,feedback,,html-keyboard-response,223,355050,0.0-1.0-44.0-0.0-3.0-0.0,0,0,63784,,,,,,42.0,,,,,1.0,,,,,,,,,,,,,,,,,,,,,,,,,,,230.5,1.0,,,,,,
224,,iti,,html-keyboard-response,224,356056,0.0-1.0-44.0-0.0-5.0,0,0,63784,,,,,,42.0,,,,,1.0,,,,,,,,,,,,,,,,,,,,,,,,,,,231.5,1.0,,,,,,
225,,choice,,html-keyboard-response,225,356668,0.0-1.0-45.0-0.0-0.0,0,0,63784,,608.0,,,68.0,43.0,43.0,2000.0,2000.0,0.0,1.0,0.0,40-60,,0.0,lipstick,power strip,40.0,60.0,lipstick10,power strip10,60.0,60.0,21K0D7QKFAL._SS500_.jpg,6bd437c9-6165-4d36-bf75-9a1038783c6a_400.jpg,/static/Category_learning/Stimuli/Experimental_stims/lipstick/21K0D7QKFAL._SS500_.jpg,/static/Category_learning/Stimuli/Experimental_stims/power strip/6bd437c9-6165-4d36-bf75-9a1038783c6a_400.jpg,1.0,lipstick,power strip,40.0,60.0,lipstick10,power strip10,60.0,60.0,0.0,232.108,0.608,,,,,,
226,,confirmation,,html-keyboard-response,226,357572,0.0-1.0-45.0-0.0-1.0-0.0,0,0,63784,,,,,,43.0,,,,,1.0,,,,,,,,,,,,,,,,,,,,,,,,,,,233.0,0.892,,,,,,
227,,isi,,html-keyboard-response,227,359585,0.0-1.0-45.0-0.0-2.0,0,0,63784,,,,,,43.0,,,,,1.0,,,,,,,,,,,,,,,,,,,,,,,,,,,235.0,2.0,,,,,,
228,,feedback,,html-keyboard-response,228,360590,0.0-1.0-45.0-0.0-3.0-0.0,0,0,63784,,,,,,43.0,,,,,1.0,,,,,,,,,,,,,,,,,,,,,,,,,,,236.0,1.0,,,,,,
229,,iti,,html-keyboard-response,229,362601,0.0-1.0-45.0-0.0-5.0,0,0,63784,,,,,,43.0,,,,,1.0,,,,,,,,,,,,,,,,,,,,,,,,,,,238.0,2.0,,,,,,
230,,choice,,html-keyboard-response,230,363812,0.0-1.0-46.0-0.0-0.0,0,0,63784,,1207.0,,,68.0,44.0,44.0,1000.0,3000.0,0.0,1.0,1.0,80-80,1.0,,tape,tape,80.0,80.0,tape7,tape10,80.0,60.0,tape dispenser.jpg,26377601.thl.jpg,/static/Category_learning/Stimuli/Experimental_stims/tape/tape dispenser.jpg,/static/Category_learning/Stimuli/Experimental_stims/tape/26377601.thl.jpg,1.0,tape,tape,80.0,80.0,tape7,tape10,80.0,60.0,0.0,239.207,1.207,,,,,,
231,,confirmation,,html-keyboard-response,231,364112,0.0-1.0-46.0-0.0-1.0-0.0,0,0,63784,,,,,,44.0,,,,,1.0,,,,,,,,,,,,,,,,,,,,,,,,,,,239.5,0.293,,,,,,
232,,isi,,html-keyboard-response,232,365122,0.0-1.0-46.0-0.0-2.0,0,0,63784,,,,,,44.0,,,,,1.0,,,,,,,,,,,,,,,,,,,,,,,,,,,240.5,1.0,,,,,,
233,,feedback,,html-keyboard-response,233,366139,0.0-1.0-46.0-0.0-3.0-0.0,0,0,63784,,,,,,44.0,,,,,1.0,,,,,,,,,,,,,,,,,,,,,,,,,,,241.5,1.0,,,,,,
234,,iti,,html-keyboard-response,234,369150,0.0-1.0-46.0-0.0-5.0,0,0,63784,,,,,,44.0,,,,,1.0,,,,,,,,,,,,,,,,,,,,,,,,,,,244.5,3.0,,,,,,
235,,choice,,html-keyboard-response,235,369980,0.0-1.0-47.0-0.0-0.0,0,0,63784,,826.0,,,75.0,45.0,45.0,1500.0,1000.0,0.0,1.0,1.0,60-60,1.0,,poker card,poker card,60.0,60.0,poker card15,poker card5,40.0,40.0,9816946.thl.jpg,22864800.thl.jpg,/static/Category_learning/Stimuli/Experimental_stims/poker card/9816946.thl.jpg,/static/Category_learning/Stimuli/Experimental_stims/poker card/22864800.thl.jpg,0.0,poker card,poker card,60.0,60.0,poker card5,poker card15,40.0,40.0,0.0,245.326,0.826,,,,,,
236,,confirmation,,html-keyboard-response,236,370665,0.0-1.0-47.0-0.0-1.0-0.0,0,0,63784,,,,,,45.0,,,,,1.0,,,,,,,,,,,,,,,,,,,,,,,,,,,246.0,0.674,,,,,,
237,,isi,,html-keyboard-response,237,372175,0.0-1.0-47.0-0.0-2.0,0,0,63784,,,,,,45.0,,,,,1.0,,,,,,,,,,,,,,,,,,,,,,,,,,,247.5,1.5,,,,,,
238,,feedback,,html-keyboard-response,238,373186,0.0-1.0-47.0-0.0-3.0-0.0,0,0,63784,,,,,,45.0,,,,,1.0,,,,,,,,,,,,,,,,,,,,,,,,,,,248.5,1.0,,,,,,
239,,iti,,html-keyboard-response,239,374191,0.0-1.0-47.0-0.0-5.0,0,0,63784,,,,,,45.0,,,,,1.0,,,,,,,,,,,,,,,,,,,,,,,,,,,249.5,1.0,,,,,,
240,,choice,,html-keyboard-response,240,375529,0.0-1.0-48.0-0.0-0.0,0,0,63784,,1333.0,,,75.0,46.0,46.0,1000.0,1500.0,0.0,1.0,0.0,20-40,,0.0,bongo,hammer,20.0,40.0,bongo13,hammer4,0.0,40.0,26388718.thl.jpg,hammernew01.jpg,/static/Category_learning/Stimuli/Experimental_stims/bongo/26388718.thl.jpg,/static/Category_learning/Stimuli/Experimental_stims/hammer/hammernew01.jpg,0.0,hammer,bongo,40.0,20.0,hammer4,bongo13,40.0,0.0,0.0,250.833,1.333,,,,,,
241,,confirmation,,html-keyboard-response,241,375702,0.0-1.0-48.0-0.0-1.0-0.0,0,0,63784,,,,,,46.0,,,,,1.0,,,,,,,,,,,,,,,,,,,,,,,,,,,251.0,0.167,,,,,,
242,,isi,,html-keyboard-response,242,376708,0.0-1.0-48.0-0.0-2.0,0,0,63784,,,,,,46.0,,,,,1.0,,,,,,,,,,,,,,,,,,,,,,,,,,,252.0,1.0,,,,,,
243,,feedback,,html-keyboard-response,243,377716,0.0-1.0-48.0-0.0-3.0-0.0,0,0,63784,,,,,,46.0,,,,,1.0,,,,,,,,,,,,,,,,,,,,,,,,,,,253.0,1.0,,,,,,
244,,iti,,html-keyboard-response,244,379225,0.0-1.0-48.0-0.0-5.0,0,0,63784,,,,,,46.0,,,,,1.0,,,,,,,,,,,,,,,,,,,,,,,,,,,254.5,1.5,,,,,,
245,,choice,,html-keyboard-response,245,380102,0.0-1.0-49.0-0.0-0.0,0,0,63784,,873.0,,,68.0,47.0,47.0,1000.0,2000.0,0.0,1.0,0.0,40-80,,1.0,telescope,frame,80.0,40.0,telescope15,frame3,80.0,40.0,VictorianDeskTelescope.jpg,AFRAME132.jpg,/static/Category_learning/Stimuli/Experimental_stims/telescope/VictorianDeskTelescope.jpg,/static/Category_learning/Stimuli/Experimental_stims/frame/AFRAME132.jpg,1.0,telescope,frame,80.0,40.0,telescope15,frame3,80.0,40.0,0.0,255.373,0.873,,,,,,
246,,confirmation,,html-keyboard-response,246,380742,0.0-1.0-49.0-0.0-1.0-0.0,0,0,63784,,,,,,47.0,,,,,1.0,,,,,,,,,,,,,,,,,,,,,,,,,,,256.0,0.627,,,,,,
247,,isi,,html-keyboard-response,247,381749,0.0-1.0-49.0-0.0-2.0,0,0,63784,,,,,,47.0,,,,,1.0,,,,,,,,,,,,,,,,,,,,,,,,,,,257.0,1.0,,,,,,
248,,feedback,,html-keyboard-response,248,382757,0.0-1.0-49.0-0.0-3.0-0.0,0,0,63784,,,,,,47.0,,,,,1.0,,,,,,,,,,,,,,,,,,,,,,,,,,,258.0,1.0,,,,,,
249,,iti,,html-keyboard-response,249,384768,0.0-1.0-49.0-0.0-5.0,0,0,63784,,,,,,47.0,,,,,1.0,,,,,,,,,,,,,,,,,,,,,,,,,,,260.0,2.0,,,,,,
250,,choice,,html-keyboard-response,250,385841,0.0-1.0-50.0-0.0-0.0,0,0,63784,,1067.0,,,68.0,48.0,48.0,1000.0,2000.0,0.0,1.0,0.0,20-20,,,bench,flashlight,20.0,20.0,bench5,flashlight3,0.0,20.0,APARKBEN8.jpg,sl_tasklight_2l3w.jpg,/static/Category_learning/Stimuli/Experimental_stims/bench/APARKBEN8.jpg,/static/Category_learning/Stimuli/Experimental_stims/flashlight/sl_tasklight_2l3w.jpg,1.0,bench,flashlight,20.0,20.0,bench5,flashlight3,0.0,20.0,0.0,261.067,1.067,,,,,,
251,,confirmation,,html-keyboard-response,251,386286,0.0-1.0-50.0-0.0-1.0-0.0,0,0,63784,,,,,,48.0,,,,,1.0,,,,,,,,,,,,,,,,,,,,,,,,,,,261.5,0.433,,,,,,
252,,isi,,html-keyboard-response,252,387291,0.0-1.0-50.0-0.0-2.0,0,0,63784,,,,,,48.0,,,,,1.0,,,,,,,,,,,,,,,,,,,,,,,,,,,262.5,1.0,,,,,,
253,,feedback,,html-keyboard-response,253,388298,0.0-1.0-50.0-0.0-3.0-0.0,0,0,63784,,,,,,48.0,,,,,1.0,,,,,,,,,,,,,,,,,,,,,,,,,,,263.5,1.0,,,,,,
254,,iti,,html-keyboard-response,254,390310,0.0-1.0-50.0-0.0-5.0,0,0,63784,,,,,,48.0,,,,,1.0,,,,,,,,,,,,,,,,,,,,,,,,,,,265.5,2.0,,,,,,
255,,choice,,html-keyboard-response,255,391057,0.0-1.0-51.0-0.0-0.0,0,0,63784,,740.0,,,75.0,49.0,49.0,1500.0,1500.0,0.0,1.0,1.0,20-40,0.0,,bongo,makeup compact,20.0,40.0,bongo9,makeup compact5,20.0,60.0,22946035.thl.jpg,P109965_hero.jpg,/static/Category_learning/Stimuli/Experimental_stims/bongo/22946035.thl.jpg,/static/Category_learning/Stimuli/Experimental_stims/makeup compact/P109965_hero.jpg,0.0,makeup compact,bongo,40.0,20.0,makeup compact5,bongo9,60.0,20.0,0.0,266.24,0.74,,,,,,
256,,confirmation,,html-keyboard-response,256,391824,0.0-1.0-51.0-0.0-1.0-0.0,0,0,63784,,,,,,49.0,,,,,1.0,,,,,,,,,,,,,,,,,,,,,,,,,,,267.0,0.76,,,,,,
257,,isi,,html-keyboard-response,257,393333,0.0-1.0-51.0-0.0-2.0,0,0,63784,,,,,,49.0,,,,,1.0,,,,,,,,,,,,,,,,,,,,,,,,,,,268.5,1.5,,,,,,
258,,feedback,,html-keyboard-response,258,394341,0.0-1.0-51.0-0.0-3.0-0.0,0,0,63784,,,,,,49.0,,,,,1.0,,,,,,,,,,,,,,,,,,,,,,,,,,,269.5,1.0,,,,,,
259,,iti,,html-keyboard-response,259,395852,0.0-1.0-51.0-0.0-5.0,0,0,63784,,,,,,49.0,,,,,1.0,,,,,,,,,,,,,,,,,,,,,,,,,,,271.0,1.5,,,,,,
260,,choice,,html-keyboard-response,260,396646,0.0-1.0-52.0-0.0-0.0,0,0,63784,,790.0,,,75.0,50.0,50.0,1000.0,1500.0,0.0,1.0,0.0,40-80,,0.0,frame,vase,40.0,80.0,frame11,vase14,60.0,80.0,AFRAME139.jpg,Avase119.jpg,/static/Category_learning/Stimuli/Experimental_stims/frame/AFRAME139.jpg,/static/Category_learning/Stimuli/Experimental_stims/vase/Avase119.jpg,0.0,vase,frame,80.0,40.0,vase14,frame11,80.0,60.0,0.0,271.79,0.79,,,,,,
261,,confirmation,,html-keyboard-response,261,397364,0.0-1.0-52.0-0.0-1.0-0.0,0,0,63784,,,,,,50.0,,,,,1.0,,,,,,,,,,,,,,,,,,,,,,,,,,,272.5,0.71,,,,,,
262,,isi,,html-keyboard-response,262,398373,0.0-1.0-52.0-0.0-2.0,0,0,63784,,,,,,50.0,,,,,1.0,,,,,,,,,,,,,,,,,,,,,,,,,,,273.5,1.0,,,,,,
263,,feedback,,html-keyboard-response,263,399387,0.0-1.0-52.0-0.0-3.0-0.0,0,0,63784,,,,,,50.0,,,,,1.0,,,,,,,,,,,,,,,,,,,,,,,,,,,274.5,1.0,,,,,,
264,,iti,,html-keyboard-response,264,400893,0.0-1.0-52.0-0.0-5.0,0,0,63784,,,,,,50.0,,,,,1.0,,,,,,,,,,,,,,,,,,,,,,,,,,,276.0,1.5,,,,,,
265,,choice,,html-keyboard-response,265,401843,0.0-1.0-53.0-0.0-0.0,0,0,63784,,945.0,,,68.0,51.0,51.0,2000.0,2000.0,0.0,1.0,0.0,20-60,,1.0,seashell,door knob,60.0,20.0,seashell11,door knob1,80.0,0.0,ASEASH12.jpg,Brass_Door_Handle.jpg,/static/Category_learning/Stimuli/Experimental_stims/seashell/ASEASH12.jpg,/static/Category_learning/Stimuli/Experimental_stims/door knob/Brass_Door_Handle.jpg,1.0,seashell,door knob,60.0,20.0,seashell11,door knob1,80.0,0.0,0.0,276.945,0.945,,,,,,
266,,confirmation,,html-keyboard-response,266,402417,0.0-1.0-53.0-0.0-1.0-0.0,0,0,63784,,,,,,51.0,,,,,1.0,,,,,,,,,,,,,,,,,,,,,,,,,,,277.5,0.555,,,,,,
267,,isi,,html-keyboard-response,267,404427,0.0-1.0-53.0-0.0-2.0,0,0,63784,,,,,,51.0,,,,,1.0,,,,,,,,,,,,,,,,,,,,,,,,,,,279.5,2.0,,,,,,
268,,feedback,,html-keyboard-response,268,405438,0.0-1.0-53.0-0.0-3.0-0.0,0,0,63784,,,,,,51.0,,,,,1.0,,,,,,,,,,,,,,,,,,,,,,,,,,,280.5,1.0,,,,,,
269,,iti,,html-keyboard-response,269,407446,0.0-1.0-53.0-0.0-5.0,0,0,63784,,,,,,51.0,,,,,1.0,,,,,,,,,,,,,,,,,,,,,,,,,,,282.5,2.0,,,,,,
270,,choice,,html-keyboard-response,270,408106,0.0-1.0-54.0-0.0-0.0,0,0,63784,,655.0,,,75.0,52.0,52.0,2000.0,1000.0,0.0,1.0,0.0,20-40,,0.0,flashlight,makeup compact,20.0,40.0,flashlight2,makeup compact13,0.0,40.0,AV-9 No Battery Flashlight.jpg,31YfapjS3TL._AA250_.jpg,/static/Category_learning/Stimuli/Experimental_stims/flashlight/AV-9 No Battery Flashlight.jpg,/static/Category_learning/Stimuli/Experimental_stims/makeup compact/31YfapjS3TL._AA250_.jpg,0.0,makeup compact,flashlight,40.0,20.0,makeup compact13,flashlight2,40.0,0.0,0.0,283.155,0.655,,,,,,
271,,confirmation,,html-keyboard-response,271,408961,0.0-1.0-54.0-0.0-1.0-0.0,0,0,63784,,,,,,52.0,,,,,1.0,,,,,,,,,,,,,,,,,,,,,,,,,,,284.0,0.845,,,,,,
272,,isi,,html-keyboard-response,272,410973,0.0-1.0-54.0-0.0-2.0,0,0,63784,,,,,,52.0,,,,,1.0,,,,,,,,,,,,,,,,,,,,,,,,,,,286.0,2.0,,,,,,
273,,feedback,,html-keyboard-response,273,411979,0.0-1.0-54.0-0.0-3.0-0.0,0,0,63784,,,,,,52.0,,,,,1.0,,,,,,,,,,,,,,,,,,,,,,,,,,,287.0,1.0,,,,,,
274,,iti,,html-keyboard-response,274,412999,0.0-1.0-54.0-0.0-5.0,0,0,63784,,,,,,52.0,,,,,1.0,,,,,,,,,,,,,,,,,,,,,,,,,,,288.0,1.0,,,,,,
275,,choice,,html-keyboard-response,275,413940,0.0-1.0-55.0-0.0-0.0,0,0,63784,,937.0,,,68.0,53.0,53.0,1500.0,1000.0,0.0,1.0,0.0,20-60,,1.0,sofa,bongo,60.0,20.0,sofa4,bongo4,40.0,0.0,ALOVSEA15.jpg,26390708.thl.jpg,/static/Category_learning/Stimuli/Experimental_stims/sofa/ALOVSEA15.jpg,/static/Category_learning/Stimuli/Experimental_stims/bongo/26390708.thl.jpg,1.0,sofa,bongo,60.0,20.0,sofa4,bongo4,40.0,0.0,0.0,288.937,0.937,,,,,,
276,,confirmation,,html-keyboard-response,276,414512,0.0-1.0-55.0-0.0-1.0-0.0,0,0,63784,,,,,,53.0,,,,,1.0,,,,,,,,,,,,,,,,,,,,,,,,,,,289.5,0.563,,,,,,
277,,isi,,html-keyboard-response,277,416020,0.0-1.0-55.0-0.0-2.0,0,0,63784,,,,,,53.0,,,,,1.0,,,,,,,,,,,,,,,,,,,,,,,,,,,291.0,1.5,,,,,,
278,,feedback,,html-keyboard-response,278,417027,0.0-1.0-55.0-0.0-3.0-0.0,0,0,63784,,,,,,53.0,,,,,1.0,,,,,,,,,,,,,,,,,,,,,,,,,,,292.0,1.0,,,,,,
279,,iti,,html-keyboard-response,279,418036,0.0-1.0-55.0-0.0-5.0,0,0,63784,,,,,,53.0,,,,,1.0,,,,,,,,,,,,,,,,,,,,,,,,,,,293.0,1.0,,,,,,
280,,choice,,html-keyboard-response,280,419542,0.0-1.0-56.0-0.0-0.0,0,0,63784,,,,,,54.0,54.0,1000.0,1000.0,0.0,1.0,1.0,20-40,0.0,,lipstick,fan,40.0,20.0,lipstick10,fan4,60.0,0.0,21K0D7QKFAL._SS500_.jpg,AFAN39.jpg,/static/Category_learning/Stimuli/Experimental_stims/lipstick/21K0D7QKFAL._SS500_.jpg,/static/Category_learning/Stimuli/Experimental_stims/fan/AFAN39.jpg,,,,,,,,,,1.0,294.5,1.5,,,,,,
281,,isi,,html-keyboard-response,281,420550,0.0-1.0-56.0-0.0-2.0,0,0,63784,,,,,,54.0,,,,,1.0,,,,,,,,,,,,,,,,,,,,,,,,,,,295.5,1.0,,,,,,
282,,no_response,,html-keyboard-response,282,421559,0.0-1.0-56.0-0.0-4.0-0.0,0,0,63784,,,,,,54.0,,,,,1.0,,,,,,,,,,,,,,,,,,,,,,,,,,,296.5,1.0,,,,,,
283,,iti,,html-keyboard-response,283,422581,0.0-1.0-56.0-0.0-5.0,0,0,63784,,,,,,54.0,,,,,1.0,,,,,,,,,,,,,,,,,,,,,,,,,,,297.5,1.0,,,,,,
284,,choice,,html-keyboard-response,284,423116,0.0-1.0-56.0-0.1-0.1,0,0,63784,,529.0,,,68.0,54.0,54.0,1000.0,1000.0,0.0,1.0,1.0,20-40,0.0,,lipstick,fan,40.0,20.0,lipstick10,fan4,60.0,0.0,21K0D7QKFAL._SS500_.jpg,AFAN39.jpg,/static/Category_learning/Stimuli/Experimental_stims/lipstick/21K0D7QKFAL._SS500_.jpg,/static/Category_learning/Stimuli/Experimental_stims/fan/AFAN39.jpg,1.0,lipstick,fan,40.0,20.0,lipstick10,fan4,60.0,0.0,0.0,298.029,0.529,,,,,,
285,,confirmation,,html-keyboard-response,285,424101,0.0-1.0-56.0-0.1-1.1-0.1,0,0,63784,,,,,,54.0,,,,,1.0,,,,,,,,,,,,,,,,,,,,,,,,,,,299.0,0.971,,,,,,
286,,isi,,html-keyboard-response,286,425109,0.0-1.0-56.0-0.1-2.1,0,0,63784,,,,,,54.0,,,,,1.0,,,,,,,,,,,,,,,,,,,,,,,,,,,300.0,1.0,,,,,,
287,,feedback,,html-keyboard-response,287,426127,0.0-1.0-56.0-0.1-3.1-0.1,0,0,63784,,,,,,54.0,,,,,1.0,,,,,,,,,,,,,,,,,,,,,,,,,,,301.0,1.0,,,,,,
288,,iti,,html-keyboard-response,288,429638,0.0-1.0-56.0-0.1-5.1,0,0,63784,,,,,,54.0,,,,,1.0,,,,,,,,,,,,,,,,,,,,,,,,,,,304.5,3.5,,,,,,
289,,choice,,html-keyboard-response,289,430883,0.0-1.0-57.0-0.0-0.0,0,0,63784,,1239.0,,,75.0,55.0,55.0,1000.0,1500.0,0.0,1.0,0.0,20-80,,0.0,flashlight,train,20.0,80.0,flashlight14,train11,20.0,60.0,freeplay-jonta-flashlight.jpg,train1.jpg,/static/Category_learning/Stimuli/Experimental_stims/flashlight/freeplay-jonta-flashlight.jpg,/static/Category_learning/Stimuli/Experimental_stims/train/train1.jpg,0.0,train,flashlight,80.0,20.0,train11,flashlight14,60.0,20.0,0.0,305.739,1.239,,,,,,
290,,confirmation,,html-keyboard-response,290,431156,0.0-1.0-57.0-0.0-1.0-0.0,0,0,63784,,,,,,55.0,,,,,1.0,,,,,,,,,,,,,,,,,,,,,,,,,,,306.0,0.261,,,,,,
291,,isi,,html-keyboard-response,291,432164,0.0-1.0-57.0-0.0-2.0,0,0,63784,,,,,,55.0,,,,,1.0,,,,,,,,,,,,,,,,,,,,,,,,,,,307.0,1.0,,,,,,
292,,feedback,,html-keyboard-response,292,433171,0.0-1.0-57.0-0.0-3.0-0.0,0,0,63784,,,,,,55.0,,,,,1.0,,,,,,,,,,,,,,,,,,,,,,,,,,,308.0,1.0,,,,,,
293,,iti,,html-keyboard-response,293,434677,0.0-1.0-57.0-0.0-5.0,0,0,63784,,,,,,55.0,,,,,1.0,,,,,,,,,,,,,,,,,,,,,,,,,,,309.5,1.5,,,,,,
294,,choice,,html-keyboard-response,294,435357,0.0-1.0-58.0-0.0-0.0,0,0,63784,,676.0,,,68.0,56.0,56.0,1000.0,1500.0,0.0,1.0,0.0,20-80,,0.0,fan,stool,20.0,80.0,fan12,stool9,0.0,100.0,116544_sk_lg.jpg,ASTOOL7.jpg,/static/Category_learning/Stimuli/Experimental_stims/fan/116544_sk_lg.jpg,/static/Category_learning/Stimuli/Experimental_stims/stool/ASTOOL7.jpg,1.0,fan,stool,20.0,80.0,fan12,stool9,0.0,100.0,0.0,310.176,0.676,,,,,,
295,,confirmation,,html-keyboard-response,295,436189,0.0-1.0-58.0-0.0-1.0-0.0,0,0,63784,,,,,,56.0,,,,,1.0,,,,,,,,,,,,,,,,,,,,,,,,,,,311.0,0.824,,,,,,
296,,isi,,html-keyboard-response,296,437196,0.0-1.0-58.0-0.0-2.0,0,0,63784,,,,,,56.0,,,,,1.0,,,,,,,,,,,,,,,,,,,,,,,,,,,312.0,1.0,,,,,,
297,,feedback,,html-keyboard-response,297,438208,0.0-1.0-58.0-0.0-3.0-0.0,0,0,63784,,,,,,56.0,,,,,1.0,,,,,,,,,,,,,,,,,,,,,,,,,,,313.0,1.0,,,,,,
298,,iti,,html-keyboard-response,298,439716,0.0-1.0-58.0-0.0-5.0,0,0,63784,,,,,,56.0,,,,,1.0,,,,,,,,,,,,,,,,,,,,,,,,,,,314.5,1.5,,,,,,
299,,choice,,html-keyboard-response,299,440525,0.0-1.0-59.0-0.0-0.0,0,0,63784,,805.0,,,75.0,57.0,57.0,1500.0,1000.0,0.0,1.0,0.0,20-40,,1.0,motorcycle,bench,40.0,20.0,motorcycle12,bench4,40.0,0.0,motorcycle14.jpg,30892819.thl.jpg,/static/Category_learning/Stimuli/Experimental_stims/motorcycle/motorcycle14.jpg,/static/Category_learning/Stimuli/Experimental_stims/bench/30892819.thl.jpg,0.0,bench,motorcycle,20.0,40.0,bench4,motorcycle12,0.0,40.0,0.0,315.305,0.805,,,,,,
300,,confirmation,,html-keyboard-response,300,441228,0.0-1.0-59.0-0.0-1.0-0.0,0,0,63784,,,,,,57.0,,,,,1.0,,,,,,,,,,,,,,,,,,,,,,,,,,,316.0,0.695,,,,,,
301,,isi,,html-keyboard-response,301,442731,0.0-1.0-59.0-0.0-2.0,0,0,63784,,,,,,57.0,,,,,1.0,,,,,,,,,,,,,,,,,,,,,,,,,,,317.5,1.5,,,,,,
302,,feedback,,html-keyboard-response,302,443742,0.0-1.0-59.0-0.0-3.0-0.0,0,0,63784,,,,,,57.0,,,,,1.0,,,,,,,,,,,,,,,,,,,,,,,,,,,318.5,1.0,,,,,,
303,,iti,,html-keyboard-response,303,444749,0.0-1.0-59.0-0.0-5.0,0,0,63784,,,,,,57.0,,,,,1.0,,,,,,,,,,,,,,,,,,,,,,,,,,,319.5,1.0,,,,,,
304,,choice,,html-keyboard-response,304,445664,0.0-1.0-60.0-0.0-0.0,0,0,63784,,909.0,,,75.0,58.0,58.0,1000.0,2000.0,0.0,1.0,1.0,20-20,1.0,,bench,bench,20.0,20.0,bench5,bench4,0.0,0.0,APARKBEN8.jpg,30892819.thl.jpg,/static/Category_learning/Stimuli/Experimental_stims/bench/APARKBEN8.jpg,/static/Category_learning/Stimuli/Experimental_stims/bench/30892819.thl.jpg,0.0,bench,bench,20.0,20.0,bench4,bench5,0.0,0.0,0.0,320.409,0.909,,,,,,
305,,confirmation,,html-keyboard-response,305,446263,0.0-1.0-60.0-0.0-1.0-0.0,0,0,63784,,,,,,58.0,,,,,1.0,,,,,,,,,,,,,,,,,,,,,,,,,,,321.0,0.591,,,,,,
306,,isi,,html-keyboard-response,306,447274,0.0-1.0-60.0-0.0-2.0,0,0,63784,,,,,,58.0,,,,,1.0,,,,,,,,,,,,,,,,,,,,,,,,,,,322.0,1.0,,,,,,
307,,feedback,,html-keyboard-response,307,448284,0.0-1.0-60.0-0.0-3.0-0.0,0,0,63784,,,,,,58.0,,,,,1.0,,,,,,,,,,,,,,,,,,,,,,,,,,,323.0,1.0,,,,,,
308,,iti,,html-keyboard-response,308,450302,0.0-1.0-60.0-0.0-5.0,0,0,63784,,,,,,58.0,,,,,1.0,,,,,,,,,,,,,,,,,,,,,,,,,,,325.0,2.0,,,,,,
309,,choice,,html-keyboard-response,309,451022,0.0-1.0-61.0-0.0-0.0,0,0,63784,,715.0,,,75.0,59.0,59.0,2000.0,2000.0,0.0,1.0,0.0,40-80,,0.0,microscope,yarn,40.0,80.0,microscope12,yarn2,40.0,60.0,usbdigitalmicroscope1_small1.jpg,Aballofyarn66.jpg,/static/Category_learning/Stimuli/Experimental_stims/microscope/usbdigitalmicroscope1_small1.jpg,/static/Category_learning/Stimuli/Experimental_stims/yarn/Aballofyarn66.jpg,0.0,yarn,microscope,80.0,40.0,yarn2,microscope12,60.0,40.0,0.0,325.715,0.715,,,,,,
310,,confirmation,,html-keyboard-response,310,451825,0.0-1.0-61.0-0.0-1.0-0.0,0,0,63784,,,,,,59.0,,,,,1.0,,,,,,,,,,,,,,,,,,,,,,,,,,,326.5,0.785,,,,,,
311,,isi,,html-keyboard-response,311,453832,0.0-1.0-61.0-0.0-2.0,0,0,63784,,,,,,59.0,,,,,1.0,,,,,,,,,,,,,,,,,,,,,,,,,,,328.5,2.0,,,,,,
312,,feedback,,html-keyboard-response,312,454845,0.0-1.0-61.0-0.0-3.0-0.0,0,0,63784,,,,,,59.0,,,,,1.0,,,,,,,,,,,,,,,,,,,,,,,,,,,329.5,1.0,,,,,,
313,,iti,,html-keyboard-response,313,456850,0.0-1.0-61.0-0.0-5.0,0,0,63784,,,,,,59.0,,,,,1.0,,,,,,,,,,,,,,,,,,,,,,,,,,,331.5,2.0,,,,,,
314,,choice,,html-keyboard-response,314,457699,0.0-1.0-62.0-0.0-0.0,0,0,63784,,846.0,,,68.0,60.0,60.0,1000.0,1500.0,0.0,1.0,0.0,60-60,,,nail polish,necklace,60.0,60.0,nail polish2,necklace8,80.0,40.0,froggy_t.jpg,Anecklace20.jpg,/static/Category_learning/Stimuli/Experimental_stims/nail polish/froggy_t.jpg,/static/Category_learning/Stimuli/Experimental_stims/necklace/Anecklace20.jpg,1.0,nail polish,necklace,60.0,60.0,nail polish2,necklace8,80.0,40.0,0.0,332.346,0.846,,,,,,
315,,confirmation,,html-keyboard-response,315,458360,0.0-1.0-62.0-0.0-1.0-0.0,0,0,63784,,,,,,60.0,,,,,1.0,,,,,,,,,,,,,,,,,,,,,,,,,,,333.0,0.654,,,,,,
316,,isi,,html-keyboard-response,316,459367,0.0-1.0-62.0-0.0-2.0,0,0,63784,,,,,,60.0,,,,,1.0,,,,,,,,,,,,,,,,,,,,,,,,,,,334.0,1.0,,,,,,
317,,feedback,,html-keyboard-response,317,460373,0.0-1.0-62.0-0.0-3.0-0.0,0,0,63784,,,,,,60.0,,,,,1.0,,,,,,,,,,,,,,,,,,,,,,,,,,,335.0,1.0,,,,,,
318,,iti,,html-keyboard-response,318,461882,0.0-1.0-62.0-0.0-5.0,0,0,63784,,,,,,60.0,,,,,1.0,,,,,,,,,,,,,,,,,,,,,,,,,,,336.5,1.5,,,,,,
319,,choice,,html-keyboard-response,319,462796,0.0-1.0-63.0-0.0-0.0,0,0,63784,,909.0,,,75.0,61.0,61.0,1000.0,1500.0,0.0,1.0,0.0,60-80,,1.0,stool,small table,80.0,60.0,stool15,small table6,100.0,80.0,ASTOOL.jpg,ATABLE88.jpg,/static/Category_learning/Stimuli/Experimental_stims/stool/ASTOOL.jpg,/static/Category_learning/Stimuli/Experimental_stims/small table/ATABLE88.jpg,0.0,small table,stool,60.0,80.0,small table6,stool15,80.0,100.0,0.0,337.409,0.909,,,,,,
320,,confirmation,,html-keyboard-response,320,463397,0.0-1.0-63.0-0.0-1.0-0.0,0,0,63784,,,,,,61.0,,,,,1.0,,,,,,,,,,,,,,,,,,,,,,,,,,,338.0,0.591,,,,,,
321,,isi,,html-keyboard-response,321,464406,0.0-1.0-63.0-0.0-2.0,0,0,63784,,,,,,61.0,,,,,1.0,,,,,,,,,,,,,,,,,,,,,,,,,,,339.0,1.0,,,,,,
322,,feedback,,html-keyboard-response,322,465418,0.0-1.0-63.0-0.0-3.0-0.0,0,0,63784,,,,,,61.0,,,,,1.0,,,,,,,,,,,,,,,,,,,,,,,,,,,340.0,1.0,,,,,,
323,,iti,,html-keyboard-response,323,466926,0.0-1.0-63.0-0.0-5.0,0,0,63784,,,,,,61.0,,,,,1.0,,,,,,,,,,,,,,,,,,,,,,,,,,,341.5,1.5,,,,,,
324,,choice,,html-keyboard-response,324,467440,0.0-1.0-64.0-0.0-0.0,0,0,63784,,509.0,,,68.0,62.0,62.0,1000.0,1000.0,0.0,1.0,0.0,40-60,,1.0,seashell,microscope,60.0,40.0,seashell9,microscope11,80.0,20.0,ASEASH5.jpg,konus5604microscope.jpg,/static/Category_learning/Stimuli/Experimental_stims/seashell/ASEASH5.jpg,/static/Category_learning/Stimuli/Experimental_stims/microscope/konus5604microscope.jpg,1.0,seashell,microscope,60.0,40.0,seashell9,microscope11,80.0,20.0,0.0,342.009,0.509,,,,,,
325,,confirmation,,html-keyboard-response,325,468439,0.0-1.0-64.0-0.0-1.0-0.0,0,0,63784,,,,,,62.0,,,,,1.0,,,,,,,,,,,,,,,,,,,,,,,,,,,343.0,0.991,,,,,,
326,,isi,,html-keyboard-response,326,469447,0.0-1.0-64.0-0.0-2.0,0,0,63784,,,,,,62.0,,,,,1.0,,,,,,,,,,,,,,,,,,,,,,,,,,,344.0,1.0,,,,,,
327,,feedback,,html-keyboard-response,327,470459,0.0-1.0-64.0-0.0-3.0-0.0,0,0,63784,,,,,,62.0,,,,,1.0,,,,,,,,,,,,,,,,,,,,,,,,,,,345.0,1.0,,,,,,
328,,iti,,html-keyboard-response,328,471466,0.0-1.0-64.0-0.0-5.0,0,0,63784,,,,,,62.0,,,,,1.0,,,,,,,,,,,,,,,,,,,,,,,,,,,346.0,1.0,,,,,,
329,,choice,,html-keyboard-response,329,472152,0.0-1.0-65.0-0.0-0.0,0,0,63784,,681.0,,,68.0,63.0,63.0,1000.0,1500.0,0.0,1.0,0.0,20-80,,0.0,bowl,stool,20.0,80.0,bowl3,stool5,40.0,60.0,ABOWL8.jpg,ASTOOL23.jpg,/static/Category_learning/Stimuli/Experimental_stims/bowl/ABOWL8.jpg,/static/Category_learning/Stimuli/Experimental_stims/stool/ASTOOL23.jpg,1.0,bowl,stool,20.0,80.0,bowl3,stool5,40.0,60.0,0.0,346.681,0.681,,,,,,
330,,confirmation,,html-keyboard-response,330,472979,0.0-1.0-65.0-0.0-1.0-0.0,0,0,63784,,,,,,63.0,,,,,1.0,,,,,,,,,,,,,,,,,,,,,,,,,,,347.5,0.819,,,,,,
331,,isi,,html-keyboard-response,331,473990,0.0-1.0-65.0-0.0-2.0,0,0,63784,,,,,,63.0,,,,,1.0,,,,,,,,,,,,,,,,,,,,,,,,,,,348.5,1.0,,,,,,
332,,feedback,,html-keyboard-response,332,474997,0.0-1.0-65.0-0.0-3.0-0.0,0,0,63784,,,,,,63.0,,,,,1.0,,,,,,,,,,,,,,,,,,,,,,,,,,,349.5,1.0,,,,,,
333,,iti,,html-keyboard-response,333,476506,0.0-1.0-65.0-0.0-5.0,0,0,63784,,,,,,63.0,,,,,1.0,,,,,,,,,,,,,,,,,,,,,,,,,,,351.0,1.5,,,,,,
334,,block_over,,html-keyboard-response,334,479871,0.0-1.0-65.0-0.0-7.0-0.0,0,0,63784,,3356.0,,,68.0,63.0,,,,,,,,,,,,,,,,,,,,,,,,,,,,,,,,,,,,,,,
335,,start_run,,html-keyboard-response,335,481839,0.0-1.0-65.0-0.0-7.0-1.0,0,0,63784,,1966.0,,,84.0,,,,,,,,,,,,,,,,,,,,,,,,,,,,,,,,,,,,,,,,
336,,choice,,html-keyboard-response,336,482473,0.0-1.0-66.0-0.0-0.0,0,0,63784,,630.0,,,75.0,64.0,65.0,1000.0,1000.0,0.0,2.0,0.0,40-80,,1.0,watch,makeup compact,80.0,40.0,watch1,makeup compact9,80.0,40.0,B000B5K8XI.01-A2E7J74KJYV9ZH._AA280_SCLZZZZZZZ_V53007008_.jpg,b_102019.jpg,/static/Category_learning/Stimuli/Experimental_stims/watch/B000B5K8XI.01-A2E7J74KJYV9ZH._AA280_SCLZZZZZZZ_V53007008_.jpg,/static/Category_learning/Stimuli/Experimental_stims/makeup compact/b_102019.jpg,0.0,makeup compact,watch,40.0,80.0,makeup compact9,watch1,40.0,80.0,0.0,0.63,0.63,,,,,,
337,,confirmation,,html-keyboard-response,337,483349,0.0-1.0-66.0-0.0-1.0-0.0,0,0,63784,,,,,,64.0,,,,,2.0,,,,,,,,,,,,,,,,,,,,,,,,,,,1.5,0.87,,,,,,
338,,isi,,html-keyboard-response,338,484364,0.0-1.0-66.0-0.0-2.0,0,0,63784,,,,,,64.0,,,,,2.0,,,,,,,,,,,,,,,,,,,,,,,,,,,2.5,1.0,,,,,,
339,,feedback,,html-keyboard-response,339,485368,0.0-1.0-66.0-0.0-3.0-0.0,0,0,63784,,,,,,64.0,,,,,2.0,,,,,,,,,,,,,,,,,,,,,,,,,,,3.5,1.0,,,,,,
340,,iti,,html-keyboard-response,340,486375,0.0-1.0-66.0-0.0-5.0,0,0,63784,,,,,,64.0,,,,,2.0,,,,,,,,,,,,,,,,,,,,,,,,,,,4.5,1.0,,,,,,
341,,choice,,html-keyboard-response,341,487183,0.0-1.0-67.0-0.0-0.0,0,0,63784,,805.0,,,68.0,65.0,66.0,3500.0,2000.0,0.0,2.0,0.0,20-80,,1.0,vase,bench,80.0,20.0,vase12,bench13,100.0,40.0,Abluevase2.jpg,ABROWNBE4.jpg,/static/Category_learning/Stimuli/Experimental_stims/vase/Abluevase2.jpg,/static/Category_learning/Stimuli/Experimental_stims/bench/ABROWNBE4.jpg,1.0,vase,bench,80.0,20.0,vase12,bench13,100.0,40.0,0.0,5.305,0.805,,,,,,
342,,confirmation,,html-keyboard-response,342,487885,0.0-1.0-67.0-0.0-1.0-0.0,0,0,63784,,,,,,65.0,,,,,2.0,,,,,,,,,,,,,,,,,,,,,,,,,,,6.0,0.695,,,,,,
343,,isi,,html-keyboard-response,343,491394,0.0-1.0-67.0-0.0-2.0,0,0,63784,,,,,,65.0,,,,,2.0,,,,,,,,,,,,,,,,,,,,,,,,,,,9.5,3.5,,,,,,
344,,feedback,,html-keyboard-response,344,492401,0.0-1.0-67.0-0.0-3.0-0.0,0,0,63784,,,,,,65.0,,,,,2.0,,,,,,,,,,,,,,,,,,,,,,,,,,,10.5,1.0,,,,,,
345,,iti,,html-keyboard-response,345,494413,0.0-1.0-67.0-0.0-5.0,0,0,63784,,,,,,65.0,,,,,2.0,,,,,,,,,,,,,,,,,,,,,,,,,,,12.5,2.0,,,,,,
346,,choice,,html-keyboard-response,346,495787,0.0-1.0-68.0-0.0-0.0,0,0,63784,,1370.0,,,68.0,66.0,67.0,1000.0,1000.0,0.0,2.0,0.0,20-80,,0.0,fan,trumpet,20.0,80.0,fan2,trumpet12,40.0,80.0,507349_sk_lg.jpg,hornabariton.jpg,/static/Category_learning/Stimuli/Experimental_stims/fan/507349_sk_lg.jpg,/static/Category_learning/Stimuli/Experimental_stims/trumpet/hornabariton.jpg,1.0,fan,trumpet,20.0,80.0,fan2,trumpet12,40.0,80.0,0.0,13.87,1.37,,,,,,
347,,confirmation,,html-keyboard-response,347,495923,0.0-1.0-68.0-0.0-1.0-0.0,0,0,63784,,,,,,66.0,,,,,2.0,,,,,,,,,,,,,,,,,,,,,,,,,,,14.000000000000002,0.13,,,,,,
348,,isi,,html-keyboard-response,348,496929,0.0-1.0-68.0-0.0-2.0,0,0,63784,,,,,,66.0,,,,,2.0,,,,,,,,,,,,,,,,,,,,,,,,,,,15.000000000000002,1.0,,,,,,
349,,feedback,,html-keyboard-response,349,497944,0.0-1.0-68.0-0.0-3.0-0.0,0,0,63784,,,,,,66.0,,,,,2.0,,,,,,,,,,,,,,,,,,,,,,,,,,,16.0,1.0,,,,,,
350,,iti,,html-keyboard-response,350,498950,0.0-1.0-68.0-0.0-5.0,0,0,63784,,,,,,66.0,,,,,2.0,,,,,,,,,,,,,,,,,,,,,,,,,,,17.0,1.0,,,,,,
351,,choice,,html-keyboard-response,351,499685,0.0-1.0-69.0-0.0-0.0,0,0,63784,,731.0,,,75.0,67.0,68.0,2000.0,1000.0,0.0,2.0,0.0,60-60,,,pen,poker card,60.0,60.0,pen4,poker card9,80.0,80.0,Montblanc_Greta_Garbo_BP copy.jpg,9817230.thl.jpg,/static/Category_learning/Stimuli/Experimental_stims/pen/Montblanc_Greta_Garbo_BP copy.jpg,/static/Category_learning/Stimuli/Experimental_stims/poker card/9817230.thl.jpg,0.0,poker card,pen,60.0,60.0,poker card9,pen4,80.0,80.0,0.0,17.731,0.731,,,,,,
352,,confirmation,,html-keyboard-response,352,500468,0.0-1.0-69.0-0.0-1.0-0.0,0,0,63784,,,,,,67.0,,,,,2.0,,,,,,,,,,,,,,,,,,,,,,,,,,,18.5,0.769,,,,,,
353,,isi,,html-keyboard-response,353,502478,0.0-1.0-69.0-0.0-2.0,0,0,63784,,,,,,67.0,,,,,2.0,,,,,,,,,,,,,,,,,,,,,,,,,,,20.5,2.0,,,,,,
354,,feedback,,html-keyboard-response,354,503489,0.0-1.0-69.0-0.0-3.0-0.0,0,0,63784,,,,,,67.0,,,,,2.0,,,,,,,,,,,,,,,,,,,,,,,,,,,21.5,1.0,,,,,,
355,,iti,,html-keyboard-response,355,504497,0.0-1.0-69.0-0.0-5.0,0,0,63784,,,,,,67.0,,,,,2.0,,,,,,,,,,,,,,,,,,,,,,,,,,,22.5,1.0,,,,,,
356,,choice,,html-keyboard-response,356,505687,0.0-1.0-70.0-0.0-0.0,0,0,63784,,1186.0,,,75.0,68.0,69.0,1000.0,1000.0,0.0,2.0,0.0,20-20,,,baby carriage,fan,20.0,20.0,baby carriage9,fan11,0.0,0.0,Antique baby Carriage 7.jpg,n_sf.jpg,/static/Category_learning/Stimuli/Experimental_stims/baby carriage/Antique baby Carriage 7.jpg,/static/Category_learning/Stimuli/Experimental_stims/fan/n_sf.jpg,0.0,fan,baby carriage,20.0,20.0,fan11,baby carriage9,0.0,0.0,0.0,23.686,1.186,,,,,,
357,,confirmation,,html-keyboard-response,357,506008,0.0-1.0-70.0-0.0-1.0-0.0,0,0,63784,,,,,,68.0,,,,,2.0,,,,,,,,,,,,,,,,,,,,,,,,,,,24.0,0.314,,,,,,
358,,isi,,html-keyboard-response,358,507023,0.0-1.0-70.0-0.0-2.0,0,0,63784,,,,,,68.0,,,,,2.0,,,,,,,,,,,,,,,,,,,,,,,,,,,25.0,1.0,,,,,,
359,,feedback,,html-keyboard-response,359,508027,0.0-1.0-70.0-0.0-3.0-0.0,0,0,63784,,,,,,68.0,,,,,2.0,,,,,,,,,,,,,,,,,,,,,,,,,,,26.0,1.0,,,,,,
360,,iti,,html-keyboard-response,360,509039,0.0-1.0-70.0-0.0-5.0,0,0,63784,,,,,,68.0,,,,,2.0,,,,,,,,,,,,,,,,,,,,,,,,,,,27.0,1.0,,,,,,
361,,choice,,html-keyboard-response,361,509931,0.0-1.0-71.0-0.0-0.0,0,0,63784,,889.0,,,75.0,69.0,70.0,1500.0,1000.0,0.0,2.0,0.0,20-80,,1.0,stool,dresser,80.0,20.0,stool2,dresser1,60.0,0.0,ASTOOL46.jpg,ADRESSE52.jpg,/static/Category_learning/Stimuli/Experimental_stims/stool/ASTOOL46.jpg,/static/Category_learning/Stimuli/Experimental_stims/dresser/ADRESSE52.jpg,0.0,dresser,stool,20.0,80.0,dresser1,stool2,0.0,60.0,0.0,27.889,0.889,,,,,,
362,,confirmation,,html-keyboard-response,362,510552,0.0-1.0-71.0-0.0-1.0-0.0,0,0,63784,,,,,,69.0,,,,,2.0,,,,,,,,,,,,,,,,,,,,,,,,,,,28.5,0.611,,,,,,
363,,isi,,html-keyboard-response,363,512058,0.0-1.0-71.0-0.0-2.0,0,0,63784,,,,,,69.0,,,,,2.0,,,,,,,,,,,,,,,,,,,,,,,,,,,30.0,1.5,,,,,,
364,,feedback,,html-keyboard-response,364,513066,0.0-1.0-71.0-0.0-3.0-0.0,0,0,63784,,,,,,69.0,,,,,2.0,,,,,,,,,,,,,,,,,,,,,,,,,,,31.0,1.0,,,,,,
365,,iti,,html-keyboard-response,365,514071,0.0-1.0-71.0-0.0-5.0,0,0,63784,,,,,,69.0,,,,,2.0,,,,,,,,,,,,,,,,,,,,,,,,,,,32.0,1.0,,,,,,
366,,choice,,html-keyboard-response,366,515056,0.0-1.0-72.0-0.0-0.0,0,0,63784,,981.0,,,75.0,70.0,71.0,3500.0,2000.0,0.0,2.0,0.0,20-80,,0.0,desk,stool,20.0,80.0,desk4,stool11,40.0,60.0,AbbeyMiniRadialBIG(1).jpg,ASTOOL28.jpg,/static/Category_learning/Stimuli/Experimental_stims/desk/AbbeyMiniRadialBIG(1).jpg,/static/Category_learning/Stimuli/Experimental_stims/stool/ASTOOL28.jpg,0.0,stool,desk,80.0,20.0,stool11,desk4,60.0,40.0,0.0,32.981,0.981,,,,,,
367,,confirmation,,html-keyboard-response,367,515581,0.0-1.0-72.0-0.0-1.0-0.0,0,0,63784,,,,,,70.0,,,,,2.0,,,,,,,,,,,,,,,,,,,,,,,,,,,33.5,0.519,,,,,,
368,,isi,,html-keyboard-response,368,519087,0.0-1.0-72.0-0.0-2.0,0,0,63784,,,,,,70.0,,,,,2.0,,,,,,,,,,,,,,,,,,,,,,,,,,,37.0,3.5,,,,,,
369,,feedback,,html-keyboard-response,369,520097,0.0-1.0-72.0-0.0-3.0-0.0,0,0,63784,,,,,,70.0,,,,,2.0,,,,,,,,,,,,,,,,,,,,,,,,,,,38.0,1.0,,,,,,
370,,iti,,html-keyboard-response,370,522104,0.0-1.0-72.0-0.0-5.0,0,0,63784,,,,,,70.0,,,,,2.0,,,,,,,,,,,,,,,,,,,,,,,,,,,40.0,2.0,,,,,,
371,,choice,,html-keyboard-response,371,523045,0.0-1.0-73.0-0.0-0.0,0,0,63784,,937.0,,,75.0,71.0,72.0,2000.0,1500.0,0.0,2.0,0.0,40-60,,0.0,license plate,poker card,40.0,60.0,license plate1,poker card2,40.0,60.0,il-423-3784.jpg,22864716.thl.jpg,/static/Category_learning/Stimuli/Experimental_stims/license plate/il-423-3784.jpg,/static/Category_learning/Stimuli/Experimental_stims/poker card/22864716.thl.jpg,0.0,poker card,license plate,60.0,40.0,poker card2,license plate1,60.0,40.0,0.0,40.937,0.937,,,,,,
372,,confirmation,,html-keyboard-response,372,523621,0.0-1.0-73.0-0.0-1.0-0.0,0,0,63784,,,,,,71.0,,,,,2.0,,,,,,,,,,,,,,,,,,,,,,,,,,,41.5,0.563,,,,,,
373,,isi,,html-keyboard-response,373,525632,0.0-1.0-73.0-0.0-2.0,0,0,63784,,,,,,71.0,,,,,2.0,,,,,,,,,,,,,,,,,,,,,,,,,,,43.5,2.0,,,,,,
374,,feedback,,html-keyboard-response,374,526642,0.0-1.0-73.0-0.0-3.0-0.0,0,0,63784,,,,,,71.0,,,,,2.0,,,,,,,,,,,,,,,,,,,,,,,,,,,44.5,1.0,,,,,,
375,,iti,,html-keyboard-response,375,528156,0.0-1.0-73.0-0.0-5.0,0,0,63784,,,,,,71.0,,,,,2.0,,,,,,,,,,,,,,,,,,,,,,,,,,,46.0,1.5,,,,,,
376,,choice,,html-keyboard-response,376,529662,0.0-1.0-74.0-0.0-0.0,0,0,63784,,,,,,72.0,73.0,1500.0,1500.0,0.0,2.0,1.0,20-20,1.0,,fan,fan,20.0,20.0,fan12,fan11,0.0,0.0,116544_sk_lg.jpg,n_sf.jpg,/static/Category_learning/Stimuli/Experimental_stims/fan/116544_sk_lg.jpg,/static/Category_learning/Stimuli/Experimental_stims/fan/n_sf.jpg,,,,,,,,,,1.0,47.5,1.5,,,,,,
377,,isi,,html-keyboard-response,377,531168,0.0-1.0-74.0-0.0-2.0,0,0,63784,,,,,,72.0,,,,,2.0,,,,,,,,,,,,,,,,,,,,,,,,,,,49.0,1.5,,,,,,
378,,no_response,,html-keyboard-response,378,532181,0.0-1.0-74.0-0.0-4.0-0.0,0,0,63784,,,,,,72.0,,,,,2.0,,,,,,,,,,,,,,,,,,,,,,,,,,,50.0,1.0,,,,,,
379,,iti,,html-keyboard-response,379,533705,0.0-1.0-74.0-0.0-5.0,0,0,63784,,,,,,72.0,,,,,2.0,,,,,,,,,,,,,,,,,,,,,,,,,,,51.5,1.5,,,,,,
380,,choice,,html-keyboard-response,380,534100,0.0-1.0-74.0-0.1-0.1,0,0,63784,,390.0,,,68.0,72.0,73.0,1500.0,1500.0,0.0,2.0,1.0,20-20,1.0,,fan,fan,20.0,20.0,fan12,fan11,0.0,0.0,116544_sk_lg.jpg,n_sf.jpg,/static/Category_learning/Stimuli/Experimental_stims/fan/116544_sk_lg.jpg,/static/Category_learning/Stimuli/Experimental_stims/fan/n_sf.jpg,1.0,fan,fan,20.0,20.0,fan12,fan11,0.0,0.0,0.0,51.89,0.39,,,,,,
381,,confirmation,,html-keyboard-response,381,535221,0.0-1.0-74.0-0.1-1.1-0.1,0,0,63784,,,,,,72.0,,,,,2.0,,,,,,,,,,,,,,,,,,,,,,,,,,,53.0,1.11,,,,,,
382,,isi,,html-keyboard-response,382,536729,0.0-1.0-74.0-0.1-2.1,0,0,63784,,,,,,72.0,,,,,2.0,,,,,,,,,,,,,,,,,,,,,,,,,,,54.5,1.5,,,,,,
383,,feedback,,html-keyboard-response,383,537742,0.0-1.0-74.0-0.1-3.1-0.1,0,0,63784,,,,,,72.0,,,,,2.0,,,,,,,,,,,,,,,,,,,,,,,,,,,55.5,1.0,,,,,,
384,,iti,,html-keyboard-response,384,541261,0.0-1.0-74.0-0.1-5.1,0,0,63784,,,,,,72.0,,,,,2.0,,,,,,,,,,,,,,,,,,,,,,,,,,,59.0,3.5,,,,,,
385,,choice,,html-keyboard-response,385,542655,0.0-1.0-75.0-0.0-0.0,0,0,63784,,1390.0,,,68.0,73.0,74.0,1000.0,2000.0,0.0,2.0,0.0,20-60,,0.0,flashlight,poker card,20.0,60.0,flashlight8,poker card12,40.0,80.0,Streamlight-Stinger-Rechargeable-Flashlight-with-Charger-Black-75014-B00008BFSI-L.jpg,22865676.thl.jpg,/static/Category_learning/Stimuli/Experimental_stims/flashlight/Streamlight-Stinger-Rechargeable-Flashlight-with-Charger-Black-75014-B00008BFSI-L.jpg,/static/Category_learning/Stimuli/Experimental_stims/poker card/22865676.thl.jpg,1.0,flashlight,poker card,20.0,60.0,flashlight8,poker card12,40.0,80.0,0.0,60.39,1.39,,,,,,
386,,confirmation,,html-keyboard-response,386,542775,0.0-1.0-75.0-0.0-1.0-0.0,0,0,63784,,,,,,73.0,,,,,2.0,,,,,,,,,,,,,,,,,,,,,,,,,,,60.5,0.11,,,,,,
387,,isi,,html-keyboard-response,387,543786,0.0-1.0-75.0-0.0-2.0,0,0,63784,,,,,,73.0,,,,,2.0,,,,,,,,,,,,,,,,,,,,,,,,,,,61.5,1.0,,,,,,
388,,feedback,,html-keyboard-response,388,544795,0.0-1.0-75.0-0.0-3.0-0.0,0,0,63784,,,,,,73.0,,,,,2.0,,,,,,,,,,,,,,,,,,,,,,,,,,,62.5,1.0,,,,,,
389,,iti,,html-keyboard-response,389,546808,0.0-1.0-75.0-0.0-5.0,0,0,63784,,,,,,73.0,,,,,2.0,,,,,,,,,,,,,,,,,,,,,,,,,,,64.5,2.0,,,,,,
390,,choice,,html-keyboard-response,390,548172,0.0-1.0-76.0-0.0-0.0,0,0,63784,,1359.0,,,68.0,74.0,75.0,1500.0,1000.0,0.0,2.0,0.0,20-80,,0.0,bongo,stool,20.0,80.0,bongo3,stool4,20.0,60.0,26390697.thl.jpg,ASTOOL22.jpg,/static/Category_learning/Stimuli/Experimental_stims/bongo/26390697.thl.jpg,/static/Category_learning/Stimuli/Experimental_stims/stool/ASTOOL22.jpg,1.0,bongo,stool,20.0,80.0,bongo3,stool4,20.0,60.0,0.0,65.859,1.359,,,,,,
391,,confirmation,,html-keyboard-response,391,548317,0.0-1.0-76.0-0.0-1.0-0.0,0,0,63784,,,,,,74.0,,,,,2.0,,,,,,,,,,,,,,,,,,,,,,,,,,,66.0,0.141,,,,,,
392,,isi,,html-keyboard-response,392,549827,0.0-1.0-76.0-0.0-2.0,0,0,63784,,,,,,74.0,,,,,2.0,,,,,,,,,,,,,,,,,,,,,,,,,,,67.5,1.5,,,,,,
393,,feedback,,html-keyboard-response,393,550841,0.0-1.0-76.0-0.0-3.0-0.0,0,0,63784,,,,,,74.0,,,,,2.0,,,,,,,,,,,,,,,,,,,,,,,,,,,68.5,1.0,,,,,,
394,,iti,,html-keyboard-response,394,551849,0.0-1.0-76.0-0.0-5.0,0,0,63784,,,,,,74.0,,,,,2.0,,,,,,,,,,,,,,,,,,,,,,,,,,,69.5,1.0,,,,,,
395,,choice,,html-keyboard-response,395,552780,0.0-1.0-77.0-0.0-0.0,0,0,63784,,927.0,,,68.0,75.0,76.0,3000.0,2000.0,0.0,2.0,0.0,40-40,,,makeup compact,motorcycle,40.0,40.0,makeup compact6,motorcycle8,20.0,20.0,P0754_hero.jpg,Motorcycle903425j2.jpg,/static/Category_learning/Stimuli/Experimental_stims/makeup compact/P0754_hero.jpg,/static/Category_learning/Stimuli/Experimental_stims/motorcycle/Motorcycle903425j2.jpg,1.0,makeup compact,motorcycle,40.0,40.0,makeup compact6,motorcycle8,20.0,20.0,0.0,70.427,0.927,,,,,,
396,,confirmation,,html-keyboard-response,396,553362,0.0-1.0-77.0-0.0-1.0-0.0,0,0,63784,,,,,,75.0,,,,,2.0,,,,,,,,,,,,,,,,,,,,,,,,,,,71.0,0.573,,,,,,
397,,isi,,html-keyboard-response,397,556369,0.0-1.0-77.0-0.0-2.0,0,0,63784,,,,,,75.0,,,,,2.0,,,,,,,,,,,,,,,,,,,,,,,,,,,74.0,3.0,,,,,,
398,,feedback,,html-keyboard-response,398,557376,0.0-1.0-77.0-0.0-3.0-0.0,0,0,63784,,,,,,75.0,,,,,2.0,,,,,,,,,,,,,,,,,,,,,,,,,,,75.0,1.0,,,,,,
399,,iti,,html-keyboard-response,399,559380,0.0-1.0-77.0-0.0-5.0,0,0,63784,,,,,,75.0,,,,,2.0,,,,,,,,,,,,,,,,,,,,,,,,,,,77.0,2.0,,,,,,
400,,choice,,html-keyboard-response,400,560230,0.0-1.0-78.0-0.0-0.0,0,0,63784,,845.0,,,75.0,76.0,77.0,3000.0,1000.0,0.0,2.0,1.0,80-80,1.0,,vase,vase,80.0,80.0,vase14,vase12,80.0,100.0,Avase119.jpg,Abluevase2.jpg,/static/Category_learning/Stimuli/Experimental_stims/vase/Avase119.jpg,/static/Category_learning/Stimuli/Experimental_stims/vase/Abluevase2.jpg,0.0,vase,vase,80.0,80.0,vase12,vase14,100.0,80.0,0.0,77.845,0.845,,,,,,
401,,confirmation,,html-keyboard-response,401,560902,0.0-1.0-78.0-0.0-1.0-0.0,0,0,63784,,,,,,76.0,,,,,2.0,,,,,,,,,,,,,,,,,,,,,,,,,,,78.5,0.655,,,,,,
402,,isi,,html-keyboard-response,402,563908,0.0-1.0-78.0-0.0-2.0,0,0,63784,,,,,,76.0,,,,,2.0,,,,,,,,,,,,,,,,,,,,,,,,,,,81.5,3.0,,,,,,
403,,feedback,,html-keyboard-response,403,564918,0.0-1.0-78.0-0.0-3.0-0.0,0,0,63784,,,,,,76.0,,,,,2.0,,,,,,,,,,,,,,,,,,,,,,,,,,,82.5,1.0,,,,,,
404,,iti,,html-keyboard-response,404,565924,0.0-1.0-78.0-0.0-5.0,0,0,63784,,,,,,76.0,,,,,2.0,,,,,,,,,,,,,,,,,,,,,,,,,,,83.5,1.0,,,,,,
405,,choice,,html-keyboard-response,405,566660,0.0-1.0-79.0-0.0-0.0,0,0,63784,,730.0,,,68.0,77.0,78.0,1500.0,1000.0,0.0,2.0,0.0,60-60,,,patio lounge chair,pen,60.0,60.0,patio lounge chair9,pen6,60.0,40.0,43-3.jpg,executive_pen2.jpg,/static/Category_learning/Stimuli/Experimental_stims/patio lounge chair/43-3.jpg,/static/Category_learning/Stimuli/Experimental_stims/pen/executive_pen2.jpg,1.0,patio lounge chair,pen,60.0,60.0,patio lounge chair9,pen6,60.0,40.0,0.0,84.23,0.73,,,,,,
406,,confirmation,,html-keyboard-response,406,567438,0.0-1.0-79.0-0.0-1.0-0.0,0,0,63784,,,,,,77.0,,,,,2.0,,,,,,,,,,,,,,,,,,,,,,,,,,,85.0,0.77,,,,,,
407,,isi,,html-keyboard-response,407,568943,0.0-1.0-79.0-0.0-2.0,0,0,63784,,,,,,77.0,,,,,2.0,,,,,,,,,,,,,,,,,,,,,,,,,,,86.5,1.5,,,,,,
408,,feedback,,html-keyboard-response,408,569950,0.0-1.0-79.0-0.0-3.0-0.0,0,0,63784,,,,,,77.0,,,,,2.0,,,,,,,,,,,,,,,,,,,,,,,,,,,87.5,1.0,,,,,,
409,,iti,,html-keyboard-response,409,570961,0.0-1.0-79.0-0.0-5.0,0,0,63784,,,,,,77.0,,,,,2.0,,,,,,,,,,,,,,,,,,,,,,,,,,,88.5,1.0,,,,,,
410,,choice,,html-keyboard-response,410,571735,0.0-1.0-80.0-0.0-0.0,0,0,63784,,770.0,,,75.0,78.0,79.0,1000.0,2000.0,0.0,2.0,1.0,40-40,1.0,,makeup compact,makeup compact,40.0,40.0,makeup compact13,makeup compact6,40.0,20.0,31YfapjS3TL._AA250_.jpg,P0754_hero.jpg,/static/Category_learning/Stimuli/Experimental_stims/makeup compact/31YfapjS3TL._AA250_.jpg,/static/Category_learning/Stimuli/Experimental_stims/makeup compact/P0754_hero.jpg,0.0,makeup compact,makeup compact,40.0,40.0,makeup compact6,makeup compact13,20.0,40.0,0.0,89.27,0.77,,,,,,
411,,confirmation,,html-keyboard-response,411,572474,0.0-1.0-80.0-0.0-1.0-0.0,0,0,63784,,,,,,78.0,,,,,2.0,,,,,,,,,,,,,,,,,,,,,,,,,,,90.0,0.73,,,,,,
412,,isi,,html-keyboard-response,412,573485,0.0-1.0-80.0-0.0-2.0,0,0,63784,,,,,,78.0,,,,,2.0,,,,,,,,,,,,,,,,,,,,,,,,,,,91.0,1.0,,,,,,
413,,feedback,,html-keyboard-response,413,574496,0.0-1.0-80.0-0.0-3.0-0.0,0,0,63784,,,,,,78.0,,,,,2.0,,,,,,,,,,,,,,,,,,,,,,,,,,,92.0,1.0,,,,,,
414,,iti,,html-keyboard-response,414,576507,0.0-1.0-80.0-0.0-5.0,0,0,63784,,,,,,78.0,,,,,2.0,,,,,,,,,,,,,,,,,,,,,,,,,,,94.0,2.0,,,,,,
415,,choice,,html-keyboard-response,415,577469,0.0-1.0-81.0-0.0-0.0,0,0,63784,,959.0,,,68.0,79.0,80.0,2000.0,1000.0,0.0,2.0,0.0,20-60,,0.0,bowl,necklace,20.0,60.0,bowl7,necklace4,20.0,40.0,Abowl54.jpg,emerald_diamond_necklace.jpg,/static/Category_learning/Stimuli/Experimental_stims/bowl/Abowl54.jpg,/static/Category_learning/Stimuli/Experimental_stims/necklace/emerald_diamond_necklace.jpg,1.0,bowl,necklace,20.0,60.0,bowl7,necklace4,20.0,40.0,0.0,94.959,0.959,,,,,,
416,,confirmation,,html-keyboard-response,416,578015,0.0-1.0-81.0-0.0-1.0-0.0,0,0,63784,,,,,,79.0,,,,,2.0,,,,,,,,,,,,,,,,,,,,,,,,,,,95.5,0.541,,,,,,
417,,isi,,html-keyboard-response,417,580020,0.0-1.0-81.0-0.0-2.0,0,0,63784,,,,,,79.0,,,,,2.0,,,,,,,,,,,,,,,,,,,,,,,,,,,97.5,2.0,,,,,,
418,,feedback,,html-keyboard-response,418,581032,0.0-1.0-81.0-0.0-3.0-0.0,0,0,63784,,,,,,79.0,,,,,2.0,,,,,,,,,,,,,,,,,,,,,,,,,,,98.5,1.0,,,,,,
419,,iti,,html-keyboard-response,419,582044,0.0-1.0-81.0-0.0-5.0,0,0,63784,,,,,,79.0,,,,,2.0,,,,,,,,,,,,,,,,,,,,,,,,,,,99.5,1.0,,,,,,
420,,choice,,html-keyboard-response,420,583173,0.0-1.0-82.0-0.0-0.0,0,0,63784,,1126.0,,,75.0,80.0,81.0,1500.0,1000.0,0.0,2.0,0.0,20-80,,1.0,vase,bongo,80.0,20.0,vase11,bongo12,100.0,40.0,Ethnic_Ceramic_Vase.jpg,26686609.thl.jpg,/static/Category_learning/Stimuli/Experimental_stims/vase/Ethnic_Ceramic_Vase.jpg,/static/Category_learning/Stimuli/Experimental_stims/bongo/26686609.thl.jpg,0.0,bongo,vase,20.0,80.0,bongo12,vase11,40.0,100.0,0.0,100.626,1.126,,,,,,
421,,confirmation,,html-keyboard-response,421,583559,0.0-1.0-82.0-0.0-1.0-0.0,0,0,63784,,,,,,80.0,,,,,2.0,,,,,,,,,,,,,,,,,,,,,,,,,,,101.0,0.374,,,,,,
422,,isi,,html-keyboard-response,422,585067,0.0-1.0-82.0-0.0-2.0,0,0,63784,,,,,,80.0,,,,,2.0,,,,,,,,,,,,,,,,,,,,,,,,,,,102.5,1.5,,,,,,
423,,feedback,,html-keyboard-response,423,586076,0.0-1.0-82.0-0.0-3.0-0.0,0,0,63784,,,,,,80.0,,,,,2.0,,,,,,,,,,,,,,,,,,,,,,,,,,,103.5,1.0,,,,,,
424,,iti,,html-keyboard-response,424,587084,0.0-1.0-82.0-0.0-5.0,0,0,63784,,,,,,80.0,,,,,2.0,,,,,,,,,,,,,,,,,,,,,,,,,,,104.5,1.0,,,,,,
425,,choice,,html-keyboard-response,425,588119,0.0-1.0-83.0-0.0-0.0,0,0,63784,,1030.0,,,75.0,81.0,82.0,1000.0,1500.0,0.0,2.0,0.0,40-80,,1.0,yarn,makeup compact,80.0,40.0,yarn10,makeup compact7,60.0,20.0,revelation-yarn.jpg,P187133_hero.jpg,/static/Category_learning/Stimuli/Experimental_stims/yarn/revelation-yarn.jpg,/static/Category_learning/Stimuli/Experimental_stims/makeup compact/P187133_hero.jpg,0.0,makeup compact,yarn,40.0,80.0,makeup compact7,yarn10,20.0,60.0,0.0,105.53,1.03,,,,,,
426,,confirmation,,html-keyboard-response,426,588596,0.0-1.0-83.0-0.0-1.0-0.0,0,0,63784,,,,,,81.0,,,,,2.0,,,,,,,,,,,,,,,,,,,,,,,,,,,106.0,0.47,,,,,,
427,,isi,,html-keyboard-response,427,589602,0.0-1.0-83.0-0.0-2.0,0,0,63784,,,,,,81.0,,,,,2.0,,,,,,,,,,,,,,,,,,,,,,,,,,,107.0,1.0,,,,,,
428,,feedback,,html-keyboard-response,428,590611,0.0-1.0-83.0-0.0-3.0-0.0,0,0,63784,,,,,,81.0,,,,,2.0,,,,,,,,,,,,,,,,,,,,,,,,,,,108.0,1.0,,,,,,
429,,iti,,html-keyboard-response,429,592122,0.0-1.0-83.0-0.0-5.0,0,0,63784,,,,,,81.0,,,,,2.0,,,,,,,,,,,,,,,,,,,,,,,,,,,109.5,1.5,,,,,,
430,,choice,,html-keyboard-response,430,593187,0.0-1.0-84.0-0.0-0.0,0,0,63784,,1059.0,,,68.0,82.0,83.0,1000.0,2000.0,0.0,2.0,1.0,60-60,1.0,,seashell,seashell,60.0,60.0,seashell9,seashell11,80.0,80.0,ASEASH5.jpg,ASEASH12.jpg,/static/Category_learning/Stimuli/Experimental_stims/seashell/ASEASH5.jpg,/static/Category_learning/Stimuli/Experimental_stims/seashell/ASEASH12.jpg,1.0,seashell,seashell,60.0,60.0,seashell9,seashell11,80.0,80.0,0.0,110.559,1.059,,,,,,
431,,confirmation,,html-keyboard-response,431,593648,0.0-1.0-84.0-0.0-1.0-0.0,0,0,63784,,,,,,82.0,,,,,2.0,,,,,,,,,,,,,,,,,,,,,,,,,,,111.0,0.441,,,,,,
432,,isi,,html-keyboard-response,432,594659,0.0-1.0-84.0-0.0-2.0,0,0,63784,,,,,,82.0,,,,,2.0,,,,,,,,,,,,,,,,,,,,,,,,,,,112.0,1.0,,,,,,
433,,feedback,,html-keyboard-response,433,595664,0.0-1.0-84.0-0.0-3.0-0.0,0,0,63784,,,,,,82.0,,,,,2.0,,,,,,,,,,,,,,,,,,,,,,,,,,,113.0,1.0,,,,,,
434,,iti,,html-keyboard-response,434,597672,0.0-1.0-84.0-0.0-5.0,0,0,63784,,,,,,82.0,,,,,2.0,,,,,,,,,,,,,,,,,,,,,,,,,,,115.0,2.0,,,,,,
435,,choice,,html-keyboard-response,435,598862,0.0-1.0-85.0-0.0-0.0,0,0,63784,,1186.0,,,68.0,83.0,84.0,1500.0,1000.0,0.0,2.0,0.0,20-60,,1.0,sofa,door knob,60.0,20.0,sofa14,door knob3,40.0,40.0,HENRY-Sofa-falg8068-05-72X34X34.jpg,020f7ec6-df08-40fa-b3a5-0dcfb762f085_4.jpg,/static/Category_learning/Stimuli/Experimental_stims/sofa/HENRY-Sofa-falg8068-05-72X34X34.jpg,/static/Category_learning/Stimuli/Experimental_stims/door knob/020f7ec6-df08-40fa-b3a5-0dcfb762f085_4.jpg,1.0,sofa,door knob,60.0,20.0,sofa14,door knob3,40.0,40.0,0.0,116.186,1.186,,,,,,
436,,confirmation,,html-keyboard-response,436,599182,0.0-1.0-85.0-0.0-1.0-0.0,0,0,63784,,,,,,83.0,,,,,2.0,,,,,,,,,,,,,,,,,,,,,,,,,,,116.5,0.314,,,,,,
437,,isi,,html-keyboard-response,437,600685,0.0-1.0-85.0-0.0-2.0,0,0,63784,,,,,,83.0,,,,,2.0,,,,,,,,,,,,,,,,,,,,,,,,,,,118.0,1.5,,,,,,
438,,feedback,,html-keyboard-response,438,601703,0.0-1.0-85.0-0.0-3.0-0.0,0,0,63784,,,,,,83.0,,,,,2.0,,,,,,,,,,,,,,,,,,,,,,,,,,,119.0,1.0,,,,,,
439,,iti,,html-keyboard-response,439,602706,0.0-1.0-85.0-0.0-5.0,0,0,63784,,,,,,83.0,,,,,2.0,,,,,,,,,,,,,,,,,,,,,,,,,,,120.0,1.0,,,,,,
440,,choice,,html-keyboard-response,440,603358,0.0-1.0-86.0-0.0-0.0,0,0,63784,,647.0,,,75.0,84.0,85.0,3000.0,1000.0,0.0,2.0,1.0,20-20,1.0,,bongo,bongo,20.0,20.0,bongo12,bongo3,40.0,20.0,26686609.thl.jpg,26390697.thl.jpg,/static/Category_learning/Stimuli/Experimental_stims/bongo/26686609.thl.jpg,/static/Category_learning/Stimuli/Experimental_stims/bongo/26390697.thl.jpg,0.0,bongo,bongo,20.0,20.0,bongo3,bongo12,20.0,40.0,0.0,120.647,0.647,,,,,,
441,,confirmation,,html-keyboard-response,441,604216,0.0-1.0-86.0-0.0-1.0-0.0,0,0,63784,,,,,,84.0,,,,,2.0,,,,,,,,,,,,,,,,,,,,,,,,,,,121.5,0.853,,,,,,
442,,isi,,html-keyboard-response,442,607226,0.0-1.0-86.0-0.0-2.0,0,0,63784,,,,,,84.0,,,,,2.0,,,,,,,,,,,,,,,,,,,,,,,,,,,124.5,3.0,,,,,,
443,,feedback,,html-keyboard-response,443,608233,0.0-1.0-86.0-0.0-3.0-0.0,0,0,63784,,,,,,84.0,,,,,2.0,,,,,,,,,,,,,,,,,,,,,,,,,,,125.5,1.0,,,,,,
444,,iti,,html-keyboard-response,444,609253,0.0-1.0-86.0-0.0-5.0,0,0,63784,,,,,,84.0,,,,,2.0,,,,,,,,,,,,,,,,,,,,,,,,,,,126.5,1.0,,,,,,
445,,choice,,html-keyboard-response,445,610222,0.0-1.0-87.0-0.0-0.0,0,0,63784,,966.0,,,75.0,85.0,86.0,2000.0,1500.0,0.0,2.0,0.0,20-20,,,fan,bowl,20.0,20.0,fan3,bowl1,20.0,0.0,CFT401.jpg,ABOWLS6.jpg,/static/Category_learning/Stimuli/Experimental_stims/fan/CFT401.jpg,/static/Category_learning/Stimuli/Experimental_stims/bowl/ABOWLS6.jpg,0.0,bowl,fan,20.0,20.0,bowl1,fan3,0.0,20.0,0.0,127.466,0.966,,,,,,
446,,confirmation,,html-keyboard-response,446,610772,0.0-1.0-87.0-0.0-1.0-0.0,0,0,63784,,,,,,85.0,,,,,2.0,,,,,,,,,,,,,,,,,,,,,,,,,,,128.0,0.534,,,,,,
447,,isi,,html-keyboard-response,447,612780,0.0-1.0-87.0-0.0-2.0,0,0,63784,,,,,,85.0,,,,,2.0,,,,,,,,,,,,,,,,,,,,,,,,,,,130.0,2.0,,,,,,
448,,feedback,,html-keyboard-response,448,613787,0.0-1.0-87.0-0.0-3.0-0.0,0,0,63784,,,,,,85.0,,,,,2.0,,,,,,,,,,,,,,,,,,,,,,,,,,,131.0,1.0,,,,,,
449,,iti,,html-keyboard-response,449,615295,0.0-1.0-87.0-0.0-5.0,0,0,63784,,,,,,85.0,,,,,2.0,,,,,,,,,,,,,,,,,,,,,,,,,,,132.5,1.5,,,,,,
450,,choice,,html-keyboard-response,450,615991,0.0-1.0-88.0-0.0-0.0,0,0,63784,,691.0,,,68.0,86.0,87.0,1000.0,1500.0,0.0,2.0,1.0,40-40,1.0,,makeup compact,makeup compact,40.0,40.0,makeup compact7,makeup compact9,20.0,40.0,P187133_hero.jpg,b_102019.jpg,/static/Category_learning/Stimuli/Experimental_stims/makeup compact/P187133_hero.jpg,/static/Category_learning/Stimuli/Experimental_stims/makeup compact/b_102019.jpg,1.0,makeup compact,makeup compact,40.0,40.0,makeup compact7,makeup compact9,20.0,40.0,0.0,133.191,0.691,,,,,,
451,,confirmation,,html-keyboard-response,451,616810,0.0-1.0-88.0-0.0-1.0-0.0,0,0,63784,,,,,,86.0,,,,,2.0,,,,,,,,,,,,,,,,,,,,,,,,,,,134.0,0.809,,,,,,
452,,isi,,html-keyboard-response,452,617816,0.0-1.0-88.0-0.0-2.0,0,0,63784,,,,,,86.0,,,,,2.0,,,,,,,,,,,,,,,,,,,,,,,,,,,135.0,1.0,,,,,,
453,,feedback,,html-keyboard-response,453,618824,0.0-1.0-88.0-0.0-3.0-0.0,0,0,63784,,,,,,86.0,,,,,2.0,,,,,,,,,,,,,,,,,,,,,,,,,,,136.0,1.0,,,,,,
454,,iti,,html-keyboard-response,454,620335,0.0-1.0-88.0-0.0-5.0,0,0,63784,,,,,,86.0,,,,,2.0,,,,,,,,,,,,,,,,,,,,,,,,,,,137.5,1.5,,,,,,
455,,choice,,html-keyboard-response,455,621596,0.0-1.0-89.0-0.0-0.0,0,0,63784,,1257.0,,,68.0,87.0,88.0,1000.0,1000.0,0.0,2.0,0.0,40-60,,0.0,hammer,power strip,40.0,60.0,hammer7,power strip13,60.0,60.0,hammer01.jpg,01dccef1-d4b2-4d2e-a317-f2ed46b70b4b_400.jpg,/static/Category_learning/Stimuli/Experimental_stims/hammer/hammer01.jpg,/static/Category_learning/Stimuli/Experimental_stims/power strip/01dccef1-d4b2-4d2e-a317-f2ed46b70b4b_400.jpg,1.0,hammer,power strip,40.0,60.0,hammer7,power strip13,60.0,60.0,0.0,138.757,1.257,,,,,,
456,,confirmation,,html-keyboard-response,456,621857,0.0-1.0-89.0-0.0-1.0-0.0,0,0,63784,,,,,,87.0,,,,,2.0,,,,,,,,,,,,,,,,,,,,,,,,,,,139.0,0.243,,,,,,
457,,isi,,html-keyboard-response,457,622864,0.0-1.0-89.0-0.0-2.0,0,0,63784,,,,,,87.0,,,,,2.0,,,,,,,,,,,,,,,,,,,,,,,,,,,140.0,1.0,,,,,,
458,,feedback,,html-keyboard-response,458,623883,0.0-1.0-89.0-0.0-3.0-0.0,0,0,63784,,,,,,87.0,,,,,2.0,,,,,,,,,,,,,,,,,,,,,,,,,,,141.0,1.0,,,,,,
459,,iti,,html-keyboard-response,459,624892,0.0-1.0-89.0-0.0-5.0,0,0,63784,,,,,,87.0,,,,,2.0,,,,,,,,,,,,,,,,,,,,,,,,,,,142.0,1.0,,,,,,
460,,choice,,html-keyboard-response,460,625671,0.0-1.0-90.0-0.0-0.0,0,0,63784,,774.0,,,75.0,88.0,89.0,1500.0,3500.0,0.0,2.0,0.0,20-60,,0.0,baby carriage,poker card,20.0,60.0,baby carriage10,poker card7,0.0,80.0,peg_perego_uno_blu.jpg,22864416.thl.jpg,/static/Category_learning/Stimuli/Experimental_stims/baby carriage/peg_perego_uno_blu.jpg,/static/Category_learning/Stimuli/Experimental_stims/poker card/22864416.thl.jpg,0.0,poker card,baby carriage,60.0,20.0,poker card7,baby carriage10,80.0,0.0,0.0,142.774,0.774,,,,,,
461,,confirmation,,html-keyboard-response,461,626408,0.0-1.0-90.0-0.0-1.0-0.0,0,0,63784,,,,,,88.0,,,,,2.0,,,,,,,,,,,,,,,,,,,,,,,,,,,143.5,0.726,,,,,,
462,,isi,,html-keyboard-response,462,627917,0.0-1.0-90.0-0.0-2.0,0,0,63784,,,,,,88.0,,,,,2.0,,,,,,,,,,,,,,,,,,,,,,,,,,,145.0,1.5,,,,,,
463,,feedback,,html-keyboard-response,463,628927,0.0-1.0-90.0-0.0-3.0-0.0,0,0,63784,,,,,,88.0,,,,,2.0,,,,,,,,,,,,,,,,,,,,,,,,,,,146.0,1.0,,,,,,
464,,iti,,html-keyboard-response,464,632439,0.0-1.0-90.0-0.0-5.0,0,0,63784,,,,,,88.0,,,,,2.0,,,,,,,,,,,,,,,,,,,,,,,,,,,149.5,3.5,,,,,,
465,,choice,,html-keyboard-response,465,633232,0.0-1.0-91.0-0.0-0.0,0,0,63784,,786.0,,,68.0,89.0,90.0,1000.0,1000.0,0.0,2.0,0.0,40-80,,1.0,vase,motorcycle,80.0,40.0,vase1,motorcycle9,60.0,40.0,Avase114.jpg,speedbike.jpg,/static/Category_learning/Stimuli/Experimental_stims/vase/Avase114.jpg,/static/Category_learning/Stimuli/Experimental_stims/motorcycle/speedbike.jpg,1.0,vase,motorcycle,80.0,40.0,vase1,motorcycle9,60.0,40.0,0.0,150.286,0.786,,,,,,
466,,confirmation,,html-keyboard-response,466,633952,0.0-1.0-91.0-0.0-1.0-0.0,0,0,63784,,,,,,89.0,,,,,2.0,,,,,,,,,,,,,,,,,,,,,,,,,,,151.0,0.714,,,,,,
467,,isi,,html-keyboard-response,467,634964,0.0-1.0-91.0-0.0-2.0,0,0,63784,,,,,,89.0,,,,,2.0,,,,,,,,,,,,,,,,,,,,,,,,,,,152.0,1.0,,,,,,
468,,feedback,,html-keyboard-response,468,635972,0.0-1.0-91.0-0.0-3.0-0.0,0,0,63784,,,,,,89.0,,,,,2.0,,,,,,,,,,,,,,,,,,,,,,,,,,,153.0,1.0,,,,,,
469,,iti,,html-keyboard-response,469,636990,0.0-1.0-91.0-0.0-5.0,0,0,63784,,,,,,89.0,,,,,2.0,,,,,,,,,,,,,,,,,,,,,,,,,,,154.0,1.0,,,,,,
470,,choice,,html-keyboard-response,470,637730,0.0-1.0-92.0-0.0-0.0,0,0,63784,,733.0,,,75.0,90.0,91.0,3500.0,3500.0,0.0,2.0,0.0,80-80,,,tent,train,80.0,80.0,tent9,train14,60.0,100.0,Red Canyon Tent.jpg,images-products-childcraft-g83501.jpg,/static/Category_learning/Stimuli/Experimental_stims/tent/Red Canyon Tent.jpg,/static/Category_learning/Stimuli/Experimental_stims/train/images-products-childcraft-g83501.jpg,0.0,train,tent,80.0,80.0,train14,tent9,100.0,60.0,0.0,154.733,0.733,,,,,,
471,,confirmation,,html-keyboard-response,471,638509,0.0-1.0-92.0-0.0-1.0-0.0,0,0,63784,,,,,,90.0,,,,,2.0,,,,,,,,,,,,,,,,,,,,,,,,,,,155.5,0.767,,,,,,
472,,isi,,html-keyboard-response,472,642022,0.0-1.0-92.0-0.0-2.0,0,0,63784,,,,,,90.0,,,,,2.0,,,,,,,,,,,,,,,,,,,,,,,,,,,159.0,3.5,,,,,,
473,,feedback,,html-keyboard-response,473,643034,0.0-1.0-92.0-0.0-3.0-0.0,0,0,63784,,,,,,90.0,,,,,2.0,,,,,,,,,,,,,,,,,,,,,,,,,,,160.0,1.0,,,,,,
474,,iti,,html-keyboard-response,474,646544,0.0-1.0-92.0-0.0-5.0,0,0,63784,,,,,,90.0,,,,,2.0,,,,,,,,,,,,,,,,,,,,,,,,,,,163.5,3.5,,,,,,
475,,choice,,html-keyboard-response,475,647405,0.0-1.0-93.0-0.0-0.0,0,0,63784,,858.0,,,75.0,91.0,92.0,1000.0,1000.0,0.0,2.0,0.0,20-60,,1.0,patio lounge chair,door knob,60.0,20.0,patio lounge chair5,door knob6,40.0,20.0,Steel_Assembling_Lounge.jpg,30fdcb17-b0fd-4f26-8cd8-11adde46fb79_4.jpg,/static/Category_learning/Stimuli/Experimental_stims/patio lounge chair/Steel_Assembling_Lounge.jpg,/static/Category_learning/Stimuli/Experimental_stims/door knob/30fdcb17-b0fd-4f26-8cd8-11adde46fb79_4.jpg,0.0,door knob,patio lounge chair,20.0,60.0,door knob6,patio lounge chair5,20.0,40.0,0.0,164.358,0.858,,,,,,
476,,confirmation,,html-keyboard-response,476,648056,0.0-1.0-93.0-0.0-1.0-0.0,0,0,63784,,,,,,91.0,,,,,2.0,,,,,,,,,,,,,,,,,,,,,,,,,,,165.0,0.642,,,,,,
