,success,ttype,start_time,trial_type,trial_index,time_elapsed,internal_node_id,warning,missed_checkup,PID,view_history,rt,responses,repeat_instructions,key_press,index,trial_num,isi,iti,is_practice,block,old_trial,pair_type,within_category,high_cat_on_left,left_category,right_category,left_category_value,right_category_value,left_exemplar,right_exemplar,left_exemplar_value,right_exemplar_value,left_img,right_img,left_img_path,right_img_path,left_chosen,chosen_category,unchosen_category,chosen_category_value,unchosen_category_value,chosen_exemplar,unchosen_exemplar,chosen_exemplar_value,unchosen_exemplar_value,no_response,onset,duration,end_practice,total_bonus_tally,category,category_group_value,category_value_response
0,True,full_screen,d06022022hr0106,fullscreen,0,2436,0.0-0.0,0,0,12,,,,,,,,,,,,,,,,,,,,,,,,,,,,,,,,,,,,,,,,,,,,
1,,category_learning_instructions,,instructions,1,6598,0.0-1.0-0.0-0.0,0,0,12,"[{""page_index"":0,""viewing_time"":1364},{""page_index"":1,""viewing_time"":1096},{""page_index"":2,""viewing_time"":263},{""page_index"":3,""viewing_time"":262},{""page_index"":4,""viewing_time"":389},{""page_index"":5,""viewing_time"":451},{""page_index"":6,""viewing_time"":335}]",4160.0,,,,,,,,,,,,,,,,,,,,,,,,,,,,,,,,,,,,,,,,,,
2,,category_learning_comprehension_check,,survey-multi-choice,2,12190,0.0-1.0-0.0-1.0,0,0,12,,5587.0,"{""Q0"":""True"",""Q1"":""True"",""Q2"":""Stay the same"",""Q3"":""pointer finger for left and middle finger for right""}",0.0,,,,,,,,,,,,,,,,,,,,,,,,,,,,,,,,,,,,,,,,
3,,,,html-keyboard-response,3,13366,0.0-1.0-1.0,0,0,12,,1172.0,,,50.0,,,,,,,,,,,,,,,,,,,,,,,,,,,,,,,,,,,,,,,
4,,choice,,html-keyboard-response,4,14447,0.0-1.0-2.0-0.0-0.0,0,0,12,,1077.0,,,50.0,0.0,0.0,1500.0,1000.0,1.0,0.0,0.0,20-80,,0.0,bagel,dumbbell,20.0,80.0,bagel1,dumbbell1,0.0,80.0,bagels_pumpernickel_large.jpg,31B64EN68AL._AA280_.jpg,/static/Category_learning/Stimuli/Practice_stims/bagel/bagels_pumpernickel_large.jpg,/static/Category_learning/Stimuli/Practice_stims/dumbbell/31B64EN68AL._AA280_.jpg,1.0,bagel,dumbbell,20.0,80.0,bagel1,dumbbell1,0.0,80.0,0.0,1.077,1.077,,,,,
5,,confirmation,,html-keyboard-response,5,14876,0.0-1.0-2.0-0.0-1.0-0.0,0,0,12,,,,,,0.0,,,,,,,,,,,,,,,,,,,,,,,,,,,,,,,,1.5,0.423,,,,,
6,,isi,,html-keyboard-response,6,14980,0.0-1.0-2.0-0.0-2.0,0,0,12,,,,,,,,,,,,,,,,,,,,,,,,,,,,,,,,,,,,,,3.0,1.5,,,,,
7,,feedback,,html-keyboard-response,7,15988,0.0-1.0-2.0-0.0-3.0-0.0,0,0,12,,,,,,0.0,,,,,,,,,,,,,,,,,,,,,,,,,,,,,,,,4.0,1.0,,,,,
8,,iti,,html-keyboard-response,8,16090,0.0-1.0-2.0-0.0-5.0,0,0,12,,,,,,,,,,,,,,,,,,,,,,,,,,,,,,,,,,,,,,5.0,1.0,,,,,
9,,choice,,html-keyboard-response,9,16267,0.0-1.0-3.0-0.0-0.0,0,0,12,,173.0,,,51.0,1.0,1.0,3000.0,1500.0,1.0,0.0,0.0,20-40,,1.0,calculator,bagel,40.0,20.0,calculator2,bagel2,20.0,20.0,22829064.thl.jpg,bagels_cinnraisin_large.jpg,/static/Category_learning/Stimuli/Practice_stims/calculator/22829064.thl.jpg,/static/Category_learning/Stimuli/Practice_stims/bagel/bagels_cinnraisin_large.jpg,0.0,bagel,calculator,20.0,40.0,bagel2,calculator2,20.0,20.0,0.0,5.173,0.173,,,,,
10,,confirmation,,html-keyboard-response,10,17602,0.0-1.0-3.0-0.0-1.0-0.0,0,0,12,,,,,,1.0,,,,,,,,,,,,,,,,,,,,,,,,,,,,,,,,6.5,1.327,,,,,
11,,isi,,html-keyboard-response,11,17709,0.0-1.0-3.0-0.0-2.0,0,0,12,,,,,,,,,,,,,,,,,,,,,,,,,,,,,,,,,,,,,,9.5,3.0,,,,,
12,,feedback,,html-keyboard-response,12,18713,0.0-1.0-3.0-0.0-3.0-0.0,0,0,12,,,,,,1.0,,,,,,,,,,,,,,,,,,,,,,,,,,,,,,,,10.5,1.0,,,,,
13,,iti,,html-keyboard-response,13,18820,0.0-1.0-3.0-0.0-5.0,0,0,12,,,,,,,,,,,,,,,,,,,,,,,,,,,,,,,,,,,,,,12.0,1.5,,,,,
14,,choice,,html-keyboard-response,14,19286,0.0-1.0-4.0-0.0-0.0,0,0,12,,462.0,,,50.0,2.0,2.0,2000.0,3000.0,1.0,0.0,0.0,60-80,,0.0,clock,dumbbell,60.0,80.0,clock2,dumbbell2,60.0,100.0,26373355.thl.jpg,31K8MR6TMBL._SS500_.jpg,/static/Category_learning/Stimuli/Practice_stims/clock/26373355.thl.jpg,/static/Category_learning/Stimuli/Practice_stims/dumbbell/31K8MR6TMBL._SS500_.jpg,1.0,clock,dumbbell,60.0,80.0,clock2,dumbbell2,60.0,100.0,0.0,12.462,0.462,,,,,
15,,confirmation,,html-keyboard-response,15,20327,0.0-1.0-4.0-0.0-1.0-0.0,0,0,12,,,,,,2.0,,,,,,,,,,,,,,,,,,,,,,,,,,,,,,,,13.5,1.038,,,,,
16,,isi,,html-keyboard-response,16,20431,0.0-1.0-4.0-0.0-2.0,0,0,12,,,,,,,,,,,,,,,,,,,,,,,,,,,,,,,,,,,,,,15.5,2.0,,,,,
17,,feedback,,html-keyboard-response,17,21439,0.0-1.0-4.0-0.0-3.0-0.0,0,0,12,,,,,,2.0,,,,,,,,,,,,,,,,,,,,,,,,,,,,,,,,16.5,1.0,,,,,
18,,iti,,html-keyboard-response,18,21545,0.0-1.0-4.0-0.0-5.0,0,0,12,,,,,,,,,,,,,,,,,,,,,,,,,,,,,,,,,,,,,,19.5,3.0,,,,,
19,,choice,,html-keyboard-response,19,21871,0.0-1.0-5.0-0.0-0.0,0,0,12,,323.0,,,51.0,3.0,3.0,1000.0,2000.0,1.0,0.0,0.0,40-80,,0.0,calculator,clock,40.0,60.0,calculator1,clock1,40.0,40.0,22829184.thl.jpg,Aalarmclock2.jpg,/static/Category_learning/Stimuli/Practice_stims/calculator/22829184.thl.jpg,/static/Category_learning/Stimuli/Practice_stims/clock/Aalarmclock2.jpg,0.0,clock,calculator,60.0,40.0,clock1,calculator1,40.0,40.0,0.0,19.823,0.323,,,,,
20,,confirmation,,html-keyboard-response,20,23053,0.0-1.0-5.0-0.0-1.0-0.0,0,0,12,,,,,,3.0,,,,,,,,,,,,,,,,,,,,,,,,,,,,,,,,21.0,1.177,,,,,
21,,isi,,html-keyboard-response,21,23160,0.0-1.0-5.0-0.0-2.0,0,0,12,,,,,,,,,,,,,,,,,,,,,,,,,,,,,,,,,,,,,,22.0,1.0,,,,,
22,,feedback,,html-keyboard-response,22,24167,0.0-1.0-5.0-0.0-3.0-0.0,0,0,12,,,,,,3.0,,,,,,,,,,,,,,,,,,,,,,,,,,,,,,,,23.0,1.0,,,,,
23,,iti,,html-keyboard-response,23,24274,0.0-1.0-5.0-0.0-5.0,0,0,12,,,,,,,,,,,,,,,,,,,,,,,,,,,,,,,,,,,,,,25.0,2.0,,,,,
24,,choice,,html-keyboard-response,24,24444,0.0-1.0-6.0-0.0-0.0,0,0,12,,168.0,,,51.0,4.0,4.0,2500.0,2500.0,1.0,0.0,0.0,20-60,,1.0,dumbbell,bagel,80.0,20.0,dumbbell3,bagel3,100.0,40.0,41K7QVRX50L._SS500_.jpg,photo-169.jpg,/static/Category_learning/Stimuli/Practice_stims/dumbbell/41K7QVRX50L._SS500_.jpg,/static/Category_learning/Stimuli/Practice_stims/bagel/photo-169.jpg,0.0,bagel,dumbbell,20.0,80.0,bagel3,dumbbell3,40.0,100.0,0.0,25.168,0.168,1.0,,,,
25,,confirmation,,html-keyboard-response,25,25782,0.0-1.0-6.0-0.0-1.0-0.0,0,0,12,,,,,,4.0,,,,,,,,,,,,,,,,,,,,,,,,,,,,,,,,26.5,1.332,,,,,
26,,isi,,html-keyboard-response,26,25885,0.0-1.0-6.0-0.0-2.0,0,0,12,,,,,,,,,,,,,,,,,,,,,,,,,,,,,,,,,,,,,,29.0,2.5,,,,,
27,,feedback,,html-keyboard-response,27,26889,0.0-1.0-6.0-0.0-3.0-0.0,0,0,12,,,,,,4.0,,,,,,,,,,,,,,,,,,,,,,,,,,,,,,,,30.0,1.0,,,,,
28,,iti,,html-keyboard-response,28,26994,0.0-1.0-6.0-0.0-5.0,0,0,12,,,,,,,,,,,,,,,,,,,,,,,,,,,,,,,,,,,,,,32.5,2.5,,,,,
29,,practice_over,,html-keyboard-response,29,27132,0.0-1.0-6.0-0.0-6.0-0.0,0,0,12,,136.0,,,50.0,4.0,,,,,,,,,,,,,,,,,,,,,,,,,,,,,,,,,,,,,,
30,,start_run,,html-keyboard-response,30,28924,0.0-1.0-6.0-0.0-6.0-1.0,0,0,12,,1790.0,,,84.0,,,,,,,,,,,,,,,,,,,,,,,,,,,,,,,,,,,,,,,
31,,choice,,html-keyboard-response,31,29120,0.0-1.0-7.0-0.0-0.0,0,0,12,,194.0,,,50.0,5.0,305.0,1500.0,3000.0,0.0,6.0,0.0,20-20,,,flashlight,dresser,20.0,20.0,flashlight11,dresser15,40.0,20.0,new04.jpg,ADRESSE77.jpg,/static/Category_learning/Stimuli/Experimental_stims/flashlight/new04.jpg,/static/Category_learning/Stimuli/Experimental_stims/dresser/ADRESSE77.jpg,1.0,flashlight,dresser,20.0,20.0,flashlight11,dresser15,40.0,20.0,0.0,0.194,0.194,,,,,
32,,confirmation,,html-keyboard-response,32,30430,0.0-1.0-7.0-0.0-1.0-0.0,0,0,12,,,,,,5.0,,,,,,,,,,,,,,,,,,,,,,,,,,,,,,,,1.5,1.306,,,,,
33,,isi,,html-keyboard-response,33,30533,0.0-1.0-7.0-0.0-2.0,0,0,12,,,,,,,,,,,,,,,,,,,,,,,,,,,,,,,,,,,,,,3.0,1.5,,,,,
34,,feedback,,html-keyboard-response,34,31538,0.0-1.0-7.0-0.0-3.0-0.0,0,0,12,,,,,,5.0,,,,,,,,,,,,,,,,,,,,,,,,,,,,,,,,4.0,1.0,,,,,
35,,iti,,html-keyboard-response,35,31641,0.0-1.0-7.0-0.0-5.0,0,0,12,,,,,,,,,,,,,,,,,,,,,,,,,,,,,,,,,,,,,,7.0,3.0,,,,,
36,,choice,,html-keyboard-response,36,31690,0.0-1.0-8.0-0.0-0.0,0,0,12,,46.0,,,51.0,6.0,306.0,1000.0,3500.0,0.0,6.0,0.0,40-40,,,microscope,lipstick,40.0,40.0,microscope2,lipstick5,40.0,20.0,3090-b.jpg,P35719_hero.jpg,/static/Category_learning/Stimuli/Experimental_stims/microscope/3090-b.jpg,/static/Category_learning/Stimuli/Experimental_stims/lipstick/P35719_hero.jpg,0.0,lipstick,microscope,40.0,40.0,lipstick5,microscope2,20.0,40.0,0.0,7.046,0.046,,,,,
37,,confirmation,,html-keyboard-response,37,33149,0.0-1.0-8.0-0.0-1.0-0.0,0,0,12,,,,,,6.0,,,,,,,,,,,,,,,,,,,,,,,,,,,,,,,,8.5,1.454,,,,,
38,,isi,,html-keyboard-response,38,33252,0.0-1.0-8.0-0.0-2.0,0,0,12,,,,,,,,,,,,,,,,,,,,,,,,,,,,,,,,,,,,,,9.5,1.0,,,,,
39,,feedback,,html-keyboard-response,39,34258,0.0-1.0-8.0-0.0-3.0-0.0,0,0,12,,,,,,6.0,,,,,,,,,,,,,,,,,,,,,,,,,,,,,,,,10.5,1.0,,,,,
40,,iti,,html-keyboard-response,40,34363,0.0-1.0-8.0-0.0-5.0,0,0,12,,,,,,,,,,,,,,,,,,,,,,,,,,,,,,,,,,,,,,14.0,3.5,,,,,
41,,choice,,html-keyboard-response,41,34584,0.0-1.0-9.0-0.0-0.0,0,0,12,,218.0,,,51.0,7.0,307.0,3500.0,1500.0,0.0,6.0,0.0,60-80,,1.0,train,nail polish,80.0,60.0,train10,nail polish10,100.0,80.0,train3.jpg,NLM23_opi_nail_polish.jpg,/static/Category_learning/Stimuli/Experimental_stims/train/train3.jpg,/static/Category_learning/Stimuli/Experimental_stims/nail polish/NLM23_opi_nail_polish.jpg,0.0,nail polish,train,60.0,80.0,nail polish10,train10,80.0,100.0,0.0,14.218,0.218,,,,,
42,,confirmation,,html-keyboard-response,42,35870,0.0-1.0-9.0-0.0-1.0-0.0,0,0,12,,,,,,7.0,,,,,,,,,,,,,,,,,,,,,,,,,,,,,,,,15.5,1.282,,,,,
43,,isi,,html-keyboard-response,43,35976,0.0-1.0-9.0-0.0-2.0,0,0,12,,,,,,,,,,,,,,,,,,,,,,,,,,,,,,,,,,,,,,19.0,3.5,,,,,
44,,feedback,,html-keyboard-response,44,36978,0.0-1.0-9.0-0.0-3.0-0.0,0,0,12,,,,,,7.0,,,,,,,,,,,,,,,,,,,,,,,,,,,,,,,,20.0,1.0,,,,,
45,,iti,,html-keyboard-response,45,37081,0.0-1.0-9.0-0.0-5.0,0,0,12,,,,,,,,,,,,,,,,,,,,,,,,,,,,,,,,,,,,,,21.5,1.5,,,,,
46,,choice,,html-keyboard-response,46,37285,0.0-1.0-10.0-0.0-0.0,0,0,12,,200.0,,,50.0,8.0,308.0,1000.0,2000.0,0.0,6.0,0.0,40-60,,1.0,sofa,key chain,60.0,40.0,sofa5,key chain12,60.0,40.0,ALOVSEA14.jpg,keychain.jpg,/static/Category_learning/Stimuli/Experimental_stims/sofa/ALOVSEA14.jpg,/static/Category_learning/Stimuli/Experimental_stims/key chain/keychain.jpg,1.0,sofa,key chain,60.0,40.0,sofa5,key chain12,60.0,40.0,0.0,21.7,0.2,,,,,
47,,confirmation,,html-keyboard-response,47,38588,0.0-1.0-10.0-0.0-1.0-0.0,0,0,12,,,,,,8.0,,,,,,,,,,,,,,,,,,,,,,,,,,,,,,,,23.0,1.3,,,,,
48,,isi,,html-keyboard-response,48,38692,0.0-1.0-10.0-0.0-2.0,0,0,12,,,,,,,,,,,,,,,,,,,,,,,,,,,,,,,,,,,,,,24.0,1.0,,,,,
49,,feedback,,html-keyboard-response,49,39697,0.0-1.0-10.0-0.0-3.0-0.0,0,0,12,,,,,,8.0,,,,,,,,,,,,,,,,,,,,,,,,,,,,,,,,25.0,1.0,,,,,
50,,iti,,html-keyboard-response,50,39800,0.0-1.0-10.0-0.0-5.0,0,0,12,,,,,,,,,,,,,,,,,,,,,,,,,,,,,,,,,,,,,,27.0,2.0,,,,,
51,,choice,,html-keyboard-response,51,39820,0.0-1.0-11.0-0.0-0.0,0,0,12,,16.0,,,51.0,9.0,309.0,2000.0,3500.0,0.0,6.0,0.0,20-60,,0.0,bench,patio lounge chair,20.0,60.0,bench11,patio lounge chair11,40.0,80.0,22928468.thl.jpg,51830.jpg,/static/Category_learning/Stimuli/Experimental_stims/bench/22928468.thl.jpg,/static/Category_learning/Stimuli/Experimental_stims/patio lounge chair/51830.jpg,0.0,patio lounge chair,bench,60.0,20.0,patio lounge chair11,bench11,80.0,40.0,0.0,27.016,0.016,,,,,
52,,confirmation,,html-keyboard-response,52,41311,0.0-1.0-11.0-0.0-1.0-0.0,0,0,12,,,,,,9.0,,,,,,,,,,,,,,,,,,,,,,,,,,,,,,,,28.5,1.484,,,,,
53,,isi,,html-keyboard-response,53,41417,0.0-1.0-11.0-0.0-2.0,0,0,12,,,,,,,,,,,,,,,,,,,,,,,,,,,,,,,,,,,,,,30.5,2.0,,,,,
54,,feedback,,html-keyboard-response,54,43343,0.0-1.0-11.0-0.0-3.0-0.0,0,0,12,,,,,,9.0,,,,,,,,,,,,,,,,,,,,,,,,,,,,,,,,31.5,1.0,,,,,
55,,iti,,html-keyboard-response,55,44494,0.0-1.0-11.0-0.0-5.0,0,0,12,,,,,,,,,,,,,,,,,,,,,,,,,,,,,,,,,,,,,,35.0,3.5,,,,,
56,,choice,,html-keyboard-response,56,46690,0.0-1.0-12.0-0.0-0.0,0,0,12,,,,,,10.0,310.0,1000.0,1000.0,0.0,6.0,1.0,60-60,0.0,,nail polish,patio lounge chair,60.0,60.0,nail polish10,patio lounge chair11,80.0,80.0,NLM23_opi_nail_polish.jpg,51830.jpg,/static/Category_learning/Stimuli/Experimental_stims/nail polish/NLM23_opi_nail_polish.jpg,/static/Category_learning/Stimuli/Experimental_stims/patio lounge chair/51830.jpg,,,,,,,,,,1.0,36.5,1.5,,,,,
57,,isi,,html-keyboard-response,57,47344,0.0-1.0-12.0-0.0-2.0,0,0,12,,,,,,,,,,,,,,,,,,,,,,,,,,,,,,,,,,,,,,37.5,1.0,,,,,
58,,no_response,,html-keyboard-response,58,49667,0.0-1.0-12.0-0.0-4.0-0.0,1,0,12,,,,,,,,,,,,,,,,,,,,,,,,,,,,,,,,,,,,,,38.5,1.0,,,,,
59,,iti,,html-keyboard-response,59,50595,0.0-1.0-12.0-0.0-5.0,0,0,12,,,,,,,,,,,,,,,,,,,,,,,,,,,,,,,,,,,,,,39.5,1.0,,,,,
60,,choice,,html-keyboard-response,60,52994,0.0-1.0-12.0-0.1-0.1,0,0,12,,,,,,10.0,310.0,1000.0,1000.0,0.0,6.0,1.0,60-60,0.0,,nail polish,patio lounge chair,60.0,60.0,nail polish10,patio lounge chair11,80.0,80.0,NLM23_opi_nail_polish.jpg,51830.jpg,/static/Category_learning/Stimuli/Experimental_stims/nail polish/NLM23_opi_nail_polish.jpg,/static/Category_learning/Stimuli/Experimental_stims/patio lounge chair/51830.jpg,,,,,,,,,,1.0,41.0,1.5,,,,,
61,,isi,,html-keyboard-response,61,53506,0.0-1.0-12.0-0.1-2.1,0,0,12,,,,,,,,,,,,,,,,,,,,,,,,,,,,,,,,,,,,,,43.0,2.0,,,,,
62,,no_response,,html-keyboard-response,62,55641,0.0-1.0-12.0-0.1-4.1-0.1,1,0,12,,,,,,,,,,,,,,,,,,,,,,,,,,,,,,,,,,,,,,44.0,1.0,,,,,
63,,iti,,html-keyboard-response,63,56685,0.0-1.0-12.0-0.1-5.1,0,0,12,,,,,,,,,,,,,,,,,,,,,,,,,,,,,,,,,,,,,,45.0,1.0,,,,,
64,,choice,,html-keyboard-response,64,58445,0.0-1.0-12.0-0.2-0.2,0,0,12,,,,,,10.0,310.0,1000.0,1000.0,0.0,6.0,1.0,60-60,0.0,,nail polish,patio lounge chair,60.0,60.0,nail polish10,patio lounge chair11,80.0,80.0,NLM23_opi_nail_polish.jpg,51830.jpg,/static/Category_learning/Stimuli/Experimental_stims/nail polish/NLM23_opi_nail_polish.jpg,/static/Category_learning/Stimuli/Experimental_stims/patio lounge chair/51830.jpg,,,,,,,,,,1.0,46.5,1.5,,,,,
65,,isi,,html-keyboard-response,65,59784,0.0-1.0-12.0-0.2-2.2,0,0,12,,,,,,,,,,,,,,,,,,,,,,,,,,,,,,,,,,,,,,48.5,2.0,,,,,
66,,no_response,,html-keyboard-response,66,61563,0.0-1.0-12.0-0.2-4.2-0.2,1,0,12,,,,,,,,,,,,,,,,,,,,,,,,,,,,,,,,,,,,,,49.5,1.0,,,,,
67,,iti,,html-keyboard-response,67,62659,0.0-1.0-12.0-0.2-5.2,0,0,12,,,,,,,,,,,,,,,,,,,,,,,,,,,,,,,,,,,,,,51.5,2.0,,,,,
68,,choice,,html-keyboard-response,68,65182,0.0-1.0-12.0-0.3-0.3,0,0,12,,,,,,10.0,310.0,1000.0,1000.0,0.0,6.0,1.0,60-60,0.0,,nail polish,patio lounge chair,60.0,60.0,nail polish10,patio lounge chair11,80.0,80.0,NLM23_opi_nail_polish.jpg,51830.jpg,/static/Category_learning/Stimuli/Experimental_stims/nail polish/NLM23_opi_nail_polish.jpg,/static/Category_learning/Stimuli/Experimental_stims/patio lounge chair/51830.jpg,,,,,,,,,,1.0,53.0,1.5,,,,,
69,,isi,,html-keyboard-response,69,65421,0.0-1.0-12.0-0.3-2.3,0,0,12,,,,,,,,,,,,,,,,,,,,,,,,,,,,,,,,,,,,,,54.0,1.0,,,,,
70,,no_response,,html-keyboard-response,70,68064,0.0-1.0-12.0-0.3-4.3-0.3,1,0,12,,,,,,,,,,,,,,,,,,,,,,,,,,,,,,,,,,,,,,55.0,1.0,,,,,
71,,iti,,html-keyboard-response,71,68468,0.0-1.0-12.0-0.3-5.3,0,0,12,,,,,,,,,,,,,,,,,,,,,,,,,,,,,,,,,,,,,,56.5,1.5,,,,,
72,,choice,,html-keyboard-response,72,70355,0.0-1.0-12.0-0.4-0.4,0,0,12,,,,,,10.0,310.0,1000.0,1000.0,0.0,6.0,1.0,60-60,0.0,,nail polish,patio lounge chair,60.0,60.0,nail polish10,patio lounge chair11,80.0,80.0,NLM23_opi_nail_polish.jpg,51830.jpg,/static/Category_learning/Stimuli/Experimental_stims/nail polish/NLM23_opi_nail_polish.jpg,/static/Category_learning/Stimuli/Experimental_stims/patio lounge chair/51830.jpg,,,,,,,,,,1.0,58.0,1.5,,,,,
73,,isi,,html-keyboard-response,73,71764,0.0-1.0-12.0-0.4-2.4,0,0,12,,,,,,,,,,,,,,,,,,,,,,,,,,,,,,,,,,,,,,60.0,2.0,,,,,
74,,no_response,,html-keyboard-response,74,73716,0.0-1.0-12.0-0.4-4.4-0.4,1,0,12,,,,,,,,,,,,,,,,,,,,,,,,,,,,,,,,,,,,,,61.0,1.0,,,,,
75,,iti,,html-keyboard-response,75,74452,0.0-1.0-12.0-0.4-5.4,0,0,12,,,,,,,,,,,,,,,,,,,,,,,,,,,,,,,,,,,,,,62.0,1.0,,,,,
76,,choice,,html-keyboard-response,76,77022,0.0-1.0-12.0-0.5-0.5,0,0,12,,,,,,10.0,310.0,1000.0,1000.0,0.0,6.0,1.0,60-60,0.0,,nail polish,patio lounge chair,60.0,60.0,nail polish10,patio lounge chair11,80.0,80.0,NLM23_opi_nail_polish.jpg,51830.jpg,/static/Category_learning/Stimuli/Experimental_stims/nail polish/NLM23_opi_nail_polish.jpg,/static/Category_learning/Stimuli/Experimental_stims/patio lounge chair/51830.jpg,,,,,,,,,,1.0,63.5,1.5,,,,,
77,,isi,,html-keyboard-response,77,77500,0.0-1.0-12.0-0.5-2.5,0,0,12,,,,,,,,,,,,,,,,,,,,,,,,,,,,,,,,,,,,,,64.5,1.0,,,,,
78,,no_response,,html-keyboard-response,78,79785,0.0-1.0-12.0-0.5-4.5-0.5,1,0,12,,,,,,,,,,,,,,,,,,,,,,,,,,,,,,,,,,,,,,65.5,1.0,,,,,
79,,iti,,html-keyboard-response,79,80612,0.0-1.0-12.0-0.5-5.5,0,0,12,,,,,,,,,,,,,,,,,,,,,,,,,,,,,,,,,,,,,,69.0,3.5,,,,,
80,,choice,,html-keyboard-response,80,82398,0.0-1.0-12.0-0.6-0.6,0,0,12,,,,,,10.0,310.0,1000.0,1000.0,0.0,6.0,1.0,60-60,0.0,,nail polish,patio lounge chair,60.0,60.0,nail polish10,patio lounge chair11,80.0,80.0,NLM23_opi_nail_polish.jpg,51830.jpg,/static/Category_learning/Stimuli/Experimental_stims/nail polish/NLM23_opi_nail_polish.jpg,/static/Category_learning/Stimuli/Experimental_stims/patio lounge chair/51830.jpg,,,,,,,,,,1.0,70.5,1.5,,,,,
81,,isi,,html-keyboard-response,81,83813,0.0-1.0-12.0-0.6-2.6,0,0,12,,,,,,,,,,,,,,,,,,,,,,,,,,,,,,,,,,,,,,73.5,3.0,,,,,
82,,no_response,,html-keyboard-response,82,85667,0.0-1.0-12.0-0.6-4.6-0.6,1,0,12,,,,,,,,,,,,,,,,,,,,,,,,,,,,,,,,,,,,,,74.5,1.0,,,,,
83,,iti,,html-keyboard-response,83,86664,0.0-1.0-12.0-0.6-5.6,0,0,12,,,,,,,,,,,,,,,,,,,,,,,,,,,,,,,,,,,,,,75.5,1.0,,,,,
84,,choice,,html-keyboard-response,84,88343,0.0-1.0-12.0-0.7-0.7,0,0,12,,,,,,10.0,310.0,1000.0,1000.0,0.0,6.0,1.0,60-60,0.0,,nail polish,patio lounge chair,60.0,60.0,nail polish10,patio lounge chair11,80.0,80.0,NLM23_opi_nail_polish.jpg,51830.jpg,/static/Category_learning/Stimuli/Experimental_stims/nail polish/NLM23_opi_nail_polish.jpg,/static/Category_learning/Stimuli/Experimental_stims/patio lounge chair/51830.jpg,,,,,,,,,,1.0,77.0,1.5,,,,,
85,,isi,,html-keyboard-response,85,89635,0.0-1.0-12.0-0.7-2.7,0,0,12,,,,,,,,,,,,,,,,,,,,,,,,,,,,,,,,,,,,,,78.5,1.5,,,,,
86,,no_response,,html-keyboard-response,86,91364,0.0-1.0-12.0-0.7-4.7-0.7,1,0,12,,,,,,,,,,,,,,,,,,,,,,,,,,,,,,,,,,,,,,79.5,1.0,,,,,
87,,iti,,html-keyboard-response,87,92752,0.0-1.0-12.0-0.7-5.7,0,0,12,,,,,,,,,,,,,,,,,,,,,,,,,,,,,,,,,,,,,,80.5,1.0,,,,,
88,,choice,,html-keyboard-response,88,94344,0.0-1.0-12.0-0.8-0.8,0,0,12,,,,,,10.0,310.0,1000.0,1000.0,0.0,6.0,1.0,60-60,0.0,,nail polish,patio lounge chair,60.0,60.0,nail polish10,patio lounge chair11,80.0,80.0,NLM23_opi_nail_polish.jpg,51830.jpg,/static/Category_learning/Stimuli/Experimental_stims/nail polish/NLM23_opi_nail_polish.jpg,/static/Category_learning/Stimuli/Experimental_stims/patio lounge chair/51830.jpg,,,,,,,,,,1.0,82.0,1.5,,,,,
89,,isi,,html-keyboard-response,89,95839,0.0-1.0-12.0-0.8-2.8,0,0,12,,,,,,,,,,,,,,,,,,,,,,,,,,,,,,,,,,,,,,84.0,2.0,,,,,
90,,no_response,,html-keyboard-response,90,97348,0.0-1.0-12.0-0.8-4.8-0.8,1,0,12,,,,,,,,,,,,,,,,,,,,,,,,,,,,,,,,,,,,,,85.0,1.0,,,,,
91,,iti,,html-keyboard-response,91,98487,0.0-1.0-12.0-0.8-5.8,0,0,12,,,,,,,,,,,,,,,,,,,,,,,,,,,,,,,,,,,,,,86.5,1.5,,,,,
92,,choice,,html-keyboard-response,92,100479,0.0-1.0-12.0-0.9-0.9,0,0,12,,,,,,10.0,310.0,1000.0,1000.0,0.0,6.0,1.0,60-60,0.0,,nail polish,patio lounge chair,60.0,60.0,nail polish10,patio lounge chair11,80.0,80.0,NLM23_opi_nail_polish.jpg,51830.jpg,/static/Category_learning/Stimuli/Experimental_stims/nail polish/NLM23_opi_nail_polish.jpg,/static/Category_learning/Stimuli/Experimental_stims/patio lounge chair/51830.jpg,,,,,,,,,,1.0,88.0,1.5,,,,,
93,,isi,,html-keyboard-response,93,101775,0.0-1.0-12.0-0.9-2.9,0,0,12,,,,,,,,,,,,,,,,,,,,,,,,,,,,,,,,,,,,,,90.0,2.0,,,,,
94,,no_response,,html-keyboard-response,94,103344,0.0-1.0-12.0-0.9-4.9-0.9,1,0,12,,,,,,,,,,,,,,,,,,,,,,,,,,,,,,,,,,,,,,91.0,1.0,,,,,
95,,iti,,html-keyboard-response,95,104409,0.0-1.0-12.0-0.9-5.9,0,0,12,,,,,,,,,,,,,,,,,,,,,,,,,,,,,,,,,,,,,,92.0,1.0,,,,,
96,,choice,,html-keyboard-response,96,107112,0.0-1.0-12.0-0.10-0.10,0,0,12,,,,,,10.0,310.0,1000.0,1000.0,0.0,6.0,1.0,60-60,0.0,,nail polish,patio lounge chair,60.0,60.0,nail polish10,patio lounge chair11,80.0,80.0,NLM23_opi_nail_polish.jpg,51830.jpg,/static/Category_learning/Stimuli/Experimental_stims/nail polish/NLM23_opi_nail_polish.jpg,/static/Category_learning/Stimuli/Experimental_stims/patio lounge chair/51830.jpg,,,,,,,,,,1.0,93.5,1.5,,,,,
97,,isi,,html-keyboard-response,97,107447,0.0-1.0-12.0-0.10-2.10,0,0,12,,,,,,,,,,,,,,,,,,,,,,,,,,,,,,,,,,,,,,97.0,3.5,,,,,
98,,no_response,,html-keyboard-response,98,109455,0.0-1.0-12.0-0.10-4.10-0.10,1,0,12,,,,,,,,,,,,,,,,,,,,,,,,,,,,,,,,,,,,,,98.0,1.0,,,,,
99,,iti,,html-keyboard-response,99,110686,0.0-1.0-12.0-0.10-5.10,0,0,12,,,,,,,,,,,,,,,,,,,,,,,,,,,,,,,,,,,,,,99.0,1.0,,,,,
100,,choice,,html-keyboard-response,100,112851,0.0-1.0-12.0-0.11-0.11,0,0,12,,,,,,10.0,310.0,1000.0,1000.0,0.0,6.0,1.0,60-60,0.0,,nail polish,patio lounge chair,60.0,60.0,nail polish10,patio lounge chair11,80.0,80.0,NLM23_opi_nail_polish.jpg,51830.jpg,/static/Category_learning/Stimuli/Experimental_stims/nail polish/NLM23_opi_nail_polish.jpg,/static/Category_learning/Stimuli/Experimental_stims/patio lounge chair/51830.jpg,,,,,,,,,,1.0,100.5,1.5,,,,,
101,,isi,,html-keyboard-response,101,113555,0.0-1.0-12.0-0.11-2.11,0,0,12,,,,,,,,,,,,,,,,,,,,,,,,,,,,,,,,,,,,,,102.5,2.0,,,,,
102,,no_response,,html-keyboard-response,102,116232,0.0-1.0-12.0-0.11-4.11-0.11,1,0,12,,,,,,,,,,,,,,,,,,,,,,,,,,,,,,,,,,,,,,103.5,1.0,,,,,
103,,iti,,html-keyboard-response,103,117880,0.0-1.0-12.0-0.11-5.11,0,0,12,,,,,,,,,,,,,,,,,,,,,,,,,,,,,,,,,,,,,,105.5,2.0,,,,,
104,,choice,,html-keyboard-response,104,120344,0.0-1.0-12.0-0.12-0.12,0,0,12,,,,,,10.0,310.0,1000.0,1000.0,0.0,6.0,1.0,60-60,0.0,,nail polish,patio lounge chair,60.0,60.0,nail polish10,patio lounge chair11,80.0,80.0,NLM23_opi_nail_polish.jpg,51830.jpg,/static/Category_learning/Stimuli/Experimental_stims/nail polish/NLM23_opi_nail_polish.jpg,/static/Category_learning/Stimuli/Experimental_stims/patio lounge chair/51830.jpg,,,,,,,,,,1.0,107.0,1.5,,,,,
105,,isi,,html-keyboard-response,105,121764,0.0-1.0-12.0-0.12-2.12,0,0,12,,,,,,,,,,,,,,,,,,,,,,,,,,,,,,,,,,,,,,108.0,1.0,,,,,
106,,no_response,,html-keyboard-response,106,123598,0.0-1.0-12.0-0.12-4.12-0.12,1,0,12,,,,,,,,,,,,,,,,,,,,,,,,,,,,,,,,,,,,,,109.0,1.0,,,,,
107,,iti,,html-keyboard-response,107,124697,0.0-1.0-12.0-0.12-5.12,0,0,12,,,,,,,,,,,,,,,,,,,,,,,,,,,,,,,,,,,,,,110.0,1.0,,,,,
108,,choice,,html-keyboard-response,108,127067,0.0-1.0-12.0-0.13-0.13,0,0,12,,,,,,10.0,310.0,1000.0,1000.0,0.0,6.0,1.0,60-60,0.0,,nail polish,patio lounge chair,60.0,60.0,nail polish10,patio lounge chair11,80.0,80.0,NLM23_opi_nail_polish.jpg,51830.jpg,/static/Category_learning/Stimuli/Experimental_stims/nail polish/NLM23_opi_nail_polish.jpg,/static/Category_learning/Stimuli/Experimental_stims/patio lounge chair/51830.jpg,,,,,,,,,,1.0,111.5,1.5,,,,,
109,,isi,,html-keyboard-response,109,127475,0.0-1.0-12.0-0.13-2.13,0,0,12,,,,,,,,,,,,,,,,,,,,,,,,,,,,,,,,,,,,,,114.5,3.0,,,,,
110,,no_response,,html-keyboard-response,110,129864,0.0-1.0-12.0-0.13-4.13-0.13,1,0,12,,,,,,,,,,,,,,,,,,,,,,,,,,,,,,,,,,,,,,115.5,1.0,,,,,
111,,iti,,html-keyboard-response,111,130574,0.0-1.0-12.0-0.13-5.13,0,0,12,,,,,,,,,,,,,,,,,,,,,,,,,,,,,,,,,,,,,,116.5,1.0,,,,,
112,,choice,,html-keyboard-response,112,132521,0.0-1.0-12.0-0.14-0.14,0,0,12,,,,,,10.0,310.0,1000.0,1000.0,0.0,6.0,1.0,60-60,0.0,,nail polish,patio lounge chair,60.0,60.0,nail polish10,patio lounge chair11,80.0,80.0,NLM23_opi_nail_polish.jpg,51830.jpg,/static/Category_learning/Stimuli/Experimental_stims/nail polish/NLM23_opi_nail_polish.jpg,/static/Category_learning/Stimuli/Experimental_stims/patio lounge chair/51830.jpg,,,,,,,,,,1.0,118.0,1.5,,,,,
113,,isi,,html-keyboard-response,113,133752,0.0-1.0-12.0-0.14-2.14,0,0,12,,,,,,,,,,,,,,,,,,,,,,,,,,,,,,,,,,,,,,119.5,1.5,,,,,
114,,no_response,,html-keyboard-response,114,135752,0.0-1.0-12.0-0.14-4.14-0.14,1,0,12,,,,,,,,,,,,,,,,,,,,,,,,,,,,,,,,,,,,,,120.5,1.0,,,,,
115,,iti,,html-keyboard-response,115,136557,0.0-1.0-12.0-0.14-5.14,0,0,12,,,,,,,,,,,,,,,,,,,,,,,,,,,,,,,,,,,,,,123.5,3.0,,,,,
116,,choice,,html-keyboard-response,116,138886,0.0-1.0-12.0-0.15-0.15,0,0,12,,,,,,10.0,310.0,1000.0,1000.0,0.0,6.0,1.0,60-60,0.0,,nail polish,patio lounge chair,60.0,60.0,nail polish10,patio lounge chair11,80.0,80.0,NLM23_opi_nail_polish.jpg,51830.jpg,/static/Category_learning/Stimuli/Experimental_stims/nail polish/NLM23_opi_nail_polish.jpg,/static/Category_learning/Stimuli/Experimental_stims/patio lounge chair/51830.jpg,,,,,,,,,,1.0,125.0,1.5,,,,,
117,,isi,,html-keyboard-response,117,139570,0.0-1.0-12.0-0.15-2.15,0,0,12,,,,,,,,,,,,,,,,,,,,,,,,,,,,,,,,,,,,,,128.0,3.0,,,,,
118,,no_response,,html-keyboard-response,118,141545,0.0-1.0-12.0-0.15-4.15-0.15,1,0,12,,,,,,,,,,,,,,,,,,,,,,,,,,,,,,,,,,,,,,129.0,1.0,,,,,
119,,iti,,html-keyboard-response,119,142732,0.0-1.0-12.0-0.15-5.15,0,0,12,,,,,,,,,,,,,,,,,,,,,,,,,,,,,,,,,,,,,,131.0,2.0,,,,,
120,,choice,,html-keyboard-response,120,144525,0.0-1.0-12.0-0.16-0.16,0,0,12,,,,,,10.0,310.0,1000.0,1000.0,0.0,6.0,1.0,60-60,0.0,,nail polish,patio lounge chair,60.0,60.0,nail polish10,patio lounge chair11,80.0,80.0,NLM23_opi_nail_polish.jpg,51830.jpg,/static/Category_learning/Stimuli/Experimental_stims/nail polish/NLM23_opi_nail_polish.jpg,/static/Category_learning/Stimuli/Experimental_stims/patio lounge chair/51830.jpg,,,,,,,,,,1.0,132.5,1.5,,,,,
121,,isi,,html-keyboard-response,121,145344,0.0-1.0-12.0-0.16-2.16,0,0,12,,,,,,,,,,,,,,,,,,,,,,,,,,,,,,,,,,,,,,134.0,1.5,,,,,
122,,no_response,,html-keyboard-response,122,147865,0.0-1.0-12.0-0.16-4.16-0.16,1,0,12,,,,,,,,,,,,,,,,,,,,,,,,,,,,,,,,,,,,,,135.0,1.0,,,,,
123,,iti,,html-keyboard-response,123,148473,0.0-1.0-12.0-0.16-5.16,0,0,12,,,,,,,,,,,,,,,,,,,,,,,,,,,,,,,,,,,,,,136.5,1.5,,,,,
124,,choice,,html-keyboard-response,124,151274,0.0-1.0-12.0-0.17-0.17,0,0,12,,,,,,10.0,310.0,1000.0,1000.0,0.0,6.0,1.0,60-60,0.0,,nail polish,patio lounge chair,60.0,60.0,nail polish10,patio lounge chair11,80.0,80.0,NLM23_opi_nail_polish.jpg,51830.jpg,/static/Category_learning/Stimuli/Experimental_stims/nail polish/NLM23_opi_nail_polish.jpg,/static/Category_learning/Stimuli/Experimental_stims/patio lounge chair/51830.jpg,,,,,,,,,,1.0,138.0,1.5,,,,,
125,,isi,,html-keyboard-response,125,152874,0.0-1.0-12.0-0.17-2.17,0,0,12,,,,,,,,,,,,,,,,,,,,,,,,,,,,,,,,,,,,,,139.0,1.0,,,,,
126,,no_response,,html-keyboard-response,126,154777,0.0-1.0-12.0-0.17-4.17-0.17,1,0,12,,,,,,,,,,,,,,,,,,,,,,,,,,,,,,,,,,,,,,140.0,1.0,,,,,
127,,iti,,html-keyboard-response,127,155609,0.0-1.0-12.0-0.17-5.17,0,0,12,,,,,,,,,,,,,,,,,,,,,,,,,,,,,,,,,,,,,,141.5,1.5,,,,,
128,,choice,,html-keyboard-response,128,157650,0.0-1.0-12.0-0.18-0.18,0,0,12,,,,,,10.0,310.0,1000.0,1000.0,0.0,6.0,1.0,60-60,0.0,,nail polish,patio lounge chair,60.0,60.0,nail polish10,patio lounge chair11,80.0,80.0,NLM23_opi_nail_polish.jpg,51830.jpg,/static/Category_learning/Stimuli/Experimental_stims/nail polish/NLM23_opi_nail_polish.jpg,/static/Category_learning/Stimuli/Experimental_stims/patio lounge chair/51830.jpg,,,,,,,,,,1.0,143.0,1.5,,,,,
129,,isi,,html-keyboard-response,129,158691,0.0-1.0-12.0-0.18-2.18,0,0,12,,,,,,,,,,,,,,,,,,,,,,,,,,,,,,,,,,,,,,144.0,1.0,,,,,
130,,no_response,,html-keyboard-response,130,160659,0.0-1.0-12.0-0.18-4.18-0.18,1,0,12,,,,,,,,,,,,,,,,,,,,,,,,,,,,,,,,,,,,,,145.0,1.0,,,,,
131,,iti,,html-keyboard-response,131,161379,0.0-1.0-12.0-0.18-5.18,0,0,12,,,,,,,,,,,,,,,,,,,,,,,,,,,,,,,,,,,,,,148.0,3.0,,,,,
132,,choice,,html-keyboard-response,132,163344,0.0-1.0-12.0-0.19-0.19,0,0,12,,,,,,10.0,310.0,1000.0,1000.0,0.0,6.0,1.0,60-60,0.0,,nail polish,patio lounge chair,60.0,60.0,nail polish10,patio lounge chair11,80.0,80.0,NLM23_opi_nail_polish.jpg,51830.jpg,/static/Category_learning/Stimuli/Experimental_stims/nail polish/NLM23_opi_nail_polish.jpg,/static/Category_learning/Stimuli/Experimental_stims/patio lounge chair/51830.jpg,,,,,,,,,,1.0,149.5,1.5,,,,,
133,,isi,,html-keyboard-response,133,164344,0.0-1.0-12.0-0.19-2.19,0,0,12,,,,,,,,,,,,,,,,,,,,,,,,,,,,,,,,,,,,,,151.5,2.0,,,,,
134,,no_response,,html-keyboard-response,134,166728,0.0-1.0-12.0-0.19-4.19-0.19,1,0,12,,,,,,,,,,,,,,,,,,,,,,,,,,,,,,,,,,,,,,152.5,1.0,,,,,
135,,iti,,html-keyboard-response,135,167344,0.0-1.0-12.0-0.19-5.19,0,0,12,,,,,,,,,,,,,,,,,,,,,,,,,,,,,,,,,,,,,,154.5,2.0,,,,,
136,,choice,,html-keyboard-response,136,168851,0.0-1.0-12.0-0.20-0.20,0,0,12,,,,,,10.0,310.0,1000.0,1000.0,0.0,6.0,1.0,60-60,0.0,,nail polish,patio lounge chair,60.0,60.0,nail polish10,patio lounge chair11,80.0,80.0,NLM23_opi_nail_polish.jpg,51830.jpg,/static/Category_learning/Stimuli/Experimental_stims/nail polish/NLM23_opi_nail_polish.jpg,/static/Category_learning/Stimuli/Experimental_stims/patio lounge chair/51830.jpg,,,,,,,,,,1.0,156.0,1.5,,,,,
137,,isi,,html-keyboard-response,137,168958,0.0-1.0-12.0-0.20-2.20,0,0,12,,,,,,,,,,,,,,,,,,,,,,,,,,,,,,,,,,,,,,159.5,3.5,,,,,
138,,no_response,,html-keyboard-response,138,169965,0.0-1.0-12.0-0.20-4.20-0.20,1,0,12,,,,,,,,,,,,,,,,,,,,,,,,,,,,,,,,,,,,,,160.5,1.0,,,,,
139,,iti,,html-keyboard-response,139,170092,0.0-1.0-12.0-0.20-5.20,0,0,12,,,,,,,,,,,,,,,,,,,,,,,,,,,,,,,,,,,,,,163.5,3.0,,,,,
140,,choice,,html-keyboard-response,140,170222,0.0-1.0-12.0-0.21-0.21,0,0,12,,127.0,,,50.0,10.0,310.0,1000.0,1000.0,0.0,6.0,1.0,60-60,0.0,,nail polish,patio lounge chair,60.0,60.0,nail polish10,patio lounge chair11,80.0,80.0,NLM23_opi_nail_polish.jpg,51830.jpg,/static/Category_learning/Stimuli/Experimental_stims/nail polish/NLM23_opi_nail_polish.jpg,/static/Category_learning/Stimuli/Experimental_stims/patio lounge chair/51830.jpg,1.0,nail polish,patio lounge chair,60.0,60.0,nail polish10,patio lounge chair11,80.0,80.0,0.0,163.627,0.127,,,,,
141,,confirmation,,html-keyboard-response,141,171599,0.0-1.0-12.0-0.21-1.21-0.21,0,0,12,,,,,,10.0,,,,,,,,,,,,,,,,,,,,,,,,,,,,,,,,165.0,1.373,,,,,
142,,isi,,html-keyboard-response,142,171702,0.0-1.0-12.0-0.21-2.21,0,0,12,,,,,,,,,,,,,,,,,,,,,,,,,,,,,,,,,,,,,,168.5,3.5,,,,,
143,,feedback,,html-keyboard-response,143,172709,0.0-1.0-12.0-0.21-3.21-0.21,0,0,12,,,,,,10.0,,,,,,,,,,,,,,,,,,,,,,,,,,,,,,,,169.5,1.0,,,,,
144,,iti,,html-keyboard-response,144,172814,0.0-1.0-12.0-0.21-5.21,0,0,12,,,,,,,,,,,,,,,,,,,,,,,,,,,,,,,,,,,,,,172.5,3.0,,,,,
145,,choice,,html-keyboard-response,145,172842,0.0-1.0-13.0-0.0-0.0,0,0,12,,23.0,,,50.0,11.0,311.0,1500.0,2000.0,0.0,6.0,1.0,20-60,0.0,,sofa,flashlight,60.0,20.0,sofa5,flashlight11,60.0,40.0,ALOVSEA14.jpg,new04.jpg,/static/Category_learning/Stimuli/Experimental_stims/sofa/ALOVSEA14.jpg,/static/Category_learning/Stimuli/Experimental_stims/flashlight/new04.jpg,1.0,sofa,flashlight,60.0,20.0,sofa5,flashlight11,60.0,40.0,0.0,172.523,0.023,,,,,
146,,confirmation,,html-keyboard-response,146,174324,0.0-1.0-13.0-0.0-1.0-0.0,0,0,12,,,,,,11.0,,,,,,,,,,,,,,,,,,,,,,,,,,,,,,,,174.0,1.477,,,,,
147,,isi,,html-keyboard-response,147,174430,0.0-1.0-13.0-0.0-2.0,0,0,12,,,,,,,,,,,,,,,,,,,,,,,,,,,,,,,,,,,,,,175.5,1.5,,,,,
148,,feedback,,html-keyboard-response,148,175434,0.0-1.0-13.0-0.0-3.0-0.0,0,0,12,,,,,,11.0,,,,,,,,,,,,,,,,,,,,,,,,,,,,,,,,176.5,1.0,,,,,
149,,iti,,html-keyboard-response,149,175537,0.0-1.0-13.0-0.0-5.0,0,0,12,,,,,,,,,,,,,,,,,,,,,,,,,,,,,,,,,,,,,,178.5,2.0,,,,,
150,,choice,,html-keyboard-response,150,175549,0.0-1.0-14.0-0.0-0.0,0,0,12,,8.0,,,51.0,12.0,312.0,1500.0,1000.0,0.0,6.0,0.0,40-60,,0.0,key chain,necklace,40.0,60.0,key chain6,necklace1,40.0,80.0,highboy_keychain_ItemCA75384.jpg,26443173.thl.jpg,/static/Category_learning/Stimuli/Experimental_stims/key chain/highboy_keychain_ItemCA75384.jpg,/static/Category_learning/Stimuli/Experimental_stims/necklace/26443173.thl.jpg,0.0,necklace,key chain,60.0,40.0,necklace1,key chain6,80.0,40.0,0.0,178.508,0.008,,,,,
151,,confirmation,,html-keyboard-response,151,177047,0.0-1.0-14.0-0.0-1.0-0.0,0,0,12,,,,,,12.0,,,,,,,,,,,,,,,,,,,,,,,,,,,,,,,,180.0,1.492,,,,,
152,,isi,,html-keyboard-response,152,177150,0.0-1.0-14.0-0.0-2.0,0,0,12,,,,,,,,,,,,,,,,,,,,,,,,,,,,,,,,,,,,,,181.5,1.5,,,,,
153,,feedback,,html-keyboard-response,153,178154,0.0-1.0-14.0-0.0-3.0-0.0,0,0,12,,,,,,12.0,,,,,,,,,,,,,,,,,,,,,,,,,,,,,,,,182.5,1.0,,,,,
154,,iti,,html-keyboard-response,154,178259,0.0-1.0-14.0-0.0-5.0,0,0,12,,,,,,,,,,,,,,,,,,,,,,,,,,,,,,,,,,,,,,183.5,1.0,,,,,
155,,choice,,html-keyboard-response,155,178267,0.0-1.0-15.0-0.0-0.0,0,0,12,,4.0,,,51.0,13.0,313.0,1000.0,1500.0,0.0,6.0,0.0,40-80,,1.0,tent,microscope,80.0,40.0,tent5,microscope10,100.0,20.0,Dome Tentnb87r67.jpg,DS-2.jpg,/static/Category_learning/Stimuli/Experimental_stims/tent/Dome Tentnb87r67.jpg,/static/Category_learning/Stimuli/Experimental_stims/microscope/DS-2.jpg,0.0,microscope,tent,40.0,80.0,microscope10,tent5,20.0,100.0,0.0,183.504,0.004,,,,,
156,,confirmation,,html-keyboard-response,156,179769,0.0-1.0-15.0-0.0-1.0-0.0,0,0,12,,,,,,13.0,,,,,,,,,,,,,,,,,,,,,,,,,,,,,,,,185.0,1.496,,,,,
157,,isi,,html-keyboard-response,157,179876,0.0-1.0-15.0-0.0-2.0,0,0,12,,,,,,,,,,,,,,,,,,,,,,,,,,,,,,,,,,,,,,186.0,1.0,,,,,
158,,feedback,,html-keyboard-response,158,180879,0.0-1.0-15.0-0.0-3.0-0.0,0,0,12,,,,,,13.0,,,,,,,,,,,,,,,,,,,,,,,,,,,,,,,,187.0,1.0,,,,,
159,,iti,,html-keyboard-response,159,180984,0.0-1.0-15.0-0.0-5.0,0,0,12,,,,,,,,,,,,,,,,,,,,,,,,,,,,,,,,,,,,,,188.5,1.5,,,,,
160,,choice,,html-keyboard-response,160,181012,0.0-1.0-16.0-0.0-0.0,0,0,12,,24.0,,,51.0,14.0,314.0,1000.0,1500.0,0.0,6.0,0.0,60-80,,1.0,tape,poker card,80.0,60.0,tape14,poker card1,60.0,40.0,922544.jpg,22864704.thl.jpg,/static/Category_learning/Stimuli/Experimental_stims/tape/922544.jpg,/static/Category_learning/Stimuli/Experimental_stims/poker card/22864704.thl.jpg,0.0,poker card,tape,60.0,80.0,poker card1,tape14,40.0,60.0,0.0,188.524,0.024,,,,,
161,,confirmation,,html-keyboard-response,161,182494,0.0-1.0-16.0-0.0-1.0-0.0,0,0,12,,,,,,14.0,,,,,,,,,,,,,,,,,,,,,,,,,,,,,,,,190.0,1.476,,,,,
162,,isi,,html-keyboard-response,162,182601,0.0-1.0-16.0-0.0-2.0,0,0,12,,,,,,,,,,,,,,,,,,,,,,,,,,,,,,,,,,,,,,191.0,1.0,,,,,
163,,feedback,,html-keyboard-response,163,183609,0.0-1.0-16.0-0.0-3.0-0.0,0,0,12,,,,,,14.0,,,,,,,,,,,,,,,,,,,,,,,,,,,,,,,,192.0,1.0,,,,,
164,,iti,,html-keyboard-response,164,183711,0.0-1.0-16.0-0.0-5.0,0,0,12,,,,,,,,,,,,,,,,,,,,,,,,,,,,,,,,,,,,,,193.5,1.5,,,,,
165,,choice,,html-keyboard-response,165,183796,0.0-1.0-17.0-0.0-0.0,0,0,12,,81.0,,,50.0,15.0,315.0,1000.0,1000.0,0.0,6.0,0.0,60-60,,,small table,seashell,60.0,60.0,small table2,seashell8,60.0,40.0,Atable126.jpg,ASEASHEL9.jpg,/static/Category_learning/Stimuli/Experimental_stims/small table/Atable126.jpg,/static/Category_learning/Stimuli/Experimental_stims/seashell/ASEASHEL9.jpg,1.0,small table,seashell,60.0,60.0,small table2,seashell8,60.0,40.0,0.0,193.581,0.081,,,,,
166,,confirmation,,html-keyboard-response,166,185220,0.0-1.0-17.0-0.0-1.0-0.0,0,0,12,,,,,,15.0,,,,,,,,,,,,,,,,,,,,,,,,,,,,,,,,195.0,1.419,,,,,
167,,isi,,html-keyboard-response,167,185325,0.0-1.0-17.0-0.0-2.0,0,0,12,,,,,,,,,,,,,,,,,,,,,,,,,,,,,,,,,,,,,,196.0,1.0,,,,,
168,,feedback,,html-keyboard-response,168,186328,0.0-1.0-17.0-0.0-3.0-0.0,0,0,12,,,,,,15.0,,,,,,,,,,,,,,,,,,,,,,,,,,,,,,,,197.0,1.0,,,,,
169,,iti,,html-keyboard-response,169,186431,0.0-1.0-17.0-0.0-5.0,0,0,12,,,,,,,,,,,,,,,,,,,,,,,,,,,,,,,,,,,,,,198.0,1.0,,,,,
170,,choice,,html-keyboard-response,170,186566,0.0-1.0-18.0-0.0-0.0,0,0,12,,133.0,,,51.0,16.0,316.0,1500.0,1000.0,0.0,6.0,1.0,40-60,0.0,,microscope,necklace,40.0,60.0,microscope10,necklace1,20.0,80.0,DS-2.jpg,26443173.thl.jpg,/static/Category_learning/Stimuli/Experimental_stims/microscope/DS-2.jpg,/static/Category_learning/Stimuli/Experimental_stims/necklace/26443173.thl.jpg,0.0,necklace,microscope,60.0,40.0,necklace1,microscope10,80.0,20.0,0.0,198.133,0.133,,,,,
171,,confirmation,,html-keyboard-response,171,187940,0.0-1.0-18.0-0.0-1.0-0.0,0,0,12,,,,,,16.0,,,,,,,,,,,,,,,,,,,,,,,,,,,,,,,,199.5,1.367,,,,,
172,,isi,,html-keyboard-response,172,188046,0.0-1.0-18.0-0.0-2.0,0,0,12,,,,,,,,,,,,,,,,,,,,,,,,,,,,,,,,,,,,,,201.0,1.5,,,,,
173,,feedback,,html-keyboard-response,173,189050,0.0-1.0-18.0-0.0-3.0-0.0,0,0,12,,,,,,16.0,,,,,,,,,,,,,,,,,,,,,,,,,,,,,,,,202.0,1.0,,,,,
174,,iti,,html-keyboard-response,174,189156,0.0-1.0-18.0-0.0-5.0,0,0,12,,,,,,,,,,,,,,,,,,,,,,,,,,,,,,,,,,,,,,203.0,1.0,,,,,
175,,choice,,html-keyboard-response,175,189267,0.0-1.0-19.0-0.0-0.0,0,0,12,,107.0,,,50.0,17.0,317.0,2000.0,2000.0,0.0,6.0,0.0,20-60,,1.0,nail polish,bowl,60.0,20.0,nail polish7,bowl10,40.0,0.0,117BDAkbo5L._AA160_.jpg,Abowl50.jpg,/static/Category_learning/Stimuli/Experimental_stims/nail polish/117BDAkbo5L._AA160_.jpg,/static/Category_learning/Stimuli/Experimental_stims/bowl/Abowl50.jpg,1.0,nail polish,bowl,60.0,20.0,nail polish7,bowl10,40.0,0.0,0.0,203.107,0.107,,,,,
176,,confirmation,,html-keyboard-response,176,190665,0.0-1.0-19.0-0.0-1.0-0.0,0,0,12,,,,,,17.0,,,,,,,,,,,,,,,,,,,,,,,,,,,,,,,,204.5,1.393,,,,,
177,,isi,,html-keyboard-response,177,190768,0.0-1.0-19.0-0.0-2.0,0,0,12,,,,,,,,,,,,,,,,,,,,,,,,,,,,,,,,,,,,,,206.5,2.0,,,,,
178,,feedback,,html-keyboard-response,178,191773,0.0-1.0-19.0-0.0-3.0-0.0,0,0,12,,,,,,17.0,,,,,,,,,,,,,,,,,,,,,,,,,,,,,,,,207.5,1.0,,,,,
179,,iti,,html-keyboard-response,179,191877,0.0-1.0-19.0-0.0-5.0,0,0,12,,,,,,,,,,,,,,,,,,,,,,,,,,,,,,,,,,,,,,209.5,2.0,,,,,
180,,choice,,html-keyboard-response,180,191943,0.0-1.0-20.0-0.0-0.0,0,0,12,,62.0,,,51.0,18.0,318.0,1000.0,1000.0,0.0,6.0,0.0,20-80,,1.0,trumpet,flashlight,80.0,20.0,trumpet4,flashlight13,60.0,0.0,JUPITER+JTR1000S.jpg,834808_sk_lg.jpg,/static/Category_learning/Stimuli/Experimental_stims/trumpet/JUPITER+JTR1000S.jpg,/static/Category_learning/Stimuli/Experimental_stims/flashlight/834808_sk_lg.jpg,0.0,flashlight,trumpet,20.0,80.0,flashlight13,trumpet4,0.0,60.0,0.0,209.562,0.062,,,,,
181,,confirmation,,html-keyboard-response,181,193385,0.0-1.0-20.0-0.0-1.0-0.0,0,0,12,,,,,,18.0,,,,,,,,,,,,,,,,,,,,,,,,,,,,,,,,211.0,1.438,,,,,
182,,isi,,html-keyboard-response,182,193491,0.0-1.0-20.0-0.0-2.0,0,0,12,,,,,,,,,,,,,,,,,,,,,,,,,,,,,,,,,,,,,,212.0,1.0,,,,,
183,,feedback,,html-keyboard-response,183,194495,0.0-1.0-20.0-0.0-3.0-0.0,0,0,12,,,,,,18.0,,,,,,,,,,,,,,,,,,,,,,,,,,,,,,,,213.0,1.0,,,,,
184,,iti,,html-keyboard-response,184,194601,0.0-1.0-20.0-0.0-5.0,0,0,12,,,,,,,,,,,,,,,,,,,,,,,,,,,,,,,,,,,,,,214.0,1.0,,,,,
185,,choice,,html-keyboard-response,185,194814,0.0-1.0-21.0-0.0-0.0,0,0,12,,211.0,,,50.0,19.0,319.0,1000.0,2000.0,0.0,6.0,0.0,80-80,,,vase,telescope,80.0,80.0,vase8,telescope10,60.0,100.0,Avase171.jpg,digimarc.ms02.jpg,/static/Category_learning/Stimuli/Experimental_stims/vase/Avase171.jpg,/static/Category_learning/Stimuli/Experimental_stims/telescope/digimarc.ms02.jpg,1.0,vase,telescope,80.0,80.0,vase8,telescope10,60.0,100.0,0.0,214.211,0.211,,,,,
186,,confirmation,,html-keyboard-response,186,196110,0.0-1.0-21.0-0.0-1.0-0.0,0,0,12,,,,,,19.0,,,,,,,,,,,,,,,,,,,,,,,,,,,,,,,,215.5,1.289,,,,,
187,,isi,,html-keyboard-response,187,196213,0.0-1.0-21.0-0.0-2.0,0,0,12,,,,,,,,,,,,,,,,,,,,,,,,,,,,,,,,,,,,,,216.5,1.0,,,,,
188,,feedback,,html-keyboard-response,188,197219,0.0-1.0-21.0-0.0-3.0-0.0,0,0,12,,,,,,19.0,,,,,,,,,,,,,,,,,,,,,,,,,,,,,,,,217.5,1.0,,,,,
189,,iti,,html-keyboard-response,189,197327,0.0-1.0-21.0-0.0-5.0,0,0,12,,,,,,,,,,,,,,,,,,,,,,,,,,,,,,,,,,,,,,219.5,2.0,,,,,
190,,choice,,html-keyboard-response,190,198831,0.0-1.0-22.0-0.0-0.0,0,0,12,,,,,,20.0,320.0,1000.0,1000.0,0.0,6.0,0.0,40-80,,0.0,frame,telescope,40.0,80.0,frame15,telescope2,20.0,100.0,AFRAME13.jpg,Brass-telescope-60700.jpg,/static/Category_learning/Stimuli/Experimental_stims/frame/AFRAME13.jpg,/static/Category_learning/Stimuli/Experimental_stims/telescope/Brass-telescope-60700.jpg,,,,,,,,,,1.0,221.0,1.5,,,,,
191,,isi,,html-keyboard-response,191,198937,0.0-1.0-22.0-0.0-2.0,0,0,12,,,,,,,,,,,,,,,,,,,,,,,,,,,,,,,,,,,,,,222.0,1.0,,,,,
192,,no_response,,html-keyboard-response,192,199941,0.0-1.0-22.0-0.0-4.0-0.0,1,0,12,,,,,,,,,,,,,,,,,,,,,,,,,,,,,,,,,,,,,,223.0,1.0,,,,,
193,,iti,,html-keyboard-response,193,200063,0.0-1.0-22.0-0.0-5.0,0,0,12,,,,,,,,,,,,,,,,,,,,,,,,,,,,,,,,,,,,,,224.0,1.0,,,,,
194,,choice,,html-keyboard-response,194,200121,0.0-1.0-22.0-0.1-0.1,0,0,12,,56.0,,,50.0,20.0,320.0,1000.0,1000.0,0.0,6.0,0.0,40-80,,0.0,frame,telescope,40.0,80.0,frame15,telescope2,20.0,100.0,AFRAME13.jpg,Brass-telescope-60700.jpg,/static/Category_learning/Stimuli/Experimental_stims/frame/AFRAME13.jpg,/static/Category_learning/Stimuli/Experimental_stims/telescope/Brass-telescope-60700.jpg,1.0,frame,telescope,40.0,80.0,frame15,telescope2,20.0,100.0,0.0,224.056,0.056,,,,,
195,,confirmation,,html-keyboard-response,195,201572,0.0-1.0-22.0-0.1-1.1-0.1,0,0,12,,,,,,20.0,,,,,,,,,,,,,,,,,,,,,,,,,,,,,,,,225.5,1.444,,,,,
196,,isi,,html-keyboard-response,196,201679,0.0-1.0-22.0-0.1-2.1,0,0,12,,,,,,,,,,,,,,,,,,,,,,,,,,,,,,,,,,,,,,226.5,1.0,,,,,
197,,feedback,,html-keyboard-response,197,202686,0.0-1.0-22.0-0.1-3.1-0.1,0,0,12,,,,,,20.0,,,,,,,,,,,,,,,,,,,,,,,,,,,,,,,,227.5,1.0,,,,,
198,,iti,,html-keyboard-response,198,202789,0.0-1.0-22.0-0.1-5.1,0,0,12,,,,,,,,,,,,,,,,,,,,,,,,,,,,,,,,,,,,,,228.5,1.0,,,,,
199,,choice,,html-keyboard-response,199,204293,0.0-1.0-23.0-0.0-0.0,0,0,12,,,,,,21.0,321.0,1500.0,1500.0,0.0,6.0,0.0,40-40,,,license plate,makeup compact,40.0,40.0,license plate15,makeup compact14,40.0,60.0,hi-hwr-837.jpg,262597_fpx.jpg,/static/Category_learning/Stimuli/Experimental_stims/license plate/hi-hwr-837.jpg,/static/Category_learning/Stimuli/Experimental_stims/makeup compact/262597_fpx.jpg,,,,,,,,,,1.0,230.0,1.5,,,,,
200,,isi,,html-keyboard-response,200,204398,0.0-1.0-23.0-0.0-2.0,0,0,12,,,,,,,,,,,,,,,,,,,,,,,,,,,,,,,,,,,,,,231.5,1.5,,,,,
201,,no_response,,html-keyboard-response,201,205401,0.0-1.0-23.0-0.0-4.0-0.0,1,0,12,,,,,,,,,,,,,,,,,,,,,,,,,,,,,,,,,,,,,,232.5,1.0,,,,,
202,,iti,,html-keyboard-response,202,205524,0.0-1.0-23.0-0.0-5.0,0,0,12,,,,,,,,,,,,,,,,,,,,,,,,,,,,,,,,,,,,,,234.0,1.5,,,,,
203,,choice,,html-keyboard-response,203,205652,0.0-1.0-23.0-0.1-0.1,0,0,12,,124.0,,,51.0,21.0,321.0,1500.0,1500.0,0.0,6.0,0.0,40-40,,,license plate,makeup compact,40.0,40.0,license plate15,makeup compact14,40.0,60.0,hi-hwr-837.jpg,262597_fpx.jpg,/static/Category_learning/Stimuli/Experimental_stims/license plate/hi-hwr-837.jpg,/static/Category_learning/Stimuli/Experimental_stims/makeup compact/262597_fpx.jpg,0.0,makeup compact,license plate,40.0,40.0,makeup compact14,license plate15,60.0,40.0,0.0,234.124,0.124,,,,,
204,,confirmation,,html-keyboard-response,204,207034,0.0-1.0-23.0-0.1-1.1-0.1,0,0,12,,,,,,21.0,,,,,,,,,,,,,,,,,,,,,,,,,,,,,,,,235.5,1.376,,,,,
205,,isi,,html-keyboard-response,205,207140,0.0-1.0-23.0-0.1-2.1,0,0,12,,,,,,,,,,,,,,,,,,,,,,,,,,,,,,,,,,,,,,237.5,2.0,,,,,
206,,feedback,,html-keyboard-response,206,208143,0.0-1.0-23.0-0.1-3.1-0.1,0,0,12,,,,,,21.0,,,,,,,,,,,,,,,,,,,,,,,,,,,,,,,,238.5,1.0,,,,,
207,,iti,,html-keyboard-response,207,208249,0.0-1.0-23.0-0.1-5.1,0,0,12,,,,,,,,,,,,,,,,,,,,,,,,,,,,,,,,,,,,,,240.0,1.5,,,,,
208,,choice,,html-keyboard-response,208,209331,0.0-1.0-24.0-0.0-0.0,0,0,12,,1078.0,,,50.0,22.0,322.0,3500.0,1500.0,0.0,6.0,0.0,20-40,,1.0,hat,baby carriage,40.0,20.0,hat15,baby carriage7,40.0,0.0,AFISHHAT2.jpg,26423282.thl.jpg,/static/Category_learning/Stimuli/Experimental_stims/hat/AFISHHAT2.jpg,/static/Category_learning/Stimuli/Experimental_stims/baby carriage/26423282.thl.jpg,1.0,hat,baby carriage,40.0,20.0,hat15,baby carriage7,40.0,0.0,0.0,241.078,1.078,,,,,
209,,confirmation,,html-keyboard-response,209,209758,0.0-1.0-24.0-0.0-1.0-0.0,0,0,12,,,,,,22.0,,,,,,,,,,,,,,,,,,,,,,,,,,,,,,,,241.5,0.422,,,,,
210,,isi,,html-keyboard-response,210,209865,0.0-1.0-24.0-0.0-2.0,0,0,12,,,,,,,,,,,,,,,,,,,,,,,,,,,,,,,,,,,,,,245.0,3.5,,,,,
211,,feedback,,html-keyboard-response,211,210873,0.0-1.0-24.0-0.0-3.0-0.0,0,0,12,,,,,,22.0,,,,,,,,,,,,,,,,,,,,,,,,,,,,,,,,246.0,1.0,,,,,
212,,iti,,html-keyboard-response,212,210976,0.0-1.0-24.0-0.0-5.0,0,0,12,,,,,,,,,,,,,,,,,,,,,,,,,,,,,,,,,,,,,,247.5,1.5,,,,,
213,,choice,,html-keyboard-response,213,211141,0.0-1.0-25.0-0.0-0.0,0,0,12,,162.0,,,50.0,23.0,323.0,3000.0,1000.0,0.0,6.0,0.0,20-60,,0.0,desk,nail polish,20.0,60.0,desk13,nail polish13,0.0,80.0,26427865.thl.jpg,31cR10fzlML._AA280_.jpg,/static/Category_learning/Stimuli/Experimental_stims/desk/26427865.thl.jpg,/static/Category_learning/Stimuli/Experimental_stims/nail polish/31cR10fzlML._AA280_.jpg,1.0,desk,nail polish,20.0,60.0,desk13,nail polish13,0.0,80.0,0.0,247.662,0.162,,,,,
214,,confirmation,,html-keyboard-response,214,212484,0.0-1.0-25.0-0.0-1.0-0.0,0,0,12,,,,,,23.0,,,,,,,,,,,,,,,,,,,,,,,,,,,,,,,,249.0,1.338,,,,,
215,,isi,,html-keyboard-response,215,212586,0.0-1.0-25.0-0.0-2.0,0,0,12,,,,,,,,,,,,,,,,,,,,,,,,,,,,,,,,,,,,,,252.0,3.0,,,,,
216,,feedback,,html-keyboard-response,216,213593,0.0-1.0-25.0-0.0-3.0-0.0,0,0,12,,,,,,23.0,,,,,,,,,,,,,,,,,,,,,,,,,,,,,,,,253.0,1.0,,,,,
217,,iti,,html-keyboard-response,217,213695,0.0-1.0-25.0-0.0-5.0,0,0,12,,,,,,,,,,,,,,,,,,,,,,,,,,,,,,,,,,,,,,254.0,1.0,,,,,
218,,choice,,html-keyboard-response,218,214164,0.0-1.0-26.0-0.0-0.0,0,0,12,,465.0,,,51.0,24.0,324.0,1000.0,1000.0,0.0,6.0,1.0,20-60,0.0,,small table,flashlight,60.0,20.0,small table2,flashlight13,60.0,0.0,Atable126.jpg,834808_sk_lg.jpg,/static/Category_learning/Stimuli/Experimental_stims/small table/Atable126.jpg,/static/Category_learning/Stimuli/Experimental_stims/flashlight/834808_sk_lg.jpg,0.0,flashlight,small table,20.0,60.0,flashlight13,small table2,0.0,60.0,0.0,254.465,0.465,,,,,
219,,confirmation,,html-keyboard-response,219,215205,0.0-1.0-26.0-0.0-1.0-0.0,0,0,12,,,,,,24.0,,,,,,,,,,,,,,,,,,,,,,,,,,,,,,,,255.5,1.035,,,,,
220,,isi,,html-keyboard-response,220,215311,0.0-1.0-26.0-0.0-2.0,0,0,12,,,,,,,,,,,,,,,,,,,,,,,,,,,,,,,,,,,,,,256.5,1.0,,,,,
221,,feedback,,html-keyboard-response,221,216314,0.0-1.0-26.0-0.0-3.0-0.0,0,0,12,,,,,,24.0,,,,,,,,,,,,,,,,,,,,,,,,,,,,,,,,257.5,1.0,,,,,
222,,iti,,html-keyboard-response,222,216420,0.0-1.0-26.0-0.0-5.0,0,0,12,,,,,,,,,,,,,,,,,,,,,,,,,,,,,,,,,,,,,,258.5,1.0,,,,,
223,,choice,,html-keyboard-response,223,216439,0.0-1.0-27.0-0.0-0.0,0,0,12,,16.0,,,51.0,25.0,325.0,1500.0,1000.0,0.0,6.0,0.0,40-60,,1.0,necklace,hammer,60.0,40.0,necklace14,hammer10,80.0,20.0,necklascenew05.jpg,Tabla Hammer.JPG,/static/Category_learning/Stimuli/Experimental_stims/necklace/necklascenew05.jpg,/static/Category_learning/Stimuli/Experimental_stims/hammer/Tabla Hammer.JPG,0.0,hammer,necklace,40.0,60.0,hammer10,necklace14,20.0,80.0,0.0,258.516,0.016,,,,,
224,,confirmation,,html-keyboard-response,224,217929,0.0-1.0-27.0-0.0-1.0-0.0,0,0,12,,,,,,25.0,,,,,,,,,,,,,,,,,,,,,,,,,,,,,,,,260.0,1.484,,,,,
225,,isi,,html-keyboard-response,225,218032,0.0-1.0-27.0-0.0-2.0,0,0,12,,,,,,,,,,,,,,,,,,,,,,,,,,,,,,,,,,,,,,261.5,1.5,,,,,
226,,feedback,,html-keyboard-response,226,219038,0.0-1.0-27.0-0.0-3.0-0.0,0,0,12,,,,,,25.0,,,,,,,,,,,,,,,,,,,,,,,,,,,,,,,,262.5,1.0,,,,,
227,,iti,,html-keyboard-response,227,219141,0.0-1.0-27.0-0.0-5.0,0,0,12,,,,,,,,,,,,,,,,,,,,,,,,,,,,,,,,,,,,,,263.5,1.0,,,,,
228,,choice,,html-keyboard-response,228,219166,0.0-1.0-28.0-0.0-0.0,0,0,12,,22.0,,,50.0,26.0,326.0,1500.0,1500.0,0.0,6.0,1.0,40-40,0.0,,frame,makeup compact,40.0,40.0,frame15,makeup compact14,20.0,60.0,AFRAME13.jpg,262597_fpx.jpg,/static/Category_learning/Stimuli/Experimental_stims/frame/AFRAME13.jpg,/static/Category_learning/Stimuli/Experimental_stims/makeup compact/262597_fpx.jpg,1.0,frame,makeup compact,40.0,40.0,frame15,makeup compact14,20.0,60.0,0.0,263.522,0.022,,,,,
229,,confirmation,,html-keyboard-response,229,220649,0.0-1.0-28.0-0.0-1.0-0.0,0,0,12,,,,,,26.0,,,,,,,,,,,,,,,,,,,,,,,,,,,,,,,,265.0,1.478,,,,,
230,,isi,,html-keyboard-response,230,220756,0.0-1.0-28.0-0.0-2.0,0,0,12,,,,,,,,,,,,,,,,,,,,,,,,,,,,,,,,,,,,,,266.5,1.5,,,,,
231,,feedback,,html-keyboard-response,231,221759,0.0-1.0-28.0-0.0-3.0-0.0,0,0,12,,,,,,26.0,,,,,,,,,,,,,,,,,,,,,,,,,,,,,,,,267.5,1.0,,,,,
232,,iti,,html-keyboard-response,232,221866,0.0-1.0-28.0-0.0-5.0,0,0,12,,,,,,,,,,,,,,,,,,,,,,,,,,,,,,,,,,,,,,269.0,1.5,,,,,
233,,choice,,html-keyboard-response,233,222770,0.0-1.0-29.0-0.0-0.0,0,0,12,,901.0,,,51.0,27.0,327.0,1000.0,1500.0,0.0,6.0,0.0,20-80,,1.0,trumpet,bongo,80.0,20.0,trumpet8,bongo10,80.0,20.0,trumpet33.jpg,22945915.thl.jpg,/static/Category_learning/Stimuli/Experimental_stims/trumpet/trumpet33.jpg,/static/Category_learning/Stimuli/Experimental_stims/bongo/22945915.thl.jpg,0.0,bongo,trumpet,20.0,80.0,bongo10,trumpet8,20.0,80.0,0.0,269.901,0.901,,,,,
234,,confirmation,,html-keyboard-response,234,223377,0.0-1.0-29.0-0.0-1.0-0.0,0,0,12,,,,,,27.0,,,,,,,,,,,,,,,,,,,,,,,,,,,,,,,,270.5,0.599,,,,,
235,,isi,,html-keyboard-response,235,223482,0.0-1.0-29.0-0.0-2.0,0,0,12,,,,,,,,,,,,,,,,,,,,,,,,,,,,,,,,,,,,,,271.5,1.0,,,,,
236,,feedback,,html-keyboard-response,236,224489,0.0-1.0-29.0-0.0-3.0-0.0,0,0,12,,,,,,27.0,,,,,,,,,,,,,,,,,,,,,,,,,,,,,,,,272.5,1.0,,,,,
237,,iti,,html-keyboard-response,237,224595,0.0-1.0-29.0-0.0-5.0,0,0,12,,,,,,,,,,,,,,,,,,,,,,,,,,,,,,,,,,,,,,274.0,1.5,,,,,
238,,choice,,html-keyboard-response,238,225760,0.0-1.0-30.0-0.0-0.0,0,0,12,,1161.0,,,51.0,28.0,328.0,1000.0,2000.0,0.0,6.0,1.0,20-40,0.0,,hammer,bongo,40.0,20.0,hammer10,bongo10,20.0,20.0,Tabla Hammer.JPG,22945915.thl.jpg,/static/Category_learning/Stimuli/Experimental_stims/hammer/Tabla Hammer.JPG,/static/Category_learning/Stimuli/Experimental_stims/bongo/22945915.thl.jpg,0.0,bongo,hammer,20.0,40.0,bongo10,hammer10,20.0,20.0,0.0,275.161,1.161,,,,,
239,,confirmation,,html-keyboard-response,239,226105,0.0-1.0-30.0-0.0-1.0-0.0,0,0,12,,,,,,28.0,,,,,,,,,,,,,,,,,,,,,,,,,,,,,,,,275.5,0.339,,,,,
240,,isi,,html-keyboard-response,240,226212,0.0-1.0-30.0-0.0-2.0,0,0,12,,,,,,,,,,,,,,,,,,,,,,,,,,,,,,,,,,,,,,276.5,1.0,,,,,
241,,feedback,,html-keyboard-response,241,227216,0.0-1.0-30.0-0.0-3.0-0.0,0,0,12,,,,,,28.0,,,,,,,,,,,,,,,,,,,,,,,,,,,,,,,,277.5,1.0,,,,,
242,,iti,,html-keyboard-response,242,227321,0.0-1.0-30.0-0.0-5.0,0,0,12,,,,,,,,,,,,,,,,,,,,,,,,,,,,,,,,,,,,,,279.5,2.0,,,,,
243,,choice,,html-keyboard-response,243,228825,0.0-1.0-31.0-0.0-0.0,0,0,12,,,,,,29.0,329.0,2000.0,1000.0,0.0,6.0,0.0,40-60,,0.0,motorcycle,small table,40.0,60.0,motorcycle4,small table15,20.0,40.0,motorcycle46.jpg,ATABLE20.jpg,/static/Category_learning/Stimuli/Experimental_stims/motorcycle/motorcycle46.jpg,/static/Category_learning/Stimuli/Experimental_stims/small table/ATABLE20.jpg,,,,,,,,,,1.0,281.0,1.5,,,,,
244,,isi,,html-keyboard-response,244,228931,0.0-1.0-31.0-0.0-2.0,0,0,12,,,,,,,,,,,,,,,,,,,,,,,,,,,,,,,,,,,,,,283.0,2.0,,,,,
245,,no_response,,html-keyboard-response,245,229934,0.0-1.0-31.0-0.0-4.0-0.0,1,0,12,,,,,,,,,,,,,,,,,,,,,,,,,,,,,,,,,,,,,,284.0,1.0,,,,,
246,,iti,,html-keyboard-response,246,230053,0.0-1.0-31.0-0.0-5.0,0,0,12,,,,,,,,,,,,,,,,,,,,,,,,,,,,,,,,,,,,,,285.0,1.0,,,,,
247,,choice,,html-keyboard-response,247,230222,0.0-1.0-31.0-0.1-0.1,0,0,12,,166.0,,,51.0,29.0,329.0,2000.0,1000.0,0.0,6.0,0.0,40-60,,0.0,motorcycle,small table,40.0,60.0,motorcycle4,small table15,20.0,40.0,motorcycle46.jpg,ATABLE20.jpg,/static/Category_learning/Stimuli/Experimental_stims/motorcycle/motorcycle46.jpg,/static/Category_learning/Stimuli/Experimental_stims/small table/ATABLE20.jpg,0.0,small table,motorcycle,60.0,40.0,small table15,motorcycle4,40.0,20.0,0.0,285.166,0.166,,,,,
248,,confirmation,,html-keyboard-response,248,231562,0.0-1.0-31.0-0.1-1.1-0.1,0,0,12,,,,,,29.0,,,,,,,,,,,,,,,,,,,,,,,,,,,,,,,,286.5,1.334,,,,,
249,,isi,,html-keyboard-response,249,231668,0.0-1.0-31.0-0.1-2.1,0,0,12,,,,,,,,,,,,,,,,,,,,,,,,,,,,,,,,,,,,,,287.5,1.0,,,,,
250,,feedback,,html-keyboard-response,250,232671,0.0-1.0-31.0-0.1-3.1-0.1,0,0,12,,,,,,29.0,,,,,,,,,,,,,,,,,,,,,,,,,,,,,,,,288.5,1.0,,,,,
251,,iti,,html-keyboard-response,251,232777,0.0-1.0-31.0-0.1-5.1,0,0,12,,,,,,,,,,,,,,,,,,,,,,,,,,,,,,,,,,,,,,290.0,1.5,,,,,
252,,choice,,html-keyboard-response,252,233534,0.0-1.0-32.0-0.0-0.0,0,0,12,,753.0,,,51.0,30.0,330.0,1000.0,3500.0,0.0,6.0,0.0,40-80,,1.0,tape,hammer,80.0,40.0,tape2,hammer15,100.0,60.0,Tape_Dispenser.jpg,Vaughan-32-oz-Hickory-Handle-Ball-Pein-Hammer-S432-B0001LRUJM-L-ARCQ0EBO8TR73_.jpg,/static/Category_learning/Stimuli/Experimental_stims/tape/Tape_Dispenser.jpg,/static/Category_learning/Stimuli/Experimental_stims/hammer/Vaughan-32-oz-Hickory-Handle-Ball-Pein-Hammer-S432-B0001LRUJM-L-ARCQ0EBO8TR73_.jpg,0.0,hammer,tape,40.0,80.0,hammer15,tape2,60.0,100.0,0.0,290.753,0.753,,,,,
253,,confirmation,,html-keyboard-response,253,234289,0.0-1.0-32.0-0.0-1.0-0.0,0,0,12,,,,,,30.0,,,,,,,,,,,,,,,,,,,,,,,,,,,,,,,,291.5,0.747,,,,,
254,,isi,,html-keyboard-response,254,234393,0.0-1.0-32.0-0.0-2.0,0,0,12,,,,,,,,,,,,,,,,,,,,,,,,,,,,,,,,,,,,,,292.5,1.0,,,,,
255,,feedback,,html-keyboard-response,255,235401,0.0-1.0-32.0-0.0-3.0-0.0,0,0,12,,,,,,30.0,,,,,,,,,,,,,,,,,,,,,,,,,,,,,,,,293.5,1.0,,,,,
256,,iti,,html-keyboard-response,256,235507,0.0-1.0-32.0-0.0-5.0,0,0,12,,,,,,,,,,,,,,,,,,,,,,,,,,,,,,,,,,,,,,297.0,3.5,,,,,
257,,choice,,html-keyboard-response,257,235659,0.0-1.0-33.0-0.0-0.0,0,0,12,,148.0,,,51.0,31.0,331.0,1000.0,1000.0,0.0,6.0,1.0,20-40,0.0,,desk,lipstick,20.0,40.0,desk13,lipstick5,0.0,20.0,26427865.thl.jpg,P35719_hero.jpg,/static/Category_learning/Stimuli/Experimental_stims/desk/26427865.thl.jpg,/static/Category_learning/Stimuli/Experimental_stims/lipstick/P35719_hero.jpg,0.0,lipstick,desk,40.0,20.0,lipstick5,desk13,20.0,0.0,0.0,297.148,0.148,,,,,
258,,confirmation,,html-keyboard-response,258,237017,0.0-1.0-33.0-0.0-1.0-0.0,0,0,12,,,,,,31.0,,,,,,,,,,,,,,,,,,,,,,,,,,,,,,,,298.5,1.352,,,,,
259,,isi,,html-keyboard-response,259,237124,0.0-1.0-33.0-0.0-2.0,0,0,12,,,,,,,,,,,,,,,,,,,,,,,,,,,,,,,,,,,,,,299.5,1.0,,,,,
260,,feedback,,html-keyboard-response,260,238132,0.0-1.0-33.0-0.0-3.0-0.0,0,0,12,,,,,,31.0,,,,,,,,,,,,,,,,,,,,,,,,,,,,,,,,300.5,1.0,,,,,
261,,iti,,html-keyboard-response,261,238238,0.0-1.0-33.0-0.0-5.0,0,0,12,,,,,,,,,,,,,,,,,,,,,,,,,,,,,,,,,,,,,,301.5,1.0,,,,,
262,,choice,,html-keyboard-response,262,238319,0.0-1.0-34.0-0.0-0.0,0,0,12,,78.0,,,51.0,32.0,332.0,1500.0,3500.0,0.0,6.0,0.0,40-60,,0.0,key chain,poker card,40.0,60.0,key chain4,poker card3,20.0,40.0,Gumby_Green-Keychain.jpg,9817131.thl.jpg,/static/Category_learning/Stimuli/Experimental_stims/key chain/Gumby_Green-Keychain.jpg,/static/Category_learning/Stimuli/Experimental_stims/poker card/9817131.thl.jpg,0.0,poker card,key chain,60.0,40.0,poker card3,key chain4,40.0,20.0,0.0,301.578,0.078,,,,,
263,,confirmation,,html-keyboard-response,263,239748,0.0-1.0-34.0-0.0-1.0-0.0,0,0,12,,,,,,32.0,,,,,,,,,,,,,,,,,,,,,,,,,,,,,,,,303.0,1.422,,,,,
264,,isi,,html-keyboard-response,264,239855,0.0-1.0-34.0-0.0-2.0,0,0,12,,,,,,,,,,,,,,,,,,,,,,,,,,,,,,,,,,,,,,304.5,1.5,,,,,
265,,feedback,,html-keyboard-response,265,240862,0.0-1.0-34.0-0.0-3.0-0.0,0,0,12,,,,,,32.0,,,,,,,,,,,,,,,,,,,,,,,,,,,,,,,,305.5,1.0,,,,,
266,,iti,,html-keyboard-response,266,240969,0.0-1.0-34.0-0.0-5.0,0,0,12,,,,,,,,,,,,,,,,,,,,,,,,,,,,,,,,,,,,,,309.0,3.5,,,,,
267,,choice,,html-keyboard-response,267,241167,0.0-1.0-35.0-0.0-0.0,0,0,12,,194.0,,,51.0,33.0,333.0,1500.0,2000.0,0.0,6.0,1.0,60-60,1.0,,poker card,poker card,60.0,60.0,poker card3,poker card1,40.0,40.0,9817131.thl.jpg,22864704.thl.jpg,/static/Category_learning/Stimuli/Experimental_stims/poker card/9817131.thl.jpg,/static/Category_learning/Stimuli/Experimental_stims/poker card/22864704.thl.jpg,0.0,poker card,poker card,60.0,60.0,poker card1,poker card3,40.0,40.0,0.0,309.194,0.194,,,,,
268,,confirmation,,html-keyboard-response,268,242479,0.0-1.0-35.0-0.0-1.0-0.0,0,0,12,,,,,,33.0,,,,,,,,,,,,,,,,,,,,,,,,,,,,,,,,310.5,1.306,,,,,
269,,isi,,html-keyboard-response,269,242585,0.0-1.0-35.0-0.0-2.0,0,0,12,,,,,,,,,,,,,,,,,,,,,,,,,,,,,,,,,,,,,,312.0,1.5,,,,,
270,,feedback,,html-keyboard-response,270,243589,0.0-1.0-35.0-0.0-3.0-0.0,0,0,12,,,,,,33.0,,,,,,,,,,,,,,,,,,,,,,,,,,,,,,,,313.0,1.0,,,,,
271,,iti,,html-keyboard-response,271,243692,0.0-1.0-35.0-0.0-5.0,0,0,12,,,,,,,,,,,,,,,,,,,,,,,,,,,,,,,,,,,,,,315.0,2.0,,,,,
272,,choice,,html-keyboard-response,272,243982,0.0-1.0-36.0-0.0-0.0,0,0,12,,287.0,,,51.0,34.0,334.0,1500.0,2000.0,0.0,6.0,0.0,80-80,,,telescope,trumpet,80.0,80.0,telescope8,trumpet6,80.0,60.0,p0006439g.jpg,JUP416S.JPG,/static/Category_learning/Stimuli/Experimental_stims/telescope/p0006439g.jpg,/static/Category_learning/Stimuli/Experimental_stims/trumpet/JUP416S.JPG,0.0,trumpet,telescope,80.0,80.0,trumpet6,telescope8,60.0,80.0,0.0,315.287,0.287,,,,,
273,,confirmation,,html-keyboard-response,273,245199,0.0-1.0-36.0-0.0-1.0-0.0,0,0,12,,,,,,34.0,,,,,,,,,,,,,,,,,,,,,,,,,,,,,,,,316.5,1.213,,,,,
274,,isi,,html-keyboard-response,274,245305,0.0-1.0-36.0-0.0-2.0,0,0,12,,,,,,,,,,,,,,,,,,,,,,,,,,,,,,,,,,,,,,318.0,1.5,,,,,
275,,feedback,,html-keyboard-response,275,246309,0.0-1.0-36.0-0.0-3.0-0.0,0,0,12,,,,,,34.0,,,,,,,,,,,,,,,,,,,,,,,,,,,,,,,,319.0,1.0,,,,,
276,,iti,,html-keyboard-response,276,246415,0.0-1.0-36.0-0.0-5.0,0,0,12,,,,,,,,,,,,,,,,,,,,,,,,,,,,,,,,,,,,,,321.0,2.0,,,,,
277,,choice,,html-keyboard-response,277,246426,0.0-1.0-37.0-0.0-0.0,0,0,12,,7.0,,,50.0,35.0,335.0,1000.0,1000.0,0.0,6.0,0.0,20-40,,0.0,bowl,hammer,20.0,40.0,bowl14,hammer1,40.0,20.0,Aredglassbowl.jpg,fosnaugh.hammer.jpg,/static/Category_learning/Stimuli/Experimental_stims/bowl/Aredglassbowl.jpg,/static/Category_learning/Stimuli/Experimental_stims/hammer/fosnaugh.hammer.jpg,1.0,bowl,hammer,20.0,40.0,bowl14,hammer1,40.0,20.0,0.0,321.007,0.007,,,,,
278,,confirmation,,html-keyboard-response,278,247926,0.0-1.0-37.0-0.0-1.0-0.0,0,0,12,,,,,,35.0,,,,,,,,,,,,,,,,,,,,,,,,,,,,,,,,322.5,1.493,,,,,
279,,isi,,html-keyboard-response,279,248031,0.0-1.0-37.0-0.0-2.0,0,0,12,,,,,,,,,,,,,,,,,,,,,,,,,,,,,,,,,,,,,,323.5,1.0,,,,,
280,,feedback,,html-keyboard-response,280,249034,0.0-1.0-37.0-0.0-3.0-0.0,0,0,12,,,,,,35.0,,,,,,,,,,,,,,,,,,,,,,,,,,,,,,,,324.5,1.0,,,,,
281,,iti,,html-keyboard-response,281,249136,0.0-1.0-37.0-0.0-5.0,0,0,12,,,,,,,,,,,,,,,,,,,,,,,,,,,,,,,,,,,,,,325.5,1.0,,,,,
282,,choice,,html-keyboard-response,282,249236,0.0-1.0-38.0-0.0-0.0,0,0,12,,96.0,,,50.0,36.0,336.0,2000.0,1000.0,0.0,6.0,1.0,40-80,0.0,,trumpet,hat,80.0,40.0,trumpet6,hat15,60.0,40.0,JUP416S.JPG,AFISHHAT2.jpg,/static/Category_learning/Stimuli/Experimental_stims/trumpet/JUP416S.JPG,/static/Category_learning/Stimuli/Experimental_stims/hat/AFISHHAT2.jpg,1.0,trumpet,hat,80.0,40.0,trumpet6,hat15,60.0,40.0,0.0,325.596,0.096,,,,,
283,,confirmation,,html-keyboard-response,283,250644,0.0-1.0-38.0-0.0-1.0-0.0,0,0,12,,,,,,36.0,,,,,,,,,,,,,,,,,,,,,,,,,,,,,,,,327.0,1.404,,,,,
284,,isi,,html-keyboard-response,284,250751,0.0-1.0-38.0-0.0-2.0,0,0,12,,,,,,,,,,,,,,,,,,,,,,,,,,,,,,,,,,,,,,329.0,2.0,,,,,
285,,feedback,,html-keyboard-response,285,251754,0.0-1.0-38.0-0.0-3.0-0.0,0,0,12,,,,,,36.0,,,,,,,,,,,,,,,,,,,,,,,,,,,,,,,,330.0,1.0,,,,,
286,,iti,,html-keyboard-response,286,251860,0.0-1.0-38.0-0.0-5.0,0,0,12,,,,,,,,,,,,,,,,,,,,,,,,,,,,,,,,,,,,,,331.0,1.0,,,,,
287,,choice,,html-keyboard-response,287,252622,0.0-1.0-39.0-0.0-0.0,0,0,12,,759.0,,,51.0,37.0,337.0,1500.0,1000.0,0.0,6.0,0.0,40-80,,0.0,key chain,watch,40.0,80.0,key chain2,watch3,40.0,80.0,superman_returns_pewter_keychain_2.jpg,B0000TIIVO.01._SCLZZZZZZZ_V1124920780_.jpg,/static/Category_learning/Stimuli/Experimental_stims/key chain/superman_returns_pewter_keychain_2.jpg,/static/Category_learning/Stimuli/Experimental_stims/watch/B0000TIIVO.01._SCLZZZZZZZ_V1124920780_.jpg,0.0,watch,key chain,80.0,40.0,watch3,key chain2,80.0,40.0,0.0,331.759,0.759,,,,,
288,,confirmation,,html-keyboard-response,288,253371,0.0-1.0-39.0-0.0-1.0-0.0,0,0,12,,,,,,37.0,,,,,,,,,,,,,,,,,,,,,,,,,,,,,,,,332.5,0.741,,,,,
289,,isi,,html-keyboard-response,289,253476,0.0-1.0-39.0-0.0-2.0,0,0,12,,,,,,,,,,,,,,,,,,,,,,,,,,,,,,,,,,,,,,334.0,1.5,,,,,
290,,feedback,,html-keyboard-response,290,254479,0.0-1.0-39.0-0.0-3.0-0.0,0,0,12,,,,,,37.0,,,,,,,,,,,,,,,,,,,,,,,,,,,,,,,,335.0,1.0,,,,,
291,,iti,,html-keyboard-response,291,254585,0.0-1.0-39.0-0.0-5.0,0,0,12,,,,,,,,,,,,,,,,,,,,,,,,,,,,,,,,,,,,,,336.0,1.0,,,,,
292,,choice,,html-keyboard-response,292,254780,0.0-1.0-40.0-0.0-0.0,0,0,12,,192.0,,,51.0,38.0,338.0,1000.0,2000.0,0.0,6.0,0.0,20-60,,1.0,small table,baby carriage,60.0,20.0,small table13,baby carriage1,40.0,40.0,ATABLE25.jpg,babycarriage16.jpg,/static/Category_learning/Stimuli/Experimental_stims/small table/ATABLE25.jpg,/static/Category_learning/Stimuli/Experimental_stims/baby carriage/babycarriage16.jpg,0.0,baby carriage,small table,20.0,60.0,baby carriage1,small table13,40.0,40.0,0.0,336.192,0.192,,,,,
293,,confirmation,,html-keyboard-response,293,256095,0.0-1.0-40.0-0.0-1.0-0.0,0,0,12,,,,,,38.0,,,,,,,,,,,,,,,,,,,,,,,,,,,,,,,,337.5,1.308,,,,,
294,,isi,,html-keyboard-response,294,256201,0.0-1.0-40.0-0.0-2.0,0,0,12,,,,,,,,,,,,,,,,,,,,,,,,,,,,,,,,,,,,,,338.5,1.0,,,,,
295,,feedback,,html-keyboard-response,295,257210,0.0-1.0-40.0-0.0-3.0-0.0,0,0,12,,,,,,38.0,,,,,,,,,,,,,,,,,,,,,,,,,,,,,,,,339.5,1.0,,,,,
296,,iti,,html-keyboard-response,296,257316,0.0-1.0-40.0-0.0-5.0,0,0,12,,,,,,,,,,,,,,,,,,,,,,,,,,,,,,,,,,,,,,341.5,2.0,,,,,
297,,choice,,html-keyboard-response,297,257974,0.0-1.0-41.0-0.0-0.0,0,0,12,,655.0,,,50.0,39.0,339.0,2000.0,1500.0,0.0,6.0,1.0,60-80,0.0,,nail polish,watch,60.0,80.0,nail polish7,watch3,40.0,80.0,117BDAkbo5L._AA160_.jpg,B0000TIIVO.01._SCLZZZZZZZ_V1124920780_.jpg,/static/Category_learning/Stimuli/Experimental_stims/nail polish/117BDAkbo5L._AA160_.jpg,/static/Category_learning/Stimuli/Experimental_stims/watch/B0000TIIVO.01._SCLZZZZZZZ_V1124920780_.jpg,1.0,nail polish,watch,60.0,80.0,nail polish7,watch3,40.0,80.0,0.0,342.155,0.655,,,,,
298,,confirmation,,html-keyboard-response,298,258825,0.0-1.0-41.0-0.0-1.0-0.0,0,0,12,,,,,,39.0,,,,,,,,,,,,,,,,,,,,,,,,,,,,,,,,343.0,0.845,,,,,
299,,isi,,html-keyboard-response,299,258932,0.0-1.0-41.0-0.0-2.0,0,0,12,,,,,,,,,,,,,,,,,,,,,,,,,,,,,,,,,,,,,,345.0,2.0,,,,,
300,,feedback,,html-keyboard-response,300,259940,0.0-1.0-41.0-0.0-3.0-0.0,0,0,12,,,,,,39.0,,,,,,,,,,,,,,,,,,,,,,,,,,,,,,,,346.0,1.0,,,,,
301,,iti,,html-keyboard-response,301,260047,0.0-1.0-41.0-0.0-5.0,0,0,12,,,,,,,,,,,,,,,,,,,,,,,,,,,,,,,,,,,,,,347.5,1.5,,,,,
302,,choice,,html-keyboard-response,302,260201,0.0-1.0-42.0-0.0-0.0,0,0,12,,151.0,,,50.0,40.0,340.0,1000.0,2000.0,0.0,6.0,0.0,20-60,,0.0,baby carriage,patio lounge chair,20.0,60.0,baby carriage15,patio lounge chair7,0.0,40.0,AANBABYC2.jpg,lg_Serenity_Riviera[1].jpg,/static/Category_learning/Stimuli/Experimental_stims/baby carriage/AANBABYC2.jpg,/static/Category_learning/Stimuli/Experimental_stims/patio lounge chair/lg_Serenity_Riviera[1].jpg,1.0,baby carriage,patio lounge chair,20.0,60.0,baby carriage15,patio lounge chair7,0.0,40.0,0.0,347.651,0.151,,,,,
303,,confirmation,,html-keyboard-response,303,261556,0.0-1.0-42.0-0.0-1.0-0.0,0,0,12,,,,,,40.0,,,,,,,,,,,,,,,,,,,,,,,,,,,,,,,,349.0,1.349,,,,,
304,,isi,,html-keyboard-response,304,261662,0.0-1.0-42.0-0.0-2.0,0,0,12,,,,,,,,,,,,,,,,,,,,,,,,,,,,,,,,,,,,,,350.0,1.0,,0.67,,,
305,,final_tally,,html-keyboard-response,305,261925,0.0-2.0-0.0,0,0,12,,260.0,,,50.0,,,,,,,,,,,,,,,,,,,,,,,,,,,,,,,,,,,,,,,
306,,category_memory_instructions,,instructions,306,265547,0.0-3.0-0.0,0,0,12,"[{""page_index"":0,""viewing_time"":2184},{""page_index"":1,""viewing_time"":616},{""page_index"":2,""viewing_time"":800}]",3600.0,,,,,,,,,,,,,,,,,,,,,,,,,,,,,,,,,,,,,,,,,,
307,,category_memory,,survey-text,307,267760,0.0-3.0-1.0-0.0,0,0,12,,2210.0,"{""Q0"":""0""}",,,0.0,,,,,,,,,,,,,,,,,,,,,,,,,,,,,,,,,,,,lipstick,40.0,0.0
308,,category_memory,,survey-text,308,269295,0.0-3.0-2.0-0.0,0,0,12,,1532.0,"{""Q0"":""0""}",,,1.0,,,,,,,,,,,,,,,,,,,,,,,,,,,,,,,,,,,,watch,80.0,0.0
309,,category_memory,,survey-text,309,271125,0.0-3.0-3.0-0.0,0,0,12,,1826.0,"{""Q0"":""0""}",,,2.0,,,,,,,,,,,,,,,,,,,,,,,,,,,,,,,,,,,,small table,60.0,0.0
310,,category_memory,,survey-text,310,272216,0.0-3.0-4.0-0.0,0,0,12,,1088.0,"{""Q0"":""0""}",,,3.0,,,,,,,,,,,,,,,,,,,,,,,,,,,,,,,,,,,,makeup compact,40.0,0.0
311,,category_memory,,survey-text,311,273215,0.0-3.0-5.0-0.0,0,0,12,,996.0,"{""Q0"":""0""}",,,4.0,,,,,,,,,,,,,,,,,,,,,,,,,,,,,,,,,,,,tent,80.0,0.0
312,,category_memory,,survey-text,312,274107,0.0-3.0-6.0-0.0,0,0,12,,889.0,"{""Q0"":""0""}",,,5.0,,,,,,,,,,,,,,,,,,,,,,,,,,,,,,,,,,,,desk,20.0,0.0
313,,category_memory,,survey-text,313,275130,0.0-3.0-7.0-0.0,0,0,12,,1019.0,"{""Q0"":""0""}",,,6.0,,,,,,,,,,,,,,,,,,,,,,,,,,,,,,,,,,,,microscope,40.0,0.0
314,,category_memory,,survey-text,314,276064,0.0-3.0-8.0-0.0,0,0,12,,931.0,"{""Q0"":""0""}",,,7.0,,,,,,,,,,,,,,,,,,,,,,,,,,,,,,,,,,,,power strip,60.0,0.0
315,,category_memory,,survey-text,315,276972,0.0-3.0-9.0-0.0,0,0,12,,905.0,"{""Q0"":""0""}",,,8.0,,,,,,,,,,,,,,,,,,,,,,,,,,,,,,,,,,,,train,80.0,0.0
316,,category_memory,,survey-text,316,277826,0.0-3.0-10.0-0.0,0,0,12,,850.0,"{""Q0"":""0""}",,,9.0,,,,,,,,,,,,,,,,,,,,,,,,,,,,,,,,,,,,bench,20.0,0.0
317,,category_memory,,survey-text,317,278758,0.0-3.0-11.0-0.0,0,0,12,,929.0,"{""Q0"":""0""}",,,10.0,,,,,,,,,,,,,,,,,,,,,,,,,,,,,,,,,,,,bowl,20.0,0.0
318,,category_memory,,survey-text,318,280018,0.0-3.0-12.0-0.0,0,0,12,,1257.0,"{""Q0"":""0""}",,,11.0,,,,,,,,,,,,,,,,,,,,,,,,,,,,,,,,,,,,bongo,20.0,0.0
319,,category_memory,,survey-text,319,280948,0.0-3.0-13.0-0.0,0,0,12,,928.0,"{""Q0"":""0""}",,,12.0,,,,,,,,,,,,,,,,,,,,,,,,,,,,,,,,,,,,motorcycle,40.0,0.0
320,,category_memory,,survey-text,320,281888,0.0-3.0-14.0-0.0,0,0,12,,936.0,"{""Q0"":""0""}",,,13.0,,,,,,,,,,,,,,,,,,,,,,,,,,,,,,,,,,,,necklace,60.0,0.0
321,,category_memory,,survey-text,321,283055,0.0-3.0-15.0-0.0,0,0,12,,1164.0,"{""Q0"":""0""}",,,14.0,,,,,,,,,,,,,,,,,,,,,,,,,,,,,,,,,,,,patio lounge chair,60.0,0.0
322,,category_memory,,survey-text,322,284633,0.0-3.0-16.0-0.0,0,0,12,,1575.0,"{""Q0"":""0""}",,,15.0,,,,,,,,,,,,,,,,,,,,,,,,,,,,,,,,,,,,hat,40.0,0.0
323,,category_memory,,survey-text,323,285661,0.0-3.0-17.0-0.0,0,0,12,,1025.0,"{""Q0"":""0""}",,,16.0,,,,,,,,,,,,,,,,,,,,,,,,,,,,,,,,,,,,yarn,80.0,0.0
324,,category_memory,,survey-text,324,286918,0.0-3.0-18.0-0.0,0,0,12,,1254.0,"{""Q0"":""0""}",,,17.0,,,,,,,,,,,,,,,,,,,,,,,,,,,,,,,,,,,,flashlight,20.0,0.0
325,,category_memory,,survey-text,325,287793,0.0-3.0-19.0-0.0,0,0,12,,872.0,"{""Q0"":""0""}",,,18.0,,,,,,,,,,,,,,,,,,,,,,,,,,,,,,,,,,,,nail polish,60.0,0.0
326,,category_memory,,survey-text,326,288728,0.0-3.0-20.0-0.0,0,0,12,,931.0,"{""Q0"":""0""}",,,19.0,,,,,,,,,,,,,,,,,,,,,,,,,,,,,,,,,,,,door knob,20.0,0.0
327,,category_memory,,survey-text,327,289704,0.0-3.0-21.0-0.0,0,0,12,,972.0,"{""Q0"":""0""}",,,20.0,,,,,,,,,,,,,,,,,,,,,,,,,,,,,,,,,,,,pen,60.0,0.0
328,,category_memory,,survey-text,328,290589,0.0-3.0-22.0-0.0,0,0,12,,881.0,"{""Q0"":""0""}",,,21.0,,,,,,,,,,,,,,,,,,,,,,,,,,,,,,,,,,,,frame,40.0,0.0
329,,category_memory,,survey-text,329,291609,0.0-3.0-23.0-0.0,0,0,12,,1017.0,"{""Q0"":""0""}",,,22.0,,,,,,,,,,,,,,,,,,,,,,,,,,,,,,,,,,,,hammer,40.0,0.0
330,,category_memory,,survey-text,330,292546,0.0-3.0-24.0-0.0,0,0,12,,934.0,"{""Q0"":""0""}",,,23.0,,,,,,,,,,,,,,,,,,,,,,,,,,,,,,,,,,,,seashell,60.0,0.0
331,,category_memory,,survey-text,331,293792,0.0-3.0-25.0-0.0,0,0,12,,1242.0,"{""Q0"":""0""}",,,24.0,,,,,,,,,,,,,,,,,,,,,,,,,,,,,,,,,,,,baby carriage,20.0,0.0
332,,category_memory,,survey-text,332,294803,0.0-3.0-26.0-0.0,0,0,12,,1008.0,"{""Q0"":""0""}",,,25.0,,,,,,,,,,,,,,,,,,,,,,,,,,,,,,,,,,,,vase,80.0,0.0
333,,category_memory,,survey-text,333,295941,0.0-3.0-27.0-0.0,0,0,12,,1135.0,"{""Q0"":""0""}",,,26.0,,,,,,,,,,,,,,,,,,,,,,,,,,,,,,,,,,,,sofa,60.0,0.0
334,,category_memory,,survey-text,334,296997,0.0-3.0-28.0-0.0,0,0,12,,1053.0,"{""Q0"":""0""}",,,27.0,,,,,,,,,,,,,,,,,,,,,,,,,,,,,,,,,,,,key chain,40.0,0.0
335,,category_memory,,survey-text,335,297900,0.0-3.0-29.0-0.0,0,0,12,,900.0,"{""Q0"":""0""}",,,28.0,,,,,,,,,,,,,,,,,,,,,,,,,,,,,,,,,,,,trumpet,80.0,0.0
336,,category_memory,,survey-text,336,299284,0.0-3.0-30.0-0.0,0,0,12,,1381.0,"{""Q0"":""0""}",,,29.0,,,,,,,,,,,,,,,,,,,,,,,,,,,,,,,,,,,,dresser,20.0,0.0
337,,category_memory,,survey-text,337,300288,0.0-3.0-31.0-0.0,0,0,12,,1000.0,"{""Q0"":""0""}",,,30.0,,,,,,,,,,,,,,,,,,,,,,,,,,,,,,,,,,,,poker card,60.0,0.0
338,,category_memory,,survey-text,338,301286,0.0-3.0-32.0-0.0,0,0,12,,994.0,"{""Q0"":""0""}",,,31.0,,,,,,,,,,,,,,,,,,,,,,,,,,,,,,,,,,,,stool,80.0,0.0
339,,category_memory,,survey-text,339,302621,0.0-3.0-33.0-0.0,0,0,12,,1332.0,"{""Q0"":""0""}",,,32.0,,,,,,,,,,,,,,,,,,,,,,,,,,,,,,,,,,,,telescope,80.0,0.0
340,,category_memory,,survey-text,340,303669,0.0-3.0-34.0-0.0,0,0,12,,1045.0,"{""Q0"":""0""}",,,33.0,,,,,,,,,,,,,,,,,,,,,,,,,,,,,,,,,,,,fan,20.0,0.0
341,,category_memory,,survey-text,341,304714,0.0-3.0-35.0-0.0,0,0,12,,1042.0,"{""Q0"":""0""}",,,34.0,,,,,,,,,,,,,,,,,,,,,,,,,,,,,,,,,,,,tape,80.0,0.0
342,,category_memory,,survey-text,342,305709,0.0-3.0-36.0-0.0,0,0,12,,992.0,"{""Q0"":""0""}",,,35.0,,,,,,,,,,,,,,,,,,,,,,,,,,,,,,,,,,,,license plate,40.0,0.0
