,success,ttype,start_time,trial_type,trial_index,time_elapsed,internal_node_id,warning,missed_checkup,PID,view_history,rt,responses,repeat_instructions,key_press,index,trial_num,isi,iti,is_practice,block,old_trial,pair_type,within_category,high_cat_on_left,left_category,right_category,left_category_value,right_category_value,left_exemplar,right_exemplar,left_exemplar_value,right_exemplar_value,left_img,right_img,left_img_path,right_img_path,left_chosen,chosen_category,unchosen_category,chosen_category_value,unchosen_category_value,chosen_exemplar,unchosen_exemplar,chosen_exemplar_value,unchosen_exemplar_value,no_response,onset,duration,end_practice,total_bonus_tally
0,True,full_screen,d06032022hr1524,fullscreen,0,27776,0.0-0.0,0,0,89885,,,,,,,,,,,,,,,,,,,,,,,,,,,,,,,,,,,,,,,,,
1,,category_learning_instructions,,instructions,1,86145,0.0-1.0-0.0-0.0,0,0,89885,"[{""page_index"":0,""viewing_time"":15376},{""page_index"":1,""viewing_time"":13445},{""page_index"":2,""viewing_time"":9720},{""page_index"":3,""viewing_time"":4433},{""page_index"":4,""viewing_time"":10406},{""page_index"":5,""viewing_time"":2386},{""page_index"":6,""viewing_time"":2599}]",58366.0,,,,,,,,,,,,,,,,,,,,,,,,,,,,,,,,,,,,,,,
2,,category_learning_comprehension_check,,survey-multi-choice,2,103598,0.0-1.0-0.0-1.0,0,0,89885,,17444.0,"{""Q0"":""True"",""Q1"":""True"",""Q2"":""Stay the same"",""Q3"":""D for left and K for right""}",0.0,,,,,,,,,,,,,,,,,,,,,,,,,,,,,,,,,,,,,
3,,,,html-keyboard-response,3,107582,0.0-1.0-1.0,0,0,89885,,3979.0,,,68.0,,,,,,,,,,,,,,,,,,,,,,,,,,,,,,,,,,,,
4,,choice,,html-keyboard-response,4,109069,0.0-1.0-2.0-0.0-0.0,0,0,89885,,1482.0,,,68.0,0.0,0.0,1500.0,1000.0,1.0,0.0,0.0,20-80,,0.0,bagel,dumbbell,20.0,80.0,bagel1,dumbbell1,0.0,80.0,bagels_pumpernickel_large.jpg,31B64EN68AL._AA280_.jpg,/static/Category_learning/Stimuli/Practice_stims/bagel/bagels_pumpernickel_large.jpg,/static/Category_learning/Stimuli/Practice_stims/dumbbell/31B64EN68AL._AA280_.jpg,1.0,bagel,dumbbell,20.0,80.0,bagel1,dumbbell1,0.0,80.0,0.0,1.482,1.482,,
5,,confirmation,,html-keyboard-response,5,109091,0.0-1.0-2.0-0.0-1.0-0.0,0,0,89885,,,,,,0.0,,,,,,,,,,,,,,,,,,,,,,,,,,,,,,,,1.5,0.018,,
6,,isi,,html-keyboard-response,6,110598,0.0-1.0-2.0-0.0-2.0,0,0,89885,,,,,,,,,,,,,,,,,,,,,,,,,,,,,,,,,,,,,,3.0,1.5,,
7,,feedback,,html-keyboard-response,7,111604,0.0-1.0-2.0-0.0-3.0-0.0,0,0,89885,,,,,,0.0,,,,,,,,,,,,,,,,,,,,,,,,,,,,,,,,4.0,1.0,,
8,,iti,,html-keyboard-response,8,112608,0.0-1.0-2.0-0.0-5.0,0,0,89885,,,,,,,,,,,,,,,,,,,,,,,,,,,,,,,,,,,,,,5.0,1.0,,
9,,choice,,html-keyboard-response,9,113905,0.0-1.0-3.0-0.0-0.0,0,0,89885,,1292.0,,,68.0,1.0,1.0,3000.0,1500.0,1.0,0.0,0.0,20-40,,1.0,calculator,bagel,40.0,20.0,calculator2,bagel2,20.0,20.0,22829064.thl.jpg,bagels_cinnraisin_large.jpg,/static/Category_learning/Stimuli/Practice_stims/calculator/22829064.thl.jpg,/static/Category_learning/Stimuli/Practice_stims/bagel/bagels_cinnraisin_large.jpg,1.0,calculator,bagel,40.0,20.0,calculator2,bagel2,20.0,20.0,0.0,6.292,1.292,,
10,,confirmation,,html-keyboard-response,10,114118,0.0-1.0-3.0-0.0-1.0-0.0,0,0,89885,,,,,,1.0,,,,,,,,,,,,,,,,,,,,,,,,,,,,,,,,6.5,0.208,,
11,,isi,,html-keyboard-response,11,117121,0.0-1.0-3.0-0.0-2.0,0,0,89885,,,,,,,,,,,,,,,,,,,,,,,,,,,,,,,,,,,,,,9.5,3.0,,
12,,feedback,,html-keyboard-response,12,118126,0.0-1.0-3.0-0.0-3.0-0.0,0,0,89885,,,,,,1.0,,,,,,,,,,,,,,,,,,,,,,,,,,,,,,,,10.5,1.0,,
13,,iti,,html-keyboard-response,13,119633,0.0-1.0-3.0-0.0-5.0,0,0,89885,,,,,,,,,,,,,,,,,,,,,,,,,,,,,,,,,,,,,,12.0,1.5,,
14,,choice,,html-keyboard-response,14,120362,0.0-1.0-4.0-0.0-0.0,0,0,89885,,725.0,,,75.0,2.0,2.0,2000.0,3000.0,1.0,0.0,0.0,60-80,,0.0,clock,dumbbell,60.0,80.0,clock2,dumbbell2,60.0,100.0,26373355.thl.jpg,31K8MR6TMBL._SS500_.jpg,/static/Category_learning/Stimuli/Practice_stims/clock/26373355.thl.jpg,/static/Category_learning/Stimuli/Practice_stims/dumbbell/31K8MR6TMBL._SS500_.jpg,0.0,dumbbell,clock,80.0,60.0,dumbbell2,clock2,100.0,60.0,0.0,12.725,0.725,,
15,,confirmation,,html-keyboard-response,15,121145,0.0-1.0-4.0-0.0-1.0-0.0,0,0,89885,,,,,,2.0,,,,,,,,,,,,,,,,,,,,,,,,,,,,,,,,13.5,0.775,,
16,,isi,,html-keyboard-response,16,123154,0.0-1.0-4.0-0.0-2.0,0,0,89885,,,,,,,,,,,,,,,,,,,,,,,,,,,,,,,,,,,,,,15.5,2.0,,
17,,feedback,,html-keyboard-response,17,124158,0.0-1.0-4.0-0.0-3.0-0.0,0,0,89885,,,,,,2.0,,,,,,,,,,,,,,,,,,,,,,,,,,,,,,,,16.5,1.0,,
18,,iti,,html-keyboard-response,18,127164,0.0-1.0-4.0-0.0-5.0,0,0,89885,,,,,,,,,,,,,,,,,,,,,,,,,,,,,,,,,,,,,,19.5,3.0,,
19,,choice,,html-keyboard-response,19,128148,0.0-1.0-5.0-0.0-0.0,0,0,89885,,979.0,,,68.0,3.0,3.0,1000.0,2000.0,1.0,0.0,0.0,40-80,,0.0,calculator,clock,40.0,60.0,calculator1,clock1,40.0,40.0,22829184.thl.jpg,Aalarmclock2.jpg,/static/Category_learning/Stimuli/Practice_stims/calculator/22829184.thl.jpg,/static/Category_learning/Stimuli/Practice_stims/clock/Aalarmclock2.jpg,1.0,calculator,clock,40.0,60.0,calculator1,clock1,40.0,40.0,0.0,20.479,0.979,,
20,,confirmation,,html-keyboard-response,20,128673,0.0-1.0-5.0-0.0-1.0-0.0,0,0,89885,,,,,,3.0,,,,,,,,,,,,,,,,,,,,,,,,,,,,,,,,21.0,0.521,,
21,,isi,,html-keyboard-response,21,129679,0.0-1.0-5.0-0.0-2.0,0,0,89885,,,,,,,,,,,,,,,,,,,,,,,,,,,,,,,,,,,,,,22.0,1.0,,
22,,feedback,,html-keyboard-response,22,130687,0.0-1.0-5.0-0.0-3.0-0.0,0,0,89885,,,,,,3.0,,,,,,,,,,,,,,,,,,,,,,,,,,,,,,,,23.0,1.0,,
23,,iti,,html-keyboard-response,23,132691,0.0-1.0-5.0-0.0-5.0,0,0,89885,,,,,,,,,,,,,,,,,,,,,,,,,,,,,,,,,,,,,,25.0,2.0,,
24,,choice,,html-keyboard-response,24,134179,0.0-1.0-6.0-0.0-0.0,0,0,89885,,1482.0,,,75.0,4.0,4.0,2500.0,2500.0,1.0,0.0,0.0,20-60,,1.0,dumbbell,bagel,80.0,20.0,dumbbell3,bagel3,100.0,40.0,41K7QVRX50L._SS500_.jpg,photo-169.jpg,/static/Category_learning/Stimuli/Practice_stims/dumbbell/41K7QVRX50L._SS500_.jpg,/static/Category_learning/Stimuli/Practice_stims/bagel/photo-169.jpg,0.0,bagel,dumbbell,20.0,80.0,bagel3,dumbbell3,40.0,100.0,0.0,26.482,1.482,1.0,
25,,confirmation,,html-keyboard-response,25,134200,0.0-1.0-6.0-0.0-1.0-0.0,0,0,89885,,,,,,4.0,,,,,,,,,,,,,,,,,,,,,,,,,,,,,,,,26.5,0.018,,
26,,isi,,html-keyboard-response,26,136708,0.0-1.0-6.0-0.0-2.0,0,0,89885,,,,,,,,,,,,,,,,,,,,,,,,,,,,,,,,,,,,,,29.0,2.5,,
27,,feedback,,html-keyboard-response,27,137712,0.0-1.0-6.0-0.0-3.0-0.0,0,0,89885,,,,,,4.0,,,,,,,,,,,,,,,,,,,,,,,,,,,,,,,,30.0,1.0,,
28,,iti,,html-keyboard-response,28,140219,0.0-1.0-6.0-0.0-5.0,0,0,89885,,,,,,,,,,,,,,,,,,,,,,,,,,,,,,,,,,,,,,32.5,2.5,,
29,,practice_over,,html-keyboard-response,29,143157,0.0-1.0-6.0-0.0-6.0-0.0,0,0,89885,,2936.0,,,68.0,4.0,,,,,,,,,,,,,,,,,,,,,,,,,,,,,,,,,,,
30,,start_run,,html-keyboard-response,30,146733,0.0-1.0-6.0-0.0-6.0-1.0,0,0,89885,,3574.0,,,84.0,,,,,,,,,,,,,,,,,,,,,,,,,,,,,,,,,,,,
31,,choice,,html-keyboard-response,31,148243,0.0-1.0-7.0-0.0-0.0,0,0,89885,,,,,,5.0,5.0,1000.0,1500.0,0.0,1.0,0.0,40-40,,,door knob,desk,40.0,40.0,door knob15,desk9,60.0,20.0,Legacy_oval.jpg,desk 189dr96dr chr.jpg,/static/Category_learning/Stimuli/Experimental_stims/door knob/Legacy_oval.jpg,/static/Category_learning/Stimuli/Experimental_stims/desk/desk 189dr96dr chr.jpg,,,,,,,,,,1.0,1.5,1.5,,
32,,isi,,html-keyboard-response,32,149247,0.0-1.0-7.0-0.0-2.0,0,0,89885,,,,,,,,,,,,,,,,,,,,,,,,,,,,,,,,,,,,,,2.5,1.0,,
33,,no_response,,html-keyboard-response,33,150251,0.0-1.0-7.0-0.0-4.0-0.0,0,0,89885,,,,,,,,,,,,,,,,,,,,,,,,,,,,,,,,,,,,,,3.5,1.0,,
34,,iti,,html-keyboard-response,34,151789,0.0-1.0-7.0-0.0-5.0,0,0,89885,,,,,,,,,,,,,,,,,,,,,,,,,,,,,,,,,,,,,,5.0,1.5,,
35,,choice,,html-keyboard-response,35,152292,0.0-1.0-7.0-0.1-0.1,0,0,89885,,497.0,,,68.0,5.0,5.0,1000.0,1500.0,0.0,1.0,0.0,40-40,,,door knob,desk,40.0,40.0,door knob15,desk9,60.0,20.0,Legacy_oval.jpg,desk 189dr96dr chr.jpg,/static/Category_learning/Stimuli/Experimental_stims/door knob/Legacy_oval.jpg,/static/Category_learning/Stimuli/Experimental_stims/desk/desk 189dr96dr chr.jpg,1.0,door knob,desk,40.0,40.0,door knob15,desk9,60.0,20.0,0.0,5.497,0.497,,
36,,confirmation,,html-keyboard-response,36,153301,0.0-1.0-7.0-0.1-1.1-0.1,0,0,89885,,,,,,5.0,,,,,,,,,,,,,,,,,,,,,,,,,,,,,,,,6.5,1.003,,
37,,isi,,html-keyboard-response,37,154308,0.0-1.0-7.0-0.1-2.1,0,0,89885,,,,,,,,,,,,,,,,,,,,,,,,,,,,,,,,,,,,,,7.5,1.0,,
38,,feedback,,html-keyboard-response,38,155314,0.0-1.0-7.0-0.1-3.1-0.1,0,0,89885,,,,,,5.0,,,,,,,,,,,,,,,,,,,,,,,,,,,,,,,,8.5,1.0,,
39,,iti,,html-keyboard-response,39,156818,0.0-1.0-7.0-0.1-5.1,0,0,89885,,,,,,,,,,,,,,,,,,,,,,,,,,,,,,,,,,,,,,10.0,1.5,,
40,,choice,,html-keyboard-response,40,157512,0.0-1.0-8.0-0.0-0.0,0,0,89885,,689.0,,,68.0,6.0,6.0,1500.0,2000.0,0.0,1.0,0.0,40-80,,1.0,pen,door knob,80.0,40.0,pen12,door knob7,100.0,20.0,pen02.jpg,doorknob2.jpg,/static/Category_learning/Stimuli/Experimental_stims/pen/pen02.jpg,/static/Category_learning/Stimuli/Experimental_stims/door knob/doorknob2.jpg,1.0,pen,door knob,80.0,40.0,pen12,door knob7,100.0,20.0,0.0,10.689,0.689,,
41,,confirmation,,html-keyboard-response,41,158331,0.0-1.0-8.0-0.0-1.0-0.0,0,0,89885,,,,,,6.0,,,,,,,,,,,,,,,,,,,,,,,,,,,,,,,,11.5,0.811,,
42,,isi,,html-keyboard-response,42,159838,0.0-1.0-8.0-0.0-2.0,0,0,89885,,,,,,,,,,,,,,,,,,,,,,,,,,,,,,,,,,,,,,13.0,1.5,,
43,,feedback,,html-keyboard-response,43,160845,0.0-1.0-8.0-0.0-3.0-0.0,0,0,89885,,,,,,6.0,,,,,,,,,,,,,,,,,,,,,,,,,,,,,,,,14.0,1.0,,
44,,iti,,html-keyboard-response,44,162853,0.0-1.0-8.0-0.0-5.0,0,0,89885,,,,,,,,,,,,,,,,,,,,,,,,,,,,,,,,,,,,,,16.0,2.0,,
45,,choice,,html-keyboard-response,45,163520,0.0-1.0-9.0-0.0-0.0,0,0,89885,,659.0,,,68.0,7.0,7.0,1000.0,1500.0,0.0,1.0,0.0,80-80,,,seashell,pen,80.0,80.0,seashell3,pen3,80.0,80.0,coquillage.jpg,pen08.jpg,/static/Category_learning/Stimuli/Experimental_stims/seashell/coquillage.jpg,/static/Category_learning/Stimuli/Experimental_stims/pen/pen08.jpg,1.0,seashell,pen,80.0,80.0,seashell3,pen3,80.0,80.0,0.0,16.659,0.659,,
46,,confirmation,,html-keyboard-response,46,164368,0.0-1.0-9.0-0.0-1.0-0.0,0,0,89885,,,,,,7.0,,,,,,,,,,,,,,,,,,,,,,,,,,,,,,,,17.5,0.841,,
47,,isi,,html-keyboard-response,47,165372,0.0-1.0-9.0-0.0-2.0,0,0,89885,,,,,,,,,,,,,,,,,,,,,,,,,,,,,,,,,,,,,,18.5,1.0,,
48,,feedback,,html-keyboard-response,48,166376,0.0-1.0-9.0-0.0-3.0-0.0,0,0,89885,,,,,,7.0,,,,,,,,,,,,,,,,,,,,,,,,,,,,,,,,19.5,1.0,,
49,,iti,,html-keyboard-response,49,167880,0.0-1.0-9.0-0.0-5.0,0,0,89885,,,,,,,,,,,,,,,,,,,,,,,,,,,,,,,,,,,,,,21.0,1.5,,
50,,choice,,html-keyboard-response,50,168448,0.0-1.0-10.0-0.0-0.0,0,0,89885,,563.0,,,68.0,8.0,8.0,1000.0,2000.0,0.0,1.0,0.0,60-60,,,lipstick,key chain,60.0,60.0,lipstick10,key chain1,60.0,80.0,21K0D7QKFAL._SS500_.jpg,jm05s16.jpg,/static/Category_learning/Stimuli/Experimental_stims/lipstick/21K0D7QKFAL._SS500_.jpg,/static/Category_learning/Stimuli/Experimental_stims/key chain/jm05s16.jpg,1.0,lipstick,key chain,60.0,60.0,lipstick10,key chain1,60.0,80.0,0.0,21.563,0.563,,
51,,confirmation,,html-keyboard-response,51,169389,0.0-1.0-10.0-0.0-1.0-0.0,0,0,89885,,,,,,8.0,,,,,,,,,,,,,,,,,,,,,,,,,,,,,,,,22.5,0.937,,
52,,isi,,html-keyboard-response,52,170393,0.0-1.0-10.0-0.0-2.0,0,0,89885,,,,,,,,,,,,,,,,,,,,,,,,,,,,,,,,,,,,,,23.5,1.0,,
53,,feedback,,html-keyboard-response,53,171398,0.0-1.0-10.0-0.0-3.0-0.0,0,0,89885,,,,,,8.0,,,,,,,,,,,,,,,,,,,,,,,,,,,,,,,,24.5,1.0,,
54,,iti,,html-keyboard-response,54,173406,0.0-1.0-10.0-0.0-5.0,0,0,89885,,,,,,,,,,,,,,,,,,,,,,,,,,,,,,,,,,,,,,26.5,2.0,,
55,,choice,,html-keyboard-response,55,174028,0.0-1.0-11.0-0.0-0.0,0,0,89885,,616.0,,,68.0,9.0,9.0,3000.0,1500.0,0.0,1.0,0.0,60-80,,0.0,makeup compact,patio lounge chair,60.0,80.0,makeup compact4,patio lounge chair15,40.0,60.0,262668_fpx.jpg,phpThumb.jpg,/static/Category_learning/Stimuli/Experimental_stims/makeup compact/262668_fpx.jpg,/static/Category_learning/Stimuli/Experimental_stims/patio lounge chair/phpThumb.jpg,1.0,makeup compact,patio lounge chair,60.0,80.0,makeup compact4,patio lounge chair15,40.0,60.0,0.0,27.116,0.616,,
56,,confirmation,,html-keyboard-response,56,174920,0.0-1.0-11.0-0.0-1.0-0.0,0,0,89885,,,,,,9.0,,,,,,,,,,,,,,,,,,,,,,,,,,,,,,,,28.0,0.884,,
57,,isi,,html-keyboard-response,57,177929,0.0-1.0-11.0-0.0-2.0,0,0,89885,,,,,,,,,,,,,,,,,,,,,,,,,,,,,,,,,,,,,,31.0,3.0,,
58,,feedback,,html-keyboard-response,58,178933,0.0-1.0-11.0-0.0-3.0-0.0,0,0,89885,,,,,,9.0,,,,,,,,,,,,,,,,,,,,,,,,,,,,,,,,32.0,1.0,,
59,,iti,,html-keyboard-response,59,180438,0.0-1.0-11.0-0.0-5.0,0,0,89885,,,,,,,,,,,,,,,,,,,,,,,,,,,,,,,,,,,,,,33.5,1.5,,
60,,choice,,html-keyboard-response,60,180981,0.0-1.0-12.0-0.0-0.0,0,0,89885,,537.0,,,68.0,10.0,10.0,2000.0,1500.0,0.0,1.0,1.0,40-80,0.0,,seashell,door knob,80.0,40.0,seashell3,door knob15,80.0,60.0,coquillage.jpg,Legacy_oval.jpg,/static/Category_learning/Stimuli/Experimental_stims/seashell/coquillage.jpg,/static/Category_learning/Stimuli/Experimental_stims/door knob/Legacy_oval.jpg,1.0,seashell,door knob,80.0,40.0,seashell3,door knob15,80.0,60.0,0.0,34.037,0.537,,
61,,confirmation,,html-keyboard-response,61,181948,0.0-1.0-12.0-0.0-1.0-0.0,0,0,89885,,,,,,10.0,,,,,,,,,,,,,,,,,,,,,,,,,,,,,,,,35.0,0.963,,
62,,isi,,html-keyboard-response,62,183952,0.0-1.0-12.0-0.0-2.0,0,0,89885,,,,,,,,,,,,,,,,,,,,,,,,,,,,,,,,,,,,,,37.0,2.0,,
63,,feedback,,html-keyboard-response,63,184959,0.0-1.0-12.0-0.0-3.0-0.0,0,0,89885,,,,,,10.0,,,,,,,,,,,,,,,,,,,,,,,,,,,,,,,,38.0,1.0,,
64,,iti,,html-keyboard-response,64,186465,0.0-1.0-12.0-0.0-5.0,0,0,89885,,,,,,,,,,,,,,,,,,,,,,,,,,,,,,,,,,,,,,39.5,1.5,,
65,,choice,,html-keyboard-response,65,187971,0.0-1.0-13.0-0.0-0.0,0,0,89885,,,,,,11.0,11.0,3500.0,1000.0,0.0,1.0,0.0,40-40,,,bongo,flashlight,40.0,40.0,bongo3,flashlight5,60.0,60.0,26390697.thl.jpg,Streamlight-71001-Jr-Flashlight-W-batteries-black-B00018A3CG-L.jpg,/static/Category_learning/Stimuli/Experimental_stims/bongo/26390697.thl.jpg,/static/Category_learning/Stimuli/Experimental_stims/flashlight/Streamlight-71001-Jr-Flashlight-W-batteries-black-B00018A3CG-L.jpg,,,,,,,,,,1.0,41.0,1.5,,
66,,isi,,html-keyboard-response,66,191477,0.0-1.0-13.0-0.0-2.0,0,0,89885,,,,,,,,,,,,,,,,,,,,,,,,,,,,,,,,,,,,,,44.5,3.5,,
67,,no_response,,html-keyboard-response,67,192484,0.0-1.0-13.0-0.0-4.0-0.0,0,0,89885,,,,,,,,,,,,,,,,,,,,,,,,,,,,,,,,,,,,,,45.5,1.0,,
68,,iti,,html-keyboard-response,68,193506,0.0-1.0-13.0-0.0-5.0,0,0,89885,,,,,,,,,,,,,,,,,,,,,,,,,,,,,,,,,,,,,,46.5,1.0,,
69,,choice,,html-keyboard-response,69,194076,0.0-1.0-13.0-0.1-0.1,0,0,89885,,565.0,,,68.0,11.0,11.0,3500.0,1000.0,0.0,1.0,0.0,40-40,,,bongo,flashlight,40.0,40.0,bongo3,flashlight5,60.0,60.0,26390697.thl.jpg,Streamlight-71001-Jr-Flashlight-W-batteries-black-B00018A3CG-L.jpg,/static/Category_learning/Stimuli/Experimental_stims/bongo/26390697.thl.jpg,/static/Category_learning/Stimuli/Experimental_stims/flashlight/Streamlight-71001-Jr-Flashlight-W-batteries-black-B00018A3CG-L.jpg,1.0,bongo,flashlight,40.0,40.0,bongo3,flashlight5,60.0,60.0,0.0,47.065,0.565,,
70,,confirmation,,html-keyboard-response,70,195018,0.0-1.0-13.0-0.1-1.1-0.1,0,0,89885,,,,,,11.0,,,,,,,,,,,,,,,,,,,,,,,,,,,,,,,,48.0,0.935,,
71,,isi,,html-keyboard-response,71,198025,0.0-1.0-13.0-0.1-2.1,0,0,89885,,,,,,,,,,,,,,,,,,,,,,,,,,,,,,,,,,,,,,51.0,3.0,,
72,,feedback,,html-keyboard-response,72,199031,0.0-1.0-13.0-0.1-3.1-0.1,0,0,89885,,,,,,11.0,,,,,,,,,,,,,,,,,,,,,,,,,,,,,,,,52.0,1.0,,
73,,iti,,html-keyboard-response,73,202038,0.0-1.0-13.0-0.1-5.1,0,0,89885,,,,,,,,,,,,,,,,,,,,,,,,,,,,,,,,,,,,,,55.0,3.0,,
74,,choice,,html-keyboard-response,74,202672,0.0-1.0-14.0-0.0-0.0,0,0,89885,,627.0,,,68.0,12.0,12.0,1500.0,1000.0,0.0,1.0,1.0,40-60,0.0,,makeup compact,bongo,60.0,40.0,makeup compact4,bongo3,40.0,60.0,262668_fpx.jpg,26390697.thl.jpg,/static/Category_learning/Stimuli/Experimental_stims/makeup compact/262668_fpx.jpg,/static/Category_learning/Stimuli/Experimental_stims/bongo/26390697.thl.jpg,1.0,makeup compact,bongo,60.0,40.0,makeup compact4,bongo3,40.0,60.0,0.0,55.627,0.627,,
75,,confirmation,,html-keyboard-response,75,203550,0.0-1.0-14.0-0.0-1.0-0.0,0,0,89885,,,,,,12.0,,,,,,,,,,,,,,,,,,,,,,,,,,,,,,,,56.5,0.873,,
76,,isi,,html-keyboard-response,76,205057,0.0-1.0-14.0-0.0-2.0,0,0,89885,,,,,,,,,,,,,,,,,,,,,,,,,,,,,,,,,,,,,,58.0,1.5,,
77,,feedback,,html-keyboard-response,77,206064,0.0-1.0-14.0-0.0-3.0-0.0,0,0,89885,,,,,,12.0,,,,,,,,,,,,,,,,,,,,,,,,,,,,,,,,59.0,1.0,,
78,,iti,,html-keyboard-response,78,207069,0.0-1.0-14.0-0.0-5.0,0,0,89885,,,,,,,,,,,,,,,,,,,,,,,,,,,,,,,,,,,,,,60.0,1.0,,
79,,choice,,html-keyboard-response,79,207622,0.0-1.0-15.0-0.0-0.0,0,0,89885,,548.0,,,68.0,13.0,13.0,2000.0,1000.0,0.0,1.0,0.0,40-60,,0.0,desk,hammer,40.0,60.0,desk8,hammer2,60.0,40.0,26370118.thl.jpg,hammer04.jpg,/static/Category_learning/Stimuli/Experimental_stims/desk/26370118.thl.jpg,/static/Category_learning/Stimuli/Experimental_stims/hammer/hammer04.jpg,1.0,desk,hammer,40.0,60.0,desk8,hammer2,60.0,40.0,0.0,60.548,0.548,,
80,,confirmation,,html-keyboard-response,80,208578,0.0-1.0-15.0-0.0-1.0-0.0,0,0,89885,,,,,,13.0,,,,,,,,,,,,,,,,,,,,,,,,,,,,,,,,61.5,0.952,,
81,,isi,,html-keyboard-response,81,210586,0.0-1.0-15.0-0.0-2.0,0,0,89885,,,,,,,,,,,,,,,,,,,,,,,,,,,,,,,,,,,,,,63.5,2.0,,
82,,feedback,,html-keyboard-response,82,211594,0.0-1.0-15.0-0.0-3.0-0.0,0,0,89885,,,,,,13.0,,,,,,,,,,,,,,,,,,,,,,,,,,,,,,,,64.5,1.0,,
83,,iti,,html-keyboard-response,83,212600,0.0-1.0-15.0-0.0-5.0,0,0,89885,,,,,,,,,,,,,,,,,,,,,,,,,,,,,,,,,,,,,,65.5,1.0,,
84,,choice,,html-keyboard-response,84,213067,0.0-1.0-16.0-0.0-0.0,0,0,89885,,461.0,,,68.0,14.0,14.0,2000.0,2000.0,0.0,1.0,0.0,60-60,,,license plate,hammer,60.0,60.0,license plate2,hammer5,60.0,60.0,ny-u93-8zs.jpg,hammer02.jpg,/static/Category_learning/Stimuli/Experimental_stims/license plate/ny-u93-8zs.jpg,/static/Category_learning/Stimuli/Experimental_stims/hammer/hammer02.jpg,1.0,license plate,hammer,60.0,60.0,license plate2,hammer5,60.0,60.0,0.0,65.961,0.461,,
85,,confirmation,,html-keyboard-response,85,214113,0.0-1.0-16.0-0.0-1.0-0.0,0,0,89885,,,,,,14.0,,,,,,,,,,,,,,,,,,,,,,,,,,,,,,,,67.0,1.039,,
86,,isi,,html-keyboard-response,86,216117,0.0-1.0-16.0-0.0-2.0,0,0,89885,,,,,,,,,,,,,,,,,,,,,,,,,,,,,,,,,,,,,,69.0,2.0,,
87,,feedback,,html-keyboard-response,87,217123,0.0-1.0-16.0-0.0-3.0-0.0,0,0,89885,,,,,,14.0,,,,,,,,,,,,,,,,,,,,,,,,,,,,,,,,70.0,1.0,,
88,,iti,,html-keyboard-response,88,219131,0.0-1.0-16.0-0.0-5.0,0,0,89885,,,,,,,,,,,,,,,,,,,,,,,,,,,,,,,,,,,,,,72.0,2.0,,
89,,choice,,html-keyboard-response,89,219547,0.0-1.0-17.0-0.0-0.0,0,0,89885,,411.0,,,68.0,15.0,15.0,1500.0,2000.0,0.0,1.0,0.0,20-20,,,train,tape,20.0,20.0,train9,tape13,20.0,20.0,train2.jpg,920152.jpg,/static/Category_learning/Stimuli/Experimental_stims/train/train2.jpg,/static/Category_learning/Stimuli/Experimental_stims/tape/920152.jpg,1.0,train,tape,20.0,20.0,train9,tape13,20.0,20.0,0.0,72.411,0.411,,
90,,confirmation,,html-keyboard-response,90,220641,0.0-1.0-17.0-0.0-1.0-0.0,0,0,89885,,,,,,15.0,,,,,,,,,,,,,,,,,,,,,,,,,,,,,,,,73.5,1.089,,
91,,isi,,html-keyboard-response,91,222145,0.0-1.0-17.0-0.0-2.0,0,0,89885,,,,,,,,,,,,,,,,,,,,,,,,,,,,,,,,,,,,,,75.0,1.5,,
92,,feedback,,html-keyboard-response,92,223149,0.0-1.0-17.0-0.0-3.0-0.0,0,0,89885,,,,,,15.0,,,,,,,,,,,,,,,,,,,,,,,,,,,,,,,,76.0,1.0,,
93,,iti,,html-keyboard-response,93,225157,0.0-1.0-17.0-0.0-5.0,0,0,89885,,,,,,,,,,,,,,,,,,,,,,,,,,,,,,,,,,,,,,78.0,2.0,,
94,,choice,,html-keyboard-response,94,225871,0.0-1.0-18.0-0.0-0.0,0,0,89885,,710.0,,,68.0,16.0,16.0,1500.0,2000.0,0.0,1.0,0.0,20-40,,0.0,trumpet,bongo,20.0,40.0,trumpet10,bongo14,40.0,40.0,trumpet2.jpg,26390667.thl.jpg,/static/Category_learning/Stimuli/Experimental_stims/trumpet/trumpet2.jpg,/static/Category_learning/Stimuli/Experimental_stims/bongo/26390667.thl.jpg,1.0,trumpet,bongo,20.0,40.0,trumpet10,bongo14,40.0,40.0,0.0,78.71,0.71,,
95,,confirmation,,html-keyboard-response,95,226665,0.0-1.0-18.0-0.0-1.0-0.0,0,0,89885,,,,,,16.0,,,,,,,,,,,,,,,,,,,,,,,,,,,,,,,,79.5,0.79,,
96,,isi,,html-keyboard-response,96,228170,0.0-1.0-18.0-0.0-2.0,0,0,89885,,,,,,,,,,,,,,,,,,,,,,,,,,,,,,,,,,,,,,81.0,1.5,,
97,,feedback,,html-keyboard-response,97,229174,0.0-1.0-18.0-0.0-3.0-0.0,0,0,89885,,,,,,16.0,,,,,,,,,,,,,,,,,,,,,,,,,,,,,,,,82.0,1.0,,
98,,iti,,html-keyboard-response,98,231183,0.0-1.0-18.0-0.0-5.0,0,0,89885,,,,,,,,,,,,,,,,,,,,,,,,,,,,,,,,,,,,,,84.0,2.0,,
99,,choice,,html-keyboard-response,99,231697,0.0-1.0-19.0-0.0-0.0,0,0,89885,,508.0,,,68.0,17.0,17.0,2000.0,3500.0,0.0,1.0,0.0,20-60,,0.0,trumpet,lipstick,20.0,60.0,trumpet1,lipstick4,40.0,60.0,JUPITER+TROMPETTE+606MRL.JPG,P145703_hero.jpg,/static/Category_learning/Stimuli/Experimental_stims/trumpet/JUPITER+TROMPETTE+606MRL.JPG,/static/Category_learning/Stimuli/Experimental_stims/lipstick/P145703_hero.jpg,1.0,trumpet,lipstick,20.0,60.0,trumpet1,lipstick4,40.0,60.0,0.0,84.508,0.508,,
100,,confirmation,,html-keyboard-response,100,232698,0.0-1.0-19.0-0.0-1.0-0.0,0,0,89885,,,,,,17.0,,,,,,,,,,,,,,,,,,,,,,,,,,,,,,,,85.5,0.992,,
101,,isi,,html-keyboard-response,101,234706,0.0-1.0-19.0-0.0-2.0,0,0,89885,,,,,,,,,,,,,,,,,,,,,,,,,,,,,,,,,,,,,,87.5,2.0,,
102,,feedback,,html-keyboard-response,102,235710,0.0-1.0-19.0-0.0-3.0-0.0,0,0,89885,,,,,,17.0,,,,,,,,,,,,,,,,,,,,,,,,,,,,,,,,88.5,1.0,,
103,,iti,,html-keyboard-response,103,239217,0.0-1.0-19.0-0.0-5.0,0,0,89885,,,,,,,,,,,,,,,,,,,,,,,,,,,,,,,,,,,,,,92.0,3.5,,
104,,choice,,html-keyboard-response,104,239776,0.0-1.0-20.0-0.0-0.0,0,0,89885,,554.0,,,68.0,18.0,18.0,1500.0,2000.0,0.0,1.0,1.0,20-20,1.0,,trumpet,trumpet,20.0,20.0,trumpet10,trumpet1,40.0,40.0,trumpet2.jpg,JUPITER+TROMPETTE+606MRL.JPG,/static/Category_learning/Stimuli/Experimental_stims/trumpet/trumpet2.jpg,/static/Category_learning/Stimuli/Experimental_stims/trumpet/JUPITER+TROMPETTE+606MRL.JPG,1.0,trumpet,trumpet,20.0,20.0,trumpet10,trumpet1,40.0,40.0,0.0,92.554,0.554,,
105,,confirmation,,html-keyboard-response,105,240726,0.0-1.0-20.0-0.0-1.0-0.0,0,0,89885,,,,,,18.0,,,,,,,,,,,,,,,,,,,,,,,,,,,,,,,,93.5,0.946,,
106,,isi,,html-keyboard-response,106,242230,0.0-1.0-20.0-0.0-2.0,0,0,89885,,,,,,,,,,,,,,,,,,,,,,,,,,,,,,,,,,,,,,95.0,1.5,,
107,,feedback,,html-keyboard-response,107,243237,0.0-1.0-20.0-0.0-3.0-0.0,0,0,89885,,,,,,18.0,,,,,,,,,,,,,,,,,,,,,,,,,,,,,,,,96.0,1.0,,
108,,iti,,html-keyboard-response,108,245245,0.0-1.0-20.0-0.0-5.0,0,0,89885,,,,,,,,,,,,,,,,,,,,,,,,,,,,,,,,,,,,,,98.0,2.0,,
109,,choice,,html-keyboard-response,109,245940,0.0-1.0-21.0-0.0-0.0,0,0,89885,,691.0,,,68.0,19.0,19.0,1500.0,1000.0,0.0,1.0,0.0,20-60,,0.0,train,motorcycle,20.0,60.0,train6,motorcycle10,0.0,40.0,train9.jpg,motorcycle17.jpg,/static/Category_learning/Stimuli/Experimental_stims/train/train9.jpg,/static/Category_learning/Stimuli/Experimental_stims/motorcycle/motorcycle17.jpg,1.0,train,motorcycle,20.0,60.0,train6,motorcycle10,0.0,40.0,0.0,98.691,0.691,,
110,,confirmation,,html-keyboard-response,110,246757,0.0-1.0-21.0-0.0-1.0-0.0,0,0,89885,,,,,,19.0,,,,,,,,,,,,,,,,,,,,,,,,,,,,,,,,99.5,0.809,,
111,,isi,,html-keyboard-response,111,248260,0.0-1.0-21.0-0.0-2.0,0,0,89885,,,,,,,,,,,,,,,,,,,,,,,,,,,,,,,,,,,,,,101.0,1.5,,
112,,feedback,,html-keyboard-response,112,249263,0.0-1.0-21.0-0.0-3.0-0.0,0,0,89885,,,,,,19.0,,,,,,,,,,,,,,,,,,,,,,,,,,,,,,,,102.0,1.0,,
113,,iti,,html-keyboard-response,113,250269,0.0-1.0-21.0-0.0-5.0,0,0,89885,,,,,,,,,,,,,,,,,,,,,,,,,,,,,,,,,,,,,,103.0,1.0,,
114,,choice,,html-keyboard-response,114,250824,0.0-1.0-22.0-0.0-0.0,0,0,89885,,551.0,,,68.0,20.0,20.0,1000.0,3000.0,0.0,1.0,0.0,40-60,,0.0,dresser,license plate,40.0,60.0,dresser9,license plate9,20.0,80.0,ADRESSER.jpg,nm-dhg089.jpg,/static/Category_learning/Stimuli/Experimental_stims/dresser/ADRESSER.jpg,/static/Category_learning/Stimuli/Experimental_stims/license plate/nm-dhg089.jpg,1.0,dresser,license plate,40.0,60.0,dresser9,license plate9,20.0,80.0,0.0,103.551,0.551,,
115,,confirmation,,html-keyboard-response,115,251778,0.0-1.0-22.0-0.0-1.0-0.0,0,0,89885,,,,,,20.0,,,,,,,,,,,,,,,,,,,,,,,,,,,,,,,,104.5,0.949,,
116,,isi,,html-keyboard-response,116,252783,0.0-1.0-22.0-0.0-2.0,0,0,89885,,,,,,,,,,,,,,,,,,,,,,,,,,,,,,,,,,,,,,105.5,1.0,,
117,,feedback,,html-keyboard-response,117,253789,0.0-1.0-22.0-0.0-3.0-0.0,0,0,89885,,,,,,20.0,,,,,,,,,,,,,,,,,,,,,,,,,,,,,,,,106.5,1.0,,
118,,iti,,html-keyboard-response,118,256794,0.0-1.0-22.0-0.0-5.0,0,0,89885,,,,,,,,,,,,,,,,,,,,,,,,,,,,,,,,,,,,,,109.5,3.0,,
119,,choice,,html-keyboard-response,119,257214,0.0-1.0-23.0-0.0-0.0,0,0,89885,,414.0,,,68.0,21.0,21.0,2000.0,1000.0,0.0,1.0,0.0,40-80,,1.0,seashell,desk,80.0,40.0,seashell4,desk3,60.0,60.0,seashell.jpg,D-1 Four drawers desk Elm 64x23x33.jpg,/static/Category_learning/Stimuli/Experimental_stims/seashell/seashell.jpg,/static/Category_learning/Stimuli/Experimental_stims/desk/D-1 Four drawers desk Elm 64x23x33.jpg,1.0,seashell,desk,80.0,40.0,seashell4,desk3,60.0,60.0,0.0,109.914,0.414,,
120,,confirmation,,html-keyboard-response,120,258305,0.0-1.0-23.0-0.0-1.0-0.0,0,0,89885,,,,,,21.0,,,,,,,,,,,,,,,,,,,,,,,,,,,,,,,,111.0,1.086,,
121,,isi,,html-keyboard-response,121,260312,0.0-1.0-23.0-0.0-2.0,0,0,89885,,,,,,,,,,,,,,,,,,,,,,,,,,,,,,,,,,,,,,113.0,2.0,,
122,,feedback,,html-keyboard-response,122,261317,0.0-1.0-23.0-0.0-3.0-0.0,0,0,89885,,,,,,21.0,,,,,,,,,,,,,,,,,,,,,,,,,,,,,,,,114.0,1.0,,
123,,iti,,html-keyboard-response,123,262323,0.0-1.0-23.0-0.0-5.0,0,0,89885,,,,,,,,,,,,,,,,,,,,,,,,,,,,,,,,,,,,,,115.0,1.0,,
124,,choice,,html-keyboard-response,124,262751,0.0-1.0-24.0-0.0-0.0,0,0,89885,,423.0,,,68.0,22.0,22.0,1000.0,3500.0,0.0,1.0,0.0,20-40,,1.0,bench,yarn,40.0,20.0,bench5,yarn5,20.0,0.0,APARKBEN8.jpg,Aballofyarn14.jpg,/static/Category_learning/Stimuli/Experimental_stims/bench/APARKBEN8.jpg,/static/Category_learning/Stimuli/Experimental_stims/yarn/Aballofyarn14.jpg,1.0,bench,yarn,40.0,20.0,bench5,yarn5,20.0,0.0,0.0,115.423,0.423,,
125,,confirmation,,html-keyboard-response,125,263835,0.0-1.0-24.0-0.0-1.0-0.0,0,0,89885,,,,,,22.0,,,,,,,,,,,,,,,,,,,,,,,,,,,,,,,,116.5,1.077,,
126,,isi,,html-keyboard-response,126,264839,0.0-1.0-24.0-0.0-2.0,0,0,89885,,,,,,,,,,,,,,,,,,,,,,,,,,,,,,,,,,,,,,117.5,1.0,,
127,,feedback,,html-keyboard-response,127,265848,0.0-1.0-24.0-0.0-3.0-0.0,0,0,89885,,,,,,22.0,,,,,,,,,,,,,,,,,,,,,,,,,,,,,,,,118.5,1.0,,
128,,iti,,html-keyboard-response,128,269355,0.0-1.0-24.0-0.0-5.0,0,0,89885,,,,,,,,,,,,,,,,,,,,,,,,,,,,,,,,,,,,,,122.0,3.5,,
129,,choice,,html-keyboard-response,129,269859,0.0-1.0-25.0-0.0-0.0,0,0,89885,,498.0,,,68.0,23.0,23.0,2000.0,1500.0,0.0,1.0,0.0,60-80,,1.0,necklace,hammer,80.0,60.0,necklace6,hammer6,100.0,80.0,Agoldnecklace.jpg,hammer03.jpg,/static/Category_learning/Stimuli/Experimental_stims/necklace/Agoldnecklace.jpg,/static/Category_learning/Stimuli/Experimental_stims/hammer/hammer03.jpg,1.0,necklace,hammer,80.0,60.0,necklace6,hammer6,100.0,80.0,0.0,122.498,0.498,,
130,,confirmation,,html-keyboard-response,130,270866,0.0-1.0-25.0-0.0-1.0-0.0,0,0,89885,,,,,,23.0,,,,,,,,,,,,,,,,,,,,,,,,,,,,,,,,123.5,1.002,,
131,,isi,,html-keyboard-response,131,272873,0.0-1.0-25.0-0.0-2.0,0,0,89885,,,,,,,,,,,,,,,,,,,,,,,,,,,,,,,,,,,,,,125.5,2.0,,
132,,feedback,,html-keyboard-response,132,273878,0.0-1.0-25.0-0.0-3.0-0.0,0,0,89885,,,,,,23.0,,,,,,,,,,,,,,,,,,,,,,,,,,,,,,,,126.5,1.0,,
133,,iti,,html-keyboard-response,133,275387,0.0-1.0-25.0-0.0-5.0,0,0,89885,,,,,,,,,,,,,,,,,,,,,,,,,,,,,,,,,,,,,,128.0,1.5,,
134,,choice,,html-keyboard-response,134,276026,0.0-1.0-26.0-0.0-0.0,0,0,89885,,634.0,,,68.0,24.0,24.0,3500.0,1500.0,0.0,1.0,0.0,20-20,,,watch,yarn,20.0,20.0,watch4,yarn9,40.0,40.0,B000EI2NBW.01._AA280_SCLZZZZZZZ_.jpg,Aballofyarn26.jpg,/static/Category_learning/Stimuli/Experimental_stims/watch/B000EI2NBW.01._AA280_SCLZZZZZZZ_.jpg,/static/Category_learning/Stimuli/Experimental_stims/yarn/Aballofyarn26.jpg,1.0,watch,yarn,20.0,20.0,watch4,yarn9,40.0,40.0,0.0,128.634,0.634,,
135,,confirmation,,html-keyboard-response,135,276897,0.0-1.0-26.0-0.0-1.0-0.0,0,0,89885,,,,,,24.0,,,,,,,,,,,,,,,,,,,,,,,,,,,,,,,,129.5,0.866,,
136,,isi,,html-keyboard-response,136,280402,0.0-1.0-26.0-0.0-2.0,0,0,89885,,,,,,,,,,,,,,,,,,,,,,,,,,,,,,,,,,,,,,133.0,3.5,,
137,,feedback,,html-keyboard-response,137,281407,0.0-1.0-26.0-0.0-3.0-0.0,0,0,89885,,,,,,24.0,,,,,,,,,,,,,,,,,,,,,,,,,,,,,,,,134.0,1.0,,
138,,iti,,html-keyboard-response,138,282910,0.0-1.0-26.0-0.0-5.0,0,0,89885,,,,,,,,,,,,,,,,,,,,,,,,,,,,,,,,,,,,,,135.5,1.5,,
139,,choice,,html-keyboard-response,139,283407,0.0-1.0-27.0-0.0-0.0,0,0,89885,,491.0,,,68.0,25.0,25.0,1000.0,1000.0,0.0,1.0,0.0,40-60,,1.0,motorcycle,door knob,60.0,40.0,motorcycle15,door knob1,80.0,40.0,2006-Buell-LightningXB12Sa.jpg,Brass_Door_Handle.jpg,/static/Category_learning/Stimuli/Experimental_stims/motorcycle/2006-Buell-LightningXB12Sa.jpg,/static/Category_learning/Stimuli/Experimental_stims/door knob/Brass_Door_Handle.jpg,1.0,motorcycle,door knob,60.0,40.0,motorcycle15,door knob1,80.0,40.0,0.0,135.991,0.491,,
140,,confirmation,,html-keyboard-response,140,284420,0.0-1.0-27.0-0.0-1.0-0.0,0,0,89885,,,,,,25.0,,,,,,,,,,,,,,,,,,,,,,,,,,,,,,,,137.0,1.009,,
141,,isi,,html-keyboard-response,141,285424,0.0-1.0-27.0-0.0-2.0,0,0,89885,,,,,,,,,,,,,,,,,,,,,,,,,,,,,,,,,,,,,,138.0,1.0,,
142,,feedback,,html-keyboard-response,142,286428,0.0-1.0-27.0-0.0-3.0-0.0,0,0,89885,,,,,,25.0,,,,,,,,,,,,,,,,,,,,,,,,,,,,,,,,139.0,1.0,,
143,,iti,,html-keyboard-response,143,287433,0.0-1.0-27.0-0.0-5.0,0,0,89885,,,,,,,,,,,,,,,,,,,,,,,,,,,,,,,,,,,,,,140.0,1.0,,
144,,choice,,html-keyboard-response,144,288109,0.0-1.0-28.0-0.0-0.0,0,0,89885,,669.0,,,68.0,26.0,26.0,1000.0,1000.0,0.0,1.0,0.0,40-60,,1.0,hammer,door knob,60.0,40.0,hammer8,door knob10,40.0,20.0,ct1006_hammer.jpg,c02a578d-c6cc-44ca-8dd2-de8901e30bd7_4.jpg,/static/Category_learning/Stimuli/Experimental_stims/hammer/ct1006_hammer.jpg,/static/Category_learning/Stimuli/Experimental_stims/door knob/c02a578d-c6cc-44ca-8dd2-de8901e30bd7_4.jpg,1.0,hammer,door knob,60.0,40.0,hammer8,door knob10,40.0,20.0,0.0,140.669,0.669,,
145,,confirmation,,html-keyboard-response,145,288946,0.0-1.0-28.0-0.0-1.0-0.0,0,0,89885,,,,,,26.0,,,,,,,,,,,,,,,,,,,,,,,,,,,,,,,,141.5,0.831,,
146,,isi,,html-keyboard-response,146,289952,0.0-1.0-28.0-0.0-2.0,0,0,89885,,,,,,,,,,,,,,,,,,,,,,,,,,,,,,,,,,,,,,142.5,1.0,,
147,,feedback,,html-keyboard-response,147,290956,0.0-1.0-28.0-0.0-3.0-0.0,0,0,89885,,,,,,26.0,,,,,,,,,,,,,,,,,,,,,,,,,,,,,,,,143.5,1.0,,
148,,iti,,html-keyboard-response,148,291961,0.0-1.0-28.0-0.0-5.0,0,0,89885,,,,,,,,,,,,,,,,,,,,,,,,,,,,,,,,,,,,,,144.5,1.0,,
149,,choice,,html-keyboard-response,149,292587,0.0-1.0-29.0-0.0-0.0,0,0,89885,,620.0,,,68.0,27.0,27.0,1500.0,1000.0,0.0,1.0,0.0,20-80,,1.0,small table,vase,80.0,20.0,small table7,vase4,80.0,40.0,ATABLE89.jpg,Avase111.jpg,/static/Category_learning/Stimuli/Experimental_stims/small table/ATABLE89.jpg,/static/Category_learning/Stimuli/Experimental_stims/vase/Avase111.jpg,1.0,small table,vase,80.0,20.0,small table7,vase4,80.0,40.0,0.0,145.12,0.62,,
150,,confirmation,,html-keyboard-response,150,293472,0.0-1.0-29.0-0.0-1.0-0.0,0,0,89885,,,,,,27.0,,,,,,,,,,,,,,,,,,,,,,,,,,,,,,,,146.0,0.88,,
151,,isi,,html-keyboard-response,151,294980,0.0-1.0-29.0-0.0-2.0,0,0,89885,,,,,,,,,,,,,,,,,,,,,,,,,,,,,,,,,,,,,,147.5,1.5,,
152,,feedback,,html-keyboard-response,152,295985,0.0-1.0-29.0-0.0-3.0-0.0,0,0,89885,,,,,,27.0,,,,,,,,,,,,,,,,,,,,,,,,,,,,,,,,148.5,1.0,,
153,,iti,,html-keyboard-response,153,296999,0.0-1.0-29.0-0.0-5.0,0,0,89885,,,,,,,,,,,,,,,,,,,,,,,,,,,,,,,,,,,,,,149.5,1.0,,
154,,choice,,html-keyboard-response,154,297499,0.0-1.0-30.0-0.0-0.0,0,0,89885,,493.0,,,68.0,28.0,28.0,1000.0,1000.0,0.0,1.0,1.0,20-20,1.0,,train,train,20.0,20.0,train6,train9,0.0,20.0,train9.jpg,train2.jpg,/static/Category_learning/Stimuli/Experimental_stims/train/train9.jpg,/static/Category_learning/Stimuli/Experimental_stims/train/train2.jpg,1.0,train,train,20.0,20.0,train6,train9,0.0,20.0,0.0,149.993,0.493,,
155,,confirmation,,html-keyboard-response,155,298510,0.0-1.0-30.0-0.0-1.0-0.0,0,0,89885,,,,,,28.0,,,,,,,,,,,,,,,,,,,,,,,,,,,,,,,,151.0,1.007,,
156,,isi,,html-keyboard-response,156,299518,0.0-1.0-30.0-0.0-2.0,0,0,89885,,,,,,,,,,,,,,,,,,,,,,,,,,,,,,,,,,,,,,152.0,1.0,,
157,,feedback,,html-keyboard-response,157,300522,0.0-1.0-30.0-0.0-3.0-0.0,0,0,89885,,,,,,28.0,,,,,,,,,,,,,,,,,,,,,,,,,,,,,,,,153.0,1.0,,
158,,iti,,html-keyboard-response,158,301525,0.0-1.0-30.0-0.0-5.0,0,0,89885,,,,,,,,,,,,,,,,,,,,,,,,,,,,,,,,,,,,,,154.0,1.0,,
159,,choice,,html-keyboard-response,159,302154,0.0-1.0-31.0-0.0-0.0,0,0,89885,,624.0,,,68.0,29.0,29.0,3500.0,1000.0,0.0,1.0,0.0,40-40,,,fan,bench,40.0,40.0,fan5,bench12,20.0,20.0,Table_Fan.jpg,22927976.thl.jpg,/static/Category_learning/Stimuli/Experimental_stims/fan/Table_Fan.jpg,/static/Category_learning/Stimuli/Experimental_stims/bench/22927976.thl.jpg,1.0,fan,bench,40.0,40.0,fan5,bench12,20.0,20.0,0.0,154.624,0.624,,
160,,confirmation,,html-keyboard-response,160,303034,0.0-1.0-31.0-0.0-1.0-0.0,0,0,89885,,,,,,29.0,,,,,,,,,,,,,,,,,,,,,,,,,,,,,,,,155.5,0.876,,
161,,isi,,html-keyboard-response,161,306539,0.0-1.0-31.0-0.0-2.0,0,0,89885,,,,,,,,,,,,,,,,,,,,,,,,,,,,,,,,,,,,,,159.0,3.5,,
162,,feedback,,html-keyboard-response,162,307544,0.0-1.0-31.0-0.0-3.0-0.0,0,0,89885,,,,,,29.0,,,,,,,,,,,,,,,,,,,,,,,,,,,,,,,,160.0,1.0,,
163,,iti,,html-keyboard-response,163,308548,0.0-1.0-31.0-0.0-5.0,0,0,89885,,,,,,,,,,,,,,,,,,,,,,,,,,,,,,,,,,,,,,161.0,1.0,,
164,,choice,,html-keyboard-response,164,308995,0.0-1.0-32.0-0.0-0.0,0,0,89885,,441.0,,,68.0,30.0,30.0,1000.0,3000.0,0.0,1.0,1.0,40-80,0.0,,bench,pen,40.0,80.0,bench5,pen12,20.0,100.0,APARKBEN8.jpg,pen02.jpg,/static/Category_learning/Stimuli/Experimental_stims/bench/APARKBEN8.jpg,/static/Category_learning/Stimuli/Experimental_stims/pen/pen02.jpg,1.0,bench,pen,40.0,80.0,bench5,pen12,20.0,100.0,0.0,161.441,0.441,,
165,,confirmation,,html-keyboard-response,165,310058,0.0-1.0-32.0-0.0-1.0-0.0,0,0,89885,,,,,,30.0,,,,,,,,,,,,,,,,,,,,,,,,,,,,,,,,162.5,1.059,,
166,,isi,,html-keyboard-response,166,311063,0.0-1.0-32.0-0.0-2.0,0,0,89885,,,,,,,,,,,,,,,,,,,,,,,,,,,,,,,,,,,,,,163.5,1.0,,
167,,feedback,,html-keyboard-response,167,312067,0.0-1.0-32.0-0.0-3.0-0.0,0,0,89885,,,,,,30.0,,,,,,,,,,,,,,,,,,,,,,,,,,,,,,,,164.5,1.0,,
168,,iti,,html-keyboard-response,168,315075,0.0-1.0-32.0-0.0-5.0,0,0,89885,,,,,,,,,,,,,,,,,,,,,,,,,,,,,,,,,,,,,,167.5,3.0,,
169,,choice,,html-keyboard-response,169,315658,0.0-1.0-33.0-0.0-0.0,0,0,89885,,578.0,,,68.0,31.0,31.0,1500.0,1500.0,0.0,1.0,0.0,80-80,,,sofa,patio lounge chair,80.0,80.0,sofa15,patio lounge chair9,100.0,80.0,APEACHLOV.jpg,43-3.jpg,/static/Category_learning/Stimuli/Experimental_stims/sofa/APEACHLOV.jpg,/static/Category_learning/Stimuli/Experimental_stims/patio lounge chair/43-3.jpg,1.0,sofa,patio lounge chair,80.0,80.0,sofa15,patio lounge chair9,100.0,80.0,0.0,168.078,0.578,,
170,,confirmation,,html-keyboard-response,170,316585,0.0-1.0-33.0-0.0-1.0-0.0,0,0,89885,,,,,,31.0,,,,,,,,,,,,,,,,,,,,,,,,,,,,,,,,169.0,0.922,,
171,,isi,,html-keyboard-response,171,318093,0.0-1.0-33.0-0.0-2.0,0,0,89885,,,,,,,,,,,,,,,,,,,,,,,,,,,,,,,,,,,,,,170.5,1.5,,
172,,feedback,,html-keyboard-response,172,319100,0.0-1.0-33.0-0.0-3.0-0.0,0,0,89885,,,,,,31.0,,,,,,,,,,,,,,,,,,,,,,,,,,,,,,,,171.5,1.0,,
173,,iti,,html-keyboard-response,173,320607,0.0-1.0-33.0-0.0-5.0,0,0,89885,,,,,,,,,,,,,,,,,,,,,,,,,,,,,,,,,,,,,,173.0,1.5,,
174,,choice,,html-keyboard-response,174,320942,0.0-1.0-34.0-0.0-0.0,0,0,89885,,331.0,,,68.0,32.0,32.0,1000.0,1000.0,0.0,1.0,0.0,20-80,,1.0,necklace,vase,80.0,20.0,necklace1,vase12,100.0,0.0,26443173.thl.jpg,Abluevase2.jpg,/static/Category_learning/Stimuli/Experimental_stims/necklace/26443173.thl.jpg,/static/Category_learning/Stimuli/Experimental_stims/vase/Abluevase2.jpg,1.0,necklace,vase,80.0,20.0,necklace1,vase12,100.0,0.0,0.0,173.331,0.331,,
175,,confirmation,,html-keyboard-response,175,322117,0.0-1.0-34.0-0.0-1.0-0.0,0,0,89885,,,,,,32.0,,,,,,,,,,,,,,,,,,,,,,,,,,,,,,,,174.5,1.169,,
176,,isi,,html-keyboard-response,176,323120,0.0-1.0-34.0-0.0-2.0,0,0,89885,,,,,,,,,,,,,,,,,,,,,,,,,,,,,,,,,,,,,,175.5,1.0,,
177,,feedback,,html-keyboard-response,177,324124,0.0-1.0-34.0-0.0-3.0-0.0,0,0,89885,,,,,,32.0,,,,,,,,,,,,,,,,,,,,,,,,,,,,,,,,176.5,1.0,,
178,,iti,,html-keyboard-response,178,325129,0.0-1.0-34.0-0.0-5.0,0,0,89885,,,,,,,,,,,,,,,,,,,,,,,,,,,,,,,,,,,,,,177.5,1.0,,
179,,choice,,html-keyboard-response,179,325713,0.0-1.0-35.0-0.0-0.0,0,0,89885,,578.0,,,68.0,33.0,33.0,3500.0,1000.0,0.0,1.0,0.0,40-80,,1.0,nail polish,desk,80.0,40.0,nail polish14,desk14,80.0,20.0,38031405.JPG,26419960.thl.jpg,/static/Category_learning/Stimuli/Experimental_stims/nail polish/38031405.JPG,/static/Category_learning/Stimuli/Experimental_stims/desk/26419960.thl.jpg,1.0,nail polish,desk,80.0,40.0,nail polish14,desk14,80.0,20.0,0.0,178.078,0.578,,
180,,confirmation,,html-keyboard-response,180,326640,0.0-1.0-35.0-0.0-1.0-0.0,0,0,89885,,,,,,33.0,,,,,,,,,,,,,,,,,,,,,,,,,,,,,,,,179.0,0.922,,
181,,isi,,html-keyboard-response,181,330147,0.0-1.0-35.0-0.0-2.0,0,0,89885,,,,,,,,,,,,,,,,,,,,,,,,,,,,,,,,,,,,,,182.5,3.5,,
182,,feedback,,html-keyboard-response,182,331155,0.0-1.0-35.0-0.0-3.0-0.0,0,0,89885,,,,,,33.0,,,,,,,,,,,,,,,,,,,,,,,,,,,,,,,,183.5,1.0,,
183,,iti,,html-keyboard-response,183,332159,0.0-1.0-35.0-0.0-5.0,0,0,89885,,,,,,,,,,,,,,,,,,,,,,,,,,,,,,,,,,,,,,184.5,1.0,,
184,,choice,,html-keyboard-response,184,333229,0.0-1.0-36.0-0.0-0.0,0,0,89885,,1066.0,,,68.0,34.0,34.0,1000.0,1000.0,0.0,1.0,1.0,80-80,1.0,,necklace,necklace,80.0,80.0,necklace1,necklace6,100.0,100.0,26443173.thl.jpg,Agoldnecklace.jpg,/static/Category_learning/Stimuli/Experimental_stims/necklace/26443173.thl.jpg,/static/Category_learning/Stimuli/Experimental_stims/necklace/Agoldnecklace.jpg,1.0,necklace,necklace,80.0,80.0,necklace1,necklace6,100.0,100.0,0.0,185.566,1.066,,
185,,confirmation,,html-keyboard-response,185,333668,0.0-1.0-36.0-0.0-1.0-0.0,0,0,89885,,,,,,34.0,,,,,,,,,,,,,,,,,,,,,,,,,,,,,,,,186.0,0.434,,
186,,isi,,html-keyboard-response,186,334672,0.0-1.0-36.0-0.0-2.0,0,0,89885,,,,,,,,,,,,,,,,,,,,,,,,,,,,,,,,,,,,,,187.0,1.0,,
187,,feedback,,html-keyboard-response,187,335680,0.0-1.0-36.0-0.0-3.0-0.0,0,0,89885,,,,,,34.0,,,,,,,,,,,,,,,,,,,,,,,,,,,,,,,,188.0,1.0,,
188,,iti,,html-keyboard-response,188,336687,0.0-1.0-36.0-0.0-5.0,0,0,89885,,,,,,,,,,,,,,,,,,,,,,,,,,,,,,,,,,,,,,189.0,1.0,,
189,,choice,,html-keyboard-response,189,337415,0.0-1.0-37.0-0.0-0.0,0,0,89885,,721.0,,,68.0,35.0,35.0,1000.0,1500.0,0.0,1.0,1.0,40-80,0.0,,nail polish,dresser,80.0,40.0,nail polish14,dresser9,80.0,20.0,38031405.JPG,ADRESSER.jpg,/static/Category_learning/Stimuli/Experimental_stims/nail polish/38031405.JPG,/static/Category_learning/Stimuli/Experimental_stims/dresser/ADRESSER.jpg,1.0,nail polish,dresser,80.0,40.0,nail polish14,dresser9,80.0,20.0,0.0,189.721,0.721,,
190,,confirmation,,html-keyboard-response,190,338200,0.0-1.0-37.0-0.0-1.0-0.0,0,0,89885,,,,,,35.0,,,,,,,,,,,,,,,,,,,,,,,,,,,,,,,,190.5,0.779,,
191,,isi,,html-keyboard-response,191,339205,0.0-1.0-37.0-0.0-2.0,0,0,89885,,,,,,,,,,,,,,,,,,,,,,,,,,,,,,,,,,,,,,191.5,1.0,,
192,,feedback,,html-keyboard-response,192,340211,0.0-1.0-37.0-0.0-3.0-0.0,0,0,89885,,,,,,35.0,,,,,,,,,,,,,,,,,,,,,,,,,,,,,,,,192.5,1.0,,
193,,iti,,html-keyboard-response,193,341718,0.0-1.0-37.0-0.0-5.0,0,0,89885,,,,,,,,,,,,,,,,,,,,,,,,,,,,,,,,,,,,,,194.0,1.5,,
194,,choice,,html-keyboard-response,194,342458,0.0-1.0-38.0-0.0-0.0,0,0,89885,,734.0,,,68.0,36.0,36.0,3000.0,3500.0,0.0,1.0,1.0,40-80,0.0,,desk,sofa,40.0,80.0,desk8,sofa15,60.0,100.0,26370118.thl.jpg,APEACHLOV.jpg,/static/Category_learning/Stimuli/Experimental_stims/desk/26370118.thl.jpg,/static/Category_learning/Stimuli/Experimental_stims/sofa/APEACHLOV.jpg,1.0,desk,sofa,40.0,80.0,desk8,sofa15,60.0,100.0,0.0,194.734,0.734,,
195,,confirmation,,html-keyboard-response,195,343231,0.0-1.0-38.0-0.0-1.0-0.0,0,0,89885,,,,,,36.0,,,,,,,,,,,,,,,,,,,,,,,,,,,,,,,,195.5,0.766,,
196,,isi,,html-keyboard-response,196,346237,0.0-1.0-38.0-0.0-2.0,0,0,89885,,,,,,,,,,,,,,,,,,,,,,,,,,,,,,,,,,,,,,198.5,3.0,,
197,,feedback,,html-keyboard-response,197,347244,0.0-1.0-38.0-0.0-3.0-0.0,0,0,89885,,,,,,36.0,,,,,,,,,,,,,,,,,,,,,,,,,,,,,,,,199.5,1.0,,
198,,iti,,html-keyboard-response,198,350753,0.0-1.0-38.0-0.0-5.0,0,0,89885,,,,,,,,,,,,,,,,,,,,,,,,,,,,,,,,,,,,,,203.0,3.5,,
199,,choice,,html-keyboard-response,199,351300,0.0-1.0-39.0-0.0-0.0,0,0,89885,,540.0,,,68.0,37.0,37.0,2000.0,1000.0,0.0,1.0,0.0,40-80,,1.0,necklace,flashlight,80.0,40.0,necklace10,flashlight6,60.0,40.0,necklascenew03.jpg,Flashlight.jpg,/static/Category_learning/Stimuli/Experimental_stims/necklace/necklascenew03.jpg,/static/Category_learning/Stimuli/Experimental_stims/flashlight/Flashlight.jpg,1.0,necklace,flashlight,80.0,40.0,necklace10,flashlight6,60.0,40.0,0.0,203.54,0.54,,
200,,confirmation,,html-keyboard-response,200,352268,0.0-1.0-39.0-0.0-1.0-0.0,0,0,89885,,,,,,37.0,,,,,,,,,,,,,,,,,,,,,,,,,,,,,,,,204.5,0.96,,
201,,isi,,html-keyboard-response,201,354275,0.0-1.0-39.0-0.0-2.0,0,0,89885,,,,,,,,,,,,,,,,,,,,,,,,,,,,,,,,,,,,,,206.5,2.0,,
202,,feedback,,html-keyboard-response,202,355280,0.0-1.0-39.0-0.0-3.0-0.0,0,0,89885,,,,,,37.0,,,,,,,,,,,,,,,,,,,,,,,,,,,,,,,,207.5,1.0,,
203,,iti,,html-keyboard-response,203,356287,0.0-1.0-39.0-0.0-5.0,0,0,89885,,,,,,,,,,,,,,,,,,,,,,,,,,,,,,,,,,,,,,208.5,1.0,,
204,,choice,,html-keyboard-response,204,356903,0.0-1.0-40.0-0.0-0.0,0,0,89885,,609.0,,,68.0,38.0,38.0,1000.0,1000.0,0.0,1.0,1.0,60-80,0.0,,seashell,lipstick,80.0,60.0,seashell4,lipstick10,60.0,60.0,seashell.jpg,21K0D7QKFAL._SS500_.jpg,/static/Category_learning/Stimuli/Experimental_stims/seashell/seashell.jpg,/static/Category_learning/Stimuli/Experimental_stims/lipstick/21K0D7QKFAL._SS500_.jpg,1.0,seashell,lipstick,80.0,60.0,seashell4,lipstick10,60.0,60.0,0.0,209.109,0.609,,
205,,confirmation,,html-keyboard-response,205,357800,0.0-1.0-40.0-0.0-1.0-0.0,0,0,89885,,,,,,38.0,,,,,,,,,,,,,,,,,,,,,,,,,,,,,,,,210.0,0.891,,
206,,isi,,html-keyboard-response,206,358804,0.0-1.0-40.0-0.0-2.0,0,0,89885,,,,,,,,,,,,,,,,,,,,,,,,,,,,,,,,,,,,,,211.0,1.0,,
207,,feedback,,html-keyboard-response,207,359808,0.0-1.0-40.0-0.0-3.0-0.0,0,0,89885,,,,,,38.0,,,,,,,,,,,,,,,,,,,,,,,,,,,,,,,,212.0,1.0,,
208,,iti,,html-keyboard-response,208,360813,0.0-1.0-40.0-0.0-5.0,0,0,89885,,,,,,,,,,,,,,,,,,,,,,,,,,,,,,,,,,,,,,213.0,1.0,,
209,,choice,,html-keyboard-response,209,361627,0.0-1.0-41.0-0.0-0.0,0,0,89885,,809.0,,,68.0,39.0,39.0,1000.0,1500.0,0.0,1.0,0.0,20-60,,1.0,hat,stool,60.0,20.0,hat1,stool8,60.0,0.0,AGREENHAT.jpg,ASTOOL33.jpg,/static/Category_learning/Stimuli/Experimental_stims/hat/AGREENHAT.jpg,/static/Category_learning/Stimuli/Experimental_stims/stool/ASTOOL33.jpg,1.0,hat,stool,60.0,20.0,hat1,stool8,60.0,0.0,0.0,213.809,0.809,,
210,,confirmation,,html-keyboard-response,210,362323,0.0-1.0-41.0-0.0-1.0-0.0,0,0,89885,,,,,,39.0,,,,,,,,,,,,,,,,,,,,,,,,,,,,,,,,214.5,0.691,,
211,,isi,,html-keyboard-response,211,363329,0.0-1.0-41.0-0.0-2.0,0,0,89885,,,,,,,,,,,,,,,,,,,,,,,,,,,,,,,,,,,,,,215.5,1.0,,
212,,feedback,,html-keyboard-response,212,364335,0.0-1.0-41.0-0.0-3.0-0.0,0,0,89885,,,,,,39.0,,,,,,,,,,,,,,,,,,,,,,,,,,,,,,,,216.5,1.0,,
213,,iti,,html-keyboard-response,213,365839,0.0-1.0-41.0-0.0-5.0,0,0,89885,,,,,,,,,,,,,,,,,,,,,,,,,,,,,,,,,,,,,,218.0,1.5,,
214,,choice,,html-keyboard-response,214,366803,0.0-1.0-42.0-0.0-0.0,0,0,89885,,958.0,,,68.0,40.0,40.0,1000.0,3500.0,0.0,1.0,0.0,20-80,,0.0,tape,power strip,20.0,80.0,tape9,power strip10,40.0,80.0,desk tape disp.jpg,6bd437c9-6165-4d36-bf75-9a1038783c6a_400.jpg,/static/Category_learning/Stimuli/Experimental_stims/tape/desk tape disp.jpg,/static/Category_learning/Stimuli/Experimental_stims/power strip/6bd437c9-6165-4d36-bf75-9a1038783c6a_400.jpg,1.0,tape,power strip,20.0,80.0,tape9,power strip10,40.0,80.0,0.0,218.958,0.958,,
215,,confirmation,,html-keyboard-response,215,367350,0.0-1.0-42.0-0.0-1.0-0.0,0,0,89885,,,,,,40.0,,,,,,,,,,,,,,,,,,,,,,,,,,,,,,,,219.5,0.542,,
216,,isi,,html-keyboard-response,216,368356,0.0-1.0-42.0-0.0-2.0,0,0,89885,,,,,,,,,,,,,,,,,,,,,,,,,,,,,,,,,,,,,,220.5,1.0,,
217,,feedback,,html-keyboard-response,217,369363,0.0-1.0-42.0-0.0-3.0-0.0,0,0,89885,,,,,,40.0,,,,,,,,,,,,,,,,,,,,,,,,,,,,,,,,221.5,1.0,,
218,,iti,,html-keyboard-response,218,372869,0.0-1.0-42.0-0.0-5.0,0,0,89885,,,,,,,,,,,,,,,,,,,,,,,,,,,,,,,,,,,,,,225.0,3.5,,
219,,choice,,html-keyboard-response,219,373801,0.0-1.0-43.0-0.0-0.0,0,0,89885,,926.0,,,68.0,41.0,41.0,1500.0,1000.0,0.0,1.0,0.0,20-80,,0.0,tape,poker card,20.0,80.0,tape12,poker card4,40.0,60.0,Frog-Tape-Dispenser_F02218A2.jpg,22864728.thl.jpg,/static/Category_learning/Stimuli/Experimental_stims/tape/Frog-Tape-Dispenser_F02218A2.jpg,/static/Category_learning/Stimuli/Experimental_stims/poker card/22864728.thl.jpg,1.0,tape,poker card,20.0,80.0,tape12,poker card4,40.0,60.0,0.0,225.926,0.926,,
220,,confirmation,,html-keyboard-response,220,374379,0.0-1.0-43.0-0.0-1.0-0.0,0,0,89885,,,,,,41.0,,,,,,,,,,,,,,,,,,,,,,,,,,,,,,,,226.5,0.574,,
221,,isi,,html-keyboard-response,221,375882,0.0-1.0-43.0-0.0-2.0,0,0,89885,,,,,,,,,,,,,,,,,,,,,,,,,,,,,,,,,,,,,,228.0,1.5,,
222,,feedback,,html-keyboard-response,222,376889,0.0-1.0-43.0-0.0-3.0-0.0,0,0,89885,,,,,,41.0,,,,,,,,,,,,,,,,,,,,,,,,,,,,,,,,229.0,1.0,,
223,,iti,,html-keyboard-response,223,377896,0.0-1.0-43.0-0.0-5.0,0,0,89885,,,,,,,,,,,,,,,,,,,,,,,,,,,,,,,,,,,,,,230.0,1.0,,
224,,choice,,html-keyboard-response,224,378571,0.0-1.0-44.0-0.0-0.0,0,0,89885,,668.0,,,68.0,42.0,42.0,2000.0,3500.0,0.0,1.0,0.0,20-80,,1.0,power strip,telescope,80.0,20.0,power strip13,telescope2,100.0,40.0,01dccef1-d4b2-4d2e-a317-f2ed46b70b4b_400.jpg,Brass-telescope-60700.jpg,/static/Category_learning/Stimuli/Experimental_stims/power strip/01dccef1-d4b2-4d2e-a317-f2ed46b70b4b_400.jpg,/static/Category_learning/Stimuli/Experimental_stims/telescope/Brass-telescope-60700.jpg,1.0,power strip,telescope,80.0,20.0,power strip13,telescope2,100.0,40.0,0.0,230.668,0.668,,
225,,confirmation,,html-keyboard-response,225,379411,0.0-1.0-44.0-0.0-1.0-0.0,0,0,89885,,,,,,42.0,,,,,,,,,,,,,,,,,,,,,,,,,,,,,,,,231.5,0.832,,
226,,isi,,html-keyboard-response,226,381419,0.0-1.0-44.0-0.0-2.0,0,0,89885,,,,,,,,,,,,,,,,,,,,,,,,,,,,,,,,,,,,,,233.5,2.0,,
227,,feedback,,html-keyboard-response,227,382424,0.0-1.0-44.0-0.0-3.0-0.0,0,0,89885,,,,,,42.0,,,,,,,,,,,,,,,,,,,,,,,,,,,,,,,,234.5,1.0,,
228,,iti,,html-keyboard-response,228,385931,0.0-1.0-44.0-0.0-5.0,0,0,89885,,,,,,,,,,,,,,,,,,,,,,,,,,,,,,,,,,,,,,238.0,3.5,,
229,,choice,,html-keyboard-response,229,386424,0.0-1.0-45.0-0.0-0.0,0,0,89885,,488.0,,,68.0,43.0,43.0,1000.0,2000.0,0.0,1.0,0.0,20-60,,0.0,yarn,makeup compact,20.0,60.0,yarn2,makeup compact6,20.0,80.0,Aballofyarn66.jpg,P0754_hero.jpg,/static/Category_learning/Stimuli/Experimental_stims/yarn/Aballofyarn66.jpg,/static/Category_learning/Stimuli/Experimental_stims/makeup compact/P0754_hero.jpg,1.0,yarn,makeup compact,20.0,60.0,yarn2,makeup compact6,20.0,80.0,0.0,238.488,0.488,,
230,,confirmation,,html-keyboard-response,230,387444,0.0-1.0-45.0-0.0-1.0-0.0,0,0,89885,,,,,,43.0,,,,,,,,,,,,,,,,,,,,,,,,,,,,,,,,239.5,1.012,,
231,,isi,,html-keyboard-response,231,388449,0.0-1.0-45.0-0.0-2.0,0,0,89885,,,,,,,,,,,,,,,,,,,,,,,,,,,,,,,,,,,,,,240.5,1.0,,
232,,feedback,,html-keyboard-response,232,389455,0.0-1.0-45.0-0.0-3.0-0.0,0,0,89885,,,,,,43.0,,,,,,,,,,,,,,,,,,,,,,,,,,,,,,,,241.5,1.0,,
233,,iti,,html-keyboard-response,233,391462,0.0-1.0-45.0-0.0-5.0,0,0,89885,,,,,,,,,,,,,,,,,,,,,,,,,,,,,,,,,,,,,,243.5,2.0,,
234,,choice,,html-keyboard-response,234,392004,0.0-1.0-46.0-0.0-0.0,0,0,89885,,537.0,,,68.0,44.0,44.0,1000.0,1000.0,0.0,1.0,0.0,20-60,,0.0,stool,makeup compact,20.0,60.0,stool15,makeup compact3,20.0,40.0,ASTOOL.jpg,P181006_hero.jpg,/static/Category_learning/Stimuli/Experimental_stims/stool/ASTOOL.jpg,/static/Category_learning/Stimuli/Experimental_stims/makeup compact/P181006_hero.jpg,1.0,stool,makeup compact,20.0,60.0,stool15,makeup compact3,20.0,40.0,0.0,244.037,0.537,,
235,,confirmation,,html-keyboard-response,235,392972,0.0-1.0-46.0-0.0-1.0-0.0,0,0,89885,,,,,,44.0,,,,,,,,,,,,,,,,,,,,,,,,,,,,,,,,245.0,0.963,,
236,,isi,,html-keyboard-response,236,393976,0.0-1.0-46.0-0.0-2.0,0,0,89885,,,,,,,,,,,,,,,,,,,,,,,,,,,,,,,,,,,,,,246.0,1.0,,
237,,feedback,,html-keyboard-response,237,394983,0.0-1.0-46.0-0.0-3.0-0.0,0,0,89885,,,,,,44.0,,,,,,,,,,,,,,,,,,,,,,,,,,,,,,,,247.0,1.0,,
238,,iti,,html-keyboard-response,238,395989,0.0-1.0-46.0-0.0-5.0,0,0,89885,,,,,,,,,,,,,,,,,,,,,,,,,,,,,,,,,,,,,,248.0,1.0,,
239,,choice,,html-keyboard-response,239,396618,0.0-1.0-47.0-0.0-0.0,0,0,89885,,624.0,,,68.0,45.0,45.0,1000.0,1000.0,0.0,1.0,0.0,20-20,,,tape,watch,20.0,20.0,tape6,watch15,40.0,40.0,1912.jpg,20-171-6.jpg,/static/Category_learning/Stimuli/Experimental_stims/tape/1912.jpg,/static/Category_learning/Stimuli/Experimental_stims/watch/20-171-6.jpg,1.0,tape,watch,20.0,20.0,tape6,watch15,40.0,40.0,0.0,248.624,0.624,,
240,,confirmation,,html-keyboard-response,240,397500,0.0-1.0-47.0-0.0-1.0-0.0,0,0,89885,,,,,,45.0,,,,,,,,,,,,,,,,,,,,,,,,,,,,,,,,249.5,0.876,,
241,,isi,,html-keyboard-response,241,398508,0.0-1.0-47.0-0.0-2.0,0,0,89885,,,,,,,,,,,,,,,,,,,,,,,,,,,,,,,,,,,,,,250.5,1.0,,
242,,feedback,,html-keyboard-response,242,399513,0.0-1.0-47.0-0.0-3.0-0.0,0,0,89885,,,,,,45.0,,,,,,,,,,,,,,,,,,,,,,,,,,,,,,,,251.5,1.0,,
243,,iti,,html-keyboard-response,243,400518,0.0-1.0-47.0-0.0-5.0,0,0,89885,,,,,,,,,,,,,,,,,,,,,,,,,,,,,,,,,,,,,,252.5,1.0,,
244,,choice,,html-keyboard-response,244,401095,0.0-1.0-48.0-0.0-0.0,0,0,89885,,572.0,,,68.0,46.0,46.0,1500.0,2000.0,0.0,1.0,0.0,40-80,,1.0,nail polish,fan,80.0,40.0,nail polish6,fan1,60.0,60.0,127_t.jpg,01393.fpx.jpg,/static/Category_learning/Stimuli/Experimental_stims/nail polish/127_t.jpg,/static/Category_learning/Stimuli/Experimental_stims/fan/01393.fpx.jpg,1.0,nail polish,fan,80.0,40.0,nail polish6,fan1,60.0,60.0,0.0,253.072,0.572,,
245,,confirmation,,html-keyboard-response,245,402028,0.0-1.0-48.0-0.0-1.0-0.0,0,0,89885,,,,,,46.0,,,,,,,,,,,,,,,,,,,,,,,,,,,,,,,,254.0,0.928,,
246,,isi,,html-keyboard-response,246,403531,0.0-1.0-48.0-0.0-2.0,0,0,89885,,,,,,,,,,,,,,,,,,,,,,,,,,,,,,,,,,,,,,255.5,1.5,,
247,,feedback,,html-keyboard-response,247,404538,0.0-1.0-48.0-0.0-3.0-0.0,0,0,89885,,,,,,46.0,,,,,,,,,,,,,,,,,,,,,,,,,,,,,,,,256.5,1.0,,
248,,iti,,html-keyboard-response,248,406544,0.0-1.0-48.0-0.0-5.0,0,0,89885,,,,,,,,,,,,,,,,,,,,,,,,,,,,,,,,,,,,,,258.5,2.0,,
249,,choice,,html-keyboard-response,249,407552,0.0-1.0-49.0-0.0-0.0,0,0,89885,,1003.0,,,68.0,47.0,47.0,1500.0,2000.0,0.0,1.0,0.0,60-80,,1.0,pen,license plate,80.0,60.0,pen10,license plate8,100.0,60.0,VP-Raden-FP-L copy.jpg,dc-vrw-jsw.jpg,/static/Category_learning/Stimuli/Experimental_stims/pen/VP-Raden-FP-L copy.jpg,/static/Category_learning/Stimuli/Experimental_stims/license plate/dc-vrw-jsw.jpg,1.0,pen,license plate,80.0,60.0,pen10,license plate8,100.0,60.0,0.0,259.503,1.003,,
250,,confirmation,,html-keyboard-response,250,408052,0.0-1.0-49.0-0.0-1.0-0.0,0,0,89885,,,,,,47.0,,,,,,,,,,,,,,,,,,,,,,,,,,,,,,,,260.0,0.497,,
251,,isi,,html-keyboard-response,251,409557,0.0-1.0-49.0-0.0-2.0,0,0,89885,,,,,,,,,,,,,,,,,,,,,,,,,,,,,,,,,,,,,,261.5,1.5,,
252,,feedback,,html-keyboard-response,252,410566,0.0-1.0-49.0-0.0-3.0-0.0,0,0,89885,,,,,,47.0,,,,,,,,,,,,,,,,,,,,,,,,,,,,,,,,262.5,1.0,,
253,,iti,,html-keyboard-response,253,412569,0.0-1.0-49.0-0.0-5.0,0,0,89885,,,,,,,,,,,,,,,,,,,,,,,,,,,,,,,,,,,,,,264.5,2.0,,
254,,choice,,html-keyboard-response,254,413560,0.0-1.0-50.0-0.0-0.0,0,0,89885,,986.0,,,68.0,48.0,48.0,1500.0,1000.0,0.0,1.0,0.0,40-60,,1.0,frame,bongo,60.0,40.0,frame4,bongo11,60.0,40.0,AFRAME125.jpg,ABONGO6.jpg,/static/Category_learning/Stimuli/Experimental_stims/frame/AFRAME125.jpg,/static/Category_learning/Stimuli/Experimental_stims/bongo/ABONGO6.jpg,1.0,frame,bongo,60.0,40.0,frame4,bongo11,60.0,40.0,0.0,265.486,0.986,,
255,,confirmation,,html-keyboard-response,255,414078,0.0-1.0-50.0-0.0-1.0-0.0,0,0,89885,,,,,,48.0,,,,,,,,,,,,,,,,,,,,,,,,,,,,,,,,266.0,0.514,,
256,,isi,,html-keyboard-response,256,415581,0.0-1.0-50.0-0.0-2.0,0,0,89885,,,,,,,,,,,,,,,,,,,,,,,,,,,,,,,,,,,,,,267.5,1.5,,
257,,feedback,,html-keyboard-response,257,416586,0.0-1.0-50.0-0.0-3.0-0.0,0,0,89885,,,,,,48.0,,,,,,,,,,,,,,,,,,,,,,,,,,,,,,,,268.5,1.0,,
258,,iti,,html-keyboard-response,258,417591,0.0-1.0-50.0-0.0-5.0,0,0,89885,,,,,,,,,,,,,,,,,,,,,,,,,,,,,,,,,,,,,,269.5,1.0,,
259,,choice,,html-keyboard-response,259,418489,0.0-1.0-51.0-0.0-0.0,0,0,89885,,893.0,,,68.0,49.0,49.0,2000.0,2000.0,0.0,1.0,0.0,40-60,,0.0,dresser,lipstick,40.0,60.0,dresser3,lipstick1,20.0,80.0,ADRESSE79.jpg,P170102_hero.jpg,/static/Category_learning/Stimuli/Experimental_stims/dresser/ADRESSE79.jpg,/static/Category_learning/Stimuli/Experimental_stims/lipstick/P170102_hero.jpg,1.0,dresser,lipstick,40.0,60.0,dresser3,lipstick1,20.0,80.0,0.0,270.393,0.893,,
260,,confirmation,,html-keyboard-response,260,419104,0.0-1.0-51.0-0.0-1.0-0.0,0,0,89885,,,,,,49.0,,,,,,,,,,,,,,,,,,,,,,,,,,,,,,,,271.0,0.607,,
261,,isi,,html-keyboard-response,261,421108,0.0-1.0-51.0-0.0-2.0,0,0,89885,,,,,,,,,,,,,,,,,,,,,,,,,,,,,,,,,,,,,,273.0,2.0,,
262,,feedback,,html-keyboard-response,262,422112,0.0-1.0-51.0-0.0-3.0-0.0,0,0,89885,,,,,,49.0,,,,,,,,,,,,,,,,,,,,,,,,,,,,,,,,274.0,1.0,,
263,,iti,,html-keyboard-response,263,424116,0.0-1.0-51.0-0.0-5.0,0,0,89885,,,,,,,,,,,,,,,,,,,,,,,,,,,,,,,,,,,,,,276.0,2.0,,
264,,choice,,html-keyboard-response,264,424901,0.0-1.0-52.0-0.0-0.0,0,0,89885,,780.0,,,68.0,50.0,50.0,3500.0,1000.0,0.0,1.0,1.0,20-20,1.0,,tape,tape,20.0,20.0,tape12,tape6,40.0,40.0,Frog-Tape-Dispenser_F02218A2.jpg,1912.jpg,/static/Category_learning/Stimuli/Experimental_stims/tape/Frog-Tape-Dispenser_F02218A2.jpg,/static/Category_learning/Stimuli/Experimental_stims/tape/1912.jpg,1.0,tape,tape,20.0,20.0,tape12,tape6,40.0,40.0,0.0,276.78,0.78,,
265,,confirmation,,html-keyboard-response,265,425627,0.0-1.0-52.0-0.0-1.0-0.0,0,0,89885,,,,,,50.0,,,,,,,,,,,,,,,,,,,,,,,,,,,,,,,,277.5,0.72,,
266,,isi,,html-keyboard-response,266,429130,0.0-1.0-52.0-0.0-2.0,0,0,89885,,,,,,,,,,,,,,,,,,,,,,,,,,,,,,,,,,,,,,281.0,3.5,,
267,,feedback,,html-keyboard-response,267,430135,0.0-1.0-52.0-0.0-3.0-0.0,0,0,89885,,,,,,50.0,,,,,,,,,,,,,,,,,,,,,,,,,,,,,,,,282.0,1.0,,
268,,iti,,html-keyboard-response,268,431139,0.0-1.0-52.0-0.0-5.0,0,0,89885,,,,,,,,,,,,,,,,,,,,,,,,,,,,,,,,,,,,,,283.0,1.0,,
269,,choice,,html-keyboard-response,269,431742,0.0-1.0-53.0-0.0-0.0,0,0,89885,,597.0,,,68.0,51.0,51.0,2000.0,1000.0,0.0,1.0,0.0,60-60,,,makeup compact,microscope,60.0,60.0,makeup compact5,microscope3,40.0,40.0,P109965_hero.jpg,APDB.jpg,/static/Category_learning/Stimuli/Experimental_stims/makeup compact/P109965_hero.jpg,/static/Category_learning/Stimuli/Experimental_stims/microscope/APDB.jpg,1.0,makeup compact,microscope,60.0,60.0,makeup compact5,microscope3,40.0,40.0,0.0,283.597,0.597,,
270,,confirmation,,html-keyboard-response,270,432654,0.0-1.0-53.0-0.0-1.0-0.0,0,0,89885,,,,,,51.0,,,,,,,,,,,,,,,,,,,,,,,,,,,,,,,,284.5,0.903,,
271,,isi,,html-keyboard-response,271,434664,0.0-1.0-53.0-0.0-2.0,0,0,89885,,,,,,,,,,,,,,,,,,,,,,,,,,,,,,,,,,,,,,286.5,2.0,,
272,,feedback,,html-keyboard-response,272,435672,0.0-1.0-53.0-0.0-3.0-0.0,0,0,89885,,,,,,51.0,,,,,,,,,,,,,,,,,,,,,,,,,,,,,,,,287.5,1.0,,
273,,iti,,html-keyboard-response,273,436678,0.0-1.0-53.0-0.0-5.0,0,0,89885,,,,,,,,,,,,,,,,,,,,,,,,,,,,,,,,,,,,,,288.5,1.0,,
274,,choice,,html-keyboard-response,274,437389,0.0-1.0-54.0-0.0-0.0,0,0,89885,,705.0,,,68.0,52.0,52.0,1000.0,1500.0,0.0,1.0,0.0,40-80,,0.0,baby carriage,necklace,40.0,80.0,baby carriage9,necklace2,20.0,80.0,Antique baby Carriage 7.jpg,Anecklace7.jpg,/static/Category_learning/Stimuli/Experimental_stims/baby carriage/Antique baby Carriage 7.jpg,/static/Category_learning/Stimuli/Experimental_stims/necklace/Anecklace7.jpg,1.0,baby carriage,necklace,40.0,80.0,baby carriage9,necklace2,20.0,80.0,0.0,289.205,0.705,,
275,,confirmation,,html-keyboard-response,275,438192,0.0-1.0-54.0-0.0-1.0-0.0,0,0,89885,,,,,,52.0,,,,,,,,,,,,,,,,,,,,,,,,,,,,,,,,290.0,0.795,,
276,,isi,,html-keyboard-response,276,439196,0.0-1.0-54.0-0.0-2.0,0,0,89885,,,,,,,,,,,,,,,,,,,,,,,,,,,,,,,,,,,,,,291.0,1.0,,
277,,feedback,,html-keyboard-response,277,440203,0.0-1.0-54.0-0.0-3.0-0.0,0,0,89885,,,,,,52.0,,,,,,,,,,,,,,,,,,,,,,,,,,,,,,,,292.0,1.0,,
278,,iti,,html-keyboard-response,278,441707,0.0-1.0-54.0-0.0-5.0,0,0,89885,,,,,,,,,,,,,,,,,,,,,,,,,,,,,,,,,,,,,,293.5,1.5,,
279,,choice,,html-keyboard-response,279,442363,0.0-1.0-55.0-0.0-0.0,0,0,89885,,651.0,,,68.0,53.0,53.0,2000.0,1500.0,0.0,1.0,0.0,20-80,,0.0,watch,small table,20.0,80.0,watch12,small table12,40.0,80.0,snl003_MED.jpg,ATABLE54.jpg,/static/Category_learning/Stimuli/Experimental_stims/watch/snl003_MED.jpg,/static/Category_learning/Stimuli/Experimental_stims/small table/ATABLE54.jpg,1.0,watch,small table,20.0,80.0,watch12,small table12,40.0,80.0,0.0,294.151,0.651,,
280,,confirmation,,html-keyboard-response,280,443221,0.0-1.0-55.0-0.0-1.0-0.0,0,0,89885,,,,,,53.0,,,,,,,,,,,,,,,,,,,,,,,,,,,,,,,,295.0,0.849,,
281,,isi,,html-keyboard-response,281,445228,0.0-1.0-55.0-0.0-2.0,0,0,89885,,,,,,,,,,,,,,,,,,,,,,,,,,,,,,,,,,,,,,297.0,2.0,,
282,,feedback,,html-keyboard-response,282,446236,0.0-1.0-55.0-0.0-3.0-0.0,0,0,89885,,,,,,53.0,,,,,,,,,,,,,,,,,,,,,,,,,,,,,,,,298.0,1.0,,
283,,iti,,html-keyboard-response,283,447743,0.0-1.0-55.0-0.0-5.0,0,0,89885,,,,,,,,,,,,,,,,,,,,,,,,,,,,,,,,,,,,,,299.5,1.5,,
284,,choice,,html-keyboard-response,284,448484,0.0-1.0-56.0-0.0-0.0,0,0,89885,,735.0,,,68.0,54.0,54.0,1000.0,2000.0,0.0,1.0,1.0,20-20,1.0,,watch,watch,20.0,20.0,watch12,watch4,40.0,40.0,snl003_MED.jpg,B000EI2NBW.01._AA280_SCLZZZZZZZ_.jpg,/static/Category_learning/Stimuli/Experimental_stims/watch/snl003_MED.jpg,/static/Category_learning/Stimuli/Experimental_stims/watch/B000EI2NBW.01._AA280_SCLZZZZZZZ_.jpg,1.0,watch,watch,20.0,20.0,watch12,watch4,40.0,40.0,0.0,300.235,0.735,,
285,,confirmation,,html-keyboard-response,285,449257,0.0-1.0-56.0-0.0-1.0-0.0,0,0,89885,,,,,,54.0,,,,,,,,,,,,,,,,,,,,,,,,,,,,,,,,301.0,0.765,,
286,,isi,,html-keyboard-response,286,450261,0.0-1.0-56.0-0.0-2.0,0,0,89885,,,,,,,,,,,,,,,,,,,,,,,,,,,,,,,,,,,,,,302.0,1.0,,
287,,feedback,,html-keyboard-response,287,451266,0.0-1.0-56.0-0.0-3.0-0.0,0,0,89885,,,,,,54.0,,,,,,,,,,,,,,,,,,,,,,,,,,,,,,,,303.0,1.0,,
288,,iti,,html-keyboard-response,288,453270,0.0-1.0-56.0-0.0-5.0,0,0,89885,,,,,,,,,,,,,,,,,,,,,,,,,,,,,,,,,,,,,,305.0,2.0,,
289,,choice,,html-keyboard-response,289,453972,0.0-1.0-57.0-0.0-0.0,0,0,89885,,697.0,,,68.0,55.0,55.0,1000.0,3000.0,0.0,1.0,0.0,40-60,,1.0,motorcycle,bench,60.0,40.0,motorcycle13,bench9,60.0,40.0,2005-Buell-FireboltXB12R.jpg,26419898.thl.jpg,/static/Category_learning/Stimuli/Experimental_stims/motorcycle/2005-Buell-FireboltXB12R.jpg,/static/Category_learning/Stimuli/Experimental_stims/bench/26419898.thl.jpg,1.0,motorcycle,bench,60.0,40.0,motorcycle13,bench9,60.0,40.0,0.0,305.697,0.697,,
290,,confirmation,,html-keyboard-response,290,454783,0.0-1.0-57.0-0.0-1.0-0.0,0,0,89885,,,,,,55.0,,,,,,,,,,,,,,,,,,,,,,,,,,,,,,,,306.5,0.803,,
291,,isi,,html-keyboard-response,291,455791,0.0-1.0-57.0-0.0-2.0,0,0,89885,,,,,,,,,,,,,,,,,,,,,,,,,,,,,,,,,,,,,,307.5,1.0,,
292,,feedback,,html-keyboard-response,292,456797,0.0-1.0-57.0-0.0-3.0-0.0,0,0,89885,,,,,,55.0,,,,,,,,,,,,,,,,,,,,,,,,,,,,,,,,308.5,1.0,,
293,,iti,,html-keyboard-response,293,459804,0.0-1.0-57.0-0.0-5.0,0,0,89885,,,,,,,,,,,,,,,,,,,,,,,,,,,,,,,,,,,,,,311.5,3.0,,
294,,choice,,html-keyboard-response,294,460386,0.0-1.0-58.0-0.0-0.0,0,0,89885,,577.0,,,68.0,56.0,56.0,1000.0,1000.0,0.0,1.0,0.0,20-40,,1.0,baby carriage,train,40.0,20.0,baby carriage12,train4,60.0,40.0,Baby_Carriage-1.jpg,After-RHS-2-web.jpg,/static/Category_learning/Stimuli/Experimental_stims/baby carriage/Baby_Carriage-1.jpg,/static/Category_learning/Stimuli/Experimental_stims/train/After-RHS-2-web.jpg,1.0,baby carriage,train,40.0,20.0,baby carriage12,train4,60.0,40.0,0.0,312.077,0.577,,
295,,confirmation,,html-keyboard-response,295,461313,0.0-1.0-58.0-0.0-1.0-0.0,0,0,89885,,,,,,56.0,,,,,,,,,,,,,,,,,,,,,,,,,,,,,,,,313.0,0.923,,
296,,isi,,html-keyboard-response,296,462318,0.0-1.0-58.0-0.0-2.0,0,0,89885,,,,,,,,,,,,,,,,,,,,,,,,,,,,,,,,,,,,,,314.0,1.0,,
297,,feedback,,html-keyboard-response,297,463322,0.0-1.0-58.0-0.0-3.0-0.0,0,0,89885,,,,,,56.0,,,,,,,,,,,,,,,,,,,,,,,,,,,,,,,,315.0,1.0,,
298,,iti,,html-keyboard-response,298,464325,0.0-1.0-58.0-0.0-5.0,0,0,89885,,,,,,,,,,,,,,,,,,,,,,,,,,,,,,,,,,,,,,316.0,1.0,,
299,,choice,,html-keyboard-response,299,464727,0.0-1.0-59.0-0.0-0.0,0,0,89885,,397.0,,,68.0,57.0,57.0,3000.0,2000.0,0.0,1.0,1.0,60-60,1.0,,motorcycle,motorcycle,60.0,60.0,motorcycle15,motorcycle13,80.0,60.0,2006-Buell-LightningXB12Sa.jpg,2005-Buell-FireboltXB12R.jpg,/static/Category_learning/Stimuli/Experimental_stims/motorcycle/2006-Buell-LightningXB12Sa.jpg,/static/Category_learning/Stimuli/Experimental_stims/motorcycle/2005-Buell-FireboltXB12R.jpg,1.0,motorcycle,motorcycle,60.0,60.0,motorcycle15,motorcycle13,80.0,60.0,0.0,316.397,0.397,,
300,,confirmation,,html-keyboard-response,300,465835,0.0-1.0-59.0-0.0-1.0-0.0,0,0,89885,,,,,,57.0,,,,,,,,,,,,,,,,,,,,,,,,,,,,,,,,317.5,1.103,,
301,,isi,,html-keyboard-response,301,468842,0.0-1.0-59.0-0.0-2.0,0,0,89885,,,,,,,,,,,,,,,,,,,,,,,,,,,,,,,,,,,,,,320.5,3.0,,
302,,feedback,,html-keyboard-response,302,469850,0.0-1.0-59.0-0.0-3.0-0.0,0,0,89885,,,,,,57.0,,,,,,,,,,,,,,,,,,,,,,,,,,,,,,,,321.5,1.0,,
303,,iti,,html-keyboard-response,303,471857,0.0-1.0-59.0-0.0-5.0,0,0,89885,,,,,,,,,,,,,,,,,,,,,,,,,,,,,,,,,,,,,,323.5,2.0,,
304,,choice,,html-keyboard-response,304,472244,0.0-1.0-60.0-0.0-0.0,0,0,89885,,382.0,,,68.0,58.0,58.0,2000.0,1000.0,0.0,1.0,0.0,40-80,,0.0,flashlight,seashell,40.0,80.0,flashlight13,seashell13,60.0,100.0,834808_sk_lg.jpg,coquillage22.jpg,/static/Category_learning/Stimuli/Experimental_stims/flashlight/834808_sk_lg.jpg,/static/Category_learning/Stimuli/Experimental_stims/seashell/coquillage22.jpg,1.0,flashlight,seashell,40.0,80.0,flashlight13,seashell13,60.0,100.0,0.0,323.882,0.382,,
305,,confirmation,,html-keyboard-response,305,473370,0.0-1.0-60.0-0.0-1.0-0.0,0,0,89885,,,,,,58.0,,,,,,,,,,,,,,,,,,,,,,,,,,,,,,,,325.0,1.118,,
306,,isi,,html-keyboard-response,306,475379,0.0-1.0-60.0-0.0-2.0,0,0,89885,,,,,,,,,,,,,,,,,,,,,,,,,,,,,,,,,,,,,,327.0,2.0,,
307,,feedback,,html-keyboard-response,307,476387,0.0-1.0-60.0-0.0-3.0-0.0,0,0,89885,,,,,,58.0,,,,,,,,,,,,,,,,,,,,,,,,,,,,,,,,328.0,1.0,,
308,,iti,,html-keyboard-response,308,477393,0.0-1.0-60.0-0.0-5.0,0,0,89885,,,,,,,,,,,,,,,,,,,,,,,,,,,,,,,,,,,,,,329.0,1.0,,
309,,choice,,html-keyboard-response,309,478183,0.0-1.0-61.0-0.0-0.0,0,0,89885,,784.0,,,68.0,59.0,59.0,1000.0,1500.0,0.0,1.0,0.0,20-60,,0.0,watch,key chain,20.0,60.0,watch14,key chain14,0.0,40.0,HC06.jpg,Jif Keychain 285.jpg,/static/Category_learning/Stimuli/Experimental_stims/watch/HC06.jpg,/static/Category_learning/Stimuli/Experimental_stims/key chain/Jif Keychain 285.jpg,1.0,watch,key chain,20.0,60.0,watch14,key chain14,0.0,40.0,0.0,329.784,0.784,,
310,,confirmation,,html-keyboard-response,310,478908,0.0-1.0-61.0-0.0-1.0-0.0,0,0,89885,,,,,,59.0,,,,,,,,,,,,,,,,,,,,,,,,,,,,,,,,330.5,0.716,,
311,,isi,,html-keyboard-response,311,479911,0.0-1.0-61.0-0.0-2.0,0,0,89885,,,,,,,,,,,,,,,,,,,,,,,,,,,,,,,,,,,,,,331.5,1.0,,
312,,feedback,,html-keyboard-response,312,480916,0.0-1.0-61.0-0.0-3.0-0.0,0,0,89885,,,,,,59.0,,,,,,,,,,,,,,,,,,,,,,,,,,,,,,,,332.5,1.0,,
313,,iti,,html-keyboard-response,313,482420,0.0-1.0-61.0-0.0-5.0,0,0,89885,,,,,,,,,,,,,,,,,,,,,,,,,,,,,,,,,,,,,,334.0,1.5,,
314,,choice,,html-keyboard-response,314,482976,0.0-1.0-62.0-0.0-0.0,0,0,89885,,551.0,,,68.0,60.0,60.0,1500.0,1000.0,0.0,1.0,0.0,20-80,,0.0,watch,small table,20.0,80.0,watch8,small table2,40.0,100.0,2239.jpg,Atable126.jpg,/static/Category_learning/Stimuli/Experimental_stims/watch/2239.jpg,/static/Category_learning/Stimuli/Experimental_stims/small table/Atable126.jpg,1.0,watch,small table,20.0,80.0,watch8,small table2,40.0,100.0,0.0,334.551,0.551,,
315,,confirmation,,html-keyboard-response,315,483929,0.0-1.0-62.0-0.0-1.0-0.0,0,0,89885,,,,,,60.0,,,,,,,,,,,,,,,,,,,,,,,,,,,,,,,,335.5,0.949,,
316,,isi,,html-keyboard-response,316,485438,0.0-1.0-62.0-0.0-2.0,0,0,89885,,,,,,,,,,,,,,,,,,,,,,,,,,,,,,,,,,,,,,337.0,1.5,,
317,,feedback,,html-keyboard-response,317,486443,0.0-1.0-62.0-0.0-3.0-0.0,0,0,89885,,,,,,60.0,,,,,,,,,,,,,,,,,,,,,,,,,,,,,,,,338.0,1.0,,
318,,iti,,html-keyboard-response,318,487450,0.0-1.0-62.0-0.0-5.0,0,0,89885,,,,,,,,,,,,,,,,,,,,,,,,,,,,,,,,,,,,,,339.0,1.0,,
319,,choice,,html-keyboard-response,319,488578,0.0-1.0-63.0-0.0-0.0,0,0,89885,,1122.0,,,68.0,61.0,61.0,1500.0,2000.0,0.0,1.0,1.0,40-40,1.0,,baby carriage,baby carriage,40.0,40.0,baby carriage9,baby carriage12,20.0,60.0,Antique baby Carriage 7.jpg,Baby_Carriage-1.jpg,/static/Category_learning/Stimuli/Experimental_stims/baby carriage/Antique baby Carriage 7.jpg,/static/Category_learning/Stimuli/Experimental_stims/baby carriage/Baby_Carriage-1.jpg,1.0,baby carriage,baby carriage,40.0,40.0,baby carriage9,baby carriage12,20.0,60.0,0.0,340.122,1.122,,
320,,confirmation,,html-keyboard-response,320,488961,0.0-1.0-63.0-0.0-1.0-0.0,0,0,89885,,,,,,61.0,,,,,,,,,,,,,,,,,,,,,,,,,,,,,,,,340.5,0.378,,
321,,isi,,html-keyboard-response,321,490465,0.0-1.0-63.0-0.0-2.0,0,0,89885,,,,,,,,,,,,,,,,,,,,,,,,,,,,,,,,,,,,,,342.0,1.5,,
322,,feedback,,html-keyboard-response,322,491469,0.0-1.0-63.0-0.0-3.0-0.0,0,0,89885,,,,,,61.0,,,,,,,,,,,,,,,,,,,,,,,,,,,,,,,,343.0,1.0,,
323,,iti,,html-keyboard-response,323,493478,0.0-1.0-63.0-0.0-5.0,0,0,89885,,,,,,,,,,,,,,,,,,,,,,,,,,,,,,,,,,,,,,345.0,2.0,,
324,,choice,,html-keyboard-response,324,494096,0.0-1.0-64.0-0.0-0.0,0,0,89885,,610.0,,,68.0,62.0,62.0,2000.0,1500.0,0.0,1.0,1.0,20-20,1.0,,watch,watch,20.0,20.0,watch8,watch14,40.0,0.0,2239.jpg,HC06.jpg,/static/Category_learning/Stimuli/Experimental_stims/watch/2239.jpg,/static/Category_learning/Stimuli/Experimental_stims/watch/HC06.jpg,1.0,watch,watch,20.0,20.0,watch8,watch14,40.0,0.0,0.0,345.61,0.61,,
325,,confirmation,,html-keyboard-response,325,494993,0.0-1.0-64.0-0.0-1.0-0.0,0,0,89885,,,,,,62.0,,,,,,,,,,,,,,,,,,,,,,,,,,,,,,,,346.5,0.89,,
326,,isi,,html-keyboard-response,326,497002,0.0-1.0-64.0-0.0-2.0,0,0,89885,,,,,,,,,,,,,,,,,,,,,,,,,,,,,,,,,,,,,,348.5,2.0,,
327,,feedback,,html-keyboard-response,327,498009,0.0-1.0-64.0-0.0-3.0-0.0,0,0,89885,,,,,,62.0,,,,,,,,,,,,,,,,,,,,,,,,,,,,,,,,349.5,1.0,,
328,,iti,,html-keyboard-response,328,499514,0.0-1.0-64.0-0.0-5.0,0,0,89885,,,,,,,,,,,,,,,,,,,,,,,,,,,,,,,,,,,,,,351.0,1.5,,
329,,block_over,,html-keyboard-response,329,511284,0.0-1.0-64.0-0.0-7.0-0.0,0,0,89885,,11764.0,,,68.0,62.0,,,,,,,,,,,,,,,,,,,,,,,,,,,,,,,,,,,
330,,start_run,,html-keyboard-response,330,514883,0.0-1.0-64.0-0.0-7.0-1.0,0,0,89885,,3598.0,,,84.0,,,,,,,,,,,,,,,,,,,,,,,,,,,,,,,,,,,,
331,,choice,,html-keyboard-response,331,516394,0.0-1.0-65.0-0.0-0.0,0,0,89885,,,,,,63.0,65.0,1000.0,1500.0,0.0,2.0,0.0,20-60,,0.0,tent,hammer,20.0,60.0,tent10,hammer4,0.0,60.0,TENT-DUTCH-GD1-1.jpg,hammernew01.jpg,/static/Category_learning/Stimuli/Experimental_stims/tent/TENT-DUTCH-GD1-1.jpg,/static/Category_learning/Stimuli/Experimental_stims/hammer/hammernew01.jpg,,,,,,,,,,1.0,1.5,1.5,,
332,,isi,,html-keyboard-response,332,517400,0.0-1.0-65.0-0.0-2.0,0,0,89885,,,,,,,,,,,,,,,,,,,,,,,,,,,,,,,,,,,,,,2.5,1.0,,
333,,no_response,,html-keyboard-response,333,518405,0.0-1.0-65.0-0.0-4.0-0.0,0,0,89885,,,,,,,,,,,,,,,,,,,,,,,,,,,,,,,,,,,,,,3.5,1.0,,
334,,iti,,html-keyboard-response,334,519937,0.0-1.0-65.0-0.0-5.0,0,0,89885,,,,,,,,,,,,,,,,,,,,,,,,,,,,,,,,,,,,,,5.0,1.5,,
335,,choice,,html-keyboard-response,335,520555,0.0-1.0-65.0-0.1-0.1,0,0,89885,,611.0,,,75.0,63.0,65.0,1000.0,1500.0,0.0,2.0,0.0,20-60,,0.0,tent,hammer,20.0,60.0,tent10,hammer4,0.0,60.0,TENT-DUTCH-GD1-1.jpg,hammernew01.jpg,/static/Category_learning/Stimuli/Experimental_stims/tent/TENT-DUTCH-GD1-1.jpg,/static/Category_learning/Stimuli/Experimental_stims/hammer/hammernew01.jpg,0.0,hammer,tent,60.0,20.0,hammer4,tent10,60.0,0.0,0.0,5.611,0.611,,
336,,confirmation,,html-keyboard-response,336,521452,0.0-1.0-65.0-0.1-1.1-0.1,0,0,89885,,,,,,63.0,,,,,,,,,,,,,,,,,,,,,,,,,,,,,,,,6.5,0.889,,
337,,isi,,html-keyboard-response,337,524958,0.0-1.0-65.0-0.1-2.1,0,0,89885,,,,,,,,,,,,,,,,,,,,,,,,,,,,,,,,,,,,,,10.0,3.5,,
338,,feedback,,html-keyboard-response,338,525962,0.0-1.0-65.0-0.1-3.1-0.1,0,0,89885,,,,,,63.0,,,,,,,,,,,,,,,,,,,,,,,,,,,,,,,,11.0,1.0,,
339,,iti,,html-keyboard-response,339,526966,0.0-1.0-65.0-0.1-5.1,0,0,89885,,,,,,,,,,,,,,,,,,,,,,,,,,,,,,,,,,,,,,12.0,1.0,,
340,,choice,,html-keyboard-response,340,527574,0.0-1.0-66.0-0.0-0.0,0,0,89885,,602.0,,,75.0,64.0,66.0,3000.0,1000.0,0.0,2.0,0.0,40-80,,1.0,patio lounge chair,bench,80.0,40.0,patio lounge chair11,bench3,100.0,20.0,51830.jpg,26419540.thl.jpg,/static/Category_learning/Stimuli/Experimental_stims/patio lounge chair/51830.jpg,/static/Category_learning/Stimuli/Experimental_stims/bench/26419540.thl.jpg,0.0,bench,patio lounge chair,40.0,80.0,bench3,patio lounge chair11,20.0,100.0,0.0,12.602,0.602,,
341,,confirmation,,html-keyboard-response,341,528478,0.0-1.0-66.0-0.0-1.0-0.0,0,0,89885,,,,,,64.0,,,,,,,,,,,,,,,,,,,,,,,,,,,,,,,,13.5,0.898,,
342,,isi,,html-keyboard-response,342,531483,0.0-1.0-66.0-0.0-2.0,0,0,89885,,,,,,,,,,,,,,,,,,,,,,,,,,,,,,,,,,,,,,16.5,3.0,,
343,,feedback,,html-keyboard-response,343,532491,0.0-1.0-66.0-0.0-3.0-0.0,0,0,89885,,,,,,64.0,,,,,,,,,,,,,,,,,,,,,,,,,,,,,,,,17.5,1.0,,
344,,iti,,html-keyboard-response,344,533497,0.0-1.0-66.0-0.0-5.0,0,0,89885,,,,,,,,,,,,,,,,,,,,,,,,,,,,,,,,,,,,,,18.5,1.0,,
345,,choice,,html-keyboard-response,345,534166,0.0-1.0-67.0-0.0-0.0,0,0,89885,,663.0,,,75.0,65.0,67.0,1500.0,1500.0,0.0,2.0,0.0,20-20,,,trumpet,watch,20.0,20.0,trumpet12,watch6,40.0,20.0,hornabariton.jpg,B0000X04VC.01-A4LKQQKJ91IUZ._AA280_SCLZZZZZZZ_.jpg,/static/Category_learning/Stimuli/Experimental_stims/trumpet/hornabariton.jpg,/static/Category_learning/Stimuli/Experimental_stims/watch/B0000X04VC.01-A4LKQQKJ91IUZ._AA280_SCLZZZZZZZ_.jpg,0.0,watch,trumpet,20.0,20.0,watch6,trumpet12,20.0,40.0,0.0,19.163,0.663,,
346,,confirmation,,html-keyboard-response,346,535012,0.0-1.0-67.0-0.0-1.0-0.0,0,0,89885,,,,,,65.0,,,,,,,,,,,,,,,,,,,,,,,,,,,,,,,,20.0,0.837,,
347,,isi,,html-keyboard-response,347,536517,0.0-1.0-67.0-0.0-2.0,0,0,89885,,,,,,,,,,,,,,,,,,,,,,,,,,,,,,,,,,,,,,21.5,1.5,,
348,,feedback,,html-keyboard-response,348,537522,0.0-1.0-67.0-0.0-3.0-0.0,0,0,89885,,,,,,65.0,,,,,,,,,,,,,,,,,,,,,,,,,,,,,,,,22.5,1.0,,
349,,iti,,html-keyboard-response,349,539028,0.0-1.0-67.0-0.0-5.0,0,0,89885,,,,,,,,,,,,,,,,,,,,,,,,,,,,,,,,,,,,,,24.0,1.5,,
350,,choice,,html-keyboard-response,350,539434,0.0-1.0-68.0-0.0-0.0,0,0,89885,,402.0,,,75.0,66.0,68.0,2000.0,1500.0,0.0,2.0,0.0,20-80,,0.0,yarn,small table,20.0,80.0,yarn1,small table8,40.0,60.0,corn_yarn.jpg,ATABLE8.jpg,/static/Category_learning/Stimuli/Experimental_stims/yarn/corn_yarn.jpg,/static/Category_learning/Stimuli/Experimental_stims/small table/ATABLE8.jpg,0.0,small table,yarn,80.0,20.0,small table8,yarn1,60.0,40.0,0.0,24.402,0.402,,
351,,confirmation,,html-keyboard-response,351,540539,0.0-1.0-68.0-0.0-1.0-0.0,0,0,89885,,,,,,66.0,,,,,,,,,,,,,,,,,,,,,,,,,,,,,,,,25.5,1.098,,
352,,isi,,html-keyboard-response,352,542548,0.0-1.0-68.0-0.0-2.0,0,0,89885,,,,,,,,,,,,,,,,,,,,,,,,,,,,,,,,,,,,,,27.5,2.0,,
353,,feedback,,html-keyboard-response,353,543557,0.0-1.0-68.0-0.0-3.0-0.0,0,0,89885,,,,,,66.0,,,,,,,,,,,,,,,,,,,,,,,,,,,,,,,,28.5,1.0,,
354,,iti,,html-keyboard-response,354,545064,0.0-1.0-68.0-0.0-5.0,0,0,89885,,,,,,,,,,,,,,,,,,,,,,,,,,,,,,,,,,,,,,30.0,1.5,,
355,,choice,,html-keyboard-response,355,545396,0.0-1.0-69.0-0.0-0.0,0,0,89885,,326.0,,,75.0,67.0,69.0,1000.0,2000.0,0.0,2.0,0.0,60-60,,,makeup compact,hat,60.0,60.0,makeup compact12,hat5,80.0,40.0,P139103_hero.jpg,AREDHAT4.jpg,/static/Category_learning/Stimuli/Experimental_stims/makeup compact/P139103_hero.jpg,/static/Category_learning/Stimuli/Experimental_stims/hat/AREDHAT4.jpg,0.0,hat,makeup compact,60.0,60.0,hat5,makeup compact12,40.0,80.0,0.0,30.326,0.326,,
356,,confirmation,,html-keyboard-response,356,546574,0.0-1.0-69.0-0.0-1.0-0.0,0,0,89885,,,,,,67.0,,,,,,,,,,,,,,,,,,,,,,,,,,,,,,,,31.5,1.174,,
357,,isi,,html-keyboard-response,357,547579,0.0-1.0-69.0-0.0-2.0,0,0,89885,,,,,,,,,,,,,,,,,,,,,,,,,,,,,,,,,,,,,,32.5,1.0,,
358,,feedback,,html-keyboard-response,358,548583,0.0-1.0-69.0-0.0-3.0-0.0,0,0,89885,,,,,,67.0,,,,,,,,,,,,,,,,,,,,,,,,,,,,,,,,33.5,1.0,,
359,,iti,,html-keyboard-response,359,550589,0.0-1.0-69.0-0.0-5.0,0,0,89885,,,,,,,,,,,,,,,,,,,,,,,,,,,,,,,,,,,,,,35.5,2.0,,
360,,choice,,html-keyboard-response,360,551293,0.0-1.0-70.0-0.0-0.0,0,0,89885,,697.0,,,75.0,68.0,70.0,1000.0,1000.0,0.0,2.0,0.0,40-60,,0.0,dresser,lipstick,40.0,60.0,dresser4,lipstick5,60.0,40.0,ADRESSE40.jpg,P35719_hero.jpg,/static/Category_learning/Stimuli/Experimental_stims/dresser/ADRESSE40.jpg,/static/Category_learning/Stimuli/Experimental_stims/lipstick/P35719_hero.jpg,0.0,lipstick,dresser,60.0,40.0,lipstick5,dresser4,40.0,60.0,0.0,36.197,0.697,,
361,,confirmation,,html-keyboard-response,361,552101,0.0-1.0-70.0-0.0-1.0-0.0,0,0,89885,,,,,,68.0,,,,,,,,,,,,,,,,,,,,,,,,,,,,,,,,37.0,0.803,,
362,,isi,,html-keyboard-response,362,553105,0.0-1.0-70.0-0.0-2.0,0,0,89885,,,,,,,,,,,,,,,,,,,,,,,,,,,,,,,,,,,,,,38.0,1.0,,
363,,feedback,,html-keyboard-response,363,554108,0.0-1.0-70.0-0.0-3.0-0.0,0,0,89885,,,,,,68.0,,,,,,,,,,,,,,,,,,,,,,,,,,,,,,,,39.0,1.0,,
364,,iti,,html-keyboard-response,364,555115,0.0-1.0-70.0-0.0-5.0,0,0,89885,,,,,,,,,,,,,,,,,,,,,,,,,,,,,,,,,,,,,,40.0,1.0,,
365,,choice,,html-keyboard-response,365,555699,0.0-1.0-71.0-0.0-0.0,0,0,89885,,579.0,,,75.0,69.0,71.0,1000.0,1500.0,0.0,2.0,1.0,80-80,1.0,,small table,small table,80.0,80.0,small table7,small table8,80.0,60.0,ATABLE89.jpg,ATABLE8.jpg,/static/Category_learning/Stimuli/Experimental_stims/small table/ATABLE89.jpg,/static/Category_learning/Stimuli/Experimental_stims/small table/ATABLE8.jpg,0.0,small table,small table,80.0,80.0,small table8,small table7,60.0,80.0,0.0,40.579,0.579,,
366,,confirmation,,html-keyboard-response,366,556625,0.0-1.0-71.0-0.0-1.0-0.0,0,0,89885,,,,,,69.0,,,,,,,,,,,,,,,,,,,,,,,,,,,,,,,,41.5,0.921,,
367,,isi,,html-keyboard-response,367,557632,0.0-1.0-71.0-0.0-2.0,0,0,89885,,,,,,,,,,,,,,,,,,,,,,,,,,,,,,,,,,,,,,42.5,1.0,,
368,,feedback,,html-keyboard-response,368,558638,0.0-1.0-71.0-0.0-3.0-0.0,0,0,89885,,,,,,69.0,,,,,,,,,,,,,,,,,,,,,,,,,,,,,,,,43.5,1.0,,
369,,iti,,html-keyboard-response,369,560143,0.0-1.0-71.0-0.0-5.0,0,0,89885,,,,,,,,,,,,,,,,,,,,,,,,,,,,,,,,,,,,,,45.0,1.5,,
370,,choice,,html-keyboard-response,370,560539,0.0-1.0-72.0-0.0-0.0,0,0,89885,,391.0,,,75.0,70.0,72.0,2000.0,2000.0,0.0,2.0,0.0,40-60,,1.0,hat,desk,60.0,40.0,hat10,desk11,80.0,60.0,Atornhat3.jpg,Writing_Desk_280_Cutout_Sideview_half.jpg,/static/Category_learning/Stimuli/Experimental_stims/hat/Atornhat3.jpg,/static/Category_learning/Stimuli/Experimental_stims/desk/Writing_Desk_280_Cutout_Sideview_half.jpg,0.0,desk,hat,40.0,60.0,desk11,hat10,60.0,80.0,0.0,45.391,0.391,,
371,,confirmation,,html-keyboard-response,371,561657,0.0-1.0-72.0-0.0-1.0-0.0,0,0,89885,,,,,,70.0,,,,,,,,,,,,,,,,,,,,,,,,,,,,,,,,46.5,1.109,,
372,,isi,,html-keyboard-response,372,563664,0.0-1.0-72.0-0.0-2.0,0,0,89885,,,,,,,,,,,,,,,,,,,,,,,,,,,,,,,,,,,,,,48.5,2.0,,
373,,feedback,,html-keyboard-response,373,564670,0.0-1.0-72.0-0.0-3.0-0.0,0,0,89885,,,,,,70.0,,,,,,,,,,,,,,,,,,,,,,,,,,,,,,,,49.5,1.0,,
374,,iti,,html-keyboard-response,374,566678,0.0-1.0-72.0-0.0-5.0,0,0,89885,,,,,,,,,,,,,,,,,,,,,,,,,,,,,,,,,,,,,,51.5,2.0,,
375,,choice,,html-keyboard-response,375,566997,0.0-1.0-73.0-0.0-0.0,0,0,89885,,313.0,,,75.0,71.0,73.0,1500.0,1000.0,0.0,2.0,1.0,60-60,1.0,,hat,hat,60.0,60.0,hat5,hat1,40.0,60.0,AREDHAT4.jpg,AGREENHAT.jpg,/static/Category_learning/Stimuli/Experimental_stims/hat/AREDHAT4.jpg,/static/Category_learning/Stimuli/Experimental_stims/hat/AGREENHAT.jpg,0.0,hat,hat,60.0,60.0,hat1,hat5,60.0,40.0,0.0,51.813,0.313,,
376,,confirmation,,html-keyboard-response,376,568192,0.0-1.0-73.0-0.0-1.0-0.0,0,0,89885,,,,,,71.0,,,,,,,,,,,,,,,,,,,,,,,,,,,,,,,,53.0,1.187,,
377,,isi,,html-keyboard-response,377,569696,0.0-1.0-73.0-0.0-2.0,0,0,89885,,,,,,,,,,,,,,,,,,,,,,,,,,,,,,,,,,,,,,54.5,1.5,,
378,,feedback,,html-keyboard-response,378,570701,0.0-1.0-73.0-0.0-3.0-0.0,0,0,89885,,,,,,71.0,,,,,,,,,,,,,,,,,,,,,,,,,,,,,,,,55.5,1.0,,
379,,iti,,html-keyboard-response,379,571709,0.0-1.0-73.0-0.0-5.0,0,0,89885,,,,,,,,,,,,,,,,,,,,,,,,,,,,,,,,,,,,,,56.5,1.0,,
380,,choice,,html-keyboard-response,380,572262,0.0-1.0-74.0-0.0-0.0,0,0,89885,,546.0,,,75.0,72.0,74.0,1500.0,1000.0,0.0,2.0,1.0,60-60,1.0,,hammer,hammer,60.0,60.0,hammer8,hammer4,40.0,60.0,ct1006_hammer.jpg,hammernew01.jpg,/static/Category_learning/Stimuli/Experimental_stims/hammer/ct1006_hammer.jpg,/static/Category_learning/Stimuli/Experimental_stims/hammer/hammernew01.jpg,0.0,hammer,hammer,60.0,60.0,hammer4,hammer8,60.0,40.0,0.0,57.046,0.546,,
381,,confirmation,,html-keyboard-response,381,573220,0.0-1.0-74.0-0.0-1.0-0.0,0,0,89885,,,,,,72.0,,,,,,,,,,,,,,,,,,,,,,,,,,,,,,,,58.0,0.954,,
382,,isi,,html-keyboard-response,382,574728,0.0-1.0-74.0-0.0-2.0,0,0,89885,,,,,,,,,,,,,,,,,,,,,,,,,,,,,,,,,,,,,,59.5,1.5,,
383,,feedback,,html-keyboard-response,383,575736,0.0-1.0-74.0-0.0-3.0-0.0,0,0,89885,,,,,,72.0,,,,,,,,,,,,,,,,,,,,,,,,,,,,,,,,60.5,1.0,,
384,,iti,,html-keyboard-response,384,576743,0.0-1.0-74.0-0.0-5.0,0,0,89885,,,,,,,,,,,,,,,,,,,,,,,,,,,,,,,,,,,,,,61.5,1.0,,
385,,choice,,html-keyboard-response,385,577301,0.0-1.0-75.0-0.0-0.0,0,0,89885,,552.0,,,75.0,73.0,75.0,1000.0,1000.0,0.0,2.0,0.0,60-60,,,microscope,hat,60.0,60.0,microscope8,hat14,60.0,60.0,AMICROS21.jpg,Ahat136.jpg,/static/Category_learning/Stimuli/Experimental_stims/microscope/AMICROS21.jpg,/static/Category_learning/Stimuli/Experimental_stims/hat/Ahat136.jpg,0.0,hat,microscope,60.0,60.0,hat14,microscope8,60.0,60.0,0.0,62.052,0.552,,
386,,confirmation,,html-keyboard-response,386,578255,0.0-1.0-75.0-0.0-1.0-0.0,0,0,89885,,,,,,73.0,,,,,,,,,,,,,,,,,,,,,,,,,,,,,,,,63.0,0.948,,
387,,isi,,html-keyboard-response,387,579263,0.0-1.0-75.0-0.0-2.0,0,0,89885,,,,,,,,,,,,,,,,,,,,,,,,,,,,,,,,,,,,,,64.0,1.0,,
388,,feedback,,html-keyboard-response,388,580267,0.0-1.0-75.0-0.0-3.0-0.0,0,0,89885,,,,,,73.0,,,,,,,,,,,,,,,,,,,,,,,,,,,,,,,,65.0,1.0,,
389,,iti,,html-keyboard-response,389,581275,0.0-1.0-75.0-0.0-5.0,0,0,89885,,,,,,,,,,,,,,,,,,,,,,,,,,,,,,,,,,,,,,66.0,1.0,,
390,,choice,,html-keyboard-response,390,581803,0.0-1.0-76.0-0.0-0.0,0,0,89885,,523.0,,,75.0,74.0,76.0,2000.0,2000.0,0.0,2.0,0.0,40-60,,0.0,door knob,frame,40.0,60.0,door knob8,frame10,40.0,80.0,pro_l_116_medeco437ul.jpg,AFRAME107.jpg,/static/Category_learning/Stimuli/Experimental_stims/door knob/pro_l_116_medeco437ul.jpg,/static/Category_learning/Stimuli/Experimental_stims/frame/AFRAME107.jpg,0.0,frame,door knob,60.0,40.0,frame10,door knob8,80.0,40.0,0.0,66.523,0.523,,
391,,confirmation,,html-keyboard-response,391,582787,0.0-1.0-76.0-0.0-1.0-0.0,0,0,89885,,,,,,74.0,,,,,,,,,,,,,,,,,,,,,,,,,,,,,,,,67.5,0.977,,
392,,isi,,html-keyboard-response,392,584791,0.0-1.0-76.0-0.0-2.0,0,0,89885,,,,,,,,,,,,,,,,,,,,,,,,,,,,,,,,,,,,,,69.5,2.0,,
393,,feedback,,html-keyboard-response,393,585799,0.0-1.0-76.0-0.0-3.0-0.0,0,0,89885,,,,,,74.0,,,,,,,,,,,,,,,,,,,,,,,,,,,,,,,,70.5,1.0,,
394,,iti,,html-keyboard-response,394,587805,0.0-1.0-76.0-0.0-5.0,0,0,89885,,,,,,,,,,,,,,,,,,,,,,,,,,,,,,,,,,,,,,72.5,2.0,,
395,,choice,,html-keyboard-response,395,588307,0.0-1.0-77.0-0.0-0.0,0,0,89885,,497.0,,,75.0,75.0,77.0,1500.0,2000.0,0.0,2.0,0.0,40-60,,0.0,bench,hat,40.0,60.0,bench6,hat3,20.0,60.0,26370121.thl.jpg,Astrawhat49.jpg,/static/Category_learning/Stimuli/Experimental_stims/bench/26370121.thl.jpg,/static/Category_learning/Stimuli/Experimental_stims/hat/Astrawhat49.jpg,0.0,hat,bench,60.0,40.0,hat3,bench6,60.0,20.0,0.0,72.997,0.497,,
396,,confirmation,,html-keyboard-response,396,589316,0.0-1.0-77.0-0.0-1.0-0.0,0,0,89885,,,,,,75.0,,,,,,,,,,,,,,,,,,,,,,,,,,,,,,,,74.0,1.003,,
397,,isi,,html-keyboard-response,397,590820,0.0-1.0-77.0-0.0-2.0,0,0,89885,,,,,,,,,,,,,,,,,,,,,,,,,,,,,,,,,,,,,,75.5,1.5,,
398,,feedback,,html-keyboard-response,398,591825,0.0-1.0-77.0-0.0-3.0-0.0,0,0,89885,,,,,,75.0,,,,,,,,,,,,,,,,,,,,,,,,,,,,,,,,76.5,1.0,,
399,,iti,,html-keyboard-response,399,593833,0.0-1.0-77.0-0.0-5.0,0,0,89885,,,,,,,,,,,,,,,,,,,,,,,,,,,,,,,,,,,,,,78.5,2.0,,
400,,choice,,html-keyboard-response,400,594177,0.0-1.0-78.0-0.0-0.0,0,0,89885,,338.0,,,75.0,76.0,78.0,2000.0,1500.0,0.0,2.0,0.0,40-80,,1.0,nail polish,baby carriage,80.0,40.0,nail polish15,baby carriage1,60.0,40.0,MA_NP_WSD.jpg,babycarriage16.jpg,/static/Category_learning/Stimuli/Experimental_stims/nail polish/MA_NP_WSD.jpg,/static/Category_learning/Stimuli/Experimental_stims/baby carriage/babycarriage16.jpg,0.0,baby carriage,nail polish,40.0,80.0,baby carriage1,nail polish15,40.0,60.0,0.0,78.838,0.338,,
401,,confirmation,,html-keyboard-response,401,595344,0.0-1.0-78.0-0.0-1.0-0.0,0,0,89885,,,,,,76.0,,,,,,,,,,,,,,,,,,,,,,,,,,,,,,,,80.0,1.162,,
402,,isi,,html-keyboard-response,402,597351,0.0-1.0-78.0-0.0-2.0,0,0,89885,,,,,,,,,,,,,,,,,,,,,,,,,,,,,,,,,,,,,,82.0,2.0,,
403,,feedback,,html-keyboard-response,403,598356,0.0-1.0-78.0-0.0-3.0-0.0,0,0,89885,,,,,,76.0,,,,,,,,,,,,,,,,,,,,,,,,,,,,,,,,83.0,1.0,,
404,,iti,,html-keyboard-response,404,599860,0.0-1.0-78.0-0.0-5.0,0,0,89885,,,,,,,,,,,,,,,,,,,,,,,,,,,,,,,,,,,,,,84.5,1.5,,
405,,choice,,html-keyboard-response,405,600522,0.0-1.0-79.0-0.0-0.0,0,0,89885,,657.0,,,75.0,77.0,79.0,1000.0,1500.0,0.0,2.0,0.0,40-80,,1.0,poker card,bongo,80.0,40.0,poker card2,bongo9,100.0,20.0,22864716.thl.jpg,22946035.thl.jpg,/static/Category_learning/Stimuli/Experimental_stims/poker card/22864716.thl.jpg,/static/Category_learning/Stimuli/Experimental_stims/bongo/22946035.thl.jpg,0.0,bongo,poker card,40.0,80.0,bongo9,poker card2,20.0,100.0,0.0,85.157,0.657,,
406,,confirmation,,html-keyboard-response,406,601369,0.0-1.0-79.0-0.0-1.0-0.0,0,0,89885,,,,,,77.0,,,,,,,,,,,,,,,,,,,,,,,,,,,,,,,,86.0,0.843,,
407,,isi,,html-keyboard-response,407,602373,0.0-1.0-79.0-0.0-2.0,0,0,89885,,,,,,,,,,,,,,,,,,,,,,,,,,,,,,,,,,,,,,87.0,1.0,,
408,,feedback,,html-keyboard-response,408,603376,0.0-1.0-79.0-0.0-3.0-0.0,0,0,89885,,,,,,77.0,,,,,,,,,,,,,,,,,,,,,,,,,,,,,,,,88.0,1.0,,
409,,iti,,html-keyboard-response,409,604880,0.0-1.0-79.0-0.0-5.0,0,0,89885,,,,,,,,,,,,,,,,,,,,,,,,,,,,,,,,,,,,,,89.5,1.5,,
410,,choice,,html-keyboard-response,410,605609,0.0-1.0-80.0-0.0-0.0,0,0,89885,,723.0,,,75.0,78.0,80.0,1000.0,1000.0,0.0,2.0,0.0,80-80,,,seashell,patio lounge chair,80.0,80.0,seashell6,patio lounge chair3,80.0,60.0,PY2H1461.jpg,Lounge_Chair.jpg,/static/Category_learning/Stimuli/Experimental_stims/seashell/PY2H1461.jpg,/static/Category_learning/Stimuli/Experimental_stims/patio lounge chair/Lounge_Chair.jpg,0.0,patio lounge chair,seashell,80.0,80.0,patio lounge chair3,seashell6,60.0,80.0,0.0,90.223,0.723,,
411,,confirmation,,html-keyboard-response,411,606390,0.0-1.0-80.0-0.0-1.0-0.0,0,0,89885,,,,,,78.0,,,,,,,,,,,,,,,,,,,,,,,,,,,,,,,,91.0,0.777,,
412,,isi,,html-keyboard-response,412,607394,0.0-1.0-80.0-0.0-2.0,0,0,89885,,,,,,,,,,,,,,,,,,,,,,,,,,,,,,,,,,,,,,92.0,1.0,,
413,,feedback,,html-keyboard-response,413,608398,0.0-1.0-80.0-0.0-3.0-0.0,0,0,89885,,,,,,78.0,,,,,,,,,,,,,,,,,,,,,,,,,,,,,,,,93.0,1.0,,
414,,iti,,html-keyboard-response,414,609402,0.0-1.0-80.0-0.0-5.0,0,0,89885,,,,,,,,,,,,,,,,,,,,,,,,,,,,,,,,,,,,,,94.0,1.0,,
415,,choice,,html-keyboard-response,415,609952,0.0-1.0-81.0-0.0-0.0,0,0,89885,,544.0,,,75.0,79.0,81.0,1000.0,3500.0,0.0,2.0,0.0,20-80,,0.0,tape,small table,20.0,80.0,tape10,small table10,20.0,100.0,26377601.thl.jpg,ATABLE41.jpg,/static/Category_learning/Stimuli/Experimental_stims/tape/26377601.thl.jpg,/static/Category_learning/Stimuli/Experimental_stims/small table/ATABLE41.jpg,0.0,small table,tape,80.0,20.0,small table10,tape10,100.0,20.0,0.0,94.544,0.544,,
416,,confirmation,,html-keyboard-response,416,610919,0.0-1.0-81.0-0.0-1.0-0.0,0,0,89885,,,,,,79.0,,,,,,,,,,,,,,,,,,,,,,,,,,,,,,,,95.5,0.956,,
417,,isi,,html-keyboard-response,417,611926,0.0-1.0-81.0-0.0-2.0,0,0,89885,,,,,,,,,,,,,,,,,,,,,,,,,,,,,,,,,,,,,,96.5,1.0,,
418,,feedback,,html-keyboard-response,418,612932,0.0-1.0-81.0-0.0-3.0-0.0,0,0,89885,,,,,,79.0,,,,,,,,,,,,,,,,,,,,,,,,,,,,,,,,97.5,1.0,,
419,,iti,,html-keyboard-response,419,616439,0.0-1.0-81.0-0.0-5.0,0,0,89885,,,,,,,,,,,,,,,,,,,,,,,,,,,,,,,,,,,,,,101.0,3.5,,
420,,choice,,html-keyboard-response,420,616994,0.0-1.0-82.0-0.0-0.0,0,0,89885,,550.0,,,75.0,80.0,82.0,1000.0,3500.0,0.0,2.0,0.0,20-60,,0.0,stool,frame,20.0,60.0,stool14,frame7,40.0,40.0,hjscott-sbs-b-bar-stool.jpg,AFRAME152.jpg,/static/Category_learning/Stimuli/Experimental_stims/stool/hjscott-sbs-b-bar-stool.jpg,/static/Category_learning/Stimuli/Experimental_stims/frame/AFRAME152.jpg,0.0,frame,stool,60.0,20.0,frame7,stool14,40.0,40.0,0.0,101.55,0.55,,
421,,confirmation,,html-keyboard-response,421,617948,0.0-1.0-82.0-0.0-1.0-0.0,0,0,89885,,,,,,80.0,,,,,,,,,,,,,,,,,,,,,,,,,,,,,,,,102.5,0.95,,
422,,isi,,html-keyboard-response,422,618956,0.0-1.0-82.0-0.0-2.0,0,0,89885,,,,,,,,,,,,,,,,,,,,,,,,,,,,,,,,,,,,,,103.5,1.0,,
423,,feedback,,html-keyboard-response,423,619961,0.0-1.0-82.0-0.0-3.0-0.0,0,0,89885,,,,,,80.0,,,,,,,,,,,,,,,,,,,,,,,,,,,,,,,,104.5,1.0,,
424,,iti,,html-keyboard-response,424,623464,0.0-1.0-82.0-0.0-5.0,0,0,89885,,,,,,,,,,,,,,,,,,,,,,,,,,,,,,,,,,,,,,108.0,3.5,,
425,,choice,,html-keyboard-response,425,624105,0.0-1.0-83.0-0.0-0.0,0,0,89885,,635.0,,,75.0,81.0,83.0,3500.0,3000.0,0.0,2.0,0.0,20-60,,0.0,telescope,hammer,20.0,60.0,telescope10,hammer1,40.0,60.0,digimarc.ms02.jpg,fosnaugh.hammer.jpg,/static/Category_learning/Stimuli/Experimental_stims/telescope/digimarc.ms02.jpg,/static/Category_learning/Stimuli/Experimental_stims/hammer/fosnaugh.hammer.jpg,0.0,hammer,telescope,60.0,20.0,hammer1,telescope10,60.0,40.0,0.0,108.635,0.635,,
426,,confirmation,,html-keyboard-response,426,624977,0.0-1.0-83.0-0.0-1.0-0.0,0,0,89885,,,,,,81.0,,,,,,,,,,,,,,,,,,,,,,,,,,,,,,,,109.5,0.865,,
427,,isi,,html-keyboard-response,427,628481,0.0-1.0-83.0-0.0-2.0,0,0,89885,,,,,,,,,,,,,,,,,,,,,,,,,,,,,,,,,,,,,,113.0,3.5,,
428,,feedback,,html-keyboard-response,428,629487,0.0-1.0-83.0-0.0-3.0-0.0,0,0,89885,,,,,,81.0,,,,,,,,,,,,,,,,,,,,,,,,,,,,,,,,114.0,1.0,,
429,,iti,,html-keyboard-response,429,632494,0.0-1.0-83.0-0.0-5.0,0,0,89885,,,,,,,,,,,,,,,,,,,,,,,,,,,,,,,,,,,,,,117.0,3.0,,
430,,choice,,html-keyboard-response,430,633060,0.0-1.0-84.0-0.0-0.0,0,0,89885,,561.0,,,75.0,82.0,84.0,1000.0,1500.0,0.0,2.0,0.0,20-80,,1.0,small table,trumpet,80.0,20.0,small table14,trumpet4,100.0,0.0,Awoodtable13.jpg,JUPITER+JTR1000S.jpg,/static/Category_learning/Stimuli/Experimental_stims/small table/Awoodtable13.jpg,/static/Category_learning/Stimuli/Experimental_stims/trumpet/JUPITER+JTR1000S.jpg,0.0,trumpet,small table,20.0,80.0,trumpet4,small table14,0.0,100.0,0.0,117.561,0.561,,
431,,confirmation,,html-keyboard-response,431,634003,0.0-1.0-84.0-0.0-1.0-0.0,0,0,89885,,,,,,82.0,,,,,,,,,,,,,,,,,,,,,,,,,,,,,,,,118.5,0.939,,
432,,isi,,html-keyboard-response,432,635007,0.0-1.0-84.0-0.0-2.0,0,0,89885,,,,,,,,,,,,,,,,,,,,,,,,,,,,,,,,,,,,,,119.5,1.0,,
433,,feedback,,html-keyboard-response,433,636016,0.0-1.0-84.0-0.0-3.0-0.0,0,0,89885,,,,,,82.0,,,,,,,,,,,,,,,,,,,,,,,,,,,,,,,,120.5,1.0,,
434,,iti,,html-keyboard-response,434,637519,0.0-1.0-84.0-0.0-5.0,0,0,89885,,,,,,,,,,,,,,,,,,,,,,,,,,,,,,,,,,,,,,122.0,1.5,,
435,,choice,,html-keyboard-response,435,638077,0.0-1.0-85.0-0.0-0.0,0,0,89885,,553.0,,,75.0,83.0,85.0,1500.0,3000.0,0.0,2.0,0.0,40-40,,,baby carriage,flashlight,40.0,40.0,baby carriage15,flashlight14,40.0,40.0,AANBABYC2.jpg,freeplay-jonta-flashlight.jpg,/static/Category_learning/Stimuli/Experimental_stims/baby carriage/AANBABYC2.jpg,/static/Category_learning/Stimuli/Experimental_stims/flashlight/freeplay-jonta-flashlight.jpg,0.0,flashlight,baby carriage,40.0,40.0,flashlight14,baby carriage15,40.0,40.0,0.0,122.553,0.553,,
436,,confirmation,,html-keyboard-response,436,639030,0.0-1.0-85.0-0.0-1.0-0.0,0,0,89885,,,,,,83.0,,,,,,,,,,,,,,,,,,,,,,,,,,,,,,,,123.5,0.947,,
437,,isi,,html-keyboard-response,437,640534,0.0-1.0-85.0-0.0-2.0,0,0,89885,,,,,,,,,,,,,,,,,,,,,,,,,,,,,,,,,,,,,,125.0,1.5,,
438,,feedback,,html-keyboard-response,438,641541,0.0-1.0-85.0-0.0-3.0-0.0,0,0,89885,,,,,,83.0,,,,,,,,,,,,,,,,,,,,,,,,,,,,,,,,126.0,1.0,,
439,,iti,,html-keyboard-response,439,644548,0.0-1.0-85.0-0.0-5.0,0,0,89885,,,,,,,,,,,,,,,,,,,,,,,,,,,,,,,,,,,,,,129.0,3.0,,
440,,choice,,html-keyboard-response,440,645144,0.0-1.0-86.0-0.0-0.0,0,0,89885,,592.0,,,75.0,84.0,86.0,2000.0,1000.0,0.0,2.0,1.0,40-40,1.0,,flashlight,flashlight,40.0,40.0,flashlight13,flashlight14,60.0,40.0,834808_sk_lg.jpg,freeplay-jonta-flashlight.jpg,/static/Category_learning/Stimuli/Experimental_stims/flashlight/834808_sk_lg.jpg,/static/Category_learning/Stimuli/Experimental_stims/flashlight/freeplay-jonta-flashlight.jpg,0.0,flashlight,flashlight,40.0,40.0,flashlight14,flashlight13,40.0,60.0,0.0,129.592,0.592,,
441,,confirmation,,html-keyboard-response,441,646060,0.0-1.0-86.0-0.0-1.0-0.0,0,0,89885,,,,,,84.0,,,,,,,,,,,,,,,,,,,,,,,,,,,,,,,,130.5,0.908,,
442,,isi,,html-keyboard-response,442,648068,0.0-1.0-86.0-0.0-2.0,0,0,89885,,,,,,,,,,,,,,,,,,,,,,,,,,,,,,,,,,,,,,132.5,2.0,,
443,,feedback,,html-keyboard-response,443,649072,0.0-1.0-86.0-0.0-3.0-0.0,0,0,89885,,,,,,84.0,,,,,,,,,,,,,,,,,,,,,,,,,,,,,,,,133.5,1.0,,
444,,iti,,html-keyboard-response,444,650080,0.0-1.0-86.0-0.0-5.0,0,0,89885,,,,,,,,,,,,,,,,,,,,,,,,,,,,,,,,,,,,,,134.5,1.0,,
445,,choice,,html-keyboard-response,445,650565,0.0-1.0-87.0-0.0-0.0,0,0,89885,,480.0,,,75.0,85.0,87.0,2000.0,1000.0,0.0,2.0,1.0,60-60,1.0,,hat,hat,60.0,60.0,hat14,hat3,60.0,60.0,Ahat136.jpg,Astrawhat49.jpg,/static/Category_learning/Stimuli/Experimental_stims/hat/Ahat136.jpg,/static/Category_learning/Stimuli/Experimental_stims/hat/Astrawhat49.jpg,0.0,hat,hat,60.0,60.0,hat3,hat14,60.0,60.0,0.0,134.98,0.48,,
446,,confirmation,,html-keyboard-response,446,651592,0.0-1.0-87.0-0.0-1.0-0.0,0,0,89885,,,,,,85.0,,,,,,,,,,,,,,,,,,,,,,,,,,,,,,,,136.0,1.02,,
447,,isi,,html-keyboard-response,447,653601,0.0-1.0-87.0-0.0-2.0,0,0,89885,,,,,,,,,,,,,,,,,,,,,,,,,,,,,,,,,,,,,,138.0,2.0,,
448,,feedback,,html-keyboard-response,448,654608,0.0-1.0-87.0-0.0-3.0-0.0,0,0,89885,,,,,,85.0,,,,,,,,,,,,,,,,,,,,,,,,,,,,,,,,139.0,1.0,,
449,,iti,,html-keyboard-response,449,655615,0.0-1.0-87.0-0.0-5.0,0,0,89885,,,,,,,,,,,,,,,,,,,,,,,,,,,,,,,,,,,,,,140.0,1.0,,
450,,choice,,html-keyboard-response,450,656372,0.0-1.0-88.0-0.0-0.0,0,0,89885,,751.0,,,75.0,86.0,88.0,3000.0,1000.0,0.0,2.0,0.0,40-60,,1.0,motorcycle,baby carriage,60.0,40.0,motorcycle8,baby carriage6,80.0,20.0,Motorcycle903425j2.jpg,Baby_Stroller-1.jpg,/static/Category_learning/Stimuli/Experimental_stims/motorcycle/Motorcycle903425j2.jpg,/static/Category_learning/Stimuli/Experimental_stims/baby carriage/Baby_Stroller-1.jpg,0.0,baby carriage,motorcycle,40.0,60.0,baby carriage6,motorcycle8,20.0,80.0,0.0,140.751,0.751,,
451,,confirmation,,html-keyboard-response,451,657125,0.0-1.0-88.0-0.0-1.0-0.0,0,0,89885,,,,,,86.0,,,,,,,,,,,,,,,,,,,,,,,,,,,,,,,,141.5,0.749,,
452,,isi,,html-keyboard-response,452,660131,0.0-1.0-88.0-0.0-2.0,0,0,89885,,,,,,,,,,,,,,,,,,,,,,,,,,,,,,,,,,,,,,144.5,3.0,,
453,,feedback,,html-keyboard-response,453,661139,0.0-1.0-88.0-0.0-3.0-0.0,0,0,89885,,,,,,86.0,,,,,,,,,,,,,,,,,,,,,,,,,,,,,,,,145.5,1.0,,
454,,iti,,html-keyboard-response,454,662145,0.0-1.0-88.0-0.0-5.0,0,0,89885,,,,,,,,,,,,,,,,,,,,,,,,,,,,,,,,,,,,,,146.5,1.0,,
455,,choice,,html-keyboard-response,455,662852,0.0-1.0-89.0-0.0-0.0,0,0,89885,,701.0,,,75.0,87.0,89.0,1000.0,1500.0,0.0,2.0,0.0,20-80,,1.0,pen,tent,80.0,20.0,pen9,tent4,60.0,20.0,Aredpen3.jpg,Atent12.jpg,/static/Category_learning/Stimuli/Experimental_stims/pen/Aredpen3.jpg,/static/Category_learning/Stimuli/Experimental_stims/tent/Atent12.jpg,0.0,tent,pen,20.0,80.0,tent4,pen9,20.0,60.0,0.0,147.201,0.701,,
456,,confirmation,,html-keyboard-response,456,663659,0.0-1.0-89.0-0.0-1.0-0.0,0,0,89885,,,,,,87.0,,,,,,,,,,,,,,,,,,,,,,,,,,,,,,,,148.0,0.799,,
457,,isi,,html-keyboard-response,457,664664,0.0-1.0-89.0-0.0-2.0,0,0,89885,,,,,,,,,,,,,,,,,,,,,,,,,,,,,,,,,,,,,,149.0,1.0,,
458,,feedback,,html-keyboard-response,458,665668,0.0-1.0-89.0-0.0-3.0-0.0,0,0,89885,,,,,,87.0,,,,,,,,,,,,,,,,,,,,,,,,,,,,,,,,150.0,1.0,,
459,,iti,,html-keyboard-response,459,667172,0.0-1.0-89.0-0.0-5.0,0,0,89885,,,,,,,,,,,,,,,,,,,,,,,,,,,,,,,,,,,,,,151.5,1.5,,
460,,choice,,html-keyboard-response,460,667893,0.0-1.0-90.0-0.0-0.0,0,0,89885,,716.0,,,75.0,88.0,90.0,2000.0,1000.0,0.0,2.0,0.0,20-40,,1.0,bongo,yarn,40.0,20.0,bongo7,yarn6,20.0,20.0,26461075.thl.jpg,edwardian moment hpy sml.jpg,/static/Category_learning/Stimuli/Experimental_stims/bongo/26461075.thl.jpg,/static/Category_learning/Stimuli/Experimental_stims/yarn/edwardian moment hpy sml.jpg,0.0,yarn,bongo,20.0,40.0,yarn6,bongo7,20.0,20.0,0.0,152.216,0.716,,
461,,confirmation,,html-keyboard-response,461,668682,0.0-1.0-90.0-0.0-1.0-0.0,0,0,89885,,,,,,88.0,,,,,,,,,,,,,,,,,,,,,,,,,,,,,,,,153.0,0.784,,
462,,isi,,html-keyboard-response,462,670690,0.0-1.0-90.0-0.0-2.0,0,0,89885,,,,,,,,,,,,,,,,,,,,,,,,,,,,,,,,,,,,,,155.0,2.0,,
463,,feedback,,html-keyboard-response,463,671699,0.0-1.0-90.0-0.0-3.0-0.0,0,0,89885,,,,,,88.0,,,,,,,,,,,,,,,,,,,,,,,,,,,,,,,,156.0,1.0,,
464,,iti,,html-keyboard-response,464,672706,0.0-1.0-90.0-0.0-5.0,0,0,89885,,,,,,,,,,,,,,,,,,,,,,,,,,,,,,,,,,,,,,157.0,1.0,,
465,,choice,,html-keyboard-response,465,673315,0.0-1.0-91.0-0.0-0.0,0,0,89885,,604.0,,,75.0,89.0,91.0,3500.0,1000.0,0.0,2.0,0.0,40-40,,,desk,bongo,40.0,40.0,desk2,bongo15,60.0,40.0,AA Luffield Radial crescent Desk 1600mm x 1200mm.jpg,26390728.thl.jpg,/static/Category_learning/Stimuli/Experimental_stims/desk/AA Luffield Radial crescent Desk 1600mm x 1200mm.jpg,/static/Category_learning/Stimuli/Experimental_stims/bongo/26390728.thl.jpg,0.0,bongo,desk,40.0,40.0,bongo15,desk2,40.0,60.0,0.0,157.604,0.604,,
466,,confirmation,,html-keyboard-response,466,674219,0.0-1.0-91.0-0.0-1.0-0.0,0,0,89885,,,,,,89.0,,,,,,,,,,,,,,,,,,,,,,,,,,,,,,,,158.5,0.896,,
467,,isi,,html-keyboard-response,467,677726,0.0-1.0-91.0-0.0-2.0,0,0,89885,,,,,,,,,,,,,,,,,,,,,,,,,,,,,,,,,,,,,,162.0,3.5,,
468,,feedback,,html-keyboard-response,468,678734,0.0-1.0-91.0-0.0-3.0-0.0,0,0,89885,,,,,,89.0,,,,,,,,,,,,,,,,,,,,,,,,,,,,,,,,163.0,1.0,,
469,,iti,,html-keyboard-response,469,679740,0.0-1.0-91.0-0.0-5.0,0,0,89885,,,,,,,,,,,,,,,,,,,,,,,,,,,,,,,,,,,,,,164.0,1.0,,
470,,choice,,html-keyboard-response,470,680427,0.0-1.0-92.0-0.0-0.0,0,0,89885,,681.0,,,75.0,90.0,92.0,1500.0,1000.0,0.0,2.0,1.0,60-60,1.0,,frame,frame,60.0,60.0,frame10,frame7,80.0,40.0,AFRAME107.jpg,AFRAME152.jpg,/static/Category_learning/Stimuli/Experimental_stims/frame/AFRAME107.jpg,/static/Category_learning/Stimuli/Experimental_stims/frame/AFRAME152.jpg,0.0,frame,frame,60.0,60.0,frame7,frame10,40.0,80.0,0.0,164.681,0.681,,
471,,confirmation,,html-keyboard-response,471,681255,0.0-1.0-92.0-0.0-1.0-0.0,0,0,89885,,,,,,90.0,,,,,,,,,,,,,,,,,,,,,,,,,,,,,,,,165.5,0.819,,
472,,isi,,html-keyboard-response,472,682760,0.0-1.0-92.0-0.0-2.0,0,0,89885,,,,,,,,,,,,,,,,,,,,,,,,,,,,,,,,,,,,,,167.0,1.5,,
473,,feedback,,html-keyboard-response,473,683768,0.0-1.0-92.0-0.0-3.0-0.0,0,0,89885,,,,,,90.0,,,,,,,,,,,,,,,,,,,,,,,,,,,,,,,,168.0,1.0,,
474,,iti,,html-keyboard-response,474,684773,0.0-1.0-92.0-0.0-5.0,0,0,89885,,,,,,,,,,,,,,,,,,,,,,,,,,,,,,,,,,,,,,169.0,1.0,,
475,,choice,,html-keyboard-response,475,685443,0.0-1.0-93.0-0.0-0.0,0,0,89885,,664.0,,,75.0,91.0,93.0,3000.0,2000.0,0.0,2.0,1.0,40-40,1.0,,bongo,bongo,40.0,40.0,bongo15,bongo9,40.0,20.0,26390728.thl.jpg,22946035.thl.jpg,/static/Category_learning/Stimuli/Experimental_stims/bongo/26390728.thl.jpg,/static/Category_learning/Stimuli/Experimental_stims/bongo/22946035.thl.jpg,0.0,bongo,bongo,40.0,40.0,bongo9,bongo15,20.0,40.0,0.0,169.664,0.664,,
476,,confirmation,,html-keyboard-response,476,686288,0.0-1.0-93.0-0.0-1.0-0.0,0,0,89885,,,,,,91.0,,,,,,,,,,,,,,,,,,,,,,,,,,,,,,,,170.5,0.836,,
477,,isi,,html-keyboard-response,477,689295,0.0-1.0-93.0-0.0-2.0,0,0,89885,,,,,,,,,,,,,,,,,,,,,,,,,,,,,,,,,,,,,,173.5,3.0,,
478,,feedback,,html-keyboard-response,478,690304,0.0-1.0-93.0-0.0-3.0-0.0,0,0,89885,,,,,,91.0,,,,,,,,,,,,,,,,,,,,,,,,,,,,,,,,174.5,1.0,,
479,,iti,,html-keyboard-response,479,692310,0.0-1.0-93.0-0.0-5.0,0,0,89885,,,,,,,,,,,,,,,,,,,,,,,,,,,,,,,,,,,,,,176.5,2.0,,
480,,choice,,html-keyboard-response,480,693047,0.0-1.0-94.0-0.0-0.0,0,0,89885,,732.0,,,75.0,92.0,94.0,1500.0,1500.0,0.0,2.0,0.0,40-80,,1.0,poker card,bowl,80.0,40.0,poker card9,bowl15,80.0,60.0,9817230.thl.jpg,Awhitebowl2.jpg,/static/Category_learning/Stimuli/Experimental_stims/poker card/9817230.thl.jpg,/static/Category_learning/Stimuli/Experimental_stims/bowl/Awhitebowl2.jpg,0.0,bowl,poker card,40.0,80.0,bowl15,poker card9,60.0,80.0,0.0,177.232,0.732,,
481,,confirmation,,html-keyboard-response,481,693823,0.0-1.0-94.0-0.0-1.0-0.0,0,0,89885,,,,,,92.0,,,,,,,,,,,,,,,,,,,,,,,,,,,,,,,,178.0,0.768,,
482,,isi,,html-keyboard-response,482,695327,0.0-1.0-94.0-0.0-2.0,0,0,89885,,,,,,,,,,,,,,,,,,,,,,,,,,,,,,,,,,,,,,179.5,1.5,,
483,,feedback,,html-keyboard-response,483,696336,0.0-1.0-94.0-0.0-3.0-0.0,0,0,89885,,,,,,92.0,,,,,,,,,,,,,,,,,,,,,,,,,,,,,,,,180.5,1.0,,
484,,iti,,html-keyboard-response,484,697841,0.0-1.0-94.0-0.0-5.0,0,0,89885,,,,,,,,,,,,,,,,,,,,,,,,,,,,,,,,,,,,,,182.0,1.5,,
485,,choice,,html-keyboard-response,485,698475,0.0-1.0-95.0-0.0-0.0,0,0,89885,,629.0,,,75.0,93.0,95.0,1000.0,1500.0,0.0,2.0,0.0,20-20,,,tape,trumpet,20.0,20.0,tape5,trumpet7,20.0,0.0,910372_sk_lg.jpg,JTP-606MRS.jpg,/static/Category_learning/Stimuli/Experimental_stims/tape/910372_sk_lg.jpg,/static/Category_learning/Stimuli/Experimental_stims/trumpet/JTP-606MRS.jpg,0.0,trumpet,tape,20.0,20.0,trumpet7,tape5,0.0,20.0,0.0,182.629,0.629,,
486,,confirmation,,html-keyboard-response,486,699355,0.0-1.0-95.0-0.0-1.0-0.0,0,0,89885,,,,,,93.0,,,,,,,,,,,,,,,,,,,,,,,,,,,,,,,,183.5,0.871,,
487,,isi,,html-keyboard-response,487,700359,0.0-1.0-95.0-0.0-2.0,0,0,89885,,,,,,,,,,,,,,,,,,,,,,,,,,,,,,,,,,,,,,184.5,1.0,,
488,,feedback,,html-keyboard-response,488,701364,0.0-1.0-95.0-0.0-3.0-0.0,0,0,89885,,,,,,93.0,,,,,,,,,,,,,,,,,,,,,,,,,,,,,,,,185.5,1.0,,
489,,iti,,html-keyboard-response,489,702871,0.0-1.0-95.0-0.0-5.0,0,0,89885,,,,,,,,,,,,,,,,,,,,,,,,,,,,,,,,,,,,,,187.0,1.5,,
490,,choice,,html-keyboard-response,490,703355,0.0-1.0-96.0-0.0-0.0,0,0,89885,,478.0,,,75.0,94.0,96.0,1500.0,1000.0,0.0,2.0,0.0,60-80,,0.0,frame,seashell,60.0,80.0,frame13,seashell2,60.0,60.0,AFRAME115.jpg,ph_stri_seashell.jpg,/static/Category_learning/Stimuli/Experimental_stims/frame/AFRAME115.jpg,/static/Category_learning/Stimuli/Experimental_stims/seashell/ph_stri_seashell.jpg,0.0,seashell,frame,80.0,60.0,seashell2,frame13,60.0,60.0,0.0,187.478,0.478,,
491,,confirmation,,html-keyboard-response,491,704382,0.0-1.0-96.0-0.0-1.0-0.0,0,0,89885,,,,,,94.0,,,,,,,,,,,,,,,,,,,,,,,,,,,,,,,,188.5,1.022,,
492,,isi,,html-keyboard-response,492,705891,0.0-1.0-96.0-0.0-2.0,0,0,89885,,,,,,,,,,,,,,,,,,,,,,,,,,,,,,,,,,,,,,190.0,1.5,,
493,,feedback,,html-keyboard-response,493,706899,0.0-1.0-96.0-0.0-3.0-0.0,0,0,89885,,,,,,94.0,,,,,,,,,,,,,,,,,,,,,,,,,,,,,,,,191.0,1.0,,
494,,iti,,html-keyboard-response,494,707907,0.0-1.0-96.0-0.0-5.0,0,0,89885,,,,,,,,,,,,,,,,,,,,,,,,,,,,,,,,,,,,,,192.0,1.0,,
495,,choice,,html-keyboard-response,495,708528,0.0-1.0-97.0-0.0-0.0,0,0,89885,,614.0,,,75.0,95.0,97.0,1500.0,1000.0,0.0,2.0,1.0,20-20,1.0,,trumpet,trumpet,20.0,20.0,trumpet7,trumpet4,0.0,0.0,JTP-606MRS.jpg,JUPITER+JTR1000S.jpg,/static/Category_learning/Stimuli/Experimental_stims/trumpet/JTP-606MRS.jpg,/static/Category_learning/Stimuli/Experimental_stims/trumpet/JUPITER+JTR1000S.jpg,0.0,trumpet,trumpet,20.0,20.0,trumpet4,trumpet7,0.0,0.0,0.0,192.614,0.614,,
496,,confirmation,,html-keyboard-response,496,709420,0.0-1.0-97.0-0.0-1.0-0.0,0,0,89885,,,,,,95.0,,,,,,,,,,,,,,,,,,,,,,,,,,,,,,,,193.5,0.886,,
497,,isi,,html-keyboard-response,497,710925,0.0-1.0-97.0-0.0-2.0,0,0,89885,,,,,,,,,,,,,,,,,,,,,,,,,,,,,,,,,,,,,,195.0,1.5,,
498,,feedback,,html-keyboard-response,498,711933,0.0-1.0-97.0-0.0-3.0-0.0,0,0,89885,,,,,,95.0,,,,,,,,,,,,,,,,,,,,,,,,,,,,,,,,196.0,1.0,,
499,,iti,,html-keyboard-response,499,712939,0.0-1.0-97.0-0.0-5.0,0,0,89885,,,,,,,,,,,,,,,,,,,,,,,,,,,,,,,,,,,,,,197.0,1.0,,
