,success,ttype,start_time,trial_type,trial_index,time_elapsed,internal_node_id,warning,missed_checkup,PID,view_history,rt,responses,repeat_instructions,key_press,index,trial_num,isi,iti,is_practice,block,old_trial,pair_type,within_category,high_cat_on_left,left_category,right_category,left_category_value,right_category_value,left_exemplar,right_exemplar,left_exemplar_value,right_exemplar_value,left_img,right_img,left_img_path,right_img_path,left_chosen,chosen_category,unchosen_category,chosen_category_value,unchosen_category_value,chosen_exemplar,unchosen_exemplar,chosen_exemplar_value,unchosen_exemplar_value,no_response,onset,duration,end_practice,total_bonus_tally,category,category_group_value,category_value_response,did_not_enter_response
0,True,full_screen,d06152022hr2116,fullscreen,0,2716,0.0-0.0,0,0,99,,,,,,,,,,,,,,,,,,,,,,,,,,,,,,,,,,,,,,,,,,,,,
1,,category_learning_instructions,,instructions,1,6399,0.0-1.0-0.0-0.0,0,0,99,"[{""page_index"":0,""viewing_time"":1997},{""page_index"":1,""viewing_time"":146},{""page_index"":2,""viewing_time"":154},{""page_index"":3,""viewing_time"":161},{""page_index"":4,""viewing_time"":162},{""page_index"":5,""viewing_time"":582},{""page_index"":6,""viewing_time"":477}]",3680.0,,,,,,,,,,,,,,,,,,,,,,,,,,,,,,,,,,,,,,,,,,,
2,,category_learning_comprehension_check,,survey-multi-choice,2,12648,0.0-1.0-0.0-1.0,0,0,99,,6244.0,"{""Q0"":""True"",""Q1"":""True"",""Q2"":""Stay the same"",""Q3"":""pointer finger for left and middle finger for right""}",0.0,,,,,,,,,,,,,,,,,,,,,,,,,,,,,,,,,,,,,,,,,
3,,,,html-keyboard-response,3,14632,0.0-1.0-1.0,0,0,99,,1978.0,,,83.0,,,,,,,,,,,,,,,,,,,,,,,,,,,,,,,,,,,,,,,,
4,,choice,,html-keyboard-response,4,15576,0.0-1.0-2.0-0.0-0.0,0,0,99,,940.0,,,51.0,0.0,0.0,1500.0,1000.0,1.0,0.0,0.0,20-80,,0.0,bagel,dumbbell,20.0,80.0,bagel1,dumbbell1,0.0,80.0,bagels_pumpernickel_large.jpg,31B64EN68AL._AA280_.jpg,/static/Category_learning/Stimuli/Practice_stims/bagel/bagels_pumpernickel_large.jpg,/static/Category_learning/Stimuli/Practice_stims/dumbbell/31B64EN68AL._AA280_.jpg,0.0,dumbbell,bagel,80.0,20.0,dumbbell1,bagel1,80.0,0.0,0.0,0.0,0.94,,,,,,
5,,confirmation,,html-keyboard-response,5,16141,0.0-1.0-2.0-0.0-1.0-0.0,0,0,99,,,,,,0.0,,,,,0.0,,,,,,,,,,,,,,,,,,,,,,,,,,,0.94,0.56,,,,,,
6,,isi,,html-keyboard-response,6,17649,0.0-1.0-2.0-0.0-2.0,0,0,99,,,,,,0.0,,,,,0.0,,,,,,,,,,,,,,,,,,,,,,,,,,,1.5,1.5,,,,,,
7,,feedback,,html-keyboard-response,7,18655,0.0-1.0-2.0-0.0-3.0-0.0,0,0,99,,,,,,0.0,,,,,0.0,,,,,,,,,,,,,,,,,,,,,,,,,,,3.0,1.0,,,,,,
8,,iti,,html-keyboard-response,8,19659,0.0-1.0-2.0-0.0-5.0,0,0,99,,,,,,0.0,,,,,0.0,,,,,,,,,,,,,,,,,,,,,,,,,,,4.0,1.0,,,,,,
9,,choice,,html-keyboard-response,9,20744,0.0-1.0-3.0-0.0-0.0,0,0,99,,1082.0,,,51.0,1.0,1.0,3000.0,1500.0,1.0,0.0,0.0,20-40,,1.0,calculator,bagel,40.0,20.0,calculator2,bagel2,20.0,20.0,22829064.thl.jpg,bagels_cinnraisin_large.jpg,/static/Category_learning/Stimuli/Practice_stims/calculator/22829064.thl.jpg,/static/Category_learning/Stimuli/Practice_stims/bagel/bagels_cinnraisin_large.jpg,0.0,bagel,calculator,20.0,40.0,bagel2,calculator2,20.0,20.0,0.0,5.0,1.082,,,,,,
10,,confirmation,,html-keyboard-response,10,21166,0.0-1.0-3.0-0.0-1.0-0.0,0,0,99,,,,,,1.0,,,,,0.0,,,,,,,,,,,,,,,,,,,,,,,,,,,6.082,0.418,,,,,,
11,,isi,,html-keyboard-response,11,24170,0.0-1.0-3.0-0.0-2.0,0,0,99,,,,,,1.0,,,,,0.0,,,,,,,,,,,,,,,,,,,,,,,,,,,6.5,3.0,,,,,,
12,,feedback,,html-keyboard-response,12,25177,0.0-1.0-3.0-0.0-3.0-0.0,0,0,99,,,,,,1.0,,,,,0.0,,,,,,,,,,,,,,,,,,,,,,,,,,,9.5,1.0,,,,,,
13,,iti,,html-keyboard-response,13,26680,0.0-1.0-3.0-0.0-5.0,0,0,99,,,,,,1.0,,,,,0.0,,,,,,,,,,,,,,,,,,,,,,,,,,,10.5,1.5,,,,,,
14,,choice,,html-keyboard-response,14,27548,0.0-1.0-4.0-0.0-0.0,0,0,99,,864.0,,,51.0,2.0,2.0,2000.0,3000.0,1.0,0.0,0.0,60-80,,0.0,clock,dumbbell,60.0,80.0,clock2,dumbbell2,60.0,100.0,26373355.thl.jpg,31K8MR6TMBL._SS500_.jpg,/static/Category_learning/Stimuli/Practice_stims/clock/26373355.thl.jpg,/static/Category_learning/Stimuli/Practice_stims/dumbbell/31K8MR6TMBL._SS500_.jpg,0.0,dumbbell,clock,80.0,60.0,dumbbell2,clock2,100.0,60.0,0.0,12.0,0.864,,,,,,
15,,confirmation,,html-keyboard-response,15,28186,0.0-1.0-4.0-0.0-1.0-0.0,0,0,99,,,,,,2.0,,,,,0.0,,,,,,,,,,,,,,,,,,,,,,,,,,,12.864,0.636,,,,,,
16,,isi,,html-keyboard-response,16,30193,0.0-1.0-4.0-0.0-2.0,0,0,99,,,,,,2.0,,,,,0.0,,,,,,,,,,,,,,,,,,,,,,,,,,,13.5,2.0,,,,,,
17,,feedback,,html-keyboard-response,17,31197,0.0-1.0-4.0-0.0-3.0-0.0,0,0,99,,,,,,2.0,,,,,0.0,,,,,,,,,,,,,,,,,,,,,,,,,,,15.5,1.0,,,,,,
18,,iti,,html-keyboard-response,18,34202,0.0-1.0-4.0-0.0-5.0,0,0,99,,,,,,2.0,,,,,0.0,,,,,,,,,,,,,,,,,,,,,,,,,,,16.5,3.0,,,,,,
19,,choice,,html-keyboard-response,19,35531,0.0-1.0-5.0-0.0-0.0,0,0,99,,1326.0,,,50.0,3.0,3.0,1000.0,2000.0,1.0,0.0,0.0,40-80,,0.0,calculator,clock,40.0,60.0,calculator1,clock1,40.0,40.0,22829184.thl.jpg,Aalarmclock2.jpg,/static/Category_learning/Stimuli/Practice_stims/calculator/22829184.thl.jpg,/static/Category_learning/Stimuli/Practice_stims/clock/Aalarmclock2.jpg,1.0,calculator,clock,40.0,60.0,calculator1,clock1,40.0,40.0,0.0,19.5,1.326,,,,,,
20,,confirmation,,html-keyboard-response,20,35710,0.0-1.0-5.0-0.0-1.0-0.0,0,0,99,,,,,,3.0,,,,,0.0,,,,,,,,,,,,,,,,,,,,,,,,,,,20.826,0.174,,,,,,
21,,isi,,html-keyboard-response,21,36717,0.0-1.0-5.0-0.0-2.0,0,0,99,,,,,,3.0,,,,,0.0,,,,,,,,,,,,,,,,,,,,,,,,,,,21.0,1.0,,,,,,
22,,feedback,,html-keyboard-response,22,37726,0.0-1.0-5.0-0.0-3.0-0.0,0,0,99,,,,,,3.0,,,,,0.0,,,,,,,,,,,,,,,,,,,,,,,,,,,22.0,1.0,,,,,,
23,,iti,,html-keyboard-response,23,39734,0.0-1.0-5.0-0.0-5.0,0,0,99,,,,,,3.0,,,,,0.0,,,,,,,,,,,,,,,,,,,,,,,,,,,23.0,2.0,,,,,,
24,,choice,,html-keyboard-response,24,40491,0.0-1.0-6.0-0.0-0.0,0,0,99,,754.0,,,50.0,4.0,4.0,2500.0,2500.0,1.0,0.0,0.0,20-60,,1.0,dumbbell,bagel,80.0,20.0,dumbbell3,bagel3,100.0,40.0,41K7QVRX50L._SS500_.jpg,photo-169.jpg,/static/Category_learning/Stimuli/Practice_stims/dumbbell/41K7QVRX50L._SS500_.jpg,/static/Category_learning/Stimuli/Practice_stims/bagel/photo-169.jpg,1.0,dumbbell,bagel,80.0,20.0,dumbbell3,bagel3,100.0,40.0,0.0,25.0,0.754,1.0,,,,,
25,,confirmation,,html-keyboard-response,25,41240,0.0-1.0-6.0-0.0-1.0-0.0,0,0,99,,,,,,4.0,,,,,0.0,,,,,,,,,,,,,,,,,,,,,,,,,,,25.754,0.746,,,,,,
26,,isi,,html-keyboard-response,26,43748,0.0-1.0-6.0-0.0-2.0,0,0,99,,,,,,4.0,,,,,0.0,,,,,,,,,,,,,,,,,,,,,,,,,,,26.5,2.5,,,,,,
27,,feedback,,html-keyboard-response,27,44756,0.0-1.0-6.0-0.0-3.0-0.0,0,0,99,,,,,,4.0,,,,,0.0,,,,,,,,,,,,,,,,,,,,,,,,,,,29.0,1.0,,,,,,
28,,iti,,html-keyboard-response,28,47258,0.0-1.0-6.0-0.0-5.0,0,0,99,,,,,,4.0,,,,,0.0,,,,,,,,,,,,,,,,,,,,,,,,,,,30.0,2.5,,,,,,
29,,practice_over,,html-keyboard-response,29,60184,0.0-1.0-6.0-0.0-6.0-0.0,0,0,99,,12923.0,,,83.0,4.0,,,,,,,,,,,,,,,,,,,,,,,,,,,,,,,,,,,,,,,
30,,start_run,,html-keyboard-response,30,131455,0.0-1.0-6.0-0.0-6.0-1.0,0,0,99,,71269.0,,,84.0,,,,,,,,,,,,,,,,,,,,,,,,,,,,,,,,,,,,,,,,
31,,choice,,html-keyboard-response,31,132425,0.0-1.0-7.0-0.0-0.0,0,0,99,,965.0,,,50.0,5.0,5.0,2000.0,2000.0,0.0,1.0,0.0,40-80,,1.0,desk,patio lounge chair,80.0,40.0,desk1,patio lounge chair15,100.0,40.0,ADESK11.jpg,phpThumb.jpg,/static/Category_learning/Stimuli/Experimental_stims/desk/ADESK11.jpg,/static/Category_learning/Stimuli/Experimental_stims/patio lounge chair/phpThumb.jpg,1.0,desk,patio lounge chair,80.0,40.0,desk1,patio lounge chair15,100.0,40.0,0.0,0.0,0.965,,,,,,
32,,confirmation,,html-keyboard-response,32,132964,0.0-1.0-7.0-0.0-1.0-0.0,0,0,99,,,,,,5.0,,,,,1.0,,,,,,,,,,,,,,,,,,,,,,,,,,,0.965,0.535,,,,,,
33,,isi,,html-keyboard-response,33,134967,0.0-1.0-7.0-0.0-2.0,0,0,99,,,,,,5.0,,,,,1.0,,,,,,,,,,,,,,,,,,,,,,,,,,,1.5,2.0,,,,,,
34,,feedback,,html-keyboard-response,34,135972,0.0-1.0-7.0-0.0-3.0-0.0,0,0,99,,,,,,5.0,,,,,1.0,,,,,,,,,,,,,,,,,,,,,,,,,,,3.5,1.0,,,,,,
35,,iti,,html-keyboard-response,35,137980,0.0-1.0-7.0-0.0-5.0,0,0,99,,,,,,5.0,,,,,1.0,,,,,,,,,,,,,,,,,,,,,,,,,,,4.5,2.0,,,,,,
36,,choice,,html-keyboard-response,36,138911,0.0-1.0-8.0-0.0-0.0,0,0,99,,927.0,,,51.0,6.0,6.0,3000.0,1500.0,0.0,1.0,0.0,40-60,,0.0,poker card,tent,40.0,60.0,poker card12,tent9,20.0,60.0,22865676.thl.jpg,Red Canyon Tent.jpg,/static/Category_learning/Stimuli/Experimental_stims/poker card/22865676.thl.jpg,/static/Category_learning/Stimuli/Experimental_stims/tent/Red Canyon Tent.jpg,0.0,tent,poker card,60.0,40.0,tent9,poker card12,60.0,20.0,0.0,6.5,0.927,,,,,,
37,,confirmation,,html-keyboard-response,37,139488,0.0-1.0-8.0-0.0-1.0-0.0,0,0,99,,,,,,6.0,,,,,1.0,,,,,,,,,,,,,,,,,,,,,,,,,,,7.427,0.573,,,,,,
38,,isi,,html-keyboard-response,38,142491,0.0-1.0-8.0-0.0-2.0,0,0,99,,,,,,6.0,,,,,1.0,,,,,,,,,,,,,,,,,,,,,,,,,,,8.0,3.0,,,,,,
39,,feedback,,html-keyboard-response,39,143497,0.0-1.0-8.0-0.0-3.0-0.0,0,0,99,,,,,,6.0,,,,,1.0,,,,,,,,,,,,,,,,,,,,,,,,,,,11.0,1.0,,,,,,
40,,iti,,html-keyboard-response,40,145000,0.0-1.0-8.0-0.0-5.0,0,0,99,,,,,,6.0,,,,,1.0,,,,,,,,,,,,,,,,,,,,,,,,,,,12.0,1.5,,,,,,
41,,choice,,html-keyboard-response,41,145826,0.0-1.0-9.0-0.0-0.0,0,0,99,,821.0,,,51.0,7.0,7.0,2000.0,1000.0,0.0,1.0,0.0,40-60,,0.0,pen,tent,40.0,60.0,pen6,tent6,20.0,80.0,executive_pen2.jpg,lighthouse_tent_edited_1-1.jpg,/static/Category_learning/Stimuli/Experimental_stims/pen/executive_pen2.jpg,/static/Category_learning/Stimuli/Experimental_stims/tent/lighthouse_tent_edited_1-1.jpg,0.0,tent,pen,60.0,40.0,tent6,pen6,80.0,20.0,0.0,13.5,0.821,,,,,,
42,,confirmation,,html-keyboard-response,42,146508,0.0-1.0-9.0-0.0-1.0-0.0,0,0,99,,,,,,7.0,,,,,1.0,,,,,,,,,,,,,,,,,,,,,,,,,,,14.321,0.679,,,,,,
43,,isi,,html-keyboard-response,43,148516,0.0-1.0-9.0-0.0-2.0,0,0,99,,,,,,7.0,,,,,1.0,,,,,,,,,,,,,,,,,,,,,,,,,,,15.0,2.0,,,,,,
44,,feedback,,html-keyboard-response,44,149523,0.0-1.0-9.0-0.0-3.0-0.0,0,0,99,,,,,,7.0,,,,,1.0,,,,,,,,,,,,,,,,,,,,,,,,,,,17.0,1.0,,,,,,
45,,iti,,html-keyboard-response,45,150528,0.0-1.0-9.0-0.0-5.0,0,0,99,,,,,,7.0,,,,,1.0,,,,,,,,,,,,,,,,,,,,,,,,,,,18.0,1.0,,,,,,
46,,choice,,html-keyboard-response,46,151276,0.0-1.0-10.0-0.0-0.0,0,0,99,,743.0,,,50.0,8.0,8.0,1000.0,1000.0,0.0,1.0,0.0,20-60,,1.0,tent,lipstick,60.0,20.0,tent14,lipstick5,60.0,0.0,inflatable-tent.jpg,P35719_hero.jpg,/static/Category_learning/Stimuli/Experimental_stims/tent/inflatable-tent.jpg,/static/Category_learning/Stimuli/Experimental_stims/lipstick/P35719_hero.jpg,1.0,tent,lipstick,60.0,20.0,tent14,lipstick5,60.0,0.0,0.0,19.0,0.743,,,,,,
47,,confirmation,,html-keyboard-response,47,152036,0.0-1.0-10.0-0.0-1.0-0.0,0,0,99,,,,,,8.0,,,,,1.0,,,,,,,,,,,,,,,,,,,,,,,,,,,19.743,0.757,,,,,,
48,,isi,,html-keyboard-response,48,153041,0.0-1.0-10.0-0.0-2.0,0,0,99,,,,,,8.0,,,,,1.0,,,,,,,,,,,,,,,,,,,,,,,,,,,20.5,1.0,,,,,,
49,,feedback,,html-keyboard-response,49,154045,0.0-1.0-10.0-0.0-3.0-0.0,0,0,99,,,,,,8.0,,,,,1.0,,,,,,,,,,,,,,,,,,,,,,,,,,,21.5,1.0,,,,,,
50,,iti,,html-keyboard-response,50,155052,0.0-1.0-10.0-0.0-5.0,0,0,99,,,,,,8.0,,,,,1.0,,,,,,,,,,,,,,,,,,,,,,,,,,,22.5,1.0,,,,,,
51,,choice,,html-keyboard-response,51,156041,0.0-1.0-11.0-0.0-0.0,0,0,99,,986.0,,,50.0,9.0,9.0,1000.0,1000.0,0.0,1.0,0.0,20-60,,1.0,watch,frame,60.0,20.0,watch8,frame6,60.0,40.0,2239.jpg,AFRAME123.jpg,/static/Category_learning/Stimuli/Experimental_stims/watch/2239.jpg,/static/Category_learning/Stimuli/Experimental_stims/frame/AFRAME123.jpg,1.0,watch,frame,60.0,20.0,watch8,frame6,60.0,40.0,0.0,23.5,0.986,,,,,,
52,,confirmation,,html-keyboard-response,52,156559,0.0-1.0-11.0-0.0-1.0-0.0,0,0,99,,,,,,9.0,,,,,1.0,,,,,,,,,,,,,,,,,,,,,,,,,,,24.486,0.514,,,,,,
53,,isi,,html-keyboard-response,53,157567,0.0-1.0-11.0-0.0-2.0,0,0,99,,,,,,9.0,,,,,1.0,,,,,,,,,,,,,,,,,,,,,,,,,,,25.0,1.0,,,,,,
54,,feedback,,html-keyboard-response,54,158574,0.0-1.0-11.0-0.0-3.0-0.0,0,0,99,,,,,,9.0,,,,,1.0,,,,,,,,,,,,,,,,,,,,,,,,,,,26.0,1.0,,,,,,
55,,iti,,html-keyboard-response,55,159580,0.0-1.0-11.0-0.0-5.0,0,0,99,,,,,,9.0,,,,,1.0,,,,,,,,,,,,,,,,,,,,,,,,,,,27.0,1.0,,,,,,
56,,choice,,html-keyboard-response,56,160549,0.0-1.0-12.0-0.0-0.0,0,0,99,,964.0,,,51.0,10.0,10.0,3000.0,2000.0,0.0,1.0,1.0,60-60,1.0,,tent,tent,60.0,60.0,tent6,tent14,80.0,60.0,lighthouse_tent_edited_1-1.jpg,inflatable-tent.jpg,/static/Category_learning/Stimuli/Experimental_stims/tent/lighthouse_tent_edited_1-1.jpg,/static/Category_learning/Stimuli/Experimental_stims/tent/inflatable-tent.jpg,0.0,tent,tent,60.0,60.0,tent14,tent6,60.0,80.0,0.0,28.0,0.964,,,,,,
57,,confirmation,,html-keyboard-response,57,161088,0.0-1.0-12.0-0.0-1.0-0.0,0,0,99,,,,,,10.0,,,,,1.0,,,,,,,,,,,,,,,,,,,,,,,,,,,28.964,0.536,,,,,,
58,,isi,,html-keyboard-response,58,164094,0.0-1.0-12.0-0.0-2.0,0,0,99,,,,,,10.0,,,,,1.0,,,,,,,,,,,,,,,,,,,,,,,,,,,29.5,3.0,,,,,,
59,,feedback,,html-keyboard-response,59,165098,0.0-1.0-12.0-0.0-3.0-0.0,0,0,99,,,,,,10.0,,,,,1.0,,,,,,,,,,,,,,,,,,,,,,,,,,,32.5,1.0,,,,,,
60,,iti,,html-keyboard-response,60,167102,0.0-1.0-12.0-0.0-5.0,0,0,99,,,,,,10.0,,,,,1.0,,,,,,,,,,,,,,,,,,,,,,,,,,,33.5,2.0,,,,,,
61,,choice,,html-keyboard-response,61,168259,0.0-1.0-13.0-0.0-0.0,0,0,99,,1153.0,,,50.0,11.0,11.0,1000.0,2000.0,0.0,1.0,0.0,40-60,,1.0,tape,nail polish,60.0,40.0,tape12,nail polish5,60.0,40.0,Frog-Tape-Dispenser_F02218A2.jpg,182_t.jpg,/static/Category_learning/Stimuli/Experimental_stims/tape/Frog-Tape-Dispenser_F02218A2.jpg,/static/Category_learning/Stimuli/Experimental_stims/nail polish/182_t.jpg,1.0,tape,nail polish,60.0,40.0,tape12,nail polish5,60.0,40.0,0.0,35.5,1.153,,,,,,
62,,confirmation,,html-keyboard-response,62,168609,0.0-1.0-13.0-0.0-1.0-0.0,0,0,99,,,,,,11.0,,,,,1.0,,,,,,,,,,,,,,,,,,,,,,,,,,,36.653,0.347,,,,,,
63,,isi,,html-keyboard-response,63,169617,0.0-1.0-13.0-0.0-2.0,0,0,99,,,,,,11.0,,,,,1.0,,,,,,,,,,,,,,,,,,,,,,,,,,,37.0,1.0,,,,,,
64,,feedback,,html-keyboard-response,64,170624,0.0-1.0-13.0-0.0-3.0-0.0,0,0,99,,,,,,11.0,,,,,1.0,,,,,,,,,,,,,,,,,,,,,,,,,,,38.0,1.0,,,,,,
65,,iti,,html-keyboard-response,65,172628,0.0-1.0-13.0-0.0-5.0,0,0,99,,,,,,11.0,,,,,1.0,,,,,,,,,,,,,,,,,,,,,,,,,,,39.0,2.0,,,,,,
66,,choice,,html-keyboard-response,66,173865,0.0-1.0-14.0-0.0-0.0,0,0,99,,1233.0,,,50.0,12.0,12.0,3500.0,1500.0,0.0,1.0,0.0,20-60,,1.0,tape,makeup compact,60.0,20.0,tape7,makeup compact6,60.0,40.0,tape dispenser.jpg,P0754_hero.jpg,/static/Category_learning/Stimuli/Experimental_stims/tape/tape dispenser.jpg,/static/Category_learning/Stimuli/Experimental_stims/makeup compact/P0754_hero.jpg,1.0,tape,makeup compact,60.0,20.0,tape7,makeup compact6,60.0,40.0,0.0,41.0,1.233,,,,,,
67,,confirmation,,html-keyboard-response,67,174136,0.0-1.0-14.0-0.0-1.0-0.0,0,0,99,,,,,,12.0,,,,,1.0,,,,,,,,,,,,,,,,,,,,,,,,,,,42.233,0.267,,,,,,
68,,isi,,html-keyboard-response,68,177645,0.0-1.0-14.0-0.0-2.0,0,0,99,,,,,,12.0,,,,,1.0,,,,,,,,,,,,,,,,,,,,,,,,,,,42.5,3.5,,,,,,
69,,feedback,,html-keyboard-response,69,178653,0.0-1.0-14.0-0.0-3.0-0.0,0,0,99,,,,,,12.0,,,,,1.0,,,,,,,,,,,,,,,,,,,,,,,,,,,46.0,1.0,,,,,,
70,,iti,,html-keyboard-response,70,180158,0.0-1.0-14.0-0.0-5.0,0,0,99,,,,,,12.0,,,,,1.0,,,,,,,,,,,,,,,,,,,,,,,,,,,47.0,1.5,,,,,,
71,,choice,,html-keyboard-response,71,181229,0.0-1.0-15.0-0.0-0.0,0,0,99,,1067.0,,,51.0,13.0,13.0,2000.0,1500.0,0.0,1.0,0.0,20-80,,1.0,bowl,microscope,80.0,20.0,bowl3,microscope15,60.0,40.0,ABOWL8.jpg,Amicroscope23.jpg,/static/Category_learning/Stimuli/Experimental_stims/bowl/ABOWL8.jpg,/static/Category_learning/Stimuli/Experimental_stims/microscope/Amicroscope23.jpg,0.0,microscope,bowl,20.0,80.0,microscope15,bowl3,40.0,60.0,0.0,48.5,1.067,,,,,,
72,,confirmation,,html-keyboard-response,72,181666,0.0-1.0-15.0-0.0-1.0-0.0,0,0,99,,,,,,13.0,,,,,1.0,,,,,,,,,,,,,,,,,,,,,,,,,,,49.567,0.433,,,,,,
73,,isi,,html-keyboard-response,73,183671,0.0-1.0-15.0-0.0-2.0,0,0,99,,,,,,13.0,,,,,1.0,,,,,,,,,,,,,,,,,,,,,,,,,,,50.0,2.0,,,,,,
74,,feedback,,html-keyboard-response,74,184676,0.0-1.0-15.0-0.0-3.0-0.0,0,0,99,,,,,,13.0,,,,,1.0,,,,,,,,,,,,,,,,,,,,,,,,,,,52.0,1.0,,,,,,
75,,iti,,html-keyboard-response,75,186183,0.0-1.0-15.0-0.0-5.0,0,0,99,,,,,,13.0,,,,,1.0,,,,,,,,,,,,,,,,,,,,,,,,,,,53.0,1.5,,,,,,
76,,choice,,html-keyboard-response,76,187537,0.0-1.0-16.0-0.0-0.0,0,0,99,,1350.0,,,51.0,14.0,14.0,1000.0,2000.0,0.0,1.0,0.0,40-80,,1.0,door knob,necklace,80.0,40.0,door knob10,necklace14,80.0,20.0,c02a578d-c6cc-44ca-8dd2-de8901e30bd7_4.jpg,necklascenew05.jpg,/static/Category_learning/Stimuli/Experimental_stims/door knob/c02a578d-c6cc-44ca-8dd2-de8901e30bd7_4.jpg,/static/Category_learning/Stimuli/Experimental_stims/necklace/necklascenew05.jpg,0.0,necklace,door knob,40.0,80.0,necklace14,door knob10,20.0,80.0,0.0,54.5,1.35,,,,,,
77,,confirmation,,html-keyboard-response,77,187690,0.0-1.0-16.0-0.0-1.0-0.0,0,0,99,,,,,,14.0,,,,,1.0,,,,,,,,,,,,,,,,,,,,,,,,,,,55.85,0.15,,,,,,
78,,isi,,html-keyboard-response,78,188693,0.0-1.0-16.0-0.0-2.0,0,0,99,,,,,,14.0,,,,,1.0,,,,,,,,,,,,,,,,,,,,,,,,,,,56.0,1.0,,,,,,
79,,feedback,,html-keyboard-response,79,189697,0.0-1.0-16.0-0.0-3.0-0.0,0,0,99,,,,,,14.0,,,,,1.0,,,,,,,,,,,,,,,,,,,,,,,,,,,57.0,1.0,,,,,,
80,,iti,,html-keyboard-response,80,191700,0.0-1.0-16.0-0.0-5.0,0,0,99,,,,,,14.0,,,,,1.0,,,,,,,,,,,,,,,,,,,,,,,,,,,58.0,2.0,,,,,,
81,,choice,,html-keyboard-response,81,192438,0.0-1.0-17.0-0.0-0.0,0,0,99,,734.0,,,50.0,15.0,15.0,1000.0,1500.0,0.0,1.0,0.0,20-40,,0.0,motorcycle,sofa,20.0,40.0,motorcycle10,sofa5,20.0,60.0,motorcycle17.jpg,ALOVSEA14.jpg,/static/Category_learning/Stimuli/Experimental_stims/motorcycle/motorcycle17.jpg,/static/Category_learning/Stimuli/Experimental_stims/sofa/ALOVSEA14.jpg,1.0,motorcycle,sofa,20.0,40.0,motorcycle10,sofa5,20.0,60.0,0.0,60.0,0.734,,,,,,
82,,confirmation,,html-keyboard-response,82,193210,0.0-1.0-17.0-0.0-1.0-0.0,0,0,99,,,,,,15.0,,,,,1.0,,,,,,,,,,,,,,,,,,,,,,,,,,,60.734,0.766,,,,,,
83,,isi,,html-keyboard-response,83,194214,0.0-1.0-17.0-0.0-2.0,0,0,99,,,,,,15.0,,,,,1.0,,,,,,,,,,,,,,,,,,,,,,,,,,,61.5,1.0,,,,,,
84,,feedback,,html-keyboard-response,84,195221,0.0-1.0-17.0-0.0-3.0-0.0,0,0,99,,,,,,15.0,,,,,1.0,,,,,,,,,,,,,,,,,,,,,,,,,,,62.5,1.0,,,,,,
85,,iti,,html-keyboard-response,85,196725,0.0-1.0-17.0-0.0-5.0,0,0,99,,,,,,15.0,,,,,1.0,,,,,,,,,,,,,,,,,,,,,,,,,,,63.5,1.5,,,,,,
86,,choice,,html-keyboard-response,86,197559,0.0-1.0-18.0-0.0-0.0,0,0,99,,830.0,,,50.0,16.0,16.0,1000.0,3000.0,0.0,1.0,0.0,60-60,,,telescope,yarn,60.0,60.0,telescope6,yarn15,80.0,80.0,LO-telescope-89769.jpg,rainbowscarf-600x394.jpg,/static/Category_learning/Stimuli/Experimental_stims/telescope/LO-telescope-89769.jpg,/static/Category_learning/Stimuli/Experimental_stims/yarn/rainbowscarf-600x394.jpg,1.0,telescope,yarn,60.0,60.0,telescope6,yarn15,80.0,80.0,0.0,65.0,0.83,,,,,,
87,,confirmation,,html-keyboard-response,87,198234,0.0-1.0-18.0-0.0-1.0-0.0,0,0,99,,,,,,16.0,,,,,1.0,,,,,,,,,,,,,,,,,,,,,,,,,,,65.83,0.67,,,,,,
88,,isi,,html-keyboard-response,88,199240,0.0-1.0-18.0-0.0-2.0,0,0,99,,,,,,16.0,,,,,1.0,,,,,,,,,,,,,,,,,,,,,,,,,,,66.5,1.0,,,,,,
89,,feedback,,html-keyboard-response,89,200247,0.0-1.0-18.0-0.0-3.0-0.0,0,0,99,,,,,,16.0,,,,,1.0,,,,,,,,,,,,,,,,,,,,,,,,,,,67.5,1.0,,,,,,
90,,iti,,html-keyboard-response,90,203256,0.0-1.0-18.0-0.0-5.0,0,0,99,,,,,,16.0,,,,,1.0,,,,,,,,,,,,,,,,,,,,,,,,,,,68.5,3.0,,,,,,
91,,choice,,html-keyboard-response,91,204400,0.0-1.0-19.0-0.0-0.0,0,0,99,,1141.0,,,50.0,17.0,17.0,1500.0,2000.0,0.0,1.0,0.0,20-20,,,license plate,makeup compact,20.0,20.0,license plate10,makeup compact7,40.0,0.0,pa-nfn-011.jpg,P187133_hero.jpg,/static/Category_learning/Stimuli/Experimental_stims/license plate/pa-nfn-011.jpg,/static/Category_learning/Stimuli/Experimental_stims/makeup compact/P187133_hero.jpg,1.0,license plate,makeup compact,20.0,20.0,license plate10,makeup compact7,40.0,0.0,0.0,71.5,1.141,,,,,,
92,,confirmation,,html-keyboard-response,92,204765,0.0-1.0-19.0-0.0-1.0-0.0,0,0,99,,,,,,17.0,,,,,1.0,,,,,,,,,,,,,,,,,,,,,,,,,,,72.641,0.359,,,,,,
93,,isi,,html-keyboard-response,93,206268,0.0-1.0-19.0-0.0-2.0,0,0,99,,,,,,17.0,,,,,1.0,,,,,,,,,,,,,,,,,,,,,,,,,,,73.0,1.5,,,,,,
94,,feedback,,html-keyboard-response,94,207271,0.0-1.0-19.0-0.0-3.0-0.0,0,0,99,,,,,,17.0,,,,,1.0,,,,,,,,,,,,,,,,,,,,,,,,,,,74.5,1.0,,,,,,
95,,iti,,html-keyboard-response,95,209275,0.0-1.0-19.0-0.0-5.0,0,0,99,,,,,,17.0,,,,,1.0,,,,,,,,,,,,,,,,,,,,,,,,,,,75.5,2.0,,,,,,
96,,choice,,html-keyboard-response,96,210783,0.0-1.0-20.0-0.0-0.0,0,0,99,,,,,,18.0,18.0,2000.0,2000.0,0.0,1.0,1.0,60-60,1.0,,tape,tape,60.0,60.0,tape12,tape7,60.0,60.0,Frog-Tape-Dispenser_F02218A2.jpg,tape dispenser.jpg,/static/Category_learning/Stimuli/Experimental_stims/tape/Frog-Tape-Dispenser_F02218A2.jpg,/static/Category_learning/Stimuli/Experimental_stims/tape/tape dispenser.jpg,,,,,,,,,,1.0,77.5,1.5,,,,,,
97,,isi,,html-keyboard-response,97,212791,0.0-1.0-20.0-0.0-2.0,0,0,99,,,,,,18.0,,,,,1.0,,,,,,,,,,,,,,,,,,,,,,,,,,,79.0,2.0,,,,,,
98,,no_response,,html-keyboard-response,98,213798,0.0-1.0-20.0-0.0-4.0-0.0,0,0,99,,,,,,18.0,,,,,1.0,,,,,,,,,,,,,,,,,,,,,,,,,,,81.0,1.0,,,,,,
99,,iti,,html-keyboard-response,99,215822,0.0-1.0-20.0-0.0-5.0,0,0,99,,,,,,18.0,,,,,1.0,,,,,,,,,,,,,,,,,,,,,,,,,,,82.0,2.0,,,,,,
100,,choice,,html-keyboard-response,100,216364,0.0-1.0-20.0-0.1-0.1,0,0,99,,538.0,,,51.0,18.0,18.0,2000.0,2000.0,0.0,1.0,1.0,60-60,1.0,,tape,tape,60.0,60.0,tape12,tape7,60.0,60.0,Frog-Tape-Dispenser_F02218A2.jpg,tape dispenser.jpg,/static/Category_learning/Stimuli/Experimental_stims/tape/Frog-Tape-Dispenser_F02218A2.jpg,/static/Category_learning/Stimuli/Experimental_stims/tape/tape dispenser.jpg,0.0,tape,tape,60.0,60.0,tape7,tape12,60.0,60.0,0.0,84.0,0.538,,,,,,
101,,confirmation,,html-keyboard-response,101,217329,0.0-1.0-20.0-0.1-1.1-0.1,0,0,99,,,,,,18.0,,,,,1.0,,,,,,,,,,,,,,,,,,,,,,,,,,,84.538,0.962,,,,,,
102,,isi,,html-keyboard-response,102,218833,0.0-1.0-20.0-0.1-2.1,0,0,99,,,,,,18.0,,,,,1.0,,,,,,,,,,,,,,,,,,,,,,,,,,,85.5,1.5,,,,,,
103,,feedback,,html-keyboard-response,103,219839,0.0-1.0-20.0-0.1-3.1-0.1,0,0,99,,,,,,18.0,,,,,1.0,,,,,,,,,,,,,,,,,,,,,,,,,,,87.0,1.0,,,,,,
104,,iti,,html-keyboard-response,104,221843,0.0-1.0-20.0-0.1-5.1,0,0,99,,,,,,18.0,,,,,1.0,,,,,,,,,,,,,,,,,,,,,,,,,,,88.0,2.0,,,,,,
105,,choice,,html-keyboard-response,105,222761,0.0-1.0-21.0-0.0-0.0,0,0,99,,914.0,,,51.0,19.0,19.0,1500.0,1500.0,0.0,1.0,1.0,20-80,0.0,,motorcycle,desk,20.0,80.0,motorcycle10,desk1,20.0,100.0,motorcycle17.jpg,ADESK11.jpg,/static/Category_learning/Stimuli/Experimental_stims/motorcycle/motorcycle17.jpg,/static/Category_learning/Stimuli/Experimental_stims/desk/ADESK11.jpg,0.0,desk,motorcycle,80.0,20.0,desk1,motorcycle10,100.0,20.0,0.0,90.0,0.914,,,,,,
106,,confirmation,,html-keyboard-response,106,223351,0.0-1.0-21.0-0.0-1.0-0.0,0,0,99,,,,,,19.0,,,,,1.0,,,,,,,,,,,,,,,,,,,,,,,,,,,90.914,0.586,,,,,,
107,,isi,,html-keyboard-response,107,224857,0.0-1.0-21.0-0.0-2.0,0,0,99,,,,,,19.0,,,,,1.0,,,,,,,,,,,,,,,,,,,,,,,,,,,91.5,1.5,,,,,,
108,,feedback,,html-keyboard-response,108,225863,0.0-1.0-21.0-0.0-3.0-0.0,0,0,99,,,,,,19.0,,,,,1.0,,,,,,,,,,,,,,,,,,,,,,,,,,,93.0,1.0,,,,,,
109,,iti,,html-keyboard-response,109,227369,0.0-1.0-21.0-0.0-5.0,0,0,99,,,,,,19.0,,,,,1.0,,,,,,,,,,,,,,,,,,,,,,,,,,,94.0,1.5,,,,,,
110,,choice,,html-keyboard-response,110,228364,0.0-1.0-22.0-0.0-0.0,0,0,99,,992.0,,,51.0,20.0,20.0,2000.0,1000.0,0.0,1.0,0.0,40-80,,0.0,patio lounge chair,bongo,40.0,80.0,patio lounge chair11,bongo1,60.0,100.0,51830.jpg,ABONGO22.jpg,/static/Category_learning/Stimuli/Experimental_stims/patio lounge chair/51830.jpg,/static/Category_learning/Stimuli/Experimental_stims/bongo/ABONGO22.jpg,0.0,bongo,patio lounge chair,80.0,40.0,bongo1,patio lounge chair11,100.0,60.0,0.0,95.5,0.992,,,,,,
111,,confirmation,,html-keyboard-response,111,228876,0.0-1.0-22.0-0.0-1.0-0.0,0,0,99,,,,,,20.0,,,,,1.0,,,,,,,,,,,,,,,,,,,,,,,,,,,96.492,0.508,,,,,,
112,,isi,,html-keyboard-response,112,230883,0.0-1.0-22.0-0.0-2.0,0,0,99,,,,,,20.0,,,,,1.0,,,,,,,,,,,,,,,,,,,,,,,,,,,97.0,2.0,,,,,,
113,,feedback,,html-keyboard-response,113,231890,0.0-1.0-22.0-0.0-3.0-0.0,0,0,99,,,,,,20.0,,,,,1.0,,,,,,,,,,,,,,,,,,,,,,,,,,,99.0,1.0,,,,,,
114,,iti,,html-keyboard-response,114,232896,0.0-1.0-22.0-0.0-5.0,0,0,99,,,,,,20.0,,,,,1.0,,,,,,,,,,,,,,,,,,,,,,,,,,,100.0,1.0,,,,,,
115,,choice,,html-keyboard-response,115,234037,0.0-1.0-23.0-0.0-0.0,0,0,99,,1137.0,,,50.0,21.0,21.0,1500.0,1500.0,0.0,1.0,1.0,40-80,0.0,,necklace,bongo,40.0,80.0,necklace14,bongo1,20.0,100.0,necklascenew05.jpg,ABONGO22.jpg,/static/Category_learning/Stimuli/Experimental_stims/necklace/necklascenew05.jpg,/static/Category_learning/Stimuli/Experimental_stims/bongo/ABONGO22.jpg,1.0,necklace,bongo,40.0,80.0,necklace14,bongo1,20.0,100.0,0.0,101.0,1.137,,,,,,
116,,confirmation,,html-keyboard-response,116,234404,0.0-1.0-23.0-0.0-1.0-0.0,0,0,99,,,,,,21.0,,,,,1.0,,,,,,,,,,,,,,,,,,,,,,,,,,,102.137,0.363,,,,,,
117,,isi,,html-keyboard-response,117,235907,0.0-1.0-23.0-0.0-2.0,0,0,99,,,,,,21.0,,,,,1.0,,,,,,,,,,,,,,,,,,,,,,,,,,,102.5,1.5,,,,,,
118,,feedback,,html-keyboard-response,118,236914,0.0-1.0-23.0-0.0-3.0-0.0,0,0,99,,,,,,21.0,,,,,1.0,,,,,,,,,,,,,,,,,,,,,,,,,,,104.0,1.0,,,,,,
119,,iti,,html-keyboard-response,119,238418,0.0-1.0-23.0-0.0-5.0,0,0,99,,,,,,21.0,,,,,1.0,,,,,,,,,,,,,,,,,,,,,,,,,,,105.0,1.5,,,,,,
120,,choice,,html-keyboard-response,120,239435,0.0-1.0-24.0-0.0-0.0,0,0,99,,1013.0,,,50.0,22.0,22.0,2000.0,2000.0,0.0,1.0,0.0,40-80,,1.0,baby carriage,seashell,80.0,40.0,baby carriage6,seashell2,60.0,20.0,Baby_Stroller-1.jpg,ph_stri_seashell.jpg,/static/Category_learning/Stimuli/Experimental_stims/baby carriage/Baby_Stroller-1.jpg,/static/Category_learning/Stimuli/Experimental_stims/seashell/ph_stri_seashell.jpg,1.0,baby carriage,seashell,80.0,40.0,baby carriage6,seashell2,60.0,20.0,0.0,106.5,1.013,,,,,,
121,,confirmation,,html-keyboard-response,121,239926,0.0-1.0-24.0-0.0-1.0-0.0,0,0,99,,,,,,22.0,,,,,1.0,,,,,,,,,,,,,,,,,,,,,,,,,,,107.513,0.487,,,,,,
122,,isi,,html-keyboard-response,122,241931,0.0-1.0-24.0-0.0-2.0,0,0,99,,,,,,22.0,,,,,1.0,,,,,,,,,,,,,,,,,,,,,,,,,,,108.0,2.0,,,,,,
123,,feedback,,html-keyboard-response,123,242938,0.0-1.0-24.0-0.0-3.0-0.0,0,0,99,,,,,,22.0,,,,,1.0,,,,,,,,,,,,,,,,,,,,,,,,,,,110.0,1.0,,,,,,
124,,iti,,html-keyboard-response,124,244946,0.0-1.0-24.0-0.0-5.0,0,0,99,,,,,,22.0,,,,,1.0,,,,,,,,,,,,,,,,,,,,,,,,,,,111.0,2.0,,,,,,
125,,choice,,html-keyboard-response,125,245805,0.0-1.0-25.0-0.0-0.0,0,0,99,,855.0,,,50.0,23.0,23.0,1000.0,1000.0,0.0,1.0,0.0,20-80,,1.0,dresser,hat,80.0,20.0,dresser12,hat4,80.0,20.0,ADRESSE58.jpg,JS370.jpg,/static/Category_learning/Stimuli/Experimental_stims/dresser/ADRESSE58.jpg,/static/Category_learning/Stimuli/Experimental_stims/hat/JS370.jpg,1.0,dresser,hat,80.0,20.0,dresser12,hat4,80.0,20.0,0.0,113.0,0.855,,,,,,
126,,confirmation,,html-keyboard-response,126,246454,0.0-1.0-25.0-0.0-1.0-0.0,0,0,99,,,,,,23.0,,,,,1.0,,,,,,,,,,,,,,,,,,,,,,,,,,,113.855,0.645,,,,,,
127,,isi,,html-keyboard-response,127,247457,0.0-1.0-25.0-0.0-2.0,0,0,99,,,,,,23.0,,,,,1.0,,,,,,,,,,,,,,,,,,,,,,,,,,,114.5,1.0,,,,,,
128,,feedback,,html-keyboard-response,128,248461,0.0-1.0-25.0-0.0-3.0-0.0,0,0,99,,,,,,23.0,,,,,1.0,,,,,,,,,,,,,,,,,,,,,,,,,,,115.5,1.0,,,,,,
129,,iti,,html-keyboard-response,129,249466,0.0-1.0-25.0-0.0-5.0,0,0,99,,,,,,23.0,,,,,1.0,,,,,,,,,,,,,,,,,,,,,,,,,,,116.5,1.0,,,,,,
130,,choice,,html-keyboard-response,130,250432,0.0-1.0-26.0-0.0-0.0,0,0,99,,962.0,,,51.0,24.0,24.0,2000.0,2000.0,0.0,1.0,0.0,20-80,,1.0,door knob,hammer,80.0,20.0,door knob13,hammer15,100.0,0.0,500_CLAWALBC.jpg,Vaughan-32-oz-Hickory-Handle-Ball-Pein-Hammer-S432-B0001LRUJM-L-ARCQ0EBO8TR73_.jpg,/static/Category_learning/Stimuli/Experimental_stims/door knob/500_CLAWALBC.jpg,/static/Category_learning/Stimuli/Experimental_stims/hammer/Vaughan-32-oz-Hickory-Handle-Ball-Pein-Hammer-S432-B0001LRUJM-L-ARCQ0EBO8TR73_.jpg,0.0,hammer,door knob,20.0,80.0,hammer15,door knob13,0.0,100.0,0.0,117.5,0.962,,,,,,
131,,confirmation,,html-keyboard-response,131,250973,0.0-1.0-26.0-0.0-1.0-0.0,0,0,99,,,,,,24.0,,,,,1.0,,,,,,,,,,,,,,,,,,,,,,,,,,,118.462,0.538,,,,,,
132,,isi,,html-keyboard-response,132,252977,0.0-1.0-26.0-0.0-2.0,0,0,99,,,,,,24.0,,,,,1.0,,,,,,,,,,,,,,,,,,,,,,,,,,,119.0,2.0,,,,,,
133,,feedback,,html-keyboard-response,133,253982,0.0-1.0-26.0-0.0-3.0-0.0,0,0,99,,,,,,24.0,,,,,1.0,,,,,,,,,,,,,,,,,,,,,,,,,,,121.0,1.0,,,,,,
134,,iti,,html-keyboard-response,134,255987,0.0-1.0-26.0-0.0-5.0,0,0,99,,,,,,24.0,,,,,1.0,,,,,,,,,,,,,,,,,,,,,,,,,,,122.0,2.0,,,,,,
135,,choice,,html-keyboard-response,135,256823,0.0-1.0-27.0-0.0-0.0,0,0,99,,831.0,,,51.0,25.0,25.0,1000.0,1500.0,0.0,1.0,0.0,20-40,,0.0,hammer,nail polish,20.0,40.0,hammer7,nail polish12,40.0,40.0,hammer01.jpg,laquerdUP.jpg,/static/Category_learning/Stimuli/Experimental_stims/hammer/hammer01.jpg,/static/Category_learning/Stimuli/Experimental_stims/nail polish/laquerdUP.jpg,0.0,nail polish,hammer,40.0,20.0,nail polish12,hammer7,40.0,40.0,0.0,124.0,0.831,,,,,,
136,,confirmation,,html-keyboard-response,136,257496,0.0-1.0-27.0-0.0-1.0-0.0,0,0,99,,,,,,25.0,,,,,1.0,,,,,,,,,,,,,,,,,,,,,,,,,,,124.831,0.669,,,,,,
137,,isi,,html-keyboard-response,137,258502,0.0-1.0-27.0-0.0-2.0,0,0,99,,,,,,25.0,,,,,1.0,,,,,,,,,,,,,,,,,,,,,,,,,,,125.5,1.0,,,,,,
138,,feedback,,html-keyboard-response,138,259508,0.0-1.0-27.0-0.0-3.0-0.0,0,0,99,,,,,,25.0,,,,,1.0,,,,,,,,,,,,,,,,,,,,,,,,,,,126.5,1.0,,,,,,
139,,iti,,html-keyboard-response,139,261013,0.0-1.0-27.0-0.0-5.0,0,0,99,,,,,,25.0,,,,,1.0,,,,,,,,,,,,,,,,,,,,,,,,,,,127.5,1.5,,,,,,
140,,choice,,html-keyboard-response,140,261927,0.0-1.0-28.0-0.0-0.0,0,0,99,,911.0,,,51.0,26.0,26.0,3500.0,1000.0,0.0,1.0,0.0,20-60,,1.0,stool,makeup compact,60.0,20.0,stool4,makeup compact5,40.0,40.0,ASTOOL22.jpg,P109965_hero.jpg,/static/Category_learning/Stimuli/Experimental_stims/stool/ASTOOL22.jpg,/static/Category_learning/Stimuli/Experimental_stims/makeup compact/P109965_hero.jpg,0.0,makeup compact,stool,20.0,60.0,makeup compact5,stool4,40.0,40.0,0.0,129.0,0.911,,,,,,
141,,confirmation,,html-keyboard-response,141,262521,0.0-1.0-28.0-0.0-1.0-0.0,0,0,99,,,,,,26.0,,,,,1.0,,,,,,,,,,,,,,,,,,,,,,,,,,,129.911,0.589,,,,,,
142,,isi,,html-keyboard-response,142,266025,0.0-1.0-28.0-0.0-2.0,0,0,99,,,,,,26.0,,,,,1.0,,,,,,,,,,,,,,,,,,,,,,,,,,,130.5,3.5,,,,,,
143,,feedback,,html-keyboard-response,143,267033,0.0-1.0-28.0-0.0-3.0-0.0,0,0,99,,,,,,26.0,,,,,1.0,,,,,,,,,,,,,,,,,,,,,,,,,,,134.0,1.0,,,,,,
144,,iti,,html-keyboard-response,144,268038,0.0-1.0-28.0-0.0-5.0,0,0,99,,,,,,26.0,,,,,1.0,,,,,,,,,,,,,,,,,,,,,,,,,,,135.0,1.0,,,,,,
145,,choice,,html-keyboard-response,145,269101,0.0-1.0-29.0-0.0-0.0,0,0,99,,1059.0,,,51.0,27.0,27.0,1500.0,3500.0,0.0,1.0,0.0,40-80,,1.0,flashlight,small table,80.0,40.0,flashlight12,small table8,80.0,60.0,new05.jpg,ATABLE8.jpg,/static/Category_learning/Stimuli/Experimental_stims/flashlight/new05.jpg,/static/Category_learning/Stimuli/Experimental_stims/small table/ATABLE8.jpg,0.0,small table,flashlight,40.0,80.0,small table8,flashlight12,60.0,80.0,0.0,136.0,1.059,,,,,,
146,,confirmation,,html-keyboard-response,146,269547,0.0-1.0-29.0-0.0-1.0-0.0,0,0,99,,,,,,27.0,,,,,1.0,,,,,,,,,,,,,,,,,,,,,,,,,,,137.059,0.441,,,,,,
147,,isi,,html-keyboard-response,147,271050,0.0-1.0-29.0-0.0-2.0,0,0,99,,,,,,27.0,,,,,1.0,,,,,,,,,,,,,,,,,,,,,,,,,,,137.5,1.5,,,,,,
148,,feedback,,html-keyboard-response,148,272057,0.0-1.0-29.0-0.0-3.0-0.0,0,0,99,,,,,,27.0,,,,,1.0,,,,,,,,,,,,,,,,,,,,,,,,,,,139.0,1.0,,,,,,
149,,iti,,html-keyboard-response,149,275561,0.0-1.0-29.0-0.0-5.0,0,0,99,,,,,,27.0,,,,,1.0,,,,,,,,,,,,,,,,,,,,,,,,,,,140.0,3.5,,,,,,
150,,choice,,html-keyboard-response,150,276429,0.0-1.0-30.0-0.0-0.0,0,0,99,,864.0,,,51.0,28.0,28.0,3000.0,3000.0,0.0,1.0,1.0,40-60,0.0,,telescope,small table,60.0,40.0,telescope6,small table8,80.0,60.0,LO-telescope-89769.jpg,ATABLE8.jpg,/static/Category_learning/Stimuli/Experimental_stims/telescope/LO-telescope-89769.jpg,/static/Category_learning/Stimuli/Experimental_stims/small table/ATABLE8.jpg,0.0,small table,telescope,40.0,60.0,small table8,telescope6,60.0,80.0,0.0,143.5,0.864,,,,,,
151,,confirmation,,html-keyboard-response,151,277068,0.0-1.0-30.0-0.0-1.0-0.0,0,0,99,,,,,,28.0,,,,,1.0,,,,,,,,,,,,,,,,,,,,,,,,,,,144.364,0.636,,,,,,
152,,isi,,html-keyboard-response,152,280071,0.0-1.0-30.0-0.0-2.0,0,0,99,,,,,,28.0,,,,,1.0,,,,,,,,,,,,,,,,,,,,,,,,,,,145.0,3.0,,,,,,
153,,feedback,,html-keyboard-response,153,281079,0.0-1.0-30.0-0.0-3.0-0.0,0,0,99,,,,,,28.0,,,,,1.0,,,,,,,,,,,,,,,,,,,,,,,,,,,148.0,1.0,,,,,,
154,,iti,,html-keyboard-response,154,284087,0.0-1.0-30.0-0.0-5.0,0,0,99,,,,,,28.0,,,,,1.0,,,,,,,,,,,,,,,,,,,,,,,,,,,149.0,3.0,,,,,,
155,,choice,,html-keyboard-response,155,285264,0.0-1.0-31.0-0.0-0.0,0,0,99,,1173.0,,,50.0,29.0,29.0,3500.0,1000.0,0.0,1.0,0.0,20-80,,1.0,bongo,key chain,80.0,20.0,bongo8,key chain10,80.0,0.0,26390661.thl.jpg,Smurfs_Keychains_Smurf_Row_Boat.jpg,/static/Category_learning/Stimuli/Experimental_stims/bongo/26390661.thl.jpg,/static/Category_learning/Stimuli/Experimental_stims/key chain/Smurfs_Keychains_Smurf_Row_Boat.jpg,1.0,bongo,key chain,80.0,20.0,bongo8,key chain10,80.0,0.0,0.0,152.0,1.173,,,,,,
156,,confirmation,,html-keyboard-response,156,285596,0.0-1.0-31.0-0.0-1.0-0.0,0,0,99,,,,,,29.0,,,,,1.0,,,,,,,,,,,,,,,,,,,,,,,,,,,153.173,0.327,,,,,,
157,,isi,,html-keyboard-response,157,289103,0.0-1.0-31.0-0.0-2.0,0,0,99,,,,,,29.0,,,,,1.0,,,,,,,,,,,,,,,,,,,,,,,,,,,153.5,3.5,,,,,,
158,,feedback,,html-keyboard-response,158,290111,0.0-1.0-31.0-0.0-3.0-0.0,0,0,99,,,,,,29.0,,,,,1.0,,,,,,,,,,,,,,,,,,,,,,,,,,,157.0,1.0,,,,,,
159,,iti,,html-keyboard-response,159,291117,0.0-1.0-31.0-0.0-5.0,0,0,99,,,,,,29.0,,,,,1.0,,,,,,,,,,,,,,,,,,,,,,,,,,,158.0,1.0,,,,,,
160,,choice,,html-keyboard-response,160,292025,0.0-1.0-32.0-0.0-0.0,0,0,99,,904.0,,,51.0,30.0,30.0,1000.0,2000.0,0.0,1.0,0.0,60-80,,0.0,tape,baby carriage,60.0,80.0,tape15,baby carriage10,80.0,100.0,MMMC15BK.jpg,peg_perego_uno_blu.jpg,/static/Category_learning/Stimuli/Experimental_stims/tape/MMMC15BK.jpg,/static/Category_learning/Stimuli/Experimental_stims/baby carriage/peg_perego_uno_blu.jpg,0.0,baby carriage,tape,80.0,60.0,baby carriage10,tape15,100.0,80.0,0.0,159.0,0.904,,,,,,
161,,confirmation,,html-keyboard-response,161,292624,0.0-1.0-32.0-0.0-1.0-0.0,0,0,99,,,,,,30.0,,,,,1.0,,,,,,,,,,,,,,,,,,,,,,,,,,,159.904,0.596,,,,,,
162,,isi,,html-keyboard-response,162,293632,0.0-1.0-32.0-0.0-2.0,0,0,99,,,,,,30.0,,,,,1.0,,,,,,,,,,,,,,,,,,,,,,,,,,,160.5,1.0,,,,,,
163,,feedback,,html-keyboard-response,163,294636,0.0-1.0-32.0-0.0-3.0-0.0,0,0,99,,,,,,30.0,,,,,1.0,,,,,,,,,,,,,,,,,,,,,,,,,,,161.5,1.0,,,,,,
164,,iti,,html-keyboard-response,164,296640,0.0-1.0-32.0-0.0-5.0,0,0,99,,,,,,30.0,,,,,1.0,,,,,,,,,,,,,,,,,,,,,,,,,,,162.5,2.0,,,,,,
165,,choice,,html-keyboard-response,165,297699,0.0-1.0-33.0-0.0-0.0,0,0,99,,1055.0,,,51.0,31.0,31.0,1000.0,1000.0,0.0,1.0,1.0,80-80,1.0,,baby carriage,baby carriage,80.0,80.0,baby carriage10,baby carriage6,100.0,60.0,peg_perego_uno_blu.jpg,Baby_Stroller-1.jpg,/static/Category_learning/Stimuli/Experimental_stims/baby carriage/peg_perego_uno_blu.jpg,/static/Category_learning/Stimuli/Experimental_stims/baby carriage/Baby_Stroller-1.jpg,0.0,baby carriage,baby carriage,80.0,80.0,baby carriage6,baby carriage10,60.0,100.0,0.0,164.5,1.055,,,,,,
166,,confirmation,,html-keyboard-response,166,298149,0.0-1.0-33.0-0.0-1.0-0.0,0,0,99,,,,,,31.0,,,,,1.0,,,,,,,,,,,,,,,,,,,,,,,,,,,165.555,0.445,,,,,,
167,,isi,,html-keyboard-response,167,299157,0.0-1.0-33.0-0.0-2.0,0,0,99,,,,,,31.0,,,,,1.0,,,,,,,,,,,,,,,,,,,,,,,,,,,166.0,1.0,,,,,,
168,,feedback,,html-keyboard-response,168,300166,0.0-1.0-33.0-0.0-3.0-0.0,0,0,99,,,,,,31.0,,,,,1.0,,,,,,,,,,,,,,,,,,,,,,,,,,,167.0,1.0,,,,,,
169,,iti,,html-keyboard-response,169,301173,0.0-1.0-33.0-0.0-5.0,0,0,99,,,,,,31.0,,,,,1.0,,,,,,,,,,,,,,,,,,,,,,,,,,,168.0,1.0,,,,,,
170,,choice,,html-keyboard-response,170,302060,0.0-1.0-34.0-0.0-0.0,0,0,99,,884.0,,,51.0,32.0,32.0,1000.0,1000.0,0.0,1.0,0.0,20-60,,0.0,frame,vase,20.0,60.0,frame4,vase9,40.0,60.0,AFRAME125.jpg,Avasewithang2.jpg,/static/Category_learning/Stimuli/Experimental_stims/frame/AFRAME125.jpg,/static/Category_learning/Stimuli/Experimental_stims/vase/Avasewithang2.jpg,0.0,vase,frame,60.0,20.0,vase9,frame4,60.0,40.0,0.0,169.0,0.884,,,,,,
171,,confirmation,,html-keyboard-response,171,302681,0.0-1.0-34.0-0.0-1.0-0.0,0,0,99,,,,,,32.0,,,,,1.0,,,,,,,,,,,,,,,,,,,,,,,,,,,169.884,0.616,,,,,,
172,,isi,,html-keyboard-response,172,303688,0.0-1.0-34.0-0.0-2.0,0,0,99,,,,,,32.0,,,,,1.0,,,,,,,,,,,,,,,,,,,,,,,,,,,170.5,1.0,,,,,,
173,,feedback,,html-keyboard-response,173,304694,0.0-1.0-34.0-0.0-3.0-0.0,0,0,99,,,,,,32.0,,,,,1.0,,,,,,,,,,,,,,,,,,,,,,,,,,,171.5,1.0,,,,,,
174,,iti,,html-keyboard-response,174,305701,0.0-1.0-34.0-0.0-5.0,0,0,99,,,,,,32.0,,,,,1.0,,,,,,,,,,,,,,,,,,,,,,,,,,,172.5,1.0,,,,,,
175,,choice,,html-keyboard-response,175,306540,0.0-1.0-35.0-0.0-0.0,0,0,99,,835.0,,,50.0,33.0,33.0,1000.0,1500.0,0.0,1.0,0.0,40-40,,,power strip,necklace,40.0,40.0,power strip5,necklace3,60.0,20.0,93e4a283-bcd6-4ad1-8add-339658cda0fc_400.jpg,26388201.thl.jpg,/static/Category_learning/Stimuli/Experimental_stims/power strip/93e4a283-bcd6-4ad1-8add-339658cda0fc_400.jpg,/static/Category_learning/Stimuli/Experimental_stims/necklace/26388201.thl.jpg,1.0,power strip,necklace,40.0,40.0,power strip5,necklace3,60.0,20.0,0.0,173.5,0.835,,,,,,
176,,confirmation,,html-keyboard-response,176,307209,0.0-1.0-35.0-0.0-1.0-0.0,0,0,99,,,,,,33.0,,,,,1.0,,,,,,,,,,,,,,,,,,,,,,,,,,,174.335,0.665,,,,,,
177,,isi,,html-keyboard-response,177,308214,0.0-1.0-35.0-0.0-2.0,0,0,99,,,,,,33.0,,,,,1.0,,,,,,,,,,,,,,,,,,,,,,,,,,,175.0,1.0,,,,,,
178,,feedback,,html-keyboard-response,178,309221,0.0-1.0-35.0-0.0-3.0-0.0,0,0,99,,,,,,33.0,,,,,1.0,,,,,,,,,,,,,,,,,,,,,,,,,,,176.0,1.0,,,,,,
179,,iti,,html-keyboard-response,179,310727,0.0-1.0-35.0-0.0-5.0,0,0,99,,,,,,33.0,,,,,1.0,,,,,,,,,,,,,,,,,,,,,,,,,,,177.0,1.5,,,,,,
180,,choice,,html-keyboard-response,180,311634,0.0-1.0-36.0-0.0-0.0,0,0,99,,903.0,,,50.0,34.0,34.0,2000.0,3000.0,0.0,1.0,0.0,40-60,,0.0,patio lounge chair,yarn,40.0,60.0,patio lounge chair14,yarn8,40.0,40.0,2987951.jpg,smonlineyarn-285x250.jpg,/static/Category_learning/Stimuli/Experimental_stims/patio lounge chair/2987951.jpg,/static/Category_learning/Stimuli/Experimental_stims/yarn/smonlineyarn-285x250.jpg,1.0,patio lounge chair,yarn,40.0,60.0,patio lounge chair14,yarn8,40.0,40.0,0.0,178.5,0.903,,,,,,
181,,confirmation,,html-keyboard-response,181,312239,0.0-1.0-36.0-0.0-1.0-0.0,0,0,99,,,,,,34.0,,,,,1.0,,,,,,,,,,,,,,,,,,,,,,,,,,,179.403,0.597,,,,,,
182,,isi,,html-keyboard-response,182,314244,0.0-1.0-36.0-0.0-2.0,0,0,99,,,,,,34.0,,,,,1.0,,,,,,,,,,,,,,,,,,,,,,,,,,,180.0,2.0,,,,,,
183,,feedback,,html-keyboard-response,183,315251,0.0-1.0-36.0-0.0-3.0-0.0,0,0,99,,,,,,34.0,,,,,1.0,,,,,,,,,,,,,,,,,,,,,,,,,,,182.0,1.0,,,,,,
184,,iti,,html-keyboard-response,184,318259,0.0-1.0-36.0-0.0-5.0,0,0,99,,,,,,34.0,,,,,1.0,,,,,,,,,,,,,,,,,,,,,,,,,,,183.0,3.0,,,,,,
185,,choice,,html-keyboard-response,185,318997,0.0-1.0-37.0-0.0-0.0,0,0,99,,734.0,,,51.0,35.0,35.0,1500.0,3500.0,0.0,1.0,1.0,20-80,0.0,,microscope,dresser,20.0,80.0,microscope15,dresser12,40.0,80.0,Amicroscope23.jpg,ADRESSE58.jpg,/static/Category_learning/Stimuli/Experimental_stims/microscope/Amicroscope23.jpg,/static/Category_learning/Stimuli/Experimental_stims/dresser/ADRESSE58.jpg,0.0,dresser,microscope,80.0,20.0,dresser12,microscope15,80.0,40.0,0.0,186.0,0.734,,,,,,
186,,confirmation,,html-keyboard-response,186,319767,0.0-1.0-37.0-0.0-1.0-0.0,0,0,99,,,,,,35.0,,,,,1.0,,,,,,,,,,,,,,,,,,,,,,,,,,,186.734,0.766,,,,,,
187,,isi,,html-keyboard-response,187,321274,0.0-1.0-37.0-0.0-2.0,0,0,99,,,,,,35.0,,,,,1.0,,,,,,,,,,,,,,,,,,,,,,,,,,,187.5,1.5,,,,,,
188,,feedback,,html-keyboard-response,188,322281,0.0-1.0-37.0-0.0-3.0-0.0,0,0,99,,,,,,35.0,,,,,1.0,,,,,,,,,,,,,,,,,,,,,,,,,,,189.0,1.0,,,,,,
189,,iti,,html-keyboard-response,189,325784,0.0-1.0-37.0-0.0-5.0,0,0,99,,,,,,35.0,,,,,1.0,,,,,,,,,,,,,,,,,,,,,,,,,,,190.0,3.5,,,,,,
190,,choice,,html-keyboard-response,190,326651,0.0-1.0-38.0-0.0-0.0,0,0,99,,863.0,,,50.0,36.0,36.0,1500.0,2000.0,0.0,1.0,1.0,20-60,0.0,,vase,makeup compact,60.0,20.0,vase9,makeup compact5,60.0,40.0,Avasewithang2.jpg,P109965_hero.jpg,/static/Category_learning/Stimuli/Experimental_stims/vase/Avasewithang2.jpg,/static/Category_learning/Stimuli/Experimental_stims/makeup compact/P109965_hero.jpg,1.0,vase,makeup compact,60.0,20.0,vase9,makeup compact5,60.0,40.0,0.0,193.5,0.863,,,,,,
191,,confirmation,,html-keyboard-response,191,327291,0.0-1.0-38.0-0.0-1.0-0.0,0,0,99,,,,,,36.0,,,,,1.0,,,,,,,,,,,,,,,,,,,,,,,,,,,194.363,0.637,,,,,,
192,,isi,,html-keyboard-response,192,328798,0.0-1.0-38.0-0.0-2.0,0,0,99,,,,,,36.0,,,,,1.0,,,,,,,,,,,,,,,,,,,,,,,,,,,195.0,1.5,,,,,,
193,,feedback,,html-keyboard-response,193,329804,0.0-1.0-38.0-0.0-3.0-0.0,0,0,99,,,,,,36.0,,,,,1.0,,,,,,,,,,,,,,,,,,,,,,,,,,,196.5,1.0,,,,,,
194,,iti,,html-keyboard-response,194,331812,0.0-1.0-38.0-0.0-5.0,0,0,99,,,,,,36.0,,,,,1.0,,,,,,,,,,,,,,,,,,,,,,,,,,,197.5,2.0,,,,,,
195,,choice,,html-keyboard-response,195,332795,0.0-1.0-39.0-0.0-0.0,0,0,99,,978.0,,,51.0,37.0,37.0,1000.0,1000.0,0.0,1.0,0.0,60-60,,,tape,train,60.0,60.0,tape10,train6,80.0,40.0,26377601.thl.jpg,train9.jpg,/static/Category_learning/Stimuli/Experimental_stims/tape/26377601.thl.jpg,/static/Category_learning/Stimuli/Experimental_stims/train/train9.jpg,0.0,train,tape,60.0,60.0,train6,tape10,40.0,80.0,0.0,199.5,0.978,,,,,,
196,,confirmation,,html-keyboard-response,196,333320,0.0-1.0-39.0-0.0-1.0-0.0,0,0,99,,,,,,37.0,,,,,1.0,,,,,,,,,,,,,,,,,,,,,,,,,,,200.478,0.522,,,,,,
197,,isi,,html-keyboard-response,197,334326,0.0-1.0-39.0-0.0-2.0,0,0,99,,,,,,37.0,,,,,1.0,,,,,,,,,,,,,,,,,,,,,,,,,,,201.0,1.0,,,,,,
198,,feedback,,html-keyboard-response,198,335332,0.0-1.0-39.0-0.0-3.0-0.0,0,0,99,,,,,,37.0,,,,,1.0,,,,,,,,,,,,,,,,,,,,,,,,,,,202.0,1.0,,,,,,
199,,iti,,html-keyboard-response,199,336338,0.0-1.0-39.0-0.0-5.0,0,0,99,,,,,,37.0,,,,,1.0,,,,,,,,,,,,,,,,,,,,,,,,,,,203.0,1.0,,,,,,
200,,choice,,html-keyboard-response,200,337012,0.0-1.0-40.0-0.0-0.0,0,0,99,,670.0,,,50.0,38.0,38.0,1500.0,3500.0,0.0,1.0,0.0,40-80,,0.0,patio lounge chair,bowl,40.0,80.0,patio lounge chair8,bowl6,20.0,80.0,43-1.jpg,Abowl59.jpg,/static/Category_learning/Stimuli/Experimental_stims/patio lounge chair/43-1.jpg,/static/Category_learning/Stimuli/Experimental_stims/bowl/Abowl59.jpg,1.0,patio lounge chair,bowl,40.0,80.0,patio lounge chair8,bowl6,20.0,80.0,0.0,204.0,0.67,,,,,,
201,,confirmation,,html-keyboard-response,201,337846,0.0-1.0-40.0-0.0-1.0-0.0,0,0,99,,,,,,38.0,,,,,1.0,,,,,,,,,,,,,,,,,,,,,,,,,,,204.67,0.83,,,,,,
202,,isi,,html-keyboard-response,202,339350,0.0-1.0-40.0-0.0-2.0,0,0,99,,,,,,38.0,,,,,1.0,,,,,,,,,,,,,,,,,,,,,,,,,,,205.5,1.5,,,,,,
203,,feedback,,html-keyboard-response,203,340356,0.0-1.0-40.0-0.0-3.0-0.0,0,0,99,,,,,,38.0,,,,,1.0,,,,,,,,,,,,,,,,,,,,,,,,,,,207.0,1.0,,,,,,
204,,iti,,html-keyboard-response,204,343862,0.0-1.0-40.0-0.0-5.0,0,0,99,,,,,,38.0,,,,,1.0,,,,,,,,,,,,,,,,,,,,,,,,,,,208.0,3.5,,,,,,
205,,choice,,html-keyboard-response,205,344811,0.0-1.0-41.0-0.0-0.0,0,0,99,,945.0,,,51.0,39.0,39.0,2000.0,2000.0,0.0,1.0,1.0,40-40,1.0,,patio lounge chair,patio lounge chair,40.0,40.0,patio lounge chair8,patio lounge chair14,20.0,40.0,43-1.jpg,2987951.jpg,/static/Category_learning/Stimuli/Experimental_stims/patio lounge chair/43-1.jpg,/static/Category_learning/Stimuli/Experimental_stims/patio lounge chair/2987951.jpg,0.0,patio lounge chair,patio lounge chair,40.0,40.0,patio lounge chair14,patio lounge chair8,40.0,20.0,0.0,211.5,0.945,,,,,,
206,,confirmation,,html-keyboard-response,206,345371,0.0-1.0-41.0-0.0-1.0-0.0,0,0,99,,,,,,39.0,,,,,1.0,,,,,,,,,,,,,,,,,,,,,,,,,,,212.445,0.555,,,,,,
207,,isi,,html-keyboard-response,207,347375,0.0-1.0-41.0-0.0-2.0,0,0,99,,,,,,39.0,,,,,1.0,,,,,,,,,,,,,,,,,,,,,,,,,,,213.0,2.0,,,,,,
208,,feedback,,html-keyboard-response,208,348381,0.0-1.0-41.0-0.0-3.0-0.0,0,0,99,,,,,,39.0,,,,,1.0,,,,,,,,,,,,,,,,,,,,,,,,,,,215.0,1.0,,,,,,
209,,iti,,html-keyboard-response,209,350388,0.0-1.0-41.0-0.0-5.0,0,0,99,,,,,,39.0,,,,,1.0,,,,,,,,,,,,,,,,,,,,,,,,,,,216.0,2.0,,,,,,
210,,choice,,html-keyboard-response,210,351435,0.0-1.0-42.0-0.0-0.0,0,0,99,,1043.0,,,51.0,40.0,40.0,1000.0,1500.0,0.0,1.0,0.0,40-60,,0.0,nail polish,watch,40.0,60.0,nail polish14,watch15,20.0,80.0,38031405.JPG,20-171-6.jpg,/static/Category_learning/Stimuli/Experimental_stims/nail polish/38031405.JPG,/static/Category_learning/Stimuli/Experimental_stims/watch/20-171-6.jpg,0.0,watch,nail polish,60.0,40.0,watch15,nail polish14,80.0,20.0,0.0,218.0,1.043,,,,,,
211,,confirmation,,html-keyboard-response,211,351896,0.0-1.0-42.0-0.0-1.0-0.0,0,0,99,,,,,,40.0,,,,,1.0,,,,,,,,,,,,,,,,,,,,,,,,,,,219.043,0.457,,,,,,
212,,isi,,html-keyboard-response,212,352901,0.0-1.0-42.0-0.0-2.0,0,0,99,,,,,,40.0,,,,,1.0,,,,,,,,,,,,,,,,,,,,,,,,,,,219.5,1.0,,,,,,
213,,feedback,,html-keyboard-response,213,353907,0.0-1.0-42.0-0.0-3.0-0.0,0,0,99,,,,,,40.0,,,,,1.0,,,,,,,,,,,,,,,,,,,,,,,,,,,220.5,1.0,,,,,,
214,,iti,,html-keyboard-response,214,355413,0.0-1.0-42.0-0.0-5.0,0,0,99,,,,,,40.0,,,,,1.0,,,,,,,,,,,,,,,,,,,,,,,,,,,221.5,1.5,,,,,,
215,,choice,,html-keyboard-response,215,356184,0.0-1.0-43.0-0.0-0.0,0,0,99,,767.0,,,51.0,41.0,41.0,1500.0,3000.0,0.0,1.0,0.0,20-20,,,hammer,license plate,20.0,20.0,hammer5,license plate14,20.0,0.0,hammer02.jpg,fl-hel-bel.jpg,/static/Category_learning/Stimuli/Experimental_stims/hammer/hammer02.jpg,/static/Category_learning/Stimuli/Experimental_stims/license plate/fl-hel-bel.jpg,0.0,license plate,hammer,20.0,20.0,license plate14,hammer5,0.0,20.0,0.0,223.0,0.767,,,,,,
216,,confirmation,,html-keyboard-response,216,356922,0.0-1.0-43.0-0.0-1.0-0.0,0,0,99,,,,,,41.0,,,,,1.0,,,,,,,,,,,,,,,,,,,,,,,,,,,223.767,0.733,,,,,,
217,,isi,,html-keyboard-response,217,358425,0.0-1.0-43.0-0.0-2.0,0,0,99,,,,,,41.0,,,,,1.0,,,,,,,,,,,,,,,,,,,,,,,,,,,224.5,1.5,,,,,,
218,,feedback,,html-keyboard-response,218,359431,0.0-1.0-43.0-0.0-3.0-0.0,0,0,99,,,,,,41.0,,,,,1.0,,,,,,,,,,,,,,,,,,,,,,,,,,,226.0,1.0,,,,,,
219,,iti,,html-keyboard-response,219,362437,0.0-1.0-43.0-0.0-5.0,0,0,99,,,,,,41.0,,,,,1.0,,,,,,,,,,,,,,,,,,,,,,,,,,,227.0,3.0,,,,,,
220,,choice,,html-keyboard-response,220,363377,0.0-1.0-44.0-0.0-0.0,0,0,99,,937.0,,,50.0,42.0,42.0,1500.0,1000.0,0.0,1.0,0.0,40-40,,,poker card,necklace,40.0,40.0,poker card15,necklace9,40.0,60.0,9816946.thl.jpg,ANECKLACE.jpg,/static/Category_learning/Stimuli/Experimental_stims/poker card/9816946.thl.jpg,/static/Category_learning/Stimuli/Experimental_stims/necklace/ANECKLACE.jpg,1.0,poker card,necklace,40.0,40.0,poker card15,necklace9,40.0,60.0,0.0,230.0,0.937,,,,,,
221,,confirmation,,html-keyboard-response,221,363943,0.0-1.0-44.0-0.0-1.0-0.0,0,0,99,,,,,,42.0,,,,,1.0,,,,,,,,,,,,,,,,,,,,,,,,,,,230.937,0.563,,,,,,
222,,isi,,html-keyboard-response,222,365447,0.0-1.0-44.0-0.0-2.0,0,0,99,,,,,,42.0,,,,,1.0,,,,,,,,,,,,,,,,,,,,,,,,,,,231.5,1.5,,,,,,
223,,feedback,,html-keyboard-response,223,366454,0.0-1.0-44.0-0.0-3.0-0.0,0,0,99,,,,,,42.0,,,,,1.0,,,,,,,,,,,,,,,,,,,,,,,,,,,233.0,1.0,,,,,,
224,,iti,,html-keyboard-response,224,367457,0.0-1.0-44.0-0.0-5.0,0,0,99,,,,,,42.0,,,,,1.0,,,,,,,,,,,,,,,,,,,,,,,,,,,234.0,1.0,,,,,,
225,,choice,,html-keyboard-response,225,368423,0.0-1.0-45.0-0.0-0.0,0,0,99,,962.0,,,50.0,43.0,43.0,1000.0,3500.0,0.0,1.0,0.0,20-20,,,microscope,hammer,20.0,20.0,microscope5,hammer11,0.0,0.0,emMicroscope.jpg,8oz-hammer-copy.jpg,/static/Category_learning/Stimuli/Experimental_stims/microscope/emMicroscope.jpg,/static/Category_learning/Stimuli/Experimental_stims/hammer/8oz-hammer-copy.jpg,1.0,microscope,hammer,20.0,20.0,microscope5,hammer11,0.0,0.0,0.0,235.0,0.962,,,,,,
226,,confirmation,,html-keyboard-response,226,368964,0.0-1.0-45.0-0.0-1.0-0.0,0,0,99,,,,,,43.0,,,,,1.0,,,,,,,,,,,,,,,,,,,,,,,,,,,235.962,0.538,,,,,,
227,,isi,,html-keyboard-response,227,369969,0.0-1.0-45.0-0.0-2.0,0,0,99,,,,,,43.0,,,,,1.0,,,,,,,,,,,,,,,,,,,,,,,,,,,236.5,1.0,,,,,,
228,,feedback,,html-keyboard-response,228,370975,0.0-1.0-45.0-0.0-3.0-0.0,0,0,99,,,,,,43.0,,,,,1.0,,,,,,,,,,,,,,,,,,,,,,,,,,,237.5,1.0,,,,,,
229,,iti,,html-keyboard-response,229,374481,0.0-1.0-45.0-0.0-5.0,0,0,99,,,,,,43.0,,,,,1.0,,,,,,,,,,,,,,,,,,,,,,,,,,,238.5,3.5,,,,,,
230,,choice,,html-keyboard-response,230,375400,0.0-1.0-46.0-0.0-0.0,0,0,99,,915.0,,,51.0,44.0,44.0,1000.0,1000.0,0.0,1.0,1.0,60-60,1.0,,watch,watch,60.0,60.0,watch8,watch15,60.0,80.0,2239.jpg,20-171-6.jpg,/static/Category_learning/Stimuli/Experimental_stims/watch/2239.jpg,/static/Category_learning/Stimuli/Experimental_stims/watch/20-171-6.jpg,0.0,watch,watch,60.0,60.0,watch15,watch8,80.0,60.0,0.0,242.0,0.915,,,,,,
231,,confirmation,,html-keyboard-response,231,375989,0.0-1.0-46.0-0.0-1.0-0.0,0,0,99,,,,,,44.0,,,,,1.0,,,,,,,,,,,,,,,,,,,,,,,,,,,242.915,0.585,,,,,,
232,,isi,,html-keyboard-response,232,376995,0.0-1.0-46.0-0.0-2.0,0,0,99,,,,,,44.0,,,,,1.0,,,,,,,,,,,,,,,,,,,,,,,,,,,243.5,1.0,,,,,,
233,,feedback,,html-keyboard-response,233,378002,0.0-1.0-46.0-0.0-3.0-0.0,0,0,99,,,,,,44.0,,,,,1.0,,,,,,,,,,,,,,,,,,,,,,,,,,,244.5,1.0,,,,,,
234,,iti,,html-keyboard-response,234,379010,0.0-1.0-46.0-0.0-5.0,0,0,99,,,,,,44.0,,,,,1.0,,,,,,,,,,,,,,,,,,,,,,,,,,,245.5,1.0,,,,,,
235,,choice,,html-keyboard-response,235,379835,0.0-1.0-47.0-0.0-0.0,0,0,99,,821.0,,,50.0,45.0,45.0,1000.0,1500.0,0.0,1.0,0.0,80-80,,,baby carriage,fan,80.0,80.0,baby carriage8,fan7,60.0,80.0,peg_perego_uno_revi_black.jpg,250679_lg.jpg,/static/Category_learning/Stimuli/Experimental_stims/baby carriage/peg_perego_uno_revi_black.jpg,/static/Category_learning/Stimuli/Experimental_stims/fan/250679_lg.jpg,1.0,baby carriage,fan,80.0,80.0,baby carriage8,fan7,60.0,80.0,0.0,246.5,0.821,,,,,,
236,,confirmation,,html-keyboard-response,236,380517,0.0-1.0-47.0-0.0-1.0-0.0,0,0,99,,,,,,45.0,,,,,1.0,,,,,,,,,,,,,,,,,,,,,,,,,,,247.321,0.679,,,,,,
237,,isi,,html-keyboard-response,237,381523,0.0-1.0-47.0-0.0-2.0,0,0,99,,,,,,45.0,,,,,1.0,,,,,,,,,,,,,,,,,,,,,,,,,,,248.0,1.0,,,,,,
238,,feedback,,html-keyboard-response,238,382529,0.0-1.0-47.0-0.0-3.0-0.0,0,0,99,,,,,,45.0,,,,,1.0,,,,,,,,,,,,,,,,,,,,,,,,,,,249.0,1.0,,,,,,
239,,iti,,html-keyboard-response,239,384038,0.0-1.0-47.0-0.0-5.0,0,0,99,,,,,,45.0,,,,,1.0,,,,,,,,,,,,,,,,,,,,,,,,,,,250.0,1.5,,,,,,
240,,choice,,html-keyboard-response,240,384780,0.0-1.0-48.0-0.0-0.0,0,0,99,,739.0,,,51.0,46.0,46.0,2000.0,1000.0,0.0,1.0,0.0,40-60,,0.0,seashell,telescope,40.0,60.0,seashell1,telescope12,40.0,40.0,Aseashe34.jpg,Junior Land and Sky Telescope.jpg,/static/Category_learning/Stimuli/Experimental_stims/seashell/Aseashe34.jpg,/static/Category_learning/Stimuli/Experimental_stims/telescope/Junior Land and Sky Telescope.jpg,0.0,telescope,seashell,60.0,40.0,telescope12,seashell1,40.0,40.0,0.0,251.5,0.739,,,,,,
241,,confirmation,,html-keyboard-response,241,385545,0.0-1.0-48.0-0.0-1.0-0.0,0,0,99,,,,,,46.0,,,,,1.0,,,,,,,,,,,,,,,,,,,,,,,,,,,252.239,0.761,,,,,,
242,,isi,,html-keyboard-response,242,387549,0.0-1.0-48.0-0.0-2.0,0,0,99,,,,,,46.0,,,,,1.0,,,,,,,,,,,,,,,,,,,,,,,,,,,253.0,2.0,,,,,,
243,,feedback,,html-keyboard-response,243,388555,0.0-1.0-48.0-0.0-3.0-0.0,0,0,99,,,,,,46.0,,,,,1.0,,,,,,,,,,,,,,,,,,,,,,,,,,,255.0,1.0,,,,,,
244,,iti,,html-keyboard-response,244,389560,0.0-1.0-48.0-0.0-5.0,0,0,99,,,,,,46.0,,,,,1.0,,,,,,,,,,,,,,,,,,,,,,,,,,,256.0,1.0,,,,,,
245,,choice,,html-keyboard-response,245,390487,0.0-1.0-49.0-0.0-0.0,0,0,99,,923.0,,,50.0,47.0,47.0,2000.0,1000.0,0.0,1.0,0.0,20-40,,1.0,small table,hat,40.0,20.0,small table2,hat7,60.0,20.0,Atable126.jpg,ASTRHATFL.jpg,/static/Category_learning/Stimuli/Experimental_stims/small table/Atable126.jpg,/static/Category_learning/Stimuli/Experimental_stims/hat/ASTRHATFL.jpg,1.0,small table,hat,40.0,20.0,small table2,hat7,60.0,20.0,0.0,257.0,0.923,,,,,,
246,,confirmation,,html-keyboard-response,246,391068,0.0-1.0-49.0-0.0-1.0-0.0,0,0,99,,,,,,47.0,,,,,1.0,,,,,,,,,,,,,,,,,,,,,,,,,,,257.923,0.577,,,,,,
247,,isi,,html-keyboard-response,247,393077,0.0-1.0-49.0-0.0-2.0,0,0,99,,,,,,47.0,,,,,1.0,,,,,,,,,,,,,,,,,,,,,,,,,,,258.5,2.0,,,,,,
248,,feedback,,html-keyboard-response,248,394084,0.0-1.0-49.0-0.0-3.0-0.0,0,0,99,,,,,,47.0,,,,,1.0,,,,,,,,,,,,,,,,,,,,,,,,,,,260.5,1.0,,,,,,
249,,iti,,html-keyboard-response,249,395091,0.0-1.0-49.0-0.0-5.0,0,0,99,,,,,,47.0,,,,,1.0,,,,,,,,,,,,,,,,,,,,,,,,,,,261.5,1.0,,,,,,
250,,choice,,html-keyboard-response,250,396027,0.0-1.0-50.0-0.0-0.0,0,0,99,,932.0,,,50.0,48.0,48.0,1000.0,1500.0,0.0,1.0,0.0,20-60,,1.0,tape,hammer,60.0,20.0,tape2,hammer10,40.0,40.0,Tape_Dispenser.jpg,Tabla Hammer.JPG,/static/Category_learning/Stimuli/Experimental_stims/tape/Tape_Dispenser.jpg,/static/Category_learning/Stimuli/Experimental_stims/hammer/Tabla Hammer.JPG,1.0,tape,hammer,60.0,20.0,tape2,hammer10,40.0,40.0,0.0,262.5,0.932,,,,,,
251,,confirmation,,html-keyboard-response,251,396600,0.0-1.0-50.0-0.0-1.0-0.0,0,0,99,,,,,,48.0,,,,,1.0,,,,,,,,,,,,,,,,,,,,,,,,,,,263.432,0.568,,,,,,
252,,isi,,html-keyboard-response,252,397605,0.0-1.0-50.0-0.0-2.0,0,0,99,,,,,,48.0,,,,,1.0,,,,,,,,,,,,,,,,,,,,,,,,,,,264.0,1.0,,,,,,
253,,feedback,,html-keyboard-response,253,398612,0.0-1.0-50.0-0.0-3.0-0.0,0,0,99,,,,,,48.0,,,,,1.0,,,,,,,,,,,,,,,,,,,,,,,,,,,265.0,1.0,,,,,,
254,,iti,,html-keyboard-response,254,400118,0.0-1.0-50.0-0.0-5.0,0,0,99,,,,,,48.0,,,,,1.0,,,,,,,,,,,,,,,,,,,,,,,,,,,266.0,1.5,,,,,,
255,,choice,,html-keyboard-response,255,400963,0.0-1.0-51.0-0.0-0.0,0,0,99,,840.0,,,51.0,49.0,49.0,1500.0,1500.0,0.0,1.0,1.0,20-20,1.0,,license plate,license plate,20.0,20.0,license plate14,license plate10,0.0,40.0,fl-hel-bel.jpg,pa-nfn-011.jpg,/static/Category_learning/Stimuli/Experimental_stims/license plate/fl-hel-bel.jpg,/static/Category_learning/Stimuli/Experimental_stims/license plate/pa-nfn-011.jpg,0.0,license plate,license plate,20.0,20.0,license plate10,license plate14,40.0,0.0,0.0,267.5,0.84,,,,,,
256,,confirmation,,html-keyboard-response,256,401626,0.0-1.0-51.0-0.0-1.0-0.0,0,0,99,,,,,,49.0,,,,,1.0,,,,,,,,,,,,,,,,,,,,,,,,,,,268.34,0.66,,,,,,
257,,isi,,html-keyboard-response,257,403130,0.0-1.0-51.0-0.0-2.0,0,0,99,,,,,,49.0,,,,,1.0,,,,,,,,,,,,,,,,,,,,,,,,,,,269.0,1.5,,,,,,
258,,feedback,,html-keyboard-response,258,404137,0.0-1.0-51.0-0.0-3.0-0.0,0,0,99,,,,,,49.0,,,,,1.0,,,,,,,,,,,,,,,,,,,,,,,,,,,270.5,1.0,,,,,,
259,,iti,,html-keyboard-response,259,405641,0.0-1.0-51.0-0.0-5.0,0,0,99,,,,,,49.0,,,,,1.0,,,,,,,,,,,,,,,,,,,,,,,,,,,271.5,1.5,,,,,,
260,,choice,,html-keyboard-response,260,406491,0.0-1.0-52.0-0.0-0.0,0,0,99,,846.0,,,50.0,50.0,50.0,2000.0,1000.0,0.0,1.0,1.0,40-60,0.0,,small table,telescope,40.0,60.0,small table2,telescope12,60.0,40.0,Atable126.jpg,Junior Land and Sky Telescope.jpg,/static/Category_learning/Stimuli/Experimental_stims/small table/Atable126.jpg,/static/Category_learning/Stimuli/Experimental_stims/telescope/Junior Land and Sky Telescope.jpg,1.0,small table,telescope,40.0,60.0,small table2,telescope12,60.0,40.0,0.0,273.0,0.846,,,,,,
261,,confirmation,,html-keyboard-response,261,407148,0.0-1.0-52.0-0.0-1.0-0.0,0,0,99,,,,,,50.0,,,,,1.0,,,,,,,,,,,,,,,,,,,,,,,,,,,273.846,0.654,,,,,,
262,,isi,,html-keyboard-response,262,409153,0.0-1.0-52.0-0.0-2.0,0,0,99,,,,,,50.0,,,,,1.0,,,,,,,,,,,,,,,,,,,,,,,,,,,274.5,2.0,,,,,,
263,,feedback,,html-keyboard-response,263,410160,0.0-1.0-52.0-0.0-3.0-0.0,0,0,99,,,,,,50.0,,,,,1.0,,,,,,,,,,,,,,,,,,,,,,,,,,,276.5,1.0,,,,,,
264,,iti,,html-keyboard-response,264,411166,0.0-1.0-52.0-0.0-5.0,0,0,99,,,,,,50.0,,,,,1.0,,,,,,,,,,,,,,,,,,,,,,,,,,,277.5,1.0,,,,,,
265,,choice,,html-keyboard-response,265,411939,0.0-1.0-53.0-0.0-0.0,0,0,99,,770.0,,,50.0,51.0,51.0,3500.0,1500.0,0.0,1.0,0.0,20-80,,1.0,bench,frame,80.0,20.0,bench6,frame7,60.0,20.0,26370121.thl.jpg,AFRAME152.jpg,/static/Category_learning/Stimuli/Experimental_stims/bench/26370121.thl.jpg,/static/Category_learning/Stimuli/Experimental_stims/frame/AFRAME152.jpg,1.0,bench,frame,80.0,20.0,bench6,frame7,60.0,20.0,0.0,278.5,0.77,,,,,,
266,,confirmation,,html-keyboard-response,266,412672,0.0-1.0-53.0-0.0-1.0-0.0,0,0,99,,,,,,51.0,,,,,1.0,,,,,,,,,,,,,,,,,,,,,,,,,,,279.27,0.73,,,,,,
267,,isi,,html-keyboard-response,267,416179,0.0-1.0-53.0-0.0-2.0,0,0,99,,,,,,51.0,,,,,1.0,,,,,,,,,,,,,,,,,,,,,,,,,,,280.0,3.5,,,,,,
268,,feedback,,html-keyboard-response,268,417186,0.0-1.0-53.0-0.0-3.0-0.0,0,0,99,,,,,,51.0,,,,,1.0,,,,,,,,,,,,,,,,,,,,,,,,,,,283.5,1.0,,,,,,
269,,iti,,html-keyboard-response,269,418694,0.0-1.0-53.0-0.0-5.0,0,0,99,,,,,,51.0,,,,,1.0,,,,,,,,,,,,,,,,,,,,,,,,,,,284.5,1.5,,,,,,
270,,choice,,html-keyboard-response,270,419360,0.0-1.0-54.0-0.0-0.0,0,0,99,,663.0,,,50.0,52.0,52.0,1000.0,1000.0,0.0,1.0,0.0,20-80,,1.0,bench,motorcycle,80.0,20.0,bench5,motorcycle7,60.0,20.0,APARKBEN8.jpg,MotoSmall.jpg,/static/Category_learning/Stimuli/Experimental_stims/bench/APARKBEN8.jpg,/static/Category_learning/Stimuli/Experimental_stims/motorcycle/MotoSmall.jpg,1.0,bench,motorcycle,80.0,20.0,bench5,motorcycle7,60.0,20.0,0.0,286.0,0.663,,,,,,
271,,confirmation,,html-keyboard-response,271,420203,0.0-1.0-54.0-0.0-1.0-0.0,0,0,99,,,,,,52.0,,,,,1.0,,,,,,,,,,,,,,,,,,,,,,,,,,,286.663,0.837,,,,,,
272,,isi,,html-keyboard-response,272,421211,0.0-1.0-54.0-0.0-2.0,0,0,99,,,,,,52.0,,,,,1.0,,,,,,,,,,,,,,,,,,,,,,,,,,,287.5,1.0,,,,,,
273,,feedback,,html-keyboard-response,273,422216,0.0-1.0-54.0-0.0-3.0-0.0,0,0,99,,,,,,52.0,,,,,1.0,,,,,,,,,,,,,,,,,,,,,,,,,,,288.5,1.0,,,,,,
274,,iti,,html-keyboard-response,274,423222,0.0-1.0-54.0-0.0-5.0,0,0,99,,,,,,52.0,,,,,1.0,,,,,,,,,,,,,,,,,,,,,,,,,,,289.5,1.0,,,,,,
275,,choice,,html-keyboard-response,275,424330,0.0-1.0-55.0-0.0-0.0,0,0,99,,1104.0,,,51.0,53.0,53.0,2000.0,2000.0,0.0,1.0,0.0,60-60,,,stool,yarn,60.0,60.0,stool9,yarn9,60.0,40.0,ASTOOL7.jpg,Aballofyarn26.jpg,/static/Category_learning/Stimuli/Experimental_stims/stool/ASTOOL7.jpg,/static/Category_learning/Stimuli/Experimental_stims/yarn/Aballofyarn26.jpg,0.0,yarn,stool,60.0,60.0,yarn9,stool9,40.0,60.0,0.0,290.5,1.104,,,,,,
276,,confirmation,,html-keyboard-response,276,424730,0.0-1.0-55.0-0.0-1.0-0.0,0,0,99,,,,,,53.0,,,,,1.0,,,,,,,,,,,,,,,,,,,,,,,,,,,291.604,0.396,,,,,,
277,,isi,,html-keyboard-response,277,426737,0.0-1.0-55.0-0.0-2.0,0,0,99,,,,,,53.0,,,,,1.0,,,,,,,,,,,,,,,,,,,,,,,,,,,292.0,2.0,,,,,,
278,,feedback,,html-keyboard-response,278,427745,0.0-1.0-55.0-0.0-3.0-0.0,0,0,99,,,,,,53.0,,,,,1.0,,,,,,,,,,,,,,,,,,,,,,,,,,,294.0,1.0,,,,,,
279,,iti,,html-keyboard-response,279,429753,0.0-1.0-55.0-0.0-5.0,0,0,99,,,,,,53.0,,,,,1.0,,,,,,,,,,,,,,,,,,,,,,,,,,,295.0,2.0,,,,,,
280,,choice,,html-keyboard-response,280,430702,0.0-1.0-56.0-0.0-0.0,0,0,99,,945.0,,,51.0,54.0,54.0,1000.0,1000.0,0.0,1.0,0.0,60-80,,0.0,stool,bench,60.0,80.0,stool7,bench7,60.0,100.0,ASTOOL25.jpg,ACONBENCH.jpg,/static/Category_learning/Stimuli/Experimental_stims/stool/ASTOOL25.jpg,/static/Category_learning/Stimuli/Experimental_stims/bench/ACONBENCH.jpg,0.0,bench,stool,80.0,60.0,bench7,stool7,100.0,60.0,0.0,297.0,0.945,,,,,,
281,,confirmation,,html-keyboard-response,281,431262,0.0-1.0-56.0-0.0-1.0-0.0,0,0,99,,,,,,54.0,,,,,1.0,,,,,,,,,,,,,,,,,,,,,,,,,,,297.945,0.555,,,,,,
282,,isi,,html-keyboard-response,282,432270,0.0-1.0-56.0-0.0-2.0,0,0,99,,,,,,54.0,,,,,1.0,,,,,,,,,,,,,,,,,,,,,,,,,,,298.5,1.0,,,,,,
283,,feedback,,html-keyboard-response,283,433276,0.0-1.0-56.0-0.0-3.0-0.0,0,0,99,,,,,,54.0,,,,,1.0,,,,,,,,,,,,,,,,,,,,,,,,,,,299.5,1.0,,,,,,
284,,iti,,html-keyboard-response,284,434283,0.0-1.0-56.0-0.0-5.0,0,0,99,,,,,,54.0,,,,,1.0,,,,,,,,,,,,,,,,,,,,,,,,,,,300.5,1.0,,,,,,
285,,choice,,html-keyboard-response,285,435094,0.0-1.0-57.0-0.0-0.0,0,0,99,,807.0,,,51.0,55.0,55.0,1000.0,1000.0,0.0,1.0,1.0,80-80,1.0,,bench,bench,80.0,80.0,bench6,bench7,60.0,100.0,26370121.thl.jpg,ACONBENCH.jpg,/static/Category_learning/Stimuli/Experimental_stims/bench/26370121.thl.jpg,/static/Category_learning/Stimuli/Experimental_stims/bench/ACONBENCH.jpg,0.0,bench,bench,80.0,80.0,bench7,bench6,100.0,60.0,0.0,301.5,0.807,,,,,,
286,,confirmation,,html-keyboard-response,286,435791,0.0-1.0-57.0-0.0-1.0-0.0,0,0,99,,,,,,55.0,,,,,1.0,,,,,,,,,,,,,,,,,,,,,,,,,,,302.307,0.693,,,,,,
287,,isi,,html-keyboard-response,287,436797,0.0-1.0-57.0-0.0-2.0,0,0,99,,,,,,55.0,,,,,1.0,,,,,,,,,,,,,,,,,,,,,,,,,,,303.0,1.0,,,,,,
288,,feedback,,html-keyboard-response,288,437804,0.0-1.0-57.0-0.0-3.0-0.0,0,0,99,,,,,,55.0,,,,,1.0,,,,,,,,,,,,,,,,,,,,,,,,,,,304.0,1.0,,,,,,
289,,iti,,html-keyboard-response,289,438811,0.0-1.0-57.0-0.0-5.0,0,0,99,,,,,,55.0,,,,,1.0,,,,,,,,,,,,,,,,,,,,,,,,,,,305.0,1.0,,,,,,
290,,choice,,html-keyboard-response,290,439557,0.0-1.0-58.0-0.0-0.0,0,0,99,,742.0,,,50.0,56.0,56.0,3000.0,1000.0,0.0,1.0,0.0,40-60,,1.0,train,poker card,60.0,40.0,train11,poker card6,80.0,40.0,train1.jpg,22864212.thl.jpg,/static/Category_learning/Stimuli/Experimental_stims/train/train1.jpg,/static/Category_learning/Stimuli/Experimental_stims/poker card/22864212.thl.jpg,1.0,train,poker card,60.0,40.0,train11,poker card6,80.0,40.0,0.0,306.0,0.742,,,,,,
291,,confirmation,,html-keyboard-response,291,440320,0.0-1.0-58.0-0.0-1.0-0.0,0,0,99,,,,,,56.0,,,,,1.0,,,,,,,,,,,,,,,,,,,,,,,,,,,306.742,0.758,,,,,,
292,,isi,,html-keyboard-response,292,443323,0.0-1.0-58.0-0.0-2.0,0,0,99,,,,,,56.0,,,,,1.0,,,,,,,,,,,,,,,,,,,,,,,,,,,307.5,3.0,,,,,,
293,,feedback,,html-keyboard-response,293,444330,0.0-1.0-58.0-0.0-3.0-0.0,0,0,99,,,,,,56.0,,,,,1.0,,,,,,,,,,,,,,,,,,,,,,,,,,,310.5,1.0,,,,,,
294,,iti,,html-keyboard-response,294,445336,0.0-1.0-58.0-0.0-5.0,0,0,99,,,,,,56.0,,,,,1.0,,,,,,,,,,,,,,,,,,,,,,,,,,,311.5,1.0,,,,,,
295,,choice,,html-keyboard-response,295,446181,0.0-1.0-59.0-0.0-0.0,0,0,99,,841.0,,,50.0,57.0,57.0,1000.0,1500.0,0.0,1.0,0.0,80-80,,,door knob,baby carriage,80.0,80.0,door knob7,baby carriage9,60.0,100.0,doorknob2.jpg,Antique baby Carriage 7.jpg,/static/Category_learning/Stimuli/Experimental_stims/door knob/doorknob2.jpg,/static/Category_learning/Stimuli/Experimental_stims/baby carriage/Antique baby Carriage 7.jpg,1.0,door knob,baby carriage,80.0,80.0,door knob7,baby carriage9,60.0,100.0,0.0,312.5,0.841,,,,,,
296,,confirmation,,html-keyboard-response,296,446844,0.0-1.0-59.0-0.0-1.0-0.0,0,0,99,,,,,,57.0,,,,,1.0,,,,,,,,,,,,,,,,,,,,,,,,,,,313.341,0.659,,,,,,
297,,isi,,html-keyboard-response,297,447848,0.0-1.0-59.0-0.0-2.0,0,0,99,,,,,,57.0,,,,,1.0,,,,,,,,,,,,,,,,,,,,,,,,,,,314.0,1.0,,,,,,
298,,feedback,,html-keyboard-response,298,448852,0.0-1.0-59.0-0.0-3.0-0.0,0,0,99,,,,,,57.0,,,,,1.0,,,,,,,,,,,,,,,,,,,,,,,,,,,315.0,1.0,,,,,,
299,,iti,,html-keyboard-response,299,450357,0.0-1.0-59.0-0.0-5.0,0,0,99,,,,,,57.0,,,,,1.0,,,,,,,,,,,,,,,,,,,,,,,,,,,316.0,1.5,,,,,,
300,,choice,,html-keyboard-response,300,451862,0.0-1.0-60.0-0.0-0.0,0,0,99,,,,,,58.0,58.0,1500.0,1000.0,0.0,1.0,1.0,60-60,1.0,,train,train,60.0,60.0,train11,train6,80.0,40.0,train1.jpg,train9.jpg,/static/Category_learning/Stimuli/Experimental_stims/train/train1.jpg,/static/Category_learning/Stimuli/Experimental_stims/train/train9.jpg,,,,,,,,,,1.0,317.5,1.5,,,,,,
301,,isi,,html-keyboard-response,301,453370,0.0-1.0-60.0-0.0-2.0,0,0,99,,,,,,58.0,,,,,1.0,,,,,,,,,,,,,,,,,,,,,,,,,,,319.0,1.5,,,,,,
302,,no_response,,html-keyboard-response,302,454377,0.0-1.0-60.0-0.0-4.0-0.0,0,0,99,,,,,,58.0,,,,,1.0,,,,,,,,,,,,,,,,,,,,,,,,,,,320.5,1.0,,,,,,
303,,iti,,html-keyboard-response,303,455397,0.0-1.0-60.0-0.0-5.0,0,0,99,,,,,,58.0,,,,,1.0,,,,,,,,,,,,,,,,,,,,,,,,,,,321.5,1.0,,,,,,
304,,choice,,html-keyboard-response,304,455861,0.0-1.0-60.0-0.1-0.1,0,0,99,,460.0,,,51.0,58.0,58.0,1500.0,1000.0,0.0,1.0,1.0,60-60,1.0,,train,train,60.0,60.0,train11,train6,80.0,40.0,train1.jpg,train9.jpg,/static/Category_learning/Stimuli/Experimental_stims/train/train1.jpg,/static/Category_learning/Stimuli/Experimental_stims/train/train9.jpg,0.0,train,train,60.0,60.0,train6,train11,40.0,80.0,0.0,322.5,0.46,,,,,,
305,,confirmation,,html-keyboard-response,305,456906,0.0-1.0-60.0-0.1-1.1-0.1,0,0,99,,,,,,58.0,,,,,1.0,,,,,,,,,,,,,,,,,,,,,,,,,,,322.96,1.04,,,,,,
306,,isi,,html-keyboard-response,306,458415,0.0-1.0-60.0-0.1-2.1,0,0,99,,,,,,58.0,,,,,1.0,,,,,,,,,,,,,,,,,,,,,,,,,,,324.0,1.5,,,,,,
307,,feedback,,html-keyboard-response,307,459421,0.0-1.0-60.0-0.1-3.1-0.1,0,0,99,,,,,,58.0,,,,,1.0,,,,,,,,,,,,,,,,,,,,,,,,,,,325.5,1.0,,,,,,
308,,iti,,html-keyboard-response,308,462924,0.0-1.0-60.0-0.1-5.1,0,0,99,,,,,,58.0,,,,,1.0,,,,,,,,,,,,,,,,,,,,,,,,,,,326.5,3.5,,,,,,
309,,choice,,html-keyboard-response,309,463695,0.0-1.0-61.0-0.0-0.0,0,0,99,,767.0,,,50.0,59.0,59.0,3500.0,1000.0,0.0,1.0,0.0,60-80,,0.0,watch,bench,60.0,80.0,watch9,bench10,40.0,100.0,mens-diamond-watches-euro-48733-ab.jpg,APARKBE16.jpg,/static/Category_learning/Stimuli/Experimental_stims/watch/mens-diamond-watches-euro-48733-ab.jpg,/static/Category_learning/Stimuli/Experimental_stims/bench/APARKBE16.jpg,1.0,watch,bench,60.0,80.0,watch9,bench10,40.0,100.0,0.0,330.0,0.767,,,,,,
310,,confirmation,,html-keyboard-response,310,464434,0.0-1.0-61.0-0.0-1.0-0.0,0,0,99,,,,,,59.0,,,,,1.0,,,,,,,,,,,,,,,,,,,,,,,,,,,330.767,0.733,,,,,,
311,,isi,,html-keyboard-response,311,467942,0.0-1.0-61.0-0.0-2.0,0,0,99,,,,,,59.0,,,,,1.0,,,,,,,,,,,,,,,,,,,,,,,,,,,331.5,3.5,,,,,,
312,,feedback,,html-keyboard-response,312,468949,0.0-1.0-61.0-0.0-3.0-0.0,0,0,99,,,,,,59.0,,,,,1.0,,,,,,,,,,,,,,,,,,,,,,,,,,,335.0,1.0,,,,,,
313,,iti,,html-keyboard-response,313,469954,0.0-1.0-61.0-0.0-5.0,0,0,99,,,,,,59.0,,,,,1.0,,,,,,,,,,,,,,,,,,,,,,,,,,,336.0,1.0,,,,,,
314,,choice,,html-keyboard-response,314,470781,0.0-1.0-62.0-0.0-0.0,0,0,99,,824.0,,,50.0,60.0,60.0,1500.0,1000.0,0.0,1.0,0.0,40-40,,,pen,necklace,40.0,40.0,pen8,necklace12,60.0,40.0,1383_1749_popup copy.jpg,necklascenew07.jpg,/static/Category_learning/Stimuli/Experimental_stims/pen/1383_1749_popup copy.jpg,/static/Category_learning/Stimuli/Experimental_stims/necklace/necklascenew07.jpg,1.0,pen,necklace,40.0,40.0,pen8,necklace12,60.0,40.0,0.0,337.0,0.824,,,,,,
315,,confirmation,,html-keyboard-response,315,471462,0.0-1.0-62.0-0.0-1.0-0.0,0,0,99,,,,,,60.0,,,,,1.0,,,,,,,,,,,,,,,,,,,,,,,,,,,337.824,0.676,,,,,,
316,,isi,,html-keyboard-response,316,472965,0.0-1.0-62.0-0.0-2.0,0,0,99,,,,,,60.0,,,,,1.0,,,,,,,,,,,,,,,,,,,,,,,,,,,338.5,1.5,,,,,,
317,,feedback,,html-keyboard-response,317,473969,0.0-1.0-62.0-0.0-3.0-0.0,0,0,99,,,,,,60.0,,,,,1.0,,,,,,,,,,,,,,,,,,,,,,,,,,,340.0,1.0,,,,,,
318,,iti,,html-keyboard-response,318,474973,0.0-1.0-62.0-0.0-5.0,0,0,99,,,,,,60.0,,,,,1.0,,,,,,,,,,,,,,,,,,,,,,,,,,,341.0,1.0,,,,,,
319,,choice,,html-keyboard-response,319,475848,0.0-1.0-63.0-0.0-0.0,0,0,99,,871.0,,,50.0,61.0,61.0,1000.0,1000.0,0.0,1.0,0.0,20-60,,1.0,train,hammer,60.0,20.0,train15,hammer14,40.0,40.0,master-TD006.jpg,hammer.jpg,/static/Category_learning/Stimuli/Experimental_stims/train/master-TD006.jpg,/static/Category_learning/Stimuli/Experimental_stims/hammer/hammer.jpg,1.0,train,hammer,60.0,20.0,train15,hammer14,40.0,40.0,0.0,342.0,0.871,,,,,,
320,,confirmation,,html-keyboard-response,320,476480,0.0-1.0-63.0-0.0-1.0-0.0,0,0,99,,,,,,61.0,,,,,1.0,,,,,,,,,,,,,,,,,,,,,,,,,,,342.871,0.629,,,,,,
321,,isi,,html-keyboard-response,321,477485,0.0-1.0-63.0-0.0-2.0,0,0,99,,,,,,61.0,,,,,1.0,,,,,,,,,,,,,,,,,,,,,,,,,,,343.5,1.0,,,,,,
322,,feedback,,html-keyboard-response,322,478493,0.0-1.0-63.0-0.0-3.0-0.0,0,0,99,,,,,,61.0,,,,,1.0,,,,,,,,,,,,,,,,,,,,,,,,,,,344.5,1.0,,,,,,
323,,iti,,html-keyboard-response,323,479500,0.0-1.0-63.0-0.0-5.0,0,0,99,,,,,,61.0,,,,,1.0,,,,,,,,,,,,,,,,,,,,,,,,,,,345.5,1.0,,,,,,
324,,choice,,html-keyboard-response,324,480246,0.0-1.0-64.0-0.0-0.0,0,0,99,,743.0,,,50.0,62.0,62.0,1000.0,1000.0,0.0,1.0,0.0,20-80,,1.0,dresser,key chain,80.0,20.0,dresser13,key chain7,80.0,40.0,ADRESSE70.jpg,keychain-gentoo-linux.jpg,/static/Category_learning/Stimuli/Experimental_stims/dresser/ADRESSE70.jpg,/static/Category_learning/Stimuli/Experimental_stims/key chain/keychain-gentoo-linux.jpg,1.0,dresser,key chain,80.0,20.0,dresser13,key chain7,80.0,40.0,0.0,346.5,0.743,,,,,,
325,,confirmation,,html-keyboard-response,325,481007,0.0-1.0-64.0-0.0-1.0-0.0,0,0,99,,,,,,62.0,,,,,1.0,,,,,,,,,,,,,,,,,,,,,,,,,,,347.243,0.757,,,,,,
326,,isi,,html-keyboard-response,326,482012,0.0-1.0-64.0-0.0-2.0,0,0,99,,,,,,62.0,,,,,1.0,,,,,,,,,,,,,,,,,,,,,,,,,,,348.0,1.0,,,,,,
327,,feedback,,html-keyboard-response,327,483017,0.0-1.0-64.0-0.0-3.0-0.0,0,0,99,,,,,,62.0,,,,,1.0,,,,,,,,,,,,,,,,,,,,,,,,,,,349.0,1.0,,,,,,
328,,iti,,html-keyboard-response,328,484023,0.0-1.0-64.0-0.0-5.0,0,0,99,,,,,,62.0,,,,,1.0,,,,,,,,,,,,,,,,,,,,,,,,,,,350.0,1.0,,,,,,
329,,block_over,,html-keyboard-response,329,541895,0.0-1.0-64.0-0.0-7.0-0.0,0,0,99,,57865.0,,,83.0,62.0,,,,,,,,,,,,,,,,,,,,,,,,,,,,,,,,,,,,,,,
330,,start_run,,html-keyboard-response,330,569528,0.0-1.0-64.0-0.0-7.0-1.0,0,0,99,,27630.0,,,84.0,,,,,,,,,,,,,,,,,,,,,,,,,,,,,,,,,,,,,,,,
331,,choice,,html-keyboard-response,331,570285,0.0-1.0-65.0-0.0-0.0,0,0,99,,753.0,,,50.0,63.0,65.0,3500.0,1000.0,0.0,2.0,0.0,20-60,,1.0,telescope,key chain,60.0,20.0,telescope4,key chain14,60.0,0.0,TELESCOPE_BLACK_GOOD_SMALL.jpg,Jif Keychain 285.jpg,/static/Category_learning/Stimuli/Experimental_stims/telescope/TELESCOPE_BLACK_GOOD_SMALL.jpg,/static/Category_learning/Stimuli/Experimental_stims/key chain/Jif Keychain 285.jpg,1.0,telescope,key chain,60.0,20.0,telescope4,key chain14,60.0,0.0,0.0,0.0,0.753,,,,,,
332,,confirmation,,html-keyboard-response,332,571036,0.0-1.0-65.0-0.0-1.0-0.0,0,0,99,,,,,,63.0,,,,,2.0,,,,,,,,,,,,,,,,,,,,,,,,,,,0.753,0.747,,,,,,
333,,isi,,html-keyboard-response,333,574539,0.0-1.0-65.0-0.0-2.0,0,0,99,,,,,,63.0,,,,,2.0,,,,,,,,,,,,,,,,,,,,,,,,,,,1.5,3.5,,,,,,
334,,feedback,,html-keyboard-response,334,575544,0.0-1.0-65.0-0.0-3.0-0.0,0,0,99,,,,,,63.0,,,,,2.0,,,,,,,,,,,,,,,,,,,,,,,,,,,5.0,1.0,,,,,,
335,,iti,,html-keyboard-response,335,576552,0.0-1.0-65.0-0.0-5.0,0,0,99,,,,,,63.0,,,,,2.0,,,,,,,,,,,,,,,,,,,,,,,,,,,6.0,1.0,,,,,,
336,,choice,,html-keyboard-response,336,577422,0.0-1.0-66.0-0.0-0.0,0,0,99,,866.0,,,50.0,64.0,66.0,2000.0,1000.0,0.0,2.0,0.0,20-60,,0.0,key chain,yarn,20.0,60.0,key chain3,yarn2,20.0,80.0,Keychain_Voice_Recorder.jpg,Aballofyarn66.jpg,/static/Category_learning/Stimuli/Experimental_stims/key chain/Keychain_Voice_Recorder.jpg,/static/Category_learning/Stimuli/Experimental_stims/yarn/Aballofyarn66.jpg,1.0,key chain,yarn,20.0,60.0,key chain3,yarn2,20.0,80.0,0.0,7.0,0.866,,,,,,
337,,confirmation,,html-keyboard-response,337,578060,0.0-1.0-66.0-0.0-1.0-0.0,0,0,99,,,,,,64.0,,,,,2.0,,,,,,,,,,,,,,,,,,,,,,,,,,,7.866,0.634,,,,,,
338,,isi,,html-keyboard-response,338,580064,0.0-1.0-66.0-0.0-2.0,0,0,99,,,,,,64.0,,,,,2.0,,,,,,,,,,,,,,,,,,,,,,,,,,,8.5,2.0,,,,,,
339,,feedback,,html-keyboard-response,339,581071,0.0-1.0-66.0-0.0-3.0-0.0,0,0,99,,,,,,64.0,,,,,2.0,,,,,,,,,,,,,,,,,,,,,,,,,,,10.5,1.0,,,,,,
340,,iti,,html-keyboard-response,340,582079,0.0-1.0-66.0-0.0-5.0,0,0,99,,,,,,64.0,,,,,2.0,,,,,,,,,,,,,,,,,,,,,,,,,,,11.5,1.0,,,,,,
341,,choice,,html-keyboard-response,341,583428,0.0-1.0-67.0-0.0-0.0,0,0,99,,1345.0,,,51.0,65.0,67.0,1000.0,1000.0,0.0,2.0,0.0,40-60,,0.0,small table,watch,40.0,60.0,small table15,watch2,60.0,60.0,ATABLE20.jpg,AL0004-03E_MED.jpg,/static/Category_learning/Stimuli/Experimental_stims/small table/ATABLE20.jpg,/static/Category_learning/Stimuli/Experimental_stims/watch/AL0004-03E_MED.jpg,0.0,watch,small table,60.0,40.0,watch2,small table15,60.0,60.0,0.0,12.5,1.345,,,,,,
342,,confirmation,,html-keyboard-response,342,583587,0.0-1.0-67.0-0.0-1.0-0.0,0,0,99,,,,,,65.0,,,,,2.0,,,,,,,,,,,,,,,,,,,,,,,,,,,13.845,0.155,,,,,,
343,,isi,,html-keyboard-response,343,584593,0.0-1.0-67.0-0.0-2.0,0,0,99,,,,,,65.0,,,,,2.0,,,,,,,,,,,,,,,,,,,,,,,,,,,14.0,1.0,,,,,,
344,,feedback,,html-keyboard-response,344,585600,0.0-1.0-67.0-0.0-3.0-0.0,0,0,99,,,,,,65.0,,,,,2.0,,,,,,,,,,,,,,,,,,,,,,,,,,,15.0,1.0,,,,,,
345,,iti,,html-keyboard-response,345,586606,0.0-1.0-67.0-0.0-5.0,0,0,99,,,,,,65.0,,,,,2.0,,,,,,,,,,,,,,,,,,,,,,,,,,,16.0,1.0,,,,,,
346,,choice,,html-keyboard-response,346,587480,0.0-1.0-68.0-0.0-0.0,0,0,99,,870.0,,,51.0,66.0,68.0,3500.0,1000.0,0.0,2.0,0.0,40-60,,1.0,yarn,necklace,60.0,40.0,yarn11,necklace7,60.0,60.0,Aballofpinky2.jpg,Anecklace12.jpg,/static/Category_learning/Stimuli/Experimental_stims/yarn/Aballofpinky2.jpg,/static/Category_learning/Stimuli/Experimental_stims/necklace/Anecklace12.jpg,0.0,necklace,yarn,40.0,60.0,necklace7,yarn11,60.0,60.0,0.0,17.0,0.87,,,,,,
347,,confirmation,,html-keyboard-response,347,588114,0.0-1.0-68.0-0.0-1.0-0.0,0,0,99,,,,,,66.0,,,,,2.0,,,,,,,,,,,,,,,,,,,,,,,,,,,17.87,0.63,,,,,,
348,,isi,,html-keyboard-response,348,591623,0.0-1.0-68.0-0.0-2.0,0,0,99,,,,,,66.0,,,,,2.0,,,,,,,,,,,,,,,,,,,,,,,,,,,18.5,3.5,,,,,,
349,,feedback,,html-keyboard-response,349,592630,0.0-1.0-68.0-0.0-3.0-0.0,0,0,99,,,,,,66.0,,,,,2.0,,,,,,,,,,,,,,,,,,,,,,,,,,,22.0,1.0,,,,,,
350,,iti,,html-keyboard-response,350,593634,0.0-1.0-68.0-0.0-5.0,0,0,99,,,,,,66.0,,,,,2.0,,,,,,,,,,,,,,,,,,,,,,,,,,,23.0,1.0,,,,,,
351,,choice,,html-keyboard-response,351,594340,0.0-1.0-69.0-0.0-0.0,0,0,99,,702.0,,,50.0,67.0,69.0,1500.0,1000.0,0.0,2.0,0.0,20-80,,1.0,bongo,hat,80.0,20.0,bongo10,hat3,60.0,0.0,22945915.thl.jpg,Astrawhat49.jpg,/static/Category_learning/Stimuli/Experimental_stims/bongo/22945915.thl.jpg,/static/Category_learning/Stimuli/Experimental_stims/hat/Astrawhat49.jpg,1.0,bongo,hat,80.0,20.0,bongo10,hat3,60.0,0.0,0.0,24.0,0.702,,,,,,
352,,confirmation,,html-keyboard-response,352,595142,0.0-1.0-69.0-0.0-1.0-0.0,0,0,99,,,,,,67.0,,,,,2.0,,,,,,,,,,,,,,,,,,,,,,,,,,,24.702,0.798,,,,,,
353,,isi,,html-keyboard-response,353,596646,0.0-1.0-69.0-0.0-2.0,0,0,99,,,,,,67.0,,,,,2.0,,,,,,,,,,,,,,,,,,,,,,,,,,,25.5,1.5,,,,,,
354,,feedback,,html-keyboard-response,354,597650,0.0-1.0-69.0-0.0-3.0-0.0,0,0,99,,,,,,67.0,,,,,2.0,,,,,,,,,,,,,,,,,,,,,,,,,,,27.0,1.0,,,,,,
355,,iti,,html-keyboard-response,355,598657,0.0-1.0-69.0-0.0-5.0,0,0,99,,,,,,67.0,,,,,2.0,,,,,,,,,,,,,,,,,,,,,,,,,,,28.0,1.0,,,,,,
356,,choice,,html-keyboard-response,356,599781,0.0-1.0-70.0-0.0-0.0,0,0,99,,1121.0,,,50.0,68.0,70.0,1500.0,1500.0,0.0,2.0,1.0,80-80,1.0,,bongo,bongo,80.0,80.0,bongo8,bongo10,80.0,60.0,26390661.thl.jpg,22945915.thl.jpg,/static/Category_learning/Stimuli/Experimental_stims/bongo/26390661.thl.jpg,/static/Category_learning/Stimuli/Experimental_stims/bongo/22945915.thl.jpg,1.0,bongo,bongo,80.0,80.0,bongo8,bongo10,80.0,60.0,0.0,29.0,1.121,,,,,,
357,,confirmation,,html-keyboard-response,357,600164,0.0-1.0-70.0-0.0-1.0-0.0,0,0,99,,,,,,68.0,,,,,2.0,,,,,,,,,,,,,,,,,,,,,,,,,,,30.121,0.379,,,,,,
358,,isi,,html-keyboard-response,358,601668,0.0-1.0-70.0-0.0-2.0,0,0,99,,,,,,68.0,,,,,2.0,,,,,,,,,,,,,,,,,,,,,,,,,,,30.5,1.5,,,,,,
359,,feedback,,html-keyboard-response,359,602675,0.0-1.0-70.0-0.0-3.0-0.0,0,0,99,,,,,,68.0,,,,,2.0,,,,,,,,,,,,,,,,,,,,,,,,,,,32.0,1.0,,,,,,
360,,iti,,html-keyboard-response,360,604180,0.0-1.0-70.0-0.0-5.0,0,0,99,,,,,,68.0,,,,,2.0,,,,,,,,,,,,,,,,,,,,,,,,,,,33.0,1.5,,,,,,
361,,choice,,html-keyboard-response,361,605325,0.0-1.0-71.0-0.0-0.0,0,0,99,,1140.0,,,50.0,69.0,71.0,1500.0,1000.0,0.0,2.0,1.0,60-60,1.0,,watch,watch,60.0,60.0,watch2,watch9,60.0,40.0,AL0004-03E_MED.jpg,mens-diamond-watches-euro-48733-ab.jpg,/static/Category_learning/Stimuli/Experimental_stims/watch/AL0004-03E_MED.jpg,/static/Category_learning/Stimuli/Experimental_stims/watch/mens-diamond-watches-euro-48733-ab.jpg,1.0,watch,watch,60.0,60.0,watch2,watch9,60.0,40.0,0.0,34.5,1.14,,,,,,
362,,confirmation,,html-keyboard-response,362,605689,0.0-1.0-71.0-0.0-1.0-0.0,0,0,99,,,,,,69.0,,,,,2.0,,,,,,,,,,,,,,,,,,,,,,,,,,,35.64,0.36,,,,,,
363,,isi,,html-keyboard-response,363,607198,0.0-1.0-71.0-0.0-2.0,0,0,99,,,,,,69.0,,,,,2.0,,,,,,,,,,,,,,,,,,,,,,,,,,,36.0,1.5,,,,,,
364,,feedback,,html-keyboard-response,364,608204,0.0-1.0-71.0-0.0-3.0-0.0,0,0,99,,,,,,69.0,,,,,2.0,,,,,,,,,,,,,,,,,,,,,,,,,,,37.5,1.0,,,,,,
365,,iti,,html-keyboard-response,365,609210,0.0-1.0-71.0-0.0-5.0,0,0,99,,,,,,69.0,,,,,2.0,,,,,,,,,,,,,,,,,,,,,,,,,,,38.5,1.0,,,,,,
366,,choice,,html-keyboard-response,366,610052,0.0-1.0-72.0-0.0-0.0,0,0,99,,838.0,,,51.0,70.0,72.0,1000.0,2000.0,0.0,2.0,0.0,20-60,,0.0,microscope,telescope,20.0,60.0,microscope12,telescope14,0.0,80.0,usbdigitalmicroscope1_small1.jpg,T09748dt.jpg,/static/Category_learning/Stimuli/Experimental_stims/microscope/usbdigitalmicroscope1_small1.jpg,/static/Category_learning/Stimuli/Experimental_stims/telescope/T09748dt.jpg,0.0,telescope,microscope,60.0,20.0,telescope14,microscope12,80.0,0.0,0.0,39.5,0.838,,,,,,
367,,confirmation,,html-keyboard-response,367,610717,0.0-1.0-72.0-0.0-1.0-0.0,0,0,99,,,,,,70.0,,,,,2.0,,,,,,,,,,,,,,,,,,,,,,,,,,,40.338,0.662,,,,,,
368,,isi,,html-keyboard-response,368,611722,0.0-1.0-72.0-0.0-2.0,0,0,99,,,,,,70.0,,,,,2.0,,,,,,,,,,,,,,,,,,,,,,,,,,,41.0,1.0,,,,,,
369,,feedback,,html-keyboard-response,369,612726,0.0-1.0-72.0-0.0-3.0-0.0,0,0,99,,,,,,70.0,,,,,2.0,,,,,,,,,,,,,,,,,,,,,,,,,,,42.0,1.0,,,,,,
370,,iti,,html-keyboard-response,370,614735,0.0-1.0-72.0-0.0-5.0,0,0,99,,,,,,70.0,,,,,2.0,,,,,,,,,,,,,,,,,,,,,,,,,,,43.0,2.0,,,,,,
371,,choice,,html-keyboard-response,371,615522,0.0-1.0-73.0-0.0-0.0,0,0,99,,783.0,,,50.0,71.0,73.0,1000.0,1000.0,0.0,2.0,0.0,20-80,,1.0,bench,hat,80.0,20.0,bench13,hat14,80.0,0.0,ABROWNBE4.jpg,Ahat136.jpg,/static/Category_learning/Stimuli/Experimental_stims/bench/ABROWNBE4.jpg,/static/Category_learning/Stimuli/Experimental_stims/hat/Ahat136.jpg,1.0,bench,hat,80.0,20.0,bench13,hat14,80.0,0.0,0.0,45.0,0.783,,,,,,
372,,confirmation,,html-keyboard-response,372,616244,0.0-1.0-73.0-0.0-1.0-0.0,0,0,99,,,,,,71.0,,,,,2.0,,,,,,,,,,,,,,,,,,,,,,,,,,,45.783,0.717,,,,,,
373,,isi,,html-keyboard-response,373,617251,0.0-1.0-73.0-0.0-2.0,0,0,99,,,,,,71.0,,,,,2.0,,,,,,,,,,,,,,,,,,,,,,,,,,,46.5,1.0,,,,,,
374,,feedback,,html-keyboard-response,374,618258,0.0-1.0-73.0-0.0-3.0-0.0,0,0,99,,,,,,71.0,,,,,2.0,,,,,,,,,,,,,,,,,,,,,,,,,,,47.5,1.0,,,,,,
375,,iti,,html-keyboard-response,375,619263,0.0-1.0-73.0-0.0-5.0,0,0,99,,,,,,71.0,,,,,2.0,,,,,,,,,,,,,,,,,,,,,,,,,,,48.5,1.0,,,,,,
376,,choice,,html-keyboard-response,376,620306,0.0-1.0-74.0-0.0-0.0,0,0,99,,1038.0,,,50.0,72.0,74.0,1500.0,1000.0,0.0,2.0,1.0,60-60,1.0,,telescope,telescope,60.0,60.0,telescope4,telescope14,60.0,80.0,TELESCOPE_BLACK_GOOD_SMALL.jpg,T09748dt.jpg,/static/Category_learning/Stimuli/Experimental_stims/telescope/TELESCOPE_BLACK_GOOD_SMALL.jpg,/static/Category_learning/Stimuli/Experimental_stims/telescope/T09748dt.jpg,1.0,telescope,telescope,60.0,60.0,telescope4,telescope14,60.0,80.0,0.0,49.5,1.038,,,,,,
377,,confirmation,,html-keyboard-response,377,620771,0.0-1.0-74.0-0.0-1.0-0.0,0,0,99,,,,,,72.0,,,,,2.0,,,,,,,,,,,,,,,,,,,,,,,,,,,50.538,0.462,,,,,,
378,,isi,,html-keyboard-response,378,622275,0.0-1.0-74.0-0.0-2.0,0,0,99,,,,,,72.0,,,,,2.0,,,,,,,,,,,,,,,,,,,,,,,,,,,51.0,1.5,,,,,,
379,,feedback,,html-keyboard-response,379,623282,0.0-1.0-74.0-0.0-3.0-0.0,0,0,99,,,,,,72.0,,,,,2.0,,,,,,,,,,,,,,,,,,,,,,,,,,,52.5,1.0,,,,,,
380,,iti,,html-keyboard-response,380,624288,0.0-1.0-74.0-0.0-5.0,0,0,99,,,,,,72.0,,,,,2.0,,,,,,,,,,,,,,,,,,,,,,,,,,,53.5,1.0,,,,,,
381,,choice,,html-keyboard-response,381,625219,0.0-1.0-75.0-0.0-0.0,0,0,99,,927.0,,,50.0,73.0,75.0,1000.0,2000.0,0.0,2.0,0.0,20-20,,,motorcycle,hat,20.0,20.0,motorcycle6,hat13,40.0,0.0,motorcycle45364t4t.jpg,Ahatwithfeath.jpg,/static/Category_learning/Stimuli/Experimental_stims/motorcycle/motorcycle45364t4t.jpg,/static/Category_learning/Stimuli/Experimental_stims/hat/Ahatwithfeath.jpg,1.0,motorcycle,hat,20.0,20.0,motorcycle6,hat13,40.0,0.0,0.0,54.5,0.927,,,,,,
382,,confirmation,,html-keyboard-response,382,625796,0.0-1.0-75.0-0.0-1.0-0.0,0,0,99,,,,,,73.0,,,,,2.0,,,,,,,,,,,,,,,,,,,,,,,,,,,55.427,0.573,,,,,,
383,,isi,,html-keyboard-response,383,626800,0.0-1.0-75.0-0.0-2.0,0,0,99,,,,,,73.0,,,,,2.0,,,,,,,,,,,,,,,,,,,,,,,,,,,56.0,1.0,,,,,,
384,,feedback,,html-keyboard-response,384,627807,0.0-1.0-75.0-0.0-3.0-0.0,0,0,99,,,,,,73.0,,,,,2.0,,,,,,,,,,,,,,,,,,,,,,,,,,,57.0,1.0,,,,,,
385,,iti,,html-keyboard-response,385,629815,0.0-1.0-75.0-0.0-5.0,0,0,99,,,,,,73.0,,,,,2.0,,,,,,,,,,,,,,,,,,,,,,,,,,,58.0,2.0,,,,,,
386,,choice,,html-keyboard-response,386,630582,0.0-1.0-76.0-0.0-0.0,0,0,99,,762.0,,,50.0,74.0,76.0,1000.0,1000.0,0.0,2.0,0.0,40-80,,1.0,desk,patio lounge chair,80.0,40.0,desk4,patio lounge chair13,80.0,20.0,AbbeyMiniRadialBIG(1).jpg,grosfillex-bahia-resin-chaise-lounges.jpg,/static/Category_learning/Stimuli/Experimental_stims/desk/AbbeyMiniRadialBIG(1).jpg,/static/Category_learning/Stimuli/Experimental_stims/patio lounge chair/grosfillex-bahia-resin-chaise-lounges.jpg,1.0,desk,patio lounge chair,80.0,40.0,desk4,patio lounge chair13,80.0,20.0,0.0,60.0,0.762,,,,,,
387,,confirmation,,html-keyboard-response,387,631326,0.0-1.0-76.0-0.0-1.0-0.0,0,0,99,,,,,,74.0,,,,,2.0,,,,,,,,,,,,,,,,,,,,,,,,,,,60.762,0.738,,,,,,
388,,isi,,html-keyboard-response,388,632333,0.0-1.0-76.0-0.0-2.0,0,0,99,,,,,,74.0,,,,,2.0,,,,,,,,,,,,,,,,,,,,,,,,,,,61.5,1.0,,,,,,
389,,feedback,,html-keyboard-response,389,633341,0.0-1.0-76.0-0.0-3.0-0.0,0,0,99,,,,,,74.0,,,,,2.0,,,,,,,,,,,,,,,,,,,,,,,,,,,62.5,1.0,,,,,,
390,,iti,,html-keyboard-response,390,634344,0.0-1.0-76.0-0.0-5.0,0,0,99,,,,,,74.0,,,,,2.0,,,,,,,,,,,,,,,,,,,,,,,,,,,63.5,1.0,,,,,,
391,,choice,,html-keyboard-response,391,635165,0.0-1.0-77.0-0.0-0.0,0,0,99,,817.0,,,50.0,75.0,77.0,2000.0,1500.0,0.0,2.0,1.0,80-80,1.0,,bench,bench,80.0,80.0,bench13,bench5,80.0,60.0,ABROWNBE4.jpg,APARKBEN8.jpg,/static/Category_learning/Stimuli/Experimental_stims/bench/ABROWNBE4.jpg,/static/Category_learning/Stimuli/Experimental_stims/bench/APARKBEN8.jpg,1.0,bench,bench,80.0,80.0,bench13,bench5,80.0,60.0,0.0,64.5,0.817,,,,,,
392,,confirmation,,html-keyboard-response,392,635851,0.0-1.0-77.0-0.0-1.0-0.0,0,0,99,,,,,,75.0,,,,,2.0,,,,,,,,,,,,,,,,,,,,,,,,,,,65.317,0.683,,,,,,
393,,isi,,html-keyboard-response,393,637855,0.0-1.0-77.0-0.0-2.0,0,0,99,,,,,,75.0,,,,,2.0,,,,,,,,,,,,,,,,,,,,,,,,,,,66.0,2.0,,,,,,
394,,feedback,,html-keyboard-response,394,638861,0.0-1.0-77.0-0.0-3.0-0.0,0,0,99,,,,,,75.0,,,,,2.0,,,,,,,,,,,,,,,,,,,,,,,,,,,68.0,1.0,,,,,,
395,,iti,,html-keyboard-response,395,640369,0.0-1.0-77.0-0.0-5.0,0,0,99,,,,,,75.0,,,,,2.0,,,,,,,,,,,,,,,,,,,,,,,,,,,69.0,1.5,,,,,,
396,,choice,,html-keyboard-response,396,641281,0.0-1.0-78.0-0.0-0.0,0,0,99,,909.0,,,50.0,76.0,78.0,2000.0,1000.0,0.0,2.0,0.0,20-40,,1.0,patio lounge chair,hat,40.0,20.0,patio lounge chair7,hat2,40.0,40.0,lg_Serenity_Riviera[1].jpg,Ahatwithfeat7.jpg,/static/Category_learning/Stimuli/Experimental_stims/patio lounge chair/lg_Serenity_Riviera[1].jpg,/static/Category_learning/Stimuli/Experimental_stims/hat/Ahatwithfeat7.jpg,1.0,patio lounge chair,hat,40.0,20.0,patio lounge chair7,hat2,40.0,40.0,0.0,70.5,0.909,,,,,,
397,,confirmation,,html-keyboard-response,397,641876,0.0-1.0-78.0-0.0-1.0-0.0,0,0,99,,,,,,76.0,,,,,2.0,,,,,,,,,,,,,,,,,,,,,,,,,,,71.409,0.591,,,,,,
398,,isi,,html-keyboard-response,398,643880,0.0-1.0-78.0-0.0-2.0,0,0,99,,,,,,76.0,,,,,2.0,,,,,,,,,,,,,,,,,,,,,,,,,,,72.0,2.0,,,,,,
399,,feedback,,html-keyboard-response,399,644883,0.0-1.0-78.0-0.0-3.0-0.0,0,0,99,,,,,,76.0,,,,,2.0,,,,,,,,,,,,,,,,,,,,,,,,,,,74.0,1.0,,,,,,
400,,iti,,html-keyboard-response,400,645890,0.0-1.0-78.0-0.0-5.0,0,0,99,,,,,,76.0,,,,,2.0,,,,,,,,,,,,,,,,,,,,,,,,,,,75.0,1.0,,,,,,
401,,choice,,html-keyboard-response,401,646721,0.0-1.0-79.0-0.0-0.0,0,0,99,,826.0,,,51.0,77.0,79.0,1500.0,2000.0,0.0,2.0,1.0,20-40,0.0,,key chain,power strip,20.0,40.0,key chain3,power strip5,20.0,60.0,Keychain_Voice_Recorder.jpg,93e4a283-bcd6-4ad1-8add-339658cda0fc_400.jpg,/static/Category_learning/Stimuli/Experimental_stims/key chain/Keychain_Voice_Recorder.jpg,/static/Category_learning/Stimuli/Experimental_stims/power strip/93e4a283-bcd6-4ad1-8add-339658cda0fc_400.jpg,0.0,power strip,key chain,40.0,20.0,power strip5,key chain3,60.0,20.0,0.0,76.0,0.826,,,,,,
402,,confirmation,,html-keyboard-response,402,647398,0.0-1.0-79.0-0.0-1.0-0.0,0,0,99,,,,,,77.0,,,,,2.0,,,,,,,,,,,,,,,,,,,,,,,,,,,76.826,0.674,,,,,,
403,,isi,,html-keyboard-response,403,648905,0.0-1.0-79.0-0.0-2.0,0,0,99,,,,,,77.0,,,,,2.0,,,,,,,,,,,,,,,,,,,,,,,,,,,77.5,1.5,,,,,,
404,,feedback,,html-keyboard-response,404,649913,0.0-1.0-79.0-0.0-3.0-0.0,0,0,99,,,,,,77.0,,,,,2.0,,,,,,,,,,,,,,,,,,,,,,,,,,,79.0,1.0,,,,,,
405,,iti,,html-keyboard-response,405,651917,0.0-1.0-79.0-0.0-5.0,0,0,99,,,,,,77.0,,,,,2.0,,,,,,,,,,,,,,,,,,,,,,,,,,,80.0,2.0,,,,,,
406,,choice,,html-keyboard-response,406,652480,0.0-1.0-80.0-0.0-0.0,0,0,99,,559.0,,,50.0,78.0,80.0,1000.0,1500.0,0.0,2.0,0.0,20-80,,0.0,hat,flashlight,20.0,80.0,hat9,flashlight7,40.0,60.0,Astrawhat44.jpg,11900.jpg,/static/Category_learning/Stimuli/Experimental_stims/hat/Astrawhat44.jpg,/static/Category_learning/Stimuli/Experimental_stims/flashlight/11900.jpg,1.0,hat,flashlight,20.0,80.0,hat9,flashlight7,40.0,60.0,0.0,82.0,0.559,,,,,,
407,,confirmation,,html-keyboard-response,407,653426,0.0-1.0-80.0-0.0-1.0-0.0,0,0,99,,,,,,78.0,,,,,2.0,,,,,,,,,,,,,,,,,,,,,,,,,,,82.559,0.941,,,,,,
408,,isi,,html-keyboard-response,408,654433,0.0-1.0-80.0-0.0-2.0,0,0,99,,,,,,78.0,,,,,2.0,,,,,,,,,,,,,,,,,,,,,,,,,,,83.5,1.0,,,,,,
409,,feedback,,html-keyboard-response,409,655439,0.0-1.0-80.0-0.0-3.0-0.0,0,0,99,,,,,,78.0,,,,,2.0,,,,,,,,,,,,,,,,,,,,,,,,,,,84.5,1.0,,,,,,
410,,iti,,html-keyboard-response,410,656943,0.0-1.0-80.0-0.0-5.0,0,0,99,,,,,,78.0,,,,,2.0,,,,,,,,,,,,,,,,,,,,,,,,,,,85.5,1.5,,,,,,
411,,choice,,html-keyboard-response,411,657680,0.0-1.0-81.0-0.0-0.0,0,0,99,,733.0,,,50.0,79.0,81.0,2000.0,1500.0,0.0,2.0,0.0,40-60,,1.0,telescope,sofa,60.0,40.0,telescope2,sofa15,60.0,40.0,Brass-telescope-60700.jpg,APEACHLOV.jpg,/static/Category_learning/Stimuli/Experimental_stims/telescope/Brass-telescope-60700.jpg,/static/Category_learning/Stimuli/Experimental_stims/sofa/APEACHLOV.jpg,1.0,telescope,sofa,60.0,40.0,telescope2,sofa15,60.0,40.0,0.0,87.0,0.733,,,,,,
412,,confirmation,,html-keyboard-response,412,658451,0.0-1.0-81.0-0.0-1.0-0.0,0,0,99,,,,,,79.0,,,,,2.0,,,,,,,,,,,,,,,,,,,,,,,,,,,87.733,0.767,,,,,,
413,,isi,,html-keyboard-response,413,660455,0.0-1.0-81.0-0.0-2.0,0,0,99,,,,,,79.0,,,,,2.0,,,,,,,,,,,,,,,,,,,,,,,,,,,88.5,2.0,,,,,,
414,,feedback,,html-keyboard-response,414,661461,0.0-1.0-81.0-0.0-3.0-0.0,0,0,99,,,,,,79.0,,,,,2.0,,,,,,,,,,,,,,,,,,,,,,,,,,,90.5,1.0,,,,,,
415,,iti,,html-keyboard-response,415,662969,0.0-1.0-81.0-0.0-5.0,0,0,99,,,,,,79.0,,,,,2.0,,,,,,,,,,,,,,,,,,,,,,,,,,,91.5,1.5,,,,,,
416,,choice,,html-keyboard-response,416,664408,0.0-1.0-82.0-0.0-0.0,0,0,99,,1435.0,,,50.0,80.0,82.0,2000.0,1000.0,0.0,2.0,0.0,20-60,,1.0,train,makeup compact,60.0,20.0,train2,makeup compact15,80.0,40.0,iron_train.jpg,05086681402.jpg,/static/Category_learning/Stimuli/Experimental_stims/train/iron_train.jpg,/static/Category_learning/Stimuli/Experimental_stims/makeup compact/05086681402.jpg,1.0,train,makeup compact,60.0,20.0,train2,makeup compact15,80.0,40.0,0.0,93.0,1.435,,,,,,
417,,confirmation,,html-keyboard-response,417,664478,0.0-1.0-82.0-0.0-1.0-0.0,0,0,99,,,,,,80.0,,,,,2.0,,,,,,,,,,,,,,,,,,,,,,,,,,,94.435,0.065,,,,,,
418,,isi,,html-keyboard-response,418,666483,0.0-1.0-82.0-0.0-2.0,0,0,99,,,,,,80.0,,,,,2.0,,,,,,,,,,,,,,,,,,,,,,,,,,,94.5,2.0,,,,,,
419,,feedback,,html-keyboard-response,419,667488,0.0-1.0-82.0-0.0-3.0-0.0,0,0,99,,,,,,80.0,,,,,2.0,,,,,,,,,,,,,,,,,,,,,,,,,,,96.5,1.0,,,,,,
420,,iti,,html-keyboard-response,420,668495,0.0-1.0-82.0-0.0-5.0,0,0,99,,,,,,80.0,,,,,2.0,,,,,,,,,,,,,,,,,,,,,,,,,,,97.5,1.0,,,,,,
421,,choice,,html-keyboard-response,421,669524,0.0-1.0-83.0-0.0-0.0,0,0,99,,1025.0,,,50.0,81.0,83.0,3500.0,1000.0,0.0,2.0,0.0,40-40,,,sofa,power strip,40.0,40.0,sofa4,power strip11,20.0,60.0,ALOVSEA15.jpg,41Bw7Tl1G7L._AA262_.jpg,/static/Category_learning/Stimuli/Experimental_stims/sofa/ALOVSEA15.jpg,/static/Category_learning/Stimuli/Experimental_stims/power strip/41Bw7Tl1G7L._AA262_.jpg,1.0,sofa,power strip,40.0,40.0,sofa4,power strip11,20.0,60.0,0.0,98.5,1.025,,,,,,
422,,confirmation,,html-keyboard-response,422,670002,0.0-1.0-83.0-0.0-1.0-0.0,0,0,99,,,,,,81.0,,,,,2.0,,,,,,,,,,,,,,,,,,,,,,,,,,,99.525,0.475,,,,,,
423,,isi,,html-keyboard-response,423,673506,0.0-1.0-83.0-0.0-2.0,0,0,99,,,,,,81.0,,,,,2.0,,,,,,,,,,,,,,,,,,,,,,,,,,,100.0,3.5,,,,,,
424,,feedback,,html-keyboard-response,424,674514,0.0-1.0-83.0-0.0-3.0-0.0,0,0,99,,,,,,81.0,,,,,2.0,,,,,,,,,,,,,,,,,,,,,,,,,,,103.5,1.0,,,,,,
425,,iti,,html-keyboard-response,425,675519,0.0-1.0-83.0-0.0-5.0,0,0,99,,,,,,81.0,,,,,2.0,,,,,,,,,,,,,,,,,,,,,,,,,,,104.5,1.0,,,,,,
426,,choice,,html-keyboard-response,426,676429,0.0-1.0-84.0-0.0-0.0,0,0,99,,906.0,,,51.0,82.0,84.0,1500.0,1000.0,0.0,2.0,0.0,20-80,,0.0,hammer,bongo,20.0,80.0,hammer2,bongo3,0.0,100.0,hammer04.jpg,26390697.thl.jpg,/static/Category_learning/Stimuli/Experimental_stims/hammer/hammer04.jpg,/static/Category_learning/Stimuli/Experimental_stims/bongo/26390697.thl.jpg,0.0,bongo,hammer,80.0,20.0,bongo3,hammer2,100.0,0.0,0.0,105.5,0.906,,,,,,
427,,confirmation,,html-keyboard-response,427,677028,0.0-1.0-84.0-0.0-1.0-0.0,0,0,99,,,,,,82.0,,,,,2.0,,,,,,,,,,,,,,,,,,,,,,,,,,,106.406,0.594,,,,,,
428,,isi,,html-keyboard-response,428,678531,0.0-1.0-84.0-0.0-2.0,0,0,99,,,,,,82.0,,,,,2.0,,,,,,,,,,,,,,,,,,,,,,,,,,,107.0,1.5,,,,,,
429,,feedback,,html-keyboard-response,429,679537,0.0-1.0-84.0-0.0-3.0-0.0,0,0,99,,,,,,82.0,,,,,2.0,,,,,,,,,,,,,,,,,,,,,,,,,,,108.5,1.0,,,,,,
430,,iti,,html-keyboard-response,430,680543,0.0-1.0-84.0-0.0-5.0,0,0,99,,,,,,82.0,,,,,2.0,,,,,,,,,,,,,,,,,,,,,,,,,,,109.5,1.0,,,,,,
431,,choice,,html-keyboard-response,431,681601,0.0-1.0-85.0-0.0-0.0,0,0,99,,1054.0,,,51.0,83.0,85.0,1500.0,1000.0,0.0,2.0,0.0,40-60,,1.0,trumpet,power strip,60.0,40.0,trumpet10,power strip15,60.0,20.0,trumpet2.jpg,31oz6aGZN7L._AA262_.jpg,/static/Category_learning/Stimuli/Experimental_stims/trumpet/trumpet2.jpg,/static/Category_learning/Stimuli/Experimental_stims/power strip/31oz6aGZN7L._AA262_.jpg,0.0,power strip,trumpet,40.0,60.0,power strip15,trumpet10,20.0,60.0,0.0,110.5,1.054,,,,,,
432,,confirmation,,html-keyboard-response,432,682051,0.0-1.0-85.0-0.0-1.0-0.0,0,0,99,,,,,,83.0,,,,,2.0,,,,,,,,,,,,,,,,,,,,,,,,,,,111.554,0.446,,,,,,
433,,isi,,html-keyboard-response,433,683555,0.0-1.0-85.0-0.0-2.0,0,0,99,,,,,,83.0,,,,,2.0,,,,,,,,,,,,,,,,,,,,,,,,,,,112.0,1.5,,,,,,
434,,feedback,,html-keyboard-response,434,684563,0.0-1.0-85.0-0.0-3.0-0.0,0,0,99,,,,,,83.0,,,,,2.0,,,,,,,,,,,,,,,,,,,,,,,,,,,113.5,1.0,,,,,,
435,,iti,,html-keyboard-response,435,685569,0.0-1.0-85.0-0.0-5.0,0,0,99,,,,,,83.0,,,,,2.0,,,,,,,,,,,,,,,,,,,,,,,,,,,114.5,1.0,,,,,,
436,,choice,,html-keyboard-response,436,686298,0.0-1.0-86.0-0.0-0.0,0,0,99,,725.0,,,50.0,84.0,86.0,1500.0,2000.0,0.0,2.0,1.0,60-60,1.0,,train,train,60.0,60.0,train15,train2,40.0,80.0,master-TD006.jpg,iron_train.jpg,/static/Category_learning/Stimuli/Experimental_stims/train/master-TD006.jpg,/static/Category_learning/Stimuli/Experimental_stims/train/iron_train.jpg,1.0,train,train,60.0,60.0,train15,train2,40.0,80.0,0.0,115.5,0.725,,,,,,
437,,confirmation,,html-keyboard-response,437,687078,0.0-1.0-86.0-0.0-1.0-0.0,0,0,99,,,,,,84.0,,,,,2.0,,,,,,,,,,,,,,,,,,,,,,,,,,,116.225,0.775,,,,,,
438,,isi,,html-keyboard-response,438,688581,0.0-1.0-86.0-0.0-2.0,0,0,99,,,,,,84.0,,,,,2.0,,,,,,,,,,,,,,,,,,,,,,,,,,,117.0,1.5,,,,,,
439,,feedback,,html-keyboard-response,439,689586,0.0-1.0-86.0-0.0-3.0-0.0,0,0,99,,,,,,84.0,,,,,2.0,,,,,,,,,,,,,,,,,,,,,,,,,,,118.5,1.0,,,,,,
440,,iti,,html-keyboard-response,440,691592,0.0-1.0-86.0-0.0-5.0,0,0,99,,,,,,84.0,,,,,2.0,,,,,,,,,,,,,,,,,,,,,,,,,,,119.5,2.0,,,,,,
441,,choice,,html-keyboard-response,441,692428,0.0-1.0-87.0-0.0-0.0,0,0,99,,832.0,,,50.0,85.0,87.0,1500.0,1500.0,0.0,2.0,1.0,20-60,0.0,,microscope,yarn,20.0,60.0,microscope5,yarn9,0.0,40.0,emMicroscope.jpg,Aballofyarn26.jpg,/static/Category_learning/Stimuli/Experimental_stims/microscope/emMicroscope.jpg,/static/Category_learning/Stimuli/Experimental_stims/yarn/Aballofyarn26.jpg,1.0,microscope,yarn,20.0,60.0,microscope5,yarn9,0.0,40.0,0.0,121.5,0.832,,,,,,
442,,confirmation,,html-keyboard-response,442,693099,0.0-1.0-87.0-0.0-1.0-0.0,0,0,99,,,,,,85.0,,,,,2.0,,,,,,,,,,,,,,,,,,,,,,,,,,,122.332,0.668,,,,,,
443,,isi,,html-keyboard-response,443,694606,0.0-1.0-87.0-0.0-2.0,0,0,99,,,,,,85.0,,,,,2.0,,,,,,,,,,,,,,,,,,,,,,,,,,,123.0,1.5,,,,,,
444,,feedback,,html-keyboard-response,444,695613,0.0-1.0-87.0-0.0-3.0-0.0,0,0,99,,,,,,85.0,,,,,2.0,,,,,,,,,,,,,,,,,,,,,,,,,,,124.5,1.0,,,,,,
445,,iti,,html-keyboard-response,445,697121,0.0-1.0-87.0-0.0-5.0,0,0,99,,,,,,85.0,,,,,2.0,,,,,,,,,,,,,,,,,,,,,,,,,,,125.5,1.5,,,,,,
446,,choice,,html-keyboard-response,446,697916,0.0-1.0-88.0-0.0-0.0,0,0,99,,791.0,,,51.0,86.0,88.0,1000.0,1500.0,0.0,2.0,0.0,20-20,,,key chain,motorcycle,20.0,20.0,key chain13,motorcycle14,0.0,20.0,Fancy_Liquid_Column_Shape_Key_Ring_with_Floater.jpg,motorcycle11.jpg,/static/Category_learning/Stimuli/Experimental_stims/key chain/Fancy_Liquid_Column_Shape_Key_Ring_with_Floater.jpg,/static/Category_learning/Stimuli/Experimental_stims/motorcycle/motorcycle11.jpg,0.0,motorcycle,key chain,20.0,20.0,motorcycle14,key chain13,20.0,0.0,0.0,127.0,0.791,,,,,,
447,,confirmation,,html-keyboard-response,447,698629,0.0-1.0-88.0-0.0-1.0-0.0,0,0,99,,,,,,86.0,,,,,2.0,,,,,,,,,,,,,,,,,,,,,,,,,,,127.791,0.709,,,,,,
448,,isi,,html-keyboard-response,448,699634,0.0-1.0-88.0-0.0-2.0,0,0,99,,,,,,86.0,,,,,2.0,,,,,,,,,,,,,,,,,,,,,,,,,,,128.5,1.0,,,,,,
449,,feedback,,html-keyboard-response,449,700642,0.0-1.0-88.0-0.0-3.0-0.0,0,0,99,,,,,,86.0,,,,,2.0,,,,,,,,,,,,,,,,,,,,,,,,,,,129.5,1.0,,,,,,
450,,iti,,html-keyboard-response,450,702148,0.0-1.0-88.0-0.0-5.0,0,0,99,,,,,,86.0,,,,,2.0,,,,,,,,,,,,,,,,,,,,,,,,,,,130.5,1.5,,,,,,
451,,choice,,html-keyboard-response,451,702917,0.0-1.0-89.0-0.0-0.0,0,0,99,,766.0,,,51.0,87.0,89.0,2000.0,2000.0,0.0,2.0,0.0,40-80,,0.0,small table,fan,40.0,80.0,small table14,fan11,40.0,80.0,Awoodtable13.jpg,n_sf.jpg,/static/Category_learning/Stimuli/Experimental_stims/small table/Awoodtable13.jpg,/static/Category_learning/Stimuli/Experimental_stims/fan/n_sf.jpg,0.0,fan,small table,80.0,40.0,fan11,small table14,80.0,40.0,0.0,132.0,0.766,,,,,,
452,,confirmation,,html-keyboard-response,452,703657,0.0-1.0-89.0-0.0-1.0-0.0,0,0,99,,,,,,87.0,,,,,2.0,,,,,,,,,,,,,,,,,,,,,,,,,,,132.766,0.734,,,,,,
453,,isi,,html-keyboard-response,453,705661,0.0-1.0-89.0-0.0-2.0,0,0,99,,,,,,87.0,,,,,2.0,,,,,,,,,,,,,,,,,,,,,,,,,,,133.5,2.0,,,,,,
454,,feedback,,html-keyboard-response,454,706667,0.0-1.0-89.0-0.0-3.0-0.0,0,0,99,,,,,,87.0,,,,,2.0,,,,,,,,,,,,,,,,,,,,,,,,,,,135.5,1.0,,,,,,
455,,iti,,html-keyboard-response,455,708674,0.0-1.0-89.0-0.0-5.0,0,0,99,,,,,,87.0,,,,,2.0,,,,,,,,,,,,,,,,,,,,,,,,,,,136.5,2.0,,,,,,
456,,choice,,html-keyboard-response,456,710184,0.0-1.0-90.0-0.0-0.0,0,0,99,,,,,,88.0,90.0,2000.0,3500.0,0.0,2.0,0.0,40-80,,1.0,baby carriage,patio lounge chair,80.0,40.0,baby carriage1,patio lounge chair6,100.0,40.0,babycarriage16.jpg,Lounge_Chair_with_Pillow.jpg,/static/Category_learning/Stimuli/Experimental_stims/baby carriage/babycarriage16.jpg,/static/Category_learning/Stimuli/Experimental_stims/patio lounge chair/Lounge_Chair_with_Pillow.jpg,,,,,,,,,,1.0,138.5,1.5,,,,,,
457,,isi,,html-keyboard-response,457,712192,0.0-1.0-90.0-0.0-2.0,0,0,99,,,,,,88.0,,,,,2.0,,,,,,,,,,,,,,,,,,,,,,,,,,,140.0,2.0,,,,,,
458,,no_response,,html-keyboard-response,458,713198,0.0-1.0-90.0-0.0-4.0-0.0,0,0,99,,,,,,88.0,,,,,2.0,,,,,,,,,,,,,,,,,,,,,,,,,,,142.0,1.0,,,,,,
459,,iti,,html-keyboard-response,459,716716,0.0-1.0-90.0-0.0-5.0,0,0,99,,,,,,88.0,,,,,2.0,,,,,,,,,,,,,,,,,,,,,,,,,,,143.0,3.5,,,,,,
460,,choice,,html-keyboard-response,460,717676,0.0-1.0-90.0-0.1-0.1,0,0,99,,956.0,,,50.0,88.0,90.0,2000.0,3500.0,0.0,2.0,0.0,40-80,,1.0,baby carriage,patio lounge chair,80.0,40.0,baby carriage1,patio lounge chair6,100.0,40.0,babycarriage16.jpg,Lounge_Chair_with_Pillow.jpg,/static/Category_learning/Stimuli/Experimental_stims/baby carriage/babycarriage16.jpg,/static/Category_learning/Stimuli/Experimental_stims/patio lounge chair/Lounge_Chair_with_Pillow.jpg,1.0,baby carriage,patio lounge chair,80.0,40.0,baby carriage1,patio lounge chair6,100.0,40.0,0.0,146.5,0.956,,,,,,
461,,confirmation,,html-keyboard-response,461,718225,0.0-1.0-90.0-0.1-1.1-0.1,0,0,99,,,,,,88.0,,,,,2.0,,,,,,,,,,,,,,,,,,,,,,,,,,,147.456,0.544,,,,,,
462,,isi,,html-keyboard-response,462,719232,0.0-1.0-90.0-0.1-2.1,0,0,99,,,,,,88.0,,,,,2.0,,,,,,,,,,,,,,,,,,,,,,,,,,,148.0,1.0,,,,,,
463,,feedback,,html-keyboard-response,463,720239,0.0-1.0-90.0-0.1-3.1-0.1,0,0,99,,,,,,88.0,,,,,2.0,,,,,,,,,,,,,,,,,,,,,,,,,,,149.0,1.0,,,,,,
464,,iti,,html-keyboard-response,464,721745,0.0-1.0-90.0-0.1-5.1,0,0,99,,,,,,88.0,,,,,2.0,,,,,,,,,,,,,,,,,,,,,,,,,,,150.0,1.5,,,,,,
465,,choice,,html-keyboard-response,465,722556,0.0-1.0-91.0-0.0-0.0,0,0,99,,806.0,,,50.0,89.0,91.0,1000.0,2000.0,0.0,2.0,0.0,40-80,,0.0,patio lounge chair,bowl,40.0,80.0,patio lounge chair10,bowl2,20.0,100.0,51831.jpg,AMIXBOWL2.jpg,/static/Category_learning/Stimuli/Experimental_stims/patio lounge chair/51831.jpg,/static/Category_learning/Stimuli/Experimental_stims/bowl/AMIXBOWL2.jpg,1.0,patio lounge chair,bowl,40.0,80.0,patio lounge chair10,bowl2,20.0,100.0,0.0,151.5,0.806,,,,,,
466,,confirmation,,html-keyboard-response,466,723254,0.0-1.0-91.0-0.0-1.0-0.0,0,0,99,,,,,,89.0,,,,,2.0,,,,,,,,,,,,,,,,,,,,,,,,,,,152.306,0.694,,,,,,
467,,isi,,html-keyboard-response,467,724259,0.0-1.0-91.0-0.0-2.0,0,0,99,,,,,,89.0,,,,,2.0,,,,,,,,,,,,,,,,,,,,,,,,,,,153.0,1.0,,,,,,
468,,feedback,,html-keyboard-response,468,725266,0.0-1.0-91.0-0.0-3.0-0.0,0,0,99,,,,,,89.0,,,,,2.0,,,,,,,,,,,,,,,,,,,,,,,,,,,154.0,1.0,,,,,,
469,,iti,,html-keyboard-response,469,727273,0.0-1.0-91.0-0.0-5.0,0,0,99,,,,,,89.0,,,,,2.0,,,,,,,,,,,,,,,,,,,,,,,,,,,155.0,2.0,,,,,,
470,,choice,,html-keyboard-response,470,728119,0.0-1.0-92.0-0.0-0.0,0,0,99,,842.0,,,51.0,90.0,92.0,1500.0,1500.0,0.0,2.0,0.0,60-80,,0.0,tent,dresser,60.0,80.0,tent12,dresser10,40.0,60.0,31316-AZU_m.jpg,ADRESSE14.jpg,/static/Category_learning/Stimuli/Experimental_stims/tent/31316-AZU_m.jpg,/static/Category_learning/Stimuli/Experimental_stims/dresser/ADRESSE14.jpg,0.0,dresser,tent,80.0,60.0,dresser10,tent12,60.0,40.0,0.0,157.0,0.842,,,,,,
471,,confirmation,,html-keyboard-response,471,728781,0.0-1.0-92.0-0.0-1.0-0.0,0,0,99,,,,,,90.0,,,,,2.0,,,,,,,,,,,,,,,,,,,,,,,,,,,157.842,0.658,,,,,,
472,,isi,,html-keyboard-response,472,730290,0.0-1.0-92.0-0.0-2.0,0,0,99,,,,,,90.0,,,,,2.0,,,,,,,,,,,,,,,,,,,,,,,,,,,158.5,1.5,,,,,,
473,,feedback,,html-keyboard-response,473,731293,0.0-1.0-92.0-0.0-3.0-0.0,0,0,99,,,,,,90.0,,,,,2.0,,,,,,,,,,,,,,,,,,,,,,,,,,,160.0,1.0,,,,,,
474,,iti,,html-keyboard-response,474,732800,0.0-1.0-92.0-0.0-5.0,0,0,99,,,,,,90.0,,,,,2.0,,,,,,,,,,,,,,,,,,,,,,,,,,,161.0,1.5,,,,,,
475,,choice,,html-keyboard-response,475,733683,0.0-1.0-93.0-0.0-0.0,0,0,99,,878.0,,,51.0,91.0,93.0,1000.0,1000.0,0.0,2.0,1.0,80-80,1.0,,baby carriage,baby carriage,80.0,80.0,baby carriage8,baby carriage1,60.0,100.0,peg_perego_uno_revi_black.jpg,babycarriage16.jpg,/static/Category_learning/Stimuli/Experimental_stims/baby carriage/peg_perego_uno_revi_black.jpg,/static/Category_learning/Stimuli/Experimental_stims/baby carriage/babycarriage16.jpg,0.0,baby carriage,baby carriage,80.0,80.0,baby carriage1,baby carriage8,100.0,60.0,0.0,162.5,0.878,,,,,,
476,,confirmation,,html-keyboard-response,476,734309,0.0-1.0-93.0-0.0-1.0-0.0,0,0,99,,,,,,91.0,,,,,2.0,,,,,,,,,,,,,,,,,,,,,,,,,,,163.378,0.622,,,,,,
477,,isi,,html-keyboard-response,477,735316,0.0-1.0-93.0-0.0-2.0,0,0,99,,,,,,91.0,,,,,2.0,,,,,,,,,,,,,,,,,,,,,,,,,,,164.0,1.0,,,,,,
478,,feedback,,html-keyboard-response,478,736323,0.0-1.0-93.0-0.0-3.0-0.0,0,0,99,,,,,,91.0,,,,,2.0,,,,,,,,,,,,,,,,,,,,,,,,,,,165.0,1.0,,,,,,
479,,iti,,html-keyboard-response,479,737330,0.0-1.0-93.0-0.0-5.0,0,0,99,,,,,,91.0,,,,,2.0,,,,,,,,,,,,,,,,,,,,,,,,,,,166.0,1.0,,,,,,
480,,choice,,html-keyboard-response,480,738194,0.0-1.0-94.0-0.0-0.0,0,0,99,,860.0,,,50.0,92.0,94.0,1500.0,1000.0,0.0,2.0,0.0,40-80,,0.0,necklace,fan,40.0,80.0,necklace5,fan9,60.0,80.0,necklascenew08.jpg,FT-40A.jpg,/static/Category_learning/Stimuli/Experimental_stims/necklace/necklascenew08.jpg,/static/Category_learning/Stimuli/Experimental_stims/fan/FT-40A.jpg,1.0,necklace,fan,40.0,80.0,necklace5,fan9,60.0,80.0,0.0,167.0,0.86,,,,,,
481,,confirmation,,html-keyboard-response,481,738837,0.0-1.0-94.0-0.0-1.0-0.0,0,0,99,,,,,,92.0,,,,,2.0,,,,,,,,,,,,,,,,,,,,,,,,,,,167.86,0.64,,,,,,
482,,isi,,html-keyboard-response,482,740342,0.0-1.0-94.0-0.0-2.0,0,0,99,,,,,,92.0,,,,,2.0,,,,,,,,,,,,,,,,,,,,,,,,,,,168.5,1.5,,,,,,
483,,feedback,,html-keyboard-response,483,741349,0.0-1.0-94.0-0.0-3.0-0.0,0,0,99,,,,,,92.0,,,,,2.0,,,,,,,,,,,,,,,,,,,,,,,,,,,170.0,1.0,,,,,,
484,,iti,,html-keyboard-response,484,742358,0.0-1.0-94.0-0.0-5.0,0,0,99,,,,,,92.0,,,,,2.0,,,,,,,,,,,,,,,,,,,,,,,,,,,171.0,1.0,,,,,,
