,success,ttype,start_time,trial_type,trial_index,time_elapsed,internal_node_id,warning,missed_checkup,PID,view_history,rt,responses,repeat_instructions,key_press,index,trial_num,isi,iti,is_practice,block,old_trial,pair_type,within_category,high_cat_on_left,left_category,right_category,left_category_value,right_category_value,left_exemplar,right_exemplar,left_exemplar_value,right_exemplar_value,left_img,right_img,left_img_path,right_img_path,left_chosen,chosen_category,unchosen_category,chosen_category_value,unchosen_category_value,chosen_exemplar,unchosen_exemplar,chosen_exemplar_value,unchosen_exemplar_value,no_response,onset,duration,end_practice,total_bonus_tally,category,category_group_value,category_value_response
0,True,full_screen,d06012022hr2337,fullscreen,0,2590,0.0-0.0,0,0,4,,,,,,,,,,,,,,,,,,,,,,,,,,,,,,,,,,,,,,,,,,,,
1,,category_learning_instructions,,instructions,1,7788,0.0-1.0-0.0-0.0,0,0,4,"[{""page_index"":0,""viewing_time"":1485},{""page_index"":1,""viewing_time"":271},{""page_index"":2,""viewing_time"":1054},{""page_index"":3,""viewing_time"":822},{""page_index"":4,""viewing_time"":655},{""page_index"":5,""viewing_time"":455},{""page_index"":6,""viewing_time"":453}]",5196.0,,,,,,,,,,,,,,,,,,,,,,,,,,,,,,,,,,,,,,,,,,
2,,category_learning_comprehension_check,,survey-multi-choice,2,14609,0.0-1.0-0.0-1.0,0,0,4,,6816.0,"{""Q0"":""True"",""Q1"":""True"",""Q2"":""Stay the same"",""Q3"":""pointer finger for left and middle finger for right""}",0.0,,,,,,,,,,,,,,,,,,,,,,,,,,,,,,,,,,,,,,,,
3,,,,html-keyboard-response,3,16576,0.0-1.0-1.0,0,0,4,,1963.0,,,50.0,,,,,,,,,,,,,,,,,,,,,,,,,,,,,,,,,,,,,,,
4,,choice,,html-keyboard-response,4,17162,0.0-1.0-2.0-0.0-0.0,0,0,4,,582.0,,,51.0,0.0,0.0,1500.0,1000.0,1.0,0.0,0.0,20-80,,0.0,bagel,dumbbell,20.0,80.0,bagel1,dumbbell1,0.0,80.0,bagels_pumpernickel_large.jpg,31B64EN68AL._AA280_.jpg,/static/Category_learning/Stimuli/Practice_stims/bagel/bagels_pumpernickel_large.jpg,/static/Category_learning/Stimuli/Practice_stims/dumbbell/31B64EN68AL._AA280_.jpg,0.0,dumbbell,bagel,80.0,20.0,dumbbell1,bagel1,80.0,0.0,0.0,0.582,0.582,,,,,
5,,confirmation,,html-keyboard-response,5,18087,0.0-1.0-2.0-0.0-1.0-0.0,0,0,4,,,,,,0.0,,,,,,,,,,,,,,,,,,,,,,,,,,,,,,,,1.5,0.918,,,,,
6,,isi,,html-keyboard-response,6,18193,0.0-1.0-2.0-0.0-2.0,0,0,4,,,,,,,,,,,,,,,,,,,,,,,,,,,,,,,,,,,,,,3.0,1.5,,,,,
7,,feedback,,html-keyboard-response,7,19199,0.0-1.0-2.0-0.0-3.0-0.0,0,0,4,,,,,,0.0,,,,,,,,,,,,,,,,,,,,,,,,,,,,,,,,4.0,1.0,,,,,
8,,iti,,html-keyboard-response,8,19303,0.0-1.0-2.0-0.0-5.0,0,0,4,,,,,,,,,,,,,,,,,,,,,,,,,,,,,,,,,,,,,,5.0,1.0,,,,,
9,,choice,,html-keyboard-response,9,19838,0.0-1.0-3.0-0.0-0.0,0,0,4,,532.0,,,51.0,1.0,1.0,3000.0,1500.0,1.0,0.0,0.0,20-40,,1.0,calculator,bagel,40.0,20.0,calculator2,bagel2,20.0,20.0,22829064.thl.jpg,bagels_cinnraisin_large.jpg,/static/Category_learning/Stimuli/Practice_stims/calculator/22829064.thl.jpg,/static/Category_learning/Stimuli/Practice_stims/bagel/bagels_cinnraisin_large.jpg,0.0,bagel,calculator,20.0,40.0,bagel2,calculator2,20.0,20.0,0.0,5.532,0.532,,,,,
10,,confirmation,,html-keyboard-response,10,20812,0.0-1.0-3.0-0.0-1.0-0.0,0,0,4,,,,,,1.0,,,,,,,,,,,,,,,,,,,,,,,,,,,,,,,,6.5,0.968,,,,,
11,,isi,,html-keyboard-response,11,20918,0.0-1.0-3.0-0.0-2.0,0,0,4,,,,,,,,,,,,,,,,,,,,,,,,,,,,,,,,,,,,,,9.5,3.0,,,,,
12,,feedback,,html-keyboard-response,12,21926,0.0-1.0-3.0-0.0-3.0-0.0,0,0,4,,,,,,1.0,,,,,,,,,,,,,,,,,,,,,,,,,,,,,,,,10.5,1.0,,,,,
13,,iti,,html-keyboard-response,13,22033,0.0-1.0-3.0-0.0-5.0,0,0,4,,,,,,,,,,,,,,,,,,,,,,,,,,,,,,,,,,,,,,12.0,1.5,,,,,
14,,choice,,html-keyboard-response,14,22372,0.0-1.0-4.0-0.0-0.0,0,0,4,,336.0,,,50.0,2.0,2.0,2000.0,3000.0,1.0,0.0,0.0,60-80,,0.0,clock,dumbbell,60.0,80.0,clock2,dumbbell2,60.0,100.0,26373355.thl.jpg,31K8MR6TMBL._SS500_.jpg,/static/Category_learning/Stimuli/Practice_stims/clock/26373355.thl.jpg,/static/Category_learning/Stimuli/Practice_stims/dumbbell/31K8MR6TMBL._SS500_.jpg,1.0,clock,dumbbell,60.0,80.0,clock2,dumbbell2,60.0,100.0,0.0,12.336,0.336,,,,,
15,,confirmation,,html-keyboard-response,15,23543,0.0-1.0-4.0-0.0-1.0-0.0,0,0,4,,,,,,2.0,,,,,,,,,,,,,,,,,,,,,,,,,,,,,,,,13.5,1.164,,,,,
16,,isi,,html-keyboard-response,16,23650,0.0-1.0-4.0-0.0-2.0,0,0,4,,,,,,,,,,,,,,,,,,,,,,,,,,,,,,,,,,,,,,15.5,2.0,,,,,
17,,feedback,,html-keyboard-response,17,24657,0.0-1.0-4.0-0.0-3.0-0.0,0,0,4,,,,,,2.0,,,,,,,,,,,,,,,,,,,,,,,,,,,,,,,,16.5,1.0,,,,,
18,,iti,,html-keyboard-response,18,24764,0.0-1.0-4.0-0.0-5.0,0,0,4,,,,,,,,,,,,,,,,,,,,,,,,,,,,,,,,,,,,,,19.5,3.0,,,,,
19,,choice,,html-keyboard-response,19,25220,0.0-1.0-5.0-0.0-0.0,0,0,4,,452.0,,,51.0,3.0,3.0,1000.0,2000.0,1.0,0.0,0.0,40-80,,0.0,calculator,clock,40.0,60.0,calculator1,clock1,40.0,40.0,22829184.thl.jpg,Aalarmclock2.jpg,/static/Category_learning/Stimuli/Practice_stims/calculator/22829184.thl.jpg,/static/Category_learning/Stimuli/Practice_stims/clock/Aalarmclock2.jpg,0.0,clock,calculator,60.0,40.0,clock1,calculator1,40.0,40.0,0.0,19.952,0.452,,,,,
20,,confirmation,,html-keyboard-response,20,26273,0.0-1.0-5.0-0.0-1.0-0.0,0,0,4,,,,,,3.0,,,,,,,,,,,,,,,,,,,,,,,,,,,,,,,,21.0,1.048,,,,,
21,,isi,,html-keyboard-response,21,26381,0.0-1.0-5.0-0.0-2.0,0,0,4,,,,,,,,,,,,,,,,,,,,,,,,,,,,,,,,,,,,,,22.0,1.0,,,,,
22,,feedback,,html-keyboard-response,22,27388,0.0-1.0-5.0-0.0-3.0-0.0,0,0,4,,,,,,3.0,,,,,,,,,,,,,,,,,,,,,,,,,,,,,,,,23.0,1.0,,,,,
23,,iti,,html-keyboard-response,23,27494,0.0-1.0-5.0-0.0-5.0,0,0,4,,,,,,,,,,,,,,,,,,,,,,,,,,,,,,,,,,,,,,25.0,2.0,,,,,
24,,choice,,html-keyboard-response,24,27708,0.0-1.0-6.0-0.0-0.0,0,0,4,,210.0,,,51.0,4.0,4.0,2500.0,2500.0,1.0,0.0,0.0,20-60,,1.0,dumbbell,bagel,80.0,20.0,dumbbell3,bagel3,100.0,40.0,41K7QVRX50L._SS500_.jpg,photo-169.jpg,/static/Category_learning/Stimuli/Practice_stims/dumbbell/41K7QVRX50L._SS500_.jpg,/static/Category_learning/Stimuli/Practice_stims/bagel/photo-169.jpg,0.0,bagel,dumbbell,20.0,80.0,bagel3,dumbbell3,40.0,100.0,0.0,25.21,0.21,1.0,,,,
25,,confirmation,,html-keyboard-response,25,29004,0.0-1.0-6.0-0.0-1.0-0.0,0,0,4,,,,,,4.0,,,,,,,,,,,,,,,,,,,,,,,,,,,,,,,,26.5,1.29,,,,,
26,,isi,,html-keyboard-response,26,29111,0.0-1.0-6.0-0.0-2.0,0,0,4,,,,,,,,,,,,,,,,,,,,,,,,,,,,,,,,,,,,,,29.0,2.5,,,,,
27,,feedback,,html-keyboard-response,27,30119,0.0-1.0-6.0-0.0-3.0-0.0,0,0,4,,,,,,4.0,,,,,,,,,,,,,,,,,,,,,,,,,,,,,,,,30.0,1.0,,,,,
28,,iti,,html-keyboard-response,28,30226,0.0-1.0-6.0-0.0-5.0,0,0,4,,,,,,,,,,,,,,,,,,,,,,,,,,,,,,,,,,,,,,32.5,2.5,,,,,
29,,practice_over,,html-keyboard-response,29,31440,0.0-1.0-6.0-0.0-6.0-0.0,0,0,4,,1212.0,,,50.0,4.0,,,,,,,,,,,,,,,,,,,,,,,,,,,,,,,,,,,,,,
30,,start_run,,html-keyboard-response,30,32871,0.0-1.0-6.0-0.0-6.0-1.0,0,0,4,,1429.0,,,84.0,,,,,,,,,,,,,,,,,,,,,,,,,,,,,,,,,,,,,,,
31,,choice,,html-keyboard-response,31,33301,0.0-1.0-7.0-0.0-0.0,0,0,4,,427.0,,,51.0,5.0,305.0,1500.0,3000.0,0.0,6.0,0.0,20-20,,,flashlight,dresser,20.0,20.0,flashlight11,dresser15,40.0,20.0,new04.jpg,ADRESSE77.jpg,/static/Category_learning/Stimuli/Experimental_stims/flashlight/new04.jpg,/static/Category_learning/Stimuli/Experimental_stims/dresser/ADRESSE77.jpg,0.0,dresser,flashlight,20.0,20.0,dresser15,flashlight11,20.0,40.0,0.0,0.427,0.427,,,,,
32,,confirmation,,html-keyboard-response,32,34381,0.0-1.0-7.0-0.0-1.0-0.0,0,0,4,,,,,,5.0,,,,,,,,,,,,,,,,,,,,,,,,,,,,,,,,1.5,1.073,,,,,
33,,isi,,html-keyboard-response,33,34487,0.0-1.0-7.0-0.0-2.0,0,0,4,,,,,,,,,,,,,,,,,,,,,,,,,,,,,,,,,,,,,,3.0,1.5,,,,,
34,,feedback,,html-keyboard-response,34,35493,0.0-1.0-7.0-0.0-3.0-0.0,0,0,4,,,,,,5.0,,,,,,,,,,,,,,,,,,,,,,,,,,,,,,,,4.0,1.0,,,,,
35,,iti,,html-keyboard-response,35,35597,0.0-1.0-7.0-0.0-5.0,0,0,4,,,,,,,,,,,,,,,,,,,,,,,,,,,,,,,,,,,,,,7.0,3.0,,,,,
36,,choice,,html-keyboard-response,36,35782,0.0-1.0-8.0-0.0-0.0,0,0,4,,182.0,,,51.0,6.0,306.0,1000.0,3500.0,0.0,6.0,0.0,40-40,,,microscope,lipstick,40.0,40.0,microscope2,lipstick5,40.0,20.0,3090-b.jpg,P35719_hero.jpg,/static/Category_learning/Stimuli/Experimental_stims/microscope/3090-b.jpg,/static/Category_learning/Stimuli/Experimental_stims/lipstick/P35719_hero.jpg,0.0,lipstick,microscope,40.0,40.0,lipstick5,microscope2,20.0,40.0,0.0,7.182,0.182,,,,,
37,,confirmation,,html-keyboard-response,37,37106,0.0-1.0-8.0-0.0-1.0-0.0,0,0,4,,,,,,6.0,,,,,,,,,,,,,,,,,,,,,,,,,,,,,,,,8.5,1.318,,,,,
38,,isi,,html-keyboard-response,38,37212,0.0-1.0-8.0-0.0-2.0,0,0,4,,,,,,,,,,,,,,,,,,,,,,,,,,,,,,,,,,,,,,9.5,1.0,,,,,
39,,feedback,,html-keyboard-response,39,38215,0.0-1.0-8.0-0.0-3.0-0.0,0,0,4,,,,,,6.0,,,,,,,,,,,,,,,,,,,,,,,,,,,,,,,,10.5,1.0,,,,,
40,,iti,,html-keyboard-response,40,38322,0.0-1.0-8.0-0.0-5.0,0,0,4,,,,,,,,,,,,,,,,,,,,,,,,,,,,,,,,,,,,,,14.0,3.5,,,,,
41,,choice,,html-keyboard-response,41,38524,0.0-1.0-9.0-0.0-0.0,0,0,4,,199.0,,,50.0,7.0,307.0,3500.0,1500.0,0.0,6.0,0.0,60-80,,1.0,train,nail polish,80.0,60.0,train10,nail polish10,100.0,80.0,train3.jpg,NLM23_opi_nail_polish.jpg,/static/Category_learning/Stimuli/Experimental_stims/train/train3.jpg,/static/Category_learning/Stimuli/Experimental_stims/nail polish/NLM23_opi_nail_polish.jpg,1.0,train,nail polish,80.0,60.0,train10,nail polish10,100.0,80.0,0.0,14.199,0.199,,,,,
42,,confirmation,,html-keyboard-response,42,39831,0.0-1.0-9.0-0.0-1.0-0.0,0,0,4,,,,,,7.0,,,,,,,,,,,,,,,,,,,,,,,,,,,,,,,,15.5,1.301,,,,,
43,,isi,,html-keyboard-response,43,39938,0.0-1.0-9.0-0.0-2.0,0,0,4,,,,,,,,,,,,,,,,,,,,,,,,,,,,,,,,,,,,,,19.0,3.5,,,,,
44,,feedback,,html-keyboard-response,44,40946,0.0-1.0-9.0-0.0-3.0-0.0,0,0,4,,,,,,7.0,,,,,,,,,,,,,,,,,,,,,,,,,,,,,,,,20.0,1.0,,,,,
45,,iti,,html-keyboard-response,45,41053,0.0-1.0-9.0-0.0-5.0,0,0,4,,,,,,,,,,,,,,,,,,,,,,,,,,,,,,,,,,,,,,21.5,1.5,,,,,
46,,choice,,html-keyboard-response,46,41533,0.0-1.0-10.0-0.0-0.0,0,0,4,,477.0,,,51.0,8.0,308.0,1000.0,2000.0,0.0,6.0,0.0,40-60,,1.0,sofa,key chain,60.0,40.0,sofa5,key chain12,60.0,40.0,ALOVSEA14.jpg,keychain.jpg,/static/Category_learning/Stimuli/Experimental_stims/sofa/ALOVSEA14.jpg,/static/Category_learning/Stimuli/Experimental_stims/key chain/keychain.jpg,0.0,key chain,sofa,40.0,60.0,key chain12,sofa5,40.0,60.0,0.0,21.977,0.477,,,,,
47,,confirmation,,html-keyboard-response,47,42562,0.0-1.0-10.0-0.0-1.0-0.0,0,0,4,,,,,,8.0,,,,,,,,,,,,,,,,,,,,,,,,,,,,,,,,23.0,1.023,,,,,
48,,isi,,html-keyboard-response,48,42669,0.0-1.0-10.0-0.0-2.0,0,0,4,,,,,,,,,,,,,,,,,,,,,,,,,,,,,,,,,,,,,,24.0,1.0,,,,,
49,,feedback,,html-keyboard-response,49,43677,0.0-1.0-10.0-0.0-3.0-0.0,0,0,4,,,,,,8.0,,,,,,,,,,,,,,,,,,,,,,,,,,,,,,,,25.0,1.0,,,,,
50,,iti,,html-keyboard-response,50,43783,0.0-1.0-10.0-0.0-5.0,0,0,4,,,,,,,,,,,,,,,,,,,,,,,,,,,,,,,,,,,,,,27.0,2.0,,,,,
51,,choice,,html-keyboard-response,51,43972,0.0-1.0-11.0-0.0-0.0,0,0,4,,186.0,,,51.0,9.0,309.0,2000.0,3500.0,0.0,6.0,0.0,20-60,,0.0,bench,patio lounge chair,20.0,60.0,bench11,patio lounge chair11,40.0,80.0,22928468.thl.jpg,51830.jpg,/static/Category_learning/Stimuli/Experimental_stims/bench/22928468.thl.jpg,/static/Category_learning/Stimuli/Experimental_stims/patio lounge chair/51830.jpg,0.0,patio lounge chair,bench,60.0,20.0,patio lounge chair11,bench11,80.0,40.0,0.0,27.186,0.186,,,,,
52,,confirmation,,html-keyboard-response,52,45293,0.0-1.0-11.0-0.0-1.0-0.0,0,0,4,,,,,,9.0,,,,,,,,,,,,,,,,,,,,,,,,,,,,,,,,28.5,1.314,,,,,
53,,isi,,html-keyboard-response,53,45399,0.0-1.0-11.0-0.0-2.0,0,0,4,,,,,,,,,,,,,,,,,,,,,,,,,,,,,,,,,,,,,,30.5,2.0,,,,,
54,,feedback,,html-keyboard-response,54,46407,0.0-1.0-11.0-0.0-3.0-0.0,0,0,4,,,,,,9.0,,,,,,,,,,,,,,,,,,,,,,,,,,,,,,,,31.5,1.0,,,,,
55,,iti,,html-keyboard-response,55,46514,0.0-1.0-11.0-0.0-5.0,0,0,4,,,,,,,,,,,,,,,,,,,,,,,,,,,,,,,,,,,,,,35.0,3.5,,,,,
56,,choice,,html-keyboard-response,56,46536,0.0-1.0-12.0-0.0-0.0,0,0,4,,18.0,,,50.0,10.0,310.0,1000.0,1000.0,0.0,6.0,1.0,40-80,0.0,,train,lipstick,80.0,40.0,train10,lipstick5,100.0,20.0,train3.jpg,P35719_hero.jpg,/static/Category_learning/Stimuli/Experimental_stims/train/train3.jpg,/static/Category_learning/Stimuli/Experimental_stims/lipstick/P35719_hero.jpg,1.0,train,lipstick,80.0,40.0,train10,lipstick5,100.0,20.0,0.0,35.018,0.018,,,,,
57,,confirmation,,html-keyboard-response,57,48023,0.0-1.0-12.0-0.0-1.0-0.0,0,0,4,,,,,,10.0,,,,,,,,,,,,,,,,,,,,,,,,,,,,,,,,36.5,1.482,,,,,
58,,isi,,html-keyboard-response,58,48130,0.0-1.0-12.0-0.0-2.0,0,0,4,,,,,,,,,,,,,,,,,,,,,,,,,,,,,,,,,,,,,,37.5,1.0,,,,,
59,,feedback,,html-keyboard-response,59,49133,0.0-1.0-12.0-0.0-3.0-0.0,0,0,4,,,,,,10.0,,,,,,,,,,,,,,,,,,,,,,,,,,,,,,,,38.5,1.0,,,,,
60,,iti,,html-keyboard-response,60,49239,0.0-1.0-12.0-0.0-5.0,0,0,4,,,,,,,,,,,,,,,,,,,,,,,,,,,,,,,,,,,,,,39.5,1.0,,,,,
61,,choice,,html-keyboard-response,61,49285,0.0-1.0-13.0-0.0-0.0,0,0,4,,42.0,,,50.0,11.0,311.0,1500.0,2000.0,0.0,6.0,1.0,20-40,0.0,,key chain,dresser,40.0,20.0,key chain12,dresser15,40.0,20.0,keychain.jpg,ADRESSE77.jpg,/static/Category_learning/Stimuli/Experimental_stims/key chain/keychain.jpg,/static/Category_learning/Stimuli/Experimental_stims/dresser/ADRESSE77.jpg,1.0,key chain,dresser,40.0,20.0,key chain12,dresser15,40.0,20.0,0.0,39.542,0.042,,,,,
62,,confirmation,,html-keyboard-response,62,50749,0.0-1.0-13.0-0.0-1.0-0.0,0,0,4,,,,,,11.0,,,,,,,,,,,,,,,,,,,,,,,,,,,,,,,,41.0,1.458,,,,,
63,,isi,,html-keyboard-response,63,50855,0.0-1.0-13.0-0.0-2.0,0,0,4,,,,,,,,,,,,,,,,,,,,,,,,,,,,,,,,,,,,,,42.5,1.5,,,,,
64,,feedback,,html-keyboard-response,64,51863,0.0-1.0-13.0-0.0-3.0-0.0,0,0,4,,,,,,11.0,,,,,,,,,,,,,,,,,,,,,,,,,,,,,,,,43.5,1.0,,,,,
65,,iti,,html-keyboard-response,65,51970,0.0-1.0-13.0-0.0-5.0,0,0,4,,,,,,,,,,,,,,,,,,,,,,,,,,,,,,,,,,,,,,45.5,2.0,,,,,
66,,choice,,html-keyboard-response,66,52046,0.0-1.0-14.0-0.0-0.0,0,0,4,,74.0,,,51.0,12.0,312.0,1500.0,1000.0,0.0,6.0,0.0,40-60,,0.0,key chain,necklace,40.0,60.0,key chain6,necklace1,40.0,80.0,highboy_keychain_ItemCA75384.jpg,26443173.thl.jpg,/static/Category_learning/Stimuli/Experimental_stims/key chain/highboy_keychain_ItemCA75384.jpg,/static/Category_learning/Stimuli/Experimental_stims/necklace/26443173.thl.jpg,0.0,necklace,key chain,60.0,40.0,necklace1,key chain6,80.0,40.0,0.0,45.574,0.074,,,,,
67,,confirmation,,html-keyboard-response,67,53479,0.0-1.0-14.0-0.0-1.0-0.0,0,0,4,,,,,,12.0,,,,,,,,,,,,,,,,,,,,,,,,,,,,,,,,47.0,1.426,,,,,
68,,isi,,html-keyboard-response,68,53586,0.0-1.0-14.0-0.0-2.0,0,0,4,,,,,,,,,,,,,,,,,,,,,,,,,,,,,,,,,,,,,,48.5,1.5,,,,,
69,,feedback,,html-keyboard-response,69,54594,0.0-1.0-14.0-0.0-3.0-0.0,0,0,4,,,,,,12.0,,,,,,,,,,,,,,,,,,,,,,,,,,,,,,,,49.5,1.0,,,,,
70,,iti,,html-keyboard-response,70,54701,0.0-1.0-14.0-0.0-5.0,0,0,4,,,,,,,,,,,,,,,,,,,,,,,,,,,,,,,,,,,,,,50.5,1.0,,,,,
71,,choice,,html-keyboard-response,71,54863,0.0-1.0-15.0-0.0-0.0,0,0,4,,159.0,,,51.0,13.0,313.0,1000.0,1500.0,0.0,6.0,0.0,40-80,,1.0,tent,microscope,80.0,40.0,tent5,microscope10,100.0,20.0,Dome Tentnb87r67.jpg,DS-2.jpg,/static/Category_learning/Stimuli/Experimental_stims/tent/Dome Tentnb87r67.jpg,/static/Category_learning/Stimuli/Experimental_stims/microscope/DS-2.jpg,0.0,microscope,tent,40.0,80.0,microscope10,tent5,20.0,100.0,0.0,50.659,0.159,,,,,
72,,confirmation,,html-keyboard-response,72,56210,0.0-1.0-15.0-0.0-1.0-0.0,0,0,4,,,,,,13.0,,,,,,,,,,,,,,,,,,,,,,,,,,,,,,,,52.0,1.341,,,,,
73,,isi,,html-keyboard-response,73,56317,0.0-1.0-15.0-0.0-2.0,0,0,4,,,,,,,,,,,,,,,,,,,,,,,,,,,,,,,,,,,,,,53.0,1.0,,,,,
74,,feedback,,html-keyboard-response,74,57325,0.0-1.0-15.0-0.0-3.0-0.0,0,0,4,,,,,,13.0,,,,,,,,,,,,,,,,,,,,,,,,,,,,,,,,54.0,1.0,,,,,
75,,iti,,html-keyboard-response,75,57428,0.0-1.0-15.0-0.0-5.0,0,0,4,,,,,,,,,,,,,,,,,,,,,,,,,,,,,,,,,,,,,,55.5,1.5,,,,,
76,,choice,,html-keyboard-response,76,59198,0.0-1.0-16.0-0.0-0.0,0,0,4,,,,,,14.0,314.0,1000.0,1500.0,0.0,6.0,0.0,60-80,,1.0,tape,poker card,80.0,60.0,tape14,poker card1,60.0,40.0,922544.jpg,22864704.thl.jpg,/static/Category_learning/Stimuli/Experimental_stims/tape/922544.jpg,/static/Category_learning/Stimuli/Experimental_stims/poker card/22864704.thl.jpg,,,,,,,,,,1.0,57.0,1.5,,,,,
77,,isi,,html-keyboard-response,77,60133,0.0-1.0-16.0-0.0-2.0,0,0,4,,,,,,,,,,,,,,,,,,,,,,,,,,,,,,,,,,,,,,58.0,1.0,,,,,
78,,no_response,,html-keyboard-response,78,62316,0.0-1.0-16.0-0.0-4.0-0.0,1,0,4,,,,,,,,,,,,,,,,,,,,,,,,,,,,,,,,,,,,,,59.0,1.0,,,,,
79,,iti,,html-keyboard-response,79,63415,0.0-1.0-16.0-0.0-5.0,0,0,4,,,,,,,,,,,,,,,,,,,,,,,,,,,,,,,,,,,,,,60.5,1.5,,,,,
80,,choice,,html-keyboard-response,80,65496,0.0-1.0-16.0-0.1-0.1,0,0,4,,,,,,14.0,314.0,1000.0,1500.0,0.0,6.0,0.0,60-80,,1.0,tape,poker card,80.0,60.0,tape14,poker card1,60.0,40.0,922544.jpg,22864704.thl.jpg,/static/Category_learning/Stimuli/Experimental_stims/tape/922544.jpg,/static/Category_learning/Stimuli/Experimental_stims/poker card/22864704.thl.jpg,,,,,,,,,,1.0,62.0,1.5,,,,,
81,,isi,,html-keyboard-response,81,66062,0.0-1.0-16.0-0.1-2.1,0,0,4,,,,,,,,,,,,,,,,,,,,,,,,,,,,,,,,,,,,,,64.0,2.0,,,,,
82,,no_response,,html-keyboard-response,82,67553,0.0-1.0-16.0-0.1-4.1-0.1,1,0,4,,,,,,,,,,,,,,,,,,,,,,,,,,,,,,,,,,,,,,65.0,1.0,,,,,
83,,iti,,html-keyboard-response,83,67676,0.0-1.0-16.0-0.1-5.1,0,0,4,,,,,,,,,,,,,,,,,,,,,,,,,,,,,,,,,,,,,,66.0,1.0,,,,,
84,,choice,,html-keyboard-response,84,70214,0.0-1.0-16.0-0.2-0.2,0,0,4,,,,,,14.0,314.0,1000.0,1500.0,0.0,6.0,0.0,60-80,,1.0,tape,poker card,80.0,60.0,tape14,poker card1,60.0,40.0,922544.jpg,22864704.thl.jpg,/static/Category_learning/Stimuli/Experimental_stims/tape/922544.jpg,/static/Category_learning/Stimuli/Experimental_stims/poker card/22864704.thl.jpg,,,,,,,,,,1.0,67.5,1.5,,,,,
85,,isi,,html-keyboard-response,85,71338,0.0-1.0-16.0-0.2-2.2,0,0,4,,,,,,,,,,,,,,,,,,,,,,,,,,,,,,,,,,,,,,69.5,2.0,,,,,
86,,no_response,,html-keyboard-response,86,72344,0.0-1.0-16.0-0.2-4.2-0.2,1,0,4,,,,,,,,,,,,,,,,,,,,,,,,,,,,,,,,,,,,,,70.5,1.0,,,,,
87,,iti,,html-keyboard-response,87,72465,0.0-1.0-16.0-0.2-5.2,0,0,4,,,,,,,,,,,,,,,,,,,,,,,,,,,,,,,,,,,,,,72.5,2.0,,,,,
88,,choice,,html-keyboard-response,88,72551,0.0-1.0-16.0-0.3-0.3,0,0,4,,82.0,,,51.0,14.0,314.0,1000.0,1500.0,0.0,6.0,0.0,60-80,,1.0,tape,poker card,80.0,60.0,tape14,poker card1,60.0,40.0,922544.jpg,22864704.thl.jpg,/static/Category_learning/Stimuli/Experimental_stims/tape/922544.jpg,/static/Category_learning/Stimuli/Experimental_stims/poker card/22864704.thl.jpg,0.0,poker card,tape,60.0,80.0,poker card1,tape14,40.0,60.0,0.0,72.582,0.082,,,,,
89,,confirmation,,html-keyboard-response,89,73976,0.0-1.0-16.0-0.3-1.3-0.3,0,0,4,,,,,,14.0,,,,,,,,,,,,,,,,,,,,,,,,,,,,,,,,74.0,1.418,,,,,
90,,isi,,html-keyboard-response,90,74083,0.0-1.0-16.0-0.3-2.3,0,0,4,,,,,,,,,,,,,,,,,,,,,,,,,,,,,,,,,,,,,,75.0,1.0,,,,,
91,,feedback,,html-keyboard-response,91,75090,0.0-1.0-16.0-0.3-3.3-0.3,0,0,4,,,,,,14.0,,,,,,,,,,,,,,,,,,,,,,,,,,,,,,,,76.0,1.0,,,,,
92,,iti,,html-keyboard-response,92,75197,0.0-1.0-16.0-0.3-5.3,0,0,4,,,,,,,,,,,,,,,,,,,,,,,,,,,,,,,,,,,,,,78.0,2.0,,,,,
93,,choice,,html-keyboard-response,93,75326,0.0-1.0-17.0-0.0-0.0,0,0,4,,125.0,,,51.0,15.0,315.0,1000.0,1000.0,0.0,6.0,0.0,60-60,,,small table,seashell,60.0,60.0,small table2,seashell8,60.0,40.0,Atable126.jpg,ASEASHEL9.jpg,/static/Category_learning/Stimuli/Experimental_stims/small table/Atable126.jpg,/static/Category_learning/Stimuli/Experimental_stims/seashell/ASEASHEL9.jpg,0.0,seashell,small table,60.0,60.0,seashell8,small table2,40.0,60.0,0.0,78.125,0.125,,,,,
94,,confirmation,,html-keyboard-response,94,76706,0.0-1.0-17.0-0.0-1.0-0.0,0,0,4,,,,,,15.0,,,,,,,,,,,,,,,,,,,,,,,,,,,,,,,,79.5,1.375,,,,,
95,,isi,,html-keyboard-response,95,76810,0.0-1.0-17.0-0.0-2.0,0,0,4,,,,,,,,,,,,,,,,,,,,,,,,,,,,,,,,,,,,,,80.5,1.0,,,,,
96,,feedback,,html-keyboard-response,96,77817,0.0-1.0-17.0-0.0-3.0-0.0,0,0,4,,,,,,15.0,,,,,,,,,,,,,,,,,,,,,,,,,,,,,,,,81.5,1.0,,,,,
97,,iti,,html-keyboard-response,97,77924,0.0-1.0-17.0-0.0-5.0,0,0,4,,,,,,,,,,,,,,,,,,,,,,,,,,,,,,,,,,,,,,82.5,1.0,,,,,
98,,choice,,html-keyboard-response,98,78185,0.0-1.0-18.0-0.0-0.0,0,0,4,,257.0,,,50.0,16.0,316.0,1500.0,1000.0,0.0,6.0,1.0,60-60,0.0,,poker card,seashell,60.0,60.0,poker card1,seashell8,40.0,40.0,22864704.thl.jpg,ASEASHEL9.jpg,/static/Category_learning/Stimuli/Experimental_stims/poker card/22864704.thl.jpg,/static/Category_learning/Stimuli/Experimental_stims/seashell/ASEASHEL9.jpg,1.0,poker card,seashell,60.0,60.0,poker card1,seashell8,40.0,40.0,0.0,82.757,0.257,,,,,
99,,confirmation,,html-keyboard-response,99,79437,0.0-1.0-18.0-0.0-1.0-0.0,0,0,4,,,,,,16.0,,,,,,,,,,,,,,,,,,,,,,,,,,,,,,,,84.0,1.243,,,,,
100,,isi,,html-keyboard-response,100,79540,0.0-1.0-18.0-0.0-2.0,0,0,4,,,,,,,,,,,,,,,,,,,,,,,,,,,,,,,,,,,,,,85.5,1.5,,,,,
101,,feedback,,html-keyboard-response,101,80546,0.0-1.0-18.0-0.0-3.0-0.0,0,0,4,,,,,,16.0,,,,,,,,,,,,,,,,,,,,,,,,,,,,,,,,86.5,1.0,,,,,
102,,iti,,html-keyboard-response,102,80653,0.0-1.0-18.0-0.0-5.0,0,0,4,,,,,,,,,,,,,,,,,,,,,,,,,,,,,,,,,,,,,,87.5,1.0,,,,,
103,,choice,,html-keyboard-response,103,81031,0.0-1.0-19.0-0.0-0.0,0,0,4,,375.0,,,51.0,17.0,317.0,2000.0,2000.0,0.0,6.0,0.0,20-60,,1.0,nail polish,bowl,60.0,20.0,nail polish7,bowl10,40.0,0.0,117BDAkbo5L._AA160_.jpg,Abowl50.jpg,/static/Category_learning/Stimuli/Experimental_stims/nail polish/117BDAkbo5L._AA160_.jpg,/static/Category_learning/Stimuli/Experimental_stims/bowl/Abowl50.jpg,0.0,bowl,nail polish,20.0,60.0,bowl10,nail polish7,0.0,40.0,0.0,87.875,0.375,,,,,
104,,confirmation,,html-keyboard-response,104,82162,0.0-1.0-19.0-0.0-1.0-0.0,0,0,4,,,,,,17.0,,,,,,,,,,,,,,,,,,,,,,,,,,,,,,,,89.0,1.125,,,,,
105,,isi,,html-keyboard-response,105,82269,0.0-1.0-19.0-0.0-2.0,0,0,4,,,,,,,,,,,,,,,,,,,,,,,,,,,,,,,,,,,,,,91.0,2.0,,,,,
106,,feedback,,html-keyboard-response,106,83274,0.0-1.0-19.0-0.0-3.0-0.0,0,0,4,,,,,,17.0,,,,,,,,,,,,,,,,,,,,,,,,,,,,,,,,92.0,1.0,,,,,
107,,iti,,html-keyboard-response,107,83378,0.0-1.0-19.0-0.0-5.0,0,0,4,,,,,,,,,,,,,,,,,,,,,,,,,,,,,,,,,,,,,,94.0,2.0,,,,,
108,,choice,,html-keyboard-response,108,83815,0.0-1.0-20.0-0.0-0.0,0,0,4,,433.0,,,51.0,18.0,318.0,1000.0,1000.0,0.0,6.0,0.0,20-80,,1.0,trumpet,flashlight,80.0,20.0,trumpet4,flashlight13,60.0,0.0,JUPITER+JTR1000S.jpg,834808_sk_lg.jpg,/static/Category_learning/Stimuli/Experimental_stims/trumpet/JUPITER+JTR1000S.jpg,/static/Category_learning/Stimuli/Experimental_stims/flashlight/834808_sk_lg.jpg,0.0,flashlight,trumpet,20.0,80.0,flashlight13,trumpet4,0.0,60.0,0.0,94.433,0.433,,,,,
109,,confirmation,,html-keyboard-response,109,84888,0.0-1.0-20.0-0.0-1.0-0.0,0,0,4,,,,,,18.0,,,,,,,,,,,,,,,,,,,,,,,,,,,,,,,,95.5,1.067,,,,,
110,,isi,,html-keyboard-response,110,84994,0.0-1.0-20.0-0.0-2.0,0,0,4,,,,,,,,,,,,,,,,,,,,,,,,,,,,,,,,,,,,,,96.5,1.0,,,,,
111,,feedback,,html-keyboard-response,111,85998,0.0-1.0-20.0-0.0-3.0-0.0,0,0,4,,,,,,18.0,,,,,,,,,,,,,,,,,,,,,,,,,,,,,,,,97.5,1.0,,,,,
112,,iti,,html-keyboard-response,112,86104,0.0-1.0-20.0-0.0-5.0,0,0,4,,,,,,,,,,,,,,,,,,,,,,,,,,,,,,,,,,,,,,98.5,1.0,,,,,
113,,choice,,html-keyboard-response,113,86235,0.0-1.0-21.0-0.0-0.0,0,0,4,,129.0,,,50.0,19.0,319.0,1000.0,2000.0,0.0,6.0,0.0,80-80,,,vase,telescope,80.0,80.0,vase8,telescope10,60.0,100.0,Avase171.jpg,digimarc.ms02.jpg,/static/Category_learning/Stimuli/Experimental_stims/vase/Avase171.jpg,/static/Category_learning/Stimuli/Experimental_stims/telescope/digimarc.ms02.jpg,1.0,vase,telescope,80.0,80.0,vase8,telescope10,60.0,100.0,0.0,98.629,0.129,,,,,
114,,confirmation,,html-keyboard-response,114,87611,0.0-1.0-21.0-0.0-1.0-0.0,0,0,4,,,,,,19.0,,,,,,,,,,,,,,,,,,,,,,,,,,,,,,,,100.0,1.371,,,,,
115,,isi,,html-keyboard-response,115,87714,0.0-1.0-21.0-0.0-2.0,0,0,4,,,,,,,,,,,,,,,,,,,,,,,,,,,,,,,,,,,,,,101.0,1.0,,,,,
116,,feedback,,html-keyboard-response,116,88717,0.0-1.0-21.0-0.0-3.0-0.0,0,0,4,,,,,,19.0,,,,,,,,,,,,,,,,,,,,,,,,,,,,,,,,102.0,1.0,,,,,
117,,iti,,html-keyboard-response,117,88824,0.0-1.0-21.0-0.0-5.0,0,0,4,,,,,,,,,,,,,,,,,,,,,,,,,,,,,,,,,,,,,,104.0,2.0,,,,,
118,,choice,,html-keyboard-response,118,88928,0.0-1.0-22.0-0.0-0.0,0,0,4,,101.0,,,51.0,20.0,320.0,1000.0,1000.0,0.0,6.0,0.0,40-80,,0.0,frame,telescope,40.0,80.0,frame15,telescope2,20.0,100.0,AFRAME13.jpg,Brass-telescope-60700.jpg,/static/Category_learning/Stimuli/Experimental_stims/frame/AFRAME13.jpg,/static/Category_learning/Stimuli/Experimental_stims/telescope/Brass-telescope-60700.jpg,0.0,telescope,frame,80.0,40.0,telescope2,frame15,100.0,20.0,0.0,104.101,0.101,,,,,
119,,confirmation,,html-keyboard-response,119,90333,0.0-1.0-22.0-0.0-1.0-0.0,0,0,4,,,,,,20.0,,,,,,,,,,,,,,,,,,,,,,,,,,,,,,,,105.5,1.399,,,,,
120,,isi,,html-keyboard-response,120,90440,0.0-1.0-22.0-0.0-2.0,0,0,4,,,,,,,,,,,,,,,,,,,,,,,,,,,,,,,,,,,,,,106.5,1.0,,,,,
121,,feedback,,html-keyboard-response,121,91448,0.0-1.0-22.0-0.0-3.0-0.0,0,0,4,,,,,,20.0,,,,,,,,,,,,,,,,,,,,,,,,,,,,,,,,107.5,1.0,,,,,
122,,iti,,html-keyboard-response,122,91555,0.0-1.0-22.0-0.0-5.0,0,0,4,,,,,,,,,,,,,,,,,,,,,,,,,,,,,,,,,,,,,,108.5,1.0,,,,,
123,,choice,,html-keyboard-response,123,91898,0.0-1.0-23.0-0.0-0.0,0,0,4,,340.0,,,51.0,21.0,321.0,1500.0,1500.0,0.0,6.0,0.0,40-40,,,license plate,makeup compact,40.0,40.0,license plate15,makeup compact14,40.0,60.0,hi-hwr-837.jpg,262597_fpx.jpg,/static/Category_learning/Stimuli/Experimental_stims/license plate/hi-hwr-837.jpg,/static/Category_learning/Stimuli/Experimental_stims/makeup compact/262597_fpx.jpg,0.0,makeup compact,license plate,40.0,40.0,makeup compact14,license plate15,60.0,40.0,0.0,108.84,0.34,,,,,
124,,confirmation,,html-keyboard-response,124,93064,0.0-1.0-23.0-0.0-1.0-0.0,0,0,4,,,,,,21.0,,,,,,,,,,,,,,,,,,,,,,,,,,,,,,,,110.0,1.16,,,,,
125,,isi,,html-keyboard-response,125,93170,0.0-1.0-23.0-0.0-2.0,0,0,4,,,,,,,,,,,,,,,,,,,,,,,,,,,,,,,,,,,,,,111.5,1.5,,,,,
126,,feedback,,html-keyboard-response,126,94177,0.0-1.0-23.0-0.0-3.0-0.0,0,0,4,,,,,,21.0,,,,,,,,,,,,,,,,,,,,,,,,,,,,,,,,112.5,1.0,,,,,
127,,iti,,html-keyboard-response,127,94283,0.0-1.0-23.0-0.0-5.0,0,0,4,,,,,,,,,,,,,,,,,,,,,,,,,,,,,,,,,,,,,,114.0,1.5,,,,,
128,,choice,,html-keyboard-response,128,94454,0.0-1.0-24.0-0.0-0.0,0,0,4,,167.0,,,50.0,22.0,322.0,3500.0,1500.0,0.0,6.0,0.0,20-40,,1.0,hat,baby carriage,40.0,20.0,hat15,baby carriage7,40.0,0.0,AFISHHAT2.jpg,26423282.thl.jpg,/static/Category_learning/Stimuli/Experimental_stims/hat/AFISHHAT2.jpg,/static/Category_learning/Stimuli/Experimental_stims/baby carriage/26423282.thl.jpg,1.0,hat,baby carriage,40.0,20.0,hat15,baby carriage7,40.0,0.0,0.0,114.167,0.167,,,,,
129,,confirmation,,html-keyboard-response,129,95794,0.0-1.0-24.0-0.0-1.0-0.0,0,0,4,,,,,,22.0,,,,,,,,,,,,,,,,,,,,,,,,,,,,,,,,115.5,1.333,,,,,
130,,isi,,html-keyboard-response,130,95901,0.0-1.0-24.0-0.0-2.0,0,0,4,,,,,,,,,,,,,,,,,,,,,,,,,,,,,,,,,,,,,,119.0,3.5,,,,,
131,,feedback,,html-keyboard-response,131,96904,0.0-1.0-24.0-0.0-3.0-0.0,0,0,4,,,,,,22.0,,,,,,,,,,,,,,,,,,,,,,,,,,,,,,,,120.0,1.0,,,,,
132,,iti,,html-keyboard-response,132,97011,0.0-1.0-24.0-0.0-5.0,0,0,4,,,,,,,,,,,,,,,,,,,,,,,,,,,,,,,,,,,,,,121.5,1.5,,,,,
133,,choice,,html-keyboard-response,133,97017,0.0-1.0-25.0-0.0-0.0,0,0,4,,4.0,,,50.0,23.0,323.0,3000.0,1000.0,0.0,6.0,0.0,20-60,,0.0,desk,nail polish,20.0,60.0,desk13,nail polish13,0.0,80.0,26427865.thl.jpg,31cR10fzlML._AA280_.jpg,/static/Category_learning/Stimuli/Experimental_stims/desk/26427865.thl.jpg,/static/Category_learning/Stimuli/Experimental_stims/nail polish/31cR10fzlML._AA280_.jpg,1.0,desk,nail polish,20.0,60.0,desk13,nail polish13,0.0,80.0,0.0,121.504,0.004,,,,,
134,,confirmation,,html-keyboard-response,134,98520,0.0-1.0-25.0-0.0-1.0-0.0,0,0,4,,,,,,23.0,,,,,,,,,,,,,,,,,,,,,,,,,,,,,,,,123.0,1.496,,,,,
135,,isi,,html-keyboard-response,135,98628,0.0-1.0-25.0-0.0-2.0,0,0,4,,,,,,,,,,,,,,,,,,,,,,,,,,,,,,,,,,,,,,126.0,3.0,,,,,
136,,feedback,,html-keyboard-response,136,99631,0.0-1.0-25.0-0.0-3.0-0.0,0,0,4,,,,,,23.0,,,,,,,,,,,,,,,,,,,,,,,,,,,,,,,,127.0,1.0,,,,,
137,,iti,,html-keyboard-response,137,99736,0.0-1.0-25.0-0.0-5.0,0,0,4,,,,,,,,,,,,,,,,,,,,,,,,,,,,,,,,,,,,,,128.0,1.0,,,,,
138,,choice,,html-keyboard-response,138,100066,0.0-1.0-26.0-0.0-0.0,0,0,4,,327.0,,,50.0,24.0,324.0,1000.0,1000.0,0.0,6.0,1.0,20-80,0.0,,bowl,telescope,20.0,80.0,bowl10,telescope2,0.0,100.0,Abowl50.jpg,Brass-telescope-60700.jpg,/static/Category_learning/Stimuli/Experimental_stims/bowl/Abowl50.jpg,/static/Category_learning/Stimuli/Experimental_stims/telescope/Brass-telescope-60700.jpg,1.0,bowl,telescope,20.0,80.0,bowl10,telescope2,0.0,100.0,0.0,128.327,0.327,,,,,
139,,confirmation,,html-keyboard-response,139,101246,0.0-1.0-26.0-0.0-1.0-0.0,0,0,4,,,,,,24.0,,,,,,,,,,,,,,,,,,,,,,,,,,,,,,,,129.5,1.173,,,,,
140,,isi,,html-keyboard-response,140,101352,0.0-1.0-26.0-0.0-2.0,0,0,4,,,,,,,,,,,,,,,,,,,,,,,,,,,,,,,,,,,,,,130.5,1.0,,,,,
141,,feedback,,html-keyboard-response,141,102360,0.0-1.0-26.0-0.0-3.0-0.0,0,0,4,,,,,,24.0,,,,,,,,,,,,,,,,,,,,,,,,,,,,,,,,131.5,1.0,,,,,
142,,iti,,html-keyboard-response,142,102467,0.0-1.0-26.0-0.0-5.0,0,0,4,,,,,,,,,,,,,,,,,,,,,,,,,,,,,,,,,,,,,,132.5,1.0,,,,,
143,,choice,,html-keyboard-response,143,102763,0.0-1.0-27.0-0.0-0.0,0,0,4,,293.0,,,51.0,25.0,325.0,1500.0,1000.0,0.0,6.0,0.0,40-60,,1.0,necklace,hammer,60.0,40.0,necklace14,hammer10,80.0,20.0,necklascenew05.jpg,Tabla Hammer.JPG,/static/Category_learning/Stimuli/Experimental_stims/necklace/necklascenew05.jpg,/static/Category_learning/Stimuli/Experimental_stims/hammer/Tabla Hammer.JPG,0.0,hammer,necklace,40.0,60.0,hammer10,necklace14,20.0,80.0,0.0,132.793,0.293,,,,,
144,,confirmation,,html-keyboard-response,144,103978,0.0-1.0-27.0-0.0-1.0-0.0,0,0,4,,,,,,25.0,,,,,,,,,,,,,,,,,,,,,,,,,,,,,,,,134.0,1.207,,,,,
145,,isi,,html-keyboard-response,145,104083,0.0-1.0-27.0-0.0-2.0,0,0,4,,,,,,,,,,,,,,,,,,,,,,,,,,,,,,,,,,,,,,135.5,1.5,,,,,
146,,feedback,,html-keyboard-response,146,105091,0.0-1.0-27.0-0.0-3.0-0.0,0,0,4,,,,,,25.0,,,,,,,,,,,,,,,,,,,,,,,,,,,,,,,,136.5,1.0,,,,,
147,,iti,,html-keyboard-response,147,105197,0.0-1.0-27.0-0.0-5.0,0,0,4,,,,,,,,,,,,,,,,,,,,,,,,,,,,,,,,,,,,,,137.5,1.0,,,,,
148,,choice,,html-keyboard-response,148,105418,0.0-1.0-28.0-0.0-0.0,0,0,4,,219.0,,,50.0,26.0,326.0,1500.0,1500.0,0.0,6.0,1.0,40-60,0.0,,necklace,hat,60.0,40.0,necklace1,hat15,80.0,40.0,26443173.thl.jpg,AFISHHAT2.jpg,/static/Category_learning/Stimuli/Experimental_stims/necklace/26443173.thl.jpg,/static/Category_learning/Stimuli/Experimental_stims/hat/AFISHHAT2.jpg,1.0,necklace,hat,60.0,40.0,necklace1,hat15,80.0,40.0,0.0,137.719,0.219,,,,,
149,,confirmation,,html-keyboard-response,149,106705,0.0-1.0-28.0-0.0-1.0-0.0,0,0,4,,,,,,26.0,,,,,,,,,,,,,,,,,,,,,,,,,,,,,,,,139.0,1.281,,,,,
150,,isi,,html-keyboard-response,150,106811,0.0-1.0-28.0-0.0-2.0,0,0,4,,,,,,,,,,,,,,,,,,,,,,,,,,,,,,,,,,,,,,140.5,1.5,,,,,
151,,feedback,,html-keyboard-response,151,107816,0.0-1.0-28.0-0.0-3.0-0.0,0,0,4,,,,,,26.0,,,,,,,,,,,,,,,,,,,,,,,,,,,,,,,,141.5,1.0,,,,,
152,,iti,,html-keyboard-response,152,107923,0.0-1.0-28.0-0.0-5.0,0,0,4,,,,,,,,,,,,,,,,,,,,,,,,,,,,,,,,,,,,,,143.0,1.5,,,,,
153,,choice,,html-keyboard-response,153,108088,0.0-1.0-29.0-0.0-0.0,0,0,4,,163.0,,,50.0,27.0,327.0,1000.0,1500.0,0.0,6.0,0.0,20-80,,1.0,trumpet,bongo,80.0,20.0,trumpet8,bongo10,80.0,20.0,trumpet33.jpg,22945915.thl.jpg,/static/Category_learning/Stimuli/Experimental_stims/trumpet/trumpet33.jpg,/static/Category_learning/Stimuli/Experimental_stims/bongo/22945915.thl.jpg,1.0,trumpet,bongo,80.0,20.0,trumpet8,bongo10,80.0,20.0,0.0,143.163,0.163,,,,,
154,,confirmation,,html-keyboard-response,154,109432,0.0-1.0-29.0-0.0-1.0-0.0,0,0,4,,,,,,27.0,,,,,,,,,,,,,,,,,,,,,,,,,,,,,,,,144.5,1.337,,,,,
155,,isi,,html-keyboard-response,155,109539,0.0-1.0-29.0-0.0-2.0,0,0,4,,,,,,,,,,,,,,,,,,,,,,,,,,,,,,,,,,,,,,145.5,1.0,,,,,
156,,feedback,,html-keyboard-response,156,110547,0.0-1.0-29.0-0.0-3.0-0.0,0,0,4,,,,,,27.0,,,,,,,,,,,,,,,,,,,,,,,,,,,,,,,,146.5,1.0,,,,,
157,,iti,,html-keyboard-response,157,110653,0.0-1.0-29.0-0.0-5.0,0,0,4,,,,,,,,,,,,,,,,,,,,,,,,,,,,,,,,,,,,,,148.0,1.5,,,,,
158,,choice,,html-keyboard-response,158,111541,0.0-1.0-30.0-0.0-0.0,0,0,4,,884.0,,,51.0,28.0,328.0,1000.0,2000.0,0.0,6.0,1.0,40-40,0.0,,microscope,hammer,40.0,40.0,microscope10,hammer10,20.0,20.0,DS-2.jpg,Tabla Hammer.JPG,/static/Category_learning/Stimuli/Experimental_stims/microscope/DS-2.jpg,/static/Category_learning/Stimuli/Experimental_stims/hammer/Tabla Hammer.JPG,0.0,hammer,microscope,40.0,40.0,hammer10,microscope10,20.0,20.0,0.0,148.884,0.884,,,,,
159,,confirmation,,html-keyboard-response,159,112163,0.0-1.0-30.0-0.0-1.0-0.0,0,0,4,,,,,,28.0,,,,,,,,,,,,,,,,,,,,,,,,,,,,,,,,149.5,0.616,,,,,
160,,isi,,html-keyboard-response,160,112270,0.0-1.0-30.0-0.0-2.0,0,0,4,,,,,,,,,,,,,,,,,,,,,,,,,,,,,,,,,,,,,,150.5,1.0,,,,,
161,,feedback,,html-keyboard-response,161,113278,0.0-1.0-30.0-0.0-3.0-0.0,0,0,4,,,,,,28.0,,,,,,,,,,,,,,,,,,,,,,,,,,,,,,,,151.5,1.0,,,,,
162,,iti,,html-keyboard-response,162,113381,0.0-1.0-30.0-0.0-5.0,0,0,4,,,,,,,,,,,,,,,,,,,,,,,,,,,,,,,,,,,,,,153.5,2.0,,,,,
163,,choice,,html-keyboard-response,163,114018,0.0-1.0-31.0-0.0-0.0,0,0,4,,635.0,,,51.0,29.0,329.0,2000.0,1000.0,0.0,6.0,0.0,40-60,,0.0,motorcycle,small table,40.0,60.0,motorcycle4,small table15,20.0,40.0,motorcycle46.jpg,ATABLE20.jpg,/static/Category_learning/Stimuli/Experimental_stims/motorcycle/motorcycle46.jpg,/static/Category_learning/Stimuli/Experimental_stims/small table/ATABLE20.jpg,0.0,small table,motorcycle,60.0,40.0,small table15,motorcycle4,40.0,20.0,0.0,154.135,0.635,,,,,
164,,confirmation,,html-keyboard-response,164,114888,0.0-1.0-31.0-0.0-1.0-0.0,0,0,4,,,,,,29.0,,,,,,,,,,,,,,,,,,,,,,,,,,,,,,,,155.0,0.865,,,,,
165,,isi,,html-keyboard-response,165,114994,0.0-1.0-31.0-0.0-2.0,0,0,4,,,,,,,,,,,,,,,,,,,,,,,,,,,,,,,,,,,,,,157.0,2.0,,,,,
166,,feedback,,html-keyboard-response,166,115998,0.0-1.0-31.0-0.0-3.0-0.0,0,0,4,,,,,,29.0,,,,,,,,,,,,,,,,,,,,,,,,,,,,,,,,158.0,1.0,,,,,
167,,iti,,html-keyboard-response,167,116104,0.0-1.0-31.0-0.0-5.0,0,0,4,,,,,,,,,,,,,,,,,,,,,,,,,,,,,,,,,,,,,,159.0,1.0,,,,,
168,,choice,,html-keyboard-response,168,116341,0.0-1.0-32.0-0.0-0.0,0,0,4,,233.0,,,51.0,30.0,330.0,1000.0,3500.0,0.0,6.0,0.0,40-80,,1.0,tape,hammer,80.0,40.0,tape2,hammer15,100.0,60.0,Tape_Dispenser.jpg,Vaughan-32-oz-Hickory-Handle-Ball-Pein-Hammer-S432-B0001LRUJM-L-ARCQ0EBO8TR73_.jpg,/static/Category_learning/Stimuli/Experimental_stims/tape/Tape_Dispenser.jpg,/static/Category_learning/Stimuli/Experimental_stims/hammer/Vaughan-32-oz-Hickory-Handle-Ball-Pein-Hammer-S432-B0001LRUJM-L-ARCQ0EBO8TR73_.jpg,0.0,hammer,tape,40.0,80.0,hammer15,tape2,60.0,100.0,0.0,159.233,0.233,,,,,
169,,confirmation,,html-keyboard-response,169,117614,0.0-1.0-32.0-0.0-1.0-0.0,0,0,4,,,,,,30.0,,,,,,,,,,,,,,,,,,,,,,,,,,,,,,,,160.5,1.267,,,,,
170,,isi,,html-keyboard-response,170,117720,0.0-1.0-32.0-0.0-2.0,0,0,4,,,,,,,,,,,,,,,,,,,,,,,,,,,,,,,,,,,,,,161.5,1.0,,,,,
171,,feedback,,html-keyboard-response,171,118728,0.0-1.0-32.0-0.0-3.0-0.0,0,0,4,,,,,,30.0,,,,,,,,,,,,,,,,,,,,,,,,,,,,,,,,162.5,1.0,,,,,
172,,iti,,html-keyboard-response,172,118832,0.0-1.0-32.0-0.0-5.0,0,0,4,,,,,,,,,,,,,,,,,,,,,,,,,,,,,,,,,,,,,,166.0,3.5,,,,,
173,,choice,,html-keyboard-response,173,119309,0.0-1.0-33.0-0.0-0.0,0,0,4,,474.0,,,51.0,31.0,331.0,1000.0,1000.0,0.0,6.0,1.0,20-40,0.0,,makeup compact,desk,40.0,20.0,makeup compact14,desk13,60.0,0.0,262597_fpx.jpg,26427865.thl.jpg,/static/Category_learning/Stimuli/Experimental_stims/makeup compact/262597_fpx.jpg,/static/Category_learning/Stimuli/Experimental_stims/desk/26427865.thl.jpg,0.0,desk,makeup compact,20.0,40.0,desk13,makeup compact14,0.0,60.0,0.0,166.474,0.474,,,,,
174,,confirmation,,html-keyboard-response,174,120342,0.0-1.0-33.0-0.0-1.0-0.0,0,0,4,,,,,,31.0,,,,,,,,,,,,,,,,,,,,,,,,,,,,,,,,167.5,1.026,,,,,
175,,isi,,html-keyboard-response,175,120445,0.0-1.0-33.0-0.0-2.0,0,0,4,,,,,,,,,,,,,,,,,,,,,,,,,,,,,,,,,,,,,,168.5,1.0,,,,,
176,,feedback,,html-keyboard-response,176,121452,0.0-1.0-33.0-0.0-3.0-0.0,0,0,4,,,,,,31.0,,,,,,,,,,,,,,,,,,,,,,,,,,,,,,,,169.5,1.0,,,,,
177,,iti,,html-keyboard-response,177,121558,0.0-1.0-33.0-0.0-5.0,0,0,4,,,,,,,,,,,,,,,,,,,,,,,,,,,,,,,,,,,,,,170.5,1.0,,,,,
178,,choice,,html-keyboard-response,178,121935,0.0-1.0-34.0-0.0-0.0,0,0,4,,374.0,,,50.0,32.0,332.0,1500.0,3500.0,0.0,6.0,0.0,40-60,,0.0,key chain,poker card,40.0,60.0,key chain4,poker card3,20.0,40.0,Gumby_Green-Keychain.jpg,9817131.thl.jpg,/static/Category_learning/Stimuli/Experimental_stims/key chain/Gumby_Green-Keychain.jpg,/static/Category_learning/Stimuli/Experimental_stims/poker card/9817131.thl.jpg,1.0,key chain,poker card,40.0,60.0,key chain4,poker card3,20.0,40.0,0.0,170.874,0.374,,,,,
179,,confirmation,,html-keyboard-response,179,123066,0.0-1.0-34.0-0.0-1.0-0.0,0,0,4,,,,,,32.0,,,,,,,,,,,,,,,,,,,,,,,,,,,,,,,,172.0,1.126,,,,,
180,,isi,,html-keyboard-response,180,123171,0.0-1.0-34.0-0.0-2.0,0,0,4,,,,,,,,,,,,,,,,,,,,,,,,,,,,,,,,,,,,,,173.5,1.5,,,,,
181,,feedback,,html-keyboard-response,181,124179,0.0-1.0-34.0-0.0-3.0-0.0,0,0,4,,,,,,32.0,,,,,,,,,,,,,,,,,,,,,,,,,,,,,,,,174.5,1.0,,,,,
182,,iti,,html-keyboard-response,182,124286,0.0-1.0-34.0-0.0-5.0,0,0,4,,,,,,,,,,,,,,,,,,,,,,,,,,,,,,,,,,,,,,178.0,3.5,,,,,
183,,choice,,html-keyboard-response,183,124573,0.0-1.0-35.0-0.0-0.0,0,0,4,,284.0,,,51.0,33.0,333.0,1500.0,2000.0,0.0,6.0,1.0,60-80,0.0,,patio lounge chair,trumpet,60.0,80.0,patio lounge chair11,trumpet8,80.0,80.0,51830.jpg,trumpet33.jpg,/static/Category_learning/Stimuli/Experimental_stims/patio lounge chair/51830.jpg,/static/Category_learning/Stimuli/Experimental_stims/trumpet/trumpet33.jpg,0.0,trumpet,patio lounge chair,80.0,60.0,trumpet8,patio lounge chair11,80.0,80.0,0.0,178.284,0.284,,,,,
184,,confirmation,,html-keyboard-response,184,125798,0.0-1.0-35.0-0.0-1.0-0.0,0,0,4,,,,,,33.0,,,,,,,,,,,,,,,,,,,,,,,,,,,,,,,,179.5,1.216,,,,,
185,,isi,,html-keyboard-response,185,125904,0.0-1.0-35.0-0.0-2.0,0,0,4,,,,,,,,,,,,,,,,,,,,,,,,,,,,,,,,,,,,,,181.0,1.5,,,,,
186,,feedback,,html-keyboard-response,186,126912,0.0-1.0-35.0-0.0-3.0-0.0,0,0,4,,,,,,33.0,,,,,,,,,,,,,,,,,,,,,,,,,,,,,,,,182.0,1.0,,,,,
187,,iti,,html-keyboard-response,187,127016,0.0-1.0-35.0-0.0-5.0,0,0,4,,,,,,,,,,,,,,,,,,,,,,,,,,,,,,,,,,,,,,184.0,2.0,,,,,
188,,choice,,html-keyboard-response,188,127431,0.0-1.0-36.0-0.0-0.0,0,0,4,,411.0,,,51.0,34.0,334.0,1500.0,2000.0,0.0,6.0,0.0,80-80,,,telescope,trumpet,80.0,80.0,telescope8,trumpet6,80.0,60.0,p0006439g.jpg,JUP416S.JPG,/static/Category_learning/Stimuli/Experimental_stims/telescope/p0006439g.jpg,/static/Category_learning/Stimuli/Experimental_stims/trumpet/JUP416S.JPG,0.0,trumpet,telescope,80.0,80.0,trumpet6,telescope8,60.0,80.0,0.0,184.411,0.411,,,,,
189,,confirmation,,html-keyboard-response,189,128528,0.0-1.0-36.0-0.0-1.0-0.0,0,0,4,,,,,,34.0,,,,,,,,,,,,,,,,,,,,,,,,,,,,,,,,185.5,1.089,,,,,
190,,isi,,html-keyboard-response,190,128632,0.0-1.0-36.0-0.0-2.0,0,0,4,,,,,,,,,,,,,,,,,,,,,,,,,,,,,,,,,,,,,,187.0,1.5,,,,,
191,,feedback,,html-keyboard-response,191,129641,0.0-1.0-36.0-0.0-3.0-0.0,0,0,4,,,,,,34.0,,,,,,,,,,,,,,,,,,,,,,,,,,,,,,,,188.0,1.0,,,,,
192,,iti,,html-keyboard-response,192,129747,0.0-1.0-36.0-0.0-5.0,0,0,4,,,,,,,,,,,,,,,,,,,,,,,,,,,,,,,,,,,,,,190.0,2.0,,,,,
193,,choice,,html-keyboard-response,193,129792,0.0-1.0-37.0-0.0-0.0,0,0,4,,41.0,,,51.0,35.0,335.0,1000.0,1000.0,0.0,6.0,0.0,20-40,,0.0,bowl,hammer,20.0,40.0,bowl14,hammer1,40.0,20.0,Aredglassbowl.jpg,fosnaugh.hammer.jpg,/static/Category_learning/Stimuli/Experimental_stims/bowl/Aredglassbowl.jpg,/static/Category_learning/Stimuli/Experimental_stims/hammer/fosnaugh.hammer.jpg,0.0,hammer,bowl,40.0,20.0,hammer1,bowl14,20.0,40.0,0.0,190.041,0.041,,,,,
194,,confirmation,,html-keyboard-response,194,131259,0.0-1.0-37.0-0.0-1.0-0.0,0,0,4,,,,,,35.0,,,,,,,,,,,,,,,,,,,,,,,,,,,,,,,,191.5,1.459,,,,,
195,,isi,,html-keyboard-response,195,131363,0.0-1.0-37.0-0.0-2.0,0,0,4,,,,,,,,,,,,,,,,,,,,,,,,,,,,,,,,,,,,,,192.5,1.0,,,,,
196,,feedback,,html-keyboard-response,196,132369,0.0-1.0-37.0-0.0-3.0-0.0,0,0,4,,,,,,35.0,,,,,,,,,,,,,,,,,,,,,,,,,,,,,,,,193.5,1.0,,,,,
197,,iti,,html-keyboard-response,197,132472,0.0-1.0-37.0-0.0-5.0,0,0,4,,,,,,,,,,,,,,,,,,,,,,,,,,,,,,,,,,,,,,194.5,1.0,,,,,
198,,choice,,html-keyboard-response,198,133978,0.0-1.0-38.0-0.0-0.0,0,0,4,,,,,,36.0,336.0,2000.0,1000.0,0.0,6.0,1.0,40-40,1.0,,hammer,hammer,40.0,40.0,hammer15,hammer1,60.0,20.0,Vaughan-32-oz-Hickory-Handle-Ball-Pein-Hammer-S432-B0001LRUJM-L-ARCQ0EBO8TR73_.jpg,fosnaugh.hammer.jpg,/static/Category_learning/Stimuli/Experimental_stims/hammer/Vaughan-32-oz-Hickory-Handle-Ball-Pein-Hammer-S432-B0001LRUJM-L-ARCQ0EBO8TR73_.jpg,/static/Category_learning/Stimuli/Experimental_stims/hammer/fosnaugh.hammer.jpg,,,,,,,,,,1.0,196.0,1.5,,,,,
199,,isi,,html-keyboard-response,199,134083,0.0-1.0-38.0-0.0-2.0,0,0,4,,,,,,,,,,,,,,,,,,,,,,,,,,,,,,,,,,,,,,198.0,2.0,,,,,
200,,no_response,,html-keyboard-response,200,135090,0.0-1.0-38.0-0.0-4.0-0.0,1,0,4,,,,,,,,,,,,,,,,,,,,,,,,,,,,,,,,,,,,,,199.0,1.0,,,,,
201,,iti,,html-keyboard-response,201,135211,0.0-1.0-38.0-0.0-5.0,0,0,4,,,,,,,,,,,,,,,,,,,,,,,,,,,,,,,,,,,,,,200.0,1.0,,,,,
202,,choice,,html-keyboard-response,202,136719,0.0-1.0-38.0-0.1-0.1,0,0,4,,,,,,36.0,336.0,2000.0,1000.0,0.0,6.0,1.0,40-40,1.0,,hammer,hammer,40.0,40.0,hammer15,hammer1,60.0,20.0,Vaughan-32-oz-Hickory-Handle-Ball-Pein-Hammer-S432-B0001LRUJM-L-ARCQ0EBO8TR73_.jpg,fosnaugh.hammer.jpg,/static/Category_learning/Stimuli/Experimental_stims/hammer/Vaughan-32-oz-Hickory-Handle-Ball-Pein-Hammer-S432-B0001LRUJM-L-ARCQ0EBO8TR73_.jpg,/static/Category_learning/Stimuli/Experimental_stims/hammer/fosnaugh.hammer.jpg,,,,,,,,,,1.0,201.5,1.5,,,,,
203,,isi,,html-keyboard-response,203,136824,0.0-1.0-38.0-0.1-2.1,0,0,4,,,,,,,,,,,,,,,,,,,,,,,,,,,,,,,,,,,,,,203.5,2.0,,,,,
204,,no_response,,html-keyboard-response,204,137828,0.0-1.0-38.0-0.1-4.1-0.1,1,0,4,,,,,,,,,,,,,,,,,,,,,,,,,,,,,,,,,,,,,,204.5,1.0,,,,,
205,,iti,,html-keyboard-response,205,137950,0.0-1.0-38.0-0.1-5.1,0,0,4,,,,,,,,,,,,,,,,,,,,,,,,,,,,,,,,,,,,,,205.5,1.0,,,,,
206,,choice,,html-keyboard-response,206,139457,0.0-1.0-38.0-0.2-0.2,0,0,4,,,,,,36.0,336.0,2000.0,1000.0,0.0,6.0,1.0,40-40,1.0,,hammer,hammer,40.0,40.0,hammer15,hammer1,60.0,20.0,Vaughan-32-oz-Hickory-Handle-Ball-Pein-Hammer-S432-B0001LRUJM-L-ARCQ0EBO8TR73_.jpg,fosnaugh.hammer.jpg,/static/Category_learning/Stimuli/Experimental_stims/hammer/Vaughan-32-oz-Hickory-Handle-Ball-Pein-Hammer-S432-B0001LRUJM-L-ARCQ0EBO8TR73_.jpg,/static/Category_learning/Stimuli/Experimental_stims/hammer/fosnaugh.hammer.jpg,,,,,,,,,,1.0,207.0,1.5,,,,,
207,,isi,,html-keyboard-response,207,139562,0.0-1.0-38.0-0.2-2.2,0,0,4,,,,,,,,,,,,,,,,,,,,,,,,,,,,,,,,,,,,,,208.0,1.0,,,,,
208,,no_response,,html-keyboard-response,208,140569,0.0-1.0-38.0-0.2-4.2-0.2,1,0,4,,,,,,,,,,,,,,,,,,,,,,,,,,,,,,,,,,,,,,209.0,1.0,,,,,
209,,iti,,html-keyboard-response,209,140686,0.0-1.0-38.0-0.2-5.2,0,0,4,,,,,,,,,,,,,,,,,,,,,,,,,,,,,,,,,,,,,,212.5,3.5,,,,,
210,,choice,,html-keyboard-response,210,142190,0.0-1.0-38.0-0.3-0.3,0,0,4,,,,,,36.0,336.0,2000.0,1000.0,0.0,6.0,1.0,40-40,1.0,,hammer,hammer,40.0,40.0,hammer15,hammer1,60.0,20.0,Vaughan-32-oz-Hickory-Handle-Ball-Pein-Hammer-S432-B0001LRUJM-L-ARCQ0EBO8TR73_.jpg,fosnaugh.hammer.jpg,/static/Category_learning/Stimuli/Experimental_stims/hammer/Vaughan-32-oz-Hickory-Handle-Ball-Pein-Hammer-S432-B0001LRUJM-L-ARCQ0EBO8TR73_.jpg,/static/Category_learning/Stimuli/Experimental_stims/hammer/fosnaugh.hammer.jpg,,,,,,,,,,1.0,214.0,1.5,,,,,
211,,isi,,html-keyboard-response,211,142297,0.0-1.0-38.0-0.3-2.3,0,0,4,,,,,,,,,,,,,,,,,,,,,,,,,,,,,,,,,,,,,,217.0,3.0,,,,,
212,,no_response,,html-keyboard-response,212,143304,0.0-1.0-38.0-0.3-4.3-0.3,1,0,4,,,,,,,,,,,,,,,,,,,,,,,,,,,,,,,,,,,,,,218.0,1.0,,,,,
213,,iti,,html-keyboard-response,213,143422,0.0-1.0-38.0-0.3-5.3,0,0,4,,,,,,,,,,,,,,,,,,,,,,,,,,,,,,,,,,,,,,219.0,1.0,,,,,
214,,choice,,html-keyboard-response,214,144928,0.0-1.0-38.0-0.4-0.4,0,0,4,,,,,,36.0,336.0,2000.0,1000.0,0.0,6.0,1.0,40-40,1.0,,hammer,hammer,40.0,40.0,hammer15,hammer1,60.0,20.0,Vaughan-32-oz-Hickory-Handle-Ball-Pein-Hammer-S432-B0001LRUJM-L-ARCQ0EBO8TR73_.jpg,fosnaugh.hammer.jpg,/static/Category_learning/Stimuli/Experimental_stims/hammer/Vaughan-32-oz-Hickory-Handle-Ball-Pein-Hammer-S432-B0001LRUJM-L-ARCQ0EBO8TR73_.jpg,/static/Category_learning/Stimuli/Experimental_stims/hammer/fosnaugh.hammer.jpg,,,,,,,,,,1.0,220.5,1.5,,,,,
215,,isi,,html-keyboard-response,215,145032,0.0-1.0-38.0-0.4-2.4,0,0,4,,,,,,,,,,,,,,,,,,,,,,,,,,,,,,,,,,,,,,222.0,1.5,,,,,
216,,no_response,,html-keyboard-response,216,146035,0.0-1.0-38.0-0.4-4.4-0.4,1,0,4,,,,,,,,,,,,,,,,,,,,,,,,,,,,,,,,,,,,,,223.0,1.0,,,,,
217,,iti,,html-keyboard-response,217,146153,0.0-1.0-38.0-0.4-5.4,0,0,4,,,,,,,,,,,,,,,,,,,,,,,,,,,,,,,,,,,,,,224.0,1.0,,,,,
218,,choice,,html-keyboard-response,218,147657,0.0-1.0-38.0-0.5-0.5,0,0,4,,,,,,36.0,336.0,2000.0,1000.0,0.0,6.0,1.0,40-40,1.0,,hammer,hammer,40.0,40.0,hammer15,hammer1,60.0,20.0,Vaughan-32-oz-Hickory-Handle-Ball-Pein-Hammer-S432-B0001LRUJM-L-ARCQ0EBO8TR73_.jpg,fosnaugh.hammer.jpg,/static/Category_learning/Stimuli/Experimental_stims/hammer/Vaughan-32-oz-Hickory-Handle-Ball-Pein-Hammer-S432-B0001LRUJM-L-ARCQ0EBO8TR73_.jpg,/static/Category_learning/Stimuli/Experimental_stims/hammer/fosnaugh.hammer.jpg,,,,,,,,,,1.0,225.5,1.5,,,,,
219,,isi,,html-keyboard-response,219,147764,0.0-1.0-38.0-0.5-2.5,0,0,4,,,,,,,,,,,,,,,,,,,,,,,,,,,,,,,,,,,,,,227.5,2.0,,,,,
220,,no_response,,html-keyboard-response,220,148769,0.0-1.0-38.0-0.5-4.5-0.5,1,0,4,,,,,,,,,,,,,,,,,,,,,,,,,,,,,,,,,,,,,,228.5,1.0,,,,,
221,,iti,,html-keyboard-response,221,148884,0.0-1.0-38.0-0.5-5.5,0,0,4,,,,,,,,,,,,,,,,,,,,,,,,,,,,,,,,,,,,,,230.0,1.5,,,,,
222,,choice,,html-keyboard-response,222,150391,0.0-1.0-38.0-0.6-0.6,0,0,4,,,,,,36.0,336.0,2000.0,1000.0,0.0,6.0,1.0,40-40,1.0,,hammer,hammer,40.0,40.0,hammer15,hammer1,60.0,20.0,Vaughan-32-oz-Hickory-Handle-Ball-Pein-Hammer-S432-B0001LRUJM-L-ARCQ0EBO8TR73_.jpg,fosnaugh.hammer.jpg,/static/Category_learning/Stimuli/Experimental_stims/hammer/Vaughan-32-oz-Hickory-Handle-Ball-Pein-Hammer-S432-B0001LRUJM-L-ARCQ0EBO8TR73_.jpg,/static/Category_learning/Stimuli/Experimental_stims/hammer/fosnaugh.hammer.jpg,,,,,,,,,,1.0,231.5,1.5,,,,,
223,,isi,,html-keyboard-response,223,150496,0.0-1.0-38.0-0.6-2.6,0,0,4,,,,,,,,,,,,,,,,,,,,,,,,,,,,,,,,,,,,,,233.5,2.0,,,,,
224,,no_response,,html-keyboard-response,224,151502,0.0-1.0-38.0-0.6-4.6-0.6,1,0,4,,,,,,,,,,,,,,,,,,,,,,,,,,,,,,,,,,,,,,234.5,1.0,,,,,
225,,iti,,html-keyboard-response,225,151619,0.0-1.0-38.0-0.6-5.6,0,0,4,,,,,,,,,,,,,,,,,,,,,,,,,,,,,,,,,,,,,,235.5,1.0,,,,,
226,,choice,,html-keyboard-response,226,153124,0.0-1.0-38.0-0.7-0.7,0,0,4,,,,,,36.0,336.0,2000.0,1000.0,0.0,6.0,1.0,40-40,1.0,,hammer,hammer,40.0,40.0,hammer15,hammer1,60.0,20.0,Vaughan-32-oz-Hickory-Handle-Ball-Pein-Hammer-S432-B0001LRUJM-L-ARCQ0EBO8TR73_.jpg,fosnaugh.hammer.jpg,/static/Category_learning/Stimuli/Experimental_stims/hammer/Vaughan-32-oz-Hickory-Handle-Ball-Pein-Hammer-S432-B0001LRUJM-L-ARCQ0EBO8TR73_.jpg,/static/Category_learning/Stimuli/Experimental_stims/hammer/fosnaugh.hammer.jpg,,,,,,,,,,1.0,237.0,1.5,,,,,
227,,isi,,html-keyboard-response,227,153230,0.0-1.0-38.0-0.7-2.7,0,0,4,,,,,,,,,,,,,,,,,,,,,,,,,,,,,,,,,,,,,,240.5,3.5,,,,,
228,,no_response,,html-keyboard-response,228,154233,0.0-1.0-38.0-0.7-4.7-0.7,1,0,4,,,,,,,,,,,,,,,,,,,,,,,,,,,,,,,,,,,,,,241.5,1.0,,,,,
229,,iti,,html-keyboard-response,229,154350,0.0-1.0-38.0-0.7-5.7,0,0,4,,,,,,,,,,,,,,,,,,,,,,,,,,,,,,,,,,,,,,242.5,1.0,,,,,
230,,choice,,html-keyboard-response,230,155854,0.0-1.0-38.0-0.8-0.8,0,0,4,,,,,,36.0,336.0,2000.0,1000.0,0.0,6.0,1.0,40-40,1.0,,hammer,hammer,40.0,40.0,hammer15,hammer1,60.0,20.0,Vaughan-32-oz-Hickory-Handle-Ball-Pein-Hammer-S432-B0001LRUJM-L-ARCQ0EBO8TR73_.jpg,fosnaugh.hammer.jpg,/static/Category_learning/Stimuli/Experimental_stims/hammer/Vaughan-32-oz-Hickory-Handle-Ball-Pein-Hammer-S432-B0001LRUJM-L-ARCQ0EBO8TR73_.jpg,/static/Category_learning/Stimuli/Experimental_stims/hammer/fosnaugh.hammer.jpg,,,,,,,,,,1.0,244.0,1.5,,,,,
231,,isi,,html-keyboard-response,231,155962,0.0-1.0-38.0-0.8-2.8,0,0,4,,,,,,,,,,,,,,,,,,,,,,,,,,,,,,,,,,,,,,246.0,2.0,,,,,
232,,no_response,,html-keyboard-response,232,156969,0.0-1.0-38.0-0.8-4.8-0.8,1,0,4,,,,,,,,,,,,,,,,,,,,,,,,,,,,,,,,,,,,,,247.0,1.0,,,,,
233,,iti,,html-keyboard-response,233,157091,0.0-1.0-38.0-0.8-5.8,0,0,4,,,,,,,,,,,,,,,,,,,,,,,,,,,,,,,,,,,,,,249.0,2.0,,,,,
234,,choice,,html-keyboard-response,234,158595,0.0-1.0-38.0-0.9-0.9,0,0,4,,,,,,36.0,336.0,2000.0,1000.0,0.0,6.0,1.0,40-40,1.0,,hammer,hammer,40.0,40.0,hammer15,hammer1,60.0,20.0,Vaughan-32-oz-Hickory-Handle-Ball-Pein-Hammer-S432-B0001LRUJM-L-ARCQ0EBO8TR73_.jpg,fosnaugh.hammer.jpg,/static/Category_learning/Stimuli/Experimental_stims/hammer/Vaughan-32-oz-Hickory-Handle-Ball-Pein-Hammer-S432-B0001LRUJM-L-ARCQ0EBO8TR73_.jpg,/static/Category_learning/Stimuli/Experimental_stims/hammer/fosnaugh.hammer.jpg,,,,,,,,,,1.0,250.5,1.5,,,,,
235,,isi,,html-keyboard-response,235,158702,0.0-1.0-38.0-0.9-2.9,0,0,4,,,,,,,,,,,,,,,,,,,,,,,,,,,,,,,,,,,,,,251.5,1.0,,,,,
236,,no_response,,html-keyboard-response,236,159705,0.0-1.0-38.0-0.9-4.9-0.9,1,0,4,,,,,,,,,,,,,,,,,,,,,,,,,,,,,,,,,,,,,,252.5,1.0,,,,,
237,,iti,,html-keyboard-response,237,159824,0.0-1.0-38.0-0.9-5.9,0,0,4,,,,,,,,,,,,,,,,,,,,,,,,,,,,,,,,,,,,,,253.5,1.0,,,,,
238,,choice,,html-keyboard-response,238,161331,0.0-1.0-38.0-0.10-0.10,0,0,4,,,,,,36.0,336.0,2000.0,1000.0,0.0,6.0,1.0,40-40,1.0,,hammer,hammer,40.0,40.0,hammer15,hammer1,60.0,20.0,Vaughan-32-oz-Hickory-Handle-Ball-Pein-Hammer-S432-B0001LRUJM-L-ARCQ0EBO8TR73_.jpg,fosnaugh.hammer.jpg,/static/Category_learning/Stimuli/Experimental_stims/hammer/Vaughan-32-oz-Hickory-Handle-Ball-Pein-Hammer-S432-B0001LRUJM-L-ARCQ0EBO8TR73_.jpg,/static/Category_learning/Stimuli/Experimental_stims/hammer/fosnaugh.hammer.jpg,,,,,,,,,,1.0,255.0,1.5,,,,,
239,,isi,,html-keyboard-response,239,161438,0.0-1.0-38.0-0.10-2.10,0,0,4,,,,,,,,,,,,,,,,,,,,,,,,,,,,,,,,,,,,,,258.0,3.0,,,,,
240,,no_response,,html-keyboard-response,240,162446,0.0-1.0-38.0-0.10-4.10-0.10,1,0,4,,,,,,,,,,,,,,,,,,,,,,,,,,,,,,,,,,,,,,259.0,1.0,,,,,
241,,iti,,html-keyboard-response,241,162569,0.0-1.0-38.0-0.10-5.10,0,0,4,,,,,,,,,,,,,,,,,,,,,,,,,,,,,,,,,,,,,,260.0,1.0,,,,,
242,,choice,,html-keyboard-response,242,164073,0.0-1.0-38.0-0.11-0.11,0,0,4,,,,,,36.0,336.0,2000.0,1000.0,0.0,6.0,1.0,40-40,1.0,,hammer,hammer,40.0,40.0,hammer15,hammer1,60.0,20.0,Vaughan-32-oz-Hickory-Handle-Ball-Pein-Hammer-S432-B0001LRUJM-L-ARCQ0EBO8TR73_.jpg,fosnaugh.hammer.jpg,/static/Category_learning/Stimuli/Experimental_stims/hammer/Vaughan-32-oz-Hickory-Handle-Ball-Pein-Hammer-S432-B0001LRUJM-L-ARCQ0EBO8TR73_.jpg,/static/Category_learning/Stimuli/Experimental_stims/hammer/fosnaugh.hammer.jpg,,,,,,,,,,1.0,261.5,1.5,,,,,
243,,isi,,html-keyboard-response,243,164180,0.0-1.0-38.0-0.11-2.11,0,0,4,,,,,,,,,,,,,,,,,,,,,,,,,,,,,,,,,,,,,,263.0,1.5,,,,,
244,,no_response,,html-keyboard-response,244,165184,0.0-1.0-38.0-0.11-4.11-0.11,1,0,4,,,,,,,,,,,,,,,,,,,,,,,,,,,,,,,,,,,,,,264.0,1.0,,,,,
245,,iti,,html-keyboard-response,245,165305,0.0-1.0-38.0-0.11-5.11,0,0,4,,,,,,,,,,,,,,,,,,,,,,,,,,,,,,,,,,,,,,267.0,3.0,,,,,
246,,choice,,html-keyboard-response,246,166812,0.0-1.0-38.0-0.12-0.12,0,0,4,,,,,,36.0,336.0,2000.0,1000.0,0.0,6.0,1.0,40-40,1.0,,hammer,hammer,40.0,40.0,hammer15,hammer1,60.0,20.0,Vaughan-32-oz-Hickory-Handle-Ball-Pein-Hammer-S432-B0001LRUJM-L-ARCQ0EBO8TR73_.jpg,fosnaugh.hammer.jpg,/static/Category_learning/Stimuli/Experimental_stims/hammer/Vaughan-32-oz-Hickory-Handle-Ball-Pein-Hammer-S432-B0001LRUJM-L-ARCQ0EBO8TR73_.jpg,/static/Category_learning/Stimuli/Experimental_stims/hammer/fosnaugh.hammer.jpg,,,,,,,,,,1.0,268.5,1.5,,,,,
247,,isi,,html-keyboard-response,247,166916,0.0-1.0-38.0-0.12-2.12,0,0,4,,,,,,,,,,,,,,,,,,,,,,,,,,,,,,,,,,,,,,271.5,3.0,,,,,
248,,no_response,,html-keyboard-response,248,167923,0.0-1.0-38.0-0.12-4.12-0.12,1,0,4,,,,,,,,,,,,,,,,,,,,,,,,,,,,,,,,,,,,,,272.5,1.0,,,,,
249,,iti,,html-keyboard-response,249,168041,0.0-1.0-38.0-0.12-5.12,0,0,4,,,,,,,,,,,,,,,,,,,,,,,,,,,,,,,,,,,,,,274.5,2.0,,,,,
250,,choice,,html-keyboard-response,250,169546,0.0-1.0-38.0-0.13-0.13,0,0,4,,,,,,36.0,336.0,2000.0,1000.0,0.0,6.0,1.0,40-40,1.0,,hammer,hammer,40.0,40.0,hammer15,hammer1,60.0,20.0,Vaughan-32-oz-Hickory-Handle-Ball-Pein-Hammer-S432-B0001LRUJM-L-ARCQ0EBO8TR73_.jpg,fosnaugh.hammer.jpg,/static/Category_learning/Stimuli/Experimental_stims/hammer/Vaughan-32-oz-Hickory-Handle-Ball-Pein-Hammer-S432-B0001LRUJM-L-ARCQ0EBO8TR73_.jpg,/static/Category_learning/Stimuli/Experimental_stims/hammer/fosnaugh.hammer.jpg,,,,,,,,,,1.0,276.0,1.5,,,,,
251,,isi,,html-keyboard-response,251,169652,0.0-1.0-38.0-0.13-2.13,0,0,4,,,,,,,,,,,,,,,,,,,,,,,,,,,,,,,,,,,,,,277.5,1.5,,,,,
252,,no_response,,html-keyboard-response,252,170659,0.0-1.0-38.0-0.13-4.13-0.13,1,0,4,,,,,,,,,,,,,,,,,,,,,,,,,,,,,,,,,,,,,,278.5,1.0,,,,,
253,,iti,,html-keyboard-response,253,170779,0.0-1.0-38.0-0.13-5.13,0,0,4,,,,,,,,,,,,,,,,,,,,,,,,,,,,,,,,,,,,,,280.0,1.5,,,,,
254,,choice,,html-keyboard-response,254,172197,0.0-1.0-38.0-0.14-0.14,0,0,4,,1415.0,,,51.0,36.0,336.0,2000.0,1000.0,0.0,6.0,1.0,40-40,1.0,,hammer,hammer,40.0,40.0,hammer15,hammer1,60.0,20.0,Vaughan-32-oz-Hickory-Handle-Ball-Pein-Hammer-S432-B0001LRUJM-L-ARCQ0EBO8TR73_.jpg,fosnaugh.hammer.jpg,/static/Category_learning/Stimuli/Experimental_stims/hammer/Vaughan-32-oz-Hickory-Handle-Ball-Pein-Hammer-S432-B0001LRUJM-L-ARCQ0EBO8TR73_.jpg,/static/Category_learning/Stimuli/Experimental_stims/hammer/fosnaugh.hammer.jpg,0.0,hammer,hammer,40.0,40.0,hammer1,hammer15,20.0,60.0,0.0,281.415,1.415,,,,,
255,,confirmation,,html-keyboard-response,255,172286,0.0-1.0-38.0-0.14-1.14-0.14,0,0,4,,,,,,36.0,,,,,,,,,,,,,,,,,,,,,,,,,,,,,,,,281.5,0.085,,,,,
256,,isi,,html-keyboard-response,256,172393,0.0-1.0-38.0-0.14-2.14,0,0,4,,,,,,,,,,,,,,,,,,,,,,,,,,,,,,,,,,,,,,282.5,1.0,,,,,
257,,feedback,,html-keyboard-response,257,173401,0.0-1.0-38.0-0.14-3.14-0.14,0,0,4,,,,,,36.0,,,,,,,,,,,,,,,,,,,,,,,,,,,,,,,,283.5,1.0,,,,,
258,,iti,,html-keyboard-response,258,173508,0.0-1.0-38.0-0.14-5.14,0,0,4,,,,,,,,,,,,,,,,,,,,,,,,,,,,,,,,,,,,,,285.0,1.5,,,,,
259,,choice,,html-keyboard-response,259,174204,0.0-1.0-39.0-0.0-0.0,0,0,4,,693.0,,,51.0,37.0,337.0,1500.0,1000.0,0.0,6.0,0.0,40-80,,0.0,key chain,watch,40.0,80.0,key chain2,watch3,40.0,80.0,superman_returns_pewter_keychain_2.jpg,B0000TIIVO.01._SCLZZZZZZZ_V1124920780_.jpg,/static/Category_learning/Stimuli/Experimental_stims/key chain/superman_returns_pewter_keychain_2.jpg,/static/Category_learning/Stimuli/Experimental_stims/watch/B0000TIIVO.01._SCLZZZZZZZ_V1124920780_.jpg,0.0,watch,key chain,80.0,40.0,watch3,key chain2,80.0,40.0,0.0,285.693,0.693,,,,,
260,,confirmation,,html-keyboard-response,260,175017,0.0-1.0-39.0-0.0-1.0-0.0,0,0,4,,,,,,37.0,,,,,,,,,,,,,,,,,,,,,,,,,,,,,,,,286.5,0.807,,,,,
261,,isi,,html-keyboard-response,261,175124,0.0-1.0-39.0-0.0-2.0,0,0,4,,,,,,,,,,,,,,,,,,,,,,,,,,,,,,,,,,,,,,288.0,1.5,,,,,
262,,feedback,,html-keyboard-response,262,176132,0.0-1.0-39.0-0.0-3.0-0.0,0,0,4,,,,,,37.0,,,,,,,,,,,,,,,,,,,,,,,,,,,,,,,,289.0,1.0,,,,,
263,,iti,,html-keyboard-response,263,176238,0.0-1.0-39.0-0.0-5.0,0,0,4,,,,,,,,,,,,,,,,,,,,,,,,,,,,,,,,,,,,,,290.0,1.0,,,,,
264,,choice,,html-keyboard-response,264,177746,0.0-1.0-40.0-0.0-0.0,0,0,4,,,,,,38.0,338.0,1000.0,2000.0,0.0,6.0,0.0,20-60,,1.0,small table,baby carriage,60.0,20.0,small table13,baby carriage1,40.0,40.0,ATABLE25.jpg,babycarriage16.jpg,/static/Category_learning/Stimuli/Experimental_stims/small table/ATABLE25.jpg,/static/Category_learning/Stimuli/Experimental_stims/baby carriage/babycarriage16.jpg,,,,,,,,,,1.0,291.5,1.5,,,,,
265,,isi,,html-keyboard-response,265,177849,0.0-1.0-40.0-0.0-2.0,0,0,4,,,,,,,,,,,,,,,,,,,,,,,,,,,,,,,,,,,,,,292.5,1.0,,,,,
266,,no_response,,html-keyboard-response,266,178857,0.0-1.0-40.0-0.0-4.0-0.0,1,0,4,,,,,,,,,,,,,,,,,,,,,,,,,,,,,,,,,,,,,,293.5,1.0,,,,,
267,,iti,,html-keyboard-response,267,178979,0.0-1.0-40.0-0.0-5.0,0,0,4,,,,,,,,,,,,,,,,,,,,,,,,,,,,,,,,,,,,,,295.5,2.0,,,,,
268,,choice,,html-keyboard-response,268,180484,0.0-1.0-40.0-0.1-0.1,0,0,4,,,,,,38.0,338.0,1000.0,2000.0,0.0,6.0,0.0,20-60,,1.0,small table,baby carriage,60.0,20.0,small table13,baby carriage1,40.0,40.0,ATABLE25.jpg,babycarriage16.jpg,/static/Category_learning/Stimuli/Experimental_stims/small table/ATABLE25.jpg,/static/Category_learning/Stimuli/Experimental_stims/baby carriage/babycarriage16.jpg,,,,,,,,,,1.0,297.0,1.5,,,,,
269,,isi,,html-keyboard-response,269,180590,0.0-1.0-40.0-0.1-2.1,0,0,4,,,,,,,,,,,,,,,,,,,,,,,,,,,,,,,,,,,,,,298.0,1.0,,,,,
270,,no_response,,html-keyboard-response,270,181596,0.0-1.0-40.0-0.1-4.1-0.1,1,0,4,,,,,,,,,,,,,,,,,,,,,,,,,,,,,,,,,,,,,,299.0,1.0,,,,,
271,,iti,,html-keyboard-response,271,181716,0.0-1.0-40.0-0.1-5.1,0,0,4,,,,,,,,,,,,,,,,,,,,,,,,,,,,,,,,,,,,,,302.0,3.0,,,,,
272,,choice,,html-keyboard-response,272,183220,0.0-1.0-40.0-0.2-0.2,0,0,4,,,,,,38.0,338.0,1000.0,2000.0,0.0,6.0,0.0,20-60,,1.0,small table,baby carriage,60.0,20.0,small table13,baby carriage1,40.0,40.0,ATABLE25.jpg,babycarriage16.jpg,/static/Category_learning/Stimuli/Experimental_stims/small table/ATABLE25.jpg,/static/Category_learning/Stimuli/Experimental_stims/baby carriage/babycarriage16.jpg,,,,,,,,,,1.0,303.5,1.5,,,,,
273,,isi,,html-keyboard-response,273,183326,0.0-1.0-40.0-0.2-2.2,0,0,4,,,,,,,,,,,,,,,,,,,,,,,,,,,,,,,,,,,,,,305.5,2.0,,,,,
274,,no_response,,html-keyboard-response,274,184329,0.0-1.0-40.0-0.2-4.2-0.2,1,0,4,,,,,,,,,,,,,,,,,,,,,,,,,,,,,,,,,,,,,,306.5,1.0,,,,,
275,,iti,,html-keyboard-response,275,184453,0.0-1.0-40.0-0.2-5.2,0,0,4,,,,,,,,,,,,,,,,,,,,,,,,,,,,,,,,,,,,,,308.5,2.0,,,,,
276,,choice,,html-keyboard-response,276,185961,0.0-1.0-40.0-0.3-0.3,0,0,4,,,,,,38.0,338.0,1000.0,2000.0,0.0,6.0,0.0,20-60,,1.0,small table,baby carriage,60.0,20.0,small table13,baby carriage1,40.0,40.0,ATABLE25.jpg,babycarriage16.jpg,/static/Category_learning/Stimuli/Experimental_stims/small table/ATABLE25.jpg,/static/Category_learning/Stimuli/Experimental_stims/baby carriage/babycarriage16.jpg,,,,,,,,,,1.0,310.0,1.5,,,,,
277,,isi,,html-keyboard-response,277,186068,0.0-1.0-40.0-0.3-2.3,0,0,4,,,,,,,,,,,,,,,,,,,,,,,,,,,,,,,,,,,,,,313.5,3.5,,,,,
278,,no_response,,html-keyboard-response,278,187073,0.0-1.0-40.0-0.3-4.3-0.3,1,0,4,,,,,,,,,,,,,,,,,,,,,,,,,,,,,,,,,,,,,,314.5,1.0,,,,,
279,,iti,,html-keyboard-response,279,187193,0.0-1.0-40.0-0.3-5.3,0,0,4,,,,,,,,,,,,,,,,,,,,,,,,,,,,,,,,,,,,,,317.5,3.0,,,,,
280,,choice,,html-keyboard-response,280,188697,0.0-1.0-40.0-0.4-0.4,0,0,4,,,,,,38.0,338.0,1000.0,2000.0,0.0,6.0,0.0,20-60,,1.0,small table,baby carriage,60.0,20.0,small table13,baby carriage1,40.0,40.0,ATABLE25.jpg,babycarriage16.jpg,/static/Category_learning/Stimuli/Experimental_stims/small table/ATABLE25.jpg,/static/Category_learning/Stimuli/Experimental_stims/baby carriage/babycarriage16.jpg,,,,,,,,,,1.0,319.0,1.5,,,,,
281,,isi,,html-keyboard-response,281,188804,0.0-1.0-40.0-0.4-2.4,0,0,4,,,,,,,,,,,,,,,,,,,,,,,,,,,,,,,,,,,,,,322.5,3.5,,,,,
282,,no_response,,html-keyboard-response,282,189806,0.0-1.0-40.0-0.4-4.4-0.4,1,0,4,,,,,,,,,,,,,,,,,,,,,,,,,,,,,,,,,,,,,,323.5,1.0,,,,,
283,,iti,,html-keyboard-response,283,189924,0.0-1.0-40.0-0.4-5.4,0,0,4,,,,,,,,,,,,,,,,,,,,,,,,,,,,,,,,,,,,,,324.5,1.0,,,,,
284,,choice,,html-keyboard-response,284,190001,0.0-1.0-40.0-0.5-0.5,0,0,4,,73.0,,,51.0,38.0,338.0,1000.0,2000.0,0.0,6.0,0.0,20-60,,1.0,small table,baby carriage,60.0,20.0,small table13,baby carriage1,40.0,40.0,ATABLE25.jpg,babycarriage16.jpg,/static/Category_learning/Stimuli/Experimental_stims/small table/ATABLE25.jpg,/static/Category_learning/Stimuli/Experimental_stims/baby carriage/babycarriage16.jpg,0.0,baby carriage,small table,20.0,60.0,baby carriage1,small table13,40.0,40.0,0.0,324.573,0.073,,,,,
285,,confirmation,,html-keyboard-response,285,191433,0.0-1.0-40.0-0.5-1.5-0.5,0,0,4,,,,,,38.0,,,,,,,,,,,,,,,,,,,,,,,,,,,,,,,,326.0,1.427,,,,,
286,,isi,,html-keyboard-response,286,191540,0.0-1.0-40.0-0.5-2.5,0,0,4,,,,,,,,,,,,,,,,,,,,,,,,,,,,,,,,,,,,,,327.0,1.0,,,,,
287,,feedback,,html-keyboard-response,287,192547,0.0-1.0-40.0-0.5-3.5-0.5,0,0,4,,,,,,38.0,,,,,,,,,,,,,,,,,,,,,,,,,,,,,,,,328.0,1.0,,,,,
288,,iti,,html-keyboard-response,288,192655,0.0-1.0-40.0-0.5-5.5,0,0,4,,,,,,,,,,,,,,,,,,,,,,,,,,,,,,,,,,,,,,329.0,1.0,,,,,
289,,choice,,html-keyboard-response,289,192845,0.0-1.0-41.0-0.0-0.0,0,0,4,,186.0,,,51.0,39.0,339.0,2000.0,1500.0,0.0,6.0,1.0,80-80,0.0,,watch,vase,80.0,80.0,watch3,vase8,80.0,60.0,B0000TIIVO.01._SCLZZZZZZZ_V1124920780_.jpg,Avase171.jpg,/static/Category_learning/Stimuli/Experimental_stims/watch/B0000TIIVO.01._SCLZZZZZZZ_V1124920780_.jpg,/static/Category_learning/Stimuli/Experimental_stims/vase/Avase171.jpg,0.0,vase,watch,80.0,80.0,vase8,watch3,60.0,80.0,0.0,329.186,0.186,,,,,
290,,confirmation,,html-keyboard-response,290,194164,0.0-1.0-41.0-0.0-1.0-0.0,0,0,4,,,,,,39.0,,,,,,,,,,,,,,,,,,,,,,,,,,,,,,,,330.5,1.314,,,,,
291,,isi,,html-keyboard-response,291,194271,0.0-1.0-41.0-0.0-2.0,0,0,4,,,,,,,,,,,,,,,,,,,,,,,,,,,,,,,,,,,,,,332.5,2.0,,,,,
292,,feedback,,html-keyboard-response,292,195278,0.0-1.0-41.0-0.0-3.0-0.0,0,0,4,,,,,,39.0,,,,,,,,,,,,,,,,,,,,,,,,,,,,,,,,333.5,1.0,,,,,
293,,iti,,html-keyboard-response,293,195385,0.0-1.0-41.0-0.0-5.0,0,0,4,,,,,,,,,,,,,,,,,,,,,,,,,,,,,,,,,,,,,,335.0,1.5,,,,,
294,,choice,,html-keyboard-response,294,196892,0.0-1.0-42.0-0.0-0.0,0,0,4,,,,,,40.0,340.0,1000.0,2000.0,0.0,6.0,0.0,20-60,,0.0,baby carriage,patio lounge chair,20.0,60.0,baby carriage15,patio lounge chair7,0.0,40.0,AANBABYC2.jpg,lg_Serenity_Riviera[1].jpg,/static/Category_learning/Stimuli/Experimental_stims/baby carriage/AANBABYC2.jpg,/static/Category_learning/Stimuli/Experimental_stims/patio lounge chair/lg_Serenity_Riviera[1].jpg,,,,,,,,,,1.0,336.5,1.5,,,,,
295,,isi,,html-keyboard-response,295,196996,0.0-1.0-42.0-0.0-2.0,0,0,4,,,,,,,,,,,,,,,,,,,,,,,,,,,,,,,,,,,,,,337.5,1.0,,,,,
296,,no_response,,html-keyboard-response,296,198000,0.0-1.0-42.0-0.0-4.0-0.0,1,0,4,,,,,,,,,,,,,,,,,,,,,,,,,,,,,,,,,,,,,,338.5,1.0,,,,,
297,,iti,,html-keyboard-response,297,198121,0.0-1.0-42.0-0.0-5.0,0,0,4,,,,,,,,,,,,,,,,,,,,,,,,,,,,,,,,,,,,,,340.5,2.0,,,,,
298,,choice,,html-keyboard-response,298,199629,0.0-1.0-42.0-0.1-0.1,0,0,4,,,,,,40.0,340.0,1000.0,2000.0,0.0,6.0,0.0,20-60,,0.0,baby carriage,patio lounge chair,20.0,60.0,baby carriage15,patio lounge chair7,0.0,40.0,AANBABYC2.jpg,lg_Serenity_Riviera[1].jpg,/static/Category_learning/Stimuli/Experimental_stims/baby carriage/AANBABYC2.jpg,/static/Category_learning/Stimuli/Experimental_stims/patio lounge chair/lg_Serenity_Riviera[1].jpg,,,,,,,,,,1.0,342.0,1.5,,,,,
299,,isi,,html-keyboard-response,299,199734,0.0-1.0-42.0-0.1-2.1,0,0,4,,,,,,,,,,,,,,,,,,,,,,,,,,,,,,,,,,,,,,344.0,2.0,,,,,
300,,no_response,,html-keyboard-response,300,200740,0.0-1.0-42.0-0.1-4.1-0.1,1,0,4,,,,,,,,,,,,,,,,,,,,,,,,,,,,,,,,,,,,,,345.0,1.0,,,,,
301,,iti,,html-keyboard-response,301,200863,0.0-1.0-42.0-0.1-5.1,0,0,4,,,,,,,,,,,,,,,,,,,,,,,,,,,,,,,,,,,,,,346.5,1.5,,,,,
302,,choice,,html-keyboard-response,302,202367,0.0-1.0-42.0-0.2-0.2,0,0,4,,,,,,40.0,340.0,1000.0,2000.0,0.0,6.0,0.0,20-60,,0.0,baby carriage,patio lounge chair,20.0,60.0,baby carriage15,patio lounge chair7,0.0,40.0,AANBABYC2.jpg,lg_Serenity_Riviera[1].jpg,/static/Category_learning/Stimuli/Experimental_stims/baby carriage/AANBABYC2.jpg,/static/Category_learning/Stimuli/Experimental_stims/patio lounge chair/lg_Serenity_Riviera[1].jpg,,,,,,,,,,1.0,348.0,1.5,,,,,
303,,isi,,html-keyboard-response,303,202473,0.0-1.0-42.0-0.2-2.2,0,0,4,,,,,,,,,,,,,,,,,,,,,,,,,,,,,,,,,,,,,,349.0,1.0,,0.72,,,
304,,final_tally,,html-keyboard-response,304,220342,0.0-2.0-0.0,0,0,4,,17866.0,,,50.0,,,,,,,,,,,,,,,,,,,,,,,,,,,,,,,,,,,,,,,
305,,category_memory_instructions,,instructions,305,224615,0.0-3.0-0.0,0,0,4,"[{""page_index"":0,""viewing_time"":3796},{""page_index"":1,""viewing_time"":242},{""page_index"":2,""viewing_time"":213}]",4251.0,,,,,,,,,,,,,,,,,,,,,,,,,,,,,,,,,,,,,,,,,,
306,,category_memory,,survey-text,306,228635,0.0-3.0-1.0-0.0,0,0,4,,4016.0,"{""Q0"":""0""}",,,0.0,,,,,,,,,,,,,,,,,,,,,,,,,,,,,,,,,,,,lipstick,40.0,0.0
307,,category_memory,,survey-text,307,230771,0.0-3.0-2.0-0.0,0,0,4,,2133.0,"{""Q0"":""1""}",,,1.0,,,,,,,,,,,,,,,,,,,,,,,,,,,,,,,,,,,,watch,80.0,1.0
308,,category_memory,,survey-text,308,232470,0.0-3.0-3.0-0.0,0,0,4,,1695.0,"{""Q0"":""2""}",,,2.0,,,,,,,,,,,,,,,,,,,,,,,,,,,,,,,,,,,,small table,60.0,2.0
309,,category_memory,,survey-text,309,233550,0.0-3.0-4.0-0.0,0,0,4,,1077.0,"{""Q0"":""3""}",,,3.0,,,,,,,,,,,,,,,,,,,,,,,,,,,,,,,,,,,,makeup compact,40.0,3.0
310,,category_memory,,survey-text,310,234517,0.0-3.0-5.0-0.0,0,0,4,,964.0,"{""Q0"":""4""}",,,4.0,,,,,,,,,,,,,,,,,,,,,,,,,,,,,,,,,,,,tent,80.0,4.0
311,,category_memory,,survey-text,311,235317,0.0-3.0-6.0-0.0,0,0,4,,797.0,"{""Q0"":""5""}",,,5.0,,,,,,,,,,,,,,,,,,,,,,,,,,,,,,,,,,,,desk,20.0,5.0
312,,category_memory,,survey-text,312,239602,0.0-3.0-7.0-0.0,0,0,4,,4282.0,"{""Q0"":""62""}",,,6.0,,,,,,,,,,,,,,,,,,,,,,,,,,,,,,,,,,,,microscope,40.0,62.0
313,,category_memory,,survey-text,313,240890,0.0-3.0-8.0-0.0,0,0,4,,1284.0,"{""Q0"":""1""}",,,7.0,,,,,,,,,,,,,,,,,,,,,,,,,,,,,,,,,,,,power strip,60.0,1.0
314,,category_memory,,survey-text,314,241781,0.0-3.0-9.0-0.0,0,0,4,,887.0,"{""Q0"":""1""}",,,8.0,,,,,,,,,,,,,,,,,,,,,,,,,,,,,,,,,,,,train,80.0,1.0
315,,category_memory,,survey-text,315,242898,0.0-3.0-10.0-0.0,0,0,4,,1114.0,"{""Q0"":""1""}",,,9.0,,,,,,,,,,,,,,,,,,,,,,,,,,,,,,,,,,,,bench,20.0,1.0
316,,category_memory,,survey-text,316,243753,0.0-3.0-11.0-0.0,0,0,4,,852.0,"{""Q0"":""2""}",,,10.0,,,,,,,,,,,,,,,,,,,,,,,,,,,,,,,,,,,,bowl,20.0,2.0
317,,category_memory,,survey-text,317,244697,0.0-3.0-12.0-0.0,0,0,4,,940.0,"{""Q0"":""3""}",,,11.0,,,,,,,,,,,,,,,,,,,,,,,,,,,,,,,,,,,,bongo,20.0,3.0
318,,category_memory,,survey-text,318,247348,0.0-3.0-13.0-0.0,0,0,4,,2648.0,"{""Q0"":""4""}",,,12.0,,,,,,,,,,,,,,,,,,,,,,,,,,,,,,,,,,,,motorcycle,40.0,4.0
319,,category_memory,,survey-text,319,248148,0.0-3.0-14.0-0.0,0,0,4,,797.0,"{""Q0"":""1""}",,,13.0,,,,,,,,,,,,,,,,,,,,,,,,,,,,,,,,,,,,necklace,60.0,1.0
320,,category_memory,,survey-text,320,249078,0.0-3.0-15.0-0.0,0,0,4,,927.0,"{""Q0"":""2""}",,,14.0,,,,,,,,,,,,,,,,,,,,,,,,,,,,,,,,,,,,patio lounge chair,60.0,2.0
321,,category_memory,,survey-text,321,251160,0.0-3.0-16.0-0.0,0,0,4,,2078.0,"{""Q0"":""31""}",,,15.0,,,,,,,,,,,,,,,,,,,,,,,,,,,,,,,,,,,,hat,40.0,31.0
322,,category_memory,,survey-text,322,252072,0.0-3.0-17.0-0.0,0,0,4,,908.0,"{""Q0"":""3""}",,,16.0,,,,,,,,,,,,,,,,,,,,,,,,,,,,,,,,,,,,yarn,80.0,3.0
323,,category_memory,,survey-text,323,253043,0.0-3.0-18.0-0.0,0,0,4,,968.0,"{""Q0"":""1""}",,,17.0,,,,,,,,,,,,,,,,,,,,,,,,,,,,,,,,,,,,flashlight,20.0,1.0
324,,category_memory,,survey-text,324,254577,0.0-3.0-19.0-0.0,0,0,4,,1530.0,"{""Q0"":""2""}",,,18.0,,,,,,,,,,,,,,,,,,,,,,,,,,,,,,,,,,,,nail polish,60.0,2.0
325,,category_memory,,survey-text,325,255625,0.0-3.0-20.0-0.0,0,0,4,,1043.0,"{""Q0"":""3""}",,,19.0,,,,,,,,,,,,,,,,,,,,,,,,,,,,,,,,,,,,door knob,20.0,3.0
326,,category_memory,,survey-text,326,256500,0.0-3.0-21.0-0.0,0,0,4,,871.0,"{""Q0"":""1""}",,,20.0,,,,,,,,,,,,,,,,,,,,,,,,,,,,,,,,,,,,pen,60.0,1.0
327,,category_memory,,survey-text,327,257511,0.0-3.0-22.0-0.0,0,0,4,,1008.0,"{""Q0"":""2""}",,,21.0,,,,,,,,,,,,,,,,,,,,,,,,,,,,,,,,,,,,frame,40.0,2.0
328,,category_memory,,survey-text,328,258357,0.0-3.0-23.0-0.0,0,0,4,,843.0,"{""Q0"":""3""}",,,22.0,,,,,,,,,,,,,,,,,,,,,,,,,,,,,,,,,,,,hammer,40.0,3.0
329,,category_memory,,survey-text,329,261330,0.0-3.0-24.0-0.0,0,0,4,,2970.0,"{""Q0"":""12""}",,,23.0,,,,,,,,,,,,,,,,,,,,,,,,,,,,,,,,,,,,seashell,60.0,12.0
330,,category_memory,,survey-text,330,262582,0.0-3.0-25.0-0.0,0,0,4,,1249.0,"{""Q0"":""1""}",,,24.0,,,,,,,,,,,,,,,,,,,,,,,,,,,,,,,,,,,,baby carriage,20.0,1.0
331,,category_memory,,survey-text,331,263608,0.0-3.0-26.0-0.0,0,0,4,,1023.0,"{""Q0"":""1""}",,,25.0,,,,,,,,,,,,,,,,,,,,,,,,,,,,,,,,,,,,vase,80.0,1.0
332,,category_memory,,survey-text,332,267545,0.0-3.0-27.0-0.0,0,0,4,,3934.0,"{""Q0"":""1""}",,,26.0,,,,,,,,,,,,,,,,,,,,,,,,,,,,,,,,,,,,sofa,60.0,1.0
333,,category_memory,,survey-text,333,268756,0.0-3.0-28.0-0.0,0,0,4,,1208.0,"{""Q0"":""1""}",,,27.0,,,,,,,,,,,,,,,,,,,,,,,,,,,,,,,,,,,,key chain,40.0,1.0
334,,category_memory,,survey-text,334,269793,0.0-3.0-29.0-0.0,0,0,4,,1034.0,"{""Q0"":""1""}",,,28.0,,,,,,,,,,,,,,,,,,,,,,,,,,,,,,,,,,,,trumpet,80.0,1.0
335,,category_memory,,survey-text,335,270617,0.0-3.0-30.0-0.0,0,0,4,,821.0,"{""Q0"":""1""}",,,29.0,,,,,,,,,,,,,,,,,,,,,,,,,,,,,,,,,,,,dresser,20.0,1.0
336,,category_memory,,survey-text,336,271510,0.0-3.0-31.0-0.0,0,0,4,,890.0,"{""Q0"":""1""}",,,30.0,,,,,,,,,,,,,,,,,,,,,,,,,,,,,,,,,,,,poker card,60.0,1.0
337,,category_memory,,survey-text,337,272292,0.0-3.0-32.0-0.0,0,0,4,,778.0,"{""Q0"":""1""}",,,31.0,,,,,,,,,,,,,,,,,,,,,,,,,,,,,,,,,,,,stool,80.0,1.0
338,,category_memory,,survey-text,338,275084,0.0-3.0-33.0-0.0,0,0,4,,2789.0,"{""Q0"":""11""}",,,32.0,,,,,,,,,,,,,,,,,,,,,,,,,,,,,,,,,,,,telescope,80.0,11.0
339,,category_memory,,survey-text,339,275993,0.0-3.0-34.0-0.0,0,0,4,,906.0,"{""Q0"":""1""}",,,33.0,,,,,,,,,,,,,,,,,,,,,,,,,,,,,,,,,,,,fan,20.0,1.0
340,,category_memory,,survey-text,340,276743,0.0-3.0-35.0-0.0,0,0,4,,747.0,"{""Q0"":""1""}",,,34.0,,,,,,,,,,,,,,,,,,,,,,,,,,,,,,,,,,,,tape,80.0,1.0
341,,category_memory,,survey-text,341,277599,0.0-3.0-36.0-0.0,0,0,4,,852.0,"{""Q0"":""1""}",,,35.0,,,,,,,,,,,,,,,,,,,,,,,,,,,,,,,,,,,,license plate,40.0,1.0
