,success,ttype,start_time,trial_type,trial_index,time_elapsed,internal_node_id,warning,missed_checkup,PID,view_history,rt,responses,repeat_instructions,key_press,index,trial_num,isi,iti,is_practice,block,old_trial,pair_type,within_category,high_cat_on_left,left_category,right_category,left_category_value,right_category_value,left_exemplar,right_exemplar,left_exemplar_value,right_exemplar_value,left_img,right_img,left_img_path,right_img_path,left_chosen,chosen_category,unchosen_category,chosen_category_value,unchosen_category_value,chosen_exemplar,unchosen_exemplar,chosen_exemplar_value,unchosen_exemplar_value,no_response,onset,duration,end_practice,total_bonus_tally,category,category_group_value,category_value_response,did_not_enter_response
0,True,full_screen,d06012022hr2312,fullscreen,0,2357,0.0-0.0,0,0,3,,,,,,,,,,,,,,,,,,,,,,,,,,,,,,,,,,,,,,,,,,,,,
1,,category_learning_instructions,,instructions,1,4911,0.0-1.0-0.0-0.0,0,0,3,"[{""page_index"":0,""viewing_time"":966},{""page_index"":1,""viewing_time"":201},{""page_index"":2,""viewing_time"":141},{""page_index"":3,""viewing_time"":125},{""page_index"":4,""viewing_time"":813},{""page_index"":5,""viewing_time"":144},{""page_index"":6,""viewing_time"":162}]",2552.0,,,,,,,,,,,,,,,,,,,,,,,,,,,,,,,,,,,,,,,,,,,
2,,category_learning_comprehension_check,,survey-multi-choice,2,10135,0.0-1.0-0.0-1.0,0,0,3,,5219.0,"{""Q0"":""True"",""Q1"":""True"",""Q2"":""Stay the same"",""Q3"":""pointer finger for left and middle finger for right""}",0.0,,,,,,,,,,,,,,,,,,,,,,,,,,,,,,,,,,,,,,,,,
3,,,,html-keyboard-response,3,11830,0.0-1.0-1.0,0,0,3,,1691.0,,,50.0,,,,,,,,,,,,,,,,,,,,,,,,,,,,,,,,,,,,,,,,
4,,choice,,html-keyboard-response,4,12684,0.0-1.0-2.0-0.0-0.0,0,0,3,,850.0,,,51.0,0.0,0.0,1500.0,1000.0,1.0,0.0,0.0,20-80,,0.0,bagel,dumbbell,20.0,80.0,bagel1,dumbbell1,0.0,80.0,bagels_pumpernickel_large.jpg,31B64EN68AL._AA280_.jpg,/static/Category_learning/Stimuli/Practice_stims/bagel/bagels_pumpernickel_large.jpg,/static/Category_learning/Stimuli/Practice_stims/dumbbell/31B64EN68AL._AA280_.jpg,0.0,dumbbell,bagel,80.0,20.0,dumbbell1,bagel1,80.0,0.0,0.0,0.85,0.85,,,,,,
5,,confirmation,,html-keyboard-response,5,13337,0.0-1.0-2.0-0.0-1.0-0.0,0,0,3,,,,,,0.0,,,,,,,,,,,,,,,,,,,,,,,,,,,,,,,,1.5,0.65,,,,,,
6,,isi,,html-keyboard-response,6,13444,0.0-1.0-2.0-0.0-2.0,0,0,3,,,,,,,,,,,,,,,,,,,,,,,,,,,,,,,,,,,,,,3.0,1.5,,,,,,
7,,feedback,,html-keyboard-response,7,14447,0.0-1.0-2.0-0.0-3.0-0.0,0,0,3,,,,,,0.0,,,,,,,,,,,,,,,,,,,,,,,,,,,,,,,,4.0,1.0,,,,,,
8,,iti,,html-keyboard-response,8,14555,0.0-1.0-2.0-0.0-5.0,0,0,3,,,,,,,,,,,,,,,,,,,,,,,,,,,,,,,,,,,,,,5.0,1.0,,,,,,
9,,choice,,html-keyboard-response,9,14635,0.0-1.0-3.0-0.0-0.0,0,0,3,,77.0,,,50.0,1.0,1.0,3000.0,1500.0,1.0,0.0,0.0,20-40,,1.0,calculator,bagel,40.0,20.0,calculator2,bagel2,20.0,20.0,22829064.thl.jpg,bagels_cinnraisin_large.jpg,/static/Category_learning/Stimuli/Practice_stims/calculator/22829064.thl.jpg,/static/Category_learning/Stimuli/Practice_stims/bagel/bagels_cinnraisin_large.jpg,1.0,calculator,bagel,40.0,20.0,calculator2,bagel2,20.0,20.0,0.0,5.077,0.077,,,,,,
10,,confirmation,,html-keyboard-response,10,16063,0.0-1.0-3.0-0.0-1.0-0.0,0,0,3,,,,,,1.0,,,,,,,,,,,,,,,,,,,,,,,,,,,,,,,,6.5,1.423,,,,,,
11,,isi,,html-keyboard-response,11,16169,0.0-1.0-3.0-0.0-2.0,0,0,3,,,,,,,,,,,,,,,,,,,,,,,,,,,,,,,,,,,,,,9.5,3.0,,,,,,
12,,feedback,,html-keyboard-response,12,17177,0.0-1.0-3.0-0.0-3.0-0.0,0,0,3,,,,,,1.0,,,,,,,,,,,,,,,,,,,,,,,,,,,,,,,,10.5,1.0,,,,,,
13,,iti,,html-keyboard-response,13,17280,0.0-1.0-3.0-0.0-5.0,0,0,3,,,,,,,,,,,,,,,,,,,,,,,,,,,,,,,,,,,,,,12.0,1.5,,,,,,
14,,choice,,html-keyboard-response,14,17442,0.0-1.0-4.0-0.0-0.0,0,0,3,,158.0,,,51.0,2.0,2.0,2000.0,3000.0,1.0,0.0,0.0,60-80,,0.0,clock,dumbbell,60.0,80.0,clock2,dumbbell2,60.0,100.0,26373355.thl.jpg,31K8MR6TMBL._SS500_.jpg,/static/Category_learning/Stimuli/Practice_stims/clock/26373355.thl.jpg,/static/Category_learning/Stimuli/Practice_stims/dumbbell/31K8MR6TMBL._SS500_.jpg,0.0,dumbbell,clock,80.0,60.0,dumbbell2,clock2,100.0,60.0,0.0,12.158,0.158,,,,,,
15,,confirmation,,html-keyboard-response,15,18788,0.0-1.0-4.0-0.0-1.0-0.0,0,0,3,,,,,,2.0,,,,,,,,,,,,,,,,,,,,,,,,,,,,,,,,13.5,1.342,,,,,,
16,,isi,,html-keyboard-response,16,18891,0.0-1.0-4.0-0.0-2.0,0,0,3,,,,,,,,,,,,,,,,,,,,,,,,,,,,,,,,,,,,,,15.5,2.0,,,,,,
17,,feedback,,html-keyboard-response,17,19897,0.0-1.0-4.0-0.0-3.0-0.0,0,0,3,,,,,,2.0,,,,,,,,,,,,,,,,,,,,,,,,,,,,,,,,16.5,1.0,,,,,,
18,,iti,,html-keyboard-response,18,20000,0.0-1.0-4.0-0.0-5.0,0,0,3,,,,,,,,,,,,,,,,,,,,,,,,,,,,,,,,,,,,,,19.5,3.0,,,,,,
19,,choice,,html-keyboard-response,19,20155,0.0-1.0-5.0-0.0-0.0,0,0,3,,151.0,,,50.0,3.0,3.0,1000.0,2000.0,1.0,0.0,0.0,40-80,,0.0,calculator,clock,40.0,60.0,calculator1,clock1,40.0,40.0,22829184.thl.jpg,Aalarmclock2.jpg,/static/Category_learning/Stimuli/Practice_stims/calculator/22829184.thl.jpg,/static/Category_learning/Stimuli/Practice_stims/clock/Aalarmclock2.jpg,1.0,calculator,clock,40.0,60.0,calculator1,clock1,40.0,40.0,0.0,19.651,0.151,,,,,,
20,,confirmation,,html-keyboard-response,20,21512,0.0-1.0-5.0-0.0-1.0-0.0,0,0,3,,,,,,3.0,,,,,,,,,,,,,,,,,,,,,,,,,,,,,,,,21.0,1.349,,,,,,
21,,isi,,html-keyboard-response,21,21616,0.0-1.0-5.0-0.0-2.0,0,0,3,,,,,,,,,,,,,,,,,,,,,,,,,,,,,,,,,,,,,,22.0,1.0,,,,,,
22,,feedback,,html-keyboard-response,22,22623,0.0-1.0-5.0-0.0-3.0-0.0,0,0,3,,,,,,3.0,,,,,,,,,,,,,,,,,,,,,,,,,,,,,,,,23.0,1.0,,,,,,
23,,iti,,html-keyboard-response,23,22730,0.0-1.0-5.0-0.0-5.0,0,0,3,,,,,,,,,,,,,,,,,,,,,,,,,,,,,,,,,,,,,,25.0,2.0,,,,,,
24,,choice,,html-keyboard-response,24,24238,0.0-1.0-6.0-0.0-0.0,0,0,3,,,,,,4.0,4.0,2500.0,2500.0,1.0,0.0,0.0,20-60,,1.0,dumbbell,bagel,80.0,20.0,dumbbell3,bagel3,100.0,40.0,41K7QVRX50L._SS500_.jpg,photo-169.jpg,/static/Category_learning/Stimuli/Practice_stims/dumbbell/41K7QVRX50L._SS500_.jpg,/static/Category_learning/Stimuli/Practice_stims/bagel/photo-169.jpg,,,,,,,,,,1.0,26.5,1.5,,,,,,
25,,isi,,html-keyboard-response,25,24346,0.0-1.0-6.0-0.0-2.0,0,0,3,,,,,,,,,,,,,,,,,,,,,,,,,,,,,,,,,,,,,,29.0,2.5,,,,,,
26,,no_response,,html-keyboard-response,26,25352,0.0-1.0-6.0-0.0-4.0-0.0,0,0,3,,,,,,,,,,,,,,,,,,,,,,,,,,,,,,,,,,,,,,30.0,1.0,,,,,,
27,,iti,,html-keyboard-response,27,25457,0.0-1.0-6.0-0.0-5.0,0,0,3,,,,,,,,,,,,,,,,,,,,,,,,,,,,,,,,,,,,,,32.5,2.5,,,,,,
28,,choice,,html-keyboard-response,28,26965,0.0-1.0-6.0-0.1-0.1,0,0,3,,,,,,4.0,4.0,2500.0,2500.0,1.0,0.0,0.0,20-60,,1.0,dumbbell,bagel,80.0,20.0,dumbbell3,bagel3,100.0,40.0,41K7QVRX50L._SS500_.jpg,photo-169.jpg,/static/Category_learning/Stimuli/Practice_stims/dumbbell/41K7QVRX50L._SS500_.jpg,/static/Category_learning/Stimuli/Practice_stims/bagel/photo-169.jpg,,,,,,,,,,1.0,34.0,1.5,,,,,,
29,,isi,,html-keyboard-response,29,27071,0.0-1.0-6.0-0.1-2.1,0,0,3,,,,,,,,,,,,,,,,,,,,,,,,,,,,,,,,,,,,,,36.5,2.5,,,,,,
30,,no_response,,html-keyboard-response,30,28074,0.0-1.0-6.0-0.1-4.1-0.1,0,0,3,,,,,,,,,,,,,,,,,,,,,,,,,,,,,,,,,,,,,,37.5,1.0,,,,,,
31,,iti,,html-keyboard-response,31,28180,0.0-1.0-6.0-0.1-5.1,0,0,3,,,,,,,,,,,,,,,,,,,,,,,,,,,,,,,,,,,,,,40.0,2.5,,,,,,
32,,choice,,html-keyboard-response,32,29685,0.0-1.0-6.0-0.2-0.2,0,0,3,,,,,,4.0,4.0,2500.0,2500.0,1.0,0.0,0.0,20-60,,1.0,dumbbell,bagel,80.0,20.0,dumbbell3,bagel3,100.0,40.0,41K7QVRX50L._SS500_.jpg,photo-169.jpg,/static/Category_learning/Stimuli/Practice_stims/dumbbell/41K7QVRX50L._SS500_.jpg,/static/Category_learning/Stimuli/Practice_stims/bagel/photo-169.jpg,,,,,,,,,,1.0,41.5,1.5,,,,,,
33,,isi,,html-keyboard-response,33,29788,0.0-1.0-6.0-0.2-2.2,0,0,3,,,,,,,,,,,,,,,,,,,,,,,,,,,,,,,,,,,,,,44.0,2.5,,,,,,
34,,no_response,,html-keyboard-response,34,30794,0.0-1.0-6.0-0.2-4.2-0.2,0,0,3,,,,,,,,,,,,,,,,,,,,,,,,,,,,,,,,,,,,,,45.0,1.0,,,,,,
35,,iti,,html-keyboard-response,35,30901,0.0-1.0-6.0-0.2-5.2,0,0,3,,,,,,,,,,,,,,,,,,,,,,,,,,,,,,,,,,,,,,47.5,2.5,,,,,,
36,,choice,,html-keyboard-response,36,32409,0.0-1.0-6.0-0.3-0.3,0,0,3,,,,,,4.0,4.0,2500.0,2500.0,1.0,0.0,0.0,20-60,,1.0,dumbbell,bagel,80.0,20.0,dumbbell3,bagel3,100.0,40.0,41K7QVRX50L._SS500_.jpg,photo-169.jpg,/static/Category_learning/Stimuli/Practice_stims/dumbbell/41K7QVRX50L._SS500_.jpg,/static/Category_learning/Stimuli/Practice_stims/bagel/photo-169.jpg,,,,,,,,,,1.0,49.0,1.5,,,,,,
37,,isi,,html-keyboard-response,37,32516,0.0-1.0-6.0-0.3-2.3,0,0,3,,,,,,,,,,,,,,,,,,,,,,,,,,,,,,,,,,,,,,51.5,2.5,,,,,,
38,,no_response,,html-keyboard-response,38,33520,0.0-1.0-6.0-0.3-4.3-0.3,0,0,3,,,,,,,,,,,,,,,,,,,,,,,,,,,,,,,,,,,,,,52.5,1.0,,,,,,
39,,iti,,html-keyboard-response,39,33625,0.0-1.0-6.0-0.3-5.3,0,0,3,,,,,,,,,,,,,,,,,,,,,,,,,,,,,,,,,,,,,,55.0,2.5,,,,,,
40,,choice,,html-keyboard-response,40,35130,0.0-1.0-6.0-0.4-0.4,0,0,3,,,,,,4.0,4.0,2500.0,2500.0,1.0,0.0,0.0,20-60,,1.0,dumbbell,bagel,80.0,20.0,dumbbell3,bagel3,100.0,40.0,41K7QVRX50L._SS500_.jpg,photo-169.jpg,/static/Category_learning/Stimuli/Practice_stims/dumbbell/41K7QVRX50L._SS500_.jpg,/static/Category_learning/Stimuli/Practice_stims/bagel/photo-169.jpg,,,,,,,,,,1.0,56.5,1.5,,,,,,
41,,isi,,html-keyboard-response,41,35237,0.0-1.0-6.0-0.4-2.4,0,0,3,,,,,,,,,,,,,,,,,,,,,,,,,,,,,,,,,,,,,,59.0,2.5,,,,,,
42,,no_response,,html-keyboard-response,42,36245,0.0-1.0-6.0-0.4-4.4-0.4,0,0,3,,,,,,,,,,,,,,,,,,,,,,,,,,,,,,,,,,,,,,60.0,1.0,,,,,,
43,,iti,,html-keyboard-response,43,36351,0.0-1.0-6.0-0.4-5.4,0,0,3,,,,,,,,,,,,,,,,,,,,,,,,,,,,,,,,,,,,,,62.5,2.5,,,,,,
44,,choice,,html-keyboard-response,44,37857,0.0-1.0-6.0-0.5-0.5,0,0,3,,,,,,4.0,4.0,2500.0,2500.0,1.0,0.0,0.0,20-60,,1.0,dumbbell,bagel,80.0,20.0,dumbbell3,bagel3,100.0,40.0,41K7QVRX50L._SS500_.jpg,photo-169.jpg,/static/Category_learning/Stimuli/Practice_stims/dumbbell/41K7QVRX50L._SS500_.jpg,/static/Category_learning/Stimuli/Practice_stims/bagel/photo-169.jpg,,,,,,,,,,1.0,64.0,1.5,,,,,,
45,,isi,,html-keyboard-response,45,37964,0.0-1.0-6.0-0.5-2.5,0,0,3,,,,,,,,,,,,,,,,,,,,,,,,,,,,,,,,,,,,,,66.5,2.5,,,,,,
46,,no_response,,html-keyboard-response,46,38970,0.0-1.0-6.0-0.5-4.5-0.5,0,0,3,,,,,,,,,,,,,,,,,,,,,,,,,,,,,,,,,,,,,,67.5,1.0,,,,,,
47,,iti,,html-keyboard-response,47,39077,0.0-1.0-6.0-0.5-5.5,0,0,3,,,,,,,,,,,,,,,,,,,,,,,,,,,,,,,,,,,,,,70.0,2.5,,,,,,
48,,choice,,html-keyboard-response,48,40581,0.0-1.0-6.0-0.6-0.6,0,0,3,,,,,,4.0,4.0,2500.0,2500.0,1.0,0.0,0.0,20-60,,1.0,dumbbell,bagel,80.0,20.0,dumbbell3,bagel3,100.0,40.0,41K7QVRX50L._SS500_.jpg,photo-169.jpg,/static/Category_learning/Stimuli/Practice_stims/dumbbell/41K7QVRX50L._SS500_.jpg,/static/Category_learning/Stimuli/Practice_stims/bagel/photo-169.jpg,,,,,,,,,,1.0,71.5,1.5,,,,,,
49,,isi,,html-keyboard-response,49,40687,0.0-1.0-6.0-0.6-2.6,0,0,3,,,,,,,,,,,,,,,,,,,,,,,,,,,,,,,,,,,,,,74.0,2.5,,,,,,
50,,no_response,,html-keyboard-response,50,41690,0.0-1.0-6.0-0.6-4.6-0.6,0,0,3,,,,,,,,,,,,,,,,,,,,,,,,,,,,,,,,,,,,,,75.0,1.0,,,,,,
51,,iti,,html-keyboard-response,51,41797,0.0-1.0-6.0-0.6-5.6,0,0,3,,,,,,,,,,,,,,,,,,,,,,,,,,,,,,,,,,,,,,77.5,2.5,,,,,,
52,,choice,,html-keyboard-response,52,43304,0.0-1.0-6.0-0.7-0.7,0,0,3,,,,,,4.0,4.0,2500.0,2500.0,1.0,0.0,0.0,20-60,,1.0,dumbbell,bagel,80.0,20.0,dumbbell3,bagel3,100.0,40.0,41K7QVRX50L._SS500_.jpg,photo-169.jpg,/static/Category_learning/Stimuli/Practice_stims/dumbbell/41K7QVRX50L._SS500_.jpg,/static/Category_learning/Stimuli/Practice_stims/bagel/photo-169.jpg,,,,,,,,,,1.0,79.0,1.5,,,,,,
53,,isi,,html-keyboard-response,53,43408,0.0-1.0-6.0-0.7-2.7,0,0,3,,,,,,,,,,,,,,,,,,,,,,,,,,,,,,,,,,,,,,81.5,2.5,,,,,,
54,,no_response,,html-keyboard-response,54,44414,0.0-1.0-6.0-0.7-4.7-0.7,0,0,3,,,,,,,,,,,,,,,,,,,,,,,,,,,,,,,,,,,,,,82.5,1.0,,,,,,
55,,iti,,html-keyboard-response,55,44517,0.0-1.0-6.0-0.7-5.7,0,0,3,,,,,,,,,,,,,,,,,,,,,,,,,,,,,,,,,,,,,,85.0,2.5,,,,,,
56,,choice,,html-keyboard-response,56,45280,0.0-1.0-6.0-0.8-0.8,0,0,3,,760.0,,,51.0,4.0,4.0,2500.0,2500.0,1.0,0.0,0.0,20-60,,1.0,dumbbell,bagel,80.0,20.0,dumbbell3,bagel3,100.0,40.0,41K7QVRX50L._SS500_.jpg,photo-169.jpg,/static/Category_learning/Stimuli/Practice_stims/dumbbell/41K7QVRX50L._SS500_.jpg,/static/Category_learning/Stimuli/Practice_stims/bagel/photo-169.jpg,0.0,bagel,dumbbell,20.0,80.0,bagel3,dumbbell3,40.0,100.0,0.0,85.76,0.76,1.0,,,,,
57,,confirmation,,html-keyboard-response,57,46027,0.0-1.0-6.0-0.8-1.8-0.8,0,0,3,,,,,,4.0,,,,,,,,,,,,,,,,,,,,,,,,,,,,,,,,86.5,0.74,,,,,,
58,,isi,,html-keyboard-response,58,46133,0.0-1.0-6.0-0.8-2.8,0,0,3,,,,,,,,,,,,,,,,,,,,,,,,,,,,,,,,,,,,,,89.0,2.5,,,,,,
59,,feedback,,html-keyboard-response,59,47140,0.0-1.0-6.0-0.8-3.8-0.8,0,0,3,,,,,,4.0,,,,,,,,,,,,,,,,,,,,,,,,,,,,,,,,90.0,1.0,,,,,,
60,,iti,,html-keyboard-response,60,47247,0.0-1.0-6.0-0.8-5.8,0,0,3,,,,,,,,,,,,,,,,,,,,,,,,,,,,,,,,,,,,,,92.5,2.5,,,,,,
61,,practice_over,,html-keyboard-response,61,50022,0.0-1.0-6.0-0.8-6.8-0.8,0,0,3,,2772.0,,,50.0,4.0,,,,,,,,,,,,,,,,,,,,,,,,,,,,,,,,,,,,,,,
62,,start_run,,html-keyboard-response,62,53854,0.0-1.0-6.0-0.8-6.8-1.8,0,0,3,,3829.0,,,84.0,,,,,,,,,,,,,,,,,,,,,,,,,,,,,,,,,,,,,,,,
63,,choice,,html-keyboard-response,63,54206,0.0-1.0-7.0-0.0-0.0,0,0,3,,349.0,,,51.0,5.0,305.0,1500.0,1000.0,0.0,6.0,0.0,20-80,,1.0,dresser,frame,80.0,20.0,dresser5,frame12,100.0,0.0,ADRESSE55.jpg,AFRAME138.jpg,/static/Category_learning/Stimuli/Experimental_stims/dresser/ADRESSE55.jpg,/static/Category_learning/Stimuli/Experimental_stims/frame/AFRAME138.jpg,0.0,frame,dresser,20.0,80.0,frame12,dresser5,0.0,100.0,0.0,0.349,0.349,,,,,,
64,,confirmation,,html-keyboard-response,64,55365,0.0-1.0-7.0-0.0-1.0-0.0,0,0,3,,,,,,5.0,,,,,,,,,,,,,,,,,,,,,,,,,,,,,,,,1.5,1.151,,,,,,
65,,isi,,html-keyboard-response,65,55468,0.0-1.0-7.0-0.0-2.0,0,0,3,,,,,,,,,,,,,,,,,,,,,,,,,,,,,,,,,,,,,,3.0,1.5,,,,,,
66,,feedback,,html-keyboard-response,66,56475,0.0-1.0-7.0-0.0-3.0-0.0,0,0,3,,,,,,5.0,,,,,,,,,,,,,,,,,,,,,,,,,,,,,,,,4.0,1.0,,,,,,
67,,iti,,html-keyboard-response,67,56581,0.0-1.0-7.0-0.0-5.0,0,0,3,,,,,,,,,,,,,,,,,,,,,,,,,,,,,,,,,,,,,,5.0,1.0,,,,,,
68,,choice,,html-keyboard-response,68,56627,0.0-1.0-8.0-0.0-0.0,0,0,3,,43.0,,,50.0,6.0,306.0,2000.0,1000.0,0.0,6.0,0.0,20-60,,1.0,stool,makeup compact,60.0,20.0,stool11,makeup compact1,60.0,0.0,ASTOOL28.jpg,P190250_hero.jpg,/static/Category_learning/Stimuli/Experimental_stims/stool/ASTOOL28.jpg,/static/Category_learning/Stimuli/Experimental_stims/makeup compact/P190250_hero.jpg,1.0,stool,makeup compact,60.0,20.0,stool11,makeup compact1,60.0,0.0,0.0,5.043,0.043,,,,,,
69,,confirmation,,html-keyboard-response,69,58091,0.0-1.0-8.0-0.0-1.0-0.0,0,0,3,,,,,,6.0,,,,,,,,,,,,,,,,,,,,,,,,,,,,,,,,6.5,1.457,,,,,,
70,,isi,,html-keyboard-response,70,58197,0.0-1.0-8.0-0.0-2.0,0,0,3,,,,,,,,,,,,,,,,,,,,,,,,,,,,,,,,,,,,,,8.5,2.0,,,,,,
71,,feedback,,html-keyboard-response,71,59205,0.0-1.0-8.0-0.0-3.0-0.0,0,0,3,,,,,,6.0,,,,,,,,,,,,,,,,,,,,,,,,,,,,,,,,9.5,1.0,,,,,,
72,,iti,,html-keyboard-response,72,59308,0.0-1.0-8.0-0.0-5.0,0,0,3,,,,,,,,,,,,,,,,,,,,,,,,,,,,,,,,,,,,,,10.5,1.0,,,,,,
73,,choice,,html-keyboard-response,73,59458,0.0-1.0-9.0-0.0-0.0,0,0,3,,148.0,,,50.0,7.0,307.0,1000.0,1000.0,0.0,6.0,0.0,40-60,,0.0,poker card,stool,40.0,60.0,poker card5,stool13,60.0,60.0,22864800.thl.jpg,ASTOOL38.jpg,/static/Category_learning/Stimuli/Experimental_stims/poker card/22864800.thl.jpg,/static/Category_learning/Stimuli/Experimental_stims/stool/ASTOOL38.jpg,1.0,poker card,stool,40.0,60.0,poker card5,stool13,60.0,60.0,0.0,10.648,0.148,,,,,,
74,,confirmation,,html-keyboard-response,74,60818,0.0-1.0-9.0-0.0-1.0-0.0,0,0,3,,,,,,7.0,,,,,,,,,,,,,,,,,,,,,,,,,,,,,,,,12.0,1.352,,,,,,
75,,isi,,html-keyboard-response,75,60922,0.0-1.0-9.0-0.0-2.0,0,0,3,,,,,,,,,,,,,,,,,,,,,,,,,,,,,,,,,,,,,,13.0,1.0,,,,,,
76,,feedback,,html-keyboard-response,76,61930,0.0-1.0-9.0-0.0-3.0-0.0,0,0,3,,,,,,7.0,,,,,,,,,,,,,,,,,,,,,,,,,,,,,,,,14.0,1.0,,,,,,
77,,iti,,html-keyboard-response,77,62037,0.0-1.0-9.0-0.0-5.0,0,0,3,,,,,,,,,,,,,,,,,,,,,,,,,,,,,,,,,,,,,,15.0,1.0,,,,,,
78,,choice,,html-keyboard-response,78,63541,0.0-1.0-10.0-0.0-0.0,0,0,3,,,,,,8.0,308.0,1000.0,3500.0,0.0,6.0,0.0,20-60,,0.0,hammer,trumpet,20.0,60.0,hammer13,trumpet11,20.0,80.0,hammer2.jpg,JUPITER+JTR604L.jpg,/static/Category_learning/Stimuli/Experimental_stims/hammer/hammer2.jpg,/static/Category_learning/Stimuli/Experimental_stims/trumpet/JUPITER+JTR604L.jpg,,,,,,,,,,1.0,16.5,1.5,,,,,,
79,,isi,,html-keyboard-response,79,63648,0.0-1.0-10.0-0.0-2.0,0,0,3,,,,,,,,,,,,,,,,,,,,,,,,,,,,,,,,,,,,,,17.5,1.0,,,,,,
80,,no_response,,html-keyboard-response,80,64655,0.0-1.0-10.0-0.0-4.0-0.0,1,0,3,,,,,,,,,,,,,,,,,,,,,,,,,,,,,,,,,,,,,,18.5,1.0,,,,,,
81,,iti,,html-keyboard-response,81,64779,0.0-1.0-10.0-0.0-5.0,0,0,3,,,,,,,,,,,,,,,,,,,,,,,,,,,,,,,,,,,,,,22.0,3.5,,,,,,
82,,choice,,html-keyboard-response,82,66282,0.0-1.0-10.0-0.1-0.1,0,0,3,,,,,,8.0,308.0,1000.0,3500.0,0.0,6.0,0.0,20-60,,0.0,hammer,trumpet,20.0,60.0,hammer13,trumpet11,20.0,80.0,hammer2.jpg,JUPITER+JTR604L.jpg,/static/Category_learning/Stimuli/Experimental_stims/hammer/hammer2.jpg,/static/Category_learning/Stimuli/Experimental_stims/trumpet/JUPITER+JTR604L.jpg,,,,,,,,,,1.0,23.5,1.5,,,,,,
83,,isi,,html-keyboard-response,83,66389,0.0-1.0-10.0-0.1-2.1,0,0,3,,,,,,,,,,,,,,,,,,,,,,,,,,,,,,,,,,,,,,24.5,1.0,,,,,,
84,,no_response,,html-keyboard-response,84,67392,0.0-1.0-10.0-0.1-4.1-0.1,1,0,3,,,,,,,,,,,,,,,,,,,,,,,,,,,,,,,,,,,,,,25.5,1.0,,,,,,
85,,iti,,html-keyboard-response,85,67514,0.0-1.0-10.0-0.1-5.1,0,0,3,,,,,,,,,,,,,,,,,,,,,,,,,,,,,,,,,,,,,,27.5,2.0,,,,,,
86,,choice,,html-keyboard-response,86,69018,0.0-1.0-10.0-0.2-0.2,0,0,3,,,,,,8.0,308.0,1000.0,3500.0,0.0,6.0,0.0,20-60,,0.0,hammer,trumpet,20.0,60.0,hammer13,trumpet11,20.0,80.0,hammer2.jpg,JUPITER+JTR604L.jpg,/static/Category_learning/Stimuli/Experimental_stims/hammer/hammer2.jpg,/static/Category_learning/Stimuli/Experimental_stims/trumpet/JUPITER+JTR604L.jpg,,,,,,,,,,1.0,29.0,1.5,,,,,,
87,,isi,,html-keyboard-response,87,69125,0.0-1.0-10.0-0.2-2.2,0,0,3,,,,,,,,,,,,,,,,,,,,,,,,,,,,,,,,,,,,,,30.5,1.5,,,,,,
88,,no_response,,html-keyboard-response,88,70131,0.0-1.0-10.0-0.2-4.2-0.2,1,0,3,,,,,,,,,,,,,,,,,,,,,,,,,,,,,,,,,,,,,,31.5,1.0,,,,,,
89,,iti,,html-keyboard-response,89,70250,0.0-1.0-10.0-0.2-5.2,0,0,3,,,,,,,,,,,,,,,,,,,,,,,,,,,,,,,,,,,,,,33.5,2.0,,,,,,
90,,choice,,html-keyboard-response,90,71759,0.0-1.0-10.0-0.3-0.3,0,0,3,,,,,,8.0,308.0,1000.0,3500.0,0.0,6.0,0.0,20-60,,0.0,hammer,trumpet,20.0,60.0,hammer13,trumpet11,20.0,80.0,hammer2.jpg,JUPITER+JTR604L.jpg,/static/Category_learning/Stimuli/Experimental_stims/hammer/hammer2.jpg,/static/Category_learning/Stimuli/Experimental_stims/trumpet/JUPITER+JTR604L.jpg,,,,,,,,,,1.0,35.0,1.5,,,,,,
91,,isi,,html-keyboard-response,91,71864,0.0-1.0-10.0-0.3-2.3,0,0,3,,,,,,,,,,,,,,,,,,,,,,,,,,,,,,,,,,,,,,36.0,1.0,,,,,,
92,,no_response,,html-keyboard-response,92,72869,0.0-1.0-10.0-0.3-4.3-0.3,1,0,3,,,,,,,,,,,,,,,,,,,,,,,,,,,,,,,,,,,,,,37.0,1.0,,,,,,
93,,iti,,html-keyboard-response,93,72986,0.0-1.0-10.0-0.3-5.3,0,0,3,,,,,,,,,,,,,,,,,,,,,,,,,,,,,,,,,,,,,,39.0,2.0,,,,,,
94,,choice,,html-keyboard-response,94,74491,0.0-1.0-10.0-0.4-0.4,0,0,3,,,,,,8.0,308.0,1000.0,3500.0,0.0,6.0,0.0,20-60,,0.0,hammer,trumpet,20.0,60.0,hammer13,trumpet11,20.0,80.0,hammer2.jpg,JUPITER+JTR604L.jpg,/static/Category_learning/Stimuli/Experimental_stims/hammer/hammer2.jpg,/static/Category_learning/Stimuli/Experimental_stims/trumpet/JUPITER+JTR604L.jpg,,,,,,,,,,1.0,40.5,1.5,,,,,,
95,,isi,,html-keyboard-response,95,74598,0.0-1.0-10.0-0.4-2.4,0,0,3,,,,,,,,,,,,,,,,,,,,,,,,,,,,,,,,,,,,,,42.5,2.0,,,,,,
96,,no_response,,html-keyboard-response,96,75605,0.0-1.0-10.0-0.4-4.4-0.4,1,0,3,,,,,,,,,,,,,,,,,,,,,,,,,,,,,,,,,,,,,,43.5,1.0,,,,,,
97,,iti,,html-keyboard-response,97,75722,0.0-1.0-10.0-0.4-5.4,0,0,3,,,,,,,,,,,,,,,,,,,,,,,,,,,,,,,,,,,,,,45.0,1.5,,,,,,
98,,choice,,html-keyboard-response,98,77227,0.0-1.0-10.0-0.5-0.5,0,0,3,,,,,,8.0,308.0,1000.0,3500.0,0.0,6.0,0.0,20-60,,0.0,hammer,trumpet,20.0,60.0,hammer13,trumpet11,20.0,80.0,hammer2.jpg,JUPITER+JTR604L.jpg,/static/Category_learning/Stimuli/Experimental_stims/hammer/hammer2.jpg,/static/Category_learning/Stimuli/Experimental_stims/trumpet/JUPITER+JTR604L.jpg,,,,,,,,,,1.0,46.5,1.5,,,,,,
99,,isi,,html-keyboard-response,99,77334,0.0-1.0-10.0-0.5-2.5,0,0,3,,,,,,,,,,,,,,,,,,,,,,,,,,,,,,,,,,,,,,48.5,2.0,,,,,,
100,,no_response,,html-keyboard-response,100,78341,0.0-1.0-10.0-0.5-4.5-0.5,1,0,3,,,,,,,,,,,,,,,,,,,,,,,,,,,,,,,,,,,,,,49.5,1.0,,,,,,
101,,iti,,html-keyboard-response,101,78462,0.0-1.0-10.0-0.5-5.5,0,0,3,,,,,,,,,,,,,,,,,,,,,,,,,,,,,,,,,,,,,,50.5,1.0,,,,,,
102,,choice,,html-keyboard-response,102,79968,0.0-1.0-10.0-0.6-0.6,0,0,3,,,,,,8.0,308.0,1000.0,3500.0,0.0,6.0,0.0,20-60,,0.0,hammer,trumpet,20.0,60.0,hammer13,trumpet11,20.0,80.0,hammer2.jpg,JUPITER+JTR604L.jpg,/static/Category_learning/Stimuli/Experimental_stims/hammer/hammer2.jpg,/static/Category_learning/Stimuli/Experimental_stims/trumpet/JUPITER+JTR604L.jpg,,,,,,,,,,1.0,52.0,1.5,,,,,,
103,,isi,,html-keyboard-response,103,80075,0.0-1.0-10.0-0.6-2.6,0,0,3,,,,,,,,,,,,,,,,,,,,,,,,,,,,,,,,,,,,,,55.0,3.0,,,,,,
104,,no_response,,html-keyboard-response,104,81081,0.0-1.0-10.0-0.6-4.6-0.6,1,0,3,,,,,,,,,,,,,,,,,,,,,,,,,,,,,,,,,,,,,,56.0,1.0,,,,,,
105,,iti,,html-keyboard-response,105,81200,0.0-1.0-10.0-0.6-5.6,0,0,3,,,,,,,,,,,,,,,,,,,,,,,,,,,,,,,,,,,,,,58.0,2.0,,,,,,
106,,choice,,html-keyboard-response,106,82706,0.0-1.0-10.0-0.7-0.7,0,0,3,,,,,,8.0,308.0,1000.0,3500.0,0.0,6.0,0.0,20-60,,0.0,hammer,trumpet,20.0,60.0,hammer13,trumpet11,20.0,80.0,hammer2.jpg,JUPITER+JTR604L.jpg,/static/Category_learning/Stimuli/Experimental_stims/hammer/hammer2.jpg,/static/Category_learning/Stimuli/Experimental_stims/trumpet/JUPITER+JTR604L.jpg,,,,,,,,,,1.0,59.5,1.5,,,,,,
107,,isi,,html-keyboard-response,107,82811,0.0-1.0-10.0-0.7-2.7,0,0,3,,,,,,,,,,,,,,,,,,,,,,,,,,,,,,,,,,,,,,62.5,3.0,,,,,,
108,,no_response,,html-keyboard-response,108,83818,0.0-1.0-10.0-0.7-4.7-0.7,1,0,3,,,,,,,,,,,,,,,,,,,,,,,,,,,,,,,,,,,,,,63.5,1.0,,,,,,
109,,iti,,html-keyboard-response,109,83936,0.0-1.0-10.0-0.7-5.7,0,0,3,,,,,,,,,,,,,,,,,,,,,,,,,,,,,,,,,,,,,,64.5,1.0,,,,,,
110,,choice,,html-keyboard-response,110,85440,0.0-1.0-10.0-0.8-0.8,0,0,3,,,,,,8.0,308.0,1000.0,3500.0,0.0,6.0,0.0,20-60,,0.0,hammer,trumpet,20.0,60.0,hammer13,trumpet11,20.0,80.0,hammer2.jpg,JUPITER+JTR604L.jpg,/static/Category_learning/Stimuli/Experimental_stims/hammer/hammer2.jpg,/static/Category_learning/Stimuli/Experimental_stims/trumpet/JUPITER+JTR604L.jpg,,,,,,,,,,1.0,66.0,1.5,,,,,,
111,,isi,,html-keyboard-response,111,85548,0.0-1.0-10.0-0.8-2.8,0,0,3,,,,,,,,,,,,,,,,,,,,,,,,,,,,,,,,,,,,,,67.0,1.0,,,,,,
112,,no_response,,html-keyboard-response,112,86555,0.0-1.0-10.0-0.8-4.8-0.8,1,0,3,,,,,,,,,,,,,,,,,,,,,,,,,,,,,,,,,,,,,,68.0,1.0,,,,,,
113,,iti,,html-keyboard-response,113,86674,0.0-1.0-10.0-0.8-5.8,0,0,3,,,,,,,,,,,,,,,,,,,,,,,,,,,,,,,,,,,,,,69.5,1.5,,,,,,
114,,choice,,html-keyboard-response,114,86890,0.0-1.0-10.0-0.9-0.9,0,0,3,,212.0,,,51.0,8.0,308.0,1000.0,3500.0,0.0,6.0,0.0,20-60,,0.0,hammer,trumpet,20.0,60.0,hammer13,trumpet11,20.0,80.0,hammer2.jpg,JUPITER+JTR604L.jpg,/static/Category_learning/Stimuli/Experimental_stims/hammer/hammer2.jpg,/static/Category_learning/Stimuli/Experimental_stims/trumpet/JUPITER+JTR604L.jpg,0.0,trumpet,hammer,60.0,20.0,trumpet11,hammer13,80.0,20.0,0.0,69.712,0.212,,,,,,
115,,confirmation,,html-keyboard-response,115,88187,0.0-1.0-10.0-0.9-1.9-0.9,0,0,3,,,,,,8.0,,,,,,,,,,,,,,,,,,,,,,,,,,,,,,,,71.0,1.288,,,,,,
116,,isi,,html-keyboard-response,116,88293,0.0-1.0-10.0-0.9-2.9,0,0,3,,,,,,,,,,,,,,,,,,,,,,,,,,,,,,,,,,,,,,72.0,1.0,,,,,,
117,,feedback,,html-keyboard-response,117,89300,0.0-1.0-10.0-0.9-3.9-0.9,0,0,3,,,,,,8.0,,,,,,,,,,,,,,,,,,,,,,,,,,,,,,,,73.0,1.0,,,,,,
118,,iti,,html-keyboard-response,118,89408,0.0-1.0-10.0-0.9-5.9,0,0,3,,,,,,,,,,,,,,,,,,,,,,,,,,,,,,,,,,,,,,74.5,1.5,,,,,,
119,,choice,,html-keyboard-response,119,89581,0.0-1.0-11.0-0.0-0.0,0,0,3,,169.0,,,50.0,9.0,309.0,2000.0,1000.0,0.0,6.0,0.0,40-60,,0.0,necklace,tent,40.0,60.0,necklace6,tent1,60.0,40.0,Agoldnecklace.jpg,Atent8.jpg,/static/Category_learning/Stimuli/Experimental_stims/necklace/Agoldnecklace.jpg,/static/Category_learning/Stimuli/Experimental_stims/tent/Atent8.jpg,1.0,necklace,tent,40.0,60.0,necklace6,tent1,60.0,40.0,0.0,74.669,0.169,,,,,,
120,,confirmation,,html-keyboard-response,120,90917,0.0-1.0-11.0-0.0-1.0-0.0,0,0,3,,,,,,9.0,,,,,,,,,,,,,,,,,,,,,,,,,,,,,,,,76.0,1.331,,,,,,
121,,isi,,html-keyboard-response,121,91024,0.0-1.0-11.0-0.0-2.0,0,0,3,,,,,,,,,,,,,,,,,,,,,,,,,,,,,,,,,,,,,,78.0,2.0,,,,,,
122,,feedback,,html-keyboard-response,122,92032,0.0-1.0-11.0-0.0-3.0-0.0,0,0,3,,,,,,9.0,,,,,,,,,,,,,,,,,,,,,,,,,,,,,,,,79.0,1.0,,,,,,
123,,iti,,html-keyboard-response,123,92139,0.0-1.0-11.0-0.0-5.0,0,0,3,,,,,,,,,,,,,,,,,,,,,,,,,,,,,,,,,,,,,,80.0,1.0,,,,,,
124,,choice,,html-keyboard-response,124,92626,0.0-1.0-12.0-0.0-0.0,0,0,3,,483.0,,,50.0,10.0,310.0,1500.0,1500.0,0.0,6.0,1.0,20-40,0.0,,necklace,frame,40.0,20.0,necklace6,frame12,60.0,0.0,Agoldnecklace.jpg,AFRAME138.jpg,/static/Category_learning/Stimuli/Experimental_stims/necklace/Agoldnecklace.jpg,/static/Category_learning/Stimuli/Experimental_stims/frame/AFRAME138.jpg,1.0,necklace,frame,40.0,20.0,necklace6,frame12,60.0,0.0,0.0,80.483,0.483,,,,,,
125,,confirmation,,html-keyboard-response,125,93648,0.0-1.0-12.0-0.0-1.0-0.0,0,0,3,,,,,,10.0,,,,,,,,,,,,,,,,,,,,,,,,,,,,,,,,81.5,1.017,,,,,,
126,,isi,,html-keyboard-response,126,93754,0.0-1.0-12.0-0.0-2.0,0,0,3,,,,,,,,,,,,,,,,,,,,,,,,,,,,,,,,,,,,,,83.0,1.5,,,,,,
127,,feedback,,html-keyboard-response,127,94757,0.0-1.0-12.0-0.0-3.0-0.0,0,0,3,,,,,,10.0,,,,,,,,,,,,,,,,,,,,,,,,,,,,,,,,84.0,1.0,,,,,,
128,,iti,,html-keyboard-response,128,94861,0.0-1.0-12.0-0.0-5.0,0,0,3,,,,,,,,,,,,,,,,,,,,,,,,,,,,,,,,,,,,,,85.5,1.5,,,,,,
129,,choice,,html-keyboard-response,129,95025,0.0-1.0-13.0-0.0-0.0,0,0,3,,161.0,,,50.0,11.0,311.0,2000.0,1500.0,0.0,6.0,1.0,60-60,0.0,,trumpet,stool,60.0,60.0,trumpet11,stool11,80.0,60.0,JUPITER+JTR604L.jpg,ASTOOL28.jpg,/static/Category_learning/Stimuli/Experimental_stims/trumpet/JUPITER+JTR604L.jpg,/static/Category_learning/Stimuli/Experimental_stims/stool/ASTOOL28.jpg,1.0,trumpet,stool,60.0,60.0,trumpet11,stool11,80.0,60.0,0.0,85.661,0.161,,,,,,
130,,confirmation,,html-keyboard-response,130,96368,0.0-1.0-13.0-0.0-1.0-0.0,0,0,3,,,,,,11.0,,,,,,,,,,,,,,,,,,,,,,,,,,,,,,,,87.0,1.339,,,,,,
131,,isi,,html-keyboard-response,131,96475,0.0-1.0-13.0-0.0-2.0,0,0,3,,,,,,,,,,,,,,,,,,,,,,,,,,,,,,,,,,,,,,89.0,2.0,,,,,,
132,,feedback,,html-keyboard-response,132,97479,0.0-1.0-13.0-0.0-3.0-0.0,0,0,3,,,,,,11.0,,,,,,,,,,,,,,,,,,,,,,,,,,,,,,,,90.0,1.0,,,,,,
133,,iti,,html-keyboard-response,133,97584,0.0-1.0-13.0-0.0-5.0,0,0,3,,,,,,,,,,,,,,,,,,,,,,,,,,,,,,,,,,,,,,91.5,1.5,,,,,,
134,,choice,,html-keyboard-response,134,97649,0.0-1.0-14.0-0.0-0.0,0,0,3,,62.0,,,50.0,12.0,312.0,1000.0,1000.0,0.0,6.0,0.0,80-80,,,bowl,fan,80.0,80.0,bowl4,fan1,80.0,60.0,Abowl77.jpg,01393.fpx.jpg,/static/Category_learning/Stimuli/Experimental_stims/bowl/Abowl77.jpg,/static/Category_learning/Stimuli/Experimental_stims/fan/01393.fpx.jpg,1.0,bowl,fan,80.0,80.0,bowl4,fan1,80.0,60.0,0.0,91.562,0.062,,,,,,
135,,confirmation,,html-keyboard-response,135,99091,0.0-1.0-14.0-0.0-1.0-0.0,0,0,3,,,,,,12.0,,,,,,,,,,,,,,,,,,,,,,,,,,,,,,,,93.0,1.438,,,,,,
136,,isi,,html-keyboard-response,136,99198,0.0-1.0-14.0-0.0-2.0,0,0,3,,,,,,,,,,,,,,,,,,,,,,,,,,,,,,,,,,,,,,94.0,1.0,,,,,,
137,,feedback,,html-keyboard-response,137,100202,0.0-1.0-14.0-0.0-3.0-0.0,0,0,3,,,,,,12.0,,,,,,,,,,,,,,,,,,,,,,,,,,,,,,,,95.0,1.0,,,,,,
138,,iti,,html-keyboard-response,138,100307,0.0-1.0-14.0-0.0-5.0,0,0,3,,,,,,,,,,,,,,,,,,,,,,,,,,,,,,,,,,,,,,96.0,1.0,,,,,,
139,,choice,,html-keyboard-response,139,100317,0.0-1.0-15.0-0.0-0.0,0,0,3,,7.0,,,51.0,13.0,313.0,3500.0,2000.0,0.0,6.0,0.0,20-60,,1.0,tent,hat,60.0,20.0,tent8,hat8,60.0,20.0,quechua_tent-1.jpg,ABLUEHAT.jpg,/static/Category_learning/Stimuli/Experimental_stims/tent/quechua_tent-1.jpg,/static/Category_learning/Stimuli/Experimental_stims/hat/ABLUEHAT.jpg,0.0,hat,tent,20.0,60.0,hat8,tent8,20.0,60.0,0.0,96.007,0.007,,,,,,
140,,confirmation,,html-keyboard-response,140,101817,0.0-1.0-15.0-0.0-1.0-0.0,0,0,3,,,,,,13.0,,,,,,,,,,,,,,,,,,,,,,,,,,,,,,,,97.5,1.493,,,,,,
141,,isi,,html-keyboard-response,141,101920,0.0-1.0-15.0-0.0-2.0,0,0,3,,,,,,,,,,,,,,,,,,,,,,,,,,,,,,,,,,,,,,101.0,3.5,,,,,,
142,,feedback,,html-keyboard-response,142,102928,0.0-1.0-15.0-0.0-3.0-0.0,0,0,3,,,,,,13.0,,,,,,,,,,,,,,,,,,,,,,,,,,,,,,,,102.0,1.0,,,,,,
143,,iti,,html-keyboard-response,143,103035,0.0-1.0-15.0-0.0-5.0,0,0,3,,,,,,,,,,,,,,,,,,,,,,,,,,,,,,,,,,,,,,104.0,2.0,,,,,,
144,,choice,,html-keyboard-response,144,103119,0.0-1.0-16.0-0.0-0.0,0,0,3,,80.0,,,51.0,14.0,314.0,2000.0,1500.0,0.0,6.0,0.0,20-60,,0.0,motorcycle,telescope,20.0,60.0,motorcycle1,telescope3,0.0,40.0,motorcycle30.jpg,41V67SB5NJL._SS500_.jpg,/static/Category_learning/Stimuli/Experimental_stims/motorcycle/motorcycle30.jpg,/static/Category_learning/Stimuli/Experimental_stims/telescope/41V67SB5NJL._SS500_.jpg,0.0,telescope,motorcycle,60.0,20.0,telescope3,motorcycle1,40.0,0.0,0.0,104.08,0.08,,,,,,
145,,confirmation,,html-keyboard-response,145,104546,0.0-1.0-16.0-0.0-1.0-0.0,0,0,3,,,,,,14.0,,,,,,,,,,,,,,,,,,,,,,,,,,,,,,,,105.5,1.42,,,,,,
146,,isi,,html-keyboard-response,146,104651,0.0-1.0-16.0-0.0-2.0,0,0,3,,,,,,,,,,,,,,,,,,,,,,,,,,,,,,,,,,,,,,107.5,2.0,,,,,,
147,,feedback,,html-keyboard-response,147,105656,0.0-1.0-16.0-0.0-3.0-0.0,0,0,3,,,,,,14.0,,,,,,,,,,,,,,,,,,,,,,,,,,,,,,,,108.5,1.0,,,,,,
148,,iti,,html-keyboard-response,148,105762,0.0-1.0-16.0-0.0-5.0,0,0,3,,,,,,,,,,,,,,,,,,,,,,,,,,,,,,,,,,,,,,110.0,1.5,,,,,,
149,,choice,,html-keyboard-response,149,106166,0.0-1.0-17.0-0.0-0.0,0,0,3,,400.0,,,50.0,15.0,315.0,1000.0,3000.0,0.0,6.0,0.0,20-20,,,key chain,frame,20.0,20.0,key chain11,frame1,20.0,0.0,31H95JKXWNL._SS500_.jpg,AFRAME127.jpg,/static/Category_learning/Stimuli/Experimental_stims/key chain/31H95JKXWNL._SS500_.jpg,/static/Category_learning/Stimuli/Experimental_stims/frame/AFRAME127.jpg,1.0,key chain,frame,20.0,20.0,key chain11,frame1,20.0,0.0,0.0,110.4,0.4,,,,,,
150,,confirmation,,html-keyboard-response,150,107270,0.0-1.0-17.0-0.0-1.0-0.0,0,0,3,,,,,,15.0,,,,,,,,,,,,,,,,,,,,,,,,,,,,,,,,111.5,1.1,,,,,,
151,,isi,,html-keyboard-response,151,107376,0.0-1.0-17.0-0.0-2.0,0,0,3,,,,,,,,,,,,,,,,,,,,,,,,,,,,,,,,,,,,,,112.5,1.0,,,,,,
152,,feedback,,html-keyboard-response,152,108382,0.0-1.0-17.0-0.0-3.0-0.0,0,0,3,,,,,,15.0,,,,,,,,,,,,,,,,,,,,,,,,,,,,,,,,113.5,1.0,,,,,,
153,,iti,,html-keyboard-response,153,108486,0.0-1.0-17.0-0.0-5.0,0,0,3,,,,,,,,,,,,,,,,,,,,,,,,,,,,,,,,,,,,,,116.5,3.0,,,,,,
154,,choice,,html-keyboard-response,154,108775,0.0-1.0-18.0-0.0-0.0,0,0,3,,286.0,,,51.0,16.0,316.0,3500.0,2000.0,0.0,6.0,1.0,60-80,0.0,,bowl,telescope,80.0,60.0,bowl4,telescope3,80.0,40.0,Abowl77.jpg,41V67SB5NJL._SS500_.jpg,/static/Category_learning/Stimuli/Experimental_stims/bowl/Abowl77.jpg,/static/Category_learning/Stimuli/Experimental_stims/telescope/41V67SB5NJL._SS500_.jpg,0.0,telescope,bowl,60.0,80.0,telescope3,bowl4,40.0,80.0,0.0,116.786,0.286,,,,,,
155,,confirmation,,html-keyboard-response,155,109995,0.0-1.0-18.0-0.0-1.0-0.0,0,0,3,,,,,,16.0,,,,,,,,,,,,,,,,,,,,,,,,,,,,,,,,118.0,1.214,,,,,,
156,,isi,,html-keyboard-response,156,110102,0.0-1.0-18.0-0.0-2.0,0,0,3,,,,,,,,,,,,,,,,,,,,,,,,,,,,,,,,,,,,,,121.5,3.5,,,,,,
157,,feedback,,html-keyboard-response,157,111107,0.0-1.0-18.0-0.0-3.0-0.0,0,0,3,,,,,,16.0,,,,,,,,,,,,,,,,,,,,,,,,,,,,,,,,122.5,1.0,,,,,,
158,,iti,,html-keyboard-response,158,111210,0.0-1.0-18.0-0.0-5.0,0,0,3,,,,,,,,,,,,,,,,,,,,,,,,,,,,,,,,,,,,,,124.5,2.0,,,,,,
159,,choice,,html-keyboard-response,159,111544,0.0-1.0-19.0-0.0-0.0,0,0,3,,330.0,,,51.0,17.0,317.0,1000.0,1000.0,0.0,6.0,0.0,40-80,,0.0,necklace,baby carriage,40.0,80.0,necklace8,baby carriage11,40.0,80.0,Anecklace20.jpg,Baby_Carriage-2.jpg,/static/Category_learning/Stimuli/Experimental_stims/necklace/Anecklace20.jpg,/static/Category_learning/Stimuli/Experimental_stims/baby carriage/Baby_Carriage-2.jpg,0.0,baby carriage,necklace,80.0,40.0,baby carriage11,necklace8,80.0,40.0,0.0,124.83,0.33,,,,,,
160,,confirmation,,html-keyboard-response,160,112720,0.0-1.0-19.0-0.0-1.0-0.0,0,0,3,,,,,,17.0,,,,,,,,,,,,,,,,,,,,,,,,,,,,,,,,126.0,1.17,,,,,,
161,,isi,,html-keyboard-response,161,112827,0.0-1.0-19.0-0.0-2.0,0,0,3,,,,,,,,,,,,,,,,,,,,,,,,,,,,,,,,,,,,,,127.0,1.0,,,,,,
162,,feedback,,html-keyboard-response,162,113834,0.0-1.0-19.0-0.0-3.0-0.0,0,0,3,,,,,,17.0,,,,,,,,,,,,,,,,,,,,,,,,,,,,,,,,128.0,1.0,,,,,,
163,,iti,,html-keyboard-response,163,113937,0.0-1.0-19.0-0.0-5.0,0,0,3,,,,,,,,,,,,,,,,,,,,,,,,,,,,,,,,,,,,,,129.0,1.0,,,,,,
164,,choice,,html-keyboard-response,164,114450,0.0-1.0-20.0-0.0-0.0,0,0,3,,510.0,,,51.0,18.0,318.0,2000.0,2000.0,0.0,6.0,0.0,40-80,,1.0,flashlight,power strip,80.0,40.0,flashlight13,power strip2,100.0,60.0,834808_sk_lg.jpg,59d69605-c8c8-4899-bd98-2ef78045147e_300.jpg,/static/Category_learning/Stimuli/Experimental_stims/flashlight/834808_sk_lg.jpg,/static/Category_learning/Stimuli/Experimental_stims/power strip/59d69605-c8c8-4899-bd98-2ef78045147e_300.jpg,0.0,power strip,flashlight,40.0,80.0,power strip2,flashlight13,60.0,100.0,0.0,129.51,0.51,,,,,,
165,,confirmation,,html-keyboard-response,165,115444,0.0-1.0-20.0-0.0-1.0-0.0,0,0,3,,,,,,18.0,,,,,,,,,,,,,,,,,,,,,,,,,,,,,,,,130.5,0.99,,,,,,
166,,isi,,html-keyboard-response,166,115549,0.0-1.0-20.0-0.0-2.0,0,0,3,,,,,,,,,,,,,,,,,,,,,,,,,,,,,,,,,,,,,,132.5,2.0,,,,,,
167,,feedback,,html-keyboard-response,167,116555,0.0-1.0-20.0-0.0-3.0-0.0,0,0,3,,,,,,18.0,,,,,,,,,,,,,,,,,,,,,,,,,,,,,,,,133.5,1.0,,,,,,
168,,iti,,html-keyboard-response,168,116662,0.0-1.0-20.0-0.0-5.0,0,0,3,,,,,,,,,,,,,,,,,,,,,,,,,,,,,,,,,,,,,,135.5,2.0,,,,,,
169,,choice,,html-keyboard-response,169,117025,0.0-1.0-21.0-0.0-0.0,0,0,3,,359.0,,,50.0,19.0,319.0,2000.0,1000.0,0.0,6.0,0.0,60-60,,,stool,yarn,60.0,60.0,stool5,yarn6,80.0,80.0,ASTOOL23.jpg,edwardian moment hpy sml.jpg,/static/Category_learning/Stimuli/Experimental_stims/stool/ASTOOL23.jpg,/static/Category_learning/Stimuli/Experimental_stims/yarn/edwardian moment hpy sml.jpg,1.0,stool,yarn,60.0,60.0,stool5,yarn6,80.0,80.0,0.0,135.859,0.359,,,,,,
170,,confirmation,,html-keyboard-response,170,118171,0.0-1.0-21.0-0.0-1.0-0.0,0,0,3,,,,,,19.0,,,,,,,,,,,,,,,,,,,,,,,,,,,,,,,,137.0,1.141,,,,,,
171,,isi,,html-keyboard-response,171,118277,0.0-1.0-21.0-0.0-2.0,0,0,3,,,,,,,,,,,,,,,,,,,,,,,,,,,,,,,,,,,,,,139.0,2.0,,,,,,
172,,feedback,,html-keyboard-response,172,119282,0.0-1.0-21.0-0.0-3.0-0.0,0,0,3,,,,,,19.0,,,,,,,,,,,,,,,,,,,,,,,,,,,,,,,,140.0,1.0,,,,,,
173,,iti,,html-keyboard-response,173,119387,0.0-1.0-21.0-0.0-5.0,0,0,3,,,,,,,,,,,,,,,,,,,,,,,,,,,,,,,,,,,,,,141.0,1.0,,,,,,
174,,choice,,html-keyboard-response,174,120483,0.0-1.0-22.0-0.0-0.0,0,0,3,,1093.0,,,51.0,20.0,320.0,1500.0,1500.0,0.0,6.0,0.0,20-80,,0.0,makeup compact,door knob,20.0,80.0,makeup compact13,door knob15,20.0,100.0,31YfapjS3TL._AA250_.jpg,Legacy_oval.jpg,/static/Category_learning/Stimuli/Experimental_stims/makeup compact/31YfapjS3TL._AA250_.jpg,/static/Category_learning/Stimuli/Experimental_stims/door knob/Legacy_oval.jpg,0.0,door knob,makeup compact,80.0,20.0,door knob15,makeup compact13,100.0,20.0,0.0,142.093,1.093,,,,,,
175,,confirmation,,html-keyboard-response,175,120896,0.0-1.0-22.0-0.0-1.0-0.0,0,0,3,,,,,,20.0,,,,,,,,,,,,,,,,,,,,,,,,,,,,,,,,142.5,0.407,,,,,,
176,,isi,,html-keyboard-response,176,121000,0.0-1.0-22.0-0.0-2.0,0,0,3,,,,,,,,,,,,,,,,,,,,,,,,,,,,,,,,,,,,,,144.0,1.5,,,,,,
177,,feedback,,html-keyboard-response,177,122006,0.0-1.0-22.0-0.0-3.0-0.0,0,0,3,,,,,,20.0,,,,,,,,,,,,,,,,,,,,,,,,,,,,,,,,145.0,1.0,,,,,,
178,,iti,,html-keyboard-response,178,122112,0.0-1.0-22.0-0.0-5.0,0,0,3,,,,,,,,,,,,,,,,,,,,,,,,,,,,,,,,,,,,,,146.5,1.5,,,,,,
179,,choice,,html-keyboard-response,179,122332,0.0-1.0-23.0-0.0-0.0,0,0,3,,216.0,,,51.0,21.0,321.0,1500.0,2000.0,0.0,6.0,1.0,20-80,0.0,,hat,baby carriage,20.0,80.0,hat8,baby carriage11,20.0,80.0,ABLUEHAT.jpg,Baby_Carriage-2.jpg,/static/Category_learning/Stimuli/Experimental_stims/hat/ABLUEHAT.jpg,/static/Category_learning/Stimuli/Experimental_stims/baby carriage/Baby_Carriage-2.jpg,0.0,baby carriage,hat,80.0,20.0,baby carriage11,hat8,80.0,20.0,0.0,146.716,0.216,,,,,,
180,,confirmation,,html-keyboard-response,180,123622,0.0-1.0-23.0-0.0-1.0-0.0,0,0,3,,,,,,21.0,,,,,,,,,,,,,,,,,,,,,,,,,,,,,,,,148.0,1.284,,,,,,
181,,isi,,html-keyboard-response,181,123729,0.0-1.0-23.0-0.0-2.0,0,0,3,,,,,,,,,,,,,,,,,,,,,,,,,,,,,,,,,,,,,,149.5,1.5,,,,,,
182,,feedback,,html-keyboard-response,182,124737,0.0-1.0-23.0-0.0-3.0-0.0,0,0,3,,,,,,21.0,,,,,,,,,,,,,,,,,,,,,,,,,,,,,,,,150.5,1.0,,,,,,
183,,iti,,html-keyboard-response,183,124843,0.0-1.0-23.0-0.0-5.0,0,0,3,,,,,,,,,,,,,,,,,,,,,,,,,,,,,,,,,,,,,,152.5,2.0,,,,,,
184,,choice,,html-keyboard-response,184,124963,0.0-1.0-24.0-0.0-0.0,0,0,3,,117.0,,,51.0,22.0,322.0,3500.0,1000.0,0.0,6.0,0.0,60-80,,1.0,baby carriage,vase,80.0,60.0,baby carriage15,vase1,100.0,80.0,AANBABYC2.jpg,Avase114.jpg,/static/Category_learning/Stimuli/Experimental_stims/baby carriage/AANBABYC2.jpg,/static/Category_learning/Stimuli/Experimental_stims/vase/Avase114.jpg,0.0,vase,baby carriage,60.0,80.0,vase1,baby carriage15,80.0,100.0,0.0,152.617,0.117,,,,,,
185,,confirmation,,html-keyboard-response,185,126353,0.0-1.0-24.0-0.0-1.0-0.0,0,0,3,,,,,,22.0,,,,,,,,,,,,,,,,,,,,,,,,,,,,,,,,154.0,1.383,,,,,,
186,,isi,,html-keyboard-response,186,126459,0.0-1.0-24.0-0.0-2.0,0,0,3,,,,,,,,,,,,,,,,,,,,,,,,,,,,,,,,,,,,,,157.5,3.5,,,,,,
187,,feedback,,html-keyboard-response,187,127467,0.0-1.0-24.0-0.0-3.0-0.0,0,0,3,,,,,,22.0,,,,,,,,,,,,,,,,,,,,,,,,,,,,,,,,158.5,1.0,,,,,,
188,,iti,,html-keyboard-response,188,127574,0.0-1.0-24.0-0.0-5.0,0,0,3,,,,,,,,,,,,,,,,,,,,,,,,,,,,,,,,,,,,,,159.5,1.0,,,,,,
189,,choice,,html-keyboard-response,189,127922,0.0-1.0-25.0-0.0-0.0,0,0,3,,345.0,,,50.0,23.0,323.0,1500.0,2000.0,0.0,6.0,0.0,20-60,,0.0,frame,telescope,20.0,60.0,frame14,telescope11,20.0,60.0,AFRAME129.jpg,digimarc.ms03.jpg,/static/Category_learning/Stimuli/Experimental_stims/frame/AFRAME129.jpg,/static/Category_learning/Stimuli/Experimental_stims/telescope/digimarc.ms03.jpg,1.0,frame,telescope,20.0,60.0,frame14,telescope11,20.0,60.0,0.0,159.845,0.345,,,,,,
190,,confirmation,,html-keyboard-response,190,129083,0.0-1.0-25.0-0.0-1.0-0.0,0,0,3,,,,,,23.0,,,,,,,,,,,,,,,,,,,,,,,,,,,,,,,,161.0,1.155,,,,,,
191,,isi,,html-keyboard-response,191,129190,0.0-1.0-25.0-0.0-2.0,0,0,3,,,,,,,,,,,,,,,,,,,,,,,,,,,,,,,,,,,,,,162.5,1.5,,,,,,
192,,feedback,,html-keyboard-response,192,130198,0.0-1.0-25.0-0.0-3.0-0.0,0,0,3,,,,,,23.0,,,,,,,,,,,,,,,,,,,,,,,,,,,,,,,,163.5,1.0,,,,,,
193,,iti,,html-keyboard-response,193,130305,0.0-1.0-25.0-0.0-5.0,0,0,3,,,,,,,,,,,,,,,,,,,,,,,,,,,,,,,,,,,,,,165.5,2.0,,,,,,
194,,choice,,html-keyboard-response,194,130644,0.0-1.0-26.0-0.0-0.0,0,0,3,,336.0,,,50.0,24.0,324.0,3000.0,1500.0,0.0,6.0,0.0,20-20,,,license plate,lipstick,20.0,20.0,license plate11,lipstick13,20.0,40.0,az-942-atg.jpg,P184708_hero.jpg,/static/Category_learning/Stimuli/Experimental_stims/license plate/az-942-atg.jpg,/static/Category_learning/Stimuli/Experimental_stims/lipstick/P184708_hero.jpg,1.0,license plate,lipstick,20.0,20.0,license plate11,lipstick13,20.0,40.0,0.0,165.836,0.336,,,,,,
195,,confirmation,,html-keyboard-response,195,131815,0.0-1.0-26.0-0.0-1.0-0.0,0,0,3,,,,,,24.0,,,,,,,,,,,,,,,,,,,,,,,,,,,,,,,,167.0,1.164,,,,,,
196,,isi,,html-keyboard-response,196,131919,0.0-1.0-26.0-0.0-2.0,0,0,3,,,,,,,,,,,,,,,,,,,,,,,,,,,,,,,,,,,,,,170.0,3.0,,,,,,
197,,feedback,,html-keyboard-response,197,132924,0.0-1.0-26.0-0.0-3.0-0.0,0,0,3,,,,,,24.0,,,,,,,,,,,,,,,,,,,,,,,,,,,,,,,,171.0,1.0,,,,,,
198,,iti,,html-keyboard-response,198,133031,0.0-1.0-26.0-0.0-5.0,0,0,3,,,,,,,,,,,,,,,,,,,,,,,,,,,,,,,,,,,,,,172.5,1.5,,,,,,
199,,choice,,html-keyboard-response,199,134539,0.0-1.0-27.0-0.0-0.0,0,0,3,,,,,,25.0,325.0,1500.0,1500.0,0.0,6.0,0.0,80-80,,,flashlight,dresser,80.0,80.0,flashlight5,dresser4,80.0,100.0,Streamlight-71001-Jr-Flashlight-W-batteries-black-B00018A3CG-L.jpg,ADRESSE40.jpg,/static/Category_learning/Stimuli/Experimental_stims/flashlight/Streamlight-71001-Jr-Flashlight-W-batteries-black-B00018A3CG-L.jpg,/static/Category_learning/Stimuli/Experimental_stims/dresser/ADRESSE40.jpg,,,,,,,,,,1.0,174.0,1.5,,,,,,
200,,isi,,html-keyboard-response,200,134646,0.0-1.0-27.0-0.0-2.0,0,0,3,,,,,,,,,,,,,,,,,,,,,,,,,,,,,,,,,,,,,,175.5,1.5,,,,,,
201,,no_response,,html-keyboard-response,201,135649,0.0-1.0-27.0-0.0-4.0-0.0,1,0,3,,,,,,,,,,,,,,,,,,,,,,,,,,,,,,,,,,,,,,176.5,1.0,,,,,,
202,,iti,,html-keyboard-response,202,135771,0.0-1.0-27.0-0.0-5.0,0,0,3,,,,,,,,,,,,,,,,,,,,,,,,,,,,,,,,,,,,,,178.0,1.5,,,,,,
203,,choice,,html-keyboard-response,203,137275,0.0-1.0-27.0-0.1-0.1,0,0,3,,,,,,25.0,325.0,1500.0,1500.0,0.0,6.0,0.0,80-80,,,flashlight,dresser,80.0,80.0,flashlight5,dresser4,80.0,100.0,Streamlight-71001-Jr-Flashlight-W-batteries-black-B00018A3CG-L.jpg,ADRESSE40.jpg,/static/Category_learning/Stimuli/Experimental_stims/flashlight/Streamlight-71001-Jr-Flashlight-W-batteries-black-B00018A3CG-L.jpg,/static/Category_learning/Stimuli/Experimental_stims/dresser/ADRESSE40.jpg,,,,,,,,,,1.0,179.5,1.5,,,,,,
204,,isi,,html-keyboard-response,204,137382,0.0-1.0-27.0-0.1-2.1,0,0,3,,,,,,,,,,,,,,,,,,,,,,,,,,,,,,,,,,,,,,180.5,1.0,,,,,,
205,,no_response,,html-keyboard-response,205,138385,0.0-1.0-27.0-0.1-4.1-0.1,1,0,3,,,,,,,,,,,,,,,,,,,,,,,,,,,,,,,,,,,,,,181.5,1.0,,,,,,
206,,iti,,html-keyboard-response,206,138507,0.0-1.0-27.0-0.1-5.1,0,0,3,,,,,,,,,,,,,,,,,,,,,,,,,,,,,,,,,,,,,,183.0,1.5,,,,,,
207,,choice,,html-keyboard-response,207,140011,0.0-1.0-27.0-0.2-0.2,0,0,3,,,,,,25.0,325.0,1500.0,1500.0,0.0,6.0,0.0,80-80,,,flashlight,dresser,80.0,80.0,flashlight5,dresser4,80.0,100.0,Streamlight-71001-Jr-Flashlight-W-batteries-black-B00018A3CG-L.jpg,ADRESSE40.jpg,/static/Category_learning/Stimuli/Experimental_stims/flashlight/Streamlight-71001-Jr-Flashlight-W-batteries-black-B00018A3CG-L.jpg,/static/Category_learning/Stimuli/Experimental_stims/dresser/ADRESSE40.jpg,,,,,,,,,,1.0,184.5,1.5,,,,,,
208,,isi,,html-keyboard-response,208,140118,0.0-1.0-27.0-0.2-2.2,0,0,3,,,,,,,,,,,,,,,,,,,,,,,,,,,,,,,,,,,,,,185.5,1.0,,,,,,
209,,no_response,,html-keyboard-response,209,141121,0.0-1.0-27.0-0.2-4.2-0.2,1,0,3,,,,,,,,,,,,,,,,,,,,,,,,,,,,,,,,,,,,,,186.5,1.0,,,,,,
210,,iti,,html-keyboard-response,210,141238,0.0-1.0-27.0-0.2-5.2,0,0,3,,,,,,,,,,,,,,,,,,,,,,,,,,,,,,,,,,,,,,187.5,1.0,,,,,,
211,,choice,,html-keyboard-response,211,142742,0.0-1.0-27.0-0.3-0.3,0,0,3,,,,,,25.0,325.0,1500.0,1500.0,0.0,6.0,0.0,80-80,,,flashlight,dresser,80.0,80.0,flashlight5,dresser4,80.0,100.0,Streamlight-71001-Jr-Flashlight-W-batteries-black-B00018A3CG-L.jpg,ADRESSE40.jpg,/static/Category_learning/Stimuli/Experimental_stims/flashlight/Streamlight-71001-Jr-Flashlight-W-batteries-black-B00018A3CG-L.jpg,/static/Category_learning/Stimuli/Experimental_stims/dresser/ADRESSE40.jpg,,,,,,,,,,1.0,189.0,1.5,,,,,,
212,,isi,,html-keyboard-response,212,142849,0.0-1.0-27.0-0.3-2.3,0,0,3,,,,,,,,,,,,,,,,,,,,,,,,,,,,,,,,,,,,,,190.0,1.0,,,,,,
213,,no_response,,html-keyboard-response,213,143851,0.0-1.0-27.0-0.3-4.3-0.3,1,0,3,,,,,,,,,,,,,,,,,,,,,,,,,,,,,,,,,,,,,,191.0,1.0,,,,,,
214,,iti,,html-keyboard-response,214,143969,0.0-1.0-27.0-0.3-5.3,0,0,3,,,,,,,,,,,,,,,,,,,,,,,,,,,,,,,,,,,,,,193.0,2.0,,,,,,
215,,choice,,html-keyboard-response,215,145473,0.0-1.0-27.0-0.4-0.4,0,0,3,,,,,,25.0,325.0,1500.0,1500.0,0.0,6.0,0.0,80-80,,,flashlight,dresser,80.0,80.0,flashlight5,dresser4,80.0,100.0,Streamlight-71001-Jr-Flashlight-W-batteries-black-B00018A3CG-L.jpg,ADRESSE40.jpg,/static/Category_learning/Stimuli/Experimental_stims/flashlight/Streamlight-71001-Jr-Flashlight-W-batteries-black-B00018A3CG-L.jpg,/static/Category_learning/Stimuli/Experimental_stims/dresser/ADRESSE40.jpg,,,,,,,,,,1.0,194.5,1.5,,,,,,
216,,isi,,html-keyboard-response,216,145579,0.0-1.0-27.0-0.4-2.4,0,0,3,,,,,,,,,,,,,,,,,,,,,,,,,,,,,,,,,,,,,,198.0,3.5,,,,,,
217,,no_response,,html-keyboard-response,217,146585,0.0-1.0-27.0-0.4-4.4-0.4,1,0,3,,,,,,,,,,,,,,,,,,,,,,,,,,,,,,,,,,,,,,199.0,1.0,,,,,,
218,,iti,,html-keyboard-response,218,146699,0.0-1.0-27.0-0.4-5.4,0,0,3,,,,,,,,,,,,,,,,,,,,,,,,,,,,,,,,,,,,,,202.5,3.5,,,,,,
219,,choice,,html-keyboard-response,219,148204,0.0-1.0-27.0-0.5-0.5,0,0,3,,,,,,25.0,325.0,1500.0,1500.0,0.0,6.0,0.0,80-80,,,flashlight,dresser,80.0,80.0,flashlight5,dresser4,80.0,100.0,Streamlight-71001-Jr-Flashlight-W-batteries-black-B00018A3CG-L.jpg,ADRESSE40.jpg,/static/Category_learning/Stimuli/Experimental_stims/flashlight/Streamlight-71001-Jr-Flashlight-W-batteries-black-B00018A3CG-L.jpg,/static/Category_learning/Stimuli/Experimental_stims/dresser/ADRESSE40.jpg,,,,,,,,,,1.0,204.0,1.5,,,,,,
220,,isi,,html-keyboard-response,220,148310,0.0-1.0-27.0-0.5-2.5,0,0,3,,,,,,,,,,,,,,,,,,,,,,,,,,,,,,,,,,,,,,205.0,1.0,,,,,,
221,,no_response,,html-keyboard-response,221,149318,0.0-1.0-27.0-0.5-4.5-0.5,1,0,3,,,,,,,,,,,,,,,,,,,,,,,,,,,,,,,,,,,,,,206.0,1.0,,,,,,
222,,iti,,html-keyboard-response,222,149436,0.0-1.0-27.0-0.5-5.5,0,0,3,,,,,,,,,,,,,,,,,,,,,,,,,,,,,,,,,,,,,,207.0,1.0,,,,,,
223,,choice,,html-keyboard-response,223,150940,0.0-1.0-27.0-0.6-0.6,0,0,3,,,,,,25.0,325.0,1500.0,1500.0,0.0,6.0,0.0,80-80,,,flashlight,dresser,80.0,80.0,flashlight5,dresser4,80.0,100.0,Streamlight-71001-Jr-Flashlight-W-batteries-black-B00018A3CG-L.jpg,ADRESSE40.jpg,/static/Category_learning/Stimuli/Experimental_stims/flashlight/Streamlight-71001-Jr-Flashlight-W-batteries-black-B00018A3CG-L.jpg,/static/Category_learning/Stimuli/Experimental_stims/dresser/ADRESSE40.jpg,,,,,,,,,,1.0,208.5,1.5,,,,,,
224,,isi,,html-keyboard-response,224,151046,0.0-1.0-27.0-0.6-2.6,0,0,3,,,,,,,,,,,,,,,,,,,,,,,,,,,,,,,,,,,,,,210.0,1.5,,,,,,
225,,no_response,,html-keyboard-response,225,152049,0.0-1.0-27.0-0.6-4.6-0.6,1,0,3,,,,,,,,,,,,,,,,,,,,,,,,,,,,,,,,,,,,,,211.0,1.0,,,,,,
226,,iti,,html-keyboard-response,226,152172,0.0-1.0-27.0-0.6-5.6,0,0,3,,,,,,,,,,,,,,,,,,,,,,,,,,,,,,,,,,,,,,212.5,1.5,,,,,,
227,,choice,,html-keyboard-response,227,153677,0.0-1.0-27.0-0.7-0.7,0,0,3,,,,,,25.0,325.0,1500.0,1500.0,0.0,6.0,0.0,80-80,,,flashlight,dresser,80.0,80.0,flashlight5,dresser4,80.0,100.0,Streamlight-71001-Jr-Flashlight-W-batteries-black-B00018A3CG-L.jpg,ADRESSE40.jpg,/static/Category_learning/Stimuli/Experimental_stims/flashlight/Streamlight-71001-Jr-Flashlight-W-batteries-black-B00018A3CG-L.jpg,/static/Category_learning/Stimuli/Experimental_stims/dresser/ADRESSE40.jpg,,,,,,,,,,1.0,214.0,1.5,,,,,,
228,,isi,,html-keyboard-response,228,153783,0.0-1.0-27.0-0.7-2.7,0,0,3,,,,,,,,,,,,,,,,,,,,,,,,,,,,,,,,,,,,,,216.0,2.0,,,,,,
229,,no_response,,html-keyboard-response,229,154790,0.0-1.0-27.0-0.7-4.7-0.7,1,0,3,,,,,,,,,,,,,,,,,,,,,,,,,,,,,,,,,,,,,,217.0,1.0,,,,,,
230,,iti,,html-keyboard-response,230,154913,0.0-1.0-27.0-0.7-5.7,0,0,3,,,,,,,,,,,,,,,,,,,,,,,,,,,,,,,,,,,,,,218.5,1.5,,,,,,
231,,choice,,html-keyboard-response,231,156421,0.0-1.0-27.0-0.8-0.8,0,0,3,,,,,,25.0,325.0,1500.0,1500.0,0.0,6.0,0.0,80-80,,,flashlight,dresser,80.0,80.0,flashlight5,dresser4,80.0,100.0,Streamlight-71001-Jr-Flashlight-W-batteries-black-B00018A3CG-L.jpg,ADRESSE40.jpg,/static/Category_learning/Stimuli/Experimental_stims/flashlight/Streamlight-71001-Jr-Flashlight-W-batteries-black-B00018A3CG-L.jpg,/static/Category_learning/Stimuli/Experimental_stims/dresser/ADRESSE40.jpg,,,,,,,,,,1.0,220.0,1.5,,,,,,
232,,isi,,html-keyboard-response,232,156529,0.0-1.0-27.0-0.8-2.8,0,0,3,,,,,,,,,,,,,,,,,,,,,,,,,,,,,,,,,,,,,,222.0,2.0,,,,,,
233,,no_response,,html-keyboard-response,233,157532,0.0-1.0-27.0-0.8-4.8-0.8,1,0,3,,,,,,,,,,,,,,,,,,,,,,,,,,,,,,,,,,,,,,223.0,1.0,,,,,,
234,,iti,,html-keyboard-response,234,157649,0.0-1.0-27.0-0.8-5.8,0,0,3,,,,,,,,,,,,,,,,,,,,,,,,,,,,,,,,,,,,,,224.0,1.0,,,,,,
235,,choice,,html-keyboard-response,235,159153,0.0-1.0-27.0-0.9-0.9,0,0,3,,,,,,25.0,325.0,1500.0,1500.0,0.0,6.0,0.0,80-80,,,flashlight,dresser,80.0,80.0,flashlight5,dresser4,80.0,100.0,Streamlight-71001-Jr-Flashlight-W-batteries-black-B00018A3CG-L.jpg,ADRESSE40.jpg,/static/Category_learning/Stimuli/Experimental_stims/flashlight/Streamlight-71001-Jr-Flashlight-W-batteries-black-B00018A3CG-L.jpg,/static/Category_learning/Stimuli/Experimental_stims/dresser/ADRESSE40.jpg,,,,,,,,,,1.0,225.5,1.5,,,,,,
236,,isi,,html-keyboard-response,236,159259,0.0-1.0-27.0-0.9-2.9,0,0,3,,,,,,,,,,,,,,,,,,,,,,,,,,,,,,,,,,,,,,227.0,1.5,,,,,,
237,,no_response,,html-keyboard-response,237,160266,0.0-1.0-27.0-0.9-4.9-0.9,1,0,3,,,,,,,,,,,,,,,,,,,,,,,,,,,,,,,,,,,,,,228.0,1.0,,,,,,
238,,iti,,html-keyboard-response,238,160384,0.0-1.0-27.0-0.9-5.9,0,0,3,,,,,,,,,,,,,,,,,,,,,,,,,,,,,,,,,,,,,,231.0,3.0,,,,,,
239,,choice,,html-keyboard-response,239,161889,0.0-1.0-27.0-0.10-0.10,0,0,3,,,,,,25.0,325.0,1500.0,1500.0,0.0,6.0,0.0,80-80,,,flashlight,dresser,80.0,80.0,flashlight5,dresser4,80.0,100.0,Streamlight-71001-Jr-Flashlight-W-batteries-black-B00018A3CG-L.jpg,ADRESSE40.jpg,/static/Category_learning/Stimuli/Experimental_stims/flashlight/Streamlight-71001-Jr-Flashlight-W-batteries-black-B00018A3CG-L.jpg,/static/Category_learning/Stimuli/Experimental_stims/dresser/ADRESSE40.jpg,,,,,,,,,,1.0,232.5,1.5,,,,,,
240,,isi,,html-keyboard-response,240,161996,0.0-1.0-27.0-0.10-2.10,0,0,3,,,,,,,,,,,,,,,,,,,,,,,,,,,,,,,,,,,,,,235.5,3.0,,,,,,
241,,no_response,,html-keyboard-response,241,163000,0.0-1.0-27.0-0.10-4.10-0.10,1,0,3,,,,,,,,,,,,,,,,,,,,,,,,,,,,,,,,,,,,,,236.5,1.0,,,,,,
242,,iti,,html-keyboard-response,242,163116,0.0-1.0-27.0-0.10-5.10,0,0,3,,,,,,,,,,,,,,,,,,,,,,,,,,,,,,,,,,,,,,238.5,2.0,,,,,,
243,,choice,,html-keyboard-response,243,164620,0.0-1.0-27.0-0.11-0.11,0,0,3,,,,,,25.0,325.0,1500.0,1500.0,0.0,6.0,0.0,80-80,,,flashlight,dresser,80.0,80.0,flashlight5,dresser4,80.0,100.0,Streamlight-71001-Jr-Flashlight-W-batteries-black-B00018A3CG-L.jpg,ADRESSE40.jpg,/static/Category_learning/Stimuli/Experimental_stims/flashlight/Streamlight-71001-Jr-Flashlight-W-batteries-black-B00018A3CG-L.jpg,/static/Category_learning/Stimuli/Experimental_stims/dresser/ADRESSE40.jpg,,,,,,,,,,1.0,240.0,1.5,,,,,,
244,,isi,,html-keyboard-response,244,164727,0.0-1.0-27.0-0.11-2.11,0,0,3,,,,,,,,,,,,,,,,,,,,,,,,,,,,,,,,,,,,,,241.0,1.0,,,,,,
245,,no_response,,html-keyboard-response,245,165733,0.0-1.0-27.0-0.11-4.11-0.11,1,0,3,,,,,,,,,,,,,,,,,,,,,,,,,,,,,,,,,,,,,,242.0,1.0,,,,,,
246,,iti,,html-keyboard-response,246,165851,0.0-1.0-27.0-0.11-5.11,0,0,3,,,,,,,,,,,,,,,,,,,,,,,,,,,,,,,,,,,,,,245.0,3.0,,,,,,
247,,choice,,html-keyboard-response,247,167358,0.0-1.0-27.0-0.12-0.12,0,0,3,,,,,,25.0,325.0,1500.0,1500.0,0.0,6.0,0.0,80-80,,,flashlight,dresser,80.0,80.0,flashlight5,dresser4,80.0,100.0,Streamlight-71001-Jr-Flashlight-W-batteries-black-B00018A3CG-L.jpg,ADRESSE40.jpg,/static/Category_learning/Stimuli/Experimental_stims/flashlight/Streamlight-71001-Jr-Flashlight-W-batteries-black-B00018A3CG-L.jpg,/static/Category_learning/Stimuli/Experimental_stims/dresser/ADRESSE40.jpg,,,,,,,,,,1.0,246.5,1.5,,,,,,
248,,isi,,html-keyboard-response,248,167462,0.0-1.0-27.0-0.12-2.12,0,0,3,,,,,,,,,,,,,,,,,,,,,,,,,,,,,,,,,,,,,,247.5,1.0,,,,,,
249,,no_response,,html-keyboard-response,249,168466,0.0-1.0-27.0-0.12-4.12-0.12,1,0,3,,,,,,,,,,,,,,,,,,,,,,,,,,,,,,,,,,,,,,248.5,1.0,,,,,,
250,,iti,,html-keyboard-response,250,168583,0.0-1.0-27.0-0.12-5.12,0,0,3,,,,,,,,,,,,,,,,,,,,,,,,,,,,,,,,,,,,,,250.5,2.0,,,,,,
251,,choice,,html-keyboard-response,251,170092,0.0-1.0-27.0-0.13-0.13,0,0,3,,,,,,25.0,325.0,1500.0,1500.0,0.0,6.0,0.0,80-80,,,flashlight,dresser,80.0,80.0,flashlight5,dresser4,80.0,100.0,Streamlight-71001-Jr-Flashlight-W-batteries-black-B00018A3CG-L.jpg,ADRESSE40.jpg,/static/Category_learning/Stimuli/Experimental_stims/flashlight/Streamlight-71001-Jr-Flashlight-W-batteries-black-B00018A3CG-L.jpg,/static/Category_learning/Stimuli/Experimental_stims/dresser/ADRESSE40.jpg,,,,,,,,,,1.0,252.0,1.5,,,,,,
252,,isi,,html-keyboard-response,252,170199,0.0-1.0-27.0-0.13-2.13,0,0,3,,,,,,,,,,,,,,,,,,,,,,,,,,,,,,,,,,,,,,253.0,1.0,,,,,,
253,,no_response,,html-keyboard-response,253,171207,0.0-1.0-27.0-0.13-4.13-0.13,1,0,3,,,,,,,,,,,,,,,,,,,,,,,,,,,,,,,,,,,,,,254.0,1.0,,,,,,
254,,iti,,html-keyboard-response,254,171324,0.0-1.0-27.0-0.13-5.13,0,0,3,,,,,,,,,,,,,,,,,,,,,,,,,,,,,,,,,,,,,,255.0,1.0,,,,,,
255,,choice,,html-keyboard-response,255,172828,0.0-1.0-27.0-0.14-0.14,0,0,3,,,,,,25.0,325.0,1500.0,1500.0,0.0,6.0,0.0,80-80,,,flashlight,dresser,80.0,80.0,flashlight5,dresser4,80.0,100.0,Streamlight-71001-Jr-Flashlight-W-batteries-black-B00018A3CG-L.jpg,ADRESSE40.jpg,/static/Category_learning/Stimuli/Experimental_stims/flashlight/Streamlight-71001-Jr-Flashlight-W-batteries-black-B00018A3CG-L.jpg,/static/Category_learning/Stimuli/Experimental_stims/dresser/ADRESSE40.jpg,,,,,,,,,,1.0,256.5,1.5,,,,,,
256,,isi,,html-keyboard-response,256,172935,0.0-1.0-27.0-0.14-2.14,0,0,3,,,,,,,,,,,,,,,,,,,,,,,,,,,,,,,,,,,,,,258.0,1.5,,,,,,
257,,no_response,,html-keyboard-response,257,173938,0.0-1.0-27.0-0.14-4.14-0.14,1,0,3,,,,,,,,,,,,,,,,,,,,,,,,,,,,,,,,,,,,,,259.0,1.0,,,,,,
258,,iti,,html-keyboard-response,258,174063,0.0-1.0-27.0-0.14-5.14,0,0,3,,,,,,,,,,,,,,,,,,,,,,,,,,,,,,,,,,,,,,260.0,1.0,,,,,,
259,,choice,,html-keyboard-response,259,175569,0.0-1.0-27.0-0.15-0.15,0,0,3,,,,,,25.0,325.0,1500.0,1500.0,0.0,6.0,0.0,80-80,,,flashlight,dresser,80.0,80.0,flashlight5,dresser4,80.0,100.0,Streamlight-71001-Jr-Flashlight-W-batteries-black-B00018A3CG-L.jpg,ADRESSE40.jpg,/static/Category_learning/Stimuli/Experimental_stims/flashlight/Streamlight-71001-Jr-Flashlight-W-batteries-black-B00018A3CG-L.jpg,/static/Category_learning/Stimuli/Experimental_stims/dresser/ADRESSE40.jpg,,,,,,,,,,1.0,261.5,1.5,,,,,,
260,,isi,,html-keyboard-response,260,175676,0.0-1.0-27.0-0.15-2.15,0,0,3,,,,,,,,,,,,,,,,,,,,,,,,,,,,,,,,,,,,,,263.5,2.0,,,,,,
261,,no_response,,html-keyboard-response,261,176683,0.0-1.0-27.0-0.15-4.15-0.15,1,0,3,,,,,,,,,,,,,,,,,,,,,,,,,,,,,,,,,,,,,,264.5,1.0,,,,,,
262,,iti,,html-keyboard-response,262,176801,0.0-1.0-27.0-0.15-5.15,0,0,3,,,,,,,,,,,,,,,,,,,,,,,,,,,,,,,,,,,,,,268.0,3.5,,,,,,
263,,choice,,html-keyboard-response,263,178309,0.0-1.0-27.0-0.16-0.16,0,0,3,,,,,,25.0,325.0,1500.0,1500.0,0.0,6.0,0.0,80-80,,,flashlight,dresser,80.0,80.0,flashlight5,dresser4,80.0,100.0,Streamlight-71001-Jr-Flashlight-W-batteries-black-B00018A3CG-L.jpg,ADRESSE40.jpg,/static/Category_learning/Stimuli/Experimental_stims/flashlight/Streamlight-71001-Jr-Flashlight-W-batteries-black-B00018A3CG-L.jpg,/static/Category_learning/Stimuli/Experimental_stims/dresser/ADRESSE40.jpg,,,,,,,,,,1.0,269.5,1.5,,,,,,
264,,isi,,html-keyboard-response,264,178417,0.0-1.0-27.0-0.16-2.16,0,0,3,,,,,,,,,,,,,,,,,,,,,,,,,,,,,,,,,,,,,,270.5,1.0,,,,,,
265,,no_response,,html-keyboard-response,265,179422,0.0-1.0-27.0-0.16-4.16-0.16,1,0,3,,,,,,,,,,,,,,,,,,,,,,,,,,,,,,,,,,,,,,271.5,1.0,,,,,,
266,,iti,,html-keyboard-response,266,179537,0.0-1.0-27.0-0.16-5.16,0,0,3,,,,,,,,,,,,,,,,,,,,,,,,,,,,,,,,,,,,,,272.5,1.0,,,,,,
267,,choice,,html-keyboard-response,267,181042,0.0-1.0-27.0-0.17-0.17,0,0,3,,,,,,25.0,325.0,1500.0,1500.0,0.0,6.0,0.0,80-80,,,flashlight,dresser,80.0,80.0,flashlight5,dresser4,80.0,100.0,Streamlight-71001-Jr-Flashlight-W-batteries-black-B00018A3CG-L.jpg,ADRESSE40.jpg,/static/Category_learning/Stimuli/Experimental_stims/flashlight/Streamlight-71001-Jr-Flashlight-W-batteries-black-B00018A3CG-L.jpg,/static/Category_learning/Stimuli/Experimental_stims/dresser/ADRESSE40.jpg,,,,,,,,,,1.0,274.0,1.5,,,,,,
268,,isi,,html-keyboard-response,268,181148,0.0-1.0-27.0-0.17-2.17,0,0,3,,,,,,,,,,,,,,,,,,,,,,,,,,,,,,,,,,,,,,277.5,3.5,,,,,,
269,,no_response,,html-keyboard-response,269,182156,0.0-1.0-27.0-0.17-4.17-0.17,1,0,3,,,,,,,,,,,,,,,,,,,,,,,,,,,,,,,,,,,,,,278.5,1.0,,,,,,
270,,iti,,html-keyboard-response,270,182273,0.0-1.0-27.0-0.17-5.17,0,0,3,,,,,,,,,,,,,,,,,,,,,,,,,,,,,,,,,,,,,,279.5,1.0,,,,,,
271,,choice,,html-keyboard-response,271,183778,0.0-1.0-27.0-0.18-0.18,0,0,3,,,,,,25.0,325.0,1500.0,1500.0,0.0,6.0,0.0,80-80,,,flashlight,dresser,80.0,80.0,flashlight5,dresser4,80.0,100.0,Streamlight-71001-Jr-Flashlight-W-batteries-black-B00018A3CG-L.jpg,ADRESSE40.jpg,/static/Category_learning/Stimuli/Experimental_stims/flashlight/Streamlight-71001-Jr-Flashlight-W-batteries-black-B00018A3CG-L.jpg,/static/Category_learning/Stimuli/Experimental_stims/dresser/ADRESSE40.jpg,,,,,,,,,,1.0,281.0,1.5,,,,,,
272,,isi,,html-keyboard-response,272,183884,0.0-1.0-27.0-0.18-2.18,0,0,3,,,,,,,,,,,,,,,,,,,,,,,,,,,,,,,,,,,,,,282.0,1.0,,,,,,
273,,no_response,,html-keyboard-response,273,184891,0.0-1.0-27.0-0.18-4.18-0.18,1,0,3,,,,,,,,,,,,,,,,,,,,,,,,,,,,,,,,,,,,,,283.0,1.0,,,,,,
274,,iti,,html-keyboard-response,274,185009,0.0-1.0-27.0-0.18-5.18,0,0,3,,,,,,,,,,,,,,,,,,,,,,,,,,,,,,,,,,,,,,284.0,1.0,,,,,,
275,,choice,,html-keyboard-response,275,186517,0.0-1.0-27.0-0.19-0.19,0,0,3,,,,,,25.0,325.0,1500.0,1500.0,0.0,6.0,0.0,80-80,,,flashlight,dresser,80.0,80.0,flashlight5,dresser4,80.0,100.0,Streamlight-71001-Jr-Flashlight-W-batteries-black-B00018A3CG-L.jpg,ADRESSE40.jpg,/static/Category_learning/Stimuli/Experimental_stims/flashlight/Streamlight-71001-Jr-Flashlight-W-batteries-black-B00018A3CG-L.jpg,/static/Category_learning/Stimuli/Experimental_stims/dresser/ADRESSE40.jpg,,,,,,,,,,1.0,285.5,1.5,,,,,,
276,,isi,,html-keyboard-response,276,186626,0.0-1.0-27.0-0.19-2.19,0,0,3,,,,,,,,,,,,,,,,,,,,,,,,,,,,,,,,,,,,,,287.0,1.5,,,,,,
277,,no_response,,html-keyboard-response,277,187633,0.0-1.0-27.0-0.19-4.19-0.19,1,0,3,,,,,,,,,,,,,,,,,,,,,,,,,,,,,,,,,,,,,,288.0,1.0,,,,,,
278,,iti,,html-keyboard-response,278,187751,0.0-1.0-27.0-0.19-5.19,0,0,3,,,,,,,,,,,,,,,,,,,,,,,,,,,,,,,,,,,,,,291.0,3.0,,,,,,
279,,choice,,html-keyboard-response,279,189255,0.0-1.0-27.0-0.20-0.20,0,0,3,,,,,,25.0,325.0,1500.0,1500.0,0.0,6.0,0.0,80-80,,,flashlight,dresser,80.0,80.0,flashlight5,dresser4,80.0,100.0,Streamlight-71001-Jr-Flashlight-W-batteries-black-B00018A3CG-L.jpg,ADRESSE40.jpg,/static/Category_learning/Stimuli/Experimental_stims/flashlight/Streamlight-71001-Jr-Flashlight-W-batteries-black-B00018A3CG-L.jpg,/static/Category_learning/Stimuli/Experimental_stims/dresser/ADRESSE40.jpg,,,,,,,,,,1.0,292.5,1.5,,,,,,
280,,isi,,html-keyboard-response,280,189362,0.0-1.0-27.0-0.20-2.20,0,0,3,,,,,,,,,,,,,,,,,,,,,,,,,,,,,,,,,,,,,,294.0,1.5,,,,,,
281,,no_response,,html-keyboard-response,281,190368,0.0-1.0-27.0-0.20-4.20-0.20,1,0,3,,,,,,,,,,,,,,,,,,,,,,,,,,,,,,,,,,,,,,295.0,1.0,,,,,,
282,,iti,,html-keyboard-response,282,190487,0.0-1.0-27.0-0.20-5.20,0,0,3,,,,,,,,,,,,,,,,,,,,,,,,,,,,,,,,,,,,,,298.5,3.5,,,,,,
283,,choice,,html-keyboard-response,283,191991,0.0-1.0-27.0-0.21-0.21,0,0,3,,,,,,25.0,325.0,1500.0,1500.0,0.0,6.0,0.0,80-80,,,flashlight,dresser,80.0,80.0,flashlight5,dresser4,80.0,100.0,Streamlight-71001-Jr-Flashlight-W-batteries-black-B00018A3CG-L.jpg,ADRESSE40.jpg,/static/Category_learning/Stimuli/Experimental_stims/flashlight/Streamlight-71001-Jr-Flashlight-W-batteries-black-B00018A3CG-L.jpg,/static/Category_learning/Stimuli/Experimental_stims/dresser/ADRESSE40.jpg,,,,,,,,,,1.0,300.0,1.5,,,,,,
284,,isi,,html-keyboard-response,284,192098,0.0-1.0-27.0-0.21-2.21,0,0,3,,,,,,,,,,,,,,,,,,,,,,,,,,,,,,,,,,,,,,301.0,1.0,,,,,,
285,,no_response,,html-keyboard-response,285,193105,0.0-1.0-27.0-0.21-4.21-0.21,1,0,3,,,,,,,,,,,,,,,,,,,,,,,,,,,,,,,,,,,,,,302.0,1.0,,,,,,
286,,iti,,html-keyboard-response,286,193223,0.0-1.0-27.0-0.21-5.21,0,0,3,,,,,,,,,,,,,,,,,,,,,,,,,,,,,,,,,,,,,,303.5,1.5,,,,,,
287,,choice,,html-keyboard-response,287,194727,0.0-1.0-27.0-0.22-0.22,0,0,3,,,,,,25.0,325.0,1500.0,1500.0,0.0,6.0,0.0,80-80,,,flashlight,dresser,80.0,80.0,flashlight5,dresser4,80.0,100.0,Streamlight-71001-Jr-Flashlight-W-batteries-black-B00018A3CG-L.jpg,ADRESSE40.jpg,/static/Category_learning/Stimuli/Experimental_stims/flashlight/Streamlight-71001-Jr-Flashlight-W-batteries-black-B00018A3CG-L.jpg,/static/Category_learning/Stimuli/Experimental_stims/dresser/ADRESSE40.jpg,,,,,,,,,,1.0,305.0,1.5,,,,,,
288,,isi,,html-keyboard-response,288,194833,0.0-1.0-27.0-0.22-2.22,0,0,3,,,,,,,,,,,,,,,,,,,,,,,,,,,,,,,,,,,,,,306.0,1.0,,,,,,
289,,no_response,,html-keyboard-response,289,195836,0.0-1.0-27.0-0.22-4.22-0.22,1,0,3,,,,,,,,,,,,,,,,,,,,,,,,,,,,,,,,,,,,,,307.0,1.0,,,,,,
290,,iti,,html-keyboard-response,290,195954,0.0-1.0-27.0-0.22-5.22,0,0,3,,,,,,,,,,,,,,,,,,,,,,,,,,,,,,,,,,,,,,308.5,1.5,,,,,,
291,,choice,,html-keyboard-response,291,197461,0.0-1.0-27.0-0.23-0.23,0,0,3,,,,,,25.0,325.0,1500.0,1500.0,0.0,6.0,0.0,80-80,,,flashlight,dresser,80.0,80.0,flashlight5,dresser4,80.0,100.0,Streamlight-71001-Jr-Flashlight-W-batteries-black-B00018A3CG-L.jpg,ADRESSE40.jpg,/static/Category_learning/Stimuli/Experimental_stims/flashlight/Streamlight-71001-Jr-Flashlight-W-batteries-black-B00018A3CG-L.jpg,/static/Category_learning/Stimuli/Experimental_stims/dresser/ADRESSE40.jpg,,,,,,,,,,1.0,310.0,1.5,,,,,,
292,,isi,,html-keyboard-response,292,197567,0.0-1.0-27.0-0.23-2.23,0,0,3,,,,,,,,,,,,,,,,,,,,,,,,,,,,,,,,,,,,,,311.5,1.5,,,,,,
293,,no_response,,html-keyboard-response,293,198572,0.0-1.0-27.0-0.23-4.23-0.23,1,0,3,,,,,,,,,,,,,,,,,,,,,,,,,,,,,,,,,,,,,,312.5,1.0,,,,,,
294,,iti,,html-keyboard-response,294,198695,0.0-1.0-27.0-0.23-5.23,0,0,3,,,,,,,,,,,,,,,,,,,,,,,,,,,,,,,,,,,,,,313.5,1.0,,,,,,
295,,choice,,html-keyboard-response,295,200200,0.0-1.0-27.0-0.24-0.24,0,0,3,,,,,,25.0,325.0,1500.0,1500.0,0.0,6.0,0.0,80-80,,,flashlight,dresser,80.0,80.0,flashlight5,dresser4,80.0,100.0,Streamlight-71001-Jr-Flashlight-W-batteries-black-B00018A3CG-L.jpg,ADRESSE40.jpg,/static/Category_learning/Stimuli/Experimental_stims/flashlight/Streamlight-71001-Jr-Flashlight-W-batteries-black-B00018A3CG-L.jpg,/static/Category_learning/Stimuli/Experimental_stims/dresser/ADRESSE40.jpg,,,,,,,,,,1.0,315.0,1.5,,,,,,
296,,isi,,html-keyboard-response,296,200306,0.0-1.0-27.0-0.24-2.24,0,0,3,,,,,,,,,,,,,,,,,,,,,,,,,,,,,,,,,,,,,,316.0,1.0,,,,,,
297,,no_response,,html-keyboard-response,297,201309,0.0-1.0-27.0-0.24-4.24-0.24,1,0,3,,,,,,,,,,,,,,,,,,,,,,,,,,,,,,,,,,,,,,317.0,1.0,,,,,,
298,,iti,,html-keyboard-response,298,201426,0.0-1.0-27.0-0.24-5.24,0,0,3,,,,,,,,,,,,,,,,,,,,,,,,,,,,,,,,,,,,,,318.0,1.0,,,,,,
299,,choice,,html-keyboard-response,299,202934,0.0-1.0-27.0-0.25-0.25,0,0,3,,,,,,25.0,325.0,1500.0,1500.0,0.0,6.0,0.0,80-80,,,flashlight,dresser,80.0,80.0,flashlight5,dresser4,80.0,100.0,Streamlight-71001-Jr-Flashlight-W-batteries-black-B00018A3CG-L.jpg,ADRESSE40.jpg,/static/Category_learning/Stimuli/Experimental_stims/flashlight/Streamlight-71001-Jr-Flashlight-W-batteries-black-B00018A3CG-L.jpg,/static/Category_learning/Stimuli/Experimental_stims/dresser/ADRESSE40.jpg,,,,,,,,,,1.0,319.5,1.5,,,,,,
300,,isi,,html-keyboard-response,300,203041,0.0-1.0-27.0-0.25-2.25,0,0,3,,,,,,,,,,,,,,,,,,,,,,,,,,,,,,,,,,,,,,321.5,2.0,,,,,,
301,,no_response,,html-keyboard-response,301,204048,0.0-1.0-27.0-0.25-4.25-0.25,1,0,3,,,,,,,,,,,,,,,,,,,,,,,,,,,,,,,,,,,,,,322.5,1.0,,,,,,
302,,iti,,html-keyboard-response,302,204167,0.0-1.0-27.0-0.25-5.25,0,0,3,,,,,,,,,,,,,,,,,,,,,,,,,,,,,,,,,,,,,,323.5,1.0,,,,,,
303,,choice,,html-keyboard-response,303,205671,0.0-1.0-27.0-0.26-0.26,0,0,3,,,,,,25.0,325.0,1500.0,1500.0,0.0,6.0,0.0,80-80,,,flashlight,dresser,80.0,80.0,flashlight5,dresser4,80.0,100.0,Streamlight-71001-Jr-Flashlight-W-batteries-black-B00018A3CG-L.jpg,ADRESSE40.jpg,/static/Category_learning/Stimuli/Experimental_stims/flashlight/Streamlight-71001-Jr-Flashlight-W-batteries-black-B00018A3CG-L.jpg,/static/Category_learning/Stimuli/Experimental_stims/dresser/ADRESSE40.jpg,,,,,,,,,,1.0,325.0,1.5,,,,,,
304,,isi,,html-keyboard-response,304,205779,0.0-1.0-27.0-0.26-2.26,0,0,3,,,,,,,,,,,,,,,,,,,,,,,,,,,,,,,,,,,,,,326.0,1.0,,,,,,
305,,no_response,,html-keyboard-response,305,206786,0.0-1.0-27.0-0.26-4.26-0.26,1,0,3,,,,,,,,,,,,,,,,,,,,,,,,,,,,,,,,,,,,,,327.0,1.0,,,,,,
306,,iti,,html-keyboard-response,306,206902,0.0-1.0-27.0-0.26-5.26,0,0,3,,,,,,,,,,,,,,,,,,,,,,,,,,,,,,,,,,,,,,328.0,1.0,,,,,,
307,,choice,,html-keyboard-response,307,208407,0.0-1.0-27.0-0.27-0.27,0,0,3,,,,,,25.0,325.0,1500.0,1500.0,0.0,6.0,0.0,80-80,,,flashlight,dresser,80.0,80.0,flashlight5,dresser4,80.0,100.0,Streamlight-71001-Jr-Flashlight-W-batteries-black-B00018A3CG-L.jpg,ADRESSE40.jpg,/static/Category_learning/Stimuli/Experimental_stims/flashlight/Streamlight-71001-Jr-Flashlight-W-batteries-black-B00018A3CG-L.jpg,/static/Category_learning/Stimuli/Experimental_stims/dresser/ADRESSE40.jpg,,,,,,,,,,1.0,329.5,1.5,,,,,,
308,,isi,,html-keyboard-response,308,208514,0.0-1.0-27.0-0.27-2.27,0,0,3,,,,,,,,,,,,,,,,,,,,,,,,,,,,,,,,,,,,,,331.5,2.0,,,,,,
309,,no_response,,html-keyboard-response,309,209517,0.0-1.0-27.0-0.27-4.27-0.27,1,0,3,,,,,,,,,,,,,,,,,,,,,,,,,,,,,,,,,,,,,,332.5,1.0,,,,,,
310,,iti,,html-keyboard-response,310,209634,0.0-1.0-27.0-0.27-5.27,0,0,3,,,,,,,,,,,,,,,,,,,,,,,,,,,,,,,,,,,,,,333.5,1.0,,,,,,
311,,choice,,html-keyboard-response,311,211138,0.0-1.0-27.0-0.28-0.28,0,0,3,,,,,,25.0,325.0,1500.0,1500.0,0.0,6.0,0.0,80-80,,,flashlight,dresser,80.0,80.0,flashlight5,dresser4,80.0,100.0,Streamlight-71001-Jr-Flashlight-W-batteries-black-B00018A3CG-L.jpg,ADRESSE40.jpg,/static/Category_learning/Stimuli/Experimental_stims/flashlight/Streamlight-71001-Jr-Flashlight-W-batteries-black-B00018A3CG-L.jpg,/static/Category_learning/Stimuli/Experimental_stims/dresser/ADRESSE40.jpg,,,,,,,,,,1.0,335.0,1.5,,,,,,
312,,isi,,html-keyboard-response,312,211245,0.0-1.0-27.0-0.28-2.28,0,0,3,,,,,,,,,,,,,,,,,,,,,,,,,,,,,,,,,,,,,,336.0,1.0,,,,,,
313,,no_response,,html-keyboard-response,313,212251,0.0-1.0-27.0-0.28-4.28-0.28,1,0,3,,,,,,,,,,,,,,,,,,,,,,,,,,,,,,,,,,,,,,337.0,1.0,,,,,,
314,,iti,,html-keyboard-response,314,212369,0.0-1.0-27.0-0.28-5.28,0,0,3,,,,,,,,,,,,,,,,,,,,,,,,,,,,,,,,,,,,,,338.5,1.5,,,,,,
315,,choice,,html-keyboard-response,315,213874,0.0-1.0-27.0-0.29-0.29,0,0,3,,,,,,25.0,325.0,1500.0,1500.0,0.0,6.0,0.0,80-80,,,flashlight,dresser,80.0,80.0,flashlight5,dresser4,80.0,100.0,Streamlight-71001-Jr-Flashlight-W-batteries-black-B00018A3CG-L.jpg,ADRESSE40.jpg,/static/Category_learning/Stimuli/Experimental_stims/flashlight/Streamlight-71001-Jr-Flashlight-W-batteries-black-B00018A3CG-L.jpg,/static/Category_learning/Stimuli/Experimental_stims/dresser/ADRESSE40.jpg,,,,,,,,,,1.0,340.0,1.5,,,,,,
316,,isi,,html-keyboard-response,316,213981,0.0-1.0-27.0-0.29-2.29,0,0,3,,,,,,,,,,,,,,,,,,,,,,,,,,,,,,,,,,,,,,341.0,1.0,,,,,,
317,,no_response,,html-keyboard-response,317,214988,0.0-1.0-27.0-0.29-4.29-0.29,1,0,3,,,,,,,,,,,,,,,,,,,,,,,,,,,,,,,,,,,,,,342.0,1.0,,,,,,
318,,iti,,html-keyboard-response,318,215106,0.0-1.0-27.0-0.29-5.29,0,0,3,,,,,,,,,,,,,,,,,,,,,,,,,,,,,,,,,,,,,,344.0,2.0,,,,,,
319,,choice,,html-keyboard-response,319,216610,0.0-1.0-27.0-0.30-0.30,0,0,3,,,,,,25.0,325.0,1500.0,1500.0,0.0,6.0,0.0,80-80,,,flashlight,dresser,80.0,80.0,flashlight5,dresser4,80.0,100.0,Streamlight-71001-Jr-Flashlight-W-batteries-black-B00018A3CG-L.jpg,ADRESSE40.jpg,/static/Category_learning/Stimuli/Experimental_stims/flashlight/Streamlight-71001-Jr-Flashlight-W-batteries-black-B00018A3CG-L.jpg,/static/Category_learning/Stimuli/Experimental_stims/dresser/ADRESSE40.jpg,,,,,,,,,,1.0,345.5,1.5,,,,,,
320,,isi,,html-keyboard-response,320,216717,0.0-1.0-27.0-0.30-2.30,0,0,3,,,,,,,,,,,,,,,,,,,,,,,,,,,,,,,,,,,,,,347.0,1.5,,0.56,,,,
321,,final_tally,,html-keyboard-response,321,228284,0.0-2.0-0.0,0,0,3,,11564.0,,,50.0,,,,,,,,,,,,,,,,,,,,,,,,,,,,,,,,,,,,,,,,
322,,category_memory_instructions,,instructions,322,230335,0.0-3.0-0.0,0,0,3,"[{""page_index"":0,""viewing_time"":1688},{""page_index"":1,""viewing_time"":190},{""page_index"":2,""viewing_time"":151}]",2029.0,,,,,,,,,,,,,,,,,,,,,,,,,,,,,,,,,,,,,,,,,,,
323,,category_memory,,survey-text,323,233032,0.0-3.0-1.0-0.0,0,0,3,,2694.0,"{""Q0"":""1""}",,,0.0,,,,,,,,,,,,,,,,,,,,,,,,,,,,,,,,,,,,license plate,20.0,1.0,
324,,category_memory,,survey-text,324,233933,0.0-3.0-2.0-0.0,0,0,3,,898.0,"{""Q0"":""1""}",,,1.0,,,,,,,,,,,,,,,,,,,,,,,,,,,,,,,,,,,,sofa,40.0,1.0,
325,,category_memory,,survey-text,325,234885,0.0-3.0-3.0-0.0,0,0,3,,949.0,"{""Q0"":""2""}",,,2.0,,,,,,,,,,,,,,,,,,,,,,,,,,,,,,,,,,,,bongo,80.0,2.0,
326,,category_memory,,survey-text,326,235790,0.0-3.0-4.0-0.0,0,0,3,,902.0,"{""Q0"":""3""}",,,3.0,,,,,,,,,,,,,,,,,,,,,,,,,,,,,,,,,,,,tent,60.0,3.0,
327,,category_memory,,survey-text,327,236527,0.0-3.0-5.0-0.0,0,0,3,,733.0,"{""Q0"":""1""}",,,4.0,,,,,,,,,,,,,,,,,,,,,,,,,,,,,,,,,,,,necklace,40.0,1.0,
328,,category_memory,,survey-text,328,237276,0.0-3.0-6.0-0.0,0,0,3,,746.0,"{""Q0"":""2""}",,,5.0,,,,,,,,,,,,,,,,,,,,,,,,,,,,,,,,,,,,seashell,40.0,2.0,
329,,category_memory,,survey-text,329,238021,0.0-3.0-7.0-0.0,0,0,3,,742.0,"{""Q0"":""3""}",,,6.0,,,,,,,,,,,,,,,,,,,,,,,,,,,,,,,,,,,,makeup compact,20.0,3.0,
330,,category_memory,,survey-text,330,238755,0.0-3.0-8.0-0.0,0,0,3,,731.0,"{""Q0"":""1""}",,,7.0,,,,,,,,,,,,,,,,,,,,,,,,,,,,,,,,,,,,dresser,80.0,1.0,
331,,category_memory,,survey-text,331,239471,0.0-3.0-9.0-0.0,0,0,3,,713.0,"{""Q0"":""2""}",,,8.0,,,,,,,,,,,,,,,,,,,,,,,,,,,,,,,,,,,,baby carriage,80.0,2.0,
332,,category_memory,,survey-text,332,240194,0.0-3.0-10.0-0.0,0,0,3,,720.0,"{""Q0"":""3""}",,,9.0,,,,,,,,,,,,,,,,,,,,,,,,,,,,,,,,,,,,microscope,20.0,3.0,
333,,category_memory,,survey-text,333,241091,0.0-3.0-11.0-0.0,0,0,3,,894.0,"{""Q0"":""1""}",,,10.0,,,,,,,,,,,,,,,,,,,,,,,,,,,,,,,,,,,,flashlight,80.0,1.0,
334,,category_memory,,survey-text,334,241758,0.0-3.0-12.0-0.0,0,0,3,,664.0,"{""Q0"":""2""}",,,11.0,,,,,,,,,,,,,,,,,,,,,,,,,,,,,,,,,,,,lipstick,20.0,2.0,
335,,category_memory,,survey-text,335,242921,0.0-3.0-13.0-0.0,0,0,3,,1160.0,"{""Q0"":""3""}",,,12.0,,,,,,,,,,,,,,,,,,,,,,,,,,,,,,,,,,,,frame,20.0,3.0,
336,,category_memory,,survey-text,336,243638,0.0-3.0-14.0-0.0,0,0,3,,713.0,"{""Q0"":""3""}",,,13.0,,,,,,,,,,,,,,,,,,,,,,,,,,,,,,,,,,,,desk,80.0,3.0,
337,,category_memory,,survey-text,337,244835,0.0-3.0-15.0-0.0,0,0,3,,1194.0,"{""Q0"":""2""}",,,14.0,,,,,,,,,,,,,,,,,,,,,,,,,,,,,,,,,,,,poker card,40.0,2.0,
338,,category_memory,,survey-text,338,245763,0.0-3.0-16.0-0.0,0,0,3,,924.0,"{""Q0"":""1""}",,,15.0,,,,,,,,,,,,,,,,,,,,,,,,,,,,,,,,,,,,motorcycle,20.0,1.0,
339,,category_memory,,survey-text,339,246814,0.0-3.0-17.0-0.0,0,0,3,,1048.0,"{""Q0"":""2""}",,,16.0,,,,,,,,,,,,,,,,,,,,,,,,,,,,,,,,,,,,train,60.0,2.0,
340,,category_memory,,survey-text,340,247715,0.0-3.0-18.0-0.0,0,0,3,,898.0,"{""Q0"":""3""}",,,17.0,,,,,,,,,,,,,,,,,,,,,,,,,,,,,,,,,,,,key chain,20.0,3.0,
341,,category_memory,,survey-text,341,251029,0.0-3.0-19.0-0.0,0,0,3,,3310.0,"{""Q0"":""2""}",,,18.0,,,,,,,,,,,,,,,,,,,,,,,,,,,,,,,,,,,,trumpet,60.0,2.0,
342,,category_memory,,survey-text,342,252061,0.0-3.0-20.0-0.0,0,0,3,,1028.0,"{""Q0"":""1""}",,,19.0,,,,,,,,,,,,,,,,,,,,,,,,,,,,,,,,,,,,small table,40.0,1.0,
343,,category_memory,,survey-text,343,253473,0.0-3.0-21.0-0.0,0,0,3,,1408.0,"{""Q0"":""2""}",,,20.0,,,,,,,,,,,,,,,,,,,,,,,,,,,,,,,,,,,,power strip,40.0,2.0,
344,,category_memory,,survey-text,344,254826,0.0-3.0-22.0-0.0,0,0,3,,1350.0,"{""Q0"":""1""}",,,21.0,,,,,,,,,,,,,,,,,,,,,,,,,,,,,,,,,,,,hammer,20.0,1.0,
345,,category_memory,,survey-text,345,255711,0.0-3.0-23.0-0.0,0,0,3,,881.0,"{""Q0"":""1""}",,,22.0,,,,,,,,,,,,,,,,,,,,,,,,,,,,,,,,,,,,door knob,80.0,1.0,
346,,category_memory,,survey-text,346,256531,0.0-3.0-24.0-0.0,0,0,3,,817.0,"{""Q0"":""1""}",,,23.0,,,,,,,,,,,,,,,,,,,,,,,,,,,,,,,,,,,,pen,40.0,1.0,
347,,category_memory,,survey-text,347,257807,0.0-3.0-25.0-0.0,0,0,3,,1273.0,"{""Q0"":""""}",,,24.0,,,,,,,,,,,,,,,,,,,,,,,,,,,,,,,,,,,,stool,60.0,,
348,,enter_reponse,,html-keyboard-response,348,259818,0.0-3.0-25.0-1.0-0.0,1,0,3,,2008.0,,,50.0,,,,,,,,,,,,,,,,,,,,,,,,,,,,,,,,,,,,,,,,1.0
349,,category_memory,,survey-text,349,262217,0.0-3.0-25.1-0.1,0,0,3,,2396.0,"{""Q0"":""1""}",,,24.0,,,,,,,,,,,,,,,,,,,,,,,,,,,,,,,,,,,,stool,60.0,1.0,
350,,category_memory,,survey-text,350,263100,0.0-3.0-26.0-0.0,0,0,3,,879.0,"{""Q0"":""2""}",,,25.0,,,,,,,,,,,,,,,,,,,,,,,,,,,,,,,,,,,,nail polish,40.0,2.0,
351,,category_memory,,survey-text,351,264067,0.0-3.0-27.0-0.0,0,0,3,,964.0,"{""Q0"":""3""}",,,26.0,,,,,,,,,,,,,,,,,,,,,,,,,,,,,,,,,,,,bowl,80.0,3.0,
352,,category_memory,,survey-text,352,265171,0.0-3.0-28.0-0.0,0,0,3,,1100.0,"{""Q0"":""2""}",,,27.0,,,,,,,,,,,,,,,,,,,,,,,,,,,,,,,,,,,,bench,80.0,2.0,
353,,category_memory,,survey-text,353,266912,0.0-3.0-29.0-0.0,0,0,3,,1738.0,"{""Q0"":""1""}",,,28.0,,,,,,,,,,,,,,,,,,,,,,,,,,,,,,,,,,,,fan,80.0,1.0,
354,,category_memory,,survey-text,354,267727,0.0-3.0-30.0-0.0,0,0,3,,812.0,"{""Q0"":""1""}",,,29.0,,,,,,,,,,,,,,,,,,,,,,,,,,,,,,,,,,,,yarn,60.0,1.0,
355,,category_memory,,survey-text,355,268510,0.0-3.0-31.0-0.0,0,0,3,,780.0,"{""Q0"":""1""}",,,30.0,,,,,,,,,,,,,,,,,,,,,,,,,,,,,,,,,,,,vase,60.0,1.0,
356,,category_memory,,survey-text,356,269665,0.0-3.0-32.0-0.0,0,0,3,,1152.0,"{""Q0"":""1""}",,,31.0,,,,,,,,,,,,,,,,,,,,,,,,,,,,,,,,,,,,hat,20.0,1.0,
357,,category_memory,,survey-text,357,270795,0.0-3.0-33.0-0.0,0,0,3,,1126.0,"{""Q0"":""1""}",,,32.0,,,,,,,,,,,,,,,,,,,,,,,,,,,,,,,,,,,,watch,60.0,1.0,
358,,category_memory,,survey-text,358,272051,0.0-3.0-34.0-0.0,0,0,3,,1252.0,"{""Q0"":""1""}",,,33.0,,,,,,,,,,,,,,,,,,,,,,,,,,,,,,,,,,,,patio lounge chair,40.0,1.0,
359,,category_memory,,survey-text,359,272861,0.0-3.0-35.0-0.0,0,0,3,,807.0,"{""Q0"":""1""}",,,34.0,,,,,,,,,,,,,,,,,,,,,,,,,,,,,,,,,,,,telescope,60.0,1.0,
360,,category_memory,,survey-text,360,275314,0.0-3.0-36.0-0.0,0,0,3,,2450.0,"{""Q0"":""1""}",,,35.0,,,,,,,,,,,,,,,,,,,,,,,,,,,,,,,,,,,,tape,60.0,1.0,
