,success,ttype,start_time,trial_type,trial_index,time_elapsed,internal_node_id,warning,missed_checkup,PID,view_history,rt,responses,repeat_instructions,key_press,index,trial_num,isi,iti,is_practice,block,old_trial,pair_type,within_category,high_cat_on_left,left_category,right_category,left_category_value,right_category_value,left_exemplar,right_exemplar,left_exemplar_value,right_exemplar_value,left_img,right_img,left_img_path,right_img_path,left_chosen,chosen_category,unchosen_category,chosen_category_value,unchosen_category_value,chosen_exemplar,unchosen_exemplar,chosen_exemplar_value,unchosen_exemplar_value,no_response,onset,duration,end_practice,total_bonus_tally,category,category_group_value,category_value_response,did_not_enter_response
0,True,full_screen,d06072022hr1122,fullscreen,0,7636,0.0-0.0,0,0,72837,,,,,,,,,,,,,,,,,,,,,,,,,,,,,,,,,,,,,,,,,,,,,
1,,category_learning_instructions,,instructions,1,44337,0.0-1.0-0.0-0.0,0,0,72837,"[{""page_index"":0,""viewing_time"":6828},{""page_index"":1,""viewing_time"":7552},{""page_index"":2,""viewing_time"":5528},{""page_index"":3,""viewing_time"":7720},{""page_index"":4,""viewing_time"":5686},{""page_index"":5,""viewing_time"":1810},{""page_index"":6,""viewing_time"":1560}]",36684.0,,,,,,,,,,,,,,,,,,,,,,,,,,,,,,,,,,,,,,,,,,,
2,,category_learning_comprehension_check,,survey-multi-choice,2,63850,0.0-1.0-0.0-1.0,0,0,72837,,19504.0,"{""Q0"":""True"",""Q1"":""True"",""Q2"":""Stay the same"",""Q3"":""D for left and K for right""}",0.0,,,,,,,,,,,,,,,,,,,,,,,,,,,,,,,,,,,,,,,,,
3,,,,html-keyboard-response,3,65752,0.0-1.0-1.0,0,0,72837,,1886.0,,,68.0,,,,,,,,,,,,,,,,,,,,,,,,,,,,,,,,,,,,,,,,
4,,choice,,html-keyboard-response,4,66589,0.0-1.0-2.0-0.0-0.0,0,0,72837,,822.0,,,75.0,0.0,0.0,1500.0,1000.0,1.0,0.0,0.0,20-80,,0.0,bagel,dumbbell,20.0,80.0,bagel1,dumbbell1,0.0,80.0,bagels_pumpernickel_large.jpg,31B64EN68AL._AA280_.jpg,/static/Category_learning/Stimuli/Practice_stims/bagel/bagels_pumpernickel_large.jpg,/static/Category_learning/Stimuli/Practice_stims/dumbbell/31B64EN68AL._AA280_.jpg,0.0,dumbbell,bagel,80.0,20.0,dumbbell1,bagel1,80.0,0.0,0.0,0.822,0.822,,,,,,
5,,confirmation,,html-keyboard-response,5,67286,0.0-1.0-2.0-0.0-1.0-0.0,0,0,72837,,,,,,0.0,,,,,0.0,,,,,,,,,,,,,,,,,,,,,,,,,,,1.5,0.678,,,,,,
6,,isi,,html-keyboard-response,6,68814,0.0-1.0-2.0-0.0-2.0,0,0,72837,,,,,,0.0,,,,,0.0,,,,,,,,,,,,,,,,,,,,,,,,,,,3.0,1.5,,,,,,
7,,feedback,,html-keyboard-response,7,69826,0.0-1.0-2.0-0.0-3.0-0.0,0,0,72837,,,,,,0.0,,,,,0.0,,,,,,,,,,,,,,,,,,,,,,,,,,,4.0,1.0,,,,,,
8,,iti,,html-keyboard-response,8,70848,0.0-1.0-2.0-0.0-5.0,0,0,72837,,,,,,0.0,,,,,0.0,,,,,,,,,,,,,,,,,,,,,,,,,,,5.0,1.0,,,,,,
9,,choice,,html-keyboard-response,9,71574,0.0-1.0-3.0-0.0-0.0,0,0,72837,,712.0,,,68.0,1.0,1.0,3000.0,1500.0,1.0,0.0,0.0,20-40,,1.0,calculator,bagel,40.0,20.0,calculator2,bagel2,20.0,20.0,22829064.thl.jpg,bagels_cinnraisin_large.jpg,/static/Category_learning/Stimuli/Practice_stims/calculator/22829064.thl.jpg,/static/Category_learning/Stimuli/Practice_stims/bagel/bagels_cinnraisin_large.jpg,1.0,calculator,bagel,40.0,20.0,calculator2,bagel2,20.0,20.0,0.0,5.712,0.712,,,,,,
10,,confirmation,,html-keyboard-response,10,72382,0.0-1.0-3.0-0.0-1.0-0.0,0,0,72837,,,,,,1.0,,,,,0.0,,,,,,,,,,,,,,,,,,,,,,,,,,,6.5,0.788,,,,,,
11,,isi,,html-keyboard-response,11,75395,0.0-1.0-3.0-0.0-2.0,0,0,72837,,,,,,1.0,,,,,0.0,,,,,,,,,,,,,,,,,,,,,,,,,,,9.5,3.0,,,,,,
12,,feedback,,html-keyboard-response,12,76408,0.0-1.0-3.0-0.0-3.0-0.0,0,0,72837,,,,,,1.0,,,,,0.0,,,,,,,,,,,,,,,,,,,,,,,,,,,10.5,1.0,,,,,,
13,,iti,,html-keyboard-response,13,77918,0.0-1.0-3.0-0.0-5.0,0,0,72837,,,,,,1.0,,,,,0.0,,,,,,,,,,,,,,,,,,,,,,,,,,,12.0,1.5,,,,,,
14,,choice,,html-keyboard-response,14,78686,0.0-1.0-4.0-0.0-0.0,0,0,72837,,761.0,,,68.0,2.0,2.0,2000.0,3000.0,1.0,0.0,0.0,60-80,,0.0,clock,dumbbell,60.0,80.0,clock2,dumbbell2,60.0,100.0,26373355.thl.jpg,31K8MR6TMBL._SS500_.jpg,/static/Category_learning/Stimuli/Practice_stims/clock/26373355.thl.jpg,/static/Category_learning/Stimuli/Practice_stims/dumbbell/31K8MR6TMBL._SS500_.jpg,1.0,clock,dumbbell,60.0,80.0,clock2,dumbbell2,60.0,100.0,0.0,12.761,0.761,,,,,,
15,,confirmation,,html-keyboard-response,15,79450,0.0-1.0-4.0-0.0-1.0-0.0,0,0,72837,,,,,,2.0,,,,,0.0,,,,,,,,,,,,,,,,,,,,,,,,,,,13.5,0.739,,,,,,
16,,isi,,html-keyboard-response,16,81458,0.0-1.0-4.0-0.0-2.0,0,0,72837,,,,,,2.0,,,,,0.0,,,,,,,,,,,,,,,,,,,,,,,,,,,15.5,2.0,,,,,,
17,,feedback,,html-keyboard-response,17,82471,0.0-1.0-4.0-0.0-3.0-0.0,0,0,72837,,,,,,2.0,,,,,0.0,,,,,,,,,,,,,,,,,,,,,,,,,,,16.5,1.0,,,,,,
18,,iti,,html-keyboard-response,18,85489,0.0-1.0-4.0-0.0-5.0,0,0,72837,,,,,,2.0,,,,,0.0,,,,,,,,,,,,,,,,,,,,,,,,,,,19.5,3.0,,,,,,
19,,choice,,html-keyboard-response,19,86195,0.0-1.0-5.0-0.0-0.0,0,0,72837,,695.0,,,75.0,3.0,3.0,1000.0,2000.0,1.0,0.0,0.0,40-80,,0.0,calculator,clock,40.0,60.0,calculator1,clock1,40.0,40.0,22829184.thl.jpg,Aalarmclock2.jpg,/static/Category_learning/Stimuli/Practice_stims/calculator/22829184.thl.jpg,/static/Category_learning/Stimuli/Practice_stims/clock/Aalarmclock2.jpg,0.0,clock,calculator,60.0,40.0,clock1,calculator1,40.0,40.0,0.0,20.195,0.695,,,,,,
20,,confirmation,,html-keyboard-response,20,87020,0.0-1.0-5.0-0.0-1.0-0.0,0,0,72837,,,,,,3.0,,,,,0.0,,,,,,,,,,,,,,,,,,,,,,,,,,,21.0,0.805,,,,,,
21,,isi,,html-keyboard-response,21,88044,0.0-1.0-5.0-0.0-2.0,0,0,72837,,,,,,3.0,,,,,0.0,,,,,,,,,,,,,,,,,,,,,,,,,,,22.0,1.0,,,,,,
22,,feedback,,html-keyboard-response,22,89054,0.0-1.0-5.0-0.0-3.0-0.0,0,0,72837,,,,,,3.0,,,,,0.0,,,,,,,,,,,,,,,,,,,,,,,,,,,23.0,1.0,,,,,,
23,,iti,,html-keyboard-response,23,91067,0.0-1.0-5.0-0.0-5.0,0,0,72837,,,,,,3.0,,,,,0.0,,,,,,,,,,,,,,,,,,,,,,,,,,,25.0,2.0,,,,,,
24,,choice,,html-keyboard-response,24,91884,0.0-1.0-6.0-0.0-0.0,0,0,72837,,807.0,,,68.0,4.0,4.0,2500.0,2500.0,1.0,0.0,0.0,20-60,,1.0,dumbbell,bagel,80.0,20.0,dumbbell3,bagel3,100.0,40.0,41K7QVRX50L._SS500_.jpg,photo-169.jpg,/static/Category_learning/Stimuli/Practice_stims/dumbbell/41K7QVRX50L._SS500_.jpg,/static/Category_learning/Stimuli/Practice_stims/bagel/photo-169.jpg,1.0,dumbbell,bagel,80.0,20.0,dumbbell3,bagel3,100.0,40.0,0.0,25.807,0.807,1.0,,,,,
25,,confirmation,,html-keyboard-response,25,92590,0.0-1.0-6.0-0.0-1.0-0.0,0,0,72837,,,,,,4.0,,,,,0.0,,,,,,,,,,,,,,,,,,,,,,,,,,,26.5,0.693,,,,,,
26,,isi,,html-keyboard-response,26,95109,0.0-1.0-6.0-0.0-2.0,0,0,72837,,,,,,4.0,,,,,0.0,,,,,,,,,,,,,,,,,,,,,,,,,,,29.0,2.5,,,,,,
27,,feedback,,html-keyboard-response,27,96124,0.0-1.0-6.0-0.0-3.0-0.0,0,0,72837,,,,,,4.0,,,,,0.0,,,,,,,,,,,,,,,,,,,,,,,,,,,30.0,1.0,,,,,,
28,,iti,,html-keyboard-response,28,98649,0.0-1.0-6.0-0.0-5.0,0,0,72837,,,,,,4.0,,,,,0.0,,,,,,,,,,,,,,,,,,,,,,,,,,,32.5,2.5,,,,,,
29,,practice_over,,html-keyboard-response,29,100532,0.0-1.0-6.0-0.0-6.0-0.0,0,0,72837,,1875.0,,,68.0,4.0,,,,,,,,,,,,,,,,,,,,,,,,,,,,,,,,,,,,,,,
30,,start_run,,html-keyboard-response,30,102944,0.0-1.0-6.0-0.0-6.0-1.0,0,0,72837,,2399.0,,,84.0,,,,,,,,,,,,,,,,,,,,,,,,,,,,,,,,,,,,,,,,
31,,choice,,html-keyboard-response,31,103655,0.0-1.0-7.0-0.0-0.0,0,0,72837,,695.0,,,75.0,5.0,5.0,1000.0,1500.0,0.0,1.0,0.0,40-40,,,door knob,desk,40.0,40.0,door knob15,desk9,60.0,20.0,Legacy_oval.jpg,desk 189dr96dr chr.jpg,/static/Category_learning/Stimuli/Experimental_stims/door knob/Legacy_oval.jpg,/static/Category_learning/Stimuli/Experimental_stims/desk/desk 189dr96dr chr.jpg,0.0,desk,door knob,40.0,40.0,desk9,door knob15,20.0,60.0,0.0,0.695,0.695,,,,,,
32,,confirmation,,html-keyboard-response,32,104494,0.0-1.0-7.0-0.0-1.0-0.0,0,0,72837,,,,,,5.0,,,,,1.0,,,,,,,,,,,,,,,,,,,,,,,,,,,1.5,0.805,,,,,,
33,,isi,,html-keyboard-response,33,105507,0.0-1.0-7.0-0.0-2.0,0,0,72837,,,,,,5.0,,,,,1.0,,,,,,,,,,,,,,,,,,,,,,,,,,,2.5,1.0,,,,,,
34,,feedback,,html-keyboard-response,34,106517,0.0-1.0-7.0-0.0-3.0-0.0,0,0,72837,,,,,,5.0,,,,,1.0,,,,,,,,,,,,,,,,,,,,,,,,,,,3.5,1.0,,,,,,
35,,iti,,html-keyboard-response,35,108032,0.0-1.0-7.0-0.0-5.0,0,0,72837,,,,,,5.0,,,,,1.0,,,,,,,,,,,,,,,,,,,,,,,,,,,5.0,1.5,,,,,,
36,,choice,,html-keyboard-response,36,108701,0.0-1.0-8.0-0.0-0.0,0,0,72837,,661.0,,,75.0,6.0,6.0,1500.0,2000.0,0.0,1.0,0.0,40-80,,1.0,pen,door knob,80.0,40.0,pen12,door knob7,100.0,20.0,pen02.jpg,doorknob2.jpg,/static/Category_learning/Stimuli/Experimental_stims/pen/pen02.jpg,/static/Category_learning/Stimuli/Experimental_stims/door knob/doorknob2.jpg,0.0,door knob,pen,40.0,80.0,door knob7,pen12,20.0,100.0,0.0,5.661,0.661,,,,,,
37,,confirmation,,html-keyboard-response,37,109565,0.0-1.0-8.0-0.0-1.0-0.0,0,0,72837,,,,,,6.0,,,,,1.0,,,,,,,,,,,,,,,,,,,,,,,,,,,6.5,0.839,,,,,,
38,,isi,,html-keyboard-response,38,111089,0.0-1.0-8.0-0.0-2.0,0,0,72837,,,,,,6.0,,,,,1.0,,,,,,,,,,,,,,,,,,,,,,,,,,,8.0,1.5,,,,,,
39,,feedback,,html-keyboard-response,39,112116,0.0-1.0-8.0-0.0-3.0-0.0,0,0,72837,,,,,,6.0,,,,,1.0,,,,,,,,,,,,,,,,,,,,,,,,,,,9.0,1.0,,,,,,
40,,iti,,html-keyboard-response,40,114139,0.0-1.0-8.0-0.0-5.0,0,0,72837,,,,,,6.0,,,,,1.0,,,,,,,,,,,,,,,,,,,,,,,,,,,11.0,2.0,,,,,,
41,,choice,,html-keyboard-response,41,114767,0.0-1.0-9.0-0.0-0.0,0,0,72837,,613.0,,,75.0,7.0,7.0,1000.0,1500.0,0.0,1.0,0.0,80-80,,,seashell,pen,80.0,80.0,seashell3,pen3,80.0,80.0,coquillage.jpg,pen08.jpg,/static/Category_learning/Stimuli/Experimental_stims/seashell/coquillage.jpg,/static/Category_learning/Stimuli/Experimental_stims/pen/pen08.jpg,0.0,pen,seashell,80.0,80.0,pen3,seashell3,80.0,80.0,0.0,11.613,0.613,,,,,,
42,,confirmation,,html-keyboard-response,42,115682,0.0-1.0-9.0-0.0-1.0-0.0,0,0,72837,,,,,,7.0,,,,,1.0,,,,,,,,,,,,,,,,,,,,,,,,,,,12.5,0.887,,,,,,
43,,isi,,html-keyboard-response,43,116695,0.0-1.0-9.0-0.0-2.0,0,0,72837,,,,,,7.0,,,,,1.0,,,,,,,,,,,,,,,,,,,,,,,,,,,13.5,1.0,,,,,,
44,,feedback,,html-keyboard-response,44,117709,0.0-1.0-9.0-0.0-3.0-0.0,0,0,72837,,,,,,7.0,,,,,1.0,,,,,,,,,,,,,,,,,,,,,,,,,,,14.5,1.0,,,,,,
45,,iti,,html-keyboard-response,45,119223,0.0-1.0-9.0-0.0-5.0,0,0,72837,,,,,,7.0,,,,,1.0,,,,,,,,,,,,,,,,,,,,,,,,,,,16.0,1.5,,,,,,
46,,choice,,html-keyboard-response,46,120043,0.0-1.0-10.0-0.0-0.0,0,0,72837,,805.0,,,75.0,8.0,8.0,1000.0,2000.0,0.0,1.0,0.0,60-60,,,lipstick,key chain,60.0,60.0,lipstick10,key chain1,60.0,80.0,21K0D7QKFAL._SS500_.jpg,jm05s16.jpg,/static/Category_learning/Stimuli/Experimental_stims/lipstick/21K0D7QKFAL._SS500_.jpg,/static/Category_learning/Stimuli/Experimental_stims/key chain/jm05s16.jpg,0.0,key chain,lipstick,60.0,60.0,key chain1,lipstick10,80.0,60.0,0.0,16.805,0.805,,,,,,
47,,confirmation,,html-keyboard-response,47,120754,0.0-1.0-10.0-0.0-1.0-0.0,0,0,72837,,,,,,8.0,,,,,1.0,,,,,,,,,,,,,,,,,,,,,,,,,,,17.5,0.695,,,,,,
48,,isi,,html-keyboard-response,48,121764,0.0-1.0-10.0-0.0-2.0,0,0,72837,,,,,,8.0,,,,,1.0,,,,,,,,,,,,,,,,,,,,,,,,,,,18.5,1.0,,,,,,
49,,feedback,,html-keyboard-response,49,122792,0.0-1.0-10.0-0.0-3.0-0.0,0,0,72837,,,,,,8.0,,,,,1.0,,,,,,,,,,,,,,,,,,,,,,,,,,,19.5,1.0,,,,,,
50,,iti,,html-keyboard-response,50,124804,0.0-1.0-10.0-0.0-5.0,0,0,72837,,,,,,8.0,,,,,1.0,,,,,,,,,,,,,,,,,,,,,,,,,,,21.5,2.0,,,,,,
51,,choice,,html-keyboard-response,51,125485,0.0-1.0-11.0-0.0-0.0,0,0,72837,,673.0,,,75.0,9.0,9.0,3000.0,1500.0,0.0,1.0,0.0,60-80,,0.0,makeup compact,patio lounge chair,60.0,80.0,makeup compact4,patio lounge chair15,40.0,60.0,262668_fpx.jpg,phpThumb.jpg,/static/Category_learning/Stimuli/Experimental_stims/makeup compact/262668_fpx.jpg,/static/Category_learning/Stimuli/Experimental_stims/patio lounge chair/phpThumb.jpg,0.0,patio lounge chair,makeup compact,80.0,60.0,patio lounge chair15,makeup compact4,60.0,40.0,0.0,22.173,0.673,,,,,,
52,,confirmation,,html-keyboard-response,52,126326,0.0-1.0-11.0-0.0-1.0-0.0,0,0,72837,,,,,,9.0,,,,,1.0,,,,,,,,,,,,,,,,,,,,,,,,,,,23.0,0.827,,,,,,
53,,isi,,html-keyboard-response,53,129347,0.0-1.0-11.0-0.0-2.0,0,0,72837,,,,,,9.0,,,,,1.0,,,,,,,,,,,,,,,,,,,,,,,,,,,26.0,3.0,,,,,,
54,,feedback,,html-keyboard-response,54,130364,0.0-1.0-11.0-0.0-3.0-0.0,0,0,72837,,,,,,9.0,,,,,1.0,,,,,,,,,,,,,,,,,,,,,,,,,,,27.0,1.0,,,,,,
55,,iti,,html-keyboard-response,55,131884,0.0-1.0-11.0-0.0-5.0,0,0,72837,,,,,,9.0,,,,,1.0,,,,,,,,,,,,,,,,,,,,,,,,,,,28.5,1.5,,,,,,
56,,choice,,html-keyboard-response,56,132630,0.0-1.0-12.0-0.0-0.0,0,0,72837,,729.0,,,75.0,10.0,10.0,2000.0,1500.0,0.0,1.0,1.0,60-80,0.0,,key chain,pen,60.0,80.0,key chain1,pen3,80.0,80.0,jm05s16.jpg,pen08.jpg,/static/Category_learning/Stimuli/Experimental_stims/key chain/jm05s16.jpg,/static/Category_learning/Stimuli/Experimental_stims/pen/pen08.jpg,0.0,pen,key chain,80.0,60.0,pen3,key chain1,80.0,80.0,0.0,29.229,0.729,,,,,,
57,,confirmation,,html-keyboard-response,57,133420,0.0-1.0-12.0-0.0-1.0-0.0,0,0,72837,,,,,,10.0,,,,,1.0,,,,,,,,,,,,,,,,,,,,,,,,,,,30.0,0.771,,,,,,
58,,isi,,html-keyboard-response,58,135448,0.0-1.0-12.0-0.0-2.0,0,0,72837,,,,,,10.0,,,,,1.0,,,,,,,,,,,,,,,,,,,,,,,,,,,32.0,2.0,,,,,,
59,,feedback,,html-keyboard-response,59,136471,0.0-1.0-12.0-0.0-3.0-0.0,0,0,72837,,,,,,10.0,,,,,1.0,,,,,,,,,,,,,,,,,,,,,,,,,,,33.0,1.0,,,,,,
60,,iti,,html-keyboard-response,60,137995,0.0-1.0-12.0-0.0-5.0,0,0,72837,,,,,,10.0,,,,,1.0,,,,,,,,,,,,,,,,,,,,,,,,,,,34.5,1.5,,,,,,
61,,choice,,html-keyboard-response,61,138769,0.0-1.0-13.0-0.0-0.0,0,0,72837,,765.0,,,75.0,11.0,11.0,3500.0,1000.0,0.0,1.0,0.0,40-40,,,bongo,flashlight,40.0,40.0,bongo3,flashlight5,60.0,60.0,26390697.thl.jpg,Streamlight-71001-Jr-Flashlight-W-batteries-black-B00018A3CG-L.jpg,/static/Category_learning/Stimuli/Experimental_stims/bongo/26390697.thl.jpg,/static/Category_learning/Stimuli/Experimental_stims/flashlight/Streamlight-71001-Jr-Flashlight-W-batteries-black-B00018A3CG-L.jpg,0.0,flashlight,bongo,40.0,40.0,flashlight5,bongo3,60.0,60.0,0.0,35.265,0.765,,,,,,
62,,confirmation,,html-keyboard-response,62,139534,0.0-1.0-13.0-0.0-1.0-0.0,0,0,72837,,,,,,11.0,,,,,1.0,,,,,,,,,,,,,,,,,,,,,,,,,,,36.0,0.735,,,,,,
63,,isi,,html-keyboard-response,63,143050,0.0-1.0-13.0-0.0-2.0,0,0,72837,,,,,,11.0,,,,,1.0,,,,,,,,,,,,,,,,,,,,,,,,,,,39.5,3.5,,,,,,
64,,feedback,,html-keyboard-response,64,144083,0.0-1.0-13.0-0.0-3.0-0.0,0,0,72837,,,,,,11.0,,,,,1.0,,,,,,,,,,,,,,,,,,,,,,,,,,,40.5,1.0,,,,,,
65,,iti,,html-keyboard-response,65,145096,0.0-1.0-13.0-0.0-5.0,0,0,72837,,,,,,11.0,,,,,1.0,,,,,,,,,,,,,,,,,,,,,,,,,,,41.5,1.0,,,,,,
66,,choice,,html-keyboard-response,66,145678,0.0-1.0-14.0-0.0-0.0,0,0,72837,,569.0,,,75.0,12.0,12.0,1500.0,1000.0,0.0,1.0,1.0,40-40,0.0,,desk,door knob,40.0,40.0,desk9,door knob7,20.0,20.0,desk 189dr96dr chr.jpg,doorknob2.jpg,/static/Category_learning/Stimuli/Experimental_stims/desk/desk 189dr96dr chr.jpg,/static/Category_learning/Stimuli/Experimental_stims/door knob/doorknob2.jpg,0.0,door knob,desk,40.0,40.0,door knob7,desk9,20.0,20.0,0.0,42.069,0.569,,,,,,
67,,confirmation,,html-keyboard-response,67,146631,0.0-1.0-14.0-0.0-1.0-0.0,0,0,72837,,,,,,12.0,,,,,1.0,,,,,,,,,,,,,,,,,,,,,,,,,,,43.0,0.931,,,,,,
68,,isi,,html-keyboard-response,68,148155,0.0-1.0-14.0-0.0-2.0,0,0,72837,,,,,,12.0,,,,,1.0,,,,,,,,,,,,,,,,,,,,,,,,,,,44.5,1.5,,,,,,
69,,feedback,,html-keyboard-response,69,149178,0.0-1.0-14.0-0.0-3.0-0.0,0,0,72837,,,,,,12.0,,,,,1.0,,,,,,,,,,,,,,,,,,,,,,,,,,,45.5,1.0,,,,,,
70,,iti,,html-keyboard-response,70,150189,0.0-1.0-14.0-0.0-5.0,0,0,72837,,,,,,12.0,,,,,1.0,,,,,,,,,,,,,,,,,,,,,,,,,,,46.5,1.0,,,,,,
71,,choice,,html-keyboard-response,71,150838,0.0-1.0-15.0-0.0-0.0,0,0,72837,,638.0,,,75.0,13.0,13.0,2000.0,1000.0,0.0,1.0,0.0,40-60,,0.0,desk,hammer,40.0,60.0,desk8,hammer2,60.0,40.0,26370118.thl.jpg,hammer04.jpg,/static/Category_learning/Stimuli/Experimental_stims/desk/26370118.thl.jpg,/static/Category_learning/Stimuli/Experimental_stims/hammer/hammer04.jpg,0.0,hammer,desk,60.0,40.0,hammer2,desk8,40.0,60.0,0.0,47.138,0.638,,,,,,
72,,confirmation,,html-keyboard-response,72,151712,0.0-1.0-15.0-0.0-1.0-0.0,0,0,72837,,,,,,13.0,,,,,1.0,,,,,,,,,,,,,,,,,,,,,,,,,,,48.0,0.862,,,,,,
73,,isi,,html-keyboard-response,73,153746,0.0-1.0-15.0-0.0-2.0,0,0,72837,,,,,,13.0,,,,,1.0,,,,,,,,,,,,,,,,,,,,,,,,,,,50.0,2.0,,,,,,
74,,feedback,,html-keyboard-response,74,154774,0.0-1.0-15.0-0.0-3.0-0.0,0,0,72837,,,,,,13.0,,,,,1.0,,,,,,,,,,,,,,,,,,,,,,,,,,,51.0,1.0,,,,,,
75,,iti,,html-keyboard-response,75,155803,0.0-1.0-15.0-0.0-5.0,0,0,72837,,,,,,13.0,,,,,1.0,,,,,,,,,,,,,,,,,,,,,,,,,,,52.0,1.0,,,,,,
76,,choice,,html-keyboard-response,76,156781,0.0-1.0-16.0-0.0-0.0,0,0,72837,,966.0,,,68.0,14.0,14.0,2000.0,2000.0,0.0,1.0,0.0,60-60,,,license plate,hammer,60.0,60.0,license plate2,hammer5,60.0,60.0,ny-u93-8zs.jpg,hammer02.jpg,/static/Category_learning/Stimuli/Experimental_stims/license plate/ny-u93-8zs.jpg,/static/Category_learning/Stimuli/Experimental_stims/hammer/hammer02.jpg,1.0,license plate,hammer,60.0,60.0,license plate2,hammer5,60.0,60.0,0.0,52.966,0.966,,,,,,
77,,confirmation,,html-keyboard-response,77,157334,0.0-1.0-16.0-0.0-1.0-0.0,0,0,72837,,,,,,14.0,,,,,1.0,,,,,,,,,,,,,,,,,,,,,,,,,,,53.5,0.534,,,,,,
78,,isi,,html-keyboard-response,78,159346,0.0-1.0-16.0-0.0-2.0,0,0,72837,,,,,,14.0,,,,,1.0,,,,,,,,,,,,,,,,,,,,,,,,,,,55.5,2.0,,,,,,
79,,feedback,,html-keyboard-response,79,160372,0.0-1.0-16.0-0.0-3.0-0.0,0,0,72837,,,,,,14.0,,,,,1.0,,,,,,,,,,,,,,,,,,,,,,,,,,,56.5,1.0,,,,,,
80,,iti,,html-keyboard-response,80,162391,0.0-1.0-16.0-0.0-5.0,0,0,72837,,,,,,14.0,,,,,1.0,,,,,,,,,,,,,,,,,,,,,,,,,,,58.5,2.0,,,,,,
81,,choice,,html-keyboard-response,81,163216,0.0-1.0-17.0-0.0-0.0,0,0,72837,,816.0,,,68.0,15.0,15.0,1500.0,2000.0,0.0,1.0,0.0,20-20,,,train,tape,20.0,20.0,train9,tape13,20.0,20.0,train2.jpg,920152.jpg,/static/Category_learning/Stimuli/Experimental_stims/train/train2.jpg,/static/Category_learning/Stimuli/Experimental_stims/tape/920152.jpg,1.0,train,tape,20.0,20.0,train9,tape13,20.0,20.0,0.0,59.316,0.816,,,,,,
82,,confirmation,,html-keyboard-response,82,163910,0.0-1.0-17.0-0.0-1.0-0.0,0,0,72837,,,,,,15.0,,,,,1.0,,,,,,,,,,,,,,,,,,,,,,,,,,,60.0,0.684,,,,,,
83,,isi,,html-keyboard-response,83,165424,0.0-1.0-17.0-0.0-2.0,0,0,72837,,,,,,15.0,,,,,1.0,,,,,,,,,,,,,,,,,,,,,,,,,,,61.5,1.5,,,,,,
84,,feedback,,html-keyboard-response,84,166453,0.0-1.0-17.0-0.0-3.0-0.0,0,0,72837,,,,,,15.0,,,,,1.0,,,,,,,,,,,,,,,,,,,,,,,,,,,62.5,1.0,,,,,,
85,,iti,,html-keyboard-response,85,168467,0.0-1.0-17.0-0.0-5.0,0,0,72837,,,,,,15.0,,,,,1.0,,,,,,,,,,,,,,,,,,,,,,,,,,,64.5,2.0,,,,,,
86,,choice,,html-keyboard-response,86,169198,0.0-1.0-18.0-0.0-0.0,0,0,72837,,723.0,,,68.0,16.0,16.0,1500.0,2000.0,0.0,1.0,0.0,20-40,,0.0,trumpet,bongo,20.0,40.0,trumpet10,bongo14,40.0,40.0,trumpet2.jpg,26390667.thl.jpg,/static/Category_learning/Stimuli/Experimental_stims/trumpet/trumpet2.jpg,/static/Category_learning/Stimuli/Experimental_stims/bongo/26390667.thl.jpg,1.0,trumpet,bongo,20.0,40.0,trumpet10,bongo14,40.0,40.0,0.0,65.223,0.723,,,,,,
87,,confirmation,,html-keyboard-response,87,169998,0.0-1.0-18.0-0.0-1.0-0.0,0,0,72837,,,,,,16.0,,,,,1.0,,,,,,,,,,,,,,,,,,,,,,,,,,,66.0,0.777,,,,,,
88,,isi,,html-keyboard-response,88,171523,0.0-1.0-18.0-0.0-2.0,0,0,72837,,,,,,16.0,,,,,1.0,,,,,,,,,,,,,,,,,,,,,,,,,,,67.5,1.5,,,,,,
89,,feedback,,html-keyboard-response,89,172552,0.0-1.0-18.0-0.0-3.0-0.0,0,0,72837,,,,,,16.0,,,,,1.0,,,,,,,,,,,,,,,,,,,,,,,,,,,68.5,1.0,,,,,,
90,,iti,,html-keyboard-response,90,174564,0.0-1.0-18.0-0.0-5.0,0,0,72837,,,,,,16.0,,,,,1.0,,,,,,,,,,,,,,,,,,,,,,,,,,,70.5,2.0,,,,,,
91,,choice,,html-keyboard-response,91,175036,0.0-1.0-19.0-0.0-0.0,0,0,72837,,463.0,,,68.0,17.0,17.0,2000.0,3500.0,0.0,1.0,0.0,20-60,,0.0,trumpet,lipstick,20.0,60.0,trumpet1,lipstick4,40.0,60.0,JUPITER+TROMPETTE+606MRL.JPG,P145703_hero.jpg,/static/Category_learning/Stimuli/Experimental_stims/trumpet/JUPITER+TROMPETTE+606MRL.JPG,/static/Category_learning/Stimuli/Experimental_stims/lipstick/P145703_hero.jpg,1.0,trumpet,lipstick,20.0,60.0,trumpet1,lipstick4,40.0,60.0,0.0,70.963,0.463,,,,,,
92,,confirmation,,html-keyboard-response,92,176093,0.0-1.0-19.0-0.0-1.0-0.0,0,0,72837,,,,,,17.0,,,,,1.0,,,,,,,,,,,,,,,,,,,,,,,,,,,72.0,1.037,,,,,,
93,,isi,,html-keyboard-response,93,178113,0.0-1.0-19.0-0.0-2.0,0,0,72837,,,,,,17.0,,,,,1.0,,,,,,,,,,,,,,,,,,,,,,,,,,,74.0,2.0,,,,,,
94,,feedback,,html-keyboard-response,94,179124,0.0-1.0-19.0-0.0-3.0-0.0,0,0,72837,,,,,,17.0,,,,,1.0,,,,,,,,,,,,,,,,,,,,,,,,,,,75.0,1.0,,,,,,
95,,iti,,html-keyboard-response,95,182636,0.0-1.0-19.0-0.0-5.0,0,0,72837,,,,,,17.0,,,,,1.0,,,,,,,,,,,,,,,,,,,,,,,,,,,78.5,3.5,,,,,,
96,,choice,,html-keyboard-response,96,183166,0.0-1.0-20.0-0.0-0.0,0,0,72837,,521.0,,,68.0,18.0,18.0,1500.0,2000.0,0.0,1.0,1.0,20-20,1.0,,trumpet,trumpet,20.0,20.0,trumpet1,trumpet10,40.0,40.0,JUPITER+TROMPETTE+606MRL.JPG,trumpet2.jpg,/static/Category_learning/Stimuli/Experimental_stims/trumpet/JUPITER+TROMPETTE+606MRL.JPG,/static/Category_learning/Stimuli/Experimental_stims/trumpet/trumpet2.jpg,1.0,trumpet,trumpet,20.0,20.0,trumpet1,trumpet10,40.0,40.0,0.0,79.021,0.521,,,,,,
97,,confirmation,,html-keyboard-response,97,184159,0.0-1.0-20.0-0.0-1.0-0.0,0,0,72837,,,,,,18.0,,,,,1.0,,,,,,,,,,,,,,,,,,,,,,,,,,,80.0,0.979,,,,,,
98,,isi,,html-keyboard-response,98,185679,0.0-1.0-20.0-0.0-2.0,0,0,72837,,,,,,18.0,,,,,1.0,,,,,,,,,,,,,,,,,,,,,,,,,,,81.5,1.5,,,,,,
99,,feedback,,html-keyboard-response,99,186691,0.0-1.0-20.0-0.0-3.0-0.0,0,0,72837,,,,,,18.0,,,,,1.0,,,,,,,,,,,,,,,,,,,,,,,,,,,82.5,1.0,,,,,,
100,,iti,,html-keyboard-response,100,188713,0.0-1.0-20.0-0.0-5.0,0,0,72837,,,,,,18.0,,,,,1.0,,,,,,,,,,,,,,,,,,,,,,,,,,,84.5,2.0,,,,,,
101,,choice,,html-keyboard-response,101,189252,0.0-1.0-21.0-0.0-0.0,0,0,72837,,532.0,,,75.0,19.0,19.0,1500.0,1000.0,0.0,1.0,0.0,20-60,,0.0,train,motorcycle,20.0,60.0,train6,motorcycle10,0.0,40.0,train9.jpg,motorcycle17.jpg,/static/Category_learning/Stimuli/Experimental_stims/train/train9.jpg,/static/Category_learning/Stimuli/Experimental_stims/motorcycle/motorcycle17.jpg,0.0,motorcycle,train,60.0,20.0,motorcycle10,train6,40.0,0.0,0.0,85.032,0.532,,,,,,
102,,confirmation,,html-keyboard-response,102,190231,0.0-1.0-21.0-0.0-1.0-0.0,0,0,72837,,,,,,19.0,,,,,1.0,,,,,,,,,,,,,,,,,,,,,,,,,,,86.0,0.968,,,,,,
103,,isi,,html-keyboard-response,103,191744,0.0-1.0-21.0-0.0-2.0,0,0,72837,,,,,,19.0,,,,,1.0,,,,,,,,,,,,,,,,,,,,,,,,,,,87.5,1.5,,,,,,
104,,feedback,,html-keyboard-response,104,192783,0.0-1.0-21.0-0.0-3.0-0.0,0,0,72837,,,,,,19.0,,,,,1.0,,,,,,,,,,,,,,,,,,,,,,,,,,,88.5,1.0,,,,,,
105,,iti,,html-keyboard-response,105,193794,0.0-1.0-21.0-0.0-5.0,0,0,72837,,,,,,19.0,,,,,1.0,,,,,,,,,,,,,,,,,,,,,,,,,,,89.5,1.0,,,,,,
106,,choice,,html-keyboard-response,106,194399,0.0-1.0-22.0-0.0-0.0,0,0,72837,,593.0,,,75.0,20.0,20.0,1000.0,3000.0,0.0,1.0,0.0,40-60,,0.0,dresser,license plate,40.0,60.0,dresser9,license plate9,20.0,80.0,ADRESSER.jpg,nm-dhg089.jpg,/static/Category_learning/Stimuli/Experimental_stims/dresser/ADRESSER.jpg,/static/Category_learning/Stimuli/Experimental_stims/license plate/nm-dhg089.jpg,0.0,license plate,dresser,60.0,40.0,license plate9,dresser9,80.0,20.0,0.0,90.093,0.593,,,,,,
107,,confirmation,,html-keyboard-response,107,195323,0.0-1.0-22.0-0.0-1.0-0.0,0,0,72837,,,,,,20.0,,,,,1.0,,,,,,,,,,,,,,,,,,,,,,,,,,,91.0,0.907,,,,,,
108,,isi,,html-keyboard-response,108,196345,0.0-1.0-22.0-0.0-2.0,0,0,72837,,,,,,20.0,,,,,1.0,,,,,,,,,,,,,,,,,,,,,,,,,,,92.0,1.0,,,,,,
109,,feedback,,html-keyboard-response,109,197372,0.0-1.0-22.0-0.0-3.0-0.0,0,0,72837,,,,,,20.0,,,,,1.0,,,,,,,,,,,,,,,,,,,,,,,,,,,93.0,1.0,,,,,,
110,,iti,,html-keyboard-response,110,200389,0.0-1.0-22.0-0.0-5.0,0,0,72837,,,,,,20.0,,,,,1.0,,,,,,,,,,,,,,,,,,,,,,,,,,,96.0,3.0,,,,,,
111,,choice,,html-keyboard-response,111,201094,0.0-1.0-23.0-0.0-0.0,0,0,72837,,689.0,,,68.0,21.0,21.0,2000.0,1000.0,0.0,1.0,0.0,40-80,,1.0,seashell,desk,80.0,40.0,seashell4,desk3,60.0,60.0,seashell.jpg,D-1 Four drawers desk Elm 64x23x33.jpg,/static/Category_learning/Stimuli/Experimental_stims/seashell/seashell.jpg,/static/Category_learning/Stimuli/Experimental_stims/desk/D-1 Four drawers desk Elm 64x23x33.jpg,1.0,seashell,desk,80.0,40.0,seashell4,desk3,60.0,60.0,0.0,96.689,0.689,,,,,,
112,,confirmation,,html-keyboard-response,112,201933,0.0-1.0-23.0-0.0-1.0-0.0,0,0,72837,,,,,,21.0,,,,,1.0,,,,,,,,,,,,,,,,,,,,,,,,,,,97.5,0.811,,,,,,
113,,isi,,html-keyboard-response,113,203974,0.0-1.0-23.0-0.0-2.0,0,0,72837,,,,,,21.0,,,,,1.0,,,,,,,,,,,,,,,,,,,,,,,,,,,99.5,2.0,,,,,,
114,,feedback,,html-keyboard-response,114,205005,0.0-1.0-23.0-0.0-3.0-0.0,0,0,72837,,,,,,21.0,,,,,1.0,,,,,,,,,,,,,,,,,,,,,,,,,,,100.5,1.0,,,,,,
115,,iti,,html-keyboard-response,115,206024,0.0-1.0-23.0-0.0-5.0,0,0,72837,,,,,,21.0,,,,,1.0,,,,,,,,,,,,,,,,,,,,,,,,,,,101.5,1.0,,,,,,
116,,choice,,html-keyboard-response,116,206605,0.0-1.0-24.0-0.0-0.0,0,0,72837,,575.0,,,75.0,22.0,22.0,1000.0,3500.0,0.0,1.0,0.0,20-40,,1.0,bench,yarn,40.0,20.0,bench5,yarn5,20.0,0.0,APARKBEN8.jpg,Aballofyarn14.jpg,/static/Category_learning/Stimuli/Experimental_stims/bench/APARKBEN8.jpg,/static/Category_learning/Stimuli/Experimental_stims/yarn/Aballofyarn14.jpg,0.0,yarn,bench,20.0,40.0,yarn5,bench5,0.0,20.0,0.0,102.075,0.575,,,,,,
117,,confirmation,,html-keyboard-response,117,207547,0.0-1.0-24.0-0.0-1.0-0.0,0,0,72837,,,,,,22.0,,,,,1.0,,,,,,,,,,,,,,,,,,,,,,,,,,,103.0,0.925,,,,,,
118,,isi,,html-keyboard-response,118,208558,0.0-1.0-24.0-0.0-2.0,0,0,72837,,,,,,22.0,,,,,1.0,,,,,,,,,,,,,,,,,,,,,,,,,,,104.0,1.0,,,,,,
119,,feedback,,html-keyboard-response,119,209585,0.0-1.0-24.0-0.0-3.0-0.0,0,0,72837,,,,,,22.0,,,,,1.0,,,,,,,,,,,,,,,,,,,,,,,,,,,105.0,1.0,,,,,,
120,,iti,,html-keyboard-response,120,213111,0.0-1.0-24.0-0.0-5.0,0,0,72837,,,,,,22.0,,,,,1.0,,,,,,,,,,,,,,,,,,,,,,,,,,,108.5,3.5,,,,,,
121,,choice,,html-keyboard-response,121,213695,0.0-1.0-25.0-0.0-0.0,0,0,72837,,571.0,,,68.0,23.0,23.0,2000.0,1500.0,0.0,1.0,0.0,60-80,,1.0,necklace,hammer,80.0,60.0,necklace6,hammer6,100.0,80.0,Agoldnecklace.jpg,hammer03.jpg,/static/Category_learning/Stimuli/Experimental_stims/necklace/Agoldnecklace.jpg,/static/Category_learning/Stimuli/Experimental_stims/hammer/hammer03.jpg,1.0,necklace,hammer,80.0,60.0,necklace6,hammer6,100.0,80.0,0.0,109.071,0.571,,,,,,
122,,confirmation,,html-keyboard-response,122,214644,0.0-1.0-25.0-0.0-1.0-0.0,0,0,72837,,,,,,23.0,,,,,1.0,,,,,,,,,,,,,,,,,,,,,,,,,,,110.0,0.929,,,,,,
123,,isi,,html-keyboard-response,123,216657,0.0-1.0-25.0-0.0-2.0,0,0,72837,,,,,,23.0,,,,,1.0,,,,,,,,,,,,,,,,,,,,,,,,,,,112.0,2.0,,,,,,
124,,feedback,,html-keyboard-response,124,217678,0.0-1.0-25.0-0.0-3.0-0.0,0,0,72837,,,,,,23.0,,,,,1.0,,,,,,,,,,,,,,,,,,,,,,,,,,,113.0,1.0,,,,,,
125,,iti,,html-keyboard-response,125,219186,0.0-1.0-25.0-0.0-5.0,0,0,72837,,,,,,23.0,,,,,1.0,,,,,,,,,,,,,,,,,,,,,,,,,,,114.5,1.5,,,,,,
126,,choice,,html-keyboard-response,126,219789,0.0-1.0-26.0-0.0-0.0,0,0,72837,,598.0,,,68.0,24.0,24.0,3500.0,1500.0,0.0,1.0,0.0,20-20,,,watch,yarn,20.0,20.0,watch4,yarn9,40.0,40.0,B000EI2NBW.01._AA280_SCLZZZZZZZ_.jpg,Aballofyarn26.jpg,/static/Category_learning/Stimuli/Experimental_stims/watch/B000EI2NBW.01._AA280_SCLZZZZZZZ_.jpg,/static/Category_learning/Stimuli/Experimental_stims/yarn/Aballofyarn26.jpg,1.0,watch,yarn,20.0,20.0,watch4,yarn9,40.0,40.0,0.0,115.098,0.598,,,,,,
127,,confirmation,,html-keyboard-response,127,220714,0.0-1.0-26.0-0.0-1.0-0.0,0,0,72837,,,,,,24.0,,,,,1.0,,,,,,,,,,,,,,,,,,,,,,,,,,,116.0,0.902,,,,,,
128,,isi,,html-keyboard-response,128,224245,0.0-1.0-26.0-0.0-2.0,0,0,72837,,,,,,24.0,,,,,1.0,,,,,,,,,,,,,,,,,,,,,,,,,,,119.5,3.5,,,,,,
129,,feedback,,html-keyboard-response,129,225261,0.0-1.0-26.0-0.0-3.0-0.0,0,0,72837,,,,,,24.0,,,,,1.0,,,,,,,,,,,,,,,,,,,,,,,,,,,120.5,1.0,,,,,,
130,,iti,,html-keyboard-response,130,226777,0.0-1.0-26.0-0.0-5.0,0,0,72837,,,,,,24.0,,,,,1.0,,,,,,,,,,,,,,,,,,,,,,,,,,,122.0,1.5,,,,,,
131,,choice,,html-keyboard-response,131,227358,0.0-1.0-27.0-0.0-0.0,0,0,72837,,568.0,,,68.0,25.0,25.0,1000.0,1000.0,0.0,1.0,0.0,40-60,,1.0,motorcycle,door knob,60.0,40.0,motorcycle15,door knob1,80.0,40.0,2006-Buell-LightningXB12Sa.jpg,Brass_Door_Handle.jpg,/static/Category_learning/Stimuli/Experimental_stims/motorcycle/2006-Buell-LightningXB12Sa.jpg,/static/Category_learning/Stimuli/Experimental_stims/door knob/Brass_Door_Handle.jpg,1.0,motorcycle,door knob,60.0,40.0,motorcycle15,door knob1,80.0,40.0,0.0,122.568,0.568,,,,,,
132,,confirmation,,html-keyboard-response,132,228305,0.0-1.0-27.0-0.0-1.0-0.0,0,0,72837,,,,,,25.0,,,,,1.0,,,,,,,,,,,,,,,,,,,,,,,,,,,123.5,0.932,,,,,,
133,,isi,,html-keyboard-response,133,229333,0.0-1.0-27.0-0.0-2.0,0,0,72837,,,,,,25.0,,,,,1.0,,,,,,,,,,,,,,,,,,,,,,,,,,,124.5,1.0,,,,,,
134,,feedback,,html-keyboard-response,134,230348,0.0-1.0-27.0-0.0-3.0-0.0,0,0,72837,,,,,,25.0,,,,,1.0,,,,,,,,,,,,,,,,,,,,,,,,,,,125.5,1.0,,,,,,
135,,iti,,html-keyboard-response,135,231360,0.0-1.0-27.0-0.0-5.0,0,0,72837,,,,,,25.0,,,,,1.0,,,,,,,,,,,,,,,,,,,,,,,,,,,126.5,1.0,,,,,,
136,,choice,,html-keyboard-response,136,231870,0.0-1.0-28.0-0.0-0.0,0,0,72837,,504.0,,,68.0,26.0,26.0,1000.0,1000.0,0.0,1.0,0.0,40-60,,1.0,hammer,door knob,60.0,40.0,hammer8,door knob10,40.0,20.0,ct1006_hammer.jpg,c02a578d-c6cc-44ca-8dd2-de8901e30bd7_4.jpg,/static/Category_learning/Stimuli/Experimental_stims/hammer/ct1006_hammer.jpg,/static/Category_learning/Stimuli/Experimental_stims/door knob/c02a578d-c6cc-44ca-8dd2-de8901e30bd7_4.jpg,1.0,hammer,door knob,60.0,40.0,hammer8,door knob10,40.0,20.0,0.0,127.004,0.504,,,,,,
137,,confirmation,,html-keyboard-response,137,232887,0.0-1.0-28.0-0.0-1.0-0.0,0,0,72837,,,,,,26.0,,,,,1.0,,,,,,,,,,,,,,,,,,,,,,,,,,,128.0,0.996,,,,,,
138,,isi,,html-keyboard-response,138,233909,0.0-1.0-28.0-0.0-2.0,0,0,72837,,,,,,26.0,,,,,1.0,,,,,,,,,,,,,,,,,,,,,,,,,,,129.0,1.0,,,,,,
139,,feedback,,html-keyboard-response,139,234927,0.0-1.0-28.0-0.0-3.0-0.0,0,0,72837,,,,,,26.0,,,,,1.0,,,,,,,,,,,,,,,,,,,,,,,,,,,130.0,1.0,,,,,,
140,,iti,,html-keyboard-response,140,235952,0.0-1.0-28.0-0.0-5.0,0,0,72837,,,,,,26.0,,,,,1.0,,,,,,,,,,,,,,,,,,,,,,,,,,,131.0,1.0,,,,,,
141,,choice,,html-keyboard-response,141,236643,0.0-1.0-29.0-0.0-0.0,0,0,72837,,680.0,,,75.0,27.0,27.0,1500.0,1000.0,0.0,1.0,0.0,20-80,,1.0,small table,vase,80.0,20.0,small table7,vase4,80.0,40.0,ATABLE89.jpg,Avase111.jpg,/static/Category_learning/Stimuli/Experimental_stims/small table/ATABLE89.jpg,/static/Category_learning/Stimuli/Experimental_stims/vase/Avase111.jpg,0.0,vase,small table,20.0,80.0,vase4,small table7,40.0,80.0,0.0,131.68,0.68,,,,,,
142,,confirmation,,html-keyboard-response,142,237484,0.0-1.0-29.0-0.0-1.0-0.0,0,0,72837,,,,,,27.0,,,,,1.0,,,,,,,,,,,,,,,,,,,,,,,,,,,132.5,0.82,,,,,,
143,,isi,,html-keyboard-response,143,238991,0.0-1.0-29.0-0.0-2.0,0,0,72837,,,,,,27.0,,,,,1.0,,,,,,,,,,,,,,,,,,,,,,,,,,,134.0,1.5,,,,,,
144,,feedback,,html-keyboard-response,144,240010,0.0-1.0-29.0-0.0-3.0-0.0,0,0,72837,,,,,,27.0,,,,,1.0,,,,,,,,,,,,,,,,,,,,,,,,,,,135.0,1.0,,,,,,
145,,iti,,html-keyboard-response,145,241022,0.0-1.0-29.0-0.0-5.0,0,0,72837,,,,,,27.0,,,,,1.0,,,,,,,,,,,,,,,,,,,,,,,,,,,136.0,1.0,,,,,,
146,,choice,,html-keyboard-response,146,241784,0.0-1.0-30.0-0.0-0.0,0,0,72837,,752.0,,,75.0,28.0,28.0,1000.0,1000.0,0.0,1.0,1.0,60-60,1.0,,license plate,license plate,60.0,60.0,license plate2,license plate9,60.0,80.0,ny-u93-8zs.jpg,nm-dhg089.jpg,/static/Category_learning/Stimuli/Experimental_stims/license plate/ny-u93-8zs.jpg,/static/Category_learning/Stimuli/Experimental_stims/license plate/nm-dhg089.jpg,0.0,license plate,license plate,60.0,60.0,license plate9,license plate2,80.0,60.0,0.0,136.752,0.752,,,,,,
147,,confirmation,,html-keyboard-response,147,242541,0.0-1.0-30.0-0.0-1.0-0.0,0,0,72837,,,,,,28.0,,,,,1.0,,,,,,,,,,,,,,,,,,,,,,,,,,,137.5,0.748,,,,,,
148,,isi,,html-keyboard-response,148,243563,0.0-1.0-30.0-0.0-2.0,0,0,72837,,,,,,28.0,,,,,1.0,,,,,,,,,,,,,,,,,,,,,,,,,,,138.5,1.0,,,,,,
149,,feedback,,html-keyboard-response,149,244584,0.0-1.0-30.0-0.0-3.0-0.0,0,0,72837,,,,,,28.0,,,,,1.0,,,,,,,,,,,,,,,,,,,,,,,,,,,139.5,1.0,,,,,,
150,,iti,,html-keyboard-response,150,245597,0.0-1.0-30.0-0.0-5.0,0,0,72837,,,,,,28.0,,,,,1.0,,,,,,,,,,,,,,,,,,,,,,,,,,,140.5,1.0,,,,,,
151,,choice,,html-keyboard-response,151,246438,0.0-1.0-31.0-0.0-0.0,0,0,72837,,827.0,,,68.0,29.0,29.0,3500.0,1000.0,0.0,1.0,0.0,40-40,,,fan,bench,40.0,40.0,fan5,bench12,20.0,20.0,Table_Fan.jpg,22927976.thl.jpg,/static/Category_learning/Stimuli/Experimental_stims/fan/Table_Fan.jpg,/static/Category_learning/Stimuli/Experimental_stims/bench/22927976.thl.jpg,1.0,fan,bench,40.0,40.0,fan5,bench12,20.0,20.0,0.0,141.327,0.827,,,,,,
152,,confirmation,,html-keyboard-response,152,247145,0.0-1.0-31.0-0.0-1.0-0.0,0,0,72837,,,,,,29.0,,,,,1.0,,,,,,,,,,,,,,,,,,,,,,,,,,,142.0,0.673,,,,,,
153,,isi,,html-keyboard-response,153,250659,0.0-1.0-31.0-0.0-2.0,0,0,72837,,,,,,29.0,,,,,1.0,,,,,,,,,,,,,,,,,,,,,,,,,,,145.5,3.5,,,,,,
154,,feedback,,html-keyboard-response,154,251682,0.0-1.0-31.0-0.0-3.0-0.0,0,0,72837,,,,,,29.0,,,,,1.0,,,,,,,,,,,,,,,,,,,,,,,,,,,146.5,1.0,,,,,,
155,,iti,,html-keyboard-response,155,252691,0.0-1.0-31.0-0.0-5.0,0,0,72837,,,,,,29.0,,,,,1.0,,,,,,,,,,,,,,,,,,,,,,,,,,,147.5,1.0,,,,,,
156,,choice,,html-keyboard-response,156,253192,0.0-1.0-32.0-0.0-0.0,0,0,72837,,493.0,,,75.0,30.0,30.0,1000.0,3000.0,0.0,1.0,1.0,60-60,1.0,,motorcycle,motorcycle,60.0,60.0,motorcycle10,motorcycle15,40.0,80.0,motorcycle17.jpg,2006-Buell-LightningXB12Sa.jpg,/static/Category_learning/Stimuli/Experimental_stims/motorcycle/motorcycle17.jpg,/static/Category_learning/Stimuli/Experimental_stims/motorcycle/2006-Buell-LightningXB12Sa.jpg,0.0,motorcycle,motorcycle,60.0,60.0,motorcycle15,motorcycle10,80.0,40.0,0.0,147.993,0.493,,,,,,
157,,confirmation,,html-keyboard-response,157,254208,0.0-1.0-32.0-0.0-1.0-0.0,0,0,72837,,,,,,30.0,,,,,1.0,,,,,,,,,,,,,,,,,,,,,,,,,,,149.0,1.007,,,,,,
158,,isi,,html-keyboard-response,158,255220,0.0-1.0-32.0-0.0-2.0,0,0,72837,,,,,,30.0,,,,,1.0,,,,,,,,,,,,,,,,,,,,,,,,,,,150.0,1.0,,,,,,
159,,feedback,,html-keyboard-response,159,256243,0.0-1.0-32.0-0.0-3.0-0.0,0,0,72837,,,,,,30.0,,,,,1.0,,,,,,,,,,,,,,,,,,,,,,,,,,,151.0,1.0,,,,,,
160,,iti,,html-keyboard-response,160,259258,0.0-1.0-32.0-0.0-5.0,0,0,72837,,,,,,30.0,,,,,1.0,,,,,,,,,,,,,,,,,,,,,,,,,,,154.0,3.0,,,,,,
161,,choice,,html-keyboard-response,161,259865,0.0-1.0-33.0-0.0-0.0,0,0,72837,,592.0,,,68.0,31.0,31.0,1500.0,1500.0,0.0,1.0,0.0,80-80,,,sofa,patio lounge chair,80.0,80.0,sofa15,patio lounge chair9,100.0,80.0,APEACHLOV.jpg,43-3.jpg,/static/Category_learning/Stimuli/Experimental_stims/sofa/APEACHLOV.jpg,/static/Category_learning/Stimuli/Experimental_stims/patio lounge chair/43-3.jpg,1.0,sofa,patio lounge chair,80.0,80.0,sofa15,patio lounge chair9,100.0,80.0,0.0,154.592,0.592,,,,,,
162,,confirmation,,html-keyboard-response,162,260795,0.0-1.0-33.0-0.0-1.0-0.0,0,0,72837,,,,,,31.0,,,,,1.0,,,,,,,,,,,,,,,,,,,,,,,,,,,155.5,0.908,,,,,,
163,,isi,,html-keyboard-response,163,262319,0.0-1.0-33.0-0.0-2.0,0,0,72837,,,,,,31.0,,,,,1.0,,,,,,,,,,,,,,,,,,,,,,,,,,,157.0,1.5,,,,,,
164,,feedback,,html-keyboard-response,164,263341,0.0-1.0-33.0-0.0-3.0-0.0,0,0,72837,,,,,,31.0,,,,,1.0,,,,,,,,,,,,,,,,,,,,,,,,,,,158.0,1.0,,,,,,
165,,iti,,html-keyboard-response,165,264864,0.0-1.0-33.0-0.0-5.0,0,0,72837,,,,,,31.0,,,,,1.0,,,,,,,,,,,,,,,,,,,,,,,,,,,159.5,1.5,,,,,,
166,,choice,,html-keyboard-response,166,265574,0.0-1.0-34.0-0.0-0.0,0,0,72837,,696.0,,,68.0,32.0,32.0,1000.0,1000.0,0.0,1.0,0.0,20-80,,1.0,necklace,vase,80.0,20.0,necklace1,vase12,100.0,0.0,26443173.thl.jpg,Abluevase2.jpg,/static/Category_learning/Stimuli/Experimental_stims/necklace/26443173.thl.jpg,/static/Category_learning/Stimuli/Experimental_stims/vase/Abluevase2.jpg,1.0,necklace,vase,80.0,20.0,necklace1,vase12,100.0,0.0,0.0,160.196,0.696,,,,,,
167,,confirmation,,html-keyboard-response,167,266403,0.0-1.0-34.0-0.0-1.0-0.0,0,0,72837,,,,,,32.0,,,,,1.0,,,,,,,,,,,,,,,,,,,,,,,,,,,161.0,0.804,,,,,,
168,,isi,,html-keyboard-response,168,267421,0.0-1.0-34.0-0.0-2.0,0,0,72837,,,,,,32.0,,,,,1.0,,,,,,,,,,,,,,,,,,,,,,,,,,,162.0,1.0,,,,,,
169,,feedback,,html-keyboard-response,169,268435,0.0-1.0-34.0-0.0-3.0-0.0,0,0,72837,,,,,,32.0,,,,,1.0,,,,,,,,,,,,,,,,,,,,,,,,,,,163.0,1.0,,,,,,
170,,iti,,html-keyboard-response,170,269465,0.0-1.0-34.0-0.0-5.0,0,0,72837,,,,,,32.0,,,,,1.0,,,,,,,,,,,,,,,,,,,,,,,,,,,164.0,1.0,,,,,,
171,,choice,,html-keyboard-response,171,270158,0.0-1.0-35.0-0.0-0.0,0,0,72837,,681.0,,,75.0,33.0,33.0,3500.0,1000.0,0.0,1.0,0.0,40-80,,1.0,nail polish,desk,80.0,40.0,nail polish14,desk14,80.0,20.0,38031405.JPG,26419960.thl.jpg,/static/Category_learning/Stimuli/Experimental_stims/nail polish/38031405.JPG,/static/Category_learning/Stimuli/Experimental_stims/desk/26419960.thl.jpg,0.0,desk,nail polish,40.0,80.0,desk14,nail polish14,20.0,80.0,0.0,164.681,0.681,,,,,,
172,,confirmation,,html-keyboard-response,172,271001,0.0-1.0-35.0-0.0-1.0-0.0,0,0,72837,,,,,,33.0,,,,,1.0,,,,,,,,,,,,,,,,,,,,,,,,,,,165.5,0.819,,,,,,
173,,isi,,html-keyboard-response,173,274517,0.0-1.0-35.0-0.0-2.0,0,0,72837,,,,,,33.0,,,,,1.0,,,,,,,,,,,,,,,,,,,,,,,,,,,169.0,3.5,,,,,,
174,,feedback,,html-keyboard-response,174,275545,0.0-1.0-35.0-0.0-3.0-0.0,0,0,72837,,,,,,33.0,,,,,1.0,,,,,,,,,,,,,,,,,,,,,,,,,,,170.0,1.0,,,,,,
175,,iti,,html-keyboard-response,175,276569,0.0-1.0-35.0-0.0-5.0,0,0,72837,,,,,,33.0,,,,,1.0,,,,,,,,,,,,,,,,,,,,,,,,,,,171.0,1.0,,,,,,
176,,choice,,html-keyboard-response,176,277152,0.0-1.0-36.0-0.0-0.0,0,0,72837,,571.0,,,68.0,34.0,34.0,1000.0,1000.0,0.0,1.0,1.0,80-80,1.0,,necklace,necklace,80.0,80.0,necklace6,necklace1,100.0,100.0,Agoldnecklace.jpg,26443173.thl.jpg,/static/Category_learning/Stimuli/Experimental_stims/necklace/Agoldnecklace.jpg,/static/Category_learning/Stimuli/Experimental_stims/necklace/26443173.thl.jpg,1.0,necklace,necklace,80.0,80.0,necklace6,necklace1,100.0,100.0,0.0,171.571,0.571,,,,,,
177,,confirmation,,html-keyboard-response,177,278104,0.0-1.0-36.0-0.0-1.0-0.0,0,0,72837,,,,,,34.0,,,,,1.0,,,,,,,,,,,,,,,,,,,,,,,,,,,172.5,0.929,,,,,,
178,,isi,,html-keyboard-response,178,279125,0.0-1.0-36.0-0.0-2.0,0,0,72837,,,,,,34.0,,,,,1.0,,,,,,,,,,,,,,,,,,,,,,,,,,,173.5,1.0,,,,,,
179,,feedback,,html-keyboard-response,179,280150,0.0-1.0-36.0-0.0-3.0-0.0,0,0,72837,,,,,,34.0,,,,,1.0,,,,,,,,,,,,,,,,,,,,,,,,,,,174.5,1.0,,,,,,
180,,iti,,html-keyboard-response,180,281156,0.0-1.0-36.0-0.0-5.0,0,0,72837,,,,,,34.0,,,,,1.0,,,,,,,,,,,,,,,,,,,,,,,,,,,175.5,1.0,,,,,,
181,,choice,,html-keyboard-response,181,282117,0.0-1.0-37.0-0.0-0.0,0,0,72837,,951.0,,,68.0,35.0,35.0,1000.0,1500.0,0.0,1.0,1.0,60-60,1.0,,hammer,hammer,60.0,60.0,hammer2,hammer8,40.0,40.0,hammer04.jpg,ct1006_hammer.jpg,/static/Category_learning/Stimuli/Experimental_stims/hammer/hammer04.jpg,/static/Category_learning/Stimuli/Experimental_stims/hammer/ct1006_hammer.jpg,1.0,hammer,hammer,60.0,60.0,hammer2,hammer8,40.0,40.0,0.0,176.451,0.951,,,,,,
182,,confirmation,,html-keyboard-response,182,282691,0.0-1.0-37.0-0.0-1.0-0.0,0,0,72837,,,,,,35.0,,,,,1.0,,,,,,,,,,,,,,,,,,,,,,,,,,,177.0,0.549,,,,,,
183,,isi,,html-keyboard-response,183,283711,0.0-1.0-37.0-0.0-2.0,0,0,72837,,,,,,35.0,,,,,1.0,,,,,,,,,,,,,,,,,,,,,,,,,,,178.0,1.0,,,,,,
184,,feedback,,html-keyboard-response,184,284733,0.0-1.0-37.0-0.0-3.0-0.0,0,0,72837,,,,,,35.0,,,,,1.0,,,,,,,,,,,,,,,,,,,,,,,,,,,179.0,1.0,,,,,,
185,,iti,,html-keyboard-response,185,286256,0.0-1.0-37.0-0.0-5.0,0,0,72837,,,,,,35.0,,,,,1.0,,,,,,,,,,,,,,,,,,,,,,,,,,,180.5,1.5,,,,,,
186,,choice,,html-keyboard-response,186,287140,0.0-1.0-38.0-0.0-0.0,0,0,72837,,874.0,,,75.0,36.0,36.0,3000.0,3500.0,0.0,1.0,1.0,20-80,0.0,,vase,seashell,20.0,80.0,vase4,seashell4,40.0,60.0,Avase111.jpg,seashell.jpg,/static/Category_learning/Stimuli/Experimental_stims/vase/Avase111.jpg,/static/Category_learning/Stimuli/Experimental_stims/seashell/seashell.jpg,0.0,seashell,vase,80.0,20.0,seashell4,vase4,60.0,40.0,0.0,181.374,0.874,,,,,,
187,,confirmation,,html-keyboard-response,187,287796,0.0-1.0-38.0-0.0-1.0-0.0,0,0,72837,,,,,,36.0,,,,,1.0,,,,,,,,,,,,,,,,,,,,,,,,,,,182.0,0.626,,,,,,
188,,isi,,html-keyboard-response,188,290817,0.0-1.0-38.0-0.0-2.0,0,0,72837,,,,,,36.0,,,,,1.0,,,,,,,,,,,,,,,,,,,,,,,,,,,185.0,3.0,,,,,,
189,,feedback,,html-keyboard-response,189,291834,0.0-1.0-38.0-0.0-3.0-0.0,0,0,72837,,,,,,36.0,,,,,1.0,,,,,,,,,,,,,,,,,,,,,,,,,,,186.0,1.0,,,,,,
190,,iti,,html-keyboard-response,190,295342,0.0-1.0-38.0-0.0-5.0,0,0,72837,,,,,,36.0,,,,,1.0,,,,,,,,,,,,,,,,,,,,,,,,,,,189.5,3.5,,,,,,
191,,choice,,html-keyboard-response,191,296205,0.0-1.0-39.0-0.0-0.0,0,0,72837,,852.0,,,68.0,37.0,37.0,2000.0,1000.0,0.0,1.0,0.0,40-80,,1.0,necklace,flashlight,80.0,40.0,necklace10,flashlight6,60.0,40.0,necklascenew03.jpg,Flashlight.jpg,/static/Category_learning/Stimuli/Experimental_stims/necklace/necklascenew03.jpg,/static/Category_learning/Stimuli/Experimental_stims/flashlight/Flashlight.jpg,1.0,necklace,flashlight,80.0,40.0,necklace10,flashlight6,60.0,40.0,0.0,190.352,0.852,,,,,,
192,,confirmation,,html-keyboard-response,192,296884,0.0-1.0-39.0-0.0-1.0-0.0,0,0,72837,,,,,,37.0,,,,,1.0,,,,,,,,,,,,,,,,,,,,,,,,,,,191.0,0.648,,,,,,
193,,isi,,html-keyboard-response,193,298900,0.0-1.0-39.0-0.0-2.0,0,0,72837,,,,,,37.0,,,,,1.0,,,,,,,,,,,,,,,,,,,,,,,,,,,193.0,2.0,,,,,,
194,,feedback,,html-keyboard-response,194,299933,0.0-1.0-39.0-0.0-3.0-0.0,0,0,72837,,,,,,37.0,,,,,1.0,,,,,,,,,,,,,,,,,,,,,,,,,,,194.0,1.0,,,,,,
195,,iti,,html-keyboard-response,195,300951,0.0-1.0-39.0-0.0-5.0,0,0,72837,,,,,,37.0,,,,,1.0,,,,,,,,,,,,,,,,,,,,,,,,,,,195.0,1.0,,,,,,
196,,choice,,html-keyboard-response,196,301663,0.0-1.0-40.0-0.0-0.0,0,0,72837,,699.0,,,75.0,38.0,38.0,1000.0,1000.0,0.0,1.0,1.0,20-80,0.0,,watch,necklace,20.0,80.0,watch4,necklace10,40.0,60.0,B000EI2NBW.01._AA280_SCLZZZZZZZ_.jpg,necklascenew03.jpg,/static/Category_learning/Stimuli/Experimental_stims/watch/B000EI2NBW.01._AA280_SCLZZZZZZZ_.jpg,/static/Category_learning/Stimuli/Experimental_stims/necklace/necklascenew03.jpg,0.0,necklace,watch,80.0,20.0,necklace10,watch4,60.0,40.0,0.0,195.699,0.699,,,,,,
197,,confirmation,,html-keyboard-response,197,302490,0.0-1.0-40.0-0.0-1.0-0.0,0,0,72837,,,,,,38.0,,,,,1.0,,,,,,,,,,,,,,,,,,,,,,,,,,,196.5,0.801,,,,,,
198,,isi,,html-keyboard-response,198,303502,0.0-1.0-40.0-0.0-2.0,0,0,72837,,,,,,38.0,,,,,1.0,,,,,,,,,,,,,,,,,,,,,,,,,,,197.5,1.0,,,,,,
199,,feedback,,html-keyboard-response,199,304523,0.0-1.0-40.0-0.0-3.0-0.0,0,0,72837,,,,,,38.0,,,,,1.0,,,,,,,,,,,,,,,,,,,,,,,,,,,198.5,1.0,,,,,,
200,,iti,,html-keyboard-response,200,305542,0.0-1.0-40.0-0.0-5.0,0,0,72837,,,,,,38.0,,,,,1.0,,,,,,,,,,,,,,,,,,,,,,,,,,,199.5,1.0,,,,,,
201,,choice,,html-keyboard-response,201,306235,0.0-1.0-41.0-0.0-0.0,0,0,72837,,680.0,,,75.0,39.0,39.0,1000.0,1500.0,0.0,1.0,0.0,20-60,,1.0,hat,stool,60.0,20.0,hat1,stool8,60.0,0.0,AGREENHAT.jpg,ASTOOL33.jpg,/static/Category_learning/Stimuli/Experimental_stims/hat/AGREENHAT.jpg,/static/Category_learning/Stimuli/Experimental_stims/stool/ASTOOL33.jpg,0.0,stool,hat,20.0,60.0,stool8,hat1,0.0,60.0,0.0,200.18,0.68,,,,,,
202,,confirmation,,html-keyboard-response,202,307070,0.0-1.0-41.0-0.0-1.0-0.0,0,0,72837,,,,,,39.0,,,,,1.0,,,,,,,,,,,,,,,,,,,,,,,,,,,201.0,0.82,,,,,,
203,,isi,,html-keyboard-response,203,308096,0.0-1.0-41.0-0.0-2.0,0,0,72837,,,,,,39.0,,,,,1.0,,,,,,,,,,,,,,,,,,,,,,,,,,,202.0,1.0,,,,,,
204,,feedback,,html-keyboard-response,204,309118,0.0-1.0-41.0-0.0-3.0-0.0,0,0,72837,,,,,,39.0,,,,,1.0,,,,,,,,,,,,,,,,,,,,,,,,,,,203.0,1.0,,,,,,
205,,iti,,html-keyboard-response,205,310635,0.0-1.0-41.0-0.0-5.0,0,0,72837,,,,,,39.0,,,,,1.0,,,,,,,,,,,,,,,,,,,,,,,,,,,204.5,1.5,,,,,,
206,,choice,,html-keyboard-response,206,311525,0.0-1.0-42.0-0.0-0.0,0,0,72837,,878.0,,,68.0,40.0,40.0,1000.0,3500.0,0.0,1.0,0.0,20-80,,0.0,tape,power strip,20.0,80.0,tape9,power strip10,40.0,80.0,desk tape disp.jpg,6bd437c9-6165-4d36-bf75-9a1038783c6a_400.jpg,/static/Category_learning/Stimuli/Experimental_stims/tape/desk tape disp.jpg,/static/Category_learning/Stimuli/Experimental_stims/power strip/6bd437c9-6165-4d36-bf75-9a1038783c6a_400.jpg,1.0,tape,power strip,20.0,80.0,tape9,power strip10,40.0,80.0,0.0,205.378,0.878,,,,,,
207,,confirmation,,html-keyboard-response,207,312175,0.0-1.0-42.0-0.0-1.0-0.0,0,0,72837,,,,,,40.0,,,,,1.0,,,,,,,,,,,,,,,,,,,,,,,,,,,206.0,0.622,,,,,,
208,,isi,,html-keyboard-response,208,313191,0.0-1.0-42.0-0.0-2.0,0,0,72837,,,,,,40.0,,,,,1.0,,,,,,,,,,,,,,,,,,,,,,,,,,,207.0,1.0,,,,,,
209,,feedback,,html-keyboard-response,209,314213,0.0-1.0-42.0-0.0-3.0-0.0,0,0,72837,,,,,,40.0,,,,,1.0,,,,,,,,,,,,,,,,,,,,,,,,,,,208.0,1.0,,,,,,
210,,iti,,html-keyboard-response,210,317729,0.0-1.0-42.0-0.0-5.0,0,0,72837,,,,,,40.0,,,,,1.0,,,,,,,,,,,,,,,,,,,,,,,,,,,211.5,3.5,,,,,,
211,,choice,,html-keyboard-response,211,318673,0.0-1.0-43.0-0.0-0.0,0,0,72837,,936.0,,,75.0,41.0,41.0,1500.0,1000.0,0.0,1.0,0.0,20-80,,0.0,tape,poker card,20.0,80.0,tape12,poker card4,40.0,60.0,Frog-Tape-Dispenser_F02218A2.jpg,22864728.thl.jpg,/static/Category_learning/Stimuli/Experimental_stims/tape/Frog-Tape-Dispenser_F02218A2.jpg,/static/Category_learning/Stimuli/Experimental_stims/poker card/22864728.thl.jpg,0.0,poker card,tape,80.0,20.0,poker card4,tape12,60.0,40.0,0.0,212.436,0.936,,,,,,
212,,confirmation,,html-keyboard-response,212,319261,0.0-1.0-43.0-0.0-1.0-0.0,0,0,72837,,,,,,41.0,,,,,1.0,,,,,,,,,,,,,,,,,,,,,,,,,,,213.0,0.564,,,,,,
213,,isi,,html-keyboard-response,213,320784,0.0-1.0-43.0-0.0-2.0,0,0,72837,,,,,,41.0,,,,,1.0,,,,,,,,,,,,,,,,,,,,,,,,,,,214.5,1.5,,,,,,
214,,feedback,,html-keyboard-response,214,321801,0.0-1.0-43.0-0.0-3.0-0.0,0,0,72837,,,,,,41.0,,,,,1.0,,,,,,,,,,,,,,,,,,,,,,,,,,,215.5,1.0,,,,,,
215,,iti,,html-keyboard-response,215,322822,0.0-1.0-43.0-0.0-5.0,0,0,72837,,,,,,41.0,,,,,1.0,,,,,,,,,,,,,,,,,,,,,,,,,,,216.5,1.0,,,,,,
216,,choice,,html-keyboard-response,216,323478,0.0-1.0-44.0-0.0-0.0,0,0,72837,,642.0,,,75.0,42.0,42.0,2000.0,3500.0,0.0,1.0,0.0,20-80,,1.0,power strip,telescope,80.0,20.0,power strip13,telescope2,100.0,40.0,01dccef1-d4b2-4d2e-a317-f2ed46b70b4b_400.jpg,Brass-telescope-60700.jpg,/static/Category_learning/Stimuli/Experimental_stims/power strip/01dccef1-d4b2-4d2e-a317-f2ed46b70b4b_400.jpg,/static/Category_learning/Stimuli/Experimental_stims/telescope/Brass-telescope-60700.jpg,0.0,telescope,power strip,20.0,80.0,telescope2,power strip13,40.0,100.0,0.0,217.142,0.642,,,,,,
217,,confirmation,,html-keyboard-response,217,324370,0.0-1.0-44.0-0.0-1.0-0.0,0,0,72837,,,,,,42.0,,,,,1.0,,,,,,,,,,,,,,,,,,,,,,,,,,,218.0,0.858,,,,,,
218,,isi,,html-keyboard-response,218,326389,0.0-1.0-44.0-0.0-2.0,0,0,72837,,,,,,42.0,,,,,1.0,,,,,,,,,,,,,,,,,,,,,,,,,,,220.0,2.0,,,,,,
219,,feedback,,html-keyboard-response,219,327408,0.0-1.0-44.0-0.0-3.0-0.0,0,0,72837,,,,,,42.0,,,,,1.0,,,,,,,,,,,,,,,,,,,,,,,,,,,221.0,1.0,,,,,,
220,,iti,,html-keyboard-response,220,330927,0.0-1.0-44.0-0.0-5.0,0,0,72837,,,,,,42.0,,,,,1.0,,,,,,,,,,,,,,,,,,,,,,,,,,,224.5,3.5,,,,,,
221,,choice,,html-keyboard-response,221,331497,0.0-1.0-45.0-0.0-0.0,0,0,72837,,555.0,,,68.0,43.0,43.0,1000.0,2000.0,0.0,1.0,0.0,20-60,,0.0,yarn,makeup compact,20.0,60.0,yarn2,makeup compact6,20.0,80.0,Aballofyarn66.jpg,P0754_hero.jpg,/static/Category_learning/Stimuli/Experimental_stims/yarn/Aballofyarn66.jpg,/static/Category_learning/Stimuli/Experimental_stims/makeup compact/P0754_hero.jpg,1.0,yarn,makeup compact,20.0,60.0,yarn2,makeup compact6,20.0,80.0,0.0,225.055,0.555,,,,,,
222,,confirmation,,html-keyboard-response,222,332466,0.0-1.0-45.0-0.0-1.0-0.0,0,0,72837,,,,,,43.0,,,,,1.0,,,,,,,,,,,,,,,,,,,,,,,,,,,226.0,0.945,,,,,,
223,,isi,,html-keyboard-response,223,333484,0.0-1.0-45.0-0.0-2.0,0,0,72837,,,,,,43.0,,,,,1.0,,,,,,,,,,,,,,,,,,,,,,,,,,,227.0,1.0,,,,,,
224,,feedback,,html-keyboard-response,224,334501,0.0-1.0-45.0-0.0-3.0-0.0,0,0,72837,,,,,,43.0,,,,,1.0,,,,,,,,,,,,,,,,,,,,,,,,,,,228.0,1.0,,,,,,
225,,iti,,html-keyboard-response,225,336518,0.0-1.0-45.0-0.0-5.0,0,0,72837,,,,,,43.0,,,,,1.0,,,,,,,,,,,,,,,,,,,,,,,,,,,230.0,2.0,,,,,,
226,,choice,,html-keyboard-response,226,337429,0.0-1.0-46.0-0.0-0.0,0,0,72837,,907.0,,,68.0,44.0,44.0,1000.0,1000.0,0.0,1.0,0.0,20-60,,0.0,stool,makeup compact,20.0,60.0,stool15,makeup compact3,20.0,40.0,ASTOOL.jpg,P181006_hero.jpg,/static/Category_learning/Stimuli/Experimental_stims/stool/ASTOOL.jpg,/static/Category_learning/Stimuli/Experimental_stims/makeup compact/P181006_hero.jpg,1.0,stool,makeup compact,20.0,60.0,stool15,makeup compact3,20.0,40.0,0.0,230.907,0.907,,,,,,
227,,confirmation,,html-keyboard-response,227,338043,0.0-1.0-46.0-0.0-1.0-0.0,0,0,72837,,,,,,44.0,,,,,1.0,,,,,,,,,,,,,,,,,,,,,,,,,,,231.5,0.593,,,,,,
228,,isi,,html-keyboard-response,228,339054,0.0-1.0-46.0-0.0-2.0,0,0,72837,,,,,,44.0,,,,,1.0,,,,,,,,,,,,,,,,,,,,,,,,,,,232.5,1.0,,,,,,
229,,feedback,,html-keyboard-response,229,340065,0.0-1.0-46.0-0.0-3.0-0.0,0,0,72837,,,,,,44.0,,,,,1.0,,,,,,,,,,,,,,,,,,,,,,,,,,,233.5,1.0,,,,,,
230,,iti,,html-keyboard-response,230,341086,0.0-1.0-46.0-0.0-5.0,0,0,72837,,,,,,44.0,,,,,1.0,,,,,,,,,,,,,,,,,,,,,,,,,,,234.5,1.0,,,,,,
231,,choice,,html-keyboard-response,231,341700,0.0-1.0-47.0-0.0-0.0,0,0,72837,,604.0,,,75.0,45.0,45.0,1000.0,1000.0,0.0,1.0,0.0,20-20,,,tape,watch,20.0,20.0,tape6,watch15,40.0,40.0,1912.jpg,20-171-6.jpg,/static/Category_learning/Stimuli/Experimental_stims/tape/1912.jpg,/static/Category_learning/Stimuli/Experimental_stims/watch/20-171-6.jpg,0.0,watch,tape,20.0,20.0,watch15,tape6,40.0,40.0,0.0,235.104,0.604,,,,,,
232,,confirmation,,html-keyboard-response,232,342624,0.0-1.0-47.0-0.0-1.0-0.0,0,0,72837,,,,,,45.0,,,,,1.0,,,,,,,,,,,,,,,,,,,,,,,,,,,236.0,0.896,,,,,,
233,,isi,,html-keyboard-response,233,343641,0.0-1.0-47.0-0.0-2.0,0,0,72837,,,,,,45.0,,,,,1.0,,,,,,,,,,,,,,,,,,,,,,,,,,,237.0,1.0,,,,,,
234,,feedback,,html-keyboard-response,234,344658,0.0-1.0-47.0-0.0-3.0-0.0,0,0,72837,,,,,,45.0,,,,,1.0,,,,,,,,,,,,,,,,,,,,,,,,,,,238.0,1.0,,,,,,
235,,iti,,html-keyboard-response,235,345679,0.0-1.0-47.0-0.0-5.0,0,0,72837,,,,,,45.0,,,,,1.0,,,,,,,,,,,,,,,,,,,,,,,,,,,239.0,1.0,,,,,,
236,,choice,,html-keyboard-response,236,346242,0.0-1.0-48.0-0.0-0.0,0,0,72837,,552.0,,,75.0,46.0,46.0,1500.0,2000.0,0.0,1.0,0.0,40-80,,1.0,nail polish,fan,80.0,40.0,nail polish6,fan1,60.0,60.0,127_t.jpg,01393.fpx.jpg,/static/Category_learning/Stimuli/Experimental_stims/nail polish/127_t.jpg,/static/Category_learning/Stimuli/Experimental_stims/fan/01393.fpx.jpg,0.0,fan,nail polish,40.0,80.0,fan1,nail polish6,60.0,60.0,0.0,239.552,0.552,,,,,,
237,,confirmation,,html-keyboard-response,237,347213,0.0-1.0-48.0-0.0-1.0-0.0,0,0,72837,,,,,,46.0,,,,,1.0,,,,,,,,,,,,,,,,,,,,,,,,,,,240.5,0.948,,,,,,
238,,isi,,html-keyboard-response,238,348727,0.0-1.0-48.0-0.0-2.0,0,0,72837,,,,,,46.0,,,,,1.0,,,,,,,,,,,,,,,,,,,,,,,,,,,242.0,1.5,,,,,,
239,,feedback,,html-keyboard-response,239,349754,0.0-1.0-48.0-0.0-3.0-0.0,0,0,72837,,,,,,46.0,,,,,1.0,,,,,,,,,,,,,,,,,,,,,,,,,,,243.0,1.0,,,,,,
240,,iti,,html-keyboard-response,240,351782,0.0-1.0-48.0-0.0-5.0,0,0,72837,,,,,,46.0,,,,,1.0,,,,,,,,,,,,,,,,,,,,,,,,,,,245.0,2.0,,,,,,
241,,choice,,html-keyboard-response,241,352325,0.0-1.0-49.0-0.0-0.0,0,0,72837,,531.0,,,75.0,47.0,47.0,1500.0,2000.0,0.0,1.0,0.0,60-80,,1.0,pen,license plate,80.0,60.0,pen10,license plate8,100.0,60.0,VP-Raden-FP-L copy.jpg,dc-vrw-jsw.jpg,/static/Category_learning/Stimuli/Experimental_stims/pen/VP-Raden-FP-L copy.jpg,/static/Category_learning/Stimuli/Experimental_stims/license plate/dc-vrw-jsw.jpg,0.0,license plate,pen,60.0,80.0,license plate8,pen10,60.0,100.0,0.0,245.531,0.531,,,,,,
242,,confirmation,,html-keyboard-response,242,353317,0.0-1.0-49.0-0.0-1.0-0.0,0,0,72837,,,,,,47.0,,,,,1.0,,,,,,,,,,,,,,,,,,,,,,,,,,,246.5,0.969,,,,,,
243,,isi,,html-keyboard-response,243,354837,0.0-1.0-49.0-0.0-2.0,0,0,72837,,,,,,47.0,,,,,1.0,,,,,,,,,,,,,,,,,,,,,,,,,,,248.0,1.5,,,,,,
244,,feedback,,html-keyboard-response,244,355855,0.0-1.0-49.0-0.0-3.0-0.0,0,0,72837,,,,,,47.0,,,,,1.0,,,,,,,,,,,,,,,,,,,,,,,,,,,249.0,1.0,,,,,,
245,,iti,,html-keyboard-response,245,357879,0.0-1.0-49.0-0.0-5.0,0,0,72837,,,,,,47.0,,,,,1.0,,,,,,,,,,,,,,,,,,,,,,,,,,,251.0,2.0,,,,,,
246,,choice,,html-keyboard-response,246,358588,0.0-1.0-50.0-0.0-0.0,0,0,72837,,699.0,,,68.0,48.0,48.0,1500.0,1000.0,0.0,1.0,0.0,40-60,,1.0,frame,bongo,60.0,40.0,frame4,bongo11,60.0,40.0,AFRAME125.jpg,ABONGO6.jpg,/static/Category_learning/Stimuli/Experimental_stims/frame/AFRAME125.jpg,/static/Category_learning/Stimuli/Experimental_stims/bongo/ABONGO6.jpg,1.0,frame,bongo,60.0,40.0,frame4,bongo11,60.0,40.0,0.0,251.699,0.699,,,,,,
247,,confirmation,,html-keyboard-response,247,359400,0.0-1.0-50.0-0.0-1.0-0.0,0,0,72837,,,,,,48.0,,,,,1.0,,,,,,,,,,,,,,,,,,,,,,,,,,,252.5,0.801,,,,,,
248,,isi,,html-keyboard-response,248,360910,0.0-1.0-50.0-0.0-2.0,0,0,72837,,,,,,48.0,,,,,1.0,,,,,,,,,,,,,,,,,,,,,,,,,,,254.0,1.5,,,,,,
249,,feedback,,html-keyboard-response,249,361934,0.0-1.0-50.0-0.0-3.0-0.0,0,0,72837,,,,,,48.0,,,,,1.0,,,,,,,,,,,,,,,,,,,,,,,,,,,255.0,1.0,,,,,,
250,,iti,,html-keyboard-response,250,362942,0.0-1.0-50.0-0.0-5.0,0,0,72837,,,,,,48.0,,,,,1.0,,,,,,,,,,,,,,,,,,,,,,,,,,,256.0,1.0,,,,,,
251,,choice,,html-keyboard-response,251,363790,0.0-1.0-51.0-0.0-0.0,0,0,72837,,837.0,,,68.0,49.0,49.0,2000.0,2000.0,0.0,1.0,0.0,40-60,,0.0,dresser,lipstick,40.0,60.0,dresser3,lipstick1,20.0,80.0,ADRESSE79.jpg,P170102_hero.jpg,/static/Category_learning/Stimuli/Experimental_stims/dresser/ADRESSE79.jpg,/static/Category_learning/Stimuli/Experimental_stims/lipstick/P170102_hero.jpg,1.0,dresser,lipstick,40.0,60.0,dresser3,lipstick1,20.0,80.0,0.0,256.837,0.837,,,,,,
252,,confirmation,,html-keyboard-response,252,364468,0.0-1.0-51.0-0.0-1.0-0.0,0,0,72837,,,,,,49.0,,,,,1.0,,,,,,,,,,,,,,,,,,,,,,,,,,,257.5,0.663,,,,,,
253,,isi,,html-keyboard-response,253,366483,0.0-1.0-51.0-0.0-2.0,0,0,72837,,,,,,49.0,,,,,1.0,,,,,,,,,,,,,,,,,,,,,,,,,,,259.5,2.0,,,,,,
254,,feedback,,html-keyboard-response,254,367491,0.0-1.0-51.0-0.0-3.0-0.0,0,0,72837,,,,,,49.0,,,,,1.0,,,,,,,,,,,,,,,,,,,,,,,,,,,260.5,1.0,,,,,,
255,,iti,,html-keyboard-response,255,369510,0.0-1.0-51.0-0.0-5.0,0,0,72837,,,,,,49.0,,,,,1.0,,,,,,,,,,,,,,,,,,,,,,,,,,,262.5,2.0,,,,,,
256,,choice,,html-keyboard-response,256,370014,0.0-1.0-52.0-0.0-0.0,0,0,72837,,487.0,,,75.0,50.0,50.0,3500.0,1000.0,0.0,1.0,1.0,40-40,1.0,,fan,fan,40.0,40.0,fan5,fan1,20.0,60.0,Table_Fan.jpg,01393.fpx.jpg,/static/Category_learning/Stimuli/Experimental_stims/fan/Table_Fan.jpg,/static/Category_learning/Stimuli/Experimental_stims/fan/01393.fpx.jpg,0.0,fan,fan,40.0,40.0,fan1,fan5,60.0,20.0,0.0,262.987,0.487,,,,,,
257,,confirmation,,html-keyboard-response,257,371045,0.0-1.0-52.0-0.0-1.0-0.0,0,0,72837,,,,,,50.0,,,,,1.0,,,,,,,,,,,,,,,,,,,,,,,,,,,264.0,1.013,,,,,,
258,,isi,,html-keyboard-response,258,374574,0.0-1.0-52.0-0.0-2.0,0,0,72837,,,,,,50.0,,,,,1.0,,,,,,,,,,,,,,,,,,,,,,,,,,,267.5,3.5,,,,,,
259,,feedback,,html-keyboard-response,259,375601,0.0-1.0-52.0-0.0-3.0-0.0,0,0,72837,,,,,,50.0,,,,,1.0,,,,,,,,,,,,,,,,,,,,,,,,,,,268.5,1.0,,,,,,
260,,iti,,html-keyboard-response,260,376612,0.0-1.0-52.0-0.0-5.0,0,0,72837,,,,,,50.0,,,,,1.0,,,,,,,,,,,,,,,,,,,,,,,,,,,269.5,1.0,,,,,,
261,,choice,,html-keyboard-response,261,377296,0.0-1.0-53.0-0.0-0.0,0,0,72837,,670.0,,,68.0,51.0,51.0,2000.0,1000.0,0.0,1.0,0.0,60-60,,,makeup compact,microscope,60.0,60.0,makeup compact5,microscope3,40.0,40.0,P109965_hero.jpg,APDB.jpg,/static/Category_learning/Stimuli/Experimental_stims/makeup compact/P109965_hero.jpg,/static/Category_learning/Stimuli/Experimental_stims/microscope/APDB.jpg,1.0,makeup compact,microscope,60.0,60.0,makeup compact5,microscope3,40.0,40.0,0.0,270.17,0.67,,,,,,
262,,confirmation,,html-keyboard-response,262,378149,0.0-1.0-53.0-0.0-1.0-0.0,0,0,72837,,,,,,51.0,,,,,1.0,,,,,,,,,,,,,,,,,,,,,,,,,,,271.0,0.83,,,,,,
263,,isi,,html-keyboard-response,263,380180,0.0-1.0-53.0-0.0-2.0,0,0,72837,,,,,,51.0,,,,,1.0,,,,,,,,,,,,,,,,,,,,,,,,,,,273.0,2.0,,,,,,
264,,feedback,,html-keyboard-response,264,381204,0.0-1.0-53.0-0.0-3.0-0.0,0,0,72837,,,,,,51.0,,,,,1.0,,,,,,,,,,,,,,,,,,,,,,,,,,,274.0,1.0,,,,,,
265,,iti,,html-keyboard-response,265,382221,0.0-1.0-53.0-0.0-5.0,0,0,72837,,,,,,51.0,,,,,1.0,,,,,,,,,,,,,,,,,,,,,,,,,,,275.0,1.0,,,,,,
266,,choice,,html-keyboard-response,266,382890,0.0-1.0-54.0-0.0-0.0,0,0,72837,,659.0,,,75.0,52.0,52.0,1000.0,1500.0,0.0,1.0,0.0,40-80,,0.0,baby carriage,necklace,40.0,80.0,baby carriage9,necklace2,20.0,80.0,Antique baby Carriage 7.jpg,Anecklace7.jpg,/static/Category_learning/Stimuli/Experimental_stims/baby carriage/Antique baby Carriage 7.jpg,/static/Category_learning/Stimuli/Experimental_stims/necklace/Anecklace7.jpg,0.0,necklace,baby carriage,80.0,40.0,necklace2,baby carriage9,80.0,20.0,0.0,275.659,0.659,,,,,,
267,,confirmation,,html-keyboard-response,267,383766,0.0-1.0-54.0-0.0-1.0-0.0,0,0,72837,,,,,,52.0,,,,,1.0,,,,,,,,,,,,,,,,,,,,,,,,,,,276.5,0.841,,,,,,
268,,isi,,html-keyboard-response,268,384784,0.0-1.0-54.0-0.0-2.0,0,0,72837,,,,,,52.0,,,,,1.0,,,,,,,,,,,,,,,,,,,,,,,,,,,277.5,1.0,,,,,,
269,,feedback,,html-keyboard-response,269,385803,0.0-1.0-54.0-0.0-3.0-0.0,0,0,72837,,,,,,52.0,,,,,1.0,,,,,,,,,,,,,,,,,,,,,,,,,,,278.5,1.0,,,,,,
270,,iti,,html-keyboard-response,270,387318,0.0-1.0-54.0-0.0-5.0,0,0,72837,,,,,,52.0,,,,,1.0,,,,,,,,,,,,,,,,,,,,,,,,,,,280.0,1.5,,,,,,
271,,choice,,html-keyboard-response,271,387965,0.0-1.0-55.0-0.0-0.0,0,0,72837,,638.0,,,68.0,53.0,53.0,2000.0,1500.0,0.0,1.0,0.0,20-80,,0.0,watch,small table,20.0,80.0,watch12,small table12,40.0,80.0,snl003_MED.jpg,ATABLE54.jpg,/static/Category_learning/Stimuli/Experimental_stims/watch/snl003_MED.jpg,/static/Category_learning/Stimuli/Experimental_stims/small table/ATABLE54.jpg,1.0,watch,small table,20.0,80.0,watch12,small table12,40.0,80.0,0.0,280.638,0.638,,,,,,
272,,confirmation,,html-keyboard-response,272,388842,0.0-1.0-55.0-0.0-1.0-0.0,0,0,72837,,,,,,53.0,,,,,1.0,,,,,,,,,,,,,,,,,,,,,,,,,,,281.5,0.862,,,,,,
273,,isi,,html-keyboard-response,273,390857,0.0-1.0-55.0-0.0-2.0,0,0,72837,,,,,,53.0,,,,,1.0,,,,,,,,,,,,,,,,,,,,,,,,,,,283.5,2.0,,,,,,
274,,feedback,,html-keyboard-response,274,391877,0.0-1.0-55.0-0.0-3.0-0.0,0,0,72837,,,,,,53.0,,,,,1.0,,,,,,,,,,,,,,,,,,,,,,,,,,,284.5,1.0,,,,,,
275,,iti,,html-keyboard-response,275,393394,0.0-1.0-55.0-0.0-5.0,0,0,72837,,,,,,53.0,,,,,1.0,,,,,,,,,,,,,,,,,,,,,,,,,,,286.0,1.5,,,,,,
276,,choice,,html-keyboard-response,276,393957,0.0-1.0-56.0-0.0-0.0,0,0,72837,,550.0,,,75.0,54.0,54.0,1000.0,2000.0,0.0,1.0,1.0,20-20,1.0,,watch,watch,20.0,20.0,watch15,watch12,40.0,40.0,20-171-6.jpg,snl003_MED.jpg,/static/Category_learning/Stimuli/Experimental_stims/watch/20-171-6.jpg,/static/Category_learning/Stimuli/Experimental_stims/watch/snl003_MED.jpg,0.0,watch,watch,20.0,20.0,watch12,watch15,40.0,40.0,0.0,286.55,0.55,,,,,,
277,,confirmation,,html-keyboard-response,277,394922,0.0-1.0-56.0-0.0-1.0-0.0,0,0,72837,,,,,,54.0,,,,,1.0,,,,,,,,,,,,,,,,,,,,,,,,,,,287.5,0.95,,,,,,
278,,isi,,html-keyboard-response,278,395937,0.0-1.0-56.0-0.0-2.0,0,0,72837,,,,,,54.0,,,,,1.0,,,,,,,,,,,,,,,,,,,,,,,,,,,288.5,1.0,,,,,,
279,,feedback,,html-keyboard-response,279,396966,0.0-1.0-56.0-0.0-3.0-0.0,0,0,72837,,,,,,54.0,,,,,1.0,,,,,,,,,,,,,,,,,,,,,,,,,,,289.5,1.0,,,,,,
280,,iti,,html-keyboard-response,280,398987,0.0-1.0-56.0-0.0-5.0,0,0,72837,,,,,,54.0,,,,,1.0,,,,,,,,,,,,,,,,,,,,,,,,,,,291.5,2.0,,,,,,
281,,choice,,html-keyboard-response,281,399620,0.0-1.0-57.0-0.0-0.0,0,0,72837,,621.0,,,68.0,55.0,55.0,1000.0,3000.0,0.0,1.0,0.0,40-60,,1.0,motorcycle,bench,60.0,40.0,motorcycle13,bench9,60.0,40.0,2005-Buell-FireboltXB12R.jpg,26419898.thl.jpg,/static/Category_learning/Stimuli/Experimental_stims/motorcycle/2005-Buell-FireboltXB12R.jpg,/static/Category_learning/Stimuli/Experimental_stims/bench/26419898.thl.jpg,1.0,motorcycle,bench,60.0,40.0,motorcycle13,bench9,60.0,40.0,0.0,292.121,0.621,,,,,,
282,,confirmation,,html-keyboard-response,282,400519,0.0-1.0-57.0-0.0-1.0-0.0,0,0,72837,,,,,,55.0,,,,,1.0,,,,,,,,,,,,,,,,,,,,,,,,,,,293.0,0.879,,,,,,
283,,isi,,html-keyboard-response,283,401532,0.0-1.0-57.0-0.0-2.0,0,0,72837,,,,,,55.0,,,,,1.0,,,,,,,,,,,,,,,,,,,,,,,,,,,294.0,1.0,,,,,,
284,,feedback,,html-keyboard-response,284,402555,0.0-1.0-57.0-0.0-3.0-0.0,0,0,72837,,,,,,55.0,,,,,1.0,,,,,,,,,,,,,,,,,,,,,,,,,,,295.0,1.0,,,,,,
285,,iti,,html-keyboard-response,285,405571,0.0-1.0-57.0-0.0-5.0,0,0,72837,,,,,,55.0,,,,,1.0,,,,,,,,,,,,,,,,,,,,,,,,,,,298.0,3.0,,,,,,
286,,choice,,html-keyboard-response,286,406180,0.0-1.0-58.0-0.0-0.0,0,0,72837,,597.0,,,68.0,56.0,56.0,1000.0,1000.0,0.0,1.0,0.0,20-40,,1.0,baby carriage,train,40.0,20.0,baby carriage12,train4,60.0,40.0,Baby_Carriage-1.jpg,After-RHS-2-web.jpg,/static/Category_learning/Stimuli/Experimental_stims/baby carriage/Baby_Carriage-1.jpg,/static/Category_learning/Stimuli/Experimental_stims/train/After-RHS-2-web.jpg,1.0,baby carriage,train,40.0,20.0,baby carriage12,train4,60.0,40.0,0.0,298.597,0.597,,,,,,
287,,confirmation,,html-keyboard-response,287,407103,0.0-1.0-58.0-0.0-1.0-0.0,0,0,72837,,,,,,56.0,,,,,1.0,,,,,,,,,,,,,,,,,,,,,,,,,,,299.5,0.903,,,,,,
288,,isi,,html-keyboard-response,288,408119,0.0-1.0-58.0-0.0-2.0,0,0,72837,,,,,,56.0,,,,,1.0,,,,,,,,,,,,,,,,,,,,,,,,,,,300.5,1.0,,,,,,
289,,feedback,,html-keyboard-response,289,409136,0.0-1.0-58.0-0.0-3.0-0.0,0,0,72837,,,,,,56.0,,,,,1.0,,,,,,,,,,,,,,,,,,,,,,,,,,,301.5,1.0,,,,,,
290,,iti,,html-keyboard-response,290,410161,0.0-1.0-58.0-0.0-5.0,0,0,72837,,,,,,56.0,,,,,1.0,,,,,,,,,,,,,,,,,,,,,,,,,,,302.5,1.0,,,,,,
291,,choice,,html-keyboard-response,291,410846,0.0-1.0-59.0-0.0-0.0,0,0,72837,,671.0,,,68.0,57.0,57.0,3000.0,2000.0,0.0,1.0,1.0,20-20,1.0,,stool,stool,20.0,20.0,stool15,stool8,20.0,0.0,ASTOOL.jpg,ASTOOL33.jpg,/static/Category_learning/Stimuli/Experimental_stims/stool/ASTOOL.jpg,/static/Category_learning/Stimuli/Experimental_stims/stool/ASTOOL33.jpg,1.0,stool,stool,20.0,20.0,stool15,stool8,20.0,0.0,0.0,303.171,0.671,,,,,,
292,,confirmation,,html-keyboard-response,292,411686,0.0-1.0-59.0-0.0-1.0-0.0,0,0,72837,,,,,,57.0,,,,,1.0,,,,,,,,,,,,,,,,,,,,,,,,,,,304.0,0.829,,,,,,
293,,isi,,html-keyboard-response,293,414694,0.0-1.0-59.0-0.0-2.0,0,0,72837,,,,,,57.0,,,,,1.0,,,,,,,,,,,,,,,,,,,,,,,,,,,307.0,3.0,,,,,,
294,,feedback,,html-keyboard-response,294,415732,0.0-1.0-59.0-0.0-3.0-0.0,0,0,72837,,,,,,57.0,,,,,1.0,,,,,,,,,,,,,,,,,,,,,,,,,,,308.0,1.0,,,,,,
295,,iti,,html-keyboard-response,295,417757,0.0-1.0-59.0-0.0-5.0,0,0,72837,,,,,,57.0,,,,,1.0,,,,,,,,,,,,,,,,,,,,,,,,,,,310.0,2.0,,,,,,
296,,choice,,html-keyboard-response,296,418563,0.0-1.0-60.0-0.0-0.0,0,0,72837,,786.0,,,68.0,58.0,58.0,2000.0,1000.0,0.0,1.0,0.0,40-80,,0.0,flashlight,seashell,40.0,80.0,flashlight13,seashell13,60.0,100.0,834808_sk_lg.jpg,coquillage22.jpg,/static/Category_learning/Stimuli/Experimental_stims/flashlight/834808_sk_lg.jpg,/static/Category_learning/Stimuli/Experimental_stims/seashell/coquillage22.jpg,1.0,flashlight,seashell,40.0,80.0,flashlight13,seashell13,60.0,100.0,0.0,310.786,0.786,,,,,,
297,,confirmation,,html-keyboard-response,297,419293,0.0-1.0-60.0-0.0-1.0-0.0,0,0,72837,,,,,,58.0,,,,,1.0,,,,,,,,,,,,,,,,,,,,,,,,,,,311.5,0.714,,,,,,
298,,isi,,html-keyboard-response,298,421312,0.0-1.0-60.0-0.0-2.0,0,0,72837,,,,,,58.0,,,,,1.0,,,,,,,,,,,,,,,,,,,,,,,,,,,313.5,2.0,,,,,,
299,,feedback,,html-keyboard-response,299,422328,0.0-1.0-60.0-0.0-3.0-0.0,0,0,72837,,,,,,58.0,,,,,1.0,,,,,,,,,,,,,,,,,,,,,,,,,,,314.5,1.0,,,,,,
300,,iti,,html-keyboard-response,300,423342,0.0-1.0-60.0-0.0-5.0,0,0,72837,,,,,,58.0,,,,,1.0,,,,,,,,,,,,,,,,,,,,,,,,,,,315.5,1.0,,,,,,
301,,choice,,html-keyboard-response,301,424055,0.0-1.0-61.0-0.0-0.0,0,0,72837,,698.0,,,75.0,59.0,59.0,1000.0,1500.0,0.0,1.0,0.0,20-60,,0.0,watch,key chain,20.0,60.0,watch14,key chain14,0.0,40.0,HC06.jpg,Jif Keychain 285.jpg,/static/Category_learning/Stimuli/Experimental_stims/watch/HC06.jpg,/static/Category_learning/Stimuli/Experimental_stims/key chain/Jif Keychain 285.jpg,0.0,key chain,watch,60.0,20.0,key chain14,watch14,40.0,0.0,0.0,316.198,0.698,,,,,,
302,,confirmation,,html-keyboard-response,302,424876,0.0-1.0-61.0-0.0-1.0-0.0,0,0,72837,,,,,,59.0,,,,,1.0,,,,,,,,,,,,,,,,,,,,,,,,,,,317.0,0.802,,,,,,
303,,isi,,html-keyboard-response,303,425891,0.0-1.0-61.0-0.0-2.0,0,0,72837,,,,,,59.0,,,,,1.0,,,,,,,,,,,,,,,,,,,,,,,,,,,318.0,1.0,,,,,,
304,,feedback,,html-keyboard-response,304,426911,0.0-1.0-61.0-0.0-3.0-0.0,0,0,72837,,,,,,59.0,,,,,1.0,,,,,,,,,,,,,,,,,,,,,,,,,,,319.0,1.0,,,,,,
305,,iti,,html-keyboard-response,305,428429,0.0-1.0-61.0-0.0-5.0,0,0,72837,,,,,,59.0,,,,,1.0,,,,,,,,,,,,,,,,,,,,,,,,,,,320.5,1.5,,,,,,
306,,choice,,html-keyboard-response,306,429184,0.0-1.0-62.0-0.0-0.0,0,0,72837,,749.0,,,68.0,60.0,60.0,1500.0,1000.0,0.0,1.0,0.0,20-80,,0.0,watch,small table,20.0,80.0,watch8,small table2,40.0,100.0,2239.jpg,Atable126.jpg,/static/Category_learning/Stimuli/Experimental_stims/watch/2239.jpg,/static/Category_learning/Stimuli/Experimental_stims/small table/Atable126.jpg,1.0,watch,small table,20.0,80.0,watch8,small table2,40.0,100.0,0.0,321.249,0.749,,,,,,
307,,confirmation,,html-keyboard-response,307,429949,0.0-1.0-62.0-0.0-1.0-0.0,0,0,72837,,,,,,60.0,,,,,1.0,,,,,,,,,,,,,,,,,,,,,,,,,,,322.0,0.751,,,,,,
308,,isi,,html-keyboard-response,308,431470,0.0-1.0-62.0-0.0-2.0,0,0,72837,,,,,,60.0,,,,,1.0,,,,,,,,,,,,,,,,,,,,,,,,,,,323.5,1.5,,,,,,
309,,feedback,,html-keyboard-response,309,432498,0.0-1.0-62.0-0.0-3.0-0.0,0,0,72837,,,,,,60.0,,,,,1.0,,,,,,,,,,,,,,,,,,,,,,,,,,,324.5,1.0,,,,,,
310,,iti,,html-keyboard-response,310,433518,0.0-1.0-62.0-0.0-5.0,0,0,72837,,,,,,60.0,,,,,1.0,,,,,,,,,,,,,,,,,,,,,,,,,,,325.5,1.0,,,,,,
311,,choice,,html-keyboard-response,311,434157,0.0-1.0-63.0-0.0-0.0,0,0,72837,,627.0,,,75.0,61.0,61.0,1500.0,2000.0,0.0,1.0,1.0,20-20,1.0,,yarn,yarn,20.0,20.0,yarn2,yarn5,20.0,0.0,Aballofyarn66.jpg,Aballofyarn14.jpg,/static/Category_learning/Stimuli/Experimental_stims/yarn/Aballofyarn66.jpg,/static/Category_learning/Stimuli/Experimental_stims/yarn/Aballofyarn14.jpg,0.0,yarn,yarn,20.0,20.0,yarn5,yarn2,0.0,20.0,0.0,326.127,0.627,,,,,,
312,,confirmation,,html-keyboard-response,312,435054,0.0-1.0-63.0-0.0-1.0-0.0,0,0,72837,,,,,,61.0,,,,,1.0,,,,,,,,,,,,,,,,,,,,,,,,,,,327.0,0.873,,,,,,
313,,isi,,html-keyboard-response,313,436574,0.0-1.0-63.0-0.0-2.0,0,0,72837,,,,,,61.0,,,,,1.0,,,,,,,,,,,,,,,,,,,,,,,,,,,328.5,1.5,,,,,,
314,,feedback,,html-keyboard-response,314,437593,0.0-1.0-63.0-0.0-3.0-0.0,0,0,72837,,,,,,61.0,,,,,1.0,,,,,,,,,,,,,,,,,,,,,,,,,,,329.5,1.0,,,,,,
315,,iti,,html-keyboard-response,315,439620,0.0-1.0-63.0-0.0-5.0,0,0,72837,,,,,,61.0,,,,,1.0,,,,,,,,,,,,,,,,,,,,,,,,,,,331.5,2.0,,,,,,
316,,choice,,html-keyboard-response,316,440213,0.0-1.0-64.0-0.0-0.0,0,0,72837,,581.0,,,75.0,62.0,62.0,2000.0,1500.0,0.0,1.0,1.0,40-40,1.0,,flashlight,flashlight,40.0,40.0,flashlight13,flashlight5,60.0,60.0,834808_sk_lg.jpg,Streamlight-71001-Jr-Flashlight-W-batteries-black-B00018A3CG-L.jpg,/static/Category_learning/Stimuli/Experimental_stims/flashlight/834808_sk_lg.jpg,/static/Category_learning/Stimuli/Experimental_stims/flashlight/Streamlight-71001-Jr-Flashlight-W-batteries-black-B00018A3CG-L.jpg,0.0,flashlight,flashlight,40.0,40.0,flashlight5,flashlight13,60.0,60.0,0.0,332.081,0.581,,,,,,
317,,confirmation,,html-keyboard-response,317,441178,0.0-1.0-64.0-0.0-1.0-0.0,0,0,72837,,,,,,62.0,,,,,1.0,,,,,,,,,,,,,,,,,,,,,,,,,,,333.0,0.919,,,,,,
318,,isi,,html-keyboard-response,318,443201,0.0-1.0-64.0-0.0-2.0,0,0,72837,,,,,,62.0,,,,,1.0,,,,,,,,,,,,,,,,,,,,,,,,,,,335.0,2.0,,,,,,
319,,feedback,,html-keyboard-response,319,444229,0.0-1.0-64.0-0.0-3.0-0.0,0,0,72837,,,,,,62.0,,,,,1.0,,,,,,,,,,,,,,,,,,,,,,,,,,,336.0,1.0,,,,,,
320,,iti,,html-keyboard-response,320,445749,0.0-1.0-64.0-0.0-5.0,0,0,72837,,,,,,62.0,,,,,1.0,,,,,,,,,,,,,,,,,,,,,,,,,,,337.5,1.5,,,,,,
321,,choice,,html-keyboard-response,321,446356,0.0-1.0-65.0-0.0-0.0,0,0,72837,,599.0,,,68.0,63.0,63.0,3000.0,3000.0,0.0,1.0,0.0,20-60,,1.0,key chain,stool,60.0,20.0,key chain9,stool12,80.0,0.0,sfx8832-ferrari-shield-keychain.jpg,henrybar_stool1.jpg,/static/Category_learning/Stimuli/Experimental_stims/key chain/sfx8832-ferrari-shield-keychain.jpg,/static/Category_learning/Stimuli/Experimental_stims/stool/henrybar_stool1.jpg,1.0,key chain,stool,60.0,20.0,key chain9,stool12,80.0,0.0,0.0,338.099,0.599,,,,,,
322,,confirmation,,html-keyboard-response,322,447283,0.0-1.0-65.0-0.0-1.0-0.0,0,0,72837,,,,,,63.0,,,,,1.0,,,,,,,,,,,,,,,,,,,,,,,,,,,339.0,0.901,,,,,,
323,,isi,,html-keyboard-response,323,450307,0.0-1.0-65.0-0.0-2.0,0,0,72837,,,,,,63.0,,,,,1.0,,,,,,,,,,,,,,,,,,,,,,,,,,,342.0,3.0,,,,,,
324,,feedback,,html-keyboard-response,324,451326,0.0-1.0-65.0-0.0-3.0-0.0,0,0,72837,,,,,,63.0,,,,,1.0,,,,,,,,,,,,,,,,,,,,,,,,,,,343.0,1.0,,,,,,
325,,iti,,html-keyboard-response,325,454347,0.0-1.0-65.0-0.0-5.0,0,0,72837,,,,,,63.0,,,,,1.0,,,,,,,,,,,,,,,,,,,,,,,,,,,346.0,3.0,,,,,,
326,,choice,,html-keyboard-response,326,455319,0.0-1.0-66.0-0.0-0.0,0,0,72837,,956.0,,,68.0,64.0,64.0,1000.0,1500.0,0.0,1.0,1.0,60-60,1.0,,key chain,key chain,60.0,60.0,key chain14,key chain9,40.0,80.0,Jif Keychain 285.jpg,sfx8832-ferrari-shield-keychain.jpg,/static/Category_learning/Stimuli/Experimental_stims/key chain/Jif Keychain 285.jpg,/static/Category_learning/Stimuli/Experimental_stims/key chain/sfx8832-ferrari-shield-keychain.jpg,1.0,key chain,key chain,60.0,60.0,key chain14,key chain9,40.0,80.0,0.0,346.956,0.956,,,,,,
327,,confirmation,,html-keyboard-response,327,455889,0.0-1.0-66.0-0.0-1.0-0.0,0,0,72837,,,,,,64.0,,,,,1.0,,,,,,,,,,,,,,,,,,,,,,,,,,,347.5,0.544,,,,,,
328,,isi,,html-keyboard-response,328,456920,0.0-1.0-66.0-0.0-2.0,0,0,72837,,,,,,64.0,,,,,1.0,,,,,,,,,,,,,,,,,,,,,,,,,,,348.5,1.0,,,,,,
329,,feedback,,html-keyboard-response,329,457951,0.0-1.0-66.0-0.0-3.0-0.0,0,0,72837,,,,,,64.0,,,,,1.0,,,,,,,,,,,,,,,,,,,,,,,,,,,349.5,1.0,,,,,,
330,,iti,,html-keyboard-response,330,459475,0.0-1.0-66.0-0.0-5.0,0,0,72837,,,,,,64.0,,,,,1.0,,,,,,,,,,,,,,,,,,,,,,,,,,,351.0,1.5,,,,,,
331,,block_over,,html-keyboard-response,331,463198,0.0-1.0-66.0-0.0-7.0-0.0,0,0,72837,,3692.0,,,68.0,64.0,,,,,,,,,,,,,,,,,,,,,,,,,,,,,,,,,,,,,,,
332,,start_run,,html-keyboard-response,332,464580,0.0-1.0-66.0-0.0-7.0-1.0,0,0,72837,,1370.0,,,84.0,,,,,,,,,,,,,,,,,,,,,,,,,,,,,,,,,,,,,,,,
333,,choice,,html-keyboard-response,333,465336,0.0-1.0-67.0-0.0-0.0,0,0,72837,,733.0,,,75.0,65.0,65.0,1000.0,1500.0,0.0,2.0,0.0,20-60,,0.0,tent,hammer,20.0,60.0,tent10,hammer4,0.0,60.0,TENT-DUTCH-GD1-1.jpg,hammernew01.jpg,/static/Category_learning/Stimuli/Experimental_stims/tent/TENT-DUTCH-GD1-1.jpg,/static/Category_learning/Stimuli/Experimental_stims/hammer/hammernew01.jpg,0.0,hammer,tent,60.0,20.0,hammer4,tent10,60.0,0.0,0.0,0.733,0.733,,,,,,
334,,confirmation,,html-keyboard-response,334,466129,0.0-1.0-67.0-0.0-1.0-0.0,0,0,72837,,,,,,65.0,,,,,2.0,,,,,,,,,,,,,,,,,,,,,,,,,,,1.5,0.767,,,,,,
335,,isi,,html-keyboard-response,335,467157,0.0-1.0-67.0-0.0-2.0,0,0,72837,,,,,,65.0,,,,,2.0,,,,,,,,,,,,,,,,,,,,,,,,,,,2.5,1.0,,,,,,
336,,feedback,,html-keyboard-response,336,468189,0.0-1.0-67.0-0.0-3.0-0.0,0,0,72837,,,,,,65.0,,,,,2.0,,,,,,,,,,,,,,,,,,,,,,,,,,,3.5,1.0,,,,,,
337,,iti,,html-keyboard-response,337,469710,0.0-1.0-67.0-0.0-5.0,0,0,72837,,,,,,65.0,,,,,2.0,,,,,,,,,,,,,,,,,,,,,,,,,,,5.0,1.5,,,,,,
338,,choice,,html-keyboard-response,338,470483,0.0-1.0-68.0-0.0-0.0,0,0,72837,,762.0,,,75.0,66.0,66.0,3000.0,1000.0,0.0,2.0,0.0,40-80,,1.0,patio lounge chair,bench,80.0,40.0,patio lounge chair11,bench3,100.0,20.0,51830.jpg,26419540.thl.jpg,/static/Category_learning/Stimuli/Experimental_stims/patio lounge chair/51830.jpg,/static/Category_learning/Stimuli/Experimental_stims/bench/26419540.thl.jpg,0.0,bench,patio lounge chair,40.0,80.0,bench3,patio lounge chair11,20.0,100.0,0.0,5.7620000000000005,0.762,,,,,,
339,,confirmation,,html-keyboard-response,339,471240,0.0-1.0-68.0-0.0-1.0-0.0,0,0,72837,,,,,,66.0,,,,,2.0,,,,,,,,,,,,,,,,,,,,,,,,,,,6.5,0.738,,,,,,
340,,isi,,html-keyboard-response,340,474257,0.0-1.0-68.0-0.0-2.0,0,0,72837,,,,,,66.0,,,,,2.0,,,,,,,,,,,,,,,,,,,,,,,,,,,9.5,3.0,,,,,,
341,,feedback,,html-keyboard-response,341,475282,0.0-1.0-68.0-0.0-3.0-0.0,0,0,72837,,,,,,66.0,,,,,2.0,,,,,,,,,,,,,,,,,,,,,,,,,,,10.5,1.0,,,,,,
342,,iti,,html-keyboard-response,342,476315,0.0-1.0-68.0-0.0-5.0,0,0,72837,,,,,,66.0,,,,,2.0,,,,,,,,,,,,,,,,,,,,,,,,,,,11.5,1.0,,,,,,
343,,choice,,html-keyboard-response,343,477060,0.0-1.0-69.0-0.0-0.0,0,0,72837,,733.0,,,68.0,67.0,67.0,1500.0,1500.0,0.0,2.0,0.0,20-20,,,trumpet,watch,20.0,20.0,trumpet12,watch6,40.0,20.0,hornabariton.jpg,B0000X04VC.01-A4LKQQKJ91IUZ._AA280_SCLZZZZZZZ_.jpg,/static/Category_learning/Stimuli/Experimental_stims/trumpet/hornabariton.jpg,/static/Category_learning/Stimuli/Experimental_stims/watch/B0000X04VC.01-A4LKQQKJ91IUZ._AA280_SCLZZZZZZZ_.jpg,1.0,trumpet,watch,20.0,20.0,trumpet12,watch6,40.0,20.0,0.0,12.233,0.733,,,,,,
344,,confirmation,,html-keyboard-response,344,477848,0.0-1.0-69.0-0.0-1.0-0.0,0,0,72837,,,,,,67.0,,,,,2.0,,,,,,,,,,,,,,,,,,,,,,,,,,,13.0,0.767,,,,,,
345,,isi,,html-keyboard-response,345,479360,0.0-1.0-69.0-0.0-2.0,0,0,72837,,,,,,67.0,,,,,2.0,,,,,,,,,,,,,,,,,,,,,,,,,,,14.5,1.5,,,,,,
346,,feedback,,html-keyboard-response,346,480389,0.0-1.0-69.0-0.0-3.0-0.0,0,0,72837,,,,,,67.0,,,,,2.0,,,,,,,,,,,,,,,,,,,,,,,,,,,15.5,1.0,,,,,,
347,,iti,,html-keyboard-response,347,481900,0.0-1.0-69.0-0.0-5.0,0,0,72837,,,,,,67.0,,,,,2.0,,,,,,,,,,,,,,,,,,,,,,,,,,,17.0,1.5,,,,,,
348,,choice,,html-keyboard-response,348,482494,0.0-1.0-70.0-0.0-0.0,0,0,72837,,580.0,,,75.0,68.0,68.0,2000.0,1500.0,0.0,2.0,0.0,20-80,,0.0,yarn,small table,20.0,80.0,yarn1,small table8,40.0,60.0,corn_yarn.jpg,ATABLE8.jpg,/static/Category_learning/Stimuli/Experimental_stims/yarn/corn_yarn.jpg,/static/Category_learning/Stimuli/Experimental_stims/small table/ATABLE8.jpg,0.0,small table,yarn,80.0,20.0,small table8,yarn1,60.0,40.0,0.0,17.58,0.58,,,,,,
349,,confirmation,,html-keyboard-response,349,483446,0.0-1.0-70.0-0.0-1.0-0.0,0,0,72837,,,,,,68.0,,,,,2.0,,,,,,,,,,,,,,,,,,,,,,,,,,,18.5,0.92,,,,,,
350,,isi,,html-keyboard-response,350,485470,0.0-1.0-70.0-0.0-2.0,0,0,72837,,,,,,68.0,,,,,2.0,,,,,,,,,,,,,,,,,,,,,,,,,,,20.5,2.0,,,,,,
351,,feedback,,html-keyboard-response,351,486486,0.0-1.0-70.0-0.0-3.0-0.0,0,0,72837,,,,,,68.0,,,,,2.0,,,,,,,,,,,,,,,,,,,,,,,,,,,21.5,1.0,,,,,,
352,,iti,,html-keyboard-response,352,488005,0.0-1.0-70.0-0.0-5.0,0,0,72837,,,,,,68.0,,,,,2.0,,,,,,,,,,,,,,,,,,,,,,,,,,,23.0,1.5,,,,,,
353,,choice,,html-keyboard-response,353,488588,0.0-1.0-71.0-0.0-0.0,0,0,72837,,572.0,,,68.0,69.0,69.0,1000.0,2000.0,0.0,2.0,0.0,60-60,,,makeup compact,hat,60.0,60.0,makeup compact12,hat5,80.0,40.0,P139103_hero.jpg,AREDHAT4.jpg,/static/Category_learning/Stimuli/Experimental_stims/makeup compact/P139103_hero.jpg,/static/Category_learning/Stimuli/Experimental_stims/hat/AREDHAT4.jpg,1.0,makeup compact,hat,60.0,60.0,makeup compact12,hat5,80.0,40.0,0.0,23.572,0.572,,,,,,
354,,confirmation,,html-keyboard-response,354,489543,0.0-1.0-71.0-0.0-1.0-0.0,0,0,72837,,,,,,69.0,,,,,2.0,,,,,,,,,,,,,,,,,,,,,,,,,,,24.5,0.928,,,,,,
355,,isi,,html-keyboard-response,355,490571,0.0-1.0-71.0-0.0-2.0,0,0,72837,,,,,,69.0,,,,,2.0,,,,,,,,,,,,,,,,,,,,,,,,,,,25.5,1.0,,,,,,
356,,feedback,,html-keyboard-response,356,491601,0.0-1.0-71.0-0.0-3.0-0.0,0,0,72837,,,,,,69.0,,,,,2.0,,,,,,,,,,,,,,,,,,,,,,,,,,,26.5,1.0,,,,,,
357,,iti,,html-keyboard-response,357,493631,0.0-1.0-71.0-0.0-5.0,0,0,72837,,,,,,69.0,,,,,2.0,,,,,,,,,,,,,,,,,,,,,,,,,,,28.5,2.0,,,,,,
358,,choice,,html-keyboard-response,358,494324,0.0-1.0-72.0-0.0-0.0,0,0,72837,,682.0,,,75.0,70.0,70.0,1000.0,1000.0,0.0,2.0,0.0,40-60,,0.0,dresser,lipstick,40.0,60.0,dresser4,lipstick5,60.0,40.0,ADRESSE40.jpg,P35719_hero.jpg,/static/Category_learning/Stimuli/Experimental_stims/dresser/ADRESSE40.jpg,/static/Category_learning/Stimuli/Experimental_stims/lipstick/P35719_hero.jpg,0.0,lipstick,dresser,60.0,40.0,lipstick5,dresser4,40.0,60.0,0.0,29.182,0.682,,,,,,
359,,confirmation,,html-keyboard-response,359,495170,0.0-1.0-72.0-0.0-1.0-0.0,0,0,72837,,,,,,70.0,,,,,2.0,,,,,,,,,,,,,,,,,,,,,,,,,,,30.0,0.818,,,,,,
360,,isi,,html-keyboard-response,360,496199,0.0-1.0-72.0-0.0-2.0,0,0,72837,,,,,,70.0,,,,,2.0,,,,,,,,,,,,,,,,,,,,,,,,,,,31.0,1.0,,,,,,
361,,feedback,,html-keyboard-response,361,497217,0.0-1.0-72.0-0.0-3.0-0.0,0,0,72837,,,,,,70.0,,,,,2.0,,,,,,,,,,,,,,,,,,,,,,,,,,,32.0,1.0,,,,,,
362,,iti,,html-keyboard-response,362,498230,0.0-1.0-72.0-0.0-5.0,0,0,72837,,,,,,70.0,,,,,2.0,,,,,,,,,,,,,,,,,,,,,,,,,,,33.0,1.0,,,,,,
363,,choice,,html-keyboard-response,363,498861,0.0-1.0-73.0-0.0-0.0,0,0,72837,,615.0,,,68.0,71.0,71.0,1000.0,1500.0,0.0,2.0,1.0,60-60,1.0,,makeup compact,makeup compact,60.0,60.0,makeup compact12,makeup compact5,80.0,40.0,P139103_hero.jpg,P109965_hero.jpg,/static/Category_learning/Stimuli/Experimental_stims/makeup compact/P139103_hero.jpg,/static/Category_learning/Stimuli/Experimental_stims/makeup compact/P109965_hero.jpg,1.0,makeup compact,makeup compact,60.0,60.0,makeup compact12,makeup compact5,80.0,40.0,0.0,33.615,0.615,,,,,,
364,,confirmation,,html-keyboard-response,364,499766,0.0-1.0-73.0-0.0-1.0-0.0,0,0,72837,,,,,,71.0,,,,,2.0,,,,,,,,,,,,,,,,,,,,,,,,,,,34.5,0.885,,,,,,
365,,isi,,html-keyboard-response,365,500793,0.0-1.0-73.0-0.0-2.0,0,0,72837,,,,,,71.0,,,,,2.0,,,,,,,,,,,,,,,,,,,,,,,,,,,35.5,1.0,,,,,,
366,,feedback,,html-keyboard-response,366,501815,0.0-1.0-73.0-0.0-3.0-0.0,0,0,72837,,,,,,71.0,,,,,2.0,,,,,,,,,,,,,,,,,,,,,,,,,,,36.5,1.0,,,,,,
367,,iti,,html-keyboard-response,367,503331,0.0-1.0-73.0-0.0-5.0,0,0,72837,,,,,,71.0,,,,,2.0,,,,,,,,,,,,,,,,,,,,,,,,,,,38.0,1.5,,,,,,
368,,choice,,html-keyboard-response,368,504041,0.0-1.0-74.0-0.0-0.0,0,0,72837,,700.0,,,75.0,72.0,72.0,2000.0,2000.0,0.0,2.0,0.0,40-60,,1.0,hat,desk,60.0,40.0,hat10,desk11,80.0,60.0,Atornhat3.jpg,Writing_Desk_280_Cutout_Sideview_half.jpg,/static/Category_learning/Stimuli/Experimental_stims/hat/Atornhat3.jpg,/static/Category_learning/Stimuli/Experimental_stims/desk/Writing_Desk_280_Cutout_Sideview_half.jpg,0.0,desk,hat,40.0,60.0,desk11,hat10,60.0,80.0,0.0,38.7,0.7,,,,,,
369,,confirmation,,html-keyboard-response,369,504863,0.0-1.0-74.0-0.0-1.0-0.0,0,0,72837,,,,,,72.0,,,,,2.0,,,,,,,,,,,,,,,,,,,,,,,,,,,39.5,0.8,,,,,,
370,,isi,,html-keyboard-response,370,506879,0.0-1.0-74.0-0.0-2.0,0,0,72837,,,,,,72.0,,,,,2.0,,,,,,,,,,,,,,,,,,,,,,,,,,,41.5,2.0,,,,,,
371,,feedback,,html-keyboard-response,371,507899,0.0-1.0-74.0-0.0-3.0-0.0,0,0,72837,,,,,,72.0,,,,,2.0,,,,,,,,,,,,,,,,,,,,,,,,,,,42.5,1.0,,,,,,
372,,iti,,html-keyboard-response,372,509916,0.0-1.0-74.0-0.0-5.0,0,0,72837,,,,,,72.0,,,,,2.0,,,,,,,,,,,,,,,,,,,,,,,,,,,44.5,2.0,,,,,,
373,,choice,,html-keyboard-response,373,510518,0.0-1.0-75.0-0.0-0.0,0,0,72837,,589.0,,,75.0,73.0,73.0,1500.0,1000.0,0.0,2.0,1.0,40-40,1.0,,desk,desk,40.0,40.0,desk14,desk11,20.0,60.0,26419960.thl.jpg,Writing_Desk_280_Cutout_Sideview_half.jpg,/static/Category_learning/Stimuli/Experimental_stims/desk/26419960.thl.jpg,/static/Category_learning/Stimuli/Experimental_stims/desk/Writing_Desk_280_Cutout_Sideview_half.jpg,0.0,desk,desk,40.0,40.0,desk11,desk14,60.0,20.0,0.0,45.089,0.589,,,,,,
374,,confirmation,,html-keyboard-response,374,511446,0.0-1.0-75.0-0.0-1.0-0.0,0,0,72837,,,,,,73.0,,,,,2.0,,,,,,,,,,,,,,,,,,,,,,,,,,,46.0,0.911,,,,,,
375,,isi,,html-keyboard-response,375,512965,0.0-1.0-75.0-0.0-2.0,0,0,72837,,,,,,73.0,,,,,2.0,,,,,,,,,,,,,,,,,,,,,,,,,,,47.5,1.5,,,,,,
376,,feedback,,html-keyboard-response,376,513990,0.0-1.0-75.0-0.0-3.0-0.0,0,0,72837,,,,,,73.0,,,,,2.0,,,,,,,,,,,,,,,,,,,,,,,,,,,48.5,1.0,,,,,,
377,,iti,,html-keyboard-response,377,515005,0.0-1.0-75.0-0.0-5.0,0,0,72837,,,,,,73.0,,,,,2.0,,,,,,,,,,,,,,,,,,,,,,,,,,,49.5,1.0,,,,,,
378,,choice,,html-keyboard-response,378,515694,0.0-1.0-76.0-0.0-0.0,0,0,72837,,684.0,,,68.0,74.0,74.0,1500.0,1000.0,0.0,2.0,1.0,60-80,0.0,,patio lounge chair,motorcycle,80.0,60.0,patio lounge chair15,motorcycle13,60.0,60.0,phpThumb.jpg,2005-Buell-FireboltXB12R.jpg,/static/Category_learning/Stimuli/Experimental_stims/patio lounge chair/phpThumb.jpg,/static/Category_learning/Stimuli/Experimental_stims/motorcycle/2005-Buell-FireboltXB12R.jpg,1.0,patio lounge chair,motorcycle,80.0,60.0,patio lounge chair15,motorcycle13,60.0,60.0,0.0,50.184,0.684,,,,,,
379,,confirmation,,html-keyboard-response,379,516529,0.0-1.0-76.0-0.0-1.0-0.0,0,0,72837,,,,,,74.0,,,,,2.0,,,,,,,,,,,,,,,,,,,,,,,,,,,51.0,0.816,,,,,,
380,,isi,,html-keyboard-response,380,518050,0.0-1.0-76.0-0.0-2.0,0,0,72837,,,,,,74.0,,,,,2.0,,,,,,,,,,,,,,,,,,,,,,,,,,,52.5,1.5,,,,,,
381,,feedback,,html-keyboard-response,381,519079,0.0-1.0-76.0-0.0-3.0-0.0,0,0,72837,,,,,,74.0,,,,,2.0,,,,,,,,,,,,,,,,,,,,,,,,,,,53.5,1.0,,,,,,
382,,iti,,html-keyboard-response,382,520096,0.0-1.0-76.0-0.0-5.0,0,0,72837,,,,,,74.0,,,,,2.0,,,,,,,,,,,,,,,,,,,,,,,,,,,54.5,1.0,,,,,,
383,,choice,,html-keyboard-response,383,520653,0.0-1.0-77.0-0.0-0.0,0,0,72837,,546.0,,,75.0,75.0,75.0,1000.0,1000.0,0.0,2.0,0.0,60-60,,,microscope,hat,60.0,60.0,microscope8,hat14,60.0,60.0,AMICROS21.jpg,Ahat136.jpg,/static/Category_learning/Stimuli/Experimental_stims/microscope/AMICROS21.jpg,/static/Category_learning/Stimuli/Experimental_stims/hat/Ahat136.jpg,0.0,hat,microscope,60.0,60.0,hat14,microscope8,60.0,60.0,0.0,55.046,0.546,,,,,,
384,,confirmation,,html-keyboard-response,384,521636,0.0-1.0-77.0-0.0-1.0-0.0,0,0,72837,,,,,,75.0,,,,,2.0,,,,,,,,,,,,,,,,,,,,,,,,,,,56.0,0.954,,,,,,
385,,isi,,html-keyboard-response,385,522659,0.0-1.0-77.0-0.0-2.0,0,0,72837,,,,,,75.0,,,,,2.0,,,,,,,,,,,,,,,,,,,,,,,,,,,57.0,1.0,,,,,,
386,,feedback,,html-keyboard-response,386,523685,0.0-1.0-77.0-0.0-3.0-0.0,0,0,72837,,,,,,75.0,,,,,2.0,,,,,,,,,,,,,,,,,,,,,,,,,,,58.0,1.0,,,,,,
387,,iti,,html-keyboard-response,387,524696,0.0-1.0-77.0-0.0-5.0,0,0,72837,,,,,,75.0,,,,,2.0,,,,,,,,,,,,,,,,,,,,,,,,,,,59.0,1.0,,,,,,
388,,choice,,html-keyboard-response,388,525318,0.0-1.0-78.0-0.0-0.0,0,0,72837,,611.0,,,68.0,76.0,76.0,2000.0,2000.0,0.0,2.0,0.0,40-60,,0.0,door knob,frame,40.0,60.0,door knob8,frame10,40.0,80.0,pro_l_116_medeco437ul.jpg,AFRAME107.jpg,/static/Category_learning/Stimuli/Experimental_stims/door knob/pro_l_116_medeco437ul.jpg,/static/Category_learning/Stimuli/Experimental_stims/frame/AFRAME107.jpg,1.0,door knob,frame,40.0,60.0,door knob8,frame10,40.0,80.0,0.0,59.611,0.611,,,,,,
389,,confirmation,,html-keyboard-response,389,526220,0.0-1.0-78.0-0.0-1.0-0.0,0,0,72837,,,,,,76.0,,,,,2.0,,,,,,,,,,,,,,,,,,,,,,,,,,,60.5,0.889,,,,,,
390,,isi,,html-keyboard-response,390,528233,0.0-1.0-78.0-0.0-2.0,0,0,72837,,,,,,76.0,,,,,2.0,,,,,,,,,,,,,,,,,,,,,,,,,,,62.5,2.0,,,,,,
391,,feedback,,html-keyboard-response,391,529259,0.0-1.0-78.0-0.0-3.0-0.0,0,0,72837,,,,,,76.0,,,,,2.0,,,,,,,,,,,,,,,,,,,,,,,,,,,63.5,1.0,,,,,,
392,,iti,,html-keyboard-response,392,531274,0.0-1.0-78.0-0.0-5.0,0,0,72837,,,,,,76.0,,,,,2.0,,,,,,,,,,,,,,,,,,,,,,,,,,,65.5,2.0,,,,,,
393,,choice,,html-keyboard-response,393,531789,0.0-1.0-79.0-0.0-0.0,0,0,72837,,506.0,,,75.0,77.0,77.0,1500.0,2000.0,0.0,2.0,0.0,40-60,,0.0,bench,hat,40.0,60.0,bench6,hat3,20.0,60.0,26370121.thl.jpg,Astrawhat49.jpg,/static/Category_learning/Stimuli/Experimental_stims/bench/26370121.thl.jpg,/static/Category_learning/Stimuli/Experimental_stims/hat/Astrawhat49.jpg,0.0,hat,bench,60.0,40.0,hat3,bench6,60.0,20.0,0.0,66.006,0.506,,,,,,
394,,confirmation,,html-keyboard-response,394,532810,0.0-1.0-79.0-0.0-1.0-0.0,0,0,72837,,,,,,77.0,,,,,2.0,,,,,,,,,,,,,,,,,,,,,,,,,,,67.0,0.994,,,,,,
395,,isi,,html-keyboard-response,395,534321,0.0-1.0-79.0-0.0-2.0,0,0,72837,,,,,,77.0,,,,,2.0,,,,,,,,,,,,,,,,,,,,,,,,,,,68.5,1.5,,,,,,
396,,feedback,,html-keyboard-response,396,535347,0.0-1.0-79.0-0.0-3.0-0.0,0,0,72837,,,,,,77.0,,,,,2.0,,,,,,,,,,,,,,,,,,,,,,,,,,,69.5,1.0,,,,,,
397,,iti,,html-keyboard-response,397,537379,0.0-1.0-79.0-0.0-5.0,0,0,72837,,,,,,77.0,,,,,2.0,,,,,,,,,,,,,,,,,,,,,,,,,,,71.5,2.0,,,,,,
398,,choice,,html-keyboard-response,398,537967,0.0-1.0-80.0-0.0-0.0,0,0,72837,,581.0,,,68.0,78.0,78.0,2000.0,1500.0,0.0,2.0,0.0,40-80,,1.0,nail polish,baby carriage,80.0,40.0,nail polish15,baby carriage1,60.0,40.0,MA_NP_WSD.jpg,babycarriage16.jpg,/static/Category_learning/Stimuli/Experimental_stims/nail polish/MA_NP_WSD.jpg,/static/Category_learning/Stimuli/Experimental_stims/baby carriage/babycarriage16.jpg,1.0,nail polish,baby carriage,80.0,40.0,nail polish15,baby carriage1,60.0,40.0,0.0,72.081,0.581,,,,,,
399,,confirmation,,html-keyboard-response,399,538903,0.0-1.0-80.0-0.0-1.0-0.0,0,0,72837,,,,,,78.0,,,,,2.0,,,,,,,,,,,,,,,,,,,,,,,,,,,73.0,0.919,,,,,,
400,,isi,,html-keyboard-response,400,540919,0.0-1.0-80.0-0.0-2.0,0,0,72837,,,,,,78.0,,,,,2.0,,,,,,,,,,,,,,,,,,,,,,,,,,,75.0,2.0,,,,,,
401,,feedback,,html-keyboard-response,401,541932,0.0-1.0-80.0-0.0-3.0-0.0,0,0,72837,,,,,,78.0,,,,,2.0,,,,,,,,,,,,,,,,,,,,,,,,,,,76.0,1.0,,,,,,
402,,iti,,html-keyboard-response,402,543458,0.0-1.0-80.0-0.0-5.0,0,0,72837,,,,,,78.0,,,,,2.0,,,,,,,,,,,,,,,,,,,,,,,,,,,77.5,1.5,,,,,,
403,,choice,,html-keyboard-response,403,544309,0.0-1.0-81.0-0.0-0.0,0,0,72837,,839.0,,,75.0,79.0,79.0,1000.0,1500.0,0.0,2.0,0.0,40-80,,1.0,poker card,bongo,80.0,40.0,poker card2,bongo9,100.0,20.0,22864716.thl.jpg,22946035.thl.jpg,/static/Category_learning/Stimuli/Experimental_stims/poker card/22864716.thl.jpg,/static/Category_learning/Stimuli/Experimental_stims/bongo/22946035.thl.jpg,0.0,bongo,poker card,40.0,80.0,bongo9,poker card2,20.0,100.0,0.0,78.339,0.839,,,,,,
404,,confirmation,,html-keyboard-response,404,544990,0.0-1.0-81.0-0.0-1.0-0.0,0,0,72837,,,,,,79.0,,,,,2.0,,,,,,,,,,,,,,,,,,,,,,,,,,,79.0,0.661,,,,,,
405,,isi,,html-keyboard-response,405,546000,0.0-1.0-81.0-0.0-2.0,0,0,72837,,,,,,79.0,,,,,2.0,,,,,,,,,,,,,,,,,,,,,,,,,,,80.0,1.0,,,,,,
406,,feedback,,html-keyboard-response,406,547017,0.0-1.0-81.0-0.0-3.0-0.0,0,0,72837,,,,,,79.0,,,,,2.0,,,,,,,,,,,,,,,,,,,,,,,,,,,81.0,1.0,,,,,,
407,,iti,,html-keyboard-response,407,548531,0.0-1.0-81.0-0.0-5.0,0,0,72837,,,,,,79.0,,,,,2.0,,,,,,,,,,,,,,,,,,,,,,,,,,,82.5,1.5,,,,,,
408,,choice,,html-keyboard-response,408,549112,0.0-1.0-82.0-0.0-0.0,0,0,72837,,569.0,,,68.0,80.0,80.0,1000.0,1000.0,0.0,2.0,0.0,80-80,,,seashell,patio lounge chair,80.0,80.0,seashell6,patio lounge chair3,80.0,60.0,PY2H1461.jpg,Lounge_Chair.jpg,/static/Category_learning/Stimuli/Experimental_stims/seashell/PY2H1461.jpg,/static/Category_learning/Stimuli/Experimental_stims/patio lounge chair/Lounge_Chair.jpg,1.0,seashell,patio lounge chair,80.0,80.0,seashell6,patio lounge chair3,80.0,60.0,0.0,83.069,0.569,,,,,,
409,,confirmation,,html-keyboard-response,409,550077,0.0-1.0-82.0-0.0-1.0-0.0,0,0,72837,,,,,,80.0,,,,,2.0,,,,,,,,,,,,,,,,,,,,,,,,,,,84.0,0.931,,,,,,
410,,isi,,html-keyboard-response,410,551092,0.0-1.0-82.0-0.0-2.0,0,0,72837,,,,,,80.0,,,,,2.0,,,,,,,,,,,,,,,,,,,,,,,,,,,85.0,1.0,,,,,,
411,,feedback,,html-keyboard-response,411,552121,0.0-1.0-82.0-0.0-3.0-0.0,0,0,72837,,,,,,80.0,,,,,2.0,,,,,,,,,,,,,,,,,,,,,,,,,,,86.0,1.0,,,,,,
412,,iti,,html-keyboard-response,412,553139,0.0-1.0-82.0-0.0-5.0,0,0,72837,,,,,,80.0,,,,,2.0,,,,,,,,,,,,,,,,,,,,,,,,,,,87.0,1.0,,,,,,
413,,choice,,html-keyboard-response,413,553814,0.0-1.0-83.0-0.0-0.0,0,0,72837,,667.0,,,75.0,81.0,81.0,1000.0,3500.0,0.0,2.0,0.0,20-80,,0.0,tape,small table,20.0,80.0,tape10,small table10,20.0,100.0,26377601.thl.jpg,ATABLE41.jpg,/static/Category_learning/Stimuli/Experimental_stims/tape/26377601.thl.jpg,/static/Category_learning/Stimuli/Experimental_stims/small table/ATABLE41.jpg,0.0,small table,tape,80.0,20.0,small table10,tape10,100.0,20.0,0.0,87.667,0.667,,,,,,
414,,confirmation,,html-keyboard-response,414,554671,0.0-1.0-83.0-0.0-1.0-0.0,0,0,72837,,,,,,81.0,,,,,2.0,,,,,,,,,,,,,,,,,,,,,,,,,,,88.5,0.833,,,,,,
415,,isi,,html-keyboard-response,415,555699,0.0-1.0-83.0-0.0-2.0,0,0,72837,,,,,,81.0,,,,,2.0,,,,,,,,,,,,,,,,,,,,,,,,,,,89.5,1.0,,,,,,
416,,feedback,,html-keyboard-response,416,556743,0.0-1.0-83.0-0.0-3.0-0.0,0,0,72837,,,,,,81.0,,,,,2.0,,,,,,,,,,,,,,,,,,,,,,,,,,,90.5,1.0,,,,,,
417,,iti,,html-keyboard-response,417,560264,0.0-1.0-83.0-0.0-5.0,0,0,72837,,,,,,81.0,,,,,2.0,,,,,,,,,,,,,,,,,,,,,,,,,,,94.0,3.5,,,,,,
418,,choice,,html-keyboard-response,418,560918,0.0-1.0-84.0-0.0-0.0,0,0,72837,,634.0,,,75.0,82.0,82.0,1000.0,3500.0,0.0,2.0,0.0,20-60,,0.0,stool,frame,20.0,60.0,stool14,frame7,40.0,40.0,hjscott-sbs-b-bar-stool.jpg,AFRAME152.jpg,/static/Category_learning/Stimuli/Experimental_stims/stool/hjscott-sbs-b-bar-stool.jpg,/static/Category_learning/Stimuli/Experimental_stims/frame/AFRAME152.jpg,0.0,frame,stool,60.0,20.0,frame7,stool14,40.0,40.0,0.0,94.634,0.634,,,,,,
419,,confirmation,,html-keyboard-response,419,561806,0.0-1.0-84.0-0.0-1.0-0.0,0,0,72837,,,,,,82.0,,,,,2.0,,,,,,,,,,,,,,,,,,,,,,,,,,,95.5,0.866,,,,,,
420,,isi,,html-keyboard-response,420,562825,0.0-1.0-84.0-0.0-2.0,0,0,72837,,,,,,82.0,,,,,2.0,,,,,,,,,,,,,,,,,,,,,,,,,,,96.5,1.0,,,,,,
421,,feedback,,html-keyboard-response,421,563846,0.0-1.0-84.0-0.0-3.0-0.0,0,0,72837,,,,,,82.0,,,,,2.0,,,,,,,,,,,,,,,,,,,,,,,,,,,97.5,1.0,,,,,,
422,,iti,,html-keyboard-response,422,567366,0.0-1.0-84.0-0.0-5.0,0,0,72837,,,,,,82.0,,,,,2.0,,,,,,,,,,,,,,,,,,,,,,,,,,,101.0,3.5,,,,,,
423,,choice,,html-keyboard-response,423,567991,0.0-1.0-85.0-0.0-0.0,0,0,72837,,614.0,,,68.0,83.0,83.0,3500.0,3000.0,0.0,2.0,0.0,20-60,,0.0,telescope,hammer,20.0,60.0,telescope10,hammer1,40.0,60.0,digimarc.ms02.jpg,fosnaugh.hammer.jpg,/static/Category_learning/Stimuli/Experimental_stims/telescope/digimarc.ms02.jpg,/static/Category_learning/Stimuli/Experimental_stims/hammer/fosnaugh.hammer.jpg,1.0,telescope,hammer,20.0,60.0,telescope10,hammer1,40.0,60.0,0.0,101.614,0.614,,,,,,
424,,confirmation,,html-keyboard-response,424,568890,0.0-1.0-85.0-0.0-1.0-0.0,0,0,72837,,,,,,83.0,,,,,2.0,,,,,,,,,,,,,,,,,,,,,,,,,,,102.5,0.886,,,,,,
425,,isi,,html-keyboard-response,425,572409,0.0-1.0-85.0-0.0-2.0,0,0,72837,,,,,,83.0,,,,,2.0,,,,,,,,,,,,,,,,,,,,,,,,,,,106.0,3.5,,,,,,
426,,feedback,,html-keyboard-response,426,573438,0.0-1.0-85.0-0.0-3.0-0.0,0,0,72837,,,,,,83.0,,,,,2.0,,,,,,,,,,,,,,,,,,,,,,,,,,,107.0,1.0,,,,,,
427,,iti,,html-keyboard-response,427,576457,0.0-1.0-85.0-0.0-5.0,0,0,72837,,,,,,83.0,,,,,2.0,,,,,,,,,,,,,,,,,,,,,,,,,,,110.0,3.0,,,,,,
428,,choice,,html-keyboard-response,428,577102,0.0-1.0-86.0-0.0-0.0,0,0,72837,,628.0,,,75.0,84.0,84.0,1000.0,1500.0,0.0,2.0,0.0,20-80,,1.0,small table,trumpet,80.0,20.0,small table14,trumpet4,100.0,0.0,Awoodtable13.jpg,JUPITER+JTR1000S.jpg,/static/Category_learning/Stimuli/Experimental_stims/small table/Awoodtable13.jpg,/static/Category_learning/Stimuli/Experimental_stims/trumpet/JUPITER+JTR1000S.jpg,0.0,trumpet,small table,20.0,80.0,trumpet4,small table14,0.0,100.0,0.0,110.628,0.628,,,,,,
429,,confirmation,,html-keyboard-response,429,577996,0.0-1.0-86.0-0.0-1.0-0.0,0,0,72837,,,,,,84.0,,,,,2.0,,,,,,,,,,,,,,,,,,,,,,,,,,,111.5,0.872,,,,,,
430,,isi,,html-keyboard-response,430,579014,0.0-1.0-86.0-0.0-2.0,0,0,72837,,,,,,84.0,,,,,2.0,,,,,,,,,,,,,,,,,,,,,,,,,,,112.5,1.0,,,,,,
431,,feedback,,html-keyboard-response,431,580040,0.0-1.0-86.0-0.0-3.0-0.0,0,0,72837,,,,,,84.0,,,,,2.0,,,,,,,,,,,,,,,,,,,,,,,,,,,113.5,1.0,,,,,,
432,,iti,,html-keyboard-response,432,581552,0.0-1.0-86.0-0.0-5.0,0,0,72837,,,,,,84.0,,,,,2.0,,,,,,,,,,,,,,,,,,,,,,,,,,,115.0,1.5,,,,,,
433,,choice,,html-keyboard-response,433,582189,0.0-1.0-87.0-0.0-0.0,0,0,72837,,626.0,,,75.0,85.0,85.0,1500.0,3000.0,0.0,2.0,0.0,40-40,,,baby carriage,flashlight,40.0,40.0,baby carriage15,flashlight14,40.0,40.0,AANBABYC2.jpg,freeplay-jonta-flashlight.jpg,/static/Category_learning/Stimuli/Experimental_stims/baby carriage/AANBABYC2.jpg,/static/Category_learning/Stimuli/Experimental_stims/flashlight/freeplay-jonta-flashlight.jpg,0.0,flashlight,baby carriage,40.0,40.0,flashlight14,baby carriage15,40.0,40.0,0.0,115.626,0.626,,,,,,
434,,confirmation,,html-keyboard-response,434,583113,0.0-1.0-87.0-0.0-1.0-0.0,0,0,72837,,,,,,85.0,,,,,2.0,,,,,,,,,,,,,,,,,,,,,,,,,,,116.5,0.874,,,,,,
435,,isi,,html-keyboard-response,435,584629,0.0-1.0-87.0-0.0-2.0,0,0,72837,,,,,,85.0,,,,,2.0,,,,,,,,,,,,,,,,,,,,,,,,,,,118.0,1.5,,,,,,
436,,feedback,,html-keyboard-response,436,585659,0.0-1.0-87.0-0.0-3.0-0.0,0,0,72837,,,,,,85.0,,,,,2.0,,,,,,,,,,,,,,,,,,,,,,,,,,,119.0,1.0,,,,,,
437,,iti,,html-keyboard-response,437,588687,0.0-1.0-87.0-0.0-5.0,0,0,72837,,,,,,85.0,,,,,2.0,,,,,,,,,,,,,,,,,,,,,,,,,,,122.0,3.0,,,,,,
438,,choice,,html-keyboard-response,438,589304,0.0-1.0-88.0-0.0-0.0,0,0,72837,,601.0,,,75.0,86.0,86.0,2000.0,1000.0,0.0,2.0,1.0,60-60,1.0,,hat,hat,60.0,60.0,hat3,hat14,60.0,60.0,Astrawhat49.jpg,Ahat136.jpg,/static/Category_learning/Stimuli/Experimental_stims/hat/Astrawhat49.jpg,/static/Category_learning/Stimuli/Experimental_stims/hat/Ahat136.jpg,0.0,hat,hat,60.0,60.0,hat14,hat3,60.0,60.0,0.0,122.601,0.601,,,,,,
439,,confirmation,,html-keyboard-response,439,590217,0.0-1.0-88.0-0.0-1.0-0.0,0,0,72837,,,,,,86.0,,,,,2.0,,,,,,,,,,,,,,,,,,,,,,,,,,,123.5,0.899,,,,,,
440,,isi,,html-keyboard-response,440,592246,0.0-1.0-88.0-0.0-2.0,0,0,72837,,,,,,86.0,,,,,2.0,,,,,,,,,,,,,,,,,,,,,,,,,,,125.5,2.0,,,,,,
441,,feedback,,html-keyboard-response,441,593273,0.0-1.0-88.0-0.0-3.0-0.0,0,0,72837,,,,,,86.0,,,,,2.0,,,,,,,,,,,,,,,,,,,,,,,,,,,126.5,1.0,,,,,,
442,,iti,,html-keyboard-response,442,594285,0.0-1.0-88.0-0.0-5.0,0,0,72837,,,,,,86.0,,,,,2.0,,,,,,,,,,,,,,,,,,,,,,,,,,,127.5,1.0,,,,,,
443,,choice,,html-keyboard-response,443,594797,0.0-1.0-89.0-0.0-0.0,0,0,72837,,499.0,,,75.0,87.0,87.0,2000.0,1000.0,0.0,2.0,1.0,80-80,1.0,,small table,small table,80.0,80.0,small table10,small table8,100.0,60.0,ATABLE41.jpg,ATABLE8.jpg,/static/Category_learning/Stimuli/Experimental_stims/small table/ATABLE41.jpg,/static/Category_learning/Stimuli/Experimental_stims/small table/ATABLE8.jpg,0.0,small table,small table,80.0,80.0,small table8,small table10,60.0,100.0,0.0,127.999,0.499,,,,,,
444,,confirmation,,html-keyboard-response,444,595812,0.0-1.0-89.0-0.0-1.0-0.0,0,0,72837,,,,,,87.0,,,,,2.0,,,,,,,,,,,,,,,,,,,,,,,,,,,129.0,1.001,,,,,,
445,,isi,,html-keyboard-response,445,597821,0.0-1.0-89.0-0.0-2.0,0,0,72837,,,,,,87.0,,,,,2.0,,,,,,,,,,,,,,,,,,,,,,,,,,,131.0,2.0,,,,,,
446,,feedback,,html-keyboard-response,446,598844,0.0-1.0-89.0-0.0-3.0-0.0,0,0,72837,,,,,,87.0,,,,,2.0,,,,,,,,,,,,,,,,,,,,,,,,,,,132.0,1.0,,,,,,
447,,iti,,html-keyboard-response,447,599859,0.0-1.0-89.0-0.0-5.0,0,0,72837,,,,,,87.0,,,,,2.0,,,,,,,,,,,,,,,,,,,,,,,,,,,133.0,1.0,,,,,,
448,,choice,,html-keyboard-response,448,600487,0.0-1.0-90.0-0.0-0.0,0,0,72837,,621.0,,,68.0,88.0,88.0,3000.0,1000.0,0.0,2.0,0.0,40-60,,1.0,motorcycle,baby carriage,60.0,40.0,motorcycle8,baby carriage6,80.0,20.0,Motorcycle903425j2.jpg,Baby_Stroller-1.jpg,/static/Category_learning/Stimuli/Experimental_stims/motorcycle/Motorcycle903425j2.jpg,/static/Category_learning/Stimuli/Experimental_stims/baby carriage/Baby_Stroller-1.jpg,1.0,motorcycle,baby carriage,60.0,40.0,motorcycle8,baby carriage6,80.0,20.0,0.0,133.621,0.621,,,,,,
449,,confirmation,,html-keyboard-response,449,601391,0.0-1.0-90.0-0.0-1.0-0.0,0,0,72837,,,,,,88.0,,,,,2.0,,,,,,,,,,,,,,,,,,,,,,,,,,,134.5,0.879,,,,,,
450,,isi,,html-keyboard-response,450,604418,0.0-1.0-90.0-0.0-2.0,0,0,72837,,,,,,88.0,,,,,2.0,,,,,,,,,,,,,,,,,,,,,,,,,,,137.5,3.0,,,,,,
451,,feedback,,html-keyboard-response,451,605433,0.0-1.0-90.0-0.0-3.0-0.0,0,0,72837,,,,,,88.0,,,,,2.0,,,,,,,,,,,,,,,,,,,,,,,,,,,138.5,1.0,,,,,,
452,,iti,,html-keyboard-response,452,606450,0.0-1.0-90.0-0.0-5.0,0,0,72837,,,,,,88.0,,,,,2.0,,,,,,,,,,,,,,,,,,,,,,,,,,,139.5,1.0,,,,,,
453,,choice,,html-keyboard-response,453,606949,0.0-1.0-91.0-0.0-0.0,0,0,72837,,489.0,,,75.0,89.0,89.0,1000.0,1500.0,0.0,2.0,0.0,20-80,,1.0,pen,tent,80.0,20.0,pen9,tent4,60.0,20.0,Aredpen3.jpg,Atent12.jpg,/static/Category_learning/Stimuli/Experimental_stims/pen/Aredpen3.jpg,/static/Category_learning/Stimuli/Experimental_stims/tent/Atent12.jpg,0.0,tent,pen,20.0,80.0,tent4,pen9,20.0,60.0,0.0,139.989,0.489,,,,,,
454,,confirmation,,html-keyboard-response,454,607977,0.0-1.0-91.0-0.0-1.0-0.0,0,0,72837,,,,,,89.0,,,,,2.0,,,,,,,,,,,,,,,,,,,,,,,,,,,141.0,1.011,,,,,,
455,,isi,,html-keyboard-response,455,608994,0.0-1.0-91.0-0.0-2.0,0,0,72837,,,,,,89.0,,,,,2.0,,,,,,,,,,,,,,,,,,,,,,,,,,,142.0,1.0,,,,,,
456,,feedback,,html-keyboard-response,456,610009,0.0-1.0-91.0-0.0-3.0-0.0,0,0,72837,,,,,,89.0,,,,,2.0,,,,,,,,,,,,,,,,,,,,,,,,,,,143.0,1.0,,,,,,
457,,iti,,html-keyboard-response,457,611530,0.0-1.0-91.0-0.0-5.0,0,0,72837,,,,,,89.0,,,,,2.0,,,,,,,,,,,,,,,,,,,,,,,,,,,144.5,1.5,,,,,,
458,,choice,,html-keyboard-response,458,612127,0.0-1.0-92.0-0.0-0.0,0,0,72837,,587.0,,,75.0,90.0,90.0,2000.0,1000.0,0.0,2.0,0.0,20-40,,1.0,bongo,yarn,40.0,20.0,bongo7,yarn6,20.0,20.0,26461075.thl.jpg,edwardian moment hpy sml.jpg,/static/Category_learning/Stimuli/Experimental_stims/bongo/26461075.thl.jpg,/static/Category_learning/Stimuli/Experimental_stims/yarn/edwardian moment hpy sml.jpg,0.0,yarn,bongo,20.0,40.0,yarn6,bongo7,20.0,20.0,0.0,145.087,0.587,,,,,,
459,,confirmation,,html-keyboard-response,459,613051,0.0-1.0-92.0-0.0-1.0-0.0,0,0,72837,,,,,,90.0,,,,,2.0,,,,,,,,,,,,,,,,,,,,,,,,,,,146.0,0.913,,,,,,
460,,isi,,html-keyboard-response,460,615068,0.0-1.0-92.0-0.0-2.0,0,0,72837,,,,,,90.0,,,,,2.0,,,,,,,,,,,,,,,,,,,,,,,,,,,148.0,2.0,,,,,,
461,,feedback,,html-keyboard-response,461,616091,0.0-1.0-92.0-0.0-3.0-0.0,0,0,72837,,,,,,90.0,,,,,2.0,,,,,,,,,,,,,,,,,,,,,,,,,,,149.0,1.0,,,,,,
462,,iti,,html-keyboard-response,462,617104,0.0-1.0-92.0-0.0-5.0,0,0,72837,,,,,,90.0,,,,,2.0,,,,,,,,,,,,,,,,,,,,,,,,,,,150.0,1.0,,,,,,
463,,choice,,html-keyboard-response,463,617597,0.0-1.0-93.0-0.0-0.0,0,0,72837,,484.0,,,68.0,91.0,91.0,3500.0,1000.0,0.0,2.0,0.0,40-40,,,desk,bongo,40.0,40.0,desk2,bongo15,60.0,40.0,AA Luffield Radial crescent Desk 1600mm x 1200mm.jpg,26390728.thl.jpg,/static/Category_learning/Stimuli/Experimental_stims/desk/AA Luffield Radial crescent Desk 1600mm x 1200mm.jpg,/static/Category_learning/Stimuli/Experimental_stims/bongo/26390728.thl.jpg,1.0,desk,bongo,40.0,40.0,desk2,bongo15,60.0,40.0,0.0,150.484,0.484,,,,,,
464,,confirmation,,html-keyboard-response,464,618630,0.0-1.0-93.0-0.0-1.0-0.0,0,0,72837,,,,,,91.0,,,,,2.0,,,,,,,,,,,,,,,,,,,,,,,,,,,151.5,1.016,,,,,,
465,,isi,,html-keyboard-response,465,622148,0.0-1.0-93.0-0.0-2.0,0,0,72837,,,,,,91.0,,,,,2.0,,,,,,,,,,,,,,,,,,,,,,,,,,,155.0,3.5,,,,,,
466,,feedback,,html-keyboard-response,466,623173,0.0-1.0-93.0-0.0-3.0-0.0,0,0,72837,,,,,,91.0,,,,,2.0,,,,,,,,,,,,,,,,,,,,,,,,,,,156.0,1.0,,,,,,
467,,iti,,html-keyboard-response,467,624206,0.0-1.0-93.0-0.0-5.0,0,0,72837,,,,,,91.0,,,,,2.0,,,,,,,,,,,,,,,,,,,,,,,,,,,157.0,1.0,,,,,,
468,,choice,,html-keyboard-response,468,624730,0.0-1.0-94.0-0.0-0.0,0,0,72837,,507.0,,,75.0,92.0,92.0,1500.0,1000.0,0.0,2.0,1.0,60-60,1.0,,frame,frame,60.0,60.0,frame7,frame4,40.0,60.0,AFRAME152.jpg,AFRAME125.jpg,/static/Category_learning/Stimuli/Experimental_stims/frame/AFRAME152.jpg,/static/Category_learning/Stimuli/Experimental_stims/frame/AFRAME125.jpg,0.0,frame,frame,60.0,60.0,frame4,frame7,60.0,40.0,0.0,157.507,0.507,,,,,,
469,,confirmation,,html-keyboard-response,469,625755,0.0-1.0-94.0-0.0-1.0-0.0,0,0,72837,,,,,,92.0,,,,,2.0,,,,,,,,,,,,,,,,,,,,,,,,,,,158.5,0.993,,,,,,
470,,isi,,html-keyboard-response,470,627278,0.0-1.0-94.0-0.0-2.0,0,0,72837,,,,,,92.0,,,,,2.0,,,,,,,,,,,,,,,,,,,,,,,,,,,160.0,1.5,,,,,,
471,,feedback,,html-keyboard-response,471,628297,0.0-1.0-94.0-0.0-3.0-0.0,0,0,72837,,,,,,92.0,,,,,2.0,,,,,,,,,,,,,,,,,,,,,,,,,,,161.0,1.0,,,,,,
472,,iti,,html-keyboard-response,472,629319,0.0-1.0-94.0-0.0-5.0,0,0,72837,,,,,,92.0,,,,,2.0,,,,,,,,,,,,,,,,,,,,,,,,,,,162.0,1.0,,,,,,
473,,choice,,html-keyboard-response,473,629900,0.0-1.0-95.0-0.0-0.0,0,0,72837,,571.0,,,68.0,93.0,93.0,3000.0,2000.0,0.0,2.0,1.0,20-20,1.0,,trumpet,trumpet,20.0,20.0,trumpet12,trumpet4,40.0,0.0,hornabariton.jpg,JUPITER+JTR1000S.jpg,/static/Category_learning/Stimuli/Experimental_stims/trumpet/hornabariton.jpg,/static/Category_learning/Stimuli/Experimental_stims/trumpet/JUPITER+JTR1000S.jpg,1.0,trumpet,trumpet,20.0,20.0,trumpet12,trumpet4,40.0,0.0,0.0,162.571,0.571,,,,,,
474,,confirmation,,html-keyboard-response,474,630842,0.0-1.0-95.0-0.0-1.0-0.0,0,0,72837,,,,,,93.0,,,,,2.0,,,,,,,,,,,,,,,,,,,,,,,,,,,163.5,0.929,,,,,,
475,,isi,,html-keyboard-response,475,633865,0.0-1.0-95.0-0.0-2.0,0,0,72837,,,,,,93.0,,,,,2.0,,,,,,,,,,,,,,,,,,,,,,,,,,,166.5,3.0,,,,,,
476,,feedback,,html-keyboard-response,476,634875,0.0-1.0-95.0-0.0-3.0-0.0,0,0,72837,,,,,,93.0,,,,,2.0,,,,,,,,,,,,,,,,,,,,,,,,,,,167.5,1.0,,,,,,
477,,iti,,html-keyboard-response,477,636885,0.0-1.0-95.0-0.0-5.0,0,0,72837,,,,,,93.0,,,,,2.0,,,,,,,,,,,,,,,,,,,,,,,,,,,169.5,2.0,,,,,,
