,success,ttype,start_time,trial_type,trial_index,time_elapsed,internal_node_id,warning,missed_checkup,PID,view_history,rt,responses,repeat_instructions,key_press,index,trial_num,isi,iti,is_practice,block,old_trial,pair_type,within_category,high_cat_on_left,left_category,right_category,left_category_value,right_category_value,left_exemplar,right_exemplar,left_exemplar_value,right_exemplar_value,left_img,right_img,left_img_path,right_img_path,left_chosen,chosen_category,unchosen_category,chosen_category_value,unchosen_category_value,chosen_exemplar,unchosen_exemplar,chosen_exemplar_value,unchosen_exemplar_value,no_response,onset,duration,end_practice,total_bonus_tally,category,category_group_value,category_value_response,did_not_enter_response
0,True,full_screen,d06032022hr1724,fullscreen,0,10938,0.0-0.0,0,0,60382,,,,,,,,,,,,,,,,,,,,,,,,,,,,,,,,,,,,,,,,,,,,,
1,,category_learning_instructions,,instructions,1,196927,0.0-1.0-0.0-0.0,0,0,60382,"[{""page_index"":0,""viewing_time"":7610},{""page_index"":1,""viewing_time"":158281},{""page_index"":2,""viewing_time"":5872},{""page_index"":3,""viewing_time"":3207},{""page_index"":4,""viewing_time"":7009},{""page_index"":5,""viewing_time"":1811},{""page_index"":6,""viewing_time"":2193}]",185984.0,,,,,,,,,,,,,,,,,,,,,,,,,,,,,,,,,,,,,,,,,,,
2,,category_learning_comprehension_check,,survey-multi-choice,2,215641,0.0-1.0-0.0-1.0,0,0,60382,,18708.0,"{""Q0"":""True"",""Q1"":""True"",""Q2"":""Change"",""Q3"":""D for left and K for right""}",1.0,,,,,,,,,,,,,,,,,,,,,,,,,,,,,,,,,,,,,,,,,
3,,missed_instruction_checkup,,html-keyboard-response,3,217587,0.0-1.0-0.0-2.0-0.0,0,0,60382,,1942.0,,,68.0,,,,,,,,,,,,,,,,,,,,,,,,,,,,,,,,,,,,,,,,
4,,category_learning_instructions,,instructions,4,251221,0.0-1.0-0.1-0.1,0,0,60382,"[{""page_index"":0,""viewing_time"":3377},{""page_index"":1,""viewing_time"":7504},{""page_index"":2,""viewing_time"":5951},{""page_index"":3,""viewing_time"":5322},{""page_index"":4,""viewing_time"":4196},{""page_index"":5,""viewing_time"":5310},{""page_index"":6,""viewing_time"":1969}]",33629.0,,,,,,,,,,,,,,,,,,,,,,,,,,,,,,,,,,,,,,,,,,,
5,,category_learning_comprehension_check,,survey-multi-choice,5,280687,0.0-1.0-0.1-1.1,0,0,60382,,29459.0,"{""Q0"":""True"",""Q1"":""True"",""Q2"":""Stay the same"",""Q3"":""D for left and K for right""}",0.0,,,,,,,,,,,,,,,,,,,,,,,,,,,,,,,,,,,,,,,,,
6,,,,html-keyboard-response,6,282458,0.0-1.0-1.0,0,0,60382,,1767.0,,,68.0,,,,,,,,,,,,,,,,,,,,,,,,,,,,,,,,,,,,,,,,
7,,choice,,html-keyboard-response,7,283675,0.0-1.0-2.0-0.0-0.0,0,0,60382,,1210.0,,,68.0,0.0,0.0,1500.0,1000.0,1.0,0.0,0.0,20-80,,0.0,bagel,dumbbell,20.0,80.0,bagel1,dumbbell1,0.0,80.0,bagels_pumpernickel_large.jpg,31B64EN68AL._AA280_.jpg,/static/Category_learning/Stimuli/Practice_stims/bagel/bagels_pumpernickel_large.jpg,/static/Category_learning/Stimuli/Practice_stims/dumbbell/31B64EN68AL._AA280_.jpg,1.0,bagel,dumbbell,20.0,80.0,bagel1,dumbbell1,0.0,80.0,0.0,1.21,1.21,,,,,,
8,,confirmation,,html-keyboard-response,8,283970,0.0-1.0-2.0-0.0-1.0-0.0,0,0,60382,,,,,,0.0,,,,,,,,,,,,,,,,,,,,,,,,,,,,,,,,1.5,0.29,,,,,,
9,,isi,,html-keyboard-response,9,285476,0.0-1.0-2.0-0.0-2.0,0,0,60382,,,,,,,,,,,,,,,,,,,,,,,,,,,,,,,,,,,,,,3.0,1.5,,,,,,
10,,feedback,,html-keyboard-response,10,286479,0.0-1.0-2.0-0.0-3.0-0.0,0,0,60382,,,,,,0.0,,,,,,,,,,,,,,,,,,,,,,,,,,,,,,,,4.0,1.0,,,,,,
11,,iti,,html-keyboard-response,11,287483,0.0-1.0-2.0-0.0-5.0,0,0,60382,,,,,,,,,,,,,,,,,,,,,,,,,,,,,,,,,,,,,,5.0,1.0,,,,,,
12,,choice,,html-keyboard-response,12,288070,0.0-1.0-3.0-0.0-0.0,0,0,60382,,581.0,,,75.0,1.0,1.0,3000.0,1500.0,1.0,0.0,0.0,20-40,,1.0,calculator,bagel,40.0,20.0,calculator2,bagel2,20.0,20.0,22829064.thl.jpg,bagels_cinnraisin_large.jpg,/static/Category_learning/Stimuli/Practice_stims/calculator/22829064.thl.jpg,/static/Category_learning/Stimuli/Practice_stims/bagel/bagels_cinnraisin_large.jpg,0.0,bagel,calculator,20.0,40.0,bagel2,calculator2,20.0,20.0,0.0,5.581,0.581,,,,,,
13,,confirmation,,html-keyboard-response,13,288994,0.0-1.0-3.0-0.0-1.0-0.0,0,0,60382,,,,,,1.0,,,,,,,,,,,,,,,,,,,,,,,,,,,,,,,,6.5,0.919,,,,,,
14,,isi,,html-keyboard-response,14,291999,0.0-1.0-3.0-0.0-2.0,0,0,60382,,,,,,,,,,,,,,,,,,,,,,,,,,,,,,,,,,,,,,9.5,3.0,,,,,,
15,,feedback,,html-keyboard-response,15,293003,0.0-1.0-3.0-0.0-3.0-0.0,0,0,60382,,,,,,1.0,,,,,,,,,,,,,,,,,,,,,,,,,,,,,,,,10.5,1.0,,,,,,
16,,iti,,html-keyboard-response,16,294508,0.0-1.0-3.0-0.0-5.0,0,0,60382,,,,,,,,,,,,,,,,,,,,,,,,,,,,,,,,,,,,,,12.0,1.5,,,,,,
17,,choice,,html-keyboard-response,17,294817,0.0-1.0-4.0-0.0-0.0,0,0,60382,,297.0,,,68.0,2.0,2.0,2000.0,3000.0,1.0,0.0,0.0,60-80,,0.0,clock,dumbbell,60.0,80.0,clock2,dumbbell2,60.0,100.0,26373355.thl.jpg,31K8MR6TMBL._SS500_.jpg,/static/Category_learning/Stimuli/Practice_stims/clock/26373355.thl.jpg,/static/Category_learning/Stimuli/Practice_stims/dumbbell/31K8MR6TMBL._SS500_.jpg,1.0,clock,dumbbell,60.0,80.0,clock2,dumbbell2,60.0,100.0,0.0,12.297,0.297,,,,,,
18,,confirmation,,html-keyboard-response,18,296025,0.0-1.0-4.0-0.0-1.0-0.0,0,0,60382,,,,,,2.0,,,,,,,,,,,,,,,,,,,,,,,,,,,,,,,,13.5,1.203,,,,,,
19,,isi,,html-keyboard-response,19,298029,0.0-1.0-4.0-0.0-2.0,0,0,60382,,,,,,,,,,,,,,,,,,,,,,,,,,,,,,,,,,,,,,15.5,2.0,,,,,,
20,,feedback,,html-keyboard-response,20,299031,0.0-1.0-4.0-0.0-3.0-0.0,0,0,60382,,,,,,2.0,,,,,,,,,,,,,,,,,,,,,,,,,,,,,,,,16.5,1.0,,,,,,
21,,iti,,html-keyboard-response,21,302034,0.0-1.0-4.0-0.0-5.0,0,0,60382,,,,,,,,,,,,,,,,,,,,,,,,,,,,,,,,,,,,,,19.5,3.0,,,,,,
22,,choice,,html-keyboard-response,22,302475,0.0-1.0-5.0-0.0-0.0,0,0,60382,,436.0,,,75.0,3.0,3.0,1000.0,2000.0,1.0,0.0,0.0,40-80,,0.0,calculator,clock,40.0,60.0,calculator1,clock1,40.0,40.0,22829184.thl.jpg,Aalarmclock2.jpg,/static/Category_learning/Stimuli/Practice_stims/calculator/22829184.thl.jpg,/static/Category_learning/Stimuli/Practice_stims/clock/Aalarmclock2.jpg,0.0,clock,calculator,60.0,40.0,clock1,calculator1,40.0,40.0,0.0,19.936,0.436,,,,,,
23,,confirmation,,html-keyboard-response,23,303543,0.0-1.0-5.0-0.0-1.0-0.0,0,0,60382,,,,,,3.0,,,,,,,,,,,,,,,,,,,,,,,,,,,,,,,,21.0,1.064,,,,,,
24,,isi,,html-keyboard-response,24,304547,0.0-1.0-5.0-0.0-2.0,0,0,60382,,,,,,,,,,,,,,,,,,,,,,,,,,,,,,,,,,,,,,22.0,1.0,,,,,,
25,,feedback,,html-keyboard-response,25,305550,0.0-1.0-5.0-0.0-3.0-0.0,0,0,60382,,,,,,3.0,,,,,,,,,,,,,,,,,,,,,,,,,,,,,,,,23.0,1.0,,,,,,
26,,iti,,html-keyboard-response,26,307555,0.0-1.0-5.0-0.0-5.0,0,0,60382,,,,,,,,,,,,,,,,,,,,,,,,,,,,,,,,,,,,,,25.0,2.0,,,,,,
27,,choice,,html-keyboard-response,27,307859,0.0-1.0-6.0-0.0-0.0,0,0,60382,,297.0,,,68.0,4.0,4.0,2500.0,2500.0,1.0,0.0,0.0,20-60,,1.0,dumbbell,bagel,80.0,20.0,dumbbell3,bagel3,100.0,40.0,41K7QVRX50L._SS500_.jpg,photo-169.jpg,/static/Category_learning/Stimuli/Practice_stims/dumbbell/41K7QVRX50L._SS500_.jpg,/static/Category_learning/Stimuli/Practice_stims/bagel/photo-169.jpg,1.0,dumbbell,bagel,80.0,20.0,dumbbell3,bagel3,100.0,40.0,0.0,25.297,0.297,1.0,,,,,
28,,confirmation,,html-keyboard-response,28,309066,0.0-1.0-6.0-0.0-1.0-0.0,0,0,60382,,,,,,4.0,,,,,,,,,,,,,,,,,,,,,,,,,,,,,,,,26.5,1.203,,,,,,
29,,isi,,html-keyboard-response,29,311569,0.0-1.0-6.0-0.0-2.0,0,0,60382,,,,,,,,,,,,,,,,,,,,,,,,,,,,,,,,,,,,,,29.0,2.5,,,,,,
30,,feedback,,html-keyboard-response,30,312573,0.0-1.0-6.0-0.0-3.0-0.0,0,0,60382,,,,,,4.0,,,,,,,,,,,,,,,,,,,,,,,,,,,,,,,,30.0,1.0,,,,,,
31,,iti,,html-keyboard-response,31,315076,0.0-1.0-6.0-0.0-5.0,0,0,60382,,,,,,,,,,,,,,,,,,,,,,,,,,,,,,,,,,,,,,32.5,2.5,,,,,,
32,,practice_over,,html-keyboard-response,32,316968,0.0-1.0-6.0-0.0-6.0-0.0,0,0,60382,,1889.0,,,68.0,4.0,,,,,,,,,,,,,,,,,,,,,,,,,,,,,,,,,,,,,,,
33,,start_run,,html-keyboard-response,33,318979,0.0-1.0-6.0-0.0-6.0-1.0,0,0,60382,,2006.0,,,84.0,,,,,,,,,,,,,,,,,,,,,,,,,,,,,,,,,,,,,,,,
34,,choice,,html-keyboard-response,34,319545,0.0-1.0-7.0-0.0-0.0,0,0,60382,,545.0,,,68.0,5.0,5.0,2000.0,3500.0,0.0,1.0,0.0,20-60,,0.0,necklace,bench,20.0,60.0,necklace15,bench3,40.0,40.0,necklascenew04.jpg,26419540.thl.jpg,/static/Category_learning/Stimuli/Experimental_stims/necklace/necklascenew04.jpg,/static/Category_learning/Stimuli/Experimental_stims/bench/26419540.thl.jpg,1.0,necklace,bench,20.0,60.0,necklace15,bench3,40.0,40.0,0.0,0.545,0.545,,,,,,
35,,confirmation,,html-keyboard-response,35,320504,0.0-1.0-7.0-0.0-1.0-0.0,0,0,60382,,,,,,5.0,,,,,,,,,,,,,,,,,,,,,,,,,,,,,,,,1.5,0.955,,,,,,
36,,isi,,html-keyboard-response,36,322508,0.0-1.0-7.0-0.0-2.0,0,0,60382,,,,,,,,,,,,,,,,,,,,,,,,,,,,,,,,,,,,,,3.5,2.0,,,,,,
37,,feedback,,html-keyboard-response,37,323512,0.0-1.0-7.0-0.0-3.0-0.0,0,0,60382,,,,,,5.0,,,,,,,,,,,,,,,,,,,,,,,,,,,,,,,,4.5,1.0,,,,,,
38,,iti,,html-keyboard-response,38,327015,0.0-1.0-7.0-0.0-5.0,0,0,60382,,,,,,,,,,,,,,,,,,,,,,,,,,,,,,,,,,,,,,8.0,3.5,,,,,,
39,,choice,,html-keyboard-response,39,327535,0.0-1.0-8.0-0.0-0.0,0,0,60382,,515.0,,,75.0,6.0,6.0,2000.0,1000.0,0.0,1.0,0.0,20-20,,,power strip,seashell,20.0,20.0,power strip8,seashell7,40.0,20.0,3118YGHQWXL._AA262_.jpg,seashell34.jpg,/static/Category_learning/Stimuli/Experimental_stims/power strip/3118YGHQWXL._AA262_.jpg,/static/Category_learning/Stimuli/Experimental_stims/seashell/seashell34.jpg,0.0,seashell,power strip,20.0,20.0,seashell7,power strip8,20.0,40.0,0.0,8.515,0.515,,,,,,
40,,confirmation,,html-keyboard-response,40,328524,0.0-1.0-8.0-0.0-1.0-0.0,0,0,60382,,,,,,6.0,,,,,,,,,,,,,,,,,,,,,,,,,,,,,,,,9.5,0.985,,,,,,
41,,isi,,html-keyboard-response,41,330527,0.0-1.0-8.0-0.0-2.0,0,0,60382,,,,,,,,,,,,,,,,,,,,,,,,,,,,,,,,,,,,,,11.5,2.0,,,,,,
42,,feedback,,html-keyboard-response,42,331530,0.0-1.0-8.0-0.0-3.0-0.0,0,0,60382,,,,,,6.0,,,,,,,,,,,,,,,,,,,,,,,,,,,,,,,,12.5,1.0,,,,,,
43,,iti,,html-keyboard-response,43,332534,0.0-1.0-8.0-0.0-5.0,0,0,60382,,,,,,,,,,,,,,,,,,,,,,,,,,,,,,,,,,,,,,13.5,1.0,,,,,,
44,,choice,,html-keyboard-response,44,332921,0.0-1.0-9.0-0.0-0.0,0,0,60382,,381.0,,,68.0,7.0,7.0,1500.0,2000.0,0.0,1.0,0.0,20-40,,1.0,telescope,poker card,40.0,20.0,telescope1,poker card9,20.0,40.0,celestron nexstar 114 gt reflector telescope.jpg,9817230.thl.jpg,/static/Category_learning/Stimuli/Experimental_stims/telescope/celestron nexstar 114 gt reflector telescope.jpg,/static/Category_learning/Stimuli/Experimental_stims/poker card/9817230.thl.jpg,1.0,telescope,poker card,40.0,20.0,telescope1,poker card9,20.0,40.0,0.0,13.881,0.381,,,,,,
45,,confirmation,,html-keyboard-response,45,334046,0.0-1.0-9.0-0.0-1.0-0.0,0,0,60382,,,,,,7.0,,,,,,,,,,,,,,,,,,,,,,,,,,,,,,,,15.0,1.119,,,,,,
46,,isi,,html-keyboard-response,46,335551,0.0-1.0-9.0-0.0-2.0,0,0,60382,,,,,,,,,,,,,,,,,,,,,,,,,,,,,,,,,,,,,,16.5,1.5,,,,,,
47,,feedback,,html-keyboard-response,47,336557,0.0-1.0-9.0-0.0-3.0-0.0,0,0,60382,,,,,,7.0,,,,,,,,,,,,,,,,,,,,,,,,,,,,,,,,17.5,1.0,,,,,,
48,,iti,,html-keyboard-response,48,338562,0.0-1.0-9.0-0.0-5.0,0,0,60382,,,,,,,,,,,,,,,,,,,,,,,,,,,,,,,,,,,,,,19.5,2.0,,,,,,
49,,choice,,html-keyboard-response,49,339062,0.0-1.0-10.0-0.0-0.0,0,0,60382,,495.0,,,75.0,8.0,8.0,3500.0,1000.0,0.0,1.0,0.0,60-60,,,door knob,dresser,60.0,60.0,door knob7,dresser4,40.0,80.0,doorknob2.jpg,ADRESSE40.jpg,/static/Category_learning/Stimuli/Experimental_stims/door knob/doorknob2.jpg,/static/Category_learning/Stimuli/Experimental_stims/dresser/ADRESSE40.jpg,0.0,dresser,door knob,60.0,60.0,dresser4,door knob7,80.0,40.0,0.0,19.995,0.495,,,,,,
50,,confirmation,,html-keyboard-response,50,340071,0.0-1.0-10.0-0.0-1.0-0.0,0,0,60382,,,,,,8.0,,,,,,,,,,,,,,,,,,,,,,,,,,,,,,,,21.0,1.005,,,,,,
51,,isi,,html-keyboard-response,51,343575,0.0-1.0-10.0-0.0-2.0,0,0,60382,,,,,,,,,,,,,,,,,,,,,,,,,,,,,,,,,,,,,,24.5,3.5,,,,,,
52,,feedback,,html-keyboard-response,52,344581,0.0-1.0-10.0-0.0-3.0-0.0,0,0,60382,,,,,,8.0,,,,,,,,,,,,,,,,,,,,,,,,,,,,,,,,25.5,1.0,,,,,,
53,,iti,,html-keyboard-response,53,345585,0.0-1.0-10.0-0.0-5.0,0,0,60382,,,,,,,,,,,,,,,,,,,,,,,,,,,,,,,,,,,,,,26.5,1.0,,,,,,
54,,choice,,html-keyboard-response,54,345983,0.0-1.0-11.0-0.0-0.0,0,0,60382,,393.0,,,68.0,9.0,9.0,1000.0,1000.0,0.0,1.0,0.0,20-60,,0.0,poker card,desk,20.0,60.0,poker card8,desk13,20.0,80.0,22864392.thl.jpg,26427865.thl.jpg,/static/Category_learning/Stimuli/Experimental_stims/poker card/22864392.thl.jpg,/static/Category_learning/Stimuli/Experimental_stims/desk/26427865.thl.jpg,1.0,poker card,desk,20.0,60.0,poker card8,desk13,20.0,80.0,0.0,26.893,0.393,,,,,,
55,,confirmation,,html-keyboard-response,55,347096,0.0-1.0-11.0-0.0-1.0-0.0,0,0,60382,,,,,,9.0,,,,,,,,,,,,,,,,,,,,,,,,,,,,,,,,28.0,1.107,,,,,,
56,,isi,,html-keyboard-response,56,348101,0.0-1.0-11.0-0.0-2.0,0,0,60382,,,,,,,,,,,,,,,,,,,,,,,,,,,,,,,,,,,,,,29.0,1.0,,,,,,
57,,feedback,,html-keyboard-response,57,349104,0.0-1.0-11.0-0.0-3.0-0.0,0,0,60382,,,,,,9.0,,,,,,,,,,,,,,,,,,,,,,,,,,,,,,,,30.0,1.0,,,,,,
58,,iti,,html-keyboard-response,58,350108,0.0-1.0-11.0-0.0-5.0,0,0,60382,,,,,,,,,,,,,,,,,,,,,,,,,,,,,,,,,,,,,,31.0,1.0,,,,,,
59,,choice,,html-keyboard-response,59,350562,0.0-1.0-12.0-0.0-0.0,0,0,60382,,450.0,,,75.0,10.0,10.0,1000.0,1000.0,0.0,1.0,0.0,20-60,,1.0,bench,nail polish,60.0,20.0,bench8,nail polish6,80.0,0.0,APARKBE14.jpg,127_t.jpg,/static/Category_learning/Stimuli/Experimental_stims/bench/APARKBE14.jpg,/static/Category_learning/Stimuli/Experimental_stims/nail polish/127_t.jpg,0.0,nail polish,bench,20.0,60.0,nail polish6,bench8,0.0,80.0,0.0,31.45,0.45,,,,,,
60,,confirmation,,html-keyboard-response,60,351615,0.0-1.0-12.0-0.0-1.0-0.0,0,0,60382,,,,,,10.0,,,,,,,,,,,,,,,,,,,,,,,,,,,,,,,,32.5,1.05,,,,,,
61,,isi,,html-keyboard-response,61,352619,0.0-1.0-12.0-0.0-2.0,0,0,60382,,,,,,,,,,,,,,,,,,,,,,,,,,,,,,,,,,,,,,33.5,1.0,,,,,,
62,,feedback,,html-keyboard-response,62,353624,0.0-1.0-12.0-0.0-3.0-0.0,0,0,60382,,,,,,10.0,,,,,,,,,,,,,,,,,,,,,,,,,,,,,,,,34.5,1.0,,,,,,
63,,iti,,html-keyboard-response,63,354630,0.0-1.0-12.0-0.0-5.0,0,0,60382,,,,,,,,,,,,,,,,,,,,,,,,,,,,,,,,,,,,,,35.5,1.0,,,,,,
64,,choice,,html-keyboard-response,64,355001,0.0-1.0-13.0-0.0-0.0,0,0,60382,,354.0,,,68.0,11.0,11.0,1500.0,3000.0,0.0,1.0,0.0,20-80,,0.0,pen,microscope,20.0,80.0,pen11,microscope4,0.0,80.0,pen01.jpg,55071208.JPG,/static/Category_learning/Stimuli/Experimental_stims/pen/pen01.jpg,/static/Category_learning/Stimuli/Experimental_stims/microscope/55071208.JPG,1.0,pen,microscope,20.0,80.0,pen11,microscope4,0.0,80.0,0.0,35.854,0.354,,,,,,
65,,confirmation,,html-keyboard-response,65,356151,0.0-1.0-13.0-0.0-1.0-0.0,0,0,60382,,,,,,11.0,,,,,,,,,,,,,,,,,,,,,,,,,,,,,,,,37.0,1.146,,,,,,
66,,isi,,html-keyboard-response,66,357656,0.0-1.0-13.0-0.0-2.0,0,0,60382,,,,,,,,,,,,,,,,,,,,,,,,,,,,,,,,,,,,,,38.5,1.5,,,,,,
67,,feedback,,html-keyboard-response,67,358661,0.0-1.0-13.0-0.0-3.0-0.0,0,0,60382,,,,,,11.0,,,,,,,,,,,,,,,,,,,,,,,,,,,,,,,,39.5,1.0,,,,,,
68,,iti,,html-keyboard-response,68,361663,0.0-1.0-13.0-0.0-5.0,0,0,60382,,,,,,,,,,,,,,,,,,,,,,,,,,,,,,,,,,,,,,42.5,3.0,,,,,,
69,,choice,,html-keyboard-response,69,361999,0.0-1.0-14.0-0.0-0.0,0,0,60382,,330.0,,,75.0,12.0,12.0,1500.0,2000.0,0.0,1.0,0.0,20-60,,0.0,necklace,bowl,20.0,60.0,necklace1,bowl14,0.0,60.0,26443173.thl.jpg,Aredglassbowl.jpg,/static/Category_learning/Stimuli/Experimental_stims/necklace/26443173.thl.jpg,/static/Category_learning/Stimuli/Experimental_stims/bowl/Aredglassbowl.jpg,0.0,bowl,necklace,60.0,20.0,bowl14,necklace1,60.0,0.0,0.0,42.83,0.33,,,,,,
70,,confirmation,,html-keyboard-response,70,363182,0.0-1.0-14.0-0.0-1.0-0.0,0,0,60382,,,,,,12.0,,,,,,,,,,,,,,,,,,,,,,,,,,,,,,,,44.0,1.17,,,,,,
71,,isi,,html-keyboard-response,71,364688,0.0-1.0-14.0-0.0-2.0,0,0,60382,,,,,,,,,,,,,,,,,,,,,,,,,,,,,,,,,,,,,,45.5,1.5,,,,,,
72,,feedback,,html-keyboard-response,72,365691,0.0-1.0-14.0-0.0-3.0-0.0,0,0,60382,,,,,,12.0,,,,,,,,,,,,,,,,,,,,,,,,,,,,,,,,46.5,1.0,,,,,,
73,,iti,,html-keyboard-response,73,367694,0.0-1.0-14.0-0.0-5.0,0,0,60382,,,,,,,,,,,,,,,,,,,,,,,,,,,,,,,,,,,,,,48.5,2.0,,,,,,
74,,choice,,html-keyboard-response,74,368048,0.0-1.0-15.0-0.0-0.0,0,0,60382,,349.0,,,68.0,13.0,13.0,3500.0,3500.0,0.0,1.0,1.0,20-20,0.0,,seashell,pen,20.0,20.0,seashell7,pen11,20.0,0.0,seashell34.jpg,pen01.jpg,/static/Category_learning/Stimuli/Experimental_stims/seashell/seashell34.jpg,/static/Category_learning/Stimuli/Experimental_stims/pen/pen01.jpg,1.0,seashell,pen,20.0,20.0,seashell7,pen11,20.0,0.0,0.0,48.849,0.349,,,,,,
75,,confirmation,,html-keyboard-response,75,369203,0.0-1.0-15.0-0.0-1.0-0.0,0,0,60382,,,,,,13.0,,,,,,,,,,,,,,,,,,,,,,,,,,,,,,,,50.0,1.151,,,,,,
76,,isi,,html-keyboard-response,76,372708,0.0-1.0-15.0-0.0-2.0,0,0,60382,,,,,,,,,,,,,,,,,,,,,,,,,,,,,,,,,,,,,,53.5,3.5,,,,,,
77,,feedback,,html-keyboard-response,77,373713,0.0-1.0-15.0-0.0-3.0-0.0,0,0,60382,,,,,,13.0,,,,,,,,,,,,,,,,,,,,,,,,,,,,,,,,54.5,1.0,,,,,,
78,,iti,,html-keyboard-response,78,377219,0.0-1.0-15.0-0.0-5.0,0,0,60382,,,,,,,,,,,,,,,,,,,,,,,,,,,,,,,,,,,,,,58.0,3.5,,,,,,
79,,choice,,html-keyboard-response,79,377602,0.0-1.0-16.0-0.0-0.0,0,0,60382,,377.0,,,75.0,14.0,14.0,1000.0,1000.0,0.0,1.0,0.0,60-80,,1.0,microscope,bench,80.0,60.0,microscope12,bench12,60.0,80.0,usbdigitalmicroscope1_small1.jpg,22927976.thl.jpg,/static/Category_learning/Stimuli/Experimental_stims/microscope/usbdigitalmicroscope1_small1.jpg,/static/Category_learning/Stimuli/Experimental_stims/bench/22927976.thl.jpg,0.0,bench,microscope,60.0,80.0,bench12,microscope12,80.0,60.0,0.0,58.377,0.377,,,,,,
80,,confirmation,,html-keyboard-response,80,378728,0.0-1.0-16.0-0.0-1.0-0.0,0,0,60382,,,,,,14.0,,,,,,,,,,,,,,,,,,,,,,,,,,,,,,,,59.5,1.123,,,,,,
81,,isi,,html-keyboard-response,81,379732,0.0-1.0-16.0-0.0-2.0,0,0,60382,,,,,,,,,,,,,,,,,,,,,,,,,,,,,,,,,,,,,,60.5,1.0,,,,,,
82,,feedback,,html-keyboard-response,82,380736,0.0-1.0-16.0-0.0-3.0-0.0,0,0,60382,,,,,,14.0,,,,,,,,,,,,,,,,,,,,,,,,,,,,,,,,61.5,1.0,,,,,,
83,,iti,,html-keyboard-response,83,381738,0.0-1.0-16.0-0.0-5.0,0,0,60382,,,,,,,,,,,,,,,,,,,,,,,,,,,,,,,,,,,,,,62.5,1.0,,,,,,
84,,choice,,html-keyboard-response,84,382099,0.0-1.0-17.0-0.0-0.0,0,0,60382,,354.0,,,68.0,15.0,15.0,1000.0,1000.0,0.0,1.0,1.0,20-60,0.0,,nail polish,dresser,20.0,60.0,nail polish6,dresser4,0.0,80.0,127_t.jpg,ADRESSE40.jpg,/static/Category_learning/Stimuli/Experimental_stims/nail polish/127_t.jpg,/static/Category_learning/Stimuli/Experimental_stims/dresser/ADRESSE40.jpg,1.0,nail polish,dresser,20.0,60.0,nail polish6,dresser4,0.0,80.0,0.0,62.854,0.354,,,,,,
85,,confirmation,,html-keyboard-response,85,383252,0.0-1.0-17.0-0.0-1.0-0.0,0,0,60382,,,,,,15.0,,,,,,,,,,,,,,,,,,,,,,,,,,,,,,,,64.0,1.146,,,,,,
86,,isi,,html-keyboard-response,86,384255,0.0-1.0-17.0-0.0-2.0,0,0,60382,,,,,,,,,,,,,,,,,,,,,,,,,,,,,,,,,,,,,,65.0,1.0,,,,,,
87,,feedback,,html-keyboard-response,87,385257,0.0-1.0-17.0-0.0-3.0-0.0,0,0,60382,,,,,,15.0,,,,,,,,,,,,,,,,,,,,,,,,,,,,,,,,66.0,1.0,,,,,,
88,,iti,,html-keyboard-response,88,386261,0.0-1.0-17.0-0.0-5.0,0,0,60382,,,,,,,,,,,,,,,,,,,,,,,,,,,,,,,,,,,,,,67.0,1.0,,,,,,
89,,choice,,html-keyboard-response,89,386677,0.0-1.0-18.0-0.0-0.0,0,0,60382,,412.0,,,75.0,16.0,16.0,1000.0,1000.0,0.0,1.0,0.0,20-40,,0.0,poker card,yarn,20.0,40.0,poker card3,yarn4,0.0,40.0,9817131.thl.jpg,amethyst dreaming boho hy sml.jpg,/static/Category_learning/Stimuli/Experimental_stims/poker card/9817131.thl.jpg,/static/Category_learning/Stimuli/Experimental_stims/yarn/amethyst dreaming boho hy sml.jpg,0.0,yarn,poker card,40.0,20.0,yarn4,poker card3,40.0,0.0,0.0,67.412,0.412,,,,,,
90,,confirmation,,html-keyboard-response,90,387769,0.0-1.0-18.0-0.0-1.0-0.0,0,0,60382,,,,,,16.0,,,,,,,,,,,,,,,,,,,,,,,,,,,,,,,,68.5,1.088,,,,,,
91,,isi,,html-keyboard-response,91,388772,0.0-1.0-18.0-0.0-2.0,0,0,60382,,,,,,,,,,,,,,,,,,,,,,,,,,,,,,,,,,,,,,69.5,1.0,,,,,,
92,,feedback,,html-keyboard-response,92,389775,0.0-1.0-18.0-0.0-3.0-0.0,0,0,60382,,,,,,16.0,,,,,,,,,,,,,,,,,,,,,,,,,,,,,,,,70.5,1.0,,,,,,
93,,iti,,html-keyboard-response,93,390780,0.0-1.0-18.0-0.0-5.0,0,0,60382,,,,,,,,,,,,,,,,,,,,,,,,,,,,,,,,,,,,,,71.5,1.0,,,,,,
94,,choice,,html-keyboard-response,94,391194,0.0-1.0-19.0-0.0-0.0,0,0,60382,,403.0,,,68.0,17.0,17.0,3500.0,1000.0,0.0,1.0,0.0,40-80,,0.0,trumpet,microscope,40.0,80.0,trumpet11,microscope8,20.0,80.0,JUPITER+JTR604L.jpg,AMICROS21.jpg,/static/Category_learning/Stimuli/Experimental_stims/trumpet/JUPITER+JTR604L.jpg,/static/Category_learning/Stimuli/Experimental_stims/microscope/AMICROS21.jpg,1.0,trumpet,microscope,40.0,80.0,trumpet11,microscope8,20.0,80.0,0.0,71.903,0.403,,,,,,
95,,confirmation,,html-keyboard-response,95,392296,0.0-1.0-19.0-0.0-1.0-0.0,0,0,60382,,,,,,17.0,,,,,,,,,,,,,,,,,,,,,,,,,,,,,,,,73.0,1.097,,,,,,
96,,isi,,html-keyboard-response,96,395799,0.0-1.0-19.0-0.0-2.0,0,0,60382,,,,,,,,,,,,,,,,,,,,,,,,,,,,,,,,,,,,,,76.5,3.5,,,,,,
97,,feedback,,html-keyboard-response,97,396805,0.0-1.0-19.0-0.0-3.0-0.0,0,0,60382,,,,,,17.0,,,,,,,,,,,,,,,,,,,,,,,,,,,,,,,,77.5,1.0,,,,,,
98,,iti,,html-keyboard-response,98,397811,0.0-1.0-19.0-0.0-5.0,0,0,60382,,,,,,,,,,,,,,,,,,,,,,,,,,,,,,,,,,,,,,78.5,1.0,,,,,,
99,,choice,,html-keyboard-response,99,398181,0.0-1.0-20.0-0.0-0.0,0,0,60382,,364.0,,,75.0,18.0,18.0,1500.0,1000.0,0.0,1.0,0.0,60-80,,0.0,baby carriage,hammer,60.0,80.0,baby carriage5,hammer8,80.0,80.0,Baby_Stroller.jpg,ct1006_hammer.jpg,/static/Category_learning/Stimuli/Experimental_stims/baby carriage/Baby_Stroller.jpg,/static/Category_learning/Stimuli/Experimental_stims/hammer/ct1006_hammer.jpg,0.0,hammer,baby carriage,80.0,60.0,hammer8,baby carriage5,80.0,80.0,0.0,78.864,0.364,,,,,,
100,,confirmation,,html-keyboard-response,100,399323,0.0-1.0-20.0-0.0-1.0-0.0,0,0,60382,,,,,,18.0,,,,,,,,,,,,,,,,,,,,,,,,,,,,,,,,80.0,1.136,,,,,,
101,,isi,,html-keyboard-response,101,400828,0.0-1.0-20.0-0.0-2.0,0,0,60382,,,,,,,,,,,,,,,,,,,,,,,,,,,,,,,,,,,,,,81.5,1.5,,,,,,
102,,feedback,,html-keyboard-response,102,401833,0.0-1.0-20.0-0.0-3.0-0.0,0,0,60382,,,,,,18.0,,,,,,,,,,,,,,,,,,,,,,,,,,,,,,,,82.5,1.0,,,,,,
103,,iti,,html-keyboard-response,103,402837,0.0-1.0-20.0-0.0-5.0,0,0,60382,,,,,,,,,,,,,,,,,,,,,,,,,,,,,,,,,,,,,,83.5,1.0,,,,,,
104,,choice,,html-keyboard-response,104,403171,0.0-1.0-21.0-0.0-0.0,0,0,60382,,326.0,,,68.0,19.0,19.0,1500.0,3500.0,0.0,1.0,0.0,60-60,,,fan,flashlight,60.0,60.0,fan6,flashlight1,60.0,40.0,30090.fpx.jpg,Graphite3D.jpg,/static/Category_learning/Stimuli/Experimental_stims/fan/30090.fpx.jpg,/static/Category_learning/Stimuli/Experimental_stims/flashlight/Graphite3D.jpg,1.0,fan,flashlight,60.0,60.0,fan6,flashlight1,60.0,40.0,0.0,83.826,0.326,,,,,,
105,,confirmation,,html-keyboard-response,105,404351,0.0-1.0-21.0-0.0-1.0-0.0,0,0,60382,,,,,,19.0,,,,,,,,,,,,,,,,,,,,,,,,,,,,,,,,85.0,1.174,,,,,,
106,,isi,,html-keyboard-response,106,405854,0.0-1.0-21.0-0.0-2.0,0,0,60382,,,,,,,,,,,,,,,,,,,,,,,,,,,,,,,,,,,,,,86.5,1.5,,,,,,
107,,feedback,,html-keyboard-response,107,406858,0.0-1.0-21.0-0.0-3.0-0.0,0,0,60382,,,,,,19.0,,,,,,,,,,,,,,,,,,,,,,,,,,,,,,,,87.5,1.0,,,,,,
108,,iti,,html-keyboard-response,108,410361,0.0-1.0-21.0-0.0-5.0,0,0,60382,,,,,,,,,,,,,,,,,,,,,,,,,,,,,,,,,,,,,,91.0,3.5,,,,,,
109,,choice,,html-keyboard-response,109,410671,0.0-1.0-22.0-0.0-0.0,0,0,60382,,303.0,,,75.0,20.0,20.0,1000.0,1000.0,0.0,1.0,0.0,20-80,,1.0,frame,patio lounge chair,80.0,20.0,frame11,patio lounge chair9,100.0,20.0,AFRAME139.jpg,43-3.jpg,/static/Category_learning/Stimuli/Experimental_stims/frame/AFRAME139.jpg,/static/Category_learning/Stimuli/Experimental_stims/patio lounge chair/43-3.jpg,0.0,patio lounge chair,frame,20.0,80.0,patio lounge chair9,frame11,20.0,100.0,0.0,91.303,0.303,,,,,,
110,,confirmation,,html-keyboard-response,110,411879,0.0-1.0-22.0-0.0-1.0-0.0,0,0,60382,,,,,,20.0,,,,,,,,,,,,,,,,,,,,,,,,,,,,,,,,92.5,1.197,,,,,,
111,,isi,,html-keyboard-response,111,412882,0.0-1.0-22.0-0.0-2.0,0,0,60382,,,,,,,,,,,,,,,,,,,,,,,,,,,,,,,,,,,,,,93.5,1.0,,,,,,
112,,feedback,,html-keyboard-response,112,413886,0.0-1.0-22.0-0.0-3.0-0.0,0,0,60382,,,,,,20.0,,,,,,,,,,,,,,,,,,,,,,,,,,,,,,,,94.5,1.0,,,,,,
113,,iti,,html-keyboard-response,113,414890,0.0-1.0-22.0-0.0-5.0,0,0,60382,,,,,,,,,,,,,,,,,,,,,,,,,,,,,,,,,,,,,,95.5,1.0,,,,,,
114,,choice,,html-keyboard-response,114,415231,0.0-1.0-23.0-0.0-0.0,0,0,60382,,335.0,,,68.0,21.0,21.0,2000.0,1000.0,0.0,1.0,0.0,40-80,,0.0,telescope,license plate,40.0,80.0,telescope11,license plate14,40.0,100.0,digimarc.ms03.jpg,fl-hel-bel.jpg,/static/Category_learning/Stimuli/Experimental_stims/telescope/digimarc.ms03.jpg,/static/Category_learning/Stimuli/Experimental_stims/license plate/fl-hel-bel.jpg,1.0,telescope,license plate,40.0,80.0,telescope11,license plate14,40.0,100.0,0.0,95.835,0.335,,,,,,
115,,confirmation,,html-keyboard-response,115,416400,0.0-1.0-23.0-0.0-1.0-0.0,0,0,60382,,,,,,21.0,,,,,,,,,,,,,,,,,,,,,,,,,,,,,,,,97.0,1.165,,,,,,
116,,isi,,html-keyboard-response,116,418403,0.0-1.0-23.0-0.0-2.0,0,0,60382,,,,,,,,,,,,,,,,,,,,,,,,,,,,,,,,,,,,,,99.0,2.0,,,,,,
117,,feedback,,html-keyboard-response,117,419408,0.0-1.0-23.0-0.0-3.0-0.0,0,0,60382,,,,,,21.0,,,,,,,,,,,,,,,,,,,,,,,,,,,,,,,,100.0,1.0,,,,,,
118,,iti,,html-keyboard-response,118,420411,0.0-1.0-23.0-0.0-5.0,0,0,60382,,,,,,,,,,,,,,,,,,,,,,,,,,,,,,,,,,,,,,101.0,1.0,,,,,,
119,,choice,,html-keyboard-response,119,420769,0.0-1.0-24.0-0.0-0.0,0,0,60382,,353.0,,,75.0,22.0,22.0,1000.0,1500.0,0.0,1.0,1.0,40-40,1.0,,telescope,telescope,40.0,40.0,telescope1,telescope11,20.0,40.0,celestron nexstar 114 gt reflector telescope.jpg,digimarc.ms03.jpg,/static/Category_learning/Stimuli/Experimental_stims/telescope/celestron nexstar 114 gt reflector telescope.jpg,/static/Category_learning/Stimuli/Experimental_stims/telescope/digimarc.ms03.jpg,0.0,telescope,telescope,40.0,40.0,telescope11,telescope1,40.0,20.0,0.0,101.353,0.353,,,,,,
120,,confirmation,,html-keyboard-response,120,421922,0.0-1.0-24.0-0.0-1.0-0.0,0,0,60382,,,,,,22.0,,,,,,,,,,,,,,,,,,,,,,,,,,,,,,,,102.5,1.147,,,,,,
121,,isi,,html-keyboard-response,121,422925,0.0-1.0-24.0-0.0-2.0,0,0,60382,,,,,,,,,,,,,,,,,,,,,,,,,,,,,,,,,,,,,,103.5,1.0,,,,,,
122,,feedback,,html-keyboard-response,122,423930,0.0-1.0-24.0-0.0-3.0-0.0,0,0,60382,,,,,,22.0,,,,,,,,,,,,,,,,,,,,,,,,,,,,,,,,104.5,1.0,,,,,,
123,,iti,,html-keyboard-response,123,425433,0.0-1.0-24.0-0.0-5.0,0,0,60382,,,,,,,,,,,,,,,,,,,,,,,,,,,,,,,,,,,,,,106.0,1.5,,,,,,
124,,choice,,html-keyboard-response,124,425757,0.0-1.0-25.0-0.0-0.0,0,0,60382,,317.0,,,68.0,23.0,23.0,1000.0,1500.0,0.0,1.0,0.0,40-80,,1.0,license plate,train,80.0,40.0,license plate9,train6,60.0,20.0,nm-dhg089.jpg,train9.jpg,/static/Category_learning/Stimuli/Experimental_stims/license plate/nm-dhg089.jpg,/static/Category_learning/Stimuli/Experimental_stims/train/train9.jpg,1.0,license plate,train,80.0,40.0,license plate9,train6,60.0,20.0,0.0,106.317,0.317,,,,,,
125,,confirmation,,html-keyboard-response,125,426946,0.0-1.0-25.0-0.0-1.0-0.0,0,0,60382,,,,,,23.0,,,,,,,,,,,,,,,,,,,,,,,,,,,,,,,,107.5,1.183,,,,,,
126,,isi,,html-keyboard-response,126,427950,0.0-1.0-25.0-0.0-2.0,0,0,60382,,,,,,,,,,,,,,,,,,,,,,,,,,,,,,,,,,,,,,108.5,1.0,,,,,,
127,,feedback,,html-keyboard-response,127,428955,0.0-1.0-25.0-0.0-3.0-0.0,0,0,60382,,,,,,23.0,,,,,,,,,,,,,,,,,,,,,,,,,,,,,,,,109.5,1.0,,,,,,
128,,iti,,html-keyboard-response,128,430459,0.0-1.0-25.0-0.0-5.0,0,0,60382,,,,,,,,,,,,,,,,,,,,,,,,,,,,,,,,,,,,,,111.0,1.5,,,,,,
129,,choice,,html-keyboard-response,129,430769,0.0-1.0-26.0-0.0-0.0,0,0,60382,,299.0,,,75.0,24.0,24.0,2000.0,1500.0,0.0,1.0,1.0,40-60,0.0,,bench,trumpet,60.0,40.0,bench12,trumpet11,80.0,20.0,22927976.thl.jpg,JUPITER+JTR604L.jpg,/static/Category_learning/Stimuli/Experimental_stims/bench/22927976.thl.jpg,/static/Category_learning/Stimuli/Experimental_stims/trumpet/JUPITER+JTR604L.jpg,0.0,trumpet,bench,40.0,60.0,trumpet11,bench12,20.0,80.0,0.0,111.299,0.299,,,,,,
130,,confirmation,,html-keyboard-response,130,431974,0.0-1.0-26.0-0.0-1.0-0.0,0,0,60382,,,,,,24.0,,,,,,,,,,,,,,,,,,,,,,,,,,,,,,,,112.5,1.201,,,,,,
131,,isi,,html-keyboard-response,131,433979,0.0-1.0-26.0-0.0-2.0,0,0,60382,,,,,,,,,,,,,,,,,,,,,,,,,,,,,,,,,,,,,,114.5,2.0,,,,,,
132,,feedback,,html-keyboard-response,132,434984,0.0-1.0-26.0-0.0-3.0-0.0,0,0,60382,,,,,,24.0,,,,,,,,,,,,,,,,,,,,,,,,,,,,,,,,115.5,1.0,,,,,,
133,,iti,,html-keyboard-response,133,436489,0.0-1.0-26.0-0.0-5.0,0,0,60382,,,,,,,,,,,,,,,,,,,,,,,,,,,,,,,,,,,,,,117.0,1.5,,,,,,
134,,choice,,html-keyboard-response,134,436800,0.0-1.0-27.0-0.0-0.0,0,0,60382,,303.0,,,68.0,25.0,25.0,1500.0,2000.0,0.0,1.0,0.0,40-60,,0.0,trumpet,flashlight,40.0,60.0,trumpet4,flashlight2,20.0,60.0,JUPITER+JTR1000S.jpg,AV-9 No Battery Flashlight.jpg,/static/Category_learning/Stimuli/Experimental_stims/trumpet/JUPITER+JTR1000S.jpg,/static/Category_learning/Stimuli/Experimental_stims/flashlight/AV-9 No Battery Flashlight.jpg,1.0,trumpet,flashlight,40.0,60.0,trumpet4,flashlight2,20.0,60.0,0.0,117.303,0.303,,,,,,
135,,confirmation,,html-keyboard-response,135,438001,0.0-1.0-27.0-0.0-1.0-0.0,0,0,60382,,,,,,25.0,,,,,,,,,,,,,,,,,,,,,,,,,,,,,,,,118.5,1.197,,,,,,
136,,isi,,html-keyboard-response,136,439503,0.0-1.0-27.0-0.0-2.0,0,0,60382,,,,,,,,,,,,,,,,,,,,,,,,,,,,,,,,,,,,,,120.0,1.5,,,,,,
137,,feedback,,html-keyboard-response,137,440507,0.0-1.0-27.0-0.0-3.0-0.0,0,0,60382,,,,,,25.0,,,,,,,,,,,,,,,,,,,,,,,,,,,,,,,,121.0,1.0,,,,,,
138,,iti,,html-keyboard-response,138,442510,0.0-1.0-27.0-0.0-5.0,0,0,60382,,,,,,,,,,,,,,,,,,,,,,,,,,,,,,,,,,,,,,123.0,2.0,,,,,,
139,,choice,,html-keyboard-response,139,442799,0.0-1.0-28.0-0.0-0.0,0,0,60382,,284.0,,,75.0,26.0,26.0,1500.0,3000.0,0.0,1.0,0.0,40-60,,0.0,stool,bowl,40.0,60.0,stool9,bowl8,40.0,40.0,ASTOOL7.jpg,ASLVBOWL.jpg,/static/Category_learning/Stimuli/Experimental_stims/stool/ASTOOL7.jpg,/static/Category_learning/Stimuli/Experimental_stims/bowl/ASLVBOWL.jpg,0.0,bowl,stool,60.0,40.0,bowl8,stool9,40.0,40.0,0.0,123.284,0.284,,,,,,
140,,confirmation,,html-keyboard-response,140,444019,0.0-1.0-28.0-0.0-1.0-0.0,0,0,60382,,,,,,26.0,,,,,,,,,,,,,,,,,,,,,,,,,,,,,,,,124.5,1.216,,,,,,
141,,isi,,html-keyboard-response,141,445524,0.0-1.0-28.0-0.0-2.0,0,0,60382,,,,,,,,,,,,,,,,,,,,,,,,,,,,,,,,,,,,,,126.0,1.5,,,,,,
142,,feedback,,html-keyboard-response,142,446532,0.0-1.0-28.0-0.0-3.0-0.0,0,0,60382,,,,,,26.0,,,,,,,,,,,,,,,,,,,,,,,,,,,,,,,,127.0,1.0,,,,,,
143,,iti,,html-keyboard-response,143,449536,0.0-1.0-28.0-0.0-5.0,0,0,60382,,,,,,,,,,,,,,,,,,,,,,,,,,,,,,,,,,,,,,130.0,3.0,,,,,,
144,,choice,,html-keyboard-response,144,449852,0.0-1.0-29.0-0.0-0.0,0,0,60382,,306.0,,,68.0,27.0,27.0,1000.0,1000.0,0.0,1.0,0.0,80-80,,,key chain,lipstick,80.0,80.0,key chain8,lipstick5,100.0,80.0,Keychain01.jpg,P35719_hero.jpg,/static/Category_learning/Stimuli/Experimental_stims/key chain/Keychain01.jpg,/static/Category_learning/Stimuli/Experimental_stims/lipstick/P35719_hero.jpg,1.0,key chain,lipstick,80.0,80.0,key chain8,lipstick5,100.0,80.0,0.0,130.306,0.306,,,,,,
145,,confirmation,,html-keyboard-response,145,451050,0.0-1.0-29.0-0.0-1.0-0.0,0,0,60382,,,,,,27.0,,,,,,,,,,,,,,,,,,,,,,,,,,,,,,,,131.5,1.194,,,,,,
146,,isi,,html-keyboard-response,146,452053,0.0-1.0-29.0-0.0-2.0,0,0,60382,,,,,,,,,,,,,,,,,,,,,,,,,,,,,,,,,,,,,,132.5,1.0,,,,,,
147,,feedback,,html-keyboard-response,147,453056,0.0-1.0-29.0-0.0-3.0-0.0,0,0,60382,,,,,,27.0,,,,,,,,,,,,,,,,,,,,,,,,,,,,,,,,133.5,1.0,,,,,,
148,,iti,,html-keyboard-response,148,454058,0.0-1.0-29.0-0.0-5.0,0,0,60382,,,,,,,,,,,,,,,,,,,,,,,,,,,,,,,,,,,,,,134.5,1.0,,,,,,
149,,choice,,html-keyboard-response,149,454390,0.0-1.0-30.0-0.0-0.0,0,0,60382,,327.0,,,75.0,28.0,28.0,3500.0,1500.0,0.0,1.0,0.0,60-60,,,bench,desk,60.0,60.0,bench7,desk5,40.0,80.0,ACONBENCH.jpg,ADESK6.jpg,/static/Category_learning/Stimuli/Experimental_stims/bench/ACONBENCH.jpg,/static/Category_learning/Stimuli/Experimental_stims/desk/ADESK6.jpg,0.0,desk,bench,60.0,60.0,desk5,bench7,80.0,40.0,0.0,134.827,0.327,,,,,,
150,,confirmation,,html-keyboard-response,150,455567,0.0-1.0-30.0-0.0-1.0-0.0,0,0,60382,,,,,,28.0,,,,,,,,,,,,,,,,,,,,,,,,,,,,,,,,136.0,1.173,,,,,,
151,,isi,,html-keyboard-response,151,459070,0.0-1.0-30.0-0.0-2.0,0,0,60382,,,,,,,,,,,,,,,,,,,,,,,,,,,,,,,,,,,,,,139.5,3.5,,,,,,
152,,feedback,,html-keyboard-response,152,460073,0.0-1.0-30.0-0.0-3.0-0.0,0,0,60382,,,,,,28.0,,,,,,,,,,,,,,,,,,,,,,,,,,,,,,,,140.5,1.0,,,,,,
153,,iti,,html-keyboard-response,153,461577,0.0-1.0-30.0-0.0-5.0,0,0,60382,,,,,,,,,,,,,,,,,,,,,,,,,,,,,,,,,,,,,,142.0,1.5,,,,,,
154,,choice,,html-keyboard-response,154,461814,0.0-1.0-31.0-0.0-0.0,0,0,60382,,231.0,,,68.0,29.0,29.0,2000.0,1000.0,0.0,1.0,1.0,60-60,1.0,,bowl,bowl,60.0,60.0,bowl14,bowl8,60.0,40.0,Aredglassbowl.jpg,ASLVBOWL.jpg,/static/Category_learning/Stimuli/Experimental_stims/bowl/Aredglassbowl.jpg,/static/Category_learning/Stimuli/Experimental_stims/bowl/ASLVBOWL.jpg,1.0,bowl,bowl,60.0,60.0,bowl14,bowl8,60.0,40.0,0.0,142.231,0.231,,,,,,
155,,confirmation,,html-keyboard-response,155,463087,0.0-1.0-31.0-0.0-1.0-0.0,0,0,60382,,,,,,29.0,,,,,,,,,,,,,,,,,,,,,,,,,,,,,,,,143.5,1.269,,,,,,
156,,isi,,html-keyboard-response,156,465094,0.0-1.0-31.0-0.0-2.0,0,0,60382,,,,,,,,,,,,,,,,,,,,,,,,,,,,,,,,,,,,,,145.5,2.0,,,,,,
157,,feedback,,html-keyboard-response,157,466098,0.0-1.0-31.0-0.0-3.0-0.0,0,0,60382,,,,,,29.0,,,,,,,,,,,,,,,,,,,,,,,,,,,,,,,,146.5,1.0,,,,,,
158,,iti,,html-keyboard-response,158,467101,0.0-1.0-31.0-0.0-5.0,0,0,60382,,,,,,,,,,,,,,,,,,,,,,,,,,,,,,,,,,,,,,147.5,1.0,,,,,,
159,,choice,,html-keyboard-response,159,467499,0.0-1.0-32.0-0.0-0.0,0,0,60382,,393.0,,,75.0,30.0,30.0,2000.0,3500.0,0.0,1.0,0.0,40-60,,0.0,stool,dresser,40.0,60.0,stool10,dresser12,60.0,60.0,ASTOOL26.jpg,ADRESSE58.jpg,/static/Category_learning/Stimuli/Experimental_stims/stool/ASTOOL26.jpg,/static/Category_learning/Stimuli/Experimental_stims/dresser/ADRESSE58.jpg,0.0,dresser,stool,60.0,40.0,dresser12,stool10,60.0,60.0,0.0,147.893,0.393,,,,,,
160,,confirmation,,html-keyboard-response,160,468611,0.0-1.0-32.0-0.0-1.0-0.0,0,0,60382,,,,,,30.0,,,,,,,,,,,,,,,,,,,,,,,,,,,,,,,,149.0,1.107,,,,,,
161,,isi,,html-keyboard-response,161,470613,0.0-1.0-32.0-0.0-2.0,0,0,60382,,,,,,,,,,,,,,,,,,,,,,,,,,,,,,,,,,,,,,151.0,2.0,,,,,,
162,,feedback,,html-keyboard-response,162,471617,0.0-1.0-32.0-0.0-3.0-0.0,0,0,60382,,,,,,30.0,,,,,,,,,,,,,,,,,,,,,,,,,,,,,,,,152.0,1.0,,,,,,
163,,iti,,html-keyboard-response,163,475124,0.0-1.0-32.0-0.0-5.0,0,0,60382,,,,,,,,,,,,,,,,,,,,,,,,,,,,,,,,,,,,,,155.5,3.5,,,,,,
164,,choice,,html-keyboard-response,164,475422,0.0-1.0-33.0-0.0-0.0,0,0,60382,,293.0,,,68.0,31.0,31.0,2000.0,2000.0,0.0,1.0,1.0,20-40,0.0,,patio lounge chair,trumpet,20.0,40.0,patio lounge chair9,trumpet4,20.0,20.0,43-3.jpg,JUPITER+JTR1000S.jpg,/static/Category_learning/Stimuli/Experimental_stims/patio lounge chair/43-3.jpg,/static/Category_learning/Stimuli/Experimental_stims/trumpet/JUPITER+JTR1000S.jpg,1.0,patio lounge chair,trumpet,20.0,40.0,patio lounge chair9,trumpet4,20.0,20.0,0.0,155.793,0.293,,,,,,
165,,confirmation,,html-keyboard-response,165,476633,0.0-1.0-33.0-0.0-1.0-0.0,0,0,60382,,,,,,31.0,,,,,,,,,,,,,,,,,,,,,,,,,,,,,,,,157.0,1.207,,,,,,
166,,isi,,html-keyboard-response,166,478641,0.0-1.0-33.0-0.0-2.0,0,0,60382,,,,,,,,,,,,,,,,,,,,,,,,,,,,,,,,,,,,,,159.0,2.0,,,,,,
167,,feedback,,html-keyboard-response,167,479644,0.0-1.0-33.0-0.0-3.0-0.0,0,0,60382,,,,,,31.0,,,,,,,,,,,,,,,,,,,,,,,,,,,,,,,,160.0,1.0,,,,,,
168,,iti,,html-keyboard-response,168,481648,0.0-1.0-33.0-0.0-5.0,0,0,60382,,,,,,,,,,,,,,,,,,,,,,,,,,,,,,,,,,,,,,162.0,2.0,,,,,,
169,,choice,,html-keyboard-response,169,481981,0.0-1.0-34.0-0.0-0.0,0,0,60382,,327.0,,,75.0,32.0,32.0,1500.0,2000.0,0.0,1.0,0.0,40-40,,,stool,tape,40.0,40.0,stool8,tape9,60.0,40.0,ASTOOL33.jpg,desk tape disp.jpg,/static/Category_learning/Stimuli/Experimental_stims/stool/ASTOOL33.jpg,/static/Category_learning/Stimuli/Experimental_stims/tape/desk tape disp.jpg,0.0,tape,stool,40.0,40.0,tape9,stool8,40.0,60.0,0.0,162.327,0.327,,,,,,
170,,confirmation,,html-keyboard-response,170,483177,0.0-1.0-34.0-0.0-1.0-0.0,0,0,60382,,,,,,32.0,,,,,,,,,,,,,,,,,,,,,,,,,,,,,,,,163.5,1.173,,,,,,
171,,isi,,html-keyboard-response,171,484680,0.0-1.0-34.0-0.0-2.0,0,0,60382,,,,,,,,,,,,,,,,,,,,,,,,,,,,,,,,,,,,,,165.0,1.5,,,,,,
172,,feedback,,html-keyboard-response,172,485685,0.0-1.0-34.0-0.0-3.0-0.0,0,0,60382,,,,,,32.0,,,,,,,,,,,,,,,,,,,,,,,,,,,,,,,,166.0,1.0,,,,,,
173,,iti,,html-keyboard-response,173,487688,0.0-1.0-34.0-0.0-5.0,0,0,60382,,,,,,,,,,,,,,,,,,,,,,,,,,,,,,,,,,,,,,168.0,2.0,,,,,,
174,,choice,,html-keyboard-response,174,487958,0.0-1.0-35.0-0.0-0.0,0,0,60382,,265.0,,,68.0,33.0,33.0,1000.0,3000.0,0.0,1.0,0.0,40-40,,,yarn,tent,40.0,40.0,yarn10,tent5,60.0,60.0,revelation-yarn.jpg,Dome Tentnb87r67.jpg,/static/Category_learning/Stimuli/Experimental_stims/yarn/revelation-yarn.jpg,/static/Category_learning/Stimuli/Experimental_stims/tent/Dome Tentnb87r67.jpg,1.0,yarn,tent,40.0,40.0,yarn10,tent5,60.0,60.0,0.0,168.265,0.265,,,,,,
175,,confirmation,,html-keyboard-response,175,489196,0.0-1.0-35.0-0.0-1.0-0.0,0,0,60382,,,,,,33.0,,,,,,,,,,,,,,,,,,,,,,,,,,,,,,,,169.5,1.235,,,,,,
176,,isi,,html-keyboard-response,176,490201,0.0-1.0-35.0-0.0-2.0,0,0,60382,,,,,,,,,,,,,,,,,,,,,,,,,,,,,,,,,,,,,,170.5,1.0,,,,,,
177,,feedback,,html-keyboard-response,177,491205,0.0-1.0-35.0-0.0-3.0-0.0,0,0,60382,,,,,,33.0,,,,,,,,,,,,,,,,,,,,,,,,,,,,,,,,171.5,1.0,,,,,,
178,,iti,,html-keyboard-response,178,494211,0.0-1.0-35.0-0.0-5.0,0,0,60382,,,,,,,,,,,,,,,,,,,,,,,,,,,,,,,,,,,,,,174.5,3.0,,,,,,
179,,choice,,html-keyboard-response,179,494592,0.0-1.0-36.0-0.0-0.0,0,0,60382,,366.0,,,68.0,34.0,34.0,1000.0,1500.0,0.0,1.0,0.0,20-20,,,pen,nail polish,20.0,20.0,pen2,nail polish3,20.0,40.0,Montblanc-Blu-Starwalker-BP copy.jpg,327636.jpg,/static/Category_learning/Stimuli/Experimental_stims/pen/Montblanc-Blu-Starwalker-BP copy.jpg,/static/Category_learning/Stimuli/Experimental_stims/nail polish/327636.jpg,1.0,pen,nail polish,20.0,20.0,pen2,nail polish3,20.0,40.0,0.0,174.866,0.366,,,,,,
180,,confirmation,,html-keyboard-response,180,495733,0.0-1.0-36.0-0.0-1.0-0.0,0,0,60382,,,,,,34.0,,,,,,,,,,,,,,,,,,,,,,,,,,,,,,,,176.0,1.134,,,,,,
181,,isi,,html-keyboard-response,181,496749,0.0-1.0-36.0-0.0-2.0,0,0,60382,,,,,,,,,,,,,,,,,,,,,,,,,,,,,,,,,,,,,,177.0,1.0,,,,,,
182,,feedback,,html-keyboard-response,182,497752,0.0-1.0-36.0-0.0-3.0-0.0,0,0,60382,,,,,,34.0,,,,,,,,,,,,,,,,,,,,,,,,,,,,,,,,178.0,1.0,,,,,,
183,,iti,,html-keyboard-response,183,499258,0.0-1.0-36.0-0.0-5.0,0,0,60382,,,,,,,,,,,,,,,,,,,,,,,,,,,,,,,,,,,,,,179.5,1.5,,,,,,
184,,choice,,html-keyboard-response,184,499620,0.0-1.0-37.0-0.0-0.0,0,0,60382,,348.0,,,75.0,35.0,35.0,1500.0,1000.0,0.0,1.0,0.0,40-60,,0.0,stool,dresser,40.0,60.0,stool2,dresser14,20.0,60.0,ASTOOL46.jpg,Adressertabl3.jpg,/static/Category_learning/Stimuli/Experimental_stims/stool/ASTOOL46.jpg,/static/Category_learning/Stimuli/Experimental_stims/dresser/Adressertabl3.jpg,0.0,dresser,stool,60.0,40.0,dresser14,stool2,60.0,20.0,0.0,179.848,0.348,,,,,,
185,,confirmation,,html-keyboard-response,185,500779,0.0-1.0-37.0-0.0-1.0-0.0,0,0,60382,,,,,,35.0,,,,,,,,,,,,,,,,,,,,,,,,,,,,,,,,181.0,1.152,,,,,,
186,,isi,,html-keyboard-response,186,502285,0.0-1.0-37.0-0.0-2.0,0,0,60382,,,,,,,,,,,,,,,,,,,,,,,,,,,,,,,,,,,,,,182.5,1.5,,,,,,
187,,feedback,,html-keyboard-response,187,503289,0.0-1.0-37.0-0.0-3.0-0.0,0,0,60382,,,,,,35.0,,,,,,,,,,,,,,,,,,,,,,,,,,,,,,,,183.5,1.0,,,,,,
188,,iti,,html-keyboard-response,188,504292,0.0-1.0-37.0-0.0-5.0,0,0,60382,,,,,,,,,,,,,,,,,,,,,,,,,,,,,,,,,,,,,,184.5,1.0,,,,,,
189,,choice,,html-keyboard-response,189,504718,0.0-1.0-38.0-0.0-0.0,0,0,60382,,421.0,,,75.0,36.0,36.0,1500.0,1000.0,0.0,1.0,0.0,20-80,,0.0,necklace,motorcycle,20.0,80.0,necklace2,motorcycle2,20.0,100.0,Anecklace7.jpg,motorcycle33.jpg,/static/Category_learning/Stimuli/Experimental_stims/necklace/Anecklace7.jpg,/static/Category_learning/Stimuli/Experimental_stims/motorcycle/motorcycle33.jpg,0.0,motorcycle,necklace,80.0,20.0,motorcycle2,necklace2,100.0,20.0,0.0,184.921,0.421,,,,,,
190,,confirmation,,html-keyboard-response,190,505801,0.0-1.0-38.0-0.0-1.0-0.0,0,0,60382,,,,,,36.0,,,,,,,,,,,,,,,,,,,,,,,,,,,,,,,,186.0,1.079,,,,,,
191,,isi,,html-keyboard-response,191,507305,0.0-1.0-38.0-0.0-2.0,0,0,60382,,,,,,,,,,,,,,,,,,,,,,,,,,,,,,,,,,,,,,187.5,1.5,,,,,,
192,,feedback,,html-keyboard-response,192,508309,0.0-1.0-38.0-0.0-3.0-0.0,0,0,60382,,,,,,36.0,,,,,,,,,,,,,,,,,,,,,,,,,,,,,,,,188.5,1.0,,,,,,
193,,iti,,html-keyboard-response,193,509314,0.0-1.0-38.0-0.0-5.0,0,0,60382,,,,,,,,,,,,,,,,,,,,,,,,,,,,,,,,,,,,,,189.5,1.0,,,,,,
194,,choice,,html-keyboard-response,194,510104,0.0-1.0-39.0-0.0-0.0,0,0,60382,,783.0,,,75.0,37.0,37.0,1000.0,1000.0,0.0,1.0,1.0,40-40,1.0,,yarn,yarn,40.0,40.0,yarn10,yarn4,60.0,40.0,revelation-yarn.jpg,amethyst dreaming boho hy sml.jpg,/static/Category_learning/Stimuli/Experimental_stims/yarn/revelation-yarn.jpg,/static/Category_learning/Stimuli/Experimental_stims/yarn/amethyst dreaming boho hy sml.jpg,0.0,yarn,yarn,40.0,40.0,yarn4,yarn10,40.0,60.0,0.0,190.283,0.783,,,,,,
195,,confirmation,,html-keyboard-response,195,510826,0.0-1.0-39.0-0.0-1.0-0.0,0,0,60382,,,,,,37.0,,,,,,,,,,,,,,,,,,,,,,,,,,,,,,,,191.0,0.717,,,,,,
196,,isi,,html-keyboard-response,196,511832,0.0-1.0-39.0-0.0-2.0,0,0,60382,,,,,,,,,,,,,,,,,,,,,,,,,,,,,,,,,,,,,,192.0,1.0,,,,,,
197,,feedback,,html-keyboard-response,197,512837,0.0-1.0-39.0-0.0-3.0-0.0,0,0,60382,,,,,,37.0,,,,,,,,,,,,,,,,,,,,,,,,,,,,,,,,193.0,1.0,,,,,,
198,,iti,,html-keyboard-response,198,513843,0.0-1.0-39.0-0.0-5.0,0,0,60382,,,,,,,,,,,,,,,,,,,,,,,,,,,,,,,,,,,,,,194.0,1.0,,,,,,
199,,choice,,html-keyboard-response,199,514630,0.0-1.0-40.0-0.0-0.0,0,0,60382,,776.0,,,75.0,38.0,38.0,3000.0,1000.0,0.0,1.0,0.0,20-60,,0.0,sofa,bongo,20.0,60.0,sofa9,bongo12,20.0,40.0,ALOVSEAT9.jpg,26686609.thl.jpg,/static/Category_learning/Stimuli/Experimental_stims/sofa/ALOVSEAT9.jpg,/static/Category_learning/Stimuli/Experimental_stims/bongo/26686609.thl.jpg,0.0,bongo,sofa,60.0,20.0,bongo12,sofa9,40.0,20.0,0.0,194.776,0.776,,,,,,
200,,confirmation,,html-keyboard-response,200,515358,0.0-1.0-40.0-0.0-1.0-0.0,0,0,60382,,,,,,38.0,,,,,,,,,,,,,,,,,,,,,,,,,,,,,,,,195.5,0.724,,,,,,
201,,isi,,html-keyboard-response,201,518364,0.0-1.0-40.0-0.0-2.0,0,0,60382,,,,,,,,,,,,,,,,,,,,,,,,,,,,,,,,,,,,,,198.5,3.0,,,,,,
202,,feedback,,html-keyboard-response,202,519368,0.0-1.0-40.0-0.0-3.0-0.0,0,0,60382,,,,,,38.0,,,,,,,,,,,,,,,,,,,,,,,,,,,,,,,,199.5,1.0,,,,,,
203,,iti,,html-keyboard-response,203,520370,0.0-1.0-40.0-0.0-5.0,0,0,60382,,,,,,,,,,,,,,,,,,,,,,,,,,,,,,,,,,,,,,200.5,1.0,,,,,,
204,,choice,,html-keyboard-response,204,520504,0.0-1.0-41.0-0.0-0.0,0,0,60382,,129.0,,,75.0,39.0,39.0,3000.0,3000.0,0.0,1.0,0.0,20-20,,,patio lounge chair,seashell,20.0,20.0,patio lounge chair14,seashell13,40.0,0.0,2987951.jpg,coquillage22.jpg,/static/Category_learning/Stimuli/Experimental_stims/patio lounge chair/2987951.jpg,/static/Category_learning/Stimuli/Experimental_stims/seashell/coquillage22.jpg,0.0,seashell,patio lounge chair,20.0,20.0,seashell13,patio lounge chair14,0.0,40.0,0.0,200.629,0.129,,,,,,
205,,confirmation,,html-keyboard-response,205,521880,0.0-1.0-41.0-0.0-1.0-0.0,0,0,60382,,,,,,39.0,,,,,,,,,,,,,,,,,,,,,,,,,,,,,,,,202.0,1.371,,,,,,
206,,isi,,html-keyboard-response,206,524886,0.0-1.0-41.0-0.0-2.0,0,0,60382,,,,,,,,,,,,,,,,,,,,,,,,,,,,,,,,,,,,,,205.0,3.0,,,,,,
207,,feedback,,html-keyboard-response,207,525895,0.0-1.0-41.0-0.0-3.0-0.0,0,0,60382,,,,,,39.0,,,,,,,,,,,,,,,,,,,,,,,,,,,,,,,,206.0,1.0,,,,,,
208,,iti,,html-keyboard-response,208,528899,0.0-1.0-41.0-0.0-5.0,0,0,60382,,,,,,,,,,,,,,,,,,,,,,,,,,,,,,,,,,,,,,209.0,3.0,,,,,,
209,,choice,,html-keyboard-response,209,529259,0.0-1.0-42.0-0.0-0.0,0,0,60382,,350.0,,,75.0,40.0,40.0,2000.0,2000.0,0.0,1.0,0.0,60-80,,1.0,makeup compact,flashlight,80.0,60.0,makeup compact9,flashlight10,100.0,80.0,b_102019.jpg,834784_sk_lg.jpg,/static/Category_learning/Stimuli/Experimental_stims/makeup compact/b_102019.jpg,/static/Category_learning/Stimuli/Experimental_stims/flashlight/834784_sk_lg.jpg,0.0,flashlight,makeup compact,60.0,80.0,flashlight10,makeup compact9,80.0,100.0,0.0,209.35,0.35,,,,,,
210,,confirmation,,html-keyboard-response,210,530414,0.0-1.0-42.0-0.0-1.0-0.0,0,0,60382,,,,,,40.0,,,,,,,,,,,,,,,,,,,,,,,,,,,,,,,,210.5,1.15,,,,,,
211,,isi,,html-keyboard-response,211,532418,0.0-1.0-42.0-0.0-2.0,0,0,60382,,,,,,,,,,,,,,,,,,,,,,,,,,,,,,,,,,,,,,212.5,2.0,,,,,,
212,,feedback,,html-keyboard-response,212,533423,0.0-1.0-42.0-0.0-3.0-0.0,0,0,60382,,,,,,40.0,,,,,,,,,,,,,,,,,,,,,,,,,,,,,,,,213.5,1.0,,,,,,
213,,iti,,html-keyboard-response,213,535427,0.0-1.0-42.0-0.0-5.0,0,0,60382,,,,,,,,,,,,,,,,,,,,,,,,,,,,,,,,,,,,,,215.5,2.0,,,,,,
214,,choice,,html-keyboard-response,214,535981,0.0-1.0-43.0-0.0-0.0,0,0,60382,,549.0,,,75.0,41.0,41.0,2000.0,1000.0,0.0,1.0,1.0,60-60,1.0,,dresser,dresser,60.0,60.0,dresser14,dresser12,60.0,60.0,Adressertabl3.jpg,ADRESSE58.jpg,/static/Category_learning/Stimuli/Experimental_stims/dresser/Adressertabl3.jpg,/static/Category_learning/Stimuli/Experimental_stims/dresser/ADRESSE58.jpg,0.0,dresser,dresser,60.0,60.0,dresser12,dresser14,60.0,60.0,0.0,216.049,0.549,,,,,,
215,,confirmation,,html-keyboard-response,215,536937,0.0-1.0-43.0-0.0-1.0-0.0,0,0,60382,,,,,,41.0,,,,,,,,,,,,,,,,,,,,,,,,,,,,,,,,217.0,0.951,,,,,,
216,,isi,,html-keyboard-response,216,538941,0.0-1.0-43.0-0.0-2.0,0,0,60382,,,,,,,,,,,,,,,,,,,,,,,,,,,,,,,,,,,,,,219.0,2.0,,,,,,
217,,feedback,,html-keyboard-response,217,539945,0.0-1.0-43.0-0.0-3.0-0.0,0,0,60382,,,,,,41.0,,,,,,,,,,,,,,,,,,,,,,,,,,,,,,,,220.0,1.0,,,,,,
218,,iti,,html-keyboard-response,218,540949,0.0-1.0-43.0-0.0-5.0,0,0,60382,,,,,,,,,,,,,,,,,,,,,,,,,,,,,,,,,,,,,,221.0,1.0,,,,,,
219,,choice,,html-keyboard-response,219,542010,0.0-1.0-44.0-0.0-0.0,0,0,60382,,1057.0,,,75.0,42.0,42.0,1000.0,1500.0,0.0,1.0,0.0,40-80,,1.0,makeup compact,trumpet,80.0,40.0,makeup compact6,trumpet13,80.0,40.0,P0754_hero.jpg,JUPITER+JTR1600GS.jpg,/static/Category_learning/Stimuli/Experimental_stims/makeup compact/P0754_hero.jpg,/static/Category_learning/Stimuli/Experimental_stims/trumpet/JUPITER+JTR1600GS.jpg,0.0,trumpet,makeup compact,40.0,80.0,trumpet13,makeup compact6,40.0,80.0,0.0,222.057,1.057,,,,,,
220,,confirmation,,html-keyboard-response,220,542458,0.0-1.0-44.0-0.0-1.0-0.0,0,0,60382,,,,,,42.0,,,,,,,,,,,,,,,,,,,,,,,,,,,,,,,,222.5,0.443,,,,,,
221,,isi,,html-keyboard-response,221,543461,0.0-1.0-44.0-0.0-2.0,0,0,60382,,,,,,,,,,,,,,,,,,,,,,,,,,,,,,,,,,,,,,223.5,1.0,,,,,,
222,,feedback,,html-keyboard-response,222,544478,0.0-1.0-44.0-0.0-3.0-0.0,0,0,60382,,,,,,42.0,,,,,,,,,,,,,,,,,,,,,,,,,,,,,,,,224.5,1.0,,,,,,
223,,iti,,html-keyboard-response,223,545985,0.0-1.0-44.0-0.0-5.0,0,0,60382,,,,,,,,,,,,,,,,,,,,,,,,,,,,,,,,,,,,,,226.0,1.5,,,,,,
224,,choice,,html-keyboard-response,224,546579,0.0-1.0-45.0-0.0-0.0,0,0,60382,,590.0,,,75.0,43.0,43.0,1000.0,2000.0,0.0,1.0,0.0,80-80,,,hat,makeup compact,80.0,80.0,hat2,makeup compact10,100.0,60.0,Ahatwithfeat7.jpg,P95108_hero.jpg,/static/Category_learning/Stimuli/Experimental_stims/hat/Ahatwithfeat7.jpg,/static/Category_learning/Stimuli/Experimental_stims/makeup compact/P95108_hero.jpg,0.0,makeup compact,hat,80.0,80.0,makeup compact10,hat2,60.0,100.0,0.0,226.59,0.59,,,,,,
225,,confirmation,,html-keyboard-response,225,547493,0.0-1.0-45.0-0.0-1.0-0.0,0,0,60382,,,,,,43.0,,,,,,,,,,,,,,,,,,,,,,,,,,,,,,,,227.5,0.91,,,,,,
226,,isi,,html-keyboard-response,226,548496,0.0-1.0-45.0-0.0-2.0,0,0,60382,,,,,,,,,,,,,,,,,,,,,,,,,,,,,,,,,,,,,,228.5,1.0,,,,,,
227,,feedback,,html-keyboard-response,227,549501,0.0-1.0-45.0-0.0-3.0-0.0,0,0,60382,,,,,,43.0,,,,,,,,,,,,,,,,,,,,,,,,,,,,,,,,229.5,1.0,,,,,,
228,,iti,,html-keyboard-response,228,551504,0.0-1.0-45.0-0.0-5.0,0,0,60382,,,,,,,,,,,,,,,,,,,,,,,,,,,,,,,,,,,,,,231.5,2.0,,,,,,
229,,choice,,html-keyboard-response,229,551919,0.0-1.0-46.0-0.0-0.0,0,0,60382,,410.0,,,75.0,44.0,44.0,1500.0,1500.0,0.0,1.0,0.0,40-60,,1.0,fan,tent,60.0,40.0,fan1,tent4,80.0,40.0,01393.fpx.jpg,Atent12.jpg,/static/Category_learning/Stimuli/Experimental_stims/fan/01393.fpx.jpg,/static/Category_learning/Stimuli/Experimental_stims/tent/Atent12.jpg,0.0,tent,fan,40.0,60.0,tent4,fan1,40.0,80.0,0.0,231.91,0.41,,,,,,
230,,confirmation,,html-keyboard-response,230,553013,0.0-1.0-46.0-0.0-1.0-0.0,0,0,60382,,,,,,44.0,,,,,,,,,,,,,,,,,,,,,,,,,,,,,,,,233.0,1.09,,,,,,
231,,isi,,html-keyboard-response,231,554519,0.0-1.0-46.0-0.0-2.0,0,0,60382,,,,,,,,,,,,,,,,,,,,,,,,,,,,,,,,,,,,,,234.5,1.5,,,,,,
232,,feedback,,html-keyboard-response,232,555525,0.0-1.0-46.0-0.0-3.0-0.0,0,0,60382,,,,,,44.0,,,,,,,,,,,,,,,,,,,,,,,,,,,,,,,,235.5,1.0,,,,,,
233,,iti,,html-keyboard-response,233,557028,0.0-1.0-46.0-0.0-5.0,0,0,60382,,,,,,,,,,,,,,,,,,,,,,,,,,,,,,,,,,,,,,237.0,1.5,,,,,,
234,,choice,,html-keyboard-response,234,557348,0.0-1.0-47.0-0.0-0.0,0,0,60382,,312.0,,,75.0,45.0,45.0,2000.0,3500.0,0.0,1.0,1.0,40-40,0.0,,trumpet,tent,40.0,40.0,trumpet13,tent4,40.0,40.0,JUPITER+JTR1600GS.jpg,Atent12.jpg,/static/Category_learning/Stimuli/Experimental_stims/trumpet/JUPITER+JTR1600GS.jpg,/static/Category_learning/Stimuli/Experimental_stims/tent/Atent12.jpg,0.0,tent,trumpet,40.0,40.0,tent4,trumpet13,40.0,40.0,0.0,237.312,0.312,,,,,,
235,,confirmation,,html-keyboard-response,235,558539,0.0-1.0-47.0-0.0-1.0-0.0,0,0,60382,,,,,,45.0,,,,,,,,,,,,,,,,,,,,,,,,,,,,,,,,238.5,1.188,,,,,,
236,,isi,,html-keyboard-response,236,560543,0.0-1.0-47.0-0.0-2.0,0,0,60382,,,,,,,,,,,,,,,,,,,,,,,,,,,,,,,,,,,,,,240.5,2.0,,,,,,
237,,feedback,,html-keyboard-response,237,561552,0.0-1.0-47.0-0.0-3.0-0.0,0,0,60382,,,,,,45.0,,,,,,,,,,,,,,,,,,,,,,,,,,,,,,,,241.5,1.0,,,,,,
238,,iti,,html-keyboard-response,238,565056,0.0-1.0-47.0-0.0-5.0,0,0,60382,,,,,,,,,,,,,,,,,,,,,,,,,,,,,,,,,,,,,,245.0,3.5,,,,,,
239,,choice,,html-keyboard-response,239,565448,0.0-1.0-48.0-0.0-0.0,0,0,60382,,387.0,,,75.0,46.0,46.0,2000.0,1500.0,0.0,1.0,0.0,40-80,,0.0,yarn,lipstick,40.0,80.0,yarn8,lipstick9,60.0,100.0,smonlineyarn-285x250.jpg,P189145_hero.jpg,/static/Category_learning/Stimuli/Experimental_stims/yarn/smonlineyarn-285x250.jpg,/static/Category_learning/Stimuli/Experimental_stims/lipstick/P189145_hero.jpg,0.0,lipstick,yarn,80.0,40.0,lipstick9,yarn8,100.0,60.0,0.0,245.387,0.387,,,,,,
240,,confirmation,,html-keyboard-response,240,566565,0.0-1.0-48.0-0.0-1.0-0.0,0,0,60382,,,,,,46.0,,,,,,,,,,,,,,,,,,,,,,,,,,,,,,,,246.5,1.113,,,,,,
241,,isi,,html-keyboard-response,241,568569,0.0-1.0-48.0-0.0-2.0,0,0,60382,,,,,,,,,,,,,,,,,,,,,,,,,,,,,,,,,,,,,,248.5,2.0,,,,,,
242,,feedback,,html-keyboard-response,242,569574,0.0-1.0-48.0-0.0-3.0-0.0,0,0,60382,,,,,,46.0,,,,,,,,,,,,,,,,,,,,,,,,,,,,,,,,249.5,1.0,,,,,,
243,,iti,,html-keyboard-response,243,571079,0.0-1.0-48.0-0.0-5.0,0,0,60382,,,,,,,,,,,,,,,,,,,,,,,,,,,,,,,,,,,,,,251.0,1.5,,,,,,
244,,choice,,html-keyboard-response,244,572584,0.0-1.0-49.0-0.0-0.0,0,0,60382,,,,,,47.0,47.0,1000.0,1000.0,0.0,1.0,1.0,20-40,0.0,,necklace,tape,20.0,40.0,necklace15,tape9,40.0,40.0,necklascenew04.jpg,desk tape disp.jpg,/static/Category_learning/Stimuli/Experimental_stims/necklace/necklascenew04.jpg,/static/Category_learning/Stimuli/Experimental_stims/tape/desk tape disp.jpg,,,,,,,,,,1.0,252.5,1.5,,,,,,
245,,isi,,html-keyboard-response,245,573588,0.0-1.0-49.0-0.0-2.0,0,0,60382,,,,,,,,,,,,,,,,,,,,,,,,,,,,,,,,,,,,,,253.5,1.0,,,,,,
246,,no_response,,html-keyboard-response,246,574594,0.0-1.0-49.0-0.0-4.0-0.0,0,0,60382,,,,,,,,,,,,,,,,,,,,,,,,,,,,,,,,,,,,,,254.5,1.0,,,,,,
247,,iti,,html-keyboard-response,247,575617,0.0-1.0-49.0-0.0-5.0,0,0,60382,,,,,,,,,,,,,,,,,,,,,,,,,,,,,,,,,,,,,,255.5,1.0,,,,,,
248,,choice,,html-keyboard-response,248,575899,0.0-1.0-49.0-0.1-0.1,0,0,60382,,272.0,,,75.0,47.0,47.0,1000.0,1000.0,0.0,1.0,1.0,20-40,0.0,,necklace,tape,20.0,40.0,necklace15,tape9,40.0,40.0,necklascenew04.jpg,desk tape disp.jpg,/static/Category_learning/Stimuli/Experimental_stims/necklace/necklascenew04.jpg,/static/Category_learning/Stimuli/Experimental_stims/tape/desk tape disp.jpg,0.0,tape,necklace,40.0,20.0,tape9,necklace15,40.0,40.0,0.0,255.772,0.272,,,,,,
249,,confirmation,,html-keyboard-response,249,577131,0.0-1.0-49.0-0.1-1.1-0.1,0,0,60382,,,,,,47.0,,,,,,,,,,,,,,,,,,,,,,,,,,,,,,,,257.0,1.228,,,,,,
250,,isi,,html-keyboard-response,250,579134,0.0-1.0-49.0-0.1-2.1,0,0,60382,,,,,,,,,,,,,,,,,,,,,,,,,,,,,,,,,,,,,,259.0,2.0,,,,,,
251,,feedback,,html-keyboard-response,251,580138,0.0-1.0-49.0-0.1-3.1-0.1,0,0,60382,,,,,,47.0,,,,,,,,,,,,,,,,,,,,,,,,,,,,,,,,260.0,1.0,,,,,,
252,,iti,,html-keyboard-response,252,581641,0.0-1.0-49.0-0.1-5.1,0,0,60382,,,,,,,,,,,,,,,,,,,,,,,,,,,,,,,,,,,,,,261.5,1.5,,,,,,
253,,choice,,html-keyboard-response,253,581983,0.0-1.0-50.0-0.0-0.0,0,0,60382,,336.0,,,75.0,48.0,48.0,1500.0,1000.0,0.0,1.0,0.0,40-60,,0.0,train,flashlight,40.0,60.0,train8,flashlight12,40.0,60.0,PL51190.jpg,new05.jpg,/static/Category_learning/Stimuli/Experimental_stims/train/PL51190.jpg,/static/Category_learning/Stimuli/Experimental_stims/flashlight/new05.jpg,0.0,flashlight,train,60.0,40.0,flashlight12,train8,60.0,40.0,0.0,261.836,0.336,,,,,,
254,,confirmation,,html-keyboard-response,254,583152,0.0-1.0-50.0-0.0-1.0-0.0,0,0,60382,,,,,,48.0,,,,,,,,,,,,,,,,,,,,,,,,,,,,,,,,263.0,1.164,,,,,,
255,,isi,,html-keyboard-response,255,584657,0.0-1.0-50.0-0.0-2.0,0,0,60382,,,,,,,,,,,,,,,,,,,,,,,,,,,,,,,,,,,,,,264.5,1.5,,,,,,
256,,feedback,,html-keyboard-response,256,585661,0.0-1.0-50.0-0.0-3.0-0.0,0,0,60382,,,,,,48.0,,,,,,,,,,,,,,,,,,,,,,,,,,,,,,,,265.5,1.0,,,,,,
257,,iti,,html-keyboard-response,257,586665,0.0-1.0-50.0-0.0-5.0,0,0,60382,,,,,,,,,,,,,,,,,,,,,,,,,,,,,,,,,,,,,,266.5,1.0,,,,,,
258,,choice,,html-keyboard-response,258,587652,0.0-1.0-51.0-0.0-0.0,0,0,60382,,983.0,,,68.0,49.0,49.0,1000.0,1000.0,0.0,1.0,1.0,60-60,1.0,,flashlight,flashlight,60.0,60.0,flashlight12,flashlight10,60.0,80.0,new05.jpg,834784_sk_lg.jpg,/static/Category_learning/Stimuli/Experimental_stims/flashlight/new05.jpg,/static/Category_learning/Stimuli/Experimental_stims/flashlight/834784_sk_lg.jpg,1.0,flashlight,flashlight,60.0,60.0,flashlight12,flashlight10,60.0,80.0,0.0,267.483,0.983,,,,,,
259,,confirmation,,html-keyboard-response,259,588174,0.0-1.0-51.0-0.0-1.0-0.0,0,0,60382,,,,,,49.0,,,,,,,,,,,,,,,,,,,,,,,,,,,,,,,,268.0,0.517,,,,,,
260,,isi,,html-keyboard-response,260,589176,0.0-1.0-51.0-0.0-2.0,0,0,60382,,,,,,,,,,,,,,,,,,,,,,,,,,,,,,,,,,,,,,269.0,1.0,,,,,,
261,,feedback,,html-keyboard-response,261,590180,0.0-1.0-51.0-0.0-3.0-0.0,0,0,60382,,,,,,49.0,,,,,,,,,,,,,,,,,,,,,,,,,,,,,,,,270.0,1.0,,,,,,
262,,iti,,html-keyboard-response,262,591183,0.0-1.0-51.0-0.0-5.0,0,0,60382,,,,,,,,,,,,,,,,,,,,,,,,,,,,,,,,,,,,,,271.0,1.0,,,,,,
263,,choice,,html-keyboard-response,263,591588,0.0-1.0-52.0-0.0-0.0,0,0,60382,,398.0,,,75.0,50.0,50.0,1000.0,2000.0,0.0,1.0,0.0,20-80,,1.0,lipstick,sofa,80.0,20.0,lipstick13,sofa8,60.0,20.0,P184708_hero.jpg,allegro-leather-sofa-med2.jpg,/static/Category_learning/Stimuli/Experimental_stims/lipstick/P184708_hero.jpg,/static/Category_learning/Stimuli/Experimental_stims/sofa/allegro-leather-sofa-med2.jpg,0.0,sofa,lipstick,20.0,80.0,sofa8,lipstick13,20.0,60.0,0.0,271.398,0.398,,,,,,
264,,confirmation,,html-keyboard-response,264,592694,0.0-1.0-52.0-0.0-1.0-0.0,0,0,60382,,,,,,50.0,,,,,,,,,,,,,,,,,,,,,,,,,,,,,,,,272.5,1.102,,,,,,
265,,isi,,html-keyboard-response,265,593698,0.0-1.0-52.0-0.0-2.0,0,0,60382,,,,,,,,,,,,,,,,,,,,,,,,,,,,,,,,,,,,,,273.5,1.0,,,,,,
266,,feedback,,html-keyboard-response,266,594702,0.0-1.0-52.0-0.0-3.0-0.0,0,0,60382,,,,,,50.0,,,,,,,,,,,,,,,,,,,,,,,,,,,,,,,,274.5,1.0,,,,,,
267,,iti,,html-keyboard-response,267,596706,0.0-1.0-52.0-0.0-5.0,0,0,60382,,,,,,,,,,,,,,,,,,,,,,,,,,,,,,,,,,,,,,276.5,2.0,,,,,,
268,,choice,,html-keyboard-response,268,596981,0.0-1.0-53.0-0.0-0.0,0,0,60382,,268.0,,,75.0,51.0,51.0,1000.0,2000.0,0.0,1.0,0.0,40-60,,0.0,stool,baby carriage,40.0,60.0,stool5,baby carriage11,40.0,80.0,ASTOOL23.jpg,Baby_Carriage-2.jpg,/static/Category_learning/Stimuli/Experimental_stims/stool/ASTOOL23.jpg,/static/Category_learning/Stimuli/Experimental_stims/baby carriage/Baby_Carriage-2.jpg,0.0,baby carriage,stool,60.0,40.0,baby carriage11,stool5,80.0,40.0,0.0,276.768,0.268,,,,,,
269,,confirmation,,html-keyboard-response,269,598216,0.0-1.0-53.0-0.0-1.0-0.0,0,0,60382,,,,,,51.0,,,,,,,,,,,,,,,,,,,,,,,,,,,,,,,,278.0,1.232,,,,,,
270,,isi,,html-keyboard-response,270,599220,0.0-1.0-53.0-0.0-2.0,0,0,60382,,,,,,,,,,,,,,,,,,,,,,,,,,,,,,,,,,,,,,279.0,1.0,,,,,,
271,,feedback,,html-keyboard-response,271,600224,0.0-1.0-53.0-0.0-3.0-0.0,0,0,60382,,,,,,51.0,,,,,,,,,,,,,,,,,,,,,,,,,,,,,,,,280.0,1.0,,,,,,
272,,iti,,html-keyboard-response,272,602227,0.0-1.0-53.0-0.0-5.0,0,0,60382,,,,,,,,,,,,,,,,,,,,,,,,,,,,,,,,,,,,,,282.0,2.0,,,,,,
273,,choice,,html-keyboard-response,273,602591,0.0-1.0-54.0-0.0-0.0,0,0,60382,,359.0,,,75.0,52.0,52.0,1000.0,2000.0,0.0,1.0,0.0,40-40,,,telescope,vase,40.0,40.0,telescope10,vase4,20.0,60.0,digimarc.ms02.jpg,Avase111.jpg,/static/Category_learning/Stimuli/Experimental_stims/telescope/digimarc.ms02.jpg,/static/Category_learning/Stimuli/Experimental_stims/vase/Avase111.jpg,0.0,vase,telescope,40.0,40.0,vase4,telescope10,60.0,20.0,0.0,282.359,0.359,,,,,,
274,,confirmation,,html-keyboard-response,274,603736,0.0-1.0-54.0-0.0-1.0-0.0,0,0,60382,,,,,,52.0,,,,,,,,,,,,,,,,,,,,,,,,,,,,,,,,283.5,1.141,,,,,,
275,,isi,,html-keyboard-response,275,604740,0.0-1.0-54.0-0.0-2.0,0,0,60382,,,,,,,,,,,,,,,,,,,,,,,,,,,,,,,,,,,,,,284.5,1.0,,,,,,
276,,feedback,,html-keyboard-response,276,605743,0.0-1.0-54.0-0.0-3.0-0.0,0,0,60382,,,,,,52.0,,,,,,,,,,,,,,,,,,,,,,,,,,,,,,,,285.5,1.0,,,,,,
277,,iti,,html-keyboard-response,277,607746,0.0-1.0-54.0-0.0-5.0,0,0,60382,,,,,,,,,,,,,,,,,,,,,,,,,,,,,,,,,,,,,,287.5,2.0,,,,,,
278,,choice,,html-keyboard-response,278,608232,0.0-1.0-55.0-0.0-0.0,0,0,60382,,479.0,,,75.0,53.0,53.0,1000.0,1500.0,0.0,1.0,1.0,20-60,0.0,,seashell,baby carriage,20.0,60.0,seashell13,baby carriage11,0.0,80.0,coquillage22.jpg,Baby_Carriage-2.jpg,/static/Category_learning/Stimuli/Experimental_stims/seashell/coquillage22.jpg,/static/Category_learning/Stimuli/Experimental_stims/baby carriage/Baby_Carriage-2.jpg,0.0,baby carriage,seashell,60.0,20.0,baby carriage11,seashell13,80.0,0.0,0.0,287.979,0.479,,,,,,
279,,confirmation,,html-keyboard-response,279,609260,0.0-1.0-55.0-0.0-1.0-0.0,0,0,60382,,,,,,53.0,,,,,,,,,,,,,,,,,,,,,,,,,,,,,,,,289.0,1.021,,,,,,
280,,isi,,html-keyboard-response,280,610266,0.0-1.0-55.0-0.0-2.0,0,0,60382,,,,,,,,,,,,,,,,,,,,,,,,,,,,,,,,,,,,,,290.0,1.0,,,,,,
281,,feedback,,html-keyboard-response,281,611272,0.0-1.0-55.0-0.0-3.0-0.0,0,0,60382,,,,,,53.0,,,,,,,,,,,,,,,,,,,,,,,,,,,,,,,,291.0,1.0,,,,,,
282,,iti,,html-keyboard-response,282,612776,0.0-1.0-55.0-0.0-5.0,0,0,60382,,,,,,,,,,,,,,,,,,,,,,,,,,,,,,,,,,,,,,292.5,1.5,,,,,,
283,,choice,,html-keyboard-response,283,613154,0.0-1.0-56.0-0.0-0.0,0,0,60382,,367.0,,,75.0,54.0,54.0,2000.0,1500.0,0.0,1.0,0.0,20-80,,1.0,hat,nail polish,80.0,20.0,hat3,nail polish14,100.0,40.0,Astrawhat49.jpg,38031405.JPG,/static/Category_learning/Stimuli/Experimental_stims/hat/Astrawhat49.jpg,/static/Category_learning/Stimuli/Experimental_stims/nail polish/38031405.JPG,0.0,nail polish,hat,20.0,80.0,nail polish14,hat3,40.0,100.0,0.0,292.867,0.367,,,,,,
284,,confirmation,,html-keyboard-response,284,614291,0.0-1.0-56.0-0.0-1.0-0.0,0,0,60382,,,,,,54.0,,,,,,,,,,,,,,,,,,,,,,,,,,,,,,,,294.0,1.133,,,,,,
285,,isi,,html-keyboard-response,285,616295,0.0-1.0-56.0-0.0-2.0,0,0,60382,,,,,,,,,,,,,,,,,,,,,,,,,,,,,,,,,,,,,,296.0,2.0,,,,,,
286,,feedback,,html-keyboard-response,286,617300,0.0-1.0-56.0-0.0-3.0-0.0,0,0,60382,,,,,,54.0,,,,,,,,,,,,,,,,,,,,,,,,,,,,,,,,297.0,1.0,,,,,,
287,,iti,,html-keyboard-response,287,618804,0.0-1.0-56.0-0.0-5.0,0,0,60382,,,,,,,,,,,,,,,,,,,,,,,,,,,,,,,,,,,,,,298.5,1.5,,,,,,
288,,choice,,html-keyboard-response,288,619237,0.0-1.0-57.0-0.0-0.0,0,0,60382,,428.0,,,75.0,55.0,55.0,3000.0,1000.0,0.0,1.0,0.0,20-60,,0.0,necklace,bench,20.0,60.0,necklace6,bench4,0.0,40.0,Agoldnecklace.jpg,30892819.thl.jpg,/static/Category_learning/Stimuli/Experimental_stims/necklace/Agoldnecklace.jpg,/static/Category_learning/Stimuli/Experimental_stims/bench/30892819.thl.jpg,0.0,bench,necklace,60.0,20.0,bench4,necklace6,40.0,0.0,0.0,298.928,0.428,,,,,,
289,,confirmation,,html-keyboard-response,289,620313,0.0-1.0-57.0-0.0-1.0-0.0,0,0,60382,,,,,,55.0,,,,,,,,,,,,,,,,,,,,,,,,,,,,,,,,300.0,1.072,,,,,,
290,,isi,,html-keyboard-response,290,623333,0.0-1.0-57.0-0.0-2.0,0,0,60382,,,,,,,,,,,,,,,,,,,,,,,,,,,,,,,,,,,,,,303.0,3.0,,,,,,
291,,feedback,,html-keyboard-response,291,624338,0.0-1.0-57.0-0.0-3.0-0.0,0,0,60382,,,,,,55.0,,,,,,,,,,,,,,,,,,,,,,,,,,,,,,,,304.0,1.0,,,,,,
292,,iti,,html-keyboard-response,292,625341,0.0-1.0-57.0-0.0-5.0,0,0,60382,,,,,,,,,,,,,,,,,,,,,,,,,,,,,,,,,,,,,,305.0,1.0,,,,,,
293,,choice,,html-keyboard-response,293,625664,0.0-1.0-58.0-0.0-0.0,0,0,60382,,317.0,,,75.0,56.0,56.0,1000.0,1500.0,0.0,1.0,0.0,20-80,,1.0,key chain,sofa,80.0,20.0,key chain1,sofa13,80.0,40.0,jm05s16.jpg,ACOUCH25.jpg,/static/Category_learning/Stimuli/Experimental_stims/key chain/jm05s16.jpg,/static/Category_learning/Stimuli/Experimental_stims/sofa/ACOUCH25.jpg,0.0,sofa,key chain,20.0,80.0,sofa13,key chain1,40.0,80.0,0.0,305.317,0.317,,,,,,
294,,confirmation,,html-keyboard-response,294,626852,0.0-1.0-58.0-0.0-1.0-0.0,0,0,60382,,,,,,56.0,,,,,,,,,,,,,,,,,,,,,,,,,,,,,,,,306.5,1.183,,,,,,
295,,isi,,html-keyboard-response,295,627860,0.0-1.0-58.0-0.0-2.0,0,0,60382,,,,,,,,,,,,,,,,,,,,,,,,,,,,,,,,,,,,,,307.5,1.0,,,,,,
296,,feedback,,html-keyboard-response,296,628864,0.0-1.0-58.0-0.0-3.0-0.0,0,0,60382,,,,,,56.0,,,,,,,,,,,,,,,,,,,,,,,,,,,,,,,,308.5,1.0,,,,,,
297,,iti,,html-keyboard-response,297,630367,0.0-1.0-58.0-0.0-5.0,0,0,60382,,,,,,,,,,,,,,,,,,,,,,,,,,,,,,,,,,,,,,310.0,1.5,,,,,,
298,,choice,,html-keyboard-response,298,630917,0.0-1.0-59.0-0.0-0.0,0,0,60382,,544.0,,,75.0,57.0,57.0,1500.0,1000.0,0.0,1.0,1.0,20-20,1.0,,sofa,sofa,20.0,20.0,sofa8,sofa13,20.0,40.0,allegro-leather-sofa-med2.jpg,ACOUCH25.jpg,/static/Category_learning/Stimuli/Experimental_stims/sofa/allegro-leather-sofa-med2.jpg,/static/Category_learning/Stimuli/Experimental_stims/sofa/ACOUCH25.jpg,0.0,sofa,sofa,20.0,20.0,sofa13,sofa8,40.0,20.0,0.0,310.544,0.544,,,,,,
299,,confirmation,,html-keyboard-response,299,631878,0.0-1.0-59.0-0.0-1.0-0.0,0,0,60382,,,,,,57.0,,,,,,,,,,,,,,,,,,,,,,,,,,,,,,,,311.5,0.956,,,,,,
300,,isi,,html-keyboard-response,300,633382,0.0-1.0-59.0-0.0-2.0,0,0,60382,,,,,,,,,,,,,,,,,,,,,,,,,,,,,,,,,,,,,,313.0,1.5,,,,,,
301,,feedback,,html-keyboard-response,301,634386,0.0-1.0-59.0-0.0-3.0-0.0,0,0,60382,,,,,,57.0,,,,,,,,,,,,,,,,,,,,,,,,,,,,,,,,314.0,1.0,,,,,,
302,,iti,,html-keyboard-response,302,635389,0.0-1.0-59.0-0.0-5.0,0,0,60382,,,,,,,,,,,,,,,,,,,,,,,,,,,,,,,,,,,,,,315.0,1.0,,,,,,
303,,choice,,html-keyboard-response,303,635715,0.0-1.0-60.0-0.0-0.0,0,0,60382,,317.0,,,75.0,58.0,58.0,3000.0,1000.0,0.0,1.0,0.0,40-80,,0.0,tent,hat,40.0,80.0,tent14,hat14,20.0,60.0,inflatable-tent.jpg,Ahat136.jpg,/static/Category_learning/Stimuli/Experimental_stims/tent/inflatable-tent.jpg,/static/Category_learning/Stimuli/Experimental_stims/hat/Ahat136.jpg,0.0,hat,tent,80.0,40.0,hat14,tent14,60.0,20.0,0.0,315.317,0.317,,,,,,
304,,confirmation,,html-keyboard-response,304,636905,0.0-1.0-60.0-0.0-1.0-0.0,0,0,60382,,,,,,58.0,,,,,,,,,,,,,,,,,,,,,,,,,,,,,,,,316.5,1.183,,,,,,
305,,isi,,html-keyboard-response,305,639909,0.0-1.0-60.0-0.0-2.0,0,0,60382,,,,,,,,,,,,,,,,,,,,,,,,,,,,,,,,,,,,,,319.5,3.0,,,,,,
306,,feedback,,html-keyboard-response,306,640915,0.0-1.0-60.0-0.0-3.0-0.0,0,0,60382,,,,,,58.0,,,,,,,,,,,,,,,,,,,,,,,,,,,,,,,,320.5,1.0,,,,,,
307,,iti,,html-keyboard-response,307,641923,0.0-1.0-60.0-0.0-5.0,0,0,60382,,,,,,,,,,,,,,,,,,,,,,,,,,,,,,,,,,,,,,321.5,1.0,,,,,,
308,,choice,,html-keyboard-response,308,642353,0.0-1.0-61.0-0.0-0.0,0,0,60382,,419.0,,,75.0,59.0,59.0,1500.0,1500.0,0.0,1.0,0.0,20-80,,1.0,frame,sofa,80.0,20.0,frame5,sofa11,60.0,0.0,AFRAME136.jpg,ALOVSEA19.jpg,/static/Category_learning/Stimuli/Experimental_stims/frame/AFRAME136.jpg,/static/Category_learning/Stimuli/Experimental_stims/sofa/ALOVSEA19.jpg,0.0,sofa,frame,20.0,80.0,sofa11,frame5,0.0,60.0,0.0,321.919,0.419,,,,,,
309,,confirmation,,html-keyboard-response,309,643443,0.0-1.0-61.0-0.0-1.0-0.0,0,0,60382,,,,,,59.0,,,,,,,,,,,,,,,,,,,,,,,,,,,,,,,,323.0,1.081,,,,,,
310,,isi,,html-keyboard-response,310,644947,0.0-1.0-61.0-0.0-2.0,0,0,60382,,,,,,,,,,,,,,,,,,,,,,,,,,,,,,,,,,,,,,324.5,1.5,,,,,,
311,,feedback,,html-keyboard-response,311,645950,0.0-1.0-61.0-0.0-3.0-0.0,0,0,60382,,,,,,59.0,,,,,,,,,,,,,,,,,,,,,,,,,,,,,,,,325.5,1.0,,,,,,
312,,iti,,html-keyboard-response,312,647454,0.0-1.0-61.0-0.0-5.0,0,0,60382,,,,,,,,,,,,,,,,,,,,,,,,,,,,,,,,,,,,,,327.0,1.5,,,,,,
313,,choice,,html-keyboard-response,313,647777,0.0-1.0-62.0-0.0-0.0,0,0,60382,,317.0,,,75.0,60.0,60.0,1000.0,2000.0,0.0,1.0,1.0,20-20,0.0,,nail polish,sofa,20.0,20.0,nail polish14,sofa11,40.0,0.0,38031405.JPG,ALOVSEA19.jpg,/static/Category_learning/Stimuli/Experimental_stims/nail polish/38031405.JPG,/static/Category_learning/Stimuli/Experimental_stims/sofa/ALOVSEA19.jpg,0.0,sofa,nail polish,20.0,20.0,sofa11,nail polish14,0.0,40.0,0.0,327.317,0.317,,,,,,
314,,confirmation,,html-keyboard-response,314,648976,0.0-1.0-62.0-0.0-1.0-0.0,0,0,60382,,,,,,60.0,,,,,,,,,,,,,,,,,,,,,,,,,,,,,,,,328.5,1.183,,,,,,
315,,isi,,html-keyboard-response,315,649981,0.0-1.0-62.0-0.0-2.0,0,0,60382,,,,,,,,,,,,,,,,,,,,,,,,,,,,,,,,,,,,,,329.5,1.0,,,,,,
316,,feedback,,html-keyboard-response,316,650987,0.0-1.0-62.0-0.0-3.0-0.0,0,0,60382,,,,,,60.0,,,,,,,,,,,,,,,,,,,,,,,,,,,,,,,,330.5,1.0,,,,,,
317,,iti,,html-keyboard-response,317,652992,0.0-1.0-62.0-0.0-5.0,0,0,60382,,,,,,,,,,,,,,,,,,,,,,,,,,,,,,,,,,,,,,332.5,2.0,,,,,,
318,,choice,,html-keyboard-response,318,653505,0.0-1.0-63.0-0.0-0.0,0,0,60382,,502.0,,,75.0,61.0,61.0,3500.0,1500.0,0.0,1.0,0.0,20-40,,0.0,pen,vase,20.0,40.0,pen4,vase9,40.0,40.0,Montblanc_Greta_Garbo_BP copy.jpg,Avasewithang2.jpg,/static/Category_learning/Stimuli/Experimental_stims/pen/Montblanc_Greta_Garbo_BP copy.jpg,/static/Category_learning/Stimuli/Experimental_stims/vase/Avasewithang2.jpg,0.0,vase,pen,40.0,20.0,vase9,pen4,40.0,40.0,0.0,333.002,0.502,,,,,,
319,,confirmation,,html-keyboard-response,319,654510,0.0-1.0-63.0-0.0-1.0-0.0,0,0,60382,,,,,,61.0,,,,,,,,,,,,,,,,,,,,,,,,,,,,,,,,334.0,0.998,,,,,,
320,,isi,,html-keyboard-response,320,658017,0.0-1.0-63.0-0.0-2.0,0,0,60382,,,,,,,,,,,,,,,,,,,,,,,,,,,,,,,,,,,,,,337.5,3.5,,,,,,
321,,feedback,,html-keyboard-response,321,659022,0.0-1.0-63.0-0.0-3.0-0.0,0,0,60382,,,,,,61.0,,,,,,,,,,,,,,,,,,,,,,,,,,,,,,,,338.5,1.0,,,,,,
322,,iti,,html-keyboard-response,322,660525,0.0-1.0-63.0-0.0-5.0,0,0,60382,,,,,,,,,,,,,,,,,,,,,,,,,,,,,,,,,,,,,,340.0,1.5,,,,,,
323,,choice,,html-keyboard-response,323,660863,0.0-1.0-64.0-0.0-0.0,0,0,60382,,332.0,,,75.0,62.0,62.0,1000.0,2000.0,0.0,1.0,1.0,40-40,1.0,,vase,vase,40.0,40.0,vase9,vase4,40.0,60.0,Avasewithang2.jpg,Avase111.jpg,/static/Category_learning/Stimuli/Experimental_stims/vase/Avasewithang2.jpg,/static/Category_learning/Stimuli/Experimental_stims/vase/Avase111.jpg,0.0,vase,vase,40.0,40.0,vase4,vase9,60.0,40.0,0.0,340.332,0.332,,,,,,
324,,confirmation,,html-keyboard-response,324,662038,0.0-1.0-64.0-0.0-1.0-0.0,0,0,60382,,,,,,62.0,,,,,,,,,,,,,,,,,,,,,,,,,,,,,,,,341.5,1.168,,,,,,
325,,isi,,html-keyboard-response,325,663042,0.0-1.0-64.0-0.0-2.0,0,0,60382,,,,,,,,,,,,,,,,,,,,,,,,,,,,,,,,,,,,,,342.5,1.0,,,,,,
326,,feedback,,html-keyboard-response,326,664045,0.0-1.0-64.0-0.0-3.0-0.0,0,0,60382,,,,,,62.0,,,,,,,,,,,,,,,,,,,,,,,,,,,,,,,,343.5,1.0,,,,,,
327,,iti,,html-keyboard-response,327,666050,0.0-1.0-64.0-0.0-5.0,0,0,60382,,,,,,,,,,,,,,,,,,,,,,,,,,,,,,,,,,,,,,345.5,2.0,,,,,,
328,,choice,,html-keyboard-response,328,666471,0.0-1.0-65.0-0.0-0.0,0,0,60382,,417.0,,,75.0,63.0,63.0,1000.0,2000.0,0.0,1.0,0.0,20-60,,1.0,flashlight,nail polish,60.0,20.0,flashlight9,nail polish5,60.0,0.0,new06.jpg,182_t.jpg,/static/Category_learning/Stimuli/Experimental_stims/flashlight/new06.jpg,/static/Category_learning/Stimuli/Experimental_stims/nail polish/182_t.jpg,0.0,nail polish,flashlight,20.0,60.0,nail polish5,flashlight9,0.0,60.0,0.0,345.917,0.417,,,,,,
329,,confirmation,,html-keyboard-response,329,667557,0.0-1.0-65.0-0.0-1.0-0.0,0,0,60382,,,,,,63.0,,,,,,,,,,,,,,,,,,,,,,,,,,,,,,,,347.0,1.083,,,,,,
330,,isi,,html-keyboard-response,330,668561,0.0-1.0-65.0-0.0-2.0,0,0,60382,,,,,,,,,,,,,,,,,,,,,,,,,,,,,,,,,,,,,,348.0,1.0,,,,,,
331,,feedback,,html-keyboard-response,331,669566,0.0-1.0-65.0-0.0-3.0-0.0,0,0,60382,,,,,,63.0,,,,,,,,,,,,,,,,,,,,,,,,,,,,,,,,349.0,1.0,,,,,,
332,,iti,,html-keyboard-response,332,671569,0.0-1.0-65.0-0.0-5.0,0,0,60382,,,,,,,,,,,,,,,,,,,,,,,,,,,,,,,,,,,,,,351.0,2.0,,,,,,
333,,block_over,,html-keyboard-response,333,674776,0.0-1.0-65.0-0.0-7.0-0.0,0,0,60382,,3202.0,,,68.0,63.0,,,,,,,,,,,,,,,,,,,,,,,,,,,,,,,,,,,,,,,
334,,start_run,,html-keyboard-response,334,676169,0.0-1.0-65.0-0.0-7.0-1.0,0,0,60382,,1390.0,,,84.0,,,,,,,,,,,,,,,,,,,,,,,,,,,,,,,,,,,,,,,,
335,,choice,,html-keyboard-response,335,677048,0.0-1.0-66.0-0.0-0.0,0,0,60382,,875.0,,,75.0,64.0,65.0,3000.0,2000.0,0.0,2.0,0.0,40-40,,,watch,tape,40.0,40.0,watch9,tape2,40.0,20.0,mens-diamond-watches-euro-48733-ab.jpg,Tape_Dispenser.jpg,/static/Category_learning/Stimuli/Experimental_stims/watch/mens-diamond-watches-euro-48733-ab.jpg,/static/Category_learning/Stimuli/Experimental_stims/tape/Tape_Dispenser.jpg,0.0,tape,watch,40.0,40.0,tape2,watch9,20.0,40.0,0.0,0.875,0.875,,,,,,
336,,confirmation,,html-keyboard-response,336,677679,0.0-1.0-66.0-0.0-1.0-0.0,0,0,60382,,,,,,64.0,,,,,,,,,,,,,,,,,,,,,,,,,,,,,,,,1.5,0.625,,,,,,
337,,isi,,html-keyboard-response,337,680683,0.0-1.0-66.0-0.0-2.0,0,0,60382,,,,,,,,,,,,,,,,,,,,,,,,,,,,,,,,,,,,,,4.5,3.0,,,,,,
338,,feedback,,html-keyboard-response,338,681688,0.0-1.0-66.0-0.0-3.0-0.0,0,0,60382,,,,,,64.0,,,,,,,,,,,,,,,,,,,,,,,,,,,,,,,,5.5,1.0,,,,,,
339,,iti,,html-keyboard-response,339,683691,0.0-1.0-66.0-0.0-5.0,0,0,60382,,,,,,,,,,,,,,,,,,,,,,,,,,,,,,,,,,,,,,7.5,2.0,,,,,,
340,,choice,,html-keyboard-response,340,684006,0.0-1.0-67.0-0.0-0.0,0,0,60382,,308.0,,,75.0,65.0,66.0,3000.0,1500.0,0.0,2.0,0.0,20-60,,0.0,pen,bowl,20.0,60.0,pen3,bowl13,0.0,80.0,pen08.jpg,Asoupbowl8.jpg,/static/Category_learning/Stimuli/Experimental_stims/pen/pen08.jpg,/static/Category_learning/Stimuli/Experimental_stims/bowl/Asoupbowl8.jpg,0.0,bowl,pen,60.0,20.0,bowl13,pen3,80.0,0.0,0.0,7.808,0.308,,,,,,
341,,confirmation,,html-keyboard-response,341,685203,0.0-1.0-67.0-0.0-1.0-0.0,0,0,60382,,,,,,65.0,,,,,,,,,,,,,,,,,,,,,,,,,,,,,,,,9.0,1.192,,,,,,
342,,isi,,html-keyboard-response,342,688230,0.0-1.0-67.0-0.0-2.0,0,0,60382,,,,,,,,,,,,,,,,,,,,,,,,,,,,,,,,,,,,,,12.0,3.0,,,,,,
343,,feedback,,html-keyboard-response,343,689233,0.0-1.0-67.0-0.0-3.0-0.0,0,0,60382,,,,,,65.0,,,,,,,,,,,,,,,,,,,,,,,,,,,,,,,,13.0,1.0,,,,,,
344,,iti,,html-keyboard-response,344,690737,0.0-1.0-67.0-0.0-5.0,0,0,60382,,,,,,,,,,,,,,,,,,,,,,,,,,,,,,,,,,,,,,14.5,1.5,,,,,,
345,,choice,,html-keyboard-response,345,691037,0.0-1.0-68.0-0.0-0.0,0,0,60382,,295.0,,,68.0,66.0,67.0,1000.0,3000.0,0.0,2.0,0.0,20-60,,0.0,nail polish,bongo,20.0,60.0,nail polish1,bongo8,20.0,80.0,200.jpg,26390661.thl.jpg,/static/Category_learning/Stimuli/Experimental_stims/nail polish/200.jpg,/static/Category_learning/Stimuli/Experimental_stims/bongo/26390661.thl.jpg,1.0,nail polish,bongo,20.0,60.0,nail polish1,bongo8,20.0,80.0,0.0,14.795,0.295,,,,,,
346,,confirmation,,html-keyboard-response,346,692247,0.0-1.0-68.0-0.0-1.0-0.0,0,0,60382,,,,,,66.0,,,,,,,,,,,,,,,,,,,,,,,,,,,,,,,,16.0,1.205,,,,,,
347,,isi,,html-keyboard-response,347,693250,0.0-1.0-68.0-0.0-2.0,0,0,60382,,,,,,,,,,,,,,,,,,,,,,,,,,,,,,,,,,,,,,17.0,1.0,,,,,,
348,,feedback,,html-keyboard-response,348,694254,0.0-1.0-68.0-0.0-3.0-0.0,0,0,60382,,,,,,66.0,,,,,,,,,,,,,,,,,,,,,,,,,,,,,,,,18.0,1.0,,,,,,
349,,iti,,html-keyboard-response,349,697277,0.0-1.0-68.0-0.0-5.0,0,0,60382,,,,,,,,,,,,,,,,,,,,,,,,,,,,,,,,,,,,,,21.0,3.0,,,,,,
350,,choice,,html-keyboard-response,350,697593,0.0-1.0-69.0-0.0-0.0,0,0,60382,,312.0,,,68.0,67.0,68.0,1000.0,2000.0,0.0,2.0,0.0,20-20,,,power strip,patio lounge chair,20.0,20.0,power strip14,patio lounge chair13,20.0,20.0,88b2c724-e781-44ae-85d5-27b7591f659d_400.jpg,grosfillex-bahia-resin-chaise-lounges.jpg,/static/Category_learning/Stimuli/Experimental_stims/power strip/88b2c724-e781-44ae-85d5-27b7591f659d_400.jpg,/static/Category_learning/Stimuli/Experimental_stims/patio lounge chair/grosfillex-bahia-resin-chaise-lounges.jpg,1.0,power strip,patio lounge chair,20.0,20.0,power strip14,patio lounge chair13,20.0,20.0,0.0,21.312,0.312,,,,,,
351,,confirmation,,html-keyboard-response,351,698784,0.0-1.0-69.0-0.0-1.0-0.0,0,0,60382,,,,,,67.0,,,,,,,,,,,,,,,,,,,,,,,,,,,,,,,,22.5,1.188,,,,,,
352,,isi,,html-keyboard-response,352,699787,0.0-1.0-69.0-0.0-2.0,0,0,60382,,,,,,,,,,,,,,,,,,,,,,,,,,,,,,,,,,,,,,23.5,1.0,,,,,,
353,,feedback,,html-keyboard-response,353,700792,0.0-1.0-69.0-0.0-3.0-0.0,0,0,60382,,,,,,67.0,,,,,,,,,,,,,,,,,,,,,,,,,,,,,,,,24.5,1.0,,,,,,
354,,iti,,html-keyboard-response,354,702796,0.0-1.0-69.0-0.0-5.0,0,0,60382,,,,,,,,,,,,,,,,,,,,,,,,,,,,,,,,,,,,,,26.5,2.0,,,,,,
355,,choice,,html-keyboard-response,355,703075,0.0-1.0-70.0-0.0-0.0,0,0,60382,,274.0,,,68.0,68.0,69.0,1500.0,1500.0,0.0,2.0,0.0,40-40,,,tent,train,40.0,40.0,tent2,train1,40.0,40.0,Atent16.jpg,Model_Train.jpg,/static/Category_learning/Stimuli/Experimental_stims/tent/Atent16.jpg,/static/Category_learning/Stimuli/Experimental_stims/train/Model_Train.jpg,1.0,tent,train,40.0,40.0,tent2,train1,40.0,40.0,0.0,26.774,0.274,,,,,,
356,,confirmation,,html-keyboard-response,356,704305,0.0-1.0-70.0-0.0-1.0-0.0,0,0,60382,,,,,,68.0,,,,,,,,,,,,,,,,,,,,,,,,,,,,,,,,28.0,1.226,,,,,,
357,,isi,,html-keyboard-response,357,705810,0.0-1.0-70.0-0.0-2.0,0,0,60382,,,,,,,,,,,,,,,,,,,,,,,,,,,,,,,,,,,,,,29.5,1.5,,,,,,
358,,feedback,,html-keyboard-response,358,706814,0.0-1.0-70.0-0.0-3.0-0.0,0,0,60382,,,,,,68.0,,,,,,,,,,,,,,,,,,,,,,,,,,,,,,,,30.5,1.0,,,,,,
359,,iti,,html-keyboard-response,359,708320,0.0-1.0-70.0-0.0-5.0,0,0,60382,,,,,,,,,,,,,,,,,,,,,,,,,,,,,,,,,,,,,,32.0,1.5,,,,,,
360,,choice,,html-keyboard-response,360,708653,0.0-1.0-71.0-0.0-0.0,0,0,60382,,322.0,,,75.0,69.0,70.0,1500.0,1500.0,0.0,2.0,0.0,40-80,,1.0,key chain,vase,80.0,40.0,key chain5,vase7,60.0,60.0,keychain-metal-logo.jpg,8246344.thl.jpg,/static/Category_learning/Stimuli/Experimental_stims/key chain/keychain-metal-logo.jpg,/static/Category_learning/Stimuli/Experimental_stims/vase/8246344.thl.jpg,0.0,vase,key chain,40.0,80.0,vase7,key chain5,60.0,60.0,0.0,32.322,0.322,,,,,,
361,,confirmation,,html-keyboard-response,361,709836,0.0-1.0-71.0-0.0-1.0-0.0,0,0,60382,,,,,,69.0,,,,,,,,,,,,,,,,,,,,,,,,,,,,,,,,33.5,1.178,,,,,,
362,,isi,,html-keyboard-response,362,711341,0.0-1.0-71.0-0.0-2.0,0,0,60382,,,,,,,,,,,,,,,,,,,,,,,,,,,,,,,,,,,,,,35.0,1.5,,,,,,
363,,feedback,,html-keyboard-response,363,712351,0.0-1.0-71.0-0.0-3.0-0.0,0,0,60382,,,,,,69.0,,,,,,,,,,,,,,,,,,,,,,,,,,,,,,,,36.0,1.0,,,,,,
364,,iti,,html-keyboard-response,364,713856,0.0-1.0-71.0-0.0-5.0,0,0,60382,,,,,,,,,,,,,,,,,,,,,,,,,,,,,,,,,,,,,,37.5,1.5,,,,,,
365,,choice,,html-keyboard-response,365,714065,0.0-1.0-72.0-0.0-0.0,0,0,60382,,202.0,,,75.0,70.0,71.0,1000.0,2000.0,0.0,2.0,0.0,20-40,,0.0,power strip,trumpet,20.0,40.0,power strip5,trumpet8,0.0,60.0,93e4a283-bcd6-4ad1-8add-339658cda0fc_400.jpg,trumpet33.jpg,/static/Category_learning/Stimuli/Experimental_stims/power strip/93e4a283-bcd6-4ad1-8add-339658cda0fc_400.jpg,/static/Category_learning/Stimuli/Experimental_stims/trumpet/trumpet33.jpg,0.0,trumpet,power strip,40.0,20.0,trumpet8,power strip5,60.0,0.0,0.0,37.702,0.202,,,,,,
366,,confirmation,,html-keyboard-response,366,715371,0.0-1.0-72.0-0.0-1.0-0.0,0,0,60382,,,,,,70.0,,,,,,,,,,,,,,,,,,,,,,,,,,,,,,,,39.0,1.298,,,,,,
367,,isi,,html-keyboard-response,367,716375,0.0-1.0-72.0-0.0-2.0,0,0,60382,,,,,,,,,,,,,,,,,,,,,,,,,,,,,,,,,,,,,,40.0,1.0,,,,,,
368,,feedback,,html-keyboard-response,368,717378,0.0-1.0-72.0-0.0-3.0-0.0,0,0,60382,,,,,,70.0,,,,,,,,,,,,,,,,,,,,,,,,,,,,,,,,41.0,1.0,,,,,,
369,,iti,,html-keyboard-response,369,719383,0.0-1.0-72.0-0.0-5.0,0,0,60382,,,,,,,,,,,,,,,,,,,,,,,,,,,,,,,,,,,,,,43.0,2.0,,,,,,
370,,choice,,html-keyboard-response,370,719852,0.0-1.0-73.0-0.0-0.0,0,0,60382,,464.0,,,68.0,71.0,72.0,3500.0,1000.0,0.0,2.0,0.0,40-80,,1.0,key chain,watch,80.0,40.0,key chain10,watch3,80.0,60.0,Smurfs_Keychains_Smurf_Row_Boat.jpg,B0000TIIVO.01._SCLZZZZZZZ_V1124920780_.jpg,/static/Category_learning/Stimuli/Experimental_stims/key chain/Smurfs_Keychains_Smurf_Row_Boat.jpg,/static/Category_learning/Stimuli/Experimental_stims/watch/B0000TIIVO.01._SCLZZZZZZZ_V1124920780_.jpg,1.0,key chain,watch,80.0,40.0,key chain10,watch3,80.0,60.0,0.0,43.464,0.464,,,,,,
371,,confirmation,,html-keyboard-response,371,720893,0.0-1.0-73.0-0.0-1.0-0.0,0,0,60382,,,,,,71.0,,,,,,,,,,,,,,,,,,,,,,,,,,,,,,,,44.5,1.036,,,,,,
372,,isi,,html-keyboard-response,372,724401,0.0-1.0-73.0-0.0-2.0,0,0,60382,,,,,,,,,,,,,,,,,,,,,,,,,,,,,,,,,,,,,,48.0,3.5,,,,,,
373,,feedback,,html-keyboard-response,373,725406,0.0-1.0-73.0-0.0-3.0-0.0,0,0,60382,,,,,,71.0,,,,,,,,,,,,,,,,,,,,,,,,,,,,,,,,49.0,1.0,,,,,,
374,,iti,,html-keyboard-response,374,726410,0.0-1.0-73.0-0.0-5.0,0,0,60382,,,,,,,,,,,,,,,,,,,,,,,,,,,,,,,,,,,,,,50.0,1.0,,,,,,
375,,choice,,html-keyboard-response,375,726735,0.0-1.0-74.0-0.0-0.0,0,0,60382,,315.0,,,75.0,72.0,73.0,2000.0,2000.0,0.0,2.0,0.0,20-60,,0.0,small table,baby carriage,20.0,60.0,small table3,baby carriage14,20.0,80.0,Atable122.jpg,peg_perego_uno_verde.jpg,/static/Category_learning/Stimuli/Experimental_stims/small table/Atable122.jpg,/static/Category_learning/Stimuli/Experimental_stims/baby carriage/peg_perego_uno_verde.jpg,0.0,baby carriage,small table,60.0,20.0,baby carriage14,small table3,80.0,20.0,0.0,50.315,0.315,,,,,,
376,,confirmation,,html-keyboard-response,376,727929,0.0-1.0-74.0-0.0-1.0-0.0,0,0,60382,,,,,,72.0,,,,,,,,,,,,,,,,,,,,,,,,,,,,,,,,51.5,1.185,,,,,,
377,,isi,,html-keyboard-response,377,729934,0.0-1.0-74.0-0.0-2.0,0,0,60382,,,,,,,,,,,,,,,,,,,,,,,,,,,,,,,,,,,,,,53.5,2.0,,,,,,
378,,feedback,,html-keyboard-response,378,730938,0.0-1.0-74.0-0.0-3.0-0.0,0,0,60382,,,,,,72.0,,,,,,,,,,,,,,,,,,,,,,,,,,,,,,,,54.5,1.0,,,,,,
379,,iti,,html-keyboard-response,379,732942,0.0-1.0-74.0-0.0-5.0,0,0,60382,,,,,,,,,,,,,,,,,,,,,,,,,,,,,,,,,,,,,,56.5,2.0,,,,,,
380,,choice,,html-keyboard-response,380,733274,0.0-1.0-75.0-0.0-0.0,0,0,60382,,327.0,,,68.0,73.0,74.0,2000.0,3500.0,0.0,2.0,0.0,40-60,,1.0,baby carriage,train,60.0,40.0,baby carriage13,train15,40.0,40.0,300px-Barnevogn2.jpg,master-TD006.jpg,/static/Category_learning/Stimuli/Experimental_stims/baby carriage/300px-Barnevogn2.jpg,/static/Category_learning/Stimuli/Experimental_stims/train/master-TD006.jpg,1.0,baby carriage,train,60.0,40.0,baby carriage13,train15,40.0,40.0,0.0,56.827,0.327,,,,,,
381,,confirmation,,html-keyboard-response,381,734451,0.0-1.0-75.0-0.0-1.0-0.0,0,0,60382,,,,,,73.0,,,,,,,,,,,,,,,,,,,,,,,,,,,,,,,,58.0,1.173,,,,,,
382,,isi,,html-keyboard-response,382,736456,0.0-1.0-75.0-0.0-2.0,0,0,60382,,,,,,,,,,,,,,,,,,,,,,,,,,,,,,,,,,,,,,60.0,2.0,,,,,,
383,,feedback,,html-keyboard-response,383,737460,0.0-1.0-75.0-0.0-3.0-0.0,0,0,60382,,,,,,73.0,,,,,,,,,,,,,,,,,,,,,,,,,,,,,,,,61.0,1.0,,,,,,
384,,iti,,html-keyboard-response,384,740965,0.0-1.0-75.0-0.0-5.0,0,0,60382,,,,,,,,,,,,,,,,,,,,,,,,,,,,,,,,,,,,,,64.5,3.5,,,,,,
385,,choice,,html-keyboard-response,385,741362,0.0-1.0-76.0-0.0-0.0,0,0,60382,,393.0,,,68.0,74.0,75.0,1000.0,1000.0,0.0,2.0,0.0,40-80,,0.0,trumpet,hat,40.0,80.0,trumpet2,hat12,40.0,60.0,Matt-Stevens-Pocket-Trumpet.jpg,Aformalhat5.jpg,/static/Category_learning/Stimuli/Experimental_stims/trumpet/Matt-Stevens-Pocket-Trumpet.jpg,/static/Category_learning/Stimuli/Experimental_stims/hat/Aformalhat5.jpg,1.0,trumpet,hat,40.0,80.0,trumpet2,hat12,40.0,60.0,0.0,64.893,0.393,,,,,,
386,,confirmation,,html-keyboard-response,386,742474,0.0-1.0-76.0-0.0-1.0-0.0,0,0,60382,,,,,,74.0,,,,,,,,,,,,,,,,,,,,,,,,,,,,,,,,66.0,1.107,,,,,,
387,,isi,,html-keyboard-response,387,743479,0.0-1.0-76.0-0.0-2.0,0,0,60382,,,,,,,,,,,,,,,,,,,,,,,,,,,,,,,,,,,,,,67.0,1.0,,,,,,
388,,feedback,,html-keyboard-response,388,744484,0.0-1.0-76.0-0.0-3.0-0.0,0,0,60382,,,,,,74.0,,,,,,,,,,,,,,,,,,,,,,,,,,,,,,,,68.0,1.0,,,,,,
389,,iti,,html-keyboard-response,389,745488,0.0-1.0-76.0-0.0-5.0,0,0,60382,,,,,,,,,,,,,,,,,,,,,,,,,,,,,,,,,,,,,,69.0,1.0,,,,,,
390,,choice,,html-keyboard-response,390,745885,0.0-1.0-77.0-0.0-0.0,0,0,60382,,389.0,,,68.0,75.0,76.0,1000.0,1000.0,0.0,2.0,0.0,20-40,,1.0,trumpet,poker card,40.0,20.0,trumpet1,poker card2,60.0,40.0,JUPITER+TROMPETTE+606MRL.JPG,22864716.thl.jpg,/static/Category_learning/Stimuli/Experimental_stims/trumpet/JUPITER+TROMPETTE+606MRL.JPG,/static/Category_learning/Stimuli/Experimental_stims/poker card/22864716.thl.jpg,1.0,trumpet,poker card,40.0,20.0,trumpet1,poker card2,60.0,40.0,0.0,69.389,0.389,,,,,,
391,,confirmation,,html-keyboard-response,391,747001,0.0-1.0-77.0-0.0-1.0-0.0,0,0,60382,,,,,,75.0,,,,,,,,,,,,,,,,,,,,,,,,,,,,,,,,70.5,1.111,,,,,,
392,,isi,,html-keyboard-response,392,748004,0.0-1.0-77.0-0.0-2.0,0,0,60382,,,,,,,,,,,,,,,,,,,,,,,,,,,,,,,,,,,,,,71.5,1.0,,,,,,
393,,feedback,,html-keyboard-response,393,749011,0.0-1.0-77.0-0.0-3.0-0.0,0,0,60382,,,,,,75.0,,,,,,,,,,,,,,,,,,,,,,,,,,,,,,,,72.5,1.0,,,,,,
394,,iti,,html-keyboard-response,394,750037,0.0-1.0-77.0-0.0-5.0,0,0,60382,,,,,,,,,,,,,,,,,,,,,,,,,,,,,,,,,,,,,,73.5,1.0,,,,,,
395,,choice,,html-keyboard-response,395,751251,0.0-1.0-78.0-0.0-0.0,0,0,60382,,1206.0,,,68.0,76.0,77.0,1500.0,1000.0,0.0,2.0,0.0,20-80,,1.0,microscope,necklace,80.0,20.0,microscope5,necklace4,100.0,20.0,emMicroscope.jpg,emerald_diamond_necklace.jpg,/static/Category_learning/Stimuli/Experimental_stims/microscope/emMicroscope.jpg,/static/Category_learning/Stimuli/Experimental_stims/necklace/emerald_diamond_necklace.jpg,1.0,microscope,necklace,80.0,20.0,microscope5,necklace4,100.0,20.0,0.0,74.706,1.206,,,,,,
396,,confirmation,,html-keyboard-response,396,751550,0.0-1.0-78.0-0.0-1.0-0.0,0,0,60382,,,,,,76.0,,,,,,,,,,,,,,,,,,,,,,,,,,,,,,,,75.0,0.294,,,,,,
397,,isi,,html-keyboard-response,397,753054,0.0-1.0-78.0-0.0-2.0,0,0,60382,,,,,,,,,,,,,,,,,,,,,,,,,,,,,,,,,,,,,,76.5,1.5,,,,,,
398,,feedback,,html-keyboard-response,398,754058,0.0-1.0-78.0-0.0-3.0-0.0,0,0,60382,,,,,,76.0,,,,,,,,,,,,,,,,,,,,,,,,,,,,,,,,77.5,1.0,,,,,,
399,,iti,,html-keyboard-response,399,755062,0.0-1.0-78.0-0.0-5.0,0,0,60382,,,,,,,,,,,,,,,,,,,,,,,,,,,,,,,,,,,,,,78.5,1.0,,,,,,
400,,choice,,html-keyboard-response,400,756215,0.0-1.0-79.0-0.0-0.0,0,0,60382,,1148.0,,,75.0,77.0,78.0,1500.0,2000.0,0.0,2.0,1.0,40-40,1.0,,trumpet,trumpet,40.0,40.0,trumpet1,trumpet2,60.0,40.0,JUPITER+TROMPETTE+606MRL.JPG,Matt-Stevens-Pocket-Trumpet.jpg,/static/Category_learning/Stimuli/Experimental_stims/trumpet/JUPITER+TROMPETTE+606MRL.JPG,/static/Category_learning/Stimuli/Experimental_stims/trumpet/Matt-Stevens-Pocket-Trumpet.jpg,0.0,trumpet,trumpet,40.0,40.0,trumpet2,trumpet1,40.0,60.0,0.0,79.648,1.148,,,,,,
401,,confirmation,,html-keyboard-response,401,756574,0.0-1.0-79.0-0.0-1.0-0.0,0,0,60382,,,,,,77.0,,,,,,,,,,,,,,,,,,,,,,,,,,,,,,,,80.0,0.352,,,,,,
402,,isi,,html-keyboard-response,402,758079,0.0-1.0-79.0-0.0-2.0,0,0,60382,,,,,,,,,,,,,,,,,,,,,,,,,,,,,,,,,,,,,,81.5,1.5,,,,,,
403,,feedback,,html-keyboard-response,403,759082,0.0-1.0-79.0-0.0-3.0-0.0,0,0,60382,,,,,,77.0,,,,,,,,,,,,,,,,,,,,,,,,,,,,,,,,82.5,1.0,,,,,,
404,,iti,,html-keyboard-response,404,761086,0.0-1.0-79.0-0.0-5.0,0,0,60382,,,,,,,,,,,,,,,,,,,,,,,,,,,,,,,,,,,,,,84.5,2.0,,,,,,
405,,choice,,html-keyboard-response,405,761387,0.0-1.0-80.0-0.0-0.0,0,0,60382,,287.0,,,68.0,78.0,79.0,1500.0,3500.0,0.0,2.0,1.0,80-80,1.0,,key chain,key chain,80.0,80.0,key chain8,key chain10,100.0,80.0,Keychain01.jpg,Smurfs_Keychains_Smurf_Row_Boat.jpg,/static/Category_learning/Stimuli/Experimental_stims/key chain/Keychain01.jpg,/static/Category_learning/Stimuli/Experimental_stims/key chain/Smurfs_Keychains_Smurf_Row_Boat.jpg,1.0,key chain,key chain,80.0,80.0,key chain8,key chain10,100.0,80.0,0.0,84.787,0.287,,,,,,
406,,confirmation,,html-keyboard-response,406,762611,0.0-1.0-80.0-0.0-1.0-0.0,0,0,60382,,,,,,78.0,,,,,,,,,,,,,,,,,,,,,,,,,,,,,,,,86.0,1.213,,,,,,
407,,isi,,html-keyboard-response,407,764114,0.0-1.0-80.0-0.0-2.0,0,0,60382,,,,,,,,,,,,,,,,,,,,,,,,,,,,,,,,,,,,,,87.5,1.5,,,,,,
408,,feedback,,html-keyboard-response,408,765117,0.0-1.0-80.0-0.0-3.0-0.0,0,0,60382,,,,,,78.0,,,,,,,,,,,,,,,,,,,,,,,,,,,,,,,,88.5,1.0,,,,,,
409,,iti,,html-keyboard-response,409,768623,0.0-1.0-80.0-0.0-5.0,0,0,60382,,,,,,,,,,,,,,,,,,,,,,,,,,,,,,,,,,,,,,92.0,3.5,,,,,,
410,,choice,,html-keyboard-response,410,768984,0.0-1.0-81.0-0.0-0.0,0,0,60382,,350.0,,,75.0,79.0,80.0,1000.0,2000.0,0.0,2.0,0.0,20-80,,0.0,pen,key chain,20.0,80.0,pen6,key chain13,40.0,100.0,executive_pen2.jpg,Fancy_Liquid_Column_Shape_Key_Ring_with_Floater.jpg,/static/Category_learning/Stimuli/Experimental_stims/pen/executive_pen2.jpg,/static/Category_learning/Stimuli/Experimental_stims/key chain/Fancy_Liquid_Column_Shape_Key_Ring_with_Floater.jpg,0.0,key chain,pen,80.0,20.0,key chain13,pen6,100.0,40.0,0.0,92.35,0.35,,,,,,
411,,confirmation,,html-keyboard-response,411,770141,0.0-1.0-81.0-0.0-1.0-0.0,0,0,60382,,,,,,79.0,,,,,,,,,,,,,,,,,,,,,,,,,,,,,,,,93.5,1.15,,,,,,
412,,isi,,html-keyboard-response,412,771144,0.0-1.0-81.0-0.0-2.0,0,0,60382,,,,,,,,,,,,,,,,,,,,,,,,,,,,,,,,,,,,,,94.5,1.0,,,,,,
413,,feedback,,html-keyboard-response,413,772148,0.0-1.0-81.0-0.0-3.0-0.0,0,0,60382,,,,,,79.0,,,,,,,,,,,,,,,,,,,,,,,,,,,,,,,,95.5,1.0,,,,,,
414,,iti,,html-keyboard-response,414,774153,0.0-1.0-81.0-0.0-5.0,0,0,60382,,,,,,,,,,,,,,,,,,,,,,,,,,,,,,,,,,,,,,97.5,2.0,,,,,,
415,,choice,,html-keyboard-response,415,774441,0.0-1.0-82.0-0.0-0.0,0,0,60382,,283.0,,,68.0,80.0,81.0,3500.0,2000.0,0.0,2.0,0.0,60-60,,,bowl,bench,60.0,60.0,bowl7,bench2,80.0,60.0,Abowl54.jpg,26369969.thl.jpg,/static/Category_learning/Stimuli/Experimental_stims/bowl/Abowl54.jpg,/static/Category_learning/Stimuli/Experimental_stims/bench/26369969.thl.jpg,1.0,bowl,bench,60.0,60.0,bowl7,bench2,80.0,60.0,0.0,97.783,0.283,,,,,,
416,,confirmation,,html-keyboard-response,416,775662,0.0-1.0-82.0-0.0-1.0-0.0,0,0,60382,,,,,,80.0,,,,,,,,,,,,,,,,,,,,,,,,,,,,,,,,99.0,1.217,,,,,,
417,,isi,,html-keyboard-response,417,779164,0.0-1.0-82.0-0.0-2.0,0,0,60382,,,,,,,,,,,,,,,,,,,,,,,,,,,,,,,,,,,,,,102.5,3.5,,,,,,
418,,feedback,,html-keyboard-response,418,780171,0.0-1.0-82.0-0.0-3.0-0.0,0,0,60382,,,,,,80.0,,,,,,,,,,,,,,,,,,,,,,,,,,,,,,,,103.5,1.0,,,,,,
419,,iti,,html-keyboard-response,419,782178,0.0-1.0-82.0-0.0-5.0,0,0,60382,,,,,,,,,,,,,,,,,,,,,,,,,,,,,,,,,,,,,,105.5,2.0,,,,,,
420,,choice,,html-keyboard-response,420,782587,0.0-1.0-83.0-0.0-0.0,0,0,60382,,403.0,,,68.0,81.0,82.0,1000.0,1500.0,0.0,2.0,0.0,60-80,,1.0,frame,bench,80.0,60.0,frame14,bench1,80.0,40.0,AFRAME129.jpg,26419975.thl.jpg,/static/Category_learning/Stimuli/Experimental_stims/frame/AFRAME129.jpg,/static/Category_learning/Stimuli/Experimental_stims/bench/26419975.thl.jpg,1.0,frame,bench,80.0,60.0,frame14,bench1,80.0,40.0,0.0,105.903,0.403,,,,,,
421,,confirmation,,html-keyboard-response,421,783688,0.0-1.0-83.0-0.0-1.0-0.0,0,0,60382,,,,,,81.0,,,,,,,,,,,,,,,,,,,,,,,,,,,,,,,,107.0,1.097,,,,,,
422,,isi,,html-keyboard-response,422,784692,0.0-1.0-83.0-0.0-2.0,0,0,60382,,,,,,,,,,,,,,,,,,,,,,,,,,,,,,,,,,,,,,108.0,1.0,,,,,,
423,,feedback,,html-keyboard-response,423,785698,0.0-1.0-83.0-0.0-3.0-0.0,0,0,60382,,,,,,81.0,,,,,,,,,,,,,,,,,,,,,,,,,,,,,,,,109.0,1.0,,,,,,
424,,iti,,html-keyboard-response,424,787202,0.0-1.0-83.0-0.0-5.0,0,0,60382,,,,,,,,,,,,,,,,,,,,,,,,,,,,,,,,,,,,,,110.5,1.5,,,,,,
425,,choice,,html-keyboard-response,425,787628,0.0-1.0-84.0-0.0-0.0,0,0,60382,,421.0,,,68.0,82.0,83.0,1500.0,1000.0,0.0,2.0,0.0,20-80,,1.0,key chain,poker card,80.0,20.0,key chain6,poker card12,80.0,20.0,highboy_keychain_ItemCA75384.jpg,22865676.thl.jpg,/static/Category_learning/Stimuli/Experimental_stims/key chain/highboy_keychain_ItemCA75384.jpg,/static/Category_learning/Stimuli/Experimental_stims/poker card/22865676.thl.jpg,1.0,key chain,poker card,80.0,20.0,key chain6,poker card12,80.0,20.0,0.0,110.921,0.421,,,,,,
426,,confirmation,,html-keyboard-response,426,788716,0.0-1.0-84.0-0.0-1.0-0.0,0,0,60382,,,,,,82.0,,,,,,,,,,,,,,,,,,,,,,,,,,,,,,,,112.0,1.079,,,,,,
427,,isi,,html-keyboard-response,427,790219,0.0-1.0-84.0-0.0-2.0,0,0,60382,,,,,,,,,,,,,,,,,,,,,,,,,,,,,,,,,,,,,,113.5,1.5,,,,,,
428,,feedback,,html-keyboard-response,428,791223,0.0-1.0-84.0-0.0-3.0-0.0,0,0,60382,,,,,,82.0,,,,,,,,,,,,,,,,,,,,,,,,,,,,,,,,114.5,1.0,,,,,,
429,,iti,,html-keyboard-response,429,792227,0.0-1.0-84.0-0.0-5.0,0,0,60382,,,,,,,,,,,,,,,,,,,,,,,,,,,,,,,,,,,,,,115.5,1.0,,,,,,
430,,choice,,html-keyboard-response,430,792592,0.0-1.0-85.0-0.0-0.0,0,0,60382,,361.0,,,75.0,83.0,84.0,2000.0,1500.0,0.0,2.0,0.0,20-60,,0.0,poker card,bowl,20.0,60.0,poker card6,bowl1,40.0,40.0,22864212.thl.jpg,ABOWLS6.jpg,/static/Category_learning/Stimuli/Experimental_stims/poker card/22864212.thl.jpg,/static/Category_learning/Stimuli/Experimental_stims/bowl/ABOWLS6.jpg,0.0,bowl,poker card,60.0,20.0,bowl1,poker card6,40.0,40.0,0.0,115.861,0.361,,,,,,
431,,confirmation,,html-keyboard-response,431,793735,0.0-1.0-85.0-0.0-1.0-0.0,0,0,60382,,,,,,83.0,,,,,,,,,,,,,,,,,,,,,,,,,,,,,,,,117.0,1.139,,,,,,
432,,isi,,html-keyboard-response,432,795737,0.0-1.0-85.0-0.0-2.0,0,0,60382,,,,,,,,,,,,,,,,,,,,,,,,,,,,,,,,,,,,,,119.0,2.0,,,,,,
433,,feedback,,html-keyboard-response,433,796741,0.0-1.0-85.0-0.0-3.0-0.0,0,0,60382,,,,,,83.0,,,,,,,,,,,,,,,,,,,,,,,,,,,,,,,,120.0,1.0,,,,,,
434,,iti,,html-keyboard-response,434,798250,0.0-1.0-85.0-0.0-5.0,0,0,60382,,,,,,,,,,,,,,,,,,,,,,,,,,,,,,,,,,,,,,121.5,1.5,,,,,,
435,,choice,,html-keyboard-response,435,798666,0.0-1.0-86.0-0.0-0.0,0,0,60382,,402.0,,,68.0,84.0,85.0,1500.0,3500.0,0.0,2.0,1.0,60-60,1.0,,baby carriage,baby carriage,60.0,60.0,baby carriage13,baby carriage14,40.0,80.0,300px-Barnevogn2.jpg,peg_perego_uno_verde.jpg,/static/Category_learning/Stimuli/Experimental_stims/baby carriage/300px-Barnevogn2.jpg,/static/Category_learning/Stimuli/Experimental_stims/baby carriage/peg_perego_uno_verde.jpg,1.0,baby carriage,baby carriage,60.0,60.0,baby carriage13,baby carriage14,40.0,80.0,0.0,121.902,0.402,,,,,,
436,,confirmation,,html-keyboard-response,436,799768,0.0-1.0-86.0-0.0-1.0-0.0,0,0,60382,,,,,,84.0,,,,,,,,,,,,,,,,,,,,,,,,,,,,,,,,123.0,1.098,,,,,,
437,,isi,,html-keyboard-response,437,801272,0.0-1.0-86.0-0.0-2.0,0,0,60382,,,,,,,,,,,,,,,,,,,,,,,,,,,,,,,,,,,,,,124.5,1.5,,,,,,
438,,feedback,,html-keyboard-response,438,802282,0.0-1.0-86.0-0.0-3.0-0.0,0,0,60382,,,,,,84.0,,,,,,,,,,,,,,,,,,,,,,,,,,,,,,,,125.5,1.0,,,,,,
439,,iti,,html-keyboard-response,439,805787,0.0-1.0-86.0-0.0-5.0,0,0,60382,,,,,,,,,,,,,,,,,,,,,,,,,,,,,,,,,,,,,,129.0,3.5,,,,,,
440,,choice,,html-keyboard-response,440,806168,0.0-1.0-87.0-0.0-0.0,0,0,60382,,360.0,,,75.0,85.0,86.0,1000.0,1000.0,0.0,2.0,0.0,40-80,,1.0,frame,tape,80.0,40.0,frame1,tape11,80.0,20.0,AFRAME127.jpg,41FZA73H4JL._AA280_.jpg,/static/Category_learning/Stimuli/Experimental_stims/frame/AFRAME127.jpg,/static/Category_learning/Stimuli/Experimental_stims/tape/41FZA73H4JL._AA280_.jpg,0.0,tape,frame,40.0,80.0,tape11,frame1,20.0,80.0,0.0,129.36,0.36,,,,,,
441,,confirmation,,html-keyboard-response,441,807313,0.0-1.0-87.0-0.0-1.0-0.0,0,0,60382,,,,,,85.0,,,,,,,,,,,,,,,,,,,,,,,,,,,,,,,,130.5,1.14,,,,,,
442,,isi,,html-keyboard-response,442,808318,0.0-1.0-87.0-0.0-2.0,0,0,60382,,,,,,,,,,,,,,,,,,,,,,,,,,,,,,,,,,,,,,131.5,1.0,,,,,,
443,,feedback,,html-keyboard-response,443,809323,0.0-1.0-87.0-0.0-3.0-0.0,0,0,60382,,,,,,85.0,,,,,,,,,,,,,,,,,,,,,,,,,,,,,,,,132.5,1.0,,,,,,
444,,iti,,html-keyboard-response,444,810346,0.0-1.0-87.0-0.0-5.0,0,0,60382,,,,,,,,,,,,,,,,,,,,,,,,,,,,,,,,,,,,,,133.5,1.0,,,,,,
445,,choice,,html-keyboard-response,445,811300,0.0-1.0-88.0-0.0-0.0,0,0,60382,,945.0,,,68.0,86.0,87.0,1500.0,1000.0,0.0,2.0,0.0,20-60,,1.0,bowl,seashell,60.0,20.0,bowl12,seashell1,40.0,0.0,Abowl52.jpg,Aseashe34.jpg,/static/Category_learning/Stimuli/Experimental_stims/bowl/Abowl52.jpg,/static/Category_learning/Stimuli/Experimental_stims/seashell/Aseashe34.jpg,1.0,bowl,seashell,60.0,20.0,bowl12,seashell1,40.0,0.0,0.0,134.445,0.945,,,,,,
446,,confirmation,,html-keyboard-response,446,811861,0.0-1.0-88.0-0.0-1.0-0.0,0,0,60382,,,,,,86.0,,,,,,,,,,,,,,,,,,,,,,,,,,,,,,,,135.0,0.555,,,,,,
447,,isi,,html-keyboard-response,447,813365,0.0-1.0-88.0-0.0-2.0,0,0,60382,,,,,,,,,,,,,,,,,,,,,,,,,,,,,,,,,,,,,,136.5,1.5,,,,,,
448,,feedback,,html-keyboard-response,448,814369,0.0-1.0-88.0-0.0-3.0-0.0,0,0,60382,,,,,,86.0,,,,,,,,,,,,,,,,,,,,,,,,,,,,,,,,137.5,1.0,,,,,,
449,,iti,,html-keyboard-response,449,815374,0.0-1.0-88.0-0.0-5.0,0,0,60382,,,,,,,,,,,,,,,,,,,,,,,,,,,,,,,,,,,,,,138.5,1.0,,,,,,
450,,choice,,html-keyboard-response,450,815847,0.0-1.0-89.0-0.0-0.0,0,0,60382,,468.0,,,68.0,87.0,88.0,1500.0,1000.0,0.0,2.0,0.0,40-60,,1.0,desk,watch,60.0,40.0,desk2,watch15,80.0,40.0,AA Luffield Radial crescent Desk 1600mm x 1200mm.jpg,20-171-6.jpg,/static/Category_learning/Stimuli/Experimental_stims/desk/AA Luffield Radial crescent Desk 1600mm x 1200mm.jpg,/static/Category_learning/Stimuli/Experimental_stims/watch/20-171-6.jpg,1.0,desk,watch,60.0,40.0,desk2,watch15,80.0,40.0,0.0,138.968,0.468,,,,,,
451,,confirmation,,html-keyboard-response,451,816883,0.0-1.0-89.0-0.0-1.0-0.0,0,0,60382,,,,,,87.0,,,,,,,,,,,,,,,,,,,,,,,,,,,,,,,,140.0,1.032,,,,,,
452,,isi,,html-keyboard-response,452,818387,0.0-1.0-89.0-0.0-2.0,0,0,60382,,,,,,,,,,,,,,,,,,,,,,,,,,,,,,,,,,,,,,141.5,1.5,,,,,,
453,,feedback,,html-keyboard-response,453,819391,0.0-1.0-89.0-0.0-3.0-0.0,0,0,60382,,,,,,87.0,,,,,,,,,,,,,,,,,,,,,,,,,,,,,,,,142.5,1.0,,,,,,
454,,iti,,html-keyboard-response,454,820395,0.0-1.0-89.0-0.0-5.0,0,0,60382,,,,,,,,,,,,,,,,,,,,,,,,,,,,,,,,,,,,,,143.5,1.0,,,,,,
455,,choice,,html-keyboard-response,455,820826,0.0-1.0-90.0-0.0-0.0,0,0,60382,,427.0,,,68.0,88.0,89.0,1000.0,3000.0,0.0,2.0,1.0,60-60,1.0,,desk,desk,60.0,60.0,desk5,desk2,80.0,80.0,ADESK6.jpg,AA Luffield Radial crescent Desk 1600mm x 1200mm.jpg,/static/Category_learning/Stimuli/Experimental_stims/desk/ADESK6.jpg,/static/Category_learning/Stimuli/Experimental_stims/desk/AA Luffield Radial crescent Desk 1600mm x 1200mm.jpg,1.0,desk,desk,60.0,60.0,desk5,desk2,80.0,80.0,0.0,143.927,0.427,,,,,,
456,,confirmation,,html-keyboard-response,456,821908,0.0-1.0-90.0-0.0-1.0-0.0,0,0,60382,,,,,,88.0,,,,,,,,,,,,,,,,,,,,,,,,,,,,,,,,145.0,1.073,,,,,,
457,,isi,,html-keyboard-response,457,822914,0.0-1.0-90.0-0.0-2.0,0,0,60382,,,,,,,,,,,,,,,,,,,,,,,,,,,,,,,,,,,,,,146.0,1.0,,,,,,
458,,feedback,,html-keyboard-response,458,823917,0.0-1.0-90.0-0.0-3.0-0.0,0,0,60382,,,,,,88.0,,,,,,,,,,,,,,,,,,,,,,,,,,,,,,,,147.0,1.0,,,,,,
459,,iti,,html-keyboard-response,459,826921,0.0-1.0-90.0-0.0-5.0,0,0,60382,,,,,,,,,,,,,,,,,,,,,,,,,,,,,,,,,,,,,,150.0,3.0,,,,,,
460,,choice,,html-keyboard-response,460,827282,0.0-1.0-91.0-0.0-0.0,0,0,60382,,355.0,,,68.0,89.0,90.0,1000.0,1000.0,0.0,2.0,0.0,40-60,,0.0,tape,dresser,40.0,60.0,tape1,dresser2,20.0,80.0,aktotape_01.jpg,ADRESSE46.jpg,/static/Category_learning/Stimuli/Experimental_stims/tape/aktotape_01.jpg,/static/Category_learning/Stimuli/Experimental_stims/dresser/ADRESSE46.jpg,1.0,tape,dresser,40.0,60.0,tape1,dresser2,20.0,80.0,0.0,150.355,0.355,,,,,,
461,,confirmation,,html-keyboard-response,461,828432,0.0-1.0-91.0-0.0-1.0-0.0,0,0,60382,,,,,,89.0,,,,,,,,,,,,,,,,,,,,,,,,,,,,,,,,151.5,1.145,,,,,,
462,,isi,,html-keyboard-response,462,829437,0.0-1.0-91.0-0.0-2.0,0,0,60382,,,,,,,,,,,,,,,,,,,,,,,,,,,,,,,,,,,,,,152.5,1.0,,,,,,
463,,feedback,,html-keyboard-response,463,830440,0.0-1.0-91.0-0.0-3.0-0.0,0,0,60382,,,,,,89.0,,,,,,,,,,,,,,,,,,,,,,,,,,,,,,,,153.5,1.0,,,,,,
464,,iti,,html-keyboard-response,464,831445,0.0-1.0-91.0-0.0-5.0,0,0,60382,,,,,,,,,,,,,,,,,,,,,,,,,,,,,,,,,,,,,,154.5,1.0,,,,,,
465,,choice,,html-keyboard-response,465,832106,0.0-1.0-92.0-0.0-0.0,0,0,60382,,657.0,,,68.0,90.0,91.0,2000.0,1000.0,0.0,2.0,0.0,80-80,,,lipstick,frame,80.0,80.0,lipstick3,frame6,80.0,60.0,31sCvjMS3jL._SS500_.jpg,AFRAME123.jpg,/static/Category_learning/Stimuli/Experimental_stims/lipstick/31sCvjMS3jL._SS500_.jpg,/static/Category_learning/Stimuli/Experimental_stims/frame/AFRAME123.jpg,1.0,lipstick,frame,80.0,80.0,lipstick3,frame6,80.0,60.0,0.0,155.157,0.657,,,,,,
466,,confirmation,,html-keyboard-response,466,832957,0.0-1.0-92.0-0.0-1.0-0.0,0,0,60382,,,,,,90.0,,,,,,,,,,,,,,,,,,,,,,,,,,,,,,,,156.0,0.843,,,,,,
467,,isi,,html-keyboard-response,467,834960,0.0-1.0-92.0-0.0-2.0,0,0,60382,,,,,,,,,,,,,,,,,,,,,,,,,,,,,,,,,,,,,,158.0,2.0,,,,,,
468,,feedback,,html-keyboard-response,468,835967,0.0-1.0-92.0-0.0-3.0-0.0,0,0,60382,,,,,,90.0,,,,,,,,,,,,,,,,,,,,,,,,,,,,,,,,159.0,1.0,,,,,,
469,,iti,,html-keyboard-response,469,836971,0.0-1.0-92.0-0.0-5.0,0,0,60382,,,,,,,,,,,,,,,,,,,,,,,,,,,,,,,,,,,,,,160.0,1.0,,,,,,
470,,choice,,html-keyboard-response,470,837372,0.0-1.0-93.0-0.0-0.0,0,0,60382,,394.0,,,75.0,91.0,92.0,1500.0,1500.0,0.0,2.0,0.0,40-80,,0.0,yarn,hat,40.0,80.0,yarn9,hat9,60.0,100.0,Aballofyarn26.jpg,Astrawhat44.jpg,/static/Category_learning/Stimuli/Experimental_stims/yarn/Aballofyarn26.jpg,/static/Category_learning/Stimuli/Experimental_stims/hat/Astrawhat44.jpg,0.0,hat,yarn,80.0,40.0,hat9,yarn9,100.0,60.0,0.0,160.394,0.394,,,,,,
471,,confirmation,,html-keyboard-response,471,838484,0.0-1.0-93.0-0.0-1.0-0.0,0,0,60382,,,,,,91.0,,,,,,,,,,,,,,,,,,,,,,,,,,,,,,,,161.5,1.106,,,,,,
472,,isi,,html-keyboard-response,472,839990,0.0-1.0-93.0-0.0-2.0,0,0,60382,,,,,,,,,,,,,,,,,,,,,,,,,,,,,,,,,,,,,,163.0,1.5,,,,,,
473,,feedback,,html-keyboard-response,473,840996,0.0-1.0-93.0-0.0-3.0-0.0,0,0,60382,,,,,,91.0,,,,,,,,,,,,,,,,,,,,,,,,,,,,,,,,164.0,1.0,,,,,,
474,,iti,,html-keyboard-response,474,842501,0.0-1.0-93.0-0.0-5.0,0,0,60382,,,,,,,,,,,,,,,,,,,,,,,,,,,,,,,,,,,,,,165.5,1.5,,,,,,
475,,choice,,html-keyboard-response,475,842801,0.0-1.0-94.0-0.0-0.0,0,0,60382,,293.0,,,68.0,92.0,93.0,1000.0,1000.0,0.0,2.0,0.0,20-80,,0.0,power strip,motorcycle,20.0,80.0,power strip7,motorcycle13,20.0,80.0,412YZ25RFBL._AA262_.jpg,2005-Buell-FireboltXB12R.jpg,/static/Category_learning/Stimuli/Experimental_stims/power strip/412YZ25RFBL._AA262_.jpg,/static/Category_learning/Stimuli/Experimental_stims/motorcycle/2005-Buell-FireboltXB12R.jpg,1.0,power strip,motorcycle,20.0,80.0,power strip7,motorcycle13,20.0,80.0,0.0,165.793,0.293,,,,,,
476,,confirmation,,html-keyboard-response,476,844012,0.0-1.0-94.0-0.0-1.0-0.0,0,0,60382,,,,,,92.0,,,,,,,,,,,,,,,,,,,,,,,,,,,,,,,,167.0,1.207,,,,,,
477,,isi,,html-keyboard-response,477,845015,0.0-1.0-94.0-0.0-2.0,0,0,60382,,,,,,,,,,,,,,,,,,,,,,,,,,,,,,,,,,,,,,168.0,1.0,,,,,,
478,,feedback,,html-keyboard-response,478,846019,0.0-1.0-94.0-0.0-3.0-0.0,0,0,60382,,,,,,92.0,,,,,,,,,,,,,,,,,,,,,,,,,,,,,,,,169.0,1.0,,,,,,
479,,iti,,html-keyboard-response,479,847023,0.0-1.0-94.0-0.0-5.0,0,0,60382,,,,,,,,,,,,,,,,,,,,,,,,,,,,,,,,,,,,,,170.0,1.0,,,,,,
480,,choice,,html-keyboard-response,480,847768,0.0-1.0-95.0-0.0-0.0,0,0,60382,,738.0,,,75.0,93.0,94.0,1000.0,2000.0,0.0,2.0,0.0,40-80,,0.0,telescope,makeup compact,40.0,80.0,telescope9,makeup compact11,60.0,100.0,13TELESTAND.jpg,P190255_hero.jpg,/static/Category_learning/Stimuli/Experimental_stims/telescope/13TELESTAND.jpg,/static/Category_learning/Stimuli/Experimental_stims/makeup compact/P190255_hero.jpg,0.0,makeup compact,telescope,80.0,40.0,makeup compact11,telescope9,100.0,60.0,0.0,170.738,0.738,,,,,,
481,,confirmation,,html-keyboard-response,481,848536,0.0-1.0-95.0-0.0-1.0-0.0,0,0,60382,,,,,,93.0,,,,,,,,,,,,,,,,,,,,,,,,,,,,,,,,171.5,0.762,,,,,,
482,,isi,,html-keyboard-response,482,849539,0.0-1.0-95.0-0.0-2.0,0,0,60382,,,,,,,,,,,,,,,,,,,,,,,,,,,,,,,,,,,,,,172.5,1.0,,,,,,
483,,feedback,,html-keyboard-response,483,850543,0.0-1.0-95.0-0.0-3.0-0.0,0,0,60382,,,,,,93.0,,,,,,,,,,,,,,,,,,,,,,,,,,,,,,,,173.5,1.0,,,,,,
484,,iti,,html-keyboard-response,484,852548,0.0-1.0-95.0-0.0-5.0,0,0,60382,,,,,,,,,,,,,,,,,,,,,,,,,,,,,,,,,,,,,,175.5,2.0,,,,,,
485,,choice,,html-keyboard-response,485,852837,0.0-1.0-96.0-0.0-0.0,0,0,60382,,284.0,,,68.0,94.0,95.0,1000.0,1000.0,0.0,2.0,0.0,40-60,,1.0,door knob,tape,60.0,40.0,door knob5,tape7,60.0,60.0,Parth_Portofino_500.jpg,tape dispenser.jpg,/static/Category_learning/Stimuli/Experimental_stims/door knob/Parth_Portofino_500.jpg,/static/Category_learning/Stimuli/Experimental_stims/tape/tape dispenser.jpg,1.0,door knob,tape,60.0,40.0,door knob5,tape7,60.0,60.0,0.0,175.784,0.284,,,,,,
486,,confirmation,,html-keyboard-response,486,854056,0.0-1.0-96.0-0.0-1.0-0.0,0,0,60382,,,,,,94.0,,,,,,,,,,,,,,,,,,,,,,,,,,,,,,,,177.0,1.216,,,,,,
