,success,ttype,start_time,trial_type,trial_index,time_elapsed,internal_node_id,warning,missed_checkup,PID,view_history,rt,responses,repeat_instructions,key_press,index,trial_num,isi,iti,is_practice,block,old_trial,pair_type,within_category,high_cat_on_left,left_category,right_category,left_category_value,right_category_value,left_exemplar,right_exemplar,left_exemplar_value,right_exemplar_value,left_img,right_img,left_img_path,right_img_path,left_chosen,chosen_category,unchosen_category,chosen_category_value,unchosen_category_value,chosen_exemplar,unchosen_exemplar,chosen_exemplar_value,unchosen_exemplar_value,no_response,onset,duration,end_practice,total_bonus_tally,category,category_group_value,category_value_response,did_not_enter_response
0,True,full_screen,d06102022hr2009,fullscreen,0,3482,0.0-0.0,0,0,10,,,,,,,,,,,,,,,,,,,,,,,,,,,,,,,,,,,,,,,,,,,,,
1,,category_learning_instructions,,instructions,1,66697,0.0-1.0-0.0-0.0,0,0,10,"[{""page_index"":0,""viewing_time"":5303},{""page_index"":1,""viewing_time"":10740},{""page_index"":2,""viewing_time"":9710},{""page_index"":3,""viewing_time"":11508},{""page_index"":4,""viewing_time"":12308},{""page_index"":5,""viewing_time"":8180},{""page_index"":6,""viewing_time"":5462}]",63212.0,,,,,,,,,,,,,,,,,,,,,,,,,,,,,,,,,,,,,,,,,,,
2,,category_learning_comprehension_check,,survey-multi-choice,2,81872,0.0-1.0-0.0-1.0,0,0,10,,15169.0,"{""Q0"":""True"",""Q1"":""True"",""Q2"":""Stay the same"",""Q3"":""pointer finger for left and middle finger for right""}",0.0,,,,,,,,,,,,,,,,,,,,,,,,,,,,,,,,,,,,,,,,,
3,,,,html-keyboard-response,3,88115,0.0-1.0-1.0,0,0,10,,6235.0,,,50.0,,,,,,,,,,,,,,,,,,,,,,,,,,,,,,,,,,,,,,,,
4,,choice,,html-keyboard-response,4,88784,0.0-1.0-2.0-0.0-0.0,0,0,10,,663.0,,,50.0,0.0,0.0,1500.0,1000.0,1.0,0.0,0.0,20-80,,0.0,bagel,dumbbell,20.0,80.0,bagel1,dumbbell1,0.0,80.0,bagels_pumpernickel_large.jpg,31B64EN68AL._AA280_.jpg,/static/Category_learning/Stimuli/Practice_stims/bagel/bagels_pumpernickel_large.jpg,/static/Category_learning/Stimuli/Practice_stims/dumbbell/31B64EN68AL._AA280_.jpg,1.0,bagel,dumbbell,20.0,80.0,bagel1,dumbbell1,0.0,80.0,0.0,0.0,0.663,,,,,,
5,,confirmation,,html-keyboard-response,5,89629,0.0-1.0-2.0-0.0-1.0-0.0,0,0,10,,,,,,0.0,,,,,0.0,,,,,,,,,,,,,,,,,,,,,,,,,,,0.663,0.837,,,,,,
6,,isi,,html-keyboard-response,6,91134,0.0-1.0-2.0-0.0-2.0,0,0,10,,,,,,0.0,,,,,0.0,,,,,,,,,,,,,,,,,,,,,,,,,,,1.5,1.5,,,,,,
7,,feedback,,html-keyboard-response,7,92143,0.0-1.0-2.0-0.0-3.0-0.0,0,0,10,,,,,,0.0,,,,,0.0,,,,,,,,,,,,,,,,,,,,,,,,,,,3.0,1.0,,,,,,
8,,iti,,html-keyboard-response,8,93148,0.0-1.0-2.0-0.0-5.0,0,0,10,,,,,,0.0,,,,,0.0,,,,,,,,,,,,,,,,,,,,,,,,,,,4.0,1.0,,,,,,
9,,choice,,html-keyboard-response,9,93521,0.0-1.0-3.0-0.0-0.0,0,0,10,,368.0,,,51.0,1.0,1.0,3000.0,1500.0,1.0,0.0,0.0,20-40,,1.0,calculator,bagel,40.0,20.0,calculator2,bagel2,20.0,20.0,22829064.thl.jpg,bagels_cinnraisin_large.jpg,/static/Category_learning/Stimuli/Practice_stims/calculator/22829064.thl.jpg,/static/Category_learning/Stimuli/Practice_stims/bagel/bagels_cinnraisin_large.jpg,0.0,bagel,calculator,20.0,40.0,bagel2,calculator2,20.0,20.0,0.0,5.0,0.368,,,,,,
10,,confirmation,,html-keyboard-response,10,94661,0.0-1.0-3.0-0.0-1.0-0.0,0,0,10,,,,,,1.0,,,,,0.0,,,,,,,,,,,,,,,,,,,,,,,,,,,5.368,1.132,,,,,,
11,,isi,,html-keyboard-response,11,97668,0.0-1.0-3.0-0.0-2.0,0,0,10,,,,,,1.0,,,,,0.0,,,,,,,,,,,,,,,,,,,,,,,,,,,6.5,3.0,,,,,,
12,,feedback,,html-keyboard-response,12,98677,0.0-1.0-3.0-0.0-3.0-0.0,0,0,10,,,,,,1.0,,,,,0.0,,,,,,,,,,,,,,,,,,,,,,,,,,,9.5,1.0,,,,,,
13,,iti,,html-keyboard-response,13,100181,0.0-1.0-3.0-0.0-5.0,0,0,10,,,,,,1.0,,,,,0.0,,,,,,,,,,,,,,,,,,,,,,,,,,,10.5,1.5,,,,,,
14,,choice,,html-keyboard-response,14,100597,0.0-1.0-4.0-0.0-0.0,0,0,10,,413.0,,,51.0,2.0,2.0,2000.0,3000.0,1.0,0.0,0.0,60-80,,0.0,clock,dumbbell,60.0,80.0,clock2,dumbbell2,60.0,100.0,26373355.thl.jpg,31K8MR6TMBL._SS500_.jpg,/static/Category_learning/Stimuli/Practice_stims/clock/26373355.thl.jpg,/static/Category_learning/Stimuli/Practice_stims/dumbbell/31K8MR6TMBL._SS500_.jpg,0.0,dumbbell,clock,80.0,60.0,dumbbell2,clock2,100.0,60.0,0.0,12.0,0.413,,,,,,
15,,confirmation,,html-keyboard-response,15,101690,0.0-1.0-4.0-0.0-1.0-0.0,0,0,10,,,,,,2.0,,,,,0.0,,,,,,,,,,,,,,,,,,,,,,,,,,,12.413,1.087,,,,,,
16,,isi,,html-keyboard-response,16,103695,0.0-1.0-4.0-0.0-2.0,0,0,10,,,,,,2.0,,,,,0.0,,,,,,,,,,,,,,,,,,,,,,,,,,,13.5,2.0,,,,,,
17,,feedback,,html-keyboard-response,17,104703,0.0-1.0-4.0-0.0-3.0-0.0,0,0,10,,,,,,2.0,,,,,0.0,,,,,,,,,,,,,,,,,,,,,,,,,,,15.5,1.0,,,,,,
18,,iti,,html-keyboard-response,18,107711,0.0-1.0-4.0-0.0-5.0,0,0,10,,,,,,2.0,,,,,0.0,,,,,,,,,,,,,,,,,,,,,,,,,,,16.5,3.0,,,,,,
19,,choice,,html-keyboard-response,19,108247,0.0-1.0-5.0-0.0-0.0,0,0,10,,531.0,,,50.0,3.0,3.0,1000.0,2000.0,1.0,0.0,0.0,40-80,,0.0,calculator,clock,40.0,60.0,calculator1,clock1,40.0,40.0,22829184.thl.jpg,Aalarmclock2.jpg,/static/Category_learning/Stimuli/Practice_stims/calculator/22829184.thl.jpg,/static/Category_learning/Stimuli/Practice_stims/clock/Aalarmclock2.jpg,1.0,calculator,clock,40.0,60.0,calculator1,clock1,40.0,40.0,0.0,19.5,0.531,,,,,,
20,,confirmation,,html-keyboard-response,20,109221,0.0-1.0-5.0-0.0-1.0-0.0,0,0,10,,,,,,3.0,,,,,0.0,,,,,,,,,,,,,,,,,,,,,,,,,,,20.031,0.969,,,,,,
21,,isi,,html-keyboard-response,21,110228,0.0-1.0-5.0-0.0-2.0,0,0,10,,,,,,3.0,,,,,0.0,,,,,,,,,,,,,,,,,,,,,,,,,,,21.0,1.0,,,,,,
22,,feedback,,html-keyboard-response,22,111237,0.0-1.0-5.0-0.0-3.0-0.0,0,0,10,,,,,,3.0,,,,,0.0,,,,,,,,,,,,,,,,,,,,,,,,,,,22.0,1.0,,,,,,
23,,iti,,html-keyboard-response,23,113242,0.0-1.0-5.0-0.0-5.0,0,0,10,,,,,,3.0,,,,,0.0,,,,,,,,,,,,,,,,,,,,,,,,,,,23.0,2.0,,,,,,
24,,choice,,html-keyboard-response,24,113571,0.0-1.0-6.0-0.0-0.0,0,0,10,,324.0,,,51.0,4.0,4.0,2500.0,2500.0,1.0,0.0,0.0,20-60,,1.0,dumbbell,bagel,80.0,20.0,dumbbell3,bagel3,100.0,40.0,41K7QVRX50L._SS500_.jpg,photo-169.jpg,/static/Category_learning/Stimuli/Practice_stims/dumbbell/41K7QVRX50L._SS500_.jpg,/static/Category_learning/Stimuli/Practice_stims/bagel/photo-169.jpg,0.0,bagel,dumbbell,20.0,80.0,bagel3,dumbbell3,40.0,100.0,0.0,25.0,0.324,1.0,,,,,
25,,confirmation,,html-keyboard-response,25,114752,0.0-1.0-6.0-0.0-1.0-0.0,0,0,10,,,,,,4.0,,,,,0.0,,,,,,,,,,,,,,,,,,,,,,,,,,,25.324,1.176,,,,,,
26,,isi,,html-keyboard-response,26,117258,0.0-1.0-6.0-0.0-2.0,0,0,10,,,,,,4.0,,,,,0.0,,,,,,,,,,,,,,,,,,,,,,,,,,,26.5,2.5,,,,,,
27,,feedback,,html-keyboard-response,27,118266,0.0-1.0-6.0-0.0-3.0-0.0,0,0,10,,,,,,4.0,,,,,0.0,,,,,,,,,,,,,,,,,,,,,,,,,,,29.0,1.0,,,,,,
28,,iti,,html-keyboard-response,28,120773,0.0-1.0-6.0-0.0-5.0,0,0,10,,,,,,4.0,,,,,0.0,,,,,,,,,,,,,,,,,,,,,,,,,,,30.0,2.5,,,,,,
29,,practice_over,,html-keyboard-response,29,124956,0.0-1.0-6.0-0.0-6.0-0.0,0,0,10,,4180.0,,,50.0,4.0,,,,,,,,,,,,,,,,,,,,,,,,,,,,,,,,,,,,,,,
30,,start_run,,html-keyboard-response,30,128831,0.0-1.0-6.0-0.0-6.0-1.0,0,0,10,,3872.0,,,84.0,,,,,,,,,,,,,,,,,,,,,,,,,,,,,,,,,,,,,,,,
31,,choice,,html-keyboard-response,31,129418,0.0-1.0-7.0-0.0-0.0,0,0,10,,581.0,,,50.0,5.0,5.0,2000.0,3500.0,0.0,1.0,0.0,20-60,,0.0,necklace,bench,20.0,60.0,necklace15,bench3,40.0,40.0,necklascenew04.jpg,26419540.thl.jpg,/static/Category_learning/Stimuli/Experimental_stims/necklace/necklascenew04.jpg,/static/Category_learning/Stimuli/Experimental_stims/bench/26419540.thl.jpg,1.0,necklace,bench,20.0,60.0,necklace15,bench3,40.0,40.0,0.0,0.0,0.581,,,,,,
32,,confirmation,,html-keyboard-response,32,130346,0.0-1.0-7.0-0.0-1.0-0.0,0,0,10,,,,,,5.0,,,,,1.0,,,,,,,,,,,,,,,,,,,,,,,,,,,0.581,0.919,,,,,,
33,,isi,,html-keyboard-response,33,132352,0.0-1.0-7.0-0.0-2.0,0,0,10,,,,,,5.0,,,,,1.0,,,,,,,,,,,,,,,,,,,,,,,,,,,1.5,2.0,,,,,,
34,,feedback,,html-keyboard-response,34,133360,0.0-1.0-7.0-0.0-3.0-0.0,0,0,10,,,,,,5.0,,,,,1.0,,,,,,,,,,,,,,,,,,,,,,,,,,,3.5,1.0,,,,,,
35,,iti,,html-keyboard-response,35,136864,0.0-1.0-7.0-0.0-5.0,0,0,10,,,,,,5.0,,,,,1.0,,,,,,,,,,,,,,,,,,,,,,,,,,,4.5,3.5,,,,,,
36,,choice,,html-keyboard-response,36,137490,0.0-1.0-8.0-0.0-0.0,0,0,10,,622.0,,,51.0,6.0,6.0,2000.0,1000.0,0.0,1.0,0.0,20-20,,,power strip,seashell,20.0,20.0,power strip8,seashell7,40.0,20.0,3118YGHQWXL._AA262_.jpg,seashell34.jpg,/static/Category_learning/Stimuli/Experimental_stims/power strip/3118YGHQWXL._AA262_.jpg,/static/Category_learning/Stimuli/Experimental_stims/seashell/seashell34.jpg,0.0,seashell,power strip,20.0,20.0,seashell7,power strip8,20.0,40.0,0.0,8.0,0.622,,,,,,
37,,confirmation,,html-keyboard-response,37,138372,0.0-1.0-8.0-0.0-1.0-0.0,0,0,10,,,,,,6.0,,,,,1.0,,,,,,,,,,,,,,,,,,,,,,,,,,,8.622,0.878,,,,,,
38,,isi,,html-keyboard-response,38,140378,0.0-1.0-8.0-0.0-2.0,0,0,10,,,,,,6.0,,,,,1.0,,,,,,,,,,,,,,,,,,,,,,,,,,,9.5,2.0,,,,,,
39,,feedback,,html-keyboard-response,39,141386,0.0-1.0-8.0-0.0-3.0-0.0,0,0,10,,,,,,6.0,,,,,1.0,,,,,,,,,,,,,,,,,,,,,,,,,,,11.5,1.0,,,,,,
40,,iti,,html-keyboard-response,40,142394,0.0-1.0-8.0-0.0-5.0,0,0,10,,,,,,6.0,,,,,1.0,,,,,,,,,,,,,,,,,,,,,,,,,,,12.5,1.0,,,,,,
41,,choice,,html-keyboard-response,41,143186,0.0-1.0-9.0-0.0-0.0,0,0,10,,787.0,,,50.0,7.0,7.0,1500.0,2000.0,0.0,1.0,0.0,20-40,,1.0,telescope,poker card,40.0,20.0,telescope1,poker card9,20.0,40.0,celestron nexstar 114 gt reflector telescope.jpg,9817230.thl.jpg,/static/Category_learning/Stimuli/Experimental_stims/telescope/celestron nexstar 114 gt reflector telescope.jpg,/static/Category_learning/Stimuli/Experimental_stims/poker card/9817230.thl.jpg,1.0,telescope,poker card,40.0,20.0,telescope1,poker card9,20.0,40.0,0.0,13.5,0.787,,,,,,
42,,confirmation,,html-keyboard-response,42,143904,0.0-1.0-9.0-0.0-1.0-0.0,0,0,10,,,,,,7.0,,,,,1.0,,,,,,,,,,,,,,,,,,,,,,,,,,,14.287,0.713,,,,,,
43,,isi,,html-keyboard-response,43,145408,0.0-1.0-9.0-0.0-2.0,0,0,10,,,,,,7.0,,,,,1.0,,,,,,,,,,,,,,,,,,,,,,,,,,,15.0,1.5,,,,,,
44,,feedback,,html-keyboard-response,44,146416,0.0-1.0-9.0-0.0-3.0-0.0,0,0,10,,,,,,7.0,,,,,1.0,,,,,,,,,,,,,,,,,,,,,,,,,,,16.5,1.0,,,,,,
45,,iti,,html-keyboard-response,45,148421,0.0-1.0-9.0-0.0-5.0,0,0,10,,,,,,7.0,,,,,1.0,,,,,,,,,,,,,,,,,,,,,,,,,,,17.5,2.0,,,,,,
46,,choice,,html-keyboard-response,46,148867,0.0-1.0-10.0-0.0-0.0,0,0,10,,441.0,,,51.0,8.0,8.0,3500.0,1000.0,0.0,1.0,0.0,60-60,,,door knob,dresser,60.0,60.0,door knob7,dresser4,40.0,80.0,doorknob2.jpg,ADRESSE40.jpg,/static/Category_learning/Stimuli/Experimental_stims/door knob/doorknob2.jpg,/static/Category_learning/Stimuli/Experimental_stims/dresser/ADRESSE40.jpg,0.0,dresser,door knob,60.0,60.0,dresser4,door knob7,80.0,40.0,0.0,19.5,0.441,,,,,,
47,,confirmation,,html-keyboard-response,47,149931,0.0-1.0-10.0-0.0-1.0-0.0,0,0,10,,,,,,8.0,,,,,1.0,,,,,,,,,,,,,,,,,,,,,,,,,,,19.941,1.059,,,,,,
48,,isi,,html-keyboard-response,48,153435,0.0-1.0-10.0-0.0-2.0,0,0,10,,,,,,8.0,,,,,1.0,,,,,,,,,,,,,,,,,,,,,,,,,,,21.0,3.5,,,,,,
49,,feedback,,html-keyboard-response,49,154443,0.0-1.0-10.0-0.0-3.0-0.0,0,0,10,,,,,,8.0,,,,,1.0,,,,,,,,,,,,,,,,,,,,,,,,,,,24.5,1.0,,,,,,
50,,iti,,html-keyboard-response,50,155446,0.0-1.0-10.0-0.0-5.0,0,0,10,,,,,,8.0,,,,,1.0,,,,,,,,,,,,,,,,,,,,,,,,,,,25.5,1.0,,,,,,
51,,choice,,html-keyboard-response,51,156047,0.0-1.0-11.0-0.0-0.0,0,0,10,,596.0,,,50.0,9.0,9.0,1000.0,1000.0,0.0,1.0,0.0,20-60,,0.0,poker card,desk,20.0,60.0,poker card8,desk13,20.0,80.0,22864392.thl.jpg,26427865.thl.jpg,/static/Category_learning/Stimuli/Experimental_stims/poker card/22864392.thl.jpg,/static/Category_learning/Stimuli/Experimental_stims/desk/26427865.thl.jpg,1.0,poker card,desk,20.0,60.0,poker card8,desk13,20.0,80.0,0.0,26.5,0.596,,,,,,
52,,confirmation,,html-keyboard-response,52,156960,0.0-1.0-11.0-0.0-1.0-0.0,0,0,10,,,,,,9.0,,,,,1.0,,,,,,,,,,,,,,,,,,,,,,,,,,,27.096,0.904,,,,,,
53,,isi,,html-keyboard-response,53,157965,0.0-1.0-11.0-0.0-2.0,0,0,10,,,,,,9.0,,,,,1.0,,,,,,,,,,,,,,,,,,,,,,,,,,,28.0,1.0,,,,,,
54,,feedback,,html-keyboard-response,54,158970,0.0-1.0-11.0-0.0-3.0-0.0,0,0,10,,,,,,9.0,,,,,1.0,,,,,,,,,,,,,,,,,,,,,,,,,,,29.0,1.0,,,,,,
55,,iti,,html-keyboard-response,55,159973,0.0-1.0-11.0-0.0-5.0,0,0,10,,,,,,9.0,,,,,1.0,,,,,,,,,,,,,,,,,,,,,,,,,,,30.0,1.0,,,,,,
56,,choice,,html-keyboard-response,56,160407,0.0-1.0-12.0-0.0-0.0,0,0,10,,430.0,,,51.0,10.0,10.0,1000.0,1000.0,0.0,1.0,0.0,20-60,,1.0,bench,nail polish,60.0,20.0,bench8,nail polish6,80.0,0.0,APARKBE14.jpg,127_t.jpg,/static/Category_learning/Stimuli/Experimental_stims/bench/APARKBE14.jpg,/static/Category_learning/Stimuli/Experimental_stims/nail polish/127_t.jpg,0.0,nail polish,bench,20.0,60.0,nail polish6,bench8,0.0,80.0,0.0,31.0,0.43,,,,,,
57,,confirmation,,html-keyboard-response,57,161483,0.0-1.0-12.0-0.0-1.0-0.0,0,0,10,,,,,,10.0,,,,,1.0,,,,,,,,,,,,,,,,,,,,,,,,,,,31.43,1.07,,,,,,
58,,isi,,html-keyboard-response,58,162491,0.0-1.0-12.0-0.0-2.0,0,0,10,,,,,,10.0,,,,,1.0,,,,,,,,,,,,,,,,,,,,,,,,,,,32.5,1.0,,,,,,
59,,feedback,,html-keyboard-response,59,163499,0.0-1.0-12.0-0.0-3.0-0.0,0,0,10,,,,,,10.0,,,,,1.0,,,,,,,,,,,,,,,,,,,,,,,,,,,33.5,1.0,,,,,,
60,,iti,,html-keyboard-response,60,164507,0.0-1.0-12.0-0.0-5.0,0,0,10,,,,,,10.0,,,,,1.0,,,,,,,,,,,,,,,,,,,,,,,,,,,34.5,1.0,,,,,,
61,,choice,,html-keyboard-response,61,164967,0.0-1.0-13.0-0.0-0.0,0,0,10,,456.0,,,50.0,11.0,11.0,1500.0,3000.0,0.0,1.0,0.0,20-80,,0.0,pen,microscope,20.0,80.0,pen11,microscope4,0.0,80.0,pen01.jpg,55071208.JPG,/static/Category_learning/Stimuli/Experimental_stims/pen/pen01.jpg,/static/Category_learning/Stimuli/Experimental_stims/microscope/55071208.JPG,1.0,pen,microscope,20.0,80.0,pen11,microscope4,0.0,80.0,0.0,35.5,0.456,,,,,,
62,,confirmation,,html-keyboard-response,62,166016,0.0-1.0-13.0-0.0-1.0-0.0,0,0,10,,,,,,11.0,,,,,1.0,,,,,,,,,,,,,,,,,,,,,,,,,,,35.956,1.044,,,,,,
63,,isi,,html-keyboard-response,63,167520,0.0-1.0-13.0-0.0-2.0,0,0,10,,,,,,11.0,,,,,1.0,,,,,,,,,,,,,,,,,,,,,,,,,,,37.0,1.5,,,,,,
64,,feedback,,html-keyboard-response,64,168528,0.0-1.0-13.0-0.0-3.0-0.0,0,0,10,,,,,,11.0,,,,,1.0,,,,,,,,,,,,,,,,,,,,,,,,,,,38.5,1.0,,,,,,
65,,iti,,html-keyboard-response,65,171536,0.0-1.0-13.0-0.0-5.0,0,0,10,,,,,,11.0,,,,,1.0,,,,,,,,,,,,,,,,,,,,,,,,,,,39.5,3.0,,,,,,
66,,choice,,html-keyboard-response,66,172076,0.0-1.0-14.0-0.0-0.0,0,0,10,,535.0,,,51.0,12.0,12.0,1500.0,2000.0,0.0,1.0,0.0,20-60,,0.0,necklace,bowl,20.0,60.0,necklace1,bowl14,0.0,60.0,26443173.thl.jpg,Aredglassbowl.jpg,/static/Category_learning/Stimuli/Experimental_stims/necklace/26443173.thl.jpg,/static/Category_learning/Stimuli/Experimental_stims/bowl/Aredglassbowl.jpg,0.0,bowl,necklace,60.0,20.0,bowl14,necklace1,60.0,0.0,0.0,42.5,0.535,,,,,,
67,,confirmation,,html-keyboard-response,67,173046,0.0-1.0-14.0-0.0-1.0-0.0,0,0,10,,,,,,12.0,,,,,1.0,,,,,,,,,,,,,,,,,,,,,,,,,,,43.035,0.965,,,,,,
68,,isi,,html-keyboard-response,68,174550,0.0-1.0-14.0-0.0-2.0,0,0,10,,,,,,12.0,,,,,1.0,,,,,,,,,,,,,,,,,,,,,,,,,,,44.0,1.5,,,,,,
69,,feedback,,html-keyboard-response,69,175558,0.0-1.0-14.0-0.0-3.0-0.0,0,0,10,,,,,,12.0,,,,,1.0,,,,,,,,,,,,,,,,,,,,,,,,,,,45.5,1.0,,,,,,
70,,iti,,html-keyboard-response,70,177565,0.0-1.0-14.0-0.0-5.0,0,0,10,,,,,,12.0,,,,,1.0,,,,,,,,,,,,,,,,,,,,,,,,,,,46.5,2.0,,,,,,
71,,choice,,html-keyboard-response,71,179588,0.0-1.0-15.0-0.0-0.0,0,0,10,,,,,,13.0,13.0,3500.0,3500.0,0.0,1.0,1.0,20-60,0.0,,seashell,dresser,20.0,60.0,seashell7,dresser4,20.0,80.0,seashell34.jpg,ADRESSE40.jpg,/static/Category_learning/Stimuli/Experimental_stims/seashell/seashell34.jpg,/static/Category_learning/Stimuli/Experimental_stims/dresser/ADRESSE40.jpg,,,,,,,,,,1.0,48.5,1.5,,,,,,
72,,isi,,html-keyboard-response,72,183092,0.0-1.0-15.0-0.0-2.0,0,0,10,,,,,,13.0,,,,,1.0,,,,,,,,,,,,,,,,,,,,,,,,,,,50.0,3.5,,,,,,
73,,no_response,,html-keyboard-response,73,184096,0.0-1.0-15.0-0.0-4.0-0.0,0,0,10,,,,,,13.0,,,,,1.0,,,,,,,,,,,,,,,,,,,,,,,,,,,53.5,1.0,,,,,,
74,,iti,,html-keyboard-response,74,187617,0.0-1.0-15.0-0.0-5.0,0,0,10,,,,,,13.0,,,,,1.0,,,,,,,,,,,,,,,,,,,,,,,,,,,54.5,3.5,,,,,,
75,,choice,,html-keyboard-response,75,188135,0.0-1.0-15.0-0.1-0.1,0,0,10,,513.0,,,51.0,13.0,13.0,3500.0,3500.0,0.0,1.0,1.0,20-60,0.0,,seashell,dresser,20.0,60.0,seashell7,dresser4,20.0,80.0,seashell34.jpg,ADRESSE40.jpg,/static/Category_learning/Stimuli/Experimental_stims/seashell/seashell34.jpg,/static/Category_learning/Stimuli/Experimental_stims/dresser/ADRESSE40.jpg,0.0,dresser,seashell,60.0,20.0,dresser4,seashell7,80.0,20.0,0.0,58.0,0.513,,,,,,
76,,confirmation,,html-keyboard-response,76,189131,0.0-1.0-15.0-0.1-1.1-0.1,0,0,10,,,,,,13.0,,,,,1.0,,,,,,,,,,,,,,,,,,,,,,,,,,,58.513,0.987,,,,,,
77,,isi,,html-keyboard-response,77,191136,0.0-1.0-15.0-0.1-2.1,0,0,10,,,,,,13.0,,,,,1.0,,,,,,,,,,,,,,,,,,,,,,,,,,,59.5,2.0,,,,,,
78,,feedback,,html-keyboard-response,78,192145,0.0-1.0-15.0-0.1-3.1-0.1,0,0,10,,,,,,13.0,,,,,1.0,,,,,,,,,,,,,,,,,,,,,,,,,,,61.5,1.0,,,,,,
79,,iti,,html-keyboard-response,79,193648,0.0-1.0-15.0-0.1-5.1,0,0,10,,,,,,13.0,,,,,1.0,,,,,,,,,,,,,,,,,,,,,,,,,,,62.5,1.5,,,,,,
80,,choice,,html-keyboard-response,80,194479,0.0-1.0-16.0-0.0-0.0,0,0,10,,826.0,,,50.0,14.0,14.0,1000.0,1000.0,0.0,1.0,0.0,60-80,,1.0,microscope,bench,80.0,60.0,microscope12,bench12,60.0,80.0,usbdigitalmicroscope1_small1.jpg,22927976.thl.jpg,/static/Category_learning/Stimuli/Experimental_stims/microscope/usbdigitalmicroscope1_small1.jpg,/static/Category_learning/Stimuli/Experimental_stims/bench/22927976.thl.jpg,1.0,microscope,bench,80.0,60.0,microscope12,bench12,60.0,80.0,0.0,64.0,0.826,,,,,,
81,,confirmation,,html-keyboard-response,81,195158,0.0-1.0-16.0-0.0-1.0-0.0,0,0,10,,,,,,14.0,,,,,1.0,,,,,,,,,,,,,,,,,,,,,,,,,,,64.826,0.674,,,,,,
82,,isi,,html-keyboard-response,82,196163,0.0-1.0-16.0-0.0-2.0,0,0,10,,,,,,14.0,,,,,1.0,,,,,,,,,,,,,,,,,,,,,,,,,,,65.5,1.0,,,,,,
83,,feedback,,html-keyboard-response,83,197169,0.0-1.0-16.0-0.0-3.0-0.0,0,0,10,,,,,,14.0,,,,,1.0,,,,,,,,,,,,,,,,,,,,,,,,,,,66.5,1.0,,,,,,
84,,iti,,html-keyboard-response,84,198173,0.0-1.0-16.0-0.0-5.0,0,0,10,,,,,,14.0,,,,,1.0,,,,,,,,,,,,,,,,,,,,,,,,,,,67.5,1.0,,,,,,
85,,choice,,html-keyboard-response,85,199681,0.0-1.0-17.0-0.0-0.0,0,0,10,,,,,,15.0,15.0,1000.0,1000.0,0.0,1.0,1.0,20-80,0.0,,microscope,pen,80.0,20.0,microscope12,pen11,60.0,0.0,usbdigitalmicroscope1_small1.jpg,pen01.jpg,/static/Category_learning/Stimuli/Experimental_stims/microscope/usbdigitalmicroscope1_small1.jpg,/static/Category_learning/Stimuli/Experimental_stims/pen/pen01.jpg,,,,,,,,,,1.0,68.5,1.5,,,,,,
86,,isi,,html-keyboard-response,86,200689,0.0-1.0-17.0-0.0-2.0,0,0,10,,,,,,15.0,,,,,1.0,,,,,,,,,,,,,,,,,,,,,,,,,,,70.0,1.0,,,,,,
87,,no_response,,html-keyboard-response,87,201697,0.0-1.0-17.0-0.0-4.0-0.0,0,0,10,,,,,,15.0,,,,,1.0,,,,,,,,,,,,,,,,,,,,,,,,,,,71.0,1.0,,,,,,
88,,iti,,html-keyboard-response,88,202715,0.0-1.0-17.0-0.0-5.0,0,0,10,,,,,,15.0,,,,,1.0,,,,,,,,,,,,,,,,,,,,,,,,,,,72.0,1.0,,,,,,
89,,choice,,html-keyboard-response,89,203402,0.0-1.0-17.0-0.1-0.1,0,0,10,,684.0,,,51.0,15.0,15.0,1000.0,1000.0,0.0,1.0,1.0,20-80,0.0,,microscope,pen,80.0,20.0,microscope12,pen11,60.0,0.0,usbdigitalmicroscope1_small1.jpg,pen01.jpg,/static/Category_learning/Stimuli/Experimental_stims/microscope/usbdigitalmicroscope1_small1.jpg,/static/Category_learning/Stimuli/Experimental_stims/pen/pen01.jpg,0.0,pen,microscope,20.0,80.0,pen11,microscope12,0.0,60.0,0.0,73.0,0.684,,,,,,
90,,confirmation,,html-keyboard-response,90,204224,0.0-1.0-17.0-0.1-1.1-0.1,0,0,10,,,,,,15.0,,,,,1.0,,,,,,,,,,,,,,,,,,,,,,,,,,,73.684,0.816,,,,,,
91,,isi,,html-keyboard-response,91,205228,0.0-1.0-17.0-0.1-2.1,0,0,10,,,,,,15.0,,,,,1.0,,,,,,,,,,,,,,,,,,,,,,,,,,,74.5,1.0,,,,,,
92,,feedback,,html-keyboard-response,92,206235,0.0-1.0-17.0-0.1-3.1-0.1,0,0,10,,,,,,15.0,,,,,1.0,,,,,,,,,,,,,,,,,,,,,,,,,,,75.5,1.0,,,,,,
93,,iti,,html-keyboard-response,93,208241,0.0-1.0-17.0-0.1-5.1,0,0,10,,,,,,15.0,,,,,1.0,,,,,,,,,,,,,,,,,,,,,,,,,,,76.5,2.0,,,,,,
94,,choice,,html-keyboard-response,94,209750,0.0-1.0-18.0-0.0-0.0,0,0,10,,,,,,16.0,16.0,1000.0,1000.0,0.0,1.0,0.0,20-40,,0.0,poker card,yarn,20.0,40.0,poker card3,yarn4,0.0,40.0,9817131.thl.jpg,amethyst dreaming boho hy sml.jpg,/static/Category_learning/Stimuli/Experimental_stims/poker card/9817131.thl.jpg,/static/Category_learning/Stimuli/Experimental_stims/yarn/amethyst dreaming boho hy sml.jpg,,,,,,,,,,1.0,78.5,1.5,,,,,,
95,,isi,,html-keyboard-response,95,210758,0.0-1.0-18.0-0.0-2.0,0,0,10,,,,,,16.0,,,,,1.0,,,,,,,,,,,,,,,,,,,,,,,,,,,80.0,1.0,,,,,,
96,,no_response,,html-keyboard-response,96,211766,0.0-1.0-18.0-0.0-4.0-0.0,0,0,10,,,,,,16.0,,,,,1.0,,,,,,,,,,,,,,,,,,,,,,,,,,,81.0,1.0,,,,,,
97,,iti,,html-keyboard-response,97,212785,0.0-1.0-18.0-0.0-5.0,0,0,10,,,,,,16.0,,,,,1.0,,,,,,,,,,,,,,,,,,,,,,,,,,,82.0,1.0,,,,,,
98,,choice,,html-keyboard-response,98,213293,0.0-1.0-18.0-0.1-0.1,0,0,10,,504.0,,,50.0,16.0,16.0,1000.0,1000.0,0.0,1.0,0.0,20-40,,0.0,poker card,yarn,20.0,40.0,poker card3,yarn4,0.0,40.0,9817131.thl.jpg,amethyst dreaming boho hy sml.jpg,/static/Category_learning/Stimuli/Experimental_stims/poker card/9817131.thl.jpg,/static/Category_learning/Stimuli/Experimental_stims/yarn/amethyst dreaming boho hy sml.jpg,1.0,poker card,yarn,20.0,40.0,poker card3,yarn4,0.0,40.0,0.0,83.0,0.504,,,,,,
99,,confirmation,,html-keyboard-response,99,214293,0.0-1.0-18.0-0.1-1.1-0.1,0,0,10,,,,,,16.0,,,,,1.0,,,,,,,,,,,,,,,,,,,,,,,,,,,83.504,0.996,,,,,,
100,,isi,,html-keyboard-response,100,215300,0.0-1.0-18.0-0.1-2.1,0,0,10,,,,,,16.0,,,,,1.0,,,,,,,,,,,,,,,,,,,,,,,,,,,84.5,1.0,,,,,,
101,,feedback,,html-keyboard-response,101,216305,0.0-1.0-18.0-0.1-3.1-0.1,0,0,10,,,,,,16.0,,,,,1.0,,,,,,,,,,,,,,,,,,,,,,,,,,,85.5,1.0,,,,,,
102,,iti,,html-keyboard-response,102,218310,0.0-1.0-18.0-0.1-5.1,0,0,10,,,,,,16.0,,,,,1.0,,,,,,,,,,,,,,,,,,,,,,,,,,,86.5,2.0,,,,,,
103,,choice,,html-keyboard-response,103,219814,0.0-1.0-19.0-0.0-0.0,0,0,10,,,,,,17.0,17.0,3500.0,1000.0,0.0,1.0,0.0,40-80,,0.0,trumpet,microscope,40.0,80.0,trumpet11,microscope8,20.0,80.0,JUPITER+JTR604L.jpg,AMICROS21.jpg,/static/Category_learning/Stimuli/Experimental_stims/trumpet/JUPITER+JTR604L.jpg,/static/Category_learning/Stimuli/Experimental_stims/microscope/AMICROS21.jpg,,,,,,,,,,1.0,88.5,1.5,,,,,,
104,,isi,,html-keyboard-response,104,223318,0.0-1.0-19.0-0.0-2.0,0,0,10,,,,,,17.0,,,,,1.0,,,,,,,,,,,,,,,,,,,,,,,,,,,90.0,3.5,,,,,,
105,,no_response,,html-keyboard-response,105,224326,0.0-1.0-19.0-0.0-4.0-0.0,0,0,10,,,,,,17.0,,,,,1.0,,,,,,,,,,,,,,,,,,,,,,,,,,,93.5,1.0,,,,,,
106,,iti,,html-keyboard-response,106,225345,0.0-1.0-19.0-0.0-5.0,0,0,10,,,,,,17.0,,,,,1.0,,,,,,,,,,,,,,,,,,,,,,,,,,,94.5,1.0,,,,,,
107,,choice,,html-keyboard-response,107,225870,0.0-1.0-19.0-0.1-0.1,0,0,10,,520.0,,,51.0,17.0,17.0,3500.0,1000.0,0.0,1.0,0.0,40-80,,0.0,trumpet,microscope,40.0,80.0,trumpet11,microscope8,20.0,80.0,JUPITER+JTR604L.jpg,AMICROS21.jpg,/static/Category_learning/Stimuli/Experimental_stims/trumpet/JUPITER+JTR604L.jpg,/static/Category_learning/Stimuli/Experimental_stims/microscope/AMICROS21.jpg,0.0,microscope,trumpet,80.0,40.0,microscope8,trumpet11,80.0,20.0,0.0,95.5,0.52,,,,,,
108,,confirmation,,html-keyboard-response,108,226855,0.0-1.0-19.0-0.1-1.1-0.1,0,0,10,,,,,,17.0,,,,,1.0,,,,,,,,,,,,,,,,,,,,,,,,,,,96.02,0.98,,,,,,
109,,isi,,html-keyboard-response,109,230359,0.0-1.0-19.0-0.1-2.1,0,0,10,,,,,,17.0,,,,,1.0,,,,,,,,,,,,,,,,,,,,,,,,,,,97.0,3.5,,,,,,
110,,feedback,,html-keyboard-response,110,231366,0.0-1.0-19.0-0.1-3.1-0.1,0,0,10,,,,,,17.0,,,,,1.0,,,,,,,,,,,,,,,,,,,,,,,,,,,100.5,1.0,,,,,,
111,,iti,,html-keyboard-response,111,232871,0.0-1.0-19.0-0.1-5.1,0,0,10,,,,,,17.0,,,,,1.0,,,,,,,,,,,,,,,,,,,,,,,,,,,101.5,1.5,,,,,,
112,,choice,,html-keyboard-response,112,233608,0.0-1.0-20.0-0.0-0.0,0,0,10,,734.0,,,51.0,18.0,18.0,1500.0,1000.0,0.0,1.0,0.0,60-80,,0.0,baby carriage,hammer,60.0,80.0,baby carriage5,hammer8,80.0,80.0,Baby_Stroller.jpg,ct1006_hammer.jpg,/static/Category_learning/Stimuli/Experimental_stims/baby carriage/Baby_Stroller.jpg,/static/Category_learning/Stimuli/Experimental_stims/hammer/ct1006_hammer.jpg,0.0,hammer,baby carriage,80.0,60.0,hammer8,baby carriage5,80.0,80.0,0.0,103.0,0.734,,,,,,
113,,confirmation,,html-keyboard-response,113,234380,0.0-1.0-20.0-0.0-1.0-0.0,0,0,10,,,,,,18.0,,,,,1.0,,,,,,,,,,,,,,,,,,,,,,,,,,,103.734,0.766,,,,,,
114,,isi,,html-keyboard-response,114,235884,0.0-1.0-20.0-0.0-2.0,0,0,10,,,,,,18.0,,,,,1.0,,,,,,,,,,,,,,,,,,,,,,,,,,,104.5,1.5,,,,,,
115,,feedback,,html-keyboard-response,115,236892,0.0-1.0-20.0-0.0-3.0-0.0,0,0,10,,,,,,18.0,,,,,1.0,,,,,,,,,,,,,,,,,,,,,,,,,,,106.0,1.0,,,,,,
116,,iti,,html-keyboard-response,116,237900,0.0-1.0-20.0-0.0-5.0,0,0,10,,,,,,18.0,,,,,1.0,,,,,,,,,,,,,,,,,,,,,,,,,,,107.0,1.0,,,,,,
117,,choice,,html-keyboard-response,117,239407,0.0-1.0-21.0-0.0-0.0,0,0,10,,,,,,19.0,19.0,1500.0,3500.0,0.0,1.0,0.0,60-60,,,fan,flashlight,60.0,60.0,fan6,flashlight1,60.0,40.0,30090.fpx.jpg,Graphite3D.jpg,/static/Category_learning/Stimuli/Experimental_stims/fan/30090.fpx.jpg,/static/Category_learning/Stimuli/Experimental_stims/flashlight/Graphite3D.jpg,,,,,,,,,,1.0,108.0,1.5,,,,,,
118,,isi,,html-keyboard-response,118,240913,0.0-1.0-21.0-0.0-2.0,0,0,10,,,,,,19.0,,,,,1.0,,,,,,,,,,,,,,,,,,,,,,,,,,,109.5,1.5,,,,,,
119,,no_response,,html-keyboard-response,119,241921,0.0-1.0-21.0-0.0-4.0-0.0,0,0,10,,,,,,19.0,,,,,1.0,,,,,,,,,,,,,,,,,,,,,,,,,,,111.0,1.0,,,,,,
120,,iti,,html-keyboard-response,120,245444,0.0-1.0-21.0-0.0-5.0,0,0,10,,,,,,19.0,,,,,1.0,,,,,,,,,,,,,,,,,,,,,,,,,,,112.0,3.5,,,,,,
121,,choice,,html-keyboard-response,121,245825,0.0-1.0-21.0-0.1-0.1,0,0,10,,377.0,,,51.0,19.0,19.0,1500.0,3500.0,0.0,1.0,0.0,60-60,,,fan,flashlight,60.0,60.0,fan6,flashlight1,60.0,40.0,30090.fpx.jpg,Graphite3D.jpg,/static/Category_learning/Stimuli/Experimental_stims/fan/30090.fpx.jpg,/static/Category_learning/Stimuli/Experimental_stims/flashlight/Graphite3D.jpg,0.0,flashlight,fan,60.0,60.0,flashlight1,fan6,40.0,60.0,0.0,115.5,0.377,,,,,,
122,,confirmation,,html-keyboard-response,122,246956,0.0-1.0-21.0-0.1-1.1-0.1,0,0,10,,,,,,19.0,,,,,1.0,,,,,,,,,,,,,,,,,,,,,,,,,,,115.877,1.123,,,,,,
123,,isi,,html-keyboard-response,123,247963,0.0-1.0-21.0-0.1-2.1,0,0,10,,,,,,19.0,,,,,1.0,,,,,,,,,,,,,,,,,,,,,,,,,,,117.0,1.0,,,,,,
124,,feedback,,html-keyboard-response,124,248972,0.0-1.0-21.0-0.1-3.1-0.1,0,0,10,,,,,,19.0,,,,,1.0,,,,,,,,,,,,,,,,,,,,,,,,,,,118.0,1.0,,,,,,
125,,iti,,html-keyboard-response,125,250977,0.0-1.0-21.0-0.1-5.1,0,0,10,,,,,,19.0,,,,,1.0,,,,,,,,,,,,,,,,,,,,,,,,,,,119.0,2.0,,,,,,
126,,choice,,html-keyboard-response,126,252486,0.0-1.0-22.0-0.0-0.0,0,0,10,,,,,,20.0,20.0,1000.0,1000.0,0.0,1.0,0.0,20-80,,1.0,frame,patio lounge chair,80.0,20.0,frame11,patio lounge chair9,100.0,20.0,AFRAME139.jpg,43-3.jpg,/static/Category_learning/Stimuli/Experimental_stims/frame/AFRAME139.jpg,/static/Category_learning/Stimuli/Experimental_stims/patio lounge chair/43-3.jpg,,,,,,,,,,1.0,121.0,1.5,,,,,,
127,,isi,,html-keyboard-response,127,253494,0.0-1.0-22.0-0.0-2.0,0,0,10,,,,,,20.0,,,,,1.0,,,,,,,,,,,,,,,,,,,,,,,,,,,122.5,1.0,,,,,,
128,,no_response,,html-keyboard-response,128,254503,0.0-1.0-22.0-0.0-4.0-0.0,0,0,10,,,,,,20.0,,,,,1.0,,,,,,,,,,,,,,,,,,,,,,,,,,,123.5,1.0,,,,,,
129,,iti,,html-keyboard-response,129,255521,0.0-1.0-22.0-0.0-5.0,0,0,10,,,,,,20.0,,,,,1.0,,,,,,,,,,,,,,,,,,,,,,,,,,,124.5,1.0,,,,,,
130,,choice,,html-keyboard-response,130,256056,0.0-1.0-22.0-0.1-0.1,0,0,10,,532.0,,,51.0,20.0,20.0,1000.0,1000.0,0.0,1.0,0.0,20-80,,1.0,frame,patio lounge chair,80.0,20.0,frame11,patio lounge chair9,100.0,20.0,AFRAME139.jpg,43-3.jpg,/static/Category_learning/Stimuli/Experimental_stims/frame/AFRAME139.jpg,/static/Category_learning/Stimuli/Experimental_stims/patio lounge chair/43-3.jpg,0.0,patio lounge chair,frame,20.0,80.0,patio lounge chair9,frame11,20.0,100.0,0.0,125.5,0.532,,,,,,
131,,confirmation,,html-keyboard-response,131,257032,0.0-1.0-22.0-0.1-1.1-0.1,0,0,10,,,,,,20.0,,,,,1.0,,,,,,,,,,,,,,,,,,,,,,,,,,,126.032,0.968,,,,,,
132,,isi,,html-keyboard-response,132,258540,0.0-1.0-22.0-0.1-2.1,0,0,10,,,,,,20.0,,,,,1.0,,,,,,,,,,,,,,,,,,,,,,,,,,,127.0,1.5,,,,,,
133,,feedback,,html-keyboard-response,133,259548,0.0-1.0-22.0-0.1-3.1-0.1,0,0,10,,,,,,20.0,,,,,1.0,,,,,,,,,,,,,,,,,,,,,,,,,,,128.5,1.0,,,,,,
134,,iti,,html-keyboard-response,134,261053,0.0-1.0-22.0-0.1-5.1,0,0,10,,,,,,20.0,,,,,1.0,,,,,,,,,,,,,,,,,,,,,,,,,,,129.5,1.5,,,,,,
135,,choice,,html-keyboard-response,135,261392,0.0-1.0-23.0-0.0-0.0,0,0,10,,335.0,,,50.0,21.0,21.0,2000.0,1000.0,0.0,1.0,0.0,40-80,,0.0,telescope,license plate,40.0,80.0,telescope11,license plate14,40.0,100.0,digimarc.ms03.jpg,fl-hel-bel.jpg,/static/Category_learning/Stimuli/Experimental_stims/telescope/digimarc.ms03.jpg,/static/Category_learning/Stimuli/Experimental_stims/license plate/fl-hel-bel.jpg,1.0,telescope,license plate,40.0,80.0,telescope11,license plate14,40.0,100.0,0.0,131.0,0.335,,,,,,
136,,confirmation,,html-keyboard-response,136,262564,0.0-1.0-23.0-0.0-1.0-0.0,0,0,10,,,,,,21.0,,,,,1.0,,,,,,,,,,,,,,,,,,,,,,,,,,,131.335,1.165,,,,,,
137,,isi,,html-keyboard-response,137,264572,0.0-1.0-23.0-0.0-2.0,0,0,10,,,,,,21.0,,,,,1.0,,,,,,,,,,,,,,,,,,,,,,,,,,,132.5,2.0,,,,,,
138,,feedback,,html-keyboard-response,138,265580,0.0-1.0-23.0-0.0-3.0-0.0,0,0,10,,,,,,21.0,,,,,1.0,,,,,,,,,,,,,,,,,,,,,,,,,,,134.5,1.0,,,,,,
139,,iti,,html-keyboard-response,139,266588,0.0-1.0-23.0-0.0-5.0,0,0,10,,,,,,21.0,,,,,1.0,,,,,,,,,,,,,,,,,,,,,,,,,,,135.5,1.0,,,,,,
140,,choice,,html-keyboard-response,140,267017,0.0-1.0-24.0-0.0-0.0,0,0,10,,424.0,,,51.0,22.0,22.0,1000.0,1500.0,0.0,1.0,1.0,20-20,1.0,,poker card,poker card,20.0,20.0,poker card3,poker card8,0.0,20.0,9817131.thl.jpg,22864392.thl.jpg,/static/Category_learning/Stimuli/Experimental_stims/poker card/9817131.thl.jpg,/static/Category_learning/Stimuli/Experimental_stims/poker card/22864392.thl.jpg,0.0,poker card,poker card,20.0,20.0,poker card8,poker card3,20.0,0.0,0.0,136.5,0.424,,,,,,
141,,confirmation,,html-keyboard-response,141,268098,0.0-1.0-24.0-0.0-1.0-0.0,0,0,10,,,,,,22.0,,,,,1.0,,,,,,,,,,,,,,,,,,,,,,,,,,,136.924,1.076,,,,,,
142,,isi,,html-keyboard-response,142,269106,0.0-1.0-24.0-0.0-2.0,0,0,10,,,,,,22.0,,,,,1.0,,,,,,,,,,,,,,,,,,,,,,,,,,,138.0,1.0,,,,,,
143,,feedback,,html-keyboard-response,143,270114,0.0-1.0-24.0-0.0-3.0-0.0,0,0,10,,,,,,22.0,,,,,1.0,,,,,,,,,,,,,,,,,,,,,,,,,,,139.0,1.0,,,,,,
144,,iti,,html-keyboard-response,144,271620,0.0-1.0-24.0-0.0-5.0,0,0,10,,,,,,22.0,,,,,1.0,,,,,,,,,,,,,,,,,,,,,,,,,,,140.0,1.5,,,,,,
145,,choice,,html-keyboard-response,145,272007,0.0-1.0-25.0-0.0-0.0,0,0,10,,383.0,,,51.0,23.0,23.0,1000.0,1500.0,0.0,1.0,0.0,40-80,,1.0,license plate,train,80.0,40.0,license plate9,train6,60.0,20.0,nm-dhg089.jpg,train9.jpg,/static/Category_learning/Stimuli/Experimental_stims/license plate/nm-dhg089.jpg,/static/Category_learning/Stimuli/Experimental_stims/train/train9.jpg,0.0,train,license plate,40.0,80.0,train6,license plate9,20.0,60.0,0.0,141.5,0.383,,,,,,
146,,confirmation,,html-keyboard-response,146,273132,0.0-1.0-25.0-0.0-1.0-0.0,0,0,10,,,,,,23.0,,,,,1.0,,,,,,,,,,,,,,,,,,,,,,,,,,,141.883,1.117,,,,,,
147,,isi,,html-keyboard-response,147,274140,0.0-1.0-25.0-0.0-2.0,0,0,10,,,,,,23.0,,,,,1.0,,,,,,,,,,,,,,,,,,,,,,,,,,,143.0,1.0,,,,,,
148,,feedback,,html-keyboard-response,148,275148,0.0-1.0-25.0-0.0-3.0-0.0,0,0,10,,,,,,23.0,,,,,1.0,,,,,,,,,,,,,,,,,,,,,,,,,,,144.0,1.0,,,,,,
149,,iti,,html-keyboard-response,149,276653,0.0-1.0-25.0-0.0-5.0,0,0,10,,,,,,23.0,,,,,1.0,,,,,,,,,,,,,,,,,,,,,,,,,,,145.0,1.5,,,,,,
150,,choice,,html-keyboard-response,150,276971,0.0-1.0-26.0-0.0-0.0,0,0,10,,315.0,,,51.0,24.0,24.0,2000.0,1500.0,0.0,1.0,1.0,40-40,1.0,,telescope,telescope,40.0,40.0,telescope11,telescope1,40.0,20.0,digimarc.ms03.jpg,celestron nexstar 114 gt reflector telescope.jpg,/static/Category_learning/Stimuli/Experimental_stims/telescope/digimarc.ms03.jpg,/static/Category_learning/Stimuli/Experimental_stims/telescope/celestron nexstar 114 gt reflector telescope.jpg,0.0,telescope,telescope,40.0,40.0,telescope1,telescope11,20.0,40.0,0.0,146.5,0.315,,,,,,
151,,confirmation,,html-keyboard-response,151,278162,0.0-1.0-26.0-0.0-1.0-0.0,0,0,10,,,,,,24.0,,,,,1.0,,,,,,,,,,,,,,,,,,,,,,,,,,,146.815,1.185,,,,,,
152,,isi,,html-keyboard-response,152,280167,0.0-1.0-26.0-0.0-2.0,0,0,10,,,,,,24.0,,,,,1.0,,,,,,,,,,,,,,,,,,,,,,,,,,,148.0,2.0,,,,,,
153,,feedback,,html-keyboard-response,153,281175,0.0-1.0-26.0-0.0-3.0-0.0,0,0,10,,,,,,24.0,,,,,1.0,,,,,,,,,,,,,,,,,,,,,,,,,,,150.0,1.0,,,,,,
154,,iti,,html-keyboard-response,154,282679,0.0-1.0-26.0-0.0-5.0,0,0,10,,,,,,24.0,,,,,1.0,,,,,,,,,,,,,,,,,,,,,,,,,,,151.0,1.5,,,,,,
155,,choice,,html-keyboard-response,155,283051,0.0-1.0-27.0-0.0-0.0,0,0,10,,367.0,,,50.0,25.0,25.0,1500.0,2000.0,0.0,1.0,0.0,40-60,,0.0,trumpet,flashlight,40.0,60.0,trumpet4,flashlight2,20.0,60.0,JUPITER+JTR1000S.jpg,AV-9 No Battery Flashlight.jpg,/static/Category_learning/Stimuli/Experimental_stims/trumpet/JUPITER+JTR1000S.jpg,/static/Category_learning/Stimuli/Experimental_stims/flashlight/AV-9 No Battery Flashlight.jpg,1.0,trumpet,flashlight,40.0,60.0,trumpet4,flashlight2,20.0,60.0,0.0,152.5,0.367,,,,,,
156,,confirmation,,html-keyboard-response,156,284188,0.0-1.0-27.0-0.0-1.0-0.0,0,0,10,,,,,,25.0,,,,,1.0,,,,,,,,,,,,,,,,,,,,,,,,,,,152.867,1.133,,,,,,
157,,isi,,html-keyboard-response,157,285697,0.0-1.0-27.0-0.0-2.0,0,0,10,,,,,,25.0,,,,,1.0,,,,,,,,,,,,,,,,,,,,,,,,,,,154.0,1.5,,,,,,
158,,feedback,,html-keyboard-response,158,286706,0.0-1.0-27.0-0.0-3.0-0.0,0,0,10,,,,,,25.0,,,,,1.0,,,,,,,,,,,,,,,,,,,,,,,,,,,155.5,1.0,,,,,,
159,,iti,,html-keyboard-response,159,288711,0.0-1.0-27.0-0.0-5.0,0,0,10,,,,,,25.0,,,,,1.0,,,,,,,,,,,,,,,,,,,,,,,,,,,156.5,2.0,,,,,,
160,,choice,,html-keyboard-response,160,289055,0.0-1.0-28.0-0.0-0.0,0,0,10,,339.0,,,51.0,26.0,26.0,1500.0,3000.0,0.0,1.0,0.0,40-60,,0.0,stool,bowl,40.0,60.0,stool9,bowl8,40.0,40.0,ASTOOL7.jpg,ASLVBOWL.jpg,/static/Category_learning/Stimuli/Experimental_stims/stool/ASTOOL7.jpg,/static/Category_learning/Stimuli/Experimental_stims/bowl/ASLVBOWL.jpg,0.0,bowl,stool,60.0,40.0,bowl8,stool9,40.0,40.0,0.0,158.5,0.339,,,,,,
161,,confirmation,,html-keyboard-response,161,290220,0.0-1.0-28.0-0.0-1.0-0.0,0,0,10,,,,,,26.0,,,,,1.0,,,,,,,,,,,,,,,,,,,,,,,,,,,158.839,1.161,,,,,,
162,,isi,,html-keyboard-response,162,291725,0.0-1.0-28.0-0.0-2.0,0,0,10,,,,,,26.0,,,,,1.0,,,,,,,,,,,,,,,,,,,,,,,,,,,160.0,1.5,,,,,,
163,,feedback,,html-keyboard-response,163,292732,0.0-1.0-28.0-0.0-3.0-0.0,0,0,10,,,,,,26.0,,,,,1.0,,,,,,,,,,,,,,,,,,,,,,,,,,,161.5,1.0,,,,,,
164,,iti,,html-keyboard-response,164,295741,0.0-1.0-28.0-0.0-5.0,0,0,10,,,,,,26.0,,,,,1.0,,,,,,,,,,,,,,,,,,,,,,,,,,,162.5,3.0,,,,,,
165,,choice,,html-keyboard-response,165,296157,0.0-1.0-29.0-0.0-0.0,0,0,10,,411.0,,,51.0,27.0,27.0,1000.0,1000.0,0.0,1.0,0.0,80-80,,,key chain,lipstick,80.0,80.0,key chain8,lipstick5,100.0,80.0,Keychain01.jpg,P35719_hero.jpg,/static/Category_learning/Stimuli/Experimental_stims/key chain/Keychain01.jpg,/static/Category_learning/Stimuli/Experimental_stims/lipstick/P35719_hero.jpg,0.0,lipstick,key chain,80.0,80.0,lipstick5,key chain8,80.0,100.0,0.0,165.5,0.411,,,,,,
166,,confirmation,,html-keyboard-response,166,297254,0.0-1.0-29.0-0.0-1.0-0.0,0,0,10,,,,,,27.0,,,,,1.0,,,,,,,,,,,,,,,,,,,,,,,,,,,165.911,1.089,,,,,,
167,,isi,,html-keyboard-response,167,298258,0.0-1.0-29.0-0.0-2.0,0,0,10,,,,,,27.0,,,,,1.0,,,,,,,,,,,,,,,,,,,,,,,,,,,167.0,1.0,,,,,,
168,,feedback,,html-keyboard-response,168,299266,0.0-1.0-29.0-0.0-3.0-0.0,0,0,10,,,,,,27.0,,,,,1.0,,,,,,,,,,,,,,,,,,,,,,,,,,,168.0,1.0,,,,,,
169,,iti,,html-keyboard-response,169,300274,0.0-1.0-29.0-0.0-5.0,0,0,10,,,,,,27.0,,,,,1.0,,,,,,,,,,,,,,,,,,,,,,,,,,,169.0,1.0,,,,,,
170,,choice,,html-keyboard-response,170,300787,0.0-1.0-30.0-0.0-0.0,0,0,10,,510.0,,,50.0,28.0,28.0,3500.0,1500.0,0.0,1.0,0.0,60-60,,,bench,desk,60.0,60.0,bench7,desk5,40.0,80.0,ACONBENCH.jpg,ADESK6.jpg,/static/Category_learning/Stimuli/Experimental_stims/bench/ACONBENCH.jpg,/static/Category_learning/Stimuli/Experimental_stims/desk/ADESK6.jpg,1.0,bench,desk,60.0,60.0,bench7,desk5,40.0,80.0,0.0,170.0,0.51,,,,,,
171,,confirmation,,html-keyboard-response,171,301783,0.0-1.0-30.0-0.0-1.0-0.0,0,0,10,,,,,,28.0,,,,,1.0,,,,,,,,,,,,,,,,,,,,,,,,,,,170.51,0.99,,,,,,
172,,isi,,html-keyboard-response,172,305288,0.0-1.0-30.0-0.0-2.0,0,0,10,,,,,,28.0,,,,,1.0,,,,,,,,,,,,,,,,,,,,,,,,,,,171.5,3.5,,,,,,
173,,feedback,,html-keyboard-response,173,306296,0.0-1.0-30.0-0.0-3.0-0.0,0,0,10,,,,,,28.0,,,,,1.0,,,,,,,,,,,,,,,,,,,,,,,,,,,175.0,1.0,,,,,,
174,,iti,,html-keyboard-response,174,307800,0.0-1.0-30.0-0.0-5.0,0,0,10,,,,,,28.0,,,,,1.0,,,,,,,,,,,,,,,,,,,,,,,,,,,176.0,1.5,,,,,,
175,,choice,,html-keyboard-response,175,308195,0.0-1.0-31.0-0.0-0.0,0,0,10,,390.0,,,51.0,29.0,29.0,2000.0,1000.0,0.0,1.0,1.0,60-60,1.0,,bowl,bowl,60.0,60.0,bowl14,bowl8,60.0,40.0,Aredglassbowl.jpg,ASLVBOWL.jpg,/static/Category_learning/Stimuli/Experimental_stims/bowl/Aredglassbowl.jpg,/static/Category_learning/Stimuli/Experimental_stims/bowl/ASLVBOWL.jpg,0.0,bowl,bowl,60.0,60.0,bowl8,bowl14,40.0,60.0,0.0,177.5,0.39,,,,,,
176,,confirmation,,html-keyboard-response,176,309309,0.0-1.0-31.0-0.0-1.0-0.0,0,0,10,,,,,,29.0,,,,,1.0,,,,,,,,,,,,,,,,,,,,,,,,,,,177.89,1.11,,,,,,
177,,isi,,html-keyboard-response,177,311314,0.0-1.0-31.0-0.0-2.0,0,0,10,,,,,,29.0,,,,,1.0,,,,,,,,,,,,,,,,,,,,,,,,,,,179.0,2.0,,,,,,
178,,feedback,,html-keyboard-response,178,312322,0.0-1.0-31.0-0.0-3.0-0.0,0,0,10,,,,,,29.0,,,,,1.0,,,,,,,,,,,,,,,,,,,,,,,,,,,181.0,1.0,,,,,,
179,,iti,,html-keyboard-response,179,313330,0.0-1.0-31.0-0.0-5.0,0,0,10,,,,,,29.0,,,,,1.0,,,,,,,,,,,,,,,,,,,,,,,,,,,182.0,1.0,,,,,,
180,,choice,,html-keyboard-response,180,313716,0.0-1.0-32.0-0.0-0.0,0,0,10,,381.0,,,50.0,30.0,30.0,2000.0,3500.0,0.0,1.0,0.0,40-60,,0.0,stool,dresser,40.0,60.0,stool10,dresser12,60.0,60.0,ASTOOL26.jpg,ADRESSE58.jpg,/static/Category_learning/Stimuli/Experimental_stims/stool/ASTOOL26.jpg,/static/Category_learning/Stimuli/Experimental_stims/dresser/ADRESSE58.jpg,1.0,stool,dresser,40.0,60.0,stool10,dresser12,60.0,60.0,0.0,183.0,0.381,,,,,,
181,,confirmation,,html-keyboard-response,181,314843,0.0-1.0-32.0-0.0-1.0-0.0,0,0,10,,,,,,30.0,,,,,1.0,,,,,,,,,,,,,,,,,,,,,,,,,,,183.381,1.119,,,,,,
182,,isi,,html-keyboard-response,182,316851,0.0-1.0-32.0-0.0-2.0,0,0,10,,,,,,30.0,,,,,1.0,,,,,,,,,,,,,,,,,,,,,,,,,,,184.5,2.0,,,,,,
183,,feedback,,html-keyboard-response,183,317858,0.0-1.0-32.0-0.0-3.0-0.0,0,0,10,,,,,,30.0,,,,,1.0,,,,,,,,,,,,,,,,,,,,,,,,,,,186.5,1.0,,,,,,
184,,iti,,html-keyboard-response,184,321363,0.0-1.0-32.0-0.0-5.0,0,0,10,,,,,,30.0,,,,,1.0,,,,,,,,,,,,,,,,,,,,,,,,,,,187.5,3.5,,,,,,
185,,choice,,html-keyboard-response,185,321740,0.0-1.0-33.0-0.0-0.0,0,0,10,,372.0,,,51.0,31.0,31.0,2000.0,2000.0,0.0,1.0,1.0,60-80,0.0,,flashlight,hammer,60.0,80.0,flashlight1,hammer8,40.0,80.0,Graphite3D.jpg,ct1006_hammer.jpg,/static/Category_learning/Stimuli/Experimental_stims/flashlight/Graphite3D.jpg,/static/Category_learning/Stimuli/Experimental_stims/hammer/ct1006_hammer.jpg,0.0,hammer,flashlight,80.0,60.0,hammer8,flashlight1,80.0,40.0,0.0,191.0,0.372,,,,,,
186,,confirmation,,html-keyboard-response,186,322875,0.0-1.0-33.0-0.0-1.0-0.0,0,0,10,,,,,,31.0,,,,,1.0,,,,,,,,,,,,,,,,,,,,,,,,,,,191.372,1.128,,,,,,
187,,isi,,html-keyboard-response,187,324882,0.0-1.0-33.0-0.0-2.0,0,0,10,,,,,,31.0,,,,,1.0,,,,,,,,,,,,,,,,,,,,,,,,,,,192.5,2.0,,,,,,
188,,feedback,,html-keyboard-response,188,325891,0.0-1.0-33.0-0.0-3.0-0.0,0,0,10,,,,,,31.0,,,,,1.0,,,,,,,,,,,,,,,,,,,,,,,,,,,194.5,1.0,,,,,,
189,,iti,,html-keyboard-response,189,327896,0.0-1.0-33.0-0.0-5.0,0,0,10,,,,,,31.0,,,,,1.0,,,,,,,,,,,,,,,,,,,,,,,,,,,195.5,2.0,,,,,,
190,,choice,,html-keyboard-response,190,328360,0.0-1.0-34.0-0.0-0.0,0,0,10,,459.0,,,51.0,32.0,32.0,1500.0,2000.0,0.0,1.0,0.0,40-40,,,stool,tape,40.0,40.0,stool8,tape9,60.0,40.0,ASTOOL33.jpg,desk tape disp.jpg,/static/Category_learning/Stimuli/Experimental_stims/stool/ASTOOL33.jpg,/static/Category_learning/Stimuli/Experimental_stims/tape/desk tape disp.jpg,0.0,tape,stool,40.0,40.0,tape9,stool8,40.0,60.0,0.0,197.5,0.459,,,,,,
191,,confirmation,,html-keyboard-response,191,329411,0.0-1.0-34.0-0.0-1.0-0.0,0,0,10,,,,,,32.0,,,,,1.0,,,,,,,,,,,,,,,,,,,,,,,,,,,197.959,1.041,,,,,,
192,,isi,,html-keyboard-response,192,330915,0.0-1.0-34.0-0.0-2.0,0,0,10,,,,,,32.0,,,,,1.0,,,,,,,,,,,,,,,,,,,,,,,,,,,199.0,1.5,,,,,,
193,,feedback,,html-keyboard-response,193,331923,0.0-1.0-34.0-0.0-3.0-0.0,0,0,10,,,,,,32.0,,,,,1.0,,,,,,,,,,,,,,,,,,,,,,,,,,,200.5,1.0,,,,,,
194,,iti,,html-keyboard-response,194,333928,0.0-1.0-34.0-0.0-5.0,0,0,10,,,,,,32.0,,,,,1.0,,,,,,,,,,,,,,,,,,,,,,,,,,,201.5,2.0,,,,,,
195,,choice,,html-keyboard-response,195,334367,0.0-1.0-35.0-0.0-0.0,0,0,10,,434.0,,,51.0,33.0,33.0,1000.0,3000.0,0.0,1.0,0.0,40-40,,,yarn,tent,40.0,40.0,yarn10,tent5,60.0,60.0,revelation-yarn.jpg,Dome Tentnb87r67.jpg,/static/Category_learning/Stimuli/Experimental_stims/yarn/revelation-yarn.jpg,/static/Category_learning/Stimuli/Experimental_stims/tent/Dome Tentnb87r67.jpg,0.0,tent,yarn,40.0,40.0,tent5,yarn10,60.0,60.0,0.0,203.5,0.434,,,,,,
196,,confirmation,,html-keyboard-response,196,335438,0.0-1.0-35.0-0.0-1.0-0.0,0,0,10,,,,,,33.0,,,,,1.0,,,,,,,,,,,,,,,,,,,,,,,,,,,203.934,1.066,,,,,,
197,,isi,,html-keyboard-response,197,336446,0.0-1.0-35.0-0.0-2.0,0,0,10,,,,,,33.0,,,,,1.0,,,,,,,,,,,,,,,,,,,,,,,,,,,205.0,1.0,,,,,,
198,,feedback,,html-keyboard-response,198,337453,0.0-1.0-35.0-0.0-3.0-0.0,0,0,10,,,,,,33.0,,,,,1.0,,,,,,,,,,,,,,,,,,,,,,,,,,,206.0,1.0,,,,,,
199,,iti,,html-keyboard-response,199,340461,0.0-1.0-35.0-0.0-5.0,0,0,10,,,,,,33.0,,,,,1.0,,,,,,,,,,,,,,,,,,,,,,,,,,,207.0,3.0,,,,,,
200,,choice,,html-keyboard-response,200,340806,0.0-1.0-36.0-0.0-0.0,0,0,10,,339.0,,,50.0,34.0,34.0,1000.0,1500.0,0.0,1.0,0.0,20-20,,,pen,nail polish,20.0,20.0,pen2,nail polish3,20.0,40.0,Montblanc-Blu-Starwalker-BP copy.jpg,327636.jpg,/static/Category_learning/Stimuli/Experimental_stims/pen/Montblanc-Blu-Starwalker-BP copy.jpg,/static/Category_learning/Stimuli/Experimental_stims/nail polish/327636.jpg,1.0,pen,nail polish,20.0,20.0,pen2,nail polish3,20.0,40.0,0.0,210.0,0.339,,,,,,
201,,confirmation,,html-keyboard-response,201,341971,0.0-1.0-36.0-0.0-1.0-0.0,0,0,10,,,,,,34.0,,,,,1.0,,,,,,,,,,,,,,,,,,,,,,,,,,,210.339,1.161,,,,,,
202,,isi,,html-keyboard-response,202,342979,0.0-1.0-36.0-0.0-2.0,0,0,10,,,,,,34.0,,,,,1.0,,,,,,,,,,,,,,,,,,,,,,,,,,,211.5,1.0,,,,,,
203,,feedback,,html-keyboard-response,203,343987,0.0-1.0-36.0-0.0-3.0-0.0,0,0,10,,,,,,34.0,,,,,1.0,,,,,,,,,,,,,,,,,,,,,,,,,,,212.5,1.0,,,,,,
204,,iti,,html-keyboard-response,204,345491,0.0-1.0-36.0-0.0-5.0,0,0,10,,,,,,34.0,,,,,1.0,,,,,,,,,,,,,,,,,,,,,,,,,,,213.5,1.5,,,,,,
205,,choice,,html-keyboard-response,205,346115,0.0-1.0-37.0-0.0-0.0,0,0,10,,619.0,,,51.0,35.0,35.0,1500.0,1000.0,0.0,1.0,0.0,40-60,,0.0,stool,dresser,40.0,60.0,stool2,dresser14,20.0,60.0,ASTOOL46.jpg,Adressertabl3.jpg,/static/Category_learning/Stimuli/Experimental_stims/stool/ASTOOL46.jpg,/static/Category_learning/Stimuli/Experimental_stims/dresser/Adressertabl3.jpg,0.0,dresser,stool,60.0,40.0,dresser14,stool2,60.0,20.0,0.0,215.0,0.619,,,,,,
206,,confirmation,,html-keyboard-response,206,347000,0.0-1.0-37.0-0.0-1.0-0.0,0,0,10,,,,,,35.0,,,,,1.0,,,,,,,,,,,,,,,,,,,,,,,,,,,215.619,0.881,,,,,,
207,,isi,,html-keyboard-response,207,348504,0.0-1.0-37.0-0.0-2.0,0,0,10,,,,,,35.0,,,,,1.0,,,,,,,,,,,,,,,,,,,,,,,,,,,216.5,1.5,,,,,,
208,,feedback,,html-keyboard-response,208,349511,0.0-1.0-37.0-0.0-3.0-0.0,0,0,10,,,,,,35.0,,,,,1.0,,,,,,,,,,,,,,,,,,,,,,,,,,,218.0,1.0,,,,,,
209,,iti,,html-keyboard-response,209,350519,0.0-1.0-37.0-0.0-5.0,0,0,10,,,,,,35.0,,,,,1.0,,,,,,,,,,,,,,,,,,,,,,,,,,,219.0,1.0,,,,,,
210,,choice,,html-keyboard-response,210,351766,0.0-1.0-38.0-0.0-0.0,0,0,10,,1244.0,,,50.0,36.0,36.0,1500.0,1000.0,0.0,1.0,0.0,20-80,,0.0,necklace,motorcycle,20.0,80.0,necklace2,motorcycle2,20.0,100.0,Anecklace7.jpg,motorcycle33.jpg,/static/Category_learning/Stimuli/Experimental_stims/necklace/Anecklace7.jpg,/static/Category_learning/Stimuli/Experimental_stims/motorcycle/motorcycle33.jpg,1.0,necklace,motorcycle,20.0,80.0,necklace2,motorcycle2,20.0,100.0,0.0,220.0,1.244,,,,,,
211,,confirmation,,html-keyboard-response,211,352030,0.0-1.0-38.0-0.0-1.0-0.0,0,0,10,,,,,,36.0,,,,,1.0,,,,,,,,,,,,,,,,,,,,,,,,,,,221.244,0.256,,,,,,
212,,isi,,html-keyboard-response,212,353534,0.0-1.0-38.0-0.0-2.0,0,0,10,,,,,,36.0,,,,,1.0,,,,,,,,,,,,,,,,,,,,,,,,,,,221.5,1.5,,,,,,
213,,feedback,,html-keyboard-response,213,354542,0.0-1.0-38.0-0.0-3.0-0.0,0,0,10,,,,,,36.0,,,,,1.0,,,,,,,,,,,,,,,,,,,,,,,,,,,223.0,1.0,,,,,,
214,,iti,,html-keyboard-response,214,355550,0.0-1.0-38.0-0.0-5.0,0,0,10,,,,,,36.0,,,,,1.0,,,,,,,,,,,,,,,,,,,,,,,,,,,224.0,1.0,,,,,,
215,,choice,,html-keyboard-response,215,356391,0.0-1.0-39.0-0.0-0.0,0,0,10,,836.0,,,51.0,37.0,37.0,1000.0,1000.0,0.0,1.0,1.0,20-20,1.0,,necklace,necklace,20.0,20.0,necklace2,necklace15,20.0,40.0,Anecklace7.jpg,necklascenew04.jpg,/static/Category_learning/Stimuli/Experimental_stims/necklace/Anecklace7.jpg,/static/Category_learning/Stimuli/Experimental_stims/necklace/necklascenew04.jpg,0.0,necklace,necklace,20.0,20.0,necklace15,necklace2,40.0,20.0,0.0,225.0,0.836,,,,,,
216,,confirmation,,html-keyboard-response,216,357060,0.0-1.0-39.0-0.0-1.0-0.0,0,0,10,,,,,,37.0,,,,,1.0,,,,,,,,,,,,,,,,,,,,,,,,,,,225.836,0.664,,,,,,
217,,isi,,html-keyboard-response,217,358067,0.0-1.0-39.0-0.0-2.0,0,0,10,,,,,,37.0,,,,,1.0,,,,,,,,,,,,,,,,,,,,,,,,,,,226.5,1.0,,,,,,
218,,feedback,,html-keyboard-response,218,359075,0.0-1.0-39.0-0.0-3.0-0.0,0,0,10,,,,,,37.0,,,,,1.0,,,,,,,,,,,,,,,,,,,,,,,,,,,227.5,1.0,,,,,,
219,,iti,,html-keyboard-response,219,360083,0.0-1.0-39.0-0.0-5.0,0,0,10,,,,,,37.0,,,,,1.0,,,,,,,,,,,,,,,,,,,,,,,,,,,228.5,1.0,,,,,,
220,,choice,,html-keyboard-response,220,361592,0.0-1.0-40.0-0.0-0.0,0,0,10,,,,,,38.0,38.0,3000.0,1000.0,0.0,1.0,0.0,20-60,,0.0,sofa,bongo,20.0,60.0,sofa9,bongo12,20.0,40.0,ALOVSEAT9.jpg,26686609.thl.jpg,/static/Category_learning/Stimuli/Experimental_stims/sofa/ALOVSEAT9.jpg,/static/Category_learning/Stimuli/Experimental_stims/bongo/26686609.thl.jpg,,,,,,,,,,1.0,229.5,1.5,,,,,,
221,,isi,,html-keyboard-response,221,364595,0.0-1.0-40.0-0.0-2.0,0,0,10,,,,,,38.0,,,,,1.0,,,,,,,,,,,,,,,,,,,,,,,,,,,231.0,3.0,,,,,,
222,,no_response,,html-keyboard-response,222,365603,0.0-1.0-40.0-0.0-4.0-0.0,0,0,10,,,,,,38.0,,,,,1.0,,,,,,,,,,,,,,,,,,,,,,,,,,,234.0,1.0,,,,,,
223,,iti,,html-keyboard-response,223,366622,0.0-1.0-40.0-0.0-5.0,0,0,10,,,,,,38.0,,,,,1.0,,,,,,,,,,,,,,,,,,,,,,,,,,,235.0,1.0,,,,,,
224,,choice,,html-keyboard-response,224,367098,0.0-1.0-40.0-0.1-0.1,0,0,10,,471.0,,,51.0,38.0,38.0,3000.0,1000.0,0.0,1.0,0.0,20-60,,0.0,sofa,bongo,20.0,60.0,sofa9,bongo12,20.0,40.0,ALOVSEAT9.jpg,26686609.thl.jpg,/static/Category_learning/Stimuli/Experimental_stims/sofa/ALOVSEAT9.jpg,/static/Category_learning/Stimuli/Experimental_stims/bongo/26686609.thl.jpg,0.0,bongo,sofa,60.0,20.0,bongo12,sofa9,40.0,20.0,0.0,236.0,0.471,,,,,,
225,,confirmation,,html-keyboard-response,225,368131,0.0-1.0-40.0-0.1-1.1-0.1,0,0,10,,,,,,38.0,,,,,1.0,,,,,,,,,,,,,,,,,,,,,,,,,,,236.471,1.029,,,,,,
226,,isi,,html-keyboard-response,226,371140,0.0-1.0-40.0-0.1-2.1,0,0,10,,,,,,38.0,,,,,1.0,,,,,,,,,,,,,,,,,,,,,,,,,,,237.5,3.0,,,,,,
227,,feedback,,html-keyboard-response,227,372147,0.0-1.0-40.0-0.1-3.1-0.1,0,0,10,,,,,,38.0,,,,,1.0,,,,,,,,,,,,,,,,,,,,,,,,,,,240.5,1.0,,,,,,
228,,iti,,html-keyboard-response,228,373156,0.0-1.0-40.0-0.1-5.1,0,0,10,,,,,,38.0,,,,,1.0,,,,,,,,,,,,,,,,,,,,,,,,,,,241.5,1.0,,,,,,
229,,choice,,html-keyboard-response,229,373558,0.0-1.0-41.0-0.0-0.0,0,0,10,,398.0,,,50.0,39.0,39.0,3000.0,3000.0,0.0,1.0,0.0,20-20,,,patio lounge chair,seashell,20.0,20.0,patio lounge chair14,seashell13,40.0,0.0,2987951.jpg,coquillage22.jpg,/static/Category_learning/Stimuli/Experimental_stims/patio lounge chair/2987951.jpg,/static/Category_learning/Stimuli/Experimental_stims/seashell/coquillage22.jpg,1.0,patio lounge chair,seashell,20.0,20.0,patio lounge chair14,seashell13,40.0,0.0,0.0,242.5,0.398,,,,,,
230,,confirmation,,html-keyboard-response,230,374664,0.0-1.0-41.0-0.0-1.0-0.0,0,0,10,,,,,,39.0,,,,,1.0,,,,,,,,,,,,,,,,,,,,,,,,,,,242.898,1.102,,,,,,
231,,isi,,html-keyboard-response,231,377673,0.0-1.0-41.0-0.0-2.0,0,0,10,,,,,,39.0,,,,,1.0,,,,,,,,,,,,,,,,,,,,,,,,,,,244.0,3.0,,,,,,
232,,feedback,,html-keyboard-response,232,378681,0.0-1.0-41.0-0.0-3.0-0.0,0,0,10,,,,,,39.0,,,,,1.0,,,,,,,,,,,,,,,,,,,,,,,,,,,247.0,1.0,,,,,,
233,,iti,,html-keyboard-response,233,381689,0.0-1.0-41.0-0.0-5.0,0,0,10,,,,,,39.0,,,,,1.0,,,,,,,,,,,,,,,,,,,,,,,,,,,248.0,3.0,,,,,,
234,,choice,,html-keyboard-response,234,382079,0.0-1.0-42.0-0.0-0.0,0,0,10,,385.0,,,51.0,40.0,40.0,2000.0,2000.0,0.0,1.0,0.0,60-80,,1.0,makeup compact,flashlight,80.0,60.0,makeup compact9,flashlight10,100.0,80.0,b_102019.jpg,834784_sk_lg.jpg,/static/Category_learning/Stimuli/Experimental_stims/makeup compact/b_102019.jpg,/static/Category_learning/Stimuli/Experimental_stims/flashlight/834784_sk_lg.jpg,0.0,flashlight,makeup compact,60.0,80.0,flashlight10,makeup compact9,80.0,100.0,0.0,251.0,0.385,,,,,,
235,,confirmation,,html-keyboard-response,235,383202,0.0-1.0-42.0-0.0-1.0-0.0,0,0,10,,,,,,40.0,,,,,1.0,,,,,,,,,,,,,,,,,,,,,,,,,,,251.385,1.115,,,,,,
236,,isi,,html-keyboard-response,236,385209,0.0-1.0-42.0-0.0-2.0,0,0,10,,,,,,40.0,,,,,1.0,,,,,,,,,,,,,,,,,,,,,,,,,,,252.5,2.0,,,,,,
237,,feedback,,html-keyboard-response,237,386217,0.0-1.0-42.0-0.0-3.0-0.0,0,0,10,,,,,,40.0,,,,,1.0,,,,,,,,,,,,,,,,,,,,,,,,,,,254.5,1.0,,,,,,
238,,iti,,html-keyboard-response,238,388222,0.0-1.0-42.0-0.0-5.0,0,0,10,,,,,,40.0,,,,,1.0,,,,,,,,,,,,,,,,,,,,,,,,,,,255.5,2.0,,,,,,
239,,choice,,html-keyboard-response,239,388742,0.0-1.0-43.0-0.0-0.0,0,0,10,,515.0,,,50.0,41.0,41.0,2000.0,1000.0,0.0,1.0,1.0,20-20,1.0,,patio lounge chair,patio lounge chair,20.0,20.0,patio lounge chair14,patio lounge chair9,40.0,20.0,2987951.jpg,43-3.jpg,/static/Category_learning/Stimuli/Experimental_stims/patio lounge chair/2987951.jpg,/static/Category_learning/Stimuli/Experimental_stims/patio lounge chair/43-3.jpg,1.0,patio lounge chair,patio lounge chair,20.0,20.0,patio lounge chair14,patio lounge chair9,40.0,20.0,0.0,257.5,0.515,,,,,,
240,,confirmation,,html-keyboard-response,240,389731,0.0-1.0-43.0-0.0-1.0-0.0,0,0,10,,,,,,41.0,,,,,1.0,,,,,,,,,,,,,,,,,,,,,,,,,,,258.015,0.985,,,,,,
241,,isi,,html-keyboard-response,241,391737,0.0-1.0-43.0-0.0-2.0,0,0,10,,,,,,41.0,,,,,1.0,,,,,,,,,,,,,,,,,,,,,,,,,,,259.0,2.0,,,,,,
242,,feedback,,html-keyboard-response,242,392745,0.0-1.0-43.0-0.0-3.0-0.0,0,0,10,,,,,,41.0,,,,,1.0,,,,,,,,,,,,,,,,,,,,,,,,,,,261.0,1.0,,,,,,
243,,iti,,html-keyboard-response,243,393753,0.0-1.0-43.0-0.0-5.0,0,0,10,,,,,,41.0,,,,,1.0,,,,,,,,,,,,,,,,,,,,,,,,,,,262.0,1.0,,,,,,
244,,choice,,html-keyboard-response,244,394646,0.0-1.0-44.0-0.0-0.0,0,0,10,,889.0,,,51.0,42.0,42.0,1000.0,1500.0,0.0,1.0,0.0,40-80,,1.0,makeup compact,trumpet,80.0,40.0,makeup compact6,trumpet13,80.0,40.0,P0754_hero.jpg,JUPITER+JTR1600GS.jpg,/static/Category_learning/Stimuli/Experimental_stims/makeup compact/P0754_hero.jpg,/static/Category_learning/Stimuli/Experimental_stims/trumpet/JUPITER+JTR1600GS.jpg,0.0,trumpet,makeup compact,40.0,80.0,trumpet13,makeup compact6,40.0,80.0,0.0,263.0,0.889,,,,,,
245,,confirmation,,html-keyboard-response,245,395263,0.0-1.0-44.0-0.0-1.0-0.0,0,0,10,,,,,,42.0,,,,,1.0,,,,,,,,,,,,,,,,,,,,,,,,,,,263.889,0.611,,,,,,
246,,isi,,html-keyboard-response,246,396270,0.0-1.0-44.0-0.0-2.0,0,0,10,,,,,,42.0,,,,,1.0,,,,,,,,,,,,,,,,,,,,,,,,,,,264.5,1.0,,,,,,
247,,feedback,,html-keyboard-response,247,397279,0.0-1.0-44.0-0.0-3.0-0.0,0,0,10,,,,,,42.0,,,,,1.0,,,,,,,,,,,,,,,,,,,,,,,,,,,265.5,1.0,,,,,,
248,,iti,,html-keyboard-response,248,398782,0.0-1.0-44.0-0.0-5.0,0,0,10,,,,,,42.0,,,,,1.0,,,,,,,,,,,,,,,,,,,,,,,,,,,266.5,1.5,,,,,,
249,,choice,,html-keyboard-response,249,399677,0.0-1.0-45.0-0.0-0.0,0,0,10,,890.0,,,51.0,43.0,43.0,1000.0,2000.0,0.0,1.0,0.0,80-80,,,hat,makeup compact,80.0,80.0,hat2,makeup compact10,100.0,60.0,Ahatwithfeat7.jpg,P95108_hero.jpg,/static/Category_learning/Stimuli/Experimental_stims/hat/Ahatwithfeat7.jpg,/static/Category_learning/Stimuli/Experimental_stims/makeup compact/P95108_hero.jpg,0.0,makeup compact,hat,80.0,80.0,makeup compact10,hat2,60.0,100.0,0.0,268.0,0.89,,,,,,
250,,confirmation,,html-keyboard-response,250,400292,0.0-1.0-45.0-0.0-1.0-0.0,0,0,10,,,,,,43.0,,,,,1.0,,,,,,,,,,,,,,,,,,,,,,,,,,,268.89,0.61,,,,,,
251,,isi,,html-keyboard-response,251,401297,0.0-1.0-45.0-0.0-2.0,0,0,10,,,,,,43.0,,,,,1.0,,,,,,,,,,,,,,,,,,,,,,,,,,,269.5,1.0,,,,,,
252,,feedback,,html-keyboard-response,252,402303,0.0-1.0-45.0-0.0-3.0-0.0,0,0,10,,,,,,43.0,,,,,1.0,,,,,,,,,,,,,,,,,,,,,,,,,,,270.5,1.0,,,,,,
253,,iti,,html-keyboard-response,253,404308,0.0-1.0-45.0-0.0-5.0,0,0,10,,,,,,43.0,,,,,1.0,,,,,,,,,,,,,,,,,,,,,,,,,,,271.5,2.0,,,,,,
254,,choice,,html-keyboard-response,254,404685,0.0-1.0-46.0-0.0-0.0,0,0,10,,372.0,,,51.0,44.0,44.0,1500.0,1500.0,0.0,1.0,0.0,40-60,,1.0,fan,tent,60.0,40.0,fan1,tent4,80.0,40.0,01393.fpx.jpg,Atent12.jpg,/static/Category_learning/Stimuli/Experimental_stims/fan/01393.fpx.jpg,/static/Category_learning/Stimuli/Experimental_stims/tent/Atent12.jpg,0.0,tent,fan,40.0,60.0,tent4,fan1,40.0,80.0,0.0,273.5,0.372,,,,,,
255,,confirmation,,html-keyboard-response,255,405817,0.0-1.0-46.0-0.0-1.0-0.0,0,0,10,,,,,,44.0,,,,,1.0,,,,,,,,,,,,,,,,,,,,,,,,,,,273.872,1.128,,,,,,
256,,isi,,html-keyboard-response,256,407321,0.0-1.0-46.0-0.0-2.0,0,0,10,,,,,,44.0,,,,,1.0,,,,,,,,,,,,,,,,,,,,,,,,,,,275.0,1.5,,,,,,
257,,feedback,,html-keyboard-response,257,408329,0.0-1.0-46.0-0.0-3.0-0.0,0,0,10,,,,,,44.0,,,,,1.0,,,,,,,,,,,,,,,,,,,,,,,,,,,276.5,1.0,,,,,,
258,,iti,,html-keyboard-response,258,409833,0.0-1.0-46.0-0.0-5.0,0,0,10,,,,,,44.0,,,,,1.0,,,,,,,,,,,,,,,,,,,,,,,,,,,277.5,1.5,,,,,,
259,,choice,,html-keyboard-response,259,410377,0.0-1.0-47.0-0.0-0.0,0,0,10,,539.0,,,51.0,45.0,45.0,2000.0,3500.0,0.0,1.0,1.0,40-40,1.0,,trumpet,trumpet,40.0,40.0,trumpet13,trumpet4,40.0,20.0,JUPITER+JTR1600GS.jpg,JUPITER+JTR1000S.jpg,/static/Category_learning/Stimuli/Experimental_stims/trumpet/JUPITER+JTR1600GS.jpg,/static/Category_learning/Stimuli/Experimental_stims/trumpet/JUPITER+JTR1000S.jpg,0.0,trumpet,trumpet,40.0,40.0,trumpet4,trumpet13,20.0,40.0,0.0,279.0,0.539,,,,,,
260,,confirmation,,html-keyboard-response,260,411343,0.0-1.0-47.0-0.0-1.0-0.0,0,0,10,,,,,,45.0,,,,,1.0,,,,,,,,,,,,,,,,,,,,,,,,,,,279.539,0.961,,,,,,
261,,isi,,html-keyboard-response,261,413348,0.0-1.0-47.0-0.0-2.0,0,0,10,,,,,,45.0,,,,,1.0,,,,,,,,,,,,,,,,,,,,,,,,,,,280.5,2.0,,,,,,
262,,feedback,,html-keyboard-response,262,414356,0.0-1.0-47.0-0.0-3.0-0.0,0,0,10,,,,,,45.0,,,,,1.0,,,,,,,,,,,,,,,,,,,,,,,,,,,282.5,1.0,,,,,,
263,,iti,,html-keyboard-response,263,417860,0.0-1.0-47.0-0.0-5.0,0,0,10,,,,,,45.0,,,,,1.0,,,,,,,,,,,,,,,,,,,,,,,,,,,283.5,3.5,,,,,,
264,,choice,,html-keyboard-response,264,418415,0.0-1.0-48.0-0.0-0.0,0,0,10,,550.0,,,51.0,46.0,46.0,2000.0,1500.0,0.0,1.0,0.0,40-80,,0.0,yarn,lipstick,40.0,80.0,yarn8,lipstick9,60.0,100.0,smonlineyarn-285x250.jpg,P189145_hero.jpg,/static/Category_learning/Stimuli/Experimental_stims/yarn/smonlineyarn-285x250.jpg,/static/Category_learning/Stimuli/Experimental_stims/lipstick/P189145_hero.jpg,0.0,lipstick,yarn,80.0,40.0,lipstick9,yarn8,100.0,60.0,0.0,287.0,0.55,,,,,,
265,,confirmation,,html-keyboard-response,265,419370,0.0-1.0-48.0-0.0-1.0-0.0,0,0,10,,,,,,46.0,,,,,1.0,,,,,,,,,,,,,,,,,,,,,,,,,,,287.55,0.95,,,,,,
266,,isi,,html-keyboard-response,266,421375,0.0-1.0-48.0-0.0-2.0,0,0,10,,,,,,46.0,,,,,1.0,,,,,,,,,,,,,,,,,,,,,,,,,,,288.5,2.0,,,,,,
267,,feedback,,html-keyboard-response,267,422383,0.0-1.0-48.0-0.0-3.0-0.0,0,0,10,,,,,,46.0,,,,,1.0,,,,,,,,,,,,,,,,,,,,,,,,,,,290.5,1.0,,,,,,
268,,iti,,html-keyboard-response,268,423887,0.0-1.0-48.0-0.0-5.0,0,0,10,,,,,,46.0,,,,,1.0,,,,,,,,,,,,,,,,,,,,,,,,,,,291.5,1.5,,,,,,
269,,choice,,html-keyboard-response,269,424300,0.0-1.0-49.0-0.0-0.0,0,0,10,,408.0,,,50.0,47.0,47.0,1000.0,1000.0,0.0,1.0,1.0,80-80,1.0,,lipstick,lipstick,80.0,80.0,lipstick5,lipstick9,80.0,100.0,P35719_hero.jpg,P189145_hero.jpg,/static/Category_learning/Stimuli/Experimental_stims/lipstick/P35719_hero.jpg,/static/Category_learning/Stimuli/Experimental_stims/lipstick/P189145_hero.jpg,1.0,lipstick,lipstick,80.0,80.0,lipstick5,lipstick9,80.0,100.0,0.0,293.0,0.408,,,,,,
270,,confirmation,,html-keyboard-response,270,425397,0.0-1.0-49.0-0.0-1.0-0.0,0,0,10,,,,,,47.0,,,,,1.0,,,,,,,,,,,,,,,,,,,,,,,,,,,293.408,1.092,,,,,,
271,,isi,,html-keyboard-response,271,426404,0.0-1.0-49.0-0.0-2.0,0,0,10,,,,,,47.0,,,,,1.0,,,,,,,,,,,,,,,,,,,,,,,,,,,294.5,1.0,,,,,,
272,,feedback,,html-keyboard-response,272,427412,0.0-1.0-49.0-0.0-3.0-0.0,0,0,10,,,,,,47.0,,,,,1.0,,,,,,,,,,,,,,,,,,,,,,,,,,,295.5,1.0,,,,,,
273,,iti,,html-keyboard-response,273,428420,0.0-1.0-49.0-0.0-5.0,0,0,10,,,,,,47.0,,,,,1.0,,,,,,,,,,,,,,,,,,,,,,,,,,,296.5,1.0,,,,,,
274,,choice,,html-keyboard-response,274,429018,0.0-1.0-50.0-0.0-0.0,0,0,10,,593.0,,,51.0,48.0,48.0,1500.0,1000.0,0.0,1.0,0.0,40-60,,0.0,train,flashlight,40.0,60.0,train8,flashlight12,40.0,60.0,PL51190.jpg,new05.jpg,/static/Category_learning/Stimuli/Experimental_stims/train/PL51190.jpg,/static/Category_learning/Stimuli/Experimental_stims/flashlight/new05.jpg,0.0,flashlight,train,60.0,40.0,flashlight12,train8,60.0,40.0,0.0,297.5,0.593,,,,,,
275,,confirmation,,html-keyboard-response,275,429930,0.0-1.0-50.0-0.0-1.0-0.0,0,0,10,,,,,,48.0,,,,,1.0,,,,,,,,,,,,,,,,,,,,,,,,,,,298.093,0.907,,,,,,
276,,isi,,html-keyboard-response,276,431433,0.0-1.0-50.0-0.0-2.0,0,0,10,,,,,,48.0,,,,,1.0,,,,,,,,,,,,,,,,,,,,,,,,,,,299.0,1.5,,,,,,
277,,feedback,,html-keyboard-response,277,432442,0.0-1.0-50.0-0.0-3.0-0.0,0,0,10,,,,,,48.0,,,,,1.0,,,,,,,,,,,,,,,,,,,,,,,,,,,300.5,1.0,,,,,,
278,,iti,,html-keyboard-response,278,433449,0.0-1.0-50.0-0.0-5.0,0,0,10,,,,,,48.0,,,,,1.0,,,,,,,,,,,,,,,,,,,,,,,,,,,301.5,1.0,,,,,,
279,,choice,,html-keyboard-response,279,433871,0.0-1.0-51.0-0.0-0.0,0,0,10,,416.0,,,50.0,49.0,49.0,1000.0,1000.0,0.0,1.0,1.0,60-60,1.0,,flashlight,flashlight,60.0,60.0,flashlight12,flashlight10,60.0,80.0,new05.jpg,834784_sk_lg.jpg,/static/Category_learning/Stimuli/Experimental_stims/flashlight/new05.jpg,/static/Category_learning/Stimuli/Experimental_stims/flashlight/834784_sk_lg.jpg,1.0,flashlight,flashlight,60.0,60.0,flashlight12,flashlight10,60.0,80.0,0.0,302.5,0.416,,,,,,
280,,confirmation,,html-keyboard-response,280,434959,0.0-1.0-51.0-0.0-1.0-0.0,0,0,10,,,,,,49.0,,,,,1.0,,,,,,,,,,,,,,,,,,,,,,,,,,,302.916,1.084,,,,,,
281,,isi,,html-keyboard-response,281,435967,0.0-1.0-51.0-0.0-2.0,0,0,10,,,,,,49.0,,,,,1.0,,,,,,,,,,,,,,,,,,,,,,,,,,,304.0,1.0,,,,,,
282,,feedback,,html-keyboard-response,282,436975,0.0-1.0-51.0-0.0-3.0-0.0,0,0,10,,,,,,49.0,,,,,1.0,,,,,,,,,,,,,,,,,,,,,,,,,,,305.0,1.0,,,,,,
283,,iti,,html-keyboard-response,283,437982,0.0-1.0-51.0-0.0-5.0,0,0,10,,,,,,49.0,,,,,1.0,,,,,,,,,,,,,,,,,,,,,,,,,,,306.0,1.0,,,,,,
284,,choice,,html-keyboard-response,284,438449,0.0-1.0-52.0-0.0-0.0,0,0,10,,462.0,,,51.0,50.0,50.0,1000.0,2000.0,0.0,1.0,0.0,20-80,,1.0,lipstick,sofa,80.0,20.0,lipstick13,sofa8,60.0,20.0,P184708_hero.jpg,allegro-leather-sofa-med2.jpg,/static/Category_learning/Stimuli/Experimental_stims/lipstick/P184708_hero.jpg,/static/Category_learning/Stimuli/Experimental_stims/sofa/allegro-leather-sofa-med2.jpg,0.0,sofa,lipstick,20.0,80.0,sofa8,lipstick13,20.0,60.0,0.0,307.0,0.462,,,,,,
285,,confirmation,,html-keyboard-response,285,439492,0.0-1.0-52.0-0.0-1.0-0.0,0,0,10,,,,,,50.0,,,,,1.0,,,,,,,,,,,,,,,,,,,,,,,,,,,307.462,1.038,,,,,,
286,,isi,,html-keyboard-response,286,440500,0.0-1.0-52.0-0.0-2.0,0,0,10,,,,,,50.0,,,,,1.0,,,,,,,,,,,,,,,,,,,,,,,,,,,308.5,1.0,,,,,,
287,,feedback,,html-keyboard-response,287,441508,0.0-1.0-52.0-0.0-3.0-0.0,0,0,10,,,,,,50.0,,,,,1.0,,,,,,,,,,,,,,,,,,,,,,,,,,,309.5,1.0,,,,,,
288,,iti,,html-keyboard-response,288,443514,0.0-1.0-52.0-0.0-5.0,0,0,10,,,,,,50.0,,,,,1.0,,,,,,,,,,,,,,,,,,,,,,,,,,,310.5,2.0,,,,,,
289,,choice,,html-keyboard-response,289,443859,0.0-1.0-53.0-0.0-0.0,0,0,10,,341.0,,,50.0,51.0,51.0,1000.0,2000.0,0.0,1.0,0.0,40-60,,0.0,stool,baby carriage,40.0,60.0,stool5,baby carriage11,40.0,80.0,ASTOOL23.jpg,Baby_Carriage-2.jpg,/static/Category_learning/Stimuli/Experimental_stims/stool/ASTOOL23.jpg,/static/Category_learning/Stimuli/Experimental_stims/baby carriage/Baby_Carriage-2.jpg,1.0,stool,baby carriage,40.0,60.0,stool5,baby carriage11,40.0,80.0,0.0,312.5,0.341,,,,,,
290,,confirmation,,html-keyboard-response,290,445023,0.0-1.0-53.0-0.0-1.0-0.0,0,0,10,,,,,,51.0,,,,,1.0,,,,,,,,,,,,,,,,,,,,,,,,,,,312.841,1.159,,,,,,
291,,isi,,html-keyboard-response,291,446031,0.0-1.0-53.0-0.0-2.0,0,0,10,,,,,,51.0,,,,,1.0,,,,,,,,,,,,,,,,,,,,,,,,,,,314.0,1.0,,,,,,
292,,feedback,,html-keyboard-response,292,447040,0.0-1.0-53.0-0.0-3.0-0.0,0,0,10,,,,,,51.0,,,,,1.0,,,,,,,,,,,,,,,,,,,,,,,,,,,315.0,1.0,,,,,,
293,,iti,,html-keyboard-response,293,449044,0.0-1.0-53.0-0.0-5.0,0,0,10,,,,,,51.0,,,,,1.0,,,,,,,,,,,,,,,,,,,,,,,,,,,316.0,2.0,,,,,,
294,,choice,,html-keyboard-response,294,449453,0.0-1.0-54.0-0.0-0.0,0,0,10,,404.0,,,51.0,52.0,52.0,1000.0,2000.0,0.0,1.0,0.0,40-40,,,telescope,vase,40.0,40.0,telescope10,vase4,20.0,60.0,digimarc.ms02.jpg,Avase111.jpg,/static/Category_learning/Stimuli/Experimental_stims/telescope/digimarc.ms02.jpg,/static/Category_learning/Stimuli/Experimental_stims/vase/Avase111.jpg,0.0,vase,telescope,40.0,40.0,vase4,telescope10,60.0,20.0,0.0,318.0,0.404,,,,,,
295,,confirmation,,html-keyboard-response,295,450555,0.0-1.0-54.0-0.0-1.0-0.0,0,0,10,,,,,,52.0,,,,,1.0,,,,,,,,,,,,,,,,,,,,,,,,,,,318.404,1.096,,,,,,
296,,isi,,html-keyboard-response,296,451564,0.0-1.0-54.0-0.0-2.0,0,0,10,,,,,,52.0,,,,,1.0,,,,,,,,,,,,,,,,,,,,,,,,,,,319.5,1.0,,,,,,
297,,feedback,,html-keyboard-response,297,452572,0.0-1.0-54.0-0.0-3.0-0.0,0,0,10,,,,,,52.0,,,,,1.0,,,,,,,,,,,,,,,,,,,,,,,,,,,320.5,1.0,,,,,,
298,,iti,,html-keyboard-response,298,454578,0.0-1.0-54.0-0.0-5.0,0,0,10,,,,,,52.0,,,,,1.0,,,,,,,,,,,,,,,,,,,,,,,,,,,321.5,2.0,,,,,,
299,,choice,,html-keyboard-response,299,455260,0.0-1.0-55.0-0.0-0.0,0,0,10,,677.0,,,51.0,53.0,53.0,1000.0,1500.0,0.0,1.0,1.0,40-40,1.0,,stool,stool,40.0,40.0,stool10,stool5,60.0,40.0,ASTOOL26.jpg,ASTOOL23.jpg,/static/Category_learning/Stimuli/Experimental_stims/stool/ASTOOL26.jpg,/static/Category_learning/Stimuli/Experimental_stims/stool/ASTOOL23.jpg,0.0,stool,stool,40.0,40.0,stool5,stool10,40.0,60.0,0.0,323.5,0.677,,,,,,
300,,confirmation,,html-keyboard-response,300,456087,0.0-1.0-55.0-0.0-1.0-0.0,0,0,10,,,,,,53.0,,,,,1.0,,,,,,,,,,,,,,,,,,,,,,,,,,,324.177,0.823,,,,,,
301,,isi,,html-keyboard-response,301,457095,0.0-1.0-55.0-0.0-2.0,0,0,10,,,,,,53.0,,,,,1.0,,,,,,,,,,,,,,,,,,,,,,,,,,,325.0,1.0,,,,,,
302,,feedback,,html-keyboard-response,302,458103,0.0-1.0-55.0-0.0-3.0-0.0,0,0,10,,,,,,53.0,,,,,1.0,,,,,,,,,,,,,,,,,,,,,,,,,,,326.0,1.0,,,,,,
303,,iti,,html-keyboard-response,303,459607,0.0-1.0-55.0-0.0-5.0,0,0,10,,,,,,53.0,,,,,1.0,,,,,,,,,,,,,,,,,,,,,,,,,,,327.0,1.5,,,,,,
304,,choice,,html-keyboard-response,304,460066,0.0-1.0-56.0-0.0-0.0,0,0,10,,455.0,,,51.0,54.0,54.0,2000.0,1500.0,0.0,1.0,0.0,20-80,,1.0,hat,nail polish,80.0,20.0,hat3,nail polish14,100.0,40.0,Astrawhat49.jpg,38031405.JPG,/static/Category_learning/Stimuli/Experimental_stims/hat/Astrawhat49.jpg,/static/Category_learning/Stimuli/Experimental_stims/nail polish/38031405.JPG,0.0,nail polish,hat,20.0,80.0,nail polish14,hat3,40.0,100.0,0.0,328.5,0.455,,,,,,
305,,confirmation,,html-keyboard-response,305,461120,0.0-1.0-56.0-0.0-1.0-0.0,0,0,10,,,,,,54.0,,,,,1.0,,,,,,,,,,,,,,,,,,,,,,,,,,,328.955,1.045,,,,,,
306,,isi,,html-keyboard-response,306,463127,0.0-1.0-56.0-0.0-2.0,0,0,10,,,,,,54.0,,,,,1.0,,,,,,,,,,,,,,,,,,,,,,,,,,,330.0,2.0,,,,,,
307,,feedback,,html-keyboard-response,307,464136,0.0-1.0-56.0-0.0-3.0-0.0,0,0,10,,,,,,54.0,,,,,1.0,,,,,,,,,,,,,,,,,,,,,,,,,,,332.0,1.0,,,,,,
308,,iti,,html-keyboard-response,308,465640,0.0-1.0-56.0-0.0-5.0,0,0,10,,,,,,54.0,,,,,1.0,,,,,,,,,,,,,,,,,,,,,,,,,,,333.0,1.5,,,,,,
309,,choice,,html-keyboard-response,309,466079,0.0-1.0-57.0-0.0-0.0,0,0,10,,434.0,,,51.0,55.0,55.0,3000.0,1000.0,0.0,1.0,0.0,20-60,,0.0,necklace,bench,20.0,60.0,necklace6,bench4,0.0,40.0,Agoldnecklace.jpg,30892819.thl.jpg,/static/Category_learning/Stimuli/Experimental_stims/necklace/Agoldnecklace.jpg,/static/Category_learning/Stimuli/Experimental_stims/bench/30892819.thl.jpg,0.0,bench,necklace,60.0,20.0,bench4,necklace6,40.0,0.0,0.0,334.5,0.434,,,,,,
310,,confirmation,,html-keyboard-response,310,467150,0.0-1.0-57.0-0.0-1.0-0.0,0,0,10,,,,,,55.0,,,,,1.0,,,,,,,,,,,,,,,,,,,,,,,,,,,334.934,1.066,,,,,,
311,,isi,,html-keyboard-response,311,470158,0.0-1.0-57.0-0.0-2.0,0,0,10,,,,,,55.0,,,,,1.0,,,,,,,,,,,,,,,,,,,,,,,,,,,336.0,3.0,,,,,,
312,,feedback,,html-keyboard-response,312,471166,0.0-1.0-57.0-0.0-3.0-0.0,0,0,10,,,,,,55.0,,,,,1.0,,,,,,,,,,,,,,,,,,,,,,,,,,,339.0,1.0,,,,,,
313,,iti,,html-keyboard-response,313,472174,0.0-1.0-57.0-0.0-5.0,0,0,10,,,,,,55.0,,,,,1.0,,,,,,,,,,,,,,,,,,,,,,,,,,,340.0,1.0,,,,,,
314,,choice,,html-keyboard-response,314,472713,0.0-1.0-58.0-0.0-0.0,0,0,10,,534.0,,,51.0,56.0,56.0,1000.0,1500.0,0.0,1.0,0.0,20-80,,1.0,key chain,sofa,80.0,20.0,key chain1,sofa13,80.0,40.0,jm05s16.jpg,ACOUCH25.jpg,/static/Category_learning/Stimuli/Experimental_stims/key chain/jm05s16.jpg,/static/Category_learning/Stimuli/Experimental_stims/sofa/ACOUCH25.jpg,0.0,sofa,key chain,20.0,80.0,sofa13,key chain1,40.0,80.0,0.0,341.0,0.534,,,,,,
315,,confirmation,,html-keyboard-response,315,473683,0.0-1.0-58.0-0.0-1.0-0.0,0,0,10,,,,,,56.0,,,,,1.0,,,,,,,,,,,,,,,,,,,,,,,,,,,341.534,0.966,,,,,,
316,,isi,,html-keyboard-response,316,474692,0.0-1.0-58.0-0.0-2.0,0,0,10,,,,,,56.0,,,,,1.0,,,,,,,,,,,,,,,,,,,,,,,,,,,342.5,1.0,,,,,,
317,,feedback,,html-keyboard-response,317,475700,0.0-1.0-58.0-0.0-3.0-0.0,0,0,10,,,,,,56.0,,,,,1.0,,,,,,,,,,,,,,,,,,,,,,,,,,,343.5,1.0,,,,,,
318,,iti,,html-keyboard-response,318,477204,0.0-1.0-58.0-0.0-5.0,0,0,10,,,,,,56.0,,,,,1.0,,,,,,,,,,,,,,,,,,,,,,,,,,,344.5,1.5,,,,,,
319,,choice,,html-keyboard-response,319,477721,0.0-1.0-59.0-0.0-0.0,0,0,10,,513.0,,,51.0,57.0,57.0,1500.0,1000.0,0.0,1.0,1.0,20-20,1.0,,sofa,sofa,20.0,20.0,sofa13,sofa8,40.0,20.0,ACOUCH25.jpg,allegro-leather-sofa-med2.jpg,/static/Category_learning/Stimuli/Experimental_stims/sofa/ACOUCH25.jpg,/static/Category_learning/Stimuli/Experimental_stims/sofa/allegro-leather-sofa-med2.jpg,0.0,sofa,sofa,20.0,20.0,sofa8,sofa13,20.0,40.0,0.0,346.0,0.513,,,,,,
320,,confirmation,,html-keyboard-response,320,478713,0.0-1.0-59.0-0.0-1.0-0.0,0,0,10,,,,,,57.0,,,,,1.0,,,,,,,,,,,,,,,,,,,,,,,,,,,346.513,0.987,,,,,,
321,,isi,,html-keyboard-response,321,480217,0.0-1.0-59.0-0.0-2.0,0,0,10,,,,,,57.0,,,,,1.0,,,,,,,,,,,,,,,,,,,,,,,,,,,347.5,1.5,,,,,,
322,,feedback,,html-keyboard-response,322,481225,0.0-1.0-59.0-0.0-3.0-0.0,0,0,10,,,,,,57.0,,,,,1.0,,,,,,,,,,,,,,,,,,,,,,,,,,,349.0,1.0,,,,,,
323,,iti,,html-keyboard-response,323,482233,0.0-1.0-59.0-0.0-5.0,0,0,10,,,,,,57.0,,,,,1.0,,,,,,,,,,,,,,,,,,,,,,,,,,,350.0,1.0,,,,,,
324,,block_over,,html-keyboard-response,324,575396,0.0-1.0-59.0-0.0-7.0-0.0,0,0,10,,93156.0,,,83.0,57.0,,,,,,,,,,,,,,,,,,,,,,,,,,,,,,,,,,,,,,,
325,,start_run,,html-keyboard-response,325,631590,0.0-1.0-59.0-0.0-7.0-1.0,0,0,10,,56190.0,,,84.0,,,,,,,,,,,,,,,,,,,,,,,,,,,,,,,,,,,,,,,,
326,,choice,,html-keyboard-response,326,632635,0.0-1.0-60.0-0.0-0.0,0,0,10,,1041.0,,,50.0,58.0,65.0,3000.0,2000.0,0.0,2.0,0.0,40-40,,,watch,tape,40.0,40.0,watch9,tape2,40.0,20.0,mens-diamond-watches-euro-48733-ab.jpg,Tape_Dispenser.jpg,/static/Category_learning/Stimuli/Experimental_stims/watch/mens-diamond-watches-euro-48733-ab.jpg,/static/Category_learning/Stimuli/Experimental_stims/tape/Tape_Dispenser.jpg,1.0,watch,tape,40.0,40.0,watch9,tape2,40.0,20.0,0.0,0.0,1.041,,,,,,
327,,confirmation,,html-keyboard-response,327,633103,0.0-1.0-60.0-0.0-1.0-0.0,0,0,10,,,,,,58.0,,,,,2.0,,,,,,,,,,,,,,,,,,,,,,,,,,,1.041,0.459,,,,,,
328,,isi,,html-keyboard-response,328,636107,0.0-1.0-60.0-0.0-2.0,0,0,10,,,,,,58.0,,,,,2.0,,,,,,,,,,,,,,,,,,,,,,,,,,,1.5,3.0,,,,,,
329,,feedback,,html-keyboard-response,329,637116,0.0-1.0-60.0-0.0-3.0-0.0,0,0,10,,,,,,58.0,,,,,2.0,,,,,,,,,,,,,,,,,,,,,,,,,,,4.5,1.0,,,,,,
330,,iti,,html-keyboard-response,330,639121,0.0-1.0-60.0-0.0-5.0,0,0,10,,,,,,58.0,,,,,2.0,,,,,,,,,,,,,,,,,,,,,,,,,,,5.5,2.0,,,,,,
331,,choice,,html-keyboard-response,331,639549,0.0-1.0-61.0-0.0-0.0,0,0,10,,425.0,,,51.0,59.0,66.0,3000.0,1500.0,0.0,2.0,0.0,20-60,,0.0,pen,bowl,20.0,60.0,pen3,bowl13,0.0,80.0,pen08.jpg,Asoupbowl8.jpg,/static/Category_learning/Stimuli/Experimental_stims/pen/pen08.jpg,/static/Category_learning/Stimuli/Experimental_stims/bowl/Asoupbowl8.jpg,0.0,bowl,pen,60.0,20.0,bowl13,pen3,80.0,0.0,0.0,7.5,0.425,,,,,,
332,,confirmation,,html-keyboard-response,332,640630,0.0-1.0-61.0-0.0-1.0-0.0,0,0,10,,,,,,59.0,,,,,2.0,,,,,,,,,,,,,,,,,,,,,,,,,,,7.925,1.075,,,,,,
333,,isi,,html-keyboard-response,333,643639,0.0-1.0-61.0-0.0-2.0,0,0,10,,,,,,59.0,,,,,2.0,,,,,,,,,,,,,,,,,,,,,,,,,,,9.0,3.0,,,,,,
334,,feedback,,html-keyboard-response,334,644646,0.0-1.0-61.0-0.0-3.0-0.0,0,0,10,,,,,,59.0,,,,,2.0,,,,,,,,,,,,,,,,,,,,,,,,,,,12.0,1.0,,,,,,
335,,iti,,html-keyboard-response,335,646150,0.0-1.0-61.0-0.0-5.0,0,0,10,,,,,,59.0,,,,,2.0,,,,,,,,,,,,,,,,,,,,,,,,,,,13.0,1.5,,,,,,
336,,choice,,html-keyboard-response,336,646584,0.0-1.0-62.0-0.0-0.0,0,0,10,,429.0,,,50.0,60.0,67.0,1000.0,3000.0,0.0,2.0,0.0,20-60,,0.0,nail polish,bongo,20.0,60.0,nail polish1,bongo8,20.0,80.0,200.jpg,26390661.thl.jpg,/static/Category_learning/Stimuli/Experimental_stims/nail polish/200.jpg,/static/Category_learning/Stimuli/Experimental_stims/bongo/26390661.thl.jpg,1.0,nail polish,bongo,20.0,60.0,nail polish1,bongo8,20.0,80.0,0.0,14.5,0.429,,,,,,
337,,confirmation,,html-keyboard-response,337,647660,0.0-1.0-62.0-0.0-1.0-0.0,0,0,10,,,,,,60.0,,,,,2.0,,,,,,,,,,,,,,,,,,,,,,,,,,,14.929,1.071,,,,,,
338,,isi,,html-keyboard-response,338,648668,0.0-1.0-62.0-0.0-2.0,0,0,10,,,,,,60.0,,,,,2.0,,,,,,,,,,,,,,,,,,,,,,,,,,,16.0,1.0,,,,,,
339,,feedback,,html-keyboard-response,339,649676,0.0-1.0-62.0-0.0-3.0-0.0,0,0,10,,,,,,60.0,,,,,2.0,,,,,,,,,,,,,,,,,,,,,,,,,,,17.0,1.0,,,,,,
340,,iti,,html-keyboard-response,340,652684,0.0-1.0-62.0-0.0-5.0,0,0,10,,,,,,60.0,,,,,2.0,,,,,,,,,,,,,,,,,,,,,,,,,,,18.0,3.0,,,,,,
341,,choice,,html-keyboard-response,341,653198,0.0-1.0-63.0-0.0-0.0,0,0,10,,510.0,,,51.0,61.0,68.0,1000.0,2000.0,0.0,2.0,0.0,20-20,,,power strip,patio lounge chair,20.0,20.0,power strip14,patio lounge chair13,20.0,20.0,88b2c724-e781-44ae-85d5-27b7591f659d_400.jpg,grosfillex-bahia-resin-chaise-lounges.jpg,/static/Category_learning/Stimuli/Experimental_stims/power strip/88b2c724-e781-44ae-85d5-27b7591f659d_400.jpg,/static/Category_learning/Stimuli/Experimental_stims/patio lounge chair/grosfillex-bahia-resin-chaise-lounges.jpg,0.0,patio lounge chair,power strip,20.0,20.0,patio lounge chair13,power strip14,20.0,20.0,0.0,21.0,0.51,,,,,,
342,,confirmation,,html-keyboard-response,342,654193,0.0-1.0-63.0-0.0-1.0-0.0,0,0,10,,,,,,61.0,,,,,2.0,,,,,,,,,,,,,,,,,,,,,,,,,,,21.51,0.99,,,,,,
343,,isi,,html-keyboard-response,343,655201,0.0-1.0-63.0-0.0-2.0,0,0,10,,,,,,61.0,,,,,2.0,,,,,,,,,,,,,,,,,,,,,,,,,,,22.5,1.0,,,,,,
344,,feedback,,html-keyboard-response,344,656210,0.0-1.0-63.0-0.0-3.0-0.0,0,0,10,,,,,,61.0,,,,,2.0,,,,,,,,,,,,,,,,,,,,,,,,,,,23.5,1.0,,,,,,
345,,iti,,html-keyboard-response,345,658214,0.0-1.0-63.0-0.0-5.0,0,0,10,,,,,,61.0,,,,,2.0,,,,,,,,,,,,,,,,,,,,,,,,,,,24.5,2.0,,,,,,
346,,choice,,html-keyboard-response,346,658694,0.0-1.0-64.0-0.0-0.0,0,0,10,,476.0,,,50.0,62.0,69.0,1500.0,1500.0,0.0,2.0,0.0,40-40,,,tent,train,40.0,40.0,tent2,train1,40.0,40.0,Atent16.jpg,Model_Train.jpg,/static/Category_learning/Stimuli/Experimental_stims/tent/Atent16.jpg,/static/Category_learning/Stimuli/Experimental_stims/train/Model_Train.jpg,1.0,tent,train,40.0,40.0,tent2,train1,40.0,40.0,0.0,26.5,0.476,,,,,,
347,,confirmation,,html-keyboard-response,347,659724,0.0-1.0-64.0-0.0-1.0-0.0,0,0,10,,,,,,62.0,,,,,2.0,,,,,,,,,,,,,,,,,,,,,,,,,,,26.976,1.024,,,,,,
348,,isi,,html-keyboard-response,348,661228,0.0-1.0-64.0-0.0-2.0,0,0,10,,,,,,62.0,,,,,2.0,,,,,,,,,,,,,,,,,,,,,,,,,,,28.0,1.5,,,,,,
349,,feedback,,html-keyboard-response,349,662235,0.0-1.0-64.0-0.0-3.0-0.0,0,0,10,,,,,,62.0,,,,,2.0,,,,,,,,,,,,,,,,,,,,,,,,,,,29.5,1.0,,,,,,
350,,iti,,html-keyboard-response,350,663740,0.0-1.0-64.0-0.0-5.0,0,0,10,,,,,,62.0,,,,,2.0,,,,,,,,,,,,,,,,,,,,,,,,,,,30.5,1.5,,,,,,
351,,choice,,html-keyboard-response,351,664230,0.0-1.0-65.0-0.0-0.0,0,0,10,,486.0,,,51.0,63.0,70.0,1500.0,1500.0,0.0,2.0,0.0,40-80,,1.0,key chain,vase,80.0,40.0,key chain5,vase7,60.0,60.0,keychain-metal-logo.jpg,8246344.thl.jpg,/static/Category_learning/Stimuli/Experimental_stims/key chain/keychain-metal-logo.jpg,/static/Category_learning/Stimuli/Experimental_stims/vase/8246344.thl.jpg,0.0,vase,key chain,40.0,80.0,vase7,key chain5,60.0,60.0,0.0,32.0,0.486,,,,,,
352,,confirmation,,html-keyboard-response,352,665250,0.0-1.0-65.0-0.0-1.0-0.0,0,0,10,,,,,,63.0,,,,,2.0,,,,,,,,,,,,,,,,,,,,,,,,,,,32.486,1.014,,,,,,
353,,isi,,html-keyboard-response,353,666757,0.0-1.0-65.0-0.0-2.0,0,0,10,,,,,,63.0,,,,,2.0,,,,,,,,,,,,,,,,,,,,,,,,,,,33.5,1.5,,,,,,
354,,feedback,,html-keyboard-response,354,667761,0.0-1.0-65.0-0.0-3.0-0.0,0,0,10,,,,,,63.0,,,,,2.0,,,,,,,,,,,,,,,,,,,,,,,,,,,35.0,1.0,,,,,,
355,,iti,,html-keyboard-response,355,669268,0.0-1.0-65.0-0.0-5.0,0,0,10,,,,,,63.0,,,,,2.0,,,,,,,,,,,,,,,,,,,,,,,,,,,36.0,1.5,,,,,,
356,,choice,,html-keyboard-response,356,669752,0.0-1.0-66.0-0.0-0.0,0,0,10,,479.0,,,50.0,64.0,71.0,1000.0,2000.0,0.0,2.0,0.0,20-40,,0.0,power strip,trumpet,20.0,40.0,power strip5,trumpet8,0.0,60.0,93e4a283-bcd6-4ad1-8add-339658cda0fc_400.jpg,trumpet33.jpg,/static/Category_learning/Stimuli/Experimental_stims/power strip/93e4a283-bcd6-4ad1-8add-339658cda0fc_400.jpg,/static/Category_learning/Stimuli/Experimental_stims/trumpet/trumpet33.jpg,1.0,power strip,trumpet,20.0,40.0,power strip5,trumpet8,0.0,60.0,0.0,37.5,0.479,,,,,,
357,,confirmation,,html-keyboard-response,357,670780,0.0-1.0-66.0-0.0-1.0-0.0,0,0,10,,,,,,64.0,,,,,2.0,,,,,,,,,,,,,,,,,,,,,,,,,,,37.979,1.021,,,,,,
358,,isi,,html-keyboard-response,358,671788,0.0-1.0-66.0-0.0-2.0,0,0,10,,,,,,64.0,,,,,2.0,,,,,,,,,,,,,,,,,,,,,,,,,,,39.0,1.0,,,,,,
359,,feedback,,html-keyboard-response,359,672796,0.0-1.0-66.0-0.0-3.0-0.0,0,0,10,,,,,,64.0,,,,,2.0,,,,,,,,,,,,,,,,,,,,,,,,,,,40.0,1.0,,,,,,
360,,iti,,html-keyboard-response,360,674802,0.0-1.0-66.0-0.0-5.0,0,0,10,,,,,,64.0,,,,,2.0,,,,,,,,,,,,,,,,,,,,,,,,,,,41.0,2.0,,,,,,
361,,choice,,html-keyboard-response,361,675359,0.0-1.0-67.0-0.0-0.0,0,0,10,,553.0,,,51.0,65.0,72.0,3500.0,1000.0,0.0,2.0,0.0,40-80,,1.0,key chain,watch,80.0,40.0,key chain10,watch3,80.0,60.0,Smurfs_Keychains_Smurf_Row_Boat.jpg,B0000TIIVO.01._SCLZZZZZZZ_V1124920780_.jpg,/static/Category_learning/Stimuli/Experimental_stims/key chain/Smurfs_Keychains_Smurf_Row_Boat.jpg,/static/Category_learning/Stimuli/Experimental_stims/watch/B0000TIIVO.01._SCLZZZZZZZ_V1124920780_.jpg,0.0,watch,key chain,40.0,80.0,watch3,key chain10,60.0,80.0,0.0,43.0,0.553,,,,,,
362,,confirmation,,html-keyboard-response,362,676311,0.0-1.0-67.0-0.0-1.0-0.0,0,0,10,,,,,,65.0,,,,,2.0,,,,,,,,,,,,,,,,,,,,,,,,,,,43.553,0.947,,,,,,
363,,isi,,html-keyboard-response,363,679815,0.0-1.0-67.0-0.0-2.0,0,0,10,,,,,,65.0,,,,,2.0,,,,,,,,,,,,,,,,,,,,,,,,,,,44.5,3.5,,,,,,
364,,feedback,,html-keyboard-response,364,680823,0.0-1.0-67.0-0.0-3.0-0.0,0,0,10,,,,,,65.0,,,,,2.0,,,,,,,,,,,,,,,,,,,,,,,,,,,48.0,1.0,,,,,,
365,,iti,,html-keyboard-response,365,681831,0.0-1.0-67.0-0.0-5.0,0,0,10,,,,,,65.0,,,,,2.0,,,,,,,,,,,,,,,,,,,,,,,,,,,49.0,1.0,,,,,,
366,,choice,,html-keyboard-response,366,682508,0.0-1.0-68.0-0.0-0.0,0,0,10,,673.0,,,50.0,66.0,73.0,2000.0,2000.0,0.0,2.0,0.0,20-60,,0.0,small table,baby carriage,20.0,60.0,small table3,baby carriage14,20.0,80.0,Atable122.jpg,peg_perego_uno_verde.jpg,/static/Category_learning/Stimuli/Experimental_stims/small table/Atable122.jpg,/static/Category_learning/Stimuli/Experimental_stims/baby carriage/peg_perego_uno_verde.jpg,1.0,small table,baby carriage,20.0,60.0,small table3,baby carriage14,20.0,80.0,0.0,50.0,0.673,,,,,,
367,,confirmation,,html-keyboard-response,367,683340,0.0-1.0-68.0-0.0-1.0-0.0,0,0,10,,,,,,66.0,,,,,2.0,,,,,,,,,,,,,,,,,,,,,,,,,,,50.673,0.827,,,,,,
368,,isi,,html-keyboard-response,368,685346,0.0-1.0-68.0-0.0-2.0,0,0,10,,,,,,66.0,,,,,2.0,,,,,,,,,,,,,,,,,,,,,,,,,,,51.5,2.0,,,,,,
369,,feedback,,html-keyboard-response,369,686354,0.0-1.0-68.0-0.0-3.0-0.0,0,0,10,,,,,,66.0,,,,,2.0,,,,,,,,,,,,,,,,,,,,,,,,,,,53.5,1.0,,,,,,
370,,iti,,html-keyboard-response,370,688359,0.0-1.0-68.0-0.0-5.0,0,0,10,,,,,,66.0,,,,,2.0,,,,,,,,,,,,,,,,,,,,,,,,,,,54.5,2.0,,,,,,
371,,choice,,html-keyboard-response,371,688976,0.0-1.0-69.0-0.0-0.0,0,0,10,,612.0,,,51.0,67.0,74.0,2000.0,3500.0,0.0,2.0,0.0,40-60,,1.0,baby carriage,train,60.0,40.0,baby carriage13,train15,40.0,40.0,300px-Barnevogn2.jpg,master-TD006.jpg,/static/Category_learning/Stimuli/Experimental_stims/baby carriage/300px-Barnevogn2.jpg,/static/Category_learning/Stimuli/Experimental_stims/train/master-TD006.jpg,0.0,train,baby carriage,40.0,60.0,train15,baby carriage13,40.0,40.0,0.0,56.5,0.612,,,,,,
372,,confirmation,,html-keyboard-response,372,689868,0.0-1.0-69.0-0.0-1.0-0.0,0,0,10,,,,,,67.0,,,,,2.0,,,,,,,,,,,,,,,,,,,,,,,,,,,57.112,0.888,,,,,,
373,,isi,,html-keyboard-response,373,691874,0.0-1.0-69.0-0.0-2.0,0,0,10,,,,,,67.0,,,,,2.0,,,,,,,,,,,,,,,,,,,,,,,,,,,58.0,2.0,,,,,,
374,,feedback,,html-keyboard-response,374,692882,0.0-1.0-69.0-0.0-3.0-0.0,0,0,10,,,,,,67.0,,,,,2.0,,,,,,,,,,,,,,,,,,,,,,,,,,,60.0,1.0,,,,,,
375,,iti,,html-keyboard-response,375,696386,0.0-1.0-69.0-0.0-5.0,0,0,10,,,,,,67.0,,,,,2.0,,,,,,,,,,,,,,,,,,,,,,,,,,,61.0,3.5,,,,,,
376,,choice,,html-keyboard-response,376,697895,0.0-1.0-70.0-0.0-0.0,0,0,10,,,,,,68.0,75.0,1000.0,1000.0,0.0,2.0,0.0,40-80,,0.0,trumpet,hat,40.0,80.0,trumpet2,hat12,40.0,60.0,Matt-Stevens-Pocket-Trumpet.jpg,Aformalhat5.jpg,/static/Category_learning/Stimuli/Experimental_stims/trumpet/Matt-Stevens-Pocket-Trumpet.jpg,/static/Category_learning/Stimuli/Experimental_stims/hat/Aformalhat5.jpg,,,,,,,,,,1.0,64.5,1.5,,,,,,
377,,isi,,html-keyboard-response,377,698903,0.0-1.0-70.0-0.0-2.0,0,0,10,,,,,,68.0,,,,,2.0,,,,,,,,,,,,,,,,,,,,,,,,,,,66.0,1.0,,,,,,
378,,no_response,,html-keyboard-response,378,699911,0.0-1.0-70.0-0.0-4.0-0.0,0,0,10,,,,,,68.0,,,,,2.0,,,,,,,,,,,,,,,,,,,,,,,,,,,67.0,1.0,,,,,,
379,,iti,,html-keyboard-response,379,700930,0.0-1.0-70.0-0.0-5.0,0,0,10,,,,,,68.0,,,,,2.0,,,,,,,,,,,,,,,,,,,,,,,,,,,68.0,1.0,,,,,,
380,,choice,,html-keyboard-response,380,701419,0.0-1.0-70.0-0.1-0.1,0,0,10,,486.0,,,51.0,68.0,75.0,1000.0,1000.0,0.0,2.0,0.0,40-80,,0.0,trumpet,hat,40.0,80.0,trumpet2,hat12,40.0,60.0,Matt-Stevens-Pocket-Trumpet.jpg,Aformalhat5.jpg,/static/Category_learning/Stimuli/Experimental_stims/trumpet/Matt-Stevens-Pocket-Trumpet.jpg,/static/Category_learning/Stimuli/Experimental_stims/hat/Aformalhat5.jpg,0.0,hat,trumpet,80.0,40.0,hat12,trumpet2,60.0,40.0,0.0,69.0,0.486,,,,,,
381,,confirmation,,html-keyboard-response,381,702442,0.0-1.0-70.0-0.1-1.1-0.1,0,0,10,,,,,,68.0,,,,,2.0,,,,,,,,,,,,,,,,,,,,,,,,,,,69.486,1.014,,,,,,
382,,isi,,html-keyboard-response,382,703948,0.0-1.0-70.0-0.1-2.1,0,0,10,,,,,,68.0,,,,,2.0,,,,,,,,,,,,,,,,,,,,,,,,,,,70.5,1.5,,,,,,
383,,feedback,,html-keyboard-response,383,704957,0.0-1.0-70.0-0.1-3.1-0.1,0,0,10,,,,,,68.0,,,,,2.0,,,,,,,,,,,,,,,,,,,,,,,,,,,72.0,1.0,,,,,,
384,,iti,,html-keyboard-response,384,705964,0.0-1.0-70.0-0.1-5.1,0,0,10,,,,,,68.0,,,,,2.0,,,,,,,,,,,,,,,,,,,,,,,,,,,73.0,1.0,,,,,,
385,,choice,,html-keyboard-response,385,706514,0.0-1.0-71.0-0.0-0.0,0,0,10,,545.0,,,50.0,69.0,76.0,1000.0,1000.0,0.0,2.0,0.0,20-40,,1.0,trumpet,poker card,40.0,20.0,trumpet1,poker card2,60.0,40.0,JUPITER+TROMPETTE+606MRL.JPG,22864716.thl.jpg,/static/Category_learning/Stimuli/Experimental_stims/trumpet/JUPITER+TROMPETTE+606MRL.JPG,/static/Category_learning/Stimuli/Experimental_stims/poker card/22864716.thl.jpg,1.0,trumpet,poker card,40.0,20.0,trumpet1,poker card2,60.0,40.0,0.0,74.0,0.545,,,,,,
386,,confirmation,,html-keyboard-response,386,707473,0.0-1.0-71.0-0.0-1.0-0.0,0,0,10,,,,,,69.0,,,,,2.0,,,,,,,,,,,,,,,,,,,,,,,,,,,74.545,0.955,,,,,,
387,,isi,,html-keyboard-response,387,708482,0.0-1.0-71.0-0.0-2.0,0,0,10,,,,,,69.0,,,,,2.0,,,,,,,,,,,,,,,,,,,,,,,,,,,75.5,1.0,,,,,,
388,,feedback,,html-keyboard-response,388,709490,0.0-1.0-71.0-0.0-3.0-0.0,0,0,10,,,,,,69.0,,,,,2.0,,,,,,,,,,,,,,,,,,,,,,,,,,,76.5,1.0,,,,,,
389,,iti,,html-keyboard-response,389,710498,0.0-1.0-71.0-0.0-5.0,0,0,10,,,,,,69.0,,,,,2.0,,,,,,,,,,,,,,,,,,,,,,,,,,,77.5,1.0,,,,,,
390,,choice,,html-keyboard-response,390,711177,0.0-1.0-72.0-0.0-0.0,0,0,10,,675.0,,,51.0,70.0,77.0,1500.0,1000.0,0.0,2.0,0.0,20-80,,1.0,microscope,necklace,80.0,20.0,microscope5,necklace4,100.0,20.0,emMicroscope.jpg,emerald_diamond_necklace.jpg,/static/Category_learning/Stimuli/Experimental_stims/microscope/emMicroscope.jpg,/static/Category_learning/Stimuli/Experimental_stims/necklace/emerald_diamond_necklace.jpg,0.0,necklace,microscope,20.0,80.0,necklace4,microscope5,20.0,100.0,0.0,78.5,0.675,,,,,,
391,,confirmation,,html-keyboard-response,391,712008,0.0-1.0-72.0-0.0-1.0-0.0,0,0,10,,,,,,70.0,,,,,2.0,,,,,,,,,,,,,,,,,,,,,,,,,,,79.175,0.825,,,,,,
392,,isi,,html-keyboard-response,392,713511,0.0-1.0-72.0-0.0-2.0,0,0,10,,,,,,70.0,,,,,2.0,,,,,,,,,,,,,,,,,,,,,,,,,,,80.0,1.5,,,,,,
393,,feedback,,html-keyboard-response,393,714519,0.0-1.0-72.0-0.0-3.0-0.0,0,0,10,,,,,,70.0,,,,,2.0,,,,,,,,,,,,,,,,,,,,,,,,,,,81.5,1.0,,,,,,
394,,iti,,html-keyboard-response,394,715527,0.0-1.0-72.0-0.0-5.0,0,0,10,,,,,,70.0,,,,,2.0,,,,,,,,,,,,,,,,,,,,,,,,,,,82.5,1.0,,,,,,
395,,choice,,html-keyboard-response,395,715952,0.0-1.0-73.0-0.0-0.0,0,0,10,,421.0,,,50.0,71.0,78.0,1500.0,2000.0,0.0,2.0,1.0,40-40,1.0,,train,train,40.0,40.0,train15,train6,40.0,20.0,master-TD006.jpg,train9.jpg,/static/Category_learning/Stimuli/Experimental_stims/train/master-TD006.jpg,/static/Category_learning/Stimuli/Experimental_stims/train/train9.jpg,1.0,train,train,40.0,40.0,train15,train6,40.0,20.0,0.0,83.5,0.421,,,,,,
396,,confirmation,,html-keyboard-response,396,717037,0.0-1.0-73.0-0.0-1.0-0.0,0,0,10,,,,,,71.0,,,,,2.0,,,,,,,,,,,,,,,,,,,,,,,,,,,83.921,1.079,,,,,,
397,,isi,,html-keyboard-response,397,718541,0.0-1.0-73.0-0.0-2.0,0,0,10,,,,,,71.0,,,,,2.0,,,,,,,,,,,,,,,,,,,,,,,,,,,85.0,1.5,,,,,,
398,,feedback,,html-keyboard-response,398,719544,0.0-1.0-73.0-0.0-3.0-0.0,0,0,10,,,,,,71.0,,,,,2.0,,,,,,,,,,,,,,,,,,,,,,,,,,,86.5,1.0,,,,,,
399,,iti,,html-keyboard-response,399,721549,0.0-1.0-73.0-0.0-5.0,0,0,10,,,,,,71.0,,,,,2.0,,,,,,,,,,,,,,,,,,,,,,,,,,,87.5,2.0,,,,,,
400,,choice,,html-keyboard-response,400,721997,0.0-1.0-74.0-0.0-0.0,0,0,10,,443.0,,,51.0,72.0,79.0,1500.0,3500.0,0.0,2.0,1.0,20-20,1.0,,nail polish,nail polish,20.0,20.0,nail polish14,nail polish1,40.0,20.0,38031405.JPG,200.jpg,/static/Category_learning/Stimuli/Experimental_stims/nail polish/38031405.JPG,/static/Category_learning/Stimuli/Experimental_stims/nail polish/200.jpg,0.0,nail polish,nail polish,20.0,20.0,nail polish1,nail polish14,20.0,40.0,0.0,89.5,0.443,,,,,,
401,,confirmation,,html-keyboard-response,401,723060,0.0-1.0-74.0-0.0-1.0-0.0,0,0,10,,,,,,72.0,,,,,2.0,,,,,,,,,,,,,,,,,,,,,,,,,,,89.943,1.057,,,,,,
402,,isi,,html-keyboard-response,402,724564,0.0-1.0-74.0-0.0-2.0,0,0,10,,,,,,72.0,,,,,2.0,,,,,,,,,,,,,,,,,,,,,,,,,,,91.0,1.5,,,,,,
403,,feedback,,html-keyboard-response,403,725658,0.0-1.0-74.0-0.0-3.0-0.0,0,0,10,,,,,,72.0,,,,,2.0,,,,,,,,,,,,,,,,,,,,,,,,,,,92.5,1.0,,,,,,
404,,iti,,html-keyboard-response,404,729164,0.0-1.0-74.0-0.0-5.0,0,0,10,,,,,,72.0,,,,,2.0,,,,,,,,,,,,,,,,,,,,,,,,,,,93.5,3.5,,,,,,
405,,choice,,html-keyboard-response,405,729701,0.0-1.0-75.0-0.0-0.0,0,0,10,,534.0,,,50.0,73.0,80.0,1000.0,2000.0,0.0,2.0,0.0,20-80,,0.0,pen,key chain,20.0,80.0,pen6,key chain13,40.0,100.0,executive_pen2.jpg,Fancy_Liquid_Column_Shape_Key_Ring_with_Floater.jpg,/static/Category_learning/Stimuli/Experimental_stims/pen/executive_pen2.jpg,/static/Category_learning/Stimuli/Experimental_stims/key chain/Fancy_Liquid_Column_Shape_Key_Ring_with_Floater.jpg,1.0,pen,key chain,20.0,80.0,pen6,key chain13,40.0,100.0,0.0,97.0,0.534,,,,,,
406,,confirmation,,html-keyboard-response,406,730674,0.0-1.0-75.0-0.0-1.0-0.0,0,0,10,,,,,,73.0,,,,,2.0,,,,,,,,,,,,,,,,,,,,,,,,,,,97.534,0.966,,,,,,
407,,isi,,html-keyboard-response,407,731681,0.0-1.0-75.0-0.0-2.0,0,0,10,,,,,,73.0,,,,,2.0,,,,,,,,,,,,,,,,,,,,,,,,,,,98.5,1.0,,,,,,
408,,feedback,,html-keyboard-response,408,732687,0.0-1.0-75.0-0.0-3.0-0.0,0,0,10,,,,,,73.0,,,,,2.0,,,,,,,,,,,,,,,,,,,,,,,,,,,99.5,1.0,,,,,,
409,,iti,,html-keyboard-response,409,734691,0.0-1.0-75.0-0.0-5.0,0,0,10,,,,,,73.0,,,,,2.0,,,,,,,,,,,,,,,,,,,,,,,,,,,100.5,2.0,,,,,,
410,,choice,,html-keyboard-response,410,735123,0.0-1.0-76.0-0.0-0.0,0,0,10,,428.0,,,51.0,74.0,81.0,3500.0,2000.0,0.0,2.0,0.0,60-60,,,bowl,bench,60.0,60.0,bowl7,bench2,80.0,60.0,Abowl54.jpg,26369969.thl.jpg,/static/Category_learning/Stimuli/Experimental_stims/bowl/Abowl54.jpg,/static/Category_learning/Stimuli/Experimental_stims/bench/26369969.thl.jpg,0.0,bench,bowl,60.0,60.0,bench2,bowl7,60.0,80.0,0.0,102.5,0.428,,,,,,
411,,confirmation,,html-keyboard-response,411,736199,0.0-1.0-76.0-0.0-1.0-0.0,0,0,10,,,,,,74.0,,,,,2.0,,,,,,,,,,,,,,,,,,,,,,,,,,,102.928,1.072,,,,,,
412,,isi,,html-keyboard-response,412,739702,0.0-1.0-76.0-0.0-2.0,0,0,10,,,,,,74.0,,,,,2.0,,,,,,,,,,,,,,,,,,,,,,,,,,,104.0,3.5,,,,,,
413,,feedback,,html-keyboard-response,413,740707,0.0-1.0-76.0-0.0-3.0-0.0,0,0,10,,,,,,74.0,,,,,2.0,,,,,,,,,,,,,,,,,,,,,,,,,,,107.5,1.0,,,,,,
414,,iti,,html-keyboard-response,414,742711,0.0-1.0-76.0-0.0-5.0,0,0,10,,,,,,74.0,,,,,2.0,,,,,,,,,,,,,,,,,,,,,,,,,,,108.5,2.0,,,,,,
415,,choice,,html-keyboard-response,415,743238,0.0-1.0-77.0-0.0-0.0,0,0,10,,525.0,,,51.0,75.0,82.0,1000.0,1500.0,0.0,2.0,0.0,60-80,,1.0,frame,bench,80.0,60.0,frame14,bench1,80.0,40.0,AFRAME129.jpg,26419975.thl.jpg,/static/Category_learning/Stimuli/Experimental_stims/frame/AFRAME129.jpg,/static/Category_learning/Stimuli/Experimental_stims/bench/26419975.thl.jpg,0.0,bench,frame,60.0,80.0,bench1,frame14,40.0,80.0,0.0,110.5,0.525,,,,,,
416,,confirmation,,html-keyboard-response,416,744221,0.0-1.0-77.0-0.0-1.0-0.0,0,0,10,,,,,,75.0,,,,,2.0,,,,,,,,,,,,,,,,,,,,,,,,,,,111.025,0.975,,,,,,
417,,isi,,html-keyboard-response,417,745229,0.0-1.0-77.0-0.0-2.0,0,0,10,,,,,,75.0,,,,,2.0,,,,,,,,,,,,,,,,,,,,,,,,,,,112.0,1.0,,,,,,
418,,feedback,,html-keyboard-response,418,746237,0.0-1.0-77.0-0.0-3.0-0.0,0,0,10,,,,,,75.0,,,,,2.0,,,,,,,,,,,,,,,,,,,,,,,,,,,113.0,1.0,,,,,,
419,,iti,,html-keyboard-response,419,747743,0.0-1.0-77.0-0.0-5.0,0,0,10,,,,,,75.0,,,,,2.0,,,,,,,,,,,,,,,,,,,,,,,,,,,114.0,1.5,,,,,,
420,,choice,,html-keyboard-response,420,748302,0.0-1.0-78.0-0.0-0.0,0,0,10,,555.0,,,51.0,76.0,83.0,1500.0,1000.0,0.0,2.0,0.0,20-80,,1.0,key chain,poker card,80.0,20.0,key chain6,poker card12,80.0,20.0,highboy_keychain_ItemCA75384.jpg,22865676.thl.jpg,/static/Category_learning/Stimuli/Experimental_stims/key chain/highboy_keychain_ItemCA75384.jpg,/static/Category_learning/Stimuli/Experimental_stims/poker card/22865676.thl.jpg,0.0,poker card,key chain,20.0,80.0,poker card12,key chain6,20.0,80.0,0.0,115.5,0.555,,,,,,
421,,confirmation,,html-keyboard-response,421,749256,0.0-1.0-78.0-0.0-1.0-0.0,0,0,10,,,,,,76.0,,,,,2.0,,,,,,,,,,,,,,,,,,,,,,,,,,,116.055,0.945,,,,,,
422,,isi,,html-keyboard-response,422,750761,0.0-1.0-78.0-0.0-2.0,0,0,10,,,,,,76.0,,,,,2.0,,,,,,,,,,,,,,,,,,,,,,,,,,,117.0,1.5,,,,,,
423,,feedback,,html-keyboard-response,423,751768,0.0-1.0-78.0-0.0-3.0-0.0,0,0,10,,,,,,76.0,,,,,2.0,,,,,,,,,,,,,,,,,,,,,,,,,,,118.5,1.0,,,,,,
424,,iti,,html-keyboard-response,424,752776,0.0-1.0-78.0-0.0-5.0,0,0,10,,,,,,76.0,,,,,2.0,,,,,,,,,,,,,,,,,,,,,,,,,,,119.5,1.0,,,,,,
425,,choice,,html-keyboard-response,425,753942,0.0-1.0-79.0-0.0-0.0,0,0,10,,1164.0,,,51.0,77.0,84.0,2000.0,1500.0,0.0,2.0,0.0,20-60,,0.0,poker card,bowl,20.0,60.0,poker card6,bowl1,40.0,40.0,22864212.thl.jpg,ABOWLS6.jpg,/static/Category_learning/Stimuli/Experimental_stims/poker card/22864212.thl.jpg,/static/Category_learning/Stimuli/Experimental_stims/bowl/ABOWLS6.jpg,0.0,bowl,poker card,60.0,20.0,bowl1,poker card6,40.0,40.0,0.0,120.5,1.164,,,,,,
426,,confirmation,,html-keyboard-response,426,754285,0.0-1.0-79.0-0.0-1.0-0.0,0,0,10,,,,,,77.0,,,,,2.0,,,,,,,,,,,,,,,,,,,,,,,,,,,121.664,0.336,,,,,,
427,,isi,,html-keyboard-response,427,756289,0.0-1.0-79.0-0.0-2.0,0,0,10,,,,,,77.0,,,,,2.0,,,,,,,,,,,,,,,,,,,,,,,,,,,122.0,2.0,,,,,,
428,,feedback,,html-keyboard-response,428,757292,0.0-1.0-79.0-0.0-3.0-0.0,0,0,10,,,,,,77.0,,,,,2.0,,,,,,,,,,,,,,,,,,,,,,,,,,,124.0,1.0,,,,,,
429,,iti,,html-keyboard-response,429,758797,0.0-1.0-79.0-0.0-5.0,0,0,10,,,,,,77.0,,,,,2.0,,,,,,,,,,,,,,,,,,,,,,,,,,,125.0,1.5,,,,,,
430,,choice,,html-keyboard-response,430,759439,0.0-1.0-80.0-0.0-0.0,0,0,10,,637.0,,,51.0,78.0,85.0,1500.0,3500.0,0.0,2.0,1.0,60-60,1.0,,bench,bench,60.0,60.0,bench7,bench4,40.0,40.0,ACONBENCH.jpg,30892819.thl.jpg,/static/Category_learning/Stimuli/Experimental_stims/bench/ACONBENCH.jpg,/static/Category_learning/Stimuli/Experimental_stims/bench/30892819.thl.jpg,0.0,bench,bench,60.0,60.0,bench4,bench7,40.0,40.0,0.0,126.5,0.637,,,,,,
431,,confirmation,,html-keyboard-response,431,760307,0.0-1.0-80.0-0.0-1.0-0.0,0,0,10,,,,,,78.0,,,,,2.0,,,,,,,,,,,,,,,,,,,,,,,,,,,127.137,0.863,,,,,,
432,,isi,,html-keyboard-response,432,761811,0.0-1.0-80.0-0.0-2.0,0,0,10,,,,,,78.0,,,,,2.0,,,,,,,,,,,,,,,,,,,,,,,,,,,128.0,1.5,,,,,,
433,,feedback,,html-keyboard-response,433,762817,0.0-1.0-80.0-0.0-3.0-0.0,0,0,10,,,,,,78.0,,,,,2.0,,,,,,,,,,,,,,,,,,,,,,,,,,,129.5,1.0,,,,,,
434,,iti,,html-keyboard-response,434,766324,0.0-1.0-80.0-0.0-5.0,0,0,10,,,,,,78.0,,,,,2.0,,,,,,,,,,,,,,,,,,,,,,,,,,,130.5,3.5,,,,,,
435,,choice,,html-keyboard-response,435,766962,0.0-1.0-81.0-0.0-0.0,0,0,10,,635.0,,,51.0,79.0,86.0,1000.0,1000.0,0.0,2.0,0.0,40-80,,1.0,frame,tape,80.0,40.0,frame1,tape11,80.0,20.0,AFRAME127.jpg,41FZA73H4JL._AA280_.jpg,/static/Category_learning/Stimuli/Experimental_stims/frame/AFRAME127.jpg,/static/Category_learning/Stimuli/Experimental_stims/tape/41FZA73H4JL._AA280_.jpg,0.0,tape,frame,40.0,80.0,tape11,frame1,20.0,80.0,0.0,134.0,0.635,,,,,,
436,,confirmation,,html-keyboard-response,436,767831,0.0-1.0-81.0-0.0-1.0-0.0,0,0,10,,,,,,79.0,,,,,2.0,,,,,,,,,,,,,,,,,,,,,,,,,,,134.635,0.865,,,,,,
437,,isi,,html-keyboard-response,437,768834,0.0-1.0-81.0-0.0-2.0,0,0,10,,,,,,79.0,,,,,2.0,,,,,,,,,,,,,,,,,,,,,,,,,,,135.5,1.0,,,,,,
438,,feedback,,html-keyboard-response,438,769842,0.0-1.0-81.0-0.0-3.0-0.0,0,0,10,,,,,,79.0,,,,,2.0,,,,,,,,,,,,,,,,,,,,,,,,,,,136.5,1.0,,,,,,
439,,iti,,html-keyboard-response,439,770847,0.0-1.0-81.0-0.0-5.0,0,0,10,,,,,,79.0,,,,,2.0,,,,,,,,,,,,,,,,,,,,,,,,,,,137.5,1.0,,,,,,
440,,choice,,html-keyboard-response,440,771771,0.0-1.0-82.0-0.0-0.0,0,0,10,,921.0,,,51.0,80.0,87.0,1500.0,1000.0,0.0,2.0,0.0,20-60,,1.0,bowl,seashell,60.0,20.0,bowl12,seashell1,40.0,0.0,Abowl52.jpg,Aseashe34.jpg,/static/Category_learning/Stimuli/Experimental_stims/bowl/Abowl52.jpg,/static/Category_learning/Stimuli/Experimental_stims/seashell/Aseashe34.jpg,0.0,seashell,bowl,20.0,60.0,seashell1,bowl12,0.0,40.0,0.0,138.5,0.921,,,,,,
441,,confirmation,,html-keyboard-response,441,772356,0.0-1.0-82.0-0.0-1.0-0.0,0,0,10,,,,,,80.0,,,,,2.0,,,,,,,,,,,,,,,,,,,,,,,,,,,139.421,0.579,,,,,,
442,,isi,,html-keyboard-response,442,773863,0.0-1.0-82.0-0.0-2.0,0,0,10,,,,,,80.0,,,,,2.0,,,,,,,,,,,,,,,,,,,,,,,,,,,140.0,1.5,,,,,,
443,,feedback,,html-keyboard-response,443,774870,0.0-1.0-82.0-0.0-3.0-0.0,0,0,10,,,,,,80.0,,,,,2.0,,,,,,,,,,,,,,,,,,,,,,,,,,,141.5,1.0,,,,,,
444,,iti,,html-keyboard-response,444,775873,0.0-1.0-82.0-0.0-5.0,0,0,10,,,,,,80.0,,,,,2.0,,,,,,,,,,,,,,,,,,,,,,,,,,,142.5,1.0,,,,,,
445,,choice,,html-keyboard-response,445,777378,0.0-1.0-83.0-0.0-0.0,0,0,10,,,,,,81.0,88.0,1500.0,1000.0,0.0,2.0,0.0,40-60,,1.0,desk,watch,60.0,40.0,desk2,watch15,80.0,40.0,AA Luffield Radial crescent Desk 1600mm x 1200mm.jpg,20-171-6.jpg,/static/Category_learning/Stimuli/Experimental_stims/desk/AA Luffield Radial crescent Desk 1600mm x 1200mm.jpg,/static/Category_learning/Stimuli/Experimental_stims/watch/20-171-6.jpg,,,,,,,,,,1.0,143.5,1.5,,,,,,
446,,isi,,html-keyboard-response,446,778882,0.0-1.0-83.0-0.0-2.0,0,0,10,,,,,,81.0,,,,,2.0,,,,,,,,,,,,,,,,,,,,,,,,,,,145.0,1.5,,,,,,
447,,no_response,,html-keyboard-response,447,779884,0.0-1.0-83.0-0.0-4.0-0.0,0,0,10,,,,,,81.0,,,,,2.0,,,,,,,,,,,,,,,,,,,,,,,,,,,146.5,1.0,,,,,,
448,,iti,,html-keyboard-response,448,780905,0.0-1.0-83.0-0.0-5.0,0,0,10,,,,,,81.0,,,,,2.0,,,,,,,,,,,,,,,,,,,,,,,,,,,147.5,1.0,,,,,,
449,,choice,,html-keyboard-response,449,781485,0.0-1.0-83.0-0.1-0.1,0,0,10,,577.0,,,51.0,81.0,88.0,1500.0,1000.0,0.0,2.0,0.0,40-60,,1.0,desk,watch,60.0,40.0,desk2,watch15,80.0,40.0,AA Luffield Radial crescent Desk 1600mm x 1200mm.jpg,20-171-6.jpg,/static/Category_learning/Stimuli/Experimental_stims/desk/AA Luffield Radial crescent Desk 1600mm x 1200mm.jpg,/static/Category_learning/Stimuli/Experimental_stims/watch/20-171-6.jpg,0.0,watch,desk,40.0,60.0,watch15,desk2,40.0,80.0,0.0,148.5,0.577,,,,,,
450,,confirmation,,html-keyboard-response,450,782414,0.0-1.0-83.0-0.1-1.1-0.1,0,0,10,,,,,,81.0,,,,,2.0,,,,,,,,,,,,,,,,,,,,,,,,,,,149.077,0.923,,,,,,
451,,isi,,html-keyboard-response,451,784419,0.0-1.0-83.0-0.1-2.1,0,0,10,,,,,,81.0,,,,,2.0,,,,,,,,,,,,,,,,,,,,,,,,,,,150.0,2.0,,,,,,
452,,feedback,,html-keyboard-response,452,785426,0.0-1.0-83.0-0.1-3.1-0.1,0,0,10,,,,,,81.0,,,,,2.0,,,,,,,,,,,,,,,,,,,,,,,,,,,152.0,1.0,,,,,,
453,,iti,,html-keyboard-response,453,786432,0.0-1.0-83.0-0.1-5.1,0,0,10,,,,,,81.0,,,,,2.0,,,,,,,,,,,,,,,,,,,,,,,,,,,153.0,1.0,,,,,,
454,,choice,,html-keyboard-response,454,786915,0.0-1.0-84.0-0.0-0.0,0,0,10,,480.0,,,51.0,82.0,89.0,1000.0,3000.0,0.0,2.0,1.0,40-40,1.0,,tent,tent,40.0,40.0,tent4,tent2,40.0,40.0,Atent12.jpg,Atent16.jpg,/static/Category_learning/Stimuli/Experimental_stims/tent/Atent12.jpg,/static/Category_learning/Stimuli/Experimental_stims/tent/Atent16.jpg,0.0,tent,tent,40.0,40.0,tent2,tent4,40.0,40.0,0.0,154.0,0.48,,,,,,
455,,confirmation,,html-keyboard-response,455,787943,0.0-1.0-84.0-0.0-1.0-0.0,0,0,10,,,,,,82.0,,,,,2.0,,,,,,,,,,,,,,,,,,,,,,,,,,,154.48,1.02,,,,,,
456,,isi,,html-keyboard-response,456,788946,0.0-1.0-84.0-0.0-2.0,0,0,10,,,,,,82.0,,,,,2.0,,,,,,,,,,,,,,,,,,,,,,,,,,,155.5,1.0,,,,,,
457,,feedback,,html-keyboard-response,457,789949,0.0-1.0-84.0-0.0-3.0-0.0,0,0,10,,,,,,82.0,,,,,2.0,,,,,,,,,,,,,,,,,,,,,,,,,,,156.5,1.0,,,,,,
458,,iti,,html-keyboard-response,458,792956,0.0-1.0-84.0-0.0-5.0,0,0,10,,,,,,82.0,,,,,2.0,,,,,,,,,,,,,,,,,,,,,,,,,,,157.5,3.0,,,,,,
459,,choice,,html-keyboard-response,459,793409,0.0-1.0-85.0-0.0-0.0,0,0,10,,450.0,,,50.0,83.0,90.0,1000.0,1000.0,0.0,2.0,0.0,40-60,,0.0,tape,dresser,40.0,60.0,tape1,dresser2,20.0,80.0,aktotape_01.jpg,ADRESSE46.jpg,/static/Category_learning/Stimuli/Experimental_stims/tape/aktotape_01.jpg,/static/Category_learning/Stimuli/Experimental_stims/dresser/ADRESSE46.jpg,1.0,tape,dresser,40.0,60.0,tape1,dresser2,20.0,80.0,0.0,160.5,0.45,,,,,,
460,,confirmation,,html-keyboard-response,460,794467,0.0-1.0-85.0-0.0-1.0-0.0,0,0,10,,,,,,83.0,,,,,2.0,,,,,,,,,,,,,,,,,,,,,,,,,,,160.95,1.05,,,,,,
461,,isi,,html-keyboard-response,461,795474,0.0-1.0-85.0-0.0-2.0,0,0,10,,,,,,83.0,,,,,2.0,,,,,,,,,,,,,,,,,,,,,,,,,,,162.0,1.0,,,,,,
462,,feedback,,html-keyboard-response,462,796479,0.0-1.0-85.0-0.0-3.0-0.0,0,0,10,,,,,,83.0,,,,,2.0,,,,,,,,,,,,,,,,,,,,,,,,,,,163.0,1.0,,,,,,
463,,iti,,html-keyboard-response,463,797485,0.0-1.0-85.0-0.0-5.0,0,0,10,,,,,,83.0,,,,,2.0,,,,,,,,,,,,,,,,,,,,,,,,,,,164.0,1.0,,,,,,
464,,choice,,html-keyboard-response,464,798989,0.0-1.0-86.0-0.0-0.0,0,0,10,,,,,,84.0,91.0,2000.0,1000.0,0.0,2.0,0.0,80-80,,,lipstick,frame,80.0,80.0,lipstick3,frame6,80.0,60.0,31sCvjMS3jL._SS500_.jpg,AFRAME123.jpg,/static/Category_learning/Stimuli/Experimental_stims/lipstick/31sCvjMS3jL._SS500_.jpg,/static/Category_learning/Stimuli/Experimental_stims/frame/AFRAME123.jpg,,,,,,,,,,1.0,165.0,1.5,,,,,,
465,,isi,,html-keyboard-response,465,800995,0.0-1.0-86.0-0.0-2.0,0,0,10,,,,,,84.0,,,,,2.0,,,,,,,,,,,,,,,,,,,,,,,,,,,166.5,2.0,,,,,,
466,,no_response,,html-keyboard-response,466,802001,0.0-1.0-86.0-0.0-4.0-0.0,0,0,10,,,,,,84.0,,,,,2.0,,,,,,,,,,,,,,,,,,,,,,,,,,,168.5,1.0,,,,,,
467,,iti,,html-keyboard-response,467,803015,0.0-1.0-86.0-0.0-5.0,0,0,10,,,,,,84.0,,,,,2.0,,,,,,,,,,,,,,,,,,,,,,,,,,,169.5,1.0,,,,,,
468,,choice,,html-keyboard-response,468,803576,0.0-1.0-86.0-0.1-0.1,0,0,10,,558.0,,,51.0,84.0,91.0,2000.0,1000.0,0.0,2.0,0.0,80-80,,,lipstick,frame,80.0,80.0,lipstick3,frame6,80.0,60.0,31sCvjMS3jL._SS500_.jpg,AFRAME123.jpg,/static/Category_learning/Stimuli/Experimental_stims/lipstick/31sCvjMS3jL._SS500_.jpg,/static/Category_learning/Stimuli/Experimental_stims/frame/AFRAME123.jpg,0.0,frame,lipstick,80.0,80.0,frame6,lipstick3,60.0,80.0,0.0,170.5,0.558,,,,,,
469,,confirmation,,html-keyboard-response,469,804525,0.0-1.0-86.0-0.1-1.1-0.1,0,0,10,,,,,,84.0,,,,,2.0,,,,,,,,,,,,,,,,,,,,,,,,,,,171.058,0.942,,,,,,
470,,isi,,html-keyboard-response,470,806529,0.0-1.0-86.0-0.1-2.1,0,0,10,,,,,,84.0,,,,,2.0,,,,,,,,,,,,,,,,,,,,,,,,,,,172.0,2.0,,,,,,
471,,feedback,,html-keyboard-response,471,807533,0.0-1.0-86.0-0.1-3.1-0.1,0,0,10,,,,,,84.0,,,,,2.0,,,,,,,,,,,,,,,,,,,,,,,,,,,174.0,1.0,,,,,,
472,,iti,,html-keyboard-response,472,808541,0.0-1.0-86.0-0.1-5.1,0,0,10,,,,,,84.0,,,,,2.0,,,,,,,,,,,,,,,,,,,,,,,,,,,175.0,1.0,,,,,,
473,,choice,,html-keyboard-response,473,810050,0.0-1.0-87.0-0.0-0.0,0,0,10,,,,,,85.0,92.0,1500.0,1500.0,0.0,2.0,0.0,40-80,,0.0,yarn,hat,40.0,80.0,yarn9,hat9,60.0,100.0,Aballofyarn26.jpg,Astrawhat44.jpg,/static/Category_learning/Stimuli/Experimental_stims/yarn/Aballofyarn26.jpg,/static/Category_learning/Stimuli/Experimental_stims/hat/Astrawhat44.jpg,,,,,,,,,,1.0,176.0,1.5,,,,,,
474,,isi,,html-keyboard-response,474,811555,0.0-1.0-87.0-0.0-2.0,0,0,10,,,,,,85.0,,,,,2.0,,,,,,,,,,,,,,,,,,,,,,,,,,,177.5,1.5,,,,,,
475,,no_response,,html-keyboard-response,475,812562,0.0-1.0-87.0-0.0-4.0-0.0,0,0,10,,,,,,85.0,,,,,2.0,,,,,,,,,,,,,,,,,,,,,,,,,,,179.0,1.0,,,,,,
476,,iti,,html-keyboard-response,476,814077,0.0-1.0-87.0-0.0-5.0,0,0,10,,,,,,85.0,,,,,2.0,,,,,,,,,,,,,,,,,,,,,,,,,,,180.0,1.5,,,,,,
477,,choice,,html-keyboard-response,477,814428,0.0-1.0-87.0-0.1-0.1,0,0,10,,348.0,,,51.0,85.0,92.0,1500.0,1500.0,0.0,2.0,0.0,40-80,,0.0,yarn,hat,40.0,80.0,yarn9,hat9,60.0,100.0,Aballofyarn26.jpg,Astrawhat44.jpg,/static/Category_learning/Stimuli/Experimental_stims/yarn/Aballofyarn26.jpg,/static/Category_learning/Stimuli/Experimental_stims/hat/Astrawhat44.jpg,0.0,hat,yarn,80.0,40.0,hat9,yarn9,100.0,60.0,0.0,181.5,0.348,,,,,,
478,,confirmation,,html-keyboard-response,478,815587,0.0-1.0-87.0-0.1-1.1-0.1,0,0,10,,,,,,85.0,,,,,2.0,,,,,,,,,,,,,,,,,,,,,,,,,,,181.848,1.152,,,,,,
479,,isi,,html-keyboard-response,479,816594,0.0-1.0-87.0-0.1-2.1,0,0,10,,,,,,85.0,,,,,2.0,,,,,,,,,,,,,,,,,,,,,,,,,,,183.0,1.0,,,,,,
480,,feedback,,html-keyboard-response,480,817602,0.0-1.0-87.0-0.1-3.1-0.1,0,0,10,,,,,,85.0,,,,,2.0,,,,,,,,,,,,,,,,,,,,,,,,,,,184.0,1.0,,,,,,
481,,iti,,html-keyboard-response,481,818606,0.0-1.0-87.0-0.1-5.1,0,0,10,,,,,,85.0,,,,,2.0,,,,,,,,,,,,,,,,,,,,,,,,,,,185.0,1.0,,,,,,
482,,choice,,html-keyboard-response,482,819189,0.0-1.0-88.0-0.0-0.0,0,0,10,,579.0,,,51.0,86.0,93.0,1000.0,1000.0,0.0,2.0,0.0,20-80,,0.0,power strip,motorcycle,20.0,80.0,power strip7,motorcycle13,20.0,80.0,412YZ25RFBL._AA262_.jpg,2005-Buell-FireboltXB12R.jpg,/static/Category_learning/Stimuli/Experimental_stims/power strip/412YZ25RFBL._AA262_.jpg,/static/Category_learning/Stimuli/Experimental_stims/motorcycle/2005-Buell-FireboltXB12R.jpg,0.0,motorcycle,power strip,80.0,20.0,motorcycle13,power strip7,80.0,20.0,0.0,186.0,0.579,,,,,,
483,,confirmation,,html-keyboard-response,483,820114,0.0-1.0-88.0-0.0-1.0-0.0,0,0,10,,,,,,86.0,,,,,2.0,,,,,,,,,,,,,,,,,,,,,,,,,,,186.579,0.921,,,,,,
484,,isi,,html-keyboard-response,484,821117,0.0-1.0-88.0-0.0-2.0,0,0,10,,,,,,86.0,,,,,2.0,,,,,,,,,,,,,,,,,,,,,,,,,,,187.5,1.0,,,,,,
485,,feedback,,html-keyboard-response,485,822120,0.0-1.0-88.0-0.0-3.0-0.0,0,0,10,,,,,,86.0,,,,,2.0,,,,,,,,,,,,,,,,,,,,,,,,,,,188.5,1.0,,,,,,
486,,iti,,html-keyboard-response,486,823123,0.0-1.0-88.0-0.0-5.0,0,0,10,,,,,,86.0,,,,,2.0,,,,,,,,,,,,,,,,,,,,,,,,,,,189.5,1.0,,,,,,
