,success,ttype,start_time,trial_type,trial_index,time_elapsed,internal_node_id,warning,missed_checkup,PID,view_history,rt,responses,repeat_instructions,key_press,index,trial_num,isi,iti,is_practice,block,old_trial,pair_type,within_category,high_cat_on_left,left_category,right_category,left_category_value,right_category_value,left_exemplar,right_exemplar,left_exemplar_value,right_exemplar_value,left_img,right_img,left_img_path,right_img_path,no_response,onset,duration,left_chosen,chosen_category,unchosen_category,chosen_category_value,unchosen_category_value,chosen_exemplar,unchosen_exemplar,chosen_exemplar_value,unchosen_exemplar_value,end_practice,total_bonus_tally,category,category_group_value,category_value_response,did_not_enter_response
0,True,full_screen,d06232022hr1433,fullscreen,0,1294714,0.0-0.0,0,0,98,,,,,,,,,,,,,,,,,,,,,,,,,,,,,,,,,,,,,,,,,,,,,
1,,category_learning_instructions,,instructions,1,1507063,0.0-1.0-0.0-0.0,0,0,98,"[{""page_index"":0,""viewing_time"":90520},{""page_index"":1,""viewing_time"":21281},{""page_index"":2,""viewing_time"":25714},{""page_index"":3,""viewing_time"":23480},{""page_index"":4,""viewing_time"":16200},{""page_index"":5,""viewing_time"":26966},{""page_index"":6,""viewing_time"":8182}]",212345.0,,,,,,,,,,,,,,,,,,,,,,,,,,,,,,,,,,,,,,,,,,,
2,,category_learning_comprehension_check,,survey-multi-choice,2,1561705,0.0-1.0-0.0-1.0,0,0,98,,54636.0,"{""Q0"":""True"",""Q1"":""True"",""Q2"":""Stay the same"",""Q3"":""pointer finger for left and middle finger for right""}",0.0,,,,,,,,,,,,,,,,,,,,,,,,,,,,,,,,,,,,,,,,,
3,,,,html-keyboard-response,3,1597694,0.0-1.0-1.0,0,0,98,,35984.0,,,83.0,,,,,,,,,,,,,,,,,,,,,,,,,,,,,,,,,,,,,,,,
4,,choice,,html-keyboard-response,4,1599204,0.0-1.0-2.0-0.0-0.0,0,0,98,,,,,,0.0,0.0,1500.0,1000.0,1.0,0.0,0.0,20-80,,0.0,bagel,dumbbell,20.0,80.0,bagel1,dumbbell1,0.0,80.0,bagels_pumpernickel_large.jpg,31B64EN68AL._AA280_.jpg,/static/Category_learning/Stimuli/Practice_stims/bagel/bagels_pumpernickel_large.jpg,/static/Category_learning/Stimuli/Practice_stims/dumbbell/31B64EN68AL._AA280_.jpg,1.0,0.0,1.5,,,,,,,,,,,,,,,
5,,isi,,html-keyboard-response,5,1600713,0.0-1.0-2.0-0.0-2.0,0,0,98,,,,,,0.0,,,,,0.0,,,,,,,,,,,,,,,,,,1.5,1.5,,,,,,,,,,,,,,,
6,,no_response,,html-keyboard-response,6,1601720,0.0-1.0-2.0-0.0-4.0-0.0,0,0,98,,,,,,0.0,,,,,0.0,,,,,,,,,,,,,,,,,,3.0,1.0,,,,,,,,,,,,,,,
7,,iti,,html-keyboard-response,7,1602728,0.0-1.0-2.0-0.0-5.0,0,0,98,,,,,,0.0,,,,,0.0,,,,,,,,,,,,,,,,,,4.0,1.0,,,,,,,,,,,,,,,
8,,choice,,html-keyboard-response,8,1603659,0.0-1.0-2.0-0.1-0.1,0,0,98,,926.0,,,50.0,0.0,0.0,1500.0,1000.0,1.0,0.0,0.0,20-80,,0.0,bagel,dumbbell,20.0,80.0,bagel1,dumbbell1,0.0,80.0,bagels_pumpernickel_large.jpg,31B64EN68AL._AA280_.jpg,/static/Category_learning/Stimuli/Practice_stims/bagel/bagels_pumpernickel_large.jpg,/static/Category_learning/Stimuli/Practice_stims/dumbbell/31B64EN68AL._AA280_.jpg,0.0,5.0,0.926,1.0,bagel,dumbbell,20.0,80.0,bagel1,dumbbell1,0.0,80.0,,,,,,
9,,confirmation,,html-keyboard-response,9,1604238,0.0-1.0-2.0-0.1-1.1-0.1,0,0,98,,,,,,0.0,,,,,0.0,,,,,,,,,,,,,,,,,,5.926,0.574,,,,,,,,,,,,,,,
10,,isi,,html-keyboard-response,10,1605742,0.0-1.0-2.0-0.1-2.1,0,0,98,,,,,,0.0,,,,,0.0,,,,,,,,,,,,,,,,,,6.5,1.5,,,,,,,,,,,,,,,
11,,feedback,,html-keyboard-response,11,1606750,0.0-1.0-2.0-0.1-3.1-0.1,0,0,98,,,,,,0.0,,,,,0.0,,,,,,,,,,,,,,,,,,8.0,1.0,,,,,,,,,,,,,,,
12,,iti,,html-keyboard-response,12,1607754,0.0-1.0-2.0-0.1-5.1,0,0,98,,,,,,0.0,,,,,0.0,,,,,,,,,,,,,,,,,,9.0,1.0,,,,,,,,,,,,,,,
13,,choice,,html-keyboard-response,13,1608885,0.0-1.0-3.0-0.0-0.0,0,0,98,,1127.0,,,50.0,1.0,1.0,3000.0,1500.0,1.0,0.0,0.0,20-40,,1.0,calculator,bagel,40.0,20.0,calculator2,bagel2,20.0,20.0,22829064.thl.jpg,bagels_cinnraisin_large.jpg,/static/Category_learning/Stimuli/Practice_stims/calculator/22829064.thl.jpg,/static/Category_learning/Stimuli/Practice_stims/bagel/bagels_cinnraisin_large.jpg,0.0,10.0,1.127,1.0,calculator,bagel,40.0,20.0,calculator2,bagel2,20.0,20.0,,,,,,
14,,confirmation,,html-keyboard-response,14,1609262,0.0-1.0-3.0-0.0-1.0-0.0,0,0,98,,,,,,1.0,,,,,0.0,,,,,,,,,,,,,,,,,,11.127,0.373,,,,,,,,,,,,,,,
15,,isi,,html-keyboard-response,15,1612270,0.0-1.0-3.0-0.0-2.0,0,0,98,,,,,,1.0,,,,,0.0,,,,,,,,,,,,,,,,,,11.5,3.0,,,,,,,,,,,,,,,
16,,feedback,,html-keyboard-response,16,1613278,0.0-1.0-3.0-0.0-3.0-0.0,0,0,98,,,,,,1.0,,,,,0.0,,,,,,,,,,,,,,,,,,14.5,1.0,,,,,,,,,,,,,,,
17,,iti,,html-keyboard-response,17,1614782,0.0-1.0-3.0-0.0-5.0,0,0,98,,,,,,1.0,,,,,0.0,,,,,,,,,,,,,,,,,,15.5,1.5,,,,,,,,,,,,,,,
18,,choice,,html-keyboard-response,18,1616024,0.0-1.0-4.0-0.0-0.0,0,0,98,,1238.0,,,51.0,2.0,2.0,2000.0,3000.0,1.0,0.0,0.0,60-80,,0.0,clock,dumbbell,60.0,80.0,clock2,dumbbell2,60.0,100.0,26373355.thl.jpg,31K8MR6TMBL._SS500_.jpg,/static/Category_learning/Stimuli/Practice_stims/clock/26373355.thl.jpg,/static/Category_learning/Stimuli/Practice_stims/dumbbell/31K8MR6TMBL._SS500_.jpg,0.0,17.0,1.238,0.0,dumbbell,clock,80.0,60.0,dumbbell2,clock2,100.0,60.0,,,,,,
19,,confirmation,,html-keyboard-response,19,1616291,0.0-1.0-4.0-0.0-1.0-0.0,0,0,98,,,,,,2.0,,,,,0.0,,,,,,,,,,,,,,,,,,18.238,0.262,,,,,,,,,,,,,,,
20,,isi,,html-keyboard-response,20,1618297,0.0-1.0-4.0-0.0-2.0,0,0,98,,,,,,2.0,,,,,0.0,,,,,,,,,,,,,,,,,,18.5,2.0,,,,,,,,,,,,,,,
21,,feedback,,html-keyboard-response,21,1619304,0.0-1.0-4.0-0.0-3.0-0.0,0,0,98,,,,,,2.0,,,,,0.0,,,,,,,,,,,,,,,,,,20.5,1.0,,,,,,,,,,,,,,,
22,,iti,,html-keyboard-response,22,1622312,0.0-1.0-4.0-0.0-5.0,0,0,98,,,,,,2.0,,,,,0.0,,,,,,,,,,,,,,,,,,21.5,3.0,,,,,,,,,,,,,,,
23,,choice,,html-keyboard-response,23,1623335,0.0-1.0-5.0-0.0-0.0,0,0,98,,1019.0,,,51.0,3.0,3.0,1000.0,2000.0,1.0,0.0,0.0,40-80,,0.0,calculator,clock,40.0,60.0,calculator1,clock1,40.0,40.0,22829184.thl.jpg,Aalarmclock2.jpg,/static/Category_learning/Stimuli/Practice_stims/calculator/22829184.thl.jpg,/static/Category_learning/Stimuli/Practice_stims/clock/Aalarmclock2.jpg,0.0,24.5,1.019,0.0,clock,calculator,60.0,40.0,clock1,calculator1,40.0,40.0,,,,,,
24,,confirmation,,html-keyboard-response,24,1623822,0.0-1.0-5.0-0.0-1.0-0.0,0,0,98,,,,,,3.0,,,,,0.0,,,,,,,,,,,,,,,,,,25.519,0.481,,,,,,,,,,,,,,,
25,,isi,,html-keyboard-response,25,1624830,0.0-1.0-5.0-0.0-2.0,0,0,98,,,,,,3.0,,,,,0.0,,,,,,,,,,,,,,,,,,26.0,1.0,,,,,,,,,,,,,,,
26,,feedback,,html-keyboard-response,26,1625837,0.0-1.0-5.0-0.0-3.0-0.0,0,0,98,,,,,,3.0,,,,,0.0,,,,,,,,,,,,,,,,,,27.0,1.0,,,,,,,,,,,,,,,
27,,iti,,html-keyboard-response,27,1627843,0.0-1.0-5.0-0.0-5.0,0,0,98,,,,,,3.0,,,,,0.0,,,,,,,,,,,,,,,,,,28.0,2.0,,,,,,,,,,,,,,,
28,,choice,,html-keyboard-response,28,1628773,0.0-1.0-6.0-0.0-0.0,0,0,98,,926.0,,,50.0,4.0,4.0,2500.0,2500.0,1.0,0.0,0.0,20-60,,1.0,dumbbell,bagel,80.0,20.0,dumbbell3,bagel3,100.0,40.0,41K7QVRX50L._SS500_.jpg,photo-169.jpg,/static/Category_learning/Stimuli/Practice_stims/dumbbell/41K7QVRX50L._SS500_.jpg,/static/Category_learning/Stimuli/Practice_stims/bagel/photo-169.jpg,0.0,30.0,0.926,1.0,dumbbell,bagel,80.0,20.0,dumbbell3,bagel3,100.0,40.0,1.0,,,,,
29,,confirmation,,html-keyboard-response,29,1629352,0.0-1.0-6.0-0.0-1.0-0.0,0,0,98,,,,,,4.0,,,,,0.0,,,,,,,,,,,,,,,,,,30.926,0.574,,,,,,,,,,,,,,,
30,,isi,,html-keyboard-response,30,1631859,0.0-1.0-6.0-0.0-2.0,0,0,98,,,,,,4.0,,,,,0.0,,,,,,,,,,,,,,,,,,31.5,2.5,,,,,,,,,,,,,,,
31,,feedback,,html-keyboard-response,31,1632866,0.0-1.0-6.0-0.0-3.0-0.0,0,0,98,,,,,,4.0,,,,,0.0,,,,,,,,,,,,,,,,,,34.0,1.0,,,,,,,,,,,,,,,
32,,iti,,html-keyboard-response,32,1635374,0.0-1.0-6.0-0.0-5.0,0,0,98,,,,,,4.0,,,,,0.0,,,,,,,,,,,,,,,,,,35.0,2.5,,,,,,,,,,,,,,,
33,,practice_over,,html-keyboard-response,33,2173722,0.0-1.0-6.0-0.0-6.0-0.0,0,0,98,,538346.0,,,83.0,4.0,,,,,,,,,,,,,,,,,,,,,,,,,,,,,,,,,,,,,,,
34,,start_run,,html-keyboard-response,34,2229776,0.0-1.0-6.0-0.0-6.0-1.0,0,0,98,,56050.0,,,84.0,,,,,,,,,,,,,,,,,,,,,,,,,,,,,,,,,,,,,,,,
35,,choice,,html-keyboard-response,35,2231071,0.0-1.0-7.0-0.0-0.0,0,0,98,,1290.0,,,51.0,5.0,5.0,2000.0,3500.0,0.0,1.0,0.0,20-60,,0.0,necklace,bench,20.0,60.0,necklace15,bench3,40.0,40.0,necklascenew04.jpg,26419540.thl.jpg,/static/Category_learning/Stimuli/Experimental_stims/necklace/necklascenew04.jpg,/static/Category_learning/Stimuli/Experimental_stims/bench/26419540.thl.jpg,0.0,0.0,1.29,0.0,bench,necklace,60.0,20.0,bench3,necklace15,40.0,40.0,,,,,,
36,,confirmation,,html-keyboard-response,36,2231285,0.0-1.0-7.0-0.0-1.0-0.0,0,0,98,,,,,,5.0,,,,,1.0,,,,,,,,,,,,,,,,,,1.29,0.21,,,,,,,,,,,,,,,
37,,isi,,html-keyboard-response,37,2233291,0.0-1.0-7.0-0.0-2.0,0,0,98,,,,,,5.0,,,,,1.0,,,,,,,,,,,,,,,,,,1.5,2.0,,,,,,,,,,,,,,,
38,,feedback,,html-keyboard-response,38,2234296,0.0-1.0-7.0-0.0-3.0-0.0,0,0,98,,,,,,5.0,,,,,1.0,,,,,,,,,,,,,,,,,,3.5,1.0,,,,,,,,,,,,,,,
39,,iti,,html-keyboard-response,39,2237804,0.0-1.0-7.0-0.0-5.0,0,0,98,,,,,,5.0,,,,,1.0,,,,,,,,,,,,,,,,,,4.5,3.5,,,,,,,,,,,,,,,
40,,choice,,html-keyboard-response,40,2238804,0.0-1.0-8.0-0.0-0.0,0,0,98,,996.0,,,50.0,6.0,6.0,2000.0,1000.0,0.0,1.0,0.0,20-20,,,power strip,seashell,20.0,20.0,power strip8,seashell7,40.0,20.0,3118YGHQWXL._AA262_.jpg,seashell34.jpg,/static/Category_learning/Stimuli/Experimental_stims/power strip/3118YGHQWXL._AA262_.jpg,/static/Category_learning/Stimuli/Experimental_stims/seashell/seashell34.jpg,0.0,8.0,0.996,1.0,power strip,seashell,20.0,20.0,power strip8,seashell7,40.0,20.0,,,,,,
41,,confirmation,,html-keyboard-response,41,2239313,0.0-1.0-8.0-0.0-1.0-0.0,0,0,98,,,,,,6.0,,,,,1.0,,,,,,,,,,,,,,,,,,8.996,0.504,,,,,,,,,,,,,,,
42,,isi,,html-keyboard-response,42,2241321,0.0-1.0-8.0-0.0-2.0,0,0,98,,,,,,6.0,,,,,1.0,,,,,,,,,,,,,,,,,,9.5,2.0,,,,,,,,,,,,,,,
43,,feedback,,html-keyboard-response,43,2242326,0.0-1.0-8.0-0.0-3.0-0.0,0,0,98,,,,,,6.0,,,,,1.0,,,,,,,,,,,,,,,,,,11.5,1.0,,,,,,,,,,,,,,,
44,,iti,,html-keyboard-response,44,2243334,0.0-1.0-8.0-0.0-5.0,0,0,98,,,,,,6.0,,,,,1.0,,,,,,,,,,,,,,,,,,12.5,1.0,,,,,,,,,,,,,,,
45,,choice,,html-keyboard-response,45,2244524,0.0-1.0-9.0-0.0-0.0,0,0,98,,1185.0,,,50.0,7.0,7.0,1500.0,2000.0,0.0,1.0,0.0,20-40,,1.0,telescope,poker card,40.0,20.0,telescope1,poker card9,20.0,40.0,celestron nexstar 114 gt reflector telescope.jpg,9817230.thl.jpg,/static/Category_learning/Stimuli/Experimental_stims/telescope/celestron nexstar 114 gt reflector telescope.jpg,/static/Category_learning/Stimuli/Experimental_stims/poker card/9817230.thl.jpg,0.0,13.5,1.185,1.0,telescope,poker card,40.0,20.0,telescope1,poker card9,20.0,40.0,,,,,,
46,,confirmation,,html-keyboard-response,46,2244843,0.0-1.0-9.0-0.0-1.0-0.0,0,0,98,,,,,,7.0,,,,,1.0,,,,,,,,,,,,,,,,,,14.685,0.315,,,,,,,,,,,,,,,
47,,isi,,html-keyboard-response,47,2246348,0.0-1.0-9.0-0.0-2.0,0,0,98,,,,,,7.0,,,,,1.0,,,,,,,,,,,,,,,,,,15.0,1.5,,,,,,,,,,,,,,,
48,,feedback,,html-keyboard-response,48,2247356,0.0-1.0-9.0-0.0-3.0-0.0,0,0,98,,,,,,7.0,,,,,1.0,,,,,,,,,,,,,,,,,,16.5,1.0,,,,,,,,,,,,,,,
49,,iti,,html-keyboard-response,49,2249361,0.0-1.0-9.0-0.0-5.0,0,0,98,,,,,,7.0,,,,,1.0,,,,,,,,,,,,,,,,,,17.5,2.0,,,,,,,,,,,,,,,
50,,choice,,html-keyboard-response,50,2250723,0.0-1.0-10.0-0.0-0.0,0,0,98,,1358.0,,,50.0,8.0,8.0,3500.0,1000.0,0.0,1.0,0.0,60-60,,,door knob,dresser,60.0,60.0,door knob7,dresser4,40.0,80.0,doorknob2.jpg,ADRESSE40.jpg,/static/Category_learning/Stimuli/Experimental_stims/door knob/doorknob2.jpg,/static/Category_learning/Stimuli/Experimental_stims/dresser/ADRESSE40.jpg,0.0,19.5,1.358,1.0,door knob,dresser,60.0,60.0,door knob7,dresser4,40.0,80.0,,,,,,
51,,confirmation,,html-keyboard-response,51,2250870,0.0-1.0-10.0-0.0-1.0-0.0,0,0,98,,,,,,8.0,,,,,1.0,,,,,,,,,,,,,,,,,,20.858,0.142,,,,,,,,,,,,,,,
52,,isi,,html-keyboard-response,52,2254374,0.0-1.0-10.0-0.0-2.0,0,0,98,,,,,,8.0,,,,,1.0,,,,,,,,,,,,,,,,,,21.0,3.5,,,,,,,,,,,,,,,
53,,feedback,,html-keyboard-response,53,2255379,0.0-1.0-10.0-0.0-3.0-0.0,0,0,98,,,,,,8.0,,,,,1.0,,,,,,,,,,,,,,,,,,24.5,1.0,,,,,,,,,,,,,,,
54,,iti,,html-keyboard-response,54,2256384,0.0-1.0-10.0-0.0-5.0,0,0,98,,,,,,8.0,,,,,1.0,,,,,,,,,,,,,,,,,,25.5,1.0,,,,,,,,,,,,,,,
55,,choice,,html-keyboard-response,55,2257499,0.0-1.0-11.0-0.0-0.0,0,0,98,,1113.0,,,50.0,9.0,9.0,1000.0,1000.0,0.0,1.0,0.0,20-60,,0.0,poker card,desk,20.0,60.0,poker card8,desk13,20.0,80.0,22864392.thl.jpg,26427865.thl.jpg,/static/Category_learning/Stimuli/Experimental_stims/poker card/22864392.thl.jpg,/static/Category_learning/Stimuli/Experimental_stims/desk/26427865.thl.jpg,0.0,26.5,1.113,1.0,poker card,desk,20.0,60.0,poker card8,desk13,20.0,80.0,,,,,,
56,,confirmation,,html-keyboard-response,56,2257891,0.0-1.0-11.0-0.0-1.0-0.0,0,0,98,,,,,,9.0,,,,,1.0,,,,,,,,,,,,,,,,,,27.613,0.387,,,,,,,,,,,,,,,
57,,isi,,html-keyboard-response,57,2258896,0.0-1.0-11.0-0.0-2.0,0,0,98,,,,,,9.0,,,,,1.0,,,,,,,,,,,,,,,,,,28.0,1.0,,,,,,,,,,,,,,,
58,,feedback,,html-keyboard-response,58,2259905,0.0-1.0-11.0-0.0-3.0-0.0,0,0,98,,,,,,9.0,,,,,1.0,,,,,,,,,,,,,,,,,,29.0,1.0,,,,,,,,,,,,,,,
59,,iti,,html-keyboard-response,59,2260912,0.0-1.0-11.0-0.0-5.0,0,0,98,,,,,,9.0,,,,,1.0,,,,,,,,,,,,,,,,,,30.0,1.0,,,,,,,,,,,,,,,
60,,choice,,html-keyboard-response,60,2262118,0.0-1.0-12.0-0.0-0.0,0,0,98,,1202.0,,,50.0,10.0,10.0,1000.0,1000.0,0.0,1.0,0.0,20-60,,1.0,bench,nail polish,60.0,20.0,bench8,nail polish6,80.0,0.0,APARKBE14.jpg,127_t.jpg,/static/Category_learning/Stimuli/Experimental_stims/bench/APARKBE14.jpg,/static/Category_learning/Stimuli/Experimental_stims/nail polish/127_t.jpg,0.0,31.0,1.202,1.0,bench,nail polish,60.0,20.0,bench8,nail polish6,80.0,0.0,,,,,,
61,,confirmation,,html-keyboard-response,61,2262420,0.0-1.0-12.0-0.0-1.0-0.0,0,0,98,,,,,,10.0,,,,,1.0,,,,,,,,,,,,,,,,,,32.202,0.298,,,,,,,,,,,,,,,
62,,isi,,html-keyboard-response,62,2263427,0.0-1.0-12.0-0.0-2.0,0,0,98,,,,,,10.0,,,,,1.0,,,,,,,,,,,,,,,,,,32.5,1.0,,,,,,,,,,,,,,,
63,,feedback,,html-keyboard-response,63,2264433,0.0-1.0-12.0-0.0-3.0-0.0,0,0,98,,,,,,10.0,,,,,1.0,,,,,,,,,,,,,,,,,,33.5,1.0,,,,,,,,,,,,,,,
64,,iti,,html-keyboard-response,64,2265436,0.0-1.0-12.0-0.0-5.0,0,0,98,,,,,,10.0,,,,,1.0,,,,,,,,,,,,,,,,,,34.5,1.0,,,,,,,,,,,,,,,
65,,choice,,html-keyboard-response,65,2266555,0.0-1.0-13.0-0.0-0.0,0,0,98,,1115.0,,,51.0,11.0,11.0,1500.0,3000.0,0.0,1.0,0.0,20-80,,0.0,pen,microscope,20.0,80.0,pen11,microscope4,0.0,80.0,pen01.jpg,55071208.JPG,/static/Category_learning/Stimuli/Experimental_stims/pen/pen01.jpg,/static/Category_learning/Stimuli/Experimental_stims/microscope/55071208.JPG,0.0,35.5,1.115,0.0,microscope,pen,80.0,20.0,microscope4,pen11,80.0,0.0,,,,,,
66,,confirmation,,html-keyboard-response,66,2266944,0.0-1.0-13.0-0.0-1.0-0.0,0,0,98,,,,,,11.0,,,,,1.0,,,,,,,,,,,,,,,,,,36.615,0.385,,,,,,,,,,,,,,,
67,,isi,,html-keyboard-response,67,2268449,0.0-1.0-13.0-0.0-2.0,0,0,98,,,,,,11.0,,,,,1.0,,,,,,,,,,,,,,,,,,37.0,1.5,,,,,,,,,,,,,,,
68,,feedback,,html-keyboard-response,68,2269456,0.0-1.0-13.0-0.0-3.0-0.0,0,0,98,,,,,,11.0,,,,,1.0,,,,,,,,,,,,,,,,,,38.5,1.0,,,,,,,,,,,,,,,
69,,iti,,html-keyboard-response,69,2272464,0.0-1.0-13.0-0.0-5.0,0,0,98,,,,,,11.0,,,,,1.0,,,,,,,,,,,,,,,,,,39.5,3.0,,,,,,,,,,,,,,,
70,,choice,,html-keyboard-response,70,2273427,0.0-1.0-14.0-0.0-0.0,0,0,98,,959.0,,,50.0,12.0,12.0,1500.0,2000.0,0.0,1.0,0.0,20-60,,0.0,necklace,bowl,20.0,60.0,necklace1,bowl14,0.0,60.0,26443173.thl.jpg,Aredglassbowl.jpg,/static/Category_learning/Stimuli/Experimental_stims/necklace/26443173.thl.jpg,/static/Category_learning/Stimuli/Experimental_stims/bowl/Aredglassbowl.jpg,0.0,42.5,0.959,1.0,necklace,bowl,20.0,60.0,necklace1,bowl14,0.0,60.0,,,,,,
71,,confirmation,,html-keyboard-response,71,2273974,0.0-1.0-14.0-0.0-1.0-0.0,0,0,98,,,,,,12.0,,,,,1.0,,,,,,,,,,,,,,,,,,43.459,0.541,,,,,,,,,,,,,,,
72,,isi,,html-keyboard-response,72,2275478,0.0-1.0-14.0-0.0-2.0,0,0,98,,,,,,12.0,,,,,1.0,,,,,,,,,,,,,,,,,,44.0,1.5,,,,,,,,,,,,,,,
73,,feedback,,html-keyboard-response,73,2276486,0.0-1.0-14.0-0.0-3.0-0.0,0,0,98,,,,,,12.0,,,,,1.0,,,,,,,,,,,,,,,,,,45.5,1.0,,,,,,,,,,,,,,,
74,,iti,,html-keyboard-response,74,2278491,0.0-1.0-14.0-0.0-5.0,0,0,98,,,,,,12.0,,,,,1.0,,,,,,,,,,,,,,,,,,46.5,2.0,,,,,,,,,,,,,,,
75,,choice,,html-keyboard-response,75,2280000,0.0-1.0-15.0-0.0-0.0,0,0,98,,,,,,13.0,13.0,3500.0,3500.0,0.0,1.0,1.0,60-60,1.0,,bench,bench,60.0,60.0,bench3,bench8,40.0,80.0,26419540.thl.jpg,APARKBE14.jpg,/static/Category_learning/Stimuli/Experimental_stims/bench/26419540.thl.jpg,/static/Category_learning/Stimuli/Experimental_stims/bench/APARKBE14.jpg,1.0,48.5,1.5,,,,,,,,,,,,,,,
76,,isi,,html-keyboard-response,76,2283508,0.0-1.0-15.0-0.0-2.0,0,0,98,,,,,,13.0,,,,,1.0,,,,,,,,,,,,,,,,,,50.0,3.5,,,,,,,,,,,,,,,
77,,no_response,,html-keyboard-response,77,2284512,0.0-1.0-15.0-0.0-4.0-0.0,0,0,98,,,,,,13.0,,,,,1.0,,,,,,,,,,,,,,,,,,53.5,1.0,,,,,,,,,,,,,,,
78,,iti,,html-keyboard-response,78,2288037,0.0-1.0-15.0-0.0-5.0,0,0,98,,,,,,13.0,,,,,1.0,,,,,,,,,,,,,,,,,,54.5,3.5,,,,,,,,,,,,,,,
79,,choice,,html-keyboard-response,79,2288635,0.0-1.0-15.0-0.1-0.1,0,0,98,,594.0,,,51.0,13.0,13.0,3500.0,3500.0,0.0,1.0,1.0,60-60,1.0,,bench,bench,60.0,60.0,bench3,bench8,40.0,80.0,26419540.thl.jpg,APARKBE14.jpg,/static/Category_learning/Stimuli/Experimental_stims/bench/26419540.thl.jpg,/static/Category_learning/Stimuli/Experimental_stims/bench/APARKBE14.jpg,0.0,58.0,0.594,0.0,bench,bench,60.0,60.0,bench8,bench3,80.0,40.0,,,,,,
80,,confirmation,,html-keyboard-response,80,2289547,0.0-1.0-15.0-0.1-1.1-0.1,0,0,98,,,,,,13.0,,,,,1.0,,,,,,,,,,,,,,,,,,58.594,0.906,,,,,,,,,,,,,,,
81,,isi,,html-keyboard-response,81,2291552,0.0-1.0-15.0-0.1-2.1,0,0,98,,,,,,13.0,,,,,1.0,,,,,,,,,,,,,,,,,,59.5,2.0,,,,,,,,,,,,,,,
82,,feedback,,html-keyboard-response,82,2292560,0.0-1.0-15.0-0.1-3.1-0.1,0,0,98,,,,,,13.0,,,,,1.0,,,,,,,,,,,,,,,,,,61.5,1.0,,,,,,,,,,,,,,,
83,,iti,,html-keyboard-response,83,2294064,0.0-1.0-15.0-0.1-5.1,0,0,98,,,,,,13.0,,,,,1.0,,,,,,,,,,,,,,,,,,62.5,1.5,,,,,,,,,,,,,,,
84,,choice,,html-keyboard-response,84,2295245,0.0-1.0-16.0-0.0-0.0,0,0,98,,1177.0,,,50.0,14.0,14.0,1000.0,1000.0,0.0,1.0,0.0,60-80,,1.0,microscope,bench,80.0,60.0,microscope12,bench12,60.0,80.0,usbdigitalmicroscope1_small1.jpg,22927976.thl.jpg,/static/Category_learning/Stimuli/Experimental_stims/microscope/usbdigitalmicroscope1_small1.jpg,/static/Category_learning/Stimuli/Experimental_stims/bench/22927976.thl.jpg,0.0,64.0,1.177,1.0,microscope,bench,80.0,60.0,microscope12,bench12,60.0,80.0,,,,,,
85,,confirmation,,html-keyboard-response,85,2295573,0.0-1.0-16.0-0.0-1.0-0.0,0,0,98,,,,,,14.0,,,,,1.0,,,,,,,,,,,,,,,,,,65.177,0.323,,,,,,,,,,,,,,,
86,,isi,,html-keyboard-response,86,2296581,0.0-1.0-16.0-0.0-2.0,0,0,98,,,,,,14.0,,,,,1.0,,,,,,,,,,,,,,,,,,65.5,1.0,,,,,,,,,,,,,,,
87,,feedback,,html-keyboard-response,87,2297589,0.0-1.0-16.0-0.0-3.0-0.0,0,0,98,,,,,,14.0,,,,,1.0,,,,,,,,,,,,,,,,,,66.5,1.0,,,,,,,,,,,,,,,
88,,iti,,html-keyboard-response,88,2298593,0.0-1.0-16.0-0.0-5.0,0,0,98,,,,,,14.0,,,,,1.0,,,,,,,,,,,,,,,,,,67.5,1.0,,,,,,,,,,,,,,,
89,,choice,,html-keyboard-response,89,2300101,0.0-1.0-17.0-0.0-0.0,0,0,98,,,,,,15.0,15.0,1000.0,1000.0,0.0,1.0,1.0,80-80,1.0,,microscope,microscope,80.0,80.0,microscope12,microscope4,60.0,80.0,usbdigitalmicroscope1_small1.jpg,55071208.JPG,/static/Category_learning/Stimuli/Experimental_stims/microscope/usbdigitalmicroscope1_small1.jpg,/static/Category_learning/Stimuli/Experimental_stims/microscope/55071208.JPG,1.0,68.5,1.5,,,,,,,,,,,,,,,
90,,isi,,html-keyboard-response,90,2301109,0.0-1.0-17.0-0.0-2.0,0,0,98,,,,,,15.0,,,,,1.0,,,,,,,,,,,,,,,,,,70.0,1.0,,,,,,,,,,,,,,,
91,,no_response,,html-keyboard-response,91,2302117,0.0-1.0-17.0-0.0-4.0-0.0,0,0,98,,,,,,15.0,,,,,1.0,,,,,,,,,,,,,,,,,,71.0,1.0,,,,,,,,,,,,,,,
92,,iti,,html-keyboard-response,92,2303138,0.0-1.0-17.0-0.0-5.0,0,0,98,,,,,,15.0,,,,,1.0,,,,,,,,,,,,,,,,,,72.0,1.0,,,,,,,,,,,,,,,
93,,choice,,html-keyboard-response,93,2303569,0.0-1.0-17.0-0.1-0.1,0,0,98,,428.0,,,50.0,15.0,15.0,1000.0,1000.0,0.0,1.0,1.0,80-80,1.0,,microscope,microscope,80.0,80.0,microscope12,microscope4,60.0,80.0,usbdigitalmicroscope1_small1.jpg,55071208.JPG,/static/Category_learning/Stimuli/Experimental_stims/microscope/usbdigitalmicroscope1_small1.jpg,/static/Category_learning/Stimuli/Experimental_stims/microscope/55071208.JPG,0.0,73.0,0.428,1.0,microscope,microscope,80.0,80.0,microscope12,microscope4,60.0,80.0,,,,,,
94,,confirmation,,html-keyboard-response,94,2304645,0.0-1.0-17.0-0.1-1.1-0.1,0,0,98,,,,,,15.0,,,,,1.0,,,,,,,,,,,,,,,,,,73.428,1.072,,,,,,,,,,,,,,,
95,,isi,,html-keyboard-response,95,2305653,0.0-1.0-17.0-0.1-2.1,0,0,98,,,,,,15.0,,,,,1.0,,,,,,,,,,,,,,,,,,74.5,1.0,,,,,,,,,,,,,,,
96,,feedback,,html-keyboard-response,96,2306661,0.0-1.0-17.0-0.1-3.1-0.1,0,0,98,,,,,,15.0,,,,,1.0,,,,,,,,,,,,,,,,,,75.5,1.0,,,,,,,,,,,,,,,
97,,iti,,html-keyboard-response,97,2308666,0.0-1.0-17.0-0.1-5.1,0,0,98,,,,,,15.0,,,,,1.0,,,,,,,,,,,,,,,,,,76.5,2.0,,,,,,,,,,,,,,,
98,,choice,,html-keyboard-response,98,2310051,0.0-1.0-18.0-0.0-0.0,0,0,98,,1381.0,,,51.0,16.0,16.0,1000.0,1000.0,0.0,1.0,0.0,20-40,,0.0,poker card,yarn,20.0,40.0,poker card3,yarn4,0.0,40.0,9817131.thl.jpg,amethyst dreaming boho hy sml.jpg,/static/Category_learning/Stimuli/Experimental_stims/poker card/9817131.thl.jpg,/static/Category_learning/Stimuli/Experimental_stims/yarn/amethyst dreaming boho hy sml.jpg,0.0,78.5,1.381,0.0,yarn,poker card,40.0,20.0,yarn4,poker card3,40.0,0.0,,,,,,
99,,confirmation,,html-keyboard-response,99,2310175,0.0-1.0-18.0-0.0-1.0-0.0,0,0,98,,,,,,16.0,,,,,1.0,,,,,,,,,,,,,,,,,,79.881,0.119,,,,,,,,,,,,,,,
100,,isi,,html-keyboard-response,100,2311178,0.0-1.0-18.0-0.0-2.0,0,0,98,,,,,,16.0,,,,,1.0,,,,,,,,,,,,,,,,,,80.0,1.0,,,,,,,,,,,,,,,
101,,feedback,,html-keyboard-response,101,2312186,0.0-1.0-18.0-0.0-3.0-0.0,0,0,98,,,,,,16.0,,,,,1.0,,,,,,,,,,,,,,,,,,81.0,1.0,,,,,,,,,,,,,,,
102,,iti,,html-keyboard-response,102,2313194,0.0-1.0-18.0-0.0-5.0,0,0,98,,,,,,16.0,,,,,1.0,,,,,,,,,,,,,,,,,,82.0,1.0,,,,,,,,,,,,,,,
103,,choice,,html-keyboard-response,103,2314264,0.0-1.0-19.0-0.0-0.0,0,0,98,,1066.0,,,51.0,17.0,17.0,3500.0,1000.0,0.0,1.0,0.0,40-80,,0.0,trumpet,microscope,40.0,80.0,trumpet11,microscope8,20.0,80.0,JUPITER+JTR604L.jpg,AMICROS21.jpg,/static/Category_learning/Stimuli/Experimental_stims/trumpet/JUPITER+JTR604L.jpg,/static/Category_learning/Stimuli/Experimental_stims/microscope/AMICROS21.jpg,0.0,83.0,1.066,0.0,microscope,trumpet,80.0,40.0,microscope8,trumpet11,80.0,20.0,,,,,,
104,,confirmation,,html-keyboard-response,104,2314702,0.0-1.0-19.0-0.0-1.0-0.0,0,0,98,,,,,,17.0,,,,,1.0,,,,,,,,,,,,,,,,,,84.066,0.434,,,,,,,,,,,,,,,
105,,isi,,html-keyboard-response,105,2318208,0.0-1.0-19.0-0.0-2.0,0,0,98,,,,,,17.0,,,,,1.0,,,,,,,,,,,,,,,,,,84.5,3.5,,,,,,,,,,,,,,,
106,,feedback,,html-keyboard-response,106,2319215,0.0-1.0-19.0-0.0-3.0-0.0,0,0,98,,,,,,17.0,,,,,1.0,,,,,,,,,,,,,,,,,,88.0,1.0,,,,,,,,,,,,,,,
107,,iti,,html-keyboard-response,107,2320223,0.0-1.0-19.0-0.0-5.0,0,0,98,,,,,,17.0,,,,,1.0,,,,,,,,,,,,,,,,,,89.0,1.0,,,,,,,,,,,,,,,
108,,choice,,html-keyboard-response,108,2321307,0.0-1.0-20.0-0.0-0.0,0,0,98,,1079.0,,,50.0,18.0,18.0,1500.0,1000.0,0.0,1.0,0.0,60-80,,0.0,baby carriage,hammer,60.0,80.0,baby carriage5,hammer8,80.0,80.0,Baby_Stroller.jpg,ct1006_hammer.jpg,/static/Category_learning/Stimuli/Experimental_stims/baby carriage/Baby_Stroller.jpg,/static/Category_learning/Stimuli/Experimental_stims/hammer/ct1006_hammer.jpg,0.0,90.0,1.079,1.0,baby carriage,hammer,60.0,80.0,baby carriage5,hammer8,80.0,80.0,,,,,,
109,,confirmation,,html-keyboard-response,109,2321733,0.0-1.0-20.0-0.0-1.0-0.0,0,0,98,,,,,,18.0,,,,,1.0,,,,,,,,,,,,,,,,,,91.079,0.421,,,,,,,,,,,,,,,
110,,isi,,html-keyboard-response,110,2323237,0.0-1.0-20.0-0.0-2.0,0,0,98,,,,,,18.0,,,,,1.0,,,,,,,,,,,,,,,,,,91.5,1.5,,,,,,,,,,,,,,,
111,,feedback,,html-keyboard-response,111,2324245,0.0-1.0-20.0-0.0-3.0-0.0,0,0,98,,,,,,18.0,,,,,1.0,,,,,,,,,,,,,,,,,,93.0,1.0,,,,,,,,,,,,,,,
112,,iti,,html-keyboard-response,112,2325252,0.0-1.0-20.0-0.0-5.0,0,0,98,,,,,,18.0,,,,,1.0,,,,,,,,,,,,,,,,,,94.0,1.0,,,,,,,,,,,,,,,
113,,choice,,html-keyboard-response,113,2326158,0.0-1.0-21.0-0.0-0.0,0,0,98,,902.0,,,51.0,19.0,19.0,1500.0,3500.0,0.0,1.0,0.0,60-60,,,fan,flashlight,60.0,60.0,fan6,flashlight1,60.0,40.0,30090.fpx.jpg,Graphite3D.jpg,/static/Category_learning/Stimuli/Experimental_stims/fan/30090.fpx.jpg,/static/Category_learning/Stimuli/Experimental_stims/flashlight/Graphite3D.jpg,0.0,95.0,0.902,0.0,flashlight,fan,60.0,60.0,flashlight1,fan6,40.0,60.0,,,,,,
114,,confirmation,,html-keyboard-response,114,2326760,0.0-1.0-21.0-0.0-1.0-0.0,0,0,98,,,,,,19.0,,,,,1.0,,,,,,,,,,,,,,,,,,95.902,0.598,,,,,,,,,,,,,,,
115,,isi,,html-keyboard-response,115,2328265,0.0-1.0-21.0-0.0-2.0,0,0,98,,,,,,19.0,,,,,1.0,,,,,,,,,,,,,,,,,,96.5,1.5,,,,,,,,,,,,,,,
116,,feedback,,html-keyboard-response,116,2329268,0.0-1.0-21.0-0.0-3.0-0.0,0,0,98,,,,,,19.0,,,,,1.0,,,,,,,,,,,,,,,,,,98.0,1.0,,,,,,,,,,,,,,,
117,,iti,,html-keyboard-response,117,2332773,0.0-1.0-21.0-0.0-5.0,0,0,98,,,,,,19.0,,,,,1.0,,,,,,,,,,,,,,,,,,99.0,3.5,,,,,,,,,,,,,,,
118,,choice,,html-keyboard-response,118,2333816,0.0-1.0-22.0-0.0-0.0,0,0,98,,1040.0,,,51.0,20.0,20.0,1000.0,1000.0,0.0,1.0,0.0,20-80,,1.0,frame,patio lounge chair,80.0,20.0,frame11,patio lounge chair9,100.0,20.0,AFRAME139.jpg,43-3.jpg,/static/Category_learning/Stimuli/Experimental_stims/frame/AFRAME139.jpg,/static/Category_learning/Stimuli/Experimental_stims/patio lounge chair/43-3.jpg,0.0,102.5,1.04,0.0,patio lounge chair,frame,20.0,80.0,patio lounge chair9,frame11,20.0,100.0,,,,,,
119,,confirmation,,html-keyboard-response,119,2334281,0.0-1.0-22.0-0.0-1.0-0.0,0,0,98,,,,,,20.0,,,,,1.0,,,,,,,,,,,,,,,,,,103.54,0.46,,,,,,,,,,,,,,,
120,,isi,,html-keyboard-response,120,2335288,0.0-1.0-22.0-0.0-2.0,0,0,98,,,,,,20.0,,,,,1.0,,,,,,,,,,,,,,,,,,104.0,1.0,,,,,,,,,,,,,,,
121,,feedback,,html-keyboard-response,121,2336292,0.0-1.0-22.0-0.0-3.0-0.0,0,0,98,,,,,,20.0,,,,,1.0,,,,,,,,,,,,,,,,,,105.0,1.0,,,,,,,,,,,,,,,
122,,iti,,html-keyboard-response,122,2337300,0.0-1.0-22.0-0.0-5.0,0,0,98,,,,,,20.0,,,,,1.0,,,,,,,,,,,,,,,,,,106.0,1.0,,,,,,,,,,,,,,,
123,,choice,,html-keyboard-response,123,2338445,0.0-1.0-23.0-0.0-0.0,0,0,98,,1141.0,,,50.0,21.0,21.0,2000.0,1000.0,0.0,1.0,0.0,40-80,,0.0,telescope,license plate,40.0,80.0,telescope11,license plate14,40.0,100.0,digimarc.ms03.jpg,fl-hel-bel.jpg,/static/Category_learning/Stimuli/Experimental_stims/telescope/digimarc.ms03.jpg,/static/Category_learning/Stimuli/Experimental_stims/license plate/fl-hel-bel.jpg,0.0,107.0,1.141,1.0,telescope,license plate,40.0,80.0,telescope11,license plate14,40.0,100.0,,,,,,
124,,confirmation,,html-keyboard-response,124,2338808,0.0-1.0-23.0-0.0-1.0-0.0,0,0,98,,,,,,21.0,,,,,1.0,,,,,,,,,,,,,,,,,,108.141,0.359,,,,,,,,,,,,,,,
125,,isi,,html-keyboard-response,125,2340815,0.0-1.0-23.0-0.0-2.0,0,0,98,,,,,,21.0,,,,,1.0,,,,,,,,,,,,,,,,,,108.5,2.0,,,,,,,,,,,,,,,
126,,feedback,,html-keyboard-response,126,2341823,0.0-1.0-23.0-0.0-3.0-0.0,0,0,98,,,,,,21.0,,,,,1.0,,,,,,,,,,,,,,,,,,110.5,1.0,,,,,,,,,,,,,,,
127,,iti,,html-keyboard-response,127,2342831,0.0-1.0-23.0-0.0-5.0,0,0,98,,,,,,21.0,,,,,1.0,,,,,,,,,,,,,,,,,,111.5,1.0,,,,,,,,,,,,,,,
128,,choice,,html-keyboard-response,128,2344176,0.0-1.0-24.0-0.0-0.0,0,0,98,,1341.0,,,50.0,22.0,22.0,1000.0,1500.0,0.0,1.0,1.0,40-40,1.0,,telescope,telescope,40.0,40.0,telescope1,telescope11,20.0,40.0,celestron nexstar 114 gt reflector telescope.jpg,digimarc.ms03.jpg,/static/Category_learning/Stimuli/Experimental_stims/telescope/celestron nexstar 114 gt reflector telescope.jpg,/static/Category_learning/Stimuli/Experimental_stims/telescope/digimarc.ms03.jpg,0.0,112.5,1.341,1.0,telescope,telescope,40.0,40.0,telescope1,telescope11,20.0,40.0,,,,,,
129,,confirmation,,html-keyboard-response,129,2344340,0.0-1.0-24.0-0.0-1.0-0.0,0,0,98,,,,,,22.0,,,,,1.0,,,,,,,,,,,,,,,,,,113.841,0.159,,,,,,,,,,,,,,,
130,,isi,,html-keyboard-response,130,2345348,0.0-1.0-24.0-0.0-2.0,0,0,98,,,,,,22.0,,,,,1.0,,,,,,,,,,,,,,,,,,114.0,1.0,,,,,,,,,,,,,,,
131,,feedback,,html-keyboard-response,131,2346356,0.0-1.0-24.0-0.0-3.0-0.0,0,0,98,,,,,,22.0,,,,,1.0,,,,,,,,,,,,,,,,,,115.0,1.0,,,,,,,,,,,,,,,
132,,iti,,html-keyboard-response,132,2347860,0.0-1.0-24.0-0.0-5.0,0,0,98,,,,,,22.0,,,,,1.0,,,,,,,,,,,,,,,,,,116.0,1.5,,,,,,,,,,,,,,,
133,,choice,,html-keyboard-response,133,2349370,0.0-1.0-25.0-0.0-0.0,0,0,98,,,,,,23.0,23.0,1000.0,1500.0,0.0,1.0,0.0,40-80,,1.0,license plate,train,80.0,40.0,license plate9,train6,60.0,20.0,nm-dhg089.jpg,train9.jpg,/static/Category_learning/Stimuli/Experimental_stims/license plate/nm-dhg089.jpg,/static/Category_learning/Stimuli/Experimental_stims/train/train9.jpg,1.0,117.5,1.5,,,,,,,,,,,,,,,
134,,isi,,html-keyboard-response,134,2350377,0.0-1.0-25.0-0.0-2.0,0,0,98,,,,,,23.0,,,,,1.0,,,,,,,,,,,,,,,,,,119.0,1.0,,,,,,,,,,,,,,,
135,,no_response,,html-keyboard-response,135,2351382,0.0-1.0-25.0-0.0-4.0-0.0,0,0,98,,,,,,23.0,,,,,1.0,,,,,,,,,,,,,,,,,,120.0,1.0,,,,,,,,,,,,,,,
136,,iti,,html-keyboard-response,136,2352900,0.0-1.0-25.0-0.0-5.0,0,0,98,,,,,,23.0,,,,,1.0,,,,,,,,,,,,,,,,,,121.0,1.5,,,,,,,,,,,,,,,
137,,choice,,html-keyboard-response,137,2353443,0.0-1.0-25.0-0.1-0.1,0,0,98,,539.0,,,51.0,23.0,23.0,1000.0,1500.0,0.0,1.0,0.0,40-80,,1.0,license plate,train,80.0,40.0,license plate9,train6,60.0,20.0,nm-dhg089.jpg,train9.jpg,/static/Category_learning/Stimuli/Experimental_stims/license plate/nm-dhg089.jpg,/static/Category_learning/Stimuli/Experimental_stims/train/train9.jpg,0.0,122.5,0.539,0.0,train,license plate,40.0,80.0,train6,license plate9,20.0,60.0,,,,,,
138,,confirmation,,html-keyboard-response,138,2354409,0.0-1.0-25.0-0.1-1.1-0.1,0,0,98,,,,,,23.0,,,,,1.0,,,,,,,,,,,,,,,,,,123.039,0.961,,,,,,,,,,,,,,,
139,,isi,,html-keyboard-response,139,2355416,0.0-1.0-25.0-0.1-2.1,0,0,98,,,,,,23.0,,,,,1.0,,,,,,,,,,,,,,,,,,124.0,1.0,,,,,,,,,,,,,,,
140,,feedback,,html-keyboard-response,140,2356425,0.0-1.0-25.0-0.1-3.1-0.1,0,0,98,,,,,,23.0,,,,,1.0,,,,,,,,,,,,,,,,,,125.0,1.0,,,,,,,,,,,,,,,
141,,iti,,html-keyboard-response,141,2358431,0.0-1.0-25.0-0.1-5.1,0,0,98,,,,,,23.0,,,,,1.0,,,,,,,,,,,,,,,,,,126.0,2.0,,,,,,,,,,,,,,,
142,,choice,,html-keyboard-response,142,2359499,0.0-1.0-26.0-0.0-0.0,0,0,98,,1064.0,,,51.0,24.0,24.0,2000.0,1500.0,0.0,1.0,1.0,40-60,0.0,,train,door knob,40.0,60.0,train6,door knob7,20.0,40.0,train9.jpg,doorknob2.jpg,/static/Category_learning/Stimuli/Experimental_stims/train/train9.jpg,/static/Category_learning/Stimuli/Experimental_stims/door knob/doorknob2.jpg,0.0,128.0,1.064,0.0,door knob,train,60.0,40.0,door knob7,train6,40.0,20.0,,,,,,
143,,confirmation,,html-keyboard-response,143,2359940,0.0-1.0-26.0-0.0-1.0-0.0,0,0,98,,,,,,24.0,,,,,1.0,,,,,,,,,,,,,,,,,,129.064,0.436,,,,,,,,,,,,,,,
144,,isi,,html-keyboard-response,144,2361947,0.0-1.0-26.0-0.0-2.0,0,0,98,,,,,,24.0,,,,,1.0,,,,,,,,,,,,,,,,,,129.5,2.0,,,,,,,,,,,,,,,
145,,feedback,,html-keyboard-response,145,2362953,0.0-1.0-26.0-0.0-3.0-0.0,0,0,98,,,,,,24.0,,,,,1.0,,,,,,,,,,,,,,,,,,131.5,1.0,,,,,,,,,,,,,,,
146,,iti,,html-keyboard-response,146,2364457,0.0-1.0-26.0-0.0-5.0,0,0,98,,,,,,24.0,,,,,1.0,,,,,,,,,,,,,,,,,,132.5,1.5,,,,,,,,,,,,,,,
147,,choice,,html-keyboard-response,147,2365360,0.0-1.0-27.0-0.0-0.0,0,0,98,,900.0,,,50.0,25.0,25.0,1500.0,2000.0,0.0,1.0,0.0,40-60,,0.0,trumpet,flashlight,40.0,60.0,trumpet4,flashlight2,20.0,60.0,JUPITER+JTR1000S.jpg,AV-9 No Battery Flashlight.jpg,/static/Category_learning/Stimuli/Experimental_stims/trumpet/JUPITER+JTR1000S.jpg,/static/Category_learning/Stimuli/Experimental_stims/flashlight/AV-9 No Battery Flashlight.jpg,0.0,134.0,0.9,1.0,trumpet,flashlight,40.0,60.0,trumpet4,flashlight2,20.0,60.0,,,,,,
148,,confirmation,,html-keyboard-response,148,2365966,0.0-1.0-27.0-0.0-1.0-0.0,0,0,98,,,,,,25.0,,,,,1.0,,,,,,,,,,,,,,,,,,134.9,0.6,,,,,,,,,,,,,,,
149,,isi,,html-keyboard-response,149,2367470,0.0-1.0-27.0-0.0-2.0,0,0,98,,,,,,25.0,,,,,1.0,,,,,,,,,,,,,,,,,,135.5,1.5,,,,,,,,,,,,,,,
150,,feedback,,html-keyboard-response,150,2368477,0.0-1.0-27.0-0.0-3.0-0.0,0,0,98,,,,,,25.0,,,,,1.0,,,,,,,,,,,,,,,,,,137.0,1.0,,,,,,,,,,,,,,,
151,,iti,,html-keyboard-response,151,2370484,0.0-1.0-27.0-0.0-5.0,0,0,98,,,,,,25.0,,,,,1.0,,,,,,,,,,,,,,,,,,138.0,2.0,,,,,,,,,,,,,,,
152,,choice,,html-keyboard-response,152,2371523,0.0-1.0-28.0-0.0-0.0,0,0,98,,1036.0,,,51.0,26.0,26.0,1500.0,3000.0,0.0,1.0,0.0,40-60,,0.0,stool,bowl,40.0,60.0,stool9,bowl8,40.0,40.0,ASTOOL7.jpg,ASLVBOWL.jpg,/static/Category_learning/Stimuli/Experimental_stims/stool/ASTOOL7.jpg,/static/Category_learning/Stimuli/Experimental_stims/bowl/ASLVBOWL.jpg,0.0,140.0,1.036,0.0,bowl,stool,60.0,40.0,bowl8,stool9,40.0,40.0,,,,,,
153,,confirmation,,html-keyboard-response,153,2371992,0.0-1.0-28.0-0.0-1.0-0.0,0,0,98,,,,,,26.0,,,,,1.0,,,,,,,,,,,,,,,,,,141.036,0.464,,,,,,,,,,,,,,,
154,,isi,,html-keyboard-response,154,2373497,0.0-1.0-28.0-0.0-2.0,0,0,98,,,,,,26.0,,,,,1.0,,,,,,,,,,,,,,,,,,141.5,1.5,,,,,,,,,,,,,,,
155,,feedback,,html-keyboard-response,155,2374505,0.0-1.0-28.0-0.0-3.0-0.0,0,0,98,,,,,,26.0,,,,,1.0,,,,,,,,,,,,,,,,,,143.0,1.0,,,,,,,,,,,,,,,
156,,iti,,html-keyboard-response,156,2377513,0.0-1.0-28.0-0.0-5.0,0,0,98,,,,,,26.0,,,,,1.0,,,,,,,,,,,,,,,,,,144.0,3.0,,,,,,,,,,,,,,,
157,,choice,,html-keyboard-response,157,2378473,0.0-1.0-29.0-0.0-0.0,0,0,98,,956.0,,,50.0,27.0,27.0,1000.0,1000.0,0.0,1.0,0.0,80-80,,,key chain,lipstick,80.0,80.0,key chain8,lipstick5,100.0,80.0,Keychain01.jpg,P35719_hero.jpg,/static/Category_learning/Stimuli/Experimental_stims/key chain/Keychain01.jpg,/static/Category_learning/Stimuli/Experimental_stims/lipstick/P35719_hero.jpg,0.0,147.0,0.956,1.0,key chain,lipstick,80.0,80.0,key chain8,lipstick5,100.0,80.0,,,,,,
158,,confirmation,,html-keyboard-response,158,2379022,0.0-1.0-29.0-0.0-1.0-0.0,0,0,98,,,,,,27.0,,,,,1.0,,,,,,,,,,,,,,,,,,147.956,0.544,,,,,,,,,,,,,,,
159,,isi,,html-keyboard-response,159,2380030,0.0-1.0-29.0-0.0-2.0,0,0,98,,,,,,27.0,,,,,1.0,,,,,,,,,,,,,,,,,,148.5,1.0,,,,,,,,,,,,,,,
160,,feedback,,html-keyboard-response,160,2381038,0.0-1.0-29.0-0.0-3.0-0.0,0,0,98,,,,,,27.0,,,,,1.0,,,,,,,,,,,,,,,,,,149.5,1.0,,,,,,,,,,,,,,,
161,,iti,,html-keyboard-response,161,2382045,0.0-1.0-29.0-0.0-5.0,0,0,98,,,,,,27.0,,,,,1.0,,,,,,,,,,,,,,,,,,150.5,1.0,,,,,,,,,,,,,,,
162,,choice,,html-keyboard-response,162,2383221,0.0-1.0-30.0-0.0-0.0,0,0,98,,1172.0,,,50.0,28.0,28.0,3500.0,1500.0,0.0,1.0,0.0,60-60,,,bench,desk,60.0,60.0,bench7,desk5,40.0,80.0,ACONBENCH.jpg,ADESK6.jpg,/static/Category_learning/Stimuli/Experimental_stims/bench/ACONBENCH.jpg,/static/Category_learning/Stimuli/Experimental_stims/desk/ADESK6.jpg,0.0,151.5,1.172,1.0,bench,desk,60.0,60.0,bench7,desk5,40.0,80.0,,,,,,
163,,confirmation,,html-keyboard-response,163,2383553,0.0-1.0-30.0-0.0-1.0-0.0,0,0,98,,,,,,28.0,,,,,1.0,,,,,,,,,,,,,,,,,,152.672,0.328,,,,,,,,,,,,,,,
164,,isi,,html-keyboard-response,164,2387059,0.0-1.0-30.0-0.0-2.0,0,0,98,,,,,,28.0,,,,,1.0,,,,,,,,,,,,,,,,,,153.0,3.5,,,,,,,,,,,,,,,
165,,feedback,,html-keyboard-response,165,2388067,0.0-1.0-30.0-0.0-3.0-0.0,0,0,98,,,,,,28.0,,,,,1.0,,,,,,,,,,,,,,,,,,156.5,1.0,,,,,,,,,,,,,,,
166,,iti,,html-keyboard-response,166,2389571,0.0-1.0-30.0-0.0-5.0,0,0,98,,,,,,28.0,,,,,1.0,,,,,,,,,,,,,,,,,,157.5,1.5,,,,,,,,,,,,,,,
167,,choice,,html-keyboard-response,167,2390591,0.0-1.0-31.0-0.0-0.0,0,0,98,,1016.0,,,51.0,29.0,29.0,2000.0,1000.0,0.0,1.0,1.0,40-60,0.0,,yarn,bowl,40.0,60.0,yarn4,bowl8,40.0,40.0,amethyst dreaming boho hy sml.jpg,ASLVBOWL.jpg,/static/Category_learning/Stimuli/Experimental_stims/yarn/amethyst dreaming boho hy sml.jpg,/static/Category_learning/Stimuli/Experimental_stims/bowl/ASLVBOWL.jpg,0.0,159.0,1.016,0.0,bowl,yarn,60.0,40.0,bowl8,yarn4,40.0,40.0,,,,,,
168,,confirmation,,html-keyboard-response,168,2391081,0.0-1.0-31.0-0.0-1.0-0.0,0,0,98,,,,,,29.0,,,,,1.0,,,,,,,,,,,,,,,,,,160.016,0.484,,,,,,,,,,,,,,,
169,,isi,,html-keyboard-response,169,2393086,0.0-1.0-31.0-0.0-2.0,0,0,98,,,,,,29.0,,,,,1.0,,,,,,,,,,,,,,,,,,160.5,2.0,,,,,,,,,,,,,,,
170,,feedback,,html-keyboard-response,170,2394094,0.0-1.0-31.0-0.0-3.0-0.0,0,0,98,,,,,,29.0,,,,,1.0,,,,,,,,,,,,,,,,,,162.5,1.0,,,,,,,,,,,,,,,
171,,iti,,html-keyboard-response,171,2395102,0.0-1.0-31.0-0.0-5.0,0,0,98,,,,,,29.0,,,,,1.0,,,,,,,,,,,,,,,,,,163.5,1.0,,,,,,,,,,,,,,,
172,,choice,,html-keyboard-response,172,2396358,0.0-1.0-32.0-0.0-0.0,0,0,98,,1253.0,,,50.0,30.0,30.0,2000.0,3500.0,0.0,1.0,0.0,40-60,,0.0,stool,dresser,40.0,60.0,stool10,dresser12,60.0,60.0,ASTOOL26.jpg,ADRESSE58.jpg,/static/Category_learning/Stimuli/Experimental_stims/stool/ASTOOL26.jpg,/static/Category_learning/Stimuli/Experimental_stims/dresser/ADRESSE58.jpg,0.0,164.5,1.253,1.0,stool,dresser,40.0,60.0,stool10,dresser12,60.0,60.0,,,,,,
173,,confirmation,,html-keyboard-response,173,2396611,0.0-1.0-32.0-0.0-1.0-0.0,0,0,98,,,,,,30.0,,,,,1.0,,,,,,,,,,,,,,,,,,165.753,0.247,,,,,,,,,,,,,,,
174,,isi,,html-keyboard-response,174,2398616,0.0-1.0-32.0-0.0-2.0,0,0,98,,,,,,30.0,,,,,1.0,,,,,,,,,,,,,,,,,,166.0,2.0,,,,,,,,,,,,,,,
175,,feedback,,html-keyboard-response,175,2399625,0.0-1.0-32.0-0.0-3.0-0.0,0,0,98,,,,,,30.0,,,,,1.0,,,,,,,,,,,,,,,,,,168.0,1.0,,,,,,,,,,,,,,,
176,,iti,,html-keyboard-response,176,2403134,0.0-1.0-32.0-0.0-5.0,0,0,98,,,,,,30.0,,,,,1.0,,,,,,,,,,,,,,,,,,169.0,3.5,,,,,,,,,,,,,,,
177,,choice,,html-keyboard-response,177,2404050,0.0-1.0-33.0-0.0-0.0,0,0,98,,912.0,,,50.0,31.0,31.0,2000.0,2000.0,0.0,1.0,1.0,40-40,0.0,,stool,trumpet,40.0,40.0,stool10,trumpet4,60.0,20.0,ASTOOL26.jpg,JUPITER+JTR1000S.jpg,/static/Category_learning/Stimuli/Experimental_stims/stool/ASTOOL26.jpg,/static/Category_learning/Stimuli/Experimental_stims/trumpet/JUPITER+JTR1000S.jpg,0.0,172.5,0.912,1.0,stool,trumpet,40.0,40.0,stool10,trumpet4,60.0,20.0,,,,,,
178,,confirmation,,html-keyboard-response,178,2404643,0.0-1.0-33.0-0.0-1.0-0.0,0,0,98,,,,,,31.0,,,,,1.0,,,,,,,,,,,,,,,,,,173.412,0.588,,,,,,,,,,,,,,,
179,,isi,,html-keyboard-response,179,2406648,0.0-1.0-33.0-0.0-2.0,0,0,98,,,,,,31.0,,,,,1.0,,,,,,,,,,,,,,,,,,174.0,2.0,,,,,,,,,,,,,,,
180,,feedback,,html-keyboard-response,180,2407656,0.0-1.0-33.0-0.0-3.0-0.0,0,0,98,,,,,,31.0,,,,,1.0,,,,,,,,,,,,,,,,,,176.0,1.0,,,,,,,,,,,,,,,
181,,iti,,html-keyboard-response,181,2409661,0.0-1.0-33.0-0.0-5.0,0,0,98,,,,,,31.0,,,,,1.0,,,,,,,,,,,,,,,,,,177.0,2.0,,,,,,,,,,,,,,,
182,,choice,,html-keyboard-response,182,2411009,0.0-1.0-34.0-0.0-0.0,0,0,98,,1344.0,,,50.0,32.0,32.0,1500.0,2000.0,0.0,1.0,0.0,40-40,,,stool,tape,40.0,40.0,stool8,tape9,60.0,40.0,ASTOOL33.jpg,desk tape disp.jpg,/static/Category_learning/Stimuli/Experimental_stims/stool/ASTOOL33.jpg,/static/Category_learning/Stimuli/Experimental_stims/tape/desk tape disp.jpg,0.0,179.0,1.344,1.0,stool,tape,40.0,40.0,stool8,tape9,60.0,40.0,,,,,,
183,,confirmation,,html-keyboard-response,183,2411171,0.0-1.0-34.0-0.0-1.0-0.0,0,0,98,,,,,,32.0,,,,,1.0,,,,,,,,,,,,,,,,,,180.344,0.156,,,,,,,,,,,,,,,
184,,isi,,html-keyboard-response,184,2412675,0.0-1.0-34.0-0.0-2.0,0,0,98,,,,,,32.0,,,,,1.0,,,,,,,,,,,,,,,,,,180.5,1.5,,,,,,,,,,,,,,,
185,,feedback,,html-keyboard-response,185,2413683,0.0-1.0-34.0-0.0-3.0-0.0,0,0,98,,,,,,32.0,,,,,1.0,,,,,,,,,,,,,,,,,,182.0,1.0,,,,,,,,,,,,,,,
186,,iti,,html-keyboard-response,186,2415688,0.0-1.0-34.0-0.0-5.0,0,0,98,,,,,,32.0,,,,,1.0,,,,,,,,,,,,,,,,,,183.0,2.0,,,,,,,,,,,,,,,
187,,choice,,html-keyboard-response,187,2416996,0.0-1.0-35.0-0.0-0.0,0,0,98,,1304.0,,,51.0,33.0,33.0,1000.0,3000.0,0.0,1.0,0.0,40-40,,,yarn,tent,40.0,40.0,yarn10,tent5,60.0,60.0,revelation-yarn.jpg,Dome Tentnb87r67.jpg,/static/Category_learning/Stimuli/Experimental_stims/yarn/revelation-yarn.jpg,/static/Category_learning/Stimuli/Experimental_stims/tent/Dome Tentnb87r67.jpg,0.0,185.0,1.304,0.0,tent,yarn,40.0,40.0,tent5,yarn10,60.0,60.0,,,,,,
188,,confirmation,,html-keyboard-response,188,2417197,0.0-1.0-35.0-0.0-1.0-0.0,0,0,98,,,,,,33.0,,,,,1.0,,,,,,,,,,,,,,,,,,186.304,0.196,,,,,,,,,,,,,,,
189,,isi,,html-keyboard-response,189,2418205,0.0-1.0-35.0-0.0-2.0,0,0,98,,,,,,33.0,,,,,1.0,,,,,,,,,,,,,,,,,,186.5,1.0,,,,,,,,,,,,,,,
190,,feedback,,html-keyboard-response,190,2419213,0.0-1.0-35.0-0.0-3.0-0.0,0,0,98,,,,,,33.0,,,,,1.0,,,,,,,,,,,,,,,,,,187.5,1.0,,,,,,,,,,,,,,,
191,,iti,,html-keyboard-response,191,2422221,0.0-1.0-35.0-0.0-5.0,0,0,98,,,,,,33.0,,,,,1.0,,,,,,,,,,,,,,,,,,188.5,3.0,,,,,,,,,,,,,,,
192,,choice,,html-keyboard-response,192,2423257,0.0-1.0-36.0-0.0-0.0,0,0,98,,1031.0,,,50.0,34.0,34.0,1000.0,1500.0,0.0,1.0,0.0,20-20,,,pen,nail polish,20.0,20.0,pen2,nail polish3,20.0,40.0,Montblanc-Blu-Starwalker-BP copy.jpg,327636.jpg,/static/Category_learning/Stimuli/Experimental_stims/pen/Montblanc-Blu-Starwalker-BP copy.jpg,/static/Category_learning/Stimuli/Experimental_stims/nail polish/327636.jpg,0.0,191.5,1.031,1.0,pen,nail polish,20.0,20.0,pen2,nail polish3,20.0,40.0,,,,,,
193,,confirmation,,html-keyboard-response,193,2423730,0.0-1.0-36.0-0.0-1.0-0.0,0,0,98,,,,,,34.0,,,,,1.0,,,,,,,,,,,,,,,,,,192.531,0.469,,,,,,,,,,,,,,,
194,,isi,,html-keyboard-response,194,2424738,0.0-1.0-36.0-0.0-2.0,0,0,98,,,,,,34.0,,,,,1.0,,,,,,,,,,,,,,,,,,193.0,1.0,,,,,,,,,,,,,,,
195,,feedback,,html-keyboard-response,195,2425746,0.0-1.0-36.0-0.0-3.0-0.0,0,0,98,,,,,,34.0,,,,,1.0,,,,,,,,,,,,,,,,,,194.0,1.0,,,,,,,,,,,,,,,
196,,iti,,html-keyboard-response,196,2427250,0.0-1.0-36.0-0.0-5.0,0,0,98,,,,,,34.0,,,,,1.0,,,,,,,,,,,,,,,,,,195.0,1.5,,,,,,,,,,,,,,,
197,,choice,,html-keyboard-response,197,2428695,0.0-1.0-37.0-0.0-0.0,0,0,98,,1440.0,,,50.0,35.0,35.0,1500.0,1000.0,0.0,1.0,0.0,40-60,,0.0,stool,dresser,40.0,60.0,stool2,dresser14,20.0,60.0,ASTOOL46.jpg,Adressertabl3.jpg,/static/Category_learning/Stimuli/Experimental_stims/stool/ASTOOL46.jpg,/static/Category_learning/Stimuli/Experimental_stims/dresser/Adressertabl3.jpg,0.0,196.5,1.44,1.0,stool,dresser,40.0,60.0,stool2,dresser14,20.0,60.0,,,,,,
198,,confirmation,,html-keyboard-response,198,2428760,0.0-1.0-37.0-0.0-1.0-0.0,0,0,98,,,,,,35.0,,,,,1.0,,,,,,,,,,,,,,,,,,197.94,0.06,,,,,,,,,,,,,,,
199,,isi,,html-keyboard-response,199,2430264,0.0-1.0-37.0-0.0-2.0,0,0,98,,,,,,35.0,,,,,1.0,,,,,,,,,,,,,,,,,,198.0,1.5,,,,,,,,,,,,,,,
200,,feedback,,html-keyboard-response,200,2431271,0.0-1.0-37.0-0.0-3.0-0.0,0,0,98,,,,,,35.0,,,,,1.0,,,,,,,,,,,,,,,,,,199.5,1.0,,,,,,,,,,,,,,,
201,,iti,,html-keyboard-response,201,2432274,0.0-1.0-37.0-0.0-5.0,0,0,98,,,,,,35.0,,,,,1.0,,,,,,,,,,,,,,,,,,200.5,1.0,,,,,,,,,,,,,,,
202,,choice,,html-keyboard-response,202,2433510,0.0-1.0-38.0-0.0-0.0,0,0,98,,1231.0,,,51.0,36.0,36.0,1500.0,1000.0,0.0,1.0,0.0,20-80,,0.0,necklace,motorcycle,20.0,80.0,necklace2,motorcycle2,20.0,100.0,Anecklace7.jpg,motorcycle33.jpg,/static/Category_learning/Stimuli/Experimental_stims/necklace/Anecklace7.jpg,/static/Category_learning/Stimuli/Experimental_stims/motorcycle/motorcycle33.jpg,0.0,201.5,1.231,0.0,motorcycle,necklace,80.0,20.0,motorcycle2,necklace2,100.0,20.0,,,,,,
203,,confirmation,,html-keyboard-response,203,2433783,0.0-1.0-38.0-0.0-1.0-0.0,0,0,98,,,,,,36.0,,,,,1.0,,,,,,,,,,,,,,,,,,202.731,0.269,,,,,,,,,,,,,,,
204,,isi,,html-keyboard-response,204,2435287,0.0-1.0-38.0-0.0-2.0,0,0,98,,,,,,36.0,,,,,1.0,,,,,,,,,,,,,,,,,,203.0,1.5,,,,,,,,,,,,,,,
205,,feedback,,html-keyboard-response,205,2436293,0.0-1.0-38.0-0.0-3.0-0.0,0,0,98,,,,,,36.0,,,,,1.0,,,,,,,,,,,,,,,,,,204.5,1.0,,,,,,,,,,,,,,,
206,,iti,,html-keyboard-response,206,2437298,0.0-1.0-38.0-0.0-5.0,0,0,98,,,,,,36.0,,,,,1.0,,,,,,,,,,,,,,,,,,205.5,1.0,,,,,,,,,,,,,,,
207,,choice,,html-keyboard-response,207,2438293,0.0-1.0-39.0-0.0-0.0,0,0,98,,991.0,,,51.0,37.0,37.0,1000.0,1000.0,0.0,1.0,1.0,40-40,1.0,,stool,stool,40.0,40.0,stool8,stool2,60.0,20.0,ASTOOL33.jpg,ASTOOL46.jpg,/static/Category_learning/Stimuli/Experimental_stims/stool/ASTOOL33.jpg,/static/Category_learning/Stimuli/Experimental_stims/stool/ASTOOL46.jpg,0.0,206.5,0.991,0.0,stool,stool,40.0,40.0,stool2,stool8,20.0,60.0,,,,,,
208,,confirmation,,html-keyboard-response,208,2438807,0.0-1.0-39.0-0.0-1.0-0.0,0,0,98,,,,,,37.0,,,,,1.0,,,,,,,,,,,,,,,,,,207.491,0.509,,,,,,,,,,,,,,,
209,,isi,,html-keyboard-response,209,2439812,0.0-1.0-39.0-0.0-2.0,0,0,98,,,,,,37.0,,,,,1.0,,,,,,,,,,,,,,,,,,208.0,1.0,,,,,,,,,,,,,,,
210,,feedback,,html-keyboard-response,210,2440818,0.0-1.0-39.0-0.0-3.0-0.0,0,0,98,,,,,,37.0,,,,,1.0,,,,,,,,,,,,,,,,,,209.0,1.0,,,,,,,,,,,,,,,
211,,iti,,html-keyboard-response,211,2441826,0.0-1.0-39.0-0.0-5.0,0,0,98,,,,,,37.0,,,,,1.0,,,,,,,,,,,,,,,,,,210.0,1.0,,,,,,,,,,,,,,,
212,,choice,,html-keyboard-response,212,2442898,0.0-1.0-40.0-0.0-0.0,0,0,98,,1068.0,,,50.0,38.0,38.0,3000.0,1000.0,0.0,1.0,0.0,20-60,,0.0,sofa,bongo,20.0,60.0,sofa9,bongo12,20.0,40.0,ALOVSEAT9.jpg,26686609.thl.jpg,/static/Category_learning/Stimuli/Experimental_stims/sofa/ALOVSEAT9.jpg,/static/Category_learning/Stimuli/Experimental_stims/bongo/26686609.thl.jpg,0.0,211.0,1.068,1.0,sofa,bongo,20.0,60.0,sofa9,bongo12,20.0,40.0,,,,,,
213,,confirmation,,html-keyboard-response,213,2443334,0.0-1.0-40.0-0.0-1.0-0.0,0,0,98,,,,,,38.0,,,,,1.0,,,,,,,,,,,,,,,,,,212.068,0.432,,,,,,,,,,,,,,,
214,,isi,,html-keyboard-response,214,2446339,0.0-1.0-40.0-0.0-2.0,0,0,98,,,,,,38.0,,,,,1.0,,,,,,,,,,,,,,,,,,212.5,3.0,,,,,,,,,,,,,,,
215,,feedback,,html-keyboard-response,215,2447346,0.0-1.0-40.0-0.0-3.0-0.0,0,0,98,,,,,,38.0,,,,,1.0,,,,,,,,,,,,,,,,,,215.5,1.0,,,,,,,,,,,,,,,
216,,iti,,html-keyboard-response,216,2448354,0.0-1.0-40.0-0.0-5.0,0,0,98,,,,,,38.0,,,,,1.0,,,,,,,,,,,,,,,,,,216.5,1.0,,,,,,,,,,,,,,,
217,,choice,,html-keyboard-response,217,2449771,0.0-1.0-41.0-0.0-0.0,0,0,98,,1413.0,,,51.0,39.0,39.0,3000.0,3000.0,0.0,1.0,0.0,20-20,,,patio lounge chair,seashell,20.0,20.0,patio lounge chair14,seashell13,40.0,0.0,2987951.jpg,coquillage22.jpg,/static/Category_learning/Stimuli/Experimental_stims/patio lounge chair/2987951.jpg,/static/Category_learning/Stimuli/Experimental_stims/seashell/coquillage22.jpg,0.0,217.5,1.413,0.0,seashell,patio lounge chair,20.0,20.0,seashell13,patio lounge chair14,0.0,40.0,,,,,,
218,,confirmation,,html-keyboard-response,218,2449863,0.0-1.0-41.0-0.0-1.0-0.0,0,0,98,,,,,,39.0,,,,,1.0,,,,,,,,,,,,,,,,,,218.913,0.087,,,,,,,,,,,,,,,
219,,isi,,html-keyboard-response,219,2452871,0.0-1.0-41.0-0.0-2.0,0,0,98,,,,,,39.0,,,,,1.0,,,,,,,,,,,,,,,,,,219.0,3.0,,,,,,,,,,,,,,,
220,,feedback,,html-keyboard-response,220,2453878,0.0-1.0-41.0-0.0-3.0-0.0,0,0,98,,,,,,39.0,,,,,1.0,,,,,,,,,,,,,,,,,,222.0,1.0,,,,,,,,,,,,,,,
221,,iti,,html-keyboard-response,221,2456884,0.0-1.0-41.0-0.0-5.0,0,0,98,,,,,,39.0,,,,,1.0,,,,,,,,,,,,,,,,,,223.0,3.0,,,,,,,,,,,,,,,
222,,choice,,html-keyboard-response,222,2458102,0.0-1.0-42.0-0.0-0.0,0,0,98,,1214.0,,,51.0,40.0,40.0,2000.0,2000.0,0.0,1.0,0.0,60-80,,1.0,makeup compact,flashlight,80.0,60.0,makeup compact9,flashlight10,100.0,80.0,b_102019.jpg,834784_sk_lg.jpg,/static/Category_learning/Stimuli/Experimental_stims/makeup compact/b_102019.jpg,/static/Category_learning/Stimuli/Experimental_stims/flashlight/834784_sk_lg.jpg,0.0,226.0,1.214,0.0,flashlight,makeup compact,60.0,80.0,flashlight10,makeup compact9,80.0,100.0,,,,,,
223,,confirmation,,html-keyboard-response,223,2458393,0.0-1.0-42.0-0.0-1.0-0.0,0,0,98,,,,,,40.0,,,,,1.0,,,,,,,,,,,,,,,,,,227.214,0.286,,,,,,,,,,,,,,,
224,,isi,,html-keyboard-response,224,2460399,0.0-1.0-42.0-0.0-2.0,0,0,98,,,,,,40.0,,,,,1.0,,,,,,,,,,,,,,,,,,227.5,2.0,,,,,,,,,,,,,,,
225,,feedback,,html-keyboard-response,225,2461404,0.0-1.0-42.0-0.0-3.0-0.0,0,0,98,,,,,,40.0,,,,,1.0,,,,,,,,,,,,,,,,,,229.5,1.0,,,,,,,,,,,,,,,
226,,iti,,html-keyboard-response,226,2463410,0.0-1.0-42.0-0.0-5.0,0,0,98,,,,,,40.0,,,,,1.0,,,,,,,,,,,,,,,,,,230.5,2.0,,,,,,,,,,,,,,,
227,,choice,,html-keyboard-response,227,2464760,0.0-1.0-43.0-0.0-0.0,0,0,98,,1346.0,,,50.0,41.0,41.0,2000.0,1000.0,0.0,1.0,1.0,60-60,1.0,,flashlight,flashlight,60.0,60.0,flashlight1,flashlight10,40.0,80.0,Graphite3D.jpg,834784_sk_lg.jpg,/static/Category_learning/Stimuli/Experimental_stims/flashlight/Graphite3D.jpg,/static/Category_learning/Stimuli/Experimental_stims/flashlight/834784_sk_lg.jpg,0.0,232.5,1.346,1.0,flashlight,flashlight,60.0,60.0,flashlight1,flashlight10,40.0,80.0,,,,,,
228,,confirmation,,html-keyboard-response,228,2464919,0.0-1.0-43.0-0.0-1.0-0.0,0,0,98,,,,,,41.0,,,,,1.0,,,,,,,,,,,,,,,,,,233.846,0.154,,,,,,,,,,,,,,,
229,,isi,,html-keyboard-response,229,2466924,0.0-1.0-43.0-0.0-2.0,0,0,98,,,,,,41.0,,,,,1.0,,,,,,,,,,,,,,,,,,234.0,2.0,,,,,,,,,,,,,,,
230,,feedback,,html-keyboard-response,230,2467932,0.0-1.0-43.0-0.0-3.0-0.0,0,0,98,,,,,,41.0,,,,,1.0,,,,,,,,,,,,,,,,,,236.0,1.0,,,,,,,,,,,,,,,
231,,iti,,html-keyboard-response,231,2468940,0.0-1.0-43.0-0.0-5.0,0,0,98,,,,,,41.0,,,,,1.0,,,,,,,,,,,,,,,,,,237.0,1.0,,,,,,,,,,,,,,,
232,,choice,,html-keyboard-response,232,2470450,0.0-1.0-44.0-0.0-0.0,0,0,98,,,,,,42.0,42.0,1000.0,1500.0,0.0,1.0,0.0,40-80,,1.0,makeup compact,trumpet,80.0,40.0,makeup compact6,trumpet13,80.0,40.0,P0754_hero.jpg,JUPITER+JTR1600GS.jpg,/static/Category_learning/Stimuli/Experimental_stims/makeup compact/P0754_hero.jpg,/static/Category_learning/Stimuli/Experimental_stims/trumpet/JUPITER+JTR1600GS.jpg,1.0,238.0,1.5,,,,,,,,,,,,,,,
233,,isi,,html-keyboard-response,233,2471458,0.0-1.0-44.0-0.0-2.0,0,0,98,,,,,,42.0,,,,,1.0,,,,,,,,,,,,,,,,,,239.5,1.0,,,,,,,,,,,,,,,
234,,no_response,,html-keyboard-response,234,2472465,0.0-1.0-44.0-0.0-4.0-0.0,0,0,98,,,,,,42.0,,,,,1.0,,,,,,,,,,,,,,,,,,240.5,1.0,,,,,,,,,,,,,,,
235,,iti,,html-keyboard-response,235,2473988,0.0-1.0-44.0-0.0-5.0,0,0,98,,,,,,42.0,,,,,1.0,,,,,,,,,,,,,,,,,,241.5,1.5,,,,,,,,,,,,,,,
236,,choice,,html-keyboard-response,236,2474405,0.0-1.0-44.0-0.1-0.1,0,0,98,,413.0,,,50.0,42.0,42.0,1000.0,1500.0,0.0,1.0,0.0,40-80,,1.0,makeup compact,trumpet,80.0,40.0,makeup compact6,trumpet13,80.0,40.0,P0754_hero.jpg,JUPITER+JTR1600GS.jpg,/static/Category_learning/Stimuli/Experimental_stims/makeup compact/P0754_hero.jpg,/static/Category_learning/Stimuli/Experimental_stims/trumpet/JUPITER+JTR1600GS.jpg,0.0,243.0,0.413,1.0,makeup compact,trumpet,80.0,40.0,makeup compact6,trumpet13,80.0,40.0,,,,,,
237,,confirmation,,html-keyboard-response,237,2475496,0.0-1.0-44.0-0.1-1.1-0.1,0,0,98,,,,,,42.0,,,,,1.0,,,,,,,,,,,,,,,,,,243.413,1.087,,,,,,,,,,,,,,,
238,,isi,,html-keyboard-response,238,2479004,0.0-1.0-44.0-0.1-2.1,0,0,98,,,,,,42.0,,,,,1.0,,,,,,,,,,,,,,,,,,244.5,3.5,,,,,,,,,,,,,,,
239,,feedback,,html-keyboard-response,239,2480012,0.0-1.0-44.0-0.1-3.1-0.1,0,0,98,,,,,,42.0,,,,,1.0,,,,,,,,,,,,,,,,,,248.0,1.0,,,,,,,,,,,,,,,
240,,iti,,html-keyboard-response,240,2481516,0.0-1.0-44.0-0.1-5.1,0,0,98,,,,,,42.0,,,,,1.0,,,,,,,,,,,,,,,,,,249.0,1.5,,,,,,,,,,,,,,,
241,,choice,,html-keyboard-response,241,2482934,0.0-1.0-45.0-0.0-0.0,0,0,98,,1414.0,,,51.0,43.0,43.0,1000.0,2000.0,0.0,1.0,0.0,80-80,,,hat,makeup compact,80.0,80.0,hat2,makeup compact10,100.0,60.0,Ahatwithfeat7.jpg,P95108_hero.jpg,/static/Category_learning/Stimuli/Experimental_stims/hat/Ahatwithfeat7.jpg,/static/Category_learning/Stimuli/Experimental_stims/makeup compact/P95108_hero.jpg,0.0,250.5,1.414,0.0,makeup compact,hat,80.0,80.0,makeup compact10,hat2,60.0,100.0,,,,,,
242,,confirmation,,html-keyboard-response,242,2483025,0.0-1.0-45.0-0.0-1.0-0.0,0,0,98,,,,,,43.0,,,,,1.0,,,,,,,,,,,,,,,,,,251.914,0.086,,,,,,,,,,,,,,,
243,,isi,,html-keyboard-response,243,2484029,0.0-1.0-45.0-0.0-2.0,0,0,98,,,,,,43.0,,,,,1.0,,,,,,,,,,,,,,,,,,252.0,1.0,,,,,,,,,,,,,,,
244,,feedback,,html-keyboard-response,244,2485034,0.0-1.0-45.0-0.0-3.0-0.0,0,0,98,,,,,,43.0,,,,,1.0,,,,,,,,,,,,,,,,,,253.0,1.0,,,,,,,,,,,,,,,
245,,iti,,html-keyboard-response,245,2487038,0.0-1.0-45.0-0.0-5.0,0,0,98,,,,,,43.0,,,,,1.0,,,,,,,,,,,,,,,,,,254.0,2.0,,,,,,,,,,,,,,,
246,,choice,,html-keyboard-response,246,2488328,0.0-1.0-46.0-0.0-0.0,0,0,98,,1287.0,,,50.0,44.0,44.0,1500.0,1500.0,0.0,1.0,0.0,40-60,,1.0,fan,tent,60.0,40.0,fan1,tent4,80.0,40.0,01393.fpx.jpg,Atent12.jpg,/static/Category_learning/Stimuli/Experimental_stims/fan/01393.fpx.jpg,/static/Category_learning/Stimuli/Experimental_stims/tent/Atent12.jpg,0.0,256.0,1.287,1.0,fan,tent,60.0,40.0,fan1,tent4,80.0,40.0,,,,,,
247,,confirmation,,html-keyboard-response,247,2488545,0.0-1.0-46.0-0.0-1.0-0.0,0,0,98,,,,,,44.0,,,,,1.0,,,,,,,,,,,,,,,,,,257.287,0.213,,,,,,,,,,,,,,,
248,,isi,,html-keyboard-response,248,2490052,0.0-1.0-46.0-0.0-2.0,0,0,98,,,,,,44.0,,,,,1.0,,,,,,,,,,,,,,,,,,257.5,1.5,,,,,,,,,,,,,,,
249,,feedback,,html-keyboard-response,249,2491060,0.0-1.0-46.0-0.0-3.0-0.0,0,0,98,,,,,,44.0,,,,,1.0,,,,,,,,,,,,,,,,,,259.0,1.0,,,,,,,,,,,,,,,
250,,iti,,html-keyboard-response,250,2492566,0.0-1.0-46.0-0.0-5.0,0,0,98,,,,,,44.0,,,,,1.0,,,,,,,,,,,,,,,,,,260.0,1.5,,,,,,,,,,,,,,,
251,,choice,,html-keyboard-response,251,2494021,0.0-1.0-47.0-0.0-0.0,0,0,98,,1451.0,,,51.0,45.0,45.0,2000.0,3500.0,0.0,1.0,1.0,80-80,1.0,,makeup compact,makeup compact,80.0,80.0,makeup compact10,makeup compact6,60.0,80.0,P95108_hero.jpg,P0754_hero.jpg,/static/Category_learning/Stimuli/Experimental_stims/makeup compact/P95108_hero.jpg,/static/Category_learning/Stimuli/Experimental_stims/makeup compact/P0754_hero.jpg,0.0,261.5,1.451,0.0,makeup compact,makeup compact,80.0,80.0,makeup compact6,makeup compact10,80.0,60.0,,,,,,
252,,confirmation,,html-keyboard-response,252,2494075,0.0-1.0-47.0-0.0-1.0-0.0,0,0,98,,,,,,45.0,,,,,1.0,,,,,,,,,,,,,,,,,,262.951,0.049,,,,,,,,,,,,,,,
253,,isi,,html-keyboard-response,253,2496081,0.0-1.0-47.0-0.0-2.0,0,0,98,,,,,,45.0,,,,,1.0,,,,,,,,,,,,,,,,,,263.0,2.0,,,,,,,,,,,,,,,
254,,feedback,,html-keyboard-response,254,2497089,0.0-1.0-47.0-0.0-3.0-0.0,0,0,98,,,,,,45.0,,,,,1.0,,,,,,,,,,,,,,,,,,265.0,1.0,,,,,,,,,,,,,,,
255,,iti,,html-keyboard-response,255,2500593,0.0-1.0-47.0-0.0-5.0,0,0,98,,,,,,45.0,,,,,1.0,,,,,,,,,,,,,,,,,,266.0,3.5,,,,,,,,,,,,,,,
256,,choice,,html-keyboard-response,256,2501800,0.0-1.0-48.0-0.0-0.0,0,0,98,,1203.0,,,51.0,46.0,46.0,2000.0,1500.0,0.0,1.0,0.0,40-80,,0.0,yarn,lipstick,40.0,80.0,yarn8,lipstick9,60.0,100.0,smonlineyarn-285x250.jpg,P189145_hero.jpg,/static/Category_learning/Stimuli/Experimental_stims/yarn/smonlineyarn-285x250.jpg,/static/Category_learning/Stimuli/Experimental_stims/lipstick/P189145_hero.jpg,0.0,269.5,1.203,0.0,lipstick,yarn,80.0,40.0,lipstick9,yarn8,100.0,60.0,,,,,,
257,,confirmation,,html-keyboard-response,257,2502101,0.0-1.0-48.0-0.0-1.0-0.0,0,0,98,,,,,,46.0,,,,,1.0,,,,,,,,,,,,,,,,,,270.703,0.297,,,,,,,,,,,,,,,
258,,isi,,html-keyboard-response,258,2504108,0.0-1.0-48.0-0.0-2.0,0,0,98,,,,,,46.0,,,,,1.0,,,,,,,,,,,,,,,,,,271.0,2.0,,,,,,,,,,,,,,,
259,,feedback,,html-keyboard-response,259,2505116,0.0-1.0-48.0-0.0-3.0-0.0,0,0,98,,,,,,46.0,,,,,1.0,,,,,,,,,,,,,,,,,,273.0,1.0,,,,,,,,,,,,,,,
260,,iti,,html-keyboard-response,260,2506619,0.0-1.0-48.0-0.0-5.0,0,0,98,,,,,,46.0,,,,,1.0,,,,,,,,,,,,,,,,,,274.0,1.5,,,,,,,,,,,,,,,
261,,choice,,html-keyboard-response,261,2508004,0.0-1.0-49.0-0.0-0.0,0,0,98,,1381.0,,,51.0,47.0,47.0,1000.0,1000.0,0.0,1.0,1.0,60-80,0.0,,baby carriage,key chain,60.0,80.0,baby carriage5,key chain8,80.0,100.0,Baby_Stroller.jpg,Keychain01.jpg,/static/Category_learning/Stimuli/Experimental_stims/baby carriage/Baby_Stroller.jpg,/static/Category_learning/Stimuli/Experimental_stims/key chain/Keychain01.jpg,0.0,275.5,1.381,0.0,key chain,baby carriage,80.0,60.0,key chain8,baby carriage5,100.0,80.0,,,,,,
262,,confirmation,,html-keyboard-response,262,2508128,0.0-1.0-49.0-0.0-1.0-0.0,0,0,98,,,,,,47.0,,,,,1.0,,,,,,,,,,,,,,,,,,276.881,0.119,,,,,,,,,,,,,,,
263,,isi,,html-keyboard-response,263,2509137,0.0-1.0-49.0-0.0-2.0,0,0,98,,,,,,47.0,,,,,1.0,,,,,,,,,,,,,,,,,,277.0,1.0,,,,,,,,,,,,,,,
264,,feedback,,html-keyboard-response,264,2510144,0.0-1.0-49.0-0.0-3.0-0.0,0,0,98,,,,,,47.0,,,,,1.0,,,,,,,,,,,,,,,,,,278.0,1.0,,,,,,,,,,,,,,,
265,,iti,,html-keyboard-response,265,2511151,0.0-1.0-49.0-0.0-5.0,0,0,98,,,,,,47.0,,,,,1.0,,,,,,,,,,,,,,,,,,279.0,1.0,,,,,,,,,,,,,,,
266,,choice,,html-keyboard-response,266,2512052,0.0-1.0-50.0-0.0-0.0,0,0,98,,898.0,,,51.0,48.0,48.0,1500.0,1000.0,0.0,1.0,0.0,40-60,,0.0,train,flashlight,40.0,60.0,train8,flashlight12,40.0,60.0,PL51190.jpg,new05.jpg,/static/Category_learning/Stimuli/Experimental_stims/train/PL51190.jpg,/static/Category_learning/Stimuli/Experimental_stims/flashlight/new05.jpg,0.0,280.0,0.898,0.0,flashlight,train,60.0,40.0,flashlight12,train8,60.0,40.0,,,,,,
267,,confirmation,,html-keyboard-response,267,2512658,0.0-1.0-50.0-0.0-1.0-0.0,0,0,98,,,,,,48.0,,,,,1.0,,,,,,,,,,,,,,,,,,280.898,0.602,,,,,,,,,,,,,,,
268,,isi,,html-keyboard-response,268,2514162,0.0-1.0-50.0-0.0-2.0,0,0,98,,,,,,48.0,,,,,1.0,,,,,,,,,,,,,,,,,,281.5,1.5,,,,,,,,,,,,,,,
269,,feedback,,html-keyboard-response,269,2515169,0.0-1.0-50.0-0.0-3.0-0.0,0,0,98,,,,,,48.0,,,,,1.0,,,,,,,,,,,,,,,,,,283.0,1.0,,,,,,,,,,,,,,,
270,,iti,,html-keyboard-response,270,2516177,0.0-1.0-50.0-0.0-5.0,0,0,98,,,,,,48.0,,,,,1.0,,,,,,,,,,,,,,,,,,284.0,1.0,,,,,,,,,,,,,,,
271,,choice,,html-keyboard-response,271,2517138,0.0-1.0-51.0-0.0-0.0,0,0,98,,957.0,,,51.0,49.0,49.0,1000.0,1000.0,0.0,1.0,1.0,60-80,0.0,,flashlight,lipstick,60.0,80.0,flashlight12,lipstick9,60.0,100.0,new05.jpg,P189145_hero.jpg,/static/Category_learning/Stimuli/Experimental_stims/flashlight/new05.jpg,/static/Category_learning/Stimuli/Experimental_stims/lipstick/P189145_hero.jpg,0.0,285.0,0.957,0.0,lipstick,flashlight,80.0,60.0,lipstick9,flashlight12,100.0,60.0,,,,,,
272,,confirmation,,html-keyboard-response,272,2517686,0.0-1.0-51.0-0.0-1.0-0.0,0,0,98,,,,,,49.0,,,,,1.0,,,,,,,,,,,,,,,,,,285.957,0.543,,,,,,,,,,,,,,,
273,,isi,,html-keyboard-response,273,2518694,0.0-1.0-51.0-0.0-2.0,0,0,98,,,,,,49.0,,,,,1.0,,,,,,,,,,,,,,,,,,286.5,1.0,,,,,,,,,,,,,,,
274,,feedback,,html-keyboard-response,274,2519702,0.0-1.0-51.0-0.0-3.0-0.0,0,0,98,,,,,,49.0,,,,,1.0,,,,,,,,,,,,,,,,,,287.5,1.0,,,,,,,,,,,,,,,
275,,iti,,html-keyboard-response,275,2520710,0.0-1.0-51.0-0.0-5.0,0,0,98,,,,,,49.0,,,,,1.0,,,,,,,,,,,,,,,,,,288.5,1.0,,,,,,,,,,,,,,,
276,,choice,,html-keyboard-response,276,2521969,0.0-1.0-52.0-0.0-0.0,0,0,98,,1255.0,,,51.0,50.0,50.0,1000.0,2000.0,0.0,1.0,0.0,20-80,,1.0,lipstick,sofa,80.0,20.0,lipstick13,sofa8,60.0,20.0,P184708_hero.jpg,allegro-leather-sofa-med2.jpg,/static/Category_learning/Stimuli/Experimental_stims/lipstick/P184708_hero.jpg,/static/Category_learning/Stimuli/Experimental_stims/sofa/allegro-leather-sofa-med2.jpg,0.0,289.5,1.255,0.0,sofa,lipstick,20.0,80.0,sofa8,lipstick13,20.0,60.0,,,,,,
277,,confirmation,,html-keyboard-response,277,2522218,0.0-1.0-52.0-0.0-1.0-0.0,0,0,98,,,,,,50.0,,,,,1.0,,,,,,,,,,,,,,,,,,290.755,0.245,,,,,,,,,,,,,,,
278,,isi,,html-keyboard-response,278,2523225,0.0-1.0-52.0-0.0-2.0,0,0,98,,,,,,50.0,,,,,1.0,,,,,,,,,,,,,,,,,,291.0,1.0,,,,,,,,,,,,,,,
279,,feedback,,html-keyboard-response,279,2524230,0.0-1.0-52.0-0.0-3.0-0.0,0,0,98,,,,,,50.0,,,,,1.0,,,,,,,,,,,,,,,,,,292.0,1.0,,,,,,,,,,,,,,,
280,,iti,,html-keyboard-response,280,2526235,0.0-1.0-52.0-0.0-5.0,0,0,98,,,,,,50.0,,,,,1.0,,,,,,,,,,,,,,,,,,293.0,2.0,,,,,,,,,,,,,,,
281,,choice,,html-keyboard-response,281,2527719,0.0-1.0-53.0-0.0-0.0,0,0,98,,1479.0,,,50.0,51.0,51.0,1000.0,2000.0,0.0,1.0,0.0,40-60,,0.0,stool,baby carriage,40.0,60.0,stool5,baby carriage11,40.0,80.0,ASTOOL23.jpg,Baby_Carriage-2.jpg,/static/Category_learning/Stimuli/Experimental_stims/stool/ASTOOL23.jpg,/static/Category_learning/Stimuli/Experimental_stims/baby carriage/Baby_Carriage-2.jpg,0.0,295.0,1.479,1.0,stool,baby carriage,40.0,60.0,stool5,baby carriage11,40.0,80.0,,,,,,
282,,confirmation,,html-keyboard-response,282,2527744,0.0-1.0-53.0-0.0-1.0-0.0,0,0,98,,,,,,51.0,,,,,1.0,,,,,,,,,,,,,,,,,,296.479,0.021,,,,,,,,,,,,,,,
283,,isi,,html-keyboard-response,283,2528752,0.0-1.0-53.0-0.0-2.0,0,0,98,,,,,,51.0,,,,,1.0,,,,,,,,,,,,,,,,,,296.5,1.0,,,,,,,,,,,,,,,
284,,feedback,,html-keyboard-response,284,2529760,0.0-1.0-53.0-0.0-3.0-0.0,0,0,98,,,,,,51.0,,,,,1.0,,,,,,,,,,,,,,,,,,297.5,1.0,,,,,,,,,,,,,,,
285,,iti,,html-keyboard-response,285,2531766,0.0-1.0-53.0-0.0-5.0,0,0,98,,,,,,51.0,,,,,1.0,,,,,,,,,,,,,,,,,,298.5,2.0,,,,,,,,,,,,,,,
286,,choice,,html-keyboard-response,286,2532890,0.0-1.0-54.0-0.0-0.0,0,0,98,,1120.0,,,50.0,52.0,52.0,1000.0,2000.0,0.0,1.0,0.0,40-40,,,telescope,vase,40.0,40.0,telescope10,vase4,20.0,60.0,digimarc.ms02.jpg,Avase111.jpg,/static/Category_learning/Stimuli/Experimental_stims/telescope/digimarc.ms02.jpg,/static/Category_learning/Stimuli/Experimental_stims/vase/Avase111.jpg,0.0,300.5,1.12,1.0,telescope,vase,40.0,40.0,telescope10,vase4,20.0,60.0,,,,,,
287,,confirmation,,html-keyboard-response,287,2533274,0.0-1.0-54.0-0.0-1.0-0.0,0,0,98,,,,,,52.0,,,,,1.0,,,,,,,,,,,,,,,,,,301.62,0.38,,,,,,,,,,,,,,,
288,,isi,,html-keyboard-response,288,2534277,0.0-1.0-54.0-0.0-2.0,0,0,98,,,,,,52.0,,,,,1.0,,,,,,,,,,,,,,,,,,302.0,1.0,,,,,,,,,,,,,,,
289,,feedback,,html-keyboard-response,289,2535283,0.0-1.0-54.0-0.0-3.0-0.0,0,0,98,,,,,,52.0,,,,,1.0,,,,,,,,,,,,,,,,,,303.0,1.0,,,,,,,,,,,,,,,
290,,iti,,html-keyboard-response,290,2537288,0.0-1.0-54.0-0.0-5.0,0,0,98,,,,,,52.0,,,,,1.0,,,,,,,,,,,,,,,,,,304.0,2.0,,,,,,,,,,,,,,,
291,,choice,,html-keyboard-response,291,2538675,0.0-1.0-55.0-0.0-0.0,0,0,98,,1383.0,,,51.0,53.0,53.0,1000.0,1500.0,0.0,1.0,1.0,20-20,1.0,,sofa,sofa,20.0,20.0,sofa8,sofa9,20.0,20.0,allegro-leather-sofa-med2.jpg,ALOVSEAT9.jpg,/static/Category_learning/Stimuli/Experimental_stims/sofa/allegro-leather-sofa-med2.jpg,/static/Category_learning/Stimuli/Experimental_stims/sofa/ALOVSEAT9.jpg,0.0,306.0,1.383,0.0,sofa,sofa,20.0,20.0,sofa9,sofa8,20.0,20.0,,,,,,
292,,confirmation,,html-keyboard-response,292,2538796,0.0-1.0-55.0-0.0-1.0-0.0,0,0,98,,,,,,53.0,,,,,1.0,,,,,,,,,,,,,,,,,,307.383,0.117,,,,,,,,,,,,,,,
293,,isi,,html-keyboard-response,293,2539803,0.0-1.0-55.0-0.0-2.0,0,0,98,,,,,,53.0,,,,,1.0,,,,,,,,,,,,,,,,,,307.5,1.0,,,,,,,,,,,,,,,
294,,feedback,,html-keyboard-response,294,2540810,0.0-1.0-55.0-0.0-3.0-0.0,0,0,98,,,,,,53.0,,,,,1.0,,,,,,,,,,,,,,,,,,308.5,1.0,,,,,,,,,,,,,,,
295,,iti,,html-keyboard-response,295,2542315,0.0-1.0-55.0-0.0-5.0,0,0,98,,,,,,53.0,,,,,1.0,,,,,,,,,,,,,,,,,,309.5,1.5,,,,,,,,,,,,,,,
296,,choice,,html-keyboard-response,296,2543664,0.0-1.0-56.0-0.0-0.0,0,0,98,,1345.0,,,50.0,54.0,54.0,2000.0,1500.0,0.0,1.0,0.0,20-80,,1.0,hat,nail polish,80.0,20.0,hat3,nail polish14,100.0,40.0,Astrawhat49.jpg,38031405.JPG,/static/Category_learning/Stimuli/Experimental_stims/hat/Astrawhat49.jpg,/static/Category_learning/Stimuli/Experimental_stims/nail polish/38031405.JPG,0.0,311.0,1.345,1.0,hat,nail polish,80.0,20.0,hat3,nail polish14,100.0,40.0,,,,,,
297,,confirmation,,html-keyboard-response,297,2543824,0.0-1.0-56.0-0.0-1.0-0.0,0,0,98,,,,,,54.0,,,,,1.0,,,,,,,,,,,,,,,,,,312.345,0.155,,,,,,,,,,,,,,,
298,,isi,,html-keyboard-response,298,2545832,0.0-1.0-56.0-0.0-2.0,0,0,98,,,,,,54.0,,,,,1.0,,,,,,,,,,,,,,,,,,312.5,2.0,,,,,,,,,,,,,,,
299,,feedback,,html-keyboard-response,299,2546837,0.0-1.0-56.0-0.0-3.0-0.0,0,0,98,,,,,,54.0,,,,,1.0,,,,,,,,,,,,,,,,,,314.5,1.0,,,,,,,,,,,,,,,
300,,iti,,html-keyboard-response,300,2548341,0.0-1.0-56.0-0.0-5.0,0,0,98,,,,,,54.0,,,,,1.0,,,,,,,,,,,,,,,,,,315.5,1.5,,,,,,,,,,,,,,,
301,,choice,,html-keyboard-response,301,2549843,0.0-1.0-57.0-0.0-0.0,0,0,98,,1498.0,,,51.0,55.0,55.0,3000.0,1000.0,0.0,1.0,0.0,20-60,,0.0,necklace,bench,20.0,60.0,necklace6,bench4,0.0,40.0,Agoldnecklace.jpg,30892819.thl.jpg,/static/Category_learning/Stimuli/Experimental_stims/necklace/Agoldnecklace.jpg,/static/Category_learning/Stimuli/Experimental_stims/bench/30892819.thl.jpg,0.0,317.0,1.498,0.0,bench,necklace,60.0,20.0,bench4,necklace6,40.0,0.0,,,,,,
302,,confirmation,,html-keyboard-response,302,2549848,0.0-1.0-57.0-0.0-1.0-0.0,0,0,98,,,,,,55.0,,,,,1.0,,,,,,,,,,,,,,,,,,318.498,0.002,,,,,,,,,,,,,,,
303,,isi,,html-keyboard-response,303,2552853,0.0-1.0-57.0-0.0-2.0,0,0,98,,,,,,55.0,,,,,1.0,,,,,,,,,,,,,,,,,,318.5,3.0,,,,,,,,,,,,,,,
304,,feedback,,html-keyboard-response,304,2553861,0.0-1.0-57.0-0.0-3.0-0.0,0,0,98,,,,,,55.0,,,,,1.0,,,,,,,,,,,,,,,,,,321.5,1.0,,,,,,,,,,,,,,,
305,,iti,,html-keyboard-response,305,2554868,0.0-1.0-57.0-0.0-5.0,0,0,98,,,,,,55.0,,,,,1.0,,,,,,,,,,,,,,,,,,322.5,1.0,,,,,,,,,,,,,,,
306,,choice,,html-keyboard-response,306,2555760,0.0-1.0-58.0-0.0-0.0,0,0,98,,890.0,,,50.0,56.0,56.0,1000.0,1500.0,0.0,1.0,0.0,20-80,,1.0,key chain,sofa,80.0,20.0,key chain1,sofa13,80.0,40.0,jm05s16.jpg,ACOUCH25.jpg,/static/Category_learning/Stimuli/Experimental_stims/key chain/jm05s16.jpg,/static/Category_learning/Stimuli/Experimental_stims/sofa/ACOUCH25.jpg,0.0,323.5,0.89,1.0,key chain,sofa,80.0,20.0,key chain1,sofa13,80.0,40.0,,,,,,
307,,confirmation,,html-keyboard-response,307,2556374,0.0-1.0-58.0-0.0-1.0-0.0,0,0,98,,,,,,56.0,,,,,1.0,,,,,,,,,,,,,,,,,,324.39,0.61,,,,,,,,,,,,,,,
308,,isi,,html-keyboard-response,308,2557381,0.0-1.0-58.0-0.0-2.0,0,0,98,,,,,,56.0,,,,,1.0,,,,,,,,,,,,,,,,,,325.0,1.0,,,,,,,,,,,,,,,
309,,feedback,,html-keyboard-response,309,2558389,0.0-1.0-58.0-0.0-3.0-0.0,0,0,98,,,,,,56.0,,,,,1.0,,,,,,,,,,,,,,,,,,326.0,1.0,,,,,,,,,,,,,,,
310,,iti,,html-keyboard-response,310,2559893,0.0-1.0-58.0-0.0-5.0,0,0,98,,,,,,56.0,,,,,1.0,,,,,,,,,,,,,,,,,,327.0,1.5,,,,,,,,,,,,,,,
311,,choice,,html-keyboard-response,311,2561370,0.0-1.0-59.0-0.0-0.0,0,0,98,,1472.0,,,50.0,57.0,57.0,1500.0,1000.0,0.0,1.0,1.0,60-60,1.0,,bench,bench,60.0,60.0,bench7,bench4,40.0,40.0,ACONBENCH.jpg,30892819.thl.jpg,/static/Category_learning/Stimuli/Experimental_stims/bench/ACONBENCH.jpg,/static/Category_learning/Stimuli/Experimental_stims/bench/30892819.thl.jpg,0.0,328.5,1.472,1.0,bench,bench,60.0,60.0,bench7,bench4,40.0,40.0,,,,,,
312,,confirmation,,html-keyboard-response,312,2561402,0.0-1.0-59.0-0.0-1.0-0.0,0,0,98,,,,,,57.0,,,,,1.0,,,,,,,,,,,,,,,,,,329.972,0.028,,,,,,,,,,,,,,,
313,,isi,,html-keyboard-response,313,2562906,0.0-1.0-59.0-0.0-2.0,0,0,98,,,,,,57.0,,,,,1.0,,,,,,,,,,,,,,,,,,330.0,1.5,,,,,,,,,,,,,,,
314,,feedback,,html-keyboard-response,314,2563914,0.0-1.0-59.0-0.0-3.0-0.0,0,0,98,,,,,,57.0,,,,,1.0,,,,,,,,,,,,,,,,,,331.5,1.0,,,,,,,,,,,,,,,
315,,iti,,html-keyboard-response,315,2564921,0.0-1.0-59.0-0.0-5.0,0,0,98,,,,,,57.0,,,,,1.0,,,,,,,,,,,,,,,,,,332.5,1.0,,,,,,,,,,,,,,,
316,,choice,,html-keyboard-response,316,2565983,0.0-1.0-60.0-0.0-0.0,0,0,98,,1059.0,,,50.0,58.0,58.0,3000.0,1000.0,0.0,1.0,0.0,40-80,,0.0,tent,hat,40.0,80.0,tent14,hat14,20.0,60.0,inflatable-tent.jpg,Ahat136.jpg,/static/Category_learning/Stimuli/Experimental_stims/tent/inflatable-tent.jpg,/static/Category_learning/Stimuli/Experimental_stims/hat/Ahat136.jpg,0.0,333.5,1.059,1.0,tent,hat,40.0,80.0,tent14,hat14,20.0,60.0,,,,,,
317,,confirmation,,html-keyboard-response,317,2566432,0.0-1.0-60.0-0.0-1.0-0.0,0,0,98,,,,,,58.0,,,,,1.0,,,,,,,,,,,,,,,,,,334.559,0.441,,,,,,,,,,,,,,,
318,,isi,,html-keyboard-response,318,2569440,0.0-1.0-60.0-0.0-2.0,0,0,98,,,,,,58.0,,,,,1.0,,,,,,,,,,,,,,,,,,335.0,3.0,,,,,,,,,,,,,,,
319,,feedback,,html-keyboard-response,319,2570447,0.0-1.0-60.0-0.0-3.0-0.0,0,0,98,,,,,,58.0,,,,,1.0,,,,,,,,,,,,,,,,,,338.0,1.0,,,,,,,,,,,,,,,
320,,iti,,html-keyboard-response,320,2571455,0.0-1.0-60.0-0.0-5.0,0,0,98,,,,,,58.0,,,,,1.0,,,,,,,,,,,,,,,,,,339.0,1.0,,,,,,,,,,,,,,,
321,,choice,,html-keyboard-response,321,2572931,0.0-1.0-61.0-0.0-0.0,0,0,98,,1471.0,,,51.0,59.0,59.0,1500.0,1500.0,0.0,1.0,0.0,20-80,,1.0,frame,sofa,80.0,20.0,frame5,sofa11,60.0,0.0,AFRAME136.jpg,ALOVSEA19.jpg,/static/Category_learning/Stimuli/Experimental_stims/frame/AFRAME136.jpg,/static/Category_learning/Stimuli/Experimental_stims/sofa/ALOVSEA19.jpg,0.0,340.0,1.471,0.0,sofa,frame,20.0,80.0,sofa11,frame5,0.0,60.0,,,,,,
322,,confirmation,,html-keyboard-response,322,2572964,0.0-1.0-61.0-0.0-1.0-0.0,0,0,98,,,,,,59.0,,,,,1.0,,,,,,,,,,,,,,,,,,341.471,0.029,,,,,,,,,,,,,,,
323,,isi,,html-keyboard-response,323,2574469,0.0-1.0-61.0-0.0-2.0,0,0,98,,,,,,59.0,,,,,1.0,,,,,,,,,,,,,,,,,,341.5,1.5,,,,,,,,,,,,,,,
324,,feedback,,html-keyboard-response,324,2575476,0.0-1.0-61.0-0.0-3.0-0.0,0,0,98,,,,,,59.0,,,,,1.0,,,,,,,,,,,,,,,,,,343.0,1.0,,,,,,,,,,,,,,,
325,,iti,,html-keyboard-response,325,2576981,0.0-1.0-61.0-0.0-5.0,0,0,98,,,,,,59.0,,,,,1.0,,,,,,,,,,,,,,,,,,344.0,1.5,,,,,,,,,,,,,,,
326,,choice,,html-keyboard-response,326,2578013,0.0-1.0-62.0-0.0-0.0,0,0,98,,1028.0,,,50.0,60.0,60.0,1000.0,2000.0,0.0,1.0,1.0,40-40,1.0,,tent,tent,40.0,40.0,tent14,tent5,20.0,60.0,inflatable-tent.jpg,Dome Tentnb87r67.jpg,/static/Category_learning/Stimuli/Experimental_stims/tent/inflatable-tent.jpg,/static/Category_learning/Stimuli/Experimental_stims/tent/Dome Tentnb87r67.jpg,0.0,345.5,1.028,1.0,tent,tent,40.0,40.0,tent14,tent5,20.0,60.0,,,,,,
327,,confirmation,,html-keyboard-response,327,2578490,0.0-1.0-62.0-0.0-1.0-0.0,0,0,98,,,,,,60.0,,,,,1.0,,,,,,,,,,,,,,,,,,346.528,0.472,,,,,,,,,,,,,,,
328,,isi,,html-keyboard-response,328,2579498,0.0-1.0-62.0-0.0-2.0,0,0,98,,,,,,60.0,,,,,1.0,,,,,,,,,,,,,,,,,,347.0,1.0,,,,,,,,,,,,,,,
329,,feedback,,html-keyboard-response,329,2580506,0.0-1.0-62.0-0.0-3.0-0.0,0,0,98,,,,,,60.0,,,,,1.0,,,,,,,,,,,,,,,,,,348.0,1.0,,,,,,,,,,,,,,,
330,,iti,,html-keyboard-response,330,2582511,0.0-1.0-62.0-0.0-5.0,0,0,98,,,,,,60.0,,,,,1.0,,,,,,,,,,,,,,,,,,349.0,2.0,,,,,,,,,,,,,,,
331,,block_over,,html-keyboard-response,331,2607079,0.0-1.0-62.0-0.0-7.0-0.0,0,0,98,,24561.0,,,83.0,60.0,,,,,,,,,,,,,,,,,,,,,,,,,,,,,,,,,,,,,,,
332,,start_run,,html-keyboard-response,332,2636053,0.0-1.0-62.0-0.0-7.0-1.0,0,0,98,,28971.0,,,84.0,,,,,,,,,,,,,,,,,,,,,,,,,,,,,,,,,,,,,,,,
333,,choice,,html-keyboard-response,333,2637059,0.0-1.0-63.0-0.0-0.0,0,0,98,,1002.0,,,50.0,61.0,65.0,3000.0,2000.0,0.0,2.0,0.0,40-40,,,watch,tape,40.0,40.0,watch9,tape2,40.0,20.0,mens-diamond-watches-euro-48733-ab.jpg,Tape_Dispenser.jpg,/static/Category_learning/Stimuli/Experimental_stims/watch/mens-diamond-watches-euro-48733-ab.jpg,/static/Category_learning/Stimuli/Experimental_stims/tape/Tape_Dispenser.jpg,0.0,0.0,1.002,1.0,watch,tape,40.0,40.0,watch9,tape2,40.0,20.0,,,,,,
334,,confirmation,,html-keyboard-response,334,2637559,0.0-1.0-63.0-0.0-1.0-0.0,0,0,98,,,,,,61.0,,,,,2.0,,,,,,,,,,,,,,,,,,1.002,0.498,,,,,,,,,,,,,,,
335,,isi,,html-keyboard-response,335,2640563,0.0-1.0-63.0-0.0-2.0,0,0,98,,,,,,61.0,,,,,2.0,,,,,,,,,,,,,,,,,,1.5,3.0,,,,,,,,,,,,,,,
336,,feedback,,html-keyboard-response,336,2641571,0.0-1.0-63.0-0.0-3.0-0.0,0,0,98,,,,,,61.0,,,,,2.0,,,,,,,,,,,,,,,,,,4.5,1.0,,,,,,,,,,,,,,,
337,,iti,,html-keyboard-response,337,2643575,0.0-1.0-63.0-0.0-5.0,0,0,98,,,,,,61.0,,,,,2.0,,,,,,,,,,,,,,,,,,5.5,2.0,,,,,,,,,,,,,,,
338,,choice,,html-keyboard-response,338,2644301,0.0-1.0-64.0-0.0-0.0,0,0,98,,722.0,,,50.0,62.0,66.0,3000.0,1500.0,0.0,2.0,0.0,20-60,,0.0,pen,bowl,20.0,60.0,pen3,bowl13,0.0,80.0,pen08.jpg,Asoupbowl8.jpg,/static/Category_learning/Stimuli/Experimental_stims/pen/pen08.jpg,/static/Category_learning/Stimuli/Experimental_stims/bowl/Asoupbowl8.jpg,0.0,7.5,0.722,1.0,pen,bowl,20.0,60.0,pen3,bowl13,0.0,80.0,,,,,,
339,,confirmation,,html-keyboard-response,339,2645084,0.0-1.0-64.0-0.0-1.0-0.0,0,0,98,,,,,,62.0,,,,,2.0,,,,,,,,,,,,,,,,,,8.222,0.778,,,,,,,,,,,,,,,
340,,isi,,html-keyboard-response,340,2648089,0.0-1.0-64.0-0.0-2.0,0,0,98,,,,,,62.0,,,,,2.0,,,,,,,,,,,,,,,,,,9.0,3.0,,,,,,,,,,,,,,,
341,,feedback,,html-keyboard-response,341,2649096,0.0-1.0-64.0-0.0-3.0-0.0,0,0,98,,,,,,62.0,,,,,2.0,,,,,,,,,,,,,,,,,,12.0,1.0,,,,,,,,,,,,,,,
342,,iti,,html-keyboard-response,342,2650600,0.0-1.0-64.0-0.0-5.0,0,0,98,,,,,,62.0,,,,,2.0,,,,,,,,,,,,,,,,,,13.0,1.5,,,,,,,,,,,,,,,
343,,choice,,html-keyboard-response,343,2652226,0.0-1.0-65.0-0.0-0.0,0,0,98,,,,,,63.0,67.0,1000.0,3000.0,0.0,2.0,0.0,20-60,,0.0,nail polish,bongo,20.0,60.0,nail polish1,bongo8,20.0,80.0,200.jpg,26390661.thl.jpg,/static/Category_learning/Stimuli/Experimental_stims/nail polish/200.jpg,/static/Category_learning/Stimuli/Experimental_stims/bongo/26390661.thl.jpg,1.0,14.5,1.5,,,,,,,,,,,,,,,
344,,isi,,html-keyboard-response,344,2653233,0.0-1.0-65.0-0.0-2.0,0,0,98,,,,,,63.0,,,,,2.0,,,,,,,,,,,,,,,,,,16.0,1.0,,,,,,,,,,,,,,,
345,,no_response,,html-keyboard-response,345,2654242,0.0-1.0-65.0-0.0-4.0-0.0,0,0,98,,,,,,63.0,,,,,2.0,,,,,,,,,,,,,,,,,,17.0,1.0,,,,,,,,,,,,,,,
346,,iti,,html-keyboard-response,346,2657263,0.0-1.0-65.0-0.0-5.0,0,0,98,,,,,,63.0,,,,,2.0,,,,,,,,,,,,,,,,,,18.0,3.0,,,,,,,,,,,,,,,
347,,choice,,html-keyboard-response,347,2657750,0.0-1.0-65.0-0.1-0.1,0,0,98,,483.0,,,50.0,63.0,67.0,1000.0,3000.0,0.0,2.0,0.0,20-60,,0.0,nail polish,bongo,20.0,60.0,nail polish1,bongo8,20.0,80.0,200.jpg,26390661.thl.jpg,/static/Category_learning/Stimuli/Experimental_stims/nail polish/200.jpg,/static/Category_learning/Stimuli/Experimental_stims/bongo/26390661.thl.jpg,0.0,21.0,0.483,1.0,nail polish,bongo,20.0,60.0,nail polish1,bongo8,20.0,80.0,,,,,,
348,,confirmation,,html-keyboard-response,348,2658771,0.0-1.0-65.0-0.1-1.1-0.1,0,0,98,,,,,,63.0,,,,,2.0,,,,,,,,,,,,,,,,,,21.483,1.017,,,,,,,,,,,,,,,
349,,isi,,html-keyboard-response,349,2660277,0.0-1.0-65.0-0.1-2.1,0,0,98,,,,,,63.0,,,,,2.0,,,,,,,,,,,,,,,,,,22.5,1.5,,,,,,,,,,,,,,,
350,,feedback,,html-keyboard-response,350,2661284,0.0-1.0-65.0-0.1-3.1-0.1,0,0,98,,,,,,63.0,,,,,2.0,,,,,,,,,,,,,,,,,,24.0,1.0,,,,,,,,,,,,,,,
351,,iti,,html-keyboard-response,351,2662290,0.0-1.0-65.0-0.1-5.1,0,0,98,,,,,,63.0,,,,,2.0,,,,,,,,,,,,,,,,,,25.0,1.0,,,,,,,,,,,,,,,
352,,choice,,html-keyboard-response,352,2663324,0.0-1.0-66.0-0.0-0.0,0,0,98,,1030.0,,,50.0,64.0,68.0,1000.0,2000.0,0.0,2.0,0.0,20-20,,,power strip,patio lounge chair,20.0,20.0,power strip14,patio lounge chair13,20.0,20.0,88b2c724-e781-44ae-85d5-27b7591f659d_400.jpg,grosfillex-bahia-resin-chaise-lounges.jpg,/static/Category_learning/Stimuli/Experimental_stims/power strip/88b2c724-e781-44ae-85d5-27b7591f659d_400.jpg,/static/Category_learning/Stimuli/Experimental_stims/patio lounge chair/grosfillex-bahia-resin-chaise-lounges.jpg,0.0,26.0,1.03,1.0,power strip,patio lounge chair,20.0,20.0,power strip14,patio lounge chair13,20.0,20.0,,,,,,
353,,confirmation,,html-keyboard-response,353,2663799,0.0-1.0-66.0-0.0-1.0-0.0,0,0,98,,,,,,64.0,,,,,2.0,,,,,,,,,,,,,,,,,,27.03,0.47,,,,,,,,,,,,,,,
354,,isi,,html-keyboard-response,354,2664807,0.0-1.0-66.0-0.0-2.0,0,0,98,,,,,,64.0,,,,,2.0,,,,,,,,,,,,,,,,,,27.5,1.0,,,,,,,,,,,,,,,
355,,feedback,,html-keyboard-response,355,2665815,0.0-1.0-66.0-0.0-3.0-0.0,0,0,98,,,,,,64.0,,,,,2.0,,,,,,,,,,,,,,,,,,28.5,1.0,,,,,,,,,,,,,,,
356,,iti,,html-keyboard-response,356,2667820,0.0-1.0-66.0-0.0-5.0,0,0,98,,,,,,64.0,,,,,2.0,,,,,,,,,,,,,,,,,,29.5,2.0,,,,,,,,,,,,,,,
357,,choice,,html-keyboard-response,357,2669023,0.0-1.0-67.0-0.0-0.0,0,0,98,,1199.0,,,51.0,65.0,69.0,1500.0,1500.0,0.0,2.0,0.0,40-40,,,tent,train,40.0,40.0,tent2,train1,40.0,40.0,Atent16.jpg,Model_Train.jpg,/static/Category_learning/Stimuli/Experimental_stims/tent/Atent16.jpg,/static/Category_learning/Stimuli/Experimental_stims/train/Model_Train.jpg,0.0,31.5,1.199,0.0,train,tent,40.0,40.0,train1,tent2,40.0,40.0,,,,,,
358,,confirmation,,html-keyboard-response,358,2669329,0.0-1.0-67.0-0.0-1.0-0.0,0,0,98,,,,,,65.0,,,,,2.0,,,,,,,,,,,,,,,,,,32.699,0.301,,,,,,,,,,,,,,,
359,,isi,,html-keyboard-response,359,2670837,0.0-1.0-67.0-0.0-2.0,0,0,98,,,,,,65.0,,,,,2.0,,,,,,,,,,,,,,,,,,33.0,1.5,,,,,,,,,,,,,,,
360,,feedback,,html-keyboard-response,360,2671842,0.0-1.0-67.0-0.0-3.0-0.0,0,0,98,,,,,,65.0,,,,,2.0,,,,,,,,,,,,,,,,,,34.5,1.0,,,,,,,,,,,,,,,
361,,iti,,html-keyboard-response,361,2673346,0.0-1.0-67.0-0.0-5.0,0,0,98,,,,,,65.0,,,,,2.0,,,,,,,,,,,,,,,,,,35.5,1.5,,,,,,,,,,,,,,,
362,,choice,,html-keyboard-response,362,2674043,0.0-1.0-68.0-0.0-0.0,0,0,98,,693.0,,,50.0,66.0,70.0,1500.0,1500.0,0.0,2.0,0.0,40-80,,1.0,key chain,vase,80.0,40.0,key chain5,vase7,60.0,60.0,keychain-metal-logo.jpg,8246344.thl.jpg,/static/Category_learning/Stimuli/Experimental_stims/key chain/keychain-metal-logo.jpg,/static/Category_learning/Stimuli/Experimental_stims/vase/8246344.thl.jpg,0.0,37.0,0.693,1.0,key chain,vase,80.0,40.0,key chain5,vase7,60.0,60.0,,,,,,
363,,confirmation,,html-keyboard-response,363,2674854,0.0-1.0-68.0-0.0-1.0-0.0,0,0,98,,,,,,66.0,,,,,2.0,,,,,,,,,,,,,,,,,,37.693,0.807,,,,,,,,,,,,,,,
364,,isi,,html-keyboard-response,364,2676359,0.0-1.0-68.0-0.0-2.0,0,0,98,,,,,,66.0,,,,,2.0,,,,,,,,,,,,,,,,,,38.5,1.5,,,,,,,,,,,,,,,
365,,feedback,,html-keyboard-response,365,2677365,0.0-1.0-68.0-0.0-3.0-0.0,0,0,98,,,,,,66.0,,,,,2.0,,,,,,,,,,,,,,,,,,40.0,1.0,,,,,,,,,,,,,,,
366,,iti,,html-keyboard-response,366,2678871,0.0-1.0-68.0-0.0-5.0,0,0,98,,,,,,66.0,,,,,2.0,,,,,,,,,,,,,,,,,,41.0,1.5,,,,,,,,,,,,,,,
367,,choice,,html-keyboard-response,367,2679773,0.0-1.0-69.0-0.0-0.0,0,0,98,,898.0,,,50.0,67.0,71.0,1000.0,2000.0,0.0,2.0,0.0,20-40,,0.0,power strip,trumpet,20.0,40.0,power strip5,trumpet8,0.0,60.0,93e4a283-bcd6-4ad1-8add-339658cda0fc_400.jpg,trumpet33.jpg,/static/Category_learning/Stimuli/Experimental_stims/power strip/93e4a283-bcd6-4ad1-8add-339658cda0fc_400.jpg,/static/Category_learning/Stimuli/Experimental_stims/trumpet/trumpet33.jpg,0.0,42.5,0.898,1.0,power strip,trumpet,20.0,40.0,power strip5,trumpet8,0.0,60.0,,,,,,
368,,confirmation,,html-keyboard-response,368,2680380,0.0-1.0-69.0-0.0-1.0-0.0,0,0,98,,,,,,67.0,,,,,2.0,,,,,,,,,,,,,,,,,,43.398,0.602,,,,,,,,,,,,,,,
369,,isi,,html-keyboard-response,369,2681386,0.0-1.0-69.0-0.0-2.0,0,0,98,,,,,,67.0,,,,,2.0,,,,,,,,,,,,,,,,,,44.0,1.0,,,,,,,,,,,,,,,
370,,feedback,,html-keyboard-response,370,2682388,0.0-1.0-69.0-0.0-3.0-0.0,0,0,98,,,,,,67.0,,,,,2.0,,,,,,,,,,,,,,,,,,45.0,1.0,,,,,,,,,,,,,,,
371,,iti,,html-keyboard-response,371,2684392,0.0-1.0-69.0-0.0-5.0,0,0,98,,,,,,67.0,,,,,2.0,,,,,,,,,,,,,,,,,,46.0,2.0,,,,,,,,,,,,,,,
372,,choice,,html-keyboard-response,372,2685422,0.0-1.0-70.0-0.0-0.0,0,0,98,,1026.0,,,50.0,68.0,72.0,3500.0,1000.0,0.0,2.0,0.0,40-80,,1.0,key chain,watch,80.0,40.0,key chain10,watch3,80.0,60.0,Smurfs_Keychains_Smurf_Row_Boat.jpg,B0000TIIVO.01._SCLZZZZZZZ_V1124920780_.jpg,/static/Category_learning/Stimuli/Experimental_stims/key chain/Smurfs_Keychains_Smurf_Row_Boat.jpg,/static/Category_learning/Stimuli/Experimental_stims/watch/B0000TIIVO.01._SCLZZZZZZZ_V1124920780_.jpg,0.0,48.0,1.026,1.0,key chain,watch,80.0,40.0,key chain10,watch3,80.0,60.0,,,,,,
373,,confirmation,,html-keyboard-response,373,2685901,0.0-1.0-70.0-0.0-1.0-0.0,0,0,98,,,,,,68.0,,,,,2.0,,,,,,,,,,,,,,,,,,49.026,0.474,,,,,,,,,,,,,,,
374,,isi,,html-keyboard-response,374,2689404,0.0-1.0-70.0-0.0-2.0,0,0,98,,,,,,68.0,,,,,2.0,,,,,,,,,,,,,,,,,,49.5,3.5,,,,,,,,,,,,,,,
375,,feedback,,html-keyboard-response,375,2690408,0.0-1.0-70.0-0.0-3.0-0.0,0,0,98,,,,,,68.0,,,,,2.0,,,,,,,,,,,,,,,,,,53.0,1.0,,,,,,,,,,,,,,,
376,,iti,,html-keyboard-response,376,2691415,0.0-1.0-70.0-0.0-5.0,0,0,98,,,,,,68.0,,,,,2.0,,,,,,,,,,,,,,,,,,54.0,1.0,,,,,,,,,,,,,,,
377,,choice,,html-keyboard-response,377,2692430,0.0-1.0-71.0-0.0-0.0,0,0,98,,1011.0,,,51.0,69.0,73.0,2000.0,2000.0,0.0,2.0,0.0,20-60,,0.0,small table,baby carriage,20.0,60.0,small table3,baby carriage14,20.0,80.0,Atable122.jpg,peg_perego_uno_verde.jpg,/static/Category_learning/Stimuli/Experimental_stims/small table/Atable122.jpg,/static/Category_learning/Stimuli/Experimental_stims/baby carriage/peg_perego_uno_verde.jpg,0.0,55.0,1.011,0.0,baby carriage,small table,60.0,20.0,baby carriage14,small table3,80.0,20.0,,,,,,
378,,confirmation,,html-keyboard-response,378,2692924,0.0-1.0-71.0-0.0-1.0-0.0,0,0,98,,,,,,69.0,,,,,2.0,,,,,,,,,,,,,,,,,,56.011,0.489,,,,,,,,,,,,,,,
379,,isi,,html-keyboard-response,379,2694929,0.0-1.0-71.0-0.0-2.0,0,0,98,,,,,,69.0,,,,,2.0,,,,,,,,,,,,,,,,,,56.5,2.0,,,,,,,,,,,,,,,
380,,feedback,,html-keyboard-response,380,2695938,0.0-1.0-71.0-0.0-3.0-0.0,0,0,98,,,,,,69.0,,,,,2.0,,,,,,,,,,,,,,,,,,58.5,1.0,,,,,,,,,,,,,,,
381,,iti,,html-keyboard-response,381,2697946,0.0-1.0-71.0-0.0-5.0,0,0,98,,,,,,69.0,,,,,2.0,,,,,,,,,,,,,,,,,,59.5,2.0,,,,,,,,,,,,,,,
382,,choice,,html-keyboard-response,382,2698751,0.0-1.0-72.0-0.0-0.0,0,0,98,,801.0,,,50.0,70.0,74.0,2000.0,3500.0,0.0,2.0,0.0,40-60,,1.0,baby carriage,train,60.0,40.0,baby carriage13,train15,40.0,40.0,300px-Barnevogn2.jpg,master-TD006.jpg,/static/Category_learning/Stimuli/Experimental_stims/baby carriage/300px-Barnevogn2.jpg,/static/Category_learning/Stimuli/Experimental_stims/train/master-TD006.jpg,0.0,61.5,0.801,1.0,baby carriage,train,60.0,40.0,baby carriage13,train15,40.0,40.0,,,,,,
383,,confirmation,,html-keyboard-response,383,2699453,0.0-1.0-72.0-0.0-1.0-0.0,0,0,98,,,,,,70.0,,,,,2.0,,,,,,,,,,,,,,,,,,62.301,0.699,,,,,,,,,,,,,,,
384,,isi,,html-keyboard-response,384,2701461,0.0-1.0-72.0-0.0-2.0,0,0,98,,,,,,70.0,,,,,2.0,,,,,,,,,,,,,,,,,,63.0,2.0,,,,,,,,,,,,,,,
385,,feedback,,html-keyboard-response,385,2702464,0.0-1.0-72.0-0.0-3.0-0.0,0,0,98,,,,,,70.0,,,,,2.0,,,,,,,,,,,,,,,,,,65.0,1.0,,,,,,,,,,,,,,,
386,,iti,,html-keyboard-response,386,2705970,0.0-1.0-72.0-0.0-5.0,0,0,98,,,,,,70.0,,,,,2.0,,,,,,,,,,,,,,,,,,66.0,3.5,,,,,,,,,,,,,,,
387,,choice,,html-keyboard-response,387,2707033,0.0-1.0-73.0-0.0-0.0,0,0,98,,1059.0,,,50.0,71.0,75.0,1000.0,1000.0,0.0,2.0,0.0,40-80,,0.0,trumpet,hat,40.0,80.0,trumpet2,hat12,40.0,60.0,Matt-Stevens-Pocket-Trumpet.jpg,Aformalhat5.jpg,/static/Category_learning/Stimuli/Experimental_stims/trumpet/Matt-Stevens-Pocket-Trumpet.jpg,/static/Category_learning/Stimuli/Experimental_stims/hat/Aformalhat5.jpg,0.0,69.5,1.059,1.0,trumpet,hat,40.0,80.0,trumpet2,hat12,40.0,60.0,,,,,,
388,,confirmation,,html-keyboard-response,388,2707480,0.0-1.0-73.0-0.0-1.0-0.0,0,0,98,,,,,,71.0,,,,,2.0,,,,,,,,,,,,,,,,,,70.559,0.441,,,,,,,,,,,,,,,
389,,isi,,html-keyboard-response,389,2708488,0.0-1.0-73.0-0.0-2.0,0,0,98,,,,,,71.0,,,,,2.0,,,,,,,,,,,,,,,,,,71.0,1.0,,,,,,,,,,,,,,,
390,,feedback,,html-keyboard-response,390,2709494,0.0-1.0-73.0-0.0-3.0-0.0,0,0,98,,,,,,71.0,,,,,2.0,,,,,,,,,,,,,,,,,,72.0,1.0,,,,,,,,,,,,,,,
391,,iti,,html-keyboard-response,391,2710497,0.0-1.0-73.0-0.0-5.0,0,0,98,,,,,,71.0,,,,,2.0,,,,,,,,,,,,,,,,,,73.0,1.0,,,,,,,,,,,,,,,
392,,choice,,html-keyboard-response,392,2712000,0.0-1.0-74.0-0.0-0.0,0,0,98,,,,,,72.0,76.0,1000.0,1000.0,0.0,2.0,0.0,20-40,,1.0,trumpet,poker card,40.0,20.0,trumpet1,poker card2,60.0,40.0,JUPITER+TROMPETTE+606MRL.JPG,22864716.thl.jpg,/static/Category_learning/Stimuli/Experimental_stims/trumpet/JUPITER+TROMPETTE+606MRL.JPG,/static/Category_learning/Stimuli/Experimental_stims/poker card/22864716.thl.jpg,1.0,74.0,1.5,,,,,,,,,,,,,,,
393,,isi,,html-keyboard-response,393,2713005,0.0-1.0-74.0-0.0-2.0,0,0,98,,,,,,72.0,,,,,2.0,,,,,,,,,,,,,,,,,,75.5,1.0,,,,,,,,,,,,,,,
394,,no_response,,html-keyboard-response,394,2714012,0.0-1.0-74.0-0.0-4.0-0.0,0,0,98,,,,,,72.0,,,,,2.0,,,,,,,,,,,,,,,,,,76.5,1.0,,,,,,,,,,,,,,,
395,,iti,,html-keyboard-response,395,2715030,0.0-1.0-74.0-0.0-5.0,0,0,98,,,,,,72.0,,,,,2.0,,,,,,,,,,,,,,,,,,77.5,1.0,,,,,,,,,,,,,,,
396,,choice,,html-keyboard-response,396,2715439,0.0-1.0-74.0-0.1-0.1,0,0,98,,405.0,,,51.0,72.0,76.0,1000.0,1000.0,0.0,2.0,0.0,20-40,,1.0,trumpet,poker card,40.0,20.0,trumpet1,poker card2,60.0,40.0,JUPITER+TROMPETTE+606MRL.JPG,22864716.thl.jpg,/static/Category_learning/Stimuli/Experimental_stims/trumpet/JUPITER+TROMPETTE+606MRL.JPG,/static/Category_learning/Stimuli/Experimental_stims/poker card/22864716.thl.jpg,0.0,78.5,0.405,0.0,poker card,trumpet,20.0,40.0,poker card2,trumpet1,40.0,60.0,,,,,,
397,,confirmation,,html-keyboard-response,397,2716538,0.0-1.0-74.0-0.1-1.1-0.1,0,0,98,,,,,,72.0,,,,,2.0,,,,,,,,,,,,,,,,,,78.905,1.095,,,,,,,,,,,,,,,
398,,isi,,html-keyboard-response,398,2718546,0.0-1.0-74.0-0.1-2.1,0,0,98,,,,,,72.0,,,,,2.0,,,,,,,,,,,,,,,,,,80.0,2.0,,,,,,,,,,,,,,,
399,,feedback,,html-keyboard-response,399,2719549,0.0-1.0-74.0-0.1-3.1-0.1,0,0,98,,,,,,72.0,,,,,2.0,,,,,,,,,,,,,,,,,,82.0,1.0,,,,,,,,,,,,,,,
400,,iti,,html-keyboard-response,400,2720556,0.0-1.0-74.0-0.1-5.1,0,0,98,,,,,,72.0,,,,,2.0,,,,,,,,,,,,,,,,,,83.0,1.0,,,,,,,,,,,,,,,
401,,choice,,html-keyboard-response,401,2721577,0.0-1.0-75.0-0.0-0.0,0,0,98,,1019.0,,,51.0,73.0,77.0,1500.0,1000.0,0.0,2.0,0.0,20-80,,1.0,microscope,necklace,80.0,20.0,microscope5,necklace4,100.0,20.0,emMicroscope.jpg,emerald_diamond_necklace.jpg,/static/Category_learning/Stimuli/Experimental_stims/microscope/emMicroscope.jpg,/static/Category_learning/Stimuli/Experimental_stims/necklace/emerald_diamond_necklace.jpg,0.0,84.0,1.019,0.0,necklace,microscope,20.0,80.0,necklace4,microscope5,20.0,100.0,,,,,,
402,,confirmation,,html-keyboard-response,402,2722062,0.0-1.0-75.0-0.0-1.0-0.0,0,0,98,,,,,,73.0,,,,,2.0,,,,,,,,,,,,,,,,,,85.019,0.481,,,,,,,,,,,,,,,
403,,isi,,html-keyboard-response,403,2723570,0.0-1.0-75.0-0.0-2.0,0,0,98,,,,,,73.0,,,,,2.0,,,,,,,,,,,,,,,,,,85.5,1.5,,,,,,,,,,,,,,,
404,,feedback,,html-keyboard-response,404,2724577,0.0-1.0-75.0-0.0-3.0-0.0,0,0,98,,,,,,73.0,,,,,2.0,,,,,,,,,,,,,,,,,,87.0,1.0,,,,,,,,,,,,,,,
405,,iti,,html-keyboard-response,405,2725580,0.0-1.0-75.0-0.0-5.0,0,0,98,,,,,,73.0,,,,,2.0,,,,,,,,,,,,,,,,,,88.0,1.0,,,,,,,,,,,,,,,
406,,choice,,html-keyboard-response,406,2726866,0.0-1.0-76.0-0.0-0.0,0,0,98,,1283.0,,,50.0,74.0,78.0,1500.0,2000.0,0.0,2.0,1.0,20-20,1.0,,power strip,power strip,20.0,20.0,power strip8,power strip5,40.0,0.0,3118YGHQWXL._AA262_.jpg,93e4a283-bcd6-4ad1-8add-339658cda0fc_400.jpg,/static/Category_learning/Stimuli/Experimental_stims/power strip/3118YGHQWXL._AA262_.jpg,/static/Category_learning/Stimuli/Experimental_stims/power strip/93e4a283-bcd6-4ad1-8add-339658cda0fc_400.jpg,0.0,89.0,1.283,1.0,power strip,power strip,20.0,20.0,power strip8,power strip5,40.0,0.0,,,,,,
407,,confirmation,,html-keyboard-response,407,2727085,0.0-1.0-76.0-0.0-1.0-0.0,0,0,98,,,,,,74.0,,,,,2.0,,,,,,,,,,,,,,,,,,90.283,0.217,,,,,,,,,,,,,,,
408,,isi,,html-keyboard-response,408,2728587,0.0-1.0-76.0-0.0-2.0,0,0,98,,,,,,74.0,,,,,2.0,,,,,,,,,,,,,,,,,,90.5,1.5,,,,,,,,,,,,,,,
409,,feedback,,html-keyboard-response,409,2729591,0.0-1.0-76.0-0.0-3.0-0.0,0,0,98,,,,,,74.0,,,,,2.0,,,,,,,,,,,,,,,,,,92.0,1.0,,,,,,,,,,,,,,,
410,,iti,,html-keyboard-response,410,2731596,0.0-1.0-76.0-0.0-5.0,0,0,98,,,,,,74.0,,,,,2.0,,,,,,,,,,,,,,,,,,93.0,2.0,,,,,,,,,,,,,,,
411,,choice,,html-keyboard-response,411,2732711,0.0-1.0-77.0-0.0-0.0,0,0,98,,1111.0,,,50.0,75.0,79.0,1500.0,3500.0,0.0,2.0,1.0,60-60,1.0,,baby carriage,baby carriage,60.0,60.0,baby carriage14,baby carriage13,80.0,40.0,peg_perego_uno_verde.jpg,300px-Barnevogn2.jpg,/static/Category_learning/Stimuli/Experimental_stims/baby carriage/peg_perego_uno_verde.jpg,/static/Category_learning/Stimuli/Experimental_stims/baby carriage/300px-Barnevogn2.jpg,0.0,95.0,1.111,1.0,baby carriage,baby carriage,60.0,60.0,baby carriage14,baby carriage13,80.0,40.0,,,,,,
412,,confirmation,,html-keyboard-response,412,2733104,0.0-1.0-77.0-0.0-1.0-0.0,0,0,98,,,,,,75.0,,,,,2.0,,,,,,,,,,,,,,,,,,96.111,0.389,,,,,,,,,,,,,,,
413,,isi,,html-keyboard-response,413,2734609,0.0-1.0-77.0-0.0-2.0,0,0,98,,,,,,75.0,,,,,2.0,,,,,,,,,,,,,,,,,,96.5,1.5,,,,,,,,,,,,,,,
414,,feedback,,html-keyboard-response,414,2735613,0.0-1.0-77.0-0.0-3.0-0.0,0,0,98,,,,,,75.0,,,,,2.0,,,,,,,,,,,,,,,,,,98.0,1.0,,,,,,,,,,,,,,,
415,,iti,,html-keyboard-response,415,2739116,0.0-1.0-77.0-0.0-5.0,0,0,98,,,,,,75.0,,,,,2.0,,,,,,,,,,,,,,,,,,99.0,3.5,,,,,,,,,,,,,,,
416,,choice,,html-keyboard-response,416,2740109,0.0-1.0-78.0-0.0-0.0,0,0,98,,990.0,,,50.0,76.0,80.0,1000.0,2000.0,0.0,2.0,0.0,20-80,,0.0,pen,key chain,20.0,80.0,pen6,key chain13,40.0,100.0,executive_pen2.jpg,Fancy_Liquid_Column_Shape_Key_Ring_with_Floater.jpg,/static/Category_learning/Stimuli/Experimental_stims/pen/executive_pen2.jpg,/static/Category_learning/Stimuli/Experimental_stims/key chain/Fancy_Liquid_Column_Shape_Key_Ring_with_Floater.jpg,0.0,102.5,0.99,1.0,pen,key chain,20.0,80.0,pen6,key chain13,40.0,100.0,,,,,,
417,,confirmation,,html-keyboard-response,417,2740622,0.0-1.0-78.0-0.0-1.0-0.0,0,0,98,,,,,,76.0,,,,,2.0,,,,,,,,,,,,,,,,,,103.49,0.51,,,,,,,,,,,,,,,
418,,isi,,html-keyboard-response,418,2741628,0.0-1.0-78.0-0.0-2.0,0,0,98,,,,,,76.0,,,,,2.0,,,,,,,,,,,,,,,,,,104.0,1.0,,,,,,,,,,,,,,,
419,,feedback,,html-keyboard-response,419,2742633,0.0-1.0-78.0-0.0-3.0-0.0,0,0,98,,,,,,76.0,,,,,2.0,,,,,,,,,,,,,,,,,,105.0,1.0,,,,,,,,,,,,,,,
420,,iti,,html-keyboard-response,420,2744637,0.0-1.0-78.0-0.0-5.0,0,0,98,,,,,,76.0,,,,,2.0,,,,,,,,,,,,,,,,,,106.0,2.0,,,,,,,,,,,,,,,
421,,choice,,html-keyboard-response,421,2745823,0.0-1.0-79.0-0.0-0.0,0,0,98,,1182.0,,,50.0,77.0,81.0,3500.0,2000.0,0.0,2.0,0.0,60-60,,,bowl,bench,60.0,60.0,bowl7,bench2,80.0,60.0,Abowl54.jpg,26369969.thl.jpg,/static/Category_learning/Stimuli/Experimental_stims/bowl/Abowl54.jpg,/static/Category_learning/Stimuli/Experimental_stims/bench/26369969.thl.jpg,0.0,108.0,1.182,1.0,bowl,bench,60.0,60.0,bowl7,bench2,80.0,60.0,,,,,,
422,,confirmation,,html-keyboard-response,422,2746144,0.0-1.0-79.0-0.0-1.0-0.0,0,0,98,,,,,,77.0,,,,,2.0,,,,,,,,,,,,,,,,,,109.182,0.318,,,,,,,,,,,,,,,
423,,isi,,html-keyboard-response,423,2749649,0.0-1.0-79.0-0.0-2.0,0,0,98,,,,,,77.0,,,,,2.0,,,,,,,,,,,,,,,,,,109.5,3.5,,,,,,,,,,,,,,,
424,,feedback,,html-keyboard-response,424,2750653,0.0-1.0-79.0-0.0-3.0-0.0,0,0,98,,,,,,77.0,,,,,2.0,,,,,,,,,,,,,,,,,,113.0,1.0,,,,,,,,,,,,,,,
425,,iti,,html-keyboard-response,425,2752660,0.0-1.0-79.0-0.0-5.0,0,0,98,,,,,,77.0,,,,,2.0,,,,,,,,,,,,,,,,,,114.0,2.0,,,,,,,,,,,,,,,
426,,choice,,html-keyboard-response,426,2753549,0.0-1.0-80.0-0.0-0.0,0,0,98,,886.0,,,50.0,78.0,82.0,1000.0,1500.0,0.0,2.0,0.0,60-80,,1.0,frame,bench,80.0,60.0,frame14,bench1,80.0,40.0,AFRAME129.jpg,26419975.thl.jpg,/static/Category_learning/Stimuli/Experimental_stims/frame/AFRAME129.jpg,/static/Category_learning/Stimuli/Experimental_stims/bench/26419975.thl.jpg,0.0,116.0,0.886,1.0,frame,bench,80.0,60.0,frame14,bench1,80.0,40.0,,,,,,
427,,confirmation,,html-keyboard-response,427,2754167,0.0-1.0-80.0-0.0-1.0-0.0,0,0,98,,,,,,78.0,,,,,2.0,,,,,,,,,,,,,,,,,,116.886,0.614,,,,,,,,,,,,,,,
428,,isi,,html-keyboard-response,428,2755169,0.0-1.0-80.0-0.0-2.0,0,0,98,,,,,,78.0,,,,,2.0,,,,,,,,,,,,,,,,,,117.5,1.0,,,,,,,,,,,,,,,
429,,feedback,,html-keyboard-response,429,2756172,0.0-1.0-80.0-0.0-3.0-0.0,0,0,98,,,,,,78.0,,,,,2.0,,,,,,,,,,,,,,,,,,118.5,1.0,,,,,,,,,,,,,,,
430,,iti,,html-keyboard-response,430,2757676,0.0-1.0-80.0-0.0-5.0,0,0,98,,,,,,78.0,,,,,2.0,,,,,,,,,,,,,,,,,,119.5,1.5,,,,,,,,,,,,,,,
431,,choice,,html-keyboard-response,431,2759121,0.0-1.0-81.0-0.0-0.0,0,0,98,,1443.0,,,50.0,79.0,83.0,1500.0,1000.0,0.0,2.0,0.0,20-80,,1.0,key chain,poker card,80.0,20.0,key chain6,poker card12,80.0,20.0,highboy_keychain_ItemCA75384.jpg,22865676.thl.jpg,/static/Category_learning/Stimuli/Experimental_stims/key chain/highboy_keychain_ItemCA75384.jpg,/static/Category_learning/Stimuli/Experimental_stims/poker card/22865676.thl.jpg,0.0,121.0,1.443,1.0,key chain,poker card,80.0,20.0,key chain6,poker card12,80.0,20.0,,,,,,
432,,confirmation,,html-keyboard-response,432,2759181,0.0-1.0-81.0-0.0-1.0-0.0,0,0,98,,,,,,79.0,,,,,2.0,,,,,,,,,,,,,,,,,,122.443,0.057,,,,,,,,,,,,,,,
433,,isi,,html-keyboard-response,433,2760685,0.0-1.0-81.0-0.0-2.0,0,0,98,,,,,,79.0,,,,,2.0,,,,,,,,,,,,,,,,,,122.5,1.5,,,,,,,,,,,,,,,
434,,feedback,,html-keyboard-response,434,2761692,0.0-1.0-81.0-0.0-3.0-0.0,0,0,98,,,,,,79.0,,,,,2.0,,,,,,,,,,,,,,,,,,124.0,1.0,,,,,,,,,,,,,,,
435,,iti,,html-keyboard-response,435,2762695,0.0-1.0-81.0-0.0-5.0,0,0,98,,,,,,79.0,,,,,2.0,,,,,,,,,,,,,,,,,,125.0,1.0,,,,,,,,,,,,,,,
436,,choice,,html-keyboard-response,436,2763599,0.0-1.0-82.0-0.0-0.0,0,0,98,,901.0,,,50.0,80.0,84.0,2000.0,1500.0,0.0,2.0,0.0,20-60,,0.0,poker card,bowl,20.0,60.0,poker card6,bowl1,40.0,40.0,22864212.thl.jpg,ABOWLS6.jpg,/static/Category_learning/Stimuli/Experimental_stims/poker card/22864212.thl.jpg,/static/Category_learning/Stimuli/Experimental_stims/bowl/ABOWLS6.jpg,0.0,126.0,0.901,1.0,poker card,bowl,20.0,60.0,poker card6,bowl1,40.0,40.0,,,,,,
437,,confirmation,,html-keyboard-response,437,2764202,0.0-1.0-82.0-0.0-1.0-0.0,0,0,98,,,,,,80.0,,,,,2.0,,,,,,,,,,,,,,,,,,126.901,0.599,,,,,,,,,,,,,,,
438,,isi,,html-keyboard-response,438,2766211,0.0-1.0-82.0-0.0-2.0,0,0,98,,,,,,80.0,,,,,2.0,,,,,,,,,,,,,,,,,,127.5,2.0,,,,,,,,,,,,,,,
439,,feedback,,html-keyboard-response,439,2767218,0.0-1.0-82.0-0.0-3.0-0.0,0,0,98,,,,,,80.0,,,,,2.0,,,,,,,,,,,,,,,,,,129.5,1.0,,,,,,,,,,,,,,,
440,,iti,,html-keyboard-response,440,2768723,0.0-1.0-82.0-0.0-5.0,0,0,98,,,,,,80.0,,,,,2.0,,,,,,,,,,,,,,,,,,130.5,1.5,,,,,,,,,,,,,,,
441,,choice,,html-keyboard-response,441,2769806,0.0-1.0-83.0-0.0-0.0,0,0,98,,1079.0,,,51.0,81.0,85.0,1500.0,3500.0,0.0,2.0,1.0,80-80,1.0,,key chain,key chain,80.0,80.0,key chain10,key chain1,80.0,80.0,Smurfs_Keychains_Smurf_Row_Boat.jpg,jm05s16.jpg,/static/Category_learning/Stimuli/Experimental_stims/key chain/Smurfs_Keychains_Smurf_Row_Boat.jpg,/static/Category_learning/Stimuli/Experimental_stims/key chain/jm05s16.jpg,0.0,132.0,1.079,0.0,key chain,key chain,80.0,80.0,key chain1,key chain10,80.0,80.0,,,,,,
442,,confirmation,,html-keyboard-response,442,2770232,0.0-1.0-83.0-0.0-1.0-0.0,0,0,98,,,,,,81.0,,,,,2.0,,,,,,,,,,,,,,,,,,133.079,0.421,,,,,,,,,,,,,,,
443,,isi,,html-keyboard-response,443,2771736,0.0-1.0-83.0-0.0-2.0,0,0,98,,,,,,81.0,,,,,2.0,,,,,,,,,,,,,,,,,,133.5,1.5,,,,,,,,,,,,,,,
444,,feedback,,html-keyboard-response,444,2772745,0.0-1.0-83.0-0.0-3.0-0.0,0,0,98,,,,,,81.0,,,,,2.0,,,,,,,,,,,,,,,,,,135.0,1.0,,,,,,,,,,,,,,,
445,,iti,,html-keyboard-response,445,2776248,0.0-1.0-83.0-0.0-5.0,0,0,98,,,,,,81.0,,,,,2.0,,,,,,,,,,,,,,,,,,136.0,3.5,,,,,,,,,,,,,,,
446,,choice,,html-keyboard-response,446,2777158,0.0-1.0-84.0-0.0-0.0,0,0,98,,905.0,,,50.0,82.0,86.0,1000.0,1000.0,0.0,2.0,0.0,40-80,,1.0,frame,tape,80.0,40.0,frame1,tape11,80.0,20.0,AFRAME127.jpg,41FZA73H4JL._AA280_.jpg,/static/Category_learning/Stimuli/Experimental_stims/frame/AFRAME127.jpg,/static/Category_learning/Stimuli/Experimental_stims/tape/41FZA73H4JL._AA280_.jpg,0.0,139.5,0.905,1.0,frame,tape,80.0,40.0,frame1,tape11,80.0,20.0,,,,,,
447,,confirmation,,html-keyboard-response,447,2777758,0.0-1.0-84.0-0.0-1.0-0.0,0,0,98,,,,,,82.0,,,,,2.0,,,,,,,,,,,,,,,,,,140.405,0.595,,,,,,,,,,,,,,,
448,,isi,,html-keyboard-response,448,2778765,0.0-1.0-84.0-0.0-2.0,0,0,98,,,,,,82.0,,,,,2.0,,,,,,,,,,,,,,,,,,141.0,1.0,,,,,,,,,,,,,,,
449,,feedback,,html-keyboard-response,449,2779774,0.0-1.0-84.0-0.0-3.0-0.0,0,0,98,,,,,,82.0,,,,,2.0,,,,,,,,,,,,,,,,,,142.0,1.0,,,,,,,,,,,,,,,
450,,iti,,html-keyboard-response,450,2780780,0.0-1.0-84.0-0.0-5.0,0,0,98,,,,,,82.0,,,,,2.0,,,,,,,,,,,,,,,,,,143.0,1.0,,,,,,,,,,,,,,,
451,,choice,,html-keyboard-response,451,2781841,0.0-1.0-85.0-0.0-0.0,0,0,98,,1058.0,,,51.0,83.0,87.0,1500.0,1000.0,0.0,2.0,0.0,20-60,,1.0,bowl,seashell,60.0,20.0,bowl12,seashell1,40.0,0.0,Abowl52.jpg,Aseashe34.jpg,/static/Category_learning/Stimuli/Experimental_stims/bowl/Abowl52.jpg,/static/Category_learning/Stimuli/Experimental_stims/seashell/Aseashe34.jpg,0.0,144.0,1.058,0.0,seashell,bowl,20.0,60.0,seashell1,bowl12,0.0,40.0,,,,,,
452,,confirmation,,html-keyboard-response,452,2782286,0.0-1.0-85.0-0.0-1.0-0.0,0,0,98,,,,,,83.0,,,,,2.0,,,,,,,,,,,,,,,,,,145.058,0.442,,,,,,,,,,,,,,,
453,,isi,,html-keyboard-response,453,2783789,0.0-1.0-85.0-0.0-2.0,0,0,98,,,,,,83.0,,,,,2.0,,,,,,,,,,,,,,,,,,145.5,1.5,,,,,,,,,,,,,,,
454,,feedback,,html-keyboard-response,454,2784797,0.0-1.0-85.0-0.0-3.0-0.0,0,0,98,,,,,,83.0,,,,,2.0,,,,,,,,,,,,,,,,,,147.0,1.0,,,,,,,,,,,,,,,
455,,iti,,html-keyboard-response,455,2785800,0.0-1.0-85.0-0.0-5.0,0,0,98,,,,,,83.0,,,,,2.0,,,,,,,,,,,,,,,,,,148.0,1.0,,,,,,,,,,,,,,,
456,,choice,,html-keyboard-response,456,2786753,0.0-1.0-86.0-0.0-0.0,0,0,98,,951.0,,,51.0,84.0,88.0,1500.0,1000.0,0.0,2.0,0.0,40-60,,1.0,desk,watch,60.0,40.0,desk2,watch15,80.0,40.0,AA Luffield Radial crescent Desk 1600mm x 1200mm.jpg,20-171-6.jpg,/static/Category_learning/Stimuli/Experimental_stims/desk/AA Luffield Radial crescent Desk 1600mm x 1200mm.jpg,/static/Category_learning/Stimuli/Experimental_stims/watch/20-171-6.jpg,0.0,149.0,0.951,0.0,watch,desk,40.0,60.0,watch15,desk2,40.0,80.0,,,,,,
457,,confirmation,,html-keyboard-response,457,2787305,0.0-1.0-86.0-0.0-1.0-0.0,0,0,98,,,,,,84.0,,,,,2.0,,,,,,,,,,,,,,,,,,149.951,0.549,,,,,,,,,,,,,,,
458,,isi,,html-keyboard-response,458,2788808,0.0-1.0-86.0-0.0-2.0,0,0,98,,,,,,84.0,,,,,2.0,,,,,,,,,,,,,,,,,,150.5,1.5,,,,,,,,,,,,,,,
459,,feedback,,html-keyboard-response,459,2789816,0.0-1.0-86.0-0.0-3.0-0.0,0,0,98,,,,,,84.0,,,,,2.0,,,,,,,,,,,,,,,,,,152.0,1.0,,,,,,,,,,,,,,,
460,,iti,,html-keyboard-response,460,2790819,0.0-1.0-86.0-0.0-5.0,0,0,98,,,,,,84.0,,,,,2.0,,,,,,,,,,,,,,,,,,153.0,1.0,,,,,,,,,,,,,,,
461,,choice,,html-keyboard-response,461,2791880,0.0-1.0-87.0-0.0-0.0,0,0,98,,1059.0,,,50.0,85.0,89.0,1000.0,3000.0,0.0,2.0,1.0,20-20,1.0,,poker card,poker card,20.0,20.0,poker card6,poker card8,40.0,20.0,22864212.thl.jpg,22864392.thl.jpg,/static/Category_learning/Stimuli/Experimental_stims/poker card/22864212.thl.jpg,/static/Category_learning/Stimuli/Experimental_stims/poker card/22864392.thl.jpg,0.0,154.0,1.059,1.0,poker card,poker card,20.0,20.0,poker card6,poker card8,40.0,20.0,,,,,,
462,,confirmation,,html-keyboard-response,462,2792325,0.0-1.0-87.0-0.0-1.0-0.0,0,0,98,,,,,,85.0,,,,,2.0,,,,,,,,,,,,,,,,,,155.059,0.441,,,,,,,,,,,,,,,
463,,isi,,html-keyboard-response,463,2793331,0.0-1.0-87.0-0.0-2.0,0,0,98,,,,,,85.0,,,,,2.0,,,,,,,,,,,,,,,,,,155.5,1.0,,,,,,,,,,,,,,,
464,,feedback,,html-keyboard-response,464,2794335,0.0-1.0-87.0-0.0-3.0-0.0,0,0,98,,,,,,85.0,,,,,2.0,,,,,,,,,,,,,,,,,,156.5,1.0,,,,,,,,,,,,,,,
465,,iti,,html-keyboard-response,465,2797341,0.0-1.0-87.0-0.0-5.0,0,0,98,,,,,,85.0,,,,,2.0,,,,,,,,,,,,,,,,,,157.5,3.0,,,,,,,,,,,,,,,
466,,choice,,html-keyboard-response,466,2798605,0.0-1.0-88.0-0.0-0.0,0,0,98,,1261.0,,,51.0,86.0,90.0,1000.0,1000.0,0.0,2.0,0.0,40-60,,0.0,tape,dresser,40.0,60.0,tape1,dresser2,20.0,80.0,aktotape_01.jpg,ADRESSE46.jpg,/static/Category_learning/Stimuli/Experimental_stims/tape/aktotape_01.jpg,/static/Category_learning/Stimuli/Experimental_stims/dresser/ADRESSE46.jpg,0.0,160.5,1.261,0.0,dresser,tape,60.0,40.0,dresser2,tape1,80.0,20.0,,,,,,
467,,confirmation,,html-keyboard-response,467,2798847,0.0-1.0-88.0-0.0-1.0-0.0,0,0,98,,,,,,86.0,,,,,2.0,,,,,,,,,,,,,,,,,,161.761,0.239,,,,,,,,,,,,,,,
468,,isi,,html-keyboard-response,468,2799854,0.0-1.0-88.0-0.0-2.0,0,0,98,,,,,,86.0,,,,,2.0,,,,,,,,,,,,,,,,,,162.0,1.0,,,,,,,,,,,,,,,
469,,feedback,,html-keyboard-response,469,2800861,0.0-1.0-88.0-0.0-3.0-0.0,0,0,98,,,,,,86.0,,,,,2.0,,,,,,,,,,,,,,,,,,163.0,1.0,,,,,,,,,,,,,,,
470,,iti,,html-keyboard-response,470,2801864,0.0-1.0-88.0-0.0-5.0,0,0,98,,,,,,86.0,,,,,2.0,,,,,,,,,,,,,,,,,,164.0,1.0,,,,,,,,,,,,,,,
471,,choice,,html-keyboard-response,471,2802702,0.0-1.0-89.0-0.0-0.0,0,0,98,,835.0,,,50.0,87.0,91.0,2000.0,1000.0,0.0,2.0,0.0,80-80,,,lipstick,frame,80.0,80.0,lipstick3,frame6,80.0,60.0,31sCvjMS3jL._SS500_.jpg,AFRAME123.jpg,/static/Category_learning/Stimuli/Experimental_stims/lipstick/31sCvjMS3jL._SS500_.jpg,/static/Category_learning/Stimuli/Experimental_stims/frame/AFRAME123.jpg,0.0,165.0,0.835,1.0,lipstick,frame,80.0,80.0,lipstick3,frame6,80.0,60.0,,,,,,
472,,confirmation,,html-keyboard-response,472,2803369,0.0-1.0-89.0-0.0-1.0-0.0,0,0,98,,,,,,87.0,,,,,2.0,,,,,,,,,,,,,,,,,,165.835,0.665,,,,,,,,,,,,,,,
473,,isi,,html-keyboard-response,473,2805373,0.0-1.0-89.0-0.0-2.0,0,0,98,,,,,,87.0,,,,,2.0,,,,,,,,,,,,,,,,,,166.5,2.0,,,,,,,,,,,,,,,
474,,feedback,,html-keyboard-response,474,2806376,0.0-1.0-89.0-0.0-3.0-0.0,0,0,98,,,,,,87.0,,,,,2.0,,,,,,,,,,,,,,,,,,168.5,1.0,,,,,,,,,,,,,,,
475,,iti,,html-keyboard-response,475,2807379,0.0-1.0-89.0-0.0-5.0,0,0,98,,,,,,87.0,,,,,2.0,,,,,,,,,,,,,,,,,,169.5,1.0,,,,,,,,,,,,,,,
476,,choice,,html-keyboard-response,476,2808379,0.0-1.0-90.0-0.0-0.0,0,0,98,,998.0,,,51.0,88.0,92.0,1500.0,1500.0,0.0,2.0,0.0,40-80,,0.0,yarn,hat,40.0,80.0,yarn9,hat9,60.0,100.0,Aballofyarn26.jpg,Astrawhat44.jpg,/static/Category_learning/Stimuli/Experimental_stims/yarn/Aballofyarn26.jpg,/static/Category_learning/Stimuli/Experimental_stims/hat/Astrawhat44.jpg,0.0,170.5,0.998,0.0,hat,yarn,80.0,40.0,hat9,yarn9,100.0,60.0,,,,,,
477,,confirmation,,html-keyboard-response,477,2808884,0.0-1.0-90.0-0.0-1.0-0.0,0,0,98,,,,,,88.0,,,,,2.0,,,,,,,,,,,,,,,,,,171.498,0.502,,,,,,,,,,,,,,,
478,,isi,,html-keyboard-response,478,2810388,0.0-1.0-90.0-0.0-2.0,0,0,98,,,,,,88.0,,,,,2.0,,,,,,,,,,,,,,,,,,172.0,1.5,,,,,,,,,,,,,,,
479,,feedback,,html-keyboard-response,479,2811395,0.0-1.0-90.0-0.0-3.0-0.0,0,0,98,,,,,,88.0,,,,,2.0,,,,,,,,,,,,,,,,,,173.5,1.0,,,,,,,,,,,,,,,
480,,iti,,html-keyboard-response,480,2812900,0.0-1.0-90.0-0.0-5.0,0,0,98,,,,,,88.0,,,,,2.0,,,,,,,,,,,,,,,,,,174.5,1.5,,,,,,,,,,,,,,,
481,,choice,,html-keyboard-response,481,2813982,0.0-1.0-91.0-0.0-0.0,0,0,98,,1078.0,,,51.0,89.0,93.0,1000.0,1000.0,0.0,2.0,0.0,20-80,,0.0,power strip,motorcycle,20.0,80.0,power strip7,motorcycle13,20.0,80.0,412YZ25RFBL._AA262_.jpg,2005-Buell-FireboltXB12R.jpg,/static/Category_learning/Stimuli/Experimental_stims/power strip/412YZ25RFBL._AA262_.jpg,/static/Category_learning/Stimuli/Experimental_stims/motorcycle/2005-Buell-FireboltXB12R.jpg,0.0,176.0,1.078,0.0,motorcycle,power strip,80.0,20.0,motorcycle13,power strip7,80.0,20.0,,,,,,
482,,confirmation,,html-keyboard-response,482,2814409,0.0-1.0-91.0-0.0-1.0-0.0,0,0,98,,,,,,89.0,,,,,2.0,,,,,,,,,,,,,,,,,,177.078,0.422,,,,,,,,,,,,,,,
