,success,ttype,start_time,trial_type,trial_index,time_elapsed,internal_node_id,warning,missed_checkup,PID,view_history,rt,responses,repeat_instructions,key_press,index,trial_num,isi,iti,is_practice,block,old_trial,pair_type,within_category,high_cat_on_left,left_category,right_category,left_category_value,right_category_value,left_exemplar,right_exemplar,left_exemplar_value,right_exemplar_value,left_img,right_img,left_img_path,right_img_path,left_chosen,chosen_category,unchosen_category,chosen_category_value,unchosen_category_value,chosen_exemplar,unchosen_exemplar,chosen_exemplar_value,unchosen_exemplar_value,no_response,onset,duration,end_practice,total_bonus_tally,category,category_group_value,category_value_response,did_not_enter_response
0,True,full_screen,d06032022hr1342,fullscreen,0,14092,0.0-0.0,0,0,83590,,,,,,,,,,,,,,,,,,,,,,,,,,,,,,,,,,,,,,,,,,,,,
1,,category_learning_instructions,,instructions,1,42088,0.0-1.0-0.0-0.0,0,0,83590,"[{""page_index"":0,""viewing_time"":4423},{""page_index"":1,""viewing_time"":2938},{""page_index"":2,""viewing_time"":1216},{""page_index"":3,""viewing_time"":1801},{""page_index"":4,""viewing_time"":1979},{""page_index"":5,""viewing_time"":2242},{""page_index"":4,""viewing_time"":1852},{""page_index"":5,""viewing_time"":5927},{""page_index"":6,""viewing_time"":5614}]",27993.0,,,,,,,,,,,,,,,,,,,,,,,,,,,,,,,,,,,,,,,,,,,
2,,category_learning_comprehension_check,,survey-multi-choice,2,49726,0.0-1.0-0.0-1.0,0,0,83590,,7631.0,"{""Q0"":""True"",""Q1"":""True"",""Q2"":""Stay the same"",""Q3"":""D for left and K for right""}",0.0,,,,,,,,,,,,,,,,,,,,,,,,,,,,,,,,,,,,,,,,,
3,,,,html-keyboard-response,3,51252,0.0-1.0-1.0,0,0,83590,,1520.0,,,68.0,,,,,,,,,,,,,,,,,,,,,,,,,,,,,,,,,,,,,,,,
4,,choice,,html-keyboard-response,4,52517,0.0-1.0-2.0-0.0-0.0,0,0,83590,,1260.0,,,68.0,0.0,0.0,1500.0,1000.0,1.0,0.0,0.0,20-80,,0.0,bagel,dumbbell,20.0,80.0,bagel1,dumbbell1,0.0,80.0,bagels_pumpernickel_large.jpg,31B64EN68AL._AA280_.jpg,/static/Category_learning/Stimuli/Practice_stims/bagel/bagels_pumpernickel_large.jpg,/static/Category_learning/Stimuli/Practice_stims/dumbbell/31B64EN68AL._AA280_.jpg,1.0,bagel,dumbbell,20.0,80.0,bagel1,dumbbell1,0.0,80.0,0.0,1.26,1.26,,,,,,
5,,confirmation,,html-keyboard-response,5,52768,0.0-1.0-2.0-0.0-1.0-0.0,0,0,83590,,,,,,0.0,,,,,,,,,,,,,,,,,,,,,,,,,,,,,,,,1.5,0.24,,,,,,
6,,isi,,html-keyboard-response,6,54276,0.0-1.0-2.0-0.0-2.0,0,0,83590,,,,,,,,,,,,,,,,,,,,,,,,,,,,,,,,,,,,,,3.0,1.5,,,,,,
7,,feedback,,html-keyboard-response,7,55284,0.0-1.0-2.0-0.0-3.0-0.0,0,0,83590,,,,,,0.0,,,,,,,,,,,,,,,,,,,,,,,,,,,,,,,,4.0,1.0,,,,,,
8,,iti,,html-keyboard-response,8,56287,0.0-1.0-2.0-0.0-5.0,0,0,83590,,,,,,,,,,,,,,,,,,,,,,,,,,,,,,,,,,,,,,5.0,1.0,,,,,,
9,,choice,,html-keyboard-response,9,56701,0.0-1.0-3.0-0.0-0.0,0,0,83590,,410.0,,,68.0,1.0,1.0,3000.0,1500.0,1.0,0.0,0.0,20-40,,1.0,calculator,bagel,40.0,20.0,calculator2,bagel2,20.0,20.0,22829064.thl.jpg,bagels_cinnraisin_large.jpg,/static/Category_learning/Stimuli/Practice_stims/calculator/22829064.thl.jpg,/static/Category_learning/Stimuli/Practice_stims/bagel/bagels_cinnraisin_large.jpg,1.0,calculator,bagel,40.0,20.0,calculator2,bagel2,20.0,20.0,0.0,5.41,0.41,,,,,,
10,,confirmation,,html-keyboard-response,10,57797,0.0-1.0-3.0-0.0-1.0-0.0,0,0,83590,,,,,,1.0,,,,,,,,,,,,,,,,,,,,,,,,,,,,,,,,6.5,1.09,,,,,,
11,,isi,,html-keyboard-response,11,60804,0.0-1.0-3.0-0.0-2.0,0,0,83590,,,,,,,,,,,,,,,,,,,,,,,,,,,,,,,,,,,,,,9.5,3.0,,,,,,
12,,feedback,,html-keyboard-response,12,61813,0.0-1.0-3.0-0.0-3.0-0.0,0,0,83590,,,,,,1.0,,,,,,,,,,,,,,,,,,,,,,,,,,,,,,,,10.5,1.0,,,,,,
13,,iti,,html-keyboard-response,13,63316,0.0-1.0-3.0-0.0-5.0,0,0,83590,,,,,,,,,,,,,,,,,,,,,,,,,,,,,,,,,,,,,,12.0,1.5,,,,,,
14,,choice,,html-keyboard-response,14,63961,0.0-1.0-4.0-0.0-0.0,0,0,83590,,641.0,,,68.0,2.0,2.0,2000.0,3000.0,1.0,0.0,0.0,60-80,,0.0,clock,dumbbell,60.0,80.0,clock2,dumbbell2,60.0,100.0,26373355.thl.jpg,31K8MR6TMBL._SS500_.jpg,/static/Category_learning/Stimuli/Practice_stims/clock/26373355.thl.jpg,/static/Category_learning/Stimuli/Practice_stims/dumbbell/31K8MR6TMBL._SS500_.jpg,1.0,clock,dumbbell,60.0,80.0,clock2,dumbbell2,60.0,100.0,0.0,12.641,0.641,,,,,,
15,,confirmation,,html-keyboard-response,15,64826,0.0-1.0-4.0-0.0-1.0-0.0,0,0,83590,,,,,,2.0,,,,,,,,,,,,,,,,,,,,,,,,,,,,,,,,13.5,0.859,,,,,,
16,,isi,,html-keyboard-response,16,66831,0.0-1.0-4.0-0.0-2.0,0,0,83590,,,,,,,,,,,,,,,,,,,,,,,,,,,,,,,,,,,,,,15.5,2.0,,,,,,
17,,feedback,,html-keyboard-response,17,67839,0.0-1.0-4.0-0.0-3.0-0.0,0,0,83590,,,,,,2.0,,,,,,,,,,,,,,,,,,,,,,,,,,,,,,,,16.5,1.0,,,,,,
18,,iti,,html-keyboard-response,18,70847,0.0-1.0-4.0-0.0-5.0,0,0,83590,,,,,,,,,,,,,,,,,,,,,,,,,,,,,,,,,,,,,,19.5,3.0,,,,,,
19,,choice,,html-keyboard-response,19,71182,0.0-1.0-5.0-0.0-0.0,0,0,83590,,330.0,,,68.0,3.0,3.0,1000.0,2000.0,1.0,0.0,0.0,40-80,,0.0,calculator,clock,40.0,60.0,calculator1,clock1,40.0,40.0,22829184.thl.jpg,Aalarmclock2.jpg,/static/Category_learning/Stimuli/Practice_stims/calculator/22829184.thl.jpg,/static/Category_learning/Stimuli/Practice_stims/clock/Aalarmclock2.jpg,1.0,calculator,clock,40.0,60.0,calculator1,clock1,40.0,40.0,0.0,19.83,0.33,,,,,,
20,,confirmation,,html-keyboard-response,20,72358,0.0-1.0-5.0-0.0-1.0-0.0,0,0,83590,,,,,,3.0,,,,,,,,,,,,,,,,,,,,,,,,,,,,,,,,21.0,1.17,,,,,,
21,,isi,,html-keyboard-response,21,73365,0.0-1.0-5.0-0.0-2.0,0,0,83590,,,,,,,,,,,,,,,,,,,,,,,,,,,,,,,,,,,,,,22.0,1.0,,,,,,
22,,feedback,,html-keyboard-response,22,74373,0.0-1.0-5.0-0.0-3.0-0.0,0,0,83590,,,,,,3.0,,,,,,,,,,,,,,,,,,,,,,,,,,,,,,,,23.0,1.0,,,,,,
23,,iti,,html-keyboard-response,23,76377,0.0-1.0-5.0-0.0-5.0,0,0,83590,,,,,,,,,,,,,,,,,,,,,,,,,,,,,,,,,,,,,,25.0,2.0,,,,,,
24,,choice,,html-keyboard-response,24,76559,0.0-1.0-6.0-0.0-0.0,0,0,83590,,178.0,,,68.0,4.0,4.0,2500.0,2500.0,1.0,0.0,0.0,20-60,,1.0,dumbbell,bagel,80.0,20.0,dumbbell3,bagel3,100.0,40.0,41K7QVRX50L._SS500_.jpg,photo-169.jpg,/static/Category_learning/Stimuli/Practice_stims/dumbbell/41K7QVRX50L._SS500_.jpg,/static/Category_learning/Stimuli/Practice_stims/bagel/photo-169.jpg,1.0,dumbbell,bagel,80.0,20.0,dumbbell3,bagel3,100.0,40.0,0.0,25.178,0.178,1.0,,,,,
25,,confirmation,,html-keyboard-response,25,77887,0.0-1.0-6.0-0.0-1.0-0.0,0,0,83590,,,,,,4.0,,,,,,,,,,,,,,,,,,,,,,,,,,,,,,,,26.5,1.322,,,,,,
26,,isi,,html-keyboard-response,26,80395,0.0-1.0-6.0-0.0-2.0,0,0,83590,,,,,,,,,,,,,,,,,,,,,,,,,,,,,,,,,,,,,,29.0,2.5,,,,,,
27,,feedback,,html-keyboard-response,27,81403,0.0-1.0-6.0-0.0-3.0-0.0,0,0,83590,,,,,,4.0,,,,,,,,,,,,,,,,,,,,,,,,,,,,,,,,30.0,1.0,,,,,,
28,,iti,,html-keyboard-response,28,83910,0.0-1.0-6.0-0.0-5.0,0,0,83590,,,,,,,,,,,,,,,,,,,,,,,,,,,,,,,,,,,,,,32.5,2.5,,,,,,
29,,practice_over,,html-keyboard-response,29,87608,0.0-1.0-6.0-0.0-6.0-0.0,0,0,83590,,3694.0,,,68.0,4.0,,,,,,,,,,,,,,,,,,,,,,,,,,,,,,,,,,,,,,,
30,,start_run,,html-keyboard-response,30,90122,0.0-1.0-6.0-0.0-6.0-1.0,0,0,83590,,2509.0,,,84.0,,,,,,,,,,,,,,,,,,,,,,,,,,,,,,,,,,,,,,,,
31,,choice,,html-keyboard-response,31,91631,0.0-1.0-7.0-0.0-0.0,0,0,83590,,,,,,5.0,5.0,2000.0,3500.0,0.0,1.0,0.0,20-60,,0.0,necklace,bench,20.0,60.0,necklace15,bench3,40.0,40.0,necklascenew04.jpg,26419540.thl.jpg,/static/Category_learning/Stimuli/Experimental_stims/necklace/necklascenew04.jpg,/static/Category_learning/Stimuli/Experimental_stims/bench/26419540.thl.jpg,,,,,,,,,,1.0,1.5,1.5,,,,,,
32,,isi,,html-keyboard-response,32,93637,0.0-1.0-7.0-0.0-2.0,0,0,83590,,,,,,,,,,,,,,,,,,,,,,,,,,,,,,,,,,,,,,3.5,2.0,,,,,,
33,,no_response,,html-keyboard-response,33,94645,0.0-1.0-7.0-0.0-4.0-0.0,0,0,83590,,,,,,,,,,,,,,,,,,,,,,,,,,,,,,,,,,,,,,4.5,1.0,,,,,,
34,,iti,,html-keyboard-response,34,98203,0.0-1.0-7.0-0.0-5.0,0,0,83590,,,,,,,,,,,,,,,,,,,,,,,,,,,,,,,,,,,,,,8.0,3.5,,,,,,
35,,choice,,html-keyboard-response,35,98357,0.0-1.0-7.0-0.1-0.1,0,0,83590,,150.0,,,68.0,5.0,5.0,2000.0,3500.0,0.0,1.0,0.0,20-60,,0.0,necklace,bench,20.0,60.0,necklace15,bench3,40.0,40.0,necklascenew04.jpg,26419540.thl.jpg,/static/Category_learning/Stimuli/Experimental_stims/necklace/necklascenew04.jpg,/static/Category_learning/Stimuli/Experimental_stims/bench/26419540.thl.jpg,1.0,necklace,bench,20.0,60.0,necklace15,bench3,40.0,40.0,0.0,8.15,0.15,,,,,,
36,,confirmation,,html-keyboard-response,36,99716,0.0-1.0-7.0-0.1-1.1-0.1,0,0,83590,,,,,,5.0,,,,,,,,,,,,,,,,,,,,,,,,,,,,,,,,9.5,1.35,,,,,,
37,,isi,,html-keyboard-response,37,101723,0.0-1.0-7.0-0.1-2.1,0,0,83590,,,,,,,,,,,,,,,,,,,,,,,,,,,,,,,,,,,,,,11.5,2.0,,,,,,
38,,feedback,,html-keyboard-response,38,102731,0.0-1.0-7.0-0.1-3.1-0.1,0,0,83590,,,,,,5.0,,,,,,,,,,,,,,,,,,,,,,,,,,,,,,,,12.5,1.0,,,,,,
39,,iti,,html-keyboard-response,39,104235,0.0-1.0-7.0-0.1-5.1,0,0,83590,,,,,,,,,,,,,,,,,,,,,,,,,,,,,,,,,,,,,,14.0,1.5,,,,,,
40,,choice,,html-keyboard-response,40,104784,0.0-1.0-8.0-0.0-0.0,0,0,83590,,543.0,,,68.0,6.0,6.0,2000.0,1000.0,0.0,1.0,0.0,20-20,,,power strip,seashell,20.0,20.0,power strip8,seashell7,40.0,20.0,3118YGHQWXL._AA262_.jpg,seashell34.jpg,/static/Category_learning/Stimuli/Experimental_stims/power strip/3118YGHQWXL._AA262_.jpg,/static/Category_learning/Stimuli/Experimental_stims/seashell/seashell34.jpg,1.0,power strip,seashell,20.0,20.0,power strip8,seashell7,40.0,20.0,0.0,14.543,0.543,,,,,,
41,,confirmation,,html-keyboard-response,41,105746,0.0-1.0-8.0-0.0-1.0-0.0,0,0,83590,,,,,,6.0,,,,,,,,,,,,,,,,,,,,,,,,,,,,,,,,15.5,0.957,,,,,,
42,,isi,,html-keyboard-response,42,107749,0.0-1.0-8.0-0.0-2.0,0,0,83590,,,,,,,,,,,,,,,,,,,,,,,,,,,,,,,,,,,,,,17.5,2.0,,,,,,
43,,feedback,,html-keyboard-response,43,108757,0.0-1.0-8.0-0.0-3.0-0.0,0,0,83590,,,,,,6.0,,,,,,,,,,,,,,,,,,,,,,,,,,,,,,,,18.5,1.0,,,,,,
44,,iti,,html-keyboard-response,44,109764,0.0-1.0-8.0-0.0-5.0,0,0,83590,,,,,,,,,,,,,,,,,,,,,,,,,,,,,,,,,,,,,,19.5,1.0,,,,,,
45,,choice,,html-keyboard-response,45,110254,0.0-1.0-9.0-0.0-0.0,0,0,83590,,485.0,,,68.0,7.0,7.0,1500.0,2000.0,0.0,1.0,0.0,20-40,,1.0,telescope,poker card,40.0,20.0,telescope1,poker card9,20.0,40.0,celestron nexstar 114 gt reflector telescope.jpg,9817230.thl.jpg,/static/Category_learning/Stimuli/Experimental_stims/telescope/celestron nexstar 114 gt reflector telescope.jpg,/static/Category_learning/Stimuli/Experimental_stims/poker card/9817230.thl.jpg,1.0,telescope,poker card,40.0,20.0,telescope1,poker card9,20.0,40.0,0.0,19.985,0.485,,,,,,
46,,confirmation,,html-keyboard-response,46,111273,0.0-1.0-9.0-0.0-1.0-0.0,0,0,83590,,,,,,7.0,,,,,,,,,,,,,,,,,,,,,,,,,,,,,,,,21.0,1.015,,,,,,
47,,isi,,html-keyboard-response,47,112778,0.0-1.0-9.0-0.0-2.0,0,0,83590,,,,,,,,,,,,,,,,,,,,,,,,,,,,,,,,,,,,,,22.5,1.5,,,,,,
48,,feedback,,html-keyboard-response,48,113786,0.0-1.0-9.0-0.0-3.0-0.0,0,0,83590,,,,,,7.0,,,,,,,,,,,,,,,,,,,,,,,,,,,,,,,,23.5,1.0,,,,,,
49,,iti,,html-keyboard-response,49,115795,0.0-1.0-9.0-0.0-5.0,0,0,83590,,,,,,,,,,,,,,,,,,,,,,,,,,,,,,,,,,,,,,25.5,2.0,,,,,,
50,,choice,,html-keyboard-response,50,115840,0.0-1.0-10.0-0.0-0.0,0,0,83590,,38.0,,,68.0,8.0,8.0,3500.0,1000.0,0.0,1.0,0.0,60-60,,,door knob,dresser,60.0,60.0,door knob7,dresser4,40.0,80.0,doorknob2.jpg,ADRESSE40.jpg,/static/Category_learning/Stimuli/Experimental_stims/door knob/doorknob2.jpg,/static/Category_learning/Stimuli/Experimental_stims/dresser/ADRESSE40.jpg,1.0,door knob,dresser,60.0,60.0,door knob7,dresser4,40.0,80.0,0.0,25.538,0.038,,,,,,
51,,confirmation,,html-keyboard-response,51,117311,0.0-1.0-10.0-0.0-1.0-0.0,0,0,83590,,,,,,8.0,,,,,,,,,,,,,,,,,,,,,,,,,,,,,,,,27.0,1.462,,,,,,
52,,isi,,html-keyboard-response,52,120816,0.0-1.0-10.0-0.0-2.0,0,0,83590,,,,,,,,,,,,,,,,,,,,,,,,,,,,,,,,,,,,,,30.5,3.5,,,,,,
53,,feedback,,html-keyboard-response,53,121822,0.0-1.0-10.0-0.0-3.0-0.0,0,0,83590,,,,,,8.0,,,,,,,,,,,,,,,,,,,,,,,,,,,,,,,,31.5,1.0,,,,,,
54,,iti,,html-keyboard-response,54,122827,0.0-1.0-10.0-0.0-5.0,0,0,83590,,,,,,,,,,,,,,,,,,,,,,,,,,,,,,,,,,,,,,32.5,1.0,,,,,,
55,,choice,,html-keyboard-response,55,123045,0.0-1.0-11.0-0.0-0.0,0,0,83590,,214.0,,,68.0,9.0,9.0,1000.0,1000.0,0.0,1.0,0.0,20-60,,0.0,poker card,desk,20.0,60.0,poker card8,desk13,20.0,80.0,22864392.thl.jpg,26427865.thl.jpg,/static/Category_learning/Stimuli/Experimental_stims/poker card/22864392.thl.jpg,/static/Category_learning/Stimuli/Experimental_stims/desk/26427865.thl.jpg,1.0,poker card,desk,20.0,60.0,poker card8,desk13,20.0,80.0,0.0,32.714,0.214,,,,,,
56,,confirmation,,html-keyboard-response,56,124340,0.0-1.0-11.0-0.0-1.0-0.0,0,0,83590,,,,,,9.0,,,,,,,,,,,,,,,,,,,,,,,,,,,,,,,,34.0,1.286,,,,,,
57,,isi,,html-keyboard-response,57,125346,0.0-1.0-11.0-0.0-2.0,0,0,83590,,,,,,,,,,,,,,,,,,,,,,,,,,,,,,,,,,,,,,35.0,1.0,,,,,,
58,,feedback,,html-keyboard-response,58,126350,0.0-1.0-11.0-0.0-3.0-0.0,0,0,83590,,,,,,9.0,,,,,,,,,,,,,,,,,,,,,,,,,,,,,,,,36.0,1.0,,,,,,
59,,iti,,html-keyboard-response,59,127354,0.0-1.0-11.0-0.0-5.0,0,0,83590,,,,,,,,,,,,,,,,,,,,,,,,,,,,,,,,,,,,,,37.0,1.0,,,,,,
60,,choice,,html-keyboard-response,60,127493,0.0-1.0-12.0-0.0-0.0,0,0,83590,,133.0,,,68.0,10.0,10.0,1000.0,1000.0,0.0,1.0,0.0,20-60,,1.0,bench,nail polish,60.0,20.0,bench8,nail polish6,80.0,0.0,APARKBE14.jpg,127_t.jpg,/static/Category_learning/Stimuli/Experimental_stims/bench/APARKBE14.jpg,/static/Category_learning/Stimuli/Experimental_stims/nail polish/127_t.jpg,1.0,bench,nail polish,60.0,20.0,bench8,nail polish6,80.0,0.0,0.0,37.133,0.133,,,,,,
61,,confirmation,,html-keyboard-response,61,128866,0.0-1.0-12.0-0.0-1.0-0.0,0,0,83590,,,,,,10.0,,,,,,,,,,,,,,,,,,,,,,,,,,,,,,,,38.5,1.367,,,,,,
62,,isi,,html-keyboard-response,62,129873,0.0-1.0-12.0-0.0-2.0,0,0,83590,,,,,,,,,,,,,,,,,,,,,,,,,,,,,,,,,,,,,,39.5,1.0,,,,,,
63,,feedback,,html-keyboard-response,63,130879,0.0-1.0-12.0-0.0-3.0-0.0,0,0,83590,,,,,,10.0,,,,,,,,,,,,,,,,,,,,,,,,,,,,,,,,40.5,1.0,,,,,,
64,,iti,,html-keyboard-response,64,131883,0.0-1.0-12.0-0.0-5.0,0,0,83590,,,,,,,,,,,,,,,,,,,,,,,,,,,,,,,,,,,,,,41.5,1.0,,,,,,
65,,choice,,html-keyboard-response,65,132041,0.0-1.0-13.0-0.0-0.0,0,0,83590,,154.0,,,68.0,11.0,11.0,1500.0,3000.0,0.0,1.0,0.0,20-80,,0.0,pen,microscope,20.0,80.0,pen11,microscope4,0.0,80.0,pen01.jpg,55071208.JPG,/static/Category_learning/Stimuli/Experimental_stims/pen/pen01.jpg,/static/Category_learning/Stimuli/Experimental_stims/microscope/55071208.JPG,1.0,pen,microscope,20.0,80.0,pen11,microscope4,0.0,80.0,0.0,41.654,0.154,,,,,,
66,,confirmation,,html-keyboard-response,66,133396,0.0-1.0-13.0-0.0-1.0-0.0,0,0,83590,,,,,,11.0,,,,,,,,,,,,,,,,,,,,,,,,,,,,,,,,43.0,1.346,,,,,,
67,,isi,,html-keyboard-response,67,134900,0.0-1.0-13.0-0.0-2.0,0,0,83590,,,,,,,,,,,,,,,,,,,,,,,,,,,,,,,,,,,,,,44.5,1.5,,,,,,
68,,feedback,,html-keyboard-response,68,135908,0.0-1.0-13.0-0.0-3.0-0.0,0,0,83590,,,,,,11.0,,,,,,,,,,,,,,,,,,,,,,,,,,,,,,,,45.5,1.0,,,,,,
69,,iti,,html-keyboard-response,69,138916,0.0-1.0-13.0-0.0-5.0,0,0,83590,,,,,,,,,,,,,,,,,,,,,,,,,,,,,,,,,,,,,,48.5,3.0,,,,,,
70,,choice,,html-keyboard-response,70,138937,0.0-1.0-14.0-0.0-0.0,0,0,83590,,17.0,,,68.0,12.0,12.0,1500.0,2000.0,0.0,1.0,0.0,20-60,,0.0,necklace,bowl,20.0,60.0,necklace1,bowl14,0.0,60.0,26443173.thl.jpg,Aredglassbowl.jpg,/static/Category_learning/Stimuli/Experimental_stims/necklace/26443173.thl.jpg,/static/Category_learning/Stimuli/Experimental_stims/bowl/Aredglassbowl.jpg,1.0,necklace,bowl,20.0,60.0,necklace1,bowl14,0.0,60.0,0.0,48.517,0.017,,,,,,
71,,confirmation,,html-keyboard-response,71,140425,0.0-1.0-14.0-0.0-1.0-0.0,0,0,83590,,,,,,12.0,,,,,,,,,,,,,,,,,,,,,,,,,,,,,,,,50.0,1.483,,,,,,
72,,isi,,html-keyboard-response,72,141930,0.0-1.0-14.0-0.0-2.0,0,0,83590,,,,,,,,,,,,,,,,,,,,,,,,,,,,,,,,,,,,,,51.5,1.5,,,,,,
73,,feedback,,html-keyboard-response,73,142937,0.0-1.0-14.0-0.0-3.0-0.0,0,0,83590,,,,,,12.0,,,,,,,,,,,,,,,,,,,,,,,,,,,,,,,,52.5,1.0,,,,,,
74,,iti,,html-keyboard-response,74,144942,0.0-1.0-14.0-0.0-5.0,0,0,83590,,,,,,,,,,,,,,,,,,,,,,,,,,,,,,,,,,,,,,54.5,2.0,,,,,,
75,,choice,,html-keyboard-response,75,145160,0.0-1.0-15.0-0.0-0.0,0,0,83590,,212.0,,,68.0,13.0,13.0,3500.0,3500.0,0.0,1.0,1.0,20-20,1.0,,necklace,necklace,20.0,20.0,necklace1,necklace15,0.0,40.0,26443173.thl.jpg,necklascenew04.jpg,/static/Category_learning/Stimuli/Experimental_stims/necklace/26443173.thl.jpg,/static/Category_learning/Stimuli/Experimental_stims/necklace/necklascenew04.jpg,1.0,necklace,necklace,20.0,20.0,necklace1,necklace15,0.0,40.0,0.0,54.712,0.212,,,,,,
76,,confirmation,,html-keyboard-response,76,146452,0.0-1.0-15.0-0.0-1.0-0.0,0,0,83590,,,,,,13.0,,,,,,,,,,,,,,,,,,,,,,,,,,,,,,,,56.0,1.288,,,,,,
77,,isi,,html-keyboard-response,77,149957,0.0-1.0-15.0-0.0-2.0,0,0,83590,,,,,,,,,,,,,,,,,,,,,,,,,,,,,,,,,,,,,,59.5,3.5,,,,,,
78,,feedback,,html-keyboard-response,78,150964,0.0-1.0-15.0-0.0-3.0-0.0,0,0,83590,,,,,,13.0,,,,,,,,,,,,,,,,,,,,,,,,,,,,,,,,60.5,1.0,,,,,,
79,,iti,,html-keyboard-response,79,154468,0.0-1.0-15.0-0.0-5.0,0,0,83590,,,,,,,,,,,,,,,,,,,,,,,,,,,,,,,,,,,,,,64.0,3.5,,,,,,
80,,choice,,html-keyboard-response,80,155501,0.0-1.0-16.0-0.0-0.0,0,0,83590,,1028.0,,,68.0,14.0,14.0,1000.0,1000.0,0.0,1.0,0.0,60-80,,1.0,microscope,bench,80.0,60.0,microscope12,bench12,60.0,80.0,usbdigitalmicroscope1_small1.jpg,22927976.thl.jpg,/static/Category_learning/Stimuli/Experimental_stims/microscope/usbdigitalmicroscope1_small1.jpg,/static/Category_learning/Stimuli/Experimental_stims/bench/22927976.thl.jpg,1.0,microscope,bench,80.0,60.0,microscope12,bench12,60.0,80.0,0.0,65.028,1.028,,,,,,
81,,confirmation,,html-keyboard-response,81,155977,0.0-1.0-16.0-0.0-1.0-0.0,0,0,83590,,,,,,14.0,,,,,,,,,,,,,,,,,,,,,,,,,,,,,,,,65.5,0.472,,,,,,
82,,isi,,html-keyboard-response,82,156985,0.0-1.0-16.0-0.0-2.0,0,0,83590,,,,,,,,,,,,,,,,,,,,,,,,,,,,,,,,,,,,,,66.5,1.0,,,,,,
83,,feedback,,html-keyboard-response,83,157993,0.0-1.0-16.0-0.0-3.0-0.0,0,0,83590,,,,,,14.0,,,,,,,,,,,,,,,,,,,,,,,,,,,,,,,,67.5,1.0,,,,,,
84,,iti,,html-keyboard-response,84,158998,0.0-1.0-16.0-0.0-5.0,0,0,83590,,,,,,,,,,,,,,,,,,,,,,,,,,,,,,,,,,,,,,68.5,1.0,,,,,,
85,,choice,,html-keyboard-response,85,159202,0.0-1.0-17.0-0.0-0.0,0,0,83590,,200.0,,,68.0,15.0,15.0,1000.0,1000.0,0.0,1.0,1.0,20-40,0.0,,telescope,pen,40.0,20.0,telescope1,pen11,20.0,0.0,celestron nexstar 114 gt reflector telescope.jpg,pen01.jpg,/static/Category_learning/Stimuli/Experimental_stims/telescope/celestron nexstar 114 gt reflector telescope.jpg,/static/Category_learning/Stimuli/Experimental_stims/pen/pen01.jpg,1.0,telescope,pen,40.0,20.0,telescope1,pen11,20.0,0.0,0.0,68.7,0.2,,,,,,
86,,confirmation,,html-keyboard-response,86,160507,0.0-1.0-17.0-0.0-1.0-0.0,0,0,83590,,,,,,15.0,,,,,,,,,,,,,,,,,,,,,,,,,,,,,,,,70.0,1.3,,,,,,
87,,isi,,html-keyboard-response,87,161515,0.0-1.0-17.0-0.0-2.0,0,0,83590,,,,,,,,,,,,,,,,,,,,,,,,,,,,,,,,,,,,,,71.0,1.0,,,,,,
88,,feedback,,html-keyboard-response,88,162522,0.0-1.0-17.0-0.0-3.0-0.0,0,0,83590,,,,,,15.0,,,,,,,,,,,,,,,,,,,,,,,,,,,,,,,,72.0,1.0,,,,,,
89,,iti,,html-keyboard-response,89,163529,0.0-1.0-17.0-0.0-5.0,0,0,83590,,,,,,,,,,,,,,,,,,,,,,,,,,,,,,,,,,,,,,73.0,1.0,,,,,,
90,,choice,,html-keyboard-response,90,163539,0.0-1.0-18.0-0.0-0.0,0,0,83590,,6.0,,,68.0,16.0,16.0,1000.0,1000.0,0.0,1.0,0.0,20-40,,0.0,poker card,yarn,20.0,40.0,poker card3,yarn4,0.0,40.0,9817131.thl.jpg,amethyst dreaming boho hy sml.jpg,/static/Category_learning/Stimuli/Experimental_stims/poker card/9817131.thl.jpg,/static/Category_learning/Stimuli/Experimental_stims/yarn/amethyst dreaming boho hy sml.jpg,1.0,poker card,yarn,20.0,40.0,poker card3,yarn4,0.0,40.0,0.0,73.006,0.006,,,,,,
91,,confirmation,,html-keyboard-response,91,165039,0.0-1.0-18.0-0.0-1.0-0.0,0,0,83590,,,,,,16.0,,,,,,,,,,,,,,,,,,,,,,,,,,,,,,,,74.5,1.494,,,,,,
92,,isi,,html-keyboard-response,92,166046,0.0-1.0-18.0-0.0-2.0,0,0,83590,,,,,,,,,,,,,,,,,,,,,,,,,,,,,,,,,,,,,,75.5,1.0,,,,,,
93,,feedback,,html-keyboard-response,93,167055,0.0-1.0-18.0-0.0-3.0-0.0,0,0,83590,,,,,,16.0,,,,,,,,,,,,,,,,,,,,,,,,,,,,,,,,76.5,1.0,,,,,,
94,,iti,,html-keyboard-response,94,168061,0.0-1.0-18.0-0.0-5.0,0,0,83590,,,,,,,,,,,,,,,,,,,,,,,,,,,,,,,,,,,,,,77.5,1.0,,,,,,
95,,choice,,html-keyboard-response,95,168462,0.0-1.0-19.0-0.0-0.0,0,0,83590,,396.0,,,68.0,17.0,17.0,3500.0,1000.0,0.0,1.0,0.0,40-80,,0.0,trumpet,microscope,40.0,80.0,trumpet11,microscope8,20.0,80.0,JUPITER+JTR604L.jpg,AMICROS21.jpg,/static/Category_learning/Stimuli/Experimental_stims/trumpet/JUPITER+JTR604L.jpg,/static/Category_learning/Stimuli/Experimental_stims/microscope/AMICROS21.jpg,1.0,trumpet,microscope,40.0,80.0,trumpet11,microscope8,20.0,80.0,0.0,77.896,0.396,,,,,,
96,,confirmation,,html-keyboard-response,96,169573,0.0-1.0-19.0-0.0-1.0-0.0,0,0,83590,,,,,,17.0,,,,,,,,,,,,,,,,,,,,,,,,,,,,,,,,79.0,1.104,,,,,,
97,,isi,,html-keyboard-response,97,173080,0.0-1.0-19.0-0.0-2.0,0,0,83590,,,,,,,,,,,,,,,,,,,,,,,,,,,,,,,,,,,,,,82.5,3.5,,,,,,
98,,feedback,,html-keyboard-response,98,174087,0.0-1.0-19.0-0.0-3.0-0.0,0,0,83590,,,,,,17.0,,,,,,,,,,,,,,,,,,,,,,,,,,,,,,,,83.5,1.0,,,,,,
99,,iti,,html-keyboard-response,99,175094,0.0-1.0-19.0-0.0-5.0,0,0,83590,,,,,,,,,,,,,,,,,,,,,,,,,,,,,,,,,,,,,,84.5,1.0,,,,,,
100,,choice,,html-keyboard-response,100,175272,0.0-1.0-20.0-0.0-0.0,0,0,83590,,174.0,,,68.0,18.0,18.0,1500.0,1000.0,0.0,1.0,0.0,60-80,,0.0,baby carriage,hammer,60.0,80.0,baby carriage5,hammer8,80.0,80.0,Baby_Stroller.jpg,ct1006_hammer.jpg,/static/Category_learning/Stimuli/Experimental_stims/baby carriage/Baby_Stroller.jpg,/static/Category_learning/Stimuli/Experimental_stims/hammer/ct1006_hammer.jpg,1.0,baby carriage,hammer,60.0,80.0,baby carriage5,hammer8,80.0,80.0,0.0,84.674,0.174,,,,,,
101,,confirmation,,html-keyboard-response,101,176606,0.0-1.0-20.0-0.0-1.0-0.0,0,0,83590,,,,,,18.0,,,,,,,,,,,,,,,,,,,,,,,,,,,,,,,,86.0,1.326,,,,,,
102,,isi,,html-keyboard-response,102,178110,0.0-1.0-20.0-0.0-2.0,0,0,83590,,,,,,,,,,,,,,,,,,,,,,,,,,,,,,,,,,,,,,87.5,1.5,,,,,,
103,,feedback,,html-keyboard-response,103,179119,0.0-1.0-20.0-0.0-3.0-0.0,0,0,83590,,,,,,18.0,,,,,,,,,,,,,,,,,,,,,,,,,,,,,,,,88.5,1.0,,,,,,
104,,iti,,html-keyboard-response,104,180127,0.0-1.0-20.0-0.0-5.0,0,0,83590,,,,,,,,,,,,,,,,,,,,,,,,,,,,,,,,,,,,,,89.5,1.0,,,,,,
105,,choice,,html-keyboard-response,105,180315,0.0-1.0-21.0-0.0-0.0,0,0,83590,,185.0,,,68.0,19.0,19.0,1500.0,3500.0,0.0,1.0,0.0,60-60,,,fan,flashlight,60.0,60.0,fan6,flashlight1,60.0,40.0,30090.fpx.jpg,Graphite3D.jpg,/static/Category_learning/Stimuli/Experimental_stims/fan/30090.fpx.jpg,/static/Category_learning/Stimuli/Experimental_stims/flashlight/Graphite3D.jpg,1.0,fan,flashlight,60.0,60.0,fan6,flashlight1,60.0,40.0,0.0,89.685,0.185,,,,,,
106,,confirmation,,html-keyboard-response,106,181636,0.0-1.0-21.0-0.0-1.0-0.0,0,0,83590,,,,,,19.0,,,,,,,,,,,,,,,,,,,,,,,,,,,,,,,,91.0,1.315,,,,,,
107,,isi,,html-keyboard-response,107,183143,0.0-1.0-21.0-0.0-2.0,0,0,83590,,,,,,,,,,,,,,,,,,,,,,,,,,,,,,,,,,,,,,92.5,1.5,,,,,,
108,,feedback,,html-keyboard-response,108,184148,0.0-1.0-21.0-0.0-3.0-0.0,0,0,83590,,,,,,19.0,,,,,,,,,,,,,,,,,,,,,,,,,,,,,,,,93.5,1.0,,,,,,
109,,iti,,html-keyboard-response,109,187652,0.0-1.0-21.0-0.0-5.0,0,0,83590,,,,,,,,,,,,,,,,,,,,,,,,,,,,,,,,,,,,,,97.0,3.5,,,,,,
110,,choice,,html-keyboard-response,110,188292,0.0-1.0-22.0-0.0-0.0,0,0,83590,,636.0,,,68.0,20.0,20.0,1000.0,1000.0,0.0,1.0,0.0,20-80,,1.0,frame,patio lounge chair,80.0,20.0,frame11,patio lounge chair9,100.0,20.0,AFRAME139.jpg,43-3.jpg,/static/Category_learning/Stimuli/Experimental_stims/frame/AFRAME139.jpg,/static/Category_learning/Stimuli/Experimental_stims/patio lounge chair/43-3.jpg,1.0,frame,patio lounge chair,80.0,20.0,frame11,patio lounge chair9,100.0,20.0,0.0,97.636,0.636,,,,,,
111,,confirmation,,html-keyboard-response,111,189164,0.0-1.0-22.0-0.0-1.0-0.0,0,0,83590,,,,,,20.0,,,,,,,,,,,,,,,,,,,,,,,,,,,,,,,,98.5,0.864,,,,,,
112,,isi,,html-keyboard-response,112,190169,0.0-1.0-22.0-0.0-2.0,0,0,83590,,,,,,,,,,,,,,,,,,,,,,,,,,,,,,,,,,,,,,99.5,1.0,,,,,,
113,,feedback,,html-keyboard-response,113,191176,0.0-1.0-22.0-0.0-3.0-0.0,0,0,83590,,,,,,20.0,,,,,,,,,,,,,,,,,,,,,,,,,,,,,,,,100.5,1.0,,,,,,
114,,iti,,html-keyboard-response,114,192185,0.0-1.0-22.0-0.0-5.0,0,0,83590,,,,,,,,,,,,,,,,,,,,,,,,,,,,,,,,,,,,,,101.5,1.0,,,,,,
115,,choice,,html-keyboard-response,115,192668,0.0-1.0-23.0-0.0-0.0,0,0,83590,,479.0,,,68.0,21.0,21.0,2000.0,1000.0,0.0,1.0,0.0,40-80,,0.0,telescope,license plate,40.0,80.0,telescope11,license plate14,40.0,100.0,digimarc.ms03.jpg,fl-hel-bel.jpg,/static/Category_learning/Stimuli/Experimental_stims/telescope/digimarc.ms03.jpg,/static/Category_learning/Stimuli/Experimental_stims/license plate/fl-hel-bel.jpg,1.0,telescope,license plate,40.0,80.0,telescope11,license plate14,40.0,100.0,0.0,101.979,0.479,,,,,,
116,,confirmation,,html-keyboard-response,116,193697,0.0-1.0-23.0-0.0-1.0-0.0,0,0,83590,,,,,,21.0,,,,,,,,,,,,,,,,,,,,,,,,,,,,,,,,103.0,1.021,,,,,,
117,,isi,,html-keyboard-response,117,195705,0.0-1.0-23.0-0.0-2.0,0,0,83590,,,,,,,,,,,,,,,,,,,,,,,,,,,,,,,,,,,,,,105.0,2.0,,,,,,
118,,feedback,,html-keyboard-response,118,196713,0.0-1.0-23.0-0.0-3.0-0.0,0,0,83590,,,,,,21.0,,,,,,,,,,,,,,,,,,,,,,,,,,,,,,,,106.0,1.0,,,,,,
119,,iti,,html-keyboard-response,119,197721,0.0-1.0-23.0-0.0-5.0,0,0,83590,,,,,,,,,,,,,,,,,,,,,,,,,,,,,,,,,,,,,,107.0,1.0,,,,,,
120,,choice,,html-keyboard-response,120,198065,0.0-1.0-24.0-0.0-0.0,0,0,83590,,339.0,,,68.0,22.0,22.0,1000.0,1500.0,0.0,1.0,1.0,20-20,1.0,,poker card,poker card,20.0,20.0,poker card3,poker card8,0.0,20.0,9817131.thl.jpg,22864392.thl.jpg,/static/Category_learning/Stimuli/Experimental_stims/poker card/9817131.thl.jpg,/static/Category_learning/Stimuli/Experimental_stims/poker card/22864392.thl.jpg,1.0,poker card,poker card,20.0,20.0,poker card3,poker card8,0.0,20.0,0.0,107.339,0.339,,,,,,
121,,confirmation,,html-keyboard-response,121,199230,0.0-1.0-24.0-0.0-1.0-0.0,0,0,83590,,,,,,22.0,,,,,,,,,,,,,,,,,,,,,,,,,,,,,,,,108.5,1.161,,,,,,
122,,isi,,html-keyboard-response,122,200238,0.0-1.0-24.0-0.0-2.0,0,0,83590,,,,,,,,,,,,,,,,,,,,,,,,,,,,,,,,,,,,,,109.5,1.0,,,,,,
123,,feedback,,html-keyboard-response,123,201246,0.0-1.0-24.0-0.0-3.0-0.0,0,0,83590,,,,,,22.0,,,,,,,,,,,,,,,,,,,,,,,,,,,,,,,,110.5,1.0,,,,,,
124,,iti,,html-keyboard-response,124,202750,0.0-1.0-24.0-0.0-5.0,0,0,83590,,,,,,,,,,,,,,,,,,,,,,,,,,,,,,,,,,,,,,112.0,1.5,,,,,,
125,,choice,,html-keyboard-response,125,203053,0.0-1.0-25.0-0.0-0.0,0,0,83590,,299.0,,,68.0,23.0,23.0,1000.0,1500.0,0.0,1.0,0.0,40-80,,1.0,license plate,train,80.0,40.0,license plate9,train6,60.0,20.0,nm-dhg089.jpg,train9.jpg,/static/Category_learning/Stimuli/Experimental_stims/license plate/nm-dhg089.jpg,/static/Category_learning/Stimuli/Experimental_stims/train/train9.jpg,1.0,license plate,train,80.0,40.0,license plate9,train6,60.0,20.0,0.0,112.299,0.299,,,,,,
126,,confirmation,,html-keyboard-response,126,204260,0.0-1.0-25.0-0.0-1.0-0.0,0,0,83590,,,,,,23.0,,,,,,,,,,,,,,,,,,,,,,,,,,,,,,,,113.5,1.201,,,,,,
127,,isi,,html-keyboard-response,127,205267,0.0-1.0-25.0-0.0-2.0,0,0,83590,,,,,,,,,,,,,,,,,,,,,,,,,,,,,,,,,,,,,,114.5,1.0,,,,,,
128,,feedback,,html-keyboard-response,128,206275,0.0-1.0-25.0-0.0-3.0-0.0,0,0,83590,,,,,,23.0,,,,,,,,,,,,,,,,,,,,,,,,,,,,,,,,115.5,1.0,,,,,,
129,,iti,,html-keyboard-response,129,207780,0.0-1.0-25.0-0.0-5.0,0,0,83590,,,,,,,,,,,,,,,,,,,,,,,,,,,,,,,,,,,,,,117.0,1.5,,,,,,
130,,choice,,html-keyboard-response,130,207875,0.0-1.0-26.0-0.0-0.0,0,0,83590,,91.0,,,68.0,24.0,24.0,2000.0,1500.0,0.0,1.0,1.0,40-80,0.0,,trumpet,microscope,40.0,80.0,trumpet11,microscope12,20.0,60.0,JUPITER+JTR604L.jpg,usbdigitalmicroscope1_small1.jpg,/static/Category_learning/Stimuli/Experimental_stims/trumpet/JUPITER+JTR604L.jpg,/static/Category_learning/Stimuli/Experimental_stims/microscope/usbdigitalmicroscope1_small1.jpg,1.0,trumpet,microscope,40.0,80.0,trumpet11,microscope12,20.0,60.0,0.0,117.091,0.091,,,,,,
131,,confirmation,,html-keyboard-response,131,209289,0.0-1.0-26.0-0.0-1.0-0.0,0,0,83590,,,,,,24.0,,,,,,,,,,,,,,,,,,,,,,,,,,,,,,,,118.5,1.409,,,,,,
132,,isi,,html-keyboard-response,132,211293,0.0-1.0-26.0-0.0-2.0,0,0,83590,,,,,,,,,,,,,,,,,,,,,,,,,,,,,,,,,,,,,,120.5,2.0,,,,,,
133,,feedback,,html-keyboard-response,133,212302,0.0-1.0-26.0-0.0-3.0-0.0,0,0,83590,,,,,,24.0,,,,,,,,,,,,,,,,,,,,,,,,,,,,,,,,121.5,1.0,,,,,,
134,,iti,,html-keyboard-response,134,213805,0.0-1.0-26.0-0.0-5.0,0,0,83590,,,,,,,,,,,,,,,,,,,,,,,,,,,,,,,,,,,,,,123.0,1.5,,,,,,
135,,choice,,html-keyboard-response,135,214291,0.0-1.0-27.0-0.0-0.0,0,0,83590,,483.0,,,68.0,25.0,25.0,1500.0,2000.0,0.0,1.0,0.0,40-60,,0.0,trumpet,flashlight,40.0,60.0,trumpet4,flashlight2,20.0,60.0,JUPITER+JTR1000S.jpg,AV-9 No Battery Flashlight.jpg,/static/Category_learning/Stimuli/Experimental_stims/trumpet/JUPITER+JTR1000S.jpg,/static/Category_learning/Stimuli/Experimental_stims/flashlight/AV-9 No Battery Flashlight.jpg,1.0,trumpet,flashlight,40.0,60.0,trumpet4,flashlight2,20.0,60.0,0.0,123.483,0.483,,,,,,
136,,confirmation,,html-keyboard-response,136,215315,0.0-1.0-27.0-0.0-1.0-0.0,0,0,83590,,,,,,25.0,,,,,,,,,,,,,,,,,,,,,,,,,,,,,,,,124.5,1.017,,,,,,
137,,isi,,html-keyboard-response,137,216822,0.0-1.0-27.0-0.0-2.0,0,0,83590,,,,,,,,,,,,,,,,,,,,,,,,,,,,,,,,,,,,,,126.0,1.5,,,,,,
138,,feedback,,html-keyboard-response,138,217827,0.0-1.0-27.0-0.0-3.0-0.0,0,0,83590,,,,,,25.0,,,,,,,,,,,,,,,,,,,,,,,,,,,,,,,,127.0,1.0,,,,,,
139,,iti,,html-keyboard-response,139,219832,0.0-1.0-27.0-0.0-5.0,0,0,83590,,,,,,,,,,,,,,,,,,,,,,,,,,,,,,,,,,,,,,129.0,2.0,,,,,,
140,,choice,,html-keyboard-response,140,219993,0.0-1.0-28.0-0.0-0.0,0,0,83590,,157.0,,,75.0,26.0,26.0,1500.0,3000.0,0.0,1.0,0.0,40-60,,0.0,stool,bowl,40.0,60.0,stool9,bowl8,40.0,40.0,ASTOOL7.jpg,ASLVBOWL.jpg,/static/Category_learning/Stimuli/Experimental_stims/stool/ASTOOL7.jpg,/static/Category_learning/Stimuli/Experimental_stims/bowl/ASLVBOWL.jpg,0.0,bowl,stool,60.0,40.0,bowl8,stool9,40.0,40.0,0.0,129.157,0.157,,,,,,
141,,confirmation,,html-keyboard-response,141,221344,0.0-1.0-28.0-0.0-1.0-0.0,0,0,83590,,,,,,26.0,,,,,,,,,,,,,,,,,,,,,,,,,,,,,,,,130.5,1.343,,,,,,
142,,isi,,html-keyboard-response,142,222847,0.0-1.0-28.0-0.0-2.0,0,0,83590,,,,,,,,,,,,,,,,,,,,,,,,,,,,,,,,,,,,,,132.0,1.5,,,,,,
143,,feedback,,html-keyboard-response,143,223852,0.0-1.0-28.0-0.0-3.0-0.0,0,0,83590,,,,,,26.0,,,,,,,,,,,,,,,,,,,,,,,,,,,,,,,,133.0,1.0,,,,,,
144,,iti,,html-keyboard-response,144,226856,0.0-1.0-28.0-0.0-5.0,0,0,83590,,,,,,,,,,,,,,,,,,,,,,,,,,,,,,,,,,,,,,136.0,3.0,,,,,,
145,,choice,,html-keyboard-response,145,226992,0.0-1.0-29.0-0.0-0.0,0,0,83590,,131.0,,,75.0,27.0,27.0,1000.0,1000.0,0.0,1.0,0.0,80-80,,,key chain,lipstick,80.0,80.0,key chain8,lipstick5,100.0,80.0,Keychain01.jpg,P35719_hero.jpg,/static/Category_learning/Stimuli/Experimental_stims/key chain/Keychain01.jpg,/static/Category_learning/Stimuli/Experimental_stims/lipstick/P35719_hero.jpg,0.0,lipstick,key chain,80.0,80.0,lipstick5,key chain8,80.0,100.0,0.0,136.131,0.131,,,,,,
146,,confirmation,,html-keyboard-response,146,228366,0.0-1.0-29.0-0.0-1.0-0.0,0,0,83590,,,,,,27.0,,,,,,,,,,,,,,,,,,,,,,,,,,,,,,,,137.5,1.369,,,,,,
147,,isi,,html-keyboard-response,147,229374,0.0-1.0-29.0-0.0-2.0,0,0,83590,,,,,,,,,,,,,,,,,,,,,,,,,,,,,,,,,,,,,,138.5,1.0,,,,,,
148,,feedback,,html-keyboard-response,148,230383,0.0-1.0-29.0-0.0-3.0-0.0,0,0,83590,,,,,,27.0,,,,,,,,,,,,,,,,,,,,,,,,,,,,,,,,139.5,1.0,,,,,,
149,,iti,,html-keyboard-response,149,231390,0.0-1.0-29.0-0.0-5.0,0,0,83590,,,,,,,,,,,,,,,,,,,,,,,,,,,,,,,,,,,,,,140.5,1.0,,,,,,
150,,choice,,html-keyboard-response,150,231499,0.0-1.0-30.0-0.0-0.0,0,0,83590,,105.0,,,75.0,28.0,28.0,3500.0,1500.0,0.0,1.0,0.0,60-60,,,bench,desk,60.0,60.0,bench7,desk5,40.0,80.0,ACONBENCH.jpg,ADESK6.jpg,/static/Category_learning/Stimuli/Experimental_stims/bench/ACONBENCH.jpg,/static/Category_learning/Stimuli/Experimental_stims/desk/ADESK6.jpg,0.0,desk,bench,60.0,60.0,desk5,bench7,80.0,40.0,0.0,140.605,0.105,,,,,,
151,,confirmation,,html-keyboard-response,151,232900,0.0-1.0-30.0-0.0-1.0-0.0,0,0,83590,,,,,,28.0,,,,,,,,,,,,,,,,,,,,,,,,,,,,,,,,142.0,1.395,,,,,,
152,,isi,,html-keyboard-response,152,236409,0.0-1.0-30.0-0.0-2.0,0,0,83590,,,,,,,,,,,,,,,,,,,,,,,,,,,,,,,,,,,,,,145.5,3.5,,,,,,
153,,feedback,,html-keyboard-response,153,237417,0.0-1.0-30.0-0.0-3.0-0.0,0,0,83590,,,,,,28.0,,,,,,,,,,,,,,,,,,,,,,,,,,,,,,,,146.5,1.0,,,,,,
154,,iti,,html-keyboard-response,154,238923,0.0-1.0-30.0-0.0-5.0,0,0,83590,,,,,,,,,,,,,,,,,,,,,,,,,,,,,,,,,,,,,,148.0,1.5,,,,,,
155,,choice,,html-keyboard-response,155,239172,0.0-1.0-31.0-0.0-0.0,0,0,83590,,245.0,,,75.0,29.0,29.0,2000.0,1000.0,0.0,1.0,1.0,60-60,0.0,,bench,desk,60.0,60.0,bench8,desk5,80.0,80.0,APARKBE14.jpg,ADESK6.jpg,/static/Category_learning/Stimuli/Experimental_stims/bench/APARKBE14.jpg,/static/Category_learning/Stimuli/Experimental_stims/desk/ADESK6.jpg,0.0,desk,bench,60.0,60.0,desk5,bench8,80.0,80.0,0.0,148.245,0.245,,,,,,
156,,confirmation,,html-keyboard-response,156,240431,0.0-1.0-31.0-0.0-1.0-0.0,0,0,83590,,,,,,29.0,,,,,,,,,,,,,,,,,,,,,,,,,,,,,,,,149.5,1.255,,,,,,
157,,isi,,html-keyboard-response,157,242435,0.0-1.0-31.0-0.0-2.0,0,0,83590,,,,,,,,,,,,,,,,,,,,,,,,,,,,,,,,,,,,,,151.5,2.0,,,,,,
158,,feedback,,html-keyboard-response,158,243443,0.0-1.0-31.0-0.0-3.0-0.0,0,0,83590,,,,,,29.0,,,,,,,,,,,,,,,,,,,,,,,,,,,,,,,,152.5,1.0,,,,,,
159,,iti,,html-keyboard-response,159,244451,0.0-1.0-31.0-0.0-5.0,0,0,83590,,,,,,,,,,,,,,,,,,,,,,,,,,,,,,,,,,,,,,153.5,1.0,,,,,,
160,,choice,,html-keyboard-response,160,244841,0.0-1.0-32.0-0.0-0.0,0,0,83590,,386.0,,,75.0,30.0,30.0,2000.0,3500.0,0.0,1.0,0.0,40-60,,0.0,stool,dresser,40.0,60.0,stool10,dresser12,60.0,60.0,ASTOOL26.jpg,ADRESSE58.jpg,/static/Category_learning/Stimuli/Experimental_stims/stool/ASTOOL26.jpg,/static/Category_learning/Stimuli/Experimental_stims/dresser/ADRESSE58.jpg,0.0,dresser,stool,60.0,40.0,dresser12,stool10,60.0,60.0,0.0,153.886,0.386,,,,,,
161,,confirmation,,html-keyboard-response,161,245961,0.0-1.0-32.0-0.0-1.0-0.0,0,0,83590,,,,,,30.0,,,,,,,,,,,,,,,,,,,,,,,,,,,,,,,,155.0,1.114,,,,,,
162,,isi,,html-keyboard-response,162,247969,0.0-1.0-32.0-0.0-2.0,0,0,83590,,,,,,,,,,,,,,,,,,,,,,,,,,,,,,,,,,,,,,157.0,2.0,,,,,,
163,,feedback,,html-keyboard-response,163,248974,0.0-1.0-32.0-0.0-3.0-0.0,0,0,83590,,,,,,30.0,,,,,,,,,,,,,,,,,,,,,,,,,,,,,,,,158.0,1.0,,,,,,
164,,iti,,html-keyboard-response,164,252480,0.0-1.0-32.0-0.0-5.0,0,0,83590,,,,,,,,,,,,,,,,,,,,,,,,,,,,,,,,,,,,,,161.5,3.5,,,,,,
165,,choice,,html-keyboard-response,165,252627,0.0-1.0-33.0-0.0-0.0,0,0,83590,,142.0,,,75.0,31.0,31.0,2000.0,2000.0,0.0,1.0,1.0,20-60,0.0,,power strip,bowl,20.0,60.0,power strip8,bowl8,40.0,40.0,3118YGHQWXL._AA262_.jpg,ASLVBOWL.jpg,/static/Category_learning/Stimuli/Experimental_stims/power strip/3118YGHQWXL._AA262_.jpg,/static/Category_learning/Stimuli/Experimental_stims/bowl/ASLVBOWL.jpg,0.0,bowl,power strip,60.0,20.0,bowl8,power strip8,40.0,40.0,0.0,161.642,0.142,,,,,,
166,,confirmation,,html-keyboard-response,166,253993,0.0-1.0-33.0-0.0-1.0-0.0,0,0,83590,,,,,,31.0,,,,,,,,,,,,,,,,,,,,,,,,,,,,,,,,163.0,1.358,,,,,,
167,,isi,,html-keyboard-response,167,256001,0.0-1.0-33.0-0.0-2.0,0,0,83590,,,,,,,,,,,,,,,,,,,,,,,,,,,,,,,,,,,,,,165.0,2.0,,,,,,
168,,feedback,,html-keyboard-response,168,257006,0.0-1.0-33.0-0.0-3.0-0.0,0,0,83590,,,,,,31.0,,,,,,,,,,,,,,,,,,,,,,,,,,,,,,,,166.0,1.0,,,,,,
169,,iti,,html-keyboard-response,169,259011,0.0-1.0-33.0-0.0-5.0,0,0,83590,,,,,,,,,,,,,,,,,,,,,,,,,,,,,,,,,,,,,,168.0,2.0,,,,,,
170,,choice,,html-keyboard-response,170,259290,0.0-1.0-34.0-0.0-0.0,0,0,83590,,273.0,,,75.0,32.0,32.0,1500.0,2000.0,0.0,1.0,0.0,40-40,,,stool,tape,40.0,40.0,stool8,tape9,60.0,40.0,ASTOOL33.jpg,desk tape disp.jpg,/static/Category_learning/Stimuli/Experimental_stims/stool/ASTOOL33.jpg,/static/Category_learning/Stimuli/Experimental_stims/tape/desk tape disp.jpg,0.0,tape,stool,40.0,40.0,tape9,stool8,40.0,60.0,0.0,168.273,0.273,,,,,,
171,,confirmation,,html-keyboard-response,171,260523,0.0-1.0-34.0-0.0-1.0-0.0,0,0,83590,,,,,,32.0,,,,,,,,,,,,,,,,,,,,,,,,,,,,,,,,169.5,1.227,,,,,,
172,,isi,,html-keyboard-response,172,262027,0.0-1.0-34.0-0.0-2.0,0,0,83590,,,,,,,,,,,,,,,,,,,,,,,,,,,,,,,,,,,,,,171.0,1.5,,,,,,
173,,feedback,,html-keyboard-response,173,263033,0.0-1.0-34.0-0.0-3.0-0.0,0,0,83590,,,,,,32.0,,,,,,,,,,,,,,,,,,,,,,,,,,,,,,,,172.0,1.0,,,,,,
174,,iti,,html-keyboard-response,174,265040,0.0-1.0-34.0-0.0-5.0,0,0,83590,,,,,,,,,,,,,,,,,,,,,,,,,,,,,,,,,,,,,,174.0,2.0,,,,,,
175,,choice,,html-keyboard-response,175,265512,0.0-1.0-35.0-0.0-0.0,0,0,83590,,468.0,,,75.0,33.0,33.0,1000.0,3000.0,0.0,1.0,0.0,40-40,,,yarn,tent,40.0,40.0,yarn10,tent5,60.0,60.0,revelation-yarn.jpg,Dome Tentnb87r67.jpg,/static/Category_learning/Stimuli/Experimental_stims/yarn/revelation-yarn.jpg,/static/Category_learning/Stimuli/Experimental_stims/tent/Dome Tentnb87r67.jpg,0.0,tent,yarn,40.0,40.0,tent5,yarn10,60.0,60.0,0.0,174.468,0.468,,,,,,
176,,confirmation,,html-keyboard-response,176,266553,0.0-1.0-35.0-0.0-1.0-0.0,0,0,83590,,,,,,33.0,,,,,,,,,,,,,,,,,,,,,,,,,,,,,,,,175.5,1.032,,,,,,
177,,isi,,html-keyboard-response,177,267560,0.0-1.0-35.0-0.0-2.0,0,0,83590,,,,,,,,,,,,,,,,,,,,,,,,,,,,,,,,,,,,,,176.5,1.0,,,,,,
178,,feedback,,html-keyboard-response,178,268569,0.0-1.0-35.0-0.0-3.0-0.0,0,0,83590,,,,,,33.0,,,,,,,,,,,,,,,,,,,,,,,,,,,,,,,,177.5,1.0,,,,,,
179,,iti,,html-keyboard-response,179,271577,0.0-1.0-35.0-0.0-5.0,0,0,83590,,,,,,,,,,,,,,,,,,,,,,,,,,,,,,,,,,,,,,180.5,3.0,,,,,,
180,,choice,,html-keyboard-response,180,272502,0.0-1.0-36.0-0.0-0.0,0,0,83590,,921.0,,,75.0,34.0,34.0,1000.0,1500.0,0.0,1.0,0.0,20-20,,,pen,nail polish,20.0,20.0,pen2,nail polish3,20.0,40.0,Montblanc-Blu-Starwalker-BP copy.jpg,327636.jpg,/static/Category_learning/Stimuli/Experimental_stims/pen/Montblanc-Blu-Starwalker-BP copy.jpg,/static/Category_learning/Stimuli/Experimental_stims/nail polish/327636.jpg,0.0,nail polish,pen,20.0,20.0,nail polish3,pen2,40.0,20.0,0.0,181.421,0.921,,,,,,
181,,confirmation,,html-keyboard-response,181,273090,0.0-1.0-36.0-0.0-1.0-0.0,0,0,83590,,,,,,34.0,,,,,,,,,,,,,,,,,,,,,,,,,,,,,,,,182.0,0.579,,,,,,
182,,isi,,html-keyboard-response,182,274096,0.0-1.0-36.0-0.0-2.0,0,0,83590,,,,,,,,,,,,,,,,,,,,,,,,,,,,,,,,,,,,,,183.0,1.0,,,,,,
183,,feedback,,html-keyboard-response,183,275102,0.0-1.0-36.0-0.0-3.0-0.0,0,0,83590,,,,,,34.0,,,,,,,,,,,,,,,,,,,,,,,,,,,,,,,,184.0,1.0,,,,,,
184,,iti,,html-keyboard-response,184,276606,0.0-1.0-36.0-0.0-5.0,0,0,83590,,,,,,,,,,,,,,,,,,,,,,,,,,,,,,,,,,,,,,185.5,1.5,,,,,,
185,,choice,,html-keyboard-response,185,277075,0.0-1.0-37.0-0.0-0.0,0,0,83590,,466.0,,,75.0,35.0,35.0,1500.0,1000.0,0.0,1.0,0.0,40-60,,0.0,stool,dresser,40.0,60.0,stool2,dresser14,20.0,60.0,ASTOOL46.jpg,Adressertabl3.jpg,/static/Category_learning/Stimuli/Experimental_stims/stool/ASTOOL46.jpg,/static/Category_learning/Stimuli/Experimental_stims/dresser/Adressertabl3.jpg,0.0,dresser,stool,60.0,40.0,dresser14,stool2,60.0,20.0,0.0,185.966,0.466,,,,,,
186,,confirmation,,html-keyboard-response,186,278115,0.0-1.0-37.0-0.0-1.0-0.0,0,0,83590,,,,,,35.0,,,,,,,,,,,,,,,,,,,,,,,,,,,,,,,,187.0,1.034,,,,,,
187,,isi,,html-keyboard-response,187,279622,0.0-1.0-37.0-0.0-2.0,0,0,83590,,,,,,,,,,,,,,,,,,,,,,,,,,,,,,,,,,,,,,188.5,1.5,,,,,,
188,,feedback,,html-keyboard-response,188,280628,0.0-1.0-37.0-0.0-3.0-0.0,0,0,83590,,,,,,35.0,,,,,,,,,,,,,,,,,,,,,,,,,,,,,,,,189.5,1.0,,,,,,
189,,iti,,html-keyboard-response,189,281634,0.0-1.0-37.0-0.0-5.0,0,0,83590,,,,,,,,,,,,,,,,,,,,,,,,,,,,,,,,,,,,,,190.5,1.0,,,,,,
190,,choice,,html-keyboard-response,190,283143,0.0-1.0-38.0-0.0-0.0,0,0,83590,,,,,,36.0,36.0,1500.0,1000.0,0.0,1.0,0.0,20-80,,0.0,necklace,motorcycle,20.0,80.0,necklace2,motorcycle2,20.0,100.0,Anecklace7.jpg,motorcycle33.jpg,/static/Category_learning/Stimuli/Experimental_stims/necklace/Anecklace7.jpg,/static/Category_learning/Stimuli/Experimental_stims/motorcycle/motorcycle33.jpg,,,,,,,,,,1.0,192.0,1.5,,,,,,
191,,isi,,html-keyboard-response,191,284647,0.0-1.0-38.0-0.0-2.0,0,0,83590,,,,,,,,,,,,,,,,,,,,,,,,,,,,,,,,,,,,,,193.5,1.5,,,,,,
192,,no_response,,html-keyboard-response,192,285651,0.0-1.0-38.0-0.0-4.0-0.0,0,0,83590,,,,,,,,,,,,,,,,,,,,,,,,,,,,,,,,,,,,,,194.5,1.0,,,,,,
193,,iti,,html-keyboard-response,193,286672,0.0-1.0-38.0-0.0-5.0,0,0,83590,,,,,,,,,,,,,,,,,,,,,,,,,,,,,,,,,,,,,,195.5,1.0,,,,,,
194,,choice,,html-keyboard-response,194,286766,0.0-1.0-38.0-0.1-0.1,0,0,83590,,91.0,,,75.0,36.0,36.0,1500.0,1000.0,0.0,1.0,0.0,20-80,,0.0,necklace,motorcycle,20.0,80.0,necklace2,motorcycle2,20.0,100.0,Anecklace7.jpg,motorcycle33.jpg,/static/Category_learning/Stimuli/Experimental_stims/necklace/Anecklace7.jpg,/static/Category_learning/Stimuli/Experimental_stims/motorcycle/motorcycle33.jpg,0.0,motorcycle,necklace,80.0,20.0,motorcycle2,necklace2,100.0,20.0,0.0,195.591,0.091,,,,,,
195,,confirmation,,html-keyboard-response,195,288184,0.0-1.0-38.0-0.1-1.1-0.1,0,0,83590,,,,,,36.0,,,,,,,,,,,,,,,,,,,,,,,,,,,,,,,,197.0,1.409,,,,,,
196,,isi,,html-keyboard-response,196,289192,0.0-1.0-38.0-0.1-2.1,0,0,83590,,,,,,,,,,,,,,,,,,,,,,,,,,,,,,,,,,,,,,198.0,1.0,,,,,,
197,,feedback,,html-keyboard-response,197,290200,0.0-1.0-38.0-0.1-3.1-0.1,0,0,83590,,,,,,36.0,,,,,,,,,,,,,,,,,,,,,,,,,,,,,,,,199.0,1.0,,,,,,
198,,iti,,html-keyboard-response,198,292204,0.0-1.0-38.0-0.1-5.1,0,0,83590,,,,,,,,,,,,,,,,,,,,,,,,,,,,,,,,,,,,,,201.0,2.0,,,,,,
199,,choice,,html-keyboard-response,199,292290,0.0-1.0-39.0-0.0-0.0,0,0,83590,,83.0,,,75.0,37.0,37.0,1000.0,1000.0,0.0,1.0,1.0,60-60,1.0,,dresser,dresser,60.0,60.0,dresser14,dresser12,60.0,60.0,Adressertabl3.jpg,ADRESSE58.jpg,/static/Category_learning/Stimuli/Experimental_stims/dresser/Adressertabl3.jpg,/static/Category_learning/Stimuli/Experimental_stims/dresser/ADRESSE58.jpg,0.0,dresser,dresser,60.0,60.0,dresser12,dresser14,60.0,60.0,0.0,201.083,0.083,,,,,,
200,,confirmation,,html-keyboard-response,200,293714,0.0-1.0-39.0-0.0-1.0-0.0,0,0,83590,,,,,,37.0,,,,,,,,,,,,,,,,,,,,,,,,,,,,,,,,202.5,1.417,,,,,,
201,,isi,,html-keyboard-response,201,294721,0.0-1.0-39.0-0.0-2.0,0,0,83590,,,,,,,,,,,,,,,,,,,,,,,,,,,,,,,,,,,,,,203.5,1.0,,,,,,
202,,feedback,,html-keyboard-response,202,295728,0.0-1.0-39.0-0.0-3.0-0.0,0,0,83590,,,,,,37.0,,,,,,,,,,,,,,,,,,,,,,,,,,,,,,,,204.5,1.0,,,,,,
203,,iti,,html-keyboard-response,203,296737,0.0-1.0-39.0-0.0-5.0,0,0,83590,,,,,,,,,,,,,,,,,,,,,,,,,,,,,,,,,,,,,,205.5,1.0,,,,,,
204,,choice,,html-keyboard-response,204,297123,0.0-1.0-40.0-0.0-0.0,0,0,83590,,382.0,,,75.0,38.0,38.0,3000.0,1000.0,0.0,1.0,0.0,20-60,,0.0,sofa,bongo,20.0,60.0,sofa9,bongo12,20.0,40.0,ALOVSEAT9.jpg,26686609.thl.jpg,/static/Category_learning/Stimuli/Experimental_stims/sofa/ALOVSEAT9.jpg,/static/Category_learning/Stimuli/Experimental_stims/bongo/26686609.thl.jpg,0.0,bongo,sofa,60.0,20.0,bongo12,sofa9,40.0,20.0,0.0,205.882,0.382,,,,,,
205,,confirmation,,html-keyboard-response,205,298248,0.0-1.0-40.0-0.0-1.0-0.0,0,0,83590,,,,,,38.0,,,,,,,,,,,,,,,,,,,,,,,,,,,,,,,,207.0,1.118,,,,,,
206,,isi,,html-keyboard-response,206,301256,0.0-1.0-40.0-0.0-2.0,0,0,83590,,,,,,,,,,,,,,,,,,,,,,,,,,,,,,,,,,,,,,210.0,3.0,,,,,,
207,,feedback,,html-keyboard-response,207,302264,0.0-1.0-40.0-0.0-3.0-0.0,0,0,83590,,,,,,38.0,,,,,,,,,,,,,,,,,,,,,,,,,,,,,,,,211.0,1.0,,,,,,
208,,iti,,html-keyboard-response,208,303269,0.0-1.0-40.0-0.0-5.0,0,0,83590,,,,,,,,,,,,,,,,,,,,,,,,,,,,,,,,,,,,,,212.0,1.0,,,,,,
209,,choice,,html-keyboard-response,209,303510,0.0-1.0-41.0-0.0-0.0,0,0,83590,,236.0,,,75.0,39.0,39.0,3000.0,3000.0,0.0,1.0,0.0,20-20,,,patio lounge chair,seashell,20.0,20.0,patio lounge chair14,seashell13,40.0,0.0,2987951.jpg,coquillage22.jpg,/static/Category_learning/Stimuli/Experimental_stims/patio lounge chair/2987951.jpg,/static/Category_learning/Stimuli/Experimental_stims/seashell/coquillage22.jpg,0.0,seashell,patio lounge chair,20.0,20.0,seashell13,patio lounge chair14,0.0,40.0,0.0,212.236,0.236,,,,,,
210,,confirmation,,html-keyboard-response,210,304782,0.0-1.0-41.0-0.0-1.0-0.0,0,0,83590,,,,,,39.0,,,,,,,,,,,,,,,,,,,,,,,,,,,,,,,,213.5,1.264,,,,,,
211,,isi,,html-keyboard-response,211,307789,0.0-1.0-41.0-0.0-2.0,0,0,83590,,,,,,,,,,,,,,,,,,,,,,,,,,,,,,,,,,,,,,216.5,3.0,,,,,,
212,,feedback,,html-keyboard-response,212,308798,0.0-1.0-41.0-0.0-3.0-0.0,0,0,83590,,,,,,39.0,,,,,,,,,,,,,,,,,,,,,,,,,,,,,,,,217.5,1.0,,,,,,
213,,iti,,html-keyboard-response,213,311804,0.0-1.0-41.0-0.0-5.0,0,0,83590,,,,,,,,,,,,,,,,,,,,,,,,,,,,,,,,,,,,,,220.5,3.0,,,,,,
214,,choice,,html-keyboard-response,214,312030,0.0-1.0-42.0-0.0-0.0,0,0,83590,,221.0,,,75.0,40.0,40.0,2000.0,2000.0,0.0,1.0,0.0,60-80,,1.0,makeup compact,flashlight,80.0,60.0,makeup compact9,flashlight10,100.0,80.0,b_102019.jpg,834784_sk_lg.jpg,/static/Category_learning/Stimuli/Experimental_stims/makeup compact/b_102019.jpg,/static/Category_learning/Stimuli/Experimental_stims/flashlight/834784_sk_lg.jpg,0.0,flashlight,makeup compact,60.0,80.0,flashlight10,makeup compact9,80.0,100.0,0.0,220.721,0.221,,,,,,
215,,confirmation,,html-keyboard-response,215,313318,0.0-1.0-42.0-0.0-1.0-0.0,0,0,83590,,,,,,40.0,,,,,,,,,,,,,,,,,,,,,,,,,,,,,,,,222.0,1.279,,,,,,
216,,isi,,html-keyboard-response,216,315326,0.0-1.0-42.0-0.0-2.0,0,0,83590,,,,,,,,,,,,,,,,,,,,,,,,,,,,,,,,,,,,,,224.0,2.0,,,,,,
217,,feedback,,html-keyboard-response,217,316333,0.0-1.0-42.0-0.0-3.0-0.0,0,0,83590,,,,,,40.0,,,,,,,,,,,,,,,,,,,,,,,,,,,,,,,,225.0,1.0,,,,,,
218,,iti,,html-keyboard-response,218,318338,0.0-1.0-42.0-0.0-5.0,0,0,83590,,,,,,,,,,,,,,,,,,,,,,,,,,,,,,,,,,,,,,227.0,2.0,,,,,,
219,,choice,,html-keyboard-response,219,319557,0.0-1.0-43.0-0.0-0.0,0,0,83590,,1215.0,,,68.0,41.0,41.0,2000.0,1000.0,0.0,1.0,1.0,20-60,0.0,,seashell,bongo,20.0,60.0,seashell13,bongo12,0.0,40.0,coquillage22.jpg,26686609.thl.jpg,/static/Category_learning/Stimuli/Experimental_stims/seashell/coquillage22.jpg,/static/Category_learning/Stimuli/Experimental_stims/bongo/26686609.thl.jpg,1.0,seashell,bongo,20.0,60.0,seashell13,bongo12,0.0,40.0,0.0,228.215,1.215,,,,,,
220,,confirmation,,html-keyboard-response,220,319848,0.0-1.0-43.0-0.0-1.0-0.0,0,0,83590,,,,,,41.0,,,,,,,,,,,,,,,,,,,,,,,,,,,,,,,,228.5,0.285,,,,,,
221,,isi,,html-keyboard-response,221,321853,0.0-1.0-43.0-0.0-2.0,0,0,83590,,,,,,,,,,,,,,,,,,,,,,,,,,,,,,,,,,,,,,230.5,2.0,,,,,,
222,,feedback,,html-keyboard-response,222,322861,0.0-1.0-43.0-0.0-3.0-0.0,0,0,83590,,,,,,41.0,,,,,,,,,,,,,,,,,,,,,,,,,,,,,,,,231.5,1.0,,,,,,
223,,iti,,html-keyboard-response,223,323869,0.0-1.0-43.0-0.0-5.0,0,0,83590,,,,,,,,,,,,,,,,,,,,,,,,,,,,,,,,,,,,,,232.5,1.0,,,,,,
224,,choice,,html-keyboard-response,224,324717,0.0-1.0-44.0-0.0-0.0,0,0,83590,,844.0,,,68.0,42.0,42.0,1000.0,1500.0,0.0,1.0,0.0,40-80,,1.0,makeup compact,trumpet,80.0,40.0,makeup compact6,trumpet13,80.0,40.0,P0754_hero.jpg,JUPITER+JTR1600GS.jpg,/static/Category_learning/Stimuli/Experimental_stims/makeup compact/P0754_hero.jpg,/static/Category_learning/Stimuli/Experimental_stims/trumpet/JUPITER+JTR1600GS.jpg,1.0,makeup compact,trumpet,80.0,40.0,makeup compact6,trumpet13,80.0,40.0,0.0,233.344,0.844,,,,,,
225,,confirmation,,html-keyboard-response,225,325380,0.0-1.0-44.0-0.0-1.0-0.0,0,0,83590,,,,,,42.0,,,,,,,,,,,,,,,,,,,,,,,,,,,,,,,,234.0,0.656,,,,,,
226,,isi,,html-keyboard-response,226,326389,0.0-1.0-44.0-0.0-2.0,0,0,83590,,,,,,,,,,,,,,,,,,,,,,,,,,,,,,,,,,,,,,235.0,1.0,,,,,,
227,,feedback,,html-keyboard-response,227,327398,0.0-1.0-44.0-0.0-3.0-0.0,0,0,83590,,,,,,42.0,,,,,,,,,,,,,,,,,,,,,,,,,,,,,,,,236.0,1.0,,,,,,
228,,iti,,html-keyboard-response,228,328906,0.0-1.0-44.0-0.0-5.0,0,0,83590,,,,,,,,,,,,,,,,,,,,,,,,,,,,,,,,,,,,,,237.5,1.5,,,,,,
229,,choice,,html-keyboard-response,229,329408,0.0-1.0-45.0-0.0-0.0,0,0,83590,,498.0,,,68.0,43.0,43.0,1000.0,2000.0,0.0,1.0,0.0,80-80,,,hat,makeup compact,80.0,80.0,hat2,makeup compact10,100.0,60.0,Ahatwithfeat7.jpg,P95108_hero.jpg,/static/Category_learning/Stimuli/Experimental_stims/hat/Ahatwithfeat7.jpg,/static/Category_learning/Stimuli/Experimental_stims/makeup compact/P95108_hero.jpg,1.0,hat,makeup compact,80.0,80.0,hat2,makeup compact10,100.0,60.0,0.0,237.998,0.498,,,,,,
230,,confirmation,,html-keyboard-response,230,330418,0.0-1.0-45.0-0.0-1.0-0.0,0,0,83590,,,,,,43.0,,,,,,,,,,,,,,,,,,,,,,,,,,,,,,,,239.0,1.002,,,,,,
231,,isi,,html-keyboard-response,231,331426,0.0-1.0-45.0-0.0-2.0,0,0,83590,,,,,,,,,,,,,,,,,,,,,,,,,,,,,,,,,,,,,,240.0,1.0,,,,,,
232,,feedback,,html-keyboard-response,232,332434,0.0-1.0-45.0-0.0-3.0-0.0,0,0,83590,,,,,,43.0,,,,,,,,,,,,,,,,,,,,,,,,,,,,,,,,241.0,1.0,,,,,,
233,,iti,,html-keyboard-response,233,334442,0.0-1.0-45.0-0.0-5.0,0,0,83590,,,,,,,,,,,,,,,,,,,,,,,,,,,,,,,,,,,,,,243.0,2.0,,,,,,
234,,choice,,html-keyboard-response,234,334850,0.0-1.0-46.0-0.0-0.0,0,0,83590,,404.0,,,68.0,44.0,44.0,1500.0,1500.0,0.0,1.0,0.0,40-60,,1.0,fan,tent,60.0,40.0,fan1,tent4,80.0,40.0,01393.fpx.jpg,Atent12.jpg,/static/Category_learning/Stimuli/Experimental_stims/fan/01393.fpx.jpg,/static/Category_learning/Stimuli/Experimental_stims/tent/Atent12.jpg,1.0,fan,tent,60.0,40.0,fan1,tent4,80.0,40.0,0.0,243.404,0.404,,,,,,
235,,confirmation,,html-keyboard-response,235,335955,0.0-1.0-46.0-0.0-1.0-0.0,0,0,83590,,,,,,44.0,,,,,,,,,,,,,,,,,,,,,,,,,,,,,,,,244.5,1.096,,,,,,
236,,isi,,html-keyboard-response,236,337459,0.0-1.0-46.0-0.0-2.0,0,0,83590,,,,,,,,,,,,,,,,,,,,,,,,,,,,,,,,,,,,,,246.0,1.5,,,,,,
237,,feedback,,html-keyboard-response,237,338464,0.0-1.0-46.0-0.0-3.0-0.0,0,0,83590,,,,,,44.0,,,,,,,,,,,,,,,,,,,,,,,,,,,,,,,,247.0,1.0,,,,,,
238,,iti,,html-keyboard-response,238,339971,0.0-1.0-46.0-0.0-5.0,0,0,83590,,,,,,,,,,,,,,,,,,,,,,,,,,,,,,,,,,,,,,248.5,1.5,,,,,,
239,,choice,,html-keyboard-response,239,340023,0.0-1.0-47.0-0.0-0.0,0,0,83590,,47.0,,,68.0,45.0,45.0,2000.0,3500.0,0.0,1.0,1.0,60-60,1.0,,fan,fan,60.0,60.0,fan6,fan1,60.0,80.0,30090.fpx.jpg,01393.fpx.jpg,/static/Category_learning/Stimuli/Experimental_stims/fan/30090.fpx.jpg,/static/Category_learning/Stimuli/Experimental_stims/fan/01393.fpx.jpg,1.0,fan,fan,60.0,60.0,fan6,fan1,60.0,80.0,0.0,248.547,0.047,,,,,,
240,,confirmation,,html-keyboard-response,240,341484,0.0-1.0-47.0-0.0-1.0-0.0,0,0,83590,,,,,,45.0,,,,,,,,,,,,,,,,,,,,,,,,,,,,,,,,250.0,1.453,,,,,,
241,,isi,,html-keyboard-response,241,343490,0.0-1.0-47.0-0.0-2.0,0,0,83590,,,,,,,,,,,,,,,,,,,,,,,,,,,,,,,,,,,,,,252.0,2.0,,,,,,
242,,feedback,,html-keyboard-response,242,344499,0.0-1.0-47.0-0.0-3.0-0.0,0,0,83590,,,,,,45.0,,,,,,,,,,,,,,,,,,,,,,,,,,,,,,,,253.0,1.0,,,,,,
243,,iti,,html-keyboard-response,243,348006,0.0-1.0-47.0-0.0-5.0,0,0,83590,,,,,,,,,,,,,,,,,,,,,,,,,,,,,,,,,,,,,,256.5,3.5,,,,,,
244,,choice,,html-keyboard-response,244,348313,0.0-1.0-48.0-0.0-0.0,0,0,83590,,303.0,,,68.0,46.0,46.0,2000.0,1500.0,0.0,1.0,0.0,40-80,,0.0,yarn,lipstick,40.0,80.0,yarn8,lipstick9,60.0,100.0,smonlineyarn-285x250.jpg,P189145_hero.jpg,/static/Category_learning/Stimuli/Experimental_stims/yarn/smonlineyarn-285x250.jpg,/static/Category_learning/Stimuli/Experimental_stims/lipstick/P189145_hero.jpg,1.0,yarn,lipstick,40.0,80.0,yarn8,lipstick9,60.0,100.0,0.0,256.803,0.303,,,,,,
245,,confirmation,,html-keyboard-response,245,349519,0.0-1.0-48.0-0.0-1.0-0.0,0,0,83590,,,,,,46.0,,,,,,,,,,,,,,,,,,,,,,,,,,,,,,,,258.0,1.197,,,,,,
246,,isi,,html-keyboard-response,246,351527,0.0-1.0-48.0-0.0-2.0,0,0,83590,,,,,,,,,,,,,,,,,,,,,,,,,,,,,,,,,,,,,,260.0,2.0,,,,,,
247,,feedback,,html-keyboard-response,247,352536,0.0-1.0-48.0-0.0-3.0-0.0,0,0,83590,,,,,,46.0,,,,,,,,,,,,,,,,,,,,,,,,,,,,,,,,261.0,1.0,,,,,,
248,,iti,,html-keyboard-response,248,354039,0.0-1.0-48.0-0.0-5.0,0,0,83590,,,,,,,,,,,,,,,,,,,,,,,,,,,,,,,,,,,,,,262.5,1.5,,,,,,
249,,choice,,html-keyboard-response,249,354425,0.0-1.0-49.0-0.0-0.0,0,0,83590,,383.0,,,68.0,47.0,47.0,1000.0,1000.0,0.0,1.0,1.0,20-60,0.0,,nail polish,baby carriage,20.0,60.0,nail polish3,baby carriage5,40.0,80.0,327636.jpg,Baby_Stroller.jpg,/static/Category_learning/Stimuli/Experimental_stims/nail polish/327636.jpg,/static/Category_learning/Stimuli/Experimental_stims/baby carriage/Baby_Stroller.jpg,1.0,nail polish,baby carriage,20.0,60.0,nail polish3,baby carriage5,40.0,80.0,0.0,262.883,0.383,,,,,,
250,,confirmation,,html-keyboard-response,250,355551,0.0-1.0-49.0-0.0-1.0-0.0,0,0,83590,,,,,,47.0,,,,,,,,,,,,,,,,,,,,,,,,,,,,,,,,264.0,1.117,,,,,,
251,,isi,,html-keyboard-response,251,356557,0.0-1.0-49.0-0.0-2.0,0,0,83590,,,,,,,,,,,,,,,,,,,,,,,,,,,,,,,,,,,,,,265.0,1.0,,,,,,
252,,feedback,,html-keyboard-response,252,357565,0.0-1.0-49.0-0.0-3.0-0.0,0,0,83590,,,,,,47.0,,,,,,,,,,,,,,,,,,,,,,,,,,,,,,,,266.0,1.0,,,,,,
253,,iti,,html-keyboard-response,253,358572,0.0-1.0-49.0-0.0-5.0,0,0,83590,,,,,,,,,,,,,,,,,,,,,,,,,,,,,,,,,,,,,,267.0,1.0,,,,,,
254,,choice,,html-keyboard-response,254,358625,0.0-1.0-50.0-0.0-0.0,0,0,83590,,48.0,,,68.0,48.0,48.0,1500.0,1000.0,0.0,1.0,0.0,40-60,,0.0,train,flashlight,40.0,60.0,train8,flashlight12,40.0,60.0,PL51190.jpg,new05.jpg,/static/Category_learning/Stimuli/Experimental_stims/train/PL51190.jpg,/static/Category_learning/Stimuli/Experimental_stims/flashlight/new05.jpg,1.0,train,flashlight,40.0,60.0,train8,flashlight12,40.0,60.0,0.0,267.048,0.048,,,,,,
255,,confirmation,,html-keyboard-response,255,360082,0.0-1.0-50.0-0.0-1.0-0.0,0,0,83590,,,,,,48.0,,,,,,,,,,,,,,,,,,,,,,,,,,,,,,,,268.5,1.452,,,,,,
256,,isi,,html-keyboard-response,256,361587,0.0-1.0-50.0-0.0-2.0,0,0,83590,,,,,,,,,,,,,,,,,,,,,,,,,,,,,,,,,,,,,,270.0,1.5,,,,,,
257,,feedback,,html-keyboard-response,257,362594,0.0-1.0-50.0-0.0-3.0-0.0,0,0,83590,,,,,,48.0,,,,,,,,,,,,,,,,,,,,,,,,,,,,,,,,271.0,1.0,,,,,,
258,,iti,,html-keyboard-response,258,363602,0.0-1.0-50.0-0.0-5.0,0,0,83590,,,,,,,,,,,,,,,,,,,,,,,,,,,,,,,,,,,,,,272.0,1.0,,,,,,
259,,choice,,html-keyboard-response,259,364127,0.0-1.0-51.0-0.0-0.0,0,0,83590,,521.0,,,68.0,49.0,49.0,1000.0,1000.0,0.0,1.0,1.0,60-80,0.0,,motorcycle,flashlight,80.0,60.0,motorcycle2,flashlight10,100.0,80.0,motorcycle33.jpg,834784_sk_lg.jpg,/static/Category_learning/Stimuli/Experimental_stims/motorcycle/motorcycle33.jpg,/static/Category_learning/Stimuli/Experimental_stims/flashlight/834784_sk_lg.jpg,1.0,motorcycle,flashlight,80.0,60.0,motorcycle2,flashlight10,100.0,80.0,0.0,272.521,0.521,,,,,,
260,,confirmation,,html-keyboard-response,260,365111,0.0-1.0-51.0-0.0-1.0-0.0,0,0,83590,,,,,,49.0,,,,,,,,,,,,,,,,,,,,,,,,,,,,,,,,273.5,0.979,,,,,,
261,,isi,,html-keyboard-response,261,366119,0.0-1.0-51.0-0.0-2.0,0,0,83590,,,,,,,,,,,,,,,,,,,,,,,,,,,,,,,,,,,,,,274.5,1.0,,,,,,
262,,feedback,,html-keyboard-response,262,367128,0.0-1.0-51.0-0.0-3.0-0.0,0,0,83590,,,,,,49.0,,,,,,,,,,,,,,,,,,,,,,,,,,,,,,,,275.5,1.0,,,,,,
263,,iti,,html-keyboard-response,263,368133,0.0-1.0-51.0-0.0-5.0,0,0,83590,,,,,,,,,,,,,,,,,,,,,,,,,,,,,,,,,,,,,,276.5,1.0,,,,,,
264,,choice,,html-keyboard-response,264,368900,0.0-1.0-52.0-0.0-0.0,0,0,83590,,764.0,,,68.0,50.0,50.0,1000.0,2000.0,0.0,1.0,0.0,20-80,,1.0,lipstick,sofa,80.0,20.0,lipstick13,sofa8,60.0,20.0,P184708_hero.jpg,allegro-leather-sofa-med2.jpg,/static/Category_learning/Stimuli/Experimental_stims/lipstick/P184708_hero.jpg,/static/Category_learning/Stimuli/Experimental_stims/sofa/allegro-leather-sofa-med2.jpg,1.0,lipstick,sofa,80.0,20.0,lipstick13,sofa8,60.0,20.0,0.0,277.264,0.764,,,,,,
265,,confirmation,,html-keyboard-response,265,369641,0.0-1.0-52.0-0.0-1.0-0.0,0,0,83590,,,,,,50.0,,,,,,,,,,,,,,,,,,,,,,,,,,,,,,,,278.0,0.736,,,,,,
266,,isi,,html-keyboard-response,266,370648,0.0-1.0-52.0-0.0-2.0,0,0,83590,,,,,,,,,,,,,,,,,,,,,,,,,,,,,,,,,,,,,,279.0,1.0,,,,,,
267,,feedback,,html-keyboard-response,267,371656,0.0-1.0-52.0-0.0-3.0-0.0,0,0,83590,,,,,,50.0,,,,,,,,,,,,,,,,,,,,,,,,,,,,,,,,280.0,1.0,,,,,,
268,,iti,,html-keyboard-response,268,373662,0.0-1.0-52.0-0.0-5.0,0,0,83590,,,,,,,,,,,,,,,,,,,,,,,,,,,,,,,,,,,,,,282.0,2.0,,,,,,
269,,choice,,html-keyboard-response,269,373767,0.0-1.0-53.0-0.0-0.0,0,0,83590,,101.0,,,68.0,51.0,51.0,1000.0,2000.0,0.0,1.0,0.0,40-60,,0.0,stool,baby carriage,40.0,60.0,stool5,baby carriage11,40.0,80.0,ASTOOL23.jpg,Baby_Carriage-2.jpg,/static/Category_learning/Stimuli/Experimental_stims/stool/ASTOOL23.jpg,/static/Category_learning/Stimuli/Experimental_stims/baby carriage/Baby_Carriage-2.jpg,1.0,stool,baby carriage,40.0,60.0,stool5,baby carriage11,40.0,80.0,0.0,282.101,0.101,,,,,,
270,,confirmation,,html-keyboard-response,270,375173,0.0-1.0-53.0-0.0-1.0-0.0,0,0,83590,,,,,,51.0,,,,,,,,,,,,,,,,,,,,,,,,,,,,,,,,283.5,1.399,,,,,,
271,,isi,,html-keyboard-response,271,376181,0.0-1.0-53.0-0.0-2.0,0,0,83590,,,,,,,,,,,,,,,,,,,,,,,,,,,,,,,,,,,,,,284.5,1.0,,,,,,
272,,feedback,,html-keyboard-response,272,377183,0.0-1.0-53.0-0.0-3.0-0.0,0,0,83590,,,,,,51.0,,,,,,,,,,,,,,,,,,,,,,,,,,,,,,,,285.5,1.0,,,,,,
273,,iti,,html-keyboard-response,273,379188,0.0-1.0-53.0-0.0-5.0,0,0,83590,,,,,,,,,,,,,,,,,,,,,,,,,,,,,,,,,,,,,,287.5,2.0,,,,,,
274,,choice,,html-keyboard-response,274,379826,0.0-1.0-54.0-0.0-0.0,0,0,83590,,635.0,,,68.0,52.0,52.0,1000.0,2000.0,0.0,1.0,0.0,40-40,,,telescope,vase,40.0,40.0,telescope10,vase4,20.0,60.0,digimarc.ms02.jpg,Avase111.jpg,/static/Category_learning/Stimuli/Experimental_stims/telescope/digimarc.ms02.jpg,/static/Category_learning/Stimuli/Experimental_stims/vase/Avase111.jpg,1.0,telescope,vase,40.0,40.0,telescope10,vase4,20.0,60.0,0.0,288.135,0.635,,,,,,
275,,confirmation,,html-keyboard-response,275,380697,0.0-1.0-54.0-0.0-1.0-0.0,0,0,83590,,,,,,52.0,,,,,,,,,,,,,,,,,,,,,,,,,,,,,,,,289.0,0.865,,,,,,
276,,isi,,html-keyboard-response,276,381702,0.0-1.0-54.0-0.0-2.0,0,0,83590,,,,,,,,,,,,,,,,,,,,,,,,,,,,,,,,,,,,,,290.0,1.0,,,,,,
277,,feedback,,html-keyboard-response,277,382706,0.0-1.0-54.0-0.0-3.0-0.0,0,0,83590,,,,,,52.0,,,,,,,,,,,,,,,,,,,,,,,,,,,,,,,,291.0,1.0,,,,,,
278,,iti,,html-keyboard-response,278,384711,0.0-1.0-54.0-0.0-5.0,0,0,83590,,,,,,,,,,,,,,,,,,,,,,,,,,,,,,,,,,,,,,293.0,2.0,,,,,,
279,,choice,,html-keyboard-response,279,384891,0.0-1.0-55.0-0.0-0.0,0,0,83590,,177.0,,,68.0,53.0,53.0,1000.0,1500.0,0.0,1.0,1.0,40-40,1.0,,telescope,telescope,40.0,40.0,telescope11,telescope10,40.0,20.0,digimarc.ms03.jpg,digimarc.ms02.jpg,/static/Category_learning/Stimuli/Experimental_stims/telescope/digimarc.ms03.jpg,/static/Category_learning/Stimuli/Experimental_stims/telescope/digimarc.ms02.jpg,1.0,telescope,telescope,40.0,40.0,telescope11,telescope10,40.0,20.0,0.0,293.177,0.177,,,,,,
280,,confirmation,,html-keyboard-response,280,386222,0.0-1.0-55.0-0.0-1.0-0.0,0,0,83590,,,,,,53.0,,,,,,,,,,,,,,,,,,,,,,,,,,,,,,,,294.5,1.323,,,,,,
281,,isi,,html-keyboard-response,281,387228,0.0-1.0-55.0-0.0-2.0,0,0,83590,,,,,,,,,,,,,,,,,,,,,,,,,,,,,,,,,,,,,,295.5,1.0,,,,,,
282,,feedback,,html-keyboard-response,282,388233,0.0-1.0-55.0-0.0-3.0-0.0,0,0,83590,,,,,,53.0,,,,,,,,,,,,,,,,,,,,,,,,,,,,,,,,296.5,1.0,,,,,,
283,,iti,,html-keyboard-response,283,389738,0.0-1.0-55.0-0.0-5.0,0,0,83590,,,,,,,,,,,,,,,,,,,,,,,,,,,,,,,,,,,,,,298.0,1.5,,,,,,
284,,choice,,html-keyboard-response,284,389925,0.0-1.0-56.0-0.0-0.0,0,0,83590,,182.0,,,68.0,54.0,54.0,2000.0,1500.0,0.0,1.0,0.0,20-80,,1.0,hat,nail polish,80.0,20.0,hat3,nail polish14,100.0,40.0,Astrawhat49.jpg,38031405.JPG,/static/Category_learning/Stimuli/Experimental_stims/hat/Astrawhat49.jpg,/static/Category_learning/Stimuli/Experimental_stims/nail polish/38031405.JPG,1.0,hat,nail polish,80.0,20.0,hat3,nail polish14,100.0,40.0,0.0,298.182,0.182,,,,,,
285,,confirmation,,html-keyboard-response,285,391250,0.0-1.0-56.0-0.0-1.0-0.0,0,0,83590,,,,,,54.0,,,,,,,,,,,,,,,,,,,,,,,,,,,,,,,,299.5,1.318,,,,,,
286,,isi,,html-keyboard-response,286,393255,0.0-1.0-56.0-0.0-2.0,0,0,83590,,,,,,,,,,,,,,,,,,,,,,,,,,,,,,,,,,,,,,301.5,2.0,,,,,,
287,,feedback,,html-keyboard-response,287,394599,0.0-1.0-56.0-0.0-3.0-0.0,0,0,83590,,,,,,54.0,,,,,,,,,,,,,,,,,,,,,,,,,,,,,,,,302.5,1.0,,,,,,
288,,iti,,html-keyboard-response,288,396694,0.0-1.0-56.0-0.0-5.0,0,0,83590,,,,,,,,,,,,,,,,,,,,,,,,,,,,,,,,,,,,,,304.0,1.5,,,,,,
289,,choice,,html-keyboard-response,289,399362,0.0-1.0-57.0-0.0-0.0,0,0,83590,,,,,,55.0,55.0,3000.0,1000.0,0.0,1.0,0.0,20-60,,0.0,necklace,bench,20.0,60.0,necklace6,bench4,0.0,40.0,Agoldnecklace.jpg,30892819.thl.jpg,/static/Category_learning/Stimuli/Experimental_stims/necklace/Agoldnecklace.jpg,/static/Category_learning/Stimuli/Experimental_stims/bench/30892819.thl.jpg,,,,,,,,,,1.0,305.5,1.5,,,,,,
290,,isi,,html-keyboard-response,290,402475,0.0-1.0-57.0-0.0-2.0,0,0,83590,,,,,,,,,,,,,,,,,,,,,,,,,,,,,,,,,,,,,,308.5,3.0,,,,,,
291,,no_response,,html-keyboard-response,291,404499,0.0-1.0-57.0-0.0-4.0-0.0,0,0,83590,,,,,,,,,,,,,,,,,,,,,,,,,,,,,,,,,,,,,,309.5,1.0,,,,,,
292,,iti,,html-keyboard-response,292,407300,0.0-1.0-57.0-0.0-5.0,0,0,83590,,,,,,,,,,,,,,,,,,,,,,,,,,,,,,,,,,,,,,310.5,1.0,,,,,,
293,,choice,,html-keyboard-response,293,409772,0.0-1.0-57.0-0.1-0.1,0,0,83590,,,,,,55.0,55.0,3000.0,1000.0,0.0,1.0,0.0,20-60,,0.0,necklace,bench,20.0,60.0,necklace6,bench4,0.0,40.0,Agoldnecklace.jpg,30892819.thl.jpg,/static/Category_learning/Stimuli/Experimental_stims/necklace/Agoldnecklace.jpg,/static/Category_learning/Stimuli/Experimental_stims/bench/30892819.thl.jpg,,,,,,,,,,1.0,312.0,1.5,,,,,,
294,,isi,,html-keyboard-response,294,411475,0.0-1.0-57.0-0.1-2.1,0,0,83590,,,,,,,,,,,,,,,,,,,,,,,,,,,,,,,,,,,,,,313.0,1.0,,,,,,
295,,no_response,,html-keyboard-response,295,414251,0.0-1.0-57.0-0.1-4.1-0.1,0,0,83590,,,,,,,,,,,,,,,,,,,,,,,,,,,,,,,,,,,,,,314.0,1.0,,,,,,
296,,iti,,html-keyboard-response,296,417266,0.0-1.0-57.0-0.1-5.1,0,0,83590,,,,,,,,,,,,,,,,,,,,,,,,,,,,,,,,,,,,,,315.5,1.5,,,,,,
297,,choice,,html-keyboard-response,297,419480,0.0-1.0-57.0-0.2-0.2,0,0,83590,,,,,,55.0,55.0,3000.0,1000.0,0.0,1.0,0.0,20-60,,0.0,necklace,bench,20.0,60.0,necklace6,bench4,0.0,40.0,Agoldnecklace.jpg,30892819.thl.jpg,/static/Category_learning/Stimuli/Experimental_stims/necklace/Agoldnecklace.jpg,/static/Category_learning/Stimuli/Experimental_stims/bench/30892819.thl.jpg,,,,,,,,,,1.0,317.0,1.5,,,,,,
298,,isi,,html-keyboard-response,298,423491,0.0-1.0-57.0-0.2-2.2,0,0,83590,,,,,,,,,,,,,,,,,,,,,,,,,,,,,,,,,,,,,,320.5,3.5,,,,,,
299,,no_response,,html-keyboard-response,299,426408,0.0-1.0-57.0-0.2-4.2-0.2,0,0,83590,,,,,,,,,,,,,,,,,,,,,,,,,,,,,,,,,,,,,,321.5,1.0,,,,,,
300,,iti,,html-keyboard-response,300,429420,0.0-1.0-57.0-0.2-5.2,0,0,83590,,,,,,,,,,,,,,,,,,,,,,,,,,,,,,,,,,,,,,323.5,2.0,,,,,,
301,,choice,,html-keyboard-response,301,432424,0.0-1.0-57.0-0.3-0.3,0,0,83590,,,,,,55.0,55.0,3000.0,1000.0,0.0,1.0,0.0,20-60,,0.0,necklace,bench,20.0,60.0,necklace6,bench4,0.0,40.0,Agoldnecklace.jpg,30892819.thl.jpg,/static/Category_learning/Stimuli/Experimental_stims/necklace/Agoldnecklace.jpg,/static/Category_learning/Stimuli/Experimental_stims/bench/30892819.thl.jpg,,,,,,,,,,1.0,325.0,1.5,,,,,,
302,,isi,,html-keyboard-response,302,433487,0.0-1.0-57.0-0.3-2.3,0,0,83590,,,,,,,,,,,,,,,,,,,,,,,,,,,,,,,,,,,,,,326.0,1.0,,,,,,
303,,no_response,,html-keyboard-response,303,435998,0.0-1.0-57.0-0.3-4.3-0.3,0,0,83590,,,,,,,,,,,,,,,,,,,,,,,,,,,,,,,,,,,,,,327.0,1.0,,,,,,
304,,iti,,html-keyboard-response,304,438476,0.0-1.0-57.0-0.3-5.3,0,0,83590,,,,,,,,,,,,,,,,,,,,,,,,,,,,,,,,,,,,,,328.5,1.5,,,,,,
305,,choice,,html-keyboard-response,305,441412,0.0-1.0-57.0-0.4-0.4,0,0,83590,,,,,,55.0,55.0,3000.0,1000.0,0.0,1.0,0.0,20-60,,0.0,necklace,bench,20.0,60.0,necklace6,bench4,0.0,40.0,Agoldnecklace.jpg,30892819.thl.jpg,/static/Category_learning/Stimuli/Experimental_stims/necklace/Agoldnecklace.jpg,/static/Category_learning/Stimuli/Experimental_stims/bench/30892819.thl.jpg,,,,,,,,,,1.0,330.0,1.5,,,,,,
306,,isi,,html-keyboard-response,306,443505,0.0-1.0-57.0-0.4-2.4,0,0,83590,,,,,,,,,,,,,,,,,,,,,,,,,,,,,,,,,,,,,,331.5,1.5,,,,,,
307,,no_response,,html-keyboard-response,307,446362,0.0-1.0-57.0-0.4-4.4-0.4,0,0,83590,,,,,,,,,,,,,,,,,,,,,,,,,,,,,,,,,,,,,,332.5,1.0,,,,,,
308,,iti,,html-keyboard-response,308,448020,0.0-1.0-57.0-0.4-5.4,0,0,83590,,,,,,,,,,,,,,,,,,,,,,,,,,,,,,,,,,,,,,333.5,1.0,,,,,,
309,,choice,,html-keyboard-response,309,450475,0.0-1.0-57.0-0.5-0.5,0,0,83590,,,,,,55.0,55.0,3000.0,1000.0,0.0,1.0,0.0,20-60,,0.0,necklace,bench,20.0,60.0,necklace6,bench4,0.0,40.0,Agoldnecklace.jpg,30892819.thl.jpg,/static/Category_learning/Stimuli/Experimental_stims/necklace/Agoldnecklace.jpg,/static/Category_learning/Stimuli/Experimental_stims/bench/30892819.thl.jpg,,,,,,,,,,1.0,335.0,1.5,,,,,,
310,,isi,,html-keyboard-response,310,455227,0.0-1.0-57.0-0.5-2.5,0,0,83590,,,,,,,,,,,,,,,,,,,,,,,,,,,,,,,,,,,,,,338.0,3.0,,,,,,
311,,no_response,,html-keyboard-response,311,457095,0.0-1.0-57.0-0.5-4.5-0.5,0,0,83590,,,,,,,,,,,,,,,,,,,,,,,,,,,,,,,,,,,,,,339.0,1.0,,,,,,
312,,iti,,html-keyboard-response,312,459069,0.0-1.0-57.0-0.5-5.5,0,0,83590,,,,,,,,,,,,,,,,,,,,,,,,,,,,,,,,,,,,,,340.0,1.0,,,,,,
313,,choice,,html-keyboard-response,313,461510,0.0-1.0-57.0-0.6-0.6,0,0,83590,,,,,,55.0,55.0,3000.0,1000.0,0.0,1.0,0.0,20-60,,0.0,necklace,bench,20.0,60.0,necklace6,bench4,0.0,40.0,Agoldnecklace.jpg,30892819.thl.jpg,/static/Category_learning/Stimuli/Experimental_stims/necklace/Agoldnecklace.jpg,/static/Category_learning/Stimuli/Experimental_stims/bench/30892819.thl.jpg,,,,,,,,,,1.0,341.5,1.5,,,,,,
314,,isi,,html-keyboard-response,314,463517,0.0-1.0-57.0-0.6-2.6,0,0,83590,,,,,,,,,,,,,,,,,,,,,,,,,,,,,,,,,,,,,,343.0,1.5,,,,,,
315,,no_response,,html-keyboard-response,315,466328,0.0-1.0-57.0-0.6-4.6-0.6,0,0,83590,,,,,,,,,,,,,,,,,,,,,,,,,,,,,,,,,,,,,,344.0,1.0,,,,,,
316,,iti,,html-keyboard-response,316,468529,0.0-1.0-57.0-0.6-5.6,0,0,83590,,,,,,,,,,,,,,,,,,,,,,,,,,,,,,,,,,,,,,345.5,1.5,,,,,,
317,,choice,,html-keyboard-response,317,471260,0.0-1.0-57.0-0.7-0.7,0,0,83590,,,,,,55.0,55.0,3000.0,1000.0,0.0,1.0,0.0,20-60,,0.0,necklace,bench,20.0,60.0,necklace6,bench4,0.0,40.0,Agoldnecklace.jpg,30892819.thl.jpg,/static/Category_learning/Stimuli/Experimental_stims/necklace/Agoldnecklace.jpg,/static/Category_learning/Stimuli/Experimental_stims/bench/30892819.thl.jpg,,,,,,,,,,1.0,347.0,1.5,,,,,,
318,,isi,,html-keyboard-response,318,473015,0.0-1.0-57.0-0.7-2.7,0,0,83590,,,,,,,,,,,,,,,,,,,,,,,,,,,,,,,,,,,,,,348.0,1.0,,,,,,
319,,no_response,,html-keyboard-response,319,475019,0.0-1.0-57.0-0.7-4.7-0.7,0,0,83590,,,,,,,,,,,,,,,,,,,,,,,,,,,,,,,,,,,,,,349.0,1.0,,,,,,
320,,iti,,html-keyboard-response,320,476940,0.0-1.0-57.0-0.7-5.7,0,0,83590,,,,,,,,,,,,,,,,,,,,,,,,,,,,,,,,,,,,,,350.0,1.0,,,,,,
321,,block_over,,html-keyboard-response,321,559396,0.0-1.0-57.0-0.7-7.7-0.7,0,0,83590,,82452.0,,,68.0,55.0,,,,,,,,,,,,,,,,,,,,,,,,,,,,,,,,,,,,,,,
322,,start_run,,html-keyboard-response,322,562499,0.0-1.0-57.0-0.7-7.7-1.7,0,0,83590,,3100.0,,,84.0,,,,,,,,,,,,,,,,,,,,,,,,,,,,,,,,,,,,,,,,
323,,choice,,html-keyboard-response,323,564006,0.0-1.0-57.0-0.8-0.8,0,0,83590,,,,,,55.0,65.0,3000.0,2000.0,0.0,2.0,0.0,40-40,,,watch,tape,40.0,40.0,watch9,tape2,40.0,20.0,mens-diamond-watches-euro-48733-ab.jpg,Tape_Dispenser.jpg,/static/Category_learning/Stimuli/Experimental_stims/watch/mens-diamond-watches-euro-48733-ab.jpg,/static/Category_learning/Stimuli/Experimental_stims/tape/Tape_Dispenser.jpg,,,,,,,,,,1.0,1.5,1.5,,,,,,
324,,isi,,html-keyboard-response,324,567014,0.0-1.0-57.0-0.8-2.8,0,0,83590,,,,,,,,,,,,,,,,,,,,,,,,,,,,,,,,,,,,,,4.5,3.0,,,,,,
325,,no_response,,html-keyboard-response,325,568023,0.0-1.0-57.0-0.8-4.8-0.8,0,0,83590,,,,,,,,,,,,,,,,,,,,,,,,,,,,,,,,,,,,,,5.5,1.0,,,,,,
326,,iti,,html-keyboard-response,326,569051,0.0-1.0-57.0-0.8-5.8,0,0,83590,,,,,,,,,,,,,,,,,,,,,,,,,,,,,,,,,,,,,,6.5,1.0,,,,,,
327,,choice,,html-keyboard-response,327,569350,0.0-1.0-57.0-0.9-0.9,0,0,83590,,296.0,,,68.0,55.0,65.0,3000.0,2000.0,0.0,2.0,0.0,40-40,,,watch,tape,40.0,40.0,watch9,tape2,40.0,20.0,mens-diamond-watches-euro-48733-ab.jpg,Tape_Dispenser.jpg,/static/Category_learning/Stimuli/Experimental_stims/watch/mens-diamond-watches-euro-48733-ab.jpg,/static/Category_learning/Stimuli/Experimental_stims/tape/Tape_Dispenser.jpg,1.0,watch,tape,40.0,40.0,watch9,tape2,40.0,20.0,0.0,6.796,0.296,,,,,,
328,,confirmation,,html-keyboard-response,328,570561,0.0-1.0-57.0-0.9-1.9-0.9,0,0,83590,,,,,,55.0,,,,,,,,,,,,,,,,,,,,,,,,,,,,,,,,8.0,1.204,,,,,,
329,,isi,,html-keyboard-response,329,572064,0.0-1.0-57.0-0.9-2.9,0,0,83590,,,,,,,,,,,,,,,,,,,,,,,,,,,,,,,,,,,,,,9.5,1.5,,,,,,
330,,feedback,,html-keyboard-response,330,573072,0.0-1.0-57.0-0.9-3.9-0.9,0,0,83590,,,,,,55.0,,,,,,,,,,,,,,,,,,,,,,,,,,,,,,,,10.5,1.0,,,,,,
331,,iti,,html-keyboard-response,331,574075,0.0-1.0-57.0-0.9-5.9,0,0,83590,,,,,,,,,,,,,,,,,,,,,,,,,,,,,,,,,,,,,,11.5,1.0,,,,,,
332,,choice,,html-keyboard-response,332,574507,0.0-1.0-58.0-0.0-0.0,0,0,83590,,426.0,,,68.0,56.0,66.0,3000.0,1500.0,0.0,2.0,0.0,20-60,,0.0,pen,bowl,20.0,60.0,pen3,bowl13,0.0,80.0,pen08.jpg,Asoupbowl8.jpg,/static/Category_learning/Stimuli/Experimental_stims/pen/pen08.jpg,/static/Category_learning/Stimuli/Experimental_stims/bowl/Asoupbowl8.jpg,1.0,pen,bowl,20.0,60.0,pen3,bowl13,0.0,80.0,0.0,11.926,0.426,,,,,,
333,,confirmation,,html-keyboard-response,333,575589,0.0-1.0-58.0-0.0-1.0-0.0,0,0,83590,,,,,,56.0,,,,,,,,,,,,,,,,,,,,,,,,,,,,,,,,13.0,1.074,,,,,,
334,,isi,,html-keyboard-response,334,578598,0.0-1.0-58.0-0.0-2.0,0,0,83590,,,,,,,,,,,,,,,,,,,,,,,,,,,,,,,,,,,,,,16.0,3.0,,,,,,
335,,feedback,,html-keyboard-response,335,579606,0.0-1.0-58.0-0.0-3.0-0.0,0,0,83590,,,,,,56.0,,,,,,,,,,,,,,,,,,,,,,,,,,,,,,,,17.0,1.0,,,,,,
336,,iti,,html-keyboard-response,336,581109,0.0-1.0-58.0-0.0-5.0,0,0,83590,,,,,,,,,,,,,,,,,,,,,,,,,,,,,,,,,,,,,,18.5,1.5,,,,,,
337,,choice,,html-keyboard-response,337,581478,0.0-1.0-59.0-0.0-0.0,0,0,83590,,365.0,,,68.0,57.0,67.0,1000.0,3000.0,0.0,2.0,0.0,20-60,,0.0,nail polish,bongo,20.0,60.0,nail polish1,bongo8,20.0,80.0,200.jpg,26390661.thl.jpg,/static/Category_learning/Stimuli/Experimental_stims/nail polish/200.jpg,/static/Category_learning/Stimuli/Experimental_stims/bongo/26390661.thl.jpg,1.0,nail polish,bongo,20.0,60.0,nail polish1,bongo8,20.0,80.0,0.0,18.865,0.365,,,,,,
338,,confirmation,,html-keyboard-response,338,582623,0.0-1.0-59.0-0.0-1.0-0.0,0,0,83590,,,,,,57.0,,,,,,,,,,,,,,,,,,,,,,,,,,,,,,,,20.0,1.135,,,,,,
339,,isi,,html-keyboard-response,339,583629,0.0-1.0-59.0-0.0-2.0,0,0,83590,,,,,,,,,,,,,,,,,,,,,,,,,,,,,,,,,,,,,,21.0,1.0,,,,,,
340,,feedback,,html-keyboard-response,340,584635,0.0-1.0-59.0-0.0-3.0-0.0,0,0,83590,,,,,,57.0,,,,,,,,,,,,,,,,,,,,,,,,,,,,,,,,22.0,1.0,,,,,,
341,,iti,,html-keyboard-response,341,587644,0.0-1.0-59.0-0.0-5.0,0,0,83590,,,,,,,,,,,,,,,,,,,,,,,,,,,,,,,,,,,,,,25.0,3.0,,,,,,
342,,choice,,html-keyboard-response,342,589154,0.0-1.0-60.0-0.0-0.0,0,0,83590,,,,,,58.0,68.0,1000.0,2000.0,0.0,2.0,0.0,20-20,,,power strip,patio lounge chair,20.0,20.0,power strip14,patio lounge chair13,20.0,20.0,88b2c724-e781-44ae-85d5-27b7591f659d_400.jpg,grosfillex-bahia-resin-chaise-lounges.jpg,/static/Category_learning/Stimuli/Experimental_stims/power strip/88b2c724-e781-44ae-85d5-27b7591f659d_400.jpg,/static/Category_learning/Stimuli/Experimental_stims/patio lounge chair/grosfillex-bahia-resin-chaise-lounges.jpg,,,,,,,,,,1.0,26.5,1.5,,,,,,
343,,isi,,html-keyboard-response,343,590162,0.0-1.0-60.0-0.0-2.0,0,0,83590,,,,,,,,,,,,,,,,,,,,,,,,,,,,,,,,,,,,,,27.5,1.0,,,,,,
344,,no_response,,html-keyboard-response,344,591169,0.0-1.0-60.0-0.0-4.0-0.0,0,0,83590,,,,,,,,,,,,,,,,,,,,,,,,,,,,,,,,,,,,,,28.5,1.0,,,,,,
345,,iti,,html-keyboard-response,345,593200,0.0-1.0-60.0-0.0-5.0,0,0,83590,,,,,,,,,,,,,,,,,,,,,,,,,,,,,,,,,,,,,,30.5,2.0,,,,,,
346,,choice,,html-keyboard-response,346,594704,0.0-1.0-60.0-0.1-0.1,0,0,83590,,,,,,58.0,68.0,1000.0,2000.0,0.0,2.0,0.0,20-20,,,power strip,patio lounge chair,20.0,20.0,power strip14,patio lounge chair13,20.0,20.0,88b2c724-e781-44ae-85d5-27b7591f659d_400.jpg,grosfillex-bahia-resin-chaise-lounges.jpg,/static/Category_learning/Stimuli/Experimental_stims/power strip/88b2c724-e781-44ae-85d5-27b7591f659d_400.jpg,/static/Category_learning/Stimuli/Experimental_stims/patio lounge chair/grosfillex-bahia-resin-chaise-lounges.jpg,,,,,,,,,,1.0,32.0,1.5,,,,,,
347,,isi,,html-keyboard-response,347,596763,0.0-1.0-60.0-0.1-2.1,0,0,83590,,,,,,,,,,,,,,,,,,,,,,,,,,,,,,,,,,,,,,34.0,2.0,,,,,,
348,,no_response,,html-keyboard-response,348,597821,0.0-1.0-60.0-0.1-4.1-0.1,0,0,83590,,,,,,,,,,,,,,,,,,,,,,,,,,,,,,,,,,,,,,35.0,1.0,,,,,,
349,,iti,,html-keyboard-response,349,598843,0.0-1.0-60.0-0.1-5.1,0,0,83590,,,,,,,,,,,,,,,,,,,,,,,,,,,,,,,,,,,,,,36.0,1.0,,,,,,
350,,choice,,html-keyboard-response,350,600349,0.0-1.0-60.0-0.2-0.2,0,0,83590,,,,,,58.0,68.0,1000.0,2000.0,0.0,2.0,0.0,20-20,,,power strip,patio lounge chair,20.0,20.0,power strip14,patio lounge chair13,20.0,20.0,88b2c724-e781-44ae-85d5-27b7591f659d_400.jpg,grosfillex-bahia-resin-chaise-lounges.jpg,/static/Category_learning/Stimuli/Experimental_stims/power strip/88b2c724-e781-44ae-85d5-27b7591f659d_400.jpg,/static/Category_learning/Stimuli/Experimental_stims/patio lounge chair/grosfillex-bahia-resin-chaise-lounges.jpg,,,,,,,,,,1.0,37.5,1.5,,,,,,
351,,isi,,html-keyboard-response,351,602356,0.0-1.0-60.0-0.2-2.2,0,0,83590,,,,,,,,,,,,,,,,,,,,,,,,,,,,,,,,,,,,,,39.5,2.0,,,,,,
352,,no_response,,html-keyboard-response,352,603361,0.0-1.0-60.0-0.2-4.2-0.2,0,0,83590,,,,,,,,,,,,,,,,,,,,,,,,,,,,,,,,,,,,,,40.5,1.0,,,,,,
353,,iti,,html-keyboard-response,353,604385,0.0-1.0-60.0-0.2-5.2,0,0,83590,,,,,,,,,,,,,,,,,,,,,,,,,,,,,,,,,,,,,,41.5,1.0,,,,,,
354,,choice,,html-keyboard-response,354,605893,0.0-1.0-60.0-0.3-0.3,0,0,83590,,,,,,58.0,68.0,1000.0,2000.0,0.0,2.0,0.0,20-20,,,power strip,patio lounge chair,20.0,20.0,power strip14,patio lounge chair13,20.0,20.0,88b2c724-e781-44ae-85d5-27b7591f659d_400.jpg,grosfillex-bahia-resin-chaise-lounges.jpg,/static/Category_learning/Stimuli/Experimental_stims/power strip/88b2c724-e781-44ae-85d5-27b7591f659d_400.jpg,/static/Category_learning/Stimuli/Experimental_stims/patio lounge chair/grosfillex-bahia-resin-chaise-lounges.jpg,,,,,,,,,,1.0,43.0,1.5,,,,,,
355,,isi,,html-keyboard-response,355,606899,0.0-1.0-60.0-0.3-2.3,0,0,83590,,,,,,,,,,,,,,,,,,,,,,,,,,,,,,,,,,,,,,44.0,1.0,,,,,,
356,,no_response,,html-keyboard-response,356,607905,0.0-1.0-60.0-0.3-4.3-0.3,0,0,83590,,,,,,,,,,,,,,,,,,,,,,,,,,,,,,,,,,,,,,45.0,1.0,,,,,,
357,,iti,,html-keyboard-response,357,609425,0.0-1.0-60.0-0.3-5.3,0,0,83590,,,,,,,,,,,,,,,,,,,,,,,,,,,,,,,,,,,,,,46.5,1.5,,,,,,
358,,choice,,html-keyboard-response,358,610934,0.0-1.0-60.0-0.4-0.4,0,0,83590,,,,,,58.0,68.0,1000.0,2000.0,0.0,2.0,0.0,20-20,,,power strip,patio lounge chair,20.0,20.0,power strip14,patio lounge chair13,20.0,20.0,88b2c724-e781-44ae-85d5-27b7591f659d_400.jpg,grosfillex-bahia-resin-chaise-lounges.jpg,/static/Category_learning/Stimuli/Experimental_stims/power strip/88b2c724-e781-44ae-85d5-27b7591f659d_400.jpg,/static/Category_learning/Stimuli/Experimental_stims/patio lounge chair/grosfillex-bahia-resin-chaise-lounges.jpg,,,,,,,,,,1.0,48.0,1.5,,,,,,
359,,isi,,html-keyboard-response,359,612941,0.0-1.0-60.0-0.4-2.4,0,0,83590,,,,,,,,,,,,,,,,,,,,,,,,,,,,,,,,,,,,,,50.0,2.0,,,,,,
360,,no_response,,html-keyboard-response,360,613946,0.0-1.0-60.0-0.4-4.4-0.4,0,0,83590,,,,,,,,,,,,,,,,,,,,,,,,,,,,,,,,,,,,,,51.0,1.0,,,,,,
361,,iti,,html-keyboard-response,361,615965,0.0-1.0-60.0-0.4-5.4,0,0,83590,,,,,,,,,,,,,,,,,,,,,,,,,,,,,,,,,,,,,,53.0,2.0,,,,,,
362,,choice,,html-keyboard-response,362,617472,0.0-1.0-60.0-0.5-0.5,0,0,83590,,,,,,58.0,68.0,1000.0,2000.0,0.0,2.0,0.0,20-20,,,power strip,patio lounge chair,20.0,20.0,power strip14,patio lounge chair13,20.0,20.0,88b2c724-e781-44ae-85d5-27b7591f659d_400.jpg,grosfillex-bahia-resin-chaise-lounges.jpg,/static/Category_learning/Stimuli/Experimental_stims/power strip/88b2c724-e781-44ae-85d5-27b7591f659d_400.jpg,/static/Category_learning/Stimuli/Experimental_stims/patio lounge chair/grosfillex-bahia-resin-chaise-lounges.jpg,,,,,,,,,,1.0,54.5,1.5,,,,,,
363,,isi,,html-keyboard-response,363,618476,0.0-1.0-60.0-0.5-2.5,0,0,83590,,,,,,,,,,,,,,,,,,,,,,,,,,,,,,,,,,,,,,55.5,1.0,,,,,,
364,,no_response,,html-keyboard-response,364,619483,0.0-1.0-60.0-0.5-4.5-0.5,0,0,83590,,,,,,,,,,,,,,,,,,,,,,,,,,,,,,,,,,,,,,56.5,1.0,,,,,,
365,,iti,,html-keyboard-response,365,621510,0.0-1.0-60.0-0.5-5.5,0,0,83590,,,,,,,,,,,,,,,,,,,,,,,,,,,,,,,,,,,,,,58.5,2.0,,,,,,
366,,choice,,html-keyboard-response,366,623019,0.0-1.0-60.0-0.6-0.6,0,0,83590,,,,,,58.0,68.0,1000.0,2000.0,0.0,2.0,0.0,20-20,,,power strip,patio lounge chair,20.0,20.0,power strip14,patio lounge chair13,20.0,20.0,88b2c724-e781-44ae-85d5-27b7591f659d_400.jpg,grosfillex-bahia-resin-chaise-lounges.jpg,/static/Category_learning/Stimuli/Experimental_stims/power strip/88b2c724-e781-44ae-85d5-27b7591f659d_400.jpg,/static/Category_learning/Stimuli/Experimental_stims/patio lounge chair/grosfillex-bahia-resin-chaise-lounges.jpg,,,,,,,,,,1.0,60.0,1.5,,,,,,
367,,isi,,html-keyboard-response,367,625026,0.0-1.0-60.0-0.6-2.6,0,0,83590,,,,,,,,,,,,,,,,,,,,,,,,,,,,,,,,,,,,,,62.0,2.0,,,,,,
368,,no_response,,html-keyboard-response,368,626033,0.0-1.0-60.0-0.6-4.6-0.6,0,0,83590,,,,,,,,,,,,,,,,,,,,,,,,,,,,,,,,,,,,,,63.0,1.0,,,,,,
369,,iti,,html-keyboard-response,369,627554,0.0-1.0-60.0-0.6-5.6,0,0,83590,,,,,,,,,,,,,,,,,,,,,,,,,,,,,,,,,,,,,,64.5,1.5,,,,,,
370,,choice,,html-keyboard-response,370,629063,0.0-1.0-60.0-0.7-0.7,0,0,83590,,,,,,58.0,68.0,1000.0,2000.0,0.0,2.0,0.0,20-20,,,power strip,patio lounge chair,20.0,20.0,power strip14,patio lounge chair13,20.0,20.0,88b2c724-e781-44ae-85d5-27b7591f659d_400.jpg,grosfillex-bahia-resin-chaise-lounges.jpg,/static/Category_learning/Stimuli/Experimental_stims/power strip/88b2c724-e781-44ae-85d5-27b7591f659d_400.jpg,/static/Category_learning/Stimuli/Experimental_stims/patio lounge chair/grosfillex-bahia-resin-chaise-lounges.jpg,,,,,,,,,,1.0,66.0,1.5,,,,,,
371,,isi,,html-keyboard-response,371,631071,0.0-1.0-60.0-0.7-2.7,0,0,83590,,,,,,,,,,,,,,,,,,,,,,,,,,,,,,,,,,,,,,68.0,2.0,,,,,,
372,,no_response,,html-keyboard-response,372,632074,0.0-1.0-60.0-0.7-4.7-0.7,0,0,83590,,,,,,,,,,,,,,,,,,,,,,,,,,,,,,,,,,,,,,69.0,1.0,,,,,,
373,,iti,,html-keyboard-response,373,635093,0.0-1.0-60.0-0.7-5.7,0,0,83590,,,,,,,,,,,,,,,,,,,,,,,,,,,,,,,,,,,,,,72.0,3.0,,,,,,
374,,choice,,html-keyboard-response,374,636601,0.0-1.0-60.0-0.8-0.8,0,0,83590,,,,,,58.0,68.0,1000.0,2000.0,0.0,2.0,0.0,20-20,,,power strip,patio lounge chair,20.0,20.0,power strip14,patio lounge chair13,20.0,20.0,88b2c724-e781-44ae-85d5-27b7591f659d_400.jpg,grosfillex-bahia-resin-chaise-lounges.jpg,/static/Category_learning/Stimuli/Experimental_stims/power strip/88b2c724-e781-44ae-85d5-27b7591f659d_400.jpg,/static/Category_learning/Stimuli/Experimental_stims/patio lounge chair/grosfillex-bahia-resin-chaise-lounges.jpg,,,,,,,,,,1.0,73.5,1.5,,,,,,
375,,isi,,html-keyboard-response,375,640108,0.0-1.0-60.0-0.8-2.8,0,0,83590,,,,,,,,,,,,,,,,,,,,,,,,,,,,,,,,,,,,,,77.0,3.5,,,,,,
376,,no_response,,html-keyboard-response,376,641115,0.0-1.0-60.0-0.8-4.8-0.8,0,0,83590,,,,,,,,,,,,,,,,,,,,,,,,,,,,,,,,,,,,,,78.0,1.0,,,,,,
377,,iti,,html-keyboard-response,377,643158,0.0-1.0-60.0-0.8-5.8,0,0,83590,,,,,,,,,,,,,,,,,,,,,,,,,,,,,,,,,,,,,,80.0,2.0,,,,,,
378,,choice,,html-keyboard-response,378,644665,0.0-1.0-60.0-0.9-0.9,0,0,83590,,,,,,58.0,68.0,1000.0,2000.0,0.0,2.0,0.0,20-20,,,power strip,patio lounge chair,20.0,20.0,power strip14,patio lounge chair13,20.0,20.0,88b2c724-e781-44ae-85d5-27b7591f659d_400.jpg,grosfillex-bahia-resin-chaise-lounges.jpg,/static/Category_learning/Stimuli/Experimental_stims/power strip/88b2c724-e781-44ae-85d5-27b7591f659d_400.jpg,/static/Category_learning/Stimuli/Experimental_stims/patio lounge chair/grosfillex-bahia-resin-chaise-lounges.jpg,,,,,,,,,,1.0,81.5,1.5,,,,,,
379,,isi,,html-keyboard-response,379,646170,0.0-1.0-60.0-0.9-2.9,0,0,83590,,,,,,,,,,,,,,,,,,,,,,,,,,,,,,,,,,,,,,83.0,1.5,,,,,,
380,,no_response,,html-keyboard-response,380,647179,0.0-1.0-60.0-0.9-4.9-0.9,0,0,83590,,,,,,,,,,,,,,,,,,,,,,,,,,,,,,,,,,,,,,84.0,1.0,,,,,,
381,,iti,,html-keyboard-response,381,648695,0.0-1.0-60.0-0.9-5.9,0,0,83590,,,,,,,,,,,,,,,,,,,,,,,,,,,,,,,,,,,,,,85.5,1.5,,,,,,
382,,choice,,html-keyboard-response,382,650203,0.0-1.0-60.0-0.10-0.10,0,0,83590,,,,,,58.0,68.0,1000.0,2000.0,0.0,2.0,0.0,20-20,,,power strip,patio lounge chair,20.0,20.0,power strip14,patio lounge chair13,20.0,20.0,88b2c724-e781-44ae-85d5-27b7591f659d_400.jpg,grosfillex-bahia-resin-chaise-lounges.jpg,/static/Category_learning/Stimuli/Experimental_stims/power strip/88b2c724-e781-44ae-85d5-27b7591f659d_400.jpg,/static/Category_learning/Stimuli/Experimental_stims/patio lounge chair/grosfillex-bahia-resin-chaise-lounges.jpg,,,,,,,,,,1.0,87.0,1.5,,,,,,
383,,isi,,html-keyboard-response,383,651210,0.0-1.0-60.0-0.10-2.10,0,0,83590,,,,,,,,,,,,,,,,,,,,,,,,,,,,,,,,,,,,,,88.0,1.0,,,,,,
384,,no_response,,html-keyboard-response,384,652218,0.0-1.0-60.0-0.10-4.10-0.10,0,0,83590,,,,,,,,,,,,,,,,,,,,,,,,,,,,,,,,,,,,,,89.0,1.0,,,,,,
385,,iti,,html-keyboard-response,385,653739,0.0-1.0-60.0-0.10-5.10,0,0,83590,,,,,,,,,,,,,,,,,,,,,,,,,,,,,,,,,,,,,,90.5,1.5,,,,,,
386,,choice,,html-keyboard-response,386,655249,0.0-1.0-60.0-0.11-0.11,0,0,83590,,,,,,58.0,68.0,1000.0,2000.0,0.0,2.0,0.0,20-20,,,power strip,patio lounge chair,20.0,20.0,power strip14,patio lounge chair13,20.0,20.0,88b2c724-e781-44ae-85d5-27b7591f659d_400.jpg,grosfillex-bahia-resin-chaise-lounges.jpg,/static/Category_learning/Stimuli/Experimental_stims/power strip/88b2c724-e781-44ae-85d5-27b7591f659d_400.jpg,/static/Category_learning/Stimuli/Experimental_stims/patio lounge chair/grosfillex-bahia-resin-chaise-lounges.jpg,,,,,,,,,,1.0,92.0,1.5,,,,,,
387,,isi,,html-keyboard-response,387,657257,0.0-1.0-60.0-0.11-2.11,0,0,83590,,,,,,,,,,,,,,,,,,,,,,,,,,,,,,,,,,,,,,94.0,2.0,,,,,,
388,,no_response,,html-keyboard-response,388,658261,0.0-1.0-60.0-0.11-4.11-0.11,0,0,83590,,,,,,,,,,,,,,,,,,,,,,,,,,,,,,,,,,,,,,95.0,1.0,,,,,,
389,,iti,,html-keyboard-response,389,659781,0.0-1.0-60.0-0.11-5.11,0,0,83590,,,,,,,,,,,,,,,,,,,,,,,,,,,,,,,,,,,,,,96.5,1.5,,,,,,
390,,choice,,html-keyboard-response,390,661287,0.0-1.0-60.0-0.12-0.12,0,0,83590,,,,,,58.0,68.0,1000.0,2000.0,0.0,2.0,0.0,20-20,,,power strip,patio lounge chair,20.0,20.0,power strip14,patio lounge chair13,20.0,20.0,88b2c724-e781-44ae-85d5-27b7591f659d_400.jpg,grosfillex-bahia-resin-chaise-lounges.jpg,/static/Category_learning/Stimuli/Experimental_stims/power strip/88b2c724-e781-44ae-85d5-27b7591f659d_400.jpg,/static/Category_learning/Stimuli/Experimental_stims/patio lounge chair/grosfillex-bahia-resin-chaise-lounges.jpg,,,,,,,,,,1.0,98.0,1.5,,,,,,
391,,isi,,html-keyboard-response,391,662294,0.0-1.0-60.0-0.12-2.12,0,0,83590,,,,,,,,,,,,,,,,,,,,,,,,,,,,,,,,,,,,,,99.0,1.0,,,,,,
392,,no_response,,html-keyboard-response,392,663301,0.0-1.0-60.0-0.12-4.12-0.12,0,0,83590,,,,,,,,,,,,,,,,,,,,,,,,,,,,,,,,,,,,,,100.0,1.0,,,,,,
393,,iti,,html-keyboard-response,393,664821,0.0-1.0-60.0-0.12-5.12,0,0,83590,,,,,,,,,,,,,,,,,,,,,,,,,,,,,,,,,,,,,,101.5,1.5,,,,,,
394,,choice,,html-keyboard-response,394,666331,0.0-1.0-60.0-0.13-0.13,0,0,83590,,,,,,58.0,68.0,1000.0,2000.0,0.0,2.0,0.0,20-20,,,power strip,patio lounge chair,20.0,20.0,power strip14,patio lounge chair13,20.0,20.0,88b2c724-e781-44ae-85d5-27b7591f659d_400.jpg,grosfillex-bahia-resin-chaise-lounges.jpg,/static/Category_learning/Stimuli/Experimental_stims/power strip/88b2c724-e781-44ae-85d5-27b7591f659d_400.jpg,/static/Category_learning/Stimuli/Experimental_stims/patio lounge chair/grosfillex-bahia-resin-chaise-lounges.jpg,,,,,,,,,,1.0,103.0,1.5,,,,,,
395,,isi,,html-keyboard-response,395,667339,0.0-1.0-60.0-0.13-2.13,0,0,83590,,,,,,,,,,,,,,,,,,,,,,,,,,,,,,,,,,,,,,104.0,1.0,,,,,,
396,,no_response,,html-keyboard-response,396,668346,0.0-1.0-60.0-0.13-4.13-0.13,0,0,83590,,,,,,,,,,,,,,,,,,,,,,,,,,,,,,,,,,,,,,105.0,1.0,,,,,,
397,,iti,,html-keyboard-response,397,671867,0.0-1.0-60.0-0.13-5.13,0,0,83590,,,,,,,,,,,,,,,,,,,,,,,,,,,,,,,,,,,,,,108.5,3.5,,,,,,
398,,choice,,html-keyboard-response,398,673376,0.0-1.0-60.0-0.14-0.14,0,0,83590,,,,,,58.0,68.0,1000.0,2000.0,0.0,2.0,0.0,20-20,,,power strip,patio lounge chair,20.0,20.0,power strip14,patio lounge chair13,20.0,20.0,88b2c724-e781-44ae-85d5-27b7591f659d_400.jpg,grosfillex-bahia-resin-chaise-lounges.jpg,/static/Category_learning/Stimuli/Experimental_stims/power strip/88b2c724-e781-44ae-85d5-27b7591f659d_400.jpg,/static/Category_learning/Stimuli/Experimental_stims/patio lounge chair/grosfillex-bahia-resin-chaise-lounges.jpg,,,,,,,,,,1.0,110.0,1.5,,,,,,
399,,isi,,html-keyboard-response,399,676883,0.0-1.0-60.0-0.14-2.14,0,0,83590,,,,,,,,,,,,,,,,,,,,,,,,,,,,,,,,,,,,,,113.5,3.5,,,,,,
400,,no_response,,html-keyboard-response,400,677889,0.0-1.0-60.0-0.14-4.14-0.14,0,0,83590,,,,,,,,,,,,,,,,,,,,,,,,,,,,,,,,,,,,,,114.5,1.0,,,,,,
401,,iti,,html-keyboard-response,401,678906,0.0-1.0-60.0-0.14-5.14,0,0,83590,,,,,,,,,,,,,,,,,,,,,,,,,,,,,,,,,,,,,,115.5,1.0,,,,,,
402,,choice,,html-keyboard-response,402,680410,0.0-1.0-60.0-0.15-0.15,0,0,83590,,,,,,58.0,68.0,1000.0,2000.0,0.0,2.0,0.0,20-20,,,power strip,patio lounge chair,20.0,20.0,power strip14,patio lounge chair13,20.0,20.0,88b2c724-e781-44ae-85d5-27b7591f659d_400.jpg,grosfillex-bahia-resin-chaise-lounges.jpg,/static/Category_learning/Stimuli/Experimental_stims/power strip/88b2c724-e781-44ae-85d5-27b7591f659d_400.jpg,/static/Category_learning/Stimuli/Experimental_stims/patio lounge chair/grosfillex-bahia-resin-chaise-lounges.jpg,,,,,,,,,,1.0,117.0,1.5,,,,,,
403,,isi,,html-keyboard-response,403,683418,0.0-1.0-60.0-0.15-2.15,0,0,83590,,,,,,,,,,,,,,,,,,,,,,,,,,,,,,,,,,,,,,120.0,3.0,,,,,,
404,,no_response,,html-keyboard-response,404,684426,0.0-1.0-60.0-0.15-4.15-0.15,0,0,83590,,,,,,,,,,,,,,,,,,,,,,,,,,,,,,,,,,,,,,121.0,1.0,,,,,,
405,,iti,,html-keyboard-response,405,685444,0.0-1.0-60.0-0.15-5.15,0,0,83590,,,,,,,,,,,,,,,,,,,,,,,,,,,,,,,,,,,,,,122.0,1.0,,,,,,
406,,choice,,html-keyboard-response,406,686953,0.0-1.0-60.0-0.16-0.16,0,0,83590,,,,,,58.0,68.0,1000.0,2000.0,0.0,2.0,0.0,20-20,,,power strip,patio lounge chair,20.0,20.0,power strip14,patio lounge chair13,20.0,20.0,88b2c724-e781-44ae-85d5-27b7591f659d_400.jpg,grosfillex-bahia-resin-chaise-lounges.jpg,/static/Category_learning/Stimuli/Experimental_stims/power strip/88b2c724-e781-44ae-85d5-27b7591f659d_400.jpg,/static/Category_learning/Stimuli/Experimental_stims/patio lounge chair/grosfillex-bahia-resin-chaise-lounges.jpg,,,,,,,,,,1.0,123.5,1.5,,,,,,
407,,isi,,html-keyboard-response,407,690458,0.0-1.0-60.0-0.16-2.16,0,0,83590,,,,,,,,,,,,,,,,,,,,,,,,,,,,,,,,,,,,,,127.0,3.5,,,,,,
408,,no_response,,html-keyboard-response,408,691466,0.0-1.0-60.0-0.16-4.16-0.16,0,0,83590,,,,,,,,,,,,,,,,,,,,,,,,,,,,,,,,,,,,,,128.0,1.0,,,,,,
409,,iti,,html-keyboard-response,409,694486,0.0-1.0-60.0-0.16-5.16,0,0,83590,,,,,,,,,,,,,,,,,,,,,,,,,,,,,,,,,,,,,,131.0,3.0,,,,,,
410,,choice,,html-keyboard-response,410,695995,0.0-1.0-60.0-0.17-0.17,0,0,83590,,,,,,58.0,68.0,1000.0,2000.0,0.0,2.0,0.0,20-20,,,power strip,patio lounge chair,20.0,20.0,power strip14,patio lounge chair13,20.0,20.0,88b2c724-e781-44ae-85d5-27b7591f659d_400.jpg,grosfillex-bahia-resin-chaise-lounges.jpg,/static/Category_learning/Stimuli/Experimental_stims/power strip/88b2c724-e781-44ae-85d5-27b7591f659d_400.jpg,/static/Category_learning/Stimuli/Experimental_stims/patio lounge chair/grosfillex-bahia-resin-chaise-lounges.jpg,,,,,,,,,,1.0,132.5,1.5,,,,,,
411,,isi,,html-keyboard-response,411,697003,0.0-1.0-60.0-0.17-2.17,0,0,83590,,,,,,,,,,,,,,,,,,,,,,,,,,,,,,,,,,,,,,133.5,1.0,,,,,,
412,,no_response,,html-keyboard-response,412,698011,0.0-1.0-60.0-0.17-4.17-0.17,0,0,83590,,,,,,,,,,,,,,,,,,,,,,,,,,,,,,,,,,,,,,134.5,1.0,,,,,,
413,,iti,,html-keyboard-response,413,699034,0.0-1.0-60.0-0.17-5.17,0,0,83590,,,,,,,,,,,,,,,,,,,,,,,,,,,,,,,,,,,,,,135.5,1.0,,,,,,
414,,choice,,html-keyboard-response,414,700543,0.0-1.0-60.0-0.18-0.18,0,0,83590,,,,,,58.0,68.0,1000.0,2000.0,0.0,2.0,0.0,20-20,,,power strip,patio lounge chair,20.0,20.0,power strip14,patio lounge chair13,20.0,20.0,88b2c724-e781-44ae-85d5-27b7591f659d_400.jpg,grosfillex-bahia-resin-chaise-lounges.jpg,/static/Category_learning/Stimuli/Experimental_stims/power strip/88b2c724-e781-44ae-85d5-27b7591f659d_400.jpg,/static/Category_learning/Stimuli/Experimental_stims/patio lounge chair/grosfillex-bahia-resin-chaise-lounges.jpg,,,,,,,,,,1.0,137.0,1.5,,,,,,
415,,isi,,html-keyboard-response,415,701546,0.0-1.0-60.0-0.18-2.18,0,0,83590,,,,,,,,,,,,,,,,,,,,,,,,,,,,,,,,,,,,,,138.0,1.0,,,,,,
416,,no_response,,html-keyboard-response,416,702554,0.0-1.0-60.0-0.18-4.18-0.18,0,0,83590,,,,,,,,,,,,,,,,,,,,,,,,,,,,,,,,,,,,,,139.0,1.0,,,,,,
417,,iti,,html-keyboard-response,417,704575,0.0-1.0-60.0-0.18-5.18,0,0,83590,,,,,,,,,,,,,,,,,,,,,,,,,,,,,,,,,,,,,,141.0,2.0,,,,,,
418,,choice,,html-keyboard-response,418,706080,0.0-1.0-60.0-0.19-0.19,0,0,83590,,,,,,58.0,68.0,1000.0,2000.0,0.0,2.0,0.0,20-20,,,power strip,patio lounge chair,20.0,20.0,power strip14,patio lounge chair13,20.0,20.0,88b2c724-e781-44ae-85d5-27b7591f659d_400.jpg,grosfillex-bahia-resin-chaise-lounges.jpg,/static/Category_learning/Stimuli/Experimental_stims/power strip/88b2c724-e781-44ae-85d5-27b7591f659d_400.jpg,/static/Category_learning/Stimuli/Experimental_stims/patio lounge chair/grosfillex-bahia-resin-chaise-lounges.jpg,,,,,,,,,,1.0,142.5,1.5,,,,,,
419,,isi,,html-keyboard-response,419,707087,0.0-1.0-60.0-0.19-2.19,0,0,83590,,,,,,,,,,,,,,,,,,,,,,,,,,,,,,,,,,,,,,143.5,1.0,,,,,,
420,,no_response,,html-keyboard-response,420,708095,0.0-1.0-60.0-0.19-4.19-0.19,0,0,83590,,,,,,,,,,,,,,,,,,,,,,,,,,,,,,,,,,,,,,144.5,1.0,,,,,,
421,,iti,,html-keyboard-response,421,710117,0.0-1.0-60.0-0.19-5.19,0,0,83590,,,,,,,,,,,,,,,,,,,,,,,,,,,,,,,,,,,,,,146.5,2.0,,,,,,
422,,choice,,html-keyboard-response,422,711625,0.0-1.0-60.0-0.20-0.20,0,0,83590,,,,,,58.0,68.0,1000.0,2000.0,0.0,2.0,0.0,20-20,,,power strip,patio lounge chair,20.0,20.0,power strip14,patio lounge chair13,20.0,20.0,88b2c724-e781-44ae-85d5-27b7591f659d_400.jpg,grosfillex-bahia-resin-chaise-lounges.jpg,/static/Category_learning/Stimuli/Experimental_stims/power strip/88b2c724-e781-44ae-85d5-27b7591f659d_400.jpg,/static/Category_learning/Stimuli/Experimental_stims/patio lounge chair/grosfillex-bahia-resin-chaise-lounges.jpg,,,,,,,,,,1.0,148.0,1.5,,,,,,
423,,isi,,html-keyboard-response,423,713631,0.0-1.0-60.0-0.20-2.20,0,0,83590,,,,,,,,,,,,,,,,,,,,,,,,,,,,,,,,,,,,,,150.0,2.0,,,,,,
424,,no_response,,html-keyboard-response,424,714636,0.0-1.0-60.0-0.20-4.20-0.20,0,0,83590,,,,,,,,,,,,,,,,,,,,,,,,,,,,,,,,,,,,,,151.0,1.0,,,,,,
425,,iti,,html-keyboard-response,425,715657,0.0-1.0-60.0-0.20-5.20,0,0,83590,,,,,,,,,,,,,,,,,,,,,,,,,,,,,,,,,,,,,,152.0,1.0,,,,,,
426,,choice,,html-keyboard-response,426,717166,0.0-1.0-60.0-0.21-0.21,0,0,83590,,,,,,58.0,68.0,1000.0,2000.0,0.0,2.0,0.0,20-20,,,power strip,patio lounge chair,20.0,20.0,power strip14,patio lounge chair13,20.0,20.0,88b2c724-e781-44ae-85d5-27b7591f659d_400.jpg,grosfillex-bahia-resin-chaise-lounges.jpg,/static/Category_learning/Stimuli/Experimental_stims/power strip/88b2c724-e781-44ae-85d5-27b7591f659d_400.jpg,/static/Category_learning/Stimuli/Experimental_stims/patio lounge chair/grosfillex-bahia-resin-chaise-lounges.jpg,,,,,,,,,,1.0,153.5,1.5,,,,,,
427,,isi,,html-keyboard-response,427,719176,0.0-1.0-60.0-0.21-2.21,0,0,83590,,,,,,,,,,,,,,,,,,,,,,,,,,,,,,,,,,,,,,155.5,2.0,,,,,,
428,,no_response,,html-keyboard-response,428,720181,0.0-1.0-60.0-0.21-4.21-0.21,0,0,83590,,,,,,,,,,,,,,,,,,,,,,,,,,,,,,,,,,,,,,156.5,1.0,,,,,,
429,,iti,,html-keyboard-response,429,721203,0.0-1.0-60.0-0.21-5.21,0,0,83590,,,,,,,,,,,,,,,,,,,,,,,,,,,,,,,,,,,,,,157.5,1.0,,,,,,
430,,choice,,html-keyboard-response,430,722709,0.0-1.0-60.0-0.22-0.22,0,0,83590,,,,,,58.0,68.0,1000.0,2000.0,0.0,2.0,0.0,20-20,,,power strip,patio lounge chair,20.0,20.0,power strip14,patio lounge chair13,20.0,20.0,88b2c724-e781-44ae-85d5-27b7591f659d_400.jpg,grosfillex-bahia-resin-chaise-lounges.jpg,/static/Category_learning/Stimuli/Experimental_stims/power strip/88b2c724-e781-44ae-85d5-27b7591f659d_400.jpg,/static/Category_learning/Stimuli/Experimental_stims/patio lounge chair/grosfillex-bahia-resin-chaise-lounges.jpg,,,,,,,,,,1.0,159.0,1.5,,,,,,
431,,isi,,html-keyboard-response,431,723718,0.0-1.0-60.0-0.22-2.22,0,0,83590,,,,,,,,,,,,,,,,,,,,,,,,,,,,,,,,,,,,,,160.0,1.0,,,,,,
432,,no_response,,html-keyboard-response,432,724724,0.0-1.0-60.0-0.22-4.22-0.22,0,0,83590,,,,,,,,,,,,,,,,,,,,,,,,,,,,,,,,,,,,,,161.0,1.0,,,,,,
433,,iti,,html-keyboard-response,433,725743,0.0-1.0-60.0-0.22-5.22,0,0,83590,,,,,,,,,,,,,,,,,,,,,,,,,,,,,,,,,,,,,,162.0,1.0,,,,,,
434,,choice,,html-keyboard-response,434,727253,0.0-1.0-60.0-0.23-0.23,0,0,83590,,,,,,58.0,68.0,1000.0,2000.0,0.0,2.0,0.0,20-20,,,power strip,patio lounge chair,20.0,20.0,power strip14,patio lounge chair13,20.0,20.0,88b2c724-e781-44ae-85d5-27b7591f659d_400.jpg,grosfillex-bahia-resin-chaise-lounges.jpg,/static/Category_learning/Stimuli/Experimental_stims/power strip/88b2c724-e781-44ae-85d5-27b7591f659d_400.jpg,/static/Category_learning/Stimuli/Experimental_stims/patio lounge chair/grosfillex-bahia-resin-chaise-lounges.jpg,,,,,,,,,,1.0,163.5,1.5,,,,,,
435,,isi,,html-keyboard-response,435,729258,0.0-1.0-60.0-0.23-2.23,0,0,83590,,,,,,,,,,,,,,,,,,,,,,,,,,,,,,,,,,,,,,165.5,2.0,,,,,,
436,,no_response,,html-keyboard-response,436,730260,0.0-1.0-60.0-0.23-4.23-0.23,0,0,83590,,,,,,,,,,,,,,,,,,,,,,,,,,,,,,,,,,,,,,166.5,1.0,,,,,,
437,,iti,,html-keyboard-response,437,731775,0.0-1.0-60.0-0.23-5.23,0,0,83590,,,,,,,,,,,,,,,,,,,,,,,,,,,,,,,,,,,,,,168.0,1.5,,,,,,
438,,choice,,html-keyboard-response,438,733280,0.0-1.0-60.0-0.24-0.24,0,0,83590,,,,,,58.0,68.0,1000.0,2000.0,0.0,2.0,0.0,20-20,,,power strip,patio lounge chair,20.0,20.0,power strip14,patio lounge chair13,20.0,20.0,88b2c724-e781-44ae-85d5-27b7591f659d_400.jpg,grosfillex-bahia-resin-chaise-lounges.jpg,/static/Category_learning/Stimuli/Experimental_stims/power strip/88b2c724-e781-44ae-85d5-27b7591f659d_400.jpg,/static/Category_learning/Stimuli/Experimental_stims/patio lounge chair/grosfillex-bahia-resin-chaise-lounges.jpg,,,,,,,,,,1.0,169.5,1.5,,,,,,
439,,isi,,html-keyboard-response,439,734288,0.0-1.0-60.0-0.24-2.24,0,0,83590,,,,,,,,,,,,,,,,,,,,,,,,,,,,,,,,,,,,,,170.5,1.0,,,,,,
440,,no_response,,html-keyboard-response,440,735295,0.0-1.0-60.0-0.24-4.24-0.24,0,0,83590,,,,,,,,,,,,,,,,,,,,,,,,,,,,,,,,,,,,,,171.5,1.0,,,,,,
441,,iti,,html-keyboard-response,441,738817,0.0-1.0-60.0-0.24-5.24,0,0,83590,,,,,,,,,,,,,,,,,,,,,,,,,,,,,,,,,,,,,,175.0,3.5,,,,,,
442,,choice,,html-keyboard-response,442,740325,0.0-1.0-60.0-0.25-0.25,0,0,83590,,,,,,58.0,68.0,1000.0,2000.0,0.0,2.0,0.0,20-20,,,power strip,patio lounge chair,20.0,20.0,power strip14,patio lounge chair13,20.0,20.0,88b2c724-e781-44ae-85d5-27b7591f659d_400.jpg,grosfillex-bahia-resin-chaise-lounges.jpg,/static/Category_learning/Stimuli/Experimental_stims/power strip/88b2c724-e781-44ae-85d5-27b7591f659d_400.jpg,/static/Category_learning/Stimuli/Experimental_stims/patio lounge chair/grosfillex-bahia-resin-chaise-lounges.jpg,,,,,,,,,,1.0,176.5,1.5,,,,,,
443,,isi,,html-keyboard-response,443,741831,0.0-1.0-60.0-0.25-2.25,0,0,83590,,,,,,,,,,,,,,,,,,,,,,,,,,,,,,,,,,,,,,178.0,1.5,,,,,,
444,,no_response,,html-keyboard-response,444,742840,0.0-1.0-60.0-0.25-4.25-0.25,0,0,83590,,,,,,,,,,,,,,,,,,,,,,,,,,,,,,,,,,,,,,179.0,1.0,,,,,,
445,,iti,,html-keyboard-response,445,744357,0.0-1.0-60.0-0.25-5.25,0,0,83590,,,,,,,,,,,,,,,,,,,,,,,,,,,,,,,,,,,,,,180.5,1.5,,,,,,
446,,choice,,html-keyboard-response,446,745866,0.0-1.0-60.0-0.26-0.26,0,0,83590,,,,,,58.0,68.0,1000.0,2000.0,0.0,2.0,0.0,20-20,,,power strip,patio lounge chair,20.0,20.0,power strip14,patio lounge chair13,20.0,20.0,88b2c724-e781-44ae-85d5-27b7591f659d_400.jpg,grosfillex-bahia-resin-chaise-lounges.jpg,/static/Category_learning/Stimuli/Experimental_stims/power strip/88b2c724-e781-44ae-85d5-27b7591f659d_400.jpg,/static/Category_learning/Stimuli/Experimental_stims/patio lounge chair/grosfillex-bahia-resin-chaise-lounges.jpg,,,,,,,,,,1.0,182.0,1.5,,,,,,
447,,isi,,html-keyboard-response,447,746875,0.0-1.0-60.0-0.26-2.26,0,0,83590,,,,,,,,,,,,,,,,,,,,,,,,,,,,,,,,,,,,,,183.0,1.0,,,,,,
448,,no_response,,html-keyboard-response,448,747882,0.0-1.0-60.0-0.26-4.26-0.26,0,0,83590,,,,,,,,,,,,,,,,,,,,,,,,,,,,,,,,,,,,,,184.0,1.0,,,,,,
449,,iti,,html-keyboard-response,449,748902,0.0-1.0-60.0-0.26-5.26,0,0,83590,,,,,,,,,,,,,,,,,,,,,,,,,,,,,,,,,,,,,,185.0,1.0,,,,,,
450,,choice,,html-keyboard-response,450,750410,0.0-1.0-60.0-0.27-0.27,0,0,83590,,,,,,58.0,68.0,1000.0,2000.0,0.0,2.0,0.0,20-20,,,power strip,patio lounge chair,20.0,20.0,power strip14,patio lounge chair13,20.0,20.0,88b2c724-e781-44ae-85d5-27b7591f659d_400.jpg,grosfillex-bahia-resin-chaise-lounges.jpg,/static/Category_learning/Stimuli/Experimental_stims/power strip/88b2c724-e781-44ae-85d5-27b7591f659d_400.jpg,/static/Category_learning/Stimuli/Experimental_stims/patio lounge chair/grosfillex-bahia-resin-chaise-lounges.jpg,,,,,,,,,,1.0,186.5,1.5,,,,,,
451,,isi,,html-keyboard-response,451,753418,0.0-1.0-60.0-0.27-2.27,0,0,83590,,,,,,,,,,,,,,,,,,,,,,,,,,,,,,,,,,,,,,189.5,3.0,,,,,,
452,,no_response,,html-keyboard-response,452,754427,0.0-1.0-60.0-0.27-4.27-0.27,0,0,83590,,,,,,,,,,,,,,,,,,,,,,,,,,,,,,,,,,,,,,190.5,1.0,,,,,,
453,,iti,,html-keyboard-response,453,755451,0.0-1.0-60.0-0.27-5.27,0,0,83590,,,,,,,,,,,,,,,,,,,,,,,,,,,,,,,,,,,,,,191.5,1.0,,,,,,
454,,choice,,html-keyboard-response,454,756959,0.0-1.0-60.0-0.28-0.28,0,0,83590,,,,,,58.0,68.0,1000.0,2000.0,0.0,2.0,0.0,20-20,,,power strip,patio lounge chair,20.0,20.0,power strip14,patio lounge chair13,20.0,20.0,88b2c724-e781-44ae-85d5-27b7591f659d_400.jpg,grosfillex-bahia-resin-chaise-lounges.jpg,/static/Category_learning/Stimuli/Experimental_stims/power strip/88b2c724-e781-44ae-85d5-27b7591f659d_400.jpg,/static/Category_learning/Stimuli/Experimental_stims/patio lounge chair/grosfillex-bahia-resin-chaise-lounges.jpg,,,,,,,,,,1.0,193.0,1.5,,,,,,
455,,isi,,html-keyboard-response,455,758468,0.0-1.0-60.0-0.28-2.28,0,0,83590,,,,,,,,,,,,,,,,,,,,,,,,,,,,,,,,,,,,,,194.5,1.5,,,,,,
456,,no_response,,html-keyboard-response,456,759476,0.0-1.0-60.0-0.28-4.28-0.28,0,0,83590,,,,,,,,,,,,,,,,,,,,,,,,,,,,,,,,,,,,,,195.5,1.0,,,,,,
457,,iti,,html-keyboard-response,457,760498,0.0-1.0-60.0-0.28-5.28,0,0,83590,,,,,,,,,,,,,,,,,,,,,,,,,,,,,,,,,,,,,,196.5,1.0,,,,,,
458,,choice,,html-keyboard-response,458,762005,0.0-1.0-60.0-0.29-0.29,0,0,83590,,,,,,58.0,68.0,1000.0,2000.0,0.0,2.0,0.0,20-20,,,power strip,patio lounge chair,20.0,20.0,power strip14,patio lounge chair13,20.0,20.0,88b2c724-e781-44ae-85d5-27b7591f659d_400.jpg,grosfillex-bahia-resin-chaise-lounges.jpg,/static/Category_learning/Stimuli/Experimental_stims/power strip/88b2c724-e781-44ae-85d5-27b7591f659d_400.jpg,/static/Category_learning/Stimuli/Experimental_stims/patio lounge chair/grosfillex-bahia-resin-chaise-lounges.jpg,,,,,,,,,,1.0,198.0,1.5,,,,,,
459,,isi,,html-keyboard-response,459,763014,0.0-1.0-60.0-0.29-2.29,0,0,83590,,,,,,,,,,,,,,,,,,,,,,,,,,,,,,,,,,,,,,199.0,1.0,,,,,,
460,,no_response,,html-keyboard-response,460,764023,0.0-1.0-60.0-0.29-4.29-0.29,0,0,83590,,,,,,,,,,,,,,,,,,,,,,,,,,,,,,,,,,,,,,200.0,1.0,,,,,,
461,,iti,,html-keyboard-response,461,766044,0.0-1.0-60.0-0.29-5.29,0,0,83590,,,,,,,,,,,,,,,,,,,,,,,,,,,,,,,,,,,,,,202.0,2.0,,,,,,
462,,choice,,html-keyboard-response,462,767552,0.0-1.0-60.0-0.30-0.30,0,0,83590,,,,,,58.0,68.0,1000.0,2000.0,0.0,2.0,0.0,20-20,,,power strip,patio lounge chair,20.0,20.0,power strip14,patio lounge chair13,20.0,20.0,88b2c724-e781-44ae-85d5-27b7591f659d_400.jpg,grosfillex-bahia-resin-chaise-lounges.jpg,/static/Category_learning/Stimuli/Experimental_stims/power strip/88b2c724-e781-44ae-85d5-27b7591f659d_400.jpg,/static/Category_learning/Stimuli/Experimental_stims/patio lounge chair/grosfillex-bahia-resin-chaise-lounges.jpg,,,,,,,,,,1.0,203.5,1.5,,,,,,
463,,isi,,html-keyboard-response,463,768560,0.0-1.0-60.0-0.30-2.30,0,0,83590,,,,,,,,,,,,,,,,,,,,,,,,,,,,,,,,,,,,,,204.5,1.0,,,,,,
464,,no_response,,html-keyboard-response,464,769568,0.0-1.0-60.0-0.30-4.30-0.30,0,0,83590,,,,,,,,,,,,,,,,,,,,,,,,,,,,,,,,,,,,,,205.5,1.0,,,,,,
465,,iti,,html-keyboard-response,465,770592,0.0-1.0-60.0-0.30-5.30,0,0,83590,,,,,,,,,,,,,,,,,,,,,,,,,,,,,,,,,,,,,,206.5,1.0,,,,,,
466,,choice,,html-keyboard-response,466,772102,0.0-1.0-60.0-0.31-0.31,0,0,83590,,,,,,58.0,68.0,1000.0,2000.0,0.0,2.0,0.0,20-20,,,power strip,patio lounge chair,20.0,20.0,power strip14,patio lounge chair13,20.0,20.0,88b2c724-e781-44ae-85d5-27b7591f659d_400.jpg,grosfillex-bahia-resin-chaise-lounges.jpg,/static/Category_learning/Stimuli/Experimental_stims/power strip/88b2c724-e781-44ae-85d5-27b7591f659d_400.jpg,/static/Category_learning/Stimuli/Experimental_stims/patio lounge chair/grosfillex-bahia-resin-chaise-lounges.jpg,,,,,,,,,,1.0,208.0,1.5,,,,,,
467,,isi,,html-keyboard-response,467,773108,0.0-1.0-60.0-0.31-2.31,0,0,83590,,,,,,,,,,,,,,,,,,,,,,,,,,,,,,,,,,,,,,209.0,1.0,,,,,,
468,,no_response,,html-keyboard-response,468,774115,0.0-1.0-60.0-0.31-4.31-0.31,0,0,83590,,,,,,,,,,,,,,,,,,,,,,,,,,,,,,,,,,,,,,210.0,1.0,,,,,,
