,success,ttype,start_time,trial_type,trial_index,time_elapsed,internal_node_id,warning,missed_checkup,PID,view_history,rt,responses,repeat_instructions,key_press,index,trial_num,isi,iti,is_practice,block,old_trial,pair_type,within_category,high_cat_on_left,left_category,right_category,left_category_value,right_category_value,left_exemplar,right_exemplar,left_exemplar_value,right_exemplar_value,left_img,right_img,left_img_path,right_img_path,left_chosen,chosen_category,unchosen_category,chosen_category_value,unchosen_category_value,chosen_exemplar,unchosen_exemplar,chosen_exemplar_value,unchosen_exemplar_value,no_response,onset,duration,end_practice,total_bonus_tally,category,category_group_value,category_value_response,did_not_enter_response
0,True,full_screen,d06032022hr1632,fullscreen,0,36406,0.0-0.0,0,0,54497,,,,,,,,,,,,,,,,,,,,,,,,,,,,,,,,,,,,,,,,,,,,,
1,,category_learning_instructions,,instructions,1,97509,0.0-1.0-0.0-0.0,0,0,54497,"[{""page_index"":0,""viewing_time"":6728},{""page_index"":1,""viewing_time"":11179},{""page_index"":2,""viewing_time"":10537},{""page_index"":3,""viewing_time"":15227},{""page_index"":4,""viewing_time"":9972},{""page_index"":5,""viewing_time"":4675},{""page_index"":6,""viewing_time"":2778}]",61098.0,,,,,,,,,,,,,,,,,,,,,,,,,,,,,,,,,,,,,,,,,,,
2,,category_learning_comprehension_check,,survey-multi-choice,2,117544,0.0-1.0-0.0-1.0,0,0,54497,,20026.0,"{""Q0"":""True"",""Q1"":""True"",""Q2"":""Stay the same"",""Q3"":""D for left and K for right""}",0.0,,,,,,,,,,,,,,,,,,,,,,,,,,,,,,,,,,,,,,,,,
3,,,,html-keyboard-response,3,126297,0.0-1.0-1.0,0,0,54497,,8747.0,,,68.0,,,,,,,,,,,,,,,,,,,,,,,,,,,,,,,,,,,,,,,,
4,,choice,,html-keyboard-response,4,127046,0.0-1.0-2.0-0.0-0.0,0,0,54497,,743.0,,,68.0,0.0,0.0,1500.0,1000.0,1.0,0.0,0.0,20-80,,0.0,bagel,dumbbell,20.0,80.0,bagel1,dumbbell1,0.0,80.0,bagels_pumpernickel_large.jpg,31B64EN68AL._AA280_.jpg,/static/Category_learning/Stimuli/Practice_stims/bagel/bagels_pumpernickel_large.jpg,/static/Category_learning/Stimuli/Practice_stims/dumbbell/31B64EN68AL._AA280_.jpg,1.0,bagel,dumbbell,20.0,80.0,bagel1,dumbbell1,0.0,80.0,0.0,0.743,0.743,,,,,,
5,,confirmation,,html-keyboard-response,5,127810,0.0-1.0-2.0-0.0-1.0-0.0,0,0,54497,,,,,,0.0,,,,,,,,,,,,,,,,,,,,,,,,,,,,,,,,1.5,0.757,,,,,,
6,,isi,,html-keyboard-response,6,129317,0.0-1.0-2.0-0.0-2.0,0,0,54497,,,,,,,,,,,,,,,,,,,,,,,,,,,,,,,,,,,,,,3.0,1.5,,,,,,
7,,feedback,,html-keyboard-response,7,130323,0.0-1.0-2.0-0.0-3.0-0.0,0,0,54497,,,,,,0.0,,,,,,,,,,,,,,,,,,,,,,,,,,,,,,,,4.0,1.0,,,,,,
8,,iti,,html-keyboard-response,8,131330,0.0-1.0-2.0-0.0-5.0,0,0,54497,,,,,,,,,,,,,,,,,,,,,,,,,,,,,,,,,,,,,,5.0,1.0,,,,,,
9,,choice,,html-keyboard-response,9,132156,0.0-1.0-3.0-0.0-0.0,0,0,54497,,818.0,,,68.0,1.0,1.0,3000.0,1500.0,1.0,0.0,0.0,20-40,,1.0,calculator,bagel,40.0,20.0,calculator2,bagel2,20.0,20.0,22829064.thl.jpg,bagels_cinnraisin_large.jpg,/static/Category_learning/Stimuli/Practice_stims/calculator/22829064.thl.jpg,/static/Category_learning/Stimuli/Practice_stims/bagel/bagels_cinnraisin_large.jpg,1.0,calculator,bagel,40.0,20.0,calculator2,bagel2,20.0,20.0,0.0,5.818,0.818,,,,,,
10,,confirmation,,html-keyboard-response,10,132845,0.0-1.0-3.0-0.0-1.0-0.0,0,0,54497,,,,,,1.0,,,,,,,,,,,,,,,,,,,,,,,,,,,,,,,,6.5,0.682,,,,,,
11,,isi,,html-keyboard-response,11,135850,0.0-1.0-3.0-0.0-2.0,0,0,54497,,,,,,,,,,,,,,,,,,,,,,,,,,,,,,,,,,,,,,9.5,3.0,,,,,,
12,,feedback,,html-keyboard-response,12,136857,0.0-1.0-3.0-0.0-3.0-0.0,0,0,54497,,,,,,1.0,,,,,,,,,,,,,,,,,,,,,,,,,,,,,,,,10.5,1.0,,,,,,
13,,iti,,html-keyboard-response,13,138363,0.0-1.0-3.0-0.0-5.0,0,0,54497,,,,,,,,,,,,,,,,,,,,,,,,,,,,,,,,,,,,,,12.0,1.5,,,,,,
14,,choice,,html-keyboard-response,14,139143,0.0-1.0-4.0-0.0-0.0,0,0,54497,,773.0,,,75.0,2.0,2.0,2000.0,3000.0,1.0,0.0,0.0,60-80,,0.0,clock,dumbbell,60.0,80.0,clock2,dumbbell2,60.0,100.0,26373355.thl.jpg,31K8MR6TMBL._SS500_.jpg,/static/Category_learning/Stimuli/Practice_stims/clock/26373355.thl.jpg,/static/Category_learning/Stimuli/Practice_stims/dumbbell/31K8MR6TMBL._SS500_.jpg,0.0,dumbbell,clock,80.0,60.0,dumbbell2,clock2,100.0,60.0,0.0,12.773,0.773,,,,,,
15,,confirmation,,html-keyboard-response,15,139875,0.0-1.0-4.0-0.0-1.0-0.0,0,0,54497,,,,,,2.0,,,,,,,,,,,,,,,,,,,,,,,,,,,,,,,,13.5,0.727,,,,,,
16,,isi,,html-keyboard-response,16,141880,0.0-1.0-4.0-0.0-2.0,0,0,54497,,,,,,,,,,,,,,,,,,,,,,,,,,,,,,,,,,,,,,15.5,2.0,,,,,,
17,,feedback,,html-keyboard-response,17,142886,0.0-1.0-4.0-0.0-3.0-0.0,0,0,54497,,,,,,2.0,,,,,,,,,,,,,,,,,,,,,,,,,,,,,,,,16.5,1.0,,,,,,
18,,iti,,html-keyboard-response,18,145891,0.0-1.0-4.0-0.0-5.0,0,0,54497,,,,,,,,,,,,,,,,,,,,,,,,,,,,,,,,,,,,,,19.5,3.0,,,,,,
19,,choice,,html-keyboard-response,19,146854,0.0-1.0-5.0-0.0-0.0,0,0,54497,,956.0,,,75.0,3.0,3.0,1000.0,2000.0,1.0,0.0,0.0,40-80,,0.0,calculator,clock,40.0,60.0,calculator1,clock1,40.0,40.0,22829184.thl.jpg,Aalarmclock2.jpg,/static/Category_learning/Stimuli/Practice_stims/calculator/22829184.thl.jpg,/static/Category_learning/Stimuli/Practice_stims/clock/Aalarmclock2.jpg,0.0,clock,calculator,60.0,40.0,clock1,calculator1,40.0,40.0,0.0,20.456,0.956,,,,,,
20,,confirmation,,html-keyboard-response,20,147404,0.0-1.0-5.0-0.0-1.0-0.0,0,0,54497,,,,,,3.0,,,,,,,,,,,,,,,,,,,,,,,,,,,,,,,,21.0,0.544,,,,,,
21,,isi,,html-keyboard-response,21,148409,0.0-1.0-5.0-0.0-2.0,0,0,54497,,,,,,,,,,,,,,,,,,,,,,,,,,,,,,,,,,,,,,22.0,1.0,,,,,,
22,,feedback,,html-keyboard-response,22,149415,0.0-1.0-5.0-0.0-3.0-0.0,0,0,54497,,,,,,3.0,,,,,,,,,,,,,,,,,,,,,,,,,,,,,,,,23.0,1.0,,,,,,
23,,iti,,html-keyboard-response,23,151421,0.0-1.0-5.0-0.0-5.0,0,0,54497,,,,,,,,,,,,,,,,,,,,,,,,,,,,,,,,,,,,,,25.0,2.0,,,,,,
24,,choice,,html-keyboard-response,24,152254,0.0-1.0-6.0-0.0-0.0,0,0,54497,,828.0,,,68.0,4.0,4.0,2500.0,2500.0,1.0,0.0,0.0,20-60,,1.0,dumbbell,bagel,80.0,20.0,dumbbell3,bagel3,100.0,40.0,41K7QVRX50L._SS500_.jpg,photo-169.jpg,/static/Category_learning/Stimuli/Practice_stims/dumbbell/41K7QVRX50L._SS500_.jpg,/static/Category_learning/Stimuli/Practice_stims/bagel/photo-169.jpg,1.0,dumbbell,bagel,80.0,20.0,dumbbell3,bagel3,100.0,40.0,0.0,25.828,0.828,1.0,,,,,
25,,confirmation,,html-keyboard-response,25,152933,0.0-1.0-6.0-0.0-1.0-0.0,0,0,54497,,,,,,4.0,,,,,,,,,,,,,,,,,,,,,,,,,,,,,,,,26.5,0.672,,,,,,
26,,isi,,html-keyboard-response,26,155439,0.0-1.0-6.0-0.0-2.0,0,0,54497,,,,,,,,,,,,,,,,,,,,,,,,,,,,,,,,,,,,,,29.0,2.5,,,,,,
27,,feedback,,html-keyboard-response,27,156445,0.0-1.0-6.0-0.0-3.0-0.0,0,0,54497,,,,,,4.0,,,,,,,,,,,,,,,,,,,,,,,,,,,,,,,,30.0,1.0,,,,,,
28,,iti,,html-keyboard-response,28,158951,0.0-1.0-6.0-0.0-5.0,0,0,54497,,,,,,,,,,,,,,,,,,,,,,,,,,,,,,,,,,,,,,32.5,2.5,,,,,,
29,,practice_over,,html-keyboard-response,29,160956,0.0-1.0-6.0-0.0-6.0-0.0,0,0,54497,,1999.0,,,68.0,4.0,,,,,,,,,,,,,,,,,,,,,,,,,,,,,,,,,,,,,,,
30,,start_run,,html-keyboard-response,30,163673,0.0-1.0-6.0-0.0-6.0-1.0,0,0,54497,,2713.0,,,84.0,,,,,,,,,,,,,,,,,,,,,,,,,,,,,,,,,,,,,,,,
31,,choice,,html-keyboard-response,31,164287,0.0-1.0-7.0-0.0-0.0,0,0,54497,,607.0,,,68.0,5.0,5.0,1000.0,1500.0,0.0,1.0,0.0,40-40,,,door knob,desk,40.0,40.0,door knob15,desk9,60.0,20.0,Legacy_oval.jpg,desk 189dr96dr chr.jpg,/static/Category_learning/Stimuli/Experimental_stims/door knob/Legacy_oval.jpg,/static/Category_learning/Stimuli/Experimental_stims/desk/desk 189dr96dr chr.jpg,1.0,door knob,desk,40.0,40.0,door knob15,desk9,60.0,20.0,0.0,0.607,0.607,,,,,,
32,,confirmation,,html-keyboard-response,32,165187,0.0-1.0-7.0-0.0-1.0-0.0,0,0,54497,,,,,,5.0,,,,,,,,,,,,,,,,,,,,,,,,,,,,,,,,1.5,0.893,,,,,,
33,,isi,,html-keyboard-response,33,166193,0.0-1.0-7.0-0.0-2.0,0,0,54497,,,,,,,,,,,,,,,,,,,,,,,,,,,,,,,,,,,,,,2.5,1.0,,,,,,
34,,feedback,,html-keyboard-response,34,167199,0.0-1.0-7.0-0.0-3.0-0.0,0,0,54497,,,,,,5.0,,,,,,,,,,,,,,,,,,,,,,,,,,,,,,,,3.5,1.0,,,,,,
35,,iti,,html-keyboard-response,35,168705,0.0-1.0-7.0-0.0-5.0,0,0,54497,,,,,,,,,,,,,,,,,,,,,,,,,,,,,,,,,,,,,,5.0,1.5,,,,,,
36,,choice,,html-keyboard-response,36,169301,0.0-1.0-8.0-0.0-0.0,0,0,54497,,590.0,,,75.0,6.0,6.0,1500.0,2000.0,0.0,1.0,0.0,40-80,,1.0,pen,door knob,80.0,40.0,pen12,door knob7,100.0,20.0,pen02.jpg,doorknob2.jpg,/static/Category_learning/Stimuli/Experimental_stims/pen/pen02.jpg,/static/Category_learning/Stimuli/Experimental_stims/door knob/doorknob2.jpg,0.0,door knob,pen,40.0,80.0,door knob7,pen12,20.0,100.0,0.0,5.59,0.59,,,,,,
37,,confirmation,,html-keyboard-response,37,170218,0.0-1.0-8.0-0.0-1.0-0.0,0,0,54497,,,,,,6.0,,,,,,,,,,,,,,,,,,,,,,,,,,,,,,,,6.5,0.91,,,,,,
38,,isi,,html-keyboard-response,38,171723,0.0-1.0-8.0-0.0-2.0,0,0,54497,,,,,,,,,,,,,,,,,,,,,,,,,,,,,,,,,,,,,,8.0,1.5,,,,,,
39,,feedback,,html-keyboard-response,39,172729,0.0-1.0-8.0-0.0-3.0-0.0,0,0,54497,,,,,,6.0,,,,,,,,,,,,,,,,,,,,,,,,,,,,,,,,9.0,1.0,,,,,,
40,,iti,,html-keyboard-response,40,174735,0.0-1.0-8.0-0.0-5.0,0,0,54497,,,,,,,,,,,,,,,,,,,,,,,,,,,,,,,,,,,,,,11.0,2.0,,,,,,
41,,choice,,html-keyboard-response,41,175526,0.0-1.0-9.0-0.0-0.0,0,0,54497,,786.0,,,75.0,7.0,7.0,1000.0,1500.0,0.0,1.0,0.0,80-80,,,seashell,pen,80.0,80.0,seashell3,pen3,80.0,80.0,coquillage.jpg,pen08.jpg,/static/Category_learning/Stimuli/Experimental_stims/seashell/coquillage.jpg,/static/Category_learning/Stimuli/Experimental_stims/pen/pen08.jpg,0.0,pen,seashell,80.0,80.0,pen3,seashell3,80.0,80.0,0.0,11.786,0.786,,,,,,
42,,confirmation,,html-keyboard-response,42,176246,0.0-1.0-9.0-0.0-1.0-0.0,0,0,54497,,,,,,7.0,,,,,,,,,,,,,,,,,,,,,,,,,,,,,,,,12.5,0.714,,,,,,
43,,isi,,html-keyboard-response,43,177252,0.0-1.0-9.0-0.0-2.0,0,0,54497,,,,,,,,,,,,,,,,,,,,,,,,,,,,,,,,,,,,,,13.5,1.0,,,,,,
44,,feedback,,html-keyboard-response,44,178258,0.0-1.0-9.0-0.0-3.0-0.0,0,0,54497,,,,,,7.0,,,,,,,,,,,,,,,,,,,,,,,,,,,,,,,,14.5,1.0,,,,,,
45,,iti,,html-keyboard-response,45,179765,0.0-1.0-9.0-0.0-5.0,0,0,54497,,,,,,,,,,,,,,,,,,,,,,,,,,,,,,,,,,,,,,16.0,1.5,,,,,,
46,,choice,,html-keyboard-response,46,180625,0.0-1.0-10.0-0.0-0.0,0,0,54497,,855.0,,,75.0,8.0,8.0,1000.0,2000.0,0.0,1.0,0.0,60-60,,,lipstick,key chain,60.0,60.0,lipstick10,key chain1,60.0,80.0,21K0D7QKFAL._SS500_.jpg,jm05s16.jpg,/static/Category_learning/Stimuli/Experimental_stims/lipstick/21K0D7QKFAL._SS500_.jpg,/static/Category_learning/Stimuli/Experimental_stims/key chain/jm05s16.jpg,0.0,key chain,lipstick,60.0,60.0,key chain1,lipstick10,80.0,60.0,0.0,16.855,0.855,,,,,,
47,,confirmation,,html-keyboard-response,47,181276,0.0-1.0-10.0-0.0-1.0-0.0,0,0,54497,,,,,,8.0,,,,,,,,,,,,,,,,,,,,,,,,,,,,,,,,17.5,0.645,,,,,,
48,,isi,,html-keyboard-response,48,182282,0.0-1.0-10.0-0.0-2.0,0,0,54497,,,,,,,,,,,,,,,,,,,,,,,,,,,,,,,,,,,,,,18.5,1.0,,,,,,
49,,feedback,,html-keyboard-response,49,183289,0.0-1.0-10.0-0.0-3.0-0.0,0,0,54497,,,,,,8.0,,,,,,,,,,,,,,,,,,,,,,,,,,,,,,,,19.5,1.0,,,,,,
50,,iti,,html-keyboard-response,50,185297,0.0-1.0-10.0-0.0-5.0,0,0,54497,,,,,,,,,,,,,,,,,,,,,,,,,,,,,,,,,,,,,,21.5,2.0,,,,,,
51,,choice,,html-keyboard-response,51,185967,0.0-1.0-11.0-0.0-0.0,0,0,54497,,665.0,,,68.0,9.0,9.0,3000.0,1500.0,0.0,1.0,0.0,60-80,,0.0,makeup compact,patio lounge chair,60.0,80.0,makeup compact4,patio lounge chair15,40.0,60.0,262668_fpx.jpg,phpThumb.jpg,/static/Category_learning/Stimuli/Experimental_stims/makeup compact/262668_fpx.jpg,/static/Category_learning/Stimuli/Experimental_stims/patio lounge chair/phpThumb.jpg,1.0,makeup compact,patio lounge chair,60.0,80.0,makeup compact4,patio lounge chair15,40.0,60.0,0.0,22.165,0.665,,,,,,
52,,confirmation,,html-keyboard-response,52,186809,0.0-1.0-11.0-0.0-1.0-0.0,0,0,54497,,,,,,9.0,,,,,,,,,,,,,,,,,,,,,,,,,,,,,,,,23.0,0.835,,,,,,
53,,isi,,html-keyboard-response,53,189815,0.0-1.0-11.0-0.0-2.0,0,0,54497,,,,,,,,,,,,,,,,,,,,,,,,,,,,,,,,,,,,,,26.0,3.0,,,,,,
54,,feedback,,html-keyboard-response,54,190820,0.0-1.0-11.0-0.0-3.0-0.0,0,0,54497,,,,,,9.0,,,,,,,,,,,,,,,,,,,,,,,,,,,,,,,,27.0,1.0,,,,,,
55,,iti,,html-keyboard-response,55,192326,0.0-1.0-11.0-0.0-5.0,0,0,54497,,,,,,,,,,,,,,,,,,,,,,,,,,,,,,,,,,,,,,28.5,1.5,,,,,,
56,,choice,,html-keyboard-response,56,193422,0.0-1.0-12.0-0.0-0.0,0,0,54497,,1090.0,,,75.0,10.0,10.0,2000.0,1500.0,0.0,1.0,1.0,40-40,1.0,,door knob,door knob,40.0,40.0,door knob15,door knob7,60.0,20.0,Legacy_oval.jpg,doorknob2.jpg,/static/Category_learning/Stimuli/Experimental_stims/door knob/Legacy_oval.jpg,/static/Category_learning/Stimuli/Experimental_stims/door knob/doorknob2.jpg,0.0,door knob,door knob,40.0,40.0,door knob7,door knob15,20.0,60.0,0.0,29.59,1.09,,,,,,
57,,confirmation,,html-keyboard-response,57,193840,0.0-1.0-12.0-0.0-1.0-0.0,0,0,54497,,,,,,10.0,,,,,,,,,,,,,,,,,,,,,,,,,,,,,,,,30.0,0.41,,,,,,
58,,isi,,html-keyboard-response,58,195847,0.0-1.0-12.0-0.0-2.0,0,0,54497,,,,,,,,,,,,,,,,,,,,,,,,,,,,,,,,,,,,,,32.0,2.0,,,,,,
59,,feedback,,html-keyboard-response,59,196854,0.0-1.0-12.0-0.0-3.0-0.0,0,0,54497,,,,,,10.0,,,,,,,,,,,,,,,,,,,,,,,,,,,,,,,,33.0,1.0,,,,,,
60,,iti,,html-keyboard-response,60,198360,0.0-1.0-12.0-0.0-5.0,0,0,54497,,,,,,,,,,,,,,,,,,,,,,,,,,,,,,,,,,,,,,34.5,1.5,,,,,,
61,,choice,,html-keyboard-response,61,199013,0.0-1.0-13.0-0.0-0.0,0,0,54497,,648.0,,,75.0,11.0,11.0,3500.0,1000.0,0.0,1.0,0.0,40-40,,,bongo,flashlight,40.0,40.0,bongo3,flashlight5,60.0,60.0,26390697.thl.jpg,Streamlight-71001-Jr-Flashlight-W-batteries-black-B00018A3CG-L.jpg,/static/Category_learning/Stimuli/Experimental_stims/bongo/26390697.thl.jpg,/static/Category_learning/Stimuli/Experimental_stims/flashlight/Streamlight-71001-Jr-Flashlight-W-batteries-black-B00018A3CG-L.jpg,0.0,flashlight,bongo,40.0,40.0,flashlight5,bongo3,60.0,60.0,0.0,35.148,0.648,,,,,,
62,,confirmation,,html-keyboard-response,62,199886,0.0-1.0-13.0-0.0-1.0-0.0,0,0,54497,,,,,,11.0,,,,,,,,,,,,,,,,,,,,,,,,,,,,,,,,36.0,0.852,,,,,,
63,,isi,,html-keyboard-response,63,203393,0.0-1.0-13.0-0.0-2.0,0,0,54497,,,,,,,,,,,,,,,,,,,,,,,,,,,,,,,,,,,,,,39.5,3.5,,,,,,
64,,feedback,,html-keyboard-response,64,204398,0.0-1.0-13.0-0.0-3.0-0.0,0,0,54497,,,,,,11.0,,,,,,,,,,,,,,,,,,,,,,,,,,,,,,,,40.5,1.0,,,,,,
65,,iti,,html-keyboard-response,65,205404,0.0-1.0-13.0-0.0-5.0,0,0,54497,,,,,,,,,,,,,,,,,,,,,,,,,,,,,,,,,,,,,,41.5,1.0,,,,,,
66,,choice,,html-keyboard-response,66,206481,0.0-1.0-14.0-0.0-0.0,0,0,54497,,1071.0,,,75.0,12.0,12.0,1500.0,1000.0,0.0,1.0,1.0,60-80,0.0,,key chain,pen,60.0,80.0,key chain1,pen3,80.0,80.0,jm05s16.jpg,pen08.jpg,/static/Category_learning/Stimuli/Experimental_stims/key chain/jm05s16.jpg,/static/Category_learning/Stimuli/Experimental_stims/pen/pen08.jpg,0.0,pen,key chain,80.0,60.0,pen3,key chain1,80.0,80.0,0.0,42.571,1.071,,,,,,
67,,confirmation,,html-keyboard-response,67,206917,0.0-1.0-14.0-0.0-1.0-0.0,0,0,54497,,,,,,12.0,,,,,,,,,,,,,,,,,,,,,,,,,,,,,,,,43.0,0.429,,,,,,
68,,isi,,html-keyboard-response,68,208423,0.0-1.0-14.0-0.0-2.0,0,0,54497,,,,,,,,,,,,,,,,,,,,,,,,,,,,,,,,,,,,,,44.5,1.5,,,,,,
69,,feedback,,html-keyboard-response,69,209429,0.0-1.0-14.0-0.0-3.0-0.0,0,0,54497,,,,,,12.0,,,,,,,,,,,,,,,,,,,,,,,,,,,,,,,,45.5,1.0,,,,,,
70,,iti,,html-keyboard-response,70,210436,0.0-1.0-14.0-0.0-5.0,0,0,54497,,,,,,,,,,,,,,,,,,,,,,,,,,,,,,,,,,,,,,46.5,1.0,,,,,,
71,,choice,,html-keyboard-response,71,211067,0.0-1.0-15.0-0.0-0.0,0,0,54497,,626.0,,,68.0,13.0,13.0,2000.0,1000.0,0.0,1.0,0.0,40-60,,0.0,desk,hammer,40.0,60.0,desk8,hammer2,60.0,40.0,26370118.thl.jpg,hammer04.jpg,/static/Category_learning/Stimuli/Experimental_stims/desk/26370118.thl.jpg,/static/Category_learning/Stimuli/Experimental_stims/hammer/hammer04.jpg,1.0,desk,hammer,40.0,60.0,desk8,hammer2,60.0,40.0,0.0,47.126,0.626,,,,,,
72,,confirmation,,html-keyboard-response,72,211946,0.0-1.0-15.0-0.0-1.0-0.0,0,0,54497,,,,,,13.0,,,,,,,,,,,,,,,,,,,,,,,,,,,,,,,,48.0,0.874,,,,,,
73,,isi,,html-keyboard-response,73,213956,0.0-1.0-15.0-0.0-2.0,0,0,54497,,,,,,,,,,,,,,,,,,,,,,,,,,,,,,,,,,,,,,50.0,2.0,,,,,,
74,,feedback,,html-keyboard-response,74,214963,0.0-1.0-15.0-0.0-3.0-0.0,0,0,54497,,,,,,13.0,,,,,,,,,,,,,,,,,,,,,,,,,,,,,,,,51.0,1.0,,,,,,
75,,iti,,html-keyboard-response,75,215969,0.0-1.0-15.0-0.0-5.0,0,0,54497,,,,,,,,,,,,,,,,,,,,,,,,,,,,,,,,,,,,,,52.0,1.0,,,,,,
76,,choice,,html-keyboard-response,76,216640,0.0-1.0-16.0-0.0-0.0,0,0,54497,,664.0,,,75.0,14.0,14.0,2000.0,2000.0,0.0,1.0,0.0,60-60,,,license plate,hammer,60.0,60.0,license plate2,hammer5,60.0,60.0,ny-u93-8zs.jpg,hammer02.jpg,/static/Category_learning/Stimuli/Experimental_stims/license plate/ny-u93-8zs.jpg,/static/Category_learning/Stimuli/Experimental_stims/hammer/hammer02.jpg,0.0,hammer,license plate,60.0,60.0,hammer5,license plate2,60.0,60.0,0.0,52.664,0.664,,,,,,
77,,confirmation,,html-keyboard-response,77,217483,0.0-1.0-16.0-0.0-1.0-0.0,0,0,54497,,,,,,14.0,,,,,,,,,,,,,,,,,,,,,,,,,,,,,,,,53.5,0.836,,,,,,
78,,isi,,html-keyboard-response,78,219488,0.0-1.0-16.0-0.0-2.0,0,0,54497,,,,,,,,,,,,,,,,,,,,,,,,,,,,,,,,,,,,,,55.5,2.0,,,,,,
79,,feedback,,html-keyboard-response,79,220495,0.0-1.0-16.0-0.0-3.0-0.0,0,0,54497,,,,,,14.0,,,,,,,,,,,,,,,,,,,,,,,,,,,,,,,,56.5,1.0,,,,,,
80,,iti,,html-keyboard-response,80,222502,0.0-1.0-16.0-0.0-5.0,0,0,54497,,,,,,,,,,,,,,,,,,,,,,,,,,,,,,,,,,,,,,58.5,2.0,,,,,,
81,,choice,,html-keyboard-response,81,223334,0.0-1.0-17.0-0.0-0.0,0,0,54497,,826.0,,,75.0,15.0,15.0,1500.0,2000.0,0.0,1.0,0.0,20-20,,,train,tape,20.0,20.0,train9,tape13,20.0,20.0,train2.jpg,920152.jpg,/static/Category_learning/Stimuli/Experimental_stims/train/train2.jpg,/static/Category_learning/Stimuli/Experimental_stims/tape/920152.jpg,0.0,tape,train,20.0,20.0,tape13,train9,20.0,20.0,0.0,59.326,0.826,,,,,,
82,,confirmation,,html-keyboard-response,82,224015,0.0-1.0-17.0-0.0-1.0-0.0,0,0,54497,,,,,,15.0,,,,,,,,,,,,,,,,,,,,,,,,,,,,,,,,60.0,0.674,,,,,,
83,,isi,,html-keyboard-response,83,225521,0.0-1.0-17.0-0.0-2.0,0,0,54497,,,,,,,,,,,,,,,,,,,,,,,,,,,,,,,,,,,,,,61.5,1.5,,,,,,
84,,feedback,,html-keyboard-response,84,226528,0.0-1.0-17.0-0.0-3.0-0.0,0,0,54497,,,,,,15.0,,,,,,,,,,,,,,,,,,,,,,,,,,,,,,,,62.5,1.0,,,,,,
85,,iti,,html-keyboard-response,85,228534,0.0-1.0-17.0-0.0-5.0,0,0,54497,,,,,,,,,,,,,,,,,,,,,,,,,,,,,,,,,,,,,,64.5,2.0,,,,,,
86,,choice,,html-keyboard-response,86,229334,0.0-1.0-18.0-0.0-0.0,0,0,54497,,793.0,,,75.0,16.0,16.0,1500.0,2000.0,0.0,1.0,0.0,20-40,,0.0,trumpet,bongo,20.0,40.0,trumpet10,bongo14,40.0,40.0,trumpet2.jpg,26390667.thl.jpg,/static/Category_learning/Stimuli/Experimental_stims/trumpet/trumpet2.jpg,/static/Category_learning/Stimuli/Experimental_stims/bongo/26390667.thl.jpg,0.0,bongo,trumpet,40.0,20.0,bongo14,trumpet10,40.0,40.0,0.0,65.293,0.793,,,,,,
87,,confirmation,,html-keyboard-response,87,230048,0.0-1.0-18.0-0.0-1.0-0.0,0,0,54497,,,,,,16.0,,,,,,,,,,,,,,,,,,,,,,,,,,,,,,,,66.0,0.707,,,,,,
88,,isi,,html-keyboard-response,88,231554,0.0-1.0-18.0-0.0-2.0,0,0,54497,,,,,,,,,,,,,,,,,,,,,,,,,,,,,,,,,,,,,,67.5,1.5,,,,,,
89,,feedback,,html-keyboard-response,89,232560,0.0-1.0-18.0-0.0-3.0-0.0,0,0,54497,,,,,,16.0,,,,,,,,,,,,,,,,,,,,,,,,,,,,,,,,68.5,1.0,,,,,,
90,,iti,,html-keyboard-response,90,234566,0.0-1.0-18.0-0.0-5.0,0,0,54497,,,,,,,,,,,,,,,,,,,,,,,,,,,,,,,,,,,,,,70.5,2.0,,,,,,
91,,choice,,html-keyboard-response,91,235229,0.0-1.0-19.0-0.0-0.0,0,0,54497,,660.0,,,68.0,17.0,17.0,2000.0,3500.0,0.0,1.0,0.0,20-60,,0.0,trumpet,lipstick,20.0,60.0,trumpet1,lipstick4,40.0,60.0,JUPITER+TROMPETTE+606MRL.JPG,P145703_hero.jpg,/static/Category_learning/Stimuli/Experimental_stims/trumpet/JUPITER+TROMPETTE+606MRL.JPG,/static/Category_learning/Stimuli/Experimental_stims/lipstick/P145703_hero.jpg,1.0,trumpet,lipstick,20.0,60.0,trumpet1,lipstick4,40.0,60.0,0.0,71.16,0.66,,,,,,
92,,confirmation,,html-keyboard-response,92,236075,0.0-1.0-19.0-0.0-1.0-0.0,0,0,54497,,,,,,17.0,,,,,,,,,,,,,,,,,,,,,,,,,,,,,,,,72.0,0.84,,,,,,
93,,isi,,html-keyboard-response,93,238081,0.0-1.0-19.0-0.0-2.0,0,0,54497,,,,,,,,,,,,,,,,,,,,,,,,,,,,,,,,,,,,,,74.0,2.0,,,,,,
94,,feedback,,html-keyboard-response,94,239087,0.0-1.0-19.0-0.0-3.0-0.0,0,0,54497,,,,,,17.0,,,,,,,,,,,,,,,,,,,,,,,,,,,,,,,,75.0,1.0,,,,,,
95,,iti,,html-keyboard-response,95,242593,0.0-1.0-19.0-0.0-5.0,0,0,54497,,,,,,,,,,,,,,,,,,,,,,,,,,,,,,,,,,,,,,78.5,3.5,,,,,,
96,,choice,,html-keyboard-response,96,243541,0.0-1.0-20.0-0.0-0.0,0,0,54497,,940.0,,,68.0,18.0,18.0,1500.0,2000.0,0.0,1.0,1.0,20-40,0.0,,desk,tape,40.0,20.0,desk8,tape13,60.0,20.0,26370118.thl.jpg,920152.jpg,/static/Category_learning/Stimuli/Experimental_stims/desk/26370118.thl.jpg,/static/Category_learning/Stimuli/Experimental_stims/tape/920152.jpg,1.0,desk,tape,40.0,20.0,desk8,tape13,60.0,20.0,0.0,79.44,0.94,,,,,,
97,,confirmation,,html-keyboard-response,97,244106,0.0-1.0-20.0-0.0-1.0-0.0,0,0,54497,,,,,,18.0,,,,,,,,,,,,,,,,,,,,,,,,,,,,,,,,80.0,0.56,,,,,,
98,,isi,,html-keyboard-response,98,245611,0.0-1.0-20.0-0.0-2.0,0,0,54497,,,,,,,,,,,,,,,,,,,,,,,,,,,,,,,,,,,,,,81.5,1.5,,,,,,
99,,feedback,,html-keyboard-response,99,246618,0.0-1.0-20.0-0.0-3.0-0.0,0,0,54497,,,,,,18.0,,,,,,,,,,,,,,,,,,,,,,,,,,,,,,,,82.5,1.0,,,,,,
100,,iti,,html-keyboard-response,100,248625,0.0-1.0-20.0-0.0-5.0,0,0,54497,,,,,,,,,,,,,,,,,,,,,,,,,,,,,,,,,,,,,,84.5,2.0,,,,,,
101,,choice,,html-keyboard-response,101,249451,0.0-1.0-21.0-0.0-0.0,0,0,54497,,824.0,,,75.0,19.0,19.0,1500.0,1000.0,0.0,1.0,0.0,20-60,,0.0,train,motorcycle,20.0,60.0,train6,motorcycle10,0.0,40.0,train9.jpg,motorcycle17.jpg,/static/Category_learning/Stimuli/Experimental_stims/train/train9.jpg,/static/Category_learning/Stimuli/Experimental_stims/motorcycle/motorcycle17.jpg,0.0,motorcycle,train,60.0,20.0,motorcycle10,train6,40.0,0.0,0.0,85.324,0.824,,,,,,
102,,confirmation,,html-keyboard-response,102,250133,0.0-1.0-21.0-0.0-1.0-0.0,0,0,54497,,,,,,19.0,,,,,,,,,,,,,,,,,,,,,,,,,,,,,,,,86.0,0.676,,,,,,
103,,isi,,html-keyboard-response,103,251639,0.0-1.0-21.0-0.0-2.0,0,0,54497,,,,,,,,,,,,,,,,,,,,,,,,,,,,,,,,,,,,,,87.5,1.5,,,,,,
104,,feedback,,html-keyboard-response,104,252645,0.0-1.0-21.0-0.0-3.0-0.0,0,0,54497,,,,,,19.0,,,,,,,,,,,,,,,,,,,,,,,,,,,,,,,,88.5,1.0,,,,,,
105,,iti,,html-keyboard-response,105,253651,0.0-1.0-21.0-0.0-5.0,0,0,54497,,,,,,,,,,,,,,,,,,,,,,,,,,,,,,,,,,,,,,89.5,1.0,,,,,,
106,,choice,,html-keyboard-response,106,254358,0.0-1.0-22.0-0.0-0.0,0,0,54497,,702.0,,,68.0,20.0,20.0,1000.0,3000.0,0.0,1.0,0.0,40-60,,0.0,dresser,license plate,40.0,60.0,dresser9,license plate9,20.0,80.0,ADRESSER.jpg,nm-dhg089.jpg,/static/Category_learning/Stimuli/Experimental_stims/dresser/ADRESSER.jpg,/static/Category_learning/Stimuli/Experimental_stims/license plate/nm-dhg089.jpg,1.0,dresser,license plate,40.0,60.0,dresser9,license plate9,20.0,80.0,0.0,90.202,0.702,,,,,,
107,,confirmation,,html-keyboard-response,107,255163,0.0-1.0-22.0-0.0-1.0-0.0,0,0,54497,,,,,,20.0,,,,,,,,,,,,,,,,,,,,,,,,,,,,,,,,91.0,0.798,,,,,,
108,,isi,,html-keyboard-response,108,256170,0.0-1.0-22.0-0.0-2.0,0,0,54497,,,,,,,,,,,,,,,,,,,,,,,,,,,,,,,,,,,,,,92.0,1.0,,,,,,
109,,feedback,,html-keyboard-response,109,257176,0.0-1.0-22.0-0.0-3.0-0.0,0,0,54497,,,,,,20.0,,,,,,,,,,,,,,,,,,,,,,,,,,,,,,,,93.0,1.0,,,,,,
110,,iti,,html-keyboard-response,110,260183,0.0-1.0-22.0-0.0-5.0,0,0,54497,,,,,,,,,,,,,,,,,,,,,,,,,,,,,,,,,,,,,,96.0,3.0,,,,,,
111,,choice,,html-keyboard-response,111,260838,0.0-1.0-23.0-0.0-0.0,0,0,54497,,649.0,,,75.0,21.0,21.0,2000.0,1000.0,0.0,1.0,0.0,40-80,,1.0,seashell,desk,80.0,40.0,seashell4,desk3,60.0,60.0,seashell.jpg,D-1 Four drawers desk Elm 64x23x33.jpg,/static/Category_learning/Stimuli/Experimental_stims/seashell/seashell.jpg,/static/Category_learning/Stimuli/Experimental_stims/desk/D-1 Four drawers desk Elm 64x23x33.jpg,0.0,desk,seashell,40.0,80.0,desk3,seashell4,60.0,60.0,0.0,96.649,0.649,,,,,,
112,,confirmation,,html-keyboard-response,112,261696,0.0-1.0-23.0-0.0-1.0-0.0,0,0,54497,,,,,,21.0,,,,,,,,,,,,,,,,,,,,,,,,,,,,,,,,97.5,0.851,,,,,,
113,,isi,,html-keyboard-response,113,263701,0.0-1.0-23.0-0.0-2.0,0,0,54497,,,,,,,,,,,,,,,,,,,,,,,,,,,,,,,,,,,,,,99.5,2.0,,,,,,
114,,feedback,,html-keyboard-response,114,264708,0.0-1.0-23.0-0.0-3.0-0.0,0,0,54497,,,,,,21.0,,,,,,,,,,,,,,,,,,,,,,,,,,,,,,,,100.5,1.0,,,,,,
115,,iti,,html-keyboard-response,115,265718,0.0-1.0-23.0-0.0-5.0,0,0,54497,,,,,,,,,,,,,,,,,,,,,,,,,,,,,,,,,,,,,,101.5,1.0,,,,,,
116,,choice,,html-keyboard-response,116,266365,0.0-1.0-24.0-0.0-0.0,0,0,54497,,641.0,,,68.0,22.0,22.0,1000.0,3500.0,0.0,1.0,0.0,20-40,,1.0,bench,yarn,40.0,20.0,bench5,yarn5,20.0,0.0,APARKBEN8.jpg,Aballofyarn14.jpg,/static/Category_learning/Stimuli/Experimental_stims/bench/APARKBEN8.jpg,/static/Category_learning/Stimuli/Experimental_stims/yarn/Aballofyarn14.jpg,1.0,bench,yarn,40.0,20.0,bench5,yarn5,20.0,0.0,0.0,102.141,0.641,,,,,,
117,,confirmation,,html-keyboard-response,117,267231,0.0-1.0-24.0-0.0-1.0-0.0,0,0,54497,,,,,,22.0,,,,,,,,,,,,,,,,,,,,,,,,,,,,,,,,103.0,0.859,,,,,,
118,,isi,,html-keyboard-response,118,268235,0.0-1.0-24.0-0.0-2.0,0,0,54497,,,,,,,,,,,,,,,,,,,,,,,,,,,,,,,,,,,,,,104.0,1.0,,,,,,
119,,feedback,,html-keyboard-response,119,269241,0.0-1.0-24.0-0.0-3.0-0.0,0,0,54497,,,,,,22.0,,,,,,,,,,,,,,,,,,,,,,,,,,,,,,,,105.0,1.0,,,,,,
120,,iti,,html-keyboard-response,120,272747,0.0-1.0-24.0-0.0-5.0,0,0,54497,,,,,,,,,,,,,,,,,,,,,,,,,,,,,,,,,,,,,,108.5,3.5,,,,,,
121,,choice,,html-keyboard-response,121,273701,0.0-1.0-25.0-0.0-0.0,0,0,54497,,946.0,,,68.0,23.0,23.0,2000.0,1500.0,0.0,1.0,0.0,60-80,,1.0,necklace,hammer,80.0,60.0,necklace6,hammer6,100.0,80.0,Agoldnecklace.jpg,hammer03.jpg,/static/Category_learning/Stimuli/Experimental_stims/necklace/Agoldnecklace.jpg,/static/Category_learning/Stimuli/Experimental_stims/hammer/hammer03.jpg,1.0,necklace,hammer,80.0,60.0,necklace6,hammer6,100.0,80.0,0.0,109.446,0.946,,,,,,
122,,confirmation,,html-keyboard-response,122,274272,0.0-1.0-25.0-0.0-1.0-0.0,0,0,54497,,,,,,23.0,,,,,,,,,,,,,,,,,,,,,,,,,,,,,,,,110.0,0.554,,,,,,
123,,isi,,html-keyboard-response,123,276278,0.0-1.0-25.0-0.0-2.0,0,0,54497,,,,,,,,,,,,,,,,,,,,,,,,,,,,,,,,,,,,,,112.0,2.0,,,,,,
124,,feedback,,html-keyboard-response,124,277285,0.0-1.0-25.0-0.0-3.0-0.0,0,0,54497,,,,,,23.0,,,,,,,,,,,,,,,,,,,,,,,,,,,,,,,,113.0,1.0,,,,,,
125,,iti,,html-keyboard-response,125,278791,0.0-1.0-25.0-0.0-5.0,0,0,54497,,,,,,,,,,,,,,,,,,,,,,,,,,,,,,,,,,,,,,114.5,1.5,,,,,,
126,,choice,,html-keyboard-response,126,279413,0.0-1.0-26.0-0.0-0.0,0,0,54497,,617.0,,,68.0,24.0,24.0,3500.0,1500.0,0.0,1.0,0.0,20-20,,,watch,yarn,20.0,20.0,watch4,yarn9,40.0,40.0,B000EI2NBW.01._AA280_SCLZZZZZZZ_.jpg,Aballofyarn26.jpg,/static/Category_learning/Stimuli/Experimental_stims/watch/B000EI2NBW.01._AA280_SCLZZZZZZZ_.jpg,/static/Category_learning/Stimuli/Experimental_stims/yarn/Aballofyarn26.jpg,1.0,watch,yarn,20.0,20.0,watch4,yarn9,40.0,40.0,0.0,115.117,0.617,,,,,,
127,,confirmation,,html-keyboard-response,127,280311,0.0-1.0-26.0-0.0-1.0-0.0,0,0,54497,,,,,,24.0,,,,,,,,,,,,,,,,,,,,,,,,,,,,,,,,116.0,0.883,,,,,,
128,,isi,,html-keyboard-response,128,283816,0.0-1.0-26.0-0.0-2.0,0,0,54497,,,,,,,,,,,,,,,,,,,,,,,,,,,,,,,,,,,,,,119.5,3.5,,,,,,
129,,feedback,,html-keyboard-response,129,284824,0.0-1.0-26.0-0.0-3.0-0.0,0,0,54497,,,,,,24.0,,,,,,,,,,,,,,,,,,,,,,,,,,,,,,,,120.5,1.0,,,,,,
130,,iti,,html-keyboard-response,130,286331,0.0-1.0-26.0-0.0-5.0,0,0,54497,,,,,,,,,,,,,,,,,,,,,,,,,,,,,,,,,,,,,,122.0,1.5,,,,,,
131,,choice,,html-keyboard-response,131,287378,0.0-1.0-27.0-0.0-0.0,0,0,54497,,1043.0,,,75.0,25.0,25.0,1000.0,1000.0,0.0,1.0,0.0,40-60,,1.0,motorcycle,door knob,60.0,40.0,motorcycle15,door knob1,80.0,40.0,2006-Buell-LightningXB12Sa.jpg,Brass_Door_Handle.jpg,/static/Category_learning/Stimuli/Experimental_stims/motorcycle/2006-Buell-LightningXB12Sa.jpg,/static/Category_learning/Stimuli/Experimental_stims/door knob/Brass_Door_Handle.jpg,0.0,door knob,motorcycle,40.0,60.0,door knob1,motorcycle15,40.0,80.0,0.0,123.043,1.043,,,,,,
132,,confirmation,,html-keyboard-response,132,287843,0.0-1.0-27.0-0.0-1.0-0.0,0,0,54497,,,,,,25.0,,,,,,,,,,,,,,,,,,,,,,,,,,,,,,,,123.5,0.457,,,,,,
133,,isi,,html-keyboard-response,133,288850,0.0-1.0-27.0-0.0-2.0,0,0,54497,,,,,,,,,,,,,,,,,,,,,,,,,,,,,,,,,,,,,,124.5,1.0,,,,,,
134,,feedback,,html-keyboard-response,134,289858,0.0-1.0-27.0-0.0-3.0-0.0,0,0,54497,,,,,,25.0,,,,,,,,,,,,,,,,,,,,,,,,,,,,,,,,125.5,1.0,,,,,,
135,,iti,,html-keyboard-response,135,290865,0.0-1.0-27.0-0.0-5.0,0,0,54497,,,,,,,,,,,,,,,,,,,,,,,,,,,,,,,,,,,,,,126.5,1.0,,,,,,
136,,choice,,html-keyboard-response,136,291916,0.0-1.0-28.0-0.0-0.0,0,0,54497,,1046.0,,,75.0,26.0,26.0,1000.0,1000.0,0.0,1.0,0.0,40-60,,1.0,hammer,door knob,60.0,40.0,hammer8,door knob10,40.0,20.0,ct1006_hammer.jpg,c02a578d-c6cc-44ca-8dd2-de8901e30bd7_4.jpg,/static/Category_learning/Stimuli/Experimental_stims/hammer/ct1006_hammer.jpg,/static/Category_learning/Stimuli/Experimental_stims/door knob/c02a578d-c6cc-44ca-8dd2-de8901e30bd7_4.jpg,0.0,door knob,hammer,40.0,60.0,door knob10,hammer8,20.0,40.0,0.0,127.546,1.046,,,,,,
137,,confirmation,,html-keyboard-response,137,292375,0.0-1.0-28.0-0.0-1.0-0.0,0,0,54497,,,,,,26.0,,,,,,,,,,,,,,,,,,,,,,,,,,,,,,,,128.0,0.454,,,,,,
138,,isi,,html-keyboard-response,138,293380,0.0-1.0-28.0-0.0-2.0,0,0,54497,,,,,,,,,,,,,,,,,,,,,,,,,,,,,,,,,,,,,,129.0,1.0,,,,,,
139,,feedback,,html-keyboard-response,139,294386,0.0-1.0-28.0-0.0-3.0-0.0,0,0,54497,,,,,,26.0,,,,,,,,,,,,,,,,,,,,,,,,,,,,,,,,130.0,1.0,,,,,,
140,,iti,,html-keyboard-response,140,295391,0.0-1.0-28.0-0.0-5.0,0,0,54497,,,,,,,,,,,,,,,,,,,,,,,,,,,,,,,,,,,,,,131.0,1.0,,,,,,
141,,choice,,html-keyboard-response,141,296496,0.0-1.0-29.0-0.0-0.0,0,0,54497,,1098.0,,,75.0,27.0,27.0,1500.0,1000.0,0.0,1.0,0.0,20-80,,1.0,small table,vase,80.0,20.0,small table7,vase4,80.0,40.0,ATABLE89.jpg,Avase111.jpg,/static/Category_learning/Stimuli/Experimental_stims/small table/ATABLE89.jpg,/static/Category_learning/Stimuli/Experimental_stims/vase/Avase111.jpg,0.0,vase,small table,20.0,80.0,vase4,small table7,40.0,80.0,0.0,132.098,1.098,,,,,,
142,,confirmation,,html-keyboard-response,142,296904,0.0-1.0-29.0-0.0-1.0-0.0,0,0,54497,,,,,,27.0,,,,,,,,,,,,,,,,,,,,,,,,,,,,,,,,132.5,0.402,,,,,,
143,,isi,,html-keyboard-response,143,298410,0.0-1.0-29.0-0.0-2.0,0,0,54497,,,,,,,,,,,,,,,,,,,,,,,,,,,,,,,,,,,,,,134.0,1.5,,,,,,
144,,feedback,,html-keyboard-response,144,299416,0.0-1.0-29.0-0.0-3.0-0.0,0,0,54497,,,,,,27.0,,,,,,,,,,,,,,,,,,,,,,,,,,,,,,,,135.0,1.0,,,,,,
145,,iti,,html-keyboard-response,145,300422,0.0-1.0-29.0-0.0-5.0,0,0,54497,,,,,,,,,,,,,,,,,,,,,,,,,,,,,,,,,,,,,,136.0,1.0,,,,,,
146,,choice,,html-keyboard-response,146,301231,0.0-1.0-30.0-0.0-0.0,0,0,54497,,803.0,,,75.0,28.0,28.0,1000.0,1000.0,0.0,1.0,1.0,40-40,1.0,,door knob,door knob,40.0,40.0,door knob10,door knob1,20.0,40.0,c02a578d-c6cc-44ca-8dd2-de8901e30bd7_4.jpg,Brass_Door_Handle.jpg,/static/Category_learning/Stimuli/Experimental_stims/door knob/c02a578d-c6cc-44ca-8dd2-de8901e30bd7_4.jpg,/static/Category_learning/Stimuli/Experimental_stims/door knob/Brass_Door_Handle.jpg,0.0,door knob,door knob,40.0,40.0,door knob1,door knob10,40.0,20.0,0.0,136.803,0.803,,,,,,
147,,confirmation,,html-keyboard-response,147,301934,0.0-1.0-30.0-0.0-1.0-0.0,0,0,54497,,,,,,28.0,,,,,,,,,,,,,,,,,,,,,,,,,,,,,,,,137.5,0.697,,,,,,
148,,isi,,html-keyboard-response,148,302940,0.0-1.0-30.0-0.0-2.0,0,0,54497,,,,,,,,,,,,,,,,,,,,,,,,,,,,,,,,,,,,,,138.5,1.0,,,,,,
149,,feedback,,html-keyboard-response,149,303947,0.0-1.0-30.0-0.0-3.0-0.0,0,0,54497,,,,,,28.0,,,,,,,,,,,,,,,,,,,,,,,,,,,,,,,,139.5,1.0,,,,,,
150,,iti,,html-keyboard-response,150,304952,0.0-1.0-30.0-0.0-5.0,0,0,54497,,,,,,,,,,,,,,,,,,,,,,,,,,,,,,,,,,,,,,140.5,1.0,,,,,,
151,,choice,,html-keyboard-response,151,305681,0.0-1.0-31.0-0.0-0.0,0,0,54497,,723.0,,,75.0,29.0,29.0,3500.0,1000.0,0.0,1.0,0.0,40-40,,,fan,bench,40.0,40.0,fan5,bench12,20.0,20.0,Table_Fan.jpg,22927976.thl.jpg,/static/Category_learning/Stimuli/Experimental_stims/fan/Table_Fan.jpg,/static/Category_learning/Stimuli/Experimental_stims/bench/22927976.thl.jpg,0.0,bench,fan,40.0,40.0,bench12,fan5,20.0,20.0,0.0,141.223,0.723,,,,,,
152,,confirmation,,html-keyboard-response,152,306467,0.0-1.0-31.0-0.0-1.0-0.0,0,0,54497,,,,,,29.0,,,,,,,,,,,,,,,,,,,,,,,,,,,,,,,,142.0,0.777,,,,,,
153,,isi,,html-keyboard-response,153,309973,0.0-1.0-31.0-0.0-2.0,0,0,54497,,,,,,,,,,,,,,,,,,,,,,,,,,,,,,,,,,,,,,145.5,3.5,,,,,,
154,,feedback,,html-keyboard-response,154,310980,0.0-1.0-31.0-0.0-3.0-0.0,0,0,54497,,,,,,29.0,,,,,,,,,,,,,,,,,,,,,,,,,,,,,,,,146.5,1.0,,,,,,
155,,iti,,html-keyboard-response,155,311986,0.0-1.0-31.0-0.0-5.0,0,0,54497,,,,,,,,,,,,,,,,,,,,,,,,,,,,,,,,,,,,,,147.5,1.0,,,,,,
156,,choice,,html-keyboard-response,156,312755,0.0-1.0-32.0-0.0-0.0,0,0,54497,,763.0,,,75.0,30.0,30.0,1000.0,3000.0,0.0,1.0,1.0,40-40,1.0,,bench,bench,40.0,40.0,bench5,bench12,20.0,20.0,APARKBEN8.jpg,22927976.thl.jpg,/static/Category_learning/Stimuli/Experimental_stims/bench/APARKBEN8.jpg,/static/Category_learning/Stimuli/Experimental_stims/bench/22927976.thl.jpg,0.0,bench,bench,40.0,40.0,bench12,bench5,20.0,20.0,0.0,148.263,0.763,,,,,,
157,,confirmation,,html-keyboard-response,157,313498,0.0-1.0-32.0-0.0-1.0-0.0,0,0,54497,,,,,,30.0,,,,,,,,,,,,,,,,,,,,,,,,,,,,,,,,149.0,0.737,,,,,,
158,,isi,,html-keyboard-response,158,314502,0.0-1.0-32.0-0.0-2.0,0,0,54497,,,,,,,,,,,,,,,,,,,,,,,,,,,,,,,,,,,,,,150.0,1.0,,,,,,
159,,feedback,,html-keyboard-response,159,315508,0.0-1.0-32.0-0.0-3.0-0.0,0,0,54497,,,,,,30.0,,,,,,,,,,,,,,,,,,,,,,,,,,,,,,,,151.0,1.0,,,,,,
160,,iti,,html-keyboard-response,160,318514,0.0-1.0-32.0-0.0-5.0,0,0,54497,,,,,,,,,,,,,,,,,,,,,,,,,,,,,,,,,,,,,,154.0,3.0,,,,,,
161,,choice,,html-keyboard-response,161,319246,0.0-1.0-33.0-0.0-0.0,0,0,54497,,726.0,,,75.0,31.0,31.0,1500.0,1500.0,0.0,1.0,0.0,80-80,,,sofa,patio lounge chair,80.0,80.0,sofa15,patio lounge chair9,100.0,80.0,APEACHLOV.jpg,43-3.jpg,/static/Category_learning/Stimuli/Experimental_stims/sofa/APEACHLOV.jpg,/static/Category_learning/Stimuli/Experimental_stims/patio lounge chair/43-3.jpg,0.0,patio lounge chair,sofa,80.0,80.0,patio lounge chair9,sofa15,80.0,100.0,0.0,154.726,0.726,,,,,,
162,,confirmation,,html-keyboard-response,162,320027,0.0-1.0-33.0-0.0-1.0-0.0,0,0,54497,,,,,,31.0,,,,,,,,,,,,,,,,,,,,,,,,,,,,,,,,155.5,0.774,,,,,,
163,,isi,,html-keyboard-response,163,321532,0.0-1.0-33.0-0.0-2.0,0,0,54497,,,,,,,,,,,,,,,,,,,,,,,,,,,,,,,,,,,,,,157.0,1.5,,,,,,
164,,feedback,,html-keyboard-response,164,322540,0.0-1.0-33.0-0.0-3.0-0.0,0,0,54497,,,,,,31.0,,,,,,,,,,,,,,,,,,,,,,,,,,,,,,,,158.0,1.0,,,,,,
165,,iti,,html-keyboard-response,165,324046,0.0-1.0-33.0-0.0-5.0,0,0,54497,,,,,,,,,,,,,,,,,,,,,,,,,,,,,,,,,,,,,,159.5,1.5,,,,,,
166,,choice,,html-keyboard-response,166,325058,0.0-1.0-34.0-0.0-0.0,0,0,54497,,1005.0,,,68.0,32.0,32.0,1000.0,1000.0,0.0,1.0,0.0,20-80,,1.0,necklace,vase,80.0,20.0,necklace1,vase12,100.0,0.0,26443173.thl.jpg,Abluevase2.jpg,/static/Category_learning/Stimuli/Experimental_stims/necklace/26443173.thl.jpg,/static/Category_learning/Stimuli/Experimental_stims/vase/Abluevase2.jpg,1.0,necklace,vase,80.0,20.0,necklace1,vase12,100.0,0.0,0.0,160.505,1.005,,,,,,
167,,confirmation,,html-keyboard-response,167,325561,0.0-1.0-34.0-0.0-1.0-0.0,0,0,54497,,,,,,32.0,,,,,,,,,,,,,,,,,,,,,,,,,,,,,,,,161.0,0.495,,,,,,
168,,isi,,html-keyboard-response,168,326567,0.0-1.0-34.0-0.0-2.0,0,0,54497,,,,,,,,,,,,,,,,,,,,,,,,,,,,,,,,,,,,,,162.0,1.0,,,,,,
169,,feedback,,html-keyboard-response,169,327573,0.0-1.0-34.0-0.0-3.0-0.0,0,0,54497,,,,,,32.0,,,,,,,,,,,,,,,,,,,,,,,,,,,,,,,,163.0,1.0,,,,,,
170,,iti,,html-keyboard-response,170,328579,0.0-1.0-34.0-0.0-5.0,0,0,54497,,,,,,,,,,,,,,,,,,,,,,,,,,,,,,,,,,,,,,164.0,1.0,,,,,,
171,,choice,,html-keyboard-response,171,329418,0.0-1.0-35.0-0.0-0.0,0,0,54497,,832.0,,,75.0,33.0,33.0,3500.0,1000.0,0.0,1.0,0.0,40-80,,1.0,nail polish,desk,80.0,40.0,nail polish14,desk14,80.0,20.0,38031405.JPG,26419960.thl.jpg,/static/Category_learning/Stimuli/Experimental_stims/nail polish/38031405.JPG,/static/Category_learning/Stimuli/Experimental_stims/desk/26419960.thl.jpg,0.0,desk,nail polish,40.0,80.0,desk14,nail polish14,20.0,80.0,0.0,164.832,0.832,,,,,,
172,,confirmation,,html-keyboard-response,172,330092,0.0-1.0-35.0-0.0-1.0-0.0,0,0,54497,,,,,,33.0,,,,,,,,,,,,,,,,,,,,,,,,,,,,,,,,165.5,0.668,,,,,,
173,,isi,,html-keyboard-response,173,333598,0.0-1.0-35.0-0.0-2.0,0,0,54497,,,,,,,,,,,,,,,,,,,,,,,,,,,,,,,,,,,,,,169.0,3.5,,,,,,
174,,feedback,,html-keyboard-response,174,334604,0.0-1.0-35.0-0.0-3.0-0.0,0,0,54497,,,,,,33.0,,,,,,,,,,,,,,,,,,,,,,,,,,,,,,,,170.0,1.0,,,,,,
175,,iti,,html-keyboard-response,175,335610,0.0-1.0-35.0-0.0-5.0,0,0,54497,,,,,,,,,,,,,,,,,,,,,,,,,,,,,,,,,,,,,,171.0,1.0,,,,,,
176,,choice,,html-keyboard-response,176,336502,0.0-1.0-36.0-0.0-0.0,0,0,54497,,885.0,,,75.0,34.0,34.0,1000.0,1000.0,0.0,1.0,1.0,40-40,1.0,,desk,desk,40.0,40.0,desk3,desk14,60.0,20.0,D-1 Four drawers desk Elm 64x23x33.jpg,26419960.thl.jpg,/static/Category_learning/Stimuli/Experimental_stims/desk/D-1 Four drawers desk Elm 64x23x33.jpg,/static/Category_learning/Stimuli/Experimental_stims/desk/26419960.thl.jpg,0.0,desk,desk,40.0,40.0,desk14,desk3,20.0,60.0,0.0,171.885,0.885,,,,,,
177,,confirmation,,html-keyboard-response,177,337124,0.0-1.0-36.0-0.0-1.0-0.0,0,0,54497,,,,,,34.0,,,,,,,,,,,,,,,,,,,,,,,,,,,,,,,,172.5,0.615,,,,,,
178,,isi,,html-keyboard-response,178,338130,0.0-1.0-36.0-0.0-2.0,0,0,54497,,,,,,,,,,,,,,,,,,,,,,,,,,,,,,,,,,,,,,173.5,1.0,,,,,,
179,,feedback,,html-keyboard-response,179,339136,0.0-1.0-36.0-0.0-3.0-0.0,0,0,54497,,,,,,34.0,,,,,,,,,,,,,,,,,,,,,,,,,,,,,,,,174.5,1.0,,,,,,
180,,iti,,html-keyboard-response,180,340142,0.0-1.0-36.0-0.0-5.0,0,0,54497,,,,,,,,,,,,,,,,,,,,,,,,,,,,,,,,,,,,,,175.5,1.0,,,,,,
181,,choice,,html-keyboard-response,181,340873,0.0-1.0-37.0-0.0-0.0,0,0,54497,,724.0,,,75.0,35.0,35.0,1000.0,1500.0,0.0,1.0,1.0,80-80,1.0,,necklace,necklace,80.0,80.0,necklace1,necklace6,100.0,100.0,26443173.thl.jpg,Agoldnecklace.jpg,/static/Category_learning/Stimuli/Experimental_stims/necklace/26443173.thl.jpg,/static/Category_learning/Stimuli/Experimental_stims/necklace/Agoldnecklace.jpg,0.0,necklace,necklace,80.0,80.0,necklace6,necklace1,100.0,100.0,0.0,176.224,0.724,,,,,,
182,,confirmation,,html-keyboard-response,182,341660,0.0-1.0-37.0-0.0-1.0-0.0,0,0,54497,,,,,,35.0,,,,,,,,,,,,,,,,,,,,,,,,,,,,,,,,177.0,0.776,,,,,,
183,,isi,,html-keyboard-response,183,342666,0.0-1.0-37.0-0.0-2.0,0,0,54497,,,,,,,,,,,,,,,,,,,,,,,,,,,,,,,,,,,,,,178.0,1.0,,,,,,
184,,feedback,,html-keyboard-response,184,343672,0.0-1.0-37.0-0.0-3.0-0.0,0,0,54497,,,,,,35.0,,,,,,,,,,,,,,,,,,,,,,,,,,,,,,,,179.0,1.0,,,,,,
185,,iti,,html-keyboard-response,185,345178,0.0-1.0-37.0-0.0-5.0,0,0,54497,,,,,,,,,,,,,,,,,,,,,,,,,,,,,,,,,,,,,,180.5,1.5,,,,,,
186,,choice,,html-keyboard-response,186,346120,0.0-1.0-38.0-0.0-0.0,0,0,54497,,936.0,,,75.0,36.0,36.0,3000.0,3500.0,0.0,1.0,1.0,20-40,0.0,,flashlight,trumpet,40.0,20.0,flashlight5,trumpet1,60.0,40.0,Streamlight-71001-Jr-Flashlight-W-batteries-black-B00018A3CG-L.jpg,JUPITER+TROMPETTE+606MRL.JPG,/static/Category_learning/Stimuli/Experimental_stims/flashlight/Streamlight-71001-Jr-Flashlight-W-batteries-black-B00018A3CG-L.jpg,/static/Category_learning/Stimuli/Experimental_stims/trumpet/JUPITER+TROMPETTE+606MRL.JPG,0.0,trumpet,flashlight,20.0,40.0,trumpet1,flashlight5,40.0,60.0,0.0,181.436,0.936,,,,,,
187,,confirmation,,html-keyboard-response,187,346691,0.0-1.0-38.0-0.0-1.0-0.0,0,0,54497,,,,,,36.0,,,,,,,,,,,,,,,,,,,,,,,,,,,,,,,,182.0,0.564,,,,,,
188,,isi,,html-keyboard-response,188,349695,0.0-1.0-38.0-0.0-2.0,0,0,54497,,,,,,,,,,,,,,,,,,,,,,,,,,,,,,,,,,,,,,185.0,3.0,,,,,,
189,,feedback,,html-keyboard-response,189,350717,0.0-1.0-38.0-0.0-3.0-0.0,0,0,54497,,,,,,36.0,,,,,,,,,,,,,,,,,,,,,,,,,,,,,,,,186.0,1.0,,,,,,
190,,iti,,html-keyboard-response,190,354222,0.0-1.0-38.0-0.0-5.0,0,0,54497,,,,,,,,,,,,,,,,,,,,,,,,,,,,,,,,,,,,,,189.5,3.5,,,,,,
191,,choice,,html-keyboard-response,191,355070,0.0-1.0-39.0-0.0-0.0,0,0,54497,,841.0,,,68.0,37.0,37.0,2000.0,1000.0,0.0,1.0,0.0,40-80,,1.0,necklace,flashlight,80.0,40.0,necklace10,flashlight6,60.0,40.0,necklascenew03.jpg,Flashlight.jpg,/static/Category_learning/Stimuli/Experimental_stims/necklace/necklascenew03.jpg,/static/Category_learning/Stimuli/Experimental_stims/flashlight/Flashlight.jpg,1.0,necklace,flashlight,80.0,40.0,necklace10,flashlight6,60.0,40.0,0.0,190.341,0.841,,,,,,
192,,confirmation,,html-keyboard-response,192,355732,0.0-1.0-39.0-0.0-1.0-0.0,0,0,54497,,,,,,37.0,,,,,,,,,,,,,,,,,,,,,,,,,,,,,,,,191.0,0.659,,,,,,
193,,isi,,html-keyboard-response,193,357738,0.0-1.0-39.0-0.0-2.0,0,0,54497,,,,,,,,,,,,,,,,,,,,,,,,,,,,,,,,,,,,,,193.0,2.0,,,,,,
194,,feedback,,html-keyboard-response,194,358745,0.0-1.0-39.0-0.0-3.0-0.0,0,0,54497,,,,,,37.0,,,,,,,,,,,,,,,,,,,,,,,,,,,,,,,,194.0,1.0,,,,,,
195,,iti,,html-keyboard-response,195,359751,0.0-1.0-39.0-0.0-5.0,0,0,54497,,,,,,,,,,,,,,,,,,,,,,,,,,,,,,,,,,,,,,195.0,1.0,,,,,,
196,,choice,,html-keyboard-response,196,360584,0.0-1.0-40.0-0.0-0.0,0,0,54497,,828.0,,,68.0,38.0,38.0,1000.0,1000.0,0.0,1.0,1.0,20-60,0.0,,makeup compact,watch,60.0,20.0,makeup compact4,watch4,40.0,40.0,262668_fpx.jpg,B000EI2NBW.01._AA280_SCLZZZZZZZ_.jpg,/static/Category_learning/Stimuli/Experimental_stims/makeup compact/262668_fpx.jpg,/static/Category_learning/Stimuli/Experimental_stims/watch/B000EI2NBW.01._AA280_SCLZZZZZZZ_.jpg,1.0,makeup compact,watch,60.0,20.0,makeup compact4,watch4,40.0,40.0,0.0,195.828,0.828,,,,,,
197,,confirmation,,html-keyboard-response,197,361261,0.0-1.0-40.0-0.0-1.0-0.0,0,0,54497,,,,,,38.0,,,,,,,,,,,,,,,,,,,,,,,,,,,,,,,,196.5,0.672,,,,,,
198,,isi,,html-keyboard-response,198,362266,0.0-1.0-40.0-0.0-2.0,0,0,54497,,,,,,,,,,,,,,,,,,,,,,,,,,,,,,,,,,,,,,197.5,1.0,,,,,,
199,,feedback,,html-keyboard-response,199,363273,0.0-1.0-40.0-0.0-3.0-0.0,0,0,54497,,,,,,38.0,,,,,,,,,,,,,,,,,,,,,,,,,,,,,,,,198.5,1.0,,,,,,
200,,iti,,html-keyboard-response,200,364279,0.0-1.0-40.0-0.0-5.0,0,0,54497,,,,,,,,,,,,,,,,,,,,,,,,,,,,,,,,,,,,,,199.5,1.0,,,,,,
201,,choice,,html-keyboard-response,201,365076,0.0-1.0-41.0-0.0-0.0,0,0,54497,,792.0,,,75.0,39.0,39.0,1000.0,1500.0,0.0,1.0,0.0,20-60,,1.0,hat,stool,60.0,20.0,hat1,stool8,60.0,0.0,AGREENHAT.jpg,ASTOOL33.jpg,/static/Category_learning/Stimuli/Experimental_stims/hat/AGREENHAT.jpg,/static/Category_learning/Stimuli/Experimental_stims/stool/ASTOOL33.jpg,0.0,stool,hat,20.0,60.0,stool8,hat1,0.0,60.0,0.0,200.292,0.792,,,,,,
202,,confirmation,,html-keyboard-response,202,365790,0.0-1.0-41.0-0.0-1.0-0.0,0,0,54497,,,,,,39.0,,,,,,,,,,,,,,,,,,,,,,,,,,,,,,,,201.0,0.708,,,,,,
203,,isi,,html-keyboard-response,203,366795,0.0-1.0-41.0-0.0-2.0,0,0,54497,,,,,,,,,,,,,,,,,,,,,,,,,,,,,,,,,,,,,,202.0,1.0,,,,,,
204,,feedback,,html-keyboard-response,204,367801,0.0-1.0-41.0-0.0-3.0-0.0,0,0,54497,,,,,,39.0,,,,,,,,,,,,,,,,,,,,,,,,,,,,,,,,203.0,1.0,,,,,,
205,,iti,,html-keyboard-response,205,369306,0.0-1.0-41.0-0.0-5.0,0,0,54497,,,,,,,,,,,,,,,,,,,,,,,,,,,,,,,,,,,,,,204.5,1.5,,,,,,
206,,choice,,html-keyboard-response,206,370301,0.0-1.0-42.0-0.0-0.0,0,0,54497,,989.0,,,75.0,40.0,40.0,1000.0,3500.0,0.0,1.0,0.0,20-80,,0.0,tape,power strip,20.0,80.0,tape9,power strip10,40.0,80.0,desk tape disp.jpg,6bd437c9-6165-4d36-bf75-9a1038783c6a_400.jpg,/static/Category_learning/Stimuli/Experimental_stims/tape/desk tape disp.jpg,/static/Category_learning/Stimuli/Experimental_stims/power strip/6bd437c9-6165-4d36-bf75-9a1038783c6a_400.jpg,0.0,power strip,tape,80.0,20.0,power strip10,tape9,80.0,40.0,0.0,205.489,0.989,,,,,,
207,,confirmation,,html-keyboard-response,207,370819,0.0-1.0-42.0-0.0-1.0-0.0,0,0,54497,,,,,,40.0,,,,,,,,,,,,,,,,,,,,,,,,,,,,,,,,206.0,0.511,,,,,,
208,,isi,,html-keyboard-response,208,371826,0.0-1.0-42.0-0.0-2.0,0,0,54497,,,,,,,,,,,,,,,,,,,,,,,,,,,,,,,,,,,,,,207.0,1.0,,,,,,
209,,feedback,,html-keyboard-response,209,372833,0.0-1.0-42.0-0.0-3.0-0.0,0,0,54497,,,,,,40.0,,,,,,,,,,,,,,,,,,,,,,,,,,,,,,,,208.0,1.0,,,,,,
210,,iti,,html-keyboard-response,210,376340,0.0-1.0-42.0-0.0-5.0,0,0,54497,,,,,,,,,,,,,,,,,,,,,,,,,,,,,,,,,,,,,,211.5,3.5,,,,,,
211,,choice,,html-keyboard-response,211,377192,0.0-1.0-43.0-0.0-0.0,0,0,54497,,846.0,,,68.0,41.0,41.0,1500.0,1000.0,0.0,1.0,0.0,20-80,,0.0,tape,poker card,20.0,80.0,tape12,poker card4,40.0,60.0,Frog-Tape-Dispenser_F02218A2.jpg,22864728.thl.jpg,/static/Category_learning/Stimuli/Experimental_stims/tape/Frog-Tape-Dispenser_F02218A2.jpg,/static/Category_learning/Stimuli/Experimental_stims/poker card/22864728.thl.jpg,1.0,tape,poker card,20.0,80.0,tape12,poker card4,40.0,60.0,0.0,212.346,0.846,,,,,,
212,,confirmation,,html-keyboard-response,212,377853,0.0-1.0-43.0-0.0-1.0-0.0,0,0,54497,,,,,,41.0,,,,,,,,,,,,,,,,,,,,,,,,,,,,,,,,213.0,0.654,,,,,,
213,,isi,,html-keyboard-response,213,379361,0.0-1.0-43.0-0.0-2.0,0,0,54497,,,,,,,,,,,,,,,,,,,,,,,,,,,,,,,,,,,,,,214.5,1.5,,,,,,
214,,feedback,,html-keyboard-response,214,380365,0.0-1.0-43.0-0.0-3.0-0.0,0,0,54497,,,,,,41.0,,,,,,,,,,,,,,,,,,,,,,,,,,,,,,,,215.5,1.0,,,,,,
215,,iti,,html-keyboard-response,215,381371,0.0-1.0-43.0-0.0-5.0,0,0,54497,,,,,,,,,,,,,,,,,,,,,,,,,,,,,,,,,,,,,,216.5,1.0,,,,,,
216,,choice,,html-keyboard-response,216,382149,0.0-1.0-44.0-0.0-0.0,0,0,54497,,772.0,,,75.0,42.0,42.0,2000.0,3500.0,0.0,1.0,0.0,20-80,,1.0,power strip,telescope,80.0,20.0,power strip13,telescope2,100.0,40.0,01dccef1-d4b2-4d2e-a317-f2ed46b70b4b_400.jpg,Brass-telescope-60700.jpg,/static/Category_learning/Stimuli/Experimental_stims/power strip/01dccef1-d4b2-4d2e-a317-f2ed46b70b4b_400.jpg,/static/Category_learning/Stimuli/Experimental_stims/telescope/Brass-telescope-60700.jpg,0.0,telescope,power strip,20.0,80.0,telescope2,power strip13,40.0,100.0,0.0,217.272,0.772,,,,,,
217,,confirmation,,html-keyboard-response,217,382884,0.0-1.0-44.0-0.0-1.0-0.0,0,0,54497,,,,,,42.0,,,,,,,,,,,,,,,,,,,,,,,,,,,,,,,,218.0,0.728,,,,,,
218,,isi,,html-keyboard-response,218,384890,0.0-1.0-44.0-0.0-2.0,0,0,54497,,,,,,,,,,,,,,,,,,,,,,,,,,,,,,,,,,,,,,220.0,2.0,,,,,,
219,,feedback,,html-keyboard-response,219,385896,0.0-1.0-44.0-0.0-3.0-0.0,0,0,54497,,,,,,42.0,,,,,,,,,,,,,,,,,,,,,,,,,,,,,,,,221.0,1.0,,,,,,
220,,iti,,html-keyboard-response,220,389403,0.0-1.0-44.0-0.0-5.0,0,0,54497,,,,,,,,,,,,,,,,,,,,,,,,,,,,,,,,,,,,,,224.5,3.5,,,,,,
221,,choice,,html-keyboard-response,221,390271,0.0-1.0-45.0-0.0-0.0,0,0,54497,,862.0,,,68.0,43.0,43.0,1000.0,2000.0,0.0,1.0,0.0,20-60,,0.0,yarn,makeup compact,20.0,60.0,yarn2,makeup compact6,20.0,80.0,Aballofyarn66.jpg,P0754_hero.jpg,/static/Category_learning/Stimuli/Experimental_stims/yarn/Aballofyarn66.jpg,/static/Category_learning/Stimuli/Experimental_stims/makeup compact/P0754_hero.jpg,1.0,yarn,makeup compact,20.0,60.0,yarn2,makeup compact6,20.0,80.0,0.0,225.362,0.862,,,,,,
222,,confirmation,,html-keyboard-response,222,390915,0.0-1.0-45.0-0.0-1.0-0.0,0,0,54497,,,,,,43.0,,,,,,,,,,,,,,,,,,,,,,,,,,,,,,,,226.0,0.638,,,,,,
223,,isi,,html-keyboard-response,223,391922,0.0-1.0-45.0-0.0-2.0,0,0,54497,,,,,,,,,,,,,,,,,,,,,,,,,,,,,,,,,,,,,,227.0,1.0,,,,,,
224,,feedback,,html-keyboard-response,224,392929,0.0-1.0-45.0-0.0-3.0-0.0,0,0,54497,,,,,,43.0,,,,,,,,,,,,,,,,,,,,,,,,,,,,,,,,228.0,1.0,,,,,,
225,,iti,,html-keyboard-response,225,394936,0.0-1.0-45.0-0.0-5.0,0,0,54497,,,,,,,,,,,,,,,,,,,,,,,,,,,,,,,,,,,,,,230.0,2.0,,,,,,
226,,choice,,html-keyboard-response,226,395842,0.0-1.0-46.0-0.0-0.0,0,0,54497,,899.0,,,68.0,44.0,44.0,1000.0,1000.0,0.0,1.0,0.0,20-60,,0.0,stool,makeup compact,20.0,60.0,stool15,makeup compact3,20.0,40.0,ASTOOL.jpg,P181006_hero.jpg,/static/Category_learning/Stimuli/Experimental_stims/stool/ASTOOL.jpg,/static/Category_learning/Stimuli/Experimental_stims/makeup compact/P181006_hero.jpg,1.0,stool,makeup compact,20.0,60.0,stool15,makeup compact3,20.0,40.0,0.0,230.899,0.899,,,,,,
227,,confirmation,,html-keyboard-response,227,396456,0.0-1.0-46.0-0.0-1.0-0.0,0,0,54497,,,,,,44.0,,,,,,,,,,,,,,,,,,,,,,,,,,,,,,,,231.5,0.601,,,,,,
228,,isi,,html-keyboard-response,228,397462,0.0-1.0-46.0-0.0-2.0,0,0,54497,,,,,,,,,,,,,,,,,,,,,,,,,,,,,,,,,,,,,,232.5,1.0,,,,,,
229,,feedback,,html-keyboard-response,229,398466,0.0-1.0-46.0-0.0-3.0-0.0,0,0,54497,,,,,,44.0,,,,,,,,,,,,,,,,,,,,,,,,,,,,,,,,233.5,1.0,,,,,,
230,,iti,,html-keyboard-response,230,399473,0.0-1.0-46.0-0.0-5.0,0,0,54497,,,,,,,,,,,,,,,,,,,,,,,,,,,,,,,,,,,,,,234.5,1.0,,,,,,
231,,choice,,html-keyboard-response,231,400614,0.0-1.0-47.0-0.0-0.0,0,0,54497,,1134.0,,,68.0,45.0,45.0,1000.0,1000.0,0.0,1.0,0.0,20-20,,,tape,watch,20.0,20.0,tape6,watch15,40.0,40.0,1912.jpg,20-171-6.jpg,/static/Category_learning/Stimuli/Experimental_stims/tape/1912.jpg,/static/Category_learning/Stimuli/Experimental_stims/watch/20-171-6.jpg,1.0,tape,watch,20.0,20.0,tape6,watch15,40.0,40.0,0.0,235.634,1.134,,,,,,
232,,confirmation,,html-keyboard-response,232,400988,0.0-1.0-47.0-0.0-1.0-0.0,0,0,54497,,,,,,45.0,,,,,,,,,,,,,,,,,,,,,,,,,,,,,,,,236.0,0.366,,,,,,
233,,isi,,html-keyboard-response,233,401995,0.0-1.0-47.0-0.0-2.0,0,0,54497,,,,,,,,,,,,,,,,,,,,,,,,,,,,,,,,,,,,,,237.0,1.0,,,,,,
234,,feedback,,html-keyboard-response,234,403015,0.0-1.0-47.0-0.0-3.0-0.0,0,0,54497,,,,,,45.0,,,,,,,,,,,,,,,,,,,,,,,,,,,,,,,,238.0,1.0,,,,,,
235,,iti,,html-keyboard-response,235,404033,0.0-1.0-47.0-0.0-5.0,0,0,54497,,,,,,,,,,,,,,,,,,,,,,,,,,,,,,,,,,,,,,239.0,1.0,,,,,,
236,,choice,,html-keyboard-response,236,404919,0.0-1.0-48.0-0.0-0.0,0,0,54497,,880.0,,,75.0,46.0,46.0,1500.0,2000.0,0.0,1.0,0.0,40-80,,1.0,nail polish,fan,80.0,40.0,nail polish6,fan1,60.0,60.0,127_t.jpg,01393.fpx.jpg,/static/Category_learning/Stimuli/Experimental_stims/nail polish/127_t.jpg,/static/Category_learning/Stimuli/Experimental_stims/fan/01393.fpx.jpg,0.0,fan,nail polish,40.0,80.0,fan1,nail polish6,60.0,60.0,0.0,239.88,0.88,,,,,,
237,,confirmation,,html-keyboard-response,237,405545,0.0-1.0-48.0-0.0-1.0-0.0,0,0,54497,,,,,,46.0,,,,,,,,,,,,,,,,,,,,,,,,,,,,,,,,240.5,0.62,,,,,,
238,,isi,,html-keyboard-response,238,407050,0.0-1.0-48.0-0.0-2.0,0,0,54497,,,,,,,,,,,,,,,,,,,,,,,,,,,,,,,,,,,,,,242.0,1.5,,,,,,
239,,feedback,,html-keyboard-response,239,408055,0.0-1.0-48.0-0.0-3.0-0.0,0,0,54497,,,,,,46.0,,,,,,,,,,,,,,,,,,,,,,,,,,,,,,,,243.0,1.0,,,,,,
240,,iti,,html-keyboard-response,240,410061,0.0-1.0-48.0-0.0-5.0,0,0,54497,,,,,,,,,,,,,,,,,,,,,,,,,,,,,,,,,,,,,,245.0,2.0,,,,,,
241,,choice,,html-keyboard-response,241,410878,0.0-1.0-49.0-0.0-0.0,0,0,54497,,811.0,,,68.0,47.0,47.0,1500.0,2000.0,0.0,1.0,0.0,60-80,,1.0,pen,license plate,80.0,60.0,pen10,license plate8,100.0,60.0,VP-Raden-FP-L copy.jpg,dc-vrw-jsw.jpg,/static/Category_learning/Stimuli/Experimental_stims/pen/VP-Raden-FP-L copy.jpg,/static/Category_learning/Stimuli/Experimental_stims/license plate/dc-vrw-jsw.jpg,1.0,pen,license plate,80.0,60.0,pen10,license plate8,100.0,60.0,0.0,245.811,0.811,,,,,,
242,,confirmation,,html-keyboard-response,242,411574,0.0-1.0-49.0-0.0-1.0-0.0,0,0,54497,,,,,,47.0,,,,,,,,,,,,,,,,,,,,,,,,,,,,,,,,246.5,0.689,,,,,,
243,,isi,,html-keyboard-response,243,413078,0.0-1.0-49.0-0.0-2.0,0,0,54497,,,,,,,,,,,,,,,,,,,,,,,,,,,,,,,,,,,,,,248.0,1.5,,,,,,
244,,feedback,,html-keyboard-response,244,414084,0.0-1.0-49.0-0.0-3.0-0.0,0,0,54497,,,,,,47.0,,,,,,,,,,,,,,,,,,,,,,,,,,,,,,,,249.0,1.0,,,,,,
245,,iti,,html-keyboard-response,245,416090,0.0-1.0-49.0-0.0-5.0,0,0,54497,,,,,,,,,,,,,,,,,,,,,,,,,,,,,,,,,,,,,,251.0,2.0,,,,,,
246,,choice,,html-keyboard-response,246,416852,0.0-1.0-50.0-0.0-0.0,0,0,54497,,756.0,,,68.0,48.0,48.0,1500.0,1000.0,0.0,1.0,0.0,40-60,,1.0,frame,bongo,60.0,40.0,frame4,bongo11,60.0,40.0,AFRAME125.jpg,ABONGO6.jpg,/static/Category_learning/Stimuli/Experimental_stims/frame/AFRAME125.jpg,/static/Category_learning/Stimuli/Experimental_stims/bongo/ABONGO6.jpg,1.0,frame,bongo,60.0,40.0,frame4,bongo11,60.0,40.0,0.0,251.756,0.756,,,,,,
247,,confirmation,,html-keyboard-response,247,417603,0.0-1.0-50.0-0.0-1.0-0.0,0,0,54497,,,,,,48.0,,,,,,,,,,,,,,,,,,,,,,,,,,,,,,,,252.5,0.744,,,,,,
248,,isi,,html-keyboard-response,248,419108,0.0-1.0-50.0-0.0-2.0,0,0,54497,,,,,,,,,,,,,,,,,,,,,,,,,,,,,,,,,,,,,,254.0,1.5,,,,,,
249,,feedback,,html-keyboard-response,249,420116,0.0-1.0-50.0-0.0-3.0-0.0,0,0,54497,,,,,,48.0,,,,,,,,,,,,,,,,,,,,,,,,,,,,,,,,255.0,1.0,,,,,,
250,,iti,,html-keyboard-response,250,421123,0.0-1.0-50.0-0.0-5.0,0,0,54497,,,,,,,,,,,,,,,,,,,,,,,,,,,,,,,,,,,,,,256.0,1.0,,,,,,
251,,choice,,html-keyboard-response,251,421976,0.0-1.0-51.0-0.0-0.0,0,0,54497,,846.0,,,68.0,49.0,49.0,2000.0,2000.0,0.0,1.0,0.0,40-60,,0.0,dresser,lipstick,40.0,60.0,dresser3,lipstick1,20.0,80.0,ADRESSE79.jpg,P170102_hero.jpg,/static/Category_learning/Stimuli/Experimental_stims/dresser/ADRESSE79.jpg,/static/Category_learning/Stimuli/Experimental_stims/lipstick/P170102_hero.jpg,1.0,dresser,lipstick,40.0,60.0,dresser3,lipstick1,20.0,80.0,0.0,256.846,0.846,,,,,,
252,,confirmation,,html-keyboard-response,252,422636,0.0-1.0-51.0-0.0-1.0-0.0,0,0,54497,,,,,,49.0,,,,,,,,,,,,,,,,,,,,,,,,,,,,,,,,257.5,0.654,,,,,,
253,,isi,,html-keyboard-response,253,424642,0.0-1.0-51.0-0.0-2.0,0,0,54497,,,,,,,,,,,,,,,,,,,,,,,,,,,,,,,,,,,,,,259.5,2.0,,,,,,
254,,feedback,,html-keyboard-response,254,425648,0.0-1.0-51.0-0.0-3.0-0.0,0,0,54497,,,,,,49.0,,,,,,,,,,,,,,,,,,,,,,,,,,,,,,,,260.5,1.0,,,,,,
255,,iti,,html-keyboard-response,255,427654,0.0-1.0-51.0-0.0-5.0,0,0,54497,,,,,,,,,,,,,,,,,,,,,,,,,,,,,,,,,,,,,,262.5,2.0,,,,,,
256,,choice,,html-keyboard-response,256,428532,0.0-1.0-52.0-0.0-0.0,0,0,54497,,870.0,,,75.0,50.0,50.0,3500.0,1000.0,0.0,1.0,1.0,40-40,1.0,,dresser,dresser,40.0,40.0,dresser3,dresser9,20.0,20.0,ADRESSE79.jpg,ADRESSER.jpg,/static/Category_learning/Stimuli/Experimental_stims/dresser/ADRESSE79.jpg,/static/Category_learning/Stimuli/Experimental_stims/dresser/ADRESSER.jpg,0.0,dresser,dresser,40.0,40.0,dresser9,dresser3,20.0,20.0,0.0,263.37,0.87,,,,,,
257,,confirmation,,html-keyboard-response,257,429168,0.0-1.0-52.0-0.0-1.0-0.0,0,0,54497,,,,,,50.0,,,,,,,,,,,,,,,,,,,,,,,,,,,,,,,,264.0,0.63,,,,,,
258,,isi,,html-keyboard-response,258,432674,0.0-1.0-52.0-0.0-2.0,0,0,54497,,,,,,,,,,,,,,,,,,,,,,,,,,,,,,,,,,,,,,267.5,3.5,,,,,,
259,,feedback,,html-keyboard-response,259,433681,0.0-1.0-52.0-0.0-3.0-0.0,0,0,54497,,,,,,50.0,,,,,,,,,,,,,,,,,,,,,,,,,,,,,,,,268.5,1.0,,,,,,
260,,iti,,html-keyboard-response,260,434688,0.0-1.0-52.0-0.0-5.0,0,0,54497,,,,,,,,,,,,,,,,,,,,,,,,,,,,,,,,,,,,,,269.5,1.0,,,,,,
261,,choice,,html-keyboard-response,261,435495,0.0-1.0-53.0-0.0-0.0,0,0,54497,,800.0,,,75.0,51.0,51.0,2000.0,1000.0,0.0,1.0,0.0,60-60,,,makeup compact,microscope,60.0,60.0,makeup compact5,microscope3,40.0,40.0,P109965_hero.jpg,APDB.jpg,/static/Category_learning/Stimuli/Experimental_stims/makeup compact/P109965_hero.jpg,/static/Category_learning/Stimuli/Experimental_stims/microscope/APDB.jpg,0.0,microscope,makeup compact,60.0,60.0,microscope3,makeup compact5,40.0,40.0,0.0,270.3,0.8,,,,,,
262,,confirmation,,html-keyboard-response,262,436202,0.0-1.0-53.0-0.0-1.0-0.0,0,0,54497,,,,,,51.0,,,,,,,,,,,,,,,,,,,,,,,,,,,,,,,,271.0,0.7,,,,,,
263,,isi,,html-keyboard-response,263,438209,0.0-1.0-53.0-0.0-2.0,0,0,54497,,,,,,,,,,,,,,,,,,,,,,,,,,,,,,,,,,,,,,273.0,2.0,,,,,,
264,,feedback,,html-keyboard-response,264,439216,0.0-1.0-53.0-0.0-3.0-0.0,0,0,54497,,,,,,51.0,,,,,,,,,,,,,,,,,,,,,,,,,,,,,,,,274.0,1.0,,,,,,
265,,iti,,html-keyboard-response,265,440220,0.0-1.0-53.0-0.0-5.0,0,0,54497,,,,,,,,,,,,,,,,,,,,,,,,,,,,,,,,,,,,,,275.0,1.0,,,,,,
266,,choice,,html-keyboard-response,266,440975,0.0-1.0-54.0-0.0-0.0,0,0,54497,,749.0,,,75.0,52.0,52.0,1000.0,1500.0,0.0,1.0,0.0,40-80,,0.0,baby carriage,necklace,40.0,80.0,baby carriage9,necklace2,20.0,80.0,Antique baby Carriage 7.jpg,Anecklace7.jpg,/static/Category_learning/Stimuli/Experimental_stims/baby carriage/Antique baby Carriage 7.jpg,/static/Category_learning/Stimuli/Experimental_stims/necklace/Anecklace7.jpg,0.0,necklace,baby carriage,80.0,40.0,necklace2,baby carriage9,80.0,20.0,0.0,275.749,0.749,,,,,,
267,,confirmation,,html-keyboard-response,267,441734,0.0-1.0-54.0-0.0-1.0-0.0,0,0,54497,,,,,,52.0,,,,,,,,,,,,,,,,,,,,,,,,,,,,,,,,276.5,0.751,,,,,,
268,,isi,,html-keyboard-response,268,442741,0.0-1.0-54.0-0.0-2.0,0,0,54497,,,,,,,,,,,,,,,,,,,,,,,,,,,,,,,,,,,,,,277.5,1.0,,,,,,
269,,feedback,,html-keyboard-response,269,443747,0.0-1.0-54.0-0.0-3.0-0.0,0,0,54497,,,,,,52.0,,,,,,,,,,,,,,,,,,,,,,,,,,,,,,,,278.5,1.0,,,,,,
270,,iti,,html-keyboard-response,270,445254,0.0-1.0-54.0-0.0-5.0,0,0,54497,,,,,,,,,,,,,,,,,,,,,,,,,,,,,,,,,,,,,,280.0,1.5,,,,,,
271,,choice,,html-keyboard-response,271,445890,0.0-1.0-55.0-0.0-0.0,0,0,54497,,630.0,,,68.0,53.0,53.0,2000.0,1500.0,0.0,1.0,0.0,20-80,,0.0,watch,small table,20.0,80.0,watch12,small table12,40.0,80.0,snl003_MED.jpg,ATABLE54.jpg,/static/Category_learning/Stimuli/Experimental_stims/watch/snl003_MED.jpg,/static/Category_learning/Stimuli/Experimental_stims/small table/ATABLE54.jpg,1.0,watch,small table,20.0,80.0,watch12,small table12,40.0,80.0,0.0,280.63,0.63,,,,,,
272,,confirmation,,html-keyboard-response,272,446768,0.0-1.0-55.0-0.0-1.0-0.0,0,0,54497,,,,,,53.0,,,,,,,,,,,,,,,,,,,,,,,,,,,,,,,,281.5,0.87,,,,,,
273,,isi,,html-keyboard-response,273,448774,0.0-1.0-55.0-0.0-2.0,0,0,54497,,,,,,,,,,,,,,,,,,,,,,,,,,,,,,,,,,,,,,283.5,2.0,,,,,,
274,,feedback,,html-keyboard-response,274,449794,0.0-1.0-55.0-0.0-3.0-0.0,0,0,54497,,,,,,53.0,,,,,,,,,,,,,,,,,,,,,,,,,,,,,,,,284.5,1.0,,,,,,
275,,iti,,html-keyboard-response,275,451300,0.0-1.0-55.0-0.0-5.0,0,0,54497,,,,,,,,,,,,,,,,,,,,,,,,,,,,,,,,,,,,,,286.0,1.5,,,,,,
276,,choice,,html-keyboard-response,276,452260,0.0-1.0-56.0-0.0-0.0,0,0,54497,,953.0,,,75.0,54.0,54.0,1000.0,2000.0,0.0,1.0,1.0,80-80,1.0,,necklace,necklace,80.0,80.0,necklace10,necklace2,60.0,80.0,necklascenew03.jpg,Anecklace7.jpg,/static/Category_learning/Stimuli/Experimental_stims/necklace/necklascenew03.jpg,/static/Category_learning/Stimuli/Experimental_stims/necklace/Anecklace7.jpg,0.0,necklace,necklace,80.0,80.0,necklace2,necklace10,80.0,60.0,0.0,286.953,0.953,,,,,,
277,,confirmation,,html-keyboard-response,277,452813,0.0-1.0-56.0-0.0-1.0-0.0,0,0,54497,,,,,,54.0,,,,,,,,,,,,,,,,,,,,,,,,,,,,,,,,287.5,0.547,,,,,,
278,,isi,,html-keyboard-response,278,453817,0.0-1.0-56.0-0.0-2.0,0,0,54497,,,,,,,,,,,,,,,,,,,,,,,,,,,,,,,,,,,,,,288.5,1.0,,,,,,
279,,feedback,,html-keyboard-response,279,454822,0.0-1.0-56.0-0.0-3.0-0.0,0,0,54497,,,,,,54.0,,,,,,,,,,,,,,,,,,,,,,,,,,,,,,,,289.5,1.0,,,,,,
280,,iti,,html-keyboard-response,280,456828,0.0-1.0-56.0-0.0-5.0,0,0,54497,,,,,,,,,,,,,,,,,,,,,,,,,,,,,,,,,,,,,,291.5,2.0,,,,,,
281,,choice,,html-keyboard-response,281,457583,0.0-1.0-57.0-0.0-0.0,0,0,54497,,749.0,,,75.0,55.0,55.0,1000.0,3000.0,0.0,1.0,0.0,40-60,,1.0,motorcycle,bench,60.0,40.0,motorcycle13,bench9,60.0,40.0,2005-Buell-FireboltXB12R.jpg,26419898.thl.jpg,/static/Category_learning/Stimuli/Experimental_stims/motorcycle/2005-Buell-FireboltXB12R.jpg,/static/Category_learning/Stimuli/Experimental_stims/bench/26419898.thl.jpg,0.0,bench,motorcycle,40.0,60.0,bench9,motorcycle13,40.0,60.0,0.0,292.249,0.749,,,,,,
282,,confirmation,,html-keyboard-response,282,458340,0.0-1.0-57.0-0.0-1.0-0.0,0,0,54497,,,,,,55.0,,,,,,,,,,,,,,,,,,,,,,,,,,,,,,,,293.0,0.751,,,,,,
283,,isi,,html-keyboard-response,283,459345,0.0-1.0-57.0-0.0-2.0,0,0,54497,,,,,,,,,,,,,,,,,,,,,,,,,,,,,,,,,,,,,,294.0,1.0,,,,,,
284,,feedback,,html-keyboard-response,284,460351,0.0-1.0-57.0-0.0-3.0-0.0,0,0,54497,,,,,,55.0,,,,,,,,,,,,,,,,,,,,,,,,,,,,,,,,295.0,1.0,,,,,,
285,,iti,,html-keyboard-response,285,463359,0.0-1.0-57.0-0.0-5.0,0,0,54497,,,,,,,,,,,,,,,,,,,,,,,,,,,,,,,,,,,,,,298.0,3.0,,,,,,
286,,choice,,html-keyboard-response,286,464022,0.0-1.0-58.0-0.0-0.0,0,0,54497,,657.0,,,75.0,56.0,56.0,1000.0,1000.0,0.0,1.0,0.0,20-40,,1.0,baby carriage,train,40.0,20.0,baby carriage12,train4,60.0,40.0,Baby_Carriage-1.jpg,After-RHS-2-web.jpg,/static/Category_learning/Stimuli/Experimental_stims/baby carriage/Baby_Carriage-1.jpg,/static/Category_learning/Stimuli/Experimental_stims/train/After-RHS-2-web.jpg,0.0,train,baby carriage,20.0,40.0,train4,baby carriage12,40.0,60.0,0.0,298.657,0.657,,,,,,
287,,confirmation,,html-keyboard-response,287,464871,0.0-1.0-58.0-0.0-1.0-0.0,0,0,54497,,,,,,56.0,,,,,,,,,,,,,,,,,,,,,,,,,,,,,,,,299.5,0.843,,,,,,
288,,isi,,html-keyboard-response,288,465875,0.0-1.0-58.0-0.0-2.0,0,0,54497,,,,,,,,,,,,,,,,,,,,,,,,,,,,,,,,,,,,,,300.5,1.0,,,,,,
289,,feedback,,html-keyboard-response,289,466882,0.0-1.0-58.0-0.0-3.0-0.0,0,0,54497,,,,,,56.0,,,,,,,,,,,,,,,,,,,,,,,,,,,,,,,,301.5,1.0,,,,,,
290,,iti,,html-keyboard-response,290,467886,0.0-1.0-58.0-0.0-5.0,0,0,54497,,,,,,,,,,,,,,,,,,,,,,,,,,,,,,,,,,,,,,302.5,1.0,,,,,,
291,,choice,,html-keyboard-response,291,468964,0.0-1.0-59.0-0.0-0.0,0,0,54497,,1074.0,,,68.0,57.0,57.0,3000.0,2000.0,0.0,1.0,1.0,20-20,1.0,,tape,tape,20.0,20.0,tape12,tape6,40.0,40.0,Frog-Tape-Dispenser_F02218A2.jpg,1912.jpg,/static/Category_learning/Stimuli/Experimental_stims/tape/Frog-Tape-Dispenser_F02218A2.jpg,/static/Category_learning/Stimuli/Experimental_stims/tape/1912.jpg,1.0,tape,tape,20.0,20.0,tape12,tape6,40.0,40.0,0.0,303.574,1.074,,,,,,
292,,confirmation,,html-keyboard-response,292,469397,0.0-1.0-59.0-0.0-1.0-0.0,0,0,54497,,,,,,57.0,,,,,,,,,,,,,,,,,,,,,,,,,,,,,,,,304.0,0.426,,,,,,
293,,isi,,html-keyboard-response,293,472403,0.0-1.0-59.0-0.0-2.0,0,0,54497,,,,,,,,,,,,,,,,,,,,,,,,,,,,,,,,,,,,,,307.0,3.0,,,,,,
294,,feedback,,html-keyboard-response,294,473412,0.0-1.0-59.0-0.0-3.0-0.0,0,0,54497,,,,,,57.0,,,,,,,,,,,,,,,,,,,,,,,,,,,,,,,,308.0,1.0,,,,,,
295,,iti,,html-keyboard-response,295,475418,0.0-1.0-59.0-0.0-5.0,0,0,54497,,,,,,,,,,,,,,,,,,,,,,,,,,,,,,,,,,,,,,310.0,2.0,,,,,,
296,,choice,,html-keyboard-response,296,476352,0.0-1.0-60.0-0.0-0.0,0,0,54497,,927.0,,,75.0,58.0,58.0,2000.0,1000.0,0.0,1.0,0.0,40-80,,0.0,flashlight,seashell,40.0,80.0,flashlight13,seashell13,60.0,100.0,834808_sk_lg.jpg,coquillage22.jpg,/static/Category_learning/Stimuli/Experimental_stims/flashlight/834808_sk_lg.jpg,/static/Category_learning/Stimuli/Experimental_stims/seashell/coquillage22.jpg,0.0,seashell,flashlight,80.0,40.0,seashell13,flashlight13,100.0,60.0,0.0,310.927,0.927,,,,,,
297,,confirmation,,html-keyboard-response,297,476932,0.0-1.0-60.0-0.0-1.0-0.0,0,0,54497,,,,,,58.0,,,,,,,,,,,,,,,,,,,,,,,,,,,,,,,,311.5,0.573,,,,,,
298,,isi,,html-keyboard-response,298,478937,0.0-1.0-60.0-0.0-2.0,0,0,54497,,,,,,,,,,,,,,,,,,,,,,,,,,,,,,,,,,,,,,313.5,2.0,,,,,,
299,,feedback,,html-keyboard-response,299,479944,0.0-1.0-60.0-0.0-3.0-0.0,0,0,54497,,,,,,58.0,,,,,,,,,,,,,,,,,,,,,,,,,,,,,,,,314.5,1.0,,,,,,
300,,iti,,html-keyboard-response,300,480950,0.0-1.0-60.0-0.0-5.0,0,0,54497,,,,,,,,,,,,,,,,,,,,,,,,,,,,,,,,,,,,,,315.5,1.0,,,,,,
301,,choice,,html-keyboard-response,301,481808,0.0-1.0-61.0-0.0-0.0,0,0,54497,,851.0,,,75.0,59.0,59.0,1000.0,1500.0,0.0,1.0,0.0,20-60,,0.0,watch,key chain,20.0,60.0,watch14,key chain14,0.0,40.0,HC06.jpg,Jif Keychain 285.jpg,/static/Category_learning/Stimuli/Experimental_stims/watch/HC06.jpg,/static/Category_learning/Stimuli/Experimental_stims/key chain/Jif Keychain 285.jpg,0.0,key chain,watch,60.0,20.0,key chain14,watch14,40.0,0.0,0.0,316.351,0.851,,,,,,
302,,confirmation,,html-keyboard-response,302,482463,0.0-1.0-61.0-0.0-1.0-0.0,0,0,54497,,,,,,59.0,,,,,,,,,,,,,,,,,,,,,,,,,,,,,,,,317.0,0.649,,,,,,
303,,isi,,html-keyboard-response,303,483468,0.0-1.0-61.0-0.0-2.0,0,0,54497,,,,,,,,,,,,,,,,,,,,,,,,,,,,,,,,,,,,,,318.0,1.0,,,,,,
304,,feedback,,html-keyboard-response,304,484474,0.0-1.0-61.0-0.0-3.0-0.0,0,0,54497,,,,,,59.0,,,,,,,,,,,,,,,,,,,,,,,,,,,,,,,,319.0,1.0,,,,,,
305,,iti,,html-keyboard-response,305,485979,0.0-1.0-61.0-0.0-5.0,0,0,54497,,,,,,,,,,,,,,,,,,,,,,,,,,,,,,,,,,,,,,320.5,1.5,,,,,,
306,,choice,,html-keyboard-response,306,486778,0.0-1.0-62.0-0.0-0.0,0,0,54497,,793.0,,,75.0,60.0,60.0,1500.0,1000.0,0.0,1.0,0.0,20-80,,0.0,watch,small table,20.0,80.0,watch8,small table2,40.0,100.0,2239.jpg,Atable126.jpg,/static/Category_learning/Stimuli/Experimental_stims/watch/2239.jpg,/static/Category_learning/Stimuli/Experimental_stims/small table/Atable126.jpg,0.0,small table,watch,80.0,20.0,small table2,watch8,100.0,40.0,0.0,321.293,0.793,,,,,,
307,,confirmation,,html-keyboard-response,307,487491,0.0-1.0-62.0-0.0-1.0-0.0,0,0,54497,,,,,,60.0,,,,,,,,,,,,,,,,,,,,,,,,,,,,,,,,322.0,0.707,,,,,,
308,,isi,,html-keyboard-response,308,488997,0.0-1.0-62.0-0.0-2.0,0,0,54497,,,,,,,,,,,,,,,,,,,,,,,,,,,,,,,,,,,,,,323.5,1.5,,,,,,
309,,feedback,,html-keyboard-response,309,490003,0.0-1.0-62.0-0.0-3.0-0.0,0,0,54497,,,,,,60.0,,,,,,,,,,,,,,,,,,,,,,,,,,,,,,,,324.5,1.0,,,,,,
310,,iti,,html-keyboard-response,310,491009,0.0-1.0-62.0-0.0-5.0,0,0,54497,,,,,,,,,,,,,,,,,,,,,,,,,,,,,,,,,,,,,,325.5,1.0,,,,,,
311,,choice,,html-keyboard-response,311,491655,0.0-1.0-63.0-0.0-0.0,0,0,54497,,639.0,,,75.0,61.0,61.0,1500.0,2000.0,0.0,1.0,1.0,20-20,1.0,,stool,stool,20.0,20.0,stool8,stool15,0.0,20.0,ASTOOL33.jpg,ASTOOL.jpg,/static/Category_learning/Stimuli/Experimental_stims/stool/ASTOOL33.jpg,/static/Category_learning/Stimuli/Experimental_stims/stool/ASTOOL.jpg,0.0,stool,stool,20.0,20.0,stool15,stool8,20.0,0.0,0.0,326.139,0.639,,,,,,
312,,confirmation,,html-keyboard-response,312,492522,0.0-1.0-63.0-0.0-1.0-0.0,0,0,54497,,,,,,61.0,,,,,,,,,,,,,,,,,,,,,,,,,,,,,,,,327.0,0.861,,,,,,
313,,isi,,html-keyboard-response,313,494028,0.0-1.0-63.0-0.0-2.0,0,0,54497,,,,,,,,,,,,,,,,,,,,,,,,,,,,,,,,,,,,,,328.5,1.5,,,,,,
314,,feedback,,html-keyboard-response,314,495033,0.0-1.0-63.0-0.0-3.0-0.0,0,0,54497,,,,,,61.0,,,,,,,,,,,,,,,,,,,,,,,,,,,,,,,,329.5,1.0,,,,,,
315,,iti,,html-keyboard-response,315,497039,0.0-1.0-63.0-0.0-5.0,0,0,54497,,,,,,,,,,,,,,,,,,,,,,,,,,,,,,,,,,,,,,331.5,2.0,,,,,,
316,,choice,,html-keyboard-response,316,497766,0.0-1.0-64.0-0.0-0.0,0,0,54497,,720.0,,,68.0,62.0,62.0,2000.0,1500.0,0.0,1.0,1.0,60-60,0.0,,hammer,key chain,60.0,60.0,hammer5,key chain14,60.0,40.0,hammer02.jpg,Jif Keychain 285.jpg,/static/Category_learning/Stimuli/Experimental_stims/hammer/hammer02.jpg,/static/Category_learning/Stimuli/Experimental_stims/key chain/Jif Keychain 285.jpg,1.0,hammer,key chain,60.0,60.0,hammer5,key chain14,60.0,40.0,0.0,332.22,0.72,,,,,,
317,,confirmation,,html-keyboard-response,317,498553,0.0-1.0-64.0-0.0-1.0-0.0,0,0,54497,,,,,,62.0,,,,,,,,,,,,,,,,,,,,,,,,,,,,,,,,333.0,0.78,,,,,,
318,,isi,,html-keyboard-response,318,500559,0.0-1.0-64.0-0.0-2.0,0,0,54497,,,,,,,,,,,,,,,,,,,,,,,,,,,,,,,,,,,,,,335.0,2.0,,,,,,
319,,feedback,,html-keyboard-response,319,501566,0.0-1.0-64.0-0.0-3.0-0.0,0,0,54497,,,,,,62.0,,,,,,,,,,,,,,,,,,,,,,,,,,,,,,,,336.0,1.0,,,,,,
320,,iti,,html-keyboard-response,320,503072,0.0-1.0-64.0-0.0-5.0,0,0,54497,,,,,,,,,,,,,,,,,,,,,,,,,,,,,,,,,,,,,,337.5,1.5,,,,,,
321,,choice,,html-keyboard-response,321,503863,0.0-1.0-65.0-0.0-0.0,0,0,54497,,784.0,,,75.0,63.0,63.0,3000.0,3000.0,0.0,1.0,0.0,20-60,,1.0,key chain,stool,60.0,20.0,key chain9,stool12,80.0,0.0,sfx8832-ferrari-shield-keychain.jpg,henrybar_stool1.jpg,/static/Category_learning/Stimuli/Experimental_stims/key chain/sfx8832-ferrari-shield-keychain.jpg,/static/Category_learning/Stimuli/Experimental_stims/stool/henrybar_stool1.jpg,0.0,stool,key chain,20.0,60.0,stool12,key chain9,0.0,80.0,0.0,338.284,0.784,,,,,,
322,,confirmation,,html-keyboard-response,322,504585,0.0-1.0-65.0-0.0-1.0-0.0,0,0,54497,,,,,,63.0,,,,,,,,,,,,,,,,,,,,,,,,,,,,,,,,339.0,0.716,,,,,,
323,,isi,,html-keyboard-response,323,507591,0.0-1.0-65.0-0.0-2.0,0,0,54497,,,,,,,,,,,,,,,,,,,,,,,,,,,,,,,,,,,,,,342.0,3.0,,,,,,
324,,feedback,,html-keyboard-response,324,508598,0.0-1.0-65.0-0.0-3.0-0.0,0,0,54497,,,,,,63.0,,,,,,,,,,,,,,,,,,,,,,,,,,,,,,,,343.0,1.0,,,,,,
325,,iti,,html-keyboard-response,325,511605,0.0-1.0-65.0-0.0-5.0,0,0,54497,,,,,,,,,,,,,,,,,,,,,,,,,,,,,,,,,,,,,,346.0,3.0,,,,,,
326,,choice,,html-keyboard-response,326,512475,0.0-1.0-66.0-0.0-0.0,0,0,54497,,862.0,,,68.0,64.0,64.0,1000.0,1500.0,0.0,1.0,1.0,20-40,0.0,,fan,yarn,40.0,20.0,fan1,yarn2,60.0,20.0,01393.fpx.jpg,Aballofyarn66.jpg,/static/Category_learning/Stimuli/Experimental_stims/fan/01393.fpx.jpg,/static/Category_learning/Stimuli/Experimental_stims/yarn/Aballofyarn66.jpg,1.0,fan,yarn,40.0,20.0,fan1,yarn2,60.0,20.0,0.0,346.862,0.862,,,,,,
327,,confirmation,,html-keyboard-response,327,513119,0.0-1.0-66.0-0.0-1.0-0.0,0,0,54497,,,,,,64.0,,,,,,,,,,,,,,,,,,,,,,,,,,,,,,,,347.5,0.638,,,,,,
328,,isi,,html-keyboard-response,328,514125,0.0-1.0-66.0-0.0-2.0,0,0,54497,,,,,,,,,,,,,,,,,,,,,,,,,,,,,,,,,,,,,,348.5,1.0,,,,,,
329,,feedback,,html-keyboard-response,329,515131,0.0-1.0-66.0-0.0-3.0-0.0,0,0,54497,,,,,,64.0,,,,,,,,,,,,,,,,,,,,,,,,,,,,,,,,349.5,1.0,,,,,,
330,,iti,,html-keyboard-response,330,516637,0.0-1.0-66.0-0.0-5.0,0,0,54497,,,,,,,,,,,,,,,,,,,,,,,,,,,,,,,,,,,,,,351.0,1.5,,,,,,
331,,block_over,,html-keyboard-response,331,542097,0.0-1.0-66.0-0.0-7.0-0.0,0,0,54497,,25452.0,,,68.0,64.0,,,,,,,,,,,,,,,,,,,,,,,,,,,,,,,,,,,,,,,
332,,start_run,,html-keyboard-response,332,543579,0.0-1.0-66.0-0.0-7.0-1.0,0,0,54497,,1478.0,,,84.0,,,,,,,,,,,,,,,,,,,,,,,,,,,,,,,,,,,,,,,,
333,,choice,,html-keyboard-response,333,544488,0.0-1.0-67.0-0.0-0.0,0,0,54497,,906.0,,,68.0,65.0,65.0,1000.0,1500.0,0.0,2.0,0.0,20-60,,0.0,tent,hammer,20.0,60.0,tent10,hammer4,0.0,60.0,TENT-DUTCH-GD1-1.jpg,hammernew01.jpg,/static/Category_learning/Stimuli/Experimental_stims/tent/TENT-DUTCH-GD1-1.jpg,/static/Category_learning/Stimuli/Experimental_stims/hammer/hammernew01.jpg,1.0,tent,hammer,20.0,60.0,tent10,hammer4,0.0,60.0,0.0,0.906,0.906,,,,,,
334,,confirmation,,html-keyboard-response,334,545088,0.0-1.0-67.0-0.0-1.0-0.0,0,0,54497,,,,,,65.0,,,,,,,,,,,,,,,,,,,,,,,,,,,,,,,,1.5,0.594,,,,,,
335,,isi,,html-keyboard-response,335,546093,0.0-1.0-67.0-0.0-2.0,0,0,54497,,,,,,,,,,,,,,,,,,,,,,,,,,,,,,,,,,,,,,2.5,1.0,,,,,,
336,,feedback,,html-keyboard-response,336,547099,0.0-1.0-67.0-0.0-3.0-0.0,0,0,54497,,,,,,65.0,,,,,,,,,,,,,,,,,,,,,,,,,,,,,,,,3.5,1.0,,,,,,
337,,iti,,html-keyboard-response,337,548606,0.0-1.0-67.0-0.0-5.0,0,0,54497,,,,,,,,,,,,,,,,,,,,,,,,,,,,,,,,,,,,,,5.0,1.5,,,,,,
338,,choice,,html-keyboard-response,338,549235,0.0-1.0-68.0-0.0-0.0,0,0,54497,,620.0,,,75.0,66.0,66.0,3000.0,1000.0,0.0,2.0,0.0,40-80,,1.0,patio lounge chair,bench,80.0,40.0,patio lounge chair11,bench3,100.0,20.0,51830.jpg,26419540.thl.jpg,/static/Category_learning/Stimuli/Experimental_stims/patio lounge chair/51830.jpg,/static/Category_learning/Stimuli/Experimental_stims/bench/26419540.thl.jpg,0.0,bench,patio lounge chair,40.0,80.0,bench3,patio lounge chair11,20.0,100.0,0.0,5.62,0.62,,,,,,
339,,confirmation,,html-keyboard-response,339,550121,0.0-1.0-68.0-0.0-1.0-0.0,0,0,54497,,,,,,66.0,,,,,,,,,,,,,,,,,,,,,,,,,,,,,,,,6.5,0.88,,,,,,
340,,isi,,html-keyboard-response,340,553126,0.0-1.0-68.0-0.0-2.0,0,0,54497,,,,,,,,,,,,,,,,,,,,,,,,,,,,,,,,,,,,,,9.5,3.0,,,,,,
341,,feedback,,html-keyboard-response,341,554130,0.0-1.0-68.0-0.0-3.0-0.0,0,0,54497,,,,,,66.0,,,,,,,,,,,,,,,,,,,,,,,,,,,,,,,,10.5,1.0,,,,,,
342,,iti,,html-keyboard-response,342,555135,0.0-1.0-68.0-0.0-5.0,0,0,54497,,,,,,,,,,,,,,,,,,,,,,,,,,,,,,,,,,,,,,11.5,1.0,,,,,,
343,,choice,,html-keyboard-response,343,555983,0.0-1.0-69.0-0.0-0.0,0,0,54497,,844.0,,,68.0,67.0,67.0,1500.0,1500.0,0.0,2.0,0.0,20-20,,,trumpet,watch,20.0,20.0,trumpet12,watch6,40.0,20.0,hornabariton.jpg,B0000X04VC.01-A4LKQQKJ91IUZ._AA280_SCLZZZZZZZ_.jpg,/static/Category_learning/Stimuli/Experimental_stims/trumpet/hornabariton.jpg,/static/Category_learning/Stimuli/Experimental_stims/watch/B0000X04VC.01-A4LKQQKJ91IUZ._AA280_SCLZZZZZZZ_.jpg,1.0,trumpet,watch,20.0,20.0,trumpet12,watch6,40.0,20.0,0.0,12.344,0.844,,,,,,
344,,confirmation,,html-keyboard-response,344,556646,0.0-1.0-69.0-0.0-1.0-0.0,0,0,54497,,,,,,67.0,,,,,,,,,,,,,,,,,,,,,,,,,,,,,,,,13.0,0.656,,,,,,
345,,isi,,html-keyboard-response,345,558150,0.0-1.0-69.0-0.0-2.0,0,0,54497,,,,,,,,,,,,,,,,,,,,,,,,,,,,,,,,,,,,,,14.5,1.5,,,,,,
346,,feedback,,html-keyboard-response,346,559156,0.0-1.0-69.0-0.0-3.0-0.0,0,0,54497,,,,,,67.0,,,,,,,,,,,,,,,,,,,,,,,,,,,,,,,,15.5,1.0,,,,,,
347,,iti,,html-keyboard-response,347,560661,0.0-1.0-69.0-0.0-5.0,0,0,54497,,,,,,,,,,,,,,,,,,,,,,,,,,,,,,,,,,,,,,17.0,1.5,,,,,,
348,,choice,,html-keyboard-response,348,561242,0.0-1.0-70.0-0.0-0.0,0,0,54497,,574.0,,,75.0,68.0,68.0,2000.0,1500.0,0.0,2.0,0.0,20-80,,0.0,yarn,small table,20.0,80.0,yarn1,small table8,40.0,60.0,corn_yarn.jpg,ATABLE8.jpg,/static/Category_learning/Stimuli/Experimental_stims/yarn/corn_yarn.jpg,/static/Category_learning/Stimuli/Experimental_stims/small table/ATABLE8.jpg,0.0,small table,yarn,80.0,20.0,small table8,yarn1,60.0,40.0,0.0,17.574,0.574,,,,,,
349,,confirmation,,html-keyboard-response,349,562174,0.0-1.0-70.0-0.0-1.0-0.0,0,0,54497,,,,,,68.0,,,,,,,,,,,,,,,,,,,,,,,,,,,,,,,,18.5,0.926,,,,,,
350,,isi,,html-keyboard-response,350,564178,0.0-1.0-70.0-0.0-2.0,0,0,54497,,,,,,,,,,,,,,,,,,,,,,,,,,,,,,,,,,,,,,20.5,2.0,,,,,,
351,,feedback,,html-keyboard-response,351,565185,0.0-1.0-70.0-0.0-3.0-0.0,0,0,54497,,,,,,68.0,,,,,,,,,,,,,,,,,,,,,,,,,,,,,,,,21.5,1.0,,,,,,
352,,iti,,html-keyboard-response,352,566693,0.0-1.0-70.0-0.0-5.0,0,0,54497,,,,,,,,,,,,,,,,,,,,,,,,,,,,,,,,,,,,,,23.0,1.5,,,,,,
353,,choice,,html-keyboard-response,353,567408,0.0-1.0-71.0-0.0-0.0,0,0,54497,,707.0,,,75.0,69.0,69.0,1000.0,2000.0,0.0,2.0,0.0,60-60,,,makeup compact,hat,60.0,60.0,makeup compact12,hat5,80.0,40.0,P139103_hero.jpg,AREDHAT4.jpg,/static/Category_learning/Stimuli/Experimental_stims/makeup compact/P139103_hero.jpg,/static/Category_learning/Stimuli/Experimental_stims/hat/AREDHAT4.jpg,0.0,hat,makeup compact,60.0,60.0,hat5,makeup compact12,40.0,80.0,0.0,23.707,0.707,,,,,,
354,,confirmation,,html-keyboard-response,354,568208,0.0-1.0-71.0-0.0-1.0-0.0,0,0,54497,,,,,,69.0,,,,,,,,,,,,,,,,,,,,,,,,,,,,,,,,24.5,0.793,,,,,,
355,,isi,,html-keyboard-response,355,569216,0.0-1.0-71.0-0.0-2.0,0,0,54497,,,,,,,,,,,,,,,,,,,,,,,,,,,,,,,,,,,,,,25.5,1.0,,,,,,
356,,feedback,,html-keyboard-response,356,570222,0.0-1.0-71.0-0.0-3.0-0.0,0,0,54497,,,,,,69.0,,,,,,,,,,,,,,,,,,,,,,,,,,,,,,,,26.5,1.0,,,,,,
357,,iti,,html-keyboard-response,357,572227,0.0-1.0-71.0-0.0-5.0,0,0,54497,,,,,,,,,,,,,,,,,,,,,,,,,,,,,,,,,,,,,,28.5,2.0,,,,,,
358,,choice,,html-keyboard-response,358,573050,0.0-1.0-72.0-0.0-0.0,0,0,54497,,813.0,,,68.0,70.0,70.0,1000.0,1000.0,0.0,2.0,0.0,40-60,,0.0,dresser,lipstick,40.0,60.0,dresser4,lipstick5,60.0,40.0,ADRESSE40.jpg,P35719_hero.jpg,/static/Category_learning/Stimuli/Experimental_stims/dresser/ADRESSE40.jpg,/static/Category_learning/Stimuli/Experimental_stims/lipstick/P35719_hero.jpg,1.0,dresser,lipstick,40.0,60.0,dresser4,lipstick5,60.0,40.0,0.0,29.313,0.813,,,,,,
359,,confirmation,,html-keyboard-response,359,573745,0.0-1.0-72.0-0.0-1.0-0.0,0,0,54497,,,,,,70.0,,,,,,,,,,,,,,,,,,,,,,,,,,,,,,,,30.0,0.687,,,,,,
360,,isi,,html-keyboard-response,360,574753,0.0-1.0-72.0-0.0-2.0,0,0,54497,,,,,,,,,,,,,,,,,,,,,,,,,,,,,,,,,,,,,,31.0,1.0,,,,,,
361,,feedback,,html-keyboard-response,361,575759,0.0-1.0-72.0-0.0-3.0-0.0,0,0,54497,,,,,,70.0,,,,,,,,,,,,,,,,,,,,,,,,,,,,,,,,32.0,1.0,,,,,,
362,,iti,,html-keyboard-response,362,576766,0.0-1.0-72.0-0.0-5.0,0,0,54497,,,,,,,,,,,,,,,,,,,,,,,,,,,,,,,,,,,,,,33.0,1.0,,,,,,
363,,choice,,html-keyboard-response,363,577662,0.0-1.0-73.0-0.0-0.0,0,0,54497,,890.0,,,68.0,71.0,71.0,1000.0,1500.0,0.0,2.0,1.0,40-40,1.0,,bench,bench,40.0,40.0,bench3,bench9,20.0,40.0,26419540.thl.jpg,26419898.thl.jpg,/static/Category_learning/Stimuli/Experimental_stims/bench/26419540.thl.jpg,/static/Category_learning/Stimuli/Experimental_stims/bench/26419898.thl.jpg,1.0,bench,bench,40.0,40.0,bench3,bench9,20.0,40.0,0.0,33.89,0.89,,,,,,
364,,confirmation,,html-keyboard-response,364,578279,0.0-1.0-73.0-0.0-1.0-0.0,0,0,54497,,,,,,71.0,,,,,,,,,,,,,,,,,,,,,,,,,,,,,,,,34.5,0.61,,,,,,
365,,isi,,html-keyboard-response,365,579285,0.0-1.0-73.0-0.0-2.0,0,0,54497,,,,,,,,,,,,,,,,,,,,,,,,,,,,,,,,,,,,,,35.5,1.0,,,,,,
366,,feedback,,html-keyboard-response,366,580291,0.0-1.0-73.0-0.0-3.0-0.0,0,0,54497,,,,,,71.0,,,,,,,,,,,,,,,,,,,,,,,,,,,,,,,,36.5,1.0,,,,,,
367,,iti,,html-keyboard-response,367,581797,0.0-1.0-73.0-0.0-5.0,0,0,54497,,,,,,,,,,,,,,,,,,,,,,,,,,,,,,,,,,,,,,38.0,1.5,,,,,,
368,,choice,,html-keyboard-response,368,582587,0.0-1.0-74.0-0.0-0.0,0,0,54497,,782.0,,,75.0,72.0,72.0,2000.0,2000.0,0.0,2.0,0.0,40-60,,1.0,hat,desk,60.0,40.0,hat10,desk11,80.0,60.0,Atornhat3.jpg,Writing_Desk_280_Cutout_Sideview_half.jpg,/static/Category_learning/Stimuli/Experimental_stims/hat/Atornhat3.jpg,/static/Category_learning/Stimuli/Experimental_stims/desk/Writing_Desk_280_Cutout_Sideview_half.jpg,0.0,desk,hat,40.0,60.0,desk11,hat10,60.0,80.0,0.0,38.782,0.782,,,,,,
369,,confirmation,,html-keyboard-response,369,583312,0.0-1.0-74.0-0.0-1.0-0.0,0,0,54497,,,,,,72.0,,,,,,,,,,,,,,,,,,,,,,,,,,,,,,,,39.5,0.718,,,,,,
370,,isi,,html-keyboard-response,370,585318,0.0-1.0-74.0-0.0-2.0,0,0,54497,,,,,,,,,,,,,,,,,,,,,,,,,,,,,,,,,,,,,,41.5,2.0,,,,,,
371,,feedback,,html-keyboard-response,371,586325,0.0-1.0-74.0-0.0-3.0-0.0,0,0,54497,,,,,,72.0,,,,,,,,,,,,,,,,,,,,,,,,,,,,,,,,42.5,1.0,,,,,,
372,,iti,,html-keyboard-response,372,588331,0.0-1.0-74.0-0.0-5.0,0,0,54497,,,,,,,,,,,,,,,,,,,,,,,,,,,,,,,,,,,,,,44.5,2.0,,,,,,
373,,choice,,html-keyboard-response,373,589339,0.0-1.0-75.0-0.0-0.0,0,0,54497,,999.0,,,68.0,73.0,73.0,1500.0,1000.0,0.0,2.0,1.0,80-80,1.0,,small table,small table,80.0,80.0,small table2,small table8,100.0,60.0,Atable126.jpg,ATABLE8.jpg,/static/Category_learning/Stimuli/Experimental_stims/small table/Atable126.jpg,/static/Category_learning/Stimuli/Experimental_stims/small table/ATABLE8.jpg,1.0,small table,small table,80.0,80.0,small table2,small table8,100.0,60.0,0.0,45.499,0.999,,,,,,
374,,confirmation,,html-keyboard-response,374,589848,0.0-1.0-75.0-0.0-1.0-0.0,0,0,54497,,,,,,73.0,,,,,,,,,,,,,,,,,,,,,,,,,,,,,,,,46.0,0.501,,,,,,
375,,isi,,html-keyboard-response,375,591354,0.0-1.0-75.0-0.0-2.0,0,0,54497,,,,,,,,,,,,,,,,,,,,,,,,,,,,,,,,,,,,,,47.5,1.5,,,,,,
376,,feedback,,html-keyboard-response,376,592360,0.0-1.0-75.0-0.0-3.0-0.0,0,0,54497,,,,,,73.0,,,,,,,,,,,,,,,,,,,,,,,,,,,,,,,,48.5,1.0,,,,,,
377,,iti,,html-keyboard-response,377,593365,0.0-1.0-75.0-0.0-5.0,0,0,54497,,,,,,,,,,,,,,,,,,,,,,,,,,,,,,,,,,,,,,49.5,1.0,,,,,,
378,,choice,,html-keyboard-response,378,594176,0.0-1.0-76.0-0.0-0.0,0,0,54497,,803.0,,,75.0,74.0,74.0,1500.0,1000.0,0.0,2.0,1.0,20-40,0.0,,bongo,train,40.0,20.0,bongo14,train4,40.0,40.0,26390667.thl.jpg,After-RHS-2-web.jpg,/static/Category_learning/Stimuli/Experimental_stims/bongo/26390667.thl.jpg,/static/Category_learning/Stimuli/Experimental_stims/train/After-RHS-2-web.jpg,0.0,train,bongo,20.0,40.0,train4,bongo14,40.0,40.0,0.0,50.303,0.803,,,,,,
379,,confirmation,,html-keyboard-response,379,594880,0.0-1.0-76.0-0.0-1.0-0.0,0,0,54497,,,,,,74.0,,,,,,,,,,,,,,,,,,,,,,,,,,,,,,,,51.0,0.697,,,,,,
380,,isi,,html-keyboard-response,380,596386,0.0-1.0-76.0-0.0-2.0,0,0,54497,,,,,,,,,,,,,,,,,,,,,,,,,,,,,,,,,,,,,,52.5,1.5,,,,,,
381,,feedback,,html-keyboard-response,381,597393,0.0-1.0-76.0-0.0-3.0-0.0,0,0,54497,,,,,,74.0,,,,,,,,,,,,,,,,,,,,,,,,,,,,,,,,53.5,1.0,,,,,,
382,,iti,,html-keyboard-response,382,598400,0.0-1.0-76.0-0.0-5.0,0,0,54497,,,,,,,,,,,,,,,,,,,,,,,,,,,,,,,,,,,,,,54.5,1.0,,,,,,
383,,choice,,html-keyboard-response,383,599362,0.0-1.0-77.0-0.0-0.0,0,0,54497,,956.0,,,75.0,75.0,75.0,1000.0,1000.0,0.0,2.0,0.0,60-60,,,microscope,hat,60.0,60.0,microscope8,hat14,60.0,60.0,AMICROS21.jpg,Ahat136.jpg,/static/Category_learning/Stimuli/Experimental_stims/microscope/AMICROS21.jpg,/static/Category_learning/Stimuli/Experimental_stims/hat/Ahat136.jpg,0.0,hat,microscope,60.0,60.0,hat14,microscope8,60.0,60.0,0.0,55.456,0.956,,,,,,
384,,confirmation,,html-keyboard-response,384,599913,0.0-1.0-77.0-0.0-1.0-0.0,0,0,54497,,,,,,75.0,,,,,,,,,,,,,,,,,,,,,,,,,,,,,,,,56.0,0.544,,,,,,
385,,isi,,html-keyboard-response,385,600919,0.0-1.0-77.0-0.0-2.0,0,0,54497,,,,,,,,,,,,,,,,,,,,,,,,,,,,,,,,,,,,,,57.0,1.0,,,,,,
386,,feedback,,html-keyboard-response,386,601925,0.0-1.0-77.0-0.0-3.0-0.0,0,0,54497,,,,,,75.0,,,,,,,,,,,,,,,,,,,,,,,,,,,,,,,,58.0,1.0,,,,,,
387,,iti,,html-keyboard-response,387,602930,0.0-1.0-77.0-0.0-5.0,0,0,54497,,,,,,,,,,,,,,,,,,,,,,,,,,,,,,,,,,,,,,59.0,1.0,,,,,,
388,,choice,,html-keyboard-response,388,603825,0.0-1.0-78.0-0.0-0.0,0,0,54497,,888.0,,,75.0,76.0,76.0,2000.0,2000.0,0.0,2.0,0.0,40-60,,0.0,door knob,frame,40.0,60.0,door knob8,frame10,40.0,80.0,pro_l_116_medeco437ul.jpg,AFRAME107.jpg,/static/Category_learning/Stimuli/Experimental_stims/door knob/pro_l_116_medeco437ul.jpg,/static/Category_learning/Stimuli/Experimental_stims/frame/AFRAME107.jpg,0.0,frame,door knob,60.0,40.0,frame10,door knob8,80.0,40.0,0.0,59.888,0.888,,,,,,
389,,confirmation,,html-keyboard-response,389,604444,0.0-1.0-78.0-0.0-1.0-0.0,0,0,54497,,,,,,76.0,,,,,,,,,,,,,,,,,,,,,,,,,,,,,,,,60.5,0.612,,,,,,
390,,isi,,html-keyboard-response,390,606449,0.0-1.0-78.0-0.0-2.0,0,0,54497,,,,,,,,,,,,,,,,,,,,,,,,,,,,,,,,,,,,,,62.5,2.0,,,,,,
391,,feedback,,html-keyboard-response,391,607456,0.0-1.0-78.0-0.0-3.0-0.0,0,0,54497,,,,,,76.0,,,,,,,,,,,,,,,,,,,,,,,,,,,,,,,,63.5,1.0,,,,,,
392,,iti,,html-keyboard-response,392,609461,0.0-1.0-78.0-0.0-5.0,0,0,54497,,,,,,,,,,,,,,,,,,,,,,,,,,,,,,,,,,,,,,65.5,2.0,,,,,,
393,,choice,,html-keyboard-response,393,610359,0.0-1.0-79.0-0.0-0.0,0,0,54497,,892.0,,,75.0,77.0,77.0,1500.0,2000.0,0.0,2.0,0.0,40-60,,0.0,bench,hat,40.0,60.0,bench6,hat3,20.0,60.0,26370121.thl.jpg,Astrawhat49.jpg,/static/Category_learning/Stimuli/Experimental_stims/bench/26370121.thl.jpg,/static/Category_learning/Stimuli/Experimental_stims/hat/Astrawhat49.jpg,0.0,hat,bench,60.0,40.0,hat3,bench6,60.0,20.0,0.0,66.392,0.892,,,,,,
394,,confirmation,,html-keyboard-response,394,610973,0.0-1.0-79.0-0.0-1.0-0.0,0,0,54497,,,,,,77.0,,,,,,,,,,,,,,,,,,,,,,,,,,,,,,,,67.0,0.608,,,,,,
395,,isi,,html-keyboard-response,395,612477,0.0-1.0-79.0-0.0-2.0,0,0,54497,,,,,,,,,,,,,,,,,,,,,,,,,,,,,,,,,,,,,,68.5,1.5,,,,,,
396,,feedback,,html-keyboard-response,396,613483,0.0-1.0-79.0-0.0-3.0-0.0,0,0,54497,,,,,,77.0,,,,,,,,,,,,,,,,,,,,,,,,,,,,,,,,69.5,1.0,,,,,,
397,,iti,,html-keyboard-response,397,615487,0.0-1.0-79.0-0.0-5.0,0,0,54497,,,,,,,,,,,,,,,,,,,,,,,,,,,,,,,,,,,,,,71.5,2.0,,,,,,
398,,choice,,html-keyboard-response,398,616336,0.0-1.0-80.0-0.0-0.0,0,0,54497,,844.0,,,75.0,78.0,78.0,2000.0,1500.0,0.0,2.0,0.0,40-80,,1.0,nail polish,baby carriage,80.0,40.0,nail polish15,baby carriage1,60.0,40.0,MA_NP_WSD.jpg,babycarriage16.jpg,/static/Category_learning/Stimuli/Experimental_stims/nail polish/MA_NP_WSD.jpg,/static/Category_learning/Stimuli/Experimental_stims/baby carriage/babycarriage16.jpg,0.0,baby carriage,nail polish,40.0,80.0,baby carriage1,nail polish15,40.0,60.0,0.0,72.344,0.844,,,,,,
399,,confirmation,,html-keyboard-response,399,616999,0.0-1.0-80.0-0.0-1.0-0.0,0,0,54497,,,,,,78.0,,,,,,,,,,,,,,,,,,,,,,,,,,,,,,,,73.0,0.656,,,,,,
400,,isi,,html-keyboard-response,400,619004,0.0-1.0-80.0-0.0-2.0,0,0,54497,,,,,,,,,,,,,,,,,,,,,,,,,,,,,,,,,,,,,,75.0,2.0,,,,,,
401,,feedback,,html-keyboard-response,401,620010,0.0-1.0-80.0-0.0-3.0-0.0,0,0,54497,,,,,,78.0,,,,,,,,,,,,,,,,,,,,,,,,,,,,,,,,76.0,1.0,,,,,,
402,,iti,,html-keyboard-response,402,621516,0.0-1.0-80.0-0.0-5.0,0,0,54497,,,,,,,,,,,,,,,,,,,,,,,,,,,,,,,,,,,,,,77.5,1.5,,,,,,
403,,choice,,html-keyboard-response,403,622777,0.0-1.0-81.0-0.0-0.0,0,0,54497,,1256.0,,,68.0,79.0,79.0,1000.0,1500.0,0.0,2.0,0.0,40-80,,1.0,poker card,bongo,80.0,40.0,poker card2,bongo9,100.0,20.0,22864716.thl.jpg,22946035.thl.jpg,/static/Category_learning/Stimuli/Experimental_stims/poker card/22864716.thl.jpg,/static/Category_learning/Stimuli/Experimental_stims/bongo/22946035.thl.jpg,1.0,poker card,bongo,80.0,40.0,poker card2,bongo9,100.0,20.0,0.0,78.756,1.256,,,,,,
404,,confirmation,,html-keyboard-response,404,623028,0.0-1.0-81.0-0.0-1.0-0.0,0,0,54497,,,,,,79.0,,,,,,,,,,,,,,,,,,,,,,,,,,,,,,,,79.0,0.244,,,,,,
405,,isi,,html-keyboard-response,405,624035,0.0-1.0-81.0-0.0-2.0,0,0,54497,,,,,,,,,,,,,,,,,,,,,,,,,,,,,,,,,,,,,,80.0,1.0,,,,,,
406,,feedback,,html-keyboard-response,406,625040,0.0-1.0-81.0-0.0-3.0-0.0,0,0,54497,,,,,,79.0,,,,,,,,,,,,,,,,,,,,,,,,,,,,,,,,81.0,1.0,,,,,,
407,,iti,,html-keyboard-response,407,626546,0.0-1.0-81.0-0.0-5.0,0,0,54497,,,,,,,,,,,,,,,,,,,,,,,,,,,,,,,,,,,,,,82.5,1.5,,,,,,
408,,choice,,html-keyboard-response,408,627186,0.0-1.0-82.0-0.0-0.0,0,0,54497,,634.0,,,75.0,80.0,80.0,1000.0,1000.0,0.0,2.0,0.0,80-80,,,seashell,patio lounge chair,80.0,80.0,seashell6,patio lounge chair3,80.0,60.0,PY2H1461.jpg,Lounge_Chair.jpg,/static/Category_learning/Stimuli/Experimental_stims/seashell/PY2H1461.jpg,/static/Category_learning/Stimuli/Experimental_stims/patio lounge chair/Lounge_Chair.jpg,0.0,patio lounge chair,seashell,80.0,80.0,patio lounge chair3,seashell6,60.0,80.0,0.0,83.134,0.634,,,,,,
409,,confirmation,,html-keyboard-response,409,628059,0.0-1.0-82.0-0.0-1.0-0.0,0,0,54497,,,,,,80.0,,,,,,,,,,,,,,,,,,,,,,,,,,,,,,,,84.0,0.866,,,,,,
410,,isi,,html-keyboard-response,410,629065,0.0-1.0-82.0-0.0-2.0,0,0,54497,,,,,,,,,,,,,,,,,,,,,,,,,,,,,,,,,,,,,,85.0,1.0,,,,,,
411,,feedback,,html-keyboard-response,411,630071,0.0-1.0-82.0-0.0-3.0-0.0,0,0,54497,,,,,,80.0,,,,,,,,,,,,,,,,,,,,,,,,,,,,,,,,86.0,1.0,,,,,,
412,,iti,,html-keyboard-response,412,631078,0.0-1.0-82.0-0.0-5.0,0,0,54497,,,,,,,,,,,,,,,,,,,,,,,,,,,,,,,,,,,,,,87.0,1.0,,,,,,
413,,choice,,html-keyboard-response,413,631732,0.0-1.0-83.0-0.0-0.0,0,0,54497,,646.0,,,75.0,81.0,81.0,1000.0,3500.0,0.0,2.0,0.0,20-80,,0.0,tape,small table,20.0,80.0,tape10,small table10,20.0,100.0,26377601.thl.jpg,ATABLE41.jpg,/static/Category_learning/Stimuli/Experimental_stims/tape/26377601.thl.jpg,/static/Category_learning/Stimuli/Experimental_stims/small table/ATABLE41.jpg,0.0,small table,tape,80.0,20.0,small table10,tape10,100.0,20.0,0.0,87.646,0.646,,,,,,
414,,confirmation,,html-keyboard-response,414,632593,0.0-1.0-83.0-0.0-1.0-0.0,0,0,54497,,,,,,81.0,,,,,,,,,,,,,,,,,,,,,,,,,,,,,,,,88.5,0.854,,,,,,
415,,isi,,html-keyboard-response,415,633599,0.0-1.0-83.0-0.0-2.0,0,0,54497,,,,,,,,,,,,,,,,,,,,,,,,,,,,,,,,,,,,,,89.5,1.0,,,,,,
416,,feedback,,html-keyboard-response,416,634606,0.0-1.0-83.0-0.0-3.0-0.0,0,0,54497,,,,,,81.0,,,,,,,,,,,,,,,,,,,,,,,,,,,,,,,,90.5,1.0,,,,,,
417,,iti,,html-keyboard-response,417,638114,0.0-1.0-83.0-0.0-5.0,0,0,54497,,,,,,,,,,,,,,,,,,,,,,,,,,,,,,,,,,,,,,94.0,3.5,,,,,,
418,,choice,,html-keyboard-response,418,639196,0.0-1.0-84.0-0.0-0.0,0,0,54497,,1077.0,,,75.0,82.0,82.0,1000.0,3500.0,0.0,2.0,0.0,20-60,,0.0,stool,frame,20.0,60.0,stool14,frame7,40.0,40.0,hjscott-sbs-b-bar-stool.jpg,AFRAME152.jpg,/static/Category_learning/Stimuli/Experimental_stims/stool/hjscott-sbs-b-bar-stool.jpg,/static/Category_learning/Stimuli/Experimental_stims/frame/AFRAME152.jpg,0.0,frame,stool,60.0,20.0,frame7,stool14,40.0,40.0,0.0,95.077,1.077,,,,,,
419,,confirmation,,html-keyboard-response,419,639625,0.0-1.0-84.0-0.0-1.0-0.0,0,0,54497,,,,,,82.0,,,,,,,,,,,,,,,,,,,,,,,,,,,,,,,,95.5,0.423,,,,,,
420,,isi,,html-keyboard-response,420,640631,0.0-1.0-84.0-0.0-2.0,0,0,54497,,,,,,,,,,,,,,,,,,,,,,,,,,,,,,,,,,,,,,96.5,1.0,,,,,,
421,,feedback,,html-keyboard-response,421,641639,0.0-1.0-84.0-0.0-3.0-0.0,0,0,54497,,,,,,82.0,,,,,,,,,,,,,,,,,,,,,,,,,,,,,,,,97.5,1.0,,,,,,
422,,iti,,html-keyboard-response,422,645145,0.0-1.0-84.0-0.0-5.0,0,0,54497,,,,,,,,,,,,,,,,,,,,,,,,,,,,,,,,,,,,,,101.0,3.5,,,,,,
423,,choice,,html-keyboard-response,423,646002,0.0-1.0-85.0-0.0-0.0,0,0,54497,,851.0,,,68.0,83.0,83.0,3500.0,3000.0,0.0,2.0,0.0,20-60,,0.0,telescope,hammer,20.0,60.0,telescope10,hammer1,40.0,60.0,digimarc.ms02.jpg,fosnaugh.hammer.jpg,/static/Category_learning/Stimuli/Experimental_stims/telescope/digimarc.ms02.jpg,/static/Category_learning/Stimuli/Experimental_stims/hammer/fosnaugh.hammer.jpg,1.0,telescope,hammer,20.0,60.0,telescope10,hammer1,40.0,60.0,0.0,101.851,0.851,,,,,,
424,,confirmation,,html-keyboard-response,424,646657,0.0-1.0-85.0-0.0-1.0-0.0,0,0,54497,,,,,,83.0,,,,,,,,,,,,,,,,,,,,,,,,,,,,,,,,102.5,0.649,,,,,,
425,,isi,,html-keyboard-response,425,650163,0.0-1.0-85.0-0.0-2.0,0,0,54497,,,,,,,,,,,,,,,,,,,,,,,,,,,,,,,,,,,,,,106.0,3.5,,,,,,
426,,feedback,,html-keyboard-response,426,651169,0.0-1.0-85.0-0.0-3.0-0.0,0,0,54497,,,,,,83.0,,,,,,,,,,,,,,,,,,,,,,,,,,,,,,,,107.0,1.0,,,,,,
427,,iti,,html-keyboard-response,427,654176,0.0-1.0-85.0-0.0-5.0,0,0,54497,,,,,,,,,,,,,,,,,,,,,,,,,,,,,,,,,,,,,,110.0,3.0,,,,,,
428,,choice,,html-keyboard-response,428,654855,0.0-1.0-86.0-0.0-0.0,0,0,54497,,673.0,,,75.0,84.0,84.0,1000.0,1500.0,0.0,2.0,0.0,20-80,,1.0,small table,trumpet,80.0,20.0,small table14,trumpet4,100.0,0.0,Awoodtable13.jpg,JUPITER+JTR1000S.jpg,/static/Category_learning/Stimuli/Experimental_stims/small table/Awoodtable13.jpg,/static/Category_learning/Stimuli/Experimental_stims/trumpet/JUPITER+JTR1000S.jpg,0.0,trumpet,small table,20.0,80.0,trumpet4,small table14,0.0,100.0,0.0,110.673,0.673,,,,,,
429,,confirmation,,html-keyboard-response,429,655688,0.0-1.0-86.0-0.0-1.0-0.0,0,0,54497,,,,,,84.0,,,,,,,,,,,,,,,,,,,,,,,,,,,,,,,,111.5,0.827,,,,,,
430,,isi,,html-keyboard-response,430,656695,0.0-1.0-86.0-0.0-2.0,0,0,54497,,,,,,,,,,,,,,,,,,,,,,,,,,,,,,,,,,,,,,112.5,1.0,,,,,,
431,,feedback,,html-keyboard-response,431,657701,0.0-1.0-86.0-0.0-3.0-0.0,0,0,54497,,,,,,84.0,,,,,,,,,,,,,,,,,,,,,,,,,,,,,,,,113.5,1.0,,,,,,
432,,iti,,html-keyboard-response,432,659207,0.0-1.0-86.0-0.0-5.0,0,0,54497,,,,,,,,,,,,,,,,,,,,,,,,,,,,,,,,,,,,,,115.0,1.5,,,,,,
433,,choice,,html-keyboard-response,433,660019,0.0-1.0-87.0-0.0-0.0,0,0,54497,,807.0,,,75.0,85.0,85.0,1500.0,3000.0,0.0,2.0,0.0,40-40,,,baby carriage,flashlight,40.0,40.0,baby carriage15,flashlight14,40.0,40.0,AANBABYC2.jpg,freeplay-jonta-flashlight.jpg,/static/Category_learning/Stimuli/Experimental_stims/baby carriage/AANBABYC2.jpg,/static/Category_learning/Stimuli/Experimental_stims/flashlight/freeplay-jonta-flashlight.jpg,0.0,flashlight,baby carriage,40.0,40.0,flashlight14,baby carriage15,40.0,40.0,0.0,115.807,0.807,,,,,,
434,,confirmation,,html-keyboard-response,434,660717,0.0-1.0-87.0-0.0-1.0-0.0,0,0,54497,,,,,,85.0,,,,,,,,,,,,,,,,,,,,,,,,,,,,,,,,116.5,0.693,,,,,,
435,,isi,,html-keyboard-response,435,662224,0.0-1.0-87.0-0.0-2.0,0,0,54497,,,,,,,,,,,,,,,,,,,,,,,,,,,,,,,,,,,,,,118.0,1.5,,,,,,
436,,feedback,,html-keyboard-response,436,663231,0.0-1.0-87.0-0.0-3.0-0.0,0,0,54497,,,,,,85.0,,,,,,,,,,,,,,,,,,,,,,,,,,,,,,,,119.0,1.0,,,,,,
437,,iti,,html-keyboard-response,437,666237,0.0-1.0-87.0-0.0-5.0,0,0,54497,,,,,,,,,,,,,,,,,,,,,,,,,,,,,,,,,,,,,,122.0,3.0,,,,,,
438,,choice,,html-keyboard-response,438,667220,0.0-1.0-88.0-0.0-0.0,0,0,54497,,976.0,,,75.0,86.0,86.0,2000.0,1000.0,0.0,2.0,1.0,20-20,1.0,,telescope,telescope,20.0,20.0,telescope10,telescope2,40.0,40.0,digimarc.ms02.jpg,Brass-telescope-60700.jpg,/static/Category_learning/Stimuli/Experimental_stims/telescope/digimarc.ms02.jpg,/static/Category_learning/Stimuli/Experimental_stims/telescope/Brass-telescope-60700.jpg,0.0,telescope,telescope,20.0,20.0,telescope2,telescope10,40.0,40.0,0.0,122.976,0.976,,,,,,
439,,confirmation,,html-keyboard-response,439,667751,0.0-1.0-88.0-0.0-1.0-0.0,0,0,54497,,,,,,86.0,,,,,,,,,,,,,,,,,,,,,,,,,,,,,,,,123.5,0.524,,,,,,
440,,isi,,html-keyboard-response,440,669756,0.0-1.0-88.0-0.0-2.0,0,0,54497,,,,,,,,,,,,,,,,,,,,,,,,,,,,,,,,,,,,,,125.5,2.0,,,,,,
441,,feedback,,html-keyboard-response,441,670764,0.0-1.0-88.0-0.0-3.0-0.0,0,0,54497,,,,,,86.0,,,,,,,,,,,,,,,,,,,,,,,,,,,,,,,,126.5,1.0,,,,,,
442,,iti,,html-keyboard-response,442,671770,0.0-1.0-88.0-0.0-5.0,0,0,54497,,,,,,,,,,,,,,,,,,,,,,,,,,,,,,,,,,,,,,127.5,1.0,,,,,,
443,,choice,,html-keyboard-response,443,672626,0.0-1.0-89.0-0.0-0.0,0,0,54497,,849.0,,,68.0,87.0,87.0,2000.0,1000.0,0.0,2.0,1.0,60-60,1.0,,frame,frame,60.0,60.0,frame4,frame7,60.0,40.0,AFRAME125.jpg,AFRAME152.jpg,/static/Category_learning/Stimuli/Experimental_stims/frame/AFRAME125.jpg,/static/Category_learning/Stimuli/Experimental_stims/frame/AFRAME152.jpg,1.0,frame,frame,60.0,60.0,frame4,frame7,60.0,40.0,0.0,128.349,0.849,,,,,,
444,,confirmation,,html-keyboard-response,444,673286,0.0-1.0-89.0-0.0-1.0-0.0,0,0,54497,,,,,,87.0,,,,,,,,,,,,,,,,,,,,,,,,,,,,,,,,129.0,0.651,,,,,,
445,,isi,,html-keyboard-response,445,675291,0.0-1.0-89.0-0.0-2.0,0,0,54497,,,,,,,,,,,,,,,,,,,,,,,,,,,,,,,,,,,,,,131.0,2.0,,,,,,
446,,feedback,,html-keyboard-response,446,676299,0.0-1.0-89.0-0.0-3.0-0.0,0,0,54497,,,,,,87.0,,,,,,,,,,,,,,,,,,,,,,,,,,,,,,,,132.0,1.0,,,,,,
447,,iti,,html-keyboard-response,447,677305,0.0-1.0-89.0-0.0-5.0,0,0,54497,,,,,,,,,,,,,,,,,,,,,,,,,,,,,,,,,,,,,,133.0,1.0,,,,,,
448,,choice,,html-keyboard-response,448,678138,0.0-1.0-90.0-0.0-0.0,0,0,54497,,828.0,,,75.0,88.0,88.0,3000.0,1000.0,0.0,2.0,0.0,40-60,,1.0,motorcycle,baby carriage,60.0,40.0,motorcycle8,baby carriage6,80.0,20.0,Motorcycle903425j2.jpg,Baby_Stroller-1.jpg,/static/Category_learning/Stimuli/Experimental_stims/motorcycle/Motorcycle903425j2.jpg,/static/Category_learning/Stimuli/Experimental_stims/baby carriage/Baby_Stroller-1.jpg,0.0,baby carriage,motorcycle,40.0,60.0,baby carriage6,motorcycle8,20.0,80.0,0.0,133.828,0.828,,,,,,
449,,confirmation,,html-keyboard-response,449,678816,0.0-1.0-90.0-0.0-1.0-0.0,0,0,54497,,,,,,88.0,,,,,,,,,,,,,,,,,,,,,,,,,,,,,,,,134.5,0.672,,,,,,
450,,isi,,html-keyboard-response,450,681824,0.0-1.0-90.0-0.0-2.0,0,0,54497,,,,,,,,,,,,,,,,,,,,,,,,,,,,,,,,,,,,,,137.5,3.0,,,,,,
451,,feedback,,html-keyboard-response,451,682829,0.0-1.0-90.0-0.0-3.0-0.0,0,0,54497,,,,,,88.0,,,,,,,,,,,,,,,,,,,,,,,,,,,,,,,,138.5,1.0,,,,,,
452,,iti,,html-keyboard-response,452,683835,0.0-1.0-90.0-0.0-5.0,0,0,54497,,,,,,,,,,,,,,,,,,,,,,,,,,,,,,,,,,,,,,139.5,1.0,,,,,,
453,,choice,,html-keyboard-response,453,684642,0.0-1.0-91.0-0.0-0.0,0,0,54497,,801.0,,,68.0,89.0,89.0,1000.0,1500.0,0.0,2.0,0.0,20-80,,1.0,pen,tent,80.0,20.0,pen9,tent4,60.0,20.0,Aredpen3.jpg,Atent12.jpg,/static/Category_learning/Stimuli/Experimental_stims/pen/Aredpen3.jpg,/static/Category_learning/Stimuli/Experimental_stims/tent/Atent12.jpg,1.0,pen,tent,80.0,20.0,pen9,tent4,60.0,20.0,0.0,140.301,0.801,,,,,,
454,,confirmation,,html-keyboard-response,454,685357,0.0-1.0-91.0-0.0-1.0-0.0,0,0,54497,,,,,,89.0,,,,,,,,,,,,,,,,,,,,,,,,,,,,,,,,141.0,0.699,,,,,,
455,,isi,,html-keyboard-response,455,686363,0.0-1.0-91.0-0.0-2.0,0,0,54497,,,,,,,,,,,,,,,,,,,,,,,,,,,,,,,,,,,,,,142.0,1.0,,,,,,
456,,feedback,,html-keyboard-response,456,687370,0.0-1.0-91.0-0.0-3.0-0.0,0,0,54497,,,,,,89.0,,,,,,,,,,,,,,,,,,,,,,,,,,,,,,,,143.0,1.0,,,,,,
457,,iti,,html-keyboard-response,457,688876,0.0-1.0-91.0-0.0-5.0,0,0,54497,,,,,,,,,,,,,,,,,,,,,,,,,,,,,,,,,,,,,,144.5,1.5,,,,,,
458,,choice,,html-keyboard-response,458,689865,0.0-1.0-92.0-0.0-0.0,0,0,54497,,984.0,,,68.0,90.0,90.0,2000.0,1000.0,0.0,2.0,0.0,20-40,,1.0,bongo,yarn,40.0,20.0,bongo7,yarn6,20.0,20.0,26461075.thl.jpg,edwardian moment hpy sml.jpg,/static/Category_learning/Stimuli/Experimental_stims/bongo/26461075.thl.jpg,/static/Category_learning/Stimuli/Experimental_stims/yarn/edwardian moment hpy sml.jpg,1.0,bongo,yarn,40.0,20.0,bongo7,yarn6,20.0,20.0,0.0,145.484,0.984,,,,,,
459,,confirmation,,html-keyboard-response,459,690388,0.0-1.0-92.0-0.0-1.0-0.0,0,0,54497,,,,,,90.0,,,,,,,,,,,,,,,,,,,,,,,,,,,,,,,,146.0,0.516,,,,,,
460,,isi,,html-keyboard-response,460,692395,0.0-1.0-92.0-0.0-2.0,0,0,54497,,,,,,,,,,,,,,,,,,,,,,,,,,,,,,,,,,,,,,148.0,2.0,,,,,,
461,,feedback,,html-keyboard-response,461,693401,0.0-1.0-92.0-0.0-3.0-0.0,0,0,54497,,,,,,90.0,,,,,,,,,,,,,,,,,,,,,,,,,,,,,,,,149.0,1.0,,,,,,
462,,iti,,html-keyboard-response,462,694408,0.0-1.0-92.0-0.0-5.0,0,0,54497,,,,,,,,,,,,,,,,,,,,,,,,,,,,,,,,,,,,,,150.0,1.0,,,,,,
463,,choice,,html-keyboard-response,463,695155,0.0-1.0-93.0-0.0-0.0,0,0,54497,,742.0,,,68.0,91.0,91.0,3500.0,1000.0,0.0,2.0,0.0,40-40,,,desk,bongo,40.0,40.0,desk2,bongo15,60.0,40.0,AA Luffield Radial crescent Desk 1600mm x 1200mm.jpg,26390728.thl.jpg,/static/Category_learning/Stimuli/Experimental_stims/desk/AA Luffield Radial crescent Desk 1600mm x 1200mm.jpg,/static/Category_learning/Stimuli/Experimental_stims/bongo/26390728.thl.jpg,1.0,desk,bongo,40.0,40.0,desk2,bongo15,60.0,40.0,0.0,150.742,0.742,,,,,,
464,,confirmation,,html-keyboard-response,464,695919,0.0-1.0-93.0-0.0-1.0-0.0,0,0,54497,,,,,,91.0,,,,,,,,,,,,,,,,,,,,,,,,,,,,,,,,151.5,0.758,,,,,,
465,,isi,,html-keyboard-response,465,699425,0.0-1.0-93.0-0.0-2.0,0,0,54497,,,,,,,,,,,,,,,,,,,,,,,,,,,,,,,,,,,,,,155.0,3.5,,,,,,
466,,feedback,,html-keyboard-response,466,700431,0.0-1.0-93.0-0.0-3.0-0.0,0,0,54497,,,,,,91.0,,,,,,,,,,,,,,,,,,,,,,,,,,,,,,,,156.0,1.0,,,,,,
467,,iti,,html-keyboard-response,467,701438,0.0-1.0-93.0-0.0-5.0,0,0,54497,,,,,,,,,,,,,,,,,,,,,,,,,,,,,,,,,,,,,,157.0,1.0,,,,,,
468,,choice,,html-keyboard-response,468,702315,0.0-1.0-94.0-0.0-0.0,0,0,54497,,871.0,,,75.0,92.0,92.0,1500.0,1000.0,0.0,2.0,1.0,20-20,1.0,,trumpet,trumpet,20.0,20.0,trumpet4,trumpet12,0.0,40.0,JUPITER+JTR1000S.jpg,hornabariton.jpg,/static/Category_learning/Stimuli/Experimental_stims/trumpet/JUPITER+JTR1000S.jpg,/static/Category_learning/Stimuli/Experimental_stims/trumpet/hornabariton.jpg,0.0,trumpet,trumpet,20.0,20.0,trumpet12,trumpet4,40.0,0.0,0.0,157.871,0.871,,,,,,
469,,confirmation,,html-keyboard-response,469,702950,0.0-1.0-94.0-0.0-1.0-0.0,0,0,54497,,,,,,92.0,,,,,,,,,,,,,,,,,,,,,,,,,,,,,,,,158.5,0.629,,,,,,
470,,isi,,html-keyboard-response,470,704455,0.0-1.0-94.0-0.0-2.0,0,0,54497,,,,,,,,,,,,,,,,,,,,,,,,,,,,,,,,,,,,,,160.0,1.5,,,,,,
471,,feedback,,html-keyboard-response,471,705462,0.0-1.0-94.0-0.0-3.0-0.0,0,0,54497,,,,,,92.0,,,,,,,,,,,,,,,,,,,,,,,,,,,,,,,,161.0,1.0,,,,,,
472,,iti,,html-keyboard-response,472,706468,0.0-1.0-94.0-0.0-5.0,0,0,54497,,,,,,,,,,,,,,,,,,,,,,,,,,,,,,,,,,,,,,162.0,1.0,,,,,,
473,,choice,,html-keyboard-response,473,707234,0.0-1.0-95.0-0.0-0.0,0,0,54497,,759.0,,,68.0,93.0,93.0,3000.0,2000.0,0.0,2.0,1.0,80-80,1.0,,patio lounge chair,patio lounge chair,80.0,80.0,patio lounge chair9,patio lounge chair3,80.0,60.0,43-3.jpg,Lounge_Chair.jpg,/static/Category_learning/Stimuli/Experimental_stims/patio lounge chair/43-3.jpg,/static/Category_learning/Stimuli/Experimental_stims/patio lounge chair/Lounge_Chair.jpg,1.0,patio lounge chair,patio lounge chair,80.0,80.0,patio lounge chair9,patio lounge chair3,80.0,60.0,0.0,162.759,0.759,,,,,,
474,,confirmation,,html-keyboard-response,474,707980,0.0-1.0-95.0-0.0-1.0-0.0,0,0,54497,,,,,,93.0,,,,,,,,,,,,,,,,,,,,,,,,,,,,,,,,163.5,0.741,,,,,,
475,,isi,,html-keyboard-response,475,710986,0.0-1.0-95.0-0.0-2.0,0,0,54497,,,,,,,,,,,,,,,,,,,,,,,,,,,,,,,,,,,,,,166.5,3.0,,,,,,
476,,feedback,,html-keyboard-response,476,711994,0.0-1.0-95.0-0.0-3.0-0.0,0,0,54497,,,,,,93.0,,,,,,,,,,,,,,,,,,,,,,,,,,,,,,,,167.5,1.0,,,,,,
477,,iti,,html-keyboard-response,477,714000,0.0-1.0-95.0-0.0-5.0,0,0,54497,,,,,,,,,,,,,,,,,,,,,,,,,,,,,,,,,,,,,,169.5,2.0,,,,,,
478,,choice,,html-keyboard-response,478,714928,0.0-1.0-96.0-0.0-0.0,0,0,54497,,919.0,,,75.0,94.0,94.0,1500.0,1500.0,0.0,2.0,0.0,40-80,,1.0,poker card,bowl,80.0,40.0,poker card9,bowl15,80.0,60.0,9817230.thl.jpg,Awhitebowl2.jpg,/static/Category_learning/Stimuli/Experimental_stims/poker card/9817230.thl.jpg,/static/Category_learning/Stimuli/Experimental_stims/bowl/Awhitebowl2.jpg,0.0,bowl,poker card,40.0,80.0,bowl15,poker card9,60.0,80.0,0.0,170.419,0.919,,,,,,
479,,confirmation,,html-keyboard-response,479,715515,0.0-1.0-96.0-0.0-1.0-0.0,0,0,54497,,,,,,94.0,,,,,,,,,,,,,,,,,,,,,,,,,,,,,,,,171.0,0.581,,,,,,
480,,isi,,html-keyboard-response,480,717022,0.0-1.0-96.0-0.0-2.0,0,0,54497,,,,,,,,,,,,,,,,,,,,,,,,,,,,,,,,,,,,,,172.5,1.5,,,,,,
481,,feedback,,html-keyboard-response,481,718030,0.0-1.0-96.0-0.0-3.0-0.0,0,0,54497,,,,,,94.0,,,,,,,,,,,,,,,,,,,,,,,,,,,,,,,,173.5,1.0,,,,,,
482,,iti,,html-keyboard-response,482,719537,0.0-1.0-96.0-0.0-5.0,0,0,54497,,,,,,,,,,,,,,,,,,,,,,,,,,,,,,,,,,,,,,175.0,1.5,,,,,,
483,,choice,,html-keyboard-response,483,720499,0.0-1.0-97.0-0.0-0.0,0,0,54497,,956.0,,,68.0,95.0,95.0,1000.0,1500.0,0.0,2.0,0.0,20-20,,,tape,trumpet,20.0,20.0,tape5,trumpet7,20.0,0.0,910372_sk_lg.jpg,JTP-606MRS.jpg,/static/Category_learning/Stimuli/Experimental_stims/tape/910372_sk_lg.jpg,/static/Category_learning/Stimuli/Experimental_stims/trumpet/JTP-606MRS.jpg,1.0,tape,trumpet,20.0,20.0,tape5,trumpet7,20.0,0.0,0.0,175.956,0.956,,,,,,
484,,confirmation,,html-keyboard-response,484,721049,0.0-1.0-97.0-0.0-1.0-0.0,0,0,54497,,,,,,95.0,,,,,,,,,,,,,,,,,,,,,,,,,,,,,,,,176.5,0.544,,,,,,
485,,isi,,html-keyboard-response,485,722054,0.0-1.0-97.0-0.0-2.0,0,0,54497,,,,,,,,,,,,,,,,,,,,,,,,,,,,,,,,,,,,,,177.5,1.0,,,,,,
486,,feedback,,html-keyboard-response,486,723059,0.0-1.0-97.0-0.0-3.0-0.0,0,0,54497,,,,,,95.0,,,,,,,,,,,,,,,,,,,,,,,,,,,,,,,,178.5,1.0,,,,,,
487,,iti,,html-keyboard-response,487,724565,0.0-1.0-97.0-0.0-5.0,0,0,54497,,,,,,,,,,,,,,,,,,,,,,,,,,,,,,,,,,,,,,180.0,1.5,,,,,,
