,success,ttype,start_time,trial_type,trial_index,time_elapsed,internal_node_id,warning,missed_checkup,PID,view_history,rt,responses,repeat_instructions,key_press,index,trial_num,isi,iti,is_practice,block,old_trial,pair_type,within_category,high_cat_on_left,left_category,right_category,left_category_value,right_category_value,left_exemplar,right_exemplar,left_exemplar_value,right_exemplar_value,left_img,right_img,left_img_path,right_img_path,left_chosen,chosen_category,unchosen_category,chosen_category_value,unchosen_category_value,chosen_exemplar,unchosen_exemplar,chosen_exemplar_value,unchosen_exemplar_value,no_response,onset,duration,end_practice,total_bonus_tally
0,True,full_screen,d05312022hr1931,fullscreen,0,2614,0.0-0.0,0,0,96511,,,,,,,,,,,,,,,,,,,,,,,,,,,,,,,,,,,,,,,,,
1,,category_learning_instructions,,instructions,1,57825,0.0-1.0-0.0-0.0,0,0,96511,"[{""page_index"":0,""viewing_time"":2972},{""page_index"":1,""viewing_time"":11861},{""page_index"":2,""viewing_time"":8856},{""page_index"":3,""viewing_time"":13509},{""page_index"":4,""viewing_time"":11609},{""page_index"":5,""viewing_time"":3885},{""page_index"":6,""viewing_time"":2517}]",55209.0,,,,,,,,,,,,,,,,,,,,,,,,,,,,,,,,,,,,,,,
2,,category_learning_comprehension_check,,survey-multi-choice,2,71394,0.0-1.0-0.0-1.0,0,0,96511,,13565.0,"{""Q0"":""True"",""Q1"":""True"",""Q2"":""Stay the same"",""Q3"":""D for left and K for right""}",0.0,,,,,,,,,,,,,,,,,,,,,,,,,,,,,,,,,,,,,
3,,,,html-keyboard-response,3,74313,0.0-1.0-1.0,0,0,96511,,2913.0,,,68.0,,,,,,,,,,,,,,,,,,,,,,,,,,,,,,,,,,,,
4,,choice,,html-keyboard-response,4,75054,0.0-1.0-2.0-0.0-0.0,0,0,96511,,738.0,,,68.0,0.0,0.0,1500.0,1000.0,1.0,0.0,0.0,20-80,,0.0,bagel,dumbbell,20.0,80.0,bagel1,dumbbell1,0.0,80.0,bagels_pumpernickel_large.jpg,31B64EN68AL._AA280_.jpg,/static/Category_learning/Stimuli/Practice_stims/bagel/bagels_pumpernickel_large.jpg,/static/Category_learning/Stimuli/Practice_stims/dumbbell/31B64EN68AL._AA280_.jpg,1.0,bagel,dumbbell,20.0,80.0,bagel1,dumbbell1,0.0,80.0,0.0,0.738,0.738,,
5,,confirmation,,html-keyboard-response,5,75824,0.0-1.0-2.0-0.0-1.0-0.0,0,0,96511,,,,,,0.0,,,,,,,,,,,,,,,,,,,,,,,,,,,,,,,,1.5,0.762,,
6,,isi,,html-keyboard-response,6,77328,0.0-1.0-2.0-0.0-2.0,0,0,96511,,,,,,,,,,,,,,,,,,,,,,,,,,,,,,,,,,,,,,3.0,1.5,,
7,,feedback,,html-keyboard-response,7,78331,0.0-1.0-2.0-0.0-3.0-0.0,0,0,96511,,,,,,0.0,,,,,,,,,,,,,,,,,,,,,,,,,,,,,,,,4.0,1.0,,
8,,iti,,html-keyboard-response,8,79334,0.0-1.0-2.0-0.0-5.0,0,0,96511,,,,,,,,,,,,,,,,,,,,,,,,,,,,,,,,,,,,,,5.0,1.0,,
9,,choice,,html-keyboard-response,9,79914,0.0-1.0-3.0-0.0-0.0,0,0,96511,,576.0,,,75.0,1.0,1.0,3000.0,1500.0,1.0,0.0,0.0,20-40,,1.0,calculator,bagel,40.0,20.0,calculator2,bagel2,20.0,20.0,22829064.thl.jpg,bagels_cinnraisin_large.jpg,/static/Category_learning/Stimuli/Practice_stims/calculator/22829064.thl.jpg,/static/Category_learning/Stimuli/Practice_stims/bagel/bagels_cinnraisin_large.jpg,0.0,bagel,calculator,20.0,40.0,bagel2,calculator2,20.0,20.0,0.0,5.576,0.576,,
10,,confirmation,,html-keyboard-response,10,80843,0.0-1.0-3.0-0.0-1.0-0.0,0,0,96511,,,,,,1.0,,,,,,,,,,,,,,,,,,,,,,,,,,,,,,,,6.5,0.924,,
11,,isi,,html-keyboard-response,11,83846,0.0-1.0-3.0-0.0-2.0,0,0,96511,,,,,,,,,,,,,,,,,,,,,,,,,,,,,,,,,,,,,,9.5,3.0,,
12,,feedback,,html-keyboard-response,12,84853,0.0-1.0-3.0-0.0-3.0-0.0,0,0,96511,,,,,,1.0,,,,,,,,,,,,,,,,,,,,,,,,,,,,,,,,10.5,1.0,,
13,,iti,,html-keyboard-response,13,86358,0.0-1.0-3.0-0.0-5.0,0,0,96511,,,,,,,,,,,,,,,,,,,,,,,,,,,,,,,,,,,,,,12.0,1.5,,
14,,choice,,html-keyboard-response,14,86887,0.0-1.0-4.0-0.0-0.0,0,0,96511,,525.0,,,68.0,2.0,2.0,2000.0,3000.0,1.0,0.0,0.0,60-80,,0.0,clock,dumbbell,60.0,80.0,clock2,dumbbell2,60.0,100.0,26373355.thl.jpg,31K8MR6TMBL._SS500_.jpg,/static/Category_learning/Stimuli/Practice_stims/clock/26373355.thl.jpg,/static/Category_learning/Stimuli/Practice_stims/dumbbell/31K8MR6TMBL._SS500_.jpg,1.0,clock,dumbbell,60.0,80.0,clock2,dumbbell2,60.0,100.0,0.0,12.525,0.525,,
15,,confirmation,,html-keyboard-response,15,87868,0.0-1.0-4.0-0.0-1.0-0.0,0,0,96511,,,,,,2.0,,,,,,,,,,,,,,,,,,,,,,,,,,,,,,,,13.5,0.975,,
16,,isi,,html-keyboard-response,16,89873,0.0-1.0-4.0-0.0-2.0,0,0,96511,,,,,,,,,,,,,,,,,,,,,,,,,,,,,,,,,,,,,,15.5,2.0,,
17,,feedback,,html-keyboard-response,17,90880,0.0-1.0-4.0-0.0-3.0-0.0,0,0,96511,,,,,,2.0,,,,,,,,,,,,,,,,,,,,,,,,,,,,,,,,16.5,1.0,,
18,,iti,,html-keyboard-response,18,93883,0.0-1.0-4.0-0.0-5.0,0,0,96511,,,,,,,,,,,,,,,,,,,,,,,,,,,,,,,,,,,,,,19.5,3.0,,
19,,choice,,html-keyboard-response,19,94268,0.0-1.0-5.0-0.0-0.0,0,0,96511,,381.0,,,68.0,3.0,3.0,1000.0,2000.0,1.0,0.0,0.0,40-80,,0.0,calculator,clock,40.0,60.0,calculator1,clock1,40.0,40.0,22829184.thl.jpg,Aalarmclock2.jpg,/static/Category_learning/Stimuli/Practice_stims/calculator/22829184.thl.jpg,/static/Category_learning/Stimuli/Practice_stims/clock/Aalarmclock2.jpg,1.0,calculator,clock,40.0,60.0,calculator1,clock1,40.0,40.0,0.0,19.881,0.381,,
20,,confirmation,,html-keyboard-response,20,95392,0.0-1.0-5.0-0.0-1.0-0.0,0,0,96511,,,,,,3.0,,,,,,,,,,,,,,,,,,,,,,,,,,,,,,,,21.0,1.119,,
21,,isi,,html-keyboard-response,21,96395,0.0-1.0-5.0-0.0-2.0,0,0,96511,,,,,,,,,,,,,,,,,,,,,,,,,,,,,,,,,,,,,,22.0,1.0,,
22,,feedback,,html-keyboard-response,22,97400,0.0-1.0-5.0-0.0-3.0-0.0,0,0,96511,,,,,,3.0,,,,,,,,,,,,,,,,,,,,,,,,,,,,,,,,23.0,1.0,,
23,,iti,,html-keyboard-response,23,99404,0.0-1.0-5.0-0.0-5.0,0,0,96511,,,,,,,,,,,,,,,,,,,,,,,,,,,,,,,,,,,,,,25.0,2.0,,
24,,choice,,html-keyboard-response,24,99962,0.0-1.0-6.0-0.0-0.0,0,0,96511,,555.0,,,68.0,4.0,4.0,2500.0,2500.0,1.0,0.0,0.0,20-60,,1.0,dumbbell,bagel,80.0,20.0,dumbbell3,bagel3,100.0,40.0,41K7QVRX50L._SS500_.jpg,photo-169.jpg,/static/Category_learning/Stimuli/Practice_stims/dumbbell/41K7QVRX50L._SS500_.jpg,/static/Category_learning/Stimuli/Practice_stims/bagel/photo-169.jpg,1.0,dumbbell,bagel,80.0,20.0,dumbbell3,bagel3,100.0,40.0,0.0,25.555,0.555,1.0,
25,,confirmation,,html-keyboard-response,25,100912,0.0-1.0-6.0-0.0-1.0-0.0,0,0,96511,,,,,,4.0,,,,,,,,,,,,,,,,,,,,,,,,,,,,,,,,26.5,0.945,,
26,,isi,,html-keyboard-response,26,103420,0.0-1.0-6.0-0.0-2.0,0,0,96511,,,,,,,,,,,,,,,,,,,,,,,,,,,,,,,,,,,,,,29.0,2.5,,
27,,feedback,,html-keyboard-response,27,104427,0.0-1.0-6.0-0.0-3.0-0.0,0,0,96511,,,,,,4.0,,,,,,,,,,,,,,,,,,,,,,,,,,,,,,,,30.0,1.0,,
28,,iti,,html-keyboard-response,28,106933,0.0-1.0-6.0-0.0-5.0,0,0,96511,,,,,,,,,,,,,,,,,,,,,,,,,,,,,,,,,,,,,,32.5,2.5,,
29,,practice_over,,html-keyboard-response,29,111118,0.0-1.0-6.0-0.0-6.0-0.0,0,0,96511,,4182.0,,,68.0,4.0,,,,,,,,,,,,,,,,,,,,,,,,,,,,,,,,,,,
30,,start_run,,html-keyboard-response,30,113137,0.0-1.0-6.0-0.0-6.0-1.0,0,0,96511,,2016.0,,,84.0,,,,,,,,,,,,,,,,,,,,,,,,,,,,,,,,,,,,
31,,choice,,html-keyboard-response,31,113805,0.0-1.0-7.0-0.0-0.0,0,0,96511,,665.0,,,68.0,5.0,5.0,2000.0,2000.0,0.0,1.0,0.0,40-80,,1.0,desk,patio lounge chair,80.0,40.0,desk1,patio lounge chair15,100.0,40.0,ADESK11.jpg,phpThumb.jpg,/static/Category_learning/Stimuli/Experimental_stims/desk/ADESK11.jpg,/static/Category_learning/Stimuli/Experimental_stims/patio lounge chair/phpThumb.jpg,1.0,desk,patio lounge chair,80.0,40.0,desk1,patio lounge chair15,100.0,40.0,0.0,0.665,0.665,,
32,,confirmation,,html-keyboard-response,32,114646,0.0-1.0-7.0-0.0-1.0-0.0,0,0,96511,,,,,,5.0,,,,,,,,,,,,,,,,,,,,,,,,,,,,,,,,1.5,0.835,,
33,,isi,,html-keyboard-response,33,116651,0.0-1.0-7.0-0.0-2.0,0,0,96511,,,,,,,,,,,,,,,,,,,,,,,,,,,,,,,,,,,,,,3.5,2.0,,
34,,feedback,,html-keyboard-response,34,117654,0.0-1.0-7.0-0.0-3.0-0.0,0,0,96511,,,,,,5.0,,,,,,,,,,,,,,,,,,,,,,,,,,,,,,,,4.5,1.0,,
35,,iti,,html-keyboard-response,35,119660,0.0-1.0-7.0-0.0-5.0,0,0,96511,,,,,,,,,,,,,,,,,,,,,,,,,,,,,,,,,,,,,,6.5,2.0,,
36,,choice,,html-keyboard-response,36,120382,0.0-1.0-8.0-0.0-0.0,0,0,96511,,718.0,,,75.0,6.0,6.0,3000.0,1500.0,0.0,1.0,0.0,40-60,,0.0,poker card,tent,40.0,60.0,poker card12,tent9,20.0,60.0,22865676.thl.jpg,Red Canyon Tent.jpg,/static/Category_learning/Stimuli/Experimental_stims/poker card/22865676.thl.jpg,/static/Category_learning/Stimuli/Experimental_stims/tent/Red Canyon Tent.jpg,0.0,tent,poker card,60.0,40.0,tent9,poker card12,60.0,20.0,0.0,7.218,0.718,,
37,,confirmation,,html-keyboard-response,37,121170,0.0-1.0-8.0-0.0-1.0-0.0,0,0,96511,,,,,,6.0,,,,,,,,,,,,,,,,,,,,,,,,,,,,,,,,8.0,0.782,,
38,,isi,,html-keyboard-response,38,124177,0.0-1.0-8.0-0.0-2.0,0,0,96511,,,,,,,,,,,,,,,,,,,,,,,,,,,,,,,,,,,,,,11.0,3.0,,
39,,feedback,,html-keyboard-response,39,125185,0.0-1.0-8.0-0.0-3.0-0.0,0,0,96511,,,,,,6.0,,,,,,,,,,,,,,,,,,,,,,,,,,,,,,,,12.0,1.0,,
40,,iti,,html-keyboard-response,40,126690,0.0-1.0-8.0-0.0-5.0,0,0,96511,,,,,,,,,,,,,,,,,,,,,,,,,,,,,,,,,,,,,,13.5,1.5,,
41,,choice,,html-keyboard-response,41,127503,0.0-1.0-9.0-0.0-0.0,0,0,96511,,810.0,,,75.0,7.0,7.0,2000.0,1000.0,0.0,1.0,0.0,40-60,,0.0,pen,tent,40.0,60.0,pen6,tent6,20.0,80.0,executive_pen2.jpg,lighthouse_tent_edited_1-1.jpg,/static/Category_learning/Stimuli/Experimental_stims/pen/executive_pen2.jpg,/static/Category_learning/Stimuli/Experimental_stims/tent/lighthouse_tent_edited_1-1.jpg,0.0,tent,pen,60.0,40.0,tent6,pen6,80.0,20.0,0.0,14.31,0.81,,
42,,confirmation,,html-keyboard-response,42,128197,0.0-1.0-9.0-0.0-1.0-0.0,0,0,96511,,,,,,7.0,,,,,,,,,,,,,,,,,,,,,,,,,,,,,,,,15.0,0.69,,
43,,isi,,html-keyboard-response,43,130204,0.0-1.0-9.0-0.0-2.0,0,0,96511,,,,,,,,,,,,,,,,,,,,,,,,,,,,,,,,,,,,,,17.0,2.0,,
44,,feedback,,html-keyboard-response,44,131211,0.0-1.0-9.0-0.0-3.0-0.0,0,0,96511,,,,,,7.0,,,,,,,,,,,,,,,,,,,,,,,,,,,,,,,,18.0,1.0,,
45,,iti,,html-keyboard-response,45,132214,0.0-1.0-9.0-0.0-5.0,0,0,96511,,,,,,,,,,,,,,,,,,,,,,,,,,,,,,,,,,,,,,19.0,1.0,,
46,,choice,,html-keyboard-response,46,133030,0.0-1.0-10.0-0.0-0.0,0,0,96511,,813.0,,,68.0,8.0,8.0,1000.0,1000.0,0.0,1.0,0.0,20-60,,1.0,tent,lipstick,60.0,20.0,tent14,lipstick5,60.0,0.0,inflatable-tent.jpg,P35719_hero.jpg,/static/Category_learning/Stimuli/Experimental_stims/tent/inflatable-tent.jpg,/static/Category_learning/Stimuli/Experimental_stims/lipstick/P35719_hero.jpg,1.0,tent,lipstick,60.0,20.0,tent14,lipstick5,60.0,0.0,0.0,19.813,0.813,,
47,,confirmation,,html-keyboard-response,47,133724,0.0-1.0-10.0-0.0-1.0-0.0,0,0,96511,,,,,,8.0,,,,,,,,,,,,,,,,,,,,,,,,,,,,,,,,20.5,0.687,,
48,,isi,,html-keyboard-response,48,134727,0.0-1.0-10.0-0.0-2.0,0,0,96511,,,,,,,,,,,,,,,,,,,,,,,,,,,,,,,,,,,,,,21.5,1.0,,
49,,feedback,,html-keyboard-response,49,135735,0.0-1.0-10.0-0.0-3.0-0.0,0,0,96511,,,,,,8.0,,,,,,,,,,,,,,,,,,,,,,,,,,,,,,,,22.5,1.0,,
50,,iti,,html-keyboard-response,50,136740,0.0-1.0-10.0-0.0-5.0,0,0,96511,,,,,,,,,,,,,,,,,,,,,,,,,,,,,,,,,,,,,,23.5,1.0,,
51,,choice,,html-keyboard-response,51,137486,0.0-1.0-11.0-0.0-0.0,0,0,96511,,742.0,,,75.0,9.0,9.0,1000.0,1000.0,0.0,1.0,0.0,20-60,,1.0,watch,frame,60.0,20.0,watch8,frame6,60.0,40.0,2239.jpg,AFRAME123.jpg,/static/Category_learning/Stimuli/Experimental_stims/watch/2239.jpg,/static/Category_learning/Stimuli/Experimental_stims/frame/AFRAME123.jpg,0.0,frame,watch,20.0,60.0,frame6,watch8,40.0,60.0,0.0,24.242,0.742,,
52,,confirmation,,html-keyboard-response,52,138247,0.0-1.0-11.0-0.0-1.0-0.0,0,0,96511,,,,,,9.0,,,,,,,,,,,,,,,,,,,,,,,,,,,,,,,,25.0,0.758,,
53,,isi,,html-keyboard-response,53,139250,0.0-1.0-11.0-0.0-2.0,0,0,96511,,,,,,,,,,,,,,,,,,,,,,,,,,,,,,,,,,,,,,26.0,1.0,,
54,,feedback,,html-keyboard-response,54,140253,0.0-1.0-11.0-0.0-3.0-0.0,0,0,96511,,,,,,9.0,,,,,,,,,,,,,,,,,,,,,,,,,,,,,,,,27.0,1.0,,
55,,iti,,html-keyboard-response,55,141260,0.0-1.0-11.0-0.0-5.0,0,0,96511,,,,,,,,,,,,,,,,,,,,,,,,,,,,,,,,,,,,,,28.0,1.0,,
56,,choice,,html-keyboard-response,56,142215,0.0-1.0-12.0-0.0-0.0,0,0,96511,,950.0,,,75.0,10.0,10.0,3000.0,2000.0,0.0,1.0,1.0,60-60,1.0,,tent,tent,60.0,60.0,tent6,tent9,80.0,60.0,lighthouse_tent_edited_1-1.jpg,Red Canyon Tent.jpg,/static/Category_learning/Stimuli/Experimental_stims/tent/lighthouse_tent_edited_1-1.jpg,/static/Category_learning/Stimuli/Experimental_stims/tent/Red Canyon Tent.jpg,0.0,tent,tent,60.0,60.0,tent9,tent6,60.0,80.0,0.0,28.95,0.95,,
57,,confirmation,,html-keyboard-response,57,142770,0.0-1.0-12.0-0.0-1.0-0.0,0,0,96511,,,,,,10.0,,,,,,,,,,,,,,,,,,,,,,,,,,,,,,,,29.5,0.55,,
58,,isi,,html-keyboard-response,58,145778,0.0-1.0-12.0-0.0-2.0,0,0,96511,,,,,,,,,,,,,,,,,,,,,,,,,,,,,,,,,,,,,,32.5,3.0,,
59,,feedback,,html-keyboard-response,59,146786,0.0-1.0-12.0-0.0-3.0-0.0,0,0,96511,,,,,,10.0,,,,,,,,,,,,,,,,,,,,,,,,,,,,,,,,33.5,1.0,,
60,,iti,,html-keyboard-response,60,148791,0.0-1.0-12.0-0.0-5.0,0,0,96511,,,,,,,,,,,,,,,,,,,,,,,,,,,,,,,,,,,,,,35.5,2.0,,
61,,choice,,html-keyboard-response,61,149570,0.0-1.0-13.0-0.0-0.0,0,0,96511,,776.0,,,75.0,11.0,11.0,1000.0,2000.0,0.0,1.0,0.0,40-60,,1.0,tape,nail polish,60.0,40.0,tape12,nail polish5,60.0,40.0,Frog-Tape-Dispenser_F02218A2.jpg,182_t.jpg,/static/Category_learning/Stimuli/Experimental_stims/tape/Frog-Tape-Dispenser_F02218A2.jpg,/static/Category_learning/Stimuli/Experimental_stims/nail polish/182_t.jpg,0.0,nail polish,tape,40.0,60.0,nail polish5,tape12,40.0,60.0,0.0,36.276,0.776,,
62,,confirmation,,html-keyboard-response,62,150300,0.0-1.0-13.0-0.0-1.0-0.0,0,0,96511,,,,,,11.0,,,,,,,,,,,,,,,,,,,,,,,,,,,,,,,,37.0,0.724,,
63,,isi,,html-keyboard-response,63,151306,0.0-1.0-13.0-0.0-2.0,0,0,96511,,,,,,,,,,,,,,,,,,,,,,,,,,,,,,,,,,,,,,38.0,1.0,,
64,,feedback,,html-keyboard-response,64,152311,0.0-1.0-13.0-0.0-3.0-0.0,0,0,96511,,,,,,11.0,,,,,,,,,,,,,,,,,,,,,,,,,,,,,,,,39.0,1.0,,
65,,iti,,html-keyboard-response,65,154316,0.0-1.0-13.0-0.0-5.0,0,0,96511,,,,,,,,,,,,,,,,,,,,,,,,,,,,,,,,,,,,,,41.0,2.0,,
66,,choice,,html-keyboard-response,66,155134,0.0-1.0-14.0-0.0-0.0,0,0,96511,,815.0,,,68.0,12.0,12.0,3500.0,1500.0,0.0,1.0,0.0,20-60,,1.0,tape,makeup compact,60.0,20.0,tape7,makeup compact6,60.0,40.0,tape dispenser.jpg,P0754_hero.jpg,/static/Category_learning/Stimuli/Experimental_stims/tape/tape dispenser.jpg,/static/Category_learning/Stimuli/Experimental_stims/makeup compact/P0754_hero.jpg,1.0,tape,makeup compact,60.0,20.0,tape7,makeup compact6,60.0,40.0,0.0,41.815,0.815,,
67,,confirmation,,html-keyboard-response,67,155826,0.0-1.0-14.0-0.0-1.0-0.0,0,0,96511,,,,,,12.0,,,,,,,,,,,,,,,,,,,,,,,,,,,,,,,,42.5,0.685,,
68,,isi,,html-keyboard-response,68,159330,0.0-1.0-14.0-0.0-2.0,0,0,96511,,,,,,,,,,,,,,,,,,,,,,,,,,,,,,,,,,,,,,46.0,3.5,,
69,,feedback,,html-keyboard-response,69,160338,0.0-1.0-14.0-0.0-3.0-0.0,0,0,96511,,,,,,12.0,,,,,,,,,,,,,,,,,,,,,,,,,,,,,,,,47.0,1.0,,
70,,iti,,html-keyboard-response,70,161842,0.0-1.0-14.0-0.0-5.0,0,0,96511,,,,,,,,,,,,,,,,,,,,,,,,,,,,,,,,,,,,,,48.5,1.5,,
71,,choice,,html-keyboard-response,71,162470,0.0-1.0-15.0-0.0-0.0,0,0,96511,,624.0,,,75.0,13.0,13.0,2000.0,1500.0,0.0,1.0,0.0,20-80,,1.0,bowl,microscope,80.0,20.0,bowl3,microscope15,60.0,40.0,ABOWL8.jpg,Amicroscope23.jpg,/static/Category_learning/Stimuli/Experimental_stims/bowl/ABOWL8.jpg,/static/Category_learning/Stimuli/Experimental_stims/microscope/Amicroscope23.jpg,0.0,microscope,bowl,20.0,80.0,microscope15,bowl3,40.0,60.0,0.0,49.124,0.624,,
72,,confirmation,,html-keyboard-response,72,163350,0.0-1.0-15.0-0.0-1.0-0.0,0,0,96511,,,,,,13.0,,,,,,,,,,,,,,,,,,,,,,,,,,,,,,,,50.0,0.876,,
73,,isi,,html-keyboard-response,73,165357,0.0-1.0-15.0-0.0-2.0,0,0,96511,,,,,,,,,,,,,,,,,,,,,,,,,,,,,,,,,,,,,,52.0,2.0,,
74,,feedback,,html-keyboard-response,74,166365,0.0-1.0-15.0-0.0-3.0-0.0,0,0,96511,,,,,,13.0,,,,,,,,,,,,,,,,,,,,,,,,,,,,,,,,53.0,1.0,,
75,,iti,,html-keyboard-response,75,167869,0.0-1.0-15.0-0.0-5.0,0,0,96511,,,,,,,,,,,,,,,,,,,,,,,,,,,,,,,,,,,,,,54.5,1.5,,
76,,choice,,html-keyboard-response,76,168579,0.0-1.0-16.0-0.0-0.0,0,0,96511,,707.0,,,75.0,14.0,14.0,1000.0,2000.0,0.0,1.0,0.0,40-80,,1.0,door knob,necklace,80.0,40.0,door knob10,necklace14,80.0,20.0,c02a578d-c6cc-44ca-8dd2-de8901e30bd7_4.jpg,necklascenew05.jpg,/static/Category_learning/Stimuli/Experimental_stims/door knob/c02a578d-c6cc-44ca-8dd2-de8901e30bd7_4.jpg,/static/Category_learning/Stimuli/Experimental_stims/necklace/necklascenew05.jpg,0.0,necklace,door knob,40.0,80.0,necklace14,door knob10,20.0,80.0,0.0,55.207,0.707,,
77,,confirmation,,html-keyboard-response,77,169378,0.0-1.0-16.0-0.0-1.0-0.0,0,0,96511,,,,,,14.0,,,,,,,,,,,,,,,,,,,,,,,,,,,,,,,,56.0,0.793,,
78,,isi,,html-keyboard-response,78,170387,0.0-1.0-16.0-0.0-2.0,0,0,96511,,,,,,,,,,,,,,,,,,,,,,,,,,,,,,,,,,,,,,57.0,1.0,,
79,,feedback,,html-keyboard-response,79,171393,0.0-1.0-16.0-0.0-3.0-0.0,0,0,96511,,,,,,14.0,,,,,,,,,,,,,,,,,,,,,,,,,,,,,,,,58.0,1.0,,
80,,iti,,html-keyboard-response,80,173400,0.0-1.0-16.0-0.0-5.0,0,0,96511,,,,,,,,,,,,,,,,,,,,,,,,,,,,,,,,,,,,,,60.0,2.0,,
81,,choice,,html-keyboard-response,81,174492,0.0-1.0-17.0-0.0-0.0,0,0,96511,,1089.0,,,68.0,15.0,15.0,1000.0,1500.0,0.0,1.0,0.0,20-40,,0.0,motorcycle,sofa,20.0,40.0,motorcycle10,sofa5,20.0,60.0,motorcycle17.jpg,ALOVSEA14.jpg,/static/Category_learning/Stimuli/Experimental_stims/motorcycle/motorcycle17.jpg,/static/Category_learning/Stimuli/Experimental_stims/sofa/ALOVSEA14.jpg,1.0,motorcycle,sofa,20.0,40.0,motorcycle10,sofa5,20.0,60.0,0.0,61.089,1.089,,
82,,confirmation,,html-keyboard-response,82,174908,0.0-1.0-17.0-0.0-1.0-0.0,0,0,96511,,,,,,15.0,,,,,,,,,,,,,,,,,,,,,,,,,,,,,,,,61.5,0.411,,
83,,isi,,html-keyboard-response,83,175915,0.0-1.0-17.0-0.0-2.0,0,0,96511,,,,,,,,,,,,,,,,,,,,,,,,,,,,,,,,,,,,,,62.5,1.0,,
84,,feedback,,html-keyboard-response,84,176920,0.0-1.0-17.0-0.0-3.0-0.0,0,0,96511,,,,,,15.0,,,,,,,,,,,,,,,,,,,,,,,,,,,,,,,,63.5,1.0,,
85,,iti,,html-keyboard-response,85,178423,0.0-1.0-17.0-0.0-5.0,0,0,96511,,,,,,,,,,,,,,,,,,,,,,,,,,,,,,,,,,,,,,65.0,1.5,,
86,,choice,,html-keyboard-response,86,179104,0.0-1.0-18.0-0.0-0.0,0,0,96511,,678.0,,,75.0,16.0,16.0,1000.0,3000.0,0.0,1.0,0.0,60-60,,,telescope,yarn,60.0,60.0,telescope6,yarn15,80.0,80.0,LO-telescope-89769.jpg,rainbowscarf-600x394.jpg,/static/Category_learning/Stimuli/Experimental_stims/telescope/LO-telescope-89769.jpg,/static/Category_learning/Stimuli/Experimental_stims/yarn/rainbowscarf-600x394.jpg,0.0,yarn,telescope,60.0,60.0,yarn15,telescope6,80.0,80.0,0.0,65.678,0.678,,
87,,confirmation,,html-keyboard-response,87,179932,0.0-1.0-18.0-0.0-1.0-0.0,0,0,96511,,,,,,16.0,,,,,,,,,,,,,,,,,,,,,,,,,,,,,,,,66.5,0.822,,
88,,isi,,html-keyboard-response,88,180937,0.0-1.0-18.0-0.0-2.0,0,0,96511,,,,,,,,,,,,,,,,,,,,,,,,,,,,,,,,,,,,,,67.5,1.0,,
89,,feedback,,html-keyboard-response,89,181943,0.0-1.0-18.0-0.0-3.0-0.0,0,0,96511,,,,,,16.0,,,,,,,,,,,,,,,,,,,,,,,,,,,,,,,,68.5,1.0,,
90,,iti,,html-keyboard-response,90,184946,0.0-1.0-18.0-0.0-5.0,0,0,96511,,,,,,,,,,,,,,,,,,,,,,,,,,,,,,,,,,,,,,71.5,3.0,,
91,,choice,,html-keyboard-response,91,185842,0.0-1.0-19.0-0.0-0.0,0,0,96511,,892.0,,,75.0,17.0,17.0,1500.0,2000.0,0.0,1.0,0.0,20-20,,,license plate,makeup compact,20.0,20.0,license plate10,makeup compact7,40.0,0.0,pa-nfn-011.jpg,P187133_hero.jpg,/static/Category_learning/Stimuli/Experimental_stims/license plate/pa-nfn-011.jpg,/static/Category_learning/Stimuli/Experimental_stims/makeup compact/P187133_hero.jpg,0.0,makeup compact,license plate,20.0,20.0,makeup compact7,license plate10,0.0,40.0,0.0,72.392,0.892,,
92,,confirmation,,html-keyboard-response,92,186456,0.0-1.0-19.0-0.0-1.0-0.0,0,0,96511,,,,,,17.0,,,,,,,,,,,,,,,,,,,,,,,,,,,,,,,,73.0,0.608,,
93,,isi,,html-keyboard-response,93,187960,0.0-1.0-19.0-0.0-2.0,0,0,96511,,,,,,,,,,,,,,,,,,,,,,,,,,,,,,,,,,,,,,74.5,1.5,,
94,,feedback,,html-keyboard-response,94,188967,0.0-1.0-19.0-0.0-3.0-0.0,0,0,96511,,,,,,17.0,,,,,,,,,,,,,,,,,,,,,,,,,,,,,,,,75.5,1.0,,
95,,iti,,html-keyboard-response,95,190974,0.0-1.0-19.0-0.0-5.0,0,0,96511,,,,,,,,,,,,,,,,,,,,,,,,,,,,,,,,,,,,,,77.5,2.0,,
96,,choice,,html-keyboard-response,96,191747,0.0-1.0-20.0-0.0-0.0,0,0,96511,,769.0,,,68.0,18.0,18.0,2000.0,2000.0,0.0,1.0,1.0,40-60,0.0,,tape,nail polish,60.0,40.0,tape7,nail polish5,60.0,40.0,tape dispenser.jpg,182_t.jpg,/static/Category_learning/Stimuli/Experimental_stims/tape/tape dispenser.jpg,/static/Category_learning/Stimuli/Experimental_stims/nail polish/182_t.jpg,1.0,tape,nail polish,60.0,40.0,tape7,nail polish5,60.0,40.0,0.0,78.269,0.769,,
97,,confirmation,,html-keyboard-response,97,192482,0.0-1.0-20.0-0.0-1.0-0.0,0,0,96511,,,,,,18.0,,,,,,,,,,,,,,,,,,,,,,,,,,,,,,,,79.0,0.731,,
98,,isi,,html-keyboard-response,98,194487,0.0-1.0-20.0-0.0-2.0,0,0,96511,,,,,,,,,,,,,,,,,,,,,,,,,,,,,,,,,,,,,,81.0,2.0,,
99,,feedback,,html-keyboard-response,99,195493,0.0-1.0-20.0-0.0-3.0-0.0,0,0,96511,,,,,,18.0,,,,,,,,,,,,,,,,,,,,,,,,,,,,,,,,82.0,1.0,,
100,,iti,,html-keyboard-response,100,197500,0.0-1.0-20.0-0.0-5.0,0,0,96511,,,,,,,,,,,,,,,,,,,,,,,,,,,,,,,,,,,,,,84.0,2.0,,
101,,choice,,html-keyboard-response,101,198534,0.0-1.0-21.0-0.0-0.0,0,0,96511,,1031.0,,,68.0,19.0,19.0,1500.0,1500.0,0.0,1.0,1.0,20-60,0.0,,makeup compact,yarn,20.0,60.0,makeup compact7,yarn15,0.0,80.0,P187133_hero.jpg,rainbowscarf-600x394.jpg,/static/Category_learning/Stimuli/Experimental_stims/makeup compact/P187133_hero.jpg,/static/Category_learning/Stimuli/Experimental_stims/yarn/rainbowscarf-600x394.jpg,1.0,makeup compact,yarn,20.0,60.0,makeup compact7,yarn15,0.0,80.0,0.0,85.031,1.031,,
102,,confirmation,,html-keyboard-response,102,199010,0.0-1.0-21.0-0.0-1.0-0.0,0,0,96511,,,,,,19.0,,,,,,,,,,,,,,,,,,,,,,,,,,,,,,,,85.5,0.469,,
103,,isi,,html-keyboard-response,103,200514,0.0-1.0-21.0-0.0-2.0,0,0,96511,,,,,,,,,,,,,,,,,,,,,,,,,,,,,,,,,,,,,,87.0,1.5,,
104,,feedback,,html-keyboard-response,104,201517,0.0-1.0-21.0-0.0-3.0-0.0,0,0,96511,,,,,,19.0,,,,,,,,,,,,,,,,,,,,,,,,,,,,,,,,88.0,1.0,,
105,,iti,,html-keyboard-response,105,203023,0.0-1.0-21.0-0.0-5.0,0,0,96511,,,,,,,,,,,,,,,,,,,,,,,,,,,,,,,,,,,,,,89.5,1.5,,
106,,choice,,html-keyboard-response,106,203732,0.0-1.0-22.0-0.0-0.0,0,0,96511,,705.0,,,75.0,20.0,20.0,2000.0,1000.0,0.0,1.0,0.0,40-80,,0.0,patio lounge chair,bongo,40.0,80.0,patio lounge chair11,bongo1,60.0,100.0,51830.jpg,ABONGO22.jpg,/static/Category_learning/Stimuli/Experimental_stims/patio lounge chair/51830.jpg,/static/Category_learning/Stimuli/Experimental_stims/bongo/ABONGO22.jpg,0.0,bongo,patio lounge chair,80.0,40.0,bongo1,patio lounge chair11,100.0,60.0,0.0,90.205,0.705,,
107,,confirmation,,html-keyboard-response,107,204534,0.0-1.0-22.0-0.0-1.0-0.0,0,0,96511,,,,,,20.0,,,,,,,,,,,,,,,,,,,,,,,,,,,,,,,,91.0,0.795,,
108,,isi,,html-keyboard-response,108,206541,0.0-1.0-22.0-0.0-2.0,0,0,96511,,,,,,,,,,,,,,,,,,,,,,,,,,,,,,,,,,,,,,93.0,2.0,,
109,,feedback,,html-keyboard-response,109,207544,0.0-1.0-22.0-0.0-3.0-0.0,0,0,96511,,,,,,20.0,,,,,,,,,,,,,,,,,,,,,,,,,,,,,,,,94.0,1.0,,
110,,iti,,html-keyboard-response,110,208552,0.0-1.0-22.0-0.0-5.0,0,0,96511,,,,,,,,,,,,,,,,,,,,,,,,,,,,,,,,,,,,,,95.0,1.0,,
111,,choice,,html-keyboard-response,111,209449,0.0-1.0-23.0-0.0-0.0,0,0,96511,,894.0,,,68.0,21.0,21.0,1500.0,1500.0,0.0,1.0,1.0,20-40,0.0,,frame,necklace,20.0,40.0,frame6,necklace14,40.0,20.0,AFRAME123.jpg,necklascenew05.jpg,/static/Category_learning/Stimuli/Experimental_stims/frame/AFRAME123.jpg,/static/Category_learning/Stimuli/Experimental_stims/necklace/necklascenew05.jpg,1.0,frame,necklace,20.0,40.0,frame6,necklace14,40.0,20.0,0.0,95.894,0.894,,
112,,confirmation,,html-keyboard-response,112,210061,0.0-1.0-23.0-0.0-1.0-0.0,0,0,96511,,,,,,21.0,,,,,,,,,,,,,,,,,,,,,,,,,,,,,,,,96.5,0.606,,
113,,isi,,html-keyboard-response,113,211563,0.0-1.0-23.0-0.0-2.0,0,0,96511,,,,,,,,,,,,,,,,,,,,,,,,,,,,,,,,,,,,,,98.0,1.5,,
114,,feedback,,html-keyboard-response,114,212569,0.0-1.0-23.0-0.0-3.0-0.0,0,0,96511,,,,,,21.0,,,,,,,,,,,,,,,,,,,,,,,,,,,,,,,,99.0,1.0,,
115,,iti,,html-keyboard-response,115,214074,0.0-1.0-23.0-0.0-5.0,0,0,96511,,,,,,,,,,,,,,,,,,,,,,,,,,,,,,,,,,,,,,100.5,1.5,,
116,,choice,,html-keyboard-response,116,214620,0.0-1.0-24.0-0.0-0.0,0,0,96511,,542.0,,,75.0,22.0,22.0,2000.0,2000.0,0.0,1.0,0.0,40-80,,1.0,baby carriage,seashell,80.0,40.0,baby carriage6,seashell2,60.0,20.0,Baby_Stroller-1.jpg,ph_stri_seashell.jpg,/static/Category_learning/Stimuli/Experimental_stims/baby carriage/Baby_Stroller-1.jpg,/static/Category_learning/Stimuli/Experimental_stims/seashell/ph_stri_seashell.jpg,0.0,seashell,baby carriage,40.0,80.0,seashell2,baby carriage6,20.0,60.0,0.0,101.042,0.542,,
117,,confirmation,,html-keyboard-response,117,215582,0.0-1.0-24.0-0.0-1.0-0.0,0,0,96511,,,,,,22.0,,,,,,,,,,,,,,,,,,,,,,,,,,,,,,,,102.0,0.958,,
118,,isi,,html-keyboard-response,118,217587,0.0-1.0-24.0-0.0-2.0,0,0,96511,,,,,,,,,,,,,,,,,,,,,,,,,,,,,,,,,,,,,,104.0,2.0,,
119,,feedback,,html-keyboard-response,119,218594,0.0-1.0-24.0-0.0-3.0-0.0,0,0,96511,,,,,,22.0,,,,,,,,,,,,,,,,,,,,,,,,,,,,,,,,105.0,1.0,,
120,,iti,,html-keyboard-response,120,220601,0.0-1.0-24.0-0.0-5.0,0,0,96511,,,,,,,,,,,,,,,,,,,,,,,,,,,,,,,,,,,,,,107.0,2.0,,
121,,choice,,html-keyboard-response,121,221440,0.0-1.0-25.0-0.0-0.0,0,0,96511,,836.0,,,68.0,23.0,23.0,1000.0,1000.0,0.0,1.0,0.0,20-80,,1.0,dresser,hat,80.0,20.0,dresser12,hat4,80.0,20.0,ADRESSE58.jpg,JS370.jpg,/static/Category_learning/Stimuli/Experimental_stims/dresser/ADRESSE58.jpg,/static/Category_learning/Stimuli/Experimental_stims/hat/JS370.jpg,1.0,dresser,hat,80.0,20.0,dresser12,hat4,80.0,20.0,0.0,107.836,0.836,,
122,,confirmation,,html-keyboard-response,122,222110,0.0-1.0-25.0-0.0-1.0-0.0,0,0,96511,,,,,,23.0,,,,,,,,,,,,,,,,,,,,,,,,,,,,,,,,108.5,0.664,,
123,,isi,,html-keyboard-response,123,223116,0.0-1.0-25.0-0.0-2.0,0,0,96511,,,,,,,,,,,,,,,,,,,,,,,,,,,,,,,,,,,,,,109.5,1.0,,
124,,feedback,,html-keyboard-response,124,224120,0.0-1.0-25.0-0.0-3.0-0.0,0,0,96511,,,,,,23.0,,,,,,,,,,,,,,,,,,,,,,,,,,,,,,,,110.5,1.0,,
125,,iti,,html-keyboard-response,125,225122,0.0-1.0-25.0-0.0-5.0,0,0,96511,,,,,,,,,,,,,,,,,,,,,,,,,,,,,,,,,,,,,,111.5,1.0,,
126,,choice,,html-keyboard-response,126,226043,0.0-1.0-26.0-0.0-0.0,0,0,96511,,918.0,,,75.0,24.0,24.0,2000.0,2000.0,0.0,1.0,0.0,20-80,,1.0,door knob,hammer,80.0,20.0,door knob13,hammer15,100.0,0.0,500_CLAWALBC.jpg,Vaughan-32-oz-Hickory-Handle-Ball-Pein-Hammer-S432-B0001LRUJM-L-ARCQ0EBO8TR73_.jpg,/static/Category_learning/Stimuli/Experimental_stims/door knob/500_CLAWALBC.jpg,/static/Category_learning/Stimuli/Experimental_stims/hammer/Vaughan-32-oz-Hickory-Handle-Ball-Pein-Hammer-S432-B0001LRUJM-L-ARCQ0EBO8TR73_.jpg,0.0,hammer,door knob,20.0,80.0,hammer15,door knob13,0.0,100.0,0.0,112.418,0.918,,
127,,confirmation,,html-keyboard-response,127,226629,0.0-1.0-26.0-0.0-1.0-0.0,0,0,96511,,,,,,24.0,,,,,,,,,,,,,,,,,,,,,,,,,,,,,,,,113.0,0.582,,
128,,isi,,html-keyboard-response,128,228632,0.0-1.0-26.0-0.0-2.0,0,0,96511,,,,,,,,,,,,,,,,,,,,,,,,,,,,,,,,,,,,,,115.0,2.0,,
129,,feedback,,html-keyboard-response,129,229637,0.0-1.0-26.0-0.0-3.0-0.0,0,0,96511,,,,,,24.0,,,,,,,,,,,,,,,,,,,,,,,,,,,,,,,,116.0,1.0,,
130,,iti,,html-keyboard-response,130,231642,0.0-1.0-26.0-0.0-5.0,0,0,96511,,,,,,,,,,,,,,,,,,,,,,,,,,,,,,,,,,,,,,118.0,2.0,,
131,,choice,,html-keyboard-response,131,232559,0.0-1.0-27.0-0.0-0.0,0,0,96511,,914.0,,,68.0,25.0,25.0,1000.0,1500.0,0.0,1.0,0.0,20-40,,0.0,hammer,nail polish,20.0,40.0,hammer7,nail polish12,40.0,40.0,hammer01.jpg,laquerdUP.jpg,/static/Category_learning/Stimuli/Experimental_stims/hammer/hammer01.jpg,/static/Category_learning/Stimuli/Experimental_stims/nail polish/laquerdUP.jpg,1.0,hammer,nail polish,20.0,40.0,hammer7,nail polish12,40.0,40.0,0.0,118.914,0.914,,
132,,confirmation,,html-keyboard-response,132,233149,0.0-1.0-27.0-0.0-1.0-0.0,0,0,96511,,,,,,25.0,,,,,,,,,,,,,,,,,,,,,,,,,,,,,,,,119.5,0.586,,
133,,isi,,html-keyboard-response,133,234152,0.0-1.0-27.0-0.0-2.0,0,0,96511,,,,,,,,,,,,,,,,,,,,,,,,,,,,,,,,,,,,,,120.5,1.0,,
134,,feedback,,html-keyboard-response,134,235158,0.0-1.0-27.0-0.0-3.0-0.0,0,0,96511,,,,,,25.0,,,,,,,,,,,,,,,,,,,,,,,,,,,,,,,,121.5,1.0,,
135,,iti,,html-keyboard-response,135,236665,0.0-1.0-27.0-0.0-5.0,0,0,96511,,,,,,,,,,,,,,,,,,,,,,,,,,,,,,,,,,,,,,123.0,1.5,,
136,,choice,,html-keyboard-response,136,237140,0.0-1.0-28.0-0.0-0.0,0,0,96511,,472.0,,,75.0,26.0,26.0,3500.0,1000.0,0.0,1.0,0.0,20-60,,1.0,stool,makeup compact,60.0,20.0,stool4,makeup compact5,40.0,40.0,ASTOOL22.jpg,P109965_hero.jpg,/static/Category_learning/Stimuli/Experimental_stims/stool/ASTOOL22.jpg,/static/Category_learning/Stimuli/Experimental_stims/makeup compact/P109965_hero.jpg,0.0,makeup compact,stool,20.0,60.0,makeup compact5,stool4,40.0,40.0,0.0,123.472,0.472,,
137,,confirmation,,html-keyboard-response,137,238173,0.0-1.0-28.0-0.0-1.0-0.0,0,0,96511,,,,,,26.0,,,,,,,,,,,,,,,,,,,,,,,,,,,,,,,,124.5,1.028,,
138,,isi,,html-keyboard-response,138,241677,0.0-1.0-28.0-0.0-2.0,0,0,96511,,,,,,,,,,,,,,,,,,,,,,,,,,,,,,,,,,,,,,128.0,3.5,,
139,,feedback,,html-keyboard-response,139,242683,0.0-1.0-28.0-0.0-3.0-0.0,0,0,96511,,,,,,26.0,,,,,,,,,,,,,,,,,,,,,,,,,,,,,,,,129.0,1.0,,
140,,iti,,html-keyboard-response,140,243688,0.0-1.0-28.0-0.0-5.0,0,0,96511,,,,,,,,,,,,,,,,,,,,,,,,,,,,,,,,,,,,,,130.0,1.0,,
141,,choice,,html-keyboard-response,141,244310,0.0-1.0-29.0-0.0-0.0,0,0,96511,,617.0,,,68.0,27.0,27.0,1500.0,3500.0,0.0,1.0,0.0,40-80,,1.0,flashlight,small table,80.0,40.0,flashlight12,small table8,80.0,60.0,new05.jpg,ATABLE8.jpg,/static/Category_learning/Stimuli/Experimental_stims/flashlight/new05.jpg,/static/Category_learning/Stimuli/Experimental_stims/small table/ATABLE8.jpg,1.0,flashlight,small table,80.0,40.0,flashlight12,small table8,80.0,60.0,0.0,130.617,0.617,,
142,,confirmation,,html-keyboard-response,142,245197,0.0-1.0-29.0-0.0-1.0-0.0,0,0,96511,,,,,,27.0,,,,,,,,,,,,,,,,,,,,,,,,,,,,,,,,131.5,0.883,,
143,,isi,,html-keyboard-response,143,246701,0.0-1.0-29.0-0.0-2.0,0,0,96511,,,,,,,,,,,,,,,,,,,,,,,,,,,,,,,,,,,,,,133.0,1.5,,
144,,feedback,,html-keyboard-response,144,247710,0.0-1.0-29.0-0.0-3.0-0.0,0,0,96511,,,,,,27.0,,,,,,,,,,,,,,,,,,,,,,,,,,,,,,,,134.0,1.0,,
145,,iti,,html-keyboard-response,145,251213,0.0-1.0-29.0-0.0-5.0,0,0,96511,,,,,,,,,,,,,,,,,,,,,,,,,,,,,,,,,,,,,,137.5,3.5,,
146,,choice,,html-keyboard-response,146,252227,0.0-1.0-30.0-0.0-0.0,0,0,96511,,1012.0,,,75.0,28.0,28.0,3000.0,3000.0,0.0,1.0,1.0,20-20,1.0,,hammer,hammer,20.0,20.0,hammer7,hammer15,40.0,0.0,hammer01.jpg,Vaughan-32-oz-Hickory-Handle-Ball-Pein-Hammer-S432-B0001LRUJM-L-ARCQ0EBO8TR73_.jpg,/static/Category_learning/Stimuli/Experimental_stims/hammer/hammer01.jpg,/static/Category_learning/Stimuli/Experimental_stims/hammer/Vaughan-32-oz-Hickory-Handle-Ball-Pein-Hammer-S432-B0001LRUJM-L-ARCQ0EBO8TR73_.jpg,0.0,hammer,hammer,20.0,20.0,hammer15,hammer7,0.0,40.0,0.0,138.512,1.012,,
147,,confirmation,,html-keyboard-response,147,252723,0.0-1.0-30.0-0.0-1.0-0.0,0,0,96511,,,,,,28.0,,,,,,,,,,,,,,,,,,,,,,,,,,,,,,,,139.0,0.488,,
148,,isi,,html-keyboard-response,148,255728,0.0-1.0-30.0-0.0-2.0,0,0,96511,,,,,,,,,,,,,,,,,,,,,,,,,,,,,,,,,,,,,,142.0,3.0,,
149,,feedback,,html-keyboard-response,149,256734,0.0-1.0-30.0-0.0-3.0-0.0,0,0,96511,,,,,,28.0,,,,,,,,,,,,,,,,,,,,,,,,,,,,,,,,143.0,1.0,,
150,,iti,,html-keyboard-response,150,259741,0.0-1.0-30.0-0.0-5.0,0,0,96511,,,,,,,,,,,,,,,,,,,,,,,,,,,,,,,,,,,,,,146.0,3.0,,
151,,choice,,html-keyboard-response,151,260524,0.0-1.0-31.0-0.0-0.0,0,0,96511,,780.0,,,75.0,29.0,29.0,3500.0,1000.0,0.0,1.0,0.0,20-80,,1.0,bongo,key chain,80.0,20.0,bongo8,key chain10,80.0,0.0,26390661.thl.jpg,Smurfs_Keychains_Smurf_Row_Boat.jpg,/static/Category_learning/Stimuli/Experimental_stims/bongo/26390661.thl.jpg,/static/Category_learning/Stimuli/Experimental_stims/key chain/Smurfs_Keychains_Smurf_Row_Boat.jpg,0.0,key chain,bongo,20.0,80.0,key chain10,bongo8,0.0,80.0,0.0,146.78,0.78,,
152,,confirmation,,html-keyboard-response,152,261250,0.0-1.0-31.0-0.0-1.0-0.0,0,0,96511,,,,,,29.0,,,,,,,,,,,,,,,,,,,,,,,,,,,,,,,,147.5,0.72,,
153,,isi,,html-keyboard-response,153,264754,0.0-1.0-31.0-0.0-2.0,0,0,96511,,,,,,,,,,,,,,,,,,,,,,,,,,,,,,,,,,,,,,151.0,3.5,,
154,,feedback,,html-keyboard-response,154,265757,0.0-1.0-31.0-0.0-3.0-0.0,0,0,96511,,,,,,29.0,,,,,,,,,,,,,,,,,,,,,,,,,,,,,,,,152.0,1.0,,
155,,iti,,html-keyboard-response,155,266761,0.0-1.0-31.0-0.0-5.0,0,0,96511,,,,,,,,,,,,,,,,,,,,,,,,,,,,,,,,,,,,,,153.0,1.0,,
156,,choice,,html-keyboard-response,156,267708,0.0-1.0-32.0-0.0-0.0,0,0,96511,,944.0,,,75.0,30.0,30.0,1000.0,2000.0,0.0,1.0,0.0,60-80,,0.0,tape,baby carriage,60.0,80.0,tape15,baby carriage10,80.0,100.0,MMMC15BK.jpg,peg_perego_uno_blu.jpg,/static/Category_learning/Stimuli/Experimental_stims/tape/MMMC15BK.jpg,/static/Category_learning/Stimuli/Experimental_stims/baby carriage/peg_perego_uno_blu.jpg,0.0,baby carriage,tape,80.0,60.0,baby carriage10,tape15,100.0,80.0,0.0,153.944,0.944,,
157,,confirmation,,html-keyboard-response,157,268270,0.0-1.0-32.0-0.0-1.0-0.0,0,0,96511,,,,,,30.0,,,,,,,,,,,,,,,,,,,,,,,,,,,,,,,,154.5,0.556,,
158,,isi,,html-keyboard-response,158,269277,0.0-1.0-32.0-0.0-2.0,0,0,96511,,,,,,,,,,,,,,,,,,,,,,,,,,,,,,,,,,,,,,155.5,1.0,,
159,,feedback,,html-keyboard-response,159,270281,0.0-1.0-32.0-0.0-3.0-0.0,0,0,96511,,,,,,30.0,,,,,,,,,,,,,,,,,,,,,,,,,,,,,,,,156.5,1.0,,
160,,iti,,html-keyboard-response,160,272285,0.0-1.0-32.0-0.0-5.0,0,0,96511,,,,,,,,,,,,,,,,,,,,,,,,,,,,,,,,,,,,,,158.5,2.0,,
161,,choice,,html-keyboard-response,161,273096,0.0-1.0-33.0-0.0-0.0,0,0,96511,,808.0,,,75.0,31.0,31.0,1000.0,1000.0,0.0,1.0,1.0,80-80,0.0,,flashlight,bongo,80.0,80.0,flashlight12,bongo1,80.0,100.0,new05.jpg,ABONGO22.jpg,/static/Category_learning/Stimuli/Experimental_stims/flashlight/new05.jpg,/static/Category_learning/Stimuli/Experimental_stims/bongo/ABONGO22.jpg,0.0,bongo,flashlight,80.0,80.0,bongo1,flashlight12,100.0,80.0,0.0,159.308,0.808,,
162,,confirmation,,html-keyboard-response,162,273795,0.0-1.0-33.0-0.0-1.0-0.0,0,0,96511,,,,,,31.0,,,,,,,,,,,,,,,,,,,,,,,,,,,,,,,,160.0,0.692,,
163,,isi,,html-keyboard-response,163,274797,0.0-1.0-33.0-0.0-2.0,0,0,96511,,,,,,,,,,,,,,,,,,,,,,,,,,,,,,,,,,,,,,161.0,1.0,,
164,,feedback,,html-keyboard-response,164,275800,0.0-1.0-33.0-0.0-3.0-0.0,0,0,96511,,,,,,31.0,,,,,,,,,,,,,,,,,,,,,,,,,,,,,,,,162.0,1.0,,
165,,iti,,html-keyboard-response,165,276803,0.0-1.0-33.0-0.0-5.0,0,0,96511,,,,,,,,,,,,,,,,,,,,,,,,,,,,,,,,,,,,,,163.0,1.0,,
166,,choice,,html-keyboard-response,166,277593,0.0-1.0-34.0-0.0-0.0,0,0,96511,,787.0,,,75.0,32.0,32.0,1000.0,1000.0,0.0,1.0,0.0,20-60,,0.0,frame,vase,20.0,60.0,frame4,vase9,40.0,60.0,AFRAME125.jpg,Avasewithang2.jpg,/static/Category_learning/Stimuli/Experimental_stims/frame/AFRAME125.jpg,/static/Category_learning/Stimuli/Experimental_stims/vase/Avasewithang2.jpg,0.0,vase,frame,60.0,20.0,vase9,frame4,60.0,40.0,0.0,163.787,0.787,,
167,,confirmation,,html-keyboard-response,167,278310,0.0-1.0-34.0-0.0-1.0-0.0,0,0,96511,,,,,,32.0,,,,,,,,,,,,,,,,,,,,,,,,,,,,,,,,164.5,0.713,,
168,,isi,,html-keyboard-response,168,279314,0.0-1.0-34.0-0.0-2.0,0,0,96511,,,,,,,,,,,,,,,,,,,,,,,,,,,,,,,,,,,,,,165.5,1.0,,
169,,feedback,,html-keyboard-response,169,280317,0.0-1.0-34.0-0.0-3.0-0.0,0,0,96511,,,,,,32.0,,,,,,,,,,,,,,,,,,,,,,,,,,,,,,,,166.5,1.0,,
170,,iti,,html-keyboard-response,170,281320,0.0-1.0-34.0-0.0-5.0,0,0,96511,,,,,,,,,,,,,,,,,,,,,,,,,,,,,,,,,,,,,,167.5,1.0,,
171,,choice,,html-keyboard-response,171,282049,0.0-1.0-35.0-0.0-0.0,0,0,96511,,726.0,,,68.0,33.0,33.0,1000.0,1500.0,0.0,1.0,0.0,40-40,,,power strip,necklace,40.0,40.0,power strip5,necklace3,60.0,20.0,93e4a283-bcd6-4ad1-8add-339658cda0fc_400.jpg,26388201.thl.jpg,/static/Category_learning/Stimuli/Experimental_stims/power strip/93e4a283-bcd6-4ad1-8add-339658cda0fc_400.jpg,/static/Category_learning/Stimuli/Experimental_stims/necklace/26388201.thl.jpg,1.0,power strip,necklace,40.0,40.0,power strip5,necklace3,60.0,20.0,0.0,168.226,0.726,,
172,,confirmation,,html-keyboard-response,172,282830,0.0-1.0-35.0-0.0-1.0-0.0,0,0,96511,,,,,,33.0,,,,,,,,,,,,,,,,,,,,,,,,,,,,,,,,169.0,0.774,,
173,,isi,,html-keyboard-response,173,283833,0.0-1.0-35.0-0.0-2.0,0,0,96511,,,,,,,,,,,,,,,,,,,,,,,,,,,,,,,,,,,,,,170.0,1.0,,
174,,feedback,,html-keyboard-response,174,284841,0.0-1.0-35.0-0.0-3.0-0.0,0,0,96511,,,,,,33.0,,,,,,,,,,,,,,,,,,,,,,,,,,,,,,,,171.0,1.0,,
175,,iti,,html-keyboard-response,175,286345,0.0-1.0-35.0-0.0-5.0,0,0,96511,,,,,,,,,,,,,,,,,,,,,,,,,,,,,,,,,,,,,,172.5,1.5,,
176,,choice,,html-keyboard-response,176,287067,0.0-1.0-36.0-0.0-0.0,0,0,96511,,719.0,,,75.0,34.0,34.0,2000.0,3000.0,0.0,1.0,0.0,40-60,,0.0,patio lounge chair,yarn,40.0,60.0,patio lounge chair14,yarn8,40.0,40.0,2987951.jpg,smonlineyarn-285x250.jpg,/static/Category_learning/Stimuli/Experimental_stims/patio lounge chair/2987951.jpg,/static/Category_learning/Stimuli/Experimental_stims/yarn/smonlineyarn-285x250.jpg,0.0,yarn,patio lounge chair,60.0,40.0,yarn8,patio lounge chair14,40.0,40.0,0.0,173.219,0.719,,
177,,confirmation,,html-keyboard-response,177,287855,0.0-1.0-36.0-0.0-1.0-0.0,0,0,96511,,,,,,34.0,,,,,,,,,,,,,,,,,,,,,,,,,,,,,,,,174.0,0.781,,
178,,isi,,html-keyboard-response,178,289862,0.0-1.0-36.0-0.0-2.0,0,0,96511,,,,,,,,,,,,,,,,,,,,,,,,,,,,,,,,,,,,,,176.0,2.0,,
179,,feedback,,html-keyboard-response,179,290869,0.0-1.0-36.0-0.0-3.0-0.0,0,0,96511,,,,,,34.0,,,,,,,,,,,,,,,,,,,,,,,,,,,,,,,,177.0,1.0,,
180,,iti,,html-keyboard-response,180,293876,0.0-1.0-36.0-0.0-5.0,0,0,96511,,,,,,,,,,,,,,,,,,,,,,,,,,,,,,,,,,,,,,180.0,3.0,,
181,,choice,,html-keyboard-response,181,294669,0.0-1.0-37.0-0.0-0.0,0,0,96511,,788.0,,,68.0,35.0,35.0,1500.0,3500.0,0.0,1.0,1.0,20-80,0.0,,makeup compact,desk,20.0,80.0,makeup compact5,desk1,40.0,100.0,P109965_hero.jpg,ADESK11.jpg,/static/Category_learning/Stimuli/Experimental_stims/makeup compact/P109965_hero.jpg,/static/Category_learning/Stimuli/Experimental_stims/desk/ADESK11.jpg,1.0,makeup compact,desk,20.0,80.0,makeup compact5,desk1,40.0,100.0,0.0,180.788,0.788,,
182,,confirmation,,html-keyboard-response,182,295385,0.0-1.0-37.0-0.0-1.0-0.0,0,0,96511,,,,,,35.0,,,,,,,,,,,,,,,,,,,,,,,,,,,,,,,,181.5,0.712,,
183,,isi,,html-keyboard-response,183,296889,0.0-1.0-37.0-0.0-2.0,0,0,96511,,,,,,,,,,,,,,,,,,,,,,,,,,,,,,,,,,,,,,183.0,1.5,,
184,,feedback,,html-keyboard-response,184,297896,0.0-1.0-37.0-0.0-3.0-0.0,0,0,96511,,,,,,35.0,,,,,,,,,,,,,,,,,,,,,,,,,,,,,,,,184.0,1.0,,
185,,iti,,html-keyboard-response,185,301402,0.0-1.0-37.0-0.0-5.0,0,0,96511,,,,,,,,,,,,,,,,,,,,,,,,,,,,,,,,,,,,,,187.5,3.5,,
186,,choice,,html-keyboard-response,186,302166,0.0-1.0-38.0-0.0-0.0,0,0,96511,,760.0,,,75.0,36.0,36.0,1500.0,2000.0,0.0,1.0,1.0,20-20,0.0,,microscope,key chain,20.0,20.0,microscope15,key chain10,40.0,0.0,Amicroscope23.jpg,Smurfs_Keychains_Smurf_Row_Boat.jpg,/static/Category_learning/Stimuli/Experimental_stims/microscope/Amicroscope23.jpg,/static/Category_learning/Stimuli/Experimental_stims/key chain/Smurfs_Keychains_Smurf_Row_Boat.jpg,0.0,key chain,microscope,20.0,20.0,key chain10,microscope15,0.0,40.0,0.0,188.26,0.76,,
187,,confirmation,,html-keyboard-response,187,302910,0.0-1.0-38.0-0.0-1.0-0.0,0,0,96511,,,,,,36.0,,,,,,,,,,,,,,,,,,,,,,,,,,,,,,,,189.0,0.74,,
188,,isi,,html-keyboard-response,188,304416,0.0-1.0-38.0-0.0-2.0,0,0,96511,,,,,,,,,,,,,,,,,,,,,,,,,,,,,,,,,,,,,,190.5,1.5,,
189,,feedback,,html-keyboard-response,189,305422,0.0-1.0-38.0-0.0-3.0-0.0,0,0,96511,,,,,,36.0,,,,,,,,,,,,,,,,,,,,,,,,,,,,,,,,191.5,1.0,,
190,,iti,,html-keyboard-response,190,307427,0.0-1.0-38.0-0.0-5.0,0,0,96511,,,,,,,,,,,,,,,,,,,,,,,,,,,,,,,,,,,,,,193.5,2.0,,
191,,choice,,html-keyboard-response,191,308253,0.0-1.0-39.0-0.0-0.0,0,0,96511,,822.0,,,68.0,37.0,37.0,1000.0,1000.0,0.0,1.0,0.0,60-60,,,tape,train,60.0,60.0,tape10,train6,80.0,40.0,26377601.thl.jpg,train9.jpg,/static/Category_learning/Stimuli/Experimental_stims/tape/26377601.thl.jpg,/static/Category_learning/Stimuli/Experimental_stims/train/train9.jpg,1.0,tape,train,60.0,60.0,tape10,train6,80.0,40.0,0.0,194.322,0.822,,
192,,confirmation,,html-keyboard-response,192,308937,0.0-1.0-39.0-0.0-1.0-0.0,0,0,96511,,,,,,37.0,,,,,,,,,,,,,,,,,,,,,,,,,,,,,,,,195.0,0.678,,
193,,isi,,html-keyboard-response,193,309942,0.0-1.0-39.0-0.0-2.0,0,0,96511,,,,,,,,,,,,,,,,,,,,,,,,,,,,,,,,,,,,,,196.0,1.0,,
194,,feedback,,html-keyboard-response,194,310949,0.0-1.0-39.0-0.0-3.0-0.0,0,0,96511,,,,,,37.0,,,,,,,,,,,,,,,,,,,,,,,,,,,,,,,,197.0,1.0,,
195,,iti,,html-keyboard-response,195,311956,0.0-1.0-39.0-0.0-5.0,0,0,96511,,,,,,,,,,,,,,,,,,,,,,,,,,,,,,,,,,,,,,198.0,1.0,,
196,,choice,,html-keyboard-response,196,312690,0.0-1.0-40.0-0.0-0.0,0,0,96511,,731.0,,,68.0,38.0,38.0,1500.0,3500.0,0.0,1.0,0.0,40-80,,0.0,patio lounge chair,bowl,40.0,80.0,patio lounge chair8,bowl6,20.0,80.0,43-1.jpg,Abowl59.jpg,/static/Category_learning/Stimuli/Experimental_stims/patio lounge chair/43-1.jpg,/static/Category_learning/Stimuli/Experimental_stims/bowl/Abowl59.jpg,1.0,patio lounge chair,bowl,40.0,80.0,patio lounge chair8,bowl6,20.0,80.0,0.0,198.731,0.731,,
197,,confirmation,,html-keyboard-response,197,313466,0.0-1.0-40.0-0.0-1.0-0.0,0,0,96511,,,,,,38.0,,,,,,,,,,,,,,,,,,,,,,,,,,,,,,,,199.5,0.769,,
198,,isi,,html-keyboard-response,198,314969,0.0-1.0-40.0-0.0-2.0,0,0,96511,,,,,,,,,,,,,,,,,,,,,,,,,,,,,,,,,,,,,,201.0,1.5,,
199,,feedback,,html-keyboard-response,199,315973,0.0-1.0-40.0-0.0-3.0-0.0,0,0,96511,,,,,,38.0,,,,,,,,,,,,,,,,,,,,,,,,,,,,,,,,202.0,1.0,,
200,,iti,,html-keyboard-response,200,319476,0.0-1.0-40.0-0.0-5.0,0,0,96511,,,,,,,,,,,,,,,,,,,,,,,,,,,,,,,,,,,,,,205.5,3.5,,
201,,choice,,html-keyboard-response,201,320271,0.0-1.0-41.0-0.0-0.0,0,0,96511,,791.0,,,75.0,39.0,39.0,2000.0,2000.0,0.0,1.0,1.0,40-80,0.0,,dresser,patio lounge chair,80.0,40.0,dresser12,patio lounge chair8,80.0,20.0,ADRESSE58.jpg,43-1.jpg,/static/Category_learning/Stimuli/Experimental_stims/dresser/ADRESSE58.jpg,/static/Category_learning/Stimuli/Experimental_stims/patio lounge chair/43-1.jpg,0.0,patio lounge chair,dresser,40.0,80.0,patio lounge chair8,dresser12,20.0,80.0,0.0,206.291,0.791,,
202,,confirmation,,html-keyboard-response,202,320986,0.0-1.0-41.0-0.0-1.0-0.0,0,0,96511,,,,,,39.0,,,,,,,,,,,,,,,,,,,,,,,,,,,,,,,,207.0,0.709,,
203,,isi,,html-keyboard-response,203,322992,0.0-1.0-41.0-0.0-2.0,0,0,96511,,,,,,,,,,,,,,,,,,,,,,,,,,,,,,,,,,,,,,209.0,2.0,,
204,,feedback,,html-keyboard-response,204,323999,0.0-1.0-41.0-0.0-3.0-0.0,0,0,96511,,,,,,39.0,,,,,,,,,,,,,,,,,,,,,,,,,,,,,,,,210.0,1.0,,
205,,iti,,html-keyboard-response,205,326003,0.0-1.0-41.0-0.0-5.0,0,0,96511,,,,,,,,,,,,,,,,,,,,,,,,,,,,,,,,,,,,,,212.0,2.0,,
206,,choice,,html-keyboard-response,206,326502,0.0-1.0-42.0-0.0-0.0,0,0,96511,,494.0,,,68.0,40.0,40.0,1000.0,1500.0,0.0,1.0,0.0,40-60,,0.0,nail polish,watch,40.0,60.0,nail polish14,watch15,20.0,80.0,38031405.JPG,20-171-6.jpg,/static/Category_learning/Stimuli/Experimental_stims/nail polish/38031405.JPG,/static/Category_learning/Stimuli/Experimental_stims/watch/20-171-6.jpg,1.0,nail polish,watch,40.0,60.0,nail polish14,watch15,20.0,80.0,0.0,212.494,0.494,,
207,,confirmation,,html-keyboard-response,207,327513,0.0-1.0-42.0-0.0-1.0-0.0,0,0,96511,,,,,,40.0,,,,,,,,,,,,,,,,,,,,,,,,,,,,,,,,213.5,1.006,,
208,,isi,,html-keyboard-response,208,328516,0.0-1.0-42.0-0.0-2.0,0,0,96511,,,,,,,,,,,,,,,,,,,,,,,,,,,,,,,,,,,,,,214.5,1.0,,
209,,feedback,,html-keyboard-response,209,329521,0.0-1.0-42.0-0.0-3.0-0.0,0,0,96511,,,,,,40.0,,,,,,,,,,,,,,,,,,,,,,,,,,,,,,,,215.5,1.0,,
210,,iti,,html-keyboard-response,210,331025,0.0-1.0-42.0-0.0-5.0,0,0,96511,,,,,,,,,,,,,,,,,,,,,,,,,,,,,,,,,,,,,,217.0,1.5,,
211,,choice,,html-keyboard-response,211,331870,0.0-1.0-43.0-0.0-0.0,0,0,96511,,842.0,,,75.0,41.0,41.0,1500.0,3000.0,0.0,1.0,0.0,20-20,,,hammer,license plate,20.0,20.0,hammer5,license plate14,20.0,0.0,hammer02.jpg,fl-hel-bel.jpg,/static/Category_learning/Stimuli/Experimental_stims/hammer/hammer02.jpg,/static/Category_learning/Stimuli/Experimental_stims/license plate/fl-hel-bel.jpg,0.0,license plate,hammer,20.0,20.0,license plate14,hammer5,0.0,20.0,0.0,217.842,0.842,,
212,,confirmation,,html-keyboard-response,212,332532,0.0-1.0-43.0-0.0-1.0-0.0,0,0,96511,,,,,,41.0,,,,,,,,,,,,,,,,,,,,,,,,,,,,,,,,218.5,0.658,,
213,,isi,,html-keyboard-response,213,334036,0.0-1.0-43.0-0.0-2.0,0,0,96511,,,,,,,,,,,,,,,,,,,,,,,,,,,,,,,,,,,,,,220.0,1.5,,
214,,feedback,,html-keyboard-response,214,335044,0.0-1.0-43.0-0.0-3.0-0.0,0,0,96511,,,,,,41.0,,,,,,,,,,,,,,,,,,,,,,,,,,,,,,,,221.0,1.0,,
215,,iti,,html-keyboard-response,215,338047,0.0-1.0-43.0-0.0-5.0,0,0,96511,,,,,,,,,,,,,,,,,,,,,,,,,,,,,,,,,,,,,,224.0,3.0,,
216,,choice,,html-keyboard-response,216,338774,0.0-1.0-44.0-0.0-0.0,0,0,96511,,724.0,,,68.0,42.0,42.0,1500.0,1000.0,0.0,1.0,0.0,40-40,,,poker card,necklace,40.0,40.0,poker card15,necklace9,40.0,60.0,9816946.thl.jpg,ANECKLACE.jpg,/static/Category_learning/Stimuli/Experimental_stims/poker card/9816946.thl.jpg,/static/Category_learning/Stimuli/Experimental_stims/necklace/ANECKLACE.jpg,1.0,poker card,necklace,40.0,40.0,poker card15,necklace9,40.0,60.0,0.0,224.724,0.724,,
217,,confirmation,,html-keyboard-response,217,339556,0.0-1.0-44.0-0.0-1.0-0.0,0,0,96511,,,,,,42.0,,,,,,,,,,,,,,,,,,,,,,,,,,,,,,,,225.5,0.776,,
218,,isi,,html-keyboard-response,218,341059,0.0-1.0-44.0-0.0-2.0,0,0,96511,,,,,,,,,,,,,,,,,,,,,,,,,,,,,,,,,,,,,,227.0,1.5,,
219,,feedback,,html-keyboard-response,219,342064,0.0-1.0-44.0-0.0-3.0-0.0,0,0,96511,,,,,,42.0,,,,,,,,,,,,,,,,,,,,,,,,,,,,,,,,228.0,1.0,,
220,,iti,,html-keyboard-response,220,343071,0.0-1.0-44.0-0.0-5.0,0,0,96511,,,,,,,,,,,,,,,,,,,,,,,,,,,,,,,,,,,,,,229.0,1.0,,
221,,choice,,html-keyboard-response,221,343844,0.0-1.0-45.0-0.0-0.0,0,0,96511,,770.0,,,75.0,43.0,43.0,1000.0,3500.0,0.0,1.0,0.0,20-20,,,microscope,hammer,20.0,20.0,microscope5,hammer11,0.0,0.0,emMicroscope.jpg,8oz-hammer-copy.jpg,/static/Category_learning/Stimuli/Experimental_stims/microscope/emMicroscope.jpg,/static/Category_learning/Stimuli/Experimental_stims/hammer/8oz-hammer-copy.jpg,0.0,hammer,microscope,20.0,20.0,hammer11,microscope5,0.0,0.0,0.0,229.77,0.77,,
222,,confirmation,,html-keyboard-response,222,344580,0.0-1.0-45.0-0.0-1.0-0.0,0,0,96511,,,,,,43.0,,,,,,,,,,,,,,,,,,,,,,,,,,,,,,,,230.5,0.73,,
223,,isi,,html-keyboard-response,223,345587,0.0-1.0-45.0-0.0-2.0,0,0,96511,,,,,,,,,,,,,,,,,,,,,,,,,,,,,,,,,,,,,,231.5,1.0,,
224,,feedback,,html-keyboard-response,224,346593,0.0-1.0-45.0-0.0-3.0-0.0,0,0,96511,,,,,,43.0,,,,,,,,,,,,,,,,,,,,,,,,,,,,,,,,232.5,1.0,,
225,,iti,,html-keyboard-response,225,350097,0.0-1.0-45.0-0.0-5.0,0,0,96511,,,,,,,,,,,,,,,,,,,,,,,,,,,,,,,,,,,,,,236.0,3.5,,
226,,choice,,html-keyboard-response,226,350812,0.0-1.0-46.0-0.0-0.0,0,0,96511,,712.0,,,68.0,44.0,44.0,1000.0,1000.0,0.0,1.0,1.0,60-60,0.0,,tent,yarn,60.0,60.0,tent14,yarn8,60.0,40.0,inflatable-tent.jpg,smonlineyarn-285x250.jpg,/static/Category_learning/Stimuli/Experimental_stims/tent/inflatable-tent.jpg,/static/Category_learning/Stimuli/Experimental_stims/yarn/smonlineyarn-285x250.jpg,1.0,tent,yarn,60.0,60.0,tent14,yarn8,60.0,40.0,0.0,236.712,0.712,,
227,,confirmation,,html-keyboard-response,227,351604,0.0-1.0-46.0-0.0-1.0-0.0,0,0,96511,,,,,,44.0,,,,,,,,,,,,,,,,,,,,,,,,,,,,,,,,237.5,0.788,,
228,,isi,,html-keyboard-response,228,352607,0.0-1.0-46.0-0.0-2.0,0,0,96511,,,,,,,,,,,,,,,,,,,,,,,,,,,,,,,,,,,,,,238.5,1.0,,
229,,feedback,,html-keyboard-response,229,353616,0.0-1.0-46.0-0.0-3.0-0.0,0,0,96511,,,,,,44.0,,,,,,,,,,,,,,,,,,,,,,,,,,,,,,,,239.5,1.0,,
230,,iti,,html-keyboard-response,230,354622,0.0-1.0-46.0-0.0-5.0,0,0,96511,,,,,,,,,,,,,,,,,,,,,,,,,,,,,,,,,,,,,,240.5,1.0,,
231,,choice,,html-keyboard-response,231,355296,0.0-1.0-47.0-0.0-0.0,0,0,96511,,670.0,,,75.0,45.0,45.0,1000.0,1500.0,0.0,1.0,0.0,80-80,,,baby carriage,fan,80.0,80.0,baby carriage8,fan7,60.0,80.0,peg_perego_uno_revi_black.jpg,250679_lg.jpg,/static/Category_learning/Stimuli/Experimental_stims/baby carriage/peg_perego_uno_revi_black.jpg,/static/Category_learning/Stimuli/Experimental_stims/fan/250679_lg.jpg,0.0,fan,baby carriage,80.0,80.0,fan7,baby carriage8,80.0,60.0,0.0,241.17,0.67,,
232,,confirmation,,html-keyboard-response,232,356131,0.0-1.0-47.0-0.0-1.0-0.0,0,0,96511,,,,,,45.0,,,,,,,,,,,,,,,,,,,,,,,,,,,,,,,,242.0,0.83,,
233,,isi,,html-keyboard-response,233,357134,0.0-1.0-47.0-0.0-2.0,0,0,96511,,,,,,,,,,,,,,,,,,,,,,,,,,,,,,,,,,,,,,243.0,1.0,,
234,,feedback,,html-keyboard-response,234,358138,0.0-1.0-47.0-0.0-3.0-0.0,0,0,96511,,,,,,45.0,,,,,,,,,,,,,,,,,,,,,,,,,,,,,,,,244.0,1.0,,
235,,iti,,html-keyboard-response,235,359642,0.0-1.0-47.0-0.0-5.0,0,0,96511,,,,,,,,,,,,,,,,,,,,,,,,,,,,,,,,,,,,,,245.5,1.5,,
236,,choice,,html-keyboard-response,236,360553,0.0-1.0-48.0-0.0-0.0,0,0,96511,,907.0,,,75.0,46.0,46.0,2000.0,1000.0,0.0,1.0,0.0,40-60,,0.0,seashell,telescope,40.0,60.0,seashell1,telescope12,40.0,40.0,Aseashe34.jpg,Junior Land and Sky Telescope.jpg,/static/Category_learning/Stimuli/Experimental_stims/seashell/Aseashe34.jpg,/static/Category_learning/Stimuli/Experimental_stims/telescope/Junior Land and Sky Telescope.jpg,0.0,telescope,seashell,60.0,40.0,telescope12,seashell1,40.0,40.0,0.0,246.407,0.907,,
237,,confirmation,,html-keyboard-response,237,361152,0.0-1.0-48.0-0.0-1.0-0.0,0,0,96511,,,,,,46.0,,,,,,,,,,,,,,,,,,,,,,,,,,,,,,,,247.0,0.593,,
238,,isi,,html-keyboard-response,238,363157,0.0-1.0-48.0-0.0-2.0,0,0,96511,,,,,,,,,,,,,,,,,,,,,,,,,,,,,,,,,,,,,,249.0,2.0,,
239,,feedback,,html-keyboard-response,239,364160,0.0-1.0-48.0-0.0-3.0-0.0,0,0,96511,,,,,,46.0,,,,,,,,,,,,,,,,,,,,,,,,,,,,,,,,250.0,1.0,,
240,,iti,,html-keyboard-response,240,365168,0.0-1.0-48.0-0.0-5.0,0,0,96511,,,,,,,,,,,,,,,,,,,,,,,,,,,,,,,,,,,,,,251.0,1.0,,
241,,choice,,html-keyboard-response,241,365886,0.0-1.0-49.0-0.0-0.0,0,0,96511,,715.0,,,75.0,47.0,47.0,2000.0,1000.0,0.0,1.0,0.0,20-40,,1.0,small table,hat,40.0,20.0,small table2,hat7,60.0,20.0,Atable126.jpg,ASTRHATFL.jpg,/static/Category_learning/Stimuli/Experimental_stims/small table/Atable126.jpg,/static/Category_learning/Stimuli/Experimental_stims/hat/ASTRHATFL.jpg,0.0,hat,small table,20.0,40.0,hat7,small table2,20.0,60.0,0.0,251.715,0.715,,
242,,confirmation,,html-keyboard-response,242,366677,0.0-1.0-49.0-0.0-1.0-0.0,0,0,96511,,,,,,47.0,,,,,,,,,,,,,,,,,,,,,,,,,,,,,,,,252.5,0.785,,
243,,isi,,html-keyboard-response,243,368683,0.0-1.0-49.0-0.0-2.0,0,0,96511,,,,,,,,,,,,,,,,,,,,,,,,,,,,,,,,,,,,,,254.5,2.0,,
244,,feedback,,html-keyboard-response,244,369690,0.0-1.0-49.0-0.0-3.0-0.0,0,0,96511,,,,,,47.0,,,,,,,,,,,,,,,,,,,,,,,,,,,,,,,,255.5,1.0,,
245,,iti,,html-keyboard-response,245,370695,0.0-1.0-49.0-0.0-5.0,0,0,96511,,,,,,,,,,,,,,,,,,,,,,,,,,,,,,,,,,,,,,256.5,1.0,,
246,,choice,,html-keyboard-response,246,371415,0.0-1.0-50.0-0.0-0.0,0,0,96511,,716.0,,,68.0,48.0,48.0,1000.0,1500.0,0.0,1.0,0.0,20-60,,1.0,tape,hammer,60.0,20.0,tape2,hammer10,40.0,40.0,Tape_Dispenser.jpg,Tabla Hammer.JPG,/static/Category_learning/Stimuli/Experimental_stims/tape/Tape_Dispenser.jpg,/static/Category_learning/Stimuli/Experimental_stims/hammer/Tabla Hammer.JPG,1.0,tape,hammer,60.0,20.0,tape2,hammer10,40.0,40.0,0.0,257.216,0.716,,
247,,confirmation,,html-keyboard-response,247,372203,0.0-1.0-50.0-0.0-1.0-0.0,0,0,96511,,,,,,48.0,,,,,,,,,,,,,,,,,,,,,,,,,,,,,,,,258.0,0.784,,
248,,isi,,html-keyboard-response,248,373211,0.0-1.0-50.0-0.0-2.0,0,0,96511,,,,,,,,,,,,,,,,,,,,,,,,,,,,,,,,,,,,,,259.0,1.0,,
249,,feedback,,html-keyboard-response,249,374218,0.0-1.0-50.0-0.0-3.0-0.0,0,0,96511,,,,,,48.0,,,,,,,,,,,,,,,,,,,,,,,,,,,,,,,,260.0,1.0,,
250,,iti,,html-keyboard-response,250,375724,0.0-1.0-50.0-0.0-5.0,0,0,96511,,,,,,,,,,,,,,,,,,,,,,,,,,,,,,,,,,,,,,261.5,1.5,,
251,,choice,,html-keyboard-response,251,376811,0.0-1.0-51.0-0.0-0.0,0,0,96511,,1083.0,,,75.0,49.0,49.0,1500.0,1500.0,0.0,1.0,1.0,60-60,1.0,,tape,tape,60.0,60.0,tape10,tape2,80.0,40.0,26377601.thl.jpg,Tape_Dispenser.jpg,/static/Category_learning/Stimuli/Experimental_stims/tape/26377601.thl.jpg,/static/Category_learning/Stimuli/Experimental_stims/tape/Tape_Dispenser.jpg,0.0,tape,tape,60.0,60.0,tape2,tape10,40.0,80.0,0.0,262.583,1.083,,
252,,confirmation,,html-keyboard-response,252,377233,0.0-1.0-51.0-0.0-1.0-0.0,0,0,96511,,,,,,49.0,,,,,,,,,,,,,,,,,,,,,,,,,,,,,,,,263.0,0.417,,
253,,isi,,html-keyboard-response,253,378736,0.0-1.0-51.0-0.0-2.0,0,0,96511,,,,,,,,,,,,,,,,,,,,,,,,,,,,,,,,,,,,,,264.5,1.5,,
254,,feedback,,html-keyboard-response,254,379744,0.0-1.0-51.0-0.0-3.0-0.0,0,0,96511,,,,,,49.0,,,,,,,,,,,,,,,,,,,,,,,,,,,,,,,,265.5,1.0,,
255,,iti,,html-keyboard-response,255,381247,0.0-1.0-51.0-0.0-5.0,0,0,96511,,,,,,,,,,,,,,,,,,,,,,,,,,,,,,,,,,,,,,267.0,1.5,,
256,,choice,,html-keyboard-response,256,382019,0.0-1.0-52.0-0.0-0.0,0,0,96511,,769.0,,,68.0,50.0,50.0,2000.0,1000.0,0.0,1.0,1.0,20-60,0.0,,hammer,telescope,20.0,60.0,hammer11,telescope12,0.0,40.0,8oz-hammer-copy.jpg,Junior Land and Sky Telescope.jpg,/static/Category_learning/Stimuli/Experimental_stims/hammer/8oz-hammer-copy.jpg,/static/Category_learning/Stimuli/Experimental_stims/telescope/Junior Land and Sky Telescope.jpg,1.0,hammer,telescope,20.0,60.0,hammer11,telescope12,0.0,40.0,0.0,267.769,0.769,,
257,,confirmation,,html-keyboard-response,257,382757,0.0-1.0-52.0-0.0-1.0-0.0,0,0,96511,,,,,,50.0,,,,,,,,,,,,,,,,,,,,,,,,,,,,,,,,268.5,0.731,,
258,,isi,,html-keyboard-response,258,384763,0.0-1.0-52.0-0.0-2.0,0,0,96511,,,,,,,,,,,,,,,,,,,,,,,,,,,,,,,,,,,,,,270.5,2.0,,
259,,feedback,,html-keyboard-response,259,385767,0.0-1.0-52.0-0.0-3.0-0.0,0,0,96511,,,,,,50.0,,,,,,,,,,,,,,,,,,,,,,,,,,,,,,,,271.5,1.0,,
260,,iti,,html-keyboard-response,260,386773,0.0-1.0-52.0-0.0-5.0,0,0,96511,,,,,,,,,,,,,,,,,,,,,,,,,,,,,,,,,,,,,,272.5,1.0,,
261,,choice,,html-keyboard-response,261,387472,0.0-1.0-53.0-0.0-0.0,0,0,96511,,696.0,,,75.0,51.0,51.0,3500.0,1500.0,0.0,1.0,0.0,20-80,,1.0,bench,frame,80.0,20.0,bench6,frame7,60.0,20.0,26370121.thl.jpg,AFRAME152.jpg,/static/Category_learning/Stimuli/Experimental_stims/bench/26370121.thl.jpg,/static/Category_learning/Stimuli/Experimental_stims/frame/AFRAME152.jpg,0.0,frame,bench,20.0,80.0,frame7,bench6,20.0,60.0,0.0,273.196,0.696,,
262,,confirmation,,html-keyboard-response,262,388284,0.0-1.0-53.0-0.0-1.0-0.0,0,0,96511,,,,,,51.0,,,,,,,,,,,,,,,,,,,,,,,,,,,,,,,,274.0,0.804,,
263,,isi,,html-keyboard-response,263,391791,0.0-1.0-53.0-0.0-2.0,0,0,96511,,,,,,,,,,,,,,,,,,,,,,,,,,,,,,,,,,,,,,277.5,3.5,,
264,,feedback,,html-keyboard-response,264,392796,0.0-1.0-53.0-0.0-3.0-0.0,0,0,96511,,,,,,51.0,,,,,,,,,,,,,,,,,,,,,,,,,,,,,,,,278.5,1.0,,
265,,iti,,html-keyboard-response,265,394302,0.0-1.0-53.0-0.0-5.0,0,0,96511,,,,,,,,,,,,,,,,,,,,,,,,,,,,,,,,,,,,,,280.0,1.5,,
266,,choice,,html-keyboard-response,266,395088,0.0-1.0-54.0-0.0-0.0,0,0,96511,,783.0,,,68.0,52.0,52.0,1000.0,1000.0,0.0,1.0,0.0,20-80,,1.0,bench,motorcycle,80.0,20.0,bench5,motorcycle7,60.0,20.0,APARKBEN8.jpg,MotoSmall.jpg,/static/Category_learning/Stimuli/Experimental_stims/bench/APARKBEN8.jpg,/static/Category_learning/Stimuli/Experimental_stims/motorcycle/MotoSmall.jpg,1.0,bench,motorcycle,80.0,20.0,bench5,motorcycle7,60.0,20.0,0.0,280.783,0.783,,
267,,confirmation,,html-keyboard-response,267,395809,0.0-1.0-54.0-0.0-1.0-0.0,0,0,96511,,,,,,52.0,,,,,,,,,,,,,,,,,,,,,,,,,,,,,,,,281.5,0.717,,
268,,isi,,html-keyboard-response,268,396812,0.0-1.0-54.0-0.0-2.0,0,0,96511,,,,,,,,,,,,,,,,,,,,,,,,,,,,,,,,,,,,,,282.5,1.0,,
269,,feedback,,html-keyboard-response,269,397815,0.0-1.0-54.0-0.0-3.0-0.0,0,0,96511,,,,,,52.0,,,,,,,,,,,,,,,,,,,,,,,,,,,,,,,,283.5,1.0,,
270,,iti,,html-keyboard-response,270,398818,0.0-1.0-54.0-0.0-5.0,0,0,96511,,,,,,,,,,,,,,,,,,,,,,,,,,,,,,,,,,,,,,284.5,1.0,,
271,,choice,,html-keyboard-response,271,399618,0.0-1.0-55.0-0.0-0.0,0,0,96511,,796.0,,,75.0,53.0,53.0,2000.0,2000.0,0.0,1.0,0.0,60-60,,,stool,yarn,60.0,60.0,stool9,yarn9,60.0,40.0,ASTOOL7.jpg,Aballofyarn26.jpg,/static/Category_learning/Stimuli/Experimental_stims/stool/ASTOOL7.jpg,/static/Category_learning/Stimuli/Experimental_stims/yarn/Aballofyarn26.jpg,0.0,yarn,stool,60.0,60.0,yarn9,stool9,40.0,60.0,0.0,285.296,0.796,,
272,,confirmation,,html-keyboard-response,272,400331,0.0-1.0-55.0-0.0-1.0-0.0,0,0,96511,,,,,,53.0,,,,,,,,,,,,,,,,,,,,,,,,,,,,,,,,286.0,0.704,,
273,,isi,,html-keyboard-response,273,402336,0.0-1.0-55.0-0.0-2.0,0,0,96511,,,,,,,,,,,,,,,,,,,,,,,,,,,,,,,,,,,,,,288.0,2.0,,
274,,feedback,,html-keyboard-response,274,403345,0.0-1.0-55.0-0.0-3.0-0.0,0,0,96511,,,,,,53.0,,,,,,,,,,,,,,,,,,,,,,,,,,,,,,,,289.0,1.0,,
275,,iti,,html-keyboard-response,275,405349,0.0-1.0-55.0-0.0-5.0,0,0,96511,,,,,,,,,,,,,,,,,,,,,,,,,,,,,,,,,,,,,,291.0,2.0,,
276,,choice,,html-keyboard-response,276,406074,0.0-1.0-56.0-0.0-0.0,0,0,96511,,721.0,,,68.0,54.0,54.0,1000.0,1000.0,0.0,1.0,0.0,60-80,,0.0,stool,bench,60.0,80.0,stool7,bench7,60.0,100.0,ASTOOL25.jpg,ACONBENCH.jpg,/static/Category_learning/Stimuli/Experimental_stims/stool/ASTOOL25.jpg,/static/Category_learning/Stimuli/Experimental_stims/bench/ACONBENCH.jpg,1.0,stool,bench,60.0,80.0,stool7,bench7,60.0,100.0,0.0,291.721,0.721,,
277,,confirmation,,html-keyboard-response,277,406860,0.0-1.0-56.0-0.0-1.0-0.0,0,0,96511,,,,,,54.0,,,,,,,,,,,,,,,,,,,,,,,,,,,,,,,,292.5,0.779,,
278,,isi,,html-keyboard-response,278,407867,0.0-1.0-56.0-0.0-2.0,0,0,96511,,,,,,,,,,,,,,,,,,,,,,,,,,,,,,,,,,,,,,293.5,1.0,,
279,,feedback,,html-keyboard-response,279,408874,0.0-1.0-56.0-0.0-3.0-0.0,0,0,96511,,,,,,54.0,,,,,,,,,,,,,,,,,,,,,,,,,,,,,,,,294.5,1.0,,
280,,iti,,html-keyboard-response,280,409878,0.0-1.0-56.0-0.0-5.0,0,0,96511,,,,,,,,,,,,,,,,,,,,,,,,,,,,,,,,,,,,,,295.5,1.0,,
281,,choice,,html-keyboard-response,281,410552,0.0-1.0-57.0-0.0-0.0,0,0,96511,,671.0,,,75.0,55.0,55.0,1000.0,1000.0,0.0,1.0,1.0,20-60,0.0,,yarn,frame,60.0,20.0,yarn9,frame7,40.0,20.0,Aballofyarn26.jpg,AFRAME152.jpg,/static/Category_learning/Stimuli/Experimental_stims/yarn/Aballofyarn26.jpg,/static/Category_learning/Stimuli/Experimental_stims/frame/AFRAME152.jpg,0.0,frame,yarn,20.0,60.0,frame7,yarn9,20.0,40.0,0.0,296.171,0.671,,
282,,confirmation,,html-keyboard-response,282,411386,0.0-1.0-57.0-0.0-1.0-0.0,0,0,96511,,,,,,55.0,,,,,,,,,,,,,,,,,,,,,,,,,,,,,,,,297.0,0.829,,
283,,isi,,html-keyboard-response,283,412389,0.0-1.0-57.0-0.0-2.0,0,0,96511,,,,,,,,,,,,,,,,,,,,,,,,,,,,,,,,,,,,,,298.0,1.0,,
284,,feedback,,html-keyboard-response,284,413394,0.0-1.0-57.0-0.0-3.0-0.0,0,0,96511,,,,,,55.0,,,,,,,,,,,,,,,,,,,,,,,,,,,,,,,,299.0,1.0,,
285,,iti,,html-keyboard-response,285,414400,0.0-1.0-57.0-0.0-5.0,0,0,96511,,,,,,,,,,,,,,,,,,,,,,,,,,,,,,,,,,,,,,300.0,1.0,,
286,,choice,,html-keyboard-response,286,414904,0.0-1.0-58.0-0.0-0.0,0,0,96511,,499.0,,,75.0,56.0,56.0,3000.0,1000.0,0.0,1.0,0.0,40-60,,1.0,train,poker card,60.0,40.0,train11,poker card6,80.0,40.0,train1.jpg,22864212.thl.jpg,/static/Category_learning/Stimuli/Experimental_stims/train/train1.jpg,/static/Category_learning/Stimuli/Experimental_stims/poker card/22864212.thl.jpg,0.0,poker card,train,40.0,60.0,poker card6,train11,40.0,80.0,0.0,300.499,0.499,,
287,,confirmation,,html-keyboard-response,287,415910,0.0-1.0-58.0-0.0-1.0-0.0,0,0,96511,,,,,,56.0,,,,,,,,,,,,,,,,,,,,,,,,,,,,,,,,301.5,1.001,,
288,,isi,,html-keyboard-response,288,418912,0.0-1.0-58.0-0.0-2.0,0,0,96511,,,,,,,,,,,,,,,,,,,,,,,,,,,,,,,,,,,,,,304.5,3.0,,
289,,feedback,,html-keyboard-response,289,419918,0.0-1.0-58.0-0.0-3.0-0.0,0,0,96511,,,,,,56.0,,,,,,,,,,,,,,,,,,,,,,,,,,,,,,,,305.5,1.0,,
290,,iti,,html-keyboard-response,290,420924,0.0-1.0-58.0-0.0-5.0,0,0,96511,,,,,,,,,,,,,,,,,,,,,,,,,,,,,,,,,,,,,,306.5,1.0,,
291,,choice,,html-keyboard-response,291,421589,0.0-1.0-59.0-0.0-0.0,0,0,96511,,661.0,,,68.0,57.0,57.0,1000.0,1500.0,0.0,1.0,0.0,80-80,,,door knob,baby carriage,80.0,80.0,door knob7,baby carriage9,60.0,100.0,doorknob2.jpg,Antique baby Carriage 7.jpg,/static/Category_learning/Stimuli/Experimental_stims/door knob/doorknob2.jpg,/static/Category_learning/Stimuli/Experimental_stims/baby carriage/Antique baby Carriage 7.jpg,1.0,door knob,baby carriage,80.0,80.0,door knob7,baby carriage9,60.0,100.0,0.0,307.161,0.661,,
292,,confirmation,,html-keyboard-response,292,422433,0.0-1.0-59.0-0.0-1.0-0.0,0,0,96511,,,,,,57.0,,,,,,,,,,,,,,,,,,,,,,,,,,,,,,,,308.0,0.839,,
293,,isi,,html-keyboard-response,293,423440,0.0-1.0-59.0-0.0-2.0,0,0,96511,,,,,,,,,,,,,,,,,,,,,,,,,,,,,,,,,,,,,,309.0,1.0,,
294,,feedback,,html-keyboard-response,294,424445,0.0-1.0-59.0-0.0-3.0-0.0,0,0,96511,,,,,,57.0,,,,,,,,,,,,,,,,,,,,,,,,,,,,,,,,310.0,1.0,,
295,,iti,,html-keyboard-response,295,425949,0.0-1.0-59.0-0.0-5.0,0,0,96511,,,,,,,,,,,,,,,,,,,,,,,,,,,,,,,,,,,,,,311.5,1.5,,
296,,choice,,html-keyboard-response,296,426993,0.0-1.0-60.0-0.0-0.0,0,0,96511,,1039.0,,,68.0,58.0,58.0,1500.0,1000.0,0.0,1.0,1.0,40-40,1.0,,poker card,poker card,40.0,40.0,poker card6,poker card15,40.0,40.0,22864212.thl.jpg,9816946.thl.jpg,/static/Category_learning/Stimuli/Experimental_stims/poker card/22864212.thl.jpg,/static/Category_learning/Stimuli/Experimental_stims/poker card/9816946.thl.jpg,1.0,poker card,poker card,40.0,40.0,poker card6,poker card15,40.0,40.0,0.0,312.539,1.039,,
297,,confirmation,,html-keyboard-response,297,427463,0.0-1.0-60.0-0.0-1.0-0.0,0,0,96511,,,,,,58.0,,,,,,,,,,,,,,,,,,,,,,,,,,,,,,,,313.0,0.461,,
298,,isi,,html-keyboard-response,298,428965,0.0-1.0-60.0-0.0-2.0,0,0,96511,,,,,,,,,,,,,,,,,,,,,,,,,,,,,,,,,,,,,,314.5,1.5,,
299,,feedback,,html-keyboard-response,299,429969,0.0-1.0-60.0-0.0-3.0-0.0,0,0,96511,,,,,,58.0,,,,,,,,,,,,,,,,,,,,,,,,,,,,,,,,315.5,1.0,,
300,,iti,,html-keyboard-response,300,430976,0.0-1.0-60.0-0.0-5.0,0,0,96511,,,,,,,,,,,,,,,,,,,,,,,,,,,,,,,,,,,,,,316.5,1.0,,
301,,choice,,html-keyboard-response,301,431652,0.0-1.0-61.0-0.0-0.0,0,0,96511,,672.0,,,75.0,59.0,59.0,3500.0,1000.0,0.0,1.0,0.0,60-80,,0.0,watch,bench,60.0,80.0,watch9,bench10,40.0,100.0,mens-diamond-watches-euro-48733-ab.jpg,APARKBE16.jpg,/static/Category_learning/Stimuli/Experimental_stims/watch/mens-diamond-watches-euro-48733-ab.jpg,/static/Category_learning/Stimuli/Experimental_stims/bench/APARKBE16.jpg,0.0,bench,watch,80.0,60.0,bench10,watch9,100.0,40.0,0.0,317.172,0.672,,
302,,confirmation,,html-keyboard-response,302,432486,0.0-1.0-61.0-0.0-1.0-0.0,0,0,96511,,,,,,59.0,,,,,,,,,,,,,,,,,,,,,,,,,,,,,,,,318.0,0.828,,
303,,isi,,html-keyboard-response,303,435990,0.0-1.0-61.0-0.0-2.0,0,0,96511,,,,,,,,,,,,,,,,,,,,,,,,,,,,,,,,,,,,,,321.5,3.5,,
304,,feedback,,html-keyboard-response,304,436997,0.0-1.0-61.0-0.0-3.0-0.0,0,0,96511,,,,,,59.0,,,,,,,,,,,,,,,,,,,,,,,,,,,,,,,,322.5,1.0,,
305,,iti,,html-keyboard-response,305,438000,0.0-1.0-61.0-0.0-5.0,0,0,96511,,,,,,,,,,,,,,,,,,,,,,,,,,,,,,,,,,,,,,323.5,1.0,,
306,,choice,,html-keyboard-response,306,438865,0.0-1.0-62.0-0.0-0.0,0,0,96511,,862.0,,,68.0,60.0,60.0,1500.0,1000.0,0.0,1.0,0.0,40-40,,,pen,necklace,40.0,40.0,pen8,necklace12,60.0,40.0,1383_1749_popup copy.jpg,necklascenew07.jpg,/static/Category_learning/Stimuli/Experimental_stims/pen/1383_1749_popup copy.jpg,/static/Category_learning/Stimuli/Experimental_stims/necklace/necklascenew07.jpg,1.0,pen,necklace,40.0,40.0,pen8,necklace12,60.0,40.0,0.0,324.362,0.862,,
307,,confirmation,,html-keyboard-response,307,439511,0.0-1.0-62.0-0.0-1.0-0.0,0,0,96511,,,,,,60.0,,,,,,,,,,,,,,,,,,,,,,,,,,,,,,,,325.0,0.638,,
308,,isi,,html-keyboard-response,308,441014,0.0-1.0-62.0-0.0-2.0,0,0,96511,,,,,,,,,,,,,,,,,,,,,,,,,,,,,,,,,,,,,,326.5,1.5,,
309,,feedback,,html-keyboard-response,309,442022,0.0-1.0-62.0-0.0-3.0-0.0,0,0,96511,,,,,,60.0,,,,,,,,,,,,,,,,,,,,,,,,,,,,,,,,327.5,1.0,,
310,,iti,,html-keyboard-response,310,443028,0.0-1.0-62.0-0.0-5.0,0,0,96511,,,,,,,,,,,,,,,,,,,,,,,,,,,,,,,,,,,,,,328.5,1.0,,
311,,choice,,html-keyboard-response,311,443882,0.0-1.0-63.0-0.0-0.0,0,0,96511,,850.0,,,68.0,61.0,61.0,1000.0,1000.0,0.0,1.0,0.0,20-60,,1.0,train,hammer,60.0,20.0,train15,hammer14,40.0,40.0,master-TD006.jpg,hammer.jpg,/static/Category_learning/Stimuli/Experimental_stims/train/master-TD006.jpg,/static/Category_learning/Stimuli/Experimental_stims/hammer/hammer.jpg,1.0,train,hammer,60.0,20.0,train15,hammer14,40.0,40.0,0.0,329.35,0.85,,
312,,confirmation,,html-keyboard-response,312,444540,0.0-1.0-63.0-0.0-1.0-0.0,0,0,96511,,,,,,61.0,,,,,,,,,,,,,,,,,,,,,,,,,,,,,,,,330.0,0.65,,
313,,isi,,html-keyboard-response,313,445547,0.0-1.0-63.0-0.0-2.0,0,0,96511,,,,,,,,,,,,,,,,,,,,,,,,,,,,,,,,,,,,,,331.0,1.0,,
314,,feedback,,html-keyboard-response,314,446551,0.0-1.0-63.0-0.0-3.0-0.0,0,0,96511,,,,,,61.0,,,,,,,,,,,,,,,,,,,,,,,,,,,,,,,,332.0,1.0,,
315,,iti,,html-keyboard-response,315,447558,0.0-1.0-63.0-0.0-5.0,0,0,96511,,,,,,,,,,,,,,,,,,,,,,,,,,,,,,,,,,,,,,333.0,1.0,,
316,,choice,,html-keyboard-response,316,448329,0.0-1.0-64.0-0.0-0.0,0,0,96511,,768.0,,,75.0,62.0,62.0,1000.0,1000.0,0.0,1.0,0.0,20-80,,1.0,dresser,key chain,80.0,20.0,dresser13,key chain7,80.0,40.0,ADRESSE70.jpg,keychain-gentoo-linux.jpg,/static/Category_learning/Stimuli/Experimental_stims/dresser/ADRESSE70.jpg,/static/Category_learning/Stimuli/Experimental_stims/key chain/keychain-gentoo-linux.jpg,0.0,key chain,dresser,20.0,80.0,key chain7,dresser13,40.0,80.0,0.0,333.768,0.768,,
317,,confirmation,,html-keyboard-response,317,449068,0.0-1.0-64.0-0.0-1.0-0.0,0,0,96511,,,,,,62.0,,,,,,,,,,,,,,,,,,,,,,,,,,,,,,,,334.5,0.732,,
318,,isi,,html-keyboard-response,318,450072,0.0-1.0-64.0-0.0-2.0,0,0,96511,,,,,,,,,,,,,,,,,,,,,,,,,,,,,,,,,,,,,,335.5,1.0,,
319,,feedback,,html-keyboard-response,319,451078,0.0-1.0-64.0-0.0-3.0-0.0,0,0,96511,,,,,,62.0,,,,,,,,,,,,,,,,,,,,,,,,,,,,,,,,336.5,1.0,,
320,,iti,,html-keyboard-response,320,452080,0.0-1.0-64.0-0.0-5.0,0,0,96511,,,,,,,,,,,,,,,,,,,,,,,,,,,,,,,,,,,,,,337.5,1.0,,
321,,choice,,html-keyboard-response,321,453019,0.0-1.0-65.0-0.0-0.0,0,0,96511,,936.0,,,68.0,63.0,63.0,1500.0,3500.0,0.0,1.0,1.0,80-80,1.0,,bench,bench,80.0,80.0,bench10,bench5,100.0,60.0,APARKBE16.jpg,APARKBEN8.jpg,/static/Category_learning/Stimuli/Experimental_stims/bench/APARKBE16.jpg,/static/Category_learning/Stimuli/Experimental_stims/bench/APARKBEN8.jpg,1.0,bench,bench,80.0,80.0,bench10,bench5,100.0,60.0,0.0,338.436,0.936,,
322,,confirmation,,html-keyboard-response,322,453589,0.0-1.0-65.0-0.0-1.0-0.0,0,0,96511,,,,,,63.0,,,,,,,,,,,,,,,,,,,,,,,,,,,,,,,,339.0,0.564,,
323,,isi,,html-keyboard-response,323,455095,0.0-1.0-65.0-0.0-2.0,0,0,96511,,,,,,,,,,,,,,,,,,,,,,,,,,,,,,,,,,,,,,340.5,1.5,,
324,,feedback,,html-keyboard-response,324,456103,0.0-1.0-65.0-0.0-3.0-0.0,0,0,96511,,,,,,63.0,,,,,,,,,,,,,,,,,,,,,,,,,,,,,,,,341.5,1.0,,
325,,iti,,html-keyboard-response,325,459608,0.0-1.0-65.0-0.0-5.0,0,0,96511,,,,,,,,,,,,,,,,,,,,,,,,,,,,,,,,,,,,,,345.0,3.5,,
326,,choice,,html-keyboard-response,326,460250,0.0-1.0-66.0-0.0-0.0,0,0,96511,,638.0,,,75.0,64.0,64.0,1500.0,2000.0,0.0,1.0,0.0,40-80,,0.0,sofa,fan,40.0,80.0,sofa9,fan15,20.0,60.0,ALOVSEAT9.jpg,n_hsf.jpg,/static/Category_learning/Stimuli/Experimental_stims/sofa/ALOVSEAT9.jpg,/static/Category_learning/Stimuli/Experimental_stims/fan/n_hsf.jpg,0.0,fan,sofa,80.0,40.0,fan15,sofa9,60.0,20.0,0.0,345.638,0.638,,
327,,confirmation,,html-keyboard-response,327,461118,0.0-1.0-66.0-0.0-1.0-0.0,0,0,96511,,,,,,64.0,,,,,,,,,,,,,,,,,,,,,,,,,,,,,,,,346.5,0.862,,
328,,isi,,html-keyboard-response,328,462625,0.0-1.0-66.0-0.0-2.0,0,0,96511,,,,,,,,,,,,,,,,,,,,,,,,,,,,,,,,,,,,,,348.0,1.5,,
329,,feedback,,html-keyboard-response,329,463633,0.0-1.0-66.0-0.0-3.0-0.0,0,0,96511,,,,,,64.0,,,,,,,,,,,,,,,,,,,,,,,,,,,,,,,,349.0,1.0,,
330,,iti,,html-keyboard-response,330,465638,0.0-1.0-66.0-0.0-5.0,0,0,96511,,,,,,,,,,,,,,,,,,,,,,,,,,,,,,,,,,,,,,351.0,2.0,,
331,,block_over,,html-keyboard-response,331,508674,0.0-1.0-66.0-0.0-7.0-0.0,0,0,96511,,43030.0,,,68.0,64.0,,,,,,,,,,,,,,,,,,,,,,,,,,,,,,,,,,,
332,,start_run,,html-keyboard-response,332,509708,0.0-1.0-66.0-0.0-7.0-1.0,0,0,96511,,1033.0,,,84.0,,,,,,,,,,,,,,,,,,,,,,,,,,,,,,,,,,,,
333,,choice,,html-keyboard-response,333,511130,0.0-1.0-67.0-0.0-0.0,0,0,96511,,1417.0,,,68.0,65.0,65.0,3500.0,1000.0,0.0,2.0,0.0,20-60,,1.0,telescope,key chain,60.0,20.0,telescope4,key chain14,60.0,0.0,TELESCOPE_BLACK_GOOD_SMALL.jpg,Jif Keychain 285.jpg,/static/Category_learning/Stimuli/Experimental_stims/telescope/TELESCOPE_BLACK_GOOD_SMALL.jpg,/static/Category_learning/Stimuli/Experimental_stims/key chain/Jif Keychain 285.jpg,1.0,telescope,key chain,60.0,20.0,telescope4,key chain14,60.0,0.0,0.0,1.417,1.417,,
334,,confirmation,,html-keyboard-response,334,511219,0.0-1.0-67.0-0.0-1.0-0.0,0,0,96511,,,,,,65.0,,,,,,,,,,,,,,,,,,,,,,,,,,,,,,,,1.5,0.083,,
335,,isi,,html-keyboard-response,335,514721,0.0-1.0-67.0-0.0-2.0,0,0,96511,,,,,,,,,,,,,,,,,,,,,,,,,,,,,,,,,,,,,,5.0,3.5,,
336,,feedback,,html-keyboard-response,336,515724,0.0-1.0-67.0-0.0-3.0-0.0,0,0,96511,,,,,,65.0,,,,,,,,,,,,,,,,,,,,,,,,,,,,,,,,6.0,1.0,,
337,,iti,,html-keyboard-response,337,516727,0.0-1.0-67.0-0.0-5.0,0,0,96511,,,,,,,,,,,,,,,,,,,,,,,,,,,,,,,,,,,,,,7.0,1.0,,
338,,choice,,html-keyboard-response,338,517327,0.0-1.0-68.0-0.0-0.0,0,0,96511,,597.0,,,75.0,66.0,66.0,2000.0,1000.0,0.0,2.0,0.0,20-60,,0.0,key chain,yarn,20.0,60.0,key chain3,yarn2,20.0,80.0,Keychain_Voice_Recorder.jpg,Aballofyarn66.jpg,/static/Category_learning/Stimuli/Experimental_stims/key chain/Keychain_Voice_Recorder.jpg,/static/Category_learning/Stimuli/Experimental_stims/yarn/Aballofyarn66.jpg,0.0,yarn,key chain,60.0,20.0,yarn2,key chain3,80.0,20.0,0.0,7.596999999999999,0.597,,
339,,confirmation,,html-keyboard-response,339,518236,0.0-1.0-68.0-0.0-1.0-0.0,0,0,96511,,,,,,66.0,,,,,,,,,,,,,,,,,,,,,,,,,,,,,,,,8.5,0.903,,
340,,isi,,html-keyboard-response,340,520243,0.0-1.0-68.0-0.0-2.0,0,0,96511,,,,,,,,,,,,,,,,,,,,,,,,,,,,,,,,,,,,,,10.5,2.0,,
341,,feedback,,html-keyboard-response,341,521250,0.0-1.0-68.0-0.0-3.0-0.0,0,0,96511,,,,,,66.0,,,,,,,,,,,,,,,,,,,,,,,,,,,,,,,,11.5,1.0,,
342,,iti,,html-keyboard-response,342,522254,0.0-1.0-68.0-0.0-5.0,0,0,96511,,,,,,,,,,,,,,,,,,,,,,,,,,,,,,,,,,,,,,12.5,1.0,,
343,,choice,,html-keyboard-response,343,522863,0.0-1.0-69.0-0.0-0.0,0,0,96511,,605.0,,,68.0,67.0,67.0,1000.0,1000.0,0.0,2.0,0.0,40-60,,0.0,small table,watch,40.0,60.0,small table15,watch2,60.0,60.0,ATABLE20.jpg,AL0004-03E_MED.jpg,/static/Category_learning/Stimuli/Experimental_stims/small table/ATABLE20.jpg,/static/Category_learning/Stimuli/Experimental_stims/watch/AL0004-03E_MED.jpg,1.0,small table,watch,40.0,60.0,small table15,watch2,60.0,60.0,0.0,13.105,0.605,,
344,,confirmation,,html-keyboard-response,344,523761,0.0-1.0-69.0-0.0-1.0-0.0,0,0,96511,,,,,,67.0,,,,,,,,,,,,,,,,,,,,,,,,,,,,,,,,14.0,0.895,,
345,,isi,,html-keyboard-response,345,524764,0.0-1.0-69.0-0.0-2.0,0,0,96511,,,,,,,,,,,,,,,,,,,,,,,,,,,,,,,,,,,,,,15.0,1.0,,
346,,feedback,,html-keyboard-response,346,525766,0.0-1.0-69.0-0.0-3.0-0.0,0,0,96511,,,,,,67.0,,,,,,,,,,,,,,,,,,,,,,,,,,,,,,,,16.0,1.0,,
347,,iti,,html-keyboard-response,347,526770,0.0-1.0-69.0-0.0-5.0,0,0,96511,,,,,,,,,,,,,,,,,,,,,,,,,,,,,,,,,,,,,,17.0,1.0,,
348,,choice,,html-keyboard-response,348,527395,0.0-1.0-70.0-0.0-0.0,0,0,96511,,618.0,,,68.0,68.0,68.0,3500.0,1000.0,0.0,2.0,0.0,40-60,,1.0,yarn,necklace,60.0,40.0,yarn11,necklace7,60.0,60.0,Aballofpinky2.jpg,Anecklace12.jpg,/static/Category_learning/Stimuli/Experimental_stims/yarn/Aballofpinky2.jpg,/static/Category_learning/Stimuli/Experimental_stims/necklace/Anecklace12.jpg,1.0,yarn,necklace,60.0,40.0,yarn11,necklace7,60.0,60.0,0.0,17.618,0.618,,
349,,confirmation,,html-keyboard-response,349,528280,0.0-1.0-70.0-0.0-1.0-0.0,0,0,96511,,,,,,68.0,,,,,,,,,,,,,,,,,,,,,,,,,,,,,,,,18.5,0.882,,
350,,isi,,html-keyboard-response,350,531786,0.0-1.0-70.0-0.0-2.0,0,0,96511,,,,,,,,,,,,,,,,,,,,,,,,,,,,,,,,,,,,,,22.0,3.5,,
351,,feedback,,html-keyboard-response,351,532791,0.0-1.0-70.0-0.0-3.0-0.0,0,0,96511,,,,,,68.0,,,,,,,,,,,,,,,,,,,,,,,,,,,,,,,,23.0,1.0,,
352,,iti,,html-keyboard-response,352,533795,0.0-1.0-70.0-0.0-5.0,0,0,96511,,,,,,,,,,,,,,,,,,,,,,,,,,,,,,,,,,,,,,24.0,1.0,,
353,,choice,,html-keyboard-response,353,534466,0.0-1.0-71.0-0.0-0.0,0,0,96511,,668.0,,,75.0,69.0,69.0,1500.0,1000.0,0.0,2.0,0.0,20-80,,1.0,bongo,hat,80.0,20.0,bongo10,hat3,60.0,0.0,22945915.thl.jpg,Astrawhat49.jpg,/static/Category_learning/Stimuli/Experimental_stims/bongo/22945915.thl.jpg,/static/Category_learning/Stimuli/Experimental_stims/hat/Astrawhat49.jpg,0.0,hat,bongo,20.0,80.0,hat3,bongo10,0.0,60.0,0.0,24.668,0.668,,
354,,confirmation,,html-keyboard-response,354,535303,0.0-1.0-71.0-0.0-1.0-0.0,0,0,96511,,,,,,69.0,,,,,,,,,,,,,,,,,,,,,,,,,,,,,,,,25.5,0.832,,
355,,isi,,html-keyboard-response,355,536807,0.0-1.0-71.0-0.0-2.0,0,0,96511,,,,,,,,,,,,,,,,,,,,,,,,,,,,,,,,,,,,,,27.0,1.5,,
356,,feedback,,html-keyboard-response,356,537814,0.0-1.0-71.0-0.0-3.0-0.0,0,0,96511,,,,,,69.0,,,,,,,,,,,,,,,,,,,,,,,,,,,,,,,,28.0,1.0,,
357,,iti,,html-keyboard-response,357,538818,0.0-1.0-71.0-0.0-5.0,0,0,96511,,,,,,,,,,,,,,,,,,,,,,,,,,,,,,,,,,,,,,29.0,1.0,,
358,,choice,,html-keyboard-response,358,539812,0.0-1.0-72.0-0.0-0.0,0,0,96511,,988.0,,,68.0,70.0,70.0,1500.0,1500.0,0.0,2.0,1.0,20-20,1.0,,hat,hat,20.0,20.0,hat3,hat7,0.0,20.0,Astrawhat49.jpg,ASTRHATFL.jpg,/static/Category_learning/Stimuli/Experimental_stims/hat/Astrawhat49.jpg,/static/Category_learning/Stimuli/Experimental_stims/hat/ASTRHATFL.jpg,1.0,hat,hat,20.0,20.0,hat3,hat7,0.0,20.0,0.0,29.988,0.988,,
359,,confirmation,,html-keyboard-response,359,540329,0.0-1.0-72.0-0.0-1.0-0.0,0,0,96511,,,,,,70.0,,,,,,,,,,,,,,,,,,,,,,,,,,,,,,,,30.5,0.512,,
360,,isi,,html-keyboard-response,360,541831,0.0-1.0-72.0-0.0-2.0,0,0,96511,,,,,,,,,,,,,,,,,,,,,,,,,,,,,,,,,,,,,,32.0,1.5,,
361,,feedback,,html-keyboard-response,361,542838,0.0-1.0-72.0-0.0-3.0-0.0,0,0,96511,,,,,,70.0,,,,,,,,,,,,,,,,,,,,,,,,,,,,,,,,33.0,1.0,,
362,,iti,,html-keyboard-response,362,544345,0.0-1.0-72.0-0.0-5.0,0,0,96511,,,,,,,,,,,,,,,,,,,,,,,,,,,,,,,,,,,,,,34.5,1.5,,
363,,choice,,html-keyboard-response,363,545152,0.0-1.0-73.0-0.0-0.0,0,0,96511,,804.0,,,68.0,71.0,71.0,1500.0,1000.0,0.0,2.0,1.0,60-60,1.0,,yarn,yarn,60.0,60.0,yarn2,yarn11,80.0,60.0,Aballofyarn66.jpg,Aballofpinky2.jpg,/static/Category_learning/Stimuli/Experimental_stims/yarn/Aballofyarn66.jpg,/static/Category_learning/Stimuli/Experimental_stims/yarn/Aballofpinky2.jpg,1.0,yarn,yarn,60.0,60.0,yarn2,yarn11,80.0,60.0,0.0,35.304,0.804,,
364,,confirmation,,html-keyboard-response,364,545853,0.0-1.0-73.0-0.0-1.0-0.0,0,0,96511,,,,,,71.0,,,,,,,,,,,,,,,,,,,,,,,,,,,,,,,,36.0,0.696,,
365,,isi,,html-keyboard-response,365,547356,0.0-1.0-73.0-0.0-2.0,0,0,96511,,,,,,,,,,,,,,,,,,,,,,,,,,,,,,,,,,,,,,37.5,1.5,,
366,,feedback,,html-keyboard-response,366,548363,0.0-1.0-73.0-0.0-3.0-0.0,0,0,96511,,,,,,71.0,,,,,,,,,,,,,,,,,,,,,,,,,,,,,,,,38.5,1.0,,
367,,iti,,html-keyboard-response,367,549368,0.0-1.0-73.0-0.0-5.0,0,0,96511,,,,,,,,,,,,,,,,,,,,,,,,,,,,,,,,,,,,,,39.5,1.0,,
368,,choice,,html-keyboard-response,368,550197,0.0-1.0-74.0-0.0-0.0,0,0,96511,,824.0,,,68.0,72.0,72.0,1000.0,2000.0,0.0,2.0,0.0,20-60,,0.0,microscope,telescope,20.0,60.0,microscope12,telescope14,0.0,80.0,usbdigitalmicroscope1_small1.jpg,T09748dt.jpg,/static/Category_learning/Stimuli/Experimental_stims/microscope/usbdigitalmicroscope1_small1.jpg,/static/Category_learning/Stimuli/Experimental_stims/telescope/T09748dt.jpg,1.0,microscope,telescope,20.0,60.0,microscope12,telescope14,0.0,80.0,0.0,40.324,0.824,,
369,,confirmation,,html-keyboard-response,369,550877,0.0-1.0-74.0-0.0-1.0-0.0,0,0,96511,,,,,,72.0,,,,,,,,,,,,,,,,,,,,,,,,,,,,,,,,41.0,0.676,,
370,,isi,,html-keyboard-response,370,551881,0.0-1.0-74.0-0.0-2.0,0,0,96511,,,,,,,,,,,,,,,,,,,,,,,,,,,,,,,,,,,,,,42.0,1.0,,
371,,feedback,,html-keyboard-response,371,552887,0.0-1.0-74.0-0.0-3.0-0.0,0,0,96511,,,,,,72.0,,,,,,,,,,,,,,,,,,,,,,,,,,,,,,,,43.0,1.0,,
372,,iti,,html-keyboard-response,372,554890,0.0-1.0-74.0-0.0-5.0,0,0,96511,,,,,,,,,,,,,,,,,,,,,,,,,,,,,,,,,,,,,,45.0,2.0,,
373,,choice,,html-keyboard-response,373,555627,0.0-1.0-75.0-0.0-0.0,0,0,96511,,734.0,,,75.0,73.0,73.0,1000.0,1000.0,0.0,2.0,0.0,20-80,,1.0,bench,hat,80.0,20.0,bench13,hat14,80.0,0.0,ABROWNBE4.jpg,Ahat136.jpg,/static/Category_learning/Stimuli/Experimental_stims/bench/ABROWNBE4.jpg,/static/Category_learning/Stimuli/Experimental_stims/hat/Ahat136.jpg,0.0,hat,bench,20.0,80.0,hat14,bench13,0.0,80.0,0.0,45.734,0.734,,
374,,confirmation,,html-keyboard-response,374,556401,0.0-1.0-75.0-0.0-1.0-0.0,0,0,96511,,,,,,73.0,,,,,,,,,,,,,,,,,,,,,,,,,,,,,,,,46.5,0.766,,
375,,isi,,html-keyboard-response,375,557407,0.0-1.0-75.0-0.0-2.0,0,0,96511,,,,,,,,,,,,,,,,,,,,,,,,,,,,,,,,,,,,,,47.5,1.0,,
376,,feedback,,html-keyboard-response,376,558412,0.0-1.0-75.0-0.0-3.0-0.0,0,0,96511,,,,,,73.0,,,,,,,,,,,,,,,,,,,,,,,,,,,,,,,,48.5,1.0,,
377,,iti,,html-keyboard-response,377,559417,0.0-1.0-75.0-0.0-5.0,0,0,96511,,,,,,,,,,,,,,,,,,,,,,,,,,,,,,,,,,,,,,49.5,1.0,,
378,,choice,,html-keyboard-response,378,560168,0.0-1.0-76.0-0.0-0.0,0,0,96511,,748.0,,,75.0,74.0,74.0,1500.0,1000.0,0.0,2.0,1.0,80-80,1.0,,fan,fan,80.0,80.0,fan15,fan7,60.0,80.0,n_hsf.jpg,250679_lg.jpg,/static/Category_learning/Stimuli/Experimental_stims/fan/n_hsf.jpg,/static/Category_learning/Stimuli/Experimental_stims/fan/250679_lg.jpg,0.0,fan,fan,80.0,80.0,fan7,fan15,80.0,60.0,0.0,50.248,0.748,,
379,,confirmation,,html-keyboard-response,379,560923,0.0-1.0-76.0-0.0-1.0-0.0,0,0,96511,,,,,,74.0,,,,,,,,,,,,,,,,,,,,,,,,,,,,,,,,51.0,0.752,,
380,,isi,,html-keyboard-response,380,562429,0.0-1.0-76.0-0.0-2.0,0,0,96511,,,,,,,,,,,,,,,,,,,,,,,,,,,,,,,,,,,,,,52.5,1.5,,
381,,feedback,,html-keyboard-response,381,563437,0.0-1.0-76.0-0.0-3.0-0.0,0,0,96511,,,,,,74.0,,,,,,,,,,,,,,,,,,,,,,,,,,,,,,,,53.5,1.0,,
382,,iti,,html-keyboard-response,382,564440,0.0-1.0-76.0-0.0-5.0,0,0,96511,,,,,,,,,,,,,,,,,,,,,,,,,,,,,,,,,,,,,,54.5,1.0,,
383,,choice,,html-keyboard-response,383,564996,0.0-1.0-77.0-0.0-0.0,0,0,96511,,552.0,,,68.0,75.0,75.0,1000.0,2000.0,0.0,2.0,0.0,20-20,,,motorcycle,hat,20.0,20.0,motorcycle6,hat13,40.0,0.0,motorcycle45364t4t.jpg,Ahatwithfeath.jpg,/static/Category_learning/Stimuli/Experimental_stims/motorcycle/motorcycle45364t4t.jpg,/static/Category_learning/Stimuli/Experimental_stims/hat/Ahatwithfeath.jpg,1.0,motorcycle,hat,20.0,20.0,motorcycle6,hat13,40.0,0.0,0.0,55.052,0.552,,
384,,confirmation,,html-keyboard-response,384,565949,0.0-1.0-77.0-0.0-1.0-0.0,0,0,96511,,,,,,75.0,,,,,,,,,,,,,,,,,,,,,,,,,,,,,,,,56.0,0.948,,
385,,isi,,html-keyboard-response,385,566956,0.0-1.0-77.0-0.0-2.0,0,0,96511,,,,,,,,,,,,,,,,,,,,,,,,,,,,,,,,,,,,,,57.0,1.0,,
386,,feedback,,html-keyboard-response,386,567960,0.0-1.0-77.0-0.0-3.0-0.0,0,0,96511,,,,,,75.0,,,,,,,,,,,,,,,,,,,,,,,,,,,,,,,,58.0,1.0,,
387,,iti,,html-keyboard-response,387,569965,0.0-1.0-77.0-0.0-5.0,0,0,96511,,,,,,,,,,,,,,,,,,,,,,,,,,,,,,,,,,,,,,60.0,2.0,,
388,,choice,,html-keyboard-response,388,570445,0.0-1.0-78.0-0.0-0.0,0,0,96511,,477.0,,,75.0,76.0,76.0,1000.0,1000.0,0.0,2.0,0.0,40-80,,1.0,desk,patio lounge chair,80.0,40.0,desk4,patio lounge chair13,80.0,20.0,AbbeyMiniRadialBIG(1).jpg,grosfillex-bahia-resin-chaise-lounges.jpg,/static/Category_learning/Stimuli/Experimental_stims/desk/AbbeyMiniRadialBIG(1).jpg,/static/Category_learning/Stimuli/Experimental_stims/patio lounge chair/grosfillex-bahia-resin-chaise-lounges.jpg,0.0,patio lounge chair,desk,40.0,80.0,patio lounge chair13,desk4,20.0,80.0,0.0,60.477,0.477,,
389,,confirmation,,html-keyboard-response,389,571474,0.0-1.0-78.0-0.0-1.0-0.0,0,0,96511,,,,,,76.0,,,,,,,,,,,,,,,,,,,,,,,,,,,,,,,,61.5,1.023,,
390,,isi,,html-keyboard-response,390,572478,0.0-1.0-78.0-0.0-2.0,0,0,96511,,,,,,,,,,,,,,,,,,,,,,,,,,,,,,,,,,,,,,62.5,1.0,,
391,,feedback,,html-keyboard-response,391,573486,0.0-1.0-78.0-0.0-3.0-0.0,0,0,96511,,,,,,76.0,,,,,,,,,,,,,,,,,,,,,,,,,,,,,,,,63.5,1.0,,
392,,iti,,html-keyboard-response,392,574489,0.0-1.0-78.0-0.0-5.0,0,0,96511,,,,,,,,,,,,,,,,,,,,,,,,,,,,,,,,,,,,,,64.5,1.0,,
393,,choice,,html-keyboard-response,393,575258,0.0-1.0-79.0-0.0-0.0,0,0,96511,,765.0,,,68.0,77.0,77.0,2000.0,1500.0,0.0,2.0,1.0,20-20,1.0,,motorcycle,motorcycle,20.0,20.0,motorcycle6,motorcycle10,40.0,20.0,motorcycle45364t4t.jpg,motorcycle17.jpg,/static/Category_learning/Stimuli/Experimental_stims/motorcycle/motorcycle45364t4t.jpg,/static/Category_learning/Stimuli/Experimental_stims/motorcycle/motorcycle17.jpg,1.0,motorcycle,motorcycle,20.0,20.0,motorcycle6,motorcycle10,40.0,20.0,0.0,65.265,0.765,,
394,,confirmation,,html-keyboard-response,394,575997,0.0-1.0-79.0-0.0-1.0-0.0,0,0,96511,,,,,,77.0,,,,,,,,,,,,,,,,,,,,,,,,,,,,,,,,66.0,0.735,,
395,,isi,,html-keyboard-response,395,578001,0.0-1.0-79.0-0.0-2.0,0,0,96511,,,,,,,,,,,,,,,,,,,,,,,,,,,,,,,,,,,,,,68.0,2.0,,
396,,feedback,,html-keyboard-response,396,579005,0.0-1.0-79.0-0.0-3.0-0.0,0,0,96511,,,,,,77.0,,,,,,,,,,,,,,,,,,,,,,,,,,,,,,,,69.0,1.0,,
397,,iti,,html-keyboard-response,397,580509,0.0-1.0-79.0-0.0-5.0,0,0,96511,,,,,,,,,,,,,,,,,,,,,,,,,,,,,,,,,,,,,,70.5,1.5,,
398,,choice,,html-keyboard-response,398,581213,0.0-1.0-80.0-0.0-0.0,0,0,96511,,701.0,,,68.0,78.0,78.0,2000.0,1000.0,0.0,2.0,0.0,20-40,,1.0,patio lounge chair,hat,40.0,20.0,patio lounge chair7,hat2,40.0,40.0,lg_Serenity_Riviera[1].jpg,Ahatwithfeat7.jpg,/static/Category_learning/Stimuli/Experimental_stims/patio lounge chair/lg_Serenity_Riviera[1].jpg,/static/Category_learning/Stimuli/Experimental_stims/hat/Ahatwithfeat7.jpg,1.0,patio lounge chair,hat,40.0,20.0,patio lounge chair7,hat2,40.0,40.0,0.0,71.201,0.701,,
399,,confirmation,,html-keyboard-response,399,582016,0.0-1.0-80.0-0.0-1.0-0.0,0,0,96511,,,,,,78.0,,,,,,,,,,,,,,,,,,,,,,,,,,,,,,,,72.0,0.799,,
400,,isi,,html-keyboard-response,400,584020,0.0-1.0-80.0-0.0-2.0,0,0,96511,,,,,,,,,,,,,,,,,,,,,,,,,,,,,,,,,,,,,,74.0,2.0,,
401,,feedback,,html-keyboard-response,401,585028,0.0-1.0-80.0-0.0-3.0-0.0,0,0,96511,,,,,,78.0,,,,,,,,,,,,,,,,,,,,,,,,,,,,,,,,75.0,1.0,,
402,,iti,,html-keyboard-response,402,586035,0.0-1.0-80.0-0.0-5.0,0,0,96511,,,,,,,,,,,,,,,,,,,,,,,,,,,,,,,,,,,,,,76.0,1.0,,
403,,choice,,html-keyboard-response,403,586811,0.0-1.0-81.0-0.0-0.0,0,0,96511,,772.0,,,68.0,79.0,79.0,1500.0,2000.0,0.0,2.0,1.0,40-40,1.0,,patio lounge chair,patio lounge chair,40.0,40.0,patio lounge chair13,patio lounge chair7,20.0,40.0,grosfillex-bahia-resin-chaise-lounges.jpg,lg_Serenity_Riviera[1].jpg,/static/Category_learning/Stimuli/Experimental_stims/patio lounge chair/grosfillex-bahia-resin-chaise-lounges.jpg,/static/Category_learning/Stimuli/Experimental_stims/patio lounge chair/lg_Serenity_Riviera[1].jpg,1.0,patio lounge chair,patio lounge chair,40.0,40.0,patio lounge chair13,patio lounge chair7,20.0,40.0,0.0,76.772,0.772,,
404,,confirmation,,html-keyboard-response,404,587546,0.0-1.0-81.0-0.0-1.0-0.0,0,0,96511,,,,,,79.0,,,,,,,,,,,,,,,,,,,,,,,,,,,,,,,,77.5,0.728,,
405,,isi,,html-keyboard-response,405,589048,0.0-1.0-81.0-0.0-2.0,0,0,96511,,,,,,,,,,,,,,,,,,,,,,,,,,,,,,,,,,,,,,79.0,1.5,,
406,,feedback,,html-keyboard-response,406,590052,0.0-1.0-81.0-0.0-3.0-0.0,0,0,96511,,,,,,79.0,,,,,,,,,,,,,,,,,,,,,,,,,,,,,,,,80.0,1.0,,
407,,iti,,html-keyboard-response,407,592056,0.0-1.0-81.0-0.0-5.0,0,0,96511,,,,,,,,,,,,,,,,,,,,,,,,,,,,,,,,,,,,,,82.0,2.0,,
408,,choice,,html-keyboard-response,408,592661,0.0-1.0-82.0-0.0-0.0,0,0,96511,,601.0,,,68.0,80.0,80.0,1000.0,1500.0,0.0,2.0,0.0,20-80,,0.0,hat,flashlight,20.0,80.0,hat9,flashlight7,40.0,60.0,Astrawhat44.jpg,11900.jpg,/static/Category_learning/Stimuli/Experimental_stims/hat/Astrawhat44.jpg,/static/Category_learning/Stimuli/Experimental_stims/flashlight/11900.jpg,1.0,hat,flashlight,20.0,80.0,hat9,flashlight7,40.0,60.0,0.0,82.601,0.601,,
409,,confirmation,,html-keyboard-response,409,593566,0.0-1.0-82.0-0.0-1.0-0.0,0,0,96511,,,,,,80.0,,,,,,,,,,,,,,,,,,,,,,,,,,,,,,,,83.5,0.899,,
410,,isi,,html-keyboard-response,410,594573,0.0-1.0-82.0-0.0-2.0,0,0,96511,,,,,,,,,,,,,,,,,,,,,,,,,,,,,,,,,,,,,,84.5,1.0,,
411,,feedback,,html-keyboard-response,411,595577,0.0-1.0-82.0-0.0-3.0-0.0,0,0,96511,,,,,,80.0,,,,,,,,,,,,,,,,,,,,,,,,,,,,,,,,85.5,1.0,,
412,,iti,,html-keyboard-response,412,597081,0.0-1.0-82.0-0.0-5.0,0,0,96511,,,,,,,,,,,,,,,,,,,,,,,,,,,,,,,,,,,,,,87.0,1.5,,
413,,choice,,html-keyboard-response,413,597698,0.0-1.0-83.0-0.0-0.0,0,0,96511,,614.0,,,68.0,81.0,81.0,2000.0,1500.0,0.0,2.0,0.0,40-60,,1.0,telescope,sofa,60.0,40.0,telescope2,sofa15,60.0,40.0,Brass-telescope-60700.jpg,APEACHLOV.jpg,/static/Category_learning/Stimuli/Experimental_stims/telescope/Brass-telescope-60700.jpg,/static/Category_learning/Stimuli/Experimental_stims/sofa/APEACHLOV.jpg,1.0,telescope,sofa,60.0,40.0,telescope2,sofa15,60.0,40.0,0.0,87.614,0.614,,
414,,confirmation,,html-keyboard-response,414,598590,0.0-1.0-83.0-0.0-1.0-0.0,0,0,96511,,,,,,81.0,,,,,,,,,,,,,,,,,,,,,,,,,,,,,,,,88.5,0.886,,
415,,isi,,html-keyboard-response,415,601155,0.0-1.0-83.0-0.0-2.0,0,0,96511,,,,,,,,,,,,,,,,,,,,,,,,,,,,,,,,,,,,,,90.5,2.0,,
416,,feedback,,html-keyboard-response,416,602864,0.0-1.0-83.0-0.0-3.0-0.0,0,0,96511,,,,,,81.0,,,,,,,,,,,,,,,,,,,,,,,,,,,,,,,,91.5,1.0,,
417,,iti,,html-keyboard-response,417,604371,0.0-1.0-83.0-0.0-5.0,0,0,96511,,,,,,,,,,,,,,,,,,,,,,,,,,,,,,,,,,,,,,93.0,1.5,,
418,,choice,,html-keyboard-response,418,604863,0.0-1.0-84.0-0.0-0.0,0,0,96511,,489.0,,,75.0,82.0,82.0,2000.0,1000.0,0.0,2.0,0.0,20-60,,1.0,train,makeup compact,60.0,20.0,train2,makeup compact15,80.0,40.0,iron_train.jpg,05086681402.jpg,/static/Category_learning/Stimuli/Experimental_stims/train/iron_train.jpg,/static/Category_learning/Stimuli/Experimental_stims/makeup compact/05086681402.jpg,0.0,makeup compact,train,20.0,60.0,makeup compact15,train2,40.0,80.0,0.0,93.489,0.489,,
419,,confirmation,,html-keyboard-response,419,605881,0.0-1.0-84.0-0.0-1.0-0.0,0,0,96511,,,,,,82.0,,,,,,,,,,,,,,,,,,,,,,,,,,,,,,,,94.5,1.011,,
420,,isi,,html-keyboard-response,420,607885,0.0-1.0-84.0-0.0-2.0,0,0,96511,,,,,,,,,,,,,,,,,,,,,,,,,,,,,,,,,,,,,,96.5,2.0,,
421,,feedback,,html-keyboard-response,421,608889,0.0-1.0-84.0-0.0-3.0-0.0,0,0,96511,,,,,,82.0,,,,,,,,,,,,,,,,,,,,,,,,,,,,,,,,97.5,1.0,,
422,,iti,,html-keyboard-response,422,609892,0.0-1.0-84.0-0.0-5.0,0,0,96511,,,,,,,,,,,,,,,,,,,,,,,,,,,,,,,,,,,,,,98.5,1.0,,
423,,choice,,html-keyboard-response,423,610589,0.0-1.0-85.0-0.0-0.0,0,0,96511,,694.0,,,75.0,83.0,83.0,3500.0,1000.0,0.0,2.0,0.0,40-40,,,sofa,power strip,40.0,40.0,sofa4,power strip11,20.0,60.0,ALOVSEA15.jpg,41Bw7Tl1G7L._AA262_.jpg,/static/Category_learning/Stimuli/Experimental_stims/sofa/ALOVSEA15.jpg,/static/Category_learning/Stimuli/Experimental_stims/power strip/41Bw7Tl1G7L._AA262_.jpg,0.0,power strip,sofa,40.0,40.0,power strip11,sofa4,60.0,20.0,0.0,99.194,0.694,,
424,,confirmation,,html-keyboard-response,424,611400,0.0-1.0-85.0-0.0-1.0-0.0,0,0,96511,,,,,,83.0,,,,,,,,,,,,,,,,,,,,,,,,,,,,,,,,100.0,0.806,,
425,,isi,,html-keyboard-response,425,614904,0.0-1.0-85.0-0.0-2.0,0,0,96511,,,,,,,,,,,,,,,,,,,,,,,,,,,,,,,,,,,,,,103.5,3.5,,
426,,feedback,,html-keyboard-response,426,615912,0.0-1.0-85.0-0.0-3.0-0.0,0,0,96511,,,,,,83.0,,,,,,,,,,,,,,,,,,,,,,,,,,,,,,,,104.5,1.0,,
427,,iti,,html-keyboard-response,427,616915,0.0-1.0-85.0-0.0-5.0,0,0,96511,,,,,,,,,,,,,,,,,,,,,,,,,,,,,,,,,,,,,,105.5,1.0,,
428,,choice,,html-keyboard-response,428,617668,0.0-1.0-86.0-0.0-0.0,0,0,96511,,749.0,,,75.0,84.0,84.0,1500.0,1000.0,0.0,2.0,0.0,20-80,,0.0,hammer,bongo,20.0,80.0,hammer2,bongo3,0.0,100.0,hammer04.jpg,26390697.thl.jpg,/static/Category_learning/Stimuli/Experimental_stims/hammer/hammer04.jpg,/static/Category_learning/Stimuli/Experimental_stims/bongo/26390697.thl.jpg,0.0,bongo,hammer,80.0,20.0,bongo3,hammer2,100.0,0.0,0.0,106.249,0.749,,
429,,confirmation,,html-keyboard-response,429,618424,0.0-1.0-86.0-0.0-1.0-0.0,0,0,96511,,,,,,84.0,,,,,,,,,,,,,,,,,,,,,,,,,,,,,,,,107.0,0.751,,
430,,isi,,html-keyboard-response,430,619927,0.0-1.0-86.0-0.0-2.0,0,0,96511,,,,,,,,,,,,,,,,,,,,,,,,,,,,,,,,,,,,,,108.5,1.5,,
431,,feedback,,html-keyboard-response,431,620932,0.0-1.0-86.0-0.0-3.0-0.0,0,0,96511,,,,,,84.0,,,,,,,,,,,,,,,,,,,,,,,,,,,,,,,,109.5,1.0,,
432,,iti,,html-keyboard-response,432,621936,0.0-1.0-86.0-0.0-5.0,0,0,96511,,,,,,,,,,,,,,,,,,,,,,,,,,,,,,,,,,,,,,110.5,1.0,,
433,,choice,,html-keyboard-response,433,622746,0.0-1.0-87.0-0.0-0.0,0,0,96511,,807.0,,,75.0,85.0,85.0,1500.0,1000.0,0.0,2.0,0.0,40-60,,1.0,trumpet,power strip,60.0,40.0,trumpet10,power strip15,60.0,20.0,trumpet2.jpg,31oz6aGZN7L._AA262_.jpg,/static/Category_learning/Stimuli/Experimental_stims/trumpet/trumpet2.jpg,/static/Category_learning/Stimuli/Experimental_stims/power strip/31oz6aGZN7L._AA262_.jpg,0.0,power strip,trumpet,40.0,60.0,power strip15,trumpet10,20.0,60.0,0.0,111.307,0.807,,
434,,confirmation,,html-keyboard-response,434,623447,0.0-1.0-87.0-0.0-1.0-0.0,0,0,96511,,,,,,85.0,,,,,,,,,,,,,,,,,,,,,,,,,,,,,,,,112.0,0.693,,
435,,isi,,html-keyboard-response,435,624950,0.0-1.0-87.0-0.0-2.0,0,0,96511,,,,,,,,,,,,,,,,,,,,,,,,,,,,,,,,,,,,,,113.5,1.5,,
436,,feedback,,html-keyboard-response,436,625955,0.0-1.0-87.0-0.0-3.0-0.0,0,0,96511,,,,,,85.0,,,,,,,,,,,,,,,,,,,,,,,,,,,,,,,,114.5,1.0,,
437,,iti,,html-keyboard-response,437,626958,0.0-1.0-87.0-0.0-5.0,0,0,96511,,,,,,,,,,,,,,,,,,,,,,,,,,,,,,,,,,,,,,115.5,1.0,,
438,,choice,,html-keyboard-response,438,627773,0.0-1.0-88.0-0.0-0.0,0,0,96511,,811.0,,,68.0,86.0,86.0,1500.0,2000.0,0.0,2.0,1.0,20-20,1.0,,hat,hat,20.0,20.0,hat9,hat14,40.0,0.0,Astrawhat44.jpg,Ahat136.jpg,/static/Category_learning/Stimuli/Experimental_stims/hat/Astrawhat44.jpg,/static/Category_learning/Stimuli/Experimental_stims/hat/Ahat136.jpg,1.0,hat,hat,20.0,20.0,hat9,hat14,40.0,0.0,0.0,116.311,0.811,,
439,,confirmation,,html-keyboard-response,439,628469,0.0-1.0-88.0-0.0-1.0-0.0,0,0,96511,,,,,,86.0,,,,,,,,,,,,,,,,,,,,,,,,,,,,,,,,117.0,0.689,,
440,,isi,,html-keyboard-response,440,629972,0.0-1.0-88.0-0.0-2.0,0,0,96511,,,,,,,,,,,,,,,,,,,,,,,,,,,,,,,,,,,,,,118.5,1.5,,
441,,feedback,,html-keyboard-response,441,630980,0.0-1.0-88.0-0.0-3.0-0.0,0,0,96511,,,,,,86.0,,,,,,,,,,,,,,,,,,,,,,,,,,,,,,,,119.5,1.0,,
442,,iti,,html-keyboard-response,442,632985,0.0-1.0-88.0-0.0-5.0,0,0,96511,,,,,,,,,,,,,,,,,,,,,,,,,,,,,,,,,,,,,,121.5,2.0,,
443,,choice,,html-keyboard-response,443,633597,0.0-1.0-89.0-0.0-0.0,0,0,96511,,609.0,,,75.0,87.0,87.0,1500.0,1500.0,0.0,2.0,1.0,40-40,1.0,,power strip,power strip,40.0,40.0,power strip11,power strip5,60.0,60.0,41Bw7Tl1G7L._AA262_.jpg,93e4a283-bcd6-4ad1-8add-339658cda0fc_400.jpg,/static/Category_learning/Stimuli/Experimental_stims/power strip/41Bw7Tl1G7L._AA262_.jpg,/static/Category_learning/Stimuli/Experimental_stims/power strip/93e4a283-bcd6-4ad1-8add-339658cda0fc_400.jpg,0.0,power strip,power strip,40.0,40.0,power strip5,power strip11,60.0,60.0,0.0,122.109,0.609,,
444,,confirmation,,html-keyboard-response,444,634495,0.0-1.0-89.0-0.0-1.0-0.0,0,0,96511,,,,,,87.0,,,,,,,,,,,,,,,,,,,,,,,,,,,,,,,,123.0,0.891,,
445,,isi,,html-keyboard-response,445,635999,0.0-1.0-89.0-0.0-2.0,0,0,96511,,,,,,,,,,,,,,,,,,,,,,,,,,,,,,,,,,,,,,124.5,1.5,,
446,,feedback,,html-keyboard-response,446,637006,0.0-1.0-89.0-0.0-3.0-0.0,0,0,96511,,,,,,87.0,,,,,,,,,,,,,,,,,,,,,,,,,,,,,,,,125.5,1.0,,
447,,iti,,html-keyboard-response,447,638511,0.0-1.0-89.0-0.0-5.0,0,0,96511,,,,,,,,,,,,,,,,,,,,,,,,,,,,,,,,,,,,,,127.0,1.5,,
448,,choice,,html-keyboard-response,448,639058,0.0-1.0-90.0-0.0-0.0,0,0,96511,,544.0,,,68.0,88.0,88.0,1000.0,1500.0,0.0,2.0,0.0,20-20,,,key chain,motorcycle,20.0,20.0,key chain13,motorcycle14,0.0,20.0,Fancy_Liquid_Column_Shape_Key_Ring_with_Floater.jpg,motorcycle11.jpg,/static/Category_learning/Stimuli/Experimental_stims/key chain/Fancy_Liquid_Column_Shape_Key_Ring_with_Floater.jpg,/static/Category_learning/Stimuli/Experimental_stims/motorcycle/motorcycle11.jpg,1.0,key chain,motorcycle,20.0,20.0,key chain13,motorcycle14,0.0,20.0,0.0,127.544,0.544,,
449,,confirmation,,html-keyboard-response,449,640019,0.0-1.0-90.0-0.0-1.0-0.0,0,0,96511,,,,,,88.0,,,,,,,,,,,,,,,,,,,,,,,,,,,,,,,,128.5,0.956,,
450,,isi,,html-keyboard-response,450,641022,0.0-1.0-90.0-0.0-2.0,0,0,96511,,,,,,,,,,,,,,,,,,,,,,,,,,,,,,,,,,,,,,129.5,1.0,,
451,,feedback,,html-keyboard-response,451,642026,0.0-1.0-90.0-0.0-3.0-0.0,0,0,96511,,,,,,88.0,,,,,,,,,,,,,,,,,,,,,,,,,,,,,,,,130.5,1.0,,
452,,iti,,html-keyboard-response,452,643529,0.0-1.0-90.0-0.0-5.0,0,0,96511,,,,,,,,,,,,,,,,,,,,,,,,,,,,,,,,,,,,,,132.0,1.5,,
453,,choice,,html-keyboard-response,453,644175,0.0-1.0-91.0-0.0-0.0,0,0,96511,,643.0,,,68.0,89.0,89.0,2000.0,2000.0,0.0,2.0,0.0,40-80,,0.0,small table,fan,40.0,80.0,small table14,fan11,40.0,80.0,Awoodtable13.jpg,n_sf.jpg,/static/Category_learning/Stimuli/Experimental_stims/small table/Awoodtable13.jpg,/static/Category_learning/Stimuli/Experimental_stims/fan/n_sf.jpg,1.0,small table,fan,40.0,80.0,small table14,fan11,40.0,80.0,0.0,132.643,0.643,,
454,,confirmation,,html-keyboard-response,454,645035,0.0-1.0-91.0-0.0-1.0-0.0,0,0,96511,,,,,,89.0,,,,,,,,,,,,,,,,,,,,,,,,,,,,,,,,133.5,0.857,,
455,,isi,,html-keyboard-response,455,647038,0.0-1.0-91.0-0.0-2.0,0,0,96511,,,,,,,,,,,,,,,,,,,,,,,,,,,,,,,,,,,,,,135.5,2.0,,
456,,feedback,,html-keyboard-response,456,648046,0.0-1.0-91.0-0.0-3.0-0.0,0,0,96511,,,,,,89.0,,,,,,,,,,,,,,,,,,,,,,,,,,,,,,,,136.5,1.0,,
457,,iti,,html-keyboard-response,457,650051,0.0-1.0-91.0-0.0-5.0,0,0,96511,,,,,,,,,,,,,,,,,,,,,,,,,,,,,,,,,,,,,,138.5,2.0,,
458,,choice,,html-keyboard-response,458,650513,0.0-1.0-92.0-0.0-0.0,0,0,96511,,457.0,,,75.0,90.0,90.0,2000.0,3500.0,0.0,2.0,0.0,40-80,,1.0,baby carriage,patio lounge chair,80.0,40.0,baby carriage1,patio lounge chair6,100.0,40.0,babycarriage16.jpg,Lounge_Chair_with_Pillow.jpg,/static/Category_learning/Stimuli/Experimental_stims/baby carriage/babycarriage16.jpg,/static/Category_learning/Stimuli/Experimental_stims/patio lounge chair/Lounge_Chair_with_Pillow.jpg,0.0,patio lounge chair,baby carriage,40.0,80.0,patio lounge chair6,baby carriage1,40.0,100.0,0.0,138.957,0.457,,
459,,confirmation,,html-keyboard-response,459,651561,0.0-1.0-92.0-0.0-1.0-0.0,0,0,96511,,,,,,90.0,,,,,,,,,,,,,,,,,,,,,,,,,,,,,,,,140.0,1.043,,
460,,isi,,html-keyboard-response,460,653566,0.0-1.0-92.0-0.0-2.0,0,0,96511,,,,,,,,,,,,,,,,,,,,,,,,,,,,,,,,,,,,,,142.0,2.0,,
461,,feedback,,html-keyboard-response,461,654570,0.0-1.0-92.0-0.0-3.0-0.0,0,0,96511,,,,,,90.0,,,,,,,,,,,,,,,,,,,,,,,,,,,,,,,,143.0,1.0,,
462,,iti,,html-keyboard-response,462,658073,0.0-1.0-92.0-0.0-5.0,0,0,96511,,,,,,,,,,,,,,,,,,,,,,,,,,,,,,,,,,,,,,146.5,3.5,,
463,,choice,,html-keyboard-response,463,658852,0.0-1.0-93.0-0.0-0.0,0,0,96511,,776.0,,,68.0,91.0,91.0,1000.0,2000.0,0.0,2.0,0.0,40-80,,0.0,patio lounge chair,bowl,40.0,80.0,patio lounge chair10,bowl2,20.0,100.0,51831.jpg,AMIXBOWL2.jpg,/static/Category_learning/Stimuli/Experimental_stims/patio lounge chair/51831.jpg,/static/Category_learning/Stimuli/Experimental_stims/bowl/AMIXBOWL2.jpg,1.0,patio lounge chair,bowl,40.0,80.0,patio lounge chair10,bowl2,20.0,100.0,0.0,147.276,0.776,,
464,,confirmation,,html-keyboard-response,464,659583,0.0-1.0-93.0-0.0-1.0-0.0,0,0,96511,,,,,,91.0,,,,,,,,,,,,,,,,,,,,,,,,,,,,,,,,148.0,0.724,,
465,,isi,,html-keyboard-response,465,660591,0.0-1.0-93.0-0.0-2.0,0,0,96511,,,,,,,,,,,,,,,,,,,,,,,,,,,,,,,,,,,,,,149.0,1.0,,
466,,feedback,,html-keyboard-response,466,661598,0.0-1.0-93.0-0.0-3.0-0.0,0,0,96511,,,,,,91.0,,,,,,,,,,,,,,,,,,,,,,,,,,,,,,,,150.0,1.0,,
467,,iti,,html-keyboard-response,467,663604,0.0-1.0-93.0-0.0-5.0,0,0,96511,,,,,,,,,,,,,,,,,,,,,,,,,,,,,,,,,,,,,,152.0,2.0,,
468,,choice,,html-keyboard-response,468,664220,0.0-1.0-94.0-0.0-0.0,0,0,96511,,613.0,,,75.0,92.0,92.0,1500.0,1500.0,0.0,2.0,0.0,60-80,,0.0,tent,dresser,60.0,80.0,tent12,dresser10,40.0,60.0,31316-AZU_m.jpg,ADRESSE14.jpg,/static/Category_learning/Stimuli/Experimental_stims/tent/31316-AZU_m.jpg,/static/Category_learning/Stimuli/Experimental_stims/dresser/ADRESSE14.jpg,0.0,dresser,tent,80.0,60.0,dresser10,tent12,60.0,40.0,0.0,152.613,0.613,,
469,,confirmation,,html-keyboard-response,469,665113,0.0-1.0-94.0-0.0-1.0-0.0,0,0,96511,,,,,,92.0,,,,,,,,,,,,,,,,,,,,,,,,,,,,,,,,153.5,0.887,,
470,,isi,,html-keyboard-response,470,666616,0.0-1.0-94.0-0.0-2.0,0,0,96511,,,,,,,,,,,,,,,,,,,,,,,,,,,,,,,,,,,,,,155.0,1.5,,
471,,feedback,,html-keyboard-response,471,667621,0.0-1.0-94.0-0.0-3.0-0.0,0,0,96511,,,,,,92.0,,,,,,,,,,,,,,,,,,,,,,,,,,,,,,,,156.0,1.0,,
472,,iti,,html-keyboard-response,472,669124,0.0-1.0-94.0-0.0-5.0,0,0,96511,,,,,,,,,,,,,,,,,,,,,,,,,,,,,,,,,,,,,,157.5,1.5,,
473,,choice,,html-keyboard-response,473,669823,0.0-1.0-95.0-0.0-0.0,0,0,96511,,696.0,,,68.0,93.0,93.0,1000.0,1000.0,0.0,2.0,1.0,60-60,1.0,,telescope,telescope,60.0,60.0,telescope2,telescope4,60.0,60.0,Brass-telescope-60700.jpg,TELESCOPE_BLACK_GOOD_SMALL.jpg,/static/Category_learning/Stimuli/Experimental_stims/telescope/Brass-telescope-60700.jpg,/static/Category_learning/Stimuli/Experimental_stims/telescope/TELESCOPE_BLACK_GOOD_SMALL.jpg,1.0,telescope,telescope,60.0,60.0,telescope2,telescope4,60.0,60.0,0.0,158.196,0.696,,
474,,confirmation,,html-keyboard-response,474,670634,0.0-1.0-95.0-0.0-1.0-0.0,0,0,96511,,,,,,93.0,,,,,,,,,,,,,,,,,,,,,,,,,,,,,,,,159.0,0.804,,
475,,isi,,html-keyboard-response,475,671641,0.0-1.0-95.0-0.0-2.0,0,0,96511,,,,,,,,,,,,,,,,,,,,,,,,,,,,,,,,,,,,,,160.0,1.0,,
476,,feedback,,html-keyboard-response,476,672648,0.0-1.0-95.0-0.0-3.0-0.0,0,0,96511,,,,,,93.0,,,,,,,,,,,,,,,,,,,,,,,,,,,,,,,,161.0,1.0,,
477,,iti,,html-keyboard-response,477,673652,0.0-1.0-95.0-0.0-5.0,0,0,96511,,,,,,,,,,,,,,,,,,,,,,,,,,,,,,,,,,,,,,162.0,1.0,,
478,,choice,,html-keyboard-response,478,674295,0.0-1.0-96.0-0.0-0.0,0,0,96511,,640.0,,,75.0,94.0,94.0,1500.0,1000.0,0.0,2.0,0.0,40-80,,0.0,necklace,fan,40.0,80.0,necklace5,fan9,60.0,80.0,necklascenew08.jpg,FT-40A.jpg,/static/Category_learning/Stimuli/Experimental_stims/necklace/necklascenew08.jpg,/static/Category_learning/Stimuli/Experimental_stims/fan/FT-40A.jpg,0.0,fan,necklace,80.0,40.0,fan9,necklace5,80.0,60.0,0.0,162.64,0.64,,
479,,confirmation,,html-keyboard-response,479,675161,0.0-1.0-96.0-0.0-1.0-0.0,0,0,96511,,,,,,94.0,,,,,,,,,,,,,,,,,,,,,,,,,,,,,,,,163.5,0.86,,
480,,isi,,html-keyboard-response,480,676665,0.0-1.0-96.0-0.0-2.0,0,0,96511,,,,,,,,,,,,,,,,,,,,,,,,,,,,,,,,,,,,,,165.0,1.5,,
481,,feedback,,html-keyboard-response,481,677668,0.0-1.0-96.0-0.0-3.0-0.0,0,0,96511,,,,,,94.0,,,,,,,,,,,,,,,,,,,,,,,,,,,,,,,,166.0,1.0,,
482,,iti,,html-keyboard-response,482,678670,0.0-1.0-96.0-0.0-5.0,0,0,96511,,,,,,,,,,,,,,,,,,,,,,,,,,,,,,,,,,,,,,167.0,1.0,,
483,,choice,,html-keyboard-response,483,679512,0.0-1.0-97.0-0.0-0.0,0,0,96511,,839.0,,,68.0,95.0,95.0,1000.0,1500.0,0.0,2.0,1.0,40-40,1.0,,patio lounge chair,patio lounge chair,40.0,40.0,patio lounge chair6,patio lounge chair10,40.0,20.0,Lounge_Chair_with_Pillow.jpg,51831.jpg,/static/Category_learning/Stimuli/Experimental_stims/patio lounge chair/Lounge_Chair_with_Pillow.jpg,/static/Category_learning/Stimuli/Experimental_stims/patio lounge chair/51831.jpg,1.0,patio lounge chair,patio lounge chair,40.0,40.0,patio lounge chair6,patio lounge chair10,40.0,20.0,0.0,167.839,0.839,,
484,,confirmation,,html-keyboard-response,484,680180,0.0-1.0-97.0-0.0-1.0-0.0,0,0,96511,,,,,,95.0,,,,,,,,,,,,,,,,,,,,,,,,,,,,,,,,168.5,0.661,,
485,,isi,,html-keyboard-response,485,681183,0.0-1.0-97.0-0.0-2.0,0,0,96511,,,,,,,,,,,,,,,,,,,,,,,,,,,,,,,,,,,,,,169.5,1.0,,
486,,feedback,,html-keyboard-response,486,682191,0.0-1.0-97.0-0.0-3.0-0.0,0,0,96511,,,,,,95.0,,,,,,,,,,,,,,,,,,,,,,,,,,,,,,,,170.5,1.0,,
487,,iti,,html-keyboard-response,487,683694,0.0-1.0-97.0-0.0-5.0,0,0,96511,,,,,,,,,,,,,,,,,,,,,,,,,,,,,,,,,,,,,,172.0,1.5,,
488,,choice,,html-keyboard-response,488,684226,0.0-1.0-98.0-0.0-0.0,0,0,96511,,529.0,,,68.0,96.0,96.0,2000.0,3500.0,0.0,2.0,0.0,60-60,,,train,watch,60.0,60.0,train10,watch5,60.0,60.0,train3.jpg,B000GB0Q2K.01-A4LKQQKJ91IUZ._AA280_SCLZZZZZZZ_V66976251_.jpg,/static/Category_learning/Stimuli/Experimental_stims/train/train3.jpg,/static/Category_learning/Stimuli/Experimental_stims/watch/B000GB0Q2K.01-A4LKQQKJ91IUZ._AA280_SCLZZZZZZZ_V66976251_.jpg,1.0,train,watch,60.0,60.0,train10,watch5,60.0,60.0,0.0,172.529,0.529,,
489,,confirmation,,html-keyboard-response,489,685203,0.0-1.0-98.0-0.0-1.0-0.0,0,0,96511,,,,,,96.0,,,,,,,,,,,,,,,,,,,,,,,,,,,,,,,,173.5,0.971,,
490,,isi,,html-keyboard-response,490,687210,0.0-1.0-98.0-0.0-2.0,0,0,96511,,,,,,,,,,,,,,,,,,,,,,,,,,,,,,,,,,,,,,175.5,2.0,,
491,,feedback,,html-keyboard-response,491,688218,0.0-1.0-98.0-0.0-3.0-0.0,0,0,96511,,,,,,96.0,,,,,,,,,,,,,,,,,,,,,,,,,,,,,,,,176.5,1.0,,
492,,iti,,html-keyboard-response,492,691722,0.0-1.0-98.0-0.0-5.0,0,0,96511,,,,,,,,,,,,,,,,,,,,,,,,,,,,,,,,,,,,,,180.0,3.5,,
493,,choice,,html-keyboard-response,493,692266,0.0-1.0-99.0-0.0-0.0,0,0,96511,,541.0,,,68.0,97.0,97.0,1000.0,1500.0,0.0,2.0,0.0,40-60,,0.0,small table,stool,40.0,60.0,small table11,stool14,40.0,40.0,ATABLE83.jpg,hjscott-sbs-b-bar-stool.jpg,/static/Category_learning/Stimuli/Experimental_stims/small table/ATABLE83.jpg,/static/Category_learning/Stimuli/Experimental_stims/stool/hjscott-sbs-b-bar-stool.jpg,1.0,small table,stool,40.0,60.0,small table11,stool14,40.0,40.0,0.0,180.541,0.541,,
494,,confirmation,,html-keyboard-response,494,693232,0.0-1.0-99.0-0.0-1.0-0.0,0,0,96511,,,,,,97.0,,,,,,,,,,,,,,,,,,,,,,,,,,,,,,,,181.5,0.959,,
495,,isi,,html-keyboard-response,495,694242,0.0-1.0-99.0-0.0-2.0,0,0,96511,,,,,,,,,,,,,,,,,,,,,,,,,,,,,,,,,,,,,,182.5,1.0,,
