,success,ttype,start_time,trial_type,trial_index,time_elapsed,internal_node_id,warning,missed_checkup,PID,view_history,rt,responses,repeat_instructions,key_press,index,trial_num,isi,iti,is_practice,block,old_trial,pair_type,within_category,high_cat_on_left,left_category,right_category,left_category_value,right_category_value,left_exemplar,right_exemplar,left_exemplar_value,right_exemplar_value,left_img,right_img,left_img_path,right_img_path,left_chosen,chosen_category,unchosen_category,chosen_category_value,unchosen_category_value,chosen_exemplar,unchosen_exemplar,chosen_exemplar_value,unchosen_exemplar_value,no_response,onset,duration,end_practice,total_bonus_tally,category,category_group_value,category_value_response,did_not_enter_response
0,True,full_screen,d06032022hr1946,fullscreen,0,8692,0.0-0.0,0,0,82892,,,,,,,,,,,,,,,,,,,,,,,,,,,,,,,,,,,,,,,,,,,,,
1,,category_learning_instructions,,instructions,1,99284,0.0-1.0-0.0-0.0,0,0,82892,"[{""page_index"":0,""viewing_time"":22852},{""page_index"":1,""viewing_time"":34493},{""page_index"":2,""viewing_time"":7421},{""page_index"":3,""viewing_time"":8696},{""page_index"":4,""viewing_time"":9574},{""page_index"":5,""viewing_time"":5554},{""page_index"":6,""viewing_time"":1998}]",90589.0,,,,,,,,,,,,,,,,,,,,,,,,,,,,,,,,,,,,,,,,,,,
2,,category_learning_comprehension_check,,survey-multi-choice,2,117592,0.0-1.0-0.0-1.0,0,0,82892,,18299.0,"{""Q0"":""True"",""Q1"":""False"",""Q2"":""Stay the same"",""Q3"":""D for left and K for right""}",1.0,,,,,,,,,,,,,,,,,,,,,,,,,,,,,,,,,,,,,,,,,
3,,missed_instruction_checkup,,html-keyboard-response,3,120022,0.0-1.0-0.0-2.0-0.0,0,0,82892,,2423.0,,,68.0,,,,,,,,,,,,,,,,,,,,,,,,,,,,,,,,,,,,,,,,
4,,category_learning_instructions,,instructions,4,127768,0.0-1.0-0.1-0.1,0,0,82892,"[{""page_index"":0,""viewing_time"":2509},{""page_index"":1,""viewing_time"":1296},{""page_index"":2,""viewing_time"":727},{""page_index"":3,""viewing_time"":856},{""page_index"":4,""viewing_time"":1082},{""page_index"":5,""viewing_time"":691},{""page_index"":6,""viewing_time"":580}]",7742.0,,,,,,,,,,,,,,,,,,,,,,,,,,,,,,,,,,,,,,,,,,,
5,,category_learning_comprehension_check,,survey-multi-choice,5,135977,0.0-1.0-0.1-1.1,0,0,82892,,8198.0,"{""Q0"":""True"",""Q1"":""True"",""Q2"":""Stay the same"",""Q3"":""D for left and K for right""}",0.0,,,,,,,,,,,,,,,,,,,,,,,,,,,,,,,,,,,,,,,,,
6,,,,html-keyboard-response,6,138676,0.0-1.0-1.0,0,0,82892,,2695.0,,,68.0,,,,,,,,,,,,,,,,,,,,,,,,,,,,,,,,,,,,,,,,
7,,choice,,html-keyboard-response,7,139435,0.0-1.0-2.0-0.0-0.0,0,0,82892,,752.0,,,68.0,0.0,0.0,1500.0,1000.0,1.0,0.0,0.0,20-80,,0.0,bagel,dumbbell,20.0,80.0,bagel1,dumbbell1,0.0,80.0,bagels_pumpernickel_large.jpg,31B64EN68AL._AA280_.jpg,/static/Category_learning/Stimuli/Practice_stims/bagel/bagels_pumpernickel_large.jpg,/static/Category_learning/Stimuli/Practice_stims/dumbbell/31B64EN68AL._AA280_.jpg,1.0,bagel,dumbbell,20.0,80.0,bagel1,dumbbell1,0.0,80.0,0.0,0.752,0.752,,,,,,
8,,confirmation,,html-keyboard-response,8,140193,0.0-1.0-2.0-0.0-1.0-0.0,0,0,82892,,,,,,0.0,,,,,,,,,,,,,,,,,,,,,,,,,,,,,,,,1.5,0.748,,,,,,
9,,isi,,html-keyboard-response,9,141699,0.0-1.0-2.0-0.0-2.0,0,0,82892,,,,,,,,,,,,,,,,,,,,,,,,,,,,,,,,,,,,,,3.0,1.5,,,,,,
10,,feedback,,html-keyboard-response,10,142704,0.0-1.0-2.0-0.0-3.0-0.0,0,0,82892,,,,,,0.0,,,,,,,,,,,,,,,,,,,,,,,,,,,,,,,,4.0,1.0,,,,,,
11,,iti,,html-keyboard-response,11,143707,0.0-1.0-2.0-0.0-5.0,0,0,82892,,,,,,,,,,,,,,,,,,,,,,,,,,,,,,,,,,,,,,5.0,1.0,,,,,,
12,,choice,,html-keyboard-response,12,144200,0.0-1.0-3.0-0.0-0.0,0,0,82892,,488.0,,,75.0,1.0,1.0,3000.0,1500.0,1.0,0.0,0.0,20-40,,1.0,calculator,bagel,40.0,20.0,calculator2,bagel2,20.0,20.0,22829064.thl.jpg,bagels_cinnraisin_large.jpg,/static/Category_learning/Stimuli/Practice_stims/calculator/22829064.thl.jpg,/static/Category_learning/Stimuli/Practice_stims/bagel/bagels_cinnraisin_large.jpg,0.0,bagel,calculator,20.0,40.0,bagel2,calculator2,20.0,20.0,0.0,5.488,0.488,,,,,,
13,,confirmation,,html-keyboard-response,13,145220,0.0-1.0-3.0-0.0-1.0-0.0,0,0,82892,,,,,,1.0,,,,,,,,,,,,,,,,,,,,,,,,,,,,,,,,6.5,1.012,,,,,,
14,,isi,,html-keyboard-response,14,148227,0.0-1.0-3.0-0.0-2.0,0,0,82892,,,,,,,,,,,,,,,,,,,,,,,,,,,,,,,,,,,,,,9.5,3.0,,,,,,
15,,feedback,,html-keyboard-response,15,149235,0.0-1.0-3.0-0.0-3.0-0.0,0,0,82892,,,,,,1.0,,,,,,,,,,,,,,,,,,,,,,,,,,,,,,,,10.5,1.0,,,,,,
16,,iti,,html-keyboard-response,16,150739,0.0-1.0-3.0-0.0-5.0,0,0,82892,,,,,,,,,,,,,,,,,,,,,,,,,,,,,,,,,,,,,,12.0,1.5,,,,,,
17,,choice,,html-keyboard-response,17,151224,0.0-1.0-4.0-0.0-0.0,0,0,82892,,479.0,,,68.0,2.0,2.0,2000.0,3000.0,1.0,0.0,0.0,60-80,,0.0,clock,dumbbell,60.0,80.0,clock2,dumbbell2,60.0,100.0,26373355.thl.jpg,31K8MR6TMBL._SS500_.jpg,/static/Category_learning/Stimuli/Practice_stims/clock/26373355.thl.jpg,/static/Category_learning/Stimuli/Practice_stims/dumbbell/31K8MR6TMBL._SS500_.jpg,1.0,clock,dumbbell,60.0,80.0,clock2,dumbbell2,60.0,100.0,0.0,12.479,0.479,,,,,,
18,,confirmation,,html-keyboard-response,18,152251,0.0-1.0-4.0-0.0-1.0-0.0,0,0,82892,,,,,,2.0,,,,,,,,,,,,,,,,,,,,,,,,,,,,,,,,13.5,1.021,,,,,,
19,,isi,,html-keyboard-response,19,154259,0.0-1.0-4.0-0.0-2.0,0,0,82892,,,,,,,,,,,,,,,,,,,,,,,,,,,,,,,,,,,,,,15.5,2.0,,,,,,
20,,feedback,,html-keyboard-response,20,155267,0.0-1.0-4.0-0.0-3.0-0.0,0,0,82892,,,,,,2.0,,,,,,,,,,,,,,,,,,,,,,,,,,,,,,,,16.5,1.0,,,,,,
21,,iti,,html-keyboard-response,21,158270,0.0-1.0-4.0-0.0-5.0,0,0,82892,,,,,,,,,,,,,,,,,,,,,,,,,,,,,,,,,,,,,,19.5,3.0,,,,,,
22,,choice,,html-keyboard-response,22,158822,0.0-1.0-5.0-0.0-0.0,0,0,82892,,547.0,,,75.0,3.0,3.0,1000.0,2000.0,1.0,0.0,0.0,40-80,,0.0,calculator,clock,40.0,60.0,calculator1,clock1,40.0,40.0,22829184.thl.jpg,Aalarmclock2.jpg,/static/Category_learning/Stimuli/Practice_stims/calculator/22829184.thl.jpg,/static/Category_learning/Stimuli/Practice_stims/clock/Aalarmclock2.jpg,0.0,clock,calculator,60.0,40.0,clock1,calculator1,40.0,40.0,0.0,20.047,0.547,,,,,,
23,,confirmation,,html-keyboard-response,23,159780,0.0-1.0-5.0-0.0-1.0-0.0,0,0,82892,,,,,,3.0,,,,,,,,,,,,,,,,,,,,,,,,,,,,,,,,21.0,0.953,,,,,,
24,,isi,,html-keyboard-response,24,160788,0.0-1.0-5.0-0.0-2.0,0,0,82892,,,,,,,,,,,,,,,,,,,,,,,,,,,,,,,,,,,,,,22.0,1.0,,,,,,
25,,feedback,,html-keyboard-response,25,161795,0.0-1.0-5.0-0.0-3.0-0.0,0,0,82892,,,,,,3.0,,,,,,,,,,,,,,,,,,,,,,,,,,,,,,,,23.0,1.0,,,,,,
26,,iti,,html-keyboard-response,26,163801,0.0-1.0-5.0-0.0-5.0,0,0,82892,,,,,,,,,,,,,,,,,,,,,,,,,,,,,,,,,,,,,,25.0,2.0,,,,,,
27,,choice,,html-keyboard-response,27,164431,0.0-1.0-6.0-0.0-0.0,0,0,82892,,626.0,,,68.0,4.0,4.0,2500.0,2500.0,1.0,0.0,0.0,20-60,,1.0,dumbbell,bagel,80.0,20.0,dumbbell3,bagel3,100.0,40.0,41K7QVRX50L._SS500_.jpg,photo-169.jpg,/static/Category_learning/Stimuli/Practice_stims/dumbbell/41K7QVRX50L._SS500_.jpg,/static/Category_learning/Stimuli/Practice_stims/bagel/photo-169.jpg,1.0,dumbbell,bagel,80.0,20.0,dumbbell3,bagel3,100.0,40.0,0.0,25.626,0.626,1.0,,,,,
28,,confirmation,,html-keyboard-response,28,165310,0.0-1.0-6.0-0.0-1.0-0.0,0,0,82892,,,,,,4.0,,,,,,,,,,,,,,,,,,,,,,,,,,,,,,,,26.5,0.874,,,,,,
29,,isi,,html-keyboard-response,29,167817,0.0-1.0-6.0-0.0-2.0,0,0,82892,,,,,,,,,,,,,,,,,,,,,,,,,,,,,,,,,,,,,,29.0,2.5,,,,,,
30,,feedback,,html-keyboard-response,30,168824,0.0-1.0-6.0-0.0-3.0-0.0,0,0,82892,,,,,,4.0,,,,,,,,,,,,,,,,,,,,,,,,,,,,,,,,30.0,1.0,,,,,,
31,,iti,,html-keyboard-response,31,171332,0.0-1.0-6.0-0.0-5.0,0,0,82892,,,,,,,,,,,,,,,,,,,,,,,,,,,,,,,,,,,,,,32.5,2.5,,,,,,
32,,practice_over,,html-keyboard-response,32,177838,0.0-1.0-6.0-0.0-6.0-0.0,0,0,82892,,6503.0,,,68.0,4.0,,,,,,,,,,,,,,,,,,,,,,,,,,,,,,,,,,,,,,,
33,,start_run,,html-keyboard-response,33,179816,0.0-1.0-6.0-0.0-6.0-1.0,0,0,82892,,1975.0,,,84.0,,,,,,,,,,,,,,,,,,,,,,,,,,,,,,,,,,,,,,,,
34,,choice,,html-keyboard-response,34,180532,0.0-1.0-7.0-0.0-0.0,0,0,82892,,711.0,,,68.0,5.0,5.0,3000.0,2000.0,0.0,1.0,0.0,40-40,,,license plate,hammer,40.0,40.0,license plate13,hammer11,60.0,60.0,usa-rj-9517.jpg,8oz-hammer-copy.jpg,/static/Category_learning/Stimuli/Experimental_stims/license plate/usa-rj-9517.jpg,/static/Category_learning/Stimuli/Experimental_stims/hammer/8oz-hammer-copy.jpg,1.0,license plate,hammer,40.0,40.0,license plate13,hammer11,60.0,60.0,0.0,0.711,0.711,,,,,,
35,,confirmation,,html-keyboard-response,35,181327,0.0-1.0-7.0-0.0-1.0-0.0,0,0,82892,,,,,,5.0,,,,,,,,,,,,,,,,,,,,,,,,,,,,,,,,1.5,0.789,,,,,,
36,,isi,,html-keyboard-response,36,184331,0.0-1.0-7.0-0.0-2.0,0,0,82892,,,,,,,,,,,,,,,,,,,,,,,,,,,,,,,,,,,,,,4.5,3.0,,,,,,
37,,feedback,,html-keyboard-response,37,185336,0.0-1.0-7.0-0.0-3.0-0.0,0,0,82892,,,,,,5.0,,,,,,,,,,,,,,,,,,,,,,,,,,,,,,,,5.5,1.0,,,,,,
38,,iti,,html-keyboard-response,38,187343,0.0-1.0-7.0-0.0-5.0,0,0,82892,,,,,,,,,,,,,,,,,,,,,,,,,,,,,,,,,,,,,,7.5,2.0,,,,,,
39,,choice,,html-keyboard-response,39,187996,0.0-1.0-8.0-0.0-0.0,0,0,82892,,648.0,,,75.0,6.0,6.0,1000.0,1000.0,0.0,1.0,0.0,20-60,,0.0,flashlight,poker card,20.0,60.0,flashlight9,poker card6,40.0,80.0,new06.jpg,22864212.thl.jpg,/static/Category_learning/Stimuli/Experimental_stims/flashlight/new06.jpg,/static/Category_learning/Stimuli/Experimental_stims/poker card/22864212.thl.jpg,0.0,poker card,flashlight,60.0,20.0,poker card6,flashlight9,80.0,40.0,0.0,8.148,0.648,,,,,,
40,,confirmation,,html-keyboard-response,40,188851,0.0-1.0-8.0-0.0-1.0-0.0,0,0,82892,,,,,,6.0,,,,,,,,,,,,,,,,,,,,,,,,,,,,,,,,9.0,0.852,,,,,,
41,,isi,,html-keyboard-response,41,189858,0.0-1.0-8.0-0.0-2.0,0,0,82892,,,,,,,,,,,,,,,,,,,,,,,,,,,,,,,,,,,,,,10.0,1.0,,,,,,
42,,feedback,,html-keyboard-response,42,190865,0.0-1.0-8.0-0.0-3.0-0.0,0,0,82892,,,,,,6.0,,,,,,,,,,,,,,,,,,,,,,,,,,,,,,,,11.0,1.0,,,,,,
43,,iti,,html-keyboard-response,43,191868,0.0-1.0-8.0-0.0-5.0,0,0,82892,,,,,,,,,,,,,,,,,,,,,,,,,,,,,,,,,,,,,,12.0,1.0,,,,,,
44,,choice,,html-keyboard-response,44,192665,0.0-1.0-9.0-0.0-0.0,0,0,82892,,793.0,,,75.0,7.0,7.0,1500.0,3500.0,0.0,1.0,0.0,60-60,,,seashell,nail polish,60.0,60.0,seashell7,nail polish6,60.0,60.0,seashell34.jpg,127_t.jpg,/static/Category_learning/Stimuli/Experimental_stims/seashell/seashell34.jpg,/static/Category_learning/Stimuli/Experimental_stims/nail polish/127_t.jpg,0.0,nail polish,seashell,60.0,60.0,nail polish6,seashell7,60.0,60.0,0.0,12.793,0.793,,,,,,
45,,confirmation,,html-keyboard-response,45,193377,0.0-1.0-9.0-0.0-1.0-0.0,0,0,82892,,,,,,7.0,,,,,,,,,,,,,,,,,,,,,,,,,,,,,,,,13.5,0.707,,,,,,
46,,isi,,html-keyboard-response,46,194880,0.0-1.0-9.0-0.0-2.0,0,0,82892,,,,,,,,,,,,,,,,,,,,,,,,,,,,,,,,,,,,,,15.0,1.5,,,,,,
47,,feedback,,html-keyboard-response,47,195887,0.0-1.0-9.0-0.0-3.0-0.0,0,0,82892,,,,,,7.0,,,,,,,,,,,,,,,,,,,,,,,,,,,,,,,,16.0,1.0,,,,,,
48,,iti,,html-keyboard-response,48,199395,0.0-1.0-9.0-0.0-5.0,0,0,82892,,,,,,,,,,,,,,,,,,,,,,,,,,,,,,,,,,,,,,19.5,3.5,,,,,,
49,,choice,,html-keyboard-response,49,200018,0.0-1.0-10.0-0.0-0.0,0,0,82892,,611.0,,,75.0,8.0,8.0,1500.0,1000.0,0.0,1.0,0.0,40-80,,1.0,telescope,hat,80.0,40.0,telescope3,hat5,100.0,60.0,41V67SB5NJL._SS500_.jpg,AREDHAT4.jpg,/static/Category_learning/Stimuli/Experimental_stims/telescope/41V67SB5NJL._SS500_.jpg,/static/Category_learning/Stimuli/Experimental_stims/hat/AREDHAT4.jpg,0.0,hat,telescope,40.0,80.0,hat5,telescope3,60.0,100.0,0.0,20.111,0.611,,,,,,
50,,confirmation,,html-keyboard-response,50,200911,0.0-1.0-10.0-0.0-1.0-0.0,0,0,82892,,,,,,8.0,,,,,,,,,,,,,,,,,,,,,,,,,,,,,,,,21.0,0.889,,,,,,
51,,isi,,html-keyboard-response,51,202419,0.0-1.0-10.0-0.0-2.0,0,0,82892,,,,,,,,,,,,,,,,,,,,,,,,,,,,,,,,,,,,,,22.5,1.5,,,,,,
52,,feedback,,html-keyboard-response,52,203426,0.0-1.0-10.0-0.0-3.0-0.0,0,0,82892,,,,,,8.0,,,,,,,,,,,,,,,,,,,,,,,,,,,,,,,,23.5,1.0,,,,,,
53,,iti,,html-keyboard-response,53,204430,0.0-1.0-10.0-0.0-5.0,0,0,82892,,,,,,,,,,,,,,,,,,,,,,,,,,,,,,,,,,,,,,24.5,1.0,,,,,,
54,,choice,,html-keyboard-response,54,205132,0.0-1.0-11.0-0.0-0.0,0,0,82892,,698.0,,,68.0,9.0,9.0,2000.0,3500.0,0.0,1.0,0.0,40-60,,1.0,power strip,makeup compact,60.0,40.0,power strip12,makeup compact1,80.0,60.0,41CXESEH1TL._AA262_.jpg,P190250_hero.jpg,/static/Category_learning/Stimuli/Experimental_stims/power strip/41CXESEH1TL._AA262_.jpg,/static/Category_learning/Stimuli/Experimental_stims/makeup compact/P190250_hero.jpg,1.0,power strip,makeup compact,60.0,40.0,power strip12,makeup compact1,80.0,60.0,0.0,25.198,0.698,,,,,,
55,,confirmation,,html-keyboard-response,55,205938,0.0-1.0-11.0-0.0-1.0-0.0,0,0,82892,,,,,,9.0,,,,,,,,,,,,,,,,,,,,,,,,,,,,,,,,26.0,0.802,,,,,,
56,,isi,,html-keyboard-response,56,207944,0.0-1.0-11.0-0.0-2.0,0,0,82892,,,,,,,,,,,,,,,,,,,,,,,,,,,,,,,,,,,,,,28.0,2.0,,,,,,
57,,feedback,,html-keyboard-response,57,208951,0.0-1.0-11.0-0.0-3.0-0.0,0,0,82892,,,,,,9.0,,,,,,,,,,,,,,,,,,,,,,,,,,,,,,,,29.0,1.0,,,,,,
58,,iti,,html-keyboard-response,58,212456,0.0-1.0-11.0-0.0-5.0,0,0,82892,,,,,,,,,,,,,,,,,,,,,,,,,,,,,,,,,,,,,,32.5,3.5,,,,,,
59,,choice,,html-keyboard-response,59,212926,0.0-1.0-12.0-0.0-0.0,0,0,82892,,464.0,,,75.0,10.0,10.0,1500.0,3500.0,0.0,1.0,1.0,40-60,0.0,,hat,power strip,40.0,60.0,hat5,power strip12,60.0,80.0,AREDHAT4.jpg,41CXESEH1TL._AA262_.jpg,/static/Category_learning/Stimuli/Experimental_stims/hat/AREDHAT4.jpg,/static/Category_learning/Stimuli/Experimental_stims/power strip/41CXESEH1TL._AA262_.jpg,0.0,power strip,hat,60.0,40.0,power strip12,hat5,80.0,60.0,0.0,32.964,0.464,,,,,,
60,,confirmation,,html-keyboard-response,60,213969,0.0-1.0-12.0-0.0-1.0-0.0,0,0,82892,,,,,,10.0,,,,,,,,,,,,,,,,,,,,,,,,,,,,,,,,34.0,1.036,,,,,,
61,,isi,,html-keyboard-response,61,215473,0.0-1.0-12.0-0.0-2.0,0,0,82892,,,,,,,,,,,,,,,,,,,,,,,,,,,,,,,,,,,,,,35.5,1.5,,,,,,
62,,feedback,,html-keyboard-response,62,216480,0.0-1.0-12.0-0.0-3.0-0.0,0,0,82892,,,,,,10.0,,,,,,,,,,,,,,,,,,,,,,,,,,,,,,,,36.5,1.0,,,,,,
63,,iti,,html-keyboard-response,63,219985,0.0-1.0-12.0-0.0-5.0,0,0,82892,,,,,,,,,,,,,,,,,,,,,,,,,,,,,,,,,,,,,,40.0,3.5,,,,,,
64,,choice,,html-keyboard-response,64,220643,0.0-1.0-13.0-0.0-0.0,0,0,82892,,654.0,,,75.0,11.0,11.0,1500.0,1000.0,0.0,1.0,1.0,60-60,0.0,,nail polish,poker card,60.0,60.0,nail polish6,poker card6,60.0,80.0,127_t.jpg,22864212.thl.jpg,/static/Category_learning/Stimuli/Experimental_stims/nail polish/127_t.jpg,/static/Category_learning/Stimuli/Experimental_stims/poker card/22864212.thl.jpg,0.0,poker card,nail polish,60.0,60.0,poker card6,nail polish6,80.0,60.0,0.0,40.654,0.654,,,,,,
65,,confirmation,,html-keyboard-response,65,221493,0.0-1.0-13.0-0.0-1.0-0.0,0,0,82892,,,,,,11.0,,,,,,,,,,,,,,,,,,,,,,,,,,,,,,,,41.5,0.846,,,,,,
66,,isi,,html-keyboard-response,66,223001,0.0-1.0-13.0-0.0-2.0,0,0,82892,,,,,,,,,,,,,,,,,,,,,,,,,,,,,,,,,,,,,,43.0,1.5,,,,,,
67,,feedback,,html-keyboard-response,67,224006,0.0-1.0-13.0-0.0-3.0-0.0,0,0,82892,,,,,,11.0,,,,,,,,,,,,,,,,,,,,,,,,,,,,,,,,44.0,1.0,,,,,,
68,,iti,,html-keyboard-response,68,225013,0.0-1.0-13.0-0.0-5.0,0,0,82892,,,,,,,,,,,,,,,,,,,,,,,,,,,,,,,,,,,,,,45.0,1.0,,,,,,
69,,choice,,html-keyboard-response,69,225650,0.0-1.0-14.0-0.0-0.0,0,0,82892,,634.0,,,75.0,12.0,12.0,2000.0,1000.0,0.0,1.0,0.0,40-60,,0.0,key chain,sofa,40.0,60.0,key chain13,sofa6,60.0,80.0,Fancy_Liquid_Column_Shape_Key_Ring_with_Floater.jpg,wilkie-sofa-250h-new-cd.jpg,/static/Category_learning/Stimuli/Experimental_stims/key chain/Fancy_Liquid_Column_Shape_Key_Ring_with_Floater.jpg,/static/Category_learning/Stimuli/Experimental_stims/sofa/wilkie-sofa-250h-new-cd.jpg,0.0,sofa,key chain,60.0,40.0,sofa6,key chain13,80.0,60.0,0.0,45.634,0.634,,,,,,
70,,confirmation,,html-keyboard-response,70,226522,0.0-1.0-14.0-0.0-1.0-0.0,0,0,82892,,,,,,12.0,,,,,,,,,,,,,,,,,,,,,,,,,,,,,,,,46.5,0.866,,,,,,
71,,isi,,html-keyboard-response,71,228529,0.0-1.0-14.0-0.0-2.0,0,0,82892,,,,,,,,,,,,,,,,,,,,,,,,,,,,,,,,,,,,,,48.5,2.0,,,,,,
72,,feedback,,html-keyboard-response,72,229536,0.0-1.0-14.0-0.0-3.0-0.0,0,0,82892,,,,,,12.0,,,,,,,,,,,,,,,,,,,,,,,,,,,,,,,,49.5,1.0,,,,,,
73,,iti,,html-keyboard-response,73,230544,0.0-1.0-14.0-0.0-5.0,0,0,82892,,,,,,,,,,,,,,,,,,,,,,,,,,,,,,,,,,,,,,50.5,1.0,,,,,,
74,,choice,,html-keyboard-response,74,231171,0.0-1.0-15.0-0.0-0.0,0,0,82892,,622.0,,,75.0,13.0,13.0,1000.0,1000.0,0.0,1.0,0.0,40-80,,1.0,stool,motorcycle,80.0,40.0,stool7,motorcycle7,80.0,20.0,ASTOOL25.jpg,MotoSmall.jpg,/static/Category_learning/Stimuli/Experimental_stims/stool/ASTOOL25.jpg,/static/Category_learning/Stimuli/Experimental_stims/motorcycle/MotoSmall.jpg,0.0,motorcycle,stool,40.0,80.0,motorcycle7,stool7,20.0,80.0,0.0,51.122,0.622,,,,,,
75,,confirmation,,html-keyboard-response,75,232055,0.0-1.0-15.0-0.0-1.0-0.0,0,0,82892,,,,,,13.0,,,,,,,,,,,,,,,,,,,,,,,,,,,,,,,,52.0,0.878,,,,,,
76,,isi,,html-keyboard-response,76,233062,0.0-1.0-15.0-0.0-2.0,0,0,82892,,,,,,,,,,,,,,,,,,,,,,,,,,,,,,,,,,,,,,53.0,1.0,,,,,,
77,,feedback,,html-keyboard-response,77,234069,0.0-1.0-15.0-0.0-3.0-0.0,0,0,82892,,,,,,13.0,,,,,,,,,,,,,,,,,,,,,,,,,,,,,,,,54.0,1.0,,,,,,
78,,iti,,html-keyboard-response,78,235077,0.0-1.0-15.0-0.0-5.0,0,0,82892,,,,,,,,,,,,,,,,,,,,,,,,,,,,,,,,,,,,,,55.0,1.0,,,,,,
79,,choice,,html-keyboard-response,79,235886,0.0-1.0-16.0-0.0-0.0,0,0,82892,,804.0,,,75.0,14.0,14.0,1500.0,1000.0,0.0,1.0,0.0,40-80,,1.0,tent,hat,80.0,40.0,tent1,hat13,100.0,20.0,Atent8.jpg,Ahatwithfeath.jpg,/static/Category_learning/Stimuli/Experimental_stims/tent/Atent8.jpg,/static/Category_learning/Stimuli/Experimental_stims/hat/Ahatwithfeath.jpg,0.0,hat,tent,40.0,80.0,hat13,tent1,20.0,100.0,0.0,55.804,0.804,,,,,,
80,,confirmation,,html-keyboard-response,80,236587,0.0-1.0-16.0-0.0-1.0-0.0,0,0,82892,,,,,,14.0,,,,,,,,,,,,,,,,,,,,,,,,,,,,,,,,56.5,0.696,,,,,,
81,,isi,,html-keyboard-response,81,238091,0.0-1.0-16.0-0.0-2.0,0,0,82892,,,,,,,,,,,,,,,,,,,,,,,,,,,,,,,,,,,,,,58.0,1.5,,,,,,
82,,feedback,,html-keyboard-response,82,239099,0.0-1.0-16.0-0.0-3.0-0.0,0,0,82892,,,,,,14.0,,,,,,,,,,,,,,,,,,,,,,,,,,,,,,,,59.0,1.0,,,,,,
83,,iti,,html-keyboard-response,83,240107,0.0-1.0-16.0-0.0-5.0,0,0,82892,,,,,,,,,,,,,,,,,,,,,,,,,,,,,,,,,,,,,,60.0,1.0,,,,,,
84,,choice,,html-keyboard-response,84,240701,0.0-1.0-17.0-0.0-0.0,0,0,82892,,589.0,,,75.0,15.0,15.0,2000.0,1000.0,0.0,1.0,0.0,60-80,,0.0,necklace,watch,60.0,80.0,necklace3,watch13,60.0,80.0,26388201.thl.jpg,RS_3104_lrg.jpg,/static/Category_learning/Stimuli/Experimental_stims/necklace/26388201.thl.jpg,/static/Category_learning/Stimuli/Experimental_stims/watch/RS_3104_lrg.jpg,0.0,watch,necklace,80.0,60.0,watch13,necklace3,80.0,60.0,0.0,60.589,0.589,,,,,,
85,,confirmation,,html-keyboard-response,85,241616,0.0-1.0-17.0-0.0-1.0-0.0,0,0,82892,,,,,,15.0,,,,,,,,,,,,,,,,,,,,,,,,,,,,,,,,61.5,0.911,,,,,,
86,,isi,,html-keyboard-response,86,243623,0.0-1.0-17.0-0.0-2.0,0,0,82892,,,,,,,,,,,,,,,,,,,,,,,,,,,,,,,,,,,,,,63.5,2.0,,,,,,
87,,feedback,,html-keyboard-response,87,244630,0.0-1.0-17.0-0.0-3.0-0.0,0,0,82892,,,,,,15.0,,,,,,,,,,,,,,,,,,,,,,,,,,,,,,,,64.5,1.0,,,,,,
88,,iti,,html-keyboard-response,88,245637,0.0-1.0-17.0-0.0-5.0,0,0,82892,,,,,,,,,,,,,,,,,,,,,,,,,,,,,,,,,,,,,,65.5,1.0,,,,,,
89,,choice,,html-keyboard-response,89,246220,0.0-1.0-18.0-0.0-0.0,0,0,82892,,579.0,,,75.0,16.0,16.0,3500.0,1000.0,0.0,1.0,1.0,40-80,0.0,,hat,watch,40.0,80.0,hat13,watch13,20.0,80.0,Ahatwithfeath.jpg,RS_3104_lrg.jpg,/static/Category_learning/Stimuli/Experimental_stims/hat/Ahatwithfeath.jpg,/static/Category_learning/Stimuli/Experimental_stims/watch/RS_3104_lrg.jpg,0.0,watch,hat,80.0,40.0,watch13,hat13,80.0,20.0,0.0,66.079,0.579,,,,,,
90,,confirmation,,html-keyboard-response,90,247147,0.0-1.0-18.0-0.0-1.0-0.0,0,0,82892,,,,,,16.0,,,,,,,,,,,,,,,,,,,,,,,,,,,,,,,,67.0,0.921,,,,,,
91,,isi,,html-keyboard-response,91,250651,0.0-1.0-18.0-0.0-2.0,0,0,82892,,,,,,,,,,,,,,,,,,,,,,,,,,,,,,,,,,,,,,70.5,3.5,,,,,,
92,,feedback,,html-keyboard-response,92,251659,0.0-1.0-18.0-0.0-3.0-0.0,0,0,82892,,,,,,16.0,,,,,,,,,,,,,,,,,,,,,,,,,,,,,,,,71.5,1.0,,,,,,
93,,iti,,html-keyboard-response,93,252667,0.0-1.0-18.0-0.0-5.0,0,0,82892,,,,,,,,,,,,,,,,,,,,,,,,,,,,,,,,,,,,,,72.5,1.0,,,,,,
94,,choice,,html-keyboard-response,94,253140,0.0-1.0-19.0-0.0-0.0,0,0,82892,,469.0,,,75.0,17.0,17.0,3500.0,2000.0,0.0,1.0,0.0,20-20,,,flashlight,bowl,20.0,20.0,flashlight5,bowl12,0.0,20.0,Streamlight-71001-Jr-Flashlight-W-batteries-black-B00018A3CG-L.jpg,Abowl52.jpg,/static/Category_learning/Stimuli/Experimental_stims/flashlight/Streamlight-71001-Jr-Flashlight-W-batteries-black-B00018A3CG-L.jpg,/static/Category_learning/Stimuli/Experimental_stims/bowl/Abowl52.jpg,0.0,bowl,flashlight,20.0,20.0,bowl12,flashlight5,20.0,0.0,0.0,72.969,0.469,,,,,,
95,,confirmation,,html-keyboard-response,95,254182,0.0-1.0-19.0-0.0-1.0-0.0,0,0,82892,,,,,,17.0,,,,,,,,,,,,,,,,,,,,,,,,,,,,,,,,74.0,1.031,,,,,,
96,,isi,,html-keyboard-response,96,257686,0.0-1.0-19.0-0.0-2.0,0,0,82892,,,,,,,,,,,,,,,,,,,,,,,,,,,,,,,,,,,,,,77.5,3.5,,,,,,
97,,feedback,,html-keyboard-response,97,258694,0.0-1.0-19.0-0.0-3.0-0.0,0,0,82892,,,,,,17.0,,,,,,,,,,,,,,,,,,,,,,,,,,,,,,,,78.5,1.0,,,,,,
98,,iti,,html-keyboard-response,98,260699,0.0-1.0-19.0-0.0-5.0,0,0,82892,,,,,,,,,,,,,,,,,,,,,,,,,,,,,,,,,,,,,,80.5,2.0,,,,,,
99,,choice,,html-keyboard-response,99,261408,0.0-1.0-20.0-0.0-0.0,0,0,82892,,705.0,,,68.0,18.0,18.0,1500.0,1500.0,0.0,1.0,1.0,20-40,0.0,,motorcycle,bowl,40.0,20.0,motorcycle7,bowl12,20.0,20.0,MotoSmall.jpg,Abowl52.jpg,/static/Category_learning/Stimuli/Experimental_stims/motorcycle/MotoSmall.jpg,/static/Category_learning/Stimuli/Experimental_stims/bowl/Abowl52.jpg,1.0,motorcycle,bowl,40.0,20.0,motorcycle7,bowl12,20.0,20.0,0.0,81.205,0.705,,,,,,
100,,confirmation,,html-keyboard-response,100,262208,0.0-1.0-20.0-0.0-1.0-0.0,0,0,82892,,,,,,18.0,,,,,,,,,,,,,,,,,,,,,,,,,,,,,,,,82.0,0.795,,,,,,
101,,isi,,html-keyboard-response,101,263713,0.0-1.0-20.0-0.0-2.0,0,0,82892,,,,,,,,,,,,,,,,,,,,,,,,,,,,,,,,,,,,,,83.5,1.5,,,,,,
102,,feedback,,html-keyboard-response,102,264721,0.0-1.0-20.0-0.0-3.0-0.0,0,0,82892,,,,,,18.0,,,,,,,,,,,,,,,,,,,,,,,,,,,,,,,,84.5,1.0,,,,,,
103,,iti,,html-keyboard-response,103,266225,0.0-1.0-20.0-0.0-5.0,0,0,82892,,,,,,,,,,,,,,,,,,,,,,,,,,,,,,,,,,,,,,86.0,1.5,,,,,,
104,,choice,,html-keyboard-response,104,266785,0.0-1.0-21.0-0.0-0.0,0,0,82892,,556.0,,,75.0,19.0,19.0,1000.0,2000.0,0.0,1.0,0.0,40-40,,,frame,license plate,40.0,40.0,frame8,license plate14,60.0,40.0,AFRAME154.jpg,fl-hel-bel.jpg,/static/Category_learning/Stimuli/Experimental_stims/frame/AFRAME154.jpg,/static/Category_learning/Stimuli/Experimental_stims/license plate/fl-hel-bel.jpg,0.0,license plate,frame,40.0,40.0,license plate14,frame8,40.0,60.0,0.0,86.556,0.556,,,,,,
105,,confirmation,,html-keyboard-response,105,267733,0.0-1.0-21.0-0.0-1.0-0.0,0,0,82892,,,,,,19.0,,,,,,,,,,,,,,,,,,,,,,,,,,,,,,,,87.5,0.944,,,,,,
106,,isi,,html-keyboard-response,106,268737,0.0-1.0-21.0-0.0-2.0,0,0,82892,,,,,,,,,,,,,,,,,,,,,,,,,,,,,,,,,,,,,,88.5,1.0,,,,,,
107,,feedback,,html-keyboard-response,107,269741,0.0-1.0-21.0-0.0-3.0-0.0,0,0,82892,,,,,,19.0,,,,,,,,,,,,,,,,,,,,,,,,,,,,,,,,89.5,1.0,,,,,,
108,,iti,,html-keyboard-response,108,271748,0.0-1.0-21.0-0.0-5.0,0,0,82892,,,,,,,,,,,,,,,,,,,,,,,,,,,,,,,,,,,,,,91.5,2.0,,,,,,
109,,choice,,html-keyboard-response,109,272354,0.0-1.0-22.0-0.0-0.0,0,0,82892,,603.0,,,75.0,20.0,20.0,1000.0,1000.0,0.0,1.0,0.0,20-80,,1.0,vase,desk,80.0,20.0,vase3,desk14,80.0,0.0,vase-006af-1.jpg,26419960.thl.jpg,/static/Category_learning/Stimuli/Experimental_stims/vase/vase-006af-1.jpg,/static/Category_learning/Stimuli/Experimental_stims/desk/26419960.thl.jpg,0.0,desk,vase,20.0,80.0,desk14,vase3,0.0,80.0,0.0,92.103,0.603,,,,,,
110,,confirmation,,html-keyboard-response,110,273260,0.0-1.0-22.0-0.0-1.0-0.0,0,0,82892,,,,,,20.0,,,,,,,,,,,,,,,,,,,,,,,,,,,,,,,,93.0,0.897,,,,,,
111,,isi,,html-keyboard-response,111,274268,0.0-1.0-22.0-0.0-2.0,0,0,82892,,,,,,,,,,,,,,,,,,,,,,,,,,,,,,,,,,,,,,94.0,1.0,,,,,,
112,,feedback,,html-keyboard-response,112,275274,0.0-1.0-22.0-0.0-3.0-0.0,0,0,82892,,,,,,20.0,,,,,,,,,,,,,,,,,,,,,,,,,,,,,,,,95.0,1.0,,,,,,
113,,iti,,html-keyboard-response,113,276279,0.0-1.0-22.0-0.0-5.0,0,0,82892,,,,,,,,,,,,,,,,,,,,,,,,,,,,,,,,,,,,,,96.0,1.0,,,,,,
114,,choice,,html-keyboard-response,114,276995,0.0-1.0-23.0-0.0-0.0,0,0,82892,,712.0,,,75.0,21.0,21.0,1500.0,2000.0,0.0,1.0,0.0,40-60,,1.0,power strip,frame,60.0,40.0,power strip5,frame1,40.0,20.0,93e4a283-bcd6-4ad1-8add-339658cda0fc_400.jpg,AFRAME127.jpg,/static/Category_learning/Stimuli/Experimental_stims/power strip/93e4a283-bcd6-4ad1-8add-339658cda0fc_400.jpg,/static/Category_learning/Stimuli/Experimental_stims/frame/AFRAME127.jpg,0.0,frame,power strip,40.0,60.0,frame1,power strip5,20.0,40.0,0.0,96.712,0.712,,,,,,
115,,confirmation,,html-keyboard-response,115,277790,0.0-1.0-23.0-0.0-1.0-0.0,0,0,82892,,,,,,21.0,,,,,,,,,,,,,,,,,,,,,,,,,,,,,,,,97.5,0.788,,,,,,
116,,isi,,html-keyboard-response,116,279297,0.0-1.0-23.0-0.0-2.0,0,0,82892,,,,,,,,,,,,,,,,,,,,,,,,,,,,,,,,,,,,,,99.0,1.5,,,,,,
117,,feedback,,html-keyboard-response,117,280304,0.0-1.0-23.0-0.0-3.0-0.0,0,0,82892,,,,,,21.0,,,,,,,,,,,,,,,,,,,,,,,,,,,,,,,,100.0,1.0,,,,,,
118,,iti,,html-keyboard-response,118,282311,0.0-1.0-23.0-0.0-5.0,0,0,82892,,,,,,,,,,,,,,,,,,,,,,,,,,,,,,,,,,,,,,102.0,2.0,,,,,,
119,,choice,,html-keyboard-response,119,283266,0.0-1.0-24.0-0.0-0.0,0,0,82892,,950.0,,,75.0,22.0,22.0,2000.0,1000.0,0.0,1.0,1.0,40-40,1.0,,license plate,license plate,40.0,40.0,license plate14,license plate13,40.0,60.0,fl-hel-bel.jpg,usa-rj-9517.jpg,/static/Category_learning/Stimuli/Experimental_stims/license plate/fl-hel-bel.jpg,/static/Category_learning/Stimuli/Experimental_stims/license plate/usa-rj-9517.jpg,0.0,license plate,license plate,40.0,40.0,license plate13,license plate14,60.0,40.0,0.0,102.95,0.95,,,,,,
120,,confirmation,,html-keyboard-response,120,283822,0.0-1.0-24.0-0.0-1.0-0.0,0,0,82892,,,,,,22.0,,,,,,,,,,,,,,,,,,,,,,,,,,,,,,,,103.5,0.55,,,,,,
121,,isi,,html-keyboard-response,121,285826,0.0-1.0-24.0-0.0-2.0,0,0,82892,,,,,,,,,,,,,,,,,,,,,,,,,,,,,,,,,,,,,,105.5,2.0,,,,,,
122,,feedback,,html-keyboard-response,122,286832,0.0-1.0-24.0-0.0-3.0-0.0,0,0,82892,,,,,,22.0,,,,,,,,,,,,,,,,,,,,,,,,,,,,,,,,106.5,1.0,,,,,,
123,,iti,,html-keyboard-response,123,287836,0.0-1.0-24.0-0.0-5.0,0,0,82892,,,,,,,,,,,,,,,,,,,,,,,,,,,,,,,,,,,,,,107.5,1.0,,,,,,
124,,choice,,html-keyboard-response,124,288658,0.0-1.0-25.0-0.0-0.0,0,0,82892,,818.0,,,68.0,23.0,23.0,1000.0,1000.0,0.0,1.0,0.0,40-60,,0.0,lipstick,small table,40.0,60.0,lipstick7,small table5,60.0,80.0,P101401_hero.jpg,Atable145.jpg,/static/Category_learning/Stimuli/Experimental_stims/lipstick/P101401_hero.jpg,/static/Category_learning/Stimuli/Experimental_stims/small table/Atable145.jpg,1.0,lipstick,small table,40.0,60.0,lipstick7,small table5,60.0,80.0,0.0,108.318,0.818,,,,,,
125,,confirmation,,html-keyboard-response,125,289345,0.0-1.0-25.0-0.0-1.0-0.0,0,0,82892,,,,,,23.0,,,,,,,,,,,,,,,,,,,,,,,,,,,,,,,,109.0,0.682,,,,,,
126,,isi,,html-keyboard-response,126,290354,0.0-1.0-25.0-0.0-2.0,0,0,82892,,,,,,,,,,,,,,,,,,,,,,,,,,,,,,,,,,,,,,110.0,1.0,,,,,,
127,,feedback,,html-keyboard-response,127,291362,0.0-1.0-25.0-0.0-3.0-0.0,0,0,82892,,,,,,23.0,,,,,,,,,,,,,,,,,,,,,,,,,,,,,,,,111.0,1.0,,,,,,
128,,iti,,html-keyboard-response,128,292369,0.0-1.0-25.0-0.0-5.0,0,0,82892,,,,,,,,,,,,,,,,,,,,,,,,,,,,,,,,,,,,,,112.0,1.0,,,,,,
129,,choice,,html-keyboard-response,129,293248,0.0-1.0-26.0-0.0-0.0,0,0,82892,,876.0,,,75.0,24.0,24.0,3000.0,1500.0,0.0,1.0,0.0,20-80,,1.0,yarn,bowl,80.0,20.0,yarn4,bowl6,60.0,20.0,amethyst dreaming boho hy sml.jpg,Abowl59.jpg,/static/Category_learning/Stimuli/Experimental_stims/yarn/amethyst dreaming boho hy sml.jpg,/static/Category_learning/Stimuli/Experimental_stims/bowl/Abowl59.jpg,0.0,bowl,yarn,20.0,80.0,bowl6,yarn4,20.0,60.0,0.0,112.876,0.876,,,,,,
130,,confirmation,,html-keyboard-response,130,293880,0.0-1.0-26.0-0.0-1.0-0.0,0,0,82892,,,,,,24.0,,,,,,,,,,,,,,,,,,,,,,,,,,,,,,,,113.5,0.624,,,,,,
131,,isi,,html-keyboard-response,131,296887,0.0-1.0-26.0-0.0-2.0,0,0,82892,,,,,,,,,,,,,,,,,,,,,,,,,,,,,,,,,,,,,,116.5,3.0,,,,,,
132,,feedback,,html-keyboard-response,132,297896,0.0-1.0-26.0-0.0-3.0-0.0,0,0,82892,,,,,,24.0,,,,,,,,,,,,,,,,,,,,,,,,,,,,,,,,117.5,1.0,,,,,,
133,,iti,,html-keyboard-response,133,299404,0.0-1.0-26.0-0.0-5.0,0,0,82892,,,,,,,,,,,,,,,,,,,,,,,,,,,,,,,,,,,,,,119.0,1.5,,,,,,
134,,choice,,html-keyboard-response,134,300210,0.0-1.0-27.0-0.0-0.0,0,0,82892,,800.0,,,68.0,25.0,25.0,1000.0,2000.0,0.0,1.0,0.0,80-80,,,watch,trumpet,80.0,80.0,watch10,trumpet9,100.0,80.0,HEU0102124_zoom.jpg,trumpet3.jpg,/static/Category_learning/Stimuli/Experimental_stims/watch/HEU0102124_zoom.jpg,/static/Category_learning/Stimuli/Experimental_stims/trumpet/trumpet3.jpg,1.0,watch,trumpet,80.0,80.0,watch10,trumpet9,100.0,80.0,0.0,119.8,0.8,,,,,,
135,,confirmation,,html-keyboard-response,135,300914,0.0-1.0-27.0-0.0-1.0-0.0,0,0,82892,,,,,,25.0,,,,,,,,,,,,,,,,,,,,,,,,,,,,,,,,120.5,0.7,,,,,,
136,,isi,,html-keyboard-response,136,301922,0.0-1.0-27.0-0.0-2.0,0,0,82892,,,,,,,,,,,,,,,,,,,,,,,,,,,,,,,,,,,,,,121.5,1.0,,,,,,
137,,feedback,,html-keyboard-response,137,302929,0.0-1.0-27.0-0.0-3.0-0.0,0,0,82892,,,,,,25.0,,,,,,,,,,,,,,,,,,,,,,,,,,,,,,,,122.5,1.0,,,,,,
138,,iti,,html-keyboard-response,138,304935,0.0-1.0-27.0-0.0-5.0,0,0,82892,,,,,,,,,,,,,,,,,,,,,,,,,,,,,,,,,,,,,,124.5,2.0,,,,,,
139,,choice,,html-keyboard-response,139,305747,0.0-1.0-28.0-0.0-0.0,0,0,82892,,807.0,,,75.0,26.0,26.0,2000.0,1000.0,0.0,1.0,1.0,20-40,0.0,,lipstick,bowl,40.0,20.0,lipstick7,bowl6,60.0,20.0,P101401_hero.jpg,Abowl59.jpg,/static/Category_learning/Stimuli/Experimental_stims/lipstick/P101401_hero.jpg,/static/Category_learning/Stimuli/Experimental_stims/bowl/Abowl59.jpg,0.0,bowl,lipstick,20.0,40.0,bowl6,lipstick7,20.0,60.0,0.0,125.307,0.807,,,,,,
140,,confirmation,,html-keyboard-response,140,306444,0.0-1.0-28.0-0.0-1.0-0.0,0,0,82892,,,,,,26.0,,,,,,,,,,,,,,,,,,,,,,,,,,,,,,,,126.0,0.693,,,,,,
141,,isi,,html-keyboard-response,141,308450,0.0-1.0-28.0-0.0-2.0,0,0,82892,,,,,,,,,,,,,,,,,,,,,,,,,,,,,,,,,,,,,,128.0,2.0,,,,,,
142,,feedback,,html-keyboard-response,142,309458,0.0-1.0-28.0-0.0-3.0-0.0,0,0,82892,,,,,,26.0,,,,,,,,,,,,,,,,,,,,,,,,,,,,,,,,129.0,1.0,,,,,,
143,,iti,,html-keyboard-response,143,310466,0.0-1.0-28.0-0.0-5.0,0,0,82892,,,,,,,,,,,,,,,,,,,,,,,,,,,,,,,,,,,,,,130.0,1.0,,,,,,
144,,choice,,html-keyboard-response,144,311309,0.0-1.0-29.0-0.0-0.0,0,0,82892,,838.0,,,75.0,27.0,27.0,3000.0,1500.0,0.0,1.0,0.0,80-80,,,stool,yarn,80.0,80.0,stool12,yarn7,80.0,100.0,henrybar_stool1.jpg,herb garden hy smaller.jpg,/static/Category_learning/Stimuli/Experimental_stims/stool/henrybar_stool1.jpg,/static/Category_learning/Stimuli/Experimental_stims/yarn/herb garden hy smaller.jpg,0.0,yarn,stool,80.0,80.0,yarn7,stool12,100.0,80.0,0.0,130.838,0.838,,,,,,
145,,confirmation,,html-keyboard-response,145,311976,0.0-1.0-29.0-0.0-1.0-0.0,0,0,82892,,,,,,27.0,,,,,,,,,,,,,,,,,,,,,,,,,,,,,,,,131.5,0.662,,,,,,
146,,isi,,html-keyboard-response,146,314984,0.0-1.0-29.0-0.0-2.0,0,0,82892,,,,,,,,,,,,,,,,,,,,,,,,,,,,,,,,,,,,,,134.5,3.0,,,,,,
147,,feedback,,html-keyboard-response,147,315991,0.0-1.0-29.0-0.0-3.0-0.0,0,0,82892,,,,,,27.0,,,,,,,,,,,,,,,,,,,,,,,,,,,,,,,,135.5,1.0,,,,,,
148,,iti,,html-keyboard-response,148,317496,0.0-1.0-29.0-0.0-5.0,0,0,82892,,,,,,,,,,,,,,,,,,,,,,,,,,,,,,,,,,,,,,137.0,1.5,,,,,,
149,,choice,,html-keyboard-response,149,318320,0.0-1.0-30.0-0.0-0.0,0,0,82892,,821.0,,,75.0,28.0,28.0,2000.0,1500.0,0.0,1.0,0.0,40-60,,1.0,patio lounge chair,makeup compact,60.0,40.0,patio lounge chair6,makeup compact5,60.0,60.0,Lounge_Chair_with_Pillow.jpg,P109965_hero.jpg,/static/Category_learning/Stimuli/Experimental_stims/patio lounge chair/Lounge_Chair_with_Pillow.jpg,/static/Category_learning/Stimuli/Experimental_stims/makeup compact/P109965_hero.jpg,0.0,makeup compact,patio lounge chair,40.0,60.0,makeup compact5,patio lounge chair6,60.0,60.0,0.0,137.821,0.821,,,,,,
150,,confirmation,,html-keyboard-response,150,319005,0.0-1.0-30.0-0.0-1.0-0.0,0,0,82892,,,,,,28.0,,,,,,,,,,,,,,,,,,,,,,,,,,,,,,,,138.5,0.679,,,,,,
151,,isi,,html-keyboard-response,151,321010,0.0-1.0-30.0-0.0-2.0,0,0,82892,,,,,,,,,,,,,,,,,,,,,,,,,,,,,,,,,,,,,,140.5,2.0,,,,,,
152,,feedback,,html-keyboard-response,152,322018,0.0-1.0-30.0-0.0-3.0-0.0,0,0,82892,,,,,,28.0,,,,,,,,,,,,,,,,,,,,,,,,,,,,,,,,141.5,1.0,,,,,,
153,,iti,,html-keyboard-response,153,323522,0.0-1.0-30.0-0.0-5.0,0,0,82892,,,,,,,,,,,,,,,,,,,,,,,,,,,,,,,,,,,,,,143.0,1.5,,,,,,
154,,choice,,html-keyboard-response,154,324390,0.0-1.0-31.0-0.0-0.0,0,0,82892,,863.0,,,75.0,29.0,29.0,1000.0,3500.0,0.0,1.0,0.0,40-80,,0.0,license plate,tape,40.0,80.0,license plate12,tape7,20.0,80.0,TurtleLicensePlate.jpg,tape dispenser.jpg,/static/Category_learning/Stimuli/Experimental_stims/license plate/TurtleLicensePlate.jpg,/static/Category_learning/Stimuli/Experimental_stims/tape/tape dispenser.jpg,0.0,tape,license plate,80.0,40.0,tape7,license plate12,80.0,20.0,0.0,143.863,0.863,,,,,,
155,,confirmation,,html-keyboard-response,155,325032,0.0-1.0-31.0-0.0-1.0-0.0,0,0,82892,,,,,,29.0,,,,,,,,,,,,,,,,,,,,,,,,,,,,,,,,144.5,0.637,,,,,,
156,,isi,,html-keyboard-response,156,326035,0.0-1.0-31.0-0.0-2.0,0,0,82892,,,,,,,,,,,,,,,,,,,,,,,,,,,,,,,,,,,,,,145.5,1.0,,,,,,
157,,feedback,,html-keyboard-response,157,327039,0.0-1.0-31.0-0.0-3.0-0.0,0,0,82892,,,,,,29.0,,,,,,,,,,,,,,,,,,,,,,,,,,,,,,,,146.5,1.0,,,,,,
158,,iti,,html-keyboard-response,158,330547,0.0-1.0-31.0-0.0-5.0,0,0,82892,,,,,,,,,,,,,,,,,,,,,,,,,,,,,,,,,,,,,,150.0,3.5,,,,,,
159,,choice,,html-keyboard-response,159,331248,0.0-1.0-32.0-0.0-0.0,0,0,82892,,696.0,,,75.0,30.0,30.0,1000.0,1000.0,0.0,1.0,0.0,20-80,,0.0,desk,yarn,20.0,80.0,desk10,yarn3,20.0,100.0,MEX028.jpg,Aballofblueya.jpg,/static/Category_learning/Stimuli/Experimental_stims/desk/MEX028.jpg,/static/Category_learning/Stimuli/Experimental_stims/yarn/Aballofblueya.jpg,0.0,yarn,desk,80.0,20.0,yarn3,desk10,100.0,20.0,0.0,150.696,0.696,,,,,,
160,,confirmation,,html-keyboard-response,160,332061,0.0-1.0-32.0-0.0-1.0-0.0,0,0,82892,,,,,,30.0,,,,,,,,,,,,,,,,,,,,,,,,,,,,,,,,151.5,0.804,,,,,,
161,,isi,,html-keyboard-response,161,333069,0.0-1.0-32.0-0.0-2.0,0,0,82892,,,,,,,,,,,,,,,,,,,,,,,,,,,,,,,,,,,,,,152.5,1.0,,,,,,
162,,feedback,,html-keyboard-response,162,334078,0.0-1.0-32.0-0.0-3.0-0.0,0,0,82892,,,,,,30.0,,,,,,,,,,,,,,,,,,,,,,,,,,,,,,,,153.5,1.0,,,,,,
163,,iti,,html-keyboard-response,163,335086,0.0-1.0-32.0-0.0-5.0,0,0,82892,,,,,,,,,,,,,,,,,,,,,,,,,,,,,,,,,,,,,,154.5,1.0,,,,,,
164,,choice,,html-keyboard-response,164,335774,0.0-1.0-33.0-0.0-0.0,0,0,82892,,683.0,,,75.0,31.0,31.0,1500.0,3000.0,0.0,1.0,0.0,20-60,,0.0,fan,poker card,20.0,60.0,fan14,poker card15,40.0,40.0,124771_sk_lg.jpg,9816946.thl.jpg,/static/Category_learning/Stimuli/Experimental_stims/fan/124771_sk_lg.jpg,/static/Category_learning/Stimuli/Experimental_stims/poker card/9816946.thl.jpg,0.0,poker card,fan,60.0,20.0,poker card15,fan14,40.0,40.0,0.0,155.183,0.683,,,,,,
165,,confirmation,,html-keyboard-response,165,336601,0.0-1.0-33.0-0.0-1.0-0.0,0,0,82892,,,,,,31.0,,,,,,,,,,,,,,,,,,,,,,,,,,,,,,,,156.0,0.817,,,,,,
166,,isi,,html-keyboard-response,166,338109,0.0-1.0-33.0-0.0-2.0,0,0,82892,,,,,,,,,,,,,,,,,,,,,,,,,,,,,,,,,,,,,,157.5,1.5,,,,,,
167,,feedback,,html-keyboard-response,167,339116,0.0-1.0-33.0-0.0-3.0-0.0,0,0,82892,,,,,,31.0,,,,,,,,,,,,,,,,,,,,,,,,,,,,,,,,158.5,1.0,,,,,,
168,,iti,,html-keyboard-response,168,342124,0.0-1.0-33.0-0.0-5.0,0,0,82892,,,,,,,,,,,,,,,,,,,,,,,,,,,,,,,,,,,,,,161.5,3.0,,,,,,
169,,choice,,html-keyboard-response,169,342839,0.0-1.0-34.0-0.0-0.0,0,0,82892,,710.0,,,75.0,32.0,32.0,2000.0,2000.0,0.0,1.0,0.0,60-80,,0.0,nail polish,tape,60.0,80.0,nail polish11,tape10,80.0,60.0,Revlon_Super_Top_Speed_Chrome_Nail_Polish-resized200.jpg,26377601.thl.jpg,/static/Category_learning/Stimuli/Experimental_stims/nail polish/Revlon_Super_Top_Speed_Chrome_Nail_Polish-resized200.jpg,/static/Category_learning/Stimuli/Experimental_stims/tape/26377601.thl.jpg,0.0,tape,nail polish,80.0,60.0,tape10,nail polish11,60.0,80.0,0.0,162.21,0.71,,,,,,
170,,confirmation,,html-keyboard-response,170,343637,0.0-1.0-34.0-0.0-1.0-0.0,0,0,82892,,,,,,32.0,,,,,,,,,,,,,,,,,,,,,,,,,,,,,,,,163.0,0.79,,,,,,
171,,isi,,html-keyboard-response,171,345642,0.0-1.0-34.0-0.0-2.0,0,0,82892,,,,,,,,,,,,,,,,,,,,,,,,,,,,,,,,,,,,,,165.0,2.0,,,,,,
172,,feedback,,html-keyboard-response,172,346649,0.0-1.0-34.0-0.0-3.0-0.0,0,0,82892,,,,,,32.0,,,,,,,,,,,,,,,,,,,,,,,,,,,,,,,,166.0,1.0,,,,,,
173,,iti,,html-keyboard-response,173,348654,0.0-1.0-34.0-0.0-5.0,0,0,82892,,,,,,,,,,,,,,,,,,,,,,,,,,,,,,,,,,,,,,168.0,2.0,,,,,,
174,,choice,,html-keyboard-response,174,349298,0.0-1.0-35.0-0.0-0.0,0,0,82892,,639.0,,,68.0,33.0,33.0,1000.0,1000.0,0.0,1.0,0.0,20-60,,0.0,baby carriage,power strip,20.0,60.0,baby carriage5,power strip11,20.0,40.0,Baby_Stroller.jpg,41Bw7Tl1G7L._AA262_.jpg,/static/Category_learning/Stimuli/Experimental_stims/baby carriage/Baby_Stroller.jpg,/static/Category_learning/Stimuli/Experimental_stims/power strip/41Bw7Tl1G7L._AA262_.jpg,1.0,baby carriage,power strip,20.0,60.0,baby carriage5,power strip11,20.0,40.0,0.0,168.639,0.639,,,,,,
175,,confirmation,,html-keyboard-response,175,350169,0.0-1.0-35.0-0.0-1.0-0.0,0,0,82892,,,,,,33.0,,,,,,,,,,,,,,,,,,,,,,,,,,,,,,,,169.5,0.861,,,,,,
176,,isi,,html-keyboard-response,176,351177,0.0-1.0-35.0-0.0-2.0,0,0,82892,,,,,,,,,,,,,,,,,,,,,,,,,,,,,,,,,,,,,,170.5,1.0,,,,,,
177,,feedback,,html-keyboard-response,177,352184,0.0-1.0-35.0-0.0-3.0-0.0,0,0,82892,,,,,,33.0,,,,,,,,,,,,,,,,,,,,,,,,,,,,,,,,171.5,1.0,,,,,,
178,,iti,,html-keyboard-response,178,353192,0.0-1.0-35.0-0.0-5.0,0,0,82892,,,,,,,,,,,,,,,,,,,,,,,,,,,,,,,,,,,,,,172.5,1.0,,,,,,
179,,choice,,html-keyboard-response,179,353694,0.0-1.0-36.0-0.0-0.0,0,0,82892,,497.0,,,75.0,34.0,34.0,3500.0,1500.0,0.0,1.0,0.0,20-20,,,dresser,fan,20.0,20.0,dresser6,fan4,40.0,0.0,ADRESSE96.jpg,AFAN39.jpg,/static/Category_learning/Stimuli/Experimental_stims/dresser/ADRESSE96.jpg,/static/Category_learning/Stimuli/Experimental_stims/fan/AFAN39.jpg,0.0,fan,dresser,20.0,20.0,fan4,dresser6,0.0,40.0,0.0,172.997,0.497,,,,,,
180,,confirmation,,html-keyboard-response,180,354702,0.0-1.0-36.0-0.0-1.0-0.0,0,0,82892,,,,,,34.0,,,,,,,,,,,,,,,,,,,,,,,,,,,,,,,,174.0,1.003,,,,,,
181,,isi,,html-keyboard-response,181,358206,0.0-1.0-36.0-0.0-2.0,0,0,82892,,,,,,,,,,,,,,,,,,,,,,,,,,,,,,,,,,,,,,177.5,3.5,,,,,,
182,,feedback,,html-keyboard-response,182,359218,0.0-1.0-36.0-0.0-3.0-0.0,0,0,82892,,,,,,34.0,,,,,,,,,,,,,,,,,,,,,,,,,,,,,,,,178.5,1.0,,,,,,
183,,iti,,html-keyboard-response,183,360724,0.0-1.0-36.0-0.0-5.0,0,0,82892,,,,,,,,,,,,,,,,,,,,,,,,,,,,,,,,,,,,,,180.0,1.5,,,,,,
184,,choice,,html-keyboard-response,184,361442,0.0-1.0-37.0-0.0-0.0,0,0,82892,,714.0,,,68.0,35.0,35.0,1500.0,1500.0,0.0,1.0,0.0,20-80,,1.0,vase,bowl,80.0,20.0,vase9,bowl2,80.0,40.0,Avasewithang2.jpg,AMIXBOWL2.jpg,/static/Category_learning/Stimuli/Experimental_stims/vase/Avasewithang2.jpg,/static/Category_learning/Stimuli/Experimental_stims/bowl/AMIXBOWL2.jpg,1.0,vase,bowl,80.0,20.0,vase9,bowl2,80.0,40.0,0.0,180.714,0.714,,,,,,
185,,confirmation,,html-keyboard-response,185,362233,0.0-1.0-37.0-0.0-1.0-0.0,0,0,82892,,,,,,35.0,,,,,,,,,,,,,,,,,,,,,,,,,,,,,,,,181.5,0.786,,,,,,
186,,isi,,html-keyboard-response,186,363737,0.0-1.0-37.0-0.0-2.0,0,0,82892,,,,,,,,,,,,,,,,,,,,,,,,,,,,,,,,,,,,,,183.0,1.5,,,,,,
187,,feedback,,html-keyboard-response,187,364744,0.0-1.0-37.0-0.0-3.0-0.0,0,0,82892,,,,,,35.0,,,,,,,,,,,,,,,,,,,,,,,,,,,,,,,,184.0,1.0,,,,,,
188,,iti,,html-keyboard-response,188,366248,0.0-1.0-37.0-0.0-5.0,0,0,82892,,,,,,,,,,,,,,,,,,,,,,,,,,,,,,,,,,,,,,185.5,1.5,,,,,,
189,,choice,,html-keyboard-response,189,366915,0.0-1.0-38.0-0.0-0.0,0,0,82892,,662.0,,,75.0,36.0,36.0,2000.0,1000.0,0.0,1.0,0.0,40-40,,,hammer,lipstick,40.0,40.0,hammer12,lipstick14,20.0,60.0,24oz hammer.jpg,P109907_hero.jpg,/static/Category_learning/Stimuli/Experimental_stims/hammer/24oz hammer.jpg,/static/Category_learning/Stimuli/Experimental_stims/lipstick/P109907_hero.jpg,0.0,lipstick,hammer,40.0,40.0,lipstick14,hammer12,60.0,20.0,0.0,186.162,0.662,,,,,,
190,,confirmation,,html-keyboard-response,190,367759,0.0-1.0-38.0-0.0-1.0-0.0,0,0,82892,,,,,,36.0,,,,,,,,,,,,,,,,,,,,,,,,,,,,,,,,187.0,0.838,,,,,,
191,,isi,,html-keyboard-response,191,369766,0.0-1.0-38.0-0.0-2.0,0,0,82892,,,,,,,,,,,,,,,,,,,,,,,,,,,,,,,,,,,,,,189.0,2.0,,,,,,
192,,feedback,,html-keyboard-response,192,370771,0.0-1.0-38.0-0.0-3.0-0.0,0,0,82892,,,,,,36.0,,,,,,,,,,,,,,,,,,,,,,,,,,,,,,,,190.0,1.0,,,,,,
193,,iti,,html-keyboard-response,193,371780,0.0-1.0-38.0-0.0-5.0,0,0,82892,,,,,,,,,,,,,,,,,,,,,,,,,,,,,,,,,,,,,,191.0,1.0,,,,,,
194,,choice,,html-keyboard-response,194,372669,0.0-1.0-39.0-0.0-0.0,0,0,82892,,884.0,,,68.0,37.0,37.0,3000.0,2000.0,0.0,1.0,1.0,80-80,1.0,,yarn,yarn,80.0,80.0,yarn7,yarn3,100.0,100.0,herb garden hy smaller.jpg,Aballofblueya.jpg,/static/Category_learning/Stimuli/Experimental_stims/yarn/herb garden hy smaller.jpg,/static/Category_learning/Stimuli/Experimental_stims/yarn/Aballofblueya.jpg,1.0,yarn,yarn,80.0,80.0,yarn7,yarn3,100.0,100.0,0.0,191.884,0.884,,,,,,
195,,confirmation,,html-keyboard-response,195,373290,0.0-1.0-39.0-0.0-1.0-0.0,0,0,82892,,,,,,37.0,,,,,,,,,,,,,,,,,,,,,,,,,,,,,,,,192.5,0.616,,,,,,
196,,isi,,html-keyboard-response,196,376296,0.0-1.0-39.0-0.0-2.0,0,0,82892,,,,,,,,,,,,,,,,,,,,,,,,,,,,,,,,,,,,,,195.5,3.0,,,,,,
197,,feedback,,html-keyboard-response,197,377306,0.0-1.0-39.0-0.0-3.0-0.0,0,0,82892,,,,,,37.0,,,,,,,,,,,,,,,,,,,,,,,,,,,,,,,,196.5,1.0,,,,,,
198,,iti,,html-keyboard-response,198,379315,0.0-1.0-39.0-0.0-5.0,0,0,82892,,,,,,,,,,,,,,,,,,,,,,,,,,,,,,,,,,,,,,198.5,2.0,,,,,,
199,,choice,,html-keyboard-response,199,380013,0.0-1.0-40.0-0.0-0.0,0,0,82892,,693.0,,,68.0,38.0,38.0,1500.0,3000.0,0.0,1.0,0.0,20-60,,1.0,poker card,door knob,60.0,20.0,poker card13,door knob14,80.0,20.0,9817197.thl.jpg,500_CLANYKAB.jpg,/static/Category_learning/Stimuli/Experimental_stims/poker card/9817197.thl.jpg,/static/Category_learning/Stimuli/Experimental_stims/door knob/500_CLANYKAB.jpg,1.0,poker card,door knob,60.0,20.0,poker card13,door knob14,80.0,20.0,0.0,199.193,0.693,,,,,,
200,,confirmation,,html-keyboard-response,200,380825,0.0-1.0-40.0-0.0-1.0-0.0,0,0,82892,,,,,,38.0,,,,,,,,,,,,,,,,,,,,,,,,,,,,,,,,200.0,0.807,,,,,,
201,,isi,,html-keyboard-response,201,382329,0.0-1.0-40.0-0.0-2.0,0,0,82892,,,,,,,,,,,,,,,,,,,,,,,,,,,,,,,,,,,,,,201.5,1.5,,,,,,
202,,feedback,,html-keyboard-response,202,383333,0.0-1.0-40.0-0.0-3.0-0.0,0,0,82892,,,,,,38.0,,,,,,,,,,,,,,,,,,,,,,,,,,,,,,,,202.5,1.0,,,,,,
203,,iti,,html-keyboard-response,203,386341,0.0-1.0-40.0-0.0-5.0,0,0,82892,,,,,,,,,,,,,,,,,,,,,,,,,,,,,,,,,,,,,,205.5,3.0,,,,,,
204,,choice,,html-keyboard-response,204,387067,0.0-1.0-41.0-0.0-0.0,0,0,82892,,721.0,,,68.0,39.0,39.0,3500.0,1000.0,0.0,1.0,1.0,80-80,1.0,,tape,tape,80.0,80.0,tape7,tape10,80.0,60.0,tape dispenser.jpg,26377601.thl.jpg,/static/Category_learning/Stimuli/Experimental_stims/tape/tape dispenser.jpg,/static/Category_learning/Stimuli/Experimental_stims/tape/26377601.thl.jpg,1.0,tape,tape,80.0,80.0,tape7,tape10,80.0,60.0,0.0,206.221,0.721,,,,,,
205,,confirmation,,html-keyboard-response,205,387853,0.0-1.0-41.0-0.0-1.0-0.0,0,0,82892,,,,,,39.0,,,,,,,,,,,,,,,,,,,,,,,,,,,,,,,,207.0,0.779,,,,,,
206,,isi,,html-keyboard-response,206,391359,0.0-1.0-41.0-0.0-2.0,0,0,82892,,,,,,,,,,,,,,,,,,,,,,,,,,,,,,,,,,,,,,210.5,3.5,,,,,,
207,,feedback,,html-keyboard-response,207,392366,0.0-1.0-41.0-0.0-3.0-0.0,0,0,82892,,,,,,39.0,,,,,,,,,,,,,,,,,,,,,,,,,,,,,,,,211.5,1.0,,,,,,
208,,iti,,html-keyboard-response,208,393370,0.0-1.0-41.0-0.0-5.0,0,0,82892,,,,,,,,,,,,,,,,,,,,,,,,,,,,,,,,,,,,,,212.5,1.0,,,,,,
209,,choice,,html-keyboard-response,209,394024,0.0-1.0-42.0-0.0-0.0,0,0,82892,,648.0,,,68.0,40.0,40.0,2000.0,3000.0,0.0,1.0,1.0,60-60,1.0,,poker card,poker card,60.0,60.0,poker card13,poker card15,80.0,40.0,9817197.thl.jpg,9816946.thl.jpg,/static/Category_learning/Stimuli/Experimental_stims/poker card/9817197.thl.jpg,/static/Category_learning/Stimuli/Experimental_stims/poker card/9816946.thl.jpg,1.0,poker card,poker card,60.0,60.0,poker card13,poker card15,80.0,40.0,0.0,213.148,0.648,,,,,,
210,,confirmation,,html-keyboard-response,210,394885,0.0-1.0-42.0-0.0-1.0-0.0,0,0,82892,,,,,,40.0,,,,,,,,,,,,,,,,,,,,,,,,,,,,,,,,214.0,0.852,,,,,,
211,,isi,,html-keyboard-response,211,396896,0.0-1.0-42.0-0.0-2.0,0,0,82892,,,,,,,,,,,,,,,,,,,,,,,,,,,,,,,,,,,,,,216.0,2.0,,,,,,
212,,feedback,,html-keyboard-response,212,397903,0.0-1.0-42.0-0.0-3.0-0.0,0,0,82892,,,,,,40.0,,,,,,,,,,,,,,,,,,,,,,,,,,,,,,,,217.0,1.0,,,,,,
213,,iti,,html-keyboard-response,213,400911,0.0-1.0-42.0-0.0-5.0,0,0,82892,,,,,,,,,,,,,,,,,,,,,,,,,,,,,,,,,,,,,,220.0,3.0,,,,,,
214,,choice,,html-keyboard-response,214,401605,0.0-1.0-43.0-0.0-0.0,0,0,82892,,689.0,,,68.0,41.0,41.0,1000.0,1000.0,0.0,1.0,0.0,20-60,,1.0,small table,bongo,60.0,20.0,small table4,bongo9,40.0,20.0,ACOFTABLE.jpg,22946035.thl.jpg,/static/Category_learning/Stimuli/Experimental_stims/small table/ACOFTABLE.jpg,/static/Category_learning/Stimuli/Experimental_stims/bongo/22946035.thl.jpg,1.0,small table,bongo,60.0,20.0,small table4,bongo9,40.0,20.0,0.0,220.689,0.689,,,,,,
215,,confirmation,,html-keyboard-response,215,402420,0.0-1.0-43.0-0.0-1.0-0.0,0,0,82892,,,,,,41.0,,,,,,,,,,,,,,,,,,,,,,,,,,,,,,,,221.5,0.811,,,,,,
216,,isi,,html-keyboard-response,216,403428,0.0-1.0-43.0-0.0-2.0,0,0,82892,,,,,,,,,,,,,,,,,,,,,,,,,,,,,,,,,,,,,,222.5,1.0,,,,,,
217,,feedback,,html-keyboard-response,217,404436,0.0-1.0-43.0-0.0-3.0-0.0,0,0,82892,,,,,,41.0,,,,,,,,,,,,,,,,,,,,,,,,,,,,,,,,223.5,1.0,,,,,,
218,,iti,,html-keyboard-response,218,405443,0.0-1.0-43.0-0.0-5.0,0,0,82892,,,,,,,,,,,,,,,,,,,,,,,,,,,,,,,,,,,,,,224.5,1.0,,,,,,
219,,choice,,html-keyboard-response,219,406448,0.0-1.0-44.0-0.0-0.0,0,0,82892,,1000.0,,,75.0,42.0,42.0,3500.0,1000.0,0.0,1.0,0.0,60-60,,,necklace,poker card,60.0,60.0,necklace2,poker card5,40.0,40.0,Anecklace7.jpg,22864800.thl.jpg,/static/Category_learning/Stimuli/Experimental_stims/necklace/Anecklace7.jpg,/static/Category_learning/Stimuli/Experimental_stims/poker card/22864800.thl.jpg,0.0,poker card,necklace,60.0,60.0,poker card5,necklace2,40.0,40.0,0.0,225.5,1.0,,,,,,
220,,confirmation,,html-keyboard-response,220,406954,0.0-1.0-44.0-0.0-1.0-0.0,0,0,82892,,,,,,42.0,,,,,,,,,,,,,,,,,,,,,,,,,,,,,,,,226.0,0.5,,,,,,
221,,isi,,html-keyboard-response,221,410458,0.0-1.0-44.0-0.0-2.0,0,0,82892,,,,,,,,,,,,,,,,,,,,,,,,,,,,,,,,,,,,,,229.5,3.5,,,,,,
222,,feedback,,html-keyboard-response,222,411467,0.0-1.0-44.0-0.0-3.0-0.0,0,0,82892,,,,,,42.0,,,,,,,,,,,,,,,,,,,,,,,,,,,,,,,,230.5,1.0,,,,,,
223,,iti,,html-keyboard-response,223,412474,0.0-1.0-44.0-0.0-5.0,0,0,82892,,,,,,,,,,,,,,,,,,,,,,,,,,,,,,,,,,,,,,231.5,1.0,,,,,,
224,,choice,,html-keyboard-response,224,413166,0.0-1.0-45.0-0.0-0.0,0,0,82892,,689.0,,,75.0,43.0,43.0,2000.0,2000.0,0.0,1.0,0.0,40-60,,0.0,lipstick,power strip,40.0,60.0,lipstick10,power strip10,60.0,60.0,21K0D7QKFAL._SS500_.jpg,6bd437c9-6165-4d36-bf75-9a1038783c6a_400.jpg,/static/Category_learning/Stimuli/Experimental_stims/lipstick/21K0D7QKFAL._SS500_.jpg,/static/Category_learning/Stimuli/Experimental_stims/power strip/6bd437c9-6165-4d36-bf75-9a1038783c6a_400.jpg,0.0,power strip,lipstick,60.0,40.0,power strip10,lipstick10,60.0,60.0,0.0,232.189,0.689,,,,,,
225,,confirmation,,html-keyboard-response,225,413983,0.0-1.0-45.0-0.0-1.0-0.0,0,0,82892,,,,,,43.0,,,,,,,,,,,,,,,,,,,,,,,,,,,,,,,,233.0,0.811,,,,,,
226,,isi,,html-keyboard-response,226,415989,0.0-1.0-45.0-0.0-2.0,0,0,82892,,,,,,,,,,,,,,,,,,,,,,,,,,,,,,,,,,,,,,235.0,2.0,,,,,,
227,,feedback,,html-keyboard-response,227,416995,0.0-1.0-45.0-0.0-3.0-0.0,0,0,82892,,,,,,43.0,,,,,,,,,,,,,,,,,,,,,,,,,,,,,,,,236.0,1.0,,,,,,
228,,iti,,html-keyboard-response,228,419002,0.0-1.0-45.0-0.0-5.0,0,0,82892,,,,,,,,,,,,,,,,,,,,,,,,,,,,,,,,,,,,,,238.0,2.0,,,,,,
229,,choice,,html-keyboard-response,229,419708,0.0-1.0-46.0-0.0-0.0,0,0,82892,,701.0,,,75.0,44.0,44.0,1000.0,3000.0,0.0,1.0,1.0,40-60,0.0,,poker card,lipstick,60.0,40.0,poker card5,lipstick14,40.0,60.0,22864800.thl.jpg,P109907_hero.jpg,/static/Category_learning/Stimuli/Experimental_stims/poker card/22864800.thl.jpg,/static/Category_learning/Stimuli/Experimental_stims/lipstick/P109907_hero.jpg,0.0,lipstick,poker card,40.0,60.0,lipstick14,poker card5,60.0,40.0,0.0,238.701,0.701,,,,,,
230,,confirmation,,html-keyboard-response,230,420512,0.0-1.0-46.0-0.0-1.0-0.0,0,0,82892,,,,,,44.0,,,,,,,,,,,,,,,,,,,,,,,,,,,,,,,,239.5,0.799,,,,,,
231,,isi,,html-keyboard-response,231,421520,0.0-1.0-46.0-0.0-2.0,0,0,82892,,,,,,,,,,,,,,,,,,,,,,,,,,,,,,,,,,,,,,240.5,1.0,,,,,,
232,,feedback,,html-keyboard-response,232,422528,0.0-1.0-46.0-0.0-3.0-0.0,0,0,82892,,,,,,44.0,,,,,,,,,,,,,,,,,,,,,,,,,,,,,,,,241.5,1.0,,,,,,
233,,iti,,html-keyboard-response,233,425535,0.0-1.0-46.0-0.0-5.0,0,0,82892,,,,,,,,,,,,,,,,,,,,,,,,,,,,,,,,,,,,,,244.5,3.0,,,,,,
234,,choice,,html-keyboard-response,234,426400,0.0-1.0-47.0-0.0-0.0,0,0,82892,,861.0,,,68.0,45.0,45.0,1500.0,1000.0,0.0,1.0,1.0,40-80,0.0,,frame,watch,40.0,80.0,frame1,watch10,20.0,100.0,AFRAME127.jpg,HEU0102124_zoom.jpg,/static/Category_learning/Stimuli/Experimental_stims/frame/AFRAME127.jpg,/static/Category_learning/Stimuli/Experimental_stims/watch/HEU0102124_zoom.jpg,1.0,frame,watch,40.0,80.0,frame1,watch10,20.0,100.0,0.0,245.361,0.861,,,,,,
235,,confirmation,,html-keyboard-response,235,427045,0.0-1.0-47.0-0.0-1.0-0.0,0,0,82892,,,,,,45.0,,,,,,,,,,,,,,,,,,,,,,,,,,,,,,,,246.0,0.639,,,,,,
236,,isi,,html-keyboard-response,236,428550,0.0-1.0-47.0-0.0-2.0,0,0,82892,,,,,,,,,,,,,,,,,,,,,,,,,,,,,,,,,,,,,,247.5,1.5,,,,,,
237,,feedback,,html-keyboard-response,237,429557,0.0-1.0-47.0-0.0-3.0-0.0,0,0,82892,,,,,,45.0,,,,,,,,,,,,,,,,,,,,,,,,,,,,,,,,248.5,1.0,,,,,,
238,,iti,,html-keyboard-response,238,430565,0.0-1.0-47.0-0.0-5.0,0,0,82892,,,,,,,,,,,,,,,,,,,,,,,,,,,,,,,,,,,,,,249.5,1.0,,,,,,
239,,choice,,html-keyboard-response,239,431344,0.0-1.0-48.0-0.0-0.0,0,0,82892,,775.0,,,75.0,46.0,46.0,1000.0,1500.0,0.0,1.0,0.0,20-40,,0.0,bongo,hammer,20.0,40.0,bongo13,hammer4,0.0,40.0,26388718.thl.jpg,hammernew01.jpg,/static/Category_learning/Stimuli/Experimental_stims/bongo/26388718.thl.jpg,/static/Category_learning/Stimuli/Experimental_stims/hammer/hammernew01.jpg,0.0,hammer,bongo,40.0,20.0,hammer4,bongo13,40.0,0.0,0.0,250.275,0.775,,,,,,
240,,confirmation,,html-keyboard-response,240,432079,0.0-1.0-48.0-0.0-1.0-0.0,0,0,82892,,,,,,46.0,,,,,,,,,,,,,,,,,,,,,,,,,,,,,,,,251.0,0.725,,,,,,
241,,isi,,html-keyboard-response,241,433083,0.0-1.0-48.0-0.0-2.0,0,0,82892,,,,,,,,,,,,,,,,,,,,,,,,,,,,,,,,,,,,,,252.0,1.0,,,,,,
242,,feedback,,html-keyboard-response,242,434091,0.0-1.0-48.0-0.0-3.0-0.0,0,0,82892,,,,,,46.0,,,,,,,,,,,,,,,,,,,,,,,,,,,,,,,,253.0,1.0,,,,,,
243,,iti,,html-keyboard-response,243,435594,0.0-1.0-48.0-0.0-5.0,0,0,82892,,,,,,,,,,,,,,,,,,,,,,,,,,,,,,,,,,,,,,254.5,1.5,,,,,,
244,,choice,,html-keyboard-response,244,436258,0.0-1.0-49.0-0.0-0.0,0,0,82892,,658.0,,,68.0,47.0,47.0,1000.0,2000.0,0.0,1.0,0.0,40-80,,1.0,telescope,frame,80.0,40.0,telescope15,frame3,80.0,40.0,VictorianDeskTelescope.jpg,AFRAME132.jpg,/static/Category_learning/Stimuli/Experimental_stims/telescope/VictorianDeskTelescope.jpg,/static/Category_learning/Stimuli/Experimental_stims/frame/AFRAME132.jpg,1.0,telescope,frame,80.0,40.0,telescope15,frame3,80.0,40.0,0.0,255.158,0.658,,,,,,
245,,confirmation,,html-keyboard-response,245,437105,0.0-1.0-49.0-0.0-1.0-0.0,0,0,82892,,,,,,47.0,,,,,,,,,,,,,,,,,,,,,,,,,,,,,,,,256.0,0.842,,,,,,
246,,isi,,html-keyboard-response,246,438113,0.0-1.0-49.0-0.0-2.0,0,0,82892,,,,,,,,,,,,,,,,,,,,,,,,,,,,,,,,,,,,,,257.0,1.0,,,,,,
247,,feedback,,html-keyboard-response,247,439121,0.0-1.0-49.0-0.0-3.0-0.0,0,0,82892,,,,,,47.0,,,,,,,,,,,,,,,,,,,,,,,,,,,,,,,,258.0,1.0,,,,,,
248,,iti,,html-keyboard-response,248,441126,0.0-1.0-49.0-0.0-5.0,0,0,82892,,,,,,,,,,,,,,,,,,,,,,,,,,,,,,,,,,,,,,260.0,2.0,,,,,,
249,,choice,,html-keyboard-response,249,441861,0.0-1.0-50.0-0.0-0.0,0,0,82892,,731.0,,,68.0,48.0,48.0,1000.0,2000.0,0.0,1.0,0.0,20-20,,,bench,flashlight,20.0,20.0,bench5,flashlight3,0.0,20.0,APARKBEN8.jpg,sl_tasklight_2l3w.jpg,/static/Category_learning/Stimuli/Experimental_stims/bench/APARKBEN8.jpg,/static/Category_learning/Stimuli/Experimental_stims/flashlight/sl_tasklight_2l3w.jpg,1.0,bench,flashlight,20.0,20.0,bench5,flashlight3,0.0,20.0,0.0,260.731,0.731,,,,,,
250,,confirmation,,html-keyboard-response,250,442635,0.0-1.0-50.0-0.0-1.0-0.0,0,0,82892,,,,,,48.0,,,,,,,,,,,,,,,,,,,,,,,,,,,,,,,,261.5,0.769,,,,,,
251,,isi,,html-keyboard-response,251,443643,0.0-1.0-50.0-0.0-2.0,0,0,82892,,,,,,,,,,,,,,,,,,,,,,,,,,,,,,,,,,,,,,262.5,1.0,,,,,,
252,,feedback,,html-keyboard-response,252,444653,0.0-1.0-50.0-0.0-3.0-0.0,0,0,82892,,,,,,48.0,,,,,,,,,,,,,,,,,,,,,,,,,,,,,,,,263.5,1.0,,,,,,
253,,iti,,html-keyboard-response,253,446656,0.0-1.0-50.0-0.0-5.0,0,0,82892,,,,,,,,,,,,,,,,,,,,,,,,,,,,,,,,,,,,,,265.5,2.0,,,,,,
254,,choice,,html-keyboard-response,254,447548,0.0-1.0-51.0-0.0-0.0,0,0,82892,,887.0,,,68.0,49.0,49.0,1500.0,1500.0,0.0,1.0,1.0,20-60,0.0,,power strip,fan,60.0,20.0,power strip10,fan4,60.0,0.0,6bd437c9-6165-4d36-bf75-9a1038783c6a_400.jpg,AFAN39.jpg,/static/Category_learning/Stimuli/Experimental_stims/power strip/6bd437c9-6165-4d36-bf75-9a1038783c6a_400.jpg,/static/Category_learning/Stimuli/Experimental_stims/fan/AFAN39.jpg,1.0,power strip,fan,60.0,20.0,power strip10,fan4,60.0,0.0,0.0,266.387,0.887,,,,,,
255,,confirmation,,html-keyboard-response,255,448165,0.0-1.0-51.0-0.0-1.0-0.0,0,0,82892,,,,,,49.0,,,,,,,,,,,,,,,,,,,,,,,,,,,,,,,,267.0,0.613,,,,,,
256,,isi,,html-keyboard-response,256,449669,0.0-1.0-51.0-0.0-2.0,0,0,82892,,,,,,,,,,,,,,,,,,,,,,,,,,,,,,,,,,,,,,268.5,1.5,,,,,,
257,,feedback,,html-keyboard-response,257,450675,0.0-1.0-51.0-0.0-3.0-0.0,0,0,82892,,,,,,49.0,,,,,,,,,,,,,,,,,,,,,,,,,,,,,,,,269.5,1.0,,,,,,
258,,iti,,html-keyboard-response,258,452182,0.0-1.0-51.0-0.0-5.0,0,0,82892,,,,,,,,,,,,,,,,,,,,,,,,,,,,,,,,,,,,,,271.0,1.5,,,,,,
259,,choice,,html-keyboard-response,259,453134,0.0-1.0-52.0-0.0-0.0,0,0,82892,,947.0,,,75.0,50.0,50.0,1000.0,1500.0,0.0,1.0,0.0,40-80,,0.0,frame,vase,40.0,80.0,frame11,vase14,60.0,80.0,AFRAME139.jpg,Avase119.jpg,/static/Category_learning/Stimuli/Experimental_stims/frame/AFRAME139.jpg,/static/Category_learning/Stimuli/Experimental_stims/vase/Avase119.jpg,0.0,vase,frame,80.0,40.0,vase14,frame11,80.0,60.0,0.0,271.947,0.947,,,,,,
260,,confirmation,,html-keyboard-response,260,453692,0.0-1.0-52.0-0.0-1.0-0.0,0,0,82892,,,,,,50.0,,,,,,,,,,,,,,,,,,,,,,,,,,,,,,,,272.5,0.553,,,,,,
261,,isi,,html-keyboard-response,261,454698,0.0-1.0-52.0-0.0-2.0,0,0,82892,,,,,,,,,,,,,,,,,,,,,,,,,,,,,,,,,,,,,,273.5,1.0,,,,,,
262,,feedback,,html-keyboard-response,262,455703,0.0-1.0-52.0-0.0-3.0-0.0,0,0,82892,,,,,,50.0,,,,,,,,,,,,,,,,,,,,,,,,,,,,,,,,274.5,1.0,,,,,,
263,,iti,,html-keyboard-response,263,457207,0.0-1.0-52.0-0.0-5.0,0,0,82892,,,,,,,,,,,,,,,,,,,,,,,,,,,,,,,,,,,,,,276.0,1.5,,,,,,
264,,choice,,html-keyboard-response,264,458079,0.0-1.0-53.0-0.0-0.0,0,0,82892,,867.0,,,68.0,51.0,51.0,2000.0,2000.0,0.0,1.0,0.0,20-60,,1.0,seashell,door knob,60.0,20.0,seashell11,door knob1,80.0,0.0,ASEASH12.jpg,Brass_Door_Handle.jpg,/static/Category_learning/Stimuli/Experimental_stims/seashell/ASEASH12.jpg,/static/Category_learning/Stimuli/Experimental_stims/door knob/Brass_Door_Handle.jpg,1.0,seashell,door knob,60.0,20.0,seashell11,door knob1,80.0,0.0,0.0,276.867,0.867,,,,,,
265,,confirmation,,html-keyboard-response,265,458718,0.0-1.0-53.0-0.0-1.0-0.0,0,0,82892,,,,,,51.0,,,,,,,,,,,,,,,,,,,,,,,,,,,,,,,,277.5,0.633,,,,,,
266,,isi,,html-keyboard-response,266,460725,0.0-1.0-53.0-0.0-2.0,0,0,82892,,,,,,,,,,,,,,,,,,,,,,,,,,,,,,,,,,,,,,279.5,2.0,,,,,,
267,,feedback,,html-keyboard-response,267,461732,0.0-1.0-53.0-0.0-3.0-0.0,0,0,82892,,,,,,51.0,,,,,,,,,,,,,,,,,,,,,,,,,,,,,,,,280.5,1.0,,,,,,
268,,iti,,html-keyboard-response,268,463740,0.0-1.0-53.0-0.0-5.0,0,0,82892,,,,,,,,,,,,,,,,,,,,,,,,,,,,,,,,,,,,,,282.5,2.0,,,,,,
269,,choice,,html-keyboard-response,269,464889,0.0-1.0-54.0-0.0-0.0,0,0,82892,,1142.0,,,75.0,52.0,52.0,2000.0,1000.0,0.0,1.0,0.0,20-40,,0.0,flashlight,makeup compact,20.0,40.0,flashlight2,makeup compact13,0.0,40.0,AV-9 No Battery Flashlight.jpg,31YfapjS3TL._AA250_.jpg,/static/Category_learning/Stimuli/Experimental_stims/flashlight/AV-9 No Battery Flashlight.jpg,/static/Category_learning/Stimuli/Experimental_stims/makeup compact/31YfapjS3TL._AA250_.jpg,0.0,makeup compact,flashlight,40.0,20.0,makeup compact13,flashlight2,40.0,0.0,0.0,283.642,1.142,,,,,,
270,,confirmation,,html-keyboard-response,270,465255,0.0-1.0-54.0-0.0-1.0-0.0,0,0,82892,,,,,,52.0,,,,,,,,,,,,,,,,,,,,,,,,,,,,,,,,284.0,0.358,,,,,,
271,,isi,,html-keyboard-response,271,467260,0.0-1.0-54.0-0.0-2.0,0,0,82892,,,,,,,,,,,,,,,,,,,,,,,,,,,,,,,,,,,,,,286.0,2.0,,,,,,
272,,feedback,,html-keyboard-response,272,468268,0.0-1.0-54.0-0.0-3.0-0.0,0,0,82892,,,,,,52.0,,,,,,,,,,,,,,,,,,,,,,,,,,,,,,,,287.0,1.0,,,,,,
273,,iti,,html-keyboard-response,273,469275,0.0-1.0-54.0-0.0-5.0,0,0,82892,,,,,,,,,,,,,,,,,,,,,,,,,,,,,,,,,,,,,,288.0,1.0,,,,,,
274,,choice,,html-keyboard-response,274,470008,0.0-1.0-55.0-0.0-0.0,0,0,82892,,730.0,,,68.0,53.0,53.0,1500.0,1000.0,0.0,1.0,0.0,20-60,,1.0,sofa,bongo,60.0,20.0,sofa4,bongo4,40.0,0.0,ALOVSEA15.jpg,26390708.thl.jpg,/static/Category_learning/Stimuli/Experimental_stims/sofa/ALOVSEA15.jpg,/static/Category_learning/Stimuli/Experimental_stims/bongo/26390708.thl.jpg,1.0,sofa,bongo,60.0,20.0,sofa4,bongo4,40.0,0.0,0.0,288.73,0.73,,,,,,
275,,confirmation,,html-keyboard-response,275,470786,0.0-1.0-55.0-0.0-1.0-0.0,0,0,82892,,,,,,53.0,,,,,,,,,,,,,,,,,,,,,,,,,,,,,,,,289.5,0.77,,,,,,
276,,isi,,html-keyboard-response,276,472290,0.0-1.0-55.0-0.0-2.0,0,0,82892,,,,,,,,,,,,,,,,,,,,,,,,,,,,,,,,,,,,,,291.0,1.5,,,,,,
277,,feedback,,html-keyboard-response,277,473298,0.0-1.0-55.0-0.0-3.0-0.0,0,0,82892,,,,,,53.0,,,,,,,,,,,,,,,,,,,,,,,,,,,,,,,,292.0,1.0,,,,,,
278,,iti,,html-keyboard-response,278,474306,0.0-1.0-55.0-0.0-5.0,0,0,82892,,,,,,,,,,,,,,,,,,,,,,,,,,,,,,,,,,,,,,293.0,1.0,,,,,,
279,,choice,,html-keyboard-response,279,475300,0.0-1.0-56.0-0.0-0.0,0,0,82892,,991.0,,,68.0,54.0,54.0,1000.0,1000.0,0.0,1.0,1.0,60-60,1.0,,sofa,sofa,60.0,60.0,sofa4,sofa6,40.0,80.0,ALOVSEA15.jpg,wilkie-sofa-250h-new-cd.jpg,/static/Category_learning/Stimuli/Experimental_stims/sofa/ALOVSEA15.jpg,/static/Category_learning/Stimuli/Experimental_stims/sofa/wilkie-sofa-250h-new-cd.jpg,1.0,sofa,sofa,60.0,60.0,sofa4,sofa6,40.0,80.0,0.0,293.991,0.991,,,,,,
280,,confirmation,,html-keyboard-response,280,475815,0.0-1.0-56.0-0.0-1.0-0.0,0,0,82892,,,,,,54.0,,,,,,,,,,,,,,,,,,,,,,,,,,,,,,,,294.5,0.509,,,,,,
281,,isi,,html-keyboard-response,281,476823,0.0-1.0-56.0-0.0-2.0,0,0,82892,,,,,,,,,,,,,,,,,,,,,,,,,,,,,,,,,,,,,,295.5,1.0,,,,,,
282,,feedback,,html-keyboard-response,282,477831,0.0-1.0-56.0-0.0-3.0-0.0,0,0,82892,,,,,,54.0,,,,,,,,,,,,,,,,,,,,,,,,,,,,,,,,296.5,1.0,,,,,,
283,,iti,,html-keyboard-response,283,478839,0.0-1.0-56.0-0.0-5.0,0,0,82892,,,,,,,,,,,,,,,,,,,,,,,,,,,,,,,,,,,,,,297.5,1.0,,,,,,
284,,choice,,html-keyboard-response,284,479572,0.0-1.0-57.0-0.0-0.0,0,0,82892,,726.0,,,75.0,55.0,55.0,1000.0,1500.0,0.0,1.0,0.0,20-80,,0.0,flashlight,train,20.0,80.0,flashlight14,train11,20.0,60.0,freeplay-jonta-flashlight.jpg,train1.jpg,/static/Category_learning/Stimuli/Experimental_stims/flashlight/freeplay-jonta-flashlight.jpg,/static/Category_learning/Stimuli/Experimental_stims/train/train1.jpg,0.0,train,flashlight,80.0,20.0,train11,flashlight14,60.0,20.0,0.0,298.226,0.726,,,,,,
285,,confirmation,,html-keyboard-response,285,480354,0.0-1.0-57.0-0.0-1.0-0.0,0,0,82892,,,,,,55.0,,,,,,,,,,,,,,,,,,,,,,,,,,,,,,,,299.0,0.774,,,,,,
286,,isi,,html-keyboard-response,286,481362,0.0-1.0-57.0-0.0-2.0,0,0,82892,,,,,,,,,,,,,,,,,,,,,,,,,,,,,,,,,,,,,,300.0,1.0,,,,,,
287,,feedback,,html-keyboard-response,287,482370,0.0-1.0-57.0-0.0-3.0-0.0,0,0,82892,,,,,,55.0,,,,,,,,,,,,,,,,,,,,,,,,,,,,,,,,301.0,1.0,,,,,,
288,,iti,,html-keyboard-response,288,483874,0.0-1.0-57.0-0.0-5.0,0,0,82892,,,,,,,,,,,,,,,,,,,,,,,,,,,,,,,,,,,,,,302.5,1.5,,,,,,
289,,choice,,html-keyboard-response,289,484831,0.0-1.0-58.0-0.0-0.0,0,0,82892,,951.0,,,75.0,56.0,56.0,1000.0,1500.0,0.0,1.0,0.0,20-80,,0.0,fan,stool,20.0,80.0,fan12,stool9,0.0,100.0,116544_sk_lg.jpg,ASTOOL7.jpg,/static/Category_learning/Stimuli/Experimental_stims/fan/116544_sk_lg.jpg,/static/Category_learning/Stimuli/Experimental_stims/stool/ASTOOL7.jpg,0.0,stool,fan,80.0,20.0,stool9,fan12,100.0,0.0,0.0,303.451,0.951,,,,,,
290,,confirmation,,html-keyboard-response,290,485389,0.0-1.0-58.0-0.0-1.0-0.0,0,0,82892,,,,,,56.0,,,,,,,,,,,,,,,,,,,,,,,,,,,,,,,,304.0,0.549,,,,,,
291,,isi,,html-keyboard-response,291,486396,0.0-1.0-58.0-0.0-2.0,0,0,82892,,,,,,,,,,,,,,,,,,,,,,,,,,,,,,,,,,,,,,305.0,1.0,,,,,,
292,,feedback,,html-keyboard-response,292,487404,0.0-1.0-58.0-0.0-3.0-0.0,0,0,82892,,,,,,56.0,,,,,,,,,,,,,,,,,,,,,,,,,,,,,,,,306.0,1.0,,,,,,
293,,iti,,html-keyboard-response,293,488909,0.0-1.0-58.0-0.0-5.0,0,0,82892,,,,,,,,,,,,,,,,,,,,,,,,,,,,,,,,,,,,,,307.5,1.5,,,,,,
294,,choice,,html-keyboard-response,294,489794,0.0-1.0-59.0-0.0-0.0,0,0,82892,,880.0,,,68.0,57.0,57.0,1500.0,1000.0,0.0,1.0,0.0,20-40,,1.0,motorcycle,bench,40.0,20.0,motorcycle12,bench4,40.0,0.0,motorcycle14.jpg,30892819.thl.jpg,/static/Category_learning/Stimuli/Experimental_stims/motorcycle/motorcycle14.jpg,/static/Category_learning/Stimuli/Experimental_stims/bench/30892819.thl.jpg,1.0,motorcycle,bench,40.0,20.0,motorcycle12,bench4,40.0,0.0,0.0,308.38,0.88,,,,,,
295,,confirmation,,html-keyboard-response,295,490423,0.0-1.0-59.0-0.0-1.0-0.0,0,0,82892,,,,,,57.0,,,,,,,,,,,,,,,,,,,,,,,,,,,,,,,,309.0,0.62,,,,,,
296,,isi,,html-keyboard-response,296,491927,0.0-1.0-59.0-0.0-2.0,0,0,82892,,,,,,,,,,,,,,,,,,,,,,,,,,,,,,,,,,,,,,310.5,1.5,,,,,,
297,,feedback,,html-keyboard-response,297,492935,0.0-1.0-59.0-0.0-3.0-0.0,0,0,82892,,,,,,57.0,,,,,,,,,,,,,,,,,,,,,,,,,,,,,,,,311.5,1.0,,,,,,
298,,iti,,html-keyboard-response,298,493942,0.0-1.0-59.0-0.0-5.0,0,0,82892,,,,,,,,,,,,,,,,,,,,,,,,,,,,,,,,,,,,,,312.5,1.0,,,,,,
299,,choice,,html-keyboard-response,299,494991,0.0-1.0-60.0-0.0-0.0,0,0,82892,,1044.0,,,75.0,58.0,58.0,1000.0,2000.0,0.0,1.0,1.0,40-40,1.0,,makeup compact,makeup compact,40.0,40.0,makeup compact5,makeup compact13,60.0,40.0,P109965_hero.jpg,31YfapjS3TL._AA250_.jpg,/static/Category_learning/Stimuli/Experimental_stims/makeup compact/P109965_hero.jpg,/static/Category_learning/Stimuli/Experimental_stims/makeup compact/31YfapjS3TL._AA250_.jpg,0.0,makeup compact,makeup compact,40.0,40.0,makeup compact13,makeup compact5,40.0,60.0,0.0,313.544,1.044,,,,,,
300,,confirmation,,html-keyboard-response,300,495452,0.0-1.0-60.0-0.0-1.0-0.0,0,0,82892,,,,,,58.0,,,,,,,,,,,,,,,,,,,,,,,,,,,,,,,,314.0,0.456,,,,,,
301,,isi,,html-keyboard-response,301,496458,0.0-1.0-60.0-0.0-2.0,0,0,82892,,,,,,,,,,,,,,,,,,,,,,,,,,,,,,,,,,,,,,315.0,1.0,,,,,,
302,,feedback,,html-keyboard-response,302,497464,0.0-1.0-60.0-0.0-3.0-0.0,0,0,82892,,,,,,58.0,,,,,,,,,,,,,,,,,,,,,,,,,,,,,,,,316.0,1.0,,,,,,
303,,iti,,html-keyboard-response,303,499469,0.0-1.0-60.0-0.0-5.0,0,0,82892,,,,,,,,,,,,,,,,,,,,,,,,,,,,,,,,,,,,,,318.0,2.0,,,,,,
304,,choice,,html-keyboard-response,304,500339,0.0-1.0-61.0-0.0-0.0,0,0,82892,,865.0,,,75.0,59.0,59.0,2000.0,2000.0,0.0,1.0,0.0,40-80,,0.0,microscope,yarn,40.0,80.0,microscope12,yarn2,40.0,60.0,usbdigitalmicroscope1_small1.jpg,Aballofyarn66.jpg,/static/Category_learning/Stimuli/Experimental_stims/microscope/usbdigitalmicroscope1_small1.jpg,/static/Category_learning/Stimuli/Experimental_stims/yarn/Aballofyarn66.jpg,0.0,yarn,microscope,80.0,40.0,yarn2,microscope12,60.0,40.0,0.0,318.865,0.865,,,,,,
305,,confirmation,,html-keyboard-response,305,500984,0.0-1.0-61.0-0.0-1.0-0.0,0,0,82892,,,,,,59.0,,,,,,,,,,,,,,,,,,,,,,,,,,,,,,,,319.5,0.635,,,,,,
306,,isi,,html-keyboard-response,306,502991,0.0-1.0-61.0-0.0-2.0,0,0,82892,,,,,,,,,,,,,,,,,,,,,,,,,,,,,,,,,,,,,,321.5,2.0,,,,,,
307,,feedback,,html-keyboard-response,307,503997,0.0-1.0-61.0-0.0-3.0-0.0,0,0,82892,,,,,,59.0,,,,,,,,,,,,,,,,,,,,,,,,,,,,,,,,322.5,1.0,,,,,,
308,,iti,,html-keyboard-response,308,506004,0.0-1.0-61.0-0.0-5.0,0,0,82892,,,,,,,,,,,,,,,,,,,,,,,,,,,,,,,,,,,,,,324.5,2.0,,,,,,
309,,choice,,html-keyboard-response,309,506686,0.0-1.0-62.0-0.0-0.0,0,0,82892,,677.0,,,68.0,60.0,60.0,1000.0,1500.0,0.0,1.0,0.0,60-60,,,nail polish,necklace,60.0,60.0,nail polish2,necklace8,80.0,40.0,froggy_t.jpg,Anecklace20.jpg,/static/Category_learning/Stimuli/Experimental_stims/nail polish/froggy_t.jpg,/static/Category_learning/Stimuli/Experimental_stims/necklace/Anecklace20.jpg,1.0,nail polish,necklace,60.0,60.0,nail polish2,necklace8,80.0,40.0,0.0,325.177,0.677,,,,,,
310,,confirmation,,html-keyboard-response,310,507517,0.0-1.0-62.0-0.0-1.0-0.0,0,0,82892,,,,,,60.0,,,,,,,,,,,,,,,,,,,,,,,,,,,,,,,,326.0,0.823,,,,,,
311,,isi,,html-keyboard-response,311,508520,0.0-1.0-62.0-0.0-2.0,0,0,82892,,,,,,,,,,,,,,,,,,,,,,,,,,,,,,,,,,,,,,327.0,1.0,,,,,,
312,,feedback,,html-keyboard-response,312,509528,0.0-1.0-62.0-0.0-3.0-0.0,0,0,82892,,,,,,60.0,,,,,,,,,,,,,,,,,,,,,,,,,,,,,,,,328.0,1.0,,,,,,
313,,iti,,html-keyboard-response,313,511032,0.0-1.0-62.0-0.0-5.0,0,0,82892,,,,,,,,,,,,,,,,,,,,,,,,,,,,,,,,,,,,,,329.5,1.5,,,,,,
314,,choice,,html-keyboard-response,314,511975,0.0-1.0-63.0-0.0-0.0,0,0,82892,,938.0,,,75.0,61.0,61.0,1000.0,1500.0,0.0,1.0,0.0,60-80,,1.0,stool,small table,80.0,60.0,stool15,small table6,100.0,80.0,ASTOOL.jpg,ATABLE88.jpg,/static/Category_learning/Stimuli/Experimental_stims/stool/ASTOOL.jpg,/static/Category_learning/Stimuli/Experimental_stims/small table/ATABLE88.jpg,0.0,small table,stool,60.0,80.0,small table6,stool15,80.0,100.0,0.0,330.438,0.938,,,,,,
315,,confirmation,,html-keyboard-response,315,512547,0.0-1.0-63.0-0.0-1.0-0.0,0,0,82892,,,,,,61.0,,,,,,,,,,,,,,,,,,,,,,,,,,,,,,,,331.0,0.562,,,,,,
316,,isi,,html-keyboard-response,316,513554,0.0-1.0-63.0-0.0-2.0,0,0,82892,,,,,,,,,,,,,,,,,,,,,,,,,,,,,,,,,,,,,,332.0,1.0,,,,,,
317,,feedback,,html-keyboard-response,317,514562,0.0-1.0-63.0-0.0-3.0-0.0,0,0,82892,,,,,,61.0,,,,,,,,,,,,,,,,,,,,,,,,,,,,,,,,333.0,1.0,,,,,,
318,,iti,,html-keyboard-response,318,516067,0.0-1.0-63.0-0.0-5.0,0,0,82892,,,,,,,,,,,,,,,,,,,,,,,,,,,,,,,,,,,,,,334.5,1.5,,,,,,
319,,choice,,html-keyboard-response,319,517029,0.0-1.0-64.0-0.0-0.0,0,0,82892,,957.0,,,75.0,62.0,62.0,1000.0,1000.0,0.0,1.0,0.0,40-60,,1.0,seashell,microscope,60.0,40.0,seashell9,microscope11,80.0,20.0,ASEASH5.jpg,konus5604microscope.jpg,/static/Category_learning/Stimuli/Experimental_stims/seashell/ASEASH5.jpg,/static/Category_learning/Stimuli/Experimental_stims/microscope/konus5604microscope.jpg,0.0,microscope,seashell,40.0,60.0,microscope11,seashell9,20.0,80.0,0.0,335.457,0.957,,,,,,
320,,confirmation,,html-keyboard-response,320,517581,0.0-1.0-64.0-0.0-1.0-0.0,0,0,82892,,,,,,62.0,,,,,,,,,,,,,,,,,,,,,,,,,,,,,,,,336.0,0.543,,,,,,
321,,isi,,html-keyboard-response,321,518590,0.0-1.0-64.0-0.0-2.0,0,0,82892,,,,,,,,,,,,,,,,,,,,,,,,,,,,,,,,,,,,,,337.0,1.0,,,,,,
322,,feedback,,html-keyboard-response,322,519598,0.0-1.0-64.0-0.0-3.0-0.0,0,0,82892,,,,,,62.0,,,,,,,,,,,,,,,,,,,,,,,,,,,,,,,,338.0,1.0,,,,,,
323,,iti,,html-keyboard-response,323,520604,0.0-1.0-64.0-0.0-5.0,0,0,82892,,,,,,,,,,,,,,,,,,,,,,,,,,,,,,,,,,,,,,339.0,1.0,,,,,,
324,,choice,,html-keyboard-response,324,521351,0.0-1.0-65.0-0.0-0.0,0,0,82892,,743.0,,,68.0,63.0,63.0,1000.0,1500.0,0.0,1.0,0.0,20-80,,0.0,bowl,stool,20.0,80.0,bowl3,stool5,40.0,60.0,ABOWL8.jpg,ASTOOL23.jpg,/static/Category_learning/Stimuli/Experimental_stims/bowl/ABOWL8.jpg,/static/Category_learning/Stimuli/Experimental_stims/stool/ASTOOL23.jpg,1.0,bowl,stool,20.0,80.0,bowl3,stool5,40.0,60.0,0.0,339.743,0.743,,,,,,
325,,confirmation,,html-keyboard-response,325,522115,0.0-1.0-65.0-0.0-1.0-0.0,0,0,82892,,,,,,63.0,,,,,,,,,,,,,,,,,,,,,,,,,,,,,,,,340.5,0.757,,,,,,
326,,isi,,html-keyboard-response,326,523121,0.0-1.0-65.0-0.0-2.0,0,0,82892,,,,,,,,,,,,,,,,,,,,,,,,,,,,,,,,,,,,,,341.5,1.0,,,,,,
327,,feedback,,html-keyboard-response,327,524126,0.0-1.0-65.0-0.0-3.0-0.0,0,0,82892,,,,,,63.0,,,,,,,,,,,,,,,,,,,,,,,,,,,,,,,,342.5,1.0,,,,,,
328,,iti,,html-keyboard-response,328,525631,0.0-1.0-65.0-0.0-5.0,0,0,82892,,,,,,,,,,,,,,,,,,,,,,,,,,,,,,,,,,,,,,344.0,1.5,,,,,,
329,,choice,,html-keyboard-response,329,526430,0.0-1.0-66.0-0.0-0.0,0,0,82892,,793.0,,,75.0,64.0,64.0,1000.0,3500.0,0.0,1.0,1.0,60-60,1.0,,small table,small table,60.0,60.0,small table6,small table4,80.0,40.0,ATABLE88.jpg,ACOFTABLE.jpg,/static/Category_learning/Stimuli/Experimental_stims/small table/ATABLE88.jpg,/static/Category_learning/Stimuli/Experimental_stims/small table/ACOFTABLE.jpg,0.0,small table,small table,60.0,60.0,small table4,small table6,40.0,80.0,0.0,344.793,0.793,,,,,,
330,,confirmation,,html-keyboard-response,330,527143,0.0-1.0-66.0-0.0-1.0-0.0,0,0,82892,,,,,,64.0,,,,,,,,,,,,,,,,,,,,,,,,,,,,,,,,345.5,0.707,,,,,,
331,,isi,,html-keyboard-response,331,528147,0.0-1.0-66.0-0.0-2.0,0,0,82892,,,,,,,,,,,,,,,,,,,,,,,,,,,,,,,,,,,,,,346.5,1.0,,,,,,
332,,feedback,,html-keyboard-response,332,529155,0.0-1.0-66.0-0.0-3.0-0.0,0,0,82892,,,,,,64.0,,,,,,,,,,,,,,,,,,,,,,,,,,,,,,,,347.5,1.0,,,,,,
333,,iti,,html-keyboard-response,333,532663,0.0-1.0-66.0-0.0-5.0,0,0,82892,,,,,,,,,,,,,,,,,,,,,,,,,,,,,,,,,,,,,,351.0,3.5,,,,,,
334,,block_over,,html-keyboard-response,334,570156,0.0-1.0-66.0-0.0-7.0-0.0,0,0,82892,,37483.0,,,68.0,64.0,,,,,,,,,,,,,,,,,,,,,,,,,,,,,,,,,,,,,,,
335,,start_run,,html-keyboard-response,335,571692,0.0-1.0-66.0-0.0-7.0-1.0,0,0,82892,,1533.0,,,84.0,,,,,,,,,,,,,,,,,,,,,,,,,,,,,,,,,,,,,,,,
336,,choice,,html-keyboard-response,336,572771,0.0-1.0-67.0-0.0-0.0,0,0,82892,,1073.0,,,75.0,65.0,65.0,1000.0,1000.0,0.0,2.0,0.0,40-80,,1.0,watch,makeup compact,80.0,40.0,watch1,makeup compact9,80.0,40.0,B000B5K8XI.01-A2E7J74KJYV9ZH._AA280_SCLZZZZZZZ_V53007008_.jpg,b_102019.jpg,/static/Category_learning/Stimuli/Experimental_stims/watch/B000B5K8XI.01-A2E7J74KJYV9ZH._AA280_SCLZZZZZZZ_V53007008_.jpg,/static/Category_learning/Stimuli/Experimental_stims/makeup compact/b_102019.jpg,0.0,makeup compact,watch,40.0,80.0,makeup compact9,watch1,40.0,80.0,0.0,1.073,1.073,,,,,,
337,,confirmation,,html-keyboard-response,337,573205,0.0-1.0-67.0-0.0-1.0-0.0,0,0,82892,,,,,,65.0,,,,,,,,,,,,,,,,,,,,,,,,,,,,,,,,1.5,0.427,,,,,,
338,,isi,,html-keyboard-response,338,574213,0.0-1.0-67.0-0.0-2.0,0,0,82892,,,,,,,,,,,,,,,,,,,,,,,,,,,,,,,,,,,,,,2.5,1.0,,,,,,
339,,feedback,,html-keyboard-response,339,575225,0.0-1.0-67.0-0.0-3.0-0.0,0,0,82892,,,,,,65.0,,,,,,,,,,,,,,,,,,,,,,,,,,,,,,,,3.5,1.0,,,,,,
340,,iti,,html-keyboard-response,340,576230,0.0-1.0-67.0-0.0-5.0,0,0,82892,,,,,,,,,,,,,,,,,,,,,,,,,,,,,,,,,,,,,,4.5,1.0,,,,,,
341,,choice,,html-keyboard-response,341,576962,0.0-1.0-68.0-0.0-0.0,0,0,82892,,727.0,,,68.0,66.0,66.0,3500.0,2000.0,0.0,2.0,0.0,20-80,,1.0,vase,bench,80.0,20.0,vase12,bench13,100.0,40.0,Abluevase2.jpg,ABROWNBE4.jpg,/static/Category_learning/Stimuli/Experimental_stims/vase/Abluevase2.jpg,/static/Category_learning/Stimuli/Experimental_stims/bench/ABROWNBE4.jpg,1.0,vase,bench,80.0,20.0,vase12,bench13,100.0,40.0,0.0,5.227,0.727,,,,,,
342,,confirmation,,html-keyboard-response,342,577742,0.0-1.0-68.0-0.0-1.0-0.0,0,0,82892,,,,,,66.0,,,,,,,,,,,,,,,,,,,,,,,,,,,,,,,,6.0,0.773,,,,,,
343,,isi,,html-keyboard-response,343,581248,0.0-1.0-68.0-0.0-2.0,0,0,82892,,,,,,,,,,,,,,,,,,,,,,,,,,,,,,,,,,,,,,9.5,3.5,,,,,,
344,,feedback,,html-keyboard-response,344,582255,0.0-1.0-68.0-0.0-3.0-0.0,0,0,82892,,,,,,66.0,,,,,,,,,,,,,,,,,,,,,,,,,,,,,,,,10.5,1.0,,,,,,
345,,iti,,html-keyboard-response,345,584263,0.0-1.0-68.0-0.0-5.0,0,0,82892,,,,,,,,,,,,,,,,,,,,,,,,,,,,,,,,,,,,,,12.5,2.0,,,,,,
346,,choice,,html-keyboard-response,346,585079,0.0-1.0-69.0-0.0-0.0,0,0,82892,,811.0,,,75.0,67.0,67.0,1000.0,1000.0,0.0,2.0,0.0,20-80,,0.0,fan,trumpet,20.0,80.0,fan2,trumpet12,40.0,80.0,507349_sk_lg.jpg,hornabariton.jpg,/static/Category_learning/Stimuli/Experimental_stims/fan/507349_sk_lg.jpg,/static/Category_learning/Stimuli/Experimental_stims/trumpet/hornabariton.jpg,0.0,trumpet,fan,80.0,20.0,trumpet12,fan2,80.0,40.0,0.0,13.311,0.811,,,,,,
347,,confirmation,,html-keyboard-response,347,585776,0.0-1.0-69.0-0.0-1.0-0.0,0,0,82892,,,,,,67.0,,,,,,,,,,,,,,,,,,,,,,,,,,,,,,,,14.0,0.689,,,,,,
348,,isi,,html-keyboard-response,348,586784,0.0-1.0-69.0-0.0-2.0,0,0,82892,,,,,,,,,,,,,,,,,,,,,,,,,,,,,,,,,,,,,,15.0,1.0,,,,,,
349,,feedback,,html-keyboard-response,349,587792,0.0-1.0-69.0-0.0-3.0-0.0,0,0,82892,,,,,,67.0,,,,,,,,,,,,,,,,,,,,,,,,,,,,,,,,16.0,1.0,,,,,,
350,,iti,,html-keyboard-response,350,588799,0.0-1.0-69.0-0.0-5.0,0,0,82892,,,,,,,,,,,,,,,,,,,,,,,,,,,,,,,,,,,,,,17.0,1.0,,,,,,
351,,choice,,html-keyboard-response,351,589784,0.0-1.0-70.0-0.0-0.0,0,0,82892,,979.0,,,75.0,68.0,68.0,2000.0,1000.0,0.0,2.0,0.0,60-60,,,pen,poker card,60.0,60.0,pen4,poker card9,80.0,80.0,Montblanc_Greta_Garbo_BP copy.jpg,9817230.thl.jpg,/static/Category_learning/Stimuli/Experimental_stims/pen/Montblanc_Greta_Garbo_BP copy.jpg,/static/Category_learning/Stimuli/Experimental_stims/poker card/9817230.thl.jpg,0.0,poker card,pen,60.0,60.0,poker card9,pen4,80.0,80.0,0.0,17.979,0.979,,,,,,
352,,confirmation,,html-keyboard-response,352,590311,0.0-1.0-70.0-0.0-1.0-0.0,0,0,82892,,,,,,68.0,,,,,,,,,,,,,,,,,,,,,,,,,,,,,,,,18.5,0.521,,,,,,
353,,isi,,html-keyboard-response,353,592320,0.0-1.0-70.0-0.0-2.0,0,0,82892,,,,,,,,,,,,,,,,,,,,,,,,,,,,,,,,,,,,,,20.5,2.0,,,,,,
354,,feedback,,html-keyboard-response,354,593328,0.0-1.0-70.0-0.0-3.0-0.0,0,0,82892,,,,,,68.0,,,,,,,,,,,,,,,,,,,,,,,,,,,,,,,,21.5,1.0,,,,,,
355,,iti,,html-keyboard-response,355,594336,0.0-1.0-70.0-0.0-5.0,0,0,82892,,,,,,,,,,,,,,,,,,,,,,,,,,,,,,,,,,,,,,22.5,1.0,,,,,,
356,,choice,,html-keyboard-response,356,595076,0.0-1.0-71.0-0.0-0.0,0,0,82892,,735.0,,,75.0,69.0,69.0,1000.0,1000.0,0.0,2.0,0.0,20-20,,,baby carriage,fan,20.0,20.0,baby carriage9,fan11,0.0,0.0,Antique baby Carriage 7.jpg,n_sf.jpg,/static/Category_learning/Stimuli/Experimental_stims/baby carriage/Antique baby Carriage 7.jpg,/static/Category_learning/Stimuli/Experimental_stims/fan/n_sf.jpg,0.0,fan,baby carriage,20.0,20.0,fan11,baby carriage9,0.0,0.0,0.0,23.235,0.735,,,,,,
357,,confirmation,,html-keyboard-response,357,595848,0.0-1.0-71.0-0.0-1.0-0.0,0,0,82892,,,,,,69.0,,,,,,,,,,,,,,,,,,,,,,,,,,,,,,,,24.0,0.765,,,,,,
358,,isi,,html-keyboard-response,358,596853,0.0-1.0-71.0-0.0-2.0,0,0,82892,,,,,,,,,,,,,,,,,,,,,,,,,,,,,,,,,,,,,,25.0,1.0,,,,,,
359,,feedback,,html-keyboard-response,359,597862,0.0-1.0-71.0-0.0-3.0-0.0,0,0,82892,,,,,,69.0,,,,,,,,,,,,,,,,,,,,,,,,,,,,,,,,26.0,1.0,,,,,,
360,,iti,,html-keyboard-response,360,598869,0.0-1.0-71.0-0.0-5.0,0,0,82892,,,,,,,,,,,,,,,,,,,,,,,,,,,,,,,,,,,,,,27.0,1.0,,,,,,
361,,choice,,html-keyboard-response,361,599774,0.0-1.0-72.0-0.0-0.0,0,0,82892,,900.0,,,75.0,70.0,70.0,1500.0,1000.0,0.0,2.0,0.0,20-80,,1.0,stool,dresser,80.0,20.0,stool2,dresser1,60.0,0.0,ASTOOL46.jpg,ADRESSE52.jpg,/static/Category_learning/Stimuli/Experimental_stims/stool/ASTOOL46.jpg,/static/Category_learning/Stimuli/Experimental_stims/dresser/ADRESSE52.jpg,0.0,dresser,stool,20.0,80.0,dresser1,stool2,0.0,60.0,0.0,27.9,0.9,,,,,,
362,,confirmation,,html-keyboard-response,362,600379,0.0-1.0-72.0-0.0-1.0-0.0,0,0,82892,,,,,,70.0,,,,,,,,,,,,,,,,,,,,,,,,,,,,,,,,28.5,0.6,,,,,,
363,,isi,,html-keyboard-response,363,601884,0.0-1.0-72.0-0.0-2.0,0,0,82892,,,,,,,,,,,,,,,,,,,,,,,,,,,,,,,,,,,,,,30.0,1.5,,,,,,
364,,feedback,,html-keyboard-response,364,602891,0.0-1.0-72.0-0.0-3.0-0.0,0,0,82892,,,,,,70.0,,,,,,,,,,,,,,,,,,,,,,,,,,,,,,,,31.0,1.0,,,,,,
365,,iti,,html-keyboard-response,365,603899,0.0-1.0-72.0-0.0-5.0,0,0,82892,,,,,,,,,,,,,,,,,,,,,,,,,,,,,,,,,,,,,,32.0,1.0,,,,,,
366,,choice,,html-keyboard-response,366,604802,0.0-1.0-73.0-0.0-0.0,0,0,82892,,898.0,,,68.0,71.0,71.0,3500.0,2000.0,0.0,2.0,0.0,20-80,,0.0,desk,stool,20.0,80.0,desk4,stool11,40.0,60.0,AbbeyMiniRadialBIG(1).jpg,ASTOOL28.jpg,/static/Category_learning/Stimuli/Experimental_stims/desk/AbbeyMiniRadialBIG(1).jpg,/static/Category_learning/Stimuli/Experimental_stims/stool/ASTOOL28.jpg,1.0,desk,stool,20.0,80.0,desk4,stool11,40.0,60.0,0.0,32.898,0.898,,,,,,
367,,confirmation,,html-keyboard-response,367,605414,0.0-1.0-73.0-0.0-1.0-0.0,0,0,82892,,,,,,71.0,,,,,,,,,,,,,,,,,,,,,,,,,,,,,,,,33.5,0.602,,,,,,
368,,isi,,html-keyboard-response,368,608924,0.0-1.0-73.0-0.0-2.0,0,0,82892,,,,,,,,,,,,,,,,,,,,,,,,,,,,,,,,,,,,,,37.0,3.5,,,,,,
369,,feedback,,html-keyboard-response,369,609931,0.0-1.0-73.0-0.0-3.0-0.0,0,0,82892,,,,,,71.0,,,,,,,,,,,,,,,,,,,,,,,,,,,,,,,,38.0,1.0,,,,,,
370,,iti,,html-keyboard-response,370,611936,0.0-1.0-73.0-0.0-5.0,0,0,82892,,,,,,,,,,,,,,,,,,,,,,,,,,,,,,,,,,,,,,40.0,2.0,,,,,,
371,,choice,,html-keyboard-response,371,612638,0.0-1.0-74.0-0.0-0.0,0,0,82892,,697.0,,,75.0,72.0,72.0,2000.0,1500.0,0.0,2.0,0.0,40-60,,0.0,license plate,poker card,40.0,60.0,license plate1,poker card2,40.0,60.0,il-423-3784.jpg,22864716.thl.jpg,/static/Category_learning/Stimuli/Experimental_stims/license plate/il-423-3784.jpg,/static/Category_learning/Stimuli/Experimental_stims/poker card/22864716.thl.jpg,0.0,poker card,license plate,60.0,40.0,poker card2,license plate1,60.0,40.0,0.0,40.697,0.697,,,,,,
372,,confirmation,,html-keyboard-response,372,613447,0.0-1.0-74.0-0.0-1.0-0.0,0,0,82892,,,,,,72.0,,,,,,,,,,,,,,,,,,,,,,,,,,,,,,,,41.5,0.803,,,,,,
373,,isi,,html-keyboard-response,373,615451,0.0-1.0-74.0-0.0-2.0,0,0,82892,,,,,,,,,,,,,,,,,,,,,,,,,,,,,,,,,,,,,,43.5,2.0,,,,,,
374,,feedback,,html-keyboard-response,374,616459,0.0-1.0-74.0-0.0-3.0-0.0,0,0,82892,,,,,,72.0,,,,,,,,,,,,,,,,,,,,,,,,,,,,,,,,44.5,1.0,,,,,,
375,,iti,,html-keyboard-response,375,617964,0.0-1.0-74.0-0.0-5.0,0,0,82892,,,,,,,,,,,,,,,,,,,,,,,,,,,,,,,,,,,,,,46.0,1.5,,,,,,
376,,choice,,html-keyboard-response,376,618821,0.0-1.0-75.0-0.0-0.0,0,0,82892,,852.0,,,75.0,73.0,73.0,1500.0,1500.0,0.0,2.0,1.0,20-20,1.0,,desk,desk,20.0,20.0,desk4,desk14,40.0,0.0,AbbeyMiniRadialBIG(1).jpg,26419960.thl.jpg,/static/Category_learning/Stimuli/Experimental_stims/desk/AbbeyMiniRadialBIG(1).jpg,/static/Category_learning/Stimuli/Experimental_stims/desk/26419960.thl.jpg,0.0,desk,desk,20.0,20.0,desk14,desk4,0.0,40.0,0.0,46.852,0.852,,,,,,
377,,confirmation,,html-keyboard-response,377,619477,0.0-1.0-75.0-0.0-1.0-0.0,0,0,82892,,,,,,73.0,,,,,,,,,,,,,,,,,,,,,,,,,,,,,,,,47.5,0.648,,,,,,
378,,isi,,html-keyboard-response,378,620982,0.0-1.0-75.0-0.0-2.0,0,0,82892,,,,,,,,,,,,,,,,,,,,,,,,,,,,,,,,,,,,,,49.0,1.5,,,,,,
379,,feedback,,html-keyboard-response,379,621989,0.0-1.0-75.0-0.0-3.0-0.0,0,0,82892,,,,,,73.0,,,,,,,,,,,,,,,,,,,,,,,,,,,,,,,,50.0,1.0,,,,,,
380,,iti,,html-keyboard-response,380,623493,0.0-1.0-75.0-0.0-5.0,0,0,82892,,,,,,,,,,,,,,,,,,,,,,,,,,,,,,,,,,,,,,51.5,1.5,,,,,,
381,,choice,,html-keyboard-response,381,624240,0.0-1.0-76.0-0.0-0.0,0,0,82892,,742.0,,,75.0,74.0,74.0,1000.0,2000.0,0.0,2.0,0.0,20-60,,0.0,flashlight,poker card,20.0,60.0,flashlight8,poker card12,40.0,80.0,Streamlight-Stinger-Rechargeable-Flashlight-with-Charger-Black-75014-B00008BFSI-L.jpg,22865676.thl.jpg,/static/Category_learning/Stimuli/Experimental_stims/flashlight/Streamlight-Stinger-Rechargeable-Flashlight-with-Charger-Black-75014-B00008BFSI-L.jpg,/static/Category_learning/Stimuli/Experimental_stims/poker card/22865676.thl.jpg,0.0,poker card,flashlight,60.0,20.0,poker card12,flashlight8,80.0,40.0,0.0,52.242,0.742,,,,,,
382,,confirmation,,html-keyboard-response,382,625006,0.0-1.0-76.0-0.0-1.0-0.0,0,0,82892,,,,,,74.0,,,,,,,,,,,,,,,,,,,,,,,,,,,,,,,,53.0,0.758,,,,,,
383,,isi,,html-keyboard-response,383,626009,0.0-1.0-76.0-0.0-2.0,0,0,82892,,,,,,,,,,,,,,,,,,,,,,,,,,,,,,,,,,,,,,54.0,1.0,,,,,,
384,,feedback,,html-keyboard-response,384,627016,0.0-1.0-76.0-0.0-3.0-0.0,0,0,82892,,,,,,74.0,,,,,,,,,,,,,,,,,,,,,,,,,,,,,,,,55.0,1.0,,,,,,
385,,iti,,html-keyboard-response,385,629021,0.0-1.0-76.0-0.0-5.0,0,0,82892,,,,,,,,,,,,,,,,,,,,,,,,,,,,,,,,,,,,,,57.0,2.0,,,,,,
386,,choice,,html-keyboard-response,386,629815,0.0-1.0-77.0-0.0-0.0,0,0,82892,,788.0,,,68.0,75.0,75.0,1500.0,1000.0,0.0,2.0,0.0,20-80,,0.0,bongo,stool,20.0,80.0,bongo3,stool4,20.0,60.0,26390697.thl.jpg,ASTOOL22.jpg,/static/Category_learning/Stimuli/Experimental_stims/bongo/26390697.thl.jpg,/static/Category_learning/Stimuli/Experimental_stims/stool/ASTOOL22.jpg,1.0,bongo,stool,20.0,80.0,bongo3,stool4,20.0,60.0,0.0,57.788,0.788,,,,,,
387,,confirmation,,html-keyboard-response,387,630534,0.0-1.0-77.0-0.0-1.0-0.0,0,0,82892,,,,,,75.0,,,,,,,,,,,,,,,,,,,,,,,,,,,,,,,,58.5,0.712,,,,,,
388,,isi,,html-keyboard-response,388,632040,0.0-1.0-77.0-0.0-2.0,0,0,82892,,,,,,,,,,,,,,,,,,,,,,,,,,,,,,,,,,,,,,60.0,1.5,,,,,,
389,,feedback,,html-keyboard-response,389,633047,0.0-1.0-77.0-0.0-3.0-0.0,0,0,82892,,,,,,75.0,,,,,,,,,,,,,,,,,,,,,,,,,,,,,,,,61.0,1.0,,,,,,
390,,iti,,html-keyboard-response,390,634055,0.0-1.0-77.0-0.0-5.0,0,0,82892,,,,,,,,,,,,,,,,,,,,,,,,,,,,,,,,,,,,,,62.0,1.0,,,,,,
391,,choice,,html-keyboard-response,391,634928,0.0-1.0-78.0-0.0-0.0,0,0,82892,,868.0,,,68.0,76.0,76.0,3000.0,2000.0,0.0,2.0,0.0,40-40,,,makeup compact,motorcycle,40.0,40.0,makeup compact6,motorcycle8,20.0,20.0,P0754_hero.jpg,Motorcycle903425j2.jpg,/static/Category_learning/Stimuli/Experimental_stims/makeup compact/P0754_hero.jpg,/static/Category_learning/Stimuli/Experimental_stims/motorcycle/Motorcycle903425j2.jpg,1.0,makeup compact,motorcycle,40.0,40.0,makeup compact6,motorcycle8,20.0,20.0,0.0,62.868,0.868,,,,,,
392,,confirmation,,html-keyboard-response,392,635564,0.0-1.0-78.0-0.0-1.0-0.0,0,0,82892,,,,,,76.0,,,,,,,,,,,,,,,,,,,,,,,,,,,,,,,,63.5,0.632,,,,,,
393,,isi,,html-keyboard-response,393,638571,0.0-1.0-78.0-0.0-2.0,0,0,82892,,,,,,,,,,,,,,,,,,,,,,,,,,,,,,,,,,,,,,66.5,3.0,,,,,,
394,,feedback,,html-keyboard-response,394,639579,0.0-1.0-78.0-0.0-3.0-0.0,0,0,82892,,,,,,76.0,,,,,,,,,,,,,,,,,,,,,,,,,,,,,,,,67.5,1.0,,,,,,
395,,iti,,html-keyboard-response,395,641584,0.0-1.0-78.0-0.0-5.0,0,0,82892,,,,,,,,,,,,,,,,,,,,,,,,,,,,,,,,,,,,,,69.5,2.0,,,,,,
396,,choice,,html-keyboard-response,396,642457,0.0-1.0-79.0-0.0-0.0,0,0,82892,,867.0,,,68.0,77.0,77.0,3000.0,1000.0,0.0,2.0,1.0,80-80,1.0,,vase,vase,80.0,80.0,vase14,vase9,80.0,80.0,Avase119.jpg,Avasewithang2.jpg,/static/Category_learning/Stimuli/Experimental_stims/vase/Avase119.jpg,/static/Category_learning/Stimuli/Experimental_stims/vase/Avasewithang2.jpg,1.0,vase,vase,80.0,80.0,vase14,vase9,80.0,80.0,0.0,70.367,0.867,,,,,,
397,,confirmation,,html-keyboard-response,397,643099,0.0-1.0-79.0-0.0-1.0-0.0,0,0,82892,,,,,,77.0,,,,,,,,,,,,,,,,,,,,,,,,,,,,,,,,71.0,0.633,,,,,,
398,,isi,,html-keyboard-response,398,646106,0.0-1.0-79.0-0.0-2.0,0,0,82892,,,,,,,,,,,,,,,,,,,,,,,,,,,,,,,,,,,,,,74.0,3.0,,,,,,
399,,feedback,,html-keyboard-response,399,647114,0.0-1.0-79.0-0.0-3.0-0.0,0,0,82892,,,,,,77.0,,,,,,,,,,,,,,,,,,,,,,,,,,,,,,,,75.0,1.0,,,,,,
400,,iti,,html-keyboard-response,400,648117,0.0-1.0-79.0-0.0-5.0,0,0,82892,,,,,,,,,,,,,,,,,,,,,,,,,,,,,,,,,,,,,,76.0,1.0,,,,,,
401,,choice,,html-keyboard-response,401,648984,0.0-1.0-80.0-0.0-0.0,0,0,82892,,862.0,,,68.0,78.0,78.0,1500.0,1000.0,0.0,2.0,0.0,60-60,,,patio lounge chair,pen,60.0,60.0,patio lounge chair9,pen6,60.0,40.0,43-3.jpg,executive_pen2.jpg,/static/Category_learning/Stimuli/Experimental_stims/patio lounge chair/43-3.jpg,/static/Category_learning/Stimuli/Experimental_stims/pen/executive_pen2.jpg,1.0,patio lounge chair,pen,60.0,60.0,patio lounge chair9,pen6,60.0,40.0,0.0,76.862,0.862,,,,,,
402,,confirmation,,html-keyboard-response,402,649626,0.0-1.0-80.0-0.0-1.0-0.0,0,0,82892,,,,,,78.0,,,,,,,,,,,,,,,,,,,,,,,,,,,,,,,,77.5,0.638,,,,,,
403,,isi,,html-keyboard-response,403,651130,0.0-1.0-80.0-0.0-2.0,0,0,82892,,,,,,,,,,,,,,,,,,,,,,,,,,,,,,,,,,,,,,79.0,1.5,,,,,,
404,,feedback,,html-keyboard-response,404,652138,0.0-1.0-80.0-0.0-3.0-0.0,0,0,82892,,,,,,78.0,,,,,,,,,,,,,,,,,,,,,,,,,,,,,,,,80.0,1.0,,,,,,
405,,iti,,html-keyboard-response,405,653146,0.0-1.0-80.0-0.0-5.0,0,0,82892,,,,,,,,,,,,,,,,,,,,,,,,,,,,,,,,,,,,,,81.0,1.0,,,,,,
406,,choice,,html-keyboard-response,406,653996,0.0-1.0-81.0-0.0-0.0,0,0,82892,,846.0,,,75.0,79.0,79.0,1000.0,2000.0,0.0,2.0,1.0,40-40,1.0,,makeup compact,makeup compact,40.0,40.0,makeup compact9,makeup compact6,40.0,20.0,b_102019.jpg,P0754_hero.jpg,/static/Category_learning/Stimuli/Experimental_stims/makeup compact/b_102019.jpg,/static/Category_learning/Stimuli/Experimental_stims/makeup compact/P0754_hero.jpg,0.0,makeup compact,makeup compact,40.0,40.0,makeup compact6,makeup compact9,20.0,40.0,0.0,81.846,0.846,,,,,,
407,,confirmation,,html-keyboard-response,407,654655,0.0-1.0-81.0-0.0-1.0-0.0,0,0,82892,,,,,,79.0,,,,,,,,,,,,,,,,,,,,,,,,,,,,,,,,82.5,0.654,,,,,,
408,,isi,,html-keyboard-response,408,655664,0.0-1.0-81.0-0.0-2.0,0,0,82892,,,,,,,,,,,,,,,,,,,,,,,,,,,,,,,,,,,,,,83.5,1.0,,,,,,
409,,feedback,,html-keyboard-response,409,656671,0.0-1.0-81.0-0.0-3.0-0.0,0,0,82892,,,,,,79.0,,,,,,,,,,,,,,,,,,,,,,,,,,,,,,,,84.5,1.0,,,,,,
410,,iti,,html-keyboard-response,410,658676,0.0-1.0-81.0-0.0-5.0,0,0,82892,,,,,,,,,,,,,,,,,,,,,,,,,,,,,,,,,,,,,,86.5,2.0,,,,,,
411,,choice,,html-keyboard-response,411,659614,0.0-1.0-82.0-0.0-0.0,0,0,82892,,932.0,,,75.0,80.0,80.0,2000.0,1000.0,0.0,2.0,0.0,20-60,,0.0,bowl,necklace,20.0,60.0,bowl7,necklace4,20.0,40.0,Abowl54.jpg,emerald_diamond_necklace.jpg,/static/Category_learning/Stimuli/Experimental_stims/bowl/Abowl54.jpg,/static/Category_learning/Stimuli/Experimental_stims/necklace/emerald_diamond_necklace.jpg,0.0,necklace,bowl,60.0,20.0,necklace4,bowl7,40.0,20.0,0.0,87.432,0.932,,,,,,
412,,confirmation,,html-keyboard-response,412,660191,0.0-1.0-82.0-0.0-1.0-0.0,0,0,82892,,,,,,80.0,,,,,,,,,,,,,,,,,,,,,,,,,,,,,,,,88.0,0.568,,,,,,
413,,isi,,html-keyboard-response,413,662197,0.0-1.0-82.0-0.0-2.0,0,0,82892,,,,,,,,,,,,,,,,,,,,,,,,,,,,,,,,,,,,,,90.0,2.0,,,,,,
414,,feedback,,html-keyboard-response,414,663209,0.0-1.0-82.0-0.0-3.0-0.0,0,0,82892,,,,,,80.0,,,,,,,,,,,,,,,,,,,,,,,,,,,,,,,,91.0,1.0,,,,,,
415,,iti,,html-keyboard-response,415,664218,0.0-1.0-82.0-0.0-5.0,0,0,82892,,,,,,,,,,,,,,,,,,,,,,,,,,,,,,,,,,,,,,92.0,1.0,,,,,,
416,,choice,,html-keyboard-response,416,665131,0.0-1.0-83.0-0.0-0.0,0,0,82892,,908.0,,,68.0,81.0,81.0,1500.0,1000.0,0.0,2.0,0.0,20-80,,1.0,vase,bongo,80.0,20.0,vase11,bongo12,100.0,40.0,Ethnic_Ceramic_Vase.jpg,26686609.thl.jpg,/static/Category_learning/Stimuli/Experimental_stims/vase/Ethnic_Ceramic_Vase.jpg,/static/Category_learning/Stimuli/Experimental_stims/bongo/26686609.thl.jpg,1.0,vase,bongo,80.0,20.0,vase11,bongo12,100.0,40.0,0.0,92.908,0.908,,,,,,
417,,confirmation,,html-keyboard-response,417,665727,0.0-1.0-83.0-0.0-1.0-0.0,0,0,82892,,,,,,81.0,,,,,,,,,,,,,,,,,,,,,,,,,,,,,,,,93.5,0.592,,,,,,
418,,isi,,html-keyboard-response,418,667231,0.0-1.0-83.0-0.0-2.0,0,0,82892,,,,,,,,,,,,,,,,,,,,,,,,,,,,,,,,,,,,,,95.0,1.5,,,,,,
419,,feedback,,html-keyboard-response,419,668240,0.0-1.0-83.0-0.0-3.0-0.0,0,0,82892,,,,,,81.0,,,,,,,,,,,,,,,,,,,,,,,,,,,,,,,,96.0,1.0,,,,,,
420,,iti,,html-keyboard-response,420,669246,0.0-1.0-83.0-0.0-5.0,0,0,82892,,,,,,,,,,,,,,,,,,,,,,,,,,,,,,,,,,,,,,97.0,1.0,,,,,,
421,,choice,,html-keyboard-response,421,670042,0.0-1.0-84.0-0.0-0.0,0,0,82892,,790.0,,,68.0,82.0,82.0,1000.0,1500.0,0.0,2.0,0.0,40-80,,1.0,yarn,makeup compact,80.0,40.0,yarn10,makeup compact7,60.0,20.0,revelation-yarn.jpg,P187133_hero.jpg,/static/Category_learning/Stimuli/Experimental_stims/yarn/revelation-yarn.jpg,/static/Category_learning/Stimuli/Experimental_stims/makeup compact/P187133_hero.jpg,1.0,yarn,makeup compact,80.0,40.0,yarn10,makeup compact7,60.0,20.0,0.0,97.79,0.79,,,,,,
422,,confirmation,,html-keyboard-response,422,670757,0.0-1.0-84.0-0.0-1.0-0.0,0,0,82892,,,,,,82.0,,,,,,,,,,,,,,,,,,,,,,,,,,,,,,,,98.5,0.71,,,,,,
423,,isi,,html-keyboard-response,423,671764,0.0-1.0-84.0-0.0-2.0,0,0,82892,,,,,,,,,,,,,,,,,,,,,,,,,,,,,,,,,,,,,,99.5,1.0,,,,,,
424,,feedback,,html-keyboard-response,424,672773,0.0-1.0-84.0-0.0-3.0-0.0,0,0,82892,,,,,,82.0,,,,,,,,,,,,,,,,,,,,,,,,,,,,,,,,100.5,1.0,,,,,,
425,,iti,,html-keyboard-response,425,674279,0.0-1.0-84.0-0.0-5.0,0,0,82892,,,,,,,,,,,,,,,,,,,,,,,,,,,,,,,,,,,,,,102.0,1.5,,,,,,
426,,choice,,html-keyboard-response,426,675338,0.0-1.0-85.0-0.0-0.0,0,0,82892,,1052.0,,,75.0,83.0,83.0,1000.0,2000.0,0.0,2.0,1.0,80-80,1.0,,yarn,yarn,80.0,80.0,yarn10,yarn2,60.0,60.0,revelation-yarn.jpg,Aballofyarn66.jpg,/static/Category_learning/Stimuli/Experimental_stims/yarn/revelation-yarn.jpg,/static/Category_learning/Stimuli/Experimental_stims/yarn/Aballofyarn66.jpg,0.0,yarn,yarn,80.0,80.0,yarn2,yarn10,60.0,60.0,0.0,103.052,1.052,,,,,,
427,,confirmation,,html-keyboard-response,427,675792,0.0-1.0-85.0-0.0-1.0-0.0,0,0,82892,,,,,,83.0,,,,,,,,,,,,,,,,,,,,,,,,,,,,,,,,103.5,0.448,,,,,,
428,,isi,,html-keyboard-response,428,676799,0.0-1.0-85.0-0.0-2.0,0,0,82892,,,,,,,,,,,,,,,,,,,,,,,,,,,,,,,,,,,,,,104.5,1.0,,,,,,
429,,feedback,,html-keyboard-response,429,677807,0.0-1.0-85.0-0.0-3.0-0.0,0,0,82892,,,,,,83.0,,,,,,,,,,,,,,,,,,,,,,,,,,,,,,,,105.5,1.0,,,,,,
430,,iti,,html-keyboard-response,430,679813,0.0-1.0-85.0-0.0-5.0,0,0,82892,,,,,,,,,,,,,,,,,,,,,,,,,,,,,,,,,,,,,,107.5,2.0,,,,,,
431,,choice,,html-keyboard-response,431,680808,0.0-1.0-86.0-0.0-0.0,0,0,82892,,991.0,,,75.0,84.0,84.0,1500.0,1000.0,0.0,2.0,0.0,20-60,,1.0,sofa,door knob,60.0,20.0,sofa14,door knob3,40.0,40.0,HENRY-Sofa-falg8068-05-72X34X34.jpg,020f7ec6-df08-40fa-b3a5-0dcfb762f085_4.jpg,/static/Category_learning/Stimuli/Experimental_stims/sofa/HENRY-Sofa-falg8068-05-72X34X34.jpg,/static/Category_learning/Stimuli/Experimental_stims/door knob/020f7ec6-df08-40fa-b3a5-0dcfb762f085_4.jpg,0.0,door knob,sofa,20.0,60.0,door knob3,sofa14,40.0,40.0,0.0,108.491,0.991,,,,,,
432,,confirmation,,html-keyboard-response,432,681321,0.0-1.0-86.0-0.0-1.0-0.0,0,0,82892,,,,,,84.0,,,,,,,,,,,,,,,,,,,,,,,,,,,,,,,,109.0,0.509,,,,,,
433,,isi,,html-keyboard-response,433,682830,0.0-1.0-86.0-0.0-2.0,0,0,82892,,,,,,,,,,,,,,,,,,,,,,,,,,,,,,,,,,,,,,110.5,1.5,,,,,,
434,,feedback,,html-keyboard-response,434,683839,0.0-1.0-86.0-0.0-3.0-0.0,0,0,82892,,,,,,84.0,,,,,,,,,,,,,,,,,,,,,,,,,,,,,,,,111.5,1.0,,,,,,
435,,iti,,html-keyboard-response,435,684847,0.0-1.0-86.0-0.0-5.0,0,0,82892,,,,,,,,,,,,,,,,,,,,,,,,,,,,,,,,,,,,,,112.5,1.0,,,,,,
436,,choice,,html-keyboard-response,436,685666,0.0-1.0-87.0-0.0-0.0,0,0,82892,,814.0,,,75.0,85.0,85.0,3000.0,1000.0,0.0,2.0,1.0,60-60,1.0,,poker card,poker card,60.0,60.0,poker card9,poker card2,80.0,60.0,9817230.thl.jpg,22864716.thl.jpg,/static/Category_learning/Stimuli/Experimental_stims/poker card/9817230.thl.jpg,/static/Category_learning/Stimuli/Experimental_stims/poker card/22864716.thl.jpg,0.0,poker card,poker card,60.0,60.0,poker card2,poker card9,60.0,80.0,0.0,113.314,0.814,,,,,,
437,,confirmation,,html-keyboard-response,437,686357,0.0-1.0-87.0-0.0-1.0-0.0,0,0,82892,,,,,,85.0,,,,,,,,,,,,,,,,,,,,,,,,,,,,,,,,114.0,0.686,,,,,,
438,,isi,,html-keyboard-response,438,689365,0.0-1.0-87.0-0.0-2.0,0,0,82892,,,,,,,,,,,,,,,,,,,,,,,,,,,,,,,,,,,,,,117.0,3.0,,,,,,
439,,feedback,,html-keyboard-response,439,690373,0.0-1.0-87.0-0.0-3.0-0.0,0,0,82892,,,,,,85.0,,,,,,,,,,,,,,,,,,,,,,,,,,,,,,,,118.0,1.0,,,,,,
440,,iti,,html-keyboard-response,440,691381,0.0-1.0-87.0-0.0-5.0,0,0,82892,,,,,,,,,,,,,,,,,,,,,,,,,,,,,,,,,,,,,,119.0,1.0,,,,,,
441,,choice,,html-keyboard-response,441,692132,0.0-1.0-88.0-0.0-0.0,0,0,82892,,747.0,,,75.0,86.0,86.0,2000.0,1500.0,0.0,2.0,0.0,20-20,,,fan,bowl,20.0,20.0,fan3,bowl1,20.0,0.0,CFT401.jpg,ABOWLS6.jpg,/static/Category_learning/Stimuli/Experimental_stims/fan/CFT401.jpg,/static/Category_learning/Stimuli/Experimental_stims/bowl/ABOWLS6.jpg,0.0,bowl,fan,20.0,20.0,bowl1,fan3,0.0,20.0,0.0,119.747,0.747,,,,,,
442,,confirmation,,html-keyboard-response,442,692890,0.0-1.0-88.0-0.0-1.0-0.0,0,0,82892,,,,,,86.0,,,,,,,,,,,,,,,,,,,,,,,,,,,,,,,,120.5,0.753,,,,,,
443,,isi,,html-keyboard-response,443,694901,0.0-1.0-88.0-0.0-2.0,0,0,82892,,,,,,,,,,,,,,,,,,,,,,,,,,,,,,,,,,,,,,122.5,2.0,,,,,,
444,,feedback,,html-keyboard-response,444,695909,0.0-1.0-88.0-0.0-3.0-0.0,0,0,82892,,,,,,86.0,,,,,,,,,,,,,,,,,,,,,,,,,,,,,,,,123.5,1.0,,,,,,
445,,iti,,html-keyboard-response,445,697413,0.0-1.0-88.0-0.0-5.0,0,0,82892,,,,,,,,,,,,,,,,,,,,,,,,,,,,,,,,,,,,,,125.0,1.5,,,,,,
446,,choice,,html-keyboard-response,446,698296,0.0-1.0-89.0-0.0-0.0,0,0,82892,,878.0,,,68.0,87.0,87.0,1000.0,1500.0,0.0,2.0,1.0,80-80,1.0,,vase,vase,80.0,80.0,vase12,vase11,100.0,100.0,Abluevase2.jpg,Ethnic_Ceramic_Vase.jpg,/static/Category_learning/Stimuli/Experimental_stims/vase/Abluevase2.jpg,/static/Category_learning/Stimuli/Experimental_stims/vase/Ethnic_Ceramic_Vase.jpg,1.0,vase,vase,80.0,80.0,vase12,vase11,100.0,100.0,0.0,125.878,0.878,,,,,,
447,,confirmation,,html-keyboard-response,447,698924,0.0-1.0-89.0-0.0-1.0-0.0,0,0,82892,,,,,,87.0,,,,,,,,,,,,,,,,,,,,,,,,,,,,,,,,126.5,0.622,,,,,,
448,,isi,,html-keyboard-response,448,699929,0.0-1.0-89.0-0.0-2.0,0,0,82892,,,,,,,,,,,,,,,,,,,,,,,,,,,,,,,,,,,,,,127.5,1.0,,,,,,
449,,feedback,,html-keyboard-response,449,700942,0.0-1.0-89.0-0.0-3.0-0.0,0,0,82892,,,,,,87.0,,,,,,,,,,,,,,,,,,,,,,,,,,,,,,,,128.5,1.0,,,,,,
450,,iti,,html-keyboard-response,450,702447,0.0-1.0-89.0-0.0-5.0,0,0,82892,,,,,,,,,,,,,,,,,,,,,,,,,,,,,,,,,,,,,,130.0,1.5,,,,,,
451,,choice,,html-keyboard-response,451,703307,0.0-1.0-90.0-0.0-0.0,0,0,82892,,855.0,,,68.0,88.0,88.0,1000.0,1000.0,0.0,2.0,0.0,40-60,,0.0,hammer,power strip,40.0,60.0,hammer7,power strip13,60.0,60.0,hammer01.jpg,01dccef1-d4b2-4d2e-a317-f2ed46b70b4b_400.jpg,/static/Category_learning/Stimuli/Experimental_stims/hammer/hammer01.jpg,/static/Category_learning/Stimuli/Experimental_stims/power strip/01dccef1-d4b2-4d2e-a317-f2ed46b70b4b_400.jpg,1.0,hammer,power strip,40.0,60.0,hammer7,power strip13,60.0,60.0,0.0,130.855,0.855,,,,,,
452,,confirmation,,html-keyboard-response,452,703960,0.0-1.0-90.0-0.0-1.0-0.0,0,0,82892,,,,,,88.0,,,,,,,,,,,,,,,,,,,,,,,,,,,,,,,,131.5,0.645,,,,,,
453,,isi,,html-keyboard-response,453,704968,0.0-1.0-90.0-0.0-2.0,0,0,82892,,,,,,,,,,,,,,,,,,,,,,,,,,,,,,,,,,,,,,132.5,1.0,,,,,,
454,,feedback,,html-keyboard-response,454,705973,0.0-1.0-90.0-0.0-3.0-0.0,0,0,82892,,,,,,88.0,,,,,,,,,,,,,,,,,,,,,,,,,,,,,,,,133.5,1.0,,,,,,
455,,iti,,html-keyboard-response,455,706981,0.0-1.0-90.0-0.0-5.0,0,0,82892,,,,,,,,,,,,,,,,,,,,,,,,,,,,,,,,,,,,,,134.5,1.0,,,,,,
456,,choice,,html-keyboard-response,456,707694,0.0-1.0-91.0-0.0-0.0,0,0,82892,,708.0,,,68.0,89.0,89.0,1500.0,3500.0,0.0,2.0,0.0,20-60,,0.0,baby carriage,poker card,20.0,60.0,baby carriage10,poker card7,0.0,80.0,peg_perego_uno_blu.jpg,22864416.thl.jpg,/static/Category_learning/Stimuli/Experimental_stims/baby carriage/peg_perego_uno_blu.jpg,/static/Category_learning/Stimuli/Experimental_stims/poker card/22864416.thl.jpg,1.0,baby carriage,poker card,20.0,60.0,baby carriage10,poker card7,0.0,80.0,0.0,135.208,0.708,,,,,,
457,,confirmation,,html-keyboard-response,457,708496,0.0-1.0-91.0-0.0-1.0-0.0,0,0,82892,,,,,,89.0,,,,,,,,,,,,,,,,,,,,,,,,,,,,,,,,136.0,0.792,,,,,,
458,,isi,,html-keyboard-response,458,710005,0.0-1.0-91.0-0.0-2.0,0,0,82892,,,,,,,,,,,,,,,,,,,,,,,,,,,,,,,,,,,,,,137.5,1.5,,,,,,
459,,feedback,,html-keyboard-response,459,711014,0.0-1.0-91.0-0.0-3.0-0.0,0,0,82892,,,,,,89.0,,,,,,,,,,,,,,,,,,,,,,,,,,,,,,,,138.5,1.0,,,,,,
460,,iti,,html-keyboard-response,460,714523,0.0-1.0-91.0-0.0-5.0,0,0,82892,,,,,,,,,,,,,,,,,,,,,,,,,,,,,,,,,,,,,,142.0,3.5,,,,,,
461,,choice,,html-keyboard-response,461,715240,0.0-1.0-92.0-0.0-0.0,0,0,82892,,712.0,,,68.0,90.0,90.0,1000.0,1000.0,0.0,2.0,0.0,40-80,,1.0,vase,motorcycle,80.0,40.0,vase1,motorcycle9,60.0,40.0,Avase114.jpg,speedbike.jpg,/static/Category_learning/Stimuli/Experimental_stims/vase/Avase114.jpg,/static/Category_learning/Stimuli/Experimental_stims/motorcycle/speedbike.jpg,1.0,vase,motorcycle,80.0,40.0,vase1,motorcycle9,60.0,40.0,0.0,142.712,0.712,,,,,,
462,,confirmation,,html-keyboard-response,462,716037,0.0-1.0-92.0-0.0-1.0-0.0,0,0,82892,,,,,,90.0,,,,,,,,,,,,,,,,,,,,,,,,,,,,,,,,143.5,0.788,,,,,,
463,,isi,,html-keyboard-response,463,717046,0.0-1.0-92.0-0.0-2.0,0,0,82892,,,,,,,,,,,,,,,,,,,,,,,,,,,,,,,,,,,,,,144.5,1.0,,,,,,
464,,feedback,,html-keyboard-response,464,718054,0.0-1.0-92.0-0.0-3.0-0.0,0,0,82892,,,,,,90.0,,,,,,,,,,,,,,,,,,,,,,,,,,,,,,,,145.5,1.0,,,,,,
465,,iti,,html-keyboard-response,465,719062,0.0-1.0-92.0-0.0-5.0,0,0,82892,,,,,,,,,,,,,,,,,,,,,,,,,,,,,,,,,,,,,,146.5,1.0,,,,,,
466,,choice,,html-keyboard-response,466,719710,0.0-1.0-93.0-0.0-0.0,0,0,82892,,642.0,,,75.0,91.0,91.0,3500.0,3500.0,0.0,2.0,0.0,80-80,,,tent,train,80.0,80.0,tent9,train14,60.0,100.0,Red Canyon Tent.jpg,images-products-childcraft-g83501.jpg,/static/Category_learning/Stimuli/Experimental_stims/tent/Red Canyon Tent.jpg,/static/Category_learning/Stimuli/Experimental_stims/train/images-products-childcraft-g83501.jpg,0.0,train,tent,80.0,80.0,train14,tent9,100.0,60.0,0.0,147.142,0.642,,,,,,
467,,confirmation,,html-keyboard-response,467,720576,0.0-1.0-93.0-0.0-1.0-0.0,0,0,82892,,,,,,91.0,,,,,,,,,,,,,,,,,,,,,,,,,,,,,,,,148.0,0.858,,,,,,
468,,isi,,html-keyboard-response,468,724080,0.0-1.0-93.0-0.0-2.0,0,0,82892,,,,,,,,,,,,,,,,,,,,,,,,,,,,,,,,,,,,,,151.5,3.5,,,,,,
469,,feedback,,html-keyboard-response,469,725088,0.0-1.0-93.0-0.0-3.0-0.0,0,0,82892,,,,,,91.0,,,,,,,,,,,,,,,,,,,,,,,,,,,,,,,,152.5,1.0,,,,,,
470,,iti,,html-keyboard-response,470,728596,0.0-1.0-93.0-0.0-5.0,0,0,82892,,,,,,,,,,,,,,,,,,,,,,,,,,,,,,,,,,,,,,156.0,3.5,,,,,,
471,,choice,,html-keyboard-response,471,729181,0.0-1.0-94.0-0.0-0.0,0,0,82892,,581.0,,,68.0,92.0,92.0,1000.0,1000.0,0.0,2.0,0.0,20-60,,1.0,patio lounge chair,door knob,60.0,20.0,patio lounge chair5,door knob6,40.0,20.0,Steel_Assembling_Lounge.jpg,30fdcb17-b0fd-4f26-8cd8-11adde46fb79_4.jpg,/static/Category_learning/Stimuli/Experimental_stims/patio lounge chair/Steel_Assembling_Lounge.jpg,/static/Category_learning/Stimuli/Experimental_stims/door knob/30fdcb17-b0fd-4f26-8cd8-11adde46fb79_4.jpg,1.0,patio lounge chair,door knob,60.0,20.0,patio lounge chair5,door knob6,40.0,20.0,0.0,156.581,0.581,,,,,,
472,,confirmation,,html-keyboard-response,472,730107,0.0-1.0-94.0-0.0-1.0-0.0,0,0,82892,,,,,,92.0,,,,,,,,,,,,,,,,,,,,,,,,,,,,,,,,157.5,0.919,,,,,,
473,,isi,,html-keyboard-response,473,731115,0.0-1.0-94.0-0.0-2.0,0,0,82892,,,,,,,,,,,,,,,,,,,,,,,,,,,,,,,,,,,,,,158.5,1.0,,,,,,
474,,feedback,,html-keyboard-response,474,732123,0.0-1.0-94.0-0.0-3.0-0.0,0,0,82892,,,,,,92.0,,,,,,,,,,,,,,,,,,,,,,,,,,,,,,,,159.5,1.0,,,,,,
475,,iti,,html-keyboard-response,475,733131,0.0-1.0-94.0-0.0-5.0,0,0,82892,,,,,,,,,,,,,,,,,,,,,,,,,,,,,,,,,,,,,,160.5,1.0,,,,,,
476,,choice,,html-keyboard-response,476,733675,0.0-1.0-95.0-0.0-0.0,0,0,82892,,539.0,,,75.0,93.0,93.0,1000.0,1000.0,0.0,2.0,1.0,60-60,1.0,,patio lounge chair,patio lounge chair,60.0,60.0,patio lounge chair5,patio lounge chair9,40.0,60.0,Steel_Assembling_Lounge.jpg,43-3.jpg,/static/Category_learning/Stimuli/Experimental_stims/patio lounge chair/Steel_Assembling_Lounge.jpg,/static/Category_learning/Stimuli/Experimental_stims/patio lounge chair/43-3.jpg,0.0,patio lounge chair,patio lounge chair,60.0,60.0,patio lounge chair9,patio lounge chair5,60.0,40.0,0.0,161.039,0.539,,,,,,
477,,confirmation,,html-keyboard-response,477,734641,0.0-1.0-95.0-0.0-1.0-0.0,0,0,82892,,,,,,93.0,,,,,,,,,,,,,,,,,,,,,,,,,,,,,,,,162.0,0.961,,,,,,
478,,isi,,html-keyboard-response,478,735649,0.0-1.0-95.0-0.0-2.0,0,0,82892,,,,,,,,,,,,,,,,,,,,,,,,,,,,,,,,,,,,,,163.0,1.0,,,,,,
479,,feedback,,html-keyboard-response,479,736657,0.0-1.0-95.0-0.0-3.0-0.0,0,0,82892,,,,,,93.0,,,,,,,,,,,,,,,,,,,,,,,,,,,,,,,,164.0,1.0,,,,,,
480,,iti,,html-keyboard-response,480,737665,0.0-1.0-95.0-0.0-5.0,0,0,82892,,,,,,,,,,,,,,,,,,,,,,,,,,,,,,,,,,,,,,165.0,1.0,,,,,,
481,,choice,,html-keyboard-response,481,738397,0.0-1.0-96.0-0.0-0.0,0,0,82892,,727.0,,,75.0,94.0,94.0,2000.0,1500.0,0.0,2.0,0.0,40-80,,0.0,hat,yarn,40.0,80.0,hat3,yarn13,20.0,100.0,Astrawhat49.jpg,cool blue 2 hpy 2 sml.jpg,/static/Category_learning/Stimuli/Experimental_stims/hat/Astrawhat49.jpg,/static/Category_learning/Stimuli/Experimental_stims/yarn/cool blue 2 hpy 2 sml.jpg,0.0,yarn,hat,80.0,40.0,yarn13,hat3,100.0,20.0,0.0,165.727,0.727,,,,,,
482,,confirmation,,html-keyboard-response,482,739174,0.0-1.0-96.0-0.0-1.0-0.0,0,0,82892,,,,,,94.0,,,,,,,,,,,,,,,,,,,,,,,,,,,,,,,,166.5,0.773,,,,,,
483,,isi,,html-keyboard-response,483,741179,0.0-1.0-96.0-0.0-2.0,0,0,82892,,,,,,,,,,,,,,,,,,,,,,,,,,,,,,,,,,,,,,168.5,2.0,,,,,,
484,,feedback,,html-keyboard-response,484,742187,0.0-1.0-96.0-0.0-3.0-0.0,0,0,82892,,,,,,94.0,,,,,,,,,,,,,,,,,,,,,,,,,,,,,,,,169.5,1.0,,,,,,
