,success,ttype,start_time,trial_type,trial_index,time_elapsed,internal_node_id,warning,missed_checkup,PID,view_history,rt,responses,repeat_instructions,key_press,index,trial_num,isi,iti,is_practice,block,old_trial,pair_type,within_category,high_cat_on_left,left_category,right_category,left_category_value,right_category_value,left_exemplar,right_exemplar,left_exemplar_value,right_exemplar_value,left_img,right_img,left_img_path,right_img_path,no_response,onset,duration,left_chosen,chosen_category,unchosen_category,chosen_category_value,unchosen_category_value,chosen_exemplar,unchosen_exemplar,chosen_exemplar_value,unchosen_exemplar_value,end_practice,total_bonus_tally,category,category_group_value,category_value_response,did_not_enter_response
0,True,full_screen,d06032022hr1715,fullscreen,0,71819,0.0-0.0,0,0,47956,,,,,,,,,,,,,,,,,,,,,,,,,,,,,,,,,,,,,,,,,,,,,
1,,category_learning_instructions,,instructions,1,223290,0.0-1.0-0.0-0.0,0,0,47956,"[{""page_index"":0,""viewing_time"":5526},{""page_index"":1,""viewing_time"":44314},{""page_index"":2,""viewing_time"":25162},{""page_index"":3,""viewing_time"":25648},{""page_index"":4,""viewing_time"":29783},{""page_index"":5,""viewing_time"":12679},{""page_index"":6,""viewing_time"":8354}]",151467.0,,,,,,,,,,,,,,,,,,,,,,,,,,,,,,,,,,,,,,,,,,,
2,,category_learning_comprehension_check,,survey-multi-choice,2,247810,0.0-1.0-0.0-1.0,0,0,47956,,24510.0,"{""Q0"":""True"",""Q1"":""True"",""Q2"":""Stay the same"",""Q3"":""""}",1.0,,,,,,,,,,,,,,,,,,,,,,,,,,,,,,,,,,,,,,,,,
3,,missed_instruction_checkup,,html-keyboard-response,3,252341,0.0-1.0-0.0-2.0-0.0,0,0,47956,,4516.0,,,68.0,,,,,,,,,,,,,,,,,,,,,,,,,,,,,,,,,,,,,,,,
4,,category_learning_instructions,,instructions,4,415301,0.0-1.0-0.1-0.1,0,0,47956,"[{""page_index"":0,""viewing_time"":2944},{""page_index"":1,""viewing_time"":27481},{""page_index"":2,""viewing_time"":26304},{""page_index"":3,""viewing_time"":15452},{""page_index"":4,""viewing_time"":87105},{""page_index"":5,""viewing_time"":2678},{""page_index"":6,""viewing_time"":990}]",162955.0,,,,,,,,,,,,,,,,,,,,,,,,,,,,,,,,,,,,,,,,,,,
5,,category_learning_comprehension_check,,survey-multi-choice,5,482984,0.0-1.0-0.1-1.1,0,0,47956,,67671.0,"{""Q0"":""False"",""Q1"":""True"",""Q2"":""Stay the same"",""Q3"":""D for left and K for right""}",1.0,,,,,,,,,,,,,,,,,,,,,,,,,,,,,,,,,,,,,,,,,
6,,missed_instruction_checkup,,html-keyboard-response,6,487669,0.0-1.0-0.1-2.1-0.1,0,0,47956,,4673.0,,,68.0,,,,,,,,,,,,,,,,,,,,,,,,,,,,,,,,,,,,,,,,
7,,category_learning_instructions,,instructions,7,493828,0.0-1.0-0.2-0.2,0,0,47956,"[{""page_index"":0,""viewing_time"":1954},{""page_index"":1,""viewing_time"":1156},{""page_index"":2,""viewing_time"":864},{""page_index"":3,""viewing_time"":638},{""page_index"":4,""viewing_time"":510},{""page_index"":5,""viewing_time"":560},{""page_index"":6,""viewing_time"":474}]",6156.0,,,,,,,,,,,,,,,,,,,,,,,,,,,,,,,,,,,,,,,,,,,
8,,category_learning_comprehension_check,,survey-multi-choice,8,507635,0.0-1.0-0.2-1.2,0,0,47956,,13795.0,"{""Q0"":""True"",""Q1"":""False"",""Q2"":""Stay the same"",""Q3"":""D for left and K for right""}",1.0,,,,,,,,,,,,,,,,,,,,,,,,,,,,,,,,,,,,,,,,,
9,,missed_instruction_checkup,,html-keyboard-response,9,512483,0.0-1.0-0.2-2.2-0.2,0,0,47956,,4835.0,,,68.0,,,,,,,,,,,,,,,,,,,,,,,,,,,,,,,,,,,,,,,,
10,,category_learning_instructions,,instructions,10,517942,0.0-1.0-0.3-0.3,0,0,47956,"[{""page_index"":0,""viewing_time"":1984},{""page_index"":1,""viewing_time"":1258},{""page_index"":2,""viewing_time"":476},{""page_index"":3,""viewing_time"":398},{""page_index"":4,""viewing_time"":460},{""page_index"":5,""viewing_time"":412},{""page_index"":6,""viewing_time"":468}]",5456.0,,,,,,,,,,,,,,,,,,,,,,,,,,,,,,,,,,,,,,,,,,,
11,,category_learning_comprehension_check,,survey-multi-choice,11,525165,0.0-1.0-0.3-1.3,0,0,47956,,7213.0,"{""Q0"":""False"",""Q1"":""False"",""Q2"":""Stay the same"",""Q3"":""D for left and K for right""}",1.0,,,,,,,,,,,,,,,,,,,,,,,,,,,,,,,,,,,,,,,,,
12,,missed_instruction_checkup,,html-keyboard-response,12,527651,0.0-1.0-0.3-2.3-0.3,0,0,47956,,2474.0,,,68.0,,,,,,,,,,,,,,,,,,,,,,,,,,,,,,,,,,,,,,,,
13,,category_learning_instructions,,instructions,13,532719,0.0-1.0-0.4-0.4,0,0,47956,"[{""page_index"":0,""viewing_time"":1612},{""page_index"":1,""viewing_time"":828},{""page_index"":2,""viewing_time"":456},{""page_index"":3,""viewing_time"":646},{""page_index"":4,""viewing_time"":584},{""page_index"":5,""viewing_time"":484},{""page_index"":6,""viewing_time"":454}]",5065.0,,,,,,,,,,,,,,,,,,,,,,,,,,,,,,,,,,,,,,,,,,,
14,,category_learning_comprehension_check,,survey-multi-choice,14,556837,0.0-1.0-0.4-1.4,0,0,47956,,24108.0,"{""Q0"":""True"",""Q1"":""True"",""Q2"":""Change"",""Q3"":""D for left and K for right""}",1.0,,,,,,,,,,,,,,,,,,,,,,,,,,,,,,,,,,,,,,,,,
15,,missed_instruction_checkup,,html-keyboard-response,15,559036,0.0-1.0-0.4-2.4-0.4,0,0,47956,,2187.0,,,68.0,,,,,,,,,,,,,,,,,,,,,,,,,,,,,,,,,,,,,,,,
16,,category_learning_instructions,,instructions,16,650828,0.0-1.0-0.5-0.5,0,0,47956,"[{""page_index"":0,""viewing_time"":1938},{""page_index"":1,""viewing_time"":23482},{""page_index"":2,""viewing_time"":25248},{""page_index"":3,""viewing_time"":21480},{""page_index"":4,""viewing_time"":14542},{""page_index"":5,""viewing_time"":2892},{""page_index"":6,""viewing_time"":2204}]",91787.0,,,,,,,,,,,,,,,,,,,,,,,,,,,,,,,,,,,,,,,,,,,
17,,category_learning_comprehension_check,,survey-multi-choice,17,680167,0.0-1.0-0.5-1.5,0,0,47956,,29328.0,"{""Q0"":""True"",""Q1"":""True"",""Q2"":""Stay the same"",""Q3"":""K for left and D for right""}",1.0,,,,,,,,,,,,,,,,,,,,,,,,,,,,,,,,,,,,,,,,,
18,,missed_instruction_checkup,,html-keyboard-response,18,683642,0.0-1.0-0.5-2.5-0.5,0,0,47956,,3464.0,,,68.0,,,,,,,,,,,,,,,,,,,,,,,,,,,,,,,,,,,,,,,,
19,,category_learning_instructions,,instructions,19,688932,0.0-1.0-0.6-0.6,0,0,47956,"[{""page_index"":0,""viewing_time"":2615},{""page_index"":1,""viewing_time"":436},{""page_index"":2,""viewing_time"":598},{""page_index"":3,""viewing_time"":358},{""page_index"":4,""viewing_time"":449},{""page_index"":5,""viewing_time"":417},{""page_index"":6,""viewing_time"":414}]",5287.0,,,,,,,,,,,,,,,,,,,,,,,,,,,,,,,,,,,,,,,,,,,
20,,category_learning_comprehension_check,,survey-multi-choice,20,697167,0.0-1.0-0.6-1.6,0,0,47956,,8226.0,"{""Q0"":""True"",""Q1"":""True"",""Q2"":""Stay the same"",""Q3"":""D for left and K for right""}",0.0,,,,,,,,,,,,,,,,,,,,,,,,,,,,,,,,,,,,,,,,,
21,,,,html-keyboard-response,21,706299,0.0-1.0-1.0,0,0,47956,,9120.0,,,68.0,,,,,,,,,,,,,,,,,,,,,,,,,,,,,,,,,,,,,,,,
22,,choice,,html-keyboard-response,22,707811,0.0-1.0-2.0-0.0-0.0,0,0,47956,,,,,,0.0,0.0,1500.0,1000.0,1.0,0.0,0.0,20-80,,0.0,bagel,dumbbell,20.0,80.0,bagel1,dumbbell1,0.0,80.0,bagels_pumpernickel_large.jpg,31B64EN68AL._AA280_.jpg,/static/Category_learning/Stimuli/Practice_stims/bagel/bagels_pumpernickel_large.jpg,/static/Category_learning/Stimuli/Practice_stims/dumbbell/31B64EN68AL._AA280_.jpg,1.0,1.5,1.5,,,,,,,,,,,,,,,
23,,isi,,html-keyboard-response,23,709320,0.0-1.0-2.0-0.0-2.0,0,0,47956,,,,,,,,,,,,,,,,,,,,,,,,,,,,,3.0,1.5,,,,,,,,,,,,,,,
24,,no_response,,html-keyboard-response,24,710326,0.0-1.0-2.0-0.0-4.0-0.0,0,0,47956,,,,,,,,,,,,,,,,,,,,,,,,,,,,,4.0,1.0,,,,,,,,,,,,,,,
25,,iti,,html-keyboard-response,25,711332,0.0-1.0-2.0-0.0-5.0,0,0,47956,,,,,,,,,,,,,,,,,,,,,,,,,,,,,5.0,1.0,,,,,,,,,,,,,,,
26,,choice,,html-keyboard-response,26,712346,0.0-1.0-2.0-0.1-0.1,0,0,47956,,1006.0,,,68.0,0.0,0.0,1500.0,1000.0,1.0,0.0,0.0,20-80,,0.0,bagel,dumbbell,20.0,80.0,bagel1,dumbbell1,0.0,80.0,bagels_pumpernickel_large.jpg,31B64EN68AL._AA280_.jpg,/static/Category_learning/Stimuli/Practice_stims/bagel/bagels_pumpernickel_large.jpg,/static/Category_learning/Stimuli/Practice_stims/dumbbell/31B64EN68AL._AA280_.jpg,0.0,6.006,1.006,1.0,bagel,dumbbell,20.0,80.0,bagel1,dumbbell1,0.0,80.0,,,,,,
27,,confirmation,,html-keyboard-response,27,712854,0.0-1.0-2.0-0.1-1.1-0.1,0,0,47956,,,,,,0.0,,,,,,,,,,,,,,,,,,,,,,,6.5,0.494,,,,,,,,,,,,,,,
28,,isi,,html-keyboard-response,28,714360,0.0-1.0-2.0-0.1-2.1,0,0,47956,,,,,,,,,,,,,,,,,,,,,,,,,,,,,8.0,1.5,,,,,,,,,,,,,,,
29,,feedback,,html-keyboard-response,29,715367,0.0-1.0-2.0-0.1-3.1-0.1,0,0,47956,,,,,,0.0,,,,,,,,,,,,,,,,,,,,,,,9.0,1.0,,,,,,,,,,,,,,,
30,,iti,,html-keyboard-response,30,716373,0.0-1.0-2.0-0.1-5.1,0,0,47956,,,,,,,,,,,,,,,,,,,,,,,,,,,,,10.0,1.0,,,,,,,,,,,,,,,
31,,choice,,html-keyboard-response,31,717602,0.0-1.0-3.0-0.0-0.0,0,0,47956,,1221.0,,,68.0,1.0,1.0,3000.0,1500.0,1.0,0.0,0.0,20-40,,1.0,calculator,bagel,40.0,20.0,calculator2,bagel2,20.0,20.0,22829064.thl.jpg,bagels_cinnraisin_large.jpg,/static/Category_learning/Stimuli/Practice_stims/calculator/22829064.thl.jpg,/static/Category_learning/Stimuli/Practice_stims/bagel/bagels_cinnraisin_large.jpg,0.0,11.221,1.221,1.0,calculator,bagel,40.0,20.0,calculator2,bagel2,20.0,20.0,,,,,,
32,,confirmation,,html-keyboard-response,32,717887,0.0-1.0-3.0-0.0-1.0-0.0,0,0,47956,,,,,,1.0,,,,,,,,,,,,,,,,,,,,,,,11.5,0.279,,,,,,,,,,,,,,,
33,,isi,,html-keyboard-response,33,720894,0.0-1.0-3.0-0.0-2.0,0,0,47956,,,,,,,,,,,,,,,,,,,,,,,,,,,,,14.5,3.0,,,,,,,,,,,,,,,
34,,feedback,,html-keyboard-response,34,721903,0.0-1.0-3.0-0.0-3.0-0.0,0,0,47956,,,,,,1.0,,,,,,,,,,,,,,,,,,,,,,,15.5,1.0,,,,,,,,,,,,,,,
35,,iti,,html-keyboard-response,35,723410,0.0-1.0-3.0-0.0-5.0,0,0,47956,,,,,,,,,,,,,,,,,,,,,,,,,,,,,17.0,1.5,,,,,,,,,,,,,,,
36,,choice,,html-keyboard-response,36,724562,0.0-1.0-4.0-0.0-0.0,0,0,47956,,1144.0,,,68.0,2.0,2.0,2000.0,3000.0,1.0,0.0,0.0,60-80,,0.0,clock,dumbbell,60.0,80.0,clock2,dumbbell2,60.0,100.0,26373355.thl.jpg,31K8MR6TMBL._SS500_.jpg,/static/Category_learning/Stimuli/Practice_stims/clock/26373355.thl.jpg,/static/Category_learning/Stimuli/Practice_stims/dumbbell/31K8MR6TMBL._SS500_.jpg,0.0,18.144,1.144,1.0,clock,dumbbell,60.0,80.0,clock2,dumbbell2,60.0,100.0,,,,,,
37,,confirmation,,html-keyboard-response,37,724926,0.0-1.0-4.0-0.0-1.0-0.0,0,0,47956,,,,,,2.0,,,,,,,,,,,,,,,,,,,,,,,18.5,0.356,,,,,,,,,,,,,,,
38,,isi,,html-keyboard-response,38,726932,0.0-1.0-4.0-0.0-2.0,0,0,47956,,,,,,,,,,,,,,,,,,,,,,,,,,,,,20.5,2.0,,,,,,,,,,,,,,,
39,,feedback,,html-keyboard-response,39,727940,0.0-1.0-4.0-0.0-3.0-0.0,0,0,47956,,,,,,2.0,,,,,,,,,,,,,,,,,,,,,,,21.5,1.0,,,,,,,,,,,,,,,
40,,iti,,html-keyboard-response,40,730944,0.0-1.0-4.0-0.0-5.0,0,0,47956,,,,,,,,,,,,,,,,,,,,,,,,,,,,,24.5,3.0,,,,,,,,,,,,,,,
41,,choice,,html-keyboard-response,41,731939,0.0-1.0-5.0-0.0-0.0,0,0,47956,,987.0,,,75.0,3.0,3.0,1000.0,2000.0,1.0,0.0,0.0,40-80,,0.0,calculator,clock,40.0,60.0,calculator1,clock1,40.0,40.0,22829184.thl.jpg,Aalarmclock2.jpg,/static/Category_learning/Stimuli/Practice_stims/calculator/22829184.thl.jpg,/static/Category_learning/Stimuli/Practice_stims/clock/Aalarmclock2.jpg,0.0,25.487,0.987,0.0,clock,calculator,60.0,40.0,clock1,calculator1,40.0,40.0,,,,,,
42,,confirmation,,html-keyboard-response,42,732460,0.0-1.0-5.0-0.0-1.0-0.0,0,0,47956,,,,,,3.0,,,,,,,,,,,,,,,,,,,,,,,26.0,0.513,,,,,,,,,,,,,,,
43,,isi,,html-keyboard-response,43,733467,0.0-1.0-5.0-0.0-2.0,0,0,47956,,,,,,,,,,,,,,,,,,,,,,,,,,,,,27.0,1.0,,,,,,,,,,,,,,,
44,,feedback,,html-keyboard-response,44,734473,0.0-1.0-5.0-0.0-3.0-0.0,0,0,47956,,,,,,3.0,,,,,,,,,,,,,,,,,,,,,,,28.0,1.0,,,,,,,,,,,,,,,
45,,iti,,html-keyboard-response,45,736479,0.0-1.0-5.0-0.0-5.0,0,0,47956,,,,,,,,,,,,,,,,,,,,,,,,,,,,,30.0,2.0,,,,,,,,,,,,,,,
46,,choice,,html-keyboard-response,46,737810,0.0-1.0-6.0-0.0-0.0,0,0,47956,,1323.0,,,68.0,4.0,4.0,2500.0,2500.0,1.0,0.0,0.0,20-60,,1.0,dumbbell,bagel,80.0,20.0,dumbbell3,bagel3,100.0,40.0,41K7QVRX50L._SS500_.jpg,photo-169.jpg,/static/Category_learning/Stimuli/Practice_stims/dumbbell/41K7QVRX50L._SS500_.jpg,/static/Category_learning/Stimuli/Practice_stims/bagel/photo-169.jpg,0.0,31.323,1.323,1.0,dumbbell,bagel,80.0,20.0,dumbbell3,bagel3,100.0,40.0,1.0,,,,,
47,,confirmation,,html-keyboard-response,47,737994,0.0-1.0-6.0-0.0-1.0-0.0,0,0,47956,,,,,,4.0,,,,,,,,,,,,,,,,,,,,,,,31.5,0.177,,,,,,,,,,,,,,,
48,,isi,,html-keyboard-response,48,740500,0.0-1.0-6.0-0.0-2.0,0,0,47956,,,,,,,,,,,,,,,,,,,,,,,,,,,,,34.0,2.5,,,,,,,,,,,,,,,
49,,feedback,,html-keyboard-response,49,741507,0.0-1.0-6.0-0.0-3.0-0.0,0,0,47956,,,,,,4.0,,,,,,,,,,,,,,,,,,,,,,,35.0,1.0,,,,,,,,,,,,,,,
50,,iti,,html-keyboard-response,50,744014,0.0-1.0-6.0-0.0-5.0,0,0,47956,,,,,,,,,,,,,,,,,,,,,,,,,,,,,37.5,2.5,,,,,,,,,,,,,,,
51,,practice_over,,html-keyboard-response,51,749610,0.0-1.0-6.0-0.0-6.0-0.0,0,0,47956,,5591.0,,,68.0,4.0,,,,,,,,,,,,,,,,,,,,,,,,,,,,,,,,,,,,,,,
52,,start_run,,html-keyboard-response,52,754610,0.0-1.0-6.0-0.0-6.0-1.0,0,0,47956,,4994.0,,,84.0,,,,,,,,,,,,,,,,,,,,,,,,,,,,,,,,,,,,,,,,
53,,choice,,html-keyboard-response,53,755746,0.0-1.0-7.0-0.0-0.0,0,0,47956,,1125.0,,,75.0,5.0,5.0,3000.0,2000.0,0.0,1.0,0.0,40-40,,,license plate,hammer,40.0,40.0,license plate13,hammer11,60.0,60.0,usa-rj-9517.jpg,8oz-hammer-copy.jpg,/static/Category_learning/Stimuli/Experimental_stims/license plate/usa-rj-9517.jpg,/static/Category_learning/Stimuli/Experimental_stims/hammer/8oz-hammer-copy.jpg,0.0,1.125,1.125,0.0,hammer,license plate,40.0,40.0,hammer11,license plate13,60.0,60.0,,,,,,
54,,confirmation,,html-keyboard-response,54,756128,0.0-1.0-7.0-0.0-1.0-0.0,0,0,47956,,,,,,5.0,,,,,,,,,,,,,,,,,,,,,,,1.5,0.375,,,,,,,,,,,,,,,
55,,isi,,html-keyboard-response,55,759134,0.0-1.0-7.0-0.0-2.0,0,0,47956,,,,,,,,,,,,,,,,,,,,,,,,,,,,,4.5,3.0,,,,,,,,,,,,,,,
56,,feedback,,html-keyboard-response,56,760143,0.0-1.0-7.0-0.0-3.0-0.0,0,0,47956,,,,,,5.0,,,,,,,,,,,,,,,,,,,,,,,5.5,1.0,,,,,,,,,,,,,,,
57,,iti,,html-keyboard-response,57,762150,0.0-1.0-7.0-0.0-5.0,0,0,47956,,,,,,,,,,,,,,,,,,,,,,,,,,,,,7.5,2.0,,,,,,,,,,,,,,,
58,,choice,,html-keyboard-response,58,763530,0.0-1.0-8.0-0.0-0.0,0,0,47956,,1367.0,,,68.0,6.0,6.0,1000.0,1000.0,0.0,1.0,0.0,20-60,,0.0,flashlight,poker card,20.0,60.0,flashlight9,poker card6,40.0,80.0,new06.jpg,22864212.thl.jpg,/static/Category_learning/Stimuli/Experimental_stims/flashlight/new06.jpg,/static/Category_learning/Stimuli/Experimental_stims/poker card/22864212.thl.jpg,0.0,8.867,1.367,1.0,flashlight,poker card,20.0,60.0,flashlight9,poker card6,40.0,80.0,,,,,,
59,,confirmation,,html-keyboard-response,59,763671,0.0-1.0-8.0-0.0-1.0-0.0,0,0,47956,,,,,,6.0,,,,,,,,,,,,,,,,,,,,,,,9.0,0.133,,,,,,,,,,,,,,,
60,,isi,,html-keyboard-response,60,764677,0.0-1.0-8.0-0.0-2.0,0,0,47956,,,,,,,,,,,,,,,,,,,,,,,,,,,,,10.0,1.0,,,,,,,,,,,,,,,
61,,feedback,,html-keyboard-response,61,765685,0.0-1.0-8.0-0.0-3.0-0.0,0,0,47956,,,,,,6.0,,,,,,,,,,,,,,,,,,,,,,,11.0,1.0,,,,,,,,,,,,,,,
62,,iti,,html-keyboard-response,62,766691,0.0-1.0-8.0-0.0-5.0,0,0,47956,,,,,,,,,,,,,,,,,,,,,,,,,,,,,12.0,1.0,,,,,,,,,,,,,,,
63,,choice,,html-keyboard-response,63,767994,0.0-1.0-9.0-0.0-0.0,0,0,47956,,1295.0,,,75.0,7.0,7.0,1500.0,3500.0,0.0,1.0,0.0,60-60,,,seashell,nail polish,60.0,60.0,seashell7,nail polish6,60.0,60.0,seashell34.jpg,127_t.jpg,/static/Category_learning/Stimuli/Experimental_stims/seashell/seashell34.jpg,/static/Category_learning/Stimuli/Experimental_stims/nail polish/127_t.jpg,0.0,13.295,1.295,0.0,nail polish,seashell,60.0,60.0,nail polish6,seashell7,60.0,60.0,,,,,,
64,,confirmation,,html-keyboard-response,64,768207,0.0-1.0-9.0-0.0-1.0-0.0,0,0,47956,,,,,,7.0,,,,,,,,,,,,,,,,,,,,,,,13.5,0.205,,,,,,,,,,,,,,,
65,,isi,,html-keyboard-response,65,769713,0.0-1.0-9.0-0.0-2.0,0,0,47956,,,,,,,,,,,,,,,,,,,,,,,,,,,,,15.0,1.5,,,,,,,,,,,,,,,
66,,feedback,,html-keyboard-response,66,770722,0.0-1.0-9.0-0.0-3.0-0.0,0,0,47956,,,,,,7.0,,,,,,,,,,,,,,,,,,,,,,,16.0,1.0,,,,,,,,,,,,,,,
67,,iti,,html-keyboard-response,67,774231,0.0-1.0-9.0-0.0-5.0,0,0,47956,,,,,,,,,,,,,,,,,,,,,,,,,,,,,19.5,3.5,,,,,,,,,,,,,,,
68,,choice,,html-keyboard-response,68,775642,0.0-1.0-10.0-0.0-0.0,0,0,47956,,1402.0,,,68.0,8.0,8.0,1500.0,1000.0,0.0,1.0,0.0,40-80,,1.0,telescope,hat,80.0,40.0,telescope3,hat5,100.0,60.0,41V67SB5NJL._SS500_.jpg,AREDHAT4.jpg,/static/Category_learning/Stimuli/Experimental_stims/telescope/41V67SB5NJL._SS500_.jpg,/static/Category_learning/Stimuli/Experimental_stims/hat/AREDHAT4.jpg,0.0,20.902,1.402,1.0,telescope,hat,80.0,40.0,telescope3,hat5,100.0,60.0,,,,,,
69,,confirmation,,html-keyboard-response,69,775748,0.0-1.0-10.0-0.0-1.0-0.0,0,0,47956,,,,,,8.0,,,,,,,,,,,,,,,,,,,,,,,21.0,0.098,,,,,,,,,,,,,,,
70,,isi,,html-keyboard-response,70,777255,0.0-1.0-10.0-0.0-2.0,0,0,47956,,,,,,,,,,,,,,,,,,,,,,,,,,,,,22.5,1.5,,,,,,,,,,,,,,,
71,,feedback,,html-keyboard-response,71,778262,0.0-1.0-10.0-0.0-3.0-0.0,0,0,47956,,,,,,8.0,,,,,,,,,,,,,,,,,,,,,,,23.5,1.0,,,,,,,,,,,,,,,
72,,iti,,html-keyboard-response,72,779268,0.0-1.0-10.0-0.0-5.0,0,0,47956,,,,,,,,,,,,,,,,,,,,,,,,,,,,,24.5,1.0,,,,,,,,,,,,,,,
73,,choice,,html-keyboard-response,73,780778,0.0-1.0-11.0-0.0-0.0,0,0,47956,,,,,,9.0,9.0,2000.0,3500.0,0.0,1.0,0.0,40-60,,1.0,power strip,makeup compact,60.0,40.0,power strip12,makeup compact1,80.0,60.0,41CXESEH1TL._AA262_.jpg,P190250_hero.jpg,/static/Category_learning/Stimuli/Experimental_stims/power strip/41CXESEH1TL._AA262_.jpg,/static/Category_learning/Stimuli/Experimental_stims/makeup compact/P190250_hero.jpg,1.0,26.0,1.5,,,,,,,,,,,,,,,
74,,isi,,html-keyboard-response,74,782784,0.0-1.0-11.0-0.0-2.0,0,0,47956,,,,,,,,,,,,,,,,,,,,,,,,,,,,,28.0,2.0,,,,,,,,,,,,,,,
75,,no_response,,html-keyboard-response,75,783788,0.0-1.0-11.0-0.0-4.0-0.0,0,0,47956,,,,,,,,,,,,,,,,,,,,,,,,,,,,,29.0,1.0,,,,,,,,,,,,,,,
76,,iti,,html-keyboard-response,76,787320,0.0-1.0-11.0-0.0-5.0,0,0,47956,,,,,,,,,,,,,,,,,,,,,,,,,,,,,32.5,3.5,,,,,,,,,,,,,,,
77,,choice,,html-keyboard-response,77,788829,0.0-1.0-11.0-0.1-0.1,0,0,47956,,,,,,9.0,9.0,2000.0,3500.0,0.0,1.0,0.0,40-60,,1.0,power strip,makeup compact,60.0,40.0,power strip12,makeup compact1,80.0,60.0,41CXESEH1TL._AA262_.jpg,P190250_hero.jpg,/static/Category_learning/Stimuli/Experimental_stims/power strip/41CXESEH1TL._AA262_.jpg,/static/Category_learning/Stimuli/Experimental_stims/makeup compact/P190250_hero.jpg,1.0,34.0,1.5,,,,,,,,,,,,,,,
78,,isi,,html-keyboard-response,78,789835,0.0-1.0-11.0-0.1-2.1,0,0,47956,,,,,,,,,,,,,,,,,,,,,,,,,,,,,35.0,1.0,,,,,,,,,,,,,,,
79,,no_response,,html-keyboard-response,79,790841,0.0-1.0-11.0-0.1-4.1-0.1,0,0,47956,,,,,,,,,,,,,,,,,,,,,,,,,,,,,36.0,1.0,,,,,,,,,,,,,,,
80,,iti,,html-keyboard-response,80,792409,0.0-1.0-11.0-0.1-5.1,0,0,47956,,,,,,,,,,,,,,,,,,,,,,,,,,,,,37.5,1.5,,,,,,,,,,,,,,,
81,,choice,,html-keyboard-response,81,792882,0.0-1.0-11.0-0.2-0.2,0,0,47956,,465.0,,,68.0,9.0,9.0,2000.0,3500.0,0.0,1.0,0.0,40-60,,1.0,power strip,makeup compact,60.0,40.0,power strip12,makeup compact1,80.0,60.0,41CXESEH1TL._AA262_.jpg,P190250_hero.jpg,/static/Category_learning/Stimuli/Experimental_stims/power strip/41CXESEH1TL._AA262_.jpg,/static/Category_learning/Stimuli/Experimental_stims/makeup compact/P190250_hero.jpg,0.0,37.965,0.465,1.0,power strip,makeup compact,60.0,40.0,power strip12,makeup compact1,80.0,60.0,,,,,,
82,,confirmation,,html-keyboard-response,82,793925,0.0-1.0-11.0-0.2-1.2-0.2,0,0,47956,,,,,,9.0,,,,,,,,,,,,,,,,,,,,,,,39.0,1.035,,,,,,,,,,,,,,,
83,,isi,,html-keyboard-response,83,794933,0.0-1.0-11.0-0.2-2.2,0,0,47956,,,,,,,,,,,,,,,,,,,,,,,,,,,,,40.0,1.0,,,,,,,,,,,,,,,
84,,feedback,,html-keyboard-response,84,795939,0.0-1.0-11.0-0.2-3.2-0.2,0,0,47956,,,,,,9.0,,,,,,,,,,,,,,,,,,,,,,,41.0,1.0,,,,,,,,,,,,,,,
85,,iti,,html-keyboard-response,85,797444,0.0-1.0-11.0-0.2-5.2,0,0,47956,,,,,,,,,,,,,,,,,,,,,,,,,,,,,42.5,1.5,,,,,,,,,,,,,,,
86,,choice,,html-keyboard-response,86,798496,0.0-1.0-12.0-0.0-0.0,0,0,47956,,1044.0,,,75.0,10.0,10.0,1500.0,3500.0,0.0,1.0,1.0,40-60,0.0,,hammer,nail polish,40.0,60.0,hammer11,nail polish6,60.0,60.0,8oz-hammer-copy.jpg,127_t.jpg,/static/Category_learning/Stimuli/Experimental_stims/hammer/8oz-hammer-copy.jpg,/static/Category_learning/Stimuli/Experimental_stims/nail polish/127_t.jpg,0.0,43.544,1.044,0.0,nail polish,hammer,60.0,40.0,nail polish6,hammer11,60.0,60.0,,,,,,
87,,confirmation,,html-keyboard-response,87,798959,0.0-1.0-12.0-0.0-1.0-0.0,0,0,47956,,,,,,10.0,,,,,,,,,,,,,,,,,,,,,,,44.0,0.456,,,,,,,,,,,,,,,
88,,isi,,html-keyboard-response,88,800465,0.0-1.0-12.0-0.0-2.0,0,0,47956,,,,,,,,,,,,,,,,,,,,,,,,,,,,,45.5,1.5,,,,,,,,,,,,,,,
89,,feedback,,html-keyboard-response,89,801469,0.0-1.0-12.0-0.0-3.0-0.0,0,0,47956,,,,,,10.0,,,,,,,,,,,,,,,,,,,,,,,46.5,1.0,,,,,,,,,,,,,,,
90,,iti,,html-keyboard-response,90,804974,0.0-1.0-12.0-0.0-5.0,0,0,47956,,,,,,,,,,,,,,,,,,,,,,,,,,,,,50.0,3.5,,,,,,,,,,,,,,,
91,,choice,,html-keyboard-response,91,805946,0.0-1.0-13.0-0.0-0.0,0,0,47956,,963.0,,,68.0,11.0,11.0,1500.0,1000.0,0.0,1.0,1.0,20-80,0.0,,telescope,flashlight,80.0,20.0,telescope3,flashlight9,100.0,40.0,41V67SB5NJL._SS500_.jpg,new06.jpg,/static/Category_learning/Stimuli/Experimental_stims/telescope/41V67SB5NJL._SS500_.jpg,/static/Category_learning/Stimuli/Experimental_stims/flashlight/new06.jpg,0.0,50.963,0.963,1.0,telescope,flashlight,80.0,20.0,telescope3,flashlight9,100.0,40.0,,,,,,
92,,confirmation,,html-keyboard-response,92,806491,0.0-1.0-13.0-0.0-1.0-0.0,0,0,47956,,,,,,11.0,,,,,,,,,,,,,,,,,,,,,,,51.5,0.537,,,,,,,,,,,,,,,
93,,isi,,html-keyboard-response,93,807996,0.0-1.0-13.0-0.0-2.0,0,0,47956,,,,,,,,,,,,,,,,,,,,,,,,,,,,,53.0,1.5,,,,,,,,,,,,,,,
94,,feedback,,html-keyboard-response,94,809002,0.0-1.0-13.0-0.0-3.0-0.0,0,0,47956,,,,,,11.0,,,,,,,,,,,,,,,,,,,,,,,54.0,1.0,,,,,,,,,,,,,,,
95,,iti,,html-keyboard-response,95,810008,0.0-1.0-13.0-0.0-5.0,0,0,47956,,,,,,,,,,,,,,,,,,,,,,,,,,,,,55.0,1.0,,,,,,,,,,,,,,,
96,,choice,,html-keyboard-response,96,811132,0.0-1.0-14.0-0.0-0.0,0,0,47956,,1114.0,,,75.0,12.0,12.0,2000.0,1000.0,0.0,1.0,0.0,40-60,,0.0,key chain,sofa,40.0,60.0,key chain13,sofa6,60.0,80.0,Fancy_Liquid_Column_Shape_Key_Ring_with_Floater.jpg,wilkie-sofa-250h-new-cd.jpg,/static/Category_learning/Stimuli/Experimental_stims/key chain/Fancy_Liquid_Column_Shape_Key_Ring_with_Floater.jpg,/static/Category_learning/Stimuli/Experimental_stims/sofa/wilkie-sofa-250h-new-cd.jpg,0.0,56.114,1.114,0.0,sofa,key chain,60.0,40.0,sofa6,key chain13,80.0,60.0,,,,,,
97,,confirmation,,html-keyboard-response,97,811529,0.0-1.0-14.0-0.0-1.0-0.0,0,0,47956,,,,,,12.0,,,,,,,,,,,,,,,,,,,,,,,56.5,0.386,,,,,,,,,,,,,,,
98,,isi,,html-keyboard-response,98,813535,0.0-1.0-14.0-0.0-2.0,0,0,47956,,,,,,,,,,,,,,,,,,,,,,,,,,,,,58.5,2.0,,,,,,,,,,,,,,,
99,,feedback,,html-keyboard-response,99,814542,0.0-1.0-14.0-0.0-3.0-0.0,0,0,47956,,,,,,12.0,,,,,,,,,,,,,,,,,,,,,,,59.5,1.0,,,,,,,,,,,,,,,
100,,iti,,html-keyboard-response,100,815548,0.0-1.0-14.0-0.0-5.0,0,0,47956,,,,,,,,,,,,,,,,,,,,,,,,,,,,,60.5,1.0,,,,,,,,,,,,,,,
101,,choice,,html-keyboard-response,101,816786,0.0-1.0-15.0-0.0-0.0,0,0,47956,,1231.0,,,75.0,13.0,13.0,1000.0,1000.0,0.0,1.0,0.0,40-80,,1.0,stool,motorcycle,80.0,40.0,stool7,motorcycle7,80.0,20.0,ASTOOL25.jpg,MotoSmall.jpg,/static/Category_learning/Stimuli/Experimental_stims/stool/ASTOOL25.jpg,/static/Category_learning/Stimuli/Experimental_stims/motorcycle/MotoSmall.jpg,0.0,61.731,1.231,0.0,motorcycle,stool,40.0,80.0,motorcycle7,stool7,20.0,80.0,,,,,,
102,,confirmation,,html-keyboard-response,102,817063,0.0-1.0-15.0-0.0-1.0-0.0,0,0,47956,,,,,,13.0,,,,,,,,,,,,,,,,,,,,,,,62.0,0.269,,,,,,,,,,,,,,,
103,,isi,,html-keyboard-response,103,818069,0.0-1.0-15.0-0.0-2.0,0,0,47956,,,,,,,,,,,,,,,,,,,,,,,,,,,,,63.0,1.0,,,,,,,,,,,,,,,
104,,feedback,,html-keyboard-response,104,819076,0.0-1.0-15.0-0.0-3.0-0.0,0,0,47956,,,,,,13.0,,,,,,,,,,,,,,,,,,,,,,,64.0,1.0,,,,,,,,,,,,,,,
105,,iti,,html-keyboard-response,105,820081,0.0-1.0-15.0-0.0-5.0,0,0,47956,,,,,,,,,,,,,,,,,,,,,,,,,,,,,65.0,1.0,,,,,,,,,,,,,,,
106,,choice,,html-keyboard-response,106,821304,0.0-1.0-16.0-0.0-0.0,0,0,47956,,1216.0,,,68.0,14.0,14.0,1500.0,1000.0,0.0,1.0,0.0,40-80,,1.0,tent,hat,80.0,40.0,tent1,hat13,100.0,20.0,Atent8.jpg,Ahatwithfeath.jpg,/static/Category_learning/Stimuli/Experimental_stims/tent/Atent8.jpg,/static/Category_learning/Stimuli/Experimental_stims/hat/Ahatwithfeath.jpg,0.0,66.216,1.216,1.0,tent,hat,80.0,40.0,tent1,hat13,100.0,20.0,,,,,,
107,,confirmation,,html-keyboard-response,107,821594,0.0-1.0-16.0-0.0-1.0-0.0,0,0,47956,,,,,,14.0,,,,,,,,,,,,,,,,,,,,,,,66.5,0.284,,,,,,,,,,,,,,,
108,,isi,,html-keyboard-response,108,823101,0.0-1.0-16.0-0.0-2.0,0,0,47956,,,,,,,,,,,,,,,,,,,,,,,,,,,,,68.0,1.5,,,,,,,,,,,,,,,
109,,feedback,,html-keyboard-response,109,824107,0.0-1.0-16.0-0.0-3.0-0.0,0,0,47956,,,,,,14.0,,,,,,,,,,,,,,,,,,,,,,,69.0,1.0,,,,,,,,,,,,,,,
110,,iti,,html-keyboard-response,110,825114,0.0-1.0-16.0-0.0-5.0,0,0,47956,,,,,,,,,,,,,,,,,,,,,,,,,,,,,70.0,1.0,,,,,,,,,,,,,,,
111,,choice,,html-keyboard-response,111,826474,0.0-1.0-17.0-0.0-0.0,0,0,47956,,1352.0,,,75.0,15.0,15.0,2000.0,1000.0,0.0,1.0,0.0,60-80,,0.0,necklace,watch,60.0,80.0,necklace3,watch13,60.0,80.0,26388201.thl.jpg,RS_3104_lrg.jpg,/static/Category_learning/Stimuli/Experimental_stims/necklace/26388201.thl.jpg,/static/Category_learning/Stimuli/Experimental_stims/watch/RS_3104_lrg.jpg,0.0,71.352,1.352,0.0,watch,necklace,80.0,60.0,watch13,necklace3,80.0,60.0,,,,,,
112,,confirmation,,html-keyboard-response,112,826629,0.0-1.0-17.0-0.0-1.0-0.0,0,0,47956,,,,,,15.0,,,,,,,,,,,,,,,,,,,,,,,71.5,0.148,,,,,,,,,,,,,,,
113,,isi,,html-keyboard-response,113,828635,0.0-1.0-17.0-0.0-2.0,0,0,47956,,,,,,,,,,,,,,,,,,,,,,,,,,,,,73.5,2.0,,,,,,,,,,,,,,,
114,,feedback,,html-keyboard-response,114,829642,0.0-1.0-17.0-0.0-3.0-0.0,0,0,47956,,,,,,15.0,,,,,,,,,,,,,,,,,,,,,,,74.5,1.0,,,,,,,,,,,,,,,
115,,iti,,html-keyboard-response,115,830648,0.0-1.0-17.0-0.0-5.0,0,0,47956,,,,,,,,,,,,,,,,,,,,,,,,,,,,,75.5,1.0,,,,,,,,,,,,,,,
116,,choice,,html-keyboard-response,116,831531,0.0-1.0-18.0-0.0-0.0,0,0,47956,,874.0,,,75.0,16.0,16.0,3500.0,1000.0,0.0,1.0,1.0,40-80,0.0,,watch,motorcycle,80.0,40.0,watch13,motorcycle7,80.0,20.0,RS_3104_lrg.jpg,MotoSmall.jpg,/static/Category_learning/Stimuli/Experimental_stims/watch/RS_3104_lrg.jpg,/static/Category_learning/Stimuli/Experimental_stims/motorcycle/MotoSmall.jpg,0.0,76.374,0.874,0.0,motorcycle,watch,40.0,80.0,motorcycle7,watch13,20.0,80.0,,,,,,
117,,confirmation,,html-keyboard-response,117,832164,0.0-1.0-18.0-0.0-1.0-0.0,0,0,47956,,,,,,16.0,,,,,,,,,,,,,,,,,,,,,,,77.0,0.626,,,,,,,,,,,,,,,
118,,isi,,html-keyboard-response,118,835668,0.0-1.0-18.0-0.0-2.0,0,0,47956,,,,,,,,,,,,,,,,,,,,,,,,,,,,,80.5,3.5,,,,,,,,,,,,,,,
119,,feedback,,html-keyboard-response,119,836675,0.0-1.0-18.0-0.0-3.0-0.0,0,0,47956,,,,,,16.0,,,,,,,,,,,,,,,,,,,,,,,81.5,1.0,,,,,,,,,,,,,,,
120,,iti,,html-keyboard-response,120,837681,0.0-1.0-18.0-0.0-5.0,0,0,47956,,,,,,,,,,,,,,,,,,,,,,,,,,,,,82.5,1.0,,,,,,,,,,,,,,,
121,,choice,,html-keyboard-response,121,839107,0.0-1.0-19.0-0.0-0.0,0,0,47956,,1417.0,,,68.0,17.0,17.0,3500.0,2000.0,0.0,1.0,0.0,20-20,,,flashlight,bowl,20.0,20.0,flashlight5,bowl12,0.0,20.0,Streamlight-71001-Jr-Flashlight-W-batteries-black-B00018A3CG-L.jpg,Abowl52.jpg,/static/Category_learning/Stimuli/Experimental_stims/flashlight/Streamlight-71001-Jr-Flashlight-W-batteries-black-B00018A3CG-L.jpg,/static/Category_learning/Stimuli/Experimental_stims/bowl/Abowl52.jpg,0.0,83.917,1.417,1.0,flashlight,bowl,20.0,20.0,flashlight5,bowl12,0.0,20.0,,,,,,
122,,confirmation,,html-keyboard-response,122,839197,0.0-1.0-19.0-0.0-1.0-0.0,0,0,47956,,,,,,17.0,,,,,,,,,,,,,,,,,,,,,,,84.0,0.083,,,,,,,,,,,,,,,
123,,isi,,html-keyboard-response,123,842702,0.0-1.0-19.0-0.0-2.0,0,0,47956,,,,,,,,,,,,,,,,,,,,,,,,,,,,,87.5,3.5,,,,,,,,,,,,,,,
124,,feedback,,html-keyboard-response,124,843709,0.0-1.0-19.0-0.0-3.0-0.0,0,0,47956,,,,,,17.0,,,,,,,,,,,,,,,,,,,,,,,88.5,1.0,,,,,,,,,,,,,,,
125,,iti,,html-keyboard-response,125,845715,0.0-1.0-19.0-0.0-5.0,0,0,47956,,,,,,,,,,,,,,,,,,,,,,,,,,,,,90.5,2.0,,,,,,,,,,,,,,,
126,,choice,,html-keyboard-response,126,846621,0.0-1.0-20.0-0.0-0.0,0,0,47956,,896.0,,,75.0,18.0,18.0,1500.0,1500.0,0.0,1.0,1.0,60-80,0.0,,power strip,tent,60.0,80.0,power strip12,tent1,80.0,100.0,41CXESEH1TL._AA262_.jpg,Atent8.jpg,/static/Category_learning/Stimuli/Experimental_stims/power strip/41CXESEH1TL._AA262_.jpg,/static/Category_learning/Stimuli/Experimental_stims/tent/Atent8.jpg,0.0,91.396,0.896,0.0,tent,power strip,80.0,60.0,tent1,power strip12,100.0,80.0,,,,,,
127,,confirmation,,html-keyboard-response,127,847232,0.0-1.0-20.0-0.0-1.0-0.0,0,0,47956,,,,,,18.0,,,,,,,,,,,,,,,,,,,,,,,92.0,0.604,,,,,,,,,,,,,,,
128,,isi,,html-keyboard-response,128,848739,0.0-1.0-20.0-0.0-2.0,0,0,47956,,,,,,,,,,,,,,,,,,,,,,,,,,,,,93.5,1.5,,,,,,,,,,,,,,,
129,,feedback,,html-keyboard-response,129,849749,0.0-1.0-20.0-0.0-3.0-0.0,0,0,47956,,,,,,18.0,,,,,,,,,,,,,,,,,,,,,,,94.5,1.0,,,,,,,,,,,,,,,
130,,iti,,html-keyboard-response,130,851257,0.0-1.0-20.0-0.0-5.0,0,0,47956,,,,,,,,,,,,,,,,,,,,,,,,,,,,,96.0,1.5,,,,,,,,,,,,,,,
131,,choice,,html-keyboard-response,131,852314,0.0-1.0-21.0-0.0-0.0,0,0,47956,,1049.0,,,68.0,19.0,19.0,1000.0,2000.0,0.0,1.0,0.0,40-40,,,frame,license plate,40.0,40.0,frame8,license plate14,60.0,40.0,AFRAME154.jpg,fl-hel-bel.jpg,/static/Category_learning/Stimuli/Experimental_stims/frame/AFRAME154.jpg,/static/Category_learning/Stimuli/Experimental_stims/license plate/fl-hel-bel.jpg,0.0,97.049,1.049,1.0,frame,license plate,40.0,40.0,frame8,license plate14,60.0,40.0,,,,,,
132,,confirmation,,html-keyboard-response,132,852772,0.0-1.0-21.0-0.0-1.0-0.0,0,0,47956,,,,,,19.0,,,,,,,,,,,,,,,,,,,,,,,97.5,0.451,,,,,,,,,,,,,,,
133,,isi,,html-keyboard-response,133,853779,0.0-1.0-21.0-0.0-2.0,0,0,47956,,,,,,,,,,,,,,,,,,,,,,,,,,,,,98.5,1.0,,,,,,,,,,,,,,,
134,,feedback,,html-keyboard-response,134,854786,0.0-1.0-21.0-0.0-3.0-0.0,0,0,47956,,,,,,19.0,,,,,,,,,,,,,,,,,,,,,,,99.5,1.0,,,,,,,,,,,,,,,
135,,iti,,html-keyboard-response,135,856792,0.0-1.0-21.0-0.0-5.0,0,0,47956,,,,,,,,,,,,,,,,,,,,,,,,,,,,,101.5,2.0,,,,,,,,,,,,,,,
136,,choice,,html-keyboard-response,136,857956,0.0-1.0-22.0-0.0-0.0,0,0,47956,,1154.0,,,75.0,20.0,20.0,1000.0,1000.0,0.0,1.0,0.0,20-80,,1.0,vase,desk,80.0,20.0,vase3,desk14,80.0,0.0,vase-006af-1.jpg,26419960.thl.jpg,/static/Category_learning/Stimuli/Experimental_stims/vase/vase-006af-1.jpg,/static/Category_learning/Stimuli/Experimental_stims/desk/26419960.thl.jpg,0.0,102.654,1.154,0.0,desk,vase,20.0,80.0,desk14,vase3,0.0,80.0,,,,,,
137,,confirmation,,html-keyboard-response,137,858309,0.0-1.0-22.0-0.0-1.0-0.0,0,0,47956,,,,,,20.0,,,,,,,,,,,,,,,,,,,,,,,103.0,0.346,,,,,,,,,,,,,,,
138,,isi,,html-keyboard-response,138,859315,0.0-1.0-22.0-0.0-2.0,0,0,47956,,,,,,,,,,,,,,,,,,,,,,,,,,,,,104.0,1.0,,,,,,,,,,,,,,,
139,,feedback,,html-keyboard-response,139,860322,0.0-1.0-22.0-0.0-3.0-0.0,0,0,47956,,,,,,20.0,,,,,,,,,,,,,,,,,,,,,,,105.0,1.0,,,,,,,,,,,,,,,
140,,iti,,html-keyboard-response,140,861329,0.0-1.0-22.0-0.0-5.0,0,0,47956,,,,,,,,,,,,,,,,,,,,,,,,,,,,,106.0,1.0,,,,,,,,,,,,,,,
141,,choice,,html-keyboard-response,141,862837,0.0-1.0-23.0-0.0-0.0,0,0,47956,,,,,,21.0,21.0,1500.0,2000.0,0.0,1.0,0.0,40-60,,1.0,power strip,frame,60.0,40.0,power strip5,frame1,40.0,20.0,93e4a283-bcd6-4ad1-8add-339658cda0fc_400.jpg,AFRAME127.jpg,/static/Category_learning/Stimuli/Experimental_stims/power strip/93e4a283-bcd6-4ad1-8add-339658cda0fc_400.jpg,/static/Category_learning/Stimuli/Experimental_stims/frame/AFRAME127.jpg,1.0,107.5,1.5,,,,,,,,,,,,,,,
142,,isi,,html-keyboard-response,142,864342,0.0-1.0-23.0-0.0-2.0,0,0,47956,,,,,,,,,,,,,,,,,,,,,,,,,,,,,109.0,1.5,,,,,,,,,,,,,,,
143,,no_response,,html-keyboard-response,143,865348,0.0-1.0-23.0-0.0-4.0-0.0,0,0,47956,,,,,,,,,,,,,,,,,,,,,,,,,,,,,110.0,1.0,,,,,,,,,,,,,,,
144,,iti,,html-keyboard-response,144,867419,0.0-1.0-23.0-0.0-5.0,0,0,47956,,,,,,,,,,,,,,,,,,,,,,,,,,,,,112.0,2.0,,,,,,,,,,,,,,,
145,,choice,,html-keyboard-response,145,867875,0.0-1.0-23.0-0.1-0.1,0,0,47956,,447.0,,,68.0,21.0,21.0,1500.0,2000.0,0.0,1.0,0.0,40-60,,1.0,power strip,frame,60.0,40.0,power strip5,frame1,40.0,20.0,93e4a283-bcd6-4ad1-8add-339658cda0fc_400.jpg,AFRAME127.jpg,/static/Category_learning/Stimuli/Experimental_stims/power strip/93e4a283-bcd6-4ad1-8add-339658cda0fc_400.jpg,/static/Category_learning/Stimuli/Experimental_stims/frame/AFRAME127.jpg,0.0,112.447,0.447,1.0,power strip,frame,60.0,40.0,power strip5,frame1,40.0,20.0,,,,,,
146,,confirmation,,html-keyboard-response,146,868936,0.0-1.0-23.0-0.1-1.1-0.1,0,0,47956,,,,,,21.0,,,,,,,,,,,,,,,,,,,,,,,113.5,1.053,,,,,,,,,,,,,,,
147,,isi,,html-keyboard-response,147,869942,0.0-1.0-23.0-0.1-2.1,0,0,47956,,,,,,,,,,,,,,,,,,,,,,,,,,,,,114.5,1.0,,,,,,,,,,,,,,,
148,,feedback,,html-keyboard-response,148,870949,0.0-1.0-23.0-0.1-3.1-0.1,0,0,47956,,,,,,21.0,,,,,,,,,,,,,,,,,,,,,,,115.5,1.0,,,,,,,,,,,,,,,
149,,iti,,html-keyboard-response,149,871955,0.0-1.0-23.0-0.1-5.1,0,0,47956,,,,,,,,,,,,,,,,,,,,,,,,,,,,,116.5,1.0,,,,,,,,,,,,,,,
150,,choice,,html-keyboard-response,150,873465,0.0-1.0-24.0-0.0-0.0,0,0,47956,,,,,,22.0,22.0,2000.0,1000.0,0.0,1.0,1.0,20-60,0.0,,desk,sofa,20.0,60.0,desk14,sofa6,0.0,80.0,26419960.thl.jpg,wilkie-sofa-250h-new-cd.jpg,/static/Category_learning/Stimuli/Experimental_stims/desk/26419960.thl.jpg,/static/Category_learning/Stimuli/Experimental_stims/sofa/wilkie-sofa-250h-new-cd.jpg,1.0,118.0,1.5,,,,,,,,,,,,,,,
151,,isi,,html-keyboard-response,151,875471,0.0-1.0-24.0-0.0-2.0,0,0,47956,,,,,,,,,,,,,,,,,,,,,,,,,,,,,120.0,2.0,,,,,,,,,,,,,,,
152,,no_response,,html-keyboard-response,152,876478,0.0-1.0-24.0-0.0-4.0-0.0,0,0,47956,,,,,,,,,,,,,,,,,,,,,,,,,,,,,121.0,1.0,,,,,,,,,,,,,,,
153,,iti,,html-keyboard-response,153,877517,0.0-1.0-24.0-0.0-5.0,0,0,47956,,,,,,,,,,,,,,,,,,,,,,,,,,,,,122.0,1.0,,,,,,,,,,,,,,,
154,,choice,,html-keyboard-response,154,878004,0.0-1.0-24.0-0.1-0.1,0,0,47956,,478.0,,,75.0,22.0,22.0,2000.0,1000.0,0.0,1.0,1.0,20-60,0.0,,desk,sofa,20.0,60.0,desk14,sofa6,0.0,80.0,26419960.thl.jpg,wilkie-sofa-250h-new-cd.jpg,/static/Category_learning/Stimuli/Experimental_stims/desk/26419960.thl.jpg,/static/Category_learning/Stimuli/Experimental_stims/sofa/wilkie-sofa-250h-new-cd.jpg,0.0,122.478,0.478,0.0,sofa,desk,60.0,20.0,sofa6,desk14,80.0,0.0,,,,,,
155,,confirmation,,html-keyboard-response,155,879033,0.0-1.0-24.0-0.1-1.1-0.1,0,0,47956,,,,,,22.0,,,,,,,,,,,,,,,,,,,,,,,123.5,1.022,,,,,,,,,,,,,,,
156,,isi,,html-keyboard-response,156,880039,0.0-1.0-24.0-0.1-2.1,0,0,47956,,,,,,,,,,,,,,,,,,,,,,,,,,,,,124.5,1.0,,,,,,,,,,,,,,,
157,,feedback,,html-keyboard-response,157,881045,0.0-1.0-24.0-0.1-3.1-0.1,0,0,47956,,,,,,22.0,,,,,,,,,,,,,,,,,,,,,,,125.5,1.0,,,,,,,,,,,,,,,
158,,iti,,html-keyboard-response,158,882552,0.0-1.0-24.0-0.1-5.1,0,0,47956,,,,,,,,,,,,,,,,,,,,,,,,,,,,,127.0,1.5,,,,,,,,,,,,,,,
159,,choice,,html-keyboard-response,159,884052,0.0-1.0-25.0-0.0-0.0,0,0,47956,,1491.0,,,75.0,23.0,23.0,1000.0,1000.0,0.0,1.0,0.0,40-60,,0.0,lipstick,small table,40.0,60.0,lipstick7,small table5,60.0,80.0,P101401_hero.jpg,Atable145.jpg,/static/Category_learning/Stimuli/Experimental_stims/lipstick/P101401_hero.jpg,/static/Category_learning/Stimuli/Experimental_stims/small table/Atable145.jpg,0.0,128.491,1.491,0.0,small table,lipstick,60.0,40.0,small table5,lipstick7,80.0,60.0,,,,,,
160,,confirmation,,html-keyboard-response,160,884072,0.0-1.0-25.0-0.0-1.0-0.0,0,0,47956,,,,,,23.0,,,,,,,,,,,,,,,,,,,,,,,128.5,0.009,,,,,,,,,,,,,,,
161,,isi,,html-keyboard-response,161,885078,0.0-1.0-25.0-0.0-2.0,0,0,47956,,,,,,,,,,,,,,,,,,,,,,,,,,,,,129.5,1.0,,,,,,,,,,,,,,,
162,,feedback,,html-keyboard-response,162,886085,0.0-1.0-25.0-0.0-3.0-0.0,0,0,47956,,,,,,23.0,,,,,,,,,,,,,,,,,,,,,,,130.5,1.0,,,,,,,,,,,,,,,
163,,iti,,html-keyboard-response,163,887091,0.0-1.0-25.0-0.0-5.0,0,0,47956,,,,,,,,,,,,,,,,,,,,,,,,,,,,,131.5,1.0,,,,,,,,,,,,,,,
164,,choice,,html-keyboard-response,164,888363,0.0-1.0-26.0-0.0-0.0,0,0,47956,,1264.0,,,75.0,24.0,24.0,3000.0,1500.0,0.0,1.0,0.0,20-80,,1.0,yarn,bowl,80.0,20.0,yarn4,bowl6,60.0,20.0,amethyst dreaming boho hy sml.jpg,Abowl59.jpg,/static/Category_learning/Stimuli/Experimental_stims/yarn/amethyst dreaming boho hy sml.jpg,/static/Category_learning/Stimuli/Experimental_stims/bowl/Abowl59.jpg,0.0,132.764,1.264,0.0,bowl,yarn,20.0,80.0,bowl6,yarn4,20.0,60.0,,,,,,
165,,confirmation,,html-keyboard-response,165,888605,0.0-1.0-26.0-0.0-1.0-0.0,0,0,47956,,,,,,24.0,,,,,,,,,,,,,,,,,,,,,,,133.0,0.236,,,,,,,,,,,,,,,
166,,isi,,html-keyboard-response,166,891611,0.0-1.0-26.0-0.0-2.0,0,0,47956,,,,,,,,,,,,,,,,,,,,,,,,,,,,,136.0,3.0,,,,,,,,,,,,,,,
167,,feedback,,html-keyboard-response,167,892618,0.0-1.0-26.0-0.0-3.0-0.0,0,0,47956,,,,,,24.0,,,,,,,,,,,,,,,,,,,,,,,137.0,1.0,,,,,,,,,,,,,,,
168,,iti,,html-keyboard-response,168,894125,0.0-1.0-26.0-0.0-5.0,0,0,47956,,,,,,,,,,,,,,,,,,,,,,,,,,,,,138.5,1.5,,,,,,,,,,,,,,,
169,,choice,,html-keyboard-response,169,895060,0.0-1.0-27.0-0.0-0.0,0,0,47956,,926.0,,,68.0,25.0,25.0,1000.0,2000.0,0.0,1.0,0.0,80-80,,,watch,trumpet,80.0,80.0,watch10,trumpet9,100.0,80.0,HEU0102124_zoom.jpg,trumpet3.jpg,/static/Category_learning/Stimuli/Experimental_stims/watch/HEU0102124_zoom.jpg,/static/Category_learning/Stimuli/Experimental_stims/trumpet/trumpet3.jpg,0.0,139.426,0.926,1.0,watch,trumpet,80.0,80.0,watch10,trumpet9,100.0,80.0,,,,,,
170,,confirmation,,html-keyboard-response,170,895641,0.0-1.0-27.0-0.0-1.0-0.0,0,0,47956,,,,,,25.0,,,,,,,,,,,,,,,,,,,,,,,140.0,0.574,,,,,,,,,,,,,,,
171,,isi,,html-keyboard-response,171,896648,0.0-1.0-27.0-0.0-2.0,0,0,47956,,,,,,,,,,,,,,,,,,,,,,,,,,,,,141.0,1.0,,,,,,,,,,,,,,,
172,,feedback,,html-keyboard-response,172,897655,0.0-1.0-27.0-0.0-3.0-0.0,0,0,47956,,,,,,25.0,,,,,,,,,,,,,,,,,,,,,,,142.0,1.0,,,,,,,,,,,,,,,
173,,iti,,html-keyboard-response,173,899660,0.0-1.0-27.0-0.0-5.0,0,0,47956,,,,,,,,,,,,,,,,,,,,,,,,,,,,,144.0,2.0,,,,,,,,,,,,,,,
174,,choice,,html-keyboard-response,174,900547,0.0-1.0-28.0-0.0-0.0,0,0,47956,,881.0,,,75.0,26.0,26.0,2000.0,1000.0,0.0,1.0,1.0,20-40,0.0,,flashlight,frame,20.0,40.0,flashlight5,frame8,0.0,60.0,Streamlight-71001-Jr-Flashlight-W-batteries-black-B00018A3CG-L.jpg,AFRAME154.jpg,/static/Category_learning/Stimuli/Experimental_stims/flashlight/Streamlight-71001-Jr-Flashlight-W-batteries-black-B00018A3CG-L.jpg,/static/Category_learning/Stimuli/Experimental_stims/frame/AFRAME154.jpg,0.0,144.881,0.881,0.0,frame,flashlight,40.0,20.0,frame8,flashlight5,60.0,0.0,,,,,,
175,,confirmation,,html-keyboard-response,175,901174,0.0-1.0-28.0-0.0-1.0-0.0,0,0,47956,,,,,,26.0,,,,,,,,,,,,,,,,,,,,,,,145.5,0.619,,,,,,,,,,,,,,,
176,,isi,,html-keyboard-response,176,903180,0.0-1.0-28.0-0.0-2.0,0,0,47956,,,,,,,,,,,,,,,,,,,,,,,,,,,,,147.5,2.0,,,,,,,,,,,,,,,
177,,feedback,,html-keyboard-response,177,904187,0.0-1.0-28.0-0.0-3.0-0.0,0,0,47956,,,,,,26.0,,,,,,,,,,,,,,,,,,,,,,,148.5,1.0,,,,,,,,,,,,,,,
178,,iti,,html-keyboard-response,178,905191,0.0-1.0-28.0-0.0-5.0,0,0,47956,,,,,,,,,,,,,,,,,,,,,,,,,,,,,149.5,1.0,,,,,,,,,,,,,,,
179,,choice,,html-keyboard-response,179,906420,0.0-1.0-29.0-0.0-0.0,0,0,47956,,1222.0,,,68.0,27.0,27.0,3000.0,1500.0,0.0,1.0,0.0,80-80,,,stool,yarn,80.0,80.0,stool12,yarn7,80.0,100.0,henrybar_stool1.jpg,herb garden hy smaller.jpg,/static/Category_learning/Stimuli/Experimental_stims/stool/henrybar_stool1.jpg,/static/Category_learning/Stimuli/Experimental_stims/yarn/herb garden hy smaller.jpg,0.0,150.722,1.222,1.0,stool,yarn,80.0,80.0,stool12,yarn7,80.0,100.0,,,,,,
180,,confirmation,,html-keyboard-response,180,906705,0.0-1.0-29.0-0.0-1.0-0.0,0,0,47956,,,,,,27.0,,,,,,,,,,,,,,,,,,,,,,,151.0,0.278,,,,,,,,,,,,,,,
181,,isi,,html-keyboard-response,181,909711,0.0-1.0-29.0-0.0-2.0,0,0,47956,,,,,,,,,,,,,,,,,,,,,,,,,,,,,154.0,3.0,,,,,,,,,,,,,,,
182,,feedback,,html-keyboard-response,182,910717,0.0-1.0-29.0-0.0-3.0-0.0,0,0,47956,,,,,,27.0,,,,,,,,,,,,,,,,,,,,,,,155.0,1.0,,,,,,,,,,,,,,,
183,,iti,,html-keyboard-response,183,912222,0.0-1.0-29.0-0.0-5.0,0,0,47956,,,,,,,,,,,,,,,,,,,,,,,,,,,,,156.5,1.5,,,,,,,,,,,,,,,
184,,choice,,html-keyboard-response,184,913731,0.0-1.0-30.0-0.0-0.0,0,0,47956,,,,,,28.0,28.0,2000.0,1500.0,0.0,1.0,0.0,40-60,,1.0,patio lounge chair,makeup compact,60.0,40.0,patio lounge chair6,makeup compact5,60.0,60.0,Lounge_Chair_with_Pillow.jpg,P109965_hero.jpg,/static/Category_learning/Stimuli/Experimental_stims/patio lounge chair/Lounge_Chair_with_Pillow.jpg,/static/Category_learning/Stimuli/Experimental_stims/makeup compact/P109965_hero.jpg,1.0,158.0,1.5,,,,,,,,,,,,,,,
185,,isi,,html-keyboard-response,185,915738,0.0-1.0-30.0-0.0-2.0,0,0,47956,,,,,,,,,,,,,,,,,,,,,,,,,,,,,160.0,2.0,,,,,,,,,,,,,,,
186,,no_response,,html-keyboard-response,186,916744,0.0-1.0-30.0-0.0-4.0-0.0,0,0,47956,,,,,,,,,,,,,,,,,,,,,,,,,,,,,161.0,1.0,,,,,,,,,,,,,,,
187,,iti,,html-keyboard-response,187,918298,0.0-1.0-30.0-0.0-5.0,0,0,47956,,,,,,,,,,,,,,,,,,,,,,,,,,,,,162.5,1.5,,,,,,,,,,,,,,,
188,,choice,,html-keyboard-response,188,918691,0.0-1.0-30.0-0.1-0.1,0,0,47956,,383.0,,,75.0,28.0,28.0,2000.0,1500.0,0.0,1.0,0.0,40-60,,1.0,patio lounge chair,makeup compact,60.0,40.0,patio lounge chair6,makeup compact5,60.0,60.0,Lounge_Chair_with_Pillow.jpg,P109965_hero.jpg,/static/Category_learning/Stimuli/Experimental_stims/patio lounge chair/Lounge_Chair_with_Pillow.jpg,/static/Category_learning/Stimuli/Experimental_stims/makeup compact/P109965_hero.jpg,0.0,162.883,0.383,0.0,makeup compact,patio lounge chair,40.0,60.0,makeup compact5,patio lounge chair6,60.0,60.0,,,,,,
189,,confirmation,,html-keyboard-response,189,919817,0.0-1.0-30.0-0.1-1.1-0.1,0,0,47956,,,,,,28.0,,,,,,,,,,,,,,,,,,,,,,,164.0,1.117,,,,,,,,,,,,,,,
190,,isi,,html-keyboard-response,190,920823,0.0-1.0-30.0-0.1-2.1,0,0,47956,,,,,,,,,,,,,,,,,,,,,,,,,,,,,165.0,1.0,,,,,,,,,,,,,,,
191,,feedback,,html-keyboard-response,191,921830,0.0-1.0-30.0-0.1-3.1-0.1,0,0,47956,,,,,,28.0,,,,,,,,,,,,,,,,,,,,,,,166.0,1.0,,,,,,,,,,,,,,,
192,,iti,,html-keyboard-response,192,923336,0.0-1.0-30.0-0.1-5.1,0,0,47956,,,,,,,,,,,,,,,,,,,,,,,,,,,,,167.5,1.5,,,,,,,,,,,,,,,
193,,choice,,html-keyboard-response,193,924849,0.0-1.0-31.0-0.0-0.0,0,0,47956,,,,,,29.0,29.0,1000.0,3500.0,0.0,1.0,0.0,40-80,,0.0,license plate,tape,40.0,80.0,license plate12,tape7,20.0,80.0,TurtleLicensePlate.jpg,tape dispenser.jpg,/static/Category_learning/Stimuli/Experimental_stims/license plate/TurtleLicensePlate.jpg,/static/Category_learning/Stimuli/Experimental_stims/tape/tape dispenser.jpg,1.0,169.0,1.5,,,,,,,,,,,,,,,
194,,isi,,html-keyboard-response,194,925856,0.0-1.0-31.0-0.0-2.0,0,0,47956,,,,,,,,,,,,,,,,,,,,,,,,,,,,,170.0,1.0,,,,,,,,,,,,,,,
195,,no_response,,html-keyboard-response,195,926862,0.0-1.0-31.0-0.0-4.0-0.0,0,0,47956,,,,,,,,,,,,,,,,,,,,,,,,,,,,,171.0,1.0,,,,,,,,,,,,,,,
196,,iti,,html-keyboard-response,196,930425,0.0-1.0-31.0-0.0-5.0,0,0,47956,,,,,,,,,,,,,,,,,,,,,,,,,,,,,174.5,3.5,,,,,,,,,,,,,,,
197,,choice,,html-keyboard-response,197,930931,0.0-1.0-31.0-0.1-0.1,0,0,47956,,498.0,,,68.0,29.0,29.0,1000.0,3500.0,0.0,1.0,0.0,40-80,,0.0,license plate,tape,40.0,80.0,license plate12,tape7,20.0,80.0,TurtleLicensePlate.jpg,tape dispenser.jpg,/static/Category_learning/Stimuli/Experimental_stims/license plate/TurtleLicensePlate.jpg,/static/Category_learning/Stimuli/Experimental_stims/tape/tape dispenser.jpg,0.0,174.998,0.498,1.0,license plate,tape,40.0,80.0,license plate12,tape7,20.0,80.0,,,,,,
198,,confirmation,,html-keyboard-response,198,931941,0.0-1.0-31.0-0.1-1.1-0.1,0,0,47956,,,,,,29.0,,,,,,,,,,,,,,,,,,,,,,,176.0,1.002,,,,,,,,,,,,,,,
199,,isi,,html-keyboard-response,199,933947,0.0-1.0-31.0-0.1-2.1,0,0,47956,,,,,,,,,,,,,,,,,,,,,,,,,,,,,178.0,2.0,,,,,,,,,,,,,,,
200,,feedback,,html-keyboard-response,200,934951,0.0-1.0-31.0-0.1-3.1-0.1,0,0,47956,,,,,,29.0,,,,,,,,,,,,,,,,,,,,,,,179.0,1.0,,,,,,,,,,,,,,,
201,,iti,,html-keyboard-response,201,936958,0.0-1.0-31.0-0.1-5.1,0,0,47956,,,,,,,,,,,,,,,,,,,,,,,,,,,,,181.0,2.0,,,,,,,,,,,,,,,
202,,choice,,html-keyboard-response,202,937891,0.0-1.0-32.0-0.0-0.0,0,0,47956,,924.0,,,68.0,30.0,30.0,1000.0,1000.0,0.0,1.0,0.0,20-80,,0.0,desk,yarn,20.0,80.0,desk10,yarn3,20.0,100.0,MEX028.jpg,Aballofblueya.jpg,/static/Category_learning/Stimuli/Experimental_stims/desk/MEX028.jpg,/static/Category_learning/Stimuli/Experimental_stims/yarn/Aballofblueya.jpg,0.0,181.924,0.924,1.0,desk,yarn,20.0,80.0,desk10,yarn3,20.0,100.0,,,,,,
203,,confirmation,,html-keyboard-response,203,938474,0.0-1.0-32.0-0.0-1.0-0.0,0,0,47956,,,,,,30.0,,,,,,,,,,,,,,,,,,,,,,,182.5,0.576,,,,,,,,,,,,,,,
204,,isi,,html-keyboard-response,204,939480,0.0-1.0-32.0-0.0-2.0,0,0,47956,,,,,,,,,,,,,,,,,,,,,,,,,,,,,183.5,1.0,,,,,,,,,,,,,,,
205,,feedback,,html-keyboard-response,205,940486,0.0-1.0-32.0-0.0-3.0-0.0,0,0,47956,,,,,,30.0,,,,,,,,,,,,,,,,,,,,,,,184.5,1.0,,,,,,,,,,,,,,,
206,,iti,,html-keyboard-response,206,941494,0.0-1.0-32.0-0.0-5.0,0,0,47956,,,,,,,,,,,,,,,,,,,,,,,,,,,,,185.5,1.0,,,,,,,,,,,,,,,
207,,choice,,html-keyboard-response,207,942412,0.0-1.0-33.0-0.0-0.0,0,0,47956,,906.0,,,68.0,31.0,31.0,1500.0,3000.0,0.0,1.0,0.0,20-60,,0.0,fan,poker card,20.0,60.0,fan14,poker card15,40.0,40.0,124771_sk_lg.jpg,9816946.thl.jpg,/static/Category_learning/Stimuli/Experimental_stims/fan/124771_sk_lg.jpg,/static/Category_learning/Stimuli/Experimental_stims/poker card/9816946.thl.jpg,0.0,186.406,0.906,1.0,fan,poker card,20.0,60.0,fan14,poker card15,40.0,40.0,,,,,,
208,,confirmation,,html-keyboard-response,208,943013,0.0-1.0-33.0-0.0-1.0-0.0,0,0,47956,,,,,,31.0,,,,,,,,,,,,,,,,,,,,,,,187.0,0.594,,,,,,,,,,,,,,,
209,,isi,,html-keyboard-response,209,944519,0.0-1.0-33.0-0.0-2.0,0,0,47956,,,,,,,,,,,,,,,,,,,,,,,,,,,,,188.5,1.5,,,,,,,,,,,,,,,
210,,feedback,,html-keyboard-response,210,945527,0.0-1.0-33.0-0.0-3.0-0.0,0,0,47956,,,,,,31.0,,,,,,,,,,,,,,,,,,,,,,,189.5,1.0,,,,,,,,,,,,,,,
211,,iti,,html-keyboard-response,211,948533,0.0-1.0-33.0-0.0-5.0,0,0,47956,,,,,,,,,,,,,,,,,,,,,,,,,,,,,192.5,3.0,,,,,,,,,,,,,,,
212,,choice,,html-keyboard-response,212,949305,0.0-1.0-34.0-0.0-0.0,0,0,47956,,760.0,,,75.0,32.0,32.0,2000.0,2000.0,0.0,1.0,0.0,60-80,,0.0,nail polish,tape,60.0,80.0,nail polish11,tape10,80.0,60.0,Revlon_Super_Top_Speed_Chrome_Nail_Polish-resized200.jpg,26377601.thl.jpg,/static/Category_learning/Stimuli/Experimental_stims/nail polish/Revlon_Super_Top_Speed_Chrome_Nail_Polish-resized200.jpg,/static/Category_learning/Stimuli/Experimental_stims/tape/26377601.thl.jpg,0.0,193.26,0.76,0.0,tape,nail polish,80.0,60.0,tape10,nail polish11,60.0,80.0,,,,,,
213,,confirmation,,html-keyboard-response,213,950052,0.0-1.0-34.0-0.0-1.0-0.0,0,0,47956,,,,,,32.0,,,,,,,,,,,,,,,,,,,,,,,194.0,0.74,,,,,,,,,,,,,,,
214,,isi,,html-keyboard-response,214,952058,0.0-1.0-34.0-0.0-2.0,0,0,47956,,,,,,,,,,,,,,,,,,,,,,,,,,,,,196.0,2.0,,,,,,,,,,,,,,,
215,,feedback,,html-keyboard-response,215,953066,0.0-1.0-34.0-0.0-3.0-0.0,0,0,47956,,,,,,32.0,,,,,,,,,,,,,,,,,,,,,,,197.0,1.0,,,,,,,,,,,,,,,
216,,iti,,html-keyboard-response,216,955071,0.0-1.0-34.0-0.0-5.0,0,0,47956,,,,,,,,,,,,,,,,,,,,,,,,,,,,,199.0,2.0,,,,,,,,,,,,,,,
217,,choice,,html-keyboard-response,217,956243,0.0-1.0-35.0-0.0-0.0,0,0,47956,,1164.0,,,68.0,33.0,33.0,1000.0,1000.0,0.0,1.0,0.0,20-60,,0.0,baby carriage,power strip,20.0,60.0,baby carriage5,power strip11,20.0,40.0,Baby_Stroller.jpg,41Bw7Tl1G7L._AA262_.jpg,/static/Category_learning/Stimuli/Experimental_stims/baby carriage/Baby_Stroller.jpg,/static/Category_learning/Stimuli/Experimental_stims/power strip/41Bw7Tl1G7L._AA262_.jpg,0.0,200.164,1.164,1.0,baby carriage,power strip,20.0,60.0,baby carriage5,power strip11,20.0,40.0,,,,,,
218,,confirmation,,html-keyboard-response,218,956587,0.0-1.0-35.0-0.0-1.0-0.0,0,0,47956,,,,,,33.0,,,,,,,,,,,,,,,,,,,,,,,200.5,0.336,,,,,,,,,,,,,,,
219,,isi,,html-keyboard-response,219,957592,0.0-1.0-35.0-0.0-2.0,0,0,47956,,,,,,,,,,,,,,,,,,,,,,,,,,,,,201.5,1.0,,,,,,,,,,,,,,,
220,,feedback,,html-keyboard-response,220,958599,0.0-1.0-35.0-0.0-3.0-0.0,0,0,47956,,,,,,33.0,,,,,,,,,,,,,,,,,,,,,,,202.5,1.0,,,,,,,,,,,,,,,
221,,iti,,html-keyboard-response,221,959605,0.0-1.0-35.0-0.0-5.0,0,0,47956,,,,,,,,,,,,,,,,,,,,,,,,,,,,,203.5,1.0,,,,,,,,,,,,,,,
222,,choice,,html-keyboard-response,222,960987,0.0-1.0-36.0-0.0-0.0,0,0,47956,,1372.0,,,75.0,34.0,34.0,3500.0,1500.0,0.0,1.0,0.0,20-20,,,dresser,fan,20.0,20.0,dresser6,fan4,40.0,0.0,ADRESSE96.jpg,AFAN39.jpg,/static/Category_learning/Stimuli/Experimental_stims/dresser/ADRESSE96.jpg,/static/Category_learning/Stimuli/Experimental_stims/fan/AFAN39.jpg,0.0,204.872,1.372,0.0,fan,dresser,20.0,20.0,fan4,dresser6,0.0,40.0,,,,,,
223,,confirmation,,html-keyboard-response,223,961123,0.0-1.0-36.0-0.0-1.0-0.0,0,0,47956,,,,,,34.0,,,,,,,,,,,,,,,,,,,,,,,205.0,0.128,,,,,,,,,,,,,,,
224,,isi,,html-keyboard-response,224,964629,0.0-1.0-36.0-0.0-2.0,0,0,47956,,,,,,,,,,,,,,,,,,,,,,,,,,,,,208.5,3.5,,,,,,,,,,,,,,,
225,,feedback,,html-keyboard-response,225,965636,0.0-1.0-36.0-0.0-3.0-0.0,0,0,47956,,,,,,34.0,,,,,,,,,,,,,,,,,,,,,,,209.5,1.0,,,,,,,,,,,,,,,
226,,iti,,html-keyboard-response,226,967142,0.0-1.0-36.0-0.0-5.0,0,0,47956,,,,,,,,,,,,,,,,,,,,,,,,,,,,,211.0,1.5,,,,,,,,,,,,,,,
227,,choice,,html-keyboard-response,227,967906,0.0-1.0-37.0-0.0-0.0,0,0,47956,,756.0,,,68.0,35.0,35.0,1500.0,1500.0,0.0,1.0,0.0,20-80,,1.0,vase,bowl,80.0,20.0,vase9,bowl2,80.0,40.0,Avasewithang2.jpg,AMIXBOWL2.jpg,/static/Category_learning/Stimuli/Experimental_stims/vase/Avasewithang2.jpg,/static/Category_learning/Stimuli/Experimental_stims/bowl/AMIXBOWL2.jpg,0.0,211.756,0.756,1.0,vase,bowl,80.0,20.0,vase9,bowl2,80.0,40.0,,,,,,
228,,confirmation,,html-keyboard-response,228,968657,0.0-1.0-37.0-0.0-1.0-0.0,0,0,47956,,,,,,35.0,,,,,,,,,,,,,,,,,,,,,,,212.5,0.744,,,,,,,,,,,,,,,
229,,isi,,html-keyboard-response,229,970163,0.0-1.0-37.0-0.0-2.0,0,0,47956,,,,,,,,,,,,,,,,,,,,,,,,,,,,,214.0,1.5,,,,,,,,,,,,,,,
230,,feedback,,html-keyboard-response,230,971169,0.0-1.0-37.0-0.0-3.0-0.0,0,0,47956,,,,,,35.0,,,,,,,,,,,,,,,,,,,,,,,215.0,1.0,,,,,,,,,,,,,,,
231,,iti,,html-keyboard-response,231,972674,0.0-1.0-37.0-0.0-5.0,0,0,47956,,,,,,,,,,,,,,,,,,,,,,,,,,,,,216.5,1.5,,,,,,,,,,,,,,,
232,,choice,,html-keyboard-response,232,973592,0.0-1.0-38.0-0.0-0.0,0,0,47956,,912.0,,,68.0,36.0,36.0,2000.0,1000.0,0.0,1.0,0.0,40-40,,,hammer,lipstick,40.0,40.0,hammer12,lipstick14,20.0,60.0,24oz hammer.jpg,P109907_hero.jpg,/static/Category_learning/Stimuli/Experimental_stims/hammer/24oz hammer.jpg,/static/Category_learning/Stimuli/Experimental_stims/lipstick/P109907_hero.jpg,0.0,217.412,0.912,1.0,hammer,lipstick,40.0,40.0,hammer12,lipstick14,20.0,60.0,,,,,,
233,,confirmation,,html-keyboard-response,233,974185,0.0-1.0-38.0-0.0-1.0-0.0,0,0,47956,,,,,,36.0,,,,,,,,,,,,,,,,,,,,,,,218.0,0.588,,,,,,,,,,,,,,,
234,,isi,,html-keyboard-response,234,976190,0.0-1.0-38.0-0.0-2.0,0,0,47956,,,,,,,,,,,,,,,,,,,,,,,,,,,,,220.0,2.0,,,,,,,,,,,,,,,
235,,feedback,,html-keyboard-response,235,977197,0.0-1.0-38.0-0.0-3.0-0.0,0,0,47956,,,,,,36.0,,,,,,,,,,,,,,,,,,,,,,,221.0,1.0,,,,,,,,,,,,,,,
236,,iti,,html-keyboard-response,236,978203,0.0-1.0-38.0-0.0-5.0,0,0,47956,,,,,,,,,,,,,,,,,,,,,,,,,,,,,222.0,1.0,,,,,,,,,,,,,,,
237,,choice,,html-keyboard-response,237,978963,0.0-1.0-39.0-0.0-0.0,0,0,47956,,749.0,,,75.0,37.0,37.0,3000.0,2000.0,0.0,1.0,1.0,20-20,1.0,,fan,fan,20.0,20.0,fan4,fan14,0.0,40.0,AFAN39.jpg,124771_sk_lg.jpg,/static/Category_learning/Stimuli/Experimental_stims/fan/AFAN39.jpg,/static/Category_learning/Stimuli/Experimental_stims/fan/124771_sk_lg.jpg,0.0,222.749,0.749,0.0,fan,fan,20.0,20.0,fan14,fan4,40.0,0.0,,,,,,
238,,confirmation,,html-keyboard-response,238,979721,0.0-1.0-39.0-0.0-1.0-0.0,0,0,47956,,,,,,37.0,,,,,,,,,,,,,,,,,,,,,,,223.5,0.751,,,,,,,,,,,,,,,
239,,isi,,html-keyboard-response,239,982727,0.0-1.0-39.0-0.0-2.0,0,0,47956,,,,,,,,,,,,,,,,,,,,,,,,,,,,,226.5,3.0,,,,,,,,,,,,,,,
240,,feedback,,html-keyboard-response,240,983733,0.0-1.0-39.0-0.0-3.0-0.0,0,0,47956,,,,,,37.0,,,,,,,,,,,,,,,,,,,,,,,227.5,1.0,,,,,,,,,,,,,,,
241,,iti,,html-keyboard-response,241,985737,0.0-1.0-39.0-0.0-5.0,0,0,47956,,,,,,,,,,,,,,,,,,,,,,,,,,,,,229.5,2.0,,,,,,,,,,,,,,,
242,,choice,,html-keyboard-response,242,986824,0.0-1.0-40.0-0.0-0.0,0,0,47956,,1080.0,,,75.0,38.0,38.0,1500.0,3000.0,0.0,1.0,0.0,20-60,,1.0,poker card,door knob,60.0,20.0,poker card13,door knob14,80.0,20.0,9817197.thl.jpg,500_CLANYKAB.jpg,/static/Category_learning/Stimuli/Experimental_stims/poker card/9817197.thl.jpg,/static/Category_learning/Stimuli/Experimental_stims/door knob/500_CLANYKAB.jpg,0.0,230.58,1.08,0.0,door knob,poker card,20.0,60.0,door knob14,poker card13,20.0,80.0,,,,,,
243,,confirmation,,html-keyboard-response,243,987251,0.0-1.0-40.0-0.0-1.0-0.0,0,0,47956,,,,,,38.0,,,,,,,,,,,,,,,,,,,,,,,231.0,0.42,,,,,,,,,,,,,,,
244,,isi,,html-keyboard-response,244,988759,0.0-1.0-40.0-0.0-2.0,0,0,47956,,,,,,,,,,,,,,,,,,,,,,,,,,,,,232.5,1.5,,,,,,,,,,,,,,,
245,,feedback,,html-keyboard-response,245,989767,0.0-1.0-40.0-0.0-3.0-0.0,0,0,47956,,,,,,38.0,,,,,,,,,,,,,,,,,,,,,,,233.5,1.0,,,,,,,,,,,,,,,
246,,iti,,html-keyboard-response,246,992773,0.0-1.0-40.0-0.0-5.0,0,0,47956,,,,,,,,,,,,,,,,,,,,,,,,,,,,,236.5,3.0,,,,,,,,,,,,,,,
247,,choice,,html-keyboard-response,247,993490,0.0-1.0-41.0-0.0-0.0,0,0,47956,,710.0,,,68.0,39.0,39.0,3500.0,1000.0,0.0,1.0,1.0,40-60,0.0,,small table,hammer,60.0,40.0,small table5,hammer12,80.0,20.0,Atable145.jpg,24oz hammer.jpg,/static/Category_learning/Stimuli/Experimental_stims/small table/Atable145.jpg,/static/Category_learning/Stimuli/Experimental_stims/hammer/24oz hammer.jpg,0.0,237.21,0.71,1.0,small table,hammer,60.0,40.0,small table5,hammer12,80.0,20.0,,,,,,
248,,confirmation,,html-keyboard-response,248,994286,0.0-1.0-41.0-0.0-1.0-0.0,0,0,47956,,,,,,39.0,,,,,,,,,,,,,,,,,,,,,,,238.0,0.79,,,,,,,,,,,,,,,
249,,isi,,html-keyboard-response,249,997792,0.0-1.0-41.0-0.0-2.0,0,0,47956,,,,,,,,,,,,,,,,,,,,,,,,,,,,,241.5,3.5,,,,,,,,,,,,,,,
250,,feedback,,html-keyboard-response,250,998805,0.0-1.0-41.0-0.0-3.0-0.0,0,0,47956,,,,,,39.0,,,,,,,,,,,,,,,,,,,,,,,242.5,1.0,,,,,,,,,,,,,,,
251,,iti,,html-keyboard-response,251,999823,0.0-1.0-41.0-0.0-5.0,0,0,47956,,,,,,,,,,,,,,,,,,,,,,,,,,,,,243.5,1.0,,,,,,,,,,,,,,,
252,,choice,,html-keyboard-response,252,1000889,0.0-1.0-42.0-0.0-0.0,0,0,47956,,1057.0,,,75.0,40.0,40.0,2000.0,3000.0,0.0,1.0,1.0,40-80,0.0,,tape,makeup compact,80.0,40.0,tape10,makeup compact5,60.0,60.0,26377601.thl.jpg,P109965_hero.jpg,/static/Category_learning/Stimuli/Experimental_stims/tape/26377601.thl.jpg,/static/Category_learning/Stimuli/Experimental_stims/makeup compact/P109965_hero.jpg,0.0,244.557,1.057,0.0,makeup compact,tape,40.0,80.0,makeup compact5,tape10,60.0,60.0,,,,,,
253,,confirmation,,html-keyboard-response,253,1001342,0.0-1.0-42.0-0.0-1.0-0.0,0,0,47956,,,,,,40.0,,,,,,,,,,,,,,,,,,,,,,,245.0,0.443,,,,,,,,,,,,,,,
254,,isi,,html-keyboard-response,254,1003347,0.0-1.0-42.0-0.0-2.0,0,0,47956,,,,,,,,,,,,,,,,,,,,,,,,,,,,,247.0,2.0,,,,,,,,,,,,,,,
255,,feedback,,html-keyboard-response,255,1004353,0.0-1.0-42.0-0.0-3.0-0.0,0,0,47956,,,,,,40.0,,,,,,,,,,,,,,,,,,,,,,,248.0,1.0,,,,,,,,,,,,,,,
256,,iti,,html-keyboard-response,256,1007360,0.0-1.0-42.0-0.0-5.0,0,0,47956,,,,,,,,,,,,,,,,,,,,,,,,,,,,,251.0,3.0,,,,,,,,,,,,,,,
257,,choice,,html-keyboard-response,257,1008051,0.0-1.0-43.0-0.0-0.0,0,0,47956,,682.0,,,68.0,41.0,41.0,1000.0,1000.0,0.0,1.0,0.0,20-60,,1.0,small table,bongo,60.0,20.0,small table4,bongo9,40.0,20.0,ACOFTABLE.jpg,22946035.thl.jpg,/static/Category_learning/Stimuli/Experimental_stims/small table/ACOFTABLE.jpg,/static/Category_learning/Stimuli/Experimental_stims/bongo/22946035.thl.jpg,0.0,251.682,0.682,1.0,small table,bongo,60.0,20.0,small table4,bongo9,40.0,20.0,,,,,,
258,,confirmation,,html-keyboard-response,258,1008875,0.0-1.0-43.0-0.0-1.0-0.0,0,0,47956,,,,,,41.0,,,,,,,,,,,,,,,,,,,,,,,252.5,0.818,,,,,,,,,,,,,,,
259,,isi,,html-keyboard-response,259,1009881,0.0-1.0-43.0-0.0-2.0,0,0,47956,,,,,,,,,,,,,,,,,,,,,,,,,,,,,253.5,1.0,,,,,,,,,,,,,,,
260,,feedback,,html-keyboard-response,260,1010888,0.0-1.0-43.0-0.0-3.0-0.0,0,0,47956,,,,,,41.0,,,,,,,,,,,,,,,,,,,,,,,254.5,1.0,,,,,,,,,,,,,,,
261,,iti,,html-keyboard-response,261,1011895,0.0-1.0-43.0-0.0-5.0,0,0,47956,,,,,,,,,,,,,,,,,,,,,,,,,,,,,255.5,1.0,,,,,,,,,,,,,,,
262,,choice,,html-keyboard-response,262,1013010,0.0-1.0-44.0-0.0-0.0,0,0,47956,,1106.0,,,68.0,42.0,42.0,3500.0,1000.0,0.0,1.0,0.0,60-60,,,necklace,poker card,60.0,60.0,necklace2,poker card5,40.0,40.0,Anecklace7.jpg,22864800.thl.jpg,/static/Category_learning/Stimuli/Experimental_stims/necklace/Anecklace7.jpg,/static/Category_learning/Stimuli/Experimental_stims/poker card/22864800.thl.jpg,0.0,256.606,1.106,1.0,necklace,poker card,60.0,60.0,necklace2,poker card5,40.0,40.0,,,,,,
263,,confirmation,,html-keyboard-response,263,1013410,0.0-1.0-44.0-0.0-1.0-0.0,0,0,47956,,,,,,42.0,,,,,,,,,,,,,,,,,,,,,,,257.0,0.394,,,,,,,,,,,,,,,
264,,isi,,html-keyboard-response,264,1016923,0.0-1.0-44.0-0.0-2.0,0,0,47956,,,,,,,,,,,,,,,,,,,,,,,,,,,,,260.5,3.5,,,,,,,,,,,,,,,
265,,feedback,,html-keyboard-response,265,1017931,0.0-1.0-44.0-0.0-3.0-0.0,0,0,47956,,,,,,42.0,,,,,,,,,,,,,,,,,,,,,,,261.5,1.0,,,,,,,,,,,,,,,
266,,iti,,html-keyboard-response,266,1018936,0.0-1.0-44.0-0.0-5.0,0,0,47956,,,,,,,,,,,,,,,,,,,,,,,,,,,,,262.5,1.0,,,,,,,,,,,,,,,
267,,choice,,html-keyboard-response,267,1020136,0.0-1.0-45.0-0.0-0.0,0,0,47956,,1195.0,,,75.0,43.0,43.0,2000.0,2000.0,0.0,1.0,0.0,40-60,,0.0,lipstick,power strip,40.0,60.0,lipstick10,power strip10,60.0,60.0,21K0D7QKFAL._SS500_.jpg,6bd437c9-6165-4d36-bf75-9a1038783c6a_400.jpg,/static/Category_learning/Stimuli/Experimental_stims/lipstick/21K0D7QKFAL._SS500_.jpg,/static/Category_learning/Stimuli/Experimental_stims/power strip/6bd437c9-6165-4d36-bf75-9a1038783c6a_400.jpg,0.0,263.695,1.195,0.0,power strip,lipstick,60.0,40.0,power strip10,lipstick10,60.0,60.0,,,,,,
268,,confirmation,,html-keyboard-response,268,1020447,0.0-1.0-45.0-0.0-1.0-0.0,0,0,47956,,,,,,43.0,,,,,,,,,,,,,,,,,,,,,,,264.0,0.305,,,,,,,,,,,,,,,
269,,isi,,html-keyboard-response,269,1022458,0.0-1.0-45.0-0.0-2.0,0,0,47956,,,,,,,,,,,,,,,,,,,,,,,,,,,,,266.0,2.0,,,,,,,,,,,,,,,
270,,feedback,,html-keyboard-response,270,1023466,0.0-1.0-45.0-0.0-3.0-0.0,0,0,47956,,,,,,43.0,,,,,,,,,,,,,,,,,,,,,,,267.0,1.0,,,,,,,,,,,,,,,
271,,iti,,html-keyboard-response,271,1025470,0.0-1.0-45.0-0.0-5.0,0,0,47956,,,,,,,,,,,,,,,,,,,,,,,,,,,,,269.0,2.0,,,,,,,,,,,,,,,
272,,choice,,html-keyboard-response,272,1026465,0.0-1.0-46.0-0.0-0.0,0,0,47956,,988.0,,,68.0,44.0,44.0,1000.0,3000.0,0.0,1.0,1.0,60-60,1.0,,power strip,power strip,60.0,60.0,power strip5,power strip10,40.0,60.0,93e4a283-bcd6-4ad1-8add-339658cda0fc_400.jpg,6bd437c9-6165-4d36-bf75-9a1038783c6a_400.jpg,/static/Category_learning/Stimuli/Experimental_stims/power strip/93e4a283-bcd6-4ad1-8add-339658cda0fc_400.jpg,/static/Category_learning/Stimuli/Experimental_stims/power strip/6bd437c9-6165-4d36-bf75-9a1038783c6a_400.jpg,0.0,269.988,0.988,1.0,power strip,power strip,60.0,60.0,power strip5,power strip10,40.0,60.0,,,,,,
273,,confirmation,,html-keyboard-response,273,1026986,0.0-1.0-46.0-0.0-1.0-0.0,0,0,47956,,,,,,44.0,,,,,,,,,,,,,,,,,,,,,,,270.5,0.512,,,,,,,,,,,,,,,
274,,isi,,html-keyboard-response,274,1027991,0.0-1.0-46.0-0.0-2.0,0,0,47956,,,,,,,,,,,,,,,,,,,,,,,,,,,,,271.5,1.0,,,,,,,,,,,,,,,
275,,feedback,,html-keyboard-response,275,1028998,0.0-1.0-46.0-0.0-3.0-0.0,0,0,47956,,,,,,44.0,,,,,,,,,,,,,,,,,,,,,,,272.5,1.0,,,,,,,,,,,,,,,
276,,iti,,html-keyboard-response,276,1032010,0.0-1.0-46.0-0.0-5.0,0,0,47956,,,,,,,,,,,,,,,,,,,,,,,,,,,,,275.5,3.0,,,,,,,,,,,,,,,
277,,choice,,html-keyboard-response,277,1032866,0.0-1.0-47.0-0.0-0.0,0,0,47956,,844.0,,,75.0,45.0,45.0,1500.0,1000.0,0.0,1.0,1.0,20-40,0.0,,door knob,license plate,20.0,40.0,door knob14,license plate12,20.0,20.0,500_CLANYKAB.jpg,TurtleLicensePlate.jpg,/static/Category_learning/Stimuli/Experimental_stims/door knob/500_CLANYKAB.jpg,/static/Category_learning/Stimuli/Experimental_stims/license plate/TurtleLicensePlate.jpg,0.0,276.344,0.844,0.0,license plate,door knob,40.0,20.0,license plate12,door knob14,20.0,20.0,,,,,,
278,,confirmation,,html-keyboard-response,278,1033531,0.0-1.0-47.0-0.0-1.0-0.0,0,0,47956,,,,,,45.0,,,,,,,,,,,,,,,,,,,,,,,277.0,0.656,,,,,,,,,,,,,,,
279,,isi,,html-keyboard-response,279,1035039,0.0-1.0-47.0-0.0-2.0,0,0,47956,,,,,,,,,,,,,,,,,,,,,,,,,,,,,278.5,1.5,,,,,,,,,,,,,,,
280,,feedback,,html-keyboard-response,280,1036047,0.0-1.0-47.0-0.0-3.0-0.0,0,0,47956,,,,,,45.0,,,,,,,,,,,,,,,,,,,,,,,279.5,1.0,,,,,,,,,,,,,,,
281,,iti,,html-keyboard-response,281,1037054,0.0-1.0-47.0-0.0-5.0,0,0,47956,,,,,,,,,,,,,,,,,,,,,,,,,,,,,280.5,1.0,,,,,,,,,,,,,,,
282,,choice,,html-keyboard-response,282,1038147,0.0-1.0-48.0-0.0-0.0,0,0,47956,,1080.0,,,68.0,46.0,46.0,1000.0,1500.0,0.0,1.0,0.0,20-40,,0.0,bongo,hammer,20.0,40.0,bongo13,hammer4,0.0,40.0,26388718.thl.jpg,hammernew01.jpg,/static/Category_learning/Stimuli/Experimental_stims/bongo/26388718.thl.jpg,/static/Category_learning/Stimuli/Experimental_stims/hammer/hammernew01.jpg,0.0,281.58,1.08,1.0,bongo,hammer,20.0,40.0,bongo13,hammer4,0.0,40.0,,,,,,
283,,confirmation,,html-keyboard-response,283,1038575,0.0-1.0-48.0-0.0-1.0-0.0,0,0,47956,,,,,,46.0,,,,,,,,,,,,,,,,,,,,,,,282.0,0.42,,,,,,,,,,,,,,,
284,,isi,,html-keyboard-response,284,1039581,0.0-1.0-48.0-0.0-2.0,0,0,47956,,,,,,,,,,,,,,,,,,,,,,,,,,,,,283.0,1.0,,,,,,,,,,,,,,,
285,,feedback,,html-keyboard-response,285,1040589,0.0-1.0-48.0-0.0-3.0-0.0,0,0,47956,,,,,,46.0,,,,,,,,,,,,,,,,,,,,,,,284.0,1.0,,,,,,,,,,,,,,,
286,,iti,,html-keyboard-response,286,1042095,0.0-1.0-48.0-0.0-5.0,0,0,47956,,,,,,,,,,,,,,,,,,,,,,,,,,,,,285.5,1.5,,,,,,,,,,,,,,,
287,,choice,,html-keyboard-response,287,1042780,0.0-1.0-49.0-0.0-0.0,0,0,47956,,671.0,,,75.0,47.0,47.0,1000.0,2000.0,0.0,1.0,0.0,40-80,,1.0,telescope,frame,80.0,40.0,telescope15,frame3,80.0,40.0,VictorianDeskTelescope.jpg,AFRAME132.jpg,/static/Category_learning/Stimuli/Experimental_stims/telescope/VictorianDeskTelescope.jpg,/static/Category_learning/Stimuli/Experimental_stims/frame/AFRAME132.jpg,0.0,286.171,0.671,0.0,frame,telescope,40.0,80.0,frame3,telescope15,40.0,80.0,,,,,,
288,,confirmation,,html-keyboard-response,288,1043618,0.0-1.0-49.0-0.0-1.0-0.0,0,0,47956,,,,,,47.0,,,,,,,,,,,,,,,,,,,,,,,287.0,0.829,,,,,,,,,,,,,,,
289,,isi,,html-keyboard-response,289,1044624,0.0-1.0-49.0-0.0-2.0,0,0,47956,,,,,,,,,,,,,,,,,,,,,,,,,,,,,288.0,1.0,,,,,,,,,,,,,,,
290,,feedback,,html-keyboard-response,290,1045629,0.0-1.0-49.0-0.0-3.0-0.0,0,0,47956,,,,,,47.0,,,,,,,,,,,,,,,,,,,,,,,289.0,1.0,,,,,,,,,,,,,,,
291,,iti,,html-keyboard-response,291,1047634,0.0-1.0-49.0-0.0-5.0,0,0,47956,,,,,,,,,,,,,,,,,,,,,,,,,,,,,291.0,2.0,,,,,,,,,,,,,,,
292,,choice,,html-keyboard-response,292,1048913,0.0-1.0-50.0-0.0-0.0,0,0,47956,,1272.0,,,68.0,48.0,48.0,1000.0,2000.0,0.0,1.0,0.0,20-20,,,bench,flashlight,20.0,20.0,bench5,flashlight3,0.0,20.0,APARKBEN8.jpg,sl_tasklight_2l3w.jpg,/static/Category_learning/Stimuli/Experimental_stims/bench/APARKBEN8.jpg,/static/Category_learning/Stimuli/Experimental_stims/flashlight/sl_tasklight_2l3w.jpg,0.0,292.272,1.272,1.0,bench,flashlight,20.0,20.0,bench5,flashlight3,0.0,20.0,,,,,,
293,,confirmation,,html-keyboard-response,293,1049150,0.0-1.0-50.0-0.0-1.0-0.0,0,0,47956,,,,,,48.0,,,,,,,,,,,,,,,,,,,,,,,292.5,0.228,,,,,,,,,,,,,,,
294,,isi,,html-keyboard-response,294,1050155,0.0-1.0-50.0-0.0-2.0,0,0,47956,,,,,,,,,,,,,,,,,,,,,,,,,,,,,293.5,1.0,,,,,,,,,,,,,,,
295,,feedback,,html-keyboard-response,295,1051160,0.0-1.0-50.0-0.0-3.0-0.0,0,0,47956,,,,,,48.0,,,,,,,,,,,,,,,,,,,,,,,294.5,1.0,,,,,,,,,,,,,,,
296,,iti,,html-keyboard-response,296,1053166,0.0-1.0-50.0-0.0-5.0,0,0,47956,,,,,,,,,,,,,,,,,,,,,,,,,,,,,296.5,2.0,,,,,,,,,,,,,,,
297,,choice,,html-keyboard-response,297,1053970,0.0-1.0-51.0-0.0-0.0,0,0,47956,,798.0,,,75.0,49.0,49.0,1500.0,1500.0,0.0,1.0,1.0,20-40,0.0,,desk,frame,20.0,40.0,desk10,frame3,20.0,40.0,MEX028.jpg,AFRAME132.jpg,/static/Category_learning/Stimuli/Experimental_stims/desk/MEX028.jpg,/static/Category_learning/Stimuli/Experimental_stims/frame/AFRAME132.jpg,0.0,297.298,0.798,0.0,frame,desk,40.0,20.0,frame3,desk10,40.0,20.0,,,,,,
298,,confirmation,,html-keyboard-response,298,1054678,0.0-1.0-51.0-0.0-1.0-0.0,0,0,47956,,,,,,49.0,,,,,,,,,,,,,,,,,,,,,,,298.0,0.702,,,,,,,,,,,,,,,
299,,isi,,html-keyboard-response,299,1056183,0.0-1.0-51.0-0.0-2.0,0,0,47956,,,,,,,,,,,,,,,,,,,,,,,,,,,,,299.5,1.5,,,,,,,,,,,,,,,
300,,feedback,,html-keyboard-response,300,1057193,0.0-1.0-51.0-0.0-3.0-0.0,0,0,47956,,,,,,49.0,,,,,,,,,,,,,,,,,,,,,,,300.5,1.0,,,,,,,,,,,,,,,
301,,iti,,html-keyboard-response,301,1058699,0.0-1.0-51.0-0.0-5.0,0,0,47956,,,,,,,,,,,,,,,,,,,,,,,,,,,,,302.0,1.5,,,,,,,,,,,,,,,
302,,choice,,html-keyboard-response,302,1059795,0.0-1.0-52.0-0.0-0.0,0,0,47956,,1087.0,,,75.0,50.0,50.0,1000.0,1500.0,0.0,1.0,0.0,40-80,,0.0,frame,vase,40.0,80.0,frame11,vase14,60.0,80.0,AFRAME139.jpg,Avase119.jpg,/static/Category_learning/Stimuli/Experimental_stims/frame/AFRAME139.jpg,/static/Category_learning/Stimuli/Experimental_stims/vase/Avase119.jpg,0.0,303.087,1.087,0.0,vase,frame,80.0,40.0,vase14,frame11,80.0,60.0,,,,,,
303,,confirmation,,html-keyboard-response,303,1060217,0.0-1.0-52.0-0.0-1.0-0.0,0,0,47956,,,,,,50.0,,,,,,,,,,,,,,,,,,,,,,,303.5,0.413,,,,,,,,,,,,,,,
304,,isi,,html-keyboard-response,304,1061223,0.0-1.0-52.0-0.0-2.0,0,0,47956,,,,,,,,,,,,,,,,,,,,,,,,,,,,,304.5,1.0,,,,,,,,,,,,,,,
305,,feedback,,html-keyboard-response,305,1062233,0.0-1.0-52.0-0.0-3.0-0.0,0,0,47956,,,,,,50.0,,,,,,,,,,,,,,,,,,,,,,,305.5,1.0,,,,,,,,,,,,,,,
306,,iti,,html-keyboard-response,306,1063740,0.0-1.0-52.0-0.0-5.0,0,0,47956,,,,,,,,,,,,,,,,,,,,,,,,,,,,,307.0,1.5,,,,,,,,,,,,,,,
307,,choice,,html-keyboard-response,307,1064787,0.0-1.0-53.0-0.0-0.0,0,0,47956,,1038.0,,,68.0,51.0,51.0,2000.0,2000.0,0.0,1.0,0.0,20-60,,1.0,seashell,door knob,60.0,20.0,seashell11,door knob1,80.0,0.0,ASEASH12.jpg,Brass_Door_Handle.jpg,/static/Category_learning/Stimuli/Experimental_stims/seashell/ASEASH12.jpg,/static/Category_learning/Stimuli/Experimental_stims/door knob/Brass_Door_Handle.jpg,0.0,308.038,1.038,1.0,seashell,door knob,60.0,20.0,seashell11,door knob1,80.0,0.0,,,,,,
308,,confirmation,,html-keyboard-response,308,1065257,0.0-1.0-53.0-0.0-1.0-0.0,0,0,47956,,,,,,51.0,,,,,,,,,,,,,,,,,,,,,,,308.5,0.462,,,,,,,,,,,,,,,
309,,isi,,html-keyboard-response,309,1067261,0.0-1.0-53.0-0.0-2.0,0,0,47956,,,,,,,,,,,,,,,,,,,,,,,,,,,,,310.5,2.0,,,,,,,,,,,,,,,
310,,feedback,,html-keyboard-response,310,1068269,0.0-1.0-53.0-0.0-3.0-0.0,0,0,47956,,,,,,51.0,,,,,,,,,,,,,,,,,,,,,,,311.5,1.0,,,,,,,,,,,,,,,
311,,iti,,html-keyboard-response,311,1070277,0.0-1.0-53.0-0.0-5.0,0,0,47956,,,,,,,,,,,,,,,,,,,,,,,,,,,,,313.5,2.0,,,,,,,,,,,,,,,
312,,choice,,html-keyboard-response,312,1071309,0.0-1.0-54.0-0.0-0.0,0,0,47956,,1022.0,,,68.0,52.0,52.0,2000.0,1000.0,0.0,1.0,0.0,20-40,,0.0,flashlight,makeup compact,20.0,40.0,flashlight2,makeup compact13,0.0,40.0,AV-9 No Battery Flashlight.jpg,31YfapjS3TL._AA250_.jpg,/static/Category_learning/Stimuli/Experimental_stims/flashlight/AV-9 No Battery Flashlight.jpg,/static/Category_learning/Stimuli/Experimental_stims/makeup compact/31YfapjS3TL._AA250_.jpg,0.0,314.522,1.022,1.0,flashlight,makeup compact,20.0,40.0,flashlight2,makeup compact13,0.0,40.0,,,,,,
313,,confirmation,,html-keyboard-response,313,1071795,0.0-1.0-54.0-0.0-1.0-0.0,0,0,47956,,,,,,52.0,,,,,,,,,,,,,,,,,,,,,,,315.0,0.478,,,,,,,,,,,,,,,
314,,isi,,html-keyboard-response,314,1073800,0.0-1.0-54.0-0.0-2.0,0,0,47956,,,,,,,,,,,,,,,,,,,,,,,,,,,,,317.0,2.0,,,,,,,,,,,,,,,
315,,feedback,,html-keyboard-response,315,1074808,0.0-1.0-54.0-0.0-3.0-0.0,0,0,47956,,,,,,52.0,,,,,,,,,,,,,,,,,,,,,,,318.0,1.0,,,,,,,,,,,,,,,
316,,iti,,html-keyboard-response,316,1075814,0.0-1.0-54.0-0.0-5.0,0,0,47956,,,,,,,,,,,,,,,,,,,,,,,,,,,,,319.0,1.0,,,,,,,,,,,,,,,
317,,choice,,html-keyboard-response,317,1076403,0.0-1.0-55.0-0.0-0.0,0,0,47956,,580.0,,,75.0,53.0,53.0,1500.0,1000.0,0.0,1.0,0.0,20-60,,1.0,sofa,bongo,60.0,20.0,sofa4,bongo4,40.0,0.0,ALOVSEA15.jpg,26390708.thl.jpg,/static/Category_learning/Stimuli/Experimental_stims/sofa/ALOVSEA15.jpg,/static/Category_learning/Stimuli/Experimental_stims/bongo/26390708.thl.jpg,0.0,319.58,0.58,0.0,bongo,sofa,20.0,60.0,bongo4,sofa4,0.0,40.0,,,,,,
318,,confirmation,,html-keyboard-response,318,1077334,0.0-1.0-55.0-0.0-1.0-0.0,0,0,47956,,,,,,53.0,,,,,,,,,,,,,,,,,,,,,,,320.5,0.92,,,,,,,,,,,,,,,
319,,isi,,html-keyboard-response,319,1078840,0.0-1.0-55.0-0.0-2.0,0,0,47956,,,,,,,,,,,,,,,,,,,,,,,,,,,,,322.0,1.5,,,,,,,,,,,,,,,
320,,feedback,,html-keyboard-response,320,1079847,0.0-1.0-55.0-0.0-3.0-0.0,0,0,47956,,,,,,53.0,,,,,,,,,,,,,,,,,,,,,,,323.0,1.0,,,,,,,,,,,,,,,
321,,iti,,html-keyboard-response,321,1080853,0.0-1.0-55.0-0.0-5.0,0,0,47956,,,,,,,,,,,,,,,,,,,,,,,,,,,,,324.0,1.0,,,,,,,,,,,,,,,
322,,choice,,html-keyboard-response,322,1082000,0.0-1.0-56.0-0.0-0.0,0,0,47956,,1139.0,,,68.0,54.0,54.0,1000.0,1000.0,0.0,1.0,1.0,20-20,1.0,,bongo,bongo,20.0,20.0,bongo13,bongo4,0.0,0.0,26388718.thl.jpg,26390708.thl.jpg,/static/Category_learning/Stimuli/Experimental_stims/bongo/26388718.thl.jpg,/static/Category_learning/Stimuli/Experimental_stims/bongo/26390708.thl.jpg,0.0,325.139,1.139,1.0,bongo,bongo,20.0,20.0,bongo13,bongo4,0.0,0.0,,,,,,
323,,confirmation,,html-keyboard-response,323,1082367,0.0-1.0-56.0-0.0-1.0-0.0,0,0,47956,,,,,,54.0,,,,,,,,,,,,,,,,,,,,,,,325.5,0.361,,,,,,,,,,,,,,,
324,,isi,,html-keyboard-response,324,1083374,0.0-1.0-56.0-0.0-2.0,0,0,47956,,,,,,,,,,,,,,,,,,,,,,,,,,,,,326.5,1.0,,,,,,,,,,,,,,,
325,,feedback,,html-keyboard-response,325,1084381,0.0-1.0-56.0-0.0-3.0-0.0,0,0,47956,,,,,,54.0,,,,,,,,,,,,,,,,,,,,,,,327.5,1.0,,,,,,,,,,,,,,,
326,,iti,,html-keyboard-response,326,1085387,0.0-1.0-56.0-0.0-5.0,0,0,47956,,,,,,,,,,,,,,,,,,,,,,,,,,,,,328.5,1.0,,,,,,,,,,,,,,,
327,,choice,,html-keyboard-response,327,1086282,0.0-1.0-57.0-0.0-0.0,0,0,47956,,886.0,,,75.0,55.0,55.0,1000.0,1500.0,0.0,1.0,0.0,20-80,,0.0,flashlight,train,20.0,80.0,flashlight14,train11,20.0,60.0,freeplay-jonta-flashlight.jpg,train1.jpg,/static/Category_learning/Stimuli/Experimental_stims/flashlight/freeplay-jonta-flashlight.jpg,/static/Category_learning/Stimuli/Experimental_stims/train/train1.jpg,0.0,329.386,0.886,0.0,train,flashlight,80.0,20.0,train11,flashlight14,60.0,20.0,,,,,,
328,,confirmation,,html-keyboard-response,328,1086904,0.0-1.0-57.0-0.0-1.0-0.0,0,0,47956,,,,,,55.0,,,,,,,,,,,,,,,,,,,,,,,330.0,0.614,,,,,,,,,,,,,,,
329,,isi,,html-keyboard-response,329,1087913,0.0-1.0-57.0-0.0-2.0,0,0,47956,,,,,,,,,,,,,,,,,,,,,,,,,,,,,331.0,1.0,,,,,,,,,,,,,,,
330,,feedback,,html-keyboard-response,330,1088920,0.0-1.0-57.0-0.0-3.0-0.0,0,0,47956,,,,,,55.0,,,,,,,,,,,,,,,,,,,,,,,332.0,1.0,,,,,,,,,,,,,,,
331,,iti,,html-keyboard-response,331,1090427,0.0-1.0-57.0-0.0-5.0,0,0,47956,,,,,,,,,,,,,,,,,,,,,,,,,,,,,333.5,1.5,,,,,,,,,,,,,,,
332,,choice,,html-keyboard-response,332,1091539,0.0-1.0-58.0-0.0-0.0,0,0,47956,,1103.0,,,68.0,56.0,56.0,1000.0,1500.0,0.0,1.0,0.0,20-80,,0.0,fan,stool,20.0,80.0,fan12,stool9,0.0,100.0,116544_sk_lg.jpg,ASTOOL7.jpg,/static/Category_learning/Stimuli/Experimental_stims/fan/116544_sk_lg.jpg,/static/Category_learning/Stimuli/Experimental_stims/stool/ASTOOL7.jpg,0.0,334.603,1.103,1.0,fan,stool,20.0,80.0,fan12,stool9,0.0,100.0,,,,,,
333,,confirmation,,html-keyboard-response,333,1091942,0.0-1.0-58.0-0.0-1.0-0.0,0,0,47956,,,,,,56.0,,,,,,,,,,,,,,,,,,,,,,,335.0,0.397,,,,,,,,,,,,,,,
334,,isi,,html-keyboard-response,334,1092949,0.0-1.0-58.0-0.0-2.0,0,0,47956,,,,,,,,,,,,,,,,,,,,,,,,,,,,,336.0,1.0,,,,,,,,,,,,,,,
335,,feedback,,html-keyboard-response,335,1093956,0.0-1.0-58.0-0.0-3.0-0.0,0,0,47956,,,,,,56.0,,,,,,,,,,,,,,,,,,,,,,,337.0,1.0,,,,,,,,,,,,,,,
336,,iti,,html-keyboard-response,336,1095461,0.0-1.0-58.0-0.0-5.0,0,0,47956,,,,,,,,,,,,,,,,,,,,,,,,,,,,,338.5,1.5,,,,,,,,,,,,,,,
337,,choice,,html-keyboard-response,337,1096490,0.0-1.0-59.0-0.0-0.0,0,0,47956,,1021.0,,,68.0,57.0,57.0,1500.0,1000.0,0.0,1.0,0.0,20-40,,1.0,motorcycle,bench,40.0,20.0,motorcycle12,bench4,40.0,0.0,motorcycle14.jpg,30892819.thl.jpg,/static/Category_learning/Stimuli/Experimental_stims/motorcycle/motorcycle14.jpg,/static/Category_learning/Stimuli/Experimental_stims/bench/30892819.thl.jpg,0.0,339.521,1.021,1.0,motorcycle,bench,40.0,20.0,motorcycle12,bench4,40.0,0.0,,,,,,
338,,confirmation,,html-keyboard-response,338,1096978,0.0-1.0-59.0-0.0-1.0-0.0,0,0,47956,,,,,,57.0,,,,,,,,,,,,,,,,,,,,,,,340.0,0.479,,,,,,,,,,,,,,,
339,,isi,,html-keyboard-response,339,1098482,0.0-1.0-59.0-0.0-2.0,0,0,47956,,,,,,,,,,,,,,,,,,,,,,,,,,,,,341.5,1.5,,,,,,,,,,,,,,,
340,,feedback,,html-keyboard-response,340,1099488,0.0-1.0-59.0-0.0-3.0-0.0,0,0,47956,,,,,,57.0,,,,,,,,,,,,,,,,,,,,,,,342.5,1.0,,,,,,,,,,,,,,,
341,,iti,,html-keyboard-response,341,1100495,0.0-1.0-59.0-0.0-5.0,0,0,47956,,,,,,,,,,,,,,,,,,,,,,,,,,,,,343.5,1.0,,,,,,,,,,,,,,,
342,,choice,,html-keyboard-response,342,1101823,0.0-1.0-60.0-0.0-0.0,0,0,47956,,1321.0,,,75.0,58.0,58.0,1000.0,2000.0,0.0,1.0,1.0,80-80,1.0,,vase,vase,80.0,80.0,vase9,vase14,80.0,80.0,Avasewithang2.jpg,Avase119.jpg,/static/Category_learning/Stimuli/Experimental_stims/vase/Avasewithang2.jpg,/static/Category_learning/Stimuli/Experimental_stims/vase/Avase119.jpg,0.0,344.821,1.321,0.0,vase,vase,80.0,80.0,vase14,vase9,80.0,80.0,,,,,,
343,,confirmation,,html-keyboard-response,343,1102009,0.0-1.0-60.0-0.0-1.0-0.0,0,0,47956,,,,,,58.0,,,,,,,,,,,,,,,,,,,,,,,345.0,0.179,,,,,,,,,,,,,,,
344,,isi,,html-keyboard-response,344,1103015,0.0-1.0-60.0-0.0-2.0,0,0,47956,,,,,,,,,,,,,,,,,,,,,,,,,,,,,346.0,1.0,,,,,,,,,,,,,,,
345,,feedback,,html-keyboard-response,345,1104021,0.0-1.0-60.0-0.0-3.0-0.0,0,0,47956,,,,,,58.0,,,,,,,,,,,,,,,,,,,,,,,347.0,1.0,,,,,,,,,,,,,,,
346,,iti,,html-keyboard-response,346,1106026,0.0-1.0-60.0-0.0-5.0,0,0,47956,,,,,,,,,,,,,,,,,,,,,,,,,,,,,349.0,2.0,,,,,,,,,,,,,,,
347,,block_over,,html-keyboard-response,347,1125162,0.0-1.0-60.0-0.0-7.0-0.0,0,0,47956,,19124.0,,,68.0,58.0,,,,,,,,,,,,,,,,,,,,,,,,,,,,,,,,,,,,,,,
348,,start_run,,html-keyboard-response,348,1129057,0.0-1.0-60.0-0.0-7.0-1.0,0,0,47956,,3889.0,,,84.0,,,,,,,,,,,,,,,,,,,,,,,,,,,,,,,,,,,,,,,,
349,,choice,,html-keyboard-response,349,1130001,0.0-1.0-61.0-0.0-0.0,0,0,47956,,934.0,,,68.0,59.0,65.0,1000.0,1000.0,0.0,2.0,0.0,40-80,,1.0,watch,makeup compact,80.0,40.0,watch1,makeup compact9,80.0,40.0,B000B5K8XI.01-A2E7J74KJYV9ZH._AA280_SCLZZZZZZZ_V53007008_.jpg,b_102019.jpg,/static/Category_learning/Stimuli/Experimental_stims/watch/B000B5K8XI.01-A2E7J74KJYV9ZH._AA280_SCLZZZZZZZ_V53007008_.jpg,/static/Category_learning/Stimuli/Experimental_stims/makeup compact/b_102019.jpg,0.0,0.934,0.934,1.0,watch,makeup compact,80.0,40.0,watch1,makeup compact9,80.0,40.0,,,,,,
350,,confirmation,,html-keyboard-response,350,1130575,0.0-1.0-61.0-0.0-1.0-0.0,0,0,47956,,,,,,59.0,,,,,,,,,,,,,,,,,,,,,,,1.5,0.566,,,,,,,,,,,,,,,
351,,isi,,html-keyboard-response,351,1131581,0.0-1.0-61.0-0.0-2.0,0,0,47956,,,,,,,,,,,,,,,,,,,,,,,,,,,,,2.5,1.0,,,,,,,,,,,,,,,
352,,feedback,,html-keyboard-response,352,1132588,0.0-1.0-61.0-0.0-3.0-0.0,0,0,47956,,,,,,59.0,,,,,,,,,,,,,,,,,,,,,,,3.5,1.0,,,,,,,,,,,,,,,
353,,iti,,html-keyboard-response,353,1133594,0.0-1.0-61.0-0.0-5.0,0,0,47956,,,,,,,,,,,,,,,,,,,,,,,,,,,,,4.5,1.0,,,,,,,,,,,,,,,
354,,choice,,html-keyboard-response,354,1134569,0.0-1.0-62.0-0.0-0.0,0,0,47956,,964.0,,,75.0,60.0,66.0,3500.0,2000.0,0.0,2.0,0.0,20-80,,1.0,vase,bench,80.0,20.0,vase12,bench13,100.0,40.0,Abluevase2.jpg,ABROWNBE4.jpg,/static/Category_learning/Stimuli/Experimental_stims/vase/Abluevase2.jpg,/static/Category_learning/Stimuli/Experimental_stims/bench/ABROWNBE4.jpg,0.0,5.464,0.964,0.0,bench,vase,20.0,80.0,bench13,vase12,40.0,100.0,,,,,,
355,,confirmation,,html-keyboard-response,355,1135113,0.0-1.0-62.0-0.0-1.0-0.0,0,0,47956,,,,,,60.0,,,,,,,,,,,,,,,,,,,,,,,6.0,0.536,,,,,,,,,,,,,,,
356,,isi,,html-keyboard-response,356,1138620,0.0-1.0-62.0-0.0-2.0,0,0,47956,,,,,,,,,,,,,,,,,,,,,,,,,,,,,9.5,3.5,,,,,,,,,,,,,,,
357,,feedback,,html-keyboard-response,357,1139628,0.0-1.0-62.0-0.0-3.0-0.0,0,0,47956,,,,,,60.0,,,,,,,,,,,,,,,,,,,,,,,10.5,1.0,,,,,,,,,,,,,,,
358,,iti,,html-keyboard-response,358,1141634,0.0-1.0-62.0-0.0-5.0,0,0,47956,,,,,,,,,,,,,,,,,,,,,,,,,,,,,12.5,2.0,,,,,,,,,,,,,,,
359,,choice,,html-keyboard-response,359,1142746,0.0-1.0-63.0-0.0-0.0,0,0,47956,,1104.0,,,68.0,61.0,67.0,1000.0,1000.0,0.0,2.0,0.0,20-80,,0.0,fan,trumpet,20.0,80.0,fan2,trumpet12,40.0,80.0,507349_sk_lg.jpg,hornabariton.jpg,/static/Category_learning/Stimuli/Experimental_stims/fan/507349_sk_lg.jpg,/static/Category_learning/Stimuli/Experimental_stims/trumpet/hornabariton.jpg,0.0,13.604,1.104,1.0,fan,trumpet,20.0,80.0,fan2,trumpet12,40.0,80.0,,,,,,
360,,confirmation,,html-keyboard-response,360,1143150,0.0-1.0-63.0-0.0-1.0-0.0,0,0,47956,,,,,,61.0,,,,,,,,,,,,,,,,,,,,,,,14.0,0.396,,,,,,,,,,,,,,,
361,,isi,,html-keyboard-response,361,1144157,0.0-1.0-63.0-0.0-2.0,0,0,47956,,,,,,,,,,,,,,,,,,,,,,,,,,,,,15.0,1.0,,,,,,,,,,,,,,,
362,,feedback,,html-keyboard-response,362,1145164,0.0-1.0-63.0-0.0-3.0-0.0,0,0,47956,,,,,,61.0,,,,,,,,,,,,,,,,,,,,,,,16.0,1.0,,,,,,,,,,,,,,,
363,,iti,,html-keyboard-response,363,1146172,0.0-1.0-63.0-0.0-5.0,0,0,47956,,,,,,,,,,,,,,,,,,,,,,,,,,,,,17.0,1.0,,,,,,,,,,,,,,,
364,,choice,,html-keyboard-response,364,1147361,0.0-1.0-64.0-0.0-0.0,0,0,47956,,1180.0,,,75.0,62.0,68.0,2000.0,1000.0,0.0,2.0,0.0,60-60,,,pen,poker card,60.0,60.0,pen4,poker card9,80.0,80.0,Montblanc_Greta_Garbo_BP copy.jpg,9817230.thl.jpg,/static/Category_learning/Stimuli/Experimental_stims/pen/Montblanc_Greta_Garbo_BP copy.jpg,/static/Category_learning/Stimuli/Experimental_stims/poker card/9817230.thl.jpg,0.0,18.18,1.18,0.0,poker card,pen,60.0,60.0,poker card9,pen4,80.0,80.0,,,,,,
365,,confirmation,,html-keyboard-response,365,1147688,0.0-1.0-64.0-0.0-1.0-0.0,0,0,47956,,,,,,62.0,,,,,,,,,,,,,,,,,,,,,,,18.5,0.32,,,,,,,,,,,,,,,
366,,isi,,html-keyboard-response,366,1149700,0.0-1.0-64.0-0.0-2.0,0,0,47956,,,,,,,,,,,,,,,,,,,,,,,,,,,,,20.5,2.0,,,,,,,,,,,,,,,
367,,feedback,,html-keyboard-response,367,1150709,0.0-1.0-64.0-0.0-3.0-0.0,0,0,47956,,,,,,62.0,,,,,,,,,,,,,,,,,,,,,,,21.5,1.0,,,,,,,,,,,,,,,
368,,iti,,html-keyboard-response,368,1151716,0.0-1.0-64.0-0.0-5.0,0,0,47956,,,,,,,,,,,,,,,,,,,,,,,,,,,,,22.5,1.0,,,,,,,,,,,,,,,
369,,choice,,html-keyboard-response,369,1152842,0.0-1.0-65.0-0.0-0.0,0,0,47956,,1117.0,,,75.0,63.0,69.0,1000.0,1000.0,0.0,2.0,0.0,20-20,,,baby carriage,fan,20.0,20.0,baby carriage9,fan11,0.0,0.0,Antique baby Carriage 7.jpg,n_sf.jpg,/static/Category_learning/Stimuli/Experimental_stims/baby carriage/Antique baby Carriage 7.jpg,/static/Category_learning/Stimuli/Experimental_stims/fan/n_sf.jpg,0.0,23.617,1.117,0.0,fan,baby carriage,20.0,20.0,fan11,baby carriage9,0.0,0.0,,,,,,
370,,confirmation,,html-keyboard-response,370,1153235,0.0-1.0-65.0-0.0-1.0-0.0,0,0,47956,,,,,,63.0,,,,,,,,,,,,,,,,,,,,,,,24.0,0.383,,,,,,,,,,,,,,,
371,,isi,,html-keyboard-response,371,1154241,0.0-1.0-65.0-0.0-2.0,0,0,47956,,,,,,,,,,,,,,,,,,,,,,,,,,,,,25.0,1.0,,,,,,,,,,,,,,,
372,,feedback,,html-keyboard-response,372,1155249,0.0-1.0-65.0-0.0-3.0-0.0,0,0,47956,,,,,,63.0,,,,,,,,,,,,,,,,,,,,,,,26.0,1.0,,,,,,,,,,,,,,,
373,,iti,,html-keyboard-response,373,1156255,0.0-1.0-65.0-0.0-5.0,0,0,47956,,,,,,,,,,,,,,,,,,,,,,,,,,,,,27.0,1.0,,,,,,,,,,,,,,,
374,,choice,,html-keyboard-response,374,1157138,0.0-1.0-66.0-0.0-0.0,0,0,47956,,875.0,,,68.0,64.0,70.0,1500.0,1000.0,0.0,2.0,0.0,20-80,,1.0,stool,dresser,80.0,20.0,stool2,dresser1,60.0,0.0,ASTOOL46.jpg,ADRESSE52.jpg,/static/Category_learning/Stimuli/Experimental_stims/stool/ASTOOL46.jpg,/static/Category_learning/Stimuli/Experimental_stims/dresser/ADRESSE52.jpg,0.0,27.875,0.875,1.0,stool,dresser,80.0,20.0,stool2,dresser1,60.0,0.0,,,,,,
375,,confirmation,,html-keyboard-response,375,1157776,0.0-1.0-66.0-0.0-1.0-0.0,0,0,47956,,,,,,64.0,,,,,,,,,,,,,,,,,,,,,,,28.5,0.625,,,,,,,,,,,,,,,
376,,isi,,html-keyboard-response,376,1159282,0.0-1.0-66.0-0.0-2.0,0,0,47956,,,,,,,,,,,,,,,,,,,,,,,,,,,,,30.0,1.5,,,,,,,,,,,,,,,
377,,feedback,,html-keyboard-response,377,1160290,0.0-1.0-66.0-0.0-3.0-0.0,0,0,47956,,,,,,64.0,,,,,,,,,,,,,,,,,,,,,,,31.0,1.0,,,,,,,,,,,,,,,
378,,iti,,html-keyboard-response,378,1161295,0.0-1.0-66.0-0.0-5.0,0,0,47956,,,,,,,,,,,,,,,,,,,,,,,,,,,,,32.0,1.0,,,,,,,,,,,,,,,
379,,choice,,html-keyboard-response,379,1162471,0.0-1.0-67.0-0.0-0.0,0,0,47956,,1170.0,,,68.0,65.0,71.0,3500.0,2000.0,0.0,2.0,0.0,20-80,,0.0,desk,stool,20.0,80.0,desk4,stool11,40.0,60.0,AbbeyMiniRadialBIG(1).jpg,ASTOOL28.jpg,/static/Category_learning/Stimuli/Experimental_stims/desk/AbbeyMiniRadialBIG(1).jpg,/static/Category_learning/Stimuli/Experimental_stims/stool/ASTOOL28.jpg,0.0,33.17,1.17,1.0,desk,stool,20.0,80.0,desk4,stool11,40.0,60.0,,,,,,
380,,confirmation,,html-keyboard-response,380,1162808,0.0-1.0-67.0-0.0-1.0-0.0,0,0,47956,,,,,,65.0,,,,,,,,,,,,,,,,,,,,,,,33.5,0.33,,,,,,,,,,,,,,,
381,,isi,,html-keyboard-response,381,1166314,0.0-1.0-67.0-0.0-2.0,0,0,47956,,,,,,,,,,,,,,,,,,,,,,,,,,,,,37.0,3.5,,,,,,,,,,,,,,,
382,,feedback,,html-keyboard-response,382,1167324,0.0-1.0-67.0-0.0-3.0-0.0,0,0,47956,,,,,,65.0,,,,,,,,,,,,,,,,,,,,,,,38.0,1.0,,,,,,,,,,,,,,,
383,,iti,,html-keyboard-response,383,1169330,0.0-1.0-67.0-0.0-5.0,0,0,47956,,,,,,,,,,,,,,,,,,,,,,,,,,,,,40.0,2.0,,,,,,,,,,,,,,,
384,,choice,,html-keyboard-response,384,1170143,0.0-1.0-68.0-0.0-0.0,0,0,47956,,806.0,,,68.0,66.0,72.0,2000.0,1500.0,0.0,2.0,0.0,40-60,,0.0,license plate,poker card,40.0,60.0,license plate1,poker card2,40.0,60.0,il-423-3784.jpg,22864716.thl.jpg,/static/Category_learning/Stimuli/Experimental_stims/license plate/il-423-3784.jpg,/static/Category_learning/Stimuli/Experimental_stims/poker card/22864716.thl.jpg,0.0,40.806,0.806,1.0,license plate,poker card,40.0,60.0,license plate1,poker card2,40.0,60.0,,,,,,
385,,confirmation,,html-keyboard-response,385,1170844,0.0-1.0-68.0-0.0-1.0-0.0,0,0,47956,,,,,,66.0,,,,,,,,,,,,,,,,,,,,,,,41.5,0.694,,,,,,,,,,,,,,,
386,,isi,,html-keyboard-response,386,1172850,0.0-1.0-68.0-0.0-2.0,0,0,47956,,,,,,,,,,,,,,,,,,,,,,,,,,,,,43.5,2.0,,,,,,,,,,,,,,,
387,,feedback,,html-keyboard-response,387,1173857,0.0-1.0-68.0-0.0-3.0-0.0,0,0,47956,,,,,,66.0,,,,,,,,,,,,,,,,,,,,,,,44.5,1.0,,,,,,,,,,,,,,,
388,,iti,,html-keyboard-response,388,1175364,0.0-1.0-68.0-0.0-5.0,0,0,47956,,,,,,,,,,,,,,,,,,,,,,,,,,,,,46.0,1.5,,,,,,,,,,,,,,,
389,,choice,,html-keyboard-response,389,1176441,0.0-1.0-69.0-0.0-0.0,0,0,47956,,1067.0,,,68.0,67.0,73.0,1500.0,1500.0,0.0,2.0,1.0,80-80,1.0,,stool,stool,80.0,80.0,stool12,stool2,80.0,60.0,henrybar_stool1.jpg,ASTOOL46.jpg,/static/Category_learning/Stimuli/Experimental_stims/stool/henrybar_stool1.jpg,/static/Category_learning/Stimuli/Experimental_stims/stool/ASTOOL46.jpg,0.0,47.067,1.067,1.0,stool,stool,80.0,80.0,stool12,stool2,80.0,60.0,,,,,,
390,,confirmation,,html-keyboard-response,390,1176882,0.0-1.0-69.0-0.0-1.0-0.0,0,0,47956,,,,,,67.0,,,,,,,,,,,,,,,,,,,,,,,47.5,0.433,,,,,,,,,,,,,,,
391,,isi,,html-keyboard-response,391,1178388,0.0-1.0-69.0-0.0-2.0,0,0,47956,,,,,,,,,,,,,,,,,,,,,,,,,,,,,49.0,1.5,,,,,,,,,,,,,,,
392,,feedback,,html-keyboard-response,392,1179395,0.0-1.0-69.0-0.0-3.0-0.0,0,0,47956,,,,,,67.0,,,,,,,,,,,,,,,,,,,,,,,50.0,1.0,,,,,,,,,,,,,,,
393,,iti,,html-keyboard-response,393,1180901,0.0-1.0-69.0-0.0-5.0,0,0,47956,,,,,,,,,,,,,,,,,,,,,,,,,,,,,51.5,1.5,,,,,,,,,,,,,,,
394,,choice,,html-keyboard-response,394,1182074,0.0-1.0-70.0-0.0-0.0,0,0,47956,,1164.0,,,68.0,68.0,74.0,1000.0,2000.0,0.0,2.0,0.0,20-60,,0.0,flashlight,poker card,20.0,60.0,flashlight8,poker card12,40.0,80.0,Streamlight-Stinger-Rechargeable-Flashlight-with-Charger-Black-75014-B00008BFSI-L.jpg,22865676.thl.jpg,/static/Category_learning/Stimuli/Experimental_stims/flashlight/Streamlight-Stinger-Rechargeable-Flashlight-with-Charger-Black-75014-B00008BFSI-L.jpg,/static/Category_learning/Stimuli/Experimental_stims/poker card/22865676.thl.jpg,0.0,52.664,1.164,1.0,flashlight,poker card,20.0,60.0,flashlight8,poker card12,40.0,80.0,,,,,,
395,,confirmation,,html-keyboard-response,395,1182418,0.0-1.0-70.0-0.0-1.0-0.0,0,0,47956,,,,,,68.0,,,,,,,,,,,,,,,,,,,,,,,53.0,0.336,,,,,,,,,,,,,,,
396,,isi,,html-keyboard-response,396,1183428,0.0-1.0-70.0-0.0-2.0,0,0,47956,,,,,,,,,,,,,,,,,,,,,,,,,,,,,54.0,1.0,,,,,,,,,,,,,,,
397,,feedback,,html-keyboard-response,397,1184435,0.0-1.0-70.0-0.0-3.0-0.0,0,0,47956,,,,,,68.0,,,,,,,,,,,,,,,,,,,,,,,55.0,1.0,,,,,,,,,,,,,,,
398,,iti,,html-keyboard-response,398,1186440,0.0-1.0-70.0-0.0-5.0,0,0,47956,,,,,,,,,,,,,,,,,,,,,,,,,,,,,57.0,2.0,,,,,,,,,,,,,,,
399,,choice,,html-keyboard-response,399,1187362,0.0-1.0-71.0-0.0-0.0,0,0,47956,,912.0,,,68.0,69.0,75.0,1500.0,1000.0,0.0,2.0,0.0,20-80,,0.0,bongo,stool,20.0,80.0,bongo3,stool4,20.0,60.0,26390697.thl.jpg,ASTOOL22.jpg,/static/Category_learning/Stimuli/Experimental_stims/bongo/26390697.thl.jpg,/static/Category_learning/Stimuli/Experimental_stims/stool/ASTOOL22.jpg,0.0,57.912,0.912,1.0,bongo,stool,20.0,80.0,bongo3,stool4,20.0,60.0,,,,,,
400,,confirmation,,html-keyboard-response,400,1187958,0.0-1.0-71.0-0.0-1.0-0.0,0,0,47956,,,,,,69.0,,,,,,,,,,,,,,,,,,,,,,,58.5,0.588,,,,,,,,,,,,,,,
401,,isi,,html-keyboard-response,401,1189464,0.0-1.0-71.0-0.0-2.0,0,0,47956,,,,,,,,,,,,,,,,,,,,,,,,,,,,,60.0,1.5,,,,,,,,,,,,,,,
402,,feedback,,html-keyboard-response,402,1190471,0.0-1.0-71.0-0.0-3.0-0.0,0,0,47956,,,,,,69.0,,,,,,,,,,,,,,,,,,,,,,,61.0,1.0,,,,,,,,,,,,,,,
403,,iti,,html-keyboard-response,403,1191478,0.0-1.0-71.0-0.0-5.0,0,0,47956,,,,,,,,,,,,,,,,,,,,,,,,,,,,,62.0,1.0,,,,,,,,,,,,,,,
404,,choice,,html-keyboard-response,404,1192192,0.0-1.0-72.0-0.0-0.0,0,0,47956,,706.0,,,75.0,70.0,76.0,3000.0,2000.0,0.0,2.0,0.0,40-40,,,makeup compact,motorcycle,40.0,40.0,makeup compact6,motorcycle8,20.0,20.0,P0754_hero.jpg,Motorcycle903425j2.jpg,/static/Category_learning/Stimuli/Experimental_stims/makeup compact/P0754_hero.jpg,/static/Category_learning/Stimuli/Experimental_stims/motorcycle/Motorcycle903425j2.jpg,0.0,62.706,0.706,0.0,motorcycle,makeup compact,40.0,40.0,motorcycle8,makeup compact6,20.0,20.0,,,,,,
405,,confirmation,,html-keyboard-response,405,1192992,0.0-1.0-72.0-0.0-1.0-0.0,0,0,47956,,,,,,70.0,,,,,,,,,,,,,,,,,,,,,,,63.5,0.794,,,,,,,,,,,,,,,
406,,isi,,html-keyboard-response,406,1196000,0.0-1.0-72.0-0.0-2.0,0,0,47956,,,,,,,,,,,,,,,,,,,,,,,,,,,,,66.5,3.0,,,,,,,,,,,,,,,
407,,feedback,,html-keyboard-response,407,1197011,0.0-1.0-72.0-0.0-3.0-0.0,0,0,47956,,,,,,70.0,,,,,,,,,,,,,,,,,,,,,,,67.5,1.0,,,,,,,,,,,,,,,
408,,iti,,html-keyboard-response,408,1199020,0.0-1.0-72.0-0.0-5.0,0,0,47956,,,,,,,,,,,,,,,,,,,,,,,,,,,,,69.5,2.0,,,,,,,,,,,,,,,
409,,choice,,html-keyboard-response,409,1199713,0.0-1.0-73.0-0.0-0.0,0,0,47956,,684.0,,,68.0,71.0,77.0,3000.0,1000.0,0.0,2.0,1.0,80-80,1.0,,watch,watch,80.0,80.0,watch1,watch10,80.0,100.0,B000B5K8XI.01-A2E7J74KJYV9ZH._AA280_SCLZZZZZZZ_V53007008_.jpg,HEU0102124_zoom.jpg,/static/Category_learning/Stimuli/Experimental_stims/watch/B000B5K8XI.01-A2E7J74KJYV9ZH._AA280_SCLZZZZZZZ_V53007008_.jpg,/static/Category_learning/Stimuli/Experimental_stims/watch/HEU0102124_zoom.jpg,0.0,70.184,0.684,1.0,watch,watch,80.0,80.0,watch1,watch10,80.0,100.0,,,,,,
410,,confirmation,,html-keyboard-response,410,1200540,0.0-1.0-73.0-0.0-1.0-0.0,0,0,47956,,,,,,71.0,,,,,,,,,,,,,,,,,,,,,,,71.0,0.816,,,,,,,,,,,,,,,
411,,isi,,html-keyboard-response,411,1203546,0.0-1.0-73.0-0.0-2.0,0,0,47956,,,,,,,,,,,,,,,,,,,,,,,,,,,,,74.0,3.0,,,,,,,,,,,,,,,
412,,feedback,,html-keyboard-response,412,1204558,0.0-1.0-73.0-0.0-3.0-0.0,0,0,47956,,,,,,71.0,,,,,,,,,,,,,,,,,,,,,,,75.0,1.0,,,,,,,,,,,,,,,
413,,iti,,html-keyboard-response,413,1205565,0.0-1.0-73.0-0.0-5.0,0,0,47956,,,,,,,,,,,,,,,,,,,,,,,,,,,,,76.0,1.0,,,,,,,,,,,,,,,
414,,choice,,html-keyboard-response,414,1206234,0.0-1.0-74.0-0.0-0.0,0,0,47956,,659.0,,,75.0,72.0,78.0,1500.0,1000.0,0.0,2.0,0.0,60-60,,,patio lounge chair,pen,60.0,60.0,patio lounge chair9,pen6,60.0,40.0,43-3.jpg,executive_pen2.jpg,/static/Category_learning/Stimuli/Experimental_stims/patio lounge chair/43-3.jpg,/static/Category_learning/Stimuli/Experimental_stims/pen/executive_pen2.jpg,0.0,76.659,0.659,0.0,pen,patio lounge chair,60.0,60.0,pen6,patio lounge chair9,40.0,60.0,,,,,,
415,,confirmation,,html-keyboard-response,415,1207084,0.0-1.0-74.0-0.0-1.0-0.0,0,0,47956,,,,,,72.0,,,,,,,,,,,,,,,,,,,,,,,77.5,0.841,,,,,,,,,,,,,,,
416,,isi,,html-keyboard-response,416,1208591,0.0-1.0-74.0-0.0-2.0,0,0,47956,,,,,,,,,,,,,,,,,,,,,,,,,,,,,79.0,1.5,,,,,,,,,,,,,,,
417,,feedback,,html-keyboard-response,417,1209598,0.0-1.0-74.0-0.0-3.0-0.0,0,0,47956,,,,,,72.0,,,,,,,,,,,,,,,,,,,,,,,80.0,1.0,,,,,,,,,,,,,,,
418,,iti,,html-keyboard-response,418,1210606,0.0-1.0-74.0-0.0-5.0,0,0,47956,,,,,,,,,,,,,,,,,,,,,,,,,,,,,81.0,1.0,,,,,,,,,,,,,,,
419,,choice,,html-keyboard-response,419,1211319,0.0-1.0-75.0-0.0-0.0,0,0,47956,,700.0,,,68.0,73.0,79.0,1000.0,2000.0,0.0,2.0,1.0,20-20,1.0,,fan,fan,20.0,20.0,fan12,fan11,0.0,0.0,116544_sk_lg.jpg,n_sf.jpg,/static/Category_learning/Stimuli/Experimental_stims/fan/116544_sk_lg.jpg,/static/Category_learning/Stimuli/Experimental_stims/fan/n_sf.jpg,0.0,81.7,0.7,1.0,fan,fan,20.0,20.0,fan12,fan11,0.0,0.0,,,,,,
420,,confirmation,,html-keyboard-response,420,1212130,0.0-1.0-75.0-0.0-1.0-0.0,0,0,47956,,,,,,73.0,,,,,,,,,,,,,,,,,,,,,,,82.5,0.8,,,,,,,,,,,,,,,
421,,isi,,html-keyboard-response,421,1213136,0.0-1.0-75.0-0.0-2.0,0,0,47956,,,,,,,,,,,,,,,,,,,,,,,,,,,,,83.5,1.0,,,,,,,,,,,,,,,
422,,feedback,,html-keyboard-response,422,1214145,0.0-1.0-75.0-0.0-3.0-0.0,0,0,47956,,,,,,73.0,,,,,,,,,,,,,,,,,,,,,,,84.5,1.0,,,,,,,,,,,,,,,
423,,iti,,html-keyboard-response,423,1216152,0.0-1.0-75.0-0.0-5.0,0,0,47956,,,,,,,,,,,,,,,,,,,,,,,,,,,,,86.5,2.0,,,,,,,,,,,,,,,
424,,choice,,html-keyboard-response,424,1216867,0.0-1.0-76.0-0.0-0.0,0,0,47956,,705.0,,,75.0,74.0,80.0,2000.0,1000.0,0.0,2.0,0.0,20-60,,0.0,bowl,necklace,20.0,60.0,bowl7,necklace4,20.0,40.0,Abowl54.jpg,emerald_diamond_necklace.jpg,/static/Category_learning/Stimuli/Experimental_stims/bowl/Abowl54.jpg,/static/Category_learning/Stimuli/Experimental_stims/necklace/emerald_diamond_necklace.jpg,0.0,87.205,0.705,0.0,necklace,bowl,60.0,20.0,necklace4,bowl7,40.0,20.0,,,,,,
425,,confirmation,,html-keyboard-response,425,1217670,0.0-1.0-76.0-0.0-1.0-0.0,0,0,47956,,,,,,74.0,,,,,,,,,,,,,,,,,,,,,,,88.0,0.795,,,,,,,,,,,,,,,
426,,isi,,html-keyboard-response,426,1219679,0.0-1.0-76.0-0.0-2.0,0,0,47956,,,,,,,,,,,,,,,,,,,,,,,,,,,,,90.0,2.0,,,,,,,,,,,,,,,
427,,feedback,,html-keyboard-response,427,1220688,0.0-1.0-76.0-0.0-3.0-0.0,0,0,47956,,,,,,74.0,,,,,,,,,,,,,,,,,,,,,,,91.0,1.0,,,,,,,,,,,,,,,
428,,iti,,html-keyboard-response,428,1221694,0.0-1.0-76.0-0.0-5.0,0,0,47956,,,,,,,,,,,,,,,,,,,,,,,,,,,,,92.0,1.0,,,,,,,,,,,,,,,
429,,choice,,html-keyboard-response,429,1222571,0.0-1.0-77.0-0.0-0.0,0,0,47956,,867.0,,,68.0,75.0,81.0,1500.0,1000.0,0.0,2.0,0.0,20-80,,1.0,vase,bongo,80.0,20.0,vase11,bongo12,100.0,40.0,Ethnic_Ceramic_Vase.jpg,26686609.thl.jpg,/static/Category_learning/Stimuli/Experimental_stims/vase/Ethnic_Ceramic_Vase.jpg,/static/Category_learning/Stimuli/Experimental_stims/bongo/26686609.thl.jpg,0.0,92.867,0.867,1.0,vase,bongo,80.0,20.0,vase11,bongo12,100.0,40.0,,,,,,
430,,confirmation,,html-keyboard-response,430,1223214,0.0-1.0-77.0-0.0-1.0-0.0,0,0,47956,,,,,,75.0,,,,,,,,,,,,,,,,,,,,,,,93.5,0.633,,,,,,,,,,,,,,,
431,,isi,,html-keyboard-response,431,1224721,0.0-1.0-77.0-0.0-2.0,0,0,47956,,,,,,,,,,,,,,,,,,,,,,,,,,,,,95.0,1.5,,,,,,,,,,,,,,,
432,,feedback,,html-keyboard-response,432,1225729,0.0-1.0-77.0-0.0-3.0-0.0,0,0,47956,,,,,,75.0,,,,,,,,,,,,,,,,,,,,,,,96.0,1.0,,,,,,,,,,,,,,,
433,,iti,,html-keyboard-response,433,1226735,0.0-1.0-77.0-0.0-5.0,0,0,47956,,,,,,,,,,,,,,,,,,,,,,,,,,,,,97.0,1.0,,,,,,,,,,,,,,,
434,,choice,,html-keyboard-response,434,1227427,0.0-1.0-78.0-0.0-0.0,0,0,47956,,682.0,,,75.0,76.0,82.0,1000.0,1500.0,0.0,2.0,0.0,40-80,,1.0,yarn,makeup compact,80.0,40.0,yarn10,makeup compact7,60.0,20.0,revelation-yarn.jpg,P187133_hero.jpg,/static/Category_learning/Stimuli/Experimental_stims/yarn/revelation-yarn.jpg,/static/Category_learning/Stimuli/Experimental_stims/makeup compact/P187133_hero.jpg,0.0,97.682,0.682,0.0,makeup compact,yarn,40.0,80.0,makeup compact7,yarn10,20.0,60.0,,,,,,
435,,confirmation,,html-keyboard-response,435,1228252,0.0-1.0-78.0-0.0-1.0-0.0,0,0,47956,,,,,,76.0,,,,,,,,,,,,,,,,,,,,,,,98.5,0.818,,,,,,,,,,,,,,,
436,,isi,,html-keyboard-response,436,1229262,0.0-1.0-78.0-0.0-2.0,0,0,47956,,,,,,,,,,,,,,,,,,,,,,,,,,,,,99.5,1.0,,,,,,,,,,,,,,,
437,,feedback,,html-keyboard-response,437,1230271,0.0-1.0-78.0-0.0-3.0-0.0,0,0,47956,,,,,,76.0,,,,,,,,,,,,,,,,,,,,,,,100.5,1.0,,,,,,,,,,,,,,,
438,,iti,,html-keyboard-response,438,1231778,0.0-1.0-78.0-0.0-5.0,0,0,47956,,,,,,,,,,,,,,,,,,,,,,,,,,,,,102.0,1.5,,,,,,,,,,,,,,,
439,,choice,,html-keyboard-response,439,1232498,0.0-1.0-79.0-0.0-0.0,0,0,47956,,711.0,,,68.0,77.0,83.0,1000.0,2000.0,0.0,2.0,1.0,20-20,1.0,,flashlight,flashlight,20.0,20.0,flashlight2,flashlight8,0.0,40.0,AV-9 No Battery Flashlight.jpg,Streamlight-Stinger-Rechargeable-Flashlight-with-Charger-Black-75014-B00008BFSI-L.jpg,/static/Category_learning/Stimuli/Experimental_stims/flashlight/AV-9 No Battery Flashlight.jpg,/static/Category_learning/Stimuli/Experimental_stims/flashlight/Streamlight-Stinger-Rechargeable-Flashlight-with-Charger-Black-75014-B00008BFSI-L.jpg,0.0,102.711,0.711,1.0,flashlight,flashlight,20.0,20.0,flashlight2,flashlight8,0.0,40.0,,,,,,
440,,confirmation,,html-keyboard-response,440,1233295,0.0-1.0-79.0-0.0-1.0-0.0,0,0,47956,,,,,,77.0,,,,,,,,,,,,,,,,,,,,,,,103.5,0.789,,,,,,,,,,,,,,,
441,,isi,,html-keyboard-response,441,1234302,0.0-1.0-79.0-0.0-2.0,0,0,47956,,,,,,,,,,,,,,,,,,,,,,,,,,,,,104.5,1.0,,,,,,,,,,,,,,,
442,,feedback,,html-keyboard-response,442,1235308,0.0-1.0-79.0-0.0-3.0-0.0,0,0,47956,,,,,,77.0,,,,,,,,,,,,,,,,,,,,,,,105.5,1.0,,,,,,,,,,,,,,,
443,,iti,,html-keyboard-response,443,1237314,0.0-1.0-79.0-0.0-5.0,0,0,47956,,,,,,,,,,,,,,,,,,,,,,,,,,,,,107.5,2.0,,,,,,,,,,,,,,,
444,,choice,,html-keyboard-response,444,1238803,0.0-1.0-80.0-0.0-0.0,0,0,47956,,1479.0,,,68.0,78.0,84.0,1500.0,1000.0,0.0,2.0,0.0,20-60,,1.0,sofa,door knob,60.0,20.0,sofa14,door knob3,40.0,40.0,HENRY-Sofa-falg8068-05-72X34X34.jpg,020f7ec6-df08-40fa-b3a5-0dcfb762f085_4.jpg,/static/Category_learning/Stimuli/Experimental_stims/sofa/HENRY-Sofa-falg8068-05-72X34X34.jpg,/static/Category_learning/Stimuli/Experimental_stims/door knob/020f7ec6-df08-40fa-b3a5-0dcfb762f085_4.jpg,0.0,108.979,1.479,1.0,sofa,door knob,60.0,20.0,sofa14,door knob3,40.0,40.0,,,,,,
445,,confirmation,,html-keyboard-response,445,1238833,0.0-1.0-80.0-0.0-1.0-0.0,0,0,47956,,,,,,78.0,,,,,,,,,,,,,,,,,,,,,,,109.0,0.021,,,,,,,,,,,,,,,
446,,isi,,html-keyboard-response,446,1240339,0.0-1.0-80.0-0.0-2.0,0,0,47956,,,,,,,,,,,,,,,,,,,,,,,,,,,,,110.5,1.5,,,,,,,,,,,,,,,
447,,feedback,,html-keyboard-response,447,1241347,0.0-1.0-80.0-0.0-3.0-0.0,0,0,47956,,,,,,78.0,,,,,,,,,,,,,,,,,,,,,,,111.5,1.0,,,,,,,,,,,,,,,
448,,iti,,html-keyboard-response,448,1242353,0.0-1.0-80.0-0.0-5.0,0,0,47956,,,,,,,,,,,,,,,,,,,,,,,,,,,,,112.5,1.0,,,,,,,,,,,,,,,
449,,choice,,html-keyboard-response,449,1242945,0.0-1.0-81.0-0.0-0.0,0,0,47956,,585.0,,,75.0,79.0,85.0,3000.0,1000.0,0.0,2.0,1.0,20-20,1.0,,bench,bench,20.0,20.0,bench13,bench5,40.0,0.0,ABROWNBE4.jpg,APARKBEN8.jpg,/static/Category_learning/Stimuli/Experimental_stims/bench/ABROWNBE4.jpg,/static/Category_learning/Stimuli/Experimental_stims/bench/APARKBEN8.jpg,0.0,113.085,0.585,0.0,bench,bench,20.0,20.0,bench5,bench13,0.0,40.0,,,,,,
450,,confirmation,,html-keyboard-response,450,1243867,0.0-1.0-81.0-0.0-1.0-0.0,0,0,47956,,,,,,79.0,,,,,,,,,,,,,,,,,,,,,,,114.0,0.915,,,,,,,,,,,,,,,
451,,isi,,html-keyboard-response,451,1246873,0.0-1.0-81.0-0.0-2.0,0,0,47956,,,,,,,,,,,,,,,,,,,,,,,,,,,,,117.0,3.0,,,,,,,,,,,,,,,
452,,feedback,,html-keyboard-response,452,1247881,0.0-1.0-81.0-0.0-3.0-0.0,0,0,47956,,,,,,79.0,,,,,,,,,,,,,,,,,,,,,,,118.0,1.0,,,,,,,,,,,,,,,
453,,iti,,html-keyboard-response,453,1248888,0.0-1.0-81.0-0.0-5.0,0,0,47956,,,,,,,,,,,,,,,,,,,,,,,,,,,,,119.0,1.0,,,,,,,,,,,,,,,
454,,choice,,html-keyboard-response,454,1249800,0.0-1.0-82.0-0.0-0.0,0,0,47956,,904.0,,,68.0,80.0,86.0,2000.0,1500.0,0.0,2.0,0.0,20-20,,,fan,bowl,20.0,20.0,fan3,bowl1,20.0,0.0,CFT401.jpg,ABOWLS6.jpg,/static/Category_learning/Stimuli/Experimental_stims/fan/CFT401.jpg,/static/Category_learning/Stimuli/Experimental_stims/bowl/ABOWLS6.jpg,0.0,119.904,0.904,1.0,fan,bowl,20.0,20.0,fan3,bowl1,20.0,0.0,,,,,,
455,,confirmation,,html-keyboard-response,455,1250403,0.0-1.0-82.0-0.0-1.0-0.0,0,0,47956,,,,,,80.0,,,,,,,,,,,,,,,,,,,,,,,120.5,0.596,,,,,,,,,,,,,,,
456,,isi,,html-keyboard-response,456,1252410,0.0-1.0-82.0-0.0-2.0,0,0,47956,,,,,,,,,,,,,,,,,,,,,,,,,,,,,122.5,2.0,,,,,,,,,,,,,,,
457,,feedback,,html-keyboard-response,457,1253417,0.0-1.0-82.0-0.0-3.0-0.0,0,0,47956,,,,,,80.0,,,,,,,,,,,,,,,,,,,,,,,123.5,1.0,,,,,,,,,,,,,,,
458,,iti,,html-keyboard-response,458,1254923,0.0-1.0-82.0-0.0-5.0,0,0,47956,,,,,,,,,,,,,,,,,,,,,,,,,,,,,125.0,1.5,,,,,,,,,,,,,,,
459,,choice,,html-keyboard-response,459,1255739,0.0-1.0-83.0-0.0-0.0,0,0,47956,,804.0,,,68.0,81.0,87.0,1000.0,1500.0,0.0,2.0,1.0,40-40,1.0,,motorcycle,motorcycle,40.0,40.0,motorcycle12,motorcycle8,40.0,20.0,motorcycle14.jpg,Motorcycle903425j2.jpg,/static/Category_learning/Stimuli/Experimental_stims/motorcycle/motorcycle14.jpg,/static/Category_learning/Stimuli/Experimental_stims/motorcycle/Motorcycle903425j2.jpg,0.0,125.804,0.804,1.0,motorcycle,motorcycle,40.0,40.0,motorcycle12,motorcycle8,40.0,20.0,,,,,,
460,,confirmation,,html-keyboard-response,460,1256442,0.0-1.0-83.0-0.0-1.0-0.0,0,0,47956,,,,,,81.0,,,,,,,,,,,,,,,,,,,,,,,126.5,0.696,,,,,,,,,,,,,,,
461,,isi,,html-keyboard-response,461,1257449,0.0-1.0-83.0-0.0-2.0,0,0,47956,,,,,,,,,,,,,,,,,,,,,,,,,,,,,127.5,1.0,,,,,,,,,,,,,,,
462,,feedback,,html-keyboard-response,462,1258455,0.0-1.0-83.0-0.0-3.0-0.0,0,0,47956,,,,,,81.0,,,,,,,,,,,,,,,,,,,,,,,128.5,1.0,,,,,,,,,,,,,,,
463,,iti,,html-keyboard-response,463,1259960,0.0-1.0-83.0-0.0-5.0,0,0,47956,,,,,,,,,,,,,,,,,,,,,,,,,,,,,130.0,1.5,,,,,,,,,,,,,,,
464,,choice,,html-keyboard-response,464,1261083,0.0-1.0-84.0-0.0-0.0,0,0,47956,,1111.0,,,75.0,82.0,88.0,1000.0,1000.0,0.0,2.0,0.0,40-60,,0.0,hammer,power strip,40.0,60.0,hammer7,power strip13,60.0,60.0,hammer01.jpg,01dccef1-d4b2-4d2e-a317-f2ed46b70b4b_400.jpg,/static/Category_learning/Stimuli/Experimental_stims/hammer/hammer01.jpg,/static/Category_learning/Stimuli/Experimental_stims/power strip/01dccef1-d4b2-4d2e-a317-f2ed46b70b4b_400.jpg,0.0,131.111,1.111,0.0,power strip,hammer,60.0,40.0,power strip13,hammer7,60.0,60.0,,,,,,
465,,confirmation,,html-keyboard-response,465,1261480,0.0-1.0-84.0-0.0-1.0-0.0,0,0,47956,,,,,,82.0,,,,,,,,,,,,,,,,,,,,,,,131.5,0.389,,,,,,,,,,,,,,,
466,,isi,,html-keyboard-response,466,1262488,0.0-1.0-84.0-0.0-2.0,0,0,47956,,,,,,,,,,,,,,,,,,,,,,,,,,,,,132.5,1.0,,,,,,,,,,,,,,,
467,,feedback,,html-keyboard-response,467,1263495,0.0-1.0-84.0-0.0-3.0-0.0,0,0,47956,,,,,,82.0,,,,,,,,,,,,,,,,,,,,,,,133.5,1.0,,,,,,,,,,,,,,,
468,,iti,,html-keyboard-response,468,1264503,0.0-1.0-84.0-0.0-5.0,0,0,47956,,,,,,,,,,,,,,,,,,,,,,,,,,,,,134.5,1.0,,,,,,,,,,,,,,,
469,,choice,,html-keyboard-response,469,1265688,0.0-1.0-85.0-0.0-0.0,0,0,47956,,1178.0,,,75.0,83.0,89.0,1500.0,3500.0,0.0,2.0,0.0,20-60,,0.0,baby carriage,poker card,20.0,60.0,baby carriage10,poker card7,0.0,80.0,peg_perego_uno_blu.jpg,22864416.thl.jpg,/static/Category_learning/Stimuli/Experimental_stims/baby carriage/peg_perego_uno_blu.jpg,/static/Category_learning/Stimuli/Experimental_stims/poker card/22864416.thl.jpg,0.0,135.678,1.178,0.0,poker card,baby carriage,60.0,20.0,poker card7,baby carriage10,80.0,0.0,,,,,,
470,,confirmation,,html-keyboard-response,470,1266018,0.0-1.0-85.0-0.0-1.0-0.0,0,0,47956,,,,,,83.0,,,,,,,,,,,,,,,,,,,,,,,136.0,0.322,,,,,,,,,,,,,,,
471,,isi,,html-keyboard-response,471,1267524,0.0-1.0-85.0-0.0-2.0,0,0,47956,,,,,,,,,,,,,,,,,,,,,,,,,,,,,137.5,1.5,,,,,,,,,,,,,,,
472,,feedback,,html-keyboard-response,472,1268531,0.0-1.0-85.0-0.0-3.0-0.0,0,0,47956,,,,,,83.0,,,,,,,,,,,,,,,,,,,,,,,138.5,1.0,,,,,,,,,,,,,,,
473,,iti,,html-keyboard-response,473,1272041,0.0-1.0-85.0-0.0-5.0,0,0,47956,,,,,,,,,,,,,,,,,,,,,,,,,,,,,142.0,3.5,,,,,,,,,,,,,,,
474,,choice,,html-keyboard-response,474,1272808,0.0-1.0-86.0-0.0-0.0,0,0,47956,,759.0,,,75.0,84.0,90.0,1000.0,1000.0,0.0,2.0,0.0,40-80,,1.0,vase,motorcycle,80.0,40.0,vase1,motorcycle9,60.0,40.0,Avase114.jpg,speedbike.jpg,/static/Category_learning/Stimuli/Experimental_stims/vase/Avase114.jpg,/static/Category_learning/Stimuli/Experimental_stims/motorcycle/speedbike.jpg,0.0,142.759,0.759,0.0,motorcycle,vase,40.0,80.0,motorcycle9,vase1,40.0,60.0,,,,,,
475,,confirmation,,html-keyboard-response,475,1273556,0.0-1.0-86.0-0.0-1.0-0.0,0,0,47956,,,,,,84.0,,,,,,,,,,,,,,,,,,,,,,,143.5,0.741,,,,,,,,,,,,,,,
476,,isi,,html-keyboard-response,476,1274564,0.0-1.0-86.0-0.0-2.0,0,0,47956,,,,,,,,,,,,,,,,,,,,,,,,,,,,,144.5,1.0,,,,,,,,,,,,,,,
