,success,ttype,start_time,trial_type,trial_index,time_elapsed,internal_node_id,warning,missed_checkup,PID,view_history,rt,responses,repeat_instructions,key_press,index,trial_num,isi,iti,is_practice,block,old_trial,pair_type,within_category,high_cat_on_left,left_category,right_category,left_category_value,right_category_value,left_exemplar,right_exemplar,left_exemplar_value,right_exemplar_value,left_img,right_img,left_img_path,right_img_path,left_chosen,chosen_category,unchosen_category,chosen_category_value,unchosen_category_value,chosen_exemplar,unchosen_exemplar,chosen_exemplar_value,unchosen_exemplar_value,no_response,onset,duration,end_practice,total_bonus_tally,category,category_group_value,category_value_response,did_not_enter_response
0,True,full_screen,d06032022hr1606,fullscreen,0,16647,0.0-0.0,0,0,64747,,,,,,,,,,,,,,,,,,,,,,,,,,,,,,,,,,,,,,,,,,,,,
1,,category_learning_instructions,,instructions,1,73786,0.0-1.0-0.0-0.0,0,0,64747,"[{""page_index"":0,""viewing_time"":11443},{""page_index"":1,""viewing_time"":14152},{""page_index"":2,""viewing_time"":12286},{""page_index"":3,""viewing_time"":6980},{""page_index"":4,""viewing_time"":7539},{""page_index"":5,""viewing_time"":2743},{""page_index"":6,""viewing_time"":1991}]",57134.0,,,,,,,,,,,,,,,,,,,,,,,,,,,,,,,,,,,,,,,,,,,
2,,category_learning_comprehension_check,,survey-multi-choice,2,92659,0.0-1.0-0.0-1.0,0,0,64747,,18865.0,"{""Q0"":""True"",""Q1"":""True"",""Q2"":""Stay the same"",""Q3"":""D for left and K for right""}",0.0,,,,,,,,,,,,,,,,,,,,,,,,,,,,,,,,,,,,,,,,,
3,,,,html-keyboard-response,3,94785,0.0-1.0-1.0,0,0,64747,,2118.0,,,68.0,,,,,,,,,,,,,,,,,,,,,,,,,,,,,,,,,,,,,,,,
4,,choice,,html-keyboard-response,4,95720,0.0-1.0-2.0-0.0-0.0,0,0,64747,,926.0,,,68.0,0.0,0.0,1500.0,1000.0,1.0,0.0,0.0,20-80,,0.0,bagel,dumbbell,20.0,80.0,bagel1,dumbbell1,0.0,80.0,bagels_pumpernickel_large.jpg,31B64EN68AL._AA280_.jpg,/static/Category_learning/Stimuli/Practice_stims/bagel/bagels_pumpernickel_large.jpg,/static/Category_learning/Stimuli/Practice_stims/dumbbell/31B64EN68AL._AA280_.jpg,1.0,bagel,dumbbell,20.0,80.0,bagel1,dumbbell1,0.0,80.0,0.0,0.926,0.926,,,,,,
5,,confirmation,,html-keyboard-response,5,96306,0.0-1.0-2.0-0.0-1.0-0.0,0,0,64747,,,,,,0.0,,,,,,,,,,,,,,,,,,,,,,,,,,,,,,,,1.5,0.574,,,,,,
6,,isi,,html-keyboard-response,6,97813,0.0-1.0-2.0-0.0-2.0,0,0,64747,,,,,,,,,,,,,,,,,,,,,,,,,,,,,,,,,,,,,,3.0,1.5,,,,,,
7,,feedback,,html-keyboard-response,7,98823,0.0-1.0-2.0-0.0-3.0-0.0,0,0,64747,,,,,,0.0,,,,,,,,,,,,,,,,,,,,,,,,,,,,,,,,4.0,1.0,,,,,,
8,,iti,,html-keyboard-response,8,99829,0.0-1.0-2.0-0.0-5.0,0,0,64747,,,,,,,,,,,,,,,,,,,,,,,,,,,,,,,,,,,,,,5.0,1.0,,,,,,
9,,choice,,html-keyboard-response,9,100751,0.0-1.0-3.0-0.0-0.0,0,0,64747,,915.0,,,75.0,1.0,1.0,3000.0,1500.0,1.0,0.0,0.0,20-40,,1.0,calculator,bagel,40.0,20.0,calculator2,bagel2,20.0,20.0,22829064.thl.jpg,bagels_cinnraisin_large.jpg,/static/Category_learning/Stimuli/Practice_stims/calculator/22829064.thl.jpg,/static/Category_learning/Stimuli/Practice_stims/bagel/bagels_cinnraisin_large.jpg,0.0,bagel,calculator,20.0,40.0,bagel2,calculator2,20.0,20.0,0.0,5.915,0.915,,,,,,
10,,confirmation,,html-keyboard-response,10,101343,0.0-1.0-3.0-0.0-1.0-0.0,0,0,64747,,,,,,1.0,,,,,,,,,,,,,,,,,,,,,,,,,,,,,,,,6.5,0.585,,,,,,
11,,isi,,html-keyboard-response,11,104350,0.0-1.0-3.0-0.0-2.0,0,0,64747,,,,,,,,,,,,,,,,,,,,,,,,,,,,,,,,,,,,,,9.5,3.0,,,,,,
12,,feedback,,html-keyboard-response,12,105373,0.0-1.0-3.0-0.0-3.0-0.0,0,0,64747,,,,,,1.0,,,,,,,,,,,,,,,,,,,,,,,,,,,,,,,,10.5,1.0,,,,,,
13,,iti,,html-keyboard-response,13,106877,0.0-1.0-3.0-0.0-5.0,0,0,64747,,,,,,,,,,,,,,,,,,,,,,,,,,,,,,,,,,,,,,12.0,1.5,,,,,,
14,,choice,,html-keyboard-response,14,107846,0.0-1.0-4.0-0.0-0.0,0,0,64747,,962.0,,,75.0,2.0,2.0,2000.0,3000.0,1.0,0.0,0.0,60-80,,0.0,clock,dumbbell,60.0,80.0,clock2,dumbbell2,60.0,100.0,26373355.thl.jpg,31K8MR6TMBL._SS500_.jpg,/static/Category_learning/Stimuli/Practice_stims/clock/26373355.thl.jpg,/static/Category_learning/Stimuli/Practice_stims/dumbbell/31K8MR6TMBL._SS500_.jpg,0.0,dumbbell,clock,80.0,60.0,dumbbell2,clock2,100.0,60.0,0.0,12.962,0.962,,,,,,
15,,confirmation,,html-keyboard-response,15,108393,0.0-1.0-4.0-0.0-1.0-0.0,0,0,64747,,,,,,2.0,,,,,,,,,,,,,,,,,,,,,,,,,,,,,,,,13.5,0.538,,,,,,
16,,isi,,html-keyboard-response,16,110400,0.0-1.0-4.0-0.0-2.0,0,0,64747,,,,,,,,,,,,,,,,,,,,,,,,,,,,,,,,,,,,,,15.5,2.0,,,,,,
17,,feedback,,html-keyboard-response,17,111408,0.0-1.0-4.0-0.0-3.0-0.0,0,0,64747,,,,,,2.0,,,,,,,,,,,,,,,,,,,,,,,,,,,,,,,,16.5,1.0,,,,,,
18,,iti,,html-keyboard-response,18,114414,0.0-1.0-4.0-0.0-5.0,0,0,64747,,,,,,,,,,,,,,,,,,,,,,,,,,,,,,,,,,,,,,19.5,3.0,,,,,,
19,,choice,,html-keyboard-response,19,115061,0.0-1.0-5.0-0.0-0.0,0,0,64747,,637.0,,,68.0,3.0,3.0,1000.0,2000.0,1.0,0.0,0.0,40-80,,0.0,calculator,clock,40.0,60.0,calculator1,clock1,40.0,40.0,22829184.thl.jpg,Aalarmclock2.jpg,/static/Category_learning/Stimuli/Practice_stims/calculator/22829184.thl.jpg,/static/Category_learning/Stimuli/Practice_stims/clock/Aalarmclock2.jpg,1.0,calculator,clock,40.0,60.0,calculator1,clock1,40.0,40.0,0.0,20.137,0.637,,,,,,
20,,confirmation,,html-keyboard-response,20,115929,0.0-1.0-5.0-0.0-1.0-0.0,0,0,64747,,,,,,3.0,,,,,,,,,,,,,,,,,,,,,,,,,,,,,,,,21.0,0.863,,,,,,
21,,isi,,html-keyboard-response,21,116936,0.0-1.0-5.0-0.0-2.0,0,0,64747,,,,,,,,,,,,,,,,,,,,,,,,,,,,,,,,,,,,,,22.0,1.0,,,,,,
22,,feedback,,html-keyboard-response,22,117943,0.0-1.0-5.0-0.0-3.0-0.0,0,0,64747,,,,,,3.0,,,,,,,,,,,,,,,,,,,,,,,,,,,,,,,,23.0,1.0,,,,,,
23,,iti,,html-keyboard-response,23,119949,0.0-1.0-5.0-0.0-5.0,0,0,64747,,,,,,,,,,,,,,,,,,,,,,,,,,,,,,,,,,,,,,25.0,2.0,,,,,,
24,,choice,,html-keyboard-response,24,120807,0.0-1.0-6.0-0.0-0.0,0,0,64747,,850.0,,,68.0,4.0,4.0,2500.0,2500.0,1.0,0.0,0.0,20-60,,1.0,dumbbell,bagel,80.0,20.0,dumbbell3,bagel3,100.0,40.0,41K7QVRX50L._SS500_.jpg,photo-169.jpg,/static/Category_learning/Stimuli/Practice_stims/dumbbell/41K7QVRX50L._SS500_.jpg,/static/Category_learning/Stimuli/Practice_stims/bagel/photo-169.jpg,1.0,dumbbell,bagel,80.0,20.0,dumbbell3,bagel3,100.0,40.0,0.0,25.85,0.85,1.0,,,,,
25,,confirmation,,html-keyboard-response,25,121474,0.0-1.0-6.0-0.0-1.0-0.0,0,0,64747,,,,,,4.0,,,,,,,,,,,,,,,,,,,,,,,,,,,,,,,,26.5,0.65,,,,,,
26,,isi,,html-keyboard-response,26,123979,0.0-1.0-6.0-0.0-2.0,0,0,64747,,,,,,,,,,,,,,,,,,,,,,,,,,,,,,,,,,,,,,29.0,2.5,,,,,,
27,,feedback,,html-keyboard-response,27,124985,0.0-1.0-6.0-0.0-3.0-0.0,0,0,64747,,,,,,4.0,,,,,,,,,,,,,,,,,,,,,,,,,,,,,,,,30.0,1.0,,,,,,
28,,iti,,html-keyboard-response,28,127491,0.0-1.0-6.0-0.0-5.0,0,0,64747,,,,,,,,,,,,,,,,,,,,,,,,,,,,,,,,,,,,,,32.5,2.5,,,,,,
29,,practice_over,,html-keyboard-response,29,130826,0.0-1.0-6.0-0.0-6.0-0.0,0,0,64747,,3328.0,,,68.0,4.0,,,,,,,,,,,,,,,,,,,,,,,,,,,,,,,,,,,,,,,
30,,start_run,,html-keyboard-response,30,133945,0.0-1.0-6.0-0.0-6.0-1.0,0,0,64747,,3114.0,,,84.0,,,,,,,,,,,,,,,,,,,,,,,,,,,,,,,,,,,,,,,,
31,,choice,,html-keyboard-response,31,134663,0.0-1.0-7.0-0.0-0.0,0,0,64747,,708.0,,,68.0,5.0,5.0,2000.0,2000.0,0.0,1.0,0.0,40-80,,1.0,desk,patio lounge chair,80.0,40.0,desk1,patio lounge chair15,100.0,40.0,ADESK11.jpg,phpThumb.jpg,/static/Category_learning/Stimuli/Experimental_stims/desk/ADESK11.jpg,/static/Category_learning/Stimuli/Experimental_stims/patio lounge chair/phpThumb.jpg,1.0,desk,patio lounge chair,80.0,40.0,desk1,patio lounge chair15,100.0,40.0,0.0,0.708,0.708,,,,,,
32,,confirmation,,html-keyboard-response,32,135464,0.0-1.0-7.0-0.0-1.0-0.0,0,0,64747,,,,,,5.0,,,,,,,,,,,,,,,,,,,,,,,,,,,,,,,,1.5,0.792,,,,,,
33,,isi,,html-keyboard-response,33,137471,0.0-1.0-7.0-0.0-2.0,0,0,64747,,,,,,,,,,,,,,,,,,,,,,,,,,,,,,,,,,,,,,3.5,2.0,,,,,,
34,,feedback,,html-keyboard-response,34,138478,0.0-1.0-7.0-0.0-3.0-0.0,0,0,64747,,,,,,5.0,,,,,,,,,,,,,,,,,,,,,,,,,,,,,,,,4.5,1.0,,,,,,
35,,iti,,html-keyboard-response,35,140491,0.0-1.0-7.0-0.0-5.0,0,0,64747,,,,,,,,,,,,,,,,,,,,,,,,,,,,,,,,,,,,,,6.5,2.0,,,,,,
36,,choice,,html-keyboard-response,36,140993,0.0-1.0-8.0-0.0-0.0,0,0,64747,,495.0,,,75.0,6.0,6.0,3000.0,1500.0,0.0,1.0,0.0,40-60,,0.0,poker card,tent,40.0,60.0,poker card12,tent9,20.0,60.0,22865676.thl.jpg,Red Canyon Tent.jpg,/static/Category_learning/Stimuli/Experimental_stims/poker card/22865676.thl.jpg,/static/Category_learning/Stimuli/Experimental_stims/tent/Red Canyon Tent.jpg,0.0,tent,poker card,60.0,40.0,tent9,poker card12,60.0,20.0,0.0,6.995,0.495,,,,,,
37,,confirmation,,html-keyboard-response,37,142006,0.0-1.0-8.0-0.0-1.0-0.0,0,0,64747,,,,,,6.0,,,,,,,,,,,,,,,,,,,,,,,,,,,,,,,,8.0,1.005,,,,,,
38,,isi,,html-keyboard-response,38,145012,0.0-1.0-8.0-0.0-2.0,0,0,64747,,,,,,,,,,,,,,,,,,,,,,,,,,,,,,,,,,,,,,11.0,3.0,,,,,,
39,,feedback,,html-keyboard-response,39,146022,0.0-1.0-8.0-0.0-3.0-0.0,0,0,64747,,,,,,6.0,,,,,,,,,,,,,,,,,,,,,,,,,,,,,,,,12.0,1.0,,,,,,
40,,iti,,html-keyboard-response,40,147528,0.0-1.0-8.0-0.0-5.0,0,0,64747,,,,,,,,,,,,,,,,,,,,,,,,,,,,,,,,,,,,,,13.5,1.5,,,,,,
41,,choice,,html-keyboard-response,41,148606,0.0-1.0-9.0-0.0-0.0,0,0,64747,,1071.0,,,75.0,7.0,7.0,2000.0,1000.0,0.0,1.0,0.0,40-60,,0.0,pen,tent,40.0,60.0,pen6,tent6,20.0,80.0,executive_pen2.jpg,lighthouse_tent_edited_1-1.jpg,/static/Category_learning/Stimuli/Experimental_stims/pen/executive_pen2.jpg,/static/Category_learning/Stimuli/Experimental_stims/tent/lighthouse_tent_edited_1-1.jpg,0.0,tent,pen,60.0,40.0,tent6,pen6,80.0,20.0,0.0,14.571,1.071,,,,,,
42,,confirmation,,html-keyboard-response,42,149043,0.0-1.0-9.0-0.0-1.0-0.0,0,0,64747,,,,,,7.0,,,,,,,,,,,,,,,,,,,,,,,,,,,,,,,,15.0,0.429,,,,,,
43,,isi,,html-keyboard-response,43,151049,0.0-1.0-9.0-0.0-2.0,0,0,64747,,,,,,,,,,,,,,,,,,,,,,,,,,,,,,,,,,,,,,17.0,2.0,,,,,,
44,,feedback,,html-keyboard-response,44,152056,0.0-1.0-9.0-0.0-3.0-0.0,0,0,64747,,,,,,7.0,,,,,,,,,,,,,,,,,,,,,,,,,,,,,,,,18.0,1.0,,,,,,
45,,iti,,html-keyboard-response,45,153063,0.0-1.0-9.0-0.0-5.0,0,0,64747,,,,,,,,,,,,,,,,,,,,,,,,,,,,,,,,,,,,,,19.0,1.0,,,,,,
46,,choice,,html-keyboard-response,46,153804,0.0-1.0-10.0-0.0-0.0,0,0,64747,,734.0,,,68.0,8.0,8.0,1000.0,1000.0,0.0,1.0,0.0,20-60,,1.0,tent,lipstick,60.0,20.0,tent14,lipstick5,60.0,0.0,inflatable-tent.jpg,P35719_hero.jpg,/static/Category_learning/Stimuli/Experimental_stims/tent/inflatable-tent.jpg,/static/Category_learning/Stimuli/Experimental_stims/lipstick/P35719_hero.jpg,1.0,tent,lipstick,60.0,20.0,tent14,lipstick5,60.0,0.0,0.0,19.734,0.734,,,,,,
47,,confirmation,,html-keyboard-response,47,154578,0.0-1.0-10.0-0.0-1.0-0.0,0,0,64747,,,,,,8.0,,,,,,,,,,,,,,,,,,,,,,,,,,,,,,,,20.5,0.766,,,,,,
48,,isi,,html-keyboard-response,48,155584,0.0-1.0-10.0-0.0-2.0,0,0,64747,,,,,,,,,,,,,,,,,,,,,,,,,,,,,,,,,,,,,,21.5,1.0,,,,,,
49,,feedback,,html-keyboard-response,49,156594,0.0-1.0-10.0-0.0-3.0-0.0,0,0,64747,,,,,,8.0,,,,,,,,,,,,,,,,,,,,,,,,,,,,,,,,22.5,1.0,,,,,,
50,,iti,,html-keyboard-response,50,157601,0.0-1.0-10.0-0.0-5.0,0,0,64747,,,,,,,,,,,,,,,,,,,,,,,,,,,,,,,,,,,,,,23.5,1.0,,,,,,
51,,choice,,html-keyboard-response,51,158594,0.0-1.0-11.0-0.0-0.0,0,0,64747,,984.0,,,68.0,9.0,9.0,1000.0,1000.0,0.0,1.0,0.0,20-60,,1.0,watch,frame,60.0,20.0,watch8,frame6,60.0,40.0,2239.jpg,AFRAME123.jpg,/static/Category_learning/Stimuli/Experimental_stims/watch/2239.jpg,/static/Category_learning/Stimuli/Experimental_stims/frame/AFRAME123.jpg,1.0,watch,frame,60.0,20.0,watch8,frame6,60.0,40.0,0.0,24.484,0.984,,,,,,
52,,confirmation,,html-keyboard-response,52,159117,0.0-1.0-11.0-0.0-1.0-0.0,0,0,64747,,,,,,9.0,,,,,,,,,,,,,,,,,,,,,,,,,,,,,,,,25.0,0.516,,,,,,
53,,isi,,html-keyboard-response,53,160126,0.0-1.0-11.0-0.0-2.0,0,0,64747,,,,,,,,,,,,,,,,,,,,,,,,,,,,,,,,,,,,,,26.0,1.0,,,,,,
54,,feedback,,html-keyboard-response,54,161131,0.0-1.0-11.0-0.0-3.0-0.0,0,0,64747,,,,,,9.0,,,,,,,,,,,,,,,,,,,,,,,,,,,,,,,,27.0,1.0,,,,,,
55,,iti,,html-keyboard-response,55,162135,0.0-1.0-11.0-0.0-5.0,0,0,64747,,,,,,,,,,,,,,,,,,,,,,,,,,,,,,,,,,,,,,28.0,1.0,,,,,,
56,,choice,,html-keyboard-response,56,163408,0.0-1.0-12.0-0.0-0.0,0,0,64747,,1267.0,,,68.0,10.0,10.0,3000.0,2000.0,0.0,1.0,1.0,60-60,1.0,,tent,tent,60.0,60.0,tent9,tent14,60.0,60.0,Red Canyon Tent.jpg,inflatable-tent.jpg,/static/Category_learning/Stimuli/Experimental_stims/tent/Red Canyon Tent.jpg,/static/Category_learning/Stimuli/Experimental_stims/tent/inflatable-tent.jpg,1.0,tent,tent,60.0,60.0,tent9,tent14,60.0,60.0,0.0,29.267,1.267,,,,,,
57,,confirmation,,html-keyboard-response,57,163649,0.0-1.0-12.0-0.0-1.0-0.0,0,0,64747,,,,,,10.0,,,,,,,,,,,,,,,,,,,,,,,,,,,,,,,,29.5,0.233,,,,,,
58,,isi,,html-keyboard-response,58,166657,0.0-1.0-12.0-0.0-2.0,0,0,64747,,,,,,,,,,,,,,,,,,,,,,,,,,,,,,,,,,,,,,32.5,3.0,,,,,,
59,,feedback,,html-keyboard-response,59,167664,0.0-1.0-12.0-0.0-3.0-0.0,0,0,64747,,,,,,10.0,,,,,,,,,,,,,,,,,,,,,,,,,,,,,,,,33.5,1.0,,,,,,
60,,iti,,html-keyboard-response,60,169671,0.0-1.0-12.0-0.0-5.0,0,0,64747,,,,,,,,,,,,,,,,,,,,,,,,,,,,,,,,,,,,,,35.5,2.0,,,,,,
61,,choice,,html-keyboard-response,61,170527,0.0-1.0-13.0-0.0-0.0,0,0,64747,,848.0,,,75.0,11.0,11.0,1000.0,2000.0,0.0,1.0,0.0,40-60,,1.0,tape,nail polish,60.0,40.0,tape12,nail polish5,60.0,40.0,Frog-Tape-Dispenser_F02218A2.jpg,182_t.jpg,/static/Category_learning/Stimuli/Experimental_stims/tape/Frog-Tape-Dispenser_F02218A2.jpg,/static/Category_learning/Stimuli/Experimental_stims/nail polish/182_t.jpg,0.0,nail polish,tape,40.0,60.0,nail polish5,tape12,40.0,60.0,0.0,36.348,0.848,,,,,,
62,,confirmation,,html-keyboard-response,62,171187,0.0-1.0-13.0-0.0-1.0-0.0,0,0,64747,,,,,,11.0,,,,,,,,,,,,,,,,,,,,,,,,,,,,,,,,37.0,0.652,,,,,,
63,,isi,,html-keyboard-response,63,172195,0.0-1.0-13.0-0.0-2.0,0,0,64747,,,,,,,,,,,,,,,,,,,,,,,,,,,,,,,,,,,,,,38.0,1.0,,,,,,
64,,feedback,,html-keyboard-response,64,173204,0.0-1.0-13.0-0.0-3.0-0.0,0,0,64747,,,,,,11.0,,,,,,,,,,,,,,,,,,,,,,,,,,,,,,,,39.0,1.0,,,,,,
65,,iti,,html-keyboard-response,65,175211,0.0-1.0-13.0-0.0-5.0,0,0,64747,,,,,,,,,,,,,,,,,,,,,,,,,,,,,,,,,,,,,,41.0,2.0,,,,,,
66,,choice,,html-keyboard-response,66,175688,0.0-1.0-14.0-0.0-0.0,0,0,64747,,468.0,,,68.0,12.0,12.0,3500.0,1500.0,0.0,1.0,0.0,20-60,,1.0,tape,makeup compact,60.0,20.0,tape7,makeup compact6,60.0,40.0,tape dispenser.jpg,P0754_hero.jpg,/static/Category_learning/Stimuli/Experimental_stims/tape/tape dispenser.jpg,/static/Category_learning/Stimuli/Experimental_stims/makeup compact/P0754_hero.jpg,1.0,tape,makeup compact,60.0,20.0,tape7,makeup compact6,60.0,40.0,0.0,41.468,0.468,,,,,,
67,,confirmation,,html-keyboard-response,67,176729,0.0-1.0-14.0-0.0-1.0-0.0,0,0,64747,,,,,,12.0,,,,,,,,,,,,,,,,,,,,,,,,,,,,,,,,42.5,1.032,,,,,,
68,,isi,,html-keyboard-response,68,180236,0.0-1.0-14.0-0.0-2.0,0,0,64747,,,,,,,,,,,,,,,,,,,,,,,,,,,,,,,,,,,,,,46.0,3.5,,,,,,
69,,feedback,,html-keyboard-response,69,181243,0.0-1.0-14.0-0.0-3.0-0.0,0,0,64747,,,,,,12.0,,,,,,,,,,,,,,,,,,,,,,,,,,,,,,,,47.0,1.0,,,,,,
70,,iti,,html-keyboard-response,70,182750,0.0-1.0-14.0-0.0-5.0,0,0,64747,,,,,,,,,,,,,,,,,,,,,,,,,,,,,,,,,,,,,,48.5,1.5,,,,,,
71,,choice,,html-keyboard-response,71,183555,0.0-1.0-15.0-0.0-0.0,0,0,64747,,799.0,,,68.0,13.0,13.0,2000.0,1500.0,0.0,1.0,0.0,20-80,,1.0,bowl,microscope,80.0,20.0,bowl3,microscope15,60.0,40.0,ABOWL8.jpg,Amicroscope23.jpg,/static/Category_learning/Stimuli/Experimental_stims/bowl/ABOWL8.jpg,/static/Category_learning/Stimuli/Experimental_stims/microscope/Amicroscope23.jpg,1.0,bowl,microscope,80.0,20.0,bowl3,microscope15,60.0,40.0,0.0,49.299,0.799,,,,,,
72,,confirmation,,html-keyboard-response,72,184265,0.0-1.0-15.0-0.0-1.0-0.0,0,0,64747,,,,,,13.0,,,,,,,,,,,,,,,,,,,,,,,,,,,,,,,,50.0,0.701,,,,,,
73,,isi,,html-keyboard-response,73,186271,0.0-1.0-15.0-0.0-2.0,0,0,64747,,,,,,,,,,,,,,,,,,,,,,,,,,,,,,,,,,,,,,52.0,2.0,,,,,,
74,,feedback,,html-keyboard-response,74,187278,0.0-1.0-15.0-0.0-3.0-0.0,0,0,64747,,,,,,13.0,,,,,,,,,,,,,,,,,,,,,,,,,,,,,,,,53.0,1.0,,,,,,
75,,iti,,html-keyboard-response,75,188784,0.0-1.0-15.0-0.0-5.0,0,0,64747,,,,,,,,,,,,,,,,,,,,,,,,,,,,,,,,,,,,,,54.5,1.5,,,,,,
76,,choice,,html-keyboard-response,76,189645,0.0-1.0-16.0-0.0-0.0,0,0,64747,,852.0,,,68.0,14.0,14.0,1000.0,2000.0,0.0,1.0,0.0,40-80,,1.0,door knob,necklace,80.0,40.0,door knob10,necklace14,80.0,20.0,c02a578d-c6cc-44ca-8dd2-de8901e30bd7_4.jpg,necklascenew05.jpg,/static/Category_learning/Stimuli/Experimental_stims/door knob/c02a578d-c6cc-44ca-8dd2-de8901e30bd7_4.jpg,/static/Category_learning/Stimuli/Experimental_stims/necklace/necklascenew05.jpg,1.0,door knob,necklace,80.0,40.0,door knob10,necklace14,80.0,20.0,0.0,55.352,0.852,,,,,,
77,,confirmation,,html-keyboard-response,77,190302,0.0-1.0-16.0-0.0-1.0-0.0,0,0,64747,,,,,,14.0,,,,,,,,,,,,,,,,,,,,,,,,,,,,,,,,56.0,0.648,,,,,,
78,,isi,,html-keyboard-response,78,191309,0.0-1.0-16.0-0.0-2.0,0,0,64747,,,,,,,,,,,,,,,,,,,,,,,,,,,,,,,,,,,,,,57.0,1.0,,,,,,
79,,feedback,,html-keyboard-response,79,192316,0.0-1.0-16.0-0.0-3.0-0.0,0,0,64747,,,,,,14.0,,,,,,,,,,,,,,,,,,,,,,,,,,,,,,,,58.0,1.0,,,,,,
80,,iti,,html-keyboard-response,80,194326,0.0-1.0-16.0-0.0-5.0,0,0,64747,,,,,,,,,,,,,,,,,,,,,,,,,,,,,,,,,,,,,,60.0,2.0,,,,,,
81,,choice,,html-keyboard-response,81,195031,0.0-1.0-17.0-0.0-0.0,0,0,64747,,697.0,,,75.0,15.0,15.0,1000.0,1500.0,0.0,1.0,0.0,20-40,,0.0,motorcycle,sofa,20.0,40.0,motorcycle10,sofa5,20.0,60.0,motorcycle17.jpg,ALOVSEA14.jpg,/static/Category_learning/Stimuli/Experimental_stims/motorcycle/motorcycle17.jpg,/static/Category_learning/Stimuli/Experimental_stims/sofa/ALOVSEA14.jpg,0.0,sofa,motorcycle,40.0,20.0,sofa5,motorcycle10,60.0,20.0,0.0,60.697,0.697,,,,,,
82,,confirmation,,html-keyboard-response,82,195842,0.0-1.0-17.0-0.0-1.0-0.0,0,0,64747,,,,,,15.0,,,,,,,,,,,,,,,,,,,,,,,,,,,,,,,,61.5,0.803,,,,,,
83,,isi,,html-keyboard-response,83,196848,0.0-1.0-17.0-0.0-2.0,0,0,64747,,,,,,,,,,,,,,,,,,,,,,,,,,,,,,,,,,,,,,62.5,1.0,,,,,,
84,,feedback,,html-keyboard-response,84,197855,0.0-1.0-17.0-0.0-3.0-0.0,0,0,64747,,,,,,15.0,,,,,,,,,,,,,,,,,,,,,,,,,,,,,,,,63.5,1.0,,,,,,
85,,iti,,html-keyboard-response,85,199361,0.0-1.0-17.0-0.0-5.0,0,0,64747,,,,,,,,,,,,,,,,,,,,,,,,,,,,,,,,,,,,,,65.0,1.5,,,,,,
86,,choice,,html-keyboard-response,86,200078,0.0-1.0-18.0-0.0-0.0,0,0,64747,,708.0,,,68.0,16.0,16.0,1000.0,3000.0,0.0,1.0,0.0,60-60,,,telescope,yarn,60.0,60.0,telescope6,yarn15,80.0,80.0,LO-telescope-89769.jpg,rainbowscarf-600x394.jpg,/static/Category_learning/Stimuli/Experimental_stims/telescope/LO-telescope-89769.jpg,/static/Category_learning/Stimuli/Experimental_stims/yarn/rainbowscarf-600x394.jpg,1.0,telescope,yarn,60.0,60.0,telescope6,yarn15,80.0,80.0,0.0,65.708,0.708,,,,,,
87,,confirmation,,html-keyboard-response,87,200879,0.0-1.0-18.0-0.0-1.0-0.0,0,0,64747,,,,,,16.0,,,,,,,,,,,,,,,,,,,,,,,,,,,,,,,,66.5,0.792,,,,,,
88,,isi,,html-keyboard-response,88,201885,0.0-1.0-18.0-0.0-2.0,0,0,64747,,,,,,,,,,,,,,,,,,,,,,,,,,,,,,,,,,,,,,67.5,1.0,,,,,,
89,,feedback,,html-keyboard-response,89,202894,0.0-1.0-18.0-0.0-3.0-0.0,0,0,64747,,,,,,16.0,,,,,,,,,,,,,,,,,,,,,,,,,,,,,,,,68.5,1.0,,,,,,
90,,iti,,html-keyboard-response,90,205899,0.0-1.0-18.0-0.0-5.0,0,0,64747,,,,,,,,,,,,,,,,,,,,,,,,,,,,,,,,,,,,,,71.5,3.0,,,,,,
91,,choice,,html-keyboard-response,91,206598,0.0-1.0-19.0-0.0-0.0,0,0,64747,,690.0,,,75.0,17.0,17.0,1500.0,2000.0,0.0,1.0,0.0,20-20,,,license plate,makeup compact,20.0,20.0,license plate10,makeup compact7,40.0,0.0,pa-nfn-011.jpg,P187133_hero.jpg,/static/Category_learning/Stimuli/Experimental_stims/license plate/pa-nfn-011.jpg,/static/Category_learning/Stimuli/Experimental_stims/makeup compact/P187133_hero.jpg,0.0,makeup compact,license plate,20.0,20.0,makeup compact7,license plate10,0.0,40.0,0.0,72.19,0.69,,,,,,
92,,confirmation,,html-keyboard-response,92,207415,0.0-1.0-19.0-0.0-1.0-0.0,0,0,64747,,,,,,17.0,,,,,,,,,,,,,,,,,,,,,,,,,,,,,,,,73.0,0.81,,,,,,
93,,isi,,html-keyboard-response,93,208921,0.0-1.0-19.0-0.0-2.0,0,0,64747,,,,,,,,,,,,,,,,,,,,,,,,,,,,,,,,,,,,,,74.5,1.5,,,,,,
94,,feedback,,html-keyboard-response,94,209928,0.0-1.0-19.0-0.0-3.0-0.0,0,0,64747,,,,,,17.0,,,,,,,,,,,,,,,,,,,,,,,,,,,,,,,,75.5,1.0,,,,,,
95,,iti,,html-keyboard-response,95,211934,0.0-1.0-19.0-0.0-5.0,0,0,64747,,,,,,,,,,,,,,,,,,,,,,,,,,,,,,,,,,,,,,77.5,2.0,,,,,,
96,,choice,,html-keyboard-response,96,212616,0.0-1.0-20.0-0.0-0.0,0,0,64747,,674.0,,,75.0,18.0,18.0,2000.0,2000.0,0.0,1.0,1.0,40-60,0.0,,sofa,tent,40.0,60.0,sofa5,tent6,60.0,80.0,ALOVSEA14.jpg,lighthouse_tent_edited_1-1.jpg,/static/Category_learning/Stimuli/Experimental_stims/sofa/ALOVSEA14.jpg,/static/Category_learning/Stimuli/Experimental_stims/tent/lighthouse_tent_edited_1-1.jpg,0.0,tent,sofa,60.0,40.0,tent6,sofa5,80.0,60.0,0.0,78.174,0.674,,,,,,
97,,confirmation,,html-keyboard-response,97,213450,0.0-1.0-20.0-0.0-1.0-0.0,0,0,64747,,,,,,18.0,,,,,,,,,,,,,,,,,,,,,,,,,,,,,,,,79.0,0.826,,,,,,
98,,isi,,html-keyboard-response,98,215456,0.0-1.0-20.0-0.0-2.0,0,0,64747,,,,,,,,,,,,,,,,,,,,,,,,,,,,,,,,,,,,,,81.0,2.0,,,,,,
99,,feedback,,html-keyboard-response,99,216464,0.0-1.0-20.0-0.0-3.0-0.0,0,0,64747,,,,,,18.0,,,,,,,,,,,,,,,,,,,,,,,,,,,,,,,,82.0,1.0,,,,,,
100,,iti,,html-keyboard-response,100,218471,0.0-1.0-20.0-0.0-5.0,0,0,64747,,,,,,,,,,,,,,,,,,,,,,,,,,,,,,,,,,,,,,84.0,2.0,,,,,,
101,,choice,,html-keyboard-response,101,219090,0.0-1.0-21.0-0.0-0.0,0,0,64747,,609.0,,,68.0,19.0,19.0,1500.0,1500.0,0.0,1.0,1.0,20-60,0.0,,makeup compact,watch,20.0,60.0,makeup compact7,watch8,0.0,60.0,P187133_hero.jpg,2239.jpg,/static/Category_learning/Stimuli/Experimental_stims/makeup compact/P187133_hero.jpg,/static/Category_learning/Stimuli/Experimental_stims/watch/2239.jpg,1.0,makeup compact,watch,20.0,60.0,makeup compact7,watch8,0.0,60.0,0.0,84.609,0.609,,,,,,
102,,confirmation,,html-keyboard-response,102,219990,0.0-1.0-21.0-0.0-1.0-0.0,0,0,64747,,,,,,19.0,,,,,,,,,,,,,,,,,,,,,,,,,,,,,,,,85.5,0.891,,,,,,
103,,isi,,html-keyboard-response,103,221496,0.0-1.0-21.0-0.0-2.0,0,0,64747,,,,,,,,,,,,,,,,,,,,,,,,,,,,,,,,,,,,,,87.0,1.5,,,,,,
104,,feedback,,html-keyboard-response,104,222505,0.0-1.0-21.0-0.0-3.0-0.0,0,0,64747,,,,,,19.0,,,,,,,,,,,,,,,,,,,,,,,,,,,,,,,,88.0,1.0,,,,,,
105,,iti,,html-keyboard-response,105,224012,0.0-1.0-21.0-0.0-5.0,0,0,64747,,,,,,,,,,,,,,,,,,,,,,,,,,,,,,,,,,,,,,89.5,1.5,,,,,,
106,,choice,,html-keyboard-response,106,224595,0.0-1.0-22.0-0.0-0.0,0,0,64747,,575.0,,,75.0,20.0,20.0,2000.0,1000.0,0.0,1.0,0.0,40-80,,0.0,patio lounge chair,bongo,40.0,80.0,patio lounge chair11,bongo1,60.0,100.0,51830.jpg,ABONGO22.jpg,/static/Category_learning/Stimuli/Experimental_stims/patio lounge chair/51830.jpg,/static/Category_learning/Stimuli/Experimental_stims/bongo/ABONGO22.jpg,0.0,bongo,patio lounge chair,80.0,40.0,bongo1,patio lounge chair11,100.0,60.0,0.0,90.075,0.575,,,,,,
107,,confirmation,,html-keyboard-response,107,225529,0.0-1.0-22.0-0.0-1.0-0.0,0,0,64747,,,,,,20.0,,,,,,,,,,,,,,,,,,,,,,,,,,,,,,,,91.0,0.925,,,,,,
108,,isi,,html-keyboard-response,108,227537,0.0-1.0-22.0-0.0-2.0,0,0,64747,,,,,,,,,,,,,,,,,,,,,,,,,,,,,,,,,,,,,,93.0,2.0,,,,,,
109,,feedback,,html-keyboard-response,109,228546,0.0-1.0-22.0-0.0-3.0-0.0,0,0,64747,,,,,,20.0,,,,,,,,,,,,,,,,,,,,,,,,,,,,,,,,94.0,1.0,,,,,,
110,,iti,,html-keyboard-response,110,229552,0.0-1.0-22.0-0.0-5.0,0,0,64747,,,,,,,,,,,,,,,,,,,,,,,,,,,,,,,,,,,,,,95.0,1.0,,,,,,
111,,choice,,html-keyboard-response,111,230363,0.0-1.0-23.0-0.0-0.0,0,0,64747,,802.0,,,75.0,21.0,21.0,1500.0,1500.0,0.0,1.0,1.0,60-80,0.0,,tape,desk,60.0,80.0,tape7,desk1,60.0,100.0,tape dispenser.jpg,ADESK11.jpg,/static/Category_learning/Stimuli/Experimental_stims/tape/tape dispenser.jpg,/static/Category_learning/Stimuli/Experimental_stims/desk/ADESK11.jpg,0.0,desk,tape,80.0,60.0,desk1,tape7,100.0,60.0,0.0,95.802,0.802,,,,,,
112,,confirmation,,html-keyboard-response,112,231069,0.0-1.0-23.0-0.0-1.0-0.0,0,0,64747,,,,,,21.0,,,,,,,,,,,,,,,,,,,,,,,,,,,,,,,,96.5,0.698,,,,,,
113,,isi,,html-keyboard-response,113,232575,0.0-1.0-23.0-0.0-2.0,0,0,64747,,,,,,,,,,,,,,,,,,,,,,,,,,,,,,,,,,,,,,98.0,1.5,,,,,,
114,,feedback,,html-keyboard-response,114,233586,0.0-1.0-23.0-0.0-3.0-0.0,0,0,64747,,,,,,21.0,,,,,,,,,,,,,,,,,,,,,,,,,,,,,,,,99.0,1.0,,,,,,
115,,iti,,html-keyboard-response,115,235092,0.0-1.0-23.0-0.0-5.0,0,0,64747,,,,,,,,,,,,,,,,,,,,,,,,,,,,,,,,,,,,,,100.5,1.5,,,,,,
116,,choice,,html-keyboard-response,116,235878,0.0-1.0-24.0-0.0-0.0,0,0,64747,,778.0,,,68.0,22.0,22.0,2000.0,2000.0,0.0,1.0,0.0,40-80,,1.0,baby carriage,seashell,80.0,40.0,baby carriage6,seashell2,60.0,20.0,Baby_Stroller-1.jpg,ph_stri_seashell.jpg,/static/Category_learning/Stimuli/Experimental_stims/baby carriage/Baby_Stroller-1.jpg,/static/Category_learning/Stimuli/Experimental_stims/seashell/ph_stri_seashell.jpg,1.0,baby carriage,seashell,80.0,40.0,baby carriage6,seashell2,60.0,20.0,0.0,101.278,0.778,,,,,,
117,,confirmation,,html-keyboard-response,117,236605,0.0-1.0-24.0-0.0-1.0-0.0,0,0,64747,,,,,,22.0,,,,,,,,,,,,,,,,,,,,,,,,,,,,,,,,102.0,0.722,,,,,,
118,,isi,,html-keyboard-response,118,238613,0.0-1.0-24.0-0.0-2.0,0,0,64747,,,,,,,,,,,,,,,,,,,,,,,,,,,,,,,,,,,,,,104.0,2.0,,,,,,
119,,feedback,,html-keyboard-response,119,239620,0.0-1.0-24.0-0.0-3.0-0.0,0,0,64747,,,,,,22.0,,,,,,,,,,,,,,,,,,,,,,,,,,,,,,,,105.0,1.0,,,,,,
120,,iti,,html-keyboard-response,120,241627,0.0-1.0-24.0-0.0-5.0,0,0,64747,,,,,,,,,,,,,,,,,,,,,,,,,,,,,,,,,,,,,,107.0,2.0,,,,,,
121,,choice,,html-keyboard-response,121,242297,0.0-1.0-25.0-0.0-0.0,0,0,64747,,661.0,,,68.0,23.0,23.0,1000.0,1000.0,0.0,1.0,0.0,20-80,,1.0,dresser,hat,80.0,20.0,dresser12,hat4,80.0,20.0,ADRESSE58.jpg,JS370.jpg,/static/Category_learning/Stimuli/Experimental_stims/dresser/ADRESSE58.jpg,/static/Category_learning/Stimuli/Experimental_stims/hat/JS370.jpg,1.0,dresser,hat,80.0,20.0,dresser12,hat4,80.0,20.0,0.0,107.661,0.661,,,,,,
122,,confirmation,,html-keyboard-response,122,243142,0.0-1.0-25.0-0.0-1.0-0.0,0,0,64747,,,,,,23.0,,,,,,,,,,,,,,,,,,,,,,,,,,,,,,,,108.5,0.839,,,,,,
123,,isi,,html-keyboard-response,123,244148,0.0-1.0-25.0-0.0-2.0,0,0,64747,,,,,,,,,,,,,,,,,,,,,,,,,,,,,,,,,,,,,,109.5,1.0,,,,,,
124,,feedback,,html-keyboard-response,124,245155,0.0-1.0-25.0-0.0-3.0-0.0,0,0,64747,,,,,,23.0,,,,,,,,,,,,,,,,,,,,,,,,,,,,,,,,110.5,1.0,,,,,,
125,,iti,,html-keyboard-response,125,246162,0.0-1.0-25.0-0.0-5.0,0,0,64747,,,,,,,,,,,,,,,,,,,,,,,,,,,,,,,,,,,,,,111.5,1.0,,,,,,
126,,choice,,html-keyboard-response,126,246892,0.0-1.0-26.0-0.0-0.0,0,0,64747,,722.0,,,75.0,24.0,24.0,2000.0,2000.0,0.0,1.0,0.0,20-80,,1.0,door knob,hammer,80.0,20.0,door knob13,hammer15,100.0,0.0,500_CLAWALBC.jpg,Vaughan-32-oz-Hickory-Handle-Ball-Pein-Hammer-S432-B0001LRUJM-L-ARCQ0EBO8TR73_.jpg,/static/Category_learning/Stimuli/Experimental_stims/door knob/500_CLAWALBC.jpg,/static/Category_learning/Stimuli/Experimental_stims/hammer/Vaughan-32-oz-Hickory-Handle-Ball-Pein-Hammer-S432-B0001LRUJM-L-ARCQ0EBO8TR73_.jpg,0.0,hammer,door knob,20.0,80.0,hammer15,door knob13,0.0,100.0,0.0,112.222,0.722,,,,,,
127,,confirmation,,html-keyboard-response,127,247680,0.0-1.0-26.0-0.0-1.0-0.0,0,0,64747,,,,,,24.0,,,,,,,,,,,,,,,,,,,,,,,,,,,,,,,,113.0,0.778,,,,,,
128,,isi,,html-keyboard-response,128,249686,0.0-1.0-26.0-0.0-2.0,0,0,64747,,,,,,,,,,,,,,,,,,,,,,,,,,,,,,,,,,,,,,115.0,2.0,,,,,,
129,,feedback,,html-keyboard-response,129,250694,0.0-1.0-26.0-0.0-3.0-0.0,0,0,64747,,,,,,24.0,,,,,,,,,,,,,,,,,,,,,,,,,,,,,,,,116.0,1.0,,,,,,
130,,iti,,html-keyboard-response,130,252701,0.0-1.0-26.0-0.0-5.0,0,0,64747,,,,,,,,,,,,,,,,,,,,,,,,,,,,,,,,,,,,,,118.0,2.0,,,,,,
131,,choice,,html-keyboard-response,131,253084,0.0-1.0-27.0-0.0-0.0,0,0,64747,,375.0,,,68.0,25.0,25.0,1000.0,1500.0,0.0,1.0,0.0,20-40,,0.0,hammer,nail polish,20.0,40.0,hammer7,nail polish12,40.0,40.0,hammer01.jpg,laquerdUP.jpg,/static/Category_learning/Stimuli/Experimental_stims/hammer/hammer01.jpg,/static/Category_learning/Stimuli/Experimental_stims/nail polish/laquerdUP.jpg,1.0,hammer,nail polish,20.0,40.0,hammer7,nail polish12,40.0,40.0,0.0,118.375,0.375,,,,,,
132,,confirmation,,html-keyboard-response,132,254216,0.0-1.0-27.0-0.0-1.0-0.0,0,0,64747,,,,,,25.0,,,,,,,,,,,,,,,,,,,,,,,,,,,,,,,,119.5,1.125,,,,,,
133,,isi,,html-keyboard-response,133,255222,0.0-1.0-27.0-0.0-2.0,0,0,64747,,,,,,,,,,,,,,,,,,,,,,,,,,,,,,,,,,,,,,120.5,1.0,,,,,,
134,,feedback,,html-keyboard-response,134,256230,0.0-1.0-27.0-0.0-3.0-0.0,0,0,64747,,,,,,25.0,,,,,,,,,,,,,,,,,,,,,,,,,,,,,,,,121.5,1.0,,,,,,
135,,iti,,html-keyboard-response,135,257736,0.0-1.0-27.0-0.0-5.0,0,0,64747,,,,,,,,,,,,,,,,,,,,,,,,,,,,,,,,,,,,,,123.0,1.5,,,,,,
136,,choice,,html-keyboard-response,136,258533,0.0-1.0-28.0-0.0-0.0,0,0,64747,,787.0,,,75.0,26.0,26.0,3500.0,1000.0,0.0,1.0,0.0,20-60,,1.0,stool,makeup compact,60.0,20.0,stool4,makeup compact5,40.0,40.0,ASTOOL22.jpg,P109965_hero.jpg,/static/Category_learning/Stimuli/Experimental_stims/stool/ASTOOL22.jpg,/static/Category_learning/Stimuli/Experimental_stims/makeup compact/P109965_hero.jpg,0.0,makeup compact,stool,20.0,60.0,makeup compact5,stool4,40.0,40.0,0.0,123.787,0.787,,,,,,
137,,confirmation,,html-keyboard-response,137,259254,0.0-1.0-28.0-0.0-1.0-0.0,0,0,64747,,,,,,26.0,,,,,,,,,,,,,,,,,,,,,,,,,,,,,,,,124.5,0.713,,,,,,
138,,isi,,html-keyboard-response,138,262760,0.0-1.0-28.0-0.0-2.0,0,0,64747,,,,,,,,,,,,,,,,,,,,,,,,,,,,,,,,,,,,,,128.0,3.5,,,,,,
139,,feedback,,html-keyboard-response,139,263770,0.0-1.0-28.0-0.0-3.0-0.0,0,0,64747,,,,,,26.0,,,,,,,,,,,,,,,,,,,,,,,,,,,,,,,,129.0,1.0,,,,,,
140,,iti,,html-keyboard-response,140,264777,0.0-1.0-28.0-0.0-5.0,0,0,64747,,,,,,,,,,,,,,,,,,,,,,,,,,,,,,,,,,,,,,130.0,1.0,,,,,,
141,,choice,,html-keyboard-response,141,265501,0.0-1.0-29.0-0.0-0.0,0,0,64747,,715.0,,,75.0,27.0,27.0,1500.0,3500.0,0.0,1.0,0.0,40-80,,1.0,flashlight,small table,80.0,40.0,flashlight12,small table8,80.0,60.0,new05.jpg,ATABLE8.jpg,/static/Category_learning/Stimuli/Experimental_stims/flashlight/new05.jpg,/static/Category_learning/Stimuli/Experimental_stims/small table/ATABLE8.jpg,0.0,small table,flashlight,40.0,80.0,small table8,flashlight12,60.0,80.0,0.0,130.715,0.715,,,,,,
142,,confirmation,,html-keyboard-response,142,266297,0.0-1.0-29.0-0.0-1.0-0.0,0,0,64747,,,,,,27.0,,,,,,,,,,,,,,,,,,,,,,,,,,,,,,,,131.5,0.785,,,,,,
143,,isi,,html-keyboard-response,143,267803,0.0-1.0-29.0-0.0-2.0,0,0,64747,,,,,,,,,,,,,,,,,,,,,,,,,,,,,,,,,,,,,,133.0,1.5,,,,,,
144,,feedback,,html-keyboard-response,144,268810,0.0-1.0-29.0-0.0-3.0-0.0,0,0,64747,,,,,,27.0,,,,,,,,,,,,,,,,,,,,,,,,,,,,,,,,134.0,1.0,,,,,,
145,,iti,,html-keyboard-response,145,272317,0.0-1.0-29.0-0.0-5.0,0,0,64747,,,,,,,,,,,,,,,,,,,,,,,,,,,,,,,,,,,,,,137.5,3.5,,,,,,
146,,choice,,html-keyboard-response,146,272790,0.0-1.0-30.0-0.0-0.0,0,0,64747,,465.0,,,75.0,28.0,28.0,3000.0,3000.0,0.0,1.0,1.0,20-20,1.0,,hammer,hammer,20.0,20.0,hammer7,hammer15,40.0,0.0,hammer01.jpg,Vaughan-32-oz-Hickory-Handle-Ball-Pein-Hammer-S432-B0001LRUJM-L-ARCQ0EBO8TR73_.jpg,/static/Category_learning/Stimuli/Experimental_stims/hammer/hammer01.jpg,/static/Category_learning/Stimuli/Experimental_stims/hammer/Vaughan-32-oz-Hickory-Handle-Ball-Pein-Hammer-S432-B0001LRUJM-L-ARCQ0EBO8TR73_.jpg,0.0,hammer,hammer,20.0,20.0,hammer15,hammer7,0.0,40.0,0.0,137.965,0.465,,,,,,
147,,confirmation,,html-keyboard-response,147,273833,0.0-1.0-30.0-0.0-1.0-0.0,0,0,64747,,,,,,28.0,,,,,,,,,,,,,,,,,,,,,,,,,,,,,,,,139.0,1.035,,,,,,
148,,isi,,html-keyboard-response,148,276840,0.0-1.0-30.0-0.0-2.0,0,0,64747,,,,,,,,,,,,,,,,,,,,,,,,,,,,,,,,,,,,,,142.0,3.0,,,,,,
149,,feedback,,html-keyboard-response,149,277849,0.0-1.0-30.0-0.0-3.0-0.0,0,0,64747,,,,,,28.0,,,,,,,,,,,,,,,,,,,,,,,,,,,,,,,,143.0,1.0,,,,,,
150,,iti,,html-keyboard-response,150,280854,0.0-1.0-30.0-0.0-5.0,0,0,64747,,,,,,,,,,,,,,,,,,,,,,,,,,,,,,,,,,,,,,146.0,3.0,,,,,,
151,,choice,,html-keyboard-response,151,281621,0.0-1.0-31.0-0.0-0.0,0,0,64747,,760.0,,,68.0,29.0,29.0,3500.0,1000.0,0.0,1.0,0.0,20-80,,1.0,bongo,key chain,80.0,20.0,bongo8,key chain10,80.0,0.0,26390661.thl.jpg,Smurfs_Keychains_Smurf_Row_Boat.jpg,/static/Category_learning/Stimuli/Experimental_stims/bongo/26390661.thl.jpg,/static/Category_learning/Stimuli/Experimental_stims/key chain/Smurfs_Keychains_Smurf_Row_Boat.jpg,1.0,bongo,key chain,80.0,20.0,bongo8,key chain10,80.0,0.0,0.0,146.76,0.76,,,,,,
152,,confirmation,,html-keyboard-response,152,282367,0.0-1.0-31.0-0.0-1.0-0.0,0,0,64747,,,,,,29.0,,,,,,,,,,,,,,,,,,,,,,,,,,,,,,,,147.5,0.74,,,,,,
153,,isi,,html-keyboard-response,153,285874,0.0-1.0-31.0-0.0-2.0,0,0,64747,,,,,,,,,,,,,,,,,,,,,,,,,,,,,,,,,,,,,,151.0,3.5,,,,,,
154,,feedback,,html-keyboard-response,154,286883,0.0-1.0-31.0-0.0-3.0-0.0,0,0,64747,,,,,,29.0,,,,,,,,,,,,,,,,,,,,,,,,,,,,,,,,152.0,1.0,,,,,,
155,,iti,,html-keyboard-response,155,287890,0.0-1.0-31.0-0.0-5.0,0,0,64747,,,,,,,,,,,,,,,,,,,,,,,,,,,,,,,,,,,,,,153.0,1.0,,,,,,
156,,choice,,html-keyboard-response,156,288727,0.0-1.0-32.0-0.0-0.0,0,0,64747,,829.0,,,75.0,30.0,30.0,1000.0,2000.0,0.0,1.0,0.0,60-80,,0.0,tape,baby carriage,60.0,80.0,tape15,baby carriage10,80.0,100.0,MMMC15BK.jpg,peg_perego_uno_blu.jpg,/static/Category_learning/Stimuli/Experimental_stims/tape/MMMC15BK.jpg,/static/Category_learning/Stimuli/Experimental_stims/baby carriage/peg_perego_uno_blu.jpg,0.0,baby carriage,tape,80.0,60.0,baby carriage10,tape15,100.0,80.0,0.0,153.829,0.829,,,,,,
157,,confirmation,,html-keyboard-response,157,289404,0.0-1.0-32.0-0.0-1.0-0.0,0,0,64747,,,,,,30.0,,,,,,,,,,,,,,,,,,,,,,,,,,,,,,,,154.5,0.671,,,,,,
158,,isi,,html-keyboard-response,158,290408,0.0-1.0-32.0-0.0-2.0,0,0,64747,,,,,,,,,,,,,,,,,,,,,,,,,,,,,,,,,,,,,,155.5,1.0,,,,,,
159,,feedback,,html-keyboard-response,159,291413,0.0-1.0-32.0-0.0-3.0-0.0,0,0,64747,,,,,,30.0,,,,,,,,,,,,,,,,,,,,,,,,,,,,,,,,156.5,1.0,,,,,,
160,,iti,,html-keyboard-response,160,293419,0.0-1.0-32.0-0.0-5.0,0,0,64747,,,,,,,,,,,,,,,,,,,,,,,,,,,,,,,,,,,,,,158.5,2.0,,,,,,
161,,choice,,html-keyboard-response,161,294178,0.0-1.0-33.0-0.0-0.0,0,0,64747,,753.0,,,68.0,31.0,31.0,1000.0,1000.0,0.0,1.0,1.0,80-80,1.0,,bongo,bongo,80.0,80.0,bongo1,bongo8,100.0,80.0,ABONGO22.jpg,26390661.thl.jpg,/static/Category_learning/Stimuli/Experimental_stims/bongo/ABONGO22.jpg,/static/Category_learning/Stimuli/Experimental_stims/bongo/26390661.thl.jpg,1.0,bongo,bongo,80.0,80.0,bongo1,bongo8,100.0,80.0,0.0,159.253,0.753,,,,,,
162,,confirmation,,html-keyboard-response,162,294934,0.0-1.0-33.0-0.0-1.0-0.0,0,0,64747,,,,,,31.0,,,,,,,,,,,,,,,,,,,,,,,,,,,,,,,,160.0,0.747,,,,,,
163,,isi,,html-keyboard-response,163,295939,0.0-1.0-33.0-0.0-2.0,0,0,64747,,,,,,,,,,,,,,,,,,,,,,,,,,,,,,,,,,,,,,161.0,1.0,,,,,,
164,,feedback,,html-keyboard-response,164,296945,0.0-1.0-33.0-0.0-3.0-0.0,0,0,64747,,,,,,31.0,,,,,,,,,,,,,,,,,,,,,,,,,,,,,,,,162.0,1.0,,,,,,
165,,iti,,html-keyboard-response,165,297952,0.0-1.0-33.0-0.0-5.0,0,0,64747,,,,,,,,,,,,,,,,,,,,,,,,,,,,,,,,,,,,,,163.0,1.0,,,,,,
166,,choice,,html-keyboard-response,166,298779,0.0-1.0-34.0-0.0-0.0,0,0,64747,,819.0,,,75.0,32.0,32.0,1000.0,1000.0,0.0,1.0,0.0,20-60,,0.0,frame,vase,20.0,60.0,frame4,vase9,40.0,60.0,AFRAME125.jpg,Avasewithang2.jpg,/static/Category_learning/Stimuli/Experimental_stims/frame/AFRAME125.jpg,/static/Category_learning/Stimuli/Experimental_stims/vase/Avasewithang2.jpg,0.0,vase,frame,60.0,20.0,vase9,frame4,60.0,40.0,0.0,163.819,0.819,,,,,,
167,,confirmation,,html-keyboard-response,167,299469,0.0-1.0-34.0-0.0-1.0-0.0,0,0,64747,,,,,,32.0,,,,,,,,,,,,,,,,,,,,,,,,,,,,,,,,164.5,0.681,,,,,,
168,,isi,,html-keyboard-response,168,300475,0.0-1.0-34.0-0.0-2.0,0,0,64747,,,,,,,,,,,,,,,,,,,,,,,,,,,,,,,,,,,,,,165.5,1.0,,,,,,
169,,feedback,,html-keyboard-response,169,301482,0.0-1.0-34.0-0.0-3.0-0.0,0,0,64747,,,,,,32.0,,,,,,,,,,,,,,,,,,,,,,,,,,,,,,,,166.5,1.0,,,,,,
170,,iti,,html-keyboard-response,170,302488,0.0-1.0-34.0-0.0-5.0,0,0,64747,,,,,,,,,,,,,,,,,,,,,,,,,,,,,,,,,,,,,,167.5,1.0,,,,,,
171,,choice,,html-keyboard-response,171,303335,0.0-1.0-35.0-0.0-0.0,0,0,64747,,840.0,,,68.0,33.0,33.0,1000.0,1500.0,0.0,1.0,0.0,40-40,,,power strip,necklace,40.0,40.0,power strip5,necklace3,60.0,20.0,93e4a283-bcd6-4ad1-8add-339658cda0fc_400.jpg,26388201.thl.jpg,/static/Category_learning/Stimuli/Experimental_stims/power strip/93e4a283-bcd6-4ad1-8add-339658cda0fc_400.jpg,/static/Category_learning/Stimuli/Experimental_stims/necklace/26388201.thl.jpg,1.0,power strip,necklace,40.0,40.0,power strip5,necklace3,60.0,20.0,0.0,168.34,0.84,,,,,,
172,,confirmation,,html-keyboard-response,172,304010,0.0-1.0-35.0-0.0-1.0-0.0,0,0,64747,,,,,,33.0,,,,,,,,,,,,,,,,,,,,,,,,,,,,,,,,169.0,0.66,,,,,,
173,,isi,,html-keyboard-response,173,305015,0.0-1.0-35.0-0.0-2.0,0,0,64747,,,,,,,,,,,,,,,,,,,,,,,,,,,,,,,,,,,,,,170.0,1.0,,,,,,
174,,feedback,,html-keyboard-response,174,306021,0.0-1.0-35.0-0.0-3.0-0.0,0,0,64747,,,,,,33.0,,,,,,,,,,,,,,,,,,,,,,,,,,,,,,,,171.0,1.0,,,,,,
175,,iti,,html-keyboard-response,175,307528,0.0-1.0-35.0-0.0-5.0,0,0,64747,,,,,,,,,,,,,,,,,,,,,,,,,,,,,,,,,,,,,,172.5,1.5,,,,,,
176,,choice,,html-keyboard-response,176,308054,0.0-1.0-36.0-0.0-0.0,0,0,64747,,518.0,,,75.0,34.0,34.0,2000.0,3000.0,0.0,1.0,0.0,40-60,,0.0,patio lounge chair,yarn,40.0,60.0,patio lounge chair14,yarn8,40.0,40.0,2987951.jpg,smonlineyarn-285x250.jpg,/static/Category_learning/Stimuli/Experimental_stims/patio lounge chair/2987951.jpg,/static/Category_learning/Stimuli/Experimental_stims/yarn/smonlineyarn-285x250.jpg,0.0,yarn,patio lounge chair,60.0,40.0,yarn8,patio lounge chair14,40.0,40.0,0.0,173.018,0.518,,,,,,
177,,confirmation,,html-keyboard-response,177,309044,0.0-1.0-36.0-0.0-1.0-0.0,0,0,64747,,,,,,34.0,,,,,,,,,,,,,,,,,,,,,,,,,,,,,,,,174.0,0.982,,,,,,
178,,isi,,html-keyboard-response,178,311050,0.0-1.0-36.0-0.0-2.0,0,0,64747,,,,,,,,,,,,,,,,,,,,,,,,,,,,,,,,,,,,,,176.0,2.0,,,,,,
179,,feedback,,html-keyboard-response,179,312058,0.0-1.0-36.0-0.0-3.0-0.0,0,0,64747,,,,,,34.0,,,,,,,,,,,,,,,,,,,,,,,,,,,,,,,,177.0,1.0,,,,,,
180,,iti,,html-keyboard-response,180,315063,0.0-1.0-36.0-0.0-5.0,0,0,64747,,,,,,,,,,,,,,,,,,,,,,,,,,,,,,,,,,,,,,180.0,3.0,,,,,,
181,,choice,,html-keyboard-response,181,315764,0.0-1.0-37.0-0.0-0.0,0,0,64747,,694.0,,,68.0,35.0,35.0,1500.0,3500.0,0.0,1.0,1.0,80-80,1.0,,baby carriage,baby carriage,80.0,80.0,baby carriage10,baby carriage6,100.0,60.0,peg_perego_uno_blu.jpg,Baby_Stroller-1.jpg,/static/Category_learning/Stimuli/Experimental_stims/baby carriage/peg_perego_uno_blu.jpg,/static/Category_learning/Stimuli/Experimental_stims/baby carriage/Baby_Stroller-1.jpg,1.0,baby carriage,baby carriage,80.0,80.0,baby carriage10,baby carriage6,100.0,60.0,0.0,180.694,0.694,,,,,,
182,,confirmation,,html-keyboard-response,182,316578,0.0-1.0-37.0-0.0-1.0-0.0,0,0,64747,,,,,,35.0,,,,,,,,,,,,,,,,,,,,,,,,,,,,,,,,181.5,0.806,,,,,,
183,,isi,,html-keyboard-response,183,318084,0.0-1.0-37.0-0.0-2.0,0,0,64747,,,,,,,,,,,,,,,,,,,,,,,,,,,,,,,,,,,,,,183.0,1.5,,,,,,
184,,feedback,,html-keyboard-response,184,319092,0.0-1.0-37.0-0.0-3.0-0.0,0,0,64747,,,,,,35.0,,,,,,,,,,,,,,,,,,,,,,,,,,,,,,,,184.0,1.0,,,,,,
185,,iti,,html-keyboard-response,185,322601,0.0-1.0-37.0-0.0-5.0,0,0,64747,,,,,,,,,,,,,,,,,,,,,,,,,,,,,,,,,,,,,,187.5,3.5,,,,,,
186,,choice,,html-keyboard-response,186,323328,0.0-1.0-38.0-0.0-0.0,0,0,64747,,719.0,,,68.0,36.0,36.0,1500.0,2000.0,0.0,1.0,1.0,40-80,0.0,,dresser,small table,80.0,40.0,dresser12,small table8,80.0,60.0,ADRESSE58.jpg,ATABLE8.jpg,/static/Category_learning/Stimuli/Experimental_stims/dresser/ADRESSE58.jpg,/static/Category_learning/Stimuli/Experimental_stims/small table/ATABLE8.jpg,1.0,dresser,small table,80.0,40.0,dresser12,small table8,80.0,60.0,0.0,188.219,0.719,,,,,,
187,,confirmation,,html-keyboard-response,187,324117,0.0-1.0-38.0-0.0-1.0-0.0,0,0,64747,,,,,,36.0,,,,,,,,,,,,,,,,,,,,,,,,,,,,,,,,189.0,0.781,,,,,,
188,,isi,,html-keyboard-response,188,325623,0.0-1.0-38.0-0.0-2.0,0,0,64747,,,,,,,,,,,,,,,,,,,,,,,,,,,,,,,,,,,,,,190.5,1.5,,,,,,
189,,feedback,,html-keyboard-response,189,326630,0.0-1.0-38.0-0.0-3.0-0.0,0,0,64747,,,,,,36.0,,,,,,,,,,,,,,,,,,,,,,,,,,,,,,,,191.5,1.0,,,,,,
190,,iti,,html-keyboard-response,190,328638,0.0-1.0-38.0-0.0-5.0,0,0,64747,,,,,,,,,,,,,,,,,,,,,,,,,,,,,,,,,,,,,,193.5,2.0,,,,,,
191,,choice,,html-keyboard-response,191,329466,0.0-1.0-39.0-0.0-0.0,0,0,64747,,821.0,,,75.0,37.0,37.0,1000.0,1000.0,0.0,1.0,0.0,60-60,,,tape,train,60.0,60.0,tape10,train6,80.0,40.0,26377601.thl.jpg,train9.jpg,/static/Category_learning/Stimuli/Experimental_stims/tape/26377601.thl.jpg,/static/Category_learning/Stimuli/Experimental_stims/train/train9.jpg,0.0,train,tape,60.0,60.0,train6,tape10,40.0,80.0,0.0,194.321,0.821,,,,,,
192,,confirmation,,html-keyboard-response,192,330149,0.0-1.0-39.0-0.0-1.0-0.0,0,0,64747,,,,,,37.0,,,,,,,,,,,,,,,,,,,,,,,,,,,,,,,,195.0,0.679,,,,,,
193,,isi,,html-keyboard-response,193,331154,0.0-1.0-39.0-0.0-2.0,0,0,64747,,,,,,,,,,,,,,,,,,,,,,,,,,,,,,,,,,,,,,196.0,1.0,,,,,,
194,,feedback,,html-keyboard-response,194,332159,0.0-1.0-39.0-0.0-3.0-0.0,0,0,64747,,,,,,37.0,,,,,,,,,,,,,,,,,,,,,,,,,,,,,,,,197.0,1.0,,,,,,
195,,iti,,html-keyboard-response,195,333163,0.0-1.0-39.0-0.0-5.0,0,0,64747,,,,,,,,,,,,,,,,,,,,,,,,,,,,,,,,,,,,,,198.0,1.0,,,,,,
196,,choice,,html-keyboard-response,196,334019,0.0-1.0-40.0-0.0-0.0,0,0,64747,,850.0,,,68.0,38.0,38.0,1500.0,3500.0,0.0,1.0,0.0,40-80,,0.0,patio lounge chair,bowl,40.0,80.0,patio lounge chair8,bowl6,20.0,80.0,43-1.jpg,Abowl59.jpg,/static/Category_learning/Stimuli/Experimental_stims/patio lounge chair/43-1.jpg,/static/Category_learning/Stimuli/Experimental_stims/bowl/Abowl59.jpg,1.0,patio lounge chair,bowl,40.0,80.0,patio lounge chair8,bowl6,20.0,80.0,0.0,198.85,0.85,,,,,,
197,,confirmation,,html-keyboard-response,197,334677,0.0-1.0-40.0-0.0-1.0-0.0,0,0,64747,,,,,,38.0,,,,,,,,,,,,,,,,,,,,,,,,,,,,,,,,199.5,0.65,,,,,,
198,,isi,,html-keyboard-response,198,336181,0.0-1.0-40.0-0.0-2.0,0,0,64747,,,,,,,,,,,,,,,,,,,,,,,,,,,,,,,,,,,,,,201.0,1.5,,,,,,
199,,feedback,,html-keyboard-response,199,337189,0.0-1.0-40.0-0.0-3.0-0.0,0,0,64747,,,,,,38.0,,,,,,,,,,,,,,,,,,,,,,,,,,,,,,,,202.0,1.0,,,,,,
200,,iti,,html-keyboard-response,200,340695,0.0-1.0-40.0-0.0-5.0,0,0,64747,,,,,,,,,,,,,,,,,,,,,,,,,,,,,,,,,,,,,,205.5,3.5,,,,,,
201,,choice,,html-keyboard-response,201,341426,0.0-1.0-41.0-0.0-0.0,0,0,64747,,724.0,,,68.0,39.0,39.0,2000.0,2000.0,0.0,1.0,1.0,60-60,0.0,,yarn,telescope,60.0,60.0,yarn8,telescope6,40.0,80.0,smonlineyarn-285x250.jpg,LO-telescope-89769.jpg,/static/Category_learning/Stimuli/Experimental_stims/yarn/smonlineyarn-285x250.jpg,/static/Category_learning/Stimuli/Experimental_stims/telescope/LO-telescope-89769.jpg,1.0,yarn,telescope,60.0,60.0,yarn8,telescope6,40.0,80.0,0.0,206.224,0.724,,,,,,
202,,confirmation,,html-keyboard-response,202,342208,0.0-1.0-41.0-0.0-1.0-0.0,0,0,64747,,,,,,39.0,,,,,,,,,,,,,,,,,,,,,,,,,,,,,,,,207.0,0.776,,,,,,
203,,isi,,html-keyboard-response,203,344215,0.0-1.0-41.0-0.0-2.0,0,0,64747,,,,,,,,,,,,,,,,,,,,,,,,,,,,,,,,,,,,,,209.0,2.0,,,,,,
204,,feedback,,html-keyboard-response,204,345223,0.0-1.0-41.0-0.0-3.0-0.0,0,0,64747,,,,,,39.0,,,,,,,,,,,,,,,,,,,,,,,,,,,,,,,,210.0,1.0,,,,,,
205,,iti,,html-keyboard-response,205,347230,0.0-1.0-41.0-0.0-5.0,0,0,64747,,,,,,,,,,,,,,,,,,,,,,,,,,,,,,,,,,,,,,212.0,2.0,,,,,,
206,,choice,,html-keyboard-response,206,347991,0.0-1.0-42.0-0.0-0.0,0,0,64747,,755.0,,,75.0,40.0,40.0,1000.0,1500.0,0.0,1.0,0.0,40-60,,0.0,nail polish,watch,40.0,60.0,nail polish14,watch15,20.0,80.0,38031405.JPG,20-171-6.jpg,/static/Category_learning/Stimuli/Experimental_stims/nail polish/38031405.JPG,/static/Category_learning/Stimuli/Experimental_stims/watch/20-171-6.jpg,0.0,watch,nail polish,60.0,40.0,watch15,nail polish14,80.0,20.0,0.0,212.755,0.755,,,,,,
207,,confirmation,,html-keyboard-response,207,348742,0.0-1.0-42.0-0.0-1.0-0.0,0,0,64747,,,,,,40.0,,,,,,,,,,,,,,,,,,,,,,,,,,,,,,,,213.5,0.745,,,,,,
208,,isi,,html-keyboard-response,208,349748,0.0-1.0-42.0-0.0-2.0,0,0,64747,,,,,,,,,,,,,,,,,,,,,,,,,,,,,,,,,,,,,,214.5,1.0,,,,,,
209,,feedback,,html-keyboard-response,209,350756,0.0-1.0-42.0-0.0-3.0-0.0,0,0,64747,,,,,,40.0,,,,,,,,,,,,,,,,,,,,,,,,,,,,,,,,215.5,1.0,,,,,,
210,,iti,,html-keyboard-response,210,352263,0.0-1.0-42.0-0.0-5.0,0,0,64747,,,,,,,,,,,,,,,,,,,,,,,,,,,,,,,,,,,,,,217.0,1.5,,,,,,
211,,choice,,html-keyboard-response,211,353082,0.0-1.0-43.0-0.0-0.0,0,0,64747,,813.0,,,68.0,41.0,41.0,1500.0,3000.0,0.0,1.0,0.0,20-20,,,hammer,license plate,20.0,20.0,hammer5,license plate14,20.0,0.0,hammer02.jpg,fl-hel-bel.jpg,/static/Category_learning/Stimuli/Experimental_stims/hammer/hammer02.jpg,/static/Category_learning/Stimuli/Experimental_stims/license plate/fl-hel-bel.jpg,1.0,hammer,license plate,20.0,20.0,hammer5,license plate14,20.0,0.0,0.0,217.813,0.813,,,,,,
212,,confirmation,,html-keyboard-response,212,353777,0.0-1.0-43.0-0.0-1.0-0.0,0,0,64747,,,,,,41.0,,,,,,,,,,,,,,,,,,,,,,,,,,,,,,,,218.5,0.687,,,,,,
213,,isi,,html-keyboard-response,213,355282,0.0-1.0-43.0-0.0-2.0,0,0,64747,,,,,,,,,,,,,,,,,,,,,,,,,,,,,,,,,,,,,,220.0,1.5,,,,,,
214,,feedback,,html-keyboard-response,214,356291,0.0-1.0-43.0-0.0-3.0-0.0,0,0,64747,,,,,,41.0,,,,,,,,,,,,,,,,,,,,,,,,,,,,,,,,221.0,1.0,,,,,,
215,,iti,,html-keyboard-response,215,359298,0.0-1.0-43.0-0.0-5.0,0,0,64747,,,,,,,,,,,,,,,,,,,,,,,,,,,,,,,,,,,,,,224.0,3.0,,,,,,
216,,choice,,html-keyboard-response,216,359849,0.0-1.0-44.0-0.0-0.0,0,0,64747,,546.0,,,75.0,42.0,42.0,1500.0,1000.0,0.0,1.0,0.0,40-40,,,poker card,necklace,40.0,40.0,poker card15,necklace9,40.0,60.0,9816946.thl.jpg,ANECKLACE.jpg,/static/Category_learning/Stimuli/Experimental_stims/poker card/9816946.thl.jpg,/static/Category_learning/Stimuli/Experimental_stims/necklace/ANECKLACE.jpg,0.0,necklace,poker card,40.0,40.0,necklace9,poker card15,60.0,40.0,0.0,224.546,0.546,,,,,,
217,,confirmation,,html-keyboard-response,217,360811,0.0-1.0-44.0-0.0-1.0-0.0,0,0,64747,,,,,,42.0,,,,,,,,,,,,,,,,,,,,,,,,,,,,,,,,225.5,0.954,,,,,,
218,,isi,,html-keyboard-response,218,362318,0.0-1.0-44.0-0.0-2.0,0,0,64747,,,,,,,,,,,,,,,,,,,,,,,,,,,,,,,,,,,,,,227.0,1.5,,,,,,
219,,feedback,,html-keyboard-response,219,363328,0.0-1.0-44.0-0.0-3.0-0.0,0,0,64747,,,,,,42.0,,,,,,,,,,,,,,,,,,,,,,,,,,,,,,,,228.0,1.0,,,,,,
220,,iti,,html-keyboard-response,220,364335,0.0-1.0-44.0-0.0-5.0,0,0,64747,,,,,,,,,,,,,,,,,,,,,,,,,,,,,,,,,,,,,,229.0,1.0,,,,,,
221,,choice,,html-keyboard-response,221,365053,0.0-1.0-45.0-0.0-0.0,0,0,64747,,710.0,,,68.0,43.0,43.0,1000.0,3500.0,0.0,1.0,0.0,20-20,,,microscope,hammer,20.0,20.0,microscope5,hammer11,0.0,0.0,emMicroscope.jpg,8oz-hammer-copy.jpg,/static/Category_learning/Stimuli/Experimental_stims/microscope/emMicroscope.jpg,/static/Category_learning/Stimuli/Experimental_stims/hammer/8oz-hammer-copy.jpg,1.0,microscope,hammer,20.0,20.0,microscope5,hammer11,0.0,0.0,0.0,229.71,0.71,,,,,,
222,,confirmation,,html-keyboard-response,222,365852,0.0-1.0-45.0-0.0-1.0-0.0,0,0,64747,,,,,,43.0,,,,,,,,,,,,,,,,,,,,,,,,,,,,,,,,230.5,0.79,,,,,,
223,,isi,,html-keyboard-response,223,366860,0.0-1.0-45.0-0.0-2.0,0,0,64747,,,,,,,,,,,,,,,,,,,,,,,,,,,,,,,,,,,,,,231.5,1.0,,,,,,
224,,feedback,,html-keyboard-response,224,367867,0.0-1.0-45.0-0.0-3.0-0.0,0,0,64747,,,,,,43.0,,,,,,,,,,,,,,,,,,,,,,,,,,,,,,,,232.5,1.0,,,,,,
225,,iti,,html-keyboard-response,225,371373,0.0-1.0-45.0-0.0-5.0,0,0,64747,,,,,,,,,,,,,,,,,,,,,,,,,,,,,,,,,,,,,,236.0,3.5,,,,,,
226,,choice,,html-keyboard-response,226,372272,0.0-1.0-46.0-0.0-0.0,0,0,64747,,890.0,,,75.0,44.0,44.0,1000.0,1000.0,0.0,1.0,1.0,20-40,0.0,,hammer,power strip,20.0,40.0,hammer5,power strip5,20.0,60.0,hammer02.jpg,93e4a283-bcd6-4ad1-8add-339658cda0fc_400.jpg,/static/Category_learning/Stimuli/Experimental_stims/hammer/hammer02.jpg,/static/Category_learning/Stimuli/Experimental_stims/power strip/93e4a283-bcd6-4ad1-8add-339658cda0fc_400.jpg,0.0,power strip,hammer,40.0,20.0,power strip5,hammer5,60.0,20.0,0.0,236.89,0.89,,,,,,
227,,confirmation,,html-keyboard-response,227,372889,0.0-1.0-46.0-0.0-1.0-0.0,0,0,64747,,,,,,44.0,,,,,,,,,,,,,,,,,,,,,,,,,,,,,,,,237.5,0.61,,,,,,
228,,isi,,html-keyboard-response,228,373897,0.0-1.0-46.0-0.0-2.0,0,0,64747,,,,,,,,,,,,,,,,,,,,,,,,,,,,,,,,,,,,,,238.5,1.0,,,,,,
229,,feedback,,html-keyboard-response,229,374905,0.0-1.0-46.0-0.0-3.0-0.0,0,0,64747,,,,,,44.0,,,,,,,,,,,,,,,,,,,,,,,,,,,,,,,,239.5,1.0,,,,,,
230,,iti,,html-keyboard-response,230,375912,0.0-1.0-46.0-0.0-5.0,0,0,64747,,,,,,,,,,,,,,,,,,,,,,,,,,,,,,,,,,,,,,240.5,1.0,,,,,,
231,,choice,,html-keyboard-response,231,376705,0.0-1.0-47.0-0.0-0.0,0,0,64747,,785.0,,,68.0,45.0,45.0,1000.0,1500.0,0.0,1.0,0.0,80-80,,,baby carriage,fan,80.0,80.0,baby carriage8,fan7,60.0,80.0,peg_perego_uno_revi_black.jpg,250679_lg.jpg,/static/Category_learning/Stimuli/Experimental_stims/baby carriage/peg_perego_uno_revi_black.jpg,/static/Category_learning/Stimuli/Experimental_stims/fan/250679_lg.jpg,1.0,baby carriage,fan,80.0,80.0,baby carriage8,fan7,60.0,80.0,0.0,241.285,0.785,,,,,,
232,,confirmation,,html-keyboard-response,232,377430,0.0-1.0-47.0-0.0-1.0-0.0,0,0,64747,,,,,,45.0,,,,,,,,,,,,,,,,,,,,,,,,,,,,,,,,242.0,0.715,,,,,,
233,,isi,,html-keyboard-response,233,378437,0.0-1.0-47.0-0.0-2.0,0,0,64747,,,,,,,,,,,,,,,,,,,,,,,,,,,,,,,,,,,,,,243.0,1.0,,,,,,
234,,feedback,,html-keyboard-response,234,379444,0.0-1.0-47.0-0.0-3.0-0.0,0,0,64747,,,,,,45.0,,,,,,,,,,,,,,,,,,,,,,,,,,,,,,,,244.0,1.0,,,,,,
235,,iti,,html-keyboard-response,235,380952,0.0-1.0-47.0-0.0-5.0,0,0,64747,,,,,,,,,,,,,,,,,,,,,,,,,,,,,,,,,,,,,,245.5,1.5,,,,,,
236,,choice,,html-keyboard-response,236,382078,0.0-1.0-48.0-0.0-0.0,0,0,64747,,1118.0,,,68.0,46.0,46.0,2000.0,1000.0,0.0,1.0,0.0,40-60,,0.0,seashell,telescope,40.0,60.0,seashell1,telescope12,40.0,40.0,Aseashe34.jpg,Junior Land and Sky Telescope.jpg,/static/Category_learning/Stimuli/Experimental_stims/seashell/Aseashe34.jpg,/static/Category_learning/Stimuli/Experimental_stims/telescope/Junior Land and Sky Telescope.jpg,1.0,seashell,telescope,40.0,60.0,seashell1,telescope12,40.0,40.0,0.0,246.618,1.118,,,,,,
237,,confirmation,,html-keyboard-response,237,382468,0.0-1.0-48.0-0.0-1.0-0.0,0,0,64747,,,,,,46.0,,,,,,,,,,,,,,,,,,,,,,,,,,,,,,,,247.0,0.382,,,,,,
238,,isi,,html-keyboard-response,238,384476,0.0-1.0-48.0-0.0-2.0,0,0,64747,,,,,,,,,,,,,,,,,,,,,,,,,,,,,,,,,,,,,,249.0,2.0,,,,,,
239,,feedback,,html-keyboard-response,239,385484,0.0-1.0-48.0-0.0-3.0-0.0,0,0,64747,,,,,,46.0,,,,,,,,,,,,,,,,,,,,,,,,,,,,,,,,250.0,1.0,,,,,,
240,,iti,,html-keyboard-response,240,386492,0.0-1.0-48.0-0.0-5.0,0,0,64747,,,,,,,,,,,,,,,,,,,,,,,,,,,,,,,,,,,,,,251.0,1.0,,,,,,
241,,choice,,html-keyboard-response,241,387226,0.0-1.0-49.0-0.0-0.0,0,0,64747,,729.0,,,68.0,47.0,47.0,2000.0,1000.0,0.0,1.0,0.0,20-40,,1.0,small table,hat,40.0,20.0,small table2,hat7,60.0,20.0,Atable126.jpg,ASTRHATFL.jpg,/static/Category_learning/Stimuli/Experimental_stims/small table/Atable126.jpg,/static/Category_learning/Stimuli/Experimental_stims/hat/ASTRHATFL.jpg,1.0,small table,hat,40.0,20.0,small table2,hat7,60.0,20.0,0.0,251.729,0.729,,,,,,
242,,confirmation,,html-keyboard-response,242,388003,0.0-1.0-49.0-0.0-1.0-0.0,0,0,64747,,,,,,47.0,,,,,,,,,,,,,,,,,,,,,,,,,,,,,,,,252.5,0.771,,,,,,
243,,isi,,html-keyboard-response,243,390011,0.0-1.0-49.0-0.0-2.0,0,0,64747,,,,,,,,,,,,,,,,,,,,,,,,,,,,,,,,,,,,,,254.5,2.0,,,,,,
244,,feedback,,html-keyboard-response,244,391018,0.0-1.0-49.0-0.0-3.0-0.0,0,0,64747,,,,,,47.0,,,,,,,,,,,,,,,,,,,,,,,,,,,,,,,,255.5,1.0,,,,,,
245,,iti,,html-keyboard-response,245,392024,0.0-1.0-49.0-0.0-5.0,0,0,64747,,,,,,,,,,,,,,,,,,,,,,,,,,,,,,,,,,,,,,256.5,1.0,,,,,,
246,,choice,,html-keyboard-response,246,392920,0.0-1.0-50.0-0.0-0.0,0,0,64747,,887.0,,,68.0,48.0,48.0,1000.0,1500.0,0.0,1.0,0.0,20-60,,1.0,tape,hammer,60.0,20.0,tape2,hammer10,40.0,40.0,Tape_Dispenser.jpg,Tabla Hammer.JPG,/static/Category_learning/Stimuli/Experimental_stims/tape/Tape_Dispenser.jpg,/static/Category_learning/Stimuli/Experimental_stims/hammer/Tabla Hammer.JPG,1.0,tape,hammer,60.0,20.0,tape2,hammer10,40.0,40.0,0.0,257.387,0.887,,,,,,
247,,confirmation,,html-keyboard-response,247,393543,0.0-1.0-50.0-0.0-1.0-0.0,0,0,64747,,,,,,48.0,,,,,,,,,,,,,,,,,,,,,,,,,,,,,,,,258.0,0.613,,,,,,
248,,isi,,html-keyboard-response,248,394549,0.0-1.0-50.0-0.0-2.0,0,0,64747,,,,,,,,,,,,,,,,,,,,,,,,,,,,,,,,,,,,,,259.0,1.0,,,,,,
249,,feedback,,html-keyboard-response,249,395557,0.0-1.0-50.0-0.0-3.0-0.0,0,0,64747,,,,,,48.0,,,,,,,,,,,,,,,,,,,,,,,,,,,,,,,,260.0,1.0,,,,,,
250,,iti,,html-keyboard-response,250,397062,0.0-1.0-50.0-0.0-5.0,0,0,64747,,,,,,,,,,,,,,,,,,,,,,,,,,,,,,,,,,,,,,261.5,1.5,,,,,,
251,,choice,,html-keyboard-response,251,397650,0.0-1.0-51.0-0.0-0.0,0,0,64747,,582.0,,,75.0,49.0,49.0,1500.0,1500.0,0.0,1.0,1.0,40-80,0.0,,seashell,baby carriage,40.0,80.0,seashell1,baby carriage8,40.0,60.0,Aseashe34.jpg,peg_perego_uno_revi_black.jpg,/static/Category_learning/Stimuli/Experimental_stims/seashell/Aseashe34.jpg,/static/Category_learning/Stimuli/Experimental_stims/baby carriage/peg_perego_uno_revi_black.jpg,0.0,baby carriage,seashell,80.0,40.0,baby carriage8,seashell1,60.0,40.0,0.0,262.082,0.582,,,,,,
252,,confirmation,,html-keyboard-response,252,398578,0.0-1.0-51.0-0.0-1.0-0.0,0,0,64747,,,,,,49.0,,,,,,,,,,,,,,,,,,,,,,,,,,,,,,,,263.0,0.918,,,,,,
253,,isi,,html-keyboard-response,253,400085,0.0-1.0-51.0-0.0-2.0,0,0,64747,,,,,,,,,,,,,,,,,,,,,,,,,,,,,,,,,,,,,,264.5,1.5,,,,,,
254,,feedback,,html-keyboard-response,254,401092,0.0-1.0-51.0-0.0-3.0-0.0,0,0,64747,,,,,,49.0,,,,,,,,,,,,,,,,,,,,,,,,,,,,,,,,265.5,1.0,,,,,,
255,,iti,,html-keyboard-response,255,402598,0.0-1.0-51.0-0.0-5.0,0,0,64747,,,,,,,,,,,,,,,,,,,,,,,,,,,,,,,,,,,,,,267.0,1.5,,,,,,
256,,choice,,html-keyboard-response,256,403701,0.0-1.0-52.0-0.0-0.0,0,0,64747,,1094.0,,,75.0,50.0,50.0,2000.0,1000.0,0.0,1.0,1.0,40-40,0.0,,patio lounge chair,nail polish,40.0,40.0,patio lounge chair8,nail polish5,20.0,40.0,43-1.jpg,182_t.jpg,/static/Category_learning/Stimuli/Experimental_stims/patio lounge chair/43-1.jpg,/static/Category_learning/Stimuli/Experimental_stims/nail polish/182_t.jpg,0.0,nail polish,patio lounge chair,40.0,40.0,nail polish5,patio lounge chair8,40.0,20.0,0.0,268.094,1.094,,,,,,
257,,confirmation,,html-keyboard-response,257,404114,0.0-1.0-52.0-0.0-1.0-0.0,0,0,64747,,,,,,50.0,,,,,,,,,,,,,,,,,,,,,,,,,,,,,,,,268.5,0.406,,,,,,
258,,isi,,html-keyboard-response,258,406119,0.0-1.0-52.0-0.0-2.0,0,0,64747,,,,,,,,,,,,,,,,,,,,,,,,,,,,,,,,,,,,,,270.5,2.0,,,,,,
259,,feedback,,html-keyboard-response,259,407123,0.0-1.0-52.0-0.0-3.0-0.0,0,0,64747,,,,,,50.0,,,,,,,,,,,,,,,,,,,,,,,,,,,,,,,,271.5,1.0,,,,,,
260,,iti,,html-keyboard-response,260,408130,0.0-1.0-52.0-0.0-5.0,0,0,64747,,,,,,,,,,,,,,,,,,,,,,,,,,,,,,,,,,,,,,272.5,1.0,,,,,,
261,,choice,,html-keyboard-response,261,408920,0.0-1.0-53.0-0.0-0.0,0,0,64747,,784.0,,,68.0,51.0,51.0,3500.0,1500.0,0.0,1.0,0.0,20-80,,1.0,bench,frame,80.0,20.0,bench6,frame7,60.0,20.0,26370121.thl.jpg,AFRAME152.jpg,/static/Category_learning/Stimuli/Experimental_stims/bench/26370121.thl.jpg,/static/Category_learning/Stimuli/Experimental_stims/frame/AFRAME152.jpg,1.0,bench,frame,80.0,20.0,bench6,frame7,60.0,20.0,0.0,273.284,0.784,,,,,,
262,,confirmation,,html-keyboard-response,262,409643,0.0-1.0-53.0-0.0-1.0-0.0,0,0,64747,,,,,,51.0,,,,,,,,,,,,,,,,,,,,,,,,,,,,,,,,274.0,0.716,,,,,,
263,,isi,,html-keyboard-response,263,413151,0.0-1.0-53.0-0.0-2.0,0,0,64747,,,,,,,,,,,,,,,,,,,,,,,,,,,,,,,,,,,,,,277.5,3.5,,,,,,
264,,feedback,,html-keyboard-response,264,414160,0.0-1.0-53.0-0.0-3.0-0.0,0,0,64747,,,,,,51.0,,,,,,,,,,,,,,,,,,,,,,,,,,,,,,,,278.5,1.0,,,,,,
265,,iti,,html-keyboard-response,265,415666,0.0-1.0-53.0-0.0-5.0,0,0,64747,,,,,,,,,,,,,,,,,,,,,,,,,,,,,,,,,,,,,,280.0,1.5,,,,,,
266,,choice,,html-keyboard-response,266,416351,0.0-1.0-54.0-0.0-0.0,0,0,64747,,677.0,,,68.0,52.0,52.0,1000.0,1000.0,0.0,1.0,0.0,20-80,,1.0,bench,motorcycle,80.0,20.0,bench5,motorcycle7,60.0,20.0,APARKBEN8.jpg,MotoSmall.jpg,/static/Category_learning/Stimuli/Experimental_stims/bench/APARKBEN8.jpg,/static/Category_learning/Stimuli/Experimental_stims/motorcycle/MotoSmall.jpg,1.0,bench,motorcycle,80.0,20.0,bench5,motorcycle7,60.0,20.0,0.0,280.677,0.677,,,,,,
267,,confirmation,,html-keyboard-response,267,417183,0.0-1.0-54.0-0.0-1.0-0.0,0,0,64747,,,,,,52.0,,,,,,,,,,,,,,,,,,,,,,,,,,,,,,,,281.5,0.823,,,,,,
268,,isi,,html-keyboard-response,268,418189,0.0-1.0-54.0-0.0-2.0,0,0,64747,,,,,,,,,,,,,,,,,,,,,,,,,,,,,,,,,,,,,,282.5,1.0,,,,,,
269,,feedback,,html-keyboard-response,269,419198,0.0-1.0-54.0-0.0-3.0-0.0,0,0,64747,,,,,,52.0,,,,,,,,,,,,,,,,,,,,,,,,,,,,,,,,283.5,1.0,,,,,,
270,,iti,,html-keyboard-response,270,420204,0.0-1.0-54.0-0.0-5.0,0,0,64747,,,,,,,,,,,,,,,,,,,,,,,,,,,,,,,,,,,,,,284.5,1.0,,,,,,
271,,choice,,html-keyboard-response,271,421021,0.0-1.0-55.0-0.0-0.0,0,0,64747,,809.0,,,75.0,53.0,53.0,2000.0,2000.0,0.0,1.0,0.0,60-60,,,stool,yarn,60.0,60.0,stool9,yarn9,60.0,40.0,ASTOOL7.jpg,Aballofyarn26.jpg,/static/Category_learning/Stimuli/Experimental_stims/stool/ASTOOL7.jpg,/static/Category_learning/Stimuli/Experimental_stims/yarn/Aballofyarn26.jpg,0.0,yarn,stool,60.0,60.0,yarn9,stool9,40.0,60.0,0.0,285.309,0.809,,,,,,
272,,confirmation,,html-keyboard-response,272,421730,0.0-1.0-55.0-0.0-1.0-0.0,0,0,64747,,,,,,53.0,,,,,,,,,,,,,,,,,,,,,,,,,,,,,,,,286.0,0.691,,,,,,
273,,isi,,html-keyboard-response,273,423736,0.0-1.0-55.0-0.0-2.0,0,0,64747,,,,,,,,,,,,,,,,,,,,,,,,,,,,,,,,,,,,,,288.0,2.0,,,,,,
274,,feedback,,html-keyboard-response,274,424743,0.0-1.0-55.0-0.0-3.0-0.0,0,0,64747,,,,,,53.0,,,,,,,,,,,,,,,,,,,,,,,,,,,,,,,,289.0,1.0,,,,,,
275,,iti,,html-keyboard-response,275,426750,0.0-1.0-55.0-0.0-5.0,0,0,64747,,,,,,,,,,,,,,,,,,,,,,,,,,,,,,,,,,,,,,291.0,2.0,,,,,,
276,,choice,,html-keyboard-response,276,427264,0.0-1.0-56.0-0.0-0.0,0,0,64747,,507.0,,,68.0,54.0,54.0,1000.0,1000.0,0.0,1.0,0.0,60-80,,0.0,stool,bench,60.0,80.0,stool7,bench7,60.0,100.0,ASTOOL25.jpg,ACONBENCH.jpg,/static/Category_learning/Stimuli/Experimental_stims/stool/ASTOOL25.jpg,/static/Category_learning/Stimuli/Experimental_stims/bench/ACONBENCH.jpg,1.0,stool,bench,60.0,80.0,stool7,bench7,60.0,100.0,0.0,291.507,0.507,,,,,,
277,,confirmation,,html-keyboard-response,277,428265,0.0-1.0-56.0-0.0-1.0-0.0,0,0,64747,,,,,,54.0,,,,,,,,,,,,,,,,,,,,,,,,,,,,,,,,292.5,0.993,,,,,,
278,,isi,,html-keyboard-response,278,429272,0.0-1.0-56.0-0.0-2.0,0,0,64747,,,,,,,,,,,,,,,,,,,,,,,,,,,,,,,,,,,,,,293.5,1.0,,,,,,
279,,feedback,,html-keyboard-response,279,430281,0.0-1.0-56.0-0.0-3.0-0.0,0,0,64747,,,,,,54.0,,,,,,,,,,,,,,,,,,,,,,,,,,,,,,,,294.5,1.0,,,,,,
280,,iti,,html-keyboard-response,280,431294,0.0-1.0-56.0-0.0-5.0,0,0,64747,,,,,,,,,,,,,,,,,,,,,,,,,,,,,,,,,,,,,,295.5,1.0,,,,,,
281,,choice,,html-keyboard-response,281,431960,0.0-1.0-57.0-0.0-0.0,0,0,64747,,657.0,,,75.0,55.0,55.0,1000.0,1000.0,0.0,1.0,1.0,80-80,1.0,,bench,bench,80.0,80.0,bench6,bench5,60.0,60.0,26370121.thl.jpg,APARKBEN8.jpg,/static/Category_learning/Stimuli/Experimental_stims/bench/26370121.thl.jpg,/static/Category_learning/Stimuli/Experimental_stims/bench/APARKBEN8.jpg,0.0,bench,bench,80.0,80.0,bench5,bench6,60.0,60.0,0.0,296.157,0.657,,,,,,
282,,confirmation,,html-keyboard-response,282,432809,0.0-1.0-57.0-0.0-1.0-0.0,0,0,64747,,,,,,55.0,,,,,,,,,,,,,,,,,,,,,,,,,,,,,,,,297.0,0.843,,,,,,
283,,isi,,html-keyboard-response,283,433815,0.0-1.0-57.0-0.0-2.0,0,0,64747,,,,,,,,,,,,,,,,,,,,,,,,,,,,,,,,,,,,,,298.0,1.0,,,,,,
284,,feedback,,html-keyboard-response,284,434823,0.0-1.0-57.0-0.0-3.0-0.0,0,0,64747,,,,,,55.0,,,,,,,,,,,,,,,,,,,,,,,,,,,,,,,,299.0,1.0,,,,,,
285,,iti,,html-keyboard-response,285,435831,0.0-1.0-57.0-0.0-5.0,0,0,64747,,,,,,,,,,,,,,,,,,,,,,,,,,,,,,,,,,,,,,300.0,1.0,,,,,,
286,,choice,,html-keyboard-response,286,436933,0.0-1.0-58.0-0.0-0.0,0,0,64747,,1093.0,,,75.0,56.0,56.0,3000.0,1000.0,0.0,1.0,0.0,40-60,,1.0,train,poker card,60.0,40.0,train11,poker card6,80.0,40.0,train1.jpg,22864212.thl.jpg,/static/Category_learning/Stimuli/Experimental_stims/train/train1.jpg,/static/Category_learning/Stimuli/Experimental_stims/poker card/22864212.thl.jpg,0.0,poker card,train,40.0,60.0,poker card6,train11,40.0,80.0,0.0,301.093,1.093,,,,,,
287,,confirmation,,html-keyboard-response,287,437349,0.0-1.0-58.0-0.0-1.0-0.0,0,0,64747,,,,,,56.0,,,,,,,,,,,,,,,,,,,,,,,,,,,,,,,,301.5,0.407,,,,,,
288,,isi,,html-keyboard-response,288,440356,0.0-1.0-58.0-0.0-2.0,0,0,64747,,,,,,,,,,,,,,,,,,,,,,,,,,,,,,,,,,,,,,304.5,3.0,,,,,,
289,,feedback,,html-keyboard-response,289,441364,0.0-1.0-58.0-0.0-3.0-0.0,0,0,64747,,,,,,56.0,,,,,,,,,,,,,,,,,,,,,,,,,,,,,,,,305.5,1.0,,,,,,
290,,iti,,html-keyboard-response,290,442369,0.0-1.0-58.0-0.0-5.0,0,0,64747,,,,,,,,,,,,,,,,,,,,,,,,,,,,,,,,,,,,,,306.5,1.0,,,,,,
291,,choice,,html-keyboard-response,291,443123,0.0-1.0-59.0-0.0-0.0,0,0,64747,,745.0,,,75.0,57.0,57.0,1000.0,1500.0,0.0,1.0,0.0,80-80,,,door knob,baby carriage,80.0,80.0,door knob7,baby carriage9,60.0,100.0,doorknob2.jpg,Antique baby Carriage 7.jpg,/static/Category_learning/Stimuli/Experimental_stims/door knob/doorknob2.jpg,/static/Category_learning/Stimuli/Experimental_stims/baby carriage/Antique baby Carriage 7.jpg,0.0,baby carriage,door knob,80.0,80.0,baby carriage9,door knob7,100.0,60.0,0.0,307.245,0.745,,,,,,
292,,confirmation,,html-keyboard-response,292,443886,0.0-1.0-59.0-0.0-1.0-0.0,0,0,64747,,,,,,57.0,,,,,,,,,,,,,,,,,,,,,,,,,,,,,,,,308.0,0.755,,,,,,
293,,isi,,html-keyboard-response,293,444892,0.0-1.0-59.0-0.0-2.0,0,0,64747,,,,,,,,,,,,,,,,,,,,,,,,,,,,,,,,,,,,,,309.0,1.0,,,,,,
294,,feedback,,html-keyboard-response,294,445900,0.0-1.0-59.0-0.0-3.0-0.0,0,0,64747,,,,,,57.0,,,,,,,,,,,,,,,,,,,,,,,,,,,,,,,,310.0,1.0,,,,,,
295,,iti,,html-keyboard-response,295,447407,0.0-1.0-59.0-0.0-5.0,0,0,64747,,,,,,,,,,,,,,,,,,,,,,,,,,,,,,,,,,,,,,311.5,1.5,,,,,,
296,,choice,,html-keyboard-response,296,448916,0.0-1.0-60.0-0.0-0.0,0,0,64747,,,,,,58.0,58.0,1500.0,1000.0,0.0,1.0,1.0,60-80,0.0,,door knob,train,80.0,60.0,door knob10,train6,80.0,40.0,c02a578d-c6cc-44ca-8dd2-de8901e30bd7_4.jpg,train9.jpg,/static/Category_learning/Stimuli/Experimental_stims/door knob/c02a578d-c6cc-44ca-8dd2-de8901e30bd7_4.jpg,/static/Category_learning/Stimuli/Experimental_stims/train/train9.jpg,,,,,,,,,,1.0,313.0,1.5,,,,,,
297,,isi,,html-keyboard-response,297,450423,0.0-1.0-60.0-0.0-2.0,0,0,64747,,,,,,,,,,,,,,,,,,,,,,,,,,,,,,,,,,,,,,314.5,1.5,,,,,,
298,,no_response,,html-keyboard-response,298,451434,0.0-1.0-60.0-0.0-4.0-0.0,0,0,64747,,,,,,,,,,,,,,,,,,,,,,,,,,,,,,,,,,,,,,315.5,1.0,,,,,,
299,,iti,,html-keyboard-response,299,452468,0.0-1.0-60.0-0.0-5.0,0,0,64747,,,,,,,,,,,,,,,,,,,,,,,,,,,,,,,,,,,,,,316.5,1.0,,,,,,
300,,choice,,html-keyboard-response,300,453163,0.0-1.0-60.0-0.1-0.1,0,0,64747,,685.0,,,75.0,58.0,58.0,1500.0,1000.0,0.0,1.0,1.0,60-80,0.0,,door knob,train,80.0,60.0,door knob10,train6,80.0,40.0,c02a578d-c6cc-44ca-8dd2-de8901e30bd7_4.jpg,train9.jpg,/static/Category_learning/Stimuli/Experimental_stims/door knob/c02a578d-c6cc-44ca-8dd2-de8901e30bd7_4.jpg,/static/Category_learning/Stimuli/Experimental_stims/train/train9.jpg,0.0,train,door knob,60.0,80.0,train6,door knob10,40.0,80.0,0.0,317.185,0.685,,,,,,
301,,confirmation,,html-keyboard-response,301,453984,0.0-1.0-60.0-0.1-1.1-0.1,0,0,64747,,,,,,58.0,,,,,,,,,,,,,,,,,,,,,,,,,,,,,,,,318.0,0.815,,,,,,
302,,isi,,html-keyboard-response,302,455491,0.0-1.0-60.0-0.1-2.1,0,0,64747,,,,,,,,,,,,,,,,,,,,,,,,,,,,,,,,,,,,,,319.5,1.5,,,,,,
303,,feedback,,html-keyboard-response,303,456499,0.0-1.0-60.0-0.1-3.1-0.1,0,0,64747,,,,,,58.0,,,,,,,,,,,,,,,,,,,,,,,,,,,,,,,,320.5,1.0,,,,,,
304,,iti,,html-keyboard-response,304,458504,0.0-1.0-60.0-0.1-5.1,0,0,64747,,,,,,,,,,,,,,,,,,,,,,,,,,,,,,,,,,,,,,322.5,2.0,,,,,,
305,,choice,,html-keyboard-response,305,459106,0.0-1.0-61.0-0.0-0.0,0,0,64747,,592.0,,,68.0,59.0,59.0,3500.0,1000.0,0.0,1.0,0.0,60-80,,0.0,watch,bench,60.0,80.0,watch9,bench10,40.0,100.0,mens-diamond-watches-euro-48733-ab.jpg,APARKBE16.jpg,/static/Category_learning/Stimuli/Experimental_stims/watch/mens-diamond-watches-euro-48733-ab.jpg,/static/Category_learning/Stimuli/Experimental_stims/bench/APARKBE16.jpg,1.0,watch,bench,60.0,80.0,watch9,bench10,40.0,100.0,0.0,323.092,0.592,,,,,,
306,,confirmation,,html-keyboard-response,306,460021,0.0-1.0-61.0-0.0-1.0-0.0,0,0,64747,,,,,,59.0,,,,,,,,,,,,,,,,,,,,,,,,,,,,,,,,324.0,0.908,,,,,,
307,,isi,,html-keyboard-response,307,463528,0.0-1.0-61.0-0.0-2.0,0,0,64747,,,,,,,,,,,,,,,,,,,,,,,,,,,,,,,,,,,,,,327.5,3.5,,,,,,
308,,feedback,,html-keyboard-response,308,464537,0.0-1.0-61.0-0.0-3.0-0.0,0,0,64747,,,,,,59.0,,,,,,,,,,,,,,,,,,,,,,,,,,,,,,,,328.5,1.0,,,,,,
309,,iti,,html-keyboard-response,309,465544,0.0-1.0-61.0-0.0-5.0,0,0,64747,,,,,,,,,,,,,,,,,,,,,,,,,,,,,,,,,,,,,,329.5,1.0,,,,,,
310,,choice,,html-keyboard-response,310,466951,0.0-1.0-62.0-0.0-0.0,0,0,64747,,1401.0,,,75.0,60.0,60.0,1500.0,1000.0,0.0,1.0,0.0,40-40,,,pen,necklace,40.0,40.0,pen8,necklace12,60.0,40.0,1383_1749_popup copy.jpg,necklascenew07.jpg,/static/Category_learning/Stimuli/Experimental_stims/pen/1383_1749_popup copy.jpg,/static/Category_learning/Stimuli/Experimental_stims/necklace/necklascenew07.jpg,0.0,necklace,pen,40.0,40.0,necklace12,pen8,40.0,60.0,0.0,330.901,1.401,,,,,,
311,,confirmation,,html-keyboard-response,311,467059,0.0-1.0-62.0-0.0-1.0-0.0,0,0,64747,,,,,,60.0,,,,,,,,,,,,,,,,,,,,,,,,,,,,,,,,331.0,0.099,,,,,,
312,,isi,,html-keyboard-response,312,468564,0.0-1.0-62.0-0.0-2.0,0,0,64747,,,,,,,,,,,,,,,,,,,,,,,,,,,,,,,,,,,,,,332.5,1.5,,,,,,
313,,feedback,,html-keyboard-response,313,469570,0.0-1.0-62.0-0.0-3.0-0.0,0,0,64747,,,,,,60.0,,,,,,,,,,,,,,,,,,,,,,,,,,,,,,,,333.5,1.0,,,,,,
314,,iti,,html-keyboard-response,314,470576,0.0-1.0-62.0-0.0-5.0,0,0,64747,,,,,,,,,,,,,,,,,,,,,,,,,,,,,,,,,,,,,,334.5,1.0,,,,,,
315,,choice,,html-keyboard-response,315,471167,0.0-1.0-63.0-0.0-0.0,0,0,64747,,584.0,,,68.0,61.0,61.0,1000.0,1000.0,0.0,1.0,0.0,20-60,,1.0,train,hammer,60.0,20.0,train15,hammer14,40.0,40.0,master-TD006.jpg,hammer.jpg,/static/Category_learning/Stimuli/Experimental_stims/train/master-TD006.jpg,/static/Category_learning/Stimuli/Experimental_stims/hammer/hammer.jpg,1.0,train,hammer,60.0,20.0,train15,hammer14,40.0,40.0,0.0,335.084,0.584,,,,,,
316,,confirmation,,html-keyboard-response,316,472090,0.0-1.0-63.0-0.0-1.0-0.0,0,0,64747,,,,,,61.0,,,,,,,,,,,,,,,,,,,,,,,,,,,,,,,,336.0,0.916,,,,,,
317,,isi,,html-keyboard-response,317,473097,0.0-1.0-63.0-0.0-2.0,0,0,64747,,,,,,,,,,,,,,,,,,,,,,,,,,,,,,,,,,,,,,337.0,1.0,,,,,,
318,,feedback,,html-keyboard-response,318,474104,0.0-1.0-63.0-0.0-3.0-0.0,0,0,64747,,,,,,61.0,,,,,,,,,,,,,,,,,,,,,,,,,,,,,,,,338.0,1.0,,,,,,
319,,iti,,html-keyboard-response,319,475111,0.0-1.0-63.0-0.0-5.0,0,0,64747,,,,,,,,,,,,,,,,,,,,,,,,,,,,,,,,,,,,,,339.0,1.0,,,,,,
320,,choice,,html-keyboard-response,320,475696,0.0-1.0-64.0-0.0-0.0,0,0,64747,,576.0,,,68.0,62.0,62.0,1000.0,1000.0,0.0,1.0,0.0,20-80,,1.0,dresser,key chain,80.0,20.0,dresser13,key chain7,80.0,40.0,ADRESSE70.jpg,keychain-gentoo-linux.jpg,/static/Category_learning/Stimuli/Experimental_stims/dresser/ADRESSE70.jpg,/static/Category_learning/Stimuli/Experimental_stims/key chain/keychain-gentoo-linux.jpg,1.0,dresser,key chain,80.0,20.0,dresser13,key chain7,80.0,40.0,0.0,339.576,0.576,,,,,,
321,,confirmation,,html-keyboard-response,321,476627,0.0-1.0-64.0-0.0-1.0-0.0,0,0,64747,,,,,,62.0,,,,,,,,,,,,,,,,,,,,,,,,,,,,,,,,340.5,0.924,,,,,,
322,,isi,,html-keyboard-response,322,477634,0.0-1.0-64.0-0.0-2.0,0,0,64747,,,,,,,,,,,,,,,,,,,,,,,,,,,,,,,,,,,,,,341.5,1.0,,,,,,
323,,feedback,,html-keyboard-response,323,478641,0.0-1.0-64.0-0.0-3.0-0.0,0,0,64747,,,,,,62.0,,,,,,,,,,,,,,,,,,,,,,,,,,,,,,,,342.5,1.0,,,,,,
324,,iti,,html-keyboard-response,324,479647,0.0-1.0-64.0-0.0-5.0,0,0,64747,,,,,,,,,,,,,,,,,,,,,,,,,,,,,,,,,,,,,,343.5,1.0,,,,,,
325,,choice,,html-keyboard-response,325,480182,0.0-1.0-65.0-0.0-0.0,0,0,64747,,525.0,,,75.0,63.0,63.0,1500.0,3500.0,0.0,1.0,1.0,60-60,1.0,,watch,watch,60.0,60.0,watch9,watch15,40.0,80.0,mens-diamond-watches-euro-48733-ab.jpg,20-171-6.jpg,/static/Category_learning/Stimuli/Experimental_stims/watch/mens-diamond-watches-euro-48733-ab.jpg,/static/Category_learning/Stimuli/Experimental_stims/watch/20-171-6.jpg,0.0,watch,watch,60.0,60.0,watch15,watch9,80.0,40.0,0.0,344.025,0.525,,,,,,
326,,confirmation,,html-keyboard-response,326,481164,0.0-1.0-65.0-0.0-1.0-0.0,0,0,64747,,,,,,63.0,,,,,,,,,,,,,,,,,,,,,,,,,,,,,,,,345.0,0.975,,,,,,
327,,isi,,html-keyboard-response,327,482668,0.0-1.0-65.0-0.0-2.0,0,0,64747,,,,,,,,,,,,,,,,,,,,,,,,,,,,,,,,,,,,,,346.5,1.5,,,,,,
328,,feedback,,html-keyboard-response,328,483673,0.0-1.0-65.0-0.0-3.0-0.0,0,0,64747,,,,,,63.0,,,,,,,,,,,,,,,,,,,,,,,,,,,,,,,,347.5,1.0,,,,,,
329,,iti,,html-keyboard-response,329,487179,0.0-1.0-65.0-0.0-5.0,0,0,64747,,,,,,,,,,,,,,,,,,,,,,,,,,,,,,,,,,,,,,351.0,3.5,,,,,,
330,,block_over,,html-keyboard-response,330,499474,0.0-1.0-65.0-0.0-7.0-0.0,0,0,64747,,12281.0,,,68.0,63.0,,,,,,,,,,,,,,,,,,,,,,,,,,,,,,,,,,,,,,,
331,,start_run,,html-keyboard-response,331,501096,0.0-1.0-65.0-0.0-7.0-1.0,0,0,64747,,1616.0,,,84.0,,,,,,,,,,,,,,,,,,,,,,,,,,,,,,,,,,,,,,,,
332,,choice,,html-keyboard-response,332,501683,0.0-1.0-66.0-0.0-0.0,0,0,64747,,581.0,,,68.0,64.0,65.0,3500.0,1000.0,0.0,2.0,0.0,20-60,,1.0,telescope,key chain,60.0,20.0,telescope4,key chain14,60.0,0.0,TELESCOPE_BLACK_GOOD_SMALL.jpg,Jif Keychain 285.jpg,/static/Category_learning/Stimuli/Experimental_stims/telescope/TELESCOPE_BLACK_GOOD_SMALL.jpg,/static/Category_learning/Stimuli/Experimental_stims/key chain/Jif Keychain 285.jpg,1.0,telescope,key chain,60.0,20.0,telescope4,key chain14,60.0,0.0,0.0,0.581,0.581,,,,,,
333,,confirmation,,html-keyboard-response,333,502610,0.0-1.0-66.0-0.0-1.0-0.0,0,0,64747,,,,,,64.0,,,,,,,,,,,,,,,,,,,,,,,,,,,,,,,,1.5,0.919,,,,,,
334,,isi,,html-keyboard-response,334,506117,0.0-1.0-66.0-0.0-2.0,0,0,64747,,,,,,,,,,,,,,,,,,,,,,,,,,,,,,,,,,,,,,5.0,3.5,,,,,,
335,,feedback,,html-keyboard-response,335,507124,0.0-1.0-66.0-0.0-3.0-0.0,0,0,64747,,,,,,64.0,,,,,,,,,,,,,,,,,,,,,,,,,,,,,,,,6.0,1.0,,,,,,
336,,iti,,html-keyboard-response,336,508130,0.0-1.0-66.0-0.0-5.0,0,0,64747,,,,,,,,,,,,,,,,,,,,,,,,,,,,,,,,,,,,,,7.0,1.0,,,,,,
337,,choice,,html-keyboard-response,337,508550,0.0-1.0-67.0-0.0-0.0,0,0,64747,,414.0,,,75.0,65.0,66.0,2000.0,1000.0,0.0,2.0,0.0,20-60,,0.0,key chain,yarn,20.0,60.0,key chain3,yarn2,20.0,80.0,Keychain_Voice_Recorder.jpg,Aballofyarn66.jpg,/static/Category_learning/Stimuli/Experimental_stims/key chain/Keychain_Voice_Recorder.jpg,/static/Category_learning/Stimuli/Experimental_stims/yarn/Aballofyarn66.jpg,0.0,yarn,key chain,60.0,20.0,yarn2,key chain3,80.0,20.0,0.0,7.414,0.414,,,,,,
338,,confirmation,,html-keyboard-response,338,509643,0.0-1.0-67.0-0.0-1.0-0.0,0,0,64747,,,,,,65.0,,,,,,,,,,,,,,,,,,,,,,,,,,,,,,,,8.5,1.086,,,,,,
339,,isi,,html-keyboard-response,339,511649,0.0-1.0-67.0-0.0-2.0,0,0,64747,,,,,,,,,,,,,,,,,,,,,,,,,,,,,,,,,,,,,,10.5,2.0,,,,,,
340,,feedback,,html-keyboard-response,340,512657,0.0-1.0-67.0-0.0-3.0-0.0,0,0,64747,,,,,,65.0,,,,,,,,,,,,,,,,,,,,,,,,,,,,,,,,11.5,1.0,,,,,,
341,,iti,,html-keyboard-response,341,513663,0.0-1.0-67.0-0.0-5.0,0,0,64747,,,,,,,,,,,,,,,,,,,,,,,,,,,,,,,,,,,,,,12.5,1.0,,,,,,
342,,choice,,html-keyboard-response,342,514151,0.0-1.0-68.0-0.0-0.0,0,0,64747,,484.0,,,75.0,66.0,67.0,1000.0,1000.0,0.0,2.0,0.0,40-60,,0.0,small table,watch,40.0,60.0,small table15,watch2,60.0,60.0,ATABLE20.jpg,AL0004-03E_MED.jpg,/static/Category_learning/Stimuli/Experimental_stims/small table/ATABLE20.jpg,/static/Category_learning/Stimuli/Experimental_stims/watch/AL0004-03E_MED.jpg,0.0,watch,small table,60.0,40.0,watch2,small table15,60.0,60.0,0.0,12.984,0.484,,,,,,
343,,confirmation,,html-keyboard-response,343,515174,0.0-1.0-68.0-0.0-1.0-0.0,0,0,64747,,,,,,66.0,,,,,,,,,,,,,,,,,,,,,,,,,,,,,,,,14.0,1.016,,,,,,
344,,isi,,html-keyboard-response,344,516181,0.0-1.0-68.0-0.0-2.0,0,0,64747,,,,,,,,,,,,,,,,,,,,,,,,,,,,,,,,,,,,,,15.0,1.0,,,,,,
345,,feedback,,html-keyboard-response,345,517189,0.0-1.0-68.0-0.0-3.0-0.0,0,0,64747,,,,,,66.0,,,,,,,,,,,,,,,,,,,,,,,,,,,,,,,,16.0,1.0,,,,,,
346,,iti,,html-keyboard-response,346,518196,0.0-1.0-68.0-0.0-5.0,0,0,64747,,,,,,,,,,,,,,,,,,,,,,,,,,,,,,,,,,,,,,17.0,1.0,,,,,,
347,,choice,,html-keyboard-response,347,518713,0.0-1.0-69.0-0.0-0.0,0,0,64747,,508.0,,,68.0,67.0,68.0,3500.0,1000.0,0.0,2.0,0.0,40-60,,1.0,yarn,necklace,60.0,40.0,yarn11,necklace7,60.0,60.0,Aballofpinky2.jpg,Anecklace12.jpg,/static/Category_learning/Stimuli/Experimental_stims/yarn/Aballofpinky2.jpg,/static/Category_learning/Stimuli/Experimental_stims/necklace/Anecklace12.jpg,1.0,yarn,necklace,60.0,40.0,yarn11,necklace7,60.0,60.0,0.0,17.508,0.508,,,,,,
348,,confirmation,,html-keyboard-response,348,519714,0.0-1.0-69.0-0.0-1.0-0.0,0,0,64747,,,,,,67.0,,,,,,,,,,,,,,,,,,,,,,,,,,,,,,,,18.5,0.992,,,,,,
349,,isi,,html-keyboard-response,349,523221,0.0-1.0-69.0-0.0-2.0,0,0,64747,,,,,,,,,,,,,,,,,,,,,,,,,,,,,,,,,,,,,,22.0,3.5,,,,,,
350,,feedback,,html-keyboard-response,350,524229,0.0-1.0-69.0-0.0-3.0-0.0,0,0,64747,,,,,,67.0,,,,,,,,,,,,,,,,,,,,,,,,,,,,,,,,23.0,1.0,,,,,,
351,,iti,,html-keyboard-response,351,525236,0.0-1.0-69.0-0.0-5.0,0,0,64747,,,,,,,,,,,,,,,,,,,,,,,,,,,,,,,,,,,,,,24.0,1.0,,,,,,
352,,choice,,html-keyboard-response,352,525709,0.0-1.0-70.0-0.0-0.0,0,0,64747,,463.0,,,75.0,68.0,69.0,1500.0,1000.0,0.0,2.0,0.0,20-80,,1.0,bongo,hat,80.0,20.0,bongo10,hat3,60.0,0.0,22945915.thl.jpg,Astrawhat49.jpg,/static/Category_learning/Stimuli/Experimental_stims/bongo/22945915.thl.jpg,/static/Category_learning/Stimuli/Experimental_stims/hat/Astrawhat49.jpg,0.0,hat,bongo,20.0,80.0,hat3,bongo10,0.0,60.0,0.0,24.463,0.463,,,,,,
353,,confirmation,,html-keyboard-response,353,526752,0.0-1.0-70.0-0.0-1.0-0.0,0,0,64747,,,,,,68.0,,,,,,,,,,,,,,,,,,,,,,,,,,,,,,,,25.5,1.037,,,,,,
354,,isi,,html-keyboard-response,354,528260,0.0-1.0-70.0-0.0-2.0,0,0,64747,,,,,,,,,,,,,,,,,,,,,,,,,,,,,,,,,,,,,,27.0,1.5,,,,,,
355,,feedback,,html-keyboard-response,355,529268,0.0-1.0-70.0-0.0-3.0-0.0,0,0,64747,,,,,,68.0,,,,,,,,,,,,,,,,,,,,,,,,,,,,,,,,28.0,1.0,,,,,,
356,,iti,,html-keyboard-response,356,530274,0.0-1.0-70.0-0.0-5.0,0,0,64747,,,,,,,,,,,,,,,,,,,,,,,,,,,,,,,,,,,,,,29.0,1.0,,,,,,
357,,choice,,html-keyboard-response,357,530860,0.0-1.0-71.0-0.0-0.0,0,0,64747,,577.0,,,68.0,69.0,70.0,1500.0,1500.0,0.0,2.0,1.0,40-40,1.0,,necklace,necklace,40.0,40.0,necklace12,necklace9,40.0,60.0,necklascenew07.jpg,ANECKLACE.jpg,/static/Category_learning/Stimuli/Experimental_stims/necklace/necklascenew07.jpg,/static/Category_learning/Stimuli/Experimental_stims/necklace/ANECKLACE.jpg,1.0,necklace,necklace,40.0,40.0,necklace12,necklace9,40.0,60.0,0.0,29.577,0.577,,,,,,
358,,confirmation,,html-keyboard-response,358,531791,0.0-1.0-71.0-0.0-1.0-0.0,0,0,64747,,,,,,69.0,,,,,,,,,,,,,,,,,,,,,,,,,,,,,,,,30.5,0.923,,,,,,
359,,isi,,html-keyboard-response,359,533299,0.0-1.0-71.0-0.0-2.0,0,0,64747,,,,,,,,,,,,,,,,,,,,,,,,,,,,,,,,,,,,,,32.0,1.5,,,,,,
360,,feedback,,html-keyboard-response,360,534307,0.0-1.0-71.0-0.0-3.0-0.0,0,0,64747,,,,,,69.0,,,,,,,,,,,,,,,,,,,,,,,,,,,,,,,,33.0,1.0,,,,,,
361,,iti,,html-keyboard-response,361,535815,0.0-1.0-71.0-0.0-5.0,0,0,64747,,,,,,,,,,,,,,,,,,,,,,,,,,,,,,,,,,,,,,34.5,1.5,,,,,,
362,,choice,,html-keyboard-response,362,536451,0.0-1.0-72.0-0.0-0.0,0,0,64747,,630.0,,,68.0,70.0,71.0,1500.0,1000.0,0.0,2.0,1.0,60-60,1.0,,yarn,yarn,60.0,60.0,yarn2,yarn9,80.0,40.0,Aballofyarn66.jpg,Aballofyarn26.jpg,/static/Category_learning/Stimuli/Experimental_stims/yarn/Aballofyarn66.jpg,/static/Category_learning/Stimuli/Experimental_stims/yarn/Aballofyarn26.jpg,1.0,yarn,yarn,60.0,60.0,yarn2,yarn9,80.0,40.0,0.0,35.13,0.63,,,,,,
363,,confirmation,,html-keyboard-response,363,537328,0.0-1.0-72.0-0.0-1.0-0.0,0,0,64747,,,,,,70.0,,,,,,,,,,,,,,,,,,,,,,,,,,,,,,,,36.0,0.87,,,,,,
364,,isi,,html-keyboard-response,364,538836,0.0-1.0-72.0-0.0-2.0,0,0,64747,,,,,,,,,,,,,,,,,,,,,,,,,,,,,,,,,,,,,,37.5,1.5,,,,,,
365,,feedback,,html-keyboard-response,365,539845,0.0-1.0-72.0-0.0-3.0-0.0,0,0,64747,,,,,,70.0,,,,,,,,,,,,,,,,,,,,,,,,,,,,,,,,38.5,1.0,,,,,,
366,,iti,,html-keyboard-response,366,540852,0.0-1.0-72.0-0.0-5.0,0,0,64747,,,,,,,,,,,,,,,,,,,,,,,,,,,,,,,,,,,,,,39.5,1.0,,,,,,
367,,choice,,html-keyboard-response,367,541715,0.0-1.0-73.0-0.0-0.0,0,0,64747,,853.0,,,75.0,71.0,72.0,1000.0,2000.0,0.0,2.0,0.0,20-60,,0.0,microscope,telescope,20.0,60.0,microscope12,telescope14,0.0,80.0,usbdigitalmicroscope1_small1.jpg,T09748dt.jpg,/static/Category_learning/Stimuli/Experimental_stims/microscope/usbdigitalmicroscope1_small1.jpg,/static/Category_learning/Stimuli/Experimental_stims/telescope/T09748dt.jpg,0.0,telescope,microscope,60.0,20.0,telescope14,microscope12,80.0,0.0,0.0,40.353,0.853,,,,,,
368,,confirmation,,html-keyboard-response,368,542370,0.0-1.0-73.0-0.0-1.0-0.0,0,0,64747,,,,,,71.0,,,,,,,,,,,,,,,,,,,,,,,,,,,,,,,,41.0,0.647,,,,,,
369,,isi,,html-keyboard-response,369,543377,0.0-1.0-73.0-0.0-2.0,0,0,64747,,,,,,,,,,,,,,,,,,,,,,,,,,,,,,,,,,,,,,42.0,1.0,,,,,,
370,,feedback,,html-keyboard-response,370,544385,0.0-1.0-73.0-0.0-3.0-0.0,0,0,64747,,,,,,71.0,,,,,,,,,,,,,,,,,,,,,,,,,,,,,,,,43.0,1.0,,,,,,
371,,iti,,html-keyboard-response,371,546393,0.0-1.0-73.0-0.0-5.0,0,0,64747,,,,,,,,,,,,,,,,,,,,,,,,,,,,,,,,,,,,,,45.0,2.0,,,,,,
372,,choice,,html-keyboard-response,372,546941,0.0-1.0-74.0-0.0-0.0,0,0,64747,,540.0,,,75.0,72.0,73.0,1000.0,1000.0,0.0,2.0,0.0,20-80,,1.0,bench,hat,80.0,20.0,bench13,hat14,80.0,0.0,ABROWNBE4.jpg,Ahat136.jpg,/static/Category_learning/Stimuli/Experimental_stims/bench/ABROWNBE4.jpg,/static/Category_learning/Stimuli/Experimental_stims/hat/Ahat136.jpg,0.0,hat,bench,20.0,80.0,hat14,bench13,0.0,80.0,0.0,45.54,0.54,,,,,,
373,,confirmation,,html-keyboard-response,373,547909,0.0-1.0-74.0-0.0-1.0-0.0,0,0,64747,,,,,,72.0,,,,,,,,,,,,,,,,,,,,,,,,,,,,,,,,46.5,0.96,,,,,,
374,,isi,,html-keyboard-response,374,548914,0.0-1.0-74.0-0.0-2.0,0,0,64747,,,,,,,,,,,,,,,,,,,,,,,,,,,,,,,,,,,,,,47.5,1.0,,,,,,
375,,feedback,,html-keyboard-response,375,549922,0.0-1.0-74.0-0.0-3.0-0.0,0,0,64747,,,,,,72.0,,,,,,,,,,,,,,,,,,,,,,,,,,,,,,,,48.5,1.0,,,,,,
376,,iti,,html-keyboard-response,376,550929,0.0-1.0-74.0-0.0-5.0,0,0,64747,,,,,,,,,,,,,,,,,,,,,,,,,,,,,,,,,,,,,,49.5,1.0,,,,,,
377,,choice,,html-keyboard-response,377,552377,0.0-1.0-75.0-0.0-0.0,0,0,64747,,1438.0,,,68.0,73.0,74.0,1500.0,1000.0,0.0,2.0,1.0,20-20,1.0,,hat,hat,20.0,20.0,hat14,hat3,0.0,0.0,Ahat136.jpg,Astrawhat49.jpg,/static/Category_learning/Stimuli/Experimental_stims/hat/Ahat136.jpg,/static/Category_learning/Stimuli/Experimental_stims/hat/Astrawhat49.jpg,1.0,hat,hat,20.0,20.0,hat14,hat3,0.0,0.0,0.0,50.938,1.438,,,,,,
378,,confirmation,,html-keyboard-response,378,552445,0.0-1.0-75.0-0.0-1.0-0.0,0,0,64747,,,,,,73.0,,,,,,,,,,,,,,,,,,,,,,,,,,,,,,,,51.0,0.062,,,,,,
379,,isi,,html-keyboard-response,379,553952,0.0-1.0-75.0-0.0-2.0,0,0,64747,,,,,,,,,,,,,,,,,,,,,,,,,,,,,,,,,,,,,,52.5,1.5,,,,,,
380,,feedback,,html-keyboard-response,380,554960,0.0-1.0-75.0-0.0-3.0-0.0,0,0,64747,,,,,,73.0,,,,,,,,,,,,,,,,,,,,,,,,,,,,,,,,53.5,1.0,,,,,,
381,,iti,,html-keyboard-response,381,555966,0.0-1.0-75.0-0.0-5.0,0,0,64747,,,,,,,,,,,,,,,,,,,,,,,,,,,,,,,,,,,,,,54.5,1.0,,,,,,
382,,choice,,html-keyboard-response,382,556937,0.0-1.0-76.0-0.0-0.0,0,0,64747,,962.0,,,75.0,74.0,75.0,1000.0,2000.0,0.0,2.0,0.0,20-20,,,motorcycle,hat,20.0,20.0,motorcycle6,hat13,40.0,0.0,motorcycle45364t4t.jpg,Ahatwithfeath.jpg,/static/Category_learning/Stimuli/Experimental_stims/motorcycle/motorcycle45364t4t.jpg,/static/Category_learning/Stimuli/Experimental_stims/hat/Ahatwithfeath.jpg,0.0,hat,motorcycle,20.0,20.0,hat13,motorcycle6,0.0,40.0,0.0,55.462,0.962,,,,,,
383,,confirmation,,html-keyboard-response,383,557482,0.0-1.0-76.0-0.0-1.0-0.0,0,0,64747,,,,,,74.0,,,,,,,,,,,,,,,,,,,,,,,,,,,,,,,,56.0,0.538,,,,,,
384,,isi,,html-keyboard-response,384,558489,0.0-1.0-76.0-0.0-2.0,0,0,64747,,,,,,,,,,,,,,,,,,,,,,,,,,,,,,,,,,,,,,57.0,1.0,,,,,,
385,,feedback,,html-keyboard-response,385,559498,0.0-1.0-76.0-0.0-3.0-0.0,0,0,64747,,,,,,74.0,,,,,,,,,,,,,,,,,,,,,,,,,,,,,,,,58.0,1.0,,,,,,
386,,iti,,html-keyboard-response,386,561504,0.0-1.0-76.0-0.0-5.0,0,0,64747,,,,,,,,,,,,,,,,,,,,,,,,,,,,,,,,,,,,,,60.0,2.0,,,,,,
387,,choice,,html-keyboard-response,387,562050,0.0-1.0-77.0-0.0-0.0,0,0,64747,,537.0,,,68.0,75.0,76.0,1000.0,1000.0,0.0,2.0,0.0,40-80,,1.0,desk,patio lounge chair,80.0,40.0,desk4,patio lounge chair13,80.0,20.0,AbbeyMiniRadialBIG(1).jpg,grosfillex-bahia-resin-chaise-lounges.jpg,/static/Category_learning/Stimuli/Experimental_stims/desk/AbbeyMiniRadialBIG(1).jpg,/static/Category_learning/Stimuli/Experimental_stims/patio lounge chair/grosfillex-bahia-resin-chaise-lounges.jpg,1.0,desk,patio lounge chair,80.0,40.0,desk4,patio lounge chair13,80.0,20.0,0.0,60.537,0.537,,,,,,
388,,confirmation,,html-keyboard-response,388,563022,0.0-1.0-77.0-0.0-1.0-0.0,0,0,64747,,,,,,75.0,,,,,,,,,,,,,,,,,,,,,,,,,,,,,,,,61.5,0.963,,,,,,
389,,isi,,html-keyboard-response,389,564029,0.0-1.0-77.0-0.0-2.0,0,0,64747,,,,,,,,,,,,,,,,,,,,,,,,,,,,,,,,,,,,,,62.5,1.0,,,,,,
390,,feedback,,html-keyboard-response,390,565038,0.0-1.0-77.0-0.0-3.0-0.0,0,0,64747,,,,,,75.0,,,,,,,,,,,,,,,,,,,,,,,,,,,,,,,,63.5,1.0,,,,,,
391,,iti,,html-keyboard-response,391,566044,0.0-1.0-77.0-0.0-5.0,0,0,64747,,,,,,,,,,,,,,,,,,,,,,,,,,,,,,,,,,,,,,64.5,1.0,,,,,,
392,,choice,,html-keyboard-response,392,566575,0.0-1.0-78.0-0.0-0.0,0,0,64747,,525.0,,,68.0,76.0,77.0,2000.0,1500.0,0.0,2.0,1.0,60-60,1.0,,telescope,telescope,60.0,60.0,telescope14,telescope4,80.0,60.0,T09748dt.jpg,TELESCOPE_BLACK_GOOD_SMALL.jpg,/static/Category_learning/Stimuli/Experimental_stims/telescope/T09748dt.jpg,/static/Category_learning/Stimuli/Experimental_stims/telescope/TELESCOPE_BLACK_GOOD_SMALL.jpg,1.0,telescope,telescope,60.0,60.0,telescope14,telescope4,80.0,60.0,0.0,65.025,0.525,,,,,,
393,,confirmation,,html-keyboard-response,393,567560,0.0-1.0-78.0-0.0-1.0-0.0,0,0,64747,,,,,,76.0,,,,,,,,,,,,,,,,,,,,,,,,,,,,,,,,66.0,0.975,,,,,,
394,,isi,,html-keyboard-response,394,569566,0.0-1.0-78.0-0.0-2.0,0,0,64747,,,,,,,,,,,,,,,,,,,,,,,,,,,,,,,,,,,,,,68.0,2.0,,,,,,
395,,feedback,,html-keyboard-response,395,570573,0.0-1.0-78.0-0.0-3.0-0.0,0,0,64747,,,,,,76.0,,,,,,,,,,,,,,,,,,,,,,,,,,,,,,,,69.0,1.0,,,,,,
396,,iti,,html-keyboard-response,396,572079,0.0-1.0-78.0-0.0-5.0,0,0,64747,,,,,,,,,,,,,,,,,,,,,,,,,,,,,,,,,,,,,,70.5,1.5,,,,,,
397,,choice,,html-keyboard-response,397,572913,0.0-1.0-79.0-0.0-0.0,0,0,64747,,824.0,,,75.0,77.0,78.0,2000.0,1000.0,0.0,2.0,0.0,20-40,,1.0,patio lounge chair,hat,40.0,20.0,patio lounge chair7,hat2,40.0,40.0,lg_Serenity_Riviera[1].jpg,Ahatwithfeat7.jpg,/static/Category_learning/Stimuli/Experimental_stims/patio lounge chair/lg_Serenity_Riviera[1].jpg,/static/Category_learning/Stimuli/Experimental_stims/hat/Ahatwithfeat7.jpg,0.0,hat,patio lounge chair,20.0,40.0,hat2,patio lounge chair7,40.0,40.0,0.0,71.324,0.824,,,,,,
398,,confirmation,,html-keyboard-response,398,573596,0.0-1.0-79.0-0.0-1.0-0.0,0,0,64747,,,,,,77.0,,,,,,,,,,,,,,,,,,,,,,,,,,,,,,,,72.0,0.676,,,,,,
399,,isi,,html-keyboard-response,399,575603,0.0-1.0-79.0-0.0-2.0,0,0,64747,,,,,,,,,,,,,,,,,,,,,,,,,,,,,,,,,,,,,,74.0,2.0,,,,,,
400,,feedback,,html-keyboard-response,400,576612,0.0-1.0-79.0-0.0-3.0-0.0,0,0,64747,,,,,,77.0,,,,,,,,,,,,,,,,,,,,,,,,,,,,,,,,75.0,1.0,,,,,,
401,,iti,,html-keyboard-response,401,577619,0.0-1.0-79.0-0.0-5.0,0,0,64747,,,,,,,,,,,,,,,,,,,,,,,,,,,,,,,,,,,,,,76.0,1.0,,,,,,
402,,choice,,html-keyboard-response,402,578385,0.0-1.0-80.0-0.0-0.0,0,0,64747,,757.0,,,68.0,78.0,79.0,1500.0,2000.0,0.0,2.0,1.0,20-20,1.0,,hat,hat,20.0,20.0,hat2,hat13,40.0,0.0,Ahatwithfeat7.jpg,Ahatwithfeath.jpg,/static/Category_learning/Stimuli/Experimental_stims/hat/Ahatwithfeat7.jpg,/static/Category_learning/Stimuli/Experimental_stims/hat/Ahatwithfeath.jpg,1.0,hat,hat,20.0,20.0,hat2,hat13,40.0,0.0,0.0,76.757,0.757,,,,,,
403,,confirmation,,html-keyboard-response,403,579134,0.0-1.0-80.0-0.0-1.0-0.0,0,0,64747,,,,,,78.0,,,,,,,,,,,,,,,,,,,,,,,,,,,,,,,,77.5,0.743,,,,,,
404,,isi,,html-keyboard-response,404,580639,0.0-1.0-80.0-0.0-2.0,0,0,64747,,,,,,,,,,,,,,,,,,,,,,,,,,,,,,,,,,,,,,79.0,1.5,,,,,,
405,,feedback,,html-keyboard-response,405,581646,0.0-1.0-80.0-0.0-3.0-0.0,0,0,64747,,,,,,78.0,,,,,,,,,,,,,,,,,,,,,,,,,,,,,,,,80.0,1.0,,,,,,
406,,iti,,html-keyboard-response,406,583667,0.0-1.0-80.0-0.0-5.0,0,0,64747,,,,,,,,,,,,,,,,,,,,,,,,,,,,,,,,,,,,,,82.0,2.0,,,,,,
407,,choice,,html-keyboard-response,407,584484,0.0-1.0-81.0-0.0-0.0,0,0,64747,,812.0,,,75.0,79.0,80.0,1000.0,1500.0,0.0,2.0,0.0,20-80,,0.0,hat,flashlight,20.0,80.0,hat9,flashlight7,40.0,60.0,Astrawhat44.jpg,11900.jpg,/static/Category_learning/Stimuli/Experimental_stims/hat/Astrawhat44.jpg,/static/Category_learning/Stimuli/Experimental_stims/flashlight/11900.jpg,0.0,flashlight,hat,80.0,20.0,flashlight7,hat9,60.0,40.0,0.0,82.812,0.812,,,,,,
408,,confirmation,,html-keyboard-response,408,585180,0.0-1.0-81.0-0.0-1.0-0.0,0,0,64747,,,,,,79.0,,,,,,,,,,,,,,,,,,,,,,,,,,,,,,,,83.5,0.688,,,,,,
409,,isi,,html-keyboard-response,409,586187,0.0-1.0-81.0-0.0-2.0,0,0,64747,,,,,,,,,,,,,,,,,,,,,,,,,,,,,,,,,,,,,,84.5,1.0,,,,,,
410,,feedback,,html-keyboard-response,410,587195,0.0-1.0-81.0-0.0-3.0-0.0,0,0,64747,,,,,,79.0,,,,,,,,,,,,,,,,,,,,,,,,,,,,,,,,85.5,1.0,,,,,,
411,,iti,,html-keyboard-response,411,588701,0.0-1.0-81.0-0.0-5.0,0,0,64747,,,,,,,,,,,,,,,,,,,,,,,,,,,,,,,,,,,,,,87.0,1.5,,,,,,
412,,choice,,html-keyboard-response,412,589332,0.0-1.0-82.0-0.0-0.0,0,0,64747,,623.0,,,75.0,80.0,81.0,2000.0,1500.0,0.0,2.0,0.0,40-60,,1.0,telescope,sofa,60.0,40.0,telescope2,sofa15,60.0,40.0,Brass-telescope-60700.jpg,APEACHLOV.jpg,/static/Category_learning/Stimuli/Experimental_stims/telescope/Brass-telescope-60700.jpg,/static/Category_learning/Stimuli/Experimental_stims/sofa/APEACHLOV.jpg,0.0,sofa,telescope,40.0,60.0,sofa15,telescope2,40.0,60.0,0.0,87.623,0.623,,,,,,
413,,confirmation,,html-keyboard-response,413,590218,0.0-1.0-82.0-0.0-1.0-0.0,0,0,64747,,,,,,80.0,,,,,,,,,,,,,,,,,,,,,,,,,,,,,,,,88.5,0.877,,,,,,
414,,isi,,html-keyboard-response,414,592224,0.0-1.0-82.0-0.0-2.0,0,0,64747,,,,,,,,,,,,,,,,,,,,,,,,,,,,,,,,,,,,,,90.5,2.0,,,,,,
415,,feedback,,html-keyboard-response,415,593233,0.0-1.0-82.0-0.0-3.0-0.0,0,0,64747,,,,,,80.0,,,,,,,,,,,,,,,,,,,,,,,,,,,,,,,,91.5,1.0,,,,,,
416,,iti,,html-keyboard-response,416,594738,0.0-1.0-82.0-0.0-5.0,0,0,64747,,,,,,,,,,,,,,,,,,,,,,,,,,,,,,,,,,,,,,93.0,1.5,,,,,,
417,,choice,,html-keyboard-response,417,595238,0.0-1.0-83.0-0.0-0.0,0,0,64747,,495.0,,,68.0,81.0,82.0,2000.0,1000.0,0.0,2.0,0.0,20-60,,1.0,train,makeup compact,60.0,20.0,train2,makeup compact15,80.0,40.0,iron_train.jpg,05086681402.jpg,/static/Category_learning/Stimuli/Experimental_stims/train/iron_train.jpg,/static/Category_learning/Stimuli/Experimental_stims/makeup compact/05086681402.jpg,1.0,train,makeup compact,60.0,20.0,train2,makeup compact15,80.0,40.0,0.0,93.495,0.495,,,,,,
418,,confirmation,,html-keyboard-response,418,596248,0.0-1.0-83.0-0.0-1.0-0.0,0,0,64747,,,,,,81.0,,,,,,,,,,,,,,,,,,,,,,,,,,,,,,,,94.5,1.005,,,,,,
419,,isi,,html-keyboard-response,419,598256,0.0-1.0-83.0-0.0-2.0,0,0,64747,,,,,,,,,,,,,,,,,,,,,,,,,,,,,,,,,,,,,,96.5,2.0,,,,,,
420,,feedback,,html-keyboard-response,420,599264,0.0-1.0-83.0-0.0-3.0-0.0,0,0,64747,,,,,,81.0,,,,,,,,,,,,,,,,,,,,,,,,,,,,,,,,97.5,1.0,,,,,,
421,,iti,,html-keyboard-response,421,600271,0.0-1.0-83.0-0.0-5.0,0,0,64747,,,,,,,,,,,,,,,,,,,,,,,,,,,,,,,,,,,,,,98.5,1.0,,,,,,
422,,choice,,html-keyboard-response,422,600753,0.0-1.0-84.0-0.0-0.0,0,0,64747,,475.0,,,68.0,82.0,83.0,3500.0,1000.0,0.0,2.0,0.0,40-40,,,sofa,power strip,40.0,40.0,sofa4,power strip11,20.0,60.0,ALOVSEA15.jpg,41Bw7Tl1G7L._AA262_.jpg,/static/Category_learning/Stimuli/Experimental_stims/sofa/ALOVSEA15.jpg,/static/Category_learning/Stimuli/Experimental_stims/power strip/41Bw7Tl1G7L._AA262_.jpg,1.0,sofa,power strip,40.0,40.0,sofa4,power strip11,20.0,60.0,0.0,98.975,0.475,,,,,,
423,,confirmation,,html-keyboard-response,423,601784,0.0-1.0-84.0-0.0-1.0-0.0,0,0,64747,,,,,,82.0,,,,,,,,,,,,,,,,,,,,,,,,,,,,,,,,100.0,1.025,,,,,,
424,,isi,,html-keyboard-response,424,605291,0.0-1.0-84.0-0.0-2.0,0,0,64747,,,,,,,,,,,,,,,,,,,,,,,,,,,,,,,,,,,,,,103.5,3.5,,,,,,
425,,feedback,,html-keyboard-response,425,606298,0.0-1.0-84.0-0.0-3.0-0.0,0,0,64747,,,,,,82.0,,,,,,,,,,,,,,,,,,,,,,,,,,,,,,,,104.5,1.0,,,,,,
426,,iti,,html-keyboard-response,426,607305,0.0-1.0-84.0-0.0-5.0,0,0,64747,,,,,,,,,,,,,,,,,,,,,,,,,,,,,,,,,,,,,,105.5,1.0,,,,,,
427,,choice,,html-keyboard-response,427,607662,0.0-1.0-85.0-0.0-0.0,0,0,64747,,348.0,,,75.0,83.0,84.0,1500.0,1000.0,0.0,2.0,0.0,20-80,,0.0,hammer,bongo,20.0,80.0,hammer2,bongo3,0.0,100.0,hammer04.jpg,26390697.thl.jpg,/static/Category_learning/Stimuli/Experimental_stims/hammer/hammer04.jpg,/static/Category_learning/Stimuli/Experimental_stims/bongo/26390697.thl.jpg,0.0,bongo,hammer,80.0,20.0,bongo3,hammer2,100.0,0.0,0.0,105.848,0.348,,,,,,
428,,confirmation,,html-keyboard-response,428,608822,0.0-1.0-85.0-0.0-1.0-0.0,0,0,64747,,,,,,83.0,,,,,,,,,,,,,,,,,,,,,,,,,,,,,,,,107.0,1.152,,,,,,
429,,isi,,html-keyboard-response,429,610326,0.0-1.0-85.0-0.0-2.0,0,0,64747,,,,,,,,,,,,,,,,,,,,,,,,,,,,,,,,,,,,,,108.5,1.5,,,,,,
430,,feedback,,html-keyboard-response,430,611332,0.0-1.0-85.0-0.0-3.0-0.0,0,0,64747,,,,,,83.0,,,,,,,,,,,,,,,,,,,,,,,,,,,,,,,,109.5,1.0,,,,,,
431,,iti,,html-keyboard-response,431,612340,0.0-1.0-85.0-0.0-5.0,0,0,64747,,,,,,,,,,,,,,,,,,,,,,,,,,,,,,,,,,,,,,110.5,1.0,,,,,,
432,,choice,,html-keyboard-response,432,612914,0.0-1.0-86.0-0.0-0.0,0,0,64747,,564.0,,,75.0,84.0,85.0,1500.0,1000.0,0.0,2.0,0.0,40-60,,1.0,trumpet,power strip,60.0,40.0,trumpet10,power strip15,60.0,20.0,trumpet2.jpg,31oz6aGZN7L._AA262_.jpg,/static/Category_learning/Stimuli/Experimental_stims/trumpet/trumpet2.jpg,/static/Category_learning/Stimuli/Experimental_stims/power strip/31oz6aGZN7L._AA262_.jpg,0.0,power strip,trumpet,40.0,60.0,power strip15,trumpet10,20.0,60.0,0.0,111.064,0.564,,,,,,
433,,confirmation,,html-keyboard-response,433,613858,0.0-1.0-86.0-0.0-1.0-0.0,0,0,64747,,,,,,84.0,,,,,,,,,,,,,,,,,,,,,,,,,,,,,,,,112.0,0.936,,,,,,
434,,isi,,html-keyboard-response,434,615365,0.0-1.0-86.0-0.0-2.0,0,0,64747,,,,,,,,,,,,,,,,,,,,,,,,,,,,,,,,,,,,,,113.5,1.5,,,,,,
435,,feedback,,html-keyboard-response,435,616373,0.0-1.0-86.0-0.0-3.0-0.0,0,0,64747,,,,,,84.0,,,,,,,,,,,,,,,,,,,,,,,,,,,,,,,,114.5,1.0,,,,,,
436,,iti,,html-keyboard-response,436,617381,0.0-1.0-86.0-0.0-5.0,0,0,64747,,,,,,,,,,,,,,,,,,,,,,,,,,,,,,,,,,,,,,115.5,1.0,,,,,,
437,,choice,,html-keyboard-response,437,617946,0.0-1.0-87.0-0.0-0.0,0,0,64747,,557.0,,,75.0,85.0,86.0,1500.0,2000.0,0.0,2.0,1.0,40-40,1.0,,sofa,sofa,40.0,40.0,sofa15,sofa4,40.0,20.0,APEACHLOV.jpg,ALOVSEA15.jpg,/static/Category_learning/Stimuli/Experimental_stims/sofa/APEACHLOV.jpg,/static/Category_learning/Stimuli/Experimental_stims/sofa/ALOVSEA15.jpg,0.0,sofa,sofa,40.0,40.0,sofa4,sofa15,20.0,40.0,0.0,116.057,0.557,,,,,,
438,,confirmation,,html-keyboard-response,438,618896,0.0-1.0-87.0-0.0-1.0-0.0,0,0,64747,,,,,,85.0,,,,,,,,,,,,,,,,,,,,,,,,,,,,,,,,117.0,0.943,,,,,,
439,,isi,,html-keyboard-response,439,620402,0.0-1.0-87.0-0.0-2.0,0,0,64747,,,,,,,,,,,,,,,,,,,,,,,,,,,,,,,,,,,,,,118.5,1.5,,,,,,
440,,feedback,,html-keyboard-response,440,621408,0.0-1.0-87.0-0.0-3.0-0.0,0,0,64747,,,,,,85.0,,,,,,,,,,,,,,,,,,,,,,,,,,,,,,,,119.5,1.0,,,,,,
441,,iti,,html-keyboard-response,441,623415,0.0-1.0-87.0-0.0-5.0,0,0,64747,,,,,,,,,,,,,,,,,,,,,,,,,,,,,,,,,,,,,,121.5,2.0,,,,,,
442,,choice,,html-keyboard-response,442,623968,0.0-1.0-88.0-0.0-0.0,0,0,64747,,544.0,,,68.0,86.0,87.0,1500.0,1500.0,0.0,2.0,1.0,60-60,1.0,,train,train,60.0,60.0,train2,train15,80.0,40.0,iron_train.jpg,master-TD006.jpg,/static/Category_learning/Stimuli/Experimental_stims/train/iron_train.jpg,/static/Category_learning/Stimuli/Experimental_stims/train/master-TD006.jpg,1.0,train,train,60.0,60.0,train2,train15,80.0,40.0,0.0,122.044,0.544,,,,,,
443,,confirmation,,html-keyboard-response,443,624933,0.0-1.0-88.0-0.0-1.0-0.0,0,0,64747,,,,,,86.0,,,,,,,,,,,,,,,,,,,,,,,,,,,,,,,,123.0,0.956,,,,,,
444,,isi,,html-keyboard-response,444,626439,0.0-1.0-88.0-0.0-2.0,0,0,64747,,,,,,,,,,,,,,,,,,,,,,,,,,,,,,,,,,,,,,124.5,1.5,,,,,,
445,,feedback,,html-keyboard-response,445,627448,0.0-1.0-88.0-0.0-3.0-0.0,0,0,64747,,,,,,86.0,,,,,,,,,,,,,,,,,,,,,,,,,,,,,,,,125.5,1.0,,,,,,
446,,iti,,html-keyboard-response,446,628955,0.0-1.0-88.0-0.0-5.0,0,0,64747,,,,,,,,,,,,,,,,,,,,,,,,,,,,,,,,,,,,,,127.0,1.5,,,,,,
447,,choice,,html-keyboard-response,447,629754,0.0-1.0-89.0-0.0-0.0,0,0,64747,,791.0,,,75.0,87.0,88.0,1000.0,1500.0,0.0,2.0,0.0,20-20,,,key chain,motorcycle,20.0,20.0,key chain13,motorcycle14,0.0,20.0,Fancy_Liquid_Column_Shape_Key_Ring_with_Floater.jpg,motorcycle11.jpg,/static/Category_learning/Stimuli/Experimental_stims/key chain/Fancy_Liquid_Column_Shape_Key_Ring_with_Floater.jpg,/static/Category_learning/Stimuli/Experimental_stims/motorcycle/motorcycle11.jpg,0.0,motorcycle,key chain,20.0,20.0,motorcycle14,key chain13,20.0,0.0,0.0,127.791,0.791,,,,,,
448,,confirmation,,html-keyboard-response,448,630472,0.0-1.0-89.0-0.0-1.0-0.0,0,0,64747,,,,,,87.0,,,,,,,,,,,,,,,,,,,,,,,,,,,,,,,,128.5,0.709,,,,,,
449,,isi,,html-keyboard-response,449,631479,0.0-1.0-89.0-0.0-2.0,0,0,64747,,,,,,,,,,,,,,,,,,,,,,,,,,,,,,,,,,,,,,129.5,1.0,,,,,,
450,,feedback,,html-keyboard-response,450,632487,0.0-1.0-89.0-0.0-3.0-0.0,0,0,64747,,,,,,87.0,,,,,,,,,,,,,,,,,,,,,,,,,,,,,,,,130.5,1.0,,,,,,
451,,iti,,html-keyboard-response,451,633995,0.0-1.0-89.0-0.0-5.0,0,0,64747,,,,,,,,,,,,,,,,,,,,,,,,,,,,,,,,,,,,,,132.0,1.5,,,,,,
452,,choice,,html-keyboard-response,452,634569,0.0-1.0-90.0-0.0-0.0,0,0,64747,,567.0,,,68.0,88.0,89.0,2000.0,2000.0,0.0,2.0,0.0,40-80,,0.0,small table,fan,40.0,80.0,small table14,fan11,40.0,80.0,Awoodtable13.jpg,n_sf.jpg,/static/Category_learning/Stimuli/Experimental_stims/small table/Awoodtable13.jpg,/static/Category_learning/Stimuli/Experimental_stims/fan/n_sf.jpg,1.0,small table,fan,40.0,80.0,small table14,fan11,40.0,80.0,0.0,132.567,0.567,,,,,,
453,,confirmation,,html-keyboard-response,453,635511,0.0-1.0-90.0-0.0-1.0-0.0,0,0,64747,,,,,,88.0,,,,,,,,,,,,,,,,,,,,,,,,,,,,,,,,133.5,0.933,,,,,,
454,,isi,,html-keyboard-response,454,637519,0.0-1.0-90.0-0.0-2.0,0,0,64747,,,,,,,,,,,,,,,,,,,,,,,,,,,,,,,,,,,,,,135.5,2.0,,,,,,
455,,feedback,,html-keyboard-response,455,638525,0.0-1.0-90.0-0.0-3.0-0.0,0,0,64747,,,,,,88.0,,,,,,,,,,,,,,,,,,,,,,,,,,,,,,,,136.5,1.0,,,,,,
456,,iti,,html-keyboard-response,456,640533,0.0-1.0-90.0-0.0-5.0,0,0,64747,,,,,,,,,,,,,,,,,,,,,,,,,,,,,,,,,,,,,,138.5,2.0,,,,,,
457,,choice,,html-keyboard-response,457,641144,0.0-1.0-91.0-0.0-0.0,0,0,64747,,605.0,,,68.0,89.0,90.0,2000.0,3500.0,0.0,2.0,0.0,40-80,,1.0,baby carriage,patio lounge chair,80.0,40.0,baby carriage1,patio lounge chair6,100.0,40.0,babycarriage16.jpg,Lounge_Chair_with_Pillow.jpg,/static/Category_learning/Stimuli/Experimental_stims/baby carriage/babycarriage16.jpg,/static/Category_learning/Stimuli/Experimental_stims/patio lounge chair/Lounge_Chair_with_Pillow.jpg,1.0,baby carriage,patio lounge chair,80.0,40.0,baby carriage1,patio lounge chair6,100.0,40.0,0.0,139.105,0.605,,,,,,
458,,confirmation,,html-keyboard-response,458,642048,0.0-1.0-91.0-0.0-1.0-0.0,0,0,64747,,,,,,89.0,,,,,,,,,,,,,,,,,,,,,,,,,,,,,,,,140.0,0.895,,,,,,
459,,isi,,html-keyboard-response,459,644054,0.0-1.0-91.0-0.0-2.0,0,0,64747,,,,,,,,,,,,,,,,,,,,,,,,,,,,,,,,,,,,,,142.0,2.0,,,,,,
460,,feedback,,html-keyboard-response,460,645063,0.0-1.0-91.0-0.0-3.0-0.0,0,0,64747,,,,,,89.0,,,,,,,,,,,,,,,,,,,,,,,,,,,,,,,,143.0,1.0,,,,,,
461,,iti,,html-keyboard-response,461,648567,0.0-1.0-91.0-0.0-5.0,0,0,64747,,,,,,,,,,,,,,,,,,,,,,,,,,,,,,,,,,,,,,146.5,3.5,,,,,,
462,,choice,,html-keyboard-response,462,649044,0.0-1.0-92.0-0.0-0.0,0,0,64747,,471.0,,,68.0,90.0,91.0,1000.0,2000.0,0.0,2.0,0.0,40-80,,0.0,patio lounge chair,bowl,40.0,80.0,patio lounge chair10,bowl2,20.0,100.0,51831.jpg,AMIXBOWL2.jpg,/static/Category_learning/Stimuli/Experimental_stims/patio lounge chair/51831.jpg,/static/Category_learning/Stimuli/Experimental_stims/bowl/AMIXBOWL2.jpg,1.0,patio lounge chair,bowl,40.0,80.0,patio lounge chair10,bowl2,20.0,100.0,0.0,146.971,0.471,,,,,,
463,,confirmation,,html-keyboard-response,463,650082,0.0-1.0-92.0-0.0-1.0-0.0,0,0,64747,,,,,,90.0,,,,,,,,,,,,,,,,,,,,,,,,,,,,,,,,148.0,1.029,,,,,,
464,,isi,,html-keyboard-response,464,651091,0.0-1.0-92.0-0.0-2.0,0,0,64747,,,,,,,,,,,,,,,,,,,,,,,,,,,,,,,,,,,,,,149.0,1.0,,,,,,
465,,feedback,,html-keyboard-response,465,652099,0.0-1.0-92.0-0.0-3.0-0.0,0,0,64747,,,,,,90.0,,,,,,,,,,,,,,,,,,,,,,,,,,,,,,,,150.0,1.0,,,,,,
466,,iti,,html-keyboard-response,466,654106,0.0-1.0-92.0-0.0-5.0,0,0,64747,,,,,,,,,,,,,,,,,,,,,,,,,,,,,,,,,,,,,,152.0,2.0,,,,,,
467,,choice,,html-keyboard-response,467,654824,0.0-1.0-93.0-0.0-0.0,0,0,64747,,711.0,,,68.0,91.0,92.0,1500.0,1500.0,0.0,2.0,0.0,60-80,,0.0,tent,dresser,60.0,80.0,tent12,dresser10,40.0,60.0,31316-AZU_m.jpg,ADRESSE14.jpg,/static/Category_learning/Stimuli/Experimental_stims/tent/31316-AZU_m.jpg,/static/Category_learning/Stimuli/Experimental_stims/dresser/ADRESSE14.jpg,1.0,tent,dresser,60.0,80.0,tent12,dresser10,40.0,60.0,0.0,152.711,0.711,,,,,,
468,,confirmation,,html-keyboard-response,468,655623,0.0-1.0-93.0-0.0-1.0-0.0,0,0,64747,,,,,,91.0,,,,,,,,,,,,,,,,,,,,,,,,,,,,,,,,153.5,0.789,,,,,,
469,,isi,,html-keyboard-response,469,657127,0.0-1.0-93.0-0.0-2.0,0,0,64747,,,,,,,,,,,,,,,,,,,,,,,,,,,,,,,,,,,,,,155.0,1.5,,,,,,
470,,feedback,,html-keyboard-response,470,658131,0.0-1.0-93.0-0.0-3.0-0.0,0,0,64747,,,,,,91.0,,,,,,,,,,,,,,,,,,,,,,,,,,,,,,,,156.0,1.0,,,,,,
471,,iti,,html-keyboard-response,471,659637,0.0-1.0-93.0-0.0-5.0,0,0,64747,,,,,,,,,,,,,,,,,,,,,,,,,,,,,,,,,,,,,,157.5,1.5,,,,,,
472,,choice,,html-keyboard-response,472,660239,0.0-1.0-94.0-0.0-0.0,0,0,64747,,593.0,,,68.0,92.0,93.0,1000.0,1000.0,0.0,2.0,1.0,80-80,1.0,,baby carriage,baby carriage,80.0,80.0,baby carriage1,baby carriage9,100.0,100.0,babycarriage16.jpg,Antique baby Carriage 7.jpg,/static/Category_learning/Stimuli/Experimental_stims/baby carriage/babycarriage16.jpg,/static/Category_learning/Stimuli/Experimental_stims/baby carriage/Antique baby Carriage 7.jpg,1.0,baby carriage,baby carriage,80.0,80.0,baby carriage1,baby carriage9,100.0,100.0,0.0,158.093,0.593,,,,,,
473,,confirmation,,html-keyboard-response,473,661155,0.0-1.0-94.0-0.0-1.0-0.0,0,0,64747,,,,,,92.0,,,,,,,,,,,,,,,,,,,,,,,,,,,,,,,,159.0,0.907,,,,,,
474,,isi,,html-keyboard-response,474,662166,0.0-1.0-94.0-0.0-2.0,0,0,64747,,,,,,,,,,,,,,,,,,,,,,,,,,,,,,,,,,,,,,160.0,1.0,,,,,,
475,,feedback,,html-keyboard-response,475,663173,0.0-1.0-94.0-0.0-3.0-0.0,0,0,64747,,,,,,92.0,,,,,,,,,,,,,,,,,,,,,,,,,,,,,,,,161.0,1.0,,,,,,
476,,iti,,html-keyboard-response,476,664181,0.0-1.0-94.0-0.0-5.0,0,0,64747,,,,,,,,,,,,,,,,,,,,,,,,,,,,,,,,,,,,,,162.0,1.0,,,,,,
477,,choice,,html-keyboard-response,477,665459,0.0-1.0-95.0-0.0-0.0,0,0,64747,,1269.0,,,75.0,93.0,94.0,1500.0,1000.0,0.0,2.0,0.0,40-80,,0.0,necklace,fan,40.0,80.0,necklace5,fan9,60.0,80.0,necklascenew08.jpg,FT-40A.jpg,/static/Category_learning/Stimuli/Experimental_stims/necklace/necklascenew08.jpg,/static/Category_learning/Stimuli/Experimental_stims/fan/FT-40A.jpg,0.0,fan,necklace,80.0,40.0,fan9,necklace5,80.0,60.0,0.0,163.269,1.269,,,,,,
478,,confirmation,,html-keyboard-response,478,665699,0.0-1.0-95.0-0.0-1.0-0.0,0,0,64747,,,,,,93.0,,,,,,,,,,,,,,,,,,,,,,,,,,,,,,,,163.5,0.231,,,,,,
479,,isi,,html-keyboard-response,479,667207,0.0-1.0-95.0-0.0-2.0,0,0,64747,,,,,,,,,,,,,,,,,,,,,,,,,,,,,,,,,,,,,,165.0,1.5,,,,,,
480,,feedback,,html-keyboard-response,480,668215,0.0-1.0-95.0-0.0-3.0-0.0,0,0,64747,,,,,,93.0,,,,,,,,,,,,,,,,,,,,,,,,,,,,,,,,166.0,1.0,,,,,,
481,,iti,,html-keyboard-response,481,669223,0.0-1.0-95.0-0.0-5.0,0,0,64747,,,,,,,,,,,,,,,,,,,,,,,,,,,,,,,,,,,,,,167.0,1.0,,,,,,
482,,choice,,html-keyboard-response,482,669831,0.0-1.0-96.0-0.0-0.0,0,0,64747,,598.0,,,75.0,94.0,95.0,1000.0,1500.0,0.0,2.0,1.0,40-40,1.0,,small table,small table,40.0,40.0,small table14,small table2,40.0,60.0,Awoodtable13.jpg,Atable126.jpg,/static/Category_learning/Stimuli/Experimental_stims/small table/Awoodtable13.jpg,/static/Category_learning/Stimuli/Experimental_stims/small table/Atable126.jpg,0.0,small table,small table,40.0,40.0,small table2,small table14,60.0,40.0,0.0,167.598,0.598,,,,,,
483,,confirmation,,html-keyboard-response,483,670742,0.0-1.0-96.0-0.0-1.0-0.0,0,0,64747,,,,,,94.0,,,,,,,,,,,,,,,,,,,,,,,,,,,,,,,,168.5,0.902,,,,,,
484,,isi,,html-keyboard-response,484,671748,0.0-1.0-96.0-0.0-2.0,0,0,64747,,,,,,,,,,,,,,,,,,,,,,,,,,,,,,,,,,,,,,169.5,1.0,,,,,,
485,,feedback,,html-keyboard-response,485,672756,0.0-1.0-96.0-0.0-3.0-0.0,0,0,64747,,,,,,94.0,,,,,,,,,,,,,,,,,,,,,,,,,,,,,,,,170.5,1.0,,,,,,
486,,iti,,html-keyboard-response,486,674264,0.0-1.0-96.0-0.0-5.0,0,0,64747,,,,,,,,,,,,,,,,,,,,,,,,,,,,,,,,,,,,,,172.0,1.5,,,,,,
