,success,ttype,start_time,trial_type,trial_index,time_elapsed,internal_node_id,warning,missed_checkup,PID,view_history,rt,responses,repeat_instructions,key_press,index,trial_num,isi,iti,is_practice,block,old_trial,pair_type,within_category,high_cat_on_left,left_category,right_category,left_category_value,right_category_value,left_exemplar,right_exemplar,left_exemplar_value,right_exemplar_value,left_img,right_img,left_img_path,right_img_path,left_chosen,chosen_category,unchosen_category,chosen_category_value,unchosen_category_value,chosen_exemplar,unchosen_exemplar,chosen_exemplar_value,unchosen_exemplar_value,no_response,onset,duration,end_practice,total_bonus_tally,category,category_group_value,category_value_response,did_not_enter_response
0,True,full_screen,d06062022hr2113,fullscreen,0,2373,0.0-0.0,0,0,65,,,,,,,,,,,,,,,,,,,,,,,,,,,,,,,,,,,,,,,,,,,,,
1,,category_learning_instructions,,instructions,1,6722,0.0-1.0-0.0-0.0,0,0,65,"[{""page_index"":0,""viewing_time"":1874},{""page_index"":1,""viewing_time"":558},{""page_index"":2,""viewing_time"":353},{""page_index"":3,""viewing_time"":365},{""page_index"":4,""viewing_time"":389},{""page_index"":5,""viewing_time"":404},{""page_index"":6,""viewing_time"":404}]",4347.0,,,,,,,,,,,,,,,,,,,,,,,,,,,,,,,,,,,,,,,,,,,
2,,category_learning_comprehension_check,,survey-multi-choice,2,11518,0.0-1.0-0.0-1.0,0,0,65,,4791.0,"{""Q0"":""True"",""Q1"":""True"",""Q2"":""Stay the same"",""Q3"":""pointer finger for left and middle finger for right""}",0.0,,,,,,,,,,,,,,,,,,,,,,,,,,,,,,,,,,,,,,,,,
3,,,,html-keyboard-response,3,12981,0.0-1.0-1.0,0,0,65,,1460.0,,,50.0,,,,,,,,,,,,,,,,,,,,,,,,,,,,,,,,,,,,,,,,
4,,choice,,html-keyboard-response,4,13507,0.0-1.0-2.0-0.0-0.0,0,0,65,,523.0,,,50.0,0.0,0.0,1500.0,1000.0,1.0,0.0,0.0,20-80,,0.0,bagel,dumbbell,20.0,80.0,bagel1,dumbbell1,0.0,80.0,bagels_pumpernickel_large.jpg,31B64EN68AL._AA280_.jpg,/static/Category_learning/Stimuli/Practice_stims/bagel/bagels_pumpernickel_large.jpg,/static/Category_learning/Stimuli/Practice_stims/dumbbell/31B64EN68AL._AA280_.jpg,1.0,bagel,dumbbell,20.0,80.0,bagel1,dumbbell1,0.0,80.0,0.0,0.523,0.523,,,,,,
5,,confirmation,,html-keyboard-response,5,14489,0.0-1.0-2.0-0.0-1.0-0.0,0,0,65,,,,,,0.0,,,,,0.0,,,,,,,,,,,,,,,,,,,,,,,,,,,1.5,0.977,,,,,,
6,,isi,,html-keyboard-response,6,14592,0.0-1.0-2.0-0.0-2.0,0,0,65,,,,,,0.0,,,,,0.0,,,,,,,,,,,,,,,,,,,,,,,,,,,3.0,1.5,,,,,,
7,,feedback,,html-keyboard-response,7,15596,0.0-1.0-2.0-0.0-3.0-0.0,0,0,65,,,,,,0.0,,,,,0.0,,,,,,,,,,,,,,,,,,,,,,,,,,,4.0,1.0,,,,,,
8,,iti,,html-keyboard-response,8,15701,0.0-1.0-2.0-0.0-5.0,0,0,65,,,,,,0.0,,,,,0.0,,,,,,,,,,,,,,,,,,,,,,,,,,,5.0,1.0,,,,,,
9,,choice,,html-keyboard-response,9,15809,0.0-1.0-3.0-0.0-0.0,0,0,65,,105.0,,,50.0,1.0,1.0,3000.0,1500.0,1.0,0.0,0.0,20-40,,1.0,calculator,bagel,40.0,20.0,calculator2,bagel2,20.0,20.0,22829064.thl.jpg,bagels_cinnraisin_large.jpg,/static/Category_learning/Stimuli/Practice_stims/calculator/22829064.thl.jpg,/static/Category_learning/Stimuli/Practice_stims/bagel/bagels_cinnraisin_large.jpg,1.0,calculator,bagel,40.0,20.0,calculator2,bagel2,20.0,20.0,0.0,5.105,0.105,,,,,,
10,,confirmation,,html-keyboard-response,10,17207,0.0-1.0-3.0-0.0-1.0-0.0,0,0,65,,,,,,1.0,,,,,0.0,,,,,,,,,,,,,,,,,,,,,,,,,,,6.5,1.395,,,,,,
11,,isi,,html-keyboard-response,11,17311,0.0-1.0-3.0-0.0-2.0,0,0,65,,,,,,1.0,,,,,0.0,,,,,,,,,,,,,,,,,,,,,,,,,,,9.5,3.0,,,,,,
12,,feedback,,html-keyboard-response,12,18315,0.0-1.0-3.0-0.0-3.0-0.0,0,0,65,,,,,,1.0,,,,,0.0,,,,,,,,,,,,,,,,,,,,,,,,,,,10.5,1.0,,,,,,
13,,iti,,html-keyboard-response,13,18419,0.0-1.0-3.0-0.0-5.0,0,0,65,,,,,,1.0,,,,,0.0,,,,,,,,,,,,,,,,,,,,,,,,,,,12.0,1.5,,,,,,
14,,choice,,html-keyboard-response,14,18590,0.0-1.0-4.0-0.0-0.0,0,0,65,,168.0,,,50.0,2.0,2.0,2000.0,3000.0,1.0,0.0,0.0,60-80,,0.0,clock,dumbbell,60.0,80.0,clock2,dumbbell2,60.0,100.0,26373355.thl.jpg,31K8MR6TMBL._SS500_.jpg,/static/Category_learning/Stimuli/Practice_stims/clock/26373355.thl.jpg,/static/Category_learning/Stimuli/Practice_stims/dumbbell/31K8MR6TMBL._SS500_.jpg,1.0,clock,dumbbell,60.0,80.0,clock2,dumbbell2,60.0,100.0,0.0,12.168,0.168,,,,,,
15,,confirmation,,html-keyboard-response,15,19924,0.0-1.0-4.0-0.0-1.0-0.0,0,0,65,,,,,,2.0,,,,,0.0,,,,,,,,,,,,,,,,,,,,,,,,,,,13.5,1.332,,,,,,
16,,isi,,html-keyboard-response,16,20027,0.0-1.0-4.0-0.0-2.0,0,0,65,,,,,,2.0,,,,,0.0,,,,,,,,,,,,,,,,,,,,,,,,,,,15.5,2.0,,,,,,
17,,feedback,,html-keyboard-response,17,21030,0.0-1.0-4.0-0.0-3.0-0.0,0,0,65,,,,,,2.0,,,,,0.0,,,,,,,,,,,,,,,,,,,,,,,,,,,16.5,1.0,,,,,,
18,,iti,,html-keyboard-response,18,21137,0.0-1.0-4.0-0.0-5.0,0,0,65,,,,,,2.0,,,,,0.0,,,,,,,,,,,,,,,,,,,,,,,,,,,19.5,3.0,,,,,,
19,,choice,,html-keyboard-response,19,21295,0.0-1.0-5.0-0.0-0.0,0,0,65,,156.0,,,50.0,3.0,3.0,1000.0,2000.0,1.0,0.0,0.0,40-80,,0.0,calculator,clock,40.0,60.0,calculator1,clock1,40.0,40.0,22829184.thl.jpg,Aalarmclock2.jpg,/static/Category_learning/Stimuli/Practice_stims/calculator/22829184.thl.jpg,/static/Category_learning/Stimuli/Practice_stims/clock/Aalarmclock2.jpg,1.0,calculator,clock,40.0,60.0,calculator1,clock1,40.0,40.0,0.0,19.656,0.156,,,,,,
20,,confirmation,,html-keyboard-response,20,22642,0.0-1.0-5.0-0.0-1.0-0.0,0,0,65,,,,,,3.0,,,,,0.0,,,,,,,,,,,,,,,,,,,,,,,,,,,21.0,1.344,,,,,,
21,,isi,,html-keyboard-response,21,22745,0.0-1.0-5.0-0.0-2.0,0,0,65,,,,,,3.0,,,,,0.0,,,,,,,,,,,,,,,,,,,,,,,,,,,22.0,1.0,,,,,,
22,,feedback,,html-keyboard-response,22,23749,0.0-1.0-5.0-0.0-3.0-0.0,0,0,65,,,,,,3.0,,,,,0.0,,,,,,,,,,,,,,,,,,,,,,,,,,,23.0,1.0,,,,,,
23,,iti,,html-keyboard-response,23,23853,0.0-1.0-5.0-0.0-5.0,0,0,65,,,,,,3.0,,,,,0.0,,,,,,,,,,,,,,,,,,,,,,,,,,,25.0,2.0,,,,,,
24,,choice,,html-keyboard-response,24,23890,0.0-1.0-6.0-0.0-0.0,0,0,65,,35.0,,,50.0,4.0,4.0,2500.0,2500.0,1.0,0.0,0.0,20-60,,1.0,dumbbell,bagel,80.0,20.0,dumbbell3,bagel3,100.0,40.0,41K7QVRX50L._SS500_.jpg,photo-169.jpg,/static/Category_learning/Stimuli/Practice_stims/dumbbell/41K7QVRX50L._SS500_.jpg,/static/Category_learning/Stimuli/Practice_stims/bagel/photo-169.jpg,1.0,dumbbell,bagel,80.0,20.0,dumbbell3,bagel3,100.0,40.0,0.0,25.035,0.035,1.0,,,,,
25,,confirmation,,html-keyboard-response,25,25357,0.0-1.0-6.0-0.0-1.0-0.0,0,0,65,,,,,,4.0,,,,,0.0,,,,,,,,,,,,,,,,,,,,,,,,,,,26.5,1.465,,,,,,
26,,isi,,html-keyboard-response,26,25459,0.0-1.0-6.0-0.0-2.0,0,0,65,,,,,,4.0,,,,,0.0,,,,,,,,,,,,,,,,,,,,,,,,,,,29.0,2.5,,,,,,
27,,feedback,,html-keyboard-response,27,26463,0.0-1.0-6.0-0.0-3.0-0.0,0,0,65,,,,,,4.0,,,,,0.0,,,,,,,,,,,,,,,,,,,,,,,,,,,30.0,1.0,,,,,,
28,,iti,,html-keyboard-response,28,26567,0.0-1.0-6.0-0.0-5.0,0,0,65,,,,,,4.0,,,,,0.0,,,,,,,,,,,,,,,,,,,,,,,,,,,32.5,2.5,,,,,,
29,,practice_over,,html-keyboard-response,29,26627,0.0-1.0-6.0-0.0-6.0-0.0,0,0,65,,58.0,,,50.0,4.0,,,,,,,,,,,,,,,,,,,,,,,,,,,,,,,,,,,,,,,
30,,start_run,,html-keyboard-response,30,29803,0.0-1.0-6.0-0.0-6.0-1.0,0,0,65,,3175.0,,,84.0,,,,,,,,,,,,,,,,,,,,,,,,,,,,,,,,,,,,,,,,
31,,choice,,html-keyboard-response,31,30330,0.0-1.0-7.0-0.0-0.0,0,0,65,,525.0,,,50.0,5.0,305.0,3500.0,1000.0,0.0,6.0,0.0,20-60,,1.0,key chain,vase,60.0,20.0,key chain5,vase14,40.0,0.0,keychain-metal-logo.jpg,Avase119.jpg,/static/Category_learning/Stimuli/Experimental_stims/key chain/keychain-metal-logo.jpg,/static/Category_learning/Stimuli/Experimental_stims/vase/Avase119.jpg,1.0,key chain,vase,60.0,20.0,key chain5,vase14,40.0,0.0,0.0,0.525,0.525,,,,,,
32,,confirmation,,html-keyboard-response,32,31308,0.0-1.0-7.0-0.0-1.0-0.0,0,0,65,,,,,,5.0,,,,,6.0,,,,,,,,,,,,,,,,,,,,,,,,,,,1.5,0.975,,,,,,
33,,isi,,html-keyboard-response,33,31409,0.0-1.0-7.0-0.0-2.0,0,0,65,,,,,,5.0,,,,,6.0,,,,,,,,,,,,,,,,,,,,,,,,,,,5.0,3.5,,,,,,
34,,feedback,,html-keyboard-response,34,32413,0.0-1.0-7.0-0.0-3.0-0.0,0,0,65,,,,,,5.0,,,,,6.0,,,,,,,,,,,,,,,,,,,,,,,,,,,6.0,1.0,,,,,,
35,,iti,,html-keyboard-response,35,32517,0.0-1.0-7.0-0.0-5.0,0,0,65,,,,,,5.0,,,,,6.0,,,,,,,,,,,,,,,,,,,,,,,,,,,7.0,1.0,,,,,,
36,,choice,,html-keyboard-response,36,32551,0.0-1.0-8.0-0.0-0.0,0,0,65,,32.0,,,50.0,6.0,306.0,1000.0,3500.0,0.0,6.0,0.0,40-60,,0.0,door knob,license plate,40.0,60.0,door knob4,license plate1,40.0,80.0,chrome scroll latch handle.jpg,il-423-3784.jpg,/static/Category_learning/Stimuli/Experimental_stims/door knob/chrome scroll latch handle.jpg,/static/Category_learning/Stimuli/Experimental_stims/license plate/il-423-3784.jpg,1.0,door knob,license plate,40.0,60.0,door knob4,license plate1,40.0,80.0,0.0,7.032,0.032,,,,,,
37,,confirmation,,html-keyboard-response,37,34021,0.0-1.0-8.0-0.0-1.0-0.0,0,0,65,,,,,,6.0,,,,,6.0,,,,,,,,,,,,,,,,,,,,,,,,,,,8.5,1.468,,,,,,
38,,isi,,html-keyboard-response,38,34126,0.0-1.0-8.0-0.0-2.0,0,0,65,,,,,,6.0,,,,,6.0,,,,,,,,,,,,,,,,,,,,,,,,,,,9.5,1.0,,,,,,
39,,feedback,,html-keyboard-response,39,35130,0.0-1.0-8.0-0.0-3.0-0.0,0,0,65,,,,,,6.0,,,,,6.0,,,,,,,,,,,,,,,,,,,,,,,,,,,10.5,1.0,,,,,,
40,,iti,,html-keyboard-response,40,35234,0.0-1.0-8.0-0.0-5.0,0,0,65,,,,,,6.0,,,,,6.0,,,,,,,,,,,,,,,,,,,,,,,,,,,14.0,3.5,,,,,,
41,,choice,,html-keyboard-response,41,35555,0.0-1.0-9.0-0.0-0.0,0,0,65,,319.0,,,50.0,7.0,307.0,1000.0,2000.0,0.0,6.0,0.0,40-80,,1.0,necklace,baby carriage,80.0,40.0,necklace5,baby carriage10,80.0,20.0,necklascenew08.jpg,peg_perego_uno_blu.jpg,/static/Category_learning/Stimuli/Experimental_stims/necklace/necklascenew08.jpg,/static/Category_learning/Stimuli/Experimental_stims/baby carriage/peg_perego_uno_blu.jpg,1.0,necklace,baby carriage,80.0,40.0,necklace5,baby carriage10,80.0,20.0,0.0,14.319,0.319,,,,,,
42,,confirmation,,html-keyboard-response,42,36740,0.0-1.0-9.0-0.0-1.0-0.0,0,0,65,,,,,,7.0,,,,,6.0,,,,,,,,,,,,,,,,,,,,,,,,,,,15.5,1.181,,,,,,
43,,isi,,html-keyboard-response,43,36842,0.0-1.0-9.0-0.0-2.0,0,0,65,,,,,,7.0,,,,,6.0,,,,,,,,,,,,,,,,,,,,,,,,,,,16.5,1.0,,,,,,
44,,feedback,,html-keyboard-response,44,37846,0.0-1.0-9.0-0.0-3.0-0.0,0,0,65,,,,,,7.0,,,,,6.0,,,,,,,,,,,,,,,,,,,,,,,,,,,17.5,1.0,,,,,,
45,,iti,,html-keyboard-response,45,37950,0.0-1.0-9.0-0.0-5.0,0,0,65,,,,,,7.0,,,,,6.0,,,,,,,,,,,,,,,,,,,,,,,,,,,19.5,2.0,,,,,,
46,,choice,,html-keyboard-response,46,38206,0.0-1.0-10.0-0.0-0.0,0,0,65,,253.0,,,50.0,8.0,308.0,1500.0,1500.0,0.0,6.0,0.0,20-80,,1.0,nail polish,trumpet,80.0,20.0,nail polish12,trumpet13,80.0,20.0,laquerdUP.jpg,JUPITER+JTR1600GS.jpg,/static/Category_learning/Stimuli/Experimental_stims/nail polish/laquerdUP.jpg,/static/Category_learning/Stimuli/Experimental_stims/trumpet/JUPITER+JTR1600GS.jpg,1.0,nail polish,trumpet,80.0,20.0,nail polish12,trumpet13,80.0,20.0,0.0,19.753,0.253,,,,,,
47,,confirmation,,html-keyboard-response,47,39456,0.0-1.0-10.0-0.0-1.0-0.0,0,0,65,,,,,,8.0,,,,,6.0,,,,,,,,,,,,,,,,,,,,,,,,,,,21.0,1.247,,,,,,
48,,isi,,html-keyboard-response,48,39559,0.0-1.0-10.0-0.0-2.0,0,0,65,,,,,,8.0,,,,,6.0,,,,,,,,,,,,,,,,,,,,,,,,,,,22.5,1.5,,,,,,
49,,feedback,,html-keyboard-response,49,40562,0.0-1.0-10.0-0.0-3.0-0.0,0,0,65,,,,,,8.0,,,,,6.0,,,,,,,,,,,,,,,,,,,,,,,,,,,23.5,1.0,,,,,,
50,,iti,,html-keyboard-response,50,40664,0.0-1.0-10.0-0.0-5.0,0,0,65,,,,,,8.0,,,,,6.0,,,,,,,,,,,,,,,,,,,,,,,,,,,25.0,1.5,,,,,,
51,,choice,,html-keyboard-response,51,41003,0.0-1.0-11.0-0.0-0.0,0,0,65,,337.0,,,50.0,9.0,309.0,1000.0,1000.0,0.0,6.0,0.0,20-80,,1.0,pen,train,80.0,20.0,pen1,train12,60.0,0.0,pen09.jpg,02565 ride on train.jpg,/static/Category_learning/Stimuli/Experimental_stims/pen/pen09.jpg,/static/Category_learning/Stimuli/Experimental_stims/train/02565 ride on train.jpg,1.0,pen,train,80.0,20.0,pen1,train12,60.0,0.0,0.0,25.337,0.337,,,,,,
52,,confirmation,,html-keyboard-response,52,42169,0.0-1.0-11.0-0.0-1.0-0.0,0,0,65,,,,,,9.0,,,,,6.0,,,,,,,,,,,,,,,,,,,,,,,,,,,26.5,1.163,,,,,,
53,,isi,,html-keyboard-response,53,42271,0.0-1.0-11.0-0.0-2.0,0,0,65,,,,,,9.0,,,,,6.0,,,,,,,,,,,,,,,,,,,,,,,,,,,27.5,1.0,,,,,,
54,,feedback,,html-keyboard-response,54,43275,0.0-1.0-11.0-0.0-3.0-0.0,0,0,65,,,,,,9.0,,,,,6.0,,,,,,,,,,,,,,,,,,,,,,,,,,,28.5,1.0,,,,,,
55,,iti,,html-keyboard-response,55,43379,0.0-1.0-11.0-0.0-5.0,0,0,65,,,,,,9.0,,,,,6.0,,,,,,,,,,,,,,,,,,,,,,,,,,,29.5,1.0,,,,,,
56,,choice,,html-keyboard-response,56,43797,0.0-1.0-12.0-0.0-0.0,0,0,65,,415.0,,,50.0,10.0,310.0,3000.0,1000.0,0.0,6.0,0.0,20-80,,0.0,watch,necklace,20.0,80.0,watch10,necklace11,0.0,100.0,HEU0102124_zoom.jpg,necklascenew06.jpg,/static/Category_learning/Stimuli/Experimental_stims/watch/HEU0102124_zoom.jpg,/static/Category_learning/Stimuli/Experimental_stims/necklace/necklascenew06.jpg,1.0,watch,necklace,20.0,80.0,watch10,necklace11,0.0,100.0,0.0,29.915,0.415,,,,,,
57,,confirmation,,html-keyboard-response,57,44884,0.0-1.0-12.0-0.0-1.0-0.0,0,0,65,,,,,,10.0,,,,,6.0,,,,,,,,,,,,,,,,,,,,,,,,,,,31.0,1.085,,,,,,
58,,isi,,html-keyboard-response,58,44989,0.0-1.0-12.0-0.0-2.0,0,0,65,,,,,,10.0,,,,,6.0,,,,,,,,,,,,,,,,,,,,,,,,,,,34.0,3.0,,,,,,
59,,feedback,,html-keyboard-response,59,45992,0.0-1.0-12.0-0.0-3.0-0.0,0,0,65,,,,,,10.0,,,,,6.0,,,,,,,,,,,,,,,,,,,,,,,,,,,35.0,1.0,,,,,,
60,,iti,,html-keyboard-response,60,46094,0.0-1.0-12.0-0.0-5.0,0,0,65,,,,,,10.0,,,,,6.0,,,,,,,,,,,,,,,,,,,,,,,,,,,36.0,1.0,,,,,,
61,,choice,,html-keyboard-response,61,46807,0.0-1.0-13.0-0.0-0.0,0,0,65,,710.0,,,50.0,11.0,311.0,1000.0,1500.0,0.0,6.0,0.0,20-80,,0.0,stool,power strip,20.0,80.0,stool2,power strip15,40.0,100.0,ASTOOL46.jpg,31oz6aGZN7L._AA262_.jpg,/static/Category_learning/Stimuli/Experimental_stims/stool/ASTOOL46.jpg,/static/Category_learning/Stimuli/Experimental_stims/power strip/31oz6aGZN7L._AA262_.jpg,1.0,stool,power strip,20.0,80.0,stool2,power strip15,40.0,100.0,0.0,36.71,0.71,,,,,,
62,,confirmation,,html-keyboard-response,62,47601,0.0-1.0-13.0-0.0-1.0-0.0,0,0,65,,,,,,11.0,,,,,6.0,,,,,,,,,,,,,,,,,,,,,,,,,,,37.5,0.79,,,,,,
63,,isi,,html-keyboard-response,63,47704,0.0-1.0-13.0-0.0-2.0,0,0,65,,,,,,11.0,,,,,6.0,,,,,,,,,,,,,,,,,,,,,,,,,,,38.5,1.0,,,,,,
64,,feedback,,html-keyboard-response,64,48708,0.0-1.0-13.0-0.0-3.0-0.0,0,0,65,,,,,,11.0,,,,,6.0,,,,,,,,,,,,,,,,,,,,,,,,,,,39.5,1.0,,,,,,
65,,iti,,html-keyboard-response,65,48811,0.0-1.0-13.0-0.0-5.0,0,0,65,,,,,,11.0,,,,,6.0,,,,,,,,,,,,,,,,,,,,,,,,,,,41.0,1.5,,,,,,
66,,choice,,html-keyboard-response,66,48872,0.0-1.0-14.0-0.0-0.0,0,0,65,,59.0,,,50.0,12.0,312.0,3000.0,3000.0,0.0,6.0,0.0,60-80,,1.0,seashell,lipstick,80.0,60.0,seashell5,lipstick2,80.0,40.0,429345994_b87bb03366.jpg,11uuoPMY+OL._SS500_.jpg,/static/Category_learning/Stimuli/Experimental_stims/seashell/429345994_b87bb03366.jpg,/static/Category_learning/Stimuli/Experimental_stims/lipstick/11uuoPMY+OL._SS500_.jpg,1.0,seashell,lipstick,80.0,60.0,seashell5,lipstick2,80.0,40.0,0.0,41.059,0.059,,,,,,
67,,confirmation,,html-keyboard-response,67,50317,0.0-1.0-14.0-0.0-1.0-0.0,0,0,65,,,,,,12.0,,,,,6.0,,,,,,,,,,,,,,,,,,,,,,,,,,,42.5,1.441,,,,,,
68,,isi,,html-keyboard-response,68,50420,0.0-1.0-14.0-0.0-2.0,0,0,65,,,,,,12.0,,,,,6.0,,,,,,,,,,,,,,,,,,,,,,,,,,,45.5,3.0,,,,,,
69,,feedback,,html-keyboard-response,69,51424,0.0-1.0-14.0-0.0-3.0-0.0,0,0,65,,,,,,12.0,,,,,6.0,,,,,,,,,,,,,,,,,,,,,,,,,,,46.5,1.0,,,,,,
70,,iti,,html-keyboard-response,70,51527,0.0-1.0-14.0-0.0-5.0,0,0,65,,,,,,12.0,,,,,6.0,,,,,,,,,,,,,,,,,,,,,,,,,,,49.5,3.0,,,,,,
71,,choice,,html-keyboard-response,71,51862,0.0-1.0-15.0-0.0-0.0,0,0,65,,332.0,,,50.0,13.0,313.0,3000.0,1000.0,0.0,6.0,0.0,40-40,,,bowl,flashlight,40.0,40.0,bowl8,flashlight15,20.0,40.0,ASLVBOWL.jpg,freeplay-xray-wind-up-led-flashlight.jpg,/static/Category_learning/Stimuli/Experimental_stims/bowl/ASLVBOWL.jpg,/static/Category_learning/Stimuli/Experimental_stims/flashlight/freeplay-xray-wind-up-led-flashlight.jpg,1.0,bowl,flashlight,40.0,40.0,bowl8,flashlight15,20.0,40.0,0.0,49.832,0.332,,,,,,
72,,confirmation,,html-keyboard-response,72,53033,0.0-1.0-15.0-0.0-1.0-0.0,0,0,65,,,,,,13.0,,,,,6.0,,,,,,,,,,,,,,,,,,,,,,,,,,,51.0,1.168,,,,,,
73,,isi,,html-keyboard-response,73,53137,0.0-1.0-15.0-0.0-2.0,0,0,65,,,,,,13.0,,,,,6.0,,,,,,,,,,,,,,,,,,,,,,,,,,,54.0,3.0,,,,,,
74,,feedback,,html-keyboard-response,74,54140,0.0-1.0-15.0-0.0-3.0-0.0,0,0,65,,,,,,13.0,,,,,6.0,,,,,,,,,,,,,,,,,,,,,,,,,,,55.0,1.0,,,,,,
75,,iti,,html-keyboard-response,75,54243,0.0-1.0-15.0-0.0-5.0,0,0,65,,,,,,13.0,,,,,6.0,,,,,,,,,,,,,,,,,,,,,,,,,,,56.0,1.0,,,,,,
76,,choice,,html-keyboard-response,76,54328,0.0-1.0-16.0-0.0-0.0,0,0,65,,82.0,,,50.0,14.0,314.0,3500.0,1000.0,0.0,6.0,0.0,40-40,,,fan,bench,40.0,40.0,fan10,bench15,60.0,60.0,n_sf_1666.jpg,Abench12.jpg,/static/Category_learning/Stimuli/Experimental_stims/fan/n_sf_1666.jpg,/static/Category_learning/Stimuli/Experimental_stims/bench/Abench12.jpg,1.0,fan,bench,40.0,40.0,fan10,bench15,60.0,60.0,0.0,56.082,0.082,,,,,,
77,,confirmation,,html-keyboard-response,77,55748,0.0-1.0-16.0-0.0-1.0-0.0,0,0,65,,,,,,14.0,,,,,6.0,,,,,,,,,,,,,,,,,,,,,,,,,,,57.5,1.418,,,,,,
78,,isi,,html-keyboard-response,78,55851,0.0-1.0-16.0-0.0-2.0,0,0,65,,,,,,14.0,,,,,6.0,,,,,,,,,,,,,,,,,,,,,,,,,,,61.0,3.5,,,,,,
79,,feedback,,html-keyboard-response,79,56854,0.0-1.0-16.0-0.0-3.0-0.0,0,0,65,,,,,,14.0,,,,,6.0,,,,,,,,,,,,,,,,,,,,,,,,,,,62.0,1.0,,,,,,
80,,iti,,html-keyboard-response,80,56956,0.0-1.0-16.0-0.0-5.0,0,0,65,,,,,,14.0,,,,,6.0,,,,,,,,,,,,,,,,,,,,,,,,,,,63.0,1.0,,,,,,
81,,choice,,html-keyboard-response,81,57065,0.0-1.0-17.0-0.0-0.0,0,0,65,,106.0,,,50.0,15.0,315.0,3000.0,3500.0,0.0,6.0,1.0,40-80,0.0,,necklace,door knob,80.0,40.0,necklace5,door knob4,80.0,40.0,necklascenew08.jpg,chrome scroll latch handle.jpg,/static/Category_learning/Stimuli/Experimental_stims/necklace/necklascenew08.jpg,/static/Category_learning/Stimuli/Experimental_stims/door knob/chrome scroll latch handle.jpg,1.0,necklace,door knob,80.0,40.0,necklace5,door knob4,80.0,40.0,0.0,63.106,0.106,,,,,,
82,,confirmation,,html-keyboard-response,82,58465,0.0-1.0-17.0-0.0-1.0-0.0,0,0,65,,,,,,15.0,,,,,6.0,,,,,,,,,,,,,,,,,,,,,,,,,,,64.5,1.394,,,,,,
83,,isi,,html-keyboard-response,83,58567,0.0-1.0-17.0-0.0-2.0,0,0,65,,,,,,15.0,,,,,6.0,,,,,,,,,,,,,,,,,,,,,,,,,,,67.5,3.0,,,,,,
84,,feedback,,html-keyboard-response,84,59571,0.0-1.0-17.0-0.0-3.0-0.0,0,0,65,,,,,,15.0,,,,,6.0,,,,,,,,,,,,,,,,,,,,,,,,,,,68.5,1.0,,,,,,
85,,iti,,html-keyboard-response,85,59675,0.0-1.0-17.0-0.0-5.0,0,0,65,,,,,,15.0,,,,,6.0,,,,,,,,,,,,,,,,,,,,,,,,,,,72.0,3.5,,,,,,
86,,choice,,html-keyboard-response,86,60104,0.0-1.0-18.0-0.0-0.0,0,0,65,,426.0,,,50.0,16.0,316.0,1000.0,1000.0,0.0,6.0,0.0,20-40,,1.0,dresser,watch,40.0,20.0,dresser13,watch13,60.0,0.0,ADRESSE70.jpg,RS_3104_lrg.jpg,/static/Category_learning/Stimuli/Experimental_stims/dresser/ADRESSE70.jpg,/static/Category_learning/Stimuli/Experimental_stims/watch/RS_3104_lrg.jpg,1.0,dresser,watch,40.0,20.0,dresser13,watch13,60.0,0.0,0.0,72.426,0.426,,,,,,
87,,confirmation,,html-keyboard-response,87,61180,0.0-1.0-18.0-0.0-1.0-0.0,0,0,65,,,,,,16.0,,,,,6.0,,,,,,,,,,,,,,,,,,,,,,,,,,,73.5,1.074,,,,,,
88,,isi,,html-keyboard-response,88,61282,0.0-1.0-18.0-0.0-2.0,0,0,65,,,,,,16.0,,,,,6.0,,,,,,,,,,,,,,,,,,,,,,,,,,,74.5,1.0,,,,,,
89,,feedback,,html-keyboard-response,89,62284,0.0-1.0-18.0-0.0-3.0-0.0,0,0,65,,,,,,16.0,,,,,6.0,,,,,,,,,,,,,,,,,,,,,,,,,,,75.5,1.0,,,,,,
90,,iti,,html-keyboard-response,90,62388,0.0-1.0-18.0-0.0-5.0,0,0,65,,,,,,16.0,,,,,6.0,,,,,,,,,,,,,,,,,,,,,,,,,,,76.5,1.0,,,,,,
91,,choice,,html-keyboard-response,91,63076,0.0-1.0-19.0-0.0-0.0,0,0,65,,686.0,,,50.0,17.0,317.0,2000.0,1000.0,0.0,6.0,1.0,20-40,0.0,,bowl,watch,40.0,20.0,bowl8,watch10,20.0,0.0,ASLVBOWL.jpg,HEU0102124_zoom.jpg,/static/Category_learning/Stimuli/Experimental_stims/bowl/ASLVBOWL.jpg,/static/Category_learning/Stimuli/Experimental_stims/watch/HEU0102124_zoom.jpg,1.0,bowl,watch,40.0,20.0,bowl8,watch10,20.0,0.0,0.0,77.186,0.686,,,,,,
92,,confirmation,,html-keyboard-response,92,63893,0.0-1.0-19.0-0.0-1.0-0.0,0,0,65,,,,,,17.0,,,,,6.0,,,,,,,,,,,,,,,,,,,,,,,,,,,78.0,0.814,,,,,,
93,,isi,,html-keyboard-response,93,63996,0.0-1.0-19.0-0.0-2.0,0,0,65,,,,,,17.0,,,,,6.0,,,,,,,,,,,,,,,,,,,,,,,,,,,80.0,2.0,,,,,,
94,,feedback,,html-keyboard-response,94,64999,0.0-1.0-19.0-0.0-3.0-0.0,0,0,65,,,,,,17.0,,,,,6.0,,,,,,,,,,,,,,,,,,,,,,,,,,,81.0,1.0,,,,,,
95,,iti,,html-keyboard-response,95,65102,0.0-1.0-19.0-0.0-5.0,0,0,65,,,,,,17.0,,,,,6.0,,,,,,,,,,,,,,,,,,,,,,,,,,,82.0,1.0,,,,,,
96,,choice,,html-keyboard-response,96,65350,0.0-1.0-20.0-0.0-0.0,0,0,65,,245.0,,,50.0,18.0,318.0,1000.0,1000.0,0.0,6.0,0.0,20-60,,0.0,telescope,license plate,20.0,60.0,telescope9,license plate4,40.0,40.0,13TELESTAND.jpg,ca-2flt842.jpg,/static/Category_learning/Stimuli/Experimental_stims/telescope/13TELESTAND.jpg,/static/Category_learning/Stimuli/Experimental_stims/license plate/ca-2flt842.jpg,1.0,telescope,license plate,20.0,60.0,telescope9,license plate4,40.0,40.0,0.0,82.245,0.245,,,,,,
97,,confirmation,,html-keyboard-response,97,66610,0.0-1.0-20.0-0.0-1.0-0.0,0,0,65,,,,,,18.0,,,,,6.0,,,,,,,,,,,,,,,,,,,,,,,,,,,83.5,1.255,,,,,,
98,,isi,,html-keyboard-response,98,66713,0.0-1.0-20.0-0.0-2.0,0,0,65,,,,,,18.0,,,,,6.0,,,,,,,,,,,,,,,,,,,,,,,,,,,84.5,1.0,,,,,,
99,,feedback,,html-keyboard-response,99,67717,0.0-1.0-20.0-0.0-3.0-0.0,0,0,65,,,,,,18.0,,,,,6.0,,,,,,,,,,,,,,,,,,,,,,,,,,,85.5,1.0,,,,,,
100,,iti,,html-keyboard-response,100,67820,0.0-1.0-20.0-0.0-5.0,0,0,65,,,,,,18.0,,,,,6.0,,,,,,,,,,,,,,,,,,,,,,,,,,,86.5,1.0,,,,,,
101,,choice,,html-keyboard-response,101,67915,0.0-1.0-21.0-0.0-0.0,0,0,65,,92.0,,,50.0,19.0,319.0,2000.0,3000.0,0.0,6.0,1.0,20-40,0.0,,fan,stool,40.0,20.0,fan10,stool2,60.0,40.0,n_sf_1666.jpg,ASTOOL46.jpg,/static/Category_learning/Stimuli/Experimental_stims/fan/n_sf_1666.jpg,/static/Category_learning/Stimuli/Experimental_stims/stool/ASTOOL46.jpg,1.0,fan,stool,40.0,20.0,fan10,stool2,60.0,40.0,0.0,86.592,0.092,,,,,,
102,,confirmation,,html-keyboard-response,102,69327,0.0-1.0-21.0-0.0-1.0-0.0,0,0,65,,,,,,19.0,,,,,6.0,,,,,,,,,,,,,,,,,,,,,,,,,,,88.0,1.408,,,,,,
103,,isi,,html-keyboard-response,103,69431,0.0-1.0-21.0-0.0-2.0,0,0,65,,,,,,19.0,,,,,6.0,,,,,,,,,,,,,,,,,,,,,,,,,,,90.0,2.0,,,,,,
104,,feedback,,html-keyboard-response,104,70435,0.0-1.0-21.0-0.0-3.0-0.0,0,0,65,,,,,,19.0,,,,,6.0,,,,,,,,,,,,,,,,,,,,,,,,,,,91.0,1.0,,,,,,
105,,iti,,html-keyboard-response,105,70537,0.0-1.0-21.0-0.0-5.0,0,0,65,,,,,,19.0,,,,,6.0,,,,,,,,,,,,,,,,,,,,,,,,,,,94.0,3.0,,,,,,
106,,choice,,html-keyboard-response,106,70682,0.0-1.0-22.0-0.0-0.0,0,0,65,,143.0,,,50.0,20.0,320.0,1000.0,1000.0,0.0,6.0,0.0,40-80,,1.0,power strip,door knob,80.0,40.0,power strip12,door knob6,60.0,20.0,41CXESEH1TL._AA262_.jpg,30fdcb17-b0fd-4f26-8cd8-11adde46fb79_4.jpg,/static/Category_learning/Stimuli/Experimental_stims/power strip/41CXESEH1TL._AA262_.jpg,/static/Category_learning/Stimuli/Experimental_stims/door knob/30fdcb17-b0fd-4f26-8cd8-11adde46fb79_4.jpg,1.0,power strip,door knob,80.0,40.0,power strip12,door knob6,60.0,20.0,0.0,94.143,0.143,,,,,,
107,,confirmation,,html-keyboard-response,107,72042,0.0-1.0-22.0-0.0-1.0-0.0,0,0,65,,,,,,20.0,,,,,6.0,,,,,,,,,,,,,,,,,,,,,,,,,,,95.5,1.357,,,,,,
108,,isi,,html-keyboard-response,108,72144,0.0-1.0-22.0-0.0-2.0,0,0,65,,,,,,20.0,,,,,6.0,,,,,,,,,,,,,,,,,,,,,,,,,,,96.5,1.0,,,,,,
109,,feedback,,html-keyboard-response,109,73147,0.0-1.0-22.0-0.0-3.0-0.0,0,0,65,,,,,,20.0,,,,,6.0,,,,,,,,,,,,,,,,,,,,,,,,,,,97.5,1.0,,,,,,
110,,iti,,html-keyboard-response,110,73251,0.0-1.0-22.0-0.0-5.0,0,0,65,,,,,,20.0,,,,,6.0,,,,,,,,,,,,,,,,,,,,,,,,,,,98.5,1.0,,,,,,
111,,choice,,html-keyboard-response,111,73394,0.0-1.0-23.0-0.0-0.0,0,0,65,,139.0,,,50.0,21.0,321.0,2000.0,1000.0,0.0,6.0,1.0,20-80,0.0,,telescope,nail polish,20.0,80.0,telescope9,nail polish12,40.0,80.0,13TELESTAND.jpg,laquerdUP.jpg,/static/Category_learning/Stimuli/Experimental_stims/telescope/13TELESTAND.jpg,/static/Category_learning/Stimuli/Experimental_stims/nail polish/laquerdUP.jpg,1.0,telescope,nail polish,20.0,80.0,telescope9,nail polish12,40.0,80.0,0.0,98.639,0.139,,,,,,
112,,confirmation,,html-keyboard-response,112,74759,0.0-1.0-23.0-0.0-1.0-0.0,0,0,65,,,,,,21.0,,,,,6.0,,,,,,,,,,,,,,,,,,,,,,,,,,,100.0,1.361,,,,,,
113,,isi,,html-keyboard-response,113,74861,0.0-1.0-23.0-0.0-2.0,0,0,65,,,,,,21.0,,,,,6.0,,,,,,,,,,,,,,,,,,,,,,,,,,,102.0,2.0,,,,,,
114,,feedback,,html-keyboard-response,114,75864,0.0-1.0-23.0-0.0-3.0-0.0,0,0,65,,,,,,21.0,,,,,6.0,,,,,,,,,,,,,,,,,,,,,,,,,,,103.0,1.0,,,,,,
115,,iti,,html-keyboard-response,115,75968,0.0-1.0-23.0-0.0-5.0,0,0,65,,,,,,21.0,,,,,6.0,,,,,,,,,,,,,,,,,,,,,,,,,,,104.0,1.0,,,,,,
116,,choice,,html-keyboard-response,116,76711,0.0-1.0-24.0-0.0-0.0,0,0,65,,740.0,,,50.0,22.0,322.0,1500.0,1000.0,0.0,6.0,0.0,40-60,,1.0,makeup compact,desk,60.0,40.0,makeup compact1,desk5,60.0,60.0,P190250_hero.jpg,ADESK6.jpg,/static/Category_learning/Stimuli/Experimental_stims/makeup compact/P190250_hero.jpg,/static/Category_learning/Stimuli/Experimental_stims/desk/ADESK6.jpg,1.0,makeup compact,desk,60.0,40.0,makeup compact1,desk5,60.0,60.0,0.0,104.74,0.74,,,,,,
117,,confirmation,,html-keyboard-response,117,77475,0.0-1.0-24.0-0.0-1.0-0.0,0,0,65,,,,,,22.0,,,,,6.0,,,,,,,,,,,,,,,,,,,,,,,,,,,105.5,0.76,,,,,,
118,,isi,,html-keyboard-response,118,77577,0.0-1.0-24.0-0.0-2.0,0,0,65,,,,,,22.0,,,,,6.0,,,,,,,,,,,,,,,,,,,,,,,,,,,107.0,1.5,,,,,,
119,,feedback,,html-keyboard-response,119,78581,0.0-1.0-24.0-0.0-3.0-0.0,0,0,65,,,,,,22.0,,,,,6.0,,,,,,,,,,,,,,,,,,,,,,,,,,,108.0,1.0,,,,,,
120,,iti,,html-keyboard-response,120,78685,0.0-1.0-24.0-0.0-5.0,0,0,65,,,,,,22.0,,,,,6.0,,,,,,,,,,,,,,,,,,,,,,,,,,,109.0,1.0,,,,,,
121,,choice,,html-keyboard-response,121,79217,0.0-1.0-25.0-0.0-0.0,0,0,65,,529.0,,,50.0,23.0,323.0,3500.0,2000.0,0.0,6.0,0.0,20-20,,,tent,telescope,20.0,20.0,tent7,telescope12,0.0,0.0,9238gh948h.jpg,Junior Land and Sky Telescope.jpg,/static/Category_learning/Stimuli/Experimental_stims/tent/9238gh948h.jpg,/static/Category_learning/Stimuli/Experimental_stims/telescope/Junior Land and Sky Telescope.jpg,1.0,tent,telescope,20.0,20.0,tent7,telescope12,0.0,0.0,0.0,109.529,0.529,,,,,,
122,,confirmation,,html-keyboard-response,122,80192,0.0-1.0-25.0-0.0-1.0-0.0,0,0,65,,,,,,23.0,,,,,6.0,,,,,,,,,,,,,,,,,,,,,,,,,,,110.5,0.971,,,,,,
123,,isi,,html-keyboard-response,123,80295,0.0-1.0-25.0-0.0-2.0,0,0,65,,,,,,23.0,,,,,6.0,,,,,,,,,,,,,,,,,,,,,,,,,,,114.0,3.5,,,,,,
124,,feedback,,html-keyboard-response,124,81300,0.0-1.0-25.0-0.0-3.0-0.0,0,0,65,,,,,,23.0,,,,,6.0,,,,,,,,,,,,,,,,,,,,,,,,,,,115.0,1.0,,,,,,
125,,iti,,html-keyboard-response,125,81403,0.0-1.0-25.0-0.0-5.0,0,0,65,,,,,,23.0,,,,,6.0,,,,,,,,,,,,,,,,,,,,,,,,,,,117.0,2.0,,,,,,
126,,choice,,html-keyboard-response,126,81583,0.0-1.0-26.0-0.0-0.0,0,0,65,,177.0,,,50.0,24.0,324.0,1500.0,2000.0,0.0,6.0,0.0,80-80,,,seashell,nail polish,80.0,80.0,seashell10,nail polish10,80.0,100.0,ASEASHE47.jpg,NLM23_opi_nail_polish.jpg,/static/Category_learning/Stimuli/Experimental_stims/seashell/ASEASHE47.jpg,/static/Category_learning/Stimuli/Experimental_stims/nail polish/NLM23_opi_nail_polish.jpg,1.0,seashell,nail polish,80.0,80.0,seashell10,nail polish10,80.0,100.0,0.0,117.177,0.177,,,,,,
127,,confirmation,,html-keyboard-response,127,82909,0.0-1.0-26.0-0.0-1.0-0.0,0,0,65,,,,,,24.0,,,,,6.0,,,,,,,,,,,,,,,,,,,,,,,,,,,118.5,1.323,,,,,,
128,,isi,,html-keyboard-response,128,83012,0.0-1.0-26.0-0.0-2.0,0,0,65,,,,,,24.0,,,,,6.0,,,,,,,,,,,,,,,,,,,,,,,,,,,120.0,1.5,,,,,,
129,,feedback,,html-keyboard-response,129,84016,0.0-1.0-26.0-0.0-3.0-0.0,0,0,65,,,,,,24.0,,,,,6.0,,,,,,,,,,,,,,,,,,,,,,,,,,,121.0,1.0,,,,,,
130,,iti,,html-keyboard-response,130,84121,0.0-1.0-26.0-0.0-5.0,0,0,65,,,,,,24.0,,,,,6.0,,,,,,,,,,,,,,,,,,,,,,,,,,,123.0,2.0,,,,,,
131,,choice,,html-keyboard-response,131,84245,0.0-1.0-27.0-0.0-0.0,0,0,65,,121.0,,,50.0,25.0,325.0,1000.0,2000.0,0.0,6.0,1.0,80-80,1.0,,seashell,seashell,80.0,80.0,seashell10,seashell5,80.0,80.0,ASEASHE47.jpg,429345994_b87bb03366.jpg,/static/Category_learning/Stimuli/Experimental_stims/seashell/ASEASHE47.jpg,/static/Category_learning/Stimuli/Experimental_stims/seashell/429345994_b87bb03366.jpg,1.0,seashell,seashell,80.0,80.0,seashell10,seashell5,80.0,80.0,0.0,123.121,0.121,,,,,,
132,,confirmation,,html-keyboard-response,132,85628,0.0-1.0-27.0-0.0-1.0-0.0,0,0,65,,,,,,25.0,,,,,6.0,,,,,,,,,,,,,,,,,,,,,,,,,,,124.5,1.379,,,,,,
133,,isi,,html-keyboard-response,133,85732,0.0-1.0-27.0-0.0-2.0,0,0,65,,,,,,25.0,,,,,6.0,,,,,,,,,,,,,,,,,,,,,,,,,,,125.5,1.0,,,,,,
134,,feedback,,html-keyboard-response,134,86735,0.0-1.0-27.0-0.0-3.0-0.0,0,0,65,,,,,,25.0,,,,,6.0,,,,,,,,,,,,,,,,,,,,,,,,,,,126.5,1.0,,,,,,
135,,iti,,html-keyboard-response,135,86838,0.0-1.0-27.0-0.0-5.0,0,0,65,,,,,,25.0,,,,,6.0,,,,,,,,,,,,,,,,,,,,,,,,,,,128.5,2.0,,,,,,
136,,choice,,html-keyboard-response,136,87173,0.0-1.0-28.0-0.0-0.0,0,0,65,,333.0,,,50.0,26.0,326.0,2000.0,1500.0,0.0,6.0,0.0,20-80,,0.0,vase,small table,20.0,80.0,vase8,small table6,20.0,100.0,Avase171.jpg,ATABLE88.jpg,/static/Category_learning/Stimuli/Experimental_stims/vase/Avase171.jpg,/static/Category_learning/Stimuli/Experimental_stims/small table/ATABLE88.jpg,1.0,vase,small table,20.0,80.0,vase8,small table6,20.0,100.0,0.0,128.833,0.333,,,,,,
137,,confirmation,,html-keyboard-response,137,88342,0.0-1.0-28.0-0.0-1.0-0.0,0,0,65,,,,,,26.0,,,,,6.0,,,,,,,,,,,,,,,,,,,,,,,,,,,130.0,1.167,,,,,,
138,,isi,,html-keyboard-response,138,88446,0.0-1.0-28.0-0.0-2.0,0,0,65,,,,,,26.0,,,,,6.0,,,,,,,,,,,,,,,,,,,,,,,,,,,132.0,2.0,,,,,,
139,,feedback,,html-keyboard-response,139,89450,0.0-1.0-28.0-0.0-3.0-0.0,0,0,65,,,,,,26.0,,,,,6.0,,,,,,,,,,,,,,,,,,,,,,,,,,,133.0,1.0,,,,,,
140,,iti,,html-keyboard-response,140,89554,0.0-1.0-28.0-0.0-5.0,0,0,65,,,,,,26.0,,,,,6.0,,,,,,,,,,,,,,,,,,,,,,,,,,,134.5,1.5,,,,,,
141,,choice,,html-keyboard-response,141,89677,0.0-1.0-29.0-0.0-0.0,0,0,65,,120.0,,,50.0,27.0,327.0,3500.0,1000.0,0.0,6.0,0.0,40-60,,0.0,baby carriage,license plate,40.0,60.0,baby carriage4,license plate13,60.0,60.0,26373711.thl.jpg,usa-rj-9517.jpg,/static/Category_learning/Stimuli/Experimental_stims/baby carriage/26373711.thl.jpg,/static/Category_learning/Stimuli/Experimental_stims/license plate/usa-rj-9517.jpg,1.0,baby carriage,license plate,40.0,60.0,baby carriage4,license plate13,60.0,60.0,0.0,134.62,0.12,,,,,,
142,,confirmation,,html-keyboard-response,142,91061,0.0-1.0-29.0-0.0-1.0-0.0,0,0,65,,,,,,27.0,,,,,6.0,,,,,,,,,,,,,,,,,,,,,,,,,,,136.0,1.38,,,,,,
143,,isi,,html-keyboard-response,143,91165,0.0-1.0-29.0-0.0-2.0,0,0,65,,,,,,27.0,,,,,6.0,,,,,,,,,,,,,,,,,,,,,,,,,,,139.5,3.5,,,,,,
144,,feedback,,html-keyboard-response,144,92167,0.0-1.0-29.0-0.0-3.0-0.0,0,0,65,,,,,,27.0,,,,,6.0,,,,,,,,,,,,,,,,,,,,,,,,,,,140.5,1.0,,,,,,
145,,iti,,html-keyboard-response,145,92270,0.0-1.0-29.0-0.0-5.0,0,0,65,,,,,,27.0,,,,,6.0,,,,,,,,,,,,,,,,,,,,,,,,,,,141.5,1.0,,,,,,
146,,choice,,html-keyboard-response,146,92374,0.0-1.0-30.0-0.0-0.0,0,0,65,,99.0,,,50.0,28.0,328.0,1500.0,1000.0,0.0,6.0,0.0,20-60,,0.0,stool,key chain,20.0,60.0,stool10,key chain2,40.0,80.0,ASTOOL26.jpg,superman_returns_pewter_keychain_2.jpg,/static/Category_learning/Stimuli/Experimental_stims/stool/ASTOOL26.jpg,/static/Category_learning/Stimuli/Experimental_stims/key chain/superman_returns_pewter_keychain_2.jpg,1.0,stool,key chain,20.0,60.0,stool10,key chain2,40.0,80.0,0.0,141.599,0.099,,,,,,
147,,confirmation,,html-keyboard-response,147,93778,0.0-1.0-30.0-0.0-1.0-0.0,0,0,65,,,,,,28.0,,,,,6.0,,,,,,,,,,,,,,,,,,,,,,,,,,,143.0,1.401,,,,,,
148,,isi,,html-keyboard-response,148,93882,0.0-1.0-30.0-0.0-2.0,0,0,65,,,,,,28.0,,,,,6.0,,,,,,,,,,,,,,,,,,,,,,,,,,,144.5,1.5,,,,,,
149,,feedback,,html-keyboard-response,149,94885,0.0-1.0-30.0-0.0-3.0-0.0,0,0,65,,,,,,28.0,,,,,6.0,,,,,,,,,,,,,,,,,,,,,,,,,,,145.5,1.0,,,,,,
150,,iti,,html-keyboard-response,150,94989,0.0-1.0-30.0-0.0-5.0,0,0,65,,,,,,28.0,,,,,6.0,,,,,,,,,,,,,,,,,,,,,,,,,,,146.5,1.0,,,,,,
151,,choice,,html-keyboard-response,151,96494,0.0-1.0-31.0-0.0-0.0,0,0,65,,,,,,29.0,329.0,2000.0,1000.0,0.0,6.0,1.0,20-40,0.0,,stool,baby carriage,20.0,40.0,stool10,baby carriage4,40.0,60.0,ASTOOL26.jpg,26373711.thl.jpg,/static/Category_learning/Stimuli/Experimental_stims/stool/ASTOOL26.jpg,/static/Category_learning/Stimuli/Experimental_stims/baby carriage/26373711.thl.jpg,,,,,,,,,,1.0,148.0,1.5,,,,,,
152,,isi,,html-keyboard-response,152,96597,0.0-1.0-31.0-0.0-2.0,0,0,65,,,,,,29.0,,,,,6.0,,,,,,,,,,,,,,,,,,,,,,,,,,,150.0,2.0,,,,,,
153,,no_response,,html-keyboard-response,153,97601,0.0-1.0-31.0-0.0-4.0-0.0,1,0,65,,,,,,29.0,,,,,6.0,,,,,,,,,,,,,,,,,,,,,,,,,,,151.0,1.0,,,,,,
154,,iti,,html-keyboard-response,154,97720,0.0-1.0-31.0-0.0-5.0,0,0,65,,,,,,29.0,,,,,6.0,,,,,,,,,,,,,,,,,,,,,,,,,,,152.0,1.0,,,,,,
155,,choice,,html-keyboard-response,155,99225,0.0-1.0-31.0-0.1-0.1,0,0,65,,,,,,29.0,329.0,2000.0,1000.0,0.0,6.0,1.0,20-40,0.0,,stool,baby carriage,20.0,40.0,stool10,baby carriage4,40.0,60.0,ASTOOL26.jpg,26373711.thl.jpg,/static/Category_learning/Stimuli/Experimental_stims/stool/ASTOOL26.jpg,/static/Category_learning/Stimuli/Experimental_stims/baby carriage/26373711.thl.jpg,,,,,,,,,,1.0,153.5,1.5,,,,,,
156,,isi,,html-keyboard-response,156,99328,0.0-1.0-31.0-0.1-2.1,0,0,65,,,,,,29.0,,,,,6.0,,,,,,,,,,,,,,,,,,,,,,,,,,,155.5,2.0,,,,,,
157,,no_response,,html-keyboard-response,157,100335,0.0-1.0-31.0-0.1-4.1-0.1,1,0,65,,,,,,29.0,,,,,6.0,,,,,,,,,,,,,,,,,,,,,,,,,,,156.5,1.0,,,,,,
158,,iti,,html-keyboard-response,158,100453,0.0-1.0-31.0-0.1-5.1,0,0,65,,,,,,29.0,,,,,6.0,,,,,,,,,,,,,,,,,,,,,,,,,,,158.0,1.5,,,,,,
159,,choice,,html-keyboard-response,159,101956,0.0-1.0-31.0-0.2-0.2,0,0,65,,,,,,29.0,329.0,2000.0,1000.0,0.0,6.0,1.0,20-40,0.0,,stool,baby carriage,20.0,40.0,stool10,baby carriage4,40.0,60.0,ASTOOL26.jpg,26373711.thl.jpg,/static/Category_learning/Stimuli/Experimental_stims/stool/ASTOOL26.jpg,/static/Category_learning/Stimuli/Experimental_stims/baby carriage/26373711.thl.jpg,,,,,,,,,,1.0,159.5,1.5,,,,,,
160,,isi,,html-keyboard-response,160,102059,0.0-1.0-31.0-0.2-2.2,0,0,65,,,,,,29.0,,,,,6.0,,,,,,,,,,,,,,,,,,,,,,,,,,,161.0,1.5,,,,,,
161,,no_response,,html-keyboard-response,161,103061,0.0-1.0-31.0-0.2-4.2-0.2,1,0,65,,,,,,29.0,,,,,6.0,,,,,,,,,,,,,,,,,,,,,,,,,,,162.0,1.0,,,,,,
162,,iti,,html-keyboard-response,162,103178,0.0-1.0-31.0-0.2-5.2,0,0,65,,,,,,29.0,,,,,6.0,,,,,,,,,,,,,,,,,,,,,,,,,,,164.0,2.0,,,,,,
163,,choice,,html-keyboard-response,163,104681,0.0-1.0-31.0-0.3-0.3,0,0,65,,,,,,29.0,329.0,2000.0,1000.0,0.0,6.0,1.0,20-40,0.0,,stool,baby carriage,20.0,40.0,stool10,baby carriage4,40.0,60.0,ASTOOL26.jpg,26373711.thl.jpg,/static/Category_learning/Stimuli/Experimental_stims/stool/ASTOOL26.jpg,/static/Category_learning/Stimuli/Experimental_stims/baby carriage/26373711.thl.jpg,,,,,,,,,,1.0,165.5,1.5,,,,,,
164,,isi,,html-keyboard-response,164,104784,0.0-1.0-31.0-0.3-2.3,0,0,65,,,,,,29.0,,,,,6.0,,,,,,,,,,,,,,,,,,,,,,,,,,,166.5,1.0,,,,,,
165,,no_response,,html-keyboard-response,165,105787,0.0-1.0-31.0-0.3-4.3-0.3,1,0,65,,,,,,29.0,,,,,6.0,,,,,,,,,,,,,,,,,,,,,,,,,,,167.5,1.0,,,,,,
166,,iti,,html-keyboard-response,166,105904,0.0-1.0-31.0-0.3-5.3,0,0,65,,,,,,29.0,,,,,6.0,,,,,,,,,,,,,,,,,,,,,,,,,,,168.5,1.0,,,,,,
167,,choice,,html-keyboard-response,167,107408,0.0-1.0-31.0-0.4-0.4,0,0,65,,,,,,29.0,329.0,2000.0,1000.0,0.0,6.0,1.0,20-40,0.0,,stool,baby carriage,20.0,40.0,stool10,baby carriage4,40.0,60.0,ASTOOL26.jpg,26373711.thl.jpg,/static/Category_learning/Stimuli/Experimental_stims/stool/ASTOOL26.jpg,/static/Category_learning/Stimuli/Experimental_stims/baby carriage/26373711.thl.jpg,,,,,,,,,,1.0,170.0,1.5,,,,,,
168,,isi,,html-keyboard-response,168,107512,0.0-1.0-31.0-0.4-2.4,0,0,65,,,,,,29.0,,,,,6.0,,,,,,,,,,,,,,,,,,,,,,,,,,,171.0,1.0,,,,,,
169,,no_response,,html-keyboard-response,169,108516,0.0-1.0-31.0-0.4-4.4-0.4,1,0,65,,,,,,29.0,,,,,6.0,,,,,,,,,,,,,,,,,,,,,,,,,,,172.0,1.0,,,,,,
170,,iti,,html-keyboard-response,170,108633,0.0-1.0-31.0-0.4-5.4,0,0,65,,,,,,29.0,,,,,6.0,,,,,,,,,,,,,,,,,,,,,,,,,,,173.5,1.5,,,,,,
171,,choice,,html-keyboard-response,171,110137,0.0-1.0-31.0-0.5-0.5,0,0,65,,,,,,29.0,329.0,2000.0,1000.0,0.0,6.0,1.0,20-40,0.0,,stool,baby carriage,20.0,40.0,stool10,baby carriage4,40.0,60.0,ASTOOL26.jpg,26373711.thl.jpg,/static/Category_learning/Stimuli/Experimental_stims/stool/ASTOOL26.jpg,/static/Category_learning/Stimuli/Experimental_stims/baby carriage/26373711.thl.jpg,,,,,,,,,,1.0,175.0,1.5,,,,,,
172,,isi,,html-keyboard-response,172,110242,0.0-1.0-31.0-0.5-2.5,0,0,65,,,,,,29.0,,,,,6.0,,,,,,,,,,,,,,,,,,,,,,,,,,,177.0,2.0,,,,,,
173,,no_response,,html-keyboard-response,173,111246,0.0-1.0-31.0-0.5-4.5-0.5,1,0,65,,,,,,29.0,,,,,6.0,,,,,,,,,,,,,,,,,,,,,,,,,,,178.0,1.0,,,,,,
174,,iti,,html-keyboard-response,174,111363,0.0-1.0-31.0-0.5-5.5,0,0,65,,,,,,29.0,,,,,6.0,,,,,,,,,,,,,,,,,,,,,,,,,,,180.0,2.0,,,,,,
175,,choice,,html-keyboard-response,175,112867,0.0-1.0-31.0-0.6-0.6,0,0,65,,,,,,29.0,329.0,2000.0,1000.0,0.0,6.0,1.0,20-40,0.0,,stool,baby carriage,20.0,40.0,stool10,baby carriage4,40.0,60.0,ASTOOL26.jpg,26373711.thl.jpg,/static/Category_learning/Stimuli/Experimental_stims/stool/ASTOOL26.jpg,/static/Category_learning/Stimuli/Experimental_stims/baby carriage/26373711.thl.jpg,,,,,,,,,,1.0,181.5,1.5,,,,,,
176,,isi,,html-keyboard-response,176,112971,0.0-1.0-31.0-0.6-2.6,0,0,65,,,,,,29.0,,,,,6.0,,,,,,,,,,,,,,,,,,,,,,,,,,,182.5,1.0,,,,,,
177,,no_response,,html-keyboard-response,177,113973,0.0-1.0-31.0-0.6-4.6-0.6,1,0,65,,,,,,29.0,,,,,6.0,,,,,,,,,,,,,,,,,,,,,,,,,,,183.5,1.0,,,,,,
178,,iti,,html-keyboard-response,178,114087,0.0-1.0-31.0-0.6-5.6,0,0,65,,,,,,29.0,,,,,6.0,,,,,,,,,,,,,,,,,,,,,,,,,,,184.5,1.0,,,,,,
179,,choice,,html-keyboard-response,179,115592,0.0-1.0-31.0-0.7-0.7,0,0,65,,,,,,29.0,329.0,2000.0,1000.0,0.0,6.0,1.0,20-40,0.0,,stool,baby carriage,20.0,40.0,stool10,baby carriage4,40.0,60.0,ASTOOL26.jpg,26373711.thl.jpg,/static/Category_learning/Stimuli/Experimental_stims/stool/ASTOOL26.jpg,/static/Category_learning/Stimuli/Experimental_stims/baby carriage/26373711.thl.jpg,,,,,,,,,,1.0,186.0,1.5,,,,,,
180,,isi,,html-keyboard-response,180,115696,0.0-1.0-31.0-0.7-2.7,0,0,65,,,,,,29.0,,,,,6.0,,,,,,,,,,,,,,,,,,,,,,,,,,,187.5,1.5,,,,,,
181,,no_response,,html-keyboard-response,181,116699,0.0-1.0-31.0-0.7-4.7-0.7,1,0,65,,,,,,29.0,,,,,6.0,,,,,,,,,,,,,,,,,,,,,,,,,,,188.5,1.0,,,,,,
182,,iti,,html-keyboard-response,182,116817,0.0-1.0-31.0-0.7-5.7,0,0,65,,,,,,29.0,,,,,6.0,,,,,,,,,,,,,,,,,,,,,,,,,,,190.5,2.0,,,,,,
183,,choice,,html-keyboard-response,183,118321,0.0-1.0-31.0-0.8-0.8,0,0,65,,,,,,29.0,329.0,2000.0,1000.0,0.0,6.0,1.0,20-40,0.0,,stool,baby carriage,20.0,40.0,stool10,baby carriage4,40.0,60.0,ASTOOL26.jpg,26373711.thl.jpg,/static/Category_learning/Stimuli/Experimental_stims/stool/ASTOOL26.jpg,/static/Category_learning/Stimuli/Experimental_stims/baby carriage/26373711.thl.jpg,,,,,,,,,,1.0,192.0,1.5,,,,,,
184,,isi,,html-keyboard-response,184,118425,0.0-1.0-31.0-0.8-2.8,0,0,65,,,,,,29.0,,,,,6.0,,,,,,,,,,,,,,,,,,,,,,,,,,,194.0,2.0,,,,,,
185,,no_response,,html-keyboard-response,185,119429,0.0-1.0-31.0-0.8-4.8-0.8,1,0,65,,,,,,29.0,,,,,6.0,,,,,,,,,,,,,,,,,,,,,,,,,,,195.0,1.0,,,,,,
186,,iti,,html-keyboard-response,186,119547,0.0-1.0-31.0-0.8-5.8,0,0,65,,,,,,29.0,,,,,6.0,,,,,,,,,,,,,,,,,,,,,,,,,,,196.0,1.0,,,,,,
187,,choice,,html-keyboard-response,187,121052,0.0-1.0-31.0-0.9-0.9,0,0,65,,,,,,29.0,329.0,2000.0,1000.0,0.0,6.0,1.0,20-40,0.0,,stool,baby carriage,20.0,40.0,stool10,baby carriage4,40.0,60.0,ASTOOL26.jpg,26373711.thl.jpg,/static/Category_learning/Stimuli/Experimental_stims/stool/ASTOOL26.jpg,/static/Category_learning/Stimuli/Experimental_stims/baby carriage/26373711.thl.jpg,,,,,,,,,,1.0,197.5,1.5,,,,,,
188,,isi,,html-keyboard-response,188,121157,0.0-1.0-31.0-0.9-2.9,0,0,65,,,,,,29.0,,,,,6.0,,,,,,,,,,,,,,,,,,,,,,,,,,,199.0,1.5,,,,,,
189,,no_response,,html-keyboard-response,189,122160,0.0-1.0-31.0-0.9-4.9-0.9,1,0,65,,,,,,29.0,,,,,6.0,,,,,,,,,,,,,,,,,,,,,,,,,,,200.0,1.0,,,,,,
190,,iti,,html-keyboard-response,190,122271,0.0-1.0-31.0-0.9-5.9,0,0,65,,,,,,29.0,,,,,6.0,,,,,,,,,,,,,,,,,,,,,,,,,,,203.5,3.5,,,,,,
191,,choice,,html-keyboard-response,191,123776,0.0-1.0-31.0-0.10-0.10,0,0,65,,,,,,29.0,329.0,2000.0,1000.0,0.0,6.0,1.0,20-40,0.0,,stool,baby carriage,20.0,40.0,stool10,baby carriage4,40.0,60.0,ASTOOL26.jpg,26373711.thl.jpg,/static/Category_learning/Stimuli/Experimental_stims/stool/ASTOOL26.jpg,/static/Category_learning/Stimuli/Experimental_stims/baby carriage/26373711.thl.jpg,,,,,,,,,,1.0,205.0,1.5,,,,,,
192,,isi,,html-keyboard-response,192,123879,0.0-1.0-31.0-0.10-2.10,0,0,65,,,,,,29.0,,,,,6.0,,,,,,,,,,,,,,,,,,,,,,,,,,,206.5,1.5,,,,,,
193,,no_response,,html-keyboard-response,193,124882,0.0-1.0-31.0-0.10-4.10-0.10,1,0,65,,,,,,29.0,,,,,6.0,,,,,,,,,,,,,,,,,,,,,,,,,,,207.5,1.0,,,,,,
194,,iti,,html-keyboard-response,194,125000,0.0-1.0-31.0-0.10-5.10,0,0,65,,,,,,29.0,,,,,6.0,,,,,,,,,,,,,,,,,,,,,,,,,,,209.5,2.0,,,,,,
195,,choice,,html-keyboard-response,195,126504,0.0-1.0-31.0-0.11-0.11,0,0,65,,,,,,29.0,329.0,2000.0,1000.0,0.0,6.0,1.0,20-40,0.0,,stool,baby carriage,20.0,40.0,stool10,baby carriage4,40.0,60.0,ASTOOL26.jpg,26373711.thl.jpg,/static/Category_learning/Stimuli/Experimental_stims/stool/ASTOOL26.jpg,/static/Category_learning/Stimuli/Experimental_stims/baby carriage/26373711.thl.jpg,,,,,,,,,,1.0,211.0,1.5,,,,,,
196,,isi,,html-keyboard-response,196,126608,0.0-1.0-31.0-0.11-2.11,0,0,65,,,,,,29.0,,,,,6.0,,,,,,,,,,,,,,,,,,,,,,,,,,,212.0,1.0,,,,,,
197,,no_response,,html-keyboard-response,197,127610,0.0-1.0-31.0-0.11-4.11-0.11,1,0,65,,,,,,29.0,,,,,6.0,,,,,,,,,,,,,,,,,,,,,,,,,,,213.0,1.0,,,,,,
198,,iti,,html-keyboard-response,198,127727,0.0-1.0-31.0-0.11-5.11,0,0,65,,,,,,29.0,,,,,6.0,,,,,,,,,,,,,,,,,,,,,,,,,,,214.5,1.5,,,,,,
199,,choice,,html-keyboard-response,199,129231,0.0-1.0-31.0-0.12-0.12,0,0,65,,,,,,29.0,329.0,2000.0,1000.0,0.0,6.0,1.0,20-40,0.0,,stool,baby carriage,20.0,40.0,stool10,baby carriage4,40.0,60.0,ASTOOL26.jpg,26373711.thl.jpg,/static/Category_learning/Stimuli/Experimental_stims/stool/ASTOOL26.jpg,/static/Category_learning/Stimuli/Experimental_stims/baby carriage/26373711.thl.jpg,,,,,,,,,,1.0,216.0,1.5,,,,,,
200,,isi,,html-keyboard-response,200,129336,0.0-1.0-31.0-0.12-2.12,0,0,65,,,,,,29.0,,,,,6.0,,,,,,,,,,,,,,,,,,,,,,,,,,,217.0,1.0,,,,,,
201,,no_response,,html-keyboard-response,201,130339,0.0-1.0-31.0-0.12-4.12-0.12,1,0,65,,,,,,29.0,,,,,6.0,,,,,,,,,,,,,,,,,,,,,,,,,,,218.0,1.0,,,,,,
202,,iti,,html-keyboard-response,202,130457,0.0-1.0-31.0-0.12-5.12,0,0,65,,,,,,29.0,,,,,6.0,,,,,,,,,,,,,,,,,,,,,,,,,,,219.5,1.5,,,,,,
203,,choice,,html-keyboard-response,203,131962,0.0-1.0-31.0-0.13-0.13,0,0,65,,,,,,29.0,329.0,2000.0,1000.0,0.0,6.0,1.0,20-40,0.0,,stool,baby carriage,20.0,40.0,stool10,baby carriage4,40.0,60.0,ASTOOL26.jpg,26373711.thl.jpg,/static/Category_learning/Stimuli/Experimental_stims/stool/ASTOOL26.jpg,/static/Category_learning/Stimuli/Experimental_stims/baby carriage/26373711.thl.jpg,,,,,,,,,,1.0,221.0,1.5,,,,,,
204,,isi,,html-keyboard-response,204,132066,0.0-1.0-31.0-0.13-2.13,0,0,65,,,,,,29.0,,,,,6.0,,,,,,,,,,,,,,,,,,,,,,,,,,,223.0,2.0,,,,,,
205,,no_response,,html-keyboard-response,205,133070,0.0-1.0-31.0-0.13-4.13-0.13,1,0,65,,,,,,29.0,,,,,6.0,,,,,,,,,,,,,,,,,,,,,,,,,,,224.0,1.0,,,,,,
206,,iti,,html-keyboard-response,206,133188,0.0-1.0-31.0-0.13-5.13,0,0,65,,,,,,29.0,,,,,6.0,,,,,,,,,,,,,,,,,,,,,,,,,,,225.0,1.0,,,,,,
207,,choice,,html-keyboard-response,207,134691,0.0-1.0-31.0-0.14-0.14,0,0,65,,,,,,29.0,329.0,2000.0,1000.0,0.0,6.0,1.0,20-40,0.0,,stool,baby carriage,20.0,40.0,stool10,baby carriage4,40.0,60.0,ASTOOL26.jpg,26373711.thl.jpg,/static/Category_learning/Stimuli/Experimental_stims/stool/ASTOOL26.jpg,/static/Category_learning/Stimuli/Experimental_stims/baby carriage/26373711.thl.jpg,,,,,,,,,,1.0,226.5,1.5,,,,,,
208,,isi,,html-keyboard-response,208,134795,0.0-1.0-31.0-0.14-2.14,0,0,65,,,,,,29.0,,,,,6.0,,,,,,,,,,,,,,,,,,,,,,,,,,,227.5,1.0,,,,,,
209,,no_response,,html-keyboard-response,209,135798,0.0-1.0-31.0-0.14-4.14-0.14,1,0,65,,,,,,29.0,,,,,6.0,,,,,,,,,,,,,,,,,,,,,,,,,,,228.5,1.0,,,,,,
210,,iti,,html-keyboard-response,210,135917,0.0-1.0-31.0-0.14-5.14,0,0,65,,,,,,29.0,,,,,6.0,,,,,,,,,,,,,,,,,,,,,,,,,,,232.0,3.5,,,,,,
211,,choice,,html-keyboard-response,211,137420,0.0-1.0-31.0-0.15-0.15,0,0,65,,,,,,29.0,329.0,2000.0,1000.0,0.0,6.0,1.0,20-40,0.0,,stool,baby carriage,20.0,40.0,stool10,baby carriage4,40.0,60.0,ASTOOL26.jpg,26373711.thl.jpg,/static/Category_learning/Stimuli/Experimental_stims/stool/ASTOOL26.jpg,/static/Category_learning/Stimuli/Experimental_stims/baby carriage/26373711.thl.jpg,,,,,,,,,,1.0,233.5,1.5,,,,,,
212,,isi,,html-keyboard-response,212,137523,0.0-1.0-31.0-0.15-2.15,0,0,65,,,,,,29.0,,,,,6.0,,,,,,,,,,,,,,,,,,,,,,,,,,,234.5,1.0,,,,,,
213,,no_response,,html-keyboard-response,213,138527,0.0-1.0-31.0-0.15-4.15-0.15,1,0,65,,,,,,29.0,,,,,6.0,,,,,,,,,,,,,,,,,,,,,,,,,,,235.5,1.0,,,,,,
214,,iti,,html-keyboard-response,214,138644,0.0-1.0-31.0-0.15-5.15,0,0,65,,,,,,29.0,,,,,6.0,,,,,,,,,,,,,,,,,,,,,,,,,,,236.5,1.0,,,,,,
215,,choice,,html-keyboard-response,215,140148,0.0-1.0-31.0-0.16-0.16,0,0,65,,,,,,29.0,329.0,2000.0,1000.0,0.0,6.0,1.0,20-40,0.0,,stool,baby carriage,20.0,40.0,stool10,baby carriage4,40.0,60.0,ASTOOL26.jpg,26373711.thl.jpg,/static/Category_learning/Stimuli/Experimental_stims/stool/ASTOOL26.jpg,/static/Category_learning/Stimuli/Experimental_stims/baby carriage/26373711.thl.jpg,,,,,,,,,,1.0,238.0,1.5,,,,,,
216,,isi,,html-keyboard-response,216,140254,0.0-1.0-31.0-0.16-2.16,0,0,65,,,,,,29.0,,,,,6.0,,,,,,,,,,,,,,,,,,,,,,,,,,,239.0,1.0,,,,,,
217,,no_response,,html-keyboard-response,217,141257,0.0-1.0-31.0-0.16-4.16-0.16,1,0,65,,,,,,29.0,,,,,6.0,,,,,,,,,,,,,,,,,,,,,,,,,,,240.0,1.0,,,,,,
218,,iti,,html-keyboard-response,218,141375,0.0-1.0-31.0-0.16-5.16,0,0,65,,,,,,29.0,,,,,6.0,,,,,,,,,,,,,,,,,,,,,,,,,,,241.0,1.0,,,,,,
219,,choice,,html-keyboard-response,219,142878,0.0-1.0-31.0-0.17-0.17,0,0,65,,,,,,29.0,329.0,2000.0,1000.0,0.0,6.0,1.0,20-40,0.0,,stool,baby carriage,20.0,40.0,stool10,baby carriage4,40.0,60.0,ASTOOL26.jpg,26373711.thl.jpg,/static/Category_learning/Stimuli/Experimental_stims/stool/ASTOOL26.jpg,/static/Category_learning/Stimuli/Experimental_stims/baby carriage/26373711.thl.jpg,,,,,,,,,,1.0,242.5,1.5,,,,,,
220,,isi,,html-keyboard-response,220,142982,0.0-1.0-31.0-0.17-2.17,0,0,65,,,,,,29.0,,,,,6.0,,,,,,,,,,,,,,,,,,,,,,,,,,,244.5,2.0,,,,,,
221,,no_response,,html-keyboard-response,221,143985,0.0-1.0-31.0-0.17-4.17-0.17,1,0,65,,,,,,29.0,,,,,6.0,,,,,,,,,,,,,,,,,,,,,,,,,,,245.5,1.0,,,,,,
222,,iti,,html-keyboard-response,222,144102,0.0-1.0-31.0-0.17-5.17,0,0,65,,,,,,29.0,,,,,6.0,,,,,,,,,,,,,,,,,,,,,,,,,,,247.0,1.5,,,,,,
223,,choice,,html-keyboard-response,223,145606,0.0-1.0-31.0-0.18-0.18,0,0,65,,,,,,29.0,329.0,2000.0,1000.0,0.0,6.0,1.0,20-40,0.0,,stool,baby carriage,20.0,40.0,stool10,baby carriage4,40.0,60.0,ASTOOL26.jpg,26373711.thl.jpg,/static/Category_learning/Stimuli/Experimental_stims/stool/ASTOOL26.jpg,/static/Category_learning/Stimuli/Experimental_stims/baby carriage/26373711.thl.jpg,,,,,,,,,,1.0,248.5,1.5,,,,,,
224,,isi,,html-keyboard-response,224,145711,0.0-1.0-31.0-0.18-2.18,0,0,65,,,,,,29.0,,,,,6.0,,,,,,,,,,,,,,,,,,,,,,,,,,,250.0,1.5,,,,,,
225,,no_response,,html-keyboard-response,225,146714,0.0-1.0-31.0-0.18-4.18-0.18,1,0,65,,,,,,29.0,,,,,6.0,,,,,,,,,,,,,,,,,,,,,,,,,,,251.0,1.0,,,,,,
226,,iti,,html-keyboard-response,226,146831,0.0-1.0-31.0-0.18-5.18,0,0,65,,,,,,29.0,,,,,6.0,,,,,,,,,,,,,,,,,,,,,,,,,,,252.5,1.5,,,,,,
227,,choice,,html-keyboard-response,227,148334,0.0-1.0-31.0-0.19-0.19,0,0,65,,,,,,29.0,329.0,2000.0,1000.0,0.0,6.0,1.0,20-40,0.0,,stool,baby carriage,20.0,40.0,stool10,baby carriage4,40.0,60.0,ASTOOL26.jpg,26373711.thl.jpg,/static/Category_learning/Stimuli/Experimental_stims/stool/ASTOOL26.jpg,/static/Category_learning/Stimuli/Experimental_stims/baby carriage/26373711.thl.jpg,,,,,,,,,,1.0,254.0,1.5,,,,,,
228,,isi,,html-keyboard-response,228,148438,0.0-1.0-31.0-0.19-2.19,0,0,65,,,,,,29.0,,,,,6.0,,,,,,,,,,,,,,,,,,,,,,,,,,,255.5,1.5,,,,,,
229,,no_response,,html-keyboard-response,229,149442,0.0-1.0-31.0-0.19-4.19-0.19,1,0,65,,,,,,29.0,,,,,6.0,,,,,,,,,,,,,,,,,,,,,,,,,,,256.5,1.0,,,,,,
230,,iti,,html-keyboard-response,230,149560,0.0-1.0-31.0-0.19-5.19,0,0,65,,,,,,29.0,,,,,6.0,,,,,,,,,,,,,,,,,,,,,,,,,,,257.5,1.0,,,,,,
231,,choice,,html-keyboard-response,231,151063,0.0-1.0-31.0-0.20-0.20,0,0,65,,,,,,29.0,329.0,2000.0,1000.0,0.0,6.0,1.0,20-40,0.0,,stool,baby carriage,20.0,40.0,stool10,baby carriage4,40.0,60.0,ASTOOL26.jpg,26373711.thl.jpg,/static/Category_learning/Stimuli/Experimental_stims/stool/ASTOOL26.jpg,/static/Category_learning/Stimuli/Experimental_stims/baby carriage/26373711.thl.jpg,,,,,,,,,,1.0,259.0,1.5,,,,,,
232,,isi,,html-keyboard-response,232,151167,0.0-1.0-31.0-0.20-2.20,0,0,65,,,,,,29.0,,,,,6.0,,,,,,,,,,,,,,,,,,,,,,,,,,,261.0,2.0,,,,,,
233,,no_response,,html-keyboard-response,233,152170,0.0-1.0-31.0-0.20-4.20-0.20,1,0,65,,,,,,29.0,,,,,6.0,,,,,,,,,,,,,,,,,,,,,,,,,,,262.0,1.0,,,,,,
234,,iti,,html-keyboard-response,234,152288,0.0-1.0-31.0-0.20-5.20,0,0,65,,,,,,29.0,,,,,6.0,,,,,,,,,,,,,,,,,,,,,,,,,,,264.0,2.0,,,,,,
235,,choice,,html-keyboard-response,235,153793,0.0-1.0-31.0-0.21-0.21,0,0,65,,,,,,29.0,329.0,2000.0,1000.0,0.0,6.0,1.0,20-40,0.0,,stool,baby carriage,20.0,40.0,stool10,baby carriage4,40.0,60.0,ASTOOL26.jpg,26373711.thl.jpg,/static/Category_learning/Stimuli/Experimental_stims/stool/ASTOOL26.jpg,/static/Category_learning/Stimuli/Experimental_stims/baby carriage/26373711.thl.jpg,,,,,,,,,,1.0,265.5,1.5,,,,,,
236,,isi,,html-keyboard-response,236,153897,0.0-1.0-31.0-0.21-2.21,0,0,65,,,,,,29.0,,,,,6.0,,,,,,,,,,,,,,,,,,,,,,,,,,,266.5,1.0,,,,,,
237,,no_response,,html-keyboard-response,237,154901,0.0-1.0-31.0-0.21-4.21-0.21,1,0,65,,,,,,29.0,,,,,6.0,,,,,,,,,,,,,,,,,,,,,,,,,,,267.5,1.0,,,,,,
238,,iti,,html-keyboard-response,238,155017,0.0-1.0-31.0-0.21-5.21,0,0,65,,,,,,29.0,,,,,6.0,,,,,,,,,,,,,,,,,,,,,,,,,,,269.0,1.5,,,,,,
239,,choice,,html-keyboard-response,239,156520,0.0-1.0-31.0-0.22-0.22,0,0,65,,,,,,29.0,329.0,2000.0,1000.0,0.0,6.0,1.0,20-40,0.0,,stool,baby carriage,20.0,40.0,stool10,baby carriage4,40.0,60.0,ASTOOL26.jpg,26373711.thl.jpg,/static/Category_learning/Stimuli/Experimental_stims/stool/ASTOOL26.jpg,/static/Category_learning/Stimuli/Experimental_stims/baby carriage/26373711.thl.jpg,,,,,,,,,,1.0,270.5,1.5,,,,,,
240,,isi,,html-keyboard-response,240,156625,0.0-1.0-31.0-0.22-2.22,0,0,65,,,,,,29.0,,,,,6.0,,,,,,,,,,,,,,,,,,,,,,,,,,,271.5,1.0,,,,,,
241,,no_response,,html-keyboard-response,241,157628,0.0-1.0-31.0-0.22-4.22-0.22,1,0,65,,,,,,29.0,,,,,6.0,,,,,,,,,,,,,,,,,,,,,,,,,,,272.5,1.0,,,,,,
242,,iti,,html-keyboard-response,242,157741,0.0-1.0-31.0-0.22-5.22,0,0,65,,,,,,29.0,,,,,6.0,,,,,,,,,,,,,,,,,,,,,,,,,,,274.0,1.5,,,,,,
243,,choice,,html-keyboard-response,243,159245,0.0-1.0-31.0-0.23-0.23,0,0,65,,,,,,29.0,329.0,2000.0,1000.0,0.0,6.0,1.0,20-40,0.0,,stool,baby carriage,20.0,40.0,stool10,baby carriage4,40.0,60.0,ASTOOL26.jpg,26373711.thl.jpg,/static/Category_learning/Stimuli/Experimental_stims/stool/ASTOOL26.jpg,/static/Category_learning/Stimuli/Experimental_stims/baby carriage/26373711.thl.jpg,,,,,,,,,,1.0,275.5,1.5,,,,,,
244,,isi,,html-keyboard-response,244,159350,0.0-1.0-31.0-0.23-2.23,0,0,65,,,,,,29.0,,,,,6.0,,,,,,,,,,,,,,,,,,,,,,,,,,,277.5,2.0,,,,,,
245,,no_response,,html-keyboard-response,245,160354,0.0-1.0-31.0-0.23-4.23-0.23,1,0,65,,,,,,29.0,,,,,6.0,,,,,,,,,,,,,,,,,,,,,,,,,,,278.5,1.0,,,,,,
246,,iti,,html-keyboard-response,246,160471,0.0-1.0-31.0-0.23-5.23,0,0,65,,,,,,29.0,,,,,6.0,,,,,,,,,,,,,,,,,,,,,,,,,,,279.5,1.0,,,,,,
247,,choice,,html-keyboard-response,247,161975,0.0-1.0-31.0-0.24-0.24,0,0,65,,,,,,29.0,329.0,2000.0,1000.0,0.0,6.0,1.0,20-40,0.0,,stool,baby carriage,20.0,40.0,stool10,baby carriage4,40.0,60.0,ASTOOL26.jpg,26373711.thl.jpg,/static/Category_learning/Stimuli/Experimental_stims/stool/ASTOOL26.jpg,/static/Category_learning/Stimuli/Experimental_stims/baby carriage/26373711.thl.jpg,,,,,,,,,,1.0,281.0,1.5,,,,,,
248,,isi,,html-keyboard-response,248,162080,0.0-1.0-31.0-0.24-2.24,0,0,65,,,,,,29.0,,,,,6.0,,,,,,,,,,,,,,,,,,,,,,,,,,,282.0,1.0,,,,,,
249,,no_response,,html-keyboard-response,249,163084,0.0-1.0-31.0-0.24-4.24-0.24,1,0,65,,,,,,29.0,,,,,6.0,,,,,,,,,,,,,,,,,,,,,,,,,,,283.0,1.0,,,,,,
250,,iti,,html-keyboard-response,250,163201,0.0-1.0-31.0-0.24-5.24,0,0,65,,,,,,29.0,,,,,6.0,,,,,,,,,,,,,,,,,,,,,,,,,,,286.0,3.0,,,,,,
251,,choice,,html-keyboard-response,251,164706,0.0-1.0-31.0-0.25-0.25,0,0,65,,,,,,29.0,329.0,2000.0,1000.0,0.0,6.0,1.0,20-40,0.0,,stool,baby carriage,20.0,40.0,stool10,baby carriage4,40.0,60.0,ASTOOL26.jpg,26373711.thl.jpg,/static/Category_learning/Stimuli/Experimental_stims/stool/ASTOOL26.jpg,/static/Category_learning/Stimuli/Experimental_stims/baby carriage/26373711.thl.jpg,,,,,,,,,,1.0,287.5,1.5,,,,,,
252,,isi,,html-keyboard-response,252,164811,0.0-1.0-31.0-0.25-2.25,0,0,65,,,,,,29.0,,,,,6.0,,,,,,,,,,,,,,,,,,,,,,,,,,,288.5,1.0,,,,,,
253,,no_response,,html-keyboard-response,253,165812,0.0-1.0-31.0-0.25-4.25-0.25,1,0,65,,,,,,29.0,,,,,6.0,,,,,,,,,,,,,,,,,,,,,,,,,,,289.5,1.0,,,,,,
254,,iti,,html-keyboard-response,254,165927,0.0-1.0-31.0-0.25-5.25,0,0,65,,,,,,29.0,,,,,6.0,,,,,,,,,,,,,,,,,,,,,,,,,,,291.0,1.5,,,,,,
255,,choice,,html-keyboard-response,255,167430,0.0-1.0-31.0-0.26-0.26,0,0,65,,,,,,29.0,329.0,2000.0,1000.0,0.0,6.0,1.0,20-40,0.0,,stool,baby carriage,20.0,40.0,stool10,baby carriage4,40.0,60.0,ASTOOL26.jpg,26373711.thl.jpg,/static/Category_learning/Stimuli/Experimental_stims/stool/ASTOOL26.jpg,/static/Category_learning/Stimuli/Experimental_stims/baby carriage/26373711.thl.jpg,,,,,,,,,,1.0,292.5,1.5,,,,,,
256,,isi,,html-keyboard-response,256,167535,0.0-1.0-31.0-0.26-2.26,0,0,65,,,,,,29.0,,,,,6.0,,,,,,,,,,,,,,,,,,,,,,,,,,,294.0,1.5,,,,,,
257,,no_response,,html-keyboard-response,257,168538,0.0-1.0-31.0-0.26-4.26-0.26,1,0,65,,,,,,29.0,,,,,6.0,,,,,,,,,,,,,,,,,,,,,,,,,,,295.0,1.0,,,,,,
258,,iti,,html-keyboard-response,258,168655,0.0-1.0-31.0-0.26-5.26,0,0,65,,,,,,29.0,,,,,6.0,,,,,,,,,,,,,,,,,,,,,,,,,,,297.0,2.0,,,,,,
259,,choice,,html-keyboard-response,259,170159,0.0-1.0-31.0-0.27-0.27,0,0,65,,,,,,29.0,329.0,2000.0,1000.0,0.0,6.0,1.0,20-40,0.0,,stool,baby carriage,20.0,40.0,stool10,baby carriage4,40.0,60.0,ASTOOL26.jpg,26373711.thl.jpg,/static/Category_learning/Stimuli/Experimental_stims/stool/ASTOOL26.jpg,/static/Category_learning/Stimuli/Experimental_stims/baby carriage/26373711.thl.jpg,,,,,,,,,,1.0,298.5,1.5,,,,,,
260,,isi,,html-keyboard-response,260,170263,0.0-1.0-31.0-0.27-2.27,0,0,65,,,,,,29.0,,,,,6.0,,,,,,,,,,,,,,,,,,,,,,,,,,,302.0,3.5,,,,,,
261,,no_response,,html-keyboard-response,261,171267,0.0-1.0-31.0-0.27-4.27-0.27,1,0,65,,,,,,29.0,,,,,6.0,,,,,,,,,,,,,,,,,,,,,,,,,,,303.0,1.0,,,,,,
262,,iti,,html-keyboard-response,262,171384,0.0-1.0-31.0-0.27-5.27,0,0,65,,,,,,29.0,,,,,6.0,,,,,,,,,,,,,,,,,,,,,,,,,,,305.0,2.0,,,,,,
263,,choice,,html-keyboard-response,263,172888,0.0-1.0-31.0-0.28-0.28,0,0,65,,,,,,29.0,329.0,2000.0,1000.0,0.0,6.0,1.0,20-40,0.0,,stool,baby carriage,20.0,40.0,stool10,baby carriage4,40.0,60.0,ASTOOL26.jpg,26373711.thl.jpg,/static/Category_learning/Stimuli/Experimental_stims/stool/ASTOOL26.jpg,/static/Category_learning/Stimuli/Experimental_stims/baby carriage/26373711.thl.jpg,,,,,,,,,,1.0,306.5,1.5,,,,,,
264,,isi,,html-keyboard-response,264,172991,0.0-1.0-31.0-0.28-2.28,0,0,65,,,,,,29.0,,,,,6.0,,,,,,,,,,,,,,,,,,,,,,,,,,,307.5,1.0,,,,,,
265,,no_response,,html-keyboard-response,265,173994,0.0-1.0-31.0-0.28-4.28-0.28,1,0,65,,,,,,29.0,,,,,6.0,,,,,,,,,,,,,,,,,,,,,,,,,,,308.5,1.0,,,,,,
266,,iti,,html-keyboard-response,266,174111,0.0-1.0-31.0-0.28-5.28,0,0,65,,,,,,29.0,,,,,6.0,,,,,,,,,,,,,,,,,,,,,,,,,,,310.5,2.0,,,,,,
267,,choice,,html-keyboard-response,267,175615,0.0-1.0-31.0-0.29-0.29,0,0,65,,,,,,29.0,329.0,2000.0,1000.0,0.0,6.0,1.0,20-40,0.0,,stool,baby carriage,20.0,40.0,stool10,baby carriage4,40.0,60.0,ASTOOL26.jpg,26373711.thl.jpg,/static/Category_learning/Stimuli/Experimental_stims/stool/ASTOOL26.jpg,/static/Category_learning/Stimuli/Experimental_stims/baby carriage/26373711.thl.jpg,,,,,,,,,,1.0,312.0,1.5,,,,,,
268,,isi,,html-keyboard-response,268,175721,0.0-1.0-31.0-0.29-2.29,0,0,65,,,,,,29.0,,,,,6.0,,,,,,,,,,,,,,,,,,,,,,,,,,,314.0,2.0,,,,,,
269,,no_response,,html-keyboard-response,269,176724,0.0-1.0-31.0-0.29-4.29-0.29,1,0,65,,,,,,29.0,,,,,6.0,,,,,,,,,,,,,,,,,,,,,,,,,,,315.0,1.0,,,,,,
270,,iti,,html-keyboard-response,270,176842,0.0-1.0-31.0-0.29-5.29,0,0,65,,,,,,29.0,,,,,6.0,,,,,,,,,,,,,,,,,,,,,,,,,,,316.5,1.5,,,,,,
271,,choice,,html-keyboard-response,271,178346,0.0-1.0-31.0-0.30-0.30,0,0,65,,,,,,29.0,329.0,2000.0,1000.0,0.0,6.0,1.0,20-40,0.0,,stool,baby carriage,20.0,40.0,stool10,baby carriage4,40.0,60.0,ASTOOL26.jpg,26373711.thl.jpg,/static/Category_learning/Stimuli/Experimental_stims/stool/ASTOOL26.jpg,/static/Category_learning/Stimuli/Experimental_stims/baby carriage/26373711.thl.jpg,,,,,,,,,,1.0,318.0,1.5,,,,,,
272,,isi,,html-keyboard-response,272,178451,0.0-1.0-31.0-0.30-2.30,0,0,65,,,,,,29.0,,,,,6.0,,,,,,,,,,,,,,,,,,,,,,,,,,,319.5,1.5,,,,,,
273,,no_response,,html-keyboard-response,273,179455,0.0-1.0-31.0-0.30-4.30-0.30,1,0,65,,,,,,29.0,,,,,6.0,,,,,,,,,,,,,,,,,,,,,,,,,,,320.5,1.0,,,,,,
274,,iti,,html-keyboard-response,274,179571,0.0-1.0-31.0-0.30-5.30,0,0,65,,,,,,29.0,,,,,6.0,,,,,,,,,,,,,,,,,,,,,,,,,,,321.5,1.0,,,,,,
275,,choice,,html-keyboard-response,275,181073,0.0-1.0-31.0-0.31-0.31,0,0,65,,,,,,29.0,329.0,2000.0,1000.0,0.0,6.0,1.0,20-40,0.0,,stool,baby carriage,20.0,40.0,stool10,baby carriage4,40.0,60.0,ASTOOL26.jpg,26373711.thl.jpg,/static/Category_learning/Stimuli/Experimental_stims/stool/ASTOOL26.jpg,/static/Category_learning/Stimuli/Experimental_stims/baby carriage/26373711.thl.jpg,,,,,,,,,,1.0,323.0,1.5,,,,,,
276,,isi,,html-keyboard-response,276,181179,0.0-1.0-31.0-0.31-2.31,0,0,65,,,,,,29.0,,,,,6.0,,,,,,,,,,,,,,,,,,,,,,,,,,,324.0,1.0,,,,,,
277,,no_response,,html-keyboard-response,277,182183,0.0-1.0-31.0-0.31-4.31-0.31,1,0,65,,,,,,29.0,,,,,6.0,,,,,,,,,,,,,,,,,,,,,,,,,,,325.0,1.0,,,,,,
278,,iti,,html-keyboard-response,278,182300,0.0-1.0-31.0-0.31-5.31,0,0,65,,,,,,29.0,,,,,6.0,,,,,,,,,,,,,,,,,,,,,,,,,,,328.0,3.0,,,,,,
279,,choice,,html-keyboard-response,279,183804,0.0-1.0-31.0-0.32-0.32,0,0,65,,,,,,29.0,329.0,2000.0,1000.0,0.0,6.0,1.0,20-40,0.0,,stool,baby carriage,20.0,40.0,stool10,baby carriage4,40.0,60.0,ASTOOL26.jpg,26373711.thl.jpg,/static/Category_learning/Stimuli/Experimental_stims/stool/ASTOOL26.jpg,/static/Category_learning/Stimuli/Experimental_stims/baby carriage/26373711.thl.jpg,,,,,,,,,,1.0,329.5,1.5,,,,,,
280,,isi,,html-keyboard-response,280,183910,0.0-1.0-31.0-0.32-2.32,0,0,65,,,,,,29.0,,,,,6.0,,,,,,,,,,,,,,,,,,,,,,,,,,,330.5,1.0,,,,,,
281,,no_response,,html-keyboard-response,281,184913,0.0-1.0-31.0-0.32-4.32-0.32,1,0,65,,,,,,29.0,,,,,6.0,,,,,,,,,,,,,,,,,,,,,,,,,,,331.5,1.0,,,,,,
282,,iti,,html-keyboard-response,282,185031,0.0-1.0-31.0-0.32-5.32,0,0,65,,,,,,29.0,,,,,6.0,,,,,,,,,,,,,,,,,,,,,,,,,,,333.5,2.0,,,,,,
283,,choice,,html-keyboard-response,283,186534,0.0-1.0-31.0-0.33-0.33,0,0,65,,,,,,29.0,329.0,2000.0,1000.0,0.0,6.0,1.0,20-40,0.0,,stool,baby carriage,20.0,40.0,stool10,baby carriage4,40.0,60.0,ASTOOL26.jpg,26373711.thl.jpg,/static/Category_learning/Stimuli/Experimental_stims/stool/ASTOOL26.jpg,/static/Category_learning/Stimuli/Experimental_stims/baby carriage/26373711.thl.jpg,,,,,,,,,,1.0,335.0,1.5,,,,,,
284,,isi,,html-keyboard-response,284,186637,0.0-1.0-31.0-0.33-2.33,0,0,65,,,,,,29.0,,,,,6.0,,,,,,,,,,,,,,,,,,,,,,,,,,,336.5,1.5,,,,,,
285,,no_response,,html-keyboard-response,285,187641,0.0-1.0-31.0-0.33-4.33-0.33,1,0,65,,,,,,29.0,,,,,6.0,,,,,,,,,,,,,,,,,,,,,,,,,,,337.5,1.0,,,,,,
286,,iti,,html-keyboard-response,286,187759,0.0-1.0-31.0-0.33-5.33,0,0,65,,,,,,29.0,,,,,6.0,,,,,,,,,,,,,,,,,,,,,,,,,,,338.5,1.0,,,,,,
287,,choice,,html-keyboard-response,287,189263,0.0-1.0-31.0-0.34-0.34,0,0,65,,,,,,29.0,329.0,2000.0,1000.0,0.0,6.0,1.0,20-40,0.0,,stool,baby carriage,20.0,40.0,stool10,baby carriage4,40.0,60.0,ASTOOL26.jpg,26373711.thl.jpg,/static/Category_learning/Stimuli/Experimental_stims/stool/ASTOOL26.jpg,/static/Category_learning/Stimuli/Experimental_stims/baby carriage/26373711.thl.jpg,,,,,,,,,,1.0,340.0,1.5,,,,,,
288,,isi,,html-keyboard-response,288,189367,0.0-1.0-31.0-0.34-2.34,0,0,65,,,,,,29.0,,,,,6.0,,,,,,,,,,,,,,,,,,,,,,,,,,,341.0,1.0,,,,,,
289,,no_response,,html-keyboard-response,289,190370,0.0-1.0-31.0-0.34-4.34-0.34,1,0,65,,,,,,29.0,,,,,6.0,,,,,,,,,,,,,,,,,,,,,,,,,,,342.0,1.0,,,,,,
290,,iti,,html-keyboard-response,290,190486,0.0-1.0-31.0-0.34-5.34,0,0,65,,,,,,29.0,,,,,6.0,,,,,,,,,,,,,,,,,,,,,,,,,,,345.5,3.5,,,,,,
291,,choice,,html-keyboard-response,291,191990,0.0-1.0-31.0-0.35-0.35,0,0,65,,,,,,29.0,329.0,2000.0,1000.0,0.0,6.0,1.0,20-40,0.0,,stool,baby carriage,20.0,40.0,stool10,baby carriage4,40.0,60.0,ASTOOL26.jpg,26373711.thl.jpg,/static/Category_learning/Stimuli/Experimental_stims/stool/ASTOOL26.jpg,/static/Category_learning/Stimuli/Experimental_stims/baby carriage/26373711.thl.jpg,,,,,,,,,,1.0,347.0,1.5,,,,,,
292,,isi,,html-keyboard-response,292,192093,0.0-1.0-31.0-0.35-2.35,0,0,65,,,,,,29.0,,,,,6.0,,,,,,,,,,,,,,,,,,,,,,,,,,,348.5,1.5,,0.21,,,,
293,,final_tally,,html-keyboard-response,293,195401,0.0-2.0-0.0,0,0,65,,3304.0,,,50.0,,,,,,,,,,,,,,,,,,,,,,,,,,,,,,,,,,,,,,,,
