,success,ttype,start_time,trial_type,trial_index,time_elapsed,internal_node_id,warning,missed_checkup,PID,view_history,rt,responses,repeat_instructions,key_press,index,trial_num,isi,iti,is_practice,block,old_trial,pair_type,within_category,high_cat_on_left,left_category,right_category,left_category_value,right_category_value,left_exemplar,right_exemplar,left_exemplar_value,right_exemplar_value,left_img,right_img,left_img_path,right_img_path,left_chosen,chosen_category,unchosen_category,chosen_category_value,unchosen_category_value,chosen_exemplar,unchosen_exemplar,chosen_exemplar_value,unchosen_exemplar_value,no_response,onset,duration,end_practice,total_bonus_tally,category,category_group_value,category_value_response,did_not_enter_response
0,True,full_screen,d06072022hr1119,fullscreen,0,24138,0.0-0.0,0,0,76870,,,,,,,,,,,,,,,,,,,,,,,,,,,,,,,,,,,,,,,,,,,,,
1,,category_learning_instructions,,instructions,1,116249,0.0-1.0-0.0-0.0,0,0,76870,"[{""page_index"":0,""viewing_time"":22522},{""page_index"":1,""viewing_time"":11591},{""page_index"":2,""viewing_time"":15888},{""page_index"":3,""viewing_time"":12664},{""page_index"":4,""viewing_time"":20296},{""page_index"":5,""viewing_time"":5664},{""page_index"":6,""viewing_time"":3480}]",92106.0,,,,,,,,,,,,,,,,,,,,,,,,,,,,,,,,,,,,,,,,,,,
2,,category_learning_comprehension_check,,survey-multi-choice,2,152660,0.0-1.0-0.0-1.0,0,0,76870,,36401.0,"{""Q0"":""True"",""Q1"":""True"",""Q2"":""Stay the same"",""Q3"":""D for left and K for right""}",0.0,,,,,,,,,,,,,,,,,,,,,,,,,,,,,,,,,,,,,,,,,
3,,,,html-keyboard-response,3,157568,0.0-1.0-1.0,0,0,76870,,4897.0,,,68.0,,,,,,,,,,,,,,,,,,,,,,,,,,,,,,,,,,,,,,,,
4,,choice,,html-keyboard-response,4,158634,0.0-1.0-2.0-0.0-0.0,0,0,76870,,1059.0,,,75.0,0.0,0.0,1500.0,1000.0,1.0,0.0,0.0,20-80,,0.0,bagel,dumbbell,20.0,80.0,bagel1,dumbbell1,0.0,80.0,bagels_pumpernickel_large.jpg,31B64EN68AL._AA280_.jpg,/static/Category_learning/Stimuli/Practice_stims/bagel/bagels_pumpernickel_large.jpg,/static/Category_learning/Stimuli/Practice_stims/dumbbell/31B64EN68AL._AA280_.jpg,0.0,dumbbell,bagel,80.0,20.0,dumbbell1,bagel1,80.0,0.0,0.0,1.059,1.059,,,,,,
5,,confirmation,,html-keyboard-response,5,159095,0.0-1.0-2.0-0.0-1.0-0.0,0,0,76870,,,,,,0.0,,,,,0.0,,,,,,,,,,,,,,,,,,,,,,,,,,,1.5,0.441,,,,,,
6,,isi,,html-keyboard-response,6,160610,0.0-1.0-2.0-0.0-2.0,0,0,76870,,,,,,0.0,,,,,0.0,,,,,,,,,,,,,,,,,,,,,,,,,,,3.0,1.5,,,,,,
7,,feedback,,html-keyboard-response,7,161626,0.0-1.0-2.0-0.0-3.0-0.0,0,0,76870,,,,,,0.0,,,,,0.0,,,,,,,,,,,,,,,,,,,,,,,,,,,4.0,1.0,,,,,,
8,,iti,,html-keyboard-response,8,162643,0.0-1.0-2.0-0.0-5.0,0,0,76870,,,,,,0.0,,,,,0.0,,,,,,,,,,,,,,,,,,,,,,,,,,,5.0,1.0,,,,,,
9,,choice,,html-keyboard-response,9,163650,0.0-1.0-3.0-0.0-0.0,0,0,76870,,1000.0,,,75.0,1.0,1.0,3000.0,1500.0,1.0,0.0,0.0,20-40,,1.0,calculator,bagel,40.0,20.0,calculator2,bagel2,20.0,20.0,22829064.thl.jpg,bagels_cinnraisin_large.jpg,/static/Category_learning/Stimuli/Practice_stims/calculator/22829064.thl.jpg,/static/Category_learning/Stimuli/Practice_stims/bagel/bagels_cinnraisin_large.jpg,0.0,bagel,calculator,20.0,40.0,bagel2,calculator2,20.0,20.0,0.0,6.0,1.0,,,,,,
10,,confirmation,,html-keyboard-response,10,164172,0.0-1.0-3.0-0.0-1.0-0.0,0,0,76870,,,,,,1.0,,,,,0.0,,,,,,,,,,,,,,,,,,,,,,,,,,,6.5,0.5,,,,,,
11,,isi,,html-keyboard-response,11,167193,0.0-1.0-3.0-0.0-2.0,0,0,76870,,,,,,1.0,,,,,0.0,,,,,,,,,,,,,,,,,,,,,,,,,,,9.5,3.0,,,,,,
12,,feedback,,html-keyboard-response,12,168206,0.0-1.0-3.0-0.0-3.0-0.0,0,0,76870,,,,,,1.0,,,,,0.0,,,,,,,,,,,,,,,,,,,,,,,,,,,10.5,1.0,,,,,,
13,,iti,,html-keyboard-response,13,169720,0.0-1.0-3.0-0.0-5.0,0,0,76870,,,,,,1.0,,,,,0.0,,,,,,,,,,,,,,,,,,,,,,,,,,,12.0,1.5,,,,,,
14,,choice,,html-keyboard-response,14,170795,0.0-1.0-4.0-0.0-0.0,0,0,76870,,1068.0,,,75.0,2.0,2.0,2000.0,3000.0,1.0,0.0,0.0,60-80,,0.0,clock,dumbbell,60.0,80.0,clock2,dumbbell2,60.0,100.0,26373355.thl.jpg,31K8MR6TMBL._SS500_.jpg,/static/Category_learning/Stimuli/Practice_stims/clock/26373355.thl.jpg,/static/Category_learning/Stimuli/Practice_stims/dumbbell/31K8MR6TMBL._SS500_.jpg,0.0,dumbbell,clock,80.0,60.0,dumbbell2,clock2,100.0,60.0,0.0,13.068,1.068,,,,,,
15,,confirmation,,html-keyboard-response,15,171239,0.0-1.0-4.0-0.0-1.0-0.0,0,0,76870,,,,,,2.0,,,,,0.0,,,,,,,,,,,,,,,,,,,,,,,,,,,13.5,0.432,,,,,,
16,,isi,,html-keyboard-response,16,173258,0.0-1.0-4.0-0.0-2.0,0,0,76870,,,,,,2.0,,,,,0.0,,,,,,,,,,,,,,,,,,,,,,,,,,,15.5,2.0,,,,,,
17,,feedback,,html-keyboard-response,17,174264,0.0-1.0-4.0-0.0-3.0-0.0,0,0,76870,,,,,,2.0,,,,,0.0,,,,,,,,,,,,,,,,,,,,,,,,,,,16.5,1.0,,,,,,
18,,iti,,html-keyboard-response,18,177287,0.0-1.0-4.0-0.0-5.0,0,0,76870,,,,,,2.0,,,,,0.0,,,,,,,,,,,,,,,,,,,,,,,,,,,19.5,3.0,,,,,,
19,,choice,,html-keyboard-response,19,178797,0.0-1.0-5.0-0.0-0.0,0,0,76870,,,,,,3.0,3.0,1000.0,2000.0,1.0,0.0,0.0,40-80,,0.0,calculator,clock,40.0,60.0,calculator1,clock1,40.0,40.0,22829184.thl.jpg,Aalarmclock2.jpg,/static/Category_learning/Stimuli/Practice_stims/calculator/22829184.thl.jpg,/static/Category_learning/Stimuli/Practice_stims/clock/Aalarmclock2.jpg,,,,,,,,,,1.0,21.0,1.5,,,,,,
20,,isi,,html-keyboard-response,20,179815,0.0-1.0-5.0-0.0-2.0,0,0,76870,,,,,,3.0,,,,,0.0,,,,,,,,,,,,,,,,,,,,,,,,,,,22.0,1.0,,,,,,
21,,no_response,,html-keyboard-response,21,180821,0.0-1.0-5.0-0.0-4.0-0.0,0,0,76870,,,,,,3.0,,,,,0.0,,,,,,,,,,,,,,,,,,,,,,,,,,,23.0,1.0,,,,,,
22,,iti,,html-keyboard-response,22,182837,0.0-1.0-5.0-0.0-5.0,0,0,76870,,,,,,3.0,,,,,0.0,,,,,,,,,,,,,,,,,,,,,,,,,,,25.0,2.0,,,,,,
23,,choice,,html-keyboard-response,23,183540,0.0-1.0-5.0-0.1-0.1,0,0,76870,,697.0,,,75.0,3.0,3.0,1000.0,2000.0,1.0,0.0,0.0,40-80,,0.0,calculator,clock,40.0,60.0,calculator1,clock1,40.0,40.0,22829184.thl.jpg,Aalarmclock2.jpg,/static/Category_learning/Stimuli/Practice_stims/calculator/22829184.thl.jpg,/static/Category_learning/Stimuli/Practice_stims/clock/Aalarmclock2.jpg,0.0,clock,calculator,60.0,40.0,clock1,calculator1,40.0,40.0,0.0,25.697,0.697,,,,,,
24,,confirmation,,html-keyboard-response,24,184363,0.0-1.0-5.0-0.1-1.1-0.1,0,0,76870,,,,,,3.0,,,,,0.0,,,,,,,,,,,,,,,,,,,,,,,,,,,26.5,0.803,,,,,,
25,,isi,,html-keyboard-response,25,185374,0.0-1.0-5.0-0.1-2.1,0,0,76870,,,,,,3.0,,,,,0.0,,,,,,,,,,,,,,,,,,,,,,,,,,,27.5,1.0,,,,,,
26,,feedback,,html-keyboard-response,26,186423,0.0-1.0-5.0-0.1-3.1-0.1,0,0,76870,,,,,,3.0,,,,,0.0,,,,,,,,,,,,,,,,,,,,,,,,,,,28.5,1.0,,,,,,
27,,iti,,html-keyboard-response,27,188430,0.0-1.0-5.0-0.1-5.1,0,0,76870,,,,,,3.0,,,,,0.0,,,,,,,,,,,,,,,,,,,,,,,,,,,30.5,2.0,,,,,,
28,,choice,,html-keyboard-response,28,189101,0.0-1.0-6.0-0.0-0.0,0,0,76870,,665.0,,,68.0,4.0,4.0,2500.0,2500.0,1.0,0.0,0.0,20-60,,1.0,dumbbell,bagel,80.0,20.0,dumbbell3,bagel3,100.0,40.0,41K7QVRX50L._SS500_.jpg,photo-169.jpg,/static/Category_learning/Stimuli/Practice_stims/dumbbell/41K7QVRX50L._SS500_.jpg,/static/Category_learning/Stimuli/Practice_stims/bagel/photo-169.jpg,1.0,dumbbell,bagel,80.0,20.0,dumbbell3,bagel3,100.0,40.0,0.0,31.165,0.665,1.0,,,,,
29,,confirmation,,html-keyboard-response,29,189951,0.0-1.0-6.0-0.0-1.0-0.0,0,0,76870,,,,,,4.0,,,,,0.0,,,,,,,,,,,,,,,,,,,,,,,,,,,32.0,0.835,,,,,,
30,,isi,,html-keyboard-response,30,192458,0.0-1.0-6.0-0.0-2.0,0,0,76870,,,,,,4.0,,,,,0.0,,,,,,,,,,,,,,,,,,,,,,,,,,,34.5,2.5,,,,,,
31,,feedback,,html-keyboard-response,31,193465,0.0-1.0-6.0-0.0-3.0-0.0,0,0,76870,,,,,,4.0,,,,,0.0,,,,,,,,,,,,,,,,,,,,,,,,,,,35.5,1.0,,,,,,
32,,iti,,html-keyboard-response,32,195984,0.0-1.0-6.0-0.0-5.0,0,0,76870,,,,,,4.0,,,,,0.0,,,,,,,,,,,,,,,,,,,,,,,,,,,38.0,2.5,,,,,,
33,,practice_over,,html-keyboard-response,33,199801,0.0-1.0-6.0-0.0-6.0-0.0,0,0,76870,,3812.0,,,68.0,4.0,,,,,,,,,,,,,,,,,,,,,,,,,,,,,,,,,,,,,,,
34,,start_run,,html-keyboard-response,34,206153,0.0-1.0-6.0-0.0-6.0-1.0,0,0,76870,,6348.0,,,84.0,,,,,,,,,,,,,,,,,,,,,,,,,,,,,,,,,,,,,,,,
35,,choice,,html-keyboard-response,35,207661,0.0-1.0-7.0-0.0-0.0,0,0,76870,,,,,,5.0,5.0,2000.0,3500.0,0.0,1.0,0.0,20-60,,0.0,necklace,bench,20.0,60.0,necklace15,bench3,40.0,40.0,necklascenew04.jpg,26419540.thl.jpg,/static/Category_learning/Stimuli/Experimental_stims/necklace/necklascenew04.jpg,/static/Category_learning/Stimuli/Experimental_stims/bench/26419540.thl.jpg,,,,,,,,,,1.0,1.5,1.5,,,,,,
36,,isi,,html-keyboard-response,36,209675,0.0-1.0-7.0-0.0-2.0,0,0,76870,,,,,,5.0,,,,,1.0,,,,,,,,,,,,,,,,,,,,,,,,,,,3.5,2.0,,,,,,
37,,no_response,,html-keyboard-response,37,210693,0.0-1.0-7.0-0.0-4.0-0.0,0,0,76870,,,,,,5.0,,,,,1.0,,,,,,,,,,,,,,,,,,,,,,,,,,,4.5,1.0,,,,,,
38,,iti,,html-keyboard-response,38,214237,0.0-1.0-7.0-0.0-5.0,0,0,76870,,,,,,5.0,,,,,1.0,,,,,,,,,,,,,,,,,,,,,,,,,,,8.0,3.5,,,,,,
39,,choice,,html-keyboard-response,39,214721,0.0-1.0-7.0-0.1-0.1,0,0,76870,,478.0,,,68.0,5.0,5.0,2000.0,3500.0,0.0,1.0,0.0,20-60,,0.0,necklace,bench,20.0,60.0,necklace15,bench3,40.0,40.0,necklascenew04.jpg,26419540.thl.jpg,/static/Category_learning/Stimuli/Experimental_stims/necklace/necklascenew04.jpg,/static/Category_learning/Stimuli/Experimental_stims/bench/26419540.thl.jpg,1.0,necklace,bench,20.0,60.0,necklace15,bench3,40.0,40.0,0.0,8.478,0.478,,,,,,
40,,confirmation,,html-keyboard-response,40,215749,0.0-1.0-7.0-0.1-1.1-0.1,0,0,76870,,,,,,5.0,,,,,1.0,,,,,,,,,,,,,,,,,,,,,,,,,,,9.5,1.022,,,,,,
41,,isi,,html-keyboard-response,41,217754,0.0-1.0-7.0-0.1-2.1,0,0,76870,,,,,,5.0,,,,,1.0,,,,,,,,,,,,,,,,,,,,,,,,,,,11.5,2.0,,,,,,
42,,feedback,,html-keyboard-response,42,218773,0.0-1.0-7.0-0.1-3.1-0.1,0,0,76870,,,,,,5.0,,,,,1.0,,,,,,,,,,,,,,,,,,,,,,,,,,,12.5,1.0,,,,,,
43,,iti,,html-keyboard-response,43,220279,0.0-1.0-7.0-0.1-5.1,0,0,76870,,,,,,5.0,,,,,1.0,,,,,,,,,,,,,,,,,,,,,,,,,,,14.0,1.5,,,,,,
44,,choice,,html-keyboard-response,44,221033,0.0-1.0-8.0-0.0-0.0,0,0,76870,,748.0,,,75.0,6.0,6.0,2000.0,1000.0,0.0,1.0,0.0,20-20,,,power strip,seashell,20.0,20.0,power strip8,seashell7,40.0,20.0,3118YGHQWXL._AA262_.jpg,seashell34.jpg,/static/Category_learning/Stimuli/Experimental_stims/power strip/3118YGHQWXL._AA262_.jpg,/static/Category_learning/Stimuli/Experimental_stims/seashell/seashell34.jpg,0.0,seashell,power strip,20.0,20.0,seashell7,power strip8,20.0,40.0,0.0,14.748,0.748,,,,,,
45,,confirmation,,html-keyboard-response,45,221790,0.0-1.0-8.0-0.0-1.0-0.0,0,0,76870,,,,,,6.0,,,,,1.0,,,,,,,,,,,,,,,,,,,,,,,,,,,15.5,0.752,,,,,,
46,,isi,,html-keyboard-response,46,223806,0.0-1.0-8.0-0.0-2.0,0,0,76870,,,,,,6.0,,,,,1.0,,,,,,,,,,,,,,,,,,,,,,,,,,,17.5,2.0,,,,,,
47,,feedback,,html-keyboard-response,47,224812,0.0-1.0-8.0-0.0-3.0-0.0,0,0,76870,,,,,,6.0,,,,,1.0,,,,,,,,,,,,,,,,,,,,,,,,,,,18.5,1.0,,,,,,
48,,iti,,html-keyboard-response,48,225820,0.0-1.0-8.0-0.0-5.0,0,0,76870,,,,,,6.0,,,,,1.0,,,,,,,,,,,,,,,,,,,,,,,,,,,19.5,1.0,,,,,,
49,,choice,,html-keyboard-response,49,226550,0.0-1.0-9.0-0.0-0.0,0,0,76870,,724.0,,,68.0,7.0,7.0,1500.0,2000.0,0.0,1.0,0.0,20-40,,1.0,telescope,poker card,40.0,20.0,telescope1,poker card9,20.0,40.0,celestron nexstar 114 gt reflector telescope.jpg,9817230.thl.jpg,/static/Category_learning/Stimuli/Experimental_stims/telescope/celestron nexstar 114 gt reflector telescope.jpg,/static/Category_learning/Stimuli/Experimental_stims/poker card/9817230.thl.jpg,1.0,telescope,poker card,40.0,20.0,telescope1,poker card9,20.0,40.0,0.0,20.224,0.724,,,,,,
50,,confirmation,,html-keyboard-response,50,227331,0.0-1.0-9.0-0.0-1.0-0.0,0,0,76870,,,,,,7.0,,,,,1.0,,,,,,,,,,,,,,,,,,,,,,,,,,,21.0,0.776,,,,,,
51,,isi,,html-keyboard-response,51,228839,0.0-1.0-9.0-0.0-2.0,0,0,76870,,,,,,7.0,,,,,1.0,,,,,,,,,,,,,,,,,,,,,,,,,,,22.5,1.5,,,,,,
52,,feedback,,html-keyboard-response,52,229860,0.0-1.0-9.0-0.0-3.0-0.0,0,0,76870,,,,,,7.0,,,,,1.0,,,,,,,,,,,,,,,,,,,,,,,,,,,23.5,1.0,,,,,,
53,,iti,,html-keyboard-response,53,231869,0.0-1.0-9.0-0.0-5.0,0,0,76870,,,,,,7.0,,,,,1.0,,,,,,,,,,,,,,,,,,,,,,,,,,,25.5,2.0,,,,,,
54,,choice,,html-keyboard-response,54,232589,0.0-1.0-10.0-0.0-0.0,0,0,76870,,714.0,,,75.0,8.0,8.0,3500.0,1000.0,0.0,1.0,0.0,60-60,,,door knob,dresser,60.0,60.0,door knob7,dresser4,40.0,80.0,doorknob2.jpg,ADRESSE40.jpg,/static/Category_learning/Stimuli/Experimental_stims/door knob/doorknob2.jpg,/static/Category_learning/Stimuli/Experimental_stims/dresser/ADRESSE40.jpg,0.0,dresser,door knob,60.0,60.0,dresser4,door knob7,80.0,40.0,0.0,26.214,0.714,,,,,,
55,,confirmation,,html-keyboard-response,55,233391,0.0-1.0-10.0-0.0-1.0-0.0,0,0,76870,,,,,,8.0,,,,,1.0,,,,,,,,,,,,,,,,,,,,,,,,,,,27.0,0.786,,,,,,
56,,isi,,html-keyboard-response,56,236896,0.0-1.0-10.0-0.0-2.0,0,0,76870,,,,,,8.0,,,,,1.0,,,,,,,,,,,,,,,,,,,,,,,,,,,30.5,3.5,,,,,,
57,,feedback,,html-keyboard-response,57,237913,0.0-1.0-10.0-0.0-3.0-0.0,0,0,76870,,,,,,8.0,,,,,1.0,,,,,,,,,,,,,,,,,,,,,,,,,,,31.5,1.0,,,,,,
58,,iti,,html-keyboard-response,58,238930,0.0-1.0-10.0-0.0-5.0,0,0,76870,,,,,,8.0,,,,,1.0,,,,,,,,,,,,,,,,,,,,,,,,,,,32.5,1.0,,,,,,
59,,choice,,html-keyboard-response,59,239682,0.0-1.0-11.0-0.0-0.0,0,0,76870,,747.0,,,68.0,9.0,9.0,1000.0,1000.0,0.0,1.0,0.0,20-60,,0.0,poker card,desk,20.0,60.0,poker card8,desk13,20.0,80.0,22864392.thl.jpg,26427865.thl.jpg,/static/Category_learning/Stimuli/Experimental_stims/poker card/22864392.thl.jpg,/static/Category_learning/Stimuli/Experimental_stims/desk/26427865.thl.jpg,1.0,poker card,desk,20.0,60.0,poker card8,desk13,20.0,80.0,0.0,33.247,0.747,,,,,,
60,,confirmation,,html-keyboard-response,60,240448,0.0-1.0-11.0-0.0-1.0-0.0,0,0,76870,,,,,,9.0,,,,,1.0,,,,,,,,,,,,,,,,,,,,,,,,,,,34.0,0.753,,,,,,
61,,isi,,html-keyboard-response,61,241453,0.0-1.0-11.0-0.0-2.0,0,0,76870,,,,,,9.0,,,,,1.0,,,,,,,,,,,,,,,,,,,,,,,,,,,35.0,1.0,,,,,,
62,,feedback,,html-keyboard-response,62,242459,0.0-1.0-11.0-0.0-3.0-0.0,0,0,76870,,,,,,9.0,,,,,1.0,,,,,,,,,,,,,,,,,,,,,,,,,,,36.0,1.0,,,,,,
63,,iti,,html-keyboard-response,63,243478,0.0-1.0-11.0-0.0-5.0,0,0,76870,,,,,,9.0,,,,,1.0,,,,,,,,,,,,,,,,,,,,,,,,,,,37.0,1.0,,,,,,
64,,choice,,html-keyboard-response,64,244146,0.0-1.0-12.0-0.0-0.0,0,0,76870,,663.0,,,68.0,10.0,10.0,1000.0,1000.0,0.0,1.0,0.0,20-60,,1.0,bench,nail polish,60.0,20.0,bench8,nail polish6,80.0,0.0,APARKBE14.jpg,127_t.jpg,/static/Category_learning/Stimuli/Experimental_stims/bench/APARKBE14.jpg,/static/Category_learning/Stimuli/Experimental_stims/nail polish/127_t.jpg,1.0,bench,nail polish,60.0,20.0,bench8,nail polish6,80.0,0.0,0.0,37.663,0.663,,,,,,
65,,confirmation,,html-keyboard-response,65,244990,0.0-1.0-12.0-0.0-1.0-0.0,0,0,76870,,,,,,10.0,,,,,1.0,,,,,,,,,,,,,,,,,,,,,,,,,,,38.5,0.837,,,,,,
66,,isi,,html-keyboard-response,66,245996,0.0-1.0-12.0-0.0-2.0,0,0,76870,,,,,,10.0,,,,,1.0,,,,,,,,,,,,,,,,,,,,,,,,,,,39.5,1.0,,,,,,
67,,feedback,,html-keyboard-response,67,247004,0.0-1.0-12.0-0.0-3.0-0.0,0,0,76870,,,,,,10.0,,,,,1.0,,,,,,,,,,,,,,,,,,,,,,,,,,,40.5,1.0,,,,,,
68,,iti,,html-keyboard-response,68,248024,0.0-1.0-12.0-0.0-5.0,0,0,76870,,,,,,10.0,,,,,1.0,,,,,,,,,,,,,,,,,,,,,,,,,,,41.5,1.0,,,,,,
69,,choice,,html-keyboard-response,69,248492,0.0-1.0-13.0-0.0-0.0,0,0,76870,,463.0,,,75.0,11.0,11.0,1500.0,3000.0,0.0,1.0,0.0,20-80,,0.0,pen,microscope,20.0,80.0,pen11,microscope4,0.0,80.0,pen01.jpg,55071208.JPG,/static/Category_learning/Stimuli/Experimental_stims/pen/pen01.jpg,/static/Category_learning/Stimuli/Experimental_stims/microscope/55071208.JPG,0.0,microscope,pen,80.0,20.0,microscope4,pen11,80.0,0.0,0.0,41.963,0.463,,,,,,
70,,confirmation,,html-keyboard-response,70,249538,0.0-1.0-13.0-0.0-1.0-0.0,0,0,76870,,,,,,11.0,,,,,1.0,,,,,,,,,,,,,,,,,,,,,,,,,,,43.0,1.037,,,,,,
71,,isi,,html-keyboard-response,71,251055,0.0-1.0-13.0-0.0-2.0,0,0,76870,,,,,,11.0,,,,,1.0,,,,,,,,,,,,,,,,,,,,,,,,,,,44.5,1.5,,,,,,
72,,feedback,,html-keyboard-response,72,252075,0.0-1.0-13.0-0.0-3.0-0.0,0,0,76870,,,,,,11.0,,,,,1.0,,,,,,,,,,,,,,,,,,,,,,,,,,,45.5,1.0,,,,,,
73,,iti,,html-keyboard-response,73,255086,0.0-1.0-13.0-0.0-5.0,0,0,76870,,,,,,11.0,,,,,1.0,,,,,,,,,,,,,,,,,,,,,,,,,,,48.5,3.0,,,,,,
74,,choice,,html-keyboard-response,74,255793,0.0-1.0-14.0-0.0-0.0,0,0,76870,,701.0,,,68.0,12.0,12.0,1500.0,2000.0,0.0,1.0,0.0,20-60,,0.0,necklace,bowl,20.0,60.0,necklace1,bowl14,0.0,60.0,26443173.thl.jpg,Aredglassbowl.jpg,/static/Category_learning/Stimuli/Experimental_stims/necklace/26443173.thl.jpg,/static/Category_learning/Stimuli/Experimental_stims/bowl/Aredglassbowl.jpg,1.0,necklace,bowl,20.0,60.0,necklace1,bowl14,0.0,60.0,0.0,49.201,0.701,,,,,,
75,,confirmation,,html-keyboard-response,75,256599,0.0-1.0-14.0-0.0-1.0-0.0,0,0,76870,,,,,,12.0,,,,,1.0,,,,,,,,,,,,,,,,,,,,,,,,,,,50.0,0.799,,,,,,
76,,isi,,html-keyboard-response,76,258114,0.0-1.0-14.0-0.0-2.0,0,0,76870,,,,,,12.0,,,,,1.0,,,,,,,,,,,,,,,,,,,,,,,,,,,51.5,1.5,,,,,,
77,,feedback,,html-keyboard-response,77,259129,0.0-1.0-14.0-0.0-3.0-0.0,0,0,76870,,,,,,12.0,,,,,1.0,,,,,,,,,,,,,,,,,,,,,,,,,,,52.5,1.0,,,,,,
78,,iti,,html-keyboard-response,78,261147,0.0-1.0-14.0-0.0-5.0,0,0,76870,,,,,,12.0,,,,,1.0,,,,,,,,,,,,,,,,,,,,,,,,,,,54.5,2.0,,,,,,
79,,choice,,html-keyboard-response,79,261915,0.0-1.0-15.0-0.0-0.0,0,0,76870,,761.0,,,68.0,13.0,13.0,3500.0,3500.0,0.0,1.0,1.0,20-20,1.0,,necklace,necklace,20.0,20.0,necklace15,necklace1,40.0,0.0,necklascenew04.jpg,26443173.thl.jpg,/static/Category_learning/Stimuli/Experimental_stims/necklace/necklascenew04.jpg,/static/Category_learning/Stimuli/Experimental_stims/necklace/26443173.thl.jpg,1.0,necklace,necklace,20.0,20.0,necklace15,necklace1,40.0,0.0,0.0,55.261,0.761,,,,,,
80,,confirmation,,html-keyboard-response,80,262662,0.0-1.0-15.0-0.0-1.0-0.0,0,0,76870,,,,,,13.0,,,,,1.0,,,,,,,,,,,,,,,,,,,,,,,,,,,56.0,0.739,,,,,,
81,,isi,,html-keyboard-response,81,266167,0.0-1.0-15.0-0.0-2.0,0,0,76870,,,,,,13.0,,,,,1.0,,,,,,,,,,,,,,,,,,,,,,,,,,,59.5,3.5,,,,,,
82,,feedback,,html-keyboard-response,82,267172,0.0-1.0-15.0-0.0-3.0-0.0,0,0,76870,,,,,,13.0,,,,,1.0,,,,,,,,,,,,,,,,,,,,,,,,,,,60.5,1.0,,,,,,
83,,iti,,html-keyboard-response,83,270687,0.0-1.0-15.0-0.0-5.0,0,0,76870,,,,,,13.0,,,,,1.0,,,,,,,,,,,,,,,,,,,,,,,,,,,64.0,3.5,,,,,,
84,,choice,,html-keyboard-response,84,271513,0.0-1.0-16.0-0.0-0.0,0,0,76870,,821.0,,,75.0,14.0,14.0,1000.0,1000.0,0.0,1.0,0.0,60-80,,1.0,microscope,bench,80.0,60.0,microscope12,bench12,60.0,80.0,usbdigitalmicroscope1_small1.jpg,22927976.thl.jpg,/static/Category_learning/Stimuli/Experimental_stims/microscope/usbdigitalmicroscope1_small1.jpg,/static/Category_learning/Stimuli/Experimental_stims/bench/22927976.thl.jpg,0.0,bench,microscope,60.0,80.0,bench12,microscope12,80.0,60.0,0.0,64.821,0.821,,,,,,
85,,confirmation,,html-keyboard-response,85,272206,0.0-1.0-16.0-0.0-1.0-0.0,0,0,76870,,,,,,14.0,,,,,1.0,,,,,,,,,,,,,,,,,,,,,,,,,,,65.5,0.679,,,,,,
86,,isi,,html-keyboard-response,86,273213,0.0-1.0-16.0-0.0-2.0,0,0,76870,,,,,,14.0,,,,,1.0,,,,,,,,,,,,,,,,,,,,,,,,,,,66.5,1.0,,,,,,
87,,feedback,,html-keyboard-response,87,274227,0.0-1.0-16.0-0.0-3.0-0.0,0,0,76870,,,,,,14.0,,,,,1.0,,,,,,,,,,,,,,,,,,,,,,,,,,,67.5,1.0,,,,,,
88,,iti,,html-keyboard-response,88,275232,0.0-1.0-16.0-0.0-5.0,0,0,76870,,,,,,14.0,,,,,1.0,,,,,,,,,,,,,,,,,,,,,,,,,,,68.5,1.0,,,,,,
89,,choice,,html-keyboard-response,89,275977,0.0-1.0-17.0-0.0-0.0,0,0,76870,,740.0,,,75.0,15.0,15.0,1000.0,1000.0,0.0,1.0,1.0,60-60,1.0,,bench,bench,60.0,60.0,bench8,bench12,80.0,80.0,APARKBE14.jpg,22927976.thl.jpg,/static/Category_learning/Stimuli/Experimental_stims/bench/APARKBE14.jpg,/static/Category_learning/Stimuli/Experimental_stims/bench/22927976.thl.jpg,0.0,bench,bench,60.0,60.0,bench12,bench8,80.0,80.0,0.0,69.24,0.74,,,,,,
90,,confirmation,,html-keyboard-response,90,276747,0.0-1.0-17.0-0.0-1.0-0.0,0,0,76870,,,,,,15.0,,,,,1.0,,,,,,,,,,,,,,,,,,,,,,,,,,,70.0,0.76,,,,,,
91,,isi,,html-keyboard-response,91,277763,0.0-1.0-17.0-0.0-2.0,0,0,76870,,,,,,15.0,,,,,1.0,,,,,,,,,,,,,,,,,,,,,,,,,,,71.0,1.0,,,,,,
92,,feedback,,html-keyboard-response,92,278783,0.0-1.0-17.0-0.0-3.0-0.0,0,0,76870,,,,,,15.0,,,,,1.0,,,,,,,,,,,,,,,,,,,,,,,,,,,72.0,1.0,,,,,,
93,,iti,,html-keyboard-response,93,279795,0.0-1.0-17.0-0.0-5.0,0,0,76870,,,,,,15.0,,,,,1.0,,,,,,,,,,,,,,,,,,,,,,,,,,,73.0,1.0,,,,,,
94,,choice,,html-keyboard-response,94,280651,0.0-1.0-18.0-0.0-0.0,0,0,76870,,850.0,,,75.0,16.0,16.0,1000.0,1000.0,0.0,1.0,0.0,20-40,,0.0,poker card,yarn,20.0,40.0,poker card3,yarn4,0.0,40.0,9817131.thl.jpg,amethyst dreaming boho hy sml.jpg,/static/Category_learning/Stimuli/Experimental_stims/poker card/9817131.thl.jpg,/static/Category_learning/Stimuli/Experimental_stims/yarn/amethyst dreaming boho hy sml.jpg,0.0,yarn,poker card,40.0,20.0,yarn4,poker card3,40.0,0.0,0.0,73.85,0.85,,,,,,
95,,confirmation,,html-keyboard-response,95,281321,0.0-1.0-18.0-0.0-1.0-0.0,0,0,76870,,,,,,16.0,,,,,1.0,,,,,,,,,,,,,,,,,,,,,,,,,,,74.5,0.65,,,,,,
96,,isi,,html-keyboard-response,96,282333,0.0-1.0-18.0-0.0-2.0,0,0,76870,,,,,,16.0,,,,,1.0,,,,,,,,,,,,,,,,,,,,,,,,,,,75.5,1.0,,,,,,
97,,feedback,,html-keyboard-response,97,283340,0.0-1.0-18.0-0.0-3.0-0.0,0,0,76870,,,,,,16.0,,,,,1.0,,,,,,,,,,,,,,,,,,,,,,,,,,,76.5,1.0,,,,,,
98,,iti,,html-keyboard-response,98,284346,0.0-1.0-18.0-0.0-5.0,0,0,76870,,,,,,16.0,,,,,1.0,,,,,,,,,,,,,,,,,,,,,,,,,,,77.5,1.0,,,,,,
99,,choice,,html-keyboard-response,99,285087,0.0-1.0-19.0-0.0-0.0,0,0,76870,,736.0,,,68.0,17.0,17.0,3500.0,1000.0,0.0,1.0,0.0,40-80,,0.0,trumpet,microscope,40.0,80.0,trumpet11,microscope8,20.0,80.0,JUPITER+JTR604L.jpg,AMICROS21.jpg,/static/Category_learning/Stimuli/Experimental_stims/trumpet/JUPITER+JTR604L.jpg,/static/Category_learning/Stimuli/Experimental_stims/microscope/AMICROS21.jpg,1.0,trumpet,microscope,40.0,80.0,trumpet11,microscope8,20.0,80.0,0.0,78.236,0.736,,,,,,
100,,confirmation,,html-keyboard-response,100,285870,0.0-1.0-19.0-0.0-1.0-0.0,0,0,76870,,,,,,17.0,,,,,1.0,,,,,,,,,,,,,,,,,,,,,,,,,,,79.0,0.764,,,,,,
101,,isi,,html-keyboard-response,101,289379,0.0-1.0-19.0-0.0-2.0,0,0,76870,,,,,,17.0,,,,,1.0,,,,,,,,,,,,,,,,,,,,,,,,,,,82.5,3.5,,,,,,
102,,feedback,,html-keyboard-response,102,290390,0.0-1.0-19.0-0.0-3.0-0.0,0,0,76870,,,,,,17.0,,,,,1.0,,,,,,,,,,,,,,,,,,,,,,,,,,,83.5,1.0,,,,,,
103,,iti,,html-keyboard-response,103,291397,0.0-1.0-19.0-0.0-5.0,0,0,76870,,,,,,17.0,,,,,1.0,,,,,,,,,,,,,,,,,,,,,,,,,,,84.5,1.0,,,,,,
104,,choice,,html-keyboard-response,104,292224,0.0-1.0-20.0-0.0-0.0,0,0,76870,,822.0,,,68.0,18.0,18.0,1500.0,1000.0,0.0,1.0,0.0,60-80,,0.0,baby carriage,hammer,60.0,80.0,baby carriage5,hammer8,80.0,80.0,Baby_Stroller.jpg,ct1006_hammer.jpg,/static/Category_learning/Stimuli/Experimental_stims/baby carriage/Baby_Stroller.jpg,/static/Category_learning/Stimuli/Experimental_stims/hammer/ct1006_hammer.jpg,1.0,baby carriage,hammer,60.0,80.0,baby carriage5,hammer8,80.0,80.0,0.0,85.322,0.822,,,,,,
105,,confirmation,,html-keyboard-response,105,292917,0.0-1.0-20.0-0.0-1.0-0.0,0,0,76870,,,,,,18.0,,,,,1.0,,,,,,,,,,,,,,,,,,,,,,,,,,,86.0,0.678,,,,,,
106,,isi,,html-keyboard-response,106,294427,0.0-1.0-20.0-0.0-2.0,0,0,76870,,,,,,18.0,,,,,1.0,,,,,,,,,,,,,,,,,,,,,,,,,,,87.5,1.5,,,,,,
107,,feedback,,html-keyboard-response,107,295433,0.0-1.0-20.0-0.0-3.0-0.0,0,0,76870,,,,,,18.0,,,,,1.0,,,,,,,,,,,,,,,,,,,,,,,,,,,88.5,1.0,,,,,,
108,,iti,,html-keyboard-response,108,296442,0.0-1.0-20.0-0.0-5.0,0,0,76870,,,,,,18.0,,,,,1.0,,,,,,,,,,,,,,,,,,,,,,,,,,,89.5,1.0,,,,,,
109,,choice,,html-keyboard-response,109,297218,0.0-1.0-21.0-0.0-0.0,0,0,76870,,771.0,,,68.0,19.0,19.0,1500.0,3500.0,0.0,1.0,0.0,60-60,,,fan,flashlight,60.0,60.0,fan6,flashlight1,60.0,40.0,30090.fpx.jpg,Graphite3D.jpg,/static/Category_learning/Stimuli/Experimental_stims/fan/30090.fpx.jpg,/static/Category_learning/Stimuli/Experimental_stims/flashlight/Graphite3D.jpg,1.0,fan,flashlight,60.0,60.0,fan6,flashlight1,60.0,40.0,0.0,90.271,0.771,,,,,,
110,,confirmation,,html-keyboard-response,110,297955,0.0-1.0-21.0-0.0-1.0-0.0,0,0,76870,,,,,,19.0,,,,,1.0,,,,,,,,,,,,,,,,,,,,,,,,,,,91.0,0.729,,,,,,
111,,isi,,html-keyboard-response,111,299465,0.0-1.0-21.0-0.0-2.0,0,0,76870,,,,,,19.0,,,,,1.0,,,,,,,,,,,,,,,,,,,,,,,,,,,92.5,1.5,,,,,,
112,,feedback,,html-keyboard-response,112,300475,0.0-1.0-21.0-0.0-3.0-0.0,0,0,76870,,,,,,19.0,,,,,1.0,,,,,,,,,,,,,,,,,,,,,,,,,,,93.5,1.0,,,,,,
113,,iti,,html-keyboard-response,113,303986,0.0-1.0-21.0-0.0-5.0,0,0,76870,,,,,,19.0,,,,,1.0,,,,,,,,,,,,,,,,,,,,,,,,,,,97.0,3.5,,,,,,
114,,choice,,html-keyboard-response,114,304480,0.0-1.0-22.0-0.0-0.0,0,0,76870,,489.0,,,75.0,20.0,20.0,1000.0,1000.0,0.0,1.0,0.0,20-80,,1.0,frame,patio lounge chair,80.0,20.0,frame11,patio lounge chair9,100.0,20.0,AFRAME139.jpg,43-3.jpg,/static/Category_learning/Stimuli/Experimental_stims/frame/AFRAME139.jpg,/static/Category_learning/Stimuli/Experimental_stims/patio lounge chair/43-3.jpg,0.0,patio lounge chair,frame,20.0,80.0,patio lounge chair9,frame11,20.0,100.0,0.0,97.489,0.489,,,,,,
115,,confirmation,,html-keyboard-response,115,305504,0.0-1.0-22.0-0.0-1.0-0.0,0,0,76870,,,,,,20.0,,,,,1.0,,,,,,,,,,,,,,,,,,,,,,,,,,,98.5,1.011,,,,,,
116,,isi,,html-keyboard-response,116,306509,0.0-1.0-22.0-0.0-2.0,0,0,76870,,,,,,20.0,,,,,1.0,,,,,,,,,,,,,,,,,,,,,,,,,,,99.5,1.0,,,,,,
117,,feedback,,html-keyboard-response,117,307515,0.0-1.0-22.0-0.0-3.0-0.0,0,0,76870,,,,,,20.0,,,,,1.0,,,,,,,,,,,,,,,,,,,,,,,,,,,100.5,1.0,,,,,,
118,,iti,,html-keyboard-response,118,308520,0.0-1.0-22.0-0.0-5.0,0,0,76870,,,,,,20.0,,,,,1.0,,,,,,,,,,,,,,,,,,,,,,,,,,,101.5,1.0,,,,,,
119,,choice,,html-keyboard-response,119,309396,0.0-1.0-23.0-0.0-0.0,0,0,76870,,870.0,,,68.0,21.0,21.0,2000.0,1000.0,0.0,1.0,0.0,40-80,,0.0,telescope,license plate,40.0,80.0,telescope11,license plate14,40.0,100.0,digimarc.ms03.jpg,fl-hel-bel.jpg,/static/Category_learning/Stimuli/Experimental_stims/telescope/digimarc.ms03.jpg,/static/Category_learning/Stimuli/Experimental_stims/license plate/fl-hel-bel.jpg,1.0,telescope,license plate,40.0,80.0,telescope11,license plate14,40.0,100.0,0.0,102.37,0.87,,,,,,
120,,confirmation,,html-keyboard-response,120,310035,0.0-1.0-23.0-0.0-1.0-0.0,0,0,76870,,,,,,21.0,,,,,1.0,,,,,,,,,,,,,,,,,,,,,,,,,,,103.0,0.63,,,,,,
121,,isi,,html-keyboard-response,121,312050,0.0-1.0-23.0-0.0-2.0,0,0,76870,,,,,,21.0,,,,,1.0,,,,,,,,,,,,,,,,,,,,,,,,,,,105.0,2.0,,,,,,
122,,feedback,,html-keyboard-response,122,313055,0.0-1.0-23.0-0.0-3.0-0.0,0,0,76870,,,,,,21.0,,,,,1.0,,,,,,,,,,,,,,,,,,,,,,,,,,,106.0,1.0,,,,,,
123,,iti,,html-keyboard-response,123,314061,0.0-1.0-23.0-0.0-5.0,0,0,76870,,,,,,21.0,,,,,1.0,,,,,,,,,,,,,,,,,,,,,,,,,,,107.0,1.0,,,,,,
124,,choice,,html-keyboard-response,124,314691,0.0-1.0-24.0-0.0-0.0,0,0,76870,,623.0,,,75.0,22.0,22.0,1000.0,1500.0,0.0,1.0,1.0,40-40,1.0,,telescope,telescope,40.0,40.0,telescope1,telescope11,20.0,40.0,celestron nexstar 114 gt reflector telescope.jpg,digimarc.ms03.jpg,/static/Category_learning/Stimuli/Experimental_stims/telescope/celestron nexstar 114 gt reflector telescope.jpg,/static/Category_learning/Stimuli/Experimental_stims/telescope/digimarc.ms03.jpg,0.0,telescope,telescope,40.0,40.0,telescope11,telescope1,40.0,20.0,0.0,107.623,0.623,,,,,,
125,,confirmation,,html-keyboard-response,125,315577,0.0-1.0-24.0-0.0-1.0-0.0,0,0,76870,,,,,,22.0,,,,,1.0,,,,,,,,,,,,,,,,,,,,,,,,,,,108.5,0.877,,,,,,
126,,isi,,html-keyboard-response,126,316582,0.0-1.0-24.0-0.0-2.0,0,0,76870,,,,,,22.0,,,,,1.0,,,,,,,,,,,,,,,,,,,,,,,,,,,109.5,1.0,,,,,,
127,,feedback,,html-keyboard-response,127,317590,0.0-1.0-24.0-0.0-3.0-0.0,0,0,76870,,,,,,22.0,,,,,1.0,,,,,,,,,,,,,,,,,,,,,,,,,,,110.5,1.0,,,,,,
128,,iti,,html-keyboard-response,128,319104,0.0-1.0-24.0-0.0-5.0,0,0,76870,,,,,,22.0,,,,,1.0,,,,,,,,,,,,,,,,,,,,,,,,,,,112.0,1.5,,,,,,
129,,choice,,html-keyboard-response,129,320005,0.0-1.0-25.0-0.0-0.0,0,0,76870,,896.0,,,75.0,23.0,23.0,1000.0,1500.0,0.0,1.0,0.0,40-80,,1.0,license plate,train,80.0,40.0,license plate9,train6,60.0,20.0,nm-dhg089.jpg,train9.jpg,/static/Category_learning/Stimuli/Experimental_stims/license plate/nm-dhg089.jpg,/static/Category_learning/Stimuli/Experimental_stims/train/train9.jpg,0.0,train,license plate,40.0,80.0,train6,license plate9,20.0,60.0,0.0,112.896,0.896,,,,,,
130,,confirmation,,html-keyboard-response,130,320627,0.0-1.0-25.0-0.0-1.0-0.0,0,0,76870,,,,,,23.0,,,,,1.0,,,,,,,,,,,,,,,,,,,,,,,,,,,113.5,0.604,,,,,,
131,,isi,,html-keyboard-response,131,321634,0.0-1.0-25.0-0.0-2.0,0,0,76870,,,,,,23.0,,,,,1.0,,,,,,,,,,,,,,,,,,,,,,,,,,,114.5,1.0,,,,,,
132,,feedback,,html-keyboard-response,132,322639,0.0-1.0-25.0-0.0-3.0-0.0,0,0,76870,,,,,,23.0,,,,,1.0,,,,,,,,,,,,,,,,,,,,,,,,,,,115.5,1.0,,,,,,
133,,iti,,html-keyboard-response,133,324153,0.0-1.0-25.0-0.0-5.0,0,0,76870,,,,,,23.0,,,,,1.0,,,,,,,,,,,,,,,,,,,,,,,,,,,117.0,1.5,,,,,,
134,,choice,,html-keyboard-response,134,324797,0.0-1.0-26.0-0.0-0.0,0,0,76870,,638.0,,,68.0,24.0,24.0,2000.0,1500.0,0.0,1.0,1.0,40-40,0.0,,train,trumpet,40.0,40.0,train6,trumpet11,20.0,20.0,train9.jpg,JUPITER+JTR604L.jpg,/static/Category_learning/Stimuli/Experimental_stims/train/train9.jpg,/static/Category_learning/Stimuli/Experimental_stims/trumpet/JUPITER+JTR604L.jpg,1.0,train,trumpet,40.0,40.0,train6,trumpet11,20.0,20.0,0.0,117.638,0.638,,,,,,
135,,confirmation,,html-keyboard-response,135,325664,0.0-1.0-26.0-0.0-1.0-0.0,0,0,76870,,,,,,24.0,,,,,1.0,,,,,,,,,,,,,,,,,,,,,,,,,,,118.5,0.862,,,,,,
136,,isi,,html-keyboard-response,136,327679,0.0-1.0-26.0-0.0-2.0,0,0,76870,,,,,,24.0,,,,,1.0,,,,,,,,,,,,,,,,,,,,,,,,,,,120.5,2.0,,,,,,
137,,feedback,,html-keyboard-response,137,328684,0.0-1.0-26.0-0.0-3.0-0.0,0,0,76870,,,,,,24.0,,,,,1.0,,,,,,,,,,,,,,,,,,,,,,,,,,,121.5,1.0,,,,,,
138,,iti,,html-keyboard-response,138,330200,0.0-1.0-26.0-0.0-5.0,0,0,76870,,,,,,24.0,,,,,1.0,,,,,,,,,,,,,,,,,,,,,,,,,,,123.0,1.5,,,,,,
139,,choice,,html-keyboard-response,139,330911,0.0-1.0-27.0-0.0-0.0,0,0,76870,,707.0,,,75.0,25.0,25.0,1500.0,2000.0,0.0,1.0,0.0,40-60,,0.0,trumpet,flashlight,40.0,60.0,trumpet4,flashlight2,20.0,60.0,JUPITER+JTR1000S.jpg,AV-9 No Battery Flashlight.jpg,/static/Category_learning/Stimuli/Experimental_stims/trumpet/JUPITER+JTR1000S.jpg,/static/Category_learning/Stimuli/Experimental_stims/flashlight/AV-9 No Battery Flashlight.jpg,0.0,flashlight,trumpet,60.0,40.0,flashlight2,trumpet4,60.0,20.0,0.0,123.707,0.707,,,,,,
140,,confirmation,,html-keyboard-response,140,331723,0.0-1.0-27.0-0.0-1.0-0.0,0,0,76870,,,,,,25.0,,,,,1.0,,,,,,,,,,,,,,,,,,,,,,,,,,,124.5,0.793,,,,,,
141,,isi,,html-keyboard-response,141,333244,0.0-1.0-27.0-0.0-2.0,0,0,76870,,,,,,25.0,,,,,1.0,,,,,,,,,,,,,,,,,,,,,,,,,,,126.0,1.5,,,,,,
142,,feedback,,html-keyboard-response,142,334249,0.0-1.0-27.0-0.0-3.0-0.0,0,0,76870,,,,,,25.0,,,,,1.0,,,,,,,,,,,,,,,,,,,,,,,,,,,127.0,1.0,,,,,,
143,,iti,,html-keyboard-response,143,336259,0.0-1.0-27.0-0.0-5.0,0,0,76870,,,,,,25.0,,,,,1.0,,,,,,,,,,,,,,,,,,,,,,,,,,,129.0,2.0,,,,,,
144,,choice,,html-keyboard-response,144,337100,0.0-1.0-28.0-0.0-0.0,0,0,76870,,836.0,,,75.0,26.0,26.0,1500.0,3000.0,0.0,1.0,0.0,40-60,,0.0,stool,bowl,40.0,60.0,stool9,bowl8,40.0,40.0,ASTOOL7.jpg,ASLVBOWL.jpg,/static/Category_learning/Stimuli/Experimental_stims/stool/ASTOOL7.jpg,/static/Category_learning/Stimuli/Experimental_stims/bowl/ASLVBOWL.jpg,0.0,bowl,stool,60.0,40.0,bowl8,stool9,40.0,40.0,0.0,129.836,0.836,,,,,,
145,,confirmation,,html-keyboard-response,145,337774,0.0-1.0-28.0-0.0-1.0-0.0,0,0,76870,,,,,,26.0,,,,,1.0,,,,,,,,,,,,,,,,,,,,,,,,,,,130.5,0.664,,,,,,
146,,isi,,html-keyboard-response,146,339286,0.0-1.0-28.0-0.0-2.0,0,0,76870,,,,,,26.0,,,,,1.0,,,,,,,,,,,,,,,,,,,,,,,,,,,132.0,1.5,,,,,,
147,,feedback,,html-keyboard-response,147,340299,0.0-1.0-28.0-0.0-3.0-0.0,0,0,76870,,,,,,26.0,,,,,1.0,,,,,,,,,,,,,,,,,,,,,,,,,,,133.0,1.0,,,,,,
148,,iti,,html-keyboard-response,148,343317,0.0-1.0-28.0-0.0-5.0,0,0,76870,,,,,,26.0,,,,,1.0,,,,,,,,,,,,,,,,,,,,,,,,,,,136.0,3.0,,,,,,
149,,choice,,html-keyboard-response,149,343858,0.0-1.0-29.0-0.0-0.0,0,0,76870,,536.0,,,68.0,27.0,27.0,1000.0,1000.0,0.0,1.0,0.0,80-80,,,key chain,lipstick,80.0,80.0,key chain8,lipstick5,100.0,80.0,Keychain01.jpg,P35719_hero.jpg,/static/Category_learning/Stimuli/Experimental_stims/key chain/Keychain01.jpg,/static/Category_learning/Stimuli/Experimental_stims/lipstick/P35719_hero.jpg,1.0,key chain,lipstick,80.0,80.0,key chain8,lipstick5,100.0,80.0,0.0,136.536,0.536,,,,,,
150,,confirmation,,html-keyboard-response,150,344836,0.0-1.0-29.0-0.0-1.0-0.0,0,0,76870,,,,,,27.0,,,,,1.0,,,,,,,,,,,,,,,,,,,,,,,,,,,137.5,0.964,,,,,,
151,,isi,,html-keyboard-response,151,345841,0.0-1.0-29.0-0.0-2.0,0,0,76870,,,,,,27.0,,,,,1.0,,,,,,,,,,,,,,,,,,,,,,,,,,,138.5,1.0,,,,,,
152,,feedback,,html-keyboard-response,152,346851,0.0-1.0-29.0-0.0-3.0-0.0,0,0,76870,,,,,,27.0,,,,,1.0,,,,,,,,,,,,,,,,,,,,,,,,,,,139.5,1.0,,,,,,
153,,iti,,html-keyboard-response,153,347864,0.0-1.0-29.0-0.0-5.0,0,0,76870,,,,,,27.0,,,,,1.0,,,,,,,,,,,,,,,,,,,,,,,,,,,140.5,1.0,,,,,,
154,,choice,,html-keyboard-response,154,348371,0.0-1.0-30.0-0.0-0.0,0,0,76870,,502.0,,,75.0,28.0,28.0,3500.0,1500.0,0.0,1.0,0.0,60-60,,,bench,desk,60.0,60.0,bench7,desk5,40.0,80.0,ACONBENCH.jpg,ADESK6.jpg,/static/Category_learning/Stimuli/Experimental_stims/bench/ACONBENCH.jpg,/static/Category_learning/Stimuli/Experimental_stims/desk/ADESK6.jpg,0.0,desk,bench,60.0,60.0,desk5,bench7,80.0,40.0,0.0,141.002,0.502,,,,,,
155,,confirmation,,html-keyboard-response,155,349387,0.0-1.0-30.0-0.0-1.0-0.0,0,0,76870,,,,,,28.0,,,,,1.0,,,,,,,,,,,,,,,,,,,,,,,,,,,142.0,0.998,,,,,,
156,,isi,,html-keyboard-response,156,352896,0.0-1.0-30.0-0.0-2.0,0,0,76870,,,,,,28.0,,,,,1.0,,,,,,,,,,,,,,,,,,,,,,,,,,,145.5,3.5,,,,,,
157,,feedback,,html-keyboard-response,157,353901,0.0-1.0-30.0-0.0-3.0-0.0,0,0,76870,,,,,,28.0,,,,,1.0,,,,,,,,,,,,,,,,,,,,,,,,,,,146.5,1.0,,,,,,
158,,iti,,html-keyboard-response,158,355409,0.0-1.0-30.0-0.0-5.0,0,0,76870,,,,,,28.0,,,,,1.0,,,,,,,,,,,,,,,,,,,,,,,,,,,148.0,1.5,,,,,,
159,,choice,,html-keyboard-response,159,356354,0.0-1.0-31.0-0.0-0.0,0,0,76870,,939.0,,,75.0,29.0,29.0,2000.0,1000.0,0.0,1.0,1.0,60-60,0.0,,baby carriage,flashlight,60.0,60.0,baby carriage5,flashlight2,80.0,60.0,Baby_Stroller.jpg,AV-9 No Battery Flashlight.jpg,/static/Category_learning/Stimuli/Experimental_stims/baby carriage/Baby_Stroller.jpg,/static/Category_learning/Stimuli/Experimental_stims/flashlight/AV-9 No Battery Flashlight.jpg,0.0,flashlight,baby carriage,60.0,60.0,flashlight2,baby carriage5,60.0,80.0,0.0,148.939,0.939,,,,,,
160,,confirmation,,html-keyboard-response,160,356926,0.0-1.0-31.0-0.0-1.0-0.0,0,0,76870,,,,,,29.0,,,,,1.0,,,,,,,,,,,,,,,,,,,,,,,,,,,149.5,0.561,,,,,,
161,,isi,,html-keyboard-response,161,358936,0.0-1.0-31.0-0.0-2.0,0,0,76870,,,,,,29.0,,,,,1.0,,,,,,,,,,,,,,,,,,,,,,,,,,,151.5,2.0,,,,,,
162,,feedback,,html-keyboard-response,162,359951,0.0-1.0-31.0-0.0-3.0-0.0,0,0,76870,,,,,,29.0,,,,,1.0,,,,,,,,,,,,,,,,,,,,,,,,,,,152.5,1.0,,,,,,
163,,iti,,html-keyboard-response,163,360960,0.0-1.0-31.0-0.0-5.0,0,0,76870,,,,,,29.0,,,,,1.0,,,,,,,,,,,,,,,,,,,,,,,,,,,153.5,1.0,,,,,,
164,,choice,,html-keyboard-response,164,361911,0.0-1.0-32.0-0.0-0.0,0,0,76870,,944.0,,,75.0,30.0,30.0,2000.0,3500.0,0.0,1.0,0.0,40-60,,0.0,stool,dresser,40.0,60.0,stool10,dresser12,60.0,60.0,ASTOOL26.jpg,ADRESSE58.jpg,/static/Category_learning/Stimuli/Experimental_stims/stool/ASTOOL26.jpg,/static/Category_learning/Stimuli/Experimental_stims/dresser/ADRESSE58.jpg,0.0,dresser,stool,60.0,40.0,dresser12,stool10,60.0,60.0,0.0,154.444,0.944,,,,,,
165,,confirmation,,html-keyboard-response,165,362484,0.0-1.0-32.0-0.0-1.0-0.0,0,0,76870,,,,,,30.0,,,,,1.0,,,,,,,,,,,,,,,,,,,,,,,,,,,155.0,0.556,,,,,,
166,,isi,,html-keyboard-response,166,364500,0.0-1.0-32.0-0.0-2.0,0,0,76870,,,,,,30.0,,,,,1.0,,,,,,,,,,,,,,,,,,,,,,,,,,,157.0,2.0,,,,,,
167,,feedback,,html-keyboard-response,167,365509,0.0-1.0-32.0-0.0-3.0-0.0,0,0,76870,,,,,,30.0,,,,,1.0,,,,,,,,,,,,,,,,,,,,,,,,,,,158.0,1.0,,,,,,
168,,iti,,html-keyboard-response,168,369024,0.0-1.0-32.0-0.0-5.0,0,0,76870,,,,,,30.0,,,,,1.0,,,,,,,,,,,,,,,,,,,,,,,,,,,161.5,3.5,,,,,,
169,,choice,,html-keyboard-response,169,369971,0.0-1.0-33.0-0.0-0.0,0,0,76870,,942.0,,,75.0,31.0,31.0,2000.0,2000.0,0.0,1.0,1.0,60-60,1.0,,dresser,dresser,60.0,60.0,dresser12,dresser4,60.0,80.0,ADRESSE58.jpg,ADRESSE40.jpg,/static/Category_learning/Stimuli/Experimental_stims/dresser/ADRESSE58.jpg,/static/Category_learning/Stimuli/Experimental_stims/dresser/ADRESSE40.jpg,0.0,dresser,dresser,60.0,60.0,dresser4,dresser12,80.0,60.0,0.0,162.442,0.942,,,,,,
170,,confirmation,,html-keyboard-response,170,370544,0.0-1.0-33.0-0.0-1.0-0.0,0,0,76870,,,,,,31.0,,,,,1.0,,,,,,,,,,,,,,,,,,,,,,,,,,,163.0,0.558,,,,,,
171,,isi,,html-keyboard-response,171,372554,0.0-1.0-33.0-0.0-2.0,0,0,76870,,,,,,31.0,,,,,1.0,,,,,,,,,,,,,,,,,,,,,,,,,,,165.0,2.0,,,,,,
172,,feedback,,html-keyboard-response,172,373560,0.0-1.0-33.0-0.0-3.0-0.0,0,0,76870,,,,,,31.0,,,,,1.0,,,,,,,,,,,,,,,,,,,,,,,,,,,166.0,1.0,,,,,,
173,,iti,,html-keyboard-response,173,375572,0.0-1.0-33.0-0.0-5.0,0,0,76870,,,,,,31.0,,,,,1.0,,,,,,,,,,,,,,,,,,,,,,,,,,,168.0,2.0,,,,,,
174,,choice,,html-keyboard-response,174,376399,0.0-1.0-34.0-0.0-0.0,0,0,76870,,821.0,,,68.0,32.0,32.0,1500.0,2000.0,0.0,1.0,0.0,40-40,,,stool,tape,40.0,40.0,stool8,tape9,60.0,40.0,ASTOOL33.jpg,desk tape disp.jpg,/static/Category_learning/Stimuli/Experimental_stims/stool/ASTOOL33.jpg,/static/Category_learning/Stimuli/Experimental_stims/tape/desk tape disp.jpg,1.0,stool,tape,40.0,40.0,stool8,tape9,60.0,40.0,0.0,168.821,0.821,,,,,,
175,,confirmation,,html-keyboard-response,175,377099,0.0-1.0-34.0-0.0-1.0-0.0,0,0,76870,,,,,,32.0,,,,,1.0,,,,,,,,,,,,,,,,,,,,,,,,,,,169.5,0.679,,,,,,
176,,isi,,html-keyboard-response,176,378607,0.0-1.0-34.0-0.0-2.0,0,0,76870,,,,,,32.0,,,,,1.0,,,,,,,,,,,,,,,,,,,,,,,,,,,171.0,1.5,,,,,,
177,,feedback,,html-keyboard-response,177,379613,0.0-1.0-34.0-0.0-3.0-0.0,0,0,76870,,,,,,32.0,,,,,1.0,,,,,,,,,,,,,,,,,,,,,,,,,,,172.0,1.0,,,,,,
178,,iti,,html-keyboard-response,178,381631,0.0-1.0-34.0-0.0-5.0,0,0,76870,,,,,,32.0,,,,,1.0,,,,,,,,,,,,,,,,,,,,,,,,,,,174.0,2.0,,,,,,
179,,choice,,html-keyboard-response,179,382367,0.0-1.0-35.0-0.0-0.0,0,0,76870,,728.0,,,75.0,33.0,33.0,1000.0,3000.0,0.0,1.0,0.0,40-40,,,yarn,tent,40.0,40.0,yarn10,tent5,60.0,60.0,revelation-yarn.jpg,Dome Tentnb87r67.jpg,/static/Category_learning/Stimuli/Experimental_stims/yarn/revelation-yarn.jpg,/static/Category_learning/Stimuli/Experimental_stims/tent/Dome Tentnb87r67.jpg,0.0,tent,yarn,40.0,40.0,tent5,yarn10,60.0,60.0,0.0,174.728,0.728,,,,,,
180,,confirmation,,html-keyboard-response,180,383159,0.0-1.0-35.0-0.0-1.0-0.0,0,0,76870,,,,,,33.0,,,,,1.0,,,,,,,,,,,,,,,,,,,,,,,,,,,175.5,0.772,,,,,,
181,,isi,,html-keyboard-response,181,384170,0.0-1.0-35.0-0.0-2.0,0,0,76870,,,,,,33.0,,,,,1.0,,,,,,,,,,,,,,,,,,,,,,,,,,,176.5,1.0,,,,,,
182,,feedback,,html-keyboard-response,182,385175,0.0-1.0-35.0-0.0-3.0-0.0,0,0,76870,,,,,,33.0,,,,,1.0,,,,,,,,,,,,,,,,,,,,,,,,,,,177.5,1.0,,,,,,
183,,iti,,html-keyboard-response,183,388183,0.0-1.0-35.0-0.0-5.0,0,0,76870,,,,,,33.0,,,,,1.0,,,,,,,,,,,,,,,,,,,,,,,,,,,180.5,3.0,,,,,,
184,,choice,,html-keyboard-response,184,388946,0.0-1.0-36.0-0.0-0.0,0,0,76870,,758.0,,,68.0,34.0,34.0,1000.0,1500.0,0.0,1.0,0.0,20-20,,,pen,nail polish,20.0,20.0,pen2,nail polish3,20.0,40.0,Montblanc-Blu-Starwalker-BP copy.jpg,327636.jpg,/static/Category_learning/Stimuli/Experimental_stims/pen/Montblanc-Blu-Starwalker-BP copy.jpg,/static/Category_learning/Stimuli/Experimental_stims/nail polish/327636.jpg,1.0,pen,nail polish,20.0,20.0,pen2,nail polish3,20.0,40.0,0.0,181.258,0.758,,,,,,
185,,confirmation,,html-keyboard-response,185,389706,0.0-1.0-36.0-0.0-1.0-0.0,0,0,76870,,,,,,34.0,,,,,1.0,,,,,,,,,,,,,,,,,,,,,,,,,,,182.0,0.742,,,,,,
186,,isi,,html-keyboard-response,186,390711,0.0-1.0-36.0-0.0-2.0,0,0,76870,,,,,,34.0,,,,,1.0,,,,,,,,,,,,,,,,,,,,,,,,,,,183.0,1.0,,,,,,
187,,feedback,,html-keyboard-response,187,391716,0.0-1.0-36.0-0.0-3.0-0.0,0,0,76870,,,,,,34.0,,,,,1.0,,,,,,,,,,,,,,,,,,,,,,,,,,,184.0,1.0,,,,,,
188,,iti,,html-keyboard-response,188,393235,0.0-1.0-36.0-0.0-5.0,0,0,76870,,,,,,34.0,,,,,1.0,,,,,,,,,,,,,,,,,,,,,,,,,,,185.5,1.5,,,,,,
189,,choice,,html-keyboard-response,189,393789,0.0-1.0-37.0-0.0-0.0,0,0,76870,,547.0,,,75.0,35.0,35.0,1500.0,1000.0,0.0,1.0,0.0,40-60,,0.0,stool,dresser,40.0,60.0,stool2,dresser14,20.0,60.0,ASTOOL46.jpg,Adressertabl3.jpg,/static/Category_learning/Stimuli/Experimental_stims/stool/ASTOOL46.jpg,/static/Category_learning/Stimuli/Experimental_stims/dresser/Adressertabl3.jpg,0.0,dresser,stool,60.0,40.0,dresser14,stool2,60.0,20.0,0.0,186.047,0.547,,,,,,
190,,confirmation,,html-keyboard-response,190,394761,0.0-1.0-37.0-0.0-1.0-0.0,0,0,76870,,,,,,35.0,,,,,1.0,,,,,,,,,,,,,,,,,,,,,,,,,,,187.0,0.953,,,,,,
191,,isi,,html-keyboard-response,191,396275,0.0-1.0-37.0-0.0-2.0,0,0,76870,,,,,,35.0,,,,,1.0,,,,,,,,,,,,,,,,,,,,,,,,,,,188.5,1.5,,,,,,
192,,feedback,,html-keyboard-response,192,397295,0.0-1.0-37.0-0.0-3.0-0.0,0,0,76870,,,,,,35.0,,,,,1.0,,,,,,,,,,,,,,,,,,,,,,,,,,,189.5,1.0,,,,,,
193,,iti,,html-keyboard-response,193,398311,0.0-1.0-37.0-0.0-5.0,0,0,76870,,,,,,35.0,,,,,1.0,,,,,,,,,,,,,,,,,,,,,,,,,,,190.5,1.0,,,,,,
194,,choice,,html-keyboard-response,194,398974,0.0-1.0-38.0-0.0-0.0,0,0,76870,,657.0,,,75.0,36.0,36.0,1500.0,1000.0,0.0,1.0,0.0,20-80,,0.0,necklace,motorcycle,20.0,80.0,necklace2,motorcycle2,20.0,100.0,Anecklace7.jpg,motorcycle33.jpg,/static/Category_learning/Stimuli/Experimental_stims/necklace/Anecklace7.jpg,/static/Category_learning/Stimuli/Experimental_stims/motorcycle/motorcycle33.jpg,0.0,motorcycle,necklace,80.0,20.0,motorcycle2,necklace2,100.0,20.0,0.0,191.157,0.657,,,,,,
195,,confirmation,,html-keyboard-response,195,399824,0.0-1.0-38.0-0.0-1.0-0.0,0,0,76870,,,,,,36.0,,,,,1.0,,,,,,,,,,,,,,,,,,,,,,,,,,,192.0,0.843,,,,,,
196,,isi,,html-keyboard-response,196,401329,0.0-1.0-38.0-0.0-2.0,0,0,76870,,,,,,36.0,,,,,1.0,,,,,,,,,,,,,,,,,,,,,,,,,,,193.5,1.5,,,,,,
197,,feedback,,html-keyboard-response,197,402342,0.0-1.0-38.0-0.0-3.0-0.0,0,0,76870,,,,,,36.0,,,,,1.0,,,,,,,,,,,,,,,,,,,,,,,,,,,194.5,1.0,,,,,,
198,,iti,,html-keyboard-response,198,403351,0.0-1.0-38.0-0.0-5.0,0,0,76870,,,,,,36.0,,,,,1.0,,,,,,,,,,,,,,,,,,,,,,,,,,,195.5,1.0,,,,,,
199,,choice,,html-keyboard-response,199,404868,0.0-1.0-39.0-0.0-0.0,0,0,76870,,,,,,37.0,37.0,1000.0,1000.0,0.0,1.0,1.0,20-80,0.0,,seashell,motorcycle,20.0,80.0,seashell7,motorcycle2,20.0,100.0,seashell34.jpg,motorcycle33.jpg,/static/Category_learning/Stimuli/Experimental_stims/seashell/seashell34.jpg,/static/Category_learning/Stimuli/Experimental_stims/motorcycle/motorcycle33.jpg,,,,,,,,,,1.0,197.0,1.5,,,,,,
200,,isi,,html-keyboard-response,200,405877,0.0-1.0-39.0-0.0-2.0,0,0,76870,,,,,,37.0,,,,,1.0,,,,,,,,,,,,,,,,,,,,,,,,,,,198.0,1.0,,,,,,
201,,no_response,,html-keyboard-response,201,406884,0.0-1.0-39.0-0.0-4.0-0.0,0,0,76870,,,,,,37.0,,,,,1.0,,,,,,,,,,,,,,,,,,,,,,,,,,,199.0,1.0,,,,,,
202,,iti,,html-keyboard-response,202,407928,0.0-1.0-39.0-0.0-5.0,0,0,76870,,,,,,37.0,,,,,1.0,,,,,,,,,,,,,,,,,,,,,,,,,,,200.0,1.0,,,,,,
203,,choice,,html-keyboard-response,203,408630,0.0-1.0-39.0-0.1-0.1,0,0,76870,,696.0,,,68.0,37.0,37.0,1000.0,1000.0,0.0,1.0,1.0,20-80,0.0,,seashell,motorcycle,20.0,80.0,seashell7,motorcycle2,20.0,100.0,seashell34.jpg,motorcycle33.jpg,/static/Category_learning/Stimuli/Experimental_stims/seashell/seashell34.jpg,/static/Category_learning/Stimuli/Experimental_stims/motorcycle/motorcycle33.jpg,1.0,seashell,motorcycle,20.0,80.0,seashell7,motorcycle2,20.0,100.0,0.0,200.696,0.696,,,,,,
204,,confirmation,,html-keyboard-response,204,409450,0.0-1.0-39.0-0.1-1.1-0.1,0,0,76870,,,,,,37.0,,,,,1.0,,,,,,,,,,,,,,,,,,,,,,,,,,,201.5,0.804,,,,,,
205,,isi,,html-keyboard-response,205,410455,0.0-1.0-39.0-0.1-2.1,0,0,76870,,,,,,37.0,,,,,1.0,,,,,,,,,,,,,,,,,,,,,,,,,,,202.5,1.0,,,,,,
206,,feedback,,html-keyboard-response,206,411467,0.0-1.0-39.0-0.1-3.1-0.1,0,0,76870,,,,,,37.0,,,,,1.0,,,,,,,,,,,,,,,,,,,,,,,,,,,203.5,1.0,,,,,,
207,,iti,,html-keyboard-response,207,413479,0.0-1.0-39.0-0.1-5.1,0,0,76870,,,,,,37.0,,,,,1.0,,,,,,,,,,,,,,,,,,,,,,,,,,,205.5,2.0,,,,,,
208,,choice,,html-keyboard-response,208,414018,0.0-1.0-40.0-0.0-0.0,0,0,76870,,534.0,,,68.0,38.0,38.0,3000.0,1000.0,0.0,1.0,0.0,20-60,,0.0,sofa,bongo,20.0,60.0,sofa9,bongo12,20.0,40.0,ALOVSEAT9.jpg,26686609.thl.jpg,/static/Category_learning/Stimuli/Experimental_stims/sofa/ALOVSEAT9.jpg,/static/Category_learning/Stimuli/Experimental_stims/bongo/26686609.thl.jpg,1.0,sofa,bongo,20.0,60.0,sofa9,bongo12,20.0,40.0,0.0,206.034,0.534,,,,,,
209,,confirmation,,html-keyboard-response,209,414995,0.0-1.0-40.0-0.0-1.0-0.0,0,0,76870,,,,,,38.0,,,,,1.0,,,,,,,,,,,,,,,,,,,,,,,,,,,207.0,0.966,,,,,,
210,,isi,,html-keyboard-response,210,418008,0.0-1.0-40.0-0.0-2.0,0,0,76870,,,,,,38.0,,,,,1.0,,,,,,,,,,,,,,,,,,,,,,,,,,,210.0,3.0,,,,,,
211,,feedback,,html-keyboard-response,211,419013,0.0-1.0-40.0-0.0-3.0-0.0,0,0,76870,,,,,,38.0,,,,,1.0,,,,,,,,,,,,,,,,,,,,,,,,,,,211.0,1.0,,,,,,
212,,iti,,html-keyboard-response,212,420028,0.0-1.0-40.0-0.0-5.0,0,0,76870,,,,,,38.0,,,,,1.0,,,,,,,,,,,,,,,,,,,,,,,,,,,212.0,1.0,,,,,,
213,,choice,,html-keyboard-response,213,420826,0.0-1.0-41.0-0.0-0.0,0,0,76870,,793.0,,,68.0,39.0,39.0,3000.0,3000.0,0.0,1.0,0.0,20-20,,,patio lounge chair,seashell,20.0,20.0,patio lounge chair14,seashell13,40.0,0.0,2987951.jpg,coquillage22.jpg,/static/Category_learning/Stimuli/Experimental_stims/patio lounge chair/2987951.jpg,/static/Category_learning/Stimuli/Experimental_stims/seashell/coquillage22.jpg,1.0,patio lounge chair,seashell,20.0,20.0,patio lounge chair14,seashell13,40.0,0.0,0.0,212.793,0.793,,,,,,
214,,confirmation,,html-keyboard-response,214,421550,0.0-1.0-41.0-0.0-1.0-0.0,0,0,76870,,,,,,39.0,,,,,1.0,,,,,,,,,,,,,,,,,,,,,,,,,,,213.5,0.707,,,,,,
215,,isi,,html-keyboard-response,215,424567,0.0-1.0-41.0-0.0-2.0,0,0,76870,,,,,,39.0,,,,,1.0,,,,,,,,,,,,,,,,,,,,,,,,,,,216.5,3.0,,,,,,
216,,feedback,,html-keyboard-response,216,425581,0.0-1.0-41.0-0.0-3.0-0.0,0,0,76870,,,,,,39.0,,,,,1.0,,,,,,,,,,,,,,,,,,,,,,,,,,,217.5,1.0,,,,,,
217,,iti,,html-keyboard-response,217,428585,0.0-1.0-41.0-0.0-5.0,0,0,76870,,,,,,39.0,,,,,1.0,,,,,,,,,,,,,,,,,,,,,,,,,,,220.5,3.0,,,,,,
218,,choice,,html-keyboard-response,218,429031,0.0-1.0-42.0-0.0-0.0,0,0,76870,,441.0,,,75.0,40.0,40.0,2000.0,2000.0,0.0,1.0,0.0,60-80,,1.0,makeup compact,flashlight,80.0,60.0,makeup compact9,flashlight10,100.0,80.0,b_102019.jpg,834784_sk_lg.jpg,/static/Category_learning/Stimuli/Experimental_stims/makeup compact/b_102019.jpg,/static/Category_learning/Stimuli/Experimental_stims/flashlight/834784_sk_lg.jpg,0.0,flashlight,makeup compact,60.0,80.0,flashlight10,makeup compact9,80.0,100.0,0.0,220.941,0.441,,,,,,
219,,confirmation,,html-keyboard-response,219,430106,0.0-1.0-42.0-0.0-1.0-0.0,0,0,76870,,,,,,40.0,,,,,1.0,,,,,,,,,,,,,,,,,,,,,,,,,,,222.0,1.059,,,,,,
220,,isi,,html-keyboard-response,220,432119,0.0-1.0-42.0-0.0-2.0,0,0,76870,,,,,,40.0,,,,,1.0,,,,,,,,,,,,,,,,,,,,,,,,,,,224.0,2.0,,,,,,
221,,feedback,,html-keyboard-response,221,433139,0.0-1.0-42.0-0.0-3.0-0.0,0,0,76870,,,,,,40.0,,,,,1.0,,,,,,,,,,,,,,,,,,,,,,,,,,,225.0,1.0,,,,,,
222,,iti,,html-keyboard-response,222,435151,0.0-1.0-42.0-0.0-5.0,0,0,76870,,,,,,40.0,,,,,1.0,,,,,,,,,,,,,,,,,,,,,,,,,,,227.0,2.0,,,,,,
223,,choice,,html-keyboard-response,223,436001,0.0-1.0-43.0-0.0-0.0,0,0,76870,,844.0,,,75.0,41.0,41.0,2000.0,1000.0,0.0,1.0,1.0,20-20,1.0,,patio lounge chair,patio lounge chair,20.0,20.0,patio lounge chair14,patio lounge chair9,40.0,20.0,2987951.jpg,43-3.jpg,/static/Category_learning/Stimuli/Experimental_stims/patio lounge chair/2987951.jpg,/static/Category_learning/Stimuli/Experimental_stims/patio lounge chair/43-3.jpg,0.0,patio lounge chair,patio lounge chair,20.0,20.0,patio lounge chair9,patio lounge chair14,20.0,40.0,0.0,227.844,0.844,,,,,,
224,,confirmation,,html-keyboard-response,224,436677,0.0-1.0-43.0-0.0-1.0-0.0,0,0,76870,,,,,,41.0,,,,,1.0,,,,,,,,,,,,,,,,,,,,,,,,,,,228.5,0.656,,,,,,
225,,isi,,html-keyboard-response,225,438691,0.0-1.0-43.0-0.0-2.0,0,0,76870,,,,,,41.0,,,,,1.0,,,,,,,,,,,,,,,,,,,,,,,,,,,230.5,2.0,,,,,,
226,,feedback,,html-keyboard-response,226,439707,0.0-1.0-43.0-0.0-3.0-0.0,0,0,76870,,,,,,41.0,,,,,1.0,,,,,,,,,,,,,,,,,,,,,,,,,,,231.5,1.0,,,,,,
227,,iti,,html-keyboard-response,227,440722,0.0-1.0-43.0-0.0-5.0,0,0,76870,,,,,,41.0,,,,,1.0,,,,,,,,,,,,,,,,,,,,,,,,,,,232.5,1.0,,,,,,
228,,choice,,html-keyboard-response,228,441437,0.0-1.0-44.0-0.0-0.0,0,0,76870,,707.0,,,68.0,42.0,42.0,1000.0,1500.0,0.0,1.0,0.0,40-80,,1.0,makeup compact,trumpet,80.0,40.0,makeup compact6,trumpet13,80.0,40.0,P0754_hero.jpg,JUPITER+JTR1600GS.jpg,/static/Category_learning/Stimuli/Experimental_stims/makeup compact/P0754_hero.jpg,/static/Category_learning/Stimuli/Experimental_stims/trumpet/JUPITER+JTR1600GS.jpg,1.0,makeup compact,trumpet,80.0,40.0,makeup compact6,trumpet13,80.0,40.0,0.0,233.207,0.707,,,,,,
229,,confirmation,,html-keyboard-response,229,442242,0.0-1.0-44.0-0.0-1.0-0.0,0,0,76870,,,,,,42.0,,,,,1.0,,,,,,,,,,,,,,,,,,,,,,,,,,,234.0,0.793,,,,,,
230,,isi,,html-keyboard-response,230,443258,0.0-1.0-44.0-0.0-2.0,0,0,76870,,,,,,42.0,,,,,1.0,,,,,,,,,,,,,,,,,,,,,,,,,,,235.0,1.0,,,,,,
231,,feedback,,html-keyboard-response,231,444263,0.0-1.0-44.0-0.0-3.0-0.0,0,0,76870,,,,,,42.0,,,,,1.0,,,,,,,,,,,,,,,,,,,,,,,,,,,236.0,1.0,,,,,,
232,,iti,,html-keyboard-response,232,445772,0.0-1.0-44.0-0.0-5.0,0,0,76870,,,,,,42.0,,,,,1.0,,,,,,,,,,,,,,,,,,,,,,,,,,,237.5,1.5,,,,,,
233,,choice,,html-keyboard-response,233,446330,0.0-1.0-45.0-0.0-0.0,0,0,76870,,553.0,,,75.0,43.0,43.0,1000.0,2000.0,0.0,1.0,0.0,80-80,,,hat,makeup compact,80.0,80.0,hat2,makeup compact10,100.0,60.0,Ahatwithfeat7.jpg,P95108_hero.jpg,/static/Category_learning/Stimuli/Experimental_stims/hat/Ahatwithfeat7.jpg,/static/Category_learning/Stimuli/Experimental_stims/makeup compact/P95108_hero.jpg,0.0,makeup compact,hat,80.0,80.0,makeup compact10,hat2,60.0,100.0,0.0,238.053,0.553,,,,,,
234,,confirmation,,html-keyboard-response,234,447284,0.0-1.0-45.0-0.0-1.0-0.0,0,0,76870,,,,,,43.0,,,,,1.0,,,,,,,,,,,,,,,,,,,,,,,,,,,239.0,0.947,,,,,,
235,,isi,,html-keyboard-response,235,448300,0.0-1.0-45.0-0.0-2.0,0,0,76870,,,,,,43.0,,,,,1.0,,,,,,,,,,,,,,,,,,,,,,,,,,,240.0,1.0,,,,,,
236,,feedback,,html-keyboard-response,236,449311,0.0-1.0-45.0-0.0-3.0-0.0,0,0,76870,,,,,,43.0,,,,,1.0,,,,,,,,,,,,,,,,,,,,,,,,,,,241.0,1.0,,,,,,
237,,iti,,html-keyboard-response,237,451324,0.0-1.0-45.0-0.0-5.0,0,0,76870,,,,,,43.0,,,,,1.0,,,,,,,,,,,,,,,,,,,,,,,,,,,243.0,2.0,,,,,,
238,,choice,,html-keyboard-response,238,451827,0.0-1.0-46.0-0.0-0.0,0,0,76870,,497.0,,,68.0,44.0,44.0,1500.0,1500.0,0.0,1.0,0.0,40-60,,1.0,fan,tent,60.0,40.0,fan1,tent4,80.0,40.0,01393.fpx.jpg,Atent12.jpg,/static/Category_learning/Stimuli/Experimental_stims/fan/01393.fpx.jpg,/static/Category_learning/Stimuli/Experimental_stims/tent/Atent12.jpg,1.0,fan,tent,60.0,40.0,fan1,tent4,80.0,40.0,0.0,243.497,0.497,,,,,,
239,,confirmation,,html-keyboard-response,239,452847,0.0-1.0-46.0-0.0-1.0-0.0,0,0,76870,,,,,,44.0,,,,,1.0,,,,,,,,,,,,,,,,,,,,,,,,,,,244.5,1.003,,,,,,
240,,isi,,html-keyboard-response,240,454353,0.0-1.0-46.0-0.0-2.0,0,0,76870,,,,,,44.0,,,,,1.0,,,,,,,,,,,,,,,,,,,,,,,,,,,246.0,1.5,,,,,,
241,,feedback,,html-keyboard-response,241,455362,0.0-1.0-46.0-0.0-3.0-0.0,0,0,76870,,,,,,44.0,,,,,1.0,,,,,,,,,,,,,,,,,,,,,,,,,,,247.0,1.0,,,,,,
242,,iti,,html-keyboard-response,242,456881,0.0-1.0-46.0-0.0-5.0,0,0,76870,,,,,,44.0,,,,,1.0,,,,,,,,,,,,,,,,,,,,,,,,,,,248.5,1.5,,,,,,
243,,choice,,html-keyboard-response,243,457864,0.0-1.0-47.0-0.0-0.0,0,0,76870,,977.0,,,68.0,45.0,45.0,2000.0,3500.0,0.0,1.0,1.0,80-80,1.0,,makeup compact,makeup compact,80.0,80.0,makeup compact10,makeup compact6,60.0,80.0,P95108_hero.jpg,P0754_hero.jpg,/static/Category_learning/Stimuli/Experimental_stims/makeup compact/P95108_hero.jpg,/static/Category_learning/Stimuli/Experimental_stims/makeup compact/P0754_hero.jpg,1.0,makeup compact,makeup compact,80.0,80.0,makeup compact10,makeup compact6,60.0,80.0,0.0,249.477,0.977,,,,,,
244,,confirmation,,html-keyboard-response,244,458403,0.0-1.0-47.0-0.0-1.0-0.0,0,0,76870,,,,,,45.0,,,,,1.0,,,,,,,,,,,,,,,,,,,,,,,,,,,250.0,0.523,,,,,,
245,,isi,,html-keyboard-response,245,460418,0.0-1.0-47.0-0.0-2.0,0,0,76870,,,,,,45.0,,,,,1.0,,,,,,,,,,,,,,,,,,,,,,,,,,,252.0,2.0,,,,,,
246,,feedback,,html-keyboard-response,246,461431,0.0-1.0-47.0-0.0-3.0-0.0,0,0,76870,,,,,,45.0,,,,,1.0,,,,,,,,,,,,,,,,,,,,,,,,,,,253.0,1.0,,,,,,
247,,iti,,html-keyboard-response,247,464937,0.0-1.0-47.0-0.0-5.0,0,0,76870,,,,,,45.0,,,,,1.0,,,,,,,,,,,,,,,,,,,,,,,,,,,256.5,3.5,,,,,,
248,,choice,,html-keyboard-response,248,465823,0.0-1.0-48.0-0.0-0.0,0,0,76870,,880.0,,,68.0,46.0,46.0,2000.0,1500.0,0.0,1.0,0.0,40-80,,0.0,yarn,lipstick,40.0,80.0,yarn8,lipstick9,60.0,100.0,smonlineyarn-285x250.jpg,P189145_hero.jpg,/static/Category_learning/Stimuli/Experimental_stims/yarn/smonlineyarn-285x250.jpg,/static/Category_learning/Stimuli/Experimental_stims/lipstick/P189145_hero.jpg,1.0,yarn,lipstick,40.0,80.0,yarn8,lipstick9,60.0,100.0,0.0,257.38,0.88,,,,,,
249,,confirmation,,html-keyboard-response,249,466451,0.0-1.0-48.0-0.0-1.0-0.0,0,0,76870,,,,,,46.0,,,,,1.0,,,,,,,,,,,,,,,,,,,,,,,,,,,258.0,0.62,,,,,,
250,,isi,,html-keyboard-response,250,468469,0.0-1.0-48.0-0.0-2.0,0,0,76870,,,,,,46.0,,,,,1.0,,,,,,,,,,,,,,,,,,,,,,,,,,,260.0,2.0,,,,,,
251,,feedback,,html-keyboard-response,251,469487,0.0-1.0-48.0-0.0-3.0-0.0,0,0,76870,,,,,,46.0,,,,,1.0,,,,,,,,,,,,,,,,,,,,,,,,,,,261.0,1.0,,,,,,
252,,iti,,html-keyboard-response,252,471003,0.0-1.0-48.0-0.0-5.0,0,0,76870,,,,,,46.0,,,,,1.0,,,,,,,,,,,,,,,,,,,,,,,,,,,262.5,1.5,,,,,,
253,,choice,,html-keyboard-response,253,471637,0.0-1.0-49.0-0.0-0.0,0,0,76870,,628.0,,,75.0,47.0,47.0,1000.0,1000.0,0.0,1.0,1.0,60-60,1.0,,fan,fan,60.0,60.0,fan6,fan1,60.0,80.0,30090.fpx.jpg,01393.fpx.jpg,/static/Category_learning/Stimuli/Experimental_stims/fan/30090.fpx.jpg,/static/Category_learning/Stimuli/Experimental_stims/fan/01393.fpx.jpg,0.0,fan,fan,60.0,60.0,fan1,fan6,80.0,60.0,0.0,263.128,0.628,,,,,,
254,,confirmation,,html-keyboard-response,254,472523,0.0-1.0-49.0-0.0-1.0-0.0,0,0,76870,,,,,,47.0,,,,,1.0,,,,,,,,,,,,,,,,,,,,,,,,,,,264.0,0.872,,,,,,
255,,isi,,html-keyboard-response,255,473539,0.0-1.0-49.0-0.0-2.0,0,0,76870,,,,,,47.0,,,,,1.0,,,,,,,,,,,,,,,,,,,,,,,,,,,265.0,1.0,,,,,,
256,,feedback,,html-keyboard-response,256,474550,0.0-1.0-49.0-0.0-3.0-0.0,0,0,76870,,,,,,47.0,,,,,1.0,,,,,,,,,,,,,,,,,,,,,,,,,,,266.0,1.0,,,,,,
257,,iti,,html-keyboard-response,257,475563,0.0-1.0-49.0-0.0-5.0,0,0,76870,,,,,,47.0,,,,,1.0,,,,,,,,,,,,,,,,,,,,,,,,,,,267.0,1.0,,,,,,
258,,choice,,html-keyboard-response,258,476030,0.0-1.0-50.0-0.0-0.0,0,0,76870,,462.0,,,68.0,48.0,48.0,1500.0,1000.0,0.0,1.0,0.0,40-60,,0.0,train,flashlight,40.0,60.0,train8,flashlight12,40.0,60.0,PL51190.jpg,new05.jpg,/static/Category_learning/Stimuli/Experimental_stims/train/PL51190.jpg,/static/Category_learning/Stimuli/Experimental_stims/flashlight/new05.jpg,1.0,train,flashlight,40.0,60.0,train8,flashlight12,40.0,60.0,0.0,267.462,0.462,,,,,,
259,,confirmation,,html-keyboard-response,259,477084,0.0-1.0-50.0-0.0-1.0-0.0,0,0,76870,,,,,,48.0,,,,,1.0,,,,,,,,,,,,,,,,,,,,,,,,,,,268.5,1.038,,,,,,
260,,isi,,html-keyboard-response,260,478594,0.0-1.0-50.0-0.0-2.0,0,0,76870,,,,,,48.0,,,,,1.0,,,,,,,,,,,,,,,,,,,,,,,,,,,270.0,1.5,,,,,,
261,,feedback,,html-keyboard-response,261,479612,0.0-1.0-50.0-0.0-3.0-0.0,0,0,76870,,,,,,48.0,,,,,1.0,,,,,,,,,,,,,,,,,,,,,,,,,,,271.0,1.0,,,,,,
262,,iti,,html-keyboard-response,262,480633,0.0-1.0-50.0-0.0-5.0,0,0,76870,,,,,,48.0,,,,,1.0,,,,,,,,,,,,,,,,,,,,,,,,,,,272.0,1.0,,,,,,
263,,choice,,html-keyboard-response,263,481304,0.0-1.0-51.0-0.0-0.0,0,0,76870,,665.0,,,75.0,49.0,49.0,1000.0,1000.0,0.0,1.0,1.0,40-40,1.0,,yarn,yarn,40.0,40.0,yarn8,yarn4,60.0,40.0,smonlineyarn-285x250.jpg,amethyst dreaming boho hy sml.jpg,/static/Category_learning/Stimuli/Experimental_stims/yarn/smonlineyarn-285x250.jpg,/static/Category_learning/Stimuli/Experimental_stims/yarn/amethyst dreaming boho hy sml.jpg,0.0,yarn,yarn,40.0,40.0,yarn4,yarn8,40.0,60.0,0.0,272.665,0.665,,,,,,
264,,confirmation,,html-keyboard-response,264,482155,0.0-1.0-51.0-0.0-1.0-0.0,0,0,76870,,,,,,49.0,,,,,1.0,,,,,,,,,,,,,,,,,,,,,,,,,,,273.5,0.835,,,,,,
265,,isi,,html-keyboard-response,265,483168,0.0-1.0-51.0-0.0-2.0,0,0,76870,,,,,,49.0,,,,,1.0,,,,,,,,,,,,,,,,,,,,,,,,,,,274.5,1.0,,,,,,
266,,feedback,,html-keyboard-response,266,484181,0.0-1.0-51.0-0.0-3.0-0.0,0,0,76870,,,,,,49.0,,,,,1.0,,,,,,,,,,,,,,,,,,,,,,,,,,,275.5,1.0,,,,,,
267,,iti,,html-keyboard-response,267,485194,0.0-1.0-51.0-0.0-5.0,0,0,76870,,,,,,49.0,,,,,1.0,,,,,,,,,,,,,,,,,,,,,,,,,,,276.5,1.0,,,,,,
268,,choice,,html-keyboard-response,268,485735,0.0-1.0-52.0-0.0-0.0,0,0,76870,,535.0,,,75.0,50.0,50.0,1000.0,2000.0,0.0,1.0,0.0,20-80,,1.0,lipstick,sofa,80.0,20.0,lipstick13,sofa8,60.0,20.0,P184708_hero.jpg,allegro-leather-sofa-med2.jpg,/static/Category_learning/Stimuli/Experimental_stims/lipstick/P184708_hero.jpg,/static/Category_learning/Stimuli/Experimental_stims/sofa/allegro-leather-sofa-med2.jpg,0.0,sofa,lipstick,20.0,80.0,sofa8,lipstick13,20.0,60.0,0.0,277.035,0.535,,,,,,
269,,confirmation,,html-keyboard-response,269,486707,0.0-1.0-52.0-0.0-1.0-0.0,0,0,76870,,,,,,50.0,,,,,1.0,,,,,,,,,,,,,,,,,,,,,,,,,,,278.0,0.965,,,,,,
270,,isi,,html-keyboard-response,270,487712,0.0-1.0-52.0-0.0-2.0,0,0,76870,,,,,,50.0,,,,,1.0,,,,,,,,,,,,,,,,,,,,,,,,,,,279.0,1.0,,,,,,
271,,feedback,,html-keyboard-response,271,488719,0.0-1.0-52.0-0.0-3.0-0.0,0,0,76870,,,,,,50.0,,,,,1.0,,,,,,,,,,,,,,,,,,,,,,,,,,,280.0,1.0,,,,,,
272,,iti,,html-keyboard-response,272,490727,0.0-1.0-52.0-0.0-5.0,0,0,76870,,,,,,50.0,,,,,1.0,,,,,,,,,,,,,,,,,,,,,,,,,,,282.0,2.0,,,,,,
273,,choice,,html-keyboard-response,273,491809,0.0-1.0-53.0-0.0-0.0,0,0,76870,,1077.0,,,68.0,51.0,51.0,1000.0,2000.0,0.0,1.0,0.0,40-60,,0.0,stool,baby carriage,40.0,60.0,stool5,baby carriage11,40.0,80.0,ASTOOL23.jpg,Baby_Carriage-2.jpg,/static/Category_learning/Stimuli/Experimental_stims/stool/ASTOOL23.jpg,/static/Category_learning/Stimuli/Experimental_stims/baby carriage/Baby_Carriage-2.jpg,1.0,stool,baby carriage,40.0,60.0,stool5,baby carriage11,40.0,80.0,0.0,283.077,1.077,,,,,,
274,,confirmation,,html-keyboard-response,274,492250,0.0-1.0-53.0-0.0-1.0-0.0,0,0,76870,,,,,,51.0,,,,,1.0,,,,,,,,,,,,,,,,,,,,,,,,,,,283.5,0.423,,,,,,
275,,isi,,html-keyboard-response,275,493265,0.0-1.0-53.0-0.0-2.0,0,0,76870,,,,,,51.0,,,,,1.0,,,,,,,,,,,,,,,,,,,,,,,,,,,284.5,1.0,,,,,,
276,,feedback,,html-keyboard-response,276,494281,0.0-1.0-53.0-0.0-3.0-0.0,0,0,76870,,,,,,51.0,,,,,1.0,,,,,,,,,,,,,,,,,,,,,,,,,,,285.5,1.0,,,,,,
277,,iti,,html-keyboard-response,277,496297,0.0-1.0-53.0-0.0-5.0,0,0,76870,,,,,,51.0,,,,,1.0,,,,,,,,,,,,,,,,,,,,,,,,,,,287.5,2.0,,,,,,
278,,choice,,html-keyboard-response,278,496952,0.0-1.0-54.0-0.0-0.0,0,0,76870,,650.0,,,75.0,52.0,52.0,1000.0,2000.0,0.0,1.0,0.0,40-40,,,telescope,vase,40.0,40.0,telescope10,vase4,20.0,60.0,digimarc.ms02.jpg,Avase111.jpg,/static/Category_learning/Stimuli/Experimental_stims/telescope/digimarc.ms02.jpg,/static/Category_learning/Stimuli/Experimental_stims/vase/Avase111.jpg,0.0,vase,telescope,40.0,40.0,vase4,telescope10,60.0,20.0,0.0,288.15,0.65,,,,,,
279,,confirmation,,html-keyboard-response,279,497818,0.0-1.0-54.0-0.0-1.0-0.0,0,0,76870,,,,,,52.0,,,,,1.0,,,,,,,,,,,,,,,,,,,,,,,,,,,289.0,0.85,,,,,,
280,,isi,,html-keyboard-response,280,498825,0.0-1.0-54.0-0.0-2.0,0,0,76870,,,,,,52.0,,,,,1.0,,,,,,,,,,,,,,,,,,,,,,,,,,,290.0,1.0,,,,,,
281,,feedback,,html-keyboard-response,281,499831,0.0-1.0-54.0-0.0-3.0-0.0,0,0,76870,,,,,,52.0,,,,,1.0,,,,,,,,,,,,,,,,,,,,,,,,,,,291.0,1.0,,,,,,
282,,iti,,html-keyboard-response,282,501850,0.0-1.0-54.0-0.0-5.0,0,0,76870,,,,,,52.0,,,,,1.0,,,,,,,,,,,,,,,,,,,,,,,,,,,293.0,2.0,,,,,,
283,,choice,,html-keyboard-response,283,502477,0.0-1.0-55.0-0.0-0.0,0,0,76870,,619.0,,,68.0,53.0,53.0,1000.0,1500.0,0.0,1.0,1.0,20-20,1.0,,sofa,sofa,20.0,20.0,sofa8,sofa9,20.0,20.0,allegro-leather-sofa-med2.jpg,ALOVSEAT9.jpg,/static/Category_learning/Stimuli/Experimental_stims/sofa/allegro-leather-sofa-med2.jpg,/static/Category_learning/Stimuli/Experimental_stims/sofa/ALOVSEAT9.jpg,1.0,sofa,sofa,20.0,20.0,sofa8,sofa9,20.0,20.0,0.0,293.619,0.619,,,,,,
284,,confirmation,,html-keyboard-response,284,503379,0.0-1.0-55.0-0.0-1.0-0.0,0,0,76870,,,,,,53.0,,,,,1.0,,,,,,,,,,,,,,,,,,,,,,,,,,,294.5,0.881,,,,,,
285,,isi,,html-keyboard-response,285,504415,0.0-1.0-55.0-0.0-2.0,0,0,76870,,,,,,53.0,,,,,1.0,,,,,,,,,,,,,,,,,,,,,,,,,,,295.5,1.0,,,,,,
286,,feedback,,html-keyboard-response,286,505427,0.0-1.0-55.0-0.0-3.0-0.0,0,0,76870,,,,,,53.0,,,,,1.0,,,,,,,,,,,,,,,,,,,,,,,,,,,296.5,1.0,,,,,,
287,,iti,,html-keyboard-response,287,506935,0.0-1.0-55.0-0.0-5.0,0,0,76870,,,,,,53.0,,,,,1.0,,,,,,,,,,,,,,,,,,,,,,,,,,,298.0,1.5,,,,,,
288,,choice,,html-keyboard-response,288,507817,0.0-1.0-56.0-0.0-0.0,0,0,76870,,878.0,,,75.0,54.0,54.0,2000.0,1500.0,0.0,1.0,0.0,20-80,,1.0,hat,nail polish,80.0,20.0,hat3,nail polish14,100.0,40.0,Astrawhat49.jpg,38031405.JPG,/static/Category_learning/Stimuli/Experimental_stims/hat/Astrawhat49.jpg,/static/Category_learning/Stimuli/Experimental_stims/nail polish/38031405.JPG,0.0,nail polish,hat,20.0,80.0,nail polish14,hat3,40.0,100.0,0.0,298.878,0.878,,,,,,
289,,confirmation,,html-keyboard-response,289,508452,0.0-1.0-56.0-0.0-1.0-0.0,0,0,76870,,,,,,54.0,,,,,1.0,,,,,,,,,,,,,,,,,,,,,,,,,,,299.5,0.622,,,,,,
290,,isi,,html-keyboard-response,290,510457,0.0-1.0-56.0-0.0-2.0,0,0,76870,,,,,,54.0,,,,,1.0,,,,,,,,,,,,,,,,,,,,,,,,,,,301.5,2.0,,,,,,
291,,feedback,,html-keyboard-response,291,511476,0.0-1.0-56.0-0.0-3.0-0.0,0,0,76870,,,,,,54.0,,,,,1.0,,,,,,,,,,,,,,,,,,,,,,,,,,,302.5,1.0,,,,,,
292,,iti,,html-keyboard-response,292,512985,0.0-1.0-56.0-0.0-5.0,0,0,76870,,,,,,54.0,,,,,1.0,,,,,,,,,,,,,,,,,,,,,,,,,,,304.0,1.5,,,,,,
293,,choice,,html-keyboard-response,293,514002,0.0-1.0-57.0-0.0-0.0,0,0,76870,,1011.0,,,75.0,55.0,55.0,3000.0,1000.0,0.0,1.0,0.0,20-60,,0.0,necklace,bench,20.0,60.0,necklace6,bench4,0.0,40.0,Agoldnecklace.jpg,30892819.thl.jpg,/static/Category_learning/Stimuli/Experimental_stims/necklace/Agoldnecklace.jpg,/static/Category_learning/Stimuli/Experimental_stims/bench/30892819.thl.jpg,0.0,bench,necklace,60.0,20.0,bench4,necklace6,40.0,0.0,0.0,305.011,1.011,,,,,,
294,,confirmation,,html-keyboard-response,294,514507,0.0-1.0-57.0-0.0-1.0-0.0,0,0,76870,,,,,,55.0,,,,,1.0,,,,,,,,,,,,,,,,,,,,,,,,,,,305.5,0.489,,,,,,
295,,isi,,html-keyboard-response,295,517544,0.0-1.0-57.0-0.0-2.0,0,0,76870,,,,,,55.0,,,,,1.0,,,,,,,,,,,,,,,,,,,,,,,,,,,308.5,3.0,,,,,,
296,,feedback,,html-keyboard-response,296,518561,0.0-1.0-57.0-0.0-3.0-0.0,0,0,76870,,,,,,55.0,,,,,1.0,,,,,,,,,,,,,,,,,,,,,,,,,,,309.5,1.0,,,,,,
297,,iti,,html-keyboard-response,297,519578,0.0-1.0-57.0-0.0-5.0,0,0,76870,,,,,,55.0,,,,,1.0,,,,,,,,,,,,,,,,,,,,,,,,,,,310.5,1.0,,,,,,
298,,choice,,html-keyboard-response,298,520340,0.0-1.0-58.0-0.0-0.0,0,0,76870,,756.0,,,68.0,56.0,56.0,1000.0,1500.0,0.0,1.0,0.0,20-80,,1.0,key chain,sofa,80.0,20.0,key chain1,sofa13,80.0,40.0,jm05s16.jpg,ACOUCH25.jpg,/static/Category_learning/Stimuli/Experimental_stims/key chain/jm05s16.jpg,/static/Category_learning/Stimuli/Experimental_stims/sofa/ACOUCH25.jpg,1.0,key chain,sofa,80.0,20.0,key chain1,sofa13,80.0,40.0,0.0,311.256,0.756,,,,,,
299,,confirmation,,html-keyboard-response,299,521101,0.0-1.0-58.0-0.0-1.0-0.0,0,0,76870,,,,,,56.0,,,,,1.0,,,,,,,,,,,,,,,,,,,,,,,,,,,312.0,0.744,,,,,,
300,,isi,,html-keyboard-response,300,522108,0.0-1.0-58.0-0.0-2.0,0,0,76870,,,,,,56.0,,,,,1.0,,,,,,,,,,,,,,,,,,,,,,,,,,,313.0,1.0,,,,,,
301,,feedback,,html-keyboard-response,301,523127,0.0-1.0-58.0-0.0-3.0-0.0,0,0,76870,,,,,,56.0,,,,,1.0,,,,,,,,,,,,,,,,,,,,,,,,,,,314.0,1.0,,,,,,
302,,iti,,html-keyboard-response,302,524633,0.0-1.0-58.0-0.0-5.0,0,0,76870,,,,,,56.0,,,,,1.0,,,,,,,,,,,,,,,,,,,,,,,,,,,315.5,1.5,,,,,,
303,,choice,,html-keyboard-response,303,525281,0.0-1.0-59.0-0.0-0.0,0,0,76870,,642.0,,,75.0,57.0,57.0,1500.0,1000.0,0.0,1.0,1.0,40-40,1.0,,stool,stool,40.0,40.0,stool8,stool5,60.0,40.0,ASTOOL33.jpg,ASTOOL23.jpg,/static/Category_learning/Stimuli/Experimental_stims/stool/ASTOOL33.jpg,/static/Category_learning/Stimuli/Experimental_stims/stool/ASTOOL23.jpg,0.0,stool,stool,40.0,40.0,stool5,stool8,40.0,60.0,0.0,316.142,0.642,,,,,,
304,,confirmation,,html-keyboard-response,304,526159,0.0-1.0-59.0-0.0-1.0-0.0,0,0,76870,,,,,,57.0,,,,,1.0,,,,,,,,,,,,,,,,,,,,,,,,,,,317.0,0.858,,,,,,
305,,isi,,html-keyboard-response,305,527666,0.0-1.0-59.0-0.0-2.0,0,0,76870,,,,,,57.0,,,,,1.0,,,,,,,,,,,,,,,,,,,,,,,,,,,318.5,1.5,,,,,,
306,,feedback,,html-keyboard-response,306,528676,0.0-1.0-59.0-0.0-3.0-0.0,0,0,76870,,,,,,57.0,,,,,1.0,,,,,,,,,,,,,,,,,,,,,,,,,,,319.5,1.0,,,,,,
307,,iti,,html-keyboard-response,307,529693,0.0-1.0-59.0-0.0-5.0,0,0,76870,,,,,,57.0,,,,,1.0,,,,,,,,,,,,,,,,,,,,,,,,,,,320.5,1.0,,,,,,
308,,choice,,html-keyboard-response,308,530547,0.0-1.0-60.0-0.0-0.0,0,0,76870,,848.0,,,68.0,58.0,58.0,3000.0,1000.0,0.0,1.0,0.0,40-80,,0.0,tent,hat,40.0,80.0,tent14,hat14,20.0,60.0,inflatable-tent.jpg,Ahat136.jpg,/static/Category_learning/Stimuli/Experimental_stims/tent/inflatable-tent.jpg,/static/Category_learning/Stimuli/Experimental_stims/hat/Ahat136.jpg,1.0,tent,hat,40.0,80.0,tent14,hat14,20.0,60.0,0.0,321.348,0.848,,,,,,
309,,confirmation,,html-keyboard-response,309,531205,0.0-1.0-60.0-0.0-1.0-0.0,0,0,76870,,,,,,58.0,,,,,1.0,,,,,,,,,,,,,,,,,,,,,,,,,,,322.0,0.652,,,,,,
310,,isi,,html-keyboard-response,310,534216,0.0-1.0-60.0-0.0-2.0,0,0,76870,,,,,,58.0,,,,,1.0,,,,,,,,,,,,,,,,,,,,,,,,,,,325.0,3.0,,,,,,
311,,feedback,,html-keyboard-response,311,535230,0.0-1.0-60.0-0.0-3.0-0.0,0,0,76870,,,,,,58.0,,,,,1.0,,,,,,,,,,,,,,,,,,,,,,,,,,,326.0,1.0,,,,,,
312,,iti,,html-keyboard-response,312,536242,0.0-1.0-60.0-0.0-5.0,0,0,76870,,,,,,58.0,,,,,1.0,,,,,,,,,,,,,,,,,,,,,,,,,,,327.0,1.0,,,,,,
313,,choice,,html-keyboard-response,313,536964,0.0-1.0-61.0-0.0-0.0,0,0,76870,,714.0,,,75.0,59.0,59.0,1500.0,1500.0,0.0,1.0,0.0,20-80,,1.0,frame,sofa,80.0,20.0,frame5,sofa11,60.0,0.0,AFRAME136.jpg,ALOVSEA19.jpg,/static/Category_learning/Stimuli/Experimental_stims/frame/AFRAME136.jpg,/static/Category_learning/Stimuli/Experimental_stims/sofa/ALOVSEA19.jpg,0.0,sofa,frame,20.0,80.0,sofa11,frame5,0.0,60.0,0.0,327.714,0.714,,,,,,
314,,confirmation,,html-keyboard-response,314,537757,0.0-1.0-61.0-0.0-1.0-0.0,0,0,76870,,,,,,59.0,,,,,1.0,,,,,,,,,,,,,,,,,,,,,,,,,,,328.5,0.786,,,,,,
315,,isi,,html-keyboard-response,315,539266,0.0-1.0-61.0-0.0-2.0,0,0,76870,,,,,,59.0,,,,,1.0,,,,,,,,,,,,,,,,,,,,,,,,,,,330.0,1.5,,,,,,
316,,feedback,,html-keyboard-response,316,540280,0.0-1.0-61.0-0.0-3.0-0.0,0,0,76870,,,,,,59.0,,,,,1.0,,,,,,,,,,,,,,,,,,,,,,,,,,,331.0,1.0,,,,,,
317,,iti,,html-keyboard-response,317,541785,0.0-1.0-61.0-0.0-5.0,0,0,76870,,,,,,59.0,,,,,1.0,,,,,,,,,,,,,,,,,,,,,,,,,,,332.5,1.5,,,,,,
318,,choice,,html-keyboard-response,318,542722,0.0-1.0-62.0-0.0-0.0,0,0,76870,,931.0,,,68.0,60.0,60.0,1000.0,2000.0,0.0,1.0,1.0,40-40,1.0,,tent,tent,40.0,40.0,tent5,tent14,60.0,20.0,Dome Tentnb87r67.jpg,inflatable-tent.jpg,/static/Category_learning/Stimuli/Experimental_stims/tent/Dome Tentnb87r67.jpg,/static/Category_learning/Stimuli/Experimental_stims/tent/inflatable-tent.jpg,1.0,tent,tent,40.0,40.0,tent5,tent14,60.0,20.0,0.0,333.431,0.931,,,,,,
319,,confirmation,,html-keyboard-response,319,543297,0.0-1.0-62.0-0.0-1.0-0.0,0,0,76870,,,,,,60.0,,,,,1.0,,,,,,,,,,,,,,,,,,,,,,,,,,,334.0,0.569,,,,,,
320,,isi,,html-keyboard-response,320,544305,0.0-1.0-62.0-0.0-2.0,0,0,76870,,,,,,60.0,,,,,1.0,,,,,,,,,,,,,,,,,,,,,,,,,,,335.0,1.0,,,,,,
321,,feedback,,html-keyboard-response,321,545324,0.0-1.0-62.0-0.0-3.0-0.0,0,0,76870,,,,,,60.0,,,,,1.0,,,,,,,,,,,,,,,,,,,,,,,,,,,336.0,1.0,,,,,,
322,,iti,,html-keyboard-response,322,547341,0.0-1.0-62.0-0.0-5.0,0,0,76870,,,,,,60.0,,,,,1.0,,,,,,,,,,,,,,,,,,,,,,,,,,,338.0,2.0,,,,,,
323,,choice,,html-keyboard-response,323,548135,0.0-1.0-63.0-0.0-0.0,0,0,76870,,788.0,,,75.0,61.0,61.0,3500.0,1500.0,0.0,1.0,0.0,20-40,,0.0,pen,vase,20.0,40.0,pen4,vase9,40.0,40.0,Montblanc_Greta_Garbo_BP copy.jpg,Avasewithang2.jpg,/static/Category_learning/Stimuli/Experimental_stims/pen/Montblanc_Greta_Garbo_BP copy.jpg,/static/Category_learning/Stimuli/Experimental_stims/vase/Avasewithang2.jpg,0.0,vase,pen,40.0,20.0,vase9,pen4,40.0,40.0,0.0,338.788,0.788,,,,,,
324,,confirmation,,html-keyboard-response,324,548859,0.0-1.0-63.0-0.0-1.0-0.0,0,0,76870,,,,,,61.0,,,,,1.0,,,,,,,,,,,,,,,,,,,,,,,,,,,339.5,0.712,,,,,,
325,,isi,,html-keyboard-response,325,552366,0.0-1.0-63.0-0.0-2.0,0,0,76870,,,,,,61.0,,,,,1.0,,,,,,,,,,,,,,,,,,,,,,,,,,,343.0,3.5,,,,,,
326,,feedback,,html-keyboard-response,326,553373,0.0-1.0-63.0-0.0-3.0-0.0,0,0,76870,,,,,,61.0,,,,,1.0,,,,,,,,,,,,,,,,,,,,,,,,,,,344.0,1.0,,,,,,
327,,iti,,html-keyboard-response,327,554883,0.0-1.0-63.0-0.0-5.0,0,0,76870,,,,,,61.0,,,,,1.0,,,,,,,,,,,,,,,,,,,,,,,,,,,345.5,1.5,,,,,,
328,,choice,,html-keyboard-response,328,556404,0.0-1.0-64.0-0.0-0.0,0,0,76870,,,,,,62.0,62.0,1000.0,2000.0,0.0,1.0,1.0,80-80,1.0,,key chain,key chain,80.0,80.0,key chain8,key chain1,100.0,80.0,Keychain01.jpg,jm05s16.jpg,/static/Category_learning/Stimuli/Experimental_stims/key chain/Keychain01.jpg,/static/Category_learning/Stimuli/Experimental_stims/key chain/jm05s16.jpg,,,,,,,,,,1.0,347.0,1.5,,,,,,
329,,isi,,html-keyboard-response,329,557418,0.0-1.0-64.0-0.0-2.0,0,0,76870,,,,,,62.0,,,,,1.0,,,,,,,,,,,,,,,,,,,,,,,,,,,348.0,1.0,,,,,,
330,,no_response,,html-keyboard-response,330,558434,0.0-1.0-64.0-0.0-4.0-0.0,0,0,76870,,,,,,62.0,,,,,1.0,,,,,,,,,,,,,,,,,,,,,,,,,,,349.0,1.0,,,,,,
331,,iti,,html-keyboard-response,331,560466,0.0-1.0-64.0-0.0-5.0,0,0,76870,,,,,,62.0,,,,,1.0,,,,,,,,,,,,,,,,,,,,,,,,,,,351.0,2.0,,,,,,
332,,block_over,,html-keyboard-response,332,667913,0.0-1.0-64.0-0.0-7.0-0.0,0,0,76870,,107437.0,,,68.0,62.0,,,,,,,,,,,,,,,,,,,,,,,,,,,,,,,,,,,,,,,
333,,start_run,,html-keyboard-response,333,670392,0.0-1.0-64.0-0.0-7.0-1.0,0,0,76870,,2473.0,,,84.0,,,,,,,,,,,,,,,,,,,,,,,,,,,,,,,,,,,,,,,,
334,,choice,,html-keyboard-response,334,671911,0.0-1.0-64.0-0.1-0.1,0,0,76870,,,,,,62.0,65.0,3000.0,2000.0,0.0,2.0,0.0,40-40,,,watch,tape,40.0,40.0,watch9,tape2,40.0,20.0,mens-diamond-watches-euro-48733-ab.jpg,Tape_Dispenser.jpg,/static/Category_learning/Stimuli/Experimental_stims/watch/mens-diamond-watches-euro-48733-ab.jpg,/static/Category_learning/Stimuli/Experimental_stims/tape/Tape_Dispenser.jpg,,,,,,,,,,1.0,1.5,1.5,,,,,,
335,,isi,,html-keyboard-response,335,672929,0.0-1.0-64.0-0.1-2.1,0,0,76870,,,,,,62.0,,,,,2.0,,,,,,,,,,,,,,,,,,,,,,,,,,,2.5,1.0,,,,,,
336,,no_response,,html-keyboard-response,336,673941,0.0-1.0-64.0-0.1-4.1-0.1,0,0,76870,,,,,,62.0,,,,,2.0,,,,,,,,,,,,,,,,,,,,,,,,,,,3.5,1.0,,,,,,
337,,iti,,html-keyboard-response,337,674987,0.0-1.0-64.0-0.1-5.1,0,0,76870,,,,,,62.0,,,,,2.0,,,,,,,,,,,,,,,,,,,,,,,,,,,4.5,1.0,,,,,,
338,,choice,,html-keyboard-response,338,675627,0.0-1.0-64.0-0.2-0.2,0,0,76870,,635.0,,,75.0,62.0,65.0,3000.0,2000.0,0.0,2.0,0.0,40-40,,,watch,tape,40.0,40.0,watch9,tape2,40.0,20.0,mens-diamond-watches-euro-48733-ab.jpg,Tape_Dispenser.jpg,/static/Category_learning/Stimuli/Experimental_stims/watch/mens-diamond-watches-euro-48733-ab.jpg,/static/Category_learning/Stimuli/Experimental_stims/tape/Tape_Dispenser.jpg,0.0,tape,watch,40.0,40.0,tape2,watch9,20.0,40.0,0.0,5.135,0.635,,,,,,
339,,confirmation,,html-keyboard-response,339,676513,0.0-1.0-64.0-0.2-1.2-0.2,0,0,76870,,,,,,62.0,,,,,2.0,,,,,,,,,,,,,,,,,,,,,,,,,,,6.0,0.865,,,,,,
340,,isi,,html-keyboard-response,340,678031,0.0-1.0-64.0-0.2-2.2,0,0,76870,,,,,,62.0,,,,,2.0,,,,,,,,,,,,,,,,,,,,,,,,,,,7.5,1.5,,,,,,
341,,feedback,,html-keyboard-response,341,679047,0.0-1.0-64.0-0.2-3.2-0.2,0,0,76870,,,,,,62.0,,,,,2.0,,,,,,,,,,,,,,,,,,,,,,,,,,,8.5,1.0,,,,,,
342,,iti,,html-keyboard-response,342,680052,0.0-1.0-64.0-0.2-5.2,0,0,76870,,,,,,62.0,,,,,2.0,,,,,,,,,,,,,,,,,,,,,,,,,,,9.5,1.0,,,,,,
343,,choice,,html-keyboard-response,343,680983,0.0-1.0-65.0-0.0-0.0,0,0,76870,,926.0,,,75.0,63.0,66.0,3000.0,1500.0,0.0,2.0,0.0,20-60,,0.0,pen,bowl,20.0,60.0,pen3,bowl13,0.0,80.0,pen08.jpg,Asoupbowl8.jpg,/static/Category_learning/Stimuli/Experimental_stims/pen/pen08.jpg,/static/Category_learning/Stimuli/Experimental_stims/bowl/Asoupbowl8.jpg,0.0,bowl,pen,60.0,20.0,bowl13,pen3,80.0,0.0,0.0,10.426,0.926,,,,,,
344,,confirmation,,html-keyboard-response,344,681569,0.0-1.0-65.0-0.0-1.0-0.0,0,0,76870,,,,,,63.0,,,,,2.0,,,,,,,,,,,,,,,,,,,,,,,,,,,11.0,0.574,,,,,,
345,,isi,,html-keyboard-response,345,684589,0.0-1.0-65.0-0.0-2.0,0,0,76870,,,,,,63.0,,,,,2.0,,,,,,,,,,,,,,,,,,,,,,,,,,,14.0,3.0,,,,,,
346,,feedback,,html-keyboard-response,346,685603,0.0-1.0-65.0-0.0-3.0-0.0,0,0,76870,,,,,,63.0,,,,,2.0,,,,,,,,,,,,,,,,,,,,,,,,,,,15.0,1.0,,,,,,
347,,iti,,html-keyboard-response,347,687112,0.0-1.0-65.0-0.0-5.0,0,0,76870,,,,,,63.0,,,,,2.0,,,,,,,,,,,,,,,,,,,,,,,,,,,16.5,1.5,,,,,,
348,,choice,,html-keyboard-response,348,687911,0.0-1.0-66.0-0.0-0.0,0,0,76870,,794.0,,,75.0,64.0,67.0,1000.0,3000.0,0.0,2.0,0.0,20-60,,0.0,nail polish,bongo,20.0,60.0,nail polish1,bongo8,20.0,80.0,200.jpg,26390661.thl.jpg,/static/Category_learning/Stimuli/Experimental_stims/nail polish/200.jpg,/static/Category_learning/Stimuli/Experimental_stims/bongo/26390661.thl.jpg,0.0,bongo,nail polish,60.0,20.0,bongo8,nail polish1,80.0,20.0,0.0,17.294,0.794,,,,,,
349,,confirmation,,html-keyboard-response,349,688639,0.0-1.0-66.0-0.0-1.0-0.0,0,0,76870,,,,,,64.0,,,,,2.0,,,,,,,,,,,,,,,,,,,,,,,,,,,18.0,0.706,,,,,,
350,,isi,,html-keyboard-response,350,689652,0.0-1.0-66.0-0.0-2.0,0,0,76870,,,,,,64.0,,,,,2.0,,,,,,,,,,,,,,,,,,,,,,,,,,,19.0,1.0,,,,,,
351,,feedback,,html-keyboard-response,351,690657,0.0-1.0-66.0-0.0-3.0-0.0,0,0,76870,,,,,,64.0,,,,,2.0,,,,,,,,,,,,,,,,,,,,,,,,,,,20.0,1.0,,,,,,
352,,iti,,html-keyboard-response,352,693678,0.0-1.0-66.0-0.0-5.0,0,0,76870,,,,,,64.0,,,,,2.0,,,,,,,,,,,,,,,,,,,,,,,,,,,23.0,3.0,,,,,,
353,,choice,,html-keyboard-response,353,694716,0.0-1.0-67.0-0.0-0.0,0,0,76870,,1032.0,,,75.0,65.0,68.0,1000.0,2000.0,0.0,2.0,0.0,20-20,,,power strip,patio lounge chair,20.0,20.0,power strip14,patio lounge chair13,20.0,20.0,88b2c724-e781-44ae-85d5-27b7591f659d_400.jpg,grosfillex-bahia-resin-chaise-lounges.jpg,/static/Category_learning/Stimuli/Experimental_stims/power strip/88b2c724-e781-44ae-85d5-27b7591f659d_400.jpg,/static/Category_learning/Stimuli/Experimental_stims/patio lounge chair/grosfillex-bahia-resin-chaise-lounges.jpg,0.0,patio lounge chair,power strip,20.0,20.0,patio lounge chair13,power strip14,20.0,20.0,0.0,24.032,1.032,,,,,,
354,,confirmation,,html-keyboard-response,354,695201,0.0-1.0-67.0-0.0-1.0-0.0,0,0,76870,,,,,,65.0,,,,,2.0,,,,,,,,,,,,,,,,,,,,,,,,,,,24.5,0.468,,,,,,
355,,isi,,html-keyboard-response,355,696216,0.0-1.0-67.0-0.0-2.0,0,0,76870,,,,,,65.0,,,,,2.0,,,,,,,,,,,,,,,,,,,,,,,,,,,25.5,1.0,,,,,,
356,,feedback,,html-keyboard-response,356,697228,0.0-1.0-67.0-0.0-3.0-0.0,0,0,76870,,,,,,65.0,,,,,2.0,,,,,,,,,,,,,,,,,,,,,,,,,,,26.5,1.0,,,,,,
357,,iti,,html-keyboard-response,357,699247,0.0-1.0-67.0-0.0-5.0,0,0,76870,,,,,,65.0,,,,,2.0,,,,,,,,,,,,,,,,,,,,,,,,,,,28.5,2.0,,,,,,
358,,choice,,html-keyboard-response,358,699903,0.0-1.0-68.0-0.0-0.0,0,0,76870,,651.0,,,68.0,66.0,69.0,1500.0,1500.0,0.0,2.0,0.0,40-40,,,tent,train,40.0,40.0,tent2,train1,40.0,40.0,Atent16.jpg,Model_Train.jpg,/static/Category_learning/Stimuli/Experimental_stims/tent/Atent16.jpg,/static/Category_learning/Stimuli/Experimental_stims/train/Model_Train.jpg,1.0,tent,train,40.0,40.0,tent2,train1,40.0,40.0,0.0,29.151,0.651,,,,,,
359,,confirmation,,html-keyboard-response,359,700761,0.0-1.0-68.0-0.0-1.0-0.0,0,0,76870,,,,,,66.0,,,,,2.0,,,,,,,,,,,,,,,,,,,,,,,,,,,30.0,0.849,,,,,,
360,,isi,,html-keyboard-response,360,702272,0.0-1.0-68.0-0.0-2.0,0,0,76870,,,,,,66.0,,,,,2.0,,,,,,,,,,,,,,,,,,,,,,,,,,,31.5,1.5,,,,,,
361,,feedback,,html-keyboard-response,361,703291,0.0-1.0-68.0-0.0-3.0-0.0,0,0,76870,,,,,,66.0,,,,,2.0,,,,,,,,,,,,,,,,,,,,,,,,,,,32.5,1.0,,,,,,
362,,iti,,html-keyboard-response,362,704809,0.0-1.0-68.0-0.0-5.0,0,0,76870,,,,,,66.0,,,,,2.0,,,,,,,,,,,,,,,,,,,,,,,,,,,34.0,1.5,,,,,,
363,,choice,,html-keyboard-response,363,705468,0.0-1.0-69.0-0.0-0.0,0,0,76870,,653.0,,,75.0,67.0,70.0,1500.0,1500.0,0.0,2.0,0.0,40-80,,1.0,key chain,vase,80.0,40.0,key chain5,vase7,60.0,60.0,keychain-metal-logo.jpg,8246344.thl.jpg,/static/Category_learning/Stimuli/Experimental_stims/key chain/keychain-metal-logo.jpg,/static/Category_learning/Stimuli/Experimental_stims/vase/8246344.thl.jpg,0.0,vase,key chain,40.0,80.0,vase7,key chain5,60.0,60.0,0.0,34.653,0.653,,,,,,
364,,confirmation,,html-keyboard-response,364,706334,0.0-1.0-69.0-0.0-1.0-0.0,0,0,76870,,,,,,67.0,,,,,2.0,,,,,,,,,,,,,,,,,,,,,,,,,,,35.5,0.847,,,,,,
365,,isi,,html-keyboard-response,365,707843,0.0-1.0-69.0-0.0-2.0,0,0,76870,,,,,,67.0,,,,,2.0,,,,,,,,,,,,,,,,,,,,,,,,,,,37.0,1.5,,,,,,
366,,feedback,,html-keyboard-response,366,708864,0.0-1.0-69.0-0.0-3.0-0.0,0,0,76870,,,,,,67.0,,,,,2.0,,,,,,,,,,,,,,,,,,,,,,,,,,,38.0,1.0,,,,,,
367,,iti,,html-keyboard-response,367,710374,0.0-1.0-69.0-0.0-5.0,0,0,76870,,,,,,67.0,,,,,2.0,,,,,,,,,,,,,,,,,,,,,,,,,,,39.5,1.5,,,,,,
368,,choice,,html-keyboard-response,368,710811,0.0-1.0-70.0-0.0-0.0,0,0,76870,,431.0,,,68.0,68.0,71.0,1000.0,2000.0,0.0,2.0,0.0,20-40,,0.0,power strip,trumpet,20.0,40.0,power strip5,trumpet8,0.0,60.0,93e4a283-bcd6-4ad1-8add-339658cda0fc_400.jpg,trumpet33.jpg,/static/Category_learning/Stimuli/Experimental_stims/power strip/93e4a283-bcd6-4ad1-8add-339658cda0fc_400.jpg,/static/Category_learning/Stimuli/Experimental_stims/trumpet/trumpet33.jpg,1.0,power strip,trumpet,20.0,40.0,power strip5,trumpet8,0.0,60.0,0.0,39.931,0.431,,,,,,
369,,confirmation,,html-keyboard-response,369,711900,0.0-1.0-70.0-0.0-1.0-0.0,0,0,76870,,,,,,68.0,,,,,2.0,,,,,,,,,,,,,,,,,,,,,,,,,,,41.0,1.069,,,,,,
370,,isi,,html-keyboard-response,370,712920,0.0-1.0-70.0-0.0-2.0,0,0,76870,,,,,,68.0,,,,,2.0,,,,,,,,,,,,,,,,,,,,,,,,,,,42.0,1.0,,,,,,
371,,feedback,,html-keyboard-response,371,713927,0.0-1.0-70.0-0.0-3.0-0.0,0,0,76870,,,,,,68.0,,,,,2.0,,,,,,,,,,,,,,,,,,,,,,,,,,,43.0,1.0,,,,,,
372,,iti,,html-keyboard-response,372,715946,0.0-1.0-70.0-0.0-5.0,0,0,76870,,,,,,68.0,,,,,2.0,,,,,,,,,,,,,,,,,,,,,,,,,,,45.0,2.0,,,,,,
373,,choice,,html-keyboard-response,373,716458,0.0-1.0-71.0-0.0-0.0,0,0,76870,,507.0,,,75.0,69.0,72.0,3500.0,1000.0,0.0,2.0,0.0,40-80,,1.0,key chain,watch,80.0,40.0,key chain10,watch3,80.0,60.0,Smurfs_Keychains_Smurf_Row_Boat.jpg,B0000TIIVO.01._SCLZZZZZZZ_V1124920780_.jpg,/static/Category_learning/Stimuli/Experimental_stims/key chain/Smurfs_Keychains_Smurf_Row_Boat.jpg,/static/Category_learning/Stimuli/Experimental_stims/watch/B0000TIIVO.01._SCLZZZZZZZ_V1124920780_.jpg,0.0,watch,key chain,40.0,80.0,watch3,key chain10,60.0,80.0,0.0,45.507,0.507,,,,,,
374,,confirmation,,html-keyboard-response,374,717467,0.0-1.0-71.0-0.0-1.0-0.0,0,0,76870,,,,,,69.0,,,,,2.0,,,,,,,,,,,,,,,,,,,,,,,,,,,46.5,0.993,,,,,,
375,,isi,,html-keyboard-response,375,720980,0.0-1.0-71.0-0.0-2.0,0,0,76870,,,,,,69.0,,,,,2.0,,,,,,,,,,,,,,,,,,,,,,,,,,,50.0,3.5,,,,,,
376,,feedback,,html-keyboard-response,376,721994,0.0-1.0-71.0-0.0-3.0-0.0,0,0,76870,,,,,,69.0,,,,,2.0,,,,,,,,,,,,,,,,,,,,,,,,,,,51.0,1.0,,,,,,
377,,iti,,html-keyboard-response,377,723006,0.0-1.0-71.0-0.0-5.0,0,0,76870,,,,,,69.0,,,,,2.0,,,,,,,,,,,,,,,,,,,,,,,,,,,52.0,1.0,,,,,,
378,,choice,,html-keyboard-response,378,723627,0.0-1.0-72.0-0.0-0.0,0,0,76870,,615.0,,,68.0,70.0,73.0,2000.0,2000.0,0.0,2.0,0.0,20-60,,0.0,small table,baby carriage,20.0,60.0,small table3,baby carriage14,20.0,80.0,Atable122.jpg,peg_perego_uno_verde.jpg,/static/Category_learning/Stimuli/Experimental_stims/small table/Atable122.jpg,/static/Category_learning/Stimuli/Experimental_stims/baby carriage/peg_perego_uno_verde.jpg,1.0,small table,baby carriage,20.0,60.0,small table3,baby carriage14,20.0,80.0,0.0,52.615,0.615,,,,,,
379,,confirmation,,html-keyboard-response,379,724525,0.0-1.0-72.0-0.0-1.0-0.0,0,0,76870,,,,,,70.0,,,,,2.0,,,,,,,,,,,,,,,,,,,,,,,,,,,53.5,0.885,,,,,,
380,,isi,,html-keyboard-response,380,726548,0.0-1.0-72.0-0.0-2.0,0,0,76870,,,,,,70.0,,,,,2.0,,,,,,,,,,,,,,,,,,,,,,,,,,,55.5,2.0,,,,,,
381,,feedback,,html-keyboard-response,381,727566,0.0-1.0-72.0-0.0-3.0-0.0,0,0,76870,,,,,,70.0,,,,,2.0,,,,,,,,,,,,,,,,,,,,,,,,,,,56.5,1.0,,,,,,
382,,iti,,html-keyboard-response,382,729572,0.0-1.0-72.0-0.0-5.0,0,0,76870,,,,,,70.0,,,,,2.0,,,,,,,,,,,,,,,,,,,,,,,,,,,58.5,2.0,,,,,,
383,,choice,,html-keyboard-response,383,730083,0.0-1.0-73.0-0.0-0.0,0,0,76870,,506.0,,,75.0,71.0,74.0,2000.0,3500.0,0.0,2.0,0.0,40-60,,1.0,baby carriage,train,60.0,40.0,baby carriage13,train15,40.0,40.0,300px-Barnevogn2.jpg,master-TD006.jpg,/static/Category_learning/Stimuli/Experimental_stims/baby carriage/300px-Barnevogn2.jpg,/static/Category_learning/Stimuli/Experimental_stims/train/master-TD006.jpg,0.0,train,baby carriage,40.0,60.0,train15,baby carriage13,40.0,40.0,0.0,59.006,0.506,,,,,,
384,,confirmation,,html-keyboard-response,384,731097,0.0-1.0-73.0-0.0-1.0-0.0,0,0,76870,,,,,,71.0,,,,,2.0,,,,,,,,,,,,,,,,,,,,,,,,,,,60.0,0.994,,,,,,
385,,isi,,html-keyboard-response,385,733113,0.0-1.0-73.0-0.0-2.0,0,0,76870,,,,,,71.0,,,,,2.0,,,,,,,,,,,,,,,,,,,,,,,,,,,62.0,2.0,,,,,,
386,,feedback,,html-keyboard-response,386,734127,0.0-1.0-73.0-0.0-3.0-0.0,0,0,76870,,,,,,71.0,,,,,2.0,,,,,,,,,,,,,,,,,,,,,,,,,,,63.0,1.0,,,,,,
387,,iti,,html-keyboard-response,387,737669,0.0-1.0-73.0-0.0-5.0,0,0,76870,,,,,,71.0,,,,,2.0,,,,,,,,,,,,,,,,,,,,,,,,,,,66.5,3.5,,,,,,
388,,choice,,html-keyboard-response,388,738194,0.0-1.0-74.0-0.0-0.0,0,0,76870,,519.0,,,68.0,72.0,75.0,1000.0,1000.0,0.0,2.0,0.0,40-80,,0.0,trumpet,hat,40.0,80.0,trumpet2,hat12,40.0,60.0,Matt-Stevens-Pocket-Trumpet.jpg,Aformalhat5.jpg,/static/Category_learning/Stimuli/Experimental_stims/trumpet/Matt-Stevens-Pocket-Trumpet.jpg,/static/Category_learning/Stimuli/Experimental_stims/hat/Aformalhat5.jpg,1.0,trumpet,hat,40.0,80.0,trumpet2,hat12,40.0,60.0,0.0,67.019,0.519,,,,,,
389,,confirmation,,html-keyboard-response,389,739209,0.0-1.0-74.0-0.0-1.0-0.0,0,0,76870,,,,,,72.0,,,,,2.0,,,,,,,,,,,,,,,,,,,,,,,,,,,68.0,0.981,,,,,,
390,,isi,,html-keyboard-response,390,740219,0.0-1.0-74.0-0.0-2.0,0,0,76870,,,,,,72.0,,,,,2.0,,,,,,,,,,,,,,,,,,,,,,,,,,,69.0,1.0,,,,,,
391,,feedback,,html-keyboard-response,391,741224,0.0-1.0-74.0-0.0-3.0-0.0,0,0,76870,,,,,,72.0,,,,,2.0,,,,,,,,,,,,,,,,,,,,,,,,,,,70.0,1.0,,,,,,
392,,iti,,html-keyboard-response,392,742238,0.0-1.0-74.0-0.0-5.0,0,0,76870,,,,,,72.0,,,,,2.0,,,,,,,,,,,,,,,,,,,,,,,,,,,71.0,1.0,,,,,,
393,,choice,,html-keyboard-response,393,743049,0.0-1.0-75.0-0.0-0.0,0,0,76870,,805.0,,,68.0,73.0,76.0,1000.0,1000.0,0.0,2.0,0.0,20-40,,1.0,trumpet,poker card,40.0,20.0,trumpet1,poker card2,60.0,40.0,JUPITER+TROMPETTE+606MRL.JPG,22864716.thl.jpg,/static/Category_learning/Stimuli/Experimental_stims/trumpet/JUPITER+TROMPETTE+606MRL.JPG,/static/Category_learning/Stimuli/Experimental_stims/poker card/22864716.thl.jpg,1.0,trumpet,poker card,40.0,20.0,trumpet1,poker card2,60.0,40.0,0.0,71.805,0.805,,,,,,
394,,confirmation,,html-keyboard-response,394,743760,0.0-1.0-75.0-0.0-1.0-0.0,0,0,76870,,,,,,73.0,,,,,2.0,,,,,,,,,,,,,,,,,,,,,,,,,,,72.5,0.695,,,,,,
395,,isi,,html-keyboard-response,395,744766,0.0-1.0-75.0-0.0-2.0,0,0,76870,,,,,,73.0,,,,,2.0,,,,,,,,,,,,,,,,,,,,,,,,,,,73.5,1.0,,,,,,
396,,feedback,,html-keyboard-response,396,745771,0.0-1.0-75.0-0.0-3.0-0.0,0,0,76870,,,,,,73.0,,,,,2.0,,,,,,,,,,,,,,,,,,,,,,,,,,,74.5,1.0,,,,,,
397,,iti,,html-keyboard-response,397,746781,0.0-1.0-75.0-0.0-5.0,0,0,76870,,,,,,73.0,,,,,2.0,,,,,,,,,,,,,,,,,,,,,,,,,,,75.5,1.0,,,,,,
398,,choice,,html-keyboard-response,398,747391,0.0-1.0-76.0-0.0-0.0,0,0,76870,,605.0,,,75.0,74.0,77.0,1500.0,1000.0,0.0,2.0,0.0,20-80,,1.0,microscope,necklace,80.0,20.0,microscope5,necklace4,100.0,20.0,emMicroscope.jpg,emerald_diamond_necklace.jpg,/static/Category_learning/Stimuli/Experimental_stims/microscope/emMicroscope.jpg,/static/Category_learning/Stimuli/Experimental_stims/necklace/emerald_diamond_necklace.jpg,0.0,necklace,microscope,20.0,80.0,necklace4,microscope5,20.0,100.0,0.0,76.105,0.605,,,,,,
399,,confirmation,,html-keyboard-response,399,748304,0.0-1.0-76.0-0.0-1.0-0.0,0,0,76870,,,,,,74.0,,,,,2.0,,,,,,,,,,,,,,,,,,,,,,,,,,,77.0,0.895,,,,,,
400,,isi,,html-keyboard-response,400,749821,0.0-1.0-76.0-0.0-2.0,0,0,76870,,,,,,74.0,,,,,2.0,,,,,,,,,,,,,,,,,,,,,,,,,,,78.5,1.5,,,,,,
401,,feedback,,html-keyboard-response,401,750835,0.0-1.0-76.0-0.0-3.0-0.0,0,0,76870,,,,,,74.0,,,,,2.0,,,,,,,,,,,,,,,,,,,,,,,,,,,79.5,1.0,,,,,,
402,,iti,,html-keyboard-response,402,751852,0.0-1.0-76.0-0.0-5.0,0,0,76870,,,,,,74.0,,,,,2.0,,,,,,,,,,,,,,,,,,,,,,,,,,,80.5,1.0,,,,,,
403,,choice,,html-keyboard-response,403,752655,0.0-1.0-77.0-0.0-0.0,0,0,76870,,793.0,,,68.0,75.0,78.0,1500.0,2000.0,0.0,2.0,1.0,60-60,1.0,,bowl,bowl,60.0,60.0,bowl13,bowl8,80.0,40.0,Asoupbowl8.jpg,ASLVBOWL.jpg,/static/Category_learning/Stimuli/Experimental_stims/bowl/Asoupbowl8.jpg,/static/Category_learning/Stimuli/Experimental_stims/bowl/ASLVBOWL.jpg,1.0,bowl,bowl,60.0,60.0,bowl13,bowl8,80.0,40.0,0.0,81.293,0.793,,,,,,
404,,confirmation,,html-keyboard-response,404,753374,0.0-1.0-77.0-0.0-1.0-0.0,0,0,76870,,,,,,75.0,,,,,2.0,,,,,,,,,,,,,,,,,,,,,,,,,,,82.0,0.707,,,,,,
405,,isi,,html-keyboard-response,405,754895,0.0-1.0-77.0-0.0-2.0,0,0,76870,,,,,,75.0,,,,,2.0,,,,,,,,,,,,,,,,,,,,,,,,,,,83.5,1.5,,,,,,
406,,feedback,,html-keyboard-response,406,755911,0.0-1.0-77.0-0.0-3.0-0.0,0,0,76870,,,,,,75.0,,,,,2.0,,,,,,,,,,,,,,,,,,,,,,,,,,,84.5,1.0,,,,,,
407,,iti,,html-keyboard-response,407,757931,0.0-1.0-77.0-0.0-5.0,0,0,76870,,,,,,75.0,,,,,2.0,,,,,,,,,,,,,,,,,,,,,,,,,,,86.5,2.0,,,,,,
408,,choice,,html-keyboard-response,408,758432,0.0-1.0-78.0-0.0-0.0,0,0,76870,,496.0,,,75.0,76.0,79.0,1500.0,3500.0,0.0,2.0,1.0,40-40,1.0,,trumpet,trumpet,40.0,40.0,trumpet2,trumpet1,40.0,60.0,Matt-Stevens-Pocket-Trumpet.jpg,JUPITER+TROMPETTE+606MRL.JPG,/static/Category_learning/Stimuli/Experimental_stims/trumpet/Matt-Stevens-Pocket-Trumpet.jpg,/static/Category_learning/Stimuli/Experimental_stims/trumpet/JUPITER+TROMPETTE+606MRL.JPG,0.0,trumpet,trumpet,40.0,40.0,trumpet1,trumpet2,60.0,40.0,0.0,86.996,0.496,,,,,,
409,,confirmation,,html-keyboard-response,409,759445,0.0-1.0-78.0-0.0-1.0-0.0,0,0,76870,,,,,,76.0,,,,,2.0,,,,,,,,,,,,,,,,,,,,,,,,,,,88.0,1.004,,,,,,
410,,isi,,html-keyboard-response,410,760956,0.0-1.0-78.0-0.0-2.0,0,0,76870,,,,,,76.0,,,,,2.0,,,,,,,,,,,,,,,,,,,,,,,,,,,89.5,1.5,,,,,,
411,,feedback,,html-keyboard-response,411,761968,0.0-1.0-78.0-0.0-3.0-0.0,0,0,76870,,,,,,76.0,,,,,2.0,,,,,,,,,,,,,,,,,,,,,,,,,,,90.5,1.0,,,,,,
412,,iti,,html-keyboard-response,412,765486,0.0-1.0-78.0-0.0-5.0,0,0,76870,,,,,,76.0,,,,,2.0,,,,,,,,,,,,,,,,,,,,,,,,,,,94.0,3.5,,,,,,
413,,choice,,html-keyboard-response,413,766176,0.0-1.0-79.0-0.0-0.0,0,0,76870,,684.0,,,68.0,77.0,80.0,1000.0,2000.0,0.0,2.0,0.0,20-80,,0.0,pen,key chain,20.0,80.0,pen6,key chain13,40.0,100.0,executive_pen2.jpg,Fancy_Liquid_Column_Shape_Key_Ring_with_Floater.jpg,/static/Category_learning/Stimuli/Experimental_stims/pen/executive_pen2.jpg,/static/Category_learning/Stimuli/Experimental_stims/key chain/Fancy_Liquid_Column_Shape_Key_Ring_with_Floater.jpg,1.0,pen,key chain,20.0,80.0,pen6,key chain13,40.0,100.0,0.0,94.684,0.684,,,,,,
414,,confirmation,,html-keyboard-response,414,767006,0.0-1.0-79.0-0.0-1.0-0.0,0,0,76870,,,,,,77.0,,,,,2.0,,,,,,,,,,,,,,,,,,,,,,,,,,,95.5,0.816,,,,,,
415,,isi,,html-keyboard-response,415,768013,0.0-1.0-79.0-0.0-2.0,0,0,76870,,,,,,77.0,,,,,2.0,,,,,,,,,,,,,,,,,,,,,,,,,,,96.5,1.0,,,,,,
416,,feedback,,html-keyboard-response,416,769025,0.0-1.0-79.0-0.0-3.0-0.0,0,0,76870,,,,,,77.0,,,,,2.0,,,,,,,,,,,,,,,,,,,,,,,,,,,97.5,1.0,,,,,,
417,,iti,,html-keyboard-response,417,771046,0.0-1.0-79.0-0.0-5.0,0,0,76870,,,,,,77.0,,,,,2.0,,,,,,,,,,,,,,,,,,,,,,,,,,,99.5,2.0,,,,,,
418,,choice,,html-keyboard-response,418,771673,0.0-1.0-80.0-0.0-0.0,0,0,76870,,622.0,,,75.0,78.0,81.0,3500.0,2000.0,0.0,2.0,0.0,60-60,,,bowl,bench,60.0,60.0,bowl7,bench2,80.0,60.0,Abowl54.jpg,26369969.thl.jpg,/static/Category_learning/Stimuli/Experimental_stims/bowl/Abowl54.jpg,/static/Category_learning/Stimuli/Experimental_stims/bench/26369969.thl.jpg,0.0,bench,bowl,60.0,60.0,bench2,bowl7,60.0,80.0,0.0,100.122,0.622,,,,,,
419,,confirmation,,html-keyboard-response,419,772559,0.0-1.0-80.0-0.0-1.0-0.0,0,0,76870,,,,,,78.0,,,,,2.0,,,,,,,,,,,,,,,,,,,,,,,,,,,101.0,0.878,,,,,,
420,,isi,,html-keyboard-response,420,776065,0.0-1.0-80.0-0.0-2.0,0,0,76870,,,,,,78.0,,,,,2.0,,,,,,,,,,,,,,,,,,,,,,,,,,,104.5,3.5,,,,,,
421,,feedback,,html-keyboard-response,421,777077,0.0-1.0-80.0-0.0-3.0-0.0,0,0,76870,,,,,,78.0,,,,,2.0,,,,,,,,,,,,,,,,,,,,,,,,,,,105.5,1.0,,,,,,
422,,iti,,html-keyboard-response,422,779096,0.0-1.0-80.0-0.0-5.0,0,0,76870,,,,,,78.0,,,,,2.0,,,,,,,,,,,,,,,,,,,,,,,,,,,107.5,2.0,,,,,,
423,,choice,,html-keyboard-response,423,779972,0.0-1.0-81.0-0.0-0.0,0,0,76870,,871.0,,,75.0,79.0,82.0,1000.0,1500.0,0.0,2.0,0.0,60-80,,1.0,frame,bench,80.0,60.0,frame14,bench1,80.0,40.0,AFRAME129.jpg,26419975.thl.jpg,/static/Category_learning/Stimuli/Experimental_stims/frame/AFRAME129.jpg,/static/Category_learning/Stimuli/Experimental_stims/bench/26419975.thl.jpg,0.0,bench,frame,60.0,80.0,bench1,frame14,40.0,80.0,0.0,108.371,0.871,,,,,,
424,,confirmation,,html-keyboard-response,424,780620,0.0-1.0-81.0-0.0-1.0-0.0,0,0,76870,,,,,,79.0,,,,,2.0,,,,,,,,,,,,,,,,,,,,,,,,,,,109.0,0.629,,,,,,
425,,isi,,html-keyboard-response,425,781635,0.0-1.0-81.0-0.0-2.0,0,0,76870,,,,,,79.0,,,,,2.0,,,,,,,,,,,,,,,,,,,,,,,,,,,110.0,1.0,,,,,,
426,,feedback,,html-keyboard-response,426,782655,0.0-1.0-81.0-0.0-3.0-0.0,0,0,76870,,,,,,79.0,,,,,2.0,,,,,,,,,,,,,,,,,,,,,,,,,,,111.0,1.0,,,,,,
427,,iti,,html-keyboard-response,427,784168,0.0-1.0-81.0-0.0-5.0,0,0,76870,,,,,,79.0,,,,,2.0,,,,,,,,,,,,,,,,,,,,,,,,,,,112.5,1.5,,,,,,
428,,choice,,html-keyboard-response,428,784630,0.0-1.0-82.0-0.0-0.0,0,0,76870,,457.0,,,68.0,80.0,83.0,1500.0,1000.0,0.0,2.0,0.0,20-80,,1.0,key chain,poker card,80.0,20.0,key chain6,poker card12,80.0,20.0,highboy_keychain_ItemCA75384.jpg,22865676.thl.jpg,/static/Category_learning/Stimuli/Experimental_stims/key chain/highboy_keychain_ItemCA75384.jpg,/static/Category_learning/Stimuli/Experimental_stims/poker card/22865676.thl.jpg,1.0,key chain,poker card,80.0,20.0,key chain6,poker card12,80.0,20.0,0.0,112.957,0.457,,,,,,
429,,confirmation,,html-keyboard-response,429,785691,0.0-1.0-82.0-0.0-1.0-0.0,0,0,76870,,,,,,80.0,,,,,2.0,,,,,,,,,,,,,,,,,,,,,,,,,,,114.0,1.043,,,,,,
430,,isi,,html-keyboard-response,430,787201,0.0-1.0-82.0-0.0-2.0,0,0,76870,,,,,,80.0,,,,,2.0,,,,,,,,,,,,,,,,,,,,,,,,,,,115.5,1.5,,,,,,
431,,feedback,,html-keyboard-response,431,788207,0.0-1.0-82.0-0.0-3.0-0.0,0,0,76870,,,,,,80.0,,,,,2.0,,,,,,,,,,,,,,,,,,,,,,,,,,,116.5,1.0,,,,,,
432,,iti,,html-keyboard-response,432,789216,0.0-1.0-82.0-0.0-5.0,0,0,76870,,,,,,80.0,,,,,2.0,,,,,,,,,,,,,,,,,,,,,,,,,,,117.5,1.0,,,,,,
433,,choice,,html-keyboard-response,433,790166,0.0-1.0-83.0-0.0-0.0,0,0,76870,,944.0,,,68.0,81.0,84.0,2000.0,1500.0,0.0,2.0,0.0,20-60,,0.0,poker card,bowl,20.0,60.0,poker card6,bowl1,40.0,40.0,22864212.thl.jpg,ABOWLS6.jpg,/static/Category_learning/Stimuli/Experimental_stims/poker card/22864212.thl.jpg,/static/Category_learning/Stimuli/Experimental_stims/bowl/ABOWLS6.jpg,1.0,poker card,bowl,20.0,60.0,poker card6,bowl1,40.0,40.0,0.0,118.444,0.944,,,,,,
434,,confirmation,,html-keyboard-response,434,790735,0.0-1.0-83.0-0.0-1.0-0.0,0,0,76870,,,,,,81.0,,,,,2.0,,,,,,,,,,,,,,,,,,,,,,,,,,,119.0,0.556,,,,,,
435,,isi,,html-keyboard-response,435,792750,0.0-1.0-83.0-0.0-2.0,0,0,76870,,,,,,81.0,,,,,2.0,,,,,,,,,,,,,,,,,,,,,,,,,,,121.0,2.0,,,,,,
436,,feedback,,html-keyboard-response,436,793769,0.0-1.0-83.0-0.0-3.0-0.0,0,0,76870,,,,,,81.0,,,,,2.0,,,,,,,,,,,,,,,,,,,,,,,,,,,122.0,1.0,,,,,,
437,,iti,,html-keyboard-response,437,795275,0.0-1.0-83.0-0.0-5.0,0,0,76870,,,,,,81.0,,,,,2.0,,,,,,,,,,,,,,,,,,,,,,,,,,,123.5,1.5,,,,,,
438,,choice,,html-keyboard-response,438,796116,0.0-1.0-84.0-0.0-0.0,0,0,76870,,834.0,,,68.0,82.0,85.0,1500.0,3500.0,0.0,2.0,1.0,80-80,1.0,,key chain,key chain,80.0,80.0,key chain6,key chain8,80.0,100.0,highboy_keychain_ItemCA75384.jpg,Keychain01.jpg,/static/Category_learning/Stimuli/Experimental_stims/key chain/highboy_keychain_ItemCA75384.jpg,/static/Category_learning/Stimuli/Experimental_stims/key chain/Keychain01.jpg,1.0,key chain,key chain,80.0,80.0,key chain6,key chain8,80.0,100.0,0.0,124.334,0.834,,,,,,
439,,confirmation,,html-keyboard-response,439,796796,0.0-1.0-84.0-0.0-1.0-0.0,0,0,76870,,,,,,82.0,,,,,2.0,,,,,,,,,,,,,,,,,,,,,,,,,,,125.0,0.666,,,,,,
440,,isi,,html-keyboard-response,440,798303,0.0-1.0-84.0-0.0-2.0,0,0,76870,,,,,,82.0,,,,,2.0,,,,,,,,,,,,,,,,,,,,,,,,,,,126.5,1.5,,,,,,
441,,feedback,,html-keyboard-response,441,799308,0.0-1.0-84.0-0.0-3.0-0.0,0,0,76870,,,,,,82.0,,,,,2.0,,,,,,,,,,,,,,,,,,,,,,,,,,,127.5,1.0,,,,,,
442,,iti,,html-keyboard-response,442,802823,0.0-1.0-84.0-0.0-5.0,0,0,76870,,,,,,82.0,,,,,2.0,,,,,,,,,,,,,,,,,,,,,,,,,,,131.0,3.5,,,,,,
443,,choice,,html-keyboard-response,443,803454,0.0-1.0-85.0-0.0-0.0,0,0,76870,,624.0,,,75.0,83.0,86.0,1000.0,1000.0,0.0,2.0,0.0,40-80,,1.0,frame,tape,80.0,40.0,frame1,tape11,80.0,20.0,AFRAME127.jpg,41FZA73H4JL._AA280_.jpg,/static/Category_learning/Stimuli/Experimental_stims/frame/AFRAME127.jpg,/static/Category_learning/Stimuli/Experimental_stims/tape/41FZA73H4JL._AA280_.jpg,0.0,tape,frame,40.0,80.0,tape11,frame1,20.0,80.0,0.0,131.624,0.624,,,,,,
444,,confirmation,,html-keyboard-response,444,804346,0.0-1.0-85.0-0.0-1.0-0.0,0,0,76870,,,,,,83.0,,,,,2.0,,,,,,,,,,,,,,,,,,,,,,,,,,,132.5,0.876,,,,,,
445,,isi,,html-keyboard-response,445,805351,0.0-1.0-85.0-0.0-2.0,0,0,76870,,,,,,83.0,,,,,2.0,,,,,,,,,,,,,,,,,,,,,,,,,,,133.5,1.0,,,,,,
446,,feedback,,html-keyboard-response,446,806366,0.0-1.0-85.0-0.0-3.0-0.0,0,0,76870,,,,,,83.0,,,,,2.0,,,,,,,,,,,,,,,,,,,,,,,,,,,134.5,1.0,,,,,,
447,,iti,,html-keyboard-response,447,807380,0.0-1.0-85.0-0.0-5.0,0,0,76870,,,,,,83.0,,,,,2.0,,,,,,,,,,,,,,,,,,,,,,,,,,,135.5,1.0,,,,,,
448,,choice,,html-keyboard-response,448,807966,0.0-1.0-86.0-0.0-0.0,0,0,76870,,581.0,,,68.0,84.0,87.0,1500.0,1000.0,0.0,2.0,0.0,20-60,,1.0,bowl,seashell,60.0,20.0,bowl12,seashell1,40.0,0.0,Abowl52.jpg,Aseashe34.jpg,/static/Category_learning/Stimuli/Experimental_stims/bowl/Abowl52.jpg,/static/Category_learning/Stimuli/Experimental_stims/seashell/Aseashe34.jpg,1.0,bowl,seashell,60.0,20.0,bowl12,seashell1,40.0,0.0,0.0,136.081,0.581,,,,,,
449,,confirmation,,html-keyboard-response,449,808895,0.0-1.0-86.0-0.0-1.0-0.0,0,0,76870,,,,,,84.0,,,,,2.0,,,,,,,,,,,,,,,,,,,,,,,,,,,137.0,0.919,,,,,,
450,,isi,,html-keyboard-response,450,810401,0.0-1.0-86.0-0.0-2.0,0,0,76870,,,,,,84.0,,,,,2.0,,,,,,,,,,,,,,,,,,,,,,,,,,,138.5,1.5,,,,,,
451,,feedback,,html-keyboard-response,451,811408,0.0-1.0-86.0-0.0-3.0-0.0,0,0,76870,,,,,,84.0,,,,,2.0,,,,,,,,,,,,,,,,,,,,,,,,,,,139.5,1.0,,,,,,
452,,iti,,html-keyboard-response,452,812422,0.0-1.0-86.0-0.0-5.0,0,0,76870,,,,,,84.0,,,,,2.0,,,,,,,,,,,,,,,,,,,,,,,,,,,140.5,1.0,,,,,,
453,,choice,,html-keyboard-response,453,812921,0.0-1.0-87.0-0.0-0.0,0,0,76870,,491.0,,,75.0,85.0,88.0,1500.0,1000.0,0.0,2.0,0.0,40-60,,1.0,desk,watch,60.0,40.0,desk2,watch15,80.0,40.0,AA Luffield Radial crescent Desk 1600mm x 1200mm.jpg,20-171-6.jpg,/static/Category_learning/Stimuli/Experimental_stims/desk/AA Luffield Radial crescent Desk 1600mm x 1200mm.jpg,/static/Category_learning/Stimuli/Experimental_stims/watch/20-171-6.jpg,0.0,watch,desk,40.0,60.0,watch15,desk2,40.0,80.0,0.0,140.991,0.491,,,,,,
454,,confirmation,,html-keyboard-response,454,813949,0.0-1.0-87.0-0.0-1.0-0.0,0,0,76870,,,,,,85.0,,,,,2.0,,,,,,,,,,,,,,,,,,,,,,,,,,,142.0,1.009,,,,,,
455,,isi,,html-keyboard-response,455,815457,0.0-1.0-87.0-0.0-2.0,0,0,76870,,,,,,85.0,,,,,2.0,,,,,,,,,,,,,,,,,,,,,,,,,,,143.5,1.5,,,,,,
456,,feedback,,html-keyboard-response,456,816471,0.0-1.0-87.0-0.0-3.0-0.0,0,0,76870,,,,,,85.0,,,,,2.0,,,,,,,,,,,,,,,,,,,,,,,,,,,144.5,1.0,,,,,,
457,,iti,,html-keyboard-response,457,817491,0.0-1.0-87.0-0.0-5.0,0,0,76870,,,,,,85.0,,,,,2.0,,,,,,,,,,,,,,,,,,,,,,,,,,,145.5,1.0,,,,,,
458,,choice,,html-keyboard-response,458,818258,0.0-1.0-88.0-0.0-0.0,0,0,76870,,761.0,,,75.0,86.0,89.0,1000.0,3000.0,0.0,2.0,1.0,20-20,1.0,,poker card,poker card,20.0,20.0,poker card8,poker card6,20.0,40.0,22864392.thl.jpg,22864212.thl.jpg,/static/Category_learning/Stimuli/Experimental_stims/poker card/22864392.thl.jpg,/static/Category_learning/Stimuli/Experimental_stims/poker card/22864212.thl.jpg,0.0,poker card,poker card,20.0,20.0,poker card6,poker card8,40.0,20.0,0.0,146.261,0.761,,,,,,
459,,confirmation,,html-keyboard-response,459,819019,0.0-1.0-88.0-0.0-1.0-0.0,0,0,76870,,,,,,86.0,,,,,2.0,,,,,,,,,,,,,,,,,,,,,,,,,,,147.0,0.739,,,,,,
460,,isi,,html-keyboard-response,460,820032,0.0-1.0-88.0-0.0-2.0,0,0,76870,,,,,,86.0,,,,,2.0,,,,,,,,,,,,,,,,,,,,,,,,,,,148.0,1.0,,,,,,
461,,feedback,,html-keyboard-response,461,821044,0.0-1.0-88.0-0.0-3.0-0.0,0,0,76870,,,,,,86.0,,,,,2.0,,,,,,,,,,,,,,,,,,,,,,,,,,,149.0,1.0,,,,,,
462,,iti,,html-keyboard-response,462,824058,0.0-1.0-88.0-0.0-5.0,0,0,76870,,,,,,86.0,,,,,2.0,,,,,,,,,,,,,,,,,,,,,,,,,,,152.0,3.0,,,,,,
463,,choice,,html-keyboard-response,463,824855,0.0-1.0-89.0-0.0-0.0,0,0,76870,,791.0,,,75.0,87.0,90.0,1000.0,1000.0,0.0,2.0,0.0,40-60,,0.0,tape,dresser,40.0,60.0,tape1,dresser2,20.0,80.0,aktotape_01.jpg,ADRESSE46.jpg,/static/Category_learning/Stimuli/Experimental_stims/tape/aktotape_01.jpg,/static/Category_learning/Stimuli/Experimental_stims/dresser/ADRESSE46.jpg,0.0,dresser,tape,60.0,40.0,dresser2,tape1,80.0,20.0,0.0,152.791,0.791,,,,,,
464,,confirmation,,html-keyboard-response,464,825586,0.0-1.0-89.0-0.0-1.0-0.0,0,0,76870,,,,,,87.0,,,,,2.0,,,,,,,,,,,,,,,,,,,,,,,,,,,153.5,0.709,,,,,,
465,,isi,,html-keyboard-response,465,826600,0.0-1.0-89.0-0.0-2.0,0,0,76870,,,,,,87.0,,,,,2.0,,,,,,,,,,,,,,,,,,,,,,,,,,,154.5,1.0,,,,,,
466,,feedback,,html-keyboard-response,466,827610,0.0-1.0-89.0-0.0-3.0-0.0,0,0,76870,,,,,,87.0,,,,,2.0,,,,,,,,,,,,,,,,,,,,,,,,,,,155.5,1.0,,,,,,
467,,iti,,html-keyboard-response,467,828626,0.0-1.0-89.0-0.0-5.0,0,0,76870,,,,,,87.0,,,,,2.0,,,,,,,,,,,,,,,,,,,,,,,,,,,156.5,1.0,,,,,,
468,,choice,,html-keyboard-response,468,829491,0.0-1.0-90.0-0.0-0.0,0,0,76870,,859.0,,,75.0,88.0,91.0,2000.0,1000.0,0.0,2.0,0.0,80-80,,,lipstick,frame,80.0,80.0,lipstick3,frame6,80.0,60.0,31sCvjMS3jL._SS500_.jpg,AFRAME123.jpg,/static/Category_learning/Stimuli/Experimental_stims/lipstick/31sCvjMS3jL._SS500_.jpg,/static/Category_learning/Stimuli/Experimental_stims/frame/AFRAME123.jpg,0.0,frame,lipstick,80.0,80.0,frame6,lipstick3,60.0,80.0,0.0,157.359,0.859,,,,,,
469,,confirmation,,html-keyboard-response,469,830154,0.0-1.0-90.0-0.0-1.0-0.0,0,0,76870,,,,,,88.0,,,,,2.0,,,,,,,,,,,,,,,,,,,,,,,,,,,158.0,0.641,,,,,,
470,,isi,,html-keyboard-response,470,832174,0.0-1.0-90.0-0.0-2.0,0,0,76870,,,,,,88.0,,,,,2.0,,,,,,,,,,,,,,,,,,,,,,,,,,,160.0,2.0,,,,,,
471,,feedback,,html-keyboard-response,471,833194,0.0-1.0-90.0-0.0-3.0-0.0,0,0,76870,,,,,,88.0,,,,,2.0,,,,,,,,,,,,,,,,,,,,,,,,,,,161.0,1.0,,,,,,
472,,iti,,html-keyboard-response,472,834199,0.0-1.0-90.0-0.0-5.0,0,0,76870,,,,,,88.0,,,,,2.0,,,,,,,,,,,,,,,,,,,,,,,,,,,162.0,1.0,,,,,,
473,,choice,,html-keyboard-response,473,834845,0.0-1.0-91.0-0.0-0.0,0,0,76870,,640.0,,,68.0,89.0,92.0,1500.0,1500.0,0.0,2.0,0.0,40-80,,0.0,yarn,hat,40.0,80.0,yarn9,hat9,60.0,100.0,Aballofyarn26.jpg,Astrawhat44.jpg,/static/Category_learning/Stimuli/Experimental_stims/yarn/Aballofyarn26.jpg,/static/Category_learning/Stimuli/Experimental_stims/hat/Astrawhat44.jpg,1.0,yarn,hat,40.0,80.0,yarn9,hat9,60.0,100.0,0.0,162.64,0.64,,,,,,
474,,confirmation,,html-keyboard-response,474,835712,0.0-1.0-91.0-0.0-1.0-0.0,0,0,76870,,,,,,89.0,,,,,2.0,,,,,,,,,,,,,,,,,,,,,,,,,,,163.5,0.86,,,,,,
475,,isi,,html-keyboard-response,475,837251,0.0-1.0-91.0-0.0-2.0,0,0,76870,,,,,,89.0,,,,,2.0,,,,,,,,,,,,,,,,,,,,,,,,,,,165.0,1.5,,,,,,
476,,feedback,,html-keyboard-response,476,838268,0.0-1.0-91.0-0.0-3.0-0.0,0,0,76870,,,,,,89.0,,,,,2.0,,,,,,,,,,,,,,,,,,,,,,,,,,,166.0,1.0,,,,,,
477,,iti,,html-keyboard-response,477,839775,0.0-1.0-91.0-0.0-5.0,0,0,76870,,,,,,89.0,,,,,2.0,,,,,,,,,,,,,,,,,,,,,,,,,,,167.5,1.5,,,,,,
478,,choice,,html-keyboard-response,478,840404,0.0-1.0-92.0-0.0-0.0,0,0,76870,,623.0,,,75.0,90.0,93.0,1000.0,1000.0,0.0,2.0,0.0,20-80,,0.0,power strip,motorcycle,20.0,80.0,power strip7,motorcycle13,20.0,80.0,412YZ25RFBL._AA262_.jpg,2005-Buell-FireboltXB12R.jpg,/static/Category_learning/Stimuli/Experimental_stims/power strip/412YZ25RFBL._AA262_.jpg,/static/Category_learning/Stimuli/Experimental_stims/motorcycle/2005-Buell-FireboltXB12R.jpg,0.0,motorcycle,power strip,80.0,20.0,motorcycle13,power strip7,80.0,20.0,0.0,168.123,0.623,,,,,,
