,success,ttype,start_time,trial_type,trial_index,time_elapsed,internal_node_id,warning,missed_checkup,PID,view_history,rt,responses,repeat_instructions,key_press,index,trial_num,isi,iti,is_practice,block,old_trial,pair_type,within_category,high_cat_on_left,left_category,right_category,left_category_value,right_category_value,left_exemplar,right_exemplar,left_exemplar_value,right_exemplar_value,left_img,right_img,left_img_path,right_img_path,left_chosen,chosen_category,unchosen_category,chosen_category_value,unchosen_category_value,chosen_exemplar,unchosen_exemplar,chosen_exemplar_value,unchosen_exemplar_value,no_response,onset,duration,end_practice,total_bonus_tally,category,category_group_value,category_value_response,did_not_enter_response
0,True,full_screen,d06032022hr1601,fullscreen,0,5634,0.0-0.0,0,0,23720,,,,,,,,,,,,,,,,,,,,,,,,,,,,,,,,,,,,,,,,,,,,,
1,,category_learning_instructions,,instructions,1,66121,0.0-1.0-0.0-0.0,0,0,23720,"[{""page_index"":0,""viewing_time"":10252},{""page_index"":1,""viewing_time"":9762},{""page_index"":2,""viewing_time"":9222},{""page_index"":3,""viewing_time"":13632},{""page_index"":4,""viewing_time"":9193},{""page_index"":5,""viewing_time"":5751},{""page_index"":6,""viewing_time"":2672}]",60484.0,,,,,,,,,,,,,,,,,,,,,,,,,,,,,,,,,,,,,,,,,,,
2,,category_learning_comprehension_check,,survey-multi-choice,2,85871,0.0-1.0-0.0-1.0,0,0,23720,,19746.0,"{""Q0"":""True"",""Q1"":""False"",""Q2"":""Stay the same"",""Q3"":""D for left and K for right""}",1.0,,,,,,,,,,,,,,,,,,,,,,,,,,,,,,,,,,,,,,,,,
3,,missed_instruction_checkup,,html-keyboard-response,3,89040,0.0-1.0-0.0-2.0-0.0,0,0,23720,,3166.0,,,68.0,,,,,,,,,,,,,,,,,,,,,,,,,,,,,,,,,,,,,,,,
4,,category_learning_instructions,,instructions,4,102999,0.0-1.0-0.1-0.1,0,0,23720,"[{""page_index"":0,""viewing_time"":4675},{""page_index"":1,""viewing_time"":2522},{""page_index"":2,""viewing_time"":922},{""page_index"":3,""viewing_time"":1622},{""page_index"":4,""viewing_time"":1352},{""page_index"":5,""viewing_time"":1742},{""page_index"":6,""viewing_time"":1122}]",13957.0,,,,,,,,,,,,,,,,,,,,,,,,,,,,,,,,,,,,,,,,,,,
5,,category_learning_comprehension_check,,survey-multi-choice,5,113779,0.0-1.0-0.1-1.1,0,0,23720,,10776.0,"{""Q0"":""True"",""Q1"":""True"",""Q2"":""Stay the same"",""Q3"":""D for left and K for right""}",0.0,,,,,,,,,,,,,,,,,,,,,,,,,,,,,,,,,,,,,,,,,
6,,,,html-keyboard-response,6,118018,0.0-1.0-1.0,0,0,23720,,4238.0,,,68.0,,,,,,,,,,,,,,,,,,,,,,,,,,,,,,,,,,,,,,,,
7,,choice,,html-keyboard-response,7,119079,0.0-1.0-2.0-0.0-0.0,0,0,23720,,1058.0,,,75.0,0.0,0.0,1500.0,1000.0,1.0,0.0,0.0,20-80,,0.0,bagel,dumbbell,20.0,80.0,bagel1,dumbbell1,0.0,80.0,bagels_pumpernickel_large.jpg,31B64EN68AL._AA280_.jpg,/static/Category_learning/Stimuli/Practice_stims/bagel/bagels_pumpernickel_large.jpg,/static/Category_learning/Stimuli/Practice_stims/dumbbell/31B64EN68AL._AA280_.jpg,0.0,dumbbell,bagel,80.0,20.0,dumbbell1,bagel1,80.0,0.0,0.0,1.058,1.058,,,,,,
8,,confirmation,,html-keyboard-response,8,119526,0.0-1.0-2.0-0.0-1.0-0.0,0,0,23720,,,,,,0.0,,,,,,,,,,,,,,,,,,,,,,,,,,,,,,,,1.5,0.442,,,,,,
9,,isi,,html-keyboard-response,9,121029,0.0-1.0-2.0-0.0-2.0,0,0,23720,,,,,,,,,,,,,,,,,,,,,,,,,,,,,,,,,,,,,,3.0,1.5,,,,,,
10,,feedback,,html-keyboard-response,10,122032,0.0-1.0-2.0-0.0-3.0-0.0,0,0,23720,,,,,,0.0,,,,,,,,,,,,,,,,,,,,,,,,,,,,,,,,4.0,1.0,,,,,,
11,,iti,,html-keyboard-response,11,123036,0.0-1.0-2.0-0.0-5.0,0,0,23720,,,,,,,,,,,,,,,,,,,,,,,,,,,,,,,,,,,,,,5.0,1.0,,,,,,
12,,choice,,html-keyboard-response,12,123786,0.0-1.0-3.0-0.0-0.0,0,0,23720,,748.0,,,68.0,1.0,1.0,3000.0,1500.0,1.0,0.0,0.0,20-40,,1.0,calculator,bagel,40.0,20.0,calculator2,bagel2,20.0,20.0,22829064.thl.jpg,bagels_cinnraisin_large.jpg,/static/Category_learning/Stimuli/Practice_stims/calculator/22829064.thl.jpg,/static/Category_learning/Stimuli/Practice_stims/bagel/bagels_cinnraisin_large.jpg,1.0,calculator,bagel,40.0,20.0,calculator2,bagel2,20.0,20.0,0.0,5.748,0.748,,,,,,
13,,confirmation,,html-keyboard-response,13,124542,0.0-1.0-3.0-0.0-1.0-0.0,0,0,23720,,,,,,1.0,,,,,,,,,,,,,,,,,,,,,,,,,,,,,,,,6.5,0.752,,,,,,
14,,isi,,html-keyboard-response,14,127546,0.0-1.0-3.0-0.0-2.0,0,0,23720,,,,,,,,,,,,,,,,,,,,,,,,,,,,,,,,,,,,,,9.5,3.0,,,,,,
15,,feedback,,html-keyboard-response,15,128548,0.0-1.0-3.0-0.0-3.0-0.0,0,0,23720,,,,,,1.0,,,,,,,,,,,,,,,,,,,,,,,,,,,,,,,,10.5,1.0,,,,,,
16,,iti,,html-keyboard-response,16,130051,0.0-1.0-3.0-0.0-5.0,0,0,23720,,,,,,,,,,,,,,,,,,,,,,,,,,,,,,,,,,,,,,12.0,1.5,,,,,,
17,,choice,,html-keyboard-response,17,130803,0.0-1.0-4.0-0.0-0.0,0,0,23720,,749.0,,,75.0,2.0,2.0,2000.0,3000.0,1.0,0.0,0.0,60-80,,0.0,clock,dumbbell,60.0,80.0,clock2,dumbbell2,60.0,100.0,26373355.thl.jpg,31K8MR6TMBL._SS500_.jpg,/static/Category_learning/Stimuli/Practice_stims/clock/26373355.thl.jpg,/static/Category_learning/Stimuli/Practice_stims/dumbbell/31K8MR6TMBL._SS500_.jpg,0.0,dumbbell,clock,80.0,60.0,dumbbell2,clock2,100.0,60.0,0.0,12.749,0.749,,,,,,
18,,confirmation,,html-keyboard-response,18,131569,0.0-1.0-4.0-0.0-1.0-0.0,0,0,23720,,,,,,2.0,,,,,,,,,,,,,,,,,,,,,,,,,,,,,,,,13.5,0.751,,,,,,
19,,isi,,html-keyboard-response,19,133572,0.0-1.0-4.0-0.0-2.0,0,0,23720,,,,,,,,,,,,,,,,,,,,,,,,,,,,,,,,,,,,,,15.5,2.0,,,,,,
20,,feedback,,html-keyboard-response,20,134574,0.0-1.0-4.0-0.0-3.0-0.0,0,0,23720,,,,,,2.0,,,,,,,,,,,,,,,,,,,,,,,,,,,,,,,,16.5,1.0,,,,,,
21,,iti,,html-keyboard-response,21,137577,0.0-1.0-4.0-0.0-5.0,0,0,23720,,,,,,,,,,,,,,,,,,,,,,,,,,,,,,,,,,,,,,19.5,3.0,,,,,,
22,,choice,,html-keyboard-response,22,139026,0.0-1.0-5.0-0.0-0.0,0,0,23720,,1446.0,,,75.0,3.0,3.0,1000.0,2000.0,1.0,0.0,0.0,40-80,,0.0,calculator,clock,40.0,60.0,calculator1,clock1,40.0,40.0,22829184.thl.jpg,Aalarmclock2.jpg,/static/Category_learning/Stimuli/Practice_stims/calculator/22829184.thl.jpg,/static/Category_learning/Stimuli/Practice_stims/clock/Aalarmclock2.jpg,0.0,clock,calculator,60.0,40.0,clock1,calculator1,40.0,40.0,0.0,20.946,1.446,,,,,,
23,,confirmation,,html-keyboard-response,23,139083,0.0-1.0-5.0-0.0-1.0-0.0,0,0,23720,,,,,,3.0,,,,,,,,,,,,,,,,,,,,,,,,,,,,,,,,21.0,0.054,,,,,,
24,,isi,,html-keyboard-response,24,140086,0.0-1.0-5.0-0.0-2.0,0,0,23720,,,,,,,,,,,,,,,,,,,,,,,,,,,,,,,,,,,,,,22.0,1.0,,,,,,
25,,feedback,,html-keyboard-response,25,141089,0.0-1.0-5.0-0.0-3.0-0.0,0,0,23720,,,,,,3.0,,,,,,,,,,,,,,,,,,,,,,,,,,,,,,,,23.0,1.0,,,,,,
26,,iti,,html-keyboard-response,26,143093,0.0-1.0-5.0-0.0-5.0,0,0,23720,,,,,,,,,,,,,,,,,,,,,,,,,,,,,,,,,,,,,,25.0,2.0,,,,,,
27,,choice,,html-keyboard-response,27,144329,0.0-1.0-6.0-0.0-0.0,0,0,23720,,1234.0,,,68.0,4.0,4.0,2500.0,2500.0,1.0,0.0,0.0,20-60,,1.0,dumbbell,bagel,80.0,20.0,dumbbell3,bagel3,100.0,40.0,41K7QVRX50L._SS500_.jpg,photo-169.jpg,/static/Category_learning/Stimuli/Practice_stims/dumbbell/41K7QVRX50L._SS500_.jpg,/static/Category_learning/Stimuli/Practice_stims/bagel/photo-169.jpg,1.0,dumbbell,bagel,80.0,20.0,dumbbell3,bagel3,100.0,40.0,0.0,26.234,1.234,1.0,,,,,
28,,confirmation,,html-keyboard-response,28,144599,0.0-1.0-6.0-0.0-1.0-0.0,0,0,23720,,,,,,4.0,,,,,,,,,,,,,,,,,,,,,,,,,,,,,,,,26.5,0.266,,,,,,
29,,isi,,html-keyboard-response,29,147102,0.0-1.0-6.0-0.0-2.0,0,0,23720,,,,,,,,,,,,,,,,,,,,,,,,,,,,,,,,,,,,,,29.0,2.5,,,,,,
30,,feedback,,html-keyboard-response,30,148106,0.0-1.0-6.0-0.0-3.0-0.0,0,0,23720,,,,,,4.0,,,,,,,,,,,,,,,,,,,,,,,,,,,,,,,,30.0,1.0,,,,,,
31,,iti,,html-keyboard-response,31,150608,0.0-1.0-6.0-0.0-5.0,0,0,23720,,,,,,,,,,,,,,,,,,,,,,,,,,,,,,,,,,,,,,32.5,2.5,,,,,,
32,,practice_over,,html-keyboard-response,32,153050,0.0-1.0-6.0-0.0-6.0-0.0,0,0,23720,,2439.0,,,68.0,4.0,,,,,,,,,,,,,,,,,,,,,,,,,,,,,,,,,,,,,,,
33,,start_run,,html-keyboard-response,33,157264,0.0-1.0-6.0-0.0-6.0-1.0,0,0,23720,,4212.0,,,84.0,,,,,,,,,,,,,,,,,,,,,,,,,,,,,,,,,,,,,,,,
34,,choice,,html-keyboard-response,34,158604,0.0-1.0-7.0-0.0-0.0,0,0,23720,,1337.0,,,68.0,5.0,5.0,3000.0,2000.0,0.0,1.0,0.0,40-40,,,license plate,hammer,40.0,40.0,license plate13,hammer11,60.0,60.0,usa-rj-9517.jpg,8oz-hammer-copy.jpg,/static/Category_learning/Stimuli/Experimental_stims/license plate/usa-rj-9517.jpg,/static/Category_learning/Stimuli/Experimental_stims/hammer/8oz-hammer-copy.jpg,1.0,license plate,hammer,40.0,40.0,license plate13,hammer11,60.0,60.0,0.0,1.337,1.337,,,,,,
35,,confirmation,,html-keyboard-response,35,158771,0.0-1.0-7.0-0.0-1.0-0.0,0,0,23720,,,,,,5.0,,,,,,,,,,,,,,,,,,,,,,,,,,,,,,,,1.5,0.163,,,,,,
36,,isi,,html-keyboard-response,36,161773,0.0-1.0-7.0-0.0-2.0,0,0,23720,,,,,,,,,,,,,,,,,,,,,,,,,,,,,,,,,,,,,,4.5,3.0,,,,,,
37,,feedback,,html-keyboard-response,37,162776,0.0-1.0-7.0-0.0-3.0-0.0,0,0,23720,,,,,,5.0,,,,,,,,,,,,,,,,,,,,,,,,,,,,,,,,5.5,1.0,,,,,,
38,,iti,,html-keyboard-response,38,164781,0.0-1.0-7.0-0.0-5.0,0,0,23720,,,,,,,,,,,,,,,,,,,,,,,,,,,,,,,,,,,,,,7.5,2.0,,,,,,
39,,choice,,html-keyboard-response,39,165681,0.0-1.0-8.0-0.0-0.0,0,0,23720,,897.0,,,75.0,6.0,6.0,1000.0,1000.0,0.0,1.0,0.0,20-60,,0.0,flashlight,poker card,20.0,60.0,flashlight9,poker card6,40.0,80.0,new06.jpg,22864212.thl.jpg,/static/Category_learning/Stimuli/Experimental_stims/flashlight/new06.jpg,/static/Category_learning/Stimuli/Experimental_stims/poker card/22864212.thl.jpg,0.0,poker card,flashlight,60.0,20.0,poker card6,flashlight9,80.0,40.0,0.0,8.397,0.897,,,,,,
40,,confirmation,,html-keyboard-response,40,166288,0.0-1.0-8.0-0.0-1.0-0.0,0,0,23720,,,,,,6.0,,,,,,,,,,,,,,,,,,,,,,,,,,,,,,,,9.0,0.603,,,,,,
41,,isi,,html-keyboard-response,41,167290,0.0-1.0-8.0-0.0-2.0,0,0,23720,,,,,,,,,,,,,,,,,,,,,,,,,,,,,,,,,,,,,,10.0,1.0,,,,,,
42,,feedback,,html-keyboard-response,42,168294,0.0-1.0-8.0-0.0-3.0-0.0,0,0,23720,,,,,,6.0,,,,,,,,,,,,,,,,,,,,,,,,,,,,,,,,11.0,1.0,,,,,,
43,,iti,,html-keyboard-response,43,169296,0.0-1.0-8.0-0.0-5.0,0,0,23720,,,,,,,,,,,,,,,,,,,,,,,,,,,,,,,,,,,,,,12.0,1.0,,,,,,
44,,choice,,html-keyboard-response,44,170705,0.0-1.0-9.0-0.0-0.0,0,0,23720,,1406.0,,,75.0,7.0,7.0,1500.0,3500.0,0.0,1.0,0.0,60-60,,,seashell,nail polish,60.0,60.0,seashell7,nail polish6,60.0,60.0,seashell34.jpg,127_t.jpg,/static/Category_learning/Stimuli/Experimental_stims/seashell/seashell34.jpg,/static/Category_learning/Stimuli/Experimental_stims/nail polish/127_t.jpg,0.0,nail polish,seashell,60.0,60.0,nail polish6,seashell7,60.0,60.0,0.0,13.406,1.406,,,,,,
45,,confirmation,,html-keyboard-response,45,170802,0.0-1.0-9.0-0.0-1.0-0.0,0,0,23720,,,,,,7.0,,,,,,,,,,,,,,,,,,,,,,,,,,,,,,,,13.5,0.094,,,,,,
46,,isi,,html-keyboard-response,46,172306,0.0-1.0-9.0-0.0-2.0,0,0,23720,,,,,,,,,,,,,,,,,,,,,,,,,,,,,,,,,,,,,,15.0,1.5,,,,,,
47,,feedback,,html-keyboard-response,47,173309,0.0-1.0-9.0-0.0-3.0-0.0,0,0,23720,,,,,,7.0,,,,,,,,,,,,,,,,,,,,,,,,,,,,,,,,16.0,1.0,,,,,,
48,,iti,,html-keyboard-response,48,176815,0.0-1.0-9.0-0.0-5.0,0,0,23720,,,,,,,,,,,,,,,,,,,,,,,,,,,,,,,,,,,,,,19.5,3.5,,,,,,
49,,choice,,html-keyboard-response,49,177530,0.0-1.0-10.0-0.0-0.0,0,0,23720,,712.0,,,68.0,8.0,8.0,1500.0,1000.0,0.0,1.0,0.0,40-80,,1.0,telescope,hat,80.0,40.0,telescope3,hat5,100.0,60.0,41V67SB5NJL._SS500_.jpg,AREDHAT4.jpg,/static/Category_learning/Stimuli/Experimental_stims/telescope/41V67SB5NJL._SS500_.jpg,/static/Category_learning/Stimuli/Experimental_stims/hat/AREDHAT4.jpg,1.0,telescope,hat,80.0,40.0,telescope3,hat5,100.0,60.0,0.0,20.212,0.712,,,,,,
50,,confirmation,,html-keyboard-response,50,178321,0.0-1.0-10.0-0.0-1.0-0.0,0,0,23720,,,,,,8.0,,,,,,,,,,,,,,,,,,,,,,,,,,,,,,,,21.0,0.788,,,,,,
51,,isi,,html-keyboard-response,51,179823,0.0-1.0-10.0-0.0-2.0,0,0,23720,,,,,,,,,,,,,,,,,,,,,,,,,,,,,,,,,,,,,,22.5,1.5,,,,,,
52,,feedback,,html-keyboard-response,52,180826,0.0-1.0-10.0-0.0-3.0-0.0,0,0,23720,,,,,,8.0,,,,,,,,,,,,,,,,,,,,,,,,,,,,,,,,23.5,1.0,,,,,,
53,,iti,,html-keyboard-response,53,181829,0.0-1.0-10.0-0.0-5.0,0,0,23720,,,,,,,,,,,,,,,,,,,,,,,,,,,,,,,,,,,,,,24.5,1.0,,,,,,
54,,choice,,html-keyboard-response,54,182516,0.0-1.0-11.0-0.0-0.0,0,0,23720,,685.0,,,75.0,9.0,9.0,2000.0,3500.0,0.0,1.0,0.0,40-60,,1.0,power strip,makeup compact,60.0,40.0,power strip12,makeup compact1,80.0,60.0,41CXESEH1TL._AA262_.jpg,P190250_hero.jpg,/static/Category_learning/Stimuli/Experimental_stims/power strip/41CXESEH1TL._AA262_.jpg,/static/Category_learning/Stimuli/Experimental_stims/makeup compact/P190250_hero.jpg,0.0,makeup compact,power strip,40.0,60.0,makeup compact1,power strip12,60.0,80.0,0.0,25.185,0.685,,,,,,
55,,confirmation,,html-keyboard-response,55,183335,0.0-1.0-11.0-0.0-1.0-0.0,0,0,23720,,,,,,9.0,,,,,,,,,,,,,,,,,,,,,,,,,,,,,,,,26.0,0.815,,,,,,
56,,isi,,html-keyboard-response,56,185339,0.0-1.0-11.0-0.0-2.0,0,0,23720,,,,,,,,,,,,,,,,,,,,,,,,,,,,,,,,,,,,,,28.0,2.0,,,,,,
57,,feedback,,html-keyboard-response,57,186342,0.0-1.0-11.0-0.0-3.0-0.0,0,0,23720,,,,,,9.0,,,,,,,,,,,,,,,,,,,,,,,,,,,,,,,,29.0,1.0,,,,,,
58,,iti,,html-keyboard-response,58,189845,0.0-1.0-11.0-0.0-5.0,0,0,23720,,,,,,,,,,,,,,,,,,,,,,,,,,,,,,,,,,,,,,32.5,3.5,,,,,,
59,,choice,,html-keyboard-response,59,190811,0.0-1.0-12.0-0.0-0.0,0,0,23720,,963.0,,,68.0,10.0,10.0,1500.0,3500.0,0.0,1.0,1.0,40-60,0.0,,license plate,poker card,40.0,60.0,license plate13,poker card6,60.0,80.0,usa-rj-9517.jpg,22864212.thl.jpg,/static/Category_learning/Stimuli/Experimental_stims/license plate/usa-rj-9517.jpg,/static/Category_learning/Stimuli/Experimental_stims/poker card/22864212.thl.jpg,1.0,license plate,poker card,40.0,60.0,license plate13,poker card6,60.0,80.0,0.0,33.463,0.963,,,,,,
60,,confirmation,,html-keyboard-response,60,191351,0.0-1.0-12.0-0.0-1.0-0.0,0,0,23720,,,,,,10.0,,,,,,,,,,,,,,,,,,,,,,,,,,,,,,,,34.0,0.537,,,,,,
61,,isi,,html-keyboard-response,61,192854,0.0-1.0-12.0-0.0-2.0,0,0,23720,,,,,,,,,,,,,,,,,,,,,,,,,,,,,,,,,,,,,,35.5,1.5,,,,,,
62,,feedback,,html-keyboard-response,62,193857,0.0-1.0-12.0-0.0-3.0-0.0,0,0,23720,,,,,,10.0,,,,,,,,,,,,,,,,,,,,,,,,,,,,,,,,36.5,1.0,,,,,,
63,,iti,,html-keyboard-response,63,197360,0.0-1.0-12.0-0.0-5.0,0,0,23720,,,,,,,,,,,,,,,,,,,,,,,,,,,,,,,,,,,,,,40.0,3.5,,,,,,
64,,choice,,html-keyboard-response,64,198136,0.0-1.0-13.0-0.0-0.0,0,0,23720,,773.0,,,68.0,11.0,11.0,1500.0,1000.0,0.0,1.0,1.0,40-80,0.0,,telescope,makeup compact,80.0,40.0,telescope3,makeup compact1,100.0,60.0,41V67SB5NJL._SS500_.jpg,P190250_hero.jpg,/static/Category_learning/Stimuli/Experimental_stims/telescope/41V67SB5NJL._SS500_.jpg,/static/Category_learning/Stimuli/Experimental_stims/makeup compact/P190250_hero.jpg,1.0,telescope,makeup compact,80.0,40.0,telescope3,makeup compact1,100.0,60.0,0.0,40.773,0.773,,,,,,
65,,confirmation,,html-keyboard-response,65,198867,0.0-1.0-13.0-0.0-1.0-0.0,0,0,23720,,,,,,11.0,,,,,,,,,,,,,,,,,,,,,,,,,,,,,,,,41.5,0.727,,,,,,
66,,isi,,html-keyboard-response,66,200370,0.0-1.0-13.0-0.0-2.0,0,0,23720,,,,,,,,,,,,,,,,,,,,,,,,,,,,,,,,,,,,,,43.0,1.5,,,,,,
67,,feedback,,html-keyboard-response,67,201372,0.0-1.0-13.0-0.0-3.0-0.0,0,0,23720,,,,,,11.0,,,,,,,,,,,,,,,,,,,,,,,,,,,,,,,,44.0,1.0,,,,,,
68,,iti,,html-keyboard-response,68,202374,0.0-1.0-13.0-0.0-5.0,0,0,23720,,,,,,,,,,,,,,,,,,,,,,,,,,,,,,,,,,,,,,45.0,1.0,,,,,,
69,,choice,,html-keyboard-response,69,203239,0.0-1.0-14.0-0.0-0.0,0,0,23720,,862.0,,,75.0,12.0,12.0,2000.0,1000.0,0.0,1.0,0.0,40-60,,0.0,key chain,sofa,40.0,60.0,key chain13,sofa6,60.0,80.0,Fancy_Liquid_Column_Shape_Key_Ring_with_Floater.jpg,wilkie-sofa-250h-new-cd.jpg,/static/Category_learning/Stimuli/Experimental_stims/key chain/Fancy_Liquid_Column_Shape_Key_Ring_with_Floater.jpg,/static/Category_learning/Stimuli/Experimental_stims/sofa/wilkie-sofa-250h-new-cd.jpg,0.0,sofa,key chain,60.0,40.0,sofa6,key chain13,80.0,60.0,0.0,45.862,0.862,,,,,,
70,,confirmation,,html-keyboard-response,70,203881,0.0-1.0-14.0-0.0-1.0-0.0,0,0,23720,,,,,,12.0,,,,,,,,,,,,,,,,,,,,,,,,,,,,,,,,46.5,0.638,,,,,,
71,,isi,,html-keyboard-response,71,205885,0.0-1.0-14.0-0.0-2.0,0,0,23720,,,,,,,,,,,,,,,,,,,,,,,,,,,,,,,,,,,,,,48.5,2.0,,,,,,
72,,feedback,,html-keyboard-response,72,206888,0.0-1.0-14.0-0.0-3.0-0.0,0,0,23720,,,,,,12.0,,,,,,,,,,,,,,,,,,,,,,,,,,,,,,,,49.5,1.0,,,,,,
73,,iti,,html-keyboard-response,73,207890,0.0-1.0-14.0-0.0-5.0,0,0,23720,,,,,,,,,,,,,,,,,,,,,,,,,,,,,,,,,,,,,,50.5,1.0,,,,,,
74,,choice,,html-keyboard-response,74,209192,0.0-1.0-15.0-0.0-0.0,0,0,23720,,1299.0,,,68.0,13.0,13.0,1000.0,1000.0,0.0,1.0,0.0,40-80,,1.0,stool,motorcycle,80.0,40.0,stool7,motorcycle7,80.0,20.0,ASTOOL25.jpg,MotoSmall.jpg,/static/Category_learning/Stimuli/Experimental_stims/stool/ASTOOL25.jpg,/static/Category_learning/Stimuli/Experimental_stims/motorcycle/MotoSmall.jpg,1.0,stool,motorcycle,80.0,40.0,stool7,motorcycle7,80.0,20.0,0.0,51.799,1.299,,,,,,
75,,confirmation,,html-keyboard-response,75,209403,0.0-1.0-15.0-0.0-1.0-0.0,0,0,23720,,,,,,13.0,,,,,,,,,,,,,,,,,,,,,,,,,,,,,,,,52.0,0.201,,,,,,
76,,isi,,html-keyboard-response,76,210405,0.0-1.0-15.0-0.0-2.0,0,0,23720,,,,,,,,,,,,,,,,,,,,,,,,,,,,,,,,,,,,,,53.0,1.0,,,,,,
77,,feedback,,html-keyboard-response,77,211408,0.0-1.0-15.0-0.0-3.0-0.0,0,0,23720,,,,,,13.0,,,,,,,,,,,,,,,,,,,,,,,,,,,,,,,,54.0,1.0,,,,,,
78,,iti,,html-keyboard-response,78,212411,0.0-1.0-15.0-0.0-5.0,0,0,23720,,,,,,,,,,,,,,,,,,,,,,,,,,,,,,,,,,,,,,55.0,1.0,,,,,,
79,,choice,,html-keyboard-response,79,213915,0.0-1.0-16.0-0.0-0.0,0,0,23720,,,,,,14.0,14.0,1500.0,1000.0,0.0,1.0,0.0,40-80,,1.0,tent,hat,80.0,40.0,tent1,hat13,100.0,20.0,Atent8.jpg,Ahatwithfeath.jpg,/static/Category_learning/Stimuli/Experimental_stims/tent/Atent8.jpg,/static/Category_learning/Stimuli/Experimental_stims/hat/Ahatwithfeath.jpg,,,,,,,,,,1.0,56.5,1.5,,,,,,
80,,isi,,html-keyboard-response,80,215418,0.0-1.0-16.0-0.0-2.0,0,0,23720,,,,,,,,,,,,,,,,,,,,,,,,,,,,,,,,,,,,,,58.0,1.5,,,,,,
81,,no_response,,html-keyboard-response,81,216435,0.0-1.0-16.0-0.0-4.0-0.0,0,0,23720,,,,,,,,,,,,,,,,,,,,,,,,,,,,,,,,,,,,,,59.0,1.0,,,,,,
82,,iti,,html-keyboard-response,82,217450,0.0-1.0-16.0-0.0-5.0,0,0,23720,,,,,,,,,,,,,,,,,,,,,,,,,,,,,,,,,,,,,,60.0,1.0,,,,,,
83,,choice,,html-keyboard-response,83,217903,0.0-1.0-16.0-0.1-0.1,0,0,23720,,452.0,,,75.0,14.0,14.0,1500.0,1000.0,0.0,1.0,0.0,40-80,,1.0,tent,hat,80.0,40.0,tent1,hat13,100.0,20.0,Atent8.jpg,Ahatwithfeath.jpg,/static/Category_learning/Stimuli/Experimental_stims/tent/Atent8.jpg,/static/Category_learning/Stimuli/Experimental_stims/hat/Ahatwithfeath.jpg,0.0,hat,tent,40.0,80.0,hat13,tent1,20.0,100.0,0.0,60.452,0.452,,,,,,
84,,confirmation,,html-keyboard-response,84,218955,0.0-1.0-16.0-0.1-1.1-0.1,0,0,23720,,,,,,14.0,,,,,,,,,,,,,,,,,,,,,,,,,,,,,,,,61.5,1.048,,,,,,
85,,isi,,html-keyboard-response,85,219958,0.0-1.0-16.0-0.1-2.1,0,0,23720,,,,,,,,,,,,,,,,,,,,,,,,,,,,,,,,,,,,,,62.5,1.0,,,,,,
86,,feedback,,html-keyboard-response,86,220960,0.0-1.0-16.0-0.1-3.1-0.1,0,0,23720,,,,,,14.0,,,,,,,,,,,,,,,,,,,,,,,,,,,,,,,,63.5,1.0,,,,,,
87,,iti,,html-keyboard-response,87,224463,0.0-1.0-16.0-0.1-5.1,0,0,23720,,,,,,,,,,,,,,,,,,,,,,,,,,,,,,,,,,,,,,67.0,3.5,,,,,,
88,,choice,,html-keyboard-response,88,225630,0.0-1.0-17.0-0.0-0.0,0,0,23720,,1165.0,,,68.0,15.0,15.0,2000.0,1000.0,0.0,1.0,0.0,60-80,,0.0,necklace,watch,60.0,80.0,necklace3,watch13,60.0,80.0,26388201.thl.jpg,RS_3104_lrg.jpg,/static/Category_learning/Stimuli/Experimental_stims/necklace/26388201.thl.jpg,/static/Category_learning/Stimuli/Experimental_stims/watch/RS_3104_lrg.jpg,1.0,necklace,watch,60.0,80.0,necklace3,watch13,60.0,80.0,0.0,68.165,1.165,,,,,,
89,,confirmation,,html-keyboard-response,89,225969,0.0-1.0-17.0-0.0-1.0-0.0,0,0,23720,,,,,,15.0,,,,,,,,,,,,,,,,,,,,,,,,,,,,,,,,68.5,0.335,,,,,,
90,,isi,,html-keyboard-response,90,227972,0.0-1.0-17.0-0.0-2.0,0,0,23720,,,,,,,,,,,,,,,,,,,,,,,,,,,,,,,,,,,,,,70.5,2.0,,,,,,
91,,feedback,,html-keyboard-response,91,228975,0.0-1.0-17.0-0.0-3.0-0.0,0,0,23720,,,,,,15.0,,,,,,,,,,,,,,,,,,,,,,,,,,,,,,,,71.5,1.0,,,,,,
92,,iti,,html-keyboard-response,92,229979,0.0-1.0-17.0-0.0-5.0,0,0,23720,,,,,,,,,,,,,,,,,,,,,,,,,,,,,,,,,,,,,,72.5,1.0,,,,,,
93,,choice,,html-keyboard-response,93,230639,0.0-1.0-18.0-0.0-0.0,0,0,23720,,658.0,,,75.0,16.0,16.0,3500.0,1000.0,0.0,1.0,1.0,40-60,0.0,,hat,sofa,40.0,60.0,hat13,sofa6,20.0,80.0,Ahatwithfeath.jpg,wilkie-sofa-250h-new-cd.jpg,/static/Category_learning/Stimuli/Experimental_stims/hat/Ahatwithfeath.jpg,/static/Category_learning/Stimuli/Experimental_stims/sofa/wilkie-sofa-250h-new-cd.jpg,0.0,sofa,hat,60.0,40.0,sofa6,hat13,80.0,20.0,0.0,73.158,0.658,,,,,,
94,,confirmation,,html-keyboard-response,94,231485,0.0-1.0-18.0-0.0-1.0-0.0,0,0,23720,,,,,,16.0,,,,,,,,,,,,,,,,,,,,,,,,,,,,,,,,74.0,0.842,,,,,,
95,,isi,,html-keyboard-response,95,234988,0.0-1.0-18.0-0.0-2.0,0,0,23720,,,,,,,,,,,,,,,,,,,,,,,,,,,,,,,,,,,,,,77.5,3.5,,,,,,
96,,feedback,,html-keyboard-response,96,235991,0.0-1.0-18.0-0.0-3.0-0.0,0,0,23720,,,,,,16.0,,,,,,,,,,,,,,,,,,,,,,,,,,,,,,,,78.5,1.0,,,,,,
97,,iti,,html-keyboard-response,97,236995,0.0-1.0-18.0-0.0-5.0,0,0,23720,,,,,,,,,,,,,,,,,,,,,,,,,,,,,,,,,,,,,,79.5,1.0,,,,,,
98,,choice,,html-keyboard-response,98,237927,0.0-1.0-19.0-0.0-0.0,0,0,23720,,930.0,,,68.0,17.0,17.0,3500.0,2000.0,0.0,1.0,0.0,20-20,,,flashlight,bowl,20.0,20.0,flashlight5,bowl12,0.0,20.0,Streamlight-71001-Jr-Flashlight-W-batteries-black-B00018A3CG-L.jpg,Abowl52.jpg,/static/Category_learning/Stimuli/Experimental_stims/flashlight/Streamlight-71001-Jr-Flashlight-W-batteries-black-B00018A3CG-L.jpg,/static/Category_learning/Stimuli/Experimental_stims/bowl/Abowl52.jpg,1.0,flashlight,bowl,20.0,20.0,flashlight5,bowl12,0.0,20.0,0.0,80.43,0.93,,,,,,
99,,confirmation,,html-keyboard-response,99,238501,0.0-1.0-19.0-0.0-1.0-0.0,0,0,23720,,,,,,17.0,,,,,,,,,,,,,,,,,,,,,,,,,,,,,,,,81.0,0.57,,,,,,
100,,isi,,html-keyboard-response,100,242018,0.0-1.0-19.0-0.0-2.0,0,0,23720,,,,,,,,,,,,,,,,,,,,,,,,,,,,,,,,,,,,,,84.5,3.5,,,,,,
101,,feedback,,html-keyboard-response,101,243021,0.0-1.0-19.0-0.0-3.0-0.0,0,0,23720,,,,,,17.0,,,,,,,,,,,,,,,,,,,,,,,,,,,,,,,,85.5,1.0,,,,,,
102,,iti,,html-keyboard-response,102,245024,0.0-1.0-19.0-0.0-5.0,0,0,23720,,,,,,,,,,,,,,,,,,,,,,,,,,,,,,,,,,,,,,87.5,2.0,,,,,,
103,,choice,,html-keyboard-response,103,245918,0.0-1.0-20.0-0.0-0.0,0,0,23720,,891.0,,,68.0,18.0,18.0,1500.0,1500.0,0.0,1.0,1.0,20-80,0.0,,stool,flashlight,80.0,20.0,stool7,flashlight5,80.0,0.0,ASTOOL25.jpg,Streamlight-71001-Jr-Flashlight-W-batteries-black-B00018A3CG-L.jpg,/static/Category_learning/Stimuli/Experimental_stims/stool/ASTOOL25.jpg,/static/Category_learning/Stimuli/Experimental_stims/flashlight/Streamlight-71001-Jr-Flashlight-W-batteries-black-B00018A3CG-L.jpg,1.0,stool,flashlight,80.0,20.0,stool7,flashlight5,80.0,0.0,0.0,88.391,0.891,,,,,,
104,,confirmation,,html-keyboard-response,104,246530,0.0-1.0-20.0-0.0-1.0-0.0,0,0,23720,,,,,,18.0,,,,,,,,,,,,,,,,,,,,,,,,,,,,,,,,89.0,0.609,,,,,,
105,,isi,,html-keyboard-response,105,248033,0.0-1.0-20.0-0.0-2.0,0,0,23720,,,,,,,,,,,,,,,,,,,,,,,,,,,,,,,,,,,,,,90.5,1.5,,,,,,
106,,feedback,,html-keyboard-response,106,249036,0.0-1.0-20.0-0.0-3.0-0.0,0,0,23720,,,,,,18.0,,,,,,,,,,,,,,,,,,,,,,,,,,,,,,,,91.5,1.0,,,,,,
107,,iti,,html-keyboard-response,107,250539,0.0-1.0-20.0-0.0-5.0,0,0,23720,,,,,,,,,,,,,,,,,,,,,,,,,,,,,,,,,,,,,,93.0,1.5,,,,,,
108,,choice,,html-keyboard-response,108,251387,0.0-1.0-21.0-0.0-0.0,0,0,23720,,846.0,,,75.0,19.0,19.0,1000.0,2000.0,0.0,1.0,0.0,40-40,,,frame,license plate,40.0,40.0,frame8,license plate14,60.0,40.0,AFRAME154.jpg,fl-hel-bel.jpg,/static/Category_learning/Stimuli/Experimental_stims/frame/AFRAME154.jpg,/static/Category_learning/Stimuli/Experimental_stims/license plate/fl-hel-bel.jpg,0.0,license plate,frame,40.0,40.0,license plate14,frame8,40.0,60.0,0.0,93.846,0.846,,,,,,
109,,confirmation,,html-keyboard-response,109,252045,0.0-1.0-21.0-0.0-1.0-0.0,0,0,23720,,,,,,19.0,,,,,,,,,,,,,,,,,,,,,,,,,,,,,,,,94.5,0.654,,,,,,
110,,isi,,html-keyboard-response,110,253048,0.0-1.0-21.0-0.0-2.0,0,0,23720,,,,,,,,,,,,,,,,,,,,,,,,,,,,,,,,,,,,,,95.5,1.0,,,,,,
111,,feedback,,html-keyboard-response,111,254051,0.0-1.0-21.0-0.0-3.0-0.0,0,0,23720,,,,,,19.0,,,,,,,,,,,,,,,,,,,,,,,,,,,,,,,,96.5,1.0,,,,,,
112,,iti,,html-keyboard-response,112,256055,0.0-1.0-21.0-0.0-5.0,0,0,23720,,,,,,,,,,,,,,,,,,,,,,,,,,,,,,,,,,,,,,98.5,2.0,,,,,,
113,,choice,,html-keyboard-response,113,256917,0.0-1.0-22.0-0.0-0.0,0,0,23720,,860.0,,,75.0,20.0,20.0,1000.0,1000.0,0.0,1.0,0.0,20-80,,1.0,vase,desk,80.0,20.0,vase3,desk14,80.0,0.0,vase-006af-1.jpg,26419960.thl.jpg,/static/Category_learning/Stimuli/Experimental_stims/vase/vase-006af-1.jpg,/static/Category_learning/Stimuli/Experimental_stims/desk/26419960.thl.jpg,0.0,desk,vase,20.0,80.0,desk14,vase3,0.0,80.0,0.0,99.36,0.86,,,,,,
114,,confirmation,,html-keyboard-response,114,257560,0.0-1.0-22.0-0.0-1.0-0.0,0,0,23720,,,,,,20.0,,,,,,,,,,,,,,,,,,,,,,,,,,,,,,,,100.0,0.64,,,,,,
115,,isi,,html-keyboard-response,115,258563,0.0-1.0-22.0-0.0-2.0,0,0,23720,,,,,,,,,,,,,,,,,,,,,,,,,,,,,,,,,,,,,,101.0,1.0,,,,,,
116,,feedback,,html-keyboard-response,116,259566,0.0-1.0-22.0-0.0-3.0-0.0,0,0,23720,,,,,,20.0,,,,,,,,,,,,,,,,,,,,,,,,,,,,,,,,102.0,1.0,,,,,,
117,,iti,,html-keyboard-response,117,260570,0.0-1.0-22.0-0.0-5.0,0,0,23720,,,,,,,,,,,,,,,,,,,,,,,,,,,,,,,,,,,,,,103.0,1.0,,,,,,
118,,choice,,html-keyboard-response,118,261439,0.0-1.0-23.0-0.0-0.0,0,0,23720,,866.0,,,75.0,21.0,21.0,1500.0,2000.0,0.0,1.0,0.0,40-60,,1.0,power strip,frame,60.0,40.0,power strip5,frame1,40.0,20.0,93e4a283-bcd6-4ad1-8add-339658cda0fc_400.jpg,AFRAME127.jpg,/static/Category_learning/Stimuli/Experimental_stims/power strip/93e4a283-bcd6-4ad1-8add-339658cda0fc_400.jpg,/static/Category_learning/Stimuli/Experimental_stims/frame/AFRAME127.jpg,0.0,frame,power strip,40.0,60.0,frame1,power strip5,20.0,40.0,0.0,103.866,0.866,,,,,,
119,,confirmation,,html-keyboard-response,119,262076,0.0-1.0-23.0-0.0-1.0-0.0,0,0,23720,,,,,,21.0,,,,,,,,,,,,,,,,,,,,,,,,,,,,,,,,104.5,0.634,,,,,,
120,,isi,,html-keyboard-response,120,263578,0.0-1.0-23.0-0.0-2.0,0,0,23720,,,,,,,,,,,,,,,,,,,,,,,,,,,,,,,,,,,,,,106.0,1.5,,,,,,
121,,feedback,,html-keyboard-response,121,264581,0.0-1.0-23.0-0.0-3.0-0.0,0,0,23720,,,,,,21.0,,,,,,,,,,,,,,,,,,,,,,,,,,,,,,,,107.0,1.0,,,,,,
122,,iti,,html-keyboard-response,122,266584,0.0-1.0-23.0-0.0-5.0,0,0,23720,,,,,,,,,,,,,,,,,,,,,,,,,,,,,,,,,,,,,,109.0,2.0,,,,,,
123,,choice,,html-keyboard-response,123,267429,0.0-1.0-24.0-0.0-0.0,0,0,23720,,842.0,,,68.0,22.0,22.0,2000.0,1000.0,0.0,1.0,1.0,20-60,0.0,,nail polish,desk,60.0,20.0,nail polish6,desk14,60.0,0.0,127_t.jpg,26419960.thl.jpg,/static/Category_learning/Stimuli/Experimental_stims/nail polish/127_t.jpg,/static/Category_learning/Stimuli/Experimental_stims/desk/26419960.thl.jpg,1.0,nail polish,desk,60.0,20.0,nail polish6,desk14,60.0,0.0,0.0,109.842,0.842,,,,,,
124,,confirmation,,html-keyboard-response,124,268090,0.0-1.0-24.0-0.0-1.0-0.0,0,0,23720,,,,,,22.0,,,,,,,,,,,,,,,,,,,,,,,,,,,,,,,,110.5,0.658,,,,,,
125,,isi,,html-keyboard-response,125,270093,0.0-1.0-24.0-0.0-2.0,0,0,23720,,,,,,,,,,,,,,,,,,,,,,,,,,,,,,,,,,,,,,112.5,2.0,,,,,,
126,,feedback,,html-keyboard-response,126,271096,0.0-1.0-24.0-0.0-3.0-0.0,0,0,23720,,,,,,22.0,,,,,,,,,,,,,,,,,,,,,,,,,,,,,,,,113.5,1.0,,,,,,
127,,iti,,html-keyboard-response,127,272099,0.0-1.0-24.0-0.0-5.0,0,0,23720,,,,,,,,,,,,,,,,,,,,,,,,,,,,,,,,,,,,,,114.5,1.0,,,,,,
128,,choice,,html-keyboard-response,128,272926,0.0-1.0-25.0-0.0-0.0,0,0,23720,,825.0,,,75.0,23.0,23.0,1000.0,1000.0,0.0,1.0,0.0,40-60,,0.0,lipstick,small table,40.0,60.0,lipstick7,small table5,60.0,80.0,P101401_hero.jpg,Atable145.jpg,/static/Category_learning/Stimuli/Experimental_stims/lipstick/P101401_hero.jpg,/static/Category_learning/Stimuli/Experimental_stims/small table/Atable145.jpg,0.0,small table,lipstick,60.0,40.0,small table5,lipstick7,80.0,60.0,0.0,115.325,0.825,,,,,,
129,,confirmation,,html-keyboard-response,129,273604,0.0-1.0-25.0-0.0-1.0-0.0,0,0,23720,,,,,,23.0,,,,,,,,,,,,,,,,,,,,,,,,,,,,,,,,116.0,0.675,,,,,,
130,,isi,,html-keyboard-response,130,274607,0.0-1.0-25.0-0.0-2.0,0,0,23720,,,,,,,,,,,,,,,,,,,,,,,,,,,,,,,,,,,,,,117.0,1.0,,,,,,
131,,feedback,,html-keyboard-response,131,275610,0.0-1.0-25.0-0.0-3.0-0.0,0,0,23720,,,,,,23.0,,,,,,,,,,,,,,,,,,,,,,,,,,,,,,,,118.0,1.0,,,,,,
132,,iti,,html-keyboard-response,132,276613,0.0-1.0-25.0-0.0-5.0,0,0,23720,,,,,,,,,,,,,,,,,,,,,,,,,,,,,,,,,,,,,,119.0,1.0,,,,,,
133,,choice,,html-keyboard-response,133,277417,0.0-1.0-26.0-0.0-0.0,0,0,23720,,802.0,,,75.0,24.0,24.0,3000.0,1500.0,0.0,1.0,0.0,20-80,,1.0,yarn,bowl,80.0,20.0,yarn4,bowl6,60.0,20.0,amethyst dreaming boho hy sml.jpg,Abowl59.jpg,/static/Category_learning/Stimuli/Experimental_stims/yarn/amethyst dreaming boho hy sml.jpg,/static/Category_learning/Stimuli/Experimental_stims/bowl/Abowl59.jpg,0.0,bowl,yarn,20.0,80.0,bowl6,yarn4,20.0,60.0,0.0,119.802,0.802,,,,,,
134,,confirmation,,html-keyboard-response,134,278119,0.0-1.0-26.0-0.0-1.0-0.0,0,0,23720,,,,,,24.0,,,,,,,,,,,,,,,,,,,,,,,,,,,,,,,,120.5,0.698,,,,,,
135,,isi,,html-keyboard-response,135,281122,0.0-1.0-26.0-0.0-2.0,0,0,23720,,,,,,,,,,,,,,,,,,,,,,,,,,,,,,,,,,,,,,123.5,3.0,,,,,,
136,,feedback,,html-keyboard-response,136,282125,0.0-1.0-26.0-0.0-3.0-0.0,0,0,23720,,,,,,24.0,,,,,,,,,,,,,,,,,,,,,,,,,,,,,,,,124.5,1.0,,,,,,
137,,iti,,html-keyboard-response,137,283629,0.0-1.0-26.0-0.0-5.0,0,0,23720,,,,,,,,,,,,,,,,,,,,,,,,,,,,,,,,,,,,,,126.0,1.5,,,,,,
138,,choice,,html-keyboard-response,138,284397,0.0-1.0-27.0-0.0-0.0,0,0,23720,,766.0,,,68.0,25.0,25.0,1000.0,2000.0,0.0,1.0,0.0,80-80,,,watch,trumpet,80.0,80.0,watch10,trumpet9,100.0,80.0,HEU0102124_zoom.jpg,trumpet3.jpg,/static/Category_learning/Stimuli/Experimental_stims/watch/HEU0102124_zoom.jpg,/static/Category_learning/Stimuli/Experimental_stims/trumpet/trumpet3.jpg,1.0,watch,trumpet,80.0,80.0,watch10,trumpet9,100.0,80.0,0.0,126.766,0.766,,,,,,
139,,confirmation,,html-keyboard-response,139,285135,0.0-1.0-27.0-0.0-1.0-0.0,0,0,23720,,,,,,25.0,,,,,,,,,,,,,,,,,,,,,,,,,,,,,,,,127.5,0.734,,,,,,
140,,isi,,html-keyboard-response,140,286147,0.0-1.0-27.0-0.0-2.0,0,0,23720,,,,,,,,,,,,,,,,,,,,,,,,,,,,,,,,,,,,,,128.5,1.0,,,,,,
141,,feedback,,html-keyboard-response,141,287151,0.0-1.0-27.0-0.0-3.0-0.0,0,0,23720,,,,,,25.0,,,,,,,,,,,,,,,,,,,,,,,,,,,,,,,,129.5,1.0,,,,,,
142,,iti,,html-keyboard-response,142,289154,0.0-1.0-27.0-0.0-5.0,0,0,23720,,,,,,,,,,,,,,,,,,,,,,,,,,,,,,,,,,,,,,131.5,2.0,,,,,,
143,,choice,,html-keyboard-response,143,289981,0.0-1.0-28.0-0.0-0.0,0,0,23720,,824.0,,,75.0,26.0,26.0,2000.0,1000.0,0.0,1.0,1.0,40-80,0.0,,watch,license plate,80.0,40.0,watch10,license plate14,100.0,40.0,HEU0102124_zoom.jpg,fl-hel-bel.jpg,/static/Category_learning/Stimuli/Experimental_stims/watch/HEU0102124_zoom.jpg,/static/Category_learning/Stimuli/Experimental_stims/license plate/fl-hel-bel.jpg,0.0,license plate,watch,40.0,80.0,license plate14,watch10,40.0,100.0,0.0,132.324,0.824,,,,,,
144,,confirmation,,html-keyboard-response,144,290660,0.0-1.0-28.0-0.0-1.0-0.0,0,0,23720,,,,,,26.0,,,,,,,,,,,,,,,,,,,,,,,,,,,,,,,,133.0,0.676,,,,,,
145,,isi,,html-keyboard-response,145,292663,0.0-1.0-28.0-0.0-2.0,0,0,23720,,,,,,,,,,,,,,,,,,,,,,,,,,,,,,,,,,,,,,135.0,2.0,,,,,,
146,,feedback,,html-keyboard-response,146,293666,0.0-1.0-28.0-0.0-3.0-0.0,0,0,23720,,,,,,26.0,,,,,,,,,,,,,,,,,,,,,,,,,,,,,,,,136.0,1.0,,,,,,
147,,iti,,html-keyboard-response,147,294669,0.0-1.0-28.0-0.0-5.0,0,0,23720,,,,,,,,,,,,,,,,,,,,,,,,,,,,,,,,,,,,,,137.0,1.0,,,,,,
148,,choice,,html-keyboard-response,148,295825,0.0-1.0-29.0-0.0-0.0,0,0,23720,,1153.0,,,75.0,27.0,27.0,3000.0,1500.0,0.0,1.0,0.0,80-80,,,stool,yarn,80.0,80.0,stool12,yarn7,80.0,100.0,henrybar_stool1.jpg,herb garden hy smaller.jpg,/static/Category_learning/Stimuli/Experimental_stims/stool/henrybar_stool1.jpg,/static/Category_learning/Stimuli/Experimental_stims/yarn/herb garden hy smaller.jpg,0.0,yarn,stool,80.0,80.0,yarn7,stool12,100.0,80.0,0.0,138.153,1.153,,,,,,
149,,confirmation,,html-keyboard-response,149,296175,0.0-1.0-29.0-0.0-1.0-0.0,0,0,23720,,,,,,27.0,,,,,,,,,,,,,,,,,,,,,,,,,,,,,,,,138.5,0.347,,,,,,
150,,isi,,html-keyboard-response,150,299178,0.0-1.0-29.0-0.0-2.0,0,0,23720,,,,,,,,,,,,,,,,,,,,,,,,,,,,,,,,,,,,,,141.5,3.0,,,,,,
151,,feedback,,html-keyboard-response,151,300182,0.0-1.0-29.0-0.0-3.0-0.0,0,0,23720,,,,,,27.0,,,,,,,,,,,,,,,,,,,,,,,,,,,,,,,,142.5,1.0,,,,,,
152,,iti,,html-keyboard-response,152,301684,0.0-1.0-29.0-0.0-5.0,0,0,23720,,,,,,,,,,,,,,,,,,,,,,,,,,,,,,,,,,,,,,144.0,1.5,,,,,,
153,,choice,,html-keyboard-response,153,302813,0.0-1.0-30.0-0.0-0.0,0,0,23720,,1126.0,,,68.0,28.0,28.0,2000.0,1500.0,0.0,1.0,0.0,40-60,,1.0,patio lounge chair,makeup compact,60.0,40.0,patio lounge chair6,makeup compact5,60.0,60.0,Lounge_Chair_with_Pillow.jpg,P109965_hero.jpg,/static/Category_learning/Stimuli/Experimental_stims/patio lounge chair/Lounge_Chair_with_Pillow.jpg,/static/Category_learning/Stimuli/Experimental_stims/makeup compact/P109965_hero.jpg,1.0,patio lounge chair,makeup compact,60.0,40.0,patio lounge chair6,makeup compact5,60.0,60.0,0.0,145.126,1.126,,,,,,
154,,confirmation,,html-keyboard-response,154,303191,0.0-1.0-30.0-0.0-1.0-0.0,0,0,23720,,,,,,28.0,,,,,,,,,,,,,,,,,,,,,,,,,,,,,,,,145.5,0.374,,,,,,
155,,isi,,html-keyboard-response,155,305195,0.0-1.0-30.0-0.0-2.0,0,0,23720,,,,,,,,,,,,,,,,,,,,,,,,,,,,,,,,,,,,,,147.5,2.0,,,,,,
156,,feedback,,html-keyboard-response,156,306198,0.0-1.0-30.0-0.0-3.0-0.0,0,0,23720,,,,,,28.0,,,,,,,,,,,,,,,,,,,,,,,,,,,,,,,,148.5,1.0,,,,,,
157,,iti,,html-keyboard-response,157,307701,0.0-1.0-30.0-0.0-5.0,0,0,23720,,,,,,,,,,,,,,,,,,,,,,,,,,,,,,,,,,,,,,150.0,1.5,,,,,,
158,,choice,,html-keyboard-response,158,309079,0.0-1.0-31.0-0.0-0.0,0,0,23720,,1376.0,,,68.0,29.0,29.0,1000.0,3500.0,0.0,1.0,0.0,40-80,,0.0,license plate,tape,40.0,80.0,license plate12,tape7,20.0,80.0,TurtleLicensePlate.jpg,tape dispenser.jpg,/static/Category_learning/Stimuli/Experimental_stims/license plate/TurtleLicensePlate.jpg,/static/Category_learning/Stimuli/Experimental_stims/tape/tape dispenser.jpg,1.0,license plate,tape,40.0,80.0,license plate12,tape7,20.0,80.0,0.0,151.376,1.376,,,,,,
159,,confirmation,,html-keyboard-response,159,309205,0.0-1.0-31.0-0.0-1.0-0.0,0,0,23720,,,,,,29.0,,,,,,,,,,,,,,,,,,,,,,,,,,,,,,,,151.5,0.124,,,,,,
160,,isi,,html-keyboard-response,160,310220,0.0-1.0-31.0-0.0-2.0,0,0,23720,,,,,,,,,,,,,,,,,,,,,,,,,,,,,,,,,,,,,,152.5,1.0,,,,,,
161,,feedback,,html-keyboard-response,161,311223,0.0-1.0-31.0-0.0-3.0-0.0,0,0,23720,,,,,,29.0,,,,,,,,,,,,,,,,,,,,,,,,,,,,,,,,153.5,1.0,,,,,,
162,,iti,,html-keyboard-response,162,314727,0.0-1.0-31.0-0.0-5.0,0,0,23720,,,,,,,,,,,,,,,,,,,,,,,,,,,,,,,,,,,,,,157.0,3.5,,,,,,
163,,choice,,html-keyboard-response,163,315765,0.0-1.0-32.0-0.0-0.0,0,0,23720,,1035.0,,,75.0,30.0,30.0,1000.0,1000.0,0.0,1.0,0.0,20-80,,0.0,desk,yarn,20.0,80.0,desk10,yarn3,20.0,100.0,MEX028.jpg,Aballofblueya.jpg,/static/Category_learning/Stimuli/Experimental_stims/desk/MEX028.jpg,/static/Category_learning/Stimuli/Experimental_stims/yarn/Aballofblueya.jpg,0.0,yarn,desk,80.0,20.0,yarn3,desk10,100.0,20.0,0.0,158.035,1.035,,,,,,
164,,confirmation,,html-keyboard-response,164,316233,0.0-1.0-32.0-0.0-1.0-0.0,0,0,23720,,,,,,30.0,,,,,,,,,,,,,,,,,,,,,,,,,,,,,,,,158.5,0.465,,,,,,
165,,isi,,html-keyboard-response,165,317235,0.0-1.0-32.0-0.0-2.0,0,0,23720,,,,,,,,,,,,,,,,,,,,,,,,,,,,,,,,,,,,,,159.5,1.0,,,,,,
166,,feedback,,html-keyboard-response,166,318239,0.0-1.0-32.0-0.0-3.0-0.0,0,0,23720,,,,,,30.0,,,,,,,,,,,,,,,,,,,,,,,,,,,,,,,,160.5,1.0,,,,,,
167,,iti,,html-keyboard-response,167,319241,0.0-1.0-32.0-0.0-5.0,0,0,23720,,,,,,,,,,,,,,,,,,,,,,,,,,,,,,,,,,,,,,161.5,1.0,,,,,,
168,,choice,,html-keyboard-response,168,320467,0.0-1.0-33.0-0.0-0.0,0,0,23720,,1223.0,,,68.0,31.0,31.0,1500.0,3000.0,0.0,1.0,0.0,20-60,,0.0,fan,poker card,20.0,60.0,fan14,poker card15,40.0,40.0,124771_sk_lg.jpg,9816946.thl.jpg,/static/Category_learning/Stimuli/Experimental_stims/fan/124771_sk_lg.jpg,/static/Category_learning/Stimuli/Experimental_stims/poker card/9816946.thl.jpg,1.0,fan,poker card,20.0,60.0,fan14,poker card15,40.0,40.0,0.0,162.723,1.223,,,,,,
169,,confirmation,,html-keyboard-response,169,320747,0.0-1.0-33.0-0.0-1.0-0.0,0,0,23720,,,,,,31.0,,,,,,,,,,,,,,,,,,,,,,,,,,,,,,,,163.0,0.277,,,,,,
170,,isi,,html-keyboard-response,170,322250,0.0-1.0-33.0-0.0-2.0,0,0,23720,,,,,,,,,,,,,,,,,,,,,,,,,,,,,,,,,,,,,,164.5,1.5,,,,,,
171,,feedback,,html-keyboard-response,171,323253,0.0-1.0-33.0-0.0-3.0-0.0,0,0,23720,,,,,,31.0,,,,,,,,,,,,,,,,,,,,,,,,,,,,,,,,165.5,1.0,,,,,,
172,,iti,,html-keyboard-response,172,326257,0.0-1.0-33.0-0.0-5.0,0,0,23720,,,,,,,,,,,,,,,,,,,,,,,,,,,,,,,,,,,,,,168.5,3.0,,,,,,
173,,choice,,html-keyboard-response,173,327010,0.0-1.0-34.0-0.0-0.0,0,0,23720,,752.0,,,75.0,32.0,32.0,2000.0,2000.0,0.0,1.0,0.0,60-80,,0.0,nail polish,tape,60.0,80.0,nail polish11,tape10,80.0,60.0,Revlon_Super_Top_Speed_Chrome_Nail_Polish-resized200.jpg,26377601.thl.jpg,/static/Category_learning/Stimuli/Experimental_stims/nail polish/Revlon_Super_Top_Speed_Chrome_Nail_Polish-resized200.jpg,/static/Category_learning/Stimuli/Experimental_stims/tape/26377601.thl.jpg,0.0,tape,nail polish,80.0,60.0,tape10,nail polish11,60.0,80.0,0.0,169.252,0.752,,,,,,
174,,confirmation,,html-keyboard-response,174,327762,0.0-1.0-34.0-0.0-1.0-0.0,0,0,23720,,,,,,32.0,,,,,,,,,,,,,,,,,,,,,,,,,,,,,,,,170.0,0.748,,,,,,
175,,isi,,html-keyboard-response,175,329764,0.0-1.0-34.0-0.0-2.0,0,0,23720,,,,,,,,,,,,,,,,,,,,,,,,,,,,,,,,,,,,,,172.0,2.0,,,,,,
176,,feedback,,html-keyboard-response,176,330767,0.0-1.0-34.0-0.0-3.0-0.0,0,0,23720,,,,,,32.0,,,,,,,,,,,,,,,,,,,,,,,,,,,,,,,,173.0,1.0,,,,,,
177,,iti,,html-keyboard-response,177,332770,0.0-1.0-34.0-0.0-5.0,0,0,23720,,,,,,,,,,,,,,,,,,,,,,,,,,,,,,,,,,,,,,175.0,2.0,,,,,,
178,,choice,,html-keyboard-response,178,333577,0.0-1.0-35.0-0.0-0.0,0,0,23720,,804.0,,,75.0,33.0,33.0,1000.0,1000.0,0.0,1.0,0.0,20-60,,0.0,baby carriage,power strip,20.0,60.0,baby carriage5,power strip11,20.0,40.0,Baby_Stroller.jpg,41Bw7Tl1G7L._AA262_.jpg,/static/Category_learning/Stimuli/Experimental_stims/baby carriage/Baby_Stroller.jpg,/static/Category_learning/Stimuli/Experimental_stims/power strip/41Bw7Tl1G7L._AA262_.jpg,0.0,power strip,baby carriage,60.0,20.0,power strip11,baby carriage5,40.0,20.0,0.0,175.804,0.804,,,,,,
179,,confirmation,,html-keyboard-response,179,334277,0.0-1.0-35.0-0.0-1.0-0.0,0,0,23720,,,,,,33.0,,,,,,,,,,,,,,,,,,,,,,,,,,,,,,,,176.5,0.696,,,,,,
180,,isi,,html-keyboard-response,180,335280,0.0-1.0-35.0-0.0-2.0,0,0,23720,,,,,,,,,,,,,,,,,,,,,,,,,,,,,,,,,,,,,,177.5,1.0,,,,,,
181,,feedback,,html-keyboard-response,181,336283,0.0-1.0-35.0-0.0-3.0-0.0,0,0,23720,,,,,,33.0,,,,,,,,,,,,,,,,,,,,,,,,,,,,,,,,178.5,1.0,,,,,,
182,,iti,,html-keyboard-response,182,337286,0.0-1.0-35.0-0.0-5.0,0,0,23720,,,,,,,,,,,,,,,,,,,,,,,,,,,,,,,,,,,,,,179.5,1.0,,,,,,
183,,choice,,html-keyboard-response,183,338186,0.0-1.0-36.0-0.0-0.0,0,0,23720,,897.0,,,75.0,34.0,34.0,3500.0,1500.0,0.0,1.0,0.0,20-20,,,dresser,fan,20.0,20.0,dresser6,fan4,40.0,0.0,ADRESSE96.jpg,AFAN39.jpg,/static/Category_learning/Stimuli/Experimental_stims/dresser/ADRESSE96.jpg,/static/Category_learning/Stimuli/Experimental_stims/fan/AFAN39.jpg,0.0,fan,dresser,20.0,20.0,fan4,dresser6,0.0,40.0,0.0,180.397,0.897,,,,,,
184,,confirmation,,html-keyboard-response,184,338792,0.0-1.0-36.0-0.0-1.0-0.0,0,0,23720,,,,,,34.0,,,,,,,,,,,,,,,,,,,,,,,,,,,,,,,,181.0,0.603,,,,,,
185,,isi,,html-keyboard-response,185,342296,0.0-1.0-36.0-0.0-2.0,0,0,23720,,,,,,,,,,,,,,,,,,,,,,,,,,,,,,,,,,,,,,184.5,3.5,,,,,,
186,,feedback,,html-keyboard-response,186,343299,0.0-1.0-36.0-0.0-3.0-0.0,0,0,23720,,,,,,34.0,,,,,,,,,,,,,,,,,,,,,,,,,,,,,,,,185.5,1.0,,,,,,
187,,iti,,html-keyboard-response,187,344802,0.0-1.0-36.0-0.0-5.0,0,0,23720,,,,,,,,,,,,,,,,,,,,,,,,,,,,,,,,,,,,,,187.0,1.5,,,,,,
188,,choice,,html-keyboard-response,188,345691,0.0-1.0-37.0-0.0-0.0,0,0,23720,,887.0,,,75.0,35.0,35.0,1500.0,1500.0,0.0,1.0,0.0,20-80,,1.0,vase,bowl,80.0,20.0,vase9,bowl2,80.0,40.0,Avasewithang2.jpg,AMIXBOWL2.jpg,/static/Category_learning/Stimuli/Experimental_stims/vase/Avasewithang2.jpg,/static/Category_learning/Stimuli/Experimental_stims/bowl/AMIXBOWL2.jpg,0.0,bowl,vase,20.0,80.0,bowl2,vase9,40.0,80.0,0.0,187.887,0.887,,,,,,
189,,confirmation,,html-keyboard-response,189,346308,0.0-1.0-37.0-0.0-1.0-0.0,0,0,23720,,,,,,35.0,,,,,,,,,,,,,,,,,,,,,,,,,,,,,,,,188.5,0.613,,,,,,
190,,isi,,html-keyboard-response,190,347810,0.0-1.0-37.0-0.0-2.0,0,0,23720,,,,,,,,,,,,,,,,,,,,,,,,,,,,,,,,,,,,,,190.0,1.5,,,,,,
191,,feedback,,html-keyboard-response,191,348813,0.0-1.0-37.0-0.0-3.0-0.0,0,0,23720,,,,,,35.0,,,,,,,,,,,,,,,,,,,,,,,,,,,,,,,,191.0,1.0,,,,,,
192,,iti,,html-keyboard-response,192,350316,0.0-1.0-37.0-0.0-5.0,0,0,23720,,,,,,,,,,,,,,,,,,,,,,,,,,,,,,,,,,,,,,192.5,1.5,,,,,,
193,,choice,,html-keyboard-response,193,351211,0.0-1.0-38.0-0.0-0.0,0,0,23720,,892.0,,,68.0,36.0,36.0,2000.0,1000.0,0.0,1.0,0.0,40-40,,,hammer,lipstick,40.0,40.0,hammer12,lipstick14,20.0,60.0,24oz hammer.jpg,P109907_hero.jpg,/static/Category_learning/Stimuli/Experimental_stims/hammer/24oz hammer.jpg,/static/Category_learning/Stimuli/Experimental_stims/lipstick/P109907_hero.jpg,1.0,hammer,lipstick,40.0,40.0,hammer12,lipstick14,20.0,60.0,0.0,193.392,0.892,,,,,,
194,,confirmation,,html-keyboard-response,194,351823,0.0-1.0-38.0-0.0-1.0-0.0,0,0,23720,,,,,,36.0,,,,,,,,,,,,,,,,,,,,,,,,,,,,,,,,194.0,0.608,,,,,,
195,,isi,,html-keyboard-response,195,353826,0.0-1.0-38.0-0.0-2.0,0,0,23720,,,,,,,,,,,,,,,,,,,,,,,,,,,,,,,,,,,,,,196.0,2.0,,,,,,
196,,feedback,,html-keyboard-response,196,354829,0.0-1.0-38.0-0.0-3.0-0.0,0,0,23720,,,,,,36.0,,,,,,,,,,,,,,,,,,,,,,,,,,,,,,,,197.0,1.0,,,,,,
197,,iti,,html-keyboard-response,197,355832,0.0-1.0-38.0-0.0-5.0,0,0,23720,,,,,,,,,,,,,,,,,,,,,,,,,,,,,,,,,,,,,,198.0,1.0,,,,,,
198,,choice,,html-keyboard-response,198,356444,0.0-1.0-39.0-0.0-0.0,0,0,23720,,609.0,,,75.0,37.0,37.0,3000.0,2000.0,0.0,1.0,1.0,80-80,1.0,,yarn,yarn,80.0,80.0,yarn7,yarn3,100.0,100.0,herb garden hy smaller.jpg,Aballofblueya.jpg,/static/Category_learning/Stimuli/Experimental_stims/yarn/herb garden hy smaller.jpg,/static/Category_learning/Stimuli/Experimental_stims/yarn/Aballofblueya.jpg,0.0,yarn,yarn,80.0,80.0,yarn3,yarn7,100.0,100.0,0.0,198.609,0.609,,,,,,
199,,confirmation,,html-keyboard-response,199,357338,0.0-1.0-39.0-0.0-1.0-0.0,0,0,23720,,,,,,37.0,,,,,,,,,,,,,,,,,,,,,,,,,,,,,,,,199.5,0.891,,,,,,
200,,isi,,html-keyboard-response,200,360341,0.0-1.0-39.0-0.0-2.0,0,0,23720,,,,,,,,,,,,,,,,,,,,,,,,,,,,,,,,,,,,,,202.5,3.0,,,,,,
201,,feedback,,html-keyboard-response,201,361345,0.0-1.0-39.0-0.0-3.0-0.0,0,0,23720,,,,,,37.0,,,,,,,,,,,,,,,,,,,,,,,,,,,,,,,,203.5,1.0,,,,,,
202,,iti,,html-keyboard-response,202,363347,0.0-1.0-39.0-0.0-5.0,0,0,23720,,,,,,,,,,,,,,,,,,,,,,,,,,,,,,,,,,,,,,205.5,2.0,,,,,,
203,,choice,,html-keyboard-response,203,364279,0.0-1.0-40.0-0.0-0.0,0,0,23720,,930.0,,,68.0,38.0,38.0,1500.0,3000.0,0.0,1.0,0.0,20-60,,1.0,poker card,door knob,60.0,20.0,poker card13,door knob14,80.0,20.0,9817197.thl.jpg,500_CLANYKAB.jpg,/static/Category_learning/Stimuli/Experimental_stims/poker card/9817197.thl.jpg,/static/Category_learning/Stimuli/Experimental_stims/door knob/500_CLANYKAB.jpg,1.0,poker card,door knob,60.0,20.0,poker card13,door knob14,80.0,20.0,0.0,206.43,0.93,,,,,,
204,,confirmation,,html-keyboard-response,204,364853,0.0-1.0-40.0-0.0-1.0-0.0,0,0,23720,,,,,,38.0,,,,,,,,,,,,,,,,,,,,,,,,,,,,,,,,207.0,0.57,,,,,,
205,,isi,,html-keyboard-response,205,366357,0.0-1.0-40.0-0.0-2.0,0,0,23720,,,,,,,,,,,,,,,,,,,,,,,,,,,,,,,,,,,,,,208.5,1.5,,,,,,
206,,feedback,,html-keyboard-response,206,367359,0.0-1.0-40.0-0.0-3.0-0.0,0,0,23720,,,,,,38.0,,,,,,,,,,,,,,,,,,,,,,,,,,,,,,,,209.5,1.0,,,,,,
207,,iti,,html-keyboard-response,207,370362,0.0-1.0-40.0-0.0-5.0,0,0,23720,,,,,,,,,,,,,,,,,,,,,,,,,,,,,,,,,,,,,,212.5,3.0,,,,,,
208,,choice,,html-keyboard-response,208,371597,0.0-1.0-41.0-0.0-0.0,0,0,23720,,1232.0,,,68.0,39.0,39.0,3500.0,1000.0,0.0,1.0,1.0,20-20,1.0,,fan,fan,20.0,20.0,fan4,fan14,0.0,40.0,AFAN39.jpg,124771_sk_lg.jpg,/static/Category_learning/Stimuli/Experimental_stims/fan/AFAN39.jpg,/static/Category_learning/Stimuli/Experimental_stims/fan/124771_sk_lg.jpg,1.0,fan,fan,20.0,20.0,fan4,fan14,0.0,40.0,0.0,213.732,1.232,,,,,,
209,,confirmation,,html-keyboard-response,209,371868,0.0-1.0-41.0-0.0-1.0-0.0,0,0,23720,,,,,,39.0,,,,,,,,,,,,,,,,,,,,,,,,,,,,,,,,214.0,0.268,,,,,,
210,,isi,,html-keyboard-response,210,375371,0.0-1.0-41.0-0.0-2.0,0,0,23720,,,,,,,,,,,,,,,,,,,,,,,,,,,,,,,,,,,,,,217.5,3.5,,,,,,
211,,feedback,,html-keyboard-response,211,376374,0.0-1.0-41.0-0.0-3.0-0.0,0,0,23720,,,,,,39.0,,,,,,,,,,,,,,,,,,,,,,,,,,,,,,,,218.5,1.0,,,,,,
212,,iti,,html-keyboard-response,212,377377,0.0-1.0-41.0-0.0-5.0,0,0,23720,,,,,,,,,,,,,,,,,,,,,,,,,,,,,,,,,,,,,,219.5,1.0,,,,,,
213,,choice,,html-keyboard-response,213,378559,0.0-1.0-42.0-0.0-0.0,0,0,23720,,1180.0,,,75.0,40.0,40.0,2000.0,3000.0,0.0,1.0,1.0,20-20,1.0,,bowl,bowl,20.0,20.0,bowl2,bowl6,40.0,20.0,AMIXBOWL2.jpg,Abowl59.jpg,/static/Category_learning/Stimuli/Experimental_stims/bowl/AMIXBOWL2.jpg,/static/Category_learning/Stimuli/Experimental_stims/bowl/Abowl59.jpg,0.0,bowl,bowl,20.0,20.0,bowl6,bowl2,20.0,40.0,0.0,220.68,1.18,,,,,,
214,,confirmation,,html-keyboard-response,214,378883,0.0-1.0-42.0-0.0-1.0-0.0,0,0,23720,,,,,,40.0,,,,,,,,,,,,,,,,,,,,,,,,,,,,,,,,221.0,0.32,,,,,,
215,,isi,,html-keyboard-response,215,380886,0.0-1.0-42.0-0.0-2.0,0,0,23720,,,,,,,,,,,,,,,,,,,,,,,,,,,,,,,,,,,,,,223.0,2.0,,,,,,
216,,feedback,,html-keyboard-response,216,381890,0.0-1.0-42.0-0.0-3.0-0.0,0,0,23720,,,,,,40.0,,,,,,,,,,,,,,,,,,,,,,,,,,,,,,,,224.0,1.0,,,,,,
217,,iti,,html-keyboard-response,217,384893,0.0-1.0-42.0-0.0-5.0,0,0,23720,,,,,,,,,,,,,,,,,,,,,,,,,,,,,,,,,,,,,,227.0,3.0,,,,,,
218,,choice,,html-keyboard-response,218,385699,0.0-1.0-43.0-0.0-0.0,0,0,23720,,804.0,,,68.0,41.0,41.0,1000.0,1000.0,0.0,1.0,0.0,20-60,,1.0,small table,bongo,60.0,20.0,small table4,bongo9,40.0,20.0,ACOFTABLE.jpg,22946035.thl.jpg,/static/Category_learning/Stimuli/Experimental_stims/small table/ACOFTABLE.jpg,/static/Category_learning/Stimuli/Experimental_stims/bongo/22946035.thl.jpg,1.0,small table,bongo,60.0,20.0,small table4,bongo9,40.0,20.0,0.0,227.804,0.804,,,,,,
219,,confirmation,,html-keyboard-response,219,386398,0.0-1.0-43.0-0.0-1.0-0.0,0,0,23720,,,,,,41.0,,,,,,,,,,,,,,,,,,,,,,,,,,,,,,,,228.5,0.696,,,,,,
220,,isi,,html-keyboard-response,220,387401,0.0-1.0-43.0-0.0-2.0,0,0,23720,,,,,,,,,,,,,,,,,,,,,,,,,,,,,,,,,,,,,,229.5,1.0,,,,,,
221,,feedback,,html-keyboard-response,221,388404,0.0-1.0-43.0-0.0-3.0-0.0,0,0,23720,,,,,,41.0,,,,,,,,,,,,,,,,,,,,,,,,,,,,,,,,230.5,1.0,,,,,,
222,,iti,,html-keyboard-response,222,389406,0.0-1.0-43.0-0.0-5.0,0,0,23720,,,,,,,,,,,,,,,,,,,,,,,,,,,,,,,,,,,,,,231.5,1.0,,,,,,
223,,choice,,html-keyboard-response,223,390063,0.0-1.0-44.0-0.0-0.0,0,0,23720,,655.0,,,75.0,42.0,42.0,3500.0,1000.0,0.0,1.0,0.0,60-60,,,necklace,poker card,60.0,60.0,necklace2,poker card5,40.0,40.0,Anecklace7.jpg,22864800.thl.jpg,/static/Category_learning/Stimuli/Experimental_stims/necklace/Anecklace7.jpg,/static/Category_learning/Stimuli/Experimental_stims/poker card/22864800.thl.jpg,0.0,poker card,necklace,60.0,60.0,poker card5,necklace2,40.0,40.0,0.0,232.155,0.655,,,,,,
224,,confirmation,,html-keyboard-response,224,390913,0.0-1.0-44.0-0.0-1.0-0.0,0,0,23720,,,,,,42.0,,,,,,,,,,,,,,,,,,,,,,,,,,,,,,,,233.0,0.845,,,,,,
225,,isi,,html-keyboard-response,225,394415,0.0-1.0-44.0-0.0-2.0,0,0,23720,,,,,,,,,,,,,,,,,,,,,,,,,,,,,,,,,,,,,,236.5,3.5,,,,,,
226,,feedback,,html-keyboard-response,226,395418,0.0-1.0-44.0-0.0-3.0-0.0,0,0,23720,,,,,,42.0,,,,,,,,,,,,,,,,,,,,,,,,,,,,,,,,237.5,1.0,,,,,,
227,,iti,,html-keyboard-response,227,396422,0.0-1.0-44.0-0.0-5.0,0,0,23720,,,,,,,,,,,,,,,,,,,,,,,,,,,,,,,,,,,,,,238.5,1.0,,,,,,
228,,choice,,html-keyboard-response,228,397861,0.0-1.0-45.0-0.0-0.0,0,0,23720,,1437.0,,,75.0,43.0,43.0,2000.0,2000.0,0.0,1.0,0.0,40-60,,0.0,lipstick,power strip,40.0,60.0,lipstick10,power strip10,60.0,60.0,21K0D7QKFAL._SS500_.jpg,6bd437c9-6165-4d36-bf75-9a1038783c6a_400.jpg,/static/Category_learning/Stimuli/Experimental_stims/lipstick/21K0D7QKFAL._SS500_.jpg,/static/Category_learning/Stimuli/Experimental_stims/power strip/6bd437c9-6165-4d36-bf75-9a1038783c6a_400.jpg,0.0,power strip,lipstick,60.0,40.0,power strip10,lipstick10,60.0,60.0,0.0,239.937,1.437,,,,,,
229,,confirmation,,html-keyboard-response,229,397927,0.0-1.0-45.0-0.0-1.0-0.0,0,0,23720,,,,,,43.0,,,,,,,,,,,,,,,,,,,,,,,,,,,,,,,,240.0,0.063,,,,,,
230,,isi,,html-keyboard-response,230,399930,0.0-1.0-45.0-0.0-2.0,0,0,23720,,,,,,,,,,,,,,,,,,,,,,,,,,,,,,,,,,,,,,242.0,2.0,,,,,,
231,,feedback,,html-keyboard-response,231,400933,0.0-1.0-45.0-0.0-3.0-0.0,0,0,23720,,,,,,43.0,,,,,,,,,,,,,,,,,,,,,,,,,,,,,,,,243.0,1.0,,,,,,
232,,iti,,html-keyboard-response,232,402937,0.0-1.0-45.0-0.0-5.0,0,0,23720,,,,,,,,,,,,,,,,,,,,,,,,,,,,,,,,,,,,,,245.0,2.0,,,,,,
233,,choice,,html-keyboard-response,233,404086,0.0-1.0-46.0-0.0-0.0,0,0,23720,,1147.0,,,68.0,44.0,44.0,1000.0,3000.0,0.0,1.0,1.0,60-60,1.0,,small table,small table,60.0,60.0,small table5,small table4,80.0,40.0,Atable145.jpg,ACOFTABLE.jpg,/static/Category_learning/Stimuli/Experimental_stims/small table/Atable145.jpg,/static/Category_learning/Stimuli/Experimental_stims/small table/ACOFTABLE.jpg,1.0,small table,small table,60.0,60.0,small table5,small table4,80.0,40.0,0.0,246.147,1.147,,,,,,
234,,confirmation,,html-keyboard-response,234,404442,0.0-1.0-46.0-0.0-1.0-0.0,0,0,23720,,,,,,44.0,,,,,,,,,,,,,,,,,,,,,,,,,,,,,,,,246.5,0.353,,,,,,
235,,isi,,html-keyboard-response,235,405444,0.0-1.0-46.0-0.0-2.0,0,0,23720,,,,,,,,,,,,,,,,,,,,,,,,,,,,,,,,,,,,,,247.5,1.0,,,,,,
236,,feedback,,html-keyboard-response,236,406447,0.0-1.0-46.0-0.0-3.0-0.0,0,0,23720,,,,,,44.0,,,,,,,,,,,,,,,,,,,,,,,,,,,,,,,,248.5,1.0,,,,,,
237,,iti,,html-keyboard-response,237,409450,0.0-1.0-46.0-0.0-5.0,0,0,23720,,,,,,,,,,,,,,,,,,,,,,,,,,,,,,,,,,,,,,251.5,3.0,,,,,,
238,,choice,,html-keyboard-response,238,410003,0.0-1.0-47.0-0.0-0.0,0,0,23720,,550.0,,,75.0,45.0,45.0,1500.0,1000.0,0.0,1.0,1.0,60-60,1.0,,poker card,poker card,60.0,60.0,poker card5,poker card13,40.0,80.0,22864800.thl.jpg,9817197.thl.jpg,/static/Category_learning/Stimuli/Experimental_stims/poker card/22864800.thl.jpg,/static/Category_learning/Stimuli/Experimental_stims/poker card/9817197.thl.jpg,0.0,poker card,poker card,60.0,60.0,poker card13,poker card5,80.0,40.0,0.0,252.05,0.55,,,,,,
239,,confirmation,,html-keyboard-response,239,410955,0.0-1.0-47.0-0.0-1.0-0.0,0,0,23720,,,,,,45.0,,,,,,,,,,,,,,,,,,,,,,,,,,,,,,,,253.0,0.95,,,,,,
240,,isi,,html-keyboard-response,240,412458,0.0-1.0-47.0-0.0-2.0,0,0,23720,,,,,,,,,,,,,,,,,,,,,,,,,,,,,,,,,,,,,,254.5,1.5,,,,,,
241,,feedback,,html-keyboard-response,241,413462,0.0-1.0-47.0-0.0-3.0-0.0,0,0,23720,,,,,,45.0,,,,,,,,,,,,,,,,,,,,,,,,,,,,,,,,255.5,1.0,,,,,,
242,,iti,,html-keyboard-response,242,414464,0.0-1.0-47.0-0.0-5.0,0,0,23720,,,,,,,,,,,,,,,,,,,,,,,,,,,,,,,,,,,,,,256.5,1.0,,,,,,
243,,choice,,html-keyboard-response,243,415410,0.0-1.0-48.0-0.0-0.0,0,0,23720,,944.0,,,68.0,46.0,46.0,1000.0,1500.0,0.0,1.0,0.0,20-40,,0.0,bongo,hammer,20.0,40.0,bongo13,hammer4,0.0,40.0,26388718.thl.jpg,hammernew01.jpg,/static/Category_learning/Stimuli/Experimental_stims/bongo/26388718.thl.jpg,/static/Category_learning/Stimuli/Experimental_stims/hammer/hammernew01.jpg,1.0,bongo,hammer,20.0,40.0,bongo13,hammer4,0.0,40.0,0.0,257.444,0.944,,,,,,
244,,confirmation,,html-keyboard-response,244,415970,0.0-1.0-48.0-0.0-1.0-0.0,0,0,23720,,,,,,46.0,,,,,,,,,,,,,,,,,,,,,,,,,,,,,,,,258.0,0.556,,,,,,
245,,isi,,html-keyboard-response,245,416972,0.0-1.0-48.0-0.0-2.0,0,0,23720,,,,,,,,,,,,,,,,,,,,,,,,,,,,,,,,,,,,,,259.0,1.0,,,,,,
246,,feedback,,html-keyboard-response,246,417976,0.0-1.0-48.0-0.0-3.0-0.0,0,0,23720,,,,,,46.0,,,,,,,,,,,,,,,,,,,,,,,,,,,,,,,,260.0,1.0,,,,,,
247,,iti,,html-keyboard-response,247,419479,0.0-1.0-48.0-0.0-5.0,0,0,23720,,,,,,,,,,,,,,,,,,,,,,,,,,,,,,,,,,,,,,261.5,1.5,,,,,,
248,,choice,,html-keyboard-response,248,420479,0.0-1.0-49.0-0.0-0.0,0,0,23720,,997.0,,,75.0,47.0,47.0,1000.0,2000.0,0.0,1.0,0.0,40-80,,1.0,telescope,frame,80.0,40.0,telescope15,frame3,80.0,40.0,VictorianDeskTelescope.jpg,AFRAME132.jpg,/static/Category_learning/Stimuli/Experimental_stims/telescope/VictorianDeskTelescope.jpg,/static/Category_learning/Stimuli/Experimental_stims/frame/AFRAME132.jpg,0.0,frame,telescope,40.0,80.0,frame3,telescope15,40.0,80.0,0.0,262.497,0.997,,,,,,
249,,confirmation,,html-keyboard-response,249,420985,0.0-1.0-49.0-0.0-1.0-0.0,0,0,23720,,,,,,47.0,,,,,,,,,,,,,,,,,,,,,,,,,,,,,,,,263.0,0.503,,,,,,
250,,isi,,html-keyboard-response,250,421988,0.0-1.0-49.0-0.0-2.0,0,0,23720,,,,,,,,,,,,,,,,,,,,,,,,,,,,,,,,,,,,,,264.0,1.0,,,,,,
251,,feedback,,html-keyboard-response,251,422991,0.0-1.0-49.0-0.0-3.0-0.0,0,0,23720,,,,,,47.0,,,,,,,,,,,,,,,,,,,,,,,,,,,,,,,,265.0,1.0,,,,,,
252,,iti,,html-keyboard-response,252,424993,0.0-1.0-49.0-0.0-5.0,0,0,23720,,,,,,,,,,,,,,,,,,,,,,,,,,,,,,,,,,,,,,267.0,2.0,,,,,,
253,,choice,,html-keyboard-response,253,425782,0.0-1.0-50.0-0.0-0.0,0,0,23720,,786.0,,,68.0,48.0,48.0,1000.0,2000.0,0.0,1.0,0.0,20-20,,,bench,flashlight,20.0,20.0,bench5,flashlight3,0.0,20.0,APARKBEN8.jpg,sl_tasklight_2l3w.jpg,/static/Category_learning/Stimuli/Experimental_stims/bench/APARKBEN8.jpg,/static/Category_learning/Stimuli/Experimental_stims/flashlight/sl_tasklight_2l3w.jpg,1.0,bench,flashlight,20.0,20.0,bench5,flashlight3,0.0,20.0,0.0,267.786,0.786,,,,,,
254,,confirmation,,html-keyboard-response,254,426500,0.0-1.0-50.0-0.0-1.0-0.0,0,0,23720,,,,,,48.0,,,,,,,,,,,,,,,,,,,,,,,,,,,,,,,,268.5,0.714,,,,,,
255,,isi,,html-keyboard-response,255,427502,0.0-1.0-50.0-0.0-2.0,0,0,23720,,,,,,,,,,,,,,,,,,,,,,,,,,,,,,,,,,,,,,269.5,1.0,,,,,,
256,,feedback,,html-keyboard-response,256,428505,0.0-1.0-50.0-0.0-3.0-0.0,0,0,23720,,,,,,48.0,,,,,,,,,,,,,,,,,,,,,,,,,,,,,,,,270.5,1.0,,,,,,
257,,iti,,html-keyboard-response,257,430508,0.0-1.0-50.0-0.0-5.0,0,0,23720,,,,,,,,,,,,,,,,,,,,,,,,,,,,,,,,,,,,,,272.5,2.0,,,,,,
258,,choice,,html-keyboard-response,258,431497,0.0-1.0-51.0-0.0-0.0,0,0,23720,,986.0,,,75.0,49.0,49.0,1500.0,1500.0,0.0,1.0,1.0,60-60,1.0,,power strip,power strip,60.0,60.0,power strip10,power strip11,60.0,40.0,6bd437c9-6165-4d36-bf75-9a1038783c6a_400.jpg,41Bw7Tl1G7L._AA262_.jpg,/static/Category_learning/Stimuli/Experimental_stims/power strip/6bd437c9-6165-4d36-bf75-9a1038783c6a_400.jpg,/static/Category_learning/Stimuli/Experimental_stims/power strip/41Bw7Tl1G7L._AA262_.jpg,0.0,power strip,power strip,60.0,60.0,power strip11,power strip10,40.0,60.0,0.0,273.486,0.986,,,,,,
259,,confirmation,,html-keyboard-response,259,432014,0.0-1.0-51.0-0.0-1.0-0.0,0,0,23720,,,,,,49.0,,,,,,,,,,,,,,,,,,,,,,,,,,,,,,,,274.0,0.514,,,,,,
260,,isi,,html-keyboard-response,260,433526,0.0-1.0-51.0-0.0-2.0,0,0,23720,,,,,,,,,,,,,,,,,,,,,,,,,,,,,,,,,,,,,,275.5,1.5,,,,,,
261,,feedback,,html-keyboard-response,261,434528,0.0-1.0-51.0-0.0-3.0-0.0,0,0,23720,,,,,,49.0,,,,,,,,,,,,,,,,,,,,,,,,,,,,,,,,276.5,1.0,,,,,,
262,,iti,,html-keyboard-response,262,436032,0.0-1.0-51.0-0.0-5.0,0,0,23720,,,,,,,,,,,,,,,,,,,,,,,,,,,,,,,,,,,,,,278.0,1.5,,,,,,
263,,choice,,html-keyboard-response,263,437528,0.0-1.0-52.0-0.0-0.0,0,0,23720,,1494.0,,,75.0,50.0,50.0,1000.0,1500.0,0.0,1.0,0.0,40-80,,0.0,frame,vase,40.0,80.0,frame11,vase14,60.0,80.0,AFRAME139.jpg,Avase119.jpg,/static/Category_learning/Stimuli/Experimental_stims/frame/AFRAME139.jpg,/static/Category_learning/Stimuli/Experimental_stims/vase/Avase119.jpg,0.0,vase,frame,80.0,40.0,vase14,frame11,80.0,60.0,0.0,279.494,1.494,,,,,,
264,,confirmation,,html-keyboard-response,264,437538,0.0-1.0-52.0-0.0-1.0-0.0,0,0,23720,,,,,,50.0,,,,,,,,,,,,,,,,,,,,,,,,,,,,,,,,279.5,0.006,,,,,,
265,,isi,,html-keyboard-response,265,438541,0.0-1.0-52.0-0.0-2.0,0,0,23720,,,,,,,,,,,,,,,,,,,,,,,,,,,,,,,,,,,,,,280.5,1.0,,,,,,
266,,feedback,,html-keyboard-response,266,439545,0.0-1.0-52.0-0.0-3.0-0.0,0,0,23720,,,,,,50.0,,,,,,,,,,,,,,,,,,,,,,,,,,,,,,,,281.5,1.0,,,,,,
267,,iti,,html-keyboard-response,267,441049,0.0-1.0-52.0-0.0-5.0,0,0,23720,,,,,,,,,,,,,,,,,,,,,,,,,,,,,,,,,,,,,,283.0,1.5,,,,,,
268,,choice,,html-keyboard-response,268,441735,0.0-1.0-53.0-0.0-0.0,0,0,23720,,683.0,,,68.0,51.0,51.0,2000.0,2000.0,0.0,1.0,0.0,20-60,,1.0,seashell,door knob,60.0,20.0,seashell11,door knob1,80.0,0.0,ASEASH12.jpg,Brass_Door_Handle.jpg,/static/Category_learning/Stimuli/Experimental_stims/seashell/ASEASH12.jpg,/static/Category_learning/Stimuli/Experimental_stims/door knob/Brass_Door_Handle.jpg,1.0,seashell,door knob,60.0,20.0,seashell11,door knob1,80.0,0.0,0.0,283.683,0.683,,,,,,
269,,confirmation,,html-keyboard-response,269,442556,0.0-1.0-53.0-0.0-1.0-0.0,0,0,23720,,,,,,51.0,,,,,,,,,,,,,,,,,,,,,,,,,,,,,,,,284.5,0.817,,,,,,
270,,isi,,html-keyboard-response,270,444559,0.0-1.0-53.0-0.0-2.0,0,0,23720,,,,,,,,,,,,,,,,,,,,,,,,,,,,,,,,,,,,,,286.5,2.0,,,,,,
271,,feedback,,html-keyboard-response,271,445562,0.0-1.0-53.0-0.0-3.0-0.0,0,0,23720,,,,,,51.0,,,,,,,,,,,,,,,,,,,,,,,,,,,,,,,,287.5,1.0,,,,,,
272,,iti,,html-keyboard-response,272,447565,0.0-1.0-53.0-0.0-5.0,0,0,23720,,,,,,,,,,,,,,,,,,,,,,,,,,,,,,,,,,,,,,289.5,2.0,,,,,,
273,,choice,,html-keyboard-response,273,448861,0.0-1.0-54.0-0.0-0.0,0,0,23720,,1294.0,,,68.0,52.0,52.0,2000.0,1000.0,0.0,1.0,0.0,20-40,,0.0,flashlight,makeup compact,20.0,40.0,flashlight2,makeup compact13,0.0,40.0,AV-9 No Battery Flashlight.jpg,31YfapjS3TL._AA250_.jpg,/static/Category_learning/Stimuli/Experimental_stims/flashlight/AV-9 No Battery Flashlight.jpg,/static/Category_learning/Stimuli/Experimental_stims/makeup compact/31YfapjS3TL._AA250_.jpg,1.0,flashlight,makeup compact,20.0,40.0,flashlight2,makeup compact13,0.0,40.0,0.0,290.794,1.294,,,,,,
274,,confirmation,,html-keyboard-response,274,449070,0.0-1.0-54.0-0.0-1.0-0.0,0,0,23720,,,,,,52.0,,,,,,,,,,,,,,,,,,,,,,,,,,,,,,,,291.0,0.206,,,,,,
275,,isi,,html-keyboard-response,275,451074,0.0-1.0-54.0-0.0-2.0,0,0,23720,,,,,,,,,,,,,,,,,,,,,,,,,,,,,,,,,,,,,,293.0,2.0,,,,,,
276,,feedback,,html-keyboard-response,276,452077,0.0-1.0-54.0-0.0-3.0-0.0,0,0,23720,,,,,,52.0,,,,,,,,,,,,,,,,,,,,,,,,,,,,,,,,294.0,1.0,,,,,,
277,,iti,,html-keyboard-response,277,453080,0.0-1.0-54.0-0.0-5.0,0,0,23720,,,,,,,,,,,,,,,,,,,,,,,,,,,,,,,,,,,,,,295.0,1.0,,,,,,
278,,choice,,html-keyboard-response,278,454361,0.0-1.0-55.0-0.0-0.0,0,0,23720,,1278.0,,,68.0,53.0,53.0,1500.0,1000.0,0.0,1.0,0.0,20-60,,1.0,sofa,bongo,60.0,20.0,sofa4,bongo4,40.0,0.0,ALOVSEA15.jpg,26390708.thl.jpg,/static/Category_learning/Stimuli/Experimental_stims/sofa/ALOVSEA15.jpg,/static/Category_learning/Stimuli/Experimental_stims/bongo/26390708.thl.jpg,1.0,sofa,bongo,60.0,20.0,sofa4,bongo4,40.0,0.0,0.0,296.278,1.278,,,,,,
279,,confirmation,,html-keyboard-response,279,454600,0.0-1.0-55.0-0.0-1.0-0.0,0,0,23720,,,,,,53.0,,,,,,,,,,,,,,,,,,,,,,,,,,,,,,,,296.5,0.222,,,,,,
280,,isi,,html-keyboard-response,280,456103,0.0-1.0-55.0-0.0-2.0,0,0,23720,,,,,,,,,,,,,,,,,,,,,,,,,,,,,,,,,,,,,,298.0,1.5,,,,,,
281,,feedback,,html-keyboard-response,281,457106,0.0-1.0-55.0-0.0-3.0-0.0,0,0,23720,,,,,,53.0,,,,,,,,,,,,,,,,,,,,,,,,,,,,,,,,299.0,1.0,,,,,,
282,,iti,,html-keyboard-response,282,458110,0.0-1.0-55.0-0.0-5.0,0,0,23720,,,,,,,,,,,,,,,,,,,,,,,,,,,,,,,,,,,,,,300.0,1.0,,,,,,
283,,choice,,html-keyboard-response,283,459172,0.0-1.0-56.0-0.0-0.0,0,0,23720,,1060.0,,,75.0,54.0,54.0,1000.0,1000.0,0.0,1.0,1.0,40-40,1.0,,frame,frame,40.0,40.0,frame1,frame3,20.0,40.0,AFRAME127.jpg,AFRAME132.jpg,/static/Category_learning/Stimuli/Experimental_stims/frame/AFRAME127.jpg,/static/Category_learning/Stimuli/Experimental_stims/frame/AFRAME132.jpg,0.0,frame,frame,40.0,40.0,frame3,frame1,40.0,20.0,0.0,301.06,1.06,,,,,,
284,,confirmation,,html-keyboard-response,284,459615,0.0-1.0-56.0-0.0-1.0-0.0,0,0,23720,,,,,,54.0,,,,,,,,,,,,,,,,,,,,,,,,,,,,,,,,301.5,0.44,,,,,,
285,,isi,,html-keyboard-response,285,460617,0.0-1.0-56.0-0.0-2.0,0,0,23720,,,,,,,,,,,,,,,,,,,,,,,,,,,,,,,,,,,,,,302.5,1.0,,,,,,
286,,feedback,,html-keyboard-response,286,461620,0.0-1.0-56.0-0.0-3.0-0.0,0,0,23720,,,,,,54.0,,,,,,,,,,,,,,,,,,,,,,,,,,,,,,,,303.5,1.0,,,,,,
287,,iti,,html-keyboard-response,287,462622,0.0-1.0-56.0-0.0-5.0,0,0,23720,,,,,,,,,,,,,,,,,,,,,,,,,,,,,,,,,,,,,,304.5,1.0,,,,,,
288,,choice,,html-keyboard-response,288,463395,0.0-1.0-57.0-0.0-0.0,0,0,23720,,770.0,,,75.0,55.0,55.0,1000.0,1500.0,0.0,1.0,0.0,20-80,,0.0,flashlight,train,20.0,80.0,flashlight14,train11,20.0,60.0,freeplay-jonta-flashlight.jpg,train1.jpg,/static/Category_learning/Stimuli/Experimental_stims/flashlight/freeplay-jonta-flashlight.jpg,/static/Category_learning/Stimuli/Experimental_stims/train/train1.jpg,0.0,train,flashlight,80.0,20.0,train11,flashlight14,60.0,20.0,0.0,305.27,0.77,,,,,,
289,,confirmation,,html-keyboard-response,289,464129,0.0-1.0-57.0-0.0-1.0-0.0,0,0,23720,,,,,,55.0,,,,,,,,,,,,,,,,,,,,,,,,,,,,,,,,306.0,0.73,,,,,,
290,,isi,,html-keyboard-response,290,465132,0.0-1.0-57.0-0.0-2.0,0,0,23720,,,,,,,,,,,,,,,,,,,,,,,,,,,,,,,,,,,,,,307.0,1.0,,,,,,
291,,feedback,,html-keyboard-response,291,466136,0.0-1.0-57.0-0.0-3.0-0.0,0,0,23720,,,,,,55.0,,,,,,,,,,,,,,,,,,,,,,,,,,,,,,,,308.0,1.0,,,,,,
292,,iti,,html-keyboard-response,292,467640,0.0-1.0-57.0-0.0-5.0,0,0,23720,,,,,,,,,,,,,,,,,,,,,,,,,,,,,,,,,,,,,,309.5,1.5,,,,,,
293,,choice,,html-keyboard-response,293,468613,0.0-1.0-58.0-0.0-0.0,0,0,23720,,971.0,,,75.0,56.0,56.0,1000.0,1500.0,0.0,1.0,0.0,20-80,,0.0,fan,stool,20.0,80.0,fan12,stool9,0.0,100.0,116544_sk_lg.jpg,ASTOOL7.jpg,/static/Category_learning/Stimuli/Experimental_stims/fan/116544_sk_lg.jpg,/static/Category_learning/Stimuli/Experimental_stims/stool/ASTOOL7.jpg,0.0,stool,fan,80.0,20.0,stool9,fan12,100.0,0.0,0.0,310.471,0.971,,,,,,
294,,confirmation,,html-keyboard-response,294,469146,0.0-1.0-58.0-0.0-1.0-0.0,0,0,23720,,,,,,56.0,,,,,,,,,,,,,,,,,,,,,,,,,,,,,,,,311.0,0.529,,,,,,
295,,isi,,html-keyboard-response,295,470148,0.0-1.0-58.0-0.0-2.0,0,0,23720,,,,,,,,,,,,,,,,,,,,,,,,,,,,,,,,,,,,,,312.0,1.0,,,,,,
296,,feedback,,html-keyboard-response,296,471150,0.0-1.0-58.0-0.0-3.0-0.0,0,0,23720,,,,,,56.0,,,,,,,,,,,,,,,,,,,,,,,,,,,,,,,,313.0,1.0,,,,,,
297,,iti,,html-keyboard-response,297,472661,0.0-1.0-58.0-0.0-5.0,0,0,23720,,,,,,,,,,,,,,,,,,,,,,,,,,,,,,,,,,,,,,314.5,1.5,,,,,,
298,,choice,,html-keyboard-response,298,473601,0.0-1.0-59.0-0.0-0.0,0,0,23720,,937.0,,,68.0,57.0,57.0,1500.0,1000.0,0.0,1.0,0.0,20-40,,1.0,motorcycle,bench,40.0,20.0,motorcycle12,bench4,40.0,0.0,motorcycle14.jpg,30892819.thl.jpg,/static/Category_learning/Stimuli/Experimental_stims/motorcycle/motorcycle14.jpg,/static/Category_learning/Stimuli/Experimental_stims/bench/30892819.thl.jpg,1.0,motorcycle,bench,40.0,20.0,motorcycle12,bench4,40.0,0.0,0.0,315.437,0.937,,,,,,
299,,confirmation,,html-keyboard-response,299,474176,0.0-1.0-59.0-0.0-1.0-0.0,0,0,23720,,,,,,57.0,,,,,,,,,,,,,,,,,,,,,,,,,,,,,,,,316.0,0.563,,,,,,
300,,isi,,html-keyboard-response,300,475680,0.0-1.0-59.0-0.0-2.0,0,0,23720,,,,,,,,,,,,,,,,,,,,,,,,,,,,,,,,,,,,,,317.5,1.5,,,,,,
301,,feedback,,html-keyboard-response,301,476684,0.0-1.0-59.0-0.0-3.0-0.0,0,0,23720,,,,,,57.0,,,,,,,,,,,,,,,,,,,,,,,,,,,,,,,,318.5,1.0,,,,,,
302,,iti,,html-keyboard-response,302,477687,0.0-1.0-59.0-0.0-5.0,0,0,23720,,,,,,,,,,,,,,,,,,,,,,,,,,,,,,,,,,,,,,319.5,1.0,,,,,,
303,,choice,,html-keyboard-response,303,478505,0.0-1.0-60.0-0.0-0.0,0,0,23720,,815.0,,,75.0,58.0,58.0,1000.0,2000.0,0.0,1.0,1.0,20-80,0.0,,bongo,vase,20.0,80.0,bongo13,vase14,0.0,80.0,26388718.thl.jpg,Avase119.jpg,/static/Category_learning/Stimuli/Experimental_stims/bongo/26388718.thl.jpg,/static/Category_learning/Stimuli/Experimental_stims/vase/Avase119.jpg,0.0,vase,bongo,80.0,20.0,vase14,bongo13,80.0,0.0,0.0,320.315,0.815,,,,,,
304,,confirmation,,html-keyboard-response,304,479193,0.0-1.0-60.0-0.0-1.0-0.0,0,0,23720,,,,,,58.0,,,,,,,,,,,,,,,,,,,,,,,,,,,,,,,,321.0,0.685,,,,,,
305,,isi,,html-keyboard-response,305,480197,0.0-1.0-60.0-0.0-2.0,0,0,23720,,,,,,,,,,,,,,,,,,,,,,,,,,,,,,,,,,,,,,322.0,1.0,,,,,,
306,,feedback,,html-keyboard-response,306,481201,0.0-1.0-60.0-0.0-3.0-0.0,0,0,23720,,,,,,58.0,,,,,,,,,,,,,,,,,,,,,,,,,,,,,,,,323.0,1.0,,,,,,
307,,iti,,html-keyboard-response,307,483203,0.0-1.0-60.0-0.0-5.0,0,0,23720,,,,,,,,,,,,,,,,,,,,,,,,,,,,,,,,,,,,,,325.0,2.0,,,,,,
308,,choice,,html-keyboard-response,308,484592,0.0-1.0-61.0-0.0-0.0,0,0,23720,,1386.0,,,68.0,59.0,59.0,2000.0,2000.0,0.0,1.0,0.0,40-80,,0.0,microscope,yarn,40.0,80.0,microscope12,yarn2,40.0,60.0,usbdigitalmicroscope1_small1.jpg,Aballofyarn66.jpg,/static/Category_learning/Stimuli/Experimental_stims/microscope/usbdigitalmicroscope1_small1.jpg,/static/Category_learning/Stimuli/Experimental_stims/yarn/Aballofyarn66.jpg,1.0,microscope,yarn,40.0,80.0,microscope12,yarn2,40.0,60.0,0.0,326.386,1.386,,,,,,
309,,confirmation,,html-keyboard-response,309,484709,0.0-1.0-61.0-0.0-1.0-0.0,0,0,23720,,,,,,59.0,,,,,,,,,,,,,,,,,,,,,,,,,,,,,,,,326.5,0.114,,,,,,
310,,isi,,html-keyboard-response,310,486712,0.0-1.0-61.0-0.0-2.0,0,0,23720,,,,,,,,,,,,,,,,,,,,,,,,,,,,,,,,,,,,,,328.5,2.0,,,,,,
311,,feedback,,html-keyboard-response,311,487715,0.0-1.0-61.0-0.0-3.0-0.0,0,0,23720,,,,,,59.0,,,,,,,,,,,,,,,,,,,,,,,,,,,,,,,,329.5,1.0,,,,,,
312,,iti,,html-keyboard-response,312,489718,0.0-1.0-61.0-0.0-5.0,0,0,23720,,,,,,,,,,,,,,,,,,,,,,,,,,,,,,,,,,,,,,331.5,2.0,,,,,,
313,,choice,,html-keyboard-response,313,490488,0.0-1.0-62.0-0.0-0.0,0,0,23720,,767.0,,,68.0,60.0,60.0,1000.0,1500.0,0.0,1.0,0.0,60-60,,,nail polish,necklace,60.0,60.0,nail polish2,necklace8,80.0,40.0,froggy_t.jpg,Anecklace20.jpg,/static/Category_learning/Stimuli/Experimental_stims/nail polish/froggy_t.jpg,/static/Category_learning/Stimuli/Experimental_stims/necklace/Anecklace20.jpg,1.0,nail polish,necklace,60.0,60.0,nail polish2,necklace8,80.0,40.0,0.0,332.267,0.767,,,,,,
314,,confirmation,,html-keyboard-response,314,491224,0.0-1.0-62.0-0.0-1.0-0.0,0,0,23720,,,,,,60.0,,,,,,,,,,,,,,,,,,,,,,,,,,,,,,,,333.0,0.733,,,,,,
315,,isi,,html-keyboard-response,315,492227,0.0-1.0-62.0-0.0-2.0,0,0,23720,,,,,,,,,,,,,,,,,,,,,,,,,,,,,,,,,,,,,,334.0,1.0,,,,,,
316,,feedback,,html-keyboard-response,316,493230,0.0-1.0-62.0-0.0-3.0-0.0,0,0,23720,,,,,,60.0,,,,,,,,,,,,,,,,,,,,,,,,,,,,,,,,335.0,1.0,,,,,,
317,,iti,,html-keyboard-response,317,494733,0.0-1.0-62.0-0.0-5.0,0,0,23720,,,,,,,,,,,,,,,,,,,,,,,,,,,,,,,,,,,,,,336.5,1.5,,,,,,
318,,choice,,html-keyboard-response,318,495480,0.0-1.0-63.0-0.0-0.0,0,0,23720,,744.0,,,75.0,61.0,61.0,1000.0,1500.0,0.0,1.0,0.0,60-80,,1.0,stool,small table,80.0,60.0,stool15,small table6,100.0,80.0,ASTOOL.jpg,ATABLE88.jpg,/static/Category_learning/Stimuli/Experimental_stims/stool/ASTOOL.jpg,/static/Category_learning/Stimuli/Experimental_stims/small table/ATABLE88.jpg,0.0,small table,stool,60.0,80.0,small table6,stool15,80.0,100.0,0.0,337.244,0.744,,,,,,
319,,confirmation,,html-keyboard-response,319,496239,0.0-1.0-63.0-0.0-1.0-0.0,0,0,23720,,,,,,61.0,,,,,,,,,,,,,,,,,,,,,,,,,,,,,,,,338.0,0.756,,,,,,
320,,isi,,html-keyboard-response,320,497242,0.0-1.0-63.0-0.0-2.0,0,0,23720,,,,,,,,,,,,,,,,,,,,,,,,,,,,,,,,,,,,,,339.0,1.0,,,,,,
321,,feedback,,html-keyboard-response,321,498245,0.0-1.0-63.0-0.0-3.0-0.0,0,0,23720,,,,,,61.0,,,,,,,,,,,,,,,,,,,,,,,,,,,,,,,,340.0,1.0,,,,,,
322,,iti,,html-keyboard-response,322,499748,0.0-1.0-63.0-0.0-5.0,0,0,23720,,,,,,,,,,,,,,,,,,,,,,,,,,,,,,,,,,,,,,341.5,1.5,,,,,,
323,,choice,,html-keyboard-response,323,500785,0.0-1.0-64.0-0.0-0.0,0,0,23720,,1034.0,,,75.0,62.0,62.0,1000.0,1000.0,0.0,1.0,0.0,40-60,,1.0,seashell,microscope,60.0,40.0,seashell9,microscope11,80.0,20.0,ASEASH5.jpg,konus5604microscope.jpg,/static/Category_learning/Stimuli/Experimental_stims/seashell/ASEASH5.jpg,/static/Category_learning/Stimuli/Experimental_stims/microscope/konus5604microscope.jpg,0.0,microscope,seashell,40.0,60.0,microscope11,seashell9,20.0,80.0,0.0,342.534,1.034,,,,,,
324,,confirmation,,html-keyboard-response,324,501254,0.0-1.0-64.0-0.0-1.0-0.0,0,0,23720,,,,,,62.0,,,,,,,,,,,,,,,,,,,,,,,,,,,,,,,,343.0,0.466,,,,,,
325,,isi,,html-keyboard-response,325,502257,0.0-1.0-64.0-0.0-2.0,0,0,23720,,,,,,,,,,,,,,,,,,,,,,,,,,,,,,,,,,,,,,344.0,1.0,,,,,,
326,,feedback,,html-keyboard-response,326,503260,0.0-1.0-64.0-0.0-3.0-0.0,0,0,23720,,,,,,62.0,,,,,,,,,,,,,,,,,,,,,,,,,,,,,,,,345.0,1.0,,,,,,
327,,iti,,html-keyboard-response,327,504263,0.0-1.0-64.0-0.0-5.0,0,0,23720,,,,,,,,,,,,,,,,,,,,,,,,,,,,,,,,,,,,,,346.0,1.0,,,,,,
328,,choice,,html-keyboard-response,328,505385,0.0-1.0-65.0-0.0-0.0,0,0,23720,,1119.0,,,68.0,63.0,63.0,1000.0,1500.0,0.0,1.0,0.0,20-80,,0.0,bowl,stool,20.0,80.0,bowl3,stool5,40.0,60.0,ABOWL8.jpg,ASTOOL23.jpg,/static/Category_learning/Stimuli/Experimental_stims/bowl/ABOWL8.jpg,/static/Category_learning/Stimuli/Experimental_stims/stool/ASTOOL23.jpg,1.0,bowl,stool,20.0,80.0,bowl3,stool5,40.0,60.0,0.0,347.119,1.119,,,,,,
329,,confirmation,,html-keyboard-response,329,505770,0.0-1.0-65.0-0.0-1.0-0.0,0,0,23720,,,,,,63.0,,,,,,,,,,,,,,,,,,,,,,,,,,,,,,,,347.5,0.381,,,,,,
330,,isi,,html-keyboard-response,330,506774,0.0-1.0-65.0-0.0-2.0,0,0,23720,,,,,,,,,,,,,,,,,,,,,,,,,,,,,,,,,,,,,,348.5,1.0,,,,,,
331,,feedback,,html-keyboard-response,331,507778,0.0-1.0-65.0-0.0-3.0-0.0,0,0,23720,,,,,,63.0,,,,,,,,,,,,,,,,,,,,,,,,,,,,,,,,349.5,1.0,,,,,,
332,,iti,,html-keyboard-response,332,509281,0.0-1.0-65.0-0.0-5.0,0,0,23720,,,,,,,,,,,,,,,,,,,,,,,,,,,,,,,,,,,,,,351.0,1.5,,,,,,
333,,block_over,,html-keyboard-response,333,544981,0.0-1.0-65.0-0.0-7.0-0.0,0,0,23720,,35697.0,,,68.0,63.0,,,,,,,,,,,,,,,,,,,,,,,,,,,,,,,,,,,,,,,
334,,start_run,,html-keyboard-response,334,546199,0.0-1.0-65.0-0.0-7.0-1.0,0,0,23720,,1216.0,,,84.0,,,,,,,,,,,,,,,,,,,,,,,,,,,,,,,,,,,,,,,,
335,,choice,,html-keyboard-response,335,547036,0.0-1.0-66.0-0.0-0.0,0,0,23720,,834.0,,,75.0,64.0,65.0,1000.0,1000.0,0.0,2.0,0.0,40-80,,1.0,watch,makeup compact,80.0,40.0,watch1,makeup compact9,80.0,40.0,B000B5K8XI.01-A2E7J74KJYV9ZH._AA280_SCLZZZZZZZ_V53007008_.jpg,b_102019.jpg,/static/Category_learning/Stimuli/Experimental_stims/watch/B000B5K8XI.01-A2E7J74KJYV9ZH._AA280_SCLZZZZZZZ_V53007008_.jpg,/static/Category_learning/Stimuli/Experimental_stims/makeup compact/b_102019.jpg,0.0,makeup compact,watch,40.0,80.0,makeup compact9,watch1,40.0,80.0,0.0,0.834,0.834,,,,,,
336,,confirmation,,html-keyboard-response,336,547705,0.0-1.0-66.0-0.0-1.0-0.0,0,0,23720,,,,,,64.0,,,,,,,,,,,,,,,,,,,,,,,,,,,,,,,,1.5,0.666,,,,,,
337,,isi,,html-keyboard-response,337,548707,0.0-1.0-66.0-0.0-2.0,0,0,23720,,,,,,,,,,,,,,,,,,,,,,,,,,,,,,,,,,,,,,2.5,1.0,,,,,,
338,,feedback,,html-keyboard-response,338,549710,0.0-1.0-66.0-0.0-3.0-0.0,0,0,23720,,,,,,64.0,,,,,,,,,,,,,,,,,,,,,,,,,,,,,,,,3.5,1.0,,,,,,
339,,iti,,html-keyboard-response,339,550713,0.0-1.0-66.0-0.0-5.0,0,0,23720,,,,,,,,,,,,,,,,,,,,,,,,,,,,,,,,,,,,,,4.5,1.0,,,,,,
340,,choice,,html-keyboard-response,340,551913,0.0-1.0-67.0-0.0-0.0,0,0,23720,,1197.0,,,68.0,65.0,66.0,3500.0,2000.0,0.0,2.0,0.0,20-80,,1.0,vase,bench,80.0,20.0,vase12,bench13,100.0,40.0,Abluevase2.jpg,ABROWNBE4.jpg,/static/Category_learning/Stimuli/Experimental_stims/vase/Abluevase2.jpg,/static/Category_learning/Stimuli/Experimental_stims/bench/ABROWNBE4.jpg,1.0,vase,bench,80.0,20.0,vase12,bench13,100.0,40.0,0.0,5.697,1.197,,,,,,
341,,confirmation,,html-keyboard-response,341,552220,0.0-1.0-67.0-0.0-1.0-0.0,0,0,23720,,,,,,65.0,,,,,,,,,,,,,,,,,,,,,,,,,,,,,,,,6.0,0.303,,,,,,
342,,isi,,html-keyboard-response,342,555723,0.0-1.0-67.0-0.0-2.0,0,0,23720,,,,,,,,,,,,,,,,,,,,,,,,,,,,,,,,,,,,,,9.5,3.5,,,,,,
343,,feedback,,html-keyboard-response,343,556726,0.0-1.0-67.0-0.0-3.0-0.0,0,0,23720,,,,,,65.0,,,,,,,,,,,,,,,,,,,,,,,,,,,,,,,,10.5,1.0,,,,,,
344,,iti,,html-keyboard-response,344,558730,0.0-1.0-67.0-0.0-5.0,0,0,23720,,,,,,,,,,,,,,,,,,,,,,,,,,,,,,,,,,,,,,12.5,2.0,,,,,,
345,,choice,,html-keyboard-response,345,559599,0.0-1.0-68.0-0.0-0.0,0,0,23720,,868.0,,,75.0,66.0,67.0,1000.0,1000.0,0.0,2.0,0.0,20-80,,0.0,fan,trumpet,20.0,80.0,fan2,trumpet12,40.0,80.0,507349_sk_lg.jpg,hornabariton.jpg,/static/Category_learning/Stimuli/Experimental_stims/fan/507349_sk_lg.jpg,/static/Category_learning/Stimuli/Experimental_stims/trumpet/hornabariton.jpg,0.0,trumpet,fan,80.0,20.0,trumpet12,fan2,80.0,40.0,0.0,13.368,0.868,,,,,,
346,,confirmation,,html-keyboard-response,346,560235,0.0-1.0-68.0-0.0-1.0-0.0,0,0,23720,,,,,,66.0,,,,,,,,,,,,,,,,,,,,,,,,,,,,,,,,14.0,0.632,,,,,,
347,,isi,,html-keyboard-response,347,561238,0.0-1.0-68.0-0.0-2.0,0,0,23720,,,,,,,,,,,,,,,,,,,,,,,,,,,,,,,,,,,,,,15.0,1.0,,,,,,
348,,feedback,,html-keyboard-response,348,562242,0.0-1.0-68.0-0.0-3.0-0.0,0,0,23720,,,,,,66.0,,,,,,,,,,,,,,,,,,,,,,,,,,,,,,,,16.0,1.0,,,,,,
349,,iti,,html-keyboard-response,349,563245,0.0-1.0-68.0-0.0-5.0,0,0,23720,,,,,,,,,,,,,,,,,,,,,,,,,,,,,,,,,,,,,,17.0,1.0,,,,,,
350,,choice,,html-keyboard-response,350,564401,0.0-1.0-69.0-0.0-0.0,0,0,23720,,1154.0,,,75.0,67.0,68.0,2000.0,1000.0,0.0,2.0,0.0,60-60,,,pen,poker card,60.0,60.0,pen4,poker card9,80.0,80.0,Montblanc_Greta_Garbo_BP copy.jpg,9817230.thl.jpg,/static/Category_learning/Stimuli/Experimental_stims/pen/Montblanc_Greta_Garbo_BP copy.jpg,/static/Category_learning/Stimuli/Experimental_stims/poker card/9817230.thl.jpg,0.0,poker card,pen,60.0,60.0,poker card9,pen4,80.0,80.0,0.0,18.154,1.154,,,,,,
351,,confirmation,,html-keyboard-response,351,564749,0.0-1.0-69.0-0.0-1.0-0.0,0,0,23720,,,,,,67.0,,,,,,,,,,,,,,,,,,,,,,,,,,,,,,,,18.5,0.346,,,,,,
352,,isi,,html-keyboard-response,352,566753,0.0-1.0-69.0-0.0-2.0,0,0,23720,,,,,,,,,,,,,,,,,,,,,,,,,,,,,,,,,,,,,,20.5,2.0,,,,,,
353,,feedback,,html-keyboard-response,353,567755,0.0-1.0-69.0-0.0-3.0-0.0,0,0,23720,,,,,,67.0,,,,,,,,,,,,,,,,,,,,,,,,,,,,,,,,21.5,1.0,,,,,,
354,,iti,,html-keyboard-response,354,568758,0.0-1.0-69.0-0.0-5.0,0,0,23720,,,,,,,,,,,,,,,,,,,,,,,,,,,,,,,,,,,,,,22.5,1.0,,,,,,
355,,choice,,html-keyboard-response,355,569960,0.0-1.0-70.0-0.0-0.0,0,0,23720,,1200.0,,,75.0,68.0,69.0,1000.0,1000.0,0.0,2.0,0.0,20-20,,,baby carriage,fan,20.0,20.0,baby carriage9,fan11,0.0,0.0,Antique baby Carriage 7.jpg,n_sf.jpg,/static/Category_learning/Stimuli/Experimental_stims/baby carriage/Antique baby Carriage 7.jpg,/static/Category_learning/Stimuli/Experimental_stims/fan/n_sf.jpg,0.0,fan,baby carriage,20.0,20.0,fan11,baby carriage9,0.0,0.0,0.0,23.7,1.2,,,,,,
356,,confirmation,,html-keyboard-response,356,570263,0.0-1.0-70.0-0.0-1.0-0.0,0,0,23720,,,,,,68.0,,,,,,,,,,,,,,,,,,,,,,,,,,,,,,,,24.0,0.3,,,,,,
357,,isi,,html-keyboard-response,357,571267,0.0-1.0-70.0-0.0-2.0,0,0,23720,,,,,,,,,,,,,,,,,,,,,,,,,,,,,,,,,,,,,,25.0,1.0,,,,,,
358,,feedback,,html-keyboard-response,358,572269,0.0-1.0-70.0-0.0-3.0-0.0,0,0,23720,,,,,,68.0,,,,,,,,,,,,,,,,,,,,,,,,,,,,,,,,26.0,1.0,,,,,,
359,,iti,,html-keyboard-response,359,573271,0.0-1.0-70.0-0.0-5.0,0,0,23720,,,,,,,,,,,,,,,,,,,,,,,,,,,,,,,,,,,,,,27.0,1.0,,,,,,
360,,choice,,html-keyboard-response,360,574138,0.0-1.0-71.0-0.0-0.0,0,0,23720,,864.0,,,75.0,69.0,70.0,1500.0,1000.0,0.0,2.0,0.0,20-80,,1.0,stool,dresser,80.0,20.0,stool2,dresser1,60.0,0.0,ASTOOL46.jpg,ADRESSE52.jpg,/static/Category_learning/Stimuli/Experimental_stims/stool/ASTOOL46.jpg,/static/Category_learning/Stimuli/Experimental_stims/dresser/ADRESSE52.jpg,0.0,dresser,stool,20.0,80.0,dresser1,stool2,0.0,60.0,0.0,27.864,0.864,,,,,,
361,,confirmation,,html-keyboard-response,361,574779,0.0-1.0-71.0-0.0-1.0-0.0,0,0,23720,,,,,,69.0,,,,,,,,,,,,,,,,,,,,,,,,,,,,,,,,28.5,0.636,,,,,,
362,,isi,,html-keyboard-response,362,576282,0.0-1.0-71.0-0.0-2.0,0,0,23720,,,,,,,,,,,,,,,,,,,,,,,,,,,,,,,,,,,,,,30.0,1.5,,,,,,
363,,feedback,,html-keyboard-response,363,577286,0.0-1.0-71.0-0.0-3.0-0.0,0,0,23720,,,,,,69.0,,,,,,,,,,,,,,,,,,,,,,,,,,,,,,,,31.0,1.0,,,,,,
364,,iti,,html-keyboard-response,364,578289,0.0-1.0-71.0-0.0-5.0,0,0,23720,,,,,,,,,,,,,,,,,,,,,,,,,,,,,,,,,,,,,,32.0,1.0,,,,,,
365,,choice,,html-keyboard-response,365,579005,0.0-1.0-72.0-0.0-0.0,0,0,23720,,715.0,,,75.0,70.0,71.0,3500.0,2000.0,0.0,2.0,0.0,20-80,,0.0,desk,stool,20.0,80.0,desk4,stool11,40.0,60.0,AbbeyMiniRadialBIG(1).jpg,ASTOOL28.jpg,/static/Category_learning/Stimuli/Experimental_stims/desk/AbbeyMiniRadialBIG(1).jpg,/static/Category_learning/Stimuli/Experimental_stims/stool/ASTOOL28.jpg,0.0,stool,desk,80.0,20.0,stool11,desk4,60.0,40.0,0.0,32.715,0.715,,,,,,
366,,confirmation,,html-keyboard-response,366,579795,0.0-1.0-72.0-0.0-1.0-0.0,0,0,23720,,,,,,70.0,,,,,,,,,,,,,,,,,,,,,,,,,,,,,,,,33.5,0.785,,,,,,
367,,isi,,html-keyboard-response,367,583297,0.0-1.0-72.0-0.0-2.0,0,0,23720,,,,,,,,,,,,,,,,,,,,,,,,,,,,,,,,,,,,,,37.0,3.5,,,,,,
368,,feedback,,html-keyboard-response,368,584300,0.0-1.0-72.0-0.0-3.0-0.0,0,0,23720,,,,,,70.0,,,,,,,,,,,,,,,,,,,,,,,,,,,,,,,,38.0,1.0,,,,,,
369,,iti,,html-keyboard-response,369,586304,0.0-1.0-72.0-0.0-5.0,0,0,23720,,,,,,,,,,,,,,,,,,,,,,,,,,,,,,,,,,,,,,40.0,2.0,,,,,,
370,,choice,,html-keyboard-response,370,587441,0.0-1.0-73.0-0.0-0.0,0,0,23720,,1135.0,,,68.0,71.0,72.0,2000.0,1500.0,0.0,2.0,0.0,40-60,,0.0,license plate,poker card,40.0,60.0,license plate1,poker card2,40.0,60.0,il-423-3784.jpg,22864716.thl.jpg,/static/Category_learning/Stimuli/Experimental_stims/license plate/il-423-3784.jpg,/static/Category_learning/Stimuli/Experimental_stims/poker card/22864716.thl.jpg,1.0,license plate,poker card,40.0,60.0,license plate1,poker card2,40.0,60.0,0.0,41.135,1.135,,,,,,
371,,confirmation,,html-keyboard-response,371,587809,0.0-1.0-73.0-0.0-1.0-0.0,0,0,23720,,,,,,71.0,,,,,,,,,,,,,,,,,,,,,,,,,,,,,,,,41.5,0.365,,,,,,
372,,isi,,html-keyboard-response,372,589812,0.0-1.0-73.0-0.0-2.0,0,0,23720,,,,,,,,,,,,,,,,,,,,,,,,,,,,,,,,,,,,,,43.5,2.0,,,,,,
373,,feedback,,html-keyboard-response,373,590815,0.0-1.0-73.0-0.0-3.0-0.0,0,0,23720,,,,,,71.0,,,,,,,,,,,,,,,,,,,,,,,,,,,,,,,,44.5,1.0,,,,,,
374,,iti,,html-keyboard-response,374,592319,0.0-1.0-73.0-0.0-5.0,0,0,23720,,,,,,,,,,,,,,,,,,,,,,,,,,,,,,,,,,,,,,46.0,1.5,,,,,,
375,,choice,,html-keyboard-response,375,593503,0.0-1.0-74.0-0.0-0.0,0,0,23720,,1182.0,,,75.0,72.0,73.0,1500.0,1500.0,0.0,2.0,1.0,80-80,1.0,,stool,stool,80.0,80.0,stool11,stool9,60.0,100.0,ASTOOL28.jpg,ASTOOL7.jpg,/static/Category_learning/Stimuli/Experimental_stims/stool/ASTOOL28.jpg,/static/Category_learning/Stimuli/Experimental_stims/stool/ASTOOL7.jpg,0.0,stool,stool,80.0,80.0,stool9,stool11,100.0,60.0,0.0,47.182,1.182,,,,,,
376,,confirmation,,html-keyboard-response,376,593824,0.0-1.0-74.0-0.0-1.0-0.0,0,0,23720,,,,,,72.0,,,,,,,,,,,,,,,,,,,,,,,,,,,,,,,,47.5,0.318,,,,,,
377,,isi,,html-keyboard-response,377,595327,0.0-1.0-74.0-0.0-2.0,0,0,23720,,,,,,,,,,,,,,,,,,,,,,,,,,,,,,,,,,,,,,49.0,1.5,,,,,,
378,,feedback,,html-keyboard-response,378,596331,0.0-1.0-74.0-0.0-3.0-0.0,0,0,23720,,,,,,72.0,,,,,,,,,,,,,,,,,,,,,,,,,,,,,,,,50.0,1.0,,,,,,
379,,iti,,html-keyboard-response,379,597836,0.0-1.0-74.0-0.0-5.0,0,0,23720,,,,,,,,,,,,,,,,,,,,,,,,,,,,,,,,,,,,,,51.5,1.5,,,,,,
380,,choice,,html-keyboard-response,380,598824,0.0-1.0-75.0-0.0-0.0,0,0,23720,,985.0,,,75.0,73.0,74.0,1000.0,2000.0,0.0,2.0,0.0,20-60,,0.0,flashlight,poker card,20.0,60.0,flashlight8,poker card12,40.0,80.0,Streamlight-Stinger-Rechargeable-Flashlight-with-Charger-Black-75014-B00008BFSI-L.jpg,22865676.thl.jpg,/static/Category_learning/Stimuli/Experimental_stims/flashlight/Streamlight-Stinger-Rechargeable-Flashlight-with-Charger-Black-75014-B00008BFSI-L.jpg,/static/Category_learning/Stimuli/Experimental_stims/poker card/22865676.thl.jpg,0.0,poker card,flashlight,60.0,20.0,poker card12,flashlight8,80.0,40.0,0.0,52.485,0.985,,,,,,
381,,confirmation,,html-keyboard-response,381,599342,0.0-1.0-75.0-0.0-1.0-0.0,0,0,23720,,,,,,73.0,,,,,,,,,,,,,,,,,,,,,,,,,,,,,,,,53.0,0.515,,,,,,
382,,isi,,html-keyboard-response,382,600345,0.0-1.0-75.0-0.0-2.0,0,0,23720,,,,,,,,,,,,,,,,,,,,,,,,,,,,,,,,,,,,,,54.0,1.0,,,,,,
383,,feedback,,html-keyboard-response,383,601349,0.0-1.0-75.0-0.0-3.0-0.0,0,0,23720,,,,,,73.0,,,,,,,,,,,,,,,,,,,,,,,,,,,,,,,,55.0,1.0,,,,,,
384,,iti,,html-keyboard-response,384,603352,0.0-1.0-75.0-0.0-5.0,0,0,23720,,,,,,,,,,,,,,,,,,,,,,,,,,,,,,,,,,,,,,57.0,2.0,,,,,,
385,,choice,,html-keyboard-response,385,604511,0.0-1.0-76.0-0.0-0.0,0,0,23720,,1156.0,,,68.0,74.0,75.0,1500.0,1000.0,0.0,2.0,0.0,20-80,,0.0,bongo,stool,20.0,80.0,bongo3,stool4,20.0,60.0,26390697.thl.jpg,ASTOOL22.jpg,/static/Category_learning/Stimuli/Experimental_stims/bongo/26390697.thl.jpg,/static/Category_learning/Stimuli/Experimental_stims/stool/ASTOOL22.jpg,1.0,bongo,stool,20.0,80.0,bongo3,stool4,20.0,60.0,0.0,58.156,1.156,,,,,,
386,,confirmation,,html-keyboard-response,386,604859,0.0-1.0-76.0-0.0-1.0-0.0,0,0,23720,,,,,,74.0,,,,,,,,,,,,,,,,,,,,,,,,,,,,,,,,58.5,0.344,,,,,,
387,,isi,,html-keyboard-response,387,606371,0.0-1.0-76.0-0.0-2.0,0,0,23720,,,,,,,,,,,,,,,,,,,,,,,,,,,,,,,,,,,,,,60.0,1.5,,,,,,
388,,feedback,,html-keyboard-response,388,607373,0.0-1.0-76.0-0.0-3.0-0.0,0,0,23720,,,,,,74.0,,,,,,,,,,,,,,,,,,,,,,,,,,,,,,,,61.0,1.0,,,,,,
389,,iti,,html-keyboard-response,389,608377,0.0-1.0-76.0-0.0-5.0,0,0,23720,,,,,,,,,,,,,,,,,,,,,,,,,,,,,,,,,,,,,,62.0,1.0,,,,,,
390,,choice,,html-keyboard-response,390,609383,0.0-1.0-77.0-0.0-0.0,0,0,23720,,1003.0,,,75.0,75.0,76.0,3000.0,2000.0,0.0,2.0,0.0,40-40,,,makeup compact,motorcycle,40.0,40.0,makeup compact6,motorcycle8,20.0,20.0,P0754_hero.jpg,Motorcycle903425j2.jpg,/static/Category_learning/Stimuli/Experimental_stims/makeup compact/P0754_hero.jpg,/static/Category_learning/Stimuli/Experimental_stims/motorcycle/Motorcycle903425j2.jpg,0.0,motorcycle,makeup compact,40.0,40.0,motorcycle8,makeup compact6,20.0,20.0,0.0,63.003,1.003,,,,,,
391,,confirmation,,html-keyboard-response,391,609884,0.0-1.0-77.0-0.0-1.0-0.0,0,0,23720,,,,,,75.0,,,,,,,,,,,,,,,,,,,,,,,,,,,,,,,,63.5,0.497,,,,,,
392,,isi,,html-keyboard-response,392,612887,0.0-1.0-77.0-0.0-2.0,0,0,23720,,,,,,,,,,,,,,,,,,,,,,,,,,,,,,,,,,,,,,66.5,3.0,,,,,,
393,,feedback,,html-keyboard-response,393,613890,0.0-1.0-77.0-0.0-3.0-0.0,0,0,23720,,,,,,75.0,,,,,,,,,,,,,,,,,,,,,,,,,,,,,,,,67.5,1.0,,,,,,
394,,iti,,html-keyboard-response,394,615893,0.0-1.0-77.0-0.0-5.0,0,0,23720,,,,,,,,,,,,,,,,,,,,,,,,,,,,,,,,,,,,,,69.5,2.0,,,,,,
395,,choice,,html-keyboard-response,395,616641,0.0-1.0-78.0-0.0-0.0,0,0,23720,,746.0,,,68.0,76.0,77.0,3000.0,1000.0,0.0,2.0,1.0,40-40,1.0,,microscope,microscope,40.0,40.0,microscope12,microscope11,40.0,20.0,usbdigitalmicroscope1_small1.jpg,konus5604microscope.jpg,/static/Category_learning/Stimuli/Experimental_stims/microscope/usbdigitalmicroscope1_small1.jpg,/static/Category_learning/Stimuli/Experimental_stims/microscope/konus5604microscope.jpg,1.0,microscope,microscope,40.0,40.0,microscope12,microscope11,40.0,20.0,0.0,70.246,0.746,,,,,,
396,,confirmation,,html-keyboard-response,396,617398,0.0-1.0-78.0-0.0-1.0-0.0,0,0,23720,,,,,,76.0,,,,,,,,,,,,,,,,,,,,,,,,,,,,,,,,71.0,0.754,,,,,,
397,,isi,,html-keyboard-response,397,620403,0.0-1.0-78.0-0.0-2.0,0,0,23720,,,,,,,,,,,,,,,,,,,,,,,,,,,,,,,,,,,,,,74.0,3.0,,,,,,
398,,feedback,,html-keyboard-response,398,621406,0.0-1.0-78.0-0.0-3.0-0.0,0,0,23720,,,,,,76.0,,,,,,,,,,,,,,,,,,,,,,,,,,,,,,,,75.0,1.0,,,,,,
399,,iti,,html-keyboard-response,399,622409,0.0-1.0-78.0-0.0-5.0,0,0,23720,,,,,,,,,,,,,,,,,,,,,,,,,,,,,,,,,,,,,,76.0,1.0,,,,,,
400,,choice,,html-keyboard-response,400,623233,0.0-1.0-79.0-0.0-0.0,0,0,23720,,822.0,,,75.0,77.0,78.0,1500.0,1000.0,0.0,2.0,0.0,60-60,,,patio lounge chair,pen,60.0,60.0,patio lounge chair9,pen6,60.0,40.0,43-3.jpg,executive_pen2.jpg,/static/Category_learning/Stimuli/Experimental_stims/patio lounge chair/43-3.jpg,/static/Category_learning/Stimuli/Experimental_stims/pen/executive_pen2.jpg,0.0,pen,patio lounge chair,60.0,60.0,pen6,patio lounge chair9,40.0,60.0,0.0,76.822,0.822,,,,,,
401,,confirmation,,html-keyboard-response,401,623915,0.0-1.0-79.0-0.0-1.0-0.0,0,0,23720,,,,,,77.0,,,,,,,,,,,,,,,,,,,,,,,,,,,,,,,,77.5,0.678,,,,,,
402,,isi,,html-keyboard-response,402,625418,0.0-1.0-79.0-0.0-2.0,0,0,23720,,,,,,,,,,,,,,,,,,,,,,,,,,,,,,,,,,,,,,79.0,1.5,,,,,,
403,,feedback,,html-keyboard-response,403,626421,0.0-1.0-79.0-0.0-3.0-0.0,0,0,23720,,,,,,77.0,,,,,,,,,,,,,,,,,,,,,,,,,,,,,,,,80.0,1.0,,,,,,
404,,iti,,html-keyboard-response,404,627424,0.0-1.0-79.0-0.0-5.0,0,0,23720,,,,,,,,,,,,,,,,,,,,,,,,,,,,,,,,,,,,,,81.0,1.0,,,,,,
405,,choice,,html-keyboard-response,405,628304,0.0-1.0-80.0-0.0-0.0,0,0,23720,,877.0,,,75.0,78.0,79.0,1000.0,2000.0,0.0,2.0,1.0,40-40,1.0,,license plate,license plate,40.0,40.0,license plate12,license plate1,20.0,40.0,TurtleLicensePlate.jpg,il-423-3784.jpg,/static/Category_learning/Stimuli/Experimental_stims/license plate/TurtleLicensePlate.jpg,/static/Category_learning/Stimuli/Experimental_stims/license plate/il-423-3784.jpg,0.0,license plate,license plate,40.0,40.0,license plate1,license plate12,40.0,20.0,0.0,81.877,0.877,,,,,,
406,,confirmation,,html-keyboard-response,406,628931,0.0-1.0-80.0-0.0-1.0-0.0,0,0,23720,,,,,,78.0,,,,,,,,,,,,,,,,,,,,,,,,,,,,,,,,82.5,0.623,,,,,,
407,,isi,,html-keyboard-response,407,629934,0.0-1.0-80.0-0.0-2.0,0,0,23720,,,,,,,,,,,,,,,,,,,,,,,,,,,,,,,,,,,,,,83.5,1.0,,,,,,
408,,feedback,,html-keyboard-response,408,630937,0.0-1.0-80.0-0.0-3.0-0.0,0,0,23720,,,,,,78.0,,,,,,,,,,,,,,,,,,,,,,,,,,,,,,,,84.5,1.0,,,,,,
409,,iti,,html-keyboard-response,409,632944,0.0-1.0-80.0-0.0-5.0,0,0,23720,,,,,,,,,,,,,,,,,,,,,,,,,,,,,,,,,,,,,,86.5,2.0,,,,,,
410,,choice,,html-keyboard-response,410,633810,0.0-1.0-81.0-0.0-0.0,0,0,23720,,863.0,,,68.0,79.0,80.0,2000.0,1000.0,0.0,2.0,0.0,20-60,,0.0,bowl,necklace,20.0,60.0,bowl7,necklace4,20.0,40.0,Abowl54.jpg,emerald_diamond_necklace.jpg,/static/Category_learning/Stimuli/Experimental_stims/bowl/Abowl54.jpg,/static/Category_learning/Stimuli/Experimental_stims/necklace/emerald_diamond_necklace.jpg,1.0,bowl,necklace,20.0,60.0,bowl7,necklace4,20.0,40.0,0.0,87.363,0.863,,,,,,
411,,confirmation,,html-keyboard-response,411,634450,0.0-1.0-81.0-0.0-1.0-0.0,0,0,23720,,,,,,79.0,,,,,,,,,,,,,,,,,,,,,,,,,,,,,,,,88.0,0.637,,,,,,
412,,isi,,html-keyboard-response,412,636452,0.0-1.0-81.0-0.0-2.0,0,0,23720,,,,,,,,,,,,,,,,,,,,,,,,,,,,,,,,,,,,,,90.0,2.0,,,,,,
413,,feedback,,html-keyboard-response,413,637456,0.0-1.0-81.0-0.0-3.0-0.0,0,0,23720,,,,,,79.0,,,,,,,,,,,,,,,,,,,,,,,,,,,,,,,,91.0,1.0,,,,,,
414,,iti,,html-keyboard-response,414,638459,0.0-1.0-81.0-0.0-5.0,0,0,23720,,,,,,,,,,,,,,,,,,,,,,,,,,,,,,,,,,,,,,92.0,1.0,,,,,,
415,,choice,,html-keyboard-response,415,639247,0.0-1.0-82.0-0.0-0.0,0,0,23720,,786.0,,,75.0,80.0,81.0,1500.0,1000.0,0.0,2.0,0.0,20-80,,1.0,vase,bongo,80.0,20.0,vase11,bongo12,100.0,40.0,Ethnic_Ceramic_Vase.jpg,26686609.thl.jpg,/static/Category_learning/Stimuli/Experimental_stims/vase/Ethnic_Ceramic_Vase.jpg,/static/Category_learning/Stimuli/Experimental_stims/bongo/26686609.thl.jpg,0.0,bongo,vase,20.0,80.0,bongo12,vase11,40.0,100.0,0.0,92.786,0.786,,,,,,
416,,confirmation,,html-keyboard-response,416,639965,0.0-1.0-82.0-0.0-1.0-0.0,0,0,23720,,,,,,80.0,,,,,,,,,,,,,,,,,,,,,,,,,,,,,,,,93.5,0.714,,,,,,
417,,isi,,html-keyboard-response,417,641468,0.0-1.0-82.0-0.0-2.0,0,0,23720,,,,,,,,,,,,,,,,,,,,,,,,,,,,,,,,,,,,,,95.0,1.5,,,,,,
418,,feedback,,html-keyboard-response,418,642471,0.0-1.0-82.0-0.0-3.0-0.0,0,0,23720,,,,,,80.0,,,,,,,,,,,,,,,,,,,,,,,,,,,,,,,,96.0,1.0,,,,,,
419,,iti,,html-keyboard-response,419,643474,0.0-1.0-82.0-0.0-5.0,0,0,23720,,,,,,,,,,,,,,,,,,,,,,,,,,,,,,,,,,,,,,97.0,1.0,,,,,,
420,,choice,,html-keyboard-response,420,644876,0.0-1.0-83.0-0.0-0.0,0,0,23720,,1399.0,,,68.0,81.0,82.0,1000.0,1500.0,0.0,2.0,0.0,40-80,,1.0,yarn,makeup compact,80.0,40.0,yarn10,makeup compact7,60.0,20.0,revelation-yarn.jpg,P187133_hero.jpg,/static/Category_learning/Stimuli/Experimental_stims/yarn/revelation-yarn.jpg,/static/Category_learning/Stimuli/Experimental_stims/makeup compact/P187133_hero.jpg,1.0,yarn,makeup compact,80.0,40.0,yarn10,makeup compact7,60.0,20.0,0.0,98.399,1.399,,,,,,
421,,confirmation,,html-keyboard-response,421,644979,0.0-1.0-83.0-0.0-1.0-0.0,0,0,23720,,,,,,81.0,,,,,,,,,,,,,,,,,,,,,,,,,,,,,,,,98.5,0.101,,,,,,
422,,isi,,html-keyboard-response,422,645982,0.0-1.0-83.0-0.0-2.0,0,0,23720,,,,,,,,,,,,,,,,,,,,,,,,,,,,,,,,,,,,,,99.5,1.0,,,,,,
423,,feedback,,html-keyboard-response,423,646984,0.0-1.0-83.0-0.0-3.0-0.0,0,0,23720,,,,,,81.0,,,,,,,,,,,,,,,,,,,,,,,,,,,,,,,,100.5,1.0,,,,,,
424,,iti,,html-keyboard-response,424,648487,0.0-1.0-83.0-0.0-5.0,0,0,23720,,,,,,,,,,,,,,,,,,,,,,,,,,,,,,,,,,,,,,102.0,1.5,,,,,,
425,,choice,,html-keyboard-response,425,649306,0.0-1.0-84.0-0.0-0.0,0,0,23720,,817.0,,,75.0,82.0,83.0,1000.0,2000.0,0.0,2.0,1.0,40-40,1.0,,motorcycle,motorcycle,40.0,40.0,motorcycle12,motorcycle8,40.0,20.0,motorcycle14.jpg,Motorcycle903425j2.jpg,/static/Category_learning/Stimuli/Experimental_stims/motorcycle/motorcycle14.jpg,/static/Category_learning/Stimuli/Experimental_stims/motorcycle/Motorcycle903425j2.jpg,0.0,motorcycle,motorcycle,40.0,40.0,motorcycle8,motorcycle12,20.0,40.0,0.0,102.817,0.817,,,,,,
426,,confirmation,,html-keyboard-response,426,649993,0.0-1.0-84.0-0.0-1.0-0.0,0,0,23720,,,,,,82.0,,,,,,,,,,,,,,,,,,,,,,,,,,,,,,,,103.5,0.683,,,,,,
427,,isi,,html-keyboard-response,427,650996,0.0-1.0-84.0-0.0-2.0,0,0,23720,,,,,,,,,,,,,,,,,,,,,,,,,,,,,,,,,,,,,,104.5,1.0,,,,,,
428,,feedback,,html-keyboard-response,428,652000,0.0-1.0-84.0-0.0-3.0-0.0,0,0,23720,,,,,,82.0,,,,,,,,,,,,,,,,,,,,,,,,,,,,,,,,105.5,1.0,,,,,,
429,,iti,,html-keyboard-response,429,654002,0.0-1.0-84.0-0.0-5.0,0,0,23720,,,,,,,,,,,,,,,,,,,,,,,,,,,,,,,,,,,,,,107.5,2.0,,,,,,
430,,choice,,html-keyboard-response,430,654985,0.0-1.0-85.0-0.0-0.0,0,0,23720,,981.0,,,68.0,83.0,84.0,1500.0,1000.0,0.0,2.0,0.0,20-60,,1.0,sofa,door knob,60.0,20.0,sofa14,door knob3,40.0,40.0,HENRY-Sofa-falg8068-05-72X34X34.jpg,020f7ec6-df08-40fa-b3a5-0dcfb762f085_4.jpg,/static/Category_learning/Stimuli/Experimental_stims/sofa/HENRY-Sofa-falg8068-05-72X34X34.jpg,/static/Category_learning/Stimuli/Experimental_stims/door knob/020f7ec6-df08-40fa-b3a5-0dcfb762f085_4.jpg,1.0,sofa,door knob,60.0,20.0,sofa14,door knob3,40.0,40.0,0.0,108.481,0.981,,,,,,
431,,confirmation,,html-keyboard-response,431,655508,0.0-1.0-85.0-0.0-1.0-0.0,0,0,23720,,,,,,83.0,,,,,,,,,,,,,,,,,,,,,,,,,,,,,,,,109.0,0.519,,,,,,
432,,isi,,html-keyboard-response,432,657012,0.0-1.0-85.0-0.0-2.0,0,0,23720,,,,,,,,,,,,,,,,,,,,,,,,,,,,,,,,,,,,,,110.5,1.5,,,,,,
433,,feedback,,html-keyboard-response,433,658015,0.0-1.0-85.0-0.0-3.0-0.0,0,0,23720,,,,,,83.0,,,,,,,,,,,,,,,,,,,,,,,,,,,,,,,,111.5,1.0,,,,,,
434,,iti,,html-keyboard-response,434,659018,0.0-1.0-85.0-0.0-5.0,0,0,23720,,,,,,,,,,,,,,,,,,,,,,,,,,,,,,,,,,,,,,112.5,1.0,,,,,,
435,,choice,,html-keyboard-response,435,659803,0.0-1.0-86.0-0.0-0.0,0,0,23720,,782.0,,,75.0,84.0,85.0,3000.0,1000.0,0.0,2.0,1.0,60-60,1.0,,sofa,sofa,60.0,60.0,sofa4,sofa14,40.0,40.0,ALOVSEA15.jpg,HENRY-Sofa-falg8068-05-72X34X34.jpg,/static/Category_learning/Stimuli/Experimental_stims/sofa/ALOVSEA15.jpg,/static/Category_learning/Stimuli/Experimental_stims/sofa/HENRY-Sofa-falg8068-05-72X34X34.jpg,0.0,sofa,sofa,60.0,60.0,sofa14,sofa4,40.0,40.0,0.0,113.282,0.782,,,,,,
436,,confirmation,,html-keyboard-response,436,660524,0.0-1.0-86.0-0.0-1.0-0.0,0,0,23720,,,,,,84.0,,,,,,,,,,,,,,,,,,,,,,,,,,,,,,,,114.0,0.718,,,,,,
437,,isi,,html-keyboard-response,437,663527,0.0-1.0-86.0-0.0-2.0,0,0,23720,,,,,,,,,,,,,,,,,,,,,,,,,,,,,,,,,,,,,,117.0,3.0,,,,,,
438,,feedback,,html-keyboard-response,438,664529,0.0-1.0-86.0-0.0-3.0-0.0,0,0,23720,,,,,,84.0,,,,,,,,,,,,,,,,,,,,,,,,,,,,,,,,118.0,1.0,,,,,,
439,,iti,,html-keyboard-response,439,665532,0.0-1.0-86.0-0.0-5.0,0,0,23720,,,,,,,,,,,,,,,,,,,,,,,,,,,,,,,,,,,,,,119.0,1.0,,,,,,
440,,choice,,html-keyboard-response,440,666756,0.0-1.0-87.0-0.0-0.0,0,0,23720,,1222.0,,,68.0,85.0,86.0,2000.0,1500.0,0.0,2.0,0.0,20-20,,,fan,bowl,20.0,20.0,fan3,bowl1,20.0,0.0,CFT401.jpg,ABOWLS6.jpg,/static/Category_learning/Stimuli/Experimental_stims/fan/CFT401.jpg,/static/Category_learning/Stimuli/Experimental_stims/bowl/ABOWLS6.jpg,1.0,fan,bowl,20.0,20.0,fan3,bowl1,20.0,0.0,0.0,120.222,1.222,,,,,,
441,,confirmation,,html-keyboard-response,441,667038,0.0-1.0-87.0-0.0-1.0-0.0,0,0,23720,,,,,,85.0,,,,,,,,,,,,,,,,,,,,,,,,,,,,,,,,120.5,0.278,,,,,,
442,,isi,,html-keyboard-response,442,669041,0.0-1.0-87.0-0.0-2.0,0,0,23720,,,,,,,,,,,,,,,,,,,,,,,,,,,,,,,,,,,,,,122.5,2.0,,,,,,
443,,feedback,,html-keyboard-response,443,670045,0.0-1.0-87.0-0.0-3.0-0.0,0,0,23720,,,,,,85.0,,,,,,,,,,,,,,,,,,,,,,,,,,,,,,,,123.5,1.0,,,,,,
444,,iti,,html-keyboard-response,444,671548,0.0-1.0-87.0-0.0-5.0,0,0,23720,,,,,,,,,,,,,,,,,,,,,,,,,,,,,,,,,,,,,,125.0,1.5,,,,,,
445,,choice,,html-keyboard-response,445,672699,0.0-1.0-88.0-0.0-0.0,0,0,23720,,1148.0,,,75.0,86.0,87.0,1000.0,1500.0,0.0,2.0,1.0,20-20,1.0,,fan,fan,20.0,20.0,fan11,fan3,0.0,20.0,n_sf.jpg,CFT401.jpg,/static/Category_learning/Stimuli/Experimental_stims/fan/n_sf.jpg,/static/Category_learning/Stimuli/Experimental_stims/fan/CFT401.jpg,0.0,fan,fan,20.0,20.0,fan3,fan11,20.0,0.0,0.0,126.148,1.148,,,,,,
446,,confirmation,,html-keyboard-response,446,673054,0.0-1.0-88.0-0.0-1.0-0.0,0,0,23720,,,,,,86.0,,,,,,,,,,,,,,,,,,,,,,,,,,,,,,,,126.5,0.352,,,,,,
447,,isi,,html-keyboard-response,447,674056,0.0-1.0-88.0-0.0-2.0,0,0,23720,,,,,,,,,,,,,,,,,,,,,,,,,,,,,,,,,,,,,,127.5,1.0,,,,,,
448,,feedback,,html-keyboard-response,448,675060,0.0-1.0-88.0-0.0-3.0-0.0,0,0,23720,,,,,,86.0,,,,,,,,,,,,,,,,,,,,,,,,,,,,,,,,128.5,1.0,,,,,,
449,,iti,,html-keyboard-response,449,676564,0.0-1.0-88.0-0.0-5.0,0,0,23720,,,,,,,,,,,,,,,,,,,,,,,,,,,,,,,,,,,,,,130.0,1.5,,,,,,
450,,choice,,html-keyboard-response,450,677400,0.0-1.0-89.0-0.0-0.0,0,0,23720,,835.0,,,68.0,87.0,88.0,1000.0,1000.0,0.0,2.0,0.0,40-60,,0.0,hammer,power strip,40.0,60.0,hammer7,power strip13,60.0,60.0,hammer01.jpg,01dccef1-d4b2-4d2e-a317-f2ed46b70b4b_400.jpg,/static/Category_learning/Stimuli/Experimental_stims/hammer/hammer01.jpg,/static/Category_learning/Stimuli/Experimental_stims/power strip/01dccef1-d4b2-4d2e-a317-f2ed46b70b4b_400.jpg,1.0,hammer,power strip,40.0,60.0,hammer7,power strip13,60.0,60.0,0.0,130.835,0.835,,,,,,
451,,confirmation,,html-keyboard-response,451,678069,0.0-1.0-89.0-0.0-1.0-0.0,0,0,23720,,,,,,87.0,,,,,,,,,,,,,,,,,,,,,,,,,,,,,,,,131.5,0.665,,,,,,
452,,isi,,html-keyboard-response,452,679073,0.0-1.0-89.0-0.0-2.0,0,0,23720,,,,,,,,,,,,,,,,,,,,,,,,,,,,,,,,,,,,,,132.5,1.0,,,,,,
453,,feedback,,html-keyboard-response,453,680077,0.0-1.0-89.0-0.0-3.0-0.0,0,0,23720,,,,,,87.0,,,,,,,,,,,,,,,,,,,,,,,,,,,,,,,,133.5,1.0,,,,,,
454,,iti,,html-keyboard-response,454,681080,0.0-1.0-89.0-0.0-5.0,0,0,23720,,,,,,,,,,,,,,,,,,,,,,,,,,,,,,,,,,,,,,134.5,1.0,,,,,,
455,,choice,,html-keyboard-response,455,681865,0.0-1.0-90.0-0.0-0.0,0,0,23720,,783.0,,,75.0,88.0,89.0,1500.0,3500.0,0.0,2.0,0.0,20-60,,0.0,baby carriage,poker card,20.0,60.0,baby carriage10,poker card7,0.0,80.0,peg_perego_uno_blu.jpg,22864416.thl.jpg,/static/Category_learning/Stimuli/Experimental_stims/baby carriage/peg_perego_uno_blu.jpg,/static/Category_learning/Stimuli/Experimental_stims/poker card/22864416.thl.jpg,0.0,poker card,baby carriage,60.0,20.0,poker card7,baby carriage10,80.0,0.0,0.0,135.283,0.783,,,,,,
456,,confirmation,,html-keyboard-response,456,682586,0.0-1.0-90.0-0.0-1.0-0.0,0,0,23720,,,,,,88.0,,,,,,,,,,,,,,,,,,,,,,,,,,,,,,,,136.0,0.717,,,,,,
457,,isi,,html-keyboard-response,457,684090,0.0-1.0-90.0-0.0-2.0,0,0,23720,,,,,,,,,,,,,,,,,,,,,,,,,,,,,,,,,,,,,,137.5,1.5,,,,,,
458,,feedback,,html-keyboard-response,458,685101,0.0-1.0-90.0-0.0-3.0-0.0,0,0,23720,,,,,,88.0,,,,,,,,,,,,,,,,,,,,,,,,,,,,,,,,138.5,1.0,,,,,,
459,,iti,,html-keyboard-response,459,688609,0.0-1.0-90.0-0.0-5.0,0,0,23720,,,,,,,,,,,,,,,,,,,,,,,,,,,,,,,,,,,,,,142.0,3.5,,,,,,
460,,choice,,html-keyboard-response,460,689386,0.0-1.0-91.0-0.0-0.0,0,0,23720,,774.0,,,68.0,89.0,90.0,1000.0,1000.0,0.0,2.0,0.0,40-80,,1.0,vase,motorcycle,80.0,40.0,vase1,motorcycle9,60.0,40.0,Avase114.jpg,speedbike.jpg,/static/Category_learning/Stimuli/Experimental_stims/vase/Avase114.jpg,/static/Category_learning/Stimuli/Experimental_stims/motorcycle/speedbike.jpg,1.0,vase,motorcycle,80.0,40.0,vase1,motorcycle9,60.0,40.0,0.0,142.774,0.774,,,,,,
461,,confirmation,,html-keyboard-response,461,690115,0.0-1.0-91.0-0.0-1.0-0.0,0,0,23720,,,,,,89.0,,,,,,,,,,,,,,,,,,,,,,,,,,,,,,,,143.5,0.726,,,,,,
462,,isi,,html-keyboard-response,462,691118,0.0-1.0-91.0-0.0-2.0,0,0,23720,,,,,,,,,,,,,,,,,,,,,,,,,,,,,,,,,,,,,,144.5,1.0,,,,,,
463,,feedback,,html-keyboard-response,463,692121,0.0-1.0-91.0-0.0-3.0-0.0,0,0,23720,,,,,,89.0,,,,,,,,,,,,,,,,,,,,,,,,,,,,,,,,145.5,1.0,,,,,,
464,,iti,,html-keyboard-response,464,693123,0.0-1.0-91.0-0.0-5.0,0,0,23720,,,,,,,,,,,,,,,,,,,,,,,,,,,,,,,,,,,,,,146.5,1.0,,,,,,
465,,choice,,html-keyboard-response,465,693746,0.0-1.0-92.0-0.0-0.0,0,0,23720,,622.0,,,75.0,90.0,91.0,3500.0,3500.0,0.0,2.0,0.0,80-80,,,tent,train,80.0,80.0,tent9,train14,60.0,100.0,Red Canyon Tent.jpg,images-products-childcraft-g83501.jpg,/static/Category_learning/Stimuli/Experimental_stims/tent/Red Canyon Tent.jpg,/static/Category_learning/Stimuli/Experimental_stims/train/images-products-childcraft-g83501.jpg,0.0,train,tent,80.0,80.0,train14,tent9,100.0,60.0,0.0,147.122,0.622,,,,,,
466,,confirmation,,html-keyboard-response,466,694628,0.0-1.0-92.0-0.0-1.0-0.0,0,0,23720,,,,,,90.0,,,,,,,,,,,,,,,,,,,,,,,,,,,,,,,,148.0,0.878,,,,,,
467,,isi,,html-keyboard-response,467,698130,0.0-1.0-92.0-0.0-2.0,0,0,23720,,,,,,,,,,,,,,,,,,,,,,,,,,,,,,,,,,,,,,151.5,3.5,,,,,,
468,,feedback,,html-keyboard-response,468,699134,0.0-1.0-92.0-0.0-3.0-0.0,0,0,23720,,,,,,90.0,,,,,,,,,,,,,,,,,,,,,,,,,,,,,,,,152.5,1.0,,,,,,
469,,iti,,html-keyboard-response,469,702637,0.0-1.0-92.0-0.0-5.0,0,0,23720,,,,,,,,,,,,,,,,,,,,,,,,,,,,,,,,,,,,,,156.0,3.5,,,,,,
470,,choice,,html-keyboard-response,470,703484,0.0-1.0-93.0-0.0-0.0,0,0,23720,,844.0,,,68.0,91.0,92.0,1000.0,1000.0,0.0,2.0,0.0,20-60,,1.0,patio lounge chair,door knob,60.0,20.0,patio lounge chair5,door knob6,40.0,20.0,Steel_Assembling_Lounge.jpg,30fdcb17-b0fd-4f26-8cd8-11adde46fb79_4.jpg,/static/Category_learning/Stimuli/Experimental_stims/patio lounge chair/Steel_Assembling_Lounge.jpg,/static/Category_learning/Stimuli/Experimental_stims/door knob/30fdcb17-b0fd-4f26-8cd8-11adde46fb79_4.jpg,1.0,patio lounge chair,door knob,60.0,20.0,patio lounge chair5,door knob6,40.0,20.0,0.0,156.844,0.844,,,,,,
471,,confirmation,,html-keyboard-response,471,704144,0.0-1.0-93.0-0.0-1.0-0.0,0,0,23720,,,,,,91.0,,,,,,,,,,,,,,,,,,,,,,,,,,,,,,,,157.5,0.656,,,,,,
472,,isi,,html-keyboard-response,472,705147,0.0-1.0-93.0-0.0-2.0,0,0,23720,,,,,,,,,,,,,,,,,,,,,,,,,,,,,,,,,,,,,,158.5,1.0,,,,,,
473,,feedback,,html-keyboard-response,473,706150,0.0-1.0-93.0-0.0-3.0-0.0,0,0,23720,,,,,,91.0,,,,,,,,,,,,,,,,,,,,,,,,,,,,,,,,159.5,1.0,,,,,,
474,,iti,,html-keyboard-response,474,707153,0.0-1.0-93.0-0.0-5.0,0,0,23720,,,,,,,,,,,,,,,,,,,,,,,,,,,,,,,,,,,,,,160.5,1.0,,,,,,
475,,choice,,html-keyboard-response,475,708070,0.0-1.0-94.0-0.0-0.0,0,0,23720,,915.0,,,68.0,92.0,93.0,1000.0,1000.0,0.0,2.0,1.0,20-20,1.0,,bongo,bongo,20.0,20.0,bongo3,bongo12,20.0,40.0,26390697.thl.jpg,26686609.thl.jpg,/static/Category_learning/Stimuli/Experimental_stims/bongo/26390697.thl.jpg,/static/Category_learning/Stimuli/Experimental_stims/bongo/26686609.thl.jpg,1.0,bongo,bongo,20.0,20.0,bongo3,bongo12,20.0,40.0,0.0,161.415,0.915,,,,,,
476,,confirmation,,html-keyboard-response,476,708659,0.0-1.0-94.0-0.0-1.0-0.0,0,0,23720,,,,,,92.0,,,,,,,,,,,,,,,,,,,,,,,,,,,,,,,,162.0,0.585,,,,,,
477,,isi,,html-keyboard-response,477,709663,0.0-1.0-94.0-0.0-2.0,0,0,23720,,,,,,,,,,,,,,,,,,,,,,,,,,,,,,,,,,,,,,163.0,1.0,,,,,,
478,,feedback,,html-keyboard-response,478,710667,0.0-1.0-94.0-0.0-3.0-0.0,0,0,23720,,,,,,92.0,,,,,,,,,,,,,,,,,,,,,,,,,,,,,,,,164.0,1.0,,,,,,
479,,iti,,html-keyboard-response,479,711670,0.0-1.0-94.0-0.0-5.0,0,0,23720,,,,,,,,,,,,,,,,,,,,,,,,,,,,,,,,,,,,,,165.0,1.0,,,,,,
480,,choice,,html-keyboard-response,480,712864,0.0-1.0-95.0-0.0-0.0,0,0,23720,,1191.0,,,75.0,93.0,94.0,2000.0,1500.0,0.0,2.0,0.0,40-80,,0.0,hat,yarn,40.0,80.0,hat3,yarn13,20.0,100.0,Astrawhat49.jpg,cool blue 2 hpy 2 sml.jpg,/static/Category_learning/Stimuli/Experimental_stims/hat/Astrawhat49.jpg,/static/Category_learning/Stimuli/Experimental_stims/yarn/cool blue 2 hpy 2 sml.jpg,0.0,yarn,hat,80.0,40.0,yarn13,hat3,100.0,20.0,0.0,166.191,1.191,,,,,,
481,,confirmation,,html-keyboard-response,481,713177,0.0-1.0-95.0-0.0-1.0-0.0,0,0,23720,,,,,,93.0,,,,,,,,,,,,,,,,,,,,,,,,,,,,,,,,166.5,0.309,,,,,,
482,,isi,,html-keyboard-response,482,715181,0.0-1.0-95.0-0.0-2.0,0,0,23720,,,,,,,,,,,,,,,,,,,,,,,,,,,,,,,,,,,,,,168.5,2.0,,,,,,
483,,feedback,,html-keyboard-response,483,716184,0.0-1.0-95.0-0.0-3.0-0.0,0,0,23720,,,,,,93.0,,,,,,,,,,,,,,,,,,,,,,,,,,,,,,,,169.5,1.0,,,,,,
484,,iti,,html-keyboard-response,484,717687,0.0-1.0-95.0-0.0-5.0,0,0,23720,,,,,,,,,,,,,,,,,,,,,,,,,,,,,,,,,,,,,,171.0,1.5,,,,,,
