,success,ttype,start_time,trial_type,trial_index,time_elapsed,internal_node_id,warning,missed_checkup,PID,view_history,rt,responses,repeat_instructions,key_press,index,trial_num,isi,iti,is_practice,block,old_trial,pair_type,within_category,high_cat_on_left,left_category,right_category,left_category_value,right_category_value,left_exemplar,right_exemplar,left_exemplar_value,right_exemplar_value,left_img,right_img,left_img_path,right_img_path,left_chosen,chosen_category,unchosen_category,chosen_category_value,unchosen_category_value,chosen_exemplar,unchosen_exemplar,chosen_exemplar_value,unchosen_exemplar_value,no_response,onset,duration,end_practice,total_bonus_tally,category,category_group_value,category_value_response
0,True,full_screen,d06022022hr1435,fullscreen,0,2584,0.0-0.0,0,0,96878,,,,,,,,,,,,,,,,,,,,,,,,,,,,,,,,,,,,,,,,,,,,
1,,category_learning_instructions,,instructions,1,4841,0.0-1.0-0.0-0.0,0,0,96878,"[{""page_index"":0,""viewing_time"":1173},{""page_index"":1,""viewing_time"":220},{""page_index"":2,""viewing_time"":172},{""page_index"":3,""viewing_time"":188},{""page_index"":4,""viewing_time"":173},{""page_index"":5,""viewing_time"":155},{""page_index"":6,""viewing_time"":173}]",2254.0,,,,,,,,,,,,,,,,,,,,,,,,,,,,,,,,,,,,,,,,,,
2,,category_learning_comprehension_check,,survey-multi-choice,2,10179,0.0-1.0-0.0-1.0,0,0,96878,,5333.0,"{""Q0"":""True"",""Q1"":""True"",""Q2"":""Stay the same"",""Q3"":""D for left and K for right""}",0.0,,,,,,,,,,,,,,,,,,,,,,,,,,,,,,,,,,,,,,,,
3,,,,html-keyboard-response,3,11411,0.0-1.0-1.0,0,0,96878,,1229.0,,,68.0,,,,,,,,,,,,,,,,,,,,,,,,,,,,,,,,,,,,,,,
4,,choice,,html-keyboard-response,4,11590,0.0-1.0-2.0-0.0-0.0,0,0,96878,,175.0,,,68.0,0.0,0.0,1500.0,1000.0,1.0,0.0,0.0,20-80,,0.0,bagel,dumbbell,20.0,80.0,bagel1,dumbbell1,0.0,80.0,bagels_pumpernickel_large.jpg,31B64EN68AL._AA280_.jpg,/static/Category_learning/Stimuli/Practice_stims/bagel/bagels_pumpernickel_large.jpg,/static/Category_learning/Stimuli/Practice_stims/dumbbell/31B64EN68AL._AA280_.jpg,1.0,bagel,dumbbell,20.0,80.0,bagel1,dumbbell1,0.0,80.0,0.0,0.175,0.175,,,,,
5,,confirmation,,html-keyboard-response,5,12920,0.0-1.0-2.0-0.0-1.0-0.0,0,0,96878,,,,,,0.0,,,,,,,,,,,,,,,,,,,,,,,,,,,,,,,,1.5,1.325,,,,,
6,,isi,,html-keyboard-response,6,13027,0.0-1.0-2.0-0.0-2.0,0,0,96878,,,,,,,,,,,,,,,,,,,,,,,,,,,,,,,,,,,,,,3.0,1.5,,,,,
7,,feedback,,html-keyboard-response,7,14035,0.0-1.0-2.0-0.0-3.0-0.0,0,0,96878,,,,,,0.0,,,,,,,,,,,,,,,,,,,,,,,,,,,,,,,,4.0,1.0,,,,,
8,,iti,,html-keyboard-response,8,14141,0.0-1.0-2.0-0.0-5.0,0,0,96878,,,,,,,,,,,,,,,,,,,,,,,,,,,,,,,,,,,,,,5.0,1.0,,,,,
9,,choice,,html-keyboard-response,9,14198,0.0-1.0-3.0-0.0-0.0,0,0,96878,,53.0,,,75.0,1.0,1.0,3000.0,1500.0,1.0,0.0,0.0,20-40,,1.0,calculator,bagel,40.0,20.0,calculator2,bagel2,20.0,20.0,22829064.thl.jpg,bagels_cinnraisin_large.jpg,/static/Category_learning/Stimuli/Practice_stims/calculator/22829064.thl.jpg,/static/Category_learning/Stimuli/Practice_stims/bagel/bagels_cinnraisin_large.jpg,0.0,bagel,calculator,20.0,40.0,bagel2,calculator2,20.0,20.0,0.0,5.053,0.053,,,,,
10,,confirmation,,html-keyboard-response,10,15650,0.0-1.0-3.0-0.0-1.0-0.0,0,0,96878,,,,,,1.0,,,,,,,,,,,,,,,,,,,,,,,,,,,,,,,,6.5,1.447,,,,,
11,,isi,,html-keyboard-response,11,15755,0.0-1.0-3.0-0.0-2.0,0,0,96878,,,,,,,,,,,,,,,,,,,,,,,,,,,,,,,,,,,,,,9.5,3.0,,,,,
12,,feedback,,html-keyboard-response,12,16760,0.0-1.0-3.0-0.0-3.0-0.0,0,0,96878,,,,,,1.0,,,,,,,,,,,,,,,,,,,,,,,,,,,,,,,,10.5,1.0,,,,,
13,,iti,,html-keyboard-response,13,16867,0.0-1.0-3.0-0.0-5.0,0,0,96878,,,,,,,,,,,,,,,,,,,,,,,,,,,,,,,,,,,,,,12.0,1.5,,,,,
14,,choice,,html-keyboard-response,14,17105,0.0-1.0-4.0-0.0-0.0,0,0,96878,,235.0,,,75.0,2.0,2.0,2000.0,3000.0,1.0,0.0,0.0,60-80,,0.0,clock,dumbbell,60.0,80.0,clock2,dumbbell2,60.0,100.0,26373355.thl.jpg,31K8MR6TMBL._SS500_.jpg,/static/Category_learning/Stimuli/Practice_stims/clock/26373355.thl.jpg,/static/Category_learning/Stimuli/Practice_stims/dumbbell/31K8MR6TMBL._SS500_.jpg,0.0,dumbbell,clock,80.0,60.0,dumbbell2,clock2,100.0,60.0,0.0,12.235,0.235,,,,,
15,,confirmation,,html-keyboard-response,15,18375,0.0-1.0-4.0-0.0-1.0-0.0,0,0,96878,,,,,,2.0,,,,,,,,,,,,,,,,,,,,,,,,,,,,,,,,13.5,1.265,,,,,
16,,isi,,html-keyboard-response,16,18483,0.0-1.0-4.0-0.0-2.0,0,0,96878,,,,,,,,,,,,,,,,,,,,,,,,,,,,,,,,,,,,,,15.5,2.0,,,,,
17,,feedback,,html-keyboard-response,17,19491,0.0-1.0-4.0-0.0-3.0-0.0,0,0,96878,,,,,,2.0,,,,,,,,,,,,,,,,,,,,,,,,,,,,,,,,16.5,1.0,,,,,
18,,iti,,html-keyboard-response,18,19597,0.0-1.0-4.0-0.0-5.0,0,0,96878,,,,,,,,,,,,,,,,,,,,,,,,,,,,,,,,,,,,,,19.5,3.0,,,,,
19,,choice,,html-keyboard-response,19,21105,0.0-1.0-5.0-0.0-0.0,0,0,96878,,,,,,3.0,3.0,1000.0,2000.0,1.0,0.0,0.0,40-80,,0.0,calculator,clock,40.0,60.0,calculator1,clock1,40.0,40.0,22829184.thl.jpg,Aalarmclock2.jpg,/static/Category_learning/Stimuli/Practice_stims/calculator/22829184.thl.jpg,/static/Category_learning/Stimuli/Practice_stims/clock/Aalarmclock2.jpg,,,,,,,,,,1.0,21.0,1.5,,,,,
20,,isi,,html-keyboard-response,20,21213,0.0-1.0-5.0-0.0-2.0,0,0,96878,,,,,,,,,,,,,,,,,,,,,,,,,,,,,,,,,,,,,,22.0,1.0,,,,,
21,,no_response,,html-keyboard-response,21,22221,0.0-1.0-5.0-0.0-4.0-0.0,0,0,96878,,,,,,,,,,,,,,,,,,,,,,,,,,,,,,,,,,,,,,23.0,1.0,,,,,
22,,iti,,html-keyboard-response,22,22328,0.0-1.0-5.0-0.0-5.0,0,0,96878,,,,,,,,,,,,,,,,,,,,,,,,,,,,,,,,,,,,,,25.0,2.0,,,,,
23,,choice,,html-keyboard-response,23,23832,0.0-1.0-5.0-0.1-0.1,0,0,96878,,,,,,3.0,3.0,1000.0,2000.0,1.0,0.0,0.0,40-80,,0.0,calculator,clock,40.0,60.0,calculator1,clock1,40.0,40.0,22829184.thl.jpg,Aalarmclock2.jpg,/static/Category_learning/Stimuli/Practice_stims/calculator/22829184.thl.jpg,/static/Category_learning/Stimuli/Practice_stims/clock/Aalarmclock2.jpg,,,,,,,,,,1.0,26.5,1.5,,,,,
24,,isi,,html-keyboard-response,24,23938,0.0-1.0-5.0-0.1-2.1,0,0,96878,,,,,,,,,,,,,,,,,,,,,,,,,,,,,,,,,,,,,,27.5,1.0,,,,,
25,,no_response,,html-keyboard-response,25,24943,0.0-1.0-5.0-0.1-4.1-0.1,0,0,96878,,,,,,,,,,,,,,,,,,,,,,,,,,,,,,,,,,,,,,28.5,1.0,,,,,
26,,iti,,html-keyboard-response,26,25048,0.0-1.0-5.0-0.1-5.1,0,0,96878,,,,,,,,,,,,,,,,,,,,,,,,,,,,,,,,,,,,,,30.5,2.0,,,,,
27,,choice,,html-keyboard-response,27,26552,0.0-1.0-5.0-0.2-0.2,0,0,96878,,,,,,3.0,3.0,1000.0,2000.0,1.0,0.0,0.0,40-80,,0.0,calculator,clock,40.0,60.0,calculator1,clock1,40.0,40.0,22829184.thl.jpg,Aalarmclock2.jpg,/static/Category_learning/Stimuli/Practice_stims/calculator/22829184.thl.jpg,/static/Category_learning/Stimuli/Practice_stims/clock/Aalarmclock2.jpg,,,,,,,,,,1.0,32.0,1.5,,,,,
28,,isi,,html-keyboard-response,28,26658,0.0-1.0-5.0-0.2-2.2,0,0,96878,,,,,,,,,,,,,,,,,,,,,,,,,,,,,,,,,,,,,,33.0,1.0,,,,,
29,,no_response,,html-keyboard-response,29,27661,0.0-1.0-5.0-0.2-4.2-0.2,0,0,96878,,,,,,,,,,,,,,,,,,,,,,,,,,,,,,,,,,,,,,34.0,1.0,,,,,
30,,iti,,html-keyboard-response,30,27767,0.0-1.0-5.0-0.2-5.2,0,0,96878,,,,,,,,,,,,,,,,,,,,,,,,,,,,,,,,,,,,,,36.0,2.0,,,,,
31,,choice,,html-keyboard-response,31,29271,0.0-1.0-5.0-0.3-0.3,0,0,96878,,,,,,3.0,3.0,1000.0,2000.0,1.0,0.0,0.0,40-80,,0.0,calculator,clock,40.0,60.0,calculator1,clock1,40.0,40.0,22829184.thl.jpg,Aalarmclock2.jpg,/static/Category_learning/Stimuli/Practice_stims/calculator/22829184.thl.jpg,/static/Category_learning/Stimuli/Practice_stims/clock/Aalarmclock2.jpg,,,,,,,,,,1.0,37.5,1.5,,,,,
32,,isi,,html-keyboard-response,32,29377,0.0-1.0-5.0-0.3-2.3,0,0,96878,,,,,,,,,,,,,,,,,,,,,,,,,,,,,,,,,,,,,,38.5,1.0,,,,,
33,,no_response,,html-keyboard-response,33,30380,0.0-1.0-5.0-0.3-4.3-0.3,0,0,96878,,,,,,,,,,,,,,,,,,,,,,,,,,,,,,,,,,,,,,39.5,1.0,,,,,
34,,iti,,html-keyboard-response,34,30483,0.0-1.0-5.0-0.3-5.3,0,0,96878,,,,,,,,,,,,,,,,,,,,,,,,,,,,,,,,,,,,,,41.5,2.0,,,,,
35,,choice,,html-keyboard-response,35,31987,0.0-1.0-5.0-0.4-0.4,0,0,96878,,,,,,3.0,3.0,1000.0,2000.0,1.0,0.0,0.0,40-80,,0.0,calculator,clock,40.0,60.0,calculator1,clock1,40.0,40.0,22829184.thl.jpg,Aalarmclock2.jpg,/static/Category_learning/Stimuli/Practice_stims/calculator/22829184.thl.jpg,/static/Category_learning/Stimuli/Practice_stims/clock/Aalarmclock2.jpg,,,,,,,,,,1.0,43.0,1.5,,,,,
36,,isi,,html-keyboard-response,36,32093,0.0-1.0-5.0-0.4-2.4,0,0,96878,,,,,,,,,,,,,,,,,,,,,,,,,,,,,,,,,,,,,,44.0,1.0,,,,,
37,,no_response,,html-keyboard-response,37,33096,0.0-1.0-5.0-0.4-4.4-0.4,0,0,96878,,,,,,,,,,,,,,,,,,,,,,,,,,,,,,,,,,,,,,45.0,1.0,,,,,
38,,iti,,html-keyboard-response,38,33202,0.0-1.0-5.0-0.4-5.4,0,0,96878,,,,,,,,,,,,,,,,,,,,,,,,,,,,,,,,,,,,,,47.0,2.0,,,,,
39,,choice,,html-keyboard-response,39,34707,0.0-1.0-5.0-0.5-0.5,0,0,96878,,,,,,3.0,3.0,1000.0,2000.0,1.0,0.0,0.0,40-80,,0.0,calculator,clock,40.0,60.0,calculator1,clock1,40.0,40.0,22829184.thl.jpg,Aalarmclock2.jpg,/static/Category_learning/Stimuli/Practice_stims/calculator/22829184.thl.jpg,/static/Category_learning/Stimuli/Practice_stims/clock/Aalarmclock2.jpg,,,,,,,,,,1.0,48.5,1.5,,,,,
40,,isi,,html-keyboard-response,40,34812,0.0-1.0-5.0-0.5-2.5,0,0,96878,,,,,,,,,,,,,,,,,,,,,,,,,,,,,,,,,,,,,,49.5,1.0,,,,,
41,,no_response,,html-keyboard-response,41,35815,0.0-1.0-5.0-0.5-4.5-0.5,0,0,96878,,,,,,,,,,,,,,,,,,,,,,,,,,,,,,,,,,,,,,50.5,1.0,,,,,
42,,iti,,html-keyboard-response,42,35918,0.0-1.0-5.0-0.5-5.5,0,0,96878,,,,,,,,,,,,,,,,,,,,,,,,,,,,,,,,,,,,,,52.5,2.0,,,,,
43,,choice,,html-keyboard-response,43,37423,0.0-1.0-5.0-0.6-0.6,0,0,96878,,,,,,3.0,3.0,1000.0,2000.0,1.0,0.0,0.0,40-80,,0.0,calculator,clock,40.0,60.0,calculator1,clock1,40.0,40.0,22829184.thl.jpg,Aalarmclock2.jpg,/static/Category_learning/Stimuli/Practice_stims/calculator/22829184.thl.jpg,/static/Category_learning/Stimuli/Practice_stims/clock/Aalarmclock2.jpg,,,,,,,,,,1.0,54.0,1.5,,,,,
44,,isi,,html-keyboard-response,44,37526,0.0-1.0-5.0-0.6-2.6,0,0,96878,,,,,,,,,,,,,,,,,,,,,,,,,,,,,,,,,,,,,,55.0,1.0,,,,,
45,,no_response,,html-keyboard-response,45,38531,0.0-1.0-5.0-0.6-4.6-0.6,0,0,96878,,,,,,,,,,,,,,,,,,,,,,,,,,,,,,,,,,,,,,56.0,1.0,,,,,
46,,iti,,html-keyboard-response,46,38636,0.0-1.0-5.0-0.6-5.6,0,0,96878,,,,,,,,,,,,,,,,,,,,,,,,,,,,,,,,,,,,,,58.0,2.0,,,,,
47,,choice,,html-keyboard-response,47,40140,0.0-1.0-5.0-0.7-0.7,0,0,96878,,,,,,3.0,3.0,1000.0,2000.0,1.0,0.0,0.0,40-80,,0.0,calculator,clock,40.0,60.0,calculator1,clock1,40.0,40.0,22829184.thl.jpg,Aalarmclock2.jpg,/static/Category_learning/Stimuli/Practice_stims/calculator/22829184.thl.jpg,/static/Category_learning/Stimuli/Practice_stims/clock/Aalarmclock2.jpg,,,,,,,,,,1.0,59.5,1.5,,,,,
48,,isi,,html-keyboard-response,48,40248,0.0-1.0-5.0-0.7-2.7,0,0,96878,,,,,,,,,,,,,,,,,,,,,,,,,,,,,,,,,,,,,,60.5,1.0,,,,,
49,,no_response,,html-keyboard-response,49,41250,0.0-1.0-5.0-0.7-4.7-0.7,0,0,96878,,,,,,,,,,,,,,,,,,,,,,,,,,,,,,,,,,,,,,61.5,1.0,,,,,
50,,iti,,html-keyboard-response,50,41356,0.0-1.0-5.0-0.7-5.7,0,0,96878,,,,,,,,,,,,,,,,,,,,,,,,,,,,,,,,,,,,,,63.5,2.0,,,,,
51,,choice,,html-keyboard-response,51,42860,0.0-1.0-5.0-0.8-0.8,0,0,96878,,,,,,3.0,3.0,1000.0,2000.0,1.0,0.0,0.0,40-80,,0.0,calculator,clock,40.0,60.0,calculator1,clock1,40.0,40.0,22829184.thl.jpg,Aalarmclock2.jpg,/static/Category_learning/Stimuli/Practice_stims/calculator/22829184.thl.jpg,/static/Category_learning/Stimuli/Practice_stims/clock/Aalarmclock2.jpg,,,,,,,,,,1.0,65.0,1.5,,,,,
52,,isi,,html-keyboard-response,52,42965,0.0-1.0-5.0-0.8-2.8,0,0,96878,,,,,,,,,,,,,,,,,,,,,,,,,,,,,,,,,,,,,,66.0,1.0,,,,,
53,,no_response,,html-keyboard-response,53,43969,0.0-1.0-5.0-0.8-4.8-0.8,0,0,96878,,,,,,,,,,,,,,,,,,,,,,,,,,,,,,,,,,,,,,67.0,1.0,,,,,
54,,iti,,html-keyboard-response,54,44072,0.0-1.0-5.0-0.8-5.8,0,0,96878,,,,,,,,,,,,,,,,,,,,,,,,,,,,,,,,,,,,,,69.0,2.0,,,,,
55,,choice,,html-keyboard-response,55,45575,0.0-1.0-5.0-0.9-0.9,0,0,96878,,,,,,3.0,3.0,1000.0,2000.0,1.0,0.0,0.0,40-80,,0.0,calculator,clock,40.0,60.0,calculator1,clock1,40.0,40.0,22829184.thl.jpg,Aalarmclock2.jpg,/static/Category_learning/Stimuli/Practice_stims/calculator/22829184.thl.jpg,/static/Category_learning/Stimuli/Practice_stims/clock/Aalarmclock2.jpg,,,,,,,,,,1.0,70.5,1.5,,,,,
56,,isi,,html-keyboard-response,56,45677,0.0-1.0-5.0-0.9-2.9,0,0,96878,,,,,,,,,,,,,,,,,,,,,,,,,,,,,,,,,,,,,,71.5,1.0,,,,,
57,,no_response,,html-keyboard-response,57,46680,0.0-1.0-5.0-0.9-4.9-0.9,0,0,96878,,,,,,,,,,,,,,,,,,,,,,,,,,,,,,,,,,,,,,72.5,1.0,,,,,
58,,iti,,html-keyboard-response,58,46785,0.0-1.0-5.0-0.9-5.9,0,0,96878,,,,,,,,,,,,,,,,,,,,,,,,,,,,,,,,,,,,,,74.5,2.0,,,,,
59,,choice,,html-keyboard-response,59,48289,0.0-1.0-5.0-0.10-0.10,0,0,96878,,,,,,3.0,3.0,1000.0,2000.0,1.0,0.0,0.0,40-80,,0.0,calculator,clock,40.0,60.0,calculator1,clock1,40.0,40.0,22829184.thl.jpg,Aalarmclock2.jpg,/static/Category_learning/Stimuli/Practice_stims/calculator/22829184.thl.jpg,/static/Category_learning/Stimuli/Practice_stims/clock/Aalarmclock2.jpg,,,,,,,,,,1.0,76.0,1.5,,,,,
60,,isi,,html-keyboard-response,60,48391,0.0-1.0-5.0-0.10-2.10,0,0,96878,,,,,,,,,,,,,,,,,,,,,,,,,,,,,,,,,,,,,,77.0,1.0,,,,,
61,,no_response,,html-keyboard-response,61,49393,0.0-1.0-5.0-0.10-4.10-0.10,0,0,96878,,,,,,,,,,,,,,,,,,,,,,,,,,,,,,,,,,,,,,78.0,1.0,,,,,
62,,iti,,html-keyboard-response,62,49496,0.0-1.0-5.0-0.10-5.10,0,0,96878,,,,,,,,,,,,,,,,,,,,,,,,,,,,,,,,,,,,,,80.0,2.0,,,,,
63,,choice,,html-keyboard-response,63,51003,0.0-1.0-5.0-0.11-0.11,0,0,96878,,,,,,3.0,3.0,1000.0,2000.0,1.0,0.0,0.0,40-80,,0.0,calculator,clock,40.0,60.0,calculator1,clock1,40.0,40.0,22829184.thl.jpg,Aalarmclock2.jpg,/static/Category_learning/Stimuli/Practice_stims/calculator/22829184.thl.jpg,/static/Category_learning/Stimuli/Practice_stims/clock/Aalarmclock2.jpg,,,,,,,,,,1.0,81.5,1.5,,,,,
64,,isi,,html-keyboard-response,64,51105,0.0-1.0-5.0-0.11-2.11,0,0,96878,,,,,,,,,,,,,,,,,,,,,,,,,,,,,,,,,,,,,,82.5,1.0,,,,,
65,,no_response,,html-keyboard-response,65,52108,0.0-1.0-5.0-0.11-4.11-0.11,0,0,96878,,,,,,,,,,,,,,,,,,,,,,,,,,,,,,,,,,,,,,83.5,1.0,,,,,
66,,iti,,html-keyboard-response,66,52211,0.0-1.0-5.0-0.11-5.11,0,0,96878,,,,,,,,,,,,,,,,,,,,,,,,,,,,,,,,,,,,,,85.5,2.0,,,,,
67,,choice,,html-keyboard-response,67,52554,0.0-1.0-5.0-0.12-0.12,0,0,96878,,339.0,,,75.0,3.0,3.0,1000.0,2000.0,1.0,0.0,0.0,40-80,,0.0,calculator,clock,40.0,60.0,calculator1,clock1,40.0,40.0,22829184.thl.jpg,Aalarmclock2.jpg,/static/Category_learning/Stimuli/Practice_stims/calculator/22829184.thl.jpg,/static/Category_learning/Stimuli/Practice_stims/clock/Aalarmclock2.jpg,0.0,clock,calculator,60.0,40.0,clock1,calculator1,40.0,40.0,0.0,85.839,0.339,,,,,
68,,confirmation,,html-keyboard-response,68,53719,0.0-1.0-5.0-0.12-1.12-0.12,0,0,96878,,,,,,3.0,,,,,,,,,,,,,,,,,,,,,,,,,,,,,,,,87.0,1.161,,,,,
69,,isi,,html-keyboard-response,69,53825,0.0-1.0-5.0-0.12-2.12,0,0,96878,,,,,,,,,,,,,,,,,,,,,,,,,,,,,,,,,,,,,,88.0,1.0,,,,,
70,,feedback,,html-keyboard-response,70,54833,0.0-1.0-5.0-0.12-3.12-0.12,0,0,96878,,,,,,3.0,,,,,,,,,,,,,,,,,,,,,,,,,,,,,,,,89.0,1.0,,,,,
71,,iti,,html-keyboard-response,71,54936,0.0-1.0-5.0-0.12-5.12,0,0,96878,,,,,,,,,,,,,,,,,,,,,,,,,,,,,,,,,,,,,,91.0,2.0,,,,,
72,,choice,,html-keyboard-response,72,55497,0.0-1.0-6.0-0.0-0.0,0,0,96878,,557.0,,,75.0,4.0,4.0,2500.0,2500.0,1.0,0.0,0.0,20-60,,1.0,dumbbell,bagel,80.0,20.0,dumbbell3,bagel3,100.0,40.0,41K7QVRX50L._SS500_.jpg,photo-169.jpg,/static/Category_learning/Stimuli/Practice_stims/dumbbell/41K7QVRX50L._SS500_.jpg,/static/Category_learning/Stimuli/Practice_stims/bagel/photo-169.jpg,0.0,bagel,dumbbell,20.0,80.0,bagel3,dumbbell3,40.0,100.0,0.0,91.557,0.557,1.0,,,,
73,,confirmation,,html-keyboard-response,73,56446,0.0-1.0-6.0-0.0-1.0-0.0,0,0,96878,,,,,,4.0,,,,,,,,,,,,,,,,,,,,,,,,,,,,,,,,92.5,0.943,,,,,
74,,isi,,html-keyboard-response,74,56551,0.0-1.0-6.0-0.0-2.0,0,0,96878,,,,,,,,,,,,,,,,,,,,,,,,,,,,,,,,,,,,,,95.0,2.5,,,,,
75,,feedback,,html-keyboard-response,75,57555,0.0-1.0-6.0-0.0-3.0-0.0,0,0,96878,,,,,,4.0,,,,,,,,,,,,,,,,,,,,,,,,,,,,,,,,96.0,1.0,,,,,
76,,iti,,html-keyboard-response,76,57661,0.0-1.0-6.0-0.0-5.0,0,0,96878,,,,,,,,,,,,,,,,,,,,,,,,,,,,,,,,,,,,,,98.5,2.5,,,,,
77,,practice_over,,html-keyboard-response,77,57817,0.0-1.0-6.0-0.0-6.0-0.0,0,0,96878,,153.0,,,68.0,4.0,,,,,,,,,,,,,,,,,,,,,,,,,,,,,,,,,,,,,,
78,,start_run,,html-keyboard-response,78,58722,0.0-1.0-6.0-0.0-6.0-1.0,0,0,96878,,903.0,,,84.0,,,,,,,,,,,,,,,,,,,,,,,,,,,,,,,,,,,,,,,
79,,choice,,html-keyboard-response,79,59228,0.0-1.0-7.0-0.0-0.0,0,0,96878,,503.0,,,75.0,5.0,305.0,2000.0,1000.0,0.0,6.0,0.0,40-80,,0.0,yarn,hammer,40.0,80.0,yarn11,hammer12,20.0,80.0,Aballofpinky2.jpg,24oz hammer.jpg,/static/Category_learning/Stimuli/Experimental_stims/yarn/Aballofpinky2.jpg,/static/Category_learning/Stimuli/Experimental_stims/hammer/24oz hammer.jpg,0.0,hammer,yarn,80.0,40.0,hammer12,yarn11,80.0,20.0,0.0,0.503,0.503,,,,,
80,,confirmation,,html-keyboard-response,80,60231,0.0-1.0-7.0-0.0-1.0-0.0,0,0,96878,,,,,,5.0,,,,,,,,,,,,,,,,,,,,,,,,,,,,,,,,1.5,0.997,,,,,
81,,isi,,html-keyboard-response,81,60336,0.0-1.0-7.0-0.0-2.0,0,0,96878,,,,,,,,,,,,,,,,,,,,,,,,,,,,,,,,,,,,,,3.5,2.0,,,,,
82,,feedback,,html-keyboard-response,82,61341,0.0-1.0-7.0-0.0-3.0-0.0,0,0,96878,,,,,,5.0,,,,,,,,,,,,,,,,,,,,,,,,,,,,,,,,4.5,1.0,,,,,
83,,iti,,html-keyboard-response,83,61448,0.0-1.0-7.0-0.0-5.0,0,0,96878,,,,,,,,,,,,,,,,,,,,,,,,,,,,,,,,,,,,,,5.5,1.0,,,,,
84,,choice,,html-keyboard-response,84,62951,0.0-1.0-8.0-0.0-0.0,0,0,96878,,,,,,6.0,306.0,2000.0,1500.0,0.0,6.0,0.0,20-60,,1.0,bongo,patio lounge chair,60.0,20.0,bongo13,patio lounge chair1,40.0,0.0,26388718.thl.jpg,product1-s.jpg,/static/Category_learning/Stimuli/Experimental_stims/bongo/26388718.thl.jpg,/static/Category_learning/Stimuli/Experimental_stims/patio lounge chair/product1-s.jpg,,,,,,,,,,1.0,7.0,1.5,,,,,
85,,isi,,html-keyboard-response,85,63058,0.0-1.0-8.0-0.0-2.0,0,0,96878,,,,,,,,,,,,,,,,,,,,,,,,,,,,,,,,,,,,,,9.0,2.0,,,,,
86,,no_response,,html-keyboard-response,86,64064,0.0-1.0-8.0-0.0-4.0-0.0,1,0,96878,,,,,,,,,,,,,,,,,,,,,,,,,,,,,,,,,,,,,,10.0,1.0,,,,,
87,,iti,,html-keyboard-response,87,64184,0.0-1.0-8.0-0.0-5.0,0,0,96878,,,,,,,,,,,,,,,,,,,,,,,,,,,,,,,,,,,,,,11.5,1.5,,,,,
88,,choice,,html-keyboard-response,88,64692,0.0-1.0-8.0-0.1-0.1,0,0,96878,,505.0,,,68.0,6.0,306.0,2000.0,1500.0,0.0,6.0,0.0,20-60,,1.0,bongo,patio lounge chair,60.0,20.0,bongo13,patio lounge chair1,40.0,0.0,26388718.thl.jpg,product1-s.jpg,/static/Category_learning/Stimuli/Experimental_stims/bongo/26388718.thl.jpg,/static/Category_learning/Stimuli/Experimental_stims/patio lounge chair/product1-s.jpg,1.0,bongo,patio lounge chair,60.0,20.0,bongo13,patio lounge chair1,40.0,0.0,0.0,12.005,0.505,,,,,
89,,confirmation,,html-keyboard-response,89,65693,0.0-1.0-8.0-0.1-1.1-0.1,0,0,96878,,,,,,6.0,,,,,,,,,,,,,,,,,,,,,,,,,,,,,,,,13.0,0.995,,,,,
90,,isi,,html-keyboard-response,90,65799,0.0-1.0-8.0-0.1-2.1,0,0,96878,,,,,,,,,,,,,,,,,,,,,,,,,,,,,,,,,,,,,,14.5,1.5,,,,,
91,,feedback,,html-keyboard-response,91,66804,0.0-1.0-8.0-0.1-3.1-0.1,0,0,96878,,,,,,6.0,,,,,,,,,,,,,,,,,,,,,,,,,,,,,,,,15.5,1.0,,,,,
92,,iti,,html-keyboard-response,92,66909,0.0-1.0-8.0-0.1-5.1,0,0,96878,,,,,,,,,,,,,,,,,,,,,,,,,,,,,,,,,,,,,,16.5,1.0,,,,,
93,,choice,,html-keyboard-response,93,67160,0.0-1.0-9.0-0.0-0.0,0,0,96878,,247.0,,,75.0,7.0,307.0,3500.0,1000.0,0.0,6.0,0.0,40-80,,1.0,hammer,vase,80.0,40.0,hammer6,vase10,60.0,60.0,hammer03.jpg,Avase143.jpg,/static/Category_learning/Stimuli/Experimental_stims/hammer/hammer03.jpg,/static/Category_learning/Stimuli/Experimental_stims/vase/Avase143.jpg,0.0,vase,hammer,40.0,80.0,vase10,hammer6,60.0,60.0,0.0,16.747,0.247,,,,,
94,,confirmation,,html-keyboard-response,94,68418,0.0-1.0-9.0-0.0-1.0-0.0,0,0,96878,,,,,,7.0,,,,,,,,,,,,,,,,,,,,,,,,,,,,,,,,18.0,1.253,,,,,
95,,isi,,html-keyboard-response,95,68520,0.0-1.0-9.0-0.0-2.0,0,0,96878,,,,,,,,,,,,,,,,,,,,,,,,,,,,,,,,,,,,,,21.5,3.5,,,,,
96,,feedback,,html-keyboard-response,96,69527,0.0-1.0-9.0-0.0-3.0-0.0,0,0,96878,,,,,,7.0,,,,,,,,,,,,,,,,,,,,,,,,,,,,,,,,22.5,1.0,,,,,
97,,iti,,html-keyboard-response,97,69634,0.0-1.0-9.0-0.0-5.0,0,0,96878,,,,,,,,,,,,,,,,,,,,,,,,,,,,,,,,,,,,,,23.5,1.0,,,,,
98,,choice,,html-keyboard-response,98,70230,0.0-1.0-10.0-0.0-0.0,0,0,96878,,592.0,,,68.0,8.0,308.0,2000.0,1000.0,0.0,6.0,0.0,80-80,,,license plate,microscope,80.0,80.0,license plate6,microscope14,100.0,100.0,ak-cru-684.jpg,AMICROS40.jpg,/static/Category_learning/Stimuli/Experimental_stims/license plate/ak-cru-684.jpg,/static/Category_learning/Stimuli/Experimental_stims/microscope/AMICROS40.jpg,1.0,license plate,microscope,80.0,80.0,license plate6,microscope14,100.0,100.0,0.0,24.092,0.592,,,,,
99,,confirmation,,html-keyboard-response,99,71143,0.0-1.0-10.0-0.0-1.0-0.0,0,0,96878,,,,,,8.0,,,,,,,,,,,,,,,,,,,,,,,,,,,,,,,,25.0,0.908,,,,,
100,,isi,,html-keyboard-response,100,71250,0.0-1.0-10.0-0.0-2.0,0,0,96878,,,,,,,,,,,,,,,,,,,,,,,,,,,,,,,,,,,,,,27.0,2.0,,,,,
101,,feedback,,html-keyboard-response,101,72253,0.0-1.0-10.0-0.0-3.0-0.0,0,0,96878,,,,,,8.0,,,,,,,,,,,,,,,,,,,,,,,,,,,,,,,,28.0,1.0,,,,,
102,,iti,,html-keyboard-response,102,72359,0.0-1.0-10.0-0.0-5.0,0,0,96878,,,,,,,,,,,,,,,,,,,,,,,,,,,,,,,,,,,,,,29.0,1.0,,,,,
103,,choice,,html-keyboard-response,103,74274,0.0-1.0-11.0-0.0-0.0,0,0,96878,,,,,,9.0,309.0,3500.0,1500.0,0.0,6.0,0.0,60-80,,1.0,lipstick,bongo,80.0,60.0,lipstick14,bongo15,60.0,80.0,P109907_hero.jpg,26390728.thl.jpg,/static/Category_learning/Stimuli/Experimental_stims/lipstick/P109907_hero.jpg,/static/Category_learning/Stimuli/Experimental_stims/bongo/26390728.thl.jpg,,,,,,,,,,1.0,30.5,1.5,,,,,
104,,isi,,html-keyboard-response,104,75549,0.0-1.0-11.0-0.0-2.0,0,0,96878,,,,,,,,,,,,,,,,,,,,,,,,,,,,,,,,,,,,,,34.0,3.5,,,,,
105,,no_response,,html-keyboard-response,105,77456,0.0-1.0-11.0-0.0-4.0-0.0,1,0,96878,,,,,,,,,,,,,,,,,,,,,,,,,,,,,,,,,,,,,,35.0,1.0,,,,,
106,,iti,,html-keyboard-response,106,79623,0.0-1.0-11.0-0.0-5.0,0,0,96878,,,,,,,,,,,,,,,,,,,,,,,,,,,,,,,,,,,,,,36.5,1.5,,,,,
107,,choice,,html-keyboard-response,107,81581,0.0-1.0-11.0-0.1-0.1,0,0,96878,,,,,,9.0,309.0,3500.0,1500.0,0.0,6.0,0.0,60-80,,1.0,lipstick,bongo,80.0,60.0,lipstick14,bongo15,60.0,80.0,P109907_hero.jpg,26390728.thl.jpg,/static/Category_learning/Stimuli/Experimental_stims/lipstick/P109907_hero.jpg,/static/Category_learning/Stimuli/Experimental_stims/bongo/26390728.thl.jpg,,,,,,,,,,1.0,38.0,1.5,,,,,
108,,isi,,html-keyboard-response,108,82271,0.0-1.0-11.0-0.1-2.1,0,0,96878,,,,,,,,,,,,,,,,,,,,,,,,,,,,,,,,,,,,,,40.0,2.0,,,,,
109,,no_response,,html-keyboard-response,109,84272,0.0-1.0-11.0-0.1-4.1-0.1,1,0,96878,,,,,,,,,,,,,,,,,,,,,,,,,,,,,,,,,,,,,,41.0,1.0,,,,,
110,,iti,,html-keyboard-response,110,85521,0.0-1.0-11.0-0.1-5.1,0,0,96878,,,,,,,,,,,,,,,,,,,,,,,,,,,,,,,,,,,,,,42.0,1.0,,,,,
111,,choice,,html-keyboard-response,111,87026,0.0-1.0-11.0-0.2-0.2,0,0,96878,,,,,,9.0,309.0,3500.0,1500.0,0.0,6.0,0.0,60-80,,1.0,lipstick,bongo,80.0,60.0,lipstick14,bongo15,60.0,80.0,P109907_hero.jpg,26390728.thl.jpg,/static/Category_learning/Stimuli/Experimental_stims/lipstick/P109907_hero.jpg,/static/Category_learning/Stimuli/Experimental_stims/bongo/26390728.thl.jpg,,,,,,,,,,1.0,43.5,1.5,,,,,
112,,isi,,html-keyboard-response,112,87128,0.0-1.0-11.0-0.2-2.2,0,0,96878,,,,,,,,,,,,,,,,,,,,,,,,,,,,,,,,,,,,,,44.5,1.0,,,,,
113,,no_response,,html-keyboard-response,113,88135,0.0-1.0-11.0-0.2-4.2-0.2,1,0,96878,,,,,,,,,,,,,,,,,,,,,,,,,,,,,,,,,,,,,,45.5,1.0,,,,,
114,,iti,,html-keyboard-response,114,88251,0.0-1.0-11.0-0.2-5.2,0,0,96878,,,,,,,,,,,,,,,,,,,,,,,,,,,,,,,,,,,,,,47.0,1.5,,,,,
115,,choice,,html-keyboard-response,115,88715,0.0-1.0-11.0-0.3-0.3,0,0,96878,,461.0,,,68.0,9.0,309.0,3500.0,1500.0,0.0,6.0,0.0,60-80,,1.0,lipstick,bongo,80.0,60.0,lipstick14,bongo15,60.0,80.0,P109907_hero.jpg,26390728.thl.jpg,/static/Category_learning/Stimuli/Experimental_stims/lipstick/P109907_hero.jpg,/static/Category_learning/Stimuli/Experimental_stims/bongo/26390728.thl.jpg,1.0,lipstick,bongo,80.0,60.0,lipstick14,bongo15,60.0,80.0,0.0,47.461,0.461,,,,,
116,,confirmation,,html-keyboard-response,116,89762,0.0-1.0-11.0-0.3-1.3-0.3,0,0,96878,,,,,,9.0,,,,,,,,,,,,,,,,,,,,,,,,,,,,,,,,48.5,1.039,,,,,
117,,isi,,html-keyboard-response,117,89864,0.0-1.0-11.0-0.3-2.3,0,0,96878,,,,,,,,,,,,,,,,,,,,,,,,,,,,,,,,,,,,,,52.0,3.5,,,,,
118,,feedback,,html-keyboard-response,118,91347,0.0-1.0-11.0-0.3-3.3-0.3,0,0,96878,,,,,,9.0,,,,,,,,,,,,,,,,,,,,,,,,,,,,,,,,53.0,1.0,,,,,
119,,iti,,html-keyboard-response,119,91474,0.0-1.0-11.0-0.3-5.3,0,0,96878,,,,,,,,,,,,,,,,,,,,,,,,,,,,,,,,,,,,,,54.5,1.5,,,,,
120,,choice,,html-keyboard-response,120,92195,0.0-1.0-12.0-0.0-0.0,0,0,96878,,719.0,,,75.0,10.0,310.0,3000.0,2000.0,0.0,6.0,0.0,20-60,,0.0,necklace,bongo,20.0,60.0,necklace12,bongo1,40.0,60.0,necklascenew07.jpg,ABONGO22.jpg,/static/Category_learning/Stimuli/Experimental_stims/necklace/necklascenew07.jpg,/static/Category_learning/Stimuli/Experimental_stims/bongo/ABONGO22.jpg,0.0,bongo,necklace,60.0,20.0,bongo1,necklace12,60.0,40.0,0.0,55.219,0.719,,,,,
121,,confirmation,,html-keyboard-response,121,92983,0.0-1.0-12.0-0.0-1.0-0.0,0,0,96878,,,,,,10.0,,,,,,,,,,,,,,,,,,,,,,,,,,,,,,,,56.0,0.781,,,,,
122,,isi,,html-keyboard-response,122,93091,0.0-1.0-12.0-0.0-2.0,0,0,96878,,,,,,,,,,,,,,,,,,,,,,,,,,,,,,,,,,,,,,59.0,3.0,,,,,
123,,feedback,,html-keyboard-response,123,94440,0.0-1.0-12.0-0.0-3.0-0.0,0,0,96878,,,,,,10.0,,,,,,,,,,,,,,,,,,,,,,,,,,,,,,,,60.0,1.0,,,,,
124,,iti,,html-keyboard-response,124,95283,0.0-1.0-12.0-0.0-5.0,0,0,96878,,,,,,,,,,,,,,,,,,,,,,,,,,,,,,,,,,,,,,62.0,2.0,,,,,
125,,choice,,html-keyboard-response,125,97522,0.0-1.0-13.0-0.0-0.0,0,0,96878,,,,,,11.0,311.0,2000.0,1000.0,0.0,6.0,0.0,20-60,,1.0,desk,small table,60.0,20.0,desk11,small table1,60.0,0.0,Writing_Desk_280_Cutout_Sideview_half.jpg,ATABLE10.jpg,/static/Category_learning/Stimuli/Experimental_stims/desk/Writing_Desk_280_Cutout_Sideview_half.jpg,/static/Category_learning/Stimuli/Experimental_stims/small table/ATABLE10.jpg,,,,,,,,,,1.0,63.5,1.5,,,,,
126,,isi,,html-keyboard-response,126,98644,0.0-1.0-13.0-0.0-2.0,0,0,96878,,,,,,,,,,,,,,,,,,,,,,,,,,,,,,,,,,,,,,65.5,2.0,,,,,
127,,no_response,,html-keyboard-response,127,100429,0.0-1.0-13.0-0.0-4.0-0.0,1,0,96878,,,,,,,,,,,,,,,,,,,,,,,,,,,,,,,,,,,,,,66.5,1.0,,,,,
128,,iti,,html-keyboard-response,128,101518,0.0-1.0-13.0-0.0-5.0,0,0,96878,,,,,,,,,,,,,,,,,,,,,,,,,,,,,,,,,,,,,,67.5,1.0,,,,,
129,,choice,,html-keyboard-response,129,103610,0.0-1.0-13.0-0.1-0.1,0,0,96878,,,,,,11.0,311.0,2000.0,1000.0,0.0,6.0,0.0,20-60,,1.0,desk,small table,60.0,20.0,desk11,small table1,60.0,0.0,Writing_Desk_280_Cutout_Sideview_half.jpg,ATABLE10.jpg,/static/Category_learning/Stimuli/Experimental_stims/desk/Writing_Desk_280_Cutout_Sideview_half.jpg,/static/Category_learning/Stimuli/Experimental_stims/small table/ATABLE10.jpg,,,,,,,,,,1.0,69.0,1.5,,,,,
130,,isi,,html-keyboard-response,130,104447,0.0-1.0-13.0-0.1-2.1,0,0,96878,,,,,,,,,,,,,,,,,,,,,,,,,,,,,,,,,,,,,,70.5,1.5,,,,,
131,,no_response,,html-keyboard-response,131,106325,0.0-1.0-13.0-0.1-4.1-0.1,1,0,96878,,,,,,,,,,,,,,,,,,,,,,,,,,,,,,,,,,,,,,71.5,1.0,,,,,
132,,iti,,html-keyboard-response,132,107656,0.0-1.0-13.0-0.1-5.1,0,0,96878,,,,,,,,,,,,,,,,,,,,,,,,,,,,,,,,,,,,,,73.0,1.5,,,,,
133,,choice,,html-keyboard-response,133,109271,0.0-1.0-13.0-0.2-0.2,0,0,96878,,,,,,11.0,311.0,2000.0,1000.0,0.0,6.0,0.0,20-60,,1.0,desk,small table,60.0,20.0,desk11,small table1,60.0,0.0,Writing_Desk_280_Cutout_Sideview_half.jpg,ATABLE10.jpg,/static/Category_learning/Stimuli/Experimental_stims/desk/Writing_Desk_280_Cutout_Sideview_half.jpg,/static/Category_learning/Stimuli/Experimental_stims/small table/ATABLE10.jpg,,,,,,,,,,1.0,74.5,1.5,,,,,
134,,isi,,html-keyboard-response,134,110288,0.0-1.0-13.0-0.2-2.2,0,0,96878,,,,,,,,,,,,,,,,,,,,,,,,,,,,,,,,,,,,,,76.5,2.0,,,,,
135,,no_response,,html-keyboard-response,135,112272,0.0-1.0-13.0-0.2-4.2-0.2,1,0,96878,,,,,,,,,,,,,,,,,,,,,,,,,,,,,,,,,,,,,,77.5,1.0,,,,,
136,,iti,,html-keyboard-response,136,113292,0.0-1.0-13.0-0.2-5.2,0,0,96878,,,,,,,,,,,,,,,,,,,,,,,,,,,,,,,,,,,,,,81.0,3.5,,,,,
137,,choice,,html-keyboard-response,137,116189,0.0-1.0-13.0-0.3-0.3,0,0,96878,,,,,,11.0,311.0,2000.0,1000.0,0.0,6.0,0.0,20-60,,1.0,desk,small table,60.0,20.0,desk11,small table1,60.0,0.0,Writing_Desk_280_Cutout_Sideview_half.jpg,ATABLE10.jpg,/static/Category_learning/Stimuli/Experimental_stims/desk/Writing_Desk_280_Cutout_Sideview_half.jpg,/static/Category_learning/Stimuli/Experimental_stims/small table/ATABLE10.jpg,,,,,,,,,,1.0,82.5,1.5,,,,,
138,,isi,,html-keyboard-response,138,117284,0.0-1.0-13.0-0.3-2.3,0,0,96878,,,,,,,,,,,,,,,,,,,,,,,,,,,,,,,,,,,,,,84.0,1.5,,,,,
139,,no_response,,html-keyboard-response,139,119581,0.0-1.0-13.0-0.3-4.3-0.3,1,0,96878,,,,,,,,,,,,,,,,,,,,,,,,,,,,,,,,,,,,,,85.0,1.0,,,,,
140,,iti,,html-keyboard-response,140,120605,0.0-1.0-13.0-0.3-5.3,0,0,96878,,,,,,,,,,,,,,,,,,,,,,,,,,,,,,,,,,,,,,88.5,3.5,,,,,
141,,choice,,html-keyboard-response,141,123073,0.0-1.0-13.0-0.4-0.4,0,0,96878,,,,,,11.0,311.0,2000.0,1000.0,0.0,6.0,0.0,20-60,,1.0,desk,small table,60.0,20.0,desk11,small table1,60.0,0.0,Writing_Desk_280_Cutout_Sideview_half.jpg,ATABLE10.jpg,/static/Category_learning/Stimuli/Experimental_stims/desk/Writing_Desk_280_Cutout_Sideview_half.jpg,/static/Category_learning/Stimuli/Experimental_stims/small table/ATABLE10.jpg,,,,,,,,,,1.0,90.0,1.5,,,,,
142,,isi,,html-keyboard-response,142,123368,0.0-1.0-13.0-0.4-2.4,0,0,96878,,,,,,,,,,,,,,,,,,,,,,,,,,,,,,,,,,,,,,91.0,1.0,,,,,
143,,no_response,,html-keyboard-response,143,125928,0.0-1.0-13.0-0.4-4.4-0.4,1,0,96878,,,,,,,,,,,,,,,,,,,,,,,,,,,,,,,,,,,,,,92.0,1.0,,,,,
144,,iti,,html-keyboard-response,144,126355,0.0-1.0-13.0-0.4-5.4,0,0,96878,,,,,,,,,,,,,,,,,,,,,,,,,,,,,,,,,,,,,,93.5,1.5,,,,,
145,,choice,,html-keyboard-response,145,128746,0.0-1.0-13.0-0.5-0.5,0,0,96878,,,,,,11.0,311.0,2000.0,1000.0,0.0,6.0,0.0,20-60,,1.0,desk,small table,60.0,20.0,desk11,small table1,60.0,0.0,Writing_Desk_280_Cutout_Sideview_half.jpg,ATABLE10.jpg,/static/Category_learning/Stimuli/Experimental_stims/desk/Writing_Desk_280_Cutout_Sideview_half.jpg,/static/Category_learning/Stimuli/Experimental_stims/small table/ATABLE10.jpg,,,,,,,,,,1.0,95.0,1.5,,,,,
146,,isi,,html-keyboard-response,146,129532,0.0-1.0-13.0-0.5-2.5,0,0,96878,,,,,,,,,,,,,,,,,,,,,,,,,,,,,,,,,,,,,,96.0,1.0,,,,,
147,,no_response,,html-keyboard-response,147,131355,0.0-1.0-13.0-0.5-4.5-0.5,1,0,96878,,,,,,,,,,,,,,,,,,,,,,,,,,,,,,,,,,,,,,97.0,1.0,,,,,
148,,iti,,html-keyboard-response,148,132721,0.0-1.0-13.0-0.5-5.5,0,0,96878,,,,,,,,,,,,,,,,,,,,,,,,,,,,,,,,,,,,,,98.0,1.0,,,,,
149,,choice,,html-keyboard-response,149,134271,0.0-1.0-13.0-0.6-0.6,0,0,96878,,,,,,11.0,311.0,2000.0,1000.0,0.0,6.0,0.0,20-60,,1.0,desk,small table,60.0,20.0,desk11,small table1,60.0,0.0,Writing_Desk_280_Cutout_Sideview_half.jpg,ATABLE10.jpg,/static/Category_learning/Stimuli/Experimental_stims/desk/Writing_Desk_280_Cutout_Sideview_half.jpg,/static/Category_learning/Stimuli/Experimental_stims/small table/ATABLE10.jpg,,,,,,,,,,1.0,99.5,1.5,,,,,
150,,isi,,html-keyboard-response,150,135271,0.0-1.0-13.0-0.6-2.6,0,0,96878,,,,,,,,,,,,,,,,,,,,,,,,,,,,,,,,,,,,,,100.5,1.0,,,,,
151,,no_response,,html-keyboard-response,151,138178,0.0-1.0-13.0-0.6-4.6-0.6,1,0,96878,,,,,,,,,,,,,,,,,,,,,,,,,,,,,,,,,,,,,,101.5,1.0,,,,,
152,,iti,,html-keyboard-response,152,139271,0.0-1.0-13.0-0.6-5.6,0,0,96878,,,,,,,,,,,,,,,,,,,,,,,,,,,,,,,,,,,,,,103.0,1.5,,,,,
153,,choice,,html-keyboard-response,153,141272,0.0-1.0-13.0-0.7-0.7,0,0,96878,,,,,,11.0,311.0,2000.0,1000.0,0.0,6.0,0.0,20-60,,1.0,desk,small table,60.0,20.0,desk11,small table1,60.0,0.0,Writing_Desk_280_Cutout_Sideview_half.jpg,ATABLE10.jpg,/static/Category_learning/Stimuli/Experimental_stims/desk/Writing_Desk_280_Cutout_Sideview_half.jpg,/static/Category_learning/Stimuli/Experimental_stims/small table/ATABLE10.jpg,,,,,,,,,,1.0,104.5,1.5,,,,,
154,,isi,,html-keyboard-response,154,142632,0.0-1.0-13.0-0.7-2.7,0,0,96878,,,,,,,,,,,,,,,,,,,,,,,,,,,,,,,,,,,,,,105.5,1.0,,,,,
155,,no_response,,html-keyboard-response,155,144272,0.0-1.0-13.0-0.7-4.7-0.7,1,0,96878,,,,,,,,,,,,,,,,,,,,,,,,,,,,,,,,,,,,,,106.5,1.0,,,,,
156,,iti,,html-keyboard-response,156,145271,0.0-1.0-13.0-0.7-5.7,0,0,96878,,,,,,,,,,,,,,,,,,,,,,,,,,,,,,,,,,,,,,109.5,3.0,,,,,
157,,choice,,html-keyboard-response,157,147272,0.0-1.0-13.0-0.8-0.8,0,0,96878,,,,,,11.0,311.0,2000.0,1000.0,0.0,6.0,0.0,20-60,,1.0,desk,small table,60.0,20.0,desk11,small table1,60.0,0.0,Writing_Desk_280_Cutout_Sideview_half.jpg,ATABLE10.jpg,/static/Category_learning/Stimuli/Experimental_stims/desk/Writing_Desk_280_Cutout_Sideview_half.jpg,/static/Category_learning/Stimuli/Experimental_stims/small table/ATABLE10.jpg,,,,,,,,,,1.0,111.0,1.5,,,,,
158,,isi,,html-keyboard-response,158,148271,0.0-1.0-13.0-0.8-2.8,0,0,96878,,,,,,,,,,,,,,,,,,,,,,,,,,,,,,,,,,,,,,112.0,1.0,,,,,
159,,no_response,,html-keyboard-response,159,150271,0.0-1.0-13.0-0.8-4.8-0.8,1,0,96878,,,,,,,,,,,,,,,,,,,,,,,,,,,,,,,,,,,,,,113.0,1.0,,,,,
160,,iti,,html-keyboard-response,160,151271,0.0-1.0-13.0-0.8-5.8,0,0,96878,,,,,,,,,,,,,,,,,,,,,,,,,,,,,,,,,,,,,,114.0,1.0,,,,,
161,,choice,,html-keyboard-response,161,153532,0.0-1.0-13.0-0.9-0.9,0,0,96878,,,,,,11.0,311.0,2000.0,1000.0,0.0,6.0,0.0,20-60,,1.0,desk,small table,60.0,20.0,desk11,small table1,60.0,0.0,Writing_Desk_280_Cutout_Sideview_half.jpg,ATABLE10.jpg,/static/Category_learning/Stimuli/Experimental_stims/desk/Writing_Desk_280_Cutout_Sideview_half.jpg,/static/Category_learning/Stimuli/Experimental_stims/small table/ATABLE10.jpg,,,,,,,,,,1.0,115.5,1.5,,,,,
162,,isi,,html-keyboard-response,162,154637,0.0-1.0-13.0-0.9-2.9,0,0,96878,,,,,,,,,,,,,,,,,,,,,,,,,,,,,,,,,,,,,,116.5,1.0,,,,,
163,,no_response,,html-keyboard-response,163,156786,0.0-1.0-13.0-0.9-4.9-0.9,1,0,96878,,,,,,,,,,,,,,,,,,,,,,,,,,,,,,,,,,,,,,117.5,1.0,,,,,
164,,iti,,html-keyboard-response,164,157271,0.0-1.0-13.0-0.9-5.9,0,0,96878,,,,,,,,,,,,,,,,,,,,,,,,,,,,,,,,,,,,,,119.0,1.5,,,,,
165,,choice,,html-keyboard-response,165,159502,0.0-1.0-13.0-0.10-0.10,0,0,96878,,,,,,11.0,311.0,2000.0,1000.0,0.0,6.0,0.0,20-60,,1.0,desk,small table,60.0,20.0,desk11,small table1,60.0,0.0,Writing_Desk_280_Cutout_Sideview_half.jpg,ATABLE10.jpg,/static/Category_learning/Stimuli/Experimental_stims/desk/Writing_Desk_280_Cutout_Sideview_half.jpg,/static/Category_learning/Stimuli/Experimental_stims/small table/ATABLE10.jpg,,,,,,,,,,1.0,120.5,1.5,,,,,
166,,isi,,html-keyboard-response,166,160271,0.0-1.0-13.0-0.10-2.10,0,0,96878,,,,,,,,,,,,,,,,,,,,,,,,,,,,,,,,,,,,,,121.5,1.0,,,,,
167,,no_response,,html-keyboard-response,167,162271,0.0-1.0-13.0-0.10-4.10-0.10,1,0,96878,,,,,,,,,,,,,,,,,,,,,,,,,,,,,,,,,,,,,,122.5,1.0,,,,,
168,,iti,,html-keyboard-response,168,163454,0.0-1.0-13.0-0.10-5.10,0,0,96878,,,,,,,,,,,,,,,,,,,,,,,,,,,,,,,,,,,,,,124.5,2.0,,,,,
169,,choice,,html-keyboard-response,169,165271,0.0-1.0-13.0-0.11-0.11,0,0,96878,,,,,,11.0,311.0,2000.0,1000.0,0.0,6.0,0.0,20-60,,1.0,desk,small table,60.0,20.0,desk11,small table1,60.0,0.0,Writing_Desk_280_Cutout_Sideview_half.jpg,ATABLE10.jpg,/static/Category_learning/Stimuli/Experimental_stims/desk/Writing_Desk_280_Cutout_Sideview_half.jpg,/static/Category_learning/Stimuli/Experimental_stims/small table/ATABLE10.jpg,,,,,,,,,,1.0,126.0,1.5,,,,,
170,,isi,,html-keyboard-response,170,166271,0.0-1.0-13.0-0.11-2.11,0,0,96878,,,,,,,,,,,,,,,,,,,,,,,,,,,,,,,,,,,,,,128.0,2.0,,,,,
171,,no_response,,html-keyboard-response,171,168271,0.0-1.0-13.0-0.11-4.11-0.11,1,0,96878,,,,,,,,,,,,,,,,,,,,,,,,,,,,,,,,,,,,,,129.0,1.0,,,,,
172,,iti,,html-keyboard-response,172,169371,0.0-1.0-13.0-0.11-5.11,0,0,96878,,,,,,,,,,,,,,,,,,,,,,,,,,,,,,,,,,,,,,130.0,1.0,,,,,
173,,choice,,html-keyboard-response,173,171441,0.0-1.0-13.0-0.12-0.12,0,0,96878,,,,,,11.0,311.0,2000.0,1000.0,0.0,6.0,0.0,20-60,,1.0,desk,small table,60.0,20.0,desk11,small table1,60.0,0.0,Writing_Desk_280_Cutout_Sideview_half.jpg,ATABLE10.jpg,/static/Category_learning/Stimuli/Experimental_stims/desk/Writing_Desk_280_Cutout_Sideview_half.jpg,/static/Category_learning/Stimuli/Experimental_stims/small table/ATABLE10.jpg,,,,,,,,,,1.0,131.5,1.5,,,,,
174,,isi,,html-keyboard-response,174,172273,0.0-1.0-13.0-0.12-2.12,0,0,96878,,,,,,,,,,,,,,,,,,,,,,,,,,,,,,,,,,,,,,132.5,1.0,,,,,
175,,no_response,,html-keyboard-response,175,174840,0.0-1.0-13.0-0.12-4.12-0.12,1,0,96878,,,,,,,,,,,,,,,,,,,,,,,,,,,,,,,,,,,,,,133.5,1.0,,,,,
176,,iti,,html-keyboard-response,176,175276,0.0-1.0-13.0-0.12-5.12,0,0,96878,,,,,,,,,,,,,,,,,,,,,,,,,,,,,,,,,,,,,,134.5,1.0,,,,,
177,,choice,,html-keyboard-response,177,177750,0.0-1.0-13.0-0.13-0.13,0,0,96878,,,,,,11.0,311.0,2000.0,1000.0,0.0,6.0,0.0,20-60,,1.0,desk,small table,60.0,20.0,desk11,small table1,60.0,0.0,Writing_Desk_280_Cutout_Sideview_half.jpg,ATABLE10.jpg,/static/Category_learning/Stimuli/Experimental_stims/desk/Writing_Desk_280_Cutout_Sideview_half.jpg,/static/Category_learning/Stimuli/Experimental_stims/small table/ATABLE10.jpg,,,,,,,,,,1.0,136.0,1.5,,,,,
178,,isi,,html-keyboard-response,178,178271,0.0-1.0-13.0-0.13-2.13,0,0,96878,,,,,,,,,,,,,,,,,,,,,,,,,,,,,,,,,,,,,,138.0,2.0,,,,,
179,,no_response,,html-keyboard-response,179,180370,0.0-1.0-13.0-0.13-4.13-0.13,1,0,96878,,,,,,,,,,,,,,,,,,,,,,,,,,,,,,,,,,,,,,139.0,1.0,,,,,
180,,iti,,html-keyboard-response,180,181271,0.0-1.0-13.0-0.13-5.13,0,0,96878,,,,,,,,,,,,,,,,,,,,,,,,,,,,,,,,,,,,,,140.0,1.0,,,,,
181,,choice,,html-keyboard-response,181,183458,0.0-1.0-13.0-0.14-0.14,0,0,96878,,,,,,11.0,311.0,2000.0,1000.0,0.0,6.0,0.0,20-60,,1.0,desk,small table,60.0,20.0,desk11,small table1,60.0,0.0,Writing_Desk_280_Cutout_Sideview_half.jpg,ATABLE10.jpg,/static/Category_learning/Stimuli/Experimental_stims/desk/Writing_Desk_280_Cutout_Sideview_half.jpg,/static/Category_learning/Stimuli/Experimental_stims/small table/ATABLE10.jpg,,,,,,,,,,1.0,141.5,1.5,,,,,
182,,isi,,html-keyboard-response,182,184273,0.0-1.0-13.0-0.14-2.14,0,0,96878,,,,,,,,,,,,,,,,,,,,,,,,,,,,,,,,,,,,,,143.0,1.5,,,,,
183,,no_response,,html-keyboard-response,183,186280,0.0-1.0-13.0-0.14-4.14-0.14,1,0,96878,,,,,,,,,,,,,,,,,,,,,,,,,,,,,,,,,,,,,,144.0,1.0,,,,,
184,,iti,,html-keyboard-response,184,187271,0.0-1.0-13.0-0.14-5.14,0,0,96878,,,,,,,,,,,,,,,,,,,,,,,,,,,,,,,,,,,,,,147.5,3.5,,,,,
185,,choice,,html-keyboard-response,185,189271,0.0-1.0-13.0-0.15-0.15,0,0,96878,,,,,,11.0,311.0,2000.0,1000.0,0.0,6.0,0.0,20-60,,1.0,desk,small table,60.0,20.0,desk11,small table1,60.0,0.0,Writing_Desk_280_Cutout_Sideview_half.jpg,ATABLE10.jpg,/static/Category_learning/Stimuli/Experimental_stims/desk/Writing_Desk_280_Cutout_Sideview_half.jpg,/static/Category_learning/Stimuli/Experimental_stims/small table/ATABLE10.jpg,,,,,,,,,,1.0,149.0,1.5,,,,,
186,,isi,,html-keyboard-response,186,190505,0.0-1.0-13.0-0.15-2.15,0,0,96878,,,,,,,,,,,,,,,,,,,,,,,,,,,,,,,,,,,,,,150.5,1.5,,,,,
187,,no_response,,html-keyboard-response,187,192696,0.0-1.0-13.0-0.15-4.15-0.15,1,0,96878,,,,,,,,,,,,,,,,,,,,,,,,,,,,,,,,,,,,,,151.5,1.0,,,,,
188,,iti,,html-keyboard-response,188,193272,0.0-1.0-13.0-0.15-5.15,0,0,96878,,,,,,,,,,,,,,,,,,,,,,,,,,,,,,,,,,,,,,153.0,1.5,,,,,
189,,choice,,html-keyboard-response,189,195548,0.0-1.0-13.0-0.16-0.16,0,0,96878,,,,,,11.0,311.0,2000.0,1000.0,0.0,6.0,0.0,20-60,,1.0,desk,small table,60.0,20.0,desk11,small table1,60.0,0.0,Writing_Desk_280_Cutout_Sideview_half.jpg,ATABLE10.jpg,/static/Category_learning/Stimuli/Experimental_stims/desk/Writing_Desk_280_Cutout_Sideview_half.jpg,/static/Category_learning/Stimuli/Experimental_stims/small table/ATABLE10.jpg,,,,,,,,,,1.0,154.5,1.5,,,,,
190,,isi,,html-keyboard-response,190,196504,0.0-1.0-13.0-0.16-2.16,0,0,96878,,,,,,,,,,,,,,,,,,,,,,,,,,,,,,,,,,,,,,158.0,3.5,,,,,
191,,no_response,,html-keyboard-response,191,198271,0.0-1.0-13.0-0.16-4.16-0.16,1,0,96878,,,,,,,,,,,,,,,,,,,,,,,,,,,,,,,,,,,,,,159.0,1.0,,,,,
192,,iti,,html-keyboard-response,192,199271,0.0-1.0-13.0-0.16-5.16,0,0,96878,,,,,,,,,,,,,,,,,,,,,,,,,,,,,,,,,,,,,,161.0,2.0,,,,,
193,,choice,,html-keyboard-response,193,201344,0.0-1.0-13.0-0.17-0.17,0,0,96878,,,,,,11.0,311.0,2000.0,1000.0,0.0,6.0,0.0,20-60,,1.0,desk,small table,60.0,20.0,desk11,small table1,60.0,0.0,Writing_Desk_280_Cutout_Sideview_half.jpg,ATABLE10.jpg,/static/Category_learning/Stimuli/Experimental_stims/desk/Writing_Desk_280_Cutout_Sideview_half.jpg,/static/Category_learning/Stimuli/Experimental_stims/small table/ATABLE10.jpg,,,,,,,,,,1.0,162.5,1.5,,,,,
194,,isi,,html-keyboard-response,194,202271,0.0-1.0-13.0-0.17-2.17,0,0,96878,,,,,,,,,,,,,,,,,,,,,,,,,,,,,,,,,,,,,,163.5,1.0,,,,,
195,,no_response,,html-keyboard-response,195,204271,0.0-1.0-13.0-0.17-4.17-0.17,1,0,96878,,,,,,,,,,,,,,,,,,,,,,,,,,,,,,,,,,,,,,164.5,1.0,,,,,
196,,iti,,html-keyboard-response,196,205271,0.0-1.0-13.0-0.17-5.17,0,0,96878,,,,,,,,,,,,,,,,,,,,,,,,,,,,,,,,,,,,,,166.5,2.0,,,,,
197,,choice,,html-keyboard-response,197,207398,0.0-1.0-13.0-0.18-0.18,0,0,96878,,,,,,11.0,311.0,2000.0,1000.0,0.0,6.0,0.0,20-60,,1.0,desk,small table,60.0,20.0,desk11,small table1,60.0,0.0,Writing_Desk_280_Cutout_Sideview_half.jpg,ATABLE10.jpg,/static/Category_learning/Stimuli/Experimental_stims/desk/Writing_Desk_280_Cutout_Sideview_half.jpg,/static/Category_learning/Stimuli/Experimental_stims/small table/ATABLE10.jpg,,,,,,,,,,1.0,168.0,1.5,,,,,
198,,isi,,html-keyboard-response,198,208705,0.0-1.0-13.0-0.18-2.18,0,0,96878,,,,,,,,,,,,,,,,,,,,,,,,,,,,,,,,,,,,,,171.0,3.0,,,,,
199,,no_response,,html-keyboard-response,199,210271,0.0-1.0-13.0-0.18-4.18-0.18,1,0,96878,,,,,,,,,,,,,,,,,,,,,,,,,,,,,,,,,,,,,,172.0,1.0,,,,,
200,,iti,,html-keyboard-response,200,211597,0.0-1.0-13.0-0.18-5.18,0,0,96878,,,,,,,,,,,,,,,,,,,,,,,,,,,,,,,,,,,,,,173.0,1.0,,,,,
201,,choice,,html-keyboard-response,201,214104,0.0-1.0-13.0-0.19-0.19,0,0,96878,,,,,,11.0,311.0,2000.0,1000.0,0.0,6.0,0.0,20-60,,1.0,desk,small table,60.0,20.0,desk11,small table1,60.0,0.0,Writing_Desk_280_Cutout_Sideview_half.jpg,ATABLE10.jpg,/static/Category_learning/Stimuli/Experimental_stims/desk/Writing_Desk_280_Cutout_Sideview_half.jpg,/static/Category_learning/Stimuli/Experimental_stims/small table/ATABLE10.jpg,,,,,,,,,,1.0,174.5,1.5,,,,,
202,,isi,,html-keyboard-response,202,214353,0.0-1.0-13.0-0.19-2.19,0,0,96878,,,,,,,,,,,,,,,,,,,,,,,,,,,,,,,,,,,,,,176.0,1.5,,,,,
203,,no_response,,html-keyboard-response,203,216538,0.0-1.0-13.0-0.19-4.19-0.19,1,0,96878,,,,,,,,,,,,,,,,,,,,,,,,,,,,,,,,,,,,,,177.0,1.0,,,,,
204,,iti,,html-keyboard-response,204,217629,0.0-1.0-13.0-0.19-5.19,0,0,96878,,,,,,,,,,,,,,,,,,,,,,,,,,,,,,,,,,,,,,179.0,2.0,,,,,
205,,choice,,html-keyboard-response,205,219620,0.0-1.0-13.0-0.20-0.20,0,0,96878,,,,,,11.0,311.0,2000.0,1000.0,0.0,6.0,0.0,20-60,,1.0,desk,small table,60.0,20.0,desk11,small table1,60.0,0.0,Writing_Desk_280_Cutout_Sideview_half.jpg,ATABLE10.jpg,/static/Category_learning/Stimuli/Experimental_stims/desk/Writing_Desk_280_Cutout_Sideview_half.jpg,/static/Category_learning/Stimuli/Experimental_stims/small table/ATABLE10.jpg,,,,,,,,,,1.0,180.5,1.5,,,,,
206,,isi,,html-keyboard-response,206,220299,0.0-1.0-13.0-0.20-2.20,0,0,96878,,,,,,,,,,,,,,,,,,,,,,,,,,,,,,,,,,,,,,182.5,2.0,,,,,
207,,no_response,,html-keyboard-response,207,222271,0.0-1.0-13.0-0.20-4.20-0.20,1,0,96878,,,,,,,,,,,,,,,,,,,,,,,,,,,,,,,,,,,,,,183.5,1.0,,,,,
208,,iti,,html-keyboard-response,208,223549,0.0-1.0-13.0-0.20-5.20,0,0,96878,,,,,,,,,,,,,,,,,,,,,,,,,,,,,,,,,,,,,,187.0,3.5,,,,,
209,,choice,,html-keyboard-response,209,225282,0.0-1.0-13.0-0.21-0.21,0,0,96878,,,,,,11.0,311.0,2000.0,1000.0,0.0,6.0,0.0,20-60,,1.0,desk,small table,60.0,20.0,desk11,small table1,60.0,0.0,Writing_Desk_280_Cutout_Sideview_half.jpg,ATABLE10.jpg,/static/Category_learning/Stimuli/Experimental_stims/desk/Writing_Desk_280_Cutout_Sideview_half.jpg,/static/Category_learning/Stimuli/Experimental_stims/small table/ATABLE10.jpg,,,,,,,,,,1.0,188.5,1.5,,,,,
210,,isi,,html-keyboard-response,210,226644,0.0-1.0-13.0-0.21-2.21,0,0,96878,,,,,,,,,,,,,,,,,,,,,,,,,,,,,,,,,,,,,,191.5,3.0,,,,,
211,,no_response,,html-keyboard-response,211,228645,0.0-1.0-13.0-0.21-4.21-0.21,1,0,96878,,,,,,,,,,,,,,,,,,,,,,,,,,,,,,,,,,,,,,192.5,1.0,,,,,
212,,iti,,html-keyboard-response,212,229576,0.0-1.0-13.0-0.21-5.21,0,0,96878,,,,,,,,,,,,,,,,,,,,,,,,,,,,,,,,,,,,,,194.0,1.5,,,,,
213,,choice,,html-keyboard-response,213,231271,0.0-1.0-13.0-0.22-0.22,0,0,96878,,,,,,11.0,311.0,2000.0,1000.0,0.0,6.0,0.0,20-60,,1.0,desk,small table,60.0,20.0,desk11,small table1,60.0,0.0,Writing_Desk_280_Cutout_Sideview_half.jpg,ATABLE10.jpg,/static/Category_learning/Stimuli/Experimental_stims/desk/Writing_Desk_280_Cutout_Sideview_half.jpg,/static/Category_learning/Stimuli/Experimental_stims/small table/ATABLE10.jpg,,,,,,,,,,1.0,195.5,1.5,,,,,
214,,isi,,html-keyboard-response,214,232272,0.0-1.0-13.0-0.22-2.22,0,0,96878,,,,,,,,,,,,,,,,,,,,,,,,,,,,,,,,,,,,,,197.0,1.5,,,,,
215,,no_response,,html-keyboard-response,215,234204,0.0-1.0-13.0-0.22-4.22-0.22,1,0,96878,,,,,,,,,,,,,,,,,,,,,,,,,,,,,,,,,,,,,,198.0,1.0,,,,,
216,,iti,,html-keyboard-response,216,234326,0.0-1.0-13.0-0.22-5.22,0,0,96878,,,,,,,,,,,,,,,,,,,,,,,,,,,,,,,,,,,,,,199.5,1.5,,,,,
217,,choice,,html-keyboard-response,217,235830,0.0-1.0-13.0-0.23-0.23,0,0,96878,,,,,,11.0,311.0,2000.0,1000.0,0.0,6.0,0.0,20-60,,1.0,desk,small table,60.0,20.0,desk11,small table1,60.0,0.0,Writing_Desk_280_Cutout_Sideview_half.jpg,ATABLE10.jpg,/static/Category_learning/Stimuli/Experimental_stims/desk/Writing_Desk_280_Cutout_Sideview_half.jpg,/static/Category_learning/Stimuli/Experimental_stims/small table/ATABLE10.jpg,,,,,,,,,,1.0,201.0,1.5,,,,,
218,,isi,,html-keyboard-response,218,235933,0.0-1.0-13.0-0.23-2.23,0,0,96878,,,,,,,,,,,,,,,,,,,,,,,,,,,,,,,,,,,,,,202.5,1.5,,,,,
219,,no_response,,html-keyboard-response,219,236940,0.0-1.0-13.0-0.23-4.23-0.23,1,0,96878,,,,,,,,,,,,,,,,,,,,,,,,,,,,,,,,,,,,,,203.5,1.0,,,,,
220,,iti,,html-keyboard-response,220,237061,0.0-1.0-13.0-0.23-5.23,0,0,96878,,,,,,,,,,,,,,,,,,,,,,,,,,,,,,,,,,,,,,205.5,2.0,,,,,
221,,choice,,html-keyboard-response,221,237548,0.0-1.0-13.0-0.24-0.24,0,0,96878,,485.0,,,75.0,11.0,311.0,2000.0,1000.0,0.0,6.0,0.0,20-60,,1.0,desk,small table,60.0,20.0,desk11,small table1,60.0,0.0,Writing_Desk_280_Cutout_Sideview_half.jpg,ATABLE10.jpg,/static/Category_learning/Stimuli/Experimental_stims/desk/Writing_Desk_280_Cutout_Sideview_half.jpg,/static/Category_learning/Stimuli/Experimental_stims/small table/ATABLE10.jpg,0.0,small table,desk,20.0,60.0,small table1,desk11,0.0,60.0,0.0,205.985,0.485,,,,,
222,,confirmation,,html-keyboard-response,222,238568,0.0-1.0-13.0-0.24-1.24-0.24,0,0,96878,,,,,,11.0,,,,,,,,,,,,,,,,,,,,,,,,,,,,,,,,207.0,1.015,,,,,
223,,isi,,html-keyboard-response,223,238673,0.0-1.0-13.0-0.24-2.24,0,0,96878,,,,,,,,,,,,,,,,,,,,,,,,,,,,,,,,,,,,,,208.5,1.5,,,,,
224,,feedback,,html-keyboard-response,224,239677,0.0-1.0-13.0-0.24-3.24-0.24,0,0,96878,,,,,,11.0,,,,,,,,,,,,,,,,,,,,,,,,,,,,,,,,209.5,1.0,,,,,
225,,iti,,html-keyboard-response,225,239783,0.0-1.0-13.0-0.24-5.24,0,0,96878,,,,,,,,,,,,,,,,,,,,,,,,,,,,,,,,,,,,,,211.5,2.0,,,,,
226,,choice,,html-keyboard-response,226,239990,0.0-1.0-14.0-0.0-0.0,0,0,96878,,205.0,,,68.0,12.0,312.0,2000.0,1500.0,0.0,6.0,0.0,20-60,,1.0,fan,patio lounge chair,60.0,20.0,fan5,patio lounge chair15,40.0,0.0,Table_Fan.jpg,phpThumb.jpg,/static/Category_learning/Stimuli/Experimental_stims/fan/Table_Fan.jpg,/static/Category_learning/Stimuli/Experimental_stims/patio lounge chair/phpThumb.jpg,1.0,fan,patio lounge chair,60.0,20.0,fan5,patio lounge chair15,40.0,0.0,0.0,211.705,0.205,,,,,
227,,confirmation,,html-keyboard-response,227,241292,0.0-1.0-14.0-0.0-1.0-0.0,0,0,96878,,,,,,12.0,,,,,,,,,,,,,,,,,,,,,,,,,,,,,,,,213.0,1.295,,,,,
228,,isi,,html-keyboard-response,228,241399,0.0-1.0-14.0-0.0-2.0,0,0,96878,,,,,,,,,,,,,,,,,,,,,,,,,,,,,,,,,,,,,,215.0,2.0,,,,,
229,,feedback,,html-keyboard-response,229,242403,0.0-1.0-14.0-0.0-3.0-0.0,0,0,96878,,,,,,12.0,,,,,,,,,,,,,,,,,,,,,,,,,,,,,,,,216.0,1.0,,,,,
230,,iti,,html-keyboard-response,230,242509,0.0-1.0-14.0-0.0-5.0,0,0,96878,,,,,,,,,,,,,,,,,,,,,,,,,,,,,,,,,,,,,,217.5,1.5,,,,,
231,,choice,,html-keyboard-response,231,242615,0.0-1.0-15.0-0.0-0.0,0,0,96878,,103.0,,,75.0,13.0,313.0,1000.0,1000.0,0.0,6.0,0.0,20-80,,1.0,makeup compact,sofa,80.0,20.0,makeup compact8,sofa14,60.0,0.0,P189207_hero.jpg,HENRY-Sofa-falg8068-05-72X34X34.jpg,/static/Category_learning/Stimuli/Experimental_stims/makeup compact/P189207_hero.jpg,/static/Category_learning/Stimuli/Experimental_stims/sofa/HENRY-Sofa-falg8068-05-72X34X34.jpg,0.0,sofa,makeup compact,20.0,80.0,sofa14,makeup compact8,0.0,60.0,0.0,217.603,0.103,,,,,
232,,confirmation,,html-keyboard-response,232,244018,0.0-1.0-15.0-0.0-1.0-0.0,0,0,96878,,,,,,13.0,,,,,,,,,,,,,,,,,,,,,,,,,,,,,,,,219.0,1.397,,,,,
233,,isi,,html-keyboard-response,233,244123,0.0-1.0-15.0-0.0-2.0,0,0,96878,,,,,,,,,,,,,,,,,,,,,,,,,,,,,,,,,,,,,,220.0,1.0,,,,,
234,,feedback,,html-keyboard-response,234,245129,0.0-1.0-15.0-0.0-3.0-0.0,0,0,96878,,,,,,13.0,,,,,,,,,,,,,,,,,,,,,,,,,,,,,,,,221.0,1.0,,,,,
235,,iti,,html-keyboard-response,235,245233,0.0-1.0-15.0-0.0-5.0,0,0,96878,,,,,,,,,,,,,,,,,,,,,,,,,,,,,,,,,,,,,,222.0,1.0,,,,,
236,,choice,,html-keyboard-response,236,245534,0.0-1.0-16.0-0.0-0.0,0,0,96878,,297.0,,,75.0,14.0,314.0,2000.0,2000.0,0.0,6.0,0.0,20-40,,1.0,telescope,poker card,40.0,20.0,telescope4,poker card10,60.0,40.0,TELESCOPE_BLACK_GOOD_SMALL.jpg,22864488.thl.jpg,/static/Category_learning/Stimuli/Experimental_stims/telescope/TELESCOPE_BLACK_GOOD_SMALL.jpg,/static/Category_learning/Stimuli/Experimental_stims/poker card/22864488.thl.jpg,0.0,poker card,telescope,20.0,40.0,poker card10,telescope4,40.0,60.0,0.0,222.297,0.297,,,,,
237,,confirmation,,html-keyboard-response,237,246743,0.0-1.0-16.0-0.0-1.0-0.0,0,0,96878,,,,,,14.0,,,,,,,,,,,,,,,,,,,,,,,,,,,,,,,,223.5,1.203,,,,,
238,,isi,,html-keyboard-response,238,246850,0.0-1.0-16.0-0.0-2.0,0,0,96878,,,,,,,,,,,,,,,,,,,,,,,,,,,,,,,,,,,,,,225.5,2.0,,,,,
239,,feedback,,html-keyboard-response,239,247853,0.0-1.0-16.0-0.0-3.0-0.0,0,0,96878,,,,,,14.0,,,,,,,,,,,,,,,,,,,,,,,,,,,,,,,,226.5,1.0,,,,,
240,,iti,,html-keyboard-response,240,247959,0.0-1.0-16.0-0.0-5.0,0,0,96878,,,,,,,,,,,,,,,,,,,,,,,,,,,,,,,,,,,,,,228.5,2.0,,,,,
241,,choice,,html-keyboard-response,241,247972,0.0-1.0-17.0-0.0-0.0,0,0,96878,,9.0,,,68.0,15.0,315.0,1500.0,1000.0,0.0,6.0,1.0,60-60,1.0,,bongo,bongo,60.0,60.0,bongo13,bongo1,40.0,60.0,26388718.thl.jpg,ABONGO22.jpg,/static/Category_learning/Stimuli/Experimental_stims/bongo/26388718.thl.jpg,/static/Category_learning/Stimuli/Experimental_stims/bongo/ABONGO22.jpg,1.0,bongo,bongo,60.0,60.0,bongo13,bongo1,40.0,60.0,0.0,228.509,0.009,,,,,
242,,confirmation,,html-keyboard-response,242,249469,0.0-1.0-17.0-0.0-1.0-0.0,0,0,96878,,,,,,15.0,,,,,,,,,,,,,,,,,,,,,,,,,,,,,,,,230.0,1.491,,,,,
243,,isi,,html-keyboard-response,243,249574,0.0-1.0-17.0-0.0-2.0,0,0,96878,,,,,,,,,,,,,,,,,,,,,,,,,,,,,,,,,,,,,,231.5,1.5,,,,,
244,,feedback,,html-keyboard-response,244,250577,0.0-1.0-17.0-0.0-3.0-0.0,0,0,96878,,,,,,15.0,,,,,,,,,,,,,,,,,,,,,,,,,,,,,,,,232.5,1.0,,,,,
245,,iti,,html-keyboard-response,245,250684,0.0-1.0-17.0-0.0-5.0,0,0,96878,,,,,,,,,,,,,,,,,,,,,,,,,,,,,,,,,,,,,,233.5,1.0,,,,,
246,,choice,,html-keyboard-response,246,250874,0.0-1.0-18.0-0.0-0.0,0,0,96878,,186.0,,,68.0,16.0,316.0,1500.0,1000.0,0.0,6.0,1.0,80-80,0.0,,license plate,lipstick,80.0,80.0,license plate6,lipstick14,100.0,60.0,ak-cru-684.jpg,P109907_hero.jpg,/static/Category_learning/Stimuli/Experimental_stims/license plate/ak-cru-684.jpg,/static/Category_learning/Stimuli/Experimental_stims/lipstick/P109907_hero.jpg,1.0,license plate,lipstick,80.0,80.0,license plate6,lipstick14,100.0,60.0,0.0,233.686,0.186,,,,,
247,,confirmation,,html-keyboard-response,247,252196,0.0-1.0-18.0-0.0-1.0-0.0,0,0,96878,,,,,,16.0,,,,,,,,,,,,,,,,,,,,,,,,,,,,,,,,235.0,1.314,,,,,
248,,isi,,html-keyboard-response,248,252300,0.0-1.0-18.0-0.0-2.0,0,0,96878,,,,,,,,,,,,,,,,,,,,,,,,,,,,,,,,,,,,,,236.5,1.5,,,,,
249,,feedback,,html-keyboard-response,249,253304,0.0-1.0-18.0-0.0-3.0-0.0,0,0,96878,,,,,,16.0,,,,,,,,,,,,,,,,,,,,,,,,,,,,,,,,237.5,1.0,,,,,
250,,iti,,html-keyboard-response,250,253406,0.0-1.0-18.0-0.0-5.0,0,0,96878,,,,,,,,,,,,,,,,,,,,,,,,,,,,,,,,,,,,,,238.5,1.0,,,,,
251,,choice,,html-keyboard-response,251,253644,0.0-1.0-19.0-0.0-0.0,0,0,96878,,234.0,,,75.0,17.0,317.0,1000.0,1000.0,0.0,6.0,0.0,80-80,,,hammer,license plate,80.0,80.0,hammer13,license plate15,80.0,80.0,hammer2.jpg,hi-hwr-837.jpg,/static/Category_learning/Stimuli/Experimental_stims/hammer/hammer2.jpg,/static/Category_learning/Stimuli/Experimental_stims/license plate/hi-hwr-837.jpg,0.0,license plate,hammer,80.0,80.0,license plate15,hammer13,80.0,80.0,0.0,238.734,0.234,,,,,
252,,confirmation,,html-keyboard-response,252,254914,0.0-1.0-19.0-0.0-1.0-0.0,0,0,96878,,,,,,17.0,,,,,,,,,,,,,,,,,,,,,,,,,,,,,,,,240.0,1.266,,,,,
253,,isi,,html-keyboard-response,253,255020,0.0-1.0-19.0-0.0-2.0,0,0,96878,,,,,,,,,,,,,,,,,,,,,,,,,,,,,,,,,,,,,,241.0,1.0,,,,,
254,,feedback,,html-keyboard-response,254,256023,0.0-1.0-19.0-0.0-3.0-0.0,0,0,96878,,,,,,17.0,,,,,,,,,,,,,,,,,,,,,,,,,,,,,,,,242.0,1.0,,,,,
255,,iti,,html-keyboard-response,255,256127,0.0-1.0-19.0-0.0-5.0,0,0,96878,,,,,,,,,,,,,,,,,,,,,,,,,,,,,,,,,,,,,,243.0,1.0,,,,,
256,,choice,,html-keyboard-response,256,256305,0.0-1.0-20.0-0.0-0.0,0,0,96878,,175.0,,,68.0,18.0,318.0,3500.0,1000.0,0.0,6.0,1.0,20-60,0.0,,poker card,fan,20.0,60.0,poker card10,fan5,40.0,40.0,22864488.thl.jpg,Table_Fan.jpg,/static/Category_learning/Stimuli/Experimental_stims/poker card/22864488.thl.jpg,/static/Category_learning/Stimuli/Experimental_stims/fan/Table_Fan.jpg,1.0,poker card,fan,20.0,60.0,poker card10,fan5,40.0,40.0,0.0,243.175,0.175,,,,,
257,,confirmation,,html-keyboard-response,257,257633,0.0-1.0-20.0-0.0-1.0-0.0,0,0,96878,,,,,,18.0,,,,,,,,,,,,,,,,,,,,,,,,,,,,,,,,244.5,1.325,,,,,
258,,isi,,html-keyboard-response,258,257740,0.0-1.0-20.0-0.0-2.0,0,0,96878,,,,,,,,,,,,,,,,,,,,,,,,,,,,,,,,,,,,,,248.0,3.5,,,,,
259,,feedback,,html-keyboard-response,259,258748,0.0-1.0-20.0-0.0-3.0-0.0,0,0,96878,,,,,,18.0,,,,,,,,,,,,,,,,,,,,,,,,,,,,,,,,249.0,1.0,,,,,
260,,iti,,html-keyboard-response,260,258855,0.0-1.0-20.0-0.0-5.0,0,0,96878,,,,,,,,,,,,,,,,,,,,,,,,,,,,,,,,,,,,,,250.0,1.0,,,,,
261,,choice,,html-keyboard-response,261,258936,0.0-1.0-21.0-0.0-0.0,0,0,96878,,78.0,,,68.0,19.0,319.0,3000.0,3000.0,0.0,6.0,0.0,20-60,,1.0,flashlight,small table,60.0,20.0,flashlight11,small table15,40.0,0.0,new04.jpg,ATABLE20.jpg,/static/Category_learning/Stimuli/Experimental_stims/flashlight/new04.jpg,/static/Category_learning/Stimuli/Experimental_stims/small table/ATABLE20.jpg,1.0,flashlight,small table,60.0,20.0,flashlight11,small table15,40.0,0.0,0.0,250.078,0.078,,,,,
262,,confirmation,,html-keyboard-response,262,260362,0.0-1.0-21.0-0.0-1.0-0.0,0,0,96878,,,,,,19.0,,,,,,,,,,,,,,,,,,,,,,,,,,,,,,,,251.5,1.422,,,,,
263,,isi,,html-keyboard-response,263,260466,0.0-1.0-21.0-0.0-2.0,0,0,96878,,,,,,,,,,,,,,,,,,,,,,,,,,,,,,,,,,,,,,254.5,3.0,,,,,
264,,feedback,,html-keyboard-response,264,261473,0.0-1.0-21.0-0.0-3.0-0.0,0,0,96878,,,,,,19.0,,,,,,,,,,,,,,,,,,,,,,,,,,,,,,,,255.5,1.0,,,,,
265,,iti,,html-keyboard-response,265,261576,0.0-1.0-21.0-0.0-5.0,0,0,96878,,,,,,,,,,,,,,,,,,,,,,,,,,,,,,,,,,,,,,258.5,3.0,,,,,
266,,choice,,html-keyboard-response,266,261673,0.0-1.0-22.0-0.0-0.0,0,0,96878,,94.0,,,68.0,20.0,320.0,1000.0,1500.0,0.0,6.0,0.0,40-60,,1.0,bench,vase,60.0,40.0,bench6,vase3,80.0,20.0,26370121.thl.jpg,vase-006af-1.jpg,/static/Category_learning/Stimuli/Experimental_stims/bench/26370121.thl.jpg,/static/Category_learning/Stimuli/Experimental_stims/vase/vase-006af-1.jpg,1.0,bench,vase,60.0,40.0,bench6,vase3,80.0,20.0,0.0,258.594,0.094,,,,,
267,,confirmation,,html-keyboard-response,267,263084,0.0-1.0-22.0-0.0-1.0-0.0,0,0,96878,,,,,,20.0,,,,,,,,,,,,,,,,,,,,,,,,,,,,,,,,260.0,1.406,,,,,
268,,isi,,html-keyboard-response,268,263188,0.0-1.0-22.0-0.0-2.0,0,0,96878,,,,,,,,,,,,,,,,,,,,,,,,,,,,,,,,,,,,,,261.0,1.0,,,,,
269,,feedback,,html-keyboard-response,269,264196,0.0-1.0-22.0-0.0-3.0-0.0,0,0,96878,,,,,,20.0,,,,,,,,,,,,,,,,,,,,,,,,,,,,,,,,262.0,1.0,,,,,
270,,iti,,html-keyboard-response,270,264300,0.0-1.0-22.0-0.0-5.0,0,0,96878,,,,,,,,,,,,,,,,,,,,,,,,,,,,,,,,,,,,,,263.5,1.5,,,,,
271,,choice,,html-keyboard-response,271,264334,0.0-1.0-23.0-0.0-0.0,0,0,96878,,29.0,,,75.0,21.0,321.0,1500.0,2000.0,0.0,6.0,0.0,20-60,,0.0,seashell,desk,20.0,60.0,seashell15,desk9,20.0,60.0,ASEASHE39.jpg,desk 189dr96dr chr.jpg,/static/Category_learning/Stimuli/Experimental_stims/seashell/ASEASHE39.jpg,/static/Category_learning/Stimuli/Experimental_stims/desk/desk 189dr96dr chr.jpg,0.0,desk,seashell,60.0,20.0,desk9,seashell15,60.0,20.0,0.0,263.529,0.029,,,,,
272,,confirmation,,html-keyboard-response,272,265809,0.0-1.0-23.0-0.0-1.0-0.0,0,0,96878,,,,,,21.0,,,,,,,,,,,,,,,,,,,,,,,,,,,,,,,,265.0,1.471,,,,,
273,,isi,,html-keyboard-response,273,265916,0.0-1.0-23.0-0.0-2.0,0,0,96878,,,,,,,,,,,,,,,,,,,,,,,,,,,,,,,,,,,,,,266.5,1.5,,,,,
274,,feedback,,html-keyboard-response,274,266919,0.0-1.0-23.0-0.0-3.0-0.0,0,0,96878,,,,,,21.0,,,,,,,,,,,,,,,,,,,,,,,,,,,,,,,,267.5,1.0,,,,,
275,,iti,,html-keyboard-response,275,267025,0.0-1.0-23.0-0.0-5.0,0,0,96878,,,,,,,,,,,,,,,,,,,,,,,,,,,,,,,,,,,,,,269.5,2.0,,,,,
276,,choice,,html-keyboard-response,276,267265,0.0-1.0-24.0-0.0-0.0,0,0,96878,,236.0,,,68.0,22.0,322.0,2000.0,2000.0,0.0,6.0,1.0,20-40,0.0,,vase,sofa,40.0,20.0,vase10,sofa14,60.0,0.0,Avase143.jpg,HENRY-Sofa-falg8068-05-72X34X34.jpg,/static/Category_learning/Stimuli/Experimental_stims/vase/Avase143.jpg,/static/Category_learning/Stimuli/Experimental_stims/sofa/HENRY-Sofa-falg8068-05-72X34X34.jpg,1.0,vase,sofa,40.0,20.0,vase10,sofa14,60.0,0.0,0.0,269.736,0.236,,,,,
277,,confirmation,,html-keyboard-response,277,268536,0.0-1.0-24.0-0.0-1.0-0.0,0,0,96878,,,,,,22.0,,,,,,,,,,,,,,,,,,,,,,,,,,,,,,,,271.0,1.264,,,,,
278,,isi,,html-keyboard-response,278,268641,0.0-1.0-24.0-0.0-2.0,0,0,96878,,,,,,,,,,,,,,,,,,,,,,,,,,,,,,,,,,,,,,273.0,2.0,,,,,
279,,feedback,,html-keyboard-response,279,269645,0.0-1.0-24.0-0.0-3.0-0.0,0,0,96878,,,,,,22.0,,,,,,,,,,,,,,,,,,,,,,,,,,,,,,,,274.0,1.0,,,,,
280,,iti,,html-keyboard-response,280,269751,0.0-1.0-24.0-0.0-5.0,0,0,96878,,,,,,,,,,,,,,,,,,,,,,,,,,,,,,,,,,,,,,276.0,2.0,,,,,
281,,choice,,html-keyboard-response,281,269913,0.0-1.0-25.0-0.0-0.0,0,0,96878,,159.0,,,68.0,23.0,323.0,1000.0,2000.0,0.0,6.0,0.0,20-60,,1.0,flashlight,patio lounge chair,60.0,20.0,flashlight6,patio lounge chair3,80.0,40.0,Flashlight.jpg,Lounge_Chair.jpg,/static/Category_learning/Stimuli/Experimental_stims/flashlight/Flashlight.jpg,/static/Category_learning/Stimuli/Experimental_stims/patio lounge chair/Lounge_Chair.jpg,1.0,flashlight,patio lounge chair,60.0,20.0,flashlight6,patio lounge chair3,80.0,40.0,0.0,276.159,0.159,,,,,
282,,confirmation,,html-keyboard-response,282,271260,0.0-1.0-25.0-0.0-1.0-0.0,0,0,96878,,,,,,23.0,,,,,,,,,,,,,,,,,,,,,,,,,,,,,,,,277.5,1.341,,,,,
283,,isi,,html-keyboard-response,283,271367,0.0-1.0-25.0-0.0-2.0,0,0,96878,,,,,,,,,,,,,,,,,,,,,,,,,,,,,,,,,,,,,,278.5,1.0,,,,,
284,,feedback,,html-keyboard-response,284,272370,0.0-1.0-25.0-0.0-3.0-0.0,0,0,96878,,,,,,23.0,,,,,,,,,,,,,,,,,,,,,,,,,,,,,,,,279.5,1.0,,,,,
285,,iti,,html-keyboard-response,285,272476,0.0-1.0-25.0-0.0-5.0,0,0,96878,,,,,,,,,,,,,,,,,,,,,,,,,,,,,,,,,,,,,,281.5,2.0,,,,,
286,,choice,,html-keyboard-response,286,272487,0.0-1.0-26.0-0.0-0.0,0,0,96878,,8.0,,,68.0,24.0,324.0,1000.0,1000.0,0.0,6.0,0.0,60-60,,,bowl,fan,60.0,60.0,bowl4,fan9,60.0,40.0,Abowl77.jpg,FT-40A.jpg,/static/Category_learning/Stimuli/Experimental_stims/bowl/Abowl77.jpg,/static/Category_learning/Stimuli/Experimental_stims/fan/FT-40A.jpg,1.0,bowl,fan,60.0,60.0,bowl4,fan9,60.0,40.0,0.0,281.508,0.008,,,,,
287,,confirmation,,html-keyboard-response,287,273984,0.0-1.0-26.0-0.0-1.0-0.0,0,0,96878,,,,,,24.0,,,,,,,,,,,,,,,,,,,,,,,,,,,,,,,,283.0,1.492,,,,,
288,,isi,,html-keyboard-response,288,274089,0.0-1.0-26.0-0.0-2.0,0,0,96878,,,,,,,,,,,,,,,,,,,,,,,,,,,,,,,,,,,,,,284.0,1.0,,,,,
289,,feedback,,html-keyboard-response,289,275096,0.0-1.0-26.0-0.0-3.0-0.0,0,0,96878,,,,,,24.0,,,,,,,,,,,,,,,,,,,,,,,,,,,,,,,,285.0,1.0,,,,,
290,,iti,,html-keyboard-response,290,275202,0.0-1.0-26.0-0.0-5.0,0,0,96878,,,,,,,,,,,,,,,,,,,,,,,,,,,,,,,,,,,,,,286.0,1.0,,,,,
291,,choice,,html-keyboard-response,291,276707,0.0-1.0-27.0-0.0-0.0,0,0,96878,,,,,,25.0,325.0,1500.0,1500.0,0.0,6.0,0.0,40-80,,1.0,hammer,vase,80.0,40.0,hammer11,vase12,60.0,20.0,8oz-hammer-copy.jpg,Abluevase2.jpg,/static/Category_learning/Stimuli/Experimental_stims/hammer/8oz-hammer-copy.jpg,/static/Category_learning/Stimuli/Experimental_stims/vase/Abluevase2.jpg,,,,,,,,,,1.0,287.5,1.5,,,,,
292,,isi,,html-keyboard-response,292,276811,0.0-1.0-27.0-0.0-2.0,0,0,96878,,,,,,,,,,,,,,,,,,,,,,,,,,,,,,,,,,,,,,289.0,1.5,,,,,
293,,no_response,,html-keyboard-response,293,277815,0.0-1.0-27.0-0.0-4.0-0.0,1,0,96878,,,,,,,,,,,,,,,,,,,,,,,,,,,,,,,,,,,,,,290.0,1.0,,,,,
294,,iti,,html-keyboard-response,294,277933,0.0-1.0-27.0-0.0-5.0,0,0,96878,,,,,,,,,,,,,,,,,,,,,,,,,,,,,,,,,,,,,,291.5,1.5,,,,,
295,,choice,,html-keyboard-response,295,279437,0.0-1.0-27.0-0.1-0.1,0,0,96878,,,,,,25.0,325.0,1500.0,1500.0,0.0,6.0,0.0,40-80,,1.0,hammer,vase,80.0,40.0,hammer11,vase12,60.0,20.0,8oz-hammer-copy.jpg,Abluevase2.jpg,/static/Category_learning/Stimuli/Experimental_stims/hammer/8oz-hammer-copy.jpg,/static/Category_learning/Stimuli/Experimental_stims/vase/Abluevase2.jpg,,,,,,,,,,1.0,293.0,1.5,,,,,
296,,isi,,html-keyboard-response,296,279543,0.0-1.0-27.0-0.1-2.1,0,0,96878,,,,,,,,,,,,,,,,,,,,,,,,,,,,,,,,,,,,,,294.0,1.0,,,,,
297,,no_response,,html-keyboard-response,297,280545,0.0-1.0-27.0-0.1-4.1-0.1,1,0,96878,,,,,,,,,,,,,,,,,,,,,,,,,,,,,,,,,,,,,,295.0,1.0,,,,,
298,,iti,,html-keyboard-response,298,280668,0.0-1.0-27.0-0.1-5.1,0,0,96878,,,,,,,,,,,,,,,,,,,,,,,,,,,,,,,,,,,,,,297.0,2.0,,,,,
299,,choice,,html-keyboard-response,299,282172,0.0-1.0-27.0-0.2-0.2,0,0,96878,,,,,,25.0,325.0,1500.0,1500.0,0.0,6.0,0.0,40-80,,1.0,hammer,vase,80.0,40.0,hammer11,vase12,60.0,20.0,8oz-hammer-copy.jpg,Abluevase2.jpg,/static/Category_learning/Stimuli/Experimental_stims/hammer/8oz-hammer-copy.jpg,/static/Category_learning/Stimuli/Experimental_stims/vase/Abluevase2.jpg,,,,,,,,,,1.0,298.5,1.5,,,,,
300,,isi,,html-keyboard-response,300,282278,0.0-1.0-27.0-0.2-2.2,0,0,96878,,,,,,,,,,,,,,,,,,,,,,,,,,,,,,,,,,,,,,300.5,2.0,,,,,
301,,no_response,,html-keyboard-response,301,283281,0.0-1.0-27.0-0.2-4.2-0.2,1,0,96878,,,,,,,,,,,,,,,,,,,,,,,,,,,,,,,,,,,,,,301.5,1.0,,,,,
302,,iti,,html-keyboard-response,302,283399,0.0-1.0-27.0-0.2-5.2,0,0,96878,,,,,,,,,,,,,,,,,,,,,,,,,,,,,,,,,,,,,,303.5,2.0,,,,,
303,,choice,,html-keyboard-response,303,284904,0.0-1.0-27.0-0.3-0.3,0,0,96878,,,,,,25.0,325.0,1500.0,1500.0,0.0,6.0,0.0,40-80,,1.0,hammer,vase,80.0,40.0,hammer11,vase12,60.0,20.0,8oz-hammer-copy.jpg,Abluevase2.jpg,/static/Category_learning/Stimuli/Experimental_stims/hammer/8oz-hammer-copy.jpg,/static/Category_learning/Stimuli/Experimental_stims/vase/Abluevase2.jpg,,,,,,,,,,1.0,305.0,1.5,,,,,
304,,isi,,html-keyboard-response,304,285010,0.0-1.0-27.0-0.3-2.3,0,0,96878,,,,,,,,,,,,,,,,,,,,,,,,,,,,,,,,,,,,,,306.0,1.0,,,,,
305,,no_response,,html-keyboard-response,305,286017,0.0-1.0-27.0-0.3-4.3-0.3,1,0,96878,,,,,,,,,,,,,,,,,,,,,,,,,,,,,,,,,,,,,,307.0,1.0,,,,,
306,,iti,,html-keyboard-response,306,286135,0.0-1.0-27.0-0.3-5.3,0,0,96878,,,,,,,,,,,,,,,,,,,,,,,,,,,,,,,,,,,,,,309.0,2.0,,,,,
307,,choice,,html-keyboard-response,307,287638,0.0-1.0-27.0-0.4-0.4,0,0,96878,,,,,,25.0,325.0,1500.0,1500.0,0.0,6.0,0.0,40-80,,1.0,hammer,vase,80.0,40.0,hammer11,vase12,60.0,20.0,8oz-hammer-copy.jpg,Abluevase2.jpg,/static/Category_learning/Stimuli/Experimental_stims/hammer/8oz-hammer-copy.jpg,/static/Category_learning/Stimuli/Experimental_stims/vase/Abluevase2.jpg,,,,,,,,,,1.0,310.5,1.5,,,,,
308,,isi,,html-keyboard-response,308,287746,0.0-1.0-27.0-0.4-2.4,0,0,96878,,,,,,,,,,,,,,,,,,,,,,,,,,,,,,,,,,,,,,311.5,1.0,,,,,
309,,no_response,,html-keyboard-response,309,288751,0.0-1.0-27.0-0.4-4.4-0.4,1,0,96878,,,,,,,,,,,,,,,,,,,,,,,,,,,,,,,,,,,,,,312.5,1.0,,,,,
310,,iti,,html-keyboard-response,310,288865,0.0-1.0-27.0-0.4-5.4,0,0,96878,,,,,,,,,,,,,,,,,,,,,,,,,,,,,,,,,,,,,,313.5,1.0,,,,,
311,,choice,,html-keyboard-response,311,290368,0.0-1.0-27.0-0.5-0.5,0,0,96878,,,,,,25.0,325.0,1500.0,1500.0,0.0,6.0,0.0,40-80,,1.0,hammer,vase,80.0,40.0,hammer11,vase12,60.0,20.0,8oz-hammer-copy.jpg,Abluevase2.jpg,/static/Category_learning/Stimuli/Experimental_stims/hammer/8oz-hammer-copy.jpg,/static/Category_learning/Stimuli/Experimental_stims/vase/Abluevase2.jpg,,,,,,,,,,1.0,315.0,1.5,,,,,
312,,isi,,html-keyboard-response,312,290476,0.0-1.0-27.0-0.5-2.5,0,0,96878,,,,,,,,,,,,,,,,,,,,,,,,,,,,,,,,,,,,,,316.0,1.0,,,,,
313,,no_response,,html-keyboard-response,313,291480,0.0-1.0-27.0-0.5-4.5-0.5,1,0,96878,,,,,,,,,,,,,,,,,,,,,,,,,,,,,,,,,,,,,,317.0,1.0,,,,,
314,,iti,,html-keyboard-response,314,291596,0.0-1.0-27.0-0.5-5.5,0,0,96878,,,,,,,,,,,,,,,,,,,,,,,,,,,,,,,,,,,,,,318.0,1.0,,,,,
315,,choice,,html-keyboard-response,315,293100,0.0-1.0-27.0-0.6-0.6,0,0,96878,,,,,,25.0,325.0,1500.0,1500.0,0.0,6.0,0.0,40-80,,1.0,hammer,vase,80.0,40.0,hammer11,vase12,60.0,20.0,8oz-hammer-copy.jpg,Abluevase2.jpg,/static/Category_learning/Stimuli/Experimental_stims/hammer/8oz-hammer-copy.jpg,/static/Category_learning/Stimuli/Experimental_stims/vase/Abluevase2.jpg,,,,,,,,,,1.0,319.5,1.5,,,,,
316,,isi,,html-keyboard-response,316,293206,0.0-1.0-27.0-0.6-2.6,0,0,96878,,,,,,,,,,,,,,,,,,,,,,,,,,,,,,,,,,,,,,320.5,1.0,,,,,
317,,no_response,,html-keyboard-response,317,294210,0.0-1.0-27.0-0.6-4.6-0.6,1,0,96878,,,,,,,,,,,,,,,,,,,,,,,,,,,,,,,,,,,,,,321.5,1.0,,,,,
318,,iti,,html-keyboard-response,318,294327,0.0-1.0-27.0-0.6-5.6,0,0,96878,,,,,,,,,,,,,,,,,,,,,,,,,,,,,,,,,,,,,,322.5,1.0,,,,,
319,,choice,,html-keyboard-response,319,294773,0.0-1.0-27.0-0.7-0.7,0,0,96878,,442.0,,,68.0,25.0,325.0,1500.0,1500.0,0.0,6.0,0.0,40-80,,1.0,hammer,vase,80.0,40.0,hammer11,vase12,60.0,20.0,8oz-hammer-copy.jpg,Abluevase2.jpg,/static/Category_learning/Stimuli/Experimental_stims/hammer/8oz-hammer-copy.jpg,/static/Category_learning/Stimuli/Experimental_stims/vase/Abluevase2.jpg,1.0,hammer,vase,80.0,40.0,hammer11,vase12,60.0,20.0,0.0,322.942,0.442,,,,,
320,,confirmation,,html-keyboard-response,320,295834,0.0-1.0-27.0-0.7-1.7-0.7,0,0,96878,,,,,,25.0,,,,,,,,,,,,,,,,,,,,,,,,,,,,,,,,324.0,1.058,,,,,
321,,isi,,html-keyboard-response,321,295939,0.0-1.0-27.0-0.7-2.7,0,0,96878,,,,,,,,,,,,,,,,,,,,,,,,,,,,,,,,,,,,,,325.0,1.0,,,,,
322,,feedback,,html-keyboard-response,322,296942,0.0-1.0-27.0-0.7-3.7-0.7,0,0,96878,,,,,,25.0,,,,,,,,,,,,,,,,,,,,,,,,,,,,,,,,326.0,1.0,,,,,
323,,iti,,html-keyboard-response,323,297046,0.0-1.0-27.0-0.7-5.7,0,0,96878,,,,,,,,,,,,,,,,,,,,,,,,,,,,,,,,,,,,,,327.0,1.0,,,,,
324,,choice,,html-keyboard-response,324,297109,0.0-1.0-28.0-0.0-0.0,0,0,96878,,60.0,,,68.0,26.0,326.0,1500.0,1000.0,0.0,6.0,0.0,80-80,,,motorcycle,microscope,80.0,80.0,motorcycle8,microscope7,80.0,80.0,Motorcycle903425j2.jpg,microscope.jpg,/static/Category_learning/Stimuli/Experimental_stims/motorcycle/Motorcycle903425j2.jpg,/static/Category_learning/Stimuli/Experimental_stims/microscope/microscope.jpg,1.0,motorcycle,microscope,80.0,80.0,motorcycle8,microscope7,80.0,80.0,0.0,327.06,0.06,,,,,
325,,confirmation,,html-keyboard-response,325,298556,0.0-1.0-28.0-0.0-1.0-0.0,0,0,96878,,,,,,26.0,,,,,,,,,,,,,,,,,,,,,,,,,,,,,,,,328.5,1.44,,,,,
326,,isi,,html-keyboard-response,326,298662,0.0-1.0-28.0-0.0-2.0,0,0,96878,,,,,,,,,,,,,,,,,,,,,,,,,,,,,,,,,,,,,,330.0,1.5,,,,,
327,,feedback,,html-keyboard-response,327,299665,0.0-1.0-28.0-0.0-3.0-0.0,0,0,96878,,,,,,26.0,,,,,,,,,,,,,,,,,,,,,,,,,,,,,,,,331.0,1.0,,,,,
328,,iti,,html-keyboard-response,328,299771,0.0-1.0-28.0-0.0-5.0,0,0,96878,,,,,,,,,,,,,,,,,,,,,,,,,,,,,,,,,,,,,,332.0,1.0,,,,,
329,,choice,,html-keyboard-response,329,299983,0.0-1.0-29.0-0.0-0.0,0,0,96878,,209.0,,,75.0,27.0,327.0,1000.0,1500.0,0.0,6.0,0.0,20-80,,1.0,frame,small table,80.0,20.0,frame3,small table11,60.0,40.0,AFRAME132.jpg,ATABLE83.jpg,/static/Category_learning/Stimuli/Experimental_stims/frame/AFRAME132.jpg,/static/Category_learning/Stimuli/Experimental_stims/small table/ATABLE83.jpg,0.0,small table,frame,20.0,80.0,small table11,frame3,40.0,60.0,0.0,332.209,0.209,,,,,
330,,confirmation,,html-keyboard-response,330,301281,0.0-1.0-29.0-0.0-1.0-0.0,0,0,96878,,,,,,27.0,,,,,,,,,,,,,,,,,,,,,,,,,,,,,,,,333.5,1.291,,,,,
331,,isi,,html-keyboard-response,331,301387,0.0-1.0-29.0-0.0-2.0,0,0,96878,,,,,,,,,,,,,,,,,,,,,,,,,,,,,,,,,,,,,,334.5,1.0,,,,,
332,,feedback,,html-keyboard-response,332,302394,0.0-1.0-29.0-0.0-3.0-0.0,0,0,96878,,,,,,27.0,,,,,,,,,,,,,,,,,,,,,,,,,,,,,,,,335.5,1.0,,,,,
333,,iti,,html-keyboard-response,333,302500,0.0-1.0-29.0-0.0-5.0,0,0,96878,,,,,,,,,,,,,,,,,,,,,,,,,,,,,,,,,,,,,,337.0,1.5,,,,,
334,,choice,,html-keyboard-response,334,304006,0.0-1.0-30.0-0.0-0.0,0,0,96878,,,,,,28.0,328.0,1000.0,3500.0,0.0,6.0,0.0,20-40,,0.0,power strip,tent,20.0,40.0,power strip2,tent9,40.0,60.0,59d69605-c8c8-4899-bd98-2ef78045147e_300.jpg,Red Canyon Tent.jpg,/static/Category_learning/Stimuli/Experimental_stims/power strip/59d69605-c8c8-4899-bd98-2ef78045147e_300.jpg,/static/Category_learning/Stimuli/Experimental_stims/tent/Red Canyon Tent.jpg,,,,,,,,,,1.0,338.5,1.5,,,,,
335,,isi,,html-keyboard-response,335,304113,0.0-1.0-30.0-0.0-2.0,0,0,96878,,,,,,,,,,,,,,,,,,,,,,,,,,,,,,,,,,,,,,339.5,1.0,,,,,
336,,no_response,,html-keyboard-response,336,305118,0.0-1.0-30.0-0.0-4.0-0.0,1,0,96878,,,,,,,,,,,,,,,,,,,,,,,,,,,,,,,,,,,,,,340.5,1.0,,,,,
337,,iti,,html-keyboard-response,337,305236,0.0-1.0-30.0-0.0-5.0,0,0,96878,,,,,,,,,,,,,,,,,,,,,,,,,,,,,,,,,,,,,,344.0,3.5,,,,,
338,,choice,,html-keyboard-response,338,306742,0.0-1.0-30.0-0.1-0.1,0,0,96878,,,,,,28.0,328.0,1000.0,3500.0,0.0,6.0,0.0,20-40,,0.0,power strip,tent,20.0,40.0,power strip2,tent9,40.0,60.0,59d69605-c8c8-4899-bd98-2ef78045147e_300.jpg,Red Canyon Tent.jpg,/static/Category_learning/Stimuli/Experimental_stims/power strip/59d69605-c8c8-4899-bd98-2ef78045147e_300.jpg,/static/Category_learning/Stimuli/Experimental_stims/tent/Red Canyon Tent.jpg,,,,,,,,,,1.0,345.5,1.5,,,,,
339,,isi,,html-keyboard-response,339,306851,0.0-1.0-30.0-0.1-2.1,0,0,96878,,,,,,,,,,,,,,,,,,,,,,,,,,,,,,,,,,,,,,346.5,1.0,,0.6,,,
340,,final_tally,,html-keyboard-response,340,309281,0.0-2.0-0.0,0,0,96878,,2427.0,,,68.0,,,,,,,,,,,,,,,,,,,,,,,,,,,,,,,,,,,,,,,
341,,category_memory_instructions,,instructions,341,310960,0.0-3.0-0.0,0,0,96878,"[{""page_index"":0,""viewing_time"":1343},{""page_index"":1,""viewing_time"":187},{""page_index"":2,""viewing_time"":129}]",1659.0,,,,,,,,,,,,,,,,,,,,,,,,,,,,,,,,,,,,,,,,,,
342,,category_memory,,survey-text,342,315960,0.0-3.0-1.0-0.0,0,0,96878,,4997.0,"{""Q0"":""0""}",,,0.0,,,,,,,,,,,,,,,,,,,,,,,,,,,,,,,,,,,,telescope,40.0,0.0
343,,category_memory,,survey-text,343,318005,0.0-3.0-2.0-0.0,0,0,96878,,2041.0,"{""Q0"":""0""}",,,1.0,,,,,,,,,,,,,,,,,,,,,,,,,,,,,,,,,,,,patio lounge chair,20.0,0.0
344,,category_memory,,survey-text,344,319285,0.0-3.0-3.0-0.0,0,0,96878,,1277.0,"{""Q0"":""0""}",,,2.0,,,,,,,,,,,,,,,,,,,,,,,,,,,,,,,,,,,,key chain,80.0,0.0
345,,category_memory,,survey-text,345,320478,0.0-3.0-4.0-0.0,0,0,96878,,1189.0,"{""Q0"":""0""}",,,3.0,,,,,,,,,,,,,,,,,,,,,,,,,,,,,,,,,,,,stool,40.0,0.0
346,,category_memory,,survey-text,346,321858,0.0-3.0-5.0-0.0,0,0,96878,,1375.0,"{""Q0"":""0""}",,,4.0,,,,,,,,,,,,,,,,,,,,,,,,,,,,,,,,,,,,flashlight,60.0,0.0
347,,category_memory,,survey-text,347,323658,0.0-3.0-6.0-0.0,0,0,96878,,1798.0,"{""Q0"":""0""}",,,5.0,,,,,,,,,,,,,,,,,,,,,,,,,,,,,,,,,,,,watch,40.0,0.0
348,,category_memory,,survey-text,348,324724,0.0-3.0-7.0-0.0,0,0,96878,,1062.0,"{""Q0"":""0""}",,,6.0,,,,,,,,,,,,,,,,,,,,,,,,,,,,,,,,,,,,desk,60.0,0.0
349,,category_memory,,survey-text,349,326024,0.0-3.0-8.0-0.0,0,0,96878,,1297.0,"{""Q0"":""0""}",,,7.0,,,,,,,,,,,,,,,,,,,,,,,,,,,,,,,,,,,,door knob,60.0,0.0
350,,category_memory,,survey-text,350,328304,0.0-3.0-9.0-0.0,0,0,96878,,2277.0,"{""Q0"":""0""}",,,8.0,,,,,,,,,,,,,,,,,,,,,,,,,,,,,,,,,,,,trumpet,40.0,0.0
351,,category_memory,,survey-text,351,329211,0.0-3.0-10.0-0.0,0,0,96878,,904.0,"{""Q0"":""0""}",,,9.0,,,,,,,,,,,,,,,,,,,,,,,,,,,,,,,,,,,,makeup compact,80.0,0.0
352,,category_memory,,survey-text,352,330082,0.0-3.0-11.0-0.0,0,0,96878,,868.0,"{""Q0"":""0""}",,,10.0,,,,,,,,,,,,,,,,,,,,,,,,,,,,,,,,,,,,hammer,80.0,0.0
353,,category_memory,,survey-text,353,331110,0.0-3.0-12.0-0.0,0,0,96878,,1025.0,"{""Q0"":""0""}",,,11.0,,,,,,,,,,,,,,,,,,,,,,,,,,,,,,,,,,,,microscope,80.0,0.0
354,,category_memory,,survey-text,354,332057,0.0-3.0-13.0-0.0,0,0,96878,,943.0,"{""Q0"":""0""}",,,12.0,,,,,,,,,,,,,,,,,,,,,,,,,,,,,,,,,,,,baby carriage,60.0,0.0
355,,category_memory,,survey-text,355,333054,0.0-3.0-14.0-0.0,0,0,96878,,994.0,"{""Q0"":""0""}",,,13.0,,,,,,,,,,,,,,,,,,,,,,,,,,,,,,,,,,,,lipstick,80.0,0.0
356,,category_memory,,survey-text,356,334037,0.0-3.0-15.0-0.0,0,0,96878,,980.0,"{""Q0"":""0""}",,,14.0,,,,,,,,,,,,,,,,,,,,,,,,,,,,,,,,,,,,tape,40.0,0.0
357,,category_memory,,survey-text,357,335408,0.0-3.0-16.0-0.0,0,0,96878,,1368.0,"{""Q0"":""0""}",,,15.0,,,,,,,,,,,,,,,,,,,,,,,,,,,,,,,,,,,,necklace,20.0,0.0
358,,category_memory,,survey-text,358,336846,0.0-3.0-17.0-0.0,0,0,96878,,1434.0,"{""Q0"":""0""}",,,16.0,,,,,,,,,,,,,,,,,,,,,,,,,,,,,,,,,,,,frame,80.0,0.0
359,,category_memory,,survey-text,359,338275,0.0-3.0-18.0-0.0,0,0,96878,,1426.0,"{""Q0"":""0""}",,,17.0,,,,,,,,,,,,,,,,,,,,,,,,,,,,,,,,,,,,hat,80.0,0.0
360,,category_memory,,survey-text,360,339258,0.0-3.0-19.0-0.0,0,0,96878,,980.0,"{""Q0"":""0""}",,,18.0,,,,,,,,,,,,,,,,,,,,,,,,,,,,,,,,,,,,bowl,60.0,0.0
361,,category_memory,,survey-text,361,340631,0.0-3.0-20.0-0.0,0,0,96878,,1370.0,"{""Q0"":""0""}",,,19.0,,,,,,,,,,,,,,,,,,,,,,,,,,,,,,,,,,,,sofa,20.0,0.0
362,,category_memory,,survey-text,362,341570,0.0-3.0-21.0-0.0,0,0,96878,,935.0,"{""Q0"":""0""}",,,20.0,,,,,,,,,,,,,,,,,,,,,,,,,,,,,,,,,,,,bongo,60.0,0.0
363,,category_memory,,survey-text,363,342360,0.0-3.0-22.0-0.0,0,0,96878,,786.0,"{""Q0"":""0""}",,,21.0,,,,,,,,,,,,,,,,,,,,,,,,,,,,,,,,,,,,license plate,80.0,0.0
364,,category_memory,,survey-text,364,343252,0.0-3.0-23.0-0.0,0,0,96878,,889.0,"{""Q0"":""0""}",,,22.0,,,,,,,,,,,,,,,,,,,,,,,,,,,,,,,,,,,,nail polish,20.0,0.0
365,,category_memory,,survey-text,365,344213,0.0-3.0-24.0-0.0,0,0,96878,,958.0,"{""Q0"":""0""}",,,23.0,,,,,,,,,,,,,,,,,,,,,,,,,,,,,,,,,,,,seashell,20.0,0.0
366,,category_memory,,survey-text,366,345036,0.0-3.0-25.0-0.0,0,0,96878,,820.0,"{""Q0"":""0""}",,,24.0,,,,,,,,,,,,,,,,,,,,,,,,,,,,,,,,,,,,vase,40.0,0.0
367,,category_memory,,survey-text,367,346595,0.0-3.0-26.0-0.0,0,0,96878,,1556.0,"{""Q0"":""0""}",,,25.0,,,,,,,,,,,,,,,,,,,,,,,,,,,,,,,,,,,,small table,20.0,0.0
368,,category_memory,,survey-text,368,347686,0.0-3.0-27.0-0.0,0,0,96878,,1088.0,"{""Q0"":""0""}",,,26.0,,,,,,,,,,,,,,,,,,,,,,,,,,,,,,,,,,,,fan,60.0,0.0
369,,category_memory,,survey-text,369,349054,0.0-3.0-28.0-0.0,0,0,96878,,1365.0,"{""Q0"":""0""}",,,27.0,,,,,,,,,,,,,,,,,,,,,,,,,,,,,,,,,,,,bench,60.0,0.0
370,,category_memory,,survey-text,370,349886,0.0-3.0-29.0-0.0,0,0,96878,,829.0,"{""Q0"":""0""}",,,28.0,,,,,,,,,,,,,,,,,,,,,,,,,,,,,,,,,,,,motorcycle,80.0,0.0
371,,category_memory,,survey-text,371,350825,0.0-3.0-30.0-0.0,0,0,96878,,936.0,"{""Q0"":""0""}",,,29.0,,,,,,,,,,,,,,,,,,,,,,,,,,,,,,,,,,,,dresser,60.0,0.0
372,,category_memory,,survey-text,372,352100,0.0-3.0-31.0-0.0,0,0,96878,,1272.0,"{""Q0"":""0""}",,,30.0,,,,,,,,,,,,,,,,,,,,,,,,,,,,,,,,,,,,tent,40.0,0.0
373,,category_memory,,survey-text,373,353207,0.0-3.0-32.0-0.0,0,0,96878,,1104.0,"{""Q0"":""0""}",,,31.0,,,,,,,,,,,,,,,,,,,,,,,,,,,,,,,,,,,,train,40.0,0.0
374,,category_memory,,survey-text,374,354510,0.0-3.0-33.0-0.0,0,0,96878,,1299.0,"{""Q0"":""0""}",,,32.0,,,,,,,,,,,,,,,,,,,,,,,,,,,,,,,,,,,,power strip,20.0,0.0
375,,category_memory,,survey-text,375,356901,0.0-3.0-34.0-0.0,0,0,96878,,2388.0,"{""Q0"":""0""}",,,33.0,,,,,,,,,,,,,,,,,,,,,,,,,,,,,,,,,,,,yarn,40.0,0.0
376,,category_memory,,survey-text,376,357884,0.0-3.0-35.0-0.0,0,0,96878,,979.0,"{""Q0"":""0""}",,,34.0,,,,,,,,,,,,,,,,,,,,,,,,,,,,,,,,,,,,pen,20.0,0.0
377,,category_memory,,survey-text,377,358953,0.0-3.0-36.0-0.0,0,0,96878,,1066.0,"{""Q0"":""0""}",,,35.0,,,,,,,,,,,,,,,,,,,,,,,,,,,,,,,,,,,,poker card,20.0,0.0
