,success,ttype,start_time,trial_type,trial_index,time_elapsed,internal_node_id,warning,missed_checkup,PID,view_history,rt,responses,repeat_instructions,key_press,index,trial_num,isi,iti,is_practice,block,old_trial,pair_type,within_category,high_cat_on_left,left_category,right_category,left_category_value,right_category_value,left_exemplar,right_exemplar,left_exemplar_value,right_exemplar_value,left_img,right_img,left_img_path,right_img_path,no_response,onset,duration,left_chosen,chosen_category,unchosen_category,chosen_category_value,unchosen_category_value,chosen_exemplar,unchosen_exemplar,chosen_exemplar_value,unchosen_exemplar_value,end_practice,total_bonus_tally,category,category_group_value,category_value_response,did_not_enter_response
0,True,full_screen,d06062022hr2125,fullscreen,0,3667,0.0-0.0,0,0,81393,,,,,,,,,,,,,,,,,,,,,,,,,,,,,,,,,,,,,,,,,,,,,
1,,category_learning_instructions,,instructions,1,6319,0.0-1.0-0.0-0.0,0,0,81393,"[{""page_index"":0,""viewing_time"":1670},{""page_index"":1,""viewing_time"":160},{""page_index"":2,""viewing_time"":166},{""page_index"":3,""viewing_time"":153},{""page_index"":4,""viewing_time"":156},{""page_index"":5,""viewing_time"":160},{""page_index"":6,""viewing_time"":185}]",2650.0,,,,,,,,,,,,,,,,,,,,,,,,,,,,,,,,,,,,,,,,,,,
2,,category_learning_comprehension_check,,survey-multi-choice,2,11126,0.0-1.0-0.0-1.0,0,0,81393,,4804.0,"{""Q0"":""True"",""Q1"":""True"",""Q2"":""Stay the same"",""Q3"":""D for left and K for right""}",0.0,,,,,,,,,,,,,,,,,,,,,,,,,,,,,,,,,,,,,,,,,
3,,,,html-keyboard-response,3,12507,0.0-1.0-1.0,0,0,81393,,1377.0,,,68.0,,,,,,,,,,,,,,,,,,,,,,,,,,,,,,,,,,,,,,,,
4,,choice,,html-keyboard-response,4,14015,0.0-1.0-2.0-0.0-0.0,0,0,81393,,,,,,0.0,0.0,1500.0,1000.0,1.0,0.0,0.0,20-80,,0.0,bagel,dumbbell,20.0,80.0,bagel1,dumbbell1,0.0,80.0,bagels_pumpernickel_large.jpg,31B64EN68AL._AA280_.jpg,/static/Category_learning/Stimuli/Practice_stims/bagel/bagels_pumpernickel_large.jpg,/static/Category_learning/Stimuli/Practice_stims/dumbbell/31B64EN68AL._AA280_.jpg,1.0,1.5,1.5,,,,,,,,,,,,,,,
5,,isi,,html-keyboard-response,5,14121,0.0-1.0-2.0-0.0-2.0,0,0,81393,,,,,,0.0,,,,,0.0,,,,,,,,,,,,,,,,,,3.0,1.5,,,,,,,,,,,,,,,
6,,no_response,,html-keyboard-response,6,15127,0.0-1.0-2.0-0.0-4.0-0.0,0,0,81393,,,,,,0.0,,,,,0.0,,,,,,,,,,,,,,,,,,4.0,1.0,,,,,,,,,,,,,,,
7,,iti,,html-keyboard-response,7,15236,0.0-1.0-2.0-0.0-5.0,0,0,81393,,,,,,0.0,,,,,0.0,,,,,,,,,,,,,,,,,,5.0,1.0,,,,,,,,,,,,,,,
8,,choice,,html-keyboard-response,8,15491,0.0-1.0-2.0-0.1-0.1,0,0,81393,,251.0,,,68.0,0.0,0.0,1500.0,1000.0,1.0,0.0,0.0,20-80,,0.0,bagel,dumbbell,20.0,80.0,bagel1,dumbbell1,0.0,80.0,bagels_pumpernickel_large.jpg,31B64EN68AL._AA280_.jpg,/static/Category_learning/Stimuli/Practice_stims/bagel/bagels_pumpernickel_large.jpg,/static/Category_learning/Stimuli/Practice_stims/dumbbell/31B64EN68AL._AA280_.jpg,0.0,5.251,0.251,1.0,bagel,dumbbell,20.0,80.0,bagel1,dumbbell1,0.0,80.0,,,,,,
9,,confirmation,,html-keyboard-response,9,16748,0.0-1.0-2.0-0.1-1.1-0.1,0,0,81393,,,,,,0.0,,,,,0.0,,,,,,,,,,,,,,,,,,6.5,1.249,,,,,,,,,,,,,,,
10,,isi,,html-keyboard-response,10,16853,0.0-1.0-2.0-0.1-2.1,0,0,81393,,,,,,0.0,,,,,0.0,,,,,,,,,,,,,,,,,,8.0,1.5,,,,,,,,,,,,,,,
11,,feedback,,html-keyboard-response,11,17858,0.0-1.0-2.0-0.1-3.1-0.1,0,0,81393,,,,,,0.0,,,,,0.0,,,,,,,,,,,,,,,,,,9.0,1.0,,,,,,,,,,,,,,,
12,,iti,,html-keyboard-response,12,17961,0.0-1.0-2.0-0.1-5.1,0,0,81393,,,,,,0.0,,,,,0.0,,,,,,,,,,,,,,,,,,10.0,1.0,,,,,,,,,,,,,,,
13,,choice,,html-keyboard-response,13,18002,0.0-1.0-3.0-0.0-0.0,0,0,81393,,37.0,,,68.0,1.0,1.0,3000.0,1500.0,1.0,0.0,0.0,20-40,,1.0,calculator,bagel,40.0,20.0,calculator2,bagel2,20.0,20.0,22829064.thl.jpg,bagels_cinnraisin_large.jpg,/static/Category_learning/Stimuli/Practice_stims/calculator/22829064.thl.jpg,/static/Category_learning/Stimuli/Practice_stims/bagel/bagels_cinnraisin_large.jpg,0.0,10.037,0.037,1.0,calculator,bagel,40.0,20.0,calculator2,bagel2,20.0,20.0,,,,,,
14,,confirmation,,html-keyboard-response,14,19471,0.0-1.0-3.0-0.0-1.0-0.0,0,0,81393,,,,,,1.0,,,,,0.0,,,,,,,,,,,,,,,,,,11.5,1.463,,,,,,,,,,,,,,,
15,,isi,,html-keyboard-response,15,19575,0.0-1.0-3.0-0.0-2.0,0,0,81393,,,,,,1.0,,,,,0.0,,,,,,,,,,,,,,,,,,14.5,3.0,,,,,,,,,,,,,,,
16,,feedback,,html-keyboard-response,16,20582,0.0-1.0-3.0-0.0-3.0-0.0,0,0,81393,,,,,,1.0,,,,,0.0,,,,,,,,,,,,,,,,,,15.5,1.0,,,,,,,,,,,,,,,
17,,iti,,html-keyboard-response,17,20689,0.0-1.0-3.0-0.0-5.0,0,0,81393,,,,,,1.0,,,,,0.0,,,,,,,,,,,,,,,,,,17.0,1.5,,,,,,,,,,,,,,,
18,,choice,,html-keyboard-response,18,20820,0.0-1.0-4.0-0.0-0.0,0,0,81393,,127.0,,,68.0,2.0,2.0,2000.0,3000.0,1.0,0.0,0.0,60-80,,0.0,clock,dumbbell,60.0,80.0,clock2,dumbbell2,60.0,100.0,26373355.thl.jpg,31K8MR6TMBL._SS500_.jpg,/static/Category_learning/Stimuli/Practice_stims/clock/26373355.thl.jpg,/static/Category_learning/Stimuli/Practice_stims/dumbbell/31K8MR6TMBL._SS500_.jpg,0.0,17.127,0.127,1.0,clock,dumbbell,60.0,80.0,clock2,dumbbell2,60.0,100.0,,,,,,
19,,confirmation,,html-keyboard-response,19,22197,0.0-1.0-4.0-0.0-1.0-0.0,0,0,81393,,,,,,2.0,,,,,0.0,,,,,,,,,,,,,,,,,,18.5,1.373,,,,,,,,,,,,,,,
20,,isi,,html-keyboard-response,20,22300,0.0-1.0-4.0-0.0-2.0,0,0,81393,,,,,,2.0,,,,,0.0,,,,,,,,,,,,,,,,,,20.5,2.0,,,,,,,,,,,,,,,
21,,feedback,,html-keyboard-response,21,23306,0.0-1.0-4.0-0.0-3.0-0.0,0,0,81393,,,,,,2.0,,,,,0.0,,,,,,,,,,,,,,,,,,21.5,1.0,,,,,,,,,,,,,,,
22,,iti,,html-keyboard-response,22,23414,0.0-1.0-4.0-0.0-5.0,0,0,81393,,,,,,2.0,,,,,0.0,,,,,,,,,,,,,,,,,,24.5,3.0,,,,,,,,,,,,,,,
23,,choice,,html-keyboard-response,23,23544,0.0-1.0-5.0-0.0-0.0,0,0,81393,,127.0,,,68.0,3.0,3.0,1000.0,2000.0,1.0,0.0,0.0,40-80,,0.0,calculator,clock,40.0,60.0,calculator1,clock1,40.0,40.0,22829184.thl.jpg,Aalarmclock2.jpg,/static/Category_learning/Stimuli/Practice_stims/calculator/22829184.thl.jpg,/static/Category_learning/Stimuli/Practice_stims/clock/Aalarmclock2.jpg,0.0,24.627,0.127,1.0,calculator,clock,40.0,60.0,calculator1,clock1,40.0,40.0,,,,,,
24,,confirmation,,html-keyboard-response,24,24926,0.0-1.0-5.0-0.0-1.0-0.0,0,0,81393,,,,,,3.0,,,,,0.0,,,,,,,,,,,,,,,,,,26.0,1.373,,,,,,,,,,,,,,,
25,,isi,,html-keyboard-response,25,25030,0.0-1.0-5.0-0.0-2.0,0,0,81393,,,,,,3.0,,,,,0.0,,,,,,,,,,,,,,,,,,27.0,1.0,,,,,,,,,,,,,,,
26,,feedback,,html-keyboard-response,26,26038,0.0-1.0-5.0-0.0-3.0-0.0,0,0,81393,,,,,,3.0,,,,,0.0,,,,,,,,,,,,,,,,,,28.0,1.0,,,,,,,,,,,,,,,
27,,iti,,html-keyboard-response,27,26145,0.0-1.0-5.0-0.0-5.0,0,0,81393,,,,,,3.0,,,,,0.0,,,,,,,,,,,,,,,,,,30.0,2.0,,,,,,,,,,,,,,,
28,,choice,,html-keyboard-response,28,26374,0.0-1.0-6.0-0.0-0.0,0,0,81393,,225.0,,,68.0,4.0,4.0,2500.0,2500.0,1.0,0.0,0.0,20-60,,1.0,dumbbell,bagel,80.0,20.0,dumbbell3,bagel3,100.0,40.0,41K7QVRX50L._SS500_.jpg,photo-169.jpg,/static/Category_learning/Stimuli/Practice_stims/dumbbell/41K7QVRX50L._SS500_.jpg,/static/Category_learning/Stimuli/Practice_stims/bagel/photo-169.jpg,0.0,30.225,0.225,1.0,dumbbell,bagel,80.0,20.0,dumbbell3,bagel3,100.0,40.0,1.0,,,,,
29,,confirmation,,html-keyboard-response,29,27656,0.0-1.0-6.0-0.0-1.0-0.0,0,0,81393,,,,,,4.0,,,,,0.0,,,,,,,,,,,,,,,,,,31.5,1.275,,,,,,,,,,,,,,,
30,,isi,,html-keyboard-response,30,27762,0.0-1.0-6.0-0.0-2.0,0,0,81393,,,,,,4.0,,,,,0.0,,,,,,,,,,,,,,,,,,34.0,2.5,,,,,,,,,,,,,,,
31,,feedback,,html-keyboard-response,31,28769,0.0-1.0-6.0-0.0-3.0-0.0,0,0,81393,,,,,,4.0,,,,,0.0,,,,,,,,,,,,,,,,,,35.0,1.0,,,,,,,,,,,,,,,
32,,iti,,html-keyboard-response,32,28877,0.0-1.0-6.0-0.0-5.0,0,0,81393,,,,,,4.0,,,,,0.0,,,,,,,,,,,,,,,,,,37.5,2.5,,,,,,,,,,,,,,,
33,,practice_over,,html-keyboard-response,33,29007,0.0-1.0-6.0-0.0-6.0-0.0,0,0,81393,,127.0,,,68.0,4.0,,,,,,,,,,,,,,,,,,,,,,,,,,,,,,,,,,,,,,,
34,,start_run,,html-keyboard-response,34,34770,0.0-1.0-6.0-0.0-6.0-1.0,0,0,81393,,5761.0,,,84.0,,,,,,,,,,,,,,,,,,,,,,,,,,,,,,,,,,,,,,,,
35,,choice,,html-keyboard-response,35,35503,0.0-1.0-7.0-0.0-0.0,0,0,81393,,729.0,,,68.0,5.0,305.0,3500.0,1000.0,0.0,6.0,0.0,20-60,,1.0,key chain,vase,60.0,20.0,key chain5,vase14,40.0,0.0,keychain-metal-logo.jpg,Avase119.jpg,/static/Category_learning/Stimuli/Experimental_stims/key chain/keychain-metal-logo.jpg,/static/Category_learning/Stimuli/Experimental_stims/vase/Avase119.jpg,0.0,0.729,0.729,1.0,key chain,vase,60.0,20.0,key chain5,vase14,40.0,0.0,,,,,,
36,,confirmation,,html-keyboard-response,36,36278,0.0-1.0-7.0-0.0-1.0-0.0,0,0,81393,,,,,,5.0,,,,,6.0,,,,,,,,,,,,,,,,,,1.5,0.771,,,,,,,,,,,,,,,
37,,isi,,html-keyboard-response,37,36385,0.0-1.0-7.0-0.0-2.0,0,0,81393,,,,,,5.0,,,,,6.0,,,,,,,,,,,,,,,,,,5.0,3.5,,,,,,,,,,,,,,,
38,,feedback,,html-keyboard-response,38,37393,0.0-1.0-7.0-0.0-3.0-0.0,0,0,81393,,,,,,5.0,,,,,6.0,,,,,,,,,,,,,,,,,,6.0,1.0,,,,,,,,,,,,,,,
39,,iti,,html-keyboard-response,39,37499,0.0-1.0-7.0-0.0-5.0,0,0,81393,,,,,,5.0,,,,,6.0,,,,,,,,,,,,,,,,,,7.0,1.0,,,,,,,,,,,,,,,
40,,choice,,html-keyboard-response,40,38186,0.0-1.0-8.0-0.0-0.0,0,0,81393,,684.0,,,68.0,6.0,306.0,1000.0,3500.0,0.0,6.0,0.0,40-60,,0.0,door knob,license plate,40.0,60.0,door knob4,license plate1,40.0,80.0,chrome scroll latch handle.jpg,il-423-3784.jpg,/static/Category_learning/Stimuli/Experimental_stims/door knob/chrome scroll latch handle.jpg,/static/Category_learning/Stimuli/Experimental_stims/license plate/il-423-3784.jpg,0.0,7.684,0.684,1.0,door knob,license plate,40.0,60.0,door knob4,license plate1,40.0,80.0,,,,,,
41,,confirmation,,html-keyboard-response,41,39009,0.0-1.0-8.0-0.0-1.0-0.0,0,0,81393,,,,,,6.0,,,,,6.0,,,,,,,,,,,,,,,,,,8.5,0.816,,,,,,,,,,,,,,,
42,,isi,,html-keyboard-response,42,39115,0.0-1.0-8.0-0.0-2.0,0,0,81393,,,,,,6.0,,,,,6.0,,,,,,,,,,,,,,,,,,9.5,1.0,,,,,,,,,,,,,,,
43,,feedback,,html-keyboard-response,43,40124,0.0-1.0-8.0-0.0-3.0-0.0,0,0,81393,,,,,,6.0,,,,,6.0,,,,,,,,,,,,,,,,,,10.5,1.0,,,,,,,,,,,,,,,
44,,iti,,html-keyboard-response,44,40231,0.0-1.0-8.0-0.0-5.0,0,0,81393,,,,,,6.0,,,,,6.0,,,,,,,,,,,,,,,,,,14.0,3.5,,,,,,,,,,,,,,,
45,,choice,,html-keyboard-response,45,40311,0.0-1.0-9.0-0.0-0.0,0,0,81393,,77.0,,,68.0,7.0,307.0,1000.0,2000.0,0.0,6.0,0.0,40-80,,1.0,necklace,baby carriage,80.0,40.0,necklace5,baby carriage10,80.0,20.0,necklascenew08.jpg,peg_perego_uno_blu.jpg,/static/Category_learning/Stimuli/Experimental_stims/necklace/necklascenew08.jpg,/static/Category_learning/Stimuli/Experimental_stims/baby carriage/peg_perego_uno_blu.jpg,0.0,14.077,0.077,1.0,necklace,baby carriage,80.0,40.0,necklace5,baby carriage10,80.0,20.0,,,,,,
46,,confirmation,,html-keyboard-response,46,41741,0.0-1.0-9.0-0.0-1.0-0.0,0,0,81393,,,,,,7.0,,,,,6.0,,,,,,,,,,,,,,,,,,15.5,1.423,,,,,,,,,,,,,,,
47,,isi,,html-keyboard-response,47,41847,0.0-1.0-9.0-0.0-2.0,0,0,81393,,,,,,7.0,,,,,6.0,,,,,,,,,,,,,,,,,,16.5,1.0,,,,,,,,,,,,,,,
48,,feedback,,html-keyboard-response,48,42854,0.0-1.0-9.0-0.0-3.0-0.0,0,0,81393,,,,,,7.0,,,,,6.0,,,,,,,,,,,,,,,,,,17.5,1.0,,,,,,,,,,,,,,,
49,,iti,,html-keyboard-response,49,42961,0.0-1.0-9.0-0.0-5.0,0,0,81393,,,,,,7.0,,,,,6.0,,,,,,,,,,,,,,,,,,19.5,2.0,,,,,,,,,,,,,,,
50,,choice,,html-keyboard-response,50,43981,0.0-1.0-10.0-0.0-0.0,0,0,81393,,1016.0,,,68.0,8.0,308.0,1500.0,1500.0,0.0,6.0,0.0,20-80,,1.0,nail polish,trumpet,80.0,20.0,nail polish12,trumpet13,80.0,20.0,laquerdUP.jpg,JUPITER+JTR1600GS.jpg,/static/Category_learning/Stimuli/Experimental_stims/nail polish/laquerdUP.jpg,/static/Category_learning/Stimuli/Experimental_stims/trumpet/JUPITER+JTR1600GS.jpg,0.0,20.516,1.016,1.0,nail polish,trumpet,80.0,20.0,nail polish12,trumpet13,80.0,20.0,,,,,,
51,,confirmation,,html-keyboard-response,51,44469,0.0-1.0-10.0-0.0-1.0-0.0,0,0,81393,,,,,,8.0,,,,,6.0,,,,,,,,,,,,,,,,,,21.0,0.484,,,,,,,,,,,,,,,
52,,isi,,html-keyboard-response,52,44576,0.0-1.0-10.0-0.0-2.0,0,0,81393,,,,,,8.0,,,,,6.0,,,,,,,,,,,,,,,,,,22.5,1.5,,,,,,,,,,,,,,,
53,,feedback,,html-keyboard-response,53,45585,0.0-1.0-10.0-0.0-3.0-0.0,0,0,81393,,,,,,8.0,,,,,6.0,,,,,,,,,,,,,,,,,,23.5,1.0,,,,,,,,,,,,,,,
54,,iti,,html-keyboard-response,54,45691,0.0-1.0-10.0-0.0-5.0,0,0,81393,,,,,,8.0,,,,,6.0,,,,,,,,,,,,,,,,,,25.0,1.5,,,,,,,,,,,,,,,
55,,choice,,html-keyboard-response,55,45912,0.0-1.0-11.0-0.0-0.0,0,0,81393,,217.0,,,68.0,9.0,309.0,1000.0,1000.0,0.0,6.0,0.0,20-80,,1.0,pen,train,80.0,20.0,pen1,train12,60.0,0.0,pen09.jpg,02565 ride on train.jpg,/static/Category_learning/Stimuli/Experimental_stims/pen/pen09.jpg,/static/Category_learning/Stimuli/Experimental_stims/train/02565 ride on train.jpg,0.0,25.217,0.217,1.0,pen,train,80.0,20.0,pen1,train12,60.0,0.0,,,,,,
56,,confirmation,,html-keyboard-response,56,47202,0.0-1.0-11.0-0.0-1.0-0.0,0,0,81393,,,,,,9.0,,,,,6.0,,,,,,,,,,,,,,,,,,26.5,1.283,,,,,,,,,,,,,,,
57,,isi,,html-keyboard-response,57,47307,0.0-1.0-11.0-0.0-2.0,0,0,81393,,,,,,9.0,,,,,6.0,,,,,,,,,,,,,,,,,,27.5,1.0,,,,,,,,,,,,,,,
58,,feedback,,html-keyboard-response,58,48315,0.0-1.0-11.0-0.0-3.0-0.0,0,0,81393,,,,,,9.0,,,,,6.0,,,,,,,,,,,,,,,,,,28.5,1.0,,,,,,,,,,,,,,,
59,,iti,,html-keyboard-response,59,48421,0.0-1.0-11.0-0.0-5.0,0,0,81393,,,,,,9.0,,,,,6.0,,,,,,,,,,,,,,,,,,29.5,1.0,,,,,,,,,,,,,,,
60,,choice,,html-keyboard-response,60,48749,0.0-1.0-12.0-0.0-0.0,0,0,81393,,324.0,,,68.0,10.0,310.0,3000.0,1000.0,0.0,6.0,0.0,20-80,,0.0,watch,necklace,20.0,80.0,watch10,necklace11,0.0,100.0,HEU0102124_zoom.jpg,necklascenew06.jpg,/static/Category_learning/Stimuli/Experimental_stims/watch/HEU0102124_zoom.jpg,/static/Category_learning/Stimuli/Experimental_stims/necklace/necklascenew06.jpg,0.0,29.824,0.324,1.0,watch,necklace,20.0,80.0,watch10,necklace11,0.0,100.0,,,,,,
61,,confirmation,,html-keyboard-response,61,49932,0.0-1.0-12.0-0.0-1.0-0.0,0,0,81393,,,,,,10.0,,,,,6.0,,,,,,,,,,,,,,,,,,31.0,1.176,,,,,,,,,,,,,,,
62,,isi,,html-keyboard-response,62,50039,0.0-1.0-12.0-0.0-2.0,0,0,81393,,,,,,10.0,,,,,6.0,,,,,,,,,,,,,,,,,,34.0,3.0,,,,,,,,,,,,,,,
63,,feedback,,html-keyboard-response,63,51047,0.0-1.0-12.0-0.0-3.0-0.0,0,0,81393,,,,,,10.0,,,,,6.0,,,,,,,,,,,,,,,,,,35.0,1.0,,,,,,,,,,,,,,,
64,,iti,,html-keyboard-response,64,51153,0.0-1.0-12.0-0.0-5.0,0,0,81393,,,,,,10.0,,,,,6.0,,,,,,,,,,,,,,,,,,36.0,1.0,,,,,,,,,,,,,,,
65,,choice,,html-keyboard-response,65,51480,0.0-1.0-13.0-0.0-0.0,0,0,81393,,323.0,,,68.0,11.0,311.0,1000.0,1500.0,0.0,6.0,0.0,20-80,,0.0,stool,power strip,20.0,80.0,stool2,power strip15,40.0,100.0,ASTOOL46.jpg,31oz6aGZN7L._AA262_.jpg,/static/Category_learning/Stimuli/Experimental_stims/stool/ASTOOL46.jpg,/static/Category_learning/Stimuli/Experimental_stims/power strip/31oz6aGZN7L._AA262_.jpg,0.0,36.323,0.323,1.0,stool,power strip,20.0,80.0,stool2,power strip15,40.0,100.0,,,,,,
66,,confirmation,,html-keyboard-response,66,52662,0.0-1.0-13.0-0.0-1.0-0.0,0,0,81393,,,,,,11.0,,,,,6.0,,,,,,,,,,,,,,,,,,37.5,1.177,,,,,,,,,,,,,,,
67,,isi,,html-keyboard-response,67,52769,0.0-1.0-13.0-0.0-2.0,0,0,81393,,,,,,11.0,,,,,6.0,,,,,,,,,,,,,,,,,,38.5,1.0,,,,,,,,,,,,,,,
68,,feedback,,html-keyboard-response,68,53777,0.0-1.0-13.0-0.0-3.0-0.0,0,0,81393,,,,,,11.0,,,,,6.0,,,,,,,,,,,,,,,,,,39.5,1.0,,,,,,,,,,,,,,,
69,,iti,,html-keyboard-response,69,53884,0.0-1.0-13.0-0.0-5.0,0,0,81393,,,,,,11.0,,,,,6.0,,,,,,,,,,,,,,,,,,41.0,1.5,,,,,,,,,,,,,,,
70,,choice,,html-keyboard-response,70,54023,0.0-1.0-14.0-0.0-0.0,0,0,81393,,136.0,,,68.0,12.0,312.0,3000.0,3000.0,0.0,6.0,0.0,60-80,,1.0,seashell,lipstick,80.0,60.0,seashell5,lipstick2,80.0,40.0,429345994_b87bb03366.jpg,11uuoPMY+OL._SS500_.jpg,/static/Category_learning/Stimuli/Experimental_stims/seashell/429345994_b87bb03366.jpg,/static/Category_learning/Stimuli/Experimental_stims/lipstick/11uuoPMY+OL._SS500_.jpg,0.0,41.136,0.136,1.0,seashell,lipstick,80.0,60.0,seashell5,lipstick2,80.0,40.0,,,,,,
71,,confirmation,,html-keyboard-response,71,55394,0.0-1.0-14.0-0.0-1.0-0.0,0,0,81393,,,,,,12.0,,,,,6.0,,,,,,,,,,,,,,,,,,42.5,1.364,,,,,,,,,,,,,,,
72,,isi,,html-keyboard-response,72,55500,0.0-1.0-14.0-0.0-2.0,0,0,81393,,,,,,12.0,,,,,6.0,,,,,,,,,,,,,,,,,,45.5,3.0,,,,,,,,,,,,,,,
73,,feedback,,html-keyboard-response,73,56508,0.0-1.0-14.0-0.0-3.0-0.0,0,0,81393,,,,,,12.0,,,,,6.0,,,,,,,,,,,,,,,,,,46.5,1.0,,,,,,,,,,,,,,,
74,,iti,,html-keyboard-response,74,56617,0.0-1.0-14.0-0.0-5.0,0,0,81393,,,,,,12.0,,,,,6.0,,,,,,,,,,,,,,,,,,49.5,3.0,,,,,,,,,,,,,,,
75,,choice,,html-keyboard-response,75,56707,0.0-1.0-15.0-0.0-0.0,0,0,81393,,86.0,,,68.0,13.0,313.0,3000.0,1000.0,0.0,6.0,0.0,40-40,,,bowl,flashlight,40.0,40.0,bowl8,flashlight15,20.0,40.0,ASLVBOWL.jpg,freeplay-xray-wind-up-led-flashlight.jpg,/static/Category_learning/Stimuli/Experimental_stims/bowl/ASLVBOWL.jpg,/static/Category_learning/Stimuli/Experimental_stims/flashlight/freeplay-xray-wind-up-led-flashlight.jpg,0.0,49.586,0.086,1.0,bowl,flashlight,40.0,40.0,bowl8,flashlight15,20.0,40.0,,,,,,
76,,confirmation,,html-keyboard-response,76,58129,0.0-1.0-15.0-0.0-1.0-0.0,0,0,81393,,,,,,13.0,,,,,6.0,,,,,,,,,,,,,,,,,,51.0,1.414,,,,,,,,,,,,,,,
77,,isi,,html-keyboard-response,77,58235,0.0-1.0-15.0-0.0-2.0,0,0,81393,,,,,,13.0,,,,,6.0,,,,,,,,,,,,,,,,,,54.0,3.0,,,,,,,,,,,,,,,
78,,feedback,,html-keyboard-response,78,59244,0.0-1.0-15.0-0.0-3.0-0.0,0,0,81393,,,,,,13.0,,,,,6.0,,,,,,,,,,,,,,,,,,55.0,1.0,,,,,,,,,,,,,,,
79,,iti,,html-keyboard-response,79,59351,0.0-1.0-15.0-0.0-5.0,0,0,81393,,,,,,13.0,,,,,6.0,,,,,,,,,,,,,,,,,,56.0,1.0,,,,,,,,,,,,,,,
80,,choice,,html-keyboard-response,80,59374,0.0-1.0-16.0-0.0-0.0,0,0,81393,,19.0,,,68.0,14.0,314.0,3500.0,1000.0,0.0,6.0,0.0,40-40,,,fan,bench,40.0,40.0,fan10,bench15,60.0,60.0,n_sf_1666.jpg,Abench12.jpg,/static/Category_learning/Stimuli/Experimental_stims/fan/n_sf_1666.jpg,/static/Category_learning/Stimuli/Experimental_stims/bench/Abench12.jpg,0.0,56.019,0.019,1.0,fan,bench,40.0,40.0,fan10,bench15,60.0,60.0,,,,,,
81,,confirmation,,html-keyboard-response,81,60862,0.0-1.0-16.0-0.0-1.0-0.0,0,0,81393,,,,,,14.0,,,,,6.0,,,,,,,,,,,,,,,,,,57.5,1.481,,,,,,,,,,,,,,,
82,,isi,,html-keyboard-response,82,60970,0.0-1.0-16.0-0.0-2.0,0,0,81393,,,,,,14.0,,,,,6.0,,,,,,,,,,,,,,,,,,61.0,3.5,,,,,,,,,,,,,,,
83,,feedback,,html-keyboard-response,83,61978,0.0-1.0-16.0-0.0-3.0-0.0,0,0,81393,,,,,,14.0,,,,,6.0,,,,,,,,,,,,,,,,,,62.0,1.0,,,,,,,,,,,,,,,
84,,iti,,html-keyboard-response,84,62081,0.0-1.0-16.0-0.0-5.0,0,0,81393,,,,,,14.0,,,,,6.0,,,,,,,,,,,,,,,,,,63.0,1.0,,,,,,,,,,,,,,,
85,,choice,,html-keyboard-response,85,62303,0.0-1.0-17.0-0.0-0.0,0,0,81393,,219.0,,,68.0,15.0,315.0,3000.0,3500.0,0.0,6.0,1.0,80-80,0.0,,pen,necklace,80.0,80.0,pen1,necklace5,60.0,80.0,pen09.jpg,necklascenew08.jpg,/static/Category_learning/Stimuli/Experimental_stims/pen/pen09.jpg,/static/Category_learning/Stimuli/Experimental_stims/necklace/necklascenew08.jpg,0.0,63.219,0.219,1.0,pen,necklace,80.0,80.0,pen1,necklace5,60.0,80.0,,,,,,
86,,confirmation,,html-keyboard-response,86,63591,0.0-1.0-17.0-0.0-1.0-0.0,0,0,81393,,,,,,15.0,,,,,6.0,,,,,,,,,,,,,,,,,,64.5,1.281,,,,,,,,,,,,,,,
87,,isi,,html-keyboard-response,87,63699,0.0-1.0-17.0-0.0-2.0,0,0,81393,,,,,,15.0,,,,,6.0,,,,,,,,,,,,,,,,,,67.5,3.0,,,,,,,,,,,,,,,
88,,feedback,,html-keyboard-response,88,64705,0.0-1.0-17.0-0.0-3.0-0.0,0,0,81393,,,,,,15.0,,,,,6.0,,,,,,,,,,,,,,,,,,68.5,1.0,,,,,,,,,,,,,,,
89,,iti,,html-keyboard-response,89,64812,0.0-1.0-17.0-0.0-5.0,0,0,81393,,,,,,15.0,,,,,6.0,,,,,,,,,,,,,,,,,,72.0,3.5,,,,,,,,,,,,,,,
90,,choice,,html-keyboard-response,90,64944,0.0-1.0-18.0-0.0-0.0,0,0,81393,,128.0,,,68.0,16.0,316.0,1000.0,1000.0,0.0,6.0,0.0,20-40,,1.0,dresser,watch,40.0,20.0,dresser13,watch13,60.0,0.0,ADRESSE70.jpg,RS_3104_lrg.jpg,/static/Category_learning/Stimuli/Experimental_stims/dresser/ADRESSE70.jpg,/static/Category_learning/Stimuli/Experimental_stims/watch/RS_3104_lrg.jpg,0.0,72.128,0.128,1.0,dresser,watch,40.0,20.0,dresser13,watch13,60.0,0.0,,,,,,
91,,confirmation,,html-keyboard-response,91,66319,0.0-1.0-18.0-0.0-1.0-0.0,0,0,81393,,,,,,16.0,,,,,6.0,,,,,,,,,,,,,,,,,,73.5,1.372,,,,,,,,,,,,,,,
92,,isi,,html-keyboard-response,92,66422,0.0-1.0-18.0-0.0-2.0,0,0,81393,,,,,,16.0,,,,,6.0,,,,,,,,,,,,,,,,,,74.5,1.0,,,,,,,,,,,,,,,
93,,feedback,,html-keyboard-response,93,67428,0.0-1.0-18.0-0.0-3.0-0.0,0,0,81393,,,,,,16.0,,,,,6.0,,,,,,,,,,,,,,,,,,75.5,1.0,,,,,,,,,,,,,,,
94,,iti,,html-keyboard-response,94,67535,0.0-1.0-18.0-0.0-5.0,0,0,81393,,,,,,16.0,,,,,6.0,,,,,,,,,,,,,,,,,,76.5,1.0,,,,,,,,,,,,,,,
95,,choice,,html-keyboard-response,95,67743,0.0-1.0-19.0-0.0-0.0,0,0,81393,,205.0,,,68.0,17.0,317.0,2000.0,1000.0,0.0,6.0,1.0,20-80,0.0,,seashell,watch,80.0,20.0,seashell5,watch10,80.0,0.0,429345994_b87bb03366.jpg,HEU0102124_zoom.jpg,/static/Category_learning/Stimuli/Experimental_stims/seashell/429345994_b87bb03366.jpg,/static/Category_learning/Stimuli/Experimental_stims/watch/HEU0102124_zoom.jpg,0.0,76.705,0.205,1.0,seashell,watch,80.0,20.0,seashell5,watch10,80.0,0.0,,,,,,
96,,confirmation,,html-keyboard-response,96,69046,0.0-1.0-19.0-0.0-1.0-0.0,0,0,81393,,,,,,17.0,,,,,6.0,,,,,,,,,,,,,,,,,,78.0,1.295,,,,,,,,,,,,,,,
97,,isi,,html-keyboard-response,97,69152,0.0-1.0-19.0-0.0-2.0,0,0,81393,,,,,,17.0,,,,,6.0,,,,,,,,,,,,,,,,,,80.0,2.0,,,,,,,,,,,,,,,
98,,feedback,,html-keyboard-response,98,70157,0.0-1.0-19.0-0.0-3.0-0.0,0,0,81393,,,,,,17.0,,,,,6.0,,,,,,,,,,,,,,,,,,81.0,1.0,,,,,,,,,,,,,,,
99,,iti,,html-keyboard-response,99,70262,0.0-1.0-19.0-0.0-5.0,0,0,81393,,,,,,17.0,,,,,6.0,,,,,,,,,,,,,,,,,,82.0,1.0,,,,,,,,,,,,,,,
100,,choice,,html-keyboard-response,100,70434,0.0-1.0-20.0-0.0-0.0,0,0,81393,,168.0,,,68.0,18.0,318.0,1000.0,1000.0,0.0,6.0,0.0,20-60,,0.0,telescope,license plate,20.0,60.0,telescope9,license plate4,40.0,40.0,13TELESTAND.jpg,ca-2flt842.jpg,/static/Category_learning/Stimuli/Experimental_stims/telescope/13TELESTAND.jpg,/static/Category_learning/Stimuli/Experimental_stims/license plate/ca-2flt842.jpg,0.0,82.168,0.168,1.0,telescope,license plate,20.0,60.0,telescope9,license plate4,40.0,40.0,,,,,,
101,,confirmation,,html-keyboard-response,101,71773,0.0-1.0-20.0-0.0-1.0-0.0,0,0,81393,,,,,,18.0,,,,,6.0,,,,,,,,,,,,,,,,,,83.5,1.332,,,,,,,,,,,,,,,
102,,isi,,html-keyboard-response,102,71877,0.0-1.0-20.0-0.0-2.0,0,0,81393,,,,,,18.0,,,,,6.0,,,,,,,,,,,,,,,,,,84.5,1.0,,,,,,,,,,,,,,,
103,,feedback,,html-keyboard-response,103,72884,0.0-1.0-20.0-0.0-3.0-0.0,0,0,81393,,,,,,18.0,,,,,6.0,,,,,,,,,,,,,,,,,,85.5,1.0,,,,,,,,,,,,,,,
104,,iti,,html-keyboard-response,104,72992,0.0-1.0-20.0-0.0-5.0,0,0,81393,,,,,,18.0,,,,,6.0,,,,,,,,,,,,,,,,,,86.5,1.0,,,,,,,,,,,,,,,
105,,choice,,html-keyboard-response,105,73580,0.0-1.0-21.0-0.0-0.0,0,0,81393,,585.0,,,68.0,19.0,319.0,2000.0,3000.0,0.0,6.0,1.0,20-40,0.0,,dresser,stool,40.0,20.0,dresser13,stool2,60.0,40.0,ADRESSE70.jpg,ASTOOL46.jpg,/static/Category_learning/Stimuli/Experimental_stims/dresser/ADRESSE70.jpg,/static/Category_learning/Stimuli/Experimental_stims/stool/ASTOOL46.jpg,0.0,87.085,0.585,1.0,dresser,stool,40.0,20.0,dresser13,stool2,60.0,40.0,,,,,,
106,,confirmation,,html-keyboard-response,106,74503,0.0-1.0-21.0-0.0-1.0-0.0,0,0,81393,,,,,,19.0,,,,,6.0,,,,,,,,,,,,,,,,,,88.0,0.915,,,,,,,,,,,,,,,
107,,isi,,html-keyboard-response,107,74610,0.0-1.0-21.0-0.0-2.0,0,0,81393,,,,,,19.0,,,,,6.0,,,,,,,,,,,,,,,,,,90.0,2.0,,,,,,,,,,,,,,,
108,,feedback,,html-keyboard-response,108,75617,0.0-1.0-21.0-0.0-3.0-0.0,0,0,81393,,,,,,19.0,,,,,6.0,,,,,,,,,,,,,,,,,,91.0,1.0,,,,,,,,,,,,,,,
109,,iti,,html-keyboard-response,109,75724,0.0-1.0-21.0-0.0-5.0,0,0,81393,,,,,,19.0,,,,,6.0,,,,,,,,,,,,,,,,,,94.0,3.0,,,,,,,,,,,,,,,
110,,choice,,html-keyboard-response,110,75761,0.0-1.0-22.0-0.0-0.0,0,0,81393,,33.0,,,68.0,20.0,320.0,1000.0,1000.0,0.0,6.0,0.0,40-80,,1.0,power strip,door knob,80.0,40.0,power strip12,door knob6,60.0,20.0,41CXESEH1TL._AA262_.jpg,30fdcb17-b0fd-4f26-8cd8-11adde46fb79_4.jpg,/static/Category_learning/Stimuli/Experimental_stims/power strip/41CXESEH1TL._AA262_.jpg,/static/Category_learning/Stimuli/Experimental_stims/door knob/30fdcb17-b0fd-4f26-8cd8-11adde46fb79_4.jpg,0.0,94.033,0.033,1.0,power strip,door knob,80.0,40.0,power strip12,door knob6,60.0,20.0,,,,,,
111,,confirmation,,html-keyboard-response,111,77234,0.0-1.0-22.0-0.0-1.0-0.0,0,0,81393,,,,,,20.0,,,,,6.0,,,,,,,,,,,,,,,,,,95.5,1.467,,,,,,,,,,,,,,,
112,,isi,,html-keyboard-response,112,77342,0.0-1.0-22.0-0.0-2.0,0,0,81393,,,,,,20.0,,,,,6.0,,,,,,,,,,,,,,,,,,96.5,1.0,,,,,,,,,,,,,,,
113,,feedback,,html-keyboard-response,113,78348,0.0-1.0-22.0-0.0-3.0-0.0,0,0,81393,,,,,,20.0,,,,,6.0,,,,,,,,,,,,,,,,,,97.5,1.0,,,,,,,,,,,,,,,
114,,iti,,html-keyboard-response,114,78454,0.0-1.0-22.0-0.0-5.0,0,0,81393,,,,,,20.0,,,,,6.0,,,,,,,,,,,,,,,,,,98.5,1.0,,,,,,,,,,,,,,,
115,,choice,,html-keyboard-response,115,79425,0.0-1.0-23.0-0.0-0.0,0,0,81393,,968.0,,,68.0,21.0,321.0,2000.0,1000.0,0.0,6.0,1.0,60-80,0.0,,nail polish,key chain,80.0,60.0,nail polish12,key chain5,80.0,40.0,laquerdUP.jpg,keychain-metal-logo.jpg,/static/Category_learning/Stimuli/Experimental_stims/nail polish/laquerdUP.jpg,/static/Category_learning/Stimuli/Experimental_stims/key chain/keychain-metal-logo.jpg,0.0,99.468,0.968,1.0,nail polish,key chain,80.0,60.0,nail polish12,key chain5,80.0,40.0,,,,,,
116,,confirmation,,html-keyboard-response,116,79964,0.0-1.0-23.0-0.0-1.0-0.0,0,0,81393,,,,,,21.0,,,,,6.0,,,,,,,,,,,,,,,,,,100.0,0.532,,,,,,,,,,,,,,,
117,,isi,,html-keyboard-response,117,80071,0.0-1.0-23.0-0.0-2.0,0,0,81393,,,,,,21.0,,,,,6.0,,,,,,,,,,,,,,,,,,102.0,2.0,,,,,,,,,,,,,,,
118,,feedback,,html-keyboard-response,118,81078,0.0-1.0-23.0-0.0-3.0-0.0,0,0,81393,,,,,,21.0,,,,,6.0,,,,,,,,,,,,,,,,,,103.0,1.0,,,,,,,,,,,,,,,
119,,iti,,html-keyboard-response,119,81186,0.0-1.0-23.0-0.0-5.0,0,0,81393,,,,,,21.0,,,,,6.0,,,,,,,,,,,,,,,,,,104.0,1.0,,,,,,,,,,,,,,,
120,,choice,,html-keyboard-response,120,82105,0.0-1.0-24.0-0.0-0.0,0,0,81393,,916.0,,,68.0,22.0,322.0,1500.0,1000.0,0.0,6.0,0.0,40-60,,1.0,makeup compact,desk,60.0,40.0,makeup compact1,desk5,60.0,60.0,P190250_hero.jpg,ADESK6.jpg,/static/Category_learning/Stimuli/Experimental_stims/makeup compact/P190250_hero.jpg,/static/Category_learning/Stimuli/Experimental_stims/desk/ADESK6.jpg,0.0,104.916,0.916,1.0,makeup compact,desk,60.0,40.0,makeup compact1,desk5,60.0,60.0,,,,,,
121,,confirmation,,html-keyboard-response,121,82695,0.0-1.0-24.0-0.0-1.0-0.0,0,0,81393,,,,,,22.0,,,,,6.0,,,,,,,,,,,,,,,,,,105.5,0.584,,,,,,,,,,,,,,,
122,,isi,,html-keyboard-response,122,82802,0.0-1.0-24.0-0.0-2.0,0,0,81393,,,,,,22.0,,,,,6.0,,,,,,,,,,,,,,,,,,107.0,1.5,,,,,,,,,,,,,,,
123,,feedback,,html-keyboard-response,123,83810,0.0-1.0-24.0-0.0-3.0-0.0,0,0,81393,,,,,,22.0,,,,,6.0,,,,,,,,,,,,,,,,,,108.0,1.0,,,,,,,,,,,,,,,
124,,iti,,html-keyboard-response,124,83918,0.0-1.0-24.0-0.0-5.0,0,0,81393,,,,,,22.0,,,,,6.0,,,,,,,,,,,,,,,,,,109.0,1.0,,,,,,,,,,,,,,,
125,,choice,,html-keyboard-response,125,84373,0.0-1.0-25.0-0.0-0.0,0,0,81393,,452.0,,,68.0,23.0,323.0,3500.0,2000.0,0.0,6.0,0.0,20-20,,,tent,telescope,20.0,20.0,tent7,telescope12,0.0,0.0,9238gh948h.jpg,Junior Land and Sky Telescope.jpg,/static/Category_learning/Stimuli/Experimental_stims/tent/9238gh948h.jpg,/static/Category_learning/Stimuli/Experimental_stims/telescope/Junior Land and Sky Telescope.jpg,0.0,109.452,0.452,1.0,tent,telescope,20.0,20.0,tent7,telescope12,0.0,0.0,,,,,,
126,,confirmation,,html-keyboard-response,126,85428,0.0-1.0-25.0-0.0-1.0-0.0,0,0,81393,,,,,,23.0,,,,,6.0,,,,,,,,,,,,,,,,,,110.5,1.048,,,,,,,,,,,,,,,
127,,isi,,html-keyboard-response,127,85534,0.0-1.0-25.0-0.0-2.0,0,0,81393,,,,,,23.0,,,,,6.0,,,,,,,,,,,,,,,,,,114.0,3.5,,,,,,,,,,,,,,,
128,,feedback,,html-keyboard-response,128,86538,0.0-1.0-25.0-0.0-3.0-0.0,0,0,81393,,,,,,23.0,,,,,6.0,,,,,,,,,,,,,,,,,,115.0,1.0,,,,,,,,,,,,,,,
129,,iti,,html-keyboard-response,129,86644,0.0-1.0-25.0-0.0-5.0,0,0,81393,,,,,,23.0,,,,,6.0,,,,,,,,,,,,,,,,,,117.0,2.0,,,,,,,,,,,,,,,
130,,choice,,html-keyboard-response,130,86754,0.0-1.0-26.0-0.0-0.0,0,0,81393,,105.0,,,68.0,24.0,324.0,1500.0,2000.0,0.0,6.0,0.0,80-80,,,seashell,nail polish,80.0,80.0,seashell10,nail polish10,80.0,100.0,ASEASHE47.jpg,NLM23_opi_nail_polish.jpg,/static/Category_learning/Stimuli/Experimental_stims/seashell/ASEASHE47.jpg,/static/Category_learning/Stimuli/Experimental_stims/nail polish/NLM23_opi_nail_polish.jpg,0.0,117.105,0.105,1.0,seashell,nail polish,80.0,80.0,seashell10,nail polish10,80.0,100.0,,,,,,
131,,confirmation,,html-keyboard-response,131,88157,0.0-1.0-26.0-0.0-1.0-0.0,0,0,81393,,,,,,24.0,,,,,6.0,,,,,,,,,,,,,,,,,,118.5,1.395,,,,,,,,,,,,,,,
132,,isi,,html-keyboard-response,132,88261,0.0-1.0-26.0-0.0-2.0,0,0,81393,,,,,,24.0,,,,,6.0,,,,,,,,,,,,,,,,,,120.0,1.5,,,,,,,,,,,,,,,
133,,feedback,,html-keyboard-response,133,89269,0.0-1.0-26.0-0.0-3.0-0.0,0,0,81393,,,,,,24.0,,,,,6.0,,,,,,,,,,,,,,,,,,121.0,1.0,,,,,,,,,,,,,,,
134,,iti,,html-keyboard-response,134,89376,0.0-1.0-26.0-0.0-5.0,0,0,81393,,,,,,24.0,,,,,6.0,,,,,,,,,,,,,,,,,,123.0,2.0,,,,,,,,,,,,,,,
135,,choice,,html-keyboard-response,135,89734,0.0-1.0-27.0-0.0-0.0,0,0,81393,,355.0,,,68.0,25.0,325.0,1000.0,2000.0,0.0,6.0,1.0,40-60,0.0,,makeup compact,door knob,60.0,40.0,makeup compact1,door knob4,60.0,40.0,P190250_hero.jpg,chrome scroll latch handle.jpg,/static/Category_learning/Stimuli/Experimental_stims/makeup compact/P190250_hero.jpg,/static/Category_learning/Stimuli/Experimental_stims/door knob/chrome scroll latch handle.jpg,0.0,123.355,0.355,1.0,makeup compact,door knob,60.0,40.0,makeup compact1,door knob4,60.0,40.0,,,,,,
136,,confirmation,,html-keyboard-response,136,90887,0.0-1.0-27.0-0.0-1.0-0.0,0,0,81393,,,,,,25.0,,,,,6.0,,,,,,,,,,,,,,,,,,124.5,1.145,,,,,,,,,,,,,,,
137,,isi,,html-keyboard-response,137,90993,0.0-1.0-27.0-0.0-2.0,0,0,81393,,,,,,25.0,,,,,6.0,,,,,,,,,,,,,,,,,,125.5,1.0,,,,,,,,,,,,,,,
138,,feedback,,html-keyboard-response,138,92001,0.0-1.0-27.0-0.0-3.0-0.0,0,0,81393,,,,,,25.0,,,,,6.0,,,,,,,,,,,,,,,,,,126.5,1.0,,,,,,,,,,,,,,,
139,,iti,,html-keyboard-response,139,92106,0.0-1.0-27.0-0.0-5.0,0,0,81393,,,,,,25.0,,,,,6.0,,,,,,,,,,,,,,,,,,128.5,2.0,,,,,,,,,,,,,,,
140,,choice,,html-keyboard-response,140,93616,0.0-1.0-28.0-0.0-0.0,0,0,81393,,,,,,26.0,326.0,2000.0,1500.0,0.0,6.0,0.0,20-80,,0.0,vase,small table,20.0,80.0,vase8,small table6,20.0,100.0,Avase171.jpg,ATABLE88.jpg,/static/Category_learning/Stimuli/Experimental_stims/vase/Avase171.jpg,/static/Category_learning/Stimuli/Experimental_stims/small table/ATABLE88.jpg,1.0,130.0,1.5,,,,,,,,,,,,,,,
141,,isi,,html-keyboard-response,141,93724,0.0-1.0-28.0-0.0-2.0,0,0,81393,,,,,,26.0,,,,,6.0,,,,,,,,,,,,,,,,,,132.0,2.0,,,,,,,,,,,,,,,
142,,no_response,,html-keyboard-response,142,94732,0.0-1.0-28.0-0.0-4.0-0.0,1,0,81393,,,,,,26.0,,,,,6.0,,,,,,,,,,,,,,,,,,133.0,1.0,,,,,,,,,,,,,,,
143,,iti,,html-keyboard-response,143,94855,0.0-1.0-28.0-0.0-5.0,0,0,81393,,,,,,26.0,,,,,6.0,,,,,,,,,,,,,,,,,,134.5,1.5,,,,,,,,,,,,,,,
144,,choice,,html-keyboard-response,144,96365,0.0-1.0-28.0-0.1-0.1,0,0,81393,,,,,,26.0,326.0,2000.0,1500.0,0.0,6.0,0.0,20-80,,0.0,vase,small table,20.0,80.0,vase8,small table6,20.0,100.0,Avase171.jpg,ATABLE88.jpg,/static/Category_learning/Stimuli/Experimental_stims/vase/Avase171.jpg,/static/Category_learning/Stimuli/Experimental_stims/small table/ATABLE88.jpg,1.0,136.0,1.5,,,,,,,,,,,,,,,
145,,isi,,html-keyboard-response,145,96471,0.0-1.0-28.0-0.1-2.1,0,0,81393,,,,,,26.0,,,,,6.0,,,,,,,,,,,,,,,,,,138.0,2.0,,,,,,,,,,,,,,,
146,,no_response,,html-keyboard-response,146,97480,0.0-1.0-28.0-0.1-4.1-0.1,1,0,81393,,,,,,26.0,,,,,6.0,,,,,,,,,,,,,,,,,,139.0,1.0,,,,,,,,,,,,,,,
147,,iti,,html-keyboard-response,147,97603,0.0-1.0-28.0-0.1-5.1,0,0,81393,,,,,,26.0,,,,,6.0,,,,,,,,,,,,,,,,,,140.5,1.5,,,,,,,,,,,,,,,
148,,choice,,html-keyboard-response,148,99111,0.0-1.0-28.0-0.2-0.2,0,0,81393,,,,,,26.0,326.0,2000.0,1500.0,0.0,6.0,0.0,20-80,,0.0,vase,small table,20.0,80.0,vase8,small table6,20.0,100.0,Avase171.jpg,ATABLE88.jpg,/static/Category_learning/Stimuli/Experimental_stims/vase/Avase171.jpg,/static/Category_learning/Stimuli/Experimental_stims/small table/ATABLE88.jpg,1.0,142.0,1.5,,,,,,,,,,,,,,,
149,,isi,,html-keyboard-response,149,99218,0.0-1.0-28.0-0.2-2.2,0,0,81393,,,,,,26.0,,,,,6.0,,,,,,,,,,,,,,,,,,143.5,1.5,,,,,,,,,,,,,,,
150,,no_response,,html-keyboard-response,150,100226,0.0-1.0-28.0-0.2-4.2-0.2,1,0,81393,,,,,,26.0,,,,,6.0,,,,,,,,,,,,,,,,,,144.5,1.0,,,,,,,,,,,,,,,
151,,iti,,html-keyboard-response,151,100343,0.0-1.0-28.0-0.2-5.2,0,0,81393,,,,,,26.0,,,,,6.0,,,,,,,,,,,,,,,,,,146.5,2.0,,,,,,,,,,,,,,,
152,,choice,,html-keyboard-response,152,101852,0.0-1.0-28.0-0.3-0.3,0,0,81393,,,,,,26.0,326.0,2000.0,1500.0,0.0,6.0,0.0,20-80,,0.0,vase,small table,20.0,80.0,vase8,small table6,20.0,100.0,Avase171.jpg,ATABLE88.jpg,/static/Category_learning/Stimuli/Experimental_stims/vase/Avase171.jpg,/static/Category_learning/Stimuli/Experimental_stims/small table/ATABLE88.jpg,1.0,148.0,1.5,,,,,,,,,,,,,,,
153,,isi,,html-keyboard-response,153,101961,0.0-1.0-28.0-0.3-2.3,0,0,81393,,,,,,26.0,,,,,6.0,,,,,,,,,,,,,,,,,,149.0,1.0,,,,,,,,,,,,,,,
154,,no_response,,html-keyboard-response,154,102968,0.0-1.0-28.0-0.3-4.3-0.3,1,0,81393,,,,,,26.0,,,,,6.0,,,,,,,,,,,,,,,,,,150.0,1.0,,,,,,,,,,,,,,,
155,,iti,,html-keyboard-response,155,103091,0.0-1.0-28.0-0.3-5.3,0,0,81393,,,,,,26.0,,,,,6.0,,,,,,,,,,,,,,,,,,151.0,1.0,,,,,,,,,,,,,,,
156,,choice,,html-keyboard-response,156,104601,0.0-1.0-28.0-0.4-0.4,0,0,81393,,,,,,26.0,326.0,2000.0,1500.0,0.0,6.0,0.0,20-80,,0.0,vase,small table,20.0,80.0,vase8,small table6,20.0,100.0,Avase171.jpg,ATABLE88.jpg,/static/Category_learning/Stimuli/Experimental_stims/vase/Avase171.jpg,/static/Category_learning/Stimuli/Experimental_stims/small table/ATABLE88.jpg,1.0,152.5,1.5,,,,,,,,,,,,,,,
157,,isi,,html-keyboard-response,157,104709,0.0-1.0-28.0-0.4-2.4,0,0,81393,,,,,,26.0,,,,,6.0,,,,,,,,,,,,,,,,,,153.5,1.0,,,,,,,,,,,,,,,
158,,no_response,,html-keyboard-response,158,105715,0.0-1.0-28.0-0.4-4.4-0.4,1,0,81393,,,,,,26.0,,,,,6.0,,,,,,,,,,,,,,,,,,154.5,1.0,,,,,,,,,,,,,,,
159,,iti,,html-keyboard-response,159,105833,0.0-1.0-28.0-0.4-5.4,0,0,81393,,,,,,26.0,,,,,6.0,,,,,,,,,,,,,,,,,,156.0,1.5,,,,,,,,,,,,,,,
160,,choice,,html-keyboard-response,160,107341,0.0-1.0-28.0-0.5-0.5,0,0,81393,,,,,,26.0,326.0,2000.0,1500.0,0.0,6.0,0.0,20-80,,0.0,vase,small table,20.0,80.0,vase8,small table6,20.0,100.0,Avase171.jpg,ATABLE88.jpg,/static/Category_learning/Stimuli/Experimental_stims/vase/Avase171.jpg,/static/Category_learning/Stimuli/Experimental_stims/small table/ATABLE88.jpg,1.0,157.5,1.5,,,,,,,,,,,,,,,
161,,isi,,html-keyboard-response,161,107448,0.0-1.0-28.0-0.5-2.5,0,0,81393,,,,,,26.0,,,,,6.0,,,,,,,,,,,,,,,,,,159.5,2.0,,,,,,,,,,,,,,,
162,,no_response,,html-keyboard-response,162,108454,0.0-1.0-28.0-0.5-4.5-0.5,1,0,81393,,,,,,26.0,,,,,6.0,,,,,,,,,,,,,,,,,,160.5,1.0,,,,,,,,,,,,,,,
163,,iti,,html-keyboard-response,163,108576,0.0-1.0-28.0-0.5-5.5,0,0,81393,,,,,,26.0,,,,,6.0,,,,,,,,,,,,,,,,,,162.5,2.0,,,,,,,,,,,,,,,
164,,choice,,html-keyboard-response,164,110084,0.0-1.0-28.0-0.6-0.6,0,0,81393,,,,,,26.0,326.0,2000.0,1500.0,0.0,6.0,0.0,20-80,,0.0,vase,small table,20.0,80.0,vase8,small table6,20.0,100.0,Avase171.jpg,ATABLE88.jpg,/static/Category_learning/Stimuli/Experimental_stims/vase/Avase171.jpg,/static/Category_learning/Stimuli/Experimental_stims/small table/ATABLE88.jpg,1.0,164.0,1.5,,,,,,,,,,,,,,,
165,,isi,,html-keyboard-response,165,110190,0.0-1.0-28.0-0.6-2.6,0,0,81393,,,,,,26.0,,,,,6.0,,,,,,,,,,,,,,,,,,165.0,1.0,,,,,,,,,,,,,,,
166,,no_response,,html-keyboard-response,166,111196,0.0-1.0-28.0-0.6-4.6-0.6,1,0,81393,,,,,,26.0,,,,,6.0,,,,,,,,,,,,,,,,,,166.0,1.0,,,,,,,,,,,,,,,
167,,iti,,html-keyboard-response,167,111317,0.0-1.0-28.0-0.6-5.6,0,0,81393,,,,,,26.0,,,,,6.0,,,,,,,,,,,,,,,,,,167.0,1.0,,,,,,,,,,,,,,,
168,,choice,,html-keyboard-response,168,112826,0.0-1.0-28.0-0.7-0.7,0,0,81393,,,,,,26.0,326.0,2000.0,1500.0,0.0,6.0,0.0,20-80,,0.0,vase,small table,20.0,80.0,vase8,small table6,20.0,100.0,Avase171.jpg,ATABLE88.jpg,/static/Category_learning/Stimuli/Experimental_stims/vase/Avase171.jpg,/static/Category_learning/Stimuli/Experimental_stims/small table/ATABLE88.jpg,1.0,168.5,1.5,,,,,,,,,,,,,,,
169,,isi,,html-keyboard-response,169,112933,0.0-1.0-28.0-0.7-2.7,0,0,81393,,,,,,26.0,,,,,6.0,,,,,,,,,,,,,,,,,,170.0,1.5,,,,,,,,,,,,,,,
170,,no_response,,html-keyboard-response,170,113941,0.0-1.0-28.0-0.7-4.7-0.7,1,0,81393,,,,,,26.0,,,,,6.0,,,,,,,,,,,,,,,,,,171.0,1.0,,,,,,,,,,,,,,,
171,,iti,,html-keyboard-response,171,114063,0.0-1.0-28.0-0.7-5.7,0,0,81393,,,,,,26.0,,,,,6.0,,,,,,,,,,,,,,,,,,173.0,2.0,,,,,,,,,,,,,,,
172,,choice,,html-keyboard-response,172,115573,0.0-1.0-28.0-0.8-0.8,0,0,81393,,,,,,26.0,326.0,2000.0,1500.0,0.0,6.0,0.0,20-80,,0.0,vase,small table,20.0,80.0,vase8,small table6,20.0,100.0,Avase171.jpg,ATABLE88.jpg,/static/Category_learning/Stimuli/Experimental_stims/vase/Avase171.jpg,/static/Category_learning/Stimuli/Experimental_stims/small table/ATABLE88.jpg,1.0,174.5,1.5,,,,,,,,,,,,,,,
173,,isi,,html-keyboard-response,173,115678,0.0-1.0-28.0-0.8-2.8,0,0,81393,,,,,,26.0,,,,,6.0,,,,,,,,,,,,,,,,,,176.5,2.0,,,,,,,,,,,,,,,
174,,no_response,,html-keyboard-response,174,116685,0.0-1.0-28.0-0.8-4.8-0.8,1,0,81393,,,,,,26.0,,,,,6.0,,,,,,,,,,,,,,,,,,177.5,1.0,,,,,,,,,,,,,,,
175,,iti,,html-keyboard-response,175,116805,0.0-1.0-28.0-0.8-5.8,0,0,81393,,,,,,26.0,,,,,6.0,,,,,,,,,,,,,,,,,,178.5,1.0,,,,,,,,,,,,,,,
176,,choice,,html-keyboard-response,176,118315,0.0-1.0-28.0-0.9-0.9,0,0,81393,,,,,,26.0,326.0,2000.0,1500.0,0.0,6.0,0.0,20-80,,0.0,vase,small table,20.0,80.0,vase8,small table6,20.0,100.0,Avase171.jpg,ATABLE88.jpg,/static/Category_learning/Stimuli/Experimental_stims/vase/Avase171.jpg,/static/Category_learning/Stimuli/Experimental_stims/small table/ATABLE88.jpg,1.0,180.0,1.5,,,,,,,,,,,,,,,
177,,isi,,html-keyboard-response,177,118421,0.0-1.0-28.0-0.9-2.9,0,0,81393,,,,,,26.0,,,,,6.0,,,,,,,,,,,,,,,,,,181.5,1.5,,,,,,,,,,,,,,,
178,,no_response,,html-keyboard-response,178,119429,0.0-1.0-28.0-0.9-4.9-0.9,1,0,81393,,,,,,26.0,,,,,6.0,,,,,,,,,,,,,,,,,,182.5,1.0,,,,,,,,,,,,,,,
179,,iti,,html-keyboard-response,179,119551,0.0-1.0-28.0-0.9-5.9,0,0,81393,,,,,,26.0,,,,,6.0,,,,,,,,,,,,,,,,,,186.0,3.5,,,,,,,,,,,,,,,
180,,choice,,html-keyboard-response,180,121060,0.0-1.0-28.0-0.10-0.10,0,0,81393,,,,,,26.0,326.0,2000.0,1500.0,0.0,6.0,0.0,20-80,,0.0,vase,small table,20.0,80.0,vase8,small table6,20.0,100.0,Avase171.jpg,ATABLE88.jpg,/static/Category_learning/Stimuli/Experimental_stims/vase/Avase171.jpg,/static/Category_learning/Stimuli/Experimental_stims/small table/ATABLE88.jpg,1.0,187.5,1.5,,,,,,,,,,,,,,,
181,,isi,,html-keyboard-response,181,121167,0.0-1.0-28.0-0.10-2.10,0,0,81393,,,,,,26.0,,,,,6.0,,,,,,,,,,,,,,,,,,189.0,1.5,,,,,,,,,,,,,,,
182,,no_response,,html-keyboard-response,182,122174,0.0-1.0-28.0-0.10-4.10-0.10,1,0,81393,,,,,,26.0,,,,,6.0,,,,,,,,,,,,,,,,,,190.0,1.0,,,,,,,,,,,,,,,
183,,iti,,html-keyboard-response,183,122296,0.0-1.0-28.0-0.10-5.10,0,0,81393,,,,,,26.0,,,,,6.0,,,,,,,,,,,,,,,,,,192.0,2.0,,,,,,,,,,,,,,,
184,,choice,,html-keyboard-response,184,123803,0.0-1.0-28.0-0.11-0.11,0,0,81393,,,,,,26.0,326.0,2000.0,1500.0,0.0,6.0,0.0,20-80,,0.0,vase,small table,20.0,80.0,vase8,small table6,20.0,100.0,Avase171.jpg,ATABLE88.jpg,/static/Category_learning/Stimuli/Experimental_stims/vase/Avase171.jpg,/static/Category_learning/Stimuli/Experimental_stims/small table/ATABLE88.jpg,1.0,193.5,1.5,,,,,,,,,,,,,,,
185,,isi,,html-keyboard-response,185,123910,0.0-1.0-28.0-0.11-2.11,0,0,81393,,,,,,26.0,,,,,6.0,,,,,,,,,,,,,,,,,,194.5,1.0,,,,,,,,,,,,,,,
186,,no_response,,html-keyboard-response,186,124917,0.0-1.0-28.0-0.11-4.11-0.11,1,0,81393,,,,,,26.0,,,,,6.0,,,,,,,,,,,,,,,,,,195.5,1.0,,,,,,,,,,,,,,,
187,,iti,,html-keyboard-response,187,125040,0.0-1.0-28.0-0.11-5.11,0,0,81393,,,,,,26.0,,,,,6.0,,,,,,,,,,,,,,,,,,197.0,1.5,,,,,,,,,,,,,,,
188,,choice,,html-keyboard-response,188,126550,0.0-1.0-28.0-0.12-0.12,0,0,81393,,,,,,26.0,326.0,2000.0,1500.0,0.0,6.0,0.0,20-80,,0.0,vase,small table,20.0,80.0,vase8,small table6,20.0,100.0,Avase171.jpg,ATABLE88.jpg,/static/Category_learning/Stimuli/Experimental_stims/vase/Avase171.jpg,/static/Category_learning/Stimuli/Experimental_stims/small table/ATABLE88.jpg,1.0,198.5,1.5,,,,,,,,,,,,,,,
189,,isi,,html-keyboard-response,189,126656,0.0-1.0-28.0-0.12-2.12,0,0,81393,,,,,,26.0,,,,,6.0,,,,,,,,,,,,,,,,,,199.5,1.0,,,,,,,,,,,,,,,
190,,no_response,,html-keyboard-response,190,127663,0.0-1.0-28.0-0.12-4.12-0.12,1,0,81393,,,,,,26.0,,,,,6.0,,,,,,,,,,,,,,,,,,200.5,1.0,,,,,,,,,,,,,,,
191,,iti,,html-keyboard-response,191,127777,0.0-1.0-28.0-0.12-5.12,0,0,81393,,,,,,26.0,,,,,6.0,,,,,,,,,,,,,,,,,,202.0,1.5,,,,,,,,,,,,,,,
192,,choice,,html-keyboard-response,192,129286,0.0-1.0-28.0-0.13-0.13,0,0,81393,,,,,,26.0,326.0,2000.0,1500.0,0.0,6.0,0.0,20-80,,0.0,vase,small table,20.0,80.0,vase8,small table6,20.0,100.0,Avase171.jpg,ATABLE88.jpg,/static/Category_learning/Stimuli/Experimental_stims/vase/Avase171.jpg,/static/Category_learning/Stimuli/Experimental_stims/small table/ATABLE88.jpg,1.0,203.5,1.5,,,,,,,,,,,,,,,
193,,isi,,html-keyboard-response,193,129392,0.0-1.0-28.0-0.13-2.13,0,0,81393,,,,,,26.0,,,,,6.0,,,,,,,,,,,,,,,,,,205.5,2.0,,,,,,,,,,,,,,,
194,,no_response,,html-keyboard-response,194,130398,0.0-1.0-28.0-0.13-4.13-0.13,1,0,81393,,,,,,26.0,,,,,6.0,,,,,,,,,,,,,,,,,,206.5,1.0,,,,,,,,,,,,,,,
195,,iti,,html-keyboard-response,195,130513,0.0-1.0-28.0-0.13-5.13,0,0,81393,,,,,,26.0,,,,,6.0,,,,,,,,,,,,,,,,,,207.5,1.0,,,,,,,,,,,,,,,
196,,choice,,html-keyboard-response,196,132021,0.0-1.0-28.0-0.14-0.14,0,0,81393,,,,,,26.0,326.0,2000.0,1500.0,0.0,6.0,0.0,20-80,,0.0,vase,small table,20.0,80.0,vase8,small table6,20.0,100.0,Avase171.jpg,ATABLE88.jpg,/static/Category_learning/Stimuli/Experimental_stims/vase/Avase171.jpg,/static/Category_learning/Stimuli/Experimental_stims/small table/ATABLE88.jpg,1.0,209.0,1.5,,,,,,,,,,,,,,,
197,,isi,,html-keyboard-response,197,132127,0.0-1.0-28.0-0.14-2.14,0,0,81393,,,,,,26.0,,,,,6.0,,,,,,,,,,,,,,,,,,210.0,1.0,,,,,,,,,,,,,,,
198,,no_response,,html-keyboard-response,198,133131,0.0-1.0-28.0-0.14-4.14-0.14,1,0,81393,,,,,,26.0,,,,,6.0,,,,,,,,,,,,,,,,,,211.0,1.0,,,,,,,,,,,,,,,
199,,iti,,html-keyboard-response,199,133254,0.0-1.0-28.0-0.14-5.14,0,0,81393,,,,,,26.0,,,,,6.0,,,,,,,,,,,,,,,,,,214.5,3.5,,,,,,,,,,,,,,,
200,,choice,,html-keyboard-response,200,134762,0.0-1.0-28.0-0.15-0.15,0,0,81393,,,,,,26.0,326.0,2000.0,1500.0,0.0,6.0,0.0,20-80,,0.0,vase,small table,20.0,80.0,vase8,small table6,20.0,100.0,Avase171.jpg,ATABLE88.jpg,/static/Category_learning/Stimuli/Experimental_stims/vase/Avase171.jpg,/static/Category_learning/Stimuli/Experimental_stims/small table/ATABLE88.jpg,1.0,216.0,1.5,,,,,,,,,,,,,,,
201,,isi,,html-keyboard-response,201,134869,0.0-1.0-28.0-0.15-2.15,0,0,81393,,,,,,26.0,,,,,6.0,,,,,,,,,,,,,,,,,,217.0,1.0,,,,,,,,,,,,,,,
202,,no_response,,html-keyboard-response,202,135876,0.0-1.0-28.0-0.15-4.15-0.15,1,0,81393,,,,,,26.0,,,,,6.0,,,,,,,,,,,,,,,,,,218.0,1.0,,,,,,,,,,,,,,,
203,,iti,,html-keyboard-response,203,135996,0.0-1.0-28.0-0.15-5.15,0,0,81393,,,,,,26.0,,,,,6.0,,,,,,,,,,,,,,,,,,219.0,1.0,,,,,,,,,,,,,,,
204,,choice,,html-keyboard-response,204,137504,0.0-1.0-28.0-0.16-0.16,0,0,81393,,,,,,26.0,326.0,2000.0,1500.0,0.0,6.0,0.0,20-80,,0.0,vase,small table,20.0,80.0,vase8,small table6,20.0,100.0,Avase171.jpg,ATABLE88.jpg,/static/Category_learning/Stimuli/Experimental_stims/vase/Avase171.jpg,/static/Category_learning/Stimuli/Experimental_stims/small table/ATABLE88.jpg,1.0,220.5,1.5,,,,,,,,,,,,,,,
205,,isi,,html-keyboard-response,205,137612,0.0-1.0-28.0-0.16-2.16,0,0,81393,,,,,,26.0,,,,,6.0,,,,,,,,,,,,,,,,,,221.5,1.0,,,,,,,,,,,,,,,
206,,no_response,,html-keyboard-response,206,138619,0.0-1.0-28.0-0.16-4.16-0.16,1,0,81393,,,,,,26.0,,,,,6.0,,,,,,,,,,,,,,,,,,222.5,1.0,,,,,,,,,,,,,,,
207,,iti,,html-keyboard-response,207,138736,0.0-1.0-28.0-0.16-5.16,0,0,81393,,,,,,26.0,,,,,6.0,,,,,,,,,,,,,,,,,,223.5,1.0,,,,,,,,,,,,,,,
208,,choice,,html-keyboard-response,208,140241,0.0-1.0-28.0-0.17-0.17,0,0,81393,,,,,,26.0,326.0,2000.0,1500.0,0.0,6.0,0.0,20-80,,0.0,vase,small table,20.0,80.0,vase8,small table6,20.0,100.0,Avase171.jpg,ATABLE88.jpg,/static/Category_learning/Stimuli/Experimental_stims/vase/Avase171.jpg,/static/Category_learning/Stimuli/Experimental_stims/small table/ATABLE88.jpg,1.0,225.0,1.5,,,,,,,,,,,,,,,
209,,isi,,html-keyboard-response,209,140348,0.0-1.0-28.0-0.17-2.17,0,0,81393,,,,,,26.0,,,,,6.0,,,,,,,,,,,,,,,,,,227.0,2.0,,,,,,,,,,,,,,,
210,,no_response,,html-keyboard-response,210,141354,0.0-1.0-28.0-0.17-4.17-0.17,1,0,81393,,,,,,26.0,,,,,6.0,,,,,,,,,,,,,,,,,,228.0,1.0,,,,,,,,,,,,,,,
211,,iti,,html-keyboard-response,211,141468,0.0-1.0-28.0-0.17-5.17,0,0,81393,,,,,,26.0,,,,,6.0,,,,,,,,,,,,,,,,,,229.5,1.5,,,,,,,,,,,,,,,
212,,choice,,html-keyboard-response,212,142976,0.0-1.0-28.0-0.18-0.18,0,0,81393,,,,,,26.0,326.0,2000.0,1500.0,0.0,6.0,0.0,20-80,,0.0,vase,small table,20.0,80.0,vase8,small table6,20.0,100.0,Avase171.jpg,ATABLE88.jpg,/static/Category_learning/Stimuli/Experimental_stims/vase/Avase171.jpg,/static/Category_learning/Stimuli/Experimental_stims/small table/ATABLE88.jpg,1.0,231.0,1.5,,,,,,,,,,,,,,,
213,,isi,,html-keyboard-response,213,143083,0.0-1.0-28.0-0.18-2.18,0,0,81393,,,,,,26.0,,,,,6.0,,,,,,,,,,,,,,,,,,232.5,1.5,,,,,,,,,,,,,,,
214,,no_response,,html-keyboard-response,214,144091,0.0-1.0-28.0-0.18-4.18-0.18,1,0,81393,,,,,,26.0,,,,,6.0,,,,,,,,,,,,,,,,,,233.5,1.0,,,,,,,,,,,,,,,
215,,iti,,html-keyboard-response,215,144214,0.0-1.0-28.0-0.18-5.18,0,0,81393,,,,,,26.0,,,,,6.0,,,,,,,,,,,,,,,,,,235.0,1.5,,,,,,,,,,,,,,,
216,,choice,,html-keyboard-response,216,145723,0.0-1.0-28.0-0.19-0.19,0,0,81393,,,,,,26.0,326.0,2000.0,1500.0,0.0,6.0,0.0,20-80,,0.0,vase,small table,20.0,80.0,vase8,small table6,20.0,100.0,Avase171.jpg,ATABLE88.jpg,/static/Category_learning/Stimuli/Experimental_stims/vase/Avase171.jpg,/static/Category_learning/Stimuli/Experimental_stims/small table/ATABLE88.jpg,1.0,236.5,1.5,,,,,,,,,,,,,,,
217,,isi,,html-keyboard-response,217,145830,0.0-1.0-28.0-0.19-2.19,0,0,81393,,,,,,26.0,,,,,6.0,,,,,,,,,,,,,,,,,,238.0,1.5,,,,,,,,,,,,,,,
218,,no_response,,html-keyboard-response,218,146838,0.0-1.0-28.0-0.19-4.19-0.19,1,0,81393,,,,,,26.0,,,,,6.0,,,,,,,,,,,,,,,,,,239.0,1.0,,,,,,,,,,,,,,,
219,,iti,,html-keyboard-response,219,146955,0.0-1.0-28.0-0.19-5.19,0,0,81393,,,,,,26.0,,,,,6.0,,,,,,,,,,,,,,,,,,240.0,1.0,,,,,,,,,,,,,,,
220,,choice,,html-keyboard-response,220,148460,0.0-1.0-28.0-0.20-0.20,0,0,81393,,,,,,26.0,326.0,2000.0,1500.0,0.0,6.0,0.0,20-80,,0.0,vase,small table,20.0,80.0,vase8,small table6,20.0,100.0,Avase171.jpg,ATABLE88.jpg,/static/Category_learning/Stimuli/Experimental_stims/vase/Avase171.jpg,/static/Category_learning/Stimuli/Experimental_stims/small table/ATABLE88.jpg,1.0,241.5,1.5,,,,,,,,,,,,,,,
221,,isi,,html-keyboard-response,221,148566,0.0-1.0-28.0-0.20-2.20,0,0,81393,,,,,,26.0,,,,,6.0,,,,,,,,,,,,,,,,,,243.5,2.0,,,,,,,,,,,,,,,
222,,no_response,,html-keyboard-response,222,149574,0.0-1.0-28.0-0.20-4.20-0.20,1,0,81393,,,,,,26.0,,,,,6.0,,,,,,,,,,,,,,,,,,244.5,1.0,,,,,,,,,,,,,,,
223,,iti,,html-keyboard-response,223,149692,0.0-1.0-28.0-0.20-5.20,0,0,81393,,,,,,26.0,,,,,6.0,,,,,,,,,,,,,,,,,,246.5,2.0,,,,,,,,,,,,,,,
224,,choice,,html-keyboard-response,224,151201,0.0-1.0-28.0-0.21-0.21,0,0,81393,,,,,,26.0,326.0,2000.0,1500.0,0.0,6.0,0.0,20-80,,0.0,vase,small table,20.0,80.0,vase8,small table6,20.0,100.0,Avase171.jpg,ATABLE88.jpg,/static/Category_learning/Stimuli/Experimental_stims/vase/Avase171.jpg,/static/Category_learning/Stimuli/Experimental_stims/small table/ATABLE88.jpg,1.0,248.0,1.5,,,,,,,,,,,,,,,
225,,isi,,html-keyboard-response,225,151308,0.0-1.0-28.0-0.21-2.21,0,0,81393,,,,,,26.0,,,,,6.0,,,,,,,,,,,,,,,,,,249.0,1.0,,,,,,,,,,,,,,,
226,,no_response,,html-keyboard-response,226,152315,0.0-1.0-28.0-0.21-4.21-0.21,1,0,81393,,,,,,26.0,,,,,6.0,,,,,,,,,,,,,,,,,,250.0,1.0,,,,,,,,,,,,,,,
227,,iti,,html-keyboard-response,227,152432,0.0-1.0-28.0-0.21-5.21,0,0,81393,,,,,,26.0,,,,,6.0,,,,,,,,,,,,,,,,,,251.5,1.5,,,,,,,,,,,,,,,
228,,choice,,html-keyboard-response,228,153938,0.0-1.0-28.0-0.22-0.22,0,0,81393,,,,,,26.0,326.0,2000.0,1500.0,0.0,6.0,0.0,20-80,,0.0,vase,small table,20.0,80.0,vase8,small table6,20.0,100.0,Avase171.jpg,ATABLE88.jpg,/static/Category_learning/Stimuli/Experimental_stims/vase/Avase171.jpg,/static/Category_learning/Stimuli/Experimental_stims/small table/ATABLE88.jpg,1.0,253.0,1.5,,,,,,,,,,,,,,,
229,,isi,,html-keyboard-response,229,154044,0.0-1.0-28.0-0.22-2.22,0,0,81393,,,,,,26.0,,,,,6.0,,,,,,,,,,,,,,,,,,254.0,1.0,,,,,,,,,,,,,,,
230,,no_response,,html-keyboard-response,230,155051,0.0-1.0-28.0-0.22-4.22-0.22,1,0,81393,,,,,,26.0,,,,,6.0,,,,,,,,,,,,,,,,,,255.0,1.0,,,,,,,,,,,,,,,
231,,iti,,html-keyboard-response,231,155169,0.0-1.0-28.0-0.22-5.22,0,0,81393,,,,,,26.0,,,,,6.0,,,,,,,,,,,,,,,,,,256.5,1.5,,,,,,,,,,,,,,,
232,,choice,,html-keyboard-response,232,156675,0.0-1.0-28.0-0.23-0.23,0,0,81393,,,,,,26.0,326.0,2000.0,1500.0,0.0,6.0,0.0,20-80,,0.0,vase,small table,20.0,80.0,vase8,small table6,20.0,100.0,Avase171.jpg,ATABLE88.jpg,/static/Category_learning/Stimuli/Experimental_stims/vase/Avase171.jpg,/static/Category_learning/Stimuli/Experimental_stims/small table/ATABLE88.jpg,1.0,258.0,1.5,,,,,,,,,,,,,,,
233,,isi,,html-keyboard-response,233,156780,0.0-1.0-28.0-0.23-2.23,0,0,81393,,,,,,26.0,,,,,6.0,,,,,,,,,,,,,,,,,,260.0,2.0,,,,,,,,,,,,,,,
234,,no_response,,html-keyboard-response,234,157788,0.0-1.0-28.0-0.23-4.23-0.23,1,0,81393,,,,,,26.0,,,,,6.0,,,,,,,,,,,,,,,,,,261.0,1.0,,,,,,,,,,,,,,,
235,,iti,,html-keyboard-response,235,157908,0.0-1.0-28.0-0.23-5.23,0,0,81393,,,,,,26.0,,,,,6.0,,,,,,,,,,,,,,,,,,262.0,1.0,,,,,,,,,,,,,,,
236,,choice,,html-keyboard-response,236,159415,0.0-1.0-28.0-0.24-0.24,0,0,81393,,,,,,26.0,326.0,2000.0,1500.0,0.0,6.0,0.0,20-80,,0.0,vase,small table,20.0,80.0,vase8,small table6,20.0,100.0,Avase171.jpg,ATABLE88.jpg,/static/Category_learning/Stimuli/Experimental_stims/vase/Avase171.jpg,/static/Category_learning/Stimuli/Experimental_stims/small table/ATABLE88.jpg,1.0,263.5,1.5,,,,,,,,,,,,,,,
237,,isi,,html-keyboard-response,237,159521,0.0-1.0-28.0-0.24-2.24,0,0,81393,,,,,,26.0,,,,,6.0,,,,,,,,,,,,,,,,,,264.5,1.0,,,,,,,,,,,,,,,
238,,no_response,,html-keyboard-response,238,160529,0.0-1.0-28.0-0.24-4.24-0.24,1,0,81393,,,,,,26.0,,,,,6.0,,,,,,,,,,,,,,,,,,265.5,1.0,,,,,,,,,,,,,,,
239,,iti,,html-keyboard-response,239,160652,0.0-1.0-28.0-0.24-5.24,0,0,81393,,,,,,26.0,,,,,6.0,,,,,,,,,,,,,,,,,,268.5,3.0,,,,,,,,,,,,,,,
240,,choice,,html-keyboard-response,240,162161,0.0-1.0-28.0-0.25-0.25,0,0,81393,,,,,,26.0,326.0,2000.0,1500.0,0.0,6.0,0.0,20-80,,0.0,vase,small table,20.0,80.0,vase8,small table6,20.0,100.0,Avase171.jpg,ATABLE88.jpg,/static/Category_learning/Stimuli/Experimental_stims/vase/Avase171.jpg,/static/Category_learning/Stimuli/Experimental_stims/small table/ATABLE88.jpg,1.0,270.0,1.5,,,,,,,,,,,,,,,
241,,isi,,html-keyboard-response,241,162267,0.0-1.0-28.0-0.25-2.25,0,0,81393,,,,,,26.0,,,,,6.0,,,,,,,,,,,,,,,,,,271.0,1.0,,,,,,,,,,,,,,,
242,,no_response,,html-keyboard-response,242,163275,0.0-1.0-28.0-0.25-4.25-0.25,1,0,81393,,,,,,26.0,,,,,6.0,,,,,,,,,,,,,,,,,,272.0,1.0,,,,,,,,,,,,,,,
243,,iti,,html-keyboard-response,243,163390,0.0-1.0-28.0-0.25-5.25,0,0,81393,,,,,,26.0,,,,,6.0,,,,,,,,,,,,,,,,,,273.5,1.5,,,,,,,,,,,,,,,
244,,choice,,html-keyboard-response,244,164897,0.0-1.0-28.0-0.26-0.26,0,0,81393,,,,,,26.0,326.0,2000.0,1500.0,0.0,6.0,0.0,20-80,,0.0,vase,small table,20.0,80.0,vase8,small table6,20.0,100.0,Avase171.jpg,ATABLE88.jpg,/static/Category_learning/Stimuli/Experimental_stims/vase/Avase171.jpg,/static/Category_learning/Stimuli/Experimental_stims/small table/ATABLE88.jpg,1.0,275.0,1.5,,,,,,,,,,,,,,,
245,,isi,,html-keyboard-response,245,165005,0.0-1.0-28.0-0.26-2.26,0,0,81393,,,,,,26.0,,,,,6.0,,,,,,,,,,,,,,,,,,276.5,1.5,,,,,,,,,,,,,,,
246,,no_response,,html-keyboard-response,246,166012,0.0-1.0-28.0-0.26-4.26-0.26,1,0,81393,,,,,,26.0,,,,,6.0,,,,,,,,,,,,,,,,,,277.5,1.0,,,,,,,,,,,,,,,
247,,iti,,html-keyboard-response,247,166131,0.0-1.0-28.0-0.26-5.26,0,0,81393,,,,,,26.0,,,,,6.0,,,,,,,,,,,,,,,,,,279.5,2.0,,,,,,,,,,,,,,,
248,,choice,,html-keyboard-response,248,167639,0.0-1.0-28.0-0.27-0.27,0,0,81393,,,,,,26.0,326.0,2000.0,1500.0,0.0,6.0,0.0,20-80,,0.0,vase,small table,20.0,80.0,vase8,small table6,20.0,100.0,Avase171.jpg,ATABLE88.jpg,/static/Category_learning/Stimuli/Experimental_stims/vase/Avase171.jpg,/static/Category_learning/Stimuli/Experimental_stims/small table/ATABLE88.jpg,1.0,281.0,1.5,,,,,,,,,,,,,,,
249,,isi,,html-keyboard-response,249,167747,0.0-1.0-28.0-0.27-2.27,0,0,81393,,,,,,26.0,,,,,6.0,,,,,,,,,,,,,,,,,,284.5,3.5,,,,,,,,,,,,,,,
250,,no_response,,html-keyboard-response,250,168754,0.0-1.0-28.0-0.27-4.27-0.27,1,0,81393,,,,,,26.0,,,,,6.0,,,,,,,,,,,,,,,,,,285.5,1.0,,,,,,,,,,,,,,,
251,,iti,,html-keyboard-response,251,168870,0.0-1.0-28.0-0.27-5.27,0,0,81393,,,,,,26.0,,,,,6.0,,,,,,,,,,,,,,,,,,287.5,2.0,,,,,,,,,,,,,,,
252,,choice,,html-keyboard-response,252,170377,0.0-1.0-28.0-0.28-0.28,0,0,81393,,,,,,26.0,326.0,2000.0,1500.0,0.0,6.0,0.0,20-80,,0.0,vase,small table,20.0,80.0,vase8,small table6,20.0,100.0,Avase171.jpg,ATABLE88.jpg,/static/Category_learning/Stimuli/Experimental_stims/vase/Avase171.jpg,/static/Category_learning/Stimuli/Experimental_stims/small table/ATABLE88.jpg,1.0,289.0,1.5,,,,,,,,,,,,,,,
253,,isi,,html-keyboard-response,253,170481,0.0-1.0-28.0-0.28-2.28,0,0,81393,,,,,,26.0,,,,,6.0,,,,,,,,,,,,,,,,,,290.0,1.0,,,,,,,,,,,,,,,
254,,no_response,,html-keyboard-response,254,171490,0.0-1.0-28.0-0.28-4.28-0.28,1,0,81393,,,,,,26.0,,,,,6.0,,,,,,,,,,,,,,,,,,291.0,1.0,,,,,,,,,,,,,,,
255,,iti,,html-keyboard-response,255,171612,0.0-1.0-28.0-0.28-5.28,0,0,81393,,,,,,26.0,,,,,6.0,,,,,,,,,,,,,,,,,,293.0,2.0,,,,,,,,,,,,,,,
256,,choice,,html-keyboard-response,256,173121,0.0-1.0-28.0-0.29-0.29,0,0,81393,,,,,,26.0,326.0,2000.0,1500.0,0.0,6.0,0.0,20-80,,0.0,vase,small table,20.0,80.0,vase8,small table6,20.0,100.0,Avase171.jpg,ATABLE88.jpg,/static/Category_learning/Stimuli/Experimental_stims/vase/Avase171.jpg,/static/Category_learning/Stimuli/Experimental_stims/small table/ATABLE88.jpg,1.0,294.5,1.5,,,,,,,,,,,,,,,
257,,isi,,html-keyboard-response,257,173227,0.0-1.0-28.0-0.29-2.29,0,0,81393,,,,,,26.0,,,,,6.0,,,,,,,,,,,,,,,,,,296.5,2.0,,,,,,,,,,,,,,,
258,,no_response,,html-keyboard-response,258,174235,0.0-1.0-28.0-0.29-4.29-0.29,1,0,81393,,,,,,26.0,,,,,6.0,,,,,,,,,,,,,,,,,,297.5,1.0,,,,,,,,,,,,,,,
259,,iti,,html-keyboard-response,259,174353,0.0-1.0-28.0-0.29-5.29,0,0,81393,,,,,,26.0,,,,,6.0,,,,,,,,,,,,,,,,,,299.0,1.5,,,,,,,,,,,,,,,
260,,choice,,html-keyboard-response,260,175863,0.0-1.0-28.0-0.30-0.30,0,0,81393,,,,,,26.0,326.0,2000.0,1500.0,0.0,6.0,0.0,20-80,,0.0,vase,small table,20.0,80.0,vase8,small table6,20.0,100.0,Avase171.jpg,ATABLE88.jpg,/static/Category_learning/Stimuli/Experimental_stims/vase/Avase171.jpg,/static/Category_learning/Stimuli/Experimental_stims/small table/ATABLE88.jpg,1.0,300.5,1.5,,,,,,,,,,,,,,,
261,,isi,,html-keyboard-response,261,175969,0.0-1.0-28.0-0.30-2.30,0,0,81393,,,,,,26.0,,,,,6.0,,,,,,,,,,,,,,,,,,302.0,1.5,,,,,,,,,,,,,,,
262,,no_response,,html-keyboard-response,262,176977,0.0-1.0-28.0-0.30-4.30-0.30,1,0,81393,,,,,,26.0,,,,,6.0,,,,,,,,,,,,,,,,,,303.0,1.0,,,,,,,,,,,,,,,
263,,iti,,html-keyboard-response,263,177095,0.0-1.0-28.0-0.30-5.30,0,0,81393,,,,,,26.0,,,,,6.0,,,,,,,,,,,,,,,,,,304.0,1.0,,,,,,,,,,,,,,,
264,,choice,,html-keyboard-response,264,178605,0.0-1.0-28.0-0.31-0.31,0,0,81393,,,,,,26.0,326.0,2000.0,1500.0,0.0,6.0,0.0,20-80,,0.0,vase,small table,20.0,80.0,vase8,small table6,20.0,100.0,Avase171.jpg,ATABLE88.jpg,/static/Category_learning/Stimuli/Experimental_stims/vase/Avase171.jpg,/static/Category_learning/Stimuli/Experimental_stims/small table/ATABLE88.jpg,1.0,305.5,1.5,,,,,,,,,,,,,,,
265,,isi,,html-keyboard-response,265,178710,0.0-1.0-28.0-0.31-2.31,0,0,81393,,,,,,26.0,,,,,6.0,,,,,,,,,,,,,,,,,,306.5,1.0,,,,,,,,,,,,,,,
266,,no_response,,html-keyboard-response,266,179717,0.0-1.0-28.0-0.31-4.31-0.31,1,0,81393,,,,,,26.0,,,,,6.0,,,,,,,,,,,,,,,,,,307.5,1.0,,,,,,,,,,,,,,,
267,,iti,,html-keyboard-response,267,179838,0.0-1.0-28.0-0.31-5.31,0,0,81393,,,,,,26.0,,,,,6.0,,,,,,,,,,,,,,,,,,310.5,3.0,,,,,,,,,,,,,,,
268,,choice,,html-keyboard-response,268,181346,0.0-1.0-28.0-0.32-0.32,0,0,81393,,,,,,26.0,326.0,2000.0,1500.0,0.0,6.0,0.0,20-80,,0.0,vase,small table,20.0,80.0,vase8,small table6,20.0,100.0,Avase171.jpg,ATABLE88.jpg,/static/Category_learning/Stimuli/Experimental_stims/vase/Avase171.jpg,/static/Category_learning/Stimuli/Experimental_stims/small table/ATABLE88.jpg,1.0,312.0,1.5,,,,,,,,,,,,,,,
269,,isi,,html-keyboard-response,269,181451,0.0-1.0-28.0-0.32-2.32,0,0,81393,,,,,,26.0,,,,,6.0,,,,,,,,,,,,,,,,,,313.0,1.0,,,,,,,,,,,,,,,
270,,no_response,,html-keyboard-response,270,182458,0.0-1.0-28.0-0.32-4.32-0.32,1,0,81393,,,,,,26.0,,,,,6.0,,,,,,,,,,,,,,,,,,314.0,1.0,,,,,,,,,,,,,,,
271,,iti,,html-keyboard-response,271,182578,0.0-1.0-28.0-0.32-5.32,0,0,81393,,,,,,26.0,,,,,6.0,,,,,,,,,,,,,,,,,,316.0,2.0,,,,,,,,,,,,,,,
272,,choice,,html-keyboard-response,272,184087,0.0-1.0-28.0-0.33-0.33,0,0,81393,,,,,,26.0,326.0,2000.0,1500.0,0.0,6.0,0.0,20-80,,0.0,vase,small table,20.0,80.0,vase8,small table6,20.0,100.0,Avase171.jpg,ATABLE88.jpg,/static/Category_learning/Stimuli/Experimental_stims/vase/Avase171.jpg,/static/Category_learning/Stimuli/Experimental_stims/small table/ATABLE88.jpg,1.0,317.5,1.5,,,,,,,,,,,,,,,
273,,isi,,html-keyboard-response,273,184194,0.0-1.0-28.0-0.33-2.33,0,0,81393,,,,,,26.0,,,,,6.0,,,,,,,,,,,,,,,,,,319.0,1.5,,,,,,,,,,,,,,,
274,,no_response,,html-keyboard-response,274,185202,0.0-1.0-28.0-0.33-4.33-0.33,1,0,81393,,,,,,26.0,,,,,6.0,,,,,,,,,,,,,,,,,,320.0,1.0,,,,,,,,,,,,,,,
275,,iti,,html-keyboard-response,275,185320,0.0-1.0-28.0-0.33-5.33,0,0,81393,,,,,,26.0,,,,,6.0,,,,,,,,,,,,,,,,,,321.0,1.0,,,,,,,,,,,,,,,
276,,choice,,html-keyboard-response,276,186829,0.0-1.0-28.0-0.34-0.34,0,0,81393,,,,,,26.0,326.0,2000.0,1500.0,0.0,6.0,0.0,20-80,,0.0,vase,small table,20.0,80.0,vase8,small table6,20.0,100.0,Avase171.jpg,ATABLE88.jpg,/static/Category_learning/Stimuli/Experimental_stims/vase/Avase171.jpg,/static/Category_learning/Stimuli/Experimental_stims/small table/ATABLE88.jpg,1.0,322.5,1.5,,,,,,,,,,,,,,,
277,,isi,,html-keyboard-response,277,186935,0.0-1.0-28.0-0.34-2.34,0,0,81393,,,,,,26.0,,,,,6.0,,,,,,,,,,,,,,,,,,323.5,1.0,,,,,,,,,,,,,,,
278,,no_response,,html-keyboard-response,278,187943,0.0-1.0-28.0-0.34-4.34-0.34,1,0,81393,,,,,,26.0,,,,,6.0,,,,,,,,,,,,,,,,,,324.5,1.0,,,,,,,,,,,,,,,
279,,iti,,html-keyboard-response,279,188061,0.0-1.0-28.0-0.34-5.34,0,0,81393,,,,,,26.0,,,,,6.0,,,,,,,,,,,,,,,,,,328.0,3.5,,,,,,,,,,,,,,,
280,,choice,,html-keyboard-response,280,189569,0.0-1.0-28.0-0.35-0.35,0,0,81393,,,,,,26.0,326.0,2000.0,1500.0,0.0,6.0,0.0,20-80,,0.0,vase,small table,20.0,80.0,vase8,small table6,20.0,100.0,Avase171.jpg,ATABLE88.jpg,/static/Category_learning/Stimuli/Experimental_stims/vase/Avase171.jpg,/static/Category_learning/Stimuli/Experimental_stims/small table/ATABLE88.jpg,1.0,329.5,1.5,,,,,,,,,,,,,,,
281,,isi,,html-keyboard-response,281,189676,0.0-1.0-28.0-0.35-2.35,0,0,81393,,,,,,26.0,,,,,6.0,,,,,,,,,,,,,,,,,,331.0,1.5,,,,,,,,,,,,,,,
282,,no_response,,html-keyboard-response,282,190683,0.0-1.0-28.0-0.35-4.35-0.35,1,0,81393,,,,,,26.0,,,,,6.0,,,,,,,,,,,,,,,,,,332.0,1.0,,,,,,,,,,,,,,,
283,,iti,,html-keyboard-response,283,190803,0.0-1.0-28.0-0.35-5.35,0,0,81393,,,,,,26.0,,,,,6.0,,,,,,,,,,,,,,,,,,333.0,1.0,,,,,,,,,,,,,,,
284,,choice,,html-keyboard-response,284,192311,0.0-1.0-28.0-0.36-0.36,0,0,81393,,,,,,26.0,326.0,2000.0,1500.0,0.0,6.0,0.0,20-80,,0.0,vase,small table,20.0,80.0,vase8,small table6,20.0,100.0,Avase171.jpg,ATABLE88.jpg,/static/Category_learning/Stimuli/Experimental_stims/vase/Avase171.jpg,/static/Category_learning/Stimuli/Experimental_stims/small table/ATABLE88.jpg,1.0,334.5,1.5,,,,,,,,,,,,,,,
285,,isi,,html-keyboard-response,285,192417,0.0-1.0-28.0-0.36-2.36,0,0,81393,,,,,,26.0,,,,,6.0,,,,,,,,,,,,,,,,,,336.5,2.0,,,,,,,,,,,,,,,
286,,no_response,,html-keyboard-response,286,193426,0.0-1.0-28.0-0.36-4.36-0.36,1,0,81393,,,,,,26.0,,,,,6.0,,,,,,,,,,,,,,,,,,337.5,1.0,,,,,,,,,,,,,,,
287,,iti,,html-keyboard-response,287,193543,0.0-1.0-28.0-0.36-5.36,0,0,81393,,,,,,26.0,,,,,6.0,,,,,,,,,,,,,,,,,,338.5,1.0,,,,,,,,,,,,,,,
288,,choice,,html-keyboard-response,288,195053,0.0-1.0-28.0-0.37-0.37,0,0,81393,,,,,,26.0,326.0,2000.0,1500.0,0.0,6.0,0.0,20-80,,0.0,vase,small table,20.0,80.0,vase8,small table6,20.0,100.0,Avase171.jpg,ATABLE88.jpg,/static/Category_learning/Stimuli/Experimental_stims/vase/Avase171.jpg,/static/Category_learning/Stimuli/Experimental_stims/small table/ATABLE88.jpg,1.0,340.0,1.5,,,,,,,,,,,,,,,
289,,isi,,html-keyboard-response,289,195159,0.0-1.0-28.0-0.37-2.37,0,0,81393,,,,,,26.0,,,,,6.0,,,,,,,,,,,,,,,,,,341.5,1.5,,,,,,,,,,,,,,,
290,,no_response,,html-keyboard-response,290,196167,0.0-1.0-28.0-0.37-4.37-0.37,1,0,81393,,,,,,26.0,,,,,6.0,,,,,,,,,,,,,,,,,,342.5,1.0,,,,,,,,,,,,,,,
291,,iti,,html-keyboard-response,291,196290,0.0-1.0-28.0-0.37-5.37,0,0,81393,,,,,,26.0,,,,,6.0,,,,,,,,,,,,,,,,,,343.5,1.0,,,,,,,,,,,,,,,
292,,choice,,html-keyboard-response,292,197799,0.0-1.0-28.0-0.38-0.38,0,0,81393,,,,,,26.0,326.0,2000.0,1500.0,0.0,6.0,0.0,20-80,,0.0,vase,small table,20.0,80.0,vase8,small table6,20.0,100.0,Avase171.jpg,ATABLE88.jpg,/static/Category_learning/Stimuli/Experimental_stims/vase/Avase171.jpg,/static/Category_learning/Stimuli/Experimental_stims/small table/ATABLE88.jpg,1.0,345.0,1.5,,,,,,,,,,,,,,,
293,,isi,,html-keyboard-response,293,197906,0.0-1.0-28.0-0.38-2.38,0,0,81393,,,,,,26.0,,,,,6.0,,,,,,,,,,,,,,,,,,348.5,3.5,,,,,,,,,,,0.2,,,,
294,,final_tally,,html-keyboard-response,294,207559,0.0-2.0-0.0,0,0,81393,,9644.0,,,68.0,,,,,,,,,,,,,,,,,,,,,,,,,,,,,,,,,,,,,,,,
295,,category_memory_instructions,,instructions,295,211227,0.0-3.0-0.0,0,0,81393,"[{""page_index"":0,""viewing_time"":2676},{""page_index"":1,""viewing_time"":490},{""page_index"":2,""viewing_time"":476}]",3643.0,,,,,,,,,,,,,,,,,,,,,,,,,,,,,,,,,,,,,,,,,,,
296,,category_memory,,survey-text,296,213291,0.0-3.0-1.0-0.0,0,0,81393,,2059.0,"{""Q0"":""1""}",,,0.0,,,,,,,,,,,,,,,,,,,,,,,,,,,,,,,,,,,,desk,40.0,1.0,0.0
297,,category_memory,,survey-text,297,214512,0.0-3.0-2.0-0.0,0,0,81393,,1216.0,"{""Q0"":""1""}",,,1.0,,,,,,,,,,,,,,,,,,,,,,,,,,,,,,,,,,,,power strip,80.0,1.0,0.0
298,,category_memory,,survey-text,298,215677,0.0-3.0-3.0-0.0,0,0,81393,,1161.0,"{""Q0"":""2""}",,,2.0,,,,,,,,,,,,,,,,,,,,,,,,,,,,,,,,,,,,tent,20.0,2.0,0.0
299,,category_memory,,survey-text,299,216751,0.0-3.0-4.0-0.0,0,0,81393,,1071.0,"{""Q0"":""2""}",,,3.0,,,,,,,,,,,,,,,,,,,,,,,,,,,,,,,,,,,,dresser,40.0,2.0,0.0
300,,category_memory,,survey-text,300,218307,0.0-3.0-5.0-0.0,0,0,81393,,1552.0,"{""Q0"":""2""}",,,4.0,,,,,,,,,,,,,,,,,,,,,,,,,,,,,,,,,,,,poker card,80.0,2.0,0.0
301,,category_memory,,survey-text,301,219414,0.0-3.0-6.0-0.0,0,0,81393,,1104.0,"{""Q0"":""2""}",,,5.0,,,,,,,,,,,,,,,,,,,,,,,,,,,,,,,,,,,,small table,80.0,2.0,0.0
302,,category_memory,,survey-text,302,220547,0.0-3.0-7.0-0.0,0,0,81393,,1129.0,"{""Q0"":""2""}",,,6.0,,,,,,,,,,,,,,,,,,,,,,,,,,,,,,,,,,,,frame,60.0,2.0,0.0
303,,category_memory,,survey-text,303,221679,0.0-3.0-8.0-0.0,0,0,81393,,1128.0,"{""Q0"":""2""}",,,7.0,,,,,,,,,,,,,,,,,,,,,,,,,,,,,,,,,,,,seashell,80.0,2.0,0.0
304,,category_memory,,survey-text,304,222823,0.0-3.0-9.0-0.0,0,0,81393,,1140.0,"{""Q0"":""2""}",,,8.0,,,,,,,,,,,,,,,,,,,,,,,,,,,,,,,,,,,,tape,20.0,2.0,0.0
305,,category_memory,,survey-text,305,223993,0.0-3.0-10.0-0.0,0,0,81393,,1166.0,"{""Q0"":""2""}",,,9.0,,,,,,,,,,,,,,,,,,,,,,,,,,,,,,,,,,,,door knob,40.0,2.0,0.0
306,,category_memory,,survey-text,306,225623,0.0-3.0-11.0-0.0,0,0,81393,,1625.0,"{""Q0"":""2""}",,,10.0,,,,,,,,,,,,,,,,,,,,,,,,,,,,,,,,,,,,trumpet,20.0,2.0,0.0
307,,category_memory,,survey-text,307,226896,0.0-3.0-12.0-0.0,0,0,81393,,1270.0,"{""Q0"":""2""}",,,11.0,,,,,,,,,,,,,,,,,,,,,,,,,,,,,,,,,,,,makeup compact,60.0,2.0,0.0
308,,category_memory,,survey-text,308,228243,0.0-3.0-13.0-0.0,0,0,81393,,1343.0,"{""Q0"":""2""}",,,12.0,,,,,,,,,,,,,,,,,,,,,,,,,,,,,,,,,,,,vase,20.0,2.0,0.0
309,,category_memory,,survey-text,309,229472,0.0-3.0-14.0-0.0,0,0,81393,,1225.0,"{""Q0"":""2""}",,,13.0,,,,,,,,,,,,,,,,,,,,,,,,,,,,,,,,,,,,patio lounge chair,80.0,2.0,0.0
310,,category_memory,,survey-text,310,230718,0.0-3.0-15.0-0.0,0,0,81393,,1242.0,"{""Q0"":""1""}",,,14.0,,,,,,,,,,,,,,,,,,,,,,,,,,,,,,,,,,,,train,20.0,1.0,0.0
311,,category_memory,,survey-text,311,231941,0.0-3.0-16.0-0.0,0,0,81393,,1218.0,"{""Q0"":""1""}",,,15.0,,,,,,,,,,,,,,,,,,,,,,,,,,,,,,,,,,,,nail polish,80.0,1.0,0.0
312,,category_memory,,survey-text,312,233129,0.0-3.0-17.0-0.0,0,0,81393,,1185.0,"{""Q0"":""1""}",,,16.0,,,,,,,,,,,,,,,,,,,,,,,,,,,,,,,,,,,,fan,40.0,1.0,0.0
313,,category_memory,,survey-text,313,234321,0.0-3.0-18.0-0.0,0,0,81393,,1187.0,"{""Q0"":""1""}",,,17.0,,,,,,,,,,,,,,,,,,,,,,,,,,,,,,,,,,,,motorcycle,60.0,1.0,0.0
314,,category_memory,,survey-text,314,235460,0.0-3.0-19.0-0.0,0,0,81393,,1135.0,"{""Q0"":""1""}",,,18.0,,,,,,,,,,,,,,,,,,,,,,,,,,,,,,,,,,,,hammer,60.0,1.0,0.0
315,,category_memory,,survey-text,315,236562,0.0-3.0-20.0-0.0,0,0,81393,,1098.0,"{""Q0"":""1""}",,,19.0,,,,,,,,,,,,,,,,,,,,,,,,,,,,,,,,,,,,watch,20.0,1.0,0.0
316,,category_memory,,survey-text,316,237783,0.0-3.0-21.0-0.0,0,0,81393,,1218.0,"{""Q0"":""1""}",,,20.0,,,,,,,,,,,,,,,,,,,,,,,,,,,,,,,,,,,,baby carriage,40.0,1.0,0.0
317,,category_memory,,survey-text,317,238944,0.0-3.0-22.0-0.0,0,0,81393,,1158.0,"{""Q0"":""1""}",,,21.0,,,,,,,,,,,,,,,,,,,,,,,,,,,,,,,,,,,,key chain,60.0,1.0,0.0
318,,category_memory,,survey-text,318,240123,0.0-3.0-23.0-0.0,0,0,81393,,1174.0,"{""Q0"":""1""}",,,22.0,,,,,,,,,,,,,,,,,,,,,,,,,,,,,,,,,,,,stool,20.0,1.0,0.0
319,,category_memory,,survey-text,319,241231,0.0-3.0-24.0-0.0,0,0,81393,,1103.0,"{""Q0"":""1""}",,,23.0,,,,,,,,,,,,,,,,,,,,,,,,,,,,,,,,,,,,flashlight,40.0,1.0,0.0
320,,category_memory,,survey-text,320,242314,0.0-3.0-25.0-0.0,0,0,81393,,1079.0,"{""Q0"":""1""}",,,24.0,,,,,,,,,,,,,,,,,,,,,,,,,,,,,,,,,,,,bench,40.0,1.0,0.0
321,,category_memory,,survey-text,321,243969,0.0-3.0-26.0-0.0,0,0,81393,,1652.0,"{""Q0"":""1""}",,,25.0,,,,,,,,,,,,,,,,,,,,,,,,,,,,,,,,,,,,lipstick,60.0,1.0,0.0
322,,category_memory,,survey-text,322,245113,0.0-3.0-27.0-0.0,0,0,81393,,1141.0,"{""Q0"":""1""}",,,26.0,,,,,,,,,,,,,,,,,,,,,,,,,,,,,,,,,,,,sofa,80.0,1.0,0.0
323,,category_memory,,survey-text,323,246165,0.0-3.0-28.0-0.0,0,0,81393,,1049.0,"{""Q0"":""1""}",,,27.0,,,,,,,,,,,,,,,,,,,,,,,,,,,,,,,,,,,,pen,80.0,1.0,0.0
324,,category_memory,,survey-text,324,247323,0.0-3.0-29.0-0.0,0,0,81393,,1154.0,"{""Q0"":""1""}",,,28.0,,,,,,,,,,,,,,,,,,,,,,,,,,,,,,,,,,,,telescope,20.0,1.0,0.0
325,,category_memory,,survey-text,325,248447,0.0-3.0-30.0-0.0,0,0,81393,,1119.0,"{""Q0"":""1""}",,,29.0,,,,,,,,,,,,,,,,,,,,,,,,,,,,,,,,,,,,hat,60.0,1.0,0.0
326,,category_memory,,survey-text,326,249661,0.0-3.0-31.0-0.0,0,0,81393,,1211.0,"{""Q0"":""1""}",,,30.0,,,,,,,,,,,,,,,,,,,,,,,,,,,,,,,,,,,,necklace,80.0,1.0,0.0
327,,category_memory,,survey-text,327,250802,0.0-3.0-32.0-0.0,0,0,81393,,1137.0,"{""Q0"":""1""}",,,31.0,,,,,,,,,,,,,,,,,,,,,,,,,,,,,,,,,,,,bowl,40.0,1.0,0.0
328,,category_memory,,survey-text,328,252398,0.0-3.0-33.0-0.0,0,0,81393,,1592.0,"{""Q0"":""1""}",,,32.0,,,,,,,,,,,,,,,,,,,,,,,,,,,,,,,,,,,,microscope,60.0,1.0,0.0
329,,category_memory,,survey-text,329,253576,0.0-3.0-34.0-0.0,0,0,81393,,1175.0,"{""Q0"":""1""}",,,33.0,,,,,,,,,,,,,,,,,,,,,,,,,,,,,,,,,,,,license plate,60.0,1.0,0.0
330,,category_memory,,survey-text,330,254724,0.0-3.0-35.0-0.0,0,0,81393,,1144.0,"{""Q0"":""1""}",,,34.0,,,,,,,,,,,,,,,,,,,,,,,,,,,,,,,,,,,,yarn,20.0,1.0,0.0
331,,category_memory,,survey-text,331,255849,0.0-3.0-36.0-0.0,0,0,81393,,1123.0,"{""Q0"":""1""}",,,35.0,,,,,,,,,,,,,,,,,,,,,,,,,,,,,,,,,,,,bongo,40.0,1.0,0.0
