,success,ttype,start_time,trial_type,trial_index,time_elapsed,internal_node_id,warning,missed_checkup,PID,view_history,rt,responses,repeat_instructions,key_press,index,trial_num,isi,iti,is_practice,block,old_trial,pair_type,within_category,high_cat_on_left,left_category,right_category,left_category_value,right_category_value,left_exemplar,right_exemplar,left_exemplar_value,right_exemplar_value,left_img,right_img,left_img_path,right_img_path,left_chosen,chosen_category,unchosen_category,chosen_category_value,unchosen_category_value,chosen_exemplar,unchosen_exemplar,chosen_exemplar_value,unchosen_exemplar_value,no_response,onset,duration,end_practice,total_bonus_tally,category,category_group_value,category_value_response
0,True,full_screen,d06012022hr1809,fullscreen,0,5005,0.0-0.0,0,0,49028,,,,,,,,,,,,,,,,,,,,,,,,,,,,,,,,,,,,,,,,,,,,
1,,category_learning_instructions,,instructions,1,20795,0.0-1.0-0.0-0.0,0,0,49028,"[{""page_index"":0,""viewing_time"":4319},{""page_index"":1,""viewing_time"":972},{""page_index"":2,""viewing_time"":1098},{""page_index"":1,""viewing_time"":787},{""page_index"":2,""viewing_time"":573},{""page_index"":3,""viewing_time"":1944},{""page_index"":4,""viewing_time"":2845},{""page_index"":5,""viewing_time"":1079},{""page_index"":6,""viewing_time"":2169}]",15787.0,,,,,,,,,,,,,,,,,,,,,,,,,,,,,,,,,,,,,,,,,,
2,,category_learning_comprehension_check,,survey-multi-choice,2,26284,0.0-1.0-0.0-1.0,0,0,49028,,5485.0,"{""Q0"":""True"",""Q1"":""True"",""Q2"":""Stay the same"",""Q3"":""D for left and K for right""}",0.0,,,,,,,,,,,,,,,,,,,,,,,,,,,,,,,,,,,,,,,,
3,,,,html-keyboard-response,3,27214,0.0-1.0-1.0,0,0,49028,,926.0,,,68.0,,,,,,,,,,,,,,,,,,,,,,,,,,,,,,,,,,,,,,,
4,,choice,,html-keyboard-response,4,27629,0.0-1.0-2.0-0.0-0.0,0,0,49028,,411.0,,,68.0,0.0,0.0,1500.0,1000.0,1.0,0.0,0.0,20-80,,0.0,bagel,dumbbell,20.0,80.0,bagel1,dumbbell1,0.0,80.0,bagels_pumpernickel_large.jpg,31B64EN68AL._AA280_.jpg,/static/Category_learning/Stimuli/Practice_stims/bagel/bagels_pumpernickel_large.jpg,/static/Category_learning/Stimuli/Practice_stims/dumbbell/31B64EN68AL._AA280_.jpg,1.0,bagel,dumbbell,20.0,80.0,bagel1,dumbbell1,0.0,80.0,0.0,0.411,0.411,,,,,
5,,confirmation,,html-keyboard-response,5,28726,0.0-1.0-2.0-0.0-1.0-0.0,0,0,49028,,,,,,0.0,,,,,,,,,,,,,,,,,,,,,,,,,,,,,,,,1.5,1.089,,,,,
6,,isi,,html-keyboard-response,6,28829,0.0-1.0-2.0-0.0-2.0,0,0,49028,,,,,,,,,,,,,,,,,,,,,,,,,,,,,,,,,,,,,,3.0,1.5,,,,,
7,,feedback,,html-keyboard-response,7,29835,0.0-1.0-2.0-0.0-3.0-0.0,0,0,49028,,,,,,0.0,,,,,,,,,,,,,,,,,,,,,,,,,,,,,,,,4.0,1.0,,,,,
8,,iti,,html-keyboard-response,8,29942,0.0-1.0-2.0-0.0-5.0,0,0,49028,,,,,,,,,,,,,,,,,,,,,,,,,,,,,,,,,,,,,,5.0,1.0,,,,,
9,,choice,,html-keyboard-response,9,30260,0.0-1.0-3.0-0.0-0.0,0,0,49028,,315.0,,,68.0,1.0,1.0,3000.0,1500.0,1.0,0.0,0.0,20-40,,1.0,calculator,bagel,40.0,20.0,calculator2,bagel2,20.0,20.0,22829064.thl.jpg,bagels_cinnraisin_large.jpg,/static/Category_learning/Stimuli/Practice_stims/calculator/22829064.thl.jpg,/static/Category_learning/Stimuli/Practice_stims/bagel/bagels_cinnraisin_large.jpg,1.0,calculator,bagel,40.0,20.0,calculator2,bagel2,20.0,20.0,0.0,5.315,0.315,,,,,
10,,confirmation,,html-keyboard-response,10,31454,0.0-1.0-3.0-0.0-1.0-0.0,0,0,49028,,,,,,1.0,,,,,,,,,,,,,,,,,,,,,,,,,,,,,,,,6.5,1.185,,,,,
11,,isi,,html-keyboard-response,11,31560,0.0-1.0-3.0-0.0-2.0,0,0,49028,,,,,,,,,,,,,,,,,,,,,,,,,,,,,,,,,,,,,,9.5,3.0,,,,,
12,,feedback,,html-keyboard-response,12,32568,0.0-1.0-3.0-0.0-3.0-0.0,0,0,49028,,,,,,1.0,,,,,,,,,,,,,,,,,,,,,,,,,,,,,,,,10.5,1.0,,,,,
13,,iti,,html-keyboard-response,13,32675,0.0-1.0-3.0-0.0-5.0,0,0,49028,,,,,,,,,,,,,,,,,,,,,,,,,,,,,,,,,,,,,,12.0,1.5,,,,,
14,,choice,,html-keyboard-response,14,32910,0.0-1.0-4.0-0.0-0.0,0,0,49028,,232.0,,,68.0,2.0,2.0,2000.0,3000.0,1.0,0.0,0.0,60-80,,0.0,clock,dumbbell,60.0,80.0,clock2,dumbbell2,60.0,100.0,26373355.thl.jpg,31K8MR6TMBL._SS500_.jpg,/static/Category_learning/Stimuli/Practice_stims/clock/26373355.thl.jpg,/static/Category_learning/Stimuli/Practice_stims/dumbbell/31K8MR6TMBL._SS500_.jpg,1.0,clock,dumbbell,60.0,80.0,clock2,dumbbell2,60.0,100.0,0.0,12.232,0.232,,,,,
15,,confirmation,,html-keyboard-response,15,34185,0.0-1.0-4.0-0.0-1.0-0.0,0,0,49028,,,,,,2.0,,,,,,,,,,,,,,,,,,,,,,,,,,,,,,,,13.5,1.268,,,,,
16,,isi,,html-keyboard-response,16,34291,0.0-1.0-4.0-0.0-2.0,0,0,49028,,,,,,,,,,,,,,,,,,,,,,,,,,,,,,,,,,,,,,15.5,2.0,,,,,
17,,feedback,,html-keyboard-response,17,35299,0.0-1.0-4.0-0.0-3.0-0.0,0,0,49028,,,,,,2.0,,,,,,,,,,,,,,,,,,,,,,,,,,,,,,,,16.5,1.0,,,,,
18,,iti,,html-keyboard-response,18,35405,0.0-1.0-4.0-0.0-5.0,0,0,49028,,,,,,,,,,,,,,,,,,,,,,,,,,,,,,,,,,,,,,19.5,3.0,,,,,
19,,choice,,html-keyboard-response,19,35528,0.0-1.0-5.0-0.0-0.0,0,0,49028,,120.0,,,68.0,3.0,3.0,1000.0,2000.0,1.0,0.0,0.0,40-80,,0.0,calculator,clock,40.0,60.0,calculator1,clock1,40.0,40.0,22829184.thl.jpg,Aalarmclock2.jpg,/static/Category_learning/Stimuli/Practice_stims/calculator/22829184.thl.jpg,/static/Category_learning/Stimuli/Practice_stims/clock/Aalarmclock2.jpg,1.0,calculator,clock,40.0,60.0,calculator1,clock1,40.0,40.0,0.0,19.62,0.12,,,,,
20,,confirmation,,html-keyboard-response,20,36916,0.0-1.0-5.0-0.0-1.0-0.0,0,0,49028,,,,,,3.0,,,,,,,,,,,,,,,,,,,,,,,,,,,,,,,,21.0,1.38,,,,,
21,,isi,,html-keyboard-response,21,37021,0.0-1.0-5.0-0.0-2.0,0,0,49028,,,,,,,,,,,,,,,,,,,,,,,,,,,,,,,,,,,,,,22.0,1.0,,,,,
22,,feedback,,html-keyboard-response,22,38028,0.0-1.0-5.0-0.0-3.0-0.0,0,0,49028,,,,,,3.0,,,,,,,,,,,,,,,,,,,,,,,,,,,,,,,,23.0,1.0,,,,,
23,,iti,,html-keyboard-response,23,38135,0.0-1.0-5.0-0.0-5.0,0,0,49028,,,,,,,,,,,,,,,,,,,,,,,,,,,,,,,,,,,,,,25.0,2.0,,,,,
24,,choice,,html-keyboard-response,24,38302,0.0-1.0-6.0-0.0-0.0,0,0,49028,,163.0,,,68.0,4.0,4.0,2500.0,2500.0,1.0,0.0,0.0,20-60,,1.0,dumbbell,bagel,80.0,20.0,dumbbell3,bagel3,100.0,40.0,41K7QVRX50L._SS500_.jpg,photo-169.jpg,/static/Category_learning/Stimuli/Practice_stims/dumbbell/41K7QVRX50L._SS500_.jpg,/static/Category_learning/Stimuli/Practice_stims/bagel/photo-169.jpg,1.0,dumbbell,bagel,80.0,20.0,dumbbell3,bagel3,100.0,40.0,0.0,25.163,0.163,1.0,,,,
25,,confirmation,,html-keyboard-response,25,39645,0.0-1.0-6.0-0.0-1.0-0.0,0,0,49028,,,,,,4.0,,,,,,,,,,,,,,,,,,,,,,,,,,,,,,,,26.5,1.337,,,,,
26,,isi,,html-keyboard-response,26,39753,0.0-1.0-6.0-0.0-2.0,0,0,49028,,,,,,,,,,,,,,,,,,,,,,,,,,,,,,,,,,,,,,29.0,2.5,,,,,
27,,feedback,,html-keyboard-response,27,40760,0.0-1.0-6.0-0.0-3.0-0.0,0,0,49028,,,,,,4.0,,,,,,,,,,,,,,,,,,,,,,,,,,,,,,,,30.0,1.0,,,,,
28,,iti,,html-keyboard-response,28,40867,0.0-1.0-6.0-0.0-5.0,0,0,49028,,,,,,,,,,,,,,,,,,,,,,,,,,,,,,,,,,,,,,32.5,2.5,,,,,
29,,practice_over,,html-keyboard-response,29,40976,0.0-1.0-6.0-0.0-6.0-0.0,0,0,49028,,106.0,,,68.0,4.0,,,,,,,,,,,,,,,,,,,,,,,,,,,,,,,,,,,,,,
30,,start_run,,html-keyboard-response,30,43549,0.0-1.0-6.0-0.0-6.0-1.0,0,0,49028,,2570.0,,,84.0,,,,,,,,,,,,,,,,,,,,,,,,,,,,,,,,,,,,,,,
31,,choice,,html-keyboard-response,31,44413,0.0-1.0-7.0-0.0-0.0,0,0,49028,,861.0,,,68.0,5.0,305.0,1500.0,3000.0,0.0,6.0,0.0,20-20,,,flashlight,dresser,20.0,20.0,flashlight11,dresser15,40.0,20.0,new04.jpg,ADRESSE77.jpg,/static/Category_learning/Stimuli/Experimental_stims/flashlight/new04.jpg,/static/Category_learning/Stimuli/Experimental_stims/dresser/ADRESSE77.jpg,1.0,flashlight,dresser,20.0,20.0,flashlight11,dresser15,40.0,20.0,0.0,0.861,0.861,,,,,
32,,confirmation,,html-keyboard-response,32,45059,0.0-1.0-7.0-0.0-1.0-0.0,0,0,49028,,,,,,5.0,,,,,,,,,,,,,,,,,,,,,,,,,,,,,,,,1.5,0.639,,,,,
33,,isi,,html-keyboard-response,33,45166,0.0-1.0-7.0-0.0-2.0,0,0,49028,,,,,,,,,,,,,,,,,,,,,,,,,,,,,,,,,,,,,,3.0,1.5,,,,,
34,,feedback,,html-keyboard-response,34,46175,0.0-1.0-7.0-0.0-3.0-0.0,0,0,49028,,,,,,5.0,,,,,,,,,,,,,,,,,,,,,,,,,,,,,,,,4.0,1.0,,,,,
35,,iti,,html-keyboard-response,35,46281,0.0-1.0-7.0-0.0-5.0,0,0,49028,,,,,,,,,,,,,,,,,,,,,,,,,,,,,,,,,,,,,,7.0,3.0,,,,,
36,,choice,,html-keyboard-response,36,46445,0.0-1.0-8.0-0.0-0.0,0,0,49028,,161.0,,,68.0,6.0,306.0,1000.0,3500.0,0.0,6.0,0.0,40-40,,,microscope,lipstick,40.0,40.0,microscope2,lipstick5,40.0,20.0,3090-b.jpg,P35719_hero.jpg,/static/Category_learning/Stimuli/Experimental_stims/microscope/3090-b.jpg,/static/Category_learning/Stimuli/Experimental_stims/lipstick/P35719_hero.jpg,1.0,microscope,lipstick,40.0,40.0,microscope2,lipstick5,40.0,20.0,0.0,7.161,0.161,,,,,
37,,confirmation,,html-keyboard-response,37,47791,0.0-1.0-8.0-0.0-1.0-0.0,0,0,49028,,,,,,6.0,,,,,,,,,,,,,,,,,,,,,,,,,,,,,,,,8.5,1.339,,,,,
38,,isi,,html-keyboard-response,38,47896,0.0-1.0-8.0-0.0-2.0,0,0,49028,,,,,,,,,,,,,,,,,,,,,,,,,,,,,,,,,,,,,,9.5,1.0,,,,,
39,,feedback,,html-keyboard-response,39,48904,0.0-1.0-8.0-0.0-3.0-0.0,0,0,49028,,,,,,6.0,,,,,,,,,,,,,,,,,,,,,,,,,,,,,,,,10.5,1.0,,,,,
40,,iti,,html-keyboard-response,40,49010,0.0-1.0-8.0-0.0-5.0,0,0,49028,,,,,,,,,,,,,,,,,,,,,,,,,,,,,,,,,,,,,,14.0,3.5,,,,,
41,,choice,,html-keyboard-response,41,49360,0.0-1.0-9.0-0.0-0.0,0,0,49028,,347.0,,,68.0,7.0,307.0,3500.0,1500.0,0.0,6.0,0.0,60-80,,1.0,train,nail polish,80.0,60.0,train10,nail polish10,100.0,80.0,train3.jpg,NLM23_opi_nail_polish.jpg,/static/Category_learning/Stimuli/Experimental_stims/train/train3.jpg,/static/Category_learning/Stimuli/Experimental_stims/nail polish/NLM23_opi_nail_polish.jpg,1.0,train,nail polish,80.0,60.0,train10,nail polish10,100.0,80.0,0.0,14.347,0.347,,,,,
42,,confirmation,,html-keyboard-response,42,50520,0.0-1.0-9.0-0.0-1.0-0.0,0,0,49028,,,,,,7.0,,,,,,,,,,,,,,,,,,,,,,,,,,,,,,,,15.5,1.153,,,,,
43,,isi,,html-keyboard-response,43,50626,0.0-1.0-9.0-0.0-2.0,0,0,49028,,,,,,,,,,,,,,,,,,,,,,,,,,,,,,,,,,,,,,19.0,3.5,,,,,
44,,feedback,,html-keyboard-response,44,51633,0.0-1.0-9.0-0.0-3.0-0.0,0,0,49028,,,,,,7.0,,,,,,,,,,,,,,,,,,,,,,,,,,,,,,,,20.0,1.0,,,,,
45,,iti,,html-keyboard-response,45,51737,0.0-1.0-9.0-0.0-5.0,0,0,49028,,,,,,,,,,,,,,,,,,,,,,,,,,,,,,,,,,,,,,21.5,1.5,,,,,
46,,choice,,html-keyboard-response,46,52224,0.0-1.0-10.0-0.0-0.0,0,0,49028,,483.0,,,68.0,8.0,308.0,1000.0,2000.0,0.0,6.0,0.0,40-60,,1.0,sofa,key chain,60.0,40.0,sofa5,key chain12,60.0,40.0,ALOVSEA14.jpg,keychain.jpg,/static/Category_learning/Stimuli/Experimental_stims/sofa/ALOVSEA14.jpg,/static/Category_learning/Stimuli/Experimental_stims/key chain/keychain.jpg,1.0,sofa,key chain,60.0,40.0,sofa5,key chain12,60.0,40.0,0.0,21.983,0.483,,,,,
47,,confirmation,,html-keyboard-response,47,53245,0.0-1.0-10.0-0.0-1.0-0.0,0,0,49028,,,,,,8.0,,,,,,,,,,,,,,,,,,,,,,,,,,,,,,,,23.0,1.017,,,,,
48,,isi,,html-keyboard-response,48,53354,0.0-1.0-10.0-0.0-2.0,0,0,49028,,,,,,,,,,,,,,,,,,,,,,,,,,,,,,,,,,,,,,24.0,1.0,,,,,
49,,feedback,,html-keyboard-response,49,54361,0.0-1.0-10.0-0.0-3.0-0.0,0,0,49028,,,,,,8.0,,,,,,,,,,,,,,,,,,,,,,,,,,,,,,,,25.0,1.0,,,,,
50,,iti,,html-keyboard-response,50,54467,0.0-1.0-10.0-0.0-5.0,0,0,49028,,,,,,,,,,,,,,,,,,,,,,,,,,,,,,,,,,,,,,27.0,2.0,,,,,
51,,choice,,html-keyboard-response,51,54765,0.0-1.0-11.0-0.0-0.0,0,0,49028,,295.0,,,68.0,9.0,309.0,2000.0,3500.0,0.0,6.0,0.0,20-60,,0.0,bench,patio lounge chair,20.0,60.0,bench11,patio lounge chair11,40.0,80.0,22928468.thl.jpg,51830.jpg,/static/Category_learning/Stimuli/Experimental_stims/bench/22928468.thl.jpg,/static/Category_learning/Stimuli/Experimental_stims/patio lounge chair/51830.jpg,1.0,bench,patio lounge chair,20.0,60.0,bench11,patio lounge chair11,40.0,80.0,0.0,27.295,0.295,,,,,
52,,confirmation,,html-keyboard-response,52,55977,0.0-1.0-11.0-0.0-1.0-0.0,0,0,49028,,,,,,9.0,,,,,,,,,,,,,,,,,,,,,,,,,,,,,,,,28.5,1.205,,,,,
53,,isi,,html-keyboard-response,53,56085,0.0-1.0-11.0-0.0-2.0,0,0,49028,,,,,,,,,,,,,,,,,,,,,,,,,,,,,,,,,,,,,,30.5,2.0,,,,,
54,,feedback,,html-keyboard-response,54,57092,0.0-1.0-11.0-0.0-3.0-0.0,0,0,49028,,,,,,9.0,,,,,,,,,,,,,,,,,,,,,,,,,,,,,,,,31.5,1.0,,,,,
55,,iti,,html-keyboard-response,55,57198,0.0-1.0-11.0-0.0-5.0,0,0,49028,,,,,,,,,,,,,,,,,,,,,,,,,,,,,,,,,,,,,,35.0,3.5,,,,,
56,,choice,,html-keyboard-response,56,57542,0.0-1.0-12.0-0.0-0.0,0,0,49028,,340.0,,,68.0,10.0,310.0,1000.0,1000.0,0.0,6.0,1.0,20-80,0.0,,train,flashlight,80.0,20.0,train10,flashlight11,100.0,40.0,train3.jpg,new04.jpg,/static/Category_learning/Stimuli/Experimental_stims/train/train3.jpg,/static/Category_learning/Stimuli/Experimental_stims/flashlight/new04.jpg,1.0,train,flashlight,80.0,20.0,train10,flashlight11,100.0,40.0,0.0,35.34,0.34,,,,,
57,,confirmation,,html-keyboard-response,57,58708,0.0-1.0-12.0-0.0-1.0-0.0,0,0,49028,,,,,,10.0,,,,,,,,,,,,,,,,,,,,,,,,,,,,,,,,36.5,1.16,,,,,
58,,isi,,html-keyboard-response,58,58813,0.0-1.0-12.0-0.0-2.0,0,0,49028,,,,,,,,,,,,,,,,,,,,,,,,,,,,,,,,,,,,,,37.5,1.0,,,,,
59,,feedback,,html-keyboard-response,59,59820,0.0-1.0-12.0-0.0-3.0-0.0,0,0,49028,,,,,,10.0,,,,,,,,,,,,,,,,,,,,,,,,,,,,,,,,38.5,1.0,,,,,
60,,iti,,html-keyboard-response,60,59927,0.0-1.0-12.0-0.0-5.0,0,0,49028,,,,,,,,,,,,,,,,,,,,,,,,,,,,,,,,,,,,,,39.5,1.0,,,,,
61,,choice,,html-keyboard-response,61,60113,0.0-1.0-13.0-0.0-0.0,0,0,49028,,181.0,,,68.0,11.0,311.0,1500.0,2000.0,0.0,6.0,1.0,20-60,0.0,,sofa,bench,60.0,20.0,sofa5,bench11,60.0,40.0,ALOVSEA14.jpg,22928468.thl.jpg,/static/Category_learning/Stimuli/Experimental_stims/sofa/ALOVSEA14.jpg,/static/Category_learning/Stimuli/Experimental_stims/bench/22928468.thl.jpg,1.0,sofa,bench,60.0,20.0,sofa5,bench11,60.0,40.0,0.0,39.681,0.181,,,,,
62,,confirmation,,html-keyboard-response,62,61438,0.0-1.0-13.0-0.0-1.0-0.0,0,0,49028,,,,,,11.0,,,,,,,,,,,,,,,,,,,,,,,,,,,,,,,,41.0,1.319,,,,,
63,,isi,,html-keyboard-response,63,61541,0.0-1.0-13.0-0.0-2.0,0,0,49028,,,,,,,,,,,,,,,,,,,,,,,,,,,,,,,,,,,,,,42.5,1.5,,,,,
64,,feedback,,html-keyboard-response,64,62548,0.0-1.0-13.0-0.0-3.0-0.0,0,0,49028,,,,,,11.0,,,,,,,,,,,,,,,,,,,,,,,,,,,,,,,,43.5,1.0,,,,,
65,,iti,,html-keyboard-response,65,62654,0.0-1.0-13.0-0.0-5.0,0,0,49028,,,,,,,,,,,,,,,,,,,,,,,,,,,,,,,,,,,,,,45.5,2.0,,,,,
66,,choice,,html-keyboard-response,66,62845,0.0-1.0-14.0-0.0-0.0,0,0,49028,,189.0,,,68.0,12.0,312.0,1500.0,1000.0,0.0,6.0,0.0,40-60,,0.0,key chain,necklace,40.0,60.0,key chain6,necklace1,40.0,80.0,highboy_keychain_ItemCA75384.jpg,26443173.thl.jpg,/static/Category_learning/Stimuli/Experimental_stims/key chain/highboy_keychain_ItemCA75384.jpg,/static/Category_learning/Stimuli/Experimental_stims/necklace/26443173.thl.jpg,1.0,key chain,necklace,40.0,60.0,key chain6,necklace1,40.0,80.0,0.0,45.689,0.189,,,,,
67,,confirmation,,html-keyboard-response,67,64162,0.0-1.0-14.0-0.0-1.0-0.0,0,0,49028,,,,,,12.0,,,,,,,,,,,,,,,,,,,,,,,,,,,,,,,,47.0,1.311,,,,,
68,,isi,,html-keyboard-response,68,64270,0.0-1.0-14.0-0.0-2.0,0,0,49028,,,,,,,,,,,,,,,,,,,,,,,,,,,,,,,,,,,,,,48.5,1.5,,,,,
69,,feedback,,html-keyboard-response,69,65278,0.0-1.0-14.0-0.0-3.0-0.0,0,0,49028,,,,,,12.0,,,,,,,,,,,,,,,,,,,,,,,,,,,,,,,,49.5,1.0,,,,,
70,,iti,,html-keyboard-response,70,65383,0.0-1.0-14.0-0.0-5.0,0,0,49028,,,,,,,,,,,,,,,,,,,,,,,,,,,,,,,,,,,,,,50.5,1.0,,,,,
71,,choice,,html-keyboard-response,71,65581,0.0-1.0-15.0-0.0-0.0,0,0,49028,,195.0,,,68.0,13.0,313.0,1000.0,1500.0,0.0,6.0,0.0,40-80,,1.0,tent,microscope,80.0,40.0,tent5,microscope10,100.0,20.0,Dome Tentnb87r67.jpg,DS-2.jpg,/static/Category_learning/Stimuli/Experimental_stims/tent/Dome Tentnb87r67.jpg,/static/Category_learning/Stimuli/Experimental_stims/microscope/DS-2.jpg,1.0,tent,microscope,80.0,40.0,tent5,microscope10,100.0,20.0,0.0,50.695,0.195,,,,,
72,,confirmation,,html-keyboard-response,72,66894,0.0-1.0-15.0-0.0-1.0-0.0,0,0,49028,,,,,,13.0,,,,,,,,,,,,,,,,,,,,,,,,,,,,,,,,52.0,1.305,,,,,
73,,isi,,html-keyboard-response,73,66999,0.0-1.0-15.0-0.0-2.0,0,0,49028,,,,,,,,,,,,,,,,,,,,,,,,,,,,,,,,,,,,,,53.0,1.0,,,,,
74,,feedback,,html-keyboard-response,74,68003,0.0-1.0-15.0-0.0-3.0-0.0,0,0,49028,,,,,,13.0,,,,,,,,,,,,,,,,,,,,,,,,,,,,,,,,54.0,1.0,,,,,
75,,iti,,html-keyboard-response,75,68109,0.0-1.0-15.0-0.0-5.0,0,0,49028,,,,,,,,,,,,,,,,,,,,,,,,,,,,,,,,,,,,,,55.5,1.5,,,,,
76,,choice,,html-keyboard-response,76,68494,0.0-1.0-16.0-0.0-0.0,0,0,49028,,382.0,,,68.0,14.0,314.0,1000.0,1500.0,0.0,6.0,0.0,60-80,,1.0,tape,poker card,80.0,60.0,tape14,poker card1,60.0,40.0,922544.jpg,22864704.thl.jpg,/static/Category_learning/Stimuli/Experimental_stims/tape/922544.jpg,/static/Category_learning/Stimuli/Experimental_stims/poker card/22864704.thl.jpg,1.0,tape,poker card,80.0,60.0,tape14,poker card1,60.0,40.0,0.0,55.882,0.382,,,,,
77,,confirmation,,html-keyboard-response,77,69615,0.0-1.0-16.0-0.0-1.0-0.0,0,0,49028,,,,,,14.0,,,,,,,,,,,,,,,,,,,,,,,,,,,,,,,,57.0,1.118,,,,,
78,,isi,,html-keyboard-response,78,69719,0.0-1.0-16.0-0.0-2.0,0,0,49028,,,,,,,,,,,,,,,,,,,,,,,,,,,,,,,,,,,,,,58.0,1.0,,,,,
79,,feedback,,html-keyboard-response,79,70725,0.0-1.0-16.0-0.0-3.0-0.0,0,0,49028,,,,,,14.0,,,,,,,,,,,,,,,,,,,,,,,,,,,,,,,,59.0,1.0,,,,,
80,,iti,,html-keyboard-response,80,70830,0.0-1.0-16.0-0.0-5.0,0,0,49028,,,,,,,,,,,,,,,,,,,,,,,,,,,,,,,,,,,,,,60.5,1.5,,,,,
81,,choice,,html-keyboard-response,81,71062,0.0-1.0-17.0-0.0-0.0,0,0,49028,,229.0,,,68.0,15.0,315.0,1000.0,1000.0,0.0,6.0,0.0,60-60,,,small table,seashell,60.0,60.0,small table2,seashell8,60.0,40.0,Atable126.jpg,ASEASHEL9.jpg,/static/Category_learning/Stimuli/Experimental_stims/small table/Atable126.jpg,/static/Category_learning/Stimuli/Experimental_stims/seashell/ASEASHEL9.jpg,1.0,small table,seashell,60.0,60.0,small table2,seashell8,60.0,40.0,0.0,60.729,0.229,,,,,
82,,confirmation,,html-keyboard-response,82,72339,0.0-1.0-17.0-0.0-1.0-0.0,0,0,49028,,,,,,15.0,,,,,,,,,,,,,,,,,,,,,,,,,,,,,,,,62.0,1.271,,,,,
83,,isi,,html-keyboard-response,83,72445,0.0-1.0-17.0-0.0-2.0,0,0,49028,,,,,,,,,,,,,,,,,,,,,,,,,,,,,,,,,,,,,,63.0,1.0,,,,,
84,,feedback,,html-keyboard-response,84,73453,0.0-1.0-17.0-0.0-3.0-0.0,0,0,49028,,,,,,15.0,,,,,,,,,,,,,,,,,,,,,,,,,,,,,,,,64.0,1.0,,,,,
85,,iti,,html-keyboard-response,85,73561,0.0-1.0-17.0-0.0-5.0,0,0,49028,,,,,,,,,,,,,,,,,,,,,,,,,,,,,,,,,,,,,,65.0,1.0,,,,,
86,,choice,,html-keyboard-response,86,73902,0.0-1.0-18.0-0.0-0.0,0,0,49028,,338.0,,,68.0,16.0,316.0,1500.0,1000.0,0.0,6.0,1.0,40-80,0.0,,tent,microscope,80.0,40.0,tent5,microscope2,100.0,40.0,Dome Tentnb87r67.jpg,3090-b.jpg,/static/Category_learning/Stimuli/Experimental_stims/tent/Dome Tentnb87r67.jpg,/static/Category_learning/Stimuli/Experimental_stims/microscope/3090-b.jpg,1.0,tent,microscope,80.0,40.0,tent5,microscope2,100.0,40.0,0.0,65.338,0.338,,,,,
87,,confirmation,,html-keyboard-response,87,75071,0.0-1.0-18.0-0.0-1.0-0.0,0,0,49028,,,,,,16.0,,,,,,,,,,,,,,,,,,,,,,,,,,,,,,,,66.5,1.162,,,,,
88,,isi,,html-keyboard-response,88,75177,0.0-1.0-18.0-0.0-2.0,0,0,49028,,,,,,,,,,,,,,,,,,,,,,,,,,,,,,,,,,,,,,68.0,1.5,,,,,
89,,feedback,,html-keyboard-response,89,76183,0.0-1.0-18.0-0.0-3.0-0.0,0,0,49028,,,,,,16.0,,,,,,,,,,,,,,,,,,,,,,,,,,,,,,,,69.0,1.0,,,,,
90,,iti,,html-keyboard-response,90,76290,0.0-1.0-18.0-0.0-5.0,0,0,49028,,,,,,,,,,,,,,,,,,,,,,,,,,,,,,,,,,,,,,70.0,1.0,,,,,
91,,choice,,html-keyboard-response,91,76981,0.0-1.0-19.0-0.0-0.0,0,0,49028,,688.0,,,68.0,17.0,317.0,2000.0,2000.0,0.0,6.0,0.0,20-60,,1.0,nail polish,bowl,60.0,20.0,nail polish7,bowl10,40.0,0.0,117BDAkbo5L._AA160_.jpg,Abowl50.jpg,/static/Category_learning/Stimuli/Experimental_stims/nail polish/117BDAkbo5L._AA160_.jpg,/static/Category_learning/Stimuli/Experimental_stims/bowl/Abowl50.jpg,1.0,nail polish,bowl,60.0,20.0,nail polish7,bowl10,40.0,0.0,0.0,70.688,0.688,,,,,
92,,confirmation,,html-keyboard-response,92,77796,0.0-1.0-19.0-0.0-1.0-0.0,0,0,49028,,,,,,17.0,,,,,,,,,,,,,,,,,,,,,,,,,,,,,,,,71.5,0.812,,,,,
93,,isi,,html-keyboard-response,93,77904,0.0-1.0-19.0-0.0-2.0,0,0,49028,,,,,,,,,,,,,,,,,,,,,,,,,,,,,,,,,,,,,,73.5,2.0,,,,,
94,,feedback,,html-keyboard-response,94,78910,0.0-1.0-19.0-0.0-3.0-0.0,0,0,49028,,,,,,17.0,,,,,,,,,,,,,,,,,,,,,,,,,,,,,,,,74.5,1.0,,,,,
95,,iti,,html-keyboard-response,95,79016,0.0-1.0-19.0-0.0-5.0,0,0,49028,,,,,,,,,,,,,,,,,,,,,,,,,,,,,,,,,,,,,,76.5,2.0,,,,,
96,,choice,,html-keyboard-response,96,79511,0.0-1.0-20.0-0.0-0.0,0,0,49028,,492.0,,,68.0,18.0,318.0,1000.0,1000.0,0.0,6.0,0.0,20-80,,1.0,trumpet,flashlight,80.0,20.0,trumpet4,flashlight13,60.0,0.0,JUPITER+JTR1000S.jpg,834808_sk_lg.jpg,/static/Category_learning/Stimuli/Experimental_stims/trumpet/JUPITER+JTR1000S.jpg,/static/Category_learning/Stimuli/Experimental_stims/flashlight/834808_sk_lg.jpg,1.0,trumpet,flashlight,80.0,20.0,trumpet4,flashlight13,60.0,0.0,0.0,76.992,0.492,,,,,
97,,confirmation,,html-keyboard-response,97,80526,0.0-1.0-20.0-0.0-1.0-0.0,0,0,49028,,,,,,18.0,,,,,,,,,,,,,,,,,,,,,,,,,,,,,,,,78.0,1.008,,,,,
98,,isi,,html-keyboard-response,98,80632,0.0-1.0-20.0-0.0-2.0,0,0,49028,,,,,,,,,,,,,,,,,,,,,,,,,,,,,,,,,,,,,,79.0,1.0,,,,,
99,,feedback,,html-keyboard-response,99,81639,0.0-1.0-20.0-0.0-3.0-0.0,0,0,49028,,,,,,18.0,,,,,,,,,,,,,,,,,,,,,,,,,,,,,,,,80.0,1.0,,,,,
100,,iti,,html-keyboard-response,100,81746,0.0-1.0-20.0-0.0-5.0,0,0,49028,,,,,,,,,,,,,,,,,,,,,,,,,,,,,,,,,,,,,,81.0,1.0,,,,,
101,,choice,,html-keyboard-response,101,82087,0.0-1.0-21.0-0.0-0.0,0,0,49028,,337.0,,,68.0,19.0,319.0,1000.0,2000.0,0.0,6.0,0.0,80-80,,,vase,telescope,80.0,80.0,vase8,telescope10,60.0,100.0,Avase171.jpg,digimarc.ms02.jpg,/static/Category_learning/Stimuli/Experimental_stims/vase/Avase171.jpg,/static/Category_learning/Stimuli/Experimental_stims/telescope/digimarc.ms02.jpg,1.0,vase,telescope,80.0,80.0,vase8,telescope10,60.0,100.0,0.0,81.337,0.337,,,,,
102,,confirmation,,html-keyboard-response,102,83256,0.0-1.0-21.0-0.0-1.0-0.0,0,0,49028,,,,,,19.0,,,,,,,,,,,,,,,,,,,,,,,,,,,,,,,,82.5,1.163,,,,,
103,,isi,,html-keyboard-response,103,83363,0.0-1.0-21.0-0.0-2.0,0,0,49028,,,,,,,,,,,,,,,,,,,,,,,,,,,,,,,,,,,,,,83.5,1.0,,,,,
104,,feedback,,html-keyboard-response,104,84371,0.0-1.0-21.0-0.0-3.0-0.0,0,0,49028,,,,,,19.0,,,,,,,,,,,,,,,,,,,,,,,,,,,,,,,,84.5,1.0,,,,,
105,,iti,,html-keyboard-response,105,84478,0.0-1.0-21.0-0.0-5.0,0,0,49028,,,,,,,,,,,,,,,,,,,,,,,,,,,,,,,,,,,,,,86.5,2.0,,,,,
106,,choice,,html-keyboard-response,106,84794,0.0-1.0-22.0-0.0-0.0,0,0,49028,,314.0,,,68.0,20.0,320.0,1000.0,1000.0,0.0,6.0,0.0,40-80,,0.0,frame,telescope,40.0,80.0,frame15,telescope2,20.0,100.0,AFRAME13.jpg,Brass-telescope-60700.jpg,/static/Category_learning/Stimuli/Experimental_stims/frame/AFRAME13.jpg,/static/Category_learning/Stimuli/Experimental_stims/telescope/Brass-telescope-60700.jpg,1.0,frame,telescope,40.0,80.0,frame15,telescope2,20.0,100.0,0.0,86.814,0.314,,,,,
107,,confirmation,,html-keyboard-response,107,85988,0.0-1.0-22.0-0.0-1.0-0.0,0,0,49028,,,,,,20.0,,,,,,,,,,,,,,,,,,,,,,,,,,,,,,,,88.0,1.186,,,,,
108,,isi,,html-keyboard-response,108,86094,0.0-1.0-22.0-0.0-2.0,0,0,49028,,,,,,,,,,,,,,,,,,,,,,,,,,,,,,,,,,,,,,89.0,1.0,,,,,
109,,feedback,,html-keyboard-response,109,87101,0.0-1.0-22.0-0.0-3.0-0.0,0,0,49028,,,,,,20.0,,,,,,,,,,,,,,,,,,,,,,,,,,,,,,,,90.0,1.0,,,,,
110,,iti,,html-keyboard-response,110,87208,0.0-1.0-22.0-0.0-5.0,0,0,49028,,,,,,,,,,,,,,,,,,,,,,,,,,,,,,,,,,,,,,91.0,1.0,,,,,
111,,choice,,html-keyboard-response,111,87595,0.0-1.0-23.0-0.0-0.0,0,0,49028,,384.0,,,68.0,21.0,321.0,1500.0,1500.0,0.0,6.0,0.0,40-40,,,license plate,makeup compact,40.0,40.0,license plate15,makeup compact14,40.0,60.0,hi-hwr-837.jpg,262597_fpx.jpg,/static/Category_learning/Stimuli/Experimental_stims/license plate/hi-hwr-837.jpg,/static/Category_learning/Stimuli/Experimental_stims/makeup compact/262597_fpx.jpg,1.0,license plate,makeup compact,40.0,40.0,license plate15,makeup compact14,40.0,60.0,0.0,91.384,0.384,,,,,
112,,confirmation,,html-keyboard-response,112,88718,0.0-1.0-23.0-0.0-1.0-0.0,0,0,49028,,,,,,21.0,,,,,,,,,,,,,,,,,,,,,,,,,,,,,,,,92.5,1.116,,,,,
113,,isi,,html-keyboard-response,113,88825,0.0-1.0-23.0-0.0-2.0,0,0,49028,,,,,,,,,,,,,,,,,,,,,,,,,,,,,,,,,,,,,,94.0,1.5,,,,,
114,,feedback,,html-keyboard-response,114,89833,0.0-1.0-23.0-0.0-3.0-0.0,0,0,49028,,,,,,21.0,,,,,,,,,,,,,,,,,,,,,,,,,,,,,,,,95.0,1.0,,,,,
115,,iti,,html-keyboard-response,115,89936,0.0-1.0-23.0-0.0-5.0,0,0,49028,,,,,,,,,,,,,,,,,,,,,,,,,,,,,,,,,,,,,,96.5,1.5,,,,,
116,,choice,,html-keyboard-response,116,90317,0.0-1.0-24.0-0.0-0.0,0,0,49028,,379.0,,,68.0,22.0,322.0,3500.0,1500.0,0.0,6.0,0.0,20-40,,1.0,hat,baby carriage,40.0,20.0,hat15,baby carriage7,40.0,0.0,AFISHHAT2.jpg,26423282.thl.jpg,/static/Category_learning/Stimuli/Experimental_stims/hat/AFISHHAT2.jpg,/static/Category_learning/Stimuli/Experimental_stims/baby carriage/26423282.thl.jpg,1.0,hat,baby carriage,40.0,20.0,hat15,baby carriage7,40.0,0.0,0.0,96.879,0.379,,,,,
117,,confirmation,,html-keyboard-response,117,91444,0.0-1.0-24.0-0.0-1.0-0.0,0,0,49028,,,,,,22.0,,,,,,,,,,,,,,,,,,,,,,,,,,,,,,,,98.0,1.121,,,,,
118,,isi,,html-keyboard-response,118,91551,0.0-1.0-24.0-0.0-2.0,0,0,49028,,,,,,,,,,,,,,,,,,,,,,,,,,,,,,,,,,,,,,101.5,3.5,,,,,
119,,feedback,,html-keyboard-response,119,92558,0.0-1.0-24.0-0.0-3.0-0.0,0,0,49028,,,,,,22.0,,,,,,,,,,,,,,,,,,,,,,,,,,,,,,,,102.5,1.0,,,,,
120,,iti,,html-keyboard-response,120,92664,0.0-1.0-24.0-0.0-5.0,0,0,49028,,,,,,,,,,,,,,,,,,,,,,,,,,,,,,,,,,,,,,104.0,1.5,,,,,
121,,choice,,html-keyboard-response,121,93312,0.0-1.0-25.0-0.0-0.0,0,0,49028,,645.0,,,68.0,23.0,323.0,3000.0,1000.0,0.0,6.0,0.0,20-60,,0.0,desk,nail polish,20.0,60.0,desk13,nail polish13,0.0,80.0,26427865.thl.jpg,31cR10fzlML._AA280_.jpg,/static/Category_learning/Stimuli/Experimental_stims/desk/26427865.thl.jpg,/static/Category_learning/Stimuli/Experimental_stims/nail polish/31cR10fzlML._AA280_.jpg,1.0,desk,nail polish,20.0,60.0,desk13,nail polish13,0.0,80.0,0.0,104.645,0.645,,,,,
122,,confirmation,,html-keyboard-response,122,94175,0.0-1.0-25.0-0.0-1.0-0.0,0,0,49028,,,,,,23.0,,,,,,,,,,,,,,,,,,,,,,,,,,,,,,,,105.5,0.855,,,,,
123,,isi,,html-keyboard-response,123,94281,0.0-1.0-25.0-0.0-2.0,0,0,49028,,,,,,,,,,,,,,,,,,,,,,,,,,,,,,,,,,,,,,108.5,3.0,,,,,
124,,feedback,,html-keyboard-response,124,95288,0.0-1.0-25.0-0.0-3.0-0.0,0,0,49028,,,,,,23.0,,,,,,,,,,,,,,,,,,,,,,,,,,,,,,,,109.5,1.0,,,,,
125,,iti,,html-keyboard-response,125,95395,0.0-1.0-25.0-0.0-5.0,0,0,49028,,,,,,,,,,,,,,,,,,,,,,,,,,,,,,,,,,,,,,110.5,1.0,,,,,
126,,choice,,html-keyboard-response,126,95733,0.0-1.0-26.0-0.0-0.0,0,0,49028,,335.0,,,68.0,24.0,324.0,1000.0,1000.0,0.0,6.0,1.0,60-80,0.0,,tape,nail polish,80.0,60.0,tape14,nail polish7,60.0,40.0,922544.jpg,117BDAkbo5L._AA160_.jpg,/static/Category_learning/Stimuli/Experimental_stims/tape/922544.jpg,/static/Category_learning/Stimuli/Experimental_stims/nail polish/117BDAkbo5L._AA160_.jpg,1.0,tape,nail polish,80.0,60.0,tape14,nail polish7,60.0,40.0,0.0,110.835,0.335,,,,,
127,,confirmation,,html-keyboard-response,127,96903,0.0-1.0-26.0-0.0-1.0-0.0,0,0,49028,,,,,,24.0,,,,,,,,,,,,,,,,,,,,,,,,,,,,,,,,112.0,1.165,,,,,
128,,isi,,html-keyboard-response,128,97008,0.0-1.0-26.0-0.0-2.0,0,0,49028,,,,,,,,,,,,,,,,,,,,,,,,,,,,,,,,,,,,,,113.0,1.0,,,,,
129,,feedback,,html-keyboard-response,129,98014,0.0-1.0-26.0-0.0-3.0-0.0,0,0,49028,,,,,,24.0,,,,,,,,,,,,,,,,,,,,,,,,,,,,,,,,114.0,1.0,,,,,
130,,iti,,html-keyboard-response,130,98119,0.0-1.0-26.0-0.0-5.0,0,0,49028,,,,,,,,,,,,,,,,,,,,,,,,,,,,,,,,,,,,,,115.0,1.0,,,,,
131,,choice,,html-keyboard-response,131,98374,0.0-1.0-27.0-0.0-0.0,0,0,49028,,252.0,,,68.0,25.0,325.0,1500.0,1000.0,0.0,6.0,0.0,40-60,,1.0,necklace,hammer,60.0,40.0,necklace14,hammer10,80.0,20.0,necklascenew05.jpg,Tabla Hammer.JPG,/static/Category_learning/Stimuli/Experimental_stims/necklace/necklascenew05.jpg,/static/Category_learning/Stimuli/Experimental_stims/hammer/Tabla Hammer.JPG,1.0,necklace,hammer,60.0,40.0,necklace14,hammer10,80.0,20.0,0.0,115.252,0.252,,,,,
132,,confirmation,,html-keyboard-response,132,99629,0.0-1.0-27.0-0.0-1.0-0.0,0,0,49028,,,,,,25.0,,,,,,,,,,,,,,,,,,,,,,,,,,,,,,,,116.5,1.248,,,,,
133,,isi,,html-keyboard-response,133,99737,0.0-1.0-27.0-0.0-2.0,0,0,49028,,,,,,,,,,,,,,,,,,,,,,,,,,,,,,,,,,,,,,118.0,1.5,,,,,
134,,feedback,,html-keyboard-response,134,100744,0.0-1.0-27.0-0.0-3.0-0.0,0,0,49028,,,,,,25.0,,,,,,,,,,,,,,,,,,,,,,,,,,,,,,,,119.0,1.0,,,,,
135,,iti,,html-keyboard-response,135,100852,0.0-1.0-27.0-0.0-5.0,0,0,49028,,,,,,,,,,,,,,,,,,,,,,,,,,,,,,,,,,,,,,120.0,1.0,,,,,
136,,choice,,html-keyboard-response,136,101178,0.0-1.0-28.0-0.0-0.0,0,0,49028,,323.0,,,68.0,26.0,326.0,1500.0,1500.0,0.0,6.0,1.0,40-60,0.0,,small table,key chain,60.0,40.0,small table2,key chain6,60.0,40.0,Atable126.jpg,highboy_keychain_ItemCA75384.jpg,/static/Category_learning/Stimuli/Experimental_stims/small table/Atable126.jpg,/static/Category_learning/Stimuli/Experimental_stims/key chain/highboy_keychain_ItemCA75384.jpg,1.0,small table,key chain,60.0,40.0,small table2,key chain6,60.0,40.0,0.0,120.323,0.323,,,,,
137,,confirmation,,html-keyboard-response,137,102362,0.0-1.0-28.0-0.0-1.0-0.0,0,0,49028,,,,,,26.0,,,,,,,,,,,,,,,,,,,,,,,,,,,,,,,,121.5,1.177,,,,,
138,,isi,,html-keyboard-response,138,102468,0.0-1.0-28.0-0.0-2.0,0,0,49028,,,,,,,,,,,,,,,,,,,,,,,,,,,,,,,,,,,,,,123.0,1.5,,,,,
139,,feedback,,html-keyboard-response,139,103475,0.0-1.0-28.0-0.0-3.0-0.0,0,0,49028,,,,,,26.0,,,,,,,,,,,,,,,,,,,,,,,,,,,,,,,,124.0,1.0,,,,,
140,,iti,,html-keyboard-response,140,103582,0.0-1.0-28.0-0.0-5.0,0,0,49028,,,,,,,,,,,,,,,,,,,,,,,,,,,,,,,,,,,,,,125.5,1.5,,,,,
141,,choice,,html-keyboard-response,141,105090,0.0-1.0-29.0-0.0-0.0,0,0,49028,,,,,,27.0,327.0,1000.0,1500.0,0.0,6.0,0.0,20-80,,1.0,trumpet,bongo,80.0,20.0,trumpet8,bongo10,80.0,20.0,trumpet33.jpg,22945915.thl.jpg,/static/Category_learning/Stimuli/Experimental_stims/trumpet/trumpet33.jpg,/static/Category_learning/Stimuli/Experimental_stims/bongo/22945915.thl.jpg,,,,,,,,,,1.0,127.0,1.5,,,,,
142,,isi,,html-keyboard-response,142,105198,0.0-1.0-29.0-0.0-2.0,0,0,49028,,,,,,,,,,,,,,,,,,,,,,,,,,,,,,,,,,,,,,128.0,1.0,,,,,
143,,no_response,,html-keyboard-response,143,106203,0.0-1.0-29.0-0.0-4.0-0.0,1,0,49028,,,,,,,,,,,,,,,,,,,,,,,,,,,,,,,,,,,,,,129.0,1.0,,,,,
144,,iti,,html-keyboard-response,144,106324,0.0-1.0-29.0-0.0-5.0,0,0,49028,,,,,,,,,,,,,,,,,,,,,,,,,,,,,,,,,,,,,,130.5,1.5,,,,,
145,,choice,,html-keyboard-response,145,106874,0.0-1.0-29.0-0.1-0.1,0,0,49028,,546.0,,,68.0,27.0,327.0,1000.0,1500.0,0.0,6.0,0.0,20-80,,1.0,trumpet,bongo,80.0,20.0,trumpet8,bongo10,80.0,20.0,trumpet33.jpg,22945915.thl.jpg,/static/Category_learning/Stimuli/Experimental_stims/trumpet/trumpet33.jpg,/static/Category_learning/Stimuli/Experimental_stims/bongo/22945915.thl.jpg,1.0,trumpet,bongo,80.0,20.0,trumpet8,bongo10,80.0,20.0,0.0,131.046,0.546,,,,,
146,,confirmation,,html-keyboard-response,146,107836,0.0-1.0-29.0-0.1-1.1-0.1,0,0,49028,,,,,,27.0,,,,,,,,,,,,,,,,,,,,,,,,,,,,,,,,132.0,0.954,,,,,
147,,isi,,html-keyboard-response,147,107942,0.0-1.0-29.0-0.1-2.1,0,0,49028,,,,,,,,,,,,,,,,,,,,,,,,,,,,,,,,,,,,,,134.0,2.0,,,,,
148,,feedback,,html-keyboard-response,148,108948,0.0-1.0-29.0-0.1-3.1-0.1,0,0,49028,,,,,,27.0,,,,,,,,,,,,,,,,,,,,,,,,,,,,,,,,135.0,1.0,,,,,
149,,iti,,html-keyboard-response,149,109055,0.0-1.0-29.0-0.1-5.1,0,0,49028,,,,,,,,,,,,,,,,,,,,,,,,,,,,,,,,,,,,,,136.0,1.0,,,,,
150,,choice,,html-keyboard-response,150,109430,0.0-1.0-30.0-0.0-0.0,0,0,49028,,373.0,,,68.0,28.0,328.0,1000.0,2000.0,0.0,6.0,1.0,80-80,1.0,,trumpet,trumpet,80.0,80.0,trumpet4,trumpet8,60.0,80.0,JUPITER+JTR1000S.jpg,trumpet33.jpg,/static/Category_learning/Stimuli/Experimental_stims/trumpet/JUPITER+JTR1000S.jpg,/static/Category_learning/Stimuli/Experimental_stims/trumpet/trumpet33.jpg,1.0,trumpet,trumpet,80.0,80.0,trumpet4,trumpet8,60.0,80.0,0.0,136.373,0.373,,,,,
151,,confirmation,,html-keyboard-response,151,110564,0.0-1.0-30.0-0.0-1.0-0.0,0,0,49028,,,,,,28.0,,,,,,,,,,,,,,,,,,,,,,,,,,,,,,,,137.5,1.127,,,,,
152,,isi,,html-keyboard-response,152,110671,0.0-1.0-30.0-0.0-2.0,0,0,49028,,,,,,,,,,,,,,,,,,,,,,,,,,,,,,,,,,,,,,138.5,1.0,,,,,
153,,feedback,,html-keyboard-response,153,111676,0.0-1.0-30.0-0.0-3.0-0.0,0,0,49028,,,,,,28.0,,,,,,,,,,,,,,,,,,,,,,,,,,,,,,,,139.5,1.0,,,,,
154,,iti,,html-keyboard-response,154,111779,0.0-1.0-30.0-0.0-5.0,0,0,49028,,,,,,,,,,,,,,,,,,,,,,,,,,,,,,,,,,,,,,141.5,2.0,,,,,
155,,choice,,html-keyboard-response,155,111828,0.0-1.0-31.0-0.0-0.0,0,0,49028,,46.0,,,68.0,29.0,329.0,2000.0,1000.0,0.0,6.0,0.0,40-60,,0.0,motorcycle,small table,40.0,60.0,motorcycle4,small table15,20.0,40.0,motorcycle46.jpg,ATABLE20.jpg,/static/Category_learning/Stimuli/Experimental_stims/motorcycle/motorcycle46.jpg,/static/Category_learning/Stimuli/Experimental_stims/small table/ATABLE20.jpg,1.0,motorcycle,small table,40.0,60.0,motorcycle4,small table15,20.0,40.0,0.0,141.546,0.046,,,,,
156,,confirmation,,html-keyboard-response,156,113288,0.0-1.0-31.0-0.0-1.0-0.0,0,0,49028,,,,,,29.0,,,,,,,,,,,,,,,,,,,,,,,,,,,,,,,,143.0,1.454,,,,,
157,,isi,,html-keyboard-response,157,113396,0.0-1.0-31.0-0.0-2.0,0,0,49028,,,,,,,,,,,,,,,,,,,,,,,,,,,,,,,,,,,,,,145.0,2.0,,,,,
158,,feedback,,html-keyboard-response,158,114399,0.0-1.0-31.0-0.0-3.0-0.0,0,0,49028,,,,,,29.0,,,,,,,,,,,,,,,,,,,,,,,,,,,,,,,,146.0,1.0,,,,,
159,,iti,,html-keyboard-response,159,114505,0.0-1.0-31.0-0.0-5.0,0,0,49028,,,,,,,,,,,,,,,,,,,,,,,,,,,,,,,,,,,,,,147.0,1.0,,,,,
160,,choice,,html-keyboard-response,160,114614,0.0-1.0-32.0-0.0-0.0,0,0,49028,,106.0,,,68.0,30.0,330.0,1000.0,3500.0,0.0,6.0,0.0,40-80,,1.0,tape,hammer,80.0,40.0,tape2,hammer15,100.0,60.0,Tape_Dispenser.jpg,Vaughan-32-oz-Hickory-Handle-Ball-Pein-Hammer-S432-B0001LRUJM-L-ARCQ0EBO8TR73_.jpg,/static/Category_learning/Stimuli/Experimental_stims/tape/Tape_Dispenser.jpg,/static/Category_learning/Stimuli/Experimental_stims/hammer/Vaughan-32-oz-Hickory-Handle-Ball-Pein-Hammer-S432-B0001LRUJM-L-ARCQ0EBO8TR73_.jpg,1.0,tape,hammer,80.0,40.0,tape2,hammer15,100.0,60.0,0.0,147.106,0.106,,,,,
161,,confirmation,,html-keyboard-response,161,116014,0.0-1.0-32.0-0.0-1.0-0.0,0,0,49028,,,,,,30.0,,,,,,,,,,,,,,,,,,,,,,,,,,,,,,,,148.5,1.394,,,,,
162,,isi,,html-keyboard-response,162,116121,0.0-1.0-32.0-0.0-2.0,0,0,49028,,,,,,,,,,,,,,,,,,,,,,,,,,,,,,,,,,,,,,149.5,1.0,,,,,
163,,feedback,,html-keyboard-response,163,117129,0.0-1.0-32.0-0.0-3.0-0.0,0,0,49028,,,,,,30.0,,,,,,,,,,,,,,,,,,,,,,,,,,,,,,,,150.5,1.0,,,,,
164,,iti,,html-keyboard-response,164,117237,0.0-1.0-32.0-0.0-5.0,0,0,49028,,,,,,,,,,,,,,,,,,,,,,,,,,,,,,,,,,,,,,154.0,3.5,,,,,
165,,choice,,html-keyboard-response,165,117703,0.0-1.0-33.0-0.0-0.0,0,0,49028,,462.0,,,68.0,31.0,331.0,1000.0,1000.0,0.0,6.0,1.0,40-80,0.0,,hat,tape,40.0,80.0,hat15,tape2,40.0,100.0,AFISHHAT2.jpg,Tape_Dispenser.jpg,/static/Category_learning/Stimuli/Experimental_stims/hat/AFISHHAT2.jpg,/static/Category_learning/Stimuli/Experimental_stims/tape/Tape_Dispenser.jpg,1.0,hat,tape,40.0,80.0,hat15,tape2,40.0,100.0,0.0,154.462,0.462,,,,,
166,,confirmation,,html-keyboard-response,166,118744,0.0-1.0-33.0-0.0-1.0-0.0,0,0,49028,,,,,,31.0,,,,,,,,,,,,,,,,,,,,,,,,,,,,,,,,155.5,1.038,,,,,
167,,isi,,html-keyboard-response,167,118847,0.0-1.0-33.0-0.0-2.0,0,0,49028,,,,,,,,,,,,,,,,,,,,,,,,,,,,,,,,,,,,,,156.5,1.0,,,,,
168,,feedback,,html-keyboard-response,168,119854,0.0-1.0-33.0-0.0-3.0-0.0,0,0,49028,,,,,,31.0,,,,,,,,,,,,,,,,,,,,,,,,,,,,,,,,157.5,1.0,,,,,
169,,iti,,html-keyboard-response,169,119960,0.0-1.0-33.0-0.0-5.0,0,0,49028,,,,,,,,,,,,,,,,,,,,,,,,,,,,,,,,,,,,,,158.5,1.0,,,,,
170,,choice,,html-keyboard-response,170,120058,0.0-1.0-34.0-0.0-0.0,0,0,49028,,96.0,,,68.0,32.0,332.0,1500.0,3500.0,0.0,6.0,0.0,40-60,,0.0,key chain,poker card,40.0,60.0,key chain4,poker card3,20.0,40.0,Gumby_Green-Keychain.jpg,9817131.thl.jpg,/static/Category_learning/Stimuli/Experimental_stims/key chain/Gumby_Green-Keychain.jpg,/static/Category_learning/Stimuli/Experimental_stims/poker card/9817131.thl.jpg,1.0,key chain,poker card,40.0,60.0,key chain4,poker card3,20.0,40.0,0.0,158.596,0.096,,,,,
171,,confirmation,,html-keyboard-response,171,121465,0.0-1.0-34.0-0.0-1.0-0.0,0,0,49028,,,,,,32.0,,,,,,,,,,,,,,,,,,,,,,,,,,,,,,,,160.0,1.404,,,,,
172,,isi,,html-keyboard-response,172,121572,0.0-1.0-34.0-0.0-2.0,0,0,49028,,,,,,,,,,,,,,,,,,,,,,,,,,,,,,,,,,,,,,161.5,1.5,,,,,
173,,feedback,,html-keyboard-response,173,122578,0.0-1.0-34.0-0.0-3.0-0.0,0,0,49028,,,,,,32.0,,,,,,,,,,,,,,,,,,,,,,,,,,,,,,,,162.5,1.0,,,,,
174,,iti,,html-keyboard-response,174,122685,0.0-1.0-34.0-0.0-5.0,0,0,49028,,,,,,,,,,,,,,,,,,,,,,,,,,,,,,,,,,,,,,166.0,3.5,,,,,
175,,choice,,html-keyboard-response,175,122737,0.0-1.0-35.0-0.0-0.0,0,0,49028,,48.0,,,68.0,33.0,333.0,1500.0,2000.0,0.0,6.0,1.0,40-80,0.0,,motorcycle,vase,40.0,80.0,motorcycle4,vase8,20.0,60.0,motorcycle46.jpg,Avase171.jpg,/static/Category_learning/Stimuli/Experimental_stims/motorcycle/motorcycle46.jpg,/static/Category_learning/Stimuli/Experimental_stims/vase/Avase171.jpg,1.0,motorcycle,vase,40.0,80.0,motorcycle4,vase8,20.0,60.0,0.0,166.048,0.048,,,,,
176,,confirmation,,html-keyboard-response,176,124195,0.0-1.0-35.0-0.0-1.0-0.0,0,0,49028,,,,,,33.0,,,,,,,,,,,,,,,,,,,,,,,,,,,,,,,,167.5,1.452,,,,,
177,,isi,,html-keyboard-response,177,124303,0.0-1.0-35.0-0.0-2.0,0,0,49028,,,,,,,,,,,,,,,,,,,,,,,,,,,,,,,,,,,,,,169.0,1.5,,,,,
178,,feedback,,html-keyboard-response,178,125309,0.0-1.0-35.0-0.0-3.0-0.0,0,0,49028,,,,,,33.0,,,,,,,,,,,,,,,,,,,,,,,,,,,,,,,,170.0,1.0,,,,,
179,,iti,,html-keyboard-response,179,125417,0.0-1.0-35.0-0.0-5.0,0,0,49028,,,,,,,,,,,,,,,,,,,,,,,,,,,,,,,,,,,,,,172.0,2.0,,,,,
180,,choice,,html-keyboard-response,180,126075,0.0-1.0-36.0-0.0-0.0,0,0,49028,,654.0,,,68.0,34.0,334.0,1500.0,2000.0,0.0,6.0,0.0,80-80,,,telescope,trumpet,80.0,80.0,telescope8,trumpet6,80.0,60.0,p0006439g.jpg,JUP416S.JPG,/static/Category_learning/Stimuli/Experimental_stims/telescope/p0006439g.jpg,/static/Category_learning/Stimuli/Experimental_stims/trumpet/JUP416S.JPG,1.0,telescope,trumpet,80.0,80.0,telescope8,trumpet6,80.0,60.0,0.0,172.654,0.654,,,,,
181,,confirmation,,html-keyboard-response,181,126928,0.0-1.0-36.0-0.0-1.0-0.0,0,0,49028,,,,,,34.0,,,,,,,,,,,,,,,,,,,,,,,,,,,,,,,,173.5,0.846,,,,,
182,,isi,,html-keyboard-response,182,127033,0.0-1.0-36.0-0.0-2.0,0,0,49028,,,,,,,,,,,,,,,,,,,,,,,,,,,,,,,,,,,,,,175.0,1.5,,,,,
183,,feedback,,html-keyboard-response,183,128042,0.0-1.0-36.0-0.0-3.0-0.0,0,0,49028,,,,,,34.0,,,,,,,,,,,,,,,,,,,,,,,,,,,,,,,,176.0,1.0,,,,,
184,,iti,,html-keyboard-response,184,128149,0.0-1.0-36.0-0.0-5.0,0,0,49028,,,,,,,,,,,,,,,,,,,,,,,,,,,,,,,,,,,,,,178.0,2.0,,,,,
185,,choice,,html-keyboard-response,185,128296,0.0-1.0-37.0-0.0-0.0,0,0,49028,,144.0,,,68.0,35.0,335.0,1000.0,1000.0,0.0,6.0,0.0,20-40,,0.0,bowl,hammer,20.0,40.0,bowl14,hammer1,40.0,20.0,Aredglassbowl.jpg,fosnaugh.hammer.jpg,/static/Category_learning/Stimuli/Experimental_stims/bowl/Aredglassbowl.jpg,/static/Category_learning/Stimuli/Experimental_stims/hammer/fosnaugh.hammer.jpg,1.0,bowl,hammer,20.0,40.0,bowl14,hammer1,40.0,20.0,0.0,178.144,0.144,,,,,
186,,confirmation,,html-keyboard-response,186,129658,0.0-1.0-37.0-0.0-1.0-0.0,0,0,49028,,,,,,35.0,,,,,,,,,,,,,,,,,,,,,,,,,,,,,,,,179.5,1.356,,,,,
187,,isi,,html-keyboard-response,187,129764,0.0-1.0-37.0-0.0-2.0,0,0,49028,,,,,,,,,,,,,,,,,,,,,,,,,,,,,,,,,,,,,,180.5,1.0,,,,,
188,,feedback,,html-keyboard-response,188,130771,0.0-1.0-37.0-0.0-3.0-0.0,0,0,49028,,,,,,35.0,,,,,,,,,,,,,,,,,,,,,,,,,,,,,,,,181.5,1.0,,,,,
189,,iti,,html-keyboard-response,189,130879,0.0-1.0-37.0-0.0-5.0,0,0,49028,,,,,,,,,,,,,,,,,,,,,,,,,,,,,,,,,,,,,,182.5,1.0,,,,,
190,,choice,,html-keyboard-response,190,131326,0.0-1.0-38.0-0.0-0.0,0,0,49028,,444.0,,,68.0,36.0,336.0,2000.0,1000.0,0.0,6.0,1.0,20-20,0.0,,bowl,desk,20.0,20.0,bowl14,desk13,40.0,0.0,Aredglassbowl.jpg,26427865.thl.jpg,/static/Category_learning/Stimuli/Experimental_stims/bowl/Aredglassbowl.jpg,/static/Category_learning/Stimuli/Experimental_stims/desk/26427865.thl.jpg,1.0,bowl,desk,20.0,20.0,bowl14,desk13,40.0,0.0,0.0,182.944,0.444,,,,,
191,,confirmation,,html-keyboard-response,191,132388,0.0-1.0-38.0-0.0-1.0-0.0,0,0,49028,,,,,,36.0,,,,,,,,,,,,,,,,,,,,,,,,,,,,,,,,184.0,1.056,,,,,
192,,isi,,html-keyboard-response,192,132494,0.0-1.0-38.0-0.0-2.0,0,0,49028,,,,,,,,,,,,,,,,,,,,,,,,,,,,,,,,,,,,,,186.0,2.0,,,,,
193,,feedback,,html-keyboard-response,193,133502,0.0-1.0-38.0-0.0-3.0-0.0,0,0,49028,,,,,,36.0,,,,,,,,,,,,,,,,,,,,,,,,,,,,,,,,187.0,1.0,,,,,
194,,iti,,html-keyboard-response,194,133609,0.0-1.0-38.0-0.0-5.0,0,0,49028,,,,,,,,,,,,,,,,,,,,,,,,,,,,,,,,,,,,,,188.0,1.0,,,,,
195,,choice,,html-keyboard-response,195,133998,0.0-1.0-39.0-0.0-0.0,0,0,49028,,387.0,,,68.0,37.0,337.0,1500.0,1000.0,0.0,6.0,0.0,40-80,,0.0,key chain,watch,40.0,80.0,key chain2,watch3,40.0,80.0,superman_returns_pewter_keychain_2.jpg,B0000TIIVO.01._SCLZZZZZZZ_V1124920780_.jpg,/static/Category_learning/Stimuli/Experimental_stims/key chain/superman_returns_pewter_keychain_2.jpg,/static/Category_learning/Stimuli/Experimental_stims/watch/B0000TIIVO.01._SCLZZZZZZZ_V1124920780_.jpg,1.0,key chain,watch,40.0,80.0,key chain2,watch3,40.0,80.0,0.0,188.387,0.387,,,,,
196,,confirmation,,html-keyboard-response,196,135119,0.0-1.0-39.0-0.0-1.0-0.0,0,0,49028,,,,,,37.0,,,,,,,,,,,,,,,,,,,,,,,,,,,,,,,,189.5,1.113,,,,,
197,,isi,,html-keyboard-response,197,135225,0.0-1.0-39.0-0.0-2.0,0,0,49028,,,,,,,,,,,,,,,,,,,,,,,,,,,,,,,,,,,,,,191.0,1.5,,,,,
198,,feedback,,html-keyboard-response,198,136232,0.0-1.0-39.0-0.0-3.0-0.0,0,0,49028,,,,,,37.0,,,,,,,,,,,,,,,,,,,,,,,,,,,,,,,,192.0,1.0,,,,,
199,,iti,,html-keyboard-response,199,136339,0.0-1.0-39.0-0.0-5.0,0,0,49028,,,,,,,,,,,,,,,,,,,,,,,,,,,,,,,,,,,,,,193.0,1.0,,,,,
200,,choice,,html-keyboard-response,200,136751,0.0-1.0-40.0-0.0-0.0,0,0,49028,,408.0,,,68.0,38.0,338.0,1000.0,2000.0,0.0,6.0,0.0,20-60,,1.0,small table,baby carriage,60.0,20.0,small table13,baby carriage1,40.0,40.0,ATABLE25.jpg,babycarriage16.jpg,/static/Category_learning/Stimuli/Experimental_stims/small table/ATABLE25.jpg,/static/Category_learning/Stimuli/Experimental_stims/baby carriage/babycarriage16.jpg,1.0,small table,baby carriage,60.0,20.0,small table13,baby carriage1,40.0,40.0,0.0,193.408,0.408,,,,,
201,,confirmation,,html-keyboard-response,201,137849,0.0-1.0-40.0-0.0-1.0-0.0,0,0,49028,,,,,,38.0,,,,,,,,,,,,,,,,,,,,,,,,,,,,,,,,194.5,1.092,,,,,
202,,isi,,html-keyboard-response,202,137955,0.0-1.0-40.0-0.0-2.0,0,0,49028,,,,,,,,,,,,,,,,,,,,,,,,,,,,,,,,,,,,,,195.5,1.0,,,,,
203,,feedback,,html-keyboard-response,203,138960,0.0-1.0-40.0-0.0-3.0-0.0,0,0,49028,,,,,,38.0,,,,,,,,,,,,,,,,,,,,,,,,,,,,,,,,196.5,1.0,,,,,
204,,iti,,html-keyboard-response,204,139064,0.0-1.0-40.0-0.0-5.0,0,0,49028,,,,,,,,,,,,,,,,,,,,,,,,,,,,,,,,,,,,,,198.5,2.0,,,,,
205,,choice,,html-keyboard-response,205,139166,0.0-1.0-41.0-0.0-0.0,0,0,49028,,99.0,,,68.0,39.0,339.0,2000.0,1500.0,0.0,6.0,1.0,40-40,1.0,,key chain,key chain,40.0,40.0,key chain4,key chain2,20.0,40.0,Gumby_Green-Keychain.jpg,superman_returns_pewter_keychain_2.jpg,/static/Category_learning/Stimuli/Experimental_stims/key chain/Gumby_Green-Keychain.jpg,/static/Category_learning/Stimuli/Experimental_stims/key chain/superman_returns_pewter_keychain_2.jpg,1.0,key chain,key chain,40.0,40.0,key chain4,key chain2,20.0,40.0,0.0,198.599,0.099,,,,,
206,,confirmation,,html-keyboard-response,206,140575,0.0-1.0-41.0-0.0-1.0-0.0,0,0,49028,,,,,,39.0,,,,,,,,,,,,,,,,,,,,,,,,,,,,,,,,200.0,1.401,,,,,
207,,isi,,html-keyboard-response,207,140682,0.0-1.0-41.0-0.0-2.0,0,0,49028,,,,,,,,,,,,,,,,,,,,,,,,,,,,,,,,,,,,,,202.0,2.0,,,,,
208,,feedback,,html-keyboard-response,208,141689,0.0-1.0-41.0-0.0-3.0-0.0,0,0,49028,,,,,,39.0,,,,,,,,,,,,,,,,,,,,,,,,,,,,,,,,203.0,1.0,,,,,
209,,iti,,html-keyboard-response,209,141796,0.0-1.0-41.0-0.0-5.0,0,0,49028,,,,,,,,,,,,,,,,,,,,,,,,,,,,,,,,,,,,,,204.5,1.5,,,,,
210,,choice,,html-keyboard-response,210,141968,0.0-1.0-42.0-0.0-0.0,0,0,49028,,169.0,,,68.0,40.0,340.0,1000.0,2000.0,0.0,6.0,0.0,20-60,,0.0,baby carriage,patio lounge chair,20.0,60.0,baby carriage15,patio lounge chair7,0.0,40.0,AANBABYC2.jpg,lg_Serenity_Riviera[1].jpg,/static/Category_learning/Stimuli/Experimental_stims/baby carriage/AANBABYC2.jpg,/static/Category_learning/Stimuli/Experimental_stims/patio lounge chair/lg_Serenity_Riviera[1].jpg,1.0,baby carriage,patio lounge chair,20.0,60.0,baby carriage15,patio lounge chair7,0.0,40.0,0.0,204.669,0.169,,,,,
211,,confirmation,,html-keyboard-response,211,143306,0.0-1.0-42.0-0.0-1.0-0.0,0,0,49028,,,,,,40.0,,,,,,,,,,,,,,,,,,,,,,,,,,,,,,,,206.0,1.331,,,,,
212,,isi,,html-keyboard-response,212,143411,0.0-1.0-42.0-0.0-2.0,0,0,49028,,,,,,,,,,,,,,,,,,,,,,,,,,,,,,,,,,,,,,207.0,1.0,,,,,
213,,feedback,,html-keyboard-response,213,144414,0.0-1.0-42.0-0.0-3.0-0.0,0,0,49028,,,,,,40.0,,,,,,,,,,,,,,,,,,,,,,,,,,,,,,,,208.0,1.0,,,,,
214,,iti,,html-keyboard-response,214,144522,0.0-1.0-42.0-0.0-5.0,0,0,49028,,,,,,,,,,,,,,,,,,,,,,,,,,,,,,,,,,,,,,210.0,2.0,,,,,
215,,choice,,html-keyboard-response,215,144794,0.0-1.0-43.0-0.0-0.0,0,0,49028,,268.0,,,68.0,41.0,341.0,1000.0,1500.0,0.0,6.0,0.0,20-80,,0.0,bench,tape,20.0,80.0,bench2,tape12,20.0,60.0,26369969.thl.jpg,Frog-Tape-Dispenser_F02218A2.jpg,/static/Category_learning/Stimuli/Experimental_stims/bench/26369969.thl.jpg,/static/Category_learning/Stimuli/Experimental_stims/tape/Frog-Tape-Dispenser_F02218A2.jpg,1.0,bench,tape,20.0,80.0,bench2,tape12,20.0,60.0,0.0,210.268,0.268,,,,,
216,,confirmation,,html-keyboard-response,216,146031,0.0-1.0-43.0-0.0-1.0-0.0,0,0,49028,,,,,,41.0,,,,,,,,,,,,,,,,,,,,,,,,,,,,,,,,211.5,1.232,,,,,
217,,isi,,html-keyboard-response,217,146139,0.0-1.0-43.0-0.0-2.0,0,0,49028,,,,,,,,,,,,,,,,,,,,,,,,,,,,,,,,,,,,,,212.5,1.0,,,,,
218,,feedback,,html-keyboard-response,218,147149,0.0-1.0-43.0-0.0-3.0-0.0,0,0,49028,,,,,,41.0,,,,,,,,,,,,,,,,,,,,,,,,,,,,,,,,213.5,1.0,,,,,
219,,iti,,html-keyboard-response,219,147257,0.0-1.0-43.0-0.0-5.0,0,0,49028,,,,,,,,,,,,,,,,,,,,,,,,,,,,,,,,,,,,,,215.0,1.5,,,,,
220,,choice,,html-keyboard-response,220,147465,0.0-1.0-44.0-0.0-0.0,0,0,49028,,205.0,,,68.0,42.0,342.0,2000.0,1500.0,0.0,6.0,0.0,20-60,,0.0,baby carriage,sofa,20.0,60.0,baby carriage3,sofa3,20.0,80.0,Stroller.jpg,ACOUCH14.jpg,/static/Category_learning/Stimuli/Experimental_stims/baby carriage/Stroller.jpg,/static/Category_learning/Stimuli/Experimental_stims/sofa/ACOUCH14.jpg,1.0,baby carriage,sofa,20.0,60.0,baby carriage3,sofa3,20.0,80.0,0.0,215.205,0.205,,,,,
221,,confirmation,,html-keyboard-response,221,148766,0.0-1.0-44.0-0.0-1.0-0.0,0,0,49028,,,,,,42.0,,,,,,,,,,,,,,,,,,,,,,,,,,,,,,,,216.5,1.295,,,,,
222,,isi,,html-keyboard-response,222,148875,0.0-1.0-44.0-0.0-2.0,0,0,49028,,,,,,,,,,,,,,,,,,,,,,,,,,,,,,,,,,,,,,218.5,2.0,,,,,
223,,feedback,,html-keyboard-response,223,149883,0.0-1.0-44.0-0.0-3.0-0.0,0,0,49028,,,,,,42.0,,,,,,,,,,,,,,,,,,,,,,,,,,,,,,,,219.5,1.0,,,,,
224,,iti,,html-keyboard-response,224,149990,0.0-1.0-44.0-0.0-5.0,0,0,49028,,,,,,,,,,,,,,,,,,,,,,,,,,,,,,,,,,,,,,221.0,1.5,,,,,
225,,choice,,html-keyboard-response,225,150310,0.0-1.0-45.0-0.0-0.0,0,0,49028,,317.0,,,68.0,43.0,343.0,1000.0,1000.0,0.0,6.0,0.0,60-60,,,seashell,nail polish,60.0,60.0,seashell6,nail polish8,80.0,40.0,PY2H1461.jpg,283-ILilacYouALot.jpg,/static/Category_learning/Stimuli/Experimental_stims/seashell/PY2H1461.jpg,/static/Category_learning/Stimuli/Experimental_stims/nail polish/283-ILilacYouALot.jpg,1.0,seashell,nail polish,60.0,60.0,seashell6,nail polish8,80.0,40.0,0.0,221.317,0.317,,,,,
226,,confirmation,,html-keyboard-response,226,151502,0.0-1.0-45.0-0.0-1.0-0.0,0,0,49028,,,,,,43.0,,,,,,,,,,,,,,,,,,,,,,,,,,,,,,,,222.5,1.183,,,,,
227,,isi,,html-keyboard-response,227,151605,0.0-1.0-45.0-0.0-2.0,0,0,49028,,,,,,,,,,,,,,,,,,,,,,,,,,,,,,,,,,,,,,223.5,1.0,,,,,
228,,feedback,,html-keyboard-response,228,152613,0.0-1.0-45.0-0.0-3.0-0.0,0,0,49028,,,,,,43.0,,,,,,,,,,,,,,,,,,,,,,,,,,,,,,,,224.5,1.0,,,,,
229,,iti,,html-keyboard-response,229,152720,0.0-1.0-45.0-0.0-5.0,0,0,49028,,,,,,,,,,,,,,,,,,,,,,,,,,,,,,,,,,,,,,225.5,1.0,,,,,
230,,choice,,html-keyboard-response,230,154228,0.0-1.0-46.0-0.0-0.0,0,0,49028,,,,,,44.0,344.0,3500.0,3000.0,0.0,6.0,0.0,40-60,,1.0,power strip,hammer,60.0,40.0,power strip4,hammer2,60.0,60.0,41D3CX96H9L._AA262_.jpg,hammer04.jpg,/static/Category_learning/Stimuli/Experimental_stims/power strip/41D3CX96H9L._AA262_.jpg,/static/Category_learning/Stimuli/Experimental_stims/hammer/hammer04.jpg,,,,,,,,,,1.0,227.0,1.5,,,,,
231,,isi,,html-keyboard-response,231,154334,0.0-1.0-46.0-0.0-2.0,0,0,49028,,,,,,,,,,,,,,,,,,,,,,,,,,,,,,,,,,,,,,230.5,3.5,,,,,
232,,no_response,,html-keyboard-response,232,155342,0.0-1.0-46.0-0.0-4.0-0.0,1,0,49028,,,,,,,,,,,,,,,,,,,,,,,,,,,,,,,,,,,,,,231.5,1.0,,,,,
233,,iti,,html-keyboard-response,233,155464,0.0-1.0-46.0-0.0-5.0,0,0,49028,,,,,,,,,,,,,,,,,,,,,,,,,,,,,,,,,,,,,,234.5,3.0,,,,,
234,,choice,,html-keyboard-response,234,156971,0.0-1.0-46.0-0.1-0.1,0,0,49028,,,,,,44.0,344.0,3500.0,3000.0,0.0,6.0,0.0,40-60,,1.0,power strip,hammer,60.0,40.0,power strip4,hammer2,60.0,60.0,41D3CX96H9L._AA262_.jpg,hammer04.jpg,/static/Category_learning/Stimuli/Experimental_stims/power strip/41D3CX96H9L._AA262_.jpg,/static/Category_learning/Stimuli/Experimental_stims/hammer/hammer04.jpg,,,,,,,,,,1.0,236.0,1.5,,,,,
235,,isi,,html-keyboard-response,235,157077,0.0-1.0-46.0-0.1-2.1,0,0,49028,,,,,,,,,,,,,,,,,,,,,,,,,,,,,,,,,,,,,,238.0,2.0,,,,,
236,,no_response,,html-keyboard-response,236,158083,0.0-1.0-46.0-0.1-4.1-0.1,1,0,49028,,,,,,,,,,,,,,,,,,,,,,,,,,,,,,,,,,,,,,239.0,1.0,,,,,
237,,iti,,html-keyboard-response,237,158205,0.0-1.0-46.0-0.1-5.1,0,0,49028,,,,,,,,,,,,,,,,,,,,,,,,,,,,,,,,,,,,,,241.0,2.0,,,,,
238,,choice,,html-keyboard-response,238,159281,0.0-1.0-46.0-0.2-0.2,0,0,49028,,1073.0,,,75.0,44.0,344.0,3500.0,3000.0,0.0,6.0,0.0,40-60,,1.0,power strip,hammer,60.0,40.0,power strip4,hammer2,60.0,60.0,41D3CX96H9L._AA262_.jpg,hammer04.jpg,/static/Category_learning/Stimuli/Experimental_stims/power strip/41D3CX96H9L._AA262_.jpg,/static/Category_learning/Stimuli/Experimental_stims/hammer/hammer04.jpg,0.0,hammer,power strip,40.0,60.0,hammer2,power strip4,60.0,60.0,0.0,242.073,1.073,,,,,
239,,confirmation,,html-keyboard-response,239,159714,0.0-1.0-46.0-0.2-1.2-0.2,0,0,49028,,,,,,44.0,,,,,,,,,,,,,,,,,,,,,,,,,,,,,,,,242.5,0.427,,,,,
240,,isi,,html-keyboard-response,240,159820,0.0-1.0-46.0-0.2-2.2,0,0,49028,,,,,,,,,,,,,,,,,,,,,,,,,,,,,,,,,,,,,,243.5,1.0,,,,,
241,,feedback,,html-keyboard-response,241,160824,0.0-1.0-46.0-0.2-3.2-0.2,0,0,49028,,,,,,44.0,,,,,,,,,,,,,,,,,,,,,,,,,,,,,,,,244.5,1.0,,,,,
242,,iti,,html-keyboard-response,242,160931,0.0-1.0-46.0-0.2-5.2,0,0,49028,,,,,,,,,,,,,,,,,,,,,,,,,,,,,,,,,,,,,,246.5,2.0,,,,,
243,,choice,,html-keyboard-response,243,161583,0.0-1.0-47.0-0.0-0.0,0,0,49028,,650.0,,,75.0,45.0,345.0,3500.0,2000.0,0.0,6.0,0.0,20-20,,,bongo,flashlight,20.0,20.0,bongo1,flashlight4,0.0,0.0,ABONGO22.jpg,new08.jpg,/static/Category_learning/Stimuli/Experimental_stims/bongo/ABONGO22.jpg,/static/Category_learning/Stimuli/Experimental_stims/flashlight/new08.jpg,0.0,flashlight,bongo,20.0,20.0,flashlight4,bongo1,0.0,0.0,0.0,247.15,0.65,,,,,
244,,confirmation,,html-keyboard-response,244,162441,0.0-1.0-47.0-0.0-1.0-0.0,0,0,49028,,,,,,45.0,,,,,,,,,,,,,,,,,,,,,,,,,,,,,,,,248.0,0.85,,,,,
245,,isi,,html-keyboard-response,245,162549,0.0-1.0-47.0-0.0-2.0,0,0,49028,,,,,,,,,,,,,,,,,,,,,,,,,,,,,,,,,,,,,,251.5,3.5,,,,,
246,,feedback,,html-keyboard-response,246,163557,0.0-1.0-47.0-0.0-3.0-0.0,0,0,49028,,,,,,45.0,,,,,,,,,,,,,,,,,,,,,,,,,,,,,,,,252.5,1.0,,,,,
247,,iti,,html-keyboard-response,247,163664,0.0-1.0-47.0-0.0-5.0,0,0,49028,,,,,,,,,,,,,,,,,,,,,,,,,,,,,,,,,,,,,,254.5,2.0,,,,,
248,,choice,,html-keyboard-response,248,163854,0.0-1.0-48.0-0.0-0.0,0,0,49028,,187.0,,,75.0,46.0,346.0,2000.0,3000.0,0.0,6.0,0.0,20-80,,1.0,tent,bench,80.0,20.0,tent2,bench14,60.0,0.0,Atent16.jpg,APARKBENC.jpg,/static/Category_learning/Stimuli/Experimental_stims/tent/Atent16.jpg,/static/Category_learning/Stimuli/Experimental_stims/bench/APARKBENC.jpg,0.0,bench,tent,20.0,80.0,bench14,tent2,0.0,60.0,0.0,254.687,0.187,,,,,
249,,confirmation,,html-keyboard-response,249,165176,0.0-1.0-48.0-0.0-1.0-0.0,0,0,49028,,,,,,46.0,,,,,,,,,,,,,,,,,,,,,,,,,,,,,,,,256.0,1.313,,,,,
250,,isi,,html-keyboard-response,250,165282,0.0-1.0-48.0-0.0-2.0,0,0,49028,,,,,,,,,,,,,,,,,,,,,,,,,,,,,,,,,,,,,,258.0,2.0,,,,,
251,,feedback,,html-keyboard-response,251,166288,0.0-1.0-48.0-0.0-3.0-0.0,0,0,49028,,,,,,46.0,,,,,,,,,,,,,,,,,,,,,,,,,,,,,,,,259.0,1.0,,,,,
252,,iti,,html-keyboard-response,252,166396,0.0-1.0-48.0-0.0-5.0,0,0,49028,,,,,,,,,,,,,,,,,,,,,,,,,,,,,,,,,,,,,,262.0,3.0,,,,,
253,,choice,,html-keyboard-response,253,166801,0.0-1.0-49.0-0.0-0.0,0,0,49028,,402.0,,,75.0,47.0,347.0,1000.0,1500.0,0.0,6.0,0.0,40-60,,0.0,license plate,nail polish,40.0,60.0,license plate8,nail polish4,60.0,40.0,dc-vrw-jsw.jpg,8027_O.jpg,/static/Category_learning/Stimuli/Experimental_stims/license plate/dc-vrw-jsw.jpg,/static/Category_learning/Stimuli/Experimental_stims/nail polish/8027_O.jpg,0.0,nail polish,license plate,60.0,40.0,nail polish4,license plate8,40.0,60.0,0.0,262.402,0.402,,,,,
254,,confirmation,,html-keyboard-response,254,167906,0.0-1.0-49.0-0.0-1.0-0.0,0,0,49028,,,,,,47.0,,,,,,,,,,,,,,,,,,,,,,,,,,,,,,,,263.5,1.098,,,,,
255,,isi,,html-keyboard-response,255,168014,0.0-1.0-49.0-0.0-2.0,0,0,49028,,,,,,,,,,,,,,,,,,,,,,,,,,,,,,,,,,,,,,264.5,1.0,,,,,
256,,feedback,,html-keyboard-response,256,169022,0.0-1.0-49.0-0.0-3.0-0.0,0,0,49028,,,,,,47.0,,,,,,,,,,,,,,,,,,,,,,,,,,,,,,,,265.5,1.0,,,,,
257,,iti,,html-keyboard-response,257,169129,0.0-1.0-49.0-0.0-5.0,0,0,49028,,,,,,,,,,,,,,,,,,,,,,,,,,,,,,,,,,,,,,267.0,1.5,,,,,
258,,choice,,html-keyboard-response,258,170634,0.0-1.0-50.0-0.0-0.0,0,0,49028,,,,,,48.0,348.0,1000.0,1500.0,0.0,6.0,0.0,40-80,,1.0,watch,makeup compact,80.0,40.0,watch11,makeup compact4,80.0,60.0,B00020ODHO.01-A2E7J74KJYV9ZH._AA280_SCLZZZZZZZ_V65957276_.jpg,262668_fpx.jpg,/static/Category_learning/Stimuli/Experimental_stims/watch/B00020ODHO.01-A2E7J74KJYV9ZH._AA280_SCLZZZZZZZ_V65957276_.jpg,/static/Category_learning/Stimuli/Experimental_stims/makeup compact/262668_fpx.jpg,,,,,,,,,,1.0,268.5,1.5,,,,,
259,,isi,,html-keyboard-response,259,170740,0.0-1.0-50.0-0.0-2.0,0,0,49028,,,,,,,,,,,,,,,,,,,,,,,,,,,,,,,,,,,,,,269.5,1.0,,,,,
260,,no_response,,html-keyboard-response,260,171748,0.0-1.0-50.0-0.0-4.0-0.0,1,0,49028,,,,,,,,,,,,,,,,,,,,,,,,,,,,,,,,,,,,,,270.5,1.0,,,,,
261,,iti,,html-keyboard-response,261,171868,0.0-1.0-50.0-0.0-5.0,0,0,49028,,,,,,,,,,,,,,,,,,,,,,,,,,,,,,,,,,,,,,272.0,1.5,,,,,
262,,choice,,html-keyboard-response,262,172164,0.0-1.0-50.0-0.1-0.1,0,0,49028,,293.0,,,75.0,48.0,348.0,1000.0,1500.0,0.0,6.0,0.0,40-80,,1.0,watch,makeup compact,80.0,40.0,watch11,makeup compact4,80.0,60.0,B00020ODHO.01-A2E7J74KJYV9ZH._AA280_SCLZZZZZZZ_V65957276_.jpg,262668_fpx.jpg,/static/Category_learning/Stimuli/Experimental_stims/watch/B00020ODHO.01-A2E7J74KJYV9ZH._AA280_SCLZZZZZZZ_V65957276_.jpg,/static/Category_learning/Stimuli/Experimental_stims/makeup compact/262668_fpx.jpg,0.0,makeup compact,watch,40.0,80.0,makeup compact4,watch11,60.0,80.0,0.0,272.293,0.293,,,,,
263,,confirmation,,html-keyboard-response,263,173380,0.0-1.0-50.0-0.1-1.1-0.1,0,0,49028,,,,,,48.0,,,,,,,,,,,,,,,,,,,,,,,,,,,,,,,,273.5,1.207,,,,,
264,,isi,,html-keyboard-response,264,173487,0.0-1.0-50.0-0.1-2.1,0,0,49028,,,,,,,,,,,,,,,,,,,,,,,,,,,,,,,,,,,,,,275.5,2.0,,,,,
265,,feedback,,html-keyboard-response,265,174490,0.0-1.0-50.0-0.1-3.1-0.1,0,0,49028,,,,,,48.0,,,,,,,,,,,,,,,,,,,,,,,,,,,,,,,,276.5,1.0,,,,,
266,,iti,,html-keyboard-response,266,174598,0.0-1.0-50.0-0.1-5.1,0,0,49028,,,,,,,,,,,,,,,,,,,,,,,,,,,,,,,,,,,,,,278.0,1.5,,,,,
267,,choice,,html-keyboard-response,267,174868,0.0-1.0-51.0-0.0-0.0,0,0,49028,,266.0,,,75.0,49.0,349.0,1500.0,2000.0,0.0,6.0,0.0,40-60,,0.0,key chain,necklace,40.0,60.0,key chain15,necklace5,60.0,60.0,Soft_PVC_Keychain.jpg,necklascenew08.jpg,/static/Category_learning/Stimuli/Experimental_stims/key chain/Soft_PVC_Keychain.jpg,/static/Category_learning/Stimuli/Experimental_stims/necklace/necklascenew08.jpg,0.0,necklace,key chain,60.0,40.0,necklace5,key chain15,60.0,60.0,0.0,278.266,0.266,,,,,
268,,confirmation,,html-keyboard-response,268,176107,0.0-1.0-51.0-0.0-1.0-0.0,0,0,49028,,,,,,49.0,,,,,,,,,,,,,,,,,,,,,,,,,,,,,,,,279.5,1.234,,,,,
269,,isi,,html-keyboard-response,269,176213,0.0-1.0-51.0-0.0-2.0,0,0,49028,,,,,,,,,,,,,,,,,,,,,,,,,,,,,,,,,,,,,,281.0,1.5,,,,,
270,,feedback,,html-keyboard-response,270,177220,0.0-1.0-51.0-0.0-3.0-0.0,0,0,49028,,,,,,49.0,,,,,,,,,,,,,,,,,,,,,,,,,,,,,,,,282.0,1.0,,,,,
271,,iti,,html-keyboard-response,271,177324,0.0-1.0-51.0-0.0-5.0,0,0,49028,,,,,,,,,,,,,,,,,,,,,,,,,,,,,,,,,,,,,,284.0,2.0,,,,,
272,,choice,,html-keyboard-response,272,177477,0.0-1.0-52.0-0.0-0.0,0,0,49028,,150.0,,,75.0,50.0,350.0,3000.0,3000.0,0.0,6.0,0.0,20-60,,1.0,poker card,desk,60.0,20.0,poker card10,desk12,40.0,40.0,22864488.thl.jpg,ADESK19.jpg,/static/Category_learning/Stimuli/Experimental_stims/poker card/22864488.thl.jpg,/static/Category_learning/Stimuli/Experimental_stims/desk/ADESK19.jpg,0.0,desk,poker card,20.0,60.0,desk12,poker card10,40.0,40.0,0.0,284.15,0.15,,,,,
273,,confirmation,,html-keyboard-response,273,178834,0.0-1.0-52.0-0.0-1.0-0.0,0,0,49028,,,,,,50.0,,,,,,,,,,,,,,,,,,,,,,,,,,,,,,,,285.5,1.35,,,,,
274,,isi,,html-keyboard-response,274,178939,0.0-1.0-52.0-0.0-2.0,0,0,49028,,,,,,,,,,,,,,,,,,,,,,,,,,,,,,,,,,,,,,288.5,3.0,,,,,
275,,feedback,,html-keyboard-response,275,179943,0.0-1.0-52.0-0.0-3.0-0.0,0,0,49028,,,,,,50.0,,,,,,,,,,,,,,,,,,,,,,,,,,,,,,,,289.5,1.0,,,,,
276,,iti,,html-keyboard-response,276,180051,0.0-1.0-52.0-0.0-5.0,0,0,49028,,,,,,,,,,,,,,,,,,,,,,,,,,,,,,,,,,,,,,292.5,3.0,,,,,
277,,choice,,html-keyboard-response,277,180094,0.0-1.0-53.0-0.0-0.0,0,0,49028,,38.0,,,75.0,51.0,351.0,1500.0,1000.0,0.0,6.0,0.0,20-80,,0.0,door knob,trumpet,20.0,80.0,door knob13,trumpet13,0.0,80.0,500_CLAWALBC.jpg,JUPITER+JTR1600GS.jpg,/static/Category_learning/Stimuli/Experimental_stims/door knob/500_CLAWALBC.jpg,/static/Category_learning/Stimuli/Experimental_stims/trumpet/JUPITER+JTR1600GS.jpg,0.0,trumpet,door knob,80.0,20.0,trumpet13,door knob13,80.0,0.0,0.0,292.538,0.038,,,,,
278,,confirmation,,html-keyboard-response,278,181566,0.0-1.0-53.0-0.0-1.0-0.0,0,0,49028,,,,,,51.0,,,,,,,,,,,,,,,,,,,,,,,,,,,,,,,,294.0,1.462,,,,,
279,,isi,,html-keyboard-response,279,181671,0.0-1.0-53.0-0.0-2.0,0,0,49028,,,,,,,,,,,,,,,,,,,,,,,,,,,,,,,,,,,,,,295.5,1.5,,,,,
280,,feedback,,html-keyboard-response,280,182680,0.0-1.0-53.0-0.0-3.0-0.0,0,0,49028,,,,,,51.0,,,,,,,,,,,,,,,,,,,,,,,,,,,,,,,,296.5,1.0,,,,,
281,,iti,,html-keyboard-response,281,182787,0.0-1.0-53.0-0.0-5.0,0,0,49028,,,,,,,,,,,,,,,,,,,,,,,,,,,,,,,,,,,,,,297.5,1.0,,,,,
282,,choice,,html-keyboard-response,282,182844,0.0-1.0-54.0-0.0-0.0,0,0,49028,,54.0,,,75.0,52.0,352.0,3000.0,1000.0,0.0,6.0,1.0,20-20,1.0,,baby carriage,baby carriage,20.0,20.0,baby carriage15,baby carriage3,0.0,20.0,AANBABYC2.jpg,Stroller.jpg,/static/Category_learning/Stimuli/Experimental_stims/baby carriage/AANBABYC2.jpg,/static/Category_learning/Stimuli/Experimental_stims/baby carriage/Stroller.jpg,0.0,baby carriage,baby carriage,20.0,20.0,baby carriage3,baby carriage15,20.0,0.0,0.0,297.554,0.054,,,,,
283,,confirmation,,html-keyboard-response,283,184296,0.0-1.0-54.0-0.0-1.0-0.0,0,0,49028,,,,,,52.0,,,,,,,,,,,,,,,,,,,,,,,,,,,,,,,,299.0,1.446,,,,,
284,,isi,,html-keyboard-response,284,184403,0.0-1.0-54.0-0.0-2.0,0,0,49028,,,,,,,,,,,,,,,,,,,,,,,,,,,,,,,,,,,,,,302.0,3.0,,,,,
285,,feedback,,html-keyboard-response,285,185410,0.0-1.0-54.0-0.0-3.0-0.0,0,0,49028,,,,,,52.0,,,,,,,,,,,,,,,,,,,,,,,,,,,,,,,,303.0,1.0,,,,,
286,,iti,,html-keyboard-response,286,185513,0.0-1.0-54.0-0.0-5.0,0,0,49028,,,,,,,,,,,,,,,,,,,,,,,,,,,,,,,,,,,,,,304.0,1.0,,,,,
287,,choice,,html-keyboard-response,287,186541,0.0-1.0-55.0-0.0-0.0,0,0,49028,,1024.0,,,75.0,53.0,353.0,1000.0,2000.0,0.0,6.0,0.0,20-80,,0.0,door knob,watch,20.0,80.0,door knob2,watch2,0.0,60.0,500_DECWHIPB.jpg,AL0004-03E_MED.jpg,/static/Category_learning/Stimuli/Experimental_stims/door knob/500_DECWHIPB.jpg,/static/Category_learning/Stimuli/Experimental_stims/watch/AL0004-03E_MED.jpg,0.0,watch,door knob,80.0,20.0,watch2,door knob2,60.0,0.0,0.0,305.024,1.024,,,,,
288,,confirmation,,html-keyboard-response,288,187025,0.0-1.0-55.0-0.0-1.0-0.0,0,0,49028,,,,,,53.0,,,,,,,,,,,,,,,,,,,,,,,,,,,,,,,,305.5,0.476,,,,,
289,,isi,,html-keyboard-response,289,187134,0.0-1.0-55.0-0.0-2.0,0,0,49028,,,,,,,,,,,,,,,,,,,,,,,,,,,,,,,,,,,,,,306.5,1.0,,,,,
290,,feedback,,html-keyboard-response,290,188142,0.0-1.0-55.0-0.0-3.0-0.0,0,0,49028,,,,,,53.0,,,,,,,,,,,,,,,,,,,,,,,,,,,,,,,,307.5,1.0,,,,,
291,,iti,,html-keyboard-response,291,188244,0.0-1.0-55.0-0.0-5.0,0,0,49028,,,,,,,,,,,,,,,,,,,,,,,,,,,,,,,,,,,,,,309.5,2.0,,,,,
292,,choice,,html-keyboard-response,292,188894,0.0-1.0-56.0-0.0-0.0,0,0,49028,,648.0,,,75.0,54.0,354.0,2000.0,1000.0,0.0,6.0,0.0,40-80,,1.0,tent,lipstick,80.0,40.0,tent8,lipstick2,80.0,20.0,quechua_tent-1.jpg,11uuoPMY+OL._SS500_.jpg,/static/Category_learning/Stimuli/Experimental_stims/tent/quechua_tent-1.jpg,/static/Category_learning/Stimuli/Experimental_stims/lipstick/11uuoPMY+OL._SS500_.jpg,0.0,lipstick,tent,40.0,80.0,lipstick2,tent8,20.0,80.0,0.0,310.148,0.648,,,,,
293,,confirmation,,html-keyboard-response,293,189753,0.0-1.0-56.0-0.0-1.0-0.0,0,0,49028,,,,,,54.0,,,,,,,,,,,,,,,,,,,,,,,,,,,,,,,,311.0,0.852,,,,,
294,,isi,,html-keyboard-response,294,189860,0.0-1.0-56.0-0.0-2.0,0,0,49028,,,,,,,,,,,,,,,,,,,,,,,,,,,,,,,,,,,,,,313.0,2.0,,,,,
295,,feedback,,html-keyboard-response,295,190867,0.0-1.0-56.0-0.0-3.0-0.0,0,0,49028,,,,,,54.0,,,,,,,,,,,,,,,,,,,,,,,,,,,,,,,,314.0,1.0,,,,,
296,,iti,,html-keyboard-response,296,190975,0.0-1.0-56.0-0.0-5.0,0,0,49028,,,,,,,,,,,,,,,,,,,,,,,,,,,,,,,,,,,,,,315.0,1.0,,,,,
297,,choice,,html-keyboard-response,297,191817,0.0-1.0-57.0-0.0-0.0,0,0,49028,,838.0,,,75.0,55.0,355.0,3500.0,1000.0,0.0,6.0,0.0,20-80,,0.0,bench,tape,20.0,80.0,bench12,tape1,40.0,100.0,22927976.thl.jpg,aktotape_01.jpg,/static/Category_learning/Stimuli/Experimental_stims/bench/22927976.thl.jpg,/static/Category_learning/Stimuli/Experimental_stims/tape/aktotape_01.jpg,0.0,tape,bench,80.0,20.0,tape1,bench12,100.0,40.0,0.0,315.838,0.838,,,,,
298,,confirmation,,html-keyboard-response,298,192487,0.0-1.0-57.0-0.0-1.0-0.0,0,0,49028,,,,,,55.0,,,,,,,,,,,,,,,,,,,,,,,,,,,,,,,,316.5,0.662,,,,,
299,,isi,,html-keyboard-response,299,192590,0.0-1.0-57.0-0.0-2.0,0,0,49028,,,,,,,,,,,,,,,,,,,,,,,,,,,,,,,,,,,,,,320.0,3.5,,,,,
300,,feedback,,html-keyboard-response,300,193596,0.0-1.0-57.0-0.0-3.0-0.0,0,0,49028,,,,,,55.0,,,,,,,,,,,,,,,,,,,,,,,,,,,,,,,,321.0,1.0,,,,,
301,,iti,,html-keyboard-response,301,193701,0.0-1.0-57.0-0.0-5.0,0,0,49028,,,,,,,,,,,,,,,,,,,,,,,,,,,,,,,,,,,,,,322.0,1.0,,,,,
302,,choice,,html-keyboard-response,302,194615,0.0-1.0-58.0-0.0-0.0,0,0,49028,,910.0,,,75.0,56.0,356.0,2000.0,1500.0,0.0,6.0,1.0,60-60,1.0,,necklace,necklace,60.0,60.0,necklace5,necklace14,60.0,80.0,necklascenew08.jpg,necklascenew05.jpg,/static/Category_learning/Stimuli/Experimental_stims/necklace/necklascenew08.jpg,/static/Category_learning/Stimuli/Experimental_stims/necklace/necklascenew05.jpg,0.0,necklace,necklace,60.0,60.0,necklace14,necklace5,80.0,60.0,0.0,322.91,0.91,,,,,
303,,confirmation,,html-keyboard-response,303,195211,0.0-1.0-58.0-0.0-1.0-0.0,0,0,49028,,,,,,56.0,,,,,,,,,,,,,,,,,,,,,,,,,,,,,,,,323.5,0.59,,,,,
304,,isi,,html-keyboard-response,304,195317,0.0-1.0-58.0-0.0-2.0,0,0,49028,,,,,,,,,,,,,,,,,,,,,,,,,,,,,,,,,,,,,,325.5,2.0,,,,,
305,,feedback,,html-keyboard-response,305,196324,0.0-1.0-58.0-0.0-3.0-0.0,0,0,49028,,,,,,56.0,,,,,,,,,,,,,,,,,,,,,,,,,,,,,,,,326.5,1.0,,,,,
306,,iti,,html-keyboard-response,306,196431,0.0-1.0-58.0-0.0-5.0,0,0,49028,,,,,,,,,,,,,,,,,,,,,,,,,,,,,,,,,,,,,,328.0,1.5,,,,,
307,,choice,,html-keyboard-response,307,196925,0.0-1.0-59.0-0.0-0.0,0,0,49028,,490.0,,,75.0,57.0,357.0,2000.0,1000.0,0.0,6.0,0.0,80-80,,,yarn,trumpet,80.0,80.0,yarn15,trumpet11,80.0,60.0,rainbowscarf-600x394.jpg,JUPITER+JTR604L.jpg,/static/Category_learning/Stimuli/Experimental_stims/yarn/rainbowscarf-600x394.jpg,/static/Category_learning/Stimuli/Experimental_stims/trumpet/JUPITER+JTR604L.jpg,0.0,trumpet,yarn,80.0,80.0,trumpet11,yarn15,60.0,80.0,0.0,328.49,0.49,,,,,
308,,confirmation,,html-keyboard-response,308,197943,0.0-1.0-59.0-0.0-1.0-0.0,0,0,49028,,,,,,57.0,,,,,,,,,,,,,,,,,,,,,,,,,,,,,,,,329.5,1.01,,,,,
309,,isi,,html-keyboard-response,309,198051,0.0-1.0-59.0-0.0-2.0,0,0,49028,,,,,,,,,,,,,,,,,,,,,,,,,,,,,,,,,,,,,,331.5,2.0,,,,,
310,,feedback,,html-keyboard-response,310,199057,0.0-1.0-59.0-0.0-3.0-0.0,0,0,49028,,,,,,57.0,,,,,,,,,,,,,,,,,,,,,,,,,,,,,,,,332.5,1.0,,,,,
311,,iti,,html-keyboard-response,311,199162,0.0-1.0-59.0-0.0-5.0,0,0,49028,,,,,,,,,,,,,,,,,,,,,,,,,,,,,,,,,,,,,,333.5,1.0,,,,,
312,,choice,,html-keyboard-response,312,199209,0.0-1.0-60.0-0.0-0.0,0,0,49028,,44.0,,,75.0,58.0,358.0,1500.0,1000.0,0.0,6.0,1.0,20-20,1.0,,bench,bench,20.0,20.0,bench14,bench2,0.0,20.0,APARKBENC.jpg,26369969.thl.jpg,/static/Category_learning/Stimuli/Experimental_stims/bench/APARKBENC.jpg,/static/Category_learning/Stimuli/Experimental_stims/bench/26369969.thl.jpg,0.0,bench,bench,20.0,20.0,bench2,bench14,20.0,0.0,0.0,333.544,0.044,,,,,
313,,confirmation,,html-keyboard-response,313,200672,0.0-1.0-60.0-0.0-1.0-0.0,0,0,49028,,,,,,58.0,,,,,,,,,,,,,,,,,,,,,,,,,,,,,,,,335.0,1.456,,,,,
314,,isi,,html-keyboard-response,314,200779,0.0-1.0-60.0-0.0-2.0,0,0,49028,,,,,,,,,,,,,,,,,,,,,,,,,,,,,,,,,,,,,,336.5,1.5,,,,,
315,,feedback,,html-keyboard-response,315,201786,0.0-1.0-60.0-0.0-3.0-0.0,0,0,49028,,,,,,58.0,,,,,,,,,,,,,,,,,,,,,,,,,,,,,,,,337.5,1.0,,,,,
316,,iti,,html-keyboard-response,316,201893,0.0-1.0-60.0-0.0-5.0,0,0,49028,,,,,,,,,,,,,,,,,,,,,,,,,,,,,,,,,,,,,,338.5,1.0,,,,,
317,,choice,,html-keyboard-response,317,202079,0.0-1.0-61.0-0.0-0.0,0,0,49028,,183.0,,,75.0,59.0,359.0,3000.0,3500.0,0.0,6.0,0.0,40-80,,0.0,makeup compact,telescope,40.0,80.0,makeup compact12,telescope11,20.0,80.0,P139103_hero.jpg,digimarc.ms03.jpg,/static/Category_learning/Stimuli/Experimental_stims/makeup compact/P139103_hero.jpg,/static/Category_learning/Stimuli/Experimental_stims/telescope/digimarc.ms03.jpg,0.0,telescope,makeup compact,80.0,40.0,telescope11,makeup compact12,80.0,20.0,0.0,338.683,0.183,,,,,
318,,confirmation,,html-keyboard-response,318,203403,0.0-1.0-61.0-0.0-1.0-0.0,0,0,49028,,,,,,59.0,,,,,,,,,,,,,,,,,,,,,,,,,,,,,,,,340.0,1.317,,,,,
319,,isi,,html-keyboard-response,319,203510,0.0-1.0-61.0-0.0-2.0,0,0,49028,,,,,,,,,,,,,,,,,,,,,,,,,,,,,,,,,,,,,,343.0,3.0,,,,,
320,,feedback,,html-keyboard-response,320,204518,0.0-1.0-61.0-0.0-3.0-0.0,0,0,49028,,,,,,59.0,,,,,,,,,,,,,,,,,,,,,,,,,,,,,,,,344.0,1.0,,,,,
321,,iti,,html-keyboard-response,321,204624,0.0-1.0-61.0-0.0-5.0,0,0,49028,,,,,,,,,,,,,,,,,,,,,,,,,,,,,,,,,,,,,,347.5,3.5,,,,,
322,,choice,,html-keyboard-response,322,205312,0.0-1.0-62.0-0.0-0.0,0,0,49028,,685.0,,,75.0,60.0,360.0,1000.0,1000.0,0.0,6.0,1.0,80-80,1.0,,trumpet,trumpet,80.0,80.0,trumpet11,trumpet13,60.0,80.0,JUPITER+JTR604L.jpg,JUPITER+JTR1600GS.jpg,/static/Category_learning/Stimuli/Experimental_stims/trumpet/JUPITER+JTR604L.jpg,/static/Category_learning/Stimuli/Experimental_stims/trumpet/JUPITER+JTR1600GS.jpg,0.0,trumpet,trumpet,80.0,80.0,trumpet13,trumpet11,80.0,60.0,0.0,348.185,0.685,,,,,
323,,confirmation,,html-keyboard-response,323,206130,0.0-1.0-62.0-0.0-1.0-0.0,0,0,49028,,,,,,60.0,,,,,,,,,,,,,,,,,,,,,,,,,,,,,,,,349.0,0.815,,,,,
324,,isi,,html-keyboard-response,324,206234,0.0-1.0-62.0-0.0-2.0,0,0,49028,,,,,,,,,,,,,,,,,,,,,,,,,,,,,,,,,,,,,,350.0,1.0,,1.22,,,
325,,final_tally,,html-keyboard-response,325,333561,0.0-2.0-0.0,0,0,49028,,127324.0,,,68.0,,,,,,,,,,,,,,,,,,,,,,,,,,,,,,,,,,,,,,,
326,,category_memory_instructions,,instructions,326,336679,0.0-3.0-0.0,0,0,49028,"[{""page_index"":0,""viewing_time"":1879},{""page_index"":1,""viewing_time"":685},{""page_index"":2,""viewing_time"":526}]",3091.0,,,,,,,,,,,,,,,,,,,,,,,,,,,,,,,,,,,,,,,,,,
327,,category_memory,,survey-text,327,338740,0.0-3.0-1.0-0.0,0,0,49028,,2058.0,"{""Q0"":""2""}",,,0.0,,,,,,,,,,,,,,,,,,,,,,,,,,,,,,,,,,,,lipstick,40.0,2.0
328,,category_memory,,survey-text,328,339824,0.0-3.0-2.0-0.0,0,0,49028,,1079.0,"{""Q0"":""2""}",,,1.0,,,,,,,,,,,,,,,,,,,,,,,,,,,,,,,,,,,,watch,80.0,2.0
329,,category_memory,,survey-text,329,340841,0.0-3.0-3.0-0.0,0,0,49028,,1012.0,"{""Q0"":""2""}",,,2.0,,,,,,,,,,,,,,,,,,,,,,,,,,,,,,,,,,,,small table,60.0,2.0
330,,category_memory,,survey-text,330,341835,0.0-3.0-4.0-0.0,0,0,49028,,990.0,"{""Q0"":""1""}",,,3.0,,,,,,,,,,,,,,,,,,,,,,,,,,,,,,,,,,,,makeup compact,40.0,1.0
331,,category_memory,,survey-text,331,342797,0.0-3.0-5.0-0.0,0,0,49028,,958.0,"{""Q0"":""1""}",,,4.0,,,,,,,,,,,,,,,,,,,,,,,,,,,,,,,,,,,,tent,80.0,1.0
332,,category_memory,,survey-text,332,343734,0.0-3.0-6.0-0.0,0,0,49028,,933.0,"{""Q0"":""1""}",,,5.0,,,,,,,,,,,,,,,,,,,,,,,,,,,,,,,,,,,,desk,20.0,1.0
333,,category_memory,,survey-text,333,344697,0.0-3.0-7.0-0.0,0,0,49028,,959.0,"{""Q0"":""1""}",,,6.0,,,,,,,,,,,,,,,,,,,,,,,,,,,,,,,,,,,,microscope,40.0,1.0
334,,category_memory,,survey-text,334,346272,0.0-3.0-8.0-0.0,0,0,49028,,1571.0,"{""Q0"":""1""}",,,7.0,,,,,,,,,,,,,,,,,,,,,,,,,,,,,,,,,,,,power strip,60.0,1.0
335,,category_memory,,survey-text,335,347265,0.0-3.0-9.0-0.0,0,0,49028,,990.0,"{""Q0"":""2""}",,,8.0,,,,,,,,,,,,,,,,,,,,,,,,,,,,,,,,,,,,train,80.0,2.0
336,,category_memory,,survey-text,336,348283,0.0-3.0-10.0-0.0,0,0,49028,,1015.0,"{""Q0"":""33""}",,,9.0,,,,,,,,,,,,,,,,,,,,,,,,,,,,,,,,,,,,bench,20.0,33.0
337,,category_memory,,survey-text,337,349290,0.0-3.0-11.0-0.0,0,0,49028,,1003.0,"{""Q0"":""33""}",,,10.0,,,,,,,,,,,,,,,,,,,,,,,,,,,,,,,,,,,,bowl,20.0,33.0
338,,category_memory,,survey-text,338,350356,0.0-3.0-12.0-0.0,0,0,49028,,1062.0,"{""Q0"":""33""}",,,11.0,,,,,,,,,,,,,,,,,,,,,,,,,,,,,,,,,,,,bongo,20.0,33.0
339,,category_memory,,survey-text,339,351462,0.0-3.0-13.0-0.0,0,0,49028,,1103.0,"{""Q0"":""33""}",,,12.0,,,,,,,,,,,,,,,,,,,,,,,,,,,,,,,,,,,,motorcycle,40.0,33.0
340,,category_memory,,survey-text,340,352559,0.0-3.0-14.0-0.0,0,0,49028,,1094.0,"{""Q0"":""33""}",,,13.0,,,,,,,,,,,,,,,,,,,,,,,,,,,,,,,,,,,,necklace,60.0,33.0
341,,category_memory,,survey-text,341,353737,0.0-3.0-15.0-0.0,0,0,49028,,1176.0,"{""Q0"":""33""}",,,14.0,,,,,,,,,,,,,,,,,,,,,,,,,,,,,,,,,,,,patio lounge chair,60.0,33.0
342,,category_memory,,survey-text,342,354801,0.0-3.0-16.0-0.0,0,0,49028,,1061.0,"{""Q0"":""33""}",,,15.0,,,,,,,,,,,,,,,,,,,,,,,,,,,,,,,,,,,,hat,40.0,33.0
343,,category_memory,,survey-text,343,356047,0.0-3.0-17.0-0.0,0,0,49028,,1243.0,"{""Q0"":""33""}",,,16.0,,,,,,,,,,,,,,,,,,,,,,,,,,,,,,,,,,,,yarn,80.0,33.0
344,,category_memory,,survey-text,344,357294,0.0-3.0-18.0-0.0,0,0,49028,,1244.0,"{""Q0"":""33""}",,,17.0,,,,,,,,,,,,,,,,,,,,,,,,,,,,,,,,,,,,flashlight,20.0,33.0
345,,category_memory,,survey-text,345,358631,0.0-3.0-19.0-0.0,0,0,49028,,1334.0,"{""Q0"":""2""}",,,18.0,,,,,,,,,,,,,,,,,,,,,,,,,,,,,,,,,,,,nail polish,60.0,2.0
346,,category_memory,,survey-text,346,359718,0.0-3.0-20.0-0.0,0,0,49028,,1084.0,"{""Q0"":""22""}",,,19.0,,,,,,,,,,,,,,,,,,,,,,,,,,,,,,,,,,,,door knob,20.0,22.0
347,,category_memory,,survey-text,347,360862,0.0-3.0-21.0-0.0,0,0,49028,,1140.0,"{""Q0"":""22""}",,,20.0,,,,,,,,,,,,,,,,,,,,,,,,,,,,,,,,,,,,pen,60.0,22.0
348,,category_memory,,survey-text,348,362089,0.0-3.0-22.0-0.0,0,0,49028,,1222.0,"{""Q0"":""22""}",,,21.0,,,,,,,,,,,,,,,,,,,,,,,,,,,,,,,,,,,,frame,40.0,22.0
349,,category_memory,,survey-text,349,363252,0.0-3.0-23.0-0.0,0,0,49028,,1160.0,"{""Q0"":""22""}",,,22.0,,,,,,,,,,,,,,,,,,,,,,,,,,,,,,,,,,,,hammer,40.0,22.0
350,,category_memory,,survey-text,350,364830,0.0-3.0-24.0-0.0,0,0,49028,,1575.0,"{""Q0"":""44""}",,,23.0,,,,,,,,,,,,,,,,,,,,,,,,,,,,,,,,,,,,seashell,60.0,44.0
351,,category_memory,,survey-text,351,365916,0.0-3.0-25.0-0.0,0,0,49028,,1082.0,"{""Q0"":""44""}",,,24.0,,,,,,,,,,,,,,,,,,,,,,,,,,,,,,,,,,,,baby carriage,20.0,44.0
352,,category_memory,,survey-text,352,367027,0.0-3.0-26.0-0.0,0,0,49028,,1108.0,"{""Q0"":""44""}",,,25.0,,,,,,,,,,,,,,,,,,,,,,,,,,,,,,,,,,,,vase,80.0,44.0
353,,category_memory,,survey-text,353,368168,0.0-3.0-27.0-0.0,0,0,49028,,1138.0,"{""Q0"":""44""}",,,26.0,,,,,,,,,,,,,,,,,,,,,,,,,,,,,,,,,,,,sofa,60.0,44.0
354,,category_memory,,survey-text,354,369380,0.0-3.0-28.0-0.0,0,0,49028,,1208.0,"{""Q0"":""55""}",,,27.0,,,,,,,,,,,,,,,,,,,,,,,,,,,,,,,,,,,,key chain,40.0,55.0
355,,category_memory,,survey-text,355,370500,0.0-3.0-29.0-0.0,0,0,49028,,1117.0,"{""Q0"":""55""}",,,28.0,,,,,,,,,,,,,,,,,,,,,,,,,,,,,,,,,,,,trumpet,80.0,55.0
356,,category_memory,,survey-text,356,371611,0.0-3.0-30.0-0.0,0,0,49028,,1108.0,"{""Q0"":""55""}",,,29.0,,,,,,,,,,,,,,,,,,,,,,,,,,,,,,,,,,,,dresser,20.0,55.0
357,,category_memory,,survey-text,357,372678,0.0-3.0-31.0-0.0,0,0,49028,,1064.0,"{""Q0"":""55""}",,,30.0,,,,,,,,,,,,,,,,,,,,,,,,,,,,,,,,,,,,poker card,60.0,55.0
358,,category_memory,,survey-text,358,374296,0.0-3.0-32.0-0.0,0,0,49028,,1615.0,"{""Q0"":""55""}",,,31.0,,,,,,,,,,,,,,,,,,,,,,,,,,,,,,,,,,,,stool,80.0,55.0
359,,category_memory,,survey-text,359,375490,0.0-3.0-33.0-0.0,0,0,49028,,1189.0,"{""Q0"":""55""}",,,32.0,,,,,,,,,,,,,,,,,,,,,,,,,,,,,,,,,,,,telescope,80.0,55.0
360,,category_memory,,survey-text,360,376619,0.0-3.0-34.0-0.0,0,0,49028,,1125.0,"{""Q0"":""55""}",,,33.0,,,,,,,,,,,,,,,,,,,,,,,,,,,,,,,,,,,,fan,20.0,55.0
361,,category_memory,,survey-text,361,377796,0.0-3.0-35.0-0.0,0,0,49028,,1174.0,"{""Q0"":""55""}",,,34.0,,,,,,,,,,,,,,,,,,,,,,,,,,,,,,,,,,,,tape,80.0,55.0
362,,category_memory,,survey-text,362,379328,0.0-3.0-36.0-0.0,0,0,49028,,1529.0,"{""Q0"":""55""}",,,35.0,,,,,,,,,,,,,,,,,,,,,,,,,,,,,,,,,,,,license plate,40.0,55.0
