,success,ttype,start_time,trial_type,trial_index,time_elapsed,internal_node_id,warning,missed_checkup,PID,view_history,rt,responses,repeat_instructions,key_press,index,trial_num,isi,iti,is_practice,block,old_trial,pair_type,within_category,high_cat_on_left,left_category,right_category,left_category_value,right_category_value,left_exemplar,right_exemplar,left_exemplar_value,right_exemplar_value,left_img,right_img,left_img_path,right_img_path,no_response,onset,duration,left_chosen,chosen_category,unchosen_category,chosen_category_value,unchosen_category_value,chosen_exemplar,unchosen_exemplar,chosen_exemplar_value,unchosen_exemplar_value,end_practice,total_bonus_tally,category,category_group_value,category_value_response,did_not_enter_response
0,True,full_screen,d06072022hr1630,fullscreen,0,5168,0.0-0.0,0,0,54830,,,,,,,,,,,,,,,,,,,,,,,,,,,,,,,,,,,,,,,,,,,,,
1,,category_learning_instructions,,instructions,1,63069,0.0-1.0-0.0-0.0,0,0,54830,"[{""page_index"":0,""viewing_time"":20446},{""page_index"":1,""viewing_time"":10539},{""page_index"":2,""viewing_time"":171},{""page_index"":1,""viewing_time"":260},{""page_index"":2,""viewing_time"":211},{""page_index"":1,""viewing_time"":491},{""page_index"":2,""viewing_time"":264},{""page_index"":1,""viewing_time"":219},{""page_index"":2,""viewing_time"":224},{""page_index"":1,""viewing_time"":218},{""page_index"":2,""viewing_time"":120},{""page_index"":1,""viewing_time"":210},{""page_index"":2,""viewing_time"":133},{""page_index"":1,""viewing_time"":186},{""page_index"":2,""viewing_time"":218},{""page_index"":1,""viewing_time"":287},{""page_index"":2,""viewing_time"":9},{""page_index"":1,""viewing_time"":331},{""page_index"":0,""viewing_time"":162},{""page_index"":1,""viewing_time"":156},{""page_index"":0,""viewing_time"":233},{""page_index"":1,""viewing_time"":46},{""page_index"":0,""viewing_time"":2792},{""page_index"":1,""viewing_time"":2327},{""page_index"":2,""viewing_time"":1438},{""page_index"":3,""viewing_time"":3604},{""page_index"":4,""viewing_time"":8088},{""page_index"":5,""viewing_time"":2536},{""page_index"":6,""viewing_time"":1976}]",57896.0,,,,,,,,,,,,,,,,,,,,,,,,,,,,,,,,,,,,,,,,,,,
2,,category_learning_comprehension_check,,survey-multi-choice,2,74382,0.0-1.0-0.0-1.0,0,0,54830,,11301.0,"{""Q0"":""True"",""Q1"":""True"",""Q2"":""Stay the same"",""Q3"":""D for left and K for right""}",0.0,,,,,,,,,,,,,,,,,,,,,,,,,,,,,,,,,,,,,,,,,
3,,,,html-keyboard-response,3,78574,0.0-1.0-1.0,0,0,54830,,4181.0,,,68.0,,,,,,,,,,,,,,,,,,,,,,,,,,,,,,,,,,,,,,,,
4,,choice,,html-keyboard-response,4,80084,0.0-1.0-2.0-0.0-0.0,0,0,54830,,,,,,0.0,0.0,1500.0,1000.0,1.0,0.0,0.0,20-80,,0.0,bagel,dumbbell,20.0,80.0,bagel1,dumbbell1,0.0,80.0,bagels_pumpernickel_large.jpg,31B64EN68AL._AA280_.jpg,/static/Category_learning/Stimuli/Practice_stims/bagel/bagels_pumpernickel_large.jpg,/static/Category_learning/Stimuli/Practice_stims/dumbbell/31B64EN68AL._AA280_.jpg,1.0,1.5,1.5,,,,,,,,,,,,,,,
5,,isi,,html-keyboard-response,5,81593,0.0-1.0-2.0-0.0-2.0,0,0,54830,,,,,,0.0,,,,,0.0,,,,,,,,,,,,,,,,,,3.0,1.5,,,,,,,,,,,,,,,
6,,no_response,,html-keyboard-response,6,82601,0.0-1.0-2.0-0.0-4.0-0.0,0,0,54830,,,,,,0.0,,,,,0.0,,,,,,,,,,,,,,,,,,4.0,1.0,,,,,,,,,,,,,,,
7,,iti,,html-keyboard-response,7,83609,0.0-1.0-2.0-0.0-5.0,0,0,54830,,,,,,0.0,,,,,0.0,,,,,,,,,,,,,,,,,,5.0,1.0,,,,,,,,,,,,,,,
8,,choice,,html-keyboard-response,8,84561,0.0-1.0-2.0-0.1-0.1,0,0,54830,,945.0,,,68.0,0.0,0.0,1500.0,1000.0,1.0,0.0,0.0,20-80,,0.0,bagel,dumbbell,20.0,80.0,bagel1,dumbbell1,0.0,80.0,bagels_pumpernickel_large.jpg,31B64EN68AL._AA280_.jpg,/static/Category_learning/Stimuli/Practice_stims/bagel/bagels_pumpernickel_large.jpg,/static/Category_learning/Stimuli/Practice_stims/dumbbell/31B64EN68AL._AA280_.jpg,0.0,5.945,0.945,1.0,bagel,dumbbell,20.0,80.0,bagel1,dumbbell1,0.0,80.0,,,,,,
9,,confirmation,,html-keyboard-response,9,85123,0.0-1.0-2.0-0.1-1.1-0.1,0,0,54830,,,,,,0.0,,,,,0.0,,,,,,,,,,,,,,,,,,6.5,0.555,,,,,,,,,,,,,,,
10,,isi,,html-keyboard-response,10,86630,0.0-1.0-2.0-0.1-2.1,0,0,54830,,,,,,0.0,,,,,0.0,,,,,,,,,,,,,,,,,,8.0,1.5,,,,,,,,,,,,,,,
11,,feedback,,html-keyboard-response,11,87637,0.0-1.0-2.0-0.1-3.1-0.1,0,0,54830,,,,,,0.0,,,,,0.0,,,,,,,,,,,,,,,,,,9.0,1.0,,,,,,,,,,,,,,,
12,,iti,,html-keyboard-response,12,88643,0.0-1.0-2.0-0.1-5.1,0,0,54830,,,,,,0.0,,,,,0.0,,,,,,,,,,,,,,,,,,10.0,1.0,,,,,,,,,,,,,,,
13,,choice,,html-keyboard-response,13,89201,0.0-1.0-3.0-0.0-0.0,0,0,54830,,549.0,,,68.0,1.0,1.0,3000.0,1500.0,1.0,0.0,0.0,20-40,,1.0,calculator,bagel,40.0,20.0,calculator2,bagel2,20.0,20.0,22829064.thl.jpg,bagels_cinnraisin_large.jpg,/static/Category_learning/Stimuli/Practice_stims/calculator/22829064.thl.jpg,/static/Category_learning/Stimuli/Practice_stims/bagel/bagels_cinnraisin_large.jpg,0.0,10.549,0.549,1.0,calculator,bagel,40.0,20.0,calculator2,bagel2,20.0,20.0,,,,,,
14,,confirmation,,html-keyboard-response,14,90160,0.0-1.0-3.0-0.0-1.0-0.0,0,0,54830,,,,,,1.0,,,,,0.0,,,,,,,,,,,,,,,,,,11.5,0.951,,,,,,,,,,,,,,,
15,,isi,,html-keyboard-response,15,93167,0.0-1.0-3.0-0.0-2.0,0,0,54830,,,,,,1.0,,,,,0.0,,,,,,,,,,,,,,,,,,14.5,3.0,,,,,,,,,,,,,,,
16,,feedback,,html-keyboard-response,16,94175,0.0-1.0-3.0-0.0-3.0-0.0,0,0,54830,,,,,,1.0,,,,,0.0,,,,,,,,,,,,,,,,,,15.5,1.0,,,,,,,,,,,,,,,
17,,iti,,html-keyboard-response,17,95682,0.0-1.0-3.0-0.0-5.0,0,0,54830,,,,,,1.0,,,,,0.0,,,,,,,,,,,,,,,,,,17.0,1.5,,,,,,,,,,,,,,,
18,,choice,,html-keyboard-response,18,96234,0.0-1.0-4.0-0.0-0.0,0,0,54830,,544.0,,,68.0,2.0,2.0,2000.0,3000.0,1.0,0.0,0.0,60-80,,0.0,clock,dumbbell,60.0,80.0,clock2,dumbbell2,60.0,100.0,26373355.thl.jpg,31K8MR6TMBL._SS500_.jpg,/static/Category_learning/Stimuli/Practice_stims/clock/26373355.thl.jpg,/static/Category_learning/Stimuli/Practice_stims/dumbbell/31K8MR6TMBL._SS500_.jpg,0.0,17.544,0.544,1.0,clock,dumbbell,60.0,80.0,clock2,dumbbell2,60.0,100.0,,,,,,
19,,confirmation,,html-keyboard-response,19,97203,0.0-1.0-4.0-0.0-1.0-0.0,0,0,54830,,,,,,2.0,,,,,0.0,,,,,,,,,,,,,,,,,,18.5,0.956,,,,,,,,,,,,,,,
20,,isi,,html-keyboard-response,20,99212,0.0-1.0-4.0-0.0-2.0,0,0,54830,,,,,,2.0,,,,,0.0,,,,,,,,,,,,,,,,,,20.5,2.0,,,,,,,,,,,,,,,
21,,feedback,,html-keyboard-response,21,100221,0.0-1.0-4.0-0.0-3.0-0.0,0,0,54830,,,,,,2.0,,,,,0.0,,,,,,,,,,,,,,,,,,21.5,1.0,,,,,,,,,,,,,,,
22,,iti,,html-keyboard-response,22,103242,0.0-1.0-4.0-0.0-5.0,0,0,54830,,,,,,2.0,,,,,0.0,,,,,,,,,,,,,,,,,,24.5,3.0,,,,,,,,,,,,,,,
23,,choice,,html-keyboard-response,23,103843,0.0-1.0-5.0-0.0-0.0,0,0,54830,,594.0,,,68.0,3.0,3.0,1000.0,2000.0,1.0,0.0,0.0,40-80,,0.0,calculator,clock,40.0,60.0,calculator1,clock1,40.0,40.0,22829184.thl.jpg,Aalarmclock2.jpg,/static/Category_learning/Stimuli/Practice_stims/calculator/22829184.thl.jpg,/static/Category_learning/Stimuli/Practice_stims/clock/Aalarmclock2.jpg,0.0,25.094,0.594,1.0,calculator,clock,40.0,60.0,calculator1,clock1,40.0,40.0,,,,,,
24,,confirmation,,html-keyboard-response,24,104758,0.0-1.0-5.0-0.0-1.0-0.0,0,0,54830,,,,,,3.0,,,,,0.0,,,,,,,,,,,,,,,,,,26.0,0.906,,,,,,,,,,,,,,,
25,,isi,,html-keyboard-response,25,105766,0.0-1.0-5.0-0.0-2.0,0,0,54830,,,,,,3.0,,,,,0.0,,,,,,,,,,,,,,,,,,27.0,1.0,,,,,,,,,,,,,,,
26,,feedback,,html-keyboard-response,26,106773,0.0-1.0-5.0-0.0-3.0-0.0,0,0,54830,,,,,,3.0,,,,,0.0,,,,,,,,,,,,,,,,,,28.0,1.0,,,,,,,,,,,,,,,
27,,iti,,html-keyboard-response,27,108780,0.0-1.0-5.0-0.0-5.0,0,0,54830,,,,,,3.0,,,,,0.0,,,,,,,,,,,,,,,,,,30.0,2.0,,,,,,,,,,,,,,,
28,,choice,,html-keyboard-response,28,109871,0.0-1.0-6.0-0.0-0.0,0,0,54830,,1084.0,,,68.0,4.0,4.0,2500.0,2500.0,1.0,0.0,0.0,20-60,,1.0,dumbbell,bagel,80.0,20.0,dumbbell3,bagel3,100.0,40.0,41K7QVRX50L._SS500_.jpg,photo-169.jpg,/static/Category_learning/Stimuli/Practice_stims/dumbbell/41K7QVRX50L._SS500_.jpg,/static/Category_learning/Stimuli/Practice_stims/bagel/photo-169.jpg,0.0,31.084,1.084,1.0,dumbbell,bagel,80.0,20.0,dumbbell3,bagel3,100.0,40.0,1.0,,,,,
29,,confirmation,,html-keyboard-response,29,110298,0.0-1.0-6.0-0.0-1.0-0.0,0,0,54830,,,,,,4.0,,,,,0.0,,,,,,,,,,,,,,,,,,31.5,0.416,,,,,,,,,,,,,,,
30,,isi,,html-keyboard-response,30,112805,0.0-1.0-6.0-0.0-2.0,0,0,54830,,,,,,4.0,,,,,0.0,,,,,,,,,,,,,,,,,,34.0,2.5,,,,,,,,,,,,,,,
31,,feedback,,html-keyboard-response,31,113814,0.0-1.0-6.0-0.0-3.0-0.0,0,0,54830,,,,,,4.0,,,,,0.0,,,,,,,,,,,,,,,,,,35.0,1.0,,,,,,,,,,,,,,,
32,,iti,,html-keyboard-response,32,116330,0.0-1.0-6.0-0.0-5.0,0,0,54830,,,,,,4.0,,,,,0.0,,,,,,,,,,,,,,,,,,37.5,2.5,,,,,,,,,,,,,,,
33,,practice_over,,html-keyboard-response,33,121753,0.0-1.0-6.0-0.0-6.0-0.0,0,0,54830,,5418.0,,,68.0,4.0,,,,,,,,,,,,,,,,,,,,,,,,,,,,,,,,,,,,,,,
34,,start_run,,html-keyboard-response,34,123659,0.0-1.0-6.0-0.0-6.0-1.0,0,0,54830,,1900.0,,,84.0,,,,,,,,,,,,,,,,,,,,,,,,,,,,,,,,,,,,,,,,
35,,choice,,html-keyboard-response,35,125169,0.0-1.0-7.0-0.0-0.0,0,0,54830,,,,,,5.0,5.0,2000.0,3500.0,0.0,1.0,0.0,20-60,,0.0,necklace,bench,20.0,60.0,necklace15,bench3,40.0,40.0,necklascenew04.jpg,26419540.thl.jpg,/static/Category_learning/Stimuli/Experimental_stims/necklace/necklascenew04.jpg,/static/Category_learning/Stimuli/Experimental_stims/bench/26419540.thl.jpg,1.0,1.5,1.5,,,,,,,,,,,,,,,
36,,isi,,html-keyboard-response,36,127176,0.0-1.0-7.0-0.0-2.0,0,0,54830,,,,,,5.0,,,,,1.0,,,,,,,,,,,,,,,,,,3.5,2.0,,,,,,,,,,,,,,,
37,,no_response,,html-keyboard-response,37,128183,0.0-1.0-7.0-0.0-4.0-0.0,0,0,54830,,,,,,5.0,,,,,1.0,,,,,,,,,,,,,,,,,,4.5,1.0,,,,,,,,,,,,,,,
38,,iti,,html-keyboard-response,38,131757,0.0-1.0-7.0-0.0-5.0,0,0,54830,,,,,,5.0,,,,,1.0,,,,,,,,,,,,,,,,,,8.0,3.5,,,,,,,,,,,,,,,
39,,choice,,html-keyboard-response,39,132304,0.0-1.0-7.0-0.1-0.1,0,0,54830,,540.0,,,75.0,5.0,5.0,2000.0,3500.0,0.0,1.0,0.0,20-60,,0.0,necklace,bench,20.0,60.0,necklace15,bench3,40.0,40.0,necklascenew04.jpg,26419540.thl.jpg,/static/Category_learning/Stimuli/Experimental_stims/necklace/necklascenew04.jpg,/static/Category_learning/Stimuli/Experimental_stims/bench/26419540.thl.jpg,0.0,8.54,0.54,0.0,bench,necklace,60.0,20.0,bench3,necklace15,40.0,40.0,,,,,,
40,,confirmation,,html-keyboard-response,40,133274,0.0-1.0-7.0-0.1-1.1-0.1,0,0,54830,,,,,,5.0,,,,,1.0,,,,,,,,,,,,,,,,,,9.5,0.96,,,,,,,,,,,,,,,
41,,isi,,html-keyboard-response,41,135282,0.0-1.0-7.0-0.1-2.1,0,0,54830,,,,,,5.0,,,,,1.0,,,,,,,,,,,,,,,,,,11.5,2.0,,,,,,,,,,,,,,,
42,,feedback,,html-keyboard-response,42,136292,0.0-1.0-7.0-0.1-3.1-0.1,0,0,54830,,,,,,5.0,,,,,1.0,,,,,,,,,,,,,,,,,,12.5,1.0,,,,,,,,,,,,,,,
43,,iti,,html-keyboard-response,43,137798,0.0-1.0-7.0-0.1-5.1,0,0,54830,,,,,,5.0,,,,,1.0,,,,,,,,,,,,,,,,,,14.0,1.5,,,,,,,,,,,,,,,
44,,choice,,html-keyboard-response,44,138395,0.0-1.0-8.0-0.0-0.0,0,0,54830,,581.0,,,75.0,6.0,6.0,2000.0,1000.0,0.0,1.0,0.0,20-20,,,power strip,seashell,20.0,20.0,power strip8,seashell7,40.0,20.0,3118YGHQWXL._AA262_.jpg,seashell34.jpg,/static/Category_learning/Stimuli/Experimental_stims/power strip/3118YGHQWXL._AA262_.jpg,/static/Category_learning/Stimuli/Experimental_stims/seashell/seashell34.jpg,0.0,14.581,0.581,0.0,seashell,power strip,20.0,20.0,seashell7,power strip8,20.0,40.0,,,,,,
45,,confirmation,,html-keyboard-response,45,139322,0.0-1.0-8.0-0.0-1.0-0.0,0,0,54830,,,,,,6.0,,,,,1.0,,,,,,,,,,,,,,,,,,15.5,0.919,,,,,,,,,,,,,,,
46,,isi,,html-keyboard-response,46,141355,0.0-1.0-8.0-0.0-2.0,0,0,54830,,,,,,6.0,,,,,1.0,,,,,,,,,,,,,,,,,,17.5,2.0,,,,,,,,,,,,,,,
47,,feedback,,html-keyboard-response,47,142363,0.0-1.0-8.0-0.0-3.0-0.0,0,0,54830,,,,,,6.0,,,,,1.0,,,,,,,,,,,,,,,,,,18.5,1.0,,,,,,,,,,,,,,,
48,,iti,,html-keyboard-response,48,143371,0.0-1.0-8.0-0.0-5.0,0,0,54830,,,,,,6.0,,,,,1.0,,,,,,,,,,,,,,,,,,19.5,1.0,,,,,,,,,,,,,,,
49,,choice,,html-keyboard-response,49,143911,0.0-1.0-9.0-0.0-0.0,0,0,54830,,529.0,,,75.0,7.0,7.0,1500.0,2000.0,0.0,1.0,0.0,20-40,,1.0,telescope,poker card,40.0,20.0,telescope1,poker card9,20.0,40.0,celestron nexstar 114 gt reflector telescope.jpg,9817230.thl.jpg,/static/Category_learning/Stimuli/Experimental_stims/telescope/celestron nexstar 114 gt reflector telescope.jpg,/static/Category_learning/Stimuli/Experimental_stims/poker card/9817230.thl.jpg,0.0,20.029,0.529,0.0,poker card,telescope,20.0,40.0,poker card9,telescope1,40.0,20.0,,,,,,
50,,confirmation,,html-keyboard-response,50,144896,0.0-1.0-9.0-0.0-1.0-0.0,0,0,54830,,,,,,7.0,,,,,1.0,,,,,,,,,,,,,,,,,,21.0,0.971,,,,,,,,,,,,,,,
51,,isi,,html-keyboard-response,51,146406,0.0-1.0-9.0-0.0-2.0,0,0,54830,,,,,,7.0,,,,,1.0,,,,,,,,,,,,,,,,,,22.5,1.5,,,,,,,,,,,,,,,
52,,feedback,,html-keyboard-response,52,147415,0.0-1.0-9.0-0.0-3.0-0.0,0,0,54830,,,,,,7.0,,,,,1.0,,,,,,,,,,,,,,,,,,23.5,1.0,,,,,,,,,,,,,,,
53,,iti,,html-keyboard-response,53,149422,0.0-1.0-9.0-0.0-5.0,0,0,54830,,,,,,7.0,,,,,1.0,,,,,,,,,,,,,,,,,,25.5,2.0,,,,,,,,,,,,,,,
54,,choice,,html-keyboard-response,54,150255,0.0-1.0-10.0-0.0-0.0,0,0,54830,,827.0,,,75.0,8.0,8.0,3500.0,1000.0,0.0,1.0,0.0,60-60,,,door knob,dresser,60.0,60.0,door knob7,dresser4,40.0,80.0,doorknob2.jpg,ADRESSE40.jpg,/static/Category_learning/Stimuli/Experimental_stims/door knob/doorknob2.jpg,/static/Category_learning/Stimuli/Experimental_stims/dresser/ADRESSE40.jpg,0.0,26.327,0.827,0.0,dresser,door knob,60.0,60.0,dresser4,door knob7,80.0,40.0,,,,,,
55,,confirmation,,html-keyboard-response,55,150936,0.0-1.0-10.0-0.0-1.0-0.0,0,0,54830,,,,,,8.0,,,,,1.0,,,,,,,,,,,,,,,,,,27.0,0.673,,,,,,,,,,,,,,,
56,,isi,,html-keyboard-response,56,154443,0.0-1.0-10.0-0.0-2.0,0,0,54830,,,,,,8.0,,,,,1.0,,,,,,,,,,,,,,,,,,30.5,3.5,,,,,,,,,,,,,,,
57,,feedback,,html-keyboard-response,57,155459,0.0-1.0-10.0-0.0-3.0-0.0,0,0,54830,,,,,,8.0,,,,,1.0,,,,,,,,,,,,,,,,,,31.5,1.0,,,,,,,,,,,,,,,
58,,iti,,html-keyboard-response,58,156467,0.0-1.0-10.0-0.0-5.0,0,0,54830,,,,,,8.0,,,,,1.0,,,,,,,,,,,,,,,,,,32.5,1.0,,,,,,,,,,,,,,,
59,,choice,,html-keyboard-response,59,157785,0.0-1.0-11.0-0.0-0.0,0,0,54830,,1311.0,,,75.0,9.0,9.0,1000.0,1000.0,0.0,1.0,0.0,20-60,,0.0,poker card,desk,20.0,60.0,poker card8,desk13,20.0,80.0,22864392.thl.jpg,26427865.thl.jpg,/static/Category_learning/Stimuli/Experimental_stims/poker card/22864392.thl.jpg,/static/Category_learning/Stimuli/Experimental_stims/desk/26427865.thl.jpg,0.0,33.811,1.311,0.0,desk,poker card,60.0,20.0,desk13,poker card8,80.0,20.0,,,,,,
60,,confirmation,,html-keyboard-response,60,157983,0.0-1.0-11.0-0.0-1.0-0.0,0,0,54830,,,,,,9.0,,,,,1.0,,,,,,,,,,,,,,,,,,34.0,0.189,,,,,,,,,,,,,,,
61,,isi,,html-keyboard-response,61,158991,0.0-1.0-11.0-0.0-2.0,0,0,54830,,,,,,9.0,,,,,1.0,,,,,,,,,,,,,,,,,,35.0,1.0,,,,,,,,,,,,,,,
62,,feedback,,html-keyboard-response,62,160000,0.0-1.0-11.0-0.0-3.0-0.0,0,0,54830,,,,,,9.0,,,,,1.0,,,,,,,,,,,,,,,,,,36.0,1.0,,,,,,,,,,,,,,,
63,,iti,,html-keyboard-response,63,161006,0.0-1.0-11.0-0.0-5.0,0,0,54830,,,,,,9.0,,,,,1.0,,,,,,,,,,,,,,,,,,37.0,1.0,,,,,,,,,,,,,,,
64,,choice,,html-keyboard-response,64,161592,0.0-1.0-12.0-0.0-0.0,0,0,54830,,579.0,,,75.0,10.0,10.0,1000.0,1000.0,0.0,1.0,0.0,20-60,,1.0,bench,nail polish,60.0,20.0,bench8,nail polish6,80.0,0.0,APARKBE14.jpg,127_t.jpg,/static/Category_learning/Stimuli/Experimental_stims/bench/APARKBE14.jpg,/static/Category_learning/Stimuli/Experimental_stims/nail polish/127_t.jpg,0.0,37.579,0.579,0.0,nail polish,bench,20.0,60.0,nail polish6,bench8,0.0,80.0,,,,,,
65,,confirmation,,html-keyboard-response,65,162522,0.0-1.0-12.0-0.0-1.0-0.0,0,0,54830,,,,,,10.0,,,,,1.0,,,,,,,,,,,,,,,,,,38.5,0.921,,,,,,,,,,,,,,,
66,,isi,,html-keyboard-response,66,163530,0.0-1.0-12.0-0.0-2.0,0,0,54830,,,,,,10.0,,,,,1.0,,,,,,,,,,,,,,,,,,39.5,1.0,,,,,,,,,,,,,,,
67,,feedback,,html-keyboard-response,67,164542,0.0-1.0-12.0-0.0-3.0-0.0,0,0,54830,,,,,,10.0,,,,,1.0,,,,,,,,,,,,,,,,,,40.5,1.0,,,,,,,,,,,,,,,
68,,iti,,html-keyboard-response,68,165549,0.0-1.0-12.0-0.0-5.0,0,0,54830,,,,,,10.0,,,,,1.0,,,,,,,,,,,,,,,,,,41.5,1.0,,,,,,,,,,,,,,,
69,,choice,,html-keyboard-response,69,166059,0.0-1.0-13.0-0.0-0.0,0,0,54830,,501.0,,,75.0,11.0,11.0,1500.0,3000.0,0.0,1.0,0.0,20-80,,0.0,pen,microscope,20.0,80.0,pen11,microscope4,0.0,80.0,pen01.jpg,55071208.JPG,/static/Category_learning/Stimuli/Experimental_stims/pen/pen01.jpg,/static/Category_learning/Stimuli/Experimental_stims/microscope/55071208.JPG,0.0,42.001,0.501,0.0,microscope,pen,80.0,20.0,microscope4,pen11,80.0,0.0,,,,,,
70,,confirmation,,html-keyboard-response,70,167068,0.0-1.0-13.0-0.0-1.0-0.0,0,0,54830,,,,,,11.0,,,,,1.0,,,,,,,,,,,,,,,,,,43.0,0.999,,,,,,,,,,,,,,,
71,,isi,,html-keyboard-response,71,168573,0.0-1.0-13.0-0.0-2.0,0,0,54830,,,,,,11.0,,,,,1.0,,,,,,,,,,,,,,,,,,44.5,1.5,,,,,,,,,,,,,,,
72,,feedback,,html-keyboard-response,72,169580,0.0-1.0-13.0-0.0-3.0-0.0,0,0,54830,,,,,,11.0,,,,,1.0,,,,,,,,,,,,,,,,,,45.5,1.0,,,,,,,,,,,,,,,
73,,iti,,html-keyboard-response,73,172590,0.0-1.0-13.0-0.0-5.0,0,0,54830,,,,,,11.0,,,,,1.0,,,,,,,,,,,,,,,,,,48.5,3.0,,,,,,,,,,,,,,,
74,,choice,,html-keyboard-response,74,173079,0.0-1.0-14.0-0.0-0.0,0,0,54830,,481.0,,,68.0,12.0,12.0,1500.0,2000.0,0.0,1.0,0.0,20-60,,0.0,necklace,bowl,20.0,60.0,necklace1,bowl14,0.0,60.0,26443173.thl.jpg,Aredglassbowl.jpg,/static/Category_learning/Stimuli/Experimental_stims/necklace/26443173.thl.jpg,/static/Category_learning/Stimuli/Experimental_stims/bowl/Aredglassbowl.jpg,0.0,48.981,0.481,1.0,necklace,bowl,20.0,60.0,necklace1,bowl14,0.0,60.0,,,,,,
75,,confirmation,,html-keyboard-response,75,174107,0.0-1.0-14.0-0.0-1.0-0.0,0,0,54830,,,,,,12.0,,,,,1.0,,,,,,,,,,,,,,,,,,50.0,1.019,,,,,,,,,,,,,,,
76,,isi,,html-keyboard-response,76,175615,0.0-1.0-14.0-0.0-2.0,0,0,54830,,,,,,12.0,,,,,1.0,,,,,,,,,,,,,,,,,,51.5,1.5,,,,,,,,,,,,,,,
77,,feedback,,html-keyboard-response,77,176620,0.0-1.0-14.0-0.0-3.0-0.0,0,0,54830,,,,,,12.0,,,,,1.0,,,,,,,,,,,,,,,,,,52.5,1.0,,,,,,,,,,,,,,,
78,,iti,,html-keyboard-response,78,178627,0.0-1.0-14.0-0.0-5.0,0,0,54830,,,,,,12.0,,,,,1.0,,,,,,,,,,,,,,,,,,54.5,2.0,,,,,,,,,,,,,,,
79,,choice,,html-keyboard-response,79,179116,0.0-1.0-15.0-0.0-0.0,0,0,54830,,480.0,,,68.0,13.0,13.0,3500.0,3500.0,0.0,1.0,1.0,20-20,0.0,,poker card,nail polish,20.0,20.0,poker card9,nail polish6,40.0,0.0,9817230.thl.jpg,127_t.jpg,/static/Category_learning/Stimuli/Experimental_stims/poker card/9817230.thl.jpg,/static/Category_learning/Stimuli/Experimental_stims/nail polish/127_t.jpg,0.0,54.98,0.48,1.0,poker card,nail polish,20.0,20.0,poker card9,nail polish6,40.0,0.0,,,,,,
80,,confirmation,,html-keyboard-response,80,180148,0.0-1.0-15.0-0.0-1.0-0.0,0,0,54830,,,,,,13.0,,,,,1.0,,,,,,,,,,,,,,,,,,56.0,1.02,,,,,,,,,,,,,,,
81,,isi,,html-keyboard-response,81,183653,0.0-1.0-15.0-0.0-2.0,0,0,54830,,,,,,13.0,,,,,1.0,,,,,,,,,,,,,,,,,,59.5,3.5,,,,,,,,,,,,,,,
82,,feedback,,html-keyboard-response,82,184660,0.0-1.0-15.0-0.0-3.0-0.0,0,0,54830,,,,,,13.0,,,,,1.0,,,,,,,,,,,,,,,,,,60.5,1.0,,,,,,,,,,,,,,,
83,,iti,,html-keyboard-response,83,188166,0.0-1.0-15.0-0.0-5.0,0,0,54830,,,,,,13.0,,,,,1.0,,,,,,,,,,,,,,,,,,64.0,3.5,,,,,,,,,,,,,,,
84,,choice,,html-keyboard-response,84,189511,0.0-1.0-16.0-0.0-0.0,0,0,54830,,1337.0,,,68.0,14.0,14.0,1000.0,1000.0,0.0,1.0,0.0,60-80,,1.0,microscope,bench,80.0,60.0,microscope12,bench12,60.0,80.0,usbdigitalmicroscope1_small1.jpg,22927976.thl.jpg,/static/Category_learning/Stimuli/Experimental_stims/microscope/usbdigitalmicroscope1_small1.jpg,/static/Category_learning/Stimuli/Experimental_stims/bench/22927976.thl.jpg,0.0,65.337,1.337,1.0,microscope,bench,80.0,60.0,microscope12,bench12,60.0,80.0,,,,,,
85,,confirmation,,html-keyboard-response,85,189680,0.0-1.0-16.0-0.0-1.0-0.0,0,0,54830,,,,,,14.0,,,,,1.0,,,,,,,,,,,,,,,,,,65.5,0.163,,,,,,,,,,,,,,,
86,,isi,,html-keyboard-response,86,190688,0.0-1.0-16.0-0.0-2.0,0,0,54830,,,,,,14.0,,,,,1.0,,,,,,,,,,,,,,,,,,66.5,1.0,,,,,,,,,,,,,,,
87,,feedback,,html-keyboard-response,87,191694,0.0-1.0-16.0-0.0-3.0-0.0,0,0,54830,,,,,,14.0,,,,,1.0,,,,,,,,,,,,,,,,,,67.5,1.0,,,,,,,,,,,,,,,
88,,iti,,html-keyboard-response,88,192701,0.0-1.0-16.0-0.0-5.0,0,0,54830,,,,,,14.0,,,,,1.0,,,,,,,,,,,,,,,,,,68.5,1.0,,,,,,,,,,,,,,,
89,,choice,,html-keyboard-response,89,193164,0.0-1.0-17.0-0.0-0.0,0,0,54830,,450.0,,,68.0,15.0,15.0,1000.0,1000.0,0.0,1.0,1.0,80-80,1.0,,microscope,microscope,80.0,80.0,microscope4,microscope12,80.0,60.0,55071208.JPG,usbdigitalmicroscope1_small1.jpg,/static/Category_learning/Stimuli/Experimental_stims/microscope/55071208.JPG,/static/Category_learning/Stimuli/Experimental_stims/microscope/usbdigitalmicroscope1_small1.jpg,0.0,68.95,0.45,1.0,microscope,microscope,80.0,80.0,microscope4,microscope12,80.0,60.0,,,,,,
90,,confirmation,,html-keyboard-response,90,194223,0.0-1.0-17.0-0.0-1.0-0.0,0,0,54830,,,,,,15.0,,,,,1.0,,,,,,,,,,,,,,,,,,70.0,1.05,,,,,,,,,,,,,,,
91,,isi,,html-keyboard-response,91,195231,0.0-1.0-17.0-0.0-2.0,0,0,54830,,,,,,15.0,,,,,1.0,,,,,,,,,,,,,,,,,,71.0,1.0,,,,,,,,,,,,,,,
92,,feedback,,html-keyboard-response,92,196236,0.0-1.0-17.0-0.0-3.0-0.0,0,0,54830,,,,,,15.0,,,,,1.0,,,,,,,,,,,,,,,,,,72.0,1.0,,,,,,,,,,,,,,,
93,,iti,,html-keyboard-response,93,197243,0.0-1.0-17.0-0.0-5.0,0,0,54830,,,,,,15.0,,,,,1.0,,,,,,,,,,,,,,,,,,73.0,1.0,,,,,,,,,,,,,,,
94,,choice,,html-keyboard-response,94,197820,0.0-1.0-18.0-0.0-0.0,0,0,54830,,571.0,,,68.0,16.0,16.0,1000.0,1000.0,0.0,1.0,0.0,20-40,,0.0,poker card,yarn,20.0,40.0,poker card3,yarn4,0.0,40.0,9817131.thl.jpg,amethyst dreaming boho hy sml.jpg,/static/Category_learning/Stimuli/Experimental_stims/poker card/9817131.thl.jpg,/static/Category_learning/Stimuli/Experimental_stims/yarn/amethyst dreaming boho hy sml.jpg,0.0,73.571,0.571,1.0,poker card,yarn,20.0,40.0,poker card3,yarn4,0.0,40.0,,,,,,
95,,confirmation,,html-keyboard-response,95,198758,0.0-1.0-18.0-0.0-1.0-0.0,0,0,54830,,,,,,16.0,,,,,1.0,,,,,,,,,,,,,,,,,,74.5,0.929,,,,,,,,,,,,,,,
96,,isi,,html-keyboard-response,96,199765,0.0-1.0-18.0-0.0-2.0,0,0,54830,,,,,,16.0,,,,,1.0,,,,,,,,,,,,,,,,,,75.5,1.0,,,,,,,,,,,,,,,
97,,feedback,,html-keyboard-response,97,200774,0.0-1.0-18.0-0.0-3.0-0.0,0,0,54830,,,,,,16.0,,,,,1.0,,,,,,,,,,,,,,,,,,76.5,1.0,,,,,,,,,,,,,,,
98,,iti,,html-keyboard-response,98,201781,0.0-1.0-18.0-0.0-5.0,0,0,54830,,,,,,16.0,,,,,1.0,,,,,,,,,,,,,,,,,,77.5,1.0,,,,,,,,,,,,,,,
99,,choice,,html-keyboard-response,99,202479,0.0-1.0-19.0-0.0-0.0,0,0,54830,,692.0,,,75.0,17.0,17.0,3500.0,1000.0,0.0,1.0,0.0,40-80,,0.0,trumpet,microscope,40.0,80.0,trumpet11,microscope8,20.0,80.0,JUPITER+JTR604L.jpg,AMICROS21.jpg,/static/Category_learning/Stimuli/Experimental_stims/trumpet/JUPITER+JTR604L.jpg,/static/Category_learning/Stimuli/Experimental_stims/microscope/AMICROS21.jpg,0.0,78.192,0.692,0.0,microscope,trumpet,80.0,40.0,microscope8,trumpet11,80.0,20.0,,,,,,
100,,confirmation,,html-keyboard-response,100,203296,0.0-1.0-19.0-0.0-1.0-0.0,0,0,54830,,,,,,17.0,,,,,1.0,,,,,,,,,,,,,,,,,,79.0,0.808,,,,,,,,,,,,,,,
101,,isi,,html-keyboard-response,101,206843,0.0-1.0-19.0-0.0-2.0,0,0,54830,,,,,,17.0,,,,,1.0,,,,,,,,,,,,,,,,,,82.5,3.5,,,,,,,,,,,,,,,
102,,feedback,,html-keyboard-response,102,207862,0.0-1.0-19.0-0.0-3.0-0.0,0,0,54830,,,,,,17.0,,,,,1.0,,,,,,,,,,,,,,,,,,83.5,1.0,,,,,,,,,,,,,,,
103,,iti,,html-keyboard-response,103,208871,0.0-1.0-19.0-0.0-5.0,0,0,54830,,,,,,17.0,,,,,1.0,,,,,,,,,,,,,,,,,,84.5,1.0,,,,,,,,,,,,,,,
104,,choice,,html-keyboard-response,104,209454,0.0-1.0-20.0-0.0-0.0,0,0,54830,,577.0,,,68.0,18.0,18.0,1500.0,1000.0,0.0,1.0,0.0,60-80,,0.0,baby carriage,hammer,60.0,80.0,baby carriage5,hammer8,80.0,80.0,Baby_Stroller.jpg,ct1006_hammer.jpg,/static/Category_learning/Stimuli/Experimental_stims/baby carriage/Baby_Stroller.jpg,/static/Category_learning/Stimuli/Experimental_stims/hammer/ct1006_hammer.jpg,0.0,85.077,0.577,1.0,baby carriage,hammer,60.0,80.0,baby carriage5,hammer8,80.0,80.0,,,,,,
105,,confirmation,,html-keyboard-response,105,210387,0.0-1.0-20.0-0.0-1.0-0.0,0,0,54830,,,,,,18.0,,,,,1.0,,,,,,,,,,,,,,,,,,86.0,0.923,,,,,,,,,,,,,,,
106,,isi,,html-keyboard-response,106,211897,0.0-1.0-20.0-0.0-2.0,0,0,54830,,,,,,18.0,,,,,1.0,,,,,,,,,,,,,,,,,,87.5,1.5,,,,,,,,,,,,,,,
107,,feedback,,html-keyboard-response,107,212906,0.0-1.0-20.0-0.0-3.0-0.0,0,0,54830,,,,,,18.0,,,,,1.0,,,,,,,,,,,,,,,,,,88.5,1.0,,,,,,,,,,,,,,,
108,,iti,,html-keyboard-response,108,213912,0.0-1.0-20.0-0.0-5.0,0,0,54830,,,,,,18.0,,,,,1.0,,,,,,,,,,,,,,,,,,89.5,1.0,,,,,,,,,,,,,,,
109,,choice,,html-keyboard-response,109,214427,0.0-1.0-21.0-0.0-0.0,0,0,54830,,508.0,,,68.0,19.0,19.0,1500.0,3500.0,0.0,1.0,0.0,60-60,,,fan,flashlight,60.0,60.0,fan6,flashlight1,60.0,40.0,30090.fpx.jpg,Graphite3D.jpg,/static/Category_learning/Stimuli/Experimental_stims/fan/30090.fpx.jpg,/static/Category_learning/Stimuli/Experimental_stims/flashlight/Graphite3D.jpg,0.0,90.008,0.508,1.0,fan,flashlight,60.0,60.0,fan6,flashlight1,60.0,40.0,,,,,,
110,,confirmation,,html-keyboard-response,110,215428,0.0-1.0-21.0-0.0-1.0-0.0,0,0,54830,,,,,,19.0,,,,,1.0,,,,,,,,,,,,,,,,,,91.0,0.992,,,,,,,,,,,,,,,
111,,isi,,html-keyboard-response,111,216935,0.0-1.0-21.0-0.0-2.0,0,0,54830,,,,,,19.0,,,,,1.0,,,,,,,,,,,,,,,,,,92.5,1.5,,,,,,,,,,,,,,,
112,,feedback,,html-keyboard-response,112,217943,0.0-1.0-21.0-0.0-3.0-0.0,0,0,54830,,,,,,19.0,,,,,1.0,,,,,,,,,,,,,,,,,,93.5,1.0,,,,,,,,,,,,,,,
113,,iti,,html-keyboard-response,113,221450,0.0-1.0-21.0-0.0-5.0,0,0,54830,,,,,,19.0,,,,,1.0,,,,,,,,,,,,,,,,,,97.0,3.5,,,,,,,,,,,,,,,
114,,choice,,html-keyboard-response,114,222065,0.0-1.0-22.0-0.0-0.0,0,0,54830,,607.0,,,68.0,20.0,20.0,1000.0,1000.0,0.0,1.0,0.0,20-80,,1.0,frame,patio lounge chair,80.0,20.0,frame11,patio lounge chair9,100.0,20.0,AFRAME139.jpg,43-3.jpg,/static/Category_learning/Stimuli/Experimental_stims/frame/AFRAME139.jpg,/static/Category_learning/Stimuli/Experimental_stims/patio lounge chair/43-3.jpg,0.0,97.607,0.607,1.0,frame,patio lounge chair,80.0,20.0,frame11,patio lounge chair9,100.0,20.0,,,,,,
115,,confirmation,,html-keyboard-response,115,222967,0.0-1.0-22.0-0.0-1.0-0.0,0,0,54830,,,,,,20.0,,,,,1.0,,,,,,,,,,,,,,,,,,98.5,0.893,,,,,,,,,,,,,,,
116,,isi,,html-keyboard-response,116,223975,0.0-1.0-22.0-0.0-2.0,0,0,54830,,,,,,20.0,,,,,1.0,,,,,,,,,,,,,,,,,,99.5,1.0,,,,,,,,,,,,,,,
117,,feedback,,html-keyboard-response,117,225069,0.0-1.0-22.0-0.0-3.0-0.0,0,0,54830,,,,,,20.0,,,,,1.0,,,,,,,,,,,,,,,,,,100.5,1.0,,,,,,,,,,,,,,,
118,,iti,,html-keyboard-response,118,226075,0.0-1.0-22.0-0.0-5.0,0,0,54830,,,,,,20.0,,,,,1.0,,,,,,,,,,,,,,,,,,101.5,1.0,,,,,,,,,,,,,,,
119,,choice,,html-keyboard-response,119,226550,0.0-1.0-23.0-0.0-0.0,0,0,54830,,470.0,,,75.0,21.0,21.0,2000.0,1000.0,0.0,1.0,0.0,40-80,,0.0,telescope,license plate,40.0,80.0,telescope11,license plate14,40.0,100.0,digimarc.ms03.jpg,fl-hel-bel.jpg,/static/Category_learning/Stimuli/Experimental_stims/telescope/digimarc.ms03.jpg,/static/Category_learning/Stimuli/Experimental_stims/license plate/fl-hel-bel.jpg,0.0,101.97,0.47,0.0,license plate,telescope,80.0,40.0,license plate14,telescope11,100.0,40.0,,,,,,
120,,confirmation,,html-keyboard-response,120,227588,0.0-1.0-23.0-0.0-1.0-0.0,0,0,54830,,,,,,21.0,,,,,1.0,,,,,,,,,,,,,,,,,,103.0,1.03,,,,,,,,,,,,,,,
121,,isi,,html-keyboard-response,121,229597,0.0-1.0-23.0-0.0-2.0,0,0,54830,,,,,,21.0,,,,,1.0,,,,,,,,,,,,,,,,,,105.0,2.0,,,,,,,,,,,,,,,
122,,feedback,,html-keyboard-response,122,230603,0.0-1.0-23.0-0.0-3.0-0.0,0,0,54830,,,,,,21.0,,,,,1.0,,,,,,,,,,,,,,,,,,106.0,1.0,,,,,,,,,,,,,,,
123,,iti,,html-keyboard-response,123,231609,0.0-1.0-23.0-0.0-5.0,0,0,54830,,,,,,21.0,,,,,1.0,,,,,,,,,,,,,,,,,,107.0,1.0,,,,,,,,,,,,,,,
124,,choice,,html-keyboard-response,124,233114,0.0-1.0-24.0-0.0-0.0,0,0,54830,,,,,,22.0,22.0,1000.0,1500.0,0.0,1.0,1.0,20-80,0.0,,poker card,frame,20.0,80.0,poker card3,frame11,0.0,100.0,9817131.thl.jpg,AFRAME139.jpg,/static/Category_learning/Stimuli/Experimental_stims/poker card/9817131.thl.jpg,/static/Category_learning/Stimuli/Experimental_stims/frame/AFRAME139.jpg,1.0,108.5,1.5,,,,,,,,,,,,,,,
125,,isi,,html-keyboard-response,125,234123,0.0-1.0-24.0-0.0-2.0,0,0,54830,,,,,,22.0,,,,,1.0,,,,,,,,,,,,,,,,,,109.5,1.0,,,,,,,,,,,,,,,
126,,no_response,,html-keyboard-response,126,235129,0.0-1.0-24.0-0.0-4.0-0.0,0,0,54830,,,,,,22.0,,,,,1.0,,,,,,,,,,,,,,,,,,110.5,1.0,,,,,,,,,,,,,,,
127,,iti,,html-keyboard-response,127,236673,0.0-1.0-24.0-0.0-5.0,0,0,54830,,,,,,22.0,,,,,1.0,,,,,,,,,,,,,,,,,,112.0,1.5,,,,,,,,,,,,,,,
128,,choice,,html-keyboard-response,128,238181,0.0-1.0-24.0-0.1-0.1,0,0,54830,,,,,,22.0,22.0,1000.0,1500.0,0.0,1.0,1.0,20-80,0.0,,poker card,frame,20.0,80.0,poker card3,frame11,0.0,100.0,9817131.thl.jpg,AFRAME139.jpg,/static/Category_learning/Stimuli/Experimental_stims/poker card/9817131.thl.jpg,/static/Category_learning/Stimuli/Experimental_stims/frame/AFRAME139.jpg,1.0,113.5,1.5,,,,,,,,,,,,,,,
129,,isi,,html-keyboard-response,129,239189,0.0-1.0-24.0-0.1-2.1,0,0,54830,,,,,,22.0,,,,,1.0,,,,,,,,,,,,,,,,,,114.5,1.0,,,,,,,,,,,,,,,
130,,no_response,,html-keyboard-response,130,240196,0.0-1.0-24.0-0.1-4.1-0.1,0,0,54830,,,,,,22.0,,,,,1.0,,,,,,,,,,,,,,,,,,115.5,1.0,,,,,,,,,,,,,,,
131,,iti,,html-keyboard-response,131,242276,0.0-1.0-24.0-0.1-5.1,0,0,54830,,,,,,22.0,,,,,1.0,,,,,,,,,,,,,,,,,,117.5,2.0,,,,,,,,,,,,,,,
132,,choice,,html-keyboard-response,132,243787,0.0-1.0-24.0-0.2-0.2,0,0,54830,,,,,,22.0,22.0,1000.0,1500.0,0.0,1.0,1.0,20-80,0.0,,poker card,frame,20.0,80.0,poker card3,frame11,0.0,100.0,9817131.thl.jpg,AFRAME139.jpg,/static/Category_learning/Stimuli/Experimental_stims/poker card/9817131.thl.jpg,/static/Category_learning/Stimuli/Experimental_stims/frame/AFRAME139.jpg,1.0,119.0,1.5,,,,,,,,,,,,,,,
133,,isi,,html-keyboard-response,133,244796,0.0-1.0-24.0-0.2-2.2,0,0,54830,,,,,,22.0,,,,,1.0,,,,,,,,,,,,,,,,,,120.0,1.0,,,,,,,,,,,,,,,
134,,no_response,,html-keyboard-response,134,245811,0.0-1.0-24.0-0.2-4.2-0.2,0,0,54830,,,,,,22.0,,,,,1.0,,,,,,,,,,,,,,,,,,121.0,1.0,,,,,,,,,,,,,,,
135,,iti,,html-keyboard-response,135,247380,0.0-1.0-24.0-0.2-5.2,0,0,54830,,,,,,22.0,,,,,1.0,,,,,,,,,,,,,,,,,,122.5,1.5,,,,,,,,,,,,,,,
136,,choice,,html-keyboard-response,136,248889,0.0-1.0-24.0-0.3-0.3,0,0,54830,,,,,,22.0,22.0,1000.0,1500.0,0.0,1.0,1.0,20-80,0.0,,poker card,frame,20.0,80.0,poker card3,frame11,0.0,100.0,9817131.thl.jpg,AFRAME139.jpg,/static/Category_learning/Stimuli/Experimental_stims/poker card/9817131.thl.jpg,/static/Category_learning/Stimuli/Experimental_stims/frame/AFRAME139.jpg,1.0,124.0,1.5,,,,,,,,,,,,,,,
137,,isi,,html-keyboard-response,137,252396,0.0-1.0-24.0-0.3-2.3,0,0,54830,,,,,,22.0,,,,,1.0,,,,,,,,,,,,,,,,,,127.5,3.5,,,,,,,,,,,,,,,
138,,no_response,,html-keyboard-response,138,253416,0.0-1.0-24.0-0.3-4.3-0.3,0,0,54830,,,,,,22.0,,,,,1.0,,,,,,,,,,,,,,,,,,128.5,1.0,,,,,,,,,,,,,,,
139,,iti,,html-keyboard-response,139,255476,0.0-1.0-24.0-0.3-5.3,0,0,54830,,,,,,22.0,,,,,1.0,,,,,,,,,,,,,,,,,,130.5,2.0,,,,,,,,,,,,,,,
140,,choice,,html-keyboard-response,140,256984,0.0-1.0-24.0-0.4-0.4,0,0,54830,,,,,,22.0,22.0,1000.0,1500.0,0.0,1.0,1.0,20-80,0.0,,poker card,frame,20.0,80.0,poker card3,frame11,0.0,100.0,9817131.thl.jpg,AFRAME139.jpg,/static/Category_learning/Stimuli/Experimental_stims/poker card/9817131.thl.jpg,/static/Category_learning/Stimuli/Experimental_stims/frame/AFRAME139.jpg,1.0,132.0,1.5,,,,,,,,,,,,,,,
141,,isi,,html-keyboard-response,141,257993,0.0-1.0-24.0-0.4-2.4,0,0,54830,,,,,,22.0,,,,,1.0,,,,,,,,,,,,,,,,,,133.0,1.0,,,,,,,,,,,,,,,
142,,no_response,,html-keyboard-response,142,259003,0.0-1.0-24.0-0.4-4.4-0.4,0,0,54830,,,,,,22.0,,,,,1.0,,,,,,,,,,,,,,,,,,134.0,1.0,,,,,,,,,,,,,,,
143,,iti,,html-keyboard-response,143,260565,0.0-1.0-24.0-0.4-5.4,0,0,54830,,,,,,22.0,,,,,1.0,,,,,,,,,,,,,,,,,,135.5,1.5,,,,,,,,,,,,,,,
144,,choice,,html-keyboard-response,144,262074,0.0-1.0-24.0-0.5-0.5,0,0,54830,,,,,,22.0,22.0,1000.0,1500.0,0.0,1.0,1.0,20-80,0.0,,poker card,frame,20.0,80.0,poker card3,frame11,0.0,100.0,9817131.thl.jpg,AFRAME139.jpg,/static/Category_learning/Stimuli/Experimental_stims/poker card/9817131.thl.jpg,/static/Category_learning/Stimuli/Experimental_stims/frame/AFRAME139.jpg,1.0,137.0,1.5,,,,,,,,,,,,,,,
145,,isi,,html-keyboard-response,145,263583,0.0-1.0-24.0-0.5-2.5,0,0,54830,,,,,,22.0,,,,,1.0,,,,,,,,,,,,,,,,,,138.5,1.5,,,,,,,,,,,,,,,
146,,no_response,,html-keyboard-response,146,264599,0.0-1.0-24.0-0.5-4.5-0.5,0,0,54830,,,,,,22.0,,,,,1.0,,,,,,,,,,,,,,,,,,139.5,1.0,,,,,,,,,,,,,,,
147,,iti,,html-keyboard-response,147,265639,0.0-1.0-24.0-0.5-5.5,0,0,54830,,,,,,22.0,,,,,1.0,,,,,,,,,,,,,,,,,,140.5,1.0,,,,,,,,,,,,,,,
148,,choice,,html-keyboard-response,148,267147,0.0-1.0-24.0-0.6-0.6,0,0,54830,,,,,,22.0,22.0,1000.0,1500.0,0.0,1.0,1.0,20-80,0.0,,poker card,frame,20.0,80.0,poker card3,frame11,0.0,100.0,9817131.thl.jpg,AFRAME139.jpg,/static/Category_learning/Stimuli/Experimental_stims/poker card/9817131.thl.jpg,/static/Category_learning/Stimuli/Experimental_stims/frame/AFRAME139.jpg,1.0,142.0,1.5,,,,,,,,,,,,,,,
149,,isi,,html-keyboard-response,149,270157,0.0-1.0-24.0-0.6-2.6,0,0,54830,,,,,,22.0,,,,,1.0,,,,,,,,,,,,,,,,,,145.0,3.0,,,,,,,,,,,,,,,
150,,no_response,,html-keyboard-response,150,271182,0.0-1.0-24.0-0.6-4.6-0.6,0,0,54830,,,,,,22.0,,,,,1.0,,,,,,,,,,,,,,,,,,146.0,1.0,,,,,,,,,,,,,,,
151,,iti,,html-keyboard-response,151,272250,0.0-1.0-24.0-0.6-5.6,0,0,54830,,,,,,22.0,,,,,1.0,,,,,,,,,,,,,,,,,,147.0,1.0,,,,,,,,,,,,,,,
152,,choice,,html-keyboard-response,152,273761,0.0-1.0-24.0-0.7-0.7,0,0,54830,,,,,,22.0,22.0,1000.0,1500.0,0.0,1.0,1.0,20-80,0.0,,poker card,frame,20.0,80.0,poker card3,frame11,0.0,100.0,9817131.thl.jpg,AFRAME139.jpg,/static/Category_learning/Stimuli/Experimental_stims/poker card/9817131.thl.jpg,/static/Category_learning/Stimuli/Experimental_stims/frame/AFRAME139.jpg,1.0,148.5,1.5,,,,,,,,,,,,,,,
153,,isi,,html-keyboard-response,153,275296,0.0-1.0-24.0-0.7-2.7,0,0,54830,,,,,,22.0,,,,,1.0,,,,,,,,,,,,,,,,,,150.0,1.5,,,,,,,,,,,,,,,
154,,no_response,,html-keyboard-response,154,276304,0.0-1.0-24.0-0.7-4.7-0.7,0,0,54830,,,,,,22.0,,,,,1.0,,,,,,,,,,,,,,,,,,151.0,1.0,,,,,,,,,,,,,,,
155,,iti,,html-keyboard-response,155,277944,0.0-1.0-24.0-0.7-5.7,0,0,54830,,,,,,22.0,,,,,1.0,,,,,,,,,,,,,,,,,,152.5,1.5,,,,,,,,,,,,,,,
156,,choice,,html-keyboard-response,156,279452,0.0-1.0-24.0-0.8-0.8,0,0,54830,,,,,,22.0,22.0,1000.0,1500.0,0.0,1.0,1.0,20-80,0.0,,poker card,frame,20.0,80.0,poker card3,frame11,0.0,100.0,9817131.thl.jpg,AFRAME139.jpg,/static/Category_learning/Stimuli/Experimental_stims/poker card/9817131.thl.jpg,/static/Category_learning/Stimuli/Experimental_stims/frame/AFRAME139.jpg,1.0,154.0,1.5,,,,,,,,,,,,,,,
157,,isi,,html-keyboard-response,157,280459,0.0-1.0-24.0-0.8-2.8,0,0,54830,,,,,,22.0,,,,,1.0,,,,,,,,,,,,,,,,,,155.0,1.0,,,,,,,,,,,,,,,
158,,no_response,,html-keyboard-response,158,281480,0.0-1.0-24.0-0.8-4.8-0.8,0,0,54830,,,,,,22.0,,,,,1.0,,,,,,,,,,,,,,,,,,156.0,1.0,,,,,,,,,,,,,,,
159,,iti,,html-keyboard-response,159,282550,0.0-1.0-24.0-0.8-5.8,0,0,54830,,,,,,22.0,,,,,1.0,,,,,,,,,,,,,,,,,,157.0,1.0,,,,,,,,,,,,,,,
160,,choice,,html-keyboard-response,160,284060,0.0-1.0-24.0-0.9-0.9,0,0,54830,,,,,,22.0,22.0,1000.0,1500.0,0.0,1.0,1.0,20-80,0.0,,poker card,frame,20.0,80.0,poker card3,frame11,0.0,100.0,9817131.thl.jpg,AFRAME139.jpg,/static/Category_learning/Stimuli/Experimental_stims/poker card/9817131.thl.jpg,/static/Category_learning/Stimuli/Experimental_stims/frame/AFRAME139.jpg,1.0,158.5,1.5,,,,,,,,,,,,,,,
161,,isi,,html-keyboard-response,161,287084,0.0-1.0-24.0-0.9-2.9,0,0,54830,,,,,,22.0,,,,,1.0,,,,,,,,,,,,,,,,,,161.5,3.0,,,,,,,,,,,,,,,
162,,no_response,,html-keyboard-response,162,288093,0.0-1.0-24.0-0.9-4.9-0.9,0,0,54830,,,,,,22.0,,,,,1.0,,,,,,,,,,,,,,,,,,162.5,1.0,,,,,,,,,,,,,,,
163,,iti,,html-keyboard-response,163,289658,0.0-1.0-24.0-0.9-5.9,0,0,54830,,,,,,22.0,,,,,1.0,,,,,,,,,,,,,,,,,,164.0,1.5,,,,,,,,,,,,,,,
164,,choice,,html-keyboard-response,164,289925,0.0-1.0-24.0-0.10-0.10,0,0,54830,,257.0,,,68.0,22.0,22.0,1000.0,1500.0,0.0,1.0,1.0,20-80,0.0,,poker card,frame,20.0,80.0,poker card3,frame11,0.0,100.0,9817131.thl.jpg,AFRAME139.jpg,/static/Category_learning/Stimuli/Experimental_stims/poker card/9817131.thl.jpg,/static/Category_learning/Stimuli/Experimental_stims/frame/AFRAME139.jpg,0.0,164.257,0.257,1.0,poker card,frame,20.0,80.0,poker card3,frame11,0.0,100.0,,,,,,
165,,confirmation,,html-keyboard-response,165,291179,0.0-1.0-24.0-0.10-1.10-0.10,0,0,54830,,,,,,22.0,,,,,1.0,,,,,,,,,,,,,,,,,,165.5,1.243,,,,,,,,,,,,,,,
166,,isi,,html-keyboard-response,166,293192,0.0-1.0-24.0-0.10-2.10,0,0,54830,,,,,,22.0,,,,,1.0,,,,,,,,,,,,,,,,,,167.5,2.0,,,,,,,,,,,,,,,
167,,feedback,,html-keyboard-response,167,294198,0.0-1.0-24.0-0.10-3.10-0.10,0,0,54830,,,,,,22.0,,,,,1.0,,,,,,,,,,,,,,,,,,168.5,1.0,,,,,,,,,,,,,,,
168,,iti,,html-keyboard-response,168,295707,0.0-1.0-24.0-0.10-5.10,0,0,54830,,,,,,22.0,,,,,1.0,,,,,,,,,,,,,,,,,,170.0,1.5,,,,,,,,,,,,,,,
169,,choice,,html-keyboard-response,169,297148,0.0-1.0-25.0-0.0-0.0,0,0,54830,,1426.0,,,68.0,23.0,23.0,1000.0,1500.0,0.0,1.0,0.0,40-80,,1.0,license plate,train,80.0,40.0,license plate9,train6,60.0,20.0,nm-dhg089.jpg,train9.jpg,/static/Category_learning/Stimuli/Experimental_stims/license plate/nm-dhg089.jpg,/static/Category_learning/Stimuli/Experimental_stims/train/train9.jpg,0.0,171.426,1.426,1.0,license plate,train,80.0,40.0,license plate9,train6,60.0,20.0,,,,,,
170,,confirmation,,html-keyboard-response,170,297232,0.0-1.0-25.0-0.0-1.0-0.0,0,0,54830,,,,,,23.0,,,,,1.0,,,,,,,,,,,,,,,,,,171.5,0.074,,,,,,,,,,,,,,,
171,,isi,,html-keyboard-response,171,298240,0.0-1.0-25.0-0.0-2.0,0,0,54830,,,,,,23.0,,,,,1.0,,,,,,,,,,,,,,,,,,172.5,1.0,,,,,,,,,,,,,,,
172,,feedback,,html-keyboard-response,172,299247,0.0-1.0-25.0-0.0-3.0-0.0,0,0,54830,,,,,,23.0,,,,,1.0,,,,,,,,,,,,,,,,,,173.5,1.0,,,,,,,,,,,,,,,
173,,iti,,html-keyboard-response,173,300757,0.0-1.0-25.0-0.0-5.0,0,0,54830,,,,,,23.0,,,,,1.0,,,,,,,,,,,,,,,,,,175.0,1.5,,,,,,,,,,,,,,,
174,,choice,,html-keyboard-response,174,301329,0.0-1.0-26.0-0.0-0.0,0,0,54830,,563.0,,,68.0,24.0,24.0,2000.0,1500.0,0.0,1.0,1.0,80-80,1.0,,license plate,license plate,80.0,80.0,license plate9,license plate14,60.0,100.0,nm-dhg089.jpg,fl-hel-bel.jpg,/static/Category_learning/Stimuli/Experimental_stims/license plate/nm-dhg089.jpg,/static/Category_learning/Stimuli/Experimental_stims/license plate/fl-hel-bel.jpg,0.0,175.563,0.563,1.0,license plate,license plate,80.0,80.0,license plate9,license plate14,60.0,100.0,,,,,,
175,,confirmation,,html-keyboard-response,175,302274,0.0-1.0-26.0-0.0-1.0-0.0,0,0,54830,,,,,,24.0,,,,,1.0,,,,,,,,,,,,,,,,,,176.5,0.937,,,,,,,,,,,,,,,
176,,isi,,html-keyboard-response,176,304304,0.0-1.0-26.0-0.0-2.0,0,0,54830,,,,,,24.0,,,,,1.0,,,,,,,,,,,,,,,,,,178.5,2.0,,,,,,,,,,,,,,,
177,,feedback,,html-keyboard-response,177,305310,0.0-1.0-26.0-0.0-3.0-0.0,0,0,54830,,,,,,24.0,,,,,1.0,,,,,,,,,,,,,,,,,,179.5,1.0,,,,,,,,,,,,,,,
178,,iti,,html-keyboard-response,178,306817,0.0-1.0-26.0-0.0-5.0,0,0,54830,,,,,,24.0,,,,,1.0,,,,,,,,,,,,,,,,,,181.0,1.5,,,,,,,,,,,,,,,
179,,choice,,html-keyboard-response,179,307388,0.0-1.0-27.0-0.0-0.0,0,0,54830,,564.0,,,68.0,25.0,25.0,1500.0,2000.0,0.0,1.0,0.0,40-60,,0.0,trumpet,flashlight,40.0,60.0,trumpet4,flashlight2,20.0,60.0,JUPITER+JTR1000S.jpg,AV-9 No Battery Flashlight.jpg,/static/Category_learning/Stimuli/Experimental_stims/trumpet/JUPITER+JTR1000S.jpg,/static/Category_learning/Stimuli/Experimental_stims/flashlight/AV-9 No Battery Flashlight.jpg,0.0,181.564,0.564,1.0,trumpet,flashlight,40.0,60.0,trumpet4,flashlight2,20.0,60.0,,,,,,
180,,confirmation,,html-keyboard-response,180,308332,0.0-1.0-27.0-0.0-1.0-0.0,0,0,54830,,,,,,25.0,,,,,1.0,,,,,,,,,,,,,,,,,,182.5,0.936,,,,,,,,,,,,,,,
181,,isi,,html-keyboard-response,181,309840,0.0-1.0-27.0-0.0-2.0,0,0,54830,,,,,,25.0,,,,,1.0,,,,,,,,,,,,,,,,,,184.0,1.5,,,,,,,,,,,,,,,
182,,feedback,,html-keyboard-response,182,310861,0.0-1.0-27.0-0.0-3.0-0.0,0,0,54830,,,,,,25.0,,,,,1.0,,,,,,,,,,,,,,,,,,185.0,1.0,,,,,,,,,,,,,,,
183,,iti,,html-keyboard-response,183,312868,0.0-1.0-27.0-0.0-5.0,0,0,54830,,,,,,25.0,,,,,1.0,,,,,,,,,,,,,,,,,,187.0,2.0,,,,,,,,,,,,,,,
184,,choice,,html-keyboard-response,184,313685,0.0-1.0-28.0-0.0-0.0,0,0,54830,,809.0,,,75.0,26.0,26.0,1500.0,3000.0,0.0,1.0,0.0,40-60,,0.0,stool,bowl,40.0,60.0,stool9,bowl8,40.0,40.0,ASTOOL7.jpg,ASLVBOWL.jpg,/static/Category_learning/Stimuli/Experimental_stims/stool/ASTOOL7.jpg,/static/Category_learning/Stimuli/Experimental_stims/bowl/ASLVBOWL.jpg,0.0,187.809,0.809,0.0,bowl,stool,60.0,40.0,bowl8,stool9,40.0,40.0,,,,,,
185,,confirmation,,html-keyboard-response,185,314384,0.0-1.0-28.0-0.0-1.0-0.0,0,0,54830,,,,,,26.0,,,,,1.0,,,,,,,,,,,,,,,,,,188.5,0.691,,,,,,,,,,,,,,,
186,,isi,,html-keyboard-response,186,315891,0.0-1.0-28.0-0.0-2.0,0,0,54830,,,,,,26.0,,,,,1.0,,,,,,,,,,,,,,,,,,190.0,1.5,,,,,,,,,,,,,,,
187,,feedback,,html-keyboard-response,187,316898,0.0-1.0-28.0-0.0-3.0-0.0,0,0,54830,,,,,,26.0,,,,,1.0,,,,,,,,,,,,,,,,,,191.0,1.0,,,,,,,,,,,,,,,
188,,iti,,html-keyboard-response,188,319905,0.0-1.0-28.0-0.0-5.0,0,0,54830,,,,,,26.0,,,,,1.0,,,,,,,,,,,,,,,,,,194.0,3.0,,,,,,,,,,,,,,,
189,,choice,,html-keyboard-response,189,320464,0.0-1.0-29.0-0.0-0.0,0,0,54830,,545.0,,,75.0,27.0,27.0,1000.0,1000.0,0.0,1.0,0.0,80-80,,,key chain,lipstick,80.0,80.0,key chain8,lipstick5,100.0,80.0,Keychain01.jpg,P35719_hero.jpg,/static/Category_learning/Stimuli/Experimental_stims/key chain/Keychain01.jpg,/static/Category_learning/Stimuli/Experimental_stims/lipstick/P35719_hero.jpg,0.0,194.545,0.545,0.0,lipstick,key chain,80.0,80.0,lipstick5,key chain8,80.0,100.0,,,,,,
190,,confirmation,,html-keyboard-response,190,321428,0.0-1.0-29.0-0.0-1.0-0.0,0,0,54830,,,,,,27.0,,,,,1.0,,,,,,,,,,,,,,,,,,195.5,0.955,,,,,,,,,,,,,,,
191,,isi,,html-keyboard-response,191,322435,0.0-1.0-29.0-0.0-2.0,0,0,54830,,,,,,27.0,,,,,1.0,,,,,,,,,,,,,,,,,,196.5,1.0,,,,,,,,,,,,,,,
192,,feedback,,html-keyboard-response,192,323443,0.0-1.0-29.0-0.0-3.0-0.0,0,0,54830,,,,,,27.0,,,,,1.0,,,,,,,,,,,,,,,,,,197.5,1.0,,,,,,,,,,,,,,,
193,,iti,,html-keyboard-response,193,324451,0.0-1.0-29.0-0.0-5.0,0,0,54830,,,,,,27.0,,,,,1.0,,,,,,,,,,,,,,,,,,198.5,1.0,,,,,,,,,,,,,,,
194,,choice,,html-keyboard-response,194,325463,0.0-1.0-30.0-0.0-0.0,0,0,54830,,1002.0,,,68.0,28.0,28.0,3500.0,1500.0,0.0,1.0,0.0,60-60,,,bench,desk,60.0,60.0,bench7,desk5,40.0,80.0,ACONBENCH.jpg,ADESK6.jpg,/static/Category_learning/Stimuli/Experimental_stims/bench/ACONBENCH.jpg,/static/Category_learning/Stimuli/Experimental_stims/desk/ADESK6.jpg,0.0,199.502,1.002,1.0,bench,desk,60.0,60.0,bench7,desk5,40.0,80.0,,,,,,
195,,confirmation,,html-keyboard-response,195,325969,0.0-1.0-30.0-0.0-1.0-0.0,0,0,54830,,,,,,28.0,,,,,1.0,,,,,,,,,,,,,,,,,,200.0,0.498,,,,,,,,,,,,,,,
196,,isi,,html-keyboard-response,196,329475,0.0-1.0-30.0-0.0-2.0,0,0,54830,,,,,,28.0,,,,,1.0,,,,,,,,,,,,,,,,,,203.5,3.5,,,,,,,,,,,,,,,
197,,feedback,,html-keyboard-response,197,330484,0.0-1.0-30.0-0.0-3.0-0.0,0,0,54830,,,,,,28.0,,,,,1.0,,,,,,,,,,,,,,,,,,204.5,1.0,,,,,,,,,,,,,,,
198,,iti,,html-keyboard-response,198,331991,0.0-1.0-30.0-0.0-5.0,0,0,54830,,,,,,28.0,,,,,1.0,,,,,,,,,,,,,,,,,,206.0,1.5,,,,,,,,,,,,,,,
199,,choice,,html-keyboard-response,199,332858,0.0-1.0-31.0-0.0-0.0,0,0,54830,,859.0,,,68.0,29.0,29.0,2000.0,1000.0,0.0,1.0,1.0,60-60,1.0,,bench,bench,60.0,60.0,bench3,bench7,40.0,40.0,26419540.thl.jpg,ACONBENCH.jpg,/static/Category_learning/Stimuli/Experimental_stims/bench/26419540.thl.jpg,/static/Category_learning/Stimuli/Experimental_stims/bench/ACONBENCH.jpg,0.0,206.859,0.859,1.0,bench,bench,60.0,60.0,bench3,bench7,40.0,40.0,,,,,,
200,,confirmation,,html-keyboard-response,200,333508,0.0-1.0-31.0-0.0-1.0-0.0,0,0,54830,,,,,,29.0,,,,,1.0,,,,,,,,,,,,,,,,,,207.5,0.641,,,,,,,,,,,,,,,
201,,isi,,html-keyboard-response,201,335515,0.0-1.0-31.0-0.0-2.0,0,0,54830,,,,,,29.0,,,,,1.0,,,,,,,,,,,,,,,,,,209.5,2.0,,,,,,,,,,,,,,,
202,,feedback,,html-keyboard-response,202,336524,0.0-1.0-31.0-0.0-3.0-0.0,0,0,54830,,,,,,29.0,,,,,1.0,,,,,,,,,,,,,,,,,,210.5,1.0,,,,,,,,,,,,,,,
203,,iti,,html-keyboard-response,203,337535,0.0-1.0-31.0-0.0-5.0,0,0,54830,,,,,,29.0,,,,,1.0,,,,,,,,,,,,,,,,,,211.5,1.0,,,,,,,,,,,,,,,
204,,choice,,html-keyboard-response,204,338331,0.0-1.0-32.0-0.0-0.0,0,0,54830,,790.0,,,68.0,30.0,30.0,2000.0,3500.0,0.0,1.0,0.0,40-60,,0.0,stool,dresser,40.0,60.0,stool10,dresser12,60.0,60.0,ASTOOL26.jpg,ADRESSE58.jpg,/static/Category_learning/Stimuli/Experimental_stims/stool/ASTOOL26.jpg,/static/Category_learning/Stimuli/Experimental_stims/dresser/ADRESSE58.jpg,0.0,212.29,0.79,1.0,stool,dresser,40.0,60.0,stool10,dresser12,60.0,60.0,,,,,,
205,,confirmation,,html-keyboard-response,205,339051,0.0-1.0-32.0-0.0-1.0-0.0,0,0,54830,,,,,,30.0,,,,,1.0,,,,,,,,,,,,,,,,,,213.0,0.71,,,,,,,,,,,,,,,
206,,isi,,html-keyboard-response,206,341136,0.0-1.0-32.0-0.0-2.0,0,0,54830,,,,,,30.0,,,,,1.0,,,,,,,,,,,,,,,,,,215.0,2.0,,,,,,,,,,,,,,,
207,,feedback,,html-keyboard-response,207,342143,0.0-1.0-32.0-0.0-3.0-0.0,0,0,54830,,,,,,30.0,,,,,1.0,,,,,,,,,,,,,,,,,,216.0,1.0,,,,,,,,,,,,,,,
208,,iti,,html-keyboard-response,208,345651,0.0-1.0-32.0-0.0-5.0,0,0,54830,,,,,,30.0,,,,,1.0,,,,,,,,,,,,,,,,,,219.5,3.5,,,,,,,,,,,,,,,
209,,choice,,html-keyboard-response,209,346060,0.0-1.0-33.0-0.0-0.0,0,0,54830,,401.0,,,68.0,31.0,31.0,2000.0,2000.0,0.0,1.0,1.0,20-60,0.0,,necklace,bowl,20.0,60.0,necklace1,bowl8,0.0,40.0,26443173.thl.jpg,ASLVBOWL.jpg,/static/Category_learning/Stimuli/Experimental_stims/necklace/26443173.thl.jpg,/static/Category_learning/Stimuli/Experimental_stims/bowl/ASLVBOWL.jpg,0.0,219.901,0.401,1.0,necklace,bowl,20.0,60.0,necklace1,bowl8,0.0,40.0,,,,,,
210,,confirmation,,html-keyboard-response,210,347167,0.0-1.0-33.0-0.0-1.0-0.0,0,0,54830,,,,,,31.0,,,,,1.0,,,,,,,,,,,,,,,,,,221.0,1.099,,,,,,,,,,,,,,,
211,,isi,,html-keyboard-response,211,349174,0.0-1.0-33.0-0.0-2.0,0,0,54830,,,,,,31.0,,,,,1.0,,,,,,,,,,,,,,,,,,223.0,2.0,,,,,,,,,,,,,,,
212,,feedback,,html-keyboard-response,212,350186,0.0-1.0-33.0-0.0-3.0-0.0,0,0,54830,,,,,,31.0,,,,,1.0,,,,,,,,,,,,,,,,,,224.0,1.0,,,,,,,,,,,,,,,
213,,iti,,html-keyboard-response,213,352192,0.0-1.0-33.0-0.0-5.0,0,0,54830,,,,,,31.0,,,,,1.0,,,,,,,,,,,,,,,,,,226.0,2.0,,,,,,,,,,,,,,,
214,,choice,,html-keyboard-response,214,352843,0.0-1.0-34.0-0.0-0.0,0,0,54830,,641.0,,,68.0,32.0,32.0,1500.0,2000.0,0.0,1.0,0.0,40-40,,,stool,tape,40.0,40.0,stool8,tape9,60.0,40.0,ASTOOL33.jpg,desk tape disp.jpg,/static/Category_learning/Stimuli/Experimental_stims/stool/ASTOOL33.jpg,/static/Category_learning/Stimuli/Experimental_stims/tape/desk tape disp.jpg,0.0,226.641,0.641,1.0,stool,tape,40.0,40.0,stool8,tape9,60.0,40.0,,,,,,
215,,confirmation,,html-keyboard-response,215,353712,0.0-1.0-34.0-0.0-1.0-0.0,0,0,54830,,,,,,32.0,,,,,1.0,,,,,,,,,,,,,,,,,,227.5,0.859,,,,,,,,,,,,,,,
216,,isi,,html-keyboard-response,216,355218,0.0-1.0-34.0-0.0-2.0,0,0,54830,,,,,,32.0,,,,,1.0,,,,,,,,,,,,,,,,,,229.0,1.5,,,,,,,,,,,,,,,
217,,feedback,,html-keyboard-response,217,356225,0.0-1.0-34.0-0.0-3.0-0.0,0,0,54830,,,,,,32.0,,,,,1.0,,,,,,,,,,,,,,,,,,230.0,1.0,,,,,,,,,,,,,,,
218,,iti,,html-keyboard-response,218,358232,0.0-1.0-34.0-0.0-5.0,0,0,54830,,,,,,32.0,,,,,1.0,,,,,,,,,,,,,,,,,,232.0,2.0,,,,,,,,,,,,,,,
219,,choice,,html-keyboard-response,219,358379,0.0-1.0-35.0-0.0-0.0,0,0,54830,,140.0,,,75.0,33.0,33.0,1000.0,3000.0,0.0,1.0,0.0,40-40,,,yarn,tent,40.0,40.0,yarn10,tent5,60.0,60.0,revelation-yarn.jpg,Dome Tentnb87r67.jpg,/static/Category_learning/Stimuli/Experimental_stims/yarn/revelation-yarn.jpg,/static/Category_learning/Stimuli/Experimental_stims/tent/Dome Tentnb87r67.jpg,0.0,232.14,0.14,0.0,tent,yarn,40.0,40.0,tent5,yarn10,60.0,60.0,,,,,,
220,,confirmation,,html-keyboard-response,220,359758,0.0-1.0-35.0-0.0-1.0-0.0,0,0,54830,,,,,,33.0,,,,,1.0,,,,,,,,,,,,,,,,,,233.5,1.36,,,,,,,,,,,,,,,
221,,isi,,html-keyboard-response,221,360765,0.0-1.0-35.0-0.0-2.0,0,0,54830,,,,,,33.0,,,,,1.0,,,,,,,,,,,,,,,,,,234.5,1.0,,,,,,,,,,,,,,,
222,,feedback,,html-keyboard-response,222,361773,0.0-1.0-35.0-0.0-3.0-0.0,0,0,54830,,,,,,33.0,,,,,1.0,,,,,,,,,,,,,,,,,,235.5,1.0,,,,,,,,,,,,,,,
223,,iti,,html-keyboard-response,223,364780,0.0-1.0-35.0-0.0-5.0,0,0,54830,,,,,,33.0,,,,,1.0,,,,,,,,,,,,,,,,,,238.5,3.0,,,,,,,,,,,,,,,
224,,choice,,html-keyboard-response,224,365445,0.0-1.0-36.0-0.0-0.0,0,0,54830,,658.0,,,68.0,34.0,34.0,1000.0,1500.0,0.0,1.0,0.0,20-20,,,pen,nail polish,20.0,20.0,pen2,nail polish3,20.0,40.0,Montblanc-Blu-Starwalker-BP copy.jpg,327636.jpg,/static/Category_learning/Stimuli/Experimental_stims/pen/Montblanc-Blu-Starwalker-BP copy.jpg,/static/Category_learning/Stimuli/Experimental_stims/nail polish/327636.jpg,0.0,239.158,0.658,1.0,pen,nail polish,20.0,20.0,pen2,nail polish3,20.0,40.0,,,,,,
225,,confirmation,,html-keyboard-response,225,366297,0.0-1.0-36.0-0.0-1.0-0.0,0,0,54830,,,,,,34.0,,,,,1.0,,,,,,,,,,,,,,,,,,240.0,0.842,,,,,,,,,,,,,,,
226,,isi,,html-keyboard-response,226,367306,0.0-1.0-36.0-0.0-2.0,0,0,54830,,,,,,34.0,,,,,1.0,,,,,,,,,,,,,,,,,,241.0,1.0,,,,,,,,,,,,,,,
227,,feedback,,html-keyboard-response,227,368313,0.0-1.0-36.0-0.0-3.0-0.0,0,0,54830,,,,,,34.0,,,,,1.0,,,,,,,,,,,,,,,,,,242.0,1.0,,,,,,,,,,,,,,,
228,,iti,,html-keyboard-response,228,369821,0.0-1.0-36.0-0.0-5.0,0,0,54830,,,,,,34.0,,,,,1.0,,,,,,,,,,,,,,,,,,243.5,1.5,,,,,,,,,,,,,,,
229,,choice,,html-keyboard-response,229,370030,0.0-1.0-37.0-0.0-0.0,0,0,54830,,202.0,,,75.0,35.0,35.0,1500.0,1000.0,0.0,1.0,0.0,40-60,,0.0,stool,dresser,40.0,60.0,stool2,dresser14,20.0,60.0,ASTOOL46.jpg,Adressertabl3.jpg,/static/Category_learning/Stimuli/Experimental_stims/stool/ASTOOL46.jpg,/static/Category_learning/Stimuli/Experimental_stims/dresser/Adressertabl3.jpg,0.0,243.702,0.202,0.0,dresser,stool,60.0,40.0,dresser14,stool2,60.0,20.0,,,,,,
230,,confirmation,,html-keyboard-response,230,371336,0.0-1.0-37.0-0.0-1.0-0.0,0,0,54830,,,,,,35.0,,,,,1.0,,,,,,,,,,,,,,,,,,245.0,1.298,,,,,,,,,,,,,,,
231,,isi,,html-keyboard-response,231,372844,0.0-1.0-37.0-0.0-2.0,0,0,54830,,,,,,35.0,,,,,1.0,,,,,,,,,,,,,,,,,,246.5,1.5,,,,,,,,,,,,,,,
232,,feedback,,html-keyboard-response,232,373851,0.0-1.0-37.0-0.0-3.0-0.0,0,0,54830,,,,,,35.0,,,,,1.0,,,,,,,,,,,,,,,,,,247.5,1.0,,,,,,,,,,,,,,,
233,,iti,,html-keyboard-response,233,374859,0.0-1.0-37.0-0.0-5.0,0,0,54830,,,,,,35.0,,,,,1.0,,,,,,,,,,,,,,,,,,248.5,1.0,,,,,,,,,,,,,,,
234,,choice,,html-keyboard-response,234,375678,0.0-1.0-38.0-0.0-0.0,0,0,54830,,812.0,,,75.0,36.0,36.0,1500.0,1000.0,0.0,1.0,0.0,20-80,,0.0,necklace,motorcycle,20.0,80.0,necklace2,motorcycle2,20.0,100.0,Anecklace7.jpg,motorcycle33.jpg,/static/Category_learning/Stimuli/Experimental_stims/necklace/Anecklace7.jpg,/static/Category_learning/Stimuli/Experimental_stims/motorcycle/motorcycle33.jpg,0.0,249.312,0.812,0.0,motorcycle,necklace,80.0,20.0,motorcycle2,necklace2,100.0,20.0,,,,,,
235,,confirmation,,html-keyboard-response,235,376374,0.0-1.0-38.0-0.0-1.0-0.0,0,0,54830,,,,,,36.0,,,,,1.0,,,,,,,,,,,,,,,,,,250.0,0.688,,,,,,,,,,,,,,,
236,,isi,,html-keyboard-response,236,377882,0.0-1.0-38.0-0.0-2.0,0,0,54830,,,,,,36.0,,,,,1.0,,,,,,,,,,,,,,,,,,251.5,1.5,,,,,,,,,,,,,,,
237,,feedback,,html-keyboard-response,237,378891,0.0-1.0-38.0-0.0-3.0-0.0,0,0,54830,,,,,,36.0,,,,,1.0,,,,,,,,,,,,,,,,,,252.5,1.0,,,,,,,,,,,,,,,
238,,iti,,html-keyboard-response,238,379900,0.0-1.0-38.0-0.0-5.0,0,0,54830,,,,,,36.0,,,,,1.0,,,,,,,,,,,,,,,,,,253.5,1.0,,,,,,,,,,,,,,,
239,,choice,,html-keyboard-response,239,380612,0.0-1.0-39.0-0.0-0.0,0,0,54830,,701.0,,,68.0,37.0,37.0,1000.0,1000.0,0.0,1.0,1.0,40-40,1.0,,stool,stool,40.0,40.0,stool8,stool10,60.0,60.0,ASTOOL33.jpg,ASTOOL26.jpg,/static/Category_learning/Stimuli/Experimental_stims/stool/ASTOOL33.jpg,/static/Category_learning/Stimuli/Experimental_stims/stool/ASTOOL26.jpg,0.0,254.201,0.701,1.0,stool,stool,40.0,40.0,stool8,stool10,60.0,60.0,,,,,,
240,,confirmation,,html-keyboard-response,240,381420,0.0-1.0-39.0-0.0-1.0-0.0,0,0,54830,,,,,,37.0,,,,,1.0,,,,,,,,,,,,,,,,,,255.0,0.799,,,,,,,,,,,,,,,
241,,isi,,html-keyboard-response,241,382427,0.0-1.0-39.0-0.0-2.0,0,0,54830,,,,,,37.0,,,,,1.0,,,,,,,,,,,,,,,,,,256.0,1.0,,,,,,,,,,,,,,,
242,,feedback,,html-keyboard-response,242,383433,0.0-1.0-39.0-0.0-3.0-0.0,0,0,54830,,,,,,37.0,,,,,1.0,,,,,,,,,,,,,,,,,,257.0,1.0,,,,,,,,,,,,,,,
243,,iti,,html-keyboard-response,243,384440,0.0-1.0-39.0-0.0-5.0,0,0,54830,,,,,,37.0,,,,,1.0,,,,,,,,,,,,,,,,,,258.0,1.0,,,,,,,,,,,,,,,
244,,choice,,html-keyboard-response,244,385947,0.0-1.0-40.0-0.0-0.0,0,0,54830,,,,,,38.0,38.0,3000.0,1000.0,0.0,1.0,0.0,20-60,,0.0,sofa,bongo,20.0,60.0,sofa9,bongo12,20.0,40.0,ALOVSEAT9.jpg,26686609.thl.jpg,/static/Category_learning/Stimuli/Experimental_stims/sofa/ALOVSEAT9.jpg,/static/Category_learning/Stimuli/Experimental_stims/bongo/26686609.thl.jpg,1.0,259.5,1.5,,,,,,,,,,,,,,,
245,,isi,,html-keyboard-response,245,388956,0.0-1.0-40.0-0.0-2.0,0,0,54830,,,,,,38.0,,,,,1.0,,,,,,,,,,,,,,,,,,262.5,3.0,,,,,,,,,,,,,,,
246,,no_response,,html-keyboard-response,246,389965,0.0-1.0-40.0-0.0-4.0-0.0,0,0,54830,,,,,,38.0,,,,,1.0,,,,,,,,,,,,,,,,,,263.5,1.0,,,,,,,,,,,,,,,
247,,iti,,html-keyboard-response,247,391055,0.0-1.0-40.0-0.0-5.0,0,0,54830,,,,,,38.0,,,,,1.0,,,,,,,,,,,,,,,,,,264.5,1.0,,,,,,,,,,,,,,,
248,,choice,,html-keyboard-response,248,391590,0.0-1.0-40.0-0.1-0.1,0,0,54830,,514.0,,,68.0,38.0,38.0,3000.0,1000.0,0.0,1.0,0.0,20-60,,0.0,sofa,bongo,20.0,60.0,sofa9,bongo12,20.0,40.0,ALOVSEAT9.jpg,26686609.thl.jpg,/static/Category_learning/Stimuli/Experimental_stims/sofa/ALOVSEAT9.jpg,/static/Category_learning/Stimuli/Experimental_stims/bongo/26686609.thl.jpg,0.0,265.014,0.514,1.0,sofa,bongo,20.0,60.0,sofa9,bongo12,20.0,40.0,,,,,,
249,,confirmation,,html-keyboard-response,249,392584,0.0-1.0-40.0-0.1-1.1-0.1,0,0,54830,,,,,,38.0,,,,,1.0,,,,,,,,,,,,,,,,,,266.0,0.986,,,,,,,,,,,,,,,
250,,isi,,html-keyboard-response,250,393603,0.0-1.0-40.0-0.1-2.1,0,0,54830,,,,,,38.0,,,,,1.0,,,,,,,,,,,,,,,,,,267.0,1.0,,,,,,,,,,,,,,,
251,,feedback,,html-keyboard-response,251,394612,0.0-1.0-40.0-0.1-3.1-0.1,0,0,54830,,,,,,38.0,,,,,1.0,,,,,,,,,,,,,,,,,,268.0,1.0,,,,,,,,,,,,,,,
252,,iti,,html-keyboard-response,252,396119,0.0-1.0-40.0-0.1-5.1,0,0,54830,,,,,,38.0,,,,,1.0,,,,,,,,,,,,,,,,,,269.5,1.5,,,,,,,,,,,,,,,
253,,choice,,html-keyboard-response,253,396847,0.0-1.0-41.0-0.0-0.0,0,0,54830,,720.0,,,75.0,39.0,39.0,3000.0,3000.0,0.0,1.0,0.0,20-20,,,patio lounge chair,seashell,20.0,20.0,patio lounge chair14,seashell13,40.0,0.0,2987951.jpg,coquillage22.jpg,/static/Category_learning/Stimuli/Experimental_stims/patio lounge chair/2987951.jpg,/static/Category_learning/Stimuli/Experimental_stims/seashell/coquillage22.jpg,0.0,270.22,0.72,0.0,seashell,patio lounge chair,20.0,20.0,seashell13,patio lounge chair14,0.0,40.0,,,,,,
254,,confirmation,,html-keyboard-response,254,397638,0.0-1.0-41.0-0.0-1.0-0.0,0,0,54830,,,,,,39.0,,,,,1.0,,,,,,,,,,,,,,,,,,271.0,0.78,,,,,,,,,,,,,,,
255,,isi,,html-keyboard-response,255,400644,0.0-1.0-41.0-0.0-2.0,0,0,54830,,,,,,39.0,,,,,1.0,,,,,,,,,,,,,,,,,,274.0,3.0,,,,,,,,,,,,,,,
256,,feedback,,html-keyboard-response,256,401652,0.0-1.0-41.0-0.0-3.0-0.0,0,0,54830,,,,,,39.0,,,,,1.0,,,,,,,,,,,,,,,,,,275.0,1.0,,,,,,,,,,,,,,,
257,,iti,,html-keyboard-response,257,404665,0.0-1.0-41.0-0.0-5.0,0,0,54830,,,,,,39.0,,,,,1.0,,,,,,,,,,,,,,,,,,278.0,3.0,,,,,,,,,,,,,,,
258,,choice,,html-keyboard-response,258,405363,0.0-1.0-42.0-0.0-0.0,0,0,54830,,689.0,,,68.0,40.0,40.0,2000.0,2000.0,0.0,1.0,0.0,60-80,,1.0,makeup compact,flashlight,80.0,60.0,makeup compact9,flashlight10,100.0,80.0,b_102019.jpg,834784_sk_lg.jpg,/static/Category_learning/Stimuli/Experimental_stims/makeup compact/b_102019.jpg,/static/Category_learning/Stimuli/Experimental_stims/flashlight/834784_sk_lg.jpg,0.0,278.689,0.689,1.0,makeup compact,flashlight,80.0,60.0,makeup compact9,flashlight10,100.0,80.0,,,,,,
259,,confirmation,,html-keyboard-response,259,406182,0.0-1.0-42.0-0.0-1.0-0.0,0,0,54830,,,,,,40.0,,,,,1.0,,,,,,,,,,,,,,,,,,279.5,0.811,,,,,,,,,,,,,,,
260,,isi,,html-keyboard-response,260,408208,0.0-1.0-42.0-0.0-2.0,0,0,54830,,,,,,40.0,,,,,1.0,,,,,,,,,,,,,,,,,,281.5,2.0,,,,,,,,,,,,,,,
261,,feedback,,html-keyboard-response,261,409216,0.0-1.0-42.0-0.0-3.0-0.0,0,0,54830,,,,,,40.0,,,,,1.0,,,,,,,,,,,,,,,,,,282.5,1.0,,,,,,,,,,,,,,,
262,,iti,,html-keyboard-response,262,411225,0.0-1.0-42.0-0.0-5.0,0,0,54830,,,,,,40.0,,,,,1.0,,,,,,,,,,,,,,,,,,284.5,2.0,,,,,,,,,,,,,,,
263,,choice,,html-keyboard-response,263,411706,0.0-1.0-43.0-0.0-0.0,0,0,54830,,474.0,,,68.0,41.0,41.0,2000.0,1000.0,0.0,1.0,1.0,20-20,1.0,,seashell,seashell,20.0,20.0,seashell13,seashell7,0.0,20.0,coquillage22.jpg,seashell34.jpg,/static/Category_learning/Stimuli/Experimental_stims/seashell/coquillage22.jpg,/static/Category_learning/Stimuli/Experimental_stims/seashell/seashell34.jpg,0.0,284.974,0.474,1.0,seashell,seashell,20.0,20.0,seashell13,seashell7,0.0,20.0,,,,,,
264,,confirmation,,html-keyboard-response,264,412743,0.0-1.0-43.0-0.0-1.0-0.0,0,0,54830,,,,,,41.0,,,,,1.0,,,,,,,,,,,,,,,,,,286.0,1.026,,,,,,,,,,,,,,,
265,,isi,,html-keyboard-response,265,414753,0.0-1.0-43.0-0.0-2.0,0,0,54830,,,,,,41.0,,,,,1.0,,,,,,,,,,,,,,,,,,288.0,2.0,,,,,,,,,,,,,,,
266,,feedback,,html-keyboard-response,266,415760,0.0-1.0-43.0-0.0-3.0-0.0,0,0,54830,,,,,,41.0,,,,,1.0,,,,,,,,,,,,,,,,,,289.0,1.0,,,,,,,,,,,,,,,
267,,iti,,html-keyboard-response,267,416770,0.0-1.0-43.0-0.0-5.0,0,0,54830,,,,,,41.0,,,,,1.0,,,,,,,,,,,,,,,,,,290.0,1.0,,,,,,,,,,,,,,,
268,,choice,,html-keyboard-response,268,417358,0.0-1.0-44.0-0.0-0.0,0,0,54830,,582.0,,,68.0,42.0,42.0,1000.0,1500.0,0.0,1.0,0.0,40-80,,1.0,makeup compact,trumpet,80.0,40.0,makeup compact6,trumpet13,80.0,40.0,P0754_hero.jpg,JUPITER+JTR1600GS.jpg,/static/Category_learning/Stimuli/Experimental_stims/makeup compact/P0754_hero.jpg,/static/Category_learning/Stimuli/Experimental_stims/trumpet/JUPITER+JTR1600GS.jpg,0.0,290.582,0.582,1.0,makeup compact,trumpet,80.0,40.0,makeup compact6,trumpet13,80.0,40.0,,,,,,
269,,confirmation,,html-keyboard-response,269,418284,0.0-1.0-44.0-0.0-1.0-0.0,0,0,54830,,,,,,42.0,,,,,1.0,,,,,,,,,,,,,,,,,,291.5,0.918,,,,,,,,,,,,,,,
270,,isi,,html-keyboard-response,270,419293,0.0-1.0-44.0-0.0-2.0,0,0,54830,,,,,,42.0,,,,,1.0,,,,,,,,,,,,,,,,,,292.5,1.0,,,,,,,,,,,,,,,
271,,feedback,,html-keyboard-response,271,420302,0.0-1.0-44.0-0.0-3.0-0.0,0,0,54830,,,,,,42.0,,,,,1.0,,,,,,,,,,,,,,,,,,293.5,1.0,,,,,,,,,,,,,,,
272,,iti,,html-keyboard-response,272,421809,0.0-1.0-44.0-0.0-5.0,0,0,54830,,,,,,42.0,,,,,1.0,,,,,,,,,,,,,,,,,,295.0,1.5,,,,,,,,,,,,,,,
273,,choice,,html-keyboard-response,273,422267,0.0-1.0-45.0-0.0-0.0,0,0,54830,,451.0,,,68.0,43.0,43.0,1000.0,2000.0,0.0,1.0,0.0,80-80,,,hat,makeup compact,80.0,80.0,hat2,makeup compact10,100.0,60.0,Ahatwithfeat7.jpg,P95108_hero.jpg,/static/Category_learning/Stimuli/Experimental_stims/hat/Ahatwithfeat7.jpg,/static/Category_learning/Stimuli/Experimental_stims/makeup compact/P95108_hero.jpg,0.0,295.451,0.451,1.0,hat,makeup compact,80.0,80.0,hat2,makeup compact10,100.0,60.0,,,,,,
274,,confirmation,,html-keyboard-response,274,423326,0.0-1.0-45.0-0.0-1.0-0.0,0,0,54830,,,,,,43.0,,,,,1.0,,,,,,,,,,,,,,,,,,296.5,1.049,,,,,,,,,,,,,,,
275,,isi,,html-keyboard-response,275,424332,0.0-1.0-45.0-0.0-2.0,0,0,54830,,,,,,43.0,,,,,1.0,,,,,,,,,,,,,,,,,,297.5,1.0,,,,,,,,,,,,,,,
276,,feedback,,html-keyboard-response,276,425341,0.0-1.0-45.0-0.0-3.0-0.0,0,0,54830,,,,,,43.0,,,,,1.0,,,,,,,,,,,,,,,,,,298.5,1.0,,,,,,,,,,,,,,,
277,,iti,,html-keyboard-response,277,427348,0.0-1.0-45.0-0.0-5.0,0,0,54830,,,,,,43.0,,,,,1.0,,,,,,,,,,,,,,,,,,300.5,2.0,,,,,,,,,,,,,,,
278,,choice,,html-keyboard-response,278,427936,0.0-1.0-46.0-0.0-0.0,0,0,54830,,581.0,,,68.0,44.0,44.0,1500.0,1500.0,0.0,1.0,0.0,40-60,,1.0,fan,tent,60.0,40.0,fan1,tent4,80.0,40.0,01393.fpx.jpg,Atent12.jpg,/static/Category_learning/Stimuli/Experimental_stims/fan/01393.fpx.jpg,/static/Category_learning/Stimuli/Experimental_stims/tent/Atent12.jpg,0.0,301.081,0.581,1.0,fan,tent,60.0,40.0,fan1,tent4,80.0,40.0,,,,,,
279,,confirmation,,html-keyboard-response,279,428864,0.0-1.0-46.0-0.0-1.0-0.0,0,0,54830,,,,,,44.0,,,,,1.0,,,,,,,,,,,,,,,,,,302.0,0.919,,,,,,,,,,,,,,,
280,,isi,,html-keyboard-response,280,430372,0.0-1.0-46.0-0.0-2.0,0,0,54830,,,,,,44.0,,,,,1.0,,,,,,,,,,,,,,,,,,303.5,1.5,,,,,,,,,,,,,,,
281,,feedback,,html-keyboard-response,281,431380,0.0-1.0-46.0-0.0-3.0-0.0,0,0,54830,,,,,,44.0,,,,,1.0,,,,,,,,,,,,,,,,,,304.5,1.0,,,,,,,,,,,,,,,
282,,iti,,html-keyboard-response,282,432890,0.0-1.0-46.0-0.0-5.0,0,0,54830,,,,,,44.0,,,,,1.0,,,,,,,,,,,,,,,,,,306.0,1.5,,,,,,,,,,,,,,,
283,,choice,,html-keyboard-response,283,433717,0.0-1.0-47.0-0.0-0.0,0,0,54830,,819.0,,,68.0,45.0,45.0,2000.0,3500.0,0.0,1.0,1.0,80-80,1.0,,makeup compact,makeup compact,80.0,80.0,makeup compact9,makeup compact6,100.0,80.0,b_102019.jpg,P0754_hero.jpg,/static/Category_learning/Stimuli/Experimental_stims/makeup compact/b_102019.jpg,/static/Category_learning/Stimuli/Experimental_stims/makeup compact/P0754_hero.jpg,0.0,306.819,0.819,1.0,makeup compact,makeup compact,80.0,80.0,makeup compact9,makeup compact6,100.0,80.0,,,,,,
284,,confirmation,,html-keyboard-response,284,434406,0.0-1.0-47.0-0.0-1.0-0.0,0,0,54830,,,,,,45.0,,,,,1.0,,,,,,,,,,,,,,,,,,307.5,0.681,,,,,,,,,,,,,,,
285,,isi,,html-keyboard-response,285,436413,0.0-1.0-47.0-0.0-2.0,0,0,54830,,,,,,45.0,,,,,1.0,,,,,,,,,,,,,,,,,,309.5,2.0,,,,,,,,,,,,,,,
286,,feedback,,html-keyboard-response,286,437420,0.0-1.0-47.0-0.0-3.0-0.0,0,0,54830,,,,,,45.0,,,,,1.0,,,,,,,,,,,,,,,,,,310.5,1.0,,,,,,,,,,,,,,,
287,,iti,,html-keyboard-response,287,440928,0.0-1.0-47.0-0.0-5.0,0,0,54830,,,,,,45.0,,,,,1.0,,,,,,,,,,,,,,,,,,314.0,3.5,,,,,,,,,,,,,,,
288,,choice,,html-keyboard-response,288,441405,0.0-1.0-48.0-0.0-0.0,0,0,54830,,468.0,,,68.0,46.0,46.0,2000.0,1500.0,0.0,1.0,0.0,40-80,,0.0,yarn,lipstick,40.0,80.0,yarn8,lipstick9,60.0,100.0,smonlineyarn-285x250.jpg,P189145_hero.jpg,/static/Category_learning/Stimuli/Experimental_stims/yarn/smonlineyarn-285x250.jpg,/static/Category_learning/Stimuli/Experimental_stims/lipstick/P189145_hero.jpg,0.0,314.468,0.468,1.0,yarn,lipstick,40.0,80.0,yarn8,lipstick9,60.0,100.0,,,,,,
289,,confirmation,,html-keyboard-response,289,442446,0.0-1.0-48.0-0.0-1.0-0.0,0,0,54830,,,,,,46.0,,,,,1.0,,,,,,,,,,,,,,,,,,315.5,1.032,,,,,,,,,,,,,,,
290,,isi,,html-keyboard-response,290,444451,0.0-1.0-48.0-0.0-2.0,0,0,54830,,,,,,46.0,,,,,1.0,,,,,,,,,,,,,,,,,,317.5,2.0,,,,,,,,,,,,,,,
291,,feedback,,html-keyboard-response,291,445459,0.0-1.0-48.0-0.0-3.0-0.0,0,0,54830,,,,,,46.0,,,,,1.0,,,,,,,,,,,,,,,,,,318.5,1.0,,,,,,,,,,,,,,,
292,,iti,,html-keyboard-response,292,446967,0.0-1.0-48.0-0.0-5.0,0,0,54830,,,,,,46.0,,,,,1.0,,,,,,,,,,,,,,,,,,320.0,1.5,,,,,,,,,,,,,,,
293,,choice,,html-keyboard-response,293,447688,0.0-1.0-49.0-0.0-0.0,0,0,54830,,713.0,,,68.0,47.0,47.0,1000.0,1000.0,0.0,1.0,1.0,60-60,1.0,,dresser,dresser,60.0,60.0,dresser4,dresser14,80.0,60.0,ADRESSE40.jpg,Adressertabl3.jpg,/static/Category_learning/Stimuli/Experimental_stims/dresser/ADRESSE40.jpg,/static/Category_learning/Stimuli/Experimental_stims/dresser/Adressertabl3.jpg,0.0,320.713,0.713,1.0,dresser,dresser,60.0,60.0,dresser4,dresser14,80.0,60.0,,,,,,
294,,confirmation,,html-keyboard-response,294,448482,0.0-1.0-49.0-0.0-1.0-0.0,0,0,54830,,,,,,47.0,,,,,1.0,,,,,,,,,,,,,,,,,,321.5,0.787,,,,,,,,,,,,,,,
295,,isi,,html-keyboard-response,295,449490,0.0-1.0-49.0-0.0-2.0,0,0,54830,,,,,,47.0,,,,,1.0,,,,,,,,,,,,,,,,,,322.5,1.0,,,,,,,,,,,,,,,
296,,feedback,,html-keyboard-response,296,450497,0.0-1.0-49.0-0.0-3.0-0.0,0,0,54830,,,,,,47.0,,,,,1.0,,,,,,,,,,,,,,,,,,323.5,1.0,,,,,,,,,,,,,,,
297,,iti,,html-keyboard-response,297,451505,0.0-1.0-49.0-0.0-5.0,0,0,54830,,,,,,47.0,,,,,1.0,,,,,,,,,,,,,,,,,,324.5,1.0,,,,,,,,,,,,,,,
298,,choice,,html-keyboard-response,298,452072,0.0-1.0-50.0-0.0-0.0,0,0,54830,,559.0,,,68.0,48.0,48.0,1500.0,1000.0,0.0,1.0,0.0,40-60,,0.0,train,flashlight,40.0,60.0,train8,flashlight12,40.0,60.0,PL51190.jpg,new05.jpg,/static/Category_learning/Stimuli/Experimental_stims/train/PL51190.jpg,/static/Category_learning/Stimuli/Experimental_stims/flashlight/new05.jpg,0.0,325.059,0.559,1.0,train,flashlight,40.0,60.0,train8,flashlight12,40.0,60.0,,,,,,
299,,confirmation,,html-keyboard-response,299,453022,0.0-1.0-50.0-0.0-1.0-0.0,0,0,54830,,,,,,48.0,,,,,1.0,,,,,,,,,,,,,,,,,,326.0,0.941,,,,,,,,,,,,,,,
300,,isi,,html-keyboard-response,300,454528,0.0-1.0-50.0-0.0-2.0,0,0,54830,,,,,,48.0,,,,,1.0,,,,,,,,,,,,,,,,,,327.5,1.5,,,,,,,,,,,,,,,
301,,feedback,,html-keyboard-response,301,455535,0.0-1.0-50.0-0.0-3.0-0.0,0,0,54830,,,,,,48.0,,,,,1.0,,,,,,,,,,,,,,,,,,328.5,1.0,,,,,,,,,,,,,,,
302,,iti,,html-keyboard-response,302,456545,0.0-1.0-50.0-0.0-5.0,0,0,54830,,,,,,48.0,,,,,1.0,,,,,,,,,,,,,,,,,,329.5,1.0,,,,,,,,,,,,,,,
303,,choice,,html-keyboard-response,303,457963,0.0-1.0-51.0-0.0-0.0,0,0,54830,,1409.0,,,68.0,49.0,49.0,1000.0,1000.0,0.0,1.0,1.0,60-60,1.0,,fan,fan,60.0,60.0,fan1,fan6,80.0,60.0,01393.fpx.jpg,30090.fpx.jpg,/static/Category_learning/Stimuli/Experimental_stims/fan/01393.fpx.jpg,/static/Category_learning/Stimuli/Experimental_stims/fan/30090.fpx.jpg,0.0,330.909,1.409,1.0,fan,fan,60.0,60.0,fan1,fan6,80.0,60.0,,,,,,
304,,confirmation,,html-keyboard-response,304,458063,0.0-1.0-51.0-0.0-1.0-0.0,0,0,54830,,,,,,49.0,,,,,1.0,,,,,,,,,,,,,,,,,,331.0,0.091,,,,,,,,,,,,,,,
305,,isi,,html-keyboard-response,305,459070,0.0-1.0-51.0-0.0-2.0,0,0,54830,,,,,,49.0,,,,,1.0,,,,,,,,,,,,,,,,,,332.0,1.0,,,,,,,,,,,,,,,
306,,feedback,,html-keyboard-response,306,460078,0.0-1.0-51.0-0.0-3.0-0.0,0,0,54830,,,,,,49.0,,,,,1.0,,,,,,,,,,,,,,,,,,333.0,1.0,,,,,,,,,,,,,,,
307,,iti,,html-keyboard-response,307,461089,0.0-1.0-51.0-0.0-5.0,0,0,54830,,,,,,49.0,,,,,1.0,,,,,,,,,,,,,,,,,,334.0,1.0,,,,,,,,,,,,,,,
308,,choice,,html-keyboard-response,308,461531,0.0-1.0-52.0-0.0-0.0,0,0,54830,,434.0,,,68.0,50.0,50.0,1000.0,2000.0,0.0,1.0,0.0,20-80,,1.0,lipstick,sofa,80.0,20.0,lipstick13,sofa8,60.0,20.0,P184708_hero.jpg,allegro-leather-sofa-med2.jpg,/static/Category_learning/Stimuli/Experimental_stims/lipstick/P184708_hero.jpg,/static/Category_learning/Stimuli/Experimental_stims/sofa/allegro-leather-sofa-med2.jpg,0.0,334.434,0.434,1.0,lipstick,sofa,80.0,20.0,lipstick13,sofa8,60.0,20.0,,,,,,
309,,confirmation,,html-keyboard-response,309,462605,0.0-1.0-52.0-0.0-1.0-0.0,0,0,54830,,,,,,50.0,,,,,1.0,,,,,,,,,,,,,,,,,,335.5,1.066,,,,,,,,,,,,,,,
310,,isi,,html-keyboard-response,310,463614,0.0-1.0-52.0-0.0-2.0,0,0,54830,,,,,,50.0,,,,,1.0,,,,,,,,,,,,,,,,,,336.5,1.0,,,,,,,,,,,,,,,
311,,feedback,,html-keyboard-response,311,464622,0.0-1.0-52.0-0.0-3.0-0.0,0,0,54830,,,,,,50.0,,,,,1.0,,,,,,,,,,,,,,,,,,337.5,1.0,,,,,,,,,,,,,,,
312,,iti,,html-keyboard-response,312,466628,0.0-1.0-52.0-0.0-5.0,0,0,54830,,,,,,50.0,,,,,1.0,,,,,,,,,,,,,,,,,,339.5,2.0,,,,,,,,,,,,,,,
313,,choice,,html-keyboard-response,313,466850,0.0-1.0-53.0-0.0-0.0,0,0,54830,,215.0,,,68.0,51.0,51.0,1000.0,2000.0,0.0,1.0,0.0,40-60,,0.0,stool,baby carriage,40.0,60.0,stool5,baby carriage11,40.0,80.0,ASTOOL23.jpg,Baby_Carriage-2.jpg,/static/Category_learning/Stimuli/Experimental_stims/stool/ASTOOL23.jpg,/static/Category_learning/Stimuli/Experimental_stims/baby carriage/Baby_Carriage-2.jpg,0.0,339.715,0.215,1.0,stool,baby carriage,40.0,60.0,stool5,baby carriage11,40.0,80.0,,,,,,
314,,confirmation,,html-keyboard-response,314,468144,0.0-1.0-53.0-0.0-1.0-0.0,0,0,54830,,,,,,51.0,,,,,1.0,,,,,,,,,,,,,,,,,,341.0,1.285,,,,,,,,,,,,,,,
315,,isi,,html-keyboard-response,315,469155,0.0-1.0-53.0-0.0-2.0,0,0,54830,,,,,,51.0,,,,,1.0,,,,,,,,,,,,,,,,,,342.0,1.0,,,,,,,,,,,,,,,
316,,feedback,,html-keyboard-response,316,470164,0.0-1.0-53.0-0.0-3.0-0.0,0,0,54830,,,,,,51.0,,,,,1.0,,,,,,,,,,,,,,,,,,343.0,1.0,,,,,,,,,,,,,,,
317,,iti,,html-keyboard-response,317,472173,0.0-1.0-53.0-0.0-5.0,0,0,54830,,,,,,51.0,,,,,1.0,,,,,,,,,,,,,,,,,,345.0,2.0,,,,,,,,,,,,,,,
318,,choice,,html-keyboard-response,318,472747,0.0-1.0-54.0-0.0-0.0,0,0,54830,,567.0,,,68.0,52.0,52.0,1000.0,2000.0,0.0,1.0,0.0,40-40,,,telescope,vase,40.0,40.0,telescope10,vase4,20.0,60.0,digimarc.ms02.jpg,Avase111.jpg,/static/Category_learning/Stimuli/Experimental_stims/telescope/digimarc.ms02.jpg,/static/Category_learning/Stimuli/Experimental_stims/vase/Avase111.jpg,0.0,345.567,0.567,1.0,telescope,vase,40.0,40.0,telescope10,vase4,20.0,60.0,,,,,,
319,,confirmation,,html-keyboard-response,319,473687,0.0-1.0-54.0-0.0-1.0-0.0,0,0,54830,,,,,,52.0,,,,,1.0,,,,,,,,,,,,,,,,,,346.5,0.933,,,,,,,,,,,,,,,
320,,isi,,html-keyboard-response,320,474695,0.0-1.0-54.0-0.0-2.0,0,0,54830,,,,,,52.0,,,,,1.0,,,,,,,,,,,,,,,,,,347.5,1.0,,,,,,,,,,,,,,,
321,,feedback,,html-keyboard-response,321,475704,0.0-1.0-54.0-0.0-3.0-0.0,0,0,54830,,,,,,52.0,,,,,1.0,,,,,,,,,,,,,,,,,,348.5,1.0,,,,,,,,,,,,,,,
322,,iti,,html-keyboard-response,322,477712,0.0-1.0-54.0-0.0-5.0,0,0,54830,,,,,,52.0,,,,,1.0,,,,,,,,,,,,,,,,,,350.5,2.0,,,,,,,,,,,,,,,
323,,block_over,,html-keyboard-response,323,482216,0.0-1.0-54.0-0.0-7.0-0.0,0,0,54830,,4487.0,,,68.0,52.0,,,,,,,,,,,,,,,,,,,,,,,,,,,,,,,,,,,,,,,
324,,start_run,,html-keyboard-response,324,484770,0.0-1.0-54.0-0.0-7.0-1.0,0,0,54830,,2548.0,,,84.0,,,,,,,,,,,,,,,,,,,,,,,,,,,,,,,,,,,,,,,,
325,,choice,,html-keyboard-response,325,485908,0.0-1.0-55.0-0.0-0.0,0,0,54830,,1128.0,,,68.0,53.0,65.0,3000.0,2000.0,0.0,2.0,0.0,40-40,,,watch,tape,40.0,40.0,watch9,tape2,40.0,20.0,mens-diamond-watches-euro-48733-ab.jpg,Tape_Dispenser.jpg,/static/Category_learning/Stimuli/Experimental_stims/watch/mens-diamond-watches-euro-48733-ab.jpg,/static/Category_learning/Stimuli/Experimental_stims/tape/Tape_Dispenser.jpg,0.0,1.128,1.128,1.0,watch,tape,40.0,40.0,watch9,tape2,40.0,20.0,,,,,,
326,,confirmation,,html-keyboard-response,326,486291,0.0-1.0-55.0-0.0-1.0-0.0,0,0,54830,,,,,,53.0,,,,,2.0,,,,,,,,,,,,,,,,,,1.5,0.372,,,,,,,,,,,,,,,
327,,isi,,html-keyboard-response,327,489302,0.0-1.0-55.0-0.0-2.0,0,0,54830,,,,,,53.0,,,,,2.0,,,,,,,,,,,,,,,,,,4.5,3.0,,,,,,,,,,,,,,,
328,,feedback,,html-keyboard-response,328,490311,0.0-1.0-55.0-0.0-3.0-0.0,0,0,54830,,,,,,53.0,,,,,2.0,,,,,,,,,,,,,,,,,,5.5,1.0,,,,,,,,,,,,,,,
329,,iti,,html-keyboard-response,329,492318,0.0-1.0-55.0-0.0-5.0,0,0,54830,,,,,,53.0,,,,,2.0,,,,,,,,,,,,,,,,,,7.5,2.0,,,,,,,,,,,,,,,
330,,choice,,html-keyboard-response,330,492920,0.0-1.0-56.0-0.0-0.0,0,0,54830,,594.0,,,75.0,54.0,66.0,3000.0,1500.0,0.0,2.0,0.0,20-60,,0.0,pen,bowl,20.0,60.0,pen3,bowl13,0.0,80.0,pen08.jpg,Asoupbowl8.jpg,/static/Category_learning/Stimuli/Experimental_stims/pen/pen08.jpg,/static/Category_learning/Stimuli/Experimental_stims/bowl/Asoupbowl8.jpg,0.0,8.094,0.594,0.0,bowl,pen,60.0,20.0,bowl13,pen3,80.0,0.0,,,,,,
331,,confirmation,,html-keyboard-response,331,493835,0.0-1.0-56.0-0.0-1.0-0.0,0,0,54830,,,,,,54.0,,,,,2.0,,,,,,,,,,,,,,,,,,9.0,0.906,,,,,,,,,,,,,,,
332,,isi,,html-keyboard-response,332,496843,0.0-1.0-56.0-0.0-2.0,0,0,54830,,,,,,54.0,,,,,2.0,,,,,,,,,,,,,,,,,,12.0,3.0,,,,,,,,,,,,,,,
333,,feedback,,html-keyboard-response,333,497852,0.0-1.0-56.0-0.0-3.0-0.0,0,0,54830,,,,,,54.0,,,,,2.0,,,,,,,,,,,,,,,,,,13.0,1.0,,,,,,,,,,,,,,,
334,,iti,,html-keyboard-response,334,499362,0.0-1.0-56.0-0.0-5.0,0,0,54830,,,,,,54.0,,,,,2.0,,,,,,,,,,,,,,,,,,14.5,1.5,,,,,,,,,,,,,,,
335,,choice,,html-keyboard-response,335,499895,0.0-1.0-57.0-0.0-0.0,0,0,54830,,525.0,,,68.0,55.0,67.0,1000.0,3000.0,0.0,2.0,0.0,20-60,,0.0,nail polish,bongo,20.0,60.0,nail polish1,bongo8,20.0,80.0,200.jpg,26390661.thl.jpg,/static/Category_learning/Stimuli/Experimental_stims/nail polish/200.jpg,/static/Category_learning/Stimuli/Experimental_stims/bongo/26390661.thl.jpg,0.0,15.025,0.525,1.0,nail polish,bongo,20.0,60.0,nail polish1,bongo8,20.0,80.0,,,,,,
336,,confirmation,,html-keyboard-response,336,500879,0.0-1.0-57.0-0.0-1.0-0.0,0,0,54830,,,,,,55.0,,,,,2.0,,,,,,,,,,,,,,,,,,16.0,0.975,,,,,,,,,,,,,,,
337,,isi,,html-keyboard-response,337,501887,0.0-1.0-57.0-0.0-2.0,0,0,54830,,,,,,55.0,,,,,2.0,,,,,,,,,,,,,,,,,,17.0,1.0,,,,,,,,,,,,,,,
338,,feedback,,html-keyboard-response,338,502896,0.0-1.0-57.0-0.0-3.0-0.0,0,0,54830,,,,,,55.0,,,,,2.0,,,,,,,,,,,,,,,,,,18.0,1.0,,,,,,,,,,,,,,,
339,,iti,,html-keyboard-response,339,505904,0.0-1.0-57.0-0.0-5.0,0,0,54830,,,,,,55.0,,,,,2.0,,,,,,,,,,,,,,,,,,21.0,3.0,,,,,,,,,,,,,,,
340,,choice,,html-keyboard-response,340,506396,0.0-1.0-58.0-0.0-0.0,0,0,54830,,484.0,,,68.0,56.0,68.0,1000.0,2000.0,0.0,2.0,0.0,20-20,,,power strip,patio lounge chair,20.0,20.0,power strip14,patio lounge chair13,20.0,20.0,88b2c724-e781-44ae-85d5-27b7591f659d_400.jpg,grosfillex-bahia-resin-chaise-lounges.jpg,/static/Category_learning/Stimuli/Experimental_stims/power strip/88b2c724-e781-44ae-85d5-27b7591f659d_400.jpg,/static/Category_learning/Stimuli/Experimental_stims/patio lounge chair/grosfillex-bahia-resin-chaise-lounges.jpg,0.0,21.484,0.484,1.0,power strip,patio lounge chair,20.0,20.0,power strip14,patio lounge chair13,20.0,20.0,,,,,,
341,,confirmation,,html-keyboard-response,341,507420,0.0-1.0-58.0-0.0-1.0-0.0,0,0,54830,,,,,,56.0,,,,,2.0,,,,,,,,,,,,,,,,,,22.5,1.016,,,,,,,,,,,,,,,
342,,isi,,html-keyboard-response,342,508429,0.0-1.0-58.0-0.0-2.0,0,0,54830,,,,,,56.0,,,,,2.0,,,,,,,,,,,,,,,,,,23.5,1.0,,,,,,,,,,,,,,,
343,,feedback,,html-keyboard-response,343,509437,0.0-1.0-58.0-0.0-3.0-0.0,0,0,54830,,,,,,56.0,,,,,2.0,,,,,,,,,,,,,,,,,,24.5,1.0,,,,,,,,,,,,,,,
344,,iti,,html-keyboard-response,344,511443,0.0-1.0-58.0-0.0-5.0,0,0,54830,,,,,,56.0,,,,,2.0,,,,,,,,,,,,,,,,,,26.5,2.0,,,,,,,,,,,,,,,
345,,choice,,html-keyboard-response,345,511819,0.0-1.0-59.0-0.0-0.0,0,0,54830,,369.0,,,68.0,57.0,69.0,1500.0,1500.0,0.0,2.0,0.0,40-40,,,tent,train,40.0,40.0,tent2,train1,40.0,40.0,Atent16.jpg,Model_Train.jpg,/static/Category_learning/Stimuli/Experimental_stims/tent/Atent16.jpg,/static/Category_learning/Stimuli/Experimental_stims/train/Model_Train.jpg,0.0,26.869,0.369,1.0,tent,train,40.0,40.0,tent2,train1,40.0,40.0,,,,,,
346,,confirmation,,html-keyboard-response,346,512961,0.0-1.0-59.0-0.0-1.0-0.0,0,0,54830,,,,,,57.0,,,,,2.0,,,,,,,,,,,,,,,,,,28.0,1.131,,,,,,,,,,,,,,,
347,,isi,,html-keyboard-response,347,514476,0.0-1.0-59.0-0.0-2.0,0,0,54830,,,,,,57.0,,,,,2.0,,,,,,,,,,,,,,,,,,29.5,1.5,,,,,,,,,,,,,,,
348,,feedback,,html-keyboard-response,348,515483,0.0-1.0-59.0-0.0-3.0-0.0,0,0,54830,,,,,,57.0,,,,,2.0,,,,,,,,,,,,,,,,,,30.5,1.0,,,,,,,,,,,,,,,
349,,iti,,html-keyboard-response,349,516992,0.0-1.0-59.0-0.0-5.0,0,0,54830,,,,,,57.0,,,,,2.0,,,,,,,,,,,,,,,,,,32.0,1.5,,,,,,,,,,,,,,,
350,,choice,,html-keyboard-response,350,517521,0.0-1.0-60.0-0.0-0.0,0,0,54830,,523.0,,,68.0,58.0,70.0,1500.0,1500.0,0.0,2.0,0.0,40-80,,1.0,key chain,vase,80.0,40.0,key chain5,vase7,60.0,60.0,keychain-metal-logo.jpg,8246344.thl.jpg,/static/Category_learning/Stimuli/Experimental_stims/key chain/keychain-metal-logo.jpg,/static/Category_learning/Stimuli/Experimental_stims/vase/8246344.thl.jpg,0.0,32.523,0.523,1.0,key chain,vase,80.0,40.0,key chain5,vase7,60.0,60.0,,,,,,
351,,confirmation,,html-keyboard-response,351,518506,0.0-1.0-60.0-0.0-1.0-0.0,0,0,54830,,,,,,58.0,,,,,2.0,,,,,,,,,,,,,,,,,,33.5,0.977,,,,,,,,,,,,,,,
352,,isi,,html-keyboard-response,352,520014,0.0-1.0-60.0-0.0-2.0,0,0,54830,,,,,,58.0,,,,,2.0,,,,,,,,,,,,,,,,,,35.0,1.5,,,,,,,,,,,,,,,
353,,feedback,,html-keyboard-response,353,521021,0.0-1.0-60.0-0.0-3.0-0.0,0,0,54830,,,,,,58.0,,,,,2.0,,,,,,,,,,,,,,,,,,36.0,1.0,,,,,,,,,,,,,,,
354,,iti,,html-keyboard-response,354,522531,0.0-1.0-60.0-0.0-5.0,0,0,54830,,,,,,58.0,,,,,2.0,,,,,,,,,,,,,,,,,,37.5,1.5,,,,,,,,,,,,,,,
355,,choice,,html-keyboard-response,355,523109,0.0-1.0-61.0-0.0-0.0,0,0,54830,,571.0,,,75.0,59.0,71.0,1000.0,2000.0,0.0,2.0,0.0,20-40,,0.0,power strip,trumpet,20.0,40.0,power strip5,trumpet8,0.0,60.0,93e4a283-bcd6-4ad1-8add-339658cda0fc_400.jpg,trumpet33.jpg,/static/Category_learning/Stimuli/Experimental_stims/power strip/93e4a283-bcd6-4ad1-8add-339658cda0fc_400.jpg,/static/Category_learning/Stimuli/Experimental_stims/trumpet/trumpet33.jpg,0.0,38.071,0.571,0.0,trumpet,power strip,40.0,20.0,trumpet8,power strip5,60.0,0.0,,,,,,
356,,confirmation,,html-keyboard-response,356,524049,0.0-1.0-61.0-0.0-1.0-0.0,0,0,54830,,,,,,59.0,,,,,2.0,,,,,,,,,,,,,,,,,,39.0,0.929,,,,,,,,,,,,,,,
357,,isi,,html-keyboard-response,357,525064,0.0-1.0-61.0-0.0-2.0,0,0,54830,,,,,,59.0,,,,,2.0,,,,,,,,,,,,,,,,,,40.0,1.0,,,,,,,,,,,,,,,
358,,feedback,,html-keyboard-response,358,526070,0.0-1.0-61.0-0.0-3.0-0.0,0,0,54830,,,,,,59.0,,,,,2.0,,,,,,,,,,,,,,,,,,41.0,1.0,,,,,,,,,,,,,,,
359,,iti,,html-keyboard-response,359,528077,0.0-1.0-61.0-0.0-5.0,0,0,54830,,,,,,59.0,,,,,2.0,,,,,,,,,,,,,,,,,,43.0,2.0,,,,,,,,,,,,,,,
360,,choice,,html-keyboard-response,360,528179,0.0-1.0-62.0-0.0-0.0,0,0,54830,,96.0,,,75.0,60.0,72.0,3500.0,1000.0,0.0,2.0,0.0,40-80,,1.0,key chain,watch,80.0,40.0,key chain10,watch3,80.0,60.0,Smurfs_Keychains_Smurf_Row_Boat.jpg,B0000TIIVO.01._SCLZZZZZZZ_V1124920780_.jpg,/static/Category_learning/Stimuli/Experimental_stims/key chain/Smurfs_Keychains_Smurf_Row_Boat.jpg,/static/Category_learning/Stimuli/Experimental_stims/watch/B0000TIIVO.01._SCLZZZZZZZ_V1124920780_.jpg,0.0,43.096,0.096,0.0,watch,key chain,40.0,80.0,watch3,key chain10,60.0,80.0,,,,,,
361,,confirmation,,html-keyboard-response,361,529593,0.0-1.0-62.0-0.0-1.0-0.0,0,0,54830,,,,,,60.0,,,,,2.0,,,,,,,,,,,,,,,,,,44.5,1.404,,,,,,,,,,,,,,,
362,,isi,,html-keyboard-response,362,533100,0.0-1.0-62.0-0.0-2.0,0,0,54830,,,,,,60.0,,,,,2.0,,,,,,,,,,,,,,,,,,48.0,3.5,,,,,,,,,,,,,,,
363,,feedback,,html-keyboard-response,363,534107,0.0-1.0-62.0-0.0-3.0-0.0,0,0,54830,,,,,,60.0,,,,,2.0,,,,,,,,,,,,,,,,,,49.0,1.0,,,,,,,,,,,,,,,
364,,iti,,html-keyboard-response,364,535118,0.0-1.0-62.0-0.0-5.0,0,0,54830,,,,,,60.0,,,,,2.0,,,,,,,,,,,,,,,,,,50.0,1.0,,,,,,,,,,,,,,,
365,,choice,,html-keyboard-response,365,535711,0.0-1.0-63.0-0.0-0.0,0,0,54830,,585.0,,,68.0,61.0,73.0,2000.0,2000.0,0.0,2.0,0.0,20-60,,0.0,small table,baby carriage,20.0,60.0,small table3,baby carriage14,20.0,80.0,Atable122.jpg,peg_perego_uno_verde.jpg,/static/Category_learning/Stimuli/Experimental_stims/small table/Atable122.jpg,/static/Category_learning/Stimuli/Experimental_stims/baby carriage/peg_perego_uno_verde.jpg,0.0,50.585,0.585,1.0,small table,baby carriage,20.0,60.0,small table3,baby carriage14,20.0,80.0,,,,,,
366,,confirmation,,html-keyboard-response,366,536635,0.0-1.0-63.0-0.0-1.0-0.0,0,0,54830,,,,,,61.0,,,,,2.0,,,,,,,,,,,,,,,,,,51.5,0.915,,,,,,,,,,,,,,,
367,,isi,,html-keyboard-response,367,538641,0.0-1.0-63.0-0.0-2.0,0,0,54830,,,,,,61.0,,,,,2.0,,,,,,,,,,,,,,,,,,53.5,2.0,,,,,,,,,,,,,,,
368,,feedback,,html-keyboard-response,368,539649,0.0-1.0-63.0-0.0-3.0-0.0,0,0,54830,,,,,,61.0,,,,,2.0,,,,,,,,,,,,,,,,,,54.5,1.0,,,,,,,,,,,,,,,
369,,iti,,html-keyboard-response,369,541655,0.0-1.0-63.0-0.0-5.0,0,0,54830,,,,,,61.0,,,,,2.0,,,,,,,,,,,,,,,,,,56.5,2.0,,,,,,,,,,,,,,,
370,,choice,,html-keyboard-response,370,541875,0.0-1.0-64.0-0.0-0.0,0,0,54830,,213.0,,,68.0,62.0,74.0,2000.0,3500.0,0.0,2.0,0.0,40-60,,1.0,baby carriage,train,60.0,40.0,baby carriage13,train15,40.0,40.0,300px-Barnevogn2.jpg,master-TD006.jpg,/static/Category_learning/Stimuli/Experimental_stims/baby carriage/300px-Barnevogn2.jpg,/static/Category_learning/Stimuli/Experimental_stims/train/master-TD006.jpg,0.0,56.713,0.213,1.0,baby carriage,train,60.0,40.0,baby carriage13,train15,40.0,40.0,,,,,,
371,,confirmation,,html-keyboard-response,371,543171,0.0-1.0-64.0-0.0-1.0-0.0,0,0,54830,,,,,,62.0,,,,,2.0,,,,,,,,,,,,,,,,,,58.0,1.287,,,,,,,,,,,,,,,
372,,isi,,html-keyboard-response,372,545177,0.0-1.0-64.0-0.0-2.0,0,0,54830,,,,,,62.0,,,,,2.0,,,,,,,,,,,,,,,,,,60.0,2.0,,,,,,,,,,,,,,,
373,,feedback,,html-keyboard-response,373,546185,0.0-1.0-64.0-0.0-3.0-0.0,0,0,54830,,,,,,62.0,,,,,2.0,,,,,,,,,,,,,,,,,,61.0,1.0,,,,,,,,,,,,,,,
374,,iti,,html-keyboard-response,374,549695,0.0-1.0-64.0-0.0-5.0,0,0,54830,,,,,,62.0,,,,,2.0,,,,,,,,,,,,,,,,,,64.5,3.5,,,,,,,,,,,,,,,
375,,choice,,html-keyboard-response,375,549815,0.0-1.0-65.0-0.0-0.0,0,0,54830,,112.0,,,68.0,63.0,75.0,1000.0,1000.0,0.0,2.0,0.0,40-80,,0.0,trumpet,hat,40.0,80.0,trumpet2,hat12,40.0,60.0,Matt-Stevens-Pocket-Trumpet.jpg,Aformalhat5.jpg,/static/Category_learning/Stimuli/Experimental_stims/trumpet/Matt-Stevens-Pocket-Trumpet.jpg,/static/Category_learning/Stimuli/Experimental_stims/hat/Aformalhat5.jpg,0.0,64.612,0.112,1.0,trumpet,hat,40.0,80.0,trumpet2,hat12,40.0,60.0,,,,,,
376,,confirmation,,html-keyboard-response,376,551212,0.0-1.0-65.0-0.0-1.0-0.0,0,0,54830,,,,,,63.0,,,,,2.0,,,,,,,,,,,,,,,,,,66.0,1.388,,,,,,,,,,,,,,,
377,,isi,,html-keyboard-response,377,552220,0.0-1.0-65.0-0.0-2.0,0,0,54830,,,,,,63.0,,,,,2.0,,,,,,,,,,,,,,,,,,67.0,1.0,,,,,,,,,,,,,,,
378,,feedback,,html-keyboard-response,378,553228,0.0-1.0-65.0-0.0-3.0-0.0,0,0,54830,,,,,,63.0,,,,,2.0,,,,,,,,,,,,,,,,,,68.0,1.0,,,,,,,,,,,,,,,
379,,iti,,html-keyboard-response,379,554236,0.0-1.0-65.0-0.0-5.0,0,0,54830,,,,,,63.0,,,,,2.0,,,,,,,,,,,,,,,,,,69.0,1.0,,,,,,,,,,,,,,,
380,,choice,,html-keyboard-response,380,554837,0.0-1.0-66.0-0.0-0.0,0,0,54830,,588.0,,,68.0,64.0,76.0,1000.0,1000.0,0.0,2.0,0.0,20-40,,1.0,trumpet,poker card,40.0,20.0,trumpet1,poker card2,60.0,40.0,JUPITER+TROMPETTE+606MRL.JPG,22864716.thl.jpg,/static/Category_learning/Stimuli/Experimental_stims/trumpet/JUPITER+TROMPETTE+606MRL.JPG,/static/Category_learning/Stimuli/Experimental_stims/poker card/22864716.thl.jpg,0.0,69.588,0.588,1.0,trumpet,poker card,40.0,20.0,trumpet1,poker card2,60.0,40.0,,,,,,
381,,confirmation,,html-keyboard-response,381,555757,0.0-1.0-66.0-0.0-1.0-0.0,0,0,54830,,,,,,64.0,,,,,2.0,,,,,,,,,,,,,,,,,,70.5,0.912,,,,,,,,,,,,,,,
382,,isi,,html-keyboard-response,382,556781,0.0-1.0-66.0-0.0-2.0,0,0,54830,,,,,,64.0,,,,,2.0,,,,,,,,,,,,,,,,,,71.5,1.0,,,,,,,,,,,,,,,
383,,feedback,,html-keyboard-response,383,557789,0.0-1.0-66.0-0.0-3.0-0.0,0,0,54830,,,,,,64.0,,,,,2.0,,,,,,,,,,,,,,,,,,72.5,1.0,,,,,,,,,,,,,,,
384,,iti,,html-keyboard-response,384,558804,0.0-1.0-66.0-0.0-5.0,0,0,54830,,,,,,64.0,,,,,2.0,,,,,,,,,,,,,,,,,,73.5,1.0,,,,,,,,,,,,,,,
385,,choice,,html-keyboard-response,385,559273,0.0-1.0-67.0-0.0-0.0,0,0,54830,,461.0,,,68.0,65.0,77.0,1500.0,1000.0,0.0,2.0,0.0,20-80,,1.0,microscope,necklace,80.0,20.0,microscope5,necklace4,100.0,20.0,emMicroscope.jpg,emerald_diamond_necklace.jpg,/static/Category_learning/Stimuli/Experimental_stims/microscope/emMicroscope.jpg,/static/Category_learning/Stimuli/Experimental_stims/necklace/emerald_diamond_necklace.jpg,0.0,73.961,0.461,1.0,microscope,necklace,80.0,20.0,microscope5,necklace4,100.0,20.0,,,,,,
386,,confirmation,,html-keyboard-response,386,560321,0.0-1.0-67.0-0.0-1.0-0.0,0,0,54830,,,,,,65.0,,,,,2.0,,,,,,,,,,,,,,,,,,75.0,1.039,,,,,,,,,,,,,,,
387,,isi,,html-keyboard-response,387,561826,0.0-1.0-67.0-0.0-2.0,0,0,54830,,,,,,65.0,,,,,2.0,,,,,,,,,,,,,,,,,,76.5,1.5,,,,,,,,,,,,,,,
388,,feedback,,html-keyboard-response,388,562834,0.0-1.0-67.0-0.0-3.0-0.0,0,0,54830,,,,,,65.0,,,,,2.0,,,,,,,,,,,,,,,,,,77.5,1.0,,,,,,,,,,,,,,,
389,,iti,,html-keyboard-response,389,563843,0.0-1.0-67.0-0.0-5.0,0,0,54830,,,,,,65.0,,,,,2.0,,,,,,,,,,,,,,,,,,78.5,1.0,,,,,,,,,,,,,,,
390,,choice,,html-keyboard-response,390,564481,0.0-1.0-68.0-0.0-0.0,0,0,54830,,629.0,,,68.0,66.0,78.0,1500.0,2000.0,0.0,2.0,1.0,60-60,1.0,,baby carriage,baby carriage,60.0,60.0,baby carriage13,baby carriage5,40.0,80.0,300px-Barnevogn2.jpg,Baby_Stroller.jpg,/static/Category_learning/Stimuli/Experimental_stims/baby carriage/300px-Barnevogn2.jpg,/static/Category_learning/Stimuli/Experimental_stims/baby carriage/Baby_Stroller.jpg,0.0,79.129,0.629,1.0,baby carriage,baby carriage,60.0,60.0,baby carriage13,baby carriage5,40.0,80.0,,,,,,
391,,confirmation,,html-keyboard-response,391,565360,0.0-1.0-68.0-0.0-1.0-0.0,0,0,54830,,,,,,66.0,,,,,2.0,,,,,,,,,,,,,,,,,,80.0,0.871,,,,,,,,,,,,,,,
392,,isi,,html-keyboard-response,392,566867,0.0-1.0-68.0-0.0-2.0,0,0,54830,,,,,,66.0,,,,,2.0,,,,,,,,,,,,,,,,,,81.5,1.5,,,,,,,,,,,,,,,
393,,feedback,,html-keyboard-response,393,567874,0.0-1.0-68.0-0.0-3.0-0.0,0,0,54830,,,,,,66.0,,,,,2.0,,,,,,,,,,,,,,,,,,82.5,1.0,,,,,,,,,,,,,,,
394,,iti,,html-keyboard-response,394,569881,0.0-1.0-68.0-0.0-5.0,0,0,54830,,,,,,66.0,,,,,2.0,,,,,,,,,,,,,,,,,,84.5,2.0,,,,,,,,,,,,,,,
395,,choice,,html-keyboard-response,395,570417,0.0-1.0-69.0-0.0-0.0,0,0,54830,,530.0,,,68.0,67.0,79.0,1500.0,3500.0,0.0,2.0,1.0,40-40,1.0,,watch,watch,40.0,40.0,watch3,watch9,60.0,40.0,B0000TIIVO.01._SCLZZZZZZZ_V1124920780_.jpg,mens-diamond-watches-euro-48733-ab.jpg,/static/Category_learning/Stimuli/Experimental_stims/watch/B0000TIIVO.01._SCLZZZZZZZ_V1124920780_.jpg,/static/Category_learning/Stimuli/Experimental_stims/watch/mens-diamond-watches-euro-48733-ab.jpg,0.0,85.03,0.53,1.0,watch,watch,40.0,40.0,watch3,watch9,60.0,40.0,,,,,,
396,,confirmation,,html-keyboard-response,396,571396,0.0-1.0-69.0-0.0-1.0-0.0,0,0,54830,,,,,,67.0,,,,,2.0,,,,,,,,,,,,,,,,,,86.0,0.97,,,,,,,,,,,,,,,
397,,isi,,html-keyboard-response,397,572904,0.0-1.0-69.0-0.0-2.0,0,0,54830,,,,,,67.0,,,,,2.0,,,,,,,,,,,,,,,,,,87.5,1.5,,,,,,,,,,,,,,,
398,,feedback,,html-keyboard-response,398,573911,0.0-1.0-69.0-0.0-3.0-0.0,0,0,54830,,,,,,67.0,,,,,2.0,,,,,,,,,,,,,,,,,,88.5,1.0,,,,,,,,,,,,,,,
399,,iti,,html-keyboard-response,399,577419,0.0-1.0-69.0-0.0-5.0,0,0,54830,,,,,,67.0,,,,,2.0,,,,,,,,,,,,,,,,,,92.0,3.5,,,,,,,,,,,,,,,
400,,choice,,html-keyboard-response,400,577926,0.0-1.0-70.0-0.0-0.0,0,0,54830,,500.0,,,68.0,68.0,80.0,1000.0,2000.0,0.0,2.0,0.0,20-80,,0.0,pen,key chain,20.0,80.0,pen6,key chain13,40.0,100.0,executive_pen2.jpg,Fancy_Liquid_Column_Shape_Key_Ring_with_Floater.jpg,/static/Category_learning/Stimuli/Experimental_stims/pen/executive_pen2.jpg,/static/Category_learning/Stimuli/Experimental_stims/key chain/Fancy_Liquid_Column_Shape_Key_Ring_with_Floater.jpg,0.0,92.5,0.5,1.0,pen,key chain,20.0,80.0,pen6,key chain13,40.0,100.0,,,,,,
401,,confirmation,,html-keyboard-response,401,578936,0.0-1.0-70.0-0.0-1.0-0.0,0,0,54830,,,,,,68.0,,,,,2.0,,,,,,,,,,,,,,,,,,93.5,1.0,,,,,,,,,,,,,,,
402,,isi,,html-keyboard-response,402,579943,0.0-1.0-70.0-0.0-2.0,0,0,54830,,,,,,68.0,,,,,2.0,,,,,,,,,,,,,,,,,,94.5,1.0,,,,,,,,,,,,,,,
403,,feedback,,html-keyboard-response,403,580979,0.0-1.0-70.0-0.0-3.0-0.0,0,0,54830,,,,,,68.0,,,,,2.0,,,,,,,,,,,,,,,,,,95.5,1.0,,,,,,,,,,,,,,,
404,,iti,,html-keyboard-response,404,582989,0.0-1.0-70.0-0.0-5.0,0,0,54830,,,,,,68.0,,,,,2.0,,,,,,,,,,,,,,,,,,97.5,2.0,,,,,,,,,,,,,,,
405,,choice,,html-keyboard-response,405,583644,0.0-1.0-71.0-0.0-0.0,0,0,54830,,648.0,,,68.0,69.0,81.0,3500.0,2000.0,0.0,2.0,0.0,60-60,,,bowl,bench,60.0,60.0,bowl7,bench2,80.0,60.0,Abowl54.jpg,26369969.thl.jpg,/static/Category_learning/Stimuli/Experimental_stims/bowl/Abowl54.jpg,/static/Category_learning/Stimuli/Experimental_stims/bench/26369969.thl.jpg,0.0,98.148,0.648,1.0,bowl,bench,60.0,60.0,bowl7,bench2,80.0,60.0,,,,,,
406,,confirmation,,html-keyboard-response,406,584504,0.0-1.0-71.0-0.0-1.0-0.0,0,0,54830,,,,,,69.0,,,,,2.0,,,,,,,,,,,,,,,,,,99.0,0.852,,,,,,,,,,,,,,,
407,,isi,,html-keyboard-response,407,588011,0.0-1.0-71.0-0.0-2.0,0,0,54830,,,,,,69.0,,,,,2.0,,,,,,,,,,,,,,,,,,102.5,3.5,,,,,,,,,,,,,,,
408,,feedback,,html-keyboard-response,408,589020,0.0-1.0-71.0-0.0-3.0-0.0,0,0,54830,,,,,,69.0,,,,,2.0,,,,,,,,,,,,,,,,,,103.5,1.0,,,,,,,,,,,,,,,
409,,iti,,html-keyboard-response,409,591030,0.0-1.0-71.0-0.0-5.0,0,0,54830,,,,,,69.0,,,,,2.0,,,,,,,,,,,,,,,,,,105.5,2.0,,,,,,,,,,,,,,,
410,,choice,,html-keyboard-response,410,591538,0.0-1.0-72.0-0.0-0.0,0,0,54830,,499.0,,,68.0,70.0,82.0,1000.0,1500.0,0.0,2.0,0.0,60-80,,1.0,frame,bench,80.0,60.0,frame14,bench1,80.0,40.0,AFRAME129.jpg,26419975.thl.jpg,/static/Category_learning/Stimuli/Experimental_stims/frame/AFRAME129.jpg,/static/Category_learning/Stimuli/Experimental_stims/bench/26419975.thl.jpg,0.0,105.999,0.499,1.0,frame,bench,80.0,60.0,frame14,bench1,80.0,40.0,,,,,,
411,,confirmation,,html-keyboard-response,411,592548,0.0-1.0-72.0-0.0-1.0-0.0,0,0,54830,,,,,,70.0,,,,,2.0,,,,,,,,,,,,,,,,,,107.0,1.001,,,,,,,,,,,,,,,
412,,isi,,html-keyboard-response,412,593555,0.0-1.0-72.0-0.0-2.0,0,0,54830,,,,,,70.0,,,,,2.0,,,,,,,,,,,,,,,,,,108.0,1.0,,,,,,,,,,,,,,,
413,,feedback,,html-keyboard-response,413,594563,0.0-1.0-72.0-0.0-3.0-0.0,0,0,54830,,,,,,70.0,,,,,2.0,,,,,,,,,,,,,,,,,,109.0,1.0,,,,,,,,,,,,,,,
414,,iti,,html-keyboard-response,414,596070,0.0-1.0-72.0-0.0-5.0,0,0,54830,,,,,,70.0,,,,,2.0,,,,,,,,,,,,,,,,,,110.5,1.5,,,,,,,,,,,,,,,
415,,choice,,html-keyboard-response,415,596859,0.0-1.0-73.0-0.0-0.0,0,0,54830,,782.0,,,68.0,71.0,83.0,1500.0,1000.0,0.0,2.0,0.0,20-80,,1.0,key chain,poker card,80.0,20.0,key chain6,poker card12,80.0,20.0,highboy_keychain_ItemCA75384.jpg,22865676.thl.jpg,/static/Category_learning/Stimuli/Experimental_stims/key chain/highboy_keychain_ItemCA75384.jpg,/static/Category_learning/Stimuli/Experimental_stims/poker card/22865676.thl.jpg,0.0,111.282,0.782,1.0,key chain,poker card,80.0,20.0,key chain6,poker card12,80.0,20.0,,,,,,
416,,confirmation,,html-keyboard-response,416,597585,0.0-1.0-73.0-0.0-1.0-0.0,0,0,54830,,,,,,71.0,,,,,2.0,,,,,,,,,,,,,,,,,,112.0,0.718,,,,,,,,,,,,,,,
417,,isi,,html-keyboard-response,417,599093,0.0-1.0-73.0-0.0-2.0,0,0,54830,,,,,,71.0,,,,,2.0,,,,,,,,,,,,,,,,,,113.5,1.5,,,,,,,,,,,,,,,
418,,feedback,,html-keyboard-response,418,600102,0.0-1.0-73.0-0.0-3.0-0.0,0,0,54830,,,,,,71.0,,,,,2.0,,,,,,,,,,,,,,,,,,114.5,1.0,,,,,,,,,,,,,,,
419,,iti,,html-keyboard-response,419,601115,0.0-1.0-73.0-0.0-5.0,0,0,54830,,,,,,71.0,,,,,2.0,,,,,,,,,,,,,,,,,,115.5,1.0,,,,,,,,,,,,,,,
420,,choice,,html-keyboard-response,420,601709,0.0-1.0-74.0-0.0-0.0,0,0,54830,,585.0,,,68.0,72.0,84.0,2000.0,1500.0,0.0,2.0,0.0,20-60,,0.0,poker card,bowl,20.0,60.0,poker card6,bowl1,40.0,40.0,22864212.thl.jpg,ABOWLS6.jpg,/static/Category_learning/Stimuli/Experimental_stims/poker card/22864212.thl.jpg,/static/Category_learning/Stimuli/Experimental_stims/bowl/ABOWLS6.jpg,0.0,116.085,0.585,1.0,poker card,bowl,20.0,60.0,poker card6,bowl1,40.0,40.0,,,,,,
421,,confirmation,,html-keyboard-response,421,602633,0.0-1.0-74.0-0.0-1.0-0.0,0,0,54830,,,,,,72.0,,,,,2.0,,,,,,,,,,,,,,,,,,117.0,0.915,,,,,,,,,,,,,,,
422,,isi,,html-keyboard-response,422,604640,0.0-1.0-74.0-0.0-2.0,0,0,54830,,,,,,72.0,,,,,2.0,,,,,,,,,,,,,,,,,,119.0,2.0,,,,,,,,,,,,,,,
423,,feedback,,html-keyboard-response,423,605647,0.0-1.0-74.0-0.0-3.0-0.0,0,0,54830,,,,,,72.0,,,,,2.0,,,,,,,,,,,,,,,,,,120.0,1.0,,,,,,,,,,,,,,,
424,,iti,,html-keyboard-response,424,607153,0.0-1.0-74.0-0.0-5.0,0,0,54830,,,,,,72.0,,,,,2.0,,,,,,,,,,,,,,,,,,121.5,1.5,,,,,,,,,,,,,,,
425,,choice,,html-keyboard-response,425,607649,0.0-1.0-75.0-0.0-0.0,0,0,54830,,488.0,,,68.0,73.0,85.0,1500.0,3500.0,0.0,2.0,1.0,40-40,1.0,,tent,tent,40.0,40.0,tent2,tent5,40.0,60.0,Atent16.jpg,Dome Tentnb87r67.jpg,/static/Category_learning/Stimuli/Experimental_stims/tent/Atent16.jpg,/static/Category_learning/Stimuli/Experimental_stims/tent/Dome Tentnb87r67.jpg,0.0,121.988,0.488,1.0,tent,tent,40.0,40.0,tent2,tent5,40.0,60.0,,,,,,
426,,confirmation,,html-keyboard-response,426,608670,0.0-1.0-75.0-0.0-1.0-0.0,0,0,54830,,,,,,73.0,,,,,2.0,,,,,,,,,,,,,,,,,,123.0,1.012,,,,,,,,,,,,,,,
427,,isi,,html-keyboard-response,427,610177,0.0-1.0-75.0-0.0-2.0,0,0,54830,,,,,,73.0,,,,,2.0,,,,,,,,,,,,,,,,,,124.5,1.5,,,,,,,,,,,,,,,
428,,feedback,,html-keyboard-response,428,611188,0.0-1.0-75.0-0.0-3.0-0.0,0,0,54830,,,,,,73.0,,,,,2.0,,,,,,,,,,,,,,,,,,125.5,1.0,,,,,,,,,,,,,,,
429,,iti,,html-keyboard-response,429,614695,0.0-1.0-75.0-0.0-5.0,0,0,54830,,,,,,73.0,,,,,2.0,,,,,,,,,,,,,,,,,,129.0,3.5,,,,,,,,,,,,,,,
430,,choice,,html-keyboard-response,430,615069,0.0-1.0-76.0-0.0-0.0,0,0,54830,,363.0,,,75.0,74.0,86.0,1000.0,1000.0,0.0,2.0,0.0,40-80,,1.0,frame,tape,80.0,40.0,frame1,tape11,80.0,20.0,AFRAME127.jpg,41FZA73H4JL._AA280_.jpg,/static/Category_learning/Stimuli/Experimental_stims/frame/AFRAME127.jpg,/static/Category_learning/Stimuli/Experimental_stims/tape/41FZA73H4JL._AA280_.jpg,0.0,129.363,0.363,0.0,tape,frame,40.0,80.0,tape11,frame1,20.0,80.0,,,,,,
431,,confirmation,,html-keyboard-response,431,616216,0.0-1.0-76.0-0.0-1.0-0.0,0,0,54830,,,,,,74.0,,,,,2.0,,,,,,,,,,,,,,,,,,130.5,1.137,,,,,,,,,,,,,,,
432,,isi,,html-keyboard-response,432,617224,0.0-1.0-76.0-0.0-2.0,0,0,54830,,,,,,74.0,,,,,2.0,,,,,,,,,,,,,,,,,,131.5,1.0,,,,,,,,,,,,,,,
433,,feedback,,html-keyboard-response,433,618235,0.0-1.0-76.0-0.0-3.0-0.0,0,0,54830,,,,,,74.0,,,,,2.0,,,,,,,,,,,,,,,,,,132.5,1.0,,,,,,,,,,,,,,,
434,,iti,,html-keyboard-response,434,619245,0.0-1.0-76.0-0.0-5.0,0,0,54830,,,,,,74.0,,,,,2.0,,,,,,,,,,,,,,,,,,133.5,1.0,,,,,,,,,,,,,,,
435,,choice,,html-keyboard-response,435,620223,0.0-1.0-77.0-0.0-0.0,0,0,54830,,970.0,,,68.0,75.0,87.0,1500.0,1000.0,0.0,2.0,0.0,20-60,,1.0,bowl,seashell,60.0,20.0,bowl12,seashell1,40.0,0.0,Abowl52.jpg,Aseashe34.jpg,/static/Category_learning/Stimuli/Experimental_stims/bowl/Abowl52.jpg,/static/Category_learning/Stimuli/Experimental_stims/seashell/Aseashe34.jpg,0.0,134.47,0.97,1.0,bowl,seashell,60.0,20.0,bowl12,seashell1,40.0,0.0,,,,,,
436,,confirmation,,html-keyboard-response,436,620763,0.0-1.0-77.0-0.0-1.0-0.0,0,0,54830,,,,,,75.0,,,,,2.0,,,,,,,,,,,,,,,,,,135.0,0.53,,,,,,,,,,,,,,,
437,,isi,,html-keyboard-response,437,622269,0.0-1.0-77.0-0.0-2.0,0,0,54830,,,,,,75.0,,,,,2.0,,,,,,,,,,,,,,,,,,136.5,1.5,,,,,,,,,,,,,,,
438,,feedback,,html-keyboard-response,438,623276,0.0-1.0-77.0-0.0-3.0-0.0,0,0,54830,,,,,,75.0,,,,,2.0,,,,,,,,,,,,,,,,,,137.5,1.0,,,,,,,,,,,,,,,
439,,iti,,html-keyboard-response,439,624282,0.0-1.0-77.0-0.0-5.0,0,0,54830,,,,,,75.0,,,,,2.0,,,,,,,,,,,,,,,,,,138.5,1.0,,,,,,,,,,,,,,,
440,,choice,,html-keyboard-response,440,624821,0.0-1.0-78.0-0.0-0.0,0,0,54830,,534.0,,,75.0,76.0,88.0,1500.0,1000.0,0.0,2.0,0.0,40-60,,1.0,desk,watch,60.0,40.0,desk2,watch15,80.0,40.0,AA Luffield Radial crescent Desk 1600mm x 1200mm.jpg,20-171-6.jpg,/static/Category_learning/Stimuli/Experimental_stims/desk/AA Luffield Radial crescent Desk 1600mm x 1200mm.jpg,/static/Category_learning/Stimuli/Experimental_stims/watch/20-171-6.jpg,0.0,139.034,0.534,0.0,watch,desk,40.0,60.0,watch15,desk2,40.0,80.0,,,,,,
441,,confirmation,,html-keyboard-response,441,625796,0.0-1.0-78.0-0.0-1.0-0.0,0,0,54830,,,,,,76.0,,,,,2.0,,,,,,,,,,,,,,,,,,140.0,0.966,,,,,,,,,,,,,,,
442,,isi,,html-keyboard-response,442,627303,0.0-1.0-78.0-0.0-2.0,0,0,54830,,,,,,76.0,,,,,2.0,,,,,,,,,,,,,,,,,,141.5,1.5,,,,,,,,,,,,,,,
443,,feedback,,html-keyboard-response,443,628311,0.0-1.0-78.0-0.0-3.0-0.0,0,0,54830,,,,,,76.0,,,,,2.0,,,,,,,,,,,,,,,,,,142.5,1.0,,,,,,,,,,,,,,,
444,,iti,,html-keyboard-response,444,629318,0.0-1.0-78.0-0.0-5.0,0,0,54830,,,,,,76.0,,,,,2.0,,,,,,,,,,,,,,,,,,143.5,1.0,,,,,,,,,,,,,,,
445,,choice,,html-keyboard-response,445,629801,0.0-1.0-79.0-0.0-0.0,0,0,54830,,472.0,,,68.0,77.0,89.0,1000.0,3000.0,0.0,2.0,1.0,40-40,1.0,,trumpet,trumpet,40.0,40.0,trumpet1,trumpet2,60.0,40.0,JUPITER+TROMPETTE+606MRL.JPG,Matt-Stevens-Pocket-Trumpet.jpg,/static/Category_learning/Stimuli/Experimental_stims/trumpet/JUPITER+TROMPETTE+606MRL.JPG,/static/Category_learning/Stimuli/Experimental_stims/trumpet/Matt-Stevens-Pocket-Trumpet.jpg,0.0,143.972,0.472,1.0,trumpet,trumpet,40.0,40.0,trumpet1,trumpet2,60.0,40.0,,,,,,
446,,confirmation,,html-keyboard-response,446,630839,0.0-1.0-79.0-0.0-1.0-0.0,0,0,54830,,,,,,77.0,,,,,2.0,,,,,,,,,,,,,,,,,,145.0,1.028,,,,,,,,,,,,,,,
447,,isi,,html-keyboard-response,447,631850,0.0-1.0-79.0-0.0-2.0,0,0,54830,,,,,,77.0,,,,,2.0,,,,,,,,,,,,,,,,,,146.0,1.0,,,,,,,,,,,,,,,
448,,feedback,,html-keyboard-response,448,632863,0.0-1.0-79.0-0.0-3.0-0.0,0,0,54830,,,,,,77.0,,,,,2.0,,,,,,,,,,,,,,,,,,147.0,1.0,,,,,,,,,,,,,,,
449,,iti,,html-keyboard-response,449,635872,0.0-1.0-79.0-0.0-5.0,0,0,54830,,,,,,77.0,,,,,2.0,,,,,,,,,,,,,,,,,,150.0,3.0,,,,,,,,,,,,,,,
450,,choice,,html-keyboard-response,450,636560,0.0-1.0-80.0-0.0-0.0,0,0,54830,,681.0,,,68.0,78.0,90.0,1000.0,1000.0,0.0,2.0,0.0,40-60,,0.0,tape,dresser,40.0,60.0,tape1,dresser2,20.0,80.0,aktotape_01.jpg,ADRESSE46.jpg,/static/Category_learning/Stimuli/Experimental_stims/tape/aktotape_01.jpg,/static/Category_learning/Stimuli/Experimental_stims/dresser/ADRESSE46.jpg,0.0,150.681,0.681,1.0,tape,dresser,40.0,60.0,tape1,dresser2,20.0,80.0,,,,,,
451,,confirmation,,html-keyboard-response,451,637389,0.0-1.0-80.0-0.0-1.0-0.0,0,0,54830,,,,,,78.0,,,,,2.0,,,,,,,,,,,,,,,,,,151.5,0.819,,,,,,,,,,,,,,,
452,,isi,,html-keyboard-response,452,638396,0.0-1.0-80.0-0.0-2.0,0,0,54830,,,,,,78.0,,,,,2.0,,,,,,,,,,,,,,,,,,152.5,1.0,,,,,,,,,,,,,,,
453,,feedback,,html-keyboard-response,453,639426,0.0-1.0-80.0-0.0-3.0-0.0,0,0,54830,,,,,,78.0,,,,,2.0,,,,,,,,,,,,,,,,,,153.5,1.0,,,,,,,,,,,,,,,
454,,iti,,html-keyboard-response,454,640434,0.0-1.0-80.0-0.0-5.0,0,0,54830,,,,,,78.0,,,,,2.0,,,,,,,,,,,,,,,,,,154.5,1.0,,,,,,,,,,,,,,,
455,,choice,,html-keyboard-response,455,641219,0.0-1.0-81.0-0.0-0.0,0,0,54830,,777.0,,,68.0,79.0,91.0,2000.0,1000.0,0.0,2.0,0.0,80-80,,,lipstick,frame,80.0,80.0,lipstick3,frame6,80.0,60.0,31sCvjMS3jL._SS500_.jpg,AFRAME123.jpg,/static/Category_learning/Stimuli/Experimental_stims/lipstick/31sCvjMS3jL._SS500_.jpg,/static/Category_learning/Stimuli/Experimental_stims/frame/AFRAME123.jpg,0.0,155.277,0.777,1.0,lipstick,frame,80.0,80.0,lipstick3,frame6,80.0,60.0,,,,,,
456,,confirmation,,html-keyboard-response,456,641952,0.0-1.0-81.0-0.0-1.0-0.0,0,0,54830,,,,,,79.0,,,,,2.0,,,,,,,,,,,,,,,,,,156.0,0.723,,,,,,,,,,,,,,,
457,,isi,,html-keyboard-response,457,643958,0.0-1.0-81.0-0.0-2.0,0,0,54830,,,,,,79.0,,,,,2.0,,,,,,,,,,,,,,,,,,158.0,2.0,,,,,,,,,,,,,,,
458,,feedback,,html-keyboard-response,458,644966,0.0-1.0-81.0-0.0-3.0-0.0,0,0,54830,,,,,,79.0,,,,,2.0,,,,,,,,,,,,,,,,,,159.0,1.0,,,,,,,,,,,,,,,
459,,iti,,html-keyboard-response,459,645974,0.0-1.0-81.0-0.0-5.0,0,0,54830,,,,,,79.0,,,,,2.0,,,,,,,,,,,,,,,,,,160.0,1.0,,,,,,,,,,,,,,,
460,,choice,,html-keyboard-response,460,646459,0.0-1.0-82.0-0.0-0.0,0,0,54830,,477.0,,,68.0,80.0,92.0,1500.0,1500.0,0.0,2.0,0.0,40-80,,0.0,yarn,hat,40.0,80.0,yarn9,hat9,60.0,100.0,Aballofyarn26.jpg,Astrawhat44.jpg,/static/Category_learning/Stimuli/Experimental_stims/yarn/Aballofyarn26.jpg,/static/Category_learning/Stimuli/Experimental_stims/hat/Astrawhat44.jpg,0.0,160.477,0.477,1.0,yarn,hat,40.0,80.0,yarn9,hat9,60.0,100.0,,,,,,
461,,confirmation,,html-keyboard-response,461,647491,0.0-1.0-82.0-0.0-1.0-0.0,0,0,54830,,,,,,80.0,,,,,2.0,,,,,,,,,,,,,,,,,,161.5,1.023,,,,,,,,,,,,,,,
462,,isi,,html-keyboard-response,462,648998,0.0-1.0-82.0-0.0-2.0,0,0,54830,,,,,,80.0,,,,,2.0,,,,,,,,,,,,,,,,,,163.0,1.5,,,,,,,,,,,,,,,
463,,feedback,,html-keyboard-response,463,650008,0.0-1.0-82.0-0.0-3.0-0.0,0,0,54830,,,,,,80.0,,,,,2.0,,,,,,,,,,,,,,,,,,164.0,1.0,,,,,,,,,,,,,,,
464,,iti,,html-keyboard-response,464,651514,0.0-1.0-82.0-0.0-5.0,0,0,54830,,,,,,80.0,,,,,2.0,,,,,,,,,,,,,,,,,,165.5,1.5,,,,,,,,,,,,,,,
465,,choice,,html-keyboard-response,465,651954,0.0-1.0-83.0-0.0-0.0,0,0,54830,,432.0,,,68.0,81.0,93.0,1000.0,1000.0,0.0,2.0,0.0,20-80,,0.0,power strip,motorcycle,20.0,80.0,power strip7,motorcycle13,20.0,80.0,412YZ25RFBL._AA262_.jpg,2005-Buell-FireboltXB12R.jpg,/static/Category_learning/Stimuli/Experimental_stims/power strip/412YZ25RFBL._AA262_.jpg,/static/Category_learning/Stimuli/Experimental_stims/motorcycle/2005-Buell-FireboltXB12R.jpg,0.0,165.932,0.432,1.0,power strip,motorcycle,20.0,80.0,power strip7,motorcycle13,20.0,80.0,,,,,,
466,,confirmation,,html-keyboard-response,466,653029,0.0-1.0-83.0-0.0-1.0-0.0,0,0,54830,,,,,,81.0,,,,,2.0,,,,,,,,,,,,,,,,,,167.0,1.068,,,,,,,,,,,,,,,
467,,isi,,html-keyboard-response,467,654037,0.0-1.0-83.0-0.0-2.0,0,0,54830,,,,,,81.0,,,,,2.0,,,,,,,,,,,,,,,,,,168.0,1.0,,,,,,,,,,,,,,,
468,,feedback,,html-keyboard-response,468,655048,0.0-1.0-83.0-0.0-3.0-0.0,0,0,54830,,,,,,81.0,,,,,2.0,,,,,,,,,,,,,,,,,,169.0,1.0,,,,,,,,,,,,,,,
469,,iti,,html-keyboard-response,469,656054,0.0-1.0-83.0-0.0-5.0,0,0,54830,,,,,,81.0,,,,,2.0,,,,,,,,,,,,,,,,,,170.0,1.0,,,,,,,,,,,,,,,
470,,choice,,html-keyboard-response,470,656879,0.0-1.0-84.0-0.0-0.0,0,0,54830,,817.0,,,68.0,82.0,94.0,1000.0,2000.0,0.0,2.0,0.0,40-80,,0.0,telescope,makeup compact,40.0,80.0,telescope9,makeup compact11,60.0,100.0,13TELESTAND.jpg,P190255_hero.jpg,/static/Category_learning/Stimuli/Experimental_stims/telescope/13TELESTAND.jpg,/static/Category_learning/Stimuli/Experimental_stims/makeup compact/P190255_hero.jpg,0.0,170.817,0.817,1.0,telescope,makeup compact,40.0,80.0,telescope9,makeup compact11,60.0,100.0,,,,,,
471,,confirmation,,html-keyboard-response,471,657571,0.0-1.0-84.0-0.0-1.0-0.0,0,0,54830,,,,,,82.0,,,,,2.0,,,,,,,,,,,,,,,,,,171.5,0.683,,,,,,,,,,,,,,,
472,,isi,,html-keyboard-response,472,658580,0.0-1.0-84.0-0.0-2.0,0,0,54830,,,,,,82.0,,,,,2.0,,,,,,,,,,,,,,,,,,172.5,1.0,,,,,,,,,,,,,,,
473,,feedback,,html-keyboard-response,473,659631,0.0-1.0-84.0-0.0-3.0-0.0,0,0,54830,,,,,,82.0,,,,,2.0,,,,,,,,,,,,,,,,,,173.5,1.0,,,,,,,,,,,,,,,
474,,iti,,html-keyboard-response,474,661638,0.0-1.0-84.0-0.0-5.0,0,0,54830,,,,,,82.0,,,,,2.0,,,,,,,,,,,,,,,,,,175.5,2.0,,,,,,,,,,,,,,,
